participant,condition,date,expName,psychopyVersion,OS,frameRate,block,phase,trial,learn_mouse_2.x,learn_mouse_2.y,learn_mouse_2.leftButton,learn_mouse_2.midButton,learn_mouse_2.rightButton,learn_mouse_2.time,learn_mouse_2.clicked_name,cat,token,row,col,t_select,cat_mouse_l.x,cat_mouse_l.y,cat_mouse_l.leftButton,cat_mouse_l.midButton,cat_mouse_l.rightButton,cat_mouse_l.time,cat_mouse_l.clicked_name,resp,t_resp,corr,train_trials.thisRepN,train_trials.thisTrialN,train_trials.thisN,train_trials.thisIndex,train_trials.ran,cat_mouse_t.x,cat_mouse_t.y,cat_mouse_t.leftButton,cat_mouse_t.midButton,cat_mouse_t.rightButton,cat_mouse_t.time,cat_mouse_t.clicked_name,test_trials.thisRepN,test_trials.thisTrialN,test_trials.thisN,test_trials.thisIndex,test_trials.ran,Bonus
5dd95e3c2274978e775f2aff,TCR,2024-06-25_13h23.36.728,LearnStrategy,2023.2.3,MacIntel,120.4819277,,,,,,,,,,,,,,,,,,,,,,,,,,,,,,,,,,,,,,,,,,,
5dd95e3c2274978e775f2aff,TCR,2024-06-25_13h23.36.728,LearnStrategy,2023.2.3,MacIntel,120.4819277,1,1,1,0.085573743,0.008692956,1,0,0,1.1992,rock_grid_rect_2,1,01,-1,-1,1.199,-0.364723876,-0.390856481,1,0,0,5.0495,Obsidian_rect,5,5.049,0,0,0,0,0,1,,,,,,,,,,,,,
5dd95e3c2274978e775f2aff,TCR,2024-06-25_13h23.36.728,LearnStrategy,2023.2.3,MacIntel,120.4819277,1,1,2,0.023689649,-0.01515377,1,0,0,1.0291,rock_grid_rect_2,2,16,-1,-1,1.029,0.076496362,-0.231039187,1,0,0,1.6101,Diorite_rect,3,1.61,0,1,0,1,0,1,,,,,,,,,,,,,
5dd95e3c2274978e775f2aff,TCR,2024-06-25_13h23.36.728,LearnStrategy,2023.2.3,MacIntel,120.4819277,1,1,3,0.076083003,0.004104663,1,0,0,1.6314,rock_grid_rect_2,1,07,-1,-1,1.631,0.357291667,-0.269394841,1,0,0,2.9536,Gabbro_rect,4,2.954,0,2,0,2,0,1,,,,,,,,,,,,,
5dd95e3c2274978e775f2aff,TCR,2024-06-25_13h23.36.728,LearnStrategy,2023.2.3,MacIntel,120.4819277,1,1,4,0.068386243,-0.006361607,1,0,0,0.89,rock_grid_rect_2,5,07,-1,-1,0.89,0.189008763,-0.391472388,1,0,0,2.2281,Peridotite_rect,7,2.228,0,3,0,3,0,1,,,,,,,,,,,,,
5dd95e3c2274978e775f2aff,TCR,2024-06-25_13h23.36.728,LearnStrategy,2023.2.3,MacIntel,120.4819277,1,1,5,0.038711144,0.008519345,1,0,0,1.2228,rock_grid_rect_2,3,13,-1,-1,1.223,-0.110726687,-0.410639881,1,0,0,1.7698,Pegmatite_rect,6,1.77,0,4,0,4,0,1,,,,,,,,,,,,,
5dd95e3c2274978e775f2aff,TCR,2024-06-25_13h23.36.728,LearnStrategy,2023.2.3,MacIntel,120.4819277,1,1,6,-0.032795966,-0.012239583,1,0,0,0.7728,rock_grid_rect_2,5,14,-1,-1,0.773,-0.312570271,-0.244779266,1,0,0,2.6945,Andesite_rect,1,2.695,0,5,0,5,0,1,,,,,,,,,,,,,
5dd95e3c2274978e775f2aff,TCR,2024-06-25_13h23.36.728,LearnStrategy,2023.2.3,MacIntel,120.4819277,1,1,7,-0.017902612,0.006944444,1,0,0,0.7059,rock_grid_rect_2,4,10,-1,-1,0.706,-0.324979332,-0.406386409,1,0,0,1.0115,Obsidian_rect,5,1.012,0,6,0,6,0,1,,,,,,,,,,,,,
5dd95e3c2274978e775f2aff,TCR,2024-06-25_13h23.36.728,LearnStrategy,2023.2.3,MacIntel,120.4819277,1,1,8,0.00619213,-0.017567791,1,0,0,0.7395,rock_grid_rect_2,7,14,-1,-1,0.74,0.329042659,-0.390505126,1,0,0,4.3285,Pumice_rect,8,4.328,0,7,0,7,0,1,,,,,,,,,,,,,
5dd95e3c2274978e775f2aff,TCR,2024-06-25_13h23.36.728,LearnStrategy,2023.2.3,MacIntel,120.4819277,1,1,9,-0.004604828,-0.017212302,1,0,0,0.948,rock_grid_rect_2,7,06,-1,-1,0.948,-0.078455688,-0.246883267,1,0,0,4.1942,Basalt_rect,2,4.194,0,8,0,8,0,1,,,,,,,,,,,,,
5dd95e3c2274978e775f2aff,TCR,2024-06-25_13h23.36.728,LearnStrategy,2023.2.3,MacIntel,120.4819277,1,1,10,-0.056576554,0.006700562,1,0,0,0.6135,rock_grid_rect_2,8,04,-1,-1,0.614,-0.319882606,-0.247689319,1,0,0,1.6699,Andesite_rect,1,1.67,0,9,0,9,0,1,,,,,,,,,,,,,
5dd95e3c2274978e775f2aff,TCR,2024-06-25_13h23.36.728,LearnStrategy,2023.2.3,MacIntel,120.4819277,1,1,11,-0.076839451,0.017898479,1,0,0,1.0893,rock_grid_rect_2,2,09,-1,-1,1.089,0.402794312,-0.386342593,1,0,0,1.011,Pumice_rect,8,1.011,0,10,0,10,0,1,,,,,,,,,,,,,
5dd95e3c2274978e775f2aff,TCR,2024-06-25_13h23.36.728,LearnStrategy,2023.2.3,MacIntel,120.4819277,1,1,12,0.070386905,-0.021370701,1,0,0,1.0812,rock_grid_rect_2,3,12,-1,-1,1.081,0.358887235,-0.260271991,1,0,0,2.6681,Gabbro_rect,4,2.668,0,11,0,11,0,1,,,,,,,,,,,,,
5dd95e3c2274978e775f2aff,TCR,2024-06-25_13h23.36.728,LearnStrategy,2023.2.3,MacIntel,120.4819277,1,1,13,0.124623843,-0.023660714,1,0,0,1.2125,rock_grid_rect_2,4,01,-1,-1,1.213,-0.095692791,-0.395539848,1,0,0,2.4529,Pegmatite_rect,6,2.453,0,12,0,12,0,1,,,,,,,,,,,,,
5dd95e3c2274978e775f2aff,TCR,2024-06-25_13h23.36.728,LearnStrategy,2023.2.3,MacIntel,120.4819277,1,1,14,-0.022895999,0.007093254,1,0,0,0.6229,rock_grid_rect_2,6,13,-1,-1,0.623,-0.125,-0.398582176,1,0,0,1.4618,Pegmatite_rect,6,1.462,1,13,0,13,0,1,,,,,,,,,,,,,
5dd95e3c2274978e775f2aff,TCR,2024-06-25_13h23.36.728,LearnStrategy,2023.2.3,MacIntel,120.4819277,1,1,15,-0.021044147,-0.007824901,1,0,0,0.9559,rock_grid_rect_2,8,05,-1,-1,0.956,0.361888228,-0.392344577,1,0,0,2.6095,Pumice_rect,8,2.609,1,14,0,14,0,1,,,,,,,,,,,,,
5dd95e3c2274978e775f2aff,TCR,2024-06-25_13h23.36.728,LearnStrategy,2023.2.3,MacIntel,120.4819277,1,1,16,0.02458664,-0.005291005,1,0,0,0.8138,rock_grid_rect_2,6,07,-1,-1,0.814,-0.134060847,-0.413359788,1,0,0,2.5443,Pegmatite_rect,6,2.544,1,15,0,15,0,1,,,,,,,,,,,,,
5dd95e3c2274978e775f2aff,TCR,2024-06-25_13h23.36.728,LearnStrategy,2023.2.3,MacIntel,120.4819277,1,2,1,,,,,,,,1,05,,,,,,,,,,,4,5.113,0,,,,,,0.341596396,-0.266220238,1,0,0,5.1133,Gabbro_rect,0,0,0,0,1,
5dd95e3c2274978e775f2aff,TCR,2024-06-25_13h23.36.728,LearnStrategy,2023.2.3,MacIntel,120.4819277,1,2,2,,,,,,,,5,10,,,,,,,,,,,5,2.734,1,,,,,,-0.363252315,-0.409990906,1,0,0,2.734,Obsidian_rect,1,0,1,0,1,
5dd95e3c2274978e775f2aff,TCR,2024-06-25_13h23.36.728,LearnStrategy,2023.2.3,MacIntel,120.4819277,1,2,3,,,,,,,,7,15,,,,,,,,,,,4,6.193,0,,,,,,0.387884425,-0.257944775,1,0,0,6.193,Gabbro_rect,2,0,2,0,1,
5dd95e3c2274978e775f2aff,TCR,2024-06-25_13h23.36.728,LearnStrategy,2023.2.3,MacIntel,120.4819277,1,2,4,,,,,,,,2,04,,,,,,,,,,,8,1.632,0,,,,,,0.361111111,-0.399607308,1,0,0,1.6323,Pumice_rect,3,0,3,0,1,
5dd95e3c2274978e775f2aff,TCR,2024-06-25_13h23.36.728,LearnStrategy,2023.2.3,MacIntel,120.4819277,1,2,5,,,,,,,,6,08,,,,,,,,,,,1,15.824,0,,,,,,-0.396908069,-0.269254299,1,0,0,15.8241,Andesite_rect,4,0,4,0,1,
5dd95e3c2274978e775f2aff,TCR,2024-06-25_13h23.36.728,LearnStrategy,2023.2.3,MacIntel,120.4819277,1,2,6,,,,,,,,6,12,,,,,,,,,,,7,4.26,0,,,,,,0.124900794,-0.398011739,1,0,0,4.2597,Peridotite_rect,5,0,5,0,1,
5dd95e3c2274978e775f2aff,TCR,2024-06-25_13h23.36.728,LearnStrategy,2023.2.3,MacIntel,120.4819277,1,2,7,,,,,,,,8,15,,,,,,,,,,,8,1.533,1,,,,,,0.34770172,-0.407977844,1,0,0,1.5326,Pumice_rect,6,0,6,0,1,
5dd95e3c2274978e775f2aff,TCR,2024-06-25_13h23.36.728,LearnStrategy,2023.2.3,MacIntel,120.4819277,1,2,8,,,,,,,,2,01,,,,,,,,,,,4,2.944,0,,,,,,0.362392526,-0.250090939,1,0,0,2.944,Gabbro_rect,7,0,7,0,1,
5dd95e3c2274978e775f2aff,TCR,2024-06-25_13h23.36.728,LearnStrategy,2023.2.3,MacIntel,120.4819277,1,2,9,,,,,,,,3,10,,,,,,,,,,,3,1.885,1,,,,,,0.104183201,-0.244436177,1,0,0,1.8849,Diorite_rect,8,0,8,0,1,
5dd95e3c2274978e775f2aff,TCR,2024-06-25_13h23.36.728,LearnStrategy,2023.2.3,MacIntel,120.4819277,1,2,10,,,,,,,,8,09,,,,,,,,,,,8,1.251,1,,,,,,0.37259838,-0.407895172,1,0,0,1.251,Pumice_rect,9,0,9,0,1,
5dd95e3c2274978e775f2aff,TCR,2024-06-25_13h23.36.728,LearnStrategy,2023.2.3,MacIntel,120.4819277,1,2,11,,,,,,,,1,02,,,,,,,,,,,2,2.526,0,,,,,,-0.125181878,-0.251905589,1,0,0,2.526,Basalt_rect,10,0,10,0,1,
5dd95e3c2274978e775f2aff,TCR,2024-06-25_13h23.36.728,LearnStrategy,2023.2.3,MacIntel,120.4819277,1,2,12,,,,,,,,4,08,,,,,,,,,,,5,1.668,0,,,,,,-0.388248181,-0.412900959,1,0,0,1.6683,Obsidian_rect,11,0,11,0,1,
5dd95e3c2274978e775f2aff,TCR,2024-06-25_13h23.36.728,LearnStrategy,2023.2.3,MacIntel,120.4819277,1,2,13,,,,,,,,7,12,,,,,,,,,,,1,2.344,0,,,,,,-0.352996858,-0.245978009,1,0,0,2.3438,Andesite_rect,12,0,12,0,1,
5dd95e3c2274978e775f2aff,TCR,2024-06-25_13h23.36.728,LearnStrategy,2023.2.3,MacIntel,120.4819277,1,2,14,,,,,,,,4,05,,,,,,,,,,,7,3.539,0,,,,,,0.074429563,-0.388463128,1,0,0,3.539,Peridotite_rect,13,0,13,0,1,
5dd95e3c2274978e775f2aff,TCR,2024-06-25_13h23.36.728,LearnStrategy,2023.2.3,MacIntel,120.4819277,1,2,15,,,,,,,,5,04,,,,,,,,,,,5,1.193,1,,,,,,-0.367009755,-0.389331184,1,0,0,1.1931,Obsidian_rect,14,0,14,0,1,
5dd95e3c2274978e775f2aff,TCR,2024-06-25_13h23.36.728,LearnStrategy,2023.2.3,MacIntel,120.4819277,1,2,16,,,,,,,,3,14,,,,,,,,,,,2,6.368,0,,,,,,-0.072073413,-0.254918981,1,0,0,6.3681,Basalt_rect,15,0,15,0,1,
5dd95e3c2274978e775f2aff,TCR,2024-06-25_13h23.36.728,LearnStrategy,2023.2.3,MacIntel,120.4819277,2,1,1,0.066521991,-0.01937004,1,0,0,1.3252,rock_grid_rect_2,3,02,-1,-1,1.325,0.352368552,-0.246354167,1,0,0,3.0438,Gabbro_rect,4,3.044,0,0,0,0,0,1,,,,,,,,,,,,,
5dd95e3c2274978e775f2aff,TCR,2024-06-25_13h23.36.728,LearnStrategy,2023.2.3,MacIntel,120.4819277,2,1,2,0.034379134,-0.008498677,1,0,0,2.5312,rock_grid_rect_2,4,10,-1,-1,2.531,-0.344394841,-0.40229828,1,0,0,2.0274,Obsidian_rect,5,2.027,0,1,0,1,0,1,,,,,,,,,,,,,
5dd95e3c2274978e775f2aff,TCR,2024-06-25_13h23.36.728,LearnStrategy,2023.2.3,MacIntel,120.4819277,2,1,3,-0.035416667,0.00427414,1,0,0,0.7309,rock_grid_rect_2,1,09,-1,-1,0.731,0.336173115,-0.407824901,1,0,0,1.2361,Pumice_rect,8,1.236,0,2,0,2,0,1,,,,,,,,,,,,,
5dd95e3c2274978e775f2aff,TCR,2024-06-25_13h23.36.728,LearnStrategy,2023.2.3,MacIntel,120.4819277,2,1,4,-0.008320933,-0.015777943,1,0,0,0.7811,rock_grid_rect_2,2,06,-1,-1,0.781,0.309738757,-0.38556961,1,0,0,0.9032,Pumice_rect,8,0.903,0,3,0,3,0,1,,,,,,,,,,,,,
5dd95e3c2274978e775f2aff,TCR,2024-06-25_13h23.36.728,LearnStrategy,2023.2.3,MacIntel,120.4819277,2,1,5,0.035123181,-0.015562996,1,0,0,0.6566,rock_grid_rect_2,1,11,-1,-1,0.657,-0.04656498,-0.264050099,1,0,0,1.3286,Basalt_rect,2,1.329,0,4,0,4,0,1,,,,,,,,,,,,,
5dd95e3c2274978e775f2aff,TCR,2024-06-25_13h23.36.728,LearnStrategy,2023.2.3,MacIntel,120.4819277,2,1,6,-0.000248016,-0.003711971,1,0,0,0.6386,rock_grid_rect_2,4,12,-1,-1,0.639,0.443055556,-0.404823909,1,0,0,2.1874,Pumice_rect,8,2.187,0,5,0,5,0,1,,,,,,,,,,,,,
5dd95e3c2274978e775f2aff,TCR,2024-06-25_13h23.36.728,LearnStrategy,2023.2.3,MacIntel,120.4819277,2,1,7,0.012830688,-0.021937004,1,0,0,0.8824,rock_grid_rect_2,7,04,-1,-1,0.882,0.153240741,-0.395366237,1,0,0,6.752,Peridotite_rect,7,6.752,1,6,0,6,0,1,,,,,,,,,,,,,
5dd95e3c2274978e775f2aff,TCR,2024-06-25_13h23.36.728,LearnStrategy,2023.2.3,MacIntel,120.4819277,2,1,8,0.024768519,0.002761243,1,0,0,1.3073,rock_grid_rect_2,7,13,-1,-1,1.307,-0.093580522,-0.237367725,1,0,0,1.5686,Basalt_rect,2,1.569,0,7,0,7,0,1,,,,,,,,,,,,,
5dd95e3c2274978e775f2aff,TCR,2024-06-25_13h23.36.728,LearnStrategy,2023.2.3,MacIntel,120.4819277,2,1,9,0.059680886,0.018907077,1,0,0,0.8973,rock_grid_rect_2,6,11,-1,-1,0.897,-0.11202877,-0.405369544,1,0,0,1.2273,Pegmatite_rect,6,1.227,1,8,0,8,0,1,,,,,,,,,,,,,
5dd95e3c2274978e775f2aff,TCR,2024-06-25_13h23.36.728,LearnStrategy,2023.2.3,MacIntel,120.4819277,2,1,10,0.008279597,0.001591435,1,0,0,1.8291,rock_grid_rect_2,7,10,-1,-1,1.829,0.370155423,-0.249541171,1,0,0,4.8944,Gabbro_rect,4,4.894,0,9,0,9,0,1,,,,,,,,,,,,,
5dd95e3c2274978e775f2aff,TCR,2024-06-25_13h23.36.728,LearnStrategy,2023.2.3,MacIntel,120.4819277,2,1,11,0.028393684,0.014608135,1,0,0,0.7154,rock_grid_rect_2,2,11,-1,-1,0.715,0.326182209,-0.399669312,1,0,0,1.0421,Pumice_rect,8,1.042,0,10,0,10,0,1,,,,,,,,,,,,,
5dd95e3c2274978e775f2aff,TCR,2024-06-25_13h23.36.728,LearnStrategy,2023.2.3,MacIntel,120.4819277,2,1,12,0.004877646,-0.004352679,1,0,0,0.6149,rock_grid_rect_2,1,03,-1,-1,0.615,0.384511409,-0.408081184,1,0,0,0.92,Pumice_rect,8,0.92,0,11,0,11,0,1,,,,,,,,,,,,,
5dd95e3c2274978e775f2aff,TCR,2024-06-25_13h23.36.728,LearnStrategy,2023.2.3,MacIntel,120.4819277,2,1,13,0.002641369,0.020610119,1,0,0,0.5646,rock_grid_rect_2,6,09,-1,-1,0.565,-0.343758267,-0.411789021,1,0,0,1.6703,Obsidian_rect,5,1.67,0,12,0,12,0,1,,,,,,,,,,,,,
5dd95e3c2274978e775f2aff,TCR,2024-06-25_13h23.36.728,LearnStrategy,2023.2.3,MacIntel,120.4819277,2,1,14,-0.030642361,-0.013091104,1,0,0,0.5892,rock_grid_rect_2,2,02,-1,-1,0.589,0.310532407,-0.393634259,1,0,0,0.9102,Pumice_rect,8,0.91,0,13,0,13,0,1,,,,,,,,,,,,,
5dd95e3c2274978e775f2aff,TCR,2024-06-25_13h23.36.728,LearnStrategy,2023.2.3,MacIntel,120.4819277,2,1,15,0.068907077,-0.007221396,1,0,0,0.615,rock_grid_rect_2,6,09,-1,-1,0.615,-0.049198082,-0.259643684,1,0,0,2.6701,Basalt_rect,2,2.67,0,14,0,14,0,1,,,,,,,,,,,,,
5dd95e3c2274978e775f2aff,TCR,2024-06-25_13h23.36.728,LearnStrategy,2023.2.3,MacIntel,120.4819277,2,1,16,0.019477513,-0.011685681,1,0,0,0.6142,rock_grid_rect_2,4,10,-1,-1,0.614,-0.360383598,-0.381216931,1,0,0,1.4273,Obsidian_rect,5,1.427,0,15,0,15,0,1,,,,,,,,,,,,,
5dd95e3c2274978e775f2aff,TCR,2024-06-25_13h23.36.728,LearnStrategy,2023.2.3,MacIntel,120.4819277,2,2,1,,,,,,,,6,05,,,,,,,,,,,7,2.249,0,,,,,,0.087504134,-0.408622685,1,0,0,2.2489,Peridotite_rect,0,0,0,0,1,
5dd95e3c2274978e775f2aff,TCR,2024-06-25_13h23.36.728,LearnStrategy,2023.2.3,MacIntel,120.4819277,2,2,2,,,,,,,,8,03,,,,,,,,,,,8,1.277,1,,,,,,0.372089947,-0.4052042,1,0,0,1.2765,Pumice_rect,1,0,1,0,1,
5dd95e3c2274978e775f2aff,TCR,2024-06-25_13h23.36.728,LearnStrategy,2023.2.3,MacIntel,120.4819277,2,2,3,,,,,,,,2,10,,,,,,,,,,,2,3.451,1,,,,,,-0.108519345,-0.248503638,1,0,0,3.4508,Basalt_rect,2,0,2,0,1,
5dd95e3c2274978e775f2aff,TCR,2024-06-25_13h23.36.728,LearnStrategy,2023.2.3,MacIntel,120.4819277,2,2,4,,,,,,,,2,05,,,,,,,,,,,8,5.391,0,,,,,,0.39671379,-0.396209491,1,0,0,5.3907,Pumice_rect,3,0,3,0,1,
5dd95e3c2274978e775f2aff,TCR,2024-06-25_13h23.36.728,LearnStrategy,2023.2.3,MacIntel,120.4819277,2,2,5,,,,,,,,7,02,,,,,,,,,,,7,3.358,1,,,,,,0.113334987,-0.42094494,1,0,0,3.3577,Peridotite_rect,4,0,4,0,1,
5dd95e3c2274978e775f2aff,TCR,2024-06-25_13h23.36.728,LearnStrategy,2023.2.3,MacIntel,120.4819277,2,2,6,,,,,,,,5,02,,,,,,,,,,,5,0.909,1,,,,,,-0.457423942,-0.399247685,1,0,0,0.9094,Obsidian_rect,5,0,5,0,1,
5dd95e3c2274978e775f2aff,TCR,2024-06-25_13h23.36.728,LearnStrategy,2023.2.3,MacIntel,120.4819277,2,2,7,,,,,,,,3,15,,,,,,,,,,,4,5.976,0,,,,,,0.433577216,-0.243919478,1,0,0,5.9762,Gabbro_rect,6,0,6,0,1,
5dd95e3c2274978e775f2aff,TCR,2024-06-25_13h23.36.728,LearnStrategy,2023.2.3,MacIntel,120.4819277,2,2,8,,,,,,,,1,14,,,,,,,,,,,7,5.266,0,,,,,,0.063508598,-0.405191799,1,0,0,5.2655,Peridotite_rect,7,0,7,0,1,
5dd95e3c2274978e775f2aff,TCR,2024-06-25_13h23.36.728,LearnStrategy,2023.2.3,MacIntel,120.4819277,2,2,9,,,,,,,,8,10,,,,,,,,,,,8,1.024,1,,,,,,0.384837963,-0.412363591,1,0,0,1.0237,Pumice_rect,8,0,8,0,1,
5dd95e3c2274978e775f2aff,TCR,2024-06-25_13h23.36.728,LearnStrategy,2023.2.3,MacIntel,120.4819277,2,2,10,,,,,,,,5,11,,,,,,,,,,,5,0.867,1,,,,,,-0.346494709,-0.410511739,1,0,0,0.8674,Obsidian_rect,9,0,9,0,1,
5dd95e3c2274978e775f2aff,TCR,2024-06-25_13h23.36.728,LearnStrategy,2023.2.3,MacIntel,120.4819277,2,2,11,,,,,,,,3,08,,,,,,,,,,,7,4.473,0,,,,,,0.086073909,-0.393634259,1,0,0,4.4731,Peridotite_rect,10,0,10,0,1,
5dd95e3c2274978e775f2aff,TCR,2024-06-25_13h23.36.728,LearnStrategy,2023.2.3,MacIntel,120.4819277,2,2,12,,,,,,,,4,14,,,,,,,,,,,3,1.352,0,,,,,,0.114248512,-0.258374669,1,0,0,1.3519,Diorite_rect,11,0,11,0,1,
5dd95e3c2274978e775f2aff,TCR,2024-06-25_13h23.36.728,LearnStrategy,2023.2.3,MacIntel,120.4819277,2,2,13,,,,,,,,1,10,,,,,,,,,,,1,1.357,1,,,,,,-0.356584821,-0.255787037,1,0,0,1.3573,Andesite_rect,12,0,12,0,1,
5dd95e3c2274978e775f2aff,TCR,2024-06-25_13h23.36.728,LearnStrategy,2023.2.3,MacIntel,120.4819277,2,2,14,,,,,,,,6,16,,,,,,,,,,,6,2.141,1,,,,,,-0.119390708,-0.390331515,1,0,0,2.1409,Pegmatite_rect,13,0,13,0,1,
5dd95e3c2274978e775f2aff,TCR,2024-06-25_13h23.36.728,LearnStrategy,2023.2.3,MacIntel,120.4819277,2,2,15,,,,,,,,4,03,,,,,,,,,,,2,3.093,0,,,,,,-0.121383102,-0.256965112,1,0,0,3.0932,Basalt_rect,14,0,14,0,1,
5dd95e3c2274978e775f2aff,TCR,2024-06-25_13h23.36.728,LearnStrategy,2023.2.3,MacIntel,120.4819277,2,2,16,,,,,,,,7,07,,,,,,,,,,,4,2.806,0,,,,,,0.35968502,-0.242319775,1,0,0,2.8064,Gabbro_rect,15,0,15,0,1,
5dd95e3c2274978e775f2aff,TCR,2024-06-25_13h23.36.728,LearnStrategy,2023.2.3,MacIntel,120.4819277,3,1,1,0.066889881,-0.008717758,1,0,0,0.9071,rock_grid_rect_2,2,16,-1,-1,0.907,0.422085813,-0.23520172,1,0,0,1.4852,Gabbro_rect,4,1.485,0,0,0,0,0,1,,,,,,,,,,,,,
5dd95e3c2274978e775f2aff,TCR,2024-06-25_13h23.36.728,LearnStrategy,2023.2.3,MacIntel,120.4819277,3,1,2,0.053563161,-0.003525959,1,0,0,0.682,rock_grid_rect_2,3,06,-1,-1,0.682,-0.100971396,-0.24613922,1,0,0,1.0024,Basalt_rect,2,1.002,0,1,0,1,0,1,,,,,,,,,,,,,
5dd95e3c2274978e775f2aff,TCR,2024-06-25_13h23.36.728,LearnStrategy,2023.2.3,MacIntel,120.4819277,3,1,3,-0.016178902,-0.000177745,1,0,0,0.7648,rock_grid_rect_2,7,04,-1,-1,0.765,0.102972057,-0.398631779,1,0,0,1.1034,Peridotite_rect,7,1.103,1,2,0,2,0,1,,,,,,,,,,,,,
5dd95e3c2274978e775f2aff,TCR,2024-06-25_13h23.36.728,LearnStrategy,2023.2.3,MacIntel,120.4819277,3,1,4,0.086545139,-0.010011574,1,0,0,0.7313,rock_grid_rect_2,3,11,-1,-1,0.731,-0.119299769,-0.263868221,1,0,0,5.627,Basalt_rect,2,5.627,0,3,0,3,0,1,,,,,,,,,,,,,
5dd95e3c2274978e775f2aff,TCR,2024-06-25_13h23.36.728,LearnStrategy,2023.2.3,MacIntel,120.4819277,3,1,5,-0.088173776,-0.019928075,1,0,0,0.7812,rock_grid_rect_2,4,10,-1,-1,0.781,-0.373883929,-0.419762731,1,0,0,0.9526,Obsidian_rect,5,0.953,0,4,0,4,0,1,,,,,,,,,,,,,
5dd95e3c2274978e775f2aff,TCR,2024-06-25_13h23.36.728,LearnStrategy,2023.2.3,MacIntel,120.4819277,3,1,6,-0.018683862,0.014885086,1,0,0,0.6067,rock_grid_rect_2,1,03,-1,-1,0.607,0.419204696,-0.405762235,1,0,0,1.3113,Pumice_rect,8,1.311,0,5,0,5,0,1,,,,,,,,,,,,,
5dd95e3c2274978e775f2aff,TCR,2024-06-25_13h23.36.728,LearnStrategy,2023.2.3,MacIntel,120.4819277,3,1,7,-0.000173611,4.54696E-05,1,0,0,0.6581,rock_grid_rect_2,7,04,-1,-1,0.658,0.127178406,-0.40890377,1,0,0,0.877,Peridotite_rect,7,0.877,1,6,0,6,0,1,,,,,,,,,,,,,
5dd95e3c2274978e775f2aff,TCR,2024-06-25_13h23.36.728,LearnStrategy,2023.2.3,MacIntel,120.4819277,3,1,8,0.053385417,-0.003426753,1,0,0,0.7823,rock_grid_rect_2,6,13,-1,-1,0.782,-0.104303075,-0.411809689,1,0,0,1.211,Pegmatite_rect,6,1.211,1,7,0,7,0,1,,,,,,,,,,,,,
5dd95e3c2274978e775f2aff,TCR,2024-06-25_13h23.36.728,LearnStrategy,2023.2.3,MacIntel,120.4819277,3,1,9,-0.038574735,-0.007361938,1,0,0,0.6895,rock_grid_rect_2,7,14,-1,-1,0.69,0.094969411,-0.247643849,1,0,0,1.3532,Diorite_rect,3,1.353,0,8,0,8,0,1,,,,,,,,,,,,,
5dd95e3c2274978e775f2aff,TCR,2024-06-25_13h23.36.728,LearnStrategy,2023.2.3,MacIntel,120.4819277,3,1,10,0.066216104,0.009499008,1,0,0,1.1198,rock_grid_rect_2,2,09,-1,-1,1.12,0.403120866,-0.414310516,1,0,0,1.3107,Pumice_rect,8,1.311,0,9,0,9,0,1,,,,,,,,,,,,,
5dd95e3c2274978e775f2aff,TCR,2024-06-25_13h23.36.728,LearnStrategy,2023.2.3,MacIntel,120.4819277,3,1,11,-0.042480985,-0.009465939,1,0,0,0.9061,rock_grid_rect_2,1,01,-1,-1,0.906,-0.37567791,-0.390046296,1,0,0,1.2701,Obsidian_rect,5,1.27,0,10,0,10,0,1,,,,,,,,,,,,,
5dd95e3c2274978e775f2aff,TCR,2024-06-25_13h23.36.728,LearnStrategy,2023.2.3,MacIntel,120.4819277,3,1,12,-0.058089451,0.00978836,1,0,0,0.5897,rock_grid_rect_2,3,13,-1,-1,0.59,-0.109201389,-0.27051918,1,0,0,1.1193,Basalt_rect,2,1.119,0,11,0,11,0,1,,,,,,,,,,,,,
5dd95e3c2274978e775f2aff,TCR,2024-06-25_13h23.36.728,LearnStrategy,2023.2.3,MacIntel,120.4819277,3,1,13,-0.03083664,-0.001550099,1,0,0,0.7979,rock_grid_rect_2,4,12,-1,-1,0.798,0.315587798,-0.266976687,1,0,0,1.8274,Gabbro_rect,4,1.827,1,12,0,12,0,1,,,,,,,,,,,,,
5dd95e3c2274978e775f2aff,TCR,2024-06-25_13h23.36.728,LearnStrategy,2023.2.3,MacIntel,120.4819277,3,1,14,0.00411293,-0.009784226,1,0,0,0.6821,rock_grid_rect_2,4,13,-1,-1,0.682,-0.137888558,-0.23583416,1,0,0,6.345,Basalt_rect,2,6.345,0,13,0,13,0,1,,,,,,,,,,,,,
5dd95e3c2274978e775f2aff,TCR,2024-06-25_13h23.36.728,LearnStrategy,2023.2.3,MacIntel,120.4819277,3,1,15,0.079174934,-0.017018022,1,0,0,1.1559,rock_grid_rect_2,6,07,-1,-1,1.156,-0.073668981,-0.380815972,1,0,0,1.52,Pegmatite_rect,6,1.52,1,14,0,14,0,1,,,,,,,,,,,,,
5dd95e3c2274978e775f2aff,TCR,2024-06-25_13h23.36.728,LearnStrategy,2023.2.3,MacIntel,120.4819277,3,1,16,-0.000628307,0.009908234,1,0,0,1.9896,rock_grid_rect_2,8,08,-1,-1,1.99,0.412590939,-0.388091104,1,0,0,1.0768,Pumice_rect,8,1.077,1,15,0,15,0,1,,,,,,,,,,,,,
5dd95e3c2274978e775f2aff,TCR,2024-06-25_13h23.36.728,LearnStrategy,2023.2.3,MacIntel,120.4819277,3,2,1,,,,,,,,3,16,,,,,,,,,,,1,5.66,0,,,,,,-0.392803406,-0.260197586,1,0,0,5.66,Andesite_rect,0,0,0,0,1,
5dd95e3c2274978e775f2aff,TCR,2024-06-25_13h23.36.728,LearnStrategy,2023.2.3,MacIntel,120.4819277,3,2,2,,,,,,,,6,10,,,,,,,,,,,7,1.3,0,,,,,,0.104187335,-0.411702216,1,0,0,1.3001,Peridotite_rect,1,0,1,0,1,
5dd95e3c2274978e775f2aff,TCR,2024-06-25_13h23.36.728,LearnStrategy,2023.2.3,MacIntel,120.4819277,3,2,3,,,,,,,,8,14,,,,,,,,,,,8,0.941,1,,,,,,0.314880952,-0.414595734,1,0,0,0.9413,Pumice_rect,2,0,2,0,1,
5dd95e3c2274978e775f2aff,TCR,2024-06-25_13h23.36.728,LearnStrategy,2023.2.3,MacIntel,120.4819277,3,2,4,,,,,,,,5,09,,,,,,,,,,,5,2.841,1,,,,,,-0.394849537,-0.404947917,1,0,0,2.8413,Obsidian_rect,3,0,3,0,1,
5dd95e3c2274978e775f2aff,TCR,2024-06-25_13h23.36.728,LearnStrategy,2023.2.3,MacIntel,120.4819277,3,2,5,,,,,,,,5,12,,,,,,,,,,,5,0.706,1,,,,,,-0.394849537,-0.404947917,1,0,0,0.7062,Obsidian_rect,4,0,4,0,1,
5dd95e3c2274978e775f2aff,TCR,2024-06-25_13h23.36.728,LearnStrategy,2023.2.3,MacIntel,120.4819277,3,2,6,,,,,,,,3,07,,,,,,,,,,,7,1.16,0,,,,,,0.147962136,-0.402848049,1,0,0,1.1601,Peridotite_rect,5,0,5,0,1,
5dd95e3c2274978e775f2aff,TCR,2024-06-25_13h23.36.728,LearnStrategy,2023.2.3,MacIntel,120.4819277,3,2,7,,,,,,,,2,08,,,,,,,,,,,2,1.486,1,,,,,,-0.148995536,-0.245424107,1,0,0,1.4861,Basalt_rect,6,0,6,0,1,
5dd95e3c2274978e775f2aff,TCR,2024-06-25_13h23.36.728,LearnStrategy,2023.2.3,MacIntel,120.4819277,3,2,8,,,,,,,,7,16,,,,,,,,,,,4,4.503,0,,,,,,0.411061508,-0.228220073,1,0,0,4.5032,Gabbro_rect,7,0,7,0,1,
5dd95e3c2274978e775f2aff,TCR,2024-06-25_13h23.36.728,LearnStrategy,2023.2.3,MacIntel,120.4819277,3,2,9,,,,,,,,4,09,,,,,,,,,,,4,1.541,1,,,,,,0.335090112,-0.264959491,1,0,0,1.541,Gabbro_rect,8,0,8,0,1,
5dd95e3c2274978e775f2aff,TCR,2024-06-25_13h23.36.728,LearnStrategy,2023.2.3,MacIntel,120.4819277,3,2,10,,,,,,,,1,04,,,,,,,,,,,8,2.159,0,,,,,,0.37765377,-0.413272983,1,0,0,2.1585,Pumice_rect,9,0,9,0,1,
5dd95e3c2274978e775f2aff,TCR,2024-06-25_13h23.36.728,LearnStrategy,2023.2.3,MacIntel,120.4819277,3,2,11,,,,,,,,7,08,,,,,,,,,,,2,1.866,0,,,,,,-0.161396329,-0.244766865,1,0,0,1.8661,Basalt_rect,10,0,10,0,1,
5dd95e3c2274978e775f2aff,TCR,2024-06-25_13h23.36.728,LearnStrategy,2023.2.3,MacIntel,120.4819277,3,2,12,,,,,,,,2,14,,,,,,,,,,,1,3.174,0,,,,,,-0.374859458,-0.260395999,1,0,0,3.1744,Andesite_rect,11,0,11,0,1,
5dd95e3c2274978e775f2aff,TCR,2024-06-25_13h23.36.728,LearnStrategy,2023.2.3,MacIntel,120.4819277,3,2,13,,,,,,,,8,02,,,,,,,,,,,8,1.676,1,,,,,,0.374177414,-0.39000496,1,0,0,1.6755,Pumice_rect,12,0,12,0,1,
5dd95e3c2274978e775f2aff,TCR,2024-06-25_13h23.36.728,LearnStrategy,2023.2.3,MacIntel,120.4819277,3,2,14,,,,,,,,6,15,,,,,,,,,,,7,1.566,0,,,,,,0.116617063,-0.413409392,1,0,0,1.5656,Peridotite_rect,13,0,13,0,1,
5dd95e3c2274978e775f2aff,TCR,2024-06-25_13h23.36.728,LearnStrategy,2023.2.3,MacIntel,120.4819277,3,2,15,,,,,,,,1,16,,,,,,,,,,,7,8.709,0,,,,,,0.083750827,-0.400351356,1,0,0,8.7093,Peridotite_rect,14,0,14,0,1,
5dd95e3c2274978e775f2aff,TCR,2024-06-25_13h23.36.728,LearnStrategy,2023.2.3,MacIntel,120.4819277,3,2,16,,,,,,,,4,11,,,,,,,,,,,4,1.29,1,,,,,,0.336028439,-0.24568039,1,0,0,1.2901,Gabbro_rect,15,0,15,0,1,
5dd95e3c2274978e775f2aff,TCR,2024-06-25_13h23.36.728,LearnStrategy,2023.2.3,MacIntel,120.4819277,4,1,1,0.016344246,0.011313657,1,0,0,1.1131,rock_grid_rect_2,1,06,-1,-1,1.113,0.344754464,-0.260941634,1,0,0,5.1685,Gabbro_rect,4,5.168,0,0,0,0,0,1,,,,,,,,,,,,,
5dd95e3c2274978e775f2aff,TCR,2024-06-25_13h23.36.728,LearnStrategy,2023.2.3,MacIntel,120.4819277,4,1,2,-0.001897321,-0.011991567,1,0,0,1.131,rock_grid_rect_2,2,02,-1,-1,1.131,0.316472388,-0.256940311,1,0,0,3.0948,Gabbro_rect,4,3.095,0,1,0,1,0,1,,,,,,,,,,,,,
5dd95e3c2274978e775f2aff,TCR,2024-06-25_13h23.36.728,LearnStrategy,2023.2.3,MacIntel,120.4819277,4,1,3,0.096180556,-0.001351687,1,0,0,2.5217,rock_grid_rect_2,6,03,-1,-1,2.522,0.099189815,-0.412719081,1,0,0,1.2286,Peridotite_rect,7,1.229,0,2,0,2,0,1,,,,,,,,,,,,,
5dd95e3c2274978e775f2aff,TCR,2024-06-25_13h23.36.728,LearnStrategy,2023.2.3,MacIntel,120.4819277,4,1,4,0.020101687,-0.012781085,1,0,0,1.4678,rock_grid_rect_2,2,06,-1,-1,1.468,0.411499669,-0.271498843,1,0,0,2.1855,Gabbro_rect,4,2.186,0,3,0,3,0,1,,,,,,,,,,,,,
5dd95e3c2274978e775f2aff,TCR,2024-06-25_13h23.36.728,LearnStrategy,2023.2.3,MacIntel,120.4819277,4,1,5,0.083647487,0.020225694,1,0,0,0.6226,rock_grid_rect_2,1,07,-1,-1,0.623,0.116240906,-0.41546379,1,0,0,2.2867,Peridotite_rect,7,2.287,0,4,0,4,0,1,,,,,,,,,,,,,
5dd95e3c2274978e775f2aff,TCR,2024-06-25_13h23.36.728,LearnStrategy,2023.2.3,MacIntel,120.4819277,4,1,6,0.058792163,0.008015046,1,0,0,0.731,rock_grid_rect_2,6,03,-1,-1,0.731,-0.127538029,-0.395527447,1,0,0,1.3944,Pegmatite_rect,6,1.394,1,5,0,5,0,1,,,,,,,,,,,,,
5dd95e3c2274978e775f2aff,TCR,2024-06-25_13h23.36.728,LearnStrategy,2023.2.3,MacIntel,120.4819277,4,1,7,-0.021643519,-0.004534557,1,0,0,0.6813,rock_grid_rect_2,7,05,-1,-1,0.681,-0.112082507,-0.257366071,1,0,0,1.7108,Basalt_rect,2,1.711,0,6,0,6,0,1,,,,,,,,,,,,,
5dd95e3c2274978e775f2aff,TCR,2024-06-25_13h23.36.728,LearnStrategy,2023.2.3,MacIntel,120.4819277,4,1,8,-0.013810351,-0.006849372,1,0,0,0.6063,rock_grid_rect_2,6,13,-1,-1,0.606,-0.131274802,-0.389128638,1,0,0,1.1518,Pegmatite_rect,6,1.152,1,7,0,7,0,1,,,,,,,,,,,,,
5dd95e3c2274978e775f2aff,TCR,2024-06-25_13h23.36.728,LearnStrategy,2023.2.3,MacIntel,120.4819277,4,1,9,-0.075186012,0.00010334,1,0,0,0.5736,rock_grid_rect_2,7,10,-1,-1,0.574,-0.12672371,-0.231853505,1,0,0,0.9774,Basalt_rect,2,0.977,0,8,0,8,0,1,,,,,,,,,,,,,
5dd95e3c2274978e775f2aff,TCR,2024-06-25_13h23.36.728,LearnStrategy,2023.2.3,MacIntel,120.4819277,4,1,10,-0.018762401,-0.0046875,1,0,0,0.6064,rock_grid_rect_2,1,07,-1,-1,0.606,-0.118394511,-0.418092758,1,0,0,1.828,Pegmatite_rect,6,1.828,0,9,0,9,0,1,,,,,,,,,,,,,
5dd95e3c2274978e775f2aff,TCR,2024-06-25_13h23.36.728,LearnStrategy,2023.2.3,MacIntel,120.4819277,4,1,11,-0.023648313,0.018125827,1,0,0,0.7145,rock_grid_rect_2,3,12,-1,-1,0.715,0.150115741,-0.240033896,1,0,0,4.728,Diorite_rect,3,4.728,1,10,0,10,0,1,,,,,,,,,,,,,
5dd95e3c2274978e775f2aff,TCR,2024-06-25_13h23.36.728,LearnStrategy,2023.2.3,MacIntel,120.4819277,4,1,12,0.029389881,0.003141534,1,0,0,0.8034,rock_grid_rect_2,4,12,-1,-1,0.803,0.387967097,-0.242708333,1,0,0,1.0865,Gabbro_rect,4,1.087,1,11,0,11,0,1,,,,,,,,,,,,,
5dd95e3c2274978e775f2aff,TCR,2024-06-25_13h23.36.728,LearnStrategy,2023.2.3,MacIntel,120.4819277,4,1,13,0.002624835,-0.007845569,1,0,0,0.9816,rock_grid_rect_2,7,04,-1,-1,0.982,0.142294974,-0.40484871,1,0,0,2.3437,Peridotite_rect,7,2.344,1,12,0,12,0,1,,,,,,,,,,,,,
5dd95e3c2274978e775f2aff,TCR,2024-06-25_13h23.36.728,LearnStrategy,2023.2.3,MacIntel,120.4819277,4,1,14,-0.014880952,0.009366733,1,0,0,0.8623,rock_grid_rect_2,3,06,-1,-1,0.862,-0.087429729,-0.264769345,1,0,0,1.9688,Basalt_rect,2,1.969,0,13,0,13,0,1,,,,,,,,,,,,,
5dd95e3c2274978e775f2aff,TCR,2024-06-25_13h23.36.728,LearnStrategy,2023.2.3,MacIntel,120.4819277,4,1,15,-0.062404927,-0.021602183,1,0,0,0.8982,rock_grid_rect_2,4,13,-1,-1,0.898,0.134453538,-0.235871362,1,0,0,1.2192,Diorite_rect,3,1.219,0,14,0,14,0,1,,,,,,,,,,,,,
5dd95e3c2274978e775f2aff,TCR,2024-06-25_13h23.36.728,LearnStrategy,2023.2.3,MacIntel,120.4819277,4,1,16,-0.032407407,-0.014207176,1,0,0,0.6229,rock_grid_rect_2,3,11,-1,-1,0.623,-0.09525463,-0.242695933,1,0,0,1.2036,Basalt_rect,2,1.204,0,15,0,15,0,1,,,,,,,,,,,,,
5dd95e3c2274978e775f2aff,TCR,2024-06-25_13h23.36.728,LearnStrategy,2023.2.3,MacIntel,120.4819277,4,2,1,,,,,,,,4,05,,,,,,,,,,,2,4.694,0,,,,,,-0.07979084,-0.229336144,1,0,0,4.6939,Basalt_rect,0,0,0,0,1,
5dd95e3c2274978e775f2aff,TCR,2024-06-25_13h23.36.728,LearnStrategy,2023.2.3,MacIntel,120.4819277,4,2,2,,,,,,,,8,03,,,,,,,,,,,8,0.872,1,,,,,,0.401409557,-0.411565807,1,0,0,0.8719,Pumice_rect,1,0,1,0,1,
5dd95e3c2274978e775f2aff,TCR,2024-06-25_13h23.36.728,LearnStrategy,2023.2.3,MacIntel,120.4819277,4,2,3,,,,,,,,3,15,,,,,,,,,,,6,2.209,0,,,,,,-0.056125992,-0.393113426,1,0,0,2.2093,Pegmatite_rect,2,0,2,0,1,
5dd95e3c2274978e775f2aff,TCR,2024-06-25_13h23.36.728,LearnStrategy,2023.2.3,MacIntel,120.4819277,4,2,4,,,,,,,,4,11,,,,,,,,,,,4,3.526,1,,,,,,0.364872685,-0.240327381,1,0,0,3.5262,Gabbro_rect,3,0,3,0,1,
5dd95e3c2274978e775f2aff,TCR,2024-06-25_13h23.36.728,LearnStrategy,2023.2.3,MacIntel,120.4819277,4,2,5,,,,,,,,2,05,,,,,,,,,,,4,0.917,0,,,,,,0.402930721,-0.232824901,1,0,0,0.9174,Gabbro_rect,4,0,4,0,1,
5dd95e3c2274978e775f2aff,TCR,2024-06-25_13h23.36.728,LearnStrategy,2023.2.3,MacIntel,120.4819277,4,2,6,,,,,,,,3,08,,,,,,,,,,,6,3.268,0,,,,,,-0.067088294,-0.396970073,1,0,0,3.2684,Pegmatite_rect,5,0,5,0,1,
5dd95e3c2274978e775f2aff,TCR,2024-06-25_13h23.36.728,LearnStrategy,2023.2.3,MacIntel,120.4819277,4,2,7,,,,,,,,1,02,,,,,,,,,,,6,13.035,0,,,,,,-0.068617725,-0.399305556,1,0,0,13.0348,Pegmatite_rect,6,0,6,0,1,
5dd95e3c2274978e775f2aff,TCR,2024-06-25_13h23.36.728,LearnStrategy,2023.2.3,MacIntel,120.4819277,4,2,8,,,,,,,,7,07,,,,,,,,,,,2,5.989,0,,,,,,-0.054154266,-0.252843915,1,0,0,5.9891,Basalt_rect,7,0,7,0,1,
5dd95e3c2274978e775f2aff,TCR,2024-06-25_13h23.36.728,LearnStrategy,2023.2.3,MacIntel,120.4819277,4,2,9,,,,,,,,5,12,,,,,,,,,,,5,1.182,1,,,,,,-0.309255126,-0.402426422,1,0,0,1.1821,Obsidian_rect,8,0,8,0,1,
5dd95e3c2274978e775f2aff,TCR,2024-06-25_13h23.36.728,LearnStrategy,2023.2.3,MacIntel,120.4819277,4,2,10,,,,,,,,6,12,,,,,,,,,,,6,2.443,1,,,,,,-0.112938161,-0.396490575,1,0,0,2.4432,Pegmatite_rect,9,0,9,0,1,
5dd95e3c2274978e775f2aff,TCR,2024-06-25_13h23.36.728,LearnStrategy,2023.2.3,MacIntel,120.4819277,4,2,11,,,,,,,,5,04,,,,,,,,,,,5,1.657,1,,,,,,-0.412909226,-0.415376984,1,0,0,1.6567,Obsidian_rect,10,0,10,0,1,
5dd95e3c2274978e775f2aff,TCR,2024-06-25_13h23.36.728,LearnStrategy,2023.2.3,MacIntel,120.4819277,4,2,12,,,,,,,,8,10,,,,,,,,,,,8,2.056,1,,,,,,0.379348545,-0.393427579,1,0,0,2.0564,Pumice_rect,11,0,11,0,1,
5dd95e3c2274978e775f2aff,TCR,2024-06-25_13h23.36.728,LearnStrategy,2023.2.3,MacIntel,120.4819277,4,2,13,,,,,,,,6,10,,,,,,,,,,,7,4,0,,,,,,0.120403439,-0.381469081,1,0,0,3.9996,Peridotite_rect,12,0,12,0,1,
5dd95e3c2274978e775f2aff,TCR,2024-06-25_13h23.36.728,LearnStrategy,2023.2.3,MacIntel,120.4819277,4,2,14,,,,,,,,7,08,,,,,,,,,,,2,1.057,0,,,,,,-0.136388062,-0.269043485,1,0,0,1.0571,Basalt_rect,13,0,13,0,1,
5dd95e3c2274978e775f2aff,TCR,2024-06-25_13h23.36.728,LearnStrategy,2023.2.3,MacIntel,120.4819277,4,2,15,,,,,,,,1,16,,,,,,,,,,,4,1.294,0,,,,,,0.358568948,-0.253869048,1,0,0,1.2941,Gabbro_rect,14,0,14,0,1,
5dd95e3c2274978e775f2aff,TCR,2024-06-25_13h23.36.728,LearnStrategy,2023.2.3,MacIntel,120.4819277,4,2,16,,,,,,,,2,14,,,,,,,,,,,3,1.607,0,,,,,,0.196903935,-0.259085648,1,0,0,1.6073,Diorite_rect,15,0,15,0,1,
5dd95e3c2274978e775f2aff,TCR,2024-06-25_13h23.36.728,LearnStrategy,2023.2.3,MacIntel,120.4819277,5,1,1,0.008201058,0.007229663,1,0,0,3.7464,rock_grid_rect_2,1,06,-1,-1,3.746,0.386284722,-0.24728836,1,0,0,1.4517,Gabbro_rect,4,1.452,0,0,0,0,0,1,,,,,,,,,,,,,
5dd95e3c2274978e775f2aff,TCR,2024-06-25_13h23.36.728,LearnStrategy,2023.2.3,MacIntel,120.4819277,5,1,2,0.011016038,-0.016100364,1,0,0,0.7565,rock_grid_rect_2,3,02,-1,-1,0.756,-0.077174272,-0.242046958,1,0,0,5.5285,Basalt_rect,2,5.529,0,1,0,1,0,1,,,,,,,,,,,,,
5dd95e3c2274978e775f2aff,TCR,2024-06-25_13h23.36.728,LearnStrategy,2023.2.3,MacIntel,120.4819277,5,1,3,-0.022437169,-0.007634755,1,0,0,1.0903,rock_grid_rect_2,6,11,-1,-1,1.09,-0.143489583,-0.398569775,1,0,0,1.1591,Pegmatite_rect,6,1.159,1,2,0,2,0,1,,,,,,,,,,,,,
5dd95e3c2274978e775f2aff,TCR,2024-06-25_13h23.36.728,LearnStrategy,2023.2.3,MacIntel,120.4819277,5,1,4,-0.040331515,-0.013392857,1,0,0,0.9696,rock_grid_rect_2,2,16,-1,-1,0.97,0.174433697,-0.255824239,1,0,0,8.4287,Diorite_rect,3,8.429,0,3,0,3,0,1,,,,,,,,,,,,,
5dd95e3c2274978e775f2aff,TCR,2024-06-25_13h23.36.728,LearnStrategy,2023.2.3,MacIntel,120.4819277,5,1,5,0.040273644,0.013037368,1,0,0,0.7897,rock_grid_rect_2,2,09,-1,-1,0.79,0.345205026,-0.243427579,1,0,0,1.0358,Gabbro_rect,4,1.036,0,4,0,4,0,1,,,,,,,,,,,,,
5dd95e3c2274978e775f2aff,TCR,2024-06-25_13h23.36.728,LearnStrategy,2023.2.3,MacIntel,120.4819277,5,1,6,0.016964286,0.015219907,1,0,0,0.6897,rock_grid_rect_2,1,07,-1,-1,0.69,0.353637566,-0.419365906,1,0,0,1.6277,Pumice_rect,8,1.628,0,5,0,5,0,1,,,,,,,,,,,,,
5dd95e3c2274978e775f2aff,TCR,2024-06-25_13h23.36.728,LearnStrategy,2023.2.3,MacIntel,120.4819277,5,1,7,0.022259425,-0.000595238,1,0,0,1.0222,rock_grid_rect_2,4,01,-1,-1,1.022,0.352959656,-0.266827877,1,0,0,2.162,Gabbro_rect,4,2.162,1,6,0,6,0,1,,,,,,,,,,,,,
5dd95e3c2274978e775f2aff,TCR,2024-06-25_13h23.36.728,LearnStrategy,2023.2.3,MacIntel,120.4819277,5,1,8,0.027252811,-0.014922288,1,0,0,0.9636,rock_grid_rect_2,7,14,-1,-1,0.964,0.078629299,-0.237677745,1,0,0,1.9044,Diorite_rect,3,1.904,0,7,0,7,0,1,,,,,,,,,,,,,
5dd95e3c2274978e775f2aff,TCR,2024-06-25_13h23.36.728,LearnStrategy,2023.2.3,MacIntel,120.4819277,5,1,9,0.00193039,0.018303571,1,0,0,0.7148,rock_grid_rect_2,1,01,-1,-1,0.715,-0.302054398,-0.381576554,1,0,0,1.0191,Obsidian_rect,5,1.019,0,8,0,8,0,1,,,,,,,,,,,,,
5dd95e3c2274978e775f2aff,TCR,2024-06-25_13h23.36.728,LearnStrategy,2023.2.3,MacIntel,120.4819277,5,1,10,-0.088268849,0.011693948,1,0,0,0.7151,rock_grid_rect_2,3,12,-1,-1,0.715,-0.100041336,-0.235904431,1,0,0,1.4769,Basalt_rect,2,1.477,0,9,0,9,0,1,,,,,,,,,,,,,
5dd95e3c2274978e775f2aff,TCR,2024-06-25_13h23.36.728,LearnStrategy,2023.2.3,MacIntel,120.4819277,5,1,11,0.007262731,0.016158234,1,0,0,0.6809,rock_grid_rect_2,4,10,-1,-1,0.681,-0.363070437,-0.401066468,1,0,0,1.4455,Obsidian_rect,5,1.445,0,10,0,10,0,1,,,,,,,,,,,,,
5dd95e3c2274978e775f2aff,TCR,2024-06-25_13h23.36.728,LearnStrategy,2023.2.3,MacIntel,120.4819277,5,1,12,0.018493717,-0.007700893,1,0,0,0.5989,rock_grid_rect_2,2,11,-1,-1,0.599,0.412041171,-0.269969411,1,0,0,0.7941,Gabbro_rect,4,0.794,0,11,0,11,0,1,,,,,,,,,,,,,
5dd95e3c2274978e775f2aff,TCR,2024-06-25_13h23.36.728,LearnStrategy,2023.2.3,MacIntel,120.4819277,5,1,13,0.007353671,-0.022044478,1,0,0,0.64,rock_grid_rect_2,7,06,-1,-1,0.64,-0.044423776,-0.249346892,1,0,0,0.8707,Basalt_rect,2,0.871,0,12,0,12,0,1,,,,,,,,,,,,,
5dd95e3c2274978e775f2aff,TCR,2024-06-25_13h23.36.728,LearnStrategy,2023.2.3,MacIntel,120.4819277,5,1,14,-0.080220734,-0.014765212,1,0,0,0.7564,rock_grid_rect_2,6,13,-1,-1,0.756,-0.128472222,-0.4161417,1,0,0,0.7947,Pegmatite_rect,6,0.795,1,13,0,13,0,1,,,,,,,,,,,,,
5dd95e3c2274978e775f2aff,TCR,2024-06-25_13h23.36.728,LearnStrategy,2023.2.3,MacIntel,120.4819277,5,1,15,-0.037896825,0.005274471,1,0,0,0.9077,rock_grid_rect_2,7,14,-1,-1,0.908,0.118473049,-0.414380787,1,0,0,2.1856,Peridotite_rect,7,2.186,1,14,0,14,0,1,,,,,,,,,,,,,
5dd95e3c2274978e775f2aff,TCR,2024-06-25_13h23.36.728,LearnStrategy,2023.2.3,MacIntel,120.4819277,5,1,16,0.007146991,0.000958995,1,0,0,0.8299,rock_grid_rect_2,3,13,-1,-1,0.83,-0.101012731,-0.39937996,1,0,0,1.0291,Pegmatite_rect,6,1.029,0,15,0,15,0,1,,,,,,,,,,,,,
5dd95e3c2274978e775f2aff,TCR,2024-06-25_13h23.36.728,LearnStrategy,2023.2.3,MacIntel,120.4819277,5,2,1,,,,,,,,1,10,,,,,,,,,,,4,6.793,0,,,,,,0.361429398,-0.258887235,1,0,0,6.793,Gabbro_rect,0,0,0,0,1,
5dd95e3c2274978e775f2aff,TCR,2024-06-25_13h23.36.728,LearnStrategy,2023.2.3,MacIntel,120.4819277,5,2,2,,,,,,,,6,15,,,,,,,,,,,6,1.2,1,,,,,,-0.141559193,-0.40489418,1,0,0,1.2,Pegmatite_rect,1,0,1,0,1,
5dd95e3c2274978e775f2aff,TCR,2024-06-25_13h23.36.728,LearnStrategy,2023.2.3,MacIntel,120.4819277,5,2,3,,,,,,,,8,09,,,,,,,,,,,8,0.947,1,,,,,,0.408056382,-0.393820271,1,0,0,0.9474,Pumice_rect,2,0,2,0,1,
5dd95e3c2274978e775f2aff,TCR,2024-06-25_13h23.36.728,LearnStrategy,2023.2.3,MacIntel,120.4819277,5,2,4,,,,,,,,3,16,,,,,,,,,,,3,14.136,1,,,,,,0.132713294,-0.258845899,1,0,0,14.1362,Diorite_rect,3,0,3,0,1,
5dd95e3c2274978e775f2aff,TCR,2024-06-25_13h23.36.728,LearnStrategy,2023.2.3,MacIntel,120.4819277,5,2,5,,,,,,,,5,02,,,,,,,,,,,5,1.158,1,,,,,,-0.356386409,-0.41661293,1,0,0,1.158,Obsidian_rect,4,0,4,0,1,
5dd95e3c2274978e775f2aff,TCR,2024-06-25_13h23.36.728,LearnStrategy,2023.2.3,MacIntel,120.4819277,5,2,6,,,,,,,,2,10,,,,,,,,,,,1,1.423,0,,,,,,-0.40380291,-0.267121362,1,0,0,1.4226,Andesite_rect,5,0,5,0,1,
5dd95e3c2274978e775f2aff,TCR,2024-06-25_13h23.36.728,LearnStrategy,2023.2.3,MacIntel,120.4819277,5,2,7,,,,,,,,7,02,,,,,,,,,,,2,1.492,0,,,,,,-0.158502811,-0.267009755,1,0,0,1.4922,Basalt_rect,6,0,6,0,1,
5dd95e3c2274978e775f2aff,TCR,2024-06-25_13h23.36.728,LearnStrategy,2023.2.3,MacIntel,120.4819277,5,2,8,,,,,,,,4,09,,,,,,,,,,,5,1.074,0,,,,,,-0.502707507,-0.411499669,1,0,0,1.0739,Obsidian_rect,7,0,7,0,1,
5dd95e3c2274978e775f2aff,TCR,2024-06-25_13h23.36.728,LearnStrategy,2023.2.3,MacIntel,120.4819277,5,2,9,,,,,,,,6,08,,,,,,,,,,,6,1.032,1,,,,,,-0.09728836,-0.381506283,1,0,0,1.0318,Pegmatite_rect,8,0,8,0,1,
5dd95e3c2274978e775f2aff,TCR,2024-06-25_13h23.36.728,LearnStrategy,2023.2.3,MacIntel,120.4819277,5,2,10,,,,,,,,1,04,,,,,,,,,,,8,1.202,0,,,,,,0.470572917,-0.410883763,1,0,0,1.2019,Pumice_rect,9,0,9,0,1,
5dd95e3c2274978e775f2aff,TCR,2024-06-25_13h23.36.728,LearnStrategy,2023.2.3,MacIntel,120.4819277,5,2,11,,,,,,,,2,04,,,,,,,,,,,4,1.257,0,,,,,,0.364289848,-0.250880456,1,0,0,1.2575,Gabbro_rect,10,0,10,0,1,
5dd95e3c2274978e775f2aff,TCR,2024-06-25_13h23.36.728,LearnStrategy,2023.2.3,MacIntel,120.4819277,5,2,12,,,,,,,,8,02,,,,,,,,,,,8,0.819,1,,,,,,0.385462136,-0.382481812,1,0,0,0.8188,Pumice_rect,11,0,11,0,1,
5dd95e3c2274978e775f2aff,TCR,2024-06-25_13h23.36.728,LearnStrategy,2023.2.3,MacIntel,120.4819277,5,2,13,,,,,,,,7,16,,,,,,,,,,,1,2.902,0,,,,,,-0.369411376,-0.25620453,1,0,0,2.9019,Andesite_rect,12,0,12,0,1,
5dd95e3c2274978e775f2aff,TCR,2024-06-25_13h23.36.728,LearnStrategy,2023.2.3,MacIntel,120.4819277,5,2,14,,,,,,,,4,14,,,,,,,,,,,1,0.998,0,,,,,,-0.33463955,-0.261330192,1,0,0,0.9982,Andesite_rect,13,0,13,0,1,
5dd95e3c2274978e775f2aff,TCR,2024-06-25_13h23.36.728,LearnStrategy,2023.2.3,MacIntel,120.4819277,5,2,15,,,,,,,,3,10,,,,,,,,,,,3,2.199,1,,,,,,0.105650628,-0.264777612,1,0,0,2.1986,Diorite_rect,14,0,14,0,1,
5dd95e3c2274978e775f2aff,TCR,2024-06-25_13h23.36.728,LearnStrategy,2023.2.3,MacIntel,120.4819277,5,2,16,,,,,,,,5,09,,,,,,,,,,,5,0.969,1,,,,,,-0.347404101,-0.409556878,1,0,0,0.9687,Obsidian_rect,15,0,15,0,1,
5dd95e3c2274978e775f2aff,TCR,2024-06-25_13h23.36.728,LearnStrategy,2023.2.3,MacIntel,120.4819277,6,1,1,0.081688161,-0.011115245,1,0,0,1.5877,rock_grid_rect_2,3,12,-1,-1,1.588,0.138880622,-0.243725198,1,0,0,1.3468,Diorite_rect,3,1.347,1,0,0,0,0,1,,,,,,,,,,,,,
5dd95e3c2274978e775f2aff,TCR,2024-06-25_13h23.36.728,LearnStrategy,2023.2.3,MacIntel,120.4819277,6,1,2,0.041344246,-0.004943783,1,0,0,0.715,rock_grid_rect_2,1,11,-1,-1,0.715,0.367468585,-0.242055225,1,0,0,2.9689,Gabbro_rect,4,2.969,0,1,0,1,0,1,,,,,,,,,,,,,
5dd95e3c2274978e775f2aff,TCR,2024-06-25_13h23.36.728,LearnStrategy,2023.2.3,MacIntel,120.4819277,6,1,3,0.057254464,0.015856481,1,0,0,0.8075,rock_grid_rect_2,2,09,-1,-1,0.808,0.327331349,-0.234705688,1,0,0,1.009,Gabbro_rect,4,1.009,0,2,0,2,0,1,,,,,,,,,,,,,
5dd95e3c2274978e775f2aff,TCR,2024-06-25_13h23.36.728,LearnStrategy,2023.2.3,MacIntel,120.4819277,6,1,4,0.000276951,0.006865906,1,0,0,0.7066,rock_grid_rect_2,4,15,-1,-1,0.707,0.135123181,-0.257622354,1,0,0,2.1783,Diorite_rect,3,2.178,0,3,0,3,0,1,,,,,,,,,,,,,
5dd95e3c2274978e775f2aff,TCR,2024-06-25_13h23.36.728,LearnStrategy,2023.2.3,MacIntel,120.4819277,6,1,5,0.000111607,-0.024495701,1,0,0,0.7321,rock_grid_rect_2,3,11,-1,-1,0.732,0.430708499,-0.421660053,1,0,0,2.9045,Pumice_rect,8,2.904,0,4,0,4,0,1,,,,,,,,,,,,,
5dd95e3c2274978e775f2aff,TCR,2024-06-25_13h23.36.728,LearnStrategy,2023.2.3,MacIntel,120.4819277,6,1,6,0.027356151,-0.022788525,1,0,0,0.9141,rock_grid_rect_2,7,06,-1,-1,0.914,-0.130927579,-0.232485946,1,0,0,1.328,Basalt_rect,2,1.328,0,5,0,5,0,1,,,,,,,,,,,,,
5dd95e3c2274978e775f2aff,TCR,2024-06-25_13h23.36.728,LearnStrategy,2023.2.3,MacIntel,120.4819277,6,1,7,0.002678571,0.007994378,1,0,0,0.7563,rock_grid_rect_2,2,16,-1,-1,0.756,-0.387797619,-0.263826885,1,0,0,1.012,Andesite_rect,1,1.012,0,6,0,6,0,1,,,,,,,,,,,,,
5dd95e3c2274978e775f2aff,TCR,2024-06-25_13h23.36.728,LearnStrategy,2023.2.3,MacIntel,120.4819277,6,1,8,-0.056142526,0.007791832,1,0,0,1.3224,rock_grid_rect_2,6,03,-1,-1,1.322,-0.078997189,-0.413711144,1,0,0,1.1367,Pegmatite_rect,6,1.137,1,7,0,7,0,1,,,,,,,,,,,,,
5dd95e3c2274978e775f2aff,TCR,2024-06-25_13h23.36.728,LearnStrategy,2023.2.3,MacIntel,120.4819277,6,1,9,0.007151124,-0.002682705,1,0,0,0.6479,rock_grid_rect_2,7,05,-1,-1,0.648,-0.173863261,-0.235234788,1,0,0,1.0702,Basalt_rect,2,1.07,0,8,0,8,0,1,,,,,,,,,,,,,
5dd95e3c2274978e775f2aff,TCR,2024-06-25_13h23.36.728,LearnStrategy,2023.2.3,MacIntel,120.4819277,6,1,10,-0.021077216,-0.014331184,1,0,0,0.6979,rock_grid_rect_2,6,07,-1,-1,0.698,-0.099756118,-0.415596065,1,0,0,1.2031,Pegmatite_rect,6,1.203,1,9,0,9,0,1,,,,,,,,,,,,,
5dd95e3c2274978e775f2aff,TCR,2024-06-25_13h23.36.728,LearnStrategy,2023.2.3,MacIntel,120.4819277,6,1,11,-0.051905589,-0.021354167,1,0,0,1.123,rock_grid_rect_2,4,16,-1,-1,1.123,-0.321755126,-0.236090443,1,0,0,1.0112,Andesite_rect,1,1.011,0,10,0,10,0,1,,,,,,,,,,,,,
5dd95e3c2274978e775f2aff,TCR,2024-06-25_13h23.36.728,LearnStrategy,2023.2.3,MacIntel,120.4819277,6,1,12,-0.078480489,-0.006481481,1,0,0,0.6889,rock_grid_rect_2,4,13,-1,-1,0.689,-0.082593419,-0.25353836,1,0,0,0.9874,Basalt_rect,2,0.987,0,11,0,11,0,1,,,,,,,,,,,,,
5dd95e3c2274978e775f2aff,TCR,2024-06-25_13h23.36.728,LearnStrategy,2023.2.3,MacIntel,120.4819277,6,1,13,-0.053707837,0.008139054,1,0,0,0.7148,rock_grid_rect_2,1,06,-1,-1,0.715,0.389922288,-0.261772487,1,0,0,1.4708,Gabbro_rect,4,1.471,0,12,0,12,0,1,,,,,,,,,,,,,
5dd95e3c2274978e775f2aff,TCR,2024-06-25_13h23.36.728,LearnStrategy,2023.2.3,MacIntel,120.4819277,6,1,14,0.044845403,0.001636905,1,0,0,0.7221,rock_grid_rect_2,2,11,-1,-1,0.722,0.344878472,-0.410271991,1,0,0,1.6456,Pumice_rect,8,1.646,0,13,0,13,0,1,,,,,,,,,,,,,
5dd95e3c2274978e775f2aff,TCR,2024-06-25_13h23.36.728,LearnStrategy,2023.2.3,MacIntel,120.4819277,6,1,15,-0.025462963,-0.001765046,1,0,0,0.7643,rock_grid_rect_2,7,04,-1,-1,0.764,0.133010913,-0.403943452,1,0,0,0.9041,Peridotite_rect,7,0.904,1,14,0,14,0,1,,,,,,,,,,,,,
5dd95e3c2274978e775f2aff,TCR,2024-06-25_13h23.36.728,LearnStrategy,2023.2.3,MacIntel,120.4819277,6,1,16,-0.038020833,-0.012223049,1,0,0,1.0063,rock_grid_rect_2,1,07,-1,-1,1.006,0.330964782,-0.256225198,1,0,0,2.5613,Gabbro_rect,4,2.561,0,15,0,15,0,1,,,,,,,,,,,,,
5dd95e3c2274978e775f2aff,TCR,2024-06-25_13h23.36.728,LearnStrategy,2023.2.3,MacIntel,120.4819277,6,2,1,,,,,,,,6,05,,,,,,,,,,,6,1.438,1,,,,,,-0.111292989,-0.417410714,1,0,0,1.4377,Pegmatite_rect,0,0,0,0,1,
5dd95e3c2274978e775f2aff,TCR,2024-06-25_13h23.36.728,LearnStrategy,2023.2.3,MacIntel,120.4819277,6,2,2,,,,,,,,8,14,,,,,,,,,,,8,0.92,1,,,,,,0.405224868,-0.420800265,1,0,0,0.9197,Pumice_rect,1,0,1,0,1,
5dd95e3c2274978e775f2aff,TCR,2024-06-25_13h23.36.728,LearnStrategy,2023.2.3,MacIntel,120.4819277,6,2,3,,,,,,,,5,11,,,,,,,,,,,5,1.326,1,,,,,,-0.384362599,-0.402025463,1,0,0,1.3261,Obsidian_rect,2,0,2,0,1,
5dd95e3c2274978e775f2aff,TCR,2024-06-25_13h23.36.728,LearnStrategy,2023.2.3,MacIntel,120.4819277,6,2,4,,,,,,,,4,08,,,,,,,,,,,4,0.769,1,,,,,,0.341307044,-0.267055225,1,0,0,0.7685,Gabbro_rect,3,0,3,0,1,
5dd95e3c2274978e775f2aff,TCR,2024-06-25_13h23.36.728,LearnStrategy,2023.2.3,MacIntel,120.4819277,6,2,5,,,,,,,,7,12,,,,,,,,,,,3,2.835,0,,,,,,0.107022983,-0.260391865,1,0,0,2.8346,Diorite_rect,4,0,4,0,1,
5dd95e3c2274978e775f2aff,TCR,2024-06-25_13h23.36.728,LearnStrategy,2023.2.3,MacIntel,120.4819277,6,2,6,,,,,,,,1,14,,,,,,,,,,,4,2.065,0,,,,,,0.338153108,-0.269217097,1,0,0,2.0648,Gabbro_rect,5,0,5,0,1,
5dd95e3c2274978e775f2aff,TCR,2024-06-25_13h23.36.728,LearnStrategy,2023.2.3,MacIntel,120.4819277,6,2,7,,,,,,,,2,01,,,,,,,,,,,4,2.766,0,,,,,,0.407221396,-0.242170966,1,0,0,2.7664,Gabbro_rect,6,0,6,0,1,
5dd95e3c2274978e775f2aff,TCR,2024-06-25_13h23.36.728,LearnStrategy,2023.2.3,MacIntel,120.4819277,6,2,8,,,,,,,,7,15,,,,,,,,,,,2,1.184,0,,,,,,-0.113082837,-0.265790344,1,0,0,1.1837,Basalt_rect,7,0,7,0,1,
5dd95e3c2274978e775f2aff,TCR,2024-06-25_13h23.36.728,LearnStrategy,2023.2.3,MacIntel,120.4819277,6,2,9,,,,,,,,3,14,,,,,,,,,,,1,3.032,0,,,,,,-0.357113922,-0.238107639,1,0,0,3.0317,Andesite_rect,8,0,8,0,1,
5dd95e3c2274978e775f2aff,TCR,2024-06-25_13h23.36.728,LearnStrategy,2023.2.3,MacIntel,120.4819277,6,2,10,,,,,,,,8,15,,,,,,,,,,,8,3.498,1,,,,,,0.320961475,-0.405634094,1,0,0,3.498,Pumice_rect,9,0,9,0,1,
5dd95e3c2274978e775f2aff,TCR,2024-06-25_13h23.36.728,LearnStrategy,2023.2.3,MacIntel,120.4819277,6,2,11,,,,,,,,2,08,,,,,,,,,,,4,1.888,0,,,,,,0.425925926,-0.256572421,1,0,0,1.8881,Gabbro_rect,10,0,10,0,1,
5dd95e3c2274978e775f2aff,TCR,2024-06-25_13h23.36.728,LearnStrategy,2023.2.3,MacIntel,120.4819277,6,2,12,,,,,,,,1,05,,,,,,,,,,,4,3.676,0,,,,,,0.362359458,-0.248164683,1,0,0,3.6761,Gabbro_rect,11,0,11,0,1,
5dd95e3c2274978e775f2aff,TCR,2024-06-25_13h23.36.728,LearnStrategy,2023.2.3,MacIntel,120.4819277,6,2,13,,,,,,,,5,10,,,,,,,,,,,5,1.068,1,,,,,,-0.375793651,-0.408746693,1,0,0,1.0683,Obsidian_rect,12,0,12,0,1,
5dd95e3c2274978e775f2aff,TCR,2024-06-25_13h23.36.728,LearnStrategy,2023.2.3,MacIntel,120.4819277,6,2,14,,,,,,,,3,07,,,,,,,,,,,6,0.925,0,,,,,,-0.143882275,-0.409114583,1,0,0,0.9247,Pegmatite_rect,13,0,13,0,1,
5dd95e3c2274978e775f2aff,TCR,2024-06-25_13h23.36.728,LearnStrategy,2023.2.3,MacIntel,120.4819277,6,2,15,,,,,,,,6,16,,,,,,,,,,,6,0.84,1,,,,,,-0.06864666,-0.408304398,1,0,0,0.8401,Pegmatite_rect,14,0,14,0,1,
5dd95e3c2274978e775f2aff,TCR,2024-06-25_13h23.36.728,LearnStrategy,2023.2.3,MacIntel,120.4819277,6,2,16,,,,,,,,4,03,,,,,,,,,,,4,3.3,1,,,,,,0.441232639,-0.257527282,1,0,0,3.3,Gabbro_rect,15,0,15,0,1,
5dd95e3c2274978e775f2aff,TCR,2024-06-25_13h23.36.728,LearnStrategy,2023.2.3,MacIntel,120.4819277,7,1,1,0.086065642,-0.006187996,1,0,0,1.1067,rock_grid_rect_2,6,07,-1,-1,1.107,-0.133837632,-0.38135334,1,0,0,1.0198,Pegmatite_rect,6,1.02,1,0,0,0,0,1,,,,,,,,,,,,,
5dd95e3c2274978e775f2aff,TCR,2024-06-25_13h23.36.728,LearnStrategy,2023.2.3,MacIntel,120.4819277,7,1,2,-0.035908565,0.006092923,1,0,0,0.6903,rock_grid_rect_2,2,16,-1,-1,0.69,-0.369675926,-0.250429894,1,0,0,1.0869,Andesite_rect,1,1.087,0,1,0,1,0,1,,,,,,,,,,,,,
5dd95e3c2274978e775f2aff,TCR,2024-06-25_13h23.36.728,LearnStrategy,2023.2.3,MacIntel,120.4819277,7,1,3,-0.058998843,-0.005613426,1,0,0,0.6147,rock_grid_rect_2,3,02,-1,-1,0.615,0.457928241,-0.421635251,1,0,0,1.9368,Pumice_rect,8,1.937,0,2,0,2,0,1,,,,,,,,,,,,,
5dd95e3c2274978e775f2aff,TCR,2024-06-25_13h23.36.728,LearnStrategy,2023.2.3,MacIntel,120.4819277,7,1,4,-0.069126157,-0.006092923,1,0,0,0.9487,rock_grid_rect_2,1,01,-1,-1,0.949,-0.38061756,-0.253530093,1,0,0,2.245,Andesite_rect,1,2.245,1,3,0,3,0,1,,,,,,,,,,,,,
5dd95e3c2274978e775f2aff,TCR,2024-06-25_13h23.36.728,LearnStrategy,2023.2.3,MacIntel,120.4819277,7,1,5,-0.114876819,-0.006212798,1,0,0,0.9235,rock_grid_rect_2,2,02,-1,-1,0.923,0.371027612,-0.250078538,1,0,0,1.7696,Gabbro_rect,4,1.77,0,4,0,4,0,1,,,,,,,,,,,,,
5dd95e3c2274978e775f2aff,TCR,2024-06-25_13h23.36.728,LearnStrategy,2023.2.3,MacIntel,120.4819277,7,1,6,0.090389385,-0.009118717,1,0,0,1.2237,rock_grid_rect_2,7,06,-1,-1,1.224,-0.105472884,-0.235152116,1,0,0,1.8271,Basalt_rect,2,1.827,0,5,0,5,0,1,,,,,,,,,,,,,
5dd95e3c2274978e775f2aff,TCR,2024-06-25_13h23.36.728,LearnStrategy,2023.2.3,MacIntel,120.4819277,7,1,7,0.015112434,0.004985119,1,0,0,0.5732,rock_grid_rect_2,4,16,-1,-1,0.573,-0.335383598,-0.265376984,1,0,0,1.2376,Andesite_rect,1,1.238,0,6,0,6,0,1,,,,,,,,,,,,,
5dd95e3c2274978e775f2aff,TCR,2024-06-25_13h23.36.728,LearnStrategy,2023.2.3,MacIntel,120.4819277,7,1,8,-0.058664021,0.005076058,1,0,0,0.7148,rock_grid_rect_2,3,06,-1,-1,0.715,0.407010582,-0.398569775,1,0,0,1.511,Pumice_rect,8,1.511,0,7,0,7,0,1,,,,,,,,,,,,,
5dd95e3c2274978e775f2aff,TCR,2024-06-25_13h23.36.728,LearnStrategy,2023.2.3,MacIntel,120.4819277,7,1,9,0.063425926,0.010515873,1,0,0,0.6315,rock_grid_rect_2,7,10,-1,-1,0.632,-0.10229828,-0.23770668,1,0,0,0.9109,Basalt_rect,2,0.911,0,8,0,8,0,1,,,,,,,,,,,,,
5dd95e3c2274978e775f2aff,TCR,2024-06-25_13h23.36.728,LearnStrategy,2023.2.3,MacIntel,120.4819277,7,1,10,-0.061119378,-0.013826885,1,0,0,0.6065,rock_grid_rect_2,7,05,-1,-1,0.606,0.406303737,-0.263769015,1,0,0,2.6867,Gabbro_rect,4,2.687,0,9,0,9,0,1,,,,,,,,,,,,,
5dd95e3c2274978e775f2aff,TCR,2024-06-25_13h23.36.728,LearnStrategy,2023.2.3,MacIntel,120.4819277,7,1,11,0.024123677,-0.007862103,1,0,0,0.9396,rock_grid_rect_2,2,16,-1,-1,0.94,0.318411045,-0.262562004,1,0,0,1.9851,Gabbro_rect,4,1.985,0,10,0,10,0,1,,,,,,,,,,,,,
5dd95e3c2274978e775f2aff,TCR,2024-06-25_13h23.36.728,LearnStrategy,2023.2.3,MacIntel,120.4819277,7,1,12,0.008192791,0.000239749,1,0,0,0.7158,rock_grid_rect_2,4,10,-1,-1,0.716,-0.354303075,-0.390724206,1,0,0,5.8952,Obsidian_rect,5,5.895,0,11,0,11,0,1,,,,,,,,,,,,,
5dd95e3c2274978e775f2aff,TCR,2024-06-25_13h23.36.728,LearnStrategy,2023.2.3,MacIntel,120.4819277,7,1,13,-0.053782242,0.016042493,1,0,0,0.765,rock_grid_rect_2,1,07,-1,-1,0.765,0.42598793,-0.416699735,1,0,0,3.1782,Pumice_rect,8,3.178,0,12,0,12,0,1,,,,,,,,,,,,,
5dd95e3c2274978e775f2aff,TCR,2024-06-25_13h23.36.728,LearnStrategy,2023.2.3,MacIntel,120.4819277,7,1,14,-0.010106647,-0.016422784,1,0,0,0.7899,rock_grid_rect_2,8,08,-1,-1,0.79,0.422850529,-0.385825893,1,0,0,1.0114,Pumice_rect,8,1.011,1,13,0,13,0,1,,,,,,,,,,,,,
5dd95e3c2274978e775f2aff,TCR,2024-06-25_13h23.36.728,LearnStrategy,2023.2.3,MacIntel,120.4819277,7,1,15,0.008796296,-0.015385251,1,0,0,0.9234,rock_grid_rect_2,3,06,-1,-1,0.923,0.412107308,-0.254646164,1,0,0,0.8371,Gabbro_rect,4,0.837,0,14,0,14,0,1,,,,,,,,,,,,,
5dd95e3c2274978e775f2aff,TCR,2024-06-25_13h23.36.728,LearnStrategy,2023.2.3,MacIntel,120.4819277,7,1,16,0.007568618,-0.004551091,1,0,0,0.5889,rock_grid_rect_2,1,06,-1,-1,0.589,-0.436722884,-0.41254547,1,0,0,1.7953,Obsidian_rect,5,1.795,0,15,0,15,0,1,,,,,,,,,,,,,
5dd95e3c2274978e775f2aff,TCR,2024-06-25_13h23.36.728,LearnStrategy,2023.2.3,MacIntel,120.4819277,7,2,1,,,,,,,,1,14,,,,,,,,,,,8,9.027,0,,,,,,0.349020337,-0.400905258,1,0,0,9.0274,Pumice_rect,0,0,0,0,1,
5dd95e3c2274978e775f2aff,TCR,2024-06-25_13h23.36.728,LearnStrategy,2023.2.3,MacIntel,120.4819277,7,2,2,,,,,,,,1,02,,,,,,,,,,,4,1.099,0,,,,,,0.388764881,-0.228720238,1,0,0,1.0988,Gabbro_rect,1,0,1,0,1,
5dd95e3c2274978e775f2aff,TCR,2024-06-25_13h23.36.728,LearnStrategy,2023.2.3,MacIntel,120.4819277,7,2,3,,,,,,,,5,12,,,,,,,,,,,5,0.99,1,,,,,,-0.332965443,-0.39229084,1,0,0,0.9897,Obsidian_rect,2,0,2,0,1,
5dd95e3c2274978e775f2aff,TCR,2024-06-25_13h23.36.728,LearnStrategy,2023.2.3,MacIntel,120.4819277,7,2,4,,,,,,,,5,09,,,,,,,,,,,5,1.466,1,,,,,,-0.370899471,-0.412830688,1,0,0,1.4664,Obsidian_rect,3,0,3,0,1,
5dd95e3c2274978e775f2aff,TCR,2024-06-25_13h23.36.728,LearnStrategy,2023.2.3,MacIntel,120.4819277,7,2,5,,,,,,,,2,04,,,,,,,,,,,4,3.309,0,,,,,,0.350028935,-0.263388724,1,0,0,3.309,Gabbro_rect,4,0,4,0,1,
5dd95e3c2274978e775f2aff,TCR,2024-06-25_13h23.36.728,LearnStrategy,2023.2.3,MacIntel,120.4819277,7,2,6,,,,,,,,6,16,,,,,,,,,,,6,0.884,1,,,,,,-0.101235946,-0.394411376,1,0,0,0.8839,Pegmatite_rect,5,0,5,0,1,
5dd95e3c2274978e775f2aff,TCR,2024-06-25_13h23.36.728,LearnStrategy,2023.2.3,MacIntel,120.4819277,7,2,7,,,,,,,,7,08,,,,,,,,,,,2,1.173,0,,,,,,-0.175033069,-0.243340774,1,0,0,1.1731,Basalt_rect,6,0,6,0,1,
5dd95e3c2274978e775f2aff,TCR,2024-06-25_13h23.36.728,LearnStrategy,2023.2.3,MacIntel,120.4819277,7,2,8,,,,,,,,8,10,,,,,,,,,,,8,1.233,1,,,,,,0.344597388,-0.405563823,1,0,0,1.2327,Pumice_rect,7,0,7,0,1,
5dd95e3c2274978e775f2aff,TCR,2024-06-25_13h23.36.728,LearnStrategy,2023.2.3,MacIntel,120.4819277,7,2,9,,,,,,,,4,08,,,,,,,,,,,4,1.467,1,,,,,,0.352699239,-0.270531581,1,0,0,1.4666,Gabbro_rect,8,0,8,0,1,
5dd95e3c2274978e775f2aff,TCR,2024-06-25_13h23.36.728,LearnStrategy,2023.2.3,MacIntel,120.4819277,7,2,10,,,,,,,,3,10,,,,,,,,,,,2,1.068,0,,,,,,-0.12103588,-0.255679563,1,0,0,1.0678,Basalt_rect,9,0,9,0,1,
5dd95e3c2274978e775f2aff,TCR,2024-06-25_13h23.36.728,LearnStrategy,2023.2.3,MacIntel,120.4819277,7,2,11,,,,,,,,4,14,,,,,,,,,,,4,2.382,1,,,,,,0.39520916,-0.255402612,1,0,0,2.3816,Gabbro_rect,10,0,10,0,1,
5dd95e3c2274978e775f2aff,TCR,2024-06-25_13h23.36.728,LearnStrategy,2023.2.3,MacIntel,120.4819277,7,2,12,,,,,,,,6,08,,,,,,,,,,,6,1.003,1,,,,,,-0.092935681,-0.389240245,1,0,0,1.0025,Pegmatite_rect,11,0,11,0,1,
5dd95e3c2274978e775f2aff,TCR,2024-06-25_13h23.36.728,LearnStrategy,2023.2.3,MacIntel,120.4819277,7,2,13,,,,,,,,7,16,,,,,,,,,,,2,1.229,0,,,,,,-0.046755126,-0.263144841,1,0,0,1.2285,Basalt_rect,12,0,12,0,1,
5dd95e3c2274978e775f2aff,TCR,2024-06-25_13h23.36.728,LearnStrategy,2023.2.3,MacIntel,120.4819277,7,2,14,,,,,,,,2,08,,,,,,,,,,,4,1.418,0,,,,,,0.426078869,-0.234139385,1,0,0,1.418,Gabbro_rect,13,0,13,0,1,
5dd95e3c2274978e775f2aff,TCR,2024-06-25_13h23.36.728,LearnStrategy,2023.2.3,MacIntel,120.4819277,7,2,15,,,,,,,,8,14,,,,,,,,,,,8,0.811,1,,,,,,0.43287037,-0.406431878,1,0,0,0.8105,Pumice_rect,14,0,14,0,1,
5dd95e3c2274978e775f2aff,TCR,2024-06-25_13h23.36.728,LearnStrategy,2023.2.3,MacIntel,120.4819277,7,2,16,,,,,,,,3,08,,,,,,,,,,,7,3.802,0,,,,,,0.097594246,-0.396432705,1,0,0,3.8024,Peridotite_rect,15,0,15,0,1,
5dd95e3c2274978e775f2aff,TCR,2024-06-25_13h23.36.728,LearnStrategy,2023.2.3,MacIntel,120.4819277,8,1,1,0.009312996,0.00255043,1,0,0,0.947,rock_grid_rect_2,3,11,-1,-1,0.947,-0.085925099,-0.264988426,1,0,0,4.9282,Basalt_rect,2,4.928,0,0,0,0,0,1,,,,,,,,,,,,,
5dd95e3c2274978e775f2aff,TCR,2024-06-25_13h23.36.728,LearnStrategy,2023.2.3,MacIntel,120.4819277,8,1,2,0.04983879,0.009222057,1,0,0,0.6646,rock_grid_rect_2,7,04,-1,-1,0.665,0.085462136,-0.388682209,1,0,0,1.3449,Peridotite_rect,7,1.345,1,1,0,1,0,1,,,,,,,,,,,,,
5dd95e3c2274978e775f2aff,TCR,2024-06-25_13h23.36.728,LearnStrategy,2023.2.3,MacIntel,120.4819277,8,1,3,-0.001095403,-0.006940311,1,0,0,0.9317,rock_grid_rect_2,1,09,-1,-1,0.932,0.376273148,-0.271453373,1,0,0,0.9697,Gabbro_rect,4,0.97,0,2,0,2,0,1,,,,,,,,,,,,,
5dd95e3c2274978e775f2aff,TCR,2024-06-25_13h23.36.728,LearnStrategy,2023.2.3,MacIntel,120.4819277,8,1,4,0.032539683,0.013690476,1,0,0,0.6981,rock_grid_rect_2,3,13,-1,-1,0.698,-0.069973545,-0.267001488,1,0,0,1.053,Basalt_rect,2,1.053,0,3,0,3,0,1,,,,,,,,,,,,,
5dd95e3c2274978e775f2aff,TCR,2024-06-25_13h23.36.728,LearnStrategy,2023.2.3,MacIntel,120.4819277,8,1,5,-0.013450728,-0.001686508,1,0,0,0.6647,rock_grid_rect_2,4,10,-1,-1,0.665,0.416749339,-0.240472057,1,0,0,3.1454,Gabbro_rect,4,3.145,1,4,0,4,0,1,,,,,,,,,,,,,
5dd95e3c2274978e775f2aff,TCR,2024-06-25_13h23.36.728,LearnStrategy,2023.2.3,MacIntel,120.4819277,8,1,6,0.047590112,-0.003410218,1,0,0,0.8227,rock_grid_rect_2,4,01,-1,-1,0.823,0.370940807,-0.239971892,1,0,0,1.1113,Gabbro_rect,4,1.111,1,5,0,5,0,1,,,,,,,,,,,,,
5dd95e3c2274978e775f2aff,TCR,2024-06-25_13h23.36.728,LearnStrategy,2023.2.3,MacIntel,120.4819277,8,1,7,0.026417824,0.000615906,1,0,0,0.7066,rock_grid_rect_2,2,09,-1,-1,0.707,0.363165509,-0.266224372,1,0,0,1.2779,Gabbro_rect,4,1.278,0,6,0,6,0,1,,,,,,,,,,,,,
5dd95e3c2274978e775f2aff,TCR,2024-06-25_13h23.36.728,LearnStrategy,2023.2.3,MacIntel,120.4819277,8,1,8,0.002554563,-0.013363922,1,0,0,1.265,rock_grid_rect_2,2,06,-1,-1,1.265,-0.119506448,-0.23119213,1,0,0,0.9366,Basalt_rect,2,0.937,1,7,0,7,0,1,,,,,,,,,,,,,
5dd95e3c2274978e775f2aff,TCR,2024-06-25_13h23.36.728,LearnStrategy,2023.2.3,MacIntel,120.4819277,8,1,9,0.026054067,-0.003162202,1,0,0,0.8319,rock_grid_rect_2,7,14,-1,-1,0.832,0.115852348,-0.246126819,1,0,0,1.0606,Diorite_rect,3,1.061,0,8,0,8,0,1,,,,,,,,,,,,,
5dd95e3c2274978e775f2aff,TCR,2024-06-25_13h23.36.728,LearnStrategy,2023.2.3,MacIntel,120.4819277,8,1,10,-0.031097057,0.011743552,1,0,0,0.8488,rock_grid_rect_2,3,09,-1,-1,0.849,-0.088723545,-0.258597884,1,0,0,0.895,Basalt_rect,2,0.895,0,9,0,9,0,1,,,,,,,,,,,,,
5dd95e3c2274978e775f2aff,TCR,2024-06-25_13h23.36.728,LearnStrategy,2023.2.3,MacIntel,120.4819277,8,1,11,-0.037227183,0.002885251,1,0,0,0.6819,rock_grid_rect_2,8,06,-1,-1,0.682,0.354956184,-0.416927083,1,0,0,1.6033,Pumice_rect,8,1.603,1,10,0,10,0,1,,,,,,,,,,,,,
5dd95e3c2274978e775f2aff,TCR,2024-06-25_13h23.36.728,LearnStrategy,2023.2.3,MacIntel,120.4819277,8,1,12,0.006138393,-0.013219246,1,0,0,0.6814,rock_grid_rect_2,2,16,-1,-1,0.681,-0.306700562,-0.253191138,1,0,0,1.3367,Andesite_rect,1,1.337,0,11,0,11,0,1,,,,,,,,,,,,,
5dd95e3c2274978e775f2aff,TCR,2024-06-25_13h23.36.728,LearnStrategy,2023.2.3,MacIntel,120.4819277,8,1,13,-0.02286293,0.017373512,1,0,0,0.8225,rock_grid_rect_2,7,06,-1,-1,0.822,-0.108010913,-0.25723793,1,0,0,1.4702,Basalt_rect,2,1.47,0,12,0,12,0,1,,,,,,,,,,,,,
5dd95e3c2274978e775f2aff,TCR,2024-06-25_13h23.36.728,LearnStrategy,2023.2.3,MacIntel,120.4819277,8,1,14,-0.052166005,0.005460483,1,0,0,0.6814,rock_grid_rect_2,6,11,-1,-1,0.681,-0.15140129,-0.405311673,1,0,0,0.937,Pegmatite_rect,6,0.937,1,13,0,13,0,1,,,,,,,,,,,,,
5dd95e3c2274978e775f2aff,TCR,2024-06-25_13h23.36.728,LearnStrategy,2023.2.3,MacIntel,120.4819277,8,1,15,-0.058862434,-0.008994709,1,0,0,0.7394,rock_grid_rect_2,1,06,-1,-1,0.739,0.336830357,-0.265009094,1,0,0,1.9292,Gabbro_rect,4,1.929,0,14,0,14,0,1,,,,,,,,,,,,,
5dd95e3c2274978e775f2aff,TCR,2024-06-25_13h23.36.728,LearnStrategy,2023.2.3,MacIntel,120.4819277,8,1,16,-0.000785384,-0.008577216,1,0,0,0.8552,rock_grid_rect_2,1,09,-1,-1,0.855,0.421957672,-0.260602679,1,0,0,0.9289,Gabbro_rect,4,0.929,0,15,0,15,0,1,,,,,,,,,,,,,
5dd95e3c2274978e775f2aff,TCR,2024-06-25_13h23.36.728,LearnStrategy,2023.2.3,MacIntel,120.4819277,8,2,1,,,,,,,,5,10,,,,,,,,,,,5,1.454,1,,,,,,-0.373028274,-0.390496858,1,0,0,1.4539,Obsidian_rect,0,0,0,0,1,
5dd95e3c2274978e775f2aff,TCR,2024-06-25_13h23.36.728,LearnStrategy,2023.2.3,MacIntel,120.4819277,8,2,2,,,,,,,,6,15,,,,,,,,,,,6,0.832,1,,,,,,-0.078959987,-0.394122024,1,0,0,0.8321,Pegmatite_rect,1,0,1,0,1,
5dd95e3c2274978e775f2aff,TCR,2024-06-25_13h23.36.728,LearnStrategy,2023.2.3,MacIntel,120.4819277,8,2,3,,,,,,,,8,09,,,,,,,,,,,8,0.792,1,,,,,,0.362975364,-0.390178571,1,0,0,0.7919,Pumice_rect,2,0,2,0,1,
5dd95e3c2274978e775f2aff,TCR,2024-06-25_13h23.36.728,LearnStrategy,2023.2.3,MacIntel,120.4819277,8,2,4,,,,,,,,7,12,,,,,,,,,,,3,1.513,0,,,,,,0.140356316,-0.248201885,1,0,0,1.5126,Diorite_rect,3,0,3,0,1,
5dd95e3c2274978e775f2aff,TCR,2024-06-25_13h23.36.728,LearnStrategy,2023.2.3,MacIntel,120.4819277,8,2,5,,,,,,,,6,12,,,,,,,,,,,6,0.934,1,,,,,,-0.146498843,-0.410441468,1,0,0,0.9344,Pegmatite_rect,4,0,4,0,1,
5dd95e3c2274978e775f2aff,TCR,2024-06-25_13h23.36.728,LearnStrategy,2023.2.3,MacIntel,120.4819277,8,2,6,,,,,,,,4,03,,,,,,,,,,,4,2.776,1,,,,,,0.442960483,-0.243179563,1,0,0,2.7755,Gabbro_rect,5,0,5,0,1,
5dd95e3c2274978e775f2aff,TCR,2024-06-25_13h23.36.728,LearnStrategy,2023.2.3,MacIntel,120.4819277,8,2,7,,,,,,,,8,15,,,,,,,,,,,8,1.157,1,,,,,,0.352409888,-0.39088955,1,0,0,1.157,Pumice_rect,6,0,6,0,1,
5dd95e3c2274978e775f2aff,TCR,2024-06-25_13h23.36.728,LearnStrategy,2023.2.3,MacIntel,120.4819277,8,2,8,,,,,,,,7,15,,,,,,,,,,,2,0.778,0,,,,,,-0.129398148,-0.250934193,1,0,0,0.7777,Basalt_rect,7,0,7,0,1,
5dd95e3c2274978e775f2aff,TCR,2024-06-25_13h23.36.728,LearnStrategy,2023.2.3,MacIntel,120.4819277,8,2,9,,,,,,,,4,11,,,,,,,,,,,4,0.958,1,,,,,,0.358192791,-0.260697751,1,0,0,0.958,Gabbro_rect,8,0,8,0,1,
5dd95e3c2274978e775f2aff,TCR,2024-06-25_13h23.36.728,LearnStrategy,2023.2.3,MacIntel,120.4819277,8,2,10,,,,,,,,2,05,,,,,,,,,,,4,1.108,0,,,,,,0.379026124,-0.266381448,1,0,0,1.1081,Gabbro_rect,9,0,9,0,1,
5dd95e3c2274978e775f2aff,TCR,2024-06-25_13h23.36.728,LearnStrategy,2023.2.3,MacIntel,120.4819277,8,2,11,,,,,,,,3,14,,,,,,,,,,,6,0.797,0,,,,,,-0.122284226,-0.385044643,1,0,0,0.7973,Pegmatite_rect,10,0,10,0,1,
5dd95e3c2274978e775f2aff,TCR,2024-06-25_13h23.36.728,LearnStrategy,2023.2.3,MacIntel,120.4819277,8,2,12,,,,,,,,5,04,,,,,,,,,,,5,0.819,1,,,,,,-0.384474206,-0.394068287,1,0,0,0.8194,Obsidian_rect,11,0,11,0,1,
5dd95e3c2274978e775f2aff,TCR,2024-06-25_13h23.36.728,LearnStrategy,2023.2.3,MacIntel,120.4819277,8,2,13,,,,,,,,1,16,,,,,,,,,,,2,1.013,0,,,,,,-0.126719577,-0.24833416,1,0,0,1.0128,Basalt_rect,12,0,12,0,1,
5dd95e3c2274978e775f2aff,TCR,2024-06-25_13h23.36.728,LearnStrategy,2023.2.3,MacIntel,120.4819277,8,2,14,,,,,,,,2,01,,,,,,,,,,,4,1.261,0,,,,,,0.311020172,-0.247234623,1,0,0,1.2611,Gabbro_rect,13,0,13,0,1,
5dd95e3c2274978e775f2aff,TCR,2024-06-25_13h23.36.728,LearnStrategy,2023.2.3,MacIntel,120.4819277,8,2,15,,,,,,,,3,07,,,,,,,,,,,6,1.26,0,,,,,,-0.068076224,-0.381407077,1,0,0,1.2603,Pegmatite_rect,14,0,14,0,1,
5dd95e3c2274978e775f2aff,TCR,2024-06-25_13h23.36.728,LearnStrategy,2023.2.3,MacIntel,120.4819277,8,2,16,,,,,,,,1,10,,,,,,,,,,,1,1.925,1,,,,,,-0.363942626,-0.246614583,1,0,0,1.9252,Andesite_rect,15,0,15,0,1,
5dd95e3c2274978e775f2aff,TCR,2024-06-25_13h23.36.728,LearnStrategy,2023.2.3,MacIntel,120.4819277,9,1,1,-0.048412698,-0.006068122,1,0,0,0.9291,rock_grid_rect_2,1,09,-1,-1,0.929,0.375562169,-0.243406911,1,0,0,1.7532,Gabbro_rect,4,1.753,0,0,0,0,0,1,,,,,,,,,,,,,
5dd95e3c2274978e775f2aff,TCR,2024-06-25_13h23.36.728,LearnStrategy,2023.2.3,MacIntel,120.4819277,9,1,2,-0.006754299,0.010557209,1,0,0,0.665,rock_grid_rect_2,7,13,-1,-1,0.665,-0.166976687,-0.23266369,1,0,0,1.277,Basalt_rect,2,1.277,0,1,0,1,0,1,,,,,,,,,,,,,
5dd95e3c2274978e775f2aff,TCR,2024-06-25_13h23.36.728,LearnStrategy,2023.2.3,MacIntel,120.4819277,9,1,3,-0.077248677,0.007316468,1,0,0,0.7655,rock_grid_rect_2,6,03,-1,-1,0.765,-0.102153604,-0.418423446,1,0,0,0.9534,Pegmatite_rect,6,0.953,1,2,0,2,0,1,,,,,,,,,,,,,
5dd95e3c2274978e775f2aff,TCR,2024-06-25_13h23.36.728,LearnStrategy,2023.2.3,MacIntel,120.4819277,9,1,4,-0.049727183,0.013562335,1,0,0,0.5309,rock_grid_rect_2,3,06,-1,-1,0.531,0.36410797,-0.41223545,1,0,0,1.8624,Pumice_rect,8,1.862,0,3,0,3,0,1,,,,,,,,,,,,,
5dd95e3c2274978e775f2aff,TCR,2024-06-25_13h23.36.728,LearnStrategy,2023.2.3,MacIntel,120.4819277,9,1,5,0.043266369,-0.002261078,1,0,0,0.6227,rock_grid_rect_2,1,03,-1,-1,0.623,-0.12505787,-0.239612269,1,0,0,0.9275,Basalt_rect,2,0.928,0,4,0,4,0,1,,,,,,,,,,,,,
5dd95e3c2274978e775f2aff,TCR,2024-06-25_13h23.36.728,LearnStrategy,2023.2.3,MacIntel,120.4819277,9,1,6,-0.04177414,-0.008581349,1,0,0,2.3734,rock_grid_rect_2,7,04,-1,-1,2.373,0.123590443,-0.41577381,1,0,0,0.8944,Peridotite_rect,7,0.894,1,5,0,5,0,1,,,,,,,,,,,,,
5dd95e3c2274978e775f2aff,TCR,2024-06-25_13h23.36.728,LearnStrategy,2023.2.3,MacIntel,120.4819277,9,1,7,0.028269676,0.006390542,1,0,0,0.931,rock_grid_rect_2,2,16,-1,-1,0.931,-0.352777778,-0.238702877,1,0,0,0.8864,Andesite_rect,1,0.886,0,6,0,6,0,1,,,,,,,,,,,,,
5dd95e3c2274978e775f2aff,TCR,2024-06-25_13h23.36.728,LearnStrategy,2023.2.3,MacIntel,120.4819277,9,1,8,-0.053831845,0.003753307,1,0,0,0.7655,rock_grid_rect_2,4,01,-1,-1,0.765,0.415749008,-0.264054233,1,0,0,0.6784,Gabbro_rect,4,0.678,1,7,0,7,0,1,,,,,,,,,,,,,
5dd95e3c2274978e775f2aff,TCR,2024-06-25_13h23.36.728,LearnStrategy,2023.2.3,MacIntel,120.4819277,9,1,9,0.053178737,-0.006704696,1,0,0,0.5902,rock_grid_rect_2,8,16,-1,-1,0.59,0.380138062,-0.393770668,1,0,0,1.0033,Pumice_rect,8,1.003,1,8,0,8,0,1,,,,,,,,,,,,,
5dd95e3c2274978e775f2aff,TCR,2024-06-25_13h23.36.728,LearnStrategy,2023.2.3,MacIntel,120.4819277,9,1,10,0.011363261,-0.020374504,1,0,0,0.6896,rock_grid_rect_2,1,11,-1,-1,0.69,0.430328208,-0.241526124,1,0,0,1.6437,Gabbro_rect,4,1.644,0,9,0,9,0,1,,,,,,,,,,,,,
5dd95e3c2274978e775f2aff,TCR,2024-06-25_13h23.36.728,LearnStrategy,2023.2.3,MacIntel,120.4819277,9,1,11,0.003178737,-0.015798611,1,0,0,0.7396,rock_grid_rect_2,2,09,-1,-1,0.74,0.371474041,-0.260528274,1,0,0,0.787,Gabbro_rect,4,0.787,0,10,0,10,0,1,,,,,,,,,,,,,
5dd95e3c2274978e775f2aff,TCR,2024-06-25_13h23.36.728,LearnStrategy,2023.2.3,MacIntel,120.4819277,9,1,12,-0.019857804,0.000409226,1,0,0,0.7802,rock_grid_rect_2,7,06,-1,-1,0.78,0.146486442,-0.267410714,1,0,0,0.9868,Diorite_rect,3,0.987,0,11,0,11,0,1,,,,,,,,,,,,,
5dd95e3c2274978e775f2aff,TCR,2024-06-25_13h23.36.728,LearnStrategy,2023.2.3,MacIntel,120.4819277,9,1,13,-0.004530423,-0.016137566,1,0,0,0.6902,rock_grid_rect_2,2,11,-1,-1,0.69,0.306684028,-0.419543651,1,0,0,0.9032,Pumice_rect,8,0.903,0,12,0,12,0,1,,,,,,,,,,,,,
5dd95e3c2274978e775f2aff,TCR,2024-06-25_13h23.36.728,LearnStrategy,2023.2.3,MacIntel,120.4819277,9,1,14,-0.029187335,-0.009982639,1,0,0,1.2318,rock_grid_rect_2,3,13,-1,-1,1.232,0.205324074,-0.231932044,1,0,0,1.2106,Diorite_rect,3,1.211,1,13,0,13,0,1,,,,,,,,,,,,,
5dd95e3c2274978e775f2aff,TCR,2024-06-25_13h23.36.728,LearnStrategy,2023.2.3,MacIntel,120.4819277,9,1,15,-0.016947751,0.017332176,1,0,0,0.9399,rock_grid_rect_2,2,06,-1,-1,0.94,0.440968089,-0.245965608,1,0,0,1.0366,Gabbro_rect,4,1.037,0,14,0,14,0,1,,,,,,,,,,,,,
5dd95e3c2274978e775f2aff,TCR,2024-06-25_13h23.36.728,LearnStrategy,2023.2.3,MacIntel,120.4819277,9,1,16,0.013525132,-0.008684689,1,0,0,0.6817,rock_grid_rect_2,3,11,-1,-1,0.682,-0.111896495,-0.249718915,1,0,0,0.7773,Basalt_rect,2,0.777,0,15,0,15,0,1,,,,,,,,,,,,,
5dd95e3c2274978e775f2aff,TCR,2024-06-25_13h23.36.728,LearnStrategy,2023.2.3,MacIntel,120.4819277,9,2,1,,,,,,,,2,14,,,,,,,,,,,2,2.594,1,,,,,,-0.105005787,-0.243683862,1,0,0,2.594,Basalt_rect,0,0,0,0,1,
5dd95e3c2274978e775f2aff,TCR,2024-06-25_13h23.36.728,LearnStrategy,2023.2.3,MacIntel,120.4819277,9,2,2,,,,,,,,7,02,,,,,,,,,,,1,1.46,0,,,,,,-0.38521412,-0.236789021,1,0,0,1.4599,Andesite_rect,1,0,1,0,1,
5dd95e3c2274978e775f2aff,TCR,2024-06-25_13h23.36.728,LearnStrategy,2023.2.3,MacIntel,120.4819277,9,2,3,,,,,,,,1,05,,,,,,,,,,,4,1.153,0,,,,,,0.360185185,-0.248272156,1,0,0,1.153,Gabbro_rect,2,0,2,0,1,
5dd95e3c2274978e775f2aff,TCR,2024-06-25_13h23.36.728,LearnStrategy,2023.2.3,MacIntel,120.4819277,9,2,4,,,,,,,,8,03,,,,,,,,,,,8,0.885,1,,,,,,0.42046131,-0.383279597,1,0,0,0.8855,Pumice_rect,3,0,3,0,1,
5dd95e3c2274978e775f2aff,TCR,2024-06-25_13h23.36.728,LearnStrategy,2023.2.3,MacIntel,120.4819277,9,2,5,,,,,,,,6,10,,,,,,,,,,,6,1.516,1,,,,,,-0.090397652,-0.38651207,1,0,0,1.5165,Pegmatite_rect,4,0,4,0,1,
5dd95e3c2274978e775f2aff,TCR,2024-06-25_13h23.36.728,LearnStrategy,2023.2.3,MacIntel,120.4819277,9,2,6,,,,,,,,2,10,,,,,,,,,,,1,1.716,0,,,,,,-0.342939815,-0.260966435,1,0,0,1.7156,Andesite_rect,5,0,5,0,1,
5dd95e3c2274978e775f2aff,TCR,2024-06-25_13h23.36.728,LearnStrategy,2023.2.3,MacIntel,120.4819277,9,2,7,,,,,,,,4,05,,,,,,,,,,,2,1.49,0,,,,,,-0.080567956,-0.262983631,1,0,0,1.4903,Basalt_rect,6,0,6,0,1,
5dd95e3c2274978e775f2aff,TCR,2024-06-25_13h23.36.728,LearnStrategy,2023.2.3,MacIntel,120.4819277,9,2,8,,,,,,,,4,09,,,,,,,,,,,2,0.949,0,,,,,,-0.086007771,-0.259651951,1,0,0,0.9494,Basalt_rect,7,0,7,0,1,
5dd95e3c2274978e775f2aff,TCR,2024-06-25_13h23.36.728,LearnStrategy,2023.2.3,MacIntel,120.4819277,9,2,9,,,,,,,,1,04,,,,,,,,,,,4,1.79,0,,,,,,0.374429563,-0.243849206,1,0,0,1.7897,Gabbro_rect,8,0,8,0,1,
5dd95e3c2274978e775f2aff,TCR,2024-06-25_13h23.36.728,LearnStrategy,2023.2.3,MacIntel,120.4819277,9,2,10,,,,,,,,5,02,,,,,,,,,,,5,0.932,1,,,,,,-0.456481481,-0.399165013,1,0,0,0.9325,Obsidian_rect,9,0,9,0,1,
5dd95e3c2274978e775f2aff,TCR,2024-06-25_13h23.36.728,LearnStrategy,2023.2.3,MacIntel,120.4819277,9,2,11,,,,,,,,6,05,,,,,,,,,,,6,1.143,1,,,,,,-0.068836806,-0.394638724,1,0,0,1.1432,Pegmatite_rect,10,0,10,0,1,
5dd95e3c2274978e775f2aff,TCR,2024-06-25_13h23.36.728,LearnStrategy,2023.2.3,MacIntel,120.4819277,9,2,12,,,,,,,,8,02,,,,,,,,,,,8,1.316,1,,,,,,0.358676422,-0.413946759,1,0,0,1.3162,Pumice_rect,11,0,11,0,1,
5dd95e3c2274978e775f2aff,TCR,2024-06-25_13h23.36.728,LearnStrategy,2023.2.3,MacIntel,120.4819277,9,2,13,,,,,,,,3,16,,,,,,,,,,,6,1.775,0,,,,,,-0.067642196,-0.386078042,1,0,0,1.7748,Pegmatite_rect,12,0,12,0,1,
5dd95e3c2274978e775f2aff,TCR,2024-06-25_13h23.36.728,LearnStrategy,2023.2.3,MacIntel,120.4819277,9,2,14,,,,,,,,7,07,,,,,,,,,,,2,0.914,0,,,,,,-0.075239749,-0.229786706,1,0,0,0.9135,Basalt_rect,13,0,13,0,1,
5dd95e3c2274978e775f2aff,TCR,2024-06-25_13h23.36.728,LearnStrategy,2023.2.3,MacIntel,120.4819277,9,2,15,,,,,,,,3,15,,,,,,,,,,,3,0.923,1,,,,,,0.152153604,-0.252360284,1,0,0,0.9233,Diorite_rect,14,0,14,0,1,
5dd95e3c2274978e775f2aff,TCR,2024-06-25_13h23.36.728,LearnStrategy,2023.2.3,MacIntel,120.4819277,9,2,16,,,,,,,,5,11,,,,,,,,,,,5,1.115,1,,,,,,-0.353327546,-0.417799272,1,0,0,1.1154,Obsidian_rect,15,0,15,0,1,
5dd95e3c2274978e775f2aff,TCR,2024-06-25_13h23.36.728,LearnStrategy,2023.2.3,MacIntel,120.4819277,,,,,,,,,,,,,,,,,,,,,,,,,,,,,,,,,,,,,,,,,,,0
5dd95e3c2274978e775f2aff,TCR,2024-06-25_13h23.36.728,LearnStrategy,2023.2.3,MacIntel,120.4819277,,,,,,,,,,,,,,,,,,,,,,,,,,,,,,,,,,,,,,,,,,,
5dd95e3c2274978e775f2aff,TCR,2024-06-25_13h23.36.728,LearnStrategy,2023.2.3,MacIntel,120.4819277,,,,,,,,,,,1,03,1,1,,,,,,,,,,,,,,,,,,,,,,,,,,,,,
5dd95e3c2274978e775f2aff,TCR,2024-06-25_13h23.36.728,LearnStrategy,2023.2.3,MacIntel,120.4819277,,,,,,,,,,,4,01,1,2,,,,,,,,,,,,,,,,,,,,,,,,,,,,,
5dd95e3c2274978e775f2aff,TCR,2024-06-25_13h23.36.728,LearnStrategy,2023.2.3,MacIntel,120.4819277,,,,,,,,,,,4,15,1,3,,,,,,,,,,,,,,,,,,,,,,,,,,,,,
5dd95e3c2274978e775f2aff,TCR,2024-06-25_13h23.36.728,LearnStrategy,2023.2.3,MacIntel,120.4819277,,,,,,,,,,,2,11,1,4,,,,,,,,,,,,,,,,,,,,,,,,,,,,,
5dd95e3c2274978e775f2aff,TCR,2024-06-25_13h23.36.728,LearnStrategy,2023.2.3,MacIntel,120.4819277,,,,,,,,,,,7,05,1,5,,,,,,,,,,,,,,,,,,,,,,,,,,,,,
5dd95e3c2274978e775f2aff,TCR,2024-06-25_13h23.36.728,LearnStrategy,2023.2.3,MacIntel,120.4819277,,,,,,,,,,,7,14,1,6,,,,,,,,,,,,,,,,,,,,,,,,,,,,,
5dd95e3c2274978e775f2aff,TCR,2024-06-25_13h23.36.728,LearnStrategy,2023.2.3,MacIntel,120.4819277,,,,,,,,,,,4,16,1,7,,,,,,,,,,,,,,,,,,,,,,,,,,,,,
5dd95e3c2274978e775f2aff,TCR,2024-06-25_13h23.36.728,LearnStrategy,2023.2.3,MacIntel,120.4819277,,,,,,,,,,,5,08,1,8,,,,,,,,,,,,,,,,,,,,,,,,,,,,,
5dd95e3c2274978e775f2aff,TCR,2024-06-25_13h23.36.728,LearnStrategy,2023.2.3,MacIntel,120.4819277,,,,,,,,,,,3,12,2,1,,,,,,,,,,,,,,,,,,,,,,,,,,,,,
5dd95e3c2274978e775f2aff,TCR,2024-06-25_13h23.36.728,LearnStrategy,2023.2.3,MacIntel,120.4819277,,,,,,,,,,,7,13,2,2,,,,,,,,,,,,,,,,,,,,,,,,,,,,,
5dd95e3c2274978e775f2aff,TCR,2024-06-25_13h23.36.728,LearnStrategy,2023.2.3,MacIntel,120.4819277,,,,,,,,,,,5,16,2,3,,,,,,,,,,,,,,,,,,,,,,,,,,,,,
5dd95e3c2274978e775f2aff,TCR,2024-06-25_13h23.36.728,LearnStrategy,2023.2.3,MacIntel,120.4819277,,,,,,,,,,,7,04,2,4,,,,,,,,,,,,,,,,,,,,,,,,,,,,,
5dd95e3c2274978e775f2aff,TCR,2024-06-25_13h23.36.728,LearnStrategy,2023.2.3,MacIntel,120.4819277,,,,,,,,,,,8,16,2,5,,,,,,,,,,,,,,,,,,,,,,,,,,,,,
5dd95e3c2274978e775f2aff,TCR,2024-06-25_13h23.36.728,LearnStrategy,2023.2.3,MacIntel,120.4819277,,,,,,,,,,,1,07,2,6,,,,,,,,,,,,,,,,,,,,,,,,,,,,,
5dd95e3c2274978e775f2aff,TCR,2024-06-25_13h23.36.728,LearnStrategy,2023.2.3,MacIntel,120.4819277,,,,,,,,,,,4,12,2,7,,,,,,,,,,,,,,,,,,,,,,,,,,,,,
5dd95e3c2274978e775f2aff,TCR,2024-06-25_13h23.36.728,LearnStrategy,2023.2.3,MacIntel,120.4819277,,,,,,,,,,,3,13,2,8,,,,,,,,,,,,,,,,,,,,,,,,,,,,,
5dd95e3c2274978e775f2aff,TCR,2024-06-25_13h23.36.728,LearnStrategy,2023.2.3,MacIntel,120.4819277,,,,,,,,,,,6,03,3,1,,,,,,,,,,,,,,,,,,,,,,,,,,,,,
5dd95e3c2274978e775f2aff,TCR,2024-06-25_13h23.36.728,LearnStrategy,2023.2.3,MacIntel,120.4819277,,,,,,,,,,,8,06,3,2,,,,,,,,,,,,,,,,,,,,,,,,,,,,,
5dd95e3c2274978e775f2aff,TCR,2024-06-25_13h23.36.728,LearnStrategy,2023.2.3,MacIntel,120.4819277,,,,,,,,,,,1,11,3,3,,,,,,,,,,,,,,,,,,,,,,,,,,,,,
5dd95e3c2274978e775f2aff,TCR,2024-06-25_13h23.36.728,LearnStrategy,2023.2.3,MacIntel,120.4819277,,,,,,,,,,,8,05,3,4,,,,,,,,,,,,,,,,,,,,,,,,,,,,,
5dd95e3c2274978e775f2aff,TCR,2024-06-25_13h23.36.728,LearnStrategy,2023.2.3,MacIntel,120.4819277,,,,,,,,,,,2,09,3,5,,,,,,,,,,,,,,,,,,,,,,,,,,,,,
5dd95e3c2274978e775f2aff,TCR,2024-06-25_13h23.36.728,LearnStrategy,2023.2.3,MacIntel,120.4819277,,,,,,,,,,,6,06,3,6,,,,,,,,,,,,,,,,,,,,,,,,,,,,,
5dd95e3c2274978e775f2aff,TCR,2024-06-25_13h23.36.728,LearnStrategy,2023.2.3,MacIntel,120.4819277,,,,,,,,,,,5,07,3,7,,,,,,,,,,,,,,,,,,,,,,,,,,,,,
5dd95e3c2274978e775f2aff,TCR,2024-06-25_13h23.36.728,LearnStrategy,2023.2.3,MacIntel,120.4819277,,,,,,,,,,,8,08,3,8,,,,,,,,,,,,,,,,,,,,,,,,,,,,,
5dd95e3c2274978e775f2aff,TCR,2024-06-25_13h23.36.728,LearnStrategy,2023.2.3,MacIntel,120.4819277,,,,,,,,,,,2,12,4,1,,,,,,,,,,,,,,,,,,,,,,,,,,,,,
5dd95e3c2274978e775f2aff,TCR,2024-06-25_13h23.36.728,LearnStrategy,2023.2.3,MacIntel,120.4819277,,,,,,,,,,,7,10,4,2,,,,,,,,,,,,,,,,,,,,,,,,,,,,,
5dd95e3c2274978e775f2aff,TCR,2024-06-25_13h23.36.728,LearnStrategy,2023.2.3,MacIntel,120.4819277,,,,,,,,,,,1,01,4,3,,,,,,,,,,,,,,,,,,,,,,,,,,,,,
5dd95e3c2274978e775f2aff,TCR,2024-06-25_13h23.36.728,LearnStrategy,2023.2.3,MacIntel,120.4819277,,,,,,,,,,,8,13,4,4,,,,,,,,,,,,,,,,,,,,,,,,,,,,,
5dd95e3c2274978e775f2aff,TCR,2024-06-25_13h23.36.728,LearnStrategy,2023.2.3,MacIntel,120.4819277,,,,,,,,,,,8,04,4,5,,,,,,,,,,,,,,,,,,,,,,,,,,,,,
5dd95e3c2274978e775f2aff,TCR,2024-06-25_13h23.36.728,LearnStrategy,2023.2.3,MacIntel,120.4819277,,,,,,,,,,,3,09,4,6,,,,,,,,,,,,,,,,,,,,,,,,,,,,,
5dd95e3c2274978e775f2aff,TCR,2024-06-25_13h23.36.728,LearnStrategy,2023.2.3,MacIntel,120.4819277,,,,,,,,,,,1,06,4,7,,,,,,,,,,,,,,,,,,,,,,,,,,,,,
5dd95e3c2274978e775f2aff,TCR,2024-06-25_13h23.36.728,LearnStrategy,2023.2.3,MacIntel,120.4819277,,,,,,,,,,,5,06,4,8,,,,,,,,,,,,,,,,,,,,,,,,,,,,,
5dd95e3c2274978e775f2aff,TCR,2024-06-25_13h23.36.728,LearnStrategy,2023.2.3,MacIntel,120.4819277,,,,,,,,,,,3,06,5,1,,,,,,,,,,,,,,,,,,,,,,,,,,,,,
5dd95e3c2274978e775f2aff,TCR,2024-06-25_13h23.36.728,LearnStrategy,2023.2.3,MacIntel,120.4819277,,,,,,,,,,,3,02,5,2,,,,,,,,,,,,,,,,,,,,,,,,,,,,,
5dd95e3c2274978e775f2aff,TCR,2024-06-25_13h23.36.728,LearnStrategy,2023.2.3,MacIntel,120.4819277,,,,,,,,,,,2,16,5,3,,,,,,,,,,,,,,,,,,,,,,,,,,,,,
5dd95e3c2274978e775f2aff,TCR,2024-06-25_13h23.36.728,LearnStrategy,2023.2.3,MacIntel,120.4819277,,,,,,,,,,,7,06,5,4,,,,,,,,,,,,,,,,,,,,,,,,,,,,,
5dd95e3c2274978e775f2aff,TCR,2024-06-25_13h23.36.728,LearnStrategy,2023.2.3,MacIntel,120.4819277,,,,,,,,,,,4,13,5,5,,,,,,,,,,,,,,,,,,,,,,,,,,,,,
5dd95e3c2274978e775f2aff,TCR,2024-06-25_13h23.36.728,LearnStrategy,2023.2.3,MacIntel,120.4819277,,,,,,,,,,,3,11,5,6,,,,,,,,,,,,,,,,,,,,,,,,,,,,,
5dd95e3c2274978e775f2aff,TCR,2024-06-25_13h23.36.728,LearnStrategy,2023.2.3,MacIntel,120.4819277,,,,,,,,,,,5,14,5,7,,,,,,,,,,,,,,,,,,,,,,,,,,,,,
5dd95e3c2274978e775f2aff,TCR,2024-06-25_13h23.36.728,LearnStrategy,2023.2.3,MacIntel,120.4819277,,,,,,,,,,,6,11,5,8,,,,,,,,,,,,,,,,,,,,,,,,,,,,,
5dd95e3c2274978e775f2aff,TCR,2024-06-25_13h23.36.728,LearnStrategy,2023.2.3,MacIntel,120.4819277,,,,,,,,,,,1,09,6,1,,,,,,,,,,,,,,,,,,,,,,,,,,,,,
5dd95e3c2274978e775f2aff,TCR,2024-06-25_13h23.36.728,LearnStrategy,2023.2.3,MacIntel,120.4819277,,,,,,,,,,,6,13,6,2,,,,,,,,,,,,,,,,,,,,,,,,,,,,,
5dd95e3c2274978e775f2aff,TCR,2024-06-25_13h23.36.728,LearnStrategy,2023.2.3,MacIntel,120.4819277,,,,,,,,,,,4,10,6,3,,,,,,,,,,,,,,,,,,,,,,,,,,,,,
5dd95e3c2274978e775f2aff,TCR,2024-06-25_13h23.36.728,LearnStrategy,2023.2.3,MacIntel,120.4819277,,,,,,,,,,,5,05,6,4,,,,,,,,,,,,,,,,,,,,,,,,,,,,,
5dd95e3c2274978e775f2aff,TCR,2024-06-25_13h23.36.728,LearnStrategy,2023.2.3,MacIntel,120.4819277,,,,,,,,,,,2,02,6,5,,,,,,,,,,,,,,,,,,,,,,,,,,,,,
5dd95e3c2274978e775f2aff,TCR,2024-06-25_13h23.36.728,LearnStrategy,2023.2.3,MacIntel,120.4819277,,,,,,,,,,,6,09,6,6,,,,,,,,,,,,,,,,,,,,,,,,,,,,,
5dd95e3c2274978e775f2aff,TCR,2024-06-25_13h23.36.728,LearnStrategy,2023.2.3,MacIntel,120.4819277,,,,,,,,,,,2,06,6,7,,,,,,,,,,,,,,,,,,,,,,,,,,,,,
5dd95e3c2274978e775f2aff,TCR,2024-06-25_13h23.36.728,LearnStrategy,2023.2.3,MacIntel,120.4819277,,,,,,,,,,,6,07,6,8,,,,,,,,,,,,,,,,,,,,,,,,,,,,,