participant,condition,date,expName,psychopyVersion,OS,frameRate,block,phase,trial,learn_mouse_2.x,learn_mouse_2.y,learn_mouse_2.leftButton,learn_mouse_2.midButton,learn_mouse_2.rightButton,learn_mouse_2.time,learn_mouse_2.clicked_name,cat,token,row,col,t_select,cat_mouse_l.x,cat_mouse_l.y,cat_mouse_l.leftButton,cat_mouse_l.midButton,cat_mouse_l.rightButton,cat_mouse_l.time,cat_mouse_l.clicked_name,resp,t_resp,corr,train_trials.thisRepN,train_trials.thisTrialN,train_trials.thisN,train_trials.thisIndex,train_trials.ran,cat_mouse_t.x,cat_mouse_t.y,cat_mouse_t.leftButton,cat_mouse_t.midButton,cat_mouse_t.rightButton,cat_mouse_t.time,cat_mouse_t.clicked_name,test_trials.thisRepN,test_trials.thisTrialN,test_trials.thisN,test_trials.thisIndex,test_trials.ran,Bonus
5df15bc3361a8506b94f79ed,TCN,2024-06-25_11h44.57.609,LearnStrategy,2023.2.3,Win32,59.88023952,,,,,,,,,,,,,,,,,,,,,,,,,,,,,,,,,,,,,,,,,,,
5df15bc3361a8506b94f79ed,TCN,2024-06-25_11h44.57.609,LearnStrategy,2023.2.3,Win32,59.88023952,1,1,1,-0.006666667,-0.0025,1,0,0,3.9786,rock_grid_rect_2,7,12,-1,-1,3.979,0.3575,-0.250833333,1,0,0,5.6973,Gabbro_rect,4,5.697,0,0,0,0,0,1,,,,,,,,,,,,,
5df15bc3361a8506b94f79ed,TCN,2024-06-25_11h44.57.609,LearnStrategy,2023.2.3,Win32,59.88023952,1,1,2,0.049166667,-0.018333333,1,0,0,1.5045,rock_grid_rect_2,2,01,-1,-1,1.505,0.330833333,-0.395,1,0,0,5.9378,Pumice_rect,8,5.938,0,1,0,1,0,1,,,,,,,,,,,,,
5df15bc3361a8506b94f79ed,TCN,2024-06-25_11h44.57.609,LearnStrategy,2023.2.3,Win32,59.88023952,1,1,3,0.0975,0.0025,1,0,0,1.2873,rock_grid_rect_2,5,11,-1,-1,1.287,-0.375,-0.398333333,1,0,0,2.7508,Obsidian_rect,5,2.751,1,2,0,2,0,1,,,,,,,,,,,,,
5df15bc3361a8506b94f79ed,TCN,2024-06-25_11h44.57.609,LearnStrategy,2023.2.3,Win32,59.88023952,1,1,4,-0.01,-0.005833333,1,0,0,0.8652,rock_grid_rect_2,6,10,-1,-1,0.865,-0.470833333,-0.251666667,1,0,0,3.0795,Andesite_rect,1,3.079,0,3,0,3,0,1,,,,,,,,,,,,,
5df15bc3361a8506b94f79ed,TCN,2024-06-25_11h44.57.609,LearnStrategy,2023.2.3,Win32,59.88023952,1,1,5,0.114166667,0.011666667,1,0,0,1.2856,rock_grid_rect_2,1,01,-1,-1,1.286,0.365,-0.395,1,0,0,4.1766,Pumice_rect,8,4.177,0,4,0,4,0,1,,,,,,,,,,,,,
5df15bc3361a8506b94f79ed,TCN,2024-06-25_11h44.57.609,LearnStrategy,2023.2.3,Win32,59.88023952,1,1,6,0.033333333,0.015,1,0,0,1.0379,rock_grid_rect_2,8,15,-1,-1,1.038,0.291666667,-0.228333333,1,0,0,2.3107,Gabbro_rect,4,2.311,0,5,0,5,0,1,,,,,,,,,,,,,
5df15bc3361a8506b94f79ed,TCN,2024-06-25_11h44.57.609,LearnStrategy,2023.2.3,Win32,59.88023952,1,1,7,0.1275,0.009166667,1,0,0,1.4549,rock_grid_rect_2,8,06,-1,-1,1.455,0.055833333,-0.256666667,1,0,0,4.5511,Diorite_rect,3,4.551,0,6,0,6,0,1,,,,,,,,,,,,,
5df15bc3361a8506b94f79ed,TCN,2024-06-25_11h44.57.609,LearnStrategy,2023.2.3,Win32,59.88023952,1,1,8,0.0675,-0.015,1,0,0,0.8537,rock_grid_rect_2,3,07,-1,-1,0.854,0.048333333,-0.246666667,1,0,0,4.7422,Diorite_rect,3,4.742,1,7,0,7,0,1,,,,,,,,,,,,,
5df15bc3361a8506b94f79ed,TCN,2024-06-25_11h44.57.609,LearnStrategy,2023.2.3,Win32,59.88023952,1,1,9,0.121666667,-0.025,1,0,0,1.221,rock_grid_rect_2,7,08,-1,-1,1.221,0.111666667,-0.391666667,1,0,0,20.7403,Peridotite_rect,7,20.74,1,8,0,8,0,1,,,,,,,,,,,,,
5df15bc3361a8506b94f79ed,TCN,2024-06-25_11h44.57.609,LearnStrategy,2023.2.3,Win32,59.88023952,1,1,10,0.094166667,0.001666667,1,0,0,1.1745,rock_grid_rect_2,6,16,-1,-1,1.174,0.414166667,-0.264166667,1,0,0,7.3621,Gabbro_rect,4,7.362,0,9,0,9,0,1,,,,,,,,,,,,,
5df15bc3361a8506b94f79ed,TCN,2024-06-25_11h44.57.609,LearnStrategy,2023.2.3,Win32,59.88023952,1,1,11,0.073333333,-0.01,1,0,0,0.8372,rock_grid_rect_2,4,01,-1,-1,0.837,0.145,-0.383333333,1,0,0,16.1146,Peridotite_rect,7,16.115,0,10,0,10,0,1,,,,,,,,,,,,,
5df15bc3361a8506b94f79ed,TCN,2024-06-25_11h44.57.609,LearnStrategy,2023.2.3,Win32,59.88023952,1,1,12,0.099166667,0.02,1,0,0,1.0864,rock_grid_rect_2,2,10,-1,-1,1.086,-0.095,-0.233333333,1,0,0,15.7944,Basalt_rect,2,15.794,1,11,0,11,0,1,,,,,,,,,,,,,
5df15bc3361a8506b94f79ed,TCN,2024-06-25_11h44.57.609,LearnStrategy,2023.2.3,Win32,59.88023952,1,1,13,0.1025,-0.001666667,1,0,0,1.0706,rock_grid_rect_2,3,08,-1,-1,1.071,0.133333333,-0.2525,1,0,0,8.0803,Diorite_rect,3,8.08,1,12,0,12,0,1,,,,,,,,,,,,,
5df15bc3361a8506b94f79ed,TCN,2024-06-25_11h44.57.609,LearnStrategy,2023.2.3,Win32,59.88023952,1,1,14,0.04,-0.006666667,1,0,0,0.9481,rock_grid_rect_2,1,07,-1,-1,0.948,0.359166667,-0.245,1,0,0,8.2335,Gabbro_rect,4,8.233,0,13,0,13,0,1,,,,,,,,,,,,,
5df15bc3361a8506b94f79ed,TCN,2024-06-25_11h44.57.609,LearnStrategy,2023.2.3,Win32,59.88023952,1,1,15,0.091666667,0.003333333,1,0,0,0.9209,rock_grid_rect_2,5,08,-1,-1,0.921,-0.415,-0.3925,1,0,0,1.5784,Obsidian_rect,5,1.578,1,14,0,14,0,1,,,,,,,,,,,,,
5df15bc3361a8506b94f79ed,TCN,2024-06-25_11h44.57.609,LearnStrategy,2023.2.3,Win32,59.88023952,1,1,16,0.060833333,0.005833333,1,0,0,0.8001,rock_grid_rect_2,4,10,-1,-1,0.8,-0.348333333,-0.235833333,1,0,0,14.4541,Andesite_rect,1,14.454,0,15,0,15,0,1,,,,,,,,,,,,,
5df15bc3361a8506b94f79ed,TCN,2024-06-25_11h44.57.609,LearnStrategy,2023.2.3,Win32,59.88023952,1,2,1,,,,,,,,7,10,,,,,,,,,,,7,19.726,1,,,,,,0.154166667,-0.3975,1,0,0,19.7265,Peridotite_rect,0,0,0,0,1,
5df15bc3361a8506b94f79ed,TCN,2024-06-25_11h44.57.609,LearnStrategy,2023.2.3,Win32,59.88023952,1,2,2,,,,,,,,1,02,,,,,,,,,,,1,38.833,1,,,,,,-0.325,-0.265833333,1,0,0,38.8333,Andesite_rect,1,0,1,0,1,
5df15bc3361a8506b94f79ed,TCN,2024-06-25_11h44.57.609,LearnStrategy,2023.2.3,Win32,59.88023952,1,2,3,,,,,,,,4,16,,,,,,,,,,,2,27.056,0,,,,,,-0.096666667,-0.236666667,1,0,0,27.0557,Basalt_rect,2,0,2,0,1,
5df15bc3361a8506b94f79ed,TCN,2024-06-25_11h44.57.609,LearnStrategy,2023.2.3,Win32,59.88023952,1,2,4,,,,,,,,2,05,,,,,,,,,,,2,5.771,1,,,,,,-0.068333333,-0.243333333,1,0,0,5.7714,Basalt_rect,3,0,3,0,1,
5df15bc3361a8506b94f79ed,TCN,2024-06-25_11h44.57.609,LearnStrategy,2023.2.3,Win32,59.88023952,1,2,5,,,,,,,,6,12,,,,,,,,,,,6,38.549,1,,,,,,-0.093333333,-0.404166667,1,0,0,38.5487,Pegmatite_rect,4,0,4,0,1,
5df15bc3361a8506b94f79ed,TCN,2024-06-25_11h44.57.609,LearnStrategy,2023.2.3,Win32,59.88023952,1,2,6,,,,,,,,3,11,,,,,,,,,,,4,8.991,0,,,,,,0.363333333,-0.266666667,1,0,0,8.9909,Gabbro_rect,5,0,5,0,1,
5df15bc3361a8506b94f79ed,TCN,2024-06-25_11h44.57.609,LearnStrategy,2023.2.3,Win32,59.88023952,1,2,7,,,,,,,,2,02,,,,,,,,,,,2,1.863,1,,,,,,-0.091666667,-0.268333333,1,0,0,1.8628,Basalt_rect,6,0,6,0,1,
5df15bc3361a8506b94f79ed,TCN,2024-06-25_11h44.57.609,LearnStrategy,2023.2.3,Win32,59.88023952,1,2,8,,,,,,,,8,14,,,,,,,,,,,8,1.829,1,,,,,,0.365833333,-0.39,1,0,0,1.8293,Pumice_rect,7,0,7,0,1,
5df15bc3361a8506b94f79ed,TCN,2024-06-25_11h44.57.609,LearnStrategy,2023.2.3,Win32,59.88023952,1,2,9,,,,,,,,3,15,,,,,,,,,,,4,4.501,0,,,,,,0.325,-0.2375,1,0,0,4.5015,Gabbro_rect,8,0,8,0,1,
5df15bc3361a8506b94f79ed,TCN,2024-06-25_11h44.57.609,LearnStrategy,2023.2.3,Win32,59.88023952,1,2,10,,,,,,,,5,04,,,,,,,,,,,5,1.331,1,,,,,,-0.46,-0.404166667,1,0,0,1.3311,Obsidian_rect,9,0,9,0,1,
5df15bc3361a8506b94f79ed,TCN,2024-06-25_11h44.57.609,LearnStrategy,2023.2.3,Win32,59.88023952,1,2,11,,,,,,,,7,07,,,,,,,,,,,7,80.664,1,,,,,,0.144166667,-0.408333333,1,0,0,80.6641,Peridotite_rect,10,0,10,0,1,
5df15bc3361a8506b94f79ed,TCN,2024-06-25_11h44.57.609,LearnStrategy,2023.2.3,Win32,59.88023952,1,2,12,,,,,,,,6,07,,,,,,,,,,,6,15.236,1,,,,,,-0.08,-0.398333333,1,0,0,15.2359,Pegmatite_rect,11,0,11,0,1,
5df15bc3361a8506b94f79ed,TCN,2024-06-25_11h44.57.609,LearnStrategy,2023.2.3,Win32,59.88023952,1,2,13,,,,,,,,4,14,,,,,,,,,,,2,8.037,0,,,,,,-0.13,-0.259166667,1,0,0,8.0371,Basalt_rect,12,0,12,0,1,
5df15bc3361a8506b94f79ed,TCN,2024-06-25_11h44.57.609,LearnStrategy,2023.2.3,Win32,59.88023952,1,2,14,,,,,,,,5,07,,,,,,,,,,,5,4.729,1,,,,,,-0.3625,-0.416666667,1,0,0,4.7288,Obsidian_rect,13,0,13,0,1,
5df15bc3361a8506b94f79ed,TCN,2024-06-25_11h44.57.609,LearnStrategy,2023.2.3,Win32,59.88023952,1,2,15,,,,,,,,1,06,,,,,,,,,,,4,3.181,0,,,,,,0.360833333,-0.254166667,1,0,0,3.1812,Gabbro_rect,14,0,14,0,1,
5df15bc3361a8506b94f79ed,TCN,2024-06-25_11h44.57.609,LearnStrategy,2023.2.3,Win32,59.88023952,1,2,16,,,,,,,,8,05,,,,,,,,,,,8,3.239,1,,,,,,0.413333333,-0.388333333,1,0,0,3.2389,Pumice_rect,15,0,15,0,1,
5df15bc3361a8506b94f79ed,TCN,2024-06-25_11h44.57.609,LearnStrategy,2023.2.3,Win32,59.88023952,2,1,1,-0.006666667,0.010833333,1,0,0,1.6031,rock_grid_rect_2,3,13,-1,-1,1.603,0.180833333,-0.234166667,1,0,0,7.8633,Diorite_rect,3,7.863,1,0,0,0,0,1,,,,,,,,,,,,,
5df15bc3361a8506b94f79ed,TCN,2024-06-25_11h44.57.609,LearnStrategy,2023.2.3,Win32,59.88023952,2,1,2,0.09,-0.011666667,1,0,0,1.1657,rock_grid_rect_2,4,08,-1,-1,1.166,0.379166667,-0.2325,1,0,0,8.059,Gabbro_rect,4,8.059,1,1,0,1,0,1,,,,,,,,,,,,,
5df15bc3361a8506b94f79ed,TCN,2024-06-25_11h44.57.609,LearnStrategy,2023.2.3,Win32,59.88023952,2,1,3,0.059166667,-0.013333333,1,0,0,0.9191,rock_grid_rect_2,8,03,-1,-1,0.919,0.315833333,-0.394166667,1,0,0,1.8056,Pumice_rect,8,1.806,1,2,0,2,0,1,,,,,,,,,,,,,
5df15bc3361a8506b94f79ed,TCN,2024-06-25_11h44.57.609,LearnStrategy,2023.2.3,Win32,59.88023952,2,1,4,0.0725,-0.018333333,1,0,0,0.8652,rock_grid_rect_2,5,05,-1,-1,0.865,-0.350833333,-0.415833333,1,0,0,1.7053,Obsidian_rect,5,1.705,1,3,0,3,0,1,,,,,,,,,,,,,
5df15bc3361a8506b94f79ed,TCN,2024-06-25_11h44.57.609,LearnStrategy,2023.2.3,Win32,59.88023952,2,1,5,0.100833333,0.003333333,1,0,0,0.7993,rock_grid_rect_2,6,11,-1,-1,0.799,-0.188333333,-0.38,1,0,0,14.4246,Pegmatite_rect,6,14.425,1,4,0,4,0,1,,,,,,,,,,,,,
5df15bc3361a8506b94f79ed,TCN,2024-06-25_11h44.57.609,LearnStrategy,2023.2.3,Win32,59.88023952,2,1,6,0.098333333,-0.006666667,1,0,0,1.0222,rock_grid_rect_2,8,02,-1,-1,1.022,0.356666667,-0.389166667,1,0,0,2.4121,Pumice_rect,8,2.412,1,5,0,5,0,1,,,,,,,,,,,,,
5df15bc3361a8506b94f79ed,TCN,2024-06-25_11h44.57.609,LearnStrategy,2023.2.3,Win32,59.88023952,2,1,7,0.015,-0.003333333,1,0,0,0.8318,rock_grid_rect_2,3,10,-1,-1,0.832,0.153333333,-0.24,1,0,0,9.5718,Diorite_rect,3,9.572,1,6,0,6,0,1,,,,,,,,,,,,,
5df15bc3361a8506b94f79ed,TCN,2024-06-25_11h44.57.609,LearnStrategy,2023.2.3,Win32,59.88023952,2,1,8,0.088333333,-0.010833333,1,0,0,0.8043,rock_grid_rect_2,7,02,-1,-1,0.804,-0.140833333,-0.403333333,1,0,0,16.1002,Pegmatite_rect,6,16.1,0,7,0,7,0,1,,,,,,,,,,,,,
5df15bc3361a8506b94f79ed,TCN,2024-06-25_11h44.57.609,LearnStrategy,2023.2.3,Win32,59.88023952,2,1,9,0.074166667,-0.006666667,1,0,0,0.9867,rock_grid_rect_2,1,14,-1,-1,0.987,0.169166667,-0.246666667,1,0,0,13.6261,Diorite_rect,3,13.626,0,8,0,8,0,1,,,,,,,,,,,,,
5df15bc3361a8506b94f79ed,TCN,2024-06-25_11h44.57.609,LearnStrategy,2023.2.3,Win32,59.88023952,2,1,10,0.089166667,-0.004166667,1,0,0,0.8527,rock_grid_rect_2,5,16,-1,-1,0.853,-0.3625,-0.401666667,1,0,0,2.2582,Obsidian_rect,5,2.258,1,9,0,9,0,1,,,,,,,,,,,,,
5df15bc3361a8506b94f79ed,TCN,2024-06-25_11h44.57.609,LearnStrategy,2023.2.3,Win32,59.88023952,2,1,11,0.015833333,-0.014166667,1,0,0,0.6318,rock_grid_rect_2,4,05,-1,-1,0.632,-0.395833333,-0.263333333,1,0,0,11.0523,Andesite_rect,1,11.052,0,10,0,10,0,1,,,,,,,,,,,,,
5df15bc3361a8506b94f79ed,TCN,2024-06-25_11h44.57.609,LearnStrategy,2023.2.3,Win32,59.88023952,2,1,12,0.0675,-0.005,1,0,0,0.8873,rock_grid_rect_2,6,15,-1,-1,0.887,0.0625,-0.241666667,1,0,0,5.736,Diorite_rect,3,5.736,0,11,0,11,0,1,,,,,,,,,,,,,
5df15bc3361a8506b94f79ed,TCN,2024-06-25_11h44.57.609,LearnStrategy,2023.2.3,Win32,59.88023952,2,1,13,0.0475,-0.005,1,0,0,0.7039,rock_grid_rect_2,7,05,-1,-1,0.704,0.0825,-0.395833333,1,0,0,20.5842,Peridotite_rect,7,20.584,1,12,0,12,0,1,,,,,,,,,,,,,
5df15bc3361a8506b94f79ed,TCN,2024-06-25_11h44.57.609,LearnStrategy,2023.2.3,Win32,59.88023952,2,1,14,0.0125,-0.0125,1,0,0,1.066,rock_grid_rect_2,2,08,-1,-1,1.066,-0.14,-0.238333333,1,0,0,2.1438,Basalt_rect,2,2.144,1,13,0,13,0,1,,,,,,,,,,,,,
5df15bc3361a8506b94f79ed,TCN,2024-06-25_11h44.57.609,LearnStrategy,2023.2.3,Win32,59.88023952,2,1,15,0.0275,0.0025,1,0,0,0.6657,rock_grid_rect_2,2,16,-1,-1,0.666,-0.0725,-0.271666667,1,0,0,1.9346,Basalt_rect,2,1.935,1,14,0,14,0,1,,,,,,,,,,,,,
5df15bc3361a8506b94f79ed,TCN,2024-06-25_11h44.57.609,LearnStrategy,2023.2.3,Win32,59.88023952,2,1,16,0,-0.011666667,1,0,0,0.715,rock_grid_rect_2,1,11,-1,-1,0.715,0.42,-0.2375,1,0,0,15.3062,Gabbro_rect,4,15.306,0,15,0,15,0,1,,,,,,,,,,,,,
5df15bc3361a8506b94f79ed,TCN,2024-06-25_11h44.57.609,LearnStrategy,2023.2.3,Win32,59.88023952,2,2,1,,,,,,,,6,05,,,,,,,,,,,6,38.507,1,,,,,,-0.100833333,-0.418333333,1,0,0,38.5068,Pegmatite_rect,0,0,0,0,1,
5df15bc3361a8506b94f79ed,TCN,2024-06-25_11h44.57.609,LearnStrategy,2023.2.3,Win32,59.88023952,2,2,2,,,,,,,,7,15,,,,,,,,,,,7,14.289,1,,,,,,0.196666667,-0.42,1,0,0,14.2886,Peridotite_rect,1,0,1,0,1,
5df15bc3361a8506b94f79ed,TCN,2024-06-25_11h44.57.609,LearnStrategy,2023.2.3,Win32,59.88023952,2,2,3,,,,,,,,8,16,,,,,,,,,,,8,1.411,1,,,,,,0.4425,-0.403333333,1,0,0,1.4111,Pumice_rect,2,0,2,0,1,
5df15bc3361a8506b94f79ed,TCN,2024-06-25_11h44.57.609,LearnStrategy,2023.2.3,Win32,59.88023952,2,2,4,,,,,,,,4,03,,,,,,,,,,,3,5.45,0,,,,,,0.145833333,-0.2625,1,0,0,5.4501,Diorite_rect,3,0,3,0,1,
5df15bc3361a8506b94f79ed,TCN,2024-06-25_11h44.57.609,LearnStrategy,2023.2.3,Win32,59.88023952,2,2,5,,,,,,,,5,12,,,,,,,,,,,5,1.162,1,,,,,,-0.423333333,-0.4025,1,0,0,1.1624,Obsidian_rect,4,0,4,0,1,
5df15bc3361a8506b94f79ed,TCN,2024-06-25_11h44.57.609,LearnStrategy,2023.2.3,Win32,59.88023952,2,2,6,,,,,,,,2,04,,,,,,,,,,,2,1.243,1,,,,,,-0.088333333,-0.255,1,0,0,1.2426,Basalt_rect,5,0,5,0,1,
5df15bc3361a8506b94f79ed,TCN,2024-06-25_11h44.57.609,LearnStrategy,2023.2.3,Win32,59.88023952,2,2,7,,,,,,,,1,09,,,,,,,,,,,1,7.418,1,,,,,,-0.45,-0.228333333,1,0,0,7.4182,Andesite_rect,6,0,6,0,1,
5df15bc3361a8506b94f79ed,TCN,2024-06-25_11h44.57.609,LearnStrategy,2023.2.3,Win32,59.88023952,2,2,8,,,,,,,,1,03,,,,,,,,,,,1,2.652,1,,,,,,-0.359166667,-0.233333333,1,0,0,2.6522,Andesite_rect,7,0,7,0,1,
5df15bc3361a8506b94f79ed,TCN,2024-06-25_11h44.57.609,LearnStrategy,2023.2.3,Win32,59.88023952,2,2,9,,,,,,,,6,03,,,,,,,,,,,6,5.875,1,,,,,,-0.083333333,-0.394166667,1,0,0,5.8751,Pegmatite_rect,8,0,8,0,1,
5df15bc3361a8506b94f79ed,TCN,2024-06-25_11h44.57.609,LearnStrategy,2023.2.3,Win32,59.88023952,2,2,10,,,,,,,,3,09,,,,,,,,,,,3,6.532,1,,,,,,0.085833333,-0.245,1,0,0,6.5315,Diorite_rect,9,0,9,0,1,
5df15bc3361a8506b94f79ed,TCN,2024-06-25_11h44.57.609,LearnStrategy,2023.2.3,Win32,59.88023952,2,2,11,,,,,,,,7,04,,,,,,,,,,,3,1.812,0,,,,,,0.075833333,-0.239166667,1,0,0,1.8123,Diorite_rect,10,0,10,0,1,
5df15bc3361a8506b94f79ed,TCN,2024-06-25_11h44.57.609,LearnStrategy,2023.2.3,Win32,59.88023952,2,2,12,,,,,,,,3,06,,,,,,,,,,,3,1.863,1,,,,,,0.075833333,-0.239166667,1,0,0,1.8635,Diorite_rect,11,0,11,0,1,
5df15bc3361a8506b94f79ed,TCN,2024-06-25_11h44.57.609,LearnStrategy,2023.2.3,Win32,59.88023952,2,2,13,,,,,,,,8,10,,,,,,,,,,,8,1.522,1,,,,,,0.323333333,-0.388333333,1,0,0,1.5221,Pumice_rect,12,0,12,0,1,
5df15bc3361a8506b94f79ed,TCN,2024-06-25_11h44.57.609,LearnStrategy,2023.2.3,Win32,59.88023952,2,2,14,,,,,,,,2,09,,,,,,,,,,,2,1.262,1,,,,,,-0.184166667,-0.250833333,1,0,0,1.2622,Basalt_rect,13,0,13,0,1,
5df15bc3361a8506b94f79ed,TCN,2024-06-25_11h44.57.609,LearnStrategy,2023.2.3,Win32,59.88023952,2,2,15,,,,,,,,5,06,,,,,,,,,,,5,1.106,1,,,,,,-0.371666667,-0.406666667,1,0,0,1.1057,Obsidian_rect,14,0,14,0,1,
5df15bc3361a8506b94f79ed,TCN,2024-06-25_11h44.57.609,LearnStrategy,2023.2.3,Win32,59.88023952,2,2,16,,,,,,,,4,11,,,,,,,,,,,2,1.138,0,,,,,,-0.126666667,-0.244166667,1,0,0,1.1384,Basalt_rect,15,0,15,0,1,
5df15bc3361a8506b94f79ed,TCN,2024-06-25_11h44.57.609,LearnStrategy,2023.2.3,Win32,59.88023952,3,1,1,0.003333333,-0.01,1,0,0,1.6331,rock_grid_rect_2,3,02,-1,-1,1.633,0.0675,-0.250833333,1,0,0,10.5913,Diorite_rect,3,10.591,1,0,0,0,0,1,,,,,,,,,,,,,
5df15bc3361a8506b94f79ed,TCN,2024-06-25_11h44.57.609,LearnStrategy,2023.2.3,Win32,59.88023952,3,1,2,0.044166667,0,1,0,0,0.8486,rock_grid_rect_2,2,11,-1,-1,0.849,-0.0925,-0.2375,1,0,0,2.7423,Basalt_rect,2,2.742,1,1,0,1,0,1,,,,,,,,,,,,,
5df15bc3361a8506b94f79ed,TCN,2024-06-25_11h44.57.609,LearnStrategy,2023.2.3,Win32,59.88023952,3,1,3,0.016666667,-0.010833333,1,0,0,0.7655,rock_grid_rect_2,8,13,-1,-1,0.765,-0.160833333,-0.2375,1,0,0,6.197,Basalt_rect,2,6.197,0,2,0,2,0,1,,,,,,,,,,,,,
5df15bc3361a8506b94f79ed,TCN,2024-06-25_11h44.57.609,LearnStrategy,2023.2.3,Win32,59.88023952,3,1,4,-0.0125,0.005,1,0,0,1.0504,rock_grid_rect_2,8,09,-1,-1,1.05,0.384166667,-0.393333333,1,0,0,1.2949,Pumice_rect,8,1.295,1,3,0,3,0,1,,,,,,,,,,,,,
5df15bc3361a8506b94f79ed,TCN,2024-06-25_11h44.57.609,LearnStrategy,2023.2.3,Win32,59.88023952,3,1,5,-0.0025,0.001666667,1,0,0,0.7827,rock_grid_rect_2,6,08,-1,-1,0.783,0.133333333,-0.265,1,0,0,6.3087,Diorite_rect,3,6.309,0,4,0,4,0,1,,,,,,,,,,,,,
5df15bc3361a8506b94f79ed,TCN,2024-06-25_11h44.57.609,LearnStrategy,2023.2.3,Win32,59.88023952,3,1,6,-0.02,-0.005833333,1,0,0,0.7539,rock_grid_rect_2,4,12,-1,-1,0.754,-0.133333333,-0.244166667,1,0,0,2.3469,Basalt_rect,2,2.347,0,5,0,5,0,1,,,,,,,,,,,,,
5df15bc3361a8506b94f79ed,TCN,2024-06-25_11h44.57.609,LearnStrategy,2023.2.3,Win32,59.88023952,3,1,7,-0.0175,-0.01,1,0,0,0.6157,rock_grid_rect_2,4,15,-1,-1,0.616,0.319166667,-0.241666667,1,0,0,6.8336,Gabbro_rect,4,6.834,1,6,0,6,0,1,,,,,,,,,,,,,
5df15bc3361a8506b94f79ed,TCN,2024-06-25_11h44.57.609,LearnStrategy,2023.2.3,Win32,59.88023952,3,1,8,0.045833333,-0.0175,1,0,0,1.0157,rock_grid_rect_2,7,16,-1,-1,1.016,-0.0625,-0.41,1,0,0,2.6578,Pegmatite_rect,6,2.658,0,7,0,7,0,1,,,,,,,,,,,,,
5df15bc3361a8506b94f79ed,TCN,2024-06-25_11h44.57.609,LearnStrategy,2023.2.3,Win32,59.88023952,3,1,9,-0.0025,-0.015833333,1,0,0,1.5015,rock_grid_rect_2,6,13,-1,-1,1.502,0.1225,-0.391666667,1,0,0,1.5328,Peridotite_rect,7,1.533,0,8,0,8,0,1,,,,,,,,,,,,,
5df15bc3361a8506b94f79ed,TCN,2024-06-25_11h44.57.609,LearnStrategy,2023.2.3,Win32,59.88023952,3,1,10,0.0525,0.0025,1,0,0,0.753,rock_grid_rect_2,7,06,-1,-1,0.753,0.0475,-0.4075,1,0,0,1.7312,Peridotite_rect,7,1.731,1,9,0,9,0,1,,,,,,,,,,,,,
5df15bc3361a8506b94f79ed,TCN,2024-06-25_11h44.57.609,LearnStrategy,2023.2.3,Win32,59.88023952,3,1,11,0.051666667,0.013333333,1,0,0,0.7652,rock_grid_rect_2,5,10,-1,-1,0.765,-0.389166667,-0.410833333,1,0,0,1.2013,Obsidian_rect,5,1.201,1,10,0,10,0,1,,,,,,,,,,,,,
5df15bc3361a8506b94f79ed,TCN,2024-06-25_11h44.57.609,LearnStrategy,2023.2.3,Win32,59.88023952,3,1,12,-0.021666667,0.0075,1,0,0,0.6153,rock_grid_rect_2,1,05,-1,-1,0.615,-0.353333333,-0.243333333,1,0,0,2.4527,Andesite_rect,1,2.453,1,11,0,11,0,1,,,,,,,,,,,,,
5df15bc3361a8506b94f79ed,TCN,2024-06-25_11h44.57.609,LearnStrategy,2023.2.3,Win32,59.88023952,3,1,13,0.0075,0.004166667,1,0,0,0.9637,rock_grid_rect_2,1,10,-1,-1,0.964,-0.174166667,-0.2425,1,0,0,3.8968,Basalt_rect,2,3.897,0,12,0,12,0,1,,,,,,,,,,,,,
5df15bc3361a8506b94f79ed,TCN,2024-06-25_11h44.57.609,LearnStrategy,2023.2.3,Win32,59.88023952,3,1,14,-0.083333333,0.018333333,1,0,0,1.1485,rock_grid_rect_2,5,02,-1,-1,1.149,-0.356666667,-0.39,1,0,0,1.2132,Obsidian_rect,5,1.213,1,13,0,13,0,1,,,,,,,,,,,,,
5df15bc3361a8506b94f79ed,TCN,2024-06-25_11h44.57.609,LearnStrategy,2023.2.3,Win32,59.88023952,3,1,15,0.055833333,0.020833333,1,0,0,0.8992,rock_grid_rect_2,2,06,-1,-1,0.899,-0.08,-0.248333333,1,0,0,2.2104,Basalt_rect,2,2.21,1,14,0,14,0,1,,,,,,,,,,,,,
5df15bc3361a8506b94f79ed,TCN,2024-06-25_11h44.57.609,LearnStrategy,2023.2.3,Win32,59.88023952,3,1,16,-0.0075,-0.0125,1,0,0,0.5985,rock_grid_rect_2,3,16,-1,-1,0.599,0.0975,-0.2575,1,0,0,3.0812,Diorite_rect,3,3.081,1,15,0,15,0,1,,,,,,,,,,,,,
5df15bc3361a8506b94f79ed,TCN,2024-06-25_11h44.57.609,LearnStrategy,2023.2.3,Win32,59.88023952,3,2,1,,,,,,,,8,04,,,,,,,,,,,8,1.532,1,,,,,,0.3525,-0.405,1,0,0,1.5316,Pumice_rect,0,0,0,0,1,
5df15bc3361a8506b94f79ed,TCN,2024-06-25_11h44.57.609,LearnStrategy,2023.2.3,Win32,59.88023952,3,2,2,,,,,,,,7,14,,,,,,,,,,,7,5.392,1,,,,,,0.100833333,-0.403333333,1,0,0,5.3916,Peridotite_rect,1,0,1,0,1,
5df15bc3361a8506b94f79ed,TCN,2024-06-25_11h44.57.609,LearnStrategy,2023.2.3,Win32,59.88023952,3,2,3,,,,,,,,2,12,,,,,,,,,,,8,2.56,0,,,,,,0.379166667,-0.395,1,0,0,2.5603,Pumice_rect,2,0,2,0,1,
5df15bc3361a8506b94f79ed,TCN,2024-06-25_11h44.57.609,LearnStrategy,2023.2.3,Win32,59.88023952,3,2,4,,,,,,,,4,13,,,,,,,,,,,4,2.966,1,,,,,,0.338333333,-0.253333333,1,0,0,2.9663,Gabbro_rect,3,0,3,0,1,
5df15bc3361a8506b94f79ed,TCN,2024-06-25_11h44.57.609,LearnStrategy,2023.2.3,Win32,59.88023952,3,2,5,,,,,,,,6,06,,,,,,,,,,,6,1.99,1,,,,,,-0.12,-0.39,1,0,0,1.9903,Pegmatite_rect,4,0,4,0,1,
5df15bc3361a8506b94f79ed,TCN,2024-06-25_11h44.57.609,LearnStrategy,2023.2.3,Win32,59.88023952,3,2,6,,,,,,,,3,14,,,,,,,,,,,7,4.862,0,,,,,,0.053333333,-0.399166667,1,0,0,4.8618,Peridotite_rect,5,0,5,0,1,
5df15bc3361a8506b94f79ed,TCN,2024-06-25_11h44.57.609,LearnStrategy,2023.2.3,Win32,59.88023952,3,2,7,,,,,,,,3,12,,,,,,,,,,,7,0.957,0,,,,,,0.060833333,-0.415,1,0,0,0.9571,Peridotite_rect,6,0,6,0,1,
5df15bc3361a8506b94f79ed,TCN,2024-06-25_11h44.57.609,LearnStrategy,2023.2.3,Win32,59.88023952,3,2,8,,,,,,,,2,14,,,,,,,,,,,8,4.521,0,,,,,,0.3875,-0.404166667,1,0,0,4.5207,Pumice_rect,7,0,7,0,1,
5df15bc3361a8506b94f79ed,TCN,2024-06-25_11h44.57.609,LearnStrategy,2023.2.3,Win32,59.88023952,3,2,9,,,,,,,,5,14,,,,,,,,,,,5,1.144,1,,,,,,-0.38,-0.378333333,1,0,0,1.1438,Obsidian_rect,8,0,8,0,1,
5df15bc3361a8506b94f79ed,TCN,2024-06-25_11h44.57.609,LearnStrategy,2023.2.3,Win32,59.88023952,3,2,10,,,,,,,,7,13,,,,,,,,,,,7,9.163,1,,,,,,0.089166667,-0.4125,1,0,0,9.1632,Peridotite_rect,9,0,9,0,1,
5df15bc3361a8506b94f79ed,TCN,2024-06-25_11h44.57.609,LearnStrategy,2023.2.3,Win32,59.88023952,3,2,11,,,,,,,,8,08,,,,,,,,,,,8,1.967,1,,,,,,0.376666667,-0.3975,1,0,0,1.9669,Pumice_rect,10,0,10,0,1,
5df15bc3361a8506b94f79ed,TCN,2024-06-25_11h44.57.609,LearnStrategy,2023.2.3,Win32,59.88023952,3,2,12,,,,,,,,5,09,,,,,,,,,,,5,0.949,1,,,,,,-0.3375,-0.410833333,1,0,0,0.9495,Obsidian_rect,11,0,11,0,1,
5df15bc3361a8506b94f79ed,TCN,2024-06-25_11h44.57.609,LearnStrategy,2023.2.3,Win32,59.88023952,3,2,13,,,,,,,,1,16,,,,,,,,,,,4,8.404,0,,,,,,0.383333333,-0.245,1,0,0,8.4036,Gabbro_rect,12,0,12,0,1,
5df15bc3361a8506b94f79ed,TCN,2024-06-25_11h44.57.609,LearnStrategy,2023.2.3,Win32,59.88023952,3,2,14,,,,,,,,4,09,,,,,,,,,,,5,1.338,0,,,,,,-0.379166667,-0.398333333,1,0,0,1.3375,Obsidian_rect,13,0,13,0,1,
5df15bc3361a8506b94f79ed,TCN,2024-06-25_11h44.57.609,LearnStrategy,2023.2.3,Win32,59.88023952,3,2,15,,,,,,,,1,04,,,,,,,,,,,6,8.853,0,,,,,,-0.1075,-0.408333333,1,0,0,8.8527,Pegmatite_rect,14,0,14,0,1,
5df15bc3361a8506b94f79ed,TCN,2024-06-25_11h44.57.609,LearnStrategy,2023.2.3,Win32,59.88023952,3,2,16,,,,,,,,6,09,,,,,,,,,,,6,7.978,1,,,,,,-0.175,-0.390833333,1,0,0,7.9785,Pegmatite_rect,15,0,15,0,1,
5df15bc3361a8506b94f79ed,TCN,2024-06-25_11h44.57.609,LearnStrategy,2023.2.3,Win32,59.88023952,4,1,1,0.044166667,0.000833333,1,0,0,1.4313,rock_grid_rect_2,2,06,-1,-1,1.431,-0.086666667,-0.2475,1,0,0,3.0324,Basalt_rect,2,3.032,1,0,0,0,0,1,,,,,,,,,,,,,
5df15bc3361a8506b94f79ed,TCN,2024-06-25_11h44.57.609,LearnStrategy,2023.2.3,Win32,59.88023952,4,1,2,0.016666667,0.014166667,1,0,0,0.9825,rock_grid_rect_2,3,08,-1,-1,0.983,0.185,-0.249166667,1,0,0,7.7243,Diorite_rect,3,7.724,1,1,0,1,0,1,,,,,,,,,,,,,
5df15bc3361a8506b94f79ed,TCN,2024-06-25_11h44.57.609,LearnStrategy,2023.2.3,Win32,59.88023952,4,1,3,0.063333333,-0.005833333,1,0,0,1.0652,rock_grid_rect_2,1,01,-1,-1,1.065,-0.406666667,-0.254166667,1,0,0,5.8907,Andesite_rect,1,5.891,1,2,0,2,0,1,,,,,,,,,,,,,
5df15bc3361a8506b94f79ed,TCN,2024-06-25_11h44.57.609,LearnStrategy,2023.2.3,Win32,59.88023952,4,1,4,0.024166667,-0.015833333,1,0,0,0.8848,rock_grid_rect_2,7,05,-1,-1,0.885,0.114166667,-0.393333333,1,0,0,2.1833,Peridotite_rect,7,2.183,1,3,0,3,0,1,,,,,,,,,,,,,
5df15bc3361a8506b94f79ed,TCN,2024-06-25_11h44.57.609,LearnStrategy,2023.2.3,Win32,59.88023952,4,1,5,-0.025,-0.004166667,1,0,0,0.6472,rock_grid_rect_2,5,08,-1,-1,0.647,-0.3675,-0.414166667,1,0,0,1.0133,Obsidian_rect,5,1.013,1,4,0,4,0,1,,,,,,,,,,,,,
5df15bc3361a8506b94f79ed,TCN,2024-06-25_11h44.57.609,LearnStrategy,2023.2.3,Win32,59.88023952,4,1,6,0.003333333,-0.000833333,1,0,0,0.6495,rock_grid_rect_2,4,01,-1,-1,0.649,0.335833333,-0.238333333,1,0,0,6.8759,Gabbro_rect,4,6.876,1,5,0,5,0,1,,,,,,,,,,,,,
5df15bc3361a8506b94f79ed,TCN,2024-06-25_11h44.57.609,LearnStrategy,2023.2.3,Win32,59.88023952,4,1,7,0.0675,-0.01,1,0,0,0.8495,rock_grid_rect_2,7,02,-1,-1,0.85,0.1475,-0.409166667,1,0,0,1.5095,Peridotite_rect,7,1.509,1,6,0,6,0,1,,,,,,,,,,,,,
5df15bc3361a8506b94f79ed,TCN,2024-06-25_11h44.57.609,LearnStrategy,2023.2.3,Win32,59.88023952,4,1,8,0.014166667,-0.008333333,1,0,0,0.6516,rock_grid_rect_2,8,09,-1,-1,0.652,0.380833333,-0.396666667,1,0,0,1.1423,Pumice_rect,8,1.142,1,7,0,7,0,1,,,,,,,,,,,,,
5df15bc3361a8506b94f79ed,TCN,2024-06-25_11h44.57.609,LearnStrategy,2023.2.3,Win32,59.88023952,4,1,9,-0.024166667,-0.0225,1,0,0,0.5981,rock_grid_rect_2,6,08,-1,-1,0.598,-0.11,-0.41,1,0,0,5.7323,Pegmatite_rect,6,5.732,1,8,0,8,0,1,,,,,,,,,,,,,
5df15bc3361a8506b94f79ed,TCN,2024-06-25_11h44.57.609,LearnStrategy,2023.2.3,Win32,59.88023952,4,1,10,0.005833333,-0.010833333,1,0,0,0.7972,rock_grid_rect_2,8,02,-1,-1,0.797,0.401666667,-0.400833333,1,0,0,1.0312,Pumice_rect,8,1.031,1,9,0,9,0,1,,,,,,,,,,,,,
5df15bc3361a8506b94f79ed,TCN,2024-06-25_11h44.57.609,LearnStrategy,2023.2.3,Win32,59.88023952,4,1,11,-0.010833333,-0.02,1,0,0,0.5822,rock_grid_rect_2,4,12,-1,-1,0.582,-0.14,-0.231666667,1,0,0,1.1293,Basalt_rect,2,1.129,0,10,0,10,0,1,,,,,,,,,,,,,
5df15bc3361a8506b94f79ed,TCN,2024-06-25_11h44.57.609,LearnStrategy,2023.2.3,Win32,59.88023952,4,1,12,0.050833333,-0.014166667,1,0,0,0.6874,rock_grid_rect_2,6,10,-1,-1,0.687,-0.1375,-0.396666667,1,0,0,5.1832,Pegmatite_rect,6,5.183,1,11,0,11,0,1,,,,,,,,,,,,,
5df15bc3361a8506b94f79ed,TCN,2024-06-25_11h44.57.609,LearnStrategy,2023.2.3,Win32,59.88023952,4,1,13,-0.023333333,-0.006666667,1,0,0,0.6477,rock_grid_rect_2,3,10,-1,-1,0.648,0.155833333,-0.23,1,0,0,6.3511,Diorite_rect,3,6.351,1,12,0,12,0,1,,,,,,,,,,,,,
5df15bc3361a8506b94f79ed,TCN,2024-06-25_11h44.57.609,LearnStrategy,2023.2.3,Win32,59.88023952,4,1,14,0.041666667,-0.004166667,1,0,0,0.7818,rock_grid_rect_2,2,16,-1,-1,0.782,-0.084166667,-0.2525,1,0,0,1.9725,Basalt_rect,2,1.972,1,13,0,13,0,1,,,,,,,,,,,,,
5df15bc3361a8506b94f79ed,TCN,2024-06-25_11h44.57.609,LearnStrategy,2023.2.3,Win32,59.88023952,4,1,15,0.001666667,0.0125,1,0,0,0.5655,rock_grid_rect_2,1,11,-1,-1,0.566,-0.355833333,-0.259166667,1,0,0,10.9748,Andesite_rect,1,10.975,1,14,0,14,0,1,,,,,,,,,,,,,
5df15bc3361a8506b94f79ed,TCN,2024-06-25_11h44.57.609,LearnStrategy,2023.2.3,Win32,59.88023952,4,1,16,0.02,0.001666667,1,0,0,0.7814,rock_grid_rect_2,5,16,-1,-1,0.781,-0.354166667,-0.401666667,1,0,0,1.6764,Obsidian_rect,5,1.676,1,15,0,15,0,1,,,,,,,,,,,,,
5df15bc3361a8506b94f79ed,TCN,2024-06-25_11h44.57.609,LearnStrategy,2023.2.3,Win32,59.88023952,4,2,1,,,,,,,,8,10,,,,,,,,,,,8,1.257,1,,,,,,0.410833333,-0.385833333,1,0,0,1.2571,Pumice_rect,0,0,0,0,1,
5df15bc3361a8506b94f79ed,TCN,2024-06-25_11h44.57.609,LearnStrategy,2023.2.3,Win32,59.88023952,4,2,2,,,,,,,,1,02,,,,,,,,,,,3,12.62,0,,,,,,0.0975,-0.2375,1,0,0,12.62,Diorite_rect,1,0,1,0,1,
5df15bc3361a8506b94f79ed,TCN,2024-06-25_11h44.57.609,LearnStrategy,2023.2.3,Win32,59.88023952,4,2,3,,,,,,,,7,10,,,,,,,,,,,7,1.32,1,,,,,,0.105,-0.4,1,0,0,1.3199,Peridotite_rect,2,0,2,0,1,
5df15bc3361a8506b94f79ed,TCN,2024-06-25_11h44.57.609,LearnStrategy,2023.2.3,Win32,59.88023952,4,2,4,,,,,,,,5,12,,,,,,,,,,,5,0.954,1,,,,,,-0.395,-0.393333333,1,0,0,0.9538,Obsidian_rect,3,0,3,0,1,
5df15bc3361a8506b94f79ed,TCN,2024-06-25_11h44.57.609,LearnStrategy,2023.2.3,Win32,59.88023952,4,2,5,,,,,,,,6,03,,,,,,,,,,,6,3.189,1,,,,,,-0.135,-0.404166667,1,0,0,3.1888,Pegmatite_rect,4,0,4,0,1,
5df15bc3361a8506b94f79ed,TCN,2024-06-25_11h44.57.609,LearnStrategy,2023.2.3,Win32,59.88023952,4,2,6,,,,,,,,6,05,,,,,,,,,,,3,6.478,0,,,,,,0.1175,-0.261666667,1,0,0,6.4779,Diorite_rect,5,0,5,0,1,
5df15bc3361a8506b94f79ed,TCN,2024-06-25_11h44.57.609,LearnStrategy,2023.2.3,Win32,59.88023952,4,2,7,,,,,,,,3,12,,,,,,,,,,,3,2.378,1,,,,,,0.116666667,-0.261666667,1,0,0,2.3782,Diorite_rect,6,0,6,0,1,
5df15bc3361a8506b94f79ed,TCN,2024-06-25_11h44.57.609,LearnStrategy,2023.2.3,Win32,59.88023952,4,2,8,,,,,,,,4,03,,,,,,,,,,,4,1.526,1,,,,,,0.321666667,-0.240833333,1,0,0,1.5258,Gabbro_rect,7,0,7,0,1,
5df15bc3361a8506b94f79ed,TCN,2024-06-25_11h44.57.609,LearnStrategy,2023.2.3,Win32,59.88023952,4,2,9,,,,,,,,7,15,,,,,,,,,,,7,1.056,1,,,,,,0.125833333,-0.405833333,1,0,0,1.0564,Peridotite_rect,8,0,8,0,1,
5df15bc3361a8506b94f79ed,TCN,2024-06-25_11h44.57.609,LearnStrategy,2023.2.3,Win32,59.88023952,4,2,10,,,,,,,,5,06,,,,,,,,,,,5,1.121,1,,,,,,-0.41,-0.395,1,0,0,1.1214,Obsidian_rect,9,0,9,0,1,
5df15bc3361a8506b94f79ed,TCN,2024-06-25_11h44.57.609,LearnStrategy,2023.2.3,Win32,59.88023952,4,2,11,,,,,,,,1,09,,,,,,,,,,,1,5.423,1,,,,,,-0.381666667,-0.2425,1,0,0,5.4228,Andesite_rect,10,0,10,0,1,
5df15bc3361a8506b94f79ed,TCN,2024-06-25_11h44.57.609,LearnStrategy,2023.2.3,Win32,59.88023952,4,2,12,,,,,,,,2,02,,,,,,,,,,,2,1.115,1,,,,,,-0.1,-0.249166667,1,0,0,1.1149,Basalt_rect,11,0,11,0,1,
5df15bc3361a8506b94f79ed,TCN,2024-06-25_11h44.57.609,LearnStrategy,2023.2.3,Win32,59.88023952,4,2,13,,,,,,,,4,09,,,,,,,,,,,5,1.196,0,,,,,,-0.3475,-0.395,1,0,0,1.1962,Obsidian_rect,12,0,12,0,1,
5df15bc3361a8506b94f79ed,TCN,2024-06-25_11h44.57.609,LearnStrategy,2023.2.3,Win32,59.88023952,4,2,14,,,,,,,,8,05,,,,,,,,,,,8,1.047,1,,,,,,0.458333333,-0.4,1,0,0,1.0475,Pumice_rect,13,0,13,0,1,
5df15bc3361a8506b94f79ed,TCN,2024-06-25_11h44.57.609,LearnStrategy,2023.2.3,Win32,59.88023952,4,2,15,,,,,,,,3,09,,,,,,,,,,,3,3.752,1,,,,,,0.160833333,-0.2575,1,0,0,3.752,Diorite_rect,14,0,14,0,1,
5df15bc3361a8506b94f79ed,TCN,2024-06-25_11h44.57.609,LearnStrategy,2023.2.3,Win32,59.88023952,4,2,16,,,,,,,,2,09,,,,,,,,,,,2,1.043,1,,,,,,-0.07,-0.263333333,1,0,0,1.043,Basalt_rect,15,0,15,0,1,
5df15bc3361a8506b94f79ed,TCN,2024-06-25_11h44.57.609,LearnStrategy,2023.2.3,Win32,59.88023952,5,1,1,-0.021666667,0.005,1,0,0,0.7822,rock_grid_rect_2,5,05,-1,-1,0.782,-0.441666667,-0.394166667,1,0,0,1.4029,Obsidian_rect,5,1.403,1,0,0,0,0,1,,,,,,,,,,,,,
5df15bc3361a8506b94f79ed,TCN,2024-06-25_11h44.57.609,LearnStrategy,2023.2.3,Win32,59.88023952,5,1,2,0.048333333,-0.0175,1,0,0,1.0362,rock_grid_rect_2,8,03,-1,-1,1.036,0.415833333,-0.389166667,1,0,0,1.021,Pumice_rect,8,1.021,1,1,0,1,0,1,,,,,,,,,,,,,
5df15bc3361a8506b94f79ed,TCN,2024-06-25_11h44.57.609,LearnStrategy,2023.2.3,Win32,59.88023952,5,1,3,-0.0275,-0.016666667,1,0,0,0.7321,rock_grid_rect_2,8,15,-1,-1,0.732,0.3725,-0.396666667,1,0,0,5.122,Pumice_rect,8,5.122,1,2,0,2,0,1,,,,,,,,,,,,,
5df15bc3361a8506b94f79ed,TCN,2024-06-25_11h44.57.609,LearnStrategy,2023.2.3,Win32,59.88023952,5,1,4,0.015833333,-0.015833333,1,0,0,0.7487,rock_grid_rect_2,2,11,-1,-1,0.749,0.378333333,-0.3975,1,0,0,7.4109,Pumice_rect,8,7.411,0,3,0,3,0,1,,,,,,,,,,,,,
5df15bc3361a8506b94f79ed,TCN,2024-06-25_11h44.57.609,LearnStrategy,2023.2.3,Win32,59.88023952,5,1,5,-0.005833333,0.005,1,0,0,1.0744,rock_grid_rect_2,1,14,-1,-1,1.074,0.374166667,-0.236666667,1,0,0,22.5014,Gabbro_rect,4,22.501,0,4,0,4,0,1,,,,,,,,,,,,,
5df15bc3361a8506b94f79ed,TCN,2024-06-25_11h44.57.609,LearnStrategy,2023.2.3,Win32,59.88023952,5,1,6,-0.018333333,-0.005,1,0,0,0.7712,rock_grid_rect_2,7,16,-1,-1,0.771,-0.174166667,-0.401666667,1,0,0,14.5653,Pegmatite_rect,6,14.565,0,5,0,5,0,1,,,,,,,,,,,,,
5df15bc3361a8506b94f79ed,TCN,2024-06-25_11h44.57.609,LearnStrategy,2023.2.3,Win32,59.88023952,5,1,7,0.1025,-0.021666667,1,0,0,0.8867,rock_grid_rect_2,3,07,-1,-1,0.887,0.11,-0.233333333,1,0,0,3.1615,Diorite_rect,3,3.161,1,6,0,6,0,1,,,,,,,,,,,,,
5df15bc3361a8506b94f79ed,TCN,2024-06-25_11h44.57.609,LearnStrategy,2023.2.3,Win32,59.88023952,5,1,8,0.000833333,-0.001666667,1,0,0,0.7982,rock_grid_rect_2,1,05,-1,-1,0.798,-0.363333333,-0.230833333,1,0,0,12.4909,Andesite_rect,1,12.491,1,7,0,7,0,1,,,,,,,,,,,,,
5df15bc3361a8506b94f79ed,TCN,2024-06-25_11h44.57.609,LearnStrategy,2023.2.3,Win32,59.88023952,5,1,9,0.064166667,-0.013333333,1,0,0,0.7146,rock_grid_rect_2,7,08,-1,-1,0.715,0.130833333,-0.395,1,0,0,1.4272,Peridotite_rect,7,1.427,1,8,0,8,0,1,,,,,,,,,,,,,
5df15bc3361a8506b94f79ed,TCN,2024-06-25_11h44.57.609,LearnStrategy,2023.2.3,Win32,59.88023952,5,1,10,0.02,-0.014166667,1,0,0,0.5827,rock_grid_rect_2,3,13,-1,-1,0.583,0.19,-0.258333333,1,0,0,1.535,Diorite_rect,3,1.535,1,9,0,9,0,1,,,,,,,,,,,,,
5df15bc3361a8506b94f79ed,TCN,2024-06-25_11h44.57.609,LearnStrategy,2023.2.3,Win32,59.88023952,5,1,11,0.035,-0.020833333,1,0,0,0.5311,rock_grid_rect_2,2,01,-1,-1,0.531,-0.099166667,-0.246666667,1,0,0,1.3606,Basalt_rect,2,1.361,1,10,0,10,0,1,,,,,,,,,,,,,
5df15bc3361a8506b94f79ed,TCN,2024-06-25_11h44.57.609,LearnStrategy,2023.2.3,Win32,59.88023952,5,1,12,-0.021666667,0.0225,1,0,0,0.532,rock_grid_rect_2,4,15,-1,-1,0.532,-0.374166667,-0.243333333,1,0,0,4.0489,Andesite_rect,1,4.049,0,11,0,11,0,1,,,,,,,,,,,,,
5df15bc3361a8506b94f79ed,TCN,2024-06-25_11h44.57.609,LearnStrategy,2023.2.3,Win32,59.88023952,5,1,13,0.031666667,-0.0075,1,0,0,0.7199,rock_grid_rect_2,4,10,-1,-1,0.72,0.3525,-0.240833333,1,0,0,5.0055,Gabbro_rect,4,5.005,1,12,0,12,0,1,,,,,,,,,,,,,
5df15bc3361a8506b94f79ed,TCN,2024-06-25_11h44.57.609,LearnStrategy,2023.2.3,Win32,59.88023952,5,1,14,0.06,0.001666667,1,0,0,0.6973,rock_grid_rect_2,5,11,-1,-1,0.697,-0.3475,-0.398333333,1,0,0,1.083,Obsidian_rect,5,1.083,1,13,0,13,0,1,,,,,,,,,,,,,
5df15bc3361a8506b94f79ed,TCN,2024-06-25_11h44.57.609,LearnStrategy,2023.2.3,Win32,59.88023952,5,1,15,0.003333333,0.004166667,1,0,0,1.1327,rock_grid_rect_2,6,11,-1,-1,1.133,-0.081666667,-0.385,1,0,0,12.9376,Pegmatite_rect,6,12.938,1,14,0,14,0,1,,,,,,,,,,,,,
5df15bc3361a8506b94f79ed,TCN,2024-06-25_11h44.57.609,LearnStrategy,2023.2.3,Win32,59.88023952,5,1,16,0.008333333,-0.005,1,0,0,0.6653,rock_grid_rect_2,6,15,-1,-1,0.665,-0.1375,-0.405,1,0,0,3.8836,Pegmatite_rect,6,3.884,1,15,0,15,0,1,,,,,,,,,,,,,
5df15bc3361a8506b94f79ed,TCN,2024-06-25_11h44.57.609,LearnStrategy,2023.2.3,Win32,59.88023952,5,2,1,,,,,,,,1,03,,,,,,,,,,,1,19.848,1,,,,,,-0.354166667,-0.241666667,1,0,0,19.848,Andesite_rect,0,0,0,0,1,
5df15bc3361a8506b94f79ed,TCN,2024-06-25_11h44.57.609,LearnStrategy,2023.2.3,Win32,59.88023952,5,2,2,,,,,,,,4,16,,,,,,,,,,,2,4.932,0,,,,,,-0.133333333,-0.251666667,1,0,0,4.932,Basalt_rect,1,0,1,0,1,
5df15bc3361a8506b94f79ed,TCN,2024-06-25_11h44.57.609,LearnStrategy,2023.2.3,Win32,59.88023952,5,2,3,,,,,,,,5,07,,,,,,,,,,,5,1.035,1,,,,,,-0.368333333,-0.394166667,1,0,0,1.0355,Obsidian_rect,2,0,2,0,1,
5df15bc3361a8506b94f79ed,TCN,2024-06-25_11h44.57.609,LearnStrategy,2023.2.3,Win32,59.88023952,5,2,4,,,,,,,,3,14,,,,,,,,,,,3,1.819,1,,,,,,0.1375,-0.24,1,0,0,1.8187,Diorite_rect,3,0,3,0,1,
5df15bc3361a8506b94f79ed,TCN,2024-06-25_11h44.57.609,LearnStrategy,2023.2.3,Win32,59.88023952,5,2,5,,,,,,,,2,14,,,,,,,,,,,8,5.559,0,,,,,,0.345833333,-0.4,1,0,0,5.5594,Pumice_rect,4,0,4,0,1,
5df15bc3361a8506b94f79ed,TCN,2024-06-25_11h44.57.609,LearnStrategy,2023.2.3,Win32,59.88023952,5,2,6,,,,,,,,4,14,,,,,,,,,,,4,9.811,1,,,,,,0.3575,-0.245833333,1,0,0,9.8105,Gabbro_rect,5,0,5,0,1,
5df15bc3361a8506b94f79ed,TCN,2024-06-25_11h44.57.609,LearnStrategy,2023.2.3,Win32,59.88023952,5,2,7,,,,,,,,1,04,,,,,,,,,,,1,2.473,1,,,,,,-0.393333333,-0.233333333,1,0,0,2.473,Andesite_rect,6,0,6,0,1,
5df15bc3361a8506b94f79ed,TCN,2024-06-25_11h44.57.609,LearnStrategy,2023.2.3,Win32,59.88023952,5,2,8,,,,,,,,5,14,,,,,,,,,,,5,0.926,1,,,,,,-0.338333333,-0.396666667,1,0,0,0.9257,Obsidian_rect,7,0,7,0,1,
5df15bc3361a8506b94f79ed,TCN,2024-06-25_11h44.57.609,LearnStrategy,2023.2.3,Win32,59.88023952,5,2,9,,,,,,,,7,07,,,,,,,,,,,7,1.385,1,,,,,,0.078333333,-0.3975,1,0,0,1.3854,Peridotite_rect,8,0,8,0,1,
5df15bc3361a8506b94f79ed,TCN,2024-06-25_11h44.57.609,LearnStrategy,2023.2.3,Win32,59.88023952,5,2,10,,,,,,,,6,07,,,,,,,,,,,6,6.294,1,,,,,,-0.073333333,-0.3875,1,0,0,6.2936,Pegmatite_rect,9,0,9,0,1,
5df15bc3361a8506b94f79ed,TCN,2024-06-25_11h44.57.609,LearnStrategy,2023.2.3,Win32,59.88023952,5,2,11,,,,,,,,8,04,,,,,,,,,,,8,1.031,1,,,,,,0.31,-0.39,1,0,0,1.0309,Pumice_rect,10,0,10,0,1,
5df15bc3361a8506b94f79ed,TCN,2024-06-25_11h44.57.609,LearnStrategy,2023.2.3,Win32,59.88023952,5,2,12,,,,,,,,6,06,,,,,,,,,,,3,3.199,0,,,,,,0.095833333,-0.263333333,1,0,0,3.1993,Diorite_rect,11,0,11,0,1,
5df15bc3361a8506b94f79ed,TCN,2024-06-25_11h44.57.609,LearnStrategy,2023.2.3,Win32,59.88023952,5,2,13,,,,,,,,3,11,,,,,,,,,,,3,0.865,1,,,,,,0.095,-0.263333333,1,0,0,0.8646,Diorite_rect,12,0,12,0,1,
5df15bc3361a8506b94f79ed,TCN,2024-06-25_11h44.57.609,LearnStrategy,2023.2.3,Win32,59.88023952,5,2,14,,,,,,,,8,14,,,,,,,,,,,8,1.011,1,,,,,,0.331666667,-0.386666667,1,0,0,1.0107,Pumice_rect,13,0,13,0,1,
5df15bc3361a8506b94f79ed,TCN,2024-06-25_11h44.57.609,LearnStrategy,2023.2.3,Win32,59.88023952,5,2,15,,,,,,,,7,14,,,,,,,,,,,7,15.143,1,,,,,,0.13,-0.396666667,1,0,0,15.1426,Peridotite_rect,14,0,14,0,1,
5df15bc3361a8506b94f79ed,TCN,2024-06-25_11h44.57.609,LearnStrategy,2023.2.3,Win32,59.88023952,5,2,16,,,,,,,,2,05,,,,,,,,,,,2,1.223,1,,,,,,-0.113333333,-0.259166667,1,0,0,1.223,Basalt_rect,15,0,15,0,1,
5df15bc3361a8506b94f79ed,TCN,2024-06-25_11h44.57.609,LearnStrategy,2023.2.3,Win32,59.88023952,6,1,1,0.05,-0.02,1,0,0,1.3517,rock_grid_rect_2,7,06,-1,-1,1.352,0.071666667,-0.3825,1,0,0,1.3027,Peridotite_rect,7,1.303,1,0,0,0,0,1,,,,,,,,,,,,,
5df15bc3361a8506b94f79ed,TCN,2024-06-25_11h44.57.609,LearnStrategy,2023.2.3,Win32,59.88023952,6,1,2,0.055,-0.021666667,1,0,0,0.7198,rock_grid_rect_2,1,07,-1,-1,0.72,-0.3425,-0.2575,1,0,0,6.3109,Andesite_rect,1,6.311,1,1,0,1,0,1,,,,,,,,,,,,,
5df15bc3361a8506b94f79ed,TCN,2024-06-25_11h44.57.609,LearnStrategy,2023.2.3,Win32,59.88023952,6,1,3,-0.024166667,-0.010833333,1,0,0,0.8697,rock_grid_rect_2,2,10,-1,-1,0.87,-0.161666667,-0.238333333,1,0,0,4.2226,Basalt_rect,2,4.223,1,2,0,2,0,1,,,,,,,,,,,,,
5df15bc3361a8506b94f79ed,TCN,2024-06-25_11h44.57.609,LearnStrategy,2023.2.3,Win32,59.88023952,6,1,4,0.016666667,-0.005833333,1,0,0,0.7822,rock_grid_rect_2,2,08,-1,-1,0.782,-0.118333333,-0.251666667,1,0,0,1.316,Basalt_rect,2,1.316,1,3,0,3,0,1,,,,,,,,,,,,,
5df15bc3361a8506b94f79ed,TCN,2024-06-25_11h44.57.609,LearnStrategy,2023.2.3,Win32,59.88023952,6,1,5,-0.000833333,0.005,1,0,0,0.6651,rock_grid_rect_2,6,16,-1,-1,0.665,-0.144166667,-0.413333333,1,0,0,6.9504,Pegmatite_rect,6,6.95,1,4,0,4,0,1,,,,,,,,,,,,,
5df15bc3361a8506b94f79ed,TCN,2024-06-25_11h44.57.609,LearnStrategy,2023.2.3,Win32,59.88023952,6,1,6,0.0075,-0.006666667,1,0,0,0.7151,rock_grid_rect_2,8,06,-1,-1,0.715,0.410833333,-0.3875,1,0,0,1.1562,Pumice_rect,8,1.156,1,5,0,5,0,1,,,,,,,,,,,,,
5df15bc3361a8506b94f79ed,TCN,2024-06-25_11h44.57.609,LearnStrategy,2023.2.3,Win32,59.88023952,6,1,7,0.028333333,0.024166667,1,0,0,0.6492,rock_grid_rect_2,1,10,-1,-1,0.649,0.455,-0.2575,1,0,0,19.7047,Gabbro_rect,4,19.705,0,6,0,6,0,1,,,,,,,,,,,,,
5df15bc3361a8506b94f79ed,TCN,2024-06-25_11h44.57.609,LearnStrategy,2023.2.3,Win32,59.88023952,6,1,8,0.054166667,-0.009166667,1,0,0,0.9391,rock_grid_rect_2,3,02,-1,-1,0.939,0.103333333,-0.235,1,0,0,1.6898,Diorite_rect,3,1.69,1,7,0,7,0,1,,,,,,,,,,,,,
5df15bc3361a8506b94f79ed,TCN,2024-06-25_11h44.57.609,LearnStrategy,2023.2.3,Win32,59.88023952,6,1,9,0.053333333,-0.006666667,1,0,0,0.5322,rock_grid_rect_2,4,05,-1,-1,0.532,-0.073333333,-0.3975,1,0,0,4.1409,Pegmatite_rect,6,4.141,0,8,0,8,0,1,,,,,,,,,,,,,
5df15bc3361a8506b94f79ed,TCN,2024-06-25_11h44.57.609,LearnStrategy,2023.2.3,Win32,59.88023952,6,1,10,0.101666667,-0.004166667,1,0,0,0.6707,rock_grid_rect_2,5,02,-1,-1,0.671,-0.35,-0.396666667,1,0,0,1.226,Obsidian_rect,5,1.226,1,9,0,9,0,1,,,,,,,,,,,,,
5df15bc3361a8506b94f79ed,TCN,2024-06-25_11h44.57.609,LearnStrategy,2023.2.3,Win32,59.88023952,6,1,11,0.024166667,-0.010833333,1,0,0,0.6655,rock_grid_rect_2,7,12,-1,-1,0.666,0.105,-0.386666667,1,0,0,1.6461,Peridotite_rect,7,1.646,1,10,0,10,0,1,,,,,,,,,,,,,
5df15bc3361a8506b94f79ed,TCN,2024-06-25_11h44.57.609,LearnStrategy,2023.2.3,Win32,59.88023952,6,1,12,0.001666667,-0.005833333,1,0,0,0.5831,rock_grid_rect_2,8,13,-1,-1,0.583,0.335,-0.3875,1,0,0,1.4771,Pumice_rect,8,1.477,1,11,0,11,0,1,,,,,,,,,,,,,
5df15bc3361a8506b94f79ed,TCN,2024-06-25_11h44.57.609,LearnStrategy,2023.2.3,Win32,59.88023952,6,1,13,0.0275,-0.019166667,1,0,0,0.5489,rock_grid_rect_2,6,13,-1,-1,0.549,-0.315,-0.233333333,1,0,0,8.6337,Andesite_rect,1,8.634,0,12,0,12,0,1,,,,,,,,,,,,,
5df15bc3361a8506b94f79ed,TCN,2024-06-25_11h44.57.609,LearnStrategy,2023.2.3,Win32,59.88023952,6,1,14,0.0325,0.000833333,1,0,0,0.6864,rock_grid_rect_2,3,16,-1,-1,0.686,0.131666667,-0.253333333,1,0,0,1.1941,Diorite_rect,3,1.194,1,13,0,13,0,1,,,,,,,,,,,,,
5df15bc3361a8506b94f79ed,TCN,2024-06-25_11h44.57.609,LearnStrategy,2023.2.3,Win32,59.88023952,6,1,15,-0.018333333,-0.003333333,1,0,0,0.5158,rock_grid_rect_2,5,10,-1,-1,0.516,-0.394166667,-0.41,1,0,0,0.9676,Obsidian_rect,5,0.968,1,14,0,14,0,1,,,,,,,,,,,,,
5df15bc3361a8506b94f79ed,TCN,2024-06-25_11h44.57.609,LearnStrategy,2023.2.3,Win32,59.88023952,6,1,16,-0.018333333,0.010833333,1,0,0,0.5155,rock_grid_rect_2,4,08,-1,-1,0.515,-0.12,-0.241666667,1,0,0,12.8002,Basalt_rect,2,12.8,0,15,0,15,0,1,,,,,,,,,,,,,
5df15bc3361a8506b94f79ed,TCN,2024-06-25_11h44.57.609,LearnStrategy,2023.2.3,Win32,59.88023952,6,2,1,,,,,,,,8,16,,,,,,,,,,,8,1.246,1,,,,,,0.349166667,-0.378333333,1,0,0,1.2459,Pumice_rect,0,0,0,0,1,
5df15bc3361a8506b94f79ed,TCN,2024-06-25_11h44.57.609,LearnStrategy,2023.2.3,Win32,59.88023952,6,2,2,,,,,,,,1,16,,,,,,,,,,,4,9.234,0,,,,,,0.423333333,-0.26,1,0,0,9.2337,Gabbro_rect,1,0,1,0,1,
5df15bc3361a8506b94f79ed,TCN,2024-06-25_11h44.57.609,LearnStrategy,2023.2.3,Win32,59.88023952,6,2,3,,,,,,,,3,15,,,,,,,,,,,3,1.677,1,,,,,,0.1825,-0.256666667,1,0,0,1.677,Diorite_rect,2,0,2,0,1,
5df15bc3361a8506b94f79ed,TCN,2024-06-25_11h44.57.609,LearnStrategy,2023.2.3,Win32,59.88023952,6,2,4,,,,,,,,5,09,,,,,,,,,,,5,1.13,1,,,,,,-0.419166667,-0.396666667,1,0,0,1.1297,Obsidian_rect,3,0,3,0,1,
5df15bc3361a8506b94f79ed,TCN,2024-06-25_11h44.57.609,LearnStrategy,2023.2.3,Win32,59.88023952,6,2,5,,,,,,,,2,04,,,,,,,,,,,2,0.965,1,,,,,,-0.120833333,-0.241666667,1,0,0,0.9647,Basalt_rect,4,0,4,0,1,
5df15bc3361a8506b94f79ed,TCN,2024-06-25_11h44.57.609,LearnStrategy,2023.2.3,Win32,59.88023952,6,2,6,,,,,,,,4,11,,,,,,,,,,,2,3.173,0,,,,,,-0.0875,-0.245833333,1,0,0,3.1726,Basalt_rect,5,0,5,0,1,
5df15bc3361a8506b94f79ed,TCN,2024-06-25_11h44.57.609,LearnStrategy,2023.2.3,Win32,59.88023952,6,2,7,,,,,,,,7,04,,,,,,,,,,,3,4.434,0,,,,,,0.065833333,-0.255,1,0,0,4.434,Diorite_rect,6,0,6,0,1,
5df15bc3361a8506b94f79ed,TCN,2024-06-25_11h44.57.609,LearnStrategy,2023.2.3,Win32,59.88023952,6,2,8,,,,,,,,7,13,,,,,,,,,,,7,0.993,1,,,,,,0.088333333,-0.384166667,1,0,0,0.9933,Peridotite_rect,7,0,7,0,1,
5df15bc3361a8506b94f79ed,TCN,2024-06-25_11h44.57.609,LearnStrategy,2023.2.3,Win32,59.88023952,6,2,9,,,,,,,,3,06,,,,,,,,,,,3,0.948,1,,,,,,0.086666667,-0.268333333,1,0,0,0.9484,Diorite_rect,8,0,8,0,1,
5df15bc3361a8506b94f79ed,TCN,2024-06-25_11h44.57.609,LearnStrategy,2023.2.3,Win32,59.88023952,6,2,10,,,,,,,,1,06,,,,,,,,,,,1,4.397,1,,,,,,-0.33,-0.256666667,1,0,0,4.3971,Andesite_rect,9,0,9,0,1,
5df15bc3361a8506b94f79ed,TCN,2024-06-25_11h44.57.609,LearnStrategy,2023.2.3,Win32,59.88023952,6,2,11,,,,,,,,5,04,,,,,,,,,,,5,0.926,1,,,,,,-0.4275,-0.404166667,1,0,0,0.9256,Obsidian_rect,10,0,10,0,1,
5df15bc3361a8506b94f79ed,TCN,2024-06-25_11h44.57.609,LearnStrategy,2023.2.3,Win32,59.88023952,6,2,12,,,,,,,,6,12,,,,,,,,,,,3,10.503,0,,,,,,0.148333333,-0.245833333,1,0,0,10.5029,Diorite_rect,11,0,11,0,1,
5df15bc3361a8506b94f79ed,TCN,2024-06-25_11h44.57.609,LearnStrategy,2023.2.3,Win32,59.88023952,6,2,13,,,,,,,,8,08,,,,,,,,,,,8,1.153,1,,,,,,0.368333333,-0.385,1,0,0,1.1529,Pumice_rect,12,0,12,0,1,
5df15bc3361a8506b94f79ed,TCN,2024-06-25_11h44.57.609,LearnStrategy,2023.2.3,Win32,59.88023952,6,2,14,,,,,,,,2,12,,,,,,,,,,,8,0.985,0,,,,,,0.368333333,-0.3925,1,0,0,0.9851,Pumice_rect,13,0,13,0,1,
5df15bc3361a8506b94f79ed,TCN,2024-06-25_11h44.57.609,LearnStrategy,2023.2.3,Win32,59.88023952,6,2,15,,,,,,,,4,13,,,,,,,,,,,4,8.831,1,,,,,,0.3875,-0.236666667,1,0,0,8.8305,Gabbro_rect,14,0,14,0,1,
5df15bc3361a8506b94f79ed,TCN,2024-06-25_11h44.57.609,LearnStrategy,2023.2.3,Win32,59.88023952,6,2,16,,,,,,,,6,09,,,,,,,,,,,6,4.614,1,,,,,,-0.115833333,-0.408333333,1,0,0,4.6138,Pegmatite_rect,15,0,15,0,1,
5df15bc3361a8506b94f79ed,TCN,2024-06-25_11h44.57.609,LearnStrategy,2023.2.3,Win32,59.88023952,7,1,1,-0.000833333,0.013333333,1,0,0,1.4996,rock_grid_rect_2,3,08,-1,-1,1.5,0.143333333,-0.240833333,1,0,0,1.1093,Diorite_rect,3,1.109,1,0,0,0,0,1,,,,,,,,,,,,,
5df15bc3361a8506b94f79ed,TCN,2024-06-25_11h44.57.609,LearnStrategy,2023.2.3,Win32,59.88023952,7,1,2,0.045833333,-0.010833333,1,0,0,0.783,rock_grid_rect_2,6,13,-1,-1,0.783,-0.0975,-0.401666667,1,0,0,8.793,Pegmatite_rect,6,8.793,1,1,0,1,0,1,,,,,,,,,,,,,
5df15bc3361a8506b94f79ed,TCN,2024-06-25_11h44.57.609,LearnStrategy,2023.2.3,Win32,59.88023952,7,1,3,0.0425,-0.015,1,0,0,0.5974,rock_grid_rect_2,1,01,-1,-1,0.597,-0.37,-0.258333333,1,0,0,6.1486,Andesite_rect,1,6.149,1,2,0,2,0,1,,,,,,,,,,,,,
5df15bc3361a8506b94f79ed,TCN,2024-06-25_11h44.57.609,LearnStrategy,2023.2.3,Win32,59.88023952,7,1,4,-0.026666667,-0.014166667,1,0,0,0.6314,rock_grid_rect_2,1,07,-1,-1,0.631,-0.373333333,-0.236666667,1,0,0,3.0524,Andesite_rect,1,3.052,1,3,0,3,0,1,,,,,,,,,,,,,
5df15bc3361a8506b94f79ed,TCN,2024-06-25_11h44.57.609,LearnStrategy,2023.2.3,Win32,59.88023952,7,1,5,0.001666667,-0.016666667,1,0,0,0.8151,rock_grid_rect_2,4,12,-1,-1,0.815,-0.104166667,-0.245,1,0,0,1.0221,Basalt_rect,2,1.022,0,4,0,4,0,1,,,,,,,,,,,,,
5df15bc3361a8506b94f79ed,TCN,2024-06-25_11h44.57.609,LearnStrategy,2023.2.3,Win32,59.88023952,7,1,6,0.051666667,-0.023333333,1,0,0,0.5477,rock_grid_rect_2,8,06,-1,-1,0.548,0.365833333,-0.405,1,0,0,1.0006,Pumice_rect,8,1.001,1,5,0,5,0,1,,,,,,,,,,,,,
5df15bc3361a8506b94f79ed,TCN,2024-06-25_11h44.57.609,LearnStrategy,2023.2.3,Win32,59.88023952,7,1,7,0.045,-0.016666667,1,0,0,0.6827,rock_grid_rect_2,2,06,-1,-1,0.683,-0.07,-0.249166667,1,0,0,0.9639,Basalt_rect,2,0.964,1,6,0,6,0,1,,,,,,,,,,,,,
5df15bc3361a8506b94f79ed,TCN,2024-06-25_11h44.57.609,LearnStrategy,2023.2.3,Win32,59.88023952,7,1,8,-0.031666667,-0.005833333,1,0,0,0.5306,rock_grid_rect_2,7,06,-1,-1,0.531,0.095833333,-0.415833333,1,0,0,3.5373,Peridotite_rect,7,3.537,1,7,0,7,0,1,,,,,,,,,,,,,
5df15bc3361a8506b94f79ed,TCN,2024-06-25_11h44.57.609,LearnStrategy,2023.2.3,Win32,59.88023952,7,1,9,0.024166667,0.005833333,1,0,0,0.5651,rock_grid_rect_2,5,05,-1,-1,0.565,-0.370833333,-0.39,1,0,0,1.1257,Obsidian_rect,5,1.126,1,8,0,8,0,1,,,,,,,,,,,,,
5df15bc3361a8506b94f79ed,TCN,2024-06-25_11h44.57.609,LearnStrategy,2023.2.3,Win32,59.88023952,7,1,10,-0.008333333,-0.014166667,1,0,0,0.5986,rock_grid_rect_2,3,10,-1,-1,0.599,0.07,-0.245,1,0,0,2.2799,Diorite_rect,3,2.28,1,9,0,9,0,1,,,,,,,,,,,,,
5df15bc3361a8506b94f79ed,TCN,2024-06-25_11h44.57.609,LearnStrategy,2023.2.3,Win32,59.88023952,7,1,11,0.0475,0.005,1,0,0,0.5651,rock_grid_rect_2,2,16,-1,-1,0.565,-0.09,-0.235833333,1,0,0,0.9987,Basalt_rect,2,0.999,1,10,0,10,0,1,,,,,,,,,,,,,
5df15bc3361a8506b94f79ed,TCN,2024-06-25_11h44.57.609,LearnStrategy,2023.2.3,Win32,59.88023952,7,1,12,0.0125,0.008333333,1,0,0,0.7322,rock_grid_rect_2,8,03,-1,-1,0.732,0.345,-0.389166667,1,0,0,1.0135,Pumice_rect,8,1.014,1,11,0,11,0,1,,,,,,,,,,,,,
5df15bc3361a8506b94f79ed,TCN,2024-06-25_11h44.57.609,LearnStrategy,2023.2.3,Win32,59.88023952,7,1,13,0.045,0.004166667,1,0,0,0.6495,rock_grid_rect_2,5,02,-1,-1,0.649,-0.333333333,-0.390833333,1,0,0,0.9138,Obsidian_rect,5,0.914,1,12,0,12,0,1,,,,,,,,,,,,,
5df15bc3361a8506b94f79ed,TCN,2024-06-25_11h44.57.609,LearnStrategy,2023.2.3,Win32,59.88023952,7,1,14,0.004166667,-0.0025,1,0,0,0.5989,rock_grid_rect_2,6,08,-1,-1,0.599,-0.113333333,-0.401666667,1,0,0,5.7311,Pegmatite_rect,6,5.731,1,13,0,13,0,1,,,,,,,,,,,,,
5df15bc3361a8506b94f79ed,TCN,2024-06-25_11h44.57.609,LearnStrategy,2023.2.3,Win32,59.88023952,7,1,15,-0.024166667,0.005,1,0,0,0.7313,rock_grid_rect_2,7,16,-1,-1,0.731,0.125833333,-0.405833333,1,0,0,6.7714,Peridotite_rect,7,6.771,1,14,0,14,0,1,,,,,,,,,,,,,
5df15bc3361a8506b94f79ed,TCN,2024-06-25_11h44.57.609,LearnStrategy,2023.2.3,Win32,59.88023952,7,1,16,0.019166667,-0.013333333,1,0,0,0.6813,rock_grid_rect_2,4,15,-1,-1,0.681,0.421666667,-0.25,1,0,0,7.2883,Gabbro_rect,4,7.288,1,15,0,15,0,1,,,,,,,,,,,,,
5df15bc3361a8506b94f79ed,TCN,2024-06-25_11h44.57.609,LearnStrategy,2023.2.3,Win32,59.88023952,7,2,1,,,,,,,,2,12,,,,,,,,,,,8,1.581,0,,,,,,0.338333333,-0.404166667,1,0,0,1.5805,Pumice_rect,0,0,0,0,1,
5df15bc3361a8506b94f79ed,TCN,2024-06-25_11h44.57.609,LearnStrategy,2023.2.3,Win32,59.88023952,7,2,2,,,,,,,,7,13,,,,,,,,,,,7,0.872,1,,,,,,0.154166667,-0.391666667,1,0,0,0.8717,Peridotite_rect,1,0,1,0,1,
5df15bc3361a8506b94f79ed,TCN,2024-06-25_11h44.57.609,LearnStrategy,2023.2.3,Win32,59.88023952,7,2,3,,,,,,,,5,06,,,,,,,,,,,5,1.196,1,,,,,,-0.419166667,-0.413333333,1,0,0,1.1958,Obsidian_rect,2,0,2,0,1,
5df15bc3361a8506b94f79ed,TCN,2024-06-25_11h44.57.609,LearnStrategy,2023.2.3,Win32,59.88023952,7,2,4,,,,,,,,8,05,,,,,,,,,,,8,1.645,1,,,,,,0.330833333,-0.3875,1,0,0,1.6449,Pumice_rect,3,0,3,0,1,
5df15bc3361a8506b94f79ed,TCN,2024-06-25_11h44.57.609,LearnStrategy,2023.2.3,Win32,59.88023952,7,2,5,,,,,,,,4,03,,,,,,,,,,,4,6.427,1,,,,,,0.424166667,-0.2575,1,0,0,6.4272,Gabbro_rect,4,0,4,0,1,
5df15bc3361a8506b94f79ed,TCN,2024-06-25_11h44.57.609,LearnStrategy,2023.2.3,Win32,59.88023952,7,2,6,,,,,,,,8,10,,,,,,,,,,,8,0.874,1,,,,,,0.349166667,-0.398333333,1,0,0,0.8742,Pumice_rect,5,0,5,0,1,
5df15bc3361a8506b94f79ed,TCN,2024-06-25_11h44.57.609,LearnStrategy,2023.2.3,Win32,59.88023952,7,2,7,,,,,,,,6,07,,,,,,,,,,,6,3.209,1,,,,,,-0.059166667,-0.3825,1,0,0,3.2094,Pegmatite_rect,6,0,6,0,1,
5df15bc3361a8506b94f79ed,TCN,2024-06-25_11h44.57.609,LearnStrategy,2023.2.3,Win32,59.88023952,7,2,8,,,,,,,,7,14,,,,,,,,,,,7,10.587,1,,,,,,0.108333333,-0.396666667,1,0,0,10.5869,Peridotite_rect,7,0,7,0,1,
5df15bc3361a8506b94f79ed,TCN,2024-06-25_11h44.57.609,LearnStrategy,2023.2.3,Win32,59.88023952,7,2,9,,,,,,,,6,06,,,,,,,,,,,6,2.985,1,,,,,,-0.130833333,-0.404166667,1,0,0,2.9852,Pegmatite_rect,8,0,8,0,1,
5df15bc3361a8506b94f79ed,TCN,2024-06-25_11h44.57.609,LearnStrategy,2023.2.3,Win32,59.88023952,7,2,10,,,,,,,,3,06,,,,,,,,,,,3,0.935,1,,,,,,0.0925,-0.265833333,1,0,0,0.9347,Diorite_rect,9,0,9,0,1,
5df15bc3361a8506b94f79ed,TCN,2024-06-25_11h44.57.609,LearnStrategy,2023.2.3,Win32,59.88023952,7,2,11,,,,,,,,5,04,,,,,,,,,,,5,0.879,1,,,,,,-0.349166667,-0.401666667,1,0,0,0.8786,Obsidian_rect,10,0,10,0,1,
5df15bc3361a8506b94f79ed,TCN,2024-06-25_11h44.57.609,LearnStrategy,2023.2.3,Win32,59.88023952,7,2,12,,,,,,,,2,14,,,,,,,,,,,2,10.685,1,,,,,,-0.13,-0.238333333,1,0,0,10.6847,Basalt_rect,11,0,11,0,1,
5df15bc3361a8506b94f79ed,TCN,2024-06-25_11h44.57.609,LearnStrategy,2023.2.3,Win32,59.88023952,7,2,13,,,,,,,,3,11,,,,,,,,,,,3,0.943,1,,,,,,0.09,-0.265833333,1,0,0,0.943,Diorite_rect,12,0,12,0,1,
5df15bc3361a8506b94f79ed,TCN,2024-06-25_11h44.57.609,LearnStrategy,2023.2.3,Win32,59.88023952,7,2,14,,,,,,,,1,04,,,,,,,,,,,1,3.194,1,,,,,,-0.334166667,-0.255833333,1,0,0,3.1936,Andesite_rect,13,0,13,0,1,
5df15bc3361a8506b94f79ed,TCN,2024-06-25_11h44.57.609,LearnStrategy,2023.2.3,Win32,59.88023952,7,2,15,,,,,,,,1,06,,,,,,,,,,,4,47.343,0,,,,,,0.334166667,-0.253333333,1,0,0,47.3427,Gabbro_rect,14,0,14,0,1,
5df15bc3361a8506b94f79ed,TCN,2024-06-25_11h44.57.609,LearnStrategy,2023.2.3,Win32,59.88023952,7,2,16,,,,,,,,4,14,,,,,,,,,,,4,10.545,1,,,,,,0.404166667,-0.260833333,1,0,0,10.5451,Gabbro_rect,15,0,15,0,1,
5df15bc3361a8506b94f79ed,TCN,2024-06-25_11h44.57.609,LearnStrategy,2023.2.3,Win32,59.88023952,8,1,1,0.1725,-0.001666667,1,0,0,1.4166,rock_grid_rect_2,6,11,-1,-1,1.417,-0.076666667,-0.380833333,1,0,0,4.7147,Pegmatite_rect,6,4.715,1,0,0,0,0,1,,,,,,,,,,,,,
5df15bc3361a8506b94f79ed,TCN,2024-06-25_11h44.57.609,LearnStrategy,2023.2.3,Win32,59.88023952,8,1,2,0.0425,0.005,1,0,0,0.6143,rock_grid_rect_2,4,08,-1,-1,0.614,-0.1225,-0.255,1,0,0,19.6502,Basalt_rect,2,19.65,0,1,0,1,0,1,,,,,,,,,,,,,
5df15bc3361a8506b94f79ed,TCN,2024-06-25_11h44.57.609,LearnStrategy,2023.2.3,Win32,59.88023952,8,1,3,0.029166667,-0.014166667,1,0,0,0.9701,rock_grid_rect_2,4,10,-1,-1,0.97,0.363333333,-0.241666667,1,0,0,3.4229,Gabbro_rect,4,3.423,1,2,0,2,0,1,,,,,,,,,,,,,
5df15bc3361a8506b94f79ed,TCN,2024-06-25_11h44.57.609,LearnStrategy,2023.2.3,Win32,59.88023952,8,1,4,0.055833333,-0.0175,1,0,0,0.6501,rock_grid_rect_2,8,02,-1,-1,0.65,0.333333333,-0.3825,1,0,0,1.1699,Pumice_rect,8,1.17,1,3,0,3,0,1,,,,,,,,,,,,,
5df15bc3361a8506b94f79ed,TCN,2024-06-25_11h44.57.609,LearnStrategy,2023.2.3,Win32,59.88023952,8,1,5,0.048333333,0.005,1,0,0,0.7851,rock_grid_rect_2,1,14,-1,-1,0.785,-0.3425,-0.230833333,1,0,0,7.9616,Andesite_rect,1,7.962,1,4,0,4,0,1,,,,,,,,,,,,,
5df15bc3361a8506b94f79ed,TCN,2024-06-25_11h44.57.609,LearnStrategy,2023.2.3,Win32,59.88023952,8,1,6,0.004166667,-0.013333333,1,0,0,0.5991,rock_grid_rect_2,8,09,-1,-1,0.599,0.363333333,-0.381666667,1,0,0,0.9584,Pumice_rect,8,0.958,1,5,0,5,0,1,,,,,,,,,,,,,
5df15bc3361a8506b94f79ed,TCN,2024-06-25_11h44.57.609,LearnStrategy,2023.2.3,Win32,59.88023952,8,1,7,-0.008333333,-0.016666667,1,0,0,0.9008,rock_grid_rect_2,5,11,-1,-1,0.901,-0.350833333,-0.39,1,0,0,1.0904,Obsidian_rect,5,1.09,1,6,0,6,0,1,,,,,,,,,,,,,
5df15bc3361a8506b94f79ed,TCN,2024-06-25_11h44.57.609,LearnStrategy,2023.2.3,Win32,59.88023952,8,1,8,0.006666667,-0.020833333,1,0,0,0.4989,rock_grid_rect_2,3,13,-1,-1,0.499,0.104166667,-0.248333333,1,0,0,1.27,Diorite_rect,3,1.27,1,7,0,7,0,1,,,,,,,,,,,,,
5df15bc3361a8506b94f79ed,TCN,2024-06-25_11h44.57.609,LearnStrategy,2023.2.3,Win32,59.88023952,8,1,9,0.031666667,-0.024166667,1,0,0,0.5842,rock_grid_rect_2,1,05,-1,-1,0.584,-0.388333333,-0.241666667,1,0,0,15.9135,Andesite_rect,1,15.913,1,8,0,8,0,1,,,,,,,,,,,,,
5df15bc3361a8506b94f79ed,TCN,2024-06-25_11h44.57.609,LearnStrategy,2023.2.3,Win32,59.88023952,8,1,10,0.1175,-0.009166667,1,0,0,1.1039,rock_grid_rect_2,2,11,-1,-1,1.104,-0.0875,-0.245,1,0,0,6.0519,Basalt_rect,2,6.052,1,9,0,9,0,1,,,,,,,,,,,,,
5df15bc3361a8506b94f79ed,TCN,2024-06-25_11h44.57.609,LearnStrategy,2023.2.3,Win32,59.88023952,8,1,11,-0.006666667,-0.015833333,1,0,0,0.7993,rock_grid_rect_2,7,08,-1,-1,0.799,0.1275,-0.398333333,1,0,0,1.1499,Peridotite_rect,7,1.15,1,10,0,10,0,1,,,,,,,,,,,,,
5df15bc3361a8506b94f79ed,TCN,2024-06-25_11h44.57.609,LearnStrategy,2023.2.3,Win32,59.88023952,8,1,12,0.049166667,0.004166667,1,0,0,0.5155,rock_grid_rect_2,3,07,-1,-1,0.515,0.126666667,-0.246666667,1,0,0,1.0993,Diorite_rect,3,1.099,1,11,0,11,0,1,,,,,,,,,,,,,
5df15bc3361a8506b94f79ed,TCN,2024-06-25_11h44.57.609,LearnStrategy,2023.2.3,Win32,59.88023952,8,1,13,0.05,-0.015,1,0,0,0.5659,rock_grid_rect_2,5,16,-1,-1,0.566,-0.376666667,-0.396666667,1,0,0,0.9996,Obsidian_rect,5,1,1,12,0,12,0,1,,,,,,,,,,,,,
5df15bc3361a8506b94f79ed,TCN,2024-06-25_11h44.57.609,LearnStrategy,2023.2.3,Win32,59.88023952,8,1,14,-0.009166667,0.001666667,1,0,0,0.5651,rock_grid_rect_2,7,05,-1,-1,0.565,0.120833333,-0.42,1,0,0,0.9648,Peridotite_rect,7,0.965,1,13,0,13,0,1,,,,,,,,,,,,,
5df15bc3361a8506b94f79ed,TCN,2024-06-25_11h44.57.609,LearnStrategy,2023.2.3,Win32,59.88023952,8,1,15,0.0625,-0.024166667,1,0,0,0.6325,rock_grid_rect_2,2,08,-1,-1,0.632,-0.056666667,-0.229166667,1,0,0,1.4357,Basalt_rect,2,1.436,1,14,0,14,0,1,,,,,,,,,,,,,
5df15bc3361a8506b94f79ed,TCN,2024-06-25_11h44.57.609,LearnStrategy,2023.2.3,Win32,59.88023952,8,1,16,-0.003333333,-0.0175,1,0,0,0.616,rock_grid_rect_2,6,15,-1,-1,0.616,-0.085,-0.411666667,1,0,0,1.167,Pegmatite_rect,6,1.167,1,15,0,15,0,1,,,,,,,,,,,,,
5df15bc3361a8506b94f79ed,TCN,2024-06-25_11h44.57.609,LearnStrategy,2023.2.3,Win32,59.88023952,8,2,1,,,,,,,,7,07,,,,,,,,,,,7,0.951,1,,,,,,0.089166667,-0.388333333,1,0,0,0.9508,Peridotite_rect,0,0,0,0,1,
5df15bc3361a8506b94f79ed,TCN,2024-06-25_11h44.57.609,LearnStrategy,2023.2.3,Win32,59.88023952,8,2,2,,,,,,,,2,05,,,,,,,,,,,2,1.192,1,,,,,,-0.085833333,-0.261666667,1,0,0,1.192,Basalt_rect,1,0,1,0,1,
5df15bc3361a8506b94f79ed,TCN,2024-06-25_11h44.57.609,LearnStrategy,2023.2.3,Win32,59.88023952,8,2,3,,,,,,,,8,08,,,,,,,,,,,8,0.963,1,,,,,,0.34,-0.386666667,1,0,0,0.9635,Pumice_rect,2,0,2,0,1,
5df15bc3361a8506b94f79ed,TCN,2024-06-25_11h44.57.609,LearnStrategy,2023.2.3,Win32,59.88023952,8,2,4,,,,,,,,4,09,,,,,,,,,,,5,3.404,0,,,,,,-0.388333333,-0.3975,1,0,0,3.4044,Obsidian_rect,3,0,3,0,1,
5df15bc3361a8506b94f79ed,TCN,2024-06-25_11h44.57.609,LearnStrategy,2023.2.3,Win32,59.88023952,8,2,5,,,,,,,,3,14,,,,,,,,,,,3,1.019,1,,,,,,0.1275,-0.249166667,1,0,0,1.0185,Diorite_rect,4,0,4,0,1,
5df15bc3361a8506b94f79ed,TCN,2024-06-25_11h44.57.609,LearnStrategy,2023.2.3,Win32,59.88023952,8,2,6,,,,,,,,1,16,,,,,,,,,,,1,4.807,1,,,,,,-0.335,-0.246666667,1,0,0,4.8075,Andesite_rect,5,0,5,0,1,
5df15bc3361a8506b94f79ed,TCN,2024-06-25_11h44.57.609,LearnStrategy,2023.2.3,Win32,59.88023952,8,2,7,,,,,,,,3,15,,,,,,,,,,,3,0.985,1,,,,,,0.125833333,-0.235833333,1,0,0,0.9854,Diorite_rect,6,0,6,0,1,
5df15bc3361a8506b94f79ed,TCN,2024-06-25_11h44.57.609,LearnStrategy,2023.2.3,Win32,59.88023952,8,2,8,,,,,,,,4,16,,,,,,,,,,,2,3.497,0,,,,,,-0.083333333,-0.231666667,1,0,0,3.4975,Basalt_rect,7,0,7,0,1,
5df15bc3361a8506b94f79ed,TCN,2024-06-25_11h44.57.609,LearnStrategy,2023.2.3,Win32,59.88023952,8,2,9,,,,,,,,6,09,,,,,,,,,,,6,2.568,1,,,,,,-0.0825,-0.398333333,1,0,0,2.5676,Pegmatite_rect,8,0,8,0,1,
5df15bc3361a8506b94f79ed,TCN,2024-06-25_11h44.57.609,LearnStrategy,2023.2.3,Win32,59.88023952,8,2,10,,,,,,,,5,14,,,,,,,,,,,5,1.766,1,,,,,,-0.366666667,-0.409166667,1,0,0,1.7656,Obsidian_rect,9,0,9,0,1,
5df15bc3361a8506b94f79ed,TCN,2024-06-25_11h44.57.609,LearnStrategy,2023.2.3,Win32,59.88023952,8,2,11,,,,,,,,2,09,,,,,,,,,,,2,1.794,1,,,,,,-0.070833333,-0.233333333,1,0,0,1.7936,Basalt_rect,10,0,10,0,1,
5df15bc3361a8506b94f79ed,TCN,2024-06-25_11h44.57.609,LearnStrategy,2023.2.3,Win32,59.88023952,8,2,12,,,,,,,,6,12,,,,,,,,,,,3,1.036,0,,,,,,0.105833333,-0.256666667,1,0,0,1.036,Diorite_rect,11,0,11,0,1,
5df15bc3361a8506b94f79ed,TCN,2024-06-25_11h44.57.609,LearnStrategy,2023.2.3,Win32,59.88023952,8,2,13,,,,,,,,7,04,,,,,,,,,,,3,0.8,0,,,,,,0.073333333,-0.25,1,0,0,0.7996,Diorite_rect,12,0,12,0,1,
5df15bc3361a8506b94f79ed,TCN,2024-06-25_11h44.57.609,LearnStrategy,2023.2.3,Win32,59.88023952,8,2,14,,,,,,,,1,09,,,,,,,,,,,4,14.6,0,,,,,,0.358333333,-0.259166667,1,0,0,14.6002,Gabbro_rect,13,0,13,0,1,
5df15bc3361a8506b94f79ed,TCN,2024-06-25_11h44.57.609,LearnStrategy,2023.2.3,Win32,59.88023952,8,2,15,,,,,,,,8,16,,,,,,,,,,,8,2.262,1,,,,,,0.391666667,-0.399166667,1,0,0,2.2615,Pumice_rect,14,0,14,0,1,
5df15bc3361a8506b94f79ed,TCN,2024-06-25_11h44.57.609,LearnStrategy,2023.2.3,Win32,59.88023952,8,2,16,,,,,,,,5,12,,,,,,,,,,,5,0.96,1,,,,,,-0.380833333,-0.4025,1,0,0,0.9602,Obsidian_rect,15,0,15,0,1,
5df15bc3361a8506b94f79ed,TCN,2024-06-25_11h44.57.609,LearnStrategy,2023.2.3,Win32,59.88023952,9,1,1,0.035833333,-0.008333333,1,0,0,1.1655,rock_grid_rect_2,2,10,-1,-1,1.166,-0.134166667,-0.2475,1,0,0,4.6025,Basalt_rect,2,4.602,1,0,0,0,0,1,,,,,,,,,,,,,
5df15bc3361a8506b94f79ed,TCN,2024-06-25_11h44.57.609,LearnStrategy,2023.2.3,Win32,59.88023952,9,1,2,-0.018333333,0.0075,1,0,0,0.6659,rock_grid_rect_2,1,10,-1,-1,0.666,-0.336666667,-0.239166667,1,0,0,8.7019,Andesite_rect,1,8.702,1,1,0,1,0,1,,,,,,,,,,,,,
5df15bc3361a8506b94f79ed,TCN,2024-06-25_11h44.57.609,LearnStrategy,2023.2.3,Win32,59.88023952,9,1,3,0.0375,-0.0125,1,0,0,0.6319,rock_grid_rect_2,1,11,-1,-1,0.632,-0.376666667,-0.26,1,0,0,7.2985,Andesite_rect,1,7.298,1,2,0,2,0,1,,,,,,,,,,,,,
5df15bc3361a8506b94f79ed,TCN,2024-06-25_11h44.57.609,LearnStrategy,2023.2.3,Win32,59.88023952,9,1,4,0.015833333,-0.000833333,1,0,0,0.6155,rock_grid_rect_2,2,01,-1,-1,0.616,-0.0875,-0.235,1,0,0,0.8782,Basalt_rect,2,0.878,1,3,0,3,0,1,,,,,,,,,,,,,
5df15bc3361a8506b94f79ed,TCN,2024-06-25_11h44.57.609,LearnStrategy,2023.2.3,Win32,59.88023952,9,1,5,0.0425,0.005,1,0,0,0.5152,rock_grid_rect_2,7,12,-1,-1,0.515,0.129166667,-0.380833333,1,0,0,0.86,Peridotite_rect,7,0.86,1,4,0,4,0,1,,,,,,,,,,,,,
5df15bc3361a8506b94f79ed,TCN,2024-06-25_11h44.57.609,LearnStrategy,2023.2.3,Win32,59.88023952,9,1,6,0.033333333,0.0075,1,0,0,0.5991,rock_grid_rect_2,4,05,-1,-1,0.599,-0.095833333,-0.384166667,1,0,0,2.3734,Pegmatite_rect,6,2.373,0,5,0,5,0,1,,,,,,,,,,,,,
5df15bc3361a8506b94f79ed,TCN,2024-06-25_11h44.57.609,LearnStrategy,2023.2.3,Win32,59.88023952,9,1,7,0.085,-0.010833333,1,0,0,0.6571,rock_grid_rect_2,3,02,-1,-1,0.657,0.101666667,-0.241666667,1,0,0,0.9048,Diorite_rect,3,0.905,1,6,0,6,0,1,,,,,,,,,,,,,
5df15bc3361a8506b94f79ed,TCN,2024-06-25_11h44.57.609,LearnStrategy,2023.2.3,Win32,59.88023952,9,1,8,0.040833333,-0.005,1,0,0,0.5492,rock_grid_rect_2,5,08,-1,-1,0.549,-0.39,-0.4075,1,0,0,0.9396,Obsidian_rect,5,0.94,1,7,0,7,0,1,,,,,,,,,,,,,
5df15bc3361a8506b94f79ed,TCN,2024-06-25_11h44.57.609,LearnStrategy,2023.2.3,Win32,59.88023952,9,1,9,0.015833333,-0.010833333,1,0,0,0.9026,rock_grid_rect_2,6,10,-1,-1,0.903,-0.1275,-0.38,1,0,0,2.4583,Pegmatite_rect,6,2.458,1,8,0,8,0,1,,,,,,,,,,,,,
5df15bc3361a8506b94f79ed,TCN,2024-06-25_11h44.57.609,LearnStrategy,2023.2.3,Win32,59.88023952,9,1,10,0.015833333,-0.004166667,1,0,0,0.5975,rock_grid_rect_2,6,16,-1,-1,0.597,-0.093333333,-0.396666667,1,0,0,3.1368,Pegmatite_rect,6,3.137,1,9,0,9,0,1,,,,,,,,,,,,,
5df15bc3361a8506b94f79ed,TCN,2024-06-25_11h44.57.609,LearnStrategy,2023.2.3,Win32,59.88023952,9,1,11,0.056666667,0.016666667,1,0,0,0.6326,rock_grid_rect_2,8,15,-1,-1,0.633,0.353333333,-0.395,1,0,0,1.7253,Pumice_rect,8,1.725,1,10,0,10,0,1,,,,,,,,,,,,,
5df15bc3361a8506b94f79ed,TCN,2024-06-25_11h44.57.609,LearnStrategy,2023.2.3,Win32,59.88023952,9,1,12,0.085833333,-0.01,1,0,0,0.5491,rock_grid_rect_2,7,02,-1,-1,0.549,0.148333333,-0.379166667,1,0,0,0.901,Peridotite_rect,7,0.901,1,11,0,11,0,1,,,,,,,,,,,,,
5df15bc3361a8506b94f79ed,TCN,2024-06-25_11h44.57.609,LearnStrategy,2023.2.3,Win32,59.88023952,9,1,13,0.01,-0.001666667,1,0,0,0.5819,rock_grid_rect_2,5,10,-1,-1,0.582,-0.3625,-0.405833333,1,0,0,1.3932,Obsidian_rect,5,1.393,1,12,0,12,0,1,,,,,,,,,,,,,
5df15bc3361a8506b94f79ed,TCN,2024-06-25_11h44.57.609,LearnStrategy,2023.2.3,Win32,59.88023952,9,1,14,0.004166667,0.005,1,0,0,0.4444,rock_grid_rect_2,8,13,-1,-1,0.444,0.345833333,-0.395,1,0,0,1.1594,Pumice_rect,8,1.159,1,13,0,13,0,1,,,,,,,,,,,,,
5df15bc3361a8506b94f79ed,TCN,2024-06-25_11h44.57.609,LearnStrategy,2023.2.3,Win32,59.88023952,9,1,15,0.0425,-0.0125,1,0,0,0.5489,rock_grid_rect_2,3,16,-1,-1,0.549,0.094166667,-0.234166667,1,0,0,0.8448,Diorite_rect,3,0.845,1,14,0,14,0,1,,,,,,,,,,,,,
5df15bc3361a8506b94f79ed,TCN,2024-06-25_11h44.57.609,LearnStrategy,2023.2.3,Win32,59.88023952,9,1,16,0.03,-0.015,1,0,0,0.5493,rock_grid_rect_2,4,01,-1,-1,0.549,-0.0725,-0.388333333,1,0,0,7.5338,Pegmatite_rect,6,7.534,0,15,0,15,0,1,,,,,,,,,,,,,
5df15bc3361a8506b94f79ed,TCN,2024-06-25_11h44.57.609,LearnStrategy,2023.2.3,Win32,59.88023952,9,2,1,,,,,,,,5,09,,,,,,,,,,,5,1.343,1,,,,,,-0.378333333,-0.399166667,1,0,0,1.3434,Obsidian_rect,0,0,0,0,1,
5df15bc3361a8506b94f79ed,TCN,2024-06-25_11h44.57.609,LearnStrategy,2023.2.3,Win32,59.88023952,9,2,2,,,,,,,,8,14,,,,,,,,,,,8,0.885,1,,,,,,0.414166667,-0.384166667,1,0,0,0.8846,Pumice_rect,1,0,1,0,1,
5df15bc3361a8506b94f79ed,TCN,2024-06-25_11h44.57.609,LearnStrategy,2023.2.3,Win32,59.88023952,9,2,3,,,,,,,,3,12,,,,,,,,,,,3,2.449,1,,,,,,0.155833333,-0.245,1,0,0,2.4493,Diorite_rect,2,0,2,0,1,
5df15bc3361a8506b94f79ed,TCN,2024-06-25_11h44.57.609,LearnStrategy,2023.2.3,Win32,59.88023952,9,2,4,,,,,,,,4,11,,,,,,,,,,,2,1.391,0,,,,,,-0.110833333,-0.245833333,1,0,0,1.3912,Basalt_rect,3,0,3,0,1,
5df15bc3361a8506b94f79ed,TCN,2024-06-25_11h44.57.609,LearnStrategy,2023.2.3,Win32,59.88023952,9,2,5,,,,,,,,2,04,,,,,,,,,,,2,1.046,1,,,,,,-0.145833333,-0.2375,1,0,0,1.0464,Basalt_rect,4,0,4,0,1,
5df15bc3361a8506b94f79ed,TCN,2024-06-25_11h44.57.609,LearnStrategy,2023.2.3,Win32,59.88023952,9,2,6,,,,,,,,7,10,,,,,,,,,,,7,1.216,1,,,,,,0.1075,-0.39,1,0,0,1.2155,Peridotite_rect,5,0,5,0,1,
5df15bc3361a8506b94f79ed,TCN,2024-06-25_11h44.57.609,LearnStrategy,2023.2.3,Win32,59.88023952,9,2,7,,,,,,,,4,13,,,,,,,,,,,6,4.289,0,,,,,,-0.093333333,-0.385833333,1,0,0,4.2893,Pegmatite_rect,6,0,6,0,1,
5df15bc3361a8506b94f79ed,TCN,2024-06-25_11h44.57.609,LearnStrategy,2023.2.3,Win32,59.88023952,9,2,8,,,,,,,,5,07,,,,,,,,,,,5,1.056,1,,,,,,-0.350833333,-0.396666667,1,0,0,1.0564,Obsidian_rect,7,0,7,0,1,
5df15bc3361a8506b94f79ed,TCN,2024-06-25_11h44.57.609,LearnStrategy,2023.2.3,Win32,59.88023952,9,2,9,,,,,,,,2,02,,,,,,,,,,,2,1.738,1,,,,,,-0.081666667,-0.244166667,1,0,0,1.7382,Basalt_rect,8,0,8,0,1,
5df15bc3361a8506b94f79ed,TCN,2024-06-25_11h44.57.609,LearnStrategy,2023.2.3,Win32,59.88023952,9,2,10,,,,,,,,1,02,,,,,,,,,,,1,7.632,1,,,,,,-0.3375,-0.245,1,0,0,7.6316,Andesite_rect,9,0,9,0,1,
5df15bc3361a8506b94f79ed,TCN,2024-06-25_11h44.57.609,LearnStrategy,2023.2.3,Win32,59.88023952,9,2,11,,,,,,,,8,04,,,,,,,,,,,8,1.089,1,,,,,,0.353333333,-0.399166667,1,0,0,1.0886,Pumice_rect,10,0,10,0,1,
5df15bc3361a8506b94f79ed,TCN,2024-06-25_11h44.57.609,LearnStrategy,2023.2.3,Win32,59.88023952,9,2,12,,,,,,,,1,03,,,,,,,,,,,1,6.291,1,,,,,,-0.335,-0.2375,1,0,0,6.2905,Andesite_rect,11,0,11,0,1,
5df15bc3361a8506b94f79ed,TCN,2024-06-25_11h44.57.609,LearnStrategy,2023.2.3,Win32,59.88023952,9,2,13,,,,,,,,7,15,,,,,,,,,,,7,1.084,1,,,,,,0.068333333,-0.39,1,0,0,1.0841,Peridotite_rect,12,0,12,0,1,
5df15bc3361a8506b94f79ed,TCN,2024-06-25_11h44.57.609,LearnStrategy,2023.2.3,Win32,59.88023952,9,2,14,,,,,,,,6,03,,,,,,,,,,,6,1.567,1,,,,,,-0.083333333,-0.391666667,1,0,0,1.5672,Pegmatite_rect,13,0,13,0,1,
5df15bc3361a8506b94f79ed,TCN,2024-06-25_11h44.57.609,LearnStrategy,2023.2.3,Win32,59.88023952,9,2,15,,,,,,,,3,09,,,,,,,,,,,3,0.742,1,,,,,,0.116666667,-0.2525,1,0,0,0.7424,Diorite_rect,14,0,14,0,1,
5df15bc3361a8506b94f79ed,TCN,2024-06-25_11h44.57.609,LearnStrategy,2023.2.3,Win32,59.88023952,9,2,16,,,,,,,,6,05,,,,,,,,,,,3,1.744,0,,,,,,0.115833333,-0.2425,1,0,0,1.7437,Diorite_rect,15,0,15,0,1,
5df15bc3361a8506b94f79ed,TCN,2024-06-25_11h44.57.609,LearnStrategy,2023.2.3,Win32,59.88023952,,,,,,,,,,,,,,,,,,,,,,,,,,,,,,,,,,,,,,,,,,,1
5df15bc3361a8506b94f79ed,TCN,2024-06-25_11h44.57.609,LearnStrategy,2023.2.3,Win32,59.88023952,,,,,,,,,,,,,,,,,,,,,,,,,,,,,,,,,,,,,,,,,,,
5df15bc3361a8506b94f79ed,TCN,2024-06-25_11h44.57.609,LearnStrategy,2023.2.3,Win32,59.88023952,,,,,,,,,,,2,08,1,1,,,,,,,,,,,,,,,,,,,,,,,,,,,,,
5df15bc3361a8506b94f79ed,TCN,2024-06-25_11h44.57.609,LearnStrategy,2023.2.3,Win32,59.88023952,,,,,,,,,,,4,10,1,2,,,,,,,,,,,,,,,,,,,,,,,,,,,,,
5df15bc3361a8506b94f79ed,TCN,2024-06-25_11h44.57.609,LearnStrategy,2023.2.3,Win32,59.88023952,,,,,,,,,,,3,13,1,3,,,,,,,,,,,,,,,,,,,,,,,,,,,,,
5df15bc3361a8506b94f79ed,TCN,2024-06-25_11h44.57.609,LearnStrategy,2023.2.3,Win32,59.88023952,,,,,,,,,,,6,11,1,4,,,,,,,,,,,,,,,,,,,,,,,,,,,,,
5df15bc3361a8506b94f79ed,TCN,2024-06-25_11h44.57.609,LearnStrategy,2023.2.3,Win32,59.88023952,,,,,,,,,,,8,15,1,5,,,,,,,,,,,,,,,,,,,,,,,,,,,,,
5df15bc3361a8506b94f79ed,TCN,2024-06-25_11h44.57.609,LearnStrategy,2023.2.3,Win32,59.88023952,,,,,,,,,,,8,02,1,6,,,,,,,,,,,,,,,,,,,,,,,,,,,,,
5df15bc3361a8506b94f79ed,TCN,2024-06-25_11h44.57.609,LearnStrategy,2023.2.3,Win32,59.88023952,,,,,,,,,,,3,08,1,7,,,,,,,,,,,,,,,,,,,,,,,,,,,,,
5df15bc3361a8506b94f79ed,TCN,2024-06-25_11h44.57.609,LearnStrategy,2023.2.3,Win32,59.88023952,,,,,,,,,,,2,16,1,8,,,,,,,,,,,,,,,,,,,,,,,,,,,,,
5df15bc3361a8506b94f79ed,TCN,2024-06-25_11h44.57.609,LearnStrategy,2023.2.3,Win32,59.88023952,,,,,,,,,,,1,01,2,1,,,,,,,,,,,,,,,,,,,,,,,,,,,,,
5df15bc3361a8506b94f79ed,TCN,2024-06-25_11h44.57.609,LearnStrategy,2023.2.3,Win32,59.88023952,,,,,,,,,,,5,10,2,2,,,,,,,,,,,,,,,,,,,,,,,,,,,,,
5df15bc3361a8506b94f79ed,TCN,2024-06-25_11h44.57.609,LearnStrategy,2023.2.3,Win32,59.88023952,,,,,,,,,,,3,16,2,3,,,,,,,,,,,,,,,,,,,,,,,,,,,,,
5df15bc3361a8506b94f79ed,TCN,2024-06-25_11h44.57.609,LearnStrategy,2023.2.3,Win32,59.88023952,,,,,,,,,,,2,01,2,4,,,,,,,,,,,,,,,,,,,,,,,,,,,,,
5df15bc3361a8506b94f79ed,TCN,2024-06-25_11h44.57.609,LearnStrategy,2023.2.3,Win32,59.88023952,,,,,,,,,,,1,11,2,5,,,,,,,,,,,,,,,,,,,,,,,,,,,,,
5df15bc3361a8506b94f79ed,TCN,2024-06-25_11h44.57.609,LearnStrategy,2023.2.3,Win32,59.88023952,,,,,,,,,,,4,05,2,6,,,,,,,,,,,,,,,,,,,,,,,,,,,,,
5df15bc3361a8506b94f79ed,TCN,2024-06-25_11h44.57.609,LearnStrategy,2023.2.3,Win32,59.88023952,,,,,,,,,,,5,02,2,7,,,,,,,,,,,,,,,,,,,,,,,,,,,,,
5df15bc3361a8506b94f79ed,TCN,2024-06-25_11h44.57.609,LearnStrategy,2023.2.3,Win32,59.88023952,,,,,,,,,,,1,07,2,8,,,,,,,,,,,,,,,,,,,,,,,,,,,,,
5df15bc3361a8506b94f79ed,TCN,2024-06-25_11h44.57.609,LearnStrategy,2023.2.3,Win32,59.88023952,,,,,,,,,,,4,08,3,1,,,,,,,,,,,,,,,,,,,,,,,,,,,,,
5df15bc3361a8506b94f79ed,TCN,2024-06-25_11h44.57.609,LearnStrategy,2023.2.3,Win32,59.88023952,,,,,,,,,,,6,10,3,2,,,,,,,,,,,,,,,,,,,,,,,,,,,,,
5df15bc3361a8506b94f79ed,TCN,2024-06-25_11h44.57.609,LearnStrategy,2023.2.3,Win32,59.88023952,,,,,,,,,,,3,02,3,3,,,,,,,,,,,,,,,,,,,,,,,,,,,,,
5df15bc3361a8506b94f79ed,TCN,2024-06-25_11h44.57.609,LearnStrategy,2023.2.3,Win32,59.88023952,,,,,,,,,,,1,14,3,4,,,,,,,,,,,,,,,,,,,,,,,,,,,,,
5df15bc3361a8506b94f79ed,TCN,2024-06-25_11h44.57.609,LearnStrategy,2023.2.3,Win32,59.88023952,,,,,,,,,,,4,12,3,5,,,,,,,,,,,,,,,,,,,,,,,,,,,,,
5df15bc3361a8506b94f79ed,TCN,2024-06-25_11h44.57.609,LearnStrategy,2023.2.3,Win32,59.88023952,,,,,,,,,,,5,16,3,6,,,,,,,,,,,,,,,,,,,,,,,,,,,,,
5df15bc3361a8506b94f79ed,TCN,2024-06-25_11h44.57.609,LearnStrategy,2023.2.3,Win32,59.88023952,,,,,,,,,,,8,09,3,7,,,,,,,,,,,,,,,,,,,,,,,,,,,,,
5df15bc3361a8506b94f79ed,TCN,2024-06-25_11h44.57.609,LearnStrategy,2023.2.3,Win32,59.88023952,,,,,,,,,,,6,13,3,8,,,,,,,,,,,,,,,,,,,,,,,,,,,,,
5df15bc3361a8506b94f79ed,TCN,2024-06-25_11h44.57.609,LearnStrategy,2023.2.3,Win32,59.88023952,,,,,,,,,,,6,15,4,1,,,,,,,,,,,,,,,,,,,,,,,,,,,,,
5df15bc3361a8506b94f79ed,TCN,2024-06-25_11h44.57.609,LearnStrategy,2023.2.3,Win32,59.88023952,,,,,,,,,,,1,05,4,2,,,,,,,,,,,,,,,,,,,,,,,,,,,,,
5df15bc3361a8506b94f79ed,TCN,2024-06-25_11h44.57.609,LearnStrategy,2023.2.3,Win32,59.88023952,,,,,,,,,,,5,11,4,3,,,,,,,,,,,,,,,,,,,,,,,,,,,,,
5df15bc3361a8506b94f79ed,TCN,2024-06-25_11h44.57.609,LearnStrategy,2023.2.3,Win32,59.88023952,,,,,,,,,,,5,08,4,4,,,,,,,,,,,,,,,,,,,,,,,,,,,,,
5df15bc3361a8506b94f79ed,TCN,2024-06-25_11h44.57.609,LearnStrategy,2023.2.3,Win32,59.88023952,,,,,,,,,,,1,10,4,5,,,,,,,,,,,,,,,,,,,,,,,,,,,,,
5df15bc3361a8506b94f79ed,TCN,2024-06-25_11h44.57.609,LearnStrategy,2023.2.3,Win32,59.88023952,,,,,,,,,,,4,15,4,6,,,,,,,,,,,,,,,,,,,,,,,,,,,,,
5df15bc3361a8506b94f79ed,TCN,2024-06-25_11h44.57.609,LearnStrategy,2023.2.3,Win32,59.88023952,,,,,,,,,,,7,02,4,7,,,,,,,,,,,,,,,,,,,,,,,,,,,,,
5df15bc3361a8506b94f79ed,TCN,2024-06-25_11h44.57.609,LearnStrategy,2023.2.3,Win32,59.88023952,,,,,,,,,,,2,11,4,8,,,,,,,,,,,,,,,,,,,,,,,,,,,,,
5df15bc3361a8506b94f79ed,TCN,2024-06-25_11h44.57.609,LearnStrategy,2023.2.3,Win32,59.88023952,,,,,,,,,,,7,05,5,1,,,,,,,,,,,,,,,,,,,,,,,,,,,,,
5df15bc3361a8506b94f79ed,TCN,2024-06-25_11h44.57.609,LearnStrategy,2023.2.3,Win32,59.88023952,,,,,,,,,,,8,03,5,2,,,,,,,,,,,,,,,,,,,,,,,,,,,,,
5df15bc3361a8506b94f79ed,TCN,2024-06-25_11h44.57.609,LearnStrategy,2023.2.3,Win32,59.88023952,,,,,,,,,,,6,08,5,3,,,,,,,,,,,,,,,,,,,,,,,,,,,,,
5df15bc3361a8506b94f79ed,TCN,2024-06-25_11h44.57.609,LearnStrategy,2023.2.3,Win32,59.88023952,,,,,,,,,,,2,06,5,4,,,,,,,,,,,,,,,,,,,,,,,,,,,,,
5df15bc3361a8506b94f79ed,TCN,2024-06-25_11h44.57.609,LearnStrategy,2023.2.3,Win32,59.88023952,,,,,,,,,,,4,01,5,5,,,,,,,,,,,,,,,,,,,,,,,,,,,,,
5df15bc3361a8506b94f79ed,TCN,2024-06-25_11h44.57.609,LearnStrategy,2023.2.3,Win32,59.88023952,,,,,,,,,,,5,05,5,6,,,,,,,,,,,,,,,,,,,,,,,,,,,,,
5df15bc3361a8506b94f79ed,TCN,2024-06-25_11h44.57.609,LearnStrategy,2023.2.3,Win32,59.88023952,,,,,,,,,,,8,13,5,7,,,,,,,,,,,,,,,,,,,,,,,,,,,,,
5df15bc3361a8506b94f79ed,TCN,2024-06-25_11h44.57.609,LearnStrategy,2023.2.3,Win32,59.88023952,,,,,,,,,,,6,16,5,8,,,,,,,,,,,,,,,,,,,,,,,,,,,,,
5df15bc3361a8506b94f79ed,TCN,2024-06-25_11h44.57.609,LearnStrategy,2023.2.3,Win32,59.88023952,,,,,,,,,,,3,10,6,1,,,,,,,,,,,,,,,,,,,,,,,,,,,,,
5df15bc3361a8506b94f79ed,TCN,2024-06-25_11h44.57.609,LearnStrategy,2023.2.3,Win32,59.88023952,,,,,,,,,,,7,16,6,2,,,,,,,,,,,,,,,,,,,,,,,,,,,,,
5df15bc3361a8506b94f79ed,TCN,2024-06-25_11h44.57.609,LearnStrategy,2023.2.3,Win32,59.88023952,,,,,,,,,,,7,06,6,3,,,,,,,,,,,,,,,,,,,,,,,,,,,,,
5df15bc3361a8506b94f79ed,TCN,2024-06-25_11h44.57.609,LearnStrategy,2023.2.3,Win32,59.88023952,,,,,,,,,,,2,10,6,4,,,,,,,,,,,,,,,,,,,,,,,,,,,,,
5df15bc3361a8506b94f79ed,TCN,2024-06-25_11h44.57.609,LearnStrategy,2023.2.3,Win32,59.88023952,,,,,,,,,,,3,07,6,5,,,,,,,,,,,,,,,,,,,,,,,,,,,,,
5df15bc3361a8506b94f79ed,TCN,2024-06-25_11h44.57.609,LearnStrategy,2023.2.3,Win32,59.88023952,,,,,,,,,,,8,06,6,6,,,,,,,,,,,,,,,,,,,,,,,,,,,,,
5df15bc3361a8506b94f79ed,TCN,2024-06-25_11h44.57.609,LearnStrategy,2023.2.3,Win32,59.88023952,,,,,,,,,,,7,08,6,7,,,,,,,,,,,,,,,,,,,,,,,,,,,,,
5df15bc3361a8506b94f79ed,TCN,2024-06-25_11h44.57.609,LearnStrategy,2023.2.3,Win32,59.88023952,,,,,,,,,,,7,12,6,8,,,,,,,,,,,,,,,,,,,,,,,,,,,,,