participant,condition,date,expName,psychopyVersion,OS,frameRate,block,phase,trial,learn_mouse.x,learn_mouse.y,learn_mouse.leftButton,learn_mouse.midButton,learn_mouse.rightButton,learn_mouse.time,learn_mouse.clicked_name,cat,token,row,col,t_select,cat_mouse_l.x,cat_mouse_l.y,cat_mouse_l.leftButton,cat_mouse_l.midButton,cat_mouse_l.rightButton,cat_mouse_l.time,cat_mouse_l.clicked_name,resp,t_resp,corr,train_trials.thisRepN,train_trials.thisTrialN,train_trials.thisN,train_trials.thisIndex,train_trials.ran,cat_mouse_t.x,cat_mouse_t.y,cat_mouse_t.leftButton,cat_mouse_t.midButton,cat_mouse_t.rightButton,cat_mouse_t.time,cat_mouse_t.clicked_name,test_trials.thisRepN,test_trials.thisTrialN,test_trials.thisN,test_trials.thisIndex,test_trials.ran,Bonus
5e07a0898dffa00ff1aaf60f,SCN,2024-06-24_13h49.27.096,LearnStrategy,2023.2.3,Linux x86_64,59.88023952,,,,,,,,,,,,,,,,,,,,,,,,,,,,,,,,,,,,,,,,,,,
5e07a0898dffa00ff1aaf60f,SCN,2024-06-24_13h49.27.096,LearnStrategy,2023.2.3,Linux x86_64,59.88023952,1,1,1,-0.560615579,0.408029735,1,0,0,8.1398,Gabbro_11,4,11,6,1,8.14,-0.131989717,-0.401754618,1,0,0,5.6577,Pegmatite_rect,6,5.658,0,0,0,0,0,1,,,,,,,,,,,,,
5e07a0898dffa00ff1aaf60f,SCN,2024-06-24_13h49.27.096,LearnStrategy,2023.2.3,Linux x86_64,59.88023952,1,1,2,-0.37061886,0.405925443,1,0,0,2.046,Peridotite_07,7,07,6,2,2.046,0.337557395,-0.41302975,1,0,0,4.633,Pumice_rect,8,4.633,0,1,0,1,0,1,,,,,,,,,,,,,
5e07a0898dffa00ff1aaf60f,SCN,2024-06-24_13h49.27.096,LearnStrategy,2023.2.3,Linux x86_64,59.88023952,1,1,3,-0.273258249,0.409293443,1,0,0,1.9801,Diorite_10,3,10,6,3,1.98,-0.393481692,-0.248528719,1,0,0,6.9447,Andesite_rect,1,6.945,0,2,0,2,0,1,,,,,,,,,,,,,
5e07a0898dffa00ff1aaf60f,SCN,2024-06-24_13h49.27.096,LearnStrategy,2023.2.3,Linux x86_64,59.88023952,1,1,4,-0.057212591,0.397707671,1,0,0,1.8289,Basalt_11,2,11,6,4,1.829,0.352048477,-0.383464575,1,0,0,1.8212,Pumice_rect,8,1.821,0,3,0,3,0,1,,,,,,,,,,,,,
5e07a0898dffa00ff1aaf60f,SCN,2024-06-24_13h49.27.096,LearnStrategy,2023.2.3,Linux x86_64,59.88023952,1,1,5,0.072244406,0.3955187,1,0,0,1.862,Basalt_16,2,16,6,5,1.862,0.367958864,-0.404848973,1,0,0,1.7543,Pumice_rect,8,1.754,0,4,0,4,0,1,,,,,,,,,,,,,
5e07a0898dffa00ff1aaf60f,SCN,2024-06-24_13h49.27.096,LearnStrategy,2023.2.3,Linux x86_64,59.88023952,1,1,6,0.236805518,0.429148222,1,0,0,1.8627,Pegmatite_08,6,08,6,6,1.863,-0.345837196,-0.22872893,1,0,0,1.7855,Andesite_rect,1,1.786,0,5,0,5,0,1,,,,,,,,,,,,,
5e07a0898dffa00ff1aaf60f,SCN,2024-06-24_13h49.27.096,LearnStrategy,2023.2.3,Linux x86_64,59.88023952,1,1,7,0.402224938,0.423000276,1,0,0,1.7465,Obsidian_05,5,05,6,7,1.746,-0.392122308,-0.385143916,1,0,0,1.4756,Obsidian_rect,5,1.476,1,6,0,6,0,1,,,,,,,,,,,,,
5e07a0898dffa00ff1aaf60f,SCN,2024-06-24_13h49.27.096,LearnStrategy,2023.2.3,Linux x86_64,59.88023952,1,1,8,0.57053868,0.404891541,1,0,0,1.6795,Andesite_05,1,05,6,8,1.68,0.116160552,-0.250829856,1,0,0,1.908,Diorite_rect,3,1.908,0,7,0,7,0,1,,,,,,,,,,,,,
5e07a0898dffa00ff1aaf60f,SCN,2024-06-24_13h49.27.096,LearnStrategy,2023.2.3,Linux x86_64,59.88023952,1,1,9,-0.547047536,0.237423619,1,0,0,1.4791,Diorite_09,3,09,5,1,1.479,-0.370590806,-0.266738176,1,0,0,2.2798,Andesite_rect,1,2.28,0,8,0,8,0,1,,,,,,,,,,,,,
5e07a0898dffa00ff1aaf60f,SCN,2024-06-24_13h49.27.096,LearnStrategy,2023.2.3,Linux x86_64,59.88023952,1,1,10,-0.395185709,0.226413548,1,0,0,1.5139,Andesite_09,1,09,5,2,1.514,-0.360121369,-0.244976441,1,0,0,3.2195,Andesite_rect,1,3.22,1,9,0,9,0,1,,,,,,,,,,,,,
5e07a0898dffa00ff1aaf60f,SCN,2024-06-24_13h49.27.096,LearnStrategy,2023.2.3,Linux x86_64,59.88023952,1,1,11,-0.265458107,0.233916243,1,0,0,2.114,Peridotite_13,7,13,5,3,2.114,-0.166837613,-0.250966469,1,0,0,4.0253,Basalt_rect,2,4.025,0,10,0,10,0,1,,,,,,,,,,,,,
5e07a0898dffa00ff1aaf60f,SCN,2024-06-24_13h49.27.096,LearnStrategy,2023.2.3,Linux x86_64,59.88023952,1,1,12,-0.074073474,0.260447383,1,0,0,1.3606,Diorite_12,3,12,5,4,1.361,-0.38013502,-0.255562305,1,0,0,1.5836,Andesite_rect,1,1.584,0,11,0,11,0,1,,,,,,,,,,,,,
5e07a0898dffa00ff1aaf60f,SCN,2024-06-24_13h49.27.096,LearnStrategy,2023.2.3,Linux x86_64,59.88023952,1,1,13,0.05158186,0.268998762,1,0,0,1.3451,Andesite_02,1,02,5,5,1.345,-0.356805563,-0.240799427,1,0,0,4.9572,Andesite_rect,1,4.957,1,12,0,12,0,1,,,,,,,,,,,,,
5e07a0898dffa00ff1aaf60f,SCN,2024-06-24_13h49.27.096,LearnStrategy,2023.2.3,Linux x86_64,59.88023952,1,1,14,0.229697386,0.245653232,1,0,0,1.6618,Andesite_07,1,07,5,6,1.662,0.100040674,-0.245872259,1,0,0,1.9698,Diorite_rect,3,1.97,0,13,0,13,0,1,,,,,,,,,,,,,
5e07a0898dffa00ff1aaf60f,SCN,2024-06-24_13h49.27.096,LearnStrategy,2023.2.3,Linux x86_64,59.88023952,1,1,15,0.393917084,0.219904363,1,0,0,1.4457,Peridotite_16,7,16,5,7,1.446,-0.07835873,-0.266752323,1,0,0,3.3376,Basalt_rect,2,3.338,0,14,0,14,0,1,,,,,,,,,,,,,
5e07a0898dffa00ff1aaf60f,SCN,2024-06-24_13h49.27.096,LearnStrategy,2023.2.3,Linux x86_64,59.88023952,1,1,16,0.523444017,0.277039965,1,0,0,1.6628,Pumice_08,8,08,5,8,1.663,0.113175154,-0.255010684,1,0,0,2.18,Diorite_rect,3,2.18,0,15,0,15,0,1,,,,,,,,,,,,,
5e07a0898dffa00ff1aaf60f,SCN,2024-06-24_13h49.27.096,LearnStrategy,2023.2.3,Linux x86_64,59.88023952,1,2,1,,,,,,,,7,12,,,,,,,,,,,7,5.257,1,,,,,,0.064974308,-0.381168604,1,0,0,5.2568,Peridotite_rect,0,0,0,0,1,
5e07a0898dffa00ff1aaf60f,SCN,2024-06-24_13h49.27.096,LearnStrategy,2023.2.3,Linux x86_64,59.88023952,1,2,2,,,,,,,,1,16,,,,,,,,,,,1,2.066,1,,,,,,-0.377228022,-0.232702176,1,0,0,2.0661,Andesite_rect,1,0,1,0,1,
5e07a0898dffa00ff1aaf60f,SCN,2024-06-24_13h49.27.096,LearnStrategy,2023.2.3,Linux x86_64,59.88023952,1,2,3,,,,,,,,7,15,,,,,,,,,,,3,4.309,0,,,,,,0.083815654,-0.249314547,1,0,0,4.309,Diorite_rect,2,0,2,0,1,
5e07a0898dffa00ff1aaf60f,SCN,2024-06-24_13h49.27.096,LearnStrategy,2023.2.3,Linux x86_64,59.88023952,1,2,4,,,,,,,,2,09,,,,,,,,,,,2,7.582,1,,,,,,-0.112143596,-0.233200312,1,0,0,7.5818,Basalt_rect,3,0,3,0,1,
5e07a0898dffa00ff1aaf60f,SCN,2024-06-24_13h49.27.096,LearnStrategy,2023.2.3,Linux x86_64,59.88023952,1,2,5,,,,,,,,2,10,,,,,,,,,,,7,3.733,0,,,,,,0.167088906,-0.380889734,1,0,0,3.7334,Peridotite_rect,4,0,4,0,1,
5e07a0898dffa00ff1aaf60f,SCN,2024-06-24_13h49.27.096,LearnStrategy,2023.2.3,Linux x86_64,59.88023952,1,2,6,,,,,,,,1,11,,,,,,,,,,,3,2.771,0,,,,,,0.070670764,-0.270780007,1,0,0,2.7711,Diorite_rect,5,0,5,0,1,
5e07a0898dffa00ff1aaf60f,SCN,2024-06-24_13h49.27.096,LearnStrategy,2023.2.3,Linux x86_64,59.88023952,1,2,7,,,,,,,,8,14,,,,,,,,,,,8,1.876,1,,,,,,0.367570798,-0.410065969,1,0,0,1.8757,Pumice_rect,6,0,6,0,1,
5e07a0898dffa00ff1aaf60f,SCN,2024-06-24_13h49.27.096,LearnStrategy,2023.2.3,Linux x86_64,59.88023952,1,2,8,,,,,,,,4,05,,,,,,,,,,,7,2.554,0,,,,,,0.098740419,-0.405920823,1,0,0,2.5543,Peridotite_rect,7,0,7,0,1,
5e07a0898dffa00ff1aaf60f,SCN,2024-06-24_13h49.27.096,LearnStrategy,2023.2.3,Linux x86_64,59.88023952,1,2,9,,,,,,,,6,15,,,,,,,,,,,1,2.767,0,,,,,,-0.413299084,-0.229304949,1,0,0,2.7674,Andesite_rect,8,0,8,0,1,
5e07a0898dffa00ff1aaf60f,SCN,2024-06-24_13h49.27.096,LearnStrategy,2023.2.3,Linux x86_64,59.88023952,1,2,10,,,,,,,,4,03,,,,,,,,,,,3,1.989,0,,,,,,0.13082242,-0.2614007,1,0,0,1.9885,Diorite_rect,9,0,9,0,1,
5e07a0898dffa00ff1aaf60f,SCN,2024-06-24_13h49.27.096,LearnStrategy,2023.2.3,Linux x86_64,59.88023952,1,2,11,,,,,,,,3,14,,,,,,,,,,,1,1.682,0,,,,,,-0.330114325,-0.237692356,1,0,0,1.6815,Andesite_rect,10,0,10,0,1,
5e07a0898dffa00ff1aaf60f,SCN,2024-06-24_13h49.27.096,LearnStrategy,2023.2.3,Linux x86_64,59.88023952,1,2,12,,,,,,,,3,16,,,,,,,,,,,1,1.478,0,,,,,,-0.444720825,-0.270560821,1,0,0,1.4777,Andesite_rect,11,0,11,0,1,
5e07a0898dffa00ff1aaf60f,SCN,2024-06-24_13h49.27.096,LearnStrategy,2023.2.3,Linux x86_64,59.88023952,1,2,13,,,,,,,,5,14,,,,,,,,,,,5,2.456,1,,,,,,-0.45588394,-0.396094481,1,0,0,2.4562,Obsidian_rect,12,0,12,0,1,
5e07a0898dffa00ff1aaf60f,SCN,2024-06-24_13h49.27.096,LearnStrategy,2023.2.3,Linux x86_64,59.88023952,1,2,14,,,,,,,,6,10,,,,,,,,,,,6,3.523,1,,,,,,-0.097006877,-0.40296944,1,0,0,3.5229,Pegmatite_rect,13,0,13,0,1,
5e07a0898dffa00ff1aaf60f,SCN,2024-06-24_13h49.27.096,LearnStrategy,2023.2.3,Linux x86_64,59.88023952,1,2,15,,,,,,,,8,06,,,,,,,,,,,8,1.469,1,,,,,,0.419004917,-0.417185704,1,0,0,1.4694,Pumice_rect,14,0,14,0,1,
5e07a0898dffa00ff1aaf60f,SCN,2024-06-24_13h49.27.096,LearnStrategy,2023.2.3,Linux x86_64,59.88023952,1,2,16,,,,,,,,5,11,,,,,,,,,,,5,1.544,1,,,,,,-0.375892282,-0.40941898,1,0,0,1.5437,Obsidian_rect,15,0,15,0,1,
5e07a0898dffa00ff1aaf60f,SCN,2024-06-24_13h49.27.096,LearnStrategy,2023.2.3,Linux x86_64,59.88023952,2,1,1,-0.5249149,0.113345226,1,0,0,7.6507,Diorite_02,3,02,4,1,7.651,-0.18291839,-0.263359865,1,0,0,1.3256,Basalt_rect,2,1.326,0,0,0,0,0,1,,,,,,,,,,,,,
5e07a0898dffa00ff1aaf60f,SCN,2024-06-24_13h49.27.096,LearnStrategy,2023.2.3,Linux x86_64,59.88023952,2,1,2,-0.3737276,0.110031843,1,0,0,1.5636,Diorite_07,3,07,4,2,1.564,-0.366864602,-0.25119257,1,0,0,1.145,Andesite_rect,1,1.145,0,1,0,1,0,1,,,,,,,,,,,,,
5e07a0898dffa00ff1aaf60f,SCN,2024-06-24_13h49.27.096,LearnStrategy,2023.2.3,Linux x86_64,59.88023952,2,1,3,-0.223000089,0.076114456,1,0,0,1.4627,Basalt_12,2,12,4,3,1.463,0.361414274,-0.402038892,1,0,0,2.8297,Pumice_rect,8,2.83,0,2,0,2,0,1,,,,,,,,,,,,,
5e07a0898dffa00ff1aaf60f,SCN,2024-06-24_13h49.27.096,LearnStrategy,2023.2.3,Linux x86_64,59.88023952,2,1,4,-0.062601884,0.097985546,1,0,0,2.0799,Diorite_13,3,13,4,4,2.08,0.135521253,-0.260191997,1,0,0,1.3499,Diorite_rect,3,1.35,1,3,0,3,0,1,,,,,,,,,,,,,
5e07a0898dffa00ff1aaf60f,SCN,2024-06-24_13h49.27.096,LearnStrategy,2023.2.3,Linux x86_64,59.88023952,2,1,5,0.095611413,0.080602407,1,0,0,1.5984,Pegmatite_13,6,13,4,5,1.598,0.087234815,-0.260426362,1,0,0,2.5079,Diorite_rect,3,2.508,0,4,0,4,0,1,,,,,,,,,,,,,
5e07a0898dffa00ff1aaf60f,SCN,2024-06-24_13h49.27.096,LearnStrategy,2023.2.3,Linux x86_64,59.88023952,2,1,6,0.23051548,0.081651489,1,0,0,1.5313,Basalt_04,2,04,4,6,1.531,-0.086089691,-0.40328598,1,0,0,2.8337,Pegmatite_rect,6,2.834,0,5,0,5,0,1,,,,,,,,,,,,,
5e07a0898dffa00ff1aaf60f,SCN,2024-06-24_13h49.27.096,LearnStrategy,2023.2.3,Linux x86_64,59.88023952,2,1,7,0.403355598,0.110593438,1,0,0,1.8959,Gabbro_08,4,08,4,7,1.896,0.098447959,-0.384718974,1,0,0,2.5912,Peridotite_rect,7,2.591,0,6,0,6,0,1,,,,,,,,,,,,,
5e07a0898dffa00ff1aaf60f,SCN,2024-06-24_13h49.27.096,LearnStrategy,2023.2.3,Linux x86_64,59.88023952,2,1,8,0.556080023,0.077695409,1,0,0,1.3297,Obsidian_08,5,08,4,8,1.33,-0.408021053,-0.39512825,1,0,0,1.7263,Obsidian_rect,5,1.726,1,7,0,7,0,1,,,,,,,,,,,,,
5e07a0898dffa00ff1aaf60f,SCN,2024-06-24_13h49.27.096,LearnStrategy,2023.2.3,Linux x86_64,59.88023952,2,1,9,-0.523534218,-0.082130909,1,0,0,1.4297,Peridotite_08,7,08,3,1,1.43,0.078823169,-0.250710805,1,0,0,2.9511,Diorite_rect,3,2.951,0,8,0,8,0,1,,,,,,,,,,,,,
5e07a0898dffa00ff1aaf60f,SCN,2024-06-24_13h49.27.096,LearnStrategy,2023.2.3,Linux x86_64,59.88023952,2,1,10,-0.373863101,-0.10775884,1,0,0,1.5955,Pegmatite_16,6,16,3,2,1.596,0.095100403,-0.252843142,1,0,0,2.3693,Diorite_rect,3,2.369,0,9,0,9,0,1,,,,,,,,,,,,,
5e07a0898dffa00ff1aaf60f,SCN,2024-06-24_13h49.27.096,LearnStrategy,2023.2.3,Linux x86_64,59.88023952,2,1,11,-0.211604198,-0.09853073,1,0,0,3.5119,Pegmatite_06,6,06,3,3,3.512,0.125282049,-0.264997164,1,0,0,1.268,Diorite_rect,3,1.268,0,10,0,10,0,1,,,,,,,,,,,,,
5e07a0898dffa00ff1aaf60f,SCN,2024-06-24_13h49.27.096,LearnStrategy,2023.2.3,Linux x86_64,59.88023952,2,1,12,-0.078101079,-0.085503419,1,0,0,1.245,Pegmatite_07,6,07,3,4,1.245,-0.399376512,-0.228363752,1,0,0,4.2888,Andesite_rect,1,4.289,0,11,0,11,0,1,,,,,,,,,,,,,
5e07a0898dffa00ff1aaf60f,SCN,2024-06-24_13h49.27.096,LearnStrategy,2023.2.3,Linux x86_64,59.88023952,2,1,13,0.075127443,-0.110737999,1,0,0,1.1957,Pumice_13,8,13,3,5,1.196,0.449888865,-0.237250725,1,0,0,5.7344,Gabbro_rect,4,5.734,0,12,0,12,0,1,,,,,,,,,,,,,
5e07a0898dffa00ff1aaf60f,SCN,2024-06-24_13h49.27.096,LearnStrategy,2023.2.3,Linux x86_64,59.88023952,2,1,14,0.236274481,-0.110389948,1,0,0,1.2462,Pumice_10,8,10,3,6,1.246,0.332937161,-0.379954894,1,0,0,2.0223,Pumice_rect,8,2.022,1,13,0,13,0,1,,,,,,,,,,,,,
5e07a0898dffa00ff1aaf60f,SCN,2024-06-24_13h49.27.096,LearnStrategy,2023.2.3,Linux x86_64,59.88023952,2,1,15,0.399781148,-0.097719034,1,0,0,1.1637,Andesite_01,1,01,3,7,1.164,-0.152690887,-0.262093941,1,0,0,1.4932,Basalt_rect,2,1.493,0,14,0,14,0,1,,,,,,,,,,,,,
5e07a0898dffa00ff1aaf60f,SCN,2024-06-24_13h49.27.096,LearnStrategy,2023.2.3,Linux x86_64,59.88023952,2,1,16,0.516028722,-0.10601747,1,0,0,1.3474,Peridotite_05,7,05,3,8,1.347,0.148083448,-0.235495965,1,0,0,1.7325,Diorite_rect,3,1.732,0,15,0,15,0,1,,,,,,,,,,,,,
5e07a0898dffa00ff1aaf60f,SCN,2024-06-24_13h49.27.096,LearnStrategy,2023.2.3,Linux x86_64,59.88023952,2,2,1,,,,,,,,6,12,,,,,,,,,,,1,2.061,0,,,,,,-0.3521655,-0.244940758,1,0,0,2.0606,Andesite_rect,0,0,0,0,1,
5e07a0898dffa00ff1aaf60f,SCN,2024-06-24_13h49.27.096,LearnStrategy,2023.2.3,Linux x86_64,59.88023952,2,2,2,,,,,,,,5,09,,,,,,,,,,,5,1.346,1,,,,,,-0.421603004,-0.390822252,1,0,0,1.3461,Obsidian_rect,1,0,1,0,1,
5e07a0898dffa00ff1aaf60f,SCN,2024-06-24_13h49.27.096,LearnStrategy,2023.2.3,Linux x86_64,59.88023952,2,2,3,,,,,,,,7,04,,,,,,,,,,,3,1.694,0,,,,,,0.09337012,-0.252772252,1,0,0,1.6942,Diorite_rect,2,0,2,0,1,
5e07a0898dffa00ff1aaf60f,SCN,2024-06-24_13h49.27.096,LearnStrategy,2023.2.3,Linux x86_64,59.88023952,2,2,4,,,,,,,,3,06,,,,,,,,,,,1,1.806,0,,,,,,-0.425812483,-0.246720314,1,0,0,1.8064,Andesite_rect,3,0,3,0,1,
5e07a0898dffa00ff1aaf60f,SCN,2024-06-24_13h49.27.096,LearnStrategy,2023.2.3,Linux x86_64,59.88023952,2,2,5,,,,,,,,2,14,,,,,,,,,,,8,1.785,0,,,,,,0.395024776,-0.383574009,1,0,0,1.7847,Pumice_rect,4,0,4,0,1,
5e07a0898dffa00ff1aaf60f,SCN,2024-06-24_13h49.27.096,LearnStrategy,2023.2.3,Linux x86_64,59.88023952,2,2,6,,,,,,,,1,03,,,,,,,,,,,2,2.13,0,,,,,,-0.066340367,-0.236607552,1,0,0,2.1302,Basalt_rect,5,0,5,0,1,
5e07a0898dffa00ff1aaf60f,SCN,2024-06-24_13h49.27.096,LearnStrategy,2023.2.3,Linux x86_64,59.88023952,2,2,7,,,,,,,,4,10,,,,,,,,,,,2,1.401,0,,,,,,-0.077600876,-0.24364543,1,0,0,1.4012,Basalt_rect,6,0,6,0,1,
5e07a0898dffa00ff1aaf60f,SCN,2024-06-24_13h49.27.096,LearnStrategy,2023.2.3,Linux x86_64,59.88023952,2,2,8,,,,,,,,3,11,,,,,,,,,,,3,1.632,1,,,,,,0.123750051,-0.251352231,1,0,0,1.6322,Diorite_rect,7,0,7,0,1,
5e07a0898dffa00ff1aaf60f,SCN,2024-06-24_13h49.27.096,LearnStrategy,2023.2.3,Linux x86_64,59.88023952,2,2,9,,,,,,,,8,03,,,,,,,,,,,8,1.562,1,,,,,,0.363427242,-0.385160367,1,0,0,1.5624,Pumice_rect,8,0,8,0,1,
5e07a0898dffa00ff1aaf60f,SCN,2024-06-24_13h49.27.096,LearnStrategy,2023.2.3,Linux x86_64,59.88023952,2,2,10,,,,,,,,8,16,,,,,,,,,,,8,1.259,1,,,,,,0.352466424,-0.399202744,1,0,0,1.2592,Pumice_rect,9,0,9,0,1,
5e07a0898dffa00ff1aaf60f,SCN,2024-06-24_13h49.27.096,LearnStrategy,2023.2.3,Linux x86_64,59.88023952,2,2,11,,,,,,,,2,06,,,,,,,,,,,2,2.242,1,,,,,,-0.132638693,-0.258668105,1,0,0,2.2421,Basalt_rect,10,0,10,0,1,
5e07a0898dffa00ff1aaf60f,SCN,2024-06-24_13h49.27.096,LearnStrategy,2023.2.3,Linux x86_64,59.88023952,2,2,12,,,,,,,,7,06,,,,,,,,,,,7,1.661,1,,,,,,0.160705328,-0.417848508,1,0,0,1.6608,Peridotite_rect,11,0,11,0,1,
5e07a0898dffa00ff1aaf60f,SCN,2024-06-24_13h49.27.096,LearnStrategy,2023.2.3,Linux x86_64,59.88023952,2,2,13,,,,,,,,6,03,,,,,,,,,,,3,1.62,0,,,,,,0.081543684,-0.256483078,1,0,0,1.6197,Diorite_rect,12,0,12,0,1,
5e07a0898dffa00ff1aaf60f,SCN,2024-06-24_13h49.27.096,LearnStrategy,2023.2.3,Linux x86_64,59.88023952,2,2,14,,,,,,,,4,16,,,,,,,,,,,6,2.893,0,,,,,,-0.110135078,-0.39602677,1,0,0,2.8927,Pegmatite_rect,13,0,13,0,1,
5e07a0898dffa00ff1aaf60f,SCN,2024-06-24_13h49.27.096,LearnStrategy,2023.2.3,Linux x86_64,59.88023952,2,2,15,,,,,,,,5,16,,,,,,,,,,,5,1.276,1,,,,,,-0.359319528,-0.397336404,1,0,0,1.2757,Obsidian_rect,14,0,14,0,1,
5e07a0898dffa00ff1aaf60f,SCN,2024-06-24_13h49.27.096,LearnStrategy,2023.2.3,Linux x86_64,59.88023952,2,2,16,,,,,,,,1,04,,,,,,,,,,,1,2.825,1,,,,,,-0.363722285,-0.236295938,1,0,0,2.8248,Andesite_rect,15,0,15,0,1,
5e07a0898dffa00ff1aaf60f,SCN,2024-06-24_13h49.27.096,LearnStrategy,2023.2.3,Linux x86_64,59.88023952,3,1,1,-0.557762523,-0.236536344,1,0,0,2.6957,Obsidian_10,5,10,2,1,2.696,-0.384934147,-0.390029033,1,0,0,2.6731,Obsidian_rect,5,2.673,1,0,0,0,0,1,,,,,,,,,,,,,
5e07a0898dffa00ff1aaf60f,SCN,2024-06-24_13h49.27.096,LearnStrategy,2023.2.3,Linux x86_64,59.88023952,3,1,2,-0.401835203,-0.274479469,1,0,0,1.2134,Gabbro_14,4,14,2,2,1.213,-0.101183494,-0.388153871,1,0,0,1.8341,Pegmatite_rect,6,1.834,0,1,0,1,0,1,,,,,,,,,,,,,
5e07a0898dffa00ff1aaf60f,SCN,2024-06-24_13h49.27.096,LearnStrategy,2023.2.3,Linux x86_64,59.88023952,3,1,3,-0.219658057,-0.261698087,1,0,0,1.0969,Basalt_01,2,01,2,3,1.097,-0.137178898,-0.236006419,1,0,0,1.4672,Basalt_rect,2,1.467,1,2,0,2,0,1,,,,,,,,,,,,,
5e07a0898dffa00ff1aaf60f,SCN,2024-06-24_13h49.27.096,LearnStrategy,2023.2.3,Linux x86_64,59.88023952,3,1,4,-0.053816398,-0.281992753,1,0,0,1.3298,Pumice_15,8,15,2,4,1.33,0.372796933,-0.407403231,1,0,0,1.7543,Pumice_rect,8,1.754,1,3,0,3,0,1,,,,,,,,,,,,,
5e07a0898dffa00ff1aaf60f,SCN,2024-06-24_13h49.27.096,LearnStrategy,2023.2.3,Linux x86_64,59.88023952,3,1,5,0.082789183,-0.263381879,1,0,0,1.1963,Peridotite_02,7,02,2,5,1.196,0.092793067,-0.399764379,1,0,0,2.1424,Peridotite_rect,7,2.142,1,4,0,4,0,1,,,,,,,,,,,,,
5e07a0898dffa00ff1aaf60f,SCN,2024-06-24_13h49.27.096,LearnStrategy,2023.2.3,Linux x86_64,59.88023952,3,1,6,0.215263287,-0.286287069,1,0,0,1.4303,Gabbro_01,4,01,2,6,1.43,0.149107297,-0.264892022,1,0,0,2.0565,Diorite_rect,3,2.056,0,5,0,5,0,1,,,,,,,,,,,,,
5e07a0898dffa00ff1aaf60f,SCN,2024-06-24_13h49.27.096,LearnStrategy,2023.2.3,Linux x86_64,59.88023952,3,1,7,0.37077268,-0.265368462,1,0,0,1.1307,Pegmatite_09,6,09,2,7,1.131,0.143621922,-0.245511532,1,0,0,1.953,Diorite_rect,3,1.953,0,6,0,6,0,1,,,,,,,,,,,,,
5e07a0898dffa00ff1aaf60f,SCN,2024-06-24_13h49.27.096,LearnStrategy,2023.2.3,Linux x86_64,59.88023952,3,1,8,0.549108028,-0.246808926,1,0,0,1.3487,Gabbro_09,4,09,2,8,1.349,-0.16129152,-0.399275382,1,0,0,3.9347,Pegmatite_rect,6,3.935,0,7,0,7,0,1,,,,,,,,,,,,,
5e07a0898dffa00ff1aaf60f,SCN,2024-06-24_13h49.27.096,LearnStrategy,2023.2.3,Linux x86_64,59.88023952,3,1,9,-0.540233175,-0.413879792,1,0,0,1.5456,Gabbro_12,4,12,1,1,1.546,0.325355689,-0.231068293,1,0,0,4.25,Gabbro_rect,4,4.25,1,8,0,8,0,1,,,,,,,,,,,,,
5e07a0898dffa00ff1aaf60f,SCN,2024-06-24_13h49.27.096,LearnStrategy,2023.2.3,Linux x86_64,59.88023952,3,1,10,-0.369440675,-0.40234224,1,0,0,1.3953,Pumice_04,8,04,1,2,1.395,0.446688175,-0.384954373,1,0,0,1.4642,Pumice_rect,8,1.464,1,9,0,9,0,1,,,,,,,,,,,,,
5e07a0898dffa00ff1aaf60f,SCN,2024-06-24_13h49.27.096,LearnStrategy,2023.2.3,Linux x86_64,59.88023952,3,1,11,-0.233217239,-0.425855954,1,0,0,1.1641,Andesite_06,1,06,1,3,1.164,0.094351848,-0.257819335,1,0,0,3.9373,Diorite_rect,3,3.937,0,10,0,10,0,1,,,,,,,,,,,,,
5e07a0898dffa00ff1aaf60f,SCN,2024-06-24_13h49.27.096,LearnStrategy,2023.2.3,Linux x86_64,59.88023952,3,1,12,0.06896313,-0.39932243,1,0,0,1.3302,Obsidian_04,5,04,1,5,1.33,-0.34887747,-0.389097611,1,0,0,1.2422,Obsidian_rect,5,1.242,1,11,0,11,0,1,,,,,,,,,,,,,
5e07a0898dffa00ff1aaf60f,SCN,2024-06-24_13h49.27.096,LearnStrategy,2023.2.3,Linux x86_64,59.88023952,3,1,13,0.243756215,-0.371052583,1,0,0,1.1977,Obsidian_07,5,07,1,6,1.198,0.128459533,-0.399001122,1,0,0,3.1235,Peridotite_rect,7,3.124,0,12,0,12,0,1,,,,,,,,,,,,,
5e07a0898dffa00ff1aaf60f,SCN,2024-06-24_13h49.27.096,LearnStrategy,2023.2.3,Linux x86_64,59.88023952,3,1,14,0.3863825,-0.398528735,1,0,0,1.1634,Pumice_05,8,05,1,7,1.163,0.429454327,-0.400780916,1,0,0,1.0406,Pumice_rect,8,1.041,1,13,0,13,0,1,,,,,,,,,,,,,
5e07a0898dffa00ff1aaf60f,SCN,2024-06-24_13h49.27.096,LearnStrategy,2023.2.3,Linux x86_64,59.88023952,3,1,15,0.533998966,-0.39935867,1,0,0,1.9635,Obsidian_06,5,06,1,8,1.964,-0.337011774,-0.402891715,1,0,0,3.0846,Obsidian_rect,5,3.085,1,14,0,14,0,1,,,,,,,,,,,,,
5e07a0898dffa00ff1aaf60f,SCN,2024-06-24_13h49.27.096,LearnStrategy,2023.2.3,Linux x86_64,59.88023952,3,1,16,-0.518706997,0.427312066,1,0,0,1.5132,Gabbro_11,4,11,6,1,1.513,-0.093435764,-0.240507205,1,0,0,2.8195,Basalt_rect,2,2.82,0,15,0,15,0,1,,,,,,,,,,,,,
5e07a0898dffa00ff1aaf60f,SCN,2024-06-24_13h49.27.096,LearnStrategy,2023.2.3,Linux x86_64,59.88023952,3,2,1,,,,,,,,2,05,,,,,,,,,,,4,5.665,0,,,,,,0.362880866,-0.261745612,1,0,0,5.6654,Gabbro_rect,0,0,0,0,1,
5e07a0898dffa00ff1aaf60f,SCN,2024-06-24_13h49.27.096,LearnStrategy,2023.2.3,Linux x86_64,59.88023952,3,2,2,,,,,,,,4,13,,,,,,,,,,,6,3.429,0,,,,,,-0.049480915,-0.394078652,1,0,0,3.4286,Pegmatite_rect,1,0,1,0,1,
5e07a0898dffa00ff1aaf60f,SCN,2024-06-24_13h49.27.096,LearnStrategy,2023.2.3,Linux x86_64,59.88023952,3,2,3,,,,,,,,6,05,,,,,,,,,,,4,3.894,0,,,,,,0.310713371,-0.252818902,1,0,0,3.894,Gabbro_rect,2,0,2,0,1,
5e07a0898dffa00ff1aaf60f,SCN,2024-06-24_13h49.27.096,LearnStrategy,2023.2.3,Linux x86_64,59.88023952,3,2,4,,,,,,,,5,02,,,,,,,,,,,5,1.343,1,,,,,,-0.353565693,-0.388862689,1,0,0,1.3435,Obsidian_rect,3,0,3,0,1,
5e07a0898dffa00ff1aaf60f,SCN,2024-06-24_13h49.27.096,LearnStrategy,2023.2.3,Linux x86_64,59.88023952,3,2,5,,,,,,,,2,08,,,,,,,,,,,2,6.497,1,,,,,,-0.155589739,-0.249803782,1,0,0,6.4972,Basalt_rect,4,0,4,0,1,
5e07a0898dffa00ff1aaf60f,SCN,2024-06-24_13h49.27.096,LearnStrategy,2023.2.3,Linux x86_64,59.88023952,3,2,6,,,,,,,,5,12,,,,,,,,,,,5,1.432,1,,,,,,-0.347016891,-0.391980728,1,0,0,1.4323,Obsidian_rect,5,0,5,0,1,
5e07a0898dffa00ff1aaf60f,SCN,2024-06-24_13h49.27.096,LearnStrategy,2023.2.3,Linux x86_64,59.88023952,3,2,7,,,,,,,,3,15,,,,,,,,,,,3,2.737,1,,,,,,0.162245512,-0.241368771,1,0,0,2.7367,Diorite_rect,6,0,6,0,1,
5e07a0898dffa00ff1aaf60f,SCN,2024-06-24_13h49.27.096,LearnStrategy,2023.2.3,Linux x86_64,59.88023952,3,2,8,,,,,,,,8,09,,,,,,,,,,,8,2.561,1,,,,,,0.311863581,-0.386320591,1,0,0,2.5615,Pumice_rect,7,0,7,0,1,
5e07a0898dffa00ff1aaf60f,SCN,2024-06-24_13h49.27.096,LearnStrategy,2023.2.3,Linux x86_64,59.88023952,3,2,9,,,,,,,,8,02,,,,,,,,,,,8,2.619,1,,,,,,0.390394529,-0.405660629,1,0,0,2.6185,Pumice_rect,8,0,8,0,1,
5e07a0898dffa00ff1aaf60f,SCN,2024-06-24_13h49.27.096,LearnStrategy,2023.2.3,Linux x86_64,59.88023952,3,2,10,,,,,,,,1,10,,,,,,,,,,,4,3.162,0,,,,,,0.465933164,-0.235119104,1,0,0,3.1624,Gabbro_rect,9,0,9,0,1,
5e07a0898dffa00ff1aaf60f,SCN,2024-06-24_13h49.27.096,LearnStrategy,2023.2.3,Linux x86_64,59.88023952,3,2,11,,,,,,,,6,11,,,,,,,,,,,5,2.048,0,,,,,,-0.343604763,-0.393236955,1,0,0,2.0481,Obsidian_rect,10,0,10,0,1,
5e07a0898dffa00ff1aaf60f,SCN,2024-06-24_13h49.27.096,LearnStrategy,2023.2.3,Linux x86_64,59.88023952,3,2,12,,,,,,,,7,14,,,,,,,,,,,1,2.178,0,,,,,,-0.41047132,-0.2449344,1,0,0,2.1785,Andesite_rect,11,0,11,0,1,
5e07a0898dffa00ff1aaf60f,SCN,2024-06-24_13h49.27.096,LearnStrategy,2023.2.3,Linux x86_64,59.88023952,3,2,13,,,,,,,,3,08,,,,,,,,,,,3,1.808,1,,,,,,0.126145283,-0.234711329,1,0,0,1.8079,Diorite_rect,12,0,12,0,1,
5e07a0898dffa00ff1aaf60f,SCN,2024-06-24_13h49.27.096,LearnStrategy,2023.2.3,Linux x86_64,59.88023952,3,2,14,,,,,,,,1,14,,,,,,,,,,,3,4.239,0,,,,,,0.11436518,-0.246816556,1,0,0,4.2389,Diorite_rect,13,0,13,0,1,
5e07a0898dffa00ff1aaf60f,SCN,2024-06-24_13h49.27.096,LearnStrategy,2023.2.3,Linux x86_64,59.88023952,3,2,15,,,,,,,,7,10,,,,,,,,,,,7,2.252,1,,,,,,0.103043954,-0.387477636,1,0,0,2.2523,Peridotite_rect,14,0,14,0,1,
5e07a0898dffa00ff1aaf60f,SCN,2024-06-24_13h49.27.096,LearnStrategy,2023.2.3,Linux x86_64,59.88023952,3,2,16,,,,,,,,4,15,,,,,,,,,,,6,1.715,0,,,,,,-0.0780104,-0.396180868,1,0,0,1.7147,Pegmatite_rect,15,0,15,0,1,
5e07a0898dffa00ff1aaf60f,SCN,2024-06-24_13h49.27.096,LearnStrategy,2023.2.3,Linux x86_64,59.88023952,4,1,1,-0.539772312,0.414076338,1,0,0,1.9486,Gabbro_11,4,11,6,1,1.949,0.381769737,-0.245320638,1,0,0,1.4067,Gabbro_rect,4,1.407,1,0,0,0,0,1,,,,,,,,,,,,,
5e07a0898dffa00ff1aaf60f,SCN,2024-06-24_13h49.27.096,LearnStrategy,2023.2.3,Linux x86_64,59.88023952,4,1,2,-0.385210196,0.41270265,1,0,0,1.4321,Peridotite_07,7,07,6,2,1.432,0.070207119,-0.255429745,1,0,0,1.9646,Diorite_rect,3,1.965,0,1,0,1,0,1,,,,,,,,,,,,,
5e07a0898dffa00ff1aaf60f,SCN,2024-06-24_13h49.27.096,LearnStrategy,2023.2.3,Linux x86_64,59.88023952,4,1,3,-0.238005837,0.430480336,1,0,0,1.3783,Diorite_10,3,10,6,3,1.378,0.102042278,-0.247805834,1,0,0,1.6708,Diorite_rect,3,1.671,1,2,0,2,0,1,,,,,,,,,,,,,
5e07a0898dffa00ff1aaf60f,SCN,2024-06-24_13h49.27.096,LearnStrategy,2023.2.3,Linux x86_64,59.88023952,4,1,4,0.055227995,0.383189509,1,0,0,1.7807,Basalt_16,2,16,6,5,1.781,-0.158689102,-0.25303793,1,0,0,6.9088,Basalt_rect,2,6.909,1,3,0,3,0,1,,,,,,,,,,,,,
5e07a0898dffa00ff1aaf60f,SCN,2024-06-24_13h49.27.096,LearnStrategy,2023.2.3,Linux x86_64,59.88023952,4,1,5,0.215711196,0.400147905,1,0,0,1.5457,Pegmatite_08,6,08,6,6,1.546,0.035011609,-0.393088341,1,0,0,2.1707,Peridotite_rect,7,2.171,0,4,0,4,0,1,,,,,,,,,,,,,
5e07a0898dffa00ff1aaf60f,SCN,2024-06-24_13h49.27.096,LearnStrategy,2023.2.3,Linux x86_64,59.88023952,4,1,6,0.416722377,0.416540166,1,0,0,2.1797,Obsidian_05,5,05,6,7,2.18,-0.346554677,-0.388598045,1,0,0,1.6376,Obsidian_rect,5,1.638,1,5,0,5,0,1,,,,,,,,,,,,,
5e07a0898dffa00ff1aaf60f,SCN,2024-06-24_13h49.27.096,LearnStrategy,2023.2.3,Linux x86_64,59.88023952,4,1,7,0.522084554,0.409922053,1,0,0,1.5135,Andesite_05,1,05,6,8,1.514,0.094355822,-0.247996807,1,0,0,2.3874,Diorite_rect,3,2.387,0,6,0,6,0,1,,,,,,,,,,,,,
5e07a0898dffa00ff1aaf60f,SCN,2024-06-24_13h49.27.096,LearnStrategy,2023.2.3,Linux x86_64,59.88023952,4,1,8,-0.529588819,0.262965222,1,0,0,1.695,Diorite_09,3,09,5,1,1.695,0.157107035,-0.234412273,1,0,0,1.3821,Diorite_rect,3,1.382,1,7,0,7,0,1,,,,,,,,,,,,,
5e07a0898dffa00ff1aaf60f,SCN,2024-06-24_13h49.27.096,LearnStrategy,2023.2.3,Linux x86_64,59.88023952,4,1,9,-0.349212368,0.253056725,1,0,0,3.7772,Andesite_09,1,09,5,2,3.777,0.351797422,-0.257863124,1,0,0,4.7233,Gabbro_rect,4,4.723,0,8,0,8,0,1,,,,,,,,,,,,,
5e07a0898dffa00ff1aaf60f,SCN,2024-06-24_13h49.27.096,LearnStrategy,2023.2.3,Linux x86_64,59.88023952,4,1,10,-0.228193323,0.252082547,1,0,0,1.5798,Peridotite_13,7,13,5,3,1.58,0.093484084,-0.420679728,1,0,0,7.4596,Peridotite_rect,7,7.46,1,9,0,9,0,1,,,,,,,,,,,,,
5e07a0898dffa00ff1aaf60f,SCN,2024-06-24_13h49.27.096,LearnStrategy,2023.2.3,Linux x86_64,59.88023952,4,1,11,-0.093494018,0.2728797,1,0,0,1.4633,Diorite_12,3,12,5,4,1.463,-0.376652122,-0.245060841,1,0,0,1.6141,Andesite_rect,1,1.614,0,10,0,10,0,1,,,,,,,,,,,,,
5e07a0898dffa00ff1aaf60f,SCN,2024-06-24_13h49.27.096,LearnStrategy,2023.2.3,Linux x86_64,59.88023952,4,1,12,0.113851468,0.283348759,1,0,0,1.4474,Andesite_02,1,02,5,5,1.447,0.147462209,-0.248531342,1,0,0,1.784,Diorite_rect,3,1.784,0,11,0,11,0,1,,,,,,,,,,,,,
5e07a0898dffa00ff1aaf60f,SCN,2024-06-24_13h49.27.096,LearnStrategy,2023.2.3,Linux x86_64,59.88023952,4,1,13,0.254582485,0.230020841,1,0,0,1.6456,Andesite_07,1,07,5,6,1.646,0.105053981,-0.379670223,1,0,0,1.57,Peridotite_rect,7,1.57,0,12,0,12,0,1,,,,,,,,,,,,,
5e07a0898dffa00ff1aaf60f,SCN,2024-06-24_13h49.27.096,LearnStrategy,2023.2.3,Linux x86_64,59.88023952,4,1,14,0.386628071,0.265790443,1,0,0,1.4778,Peridotite_16,7,16,5,7,1.478,-0.088579337,-0.243908723,1,0,0,2.5035,Basalt_rect,2,2.504,0,13,0,13,0,1,,,,,,,,,,,,,
5e07a0898dffa00ff1aaf60f,SCN,2024-06-24_13h49.27.096,LearnStrategy,2023.2.3,Linux x86_64,59.88023952,4,1,15,0.572452227,0.23507762,1,0,0,1.1462,Pumice_08,8,08,5,8,1.146,0.386678855,-0.384834766,1,0,0,2.3034,Pumice_rect,8,2.303,1,14,0,14,0,1,,,,,,,,,,,,,
5e07a0898dffa00ff1aaf60f,SCN,2024-06-24_13h49.27.096,LearnStrategy,2023.2.3,Linux x86_64,59.88023952,4,1,16,-0.549367706,0.098362009,1,0,0,1.4467,Diorite_02,3,02,4,1,1.447,0.081311464,-0.384773175,1,0,0,3.0506,Peridotite_rect,7,3.051,0,15,0,15,0,1,,,,,,,,,,,,,
5e07a0898dffa00ff1aaf60f,SCN,2024-06-24_13h49.27.096,LearnStrategy,2023.2.3,Linux x86_64,59.88023952,4,2,1,,,,,,,,5,11,,,,,,,,,,,5,1.436,1,,,,,,-0.384472807,-0.41292731,1,0,0,1.4356,Obsidian_rect,0,0,0,0,1,
5e07a0898dffa00ff1aaf60f,SCN,2024-06-24_13h49.27.096,LearnStrategy,2023.2.3,Linux x86_64,59.88023952,4,2,2,,,,,,,,7,14,,,,,,,,,,,1,4.033,0,,,,,,-0.374826352,-0.234188,1,0,0,4.033,Andesite_rect,1,0,1,0,1,
5e07a0898dffa00ff1aaf60f,SCN,2024-06-24_13h49.27.096,LearnStrategy,2023.2.3,Linux x86_64,59.88023952,4,2,3,,,,,,,,5,02,,,,,,,,,,,5,1.414,1,,,,,,-0.373460094,-0.399175406,1,0,0,1.414,Obsidian_rect,2,0,2,0,1,
5e07a0898dffa00ff1aaf60f,SCN,2024-06-24_13h49.27.096,LearnStrategy,2023.2.3,Linux x86_64,59.88023952,4,2,4,,,,,,,,1,03,,,,,,,,,,,2,5.614,0,,,,,,-0.120332162,-0.240493059,1,0,0,5.6138,Basalt_rect,3,0,3,0,1,
5e07a0898dffa00ff1aaf60f,SCN,2024-06-24_13h49.27.096,LearnStrategy,2023.2.3,Linux x86_64,59.88023952,4,2,5,,,,,,,,6,05,,,,,,,,,,,3,4.358,0,,,,,,0.117029905,-0.256955544,1,0,0,4.3582,Diorite_rect,4,0,4,0,1,
5e07a0898dffa00ff1aaf60f,SCN,2024-06-24_13h49.27.096,LearnStrategy,2023.2.3,Linux x86_64,59.88023952,4,2,6,,,,,,,,8,02,,,,,,,,,,,8,1.58,1,,,,,,0.384062688,-0.391742865,1,0,0,1.5797,Pumice_rect,5,0,5,0,1,
5e07a0898dffa00ff1aaf60f,SCN,2024-06-24_13h49.27.096,LearnStrategy,2023.2.3,Linux x86_64,59.88023952,4,2,7,,,,,,,,2,06,,,,,,,,,,,4,2.299,0,,,,,,0.466809114,-0.241002639,1,0,0,2.2995,Gabbro_rect,6,0,6,0,1,
5e07a0898dffa00ff1aaf60f,SCN,2024-06-24_13h49.27.096,LearnStrategy,2023.2.3,Linux x86_64,59.88023952,4,2,8,,,,,,,,8,06,,,,,,,,,,,8,1.391,1,,,,,,0.332724412,-0.379172802,1,0,0,1.3905,Pumice_rect,7,0,7,0,1,
5e07a0898dffa00ff1aaf60f,SCN,2024-06-24_13h49.27.096,LearnStrategy,2023.2.3,Linux x86_64,59.88023952,4,2,9,,,,,,,,7,12,,,,,,,,,,,3,2.821,0,,,,,,0.130268653,-0.253673712,1,0,0,2.8205,Diorite_rect,8,0,8,0,1,
5e07a0898dffa00ff1aaf60f,SCN,2024-06-24_13h49.27.096,LearnStrategy,2023.2.3,Linux x86_64,59.88023952,4,2,10,,,,,,,,6,10,,,,,,,,,,,7,2.222,0,,,,,,0.103764772,-0.408104261,1,0,0,2.2223,Peridotite_rect,9,0,9,0,1,
5e07a0898dffa00ff1aaf60f,SCN,2024-06-24_13h49.27.096,LearnStrategy,2023.2.3,Linux x86_64,59.88023952,4,2,11,,,,,,,,1,04,,,,,,,,,,,1,2.847,1,,,,,,-0.365701516,-0.248357932,1,0,0,2.8468,Andesite_rect,10,0,10,0,1,
5e07a0898dffa00ff1aaf60f,SCN,2024-06-24_13h49.27.096,LearnStrategy,2023.2.3,Linux x86_64,59.88023952,4,2,12,,,,,,,,4,05,,,,,,,,,,,6,4.497,0,,,,,,-0.066933314,-0.400087357,1,0,0,4.4967,Pegmatite_rect,11,0,11,0,1,
5e07a0898dffa00ff1aaf60f,SCN,2024-06-24_13h49.27.096,LearnStrategy,2023.2.3,Linux x86_64,59.88023952,4,2,13,,,,,,,,4,15,,,,,,,,,,,3,3.93,0,,,,,,0.117625554,-0.253011942,1,0,0,3.9301,Diorite_rect,12,0,12,0,1,
5e07a0898dffa00ff1aaf60f,SCN,2024-06-24_13h49.27.096,LearnStrategy,2023.2.3,Linux x86_64,59.88023952,4,2,14,,,,,,,,2,05,,,,,,,,,,,4,2.259,0,,,,,,0.35295701,-0.251663526,1,0,0,2.2593,Gabbro_rect,13,0,13,0,1,
5e07a0898dffa00ff1aaf60f,SCN,2024-06-24_13h49.27.096,LearnStrategy,2023.2.3,Linux x86_64,59.88023952,4,2,15,,,,,,,,3,06,,,,,,,,,,,1,2.342,0,,,,,,-0.415241281,-0.233783881,1,0,0,2.3424,Andesite_rect,14,0,14,0,1,
5e07a0898dffa00ff1aaf60f,SCN,2024-06-24_13h49.27.096,LearnStrategy,2023.2.3,Linux x86_64,59.88023952,4,2,16,,,,,,,,3,16,,,,,,,,,,,3,2.944,1,,,,,,0.121049086,-0.248984416,1,0,0,2.9445,Diorite_rect,15,0,15,0,1,
5e07a0898dffa00ff1aaf60f,SCN,2024-06-24_13h49.27.096,LearnStrategy,2023.2.3,Linux x86_64,59.88023952,5,1,1,-0.523529649,0.404982169,1,0,0,3.9514,Gabbro_11,4,11,6,1,3.951,0.398588339,-0.241323471,1,0,0,1.2432,Gabbro_rect,4,1.243,1,0,0,0,0,1,,,,,,,,,,,,,
5e07a0898dffa00ff1aaf60f,SCN,2024-06-24_13h49.27.096,LearnStrategy,2023.2.3,Linux x86_64,59.88023952,5,1,2,-0.367830038,0.417502503,1,0,0,0.9308,Peridotite_07,7,07,6,2,0.931,0.08841761,-0.400479555,1,0,0,3.9186,Peridotite_rect,7,3.919,1,1,0,1,0,1,,,,,,,,,,,,,
5e07a0898dffa00ff1aaf60f,SCN,2024-06-24_13h49.27.096,LearnStrategy,2023.2.3,Linux x86_64,59.88023952,5,1,3,-0.207730452,0.385300209,1,0,0,1.5128,Diorite_10,3,10,6,3,1.513,0.186970711,-0.240099589,1,0,0,4.0335,Diorite_rect,3,4.034,1,2,0,2,0,1,,,,,,,,,,,,,
5e07a0898dffa00ff1aaf60f,SCN,2024-06-24_13h49.27.096,LearnStrategy,2023.2.3,Linux x86_64,59.88023952,5,1,4,0.09821558,0.439256524,1,0,0,1.7792,Basalt_16,2,16,6,5,1.779,-0.110027234,-0.246016184,1,0,0,5.9521,Basalt_rect,2,5.952,1,3,0,3,0,1,,,,,,,,,,,,,
5e07a0898dffa00ff1aaf60f,SCN,2024-06-24_13h49.27.096,LearnStrategy,2023.2.3,Linux x86_64,59.88023952,5,1,5,0.249401569,0.413439761,1,0,0,1.6124,Pegmatite_08,6,08,6,6,1.612,0.083316565,-0.403059244,1,0,0,2.6203,Peridotite_rect,7,2.62,0,4,0,4,0,1,,,,,,,,,,,,,
5e07a0898dffa00ff1aaf60f,SCN,2024-06-24_13h49.27.096,LearnStrategy,2023.2.3,Linux x86_64,59.88023952,5,1,6,0.438407342,0.421030561,1,0,0,1.73,Obsidian_05,5,05,6,7,1.73,-0.371902744,-0.393350204,1,0,0,1.4288,Obsidian_rect,5,1.429,1,5,0,5,0,1,,,,,,,,,,,,,
5e07a0898dffa00ff1aaf60f,SCN,2024-06-24_13h49.27.096,LearnStrategy,2023.2.3,Linux x86_64,59.88023952,5,1,7,0.528025309,0.400511324,1,0,0,1.7458,Andesite_05,1,05,6,8,1.746,-0.344361464,-0.229357322,1,0,0,3.3578,Andesite_rect,1,3.358,1,6,0,6,0,1,,,,,,,,,,,,,
5e07a0898dffa00ff1aaf60f,SCN,2024-06-24_13h49.27.096,LearnStrategy,2023.2.3,Linux x86_64,59.88023952,5,1,8,-0.577238719,0.264390429,1,0,0,1.8295,Diorite_09,3,09,5,1,1.83,0.143112818,-0.255903403,1,0,0,2.2682,Diorite_rect,3,2.268,1,7,0,7,0,1,,,,,,,,,,,,,
5e07a0898dffa00ff1aaf60f,SCN,2024-06-24_13h49.27.096,LearnStrategy,2023.2.3,Linux x86_64,59.88023952,5,1,9,-0.380006949,0.248645246,1,0,0,2.2794,Andesite_09,1,09,5,2,2.279,0.381327391,-0.268948952,1,0,0,2.985,Gabbro_rect,4,2.985,0,8,0,8,0,1,,,,,,,,,,,,,
5e07a0898dffa00ff1aaf60f,SCN,2024-06-24_13h49.27.096,LearnStrategy,2023.2.3,Linux x86_64,59.88023952,5,1,10,-0.227706591,0.24560529,1,0,0,1.88,Peridotite_13,7,13,5,3,1.88,0.078367392,-0.392974377,1,0,0,1.6189,Peridotite_rect,7,1.619,1,9,0,9,0,1,,,,,,,,,,,,,
5e07a0898dffa00ff1aaf60f,SCN,2024-06-24_13h49.27.096,LearnStrategy,2023.2.3,Linux x86_64,59.88023952,5,1,11,-0.081759373,0.264747123,1,0,0,1.347,Diorite_12,3,12,5,4,1.347,-0.357132395,-0.254827102,1,0,0,1.7402,Andesite_rect,1,1.74,0,10,0,10,0,1,,,,,,,,,,,,,
5e07a0898dffa00ff1aaf60f,SCN,2024-06-24_13h49.27.096,LearnStrategy,2023.2.3,Linux x86_64,59.88023952,5,1,12,0.05447197,0.217994928,1,0,0,1.4634,Andesite_02,1,02,5,5,1.463,-0.332446416,-0.243226608,1,0,0,2.3628,Andesite_rect,1,2.363,1,11,0,11,0,1,,,,,,,,,,,,,
5e07a0898dffa00ff1aaf60f,SCN,2024-06-24_13h49.27.096,LearnStrategy,2023.2.3,Linux x86_64,59.88023952,5,1,13,0.26257356,0.234137257,1,0,0,1.3126,Andesite_07,1,07,5,6,1.313,0.092624029,-0.240698735,1,0,0,4.3352,Diorite_rect,3,4.335,0,12,0,12,0,1,,,,,,,,,,,,,
5e07a0898dffa00ff1aaf60f,SCN,2024-06-24_13h49.27.096,LearnStrategy,2023.2.3,Linux x86_64,59.88023952,5,1,14,0.378875812,0.223073939,1,0,0,1.7962,Peridotite_16,7,16,5,7,1.796,0.410952886,-0.243918816,1,0,0,3.8371,Gabbro_rect,4,3.837,0,13,0,13,0,1,,,,,,,,,,,,,
5e07a0898dffa00ff1aaf60f,SCN,2024-06-24_13h49.27.096,LearnStrategy,2023.2.3,Linux x86_64,59.88023952,5,1,15,0.550010204,0.253188769,1,0,0,1.4795,Pumice_08,8,08,5,8,1.48,0.371158123,-0.39943854,1,0,0,1.4888,Pumice_rect,8,1.489,1,14,0,14,0,1,,,,,,,,,,,,,
5e07a0898dffa00ff1aaf60f,SCN,2024-06-24_13h49.27.096,LearnStrategy,2023.2.3,Linux x86_64,59.88023952,5,1,16,0.398355246,0.101738254,1,0,0,2.2794,Gabbro_08,4,08,4,7,2.279,-0.151307344,-0.257239103,1,0,0,1.72,Basalt_rect,2,1.72,0,15,0,15,0,1,,,,,,,,,,,,,
5e07a0898dffa00ff1aaf60f,SCN,2024-06-24_13h49.27.096,LearnStrategy,2023.2.3,Linux x86_64,59.88023952,5,2,1,,,,,,,,8,16,,,,,,,,,,,8,1.771,1,,,,,,0.43024683,-0.391209841,1,0,0,1.7705,Pumice_rect,0,0,0,0,1,
5e07a0898dffa00ff1aaf60f,SCN,2024-06-24_13h49.27.096,LearnStrategy,2023.2.3,Linux x86_64,59.88023952,5,2,2,,,,,,,,6,03,,,,,,,,,,,7,2.402,0,,,,,,0.129555623,-0.38402017,1,0,0,2.4021,Peridotite_rect,1,0,1,0,1,
5e07a0898dffa00ff1aaf60f,SCN,2024-06-24_13h49.27.096,LearnStrategy,2023.2.3,Linux x86_64,59.88023952,5,2,3,,,,,,,,5,09,,,,,,,,,,,5,1.285,1,,,,,,-0.374637763,-0.388598522,1,0,0,1.2846,Obsidian_rect,2,0,2,0,1,
5e07a0898dffa00ff1aaf60f,SCN,2024-06-24_13h49.27.096,LearnStrategy,2023.2.3,Linux x86_64,59.88023952,5,2,4,,,,,,,,8,03,,,,,,,,,,,8,1.455,1,,,,,,0.370212396,-0.3861022,1,0,0,1.4552,Pumice_rect,3,0,3,0,1,
5e07a0898dffa00ff1aaf60f,SCN,2024-06-24_13h49.27.096,LearnStrategy,2023.2.3,Linux x86_64,59.88023952,5,2,5,,,,,,,,4,10,,,,,,,,,,,4,3.57,1,,,,,,0.398951769,-0.257265806,1,0,0,3.57,Gabbro_rect,4,0,4,0,1,
5e07a0898dffa00ff1aaf60f,SCN,2024-06-24_13h49.27.096,LearnStrategy,2023.2.3,Linux x86_64,59.88023952,5,2,6,,,,,,,,2,09,,,,,,,,,,,2,2.077,1,,,,,,-0.156291803,-0.236905893,1,0,0,2.0767,Basalt_rect,5,0,5,0,1,
5e07a0898dffa00ff1aaf60f,SCN,2024-06-24_13h49.27.096,LearnStrategy,2023.2.3,Linux x86_64,59.88023952,5,2,7,,,,,,,,7,04,,,,,,,,,,,6,2.661,0,,,,,,-0.079169671,-0.393198013,1,0,0,2.6608,Pegmatite_rect,6,0,6,0,1,
5e07a0898dffa00ff1aaf60f,SCN,2024-06-24_13h49.27.096,LearnStrategy,2023.2.3,Linux x86_64,59.88023952,5,2,8,,,,,,,,1,14,,,,,,,,,,,3,3.789,0,,,,,,0.114469846,-0.249578317,1,0,0,3.7887,Diorite_rect,7,0,7,0,1,
5e07a0898dffa00ff1aaf60f,SCN,2024-06-24_13h49.27.096,LearnStrategy,2023.2.3,Linux x86_64,59.88023952,5,2,9,,,,,,,,3,11,,,,,,,,,,,1,2.297,0,,,,,,-0.358630816,-0.249379953,1,0,0,2.2974,Andesite_rect,8,0,8,0,1,
5e07a0898dffa00ff1aaf60f,SCN,2024-06-24_13h49.27.096,LearnStrategy,2023.2.3,Linux x86_64,59.88023952,5,2,10,,,,,,,,1,10,,,,,,,,,,,1,1.821,1,,,,,,-0.358630816,-0.249379953,1,0,0,1.8209,Andesite_rect,9,0,9,0,1,
5e07a0898dffa00ff1aaf60f,SCN,2024-06-24_13h49.27.096,LearnStrategy,2023.2.3,Linux x86_64,59.88023952,5,2,11,,,,,,,,6,11,,,,,,,,,,,6,1.704,1,,,,,,-0.101544539,-0.414724668,1,0,0,1.704,Pegmatite_rect,10,0,10,0,1,
5e07a0898dffa00ff1aaf60f,SCN,2024-06-24_13h49.27.096,LearnStrategy,2023.2.3,Linux x86_64,59.88023952,5,2,12,,,,,,,,2,10,,,,,,,,,,,2,2.945,1,,,,,,-0.08672293,-0.255918264,1,0,0,2.9451,Basalt_rect,11,0,11,0,1,
5e07a0898dffa00ff1aaf60f,SCN,2024-06-24_13h49.27.096,LearnStrategy,2023.2.3,Linux x86_64,59.88023952,5,2,13,,,,,,,,3,14,,,,,,,,,,,3,7.419,1,,,,,,0.089647293,-0.249633233,1,0,0,7.4189,Diorite_rect,12,0,12,0,1,
5e07a0898dffa00ff1aaf60f,SCN,2024-06-24_13h49.27.096,LearnStrategy,2023.2.3,Linux x86_64,59.88023952,5,2,14,,,,,,,,5,16,,,,,,,,,,,5,1.678,1,,,,,,-0.385691404,-0.399317344,1,0,0,1.6782,Obsidian_rect,13,0,13,0,1,
5e07a0898dffa00ff1aaf60f,SCN,2024-06-24_13h49.27.096,LearnStrategy,2023.2.3,Linux x86_64,59.88023952,5,2,15,,,,,,,,4,16,,,,,,,,,,,2,1.445,0,,,,,,-0.12081488,-0.240096251,1,0,0,1.4447,Basalt_rect,14,0,14,0,1,
5e07a0898dffa00ff1aaf60f,SCN,2024-06-24_13h49.27.096,LearnStrategy,2023.2.3,Linux x86_64,59.88023952,5,2,16,,,,,,,,7,10,,,,,,,,,,,7,1.627,1,,,,,,0.06472826,-0.385204077,1,0,0,1.6273,Peridotite_rect,15,0,15,0,1,
5e07a0898dffa00ff1aaf60f,SCN,2024-06-24_13h49.27.096,LearnStrategy,2023.2.3,Linux x86_64,59.88023952,6,1,1,-0.548220078,-0.395047506,1,0,0,2.1947,Gabbro_12,4,12,1,1,2.195,0.420456807,-0.232861519,1,0,0,5.4496,Gabbro_rect,4,5.45,1,0,0,0,0,1,,,,,,,,,,,,,
5e07a0898dffa00ff1aaf60f,SCN,2024-06-24_13h49.27.096,LearnStrategy,2023.2.3,Linux x86_64,59.88023952,6,1,2,-0.411381841,-0.425346613,1,0,0,1.0959,Pumice_04,8,04,1,2,1.096,0.356817007,-0.394782861,1,0,0,1.462,Pumice_rect,8,1.462,1,1,0,1,0,1,,,,,,,,,,,,,
5e07a0898dffa00ff1aaf60f,SCN,2024-06-24_13h49.27.096,LearnStrategy,2023.2.3,Linux x86_64,59.88023952,6,1,3,-0.213261843,-0.415439367,1,0,0,1.1318,Andesite_06,1,06,1,3,1.132,-0.339284976,-0.249408166,1,0,0,2.5544,Andesite_rect,1,2.554,1,2,0,2,0,1,,,,,,,,,,,,,
5e07a0898dffa00ff1aaf60f,SCN,2024-06-24_13h49.27.096,LearnStrategy,2023.2.3,Linux x86_64,59.88023952,6,1,4,-0.09298412,-0.416258256,1,0,0,1.2801,Basalt_02,2,02,1,4,1.28,-0.07598424,-0.253777901,1,0,0,1.8766,Basalt_rect,2,1.877,1,3,0,3,0,1,,,,,,,,,,,,,
5e07a0898dffa00ff1aaf60f,SCN,2024-06-24_13h49.27.096,LearnStrategy,2023.2.3,Linux x86_64,59.88023952,6,1,5,0.070654869,-0.426832438,1,0,0,1.7641,Obsidian_04,5,04,1,5,1.764,-0.405845006,-0.387445768,1,0,0,1.0574,Obsidian_rect,5,1.057,1,4,0,4,0,1,,,,,,,,,,,,,
5e07a0898dffa00ff1aaf60f,SCN,2024-06-24_13h49.27.096,LearnStrategy,2023.2.3,Linux x86_64,59.88023952,6,1,6,0.236007293,-0.391784668,1,0,0,1.0963,Obsidian_07,5,07,1,6,1.096,-0.340329766,-0.382006884,1,0,0,2.5559,Obsidian_rect,5,2.556,1,5,0,5,0,1,,,,,,,,,,,,,
5e07a0898dffa00ff1aaf60f,SCN,2024-06-24_13h49.27.096,LearnStrategy,2023.2.3,Linux x86_64,59.88023952,6,1,7,0.393939018,-0.414485852,1,0,0,1.4303,Pumice_05,8,05,1,7,1.43,0.393939018,-0.40181764,1,0,0,1.0677,Pumice_rect,8,1.068,1,6,0,6,0,1,,,,,,,,,,,,,
5e07a0898dffa00ff1aaf60f,SCN,2024-06-24_13h49.27.096,LearnStrategy,2023.2.3,Linux x86_64,59.88023952,6,1,8,0.551486651,-0.41403842,1,0,0,1.531,Obsidian_06,5,06,1,8,1.531,-0.370733102,-0.389346997,1,0,0,1.2927,Obsidian_rect,5,1.293,1,7,0,7,0,1,,,,,,,,,,,,,
5e07a0898dffa00ff1aaf60f,SCN,2024-06-24_13h49.27.096,LearnStrategy,2023.2.3,Linux x86_64,59.88023952,6,1,9,-0.551236669,-0.242181063,1,0,0,1.2805,Obsidian_10,5,10,2,1,1.281,-0.426500479,-0.394346396,1,0,0,1.1818,Obsidian_rect,5,1.182,1,8,0,8,0,1,,,,,,,,,,,,,
5e07a0898dffa00ff1aaf60f,SCN,2024-06-24_13h49.27.096,LearnStrategy,2023.2.3,Linux x86_64,59.88023952,6,1,10,-0.382082065,-0.241449674,1,0,0,1.0153,Gabbro_14,4,14,2,2,1.015,0.42917649,-0.257937749,1,0,0,2.429,Gabbro_rect,4,2.429,1,9,0,9,0,1,,,,,,,,,,,,,
5e07a0898dffa00ff1aaf60f,SCN,2024-06-24_13h49.27.096,LearnStrategy,2023.2.3,Linux x86_64,59.88023952,6,1,11,-0.217320522,-0.251982133,1,0,0,1.081,Basalt_01,2,01,2,3,1.081,-0.115513643,-0.235704104,1,0,0,1.4542,Basalt_rect,2,1.454,1,10,0,10,0,1,,,,,,,,,,,,,
5e07a0898dffa00ff1aaf60f,SCN,2024-06-24_13h49.27.096,LearnStrategy,2023.2.3,Linux x86_64,59.88023952,6,1,12,-0.077994823,-0.249260902,1,0,0,1.0471,Pumice_15,8,15,2,4,1.047,0.434545914,-0.387624264,1,0,0,1.1653,Pumice_rect,8,1.165,1,11,0,11,0,1,,,,,,,,,,,,,
5e07a0898dffa00ff1aaf60f,SCN,2024-06-24_13h49.27.096,LearnStrategy,2023.2.3,Linux x86_64,59.88023952,6,1,13,0.058339675,-0.250828902,1,0,0,0.981,Peridotite_02,7,02,2,5,0.981,0.086084684,-0.386892875,1,0,0,1.2997,Peridotite_rect,7,1.3,1,12,0,12,0,1,,,,,,,,,,,,,
5e07a0898dffa00ff1aaf60f,SCN,2024-06-24_13h49.27.096,LearnStrategy,2023.2.3,Linux x86_64,59.88023952,6,1,14,0.221039375,-0.288424651,1,0,0,1.0146,Gabbro_01,4,01,2,6,1.015,0.373186509,-0.239664555,1,0,0,4.6714,Gabbro_rect,4,4.671,1,13,0,13,0,1,,,,,,,,,,,,,
5e07a0898dffa00ff1aaf60f,SCN,2024-06-24_13h49.27.096,LearnStrategy,2023.2.3,Linux x86_64,59.88023952,6,1,15,0.358674685,-0.253574689,1,0,0,2.5954,Pegmatite_09,6,09,2,7,2.595,-0.094300906,-0.382910252,1,0,0,1.4676,Pegmatite_rect,6,1.468,1,14,0,14,0,1,,,,,,,,,,,,,
5e07a0898dffa00ff1aaf60f,SCN,2024-06-24_13h49.27.096,LearnStrategy,2023.2.3,Linux x86_64,59.88023952,6,1,16,0.532103221,-0.275509278,1,0,0,1.1968,Gabbro_09,4,09,2,8,1.197,0.338443041,-0.268312931,1,0,0,3.4172,Gabbro_rect,4,3.417,1,15,0,15,0,1,,,,,,,,,,,,,
5e07a0898dffa00ff1aaf60f,SCN,2024-06-24_13h49.27.096,LearnStrategy,2023.2.3,Linux x86_64,59.88023952,6,2,1,,,,,,,,4,13,,,,,,,,,,,4,2.202,1,,,,,,0.346089045,-0.245174885,1,0,0,2.2019,Gabbro_rect,0,0,0,0,1,
5e07a0898dffa00ff1aaf60f,SCN,2024-06-24_13h49.27.096,LearnStrategy,2023.2.3,Linux x86_64,59.88023952,6,2,2,,,,,,,,3,08,,,,,,,,,,,7,2.447,0,,,,,,0.107294321,-0.39309152,1,0,0,2.4469,Peridotite_rect,1,0,1,0,1,
5e07a0898dffa00ff1aaf60f,SCN,2024-06-24_13h49.27.096,LearnStrategy,2023.2.3,Linux x86_64,59.88023952,6,2,3,,,,,,,,5,14,,,,,,,,,,,5,1.43,1,,,,,,-0.441158851,-0.407073657,1,0,0,1.4296,Obsidian_rect,2,0,2,0,1,
5e07a0898dffa00ff1aaf60f,SCN,2024-06-24_13h49.27.096,LearnStrategy,2023.2.3,Linux x86_64,59.88023952,6,2,4,,,,,,,,4,03,,,,,,,,,,,3,3.65,0,,,,,,0.104919036,-0.251603206,1,0,0,3.6497,Diorite_rect,3,0,3,0,1,
5e07a0898dffa00ff1aaf60f,SCN,2024-06-24_13h49.27.096,LearnStrategy,2023.2.3,Linux x86_64,59.88023952,6,2,5,,,,,,,,3,15,,,,,,,,,,,1,1.711,0,,,,,,-0.432722529,-0.242203236,1,0,0,1.7115,Andesite_rect,4,0,4,0,1,
5e07a0898dffa00ff1aaf60f,SCN,2024-06-24_13h49.27.096,LearnStrategy,2023.2.3,Linux x86_64,59.88023952,6,2,6,,,,,,,,7,15,,,,,,,,,,,7,1.407,1,,,,,,0.070552429,-0.398502032,1,0,0,1.407,Peridotite_rect,5,0,5,0,1,
5e07a0898dffa00ff1aaf60f,SCN,2024-06-24_13h49.27.096,LearnStrategy,2023.2.3,Linux x86_64,59.88023952,6,2,7,,,,,,,,6,15,,,,,,,,,,,6,1.262,1,,,,,,-0.074642817,-0.402207613,1,0,0,1.2617,Pegmatite_rect,6,0,6,0,1,
5e07a0898dffa00ff1aaf60f,SCN,2024-06-24_13h49.27.096,LearnStrategy,2023.2.3,Linux x86_64,59.88023952,6,2,8,,,,,,,,7,06,,,,,,,,,,,7,1.523,1,,,,,,0.113708099,-0.411420663,1,0,0,1.5227,Peridotite_rect,7,0,7,0,1,
5e07a0898dffa00ff1aaf60f,SCN,2024-06-24_13h49.27.096,LearnStrategy,2023.2.3,Linux x86_64,59.88023952,6,2,9,,,,,,,,8,14,,,,,,,,,,,8,2.601,1,,,,,,0.331582308,-0.393814325,1,0,0,2.6006,Pumice_rect,8,0,8,0,1,
5e07a0898dffa00ff1aaf60f,SCN,2024-06-24_13h49.27.096,LearnStrategy,2023.2.3,Linux x86_64,59.88023952,6,2,10,,,,,,,,8,09,,,,,,,,,,,8,1.31,1,,,,,,0.395473719,-0.392967701,1,0,0,1.3102,Pumice_rect,9,0,9,0,1,
5e07a0898dffa00ff1aaf60f,SCN,2024-06-24_13h49.27.096,LearnStrategy,2023.2.3,Linux x86_64,59.88023952,6,2,11,,,,,,,,1,11,,,,,,,,,,,7,5.32,0,,,,,,0.09932216,-0.402097623,1,0,0,5.3204,Peridotite_rect,10,0,10,0,1,
5e07a0898dffa00ff1aaf60f,SCN,2024-06-24_13h49.27.096,LearnStrategy,2023.2.3,Linux x86_64,59.88023952,6,2,12,,,,,,,,1,16,,,,,,,,,,,7,4.521,0,,,,,,0.111146212,-0.39787515,1,0,0,4.5207,Peridotite_rect,11,0,11,0,1,
5e07a0898dffa00ff1aaf60f,SCN,2024-06-24_13h49.27.096,LearnStrategy,2023.2.3,Linux x86_64,59.88023952,6,2,13,,,,,,,,2,14,,,,,,,,,,,4,3.813,0,,,,,,0.36639301,-0.25165232,1,0,0,3.8131,Gabbro_rect,12,0,12,0,1,
5e07a0898dffa00ff1aaf60f,SCN,2024-06-24_13h49.27.096,LearnStrategy,2023.2.3,Linux x86_64,59.88023952,6,2,14,,,,,,,,2,08,,,,,,,,,,,2,1.267,1,,,,,,-0.131499211,-0.242963711,1,0,0,1.2673,Basalt_rect,13,0,13,0,1,
5e07a0898dffa00ff1aaf60f,SCN,2024-06-24_13h49.27.096,LearnStrategy,2023.2.3,Linux x86_64,59.88023952,6,2,15,,,,,,,,6,12,,,,,,,,,,,6,4.04,1,,,,,,-0.105656147,-0.382930517,1,0,0,4.04,Pegmatite_rect,14,0,14,0,1,
5e07a0898dffa00ff1aaf60f,SCN,2024-06-24_13h49.27.096,LearnStrategy,2023.2.3,Linux x86_64,59.88023952,6,2,16,,,,,,,,5,12,,,,,,,,,,,5,1.374,1,,,,,,-0.408724109,-0.401941935,1,0,0,1.3744,Obsidian_rect,15,0,15,0,1,
5e07a0898dffa00ff1aaf60f,SCN,2024-06-24_13h49.27.096,LearnStrategy,2023.2.3,Linux x86_64,59.88023952,7,1,1,-0.522037307,-0.100689292,1,0,0,2.7461,Peridotite_08,7,08,3,1,2.746,0.126947244,-0.3941377,1,0,0,3.5831,Peridotite_rect,7,3.583,1,0,0,0,0,1,,,,,,,,,,,,,
5e07a0898dffa00ff1aaf60f,SCN,2024-06-24_13h49.27.096,LearnStrategy,2023.2.3,Linux x86_64,59.88023952,7,1,2,-0.403757016,-0.098051111,1,0,0,1.3469,Pegmatite_16,6,16,3,2,1.347,-0.118585269,-0.39683938,1,0,0,1.6562,Pegmatite_rect,6,1.656,1,1,0,1,0,1,,,,,,,,,,,,,
5e07a0898dffa00ff1aaf60f,SCN,2024-06-24_13h49.27.096,LearnStrategy,2023.2.3,Linux x86_64,59.88023952,7,1,3,-0.202828089,-0.086095452,1,0,0,1.1633,Pegmatite_06,6,06,3,3,1.163,-0.148450692,-0.385775487,1,0,0,2.5088,Pegmatite_rect,6,2.509,1,2,0,2,0,1,,,,,,,,,,,,,
5e07a0898dffa00ff1aaf60f,SCN,2024-06-24_13h49.27.096,LearnStrategy,2023.2.3,Linux x86_64,59.88023952,7,1,4,-0.092813492,-0.099035621,1,0,0,1.0981,Pegmatite_07,6,07,3,4,1.098,-0.133212566,-0.409709056,1,0,0,1.5861,Pegmatite_rect,6,1.586,1,3,0,3,0,1,,,,,,,,,,,,,
5e07a0898dffa00ff1aaf60f,SCN,2024-06-24_13h49.27.096,LearnStrategy,2023.2.3,Linux x86_64,59.88023952,7,1,5,0.068935792,-0.105207761,1,0,0,1.0132,Pumice_13,8,13,3,5,1.013,0.388952096,-0.248021762,1,0,0,3.0275,Gabbro_rect,4,3.027,0,4,0,4,0,1,,,,,,,,,,,,,
5e07a0898dffa00ff1aaf60f,SCN,2024-06-24_13h49.27.096,LearnStrategy,2023.2.3,Linux x86_64,59.88023952,7,1,6,0.266021331,-0.115714669,1,0,0,1.0988,Pumice_10,8,10,3,6,1.099,0.345354716,-0.393791199,1,0,0,1.5526,Pumice_rect,8,1.553,1,5,0,5,0,1,,,,,,,,,,,,,
5e07a0898dffa00ff1aaf60f,SCN,2024-06-24_13h49.27.096,LearnStrategy,2023.2.3,Linux x86_64,59.88023952,7,1,7,0.408889135,-0.101147095,1,0,0,1.0116,Andesite_01,1,01,3,7,1.012,0.380697727,-0.236028671,1,0,0,4.4569,Gabbro_rect,4,4.457,0,6,0,6,0,1,,,,,,,,,,,,,
5e07a0898dffa00ff1aaf60f,SCN,2024-06-24_13h49.27.096,LearnStrategy,2023.2.3,Linux x86_64,59.88023952,7,1,8,0.532404423,-0.100432714,1,0,0,1.3634,Peridotite_05,7,05,3,8,1.363,0.130486329,-0.384297212,1,0,0,4.0819,Peridotite_rect,7,4.082,1,7,0,7,0,1,,,,,,,,,,,,,
5e07a0898dffa00ff1aaf60f,SCN,2024-06-24_13h49.27.096,LearnStrategy,2023.2.3,Linux x86_64,59.88023952,7,1,9,0.553100427,0.103489121,1,0,0,1.5793,Obsidian_08,5,08,4,8,1.579,-0.328785062,-0.396863937,1,0,0,1.4179,Obsidian_rect,5,1.418,1,8,0,8,0,1,,,,,,,,,,,,,
5e07a0898dffa00ff1aaf60f,SCN,2024-06-24_13h49.27.096,LearnStrategy,2023.2.3,Linux x86_64,59.88023952,7,1,10,0.384788036,0.077965776,1,0,0,1.3989,Gabbro_08,4,08,4,7,1.399,0.354488929,-0.247258027,1,0,0,3.0765,Gabbro_rect,4,3.076,1,9,0,9,0,1,,,,,,,,,,,,,
5e07a0898dffa00ff1aaf60f,SCN,2024-06-24_13h49.27.096,LearnStrategy,2023.2.3,Linux x86_64,59.88023952,7,1,11,0.221858025,0.097875992,1,0,0,1.064,Basalt_04,2,04,4,6,1.064,-0.095197757,-0.239321311,1,0,0,1.4862,Basalt_rect,2,1.486,1,10,0,10,0,1,,,,,,,,,,,,,
5e07a0898dffa00ff1aaf60f,SCN,2024-06-24_13h49.27.096,LearnStrategy,2023.2.3,Linux x86_64,59.88023952,7,1,12,0.102137248,0.101370692,1,0,0,1.2469,Pegmatite_13,6,13,4,5,1.247,-0.086820761,-0.404795647,1,0,0,2.8045,Pegmatite_rect,6,2.804,1,11,0,11,0,1,,,,,,,,,,,,,
5e07a0898dffa00ff1aaf60f,SCN,2024-06-24_13h49.27.096,LearnStrategy,2023.2.3,Linux x86_64,59.88023952,7,1,13,-0.047982613,0.120918671,1,0,0,1.0813,Diorite_13,3,13,4,4,1.081,0.129418453,-0.26745828,1,0,0,1.8695,Diorite_rect,3,1.87,1,12,0,12,0,1,,,,,,,,,,,,,
5e07a0898dffa00ff1aaf60f,SCN,2024-06-24_13h49.27.096,LearnStrategy,2023.2.3,Linux x86_64,59.88023952,7,1,14,-0.221533696,0.082676609,1,0,0,1.8969,Basalt_12,2,12,4,3,1.897,0.389620384,-0.395396948,1,0,0,1.8499,Pumice_rect,8,1.85,0,13,0,13,0,1,,,,,,,,,,,,,
5e07a0898dffa00ff1aaf60f,SCN,2024-06-24_13h49.27.096,LearnStrategy,2023.2.3,Linux x86_64,59.88023952,7,1,15,-0.392900546,0.093234181,1,0,0,1.1807,Diorite_07,3,07,4,2,1.181,-0.357182423,-0.235402425,1,0,0,1.6004,Andesite_rect,1,1.6,0,14,0,14,0,1,,,,,,,,,,,,,
5e07a0898dffa00ff1aaf60f,SCN,2024-06-24_13h49.27.096,LearnStrategy,2023.2.3,Linux x86_64,59.88023952,7,1,16,-0.53666838,0.106474797,1,0,0,1.2482,Diorite_02,3,02,4,1,1.248,-0.352921168,-0.241666794,1,0,0,2.229,Andesite_rect,1,2.229,0,15,0,15,0,1,,,,,,,,,,,,,
5e07a0898dffa00ff1aaf60f,SCN,2024-06-24_13h49.27.096,LearnStrategy,2023.2.3,Linux x86_64,59.88023952,7,2,1,,,,,,,,1,14,,,,,,,,,,,1,7.23,1,,,,,,-0.405252337,-0.25242273,1,0,0,7.2303,Andesite_rect,0,0,0,0,1,
5e07a0898dffa00ff1aaf60f,SCN,2024-06-24_13h49.27.096,LearnStrategy,2023.2.3,Linux x86_64,59.88023952,7,2,2,,,,,,,,8,16,,,,,,,,,,,8,1.249,1,,,,,,0.348748207,-0.408320665,1,0,0,1.2492,Pumice_rect,1,0,1,0,1,
5e07a0898dffa00ff1aaf60f,SCN,2024-06-24_13h49.27.096,LearnStrategy,2023.2.3,Linux x86_64,59.88023952,7,2,3,,,,,,,,4,05,,,,,,,,,,,4,3.251,1,,,,,,0.374566634,-0.236585538,1,0,0,3.2513,Gabbro_rect,2,0,2,0,1,
5e07a0898dffa00ff1aaf60f,SCN,2024-06-24_13h49.27.096,LearnStrategy,2023.2.3,Linux x86_64,59.88023952,7,2,4,,,,,,,,5,16,,,,,,,,,,,5,1.286,1,,,,,,-0.401909232,-0.403068384,1,0,0,1.2862,Obsidian_rect,3,0,3,0,1,
5e07a0898dffa00ff1aaf60f,SCN,2024-06-24_13h49.27.096,LearnStrategy,2023.2.3,Linux x86_64,59.88023952,7,2,5,,,,,,,,8,14,,,,,,,,,,,8,1.407,1,,,,,,0.445783456,-0.393201907,1,0,0,1.4066,Pumice_rect,4,0,4,0,1,
5e07a0898dffa00ff1aaf60f,SCN,2024-06-24_13h49.27.096,LearnStrategy,2023.2.3,Linux x86_64,59.88023952,7,2,6,,,,,,,,5,09,,,,,,,,,,,5,1.178,1,,,,,,-0.377010743,-0.391944885,1,0,0,1.178,Obsidian_rect,5,0,5,0,1,
5e07a0898dffa00ff1aaf60f,SCN,2024-06-24_13h49.27.096,LearnStrategy,2023.2.3,Linux x86_64,59.88023952,7,2,7,,,,,,,,2,05,,,,,,,,,,,2,1.096,1,,,,,,-0.090381304,-0.241085688,1,0,0,1.0957,Basalt_rect,6,0,6,0,1,
5e07a0898dffa00ff1aaf60f,SCN,2024-06-24_13h49.27.096,LearnStrategy,2023.2.3,Linux x86_64,59.88023952,7,2,8,,,,,,,,7,04,,,,,,,,,,,6,2.14,0,,,,,,-0.089178483,-0.396193425,1,0,0,2.1399,Pegmatite_rect,7,0,7,0,1,
5e07a0898dffa00ff1aaf60f,SCN,2024-06-24_13h49.27.096,LearnStrategy,2023.2.3,Linux x86_64,59.88023952,7,2,9,,,,,,,,3,14,,,,,,,,,,,1,3.687,0,,,,,,-0.357830604,-0.241683642,1,0,0,3.6865,Andesite_rect,8,0,8,0,1,
5e07a0898dffa00ff1aaf60f,SCN,2024-06-24_13h49.27.096,LearnStrategy,2023.2.3,Linux x86_64,59.88023952,7,2,10,,,,,,,,3,06,,,,,,,,,,,3,1.663,1,,,,,,0.158650796,-0.251279195,1,0,0,1.6626,Diorite_rect,9,0,9,0,1,
5e07a0898dffa00ff1aaf60f,SCN,2024-06-24_13h49.27.096,LearnStrategy,2023.2.3,Linux x86_64,59.88023952,7,2,11,,,,,,,,1,10,,,,,,,,,,,4,2.745,0,,,,,,0.329133113,-0.267310222,1,0,0,2.7449,Gabbro_rect,10,0,10,0,1,
5e07a0898dffa00ff1aaf60f,SCN,2024-06-24_13h49.27.096,LearnStrategy,2023.2.3,Linux x86_64,59.88023952,7,2,12,,,,,,,,2,10,,,,,,,,,,,2,1.431,1,,,,,,-0.055343469,-0.251764695,1,0,0,1.4308,Basalt_rect,11,0,11,0,1,
5e07a0898dffa00ff1aaf60f,SCN,2024-06-24_13h49.27.096,LearnStrategy,2023.2.3,Linux x86_64,59.88023952,7,2,13,,,,,,,,4,15,,,,,,,,,,,7,5.279,0,,,,,,0.069540898,-0.403155565,1,0,0,5.2794,Peridotite_rect,12,0,12,0,1,
5e07a0898dffa00ff1aaf60f,SCN,2024-06-24_13h49.27.096,LearnStrategy,2023.2.3,Linux x86_64,59.88023952,7,2,14,,,,,,,,6,03,,,,,,,,,,,6,1.348,1,,,,,,-0.120395104,-0.390417576,1,0,0,1.3478,Pegmatite_rect,13,0,13,0,1,
5e07a0898dffa00ff1aaf60f,SCN,2024-06-24_13h49.27.096,LearnStrategy,2023.2.3,Linux x86_64,59.88023952,7,2,15,,,,,,,,7,15,,,,,,,,,,,7,2.18,1,,,,,,0.132367929,-0.393183311,1,0,0,2.1799,Peridotite_rect,14,0,14,0,1,
5e07a0898dffa00ff1aaf60f,SCN,2024-06-24_13h49.27.096,LearnStrategy,2023.2.3,Linux x86_64,59.88023952,7,2,16,,,,,,,,6,05,,,,,,,,,,,6,3.643,1,,,,,,-0.173116604,-0.399650176,1,0,0,3.6433,Pegmatite_rect,15,0,15,0,1,
5e07a0898dffa00ff1aaf60f,SCN,2024-06-24_13h49.27.096,LearnStrategy,2023.2.3,Linux x86_64,59.88023952,8,1,1,-0.568370581,0.40151599,1,0,0,2.1806,Gabbro_11,4,11,6,1,2.181,0.375301361,-0.235911687,1,0,0,4.5181,Gabbro_rect,4,4.518,1,0,0,0,0,1,,,,,,,,,,,,,
5e07a0898dffa00ff1aaf60f,SCN,2024-06-24_13h49.27.096,LearnStrategy,2023.2.3,Linux x86_64,59.88023952,8,1,2,-0.378332098,0.420294667,1,0,0,1.3134,Peridotite_07,7,07,6,2,1.313,0.125306606,-0.403686603,1,0,0,1.7614,Peridotite_rect,7,1.761,1,1,0,1,0,1,,,,,,,,,,,,,
5e07a0898dffa00ff1aaf60f,SCN,2024-06-24_13h49.27.096,LearnStrategy,2023.2.3,Linux x86_64,59.88023952,8,1,3,-0.225485682,0.390725394,1,0,0,1.1305,Diorite_10,3,10,6,3,1.13,0.102166732,-0.229497194,1,0,0,2.6794,Diorite_rect,3,2.679,1,2,0,2,0,1,,,,,,,,,,,,,
5e07a0898dffa00ff1aaf60f,SCN,2024-06-24_13h49.27.096,LearnStrategy,2023.2.3,Linux x86_64,59.88023952,8,1,4,-0.054475784,0.376280109,1,0,0,1.2973,Basalt_11,2,11,6,4,1.297,0.434159199,-0.408508539,1,0,0,4.5508,Pumice_rect,8,4.551,0,3,0,3,0,1,,,,,,,,,,,,,
5e07a0898dffa00ff1aaf60f,SCN,2024-06-24_13h49.27.096,LearnStrategy,2023.2.3,Linux x86_64,59.88023952,8,1,5,0.079336802,0.402052899,1,0,0,1.7132,Basalt_16,2,16,6,5,1.713,-0.166957219,-0.241948048,1,0,0,1.8418,Basalt_rect,2,1.842,1,4,0,4,0,1,,,,,,,,,,,,,
5e07a0898dffa00ff1aaf60f,SCN,2024-06-24_13h49.27.096,LearnStrategy,2023.2.3,Linux x86_64,59.88023952,8,1,6,0.226501067,0.385705123,1,0,0,1.4799,Pegmatite_08,6,08,6,6,1.48,-0.084379037,-0.38303717,1,0,0,1.3447,Pegmatite_rect,6,1.345,1,5,0,5,0,1,,,,,,,,,,,,,
5e07a0898dffa00ff1aaf60f,SCN,2024-06-24_13h49.27.096,LearnStrategy,2023.2.3,Linux x86_64,59.88023952,8,1,7,0.399211725,0.387230068,1,0,0,1.4811,Obsidian_05,5,05,6,7,1.481,-0.313924273,-0.400438229,1,0,0,1.5115,Obsidian_rect,5,1.512,1,6,0,6,0,1,,,,,,,,,,,,,
5e07a0898dffa00ff1aaf60f,SCN,2024-06-24_13h49.27.096,LearnStrategy,2023.2.3,Linux x86_64,59.88023952,8,1,8,0.56080993,0.409722855,1,0,0,1.4634,Andesite_05,1,05,6,8,1.463,0.037304322,-0.237042904,1,0,0,3.7875,Diorite_rect,3,3.788,0,7,0,7,0,1,,,,,,,,,,,,,
5e07a0898dffa00ff1aaf60f,SCN,2024-06-24_13h49.27.096,LearnStrategy,2023.2.3,Linux x86_64,59.88023952,8,1,9,-0.509509961,0.243036568,1,0,0,2.0131,Diorite_09,3,09,5,1,2.013,-0.387055715,-0.255403042,1,0,0,4.5367,Andesite_rect,1,4.537,0,8,0,8,0,1,,,,,,,,,,,,,
5e07a0898dffa00ff1aaf60f,SCN,2024-06-24_13h49.27.096,LearnStrategy,2023.2.3,Linux x86_64,59.88023952,8,1,10,-0.41292429,0.239842931,1,0,0,0.987,Andesite_09,1,09,5,2,0.987,-0.091261864,-0.251811028,1,0,0,1.3886,Basalt_rect,2,1.389,0,9,0,9,0,1,,,,,,,,,,,,,
5e07a0898dffa00ff1aaf60f,SCN,2024-06-24_13h49.27.096,LearnStrategy,2023.2.3,Linux x86_64,59.88023952,8,1,11,-0.37840577,0.115062078,1,0,0,2.5121,Diorite_07,3,07,4,2,2.512,-0.337506612,-0.246576786,1,0,0,1.244,Andesite_rect,1,1.244,0,10,0,10,0,1,,,,,,,,,,,,,
5e07a0898dffa00ff1aaf60f,SCN,2024-06-24_13h49.27.096,LearnStrategy,2023.2.3,Linux x86_64,59.88023952,8,1,12,-0.567851305,0.24652797,1,0,0,2.7122,Diorite_09,3,09,5,1,2.712,0.185756207,-0.239569823,1,0,0,1.7182,Diorite_rect,3,1.718,1,11,0,11,0,1,,,,,,,,,,,,,
5e07a0898dffa00ff1aaf60f,SCN,2024-06-24_13h49.27.096,LearnStrategy,2023.2.3,Linux x86_64,59.88023952,8,1,13,0.386655013,0.080713709,1,0,0,2.247,Gabbro_08,4,08,4,7,2.247,0.362425566,-0.244997581,1,0,0,1.5896,Gabbro_rect,4,1.59,1,12,0,12,0,1,,,,,,,,,,,,,
5e07a0898dffa00ff1aaf60f,SCN,2024-06-24_13h49.27.096,LearnStrategy,2023.2.3,Linux x86_64,59.88023952,8,1,14,-0.509286046,-0.099014401,1,0,0,5.0931,Peridotite_08,7,08,3,1,5.093,0.113733689,-0.407130082,1,0,0,1.8237,Peridotite_rect,7,1.824,1,13,0,13,0,1,,,,,,,,,,,,,
5e07a0898dffa00ff1aaf60f,SCN,2024-06-24_13h49.27.096,LearnStrategy,2023.2.3,Linux x86_64,59.88023952,8,1,15,0.235570749,-0.112331152,1,0,0,1.6971,Pumice_10,8,10,3,6,1.697,0.341676792,-0.378230651,1,0,0,1.4016,Pumice_rect,8,1.402,1,14,0,14,0,1,,,,,,,,,,,,,
5e07a0898dffa00ff1aaf60f,SCN,2024-06-24_13h49.27.096,LearnStrategy,2023.2.3,Linux x86_64,59.88023952,8,1,16,-0.529235959,-0.402585189,1,0,0,2.0961,Gabbro_12,4,12,1,1,2.096,0.380780697,-0.236622175,1,0,0,2.2627,Gabbro_rect,4,2.263,1,15,0,15,0,1,,,,,,,,,,,,,
5e07a0898dffa00ff1aaf60f,SCN,2024-06-24_13h49.27.096,LearnStrategy,2023.2.3,Linux x86_64,59.88023952,8,2,1,,,,,,,,1,11,,,,,,,,,,,3,6.786,0,,,,,,0.123460293,-0.230618874,1,0,0,6.786,Diorite_rect,0,0,0,0,1,
5e07a0898dffa00ff1aaf60f,SCN,2024-06-24_13h49.27.096,LearnStrategy,2023.2.3,Linux x86_64,59.88023952,8,2,2,,,,,,,,7,10,,,,,,,,,,,7,1.343,1,,,,,,0.173218568,-0.390823682,1,0,0,1.3432,Peridotite_rect,1,0,1,0,1,
5e07a0898dffa00ff1aaf60f,SCN,2024-06-24_13h49.27.096,LearnStrategy,2023.2.3,Linux x86_64,59.88023952,8,2,3,,,,,,,,4,03,,,,,,,,,,,4,4.206,1,,,,,,0.399849733,-0.231321255,1,0,0,4.2059,Gabbro_rect,2,0,2,0,1,
5e07a0898dffa00ff1aaf60f,SCN,2024-06-24_13h49.27.096,LearnStrategy,2023.2.3,Linux x86_64,59.88023952,8,2,4,,,,,,,,2,14,,,,,,,,,,,4,6.505,0,,,,,,0.383682013,-0.236631155,1,0,0,6.5051,Gabbro_rect,3,0,3,0,1,
5e07a0898dffa00ff1aaf60f,SCN,2024-06-24_13h49.27.096,LearnStrategy,2023.2.3,Linux x86_64,59.88023952,8,2,5,,,,,,,,1,16,,,,,,,,,,,3,2.574,0,,,,,,0.155826569,-0.249999285,1,0,0,2.5741,Diorite_rect,4,0,4,0,1,
5e07a0898dffa00ff1aaf60f,SCN,2024-06-24_13h49.27.096,LearnStrategy,2023.2.3,Linux x86_64,59.88023952,8,2,6,,,,,,,,4,10,,,,,,,,,,,4,1.336,1,,,,,,0.368859768,-0.24534742,1,0,0,1.3362,Gabbro_rect,5,0,5,0,1,
5e07a0898dffa00ff1aaf60f,SCN,2024-06-24_13h49.27.096,LearnStrategy,2023.2.3,Linux x86_64,59.88023952,8,2,7,,,,,,,,2,08,,,,,,,,,,,2,1.404,1,,,,,,-0.101960659,-0.260245959,1,0,0,1.4035,Basalt_rect,6,0,6,0,1,
5e07a0898dffa00ff1aaf60f,SCN,2024-06-24_13h49.27.096,LearnStrategy,2023.2.3,Linux x86_64,59.88023952,8,2,8,,,,,,,,5,14,,,,,,,,,,,5,2.615,1,,,,,,-0.426895261,-0.39697965,1,0,0,2.6149,Obsidian_rect,7,0,7,0,1,
5e07a0898dffa00ff1aaf60f,SCN,2024-06-24_13h49.27.096,LearnStrategy,2023.2.3,Linux x86_64,59.88023952,8,2,9,,,,,,,,3,15,,,,,,,,,,,3,2.426,1,,,,,,0.119903644,-0.232462724,1,0,0,2.4264,Diorite_rect,8,0,8,0,1,
5e07a0898dffa00ff1aaf60f,SCN,2024-06-24_13h49.27.096,LearnStrategy,2023.2.3,Linux x86_64,59.88023952,8,2,10,,,,,,,,3,11,,,,,,,,,,,1,1.504,0,,,,,,-0.358661016,-0.248780886,1,0,0,1.5037,Andesite_rect,9,0,9,0,1,
5e07a0898dffa00ff1aaf60f,SCN,2024-06-24_13h49.27.096,LearnStrategy,2023.2.3,Linux x86_64,59.88023952,8,2,11,,,,,,,,7,12,,,,,,,,,,,7,1.608,1,,,,,,0.064903339,-0.393305381,1,0,0,1.6077,Peridotite_rect,10,0,10,0,1,
5e07a0898dffa00ff1aaf60f,SCN,2024-06-24_13h49.27.096,LearnStrategy,2023.2.3,Linux x86_64,59.88023952,8,2,12,,,,,,,,8,02,,,,,,,,,,,8,1.542,1,,,,,,0.389751196,-0.41953969,1,0,0,1.5416,Pumice_rect,11,0,11,0,1,
5e07a0898dffa00ff1aaf60f,SCN,2024-06-24_13h49.27.096,LearnStrategy,2023.2.3,Linux x86_64,59.88023952,8,2,13,,,,,,,,5,11,,,,,,,,,,,5,1.293,1,,,,,,-0.344378233,-0.385958354,1,0,0,1.2929,Obsidian_rect,12,0,12,0,1,
5e07a0898dffa00ff1aaf60f,SCN,2024-06-24_13h49.27.096,LearnStrategy,2023.2.3,Linux x86_64,59.88023952,8,2,14,,,,,,,,8,06,,,,,,,,,,,8,1.268,1,,,,,,0.401746273,-0.380790154,1,0,0,1.268,Pumice_rect,13,0,13,0,1,
5e07a0898dffa00ff1aaf60f,SCN,2024-06-24_13h49.27.096,LearnStrategy,2023.2.3,Linux x86_64,59.88023952,8,2,15,,,,,,,,6,15,,,,,,,,,,,6,1.22,1,,,,,,-0.059916735,-0.391181628,1,0,0,1.2203,Pegmatite_rect,14,0,14,0,1,
5e07a0898dffa00ff1aaf60f,SCN,2024-06-24_13h49.27.096,LearnStrategy,2023.2.3,Linux x86_64,59.88023952,8,2,16,,,,,,,,6,12,,,,,,,,,,,6,3.435,1,,,,,,-0.138385296,-0.401746988,1,0,0,3.4354,Pegmatite_rect,15,0,15,0,1,
5e07a0898dffa00ff1aaf60f,SCN,2024-06-24_13h49.27.096,LearnStrategy,2023.2.3,Linux x86_64,59.88023952,9,1,1,-0.542311271,0.401216785,1,0,0,1.7087,Gabbro_11,4,11,6,1,1.709,0.392509143,-0.245763858,1,0,0,1.8079,Gabbro_rect,4,1.808,1,0,0,0,0,1,,,,,,,,,,,,,
5e07a0898dffa00ff1aaf60f,SCN,2024-06-24_13h49.27.096,LearnStrategy,2023.2.3,Linux x86_64,59.88023952,9,1,2,-0.401750604,0.441600353,1,0,0,0.9144,Peridotite_07,7,07,6,2,0.914,0.121034543,-0.403041204,1,0,0,1.6031,Peridotite_rect,7,1.603,1,1,0,1,0,1,,,,,,,,,,,,,
5e07a0898dffa00ff1aaf60f,SCN,2024-06-24_13h49.27.096,LearnStrategy,2023.2.3,Linux x86_64,59.88023952,9,1,3,-0.255799651,0.428186258,1,0,0,0.9428,Diorite_10,3,10,6,3,0.943,-0.335094333,-0.243863106,1,0,0,2.3897,Andesite_rect,1,2.39,0,2,0,2,0,1,,,,,,,,,,,,,
5e07a0898dffa00ff1aaf60f,SCN,2024-06-24_13h49.27.096,LearnStrategy,2023.2.3,Linux x86_64,59.88023952,9,1,4,-0.085211833,0.418810194,1,0,0,1.2978,Basalt_11,2,11,6,4,1.298,0.360908111,-0.386962493,1,0,0,2.5862,Pumice_rect,8,2.586,0,3,0,3,0,1,,,,,,,,,,,,,
5e07a0898dffa00ff1aaf60f,SCN,2024-06-24_13h49.27.096,LearnStrategy,2023.2.3,Linux x86_64,59.88023952,9,1,5,0.060884635,0.404550155,1,0,0,1.5467,Basalt_16,2,16,6,5,1.547,-0.170278311,-0.250922998,1,0,0,1.5293,Basalt_rect,2,1.529,1,4,0,4,0,1,,,,,,,,,,,,,
5e07a0898dffa00ff1aaf60f,SCN,2024-06-24_13h49.27.096,LearnStrategy,2023.2.3,Linux x86_64,59.88023952,9,1,6,0.256108761,0.396124562,1,0,0,1.4635,Pegmatite_08,6,08,6,6,1.464,-0.10698549,-0.416816314,1,0,0,1.2741,Pegmatite_rect,6,1.274,1,5,0,5,0,1,,,,,,,,,,,,,
5e07a0898dffa00ff1aaf60f,SCN,2024-06-24_13h49.27.096,LearnStrategy,2023.2.3,Linux x86_64,59.88023952,9,1,7,0.546180566,0.419415846,1,0,0,2.114,Andesite_05,1,05,6,8,2.114,-0.305977265,-0.236797333,1,0,0,2.7069,Andesite_rect,1,2.707,1,6,0,6,0,1,,,,,,,,,,,,,
5e07a0898dffa00ff1aaf60f,SCN,2024-06-24_13h49.27.096,LearnStrategy,2023.2.3,Linux x86_64,59.88023952,9,1,8,-0.534365336,0.236282686,1,0,0,1.2313,Diorite_09,3,09,5,1,1.231,-0.374856631,-0.239697059,1,0,0,1.7786,Andesite_rect,1,1.779,0,7,0,7,0,1,,,,,,,,,,,,,
5e07a0898dffa00ff1aaf60f,SCN,2024-06-24_13h49.27.096,LearnStrategy,2023.2.3,Linux x86_64,59.88023952,9,1,9,-0.570590496,0.235052566,1,0,0,1.3138,Diorite_09,3,09,5,1,1.314,0.103039742,-0.246588151,1,0,0,1.1112,Diorite_rect,3,1.111,1,8,0,8,0,1,,,,,,,,,,,,,
5e07a0898dffa00ff1aaf60f,SCN,2024-06-24_13h49.27.096,LearnStrategy,2023.2.3,Linux x86_64,59.88023952,9,1,10,-0.365464727,0.241120617,1,0,0,1.5638,Andesite_09,1,09,5,2,1.564,-0.072828849,-0.252981822,1,0,0,2.0793,Basalt_rect,2,2.079,0,9,0,9,0,1,,,,,,,,,,,,,
5e07a0898dffa00ff1aaf60f,SCN,2024-06-24_13h49.27.096,LearnStrategy,2023.2.3,Linux x86_64,59.88023952,9,1,11,-0.396158338,0.256432831,1,0,0,1.1641,Andesite_09,1,09,5,2,1.164,-0.340768218,-0.246549288,1,0,0,1.6215,Andesite_rect,1,1.621,1,10,0,10,0,1,,,,,,,,,,,,,
5e07a0898dffa00ff1aaf60f,SCN,2024-06-24_13h49.27.096,LearnStrategy,2023.2.3,Linux x86_64,59.88023952,9,1,12,-0.063406944,0.253106833,1,0,0,1.5133,Diorite_12,3,12,5,4,1.513,-0.355008245,-0.265961488,1,0,0,1.7834,Andesite_rect,1,1.783,0,11,0,11,0,1,,,,,,,,,,,,,
5e07a0898dffa00ff1aaf60f,SCN,2024-06-24_13h49.27.096,LearnStrategy,2023.2.3,Linux x86_64,59.88023952,9,1,13,-0.081527551,0.236760875,1,0,0,1.0487,Diorite_12,3,12,5,4,1.049,0.15356644,-0.232261737,1,0,0,1.0173,Diorite_rect,3,1.017,1,12,0,12,0,1,,,,,,,,,,,,,
5e07a0898dffa00ff1aaf60f,SCN,2024-06-24_13h49.27.096,LearnStrategy,2023.2.3,Linux x86_64,59.88023952,9,1,14,-0.529093941,0.247872849,1,0,0,1.3796,Diorite_09,3,09,5,1,1.38,0.111755689,-0.258764426,1,0,0,2.5908,Diorite_rect,3,2.591,1,13,0,13,0,1,,,,,,,,,,,,,
5e07a0898dffa00ff1aaf60f,SCN,2024-06-24_13h49.27.096,LearnStrategy,2023.2.3,Linux x86_64,59.88023952,9,1,15,-0.221656561,0.422179282,1,0,0,1.5815,Diorite_10,3,10,6,3,1.582,0.082687616,-0.233392557,1,0,0,2.2515,Diorite_rect,3,2.252,1,14,0,14,0,1,,,,,,,,,,,,,
5e07a0898dffa00ff1aaf60f,SCN,2024-06-24_13h49.27.096,LearnStrategy,2023.2.3,Linux x86_64,59.88023952,9,1,16,0.54984204,0.26021413,1,0,0,1.6984,Pumice_08,8,08,5,8,1.698,0.404996475,-0.392306805,1,0,0,1.6355,Pumice_rect,8,1.636,1,15,0,15,0,1,,,,,,,,,,,,,
5e07a0898dffa00ff1aaf60f,SCN,2024-06-24_13h49.27.096,LearnStrategy,2023.2.3,Linux x86_64,59.88023952,9,2,1,,,,,,,,8,09,,,,,,,,,,,8,1.543,1,,,,,,0.387399753,-0.389950673,1,0,0,1.5426,Pumice_rect,0,0,0,0,1,
5e07a0898dffa00ff1aaf60f,SCN,2024-06-24_13h49.27.096,LearnStrategy,2023.2.3,Linux x86_64,59.88023952,9,2,2,,,,,,,,5,02,,,,,,,,,,,5,1.261,1,,,,,,-0.331535618,-0.402503808,1,0,0,1.261,Obsidian_rect,1,0,1,0,1,
5e07a0898dffa00ff1aaf60f,SCN,2024-06-24_13h49.27.096,LearnStrategy,2023.2.3,Linux x86_64,59.88023952,9,2,3,,,,,,,,2,06,,,,,,,,,,,2,1.628,1,,,,,,-0.162406365,-0.244871457,1,0,0,1.6278,Basalt_rect,2,0,2,0,1,
5e07a0898dffa00ff1aaf60f,SCN,2024-06-24_13h49.27.096,LearnStrategy,2023.2.3,Linux x86_64,59.88023952,9,2,4,,,,,,,,3,16,,,,,,,,,,,1,3.721,0,,,,,,-0.341029445,-0.23717761,1,0,0,3.7212,Andesite_rect,3,0,3,0,1,
5e07a0898dffa00ff1aaf60f,SCN,2024-06-24_13h49.27.096,LearnStrategy,2023.2.3,Linux x86_64,59.88023952,9,2,5,,,,,,,,8,03,,,,,,,,,,,8,1.685,1,,,,,,0.348815044,-0.390981992,1,0,0,1.6849,Pumice_rect,4,0,4,0,1,
5e07a0898dffa00ff1aaf60f,SCN,2024-06-24_13h49.27.096,LearnStrategy,2023.2.3,Linux x86_64,59.88023952,9,2,6,,,,,,,,5,12,,,,,,,,,,,5,1.323,1,,,,,,-0.376822074,-0.408572515,1,0,0,1.3226,Obsidian_rect,5,0,5,0,1,
5e07a0898dffa00ff1aaf60f,SCN,2024-06-24_13h49.27.096,LearnStrategy,2023.2.3,Linux x86_64,59.88023952,9,2,7,,,,,,,,6,10,,,,,,,,,,,6,1.453,1,,,,,,-0.06316336,-0.390884399,1,0,0,1.4533,Pegmatite_rect,6,0,6,0,1,
5e07a0898dffa00ff1aaf60f,SCN,2024-06-24_13h49.27.096,LearnStrategy,2023.2.3,Linux x86_64,59.88023952,9,2,8,,,,,,,,1,03,,,,,,,,,,,3,4.769,0,,,,,,0.126267989,-0.24140962,1,0,0,4.7685,Diorite_rect,7,0,7,0,1,
5e07a0898dffa00ff1aaf60f,SCN,2024-06-24_13h49.27.096,LearnStrategy,2023.2.3,Linux x86_64,59.88023952,9,2,9,,,,,,,,7,06,,,,,,,,,,,7,1.828,1,,,,,,0.085399628,-0.398829222,1,0,0,1.8279,Peridotite_rect,8,0,8,0,1,
5e07a0898dffa00ff1aaf60f,SCN,2024-06-24_13h49.27.096,LearnStrategy,2023.2.3,Linux x86_64,59.88023952,9,2,10,,,,,,,,4,16,,,,,,,,,,,4,5.717,1,,,,,,0.406052192,-0.244510094,1,0,0,5.7168,Gabbro_rect,9,0,9,0,1,
5e07a0898dffa00ff1aaf60f,SCN,2024-06-24_13h49.27.096,LearnStrategy,2023.2.3,Linux x86_64,59.88023952,9,2,11,,,,,,,,7,14,,,,,,,,,,,3,4.331,0,,,,,,0.136169831,-0.254738887,1,0,0,4.3307,Diorite_rect,10,0,10,0,1,
5e07a0898dffa00ff1aaf60f,SCN,2024-06-24_13h49.27.096,LearnStrategy,2023.2.3,Linux x86_64,59.88023952,9,2,12,,,,,,,,2,09,,,,,,,,,,,2,1.308,1,,,,,,-0.079273224,-0.251636028,1,0,0,1.3083,Basalt_rect,11,0,11,0,1,
5e07a0898dffa00ff1aaf60f,SCN,2024-06-24_13h49.27.096,LearnStrategy,2023.2.3,Linux x86_64,59.88023952,9,2,13,,,,,,,,4,13,,,,,,,,,,,4,2.452,1,,,,,,0.362062057,-0.259941896,1,0,0,2.4516,Gabbro_rect,12,0,12,0,1,
5e07a0898dffa00ff1aaf60f,SCN,2024-06-24_13h49.27.096,LearnStrategy,2023.2.3,Linux x86_64,59.88023952,9,2,14,,,,,,,,3,08,,,,,,,,,,,1,2.142,0,,,,,,-0.408904394,-0.25096186,1,0,0,2.142,Andesite_rect,13,0,13,0,1,
5e07a0898dffa00ff1aaf60f,SCN,2024-06-24_13h49.27.096,LearnStrategy,2023.2.3,Linux x86_64,59.88023952,9,2,15,,,,,,,,6,11,,,,,,,,,,,6,1.447,1,,,,,,-0.146100442,-0.388712486,1,0,0,1.4469,Pegmatite_rect,14,0,14,0,1,
5e07a0898dffa00ff1aaf60f,SCN,2024-06-24_13h49.27.096,LearnStrategy,2023.2.3,Linux x86_64,59.88023952,9,2,16,,,,,,,,1,04,,,,,,,,,,,1,1.937,1,,,,,,-0.410712918,-0.250071208,1,0,0,1.9373,Andesite_rect,15,0,15,0,1,
5e07a0898dffa00ff1aaf60f,SCN,2024-06-24_13h49.27.096,LearnStrategy,2023.2.3,Linux x86_64,59.88023952,,,,,,,,,,,,,,,,,,,,,,,,,,,,,,,,,,,,,,,,,,,1
5e07a0898dffa00ff1aaf60f,SCN,2024-06-24_13h49.27.096,LearnStrategy,2023.2.3,Linux x86_64,59.88023952,,,,,,,,,,,,,,,,,,,,,,,,,,,,,,,,,,,,,,,,,,,
5e07a0898dffa00ff1aaf60f,SCN,2024-06-24_13h49.27.096,LearnStrategy,2023.2.3,Linux x86_64,59.88023952,,,,,,,,,,,4,12,1,1,,,,,,,,,,,,,,,,,,,,,,,,,,,,,
5e07a0898dffa00ff1aaf60f,SCN,2024-06-24_13h49.27.096,LearnStrategy,2023.2.3,Linux x86_64,59.88023952,,,,,,,,,,,8,04,1,2,,,,,,,,,,,,,,,,,,,,,,,,,,,,,
5e07a0898dffa00ff1aaf60f,SCN,2024-06-24_13h49.27.096,LearnStrategy,2023.2.3,Linux x86_64,59.88023952,,,,,,,,,,,1,06,1,3,,,,,,,,,,,,,,,,,,,,,,,,,,,,,
5e07a0898dffa00ff1aaf60f,SCN,2024-06-24_13h49.27.096,LearnStrategy,2023.2.3,Linux x86_64,59.88023952,,,,,,,,,,,2,02,1,4,,,,,,,,,,,,,,,,,,,,,,,,,,,,,
5e07a0898dffa00ff1aaf60f,SCN,2024-06-24_13h49.27.096,LearnStrategy,2023.2.3,Linux x86_64,59.88023952,,,,,,,,,,,5,04,1,5,,,,,,,,,,,,,,,,,,,,,,,,,,,,,
5e07a0898dffa00ff1aaf60f,SCN,2024-06-24_13h49.27.096,LearnStrategy,2023.2.3,Linux x86_64,59.88023952,,,,,,,,,,,5,07,1,6,,,,,,,,,,,,,,,,,,,,,,,,,,,,,
5e07a0898dffa00ff1aaf60f,SCN,2024-06-24_13h49.27.096,LearnStrategy,2023.2.3,Linux x86_64,59.88023952,,,,,,,,,,,8,05,1,7,,,,,,,,,,,,,,,,,,,,,,,,,,,,,
5e07a0898dffa00ff1aaf60f,SCN,2024-06-24_13h49.27.096,LearnStrategy,2023.2.3,Linux x86_64,59.88023952,,,,,,,,,,,5,06,1,8,,,,,,,,,,,,,,,,,,,,,,,,,,,,,
5e07a0898dffa00ff1aaf60f,SCN,2024-06-24_13h49.27.096,LearnStrategy,2023.2.3,Linux x86_64,59.88023952,,,,,,,,,,,5,10,2,1,,,,,,,,,,,,,,,,,,,,,,,,,,,,,
5e07a0898dffa00ff1aaf60f,SCN,2024-06-24_13h49.27.096,LearnStrategy,2023.2.3,Linux x86_64,59.88023952,,,,,,,,,,,4,14,2,2,,,,,,,,,,,,,,,,,,,,,,,,,,,,,
5e07a0898dffa00ff1aaf60f,SCN,2024-06-24_13h49.27.096,LearnStrategy,2023.2.3,Linux x86_64,59.88023952,,,,,,,,,,,2,01,2,3,,,,,,,,,,,,,,,,,,,,,,,,,,,,,
5e07a0898dffa00ff1aaf60f,SCN,2024-06-24_13h49.27.096,LearnStrategy,2023.2.3,Linux x86_64,59.88023952,,,,,,,,,,,8,15,2,4,,,,,,,,,,,,,,,,,,,,,,,,,,,,,
5e07a0898dffa00ff1aaf60f,SCN,2024-06-24_13h49.27.096,LearnStrategy,2023.2.3,Linux x86_64,59.88023952,,,,,,,,,,,7,02,2,5,,,,,,,,,,,,,,,,,,,,,,,,,,,,,
5e07a0898dffa00ff1aaf60f,SCN,2024-06-24_13h49.27.096,LearnStrategy,2023.2.3,Linux x86_64,59.88023952,,,,,,,,,,,4,01,2,6,,,,,,,,,,,,,,,,,,,,,,,,,,,,,
5e07a0898dffa00ff1aaf60f,SCN,2024-06-24_13h49.27.096,LearnStrategy,2023.2.3,Linux x86_64,59.88023952,,,,,,,,,,,6,09,2,7,,,,,,,,,,,,,,,,,,,,,,,,,,,,,
5e07a0898dffa00ff1aaf60f,SCN,2024-06-24_13h49.27.096,LearnStrategy,2023.2.3,Linux x86_64,59.88023952,,,,,,,,,,,4,09,2,8,,,,,,,,,,,,,,,,,,,,,,,,,,,,,
5e07a0898dffa00ff1aaf60f,SCN,2024-06-24_13h49.27.096,LearnStrategy,2023.2.3,Linux x86_64,59.88023952,,,,,,,,,,,7,08,3,1,,,,,,,,,,,,,,,,,,,,,,,,,,,,,
5e07a0898dffa00ff1aaf60f,SCN,2024-06-24_13h49.27.096,LearnStrategy,2023.2.3,Linux x86_64,59.88023952,,,,,,,,,,,6,16,3,2,,,,,,,,,,,,,,,,,,,,,,,,,,,,,
5e07a0898dffa00ff1aaf60f,SCN,2024-06-24_13h49.27.096,LearnStrategy,2023.2.3,Linux x86_64,59.88023952,,,,,,,,,,,6,06,3,3,,,,,,,,,,,,,,,,,,,,,,,,,,,,,
5e07a0898dffa00ff1aaf60f,SCN,2024-06-24_13h49.27.096,LearnStrategy,2023.2.3,Linux x86_64,59.88023952,,,,,,,,,,,6,07,3,4,,,,,,,,,,,,,,,,,,,,,,,,,,,,,
5e07a0898dffa00ff1aaf60f,SCN,2024-06-24_13h49.27.096,LearnStrategy,2023.2.3,Linux x86_64,59.88023952,,,,,,,,,,,8,13,3,5,,,,,,,,,,,,,,,,,,,,,,,,,,,,,
5e07a0898dffa00ff1aaf60f,SCN,2024-06-24_13h49.27.096,LearnStrategy,2023.2.3,Linux x86_64,59.88023952,,,,,,,,,,,8,10,3,6,,,,,,,,,,,,,,,,,,,,,,,,,,,,,
5e07a0898dffa00ff1aaf60f,SCN,2024-06-24_13h49.27.096,LearnStrategy,2023.2.3,Linux x86_64,59.88023952,,,,,,,,,,,1,01,3,7,,,,,,,,,,,,,,,,,,,,,,,,,,,,,
5e07a0898dffa00ff1aaf60f,SCN,2024-06-24_13h49.27.096,LearnStrategy,2023.2.3,Linux x86_64,59.88023952,,,,,,,,,,,7,05,3,8,,,,,,,,,,,,,,,,,,,,,,,,,,,,,
5e07a0898dffa00ff1aaf60f,SCN,2024-06-24_13h49.27.096,LearnStrategy,2023.2.3,Linux x86_64,59.88023952,,,,,,,,,,,3,02,4,1,,,,,,,,,,,,,,,,,,,,,,,,,,,,,
5e07a0898dffa00ff1aaf60f,SCN,2024-06-24_13h49.27.096,LearnStrategy,2023.2.3,Linux x86_64,59.88023952,,,,,,,,,,,3,07,4,2,,,,,,,,,,,,,,,,,,,,,,,,,,,,,
5e07a0898dffa00ff1aaf60f,SCN,2024-06-24_13h49.27.096,LearnStrategy,2023.2.3,Linux x86_64,59.88023952,,,,,,,,,,,2,12,4,3,,,,,,,,,,,,,,,,,,,,,,,,,,,,,
5e07a0898dffa00ff1aaf60f,SCN,2024-06-24_13h49.27.096,LearnStrategy,2023.2.3,Linux x86_64,59.88023952,,,,,,,,,,,3,13,4,4,,,,,,,,,,,,,,,,,,,,,,,,,,,,,
5e07a0898dffa00ff1aaf60f,SCN,2024-06-24_13h49.27.096,LearnStrategy,2023.2.3,Linux x86_64,59.88023952,,,,,,,,,,,6,13,4,5,,,,,,,,,,,,,,,,,,,,,,,,,,,,,
5e07a0898dffa00ff1aaf60f,SCN,2024-06-24_13h49.27.096,LearnStrategy,2023.2.3,Linux x86_64,59.88023952,,,,,,,,,,,2,04,4,6,,,,,,,,,,,,,,,,,,,,,,,,,,,,,
5e07a0898dffa00ff1aaf60f,SCN,2024-06-24_13h49.27.096,LearnStrategy,2023.2.3,Linux x86_64,59.88023952,,,,,,,,,,,4,08,4,7,,,,,,,,,,,,,,,,,,,,,,,,,,,,,
5e07a0898dffa00ff1aaf60f,SCN,2024-06-24_13h49.27.096,LearnStrategy,2023.2.3,Linux x86_64,59.88023952,,,,,,,,,,,5,08,4,8,,,,,,,,,,,,,,,,,,,,,,,,,,,,,
5e07a0898dffa00ff1aaf60f,SCN,2024-06-24_13h49.27.096,LearnStrategy,2023.2.3,Linux x86_64,59.88023952,,,,,,,,,,,3,09,5,1,,,,,,,,,,,,,,,,,,,,,,,,,,,,,
5e07a0898dffa00ff1aaf60f,SCN,2024-06-24_13h49.27.096,LearnStrategy,2023.2.3,Linux x86_64,59.88023952,,,,,,,,,,,1,09,5,2,,,,,,,,,,,,,,,,,,,,,,,,,,,,,
5e07a0898dffa00ff1aaf60f,SCN,2024-06-24_13h49.27.096,LearnStrategy,2023.2.3,Linux x86_64,59.88023952,,,,,,,,,,,7,13,5,3,,,,,,,,,,,,,,,,,,,,,,,,,,,,,
5e07a0898dffa00ff1aaf60f,SCN,2024-06-24_13h49.27.096,LearnStrategy,2023.2.3,Linux x86_64,59.88023952,,,,,,,,,,,3,12,5,4,,,,,,,,,,,,,,,,,,,,,,,,,,,,,
5e07a0898dffa00ff1aaf60f,SCN,2024-06-24_13h49.27.096,LearnStrategy,2023.2.3,Linux x86_64,59.88023952,,,,,,,,,,,1,02,5,5,,,,,,,,,,,,,,,,,,,,,,,,,,,,,
5e07a0898dffa00ff1aaf60f,SCN,2024-06-24_13h49.27.096,LearnStrategy,2023.2.3,Linux x86_64,59.88023952,,,,,,,,,,,1,07,5,6,,,,,,,,,,,,,,,,,,,,,,,,,,,,,
5e07a0898dffa00ff1aaf60f,SCN,2024-06-24_13h49.27.096,LearnStrategy,2023.2.3,Linux x86_64,59.88023952,,,,,,,,,,,7,16,5,7,,,,,,,,,,,,,,,,,,,,,,,,,,,,,
5e07a0898dffa00ff1aaf60f,SCN,2024-06-24_13h49.27.096,LearnStrategy,2023.2.3,Linux x86_64,59.88023952,,,,,,,,,,,8,08,5,8,,,,,,,,,,,,,,,,,,,,,,,,,,,,,
5e07a0898dffa00ff1aaf60f,SCN,2024-06-24_13h49.27.096,LearnStrategy,2023.2.3,Linux x86_64,59.88023952,,,,,,,,,,,4,11,6,1,,,,,,,,,,,,,,,,,,,,,,,,,,,,,
5e07a0898dffa00ff1aaf60f,SCN,2024-06-24_13h49.27.096,LearnStrategy,2023.2.3,Linux x86_64,59.88023952,,,,,,,,,,,7,07,6,2,,,,,,,,,,,,,,,,,,,,,,,,,,,,,
5e07a0898dffa00ff1aaf60f,SCN,2024-06-24_13h49.27.096,LearnStrategy,2023.2.3,Linux x86_64,59.88023952,,,,,,,,,,,3,10,6,3,,,,,,,,,,,,,,,,,,,,,,,,,,,,,
5e07a0898dffa00ff1aaf60f,SCN,2024-06-24_13h49.27.096,LearnStrategy,2023.2.3,Linux x86_64,59.88023952,,,,,,,,,,,2,11,6,4,,,,,,,,,,,,,,,,,,,,,,,,,,,,,
5e07a0898dffa00ff1aaf60f,SCN,2024-06-24_13h49.27.096,LearnStrategy,2023.2.3,Linux x86_64,59.88023952,,,,,,,,,,,2,16,6,5,,,,,,,,,,,,,,,,,,,,,,,,,,,,,
5e07a0898dffa00ff1aaf60f,SCN,2024-06-24_13h49.27.096,LearnStrategy,2023.2.3,Linux x86_64,59.88023952,,,,,,,,,,,6,08,6,6,,,,,,,,,,,,,,,,,,,,,,,,,,,,,
5e07a0898dffa00ff1aaf60f,SCN,2024-06-24_13h49.27.096,LearnStrategy,2023.2.3,Linux x86_64,59.88023952,,,,,,,,,,,5,05,6,7,,,,,,,,,,,,,,,,,,,,,,,,,,,,,
5e07a0898dffa00ff1aaf60f,SCN,2024-06-24_13h49.27.096,LearnStrategy,2023.2.3,Linux x86_64,59.88023952,,,,,,,,,,,1,05,6,8,,,,,,,,,,,,,,,,,,,,,,,,,,,,,