participant,condition,date,expName,psychopyVersion,OS,frameRate,block,phase,trial,learn_mouse_2.x,learn_mouse_2.y,learn_mouse_2.leftButton,learn_mouse_2.midButton,learn_mouse_2.rightButton,learn_mouse_2.time,learn_mouse_2.clicked_name,cat,token,row,col,t_select,cat_mouse_l.x,cat_mouse_l.y,cat_mouse_l.leftButton,cat_mouse_l.midButton,cat_mouse_l.rightButton,cat_mouse_l.time,cat_mouse_l.clicked_name,resp,t_resp,corr,train_trials.thisRepN,train_trials.thisTrialN,train_trials.thisN,train_trials.thisIndex,train_trials.ran,cat_mouse_t.x,cat_mouse_t.y,cat_mouse_t.leftButton,cat_mouse_t.midButton,cat_mouse_t.rightButton,cat_mouse_t.time,cat_mouse_t.clicked_name,test_trials.thisRepN,test_trials.thisTrialN,test_trials.thisN,test_trials.thisIndex,test_trials.ran,Bonus
5e27107888daaf016b0daada,TCR,2024-06-20_13h29.07.226,LearnStrategy,2023.2.3,Win32,59.88023952,,,,,,,,,,,,,,,,,,,,,,,,,,,,,,,,,,,,,,,,,,,
5e27107888daaf016b0daada,TCR,2024-06-20_13h29.07.226,LearnStrategy,2023.2.3,Win32,59.88023952,1,1,1,0.025000042,0.002777771,1,0,0,6.4138,rock_grid_rect_2,7,16,-1,-1,6.414,0.15370369,-0.255555541,1,0,0,10.8796,Diorite_rect,3,10.88,0,0,0,0,0,1,,,,,,,,,,,,,
5e27107888daaf016b0daada,TCR,2024-06-20_13h29.07.226,LearnStrategy,2023.2.3,Win32,59.88023952,1,1,2,-0.003703718,-0.003703718,1,0,0,1.9022,rock_grid_rect_2,5,02,-1,-1,1.902,-0.428703697,-0.393518519,1,0,0,6.6692,Obsidian_rect,5,6.669,1,1,0,1,0,1,,,,,,,,,,,,,
5e27107888daaf016b0daada,TCR,2024-06-20_13h29.07.226,LearnStrategy,2023.2.3,Win32,59.88023952,1,1,3,0.026851866,-0.00462963,1,0,0,1.3422,rock_grid_rect_2,4,13,-1,-1,1.342,0.397222307,-0.251851894,1,0,0,5.7822,Gabbro_rect,4,5.782,1,2,0,2,0,1,,,,,,,,,,,,,
5e27107888daaf016b0daada,TCR,2024-06-20_13h29.07.226,LearnStrategy,2023.2.3,Win32,59.88023952,1,1,4,-0.025925884,-0.00462963,1,0,0,6.0013,rock_grid_rect_2,5,12,-1,-1,6.001,-0.145370342,-0.255555541,1,0,0,11.7188,Basalt_rect,2,11.719,0,3,0,3,0,1,,,,,,,,,,,,,
5e27107888daaf016b0daada,TCR,2024-06-20_13h29.07.226,LearnStrategy,2023.2.3,Win32,59.88023952,1,1,5,-0.050925926,0.003703683,1,0,0,1.6028,rock_grid_rect_2,3,10,-1,-1,1.603,-0.125925912,-0.25,1,0,0,7.8703,Basalt_rect,2,7.87,0,4,0,4,0,1,,,,,,,,,,,,,
5e27107888daaf016b0daada,TCR,2024-06-20_13h29.07.226,LearnStrategy,2023.2.3,Win32,59.88023952,1,1,6,-0.034259231,-0.00462963,1,0,0,1.5152,rock_grid_rect_2,6,06,-1,-1,1.515,0.42314812,-0.39444443,1,0,0,7.3897,Pumice_rect,8,7.39,0,5,0,5,0,1,,,,,,,,,,,,,
5e27107888daaf016b0daada,TCR,2024-06-20_13h29.07.226,LearnStrategy,2023.2.3,Win32,59.88023952,1,1,7,-0.025925884,0.0074074,1,0,0,1.3365,rock_grid_rect_2,8,03,-1,-1,1.337,0.414814843,-0.395370413,1,0,0,2.999,Pumice_rect,8,2.999,1,6,0,6,0,1,,,,,,,,,,,,,
5e27107888daaf016b0daada,TCR,2024-06-20_13h29.07.226,LearnStrategy,2023.2.3,Win32,59.88023952,1,1,8,0.030555584,0.001851859,1,0,0,1.3604,rock_grid_rect_2,1,01,-1,-1,1.36,-0.121296282,-0.255555541,1,0,0,6.9947,Basalt_rect,2,6.995,0,7,0,7,0,1,,,,,,,,,,,,,
5e27107888daaf016b0daada,TCR,2024-06-20_13h29.07.226,LearnStrategy,2023.2.3,Win32,59.88023952,1,1,9,-0.068518533,0.003703683,1,0,0,1.2804,rock_grid_rect_2,3,02,-1,-1,1.28,-0.159259231,-0.246296282,1,0,0,6.662,Basalt_rect,2,6.662,0,8,0,8,0,1,,,,,,,,,,,,,
5e27107888daaf016b0daada,TCR,2024-06-20_13h29.07.226,LearnStrategy,2023.2.3,Win32,59.88023952,1,1,10,0.006481524,0.001851859,1,0,0,2.2825,rock_grid_rect_2,7,14,-1,-1,2.283,-0.12037037,-0.256481524,1,0,0,24.3551,Basalt_rect,2,24.355,0,9,0,9,0,1,,,,,,,,,,,,,
5e27107888daaf016b0daada,TCR,2024-06-20_13h29.07.226,LearnStrategy,2023.2.3,Win32,59.88023952,1,1,11,-0.018518519,-0.0074074,1,0,0,1.6833,rock_grid_rect_2,2,10,-1,-1,1.683,-0.170370384,-0.25462963,1,0,0,2.911,Basalt_rect,2,2.911,1,10,0,10,0,1,,,,,,,,,,,,,
5e27107888daaf016b0daada,TCR,2024-06-20_13h29.07.226,LearnStrategy,2023.2.3,Win32,59.88023952,1,1,12,0.025000042,-0.008333347,1,0,0,1.7888,rock_grid_rect_2,8,08,-1,-1,1.789,0.430555556,-0.389814801,1,0,0,2.4852,Pumice_rect,8,2.485,1,11,0,11,0,1,,,,,,,,,,,,,
5e27107888daaf016b0daada,TCR,2024-06-20_13h29.07.226,LearnStrategy,2023.2.3,Win32,59.88023952,1,1,13,-0.032407407,-0.00462963,1,0,0,1.4444,rock_grid_rect_2,1,07,-1,-1,1.444,-0.39166666,-0.253703718,1,0,0,3.5583,Andesite_rect,1,3.558,1,12,0,12,0,1,,,,,,,,,,,,,
5e27107888daaf016b0daada,TCR,2024-06-20_13h29.07.226,LearnStrategy,2023.2.3,Win32,59.88023952,1,1,14,-0.02407406,0.001851859,1,0,0,1.2556,rock_grid_rect_2,6,09,-1,-1,1.256,-0.137036995,-0.393518519,1,0,0,13.7345,Pegmatite_rect,6,13.734,1,13,0,13,0,1,,,,,,,,,,,,,
5e27107888daaf016b0daada,TCR,2024-06-20_13h29.07.226,LearnStrategy,2023.2.3,Win32,59.88023952,1,1,15,-0.046296296,-0.001851859,1,0,0,1.5706,rock_grid_rect_2,2,06,-1,-1,1.571,-0.14907406,-0.253703718,1,0,0,6.2838,Basalt_rect,2,6.284,1,14,0,14,0,1,,,,,,,,,,,,,
5e27107888daaf016b0daada,TCR,2024-06-20_13h29.07.226,LearnStrategy,2023.2.3,Win32,59.88023952,1,1,16,-0.04351849,0.000925912,1,0,0,1.7197,rock_grid_rect_2,4,01,-1,-1,1.72,0.137037065,-0.256481524,1,0,0,19.5347,Diorite_rect,3,19.535,0,15,0,15,0,1,,,,,,,,,,,,,
5e27107888daaf016b0daada,TCR,2024-06-20_13h29.07.226,LearnStrategy,2023.2.3,Win32,59.88023952,1,2,1,,,,,,,,4,11,,,,,,,,,,,3,29.912,0,,,,,,0.118518547,-0.247222265,1,0,0,29.912,Diorite_rect,0,0,0,0,1,
5e27107888daaf016b0daada,TCR,2024-06-20_13h29.07.226,LearnStrategy,2023.2.3,Win32,59.88023952,1,2,2,,,,,,,,4,03,,,,,,,,,,,1,3.798,0,,,,,,-0.429629608,-0.243518547,1,0,0,3.7985,Andesite_rect,1,0,1,0,1,
5e27107888daaf016b0daada,TCR,2024-06-20_13h29.07.226,LearnStrategy,2023.2.3,Win32,59.88023952,1,2,3,,,,,,,,1,14,,,,,,,,,,,6,11.676,0,,,,,,-0.103703675,-0.390740783,1,0,0,11.6761,Pegmatite_rect,2,0,2,0,1,
5e27107888daaf016b0daada,TCR,2024-06-20_13h29.07.226,LearnStrategy,2023.2.3,Win32,59.88023952,1,2,4,,,,,,,,2,05,,,,,,,,,,,2,1.743,1,,,,,,-0.125,-0.243518547,1,0,0,1.7427,Basalt_rect,3,0,3,0,1,
5e27107888daaf016b0daada,TCR,2024-06-20_13h29.07.226,LearnStrategy,2023.2.3,Win32,59.88023952,1,2,5,,,,,,,,8,15,,,,,,,,,,,8,2.384,1,,,,,,0.417592649,-0.401851866,1,0,0,2.3841,Pumice_rect,4,0,4,0,1,
5e27107888daaf016b0daada,TCR,2024-06-20_13h29.07.226,LearnStrategy,2023.2.3,Win32,59.88023952,1,2,6,,,,,,,,5,11,,,,,,,,,,,5,1.519,1,,,,,,-0.419444437,-0.381481524,1,0,0,1.5187,Obsidian_rect,5,0,5,0,1,
5e27107888daaf016b0daada,TCR,2024-06-20_13h29.07.226,LearnStrategy,2023.2.3,Win32,59.88023952,1,2,7,,,,,,,,6,03,,,,,,,,,,,6,8.168,1,,,,,,-0.132407365,-0.401851866,1,0,0,8.1678,Pegmatite_rect,6,0,6,0,1,
5e27107888daaf016b0daada,TCR,2024-06-20_13h29.07.226,LearnStrategy,2023.2.3,Win32,59.88023952,1,2,8,,,,,,,,8,14,,,,,,,,,,,8,1.52,1,,,,,,0.359259288,-0.397222236,1,0,0,1.5203,Pumice_rect,7,0,7,0,1,
5e27107888daaf016b0daada,TCR,2024-06-20_13h29.07.226,LearnStrategy,2023.2.3,Win32,59.88023952,1,2,9,,,,,,,,7,08,,,,,,,,,,,3,7.766,0,,,,,,0.110185199,-0.260185171,1,0,0,7.766,Diorite_rect,8,0,8,0,1,
5e27107888daaf016b0daada,TCR,2024-06-20_13h29.07.226,LearnStrategy,2023.2.3,Win32,59.88023952,1,2,10,,,,,,,,3,09,,,,,,,,,,,7,5.873,0,,,,,,0.082407422,-0.40370369,1,0,0,5.8731,Peridotite_rect,9,0,9,0,1,
5e27107888daaf016b0daada,TCR,2024-06-20_13h29.07.226,LearnStrategy,2023.2.3,Win32,59.88023952,1,2,11,,,,,,,,7,10,,,,,,,,,,,7,1.51,1,,,,,,0.107407393,-0.39444443,1,0,0,1.5095,Peridotite_rect,10,0,10,0,1,
5e27107888daaf016b0daada,TCR,2024-06-20_13h29.07.226,LearnStrategy,2023.2.3,Win32,59.88023952,1,2,12,,,,,,,,2,09,,,,,,,,,,,2,2.334,1,,,,,,-0.149999972,-0.253703718,1,0,0,2.3344,Basalt_rect,11,0,11,0,1,
5e27107888daaf016b0daada,TCR,2024-06-20_13h29.07.226,LearnStrategy,2023.2.3,Win32,59.88023952,1,2,13,,,,,,,,1,09,,,,,,,,,,,1,2.442,1,,,,,,-0.396296289,-0.251851894,1,0,0,2.4421,Andesite_rect,12,0,12,0,1,
5e27107888daaf016b0daada,TCR,2024-06-20_13h29.07.226,LearnStrategy,2023.2.3,Win32,59.88023952,1,2,14,,,,,,,,3,07,,,,,,,,,,,4,9.349,0,,,,,,0.390740712,-0.236111111,1,0,0,9.349,Gabbro_rect,13,0,13,0,1,
5e27107888daaf016b0daada,TCR,2024-06-20_13h29.07.226,LearnStrategy,2023.2.3,Win32,59.88023952,1,2,15,,,,,,,,5,05,,,,,,,,,,,5,1.701,1,,,,,,-0.393518519,-0.402777778,1,0,0,1.7006,Obsidian_rect,14,0,14,0,1,
5e27107888daaf016b0daada,TCR,2024-06-20_13h29.07.226,LearnStrategy,2023.2.3,Win32,59.88023952,1,2,16,,,,,,,,6,08,,,,,,,,,,,6,2.806,1,,,,,,-0.145370342,-0.409259302,1,0,0,2.8062,Pegmatite_rect,15,0,15,0,1,
5e27107888daaf016b0daada,TCR,2024-06-20_13h29.07.226,LearnStrategy,2023.2.3,Win32,59.88023952,2,1,1,-0.02870369,0.010185171,1,0,0,2.1283,rock_grid_rect_2,1,07,-1,-1,2.128,-0.395370377,-0.25462963,1,0,0,3.5046,Andesite_rect,1,3.505,1,0,0,0,0,1,,,,,,,,,,,,,
5e27107888daaf016b0daada,TCR,2024-06-20_13h29.07.226,LearnStrategy,2023.2.3,Win32,59.88023952,2,1,2,-0.044444402,0.001851859,1,0,0,1.9467,rock_grid_rect_2,6,13,-1,-1,1.947,0.14444443,-0.24537037,1,0,0,4.7127,Diorite_rect,3,4.713,0,1,0,1,0,1,,,,,,,,,,,,,
5e27107888daaf016b0daada,TCR,2024-06-20_13h29.07.226,LearnStrategy,2023.2.3,Win32,59.88023952,2,1,3,-0.024999972,-0.002777771,1,0,0,1.6825,rock_grid_rect_2,4,14,-1,-1,1.683,-0.158333319,-0.248148176,1,0,0,2.3569,Basalt_rect,2,2.357,0,2,0,2,0,1,,,,,,,,,,,,,
5e27107888daaf016b0daada,TCR,2024-06-20_13h29.07.226,LearnStrategy,2023.2.3,Win32,59.88023952,2,1,4,0.015740783,0.002777771,1,0,0,1.5801,rock_grid_rect_2,3,10,-1,-1,1.58,0.100000028,-0.233333376,1,0,0,2.852,Diorite_rect,3,2.852,1,3,0,3,0,1,,,,,,,,,,,,,
5e27107888daaf016b0daada,TCR,2024-06-20_13h29.07.226,LearnStrategy,2023.2.3,Win32,59.88023952,2,1,5,-0.041666667,-0.00462963,1,0,0,3.314,rock_grid_rect_2,7,07,-1,-1,3.314,0.102777764,-0.249074088,1,0,0,5.4217,Diorite_rect,3,5.422,0,4,0,4,0,1,,,,,,,,,,,,,
5e27107888daaf016b0daada,TCR,2024-06-20_13h29.07.226,LearnStrategy,2023.2.3,Win32,59.88023952,2,1,6,-0.01944443,0,1,0,0,1.2317,rock_grid_rect_2,3,14,-1,-1,1.232,-0.405555548,-0.244444459,1,0,0,1.6772,Andesite_rect,1,1.677,0,5,0,5,0,1,,,,,,,,,,,,,
5e27107888daaf016b0daada,TCR,2024-06-20_13h29.07.226,LearnStrategy,2023.2.3,Win32,59.88023952,2,1,7,0.014814801,0,1,0,0,1.303,rock_grid_rect_2,3,02,-1,-1,1.303,0.12962963,-0.249074088,1,0,0,2.9877,Diorite_rect,3,2.988,1,6,0,6,0,1,,,,,,,,,,,,,
5e27107888daaf016b0daada,TCR,2024-06-20_13h29.07.226,LearnStrategy,2023.2.3,Win32,59.88023952,2,1,8,-0.01944443,0.008333312,1,0,0,1.4602,rock_grid_rect_2,4,09,-1,-1,1.46,-0.142592607,-0.247222265,1,0,0,3.6485,Basalt_rect,2,3.649,0,7,0,7,0,1,,,,,,,,,,,,,
5e27107888daaf016b0daada,TCR,2024-06-20_13h29.07.226,LearnStrategy,2023.2.3,Win32,59.88023952,2,1,9,0.011111153,0.000925912,1,0,0,1.151,rock_grid_rect_2,3,10,-1,-1,1.151,0.094444487,-0.240740741,1,0,0,5.0825,Diorite_rect,3,5.082,1,8,0,8,0,1,,,,,,,,,,,,,
5e27107888daaf016b0daada,TCR,2024-06-20_13h29.07.226,LearnStrategy,2023.2.3,Win32,59.88023952,2,1,10,0.000925912,0.006481489,1,0,0,1.1644,rock_grid_rect_2,4,09,-1,-1,1.164,-0.121296282,-0.257407436,1,0,0,2.8136,Basalt_rect,2,2.814,0,9,0,9,0,1,,,,,,,,,,,,,
5e27107888daaf016b0daada,TCR,2024-06-20_13h29.07.226,LearnStrategy,2023.2.3,Win32,59.88023952,2,1,11,-0.008333347,-0.000925947,1,0,0,1.4473,rock_grid_rect_2,3,15,-1,-1,1.447,-0.110185199,-0.39907406,1,0,0,4.4536,Pegmatite_rect,6,4.454,0,10,0,10,0,1,,,,,,,,,,,,,
5e27107888daaf016b0daada,TCR,2024-06-20_13h29.07.226,LearnStrategy,2023.2.3,Win32,59.88023952,2,1,12,-0.053703661,0,1,0,0,1.7331,rock_grid_rect_2,1,01,-1,-1,1.733,-0.366666653,-0.25462963,1,0,0,2.7444,Andesite_rect,1,2.744,1,11,0,11,0,1,,,,,,,,,,,,,
5e27107888daaf016b0daada,TCR,2024-06-20_13h29.07.226,LearnStrategy,2023.2.3,Win32,59.88023952,2,1,13,-0.017592607,0.000925912,1,0,0,1.1607,rock_grid_rect_2,1,16,-1,-1,1.161,-0.39166666,-0.243518547,1,0,0,2.1613,Andesite_rect,1,2.161,1,12,0,12,0,1,,,,,,,,,,,,,
5e27107888daaf016b0daada,TCR,2024-06-20_13h29.07.226,LearnStrategy,2023.2.3,Win32,59.88023952,2,1,14,0.043518561,0.001851859,1,0,0,1.3943,rock_grid_rect_2,4,09,-1,-1,1.394,-0.14444443,-0.238888917,1,0,0,1.8151,Basalt_rect,2,1.815,0,13,0,13,0,1,,,,,,,,,,,,,
5e27107888daaf016b0daada,TCR,2024-06-20_13h29.07.226,LearnStrategy,2023.2.3,Win32,59.88023952,2,1,15,0.002777806,0,1,0,0,1.4288,rock_grid_rect_2,7,02,-1,-1,1.429,0.107407393,-0.390740783,1,0,0,2.9099,Peridotite_rect,7,2.91,1,14,0,14,0,1,,,,,,,,,,,,,
5e27107888daaf016b0daada,TCR,2024-06-20_13h29.07.226,LearnStrategy,2023.2.3,Win32,59.88023952,2,1,16,-0.023148148,0.001851859,1,0,0,1.1122,rock_grid_rect_2,7,04,-1,-1,1.112,0.128703718,-0.252777806,1,0,0,7.6462,Diorite_rect,3,7.646,0,15,0,15,0,1,,,,,,,,,,,,,
5e27107888daaf016b0daada,TCR,2024-06-20_13h29.07.226,LearnStrategy,2023.2.3,Win32,59.88023952,2,2,1,,,,,,,,8,05,,,,,,,,,,,8,2.795,1,,,,,,0.350926011,-0.39907406,1,0,0,2.7953,Pumice_rect,0,0,0,0,1,
5e27107888daaf016b0daada,TCR,2024-06-20_13h29.07.226,LearnStrategy,2023.2.3,Win32,59.88023952,2,2,2,,,,,,,,2,11,,,,,,,,,,,2,6.361,1,,,,,,-0.14444443,-0.244444459,1,0,0,6.3605,Basalt_rect,1,0,1,0,1,
5e27107888daaf016b0daada,TCR,2024-06-20_13h29.07.226,LearnStrategy,2023.2.3,Win32,59.88023952,2,2,3,,,,,,,,1,05,,,,,,,,,,,1,2.007,1,,,,,,-0.374074053,-0.24537037,1,0,0,2.0068,Andesite_rect,2,0,2,0,1,
5e27107888daaf016b0daada,TCR,2024-06-20_13h29.07.226,LearnStrategy,2023.2.3,Win32,59.88023952,2,2,4,,,,,,,,1,02,,,,,,,,,,,1,4.423,1,,,,,,-0.404629637,-0.242592635,1,0,0,4.4229,Andesite_rect,3,0,3,0,1,
5e27107888daaf016b0daada,TCR,2024-06-20_13h29.07.226,LearnStrategy,2023.2.3,Win32,59.88023952,2,2,5,,,,,,,,6,07,,,,,,,,,,,6,9.146,1,,,,,,-0.122222194,-0.40370369,1,0,0,9.1461,Pegmatite_rect,4,0,4,0,1,
5e27107888daaf016b0daada,TCR,2024-06-20_13h29.07.226,LearnStrategy,2023.2.3,Win32,59.88023952,2,2,6,,,,,,,,4,08,,,,,,,,,,,8,4.012,0,,,,,,0.409259231,-0.400925954,1,0,0,4.012,Pumice_rect,5,0,5,0,1,
5e27107888daaf016b0daada,TCR,2024-06-20_13h29.07.226,LearnStrategy,2023.2.3,Win32,59.88023952,2,2,7,,,,,,,,7,06,,,,,,,,,,,6,1.881,0,,,,,,-0.136111083,-0.392592607,1,0,0,1.8811,Pegmatite_rect,6,0,6,0,1,
5e27107888daaf016b0daada,TCR,2024-06-20_13h29.07.226,LearnStrategy,2023.2.3,Win32,59.88023952,2,2,8,,,,,,,,4,15,,,,,,,,,,,4,2.534,1,,,,,,0.393518519,-0.25,1,0,0,2.5342,Gabbro_rect,7,0,7,0,1,
5e27107888daaf016b0daada,TCR,2024-06-20_13h29.07.226,LearnStrategy,2023.2.3,Win32,59.88023952,2,2,9,,,,,,,,6,10,,,,,,,,,,,7,1.777,0,,,,,,0.12962963,-0.410185213,1,0,0,1.7774,Peridotite_rect,8,0,8,0,1,
5e27107888daaf016b0daada,TCR,2024-06-20_13h29.07.226,LearnStrategy,2023.2.3,Win32,59.88023952,2,2,10,,,,,,,,3,06,,,,,,,,,,,1,1.578,0,,,,,,-0.39166666,-0.252777806,1,0,0,1.578,Andesite_rect,9,0,9,0,1,
5e27107888daaf016b0daada,TCR,2024-06-20_13h29.07.226,LearnStrategy,2023.2.3,Win32,59.88023952,2,2,11,,,,,,,,3,11,,,,,,,,,,,1,1.197,0,,,,,,-0.400925919,-0.248148176,1,0,0,1.197,Andesite_rect,10,0,10,0,1,
5e27107888daaf016b0daada,TCR,2024-06-20_13h29.07.226,LearnStrategy,2023.2.3,Win32,59.88023952,2,2,12,,,,,,,,5,16,,,,,,,,,,,5,1.307,1,,,,,,-0.419444437,-0.408333319,1,0,0,1.3073,Obsidian_rect,11,0,11,0,1,
5e27107888daaf016b0daada,TCR,2024-06-20_13h29.07.226,LearnStrategy,2023.2.3,Win32,59.88023952,2,2,13,,,,,,,,8,10,,,,,,,,,,,8,2.33,1,,,,,,0.362037094,-0.412962949,1,0,0,2.3299,Pumice_rect,12,0,12,0,1,
5e27107888daaf016b0daada,TCR,2024-06-20_13h29.07.226,LearnStrategy,2023.2.3,Win32,59.88023952,2,2,14,,,,,,,,7,05,,,,,,,,,,,7,1.794,1,,,,,,0.150925954,-0.40370369,1,0,0,1.7939,Peridotite_rect,13,0,13,0,1,
5e27107888daaf016b0daada,TCR,2024-06-20_13h29.07.226,LearnStrategy,2023.2.3,Win32,59.88023952,2,2,15,,,,,,,,5,14,,,,,,,,,,,5,1.361,1,,,,,,-0.38703703,-0.387037065,1,0,0,1.361,Obsidian_rect,14,0,14,0,1,
5e27107888daaf016b0daada,TCR,2024-06-20_13h29.07.226,LearnStrategy,2023.2.3,Win32,59.88023952,2,2,16,,,,,,,,2,14,,,,,,,,,,,4,1.612,0,,,,,,0.399074131,-0.239814829,1,0,0,1.612,Gabbro_rect,15,0,15,0,1,
5e27107888daaf016b0daada,TCR,2024-06-20_13h29.07.226,LearnStrategy,2023.2.3,Win32,59.88023952,3,1,1,-0.037962949,0.0074074,1,0,0,1.2654,rock_grid_rect_2,2,01,-1,-1,1.265,-0.131481453,-0.248148176,1,0,0,7.8736,Basalt_rect,2,7.874,1,0,0,0,0,1,,,,,,,,,,,,,
5e27107888daaf016b0daada,TCR,2024-06-20_13h29.07.226,LearnStrategy,2023.2.3,Win32,59.88023952,3,1,2,0.047222208,0.005555541,1,0,0,1.011,rock_grid_rect_2,6,09,-1,-1,1.011,-0.106481481,-0.409259302,1,0,0,6.0597,Pegmatite_rect,6,6.06,1,1,0,1,0,1,,,,,,,,,,,,,
5e27107888daaf016b0daada,TCR,2024-06-20_13h29.07.226,LearnStrategy,2023.2.3,Win32,59.88023952,3,1,3,-0.025925884,0.003703683,1,0,0,1.6807,rock_grid_rect_2,4,01,-1,-1,1.681,0.119444459,-0.402777778,1,0,0,4.2918,Peridotite_rect,7,4.292,0,2,0,2,0,1,,,,,,,,,,,,,
5e27107888daaf016b0daada,TCR,2024-06-20_13h29.07.226,LearnStrategy,2023.2.3,Win32,59.88023952,3,1,4,0.010185171,-0.006481489,1,0,0,1.6114,rock_grid_rect_2,7,04,-1,-1,1.611,0.089814857,-0.393518519,1,0,0,2.0711,Peridotite_rect,7,2.071,1,3,0,3,0,1,,,,,,,,,,,,,
5e27107888daaf016b0daada,TCR,2024-06-20_13h29.07.226,LearnStrategy,2023.2.3,Win32,59.88023952,3,1,5,-0.024999972,-0.00462963,1,0,0,1.2789,rock_grid_rect_2,4,14,-1,-1,1.279,-0.116666653,-0.244444459,1,0,0,1.8593,Basalt_rect,2,1.859,0,4,0,4,0,1,,,,,,,,,,,,,
5e27107888daaf016b0daada,TCR,2024-06-20_13h29.07.226,LearnStrategy,2023.2.3,Win32,59.88023952,3,1,6,-0.012962977,-0.003703718,1,0,0,1.1951,rock_grid_rect_2,7,07,-1,-1,1.195,0.123148176,-0.393518519,1,0,0,2.2499,Peridotite_rect,7,2.25,1,5,0,5,0,1,,,,,,,,,,,,,
5e27107888daaf016b0daada,TCR,2024-06-20_13h29.07.226,LearnStrategy,2023.2.3,Win32,59.88023952,3,1,7,-0.006481453,0,1,0,0,1.0692,rock_grid_rect_2,2,06,-1,-1,1.069,-0.114814829,-0.252777806,1,0,0,1.5287,Basalt_rect,2,1.529,1,6,0,6,0,1,,,,,,,,,,,,,
5e27107888daaf016b0daada,TCR,2024-06-20_13h29.07.226,LearnStrategy,2023.2.3,Win32,59.88023952,3,1,8,-0.007407365,0.006481489,1,0,0,1.2672,rock_grid_rect_2,6,09,-1,-1,1.267,-0.14444443,-0.400925954,1,0,0,3.5156,Pegmatite_rect,6,3.516,1,7,0,7,0,1,,,,,,,,,,,,,
5e27107888daaf016b0daada,TCR,2024-06-20_13h29.07.226,LearnStrategy,2023.2.3,Win32,59.88023952,3,1,9,-0.027777778,-0.003703718,1,0,0,1.146,rock_grid_rect_2,3,15,-1,-1,1.146,-0.377777771,-0.25462963,1,0,0,1.7231,Andesite_rect,1,1.723,0,8,0,8,0,1,,,,,,,,,,,,,
5e27107888daaf016b0daada,TCR,2024-06-20_13h29.07.226,LearnStrategy,2023.2.3,Win32,59.88023952,3,1,10,0.011111153,-0.003703718,1,0,0,1.2036,rock_grid_rect_2,1,06,-1,-1,1.204,-0.404629637,-0.256481524,1,0,0,2.521,Andesite_rect,1,2.521,1,9,0,9,0,1,,,,,,,,,,,,,
5e27107888daaf016b0daada,TCR,2024-06-20_13h29.07.226,LearnStrategy,2023.2.3,Win32,59.88023952,3,1,11,-0.001851824,0.000925912,1,0,0,1.4772,rock_grid_rect_2,3,13,-1,-1,1.477,-0.417592578,-0.246296282,1,0,0,2.3078,Andesite_rect,1,2.308,0,10,0,10,0,1,,,,,,,,,,,,,
5e27107888daaf016b0daada,TCR,2024-06-20_13h29.07.226,LearnStrategy,2023.2.3,Win32,59.88023952,3,1,12,0.040740755,0.011111118,1,0,0,1.2533,rock_grid_rect_2,1,11,-1,-1,1.253,-0.125925912,-0.238888917,1,0,0,1.8965,Basalt_rect,2,1.896,0,11,0,11,0,1,,,,,,,,,,,,,
5e27107888daaf016b0daada,TCR,2024-06-20_13h29.07.226,LearnStrategy,2023.2.3,Win32,59.88023952,3,1,13,0.032407407,0.002777771,1,0,0,1.4172,rock_grid_rect_2,3,12,-1,-1,1.417,0.143518519,-0.389814801,1,0,0,2.9099,Peridotite_rect,7,2.91,0,12,0,12,0,1,,,,,,,,,,,,,
5e27107888daaf016b0daada,TCR,2024-06-20_13h29.07.226,LearnStrategy,2023.2.3,Win32,59.88023952,3,1,14,-0.005555541,0.00462963,1,0,0,1.5286,rock_grid_rect_2,3,02,-1,-1,1.529,-0.431481467,-0.250925912,1,0,0,2.5366,Andesite_rect,1,2.537,0,13,0,13,0,1,,,,,,,,,,,,,
5e27107888daaf016b0daada,TCR,2024-06-20_13h29.07.226,LearnStrategy,2023.2.3,Win32,59.88023952,3,1,15,0.058333362,-0.000925947,1,0,0,1.4443,rock_grid_rect_2,4,14,-1,-1,1.444,-0.107407393,-0.246296282,1,0,0,1.2601,Basalt_rect,2,1.26,0,14,0,14,0,1,,,,,,,,,,,,,
5e27107888daaf016b0daada,TCR,2024-06-20_13h29.07.226,LearnStrategy,2023.2.3,Win32,59.88023952,3,1,16,0.032407407,0.010185171,1,0,0,1.2472,rock_grid_rect_2,8,08,-1,-1,1.247,0.390740712,-0.404629672,1,0,0,1.5277,Pumice_rect,8,1.528,1,15,0,15,0,1,,,,,,,,,,,,,
5e27107888daaf016b0daada,TCR,2024-06-20_13h29.07.226,LearnStrategy,2023.2.3,Win32,59.88023952,3,2,1,,,,,,,,3,08,,,,,,,,,,,3,7.801,1,,,,,,0.148148148,-0.251851894,1,0,0,7.8013,Diorite_rect,0,0,0,0,1,
5e27107888daaf016b0daada,TCR,2024-06-20_13h29.07.226,LearnStrategy,2023.2.3,Win32,59.88023952,3,2,2,,,,,,,,1,04,,,,,,,,,,,3,5.312,0,,,,,,0.143518519,-0.247222265,1,0,0,5.3118,Diorite_rect,1,0,1,0,1,
5e27107888daaf016b0daada,TCR,2024-06-20_13h29.07.226,LearnStrategy,2023.2.3,Win32,59.88023952,3,2,3,,,,,,,,5,07,,,,,,,,,,,5,1.466,1,,,,,,-0.409259266,-0.401851866,1,0,0,1.4656,Obsidian_rect,2,0,2,0,1,
5e27107888daaf016b0daada,TCR,2024-06-20_13h29.07.226,LearnStrategy,2023.2.3,Win32,59.88023952,3,2,4,,,,,,,,5,09,,,,,,,,,,,5,0.837,1,,,,,,-0.409259266,-0.400925954,1,0,0,0.8367,Obsidian_rect,3,0,3,0,1,
5e27107888daaf016b0daada,TCR,2024-06-20_13h29.07.226,LearnStrategy,2023.2.3,Win32,59.88023952,3,2,5,,,,,,,,7,12,,,,,,,,,,,7,1.574,1,,,,,,0.145370413,-0.397222236,1,0,0,1.5743,Peridotite_rect,4,0,4,0,1,
5e27107888daaf016b0daada,TCR,2024-06-20_13h29.07.226,LearnStrategy,2023.2.3,Win32,59.88023952,3,2,6,,,,,,,,8,02,,,,,,,,,,,8,1.324,1,,,,,,0.350000028,-0.416666667,1,0,0,1.324,Pumice_rect,5,0,5,0,1,
5e27107888daaf016b0daada,TCR,2024-06-20_13h29.07.226,LearnStrategy,2023.2.3,Win32,59.88023952,3,2,7,,,,,,,,1,10,,,,,,,,,,,8,5.051,0,,,,,,0.363888917,-0.408333319,1,0,0,5.0507,Pumice_rect,6,0,6,0,1,
5e27107888daaf016b0daada,TCR,2024-06-20_13h29.07.226,LearnStrategy,2023.2.3,Win32,59.88023952,3,2,8,,,,,,,,3,16,,,,,,,,,,,6,4.469,0,,,,,,-0.119444459,-0.401851866,1,0,0,4.4692,Pegmatite_rect,7,0,7,0,1,
5e27107888daaf016b0daada,TCR,2024-06-20_13h29.07.226,LearnStrategy,2023.2.3,Win32,59.88023952,3,2,9,,,,,,,,4,10,,,,,,,,,,,2,2.989,0,,,,,,-0.127777735,-0.242592635,1,0,0,2.9894,Basalt_rect,8,0,8,0,1,
5e27107888daaf016b0daada,TCR,2024-06-20_13h29.07.226,LearnStrategy,2023.2.3,Win32,59.88023952,3,2,10,,,,,,,,8,04,,,,,,,,,,,8,1.495,1,,,,,,0.393518519,-0.408333319,1,0,0,1.4946,Pumice_rect,9,0,9,0,1,
5e27107888daaf016b0daada,TCR,2024-06-20_13h29.07.226,LearnStrategy,2023.2.3,Win32,59.88023952,3,2,11,,,,,,,,7,13,,,,,,,,,,,7,1.351,1,,,,,,0.140740783,-0.414814843,1,0,0,1.3514,Peridotite_rect,10,0,10,0,1,
5e27107888daaf016b0daada,TCR,2024-06-20_13h29.07.226,LearnStrategy,2023.2.3,Win32,59.88023952,3,2,12,,,,,,,,6,12,,,,,,,,,,,3,4.813,0,,,,,,0.095370399,-0.255555541,1,0,0,4.8135,Diorite_rect,11,0,11,0,1,
5e27107888daaf016b0daada,TCR,2024-06-20_13h29.07.226,LearnStrategy,2023.2.3,Win32,59.88023952,3,2,13,,,,,,,,6,16,,,,,,,,,,,6,4.659,1,,,,,,-0.135185171,-0.405555584,1,0,0,4.6591,Pegmatite_rect,12,0,12,0,1,
5e27107888daaf016b0daada,TCR,2024-06-20_13h29.07.226,LearnStrategy,2023.2.3,Win32,59.88023952,3,2,14,,,,,,,,4,05,,,,,,,,,,,7,1.863,0,,,,,,0.151851866,-0.393518519,1,0,0,1.8627,Peridotite_rect,13,0,13,0,1,
5e27107888daaf016b0daada,TCR,2024-06-20_13h29.07.226,LearnStrategy,2023.2.3,Win32,59.88023952,3,2,15,,,,,,,,2,02,,,,,,,,,,,2,2.166,1,,,,,,-0.112037023,-0.246296282,1,0,0,2.1661,Basalt_rect,14,0,14,0,1,
5e27107888daaf016b0daada,TCR,2024-06-20_13h29.07.226,LearnStrategy,2023.2.3,Win32,59.88023952,3,2,16,,,,,,,,2,08,,,,,,,,,,,2,1.166,1,,,,,,-0.112037023,-0.247222265,1,0,0,1.1656,Basalt_rect,15,0,15,0,1,
5e27107888daaf016b0daada,TCR,2024-06-20_13h29.07.226,LearnStrategy,2023.2.3,Win32,59.88023952,4,1,1,0.01944443,0,1,0,0,1.579,rock_grid_rect_2,7,02,-1,-1,1.579,0.146296325,-0.393518519,1,0,0,1.6282,Peridotite_rect,7,1.628,1,0,0,0,0,1,,,,,,,,,,,,,
5e27107888daaf016b0daada,TCR,2024-06-20_13h29.07.226,LearnStrategy,2023.2.3,Win32,59.88023952,4,1,2,0.060185185,0.006481489,1,0,0,1.5127,rock_grid_rect_2,3,13,-1,-1,1.513,0.156481496,-0.249074088,1,0,0,3.0934,Diorite_rect,3,3.093,1,1,0,1,0,1,,,,,,,,,,,,,
5e27107888daaf016b0daada,TCR,2024-06-20_13h29.07.226,LearnStrategy,2023.2.3,Win32,59.88023952,4,1,3,0.073148162,-0.000925947,1,0,0,1.3097,rock_grid_rect_2,4,16,-1,-1,1.31,0.450000057,-0.24537037,1,0,0,1.7215,Gabbro_rect,4,1.722,1,2,0,2,0,1,,,,,,,,,,,,,
5e27107888daaf016b0daada,TCR,2024-06-20_13h29.07.226,LearnStrategy,2023.2.3,Win32,59.88023952,4,1,4,0.045370384,0.001851859,1,0,0,1.4628,rock_grid_rect_2,1,11,-1,-1,1.463,-0.40648146,-0.240740741,1,0,0,6.412,Andesite_rect,1,6.412,1,3,0,3,0,1,,,,,,,,,,,,,
5e27107888daaf016b0daada,TCR,2024-06-20_13h29.07.226,LearnStrategy,2023.2.3,Win32,59.88023952,4,1,5,-0.00462963,0.000925912,1,0,0,1.3776,rock_grid_rect_2,3,15,-1,-1,1.378,0.119444459,-0.263888889,1,0,0,5.8101,Diorite_rect,3,5.81,1,4,0,4,0,1,,,,,,,,,,,,,
5e27107888daaf016b0daada,TCR,2024-06-20_13h29.07.226,LearnStrategy,2023.2.3,Win32,59.88023952,4,1,6,0,-0.008333347,1,0,0,1.2439,rock_grid_rect_2,4,09,-1,-1,1.244,-0.104629587,-0.244444459,1,0,0,2.3776,Basalt_rect,2,2.378,0,5,0,5,0,1,,,,,,,,,,,,,
5e27107888daaf016b0daada,TCR,2024-06-20_13h29.07.226,LearnStrategy,2023.2.3,Win32,59.88023952,4,1,7,0.027777778,-0.006481489,1,0,0,1.2152,rock_grid_rect_2,4,09,-1,-1,1.215,0.415740826,-0.237963005,1,0,0,1.6566,Gabbro_rect,4,1.657,1,6,0,6,0,1,,,,,,,,,,,,,
5e27107888daaf016b0daada,TCR,2024-06-20_13h29.07.226,LearnStrategy,2023.2.3,Win32,59.88023952,4,1,8,0.033333319,0.002777771,1,0,0,1.5626,rock_grid_rect_2,2,06,-1,-1,1.563,-0.119444459,-0.239814829,1,0,0,1.8284,Basalt_rect,2,1.828,1,7,0,7,0,1,,,,,,,,,,,,,
5e27107888daaf016b0daada,TCR,2024-06-20_13h29.07.226,LearnStrategy,2023.2.3,Win32,59.88023952,4,1,9,0.015740783,-0.00462963,1,0,0,1.2613,rock_grid_rect_2,1,06,-1,-1,1.261,-0.388888889,-0.234259288,1,0,0,1.9308,Andesite_rect,1,1.931,1,8,0,8,0,1,,,,,,,,,,,,,
5e27107888daaf016b0daada,TCR,2024-06-20_13h29.07.226,LearnStrategy,2023.2.3,Win32,59.88023952,4,1,10,0.068518533,0.005555541,1,0,0,1.0461,rock_grid_rect_2,4,01,-1,-1,1.046,0.143518519,-0.400925954,1,0,0,2.127,Peridotite_rect,7,2.127,0,9,0,9,0,1,,,,,,,,,,,,,
5e27107888daaf016b0daada,TCR,2024-06-20_13h29.07.226,LearnStrategy,2023.2.3,Win32,59.88023952,4,1,11,0,-0.00462963,1,0,0,1.2313,rock_grid_rect_2,1,03,-1,-1,1.231,0.102777764,-0.387962977,1,0,0,1.682,Peridotite_rect,7,1.682,0,10,0,10,0,1,,,,,,,,,,,,,
5e27107888daaf016b0daada,TCR,2024-06-20_13h29.07.226,LearnStrategy,2023.2.3,Win32,59.88023952,4,1,12,0.015740783,-0.0074074,1,0,0,1.4449,rock_grid_rect_2,7,16,-1,-1,1.445,0.101851852,-0.397222236,1,0,0,1.6171,Peridotite_rect,7,1.617,1,11,0,11,0,1,,,,,,,,,,,,,
5e27107888daaf016b0daada,TCR,2024-06-20_13h29.07.226,LearnStrategy,2023.2.3,Win32,59.88023952,4,1,13,0.050925926,0,1,0,0,1.1957,rock_grid_rect_2,8,09,-1,-1,1.196,0.395370342,-0.401851866,1,0,0,1.3615,Pumice_rect,8,1.361,1,12,0,12,0,1,,,,,,,,,,,,,
5e27107888daaf016b0daada,TCR,2024-06-20_13h29.07.226,LearnStrategy,2023.2.3,Win32,59.88023952,4,1,14,0.046296296,0.005555541,1,0,0,1.3286,rock_grid_rect_2,3,12,-1,-1,1.329,-0.127777735,-0.397222236,1,0,0,4.4259,Pegmatite_rect,6,4.426,0,13,0,13,0,1,,,,,,,,,,,,,
5e27107888daaf016b0daada,TCR,2024-06-20_13h29.07.226,LearnStrategy,2023.2.3,Win32,59.88023952,4,1,15,0.030555584,0.002777771,1,0,0,1.9706,rock_grid_rect_2,6,15,-1,-1,1.971,0.131481524,-0.24537037,1,0,0,5.144,Diorite_rect,3,5.144,0,14,0,14,0,1,,,,,,,,,,,,,
5e27107888daaf016b0daada,TCR,2024-06-20_13h29.07.226,LearnStrategy,2023.2.3,Win32,59.88023952,4,1,16,0.010185171,0.006481489,1,0,0,1.6503,rock_grid_rect_2,6,13,-1,-1,1.65,-0.134259259,-0.39444443,1,0,0,1.848,Pegmatite_rect,6,1.848,1,15,0,15,0,1,,,,,,,,,,,,,
5e27107888daaf016b0daada,TCR,2024-06-20_13h29.07.226,LearnStrategy,2023.2.3,Win32,59.88023952,4,2,1,,,,,,,,4,11,,,,,,,,,,,2,2.687,0,,,,,,-0.127777735,-0.248148176,1,0,0,2.6871,Basalt_rect,0,0,0,0,1,
5e27107888daaf016b0daada,TCR,2024-06-20_13h29.07.226,LearnStrategy,2023.2.3,Win32,59.88023952,4,2,2,,,,,,,,7,13,,,,,,,,,,,7,1.453,1,,,,,,0.141666695,-0.408333319,1,0,0,1.4528,Peridotite_rect,1,0,1,0,1,
5e27107888daaf016b0daada,TCR,2024-06-20_13h29.07.226,LearnStrategy,2023.2.3,Win32,59.88023952,4,2,3,,,,,,,,2,08,,,,,,,,,,,2,1.487,1,,,,,,-0.125925912,-0.243518547,1,0,0,1.4874,Basalt_rect,2,0,2,0,1,
5e27107888daaf016b0daada,TCR,2024-06-20_13h29.07.226,LearnStrategy,2023.2.3,Win32,59.88023952,4,2,4,,,,,,,,1,10,,,,,,,,,,,8,1.587,0,,,,,,0.422222279,-0.400000042,1,0,0,1.5866,Pumice_rect,3,0,3,0,1,
5e27107888daaf016b0daada,TCR,2024-06-20_13h29.07.226,LearnStrategy,2023.2.3,Win32,59.88023952,4,2,5,,,,,,,,7,10,,,,,,,,,,,7,1.475,1,,,,,,0.160185213,-0.406481496,1,0,0,1.4753,Peridotite_rect,4,0,4,0,1,
5e27107888daaf016b0daada,TCR,2024-06-20_13h29.07.226,LearnStrategy,2023.2.3,Win32,59.88023952,4,2,6,,,,,,,,5,11,,,,,,,,,,,5,1.256,1,,,,,,-0.349999993,-0.411111125,1,0,0,1.2564,Obsidian_rect,5,0,5,0,1,
5e27107888daaf016b0daada,TCR,2024-06-20_13h29.07.226,LearnStrategy,2023.2.3,Win32,59.88023952,4,2,7,,,,,,,,6,07,,,,,,,,,,,6,5.13,1,,,,,,-0.124074088,-0.402777778,1,0,0,5.1301,Pegmatite_rect,6,0,6,0,1,
5e27107888daaf016b0daada,TCR,2024-06-20_13h29.07.226,LearnStrategy,2023.2.3,Win32,59.88023952,4,2,8,,,,,,,,3,07,,,,,,,,,,,3,3.434,1,,,,,,0.108333376,-0.238888917,1,0,0,3.4341,Diorite_rect,7,0,7,0,1,
5e27107888daaf016b0daada,TCR,2024-06-20_13h29.07.226,LearnStrategy,2023.2.3,Win32,59.88023952,4,2,9,,,,,,,,8,15,,,,,,,,,,,8,1.603,1,,,,,,0.361111111,-0.40370369,1,0,0,1.6033,Pumice_rect,8,0,8,0,1,
5e27107888daaf016b0daada,TCR,2024-06-20_13h29.07.226,LearnStrategy,2023.2.3,Win32,59.88023952,4,2,10,,,,,,,,3,09,,,,,,,,,,,3,4.135,1,,,,,,0.110185199,-0.258333347,1,0,0,4.1347,Diorite_rect,9,0,9,0,1,
5e27107888daaf016b0daada,TCR,2024-06-20_13h29.07.226,LearnStrategy,2023.2.3,Win32,59.88023952,4,2,11,,,,,,,,1,02,,,,,,,,,,,3,1.952,0,,,,,,0.106481481,-0.253703718,1,0,0,1.9517,Diorite_rect,10,0,10,0,1,
5e27107888daaf016b0daada,TCR,2024-06-20_13h29.07.226,LearnStrategy,2023.2.3,Win32,59.88023952,4,2,12,,,,,,,,6,03,,,,,,,,,,,6,4.035,1,,,,,,-0.15370369,-0.39444443,1,0,0,4.0349,Pegmatite_rect,11,0,11,0,1,
5e27107888daaf016b0daada,TCR,2024-06-20_13h29.07.226,LearnStrategy,2023.2.3,Win32,59.88023952,4,2,13,,,,,,,,5,16,,,,,,,,,,,5,1.22,1,,,,,,-0.437962956,-0.400000042,1,0,0,1.2202,Obsidian_rect,12,0,12,0,1,
5e27107888daaf016b0daada,TCR,2024-06-20_13h29.07.226,LearnStrategy,2023.2.3,Win32,59.88023952,4,2,14,,,,,,,,8,04,,,,,,,,,,,8,1.226,1,,,,,,0.376851824,-0.410185213,1,0,0,1.2257,Pumice_rect,13,0,13,0,1,
5e27107888daaf016b0daada,TCR,2024-06-20_13h29.07.226,LearnStrategy,2023.2.3,Win32,59.88023952,4,2,15,,,,,,,,4,05,,,,,,,,,,,7,1.36,0,,,,,,0.150000042,-0.410185213,1,0,0,1.3598,Peridotite_rect,14,0,14,0,1,
5e27107888daaf016b0daada,TCR,2024-06-20_13h29.07.226,LearnStrategy,2023.2.3,Win32,59.88023952,4,2,16,,,,,,,,2,05,,,,,,,,,,,2,1.208,1,,,,,,-0.159259231,-0.251851894,1,0,0,1.2085,Basalt_rect,15,0,15,0,1,
5e27107888daaf016b0daada,TCR,2024-06-20_13h29.07.226,LearnStrategy,2023.2.3,Win32,59.88023952,5,1,1,0.025925954,-0.003703718,1,0,0,1.2128,rock_grid_rect_2,4,01,-1,-1,1.213,-0.384259259,-0.256481524,1,0,0,3.2863,Andesite_rect,1,3.286,0,0,0,0,0,1,,,,,,,,,,,,,
5e27107888daaf016b0daada,TCR,2024-06-20_13h29.07.226,LearnStrategy,2023.2.3,Win32,59.88023952,5,1,2,0.085185228,-0.000925947,1,0,0,1.4178,rock_grid_rect_2,1,01,-1,-1,1.418,-0.447222215,-0.260185171,1,0,0,1.5205,Andesite_rect,1,1.52,1,1,0,1,0,1,,,,,,,,,,,,,
5e27107888daaf016b0daada,TCR,2024-06-20_13h29.07.226,LearnStrategy,2023.2.3,Win32,59.88023952,5,1,3,0.031481496,0.000925912,1,0,0,1.4611,rock_grid_rect_2,1,03,-1,-1,1.461,0.112037023,-0.389814801,1,0,0,1.7155,Peridotite_rect,7,1.715,0,2,0,2,0,1,,,,,,,,,,,,,
5e27107888daaf016b0daada,TCR,2024-06-20_13h29.07.226,LearnStrategy,2023.2.3,Win32,59.88023952,5,1,4,0.033333319,-0.002777771,1,0,0,1.4165,rock_grid_rect_2,6,09,-1,-1,1.417,-0.123148106,-0.395370413,1,0,0,1.9715,Pegmatite_rect,6,1.971,1,3,0,3,0,1,,,,,,,,,,,,,
5e27107888daaf016b0daada,TCR,2024-06-20_13h29.07.226,LearnStrategy,2023.2.3,Win32,59.88023952,5,1,5,0.01944443,-0.001851859,1,0,0,1.1957,rock_grid_rect_2,4,12,-1,-1,1.196,-0.398148148,-0.249074088,1,0,0,2.3145,Andesite_rect,1,2.314,0,4,0,4,0,1,,,,,,,,,,,,,
5e27107888daaf016b0daada,TCR,2024-06-20_13h29.07.226,LearnStrategy,2023.2.3,Win32,59.88023952,5,1,6,0.013888889,0.000925912,1,0,0,1.3287,rock_grid_rect_2,4,16,-1,-1,1.329,0.390740712,-0.239814829,1,0,0,1.959,Gabbro_rect,4,1.959,1,5,0,5,0,1,,,,,,,,,,,,,
5e27107888daaf016b0daada,TCR,2024-06-20_13h29.07.226,LearnStrategy,2023.2.3,Win32,59.88023952,5,1,7,-0.010185171,0.003703683,1,0,0,1.4786,rock_grid_rect_2,3,14,-1,-1,1.479,0.100000028,-0.25462963,1,0,0,2.7315,Diorite_rect,3,2.732,1,6,0,6,0,1,,,,,,,,,,,,,
5e27107888daaf016b0daada,TCR,2024-06-20_13h29.07.226,LearnStrategy,2023.2.3,Win32,59.88023952,5,1,8,0.05740745,0.002777771,1,0,0,1.3102,rock_grid_rect_2,2,04,-1,-1,1.31,-0.112962935,-0.248148176,1,0,0,1.4328,Basalt_rect,2,1.433,1,7,0,7,0,1,,,,,,,,,,,,,
5e27107888daaf016b0daada,TCR,2024-06-20_13h29.07.226,LearnStrategy,2023.2.3,Win32,59.88023952,5,1,9,-0.031481496,0.003703683,1,0,0,1.2118,rock_grid_rect_2,6,06,-1,-1,1.212,-0.124074088,-0.400925954,1,0,0,1.9693,Pegmatite_rect,6,1.969,1,8,0,8,0,1,,,,,,,,,,,,,
5e27107888daaf016b0daada,TCR,2024-06-20_13h29.07.226,LearnStrategy,2023.2.3,Win32,59.88023952,5,1,10,0.016666695,-0.003703718,1,0,0,1.0653,rock_grid_rect_2,3,13,-1,-1,1.065,0.104629658,-0.247222265,1,0,0,4.3662,Diorite_rect,3,4.366,1,9,0,9,0,1,,,,,,,,,,,,,
5e27107888daaf016b0daada,TCR,2024-06-20_13h29.07.226,LearnStrategy,2023.2.3,Win32,59.88023952,5,1,11,0.025000042,0.003703683,1,0,0,1.2628,rock_grid_rect_2,8,16,-1,-1,1.263,0.395370342,-0.398148148,1,0,0,1.9264,Pumice_rect,8,1.926,1,10,0,10,0,1,,,,,,,,,,,,,
5e27107888daaf016b0daada,TCR,2024-06-20_13h29.07.226,LearnStrategy,2023.2.3,Win32,59.88023952,5,1,12,0.043518561,0.001851859,1,0,0,1.0781,rock_grid_rect_2,1,01,-1,-1,1.078,-0.354629623,-0.246296282,1,0,0,1.4728,Andesite_rect,1,1.473,1,11,0,11,0,1,,,,,,,,,,,,,
5e27107888daaf016b0daada,TCR,2024-06-20_13h29.07.226,LearnStrategy,2023.2.3,Win32,59.88023952,5,1,13,0.048148191,0.005555541,1,0,0,1.5626,rock_grid_rect_2,3,12,-1,-1,1.563,-0.093518504,-0.396296325,1,0,0,7.2461,Pegmatite_rect,6,7.246,0,12,0,12,0,1,,,,,,,,,,,,,
5e27107888daaf016b0daada,TCR,2024-06-20_13h29.07.226,LearnStrategy,2023.2.3,Win32,59.88023952,5,1,14,-0.003703718,0.005555541,1,0,0,1.4023,rock_grid_rect_2,7,02,-1,-1,1.402,0.159259302,-0.400925954,1,0,0,1.6203,Peridotite_rect,7,1.62,1,13,0,13,0,1,,,,,,,,,,,,,
5e27107888daaf016b0daada,TCR,2024-06-20_13h29.07.226,LearnStrategy,2023.2.3,Win32,59.88023952,5,1,15,0.003703718,0.000925912,1,0,0,1.081,rock_grid_rect_2,4,12,-1,-1,1.081,-0.117592564,-0.255555541,1,0,0,1.6498,Basalt_rect,2,1.65,0,14,0,14,0,1,,,,,,,,,,,,,
5e27107888daaf016b0daada,TCR,2024-06-20_13h29.07.226,LearnStrategy,2023.2.3,Win32,59.88023952,5,1,16,0.016666695,-0.003703718,1,0,0,1.3284,rock_grid_rect_2,1,11,-1,-1,1.328,-0.313888868,-0.253703718,1,0,0,2.5217,Andesite_rect,1,2.522,1,15,0,15,0,1,,,,,,,,,,,,,
5e27107888daaf016b0daada,TCR,2024-06-20_13h29.07.226,LearnStrategy,2023.2.3,Win32,59.88023952,5,2,1,,,,,,,,8,14,,,,,,,,,,,8,1.421,1,,,,,,0.380555612,-0.401851866,1,0,0,1.421,Pumice_rect,0,0,0,0,1,
5e27107888daaf016b0daada,TCR,2024-06-20_13h29.07.226,LearnStrategy,2023.2.3,Win32,59.88023952,5,2,2,,,,,,,,6,10,,,,,,,,,,,7,1.374,0,,,,,,0.142592607,-0.407407407,1,0,0,1.3744,Peridotite_rect,1,0,1,0,1,
5e27107888daaf016b0daada,TCR,2024-06-20_13h29.07.226,LearnStrategy,2023.2.3,Win32,59.88023952,5,2,3,,,,,,,,1,04,,,,,,,,,,,1,1.678,1,,,,,,-0.433333326,-0.252777806,1,0,0,1.678,Andesite_rect,2,0,2,0,1,
5e27107888daaf016b0daada,TCR,2024-06-20_13h29.07.226,LearnStrategy,2023.2.3,Win32,59.88023952,5,2,4,,,,,,,,5,09,,,,,,,,,,,5,1.083,1,,,,,,-0.449999986,-0.396296325,1,0,0,1.0833,Obsidian_rect,3,0,3,0,1,
5e27107888daaf016b0daada,TCR,2024-06-20_13h29.07.226,LearnStrategy,2023.2.3,Win32,59.88023952,5,2,5,,,,,,,,7,08,,,,,,,,,,,7,1.795,1,,,,,,0.137962977,-0.382407436,1,0,0,1.7949,Peridotite_rect,4,0,4,0,1,
5e27107888daaf016b0daada,TCR,2024-06-20_13h29.07.226,LearnStrategy,2023.2.3,Win32,59.88023952,5,2,6,,,,,,,,6,08,,,,,,,,,,,6,1.462,1,,,,,,-0.158333319,-0.390740783,1,0,0,1.4625,Pegmatite_rect,5,0,5,0,1,
5e27107888daaf016b0daada,TCR,2024-06-20_13h29.07.226,LearnStrategy,2023.2.3,Win32,59.88023952,5,2,7,,,,,,,,5,05,,,,,,,,,,,5,1.369,1,,,,,,-0.347222222,-0.401851866,1,0,0,1.3689,Obsidian_rect,6,0,6,0,1,
5e27107888daaf016b0daada,TCR,2024-06-20_13h29.07.226,LearnStrategy,2023.2.3,Win32,59.88023952,5,2,8,,,,,,,,8,02,,,,,,,,,,,8,1.274,1,,,,,,0.401851937,-0.416666667,1,0,0,1.2738,Pumice_rect,7,0,7,0,1,
5e27107888daaf016b0daada,TCR,2024-06-20_13h29.07.226,LearnStrategy,2023.2.3,Win32,59.88023952,5,2,9,,,,,,,,2,09,,,,,,,,,,,2,1.323,1,,,,,,-0.080555527,-0.262037065,1,0,0,1.3227,Basalt_rect,8,0,8,0,1,
5e27107888daaf016b0daada,TCR,2024-06-20_13h29.07.226,LearnStrategy,2023.2.3,Win32,59.88023952,5,2,10,,,,,,,,3,06,,,,,,,,,,,6,10.735,0,,,,,,-0.116666653,-0.412962949,1,0,0,10.735,Pegmatite_rect,9,0,9,0,1,
5e27107888daaf016b0daada,TCR,2024-06-20_13h29.07.226,LearnStrategy,2023.2.3,Win32,59.88023952,5,2,11,,,,,,,,3,16,,,,,,,,,,,6,2.143,0,,,,,,-0.116666653,-0.402777778,1,0,0,2.143,Pegmatite_rect,10,0,10,0,1,
5e27107888daaf016b0daada,TCR,2024-06-20_13h29.07.226,LearnStrategy,2023.2.3,Win32,59.88023952,5,2,12,,,,,,,,4,15,,,,,,,,,,,4,2.096,1,,,,,,0.404629601,-0.251851894,1,0,0,2.0965,Gabbro_rect,11,0,11,0,1,
5e27107888daaf016b0daada,TCR,2024-06-20_13h29.07.226,LearnStrategy,2023.2.3,Win32,59.88023952,5,2,13,,,,,,,,4,10,,,,,,,,,,,8,2.761,0,,,,,,0.365740741,-0.39907406,1,0,0,2.7613,Pumice_rect,12,0,12,0,1,
5e27107888daaf016b0daada,TCR,2024-06-20_13h29.07.226,LearnStrategy,2023.2.3,Win32,59.88023952,5,2,14,,,,,,,,2,02,,,,,,,,,,,2,1.229,1,,,,,,-0.107407393,-0.262037065,1,0,0,1.2289,Basalt_rect,13,0,13,0,1,
5e27107888daaf016b0daada,TCR,2024-06-20_13h29.07.226,LearnStrategy,2023.2.3,Win32,59.88023952,5,2,15,,,,,,,,7,05,,,,,,,,,,,7,1.303,1,,,,,,0.12962963,-0.412962949,1,0,0,1.3026,Peridotite_rect,14,0,14,0,1,
5e27107888daaf016b0daada,TCR,2024-06-20_13h29.07.226,LearnStrategy,2023.2.3,Win32,59.88023952,5,2,16,,,,,,,,1,14,,,,,,,,,,,6,4.558,0,,,,,,-0.15370369,-0.396296325,1,0,0,4.5576,Pegmatite_rect,15,0,15,0,1,
5e27107888daaf016b0daada,TCR,2024-06-20_13h29.07.226,LearnStrategy,2023.2.3,Win32,59.88023952,6,1,1,0.036111125,-0.003703718,1,0,0,1.5128,rock_grid_rect_2,3,14,-1,-1,1.513,-0.118518476,-0.401851866,1,0,0,5.7313,Pegmatite_rect,6,5.731,0,0,0,0,0,1,,,,,,,,,,,,,
5e27107888daaf016b0daada,TCR,2024-06-20_13h29.07.226,LearnStrategy,2023.2.3,Win32,59.88023952,6,1,2,-0.006481453,0.002777771,1,0,0,1.2265,rock_grid_rect_2,4,13,-1,-1,1.226,0.436111168,-0.238888917,1,0,0,1.3016,Gabbro_rect,4,1.302,1,1,0,1,0,1,,,,,,,,,,,,,
5e27107888daaf016b0daada,TCR,2024-06-20_13h29.07.226,LearnStrategy,2023.2.3,Win32,59.88023952,6,1,3,0.051851838,0.00462963,1,0,0,1.5948,rock_grid_rect_2,6,11,-1,-1,1.595,-0.122222194,-0.405555584,1,0,0,2.0101,Pegmatite_rect,6,2.01,1,2,0,2,0,1,,,,,,,,,,,,,
5e27107888daaf016b0daada,TCR,2024-06-20_13h29.07.226,LearnStrategy,2023.2.3,Win32,59.88023952,6,1,4,0.000925912,0.006481489,1,0,0,1.3457,rock_grid_rect_2,2,06,-1,-1,1.346,-0.12037037,-0.232407393,1,0,0,1.4444,Basalt_rect,2,1.444,1,3,0,3,0,1,,,,,,,,,,,,,
5e27107888daaf016b0daada,TCR,2024-06-20_13h29.07.226,LearnStrategy,2023.2.3,Win32,59.88023952,6,1,5,-0.018518519,0.006481489,1,0,0,1.395,rock_grid_rect_2,1,03,-1,-1,1.395,0.130555541,-0.39444443,1,0,0,1.4734,Peridotite_rect,7,1.473,0,4,0,4,0,1,,,,,,,,,,,,,
5e27107888daaf016b0daada,TCR,2024-06-20_13h29.07.226,LearnStrategy,2023.2.3,Win32,59.88023952,6,1,6,0.025000042,0.0074074,1,0,0,1.3444,rock_grid_rect_2,5,02,-1,-1,1.344,-0.385185171,-0.412962949,1,0,0,2.1431,Obsidian_rect,5,2.143,1,5,0,5,0,1,,,,,,,,,,,,,
5e27107888daaf016b0daada,TCR,2024-06-20_13h29.07.226,LearnStrategy,2023.2.3,Win32,59.88023952,6,1,7,0.003703718,-0.00462963,1,0,0,1.3601,rock_grid_rect_2,4,16,-1,-1,1.36,0.390740712,-0.247222265,1,0,0,1.5767,Gabbro_rect,4,1.577,1,6,0,6,0,1,,,,,,,,,,,,,
5e27107888daaf016b0daada,TCR,2024-06-20_13h29.07.226,LearnStrategy,2023.2.3,Win32,59.88023952,6,1,8,-0.032407407,0.002777771,1,0,0,1.0274,rock_grid_rect_2,8,03,-1,-1,1.027,0.375925982,-0.400000042,1,0,0,1.4031,Pumice_rect,8,1.403,1,7,0,7,0,1,,,,,,,,,,,,,
5e27107888daaf016b0daada,TCR,2024-06-20_13h29.07.226,LearnStrategy,2023.2.3,Win32,59.88023952,6,1,9,0.050000014,0,1,0,0,1.2619,rock_grid_rect_2,1,06,-1,-1,1.262,-0.389814801,-0.248148176,1,0,0,1.391,Andesite_rect,1,1.391,1,8,0,8,0,1,,,,,,,,,,,,,
5e27107888daaf016b0daada,TCR,2024-06-20_13h29.07.226,LearnStrategy,2023.2.3,Win32,59.88023952,6,1,10,0.047222208,-0.009259259,1,0,0,1.1731,rock_grid_rect_2,4,13,-1,-1,1.173,0.40833339,-0.255555541,1,0,0,1.4642,Gabbro_rect,4,1.464,1,9,0,9,0,1,,,,,,,,,,,,,
5e27107888daaf016b0daada,TCR,2024-06-20_13h29.07.226,LearnStrategy,2023.2.3,Win32,59.88023952,6,1,11,0.038888931,0.001851859,1,0,0,0.9781,rock_grid_rect_2,7,04,-1,-1,0.978,0.12037037,-0.409259302,1,0,0,1.5795,Peridotite_rect,7,1.58,1,10,0,10,0,1,,,,,,,,,,,,,
5e27107888daaf016b0daada,TCR,2024-06-20_13h29.07.226,LearnStrategy,2023.2.3,Win32,59.88023952,6,1,12,0.010185171,-0.000925947,1,0,0,1.0951,rock_grid_rect_2,1,01,-1,-1,1.095,-0.41111109,-0.251851894,1,0,0,1.4381,Andesite_rect,1,1.438,1,11,0,11,0,1,,,,,,,,,,,,,
5e27107888daaf016b0daada,TCR,2024-06-20_13h29.07.226,LearnStrategy,2023.2.3,Win32,59.88023952,6,1,13,0.084259245,0.000925912,1,0,0,1.0632,rock_grid_rect_2,3,14,-1,-1,1.063,-0.112037023,-0.408333319,1,0,0,4.1401,Pegmatite_rect,6,4.14,0,12,0,12,0,1,,,,,,,,,,,,,
5e27107888daaf016b0daada,TCR,2024-06-20_13h29.07.226,LearnStrategy,2023.2.3,Win32,59.88023952,6,1,14,0.062962991,-0.002777771,1,0,0,1.3095,rock_grid_rect_2,6,06,-1,-1,1.31,-0.132407365,-0.415740755,1,0,0,1.5617,Pegmatite_rect,6,1.562,1,13,0,13,0,1,,,,,,,,,,,,,
5e27107888daaf016b0daada,TCR,2024-06-20_13h29.07.226,LearnStrategy,2023.2.3,Win32,59.88023952,6,1,15,0.085185228,-0.00462963,1,0,0,1.2629,rock_grid_rect_2,4,13,-1,-1,1.263,0.392592677,-0.248148176,1,0,0,1.2854,Gabbro_rect,4,1.285,1,14,0,14,0,1,,,,,,,,,,,,,
5e27107888daaf016b0daada,TCR,2024-06-20_13h29.07.226,LearnStrategy,2023.2.3,Win32,59.88023952,6,1,16,-0.011111083,0.000925912,1,0,0,1.3286,rock_grid_rect_2,3,15,-1,-1,1.329,0.089814857,-0.25462963,1,0,0,5.9169,Diorite_rect,3,5.917,1,15,0,15,0,1,,,,,,,,,,,,,
5e27107888daaf016b0daada,TCR,2024-06-20_13h29.07.226,LearnStrategy,2023.2.3,Win32,59.88023952,6,2,1,,,,,,,,1,09,,,,,,,,,,,1,3.07,1,,,,,,-0.39907406,-0.250925912,1,0,0,3.0697,Andesite_rect,0,0,0,0,1,
5e27107888daaf016b0daada,TCR,2024-06-20_13h29.07.226,LearnStrategy,2023.2.3,Win32,59.88023952,6,2,2,,,,,,,,5,14,,,,,,,,,,,5,1.287,1,,,,,,-0.369444423,-0.407407407,1,0,0,1.2865,Obsidian_rect,1,0,1,0,1,
5e27107888daaf016b0daada,TCR,2024-06-20_13h29.07.226,LearnStrategy,2023.2.3,Win32,59.88023952,6,2,3,,,,,,,,6,16,,,,,,,,,,,6,1.337,1,,,,,,-0.158333319,-0.40370369,1,0,0,1.3369,Pegmatite_rect,2,0,2,0,1,
5e27107888daaf016b0daada,TCR,2024-06-20_13h29.07.226,LearnStrategy,2023.2.3,Win32,59.88023952,6,2,4,,,,,,,,2,14,,,,,,,,,,,4,2.555,0,,,,,,0.397222307,-0.243518547,1,0,0,2.5546,Gabbro_rect,3,0,3,0,1,
5e27107888daaf016b0daada,TCR,2024-06-20_13h29.07.226,LearnStrategy,2023.2.3,Win32,59.88023952,6,2,5,,,,,,,,3,08,,,,,,,,,,,3,7.44,1,,,,,,0.103703746,-0.240740741,1,0,0,7.4404,Diorite_rect,4,0,4,0,1,
5e27107888daaf016b0daada,TCR,2024-06-20_13h29.07.226,LearnStrategy,2023.2.3,Win32,59.88023952,6,2,6,,,,,,,,5,07,,,,,,,,,,,5,1.513,1,,,,,,-0.451851845,-0.411111125,1,0,0,1.513,Obsidian_rect,5,0,5,0,1,
5e27107888daaf016b0daada,TCR,2024-06-20_13h29.07.226,LearnStrategy,2023.2.3,Win32,59.88023952,6,2,7,,,,,,,,4,03,,,,,,,,,,,1,3.042,0,,,,,,-0.363888882,-0.247222265,1,0,0,3.0416,Andesite_rect,6,0,6,0,1,
5e27107888daaf016b0daada,TCR,2024-06-20_13h29.07.226,LearnStrategy,2023.2.3,Win32,59.88023952,6,2,8,,,,,,,,8,10,,,,,,,,,,,8,1.485,1,,,,,,0.354629658,-0.414814843,1,0,0,1.4854,Pumice_rect,7,0,7,0,1,
5e27107888daaf016b0daada,TCR,2024-06-20_13h29.07.226,LearnStrategy,2023.2.3,Win32,59.88023952,6,2,9,,,,,,,,1,05,,,,,,,,,,,7,1.606,0,,,,,,0.121296282,-0.413888931,1,0,0,1.6064,Peridotite_rect,8,0,8,0,1,
5e27107888daaf016b0daada,TCR,2024-06-20_13h29.07.226,LearnStrategy,2023.2.3,Win32,59.88023952,6,2,10,,,,,,,,8,05,,,,,,,,,,,8,1.259,1,,,,,,0.357407464,-0.39444443,1,0,0,1.2593,Pumice_rect,9,0,9,0,1,
5e27107888daaf016b0daada,TCR,2024-06-20_13h29.07.226,LearnStrategy,2023.2.3,Win32,59.88023952,6,2,11,,,,,,,,6,12,,,,,,,,,,,6,4.651,1,,,,,,-0.15370369,-0.413888931,1,0,0,4.6509,Pegmatite_rect,10,0,10,0,1,
5e27107888daaf016b0daada,TCR,2024-06-20_13h29.07.226,LearnStrategy,2023.2.3,Win32,59.88023952,6,2,12,,,,,,,,2,11,,,,,,,,,,,4,2.871,0,,,,,,0.409259231,-0.246296282,1,0,0,2.8715,Gabbro_rect,11,0,11,0,1,
5e27107888daaf016b0daada,TCR,2024-06-20_13h29.07.226,LearnStrategy,2023.2.3,Win32,59.88023952,6,2,13,,,,,,,,4,08,,,,,,,,,,,4,1.274,1,,,,,,0.439814815,-0.259259259,1,0,0,1.2744,Gabbro_rect,12,0,12,0,1,
5e27107888daaf016b0daada,TCR,2024-06-20_13h29.07.226,LearnStrategy,2023.2.3,Win32,59.88023952,6,2,14,,,,,,,,7,12,,,,,,,,,,,7,1.389,1,,,,,,0.128703718,-0.400925954,1,0,0,1.389,Peridotite_rect,13,0,13,0,1,
5e27107888daaf016b0daada,TCR,2024-06-20_13h29.07.226,LearnStrategy,2023.2.3,Win32,59.88023952,6,2,15,,,,,,,,7,06,,,,,,,,,,,7,0.917,1,,,,,,0.128703718,-0.400925954,1,0,0,0.9168,Peridotite_rect,14,0,14,0,1,
5e27107888daaf016b0daada,TCR,2024-06-20_13h29.07.226,LearnStrategy,2023.2.3,Win32,59.88023952,6,2,16,,,,,,,,3,11,,,,,,,,,,,3,4.981,1,,,,,,0.099074116,-0.25462963,1,0,0,4.9811,Diorite_rect,15,0,15,0,1,
5e27107888daaf016b0daada,TCR,2024-06-20_13h29.07.226,LearnStrategy,2023.2.3,Win32,59.88023952,7,1,1,-0.012036995,-0.003703718,1,0,0,1.0184,rock_grid_rect_2,4,12,-1,-1,1.018,-0.132407365,-0.250925912,1,0,0,1.4266,Basalt_rect,2,1.427,0,0,0,0,0,1,,,,,,,,,,,,,
5e27107888daaf016b0daada,TCR,2024-06-20_13h29.07.226,LearnStrategy,2023.2.3,Win32,59.88023952,7,1,2,0.014814801,0.005555541,1,0,0,1.0636,rock_grid_rect_2,3,14,-1,-1,1.064,-0.124074088,-0.410185213,1,0,0,4.0012,Pegmatite_rect,6,4.001,0,1,0,1,0,1,,,,,,,,,,,,,
5e27107888daaf016b0daada,TCR,2024-06-20_13h29.07.226,LearnStrategy,2023.2.3,Win32,59.88023952,7,1,3,-0.003703718,0.008333312,1,0,0,1.1273,rock_grid_rect_2,4,01,-1,-1,1.127,-0.113888847,-0.407407407,1,0,0,3.61,Pegmatite_rect,6,3.61,0,2,0,2,0,1,,,,,,,,,,,,,
5e27107888daaf016b0daada,TCR,2024-06-20_13h29.07.226,LearnStrategy,2023.2.3,Win32,59.88023952,7,1,4,0.075925968,0.009259259,1,0,0,1.0111,rock_grid_rect_2,2,06,-1,-1,1.011,-0.106481481,-0.247222265,1,0,0,1.3122,Basalt_rect,2,1.312,1,3,0,3,0,1,,,,,,,,,,,,,
5e27107888daaf016b0daada,TCR,2024-06-20_13h29.07.226,LearnStrategy,2023.2.3,Win32,59.88023952,7,1,5,0.068518533,0.00462963,1,0,0,1.0129,rock_grid_rect_2,2,06,-1,-1,1.013,-0.078703704,-0.257407436,1,0,0,1.146,Basalt_rect,2,1.146,1,4,0,4,0,1,,,,,,,,,,,,,
5e27107888daaf016b0daada,TCR,2024-06-20_13h29.07.226,LearnStrategy,2023.2.3,Win32,59.88023952,7,1,6,-0.001851824,-0.001851859,1,0,0,1.1792,rock_grid_rect_2,1,07,-1,-1,1.179,-0.351851852,-0.234259288,1,0,0,1.4186,Andesite_rect,1,1.419,1,5,0,5,0,1,,,,,,,,,,,,,
5e27107888daaf016b0daada,TCR,2024-06-20_13h29.07.226,LearnStrategy,2023.2.3,Win32,59.88023952,7,1,7,0.01944443,-0.001851859,1,0,0,1.1447,rock_grid_rect_2,3,14,-1,-1,1.145,-0.097222222,-0.400925954,1,0,0,2.1216,Pegmatite_rect,6,2.122,0,6,0,6,0,1,,,,,,,,,,,,,
5e27107888daaf016b0daada,TCR,2024-06-20_13h29.07.226,LearnStrategy,2023.2.3,Win32,59.88023952,7,1,8,0.145370413,-0.012962977,1,0,0,1.3278,rock_grid_rect_2,1,06,-1,-1,1.328,-0.373148141,-0.239814829,1,0,0,1.8683,Andesite_rect,1,1.868,1,7,0,7,0,1,,,,,,,,,,,,,
5e27107888daaf016b0daada,TCR,2024-06-20_13h29.07.226,LearnStrategy,2023.2.3,Win32,59.88023952,7,1,9,0.059259273,0.018518519,1,0,0,1.0315,rock_grid_rect_2,1,06,-1,-1,1.032,-0.365740741,-0.253703718,1,0,0,1.2394,Andesite_rect,1,1.239,1,8,0,8,0,1,,,,,,,,,,,,,
5e27107888daaf016b0daada,TCR,2024-06-20_13h29.07.226,LearnStrategy,2023.2.3,Win32,59.88023952,7,1,10,0.038888931,0.005555541,1,0,0,1.2775,rock_grid_rect_2,6,06,-1,-1,1.278,-0.147222236,-0.393518519,1,0,0,1.3471,Pegmatite_rect,6,1.347,1,9,0,9,0,1,,,,,,,,,,,,,
5e27107888daaf016b0daada,TCR,2024-06-20_13h29.07.226,LearnStrategy,2023.2.3,Win32,59.88023952,7,1,11,0.054629644,0.001851859,1,0,0,1.1939,rock_grid_rect_2,2,10,-1,-1,1.194,0.453703704,-0.256481524,1,0,0,2.1115,Gabbro_rect,4,2.111,0,10,0,10,0,1,,,,,,,,,,,,,
5e27107888daaf016b0daada,TCR,2024-06-20_13h29.07.226,LearnStrategy,2023.2.3,Win32,59.88023952,7,1,12,-0.01944443,0.001851859,1,0,0,1.1289,rock_grid_rect_2,6,13,-1,-1,1.129,-0.160185143,-0.381481524,1,0,0,1.6429,Pegmatite_rect,6,1.643,1,11,0,11,0,1,,,,,,,,,,,,,
5e27107888daaf016b0daada,TCR,2024-06-20_13h29.07.226,LearnStrategy,2023.2.3,Win32,59.88023952,7,1,13,-0.017592607,0.012962942,1,0,0,0.9954,rock_grid_rect_2,4,12,-1,-1,0.995,-0.147222236,-0.240740741,1,0,0,2.2942,Basalt_rect,2,2.294,0,12,0,12,0,1,,,,,,,,,,,,,
5e27107888daaf016b0daada,TCR,2024-06-20_13h29.07.226,LearnStrategy,2023.2.3,Win32,59.88023952,7,1,14,-0.013888889,0.0074074,1,0,0,0.8788,rock_grid_rect_2,4,01,-1,-1,0.879,0.406481566,-0.248148176,1,0,0,4.7209,Gabbro_rect,4,4.721,1,13,0,13,0,1,,,,,,,,,,,,,
5e27107888daaf016b0daada,TCR,2024-06-20_13h29.07.226,LearnStrategy,2023.2.3,Win32,59.88023952,7,1,15,0.088888875,0.0074074,1,0,0,1.2121,rock_grid_rect_2,7,07,-1,-1,1.212,0.097222222,-0.401851866,1,0,0,1.655,Peridotite_rect,7,1.655,1,14,0,14,0,1,,,,,,,,,,,,,
5e27107888daaf016b0daada,TCR,2024-06-20_13h29.07.226,LearnStrategy,2023.2.3,Win32,59.88023952,7,1,16,-0.006481453,0.006481489,1,0,0,0.9634,rock_grid_rect_2,8,16,-1,-1,0.963,0.338888945,-0.40370369,1,0,0,1.6942,Pumice_rect,8,1.694,1,15,0,15,0,1,,,,,,,,,,,,,
5e27107888daaf016b0daada,TCR,2024-06-20_13h29.07.226,LearnStrategy,2023.2.3,Win32,59.88023952,7,2,1,,,,,,,,5,05,,,,,,,,,,,5,1.507,1,,,,,,-0.419444437,-0.413888931,1,0,0,1.5073,Obsidian_rect,0,0,0,0,1,
5e27107888daaf016b0daada,TCR,2024-06-20_13h29.07.226,LearnStrategy,2023.2.3,Win32,59.88023952,7,2,2,,,,,,,,3,11,,,,,,,,,,,3,7.366,1,,,,,,0.180555556,-0.239814829,1,0,0,7.3655,Diorite_rect,1,0,1,0,1,
5e27107888daaf016b0daada,TCR,2024-06-20_13h29.07.226,LearnStrategy,2023.2.3,Win32,59.88023952,7,2,3,,,,,,,,1,02,,,,,,,,,,,3,6.133,0,,,,,,0.095370399,-0.247222265,1,0,0,6.1334,Diorite_rect,2,0,2,0,1,
5e27107888daaf016b0daada,TCR,2024-06-20_13h29.07.226,LearnStrategy,2023.2.3,Win32,59.88023952,7,2,4,,,,,,,,6,10,,,,,,,,,,,7,1.38,0,,,,,,0.102777764,-0.409259302,1,0,0,1.3796,Peridotite_rect,3,0,3,0,1,
5e27107888daaf016b0daada,TCR,2024-06-20_13h29.07.226,LearnStrategy,2023.2.3,Win32,59.88023952,7,2,5,,,,,,,,8,02,,,,,,,,,,,8,1.24,1,,,,,,0.348148205,-0.395370413,1,0,0,1.2404,Pumice_rect,4,0,4,0,1,
5e27107888daaf016b0daada,TCR,2024-06-20_13h29.07.226,LearnStrategy,2023.2.3,Win32,59.88023952,7,2,6,,,,,,,,8,05,,,,,,,,,,,8,0.821,1,,,,,,0.345370399,-0.39907406,1,0,0,0.821,Pumice_rect,5,0,5,0,1,
5e27107888daaf016b0daada,TCR,2024-06-20_13h29.07.226,LearnStrategy,2023.2.3,Win32,59.88023952,7,2,7,,,,,,,,6,16,,,,,,,,,,,6,2.137,1,,,,,,-0.146296254,-0.412037037,1,0,0,2.1375,Pegmatite_rect,6,0,6,0,1,
5e27107888daaf016b0daada,TCR,2024-06-20_13h29.07.226,LearnStrategy,2023.2.3,Win32,59.88023952,7,2,8,,,,,,,,2,08,,,,,,,,,,,4,3.584,0,,,,,,0.393518519,-0.263888889,1,0,0,3.5844,Gabbro_rect,7,0,7,0,1,
5e27107888daaf016b0daada,TCR,2024-06-20_13h29.07.226,LearnStrategy,2023.2.3,Win32,59.88023952,7,2,9,,,,,,,,1,04,,,,,,,,,,,1,1.616,1,,,,,,-0.376851859,-0.255555541,1,0,0,1.6158,Andesite_rect,8,0,8,0,1,
5e27107888daaf016b0daada,TCR,2024-06-20_13h29.07.226,LearnStrategy,2023.2.3,Win32,59.88023952,7,2,10,,,,,,,,7,12,,,,,,,,,,,7,1.559,1,,,,,,0.132407436,-0.406481496,1,0,0,1.5587,Peridotite_rect,9,0,9,0,1,
5e27107888daaf016b0daada,TCR,2024-06-20_13h29.07.226,LearnStrategy,2023.2.3,Win32,59.88023952,7,2,11,,,,,,,,5,07,,,,,,,,,,,5,1.267,1,,,,,,-0.380555541,-0.410185213,1,0,0,1.2668,Obsidian_rect,10,0,10,0,1,
5e27107888daaf016b0daada,TCR,2024-06-20_13h29.07.226,LearnStrategy,2023.2.3,Win32,59.88023952,7,2,12,,,,,,,,4,10,,,,,,,,,,,2,2.341,0,,,,,,-0.101851852,-0.25462963,1,0,0,2.3406,Basalt_rect,11,0,11,0,1,
5e27107888daaf016b0daada,TCR,2024-06-20_13h29.07.226,LearnStrategy,2023.2.3,Win32,59.88023952,7,2,13,,,,,,,,7,13,,,,,,,,,,,7,2.375,1,,,,,,0.104629658,-0.398148148,1,0,0,2.3746,Peridotite_rect,12,0,12,0,1,
5e27107888daaf016b0daada,TCR,2024-06-20_13h29.07.226,LearnStrategy,2023.2.3,Win32,59.88023952,7,2,14,,,,,,,,3,16,,,,,,,,,,,3,4.318,1,,,,,,0.151851866,-0.250925912,1,0,0,4.3183,Diorite_rect,13,0,13,0,1,
5e27107888daaf016b0daada,TCR,2024-06-20_13h29.07.226,LearnStrategy,2023.2.3,Win32,59.88023952,7,2,15,,,,,,,,4,15,,,,,,,,,,,3,4.783,0,,,,,,0.089814857,-0.257407436,1,0,0,4.7832,Diorite_rect,14,0,14,0,1,
5e27107888daaf016b0daada,TCR,2024-06-20_13h29.07.226,LearnStrategy,2023.2.3,Win32,59.88023952,7,2,16,,,,,,,,2,14,,,,,,,,,,,4,1.305,0,,,,,,0.474074046,-0.261111153,1,0,0,1.305,Gabbro_rect,15,0,15,0,1,
5e27107888daaf016b0daada,TCR,2024-06-20_13h29.07.226,LearnStrategy,2023.2.3,Win32,59.88023952,8,1,1,0.013888889,-0.006481489,1,0,0,1.6449,rock_grid_rect_2,4,09,-1,-1,1.645,0.380555612,-0.250925912,1,0,0,2.7891,Gabbro_rect,4,2.789,1,0,0,0,0,1,,,,,,,,,,,,,
5e27107888daaf016b0daada,TCR,2024-06-20_13h29.07.226,LearnStrategy,2023.2.3,Win32,59.88023952,8,1,2,0.018518519,-0.000925947,1,0,0,0.9971,rock_grid_rect_2,1,16,-1,-1,0.997,-0.368518511,-0.256481524,1,0,0,2.0783,Andesite_rect,1,2.078,1,1,0,1,0,1,,,,,,,,,,,,,
5e27107888daaf016b0daada,TCR,2024-06-20_13h29.07.226,LearnStrategy,2023.2.3,Win32,59.88023952,8,1,3,0.017592607,-0.005555577,1,0,0,1.1455,rock_grid_rect_2,1,01,-1,-1,1.145,-0.3824074,-0.246296282,1,0,0,2.5109,Andesite_rect,1,2.511,1,2,0,2,0,1,,,,,,,,,,,,,
5e27107888daaf016b0daada,TCR,2024-06-20_13h29.07.226,LearnStrategy,2023.2.3,Win32,59.88023952,8,1,4,0.074074074,-0.011111118,1,0,0,1.1108,rock_grid_rect_2,3,12,-1,-1,1.111,0.125,-0.253703718,1,0,0,2.0538,Diorite_rect,3,2.054,1,3,0,3,0,1,,,,,,,,,,,,,
5e27107888daaf016b0daada,TCR,2024-06-20_13h29.07.226,LearnStrategy,2023.2.3,Win32,59.88023952,8,1,5,0.003703718,0.000925912,1,0,0,1.0143,rock_grid_rect_2,4,16,-1,-1,1.014,0.376851824,-0.236111111,1,0,0,2.2818,Gabbro_rect,4,2.282,1,4,0,4,0,1,,,,,,,,,,,,,
5e27107888daaf016b0daada,TCR,2024-06-20_13h29.07.226,LearnStrategy,2023.2.3,Win32,59.88023952,8,1,6,0.00462963,0.005555541,1,0,0,1.3626,rock_grid_rect_2,6,06,-1,-1,1.363,-0.12037037,-0.39444443,1,0,0,1.3991,Pegmatite_rect,6,1.399,1,5,0,5,0,1,,,,,,,,,,,,,
5e27107888daaf016b0daada,TCR,2024-06-20_13h29.07.226,LearnStrategy,2023.2.3,Win32,59.88023952,8,1,7,0.106481481,0.001851859,1,0,0,1.1138,rock_grid_rect_2,7,16,-1,-1,1.114,0.10555557,-0.400925954,1,0,0,1.4805,Peridotite_rect,7,1.48,1,6,0,6,0,1,,,,,,,,,,,,,
5e27107888daaf016b0daada,TCR,2024-06-20_13h29.07.226,LearnStrategy,2023.2.3,Win32,59.88023952,8,1,8,0.050000014,0.002777771,1,0,0,0.9114,rock_grid_rect_2,3,12,-1,-1,0.911,0.095370399,-0.260185171,1,0,0,1.881,Diorite_rect,3,1.881,1,7,0,7,0,1,,,,,,,,,,,,,
5e27107888daaf016b0daada,TCR,2024-06-20_13h29.07.226,LearnStrategy,2023.2.3,Win32,59.88023952,8,1,9,0.087962963,-0.001851859,1,0,0,1.3958,rock_grid_rect_2,6,13,-1,-1,1.396,-0.099999958,-0.409259302,1,0,0,1.2927,Pegmatite_rect,6,1.293,1,8,0,8,0,1,,,,,,,,,,,,,
5e27107888daaf016b0daada,TCR,2024-06-20_13h29.07.226,LearnStrategy,2023.2.3,Win32,59.88023952,8,1,10,0.070370356,0.003703683,1,0,0,0.9123,rock_grid_rect_2,2,01,-1,-1,0.912,-0.106481481,-0.251851894,1,0,0,1.8718,Basalt_rect,2,1.872,1,9,0,9,0,1,,,,,,,,,,,,,
5e27107888daaf016b0daada,TCR,2024-06-20_13h29.07.226,LearnStrategy,2023.2.3,Win32,59.88023952,8,1,11,0.045370384,0.015740748,1,0,0,1.0126,rock_grid_rect_2,2,16,-1,-1,1.013,0.378703788,-0.253703718,1,0,0,1.3823,Gabbro_rect,4,1.382,0,10,0,10,0,1,,,,,,,,,,,,,
5e27107888daaf016b0daada,TCR,2024-06-20_13h29.07.226,LearnStrategy,2023.2.3,Win32,59.88023952,8,1,12,0.038888931,-0.00462963,1,0,0,1.1456,rock_grid_rect_2,4,14,-1,-1,1.146,0.382407436,-0.252777806,1,0,0,1.665,Gabbro_rect,4,1.665,1,11,0,11,0,1,,,,,,,,,,,,,
5e27107888daaf016b0daada,TCR,2024-06-20_13h29.07.226,LearnStrategy,2023.2.3,Win32,59.88023952,8,1,13,0.047222208,0.001851859,1,0,0,1.3313,rock_grid_rect_2,1,06,-1,-1,1.331,-0.312037044,-0.260185171,1,0,0,2.0594,Andesite_rect,1,2.059,1,12,0,12,0,1,,,,,,,,,,,,,
5e27107888daaf016b0daada,TCR,2024-06-20_13h29.07.226,LearnStrategy,2023.2.3,Win32,59.88023952,8,1,14,0.084259245,0.001851859,1,0,0,1.5617,rock_grid_rect_2,8,08,-1,-1,1.562,0.36018527,-0.411111125,1,0,0,3.6793,Pumice_rect,8,3.679,1,13,0,13,0,1,,,,,,,,,,,,,
5e27107888daaf016b0daada,TCR,2024-06-20_13h29.07.226,LearnStrategy,2023.2.3,Win32,59.88023952,8,1,15,0.080555598,-0.010185206,1,0,0,1.2621,rock_grid_rect_2,4,01,-1,-1,1.262,0.097222222,-0.247222265,1,0,0,6.8049,Diorite_rect,3,6.805,0,14,0,14,0,1,,,,,,,,,,,,,
5e27107888daaf016b0daada,TCR,2024-06-20_13h29.07.226,LearnStrategy,2023.2.3,Win32,59.88023952,8,1,16,0.058333362,0,1,0,0,1.1637,rock_grid_rect_2,2,01,-1,-1,1.164,-0.134259259,-0.244444459,1,0,0,1.8694,Basalt_rect,2,1.869,1,15,0,15,0,1,,,,,,,,,,,,,
5e27107888daaf016b0daada,TCR,2024-06-20_13h29.07.226,LearnStrategy,2023.2.3,Win32,59.88023952,8,2,1,,,,,,,,2,05,,,,,,,,,,,2,5.641,1,,,,,,-0.09629631,-0.24537037,1,0,0,5.641,Basalt_rect,0,0,0,0,1,
5e27107888daaf016b0daada,TCR,2024-06-20_13h29.07.226,LearnStrategy,2023.2.3,Win32,59.88023952,8,2,2,,,,,,,,1,14,,,,,,,,,,,6,2.766,0,,,,,,-0.101851852,-0.407407407,1,0,0,2.7656,Pegmatite_rect,1,0,1,0,1,
5e27107888daaf016b0daada,TCR,2024-06-20_13h29.07.226,LearnStrategy,2023.2.3,Win32,59.88023952,8,2,3,,,,,,,,3,06,,,,,,,,,,,3,4.827,1,,,,,,0.157407407,-0.237037023,1,0,0,4.8266,Diorite_rect,2,0,2,0,1,
5e27107888daaf016b0daada,TCR,2024-06-20_13h29.07.226,LearnStrategy,2023.2.3,Win32,59.88023952,8,2,4,,,,,,,,1,10,,,,,,,,,,,8,1.793,0,,,,,,0.42314812,-0.402777778,1,0,0,1.7935,Pumice_rect,3,0,3,0,1,
5e27107888daaf016b0daada,TCR,2024-06-20_13h29.07.226,LearnStrategy,2023.2.3,Win32,59.88023952,8,2,5,,,,,,,,3,08,,,,,,,,,,,3,3.06,1,,,,,,0.112037023,-0.248148176,1,0,0,3.0599,Diorite_rect,4,0,4,0,1,
5e27107888daaf016b0daada,TCR,2024-06-20_13h29.07.226,LearnStrategy,2023.2.3,Win32,59.88023952,8,2,6,,,,,,,,2,02,,,,,,,,,,,2,1.271,1,,,,,,-0.124074088,-0.253703718,1,0,0,1.271,Basalt_rect,5,0,5,0,1,
5e27107888daaf016b0daada,TCR,2024-06-20_13h29.07.226,LearnStrategy,2023.2.3,Win32,59.88023952,8,2,7,,,,,,,,8,04,,,,,,,,,,,8,1.342,1,,,,,,0.362962935,-0.404629672,1,0,0,1.3419,Pumice_rect,6,0,6,0,1,
5e27107888daaf016b0daada,TCR,2024-06-20_13h29.07.226,LearnStrategy,2023.2.3,Win32,59.88023952,8,2,8,,,,,,,,6,08,,,,,,,,,,,6,1.275,1,,,,,,-0.208333333,-0.417592578,1,0,0,1.2748,Pegmatite_rect,7,0,7,0,1,
5e27107888daaf016b0daada,TCR,2024-06-20_13h29.07.226,LearnStrategy,2023.2.3,Win32,59.88023952,8,2,9,,,,,,,,7,08,,,,,,,,,,,8,1.278,0,,,,,,0.412963019,-0.406481496,1,0,0,1.2782,Pumice_rect,8,0,8,0,1,
5e27107888daaf016b0daada,TCR,2024-06-20_13h29.07.226,LearnStrategy,2023.2.3,Win32,59.88023952,8,2,10,,,,,,,,4,08,,,,,,,,,,,8,1.592,0,,,,,,0.406481566,-0.406481496,1,0,0,1.5924,Pumice_rect,9,0,9,0,1,
5e27107888daaf016b0daada,TCR,2024-06-20_13h29.07.226,LearnStrategy,2023.2.3,Win32,59.88023952,8,2,11,,,,,,,,5,14,,,,,,,,,,,5,1.328,1,,,,,,-0.378703683,-0.406481496,1,0,0,1.3278,Obsidian_rect,10,0,10,0,1,
5e27107888daaf016b0daada,TCR,2024-06-20_13h29.07.226,LearnStrategy,2023.2.3,Win32,59.88023952,8,2,12,,,,,,,,7,10,,,,,,,,,,,7,1.454,1,,,,,,0.092592593,-0.400925954,1,0,0,1.4543,Peridotite_rect,11,0,11,0,1,
5e27107888daaf016b0daada,TCR,2024-06-20_13h29.07.226,LearnStrategy,2023.2.3,Win32,59.88023952,8,2,13,,,,,,,,6,03,,,,,,,,,,,6,1.323,1,,,,,,-0.131481453,-0.40370369,1,0,0,1.3234,Pegmatite_rect,12,0,12,0,1,
5e27107888daaf016b0daada,TCR,2024-06-20_13h29.07.226,LearnStrategy,2023.2.3,Win32,59.88023952,8,2,14,,,,,,,,8,15,,,,,,,,,,,8,1.143,1,,,,,,0.399999972,-0.400000042,1,0,0,1.1435,Pumice_rect,13,0,13,0,1,
5e27107888daaf016b0daada,TCR,2024-06-20_13h29.07.226,LearnStrategy,2023.2.3,Win32,59.88023952,8,2,15,,,,,,,,5,09,,,,,,,,,,,5,1.204,1,,,,,,-0.40370369,-0.405555584,1,0,0,1.2042,Obsidian_rect,14,0,14,0,1,
5e27107888daaf016b0daada,TCR,2024-06-20_13h29.07.226,LearnStrategy,2023.2.3,Win32,59.88023952,8,2,16,,,,,,,,4,11,,,,,,,,,,,2,2.189,0,,,,,,-0.135185171,-0.255555541,1,0,0,2.1887,Basalt_rect,15,0,15,0,1,
5e27107888daaf016b0daada,TCR,2024-06-20_13h29.07.226,LearnStrategy,2023.2.3,Win32,59.88023952,9,1,1,0.123148176,-0.001851859,1,0,0,1.3635,rock_grid_rect_2,6,05,-1,-1,1.364,-0.108333305,-0.407407407,1,0,0,2.8896,Pegmatite_rect,6,2.89,1,0,0,0,0,1,,,,,,,,,,,,,
5e27107888daaf016b0daada,TCR,2024-06-20_13h29.07.226,LearnStrategy,2023.2.3,Win32,59.88023952,9,1,2,-0.034259231,0.01203703,1,0,0,1.2506,rock_grid_rect_2,6,09,-1,-1,1.251,0.12037037,-0.400000042,1,0,0,1.4174,Peridotite_rect,7,1.417,0,1,0,1,0,1,,,,,,,,,,,,,
5e27107888daaf016b0daada,TCR,2024-06-20_13h29.07.226,LearnStrategy,2023.2.3,Win32,59.88023952,9,1,3,0.084259245,0.018518519,1,0,0,1.1794,rock_grid_rect_2,4,16,-1,-1,1.179,0.40833339,-0.243518547,1,0,0,2.8104,Gabbro_rect,4,2.81,1,2,0,2,0,1,,,,,,,,,,,,,
5e27107888daaf016b0daada,TCR,2024-06-20_13h29.07.226,LearnStrategy,2023.2.3,Win32,59.88023952,9,1,4,-0.02870369,0,1,0,0,1.1795,rock_grid_rect_2,1,01,-1,-1,1.179,-0.395370377,-0.237037023,1,0,0,1.5013,Andesite_rect,1,1.501,1,3,0,3,0,1,,,,,,,,,,,,,
5e27107888daaf016b0daada,TCR,2024-06-20_13h29.07.226,LearnStrategy,2023.2.3,Win32,59.88023952,9,1,5,0.053703732,-0.005555577,1,0,0,0.929,rock_grid_rect_2,1,16,-1,-1,0.929,-0.35833334,-0.247222265,1,0,0,2.3947,Andesite_rect,1,2.395,1,4,0,4,0,1,,,,,,,,,,,,,
5e27107888daaf016b0daada,TCR,2024-06-20_13h29.07.226,LearnStrategy,2023.2.3,Win32,59.88023952,9,1,6,0.037037037,0.001851859,1,0,0,1.1115,rock_grid_rect_2,8,08,-1,-1,1.112,0.352777834,-0.390740783,1,0,0,1.5093,Pumice_rect,8,1.509,1,5,0,5,0,1,,,,,,,,,,,,,
5e27107888daaf016b0daada,TCR,2024-06-20_13h29.07.226,LearnStrategy,2023.2.3,Win32,59.88023952,9,1,7,0.044444473,0.001851859,1,0,0,1.1622,rock_grid_rect_2,4,14,-1,-1,1.162,0.42314812,-0.236111111,1,0,0,1.4366,Gabbro_rect,4,1.437,1,6,0,6,0,1,,,,,,,,,,,,,
5e27107888daaf016b0daada,TCR,2024-06-20_13h29.07.226,LearnStrategy,2023.2.3,Win32,59.88023952,9,1,8,0.044444473,0.006481489,1,0,0,1.1128,rock_grid_rect_2,1,01,-1,-1,1.113,-0.409259266,-0.242592635,1,0,0,1.5471,Andesite_rect,1,1.547,1,7,0,7,0,1,,,,,,,,,,,,,
5e27107888daaf016b0daada,TCR,2024-06-20_13h29.07.226,LearnStrategy,2023.2.3,Win32,59.88023952,9,1,9,-0.00462963,0.01203703,1,0,0,1.2123,rock_grid_rect_2,7,15,-1,-1,1.212,0.142592607,-0.389814801,1,0,0,1.2092,Peridotite_rect,7,1.209,1,8,0,8,0,1,,,,,,,,,,,,,
5e27107888daaf016b0daada,TCR,2024-06-20_13h29.07.226,LearnStrategy,2023.2.3,Win32,59.88023952,9,1,10,0.041666667,-0.000925947,1,0,0,1.0123,rock_grid_rect_2,2,06,-1,-1,1.012,-0.066666638,-0.23055557,1,0,0,1.9384,Basalt_rect,2,1.938,1,9,0,9,0,1,,,,,,,,,,,,,
5e27107888daaf016b0daada,TCR,2024-06-20_13h29.07.226,LearnStrategy,2023.2.3,Win32,59.88023952,9,1,11,0.053703732,0.006481489,1,0,0,1.0455,rock_grid_rect_2,2,10,-1,-1,1.045,0.452777863,-0.243518547,1,0,0,1.2964,Gabbro_rect,4,1.296,0,10,0,10,0,1,,,,,,,,,,,,,
5e27107888daaf016b0daada,TCR,2024-06-20_13h29.07.226,LearnStrategy,2023.2.3,Win32,59.88023952,9,1,12,0.009259259,0,1,0,0,1.0124,rock_grid_rect_2,4,01,-1,-1,1.012,0.117592635,-0.246296282,1,0,0,3.7779,Diorite_rect,3,3.778,0,11,0,11,0,1,,,,,,,,,,,,,
5e27107888daaf016b0daada,TCR,2024-06-20_13h29.07.226,LearnStrategy,2023.2.3,Win32,59.88023952,9,1,13,0.062962991,-0.000925947,1,0,0,0.9471,rock_grid_rect_2,4,09,-1,-1,0.947,0.374074159,-0.260185171,1,0,0,2.842,Gabbro_rect,4,2.842,1,12,0,12,0,1,,,,,,,,,,,,,
5e27107888daaf016b0daada,TCR,2024-06-20_13h29.07.226,LearnStrategy,2023.2.3,Win32,59.88023952,9,1,14,0.112037023,0.0074074,1,0,0,1.1127,rock_grid_rect_2,1,11,-1,-1,1.113,-0.437962956,-0.231481481,1,0,0,6.6687,Andesite_rect,1,6.669,1,13,0,13,0,1,,,,,,,,,,,,,
5e27107888daaf016b0daada,TCR,2024-06-20_13h29.07.226,LearnStrategy,2023.2.3,Win32,59.88023952,9,1,15,0.037962949,-0.002777771,1,0,0,1.1118,rock_grid_rect_2,7,14,-1,-1,1.112,0.107407393,-0.400000042,1,0,0,1.4378,Peridotite_rect,7,1.438,1,14,0,14,0,1,,,,,,,,,,,,,
5e27107888daaf016b0daada,TCR,2024-06-20_13h29.07.226,LearnStrategy,2023.2.3,Win32,59.88023952,9,1,16,0.041666667,0.01203703,1,0,0,1.0133,rock_grid_rect_2,3,12,-1,-1,1.013,0.136111153,-0.233333376,1,0,0,5.6711,Diorite_rect,3,5.671,1,15,0,15,0,1,,,,,,,,,,,,,
5e27107888daaf016b0daada,TCR,2024-06-20_13h29.07.226,LearnStrategy,2023.2.3,Win32,59.88023952,9,2,1,,,,,,,,1,09,,,,,,,,,,,1,1.698,1,,,,,,-0.355555534,-0.257407436,1,0,0,1.6983,Andesite_rect,0,0,0,0,1,
5e27107888daaf016b0daada,TCR,2024-06-20_13h29.07.226,LearnStrategy,2023.2.3,Win32,59.88023952,9,2,2,,,,,,,,4,05,,,,,,,,,,,7,2.617,0,,,,,,0.126851894,-0.416666667,1,0,0,2.6168,Peridotite_rect,1,0,1,0,1,
5e27107888daaf016b0daada,TCR,2024-06-20_13h29.07.226,LearnStrategy,2023.2.3,Win32,59.88023952,9,2,3,,,,,,,,1,05,,,,,,,,,,,1,4.718,1,,,,,,-0.393518519,-0.243518547,1,0,0,4.7182,Andesite_rect,2,0,2,0,1,
5e27107888daaf016b0daada,TCR,2024-06-20_13h29.07.226,LearnStrategy,2023.2.3,Win32,59.88023952,9,2,4,,,,,,,,6,12,,,,,,,,,,,6,1.384,1,,,,,,-0.097222222,-0.418518561,1,0,0,1.3842,Pegmatite_rect,3,0,3,0,1,
5e27107888daaf016b0daada,TCR,2024-06-20_13h29.07.226,LearnStrategy,2023.2.3,Win32,59.88023952,9,2,5,,,,,,,,8,14,,,,,,,,,,,8,1.307,1,,,,,,0.45648151,-0.409259302,1,0,0,1.3075,Pumice_rect,4,0,4,0,1,
5e27107888daaf016b0daada,TCR,2024-06-20_13h29.07.226,LearnStrategy,2023.2.3,Win32,59.88023952,9,2,6,,,,,,,,2,11,,,,,,,,,,,8,4.224,0,,,,,,0.437962991,-0.392592607,1,0,0,4.2236,Pumice_rect,5,0,5,0,1,
5e27107888daaf016b0daada,TCR,2024-06-20_13h29.07.226,LearnStrategy,2023.2.3,Win32,59.88023952,9,2,7,,,,,,,,4,03,,,,,,,,,,,1,3.917,0,,,,,,-0.374074053,-0.270370413,1,0,0,3.9172,Andesite_rect,6,0,6,0,1,
5e27107888daaf016b0daada,TCR,2024-06-20_13h29.07.226,LearnStrategy,2023.2.3,Win32,59.88023952,9,2,8,,,,,,,,3,07,,,,,,,,,,,6,1.938,0,,,,,,-0.12037037,-0.396296325,1,0,0,1.9378,Pegmatite_rect,7,0,7,0,1,
5e27107888daaf016b0daada,TCR,2024-06-20_13h29.07.226,LearnStrategy,2023.2.3,Win32,59.88023952,9,2,9,,,,,,,,8,10,,,,,,,,,,,8,1.342,1,,,,,,0.378703788,-0.40370369,1,0,0,1.342,Pumice_rect,8,0,8,0,1,
5e27107888daaf016b0daada,TCR,2024-06-20_13h29.07.226,LearnStrategy,2023.2.3,Win32,59.88023952,9,2,10,,,,,,,,7,06,,,,,,,,,,,7,1.083,1,,,,,,0.141666695,-0.391666695,1,0,0,1.083,Peridotite_rect,9,0,9,0,1,
5e27107888daaf016b0daada,TCR,2024-06-20_13h29.07.226,LearnStrategy,2023.2.3,Win32,59.88023952,9,2,11,,,,,,,,3,09,,,,,,,,,,,3,3.963,1,,,,,,0.08148151,-0.250925912,1,0,0,3.9626,Diorite_rect,10,0,10,0,1,
5e27107888daaf016b0daada,TCR,2024-06-20_13h29.07.226,LearnStrategy,2023.2.3,Win32,59.88023952,9,2,12,,,,,,,,6,07,,,,,,,,,,,7,1.316,0,,,,,,0.099074116,-0.39444443,1,0,0,1.3159,Peridotite_rect,11,0,11,0,1,
5e27107888daaf016b0daada,TCR,2024-06-20_13h29.07.226,LearnStrategy,2023.2.3,Win32,59.88023952,9,2,13,,,,,,,,7,05,,,,,,,,,,,7,2.639,1,,,,,,0.098148134,-0.395370413,1,0,0,2.6386,Peridotite_rect,12,0,12,0,1,
5e27107888daaf016b0daada,TCR,2024-06-20_13h29.07.226,LearnStrategy,2023.2.3,Win32,59.88023952,9,2,14,,,,,,,,2,09,,,,,,,,,,,2,1.739,1,,,,,,-0.130555541,-0.252777806,1,0,0,1.7387,Basalt_rect,13,0,13,0,1,
5e27107888daaf016b0daada,TCR,2024-06-20_13h29.07.226,LearnStrategy,2023.2.3,Win32,59.88023952,9,2,15,,,,,,,,5,11,,,,,,,,,,,5,1.243,1,,,,,,-0.417592578,-0.387037065,1,0,0,1.2429,Obsidian_rect,14,0,14,0,1,
5e27107888daaf016b0daada,TCR,2024-06-20_13h29.07.226,LearnStrategy,2023.2.3,Win32,59.88023952,9,2,16,,,,,,,,5,16,,,,,,,,,,,5,0.935,1,,,,,,-0.41111109,-0.39907406,1,0,0,0.9353,Obsidian_rect,15,0,15,0,1,
5e27107888daaf016b0daada,TCR,2024-06-20_13h29.07.226,LearnStrategy,2023.2.3,Win32,59.88023952,,,,,,,,,,,,,,,,,,,,,,,,,,,,,,,,,,,,,,,,,,,1
5e27107888daaf016b0daada,TCR,2024-06-20_13h29.07.226,LearnStrategy,2023.2.3,Win32,59.88023952,,,,,,,,,,,,,,,,,,,,,,,,,,,,,,,,,,,,,,,,,,,
5e27107888daaf016b0daada,TCR,2024-06-20_13h29.07.226,LearnStrategy,2023.2.3,Win32,59.88023952,,,,,,,,,,,3,14,1,1,,,,,,,,,,,,,,,,,,,,,,,,,,,,,
5e27107888daaf016b0daada,TCR,2024-06-20_13h29.07.226,LearnStrategy,2023.2.3,Win32,59.88023952,,,,,,,,,,,4,01,1,2,,,,,,,,,,,,,,,,,,,,,,,,,,,,,
5e27107888daaf016b0daada,TCR,2024-06-20_13h29.07.226,LearnStrategy,2023.2.3,Win32,59.88023952,,,,,,,,,,,7,14,1,3,,,,,,,,,,,,,,,,,,,,,,,,,,,,,
5e27107888daaf016b0daada,TCR,2024-06-20_13h29.07.226,LearnStrategy,2023.2.3,Win32,59.88023952,,,,,,,,,,,5,10,1,4,,,,,,,,,,,,,,,,,,,,,,,,,,,,,
5e27107888daaf016b0daada,TCR,2024-06-20_13h29.07.226,LearnStrategy,2023.2.3,Win32,59.88023952,,,,,,,,,,,1,06,1,5,,,,,,,,,,,,,,,,,,,,,,,,,,,,,
5e27107888daaf016b0daada,TCR,2024-06-20_13h29.07.226,LearnStrategy,2023.2.3,Win32,59.88023952,,,,,,,,,,,1,03,1,6,,,,,,,,,,,,,,,,,,,,,,,,,,,,,
5e27107888daaf016b0daada,TCR,2024-06-20_13h29.07.226,LearnStrategy,2023.2.3,Win32,59.88023952,,,,,,,,,,,8,08,1,7,,,,,,,,,,,,,,,,,,,,,,,,,,,,,
5e27107888daaf016b0daada,TCR,2024-06-20_13h29.07.226,LearnStrategy,2023.2.3,Win32,59.88023952,,,,,,,,,,,1,01,1,8,,,,,,,,,,,,,,,,,,,,,,,,,,,,,
5e27107888daaf016b0daada,TCR,2024-06-20_13h29.07.226,LearnStrategy,2023.2.3,Win32,59.88023952,,,,,,,,,,,8,16,2,1,,,,,,,,,,,,,,,,,,,,,,,,,,,,,
5e27107888daaf016b0daada,TCR,2024-06-20_13h29.07.226,LearnStrategy,2023.2.3,Win32,59.88023952,,,,,,,,,,,7,15,2,2,,,,,,,,,,,,,,,,,,,,,,,,,,,,,
5e27107888daaf016b0daada,TCR,2024-06-20_13h29.07.226,LearnStrategy,2023.2.3,Win32,59.88023952,,,,,,,,,,,2,10,2,3,,,,,,,,,,,,,,,,,,,,,,,,,,,,,
5e27107888daaf016b0daada,TCR,2024-06-20_13h29.07.226,LearnStrategy,2023.2.3,Win32,59.88023952,,,,,,,,,,,2,04,2,4,,,,,,,,,,,,,,,,,,,,,,,,,,,,,
5e27107888daaf016b0daada,TCR,2024-06-20_13h29.07.226,LearnStrategy,2023.2.3,Win32,59.88023952,,,,,,,,,,,8,13,2,5,,,,,,,,,,,,,,,,,,,,,,,,,,,,,
5e27107888daaf016b0daada,TCR,2024-06-20_13h29.07.226,LearnStrategy,2023.2.3,Win32,59.88023952,,,,,,,,,,,6,11,2,6,,,,,,,,,,,,,,,,,,,,,,,,,,,,,
5e27107888daaf016b0daada,TCR,2024-06-20_13h29.07.226,LearnStrategy,2023.2.3,Win32,59.88023952,,,,,,,,,,,8,06,2,7,,,,,,,,,,,,,,,,,,,,,,,,,,,,,
5e27107888daaf016b0daada,TCR,2024-06-20_13h29.07.226,LearnStrategy,2023.2.3,Win32,59.88023952,,,,,,,,,,,4,14,2,8,,,,,,,,,,,,,,,,,,,,,,,,,,,,,
5e27107888daaf016b0daada,TCR,2024-06-20_13h29.07.226,LearnStrategy,2023.2.3,Win32,59.88023952,,,,,,,,,,,7,07,3,1,,,,,,,,,,,,,,,,,,,,,,,,,,,,,
5e27107888daaf016b0daada,TCR,2024-06-20_13h29.07.226,LearnStrategy,2023.2.3,Win32,59.88023952,,,,,,,,,,,5,08,3,2,,,,,,,,,,,,,,,,,,,,,,,,,,,,,
5e27107888daaf016b0daada,TCR,2024-06-20_13h29.07.226,LearnStrategy,2023.2.3,Win32,59.88023952,,,,,,,,,,,7,16,3,3,,,,,,,,,,,,,,,,,,,,,,,,,,,,,
5e27107888daaf016b0daada,TCR,2024-06-20_13h29.07.226,LearnStrategy,2023.2.3,Win32,59.88023952,,,,,,,,,,,2,06,3,4,,,,,,,,,,,,,,,,,,,,,,,,,,,,,
5e27107888daaf016b0daada,TCR,2024-06-20_13h29.07.226,LearnStrategy,2023.2.3,Win32,59.88023952,,,,,,,,,,,8,09,3,5,,,,,,,,,,,,,,,,,,,,,,,,,,,,,
5e27107888daaf016b0daada,TCR,2024-06-20_13h29.07.226,LearnStrategy,2023.2.3,Win32,59.88023952,,,,,,,,,,,5,02,3,6,,,,,,,,,,,,,,,,,,,,,,,,,,,,,
5e27107888daaf016b0daada,TCR,2024-06-20_13h29.07.226,LearnStrategy,2023.2.3,Win32,59.88023952,,,,,,,,,,,7,04,3,7,,,,,,,,,,,,,,,,,,,,,,,,,,,,,
5e27107888daaf016b0daada,TCR,2024-06-20_13h29.07.226,LearnStrategy,2023.2.3,Win32,59.88023952,,,,,,,,,,,4,09,3,8,,,,,,,,,,,,,,,,,,,,,,,,,,,,,
5e27107888daaf016b0daada,TCR,2024-06-20_13h29.07.226,LearnStrategy,2023.2.3,Win32,59.88023952,,,,,,,,,,,3,02,4,1,,,,,,,,,,,,,,,,,,,,,,,,,,,,,
5e27107888daaf016b0daada,TCR,2024-06-20_13h29.07.226,LearnStrategy,2023.2.3,Win32,59.88023952,,,,,,,,,,,4,16,4,2,,,,,,,,,,,,,,,,,,,,,,,,,,,,,
5e27107888daaf016b0daada,TCR,2024-06-20_13h29.07.226,LearnStrategy,2023.2.3,Win32,59.88023952,,,,,,,,,,,5,12,4,3,,,,,,,,,,,,,,,,,,,,,,,,,,,,,
5e27107888daaf016b0daada,TCR,2024-06-20_13h29.07.226,LearnStrategy,2023.2.3,Win32,59.88023952,,,,,,,,,,,6,15,4,4,,,,,,,,,,,,,,,,,,,,,,,,,,,,,
5e27107888daaf016b0daada,TCR,2024-06-20_13h29.07.226,LearnStrategy,2023.2.3,Win32,59.88023952,,,,,,,,,,,5,06,4,5,,,,,,,,,,,,,,,,,,,,,,,,,,,,,
5e27107888daaf016b0daada,TCR,2024-06-20_13h29.07.226,LearnStrategy,2023.2.3,Win32,59.88023952,,,,,,,,,,,4,12,4,6,,,,,,,,,,,,,,,,,,,,,,,,,,,,,
5e27107888daaf016b0daada,TCR,2024-06-20_13h29.07.226,LearnStrategy,2023.2.3,Win32,59.88023952,,,,,,,,,,,3,15,4,7,,,,,,,,,,,,,,,,,,,,,,,,,,,,,
5e27107888daaf016b0daada,TCR,2024-06-20_13h29.07.226,LearnStrategy,2023.2.3,Win32,59.88023952,,,,,,,,,,,3,13,4,8,,,,,,,,,,,,,,,,,,,,,,,,,,,,,
5e27107888daaf016b0daada,TCR,2024-06-20_13h29.07.226,LearnStrategy,2023.2.3,Win32,59.88023952,,,,,,,,,,,7,02,5,1,,,,,,,,,,,,,,,,,,,,,,,,,,,,,
5e27107888daaf016b0daada,TCR,2024-06-20_13h29.07.226,LearnStrategy,2023.2.3,Win32,59.88023952,,,,,,,,,,,2,12,5,2,,,,,,,,,,,,,,,,,,,,,,,,,,,,,
5e27107888daaf016b0daada,TCR,2024-06-20_13h29.07.226,LearnStrategy,2023.2.3,Win32,59.88023952,,,,,,,,,,,8,03,5,3,,,,,,,,,,,,,,,,,,,,,,,,,,,,,
5e27107888daaf016b0daada,TCR,2024-06-20_13h29.07.226,LearnStrategy,2023.2.3,Win32,59.88023952,,,,,,,,,,,6,09,5,4,,,,,,,,,,,,,,,,,,,,,,,,,,,,,
5e27107888daaf016b0daada,TCR,2024-06-20_13h29.07.226,LearnStrategy,2023.2.3,Win32,59.88023952,,,,,,,,,,,3,10,5,5,,,,,,,,,,,,,,,,,,,,,,,,,,,,,
5e27107888daaf016b0daada,TCR,2024-06-20_13h29.07.226,LearnStrategy,2023.2.3,Win32,59.88023952,,,,,,,,,,,3,12,5,6,,,,,,,,,,,,,,,,,,,,,,,,,,,,,
5e27107888daaf016b0daada,TCR,2024-06-20_13h29.07.226,LearnStrategy,2023.2.3,Win32,59.88023952,,,,,,,,,,,5,04,5,7,,,,,,,,,,,,,,,,,,,,,,,,,,,,,
5e27107888daaf016b0daada,TCR,2024-06-20_13h29.07.226,LearnStrategy,2023.2.3,Win32,59.88023952,,,,,,,,,,,6,05,5,8,,,,,,,,,,,,,,,,,,,,,,,,,,,,,
5e27107888daaf016b0daada,TCR,2024-06-20_13h29.07.226,LearnStrategy,2023.2.3,Win32,59.88023952,,,,,,,,,,,6,06,6,1,,,,,,,,,,,,,,,,,,,,,,,,,,,,,
5e27107888daaf016b0daada,TCR,2024-06-20_13h29.07.226,LearnStrategy,2023.2.3,Win32,59.88023952,,,,,,,,,,,6,13,6,2,,,,,,,,,,,,,,,,,,,,,,,,,,,,,
5e27107888daaf016b0daada,TCR,2024-06-20_13h29.07.226,LearnStrategy,2023.2.3,Win32,59.88023952,,,,,,,,,,,4,13,6,3,,,,,,,,,,,,,,,,,,,,,,,,,,,,,
5e27107888daaf016b0daada,TCR,2024-06-20_13h29.07.226,LearnStrategy,2023.2.3,Win32,59.88023952,,,,,,,,,,,1,07,6,4,,,,,,,,,,,,,,,,,,,,,,,,,,,,,
5e27107888daaf016b0daada,TCR,2024-06-20_13h29.07.226,LearnStrategy,2023.2.3,Win32,59.88023952,,,,,,,,,,,2,16,6,5,,,,,,,,,,,,,,,,,,,,,,,,,,,,,
5e27107888daaf016b0daada,TCR,2024-06-20_13h29.07.226,LearnStrategy,2023.2.3,Win32,59.88023952,,,,,,,,,,,1,11,6,6,,,,,,,,,,,,,,,,,,,,,,,,,,,,,
5e27107888daaf016b0daada,TCR,2024-06-20_13h29.07.226,LearnStrategy,2023.2.3,Win32,59.88023952,,,,,,,,,,,2,01,6,7,,,,,,,,,,,,,,,,,,,,,,,,,,,,,
5e27107888daaf016b0daada,TCR,2024-06-20_13h29.07.226,LearnStrategy,2023.2.3,Win32,59.88023952,,,,,,,,,,,1,16,6,8,,,,,,,,,,,,,,,,,,,,,,,,,,,,,