participant,condition,date,expName,psychopyVersion,OS,frameRate,block,phase,trial,learn_mouse.x,learn_mouse.y,learn_mouse.leftButton,learn_mouse.midButton,learn_mouse.rightButton,learn_mouse.time,learn_mouse.clicked_name,cat,token,row,col,t_select,cat_rec,token_rec,cat_mouse_l.x,cat_mouse_l.y,cat_mouse_l.leftButton,cat_mouse_l.midButton,cat_mouse_l.rightButton,cat_mouse_l.time,cat_mouse_l.clicked_name,resp,t_resp,corr,train_trials.thisRepN,train_trials.thisTrialN,train_trials.thisN,train_trials.thisIndex,train_trials.ran,cat_mouse_t.x,cat_mouse_t.y,cat_mouse_t.leftButton,cat_mouse_t.midButton,cat_mouse_t.rightButton,cat_mouse_t.time,cat_mouse_t.clicked_name,test_trials.thisRepN,test_trials.thisTrialN,test_trials.thisN,test_trials.thisIndex,test_trials.ran
5e2bf2153a9311222d4892c6,SCR,2024-06-10_15h26.36.418,LearnStrategy,2023.2.3,MacIntel,33.33333333,,,,,,,,,,,,,,,,,,,,,,,,,,,,,,,,,,,,,,,,,,,,
5e2bf2153a9311222d4892c6,SCR,2024-06-10_15h26.36.418,LearnStrategy,2023.2.3,MacIntel,33.33333333,1,1,1,0.531111111,0.427777778,1,0,0,4.811,Diorite_07,3,07,6,8,4.811,3,07,0.188888889,-0.405555556,1,0,0,4.187,Peridotite_rect,7,4.187,0,0,0,0,0,1,,,,,,,,,,,,
5e2bf2153a9311222d4892c6,SCR,2024-06-10_15h26.36.418,LearnStrategy,2023.2.3,MacIntel,33.33333333,1,1,2,0.577777778,0.086666667,1,0,0,1.734,Pumice_15,8,15,4,8,1.734,8,15,-0.106666667,-0.264444444,1,0,0,2.75,Basalt_rect,2,2.75,0,1,0,1,0,1,,,,,,,,,,,,
5e2bf2153a9311222d4892c6,SCR,2024-06-10_15h26.36.418,LearnStrategy,2023.2.3,MacIntel,33.33333333,1,1,3,0.254444444,0.078888889,1,0,0,1.598,Diorite_08,3,08,4,6,1.598,3,08,-0.358888889,-0.392222222,1,0,0,4.7,Obsidian_rect,5,4.7,0,2,0,2,0,1,,,,,,,,,,,,
5e2bf2153a9311222d4892c6,SCR,2024-06-10_15h26.36.418,LearnStrategy,2023.2.3,MacIntel,33.33333333,1,1,4,0.266666667,-0.418888889,1,0,0,1.167,Pegmatite_07,6,07,1,6,1.167,6,07,-0.407777778,-0.246666667,1,0,0,3.459,Andesite_rect,1,3.459,0,3,0,3,0,1,,,,,,,,,,,,
5e2bf2153a9311222d4892c6,SCR,2024-06-10_15h26.36.418,LearnStrategy,2023.2.3,MacIntel,33.33333333,1,1,5,0.552222222,-0.268888889,1,0,0,1.252,Peridotite_08,7,08,2,8,1.252,7,08,-0.313333333,-0.255555556,1,0,0,6.833,Andesite_rect,1,6.833,0,4,0,4,0,1,,,,,,,,,,,,
5e2bf2153a9311222d4892c6,SCR,2024-06-10_15h26.36.418,LearnStrategy,2023.2.3,MacIntel,33.33333333,1,1,6,0.055555556,0.425555556,1,0,0,1.447,Andesite_07,1,07,6,5,1.447,1,07,-0.347777778,-0.405555556,1,0,0,2.686,Obsidian_rect,5,2.686,0,5,0,5,0,1,,,,,,,,,,,,
5e2bf2153a9311222d4892c6,SCR,2024-06-10_15h26.36.418,LearnStrategy,2023.2.3,MacIntel,33.33333333,1,1,7,-0.072222222,0.098888889,1,0,0,2.216,Gabbro_15,4,15,4,4,2.216,4,15,-0.103333333,-0.247777778,1,0,0,6.631,Basalt_rect,2,6.631,0,6,0,6,0,1,,,,,,,,,,,,
5e2bf2153a9311222d4892c6,SCR,2024-06-10_15h26.36.418,LearnStrategy,2023.2.3,MacIntel,33.33333333,1,1,8,-0.071111111,-0.232222222,1,0,0,1.017,Basalt_09,2,09,2,4,1.017,2,09,0.383333333,-0.236666667,1,0,0,6.925,Gabbro_rect,4,6.925,0,7,0,7,0,1,,,,,,,,,,,,
5e2bf2153a9311222d4892c6,SCR,2024-06-10_15h26.36.418,LearnStrategy,2023.2.3,MacIntel,33.33333333,1,1,9,-0.346666667,-0.235555556,1,0,0,7.962,Basalt_01,2,01,2,2,7.962,2,01,-0.097777778,-0.256666667,1,0,0,1.748,Basalt_rect,2,1.748,1,8,0,8,0,1,,,,,,,,,,,,
5e2bf2153a9311222d4892c6,SCR,2024-06-10_15h26.36.418,LearnStrategy,2023.2.3,MacIntel,33.33333333,1,1,10,-0.54,0.066666667,1,0,0,1.28,Pumice_06,8,06,4,1,1.28,8,06,0.384444444,-0.402222222,1,0,0,2.426,Pumice_rect,8,2.426,1,9,0,9,0,1,,,,,,,,,,,,
5e2bf2153a9311222d4892c6,SCR,2024-06-10_15h26.36.418,LearnStrategy,2023.2.3,MacIntel,33.33333333,1,1,11,0.033333333,0.242222222,1,0,0,1.092,Pegmatite_06,6,06,5,5,1.092,6,06,-0.365555556,-0.394444444,1,0,0,4.811,Obsidian_rect,5,4.811,0,10,0,10,0,1,,,,,,,,,,,,
5e2bf2153a9311222d4892c6,SCR,2024-06-10_15h26.36.418,LearnStrategy,2023.2.3,MacIntel,33.33333333,1,1,12,0.382222222,0.262222222,1,0,0,1.399,Obsidian_12,5,12,5,7,1.399,5,12,-0.382222222,-0.401111111,1,0,0,5.583,Obsidian_rect,5,5.583,1,11,0,11,0,1,,,,,,,,,,,,
5e2bf2153a9311222d4892c6,SCR,2024-06-10_15h26.36.418,LearnStrategy,2023.2.3,MacIntel,33.33333333,1,1,13,-0.383333333,-0.373333333,1,0,0,1.755,Obsidian_04,5,04,1,2,1.755,5,04,-0.414444444,-0.398888889,1,0,0,1.286,Obsidian_rect,5,1.286,1,12,0,12,0,1,,,,,,,,,,,,
5e2bf2153a9311222d4892c6,SCR,2024-06-10_15h26.36.418,LearnStrategy,2023.2.3,MacIntel,33.33333333,1,1,14,-0.587777778,-0.433333333,1,0,0,1.287,Gabbro_10,4,10,1,1,1.287,4,10,0.168888889,-0.248888889,1,0,0,4.329,Diorite_rect,3,4.329,0,13,0,13,0,1,,,,,,,,,,,,
5e2bf2153a9311222d4892c6,SCR,2024-06-10_15h26.36.418,LearnStrategy,2023.2.3,MacIntel,33.33333333,1,1,15,0.408888889,-0.282222222,1,0,0,1.266,Andesite_16,1,16,2,7,1.266,1,16,0.125555556,-0.398888889,1,0,0,3.458,Peridotite_rect,7,3.458,0,14,0,14,0,1,,,,,,,,,,,,
5e2bf2153a9311222d4892c6,SCR,2024-06-10_15h26.36.418,LearnStrategy,2023.2.3,MacIntel,33.33333333,1,1,16,0.535555556,-0.42,1,0,0,1.368,Peridotite_06,7,06,1,8,1.368,7,06,0.195555556,-0.266666667,1,0,0,3.728,Diorite_rect,3,3.728,0,15,0,15,0,1,,,,,,,,,,,,
5e2bf2153a9311222d4892c6,SCR,2024-06-10_15h26.36.418,LearnStrategy,2023.2.3,MacIntel,33.33333333,1,2,1,,,,,,,,1,10,,,,,,,,,,,,,3,8.479,0,,,,,,0.132222222,-0.263333333,1,0,0,8.479,Diorite_rect,0,0,0,0,1
5e2bf2153a9311222d4892c6,SCR,2024-06-10_15h26.36.418,LearnStrategy,2023.2.3,MacIntel,33.33333333,1,2,2,,,,,,,,2,08,,,,,,,,,,,,,2,1.562,1,,,,,,-0.14,-0.241111111,1,0,0,1.562,Basalt_rect,1,0,1,0,1
5e2bf2153a9311222d4892c6,SCR,2024-06-10_15h26.36.418,LearnStrategy,2023.2.3,MacIntel,33.33333333,1,2,3,,,,,,,,2,05,,,,,,,,,,,,,2,2.181,1,,,,,,-0.092222222,-0.241111111,1,0,0,2.181,Basalt_rect,2,0,2,0,1
5e2bf2153a9311222d4892c6,SCR,2024-06-10_15h26.36.418,LearnStrategy,2023.2.3,MacIntel,33.33333333,1,2,4,,,,,,,,6,03,,,,,,,,,,,,,7,2.447,0,,,,,,0.13,-0.391111111,1,0,0,2.447,Peridotite_rect,3,0,3,0,1
5e2bf2153a9311222d4892c6,SCR,2024-06-10_15h26.36.418,LearnStrategy,2023.2.3,MacIntel,33.33333333,1,2,5,,,,,,,,3,15,,,,,,,,,,,,,7,2.263,0,,,,,,0.09,-0.384444444,1,0,0,2.263,Peridotite_rect,4,0,4,0,1
5e2bf2153a9311222d4892c6,SCR,2024-06-10_15h26.36.418,LearnStrategy,2023.2.3,MacIntel,33.33333333,1,2,6,,,,,,,,4,11,,,,,,,,,,,,,2,2.457,0,,,,,,-0.1,-0.25,1,0,0,2.457,Basalt_rect,5,0,5,0,1
5e2bf2153a9311222d4892c6,SCR,2024-06-10_15h26.36.418,LearnStrategy,2023.2.3,MacIntel,33.33333333,1,2,7,,,,,,,,4,01,,,,,,,,,,,,,4,9.593,1,,,,,,0.398888889,-0.255555556,1,0,0,9.593,Gabbro_rect,6,0,6,0,1
5e2bf2153a9311222d4892c6,SCR,2024-06-10_15h26.36.418,LearnStrategy,2023.2.3,MacIntel,33.33333333,1,2,8,,,,,,,,5,06,,,,,,,,,,,,,5,2.03,1,,,,,,-0.395555556,-0.403333333,1,0,0,2.03,Obsidian_rect,7,0,7,0,1
5e2bf2153a9311222d4892c6,SCR,2024-06-10_15h26.36.418,LearnStrategy,2023.2.3,MacIntel,33.33333333,1,2,9,,,,,,,,7,16,,,,,,,,,,,,,1,11.256,0,,,,,,-0.372222222,-0.264444444,1,0,0,11.256,Andesite_rect,8,0,8,0,1
5e2bf2153a9311222d4892c6,SCR,2024-06-10_15h26.36.418,LearnStrategy,2023.2.3,MacIntel,33.33333333,1,2,10,,,,,,,,1,02,,,,,,,,,,,,,3,5.161,0,,,,,,0.113333333,-0.256666667,1,0,0,5.161,Diorite_rect,9,0,9,0,1
5e2bf2153a9311222d4892c6,SCR,2024-06-10_15h26.36.418,LearnStrategy,2023.2.3,MacIntel,33.33333333,1,2,11,,,,,,,,8,08,,,,,,,,,,,,,8,2.007,1,,,,,,0.382222222,-0.386666667,1,0,0,2.007,Pumice_rect,10,0,10,0,1
5e2bf2153a9311222d4892c6,SCR,2024-06-10_15h26.36.418,LearnStrategy,2023.2.3,MacIntel,33.33333333,1,2,12,,,,,,,,8,05,,,,,,,,,,,,,8,1.093,1,,,,,,0.387777778,-0.39,1,0,0,1.093,Pumice_rect,11,0,11,0,1
5e2bf2153a9311222d4892c6,SCR,2024-06-10_15h26.36.418,LearnStrategy,2023.2.3,MacIntel,33.33333333,1,2,13,,,,,,,,6,13,,,,,,,,,,,,,7,1.541,0,,,,,,0.152222222,-0.404444444,1,0,0,1.541,Peridotite_rect,12,0,12,0,1
5e2bf2153a9311222d4892c6,SCR,2024-06-10_15h26.36.418,LearnStrategy,2023.2.3,MacIntel,33.33333333,1,2,14,,,,,,,,5,14,,,,,,,,,,,,,5,1.137,1,,,,,,-0.435555556,-0.417777778,1,0,0,1.137,Obsidian_rect,13,0,13,0,1
5e2bf2153a9311222d4892c6,SCR,2024-06-10_15h26.36.418,LearnStrategy,2023.2.3,MacIntel,33.33333333,1,2,15,,,,,,,,3,09,,,,,,,,,,,,,7,1.428,0,,,,,,0.121111111,-0.392222222,1,0,0,1.428,Peridotite_rect,14,0,14,0,1
5e2bf2153a9311222d4892c6,SCR,2024-06-10_15h26.36.418,LearnStrategy,2023.2.3,MacIntel,33.33333333,1,2,16,,,,,,,,7,14,,,,,,,,,,,,,6,2.064,0,,,,,,-0.084444444,-0.383333333,1,0,0,2.064,Pegmatite_rect,15,0,15,0,1
5e2bf2153a9311222d4892c6,SCR,2024-06-10_15h26.36.418,LearnStrategy,2023.2.3,MacIntel,33.33333333,2,1,1,0.242222222,0.215555556,1,0,0,2.032,Gabbro_05,4,05,5,6,2.032,4,05,-0.125555556,-0.393333333,1,0,0,4.68,Pegmatite_rect,6,4.68,0,0,0,0,0,1,,,,,,,,,,,,
5e2bf2153a9311222d4892c6,SCR,2024-06-10_15h26.36.418,LearnStrategy,2023.2.3,MacIntel,33.33333333,2,1,2,0.397777778,0.051111111,1,0,0,1.205,Gabbro_12,4,12,4,7,1.205,4,12,-0.102222222,-0.254444444,1,0,0,4.261,Basalt_rect,2,4.261,0,1,0,1,0,1,,,,,,,,,,,,
5e2bf2153a9311222d4892c6,SCR,2024-06-10_15h26.36.418,LearnStrategy,2023.2.3,MacIntel,33.33333333,2,1,3,0.571111111,0.22,1,0,0,1.614,Andesite_09,1,09,5,8,1.614,1,09,-0.101111111,-0.41,1,0,0,4.357,Pegmatite_rect,6,4.357,0,2,0,2,0,1,,,,,,,,,,,,
5e2bf2153a9311222d4892c6,SCR,2024-06-10_15h26.36.418,LearnStrategy,2023.2.3,MacIntel,33.33333333,2,1,4,0.232222222,0.076666667,1,0,0,0.902,Diorite_08,3,08,4,6,0.902,3,08,0.117777778,-0.417777778,1,0,0,2.77,Peridotite_rect,7,2.77,0,3,0,3,0,1,,,,,,,,,,,,
5e2bf2153a9311222d4892c6,SCR,2024-06-10_15h26.36.418,LearnStrategy,2023.2.3,MacIntel,33.33333333,2,1,5,-0.21,0.096666667,1,0,0,1.248,Diorite_13,3,13,4,3,1.248,3,13,0.098888889,-0.267777778,1,0,0,5.302,Diorite_rect,3,5.302,1,4,0,4,0,1,,,,,,,,,,,,
5e2bf2153a9311222d4892c6,SCR,2024-06-10_15h26.36.418,LearnStrategy,2023.2.3,MacIntel,33.33333333,2,1,6,-0.55,-0.237777778,1,0,0,1.217,Diorite_11,3,11,2,1,1.217,3,11,0.114444444,-0.271111111,1,0,0,2.098,Diorite_rect,3,2.098,1,5,0,5,0,1,,,,,,,,,,,,
5e2bf2153a9311222d4892c6,SCR,2024-06-10_15h26.36.418,LearnStrategy,2023.2.3,MacIntel,33.33333333,2,1,7,0.098888889,-0.08,1,0,0,1.207,Andesite_05,1,05,3,5,1.207,1,05,0.164444444,-0.384444444,1,0,0,1.825,Peridotite_rect,7,1.825,0,6,0,6,0,1,,,,,,,,,,,,
5e2bf2153a9311222d4892c6,SCR,2024-06-10_15h26.36.418,LearnStrategy,2023.2.3,MacIntel,33.33333333,2,1,8,0.541111111,-0.224444444,1,0,0,1.152,Peridotite_08,7,08,2,8,1.152,7,08,-0.354444444,-0.267777778,1,0,0,2.92,Andesite_rect,1,2.92,0,7,0,7,0,1,,,,,,,,,,,,
5e2bf2153a9311222d4892c6,SCR,2024-06-10_15h26.36.418,LearnStrategy,2023.2.3,MacIntel,33.33333333,2,1,9,0.084444444,-0.442222222,1,0,0,0.992,Andesite_04,1,04,1,5,0.992,1,04,0.121111111,-0.406666667,1,0,0,3.767,Peridotite_rect,7,3.767,0,8,0,8,0,1,,,,,,,,,,,,
5e2bf2153a9311222d4892c6,SCR,2024-06-10_15h26.36.418,LearnStrategy,2023.2.3,MacIntel,33.33333333,2,1,10,0.094444444,0.251111111,1,0,0,0.968,Pegmatite_06,6,06,5,5,0.968,6,06,0.141111111,-0.386666667,1,0,0,1.369,Peridotite_rect,7,1.369,0,9,0,9,0,1,,,,,,,,,,,,
5e2bf2153a9311222d4892c6,SCR,2024-06-10_15h26.36.418,LearnStrategy,2023.2.3,MacIntel,33.33333333,2,1,11,0.543333333,-0.132222222,1,0,0,1.082,Peridotite_12,7,12,3,8,1.082,7,12,0.112222222,-0.418888889,1,0,0,3.743,Peridotite_rect,7,3.743,1,10,0,10,0,1,,,,,,,,,,,,
5e2bf2153a9311222d4892c6,SCR,2024-06-10_15h26.36.418,LearnStrategy,2023.2.3,MacIntel,33.33333333,2,1,12,-0.067777778,0.235555556,1,0,0,1.197,Pegmatite_16,6,16,5,4,1.197,6,16,-0.098888889,-0.405555556,1,0,0,1.097,Pegmatite_rect,6,1.097,1,11,0,11,0,1,,,,,,,,,,,,
5e2bf2153a9311222d4892c6,SCR,2024-06-10_15h26.36.418,LearnStrategy,2023.2.3,MacIntel,33.33333333,2,1,13,0.221111111,-0.425555556,1,0,0,1.043,Pegmatite_07,6,07,1,6,1.043,6,07,-0.102222222,-0.39,1,0,0,1.028,Pegmatite_rect,6,1.028,1,12,0,12,0,1,,,,,,,,,,,,
5e2bf2153a9311222d4892c6,SCR,2024-06-10_15h26.36.418,LearnStrategy,2023.2.3,MacIntel,33.33333333,2,1,14,0.535555556,-0.103333333,1,0,0,1.269,Peridotite_12,7,12,3,8,1.269,7,12,0.131111111,-0.417777778,1,0,0,1.547,Peridotite_rect,7,1.547,1,13,0,13,0,1,,,,,,,,,,,,
5e2bf2153a9311222d4892c6,SCR,2024-06-10_15h26.36.418,LearnStrategy,2023.2.3,MacIntel,33.33333333,2,1,15,0.568888889,-0.253333333,1,0,0,1.122,Peridotite_08,7,08,2,8,1.122,7,08,0.065555556,-0.394444444,1,0,0,2.615,Peridotite_rect,7,2.615,1,14,0,14,0,1,,,,,,,,,,,,
5e2bf2153a9311222d4892c6,SCR,2024-06-10_15h26.36.418,LearnStrategy,2023.2.3,MacIntel,33.33333333,2,1,16,-0.371111111,0.21,1,0,0,1.066,Basalt_02,2,02,5,2,1.066,2,02,-0.113333333,-0.252222222,1,0,0,2.051,Basalt_rect,2,2.051,1,15,0,15,0,1,,,,,,,,,,,,
5e2bf2153a9311222d4892c6,SCR,2024-06-10_15h26.36.418,LearnStrategy,2023.2.3,MacIntel,33.33333333,2,2,1,,,,,,,,2,10,,,,,,,,,,,,,2,3.761,1,,,,,,-0.108888889,-0.267777778,1,0,0,3.761,Basalt_rect,0,0,0,0,1
5e2bf2153a9311222d4892c6,SCR,2024-06-10_15h26.36.418,LearnStrategy,2023.2.3,MacIntel,33.33333333,2,2,2,,,,,,,,5,07,,,,,,,,,,,,,5,1.293,1,,,,,,-0.372222222,-0.396666667,1,0,0,1.293,Obsidian_rect,1,0,1,0,1
5e2bf2153a9311222d4892c6,SCR,2024-06-10_15h26.36.418,LearnStrategy,2023.2.3,MacIntel,33.33333333,2,2,3,,,,,,,,1,01,,,,,,,,,,,,,7,4.384,0,,,,,,0.086666667,-0.41,1,0,0,4.384,Peridotite_rect,2,0,2,0,1
5e2bf2153a9311222d4892c6,SCR,2024-06-10_15h26.36.418,LearnStrategy,2023.2.3,MacIntel,33.33333333,2,2,4,,,,,,,,3,06,,,,,,,,,,,,,3,2.293,1,,,,,,0.112222222,-0.243333333,1,0,0,2.293,Diorite_rect,3,0,3,0,1
5e2bf2153a9311222d4892c6,SCR,2024-06-10_15h26.36.418,LearnStrategy,2023.2.3,MacIntel,33.33333333,2,2,5,,,,,,,,4,08,,,,,,,,,,,,,4,2.029,1,,,,,,0.355555556,-0.246666667,1,0,0,2.029,Gabbro_rect,4,0,4,0,1
5e2bf2153a9311222d4892c6,SCR,2024-06-10_15h26.36.418,LearnStrategy,2023.2.3,MacIntel,33.33333333,2,2,6,,,,,,,,7,04,,,,,,,,,,,,,6,7.19,0,,,,,,-0.073333333,-0.411111111,1,0,0,7.19,Pegmatite_rect,5,0,5,0,1
5e2bf2153a9311222d4892c6,SCR,2024-06-10_15h26.36.418,LearnStrategy,2023.2.3,MacIntel,33.33333333,2,2,7,,,,,,,,2,14,,,,,,,,,,,,,2,3.144,1,,,,,,-0.122222222,-0.266666667,1,0,0,3.144,Basalt_rect,6,0,6,0,1
5e2bf2153a9311222d4892c6,SCR,2024-06-10_15h26.36.418,LearnStrategy,2023.2.3,MacIntel,33.33333333,2,2,8,,,,,,,,6,10,,,,,,,,,,,,,1,4.306,0,,,,,,-0.37,-0.262222222,1,0,0,4.306,Andesite_rect,7,0,7,0,1
5e2bf2153a9311222d4892c6,SCR,2024-06-10_15h26.36.418,LearnStrategy,2023.2.3,MacIntel,33.33333333,2,2,9,,,,,,,,7,02,,,,,,,,,,,,,7,2.227,1,,,,,,0.114444444,-0.407777778,1,0,0,2.227,Peridotite_rect,8,0,8,0,1
5e2bf2153a9311222d4892c6,SCR,2024-06-10_15h26.36.418,LearnStrategy,2023.2.3,MacIntel,33.33333333,2,2,10,,,,,,,,5,10,,,,,,,,,,,,,5,1.194,1,,,,,,-0.375555556,-0.401111111,1,0,0,1.194,Obsidian_rect,9,0,9,0,1
5e2bf2153a9311222d4892c6,SCR,2024-06-10_15h26.36.418,LearnStrategy,2023.2.3,MacIntel,33.33333333,2,2,11,,,,,,,,4,13,,,,,,,,,,,,,3,3.467,0,,,,,,0.086666667,-0.261111111,1,0,0,3.467,Diorite_rect,10,0,10,0,1
5e2bf2153a9311222d4892c6,SCR,2024-06-10_15h26.36.418,LearnStrategy,2023.2.3,MacIntel,33.33333333,2,2,12,,,,,,,,8,13,,,,,,,,,,,,,8,1.172,1,,,,,,0.356666667,-0.386666667,1,0,0,1.172,Pumice_rect,11,0,11,0,1
5e2bf2153a9311222d4892c6,SCR,2024-06-10_15h26.36.418,LearnStrategy,2023.2.3,MacIntel,33.33333333,2,2,13,,,,,,,,1,03,,,,,,,,,,,,,4,4.393,0,,,,,,0.363333333,-0.255555556,1,0,0,4.393,Gabbro_rect,12,0,12,0,1
5e2bf2153a9311222d4892c6,SCR,2024-06-10_15h26.36.418,LearnStrategy,2023.2.3,MacIntel,33.33333333,2,2,14,,,,,,,,3,10,,,,,,,,,,,,,7,1.361,0,,,,,,0.151111111,-0.391111111,1,0,0,1.361,Peridotite_rect,13,0,13,0,1
5e2bf2153a9311222d4892c6,SCR,2024-06-10_15h26.36.418,LearnStrategy,2023.2.3,MacIntel,33.33333333,2,2,15,,,,,,,,6,15,,,,,,,,,,,,,5,1.249,0,,,,,,-0.393333333,-0.39,1,0,0,1.249,Obsidian_rect,14,0,14,0,1
5e2bf2153a9311222d4892c6,SCR,2024-06-10_15h26.36.418,LearnStrategy,2023.2.3,MacIntel,33.33333333,2,2,16,,,,,,,,8,04,,,,,,,,,,,,,8,1.161,1,,,,,,0.38,-0.382222222,1,0,0,1.161,Pumice_rect,15,0,15,0,1
5e2bf2153a9311222d4892c6,SCR,2024-06-10_15h26.36.418,LearnStrategy,2023.2.3,MacIntel,33.33333333,3,1,1,-0.287777778,0.083333333,1,0,0,0.982,Diorite_13,3,13,4,3,0.982,3,13,0.142222222,-0.382222222,1,0,0,1.104,Peridotite_rect,7,1.104,0,0,0,0,0,1,,,,,,,,,,,,
5e2bf2153a9311222d4892c6,SCR,2024-06-10_15h26.36.418,LearnStrategy,2023.2.3,MacIntel,33.33333333,3,1,2,0.196666667,0.088888889,1,0,0,0.842,Diorite_08,3,08,4,6,0.842,3,08,0.078888889,-0.403333333,1,0,0,1.129,Peridotite_rect,7,1.129,0,1,0,1,0,1,,,,,,,,,,,,
5e2bf2153a9311222d4892c6,SCR,2024-06-10_15h26.36.418,LearnStrategy,2023.2.3,MacIntel,33.33333333,3,1,3,0.573333333,0.268888889,1,0,0,1.078,Andesite_09,1,09,5,8,1.078,1,09,0.163333333,-0.231111111,1,0,0,3.254,Diorite_rect,3,3.254,0,2,0,2,0,1,,,,,,,,,,,,
5e2bf2153a9311222d4892c6,SCR,2024-06-10_15h26.36.418,LearnStrategy,2023.2.3,MacIntel,33.33333333,3,1,4,0.235555556,-0.248888889,1,0,0,0.863,Diorite_12,3,12,2,6,0.863,3,12,0.125555556,-0.386666667,1,0,0,1.798,Peridotite_rect,7,1.798,0,3,0,3,0,1,,,,,,,,,,,,
5e2bf2153a9311222d4892c6,SCR,2024-06-10_15h26.36.418,LearnStrategy,2023.2.3,MacIntel,33.33333333,3,1,5,0.238888889,-0.431111111,1,0,0,1.066,Pegmatite_07,6,07,1,6,1.066,6,07,-0.221111111,-0.39,1,0,0,0.862,Pegmatite_rect,6,0.862,1,4,0,4,0,1,,,,,,,,,,,,
5e2bf2153a9311222d4892c6,SCR,2024-06-10_15h26.36.418,LearnStrategy,2023.2.3,MacIntel,33.33333333,3,1,6,0.431111111,-0.277777778,1,0,0,1.057,Andesite_16,1,16,2,7,1.057,1,16,-0.373333333,-0.236666667,1,0,0,4.288,Andesite_rect,1,4.288,1,5,0,5,0,1,,,,,,,,,,,,
5e2bf2153a9311222d4892c6,SCR,2024-06-10_15h26.36.418,LearnStrategy,2023.2.3,MacIntel,33.33333333,3,1,7,-0.283333333,-0.105555556,1,0,0,1.251,Peridotite_10,7,10,3,3,1.251,7,10,0.108888889,-0.403333333,1,0,0,1.434,Peridotite_rect,7,1.434,1,6,0,6,0,1,,,,,,,,,,,,
5e2bf2153a9311222d4892c6,SCR,2024-06-10_15h26.36.418,LearnStrategy,2023.2.3,MacIntel,33.33333333,3,1,8,-0.048888889,0.281111111,1,0,0,0.896,Pegmatite_16,6,16,5,4,0.896,6,16,-0.076666667,-0.408888889,1,0,0,1.743,Pegmatite_rect,6,1.743,1,7,0,7,0,1,,,,,,,,,,,,
5e2bf2153a9311222d4892c6,SCR,2024-06-10_15h26.36.418,LearnStrategy,2023.2.3,MacIntel,33.33333333,3,1,9,0.053333333,-0.418888889,1,0,0,0.825,Andesite_04,1,04,1,5,0.825,1,04,-0.304444444,-0.261111111,1,0,0,3.371,Andesite_rect,1,3.371,1,8,0,8,0,1,,,,,,,,,,,,
5e2bf2153a9311222d4892c6,SCR,2024-06-10_15h26.36.418,LearnStrategy,2023.2.3,MacIntel,33.33333333,3,1,10,0.558888889,-0.433333333,1,0,0,1.572,Peridotite_06,7,06,1,8,1.572,7,06,0.101111111,-0.391111111,1,0,0,1.272,Peridotite_rect,7,1.272,1,9,0,9,0,1,,,,,,,,,,,,
5e2bf2153a9311222d4892c6,SCR,2024-06-10_15h26.36.418,LearnStrategy,2023.2.3,MacIntel,33.33333333,3,1,11,-0.242222222,0.437777778,1,0,0,1.421,Pegmatite_12,6,12,6,3,1.421,6,12,-0.38,-0.392222222,1,0,0,5.447,Obsidian_rect,5,5.447,0,10,0,10,0,1,,,,,,,,,,,,
5e2bf2153a9311222d4892c6,SCR,2024-06-10_15h26.36.418,LearnStrategy,2023.2.3,MacIntel,33.33333333,3,1,12,-0.371111111,-0.121111111,1,0,0,1.046,Gabbro_16,4,16,3,2,1.046,4,16,-0.112222222,-0.237777778,1,0,0,2.478,Basalt_rect,2,2.478,0,11,0,11,0,1,,,,,,,,,,,,
5e2bf2153a9311222d4892c6,SCR,2024-06-10_15h26.36.418,LearnStrategy,2023.2.3,MacIntel,33.33333333,3,1,13,0.392222222,0.093333333,1,0,0,1.187,Gabbro_12,4,12,4,7,1.187,4,12,0.374444444,-0.248888889,1,0,0,2.258,Gabbro_rect,4,2.258,1,12,0,12,0,1,,,,,,,,,,,,
5e2bf2153a9311222d4892c6,SCR,2024-06-10_15h26.36.418,LearnStrategy,2023.2.3,MacIntel,33.33333333,3,1,14,0.234444444,0.392222222,1,0,0,1.626,Pegmatite_09,6,09,6,6,1.626,6,09,-0.334444444,-0.412222222,1,0,0,5.834,Obsidian_rect,5,5.834,0,13,0,13,0,1,,,,,,,,,,,,
5e2bf2153a9311222d4892c6,SCR,2024-06-10_15h26.36.418,LearnStrategy,2023.2.3,MacIntel,33.33333333,3,1,15,0.535555556,-0.072222222,1,0,0,1.239,Peridotite_12,7,12,3,8,1.239,7,12,0.144444444,-0.394444444,1,0,0,1.273,Peridotite_rect,7,1.273,1,14,0,14,0,1,,,,,,,,,,,,
5e2bf2153a9311222d4892c6,SCR,2024-06-10_15h26.36.418,LearnStrategy,2023.2.3,MacIntel,33.33333333,3,1,16,-0.064444444,0.386666667,1,0,0,1.152,Andesite_14,1,14,6,4,1.152,1,14,0.156666667,-0.384444444,1,0,0,2.785,Peridotite_rect,7,2.785,0,15,0,15,0,1,,,,,,,,,,,,
5e2bf2153a9311222d4892c6,SCR,2024-06-10_15h26.36.418,LearnStrategy,2023.2.3,MacIntel,33.33333333,3,2,1,,,,,,,,2,04,,,,,,,,,,,,,2,3.304,1,,,,,,-0.101111111,-0.248888889,1,0,0,3.304,Basalt_rect,0,0,0,0,1
5e2bf2153a9311222d4892c6,SCR,2024-06-10_15h26.36.418,LearnStrategy,2023.2.3,MacIntel,33.33333333,3,2,2,,,,,,,,8,16,,,,,,,,,,,,,8,1.856,1,,,,,,0.426666667,-0.392222222,1,0,0,1.856,Pumice_rect,1,0,1,0,1
5e2bf2153a9311222d4892c6,SCR,2024-06-10_15h26.36.418,LearnStrategy,2023.2.3,MacIntel,33.33333333,3,2,3,,,,,,,,7,13,,,,,,,,,,,,,7,5.041,1,,,,,,0.146666667,-0.401111111,1,0,0,5.041,Peridotite_rect,2,0,2,0,1
5e2bf2153a9311222d4892c6,SCR,2024-06-10_15h26.36.418,LearnStrategy,2023.2.3,MacIntel,33.33333333,3,2,4,,,,,,,,3,14,,,,,,,,,,,,,1,3.898,0,,,,,,-0.306666667,-0.268888889,1,0,0,3.898,Andesite_rect,3,0,3,0,1
5e2bf2153a9311222d4892c6,SCR,2024-06-10_15h26.36.418,LearnStrategy,2023.2.3,MacIntel,33.33333333,3,2,5,,,,,,,,6,11,,,,,,,,,,,,,6,1.508,1,,,,,,-0.123333333,-0.39,1,0,0,1.508,Pegmatite_rect,4,0,4,0,1
5e2bf2153a9311222d4892c6,SCR,2024-06-10_15h26.36.418,LearnStrategy,2023.2.3,MacIntel,33.33333333,3,2,6,,,,,,,,1,11,,,,,,,,,,,,,1,1.757,1,,,,,,-0.378888889,-0.235555556,1,0,0,1.757,Andesite_rect,5,0,5,0,1
5e2bf2153a9311222d4892c6,SCR,2024-06-10_15h26.36.418,LearnStrategy,2023.2.3,MacIntel,33.33333333,3,2,7,,,,,,,,4,14,,,,,,,,,,,,,4,3.815,1,,,,,,0.464444444,-0.244444444,1,0,0,3.815,Gabbro_rect,6,0,6,0,1
5e2bf2153a9311222d4892c6,SCR,2024-06-10_15h26.36.418,LearnStrategy,2023.2.3,MacIntel,33.33333333,3,2,8,,,,,,,,8,14,,,,,,,,,,,,,8,1.036,1,,,,,,0.42,-0.402222222,1,0,0,1.036,Pumice_rect,7,0,7,0,1
5e2bf2153a9311222d4892c6,SCR,2024-06-10_15h26.36.418,LearnStrategy,2023.2.3,MacIntel,33.33333333,3,2,9,,,,,,,,3,02,,,,,,,,,,,,,1,7.067,0,,,,,,-0.393333333,-0.256666667,1,0,0,7.067,Andesite_rect,8,0,8,0,1
5e2bf2153a9311222d4892c6,SCR,2024-06-10_15h26.36.418,LearnStrategy,2023.2.3,MacIntel,33.33333333,3,2,10,,,,,,,,5,11,,,,,,,,,,,,,5,1.325,1,,,,,,-0.338888889,-0.403333333,1,0,0,1.325,Obsidian_rect,9,0,9,0,1
5e2bf2153a9311222d4892c6,SCR,2024-06-10_15h26.36.418,LearnStrategy,2023.2.3,MacIntel,33.33333333,3,2,11,,,,,,,,5,05,,,,,,,,,,,,,5,1.139,1,,,,,,-0.36,-0.414444444,1,0,0,1.139,Obsidian_rect,10,0,10,0,1
5e2bf2153a9311222d4892c6,SCR,2024-06-10_15h26.36.418,LearnStrategy,2023.2.3,MacIntel,33.33333333,3,2,12,,,,,,,,4,03,,,,,,,,,,,,,4,2.044,1,,,,,,0.431111111,-0.233333333,1,0,0,2.044,Gabbro_rect,11,0,11,0,1
5e2bf2153a9311222d4892c6,SCR,2024-06-10_15h26.36.418,LearnStrategy,2023.2.3,MacIntel,33.33333333,3,2,13,,,,,,,,6,05,,,,,,,,,,,,,6,1.939,1,,,,,,-0.14,-0.4,1,0,0,1.939,Pegmatite_rect,12,0,12,0,1
5e2bf2153a9311222d4892c6,SCR,2024-06-10_15h26.36.418,LearnStrategy,2023.2.3,MacIntel,33.33333333,3,2,14,,,,,,,,1,06,,,,,,,,,,,,,1,2.293,1,,,,,,-0.362222222,-0.257777778,1,0,0,2.293,Andesite_rect,13,0,13,0,1
5e2bf2153a9311222d4892c6,SCR,2024-06-10_15h26.36.418,LearnStrategy,2023.2.3,MacIntel,33.33333333,3,2,15,,,,,,,,7,15,,,,,,,,,,,,,7,1.524,1,,,,,,0.136666667,-0.405555556,1,0,0,1.524,Peridotite_rect,14,0,14,0,1
5e2bf2153a9311222d4892c6,SCR,2024-06-10_15h26.36.418,LearnStrategy,2023.2.3,MacIntel,33.33333333,3,2,16,,,,,,,,2,12,,,,,,,,,,,,,8,4.489,0,,,,,,0.411111111,-0.406666667,1,0,0,4.489,Pumice_rect,15,0,15,0,1
5e2bf2153a9311222d4892c6,SCR,2024-06-10_15h26.36.418,LearnStrategy,2023.2.3,MacIntel,33.33333333,4,1,1,-0.382222222,0.112222222,1,0,0,1.039,Diorite_16,3,16,4,2,1.039,3,16,-0.322222222,-0.245555556,1,0,0,1.804,Andesite_rect,1,1.804,0,0,0,0,0,1,,,,,,,,,,,,
5e2bf2153a9311222d4892c6,SCR,2024-06-10_15h26.36.418,LearnStrategy,2023.2.3,MacIntel,33.33333333,4,1,2,0.385555556,0.224444444,1,0,0,0.942,Obsidian_12,5,12,5,7,0.942,5,12,-0.407777778,-0.383333333,1,0,0,0.865,Obsidian_rect,5,0.865,1,1,0,1,0,1,,,,,,,,,,,,
5e2bf2153a9311222d4892c6,SCR,2024-06-10_15h26.36.418,LearnStrategy,2023.2.3,MacIntel,33.33333333,4,1,3,-0.256666667,0.088888889,1,0,0,0.887,Diorite_13,3,13,4,3,0.887,3,13,0.112222222,-0.386666667,1,0,0,1.808,Peridotite_rect,7,1.808,0,2,0,2,0,1,,,,,,,,,,,,
5e2bf2153a9311222d4892c6,SCR,2024-06-10_15h26.36.418,LearnStrategy,2023.2.3,MacIntel,33.33333333,4,1,4,0.235555556,0.393333333,1,0,0,1.231,Pegmatite_09,6,09,6,6,1.231,6,09,-0.13,-0.42,1,0,0,3.814,Pegmatite_rect,6,3.814,1,3,0,3,0,1,,,,,,,,,,,,
5e2bf2153a9311222d4892c6,SCR,2024-06-10_15h26.36.418,LearnStrategy,2023.2.3,MacIntel,33.33333333,4,1,5,0.532222222,0.444444444,1,0,0,1.3,Diorite_07,3,07,6,8,1.3,3,07,-0.386666667,-0.248888889,1,0,0,1.821,Andesite_rect,1,1.821,0,4,0,4,0,1,,,,,,,,,,,,
5e2bf2153a9311222d4892c6,SCR,2024-06-10_15h26.36.418,LearnStrategy,2023.2.3,MacIntel,33.33333333,4,1,6,-0.094444444,0.282222222,1,0,0,0.886,Pegmatite_16,6,16,5,4,0.886,6,16,-0.126666667,-0.402222222,1,0,0,0.944,Pegmatite_rect,6,0.944,1,5,0,5,0,1,,,,,,,,,,,,
5e2bf2153a9311222d4892c6,SCR,2024-06-10_15h26.36.418,LearnStrategy,2023.2.3,MacIntel,33.33333333,4,1,7,0.255555556,-0.456666667,1,0,0,1.488,Pegmatite_07,6,07,1,6,1.488,6,07,-0.095555556,-0.396666667,1,0,0,1.423,Pegmatite_rect,6,1.423,1,6,0,6,0,1,,,,,,,,,,,,
5e2bf2153a9311222d4892c6,SCR,2024-06-10_15h26.36.418,LearnStrategy,2023.2.3,MacIntel,33.33333333,4,1,8,0.221111111,0.208888889,1,0,0,0.934,Gabbro_05,4,05,5,6,0.934,4,05,0.378888889,-0.237777778,1,0,0,1.954,Gabbro_rect,4,1.954,1,7,0,7,0,1,,,,,,,,,,,,
5e2bf2153a9311222d4892c6,SCR,2024-06-10_15h26.36.418,LearnStrategy,2023.2.3,MacIntel,33.33333333,4,1,9,0.037777778,-0.376666667,1,0,0,0.95,Andesite_04,1,04,1,5,0.95,1,04,-0.335555556,-0.245555556,1,0,0,3.272,Andesite_rect,1,3.272,1,8,0,8,0,1,,,,,,,,,,,,
5e2bf2153a9311222d4892c6,SCR,2024-06-10_15h26.36.418,LearnStrategy,2023.2.3,MacIntel,33.33333333,4,1,10,0.216666667,-0.272222222,1,0,0,1.403,Diorite_12,3,12,2,6,1.403,3,12,0.131111111,-0.384444444,1,0,0,3.352,Peridotite_rect,7,3.352,0,9,0,9,0,1,,,,,,,,,,,,
5e2bf2153a9311222d4892c6,SCR,2024-06-10_15h26.36.418,LearnStrategy,2023.2.3,MacIntel,33.33333333,4,1,11,0.054444444,0.051111111,1,0,0,0.688,Peridotite_05,7,05,4,5,0.688,7,05,0.105555556,-0.398888889,1,0,0,2.628,Peridotite_rect,7,2.628,1,10,0,10,0,1,,,,,,,,,,,,
5e2bf2153a9311222d4892c6,SCR,2024-06-10_15h26.36.418,LearnStrategy,2023.2.3,MacIntel,33.33333333,4,1,12,0.053333333,-0.388888889,1,0,0,1.026,Andesite_04,1,04,1,5,1.026,1,04,0.083333333,-0.258888889,1,0,0,2.997,Diorite_rect,3,2.997,0,11,0,11,0,1,,,,,,,,,,,,
5e2bf2153a9311222d4892c6,SCR,2024-06-10_15h26.36.418,LearnStrategy,2023.2.3,MacIntel,33.33333333,4,1,13,-0.527777778,0.068888889,1,0,0,1.135,Pumice_06,8,06,4,1,1.135,8,06,0.404444444,-0.416666667,1,0,0,1.077,Pumice_rect,8,1.077,1,12,0,12,0,1,,,,,,,,,,,,
5e2bf2153a9311222d4892c6,SCR,2024-06-10_15h26.36.418,LearnStrategy,2023.2.3,MacIntel,33.33333333,4,1,14,0.57,-0.373333333,1,0,0,1.538,Peridotite_06,7,06,1,8,1.538,7,06,0.165555556,-0.391111111,1,0,0,1.192,Peridotite_rect,7,1.192,1,13,0,13,0,1,,,,,,,,,,,,
5e2bf2153a9311222d4892c6,SCR,2024-06-10_15h26.36.418,LearnStrategy,2023.2.3,MacIntel,33.33333333,4,1,15,0.384444444,-0.418888889,1,0,0,1.012,Gabbro_09,4,09,1,7,1.012,4,09,-0.075555556,-0.26,1,0,0,4.284,Basalt_rect,2,4.284,0,14,0,14,0,1,,,,,,,,,,,,
5e2bf2153a9311222d4892c6,SCR,2024-06-10_15h26.36.418,LearnStrategy,2023.2.3,MacIntel,33.33333333,4,1,16,-0.563333333,-0.12,1,0,0,1.173,Basalt_11,2,11,3,1,1.173,2,11,0.425555556,-0.405555556,1,0,0,1.899,Pumice_rect,8,1.899,0,15,0,15,0,1,,,,,,,,,,,,
5e2bf2153a9311222d4892c6,SCR,2024-06-10_15h26.36.418,LearnStrategy,2023.2.3,MacIntel,33.33333333,4,2,1,,,,,,,,7,04,,,,,,,,,,,,,1,13.725,0,,,,,,-0.367777778,-0.261111111,1,0,0,13.725,Andesite_rect,0,0,0,0,1
5e2bf2153a9311222d4892c6,SCR,2024-06-10_15h26.36.418,LearnStrategy,2023.2.3,MacIntel,33.33333333,4,2,2,,,,,,,,4,01,,,,,,,,,,,,,7,3.836,0,,,,,,0.144444444,-0.392222222,1,0,0,3.836,Peridotite_rect,1,0,1,0,1
5e2bf2153a9311222d4892c6,SCR,2024-06-10_15h26.36.418,LearnStrategy,2023.2.3,MacIntel,33.33333333,4,2,3,,,,,,,,6,15,,,,,,,,,,,,,6,2.19,1,,,,,,-0.114444444,-0.392222222,1,0,0,2.19,Pegmatite_rect,2,0,2,0,1
5e2bf2153a9311222d4892c6,SCR,2024-06-10_15h26.36.418,LearnStrategy,2023.2.3,MacIntel,33.33333333,4,2,4,,,,,,,,6,11,,,,,,,,,,,,,6,1.265,1,,,,,,-0.107777778,-0.381111111,1,0,0,1.265,Pegmatite_rect,3,0,3,0,1
5e2bf2153a9311222d4892c6,SCR,2024-06-10_15h26.36.418,LearnStrategy,2023.2.3,MacIntel,33.33333333,4,2,5,,,,,,,,3,15,,,,,,,,,,,,,7,1.939,0,,,,,,0.121111111,-0.403333333,1,0,0,1.939,Peridotite_rect,4,0,4,0,1
5e2bf2153a9311222d4892c6,SCR,2024-06-10_15h26.36.418,LearnStrategy,2023.2.3,MacIntel,33.33333333,4,2,6,,,,,,,,3,09,,,,,,,,,,,,,1,1.453,0,,,,,,-0.332222222,-0.267777778,1,0,0,1.453,Andesite_rect,5,0,5,0,1
5e2bf2153a9311222d4892c6,SCR,2024-06-10_15h26.36.418,LearnStrategy,2023.2.3,MacIntel,33.33333333,4,2,7,,,,,,,,1,11,,,,,,,,,,,,,1,2.188,1,,,,,,-0.355555556,-0.255555556,1,0,0,2.188,Andesite_rect,6,0,6,0,1
5e2bf2153a9311222d4892c6,SCR,2024-06-10_15h26.36.418,LearnStrategy,2023.2.3,MacIntel,33.33333333,4,2,8,,,,,,,,8,05,,,,,,,,,,,,,8,1.293,1,,,,,,0.35,-0.384444444,1,0,0,1.293,Pumice_rect,7,0,7,0,1
5e2bf2153a9311222d4892c6,SCR,2024-06-10_15h26.36.418,LearnStrategy,2023.2.3,MacIntel,33.33333333,4,2,9,,,,,,,,4,08,,,,,,,,,,,,,4,1.647,1,,,,,,0.337777778,-0.237777778,1,0,0,1.647,Gabbro_rect,8,0,8,0,1
5e2bf2153a9311222d4892c6,SCR,2024-06-10_15h26.36.418,LearnStrategy,2023.2.3,MacIntel,33.33333333,4,2,10,,,,,,,,5,10,,,,,,,,,,,,,5,1.605,1,,,,,,-0.36,-0.406666667,1,0,0,1.605,Obsidian_rect,9,0,9,0,1
5e2bf2153a9311222d4892c6,SCR,2024-06-10_15h26.36.418,LearnStrategy,2023.2.3,MacIntel,33.33333333,4,2,11,,,,,,,,5,07,,,,,,,,,,,,,5,1.096,1,,,,,,-0.356666667,-0.414444444,1,0,0,1.096,Obsidian_rect,10,0,10,0,1
5e2bf2153a9311222d4892c6,SCR,2024-06-10_15h26.36.418,LearnStrategy,2023.2.3,MacIntel,33.33333333,4,2,12,,,,,,,,2,14,,,,,,,,,,,,,4,1.875,0,,,,,,0.381111111,-0.243333333,1,0,0,1.875,Gabbro_rect,11,0,11,0,1
5e2bf2153a9311222d4892c6,SCR,2024-06-10_15h26.36.418,LearnStrategy,2023.2.3,MacIntel,33.33333333,4,2,13,,,,,,,,8,04,,,,,,,,,,,,,8,1.238,1,,,,,,0.374444444,-0.403333333,1,0,0,1.238,Pumice_rect,12,0,12,0,1
5e2bf2153a9311222d4892c6,SCR,2024-06-10_15h26.36.418,LearnStrategy,2023.2.3,MacIntel,33.33333333,4,2,14,,,,,,,,1,10,,,,,,,,,,,,,3,3.046,0,,,,,,0.112222222,-0.257777778,1,0,0,3.046,Diorite_rect,13,0,13,0,1
5e2bf2153a9311222d4892c6,SCR,2024-06-10_15h26.36.418,LearnStrategy,2023.2.3,MacIntel,33.33333333,4,2,15,,,,,,,,7,15,,,,,,,,,,,,,7,1.946,1,,,,,,0.166666667,-0.395555556,1,0,0,1.946,Peridotite_rect,14,0,14,0,1
5e2bf2153a9311222d4892c6,SCR,2024-06-10_15h26.36.418,LearnStrategy,2023.2.3,MacIntel,33.33333333,4,2,16,,,,,,,,2,04,,,,,,,,,,,,,2,1.654,1,,,,,,-0.141111111,-0.243333333,1,0,0,1.654,Basalt_rect,15,0,15,0,1
5e2bf2153a9311222d4892c6,SCR,2024-06-10_15h26.36.418,LearnStrategy,2023.2.3,MacIntel,33.33333333,5,1,1,-0.217777778,0.202222222,1,0,0,1.035,Basalt_06,2,06,5,3,1.035,2,06,-0.102222222,-0.248888889,1,0,0,1.386,Basalt_rect,2,1.386,1,0,0,0,0,1,,,,,,,,,,,,
5e2bf2153a9311222d4892c6,SCR,2024-06-10_15h26.36.418,LearnStrategy,2023.2.3,MacIntel,33.33333333,5,1,2,0.395555556,0.122222222,1,0,0,1.016,Gabbro_12,4,12,4,7,1.016,4,12,0.364444444,-0.231111111,1,0,0,1.587,Gabbro_rect,4,1.587,1,1,0,1,0,1,,,,,,,,,,,,
5e2bf2153a9311222d4892c6,SCR,2024-06-10_15h26.36.418,LearnStrategy,2023.2.3,MacIntel,33.33333333,5,1,3,-0.346666667,0.092222222,1,0,0,1.131,Diorite_16,3,16,4,2,1.131,3,16,-0.354444444,-0.258888889,1,0,0,1.389,Andesite_rect,1,1.389,0,2,0,2,0,1,,,,,,,,,,,,
5e2bf2153a9311222d4892c6,SCR,2024-06-10_15h26.36.418,LearnStrategy,2023.2.3,MacIntel,33.33333333,5,1,4,0.404444444,0.224444444,1,0,0,1.138,Obsidian_12,5,12,5,7,1.138,5,12,-0.404444444,-0.383333333,1,0,0,0.921,Obsidian_rect,5,0.921,1,3,0,3,0,1,,,,,,,,,,,,
5e2bf2153a9311222d4892c6,SCR,2024-06-10_15h26.36.418,LearnStrategy,2023.2.3,MacIntel,33.33333333,5,1,5,0.104444444,0.1,1,0,0,0.961,Peridotite_05,7,05,4,5,0.961,7,05,0.136666667,-0.391111111,1,0,0,1.626,Peridotite_rect,7,1.626,1,4,0,4,0,1,,,,,,,,,,,,
5e2bf2153a9311222d4892c6,SCR,2024-06-10_15h26.36.418,LearnStrategy,2023.2.3,MacIntel,33.33333333,5,1,6,-0.566666667,-0.253333333,1,0,0,1.066,Diorite_11,3,11,2,1,1.066,3,11,0.11,-0.245555556,1,0,0,2.112,Diorite_rect,3,2.112,1,5,0,5,0,1,,,,,,,,,,,,
5e2bf2153a9311222d4892c6,SCR,2024-06-10_15h26.36.418,LearnStrategy,2023.2.3,MacIntel,33.33333333,5,1,7,0.085555556,-0.454444444,1,0,0,1.018,Andesite_04,1,04,1,5,1.018,1,04,-0.306666667,-0.253333333,1,0,0,1.677,Andesite_rect,1,1.677,1,6,0,6,0,1,,,,,,,,,,,,
5e2bf2153a9311222d4892c6,SCR,2024-06-10_15h26.36.418,LearnStrategy,2023.2.3,MacIntel,33.33333333,5,1,8,0.541111111,0.432222222,1,0,0,1.39,Diorite_07,3,07,6,8,1.39,3,07,-0.377777778,-0.242222222,1,0,0,1.852,Andesite_rect,1,1.852,0,7,0,7,0,1,,,,,,,,,,,,
5e2bf2153a9311222d4892c6,SCR,2024-06-10_15h26.36.418,LearnStrategy,2023.2.3,MacIntel,33.33333333,5,1,9,0.376666667,-0.385555556,1,0,0,1.492,Gabbro_09,4,09,1,7,1.492,4,09,0.357777778,-0.264444444,1,0,0,2.11,Gabbro_rect,4,2.11,1,8,0,8,0,1,,,,,,,,,,,,
5e2bf2153a9311222d4892c6,SCR,2024-06-10_15h26.36.418,LearnStrategy,2023.2.3,MacIntel,33.33333333,5,1,10,-0.263333333,-0.255555556,1,0,0,1.034,Peridotite_07,7,07,2,3,1.034,7,07,0.117777778,-0.407777778,1,0,0,1.196,Peridotite_rect,7,1.196,1,9,0,9,0,1,,,,,,,,,,,,
5e2bf2153a9311222d4892c6,SCR,2024-06-10_15h26.36.418,LearnStrategy,2023.2.3,MacIntel,33.33333333,5,1,11,0.38,0.397777778,1,0,0,1.251,Pumice_03,8,03,6,7,1.251,8,03,0.364444444,-0.39,1,0,0,0.942,Pumice_rect,8,0.942,1,10,0,10,0,1,,,,,,,,,,,,
5e2bf2153a9311222d4892c6,SCR,2024-06-10_15h26.36.418,LearnStrategy,2023.2.3,MacIntel,33.33333333,5,1,12,-0.563333333,-0.245555556,1,0,0,1.07,Diorite_11,3,11,2,1,1.07,3,11,0.09,-0.248888889,1,0,0,0.933,Diorite_rect,3,0.933,1,11,0,11,0,1,,,,,,,,,,,,
5e2bf2153a9311222d4892c6,SCR,2024-06-10_15h26.36.418,LearnStrategy,2023.2.3,MacIntel,33.33333333,5,1,13,0.071111111,0.378888889,1,0,0,1.15,Andesite_07,1,07,6,5,1.15,1,07,0.122222222,-0.253333333,1,0,0,3.488,Diorite_rect,3,3.488,0,12,0,12,0,1,,,,,,,,,,,,
5e2bf2153a9311222d4892c6,SCR,2024-06-10_15h26.36.418,LearnStrategy,2023.2.3,MacIntel,33.33333333,5,1,14,0.218888889,-0.395555556,1,0,0,0.983,Pegmatite_07,6,07,1,6,0.983,6,07,-0.118888889,-0.396666667,1,0,0,0.997,Pegmatite_rect,6,0.997,1,13,0,13,0,1,,,,,,,,,,,,
5e2bf2153a9311222d4892c6,SCR,2024-06-10_15h26.36.418,LearnStrategy,2023.2.3,MacIntel,33.33333333,5,1,15,-0.095555556,-0.397777778,1,0,0,1.252,Pegmatite_08,6,08,1,4,1.252,6,08,-0.103333333,-0.381111111,1,0,0,0.985,Pegmatite_rect,6,0.985,1,14,0,14,0,1,,,,,,,,,,,,
5e2bf2153a9311222d4892c6,SCR,2024-06-10_15h26.36.418,LearnStrategy,2023.2.3,MacIntel,33.33333333,5,1,16,-0.261111111,-0.427777778,1,0,0,1.075,Basalt_16,2,16,1,3,1.075,2,16,0.397777778,-0.24,1,0,0,1.49,Gabbro_rect,4,1.49,0,15,0,15,0,1,,,,,,,,,,,,
5e2bf2153a9311222d4892c6,SCR,2024-06-10_15h26.36.418,LearnStrategy,2023.2.3,MacIntel,33.33333333,5,2,1,,,,,,,,7,13,,,,,,,,,,,,,7,1.465,1,,,,,,0.115555556,-0.382222222,1,0,0,1.465,Peridotite_rect,0,0,0,0,1
5e2bf2153a9311222d4892c6,SCR,2024-06-10_15h26.36.418,LearnStrategy,2023.2.3,MacIntel,33.33333333,5,2,2,,,,,,,,5,05,,,,,,,,,,,,,5,1.256,1,,,,,,-0.36,-0.383333333,1,0,0,1.256,Obsidian_rect,1,0,1,0,1
5e2bf2153a9311222d4892c6,SCR,2024-06-10_15h26.36.418,LearnStrategy,2023.2.3,MacIntel,33.33333333,5,2,3,,,,,,,,3,06,,,,,,,,,,,,,1,4.191,0,,,,,,-0.33,-0.253333333,1,0,0,4.191,Andesite_rect,2,0,2,0,1
5e2bf2153a9311222d4892c6,SCR,2024-06-10_15h26.36.418,LearnStrategy,2023.2.3,MacIntel,33.33333333,5,2,4,,,,,,,,6,10,,,,,,,,,,,,,6,1.425,1,,,,,,-0.093333333,-0.397777778,1,0,0,1.425,Pegmatite_rect,3,0,3,0,1
5e2bf2153a9311222d4892c6,SCR,2024-06-10_15h26.36.418,LearnStrategy,2023.2.3,MacIntel,33.33333333,5,2,5,,,,,,,,3,14,,,,,,,,,,,,,3,2.017,1,,,,,,0.141111111,-0.253333333,1,0,0,2.017,Diorite_rect,4,0,4,0,1
5e2bf2153a9311222d4892c6,SCR,2024-06-10_15h26.36.418,LearnStrategy,2023.2.3,MacIntel,33.33333333,5,2,6,,,,,,,,5,06,,,,,,,,,,,,,5,1.131,1,,,,,,-0.395555556,-0.417777778,1,0,0,1.131,Obsidian_rect,5,0,5,0,1
5e2bf2153a9311222d4892c6,SCR,2024-06-10_15h26.36.418,LearnStrategy,2023.2.3,MacIntel,33.33333333,5,2,7,,,,,,,,8,08,,,,,,,,,,,,,8,1.28,1,,,,,,0.416666667,-0.421111111,1,0,0,1.28,Pumice_rect,6,0,6,0,1
5e2bf2153a9311222d4892c6,SCR,2024-06-10_15h26.36.418,LearnStrategy,2023.2.3,MacIntel,33.33333333,5,2,8,,,,,,,,4,14,,,,,,,,,,,,,4,1.464,1,,,,,,0.395555556,-0.257777778,1,0,0,1.464,Gabbro_rect,7,0,7,0,1
5e2bf2153a9311222d4892c6,SCR,2024-06-10_15h26.36.418,LearnStrategy,2023.2.3,MacIntel,33.33333333,5,2,9,,,,,,,,4,03,,,,,,,,,,,,,1,6.441,0,,,,,,-0.345555556,-0.253333333,1,0,0,6.441,Andesite_rect,8,0,8,0,1
5e2bf2153a9311222d4892c6,SCR,2024-06-10_15h26.36.418,LearnStrategy,2023.2.3,MacIntel,33.33333333,5,2,10,,,,,,,,6,03,,,,,,,,,,,,,6,1.968,1,,,,,,-0.064444444,-0.394444444,1,0,0,1.968,Pegmatite_rect,9,0,9,0,1
5e2bf2153a9311222d4892c6,SCR,2024-06-10_15h26.36.418,LearnStrategy,2023.2.3,MacIntel,33.33333333,5,2,11,,,,,,,,1,03,,,,,,,,,,,,,1,2.518,1,,,,,,-0.345555556,-0.235555556,1,0,0,2.518,Andesite_rect,10,0,10,0,1
5e2bf2153a9311222d4892c6,SCR,2024-06-10_15h26.36.418,LearnStrategy,2023.2.3,MacIntel,33.33333333,5,2,12,,,,,,,,8,13,,,,,,,,,,,,,8,1.359,1,,,,,,0.42,-0.396666667,1,0,0,1.359,Pumice_rect,11,0,11,0,1
5e2bf2153a9311222d4892c6,SCR,2024-06-10_15h26.36.418,LearnStrategy,2023.2.3,MacIntel,33.33333333,5,2,13,,,,,,,,7,14,,,,,,,,,,,,,7,1.039,1,,,,,,0.162222222,-0.39,1,0,0,1.039,Peridotite_rect,12,0,12,0,1
5e2bf2153a9311222d4892c6,SCR,2024-06-10_15h26.36.418,LearnStrategy,2023.2.3,MacIntel,33.33333333,5,2,14,,,,,,,,1,01,,,,,,,,,,,,,3,5.975,0,,,,,,0.173333333,-0.248888889,1,0,0,5.975,Diorite_rect,13,0,13,0,1
5e2bf2153a9311222d4892c6,SCR,2024-06-10_15h26.36.418,LearnStrategy,2023.2.3,MacIntel,33.33333333,5,2,15,,,,,,,,2,12,,,,,,,,,,,,,8,1.377,0,,,,,,0.403333333,-0.393333333,1,0,0,1.377,Pumice_rect,14,0,14,0,1
5e2bf2153a9311222d4892c6,SCR,2024-06-10_15h26.36.418,LearnStrategy,2023.2.3,MacIntel,33.33333333,5,2,16,,,,,,,,2,08,,,,,,,,,,,,,2,1.415,1,,,,,,-0.16,-0.264444444,1,0,0,1.415,Basalt_rect,15,0,15,0,1
5e2bf2153a9311222d4892c6,SCR,2024-06-10_15h26.36.418,LearnStrategy,2023.2.3,MacIntel,33.33333333,6,1,1,-0.08,0.308888889,1,0,0,0.751,Pegmatite_16,6,16,5,4,0.751,6,16,-0.157777778,-0.381111111,1,0,0,0.937,Pegmatite_rect,6,0.937,1,0,0,0,0,1,,,,,,,,,,,,
5e2bf2153a9311222d4892c6,SCR,2024-06-10_15h26.36.418,LearnStrategy,2023.2.3,MacIntel,33.33333333,6,1,2,0.277777778,-0.307777778,1,0,0,0.848,Diorite_12,3,12,2,6,0.848,3,12,0.102222222,-0.251111111,1,0,0,1.618,Diorite_rect,3,1.618,1,1,0,1,0,1,,,,,,,,,,,,
5e2bf2153a9311222d4892c6,SCR,2024-06-10_15h26.36.418,LearnStrategy,2023.2.3,MacIntel,33.33333333,6,1,3,0.537777778,0.226666667,1,0,0,1.057,Andesite_09,1,09,5,8,1.057,1,09,-0.361111111,-0.262222222,1,0,0,1.505,Andesite_rect,1,1.505,1,2,0,2,0,1,,,,,,,,,,,,
5e2bf2153a9311222d4892c6,SCR,2024-06-10_15h26.36.418,LearnStrategy,2023.2.3,MacIntel,33.33333333,6,1,4,0.405555556,0.091111111,1,0,0,0.73,Gabbro_12,4,12,4,7,0.73,4,12,0.365555556,-0.238888889,1,0,0,2.379,Gabbro_rect,4,2.379,1,3,0,3,0,1,,,,,,,,,,,,
5e2bf2153a9311222d4892c6,SCR,2024-06-10_15h26.36.418,LearnStrategy,2023.2.3,MacIntel,33.33333333,6,1,5,-0.532222222,-0.237777778,1,0,0,1.799,Diorite_11,3,11,2,1,1.799,3,11,0.167777778,-0.248888889,1,0,0,2.918,Diorite_rect,3,2.918,1,4,0,4,0,1,,,,,,,,,,,,
5e2bf2153a9311222d4892c6,SCR,2024-06-10_15h26.36.418,LearnStrategy,2023.2.3,MacIntel,33.33333333,6,1,6,0.075555556,-0.103333333,1,0,0,0.738,Andesite_05,1,05,3,5,0.738,1,05,-0.346666667,-0.26,1,0,0,2.502,Andesite_rect,1,2.502,1,5,0,5,0,1,,,,,,,,,,,,
5e2bf2153a9311222d4892c6,SCR,2024-06-10_15h26.36.418,LearnStrategy,2023.2.3,MacIntel,33.33333333,6,1,7,0.545555556,-0.066666667,1,0,0,1.044,Peridotite_12,7,12,3,8,1.044,7,12,0.085555556,-0.42,1,0,0,0.851,Peridotite_rect,7,0.851,1,6,0,6,0,1,,,,,,,,,,,,
5e2bf2153a9311222d4892c6,SCR,2024-06-10_15h26.36.418,LearnStrategy,2023.2.3,MacIntel,33.33333333,6,1,8,-0.538888889,0.231111111,1,0,0,1.216,Pumice_09,8,09,5,1,1.216,8,09,0.375555556,-0.38,1,0,0,0.842,Pumice_rect,8,0.842,1,7,0,7,0,1,,,,,,,,,,,,
5e2bf2153a9311222d4892c6,SCR,2024-06-10_15h26.36.418,LearnStrategy,2023.2.3,MacIntel,33.33333333,6,1,9,-0.225555556,-0.29,1,0,0,1.065,Peridotite_07,7,07,2,3,1.065,7,07,0.145555556,-0.4,1,0,0,1.692,Peridotite_rect,7,1.692,1,8,0,8,0,1,,,,,,,,,,,,
5e2bf2153a9311222d4892c6,SCR,2024-06-10_15h26.36.418,LearnStrategy,2023.2.3,MacIntel,33.33333333,6,1,10,-0.231111111,0.247777778,1,0,0,0.87,Basalt_06,2,06,5,3,0.87,2,06,-0.146666667,-0.253333333,1,0,0,1.368,Basalt_rect,2,1.368,1,9,0,9,0,1,,,,,,,,,,,,
5e2bf2153a9311222d4892c6,SCR,2024-06-10_15h26.36.418,LearnStrategy,2023.2.3,MacIntel,33.33333333,6,1,11,0.382222222,0.227777778,1,0,0,0.899,Obsidian_12,5,12,5,7,0.899,5,12,-0.39,-0.413333333,1,0,0,1.369,Obsidian_rect,5,1.369,1,10,0,10,0,1,,,,,,,,,,,,
5e2bf2153a9311222d4892c6,SCR,2024-06-10_15h26.36.418,LearnStrategy,2023.2.3,MacIntel,33.33333333,6,1,12,0.098888889,0.432222222,1,0,0,1.172,Andesite_07,1,07,6,5,1.172,1,07,-0.39,-0.247777778,1,0,0,5.41,Andesite_rect,1,5.41,1,11,0,11,0,1,,,,,,,,,,,,
5e2bf2153a9311222d4892c6,SCR,2024-06-10_15h26.36.418,LearnStrategy,2023.2.3,MacIntel,33.33333333,6,1,13,0.25,-0.288888889,1,0,0,0.796,Diorite_12,3,12,2,6,0.796,3,12,0.138888889,-0.257777778,1,0,0,3.736,Diorite_rect,3,3.736,1,12,0,12,0,1,,,,,,,,,,,,
5e2bf2153a9311222d4892c6,SCR,2024-06-10_15h26.36.418,LearnStrategy,2023.2.3,MacIntel,33.33333333,6,1,14,-0.265555556,-0.444444444,1,0,0,0.961,Basalt_16,2,16,1,3,0.961,2,16,0.341111111,-0.265555556,1,0,0,1.176,Gabbro_rect,4,1.176,0,13,0,13,0,1,,,,,,,,,,,,
5e2bf2153a9311222d4892c6,SCR,2024-06-10_15h26.36.418,LearnStrategy,2023.2.3,MacIntel,33.33333333,6,1,15,-0.361111111,0.091111111,1,0,0,1,Diorite_16,3,16,4,2,1,3,16,-0.352222222,-0.247777778,1,0,0,1.499,Andesite_rect,1,1.499,0,14,0,14,0,1,,,,,,,,,,,,
5e2bf2153a9311222d4892c6,SCR,2024-06-10_15h26.36.418,LearnStrategy,2023.2.3,MacIntel,33.33333333,6,1,16,-0.376666667,-0.068888889,1,0,0,0.887,Gabbro_16,4,16,3,2,0.887,4,16,0.357777778,-0.263333333,1,0,0,1.476,Gabbro_rect,4,1.476,1,15,0,15,0,1,,,,,,,,,,,,
5e2bf2153a9311222d4892c6,SCR,2024-06-10_15h26.36.418,LearnStrategy,2023.2.3,MacIntel,33.33333333,6,2,1,,,,,,,,4,13,,,,,,,,,,,,,4,7.077,1,,,,,,0.365555556,-0.245555556,1,0,0,7.077,Gabbro_rect,0,0,0,0,1
5e2bf2153a9311222d4892c6,SCR,2024-06-10_15h26.36.418,LearnStrategy,2023.2.3,MacIntel,33.33333333,6,2,2,,,,,,,,3,10,,,,,,,,,,,,,1,4.504,0,,,,,,-0.3,-0.245555556,1,0,0,4.504,Andesite_rect,1,0,1,0,1
5e2bf2153a9311222d4892c6,SCR,2024-06-10_15h26.36.418,LearnStrategy,2023.2.3,MacIntel,33.33333333,6,2,3,,,,,,,,5,14,,,,,,,,,,,,,5,1.399,1,,,,,,-0.325555556,-0.413333333,1,0,0,1.399,Obsidian_rect,2,0,2,0,1
5e2bf2153a9311222d4892c6,SCR,2024-06-10_15h26.36.418,LearnStrategy,2023.2.3,MacIntel,33.33333333,6,2,4,,,,,,,,2,05,,,,,,,,,,,,,2,1.253,1,,,,,,-0.155555556,-0.245555556,1,0,0,1.253,Basalt_rect,3,0,3,0,1
5e2bf2153a9311222d4892c6,SCR,2024-06-10_15h26.36.418,LearnStrategy,2023.2.3,MacIntel,33.33333333,6,2,5,,,,,,,,6,05,,,,,,,,,,,,,6,1.248,1,,,,,,-0.131111111,-0.414444444,1,0,0,1.248,Pegmatite_rect,4,0,4,0,1
5e2bf2153a9311222d4892c6,SCR,2024-06-10_15h26.36.418,LearnStrategy,2023.2.3,MacIntel,33.33333333,6,2,6,,,,,,,,1,02,,,,,,,,,,,,,1,6.951,1,,,,,,-0.36,-0.235555556,1,0,0,6.951,Andesite_rect,5,0,5,0,1
5e2bf2153a9311222d4892c6,SCR,2024-06-10_15h26.36.418,LearnStrategy,2023.2.3,MacIntel,33.33333333,6,2,7,,,,,,,,7,16,,,,,,,,,,,,,7,16.386,1,,,,,,0.185555556,-0.382222222,1,0,0,16.386,Peridotite_rect,6,0,6,0,1
5e2bf2153a9311222d4892c6,SCR,2024-06-10_15h26.36.418,LearnStrategy,2023.2.3,MacIntel,33.33333333,6,2,8,,,,,,,,5,11,,,,,,,,,,,,,5,1.479,1,,,,,,-0.361111111,-0.417777778,1,0,0,1.479,Obsidian_rect,7,0,7,0,1
5e2bf2153a9311222d4892c6,SCR,2024-06-10_15h26.36.418,LearnStrategy,2023.2.3,MacIntel,33.33333333,6,2,9,,,,,,,,2,10,,,,,,,,,,,,,2,4.069,1,,,,,,-0.116666667,-0.248888889,1,0,0,4.069,Basalt_rect,8,0,8,0,1
5e2bf2153a9311222d4892c6,SCR,2024-06-10_15h26.36.418,LearnStrategy,2023.2.3,MacIntel,33.33333333,6,2,10,,,,,,,,8,14,,,,,,,,,,,,,8,1.01,1,,,,,,0.418888889,-0.406666667,1,0,0,1.01,Pumice_rect,9,0,9,0,1
5e2bf2153a9311222d4892c6,SCR,2024-06-10_15h26.36.418,LearnStrategy,2023.2.3,MacIntel,33.33333333,6,2,11,,,,,,,,7,02,,,,,,,,,,,,,7,0.996,1,,,,,,0.137777778,-0.378888889,1,0,0,0.996,Peridotite_rect,10,0,10,0,1
5e2bf2153a9311222d4892c6,SCR,2024-06-10_15h26.36.418,LearnStrategy,2023.2.3,MacIntel,33.33333333,6,2,12,,,,,,,,3,02,,,,,,,,,,,,,3,2.939,1,,,,,,0.146666667,-0.24,1,0,0,2.939,Diorite_rect,11,0,11,0,1
5e2bf2153a9311222d4892c6,SCR,2024-06-10_15h26.36.418,LearnStrategy,2023.2.3,MacIntel,33.33333333,6,2,13,,,,,,,,8,16,,,,,,,,,,,,,8,1.887,1,,,,,,0.405555556,-0.418888889,1,0,0,1.887,Pumice_rect,12,0,12,0,1
5e2bf2153a9311222d4892c6,SCR,2024-06-10_15h26.36.418,LearnStrategy,2023.2.3,MacIntel,33.33333333,6,2,14,,,,,,,,4,11,,,,,,,,,,,,,4,1.883,1,,,,,,0.375555556,-0.26,1,0,0,1.883,Gabbro_rect,13,0,13,0,1
5e2bf2153a9311222d4892c6,SCR,2024-06-10_15h26.36.418,LearnStrategy,2023.2.3,MacIntel,33.33333333,6,2,15,,,,,,,,6,13,,,,,,,,,,,,,6,2.125,1,,,,,,-0.123333333,-0.401111111,1,0,0,2.125,Pegmatite_rect,14,0,14,0,1
5e2bf2153a9311222d4892c6,SCR,2024-06-10_15h26.36.418,LearnStrategy,2023.2.3,MacIntel,33.33333333,6,2,16,,,,,,,,1,06,,,,,,,,,,,,,1,4.662,1,,,,,,-0.344444444,-0.254444444,1,0,0,4.662,Andesite_rect,15,0,15,0,1
5e2bf2153a9311222d4892c6,SCR,2024-06-10_15h26.36.418,LearnStrategy,2023.2.3,MacIntel,33.33333333,7,1,1,0.411111111,0.117777778,1,0,0,1.156,Gabbro_12,4,12,4,7,1.156,4,12,0.345555556,-0.241111111,1,0,0,3.167,Gabbro_rect,4,3.167,1,0,0,0,0,1,,,,,,,,,,,,
5e2bf2153a9311222d4892c6,SCR,2024-06-10_15h26.36.418,LearnStrategy,2023.2.3,MacIntel,33.33333333,7,1,2,0.57,-0.268888889,1,0,0,1.062,Peridotite_08,7,08,2,8,1.062,7,08,0.141111111,-0.421111111,1,0,0,0.847,Peridotite_rect,7,0.847,1,1,0,1,0,1,,,,,,,,,,,,
5e2bf2153a9311222d4892c6,SCR,2024-06-10_15h26.36.418,LearnStrategy,2023.2.3,MacIntel,33.33333333,7,1,3,-0.51,-0.272222222,1,0,0,1.281,Diorite_11,3,11,2,1,1.281,3,11,0.154444444,-0.247777778,1,0,0,3.815,Diorite_rect,3,3.815,1,2,0,2,0,1,,,,,,,,,,,,
5e2bf2153a9311222d4892c6,SCR,2024-06-10_15h26.36.418,LearnStrategy,2023.2.3,MacIntel,33.33333333,7,1,4,-0.545555556,-0.232222222,1,0,0,0.916,Diorite_11,3,11,2,1,0.916,3,11,0.118888889,-0.236666667,1,0,0,0.896,Diorite_rect,3,0.896,1,3,0,3,0,1,,,,,,,,,,,,
5e2bf2153a9311222d4892c6,SCR,2024-06-10_15h26.36.418,LearnStrategy,2023.2.3,MacIntel,33.33333333,7,1,5,0.564444444,-0.111111111,1,0,0,1.407,Peridotite_12,7,12,3,8,1.407,7,12,0.16,-0.384444444,1,0,0,0.833,Peridotite_rect,7,0.833,1,4,0,4,0,1,,,,,,,,,,,,
5e2bf2153a9311222d4892c6,SCR,2024-06-10_15h26.36.418,LearnStrategy,2023.2.3,MacIntel,33.33333333,7,1,6,0.081111111,0.243333333,1,0,0,0.899,Pegmatite_06,6,06,5,5,0.899,6,06,-0.128888889,-0.406666667,1,0,0,0.925,Pegmatite_rect,6,0.925,1,5,0,5,0,1,,,,,,,,,,,,
5e2bf2153a9311222d4892c6,SCR,2024-06-10_15h26.36.418,LearnStrategy,2023.2.3,MacIntel,33.33333333,7,1,7,0.351111111,-0.448888889,1,0,0,0.977,Gabbro_09,4,09,1,7,0.977,4,09,0.366666667,-0.253333333,1,0,0,4.502,Gabbro_rect,4,4.502,1,6,0,6,0,1,,,,,,,,,,,,
5e2bf2153a9311222d4892c6,SCR,2024-06-10_15h26.36.418,LearnStrategy,2023.2.3,MacIntel,33.33333333,7,1,8,0.094444444,-0.446666667,1,0,0,1.147,Andesite_04,1,04,1,5,1.147,1,04,-0.348888889,-0.267777778,1,0,0,0.927,Andesite_rect,1,0.927,1,7,0,7,0,1,,,,,,,,,,,,
5e2bf2153a9311222d4892c6,SCR,2024-06-10_15h26.36.418,LearnStrategy,2023.2.3,MacIntel,33.33333333,7,1,9,0.415555556,-0.081111111,1,0,0,0.982,Obsidian_02,5,02,3,7,0.982,5,02,-0.464444444,-0.402222222,1,0,0,1.094,Obsidian_rect,5,1.094,1,8,0,8,0,1,,,,,,,,,,,,
5e2bf2153a9311222d4892c6,SCR,2024-06-10_15h26.36.418,LearnStrategy,2023.2.3,MacIntel,33.33333333,7,1,10,-0.508888889,0.115555556,1,0,0,1.117,Pumice_06,8,06,4,1,1.117,8,06,0.414444444,-0.392222222,1,0,0,1.316,Pumice_rect,8,1.316,1,9,0,9,0,1,,,,,,,,,,,,
5e2bf2153a9311222d4892c6,SCR,2024-06-10_15h26.36.418,LearnStrategy,2023.2.3,MacIntel,33.33333333,7,1,11,0.237777778,-0.231111111,1,0,0,0.781,Diorite_12,3,12,2,6,0.781,3,12,0.082222222,-0.26,1,0,0,3.483,Diorite_rect,3,3.483,1,10,0,10,0,1,,,,,,,,,,,,
5e2bf2153a9311222d4892c6,SCR,2024-06-10_15h26.36.418,LearnStrategy,2023.2.3,MacIntel,33.33333333,7,1,12,-0.05,0.371111111,1,0,0,1.205,Andesite_14,1,14,6,4,1.205,1,14,-0.136666667,-0.42,1,0,0,1.247,Pegmatite_rect,6,1.247,0,11,0,11,0,1,,,,,,,,,,,,
5e2bf2153a9311222d4892c6,SCR,2024-06-10_15h26.36.418,LearnStrategy,2023.2.3,MacIntel,33.33333333,7,1,13,-0.544444444,-0.22,1,0,0,1.136,Diorite_11,3,11,2,1,1.136,3,11,0.17,-0.267777778,1,0,0,0.878,Diorite_rect,3,0.878,1,12,0,12,0,1,,,,,,,,,,,,
5e2bf2153a9311222d4892c6,SCR,2024-06-10_15h26.36.418,LearnStrategy,2023.2.3,MacIntel,33.33333333,7,1,14,0.05,-0.086666667,1,0,0,0.988,Andesite_05,1,05,3,5,0.988,1,05,-0.336666667,-0.245555556,1,0,0,1.449,Andesite_rect,1,1.449,1,13,0,13,0,1,,,,,,,,,,,,
5e2bf2153a9311222d4892c6,SCR,2024-06-10_15h26.36.418,LearnStrategy,2023.2.3,MacIntel,33.33333333,7,1,15,-0.208888889,0.237777778,1,0,0,0.879,Basalt_06,2,06,5,3,0.879,2,06,-0.162222222,-0.242222222,1,0,0,0.897,Basalt_rect,2,0.897,1,14,0,14,0,1,,,,,,,,,,,,
5e2bf2153a9311222d4892c6,SCR,2024-06-10_15h26.36.418,LearnStrategy,2023.2.3,MacIntel,33.33333333,7,1,16,-0.072222222,-0.257777778,1,0,0,0.735,Basalt_09,2,09,2,4,0.735,2,09,0.324444444,-0.256666667,1,0,0,3.11,Gabbro_rect,4,3.11,0,15,0,15,0,1,,,,,,,,,,,,
5e2bf2153a9311222d4892c6,SCR,2024-06-10_15h26.36.418,LearnStrategy,2023.2.3,MacIntel,33.33333333,7,2,1,,,,,,,,1,06,,,,,,,,,,,,,1,1.451,1,,,,,,-0.377777778,-0.252222222,1,0,0,1.451,Andesite_rect,0,0,0,0,1
5e2bf2153a9311222d4892c6,SCR,2024-06-10_15h26.36.418,LearnStrategy,2023.2.3,MacIntel,33.33333333,7,2,2,,,,,,,,3,06,,,,,,,,,,,,,1,5.76,0,,,,,,-0.365555556,-0.256666667,1,0,0,5.76,Andesite_rect,1,0,1,0,1
5e2bf2153a9311222d4892c6,SCR,2024-06-10_15h26.36.418,LearnStrategy,2023.2.3,MacIntel,33.33333333,7,2,3,,,,,,,,7,16,,,,,,,,,,,,,7,1.222,1,,,,,,0.088888889,-0.39,1,0,0,1.222,Peridotite_rect,2,0,2,0,1
5e2bf2153a9311222d4892c6,SCR,2024-06-10_15h26.36.418,LearnStrategy,2023.2.3,MacIntel,33.33333333,7,2,4,,,,,,,,8,13,,,,,,,,,,,,,8,1.456,1,,,,,,0.402222222,-0.402222222,1,0,0,1.456,Pumice_rect,3,0,3,0,1
5e2bf2153a9311222d4892c6,SCR,2024-06-10_15h26.36.418,LearnStrategy,2023.2.3,MacIntel,33.33333333,7,2,5,,,,,,,,4,03,,,,,,,,,,,,,3,12.603,0,,,,,,0.138888889,-0.248888889,1,0,0,12.603,Diorite_rect,4,0,4,0,1
5e2bf2153a9311222d4892c6,SCR,2024-06-10_15h26.36.418,LearnStrategy,2023.2.3,MacIntel,33.33333333,7,2,6,,,,,,,,1,02,,,,,,,,,,,,,1,1.53,1,,,,,,-0.335555556,-0.251111111,1,0,0,1.53,Andesite_rect,5,0,5,0,1
5e2bf2153a9311222d4892c6,SCR,2024-06-10_15h26.36.418,LearnStrategy,2023.2.3,MacIntel,33.33333333,7,2,7,,,,,,,,6,13,,,,,,,,,,,,,6,1.232,1,,,,,,-0.063333333,-0.385555556,1,0,0,1.232,Pegmatite_rect,6,0,6,0,1
5e2bf2153a9311222d4892c6,SCR,2024-06-10_15h26.36.418,LearnStrategy,2023.2.3,MacIntel,33.33333333,7,2,8,,,,,,,,6,15,,,,,,,,,,,,,6,1.237,1,,,,,,-0.091111111,-0.381111111,1,0,0,1.237,Pegmatite_rect,7,0,7,0,1
5e2bf2153a9311222d4892c6,SCR,2024-06-10_15h26.36.418,LearnStrategy,2023.2.3,MacIntel,33.33333333,7,2,9,,,,,,,,3,09,,,,,,,,,,,,,1,2.149,0,,,,,,-0.333333333,-0.252222222,1,0,0,2.149,Andesite_rect,8,0,8,0,1
5e2bf2153a9311222d4892c6,SCR,2024-06-10_15h26.36.418,LearnStrategy,2023.2.3,MacIntel,33.33333333,7,2,10,,,,,,,,4,11,,,,,,,,,,,,,4,3.202,1,,,,,,0.395555556,-0.241111111,1,0,0,3.202,Gabbro_rect,9,0,9,0,1
5e2bf2153a9311222d4892c6,SCR,2024-06-10_15h26.36.418,LearnStrategy,2023.2.3,MacIntel,33.33333333,7,2,11,,,,,,,,5,11,,,,,,,,,,,,,5,1.364,1,,,,,,-0.34,-0.406666667,1,0,0,1.364,Obsidian_rect,10,0,10,0,1
5e2bf2153a9311222d4892c6,SCR,2024-06-10_15h26.36.418,LearnStrategy,2023.2.3,MacIntel,33.33333333,7,2,12,,,,,,,,8,16,,,,,,,,,,,,,8,1.134,1,,,,,,0.451111111,-0.39,1,0,0,1.134,Pumice_rect,11,0,11,0,1
5e2bf2153a9311222d4892c6,SCR,2024-06-10_15h26.36.418,LearnStrategy,2023.2.3,MacIntel,33.33333333,7,2,13,,,,,,,,5,14,,,,,,,,,,,,,5,1.462,1,,,,,,-0.347777778,-0.398888889,1,0,0,1.462,Obsidian_rect,12,0,12,0,1
5e2bf2153a9311222d4892c6,SCR,2024-06-10_15h26.36.418,LearnStrategy,2023.2.3,MacIntel,33.33333333,7,2,14,,,,,,,,7,15,,,,,,,,,,,,,7,4.607,1,,,,,,0.114444444,-0.404444444,1,0,0,4.607,Peridotite_rect,13,0,13,0,1
5e2bf2153a9311222d4892c6,SCR,2024-06-10_15h26.36.418,LearnStrategy,2023.2.3,MacIntel,33.33333333,7,2,15,,,,,,,,2,05,,,,,,,,,,,,,2,1.93,1,,,,,,-0.136666667,-0.251111111,1,0,0,1.93,Basalt_rect,14,0,14,0,1
5e2bf2153a9311222d4892c6,SCR,2024-06-10_15h26.36.418,LearnStrategy,2023.2.3,MacIntel,33.33333333,7,2,16,,,,,,,,2,04,,,,,,,,,,,,,2,1.468,1,,,,,,-0.132222222,-0.265555556,1,0,0,1.468,Basalt_rect,15,0,15,0,1
5e2bf2153a9311222d4892c6,SCR,2024-06-10_15h26.36.418,LearnStrategy,2023.2.3,MacIntel,33.33333333,8,1,1,-0.423333333,-0.4,1,0,0,1.397,Obsidian_04,5,04,1,2,1.397,5,04,-0.395555556,-0.421111111,1,0,0,1.296,Obsidian_rect,5,1.296,1,0,0,0,0,1,,,,,,,,,,,,
5e2bf2153a9311222d4892c6,SCR,2024-06-10_15h26.36.418,LearnStrategy,2023.2.3,MacIntel,33.33333333,8,1,2,-0.496666667,-0.098888889,1,0,0,0.974,Basalt_11,2,11,3,1,0.974,2,11,0.402222222,-0.414444444,1,0,0,3.529,Pumice_rect,8,3.529,0,1,0,1,0,1,,,,,,,,,,,,
5e2bf2153a9311222d4892c6,SCR,2024-06-10_15h26.36.418,LearnStrategy,2023.2.3,MacIntel,33.33333333,8,1,3,0.244444444,0.1,1,0,0,0.927,Diorite_08,3,08,4,6,0.927,3,08,-0.322222222,-0.258888889,1,0,0,2.313,Andesite_rect,1,2.313,0,2,0,2,0,1,,,,,,,,,,,,
5e2bf2153a9311222d4892c6,SCR,2024-06-10_15h26.36.418,LearnStrategy,2023.2.3,MacIntel,33.33333333,8,1,4,0.413333333,0.095555556,1,0,0,0.999,Gabbro_12,4,12,4,7,0.999,4,12,0.39,-0.255555556,1,0,0,1.437,Gabbro_rect,4,1.437,1,3,0,3,0,1,,,,,,,,,,,,
5e2bf2153a9311222d4892c6,SCR,2024-06-10_15h26.36.418,LearnStrategy,2023.2.3,MacIntel,33.33333333,8,1,5,0.44,0.421111111,1,0,0,1.139,Pumice_03,8,03,6,7,1.139,8,03,0.375555556,-0.394444444,1,0,0,2.153,Pumice_rect,8,2.153,1,4,0,4,0,1,,,,,,,,,,,,
5e2bf2153a9311222d4892c6,SCR,2024-06-10_15h26.36.418,LearnStrategy,2023.2.3,MacIntel,33.33333333,8,1,6,0.102222222,-0.397777778,1,0,0,1.18,Andesite_04,1,04,1,5,1.18,1,04,-0.344444444,-0.252222222,1,0,0,1.855,Andesite_rect,1,1.855,1,5,0,5,0,1,,,,,,,,,,,,
5e2bf2153a9311222d4892c6,SCR,2024-06-10_15h26.36.418,LearnStrategy,2023.2.3,MacIntel,33.33333333,8,1,7,-0.402222222,0.09,1,0,0,1.433,Diorite_16,3,16,4,2,1.433,3,16,0.085555556,-0.251111111,1,0,0,1.478,Diorite_rect,3,1.478,1,6,0,6,0,1,,,,,,,,,,,,
5e2bf2153a9311222d4892c6,SCR,2024-06-10_15h26.36.418,LearnStrategy,2023.2.3,MacIntel,33.33333333,8,1,8,0.086666667,0.122222222,1,0,0,1.013,Peridotite_05,7,05,4,5,1.013,7,05,0.116666667,-0.41,1,0,0,0.976,Peridotite_rect,7,0.976,1,7,0,7,0,1,,,,,,,,,,,,
5e2bf2153a9311222d4892c6,SCR,2024-06-10_15h26.36.418,LearnStrategy,2023.2.3,MacIntel,33.33333333,8,1,9,0.405555556,0.066666667,1,0,0,0.971,Gabbro_12,4,12,4,7,0.971,4,12,0.384444444,-0.236666667,1,0,0,0.905,Gabbro_rect,4,0.905,1,8,0,8,0,1,,,,,,,,,,,,
5e2bf2153a9311222d4892c6,SCR,2024-06-10_15h26.36.418,LearnStrategy,2023.2.3,MacIntel,33.33333333,8,1,10,-0.524444444,-0.248888889,1,0,0,0.987,Diorite_11,3,11,2,1,0.987,3,11,0.115555556,-0.244444444,1,0,0,1.328,Diorite_rect,3,1.328,1,9,0,9,0,1,,,,,,,,,,,,
5e2bf2153a9311222d4892c6,SCR,2024-06-10_15h26.36.418,LearnStrategy,2023.2.3,MacIntel,33.33333333,8,1,11,0.241111111,-0.38,1,0,0,0.836,Pegmatite_07,6,07,1,6,0.836,6,07,-0.106666667,-0.388888889,1,0,0,1.006,Pegmatite_rect,6,1.006,1,10,0,10,0,1,,,,,,,,,,,,
5e2bf2153a9311222d4892c6,SCR,2024-06-10_15h26.36.418,LearnStrategy,2023.2.3,MacIntel,33.33333333,8,1,12,-0.524444444,-0.424444444,1,0,0,1.021,Gabbro_10,4,10,1,1,1.021,4,10,0.318888889,-0.242222222,1,0,0,4.619,Gabbro_rect,4,4.619,1,11,0,11,0,1,,,,,,,,,,,,
5e2bf2153a9311222d4892c6,SCR,2024-06-10_15h26.36.418,LearnStrategy,2023.2.3,MacIntel,33.33333333,8,1,13,-0.235555556,-0.366666667,1,0,0,1.224,Basalt_16,2,16,1,3,1.224,2,16,-0.065555556,-0.245555556,1,0,0,1.797,Basalt_rect,2,1.797,1,12,0,12,0,1,,,,,,,,,,,,
5e2bf2153a9311222d4892c6,SCR,2024-06-10_15h26.36.418,LearnStrategy,2023.2.3,MacIntel,33.33333333,8,1,14,0.557777778,0.417777778,1,0,0,1.026,Diorite_07,3,07,6,8,1.026,3,07,0.103333333,-0.254444444,1,0,0,1.186,Diorite_rect,3,1.186,1,13,0,13,0,1,,,,,,,,,,,,
5e2bf2153a9311222d4892c6,SCR,2024-06-10_15h26.36.418,LearnStrategy,2023.2.3,MacIntel,33.33333333,8,1,15,0.5,0.386666667,1,0,0,1.04,Diorite_07,3,07,6,8,1.04,3,07,0.073333333,-0.267777778,1,0,0,1.495,Diorite_rect,3,1.495,1,14,0,14,0,1,,,,,,,,,,,,
5e2bf2153a9311222d4892c6,SCR,2024-06-10_15h26.36.418,LearnStrategy,2023.2.3,MacIntel,33.33333333,8,1,16,0.068888889,-0.37,1,0,0,0.74,Andesite_04,1,04,1,5,0.74,1,04,-0.307777778,-0.256666667,1,0,0,1.072,Andesite_rect,1,1.072,1,15,0,15,0,1,,,,,,,,,,,,
5e2bf2153a9311222d4892c6,SCR,2024-06-10_15h26.36.418,LearnStrategy,2023.2.3,MacIntel,33.33333333,8,2,1,,,,,,,,4,01,,,,,,,,,,,,,7,10.578,0,,,,,,0.181111111,-0.39,1,0,0,10.578,Peridotite_rect,0,0,0,0,1
5e2bf2153a9311222d4892c6,SCR,2024-06-10_15h26.36.418,LearnStrategy,2023.2.3,MacIntel,33.33333333,8,2,2,,,,,,,,2,10,,,,,,,,,,,,,2,3.069,1,,,,,,-0.118888889,-0.243333333,1,0,0,3.069,Basalt_rect,1,0,1,0,1
5e2bf2153a9311222d4892c6,SCR,2024-06-10_15h26.36.418,LearnStrategy,2023.2.3,MacIntel,33.33333333,8,2,3,,,,,,,,2,14,,,,,,,,,,,,,8,1.31,0,,,,,,0.404444444,-0.406666667,1,0,0,1.31,Pumice_rect,2,0,2,0,1
5e2bf2153a9311222d4892c6,SCR,2024-06-10_15h26.36.418,LearnStrategy,2023.2.3,MacIntel,33.33333333,8,2,4,,,,,,,,1,11,,,,,,,,,,,,,1,1.441,1,,,,,,-0.34,-0.26,1,0,0,1.441,Andesite_rect,3,0,3,0,1
5e2bf2153a9311222d4892c6,SCR,2024-06-10_15h26.36.418,LearnStrategy,2023.2.3,MacIntel,33.33333333,8,2,5,,,,,,,,6,11,,,,,,,,,,,,,6,1.192,1,,,,,,-0.121111111,-0.385555556,1,0,0,1.192,Pegmatite_rect,4,0,4,0,1
5e2bf2153a9311222d4892c6,SCR,2024-06-10_15h26.36.418,LearnStrategy,2023.2.3,MacIntel,33.33333333,8,2,6,,,,,,,,8,08,,,,,,,,,,,,,8,1.172,1,,,,,,0.42,-0.404444444,1,0,0,1.172,Pumice_rect,5,0,5,0,1
5e2bf2153a9311222d4892c6,SCR,2024-06-10_15h26.36.418,LearnStrategy,2023.2.3,MacIntel,33.33333333,8,2,7,,,,,,,,5,06,,,,,,,,,,,,,5,2.007,1,,,,,,-0.432222222,-0.398888889,1,0,0,2.007,Obsidian_rect,6,0,6,0,1
5e2bf2153a9311222d4892c6,SCR,2024-06-10_15h26.36.418,LearnStrategy,2023.2.3,MacIntel,33.33333333,8,2,8,,,,,,,,7,14,,,,,,,,,,,,,7,1.209,1,,,,,,0.168888889,-0.391111111,1,0,0,1.209,Peridotite_rect,7,0,7,0,1
5e2bf2153a9311222d4892c6,SCR,2024-06-10_15h26.36.418,LearnStrategy,2023.2.3,MacIntel,33.33333333,8,2,9,,,,,,,,4,08,,,,,,,,,,,,,4,2.933,1,,,,,,0.391111111,-0.241111111,1,0,0,2.933,Gabbro_rect,8,0,8,0,1
5e2bf2153a9311222d4892c6,SCR,2024-06-10_15h26.36.418,LearnStrategy,2023.2.3,MacIntel,33.33333333,8,2,10,,,,,,,,8,14,,,,,,,,,,,,,8,0.968,1,,,,,,0.398888889,-0.397777778,1,0,0,0.968,Pumice_rect,9,0,9,0,1
5e2bf2153a9311222d4892c6,SCR,2024-06-10_15h26.36.418,LearnStrategy,2023.2.3,MacIntel,33.33333333,8,2,11,,,,,,,,5,05,,,,,,,,,,,,,5,1.052,1,,,,,,-0.328888889,-0.405555556,1,0,0,1.052,Obsidian_rect,10,0,10,0,1
5e2bf2153a9311222d4892c6,SCR,2024-06-10_15h26.36.418,LearnStrategy,2023.2.3,MacIntel,33.33333333,8,2,12,,,,,,,,7,04,,,,,,,,,,,,,3,25.984,0,,,,,,0.084444444,-0.252222222,1,0,0,25.984,Diorite_rect,11,0,11,0,1
5e2bf2153a9311222d4892c6,SCR,2024-06-10_15h26.36.418,LearnStrategy,2023.2.3,MacIntel,33.33333333,8,2,13,,,,,,,,3,15,,,,,,,,,,,,,7,6.559,0,,,,,,0.135555556,-0.395555556,1,0,0,6.559,Peridotite_rect,12,0,12,0,1
5e2bf2153a9311222d4892c6,SCR,2024-06-10_15h26.36.418,LearnStrategy,2023.2.3,MacIntel,33.33333333,8,2,14,,,,,,,,3,14,,,,,,,,,,,,,3,3.166,1,,,,,,0.077777778,-0.254444444,1,0,0,3.166,Diorite_rect,13,0,13,0,1
5e2bf2153a9311222d4892c6,SCR,2024-06-10_15h26.36.418,LearnStrategy,2023.2.3,MacIntel,33.33333333,8,2,15,,,,,,,,6,10,,,,,,,,,,,,,6,1.171,1,,,,,,-0.118888889,-0.414444444,1,0,0,1.171,Pegmatite_rect,14,0,14,0,1
5e2bf2153a9311222d4892c6,SCR,2024-06-10_15h26.36.418,LearnStrategy,2023.2.3,MacIntel,33.33333333,8,2,16,,,,,,,,1,03,,,,,,,,,,,,,1,3.564,1,,,,,,-0.361111111,-0.253333333,1,0,0,3.564,Andesite_rect,15,0,15,0,1
5e2bf2153a9311222d4892c6,SCR,2024-06-10_15h26.36.418,LearnStrategy,2023.2.3,MacIntel,33.33333333,9,1,1,-0.42,-0.075555556,1,0,0,0.971,Gabbro_16,4,16,3,2,0.971,4,16,0.366666667,-0.246666667,1,0,0,2.794,Gabbro_rect,4,2.794,1,0,0,0,0,1,,,,,,,,,,,,
5e2bf2153a9311222d4892c6,SCR,2024-06-10_15h26.36.418,LearnStrategy,2023.2.3,MacIntel,33.33333333,9,1,2,0.252222222,-0.232222222,1,0,0,0.883,Diorite_12,3,12,2,6,0.883,3,12,0.106666667,-0.243333333,1,0,0,0.852,Diorite_rect,3,0.852,1,1,0,1,0,1,,,,,,,,,,,,
5e2bf2153a9311222d4892c6,SCR,2024-06-10_15h26.36.418,LearnStrategy,2023.2.3,MacIntel,33.33333333,9,1,3,-0.508888889,0.363333333,1,0,0,1.662,Pumice_10,8,10,6,1,1.662,8,10,-0.397777778,-0.228888889,1,0,0,0.774,Andesite_rect,1,0.774,0,2,0,2,0,1,,,,,,,,,,,,
5e2bf2153a9311222d4892c6,SCR,2024-06-10_15h26.36.418,LearnStrategy,2023.2.3,MacIntel,33.33333333,9,1,4,0.247777778,0.29,1,0,0,0.787,Gabbro_05,4,05,5,6,0.787,4,05,0.14,-0.394444444,1,0,0,2.746,Peridotite_rect,7,2.746,0,3,0,3,0,1,,,,,,,,,,,,
5e2bf2153a9311222d4892c6,SCR,2024-06-10_15h26.36.418,LearnStrategy,2023.2.3,MacIntel,33.33333333,9,1,5,0.072222222,0.09,1,0,0,0.807,Peridotite_05,7,05,4,5,0.807,7,05,0.124444444,-0.393333333,1,0,0,1.253,Peridotite_rect,7,1.253,1,4,0,4,0,1,,,,,,,,,,,,
5e2bf2153a9311222d4892c6,SCR,2024-06-10_15h26.36.418,LearnStrategy,2023.2.3,MacIntel,33.33333333,9,1,6,-0.075555556,0.088888889,1,0,0,0.689,Gabbro_15,4,15,4,4,0.689,4,15,0.122222222,-0.262222222,1,0,0,4.312,Diorite_rect,3,4.312,0,5,0,5,0,1,,,,,,,,,,,,
5e2bf2153a9311222d4892c6,SCR,2024-06-10_15h26.36.418,LearnStrategy,2023.2.3,MacIntel,33.33333333,9,1,7,-0.228888889,-0.101111111,1,0,0,0.732,Peridotite_10,7,10,3,3,0.732,7,10,0.11,-0.395555556,1,0,0,2.236,Peridotite_rect,7,2.236,1,6,0,6,0,1,,,,,,,,,,,,
5e2bf2153a9311222d4892c6,SCR,2024-06-10_15h26.36.418,LearnStrategy,2023.2.3,MacIntel,33.33333333,9,1,8,-0.401111111,-0.213333333,1,0,0,0.894,Basalt_01,2,01,2,2,0.894,2,01,-0.104444444,-0.247777778,1,0,0,1.709,Basalt_rect,2,1.709,1,7,0,7,0,1,,,,,,,,,,,,
5e2bf2153a9311222d4892c6,SCR,2024-06-10_15h26.36.418,LearnStrategy,2023.2.3,MacIntel,33.33333333,9,1,9,-0.19,0.2,1,0,0,1.313,Basalt_06,2,06,5,3,1.313,2,06,-0.097777778,-0.253333333,1,0,0,0.733,Basalt_rect,2,0.733,1,8,0,8,0,1,,,,,,,,,,,,
5e2bf2153a9311222d4892c6,SCR,2024-06-10_15h26.36.418,LearnStrategy,2023.2.3,MacIntel,33.33333333,9,1,10,-0.053333333,-0.077777778,1,0,0,0.706,Obsidian_08,5,08,3,4,0.706,5,08,-0.344444444,-0.413333333,1,0,0,0.81,Obsidian_rect,5,0.81,1,9,0,9,0,1,,,,,,,,,,,,
5e2bf2153a9311222d4892c6,SCR,2024-06-10_15h26.36.418,LearnStrategy,2023.2.3,MacIntel,33.33333333,9,1,11,0.072222222,-0.125555556,1,0,0,0.718,Andesite_05,1,05,3,5,0.718,1,05,-0.365555556,-0.245555556,1,0,0,0.963,Andesite_rect,1,0.963,1,10,0,10,0,1,,,,,,,,,,,,
5e2bf2153a9311222d4892c6,SCR,2024-06-10_15h26.36.418,LearnStrategy,2023.2.3,MacIntel,33.33333333,9,1,12,-0.223333333,0.09,1,0,0,0.895,Diorite_13,3,13,4,3,0.895,3,13,0.156666667,-0.258888889,1,0,0,1.009,Diorite_rect,3,1.009,1,11,0,11,0,1,,,,,,,,,,,,
5e2bf2153a9311222d4892c6,SCR,2024-06-10_15h26.36.418,LearnStrategy,2023.2.3,MacIntel,33.33333333,9,1,13,-0.576666667,-0.258888889,1,0,0,0.928,Diorite_11,3,11,2,1,0.928,3,11,0.178888889,-0.247777778,1,0,0,0.719,Diorite_rect,3,0.719,1,12,0,12,0,1,,,,,,,,,,,,
5e2bf2153a9311222d4892c6,SCR,2024-06-10_15h26.36.418,LearnStrategy,2023.2.3,MacIntel,33.33333333,9,1,14,0.513333333,0.377777778,1,0,0,0.939,Diorite_07,3,07,6,8,0.939,3,07,-0.337777778,-0.257777778,1,0,0,1.694,Andesite_rect,1,1.694,0,13,0,13,0,1,,,,,,,,,,,,
5e2bf2153a9311222d4892c6,SCR,2024-06-10_15h26.36.418,LearnStrategy,2023.2.3,MacIntel,33.33333333,9,1,15,-0.201111111,0.404444444,1,0,0,1.126,Pegmatite_12,6,12,6,3,1.126,6,12,-0.077777778,-0.385555556,1,0,0,2.326,Pegmatite_rect,6,2.326,1,14,0,14,0,1,,,,,,,,,,,,
5e2bf2153a9311222d4892c6,SCR,2024-06-10_15h26.36.418,LearnStrategy,2023.2.3,MacIntel,33.33333333,9,1,16,0.55,0.39,1,0,0,1.272,Diorite_07,3,07,6,8,1.272,3,07,0.103333333,-0.234444444,1,0,0,2.152,Diorite_rect,3,2.152,1,15,0,15,0,1,,,,,,,,,,,,
5e2bf2153a9311222d4892c6,SCR,2024-06-10_15h26.36.418,LearnStrategy,2023.2.3,MacIntel,33.33333333,9,2,1,,,,,,,,1,01,,,,,,,,,,,,,4,3.139,0,,,,,,0.37,-0.252222222,1,0,0,3.139,Gabbro_rect,0,0,0,0,1
5e2bf2153a9311222d4892c6,SCR,2024-06-10_15h26.36.418,LearnStrategy,2023.2.3,MacIntel,33.33333333,9,2,2,,,,,,,,6,05,,,,,,,,,,,,,6,1.104,1,,,,,,-0.141111111,-0.382222222,1,0,0,1.104,Pegmatite_rect,1,0,1,0,1
5e2bf2153a9311222d4892c6,SCR,2024-06-10_15h26.36.418,LearnStrategy,2023.2.3,MacIntel,33.33333333,9,2,3,,,,,,,,4,14,,,,,,,,,,,,,4,1.336,1,,,,,,0.417777778,-0.232222222,1,0,0,1.336,Gabbro_rect,2,0,2,0,1
5e2bf2153a9311222d4892c6,SCR,2024-06-10_15h26.36.418,LearnStrategy,2023.2.3,MacIntel,33.33333333,9,2,4,,,,,,,,2,08,,,,,,,,,,,,,2,0.986,1,,,,,,-0.131111111,-0.248888889,1,0,0,0.986,Basalt_rect,3,0,3,0,1
5e2bf2153a9311222d4892c6,SCR,2024-06-10_15h26.36.418,LearnStrategy,2023.2.3,MacIntel,33.33333333,9,2,5,,,,,,,,2,12,,,,,,,,,,,,,8,1.706,0,,,,,,0.396666667,-0.403333333,1,0,0,1.706,Pumice_rect,4,0,4,0,1
5e2bf2153a9311222d4892c6,SCR,2024-06-10_15h26.36.418,LearnStrategy,2023.2.3,MacIntel,33.33333333,9,2,6,,,,,,,,5,10,,,,,,,,,,,,,5,1.101,1,,,,,,-0.391111111,-0.406666667,1,0,0,1.101,Obsidian_rect,5,0,5,0,1
5e2bf2153a9311222d4892c6,SCR,2024-06-10_15h26.36.418,LearnStrategy,2023.2.3,MacIntel,33.33333333,9,2,7,,,,,,,,8,04,,,,,,,,,,,,,8,1.319,1,,,,,,0.432222222,-0.388888889,1,0,0,1.319,Pumice_rect,6,0,6,0,1
5e2bf2153a9311222d4892c6,SCR,2024-06-10_15h26.36.418,LearnStrategy,2023.2.3,MacIntel,33.33333333,9,2,8,,,,,,,,7,13,,,,,,,,,,,,,7,1.021,1,,,,,,0.181111111,-0.401111111,1,0,0,1.021,Peridotite_rect,7,0,7,0,1
5e2bf2153a9311222d4892c6,SCR,2024-06-10_15h26.36.418,LearnStrategy,2023.2.3,MacIntel,33.33333333,9,2,9,,,,,,,,6,03,,,,,,,,,,,,,6,1.091,1,,,,,,-0.055555556,-0.405555556,1,0,0,1.091,Pegmatite_rect,8,0,8,0,1
5e2bf2153a9311222d4892c6,SCR,2024-06-10_15h26.36.418,LearnStrategy,2023.2.3,MacIntel,33.33333333,9,2,10,,,,,,,,3,10,,,,,,,,,,,,,1,21.849,0,,,,,,-0.365555556,-0.23,1,0,0,21.849,Andesite_rect,9,0,9,0,1
5e2bf2153a9311222d4892c6,SCR,2024-06-10_15h26.36.418,LearnStrategy,2023.2.3,MacIntel,33.33333333,9,2,11,,,,,,,,8,05,,,,,,,,,,,,,8,1.082,1,,,,,,0.356666667,-0.385555556,1,0,0,1.082,Pumice_rect,10,0,10,0,1
5e2bf2153a9311222d4892c6,SCR,2024-06-10_15h26.36.418,LearnStrategy,2023.2.3,MacIntel,33.33333333,9,2,12,,,,,,,,3,02,,,,,,,,,,,,,3,2.566,1,,,,,,0.102222222,-0.235555556,1,0,0,2.566,Diorite_rect,11,0,11,0,1
5e2bf2153a9311222d4892c6,SCR,2024-06-10_15h26.36.418,LearnStrategy,2023.2.3,MacIntel,33.33333333,9,2,13,,,,,,,,5,07,,,,,,,,,,,,,5,1.531,1,,,,,,-0.383333333,-0.403333333,1,0,0,1.531,Obsidian_rect,12,0,12,0,1
5e2bf2153a9311222d4892c6,SCR,2024-06-10_15h26.36.418,LearnStrategy,2023.2.3,MacIntel,33.33333333,9,2,14,,,,,,,,4,13,,,,,,,,,,,,,4,2.635,1,,,,,,0.386666667,-0.267777778,1,0,0,2.635,Gabbro_rect,13,0,13,0,1
5e2bf2153a9311222d4892c6,SCR,2024-06-10_15h26.36.418,LearnStrategy,2023.2.3,MacIntel,33.33333333,9,2,15,,,,,,,,7,02,,,,,,,,,,,,,7,1.034,1,,,,,,0.098888889,-0.386666667,1,0,0,1.034,Peridotite_rect,14,0,14,0,1
5e2bf2153a9311222d4892c6,SCR,2024-06-10_15h26.36.418,LearnStrategy,2023.2.3,MacIntel,33.33333333,9,2,16,,,,,,,,1,10,,,,,,,,,,,,,1,1.97,1,,,,,,-0.342222222,-0.238888889,1,0,0,1.97,Andesite_rect,15,0,15,0,1
5e2bf2153a9311222d4892c6,SCR,2024-06-10_15h26.36.418,LearnStrategy,2023.2.3,MacIntel,33.33333333,,,,,,,,,,,,,,,,,,,,,,,,,,,,,,,,,,,,,,,,,,,,
5e2bf2153a9311222d4892c6,SCR,2024-06-10_15h26.36.418,LearnStrategy,2023.2.3,MacIntel,33.33333333,,,,,,,,,,,,,,,,,,,,,,,,,,,,,,,,,,,,,,,,,,,,
5e2bf2153a9311222d4892c6,SCR,2024-06-10_15h26.36.418,LearnStrategy,2023.2.3,MacIntel,33.33333333,,,,,,,,,,,4,10,1,1,,,,,,,,,,,,,,,,,,,,,,,,,,,,,,
5e2bf2153a9311222d4892c6,SCR,2024-06-10_15h26.36.418,LearnStrategy,2023.2.3,MacIntel,33.33333333,,,,,,,,,,,5,04,1,2,,,,,,,,,,,,,,,,,,,,,,,,,,,,,,
5e2bf2153a9311222d4892c6,SCR,2024-06-10_15h26.36.418,LearnStrategy,2023.2.3,MacIntel,33.33333333,,,,,,,,,,,2,16,1,3,,,,,,,,,,,,,,,,,,,,,,,,,,,,,,
5e2bf2153a9311222d4892c6,SCR,2024-06-10_15h26.36.418,LearnStrategy,2023.2.3,MacIntel,33.33333333,,,,,,,,,,,6,08,1,4,,,,,,,,,,,,,,,,,,,,,,,,,,,,,,
5e2bf2153a9311222d4892c6,SCR,2024-06-10_15h26.36.418,LearnStrategy,2023.2.3,MacIntel,33.33333333,,,,,,,,,,,1,04,1,5,,,,,,,,,,,,,,,,,,,,,,,,,,,,,,
5e2bf2153a9311222d4892c6,SCR,2024-06-10_15h26.36.418,LearnStrategy,2023.2.3,MacIntel,33.33333333,,,,,,,,,,,6,07,1,6,,,,,,,,,,,,,,,,,,,,,,,,,,,,,,
5e2bf2153a9311222d4892c6,SCR,2024-06-10_15h26.36.418,LearnStrategy,2023.2.3,MacIntel,33.33333333,,,,,,,,,,,4,09,1,7,,,,,,,,,,,,,,,,,,,,,,,,,,,,,,
5e2bf2153a9311222d4892c6,SCR,2024-06-10_15h26.36.418,LearnStrategy,2023.2.3,MacIntel,33.33333333,,,,,,,,,,,7,06,1,8,,,,,,,,,,,,,,,,,,,,,,,,,,,,,,
5e2bf2153a9311222d4892c6,SCR,2024-06-10_15h26.36.418,LearnStrategy,2023.2.3,MacIntel,33.33333333,,,,,,,,,,,3,11,2,1,,,,,,,,,,,,,,,,,,,,,,,,,,,,,,
5e2bf2153a9311222d4892c6,SCR,2024-06-10_15h26.36.418,LearnStrategy,2023.2.3,MacIntel,33.33333333,,,,,,,,,,,2,01,2,2,,,,,,,,,,,,,,,,,,,,,,,,,,,,,,
5e2bf2153a9311222d4892c6,SCR,2024-06-10_15h26.36.418,LearnStrategy,2023.2.3,MacIntel,33.33333333,,,,,,,,,,,7,07,2,3,,,,,,,,,,,,,,,,,,,,,,,,,,,,,,
5e2bf2153a9311222d4892c6,SCR,2024-06-10_15h26.36.418,LearnStrategy,2023.2.3,MacIntel,33.33333333,,,,,,,,,,,2,09,2,4,,,,,,,,,,,,,,,,,,,,,,,,,,,,,,
5e2bf2153a9311222d4892c6,SCR,2024-06-10_15h26.36.418,LearnStrategy,2023.2.3,MacIntel,33.33333333,,,,,,,,,,,5,16,2,5,,,,,,,,,,,,,,,,,,,,,,,,,,,,,,
5e2bf2153a9311222d4892c6,SCR,2024-06-10_15h26.36.418,LearnStrategy,2023.2.3,MacIntel,33.33333333,,,,,,,,,,,3,12,2,6,,,,,,,,,,,,,,,,,,,,,,,,,,,,,,
5e2bf2153a9311222d4892c6,SCR,2024-06-10_15h26.36.418,LearnStrategy,2023.2.3,MacIntel,33.33333333,,,,,,,,,,,1,16,2,7,,,,,,,,,,,,,,,,,,,,,,,,,,,,,,
5e2bf2153a9311222d4892c6,SCR,2024-06-10_15h26.36.418,LearnStrategy,2023.2.3,MacIntel,33.33333333,,,,,,,,,,,7,08,2,8,,,,,,,,,,,,,,,,,,,,,,,,,,,,,,
5e2bf2153a9311222d4892c6,SCR,2024-06-10_15h26.36.418,LearnStrategy,2023.2.3,MacIntel,33.33333333,,,,,,,,,,,2,11,3,1,,,,,,,,,,,,,,,,,,,,,,,,,,,,,,
5e2bf2153a9311222d4892c6,SCR,2024-06-10_15h26.36.418,LearnStrategy,2023.2.3,MacIntel,33.33333333,,,,,,,,,,,4,16,3,2,,,,,,,,,,,,,,,,,,,,,,,,,,,,,,
5e2bf2153a9311222d4892c6,SCR,2024-06-10_15h26.36.418,LearnStrategy,2023.2.3,MacIntel,33.33333333,,,,,,,,,,,7,10,3,3,,,,,,,,,,,,,,,,,,,,,,,,,,,,,,
5e2bf2153a9311222d4892c6,SCR,2024-06-10_15h26.36.418,LearnStrategy,2023.2.3,MacIntel,33.33333333,,,,,,,,,,,5,08,3,4,,,,,,,,,,,,,,,,,,,,,,,,,,,,,,
5e2bf2153a9311222d4892c6,SCR,2024-06-10_15h26.36.418,LearnStrategy,2023.2.3,MacIntel,33.33333333,,,,,,,,,,,1,05,3,5,,,,,,,,,,,,,,,,,,,,,,,,,,,,,,
5e2bf2153a9311222d4892c6,SCR,2024-06-10_15h26.36.418,LearnStrategy,2023.2.3,MacIntel,33.33333333,,,,,,,,,,,8,02,3,6,,,,,,,,,,,,,,,,,,,,,,,,,,,,,,
5e2bf2153a9311222d4892c6,SCR,2024-06-10_15h26.36.418,LearnStrategy,2023.2.3,MacIntel,33.33333333,,,,,,,,,,,5,02,3,7,,,,,,,,,,,,,,,,,,,,,,,,,,,,,,
5e2bf2153a9311222d4892c6,SCR,2024-06-10_15h26.36.418,LearnStrategy,2023.2.3,MacIntel,33.33333333,,,,,,,,,,,7,12,3,8,,,,,,,,,,,,,,,,,,,,,,,,,,,,,,
5e2bf2153a9311222d4892c6,SCR,2024-06-10_15h26.36.418,LearnStrategy,2023.2.3,MacIntel,33.33333333,,,,,,,,,,,8,06,4,1,,,,,,,,,,,,,,,,,,,,,,,,,,,,,,
5e2bf2153a9311222d4892c6,SCR,2024-06-10_15h26.36.418,LearnStrategy,2023.2.3,MacIntel,33.33333333,,,,,,,,,,,3,16,4,2,,,,,,,,,,,,,,,,,,,,,,,,,,,,,,
5e2bf2153a9311222d4892c6,SCR,2024-06-10_15h26.36.418,LearnStrategy,2023.2.3,MacIntel,33.33333333,,,,,,,,,,,3,13,4,3,,,,,,,,,,,,,,,,,,,,,,,,,,,,,,
5e2bf2153a9311222d4892c6,SCR,2024-06-10_15h26.36.418,LearnStrategy,2023.2.3,MacIntel,33.33333333,,,,,,,,,,,4,15,4,4,,,,,,,,,,,,,,,,,,,,,,,,,,,,,,
5e2bf2153a9311222d4892c6,SCR,2024-06-10_15h26.36.418,LearnStrategy,2023.2.3,MacIntel,33.33333333,,,,,,,,,,,7,05,4,5,,,,,,,,,,,,,,,,,,,,,,,,,,,,,,
5e2bf2153a9311222d4892c6,SCR,2024-06-10_15h26.36.418,LearnStrategy,2023.2.3,MacIntel,33.33333333,,,,,,,,,,,3,08,4,6,,,,,,,,,,,,,,,,,,,,,,,,,,,,,,
5e2bf2153a9311222d4892c6,SCR,2024-06-10_15h26.36.418,LearnStrategy,2023.2.3,MacIntel,33.33333333,,,,,,,,,,,4,12,4,7,,,,,,,,,,,,,,,,,,,,,,,,,,,,,,
5e2bf2153a9311222d4892c6,SCR,2024-06-10_15h26.36.418,LearnStrategy,2023.2.3,MacIntel,33.33333333,,,,,,,,,,,8,15,4,8,,,,,,,,,,,,,,,,,,,,,,,,,,,,,,
5e2bf2153a9311222d4892c6,SCR,2024-06-10_15h26.36.418,LearnStrategy,2023.2.3,MacIntel,33.33333333,,,,,,,,,,,8,09,5,1,,,,,,,,,,,,,,,,,,,,,,,,,,,,,,
5e2bf2153a9311222d4892c6,SCR,2024-06-10_15h26.36.418,LearnStrategy,2023.2.3,MacIntel,33.33333333,,,,,,,,,,,2,02,5,2,,,,,,,,,,,,,,,,,,,,,,,,,,,,,,
5e2bf2153a9311222d4892c6,SCR,2024-06-10_15h26.36.418,LearnStrategy,2023.2.3,MacIntel,33.33333333,,,,,,,,,,,2,06,5,3,,,,,,,,,,,,,,,,,,,,,,,,,,,,,,
5e2bf2153a9311222d4892c6,SCR,2024-06-10_15h26.36.418,LearnStrategy,2023.2.3,MacIntel,33.33333333,,,,,,,,,,,6,16,5,4,,,,,,,,,,,,,,,,,,,,,,,,,,,,,,
5e2bf2153a9311222d4892c6,SCR,2024-06-10_15h26.36.418,LearnStrategy,2023.2.3,MacIntel,33.33333333,,,,,,,,,,,6,06,5,5,,,,,,,,,,,,,,,,,,,,,,,,,,,,,,
5e2bf2153a9311222d4892c6,SCR,2024-06-10_15h26.36.418,LearnStrategy,2023.2.3,MacIntel,33.33333333,,,,,,,,,,,4,05,5,6,,,,,,,,,,,,,,,,,,,,,,,,,,,,,,
5e2bf2153a9311222d4892c6,SCR,2024-06-10_15h26.36.418,LearnStrategy,2023.2.3,MacIntel,33.33333333,,,,,,,,,,,5,12,5,7,,,,,,,,,,,,,,,,,,,,,,,,,,,,,,
5e2bf2153a9311222d4892c6,SCR,2024-06-10_15h26.36.418,LearnStrategy,2023.2.3,MacIntel,33.33333333,,,,,,,,,,,1,09,5,8,,,,,,,,,,,,,,,,,,,,,,,,,,,,,,
5e2bf2153a9311222d4892c6,SCR,2024-06-10_15h26.36.418,LearnStrategy,2023.2.3,MacIntel,33.33333333,,,,,,,,,,,8,10,6,1,,,,,,,,,,,,,,,,,,,,,,,,,,,,,,
5e2bf2153a9311222d4892c6,SCR,2024-06-10_15h26.36.418,LearnStrategy,2023.2.3,MacIntel,33.33333333,,,,,,,,,,,5,09,6,2,,,,,,,,,,,,,,,,,,,,,,,,,,,,,,
5e2bf2153a9311222d4892c6,SCR,2024-06-10_15h26.36.418,LearnStrategy,2023.2.3,MacIntel,33.33333333,,,,,,,,,,,6,12,6,3,,,,,,,,,,,,,,,,,,,,,,,,,,,,,,
5e2bf2153a9311222d4892c6,SCR,2024-06-10_15h26.36.418,LearnStrategy,2023.2.3,MacIntel,33.33333333,,,,,,,,,,,1,14,6,4,,,,,,,,,,,,,,,,,,,,,,,,,,,,,,
5e2bf2153a9311222d4892c6,SCR,2024-06-10_15h26.36.418,LearnStrategy,2023.2.3,MacIntel,33.33333333,,,,,,,,,,,1,07,6,5,,,,,,,,,,,,,,,,,,,,,,,,,,,,,,
5e2bf2153a9311222d4892c6,SCR,2024-06-10_15h26.36.418,LearnStrategy,2023.2.3,MacIntel,33.33333333,,,,,,,,,,,6,09,6,6,,,,,,,,,,,,,,,,,,,,,,,,,,,,,,
5e2bf2153a9311222d4892c6,SCR,2024-06-10_15h26.36.418,LearnStrategy,2023.2.3,MacIntel,33.33333333,,,,,,,,,,,8,03,6,7,,,,,,,,,,,,,,,,,,,,,,,,,,,,,,
5e2bf2153a9311222d4892c6,SCR,2024-06-10_15h26.36.418,LearnStrategy,2023.2.3,MacIntel,33.33333333,,,,,,,,,,,3,07,6,8,,,,,,,,,,,,,,,,,,,,,,,,,,,,,,