participant,condition,date,expName,psychopyVersion,OS,frameRate,block,phase,trial,learn_mouse_2.x,learn_mouse_2.y,learn_mouse_2.leftButton,learn_mouse_2.midButton,learn_mouse_2.rightButton,learn_mouse_2.time,learn_mouse_2.clicked_name,cat,token,row,col,t_select,cat_mouse_l.x,cat_mouse_l.y,cat_mouse_l.leftButton,cat_mouse_l.midButton,cat_mouse_l.rightButton,cat_mouse_l.time,cat_mouse_l.clicked_name,resp,t_resp,corr,train_trials.thisRepN,train_trials.thisTrialN,train_trials.thisN,train_trials.thisIndex,train_trials.ran,cat_mouse_t.x,cat_mouse_t.y,cat_mouse_t.leftButton,cat_mouse_t.midButton,cat_mouse_t.rightButton,cat_mouse_t.time,cat_mouse_t.clicked_name,test_trials.thisRepN,test_trials.thisTrialN,test_trials.thisN,test_trials.thisIndex,test_trials.ran,Bonus
5e2c7806bb1a6e000cf7f2e8,TCN,2024-06-26_12h52.22.448,LearnStrategy,2023.2.3,Win32,59.88023952,,,,,,,,,,,,,,,,,,,,,,,,,,,,,,,,,,,,,,,,,,,
5e2c7806bb1a6e000cf7f2e8,TCN,2024-06-26_12h52.22.448,LearnStrategy,2023.2.3,Win32,59.88023952,1,1,1,0.118489583,0.002604167,1,0,0,10.3043,rock_grid_rect_2,7,08,-1,-1,10.304,0.091145833,-0.3828125,1,0,0,10.3039,Peridotite_rect,7,10.304,1,0,0,0,0,1,,,,,,,,,,,,,
5e2c7806bb1a6e000cf7f2e8,TCN,2024-06-26_12h52.22.448,LearnStrategy,2023.2.3,Win32,59.88023952,1,1,2,0.061197917,0.002604167,1,0,0,2.2619,rock_grid_rect_2,5,09,-1,-1,2.262,-0.075520833,-0.23828125,1,0,0,6.0095,Basalt_rect,2,6.01,0,1,0,1,0,1,,,,,,,,,,,,,
5e2c7806bb1a6e000cf7f2e8,TCN,2024-06-26_12h52.22.448,LearnStrategy,2023.2.3,Win32,59.88023952,1,1,3,0.016927083,-0.00390625,1,0,0,2.2536,rock_grid_rect_2,3,15,-1,-1,2.254,0.059895833,-0.380208333,1,0,0,3.6274,Peridotite_rect,7,3.627,0,2,0,2,0,1,,,,,,,,,,,,,
5e2c7806bb1a6e000cf7f2e8,TCN,2024-06-26_12h52.22.448,LearnStrategy,2023.2.3,Win32,59.88023952,1,1,4,0.010416667,-0.01953125,1,0,0,2.6611,rock_grid_rect_2,6,07,-1,-1,2.661,-0.341145833,-0.388020833,1,0,0,7.8774,Obsidian_rect,5,7.877,0,3,0,3,0,1,,,,,,,,,,,,,
5e2c7806bb1a6e000cf7f2e8,TCN,2024-06-26_12h52.22.448,LearnStrategy,2023.2.3,Win32,59.88023952,1,1,5,-0.028645833,-0.01953125,1,0,0,2.8387,rock_grid_rect_2,2,11,-1,-1,2.839,-0.326822917,-0.239583333,1,0,0,2.7054,Andesite_rect,1,2.705,0,4,0,4,0,1,,,,,,,,,,,,,
5e2c7806bb1a6e000cf7f2e8,TCN,2024-06-26_12h52.22.448,LearnStrategy,2023.2.3,Win32,59.88023952,1,1,6,-0.001302083,-0.0078125,1,0,0,1.821,rock_grid_rect_2,4,12,-1,-1,1.821,-0.3359375,-0.256510417,1,0,0,3.1098,Andesite_rect,1,3.11,0,5,0,5,0,1,,,,,,,,,,,,,
5e2c7806bb1a6e000cf7f2e8,TCN,2024-06-26_12h52.22.448,LearnStrategy,2023.2.3,Win32,59.88023952,1,1,7,0.015625,-0.005208333,1,0,0,1.6844,rock_grid_rect_2,6,16,-1,-1,1.684,-0.326822917,-0.235677083,1,0,0,3.644,Andesite_rect,1,3.644,0,6,0,6,0,1,,,,,,,,,,,,,
5e2c7806bb1a6e000cf7f2e8,TCN,2024-06-26_12h52.22.448,LearnStrategy,2023.2.3,Win32,59.88023952,1,1,8,0.026041667,-0.009114583,1,0,0,1.9452,rock_grid_rect_2,3,14,-1,-1,1.945,-0.365885417,-0.381510417,1,0,0,12.6818,Obsidian_rect,5,12.682,0,7,0,7,0,1,,,,,,,,,,,,,
5e2c7806bb1a6e000cf7f2e8,TCN,2024-06-26_12h52.22.448,LearnStrategy,2023.2.3,Win32,59.88023952,1,1,9,0.076822917,-0.00390625,1,0,0,1.4239,rock_grid_rect_2,8,08,-1,-1,1.424,-0.345052083,-0.236979167,1,0,0,3.05,Andesite_rect,1,3.05,0,8,0,8,0,1,,,,,,,,,,,,,
5e2c7806bb1a6e000cf7f2e8,TCN,2024-06-26_12h52.22.448,LearnStrategy,2023.2.3,Win32,59.88023952,1,1,10,0.0234375,0.002604167,1,0,0,1.7155,rock_grid_rect_2,7,14,-1,-1,1.716,0.083333333,-0.388020833,1,0,0,5.0197,Peridotite_rect,7,5.02,1,9,0,9,0,1,,,,,,,,,,,,,
5e2c7806bb1a6e000cf7f2e8,TCN,2024-06-26_12h52.22.448,LearnStrategy,2023.2.3,Win32,59.88023952,1,1,11,0.01171875,0.00390625,1,0,0,2.2477,rock_grid_rect_2,1,03,-1,-1,2.248,0.1875,-0.255208333,1,0,0,6.4258,Diorite_rect,3,6.426,0,10,0,10,0,1,,,,,,,,,,,,,
5e2c7806bb1a6e000cf7f2e8,TCN,2024-06-26_12h52.22.448,LearnStrategy,2023.2.3,Win32,59.88023952,1,1,12,0.009114583,-0.006510417,1,0,0,1.4389,rock_grid_rect_2,1,07,-1,-1,1.439,-0.10546875,-0.390625,1,0,0,6.309,Pegmatite_rect,6,6.309,0,11,0,11,0,1,,,,,,,,,,,,,
5e2c7806bb1a6e000cf7f2e8,TCN,2024-06-26_12h52.22.448,LearnStrategy,2023.2.3,Win32,59.88023952,1,1,13,-0.01953125,-0.013020833,1,0,0,1.7137,rock_grid_rect_2,4,09,-1,-1,1.714,0.06640625,-0.239583333,1,0,0,5.0726,Diorite_rect,3,5.073,0,12,0,12,0,1,,,,,,,,,,,,,
5e2c7806bb1a6e000cf7f2e8,TCN,2024-06-26_12h52.22.448,LearnStrategy,2023.2.3,Win32,59.88023952,1,1,14,-0.020833333,-0.005208333,1,0,0,1.1707,rock_grid_rect_2,8,06,-1,-1,1.171,-0.158854167,-0.38671875,1,0,0,2.68,Pegmatite_rect,6,2.68,0,13,0,13,0,1,,,,,,,,,,,,,
5e2c7806bb1a6e000cf7f2e8,TCN,2024-06-26_12h52.22.448,LearnStrategy,2023.2.3,Win32,59.88023952,1,1,15,0.041666667,0.002604167,1,0,0,1.7486,rock_grid_rect_2,2,14,-1,-1,1.749,-0.364583333,-0.395833333,1,0,0,2.6251,Obsidian_rect,5,2.625,0,14,0,14,0,1,,,,,,,,,,,,,
5e2c7806bb1a6e000cf7f2e8,TCN,2024-06-26_12h52.22.448,LearnStrategy,2023.2.3,Win32,59.88023952,1,1,16,0.015625,0.013020833,1,0,0,1.5996,rock_grid_rect_2,5,14,-1,-1,1.6,0.3828125,-0.23828125,1,0,0,6.0255,Gabbro_rect,4,6.025,0,15,0,15,0,1,,,,,,,,,,,,,
5e2c7806bb1a6e000cf7f2e8,TCN,2024-06-26_12h52.22.448,LearnStrategy,2023.2.3,Win32,59.88023952,1,2,1,,,,,,,,8,10,,,,,,,,,,,7,7.008,0,,,,,,0.087239583,-0.3828125,1,0,0,7.0083,Peridotite_rect,0,0,0,0,1,
5e2c7806bb1a6e000cf7f2e8,TCN,2024-06-26_12h52.22.448,LearnStrategy,2023.2.3,Win32,59.88023952,1,2,2,,,,,,,,5,06,,,,,,,,,,,5,9.101,1,,,,,,-0.354166667,-0.390625,1,0,0,9.1011,Obsidian_rect,1,0,1,0,1,
5e2c7806bb1a6e000cf7f2e8,TCN,2024-06-26_12h52.22.448,LearnStrategy,2023.2.3,Win32,59.88023952,1,2,3,,,,,,,,8,05,,,,,,,,,,,6,7.303,0,,,,,,-0.076822917,-0.3828125,1,0,0,7.3028,Pegmatite_rect,2,0,2,0,1,
5e2c7806bb1a6e000cf7f2e8,TCN,2024-06-26_12h52.22.448,LearnStrategy,2023.2.3,Win32,59.88023952,1,2,4,,,,,,,,3,02,,,,,,,,,,,6,4.159,0,,,,,,-0.076822917,-0.3828125,1,0,0,4.1594,Pegmatite_rect,3,0,3,0,1,
5e2c7806bb1a6e000cf7f2e8,TCN,2024-06-26_12h52.22.448,LearnStrategy,2023.2.3,Win32,59.88023952,1,2,5,,,,,,,,1,01,,,,,,,,,,,7,4.077,0,,,,,,0.078125,-0.380208333,1,0,0,4.0765,Peridotite_rect,4,0,4,0,1,
5e2c7806bb1a6e000cf7f2e8,TCN,2024-06-26_12h52.22.448,LearnStrategy,2023.2.3,Win32,59.88023952,1,2,6,,,,,,,,6,03,,,,,,,,,,,8,5.21,0,,,,,,0.345052083,-0.3828125,1,0,0,5.2099,Pumice_rect,5,0,5,0,1,
5e2c7806bb1a6e000cf7f2e8,TCN,2024-06-26_12h52.22.448,LearnStrategy,2023.2.3,Win32,59.88023952,1,2,7,,,,,,,,7,10,,,,,,,,,,,1,5.857,0,,,,,,-0.333333333,-0.23828125,1,0,0,5.8574,Andesite_rect,6,0,6,0,1,
5e2c7806bb1a6e000cf7f2e8,TCN,2024-06-26_12h52.22.448,LearnStrategy,2023.2.3,Win32,59.88023952,1,2,8,,,,,,,,4,14,,,,,,,,,,,4,2.999,1,,,,,,0.322916667,-0.233072917,1,0,0,2.9993,Gabbro_rect,7,0,7,0,1,
5e2c7806bb1a6e000cf7f2e8,TCN,2024-06-26_12h52.22.448,LearnStrategy,2023.2.3,Win32,59.88023952,1,2,9,,,,,,,,4,13,,,,,,,,,,,2,5.781,0,,,,,,-0.0703125,-0.255208333,1,0,0,5.7812,Basalt_rect,8,0,8,0,1,
5e2c7806bb1a6e000cf7f2e8,TCN,2024-06-26_12h52.22.448,LearnStrategy,2023.2.3,Win32,59.88023952,1,2,10,,,,,,,,2,01,,,,,,,,,,,3,7.698,0,,,,,,0.024739583,-0.25,1,0,0,7.6981,Diorite_rect,9,0,9,0,1,
5e2c7806bb1a6e000cf7f2e8,TCN,2024-06-26_12h52.22.448,LearnStrategy,2023.2.3,Win32,59.88023952,1,2,11,,,,,,,,3,16,,,,,,,,,,,6,5.168,0,,,,,,-0.138020833,-0.380208333,1,0,0,5.168,Pegmatite_rect,10,0,10,0,1,
5e2c7806bb1a6e000cf7f2e8,TCN,2024-06-26_12h52.22.448,LearnStrategy,2023.2.3,Win32,59.88023952,1,2,12,,,,,,,,1,05,,,,,,,,,,,1,4.387,1,,,,,,-0.321614583,-0.247395833,1,0,0,4.3871,Andesite_rect,11,0,11,0,1,
5e2c7806bb1a6e000cf7f2e8,TCN,2024-06-26_12h52.22.448,LearnStrategy,2023.2.3,Win32,59.88023952,1,2,13,,,,,,,,7,15,,,,,,,,,,,6,9.989,0,,,,,,-0.096354167,-0.38671875,1,0,0,9.9886,Pegmatite_rect,12,0,12,0,1,
5e2c7806bb1a6e000cf7f2e8,TCN,2024-06-26_12h52.22.448,LearnStrategy,2023.2.3,Win32,59.88023952,1,2,14,,,,,,,,2,10,,,,,,,,,,,2,5.219,1,,,,,,-0.08203125,-0.25,1,0,0,5.2186,Basalt_rect,13,0,13,0,1,
5e2c7806bb1a6e000cf7f2e8,TCN,2024-06-26_12h52.22.448,LearnStrategy,2023.2.3,Win32,59.88023952,1,2,15,,,,,,,,5,11,,,,,,,,,,,2,4.581,0,,,,,,-0.08203125,-0.25,1,0,0,4.5812,Basalt_rect,14,0,14,0,1,
5e2c7806bb1a6e000cf7f2e8,TCN,2024-06-26_12h52.22.448,LearnStrategy,2023.2.3,Win32,59.88023952,1,2,16,,,,,,,,6,15,,,,,,,,,,,5,3.003,0,,,,,,-0.330729167,-0.388020833,1,0,0,3.0034,Obsidian_rect,15,0,15,0,1,
5e2c7806bb1a6e000cf7f2e8,TCN,2024-06-26_12h52.22.448,LearnStrategy,2023.2.3,Win32,59.88023952,2,1,1,0.015625,-0.013020833,1,0,0,3.2328,rock_grid_rect_2,3,09,-1,-1,3.233,-0.084635417,-0.390625,1,0,0,3.1608,Pegmatite_rect,6,3.161,0,0,0,0,0,1,,,,,,,,,,,,,
5e2c7806bb1a6e000cf7f2e8,TCN,2024-06-26_12h52.22.448,LearnStrategy,2023.2.3,Win32,59.88023952,2,1,2,0.104166667,0.0078125,1,0,0,1.3863,rock_grid_rect_2,3,12,-1,-1,1.386,-0.111979167,-0.384114583,1,0,0,7.5492,Pegmatite_rect,6,7.549,0,1,0,1,0,1,,,,,,,,,,,,,
5e2c7806bb1a6e000cf7f2e8,TCN,2024-06-26_12h52.22.448,LearnStrategy,2023.2.3,Win32,59.88023952,2,1,3,-0.020833333,-0.01171875,1,0,0,1.3883,rock_grid_rect_2,5,10,-1,-1,1.388,-0.1015625,-0.25390625,1,0,0,2.1624,Basalt_rect,2,2.162,0,2,0,2,0,1,,,,,,,,,,,,,
5e2c7806bb1a6e000cf7f2e8,TCN,2024-06-26_12h52.22.448,LearnStrategy,2023.2.3,Win32,59.88023952,2,1,4,-0.028645833,-0.010416667,1,0,0,1.5006,rock_grid_rect_2,6,06,-1,-1,1.501,-0.365885417,-0.259114583,1,0,0,4.4444,Andesite_rect,1,4.444,0,3,0,3,0,1,,,,,,,,,,,,,
5e2c7806bb1a6e000cf7f2e8,TCN,2024-06-26_12h52.22.448,LearnStrategy,2023.2.3,Win32,59.88023952,2,1,5,0.020833333,-0.006510417,1,0,0,1.2945,rock_grid_rect_2,5,16,-1,-1,1.294,0.119791667,-0.252604167,1,0,0,3.6192,Diorite_rect,3,3.619,0,4,0,4,0,1,,,,,,,,,,,,,
5e2c7806bb1a6e000cf7f2e8,TCN,2024-06-26_12h52.22.448,LearnStrategy,2023.2.3,Win32,59.88023952,2,1,6,0.01953125,0,1,0,0,1.1896,rock_grid_rect_2,2,05,-1,-1,1.19,-0.104166667,-0.25,1,0,0,1.5398,Basalt_rect,2,1.54,1,5,0,5,0,1,,,,,,,,,,,,,
5e2c7806bb1a6e000cf7f2e8,TCN,2024-06-26_12h52.22.448,LearnStrategy,2023.2.3,Win32,59.88023952,2,1,7,-0.059895833,-0.005208333,1,0,0,1.2888,rock_grid_rect_2,6,12,-1,-1,1.289,0.149739583,-0.38671875,1,0,0,1.7667,Peridotite_rect,7,1.767,0,6,0,6,0,1,,,,,,,,,,,,,
5e2c7806bb1a6e000cf7f2e8,TCN,2024-06-26_12h52.22.448,LearnStrategy,2023.2.3,Win32,59.88023952,2,1,8,-0.018229167,-0.013020833,1,0,0,1.2848,rock_grid_rect_2,7,04,-1,-1,1.285,0.078125,-0.399739583,1,0,0,2.4368,Peridotite_rect,7,2.437,1,7,0,7,0,1,,,,,,,,,,,,,
5e2c7806bb1a6e000cf7f2e8,TCN,2024-06-26_12h52.22.448,LearnStrategy,2023.2.3,Win32,59.88023952,2,1,9,0.052083333,-0.001302083,1,0,0,1.7284,rock_grid_rect_2,4,10,-1,-1,1.728,-0.356770833,-0.259114583,1,0,0,3.6052,Andesite_rect,1,3.605,0,8,0,8,0,1,,,,,,,,,,,,,
5e2c7806bb1a6e000cf7f2e8,TCN,2024-06-26_12h52.22.448,LearnStrategy,2023.2.3,Win32,59.88023952,2,1,10,0.018229167,0.002604167,1,0,0,1.1816,rock_grid_rect_2,1,14,-1,-1,1.182,-0.104166667,-0.393229167,1,0,0,4.8282,Pegmatite_rect,6,4.828,0,9,0,9,0,1,,,,,,,,,,,,,
5e2c7806bb1a6e000cf7f2e8,TCN,2024-06-26_12h52.22.448,LearnStrategy,2023.2.3,Win32,59.88023952,2,1,11,-0.0078125,-0.018229167,1,0,0,1.8399,rock_grid_rect_2,7,05,-1,-1,1.84,0.143229167,-0.384114583,1,0,0,3.3854,Peridotite_rect,7,3.385,1,10,0,10,0,1,,,,,,,,,,,,,
5e2c7806bb1a6e000cf7f2e8,TCN,2024-06-26_12h52.22.448,LearnStrategy,2023.2.3,Win32,59.88023952,2,1,12,-0.001302083,-0.014322917,1,0,0,1.3152,rock_grid_rect_2,8,14,-1,-1,1.315,0.354166667,-0.39453125,1,0,0,3.3448,Pumice_rect,8,3.345,1,11,0,11,0,1,,,,,,,,,,,,,
5e2c7806bb1a6e000cf7f2e8,TCN,2024-06-26_12h52.22.448,LearnStrategy,2023.2.3,Win32,59.88023952,2,1,13,0.08203125,-0.005208333,1,0,0,1.4423,rock_grid_rect_2,2,06,-1,-1,1.442,-0.385416667,-0.401041667,1,0,0,4.7351,Obsidian_rect,5,4.735,0,12,0,12,0,1,,,,,,,,,,,,,
5e2c7806bb1a6e000cf7f2e8,TCN,2024-06-26_12h52.22.448,LearnStrategy,2023.2.3,Win32,59.88023952,2,1,14,0.080729167,-0.014322917,1,0,0,1.469,rock_grid_rect_2,4,08,-1,-1,1.469,-0.3671875,-0.389322917,1,0,0,1.7688,Obsidian_rect,5,1.769,0,13,0,13,0,1,,,,,,,,,,,,,
5e2c7806bb1a6e000cf7f2e8,TCN,2024-06-26_12h52.22.448,LearnStrategy,2023.2.3,Win32,59.88023952,2,1,15,0.037760417,0.0078125,1,0,0,2.1312,rock_grid_rect_2,8,09,-1,-1,2.131,0.365885417,-0.381510417,1,0,0,3.1938,Pumice_rect,8,3.194,1,14,0,14,0,1,,,,,,,,,,,,,
5e2c7806bb1a6e000cf7f2e8,TCN,2024-06-26_12h52.22.448,LearnStrategy,2023.2.3,Win32,59.88023952,2,1,16,0.067708333,0.002604167,1,0,0,1.8182,rock_grid_rect_2,1,04,-1,-1,1.818,0.125,-0.381510417,1,0,0,2.1375,Peridotite_rect,7,2.138,0,15,0,15,0,1,,,,,,,,,,,,,
5e2c7806bb1a6e000cf7f2e8,TCN,2024-06-26_12h52.22.448,LearnStrategy,2023.2.3,Win32,59.88023952,2,2,1,,,,,,,,6,09,,,,,,,,,,,2,14.886,0,,,,,,-0.104166667,-0.244791667,1,0,0,14.8862,Basalt_rect,0,0,0,0,1,
5e2c7806bb1a6e000cf7f2e8,TCN,2024-06-26_12h52.22.448,LearnStrategy,2023.2.3,Win32,59.88023952,2,2,2,,,,,,,,7,12,,,,,,,,,,,7,3.727,1,,,,,,0.055989583,-0.390625,1,0,0,3.7267,Peridotite_rect,1,0,1,0,1,
5e2c7806bb1a6e000cf7f2e8,TCN,2024-06-26_12h52.22.448,LearnStrategy,2023.2.3,Win32,59.88023952,2,2,3,,,,,,,,6,11,,,,,,,,,,,6,7.684,1,,,,,,-0.134114583,-0.397135417,1,0,0,7.6843,Pegmatite_rect,2,0,2,0,1,
5e2c7806bb1a6e000cf7f2e8,TCN,2024-06-26_12h52.22.448,LearnStrategy,2023.2.3,Win32,59.88023952,2,2,4,,,,,,,,1,10,,,,,,,,,,,5,3.027,0,,,,,,-0.377604167,-0.38671875,1,0,0,3.0269,Obsidian_rect,3,0,3,0,1,
5e2c7806bb1a6e000cf7f2e8,TCN,2024-06-26_12h52.22.448,LearnStrategy,2023.2.3,Win32,59.88023952,2,2,5,,,,,,,,5,07,,,,,,,,,,,2,4.482,0,,,,,,-0.1328125,-0.248697917,1,0,0,4.4822,Basalt_rect,4,0,4,0,1,
5e2c7806bb1a6e000cf7f2e8,TCN,2024-06-26_12h52.22.448,LearnStrategy,2023.2.3,Win32,59.88023952,2,2,6,,,,,,,,3,11,,,,,,,,,,,6,3.162,0,,,,,,-0.102864583,-0.385416667,1,0,0,3.1616,Pegmatite_rect,5,0,5,0,1,
5e2c7806bb1a6e000cf7f2e8,TCN,2024-06-26_12h52.22.448,LearnStrategy,2023.2.3,Win32,59.88023952,2,2,7,,,,,,,,8,16,,,,,,,,,,,8,1.977,1,,,,,,0.329427083,-0.388020833,1,0,0,1.9771,Pumice_rect,6,0,6,0,1,
5e2c7806bb1a6e000cf7f2e8,TCN,2024-06-26_12h52.22.448,LearnStrategy,2023.2.3,Win32,59.88023952,2,2,8,,,,,,,,2,02,,,,,,,,,,,2,1.407,1,,,,,,-0.075520833,-0.259114583,1,0,0,1.4067,Basalt_rect,7,0,7,0,1,
5e2c7806bb1a6e000cf7f2e8,TCN,2024-06-26_12h52.22.448,LearnStrategy,2023.2.3,Win32,59.88023952,2,2,9,,,,,,,,4,03,,,,,,,,,,,2,5.411,0,,,,,,-0.06640625,-0.263020833,1,0,0,5.4106,Basalt_rect,8,0,8,0,1,
5e2c7806bb1a6e000cf7f2e8,TCN,2024-06-26_12h52.22.448,LearnStrategy,2023.2.3,Win32,59.88023952,2,2,10,,,,,,,,1,09,,,,,,,,,,,2,1.384,0,,,,,,-0.067708333,-0.263020833,1,0,0,1.3843,Basalt_rect,9,0,9,0,1,
5e2c7806bb1a6e000cf7f2e8,TCN,2024-06-26_12h52.22.448,LearnStrategy,2023.2.3,Win32,59.88023952,2,2,11,,,,,,,,7,02,,,,,,,,,,,7,2.41,1,,,,,,0.088541667,-0.389322917,1,0,0,2.4096,Peridotite_rect,10,0,10,0,1,
5e2c7806bb1a6e000cf7f2e8,TCN,2024-06-26_12h52.22.448,LearnStrategy,2023.2.3,Win32,59.88023952,2,2,12,,,,,,,,5,12,,,,,,,,,,,2,1.356,0,,,,,,-0.0859375,-0.25390625,1,0,0,1.3564,Basalt_rect,11,0,11,0,1,
5e2c7806bb1a6e000cf7f2e8,TCN,2024-06-26_12h52.22.448,LearnStrategy,2023.2.3,Win32,59.88023952,2,2,13,,,,,,,,2,08,,,,,,,,,,,2,1.244,1,,,,,,-0.0859375,-0.25390625,1,0,0,1.2437,Basalt_rect,12,0,12,0,1,
5e2c7806bb1a6e000cf7f2e8,TCN,2024-06-26_12h52.22.448,LearnStrategy,2023.2.3,Win32,59.88023952,2,2,14,,,,,,,,4,11,,,,,,,,,,,2,2.623,0,,,,,,-0.087239583,-0.256510417,1,0,0,2.623,Basalt_rect,13,0,13,0,1,
5e2c7806bb1a6e000cf7f2e8,TCN,2024-06-26_12h52.22.448,LearnStrategy,2023.2.3,Win32,59.88023952,2,2,15,,,,,,,,8,13,,,,,,,,,,,8,2.316,1,,,,,,0.36328125,-0.40234375,1,0,0,2.3156,Pumice_rect,14,0,14,0,1,
5e2c7806bb1a6e000cf7f2e8,TCN,2024-06-26_12h52.22.448,LearnStrategy,2023.2.3,Win32,59.88023952,2,2,16,,,,,,,,3,10,,,,,,,,,,,6,3.105,0,,,,,,-0.141927083,-0.380208333,1,0,0,3.1052,Pegmatite_rect,15,0,15,0,1,
5e2c7806bb1a6e000cf7f2e8,TCN,2024-06-26_12h52.22.448,LearnStrategy,2023.2.3,Win32,59.88023952,3,1,1,0.053385417,-0.022135417,1,0,0,1.3851,rock_grid_rect_2,6,05,-1,-1,1.385,-0.342447917,-0.259114583,1,0,0,2.959,Andesite_rect,1,2.959,0,0,0,0,0,1,,,,,,,,,,,,,
5e2c7806bb1a6e000cf7f2e8,TCN,2024-06-26_12h52.22.448,LearnStrategy,2023.2.3,Win32,59.88023952,3,1,2,0.002604167,-0.00390625,1,0,0,2.4649,rock_grid_rect_2,7,13,-1,-1,2.465,0.067708333,-0.388020833,1,0,0,4.197,Peridotite_rect,7,4.197,1,1,0,1,0,1,,,,,,,,,,,,,
5e2c7806bb1a6e000cf7f2e8,TCN,2024-06-26_12h52.22.448,LearnStrategy,2023.2.3,Win32,59.88023952,3,1,3,0.037760417,-0.01171875,1,0,0,1.496,rock_grid_rect_2,1,06,-1,-1,1.496,-0.359375,-0.393229167,1,0,0,4.004,Obsidian_rect,5,4.004,0,2,0,2,0,1,,,,,,,,,,,,,
5e2c7806bb1a6e000cf7f2e8,TCN,2024-06-26_12h52.22.448,LearnStrategy,2023.2.3,Win32,59.88023952,3,1,4,0.04296875,-0.005208333,1,0,0,1.76,rock_grid_rect_2,7,06,-1,-1,1.76,-0.075520833,-0.391927083,1,0,0,2.3258,Pegmatite_rect,6,2.326,0,3,0,3,0,1,,,,,,,,,,,,,
5e2c7806bb1a6e000cf7f2e8,TCN,2024-06-26_12h52.22.448,LearnStrategy,2023.2.3,Win32,59.88023952,3,1,5,0.048177083,0.013020833,1,0,0,1.2982,rock_grid_rect_2,3,07,-1,-1,1.298,0.08203125,-0.385416667,1,0,0,2.4547,Peridotite_rect,7,2.455,0,4,0,4,0,1,,,,,,,,,,,,,
5e2c7806bb1a6e000cf7f2e8,TCN,2024-06-26_12h52.22.448,LearnStrategy,2023.2.3,Win32,59.88023952,3,1,6,-0.022135417,0.001302083,1,0,0,0.9453,rock_grid_rect_2,1,02,-1,-1,0.945,0.095052083,-0.3984375,1,0,0,2.8387,Peridotite_rect,7,2.839,0,5,0,5,0,1,,,,,,,,,,,,,
5e2c7806bb1a6e000cf7f2e8,TCN,2024-06-26_12h52.22.448,LearnStrategy,2023.2.3,Win32,59.88023952,3,1,7,0.0546875,0.0078125,1,0,0,0.9633,rock_grid_rect_2,5,04,-1,-1,0.963,-0.087239583,-0.24609375,1,0,0,1.2875,Basalt_rect,2,1.288,0,6,0,6,0,1,,,,,,,,,,,,,
5e2c7806bb1a6e000cf7f2e8,TCN,2024-06-26_12h52.22.448,LearnStrategy,2023.2.3,Win32,59.88023952,3,1,8,0.022135417,0.002604167,1,0,0,1.105,rock_grid_rect_2,8,15,-1,-1,1.105,0.322916667,-0.38671875,1,0,0,1.5299,Pumice_rect,8,1.53,1,7,0,7,0,1,,,,,,,,,,,,,
5e2c7806bb1a6e000cf7f2e8,TCN,2024-06-26_12h52.22.448,LearnStrategy,2023.2.3,Win32,59.88023952,3,1,9,-0.009114583,0,1,0,0,1.3461,rock_grid_rect_2,2,09,-1,-1,1.346,-0.095052083,-0.243489583,1,0,0,1.3132,Basalt_rect,2,1.313,1,8,0,8,0,1,,,,,,,,,,,,,
5e2c7806bb1a6e000cf7f2e8,TCN,2024-06-26_12h52.22.448,LearnStrategy,2023.2.3,Win32,59.88023952,3,1,10,-0.044270833,-0.016927083,1,0,0,1.0335,rock_grid_rect_2,5,05,-1,-1,1.034,-0.098958333,-0.236979167,1,0,0,1.4532,Basalt_rect,2,1.453,0,9,0,9,0,1,,,,,,,,,,,,,
5e2c7806bb1a6e000cf7f2e8,TCN,2024-06-26_12h52.22.448,LearnStrategy,2023.2.3,Win32,59.88023952,3,1,11,-0.006510417,-0.001302083,1,0,0,1.3876,rock_grid_rect_2,4,15,-1,-1,1.388,-0.102864583,-0.39453125,1,0,0,3.5402,Pegmatite_rect,6,3.54,0,10,0,10,0,1,,,,,,,,,,,,,
5e2c7806bb1a6e000cf7f2e8,TCN,2024-06-26_12h52.22.448,LearnStrategy,2023.2.3,Win32,59.88023952,3,1,12,0.00390625,-0.005208333,1,0,0,1.213,rock_grid_rect_2,2,12,-1,-1,1.213,-0.1015625,-0.260416667,1,0,0,1.9735,Basalt_rect,2,1.974,1,11,0,11,0,1,,,,,,,,,,,,,
5e2c7806bb1a6e000cf7f2e8,TCN,2024-06-26_12h52.22.448,LearnStrategy,2023.2.3,Win32,59.88023952,3,1,13,0.053385417,-0.00390625,1,0,0,1.0498,rock_grid_rect_2,8,04,-1,-1,1.05,0.37890625,-0.380208333,1,0,0,2.1953,Pumice_rect,8,2.195,1,12,0,12,0,1,,,,,,,,,,,,,
5e2c7806bb1a6e000cf7f2e8,TCN,2024-06-26_12h52.22.448,LearnStrategy,2023.2.3,Win32,59.88023952,3,1,14,-0.010416667,0.002604167,1,0,0,1.0624,rock_grid_rect_2,6,10,-1,-1,1.062,0.087239583,-0.395833333,1,0,0,5.5732,Peridotite_rect,7,5.573,0,13,0,13,0,1,,,,,,,,,,,,,
5e2c7806bb1a6e000cf7f2e8,TCN,2024-06-26_12h52.22.448,LearnStrategy,2023.2.3,Win32,59.88023952,3,1,15,0,0.009114583,1,0,0,1.3394,rock_grid_rect_2,4,01,-1,-1,1.339,-0.37109375,-0.384114583,1,0,0,9.6488,Obsidian_rect,5,9.649,0,14,0,14,0,1,,,,,,,,,,,,,
5e2c7806bb1a6e000cf7f2e8,TCN,2024-06-26_12h52.22.448,LearnStrategy,2023.2.3,Win32,59.88023952,3,1,16,-0.06640625,-0.010416667,1,0,0,1.2147,rock_grid_rect_2,3,08,-1,-1,1.215,0.052083333,-0.384114583,1,0,0,5.6632,Peridotite_rect,7,5.663,0,15,0,15,0,1,,,,,,,,,,,,,
5e2c7806bb1a6e000cf7f2e8,TCN,2024-06-26_12h52.22.448,LearnStrategy,2023.2.3,Win32,59.88023952,3,2,1,,,,,,,,7,07,,,,,,,,,,,7,4.501,1,,,,,,0.1015625,-0.384114583,1,0,0,4.5008,Peridotite_rect,0,0,0,0,1,
5e2c7806bb1a6e000cf7f2e8,TCN,2024-06-26_12h52.22.448,LearnStrategy,2023.2.3,Win32,59.88023952,3,2,2,,,,,,,,7,16,,,,,,,,,,,5,5.122,0,,,,,,-0.38671875,-0.390625,1,0,0,5.1221,Obsidian_rect,1,0,1,0,1,
5e2c7806bb1a6e000cf7f2e8,TCN,2024-06-26_12h52.22.448,LearnStrategy,2023.2.3,Win32,59.88023952,3,2,3,,,,,,,,3,06,,,,,,,,,,,7,6.286,0,,,,,,0.1328125,-0.38671875,1,0,0,6.286,Peridotite_rect,2,0,2,0,1,
5e2c7806bb1a6e000cf7f2e8,TCN,2024-06-26_12h52.22.448,LearnStrategy,2023.2.3,Win32,59.88023952,3,2,4,,,,,,,,8,02,,,,,,,,,,,8,2.281,1,,,,,,0.3984375,-0.389322917,1,0,0,2.2812,Pumice_rect,3,0,3,0,1,
5e2c7806bb1a6e000cf7f2e8,TCN,2024-06-26_12h52.22.448,LearnStrategy,2023.2.3,Win32,59.88023952,3,2,5,,,,,,,,2,16,,,,,,,,,,,2,2.687,1,,,,,,-0.138020833,-0.24609375,1,0,0,2.6874,Basalt_rect,4,0,4,0,1,
5e2c7806bb1a6e000cf7f2e8,TCN,2024-06-26_12h52.22.448,LearnStrategy,2023.2.3,Win32,59.88023952,3,2,6,,,,,,,,5,08,,,,,,,,,,,5,2.193,1,,,,,,-0.346354167,-0.388020833,1,0,0,2.1928,Obsidian_rect,5,0,5,0,1,
5e2c7806bb1a6e000cf7f2e8,TCN,2024-06-26_12h52.22.448,LearnStrategy,2023.2.3,Win32,59.88023952,3,2,7,,,,,,,,1,11,,,,,,,,,,,1,3.421,1,,,,,,-0.360677083,-0.25,1,0,0,3.4211,Andesite_rect,6,0,6,0,1,
5e2c7806bb1a6e000cf7f2e8,TCN,2024-06-26_12h52.22.448,LearnStrategy,2023.2.3,Win32,59.88023952,3,2,8,,,,,,,,2,04,,,,,,,,,,,2,2.529,1,,,,,,-0.15234375,-0.260416667,1,0,0,2.5292,Basalt_rect,7,0,7,0,1,
5e2c7806bb1a6e000cf7f2e8,TCN,2024-06-26_12h52.22.448,LearnStrategy,2023.2.3,Win32,59.88023952,3,2,9,,,,,,,,3,13,,,,,,,,,,,7,4.097,0,,,,,,0.08984375,-0.39453125,1,0,0,4.0974,Peridotite_rect,8,0,8,0,1,
5e2c7806bb1a6e000cf7f2e8,TCN,2024-06-26_12h52.22.448,LearnStrategy,2023.2.3,Win32,59.88023952,3,2,10,,,,,,,,6,13,,,,,,,,,,,7,1.435,0,,,,,,0.08984375,-0.39453125,1,0,0,1.4349,Peridotite_rect,9,0,9,0,1,
5e2c7806bb1a6e000cf7f2e8,TCN,2024-06-26_12h52.22.448,LearnStrategy,2023.2.3,Win32,59.88023952,3,2,11,,,,,,,,4,16,,,,,,,,,,,5,3.464,0,,,,,,-0.369791667,-0.395833333,1,0,0,3.4643,Obsidian_rect,10,0,10,0,1,
5e2c7806bb1a6e000cf7f2e8,TCN,2024-06-26_12h52.22.448,LearnStrategy,2023.2.3,Win32,59.88023952,3,2,12,,,,,,,,5,02,,,,,,,,,,,2,2.496,0,,,,,,-0.147135417,-0.243489583,1,0,0,2.4957,Basalt_rect,11,0,11,0,1,
5e2c7806bb1a6e000cf7f2e8,TCN,2024-06-26_12h52.22.448,LearnStrategy,2023.2.3,Win32,59.88023952,3,2,13,,,,,,,,4,05,,,,,,,,,,,2,1.353,0,,,,,,-0.147135417,-0.247395833,1,0,0,1.3531,Basalt_rect,12,0,12,0,1,
5e2c7806bb1a6e000cf7f2e8,TCN,2024-06-26_12h52.22.448,LearnStrategy,2023.2.3,Win32,59.88023952,3,2,14,,,,,,,,1,16,,,,,,,,,,,7,2.107,0,,,,,,0.131510417,-0.38671875,1,0,0,2.1072,Peridotite_rect,13,0,13,0,1,
5e2c7806bb1a6e000cf7f2e8,TCN,2024-06-26_12h52.22.448,LearnStrategy,2023.2.3,Win32,59.88023952,3,2,15,,,,,,,,8,03,,,,,,,,,,,8,1.522,1,,,,,,0.440104167,-0.391927083,1,0,0,1.5222,Pumice_rect,14,0,14,0,1,
5e2c7806bb1a6e000cf7f2e8,TCN,2024-06-26_12h52.22.448,LearnStrategy,2023.2.3,Win32,59.88023952,3,2,16,,,,,,,,6,08,,,,,,,,,,,4,1.468,0,,,,,,0.40625,-0.234375,1,0,0,1.4677,Gabbro_rect,15,0,15,0,1,
5e2c7806bb1a6e000cf7f2e8,TCN,2024-06-26_12h52.22.448,LearnStrategy,2023.2.3,Win32,59.88023952,4,1,1,0.041666667,-0.00390625,1,0,0,1.4386,rock_grid_rect_2,6,06,-1,-1,1.439,0.10546875,-0.3828125,1,0,0,2.8767,Peridotite_rect,7,2.877,0,0,0,0,0,1,,,,,,,,,,,,,
5e2c7806bb1a6e000cf7f2e8,TCN,2024-06-26_12h52.22.448,LearnStrategy,2023.2.3,Win32,59.88023952,4,1,2,0.075520833,0.00390625,1,0,0,1.6409,rock_grid_rect_2,8,14,-1,-1,1.641,0.390625,-0.37890625,1,0,0,1.9173,Pumice_rect,8,1.917,1,1,0,1,0,1,,,,,,,,,,,,,
5e2c7806bb1a6e000cf7f2e8,TCN,2024-06-26_12h52.22.448,LearnStrategy,2023.2.3,Win32,59.88023952,4,1,3,-0.032552083,-0.0078125,1,0,0,1.3231,rock_grid_rect_2,6,12,-1,-1,1.323,0.397135417,-0.25,1,0,0,3.1547,Gabbro_rect,4,3.155,0,2,0,2,0,1,,,,,,,,,,,,,
5e2c7806bb1a6e000cf7f2e8,TCN,2024-06-26_12h52.22.448,LearnStrategy,2023.2.3,Win32,59.88023952,4,1,4,0.013020833,-0.00390625,1,0,0,1.3953,rock_grid_rect_2,5,09,-1,-1,1.395,-0.365885417,-0.399739583,1,0,0,1.8341,Obsidian_rect,5,1.834,1,3,0,3,0,1,,,,,,,,,,,,,
5e2c7806bb1a6e000cf7f2e8,TCN,2024-06-26_12h52.22.448,LearnStrategy,2023.2.3,Win32,59.88023952,4,1,5,0.040364583,0.001302083,1,0,0,1.3813,rock_grid_rect_2,7,08,-1,-1,1.381,0.098958333,-0.380208333,1,0,0,2.0167,Peridotite_rect,7,2.017,1,4,0,4,0,1,,,,,,,,,,,,,
5e2c7806bb1a6e000cf7f2e8,TCN,2024-06-26_12h52.22.448,LearnStrategy,2023.2.3,Win32,59.88023952,4,1,6,-0.009114583,0,1,0,0,0.9702,rock_grid_rect_2,7,06,-1,-1,0.97,-0.09765625,-0.381510417,1,0,0,2.4649,Pegmatite_rect,6,2.465,0,5,0,5,0,1,,,,,,,,,,,,,
5e2c7806bb1a6e000cf7f2e8,TCN,2024-06-26_12h52.22.448,LearnStrategy,2023.2.3,Win32,59.88023952,4,1,7,0.053385417,-0.001302083,1,0,0,0.9308,rock_grid_rect_2,1,04,-1,-1,0.931,0.356770833,-0.384114583,1,0,0,2.3869,Pumice_rect,8,2.387,0,6,0,6,0,1,,,,,,,,,,,,,
5e2c7806bb1a6e000cf7f2e8,TCN,2024-06-26_12h52.22.448,LearnStrategy,2023.2.3,Win32,59.88023952,4,1,8,0.0234375,-0.002604167,1,0,0,1.3868,rock_grid_rect_2,2,14,-1,-1,1.387,0.359375,-0.263020833,1,0,0,5.365,Gabbro_rect,4,5.365,0,7,0,7,0,1,,,,,,,,,,,,,
5e2c7806bb1a6e000cf7f2e8,TCN,2024-06-26_12h52.22.448,LearnStrategy,2023.2.3,Win32,59.88023952,4,1,9,0.016927083,-0.005208333,1,0,0,1.159,rock_grid_rect_2,4,09,-1,-1,1.159,-0.088541667,-0.25,1,0,0,1.7396,Basalt_rect,2,1.74,0,8,0,8,0,1,,,,,,,,,,,,,
5e2c7806bb1a6e000cf7f2e8,TCN,2024-06-26_12h52.22.448,LearnStrategy,2023.2.3,Win32,59.88023952,4,1,10,0.052083333,-0.014322917,1,0,0,1.2008,rock_grid_rect_2,2,09,-1,-1,1.201,-0.108072917,-0.251302083,1,0,0,1.1419,Basalt_rect,2,1.142,1,9,0,9,0,1,,,,,,,,,,,,,
5e2c7806bb1a6e000cf7f2e8,TCN,2024-06-26_12h52.22.448,LearnStrategy,2023.2.3,Win32,59.88023952,4,1,11,0.002604167,0,1,0,0,1.1367,rock_grid_rect_2,5,14,-1,-1,1.137,-0.114583333,-0.247395833,1,0,0,1.6929,Basalt_rect,2,1.693,0,10,0,10,0,1,,,,,,,,,,,,,
5e2c7806bb1a6e000cf7f2e8,TCN,2024-06-26_12h52.22.448,LearnStrategy,2023.2.3,Win32,59.88023952,4,1,12,-0.03125,-0.005208333,1,0,0,1.0331,rock_grid_rect_2,8,08,-1,-1,1.033,0.365885417,-0.384114583,1,0,0,1.8771,Pumice_rect,8,1.877,1,11,0,11,0,1,,,,,,,,,,,,,
5e2c7806bb1a6e000cf7f2e8,TCN,2024-06-26_12h52.22.448,LearnStrategy,2023.2.3,Win32,59.88023952,4,1,13,0.04296875,0.002604167,1,0,0,1.1246,rock_grid_rect_2,3,15,-1,-1,1.125,0.080729167,-0.385416667,1,0,0,1.7106,Peridotite_rect,7,1.711,0,12,0,12,0,1,,,,,,,,,,,,,
5e2c7806bb1a6e000cf7f2e8,TCN,2024-06-26_12h52.22.448,LearnStrategy,2023.2.3,Win32,59.88023952,4,1,14,0.013020833,0.002604167,1,0,0,0.9293,rock_grid_rect_2,1,14,-1,-1,0.929,0.10546875,-0.393229167,1,0,0,4.9801,Peridotite_rect,7,4.98,0,13,0,13,0,1,,,,,,,,,,,,,
5e2c7806bb1a6e000cf7f2e8,TCN,2024-06-26_12h52.22.448,LearnStrategy,2023.2.3,Win32,59.88023952,4,1,15,0.045572917,-0.016927083,1,0,0,1.3766,rock_grid_rect_2,4,01,-1,-1,1.377,0.141927083,-0.397135417,1,0,0,3.6623,Peridotite_rect,7,3.662,0,14,0,14,0,1,,,,,,,,,,,,,
5e2c7806bb1a6e000cf7f2e8,TCN,2024-06-26_12h52.22.448,LearnStrategy,2023.2.3,Win32,59.88023952,4,1,16,0.044270833,0.016927083,1,0,0,1.0299,rock_grid_rect_2,3,09,-1,-1,1.03,0.1328125,-0.389322917,1,0,0,1.4874,Peridotite_rect,7,1.487,0,15,0,15,0,1,,,,,,,,,,,,,
5e2c7806bb1a6e000cf7f2e8,TCN,2024-06-26_12h52.22.448,LearnStrategy,2023.2.3,Win32,59.88023952,4,2,1,,,,,,,,7,16,,,,,,,,,,,2,4.622,0,,,,,,-0.045572917,-0.25,1,0,0,4.6223,Basalt_rect,0,0,0,0,1,
5e2c7806bb1a6e000cf7f2e8,TCN,2024-06-26_12h52.22.448,LearnStrategy,2023.2.3,Win32,59.88023952,4,2,2,,,,,,,,5,08,,,,,,,,,,,5,3.012,1,,,,,,-0.358072917,-0.3828125,1,0,0,3.012,Obsidian_rect,1,0,1,0,1,
5e2c7806bb1a6e000cf7f2e8,TCN,2024-06-26_12h52.22.448,LearnStrategy,2023.2.3,Win32,59.88023952,4,2,3,,,,,,,,4,13,,,,,,,,,,,3,1.976,0,,,,,,0.14453125,-0.236979167,1,0,0,1.9762,Diorite_rect,2,0,2,0,1,
5e2c7806bb1a6e000cf7f2e8,TCN,2024-06-26_12h52.22.448,LearnStrategy,2023.2.3,Win32,59.88023952,4,2,4,,,,,,,,7,15,,,,,,,,,,,7,1.881,1,,,,,,0.1328125,-0.388020833,1,0,0,1.8806,Peridotite_rect,3,0,3,0,1,
5e2c7806bb1a6e000cf7f2e8,TCN,2024-06-26_12h52.22.448,LearnStrategy,2023.2.3,Win32,59.88023952,4,2,5,,,,,,,,4,05,,,,,,,,,,,7,3.686,0,,,,,,0.135416667,-0.381510417,1,0,0,3.6855,Peridotite_rect,4,0,4,0,1,
5e2c7806bb1a6e000cf7f2e8,TCN,2024-06-26_12h52.22.448,LearnStrategy,2023.2.3,Win32,59.88023952,4,2,6,,,,,,,,6,08,,,,,,,,,,,1,6.219,0,,,,,,-0.372395833,-0.25390625,1,0,0,6.2191,Andesite_rect,5,0,5,0,1,
5e2c7806bb1a6e000cf7f2e8,TCN,2024-06-26_12h52.22.448,LearnStrategy,2023.2.3,Win32,59.88023952,4,2,7,,,,,,,,1,16,,,,,,,,,,,4,2.517,0,,,,,,0.369791667,-0.243489583,1,0,0,2.5171,Gabbro_rect,6,0,6,0,1,
5e2c7806bb1a6e000cf7f2e8,TCN,2024-06-26_12h52.22.448,LearnStrategy,2023.2.3,Win32,59.88023952,4,2,8,,,,,,,,6,13,,,,,,,,,,,3,4.013,0,,,,,,0.130208333,-0.252604167,1,0,0,4.0132,Diorite_rect,7,0,7,0,1,
5e2c7806bb1a6e000cf7f2e8,TCN,2024-06-26_12h52.22.448,LearnStrategy,2023.2.3,Win32,59.88023952,4,2,9,,,,,,,,8,05,,,,,,,,,,,8,2.07,1,,,,,,0.415364583,-0.37890625,1,0,0,2.0702,Pumice_rect,8,0,8,0,1,
5e2c7806bb1a6e000cf7f2e8,TCN,2024-06-26_12h52.22.448,LearnStrategy,2023.2.3,Win32,59.88023952,4,2,10,,,,,,,,2,04,,,,,,,,,,,2,1.605,1,,,,,,-0.122395833,-0.244791667,1,0,0,1.6054,Basalt_rect,9,0,9,0,1,
5e2c7806bb1a6e000cf7f2e8,TCN,2024-06-26_12h52.22.448,LearnStrategy,2023.2.3,Win32,59.88023952,4,2,11,,,,,,,,1,09,,,,,,,,,,,5,5.67,0,,,,,,-0.35546875,-0.39453125,1,0,0,5.6699,Obsidian_rect,10,0,10,0,1,
5e2c7806bb1a6e000cf7f2e8,TCN,2024-06-26_12h52.22.448,LearnStrategy,2023.2.3,Win32,59.88023952,4,2,12,,,,,,,,2,10,,,,,,,,,,,2,4.255,1,,,,,,-0.130208333,-0.252604167,1,0,0,4.2548,Basalt_rect,11,0,11,0,1,
5e2c7806bb1a6e000cf7f2e8,TCN,2024-06-26_12h52.22.448,LearnStrategy,2023.2.3,Win32,59.88023952,4,2,13,,,,,,,,5,07,,,,,,,,,,,5,3.144,1,,,,,,-0.37109375,-0.384114583,1,0,0,3.144,Obsidian_rect,12,0,12,0,1,
5e2c7806bb1a6e000cf7f2e8,TCN,2024-06-26_12h52.22.448,LearnStrategy,2023.2.3,Win32,59.88023952,4,2,14,,,,,,,,8,10,,,,,,,,,,,8,3.529,1,,,,,,0.37109375,-0.389322917,1,0,0,3.5293,Pumice_rect,13,0,13,0,1,
5e2c7806bb1a6e000cf7f2e8,TCN,2024-06-26_12h52.22.448,LearnStrategy,2023.2.3,Win32,59.88023952,4,2,15,,,,,,,,3,13,,,,,,,,,,,8,2.247,0,,,,,,0.39453125,-0.384114583,1,0,0,2.2471,Pumice_rect,14,0,14,0,1,
5e2c7806bb1a6e000cf7f2e8,TCN,2024-06-26_12h52.22.448,LearnStrategy,2023.2.3,Win32,59.88023952,4,2,16,,,,,,,,3,16,,,,,,,,,,,6,4.447,0,,,,,,-0.09765625,-0.381510417,1,0,0,4.4466,Pegmatite_rect,15,0,15,0,1,
5e2c7806bb1a6e000cf7f2e8,TCN,2024-06-26_12h52.22.448,LearnStrategy,2023.2.3,Win32,59.88023952,5,1,1,0.033854167,0.005208333,1,0,0,1.1024,rock_grid_rect_2,1,07,-1,-1,1.102,0.09765625,-0.390625,1,0,0,3.2792,Peridotite_rect,7,3.279,0,0,0,0,0,1,,,,,,,,,,,,,
5e2c7806bb1a6e000cf7f2e8,TCN,2024-06-26_12h52.22.448,LearnStrategy,2023.2.3,Win32,59.88023952,5,1,2,-0.053385417,0.010416667,1,0,0,4.33,rock_grid_rect_2,6,10,-1,-1,4.33,-0.083333333,-0.252604167,1,0,0,2.2253,Basalt_rect,2,2.225,0,1,0,1,0,1,,,,,,,,,,,,,
5e2c7806bb1a6e000cf7f2e8,TCN,2024-06-26_12h52.22.448,LearnStrategy,2023.2.3,Win32,59.88023952,5,1,3,0.084635417,-0.016927083,1,0,0,1.3283,rock_grid_rect_2,2,06,-1,-1,1.328,-0.115885417,-0.243489583,1,0,0,1.261,Basalt_rect,2,1.261,1,2,0,2,0,1,,,,,,,,,,,,,
5e2c7806bb1a6e000cf7f2e8,TCN,2024-06-26_12h52.22.448,LearnStrategy,2023.2.3,Win32,59.88023952,5,1,4,0.015625,-0.0078125,1,0,0,1.0806,rock_grid_rect_2,6,05,-1,-1,1.081,0.204427083,-0.243489583,1,0,0,4.0257,Diorite_rect,3,4.026,0,3,0,3,0,1,,,,,,,,,,,,,
5e2c7806bb1a6e000cf7f2e8,TCN,2024-06-26_12h52.22.448,LearnStrategy,2023.2.3,Win32,59.88023952,5,1,5,0.055989583,0.001302083,1,0,0,1.2197,rock_grid_rect_2,7,13,-1,-1,1.22,0.098958333,-0.3828125,1,0,0,2.1708,Peridotite_rect,7,2.171,1,4,0,4,0,1,,,,,,,,,,,,,
5e2c7806bb1a6e000cf7f2e8,TCN,2024-06-26_12h52.22.448,LearnStrategy,2023.2.3,Win32,59.88023952,5,1,6,0.09765625,-0.014322917,1,0,0,1.4008,rock_grid_rect_2,5,04,-1,-1,1.401,-0.345052083,-0.388020833,1,0,0,1.9244,Obsidian_rect,5,1.924,1,5,0,5,0,1,,,,,,,,,,,,,
5e2c7806bb1a6e000cf7f2e8,TCN,2024-06-26_12h52.22.448,LearnStrategy,2023.2.3,Win32,59.88023952,5,1,7,0.084635417,0.010416667,1,0,0,1.7722,rock_grid_rect_2,3,07,-1,-1,1.772,0.131510417,-0.38671875,1,0,0,2.9579,Peridotite_rect,7,2.958,0,6,0,6,0,1,,,,,,,,,,,,,
5e2c7806bb1a6e000cf7f2e8,TCN,2024-06-26_12h52.22.448,LearnStrategy,2023.2.3,Win32,59.88023952,5,1,8,0.044270833,0.006510417,1,0,0,1.2716,rock_grid_rect_2,4,10,-1,-1,1.272,0.186197917,-0.244791667,1,0,0,6.1867,Diorite_rect,3,6.187,0,7,0,7,0,1,,,,,,,,,,,,,
5e2c7806bb1a6e000cf7f2e8,TCN,2024-06-26_12h52.22.448,LearnStrategy,2023.2.3,Win32,59.88023952,5,1,9,0.013020833,-0.018229167,1,0,0,1.1654,rock_grid_rect_2,1,02,-1,-1,1.165,0.369791667,-0.37890625,1,0,0,3.1518,Pumice_rect,8,3.152,0,8,0,8,0,1,,,,,,,,,,,,,
5e2c7806bb1a6e000cf7f2e8,TCN,2024-06-26_12h52.22.448,LearnStrategy,2023.2.3,Win32,59.88023952,5,1,10,0.040364583,-0.01953125,1,0,0,0.9667,rock_grid_rect_2,7,14,-1,-1,0.967,0.388020833,-0.389322917,1,0,0,1.8809,Pumice_rect,8,1.881,0,9,0,9,0,1,,,,,,,,,,,,,
5e2c7806bb1a6e000cf7f2e8,TCN,2024-06-26_12h52.22.448,LearnStrategy,2023.2.3,Win32,59.88023952,5,1,11,0.055989583,-0.014322917,1,0,0,1.1113,rock_grid_rect_2,5,10,-1,-1,1.111,-0.147135417,-0.259114583,1,0,0,2.8658,Basalt_rect,2,2.866,0,10,0,10,0,1,,,,,,,,,,,,,
5e2c7806bb1a6e000cf7f2e8,TCN,2024-06-26_12h52.22.448,LearnStrategy,2023.2.3,Win32,59.88023952,5,1,12,-0.009114583,-0.010416667,1,0,0,1.0956,rock_grid_rect_2,8,04,-1,-1,1.096,0.34765625,-0.384114583,1,0,0,2.2382,Pumice_rect,8,2.238,1,11,0,11,0,1,,,,,,,,,,,,,
5e2c7806bb1a6e000cf7f2e8,TCN,2024-06-26_12h52.22.448,LearnStrategy,2023.2.3,Win32,59.88023952,5,1,13,-0.026041667,-0.013020833,1,0,0,1.3881,rock_grid_rect_2,8,09,-1,-1,1.388,0.358072917,-0.26953125,1,0,0,8.2373,Gabbro_rect,4,8.237,0,12,0,12,0,1,,,,,,,,,,,,,
5e2c7806bb1a6e000cf7f2e8,TCN,2024-06-26_12h52.22.448,LearnStrategy,2023.2.3,Win32,59.88023952,5,1,14,0.013020833,0,1,0,0,1.1675,rock_grid_rect_2,4,12,-1,-1,1.168,-0.10546875,-0.247395833,1,0,0,2.1344,Basalt_rect,2,2.134,0,13,0,13,0,1,,,,,,,,,,,,,
5e2c7806bb1a6e000cf7f2e8,TCN,2024-06-26_12h52.22.448,LearnStrategy,2023.2.3,Win32,59.88023952,5,1,15,0.071614583,-0.013020833,1,0,0,1.2618,rock_grid_rect_2,2,05,-1,-1,1.262,-0.106770833,-0.233072917,1,0,0,1.4818,Basalt_rect,2,1.482,1,14,0,14,0,1,,,,,,,,,,,,,
5e2c7806bb1a6e000cf7f2e8,TCN,2024-06-26_12h52.22.448,LearnStrategy,2023.2.3,Win32,59.88023952,5,1,16,0.083333333,0.006510417,1,0,0,1.1524,rock_grid_rect_2,3,14,-1,-1,1.152,0.15625,-0.390625,1,0,0,3.8675,Peridotite_rect,7,3.868,0,15,0,15,0,1,,,,,,,,,,,,,
5e2c7806bb1a6e000cf7f2e8,TCN,2024-06-26_12h52.22.448,LearnStrategy,2023.2.3,Win32,59.88023952,5,2,1,,,,,,,,2,02,,,,,,,,,,,2,2.581,1,,,,,,-0.080729167,-0.234375,1,0,0,2.5814,Basalt_rect,0,0,0,0,1,
5e2c7806bb1a6e000cf7f2e8,TCN,2024-06-26_12h52.22.448,LearnStrategy,2023.2.3,Win32,59.88023952,5,2,2,,,,,,,,5,02,,,,,,,,,,,5,2.712,1,,,,,,-0.356770833,-0.397135417,1,0,0,2.7119,Obsidian_rect,1,0,1,0,1,
5e2c7806bb1a6e000cf7f2e8,TCN,2024-06-26_12h52.22.448,LearnStrategy,2023.2.3,Win32,59.88023952,5,2,3,,,,,,,,6,09,,,,,,,,,,,1,6.202,0,,,,,,-0.350260417,-0.243489583,1,0,0,6.2024,Andesite_rect,2,0,2,0,1,
5e2c7806bb1a6e000cf7f2e8,TCN,2024-06-26_12h52.22.448,LearnStrategy,2023.2.3,Win32,59.88023952,5,2,4,,,,,,,,8,03,,,,,,,,,,,8,1.864,1,,,,,,0.373697917,-0.390625,1,0,0,1.8635,Pumice_rect,3,0,3,0,1,
5e2c7806bb1a6e000cf7f2e8,TCN,2024-06-26_12h52.22.448,LearnStrategy,2023.2.3,Win32,59.88023952,5,2,5,,,,,,,,6,15,,,,,,,,,,,4,10.159,0,,,,,,0.434895833,-0.24609375,1,0,0,10.1592,Gabbro_rect,4,0,4,0,1,
5e2c7806bb1a6e000cf7f2e8,TCN,2024-06-26_12h52.22.448,LearnStrategy,2023.2.3,Win32,59.88023952,5,2,6,,,,,,,,5,12,,,,,,,,,,,5,2.775,1,,,,,,-0.334635417,-0.404947917,1,0,0,2.7747,Obsidian_rect,5,0,5,0,1,
5e2c7806bb1a6e000cf7f2e8,TCN,2024-06-26_12h52.22.448,LearnStrategy,2023.2.3,Win32,59.88023952,5,2,7,,,,,,,,3,06,,,,,,,,,,,7,2.622,0,,,,,,0.139322917,-0.395833333,1,0,0,2.622,Peridotite_rect,6,0,6,0,1,
5e2c7806bb1a6e000cf7f2e8,TCN,2024-06-26_12h52.22.448,LearnStrategy,2023.2.3,Win32,59.88023952,5,2,8,,,,,,,,1,05,,,,,,,,,,,1,2.922,1,,,,,,-0.364583333,-0.255208333,1,0,0,2.9218,Andesite_rect,7,0,7,0,1,
5e2c7806bb1a6e000cf7f2e8,TCN,2024-06-26_12h52.22.448,LearnStrategy,2023.2.3,Win32,59.88023952,5,2,9,,,,,,,,8,13,,,,,,,,,,,8,1.49,1,,,,,,0.346354167,-0.388020833,1,0,0,1.4895,Pumice_rect,8,0,8,0,1,
5e2c7806bb1a6e000cf7f2e8,TCN,2024-06-26_12h52.22.448,LearnStrategy,2023.2.3,Win32,59.88023952,5,2,10,,,,,,,,2,01,,,,,,,,,,,2,1.917,1,,,,,,-0.108072917,-0.252604167,1,0,0,1.9173,Basalt_rect,9,0,9,0,1,
5e2c7806bb1a6e000cf7f2e8,TCN,2024-06-26_12h52.22.448,LearnStrategy,2023.2.3,Win32,59.88023952,5,2,11,,,,,,,,4,03,,,,,,,,,,,3,4.742,0,,,,,,0.141927083,-0.264322917,1,0,0,4.742,Diorite_rect,10,0,10,0,1,
5e2c7806bb1a6e000cf7f2e8,TCN,2024-06-26_12h52.22.448,LearnStrategy,2023.2.3,Win32,59.88023952,5,2,12,,,,,,,,7,10,,,,,,,,,,,6,4.629,0,,,,,,-0.104166667,-0.393229167,1,0,0,4.6288,Pegmatite_rect,11,0,11,0,1,
5e2c7806bb1a6e000cf7f2e8,TCN,2024-06-26_12h52.22.448,LearnStrategy,2023.2.3,Win32,59.88023952,5,2,13,,,,,,,,1,11,,,,,,,,,,,4,3.825,0,,,,,,0.37109375,-0.259114583,1,0,0,3.8249,Gabbro_rect,12,0,12,0,1,
5e2c7806bb1a6e000cf7f2e8,TCN,2024-06-26_12h52.22.448,LearnStrategy,2023.2.3,Win32,59.88023952,5,2,14,,,,,,,,7,02,,,,,,,,,,,7,2.673,1,,,,,,0.12109375,-0.3984375,1,0,0,2.673,Peridotite_rect,13,0,13,0,1,
5e2c7806bb1a6e000cf7f2e8,TCN,2024-06-26_12h52.22.448,LearnStrategy,2023.2.3,Win32,59.88023952,5,2,15,,,,,,,,4,16,,,,,,,,,,,4,5.745,1,,,,,,0.361979167,-0.244791667,1,0,0,5.7454,Gabbro_rect,14,0,14,0,1,
5e2c7806bb1a6e000cf7f2e8,TCN,2024-06-26_12h52.22.448,LearnStrategy,2023.2.3,Win32,59.88023952,5,2,16,,,,,,,,3,10,,,,,,,,,,,7,5.078,0,,,,,,0.11328125,-0.3828125,1,0,0,5.0777,Peridotite_rect,15,0,15,0,1,
5e2c7806bb1a6e000cf7f2e8,TCN,2024-06-26_12h52.22.448,LearnStrategy,2023.2.3,Win32,59.88023952,6,1,1,0.0625,0.016927083,1,0,0,1.0797,rock_grid_rect_2,8,06,-1,-1,1.08,0.384114583,-0.388020833,1,0,0,3.7825,Pumice_rect,8,3.783,1,0,0,0,0,1,,,,,,,,,,,,,
5e2c7806bb1a6e000cf7f2e8,TCN,2024-06-26_12h52.22.448,LearnStrategy,2023.2.3,Win32,59.88023952,6,1,2,0.033854167,0.00390625,1,0,0,1.5549,rock_grid_rect_2,7,04,-1,-1,1.555,0.141927083,-0.3828125,1,0,0,2.0961,Peridotite_rect,7,2.096,1,1,0,1,0,1,,,,,,,,,,,,,
5e2c7806bb1a6e000cf7f2e8,TCN,2024-06-26_12h52.22.448,LearnStrategy,2023.2.3,Win32,59.88023952,6,1,3,0.002604167,-0.018229167,1,0,0,0.9892,rock_grid_rect_2,4,08,-1,-1,0.989,-0.11328125,-0.37890625,1,0,0,3.2395,Pegmatite_rect,6,3.239,0,2,0,2,0,1,,,,,,,,,,,,,
5e2c7806bb1a6e000cf7f2e8,TCN,2024-06-26_12h52.22.448,LearnStrategy,2023.2.3,Win32,59.88023952,6,1,4,0.022135417,-0.00390625,1,0,0,9.56,rock_grid_rect_2,2,11,-1,-1,9.56,0.170572917,-0.24609375,1,0,0,3.4818,Diorite_rect,3,3.482,0,3,0,3,0,1,,,,,,,,,,,,,
5e2c7806bb1a6e000cf7f2e8,TCN,2024-06-26_12h52.22.448,LearnStrategy,2023.2.3,Win32,59.88023952,6,1,5,0.029947917,-0.006510417,1,0,0,1.0305,rock_grid_rect_2,5,16,-1,-1,1.031,-0.3828125,-0.390625,1,0,0,1.8075,Obsidian_rect,5,1.807,1,4,0,4,0,1,,,,,,,,,,,,,
5e2c7806bb1a6e000cf7f2e8,TCN,2024-06-26_12h52.22.448,LearnStrategy,2023.2.3,Win32,59.88023952,6,1,6,0.01171875,0.002604167,1,0,0,1.0085,rock_grid_rect_2,2,12,-1,-1,1.008,-0.138020833,-0.260416667,1,0,0,1.7929,Basalt_rect,2,1.793,1,5,0,5,0,1,,,,,,,,,,,,,
5e2c7806bb1a6e000cf7f2e8,TCN,2024-06-26_12h52.22.448,LearnStrategy,2023.2.3,Win32,59.88023952,6,1,7,0.013020833,-0.00390625,1,0,0,1.0629,rock_grid_rect_2,6,16,-1,-1,1.063,0.38671875,-0.390625,1,0,0,2.4692,Pumice_rect,8,2.469,0,6,0,6,0,1,,,,,,,,,,,,,
5e2c7806bb1a6e000cf7f2e8,TCN,2024-06-26_12h52.22.448,LearnStrategy,2023.2.3,Win32,59.88023952,6,1,8,0.01171875,-0.006510417,1,0,0,1.0728,rock_grid_rect_2,4,15,-1,-1,1.073,-0.075520833,-0.389322917,1,0,0,2.3268,Pegmatite_rect,6,2.327,0,7,0,7,0,1,,,,,,,,,,,,,
5e2c7806bb1a6e000cf7f2e8,TCN,2024-06-26_12h52.22.448,LearnStrategy,2023.2.3,Win32,59.88023952,6,1,9,0.053385417,0.001302083,1,0,0,0.982,rock_grid_rect_2,1,03,-1,-1,0.982,-0.092447917,-0.240885417,1,0,0,2.0243,Basalt_rect,2,2.024,0,8,0,8,0,1,,,,,,,,,,,,,
5e2c7806bb1a6e000cf7f2e8,TCN,2024-06-26_12h52.22.448,LearnStrategy,2023.2.3,Win32,59.88023952,6,1,10,-0.018229167,-0.015625,1,0,0,1.2522,rock_grid_rect_2,6,07,-1,-1,1.252,0.134114583,-0.38671875,1,0,0,1.6764,Peridotite_rect,7,1.676,0,9,0,9,0,1,,,,,,,,,,,,,
5e2c7806bb1a6e000cf7f2e8,TCN,2024-06-26_12h52.22.448,LearnStrategy,2023.2.3,Win32,59.88023952,6,1,11,0.045572917,0.005208333,1,0,0,0.9072,rock_grid_rect_2,5,05,-1,-1,0.907,-0.100260417,-0.25,1,0,0,2.901,Basalt_rect,2,2.901,0,10,0,10,0,1,,,,,,,,,,,,,
5e2c7806bb1a6e000cf7f2e8,TCN,2024-06-26_12h52.22.448,LearnStrategy,2023.2.3,Win32,59.88023952,6,1,12,0.029947917,-0.01171875,1,0,0,1.0822,rock_grid_rect_2,1,06,-1,-1,1.082,0.36328125,-0.247395833,1,0,0,2.8312,Gabbro_rect,4,2.831,0,11,0,11,0,1,,,,,,,,,,,,,
5e2c7806bb1a6e000cf7f2e8,TCN,2024-06-26_12h52.22.448,LearnStrategy,2023.2.3,Win32,59.88023952,6,1,13,0.057291667,-0.014322917,1,0,0,1.0817,rock_grid_rect_2,7,05,-1,-1,1.082,-0.3828125,-0.236979167,1,0,0,3.3216,Andesite_rect,1,3.322,0,12,0,12,0,1,,,,,,,,,,,,,
5e2c7806bb1a6e000cf7f2e8,TCN,2024-06-26_12h52.22.448,LearnStrategy,2023.2.3,Win32,59.88023952,6,1,14,0.033854167,-0.01171875,1,0,0,0.8846,rock_grid_rect_2,3,08,-1,-1,0.885,0.10546875,-0.385416667,1,0,0,1.8637,Peridotite_rect,7,1.864,0,13,0,13,0,1,,,,,,,,,,,,,
5e2c7806bb1a6e000cf7f2e8,TCN,2024-06-26_12h52.22.448,LearnStrategy,2023.2.3,Win32,59.88023952,6,1,15,0.075520833,0.005208333,1,0,0,1.187,rock_grid_rect_2,8,15,-1,-1,1.187,0.369791667,-0.3828125,1,0,0,1.4909,Pumice_rect,8,1.491,1,14,0,14,0,1,,,,,,,,,,,,,
5e2c7806bb1a6e000cf7f2e8,TCN,2024-06-26_12h52.22.448,LearnStrategy,2023.2.3,Win32,59.88023952,6,1,16,0.006510417,0,1,0,0,10.8698,rock_grid_rect_2,3,12,-1,-1,10.87,-0.078125,-0.380208333,1,0,0,4.1317,Pegmatite_rect,6,4.132,0,15,0,15,0,1,,,,,,,,,,,,,
5e2c7806bb1a6e000cf7f2e8,TCN,2024-06-26_12h52.22.448,LearnStrategy,2023.2.3,Win32,59.88023952,6,2,1,,,,,,,,7,12,,,,,,,,,,,3,7.266,0,,,,,,0.1953125,-0.252604167,1,0,0,7.2658,Diorite_rect,0,0,0,0,1,
5e2c7806bb1a6e000cf7f2e8,TCN,2024-06-26_12h52.22.448,LearnStrategy,2023.2.3,Win32,59.88023952,6,2,2,,,,,,,,3,02,,,,,,,,,,,5,2.812,0,,,,,,-0.390625,-0.390625,1,0,0,2.8122,Obsidian_rect,1,0,1,0,1,
5e2c7806bb1a6e000cf7f2e8,TCN,2024-06-26_12h52.22.448,LearnStrategy,2023.2.3,Win32,59.88023952,6,2,3,,,,,,,,1,10,,,,,,,,,,,1,1.856,1,,,,,,-0.3515625,-0.252604167,1,0,0,1.8564,Andesite_rect,2,0,2,0,1,
5e2c7806bb1a6e000cf7f2e8,TCN,2024-06-26_12h52.22.448,LearnStrategy,2023.2.3,Win32,59.88023952,6,2,4,,,,,,,,1,01,,,,,,,,,,,4,5.37,0,,,,,,0.330729167,-0.247395833,1,0,0,5.3702,Gabbro_rect,3,0,3,0,1,
5e2c7806bb1a6e000cf7f2e8,TCN,2024-06-26_12h52.22.448,LearnStrategy,2023.2.3,Win32,59.88023952,6,2,5,,,,,,,,6,11,,,,,,,,,,,7,2.854,0,,,,,,0.158854167,-0.390625,1,0,0,2.8542,Peridotite_rect,4,0,4,0,1,
5e2c7806bb1a6e000cf7f2e8,TCN,2024-06-26_12h52.22.448,LearnStrategy,2023.2.3,Win32,59.88023952,6,2,6,,,,,,,,4,11,,,,,,,,,,,2,1.691,0,,,,,,-0.08984375,-0.239583333,1,0,0,1.6914,Basalt_rect,5,0,5,0,1,
5e2c7806bb1a6e000cf7f2e8,TCN,2024-06-26_12h52.22.448,LearnStrategy,2023.2.3,Win32,59.88023952,6,2,7,,,,,,,,2,08,,,,,,,,,,,2,1.441,1,,,,,,-0.08984375,-0.239583333,1,0,0,1.4407,Basalt_rect,6,0,6,0,1,
5e2c7806bb1a6e000cf7f2e8,TCN,2024-06-26_12h52.22.448,LearnStrategy,2023.2.3,Win32,59.88023952,6,2,8,,,,,,,,8,16,,,,,,,,,,,8,2.126,1,,,,,,0.38671875,-0.397135417,1,0,0,2.1256,Pumice_rect,7,0,7,0,1,
5e2c7806bb1a6e000cf7f2e8,TCN,2024-06-26_12h52.22.448,LearnStrategy,2023.2.3,Win32,59.88023952,6,2,9,,,,,,,,6,03,,,,,,,,,,,7,4.936,0,,,,,,0.177083333,-0.385416667,1,0,0,4.9356,Peridotite_rect,8,0,8,0,1,
5e2c7806bb1a6e000cf7f2e8,TCN,2024-06-26_12h52.22.448,LearnStrategy,2023.2.3,Win32,59.88023952,6,2,10,,,,,,,,7,07,,,,,,,,,,,1,3.314,0,,,,,,-0.341145833,-0.25,1,0,0,3.3139,Andesite_rect,9,0,9,0,1,
5e2c7806bb1a6e000cf7f2e8,TCN,2024-06-26_12h52.22.448,LearnStrategy,2023.2.3,Win32,59.88023952,6,2,11,,,,,,,,5,06,,,,,,,,,,,5,1.969,1,,,,,,-0.377604167,-0.420572917,1,0,0,1.9692,Obsidian_rect,10,0,10,0,1,
5e2c7806bb1a6e000cf7f2e8,TCN,2024-06-26_12h52.22.448,LearnStrategy,2023.2.3,Win32,59.88023952,6,2,12,,,,,,,,8,02,,,,,,,,,,,8,1.947,1,,,,,,0.38671875,-0.389322917,1,0,0,1.9467,Pumice_rect,11,0,11,0,1,
5e2c7806bb1a6e000cf7f2e8,TCN,2024-06-26_12h52.22.448,LearnStrategy,2023.2.3,Win32,59.88023952,6,2,13,,,,,,,,3,11,,,,,,,,,,,7,2.65,0,,,,,,0.076822917,-0.37890625,1,0,0,2.6503,Peridotite_rect,12,0,12,0,1,
5e2c7806bb1a6e000cf7f2e8,TCN,2024-06-26_12h52.22.448,LearnStrategy,2023.2.3,Win32,59.88023952,6,2,14,,,,,,,,5,11,,,,,,,,,,,5,3.041,1,,,,,,-0.348958333,-0.411458333,1,0,0,3.0414,Obsidian_rect,13,0,13,0,1,
5e2c7806bb1a6e000cf7f2e8,TCN,2024-06-26_12h52.22.448,LearnStrategy,2023.2.3,Win32,59.88023952,6,2,15,,,,,,,,4,14,,,,,,,,,,,2,1.218,0,,,,,,-0.135416667,-0.255208333,1,0,0,1.2181,Basalt_rect,14,0,14,0,1,
5e2c7806bb1a6e000cf7f2e8,TCN,2024-06-26_12h52.22.448,LearnStrategy,2023.2.3,Win32,59.88023952,6,2,16,,,,,,,,2,16,,,,,,,,,,,2,1.439,1,,,,,,-0.135416667,-0.255208333,1,0,0,1.4386,Basalt_rect,15,0,15,0,1,
5e2c7806bb1a6e000cf7f2e8,TCN,2024-06-26_12h52.22.448,LearnStrategy,2023.2.3,Win32,59.88023952,7,1,1,0.029947917,-0.013020833,1,0,0,1.2527,rock_grid_rect_2,6,12,-1,-1,1.253,-0.119791667,-0.390625,1,0,0,5.3559,Pegmatite_rect,6,5.356,1,0,0,0,0,1,,,,,,,,,,,,,
5e2c7806bb1a6e000cf7f2e8,TCN,2024-06-26_12h52.22.448,LearnStrategy,2023.2.3,Win32,59.88023952,7,1,2,0.041666667,-0.00390625,1,0,0,1.576,rock_grid_rect_2,4,08,-1,-1,1.576,0.098958333,-0.38671875,1,0,0,2.2764,Peridotite_rect,7,2.276,0,1,0,1,0,1,,,,,,,,,,,,,
5e2c7806bb1a6e000cf7f2e8,TCN,2024-06-26_12h52.22.448,LearnStrategy,2023.2.3,Win32,59.88023952,7,1,3,0.102864583,-0.01171875,1,0,0,1.345,rock_grid_rect_2,2,11,-1,-1,1.345,0.092447917,-0.263020833,1,0,0,1.5446,Diorite_rect,3,1.545,0,2,0,2,0,1,,,,,,,,,,,,,
5e2c7806bb1a6e000cf7f2e8,TCN,2024-06-26_12h52.22.448,LearnStrategy,2023.2.3,Win32,59.88023952,7,1,4,0.052083333,-0.00390625,1,0,0,0.9732,rock_grid_rect_2,5,16,-1,-1,0.973,-0.348958333,-0.40234375,1,0,0,1.4978,Obsidian_rect,5,1.498,1,3,0,3,0,1,,,,,,,,,,,,,
5e2c7806bb1a6e000cf7f2e8,TCN,2024-06-26_12h52.22.448,LearnStrategy,2023.2.3,Win32,59.88023952,7,1,5,0.041666667,-0.0078125,1,0,0,1.0501,rock_grid_rect_2,8,06,-1,-1,1.05,0.360677083,-0.393229167,1,0,0,2.2572,Pumice_rect,8,2.257,1,4,0,4,0,1,,,,,,,,,,,,,
5e2c7806bb1a6e000cf7f2e8,TCN,2024-06-26_12h52.22.448,LearnStrategy,2023.2.3,Win32,59.88023952,7,1,6,-0.078125,-0.005208333,1,0,0,0.9442,rock_grid_rect_2,3,12,-1,-1,0.944,0.095052083,-0.389322917,1,0,0,1.8728,Peridotite_rect,7,1.873,0,5,0,5,0,1,,,,,,,,,,,,,
5e2c7806bb1a6e000cf7f2e8,TCN,2024-06-26_12h52.22.448,LearnStrategy,2023.2.3,Win32,59.88023952,7,1,7,0.05078125,0.005208333,1,0,0,3.1227,rock_grid_rect_2,5,04,-1,-1,3.123,-0.358072917,-0.385416667,1,0,0,2.781,Obsidian_rect,5,2.781,1,6,0,6,0,1,,,,,,,,,,,,,
5e2c7806bb1a6e000cf7f2e8,TCN,2024-06-26_12h52.22.448,LearnStrategy,2023.2.3,Win32,59.88023952,7,1,8,0.024739583,-0.016927083,1,0,0,1.1033,rock_grid_rect_2,7,05,-1,-1,1.103,0.15625,-0.388020833,1,0,0,2.4248,Peridotite_rect,7,2.425,1,7,0,7,0,1,,,,,,,,,,,,,
5e2c7806bb1a6e000cf7f2e8,TCN,2024-06-26_12h52.22.448,LearnStrategy,2023.2.3,Win32,59.88023952,7,1,9,0.02734375,-0.01171875,1,0,0,1.1974,rock_grid_rect_2,8,14,-1,-1,1.197,0.395833333,-0.39453125,1,0,0,1.6934,Pumice_rect,8,1.693,1,8,0,8,0,1,,,,,,,,,,,,,
5e2c7806bb1a6e000cf7f2e8,TCN,2024-06-26_12h52.22.448,LearnStrategy,2023.2.3,Win32,59.88023952,7,1,10,0.009114583,0.002604167,1,0,0,1.1699,rock_grid_rect_2,3,09,-1,-1,1.17,-0.171875,-0.389322917,1,0,0,5.7758,Pegmatite_rect,6,5.776,0,9,0,9,0,1,,,,,,,,,,,,,
5e2c7806bb1a6e000cf7f2e8,TCN,2024-06-26_12h52.22.448,LearnStrategy,2023.2.3,Win32,59.88023952,7,1,11,0.014322917,0.01171875,1,0,0,1.3028,rock_grid_rect_2,7,14,-1,-1,1.303,0.178385417,-0.388020833,1,0,0,2.018,Peridotite_rect,7,2.018,1,10,0,10,0,1,,,,,,,,,,,,,
5e2c7806bb1a6e000cf7f2e8,TCN,2024-06-26_12h52.22.448,LearnStrategy,2023.2.3,Win32,59.88023952,7,1,12,0.037760417,0.010416667,1,0,0,1.0454,rock_grid_rect_2,1,14,-1,-1,1.045,-0.083333333,-0.259114583,1,0,0,3.5157,Basalt_rect,2,3.516,0,11,0,11,0,1,,,,,,,,,,,,,
5e2c7806bb1a6e000cf7f2e8,TCN,2024-06-26_12h52.22.448,LearnStrategy,2023.2.3,Win32,59.88023952,7,1,13,0,-0.01953125,1,0,0,0.9615,rock_grid_rect_2,4,12,-1,-1,0.961,-0.102864583,-0.239583333,1,0,0,1.2319,Basalt_rect,2,1.232,0,12,0,12,0,1,,,,,,,,,,,,,
5e2c7806bb1a6e000cf7f2e8,TCN,2024-06-26_12h52.22.448,LearnStrategy,2023.2.3,Win32,59.88023952,7,1,14,-0.006510417,0.00390625,1,0,0,0.8531,rock_grid_rect_2,6,05,-1,-1,0.853,-0.337239583,-0.3984375,1,0,0,2.3542,Obsidian_rect,5,2.354,0,13,0,13,0,1,,,,,,,,,,,,,
5e2c7806bb1a6e000cf7f2e8,TCN,2024-06-26_12h52.22.448,LearnStrategy,2023.2.3,Win32,59.88023952,7,1,15,-0.010416667,0.005208333,1,0,0,0.735,rock_grid_rect_2,2,06,-1,-1,0.735,-0.098958333,-0.25390625,1,0,0,1.1806,Basalt_rect,2,1.181,1,14,0,14,0,1,,,,,,,,,,,,,
5e2c7806bb1a6e000cf7f2e8,TCN,2024-06-26_12h52.22.448,LearnStrategy,2023.2.3,Win32,59.88023952,7,1,16,0.009114583,-0.009114583,1,0,0,1.064,rock_grid_rect_2,1,02,-1,-1,1.064,0.338541667,-0.381510417,1,0,0,1.9608,Pumice_rect,8,1.961,0,15,0,15,0,1,,,,,,,,,,,,,
5e2c7806bb1a6e000cf7f2e8,TCN,2024-06-26_12h52.22.448,LearnStrategy,2023.2.3,Win32,59.88023952,7,2,1,,,,,,,,8,16,,,,,,,,,,,8,1.674,1,,,,,,0.352864583,-0.381510417,1,0,0,1.6743,Pumice_rect,0,0,0,0,1,
5e2c7806bb1a6e000cf7f2e8,TCN,2024-06-26_12h52.22.448,LearnStrategy,2023.2.3,Win32,59.88023952,7,2,2,,,,,,,,7,16,,,,,,,,,,,4,4.409,0,,,,,,0.326822917,-0.2578125,1,0,0,4.4087,Gabbro_rect,1,0,1,0,1,
5e2c7806bb1a6e000cf7f2e8,TCN,2024-06-26_12h52.22.448,LearnStrategy,2023.2.3,Win32,59.88023952,7,2,3,,,,,,,,2,04,,,,,,,,,,,2,3.515,1,,,,,,-0.147135417,-0.25,1,0,0,3.5152,Basalt_rect,2,0,2,0,1,
5e2c7806bb1a6e000cf7f2e8,TCN,2024-06-26_12h52.22.448,LearnStrategy,2023.2.3,Win32,59.88023952,7,2,4,,,,,,,,4,14,,,,,,,,,,,2,2.882,0,,,,,,-0.08984375,-0.2421875,1,0,0,2.8823,Basalt_rect,3,0,3,0,1,
5e2c7806bb1a6e000cf7f2e8,TCN,2024-06-26_12h52.22.448,LearnStrategy,2023.2.3,Win32,59.88023952,7,2,5,,,,,,,,3,02,,,,,,,,,,,5,2.31,0,,,,,,-0.35546875,-0.395833333,1,0,0,2.3095,Obsidian_rect,4,0,4,0,1,
5e2c7806bb1a6e000cf7f2e8,TCN,2024-06-26_12h52.22.448,LearnStrategy,2023.2.3,Win32,59.88023952,7,2,6,,,,,,,,1,01,,,,,,,,,,,7,1.851,0,,,,,,0.07421875,-0.388020833,1,0,0,1.8512,Peridotite_rect,5,0,5,0,1,
5e2c7806bb1a6e000cf7f2e8,TCN,2024-06-26_12h52.22.448,LearnStrategy,2023.2.3,Win32,59.88023952,7,2,7,,,,,,,,2,10,,,,,,,,,,,4,3.206,0,,,,,,0.36328125,-0.234375,1,0,0,3.2061,Gabbro_rect,6,0,6,0,1,
5e2c7806bb1a6e000cf7f2e8,TCN,2024-06-26_12h52.22.448,LearnStrategy,2023.2.3,Win32,59.88023952,7,2,8,,,,,,,,1,11,,,,,,,,,,,1,1.918,1,,,,,,-0.354166667,-0.256510417,1,0,0,1.9185,Andesite_rect,7,0,7,0,1,
5e2c7806bb1a6e000cf7f2e8,TCN,2024-06-26_12h52.22.448,LearnStrategy,2023.2.3,Win32,59.88023952,7,2,9,,,,,,,,6,08,,,,,,,,,,,6,2.614,1,,,,,,-0.162760417,-0.3828125,1,0,0,2.614,Pegmatite_rect,8,0,8,0,1,
5e2c7806bb1a6e000cf7f2e8,TCN,2024-06-26_12h52.22.448,LearnStrategy,2023.2.3,Win32,59.88023952,7,2,10,,,,,,,,8,13,,,,,,,,,,,8,1.672,1,,,,,,0.390625,-0.3828125,1,0,0,1.6718,Pumice_rect,9,0,9,0,1,
5e2c7806bb1a6e000cf7f2e8,TCN,2024-06-26_12h52.22.448,LearnStrategy,2023.2.3,Win32,59.88023952,7,2,11,,,,,,,,5,07,,,,,,,,,,,5,1.546,1,,,,,,-0.358072917,-0.38671875,1,0,0,1.5464,Obsidian_rect,10,0,10,0,1,
5e2c7806bb1a6e000cf7f2e8,TCN,2024-06-26_12h52.22.448,LearnStrategy,2023.2.3,Win32,59.88023952,7,2,12,,,,,,,,7,12,,,,,,,,,,,3,3.469,0,,,,,,0.115885417,-0.247395833,1,0,0,3.4687,Diorite_rect,11,0,11,0,1,
5e2c7806bb1a6e000cf7f2e8,TCN,2024-06-26_12h52.22.448,LearnStrategy,2023.2.3,Win32,59.88023952,7,2,13,,,,,,,,3,13,,,,,,,,,,,7,1.97,0,,,,,,0.10546875,-0.393229167,1,0,0,1.9702,Peridotite_rect,12,0,12,0,1,
5e2c7806bb1a6e000cf7f2e8,TCN,2024-06-26_12h52.22.448,LearnStrategy,2023.2.3,Win32,59.88023952,7,2,14,,,,,,,,6,11,,,,,,,,,,,6,3.088,1,,,,,,-0.110677083,-0.38671875,1,0,0,3.0879,Pegmatite_rect,13,0,13,0,1,
5e2c7806bb1a6e000cf7f2e8,TCN,2024-06-26_12h52.22.448,LearnStrategy,2023.2.3,Win32,59.88023952,7,2,15,,,,,,,,4,05,,,,,,,,,,,2,2.932,0,,,,,,-0.076822917,-0.264322917,1,0,0,2.9324,Basalt_rect,14,0,14,0,1,
5e2c7806bb1a6e000cf7f2e8,TCN,2024-06-26_12h52.22.448,LearnStrategy,2023.2.3,Win32,59.88023952,7,2,16,,,,,,,,5,06,,,,,,,,,,,5,1.467,1,,,,,,-0.348958333,-0.401041667,1,0,0,1.467,Obsidian_rect,15,0,15,0,1,
5e2c7806bb1a6e000cf7f2e8,TCN,2024-06-26_12h52.22.448,LearnStrategy,2023.2.3,Win32,59.88023952,8,1,1,0.036458333,0.013020833,1,0,0,1.6549,rock_grid_rect_2,7,13,-1,-1,1.655,0.092447917,-0.3828125,1,0,0,2.4207,Peridotite_rect,7,2.421,1,0,0,0,0,1,,,,,,,,,,,,,
5e2c7806bb1a6e000cf7f2e8,TCN,2024-06-26_12h52.22.448,LearnStrategy,2023.2.3,Win32,59.88023952,8,1,2,0.088541667,-0.010416667,1,0,0,1.1839,rock_grid_rect_2,3,08,-1,-1,1.184,0.0859375,-0.255208333,1,0,0,3.0355,Diorite_rect,3,3.036,1,1,0,1,0,1,,,,,,,,,,,,,
5e2c7806bb1a6e000cf7f2e8,TCN,2024-06-26_12h52.22.448,LearnStrategy,2023.2.3,Win32,59.88023952,8,1,3,0.05078125,-0.01171875,1,0,0,1.3514,rock_grid_rect_2,3,14,-1,-1,1.351,-0.09765625,-0.388020833,1,0,0,1.9418,Pegmatite_rect,6,1.942,0,2,0,2,0,1,,,,,,,,,,,,,
5e2c7806bb1a6e000cf7f2e8,TCN,2024-06-26_12h52.22.448,LearnStrategy,2023.2.3,Win32,59.88023952,8,1,4,0.06640625,0,1,0,0,0.9344,rock_grid_rect_2,2,12,-1,-1,0.934,-0.092447917,-0.256510417,1,0,0,1.8567,Basalt_rect,2,1.857,1,3,0,3,0,1,,,,,,,,,,,,,
5e2c7806bb1a6e000cf7f2e8,TCN,2024-06-26_12h52.22.448,LearnStrategy,2023.2.3,Win32,59.88023952,8,1,5,-0.002604167,-0.010416667,1,0,0,0.9646,rock_grid_rect_2,5,05,-1,-1,0.965,-0.376302083,-0.39453125,1,0,0,2.1127,Obsidian_rect,5,2.113,1,4,0,4,0,1,,,,,,,,,,,,,
5e2c7806bb1a6e000cf7f2e8,TCN,2024-06-26_12h52.22.448,LearnStrategy,2023.2.3,Win32,59.88023952,8,1,6,0.022135417,-0.014322917,1,0,0,1.4032,rock_grid_rect_2,6,16,-1,-1,1.403,0.37109375,-0.397135417,1,0,0,2.9053,Pumice_rect,8,2.905,0,5,0,5,0,1,,,,,,,,,,,,,
5e2c7806bb1a6e000cf7f2e8,TCN,2024-06-26_12h52.22.448,LearnStrategy,2023.2.3,Win32,59.88023952,8,1,7,-0.001302083,-0.005208333,1,0,0,0.8627,rock_grid_rect_2,5,14,-1,-1,0.863,-0.1171875,-0.23828125,1,0,0,1.8314,Basalt_rect,2,1.831,0,6,0,6,0,1,,,,,,,,,,,,,
5e2c7806bb1a6e000cf7f2e8,TCN,2024-06-26_12h52.22.448,LearnStrategy,2023.2.3,Win32,59.88023952,8,1,8,0.005208333,0.001302083,1,0,0,0.9461,rock_grid_rect_2,6,06,-1,-1,0.946,0.135416667,-0.391927083,1,0,0,2.048,Peridotite_rect,7,2.048,0,7,0,7,0,1,,,,,,,,,,,,,
5e2c7806bb1a6e000cf7f2e8,TCN,2024-06-26_12h52.22.448,LearnStrategy,2023.2.3,Win32,59.88023952,8,1,9,0.005208333,0.001302083,1,0,0,0.9686,rock_grid_rect_2,1,04,-1,-1,0.969,0.15625,-0.39453125,1,0,0,2.7334,Peridotite_rect,7,2.733,0,8,0,8,0,1,,,,,,,,,,,,,
5e2c7806bb1a6e000cf7f2e8,TCN,2024-06-26_12h52.22.448,LearnStrategy,2023.2.3,Win32,59.88023952,8,1,10,0.024739583,-0.018229167,1,0,0,0.9753,rock_grid_rect_2,4,10,-1,-1,0.975,-0.166666667,-0.395833333,1,0,0,2.5178,Pegmatite_rect,6,2.518,0,9,0,9,0,1,,,,,,,,,,,,,
5e2c7806bb1a6e000cf7f2e8,TCN,2024-06-26_12h52.22.448,LearnStrategy,2023.2.3,Win32,59.88023952,8,1,11,0.048177083,-0.009114583,1,0,0,0.9556,rock_grid_rect_2,7,04,-1,-1,0.956,0.140625,-0.393229167,1,0,0,1.3406,Peridotite_rect,7,1.341,1,10,0,10,0,1,,,,,,,,,,,,,
5e2c7806bb1a6e000cf7f2e8,TCN,2024-06-26_12h52.22.448,LearnStrategy,2023.2.3,Win32,59.88023952,8,1,12,0.048177083,-0.005208333,1,0,0,1.0506,rock_grid_rect_2,8,04,-1,-1,1.051,0.364583333,-0.385416667,1,0,0,1.7858,Pumice_rect,8,1.786,1,11,0,11,0,1,,,,,,,,,,,,,
5e2c7806bb1a6e000cf7f2e8,TCN,2024-06-26_12h52.22.448,LearnStrategy,2023.2.3,Win32,59.88023952,8,1,13,0.01171875,-0.010416667,1,0,0,1.003,rock_grid_rect_2,8,15,-1,-1,1.003,0.317708333,-0.393229167,1,0,0,1.5682,Pumice_rect,8,1.568,1,12,0,12,0,1,,,,,,,,,,,,,
5e2c7806bb1a6e000cf7f2e8,TCN,2024-06-26_12h52.22.448,LearnStrategy,2023.2.3,Win32,59.88023952,8,1,14,0.013020833,-0.009114583,1,0,0,1.365,rock_grid_rect_2,2,09,-1,-1,1.365,-0.1171875,-0.2421875,1,0,0,2.5705,Basalt_rect,2,2.571,1,13,0,13,0,1,,,,,,,,,,,,,
5e2c7806bb1a6e000cf7f2e8,TCN,2024-06-26_12h52.22.448,LearnStrategy,2023.2.3,Win32,59.88023952,8,1,15,0.052083333,-0.018229167,1,0,0,1.0195,rock_grid_rect_2,4,01,-1,-1,1.019,-0.341145833,-0.244791667,1,0,0,3.4778,Andesite_rect,1,3.478,0,14,0,14,0,1,,,,,,,,,,,,,
5e2c7806bb1a6e000cf7f2e8,TCN,2024-06-26_12h52.22.448,LearnStrategy,2023.2.3,Win32,59.88023952,8,1,16,0.015625,0.001302083,1,0,0,0.8799,rock_grid_rect_2,1,03,-1,-1,0.88,-0.326822917,-0.2421875,1,0,0,3.947,Andesite_rect,1,3.947,1,15,0,15,0,1,,,,,,,,,,,,,
5e2c7806bb1a6e000cf7f2e8,TCN,2024-06-26_12h52.22.448,LearnStrategy,2023.2.3,Win32,59.88023952,8,2,1,,,,,,,,3,16,,,,,,,,,,,2,6.231,0,,,,,,-0.076822917,-0.26171875,1,0,0,6.2307,Basalt_rect,0,0,0,0,1,
5e2c7806bb1a6e000cf7f2e8,TCN,2024-06-26_12h52.22.448,LearnStrategy,2023.2.3,Win32,59.88023952,8,2,2,,,,,,,,2,02,,,,,,,,,,,2,4.923,1,,,,,,-0.108072917,-0.25,1,0,0,4.9233,Basalt_rect,1,0,1,0,1,
5e2c7806bb1a6e000cf7f2e8,TCN,2024-06-26_12h52.22.448,LearnStrategy,2023.2.3,Win32,59.88023952,8,2,3,,,,,,,,6,03,,,,,,,,,,,7,2.954,0,,,,,,0.100260417,-0.380208333,1,0,0,2.9543,Peridotite_rect,2,0,2,0,1,
5e2c7806bb1a6e000cf7f2e8,TCN,2024-06-26_12h52.22.448,LearnStrategy,2023.2.3,Win32,59.88023952,8,2,4,,,,,,,,1,09,,,,,,,,,,,6,2.572,0,,,,,,-0.135416667,-0.390625,1,0,0,2.5718,Pegmatite_rect,3,0,3,0,1,
5e2c7806bb1a6e000cf7f2e8,TCN,2024-06-26_12h52.22.448,LearnStrategy,2023.2.3,Win32,59.88023952,8,2,5,,,,,,,,7,10,,,,,,,,,,,3,1.303,0,,,,,,0.135416667,-0.23828125,1,0,0,1.3028,Diorite_rect,4,0,4,0,1,
5e2c7806bb1a6e000cf7f2e8,TCN,2024-06-26_12h52.22.448,LearnStrategy,2023.2.3,Win32,59.88023952,8,2,6,,,,,,,,4,16,,,,,,,,,,,2,5.067,0,,,,,,-0.139322917,-0.26171875,1,0,0,5.0669,Basalt_rect,5,0,5,0,1,
5e2c7806bb1a6e000cf7f2e8,TCN,2024-06-26_12h52.22.448,LearnStrategy,2023.2.3,Win32,59.88023952,8,2,7,,,,,,,,1,16,,,,,,,,,,,7,4.967,0,,,,,,0.123697917,-0.390625,1,0,0,4.9675,Peridotite_rect,6,0,6,0,1,
5e2c7806bb1a6e000cf7f2e8,TCN,2024-06-26_12h52.22.448,LearnStrategy,2023.2.3,Win32,59.88023952,8,2,8,,,,,,,,6,15,,,,,,,,,,,6,2.463,1,,,,,,-0.174479167,-0.38671875,1,0,0,2.4633,Pegmatite_rect,7,0,7,0,1,
5e2c7806bb1a6e000cf7f2e8,TCN,2024-06-26_12h52.22.448,LearnStrategy,2023.2.3,Win32,59.88023952,8,2,9,,,,,,,,7,02,,,,,,,,,,,7,1.61,1,,,,,,0.194010417,-0.397135417,1,0,0,1.6097,Peridotite_rect,8,0,8,0,1,
5e2c7806bb1a6e000cf7f2e8,TCN,2024-06-26_12h52.22.448,LearnStrategy,2023.2.3,Win32,59.88023952,8,2,10,,,,,,,,3,06,,,,,,,,,,,8,2.111,0,,,,,,0.40625,-0.390625,1,0,0,2.111,Pumice_rect,9,0,9,0,1,
5e2c7806bb1a6e000cf7f2e8,TCN,2024-06-26_12h52.22.448,LearnStrategy,2023.2.3,Win32,59.88023952,8,2,11,,,,,,,,5,11,,,,,,,,,,,5,1.42,1,,,,,,-0.368489583,-0.385416667,1,0,0,1.4204,Obsidian_rect,10,0,10,0,1,
5e2c7806bb1a6e000cf7f2e8,TCN,2024-06-26_12h52.22.448,LearnStrategy,2023.2.3,Win32,59.88023952,8,2,12,,,,,,,,8,05,,,,,,,,,,,8,2.348,1,,,,,,0.372395833,-0.389322917,1,0,0,2.3484,Pumice_rect,11,0,11,0,1,
5e2c7806bb1a6e000cf7f2e8,TCN,2024-06-26_12h52.22.448,LearnStrategy,2023.2.3,Win32,59.88023952,8,2,13,,,,,,,,8,10,,,,,,,,,,,3,3.493,0,,,,,,0.204427083,-0.231770833,1,0,0,3.4929,Diorite_rect,12,0,12,0,1,
5e2c7806bb1a6e000cf7f2e8,TCN,2024-06-26_12h52.22.448,LearnStrategy,2023.2.3,Win32,59.88023952,8,2,14,,,,,,,,5,02,,,,,,,,,,,5,1.684,1,,,,,,-0.380208333,-0.384114583,1,0,0,1.6839,Obsidian_rect,13,0,13,0,1,
5e2c7806bb1a6e000cf7f2e8,TCN,2024-06-26_12h52.22.448,LearnStrategy,2023.2.3,Win32,59.88023952,8,2,15,,,,,,,,2,16,,,,,,,,,,,2,1.311,1,,,,,,-0.1171875,-0.2421875,1,0,0,1.311,Basalt_rect,14,0,14,0,1,
5e2c7806bb1a6e000cf7f2e8,TCN,2024-06-26_12h52.22.448,LearnStrategy,2023.2.3,Win32,59.88023952,8,2,16,,,,,,,,4,13,,,,,,,,,,,3,3.397,0,,,,,,0.134114583,-0.26953125,1,0,0,3.3969,Diorite_rect,15,0,15,0,1,
5e2c7806bb1a6e000cf7f2e8,TCN,2024-06-26_12h52.22.448,LearnStrategy,2023.2.3,Win32,59.88023952,9,1,1,-0.015625,0.00390625,1,0,0,1.48,rock_grid_rect_2,7,06,-1,-1,1.48,0.190104167,-0.255208333,1,0,0,4.7372,Diorite_rect,3,4.737,0,0,0,0,0,1,,,,,,,,,,,,,
5e2c7806bb1a6e000cf7f2e8,TCN,2024-06-26_12h52.22.448,LearnStrategy,2023.2.3,Win32,59.88023952,9,1,2,0.075520833,-0.002604167,1,0,0,1.4455,rock_grid_rect_2,4,09,-1,-1,1.446,-0.1328125,-0.251302083,1,0,0,2.9893,Basalt_rect,2,2.989,0,1,0,1,0,1,,,,,,,,,,,,,
5e2c7806bb1a6e000cf7f2e8,TCN,2024-06-26_12h52.22.448,LearnStrategy,2023.2.3,Win32,59.88023952,9,1,3,0.00390625,-0.0078125,1,0,0,0.8106,rock_grid_rect_2,2,14,-1,-1,0.811,-0.145833333,-0.381510417,1,0,0,2.5066,Pegmatite_rect,6,2.507,0,2,0,2,0,1,,,,,,,,,,,,,
5e2c7806bb1a6e000cf7f2e8,TCN,2024-06-26_12h52.22.448,LearnStrategy,2023.2.3,Win32,59.88023952,9,1,4,-0.095052083,-0.005208333,1,0,0,0.7826,rock_grid_rect_2,8,08,-1,-1,0.783,0.3671875,-0.384114583,1,0,0,2.6971,Pumice_rect,8,2.697,1,3,0,3,0,1,,,,,,,,,,,,,
5e2c7806bb1a6e000cf7f2e8,TCN,2024-06-26_12h52.22.448,LearnStrategy,2023.2.3,Win32,59.88023952,9,1,5,0,0.015625,1,0,0,0.8359,rock_grid_rect_2,3,07,-1,-1,0.836,0.166666667,-0.240885417,1,0,0,3.3121,Diorite_rect,3,3.312,1,4,0,4,0,1,,,,,,,,,,,,,
5e2c7806bb1a6e000cf7f2e8,TCN,2024-06-26_12h52.22.448,LearnStrategy,2023.2.3,Win32,59.88023952,9,1,6,0.01953125,0.0078125,1,0,0,1.1291,rock_grid_rect_2,2,05,-1,-1,1.129,-0.130208333,-0.25,1,0,0,1.3995,Basalt_rect,2,1.399,1,5,0,5,0,1,,,,,,,,,,,,,
5e2c7806bb1a6e000cf7f2e8,TCN,2024-06-26_12h52.22.448,LearnStrategy,2023.2.3,Win32,59.88023952,9,1,7,0.046875,-0.016927083,1,0,0,1.1229,rock_grid_rect_2,4,15,-1,-1,1.123,-0.369791667,-0.244791667,1,0,0,3.2976,Andesite_rect,1,3.298,0,6,0,6,0,1,,,,,,,,,,,,,
5e2c7806bb1a6e000cf7f2e8,TCN,2024-06-26_12h52.22.448,LearnStrategy,2023.2.3,Win32,59.88023952,9,1,8,-0.006510417,-0.009114583,1,0,0,0.7629,rock_grid_rect_2,7,08,-1,-1,0.763,0.092447917,-0.381510417,1,0,0,2.3757,Peridotite_rect,7,2.376,1,7,0,7,0,1,,,,,,,,,,,,,
5e2c7806bb1a6e000cf7f2e8,TCN,2024-06-26_12h52.22.448,LearnStrategy,2023.2.3,Win32,59.88023952,9,1,9,-0.036458333,-0.016927083,1,0,0,0.873,rock_grid_rect_2,6,10,-1,-1,0.873,0.416666667,-0.243489583,1,0,0,14.3848,Gabbro_rect,4,14.385,0,8,0,8,0,1,,,,,,,,,,,,,
5e2c7806bb1a6e000cf7f2e8,TCN,2024-06-26_12h52.22.448,LearnStrategy,2023.2.3,Win32,59.88023952,9,1,10,-0.071614583,0.0078125,1,0,0,1.084,rock_grid_rect_2,1,06,-1,-1,1.084,-0.3125,-0.25390625,1,0,0,2.1006,Andesite_rect,1,2.101,1,9,0,9,0,1,,,,,,,,,,,,,
5e2c7806bb1a6e000cf7f2e8,TCN,2024-06-26_12h52.22.448,LearnStrategy,2023.2.3,Win32,59.88023952,9,1,11,0.03515625,0.001302083,1,0,0,0.9734,rock_grid_rect_2,6,07,-1,-1,0.973,0.122395833,-0.389322917,1,0,0,5.5263,Peridotite_rect,7,5.526,0,10,0,10,0,1,,,,,,,,,,,,,
5e2c7806bb1a6e000cf7f2e8,TCN,2024-06-26_12h52.22.448,LearnStrategy,2023.2.3,Win32,59.88023952,9,1,12,0.040364583,0.022135417,1,0,0,1.1552,rock_grid_rect_2,1,07,-1,-1,1.155,0.126302083,-0.24609375,1,0,0,1.2769,Diorite_rect,3,1.277,0,11,0,11,0,1,,,,,,,,,,,,,
5e2c7806bb1a6e000cf7f2e8,TCN,2024-06-26_12h52.22.448,LearnStrategy,2023.2.3,Win32,59.88023952,9,1,13,0.110677083,0.009114583,1,0,0,1.1679,rock_grid_rect_2,5,09,-1,-1,1.168,-0.376302083,-0.38671875,1,0,0,1.3125,Obsidian_rect,5,1.313,1,12,0,12,0,1,,,,,,,,,,,,,
5e2c7806bb1a6e000cf7f2e8,TCN,2024-06-26_12h52.22.448,LearnStrategy,2023.2.3,Win32,59.88023952,9,1,14,0.06640625,-0.010416667,1,0,0,1.6554,rock_grid_rect_2,8,09,-1,-1,1.655,0.3828125,-0.390625,1,0,0,2.6459,Pumice_rect,8,2.646,1,13,0,13,0,1,,,,,,,,,,,,,
5e2c7806bb1a6e000cf7f2e8,TCN,2024-06-26_12h52.22.448,LearnStrategy,2023.2.3,Win32,59.88023952,9,1,15,0.03515625,0.002604167,1,0,0,1.5263,rock_grid_rect_2,3,15,-1,-1,1.526,0.15234375,-0.247395833,1,0,0,2.3581,Diorite_rect,3,2.358,1,14,0,14,0,1,,,,,,,,,,,,,
5e2c7806bb1a6e000cf7f2e8,TCN,2024-06-26_12h52.22.448,LearnStrategy,2023.2.3,Win32,59.88023952,9,1,16,0.052083333,-0.01953125,1,0,0,1.166,rock_grid_rect_2,5,10,-1,-1,1.166,-0.381510417,-0.416666667,1,0,0,2.2956,Obsidian_rect,5,2.296,1,15,0,15,0,1,,,,,,,,,,,,,
5e2c7806bb1a6e000cf7f2e8,TCN,2024-06-26_12h52.22.448,LearnStrategy,2023.2.3,Win32,59.88023952,9,2,1,,,,,,,,7,07,,,,,,,,,,,6,7.643,0,,,,,,-0.1171875,-0.390625,1,0,0,7.6434,Pegmatite_rect,0,0,0,0,1,
5e2c7806bb1a6e000cf7f2e8,TCN,2024-06-26_12h52.22.448,LearnStrategy,2023.2.3,Win32,59.88023952,9,2,2,,,,,,,,1,10,,,,,,,,,,,2,3.045,0,,,,,,-0.10546875,-0.26171875,1,0,0,3.0453,Basalt_rect,1,0,1,0,1,
5e2c7806bb1a6e000cf7f2e8,TCN,2024-06-26_12h52.22.448,LearnStrategy,2023.2.3,Win32,59.88023952,9,2,3,,,,,,,,3,11,,,,,,,,,,,2,2.053,0,,,,,,-0.1171875,-0.256510417,1,0,0,2.0532,Basalt_rect,2,0,2,0,1,
5e2c7806bb1a6e000cf7f2e8,TCN,2024-06-26_12h52.22.448,LearnStrategy,2023.2.3,Win32,59.88023952,9,2,4,,,,,,,,2,08,,,,,,,,,,,2,1.137,1,,,,,,-0.115885417,-0.256510417,1,0,0,1.1368,Basalt_rect,3,0,3,0,1,
5e2c7806bb1a6e000cf7f2e8,TCN,2024-06-26_12h52.22.448,LearnStrategy,2023.2.3,Win32,59.88023952,9,2,5,,,,,,,,4,11,,,,,,,,,,,3,5.371,0,,,,,,0.119791667,-0.248697917,1,0,0,5.3712,Diorite_rect,4,0,4,0,1,
5e2c7806bb1a6e000cf7f2e8,TCN,2024-06-26_12h52.22.448,LearnStrategy,2023.2.3,Win32,59.88023952,9,2,6,,,,,,,,6,09,,,,,,,,,,,6,2.693,1,,,,,,-0.126302083,-0.385416667,1,0,0,2.693,Pegmatite_rect,5,0,5,0,1,
5e2c7806bb1a6e000cf7f2e8,TCN,2024-06-26_12h52.22.448,LearnStrategy,2023.2.3,Win32,59.88023952,9,2,7,,,,,,,,8,03,,,,,,,,,,,8,1.563,1,,,,,,0.3515625,-0.385416667,1,0,0,1.5625,Pumice_rect,6,0,6,0,1,
5e2c7806bb1a6e000cf7f2e8,TCN,2024-06-26_12h52.22.448,LearnStrategy,2023.2.3,Win32,59.88023952,9,2,8,,,,,,,,7,15,,,,,,,,,,,7,3.323,1,,,,,,0.141927083,-0.395833333,1,0,0,3.3232,Peridotite_rect,7,0,7,0,1,
5e2c7806bb1a6e000cf7f2e8,TCN,2024-06-26_12h52.22.448,LearnStrategy,2023.2.3,Win32,59.88023952,9,2,9,,,,,,,,8,02,,,,,,,,,,,8,1.471,1,,,,,,0.368489583,-0.388020833,1,0,0,1.4707,Pumice_rect,8,0,8,0,1,
5e2c7806bb1a6e000cf7f2e8,TCN,2024-06-26_12h52.22.448,LearnStrategy,2023.2.3,Win32,59.88023952,9,2,10,,,,,,,,3,10,,,,,,,,,,,1,2.385,0,,,,,,-0.359375,-0.270833333,1,0,0,2.3847,Andesite_rect,9,0,9,0,1,
5e2c7806bb1a6e000cf7f2e8,TCN,2024-06-26_12h52.22.448,LearnStrategy,2023.2.3,Win32,59.88023952,9,2,11,,,,,,,,4,03,,,,,,,,,,,5,2.178,0,,,,,,-0.350260417,-0.390625,1,0,0,2.1778,Obsidian_rect,10,0,10,0,1,
5e2c7806bb1a6e000cf7f2e8,TCN,2024-06-26_12h52.22.448,LearnStrategy,2023.2.3,Win32,59.88023952,9,2,12,,,,,,,,1,05,,,,,,,,,,,1,1.848,1,,,,,,-0.326822917,-0.248697917,1,0,0,1.8482,Andesite_rect,11,0,11,0,1,
5e2c7806bb1a6e000cf7f2e8,TCN,2024-06-26_12h52.22.448,LearnStrategy,2023.2.3,Win32,59.88023952,9,2,13,,,,,,,,2,01,,,,,,,,,,,2,1.284,1,,,,,,-0.151041667,-0.2578125,1,0,0,1.2845,Basalt_rect,12,0,12,0,1,
5e2c7806bb1a6e000cf7f2e8,TCN,2024-06-26_12h52.22.448,LearnStrategy,2023.2.3,Win32,59.88023952,9,2,14,,,,,,,,5,12,,,,,,,,,,,5,1.522,1,,,,,,-0.354166667,-0.389322917,1,0,0,1.5217,Obsidian_rect,13,0,13,0,1,
5e2c7806bb1a6e000cf7f2e8,TCN,2024-06-26_12h52.22.448,LearnStrategy,2023.2.3,Win32,59.88023952,9,2,15,,,,,,,,6,13,,,,,,,,,,,7,3.052,0,,,,,,0.087239583,-0.391927083,1,0,0,3.0517,Peridotite_rect,14,0,14,0,1,
5e2c7806bb1a6e000cf7f2e8,TCN,2024-06-26_12h52.22.448,LearnStrategy,2023.2.3,Win32,59.88023952,9,2,16,,,,,,,,5,08,,,,,,,,,,,5,1.335,1,,,,,,-0.3828125,-0.393229167,1,0,0,1.3348,Obsidian_rect,15,0,15,0,1,
5e2c7806bb1a6e000cf7f2e8,TCN,2024-06-26_12h52.22.448,LearnStrategy,2023.2.3,Win32,59.88023952,,,,,,,,,,,,,,,,,,,,,,,,,,,,,,,,,,,,,,,,,,,0
5e2c7806bb1a6e000cf7f2e8,TCN,2024-06-26_12h52.22.448,LearnStrategy,2023.2.3,Win32,59.88023952,,,,,,,,,,,,,,,,,,,,,,,,,,,,,,,,,,,,,,,,,,,
5e2c7806bb1a6e000cf7f2e8,TCN,2024-06-26_12h52.22.448,LearnStrategy,2023.2.3,Win32,59.88023952,,,,,,,,,,,6,05,1,1,,,,,,,,,,,,,,,,,,,,,,,,,,,,,
5e2c7806bb1a6e000cf7f2e8,TCN,2024-06-26_12h52.22.448,LearnStrategy,2023.2.3,Win32,59.88023952,,,,,,,,,,,5,09,1,2,,,,,,,,,,,,,,,,,,,,,,,,,,,,,
5e2c7806bb1a6e000cf7f2e8,TCN,2024-06-26_12h52.22.448,LearnStrategy,2023.2.3,Win32,59.88023952,,,,,,,,,,,3,15,1,3,,,,,,,,,,,,,,,,,,,,,,,,,,,,,
5e2c7806bb1a6e000cf7f2e8,TCN,2024-06-26_12h52.22.448,LearnStrategy,2023.2.3,Win32,59.88023952,,,,,,,,,,,4,10,1,4,,,,,,,,,,,,,,,,,,,,,,,,,,,,,
5e2c7806bb1a6e000cf7f2e8,TCN,2024-06-26_12h52.22.448,LearnStrategy,2023.2.3,Win32,59.88023952,,,,,,,,,,,8,15,1,5,,,,,,,,,,,,,,,,,,,,,,,,,,,,,
5e2c7806bb1a6e000cf7f2e8,TCN,2024-06-26_12h52.22.448,LearnStrategy,2023.2.3,Win32,59.88023952,,,,,,,,,,,5,16,1,6,,,,,,,,,,,,,,,,,,,,,,,,,,,,,
5e2c7806bb1a6e000cf7f2e8,TCN,2024-06-26_12h52.22.448,LearnStrategy,2023.2.3,Win32,59.88023952,,,,,,,,,,,7,05,1,7,,,,,,,,,,,,,,,,,,,,,,,,,,,,,
5e2c7806bb1a6e000cf7f2e8,TCN,2024-06-26_12h52.22.448,LearnStrategy,2023.2.3,Win32,59.88023952,,,,,,,,,,,3,14,1,8,,,,,,,,,,,,,,,,,,,,,,,,,,,,,
5e2c7806bb1a6e000cf7f2e8,TCN,2024-06-26_12h52.22.448,LearnStrategy,2023.2.3,Win32,59.88023952,,,,,,,,,,,5,14,2,1,,,,,,,,,,,,,,,,,,,,,,,,,,,,,
5e2c7806bb1a6e000cf7f2e8,TCN,2024-06-26_12h52.22.448,LearnStrategy,2023.2.3,Win32,59.88023952,,,,,,,,,,,3,12,2,2,,,,,,,,,,,,,,,,,,,,,,,,,,,,,
5e2c7806bb1a6e000cf7f2e8,TCN,2024-06-26_12h52.22.448,LearnStrategy,2023.2.3,Win32,59.88023952,,,,,,,,,,,8,08,2,3,,,,,,,,,,,,,,,,,,,,,,,,,,,,,
5e2c7806bb1a6e000cf7f2e8,TCN,2024-06-26_12h52.22.448,LearnStrategy,2023.2.3,Win32,59.88023952,,,,,,,,,,,2,06,2,4,,,,,,,,,,,,,,,,,,,,,,,,,,,,,
5e2c7806bb1a6e000cf7f2e8,TCN,2024-06-26_12h52.22.448,LearnStrategy,2023.2.3,Win32,59.88023952,,,,,,,,,,,6,06,2,5,,,,,,,,,,,,,,,,,,,,,,,,,,,,,
5e2c7806bb1a6e000cf7f2e8,TCN,2024-06-26_12h52.22.448,LearnStrategy,2023.2.3,Win32,59.88023952,,,,,,,,,,,2,11,2,6,,,,,,,,,,,,,,,,,,,,,,,,,,,,,
5e2c7806bb1a6e000cf7f2e8,TCN,2024-06-26_12h52.22.448,LearnStrategy,2023.2.3,Win32,59.88023952,,,,,,,,,,,6,07,2,7,,,,,,,,,,,,,,,,,,,,,,,,,,,,,
5e2c7806bb1a6e000cf7f2e8,TCN,2024-06-26_12h52.22.448,LearnStrategy,2023.2.3,Win32,59.88023952,,,,,,,,,,,1,14,2,8,,,,,,,,,,,,,,,,,,,,,,,,,,,,,
5e2c7806bb1a6e000cf7f2e8,TCN,2024-06-26_12h52.22.448,LearnStrategy,2023.2.3,Win32,59.88023952,,,,,,,,,,,8,04,3,1,,,,,,,,,,,,,,,,,,,,,,,,,,,,,
5e2c7806bb1a6e000cf7f2e8,TCN,2024-06-26_12h52.22.448,LearnStrategy,2023.2.3,Win32,59.88023952,,,,,,,,,,,8,14,3,2,,,,,,,,,,,,,,,,,,,,,,,,,,,,,
5e2c7806bb1a6e000cf7f2e8,TCN,2024-06-26_12h52.22.448,LearnStrategy,2023.2.3,Win32,59.88023952,,,,,,,,,,,2,05,3,3,,,,,,,,,,,,,,,,,,,,,,,,,,,,,
5e2c7806bb1a6e000cf7f2e8,TCN,2024-06-26_12h52.22.448,LearnStrategy,2023.2.3,Win32,59.88023952,,,,,,,,,,,2,14,3,4,,,,,,,,,,,,,,,,,,,,,,,,,,,,,
5e2c7806bb1a6e000cf7f2e8,TCN,2024-06-26_12h52.22.448,LearnStrategy,2023.2.3,Win32,59.88023952,,,,,,,,,,,7,04,3,5,,,,,,,,,,,,,,,,,,,,,,,,,,,,,
5e2c7806bb1a6e000cf7f2e8,TCN,2024-06-26_12h52.22.448,LearnStrategy,2023.2.3,Win32,59.88023952,,,,,,,,,,,6,12,3,6,,,,,,,,,,,,,,,,,,,,,,,,,,,,,
5e2c7806bb1a6e000cf7f2e8,TCN,2024-06-26_12h52.22.448,LearnStrategy,2023.2.3,Win32,59.88023952,,,,,,,,,,,1,04,3,7,,,,,,,,,,,,,,,,,,,,,,,,,,,,,
5e2c7806bb1a6e000cf7f2e8,TCN,2024-06-26_12h52.22.448,LearnStrategy,2023.2.3,Win32,59.88023952,,,,,,,,,,,3,07,3,8,,,,,,,,,,,,,,,,,,,,,,,,,,,,,
5e2c7806bb1a6e000cf7f2e8,TCN,2024-06-26_12h52.22.448,LearnStrategy,2023.2.3,Win32,59.88023952,,,,,,,,,,,3,08,4,1,,,,,,,,,,,,,,,,,,,,,,,,,,,,,
5e2c7806bb1a6e000cf7f2e8,TCN,2024-06-26_12h52.22.448,LearnStrategy,2023.2.3,Win32,59.88023952,,,,,,,,,,,4,12,4,2,,,,,,,,,,,,,,,,,,,,,,,,,,,,,
5e2c7806bb1a6e000cf7f2e8,TCN,2024-06-26_12h52.22.448,LearnStrategy,2023.2.3,Win32,59.88023952,,,,,,,,,,,1,07,4,3,,,,,,,,,,,,,,,,,,,,,,,,,,,,,
5e2c7806bb1a6e000cf7f2e8,TCN,2024-06-26_12h52.22.448,LearnStrategy,2023.2.3,Win32,59.88023952,,,,,,,,,,,2,09,4,4,,,,,,,,,,,,,,,,,,,,,,,,,,,,,
5e2c7806bb1a6e000cf7f2e8,TCN,2024-06-26_12h52.22.448,LearnStrategy,2023.2.3,Win32,59.88023952,,,,,,,,,,,4,08,4,5,,,,,,,,,,,,,,,,,,,,,,,,,,,,,
5e2c7806bb1a6e000cf7f2e8,TCN,2024-06-26_12h52.22.448,LearnStrategy,2023.2.3,Win32,59.88023952,,,,,,,,,,,5,04,4,6,,,,,,,,,,,,,,,,,,,,,,,,,,,,,
5e2c7806bb1a6e000cf7f2e8,TCN,2024-06-26_12h52.22.448,LearnStrategy,2023.2.3,Win32,59.88023952,,,,,,,,,,,1,06,4,7,,,,,,,,,,,,,,,,,,,,,,,,,,,,,
5e2c7806bb1a6e000cf7f2e8,TCN,2024-06-26_12h52.22.448,LearnStrategy,2023.2.3,Win32,59.88023952,,,,,,,,,,,5,05,4,8,,,,,,,,,,,,,,,,,,,,,,,,,,,,,
5e2c7806bb1a6e000cf7f2e8,TCN,2024-06-26_12h52.22.448,LearnStrategy,2023.2.3,Win32,59.88023952,,,,,,,,,,,1,02,5,1,,,,,,,,,,,,,,,,,,,,,,,,,,,,,
5e2c7806bb1a6e000cf7f2e8,TCN,2024-06-26_12h52.22.448,LearnStrategy,2023.2.3,Win32,59.88023952,,,,,,,,,,,7,14,5,2,,,,,,,,,,,,,,,,,,,,,,,,,,,,,
5e2c7806bb1a6e000cf7f2e8,TCN,2024-06-26_12h52.22.448,LearnStrategy,2023.2.3,Win32,59.88023952,,,,,,,,,,,5,10,5,3,,,,,,,,,,,,,,,,,,,,,,,,,,,,,
5e2c7806bb1a6e000cf7f2e8,TCN,2024-06-26_12h52.22.448,LearnStrategy,2023.2.3,Win32,59.88023952,,,,,,,,,,,7,06,5,4,,,,,,,,,,,,,,,,,,,,,,,,,,,,,
5e2c7806bb1a6e000cf7f2e8,TCN,2024-06-26_12h52.22.448,LearnStrategy,2023.2.3,Win32,59.88023952,,,,,,,,,,,8,06,5,5,,,,,,,,,,,,,,,,,,,,,,,,,,,,,
5e2c7806bb1a6e000cf7f2e8,TCN,2024-06-26_12h52.22.448,LearnStrategy,2023.2.3,Win32,59.88023952,,,,,,,,,,,6,10,5,6,,,,,,,,,,,,,,,,,,,,,,,,,,,,,
5e2c7806bb1a6e000cf7f2e8,TCN,2024-06-26_12h52.22.448,LearnStrategy,2023.2.3,Win32,59.88023952,,,,,,,,,,,8,09,5,7,,,,,,,,,,,,,,,,,,,,,,,,,,,,,
5e2c7806bb1a6e000cf7f2e8,TCN,2024-06-26_12h52.22.448,LearnStrategy,2023.2.3,Win32,59.88023952,,,,,,,,,,,1,03,5,8,,,,,,,,,,,,,,,,,,,,,,,,,,,,,
5e2c7806bb1a6e000cf7f2e8,TCN,2024-06-26_12h52.22.448,LearnStrategy,2023.2.3,Win32,59.88023952,,,,,,,,,,,2,12,6,1,,,,,,,,,,,,,,,,,,,,,,,,,,,,,
5e2c7806bb1a6e000cf7f2e8,TCN,2024-06-26_12h52.22.448,LearnStrategy,2023.2.3,Win32,59.88023952,,,,,,,,,,,6,16,6,2,,,,,,,,,,,,,,,,,,,,,,,,,,,,,
5e2c7806bb1a6e000cf7f2e8,TCN,2024-06-26_12h52.22.448,LearnStrategy,2023.2.3,Win32,59.88023952,,,,,,,,,,,7,13,6,3,,,,,,,,,,,,,,,,,,,,,,,,,,,,,
5e2c7806bb1a6e000cf7f2e8,TCN,2024-06-26_12h52.22.448,LearnStrategy,2023.2.3,Win32,59.88023952,,,,,,,,,,,4,15,6,4,,,,,,,,,,,,,,,,,,,,,,,,,,,,,
5e2c7806bb1a6e000cf7f2e8,TCN,2024-06-26_12h52.22.448,LearnStrategy,2023.2.3,Win32,59.88023952,,,,,,,,,,,4,01,6,5,,,,,,,,,,,,,,,,,,,,,,,,,,,,,
5e2c7806bb1a6e000cf7f2e8,TCN,2024-06-26_12h52.22.448,LearnStrategy,2023.2.3,Win32,59.88023952,,,,,,,,,,,7,08,6,6,,,,,,,,,,,,,,,,,,,,,,,,,,,,,
5e2c7806bb1a6e000cf7f2e8,TCN,2024-06-26_12h52.22.448,LearnStrategy,2023.2.3,Win32,59.88023952,,,,,,,,,,,3,09,6,7,,,,,,,,,,,,,,,,,,,,,,,,,,,,,
5e2c7806bb1a6e000cf7f2e8,TCN,2024-06-26_12h52.22.448,LearnStrategy,2023.2.3,Win32,59.88023952,,,,,,,,,,,4,09,6,8,,,,,,,,,,,,,,,,,,,,,,,,,,,,,