participant,condition,date,expName,psychopyVersion,OS,frameRate,block,phase,trial,learn_mouse.x,learn_mouse.y,learn_mouse.leftButton,learn_mouse.midButton,learn_mouse.rightButton,learn_mouse.time,learn_mouse.clicked_name,cat,token,row,col,t_select,cat_rec,token_rec,cat_mouse_l.x,cat_mouse_l.y,cat_mouse_l.leftButton,cat_mouse_l.midButton,cat_mouse_l.rightButton,cat_mouse_l.time,cat_mouse_l.clicked_name,resp,t_resp,corr,train_trials.thisRepN,train_trials.thisTrialN,train_trials.thisN,train_trials.thisIndex,train_trials.ran,cat_mouse_t.x,cat_mouse_t.y,cat_mouse_t.leftButton,cat_mouse_t.midButton,cat_mouse_t.rightButton,cat_mouse_t.time,cat_mouse_t.clicked_name,test_trials.thisRepN,test_trials.thisTrialN,test_trials.thisN,test_trials.thisIndex,test_trials.ran,Bonus
5e5c3cc556ec124282602756,SCR,2024-06-11_12h11.52.927,LearnStrategy,2023.2.3,Linux armv81,59.52380952,,,,,,,,,,,,,,,,,,,,,,,,,,,,,,,,,,,,,,,,,,,,,
5e5c3cc556ec124282602756,SCR,2024-06-11_12h11.52.927,LearnStrategy,2023.2.3,Linux armv81,59.52380952,1,1,1,0.366851648,0.26852568,1,0,0,6.5983,Obsidian_02,5,02,5,7,6.598,2,12,-0.418169195,-0.401889006,1,0,0,4.4565,Obsidian_rect,5,4.457,1,0,0,0,0,1,,,,,,,,,,,,,
5e5c3cc556ec124282602756,SCR,2024-06-11_12h11.52.927,LearnStrategy,2023.2.3,Linux armv81,59.52380952,1,1,2,0.407073577,-0.086807887,1,0,0,8.1515,Pumice_10,8,10,3,7,8.151,8,14,0.394590855,-0.421321233,1,0,0,4.066,Pumice_rect,8,4.066,1,1,0,1,0,1,,,,,,,,,,,,,
5e5c3cc556ec124282602756,SCR,2024-06-11_12h11.52.927,LearnStrategy,2023.2.3,Linux armv81,59.52380952,1,1,3,0.395977894,0.097799063,1,0,0,4.0288,Diorite_06,3,06,4,7,4.029,6,05,-0.138002714,-0.245042404,1,0,0,7.0187,Basalt_rect,2,7.019,0,2,0,2,0,1,,,,,,,,,,,,,
5e5c3cc556ec124282602756,SCR,2024-06-11_12h11.52.927,LearnStrategy,2023.2.3,Linux armv81,59.52380952,1,1,4,0.380721331,-0.3949488,1,0,0,6.6082,Andesite_05,1,05,1,7,6.608,1,06,-0.079750339,-0.378292402,1,0,0,6.8833,Pegmatite_rect,6,6.883,0,3,0,3,0,1,,,,,,,,,,,,,
5e5c3cc556ec124282602756,SCR,2024-06-11_12h11.52.927,LearnStrategy,2023.2.3,Linux armv81,59.52380952,1,1,5,-0.376560311,-0.400500933,1,0,0,1.5961,Obsidian_16,5,16,1,2,1.596,8,02,-0.354368925,-0.388008753,1,0,0,6.1022,Obsidian_rect,5,6.102,1,4,0,4,0,1,,,,,,,,,,,,,
5e5c3cc556ec124282602756,SCR,2024-06-11_12h11.52.927,LearnStrategy,2023.2.3,Linux armv81,59.52380952,1,1,6,0.244798899,0.414267818,1,0,0,5.0347,Pegmatite_09,6,09,6,6,5.035,5,02,0.143550634,-0.393560727,1,0,0,2.6208,Peridotite_rect,7,2.621,0,5,0,5,0,1,,,,,,,,,,,,,
5e5c3cc556ec124282602756,SCR,2024-06-11_12h11.52.927,LearnStrategy,2023.2.3,Linux armv81,59.52380952,1,1,7,0.264216503,0.274077654,1,0,0,3.0854,Basalt_06,2,06,5,6,3.085,7,10,-0.106102546,-0.232550224,1,0,0,5.1754,Basalt_rect,2,5.175,1,6,0,6,0,1,,,,,,,,,,,,,
5e5c3cc556ec124282602756,SCR,2024-06-11_12h11.52.927,LearnStrategy,2023.2.3,Linux armv81,59.52380952,1,1,8,0.039528529,0.133887529,1,0,0,2.7923,Pegmatite_08,6,08,4,5,2.792,4,05,0.168516,-0.40744098,1,0,0,9.4549,Peridotite_rect,7,9.455,0,7,0,7,0,1,,,,,,,,,,,,,
5e5c3cc556ec124282602756,SCR,2024-06-11_12h11.52.927,LearnStrategy,2023.2.3,Linux armv81,59.52380952,1,1,9,-0.088072101,0.060322364,1,0,0,1.214,Basalt_16,2,16,4,4,1.214,7,16,-0.111650387,-0.254758517,1,0,0,8.5606,Basalt_rect,2,8.561,1,8,0,8,0,1,,,,,,,,,,,,,
5e5c3cc556ec124282602756,SCR,2024-06-11_12h11.52.927,LearnStrategy,2023.2.3,Linux armv81,59.52380952,1,1,10,-0.083911141,0.401775678,1,0,0,3.3478,Pegmatite_05,6,05,6,4,3.348,5,16,0.165742119,-0.236714125,1,0,0,6.6887,Diorite_rect,3,6.689,0,9,0,9,0,1,,,,,,,,,,,,,
5e5c3cc556ec124282602756,SCR,2024-06-11_12h11.52.927,LearnStrategy,2023.2.3,Linux armv81,59.52380952,1,1,11,-0.254507581,0.401775678,1,0,0,1.1334,Pumice_03,8,03,6,3,1.133,3,16,0.376560529,-0.381068548,1,0,0,2.1209,Pumice_rect,8,2.121,1,10,0,10,0,1,,,,,,,,,,,,,
5e5c3cc556ec124282602756,SCR,2024-06-11_12h11.52.927,LearnStrategy,2023.2.3,Linux armv81,59.52380952,1,1,12,0.218446732,-0.110404253,1,0,0,4.0224,Pegmatite_11,6,11,3,6,4.022,1,11,-0.111650387,-0.393560727,1,0,0,3.7344,Pegmatite_rect,6,3.734,1,11,0,11,0,1,,,,,,,,,,,,,
5e5c3cc556ec124282602756,SCR,2024-06-11_12h11.52.927,LearnStrategy,2023.2.3,Linux armv81,59.52380952,1,1,13,-0.08252426,0.233825048,1,0,0,2.6463,Diorite_09,3,09,5,4,2.646,3,08,0.373786449,-0.233938217,1,0,0,8.8261,Gabbro_rect,4,8.826,0,12,0,12,0,1,,,,,,,,,,,,,
5e5c3cc556ec124282602756,SCR,2024-06-11_12h11.52.927,LearnStrategy,2023.2.3,Linux armv81,59.52380952,1,1,14,-0.401525637,0.242153247,1,0,0,2.6886,Peridotite_16,7,16,5,2,2.689,6,11,-0.133841872,-0.265862703,1,0,0,1.8222,Basalt_rect,2,1.822,0,13,0,13,0,1,,,,,,,,,,,,,
5e5c3cc556ec124282602756,SCR,2024-06-11_12h11.52.927,LearnStrategy,2023.2.3,Linux armv81,59.52380952,1,1,15,0.387656212,-0.397724628,1,0,0,5.2037,Andesite_05,1,05,1,7,5.204,4,14,0.362690767,-0.389396509,1,0,0,2.7556,Pumice_rect,8,2.756,0,14,0,14,0,1,,,,,,,,,,,,,
5e5c3cc556ec124282602756,SCR,2024-06-11_12h11.52.927,LearnStrategy,2023.2.3,Linux armv81,59.52380952,1,1,16,0.247572978,-0.401889006,1,0,0,0.6967,Basalt_11,2,11,1,6,0.697,2,16,-0.103328625,-0.26031057,1,0,0,1.5474,Basalt_rect,2,1.547,1,15,0,15,0,1,,,,,,,,,,,,,
5e5c3cc556ec124282602756,SCR,2024-06-11_12h11.52.927,LearnStrategy,2023.2.3,Linux armv81,59.52380952,1,2,1,,,,,,,,4,03,,,,,,,,,,,,,6,8.492,0,,,,,,-0.16712894,-0.38662068,1,0,0,8.4915,Pegmatite_rect,0,0,0,0,1,
5e5c3cc556ec124282602756,SCR,2024-06-11_12h11.52.927,LearnStrategy,2023.2.3,Linux armv81,59.52380952,1,2,2,,,,,,,,2,01,,,,,,,,,,,,,2,2.157,1,,,,,,-0.157420238,-0.23949035,1,0,0,2.1574,Basalt_rect,1,0,1,0,1,
5e5c3cc556ec124282602756,SCR,2024-06-11_12h11.52.927,LearnStrategy,2023.2.3,Linux armv81,59.52380952,1,2,3,,,,,,,,6,13,,,,,,,,,,,,,6,4.276,1,,,,,,-0.153259357,-0.379680634,1,0,0,4.276,Pegmatite_rect,2,0,2,0,1,
5e5c3cc556ec124282602756,SCR,2024-06-11_12h11.52.927,LearnStrategy,2023.2.3,Linux armv81,59.52380952,1,2,4,,,,,,,,5,10,,,,,,,,,,,,,4,3.26,0,,,,,,0.375173489,-0.247818391,1,0,0,3.2596,Gabbro_rect,3,0,3,0,1,
5e5c3cc556ec124282602756,SCR,2024-06-11_12h11.52.927,LearnStrategy,2023.2.3,Linux armv81,59.52380952,1,2,5,,,,,,,,5,06,,,,,,,,,,,,,4,1.377,0,,,,,,0.393204053,-0.257534583,1,0,0,1.3769,Gabbro_rect,4,0,4,0,1,
5e5c3cc556ec124282602756,SCR,2024-06-11_12h11.52.927,LearnStrategy,2023.2.3,Linux armv81,59.52380952,1,2,6,,,,,,,,1,07,,,,,,,,,,,,,3,3.395,0,,,,,,0.180998723,-0.23949035,1,0,0,3.3952,Diorite_rect,5,0,5,0,1,
5e5c3cc556ec124282602756,SCR,2024-06-11_12h11.52.927,LearnStrategy,2023.2.3,Linux armv81,59.52380952,1,2,7,,,,,,,,3,12,,,,,,,,,,,,,6,7.747,0,,,,,,-0.157420238,-0.415768941,1,0,0,7.7468,Pegmatite_rect,6,0,6,0,1,
5e5c3cc556ec124282602756,SCR,2024-06-11_12h11.52.927,LearnStrategy,2023.2.3,Linux armv81,59.52380952,1,2,8,,,,,,,,8,04,,,,,,,,,,,,,2,1.414,0,,,,,,-0.172676782,-0.229773998,1,0,0,1.4143,Basalt_rect,7,0,7,0,1,
5e5c3cc556ec124282602756,SCR,2024-06-11_12h11.52.927,LearnStrategy,2023.2.3,Linux armv81,59.52380952,1,2,9,,,,,,,,7,15,,,,,,,,,,,,,7,4.498,1,,,,,,0.176837762,-0.411604881,1,0,0,4.4985,Peridotite_rect,8,0,8,0,1,
5e5c3cc556ec124282602756,SCR,2024-06-11_12h11.52.927,LearnStrategy,2023.2.3,Linux armv81,59.52380952,1,2,10,,,,,,,,7,12,,,,,,,,,,,,,6,1.867,0,,,,,,-0.147711476,-0.399112701,1,0,0,1.8673,Pegmatite_rect,9,0,9,0,1,
5e5c3cc556ec124282602756,SCR,2024-06-11_12h11.52.927,LearnStrategy,2023.2.3,Linux armv81,59.52380952,1,2,11,,,,,,,,4,16,,,,,,,,,,,,,2,2.143,0,,,,,,-0.153259357,-0.233938217,1,0,0,2.1432,Basalt_rect,10,0,10,0,1,
5e5c3cc556ec124282602756,SCR,2024-06-11_12h11.52.927,LearnStrategy,2023.2.3,Linux armv81,59.52380952,1,2,12,,,,,,,,8,08,,,,,,,,,,,,,8,1.82,1,,,,,,0.398751895,-0.404664675,1,0,0,1.82,Pumice_rect,11,0,11,0,1,
5e5c3cc556ec124282602756,SCR,2024-06-11_12h11.52.927,LearnStrategy,2023.2.3,Linux armv81,59.52380952,1,2,13,,,,,,,,2,04,,,,,,,,,,,,,2,7.718,1,,,,,,-0.143550555,-0.240878344,1,0,0,7.7184,Basalt_rect,12,0,12,0,1,
5e5c3cc556ec124282602756,SCR,2024-06-11_12h11.52.927,LearnStrategy,2023.2.3,Linux armv81,59.52380952,1,2,14,,,,,,,,6,12,,,,,,,,,,,,,3,3.027,0,,,,,,0.179611683,-0.236714125,1,0,0,3.0269,Diorite_rect,13,0,13,0,1,
5e5c3cc556ec124282602756,SCR,2024-06-11_12h11.52.927,LearnStrategy,2023.2.3,Linux armv81,59.52380952,1,2,15,,,,,,,,1,16,,,,,,,,,,,,,1,1.783,1,,,,,,-0.382108162,-0.240878344,1,0,0,1.7826,Andesite_rect,14,0,14,0,1,
5e5c3cc556ec124282602756,SCR,2024-06-11_12h11.52.927,LearnStrategy,2023.2.3,Linux armv81,59.52380952,1,2,16,,,,,,,,3,11,,,,,,,,,,,,,6,2.622,0,,,,,,-0.131067952,-0.408828735,1,0,0,2.6224,Pegmatite_rect,15,0,15,0,1,
5e5c3cc556ec124282602756,SCR,2024-06-11_12h11.52.927,LearnStrategy,2023.2.3,Linux armv81,59.52380952,2,1,1,0.391817093,-0.41993316,1,0,0,6.1408,Andesite_05,1,05,1,7,6.141,5,14,-0.377947271,-0.228386164,1,0,0,1.3816,Andesite_rect,1,1.382,1,0,0,0,0,1,,,,,,,,,,,,,
5e5c3cc556ec124282602756,SCR,2024-06-11_12h11.52.927,LearnStrategy,2023.2.3,Linux armv81,59.52380952,2,1,2,0.25173378,-0.271414916,1,0,0,0.866,Andesite_06,1,06,2,6,0.866,4,14,-0.394590825,-0.25614659,1,0,0,1.4902,Andesite_rect,1,1.49,1,1,0,1,0,1,,,,,,,,,,,,,
5e5c3cc556ec124282602756,SCR,2024-06-11_12h11.52.927,LearnStrategy,2023.2.3,Linux armv81,59.52380952,2,1,3,0.379334291,-0.096524,1,0,0,0.9854,Pumice_10,8,10,3,7,0.985,6,08,0.400138696,-0.381068548,1,0,0,1.8036,Pumice_rect,8,1.804,1,2,0,2,0,1,,,,,,,,,,,,,
5e5c3cc556ec124282602756,SCR,2024-06-11_12h11.52.927,LearnStrategy,2023.2.3,Linux armv81,59.52380952,2,1,4,0.049237251,0.07142663,1,0,0,1.4366,Pegmatite_08,6,08,4,5,1.437,1,09,0.185159524,-0.254758517,1,0,0,2.6179,Diorite_rect,3,2.618,0,3,0,3,0,1,,,,,,,,,,,,,
5e5c3cc556ec124282602756,SCR,2024-06-11_12h11.52.927,LearnStrategy,2023.2.3,Linux armv81,59.52380952,2,1,5,-0.106102546,0.379567226,1,0,0,4.5652,Pegmatite_05,6,05,6,4,4.565,5,02,-0.129680951,-0.385232449,1,0,0,1.2005,Pegmatite_rect,6,1.201,1,4,0,4,0,1,,,,,,,,,,,,,
5e5c3cc556ec124282602756,SCR,2024-06-11_12h11.52.927,LearnStrategy,2023.2.3,Linux armv81,59.52380952,2,1,6,0.097780943,-0.111792326,1,0,0,1.2103,Obsidian_14,5,14,3,5,1.21,1,11,-0.37517335,-0.396336555,1,0,0,2.2405,Obsidian_rect,5,2.24,1,5,0,5,0,1,,,,,,,,,,,,,
5e5c3cc556ec124282602756,SCR,2024-06-11_12h11.52.927,LearnStrategy,2023.2.3,Linux armv81,59.52380952,2,1,7,-0.219833533,-0.41993316,1,0,0,2.3734,Gabbro_10,4,10,1,3,2.373,4,14,-0.172676782,-0.249206463,1,0,0,3.642,Basalt_rect,2,3.642,0,6,0,6,0,1,,,,,,,,,,,,,
5e5c3cc556ec124282602756,SCR,2024-06-11_12h11.52.927,LearnStrategy,2023.2.3,Linux armv81,59.52380952,2,1,8,-0.24757278,-0.245042404,1,0,0,2.0659,Gabbro_14,4,14,2,3,2.066,6,05,0.372399489,-0.243654251,1,0,0,1.4087,Gabbro_rect,4,1.409,1,7,0,7,0,1,,,,,,,,,,,,,
5e5c3cc556ec124282602756,SCR,2024-06-11_12h11.52.927,LearnStrategy,2023.2.3,Linux armv81,59.52380952,2,1,9,-0.096393863,-0.085419973,1,0,0,1.4077,Gabbro_13,4,13,3,4,1.408,2,10,0.165742119,-0.390784582,1,0,0,4.0811,Peridotite_rect,7,4.081,0,8,0,8,0,1,,,,,,,,,,,,,
5e5c3cc556ec124282602756,SCR,2024-06-11_12h11.52.927,LearnStrategy,2023.2.3,Linux armv81,59.52380952,2,1,10,0.383495172,-0.372740428,1,0,0,1.1109,Andesite_05,1,05,1,7,1.111,3,14,-0.422330091,-0.265862703,1,0,0,1.401,Andesite_rect,1,1.401,1,9,0,9,0,1,,,,,,,,,,,,,
5e5c3cc556ec124282602756,SCR,2024-06-11_12h11.52.927,LearnStrategy,2023.2.3,Linux armv81,59.52380952,2,1,11,0.38210837,-0.249206463,1,0,0,0.797,Pumice_16,8,16,2,7,0.797,7,08,0.365464767,-0.381068548,1,0,0,2.795,Pumice_rect,8,2.795,1,10,0,10,0,1,,,,,,,,,,,,,
5e5c3cc556ec124282602756,SCR,2024-06-11_12h11.52.927,LearnStrategy,2023.2.3,Linux armv81,59.52380952,2,1,12,0.361303806,-0.077091773,1,0,0,1.073,Pumice_10,8,10,3,7,1.073,3,08,0.373786449,-0.401889006,1,0,0,2.3365,Pumice_rect,8,2.337,1,11,0,11,0,1,,,,,,,,,,,,,
5e5c3cc556ec124282602756,SCR,2024-06-11_12h11.52.927,LearnStrategy,2023.2.3,Linux armv81,59.52380952,2,1,13,-0.042302291,-0.11318024,1,0,0,3.1598,Gabbro_13,4,13,3,4,3.16,5,04,-0.397364746,-0.232550224,1,0,0,1.2281,Andesite_rect,1,1.228,0,12,0,12,0,1,,,,,,,,,,,,,
5e5c3cc556ec124282602756,SCR,2024-06-11_12h11.52.927,LearnStrategy,2023.2.3,Linux armv81,59.52380952,2,1,14,-0.242024918,0.401775678,1,0,0,1.1543,Pumice_03,8,03,6,3,1.154,4,12,0.37794733,-0.38662068,1,0,0,1.8325,Pumice_rect,8,1.832,1,13,0,13,0,1,,,,,,,,,,,,,
5e5c3cc556ec124282602756,SCR,2024-06-11_12h11.52.927,LearnStrategy,2023.2.3,Linux armv81,59.52380952,2,1,15,-0.072815458,0.254645427,1,0,0,1.7856,Diorite_09,3,09,5,4,1.786,8,14,-0.422330091,-0.26447463,1,0,0,1.1668,Andesite_rect,1,1.167,0,14,0,14,0,1,,,,,,,,,,,,,
5e5c3cc556ec124282602756,SCR,2024-06-11_12h11.52.927,LearnStrategy,2023.2.3,Linux armv81,59.52380952,2,1,16,0.079750419,0.243541161,1,0,0,1.2011,Peridotite_10,7,10,5,5,1.201,3,16,-0.387656013,-0.25198253,1,0,0,1.1797,Andesite_rect,1,1.18,0,15,0,15,0,1,,,,,,,,,,,,,
5e5c3cc556ec124282602756,SCR,2024-06-11_12h11.52.927,LearnStrategy,2023.2.3,Linux armv81,59.52380952,2,2,1,,,,,,,,6,15,,,,,,,,,,,,,6,5.695,1,,,,,,-0.147711476,-0.403276761,1,0,0,5.6949,Pegmatite_rect,0,0,0,0,1,
5e5c3cc556ec124282602756,SCR,2024-06-11_12h11.52.927,LearnStrategy,2023.2.3,Linux armv81,59.52380952,2,2,2,,,,,,,,8,13,,,,,,,,,,,,,8,2.647,1,,,,,,0.427878141,-0.388008753,1,0,0,2.6471,Pumice_rect,1,0,1,0,1,
5e5c3cc556ec124282602756,SCR,2024-06-11_12h11.52.927,LearnStrategy,2023.2.3,Linux armv81,59.52380952,2,2,3,,,,,,,,7,06,,,,,,,,,,,,,1,1.904,0,,,,,,-0.411234389,-0.240878344,1,0,0,1.9042,Andesite_rect,2,0,2,0,1,
5e5c3cc556ec124282602756,SCR,2024-06-11_12h11.52.927,LearnStrategy,2023.2.3,Linux armv81,59.52380952,2,2,4,,,,,,,,5,08,,,,,,,,,,,,,5,1.62,1,,,,,,-0.436199715,-0.399112701,1,0,0,1.62,Obsidian_rect,3,0,3,0,1,
5e5c3cc556ec124282602756,SCR,2024-06-11_12h11.52.927,LearnStrategy,2023.2.3,Linux armv81,59.52380952,2,2,5,,,,,,,,2,02,,,,,,,,,,,,,2,1.443,1,,,,,,-0.138002714,-0.231162151,1,0,0,1.4435,Basalt_rect,4,0,4,0,1,
5e5c3cc556ec124282602756,SCR,2024-06-11_12h11.52.927,LearnStrategy,2023.2.3,Linux armv81,59.52380952,2,2,6,,,,,,,,3,13,,,,,,,,,,,,,1,1.751,0,,,,,,-0.383495122,-0.245042404,1,0,0,1.7513,Andesite_rect,5,0,5,0,1,
5e5c3cc556ec124282602756,SCR,2024-06-11_12h11.52.927,LearnStrategy,2023.2.3,Linux armv81,59.52380952,2,2,7,,,,,,,,8,06,,,,,,,,,,,,,8,1.419,1,,,,,,0.376560529,-0.40744098,1,0,0,1.4192,Pumice_rect,6,0,6,0,1,
5e5c3cc556ec124282602756,SCR,2024-06-11_12h11.52.927,LearnStrategy,2023.2.3,Linux armv81,59.52380952,2,2,8,,,,,,,,7,02,,,,,,,,,,,,,7,5.59,1,,,,,,0.154646436,-0.404664675,1,0,0,5.5903,Peridotite_rect,7,0,7,0,1,
5e5c3cc556ec124282602756,SCR,2024-06-11_12h11.52.927,LearnStrategy,2023.2.3,Linux armv81,59.52380952,2,2,9,,,,,,,,1,10,,,,,,,,,,,,,2,2.149,0,,,,,,-0.135228793,-0.243654251,1,0,0,2.1492,Basalt_rect,8,0,8,0,1,
5e5c3cc556ec124282602756,SCR,2024-06-11_12h11.52.927,LearnStrategy,2023.2.3,Linux armv81,59.52380952,2,2,10,,,,,,,,1,04,,,,,,,,,,,,,1,1.98,1,,,,,,-0.397364746,-0.247818391,1,0,0,1.9803,Andesite_rect,9,0,9,0,1,
5e5c3cc556ec124282602756,SCR,2024-06-11_12h11.52.927,LearnStrategy,2023.2.3,Linux armv81,59.52380952,2,2,11,,,,,,,,4,01,,,,,,,,,,,,,4,3.256,1,,,,,,0.404299736,-0.257534583,1,0,0,3.2557,Gabbro_rect,10,0,10,0,1,
5e5c3cc556ec124282602756,SCR,2024-06-11_12h11.52.927,LearnStrategy,2023.2.3,Linux armv81,59.52380952,2,2,12,,,,,,,,2,09,,,,,,,,,,,,,2,1.631,1,,,,,,-0.160194159,-0.23949035,1,0,0,1.6311,Basalt_rect,11,0,11,0,1,
5e5c3cc556ec124282602756,SCR,2024-06-11_12h11.52.927,LearnStrategy,2023.2.3,Linux armv81,59.52380952,2,2,13,,,,,,,,5,09,,,,,,,,,,,,,5,1.451,1,,,,,,-0.394590825,-0.3949488,1,0,0,1.451,Obsidian_rect,12,0,12,0,1,
5e5c3cc556ec124282602756,SCR,2024-06-11_12h11.52.927,LearnStrategy,2023.2.3,Linux armv81,59.52380952,2,2,14,,,,,,,,3,07,,,,,,,,,,,,,1,5.03,0,,,,,,-0.394590825,-0.242266337,1,0,0,5.0304,Andesite_rect,13,0,13,0,1,
5e5c3cc556ec124282602756,SCR,2024-06-11_12h11.52.927,LearnStrategy,2023.2.3,Linux armv81,59.52380952,2,2,15,,,,,,,,4,15,,,,,,,,,,,,,4,2.917,1,,,,,,0.37794733,-0.25198253,1,0,0,2.9168,Gabbro_rect,14,0,14,0,1,
5e5c3cc556ec124282602756,SCR,2024-06-11_12h11.52.927,LearnStrategy,2023.2.3,Linux armv81,59.52380952,2,2,16,,,,,,,,6,07,,,,,,,,,,,,,6,2.644,1,,,,,,-0.158807198,-0.38662068,1,0,0,2.6445,Pegmatite_rect,15,0,15,0,1,
5e5c3cc556ec124282602756,SCR,2024-06-11_12h11.52.927,LearnStrategy,2023.2.3,Linux armv81,59.52380952,3,1,1,-0.37378639,0.086694717,1,0,0,2.1878,Pumice_15,8,15,4,2,2.188,1,06,-0.076976379,-0.250594457,1,0,0,2.5835,Basalt_rect,2,2.583,0,0,0,0,0,1,,,,,,,,,,,,,
5e5c3cc556ec124282602756,SCR,2024-06-11_12h11.52.927,LearnStrategy,2023.2.3,Linux armv81,59.52380952,3,1,2,-0.242024918,0.085306724,1,0,0,0.9991,Gabbro_08,4,08,4,3,0.999,2,08,-0.161581119,-0.235326211,1,0,0,1.2941,Basalt_rect,2,1.294,0,1,0,1,0,1,,,,,,,,,,,,,
5e5c3cc556ec124282602756,SCR,2024-06-11_12h11.52.927,LearnStrategy,2023.2.3,Linux armv81,59.52380952,3,1,3,0.08529826,0.090858936,1,0,0,1.1819,Pegmatite_08,6,08,4,5,1.182,8,16,-0.169902861,-0.411604881,1,0,0,2.4434,Pegmatite_rect,6,2.443,1,2,0,2,0,1,,,,,,,,,,,,,
5e5c3cc556ec124282602756,SCR,2024-06-11_12h11.52.927,LearnStrategy,2023.2.3,Linux armv81,59.52380952,3,1,4,0.260055463,0.097799063,1,0,0,1.0023,Gabbro_12,4,12,4,6,1.002,4,08,-0.136615793,-0.26447463,1,0,0,2.2692,Basalt_rect,2,2.269,0,3,0,3,0,1,,,,,,,,,,,,,
5e5c3cc556ec124282602756,SCR,2024-06-11_12h11.52.927,LearnStrategy,2023.2.3,Linux armv81,59.52380952,3,1,5,0.257281701,0.237989187,1,0,0,1.2672,Basalt_06,2,06,5,6,1.267,3,06,-0.423717057,-0.3949488,1,0,0,1.2859,Obsidian_rect,5,1.286,0,4,0,4,0,1,,,,,,,,,,,,,
5e5c3cc556ec124282602756,SCR,2024-06-11_12h11.52.927,LearnStrategy,2023.2.3,Linux armv81,59.52380952,3,1,6,0.118585348,0.257421494,1,0,0,0.7294,Peridotite_10,7,10,5,5,0.729,5,04,-0.394590825,-0.263086478,1,0,0,1.328,Andesite_rect,1,1.328,0,5,0,5,0,1,,,,,,,,,,,,,
5e5c3cc556ec124282602756,SCR,2024-06-11_12h11.52.927,LearnStrategy,2023.2.3,Linux armv81,59.52380952,3,1,7,-0.075589379,0.208840768,1,0,0,0.8662,Diorite_09,3,09,5,4,0.866,4,12,-0.411234389,-0.242266337,1,0,0,2.5972,Andesite_rect,1,2.597,0,6,0,6,0,1,,,,,,,,,,,,,
5e5c3cc556ec124282602756,SCR,2024-06-11_12h11.52.927,LearnStrategy,2023.2.3,Linux armv81,59.52380952,3,1,8,-0.225381374,0.228273074,1,0,0,1.3578,Obsidian_11,5,11,5,3,1.358,1,11,-0.409847428,-0.403276761,1,0,0,1.2854,Obsidian_rect,5,1.285,1,7,0,7,0,1,,,,,,,,,,,,,
5e5c3cc556ec124282602756,SCR,2024-06-11_12h11.52.927,LearnStrategy,2023.2.3,Linux armv81,59.52380952,3,1,9,-0.37517335,0.232436975,1,0,0,1.029,Peridotite_16,7,16,5,2,1.029,3,08,0.38210837,-0.242266337,1,0,0,2.2762,Gabbro_rect,4,2.276,0,8,0,8,0,1,,,,,,,,,,,,,
5e5c3cc556ec124282602756,SCR,2024-06-11_12h11.52.927,LearnStrategy,2023.2.3,Linux armv81,59.52380952,3,1,10,0.25034682,0.433700204,1,0,0,1.3331,Pegmatite_09,6,09,6,6,1.333,5,11,-0.079750339,-0.392172654,1,0,0,4.8698,Pegmatite_rect,6,4.87,1,9,0,9,0,1,,,,,,,,,,,,,
5e5c3cc556ec124282602756,SCR,2024-06-11_12h11.52.927,LearnStrategy,2023.2.3,Linux armv81,59.52380952,3,1,11,0.070041696,0.407327771,1,0,0,1.092,Diorite_10,3,10,6,5,1.092,6,08,-0.401525637,-0.247818391,1,0,0,1.333,Andesite_rect,1,1.333,0,10,0,10,0,1,,,,,,,,,,,,,
5e5c3cc556ec124282602756,SCR,2024-06-11_12h11.52.927,LearnStrategy,2023.2.3,Linux armv81,59.52380952,3,1,12,-0.254507581,0.435088197,1,0,0,1.0993,Pumice_03,8,03,6,3,1.099,7,08,0.364077806,-0.399112701,1,0,0,1.8205,Pumice_rect,8,1.821,1,11,0,11,0,1,,,,,,,,,,,,,
5e5c3cc556ec124282602756,SCR,2024-06-11_12h11.52.927,LearnStrategy,2023.2.3,Linux armv81,59.52380952,3,1,13,0.097780943,-0.247818391,1,0,0,1.2863,Obsidian_07,5,07,2,5,1.286,1,02,0.156033357,-0.247818391,1,0,0,5.9222,Diorite_rect,3,5.922,0,12,0,12,0,1,,,,,,,,,,,,,
5e5c3cc556ec124282602756,SCR,2024-06-11_12h11.52.927,LearnStrategy,2023.2.3,Linux armv81,59.52380952,3,1,14,-0.236477077,-0.249206463,1,0,0,1.2098,Gabbro_14,4,14,2,3,1.21,7,10,0.151872516,-0.25198253,1,0,0,3.274,Diorite_rect,3,3.274,0,13,0,13,0,1,,,,,,,,,,,,,
5e5c3cc556ec124282602756,SCR,2024-06-11_12h11.52.927,LearnStrategy,2023.2.3,Linux armv81,59.52380952,3,1,15,-0.229542255,-0.102076213,1,0,0,1.3785,Andesite_02,1,02,3,3,1.379,3,14,0.372399489,-0.389396509,1,0,0,1.5466,Pumice_rect,8,1.547,0,14,0,14,0,1,,,,,,,,,,,,,
5e5c3cc556ec124282602756,SCR,2024-06-11_12h11.52.927,LearnStrategy,2023.2.3,Linux armv81,59.52380952,3,1,16,0.228155375,-0.106240114,1,0,0,0.9831,Pegmatite_11,6,11,3,6,0.983,3,09,-0.151872396,-0.3949488,1,0,0,2.3547,Pegmatite_rect,6,2.355,1,15,0,15,0,1,,,,,,,,,,,,,
5e5c3cc556ec124282602756,SCR,2024-06-11_12h11.52.927,LearnStrategy,2023.2.3,Linux armv81,59.52380952,3,2,1,,,,,,,,2,14,,,,,,,,,,,,,2,3.112,1,,,,,,-0.143550555,-0.243654251,1,0,0,3.1121,Basalt_rect,0,0,0,0,1,
5e5c3cc556ec124282602756,SCR,2024-06-11_12h11.52.927,LearnStrategy,2023.2.3,Linux armv81,59.52380952,3,2,2,,,,,,,,4,11,,,,,,,,,,,,,2,1.527,0,,,,,,-0.154646317,-0.242266337,1,0,0,1.5268,Basalt_rect,1,0,1,0,1,
5e5c3cc556ec124282602756,SCR,2024-06-11_12h11.52.927,LearnStrategy,2023.2.3,Linux armv81,59.52380952,3,2,3,,,,,,,,1,01,,,,,,,,,,,,,3,3.746,0,,,,,,0.182385604,-0.231162151,1,0,0,3.746,Diorite_rect,2,0,2,0,1,
5e5c3cc556ec124282602756,SCR,2024-06-11_12h11.52.927,LearnStrategy,2023.2.3,Linux armv81,59.52380952,3,2,4,,,,,,,,5,05,,,,,,,,,,,,,6,2.001,0,,,,,,-0.175450703,-0.406052907,1,0,0,2.0013,Pegmatite_rect,3,0,3,0,1,
5e5c3cc556ec124282602756,SCR,2024-06-11_12h11.52.927,LearnStrategy,2023.2.3,Linux armv81,59.52380952,3,2,5,,,,,,,,5,12,,,,,,,,,,,,,5,1.229,1,,,,,,-0.408460468,-0.38662068,1,0,0,1.2291,Obsidian_rect,4,0,4,0,1,
5e5c3cc556ec124282602756,SCR,2024-06-11_12h11.52.927,LearnStrategy,2023.2.3,Linux armv81,59.52380952,3,2,6,,,,,,,,1,03,,,,,,,,,,,,,4,4.226,0,,,,,,0.405686537,-0.25198253,1,0,0,4.2258,Gabbro_rect,5,0,5,0,1,
5e5c3cc556ec124282602756,SCR,2024-06-11_12h11.52.927,LearnStrategy,2023.2.3,Linux armv81,59.52380952,3,2,7,,,,,,,,6,03,,,,,,,,,,,,,6,1.693,1,,,,,,-0.178224683,-0.415768941,1,0,0,1.6931,Pegmatite_rect,6,0,6,0,1,
5e5c3cc556ec124282602756,SCR,2024-06-11_12h11.52.927,LearnStrategy,2023.2.3,Linux armv81,59.52380952,3,2,8,,,,,,,,3,15,,,,,,,,,,,,,1,1.53,0,,,,,,-0.384882083,-0.238102277,1,0,0,1.5303,Andesite_rect,7,0,7,0,1,
5e5c3cc556ec124282602756,SCR,2024-06-11_12h11.52.927,LearnStrategy,2023.2.3,Linux armv81,59.52380952,3,2,9,,,,,,,,8,09,,,,,,,,,,,,,8,1.334,1,,,,,,0.379334291,-0.390784582,1,0,0,1.3338,Pumice_rect,8,0,8,0,1,
5e5c3cc556ec124282602756,SCR,2024-06-11_12h11.52.927,LearnStrategy,2023.2.3,Linux armv81,59.52380952,3,2,10,,,,,,,,6,10,,,,,,,,,,,,,6,4.278,1,,,,,,-0.160194159,-0.404664675,1,0,0,4.2777,Pegmatite_rect,9,0,9,0,1,
5e5c3cc556ec124282602756,SCR,2024-06-11_12h11.52.927,LearnStrategy,2023.2.3,Linux armv81,59.52380952,3,2,11,,,,,,,,3,02,,,,,,,,,,,,,3,2.926,1,,,,,,0.183772643,-0.232550224,1,0,0,2.9265,Diorite_rect,10,0,10,0,1,
5e5c3cc556ec124282602756,SCR,2024-06-11_12h11.52.927,LearnStrategy,2023.2.3,Linux armv81,59.52380952,3,2,12,,,,,,,,7,05,,,,,,,,,,,,,2,2.97,0,,,,,,-0.158807198,-0.267250697,1,0,0,2.9705,Basalt_rect,11,0,11,0,1,
5e5c3cc556ec124282602756,SCR,2024-06-11_12h11.52.927,LearnStrategy,2023.2.3,Linux armv81,59.52380952,3,2,13,,,,,,,,2,05,,,,,,,,,,,,,5,1.378,0,,,,,,-0.414008319,-0.393560727,1,0,0,1.3775,Obsidian_rect,12,0,12,0,1,
5e5c3cc556ec124282602756,SCR,2024-06-11_12h11.52.927,LearnStrategy,2023.2.3,Linux armv81,59.52380952,3,2,14,,,,,,,,7,13,,,,,,,,,,,,,4,3.444,0,,,,,,0.368238608,-0.258922577,1,0,0,3.4443,Gabbro_rect,13,0,13,0,1,
5e5c3cc556ec124282602756,SCR,2024-06-11_12h11.52.927,LearnStrategy,2023.2.3,Linux armv81,59.52380952,3,2,15,,,,,,,,4,09,,,,,,,,,,,,,2,3.586,0,,,,,,-0.168515901,-0.228386164,1,0,0,3.5856,Basalt_rect,14,0,14,0,1,
5e5c3cc556ec124282602756,SCR,2024-06-11_12h11.52.927,LearnStrategy,2023.2.3,Linux armv81,59.52380952,3,2,16,,,,,,,,8,05,,,,,,,,,,,,,8,1.323,1,,,,,,0.38210837,-0.40744098,1,0,0,1.3226,Pumice_rect,15,0,15,0,1,
5e5c3cc556ec124282602756,SCR,2024-06-11_12h11.52.927,LearnStrategy,2023.2.3,Linux armv81,59.52380952,4,1,1,-0.237864037,0.403163671,1,0,0,4.3531,Pumice_03,8,03,6,3,4.353,7,04,0.346047242,-0.396336555,1,0,0,1.7427,Pumice_rect,8,1.743,1,0,0,0,0,1,,,,,,,,,,,,,
5e5c3cc556ec124282602756,SCR,2024-06-11_12h11.52.927,LearnStrategy,2023.2.3,Linux armv81,59.52380952,4,1,2,-0.217059612,0.235213121,1,0,0,1.5135,Obsidian_11,5,11,5,3,1.514,7,08,-0.387656013,-0.414381186,1,0,0,2.2005,Obsidian_rect,5,2.2,1,1,0,1,0,1,,,,,,,,,,,,,
5e5c3cc556ec124282602756,SCR,2024-06-11_12h11.52.927,LearnStrategy,2023.2.3,Linux armv81,59.52380952,4,1,3,-0.389042974,-0.276966731,1,0,0,2.0497,Peridotite_08,7,08,2,2,2.05,5,04,-0.407073508,-0.253370365,1,0,0,1.2692,Andesite_rect,1,1.269,0,2,0,2,0,1,,,,,,,,,,,,,
5e5c3cc556ec124282602756,SCR,2024-06-11_12h11.52.927,LearnStrategy,2023.2.3,Linux armv81,59.52380952,4,1,4,-0.430651863,-0.258922577,1,0,0,0.8294,Peridotite_08,7,08,2,2,0.829,1,02,0.08668526,-0.396336555,1,0,0,1.0068,Peridotite_rect,7,1.007,1,3,0,3,0,1,,,,,,,,,,,,,
5e5c3cc556ec124282602756,SCR,2024-06-11_12h11.52.927,LearnStrategy,2023.2.3,Linux armv81,59.52380952,4,1,5,-0.24895974,-0.425485134,1,0,0,2.0214,Gabbro_10,4,10,1,3,2.021,3,10,-0.154646317,-0.25198253,1,0,0,2.0057,Basalt_rect,2,2.006,0,4,0,4,0,1,,,,,,,,,,,,,
5e5c3cc556ec124282602756,SCR,2024-06-11_12h11.52.927,LearnStrategy,2023.2.3,Linux armv81,59.52380952,4,1,6,0.040915489,0.243541161,1,0,0,2.2545,Peridotite_10,7,10,5,5,2.255,4,10,0.115811388,-0.249206463,1,0,0,5.273,Diorite_rect,3,5.273,0,5,0,5,0,1,,,,,,,,,,,,,
5e5c3cc556ec124282602756,SCR,2024-06-11_12h11.52.927,LearnStrategy,2023.2.3,Linux armv81,59.52380952,4,1,7,0.366851648,0.07975467,1,0,0,3.203,Diorite_06,3,06,4,7,3.203,8,14,-0.397364746,-0.246430477,1,0,0,2.9817,Andesite_rect,1,2.982,0,6,0,6,0,1,,,,,,,,,,,,,
5e5c3cc556ec124282602756,SCR,2024-06-11_12h11.52.927,LearnStrategy,2023.2.3,Linux armv81,59.52380952,4,1,8,0.215672731,-0.25614659,1,0,0,7.6357,Andesite_06,1,06,2,6,7.636,2,06,-0.362690687,-0.240878344,1,0,0,1.2831,Andesite_rect,1,1.283,1,7,0,7,0,1,,,,,,,,,,,,,
5e5c3cc556ec124282602756,SCR,2024-06-11_12h11.52.927,LearnStrategy,2023.2.3,Linux armv81,59.52380952,4,1,9,0.070041696,-0.421321233,1,0,0,1.0686,Basalt_12,2,12,1,5,1.069,3,10,-0.147711476,-0.238102277,1,0,0,1.6264,Basalt_rect,2,1.626,1,8,0,8,0,1,,,,,,,,,,,,,
5e5c3cc556ec124282602756,SCR,2024-06-11_12h11.52.927,LearnStrategy,2023.2.3,Linux armv81,59.52380952,4,1,10,0.217059692,-0.421321233,1,0,0,1.1935,Basalt_11,2,11,1,6,1.193,1,02,-0.133841872,-0.240878344,1,0,0,2.5762,Basalt_rect,2,2.576,1,9,0,9,0,1,,,,,,,,,,,,,
5e5c3cc556ec124282602756,SCR,2024-06-11_12h11.52.927,LearnStrategy,2023.2.3,Linux armv81,59.52380952,4,1,11,-0.253120621,0.09641091,1,0,0,3.3163,Gabbro_08,4,08,4,3,3.316,4,13,-0.16712894,-0.236714125,1,0,0,2.6763,Basalt_rect,2,2.676,0,10,0,10,0,1,,,,,,,,,,,,,
5e5c3cc556ec124282602756,SCR,2024-06-11_12h11.52.927,LearnStrategy,2023.2.3,Linux armv81,59.52380952,4,1,12,0.040915489,0.274077654,1,0,0,3.0431,Peridotite_10,7,10,5,5,3.043,7,16,0.394590855,-0.249206463,1,0,0,3.6089,Gabbro_rect,4,3.609,0,11,0,11,0,1,,,,,,,,,,,,,
5e5c3cc556ec124282602756,SCR,2024-06-11_12h11.52.927,LearnStrategy,2023.2.3,Linux armv81,59.52380952,4,1,13,0.093620022,0.392059565,1,0,0,1.9535,Diorite_10,3,10,6,5,1.953,6,16,-0.395977785,-0.25198253,1,0,0,0.8864,Andesite_rect,1,0.886,0,12,0,12,0,1,,,,,,,,,,,,,
5e5c3cc556ec124282602756,SCR,2024-06-11_12h11.52.927,LearnStrategy,2023.2.3,Linux armv81,59.52380952,4,1,14,0.383495172,0.210228682,1,0,0,1.0542,Obsidian_02,5,02,5,7,1.054,4,08,-0.37378639,-0.3949488,1,0,0,0.9495,Obsidian_rect,5,0.95,1,13,0,13,0,1,,,,,,,,,,,,,
5e5c3cc556ec124282602756,SCR,2024-06-11_12h11.52.927,LearnStrategy,2023.2.3,Linux armv81,59.52380952,4,1,15,-0.407073508,-0.120120446,1,0,0,1.7637,Obsidian_04,5,04,3,2,1.764,3,09,-0.398751716,-0.396336555,1,0,0,1.7222,Obsidian_rect,5,1.722,1,14,0,14,0,1,,,,,,,,,,,,,
5e5c3cc556ec124282602756,SCR,2024-06-11_12h11.52.927,LearnStrategy,2023.2.3,Linux armv81,59.52380952,4,1,16,-0.393203864,0.407327771,1,0,0,0.8163,Andesite_14,1,14,6,2,0.816,5,07,-0.138002714,-0.401889006,1,0,0,3.1024,Pegmatite_rect,6,3.102,0,15,0,15,0,1,,,,,,,,,,,,,
5e5c3cc556ec124282602756,SCR,2024-06-11_12h11.52.927,LearnStrategy,2023.2.3,Linux armv81,59.52380952,4,2,1,,,,,,,,8,13,,,,,,,,,,,,,8,2.934,1,,,,,,0.415395419,-0.406052907,1,0,0,2.934,Pumice_rect,0,0,0,0,1,
5e5c3cc556ec124282602756,SCR,2024-06-11_12h11.52.927,LearnStrategy,2023.2.3,Linux armv81,59.52380952,4,2,2,,,,,,,,5,09,,,,,,,,,,,,,5,1.271,1,,,,,,-0.423717057,-0.410216808,1,0,0,1.2708,Obsidian_rect,1,0,1,0,1,
5e5c3cc556ec124282602756,SCR,2024-06-11_12h11.52.927,LearnStrategy,2023.2.3,Linux armv81,59.52380952,4,2,3,,,,,,,,7,02,,,,,,,,,,,,,7,3.742,1,,,,,,0.140776714,-0.388008753,1,0,0,3.7417,Peridotite_rect,2,0,2,0,1,
5e5c3cc556ec124282602756,SCR,2024-06-11_12h11.52.927,LearnStrategy,2023.2.3,Linux armv81,59.52380952,4,2,4,,,,,,,,2,02,,,,,,,,,,,,,2,2.41,1,,,,,,-0.139389714,-0.240878344,1,0,0,2.4103,Basalt_rect,3,0,3,0,1,
5e5c3cc556ec124282602756,SCR,2024-06-11_12h11.52.927,LearnStrategy,2023.2.3,Linux armv81,59.52380952,4,2,5,,,,,,,,7,12,,,,,,,,,,,,,3,4.639,0,,,,,,0.144937674,-0.236714125,1,0,0,4.6385,Diorite_rect,4,0,4,0,1,
5e5c3cc556ec124282602756,SCR,2024-06-11_12h11.52.927,LearnStrategy,2023.2.3,Linux armv81,59.52380952,4,2,6,,,,,,,,6,10,,,,,,,,,,,,,6,2.231,1,,,,,,-0.111650387,-0.392172654,1,0,0,2.2308,Pegmatite_rect,5,0,5,0,1,
5e5c3cc556ec124282602756,SCR,2024-06-11_12h11.52.927,LearnStrategy,2023.2.3,Linux armv81,59.52380952,4,2,7,,,,,,,,4,09,,,,,,,,,,,,,2,5.102,0,,,,,,-0.154646317,-0.25198253,1,0,0,5.1021,Basalt_rect,6,0,6,0,1,
5e5c3cc556ec124282602756,SCR,2024-06-11_12h11.52.927,LearnStrategy,2023.2.3,Linux armv81,59.52380952,4,2,8,,,,,,,,6,13,,,,,,,,,,,,,6,2.097,1,,,,,,-0.132454872,-0.385232449,1,0,0,2.097,Pegmatite_rect,7,0,7,0,1,
5e5c3cc556ec124282602756,SCR,2024-06-11_12h11.52.927,LearnStrategy,2023.2.3,Linux armv81,59.52380952,4,2,9,,,,,,,,4,03,,,,,,,,,,,,,1,3.313,0,,,,,,-0.433425789,-0.236714125,1,0,0,3.3125,Andesite_rect,8,0,8,0,1,
5e5c3cc556ec124282602756,SCR,2024-06-11_12h11.52.927,LearnStrategy,2023.2.3,Linux armv81,59.52380952,4,2,10,,,,,,,,5,10,,,,,,,,,,,,,5,1.634,1,,,,,,-0.404299557,-0.417156855,1,0,0,1.634,Obsidian_rect,9,0,9,0,1,
5e5c3cc556ec124282602756,SCR,2024-06-11_12h11.52.927,LearnStrategy,2023.2.3,Linux armv81,59.52380952,4,2,11,,,,,,,,2,05,,,,,,,,,,,,,2,2.281,1,,,,,,-0.131067952,-0.228386164,1,0,0,2.2812,Basalt_rect,10,0,10,0,1,
5e5c3cc556ec124282602756,SCR,2024-06-11_12h11.52.927,LearnStrategy,2023.2.3,Linux armv81,59.52380952,4,2,12,,,,,,,,3,12,,,,,,,,,,,,,4,2.556,0,,,,,,0.414008458,-0.247818391,1,0,0,2.5561,Gabbro_rect,11,0,11,0,1,
5e5c3cc556ec124282602756,SCR,2024-06-11_12h11.52.927,LearnStrategy,2023.2.3,Linux armv81,59.52380952,4,2,13,,,,,,,,1,04,,,,,,,,,,,,,3,2.228,0,,,,,,0.153259436,-0.231162151,1,0,0,2.2275,Diorite_rect,12,0,12,0,1,
5e5c3cc556ec124282602756,SCR,2024-06-11_12h11.52.927,LearnStrategy,2023.2.3,Linux armv81,59.52380952,4,2,14,,,,,,,,8,08,,,,,,,,,,,,,2,1.622,0,,,,,,-0.160194159,-0.247818391,1,0,0,1.6223,Basalt_rect,13,0,13,0,1,
5e5c3cc556ec124282602756,SCR,2024-06-11_12h11.52.927,LearnStrategy,2023.2.3,Linux armv81,59.52380952,4,2,15,,,,,,,,1,03,,,,,,,,,,,,,3,3.361,0,,,,,,0.151872516,-0.23949035,1,0,0,3.361,Diorite_rect,14,0,14,0,1,
5e5c3cc556ec124282602756,SCR,2024-06-11_12h11.52.927,LearnStrategy,2023.2.3,Linux armv81,59.52380952,4,2,16,,,,,,,,3,13,,,,,,,,,,,,,1,1.199,0,,,,,,-0.426490982,-0.249206463,1,0,0,1.199,Andesite_rect,15,0,15,0,1,
5e5c3cc556ec124282602756,SCR,2024-06-11_12h11.52.927,LearnStrategy,2023.2.3,Linux armv81,59.52380952,5,1,1,-0.401525637,0.415655851,1,0,0,0.8464,Andesite_14,1,14,6,2,0.846,4,10,-0.387656013,-0.249206463,1,0,0,1.7306,Andesite_rect,1,1.731,1,0,0,0,0,1,,,,,,,,,,,,,
5e5c3cc556ec124282602756,SCR,2024-06-11_12h11.52.927,LearnStrategy,2023.2.3,Linux armv81,59.52380952,5,1,2,-0.243411879,0.404551705,1,0,0,0.8655,Pumice_03,8,03,6,3,0.865,7,14,-0.151872396,-0.245042404,1,0,0,1.4063,Basalt_rect,2,1.406,0,1,0,1,0,1,,,,,,,,,,,,,
5e5c3cc556ec124282602756,SCR,2024-06-11_12h11.52.927,LearnStrategy,2023.2.3,Linux armv81,59.52380952,5,1,3,-0.229542255,0.410103798,1,0,0,0.9088,Pumice_03,8,03,6,3,0.909,3,09,0.361303806,-0.382456303,1,0,0,3.5675,Pumice_rect,8,3.567,1,2,0,2,0,1,,,,,,,,,,,,,
5e5c3cc556ec124282602756,SCR,2024-06-11_12h11.52.927,LearnStrategy,2023.2.3,Linux armv81,59.52380952,5,1,4,-0.096393863,0.436476231,1,0,0,1.0204,Pegmatite_05,6,05,6,4,1.02,7,07,-0.129680951,-0.378292402,1,0,0,1.3001,Pegmatite_rect,6,1.3,1,3,0,3,0,1,,,,,,,,,,,,,
5e5c3cc556ec124282602756,SCR,2024-06-11_12h11.52.927,LearnStrategy,2023.2.3,Linux armv81,59.52380952,5,1,5,0.054785093,0.411491831,1,0,0,1.3552,Diorite_10,3,10,6,5,1.355,3,16,-0.398751716,-0.235326211,1,0,0,1.2999,Andesite_rect,1,1.3,0,4,0,4,0,1,,,,,,,,,,,,,
5e5c3cc556ec124282602756,SCR,2024-06-11_12h11.52.927,LearnStrategy,2023.2.3,Linux armv81,59.52380952,5,1,6,0.032593687,0.382343451,1,0,0,1.4471,Diorite_10,3,10,6,5,1.447,4,12,0.104715705,-0.254758517,1,0,0,4.8617,Diorite_rect,3,4.862,1,5,0,5,0,1,,,,,,,,,,,,,
5e5c3cc556ec124282602756,SCR,2024-06-11_12h11.52.927,LearnStrategy,2023.2.3,Linux armv81,59.52380952,5,1,7,0.226768414,0.398999612,1,0,0,1.4278,Pegmatite_09,6,09,6,6,1.428,1,05,-0.147711476,-0.38662068,1,0,0,1.3365,Pegmatite_rect,6,1.337,1,6,0,6,0,1,,,,,,,,,,,,,
5e5c3cc556ec124282602756,SCR,2024-06-11_12h11.52.927,LearnStrategy,2023.2.3,Linux armv81,59.52380952,5,1,8,0.361303806,0.392059565,1,0,0,1.2096,Peridotite_04,7,04,6,7,1.21,5,04,0.08529826,-0.25614659,1,0,0,4.9002,Diorite_rect,3,4.9,0,7,0,7,0,1,,,,,,,,,,,,,
5e5c3cc556ec124282602756,SCR,2024-06-11_12h11.52.927,LearnStrategy,2023.2.3,Linux armv81,59.52380952,5,1,9,0.375173489,0.387895425,1,0,0,1.1774,Peridotite_04,7,04,6,7,1.177,1,02,0.147711595,-0.396336555,1,0,0,2.6808,Peridotite_rect,7,2.681,1,8,0,8,0,1,,,,,,,,,,,,,
5e5c3cc556ec124282602756,SCR,2024-06-11_12h11.52.927,LearnStrategy,2023.2.3,Linux armv81,59.52380952,5,1,10,-0.430651863,0.235213121,1,0,0,0.7602,Peridotite_16,7,16,5,2,0.76,3,08,0.136615912,-0.401889006,1,0,0,2.1247,Peridotite_rect,7,2.125,1,9,0,9,0,1,,,,,,,,,,,,,
5e5c3cc556ec124282602756,SCR,2024-06-11_12h11.52.927,LearnStrategy,2023.2.3,Linux armv81,59.52380952,5,1,11,-0.271151145,0.243541161,1,0,0,1.164,Obsidian_11,5,11,5,3,1.164,6,06,-0.390429934,-0.415768941,1,0,0,1.6228,Obsidian_rect,5,1.623,1,10,0,10,0,1,,,,,,,,,,,,,
5e5c3cc556ec124282602756,SCR,2024-06-11_12h11.52.927,LearnStrategy,2023.2.3,Linux armv81,59.52380952,5,1,12,-0.076976379,0.233825048,1,0,0,1.3186,Diorite_09,3,09,5,4,1.319,8,15,0.111650586,-0.26031057,1,0,0,2.5504,Diorite_rect,3,2.55,1,11,0,11,0,1,,,,,,,,,,,,,
5e5c3cc556ec124282602756,SCR,2024-06-11_12h11.52.927,LearnStrategy,2023.2.3,Linux armv81,59.52380952,5,1,13,0.063106855,0.26436162,1,0,0,1.0166,Peridotite_10,7,10,5,5,1.017,2,10,0.114424507,-0.400500933,1,0,0,2.604,Peridotite_rect,7,2.604,1,12,0,12,0,1,,,,,,,,,,,,,
5e5c3cc556ec124282602756,SCR,2024-06-11_12h11.52.927,LearnStrategy,2023.2.3,Linux armv81,59.52380952,5,1,14,0.187933445,0.258809487,1,0,0,0.8824,Basalt_06,2,06,5,6,0.882,1,11,-0.142163634,-0.270026684,1,0,0,1.0208,Basalt_rect,2,1.021,1,13,0,13,0,1,,,,,,,,,,,,,
5e5c3cc556ec124282602756,SCR,2024-06-11_12h11.52.927,LearnStrategy,2023.2.3,Linux armv81,59.52380952,5,1,15,0.359916925,0.262973468,1,0,0,0.8425,Obsidian_02,5,02,5,7,0.842,1,09,-0.422330091,-0.406052907,1,0,0,0.9669,Obsidian_rect,5,0.967,1,14,0,14,0,1,,,,,,,,,,,,,
5e5c3cc556ec124282602756,SCR,2024-06-11_12h11.52.927,LearnStrategy,2023.2.3,Linux armv81,59.52380952,5,1,16,-0.401525637,0.092246771,1,0,0,0.922,Pumice_15,8,15,4,2,0.922,4,14,0.375173489,-0.388008753,1,0,0,2.1091,Pumice_rect,8,2.109,1,15,0,15,0,1,,,,,,,,,,,,,
5e5c3cc556ec124282602756,SCR,2024-06-11_12h11.52.927,LearnStrategy,2023.2.3,Linux armv81,59.52380952,5,2,1,,,,,,,,8,09,,,,,,,,,,,,,8,3.062,1,,,,,,0.380721331,-0.396336555,1,0,0,3.0623,Pumice_rect,0,0,0,0,1,
5e5c3cc556ec124282602756,SCR,2024-06-11_12h11.52.927,LearnStrategy,2023.2.3,Linux armv81,59.52380952,5,2,2,,,,,,,,4,11,,,,,,,,,,,,,2,2.309,0,,,,,,-0.158807198,-0.238102277,1,0,0,2.3093,Basalt_rect,1,0,1,0,1,
5e5c3cc556ec124282602756,SCR,2024-06-11_12h11.52.927,LearnStrategy,2023.2.3,Linux armv81,59.52380952,5,2,3,,,,,,,,5,12,,,,,,,,,,,,,5,2.224,1,,,,,,-0.387656013,-0.414381186,1,0,0,2.2237,Obsidian_rect,2,0,2,0,1,
5e5c3cc556ec124282602756,SCR,2024-06-11_12h11.52.927,LearnStrategy,2023.2.3,Linux armv81,59.52380952,5,2,4,,,,,,,,4,16,,,,,,,,,,,,,2,3.254,0,,,,,,-0.12135915,-0.245042404,1,0,0,3.2538,Basalt_rect,3,0,3,0,1,
5e5c3cc556ec124282602756,SCR,2024-06-11_12h11.52.927,LearnStrategy,2023.2.3,Linux armv81,59.52380952,5,2,5,,,,,,,,6,03,,,,,,,,,,,,,6,1.529,1,,,,,,-0.176837663,-0.400500933,1,0,0,1.5286,Pegmatite_rect,4,0,4,0,1,
5e5c3cc556ec124282602756,SCR,2024-06-11_12h11.52.927,LearnStrategy,2023.2.3,Linux armv81,59.52380952,5,2,6,,,,,,,,5,06,,,,,,,,,,,,,5,1.678,1,,,,,,-0.391816904,-0.414381186,1,0,0,1.6781,Obsidian_rect,5,0,5,0,1,
5e5c3cc556ec124282602756,SCR,2024-06-11_12h11.52.927,LearnStrategy,2023.2.3,Linux armv81,59.52380952,5,2,7,,,,,,,,7,15,,,,,,,,,,,,,7,1.791,1,,,,,,0.136615912,-0.404664675,1,0,0,1.7912,Peridotite_rect,6,0,6,0,1,
5e5c3cc556ec124282602756,SCR,2024-06-11_12h11.52.927,LearnStrategy,2023.2.3,Linux armv81,59.52380952,5,2,8,,,,,,,,6,12,,,,,,,,,,,,,6,1.976,1,,,,,,-0.153259357,-0.385232449,1,0,0,1.9757,Pegmatite_rect,7,0,7,0,1,
5e5c3cc556ec124282602756,SCR,2024-06-11_12h11.52.927,LearnStrategy,2023.2.3,Linux armv81,59.52380952,5,2,9,,,,,,,,8,06,,,,,,,,,,,,,8,1.658,1,,,,,,0.408460617,-0.401889006,1,0,0,1.658,Pumice_rect,8,0,8,0,1,
5e5c3cc556ec124282602756,SCR,2024-06-11_12h11.52.927,LearnStrategy,2023.2.3,Linux armv81,59.52380952,5,2,10,,,,,,,,3,02,,,,,,,,,,,,,3,4.872,1,,,,,,0.162968198,-0.238102277,1,0,0,4.8724,Diorite_rect,9,0,9,0,1,
5e5c3cc556ec124282602756,SCR,2024-06-11_12h11.52.927,LearnStrategy,2023.2.3,Linux armv81,59.52380952,5,2,11,,,,,,,,1,07,,,,,,,,,,,,,3,2.752,0,,,,,,0.12552019,-0.243654251,1,0,0,2.7519,Diorite_rect,10,0,10,0,1,
5e5c3cc556ec124282602756,SCR,2024-06-11_12h11.52.927,LearnStrategy,2023.2.3,Linux armv81,59.52380952,5,2,12,,,,,,,,3,07,,,,,,,,,,,,,1,3.646,0,,,,,,-0.408460468,-0.250594457,1,0,0,3.6458,Andesite_rect,11,0,11,0,1,
5e5c3cc556ec124282602756,SCR,2024-06-11_12h11.52.927,LearnStrategy,2023.2.3,Linux armv81,59.52380952,5,2,13,,,,,,,,2,01,,,,,,,,,,,,,2,1.118,1,,,,,,-0.154646317,-0.250594457,1,0,0,1.1184,Basalt_rect,12,0,12,0,1,
5e5c3cc556ec124282602756,SCR,2024-06-11_12h11.52.927,LearnStrategy,2023.2.3,Linux armv81,59.52380952,5,2,14,,,,,,,,7,13,,,,,,,,,,,,,7,5.141,1,,,,,,0.12690711,-0.390784582,1,0,0,5.1411,Peridotite_rect,13,0,13,0,1,
5e5c3cc556ec124282602756,SCR,2024-06-11_12h11.52.927,LearnStrategy,2023.2.3,Linux armv81,59.52380952,5,2,15,,,,,,,,2,14,,,,,,,,,,,,,4,1.105,0,,,,,,0.37794733,-0.228386164,1,0,0,1.1046,Gabbro_rect,14,0,14,0,1,
5e5c3cc556ec124282602756,SCR,2024-06-11_12h11.52.927,LearnStrategy,2023.2.3,Linux armv81,59.52380952,5,2,16,,,,,,,,1,10,,,,,,,,,,,,,8,1.255,0,,,,,,0.393204053,-0.393560727,1,0,0,1.2553,Pumice_rect,15,0,15,0,1,
5e5c3cc556ec124282602756,SCR,2024-06-11_12h11.52.927,LearnStrategy,2023.2.3,Linux armv81,59.52380952,6,1,1,-0.411234389,0.074202696,1,0,0,2.5947,Pumice_15,8,15,4,2,2.595,3,10,0.376560529,-0.414381186,1,0,0,1.2128,Pumice_rect,8,1.213,1,0,0,0,0,1,,,,,,,,,,,,,
5e5c3cc556ec124282602756,SCR,2024-06-11_12h11.52.927,LearnStrategy,2023.2.3,Linux armv81,59.52380952,6,1,2,-0.219833533,0.074202696,1,0,0,1.495,Gabbro_08,4,08,4,3,1.495,7,10,-0.146324515,-0.242266337,1,0,0,1.5547,Basalt_rect,2,1.555,0,1,0,1,0,1,,,,,,,,,,,,,
5e5c3cc556ec124282602756,SCR,2024-06-11_12h11.52.927,LearnStrategy,2023.2.3,Linux armv81,59.52380952,6,1,3,-0.253120621,0.08391881,1,0,0,0.7035,Gabbro_08,4,08,4,3,0.704,3,14,0.383495172,-0.238102277,1,0,0,3.7277,Gabbro_rect,4,3.728,1,2,0,2,0,1,,,,,,,,,,,,,
5e5c3cc556ec124282602756,SCR,2024-06-11_12h11.52.927,LearnStrategy,2023.2.3,Linux armv81,59.52380952,6,1,4,-0.115811308,0.068650405,1,0,0,0.9243,Basalt_16,2,16,4,4,0.924,4,12,0.369625648,-0.240878344,1,0,0,2.135,Gabbro_rect,4,2.135,0,3,0,3,0,1,,,,,,,,,,,,,
5e5c3cc556ec124282602756,SCR,2024-06-11_12h11.52.927,LearnStrategy,2023.2.3,Linux armv81,59.52380952,6,1,5,0.097780943,0.110291163,1,0,0,0.785,Pegmatite_08,6,08,4,5,0.785,3,14,-0.151872396,-0.403276761,1,0,0,1.1814,Pegmatite_rect,6,1.181,1,4,0,4,0,1,,,,,,,,,,,,,
5e5c3cc556ec124282602756,SCR,2024-06-11_12h11.52.927,LearnStrategy,2023.2.3,Linux armv81,59.52380952,6,1,6,0.25034682,0.065874418,1,0,0,0.8427,Gabbro_12,4,12,4,6,0.843,6,09,0.412621419,-0.25614659,1,0,0,3.4672,Gabbro_rect,4,3.467,1,5,0,5,0,1,,,,,,,,,,,,,
5e5c3cc556ec124282602756,SCR,2024-06-11_12h11.52.927,LearnStrategy,2023.2.3,Linux armv81,59.52380952,6,1,7,0.373786449,0.058934291,1,0,0,0.8104,Diorite_06,3,06,4,7,0.81,8,16,-0.394590825,-0.231162151,1,0,0,2.6176,Andesite_rect,1,2.618,0,6,0,6,0,1,,,,,,,,,,,,,
5e5c3cc556ec124282602756,SCR,2024-06-11_12h11.52.927,LearnStrategy,2023.2.3,Linux armv81,59.52380952,6,1,8,-0.384882083,-0.139552673,1,0,0,1.3404,Obsidian_04,5,04,3,2,1.34,1,11,-0.397364746,-0.410216808,1,0,0,2.5047,Obsidian_rect,5,2.505,1,7,0,7,0,1,,,,,,,,,,,,,
5e5c3cc556ec124282602756,SCR,2024-06-11_12h11.52.927,LearnStrategy,2023.2.3,Linux armv81,59.52380952,6,1,9,-0.278085947,-0.096524,1,0,0,0.8996,Andesite_02,1,02,3,3,0.9,1,14,0.386269252,-0.232550224,1,0,0,3.1888,Gabbro_rect,4,3.189,0,8,0,8,0,1,,,,,,,,,,,,,
5e5c3cc556ec124282602756,SCR,2024-06-11_12h11.52.927,LearnStrategy,2023.2.3,Linux armv81,59.52380952,6,1,10,-0.065880696,-0.099299987,1,0,0,0.7915,Gabbro_13,4,13,3,4,0.792,4,08,-0.405686547,-0.247818391,1,0,0,1.4586,Andesite_rect,1,1.459,0,9,0,9,0,1,,,,,,,,,,,,,
5e5c3cc556ec124282602756,SCR,2024-06-11_12h11.52.927,LearnStrategy,2023.2.3,Linux armv81,59.52380952,6,1,11,0.095007022,-0.063211441,1,0,0,1.3549,Obsidian_14,5,14,3,5,1.355,7,16,-0.376560311,-0.415768941,1,0,0,1.7988,Obsidian_rect,5,1.799,1,10,0,10,0,1,,,,,,,,,,,,,
5e5c3cc556ec124282602756,SCR,2024-06-11_12h11.52.927,LearnStrategy,2023.2.3,Linux armv81,59.52380952,6,1,12,0.21151185,-0.117344379,1,0,0,1.393,Pegmatite_11,6,11,3,6,1.393,4,13,-0.160194159,-0.410216808,1,0,0,0.9484,Pegmatite_rect,6,0.948,1,11,0,11,0,1,,,,,,,,,,,,,
5e5c3cc556ec124282602756,SCR,2024-06-11_12h11.52.927,LearnStrategy,2023.2.3,Linux armv81,59.52380952,6,1,13,0.423717101,-0.107628266,1,0,0,0.8632,Pumice_10,8,10,3,7,0.863,2,08,0.394590855,-0.403276761,1,0,0,2.2162,Pumice_rect,8,2.216,1,12,0,12,0,1,,,,,,,,,,,,,
5e5c3cc556ec124282602756,SCR,2024-06-11_12h11.52.927,LearnStrategy,2023.2.3,Linux armv81,59.52380952,6,1,14,-0.351594994,-0.246430477,1,0,0,0.9824,Peridotite_08,7,08,2,2,0.982,4,10,0.157420357,-0.389396509,1,0,0,2.0054,Peridotite_rect,7,2.005,1,13,0,13,0,1,,,,,,,,,,,,,
5e5c3cc556ec124282602756,SCR,2024-06-11_12h11.52.927,LearnStrategy,2023.2.3,Linux armv81,59.52380952,6,1,15,-0.236477077,-0.232550224,1,0,0,1.0956,Gabbro_14,4,14,2,3,1.096,5,14,0.391817093,-0.23949035,1,0,0,2.1447,Gabbro_rect,4,2.145,1,14,0,14,0,1,,,,,,,,,,,,,
5e5c3cc556ec124282602756,SCR,2024-06-11_12h11.52.927,LearnStrategy,2023.2.3,Linux armv81,59.52380952,6,1,16,-0.083911141,-0.250594457,1,0,0,0.9982,Basalt_10,2,10,2,4,0.998,1,05,-0.401525637,-0.399112701,1,0,0,2.7733,Obsidian_rect,5,2.773,0,15,0,15,0,1,,,,,,,,,,,,,
5e5c3cc556ec124282602756,SCR,2024-06-11_12h11.52.927,LearnStrategy,2023.2.3,Linux armv81,59.52380952,6,2,1,,,,,,,,6,07,,,,,,,,,,,,,6,1.4,1,,,,,,-0.126906991,-0.406052907,1,0,0,1.4001,Pegmatite_rect,0,0,0,0,1,
5e5c3cc556ec124282602756,SCR,2024-06-11_12h11.52.927,LearnStrategy,2023.2.3,Linux armv81,59.52380952,6,2,2,,,,,,,,8,05,,,,,,,,,,,,,8,4.1,1,,,,,,0.373786449,-0.3949488,1,0,0,4.0997,Pumice_rect,1,0,1,0,1,
5e5c3cc556ec124282602756,SCR,2024-06-11_12h11.52.927,LearnStrategy,2023.2.3,Linux armv81,59.52380952,6,2,3,,,,,,,,1,16,,,,,,,,,,,,,1,2.485,1,,,,,,-0.440360601,-0.245042404,1,0,0,2.4853,Andesite_rect,2,0,2,0,1,
5e5c3cc556ec124282602756,SCR,2024-06-11_12h11.52.927,LearnStrategy,2023.2.3,Linux armv81,59.52380952,6,2,4,,,,,,,,3,11,,,,,,,,,,,,,3,5.376,1,,,,,,0.142163754,-0.242266337,1,0,0,5.3764,Diorite_rect,3,0,3,0,1,
5e5c3cc556ec124282602756,SCR,2024-06-11_12h11.52.927,LearnStrategy,2023.2.3,Linux armv81,59.52380952,6,2,5,,,,,,,,2,04,,,,,,,,,,,,,2,2.607,1,,,,,,-0.146324515,-0.228386164,1,0,0,2.6068,Basalt_rect,4,0,4,0,1,
5e5c3cc556ec124282602756,SCR,2024-06-11_12h11.52.927,LearnStrategy,2023.2.3,Linux armv81,59.52380952,6,2,6,,,,,,,,4,01,,,,,,,,,,,,,1,4.606,0,,,,,,-0.37378639,-0.236714125,1,0,0,4.6059,Andesite_rect,5,0,5,0,1,
5e5c3cc556ec124282602756,SCR,2024-06-11_12h11.52.927,LearnStrategy,2023.2.3,Linux armv81,59.52380952,6,2,7,,,,,,,,7,05,,,,,,,,,,,,,7,2.122,1,,,,,,0.133841991,-0.410216808,1,0,0,2.1221,Peridotite_rect,6,0,6,0,1,
5e5c3cc556ec124282602756,SCR,2024-06-11_12h11.52.927,LearnStrategy,2023.2.3,Linux armv81,59.52380952,6,2,8,,,,,,,,6,15,,,,,,,,,,,,,6,1.398,1,,,,,,-0.154646317,-0.401889006,1,0,0,1.3977,Pegmatite_rect,7,0,7,0,1,
5e5c3cc556ec124282602756,SCR,2024-06-11_12h11.52.927,LearnStrategy,2023.2.3,Linux armv81,59.52380952,6,2,9,,,,,,,,2,09,,,,,,,,,,,,,2,1.66,1,,,,,,-0.132454872,-0.236714125,1,0,0,1.6597,Basalt_rect,8,0,8,0,1,
5e5c3cc556ec124282602756,SCR,2024-06-11_12h11.52.927,LearnStrategy,2023.2.3,Linux armv81,59.52380952,6,2,10,,,,,,,,5,08,,,,,,,,,,,,,5,1.116,1,,,,,,-0.407073508,-0.3949488,1,0,0,1.116,Obsidian_rect,9,0,9,0,1,
5e5c3cc556ec124282602756,SCR,2024-06-11_12h11.52.927,LearnStrategy,2023.2.3,Linux armv81,59.52380952,6,2,11,,,,,,,,1,01,,,,,,,,,,,,,3,3.497,0,,,,,,0.142163754,-0.247818391,1,0,0,3.4968,Diorite_rect,10,0,10,0,1,
5e5c3cc556ec124282602756,SCR,2024-06-11_12h11.52.927,LearnStrategy,2023.2.3,Linux armv81,59.52380952,6,2,12,,,,,,,,5,05,,,,,,,,,,,,,5,3.263,1,,,,,,-0.429264903,-0.392172654,1,0,0,3.2633,Obsidian_rect,11,0,11,0,1,
5e5c3cc556ec124282602756,SCR,2024-06-11_12h11.52.927,LearnStrategy,2023.2.3,Linux armv81,59.52380952,6,2,13,,,,,,,,7,06,,,,,,,,,,,,,7,1.457,1,,,,,,0.157420357,-0.412993113,1,0,0,1.4569,Peridotite_rect,12,0,12,0,1,
5e5c3cc556ec124282602756,SCR,2024-06-11_12h11.52.927,LearnStrategy,2023.2.3,Linux armv81,59.52380952,6,2,14,,,,,,,,4,15,,,,,,,,,,,,,4,1.806,1,,,,,,0.387656212,-0.247818391,1,0,0,1.8064,Gabbro_rect,13,0,13,0,1,
5e5c3cc556ec124282602756,SCR,2024-06-11_12h11.52.927,LearnStrategy,2023.2.3,Linux armv81,59.52380952,6,2,15,,,,,,,,8,04,,,,,,,,,,,,,8,1.37,1,,,,,,0.376560529,-0.403276761,1,0,0,1.3698,Pumice_rect,14,0,14,0,1,
5e5c3cc556ec124282602756,SCR,2024-06-11_12h11.52.927,LearnStrategy,2023.2.3,Linux armv81,59.52380952,6,2,16,,,,,,,,3,15,,,,,,,,,,,,,1,5.106,0,,,,,,-0.430651863,-0.245042404,1,0,0,5.106,Andesite_rect,15,0,15,0,1,
5e5c3cc556ec124282602756,SCR,2024-06-11_12h11.52.927,LearnStrategy,2023.2.3,Linux armv81,59.52380952,7,1,1,0.390429974,-0.422708988,1,0,0,1.1982,Andesite_05,1,05,1,7,1.198,2,12,-0.426490982,-0.236714125,1,0,0,1.1358,Andesite_rect,1,1.136,1,0,0,0,0,1,,,,,,,,,,,,,
5e5c3cc556ec124282602756,SCR,2024-06-11_12h11.52.927,LearnStrategy,2023.2.3,Linux armv81,59.52380952,7,1,2,0.243411938,-0.425485134,1,0,0,0.7486,Basalt_11,2,11,1,6,0.749,4,12,-0.138002714,-0.242266337,1,0,0,2.2728,Basalt_rect,2,2.273,1,1,0,1,0,1,,,,,,,,,,,,,
5e5c3cc556ec124282602756,SCR,2024-06-11_12h11.52.927,LearnStrategy,2023.2.3,Linux armv81,59.52380952,7,1,3,0.056172093,-0.400500933,1,0,0,0.9801,Basalt_12,2,12,1,5,0.98,6,06,-0.154646317,-0.257534583,1,0,0,1.5862,Basalt_rect,2,1.586,1,2,0,2,0,1,,,,,,,,,,,,,
5e5c3cc556ec124282602756,SCR,2024-06-11_12h11.52.927,LearnStrategy,2023.2.3,Linux armv81,59.52380952,7,1,4,-0.063106775,-0.417156855,1,0,0,0.9444,Peridotite_14,7,14,1,4,0.944,8,14,0.161581238,-0.383844376,1,0,0,1.4001,Peridotite_rect,7,1.4,1,3,0,3,0,1,,,,,,,,,,,,,
5e5c3cc556ec124282602756,SCR,2024-06-11_12h11.52.927,LearnStrategy,2023.2.3,Linux armv81,59.52380952,7,1,5,-0.226768335,-0.433813413,1,0,0,0.8031,Gabbro_10,4,10,1,3,0.803,3,16,-0.142163634,-0.23949035,1,0,0,1.17,Basalt_rect,2,1.17,0,4,0,4,0,1,,,,,,,,,,,,,
5e5c3cc556ec124282602756,SCR,2024-06-11_12h11.52.927,LearnStrategy,2023.2.3,Linux armv81,59.52380952,7,1,6,-0.393203864,-0.451857567,1,0,0,0.7359,Obsidian_16,5,16,1,2,0.736,3,09,-0.393203864,-0.401889006,1,0,0,1.5396,Obsidian_rect,5,1.54,1,5,0,5,0,1,,,,,,,,,,,,,
5e5c3cc556ec124282602756,SCR,2024-06-11_12h11.52.927,LearnStrategy,2023.2.3,Linux armv81,59.52380952,7,1,7,0.42094334,-0.275578658,1,0,0,0.9711,Pumice_16,8,16,2,7,0.971,4,08,0.375173489,-0.378292402,1,0,0,8.862,Pumice_rect,8,8.862,1,6,0,6,0,1,,,,,,,,,,,,,
5e5c3cc556ec124282602756,SCR,2024-06-11_12h11.52.927,LearnStrategy,2023.2.3,Linux armv81,59.52380952,7,1,8,-0.057558934,0.072814544,1,0,0,2.008,Basalt_16,2,16,4,4,2.008,4,12,-0.16712894,-0.257534583,1,0,0,1.5997,Basalt_rect,2,1.6,1,7,0,7,0,1,,,,,,,,,,,,,
5e5c3cc556ec124282602756,SCR,2024-06-11_12h11.52.927,LearnStrategy,2023.2.3,Linux armv81,59.52380952,7,1,9,-0.407073508,0.090858936,1,0,0,0.892,Pumice_15,8,15,4,2,0.892,4,10,0.366851648,-0.418544928,1,0,0,2.1836,Pumice_rect,8,2.184,1,8,0,8,0,1,,,,,,,,,,,,,
5e5c3cc556ec124282602756,SCR,2024-06-11_12h11.52.927,LearnStrategy,2023.2.3,Linux armv81,59.52380952,7,1,10,0.221220573,0.229660908,1,0,0,1.1792,Basalt_06,2,06,5,6,1.179,1,06,-0.150485396,-0.257534583,1,0,0,1.1181,Basalt_rect,2,1.118,1,9,0,9,0,1,,,,,,,,,,,,,
5e5c3cc556ec124282602756,SCR,2024-06-11_12h11.52.927,LearnStrategy,2023.2.3,Linux armv81,59.52380952,7,1,11,-0.053397973,0.08391881,1,0,0,1.0792,Basalt_16,2,16,4,4,1.079,7,10,-0.147711476,-0.247818391,1,0,0,2.9741,Basalt_rect,2,2.974,1,10,0,10,0,1,,,,,,,,,,,,,
5e5c3cc556ec124282602756,SCR,2024-06-11_12h11.52.927,LearnStrategy,2023.2.3,Linux armv81,59.52380952,7,1,12,-0.409847428,0.258809487,1,0,0,2.3514,Peridotite_16,7,16,5,2,2.351,3,16,0.139389833,-0.382456303,1,0,0,1.212,Peridotite_rect,7,1.212,1,11,0,11,0,1,,,,,,,,,,,,,
5e5c3cc556ec124282602756,SCR,2024-06-11_12h11.52.927,LearnStrategy,2023.2.3,Linux armv81,59.52380952,7,1,13,-0.054785013,-0.11318024,1,0,0,2.3333,Gabbro_13,4,13,3,4,2.333,5,11,0.409847577,-0.235326211,1,0,0,1.1991,Gabbro_rect,4,1.199,1,12,0,12,0,1,,,,,,,,,,,,,
5e5c3cc556ec124282602756,SCR,2024-06-11_12h11.52.927,LearnStrategy,2023.2.3,Linux armv81,59.52380952,7,1,14,-0.072815458,0.392059565,1,0,0,1.49,Pegmatite_05,6,05,6,4,1.49,1,09,-0.136615793,-0.401889006,1,0,0,1.1984,Pegmatite_rect,6,1.198,1,13,0,13,0,1,,,,,,,,,,,,,
5e5c3cc556ec124282602756,SCR,2024-06-11_12h11.52.927,LearnStrategy,2023.2.3,Linux armv81,59.52380952,7,1,15,0.071428617,0.429536104,1,0,0,0.672,Diorite_10,3,10,6,5,0.672,2,10,-0.407073508,-0.258922577,1,0,0,1.1307,Andesite_rect,1,1.131,0,14,0,14,0,1,,,,,,,,,,,,,
5e5c3cc556ec124282602756,SCR,2024-06-11_12h11.52.927,LearnStrategy,2023.2.3,Linux armv81,59.52380952,7,1,16,-0.411234389,0.401775678,1,0,0,1.1025,Andesite_14,1,14,6,2,1.102,1,05,0.139389833,-0.257534583,1,0,0,1.9704,Diorite_rect,3,1.97,0,15,0,15,0,1,,,,,,,,,,,,,
5e5c3cc556ec124282602756,SCR,2024-06-11_12h11.52.927,LearnStrategy,2023.2.3,Linux armv81,59.52380952,7,2,1,,,,,,,,3,13,,,,,,,,,,,,,1,8.214,0,,,,,,-0.365464618,-0.236714125,1,0,0,8.2138,Andesite_rect,0,0,0,0,1,
5e5c3cc556ec124282602756,SCR,2024-06-11_12h11.52.927,LearnStrategy,2023.2.3,Linux armv81,59.52380952,7,2,2,,,,,,,,4,15,,,,,,,,,,,,,4,1.958,1,,,,,,0.369625648,-0.23949035,1,0,0,1.9579,Gabbro_rect,1,0,1,0,1,
5e5c3cc556ec124282602756,SCR,2024-06-11_12h11.52.927,LearnStrategy,2023.2.3,Linux armv81,59.52380952,7,2,3,,,,,,,,1,10,,,,,,,,,,,,,4,4.927,0,,,,,,0.373786449,-0.242266337,1,0,0,4.927,Gabbro_rect,2,0,2,0,1,
5e5c3cc556ec124282602756,SCR,2024-06-11_12h11.52.927,LearnStrategy,2023.2.3,Linux armv81,59.52380952,7,2,4,,,,,,,,7,02,,,,,,,,,,,,,7,1.417,1,,,,,,0.132454952,-0.399112701,1,0,0,1.4172,Peridotite_rect,3,0,3,0,1,
5e5c3cc556ec124282602756,SCR,2024-06-11_12h11.52.927,LearnStrategy,2023.2.3,Linux armv81,59.52380952,7,2,5,,,,,,,,8,13,,,,,,,,,,,,,8,4.029,1,,,,,,0.362690767,-0.396336555,1,0,0,4.0289,Pumice_rect,4,0,4,0,1,
5e5c3cc556ec124282602756,SCR,2024-06-11_12h11.52.927,LearnStrategy,2023.2.3,Linux armv81,59.52380952,7,2,6,,,,,,,,5,08,,,,,,,,,,,,,5,1.378,1,,,,,,-0.400138676,-0.412993113,1,0,0,1.3777,Obsidian_rect,5,0,5,0,1,
5e5c3cc556ec124282602756,SCR,2024-06-11_12h11.52.927,LearnStrategy,2023.2.3,Linux armv81,59.52380952,7,2,7,,,,,,,,8,08,,,,,,,,,,,,,8,1.928,1,,,,,,0.391817093,-0.392172654,1,0,0,1.9281,Pumice_rect,6,0,6,0,1,
5e5c3cc556ec124282602756,SCR,2024-06-11_12h11.52.927,LearnStrategy,2023.2.3,Linux armv81,59.52380952,7,2,8,,,,,,,,6,15,,,,,,,,,,,,,6,1.375,1,,,,,,-0.12135915,-0.411604881,1,0,0,1.3753,Pegmatite_rect,7,0,7,0,1,
5e5c3cc556ec124282602756,SCR,2024-06-11_12h11.52.927,LearnStrategy,2023.2.3,Linux armv81,59.52380952,7,2,9,,,,,,,,4,01,,,,,,,,,,,,,7,2.084,0,,,,,,0.153259436,-0.392172654,1,0,0,2.0837,Peridotite_rect,8,0,8,0,1,
5e5c3cc556ec124282602756,SCR,2024-06-11_12h11.52.927,LearnStrategy,2023.2.3,Linux armv81,59.52380952,7,2,10,,,,,,,,3,02,,,,,,,,,,,,,3,2.709,1,,,,,,0.132454952,-0.229773998,1,0,0,2.7095,Diorite_rect,9,0,9,0,1,
5e5c3cc556ec124282602756,SCR,2024-06-11_12h11.52.927,LearnStrategy,2023.2.3,Linux armv81,59.52380952,7,2,11,,,,,,,,2,14,,,,,,,,,,,,,4,3.75,0,,,,,,0.408460617,-0.228386164,1,0,0,3.7497,Gabbro_rect,10,0,10,0,1,
5e5c3cc556ec124282602756,SCR,2024-06-11_12h11.52.927,LearnStrategy,2023.2.3,Linux armv81,59.52380952,7,2,12,,,,,,,,7,06,,,,,,,,,,,,,6,1.433,0,,,,,,-0.104715625,-0.396336555,1,0,0,1.4328,Pegmatite_rect,11,0,11,0,1,
5e5c3cc556ec124282602756,SCR,2024-06-11_12h11.52.927,LearnStrategy,2023.2.3,Linux armv81,59.52380952,7,2,13,,,,,,,,2,09,,,,,,,,,,,,,2,1.415,1,,,,,,-0.128294031,-0.228386164,1,0,0,1.4146,Basalt_rect,12,0,12,0,1,
5e5c3cc556ec124282602756,SCR,2024-06-11_12h11.52.927,LearnStrategy,2023.2.3,Linux armv81,59.52380952,7,2,14,,,,,,,,5,05,,,,,,,,,,,,,5,1.683,1,,,,,,-0.390429934,-0.421321233,1,0,0,1.6831,Obsidian_rect,13,0,13,0,1,
5e5c3cc556ec124282602756,SCR,2024-06-11_12h11.52.927,LearnStrategy,2023.2.3,Linux armv81,59.52380952,7,2,15,,,,,,,,1,01,,,,,,,,,,,,,1,2.409,1,,,,,,-0.408460468,-0.247818391,1,0,0,2.4087,Andesite_rect,14,0,14,0,1,
5e5c3cc556ec124282602756,SCR,2024-06-11_12h11.52.927,LearnStrategy,2023.2.3,Linux armv81,59.52380952,7,2,16,,,,,,,,6,10,,,,,,,,,,,,,6,2.138,1,,,,,,-0.142163634,-0.406052907,1,0,0,2.138,Pegmatite_rect,15,0,15,0,1,
5e5c3cc556ec124282602756,SCR,2024-06-11_12h11.52.927,LearnStrategy,2023.2.3,Linux armv81,59.52380952,8,1,1,-0.200416068,-0.096524,1,0,0,1.4611,Andesite_02,1,02,3,3,1.461,3,10,0.394590855,-0.400500933,1,0,0,1.5841,Pumice_rect,8,1.584,0,0,0,0,0,1,,,,,,,,,,,,,
5e5c3cc556ec124282602756,SCR,2024-06-11_12h11.52.927,LearnStrategy,2023.2.3,Linux armv81,59.52380952,8,1,2,-0.233703156,-0.110404253,1,0,0,0.6505,Andesite_02,1,02,3,3,0.65,3,14,-0.372399429,-0.246430477,1,0,0,1.738,Andesite_rect,1,1.738,1,1,0,1,0,1,,,,,,,,,,,,,
5e5c3cc556ec124282602756,SCR,2024-06-11_12h11.52.927,LearnStrategy,2023.2.3,Linux armv81,59.52380952,8,1,3,-0.071428537,-0.0840319,1,0,0,1.2036,Gabbro_13,4,13,3,4,1.204,1,11,0.380721331,-0.23949035,1,0,0,1.2159,Gabbro_rect,4,1.216,1,2,0,2,0,1,,,,,,,,,,,,,
5e5c3cc556ec124282602756,SCR,2024-06-11_12h11.52.927,LearnStrategy,2023.2.3,Linux armv81,59.52380952,8,1,4,0.240638097,-0.1048522,1,0,0,0.9009,Pegmatite_11,6,11,3,6,0.901,5,14,-0.138002714,-0.408828735,1,0,0,1.2262,Pegmatite_rect,6,1.226,1,3,0,3,0,1,,,,,,,,,,,,,
5e5c3cc556ec124282602756,SCR,2024-06-11_12h11.52.927,LearnStrategy,2023.2.3,Linux armv81,59.52380952,8,1,5,0.409847577,-0.11318024,1,0,0,1.4816,Pumice_10,8,10,3,7,1.482,2,06,0.368238608,-0.401889006,1,0,0,1.1921,Pumice_rect,8,1.192,1,4,0,4,0,1,,,,,,,,,,,,,
5e5c3cc556ec124282602756,SCR,2024-06-11_12h11.52.927,LearnStrategy,2023.2.3,Linux armv81,59.52380952,8,1,6,-0.397364746,0.417043964,1,0,0,0.9599,Andesite_14,1,14,6,2,0.96,6,06,-0.136615793,-0.406052907,1,0,0,2.968,Pegmatite_rect,6,2.968,0,5,0,5,0,1,,,,,,,,,,,,,
5e5c3cc556ec124282602756,SCR,2024-06-11_12h11.52.927,LearnStrategy,2023.2.3,Linux armv81,59.52380952,8,1,7,-0.404299557,0.394835552,1,0,0,0.912,Andesite_14,1,14,6,2,0.912,4,10,-0.382108162,-0.231162151,1,0,0,1.9428,Andesite_rect,1,1.943,1,6,0,6,0,1,,,,,,,,,,,,,
5e5c3cc556ec124282602756,SCR,2024-06-11_12h11.52.927,LearnStrategy,2023.2.3,Linux armv81,59.52380952,8,1,8,-0.093619943,0.396223466,1,0,0,0.9841,Pegmatite_05,6,05,6,4,0.984,3,09,-0.126906991,-0.412993113,1,0,0,1.5057,Pegmatite_rect,6,1.506,1,7,0,7,0,1,,,,,,,,,,,,,
5e5c3cc556ec124282602756,SCR,2024-06-11_12h11.52.927,LearnStrategy,2023.2.3,Linux armv81,59.52380952,8,1,9,-0.251733661,0.404551705,1,0,0,0.7547,Pumice_03,8,03,6,3,0.755,1,02,0.357142925,-0.406052907,1,0,0,1.5557,Pumice_rect,8,1.556,1,8,0,8,0,1,,,,,,,,,,,,,
5e5c3cc556ec124282602756,SCR,2024-06-11_12h11.52.927,LearnStrategy,2023.2.3,Linux armv81,59.52380952,8,1,10,0.067267776,0.404551705,1,0,0,0.761,Diorite_10,3,10,6,5,0.761,7,04,0.160194278,-0.232550224,1,0,0,1.7757,Diorite_rect,3,1.776,1,9,0,9,0,1,,,,,,,,,,,,,
5e5c3cc556ec124282602756,SCR,2024-06-11_12h11.52.927,LearnStrategy,2023.2.3,Linux armv81,59.52380952,8,1,11,0.401525736,0.428148071,1,0,0,1.9805,Peridotite_04,7,04,6,7,1.98,4,12,0.157420357,-0.390784582,1,0,0,1.8357,Peridotite_rect,7,1.836,1,10,0,10,0,1,,,,,,,,,,,,,
5e5c3cc556ec124282602756,SCR,2024-06-11_12h11.52.927,LearnStrategy,2023.2.3,Linux armv81,59.52380952,8,1,12,-0.239250998,0.099186897,1,0,0,1.8427,Gabbro_08,4,08,4,3,1.843,1,05,-0.144937555,-0.232550224,1,0,0,4.2778,Basalt_rect,2,4.278,0,11,0,11,0,1,,,,,,,,,,,,,
5e5c3cc556ec124282602756,SCR,2024-06-11_12h11.52.927,LearnStrategy,2023.2.3,Linux armv81,59.52380952,8,1,13,-0.065880696,0.089470784,1,0,0,1.1291,Basalt_16,2,16,4,4,1.129,8,02,-0.138002714,-0.246430477,1,0,0,2.5054,Basalt_rect,2,2.505,1,12,0,12,0,1,,,,,,,,,,,,,
5e5c3cc556ec124282602756,SCR,2024-06-11_12h11.52.927,LearnStrategy,2023.2.3,Linux armv81,59.52380952,8,1,14,0.222607533,-0.263086478,1,0,0,1.4637,Andesite_06,1,06,2,6,1.464,4,13,-0.400138676,-0.26447463,1,0,0,0.8862,Andesite_rect,1,0.886,1,13,0,13,0,1,,,,,,,,,,,,,
5e5c3cc556ec124282602756,SCR,2024-06-11_12h11.52.927,LearnStrategy,2023.2.3,Linux armv81,59.52380952,8,1,15,0.380721331,-0.068763653,1,0,0,1.7556,Pumice_10,8,10,3,7,1.756,2,08,0.376560529,-0.388008753,1,0,0,1.3432,Pumice_rect,8,1.343,1,14,0,14,0,1,,,,,,,,,,,,,
5e5c3cc556ec124282602756,SCR,2024-06-11_12h11.52.927,LearnStrategy,2023.2.3,Linux armv81,59.52380952,8,1,16,-0.232316196,-0.122896353,1,0,0,1.3489,Andesite_02,1,02,3,3,1.349,7,16,-0.379334241,-0.240878344,1,0,0,3.9145,Andesite_rect,1,3.914,1,15,0,15,0,1,,,,,,,,,,,,,
5e5c3cc556ec124282602756,SCR,2024-06-11_12h11.52.927,LearnStrategy,2023.2.3,Linux armv81,59.52380952,8,2,1,,,,,,,,2,04,,,,,,,,,,,,,2,1.772,1,,,,,,-0.140776634,-0.228386164,1,0,0,1.7724,Basalt_rect,0,0,0,0,1,
5e5c3cc556ec124282602756,SCR,2024-06-11_12h11.52.927,LearnStrategy,2023.2.3,Linux armv81,59.52380952,8,2,2,,,,,,,,5,09,,,,,,,,,,,,,2,1.309,0,,,,,,-0.143550555,-0.228386164,1,0,0,1.3088,Basalt_rect,1,0,1,0,1,
5e5c3cc556ec124282602756,SCR,2024-06-11_12h11.52.927,LearnStrategy,2023.2.3,Linux armv81,59.52380952,8,2,3,,,,,,,,4,11,,,,,,,,,,,,,4,4.28,1,,,,,,0.391817093,-0.238102277,1,0,0,4.2801,Gabbro_rect,2,0,2,0,1,
5e5c3cc556ec124282602756,SCR,2024-06-11_12h11.52.927,LearnStrategy,2023.2.3,Linux armv81,59.52380952,8,2,4,,,,,,,,8,09,,,,,,,,,,,,,8,2.32,1,,,,,,0.346047242,-0.410216808,1,0,0,2.3199,Pumice_rect,3,0,3,0,1,
5e5c3cc556ec124282602756,SCR,2024-06-11_12h11.52.927,LearnStrategy,2023.2.3,Linux armv81,59.52380952,8,2,5,,,,,,,,5,10,,,,,,,,,,,,,5,1.595,1,,,,,,-0.400138676,-0.415768941,1,0,0,1.5948,Obsidian_rect,4,0,4,0,1,
5e5c3cc556ec124282602756,SCR,2024-06-11_12h11.52.927,LearnStrategy,2023.2.3,Linux armv81,59.52380952,8,2,6,,,,,,,,3,07,,,,,,,,,,,,,1,5.121,0,,,,,,-0.394590825,-0.261698643,1,0,0,5.1214,Andesite_rect,5,0,5,0,1,
5e5c3cc556ec124282602756,SCR,2024-06-11_12h11.52.927,LearnStrategy,2023.2.3,Linux armv81,59.52380952,8,2,7,,,,,,,,1,04,,,,,,,,,,,,,3,6.737,0,,,,,,0.146324674,-0.236714125,1,0,0,6.7367,Diorite_rect,6,0,6,0,1,
5e5c3cc556ec124282602756,SCR,2024-06-11_12h11.52.927,LearnStrategy,2023.2.3,Linux armv81,59.52380952,8,2,8,,,,,,,,7,15,,,,,,,,,,,,,7,1.388,1,,,,,,0.103328784,-0.38662068,1,0,0,1.3876,Peridotite_rect,7,0,7,0,1,
5e5c3cc556ec124282602756,SCR,2024-06-11_12h11.52.927,LearnStrategy,2023.2.3,Linux armv81,59.52380952,8,2,9,,,,,,,,6,12,,,,,,,,,,,,,6,1.45,1,,,,,,-0.128294031,-0.415768941,1,0,0,1.4497,Pegmatite_rect,8,0,8,0,1,
5e5c3cc556ec124282602756,SCR,2024-06-11_12h11.52.927,LearnStrategy,2023.2.3,Linux armv81,59.52380952,8,2,10,,,,,,,,8,04,,,,,,,,,,,,,8,1.52,1,,,,,,0.366851648,-0.397724628,1,0,0,1.5205,Pumice_rect,9,0,9,0,1,
5e5c3cc556ec124282602756,SCR,2024-06-11_12h11.52.927,LearnStrategy,2023.2.3,Linux armv81,59.52380952,8,2,11,,,,,,,,1,03,,,,,,,,,,,,,4,1.467,0,,,,,,0.395977894,-0.250594457,1,0,0,1.4675,Gabbro_rect,10,0,10,0,1,
5e5c3cc556ec124282602756,SCR,2024-06-11_12h11.52.927,LearnStrategy,2023.2.3,Linux armv81,59.52380952,8,2,12,,,,,,,,6,03,,,,,,,,,,,,,6,1.209,1,,,,,,-0.114424308,-0.38662068,1,0,0,1.2088,Pegmatite_rect,11,0,11,0,1,
5e5c3cc556ec124282602756,SCR,2024-06-11_12h11.52.927,LearnStrategy,2023.2.3,Linux armv81,59.52380952,8,2,13,,,,,,,,2,01,,,,,,,,,,,,,2,1.402,1,,,,,,-0.12552011,-0.258922577,1,0,0,1.4023,Basalt_rect,12,0,12,0,1,
5e5c3cc556ec124282602756,SCR,2024-06-11_12h11.52.927,LearnStrategy,2023.2.3,Linux armv81,59.52380952,8,2,14,,,,,,,,3,15,,,,,,,,,,,,,1,2.002,0,,,,,,-0.409847428,-0.247818391,1,0,0,2.0015,Andesite_rect,13,0,13,0,1,
5e5c3cc556ec124282602756,SCR,2024-06-11_12h11.52.927,LearnStrategy,2023.2.3,Linux armv81,59.52380952,8,2,15,,,,,,,,4,09,,,,,,,,,,,,,2,7.039,0,,,,,,-0.146324515,-0.236714125,1,0,0,7.0388,Basalt_rect,14,0,14,0,1,
5e5c3cc556ec124282602756,SCR,2024-06-11_12h11.52.927,LearnStrategy,2023.2.3,Linux armv81,59.52380952,8,2,16,,,,,,,,7,12,,,,,,,,,,,,,1,4.061,0,,,,,,-0.382108162,-0.246430477,1,0,0,4.0608,Andesite_rect,15,0,15,0,1,
5e5c3cc556ec124282602756,SCR,2024-06-11_12h11.52.927,LearnStrategy,2023.2.3,Linux armv81,59.52380952,9,1,1,-0.379334241,-0.414381186,1,0,0,2.2338,Obsidian_16,5,16,1,2,2.234,1,02,-0.379334241,-0.414381186,1,0,0,1.0237,Obsidian_rect,5,1.024,1,0,0,0,0,1,,,,,,,,,,,,,
5e5c3cc556ec124282602756,SCR,2024-06-11_12h11.52.927,LearnStrategy,2023.2.3,Linux armv81,59.52380952,9,1,2,-0.028432647,0.097799063,1,0,0,1.4055,Basalt_16,2,16,4,4,1.406,8,02,-0.122746189,-0.229773998,1,0,0,1.2635,Basalt_rect,2,1.264,1,1,0,1,0,1,,,,,,,,,,,,,
5e5c3cc556ec124282602756,SCR,2024-06-11_12h11.52.927,LearnStrategy,2023.2.3,Linux armv81,59.52380952,9,1,3,-0.258668482,0.08391881,1,0,0,1.2843,Gabbro_08,4,08,4,3,1.284,1,14,0.397364934,-0.242266337,1,0,0,2.8671,Gabbro_rect,4,2.867,1,2,0,2,0,1,,,,,,,,,,,,,
5e5c3cc556ec124282602756,SCR,2024-06-11_12h11.52.927,LearnStrategy,2023.2.3,Linux armv81,59.52380952,9,1,4,-0.063106775,0.232436975,1,0,0,1.3265,Diorite_09,3,09,5,4,1.327,7,08,-0.404299557,-0.25614659,1,0,0,1.0179,Andesite_rect,1,1.018,0,3,0,3,0,1,,,,,,,,,,,,,
5e5c3cc556ec124282602756,SCR,2024-06-11_12h11.52.927,LearnStrategy,2023.2.3,Linux armv81,59.52380952,9,1,5,-0.380721201,0.450356444,1,0,0,1.6982,Andesite_14,1,14,6,2,1.698,1,05,-0.405686547,-0.243654251,1,0,0,2.5723,Andesite_rect,1,2.572,1,4,0,4,0,1,,,,,,,,,,,,,
5e5c3cc556ec124282602756,SCR,2024-06-11_12h11.52.927,LearnStrategy,2023.2.3,Linux armv81,59.52380952,9,1,6,-0.246185819,0.430924137,1,0,0,0.7934,Pumice_03,8,03,6,3,0.793,3,16,0.352982124,-0.406052907,1,0,0,2.3814,Pumice_rect,8,2.381,1,5,0,5,0,1,,,,,,,,,,,,,
5e5c3cc556ec124282602756,SCR,2024-06-11_12h11.52.927,LearnStrategy,2023.2.3,Linux armv81,59.52380952,9,1,7,-0.071428537,0.383731365,1,0,0,1.4907,Pegmatite_05,6,05,6,4,1.491,5,04,-0.16435504,-0.41993316,1,0,0,1.0194,Pegmatite_rect,6,1.019,1,6,0,6,0,1,,,,,,,,,,,,,
5e5c3cc556ec124282602756,SCR,2024-06-11_12h11.52.927,LearnStrategy,2023.2.3,Linux armv81,59.52380952,9,1,8,0.108876665,0.430924137,1,0,0,0.7207,Diorite_10,3,10,6,5,0.721,3,14,-0.423717057,-0.246430477,1,0,0,1.2579,Andesite_rect,1,1.258,0,7,0,7,0,1,,,,,,,,,,,,,
5e5c3cc556ec124282602756,SCR,2024-06-11_12h11.52.927,LearnStrategy,2023.2.3,Linux armv81,59.52380952,9,1,9,-0.244798859,0.371239185,1,0,0,1.1472,Pumice_03,8,03,6,3,1.147,3,09,0.379334291,-0.400500933,1,0,0,1.5231,Pumice_rect,8,1.523,1,8,0,8,0,1,,,,,,,,,,,,,
5e5c3cc556ec124282602756,SCR,2024-06-11_12h11.52.927,LearnStrategy,2023.2.3,Linux armv81,59.52380952,9,1,10,0.236477296,0.386507352,1,0,0,1.5857,Pegmatite_09,6,09,6,6,1.586,4,12,-0.160194159,-0.389396509,1,0,0,1.4659,Pegmatite_rect,6,1.466,1,9,0,9,0,1,,,,,,,,,,,,,
5e5c3cc556ec124282602756,SCR,2024-06-11_12h11.52.927,LearnStrategy,2023.2.3,Linux armv81,59.52380952,9,1,11,0.397364934,0.411491831,1,0,0,0.6971,Peridotite_04,7,04,6,7,0.697,1,11,0.143550634,-0.411604881,1,0,0,1.2376,Peridotite_rect,7,1.238,1,10,0,10,0,1,,,,,,,,,,,,,
5e5c3cc556ec124282602756,SCR,2024-06-11_12h11.52.927,LearnStrategy,2023.2.3,Linux armv81,59.52380952,9,1,12,-0.416782235,0.247705301,1,0,0,0.685,Peridotite_16,7,16,5,2,0.685,2,08,0.129681031,-0.383844376,1,0,0,1.628,Peridotite_rect,7,1.628,1,11,0,11,0,1,,,,,,,,,,,,,
5e5c3cc556ec124282602756,SCR,2024-06-11_12h11.52.927,LearnStrategy,2023.2.3,Linux armv81,59.52380952,9,1,13,-0.065880696,0.242153247,1,0,0,1.4962,Diorite_09,3,09,5,4,1.496,7,07,0.136615912,-0.265862703,1,0,0,1.7505,Diorite_rect,3,1.751,1,12,0,12,0,1,,,,,,,,,,,,,
5e5c3cc556ec124282602756,SCR,2024-06-11_12h11.52.927,LearnStrategy,2023.2.3,Linux armv81,59.52380952,9,1,14,0.088072141,0.392059565,1,0,0,1.513,Diorite_10,3,10,6,5,1.513,4,05,0.147711595,-0.238102277,1,0,0,1.8108,Diorite_rect,3,1.811,1,13,0,13,0,1,,,,,,,,,,,,,
5e5c3cc556ec124282602756,SCR,2024-06-11_12h11.52.927,LearnStrategy,2023.2.3,Linux armv81,59.52380952,9,1,15,0.25173378,0.237989187,1,0,0,1.7206,Basalt_06,2,06,5,6,1.721,6,16,-0.161581119,-0.250594457,1,0,0,1.0046,Basalt_rect,2,1.005,1,14,0,14,0,1,,,,,,,,,,,,,
5e5c3cc556ec124282602756,SCR,2024-06-11_12h11.52.927,LearnStrategy,2023.2.3,Linux armv81,59.52380952,9,1,16,0.221220573,0.08391881,1,0,0,1.2422,Gabbro_12,4,12,4,6,1.242,4,13,-0.160194159,-0.249206463,1,0,0,1.4276,Basalt_rect,2,1.428,0,15,0,15,0,1,,,,,,,,,,,,,
5e5c3cc556ec124282602756,SCR,2024-06-11_12h11.52.927,LearnStrategy,2023.2.3,Linux armv81,59.52380952,9,2,1,,,,,,,,8,05,,,,,,,,,,,,,8,1.467,1,,,,,,0.376560529,-0.388008753,1,0,0,1.4671,Pumice_rect,0,0,0,0,1,
5e5c3cc556ec124282602756,SCR,2024-06-11_12h11.52.927,LearnStrategy,2023.2.3,Linux armv81,59.52380952,9,2,2,,,,,,,,4,16,,,,,,,,,,,,,4,3.387,1,,,,,,0.398751895,-0.25614659,1,0,0,3.3874,Gabbro_rect,1,0,1,0,1,
5e5c3cc556ec124282602756,SCR,2024-06-11_12h11.52.927,LearnStrategy,2023.2.3,Linux armv81,59.52380952,9,2,3,,,,,,,,7,13,,,,,,,,,,,,,4,3.901,0,,,,,,0.389043013,-0.238102277,1,0,0,3.9012,Gabbro_rect,2,0,2,0,1,
5e5c3cc556ec124282602756,SCR,2024-06-11_12h11.52.927,LearnStrategy,2023.2.3,Linux armv81,59.52380952,9,2,4,,,,,,,,4,03,,,,,,,,,,,,,3,5.158,0,,,,,,0.193481286,-0.253370365,1,0,0,5.158,Diorite_rect,3,0,3,0,1,
5e5c3cc556ec124282602756,SCR,2024-06-11_12h11.52.927,LearnStrategy,2023.2.3,Linux armv81,59.52380952,9,2,5,,,,,,,,1,07,,,,,,,,,,,,,1,2.314,1,,,,,,-0.432038824,-0.238102277,1,0,0,2.3141,Andesite_rect,4,0,4,0,1,
5e5c3cc556ec124282602756,SCR,2024-06-11_12h11.52.927,LearnStrategy,2023.2.3,Linux armv81,59.52380952,9,2,6,,,,,,,,2,05,,,,,,,,,,,,,2,1.911,1,,,,,,-0.146324515,-0.231162151,1,0,0,1.911,Basalt_rect,5,0,5,0,1,
5e5c3cc556ec124282602756,SCR,2024-06-11_12h11.52.927,LearnStrategy,2023.2.3,Linux armv81,59.52380952,9,2,7,,,,,,,,6,07,,,,,,,,,,,,,6,1.363,1,,,,,,-0.115811308,-0.418544928,1,0,0,1.3628,Pegmatite_rect,6,0,6,0,1,
5e5c3cc556ec124282602756,SCR,2024-06-11_12h11.52.927,LearnStrategy,2023.2.3,Linux armv81,59.52380952,9,2,8,,,,,,,,6,13,,,,,,,,,,,,,6,1.484,1,,,,,,-0.115811308,-0.418544928,1,0,0,1.4835,Pegmatite_rect,7,0,7,0,1,
5e5c3cc556ec124282602756,SCR,2024-06-11_12h11.52.927,LearnStrategy,2023.2.3,Linux armv81,59.52380952,9,2,9,,,,,,,,8,06,,,,,,,,,,,,,8,1.405,1,,,,,,0.394590855,-0.3949488,1,0,0,1.4047,Pumice_rect,8,0,8,0,1,
5e5c3cc556ec124282602756,SCR,2024-06-11_12h11.52.927,LearnStrategy,2023.2.3,Linux armv81,59.52380952,9,2,10,,,,,,,,3,12,,,,,,,,,,,,,3,2.061,1,,,,,,0.165742119,-0.25198253,1,0,0,2.061,Diorite_rect,9,0,9,0,1,
5e5c3cc556ec124282602756,SCR,2024-06-11_12h11.52.927,LearnStrategy,2023.2.3,Linux armv81,59.52380952,9,2,11,,,,,,,,5,06,,,,,,,,,,,,,5,1.295,1,,,,,,-0.376560311,-0.390784582,1,0,0,1.2955,Obsidian_rect,10,0,10,0,1,
5e5c3cc556ec124282602756,SCR,2024-06-11_12h11.52.927,LearnStrategy,2023.2.3,Linux armv81,59.52380952,9,2,12,,,,,,,,7,05,,,,,,,,,,,,,7,2.126,1,,,,,,0.131068031,-0.406052907,1,0,0,2.1256,Peridotite_rect,11,0,11,0,1,
5e5c3cc556ec124282602756,SCR,2024-06-11_12h11.52.927,LearnStrategy,2023.2.3,Linux armv81,59.52380952,9,2,13,,,,,,,,3,11,,,,,,,,,,,,,3,2.101,1,,,,,,0.12690711,-0.25198253,1,0,0,2.1006,Diorite_rect,12,0,12,0,1,
5e5c3cc556ec124282602756,SCR,2024-06-11_12h11.52.927,LearnStrategy,2023.2.3,Linux armv81,59.52380952,9,2,14,,,,,,,,1,16,,,,,,,,,,,,,1,1.356,1,,,,,,-0.412621349,-0.228386164,1,0,0,1.356,Andesite_rect,13,0,13,0,1,
5e5c3cc556ec124282602756,SCR,2024-06-11_12h11.52.927,LearnStrategy,2023.2.3,Linux armv81,59.52380952,9,2,15,,,,,,,,2,02,,,,,,,,,,,,,2,1.302,1,,,,,,-0.147711476,-0.238102277,1,0,0,1.3018,Basalt_rect,14,0,14,0,1,
5e5c3cc556ec124282602756,SCR,2024-06-11_12h11.52.927,LearnStrategy,2023.2.3,Linux armv81,59.52380952,9,2,16,,,,,,,,5,12,,,,,,,,,,,,,5,1.3,1,,,,,,-0.394590825,-0.390784582,1,0,0,1.2998,Obsidian_rect,15,0,15,0,1,
5e5c3cc556ec124282602756,SCR,2024-06-11_12h11.52.927,LearnStrategy,2023.2.3,Linux armv81,59.52380952,,,,,,,,,,,,,,,,,,,,,,,,,,,,,,,,,,,,,,,,,,,,,1
5e5c3cc556ec124282602756,SCR,2024-06-11_12h11.52.927,LearnStrategy,2023.2.3,Linux armv81,59.52380952,,,,,,,,,,,,,,,,,,,,,,,,,,,,,,,,,,,,,,,,,,,,,
5e5c3cc556ec124282602756,SCR,2024-06-11_12h11.52.927,LearnStrategy,2023.2.3,Linux armv81,59.52380952,,,,,,,,,,,4,05,1,1,,,,,,,,,,,,,,,,,,,,,,,,,,,,,,,
5e5c3cc556ec124282602756,SCR,2024-06-11_12h11.52.927,LearnStrategy,2023.2.3,Linux armv81,59.52380952,,,,,,,,,,,5,16,1,2,,,,,,,,,,,,,,,,,,,,,,,,,,,,,,,
5e5c3cc556ec124282602756,SCR,2024-06-11_12h11.52.927,LearnStrategy,2023.2.3,Linux armv81,59.52380952,,,,,,,,,,,4,10,1,3,,,,,,,,,,,,,,,,,,,,,,,,,,,,,,,
5e5c3cc556ec124282602756,SCR,2024-06-11_12h11.52.927,LearnStrategy,2023.2.3,Linux armv81,59.52380952,,,,,,,,,,,7,14,1,4,,,,,,,,,,,,,,,,,,,,,,,,,,,,,,,
5e5c3cc556ec124282602756,SCR,2024-06-11_12h11.52.927,LearnStrategy,2023.2.3,Linux armv81,59.52380952,,,,,,,,,,,2,12,1,5,,,,,,,,,,,,,,,,,,,,,,,,,,,,,,,
5e5c3cc556ec124282602756,SCR,2024-06-11_12h11.52.927,LearnStrategy,2023.2.3,Linux armv81,59.52380952,,,,,,,,,,,2,11,1,6,,,,,,,,,,,,,,,,,,,,,,,,,,,,,,,
5e5c3cc556ec124282602756,SCR,2024-06-11_12h11.52.927,LearnStrategy,2023.2.3,Linux armv81,59.52380952,,,,,,,,,,,1,05,1,7,,,,,,,,,,,,,,,,,,,,,,,,,,,,,,,
5e5c3cc556ec124282602756,SCR,2024-06-11_12h11.52.927,LearnStrategy,2023.2.3,Linux armv81,59.52380952,,,,,,,,,,,8,02,1,8,,,,,,,,,,,,,,,,,,,,,,,,,,,,,,,
5e5c3cc556ec124282602756,SCR,2024-06-11_12h11.52.927,LearnStrategy,2023.2.3,Linux armv81,59.52380952,,,,,,,,,,,3,16,2,1,,,,,,,,,,,,,,,,,,,,,,,,,,,,,,,
5e5c3cc556ec124282602756,SCR,2024-06-11_12h11.52.927,LearnStrategy,2023.2.3,Linux armv81,59.52380952,,,,,,,,,,,7,08,2,2,,,,,,,,,,,,,,,,,,,,,,,,,,,,,,,
5e5c3cc556ec124282602756,SCR,2024-06-11_12h11.52.927,LearnStrategy,2023.2.3,Linux armv81,59.52380952,,,,,,,,,,,4,14,2,3,,,,,,,,,,,,,,,,,,,,,,,,,,,,,,,
5e5c3cc556ec124282602756,SCR,2024-06-11_12h11.52.927,LearnStrategy,2023.2.3,Linux armv81,59.52380952,,,,,,,,,,,2,10,2,4,,,,,,,,,,,,,,,,,,,,,,,,,,,,,,,
5e5c3cc556ec124282602756,SCR,2024-06-11_12h11.52.927,LearnStrategy,2023.2.3,Linux armv81,59.52380952,,,,,,,,,,,5,07,2,5,,,,,,,,,,,,,,,,,,,,,,,,,,,,,,,
5e5c3cc556ec124282602756,SCR,2024-06-11_12h11.52.927,LearnStrategy,2023.2.3,Linux armv81,59.52380952,,,,,,,,,,,1,06,2,6,,,,,,,,,,,,,,,,,,,,,,,,,,,,,,,
5e5c3cc556ec124282602756,SCR,2024-06-11_12h11.52.927,LearnStrategy,2023.2.3,Linux armv81,59.52380952,,,,,,,,,,,8,16,2,7,,,,,,,,,,,,,,,,,,,,,,,,,,,,,,,
5e5c3cc556ec124282602756,SCR,2024-06-11_12h11.52.927,LearnStrategy,2023.2.3,Linux armv81,59.52380952,,,,,,,,,,,8,14,2,8,,,,,,,,,,,,,,,,,,,,,,,,,,,,,,,
5e5c3cc556ec124282602756,SCR,2024-06-11_12h11.52.927,LearnStrategy,2023.2.3,Linux armv81,59.52380952,,,,,,,,,,,1,11,3,1,,,,,,,,,,,,,,,,,,,,,,,,,,,,,,,
5e5c3cc556ec124282602756,SCR,2024-06-11_12h11.52.927,LearnStrategy,2023.2.3,Linux armv81,59.52380952,,,,,,,,,,,5,04,3,2,,,,,,,,,,,,,,,,,,,,,,,,,,,,,,,
5e5c3cc556ec124282602756,SCR,2024-06-11_12h11.52.927,LearnStrategy,2023.2.3,Linux armv81,59.52380952,,,,,,,,,,,1,02,3,3,,,,,,,,,,,,,,,,,,,,,,,,,,,,,,,
5e5c3cc556ec124282602756,SCR,2024-06-11_12h11.52.927,LearnStrategy,2023.2.3,Linux armv81,59.52380952,,,,,,,,,,,4,13,3,4,,,,,,,,,,,,,,,,,,,,,,,,,,,,,,,
5e5c3cc556ec124282602756,SCR,2024-06-11_12h11.52.927,LearnStrategy,2023.2.3,Linux armv81,59.52380952,,,,,,,,,,,5,14,3,5,,,,,,,,,,,,,,,,,,,,,,,,,,,,,,,
5e5c3cc556ec124282602756,SCR,2024-06-11_12h11.52.927,LearnStrategy,2023.2.3,Linux armv81,59.52380952,,,,,,,,,,,6,11,3,6,,,,,,,,,,,,,,,,,,,,,,,,,,,,,,,
5e5c3cc556ec124282602756,SCR,2024-06-11_12h11.52.927,LearnStrategy,2023.2.3,Linux armv81,59.52380952,,,,,,,,,,,8,10,3,7,,,,,,,,,,,,,,,,,,,,,,,,,,,,,,,
5e5c3cc556ec124282602756,SCR,2024-06-11_12h11.52.927,LearnStrategy,2023.2.3,Linux armv81,59.52380952,,,,,,,,,,,3,08,3,8,,,,,,,,,,,,,,,,,,,,,,,,,,,,,,,
5e5c3cc556ec124282602756,SCR,2024-06-11_12h11.52.927,LearnStrategy,2023.2.3,Linux armv81,59.52380952,,,,,,,,,,,6,06,4,1,,,,,,,,,,,,,,,,,,,,,,,,,,,,,,,
5e5c3cc556ec124282602756,SCR,2024-06-11_12h11.52.927,LearnStrategy,2023.2.3,Linux armv81,59.52380952,,,,,,,,,,,8,15,4,2,,,,,,,,,,,,,,,,,,,,,,,,,,,,,,,
5e5c3cc556ec124282602756,SCR,2024-06-11_12h11.52.927,LearnStrategy,2023.2.3,Linux armv81,59.52380952,,,,,,,,,,,4,08,4,3,,,,,,,,,,,,,,,,,,,,,,,,,,,,,,,
5e5c3cc556ec124282602756,SCR,2024-06-11_12h11.52.927,LearnStrategy,2023.2.3,Linux armv81,59.52380952,,,,,,,,,,,2,16,4,4,,,,,,,,,,,,,,,,,,,,,,,,,,,,,,,
5e5c3cc556ec124282602756,SCR,2024-06-11_12h11.52.927,LearnStrategy,2023.2.3,Linux armv81,59.52380952,,,,,,,,,,,6,08,4,5,,,,,,,,,,,,,,,,,,,,,,,,,,,,,,,
5e5c3cc556ec124282602756,SCR,2024-06-11_12h11.52.927,LearnStrategy,2023.2.3,Linux armv81,59.52380952,,,,,,,,,,,4,12,4,6,,,,,,,,,,,,,,,,,,,,,,,,,,,,,,,
5e5c3cc556ec124282602756,SCR,2024-06-11_12h11.52.927,LearnStrategy,2023.2.3,Linux armv81,59.52380952,,,,,,,,,,,3,06,4,7,,,,,,,,,,,,,,,,,,,,,,,,,,,,,,,
5e5c3cc556ec124282602756,SCR,2024-06-11_12h11.52.927,LearnStrategy,2023.2.3,Linux armv81,59.52380952,,,,,,,,,,,7,07,4,8,,,,,,,,,,,,,,,,,,,,,,,,,,,,,,,
5e5c3cc556ec124282602756,SCR,2024-06-11_12h11.52.927,LearnStrategy,2023.2.3,Linux armv81,59.52380952,,,,,,,,,,,2,08,5,1,,,,,,,,,,,,,,,,,,,,,,,,,,,,,,,
5e5c3cc556ec124282602756,SCR,2024-06-11_12h11.52.927,LearnStrategy,2023.2.3,Linux armv81,59.52380952,,,,,,,,,,,7,16,5,2,,,,,,,,,,,,,,,,,,,,,,,,,,,,,,,
5e5c3cc556ec124282602756,SCR,2024-06-11_12h11.52.927,LearnStrategy,2023.2.3,Linux armv81,59.52380952,,,,,,,,,,,5,11,5,3,,,,,,,,,,,,,,,,,,,,,,,,,,,,,,,
5e5c3cc556ec124282602756,SCR,2024-06-11_12h11.52.927,LearnStrategy,2023.2.3,Linux armv81,59.52380952,,,,,,,,,,,3,09,5,4,,,,,,,,,,,,,,,,,,,,,,,,,,,,,,,
5e5c3cc556ec124282602756,SCR,2024-06-11_12h11.52.927,LearnStrategy,2023.2.3,Linux armv81,59.52380952,,,,,,,,,,,7,10,5,5,,,,,,,,,,,,,,,,,,,,,,,,,,,,,,,
5e5c3cc556ec124282602756,SCR,2024-06-11_12h11.52.927,LearnStrategy,2023.2.3,Linux armv81,59.52380952,,,,,,,,,,,2,06,5,6,,,,,,,,,,,,,,,,,,,,,,,,,,,,,,,
5e5c3cc556ec124282602756,SCR,2024-06-11_12h11.52.927,LearnStrategy,2023.2.3,Linux armv81,59.52380952,,,,,,,,,,,5,02,5,7,,,,,,,,,,,,,,,,,,,,,,,,,,,,,,,
5e5c3cc556ec124282602756,SCR,2024-06-11_12h11.52.927,LearnStrategy,2023.2.3,Linux armv81,59.52380952,,,,,,,,,,,1,09,5,8,,,,,,,,,,,,,,,,,,,,,,,,,,,,,,,
5e5c3cc556ec124282602756,SCR,2024-06-11_12h11.52.927,LearnStrategy,2023.2.3,Linux armv81,59.52380952,,,,,,,,,,,3,14,6,1,,,,,,,,,,,,,,,,,,,,,,,,,,,,,,,
5e5c3cc556ec124282602756,SCR,2024-06-11_12h11.52.927,LearnStrategy,2023.2.3,Linux armv81,59.52380952,,,,,,,,,,,1,14,6,2,,,,,,,,,,,,,,,,,,,,,,,,,,,,,,,
5e5c3cc556ec124282602756,SCR,2024-06-11_12h11.52.927,LearnStrategy,2023.2.3,Linux armv81,59.52380952,,,,,,,,,,,8,03,6,3,,,,,,,,,,,,,,,,,,,,,,,,,,,,,,,
5e5c3cc556ec124282602756,SCR,2024-06-11_12h11.52.927,LearnStrategy,2023.2.3,Linux armv81,59.52380952,,,,,,,,,,,6,05,6,4,,,,,,,,,,,,,,,,,,,,,,,,,,,,,,,
5e5c3cc556ec124282602756,SCR,2024-06-11_12h11.52.927,LearnStrategy,2023.2.3,Linux armv81,59.52380952,,,,,,,,,,,3,10,6,5,,,,,,,,,,,,,,,,,,,,,,,,,,,,,,,
5e5c3cc556ec124282602756,SCR,2024-06-11_12h11.52.927,LearnStrategy,2023.2.3,Linux armv81,59.52380952,,,,,,,,,,,6,09,6,6,,,,,,,,,,,,,,,,,,,,,,,,,,,,,,,
5e5c3cc556ec124282602756,SCR,2024-06-11_12h11.52.927,LearnStrategy,2023.2.3,Linux armv81,59.52380952,,,,,,,,,,,7,04,6,7,,,,,,,,,,,,,,,,,,,,,,,,,,,,,,,
5e5c3cc556ec124282602756,SCR,2024-06-11_12h11.52.927,LearnStrategy,2023.2.3,Linux armv81,59.52380952,,,,,,,,,,,6,16,6,8,,,,,,,,,,,,,,,,,,,,,,,,,,,,,,,