participant,condition,date,expName,psychopyVersion,OS,frameRate,block,phase,trial,learn_mouse_2.x,learn_mouse_2.y,learn_mouse_2.leftButton,learn_mouse_2.midButton,learn_mouse_2.rightButton,learn_mouse_2.time,learn_mouse_2.clicked_name,cat,token,row,col,t_select,cat_mouse_l.x,cat_mouse_l.y,cat_mouse_l.leftButton,cat_mouse_l.midButton,cat_mouse_l.rightButton,cat_mouse_l.time,cat_mouse_l.clicked_name,resp,t_resp,corr,train_trials.thisRepN,train_trials.thisTrialN,train_trials.thisN,train_trials.thisIndex,train_trials.ran,cat_mouse_t.x,cat_mouse_t.y,cat_mouse_t.leftButton,cat_mouse_t.midButton,cat_mouse_t.rightButton,cat_mouse_t.time,cat_mouse_t.clicked_name,test_trials.thisRepN,test_trials.thisTrialN,test_trials.thisN,test_trials.thisIndex,test_trials.ran
5e5d730f62ff4608804ad7a5,TCR,2024-06-10_15h12.13.256,LearnStrategy,2023.2.3,MacIntel,128.2051282,,,,,,,,,,,,,,,,,,,,,,,,,,,,,,,,,,,,,,,,,,
5e5d730f62ff4608804ad7a5,TCR,2024-06-10_15h12.13.256,LearnStrategy,2023.2.3,MacIntel,128.2051282,1,1,1,-0.022048611,-0.00223886,1,0,0,1.5473,rock_grid_rect_2,7,04,-1,-1,1.547,-0.102267795,-0.251833767,1,0,0,5.7438,Basalt_rect,2,5.744,0,0,0,0,0,1,,,,,,,,,,,,
5e5d730f62ff4608804ad7a5,TCR,2024-06-10_15h12.13.256,LearnStrategy,2023.2.3,MacIntel,128.2051282,1,1,2,-0.069690394,0.004246238,1,0,0,1.9226,rock_grid_rect_2,4,12,-1,-1,1.923,0.389702691,-0.388020833,1,0,0,2.3409,Pumice_rect,8,2.341,0,1,0,1,0,1,,,,,,,,,,,,
5e5d730f62ff4608804ad7a5,TCR,2024-06-10_15h12.13.256,LearnStrategy,2023.2.3,MacIntel,128.2051282,1,1,3,-0.043453414,-0.007132523,1,0,0,1.1473,rock_grid_rect_2,6,05,-1,-1,1.147,-0.394082755,-0.389673756,1,0,0,2.039,Obsidian_rect,5,2.039,0,2,0,2,0,1,,,,,,,,,,,,
5e5d730f62ff4608804ad7a5,TCR,2024-06-10_15h12.13.256,LearnStrategy,2023.2.3,MacIntel,128.2051282,1,1,4,-0.124287471,-0.011545139,1,0,0,1.0811,rock_grid_rect_2,5,04,-1,-1,1.081,-0.415592448,-0.405797888,1,0,0,1.5569,Obsidian_rect,5,1.557,1,3,0,3,0,1,,,,,,,,,,,,
5e5d730f62ff4608804ad7a5,TCR,2024-06-10_15h12.13.256,LearnStrategy,2023.2.3,MacIntel,128.2051282,1,1,5,0.002694589,-0.005418113,1,0,0,1.1558,rock_grid_rect_2,6,08,-1,-1,1.156,-0.383098235,-0.2619864,1,0,0,3.6691,Andesite_rect,1,3.669,0,4,0,4,0,1,,,,,,,,,,,,
5e5d730f62ff4608804ad7a5,TCR,2024-06-10_15h12.13.256,LearnStrategy,2023.2.3,MacIntel,128.2051282,1,1,6,-0.070062934,-0.001790365,1,0,0,1.743,rock_grid_rect_2,5,12,-1,-1,1.743,-0.384280961,-0.388364439,1,0,0,1.4942,Obsidian_rect,5,1.494,1,5,0,5,0,1,,,,,,,,,,,,
5e5d730f62ff4608804ad7a5,TCR,2024-06-10_15h12.13.256,LearnStrategy,2023.2.3,MacIntel,128.2051282,1,1,7,-0.104835793,-0.00994647,1,0,0,0.8559,rock_grid_rect_2,2,09,-1,-1,0.856,0.334121817,-0.267089844,1,0,0,3.0677,Gabbro_rect,4,3.068,0,6,0,6,0,1,,,,,,,,,,,,
5e5d730f62ff4608804ad7a5,TCR,2024-06-10_15h12.13.256,LearnStrategy,2023.2.3,MacIntel,128.2051282,1,1,8,-0.026157407,-0.012811053,1,0,0,1.4639,rock_grid_rect_2,8,03,-1,-1,1.464,0.0846318,-0.259544994,1,0,0,2.1397,Diorite_rect,3,2.14,0,7,0,7,0,1,,,,,,,,,,,,
5e5d730f62ff4608804ad7a5,TCR,2024-06-10_15h12.13.256,LearnStrategy,2023.2.3,MacIntel,128.2051282,1,1,9,0.01583478,-0.006463397,1,0,0,1.0052,rock_grid_rect_2,3,13,-1,-1,1.005,-0.363574219,-0.255298756,1,0,0,1.954,Andesite_rect,1,1.954,0,8,0,8,0,1,,,,,,,,,,,,
5e5d730f62ff4608804ad7a5,TCR,2024-06-10_15h12.13.256,LearnStrategy,2023.2.3,MacIntel,128.2051282,1,1,10,-0.051576968,-0.006177662,1,0,0,0.9547,rock_grid_rect_2,8,10,-1,-1,0.955,0.391207321,-0.400719763,1,0,0,1.0914,Pumice_rect,8,1.091,1,9,0,9,0,1,,,,,,,,,,,,
5e5d730f62ff4608804ad7a5,TCR,2024-06-10_15h12.13.256,LearnStrategy,2023.2.3,MacIntel,128.2051282,1,1,11,-0.046126302,-0.005490451,1,0,0,0.8993,rock_grid_rect_2,2,04,-1,-1,0.899,-0.100564236,-0.250415943,1,0,0,2.7187,Basalt_rect,2,2.719,1,10,0,10,0,1,,,,,,,,,,,,
5e5d730f62ff4608804ad7a5,TCR,2024-06-10_15h12.13.256,LearnStrategy,2023.2.3,MacIntel,128.2051282,1,1,12,-0.050227865,-0.012633825,1,0,0,0.879,rock_grid_rect_2,4,15,-1,-1,0.879,0.194968895,-0.256011285,1,0,0,2.4953,Diorite_rect,3,2.495,0,11,0,11,0,1,,,,,,,,,,,,
5e5d730f62ff4608804ad7a5,TCR,2024-06-10_15h12.13.256,LearnStrategy,2023.2.3,MacIntel,128.2051282,1,1,13,0.059696904,0.000878906,1,0,0,0.8497,rock_grid_rect_2,1,10,-1,-1,0.85,0.463498264,-0.418182147,1,0,0,1.8499,Pumice_rect,8,1.85,0,12,0,12,0,1,,,,,,,,,,,,
5e5d730f62ff4608804ad7a5,TCR,2024-06-10_15h12.13.256,LearnStrategy,2023.2.3,MacIntel,128.2051282,1,1,14,-0.005508536,-0.019748264,1,0,0,0.9329,rock_grid_rect_2,1,07,-1,-1,0.933,0.423173466,-0.256231916,1,0,0,1.2182,Gabbro_rect,4,1.218,0,13,0,13,0,1,,,,,,,,,,,,
5e5d730f62ff4608804ad7a5,TCR,2024-06-10_15h12.13.256,LearnStrategy,2023.2.3,MacIntel,128.2051282,1,1,15,0.08889974,0.008568432,1,0,0,0.7812,rock_grid_rect_2,7,12,-1,-1,0.781,-0.393836806,-0.24317853,1,0,0,1.2266,Andesite_rect,1,1.227,0,14,0,14,0,1,,,,,,,,,,,,
5e5d730f62ff4608804ad7a5,TCR,2024-06-10_15h12.13.256,LearnStrategy,2023.2.3,MacIntel,128.2051282,1,1,16,-0.015346499,0.00530599,1,0,0,1.0149,rock_grid_rect_2,3,06,-1,-1,1.015,-0.393156829,-0.254072627,1,0,0,3.5357,Andesite_rect,1,3.536,0,15,0,15,0,1,,,,,,,,,,,,
5e5d730f62ff4608804ad7a5,TCR,2024-06-10_15h12.13.256,LearnStrategy,2023.2.3,MacIntel,128.2051282,1,2,1,,,,,,,,5,16,,,,,,,,,,,5,1.367,1,,,,,,-0.385630064,-0.397641782,1,0,0,1.367,Obsidian_rect,0,0,0,0,1
5e5d730f62ff4608804ad7a5,TCR,2024-06-10_15h12.13.256,LearnStrategy,2023.2.3,MacIntel,128.2051282,1,2,2,,,,,,,,2,14,,,,,,,,,,,8,5.584,0,,,,,,0.401273148,-0.416626881,1,0,0,5.5835,Pumice_rect,1,0,1,0,1
5e5d730f62ff4608804ad7a5,TCR,2024-06-10_15h12.13.256,LearnStrategy,2023.2.3,MacIntel,128.2051282,1,2,3,,,,,,,,7,15,,,,,,,,,,,1,7.326,0,,,,,,-0.365198206,-0.260886863,1,0,0,7.3259,Andesite_rect,2,0,2,0,1
5e5d730f62ff4608804ad7a5,TCR,2024-06-10_15h12.13.256,LearnStrategy,2023.2.3,MacIntel,128.2051282,1,2,4,,,,,,,,3,15,,,,,,,,,,,6,4.279,0,,,,,,-0.116659433,-0.413946759,1,0,0,4.2792,Pegmatite_rect,3,0,3,0,1
5e5d730f62ff4608804ad7a5,TCR,2024-06-10_15h12.13.256,LearnStrategy,2023.2.3,MacIntel,128.2051282,1,2,5,,,,,,,,3,14,,,,,,,,,,,3,5.698,1,,,,,,0.095793547,-0.252101418,1,0,0,5.6985,Diorite_rect,4,0,4,0,1
5e5d730f62ff4608804ad7a5,TCR,2024-06-10_15h12.13.256,LearnStrategy,2023.2.3,MacIntel,128.2051282,1,2,6,,,,,,,,6,16,,,,,,,,,,,4,6.384,0,,,,,,0.386867043,-0.259056713,1,0,0,6.3844,Gabbro_rect,5,0,5,0,1
5e5d730f62ff4608804ad7a5,TCR,2024-06-10_15h12.13.256,LearnStrategy,2023.2.3,MacIntel,128.2051282,1,2,7,,,,,,,,8,14,,,,,,,,,,,8,1.358,1,,,,,,0.415339265,-0.396292679,1,0,0,1.3578,Pumice_rect,6,0,6,0,1
5e5d730f62ff4608804ad7a5,TCR,2024-06-10_15h12.13.256,LearnStrategy,2023.2.3,MacIntel,128.2051282,1,2,8,,,,,,,,1,16,,,,,,,,,,,3,7.318,0,,,,,,0.159338831,-0.234194155,1,0,0,7.3184,Diorite_rect,7,0,7,0,1
5e5d730f62ff4608804ad7a5,TCR,2024-06-10_15h12.13.256,LearnStrategy,2023.2.3,MacIntel,128.2051282,1,2,9,,,,,,,,1,09,,,,,,,,,,,2,3.535,0,,,,,,-0.12135055,-0.268992332,1,0,0,3.535,Basalt_rect,8,0,8,0,1
5e5d730f62ff4608804ad7a5,TCR,2024-06-10_15h12.13.256,LearnStrategy,2023.2.3,MacIntel,128.2051282,1,2,10,,,,,,,,4,09,,,,,,,,,,,2,4.298,0,,,,,,-0.109389468,-0.258528646,1,0,0,4.2978,Basalt_rect,9,0,9,0,1
5e5d730f62ff4608804ad7a5,TCR,2024-06-10_15h12.13.256,LearnStrategy,2023.2.3,MacIntel,128.2051282,1,2,11,,,,,,,,8,16,,,,,,,,,,,8,1.114,1,,,,,,0.344292535,-0.403052662,1,0,0,1.1143,Pumice_rect,10,0,10,0,1
5e5d730f62ff4608804ad7a5,TCR,2024-06-10_15h12.13.256,LearnStrategy,2023.2.3,MacIntel,128.2051282,1,2,12,,,,,,,,2,02,,,,,,,,,,,2,1.158,1,,,,,,-0.119050203,-0.231532118,1,0,0,1.1582,Basalt_rect,11,0,11,0,1
5e5d730f62ff4608804ad7a5,TCR,2024-06-10_15h12.13.256,LearnStrategy,2023.2.3,MacIntel,128.2051282,1,2,13,,,,,,,,4,05,,,,,,,,,,,1,3.428,0,,,,,,-0.365954138,-0.261964699,1,0,0,3.4282,Andesite_rect,12,0,12,0,1
5e5d730f62ff4608804ad7a5,TCR,2024-06-10_15h12.13.256,LearnStrategy,2023.2.3,MacIntel,128.2051282,1,2,14,,,,,,,,6,07,,,,,,,,,,,6,1.645,1,,,,,,-0.125108507,-0.391894531,1,0,0,1.6452,Pegmatite_rect,13,0,13,0,1
5e5d730f62ff4608804ad7a5,TCR,2024-06-10_15h12.13.256,LearnStrategy,2023.2.3,MacIntel,128.2051282,1,2,15,,,,,,,,5,02,,,,,,,,,,,5,0.907,1,,,,,,-0.435753038,-0.406589988,1,0,0,0.9074,Obsidian_rect,14,0,14,0,1
5e5d730f62ff4608804ad7a5,TCR,2024-06-10_15h12.13.256,LearnStrategy,2023.2.3,MacIntel,128.2051282,1,2,16,,,,,,,,7,07,,,,,,,,,,,1,2.125,0,,,,,,-0.35776548,-0.259577546,1,0,0,2.1249,Andesite_rect,15,0,15,0,1
5e5d730f62ff4608804ad7a5,TCR,2024-06-10_15h12.13.256,LearnStrategy,2023.2.3,MacIntel,128.2051282,2,1,1,-0.028924334,-0.004137731,1,0,0,1.0253,rock_grid_rect_2,7,02,-1,-1,1.025,0.13041088,-0.266775174,1,0,0,4.3676,Diorite_rect,3,4.368,0,0,0,0,0,1,,,,,,,,,,,,
5e5d730f62ff4608804ad7a5,TCR,2024-06-10_15h12.13.256,LearnStrategy,2023.2.3,MacIntel,128.2051282,2,1,2,-0.015227141,-0.018196615,1,0,0,1.2356,rock_grid_rect_2,1,14,-1,-1,1.236,-0.139854601,-0.416460503,1,0,0,4.0288,Pegmatite_rect,6,4.029,0,1,0,1,0,1,,,,,,,,,,,,
5e5d730f62ff4608804ad7a5,TCR,2024-06-10_15h12.13.256,LearnStrategy,2023.2.3,MacIntel,128.2051282,2,1,3,-0.033922888,-0.010915799,1,0,0,1.1539,rock_grid_rect_2,6,13,-1,-1,1.154,-0.087319155,-0.390039062,1,0,0,3.087,Pegmatite_rect,6,3.087,1,2,0,2,0,1,,,,,,,,,,,,
5e5d730f62ff4608804ad7a5,TCR,2024-06-10_15h12.13.256,LearnStrategy,2023.2.3,MacIntel,128.2051282,2,1,4,-0.135217737,-0.024884259,1,0,0,0.8047,rock_grid_rect_2,4,08,-1,-1,0.805,0.13410735,-0.402560764,1,0,0,3.7893,Peridotite_rect,7,3.789,0,3,0,3,0,1,,,,,,,,,,,,
5e5d730f62ff4608804ad7a5,TCR,2024-06-10_15h12.13.256,LearnStrategy,2023.2.3,MacIntel,128.2051282,2,1,5,0.063671875,-0.009552228,1,0,0,0.8816,rock_grid_rect_2,1,14,-1,-1,0.882,-0.321365017,-0.240863715,1,0,0,5.4905,Andesite_rect,1,5.49,1,4,0,4,0,1,,,,,,,,,,,,
5e5d730f62ff4608804ad7a5,TCR,2024-06-10_15h12.13.256,LearnStrategy,2023.2.3,MacIntel,128.2051282,2,1,6,-0.032418258,-0.00521195,1,0,0,1.1314,rock_grid_rect_2,4,11,-1,-1,1.131,-0.088031684,-0.258015046,1,0,0,1.5687,Basalt_rect,2,1.569,0,5,0,5,0,1,,,,,,,,,,,,
5e5d730f62ff4608804ad7a5,TCR,2024-06-10_15h12.13.256,LearnStrategy,2023.2.3,MacIntel,128.2051282,2,1,7,-0.094853154,0.006344039,1,0,0,1.8615,rock_grid_rect_2,7,16,-1,-1,1.861,0.149913194,-0.26452908,1,0,0,6.0608,Diorite_rect,3,6.061,0,6,0,6,0,1,,,,,,,,,,,,
5e5d730f62ff4608804ad7a5,TCR,2024-06-10_15h12.13.256,LearnStrategy,2023.2.3,MacIntel,128.2051282,2,1,8,0.036017072,-0.012789352,1,0,0,2.3554,rock_grid_rect_2,3,06,-1,-1,2.355,-0.109722222,-0.398097512,1,0,0,6.604,Pegmatite_rect,6,6.604,0,7,0,7,0,1,,,,,,,,,,,,
5e5d730f62ff4608804ad7a5,TCR,2024-06-10_15h12.13.256,LearnStrategy,2023.2.3,MacIntel,128.2051282,2,1,9,-0.051841001,0.004318576,1,0,0,0.91,rock_grid_rect_2,2,04,-1,-1,0.91,-0.108199508,-0.26125217,1,0,0,1.3318,Basalt_rect,2,1.332,1,8,0,8,0,1,,,,,,,,,,,,
5e5d730f62ff4608804ad7a5,TCR,2024-06-10_15h12.13.256,LearnStrategy,2023.2.3,MacIntel,128.2051282,2,1,10,-0.053215422,-0.005794271,1,0,0,0.8041,rock_grid_rect_2,7,12,-1,-1,0.804,0.17911603,-0.231615307,1,0,0,1.8784,Diorite_rect,3,1.878,0,9,0,9,0,1,,,,,,,,,,,,
5e5d730f62ff4608804ad7a5,TCR,2024-06-10_15h12.13.256,LearnStrategy,2023.2.3,MacIntel,128.2051282,2,1,11,-0.002672888,-0.00927011,1,0,0,1.4932,rock_grid_rect_2,4,12,-1,-1,1.493,0.122746672,-0.393496817,1,0,0,2.1587,Peridotite_rect,7,2.159,0,10,0,10,0,1,,,,,,,,,,,,
5e5d730f62ff4608804ad7a5,TCR,2024-06-10_15h12.13.256,LearnStrategy,2023.2.3,MacIntel,128.2051282,2,1,12,-0.049924045,-0.012944878,1,0,0,0.7898,rock_grid_rect_2,6,13,-1,-1,0.79,-0.107125289,-0.403262442,1,0,0,1.2104,Pegmatite_rect,6,1.21,1,11,0,11,0,1,,,,,,,,,,,,
5e5d730f62ff4608804ad7a5,TCR,2024-06-10_15h12.13.256,LearnStrategy,2023.2.3,MacIntel,128.2051282,2,1,13,-0.098708767,0.010944734,1,0,0,0.7156,rock_grid_rect_2,8,15,-1,-1,0.716,0.415172888,-0.389022714,1,0,0,1.1378,Pumice_rect,8,1.138,1,12,0,12,0,1,,,,,,,,,,,,
5e5d730f62ff4608804ad7a5,TCR,2024-06-10_15h12.13.256,LearnStrategy,2023.2.3,MacIntel,128.2051282,2,1,14,-0.082447193,-0.011360677,1,0,0,0.7361,rock_grid_rect_2,2,16,-1,-1,0.736,-0.10583044,-0.249634693,1,0,0,1.9412,Basalt_rect,2,1.941,1,13,0,13,0,1,,,,,,,,,,,,
5e5d730f62ff4608804ad7a5,TCR,2024-06-10_15h12.13.256,LearnStrategy,2023.2.3,MacIntel,128.2051282,2,1,15,-0.090245226,-0.014970341,1,0,0,0.9715,rock_grid_rect_2,1,10,-1,-1,0.971,-0.382751013,-0.258246528,1,0,0,3.1862,Andesite_rect,1,3.186,1,14,0,14,0,1,,,,,,,,,,,,
5e5d730f62ff4608804ad7a5,TCR,2024-06-10_15h12.13.256,LearnStrategy,2023.2.3,MacIntel,128.2051282,2,1,16,-0.021976273,-0.01353805,1,0,0,0.8948,rock_grid_rect_2,3,13,-1,-1,0.895,0.194053819,-0.406640625,1,0,0,3.1501,Peridotite_rect,7,3.15,0,15,0,15,0,1,,,,,,,,,,,,
5e5d730f62ff4608804ad7a5,TCR,2024-06-10_15h12.13.256,LearnStrategy,2023.2.3,MacIntel,128.2051282,2,2,1,,,,,,,,5,08,,,,,,,,,,,5,3.133,1,,,,,,-0.338671875,-0.389713542,1,0,0,3.1332,Obsidian_rect,0,0,0,0,1
5e5d730f62ff4608804ad7a5,TCR,2024-06-10_15h12.13.256,LearnStrategy,2023.2.3,MacIntel,128.2051282,2,2,2,,,,,,,,1,04,,,,,,,,,,,4,3.178,0,,,,,,0.458145255,-0.249652778,1,0,0,3.1777,Gabbro_rect,1,0,1,0,1
5e5d730f62ff4608804ad7a5,TCR,2024-06-10_15h12.13.256,LearnStrategy,2023.2.3,MacIntel,128.2051282,2,2,3,,,,,,,,3,07,,,,,,,,,,,6,4.517,0,,,,,,-0.074309172,-0.399153646,1,0,0,4.5171,Pegmatite_rect,2,0,2,0,1
5e5d730f62ff4608804ad7a5,TCR,2024-06-10_15h12.13.256,LearnStrategy,2023.2.3,MacIntel,128.2051282,2,2,4,,,,,,,,6,03,,,,,,,,,,,7,6.115,0,,,,,,0.160036892,-0.398603877,1,0,0,6.1151,Peridotite_rect,3,0,3,0,1
5e5d730f62ff4608804ad7a5,TCR,2024-06-10_15h12.13.256,LearnStrategy,2023.2.3,MacIntel,128.2051282,2,2,5,,,,,,,,4,14,,,,,,,,,,,4,2.592,1,,,,,,0.389637587,-0.256119792,1,0,0,2.5924,Gabbro_rect,4,0,4,0,1
5e5d730f62ff4608804ad7a5,TCR,2024-06-10_15h12.13.256,LearnStrategy,2023.2.3,MacIntel,128.2051282,2,2,6,,,,,,,,7,05,,,,,,,,,,,3,12.064,0,,,,,,0.149764902,-0.26442419,1,0,0,12.0638,Diorite_rect,5,0,5,0,1
5e5d730f62ff4608804ad7a5,TCR,2024-06-10_15h12.13.256,LearnStrategy,2023.2.3,MacIntel,128.2051282,2,2,7,,,,,,,,8,05,,,,,,,,,,,8,0.969,1,,,,,,0.361501736,-0.379043692,1,0,0,0.9685,Pumice_rect,6,0,6,0,1
5e5d730f62ff4608804ad7a5,TCR,2024-06-10_15h12.13.256,LearnStrategy,2023.2.3,MacIntel,128.2051282,2,2,8,,,,,,,,3,08,,,,,,,,,,,6,9.108,0,,,,,,-0.199363426,-0.385702402,1,0,0,9.1078,Pegmatite_rect,7,0,7,0,1
5e5d730f62ff4608804ad7a5,TCR,2024-06-10_15h12.13.256,LearnStrategy,2023.2.3,MacIntel,128.2051282,2,2,9,,,,,,,,6,10,,,,,,,,,,,7,3.156,0,,,,,,0.202314815,-0.409487124,1,0,0,3.1555,Peridotite_rect,8,0,8,0,1
5e5d730f62ff4608804ad7a5,TCR,2024-06-10_15h12.13.256,LearnStrategy,2023.2.3,MacIntel,128.2051282,2,2,10,,,,,,,,2,05,,,,,,,,,,,2,1.445,1,,,,,,-0.214395255,-0.240093316,1,0,0,1.4449,Basalt_rect,9,0,9,0,1
5e5d730f62ff4608804ad7a5,TCR,2024-06-10_15h12.13.256,LearnStrategy,2023.2.3,MacIntel,128.2051282,2,2,11,,,,,,,,8,04,,,,,,,,,,,8,0.995,1,,,,,,0.354904514,-0.398998119,1,0,0,0.9951,Pumice_rect,10,0,10,0,1
5e5d730f62ff4608804ad7a5,TCR,2024-06-10_15h12.13.256,LearnStrategy,2023.2.3,MacIntel,128.2051282,2,2,12,,,,,,,,2,11,,,,,,,,,,,8,2.012,0,,,,,,0.353692853,-0.39681713,1,0,0,2.0116,Pumice_rect,11,0,11,0,1
5e5d730f62ff4608804ad7a5,TCR,2024-06-10_15h12.13.256,LearnStrategy,2023.2.3,MacIntel,128.2051282,2,2,13,,,,,,,,7,08,,,,,,,,,,,3,3.185,0,,,,,,0.153873698,-0.265993924,1,0,0,3.1846,Diorite_rect,12,0,12,0,1
5e5d730f62ff4608804ad7a5,TCR,2024-06-10_15h12.13.256,LearnStrategy,2023.2.3,MacIntel,128.2051282,2,2,14,,,,,,,,4,13,,,,,,,,,,,4,3.093,1,,,,,,0.340444155,-0.250014468,1,0,0,3.0927,Gabbro_rect,13,0,13,0,1
5e5d730f62ff4608804ad7a5,TCR,2024-06-10_15h12.13.256,LearnStrategy,2023.2.3,MacIntel,128.2051282,2,2,15,,,,,,,,5,14,,,,,,,,,,,5,1.252,1,,,,,,-0.405555556,-0.409957321,1,0,0,1.2525,Obsidian_rect,14,0,14,0,1
5e5d730f62ff4608804ad7a5,TCR,2024-06-10_15h12.13.256,LearnStrategy,2023.2.3,MacIntel,128.2051282,2,2,16,,,,,,,,1,01,,,,,,,,,,,4,1.607,0,,,,,,0.459711372,-0.257024016,1,0,0,1.6073,Gabbro_rect,15,0,15,0,1
5e5d730f62ff4608804ad7a5,TCR,2024-06-10_15h12.13.256,LearnStrategy,2023.2.3,MacIntel,128.2051282,3,1,1,0.003729022,-0.009172454,1,0,0,0.5767,rock_grid_rect_2,4,15,-1,-1,0.577,0.463042535,-0.25525897,1,0,0,1.5437,Gabbro_rect,4,1.544,1,0,0,0,0,1,,,,,,,,,,,,
5e5d730f62ff4608804ad7a5,TCR,2024-06-10_15h12.13.256,LearnStrategy,2023.2.3,MacIntel,128.2051282,3,1,2,-0.059696904,-0.015889034,1,0,0,0.9905,rock_grid_rect_2,2,04,-1,-1,0.991,-0.082411024,-0.234299045,1,0,0,0.9861,Basalt_rect,2,0.986,1,1,0,1,0,1,,,,,,,,,,,,
5e5d730f62ff4608804ad7a5,TCR,2024-06-10_15h12.13.256,LearnStrategy,2023.2.3,MacIntel,128.2051282,3,1,3,-0.038632089,0.008539497,1,0,0,1.0223,rock_grid_rect_2,3,06,-1,-1,1.022,-0.083402054,-0.381781684,1,0,0,6.4278,Pegmatite_rect,6,6.428,0,2,0,2,0,1,,,,,,,,,,,,
5e5d730f62ff4608804ad7a5,TCR,2024-06-10_15h12.13.256,LearnStrategy,2023.2.3,MacIntel,128.2051282,3,1,4,-0.036498119,0.008025897,1,0,0,0.8986,rock_grid_rect_2,1,06,-1,-1,0.899,0.13733724,-0.235915799,1,0,0,1.5413,Diorite_rect,3,1.541,0,3,0,3,0,1,,,,,,,,,,,,
5e5d730f62ff4608804ad7a5,TCR,2024-06-10_15h12.13.256,LearnStrategy,2023.2.3,MacIntel,128.2051282,3,1,5,-0.058977141,-0.018569155,1,0,0,0.9399,rock_grid_rect_2,3,11,-1,-1,0.94,-0.450097656,-0.239290365,1,0,0,1.2997,Andesite_rect,1,1.3,0,4,0,4,0,1,,,,,,,,,,,,
5e5d730f62ff4608804ad7a5,TCR,2024-06-10_15h12.13.256,LearnStrategy,2023.2.3,MacIntel,128.2051282,3,1,6,-0.08635706,0.009038628,1,0,0,1.0489,rock_grid_rect_2,6,08,-1,-1,1.049,-0.122186053,-0.402039931,1,0,0,2.6751,Pegmatite_rect,6,2.675,1,5,0,5,0,1,,,,,,,,,,,,
5e5d730f62ff4608804ad7a5,TCR,2024-06-10_15h12.13.256,LearnStrategy,2023.2.3,MacIntel,128.2051282,3,1,7,-0.093004919,-0.010734954,1,0,0,0.783,rock_grid_rect_2,1,10,-1,-1,0.783,-0.338519965,-0.238982928,1,0,0,5.5276,Andesite_rect,1,5.528,1,6,0,6,0,1,,,,,,,,,,,,
5e5d730f62ff4608804ad7a5,TCR,2024-06-10_15h12.13.256,LearnStrategy,2023.2.3,MacIntel,128.2051282,3,1,8,-0.039558015,-0.006325955,1,0,0,0.8567,rock_grid_rect_2,7,13,-1,-1,0.857,0.148976418,-0.40046658,1,0,0,1.557,Peridotite_rect,7,1.557,1,7,0,7,0,1,,,,,,,,,,,,
5e5d730f62ff4608804ad7a5,TCR,2024-06-10_15h12.13.256,LearnStrategy,2023.2.3,MacIntel,128.2051282,3,1,9,-0.025387008,-0.014301215,1,0,0,0.8227,rock_grid_rect_2,8,03,-1,-1,0.823,0.361805556,-0.394032118,1,0,0,1.313,Pumice_rect,8,1.313,1,8,0,8,0,1,,,,,,,,,,,,
5e5d730f62ff4608804ad7a5,TCR,2024-06-10_15h12.13.256,LearnStrategy,2023.2.3,MacIntel,128.2051282,3,1,10,-0.086053241,0.006134259,1,0,0,0.9479,rock_grid_rect_2,6,15,-1,-1,0.948,0.101450376,-0.394180411,1,0,0,1.1602,Peridotite_rect,7,1.16,0,9,0,9,0,1,,,,,,,,,,,,
5e5d730f62ff4608804ad7a5,TCR,2024-06-10_15h12.13.256,LearnStrategy,2023.2.3,MacIntel,128.2051282,3,1,11,0.039286748,-0.014847367,1,0,0,0.9053,rock_grid_rect_2,4,16,-1,-1,0.905,0.375459346,-0.242787905,1,0,0,2.2925,Gabbro_rect,4,2.293,1,10,0,10,0,1,,,,,,,,,,,,
5e5d730f62ff4608804ad7a5,TCR,2024-06-10_15h12.13.256,LearnStrategy,2023.2.3,MacIntel,128.2051282,3,1,12,-0.074819155,-0.015606916,1,0,0,0.7061,rock_grid_rect_2,7,13,-1,-1,0.706,0.146466291,-0.384682436,1,0,0,2.6916,Peridotite_rect,7,2.692,1,11,0,11,0,1,,,,,,,,,,,,
5e5d730f62ff4608804ad7a5,TCR,2024-06-10_15h12.13.256,LearnStrategy,2023.2.3,MacIntel,128.2051282,3,1,13,0.114764178,-0.013650174,1,0,0,0.9257,rock_grid_rect_2,6,05,-1,-1,0.926,-0.117722801,-0.402864583,1,0,0,3.4143,Pegmatite_rect,6,3.414,1,12,0,12,0,1,,,,,,,,,,,,
5e5d730f62ff4608804ad7a5,TCR,2024-06-10_15h12.13.256,LearnStrategy,2023.2.3,MacIntel,128.2051282,3,1,14,-0.11780599,0.00296224,1,0,0,0.6733,rock_grid_rect_2,3,13,-1,-1,0.673,0.060463686,-0.240071615,1,0,0,3.3555,Diorite_rect,3,3.355,1,13,0,13,0,1,,,,,,,,,,,,
5e5d730f62ff4608804ad7a5,TCR,2024-06-10_15h12.13.256,LearnStrategy,2023.2.3,MacIntel,128.2051282,3,1,15,-0.043453414,-0.016218171,1,0,0,0.7258,rock_grid_rect_2,2,04,-1,-1,0.726,-0.094137008,-0.242834925,1,0,0,1.0907,Basalt_rect,2,1.091,1,14,0,14,0,1,,,,,,,,,,,,
5e5d730f62ff4608804ad7a5,TCR,2024-06-10_15h12.13.256,LearnStrategy,2023.2.3,MacIntel,128.2051282,3,1,16,-0.050835503,0.004361979,1,0,0,0.6725,rock_grid_rect_2,7,02,-1,-1,0.673,0.129079861,-0.243793403,1,0,0,3.3889,Diorite_rect,3,3.389,0,15,0,15,0,1,,,,,,,,,,,,
5e5d730f62ff4608804ad7a5,TCR,2024-06-10_15h12.13.256,LearnStrategy,2023.2.3,MacIntel,128.2051282,3,2,1,,,,,,,,8,08,,,,,,,,,,,8,3.283,1,,,,,,0.409035012,-0.405157697,1,0,0,3.2834,Pumice_rect,0,0,0,0,1
5e5d730f62ff4608804ad7a5,TCR,2024-06-10_15h12.13.256,LearnStrategy,2023.2.3,MacIntel,128.2051282,3,2,2,,,,,,,,4,10,,,,,,,,,,,4,3.727,1,,,,,,0.358355035,-0.230895544,1,0,0,3.7266,Gabbro_rect,1,0,1,0,1
5e5d730f62ff4608804ad7a5,TCR,2024-06-10_15h12.13.256,LearnStrategy,2023.2.3,MacIntel,128.2051282,3,2,3,,,,,,,,6,11,,,,,,,,,,,6,4.01,1,,,,,,-0.09890408,-0.388187211,1,0,0,4.0104,Pegmatite_rect,2,0,2,0,1
5e5d730f62ff4608804ad7a5,TCR,2024-06-10_15h12.13.256,LearnStrategy,2023.2.3,MacIntel,128.2051282,3,2,4,,,,,,,,5,06,,,,,,,,,,,5,1.519,1,,,,,,-0.356318721,-0.409494358,1,0,0,1.5187,Obsidian_rect,3,0,3,0,1
5e5d730f62ff4608804ad7a5,TCR,2024-06-10_15h12.13.256,LearnStrategy,2023.2.3,MacIntel,128.2051282,3,2,5,,,,,,,,7,14,,,,,,,,,,,1,6.78,0,,,,,,-0.367191117,-0.247887731,1,0,0,6.78,Andesite_rect,4,0,4,0,1
5e5d730f62ff4608804ad7a5,TCR,2024-06-10_15h12.13.256,LearnStrategy,2023.2.3,MacIntel,128.2051282,3,2,6,,,,,,,,1,03,,,,,,,,,,,1,3.992,1,,,,,,-0.38895761,-0.248104745,1,0,0,3.9922,Andesite_rect,5,0,5,0,1
5e5d730f62ff4608804ad7a5,TCR,2024-06-10_15h12.13.256,LearnStrategy,2023.2.3,MacIntel,128.2051282,3,2,7,,,,,,,,6,06,,,,,,,,,,,7,3.136,0,,,,,,0.209989873,-0.399207899,1,0,0,3.1357,Peridotite_rect,6,0,6,0,1
5e5d730f62ff4608804ad7a5,TCR,2024-06-10_15h12.13.256,LearnStrategy,2023.2.3,MacIntel,128.2051282,3,2,8,,,,,,,,2,01,,,,,,,,,,,2,1.143,1,,,,,,-0.176511863,-0.257074653,1,0,0,1.143,Basalt_rect,7,0,7,0,1
5e5d730f62ff4608804ad7a5,TCR,2024-06-10_15h12.13.256,LearnStrategy,2023.2.3,MacIntel,128.2051282,3,2,9,,,,,,,,2,10,,,,,,,,,,,2,0.966,1,,,,,,-0.065389902,-0.248784722,1,0,0,0.9662,Basalt_rect,8,0,8,0,1
5e5d730f62ff4608804ad7a5,TCR,2024-06-10_15h12.13.256,LearnStrategy,2023.2.3,MacIntel,128.2051282,3,2,10,,,,,,,,4,03,,,,,,,,,,,4,1.269,1,,,,,,0.437112992,-0.236223235,1,0,0,1.2688,Gabbro_rect,9,0,9,0,1
5e5d730f62ff4608804ad7a5,TCR,2024-06-10_15h12.13.256,LearnStrategy,2023.2.3,MacIntel,128.2051282,3,2,11,,,,,,,,8,09,,,,,,,,,,,8,0.971,1,,,,,,0.440201823,-0.40656467,1,0,0,0.9713,Pumice_rect,10,0,10,0,1
5e5d730f62ff4608804ad7a5,TCR,2024-06-10_15h12.13.256,LearnStrategy,2023.2.3,MacIntel,128.2051282,3,2,12,,,,,,,,7,10,,,,,,,,,,,3,3.352,0,,,,,,0.171075666,-0.257924624,1,0,0,3.3522,Diorite_rect,11,0,11,0,1
5e5d730f62ff4608804ad7a5,TCR,2024-06-10_15h12.13.256,LearnStrategy,2023.2.3,MacIntel,128.2051282,3,2,13,,,,,,,,3,02,,,,,,,,,,,1,4.159,0,,,,,,-0.4510489,-0.230902778,1,0,0,4.159,Andesite_rect,12,0,12,0,1
5e5d730f62ff4608804ad7a5,TCR,2024-06-10_15h12.13.256,LearnStrategy,2023.2.3,MacIntel,128.2051282,3,2,14,,,,,,,,5,09,,,,,,,,,,,5,2.025,1,,,,,,-0.413556134,-0.406767216,1,0,0,2.0253,Obsidian_rect,13,0,13,0,1
5e5d730f62ff4608804ad7a5,TCR,2024-06-10_15h12.13.256,LearnStrategy,2023.2.3,MacIntel,128.2051282,3,2,15,,,,,,,,1,11,,,,,,,,,,,4,5.566,0,,,,,,0.361060475,-0.238975694,1,0,0,5.5662,Gabbro_rect,14,0,14,0,1
5e5d730f62ff4608804ad7a5,TCR,2024-06-10_15h12.13.256,LearnStrategy,2023.2.3,MacIntel,128.2051282,3,2,16,,,,,,,,3,10,,,,,,,,,,,1,4.401,0,,,,,,-0.394748264,-0.247457321,1,0,0,4.4013,Andesite_rect,15,0,15,0,1
5e5d730f62ff4608804ad7a5,TCR,2024-06-10_15h12.13.256,LearnStrategy,2023.2.3,MacIntel,128.2051282,4,1,1,0.024283854,0.008351418,1,0,0,0.6726,rock_grid_rect_2,3,06,-1,-1,0.673,0.191724537,-0.25103805,1,0,0,2.111,Diorite_rect,3,2.111,1,0,0,0,0,1,,,,,,,,,,,,
5e5d730f62ff4608804ad7a5,TCR,2024-06-10_15h12.13.256,LearnStrategy,2023.2.3,MacIntel,128.2051282,4,1,2,-0.023187934,-0.005085359,1,0,0,0.8392,rock_grid_rect_2,1,07,-1,-1,0.839,-0.468113426,-0.259465422,1,0,0,2.2129,Andesite_rect,1,2.213,1,1,0,1,0,1,,,,,,,,,,,,
5e5d730f62ff4608804ad7a5,TCR,2024-06-10_15h12.13.256,LearnStrategy,2023.2.3,MacIntel,128.2051282,4,1,3,-0.011483652,-0.010604745,1,0,0,0.9485,rock_grid_rect_2,7,04,-1,-1,0.948,0.138697193,-0.40796441,1,0,0,2.5446,Peridotite_rect,7,2.545,1,2,0,2,0,1,,,,,,,,,,,,
5e5d730f62ff4608804ad7a5,TCR,2024-06-10_15h12.13.256,LearnStrategy,2023.2.3,MacIntel,128.2051282,4,1,4,-0.103653067,-0.014326534,1,0,0,0.6687,rock_grid_rect_2,7,12,-1,-1,0.669,-0.093894676,-0.4098886,1,0,0,2.5434,Pegmatite_rect,6,2.543,0,3,0,3,0,1,,,,,,,,,,,,
5e5d730f62ff4608804ad7a5,TCR,2024-06-10_15h12.13.256,LearnStrategy,2023.2.3,MacIntel,128.2051282,4,1,5,-0.090429687,0.012818287,1,0,0,0.6745,rock_grid_rect_2,6,08,-1,-1,0.674,-0.14906684,-0.406434462,1,0,0,0.9523,Pegmatite_rect,6,0.952,1,4,0,4,0,1,,,,,,,,,,,,
5e5d730f62ff4608804ad7a5,TCR,2024-06-10_15h12.13.256,LearnStrategy,2023.2.3,MacIntel,128.2051282,4,1,6,-0.05240162,-0.005844907,1,0,0,0.8078,rock_grid_rect_2,1,10,-1,-1,0.808,-0.404083478,-0.235655382,1,0,0,3.0935,Andesite_rect,1,3.094,1,5,0,5,0,1,,,,,,,,,,,,
5e5d730f62ff4608804ad7a5,TCR,2024-06-10_15h12.13.256,LearnStrategy,2023.2.3,MacIntel,128.2051282,4,1,7,-0.06333912,0.013053385,1,0,0,0.6785,rock_grid_rect_2,4,12,-1,-1,0.678,0.40276331,-0.256311487,1,0,0,2.529,Gabbro_rect,4,2.529,1,6,0,6,0,1,,,,,,,,,,,,
5e5d730f62ff4608804ad7a5,TCR,2024-06-10_15h12.13.256,LearnStrategy,2023.2.3,MacIntel,128.2051282,4,1,8,-0.018384693,-0.005949797,1,0,0,0.8817,rock_grid_rect_2,3,06,-1,-1,0.882,-0.432928241,-0.231980613,1,0,0,1.1357,Andesite_rect,1,1.136,0,7,0,7,0,1,,,,,,,,,,,,
5e5d730f62ff4608804ad7a5,TCR,2024-06-10_15h12.13.256,LearnStrategy,2023.2.3,MacIntel,128.2051282,4,1,9,-0.06822555,0.000296586,1,0,0,10.0047,rock_grid_rect_2,6,08,-1,-1,10.005,-0.105067274,-0.404698351,1,0,0,1.9,Pegmatite_rect,6,1.9,1,8,0,8,0,1,,,,,,,,,,,,
5e5d730f62ff4608804ad7a5,TCR,2024-06-10_15h12.13.256,LearnStrategy,2023.2.3,MacIntel,128.2051282,4,1,10,-0.064218027,-0.01098452,1,0,0,0.6833,rock_grid_rect_2,7,04,-1,-1,0.683,0.13963397,-0.399786603,1,0,0,1.2072,Peridotite_rect,7,1.207,1,9,0,9,0,1,,,,,,,,,,,,
5e5d730f62ff4608804ad7a5,TCR,2024-06-10_15h12.13.256,LearnStrategy,2023.2.3,MacIntel,128.2051282,4,1,11,-0.022981771,0.010763889,1,0,0,0.7795,rock_grid_rect_2,7,06,-1,-1,0.779,0.108043981,-0.259516059,1,0,0,1.5107,Diorite_rect,3,1.511,0,10,0,10,0,1,,,,,,,,,,,,
5e5d730f62ff4608804ad7a5,TCR,2024-06-10_15h12.13.256,LearnStrategy,2023.2.3,MacIntel,128.2051282,4,1,12,0.067567274,-0.020048466,1,0,0,1.1218,rock_grid_rect_2,1,06,-1,-1,1.122,0.393815104,-0.229940683,1,0,0,3.1863,Gabbro_rect,4,3.186,0,11,0,11,0,1,,,,,,,,,,,,
5e5d730f62ff4608804ad7a5,TCR,2024-06-10_15h12.13.256,LearnStrategy,2023.2.3,MacIntel,128.2051282,4,1,13,-0.049500868,-0.011725984,1,0,0,12.8225,rock_grid_rect_2,2,16,-1,-1,12.822,-0.124772135,-0.25625,1,0,0,1.5533,Basalt_rect,2,1.553,1,12,0,12,0,1,,,,,,,,,,,,
5e5d730f62ff4608804ad7a5,TCR,2024-06-10_15h12.13.256,LearnStrategy,2023.2.3,MacIntel,128.2051282,4,1,14,-0.157664207,0.018525752,1,0,0,0.6369,rock_grid_rect_2,1,05,-1,-1,0.637,0.156322338,-0.263993779,1,0,0,6.3378,Diorite_rect,3,6.338,0,13,0,13,0,1,,,,,,,,,,,,
5e5d730f62ff4608804ad7a5,TCR,2024-06-10_15h12.13.256,LearnStrategy,2023.2.3,MacIntel,128.2051282,4,1,15,0.027003762,-0.002723524,1,0,0,0.9153,rock_grid_rect_2,6,09,-1,-1,0.915,-0.117556424,-0.403519242,1,0,0,1.1041,Pegmatite_rect,6,1.104,1,14,0,14,0,1,,,,,,,,,,,,
5e5d730f62ff4608804ad7a5,TCR,2024-06-10_15h12.13.256,LearnStrategy,2023.2.3,MacIntel,128.2051282,4,1,16,-0.011783854,-0.006673177,1,0,0,0.8503,rock_grid_rect_2,3,11,-1,-1,0.85,-0.331271701,-0.248770255,1,0,0,3.1076,Andesite_rect,1,3.108,0,15,0,15,0,1,,,,,,,,,,,,
5e5d730f62ff4608804ad7a5,TCR,2024-06-10_15h12.13.256,LearnStrategy,2023.2.3,MacIntel,128.2051282,4,2,1,,,,,,,,3,14,,,,,,,,,,,1,6.15,0,,,,,,-0.390661169,-0.262514468,1,0,0,6.15,Andesite_rect,0,0,0,0,1
5e5d730f62ff4608804ad7a5,TCR,2024-06-10_15h12.13.256,LearnStrategy,2023.2.3,MacIntel,128.2051282,4,2,2,,,,,,,,5,14,,,,,,,,,,,5,0.993,1,,,,,,-0.344137008,-0.404441551,1,0,0,0.9927,Obsidian_rect,1,0,1,0,1
5e5d730f62ff4608804ad7a5,TCR,2024-06-10_15h12.13.256,LearnStrategy,2023.2.3,MacIntel,128.2051282,4,2,3,,,,,,,,6,03,,,,,,,,,,,6,1.066,1,,,,,,-0.14525463,-0.414474826,1,0,0,1.0661,Pegmatite_rect,2,0,2,0,1
5e5d730f62ff4608804ad7a5,TCR,2024-06-10_15h12.13.256,LearnStrategy,2023.2.3,MacIntel,128.2051282,4,2,4,,,,,,,,1,11,,,,,,,,,,,3,9.092,0,,,,,,0.164275897,-0.269990596,1,0,0,9.0922,Diorite_rect,3,0,3,0,1
5e5d730f62ff4608804ad7a5,TCR,2024-06-10_15h12.13.256,LearnStrategy,2023.2.3,MacIntel,128.2051282,4,2,5,,,,,,,,4,10,,,,,,,,,,,4,3.572,1,,,,,,0.415863715,-0.245728443,1,0,0,3.5717,Gabbro_rect,4,0,4,0,1
5e5d730f62ff4608804ad7a5,TCR,2024-06-10_15h12.13.256,LearnStrategy,2023.2.3,MacIntel,128.2051282,4,2,6,,,,,,,,3,07,,,,,,,,,,,3,6.508,1,,,,,,0.151511863,-0.266619647,1,0,0,6.508,Diorite_rect,5,0,5,0,1
5e5d730f62ff4608804ad7a5,TCR,2024-06-10_15h12.13.256,LearnStrategy,2023.2.3,MacIntel,128.2051282,4,2,7,,,,,,,,7,15,,,,,,,,,,,7,5.742,1,,,,,,0.169415509,-0.396954572,1,0,0,5.7423,Peridotite_rect,6,0,6,0,1
5e5d730f62ff4608804ad7a5,TCR,2024-06-10_15h12.13.256,LearnStrategy,2023.2.3,MacIntel,128.2051282,4,2,8,,,,,,,,8,04,,,,,,,,,,,8,0.888,1,,,,,,0.437214265,-0.408438223,1,0,0,0.8879,Pumice_rect,7,0,7,0,1
5e5d730f62ff4608804ad7a5,TCR,2024-06-10_15h12.13.256,LearnStrategy,2023.2.3,MacIntel,128.2051282,4,2,9,,,,,,,,4,13,,,,,,,,,,,4,2.924,1,,,,,,0.426363571,-0.252842882,1,0,0,2.9244,Gabbro_rect,8,0,8,0,1
5e5d730f62ff4608804ad7a5,TCR,2024-06-10_15h12.13.256,LearnStrategy,2023.2.3,MacIntel,128.2051282,4,2,10,,,,,,,,6,07,,,,,,,,,,,6,1.522,1,,,,,,-0.081568287,-0.393786169,1,0,0,1.5222,Pegmatite_rect,9,0,9,0,1
5e5d730f62ff4608804ad7a5,TCR,2024-06-10_15h12.13.256,LearnStrategy,2023.2.3,MacIntel,128.2051282,4,2,11,,,,,,,,1,04,,,,,,,,,,,1,1.758,1,,,,,,-0.343352141,-0.250965712,1,0,0,1.7584,Andesite_rect,10,0,10,0,1
5e5d730f62ff4608804ad7a5,TCR,2024-06-10_15h12.13.256,LearnStrategy,2023.2.3,MacIntel,128.2051282,4,2,12,,,,,,,,5,08,,,,,,,,,,,5,1.516,1,,,,,,-0.383825231,-0.410677083,1,0,0,1.5165,Obsidian_rect,11,0,11,0,1
5e5d730f62ff4608804ad7a5,TCR,2024-06-10_15h12.13.256,LearnStrategy,2023.2.3,MacIntel,128.2051282,4,2,13,,,,,,,,2,02,,,,,,,,,,,2,3.076,1,,,,,,-0.049728733,-0.254376447,1,0,0,3.0758,Basalt_rect,12,0,12,0,1
5e5d730f62ff4608804ad7a5,TCR,2024-06-10_15h12.13.256,LearnStrategy,2023.2.3,MacIntel,128.2051282,4,2,14,,,,,,,,8,14,,,,,,,,,,,8,2.249,1,,,,,,0.369708478,-0.412742332,1,0,0,2.249,Pumice_rect,13,0,13,0,1
5e5d730f62ff4608804ad7a5,TCR,2024-06-10_15h12.13.256,LearnStrategy,2023.2.3,MacIntel,128.2051282,4,2,15,,,,,,,,2,11,,,,,,,,,,,8,1.118,0,,,,,,0.497931134,-0.399916811,1,0,0,1.1185,Pumice_rect,14,0,14,0,1
5e5d730f62ff4608804ad7a5,TCR,2024-06-10_15h12.13.256,LearnStrategy,2023.2.3,MacIntel,128.2051282,4,2,16,,,,,,,,7,10,,,,,,,,,,,3,8.477,0,,,,,,0.169657841,-0.25339265,1,0,0,8.4768,Diorite_rect,15,0,15,0,1
5e5d730f62ff4608804ad7a5,TCR,2024-06-10_15h12.13.256,LearnStrategy,2023.2.3,MacIntel,128.2051282,5,1,1,-0.002170139,-0.002828414,1,0,0,0.5462,rock_grid_rect_2,7,04,-1,-1,0.546,0.165928819,-0.419574653,1,0,0,1.3297,Peridotite_rect,7,1.33,1,0,0,0,0,1,,,,,,,,,,,,
5e5d730f62ff4608804ad7a5,TCR,2024-06-10_15h12.13.256,LearnStrategy,2023.2.3,MacIntel,128.2051282,5,1,2,0.050784867,-0.015603299,1,0,0,0.9399,rock_grid_rect_2,2,06,-1,-1,0.94,-0.137507234,-0.263042535,1,0,0,1.3198,Basalt_rect,2,1.32,1,1,0,1,0,1,,,,,,,,,,,,
5e5d730f62ff4608804ad7a5,TCR,2024-06-10_15h12.13.256,LearnStrategy,2023.2.3,MacIntel,128.2051282,5,1,3,-0.031159578,-0.018862124,1,0,0,1.1317,rock_grid_rect_2,8,15,-1,-1,1.132,0.367617911,-0.408297164,1,0,0,1.138,Pumice_rect,8,1.138,1,2,0,2,0,1,,,,,,,,,,,,
5e5d730f62ff4608804ad7a5,TCR,2024-06-10_15h12.13.256,LearnStrategy,2023.2.3,MacIntel,128.2051282,5,1,4,-0.030475984,0.001421441,1,0,0,0.8989,rock_grid_rect_2,3,11,-1,-1,0.899,0.126417824,-0.237995515,1,0,0,2.4268,Diorite_rect,3,2.427,1,3,0,3,0,1,,,,,,,,,,,,
5e5d730f62ff4608804ad7a5,TCR,2024-06-10_15h12.13.256,LearnStrategy,2023.2.3,MacIntel,128.2051282,5,1,5,-0.002202691,-0.002665654,1,0,0,0.7171,rock_grid_rect_2,1,07,-1,-1,0.717,-0.325868056,-0.266503906,1,0,0,2.3882,Andesite_rect,1,2.388,1,4,0,4,0,1,,,,,,,,,,,,
5e5d730f62ff4608804ad7a5,TCR,2024-06-10_15h12.13.256,LearnStrategy,2023.2.3,MacIntel,128.2051282,5,1,6,0.081011285,-0.014814815,1,0,0,0.9638,rock_grid_rect_2,7,02,-1,-1,0.964,0.18499349,-0.392552807,1,0,0,1.1205,Peridotite_rect,7,1.12,1,5,0,5,0,1,,,,,,,,,,,,
5e5d730f62ff4608804ad7a5,TCR,2024-06-10_15h12.13.256,LearnStrategy,2023.2.3,MacIntel,128.2051282,5,1,7,0.131166811,0.007132523,1,0,0,0.8236,rock_grid_rect_2,1,06,-1,-1,0.824,-0.420066551,-0.260886863,1,0,0,1.2208,Andesite_rect,1,1.221,1,6,0,6,0,1,,,,,,,,,,,,
5e5d730f62ff4608804ad7a5,TCR,2024-06-10_15h12.13.256,LearnStrategy,2023.2.3,MacIntel,128.2051282,5,1,8,0.006510417,0.000799334,1,0,0,0.8456,rock_grid_rect_2,3,16,-1,-1,0.846,-0.348459201,-0.247363281,1,0,0,1.9382,Andesite_rect,1,1.938,0,7,0,7,0,1,,,,,,,,,,,,
5e5d730f62ff4608804ad7a5,TCR,2024-06-10_15h12.13.256,LearnStrategy,2023.2.3,MacIntel,128.2051282,5,1,9,0.019571036,-0.01120515,1,0,0,0.9069,rock_grid_rect_2,3,06,-1,-1,0.907,0.140646701,-0.240686487,1,0,0,1.2125,Diorite_rect,3,1.212,1,8,0,8,0,1,,,,,,,,,,,,
5e5d730f62ff4608804ad7a5,TCR,2024-06-10_15h12.13.256,LearnStrategy,2023.2.3,MacIntel,128.2051282,5,1,10,0.058398437,-0.009215856,1,0,0,0.8241,rock_grid_rect_2,6,12,-1,-1,0.824,-0.096195023,-0.385876013,1,0,0,1.3101,Pegmatite_rect,6,1.31,1,9,0,9,0,1,,,,,,,,,,,,
5e5d730f62ff4608804ad7a5,TCR,2024-06-10_15h12.13.256,LearnStrategy,2023.2.3,MacIntel,128.2051282,5,1,11,-0.016890914,0.015418837,1,0,0,0.6726,rock_grid_rect_2,4,15,-1,-1,0.673,0.035271991,-0.263201678,1,0,0,1.951,Diorite_rect,3,1.951,0,10,0,10,0,1,,,,,,,,,,,,
5e5d730f62ff4608804ad7a5,TCR,2024-06-10_15h12.13.256,LearnStrategy,2023.2.3,MacIntel,128.2051282,5,1,12,-0.016800492,-0.01057581,1,0,0,0.6509,rock_grid_rect_2,7,13,-1,-1,0.651,0.142560041,-0.39176794,1,0,0,1.1989,Peridotite_rect,7,1.199,1,11,0,11,0,1,,,,,,,,,,,,
5e5d730f62ff4608804ad7a5,TCR,2024-06-10_15h12.13.256,LearnStrategy,2023.2.3,MacIntel,128.2051282,5,1,13,0.019487847,-0.002365451,1,0,0,0.8616,rock_grid_rect_2,2,09,-1,-1,0.862,-0.130074508,-0.228273293,1,0,0,0.9514,Basalt_rect,2,0.951,1,12,0,12,0,1,,,,,,,,,,,,
5e5d730f62ff4608804ad7a5,TCR,2024-06-10_15h12.13.256,LearnStrategy,2023.2.3,MacIntel,128.2051282,5,1,14,-0.00739294,0.016142216,1,0,0,0.6549,rock_grid_rect_2,3,09,-1,-1,0.655,0.126576968,-0.233228443,1,0,0,2.5303,Diorite_rect,3,2.53,1,13,0,13,0,1,,,,,,,,,,,,
5e5d730f62ff4608804ad7a5,TCR,2024-06-10_15h12.13.256,LearnStrategy,2023.2.3,MacIntel,128.2051282,5,1,15,-0.042722801,0.006875723,1,0,0,0.8829,rock_grid_rect_2,1,07,-1,-1,0.883,-0.342560041,-0.239724392,1,0,0,1.1534,Andesite_rect,1,1.153,1,14,0,14,0,1,,,,,,,,,,,,
5e5d730f62ff4608804ad7a5,TCR,2024-06-10_15h12.13.256,LearnStrategy,2023.2.3,MacIntel,128.2051282,5,1,16,-0.034649884,-0.013527199,1,0,0,0.7507,rock_grid_rect_2,6,05,-1,-1,0.751,-0.159299045,-0.398976418,1,0,0,1.5424,Pegmatite_rect,6,1.542,1,15,0,15,0,1,,,,,,,,,,,,
5e5d730f62ff4608804ad7a5,TCR,2024-06-10_15h12.13.256,LearnStrategy,2023.2.3,MacIntel,128.2051282,5,2,1,,,,,,,,7,07,,,,,,,,,,,7,13.952,1,,,,,,0.140104167,-0.403345631,1,0,0,13.9525,Peridotite_rect,0,0,0,0,1
5e5d730f62ff4608804ad7a5,TCR,2024-06-10_15h12.13.256,LearnStrategy,2023.2.3,MacIntel,128.2051282,5,2,2,,,,,,,,2,14,,,,,,,,,,,8,1.332,0,,,,,,0.350079572,-0.386859809,1,0,0,1.3323,Pumice_rect,1,0,1,0,1
5e5d730f62ff4608804ad7a5,TCR,2024-06-10_15h12.13.256,LearnStrategy,2023.2.3,MacIntel,128.2051282,5,2,3,,,,,,,,8,05,,,,,,,,,,,8,0.726,1,,,,,,0.406477865,-0.415625,1,0,0,0.7261,Pumice_rect,2,0,2,0,1
5e5d730f62ff4608804ad7a5,TCR,2024-06-10_15h12.13.256,LearnStrategy,2023.2.3,MacIntel,128.2051282,5,2,4,,,,,,,,2,05,,,,,,,,,,,2,0.987,1,,,,,,-0.173119213,-0.252202691,1,0,0,0.9871,Basalt_rect,3,0,3,0,1
5e5d730f62ff4608804ad7a5,TCR,2024-06-10_15h12.13.256,LearnStrategy,2023.2.3,MacIntel,128.2051282,5,2,5,,,,,,,,8,08,,,,,,,,,,,8,1.027,1,,,,,,0.385452836,-0.400282118,1,0,0,1.0265,Pumice_rect,4,0,4,0,1
5e5d730f62ff4608804ad7a5,TCR,2024-06-10_15h12.13.256,LearnStrategy,2023.2.3,MacIntel,128.2051282,5,2,6,,,,,,,,3,02,,,,,,,,,,,3,4.112,1,,,,,,0.096184172,-0.257519531,1,0,0,4.1123,Diorite_rect,5,0,5,0,1
5e5d730f62ff4608804ad7a5,TCR,2024-06-10_15h12.13.256,LearnStrategy,2023.2.3,MacIntel,128.2051282,5,2,7,,,,,,,,5,02,,,,,,,,,,,5,0.961,1,,,,,,-0.455732784,-0.418478733,1,0,0,0.9612,Obsidian_rect,6,0,6,0,1
5e5d730f62ff4608804ad7a5,TCR,2024-06-10_15h12.13.256,LearnStrategy,2023.2.3,MacIntel,128.2051282,5,2,8,,,,,,,,1,16,,,,,,,,,,,3,2.602,0,,,,,,0.104322193,-0.267527488,1,0,0,2.6017,Diorite_rect,7,0,7,0,1
5e5d730f62ff4608804ad7a5,TCR,2024-06-10_15h12.13.256,LearnStrategy,2023.2.3,MacIntel,128.2051282,5,2,9,,,,,,,,4,09,,,,,,,,,,,4,2.026,1,,,,,,0.451902488,-0.242115162,1,0,0,2.0261,Gabbro_rect,8,0,8,0,1
5e5d730f62ff4608804ad7a5,TCR,2024-06-10_15h12.13.256,LearnStrategy,2023.2.3,MacIntel,128.2051282,5,2,10,,,,,,,,7,08,,,,,,,,,,,7,3.351,1,,,,,,0.193945312,-0.408865017,1,0,0,3.3509,Peridotite_rect,9,0,9,0,1
5e5d730f62ff4608804ad7a5,TCR,2024-06-10_15h12.13.256,LearnStrategy,2023.2.3,MacIntel,128.2051282,5,2,11,,,,,,,,6,06,,,,,,,,,,,6,1.276,1,,,,,,-0.088230613,-0.395583767,1,0,0,1.2759,Pegmatite_rect,10,0,10,0,1
5e5d730f62ff4608804ad7a5,TCR,2024-06-10_15h12.13.256,LearnStrategy,2023.2.3,MacIntel,128.2051282,5,2,12,,,,,,,,6,16,,,,,,,,,,,6,1.017,1,,,,,,-0.088230613,-0.395583767,1,0,0,1.0167,Pegmatite_rect,11,0,11,0,1
5e5d730f62ff4608804ad7a5,TCR,2024-06-10_15h12.13.256,LearnStrategy,2023.2.3,MacIntel,128.2051282,5,2,13,,,,,,,,3,15,,,,,,,,,,,3,4.544,1,,,,,,0.160159867,-0.26697772,1,0,0,4.5441,Diorite_rect,12,0,12,0,1
5e5d730f62ff4608804ad7a5,TCR,2024-06-10_15h12.13.256,LearnStrategy,2023.2.3,MacIntel,128.2051282,5,2,14,,,,,,,,1,01,,,,,,,,,,,4,3.137,0,,,,,,0.486657263,-0.269827836,1,0,0,3.1371,Gabbro_rect,13,0,13,0,1
5e5d730f62ff4608804ad7a5,TCR,2024-06-10_15h12.13.256,LearnStrategy,2023.2.3,MacIntel,128.2051282,5,2,15,,,,,,,,5,16,,,,,,,,,,,5,1.153,1,,,,,,-0.379741753,-0.397384983,1,0,0,1.1525,Obsidian_rect,14,0,14,0,1
5e5d730f62ff4608804ad7a5,TCR,2024-06-10_15h12.13.256,LearnStrategy,2023.2.3,MacIntel,128.2051282,5,2,16,,,,,,,,4,03,,,,,,,,,,,4,3.768,1,,,,,,0.419212963,-0.261407697,1,0,0,3.768,Gabbro_rect,15,0,15,0,1
5e5d730f62ff4608804ad7a5,TCR,2024-06-10_15h12.13.256,LearnStrategy,2023.2.3,MacIntel,128.2051282,6,1,1,0.00384838,-0.012843605,1,0,0,0.5741,rock_grid_rect_2,8,15,-1,-1,0.574,0.420920139,-0.412463831,1,0,0,1.1517,Pumice_rect,8,1.152,1,0,0,0,0,1,,,,,,,,,,,,
5e5d730f62ff4608804ad7a5,TCR,2024-06-10_15h12.13.256,LearnStrategy,2023.2.3,MacIntel,128.2051282,6,1,2,-0.005729167,-0.010101997,1,0,0,0.7088,rock_grid_rect_2,4,12,-1,-1,0.709,0.435474537,-0.258365885,1,0,0,2.3511,Gabbro_rect,4,2.351,1,1,0,1,0,1,,,,,,,,,,,,
5e5d730f62ff4608804ad7a5,TCR,2024-06-10_15h12.13.256,LearnStrategy,2023.2.3,MacIntel,128.2051282,6,1,3,0.001381655,-0.007599103,1,0,0,0.8712,rock_grid_rect_2,5,07,-1,-1,0.871,-0.377492043,-0.398741319,1,0,0,1.1281,Obsidian_rect,5,1.128,1,2,0,2,0,1,,,,,,,,,,,,
5e5d730f62ff4608804ad7a5,TCR,2024-06-10_15h12.13.256,LearnStrategy,2023.2.3,MacIntel,128.2051282,6,1,4,-0.010662616,-0.010760272,1,0,0,0.8614,rock_grid_rect_2,3,09,-1,-1,0.861,0.135897714,-0.260460069,1,0,0,1.413,Diorite_rect,3,1.413,1,3,0,3,0,1,,,,,,,,,,,,
5e5d730f62ff4608804ad7a5,TCR,2024-06-10_15h12.13.256,LearnStrategy,2023.2.3,MacIntel,128.2051282,6,1,5,-0.101124855,-0.02417173,1,0,0,0.7159,rock_grid_rect_2,1,07,-1,-1,0.716,-0.379929832,-0.241952402,1,0,0,1.1009,Andesite_rect,1,1.101,1,4,0,4,0,1,,,,,,,,,,,,
5e5d730f62ff4608804ad7a5,TCR,2024-06-10_15h12.13.256,LearnStrategy,2023.2.3,MacIntel,128.2051282,6,1,6,-0.121122685,-0.007703993,1,0,0,0.744,rock_grid_rect_2,7,04,-1,-1,0.744,0.181582755,-0.404868345,1,0,0,0.9248,Peridotite_rect,7,0.925,1,5,0,5,0,1,,,,,,,,,,,,
5e5d730f62ff4608804ad7a5,TCR,2024-06-10_15h12.13.256,LearnStrategy,2023.2.3,MacIntel,128.2051282,6,1,7,-0.059103733,-0.01786386,1,0,0,0.671,rock_grid_rect_2,3,11,-1,-1,0.671,0.104318576,-0.25129485,1,0,0,1.4865,Diorite_rect,3,1.487,1,6,0,6,0,1,,,,,,,,,,,,
5e5d730f62ff4608804ad7a5,TCR,2024-06-10_15h12.13.256,LearnStrategy,2023.2.3,MacIntel,128.2051282,6,1,8,-0.067733652,0.015317564,1,0,0,0.7473,rock_grid_rect_2,1,06,-1,-1,0.747,-0.409747541,-0.235966435,1,0,0,1.4213,Andesite_rect,1,1.421,1,7,0,7,0,1,,,,,,,,,,,,
5e5d730f62ff4608804ad7a5,TCR,2024-06-10_15h12.13.256,LearnStrategy,2023.2.3,MacIntel,128.2051282,6,1,9,-0.113574219,-0.008854167,1,0,0,0.7129,rock_grid_rect_2,3,09,-1,-1,0.713,-0.403884549,-0.232458044,1,0,0,1.256,Andesite_rect,1,1.256,0,8,0,8,0,1,,,,,,,,,,,,
5e5d730f62ff4608804ad7a5,TCR,2024-06-10_15h12.13.256,LearnStrategy,2023.2.3,MacIntel,128.2051282,6,1,10,-0.056680411,-0.021824363,1,0,0,0.7899,rock_grid_rect_2,6,12,-1,-1,0.79,-0.099902344,-0.415823929,1,0,0,1.5787,Pegmatite_rect,6,1.579,1,9,0,9,0,1,,,,,,,,,,,,
5e5d730f62ff4608804ad7a5,TCR,2024-06-10_15h12.13.256,LearnStrategy,2023.2.3,MacIntel,128.2051282,6,1,11,-0.075039786,-0.003092448,1,0,0,0.806,rock_grid_rect_2,6,12,-1,-1,0.806,-0.135742188,-0.386338976,1,0,0,0.9555,Pegmatite_rect,6,0.956,1,10,0,10,0,1,,,,,,,,,,,,
5e5d730f62ff4608804ad7a5,TCR,2024-06-10_15h12.13.256,LearnStrategy,2023.2.3,MacIntel,128.2051282,6,1,12,0.006372975,-0.003761574,1,0,0,0.9154,rock_grid_rect_2,2,06,-1,-1,0.915,-0.152430556,-0.267053675,1,0,0,1.4297,Basalt_rect,2,1.43,1,11,0,11,0,1,,,,,,,,,,,,
5e5d730f62ff4608804ad7a5,TCR,2024-06-10_15h12.13.256,LearnStrategy,2023.2.3,MacIntel,128.2051282,6,1,13,0.020377604,-0.018355758,1,0,0,0.9715,rock_grid_rect_2,7,06,-1,-1,0.971,0.143247251,-0.410036892,1,0,0,1.2684,Peridotite_rect,7,1.268,1,12,0,12,0,1,,,,,,,,,,,,
5e5d730f62ff4608804ad7a5,TCR,2024-06-10_15h12.13.256,LearnStrategy,2023.2.3,MacIntel,128.2051282,6,1,14,-0.069853154,0.003056279,1,0,0,0.6393,rock_grid_rect_2,2,09,-1,-1,0.639,-0.13566985,-0.248321759,1,0,0,1.1187,Basalt_rect,2,1.119,1,13,0,13,0,1,,,,,,,,,,,,
5e5d730f62ff4608804ad7a5,TCR,2024-06-10_15h12.13.256,LearnStrategy,2023.2.3,MacIntel,128.2051282,6,1,15,0.004213686,0.01489077,1,0,0,0.7581,rock_grid_rect_2,7,04,-1,-1,0.758,0.15093316,-0.413603154,1,0,0,1.0673,Peridotite_rect,7,1.067,1,14,0,14,0,1,,,,,,,,,,,,
5e5d730f62ff4608804ad7a5,TCR,2024-06-10_15h12.13.256,LearnStrategy,2023.2.3,MacIntel,128.2051282,6,1,16,-0.000339988,-0.004217303,1,0,0,0.9552,rock_grid_rect_2,1,14,-1,-1,0.955,0.069151476,-0.253215422,1,0,0,1.9714,Diorite_rect,3,1.971,0,15,0,15,0,1,,,,,,,,,,,,
5e5d730f62ff4608804ad7a5,TCR,2024-06-10_15h12.13.256,LearnStrategy,2023.2.3,MacIntel,128.2051282,6,2,1,,,,,,,,2,01,,,,,,,,,,,2,1.851,1,,,,,,-0.085170718,-0.245211227,1,0,0,1.8506,Basalt_rect,0,0,0,0,1
5e5d730f62ff4608804ad7a5,TCR,2024-06-10_15h12.13.256,LearnStrategy,2023.2.3,MacIntel,128.2051282,6,2,2,,,,,,,,3,10,,,,,,,,,,,4,1.976,0,,,,,,0.369249132,-0.237764034,1,0,0,1.9756,Gabbro_rect,1,0,1,0,1
5e5d730f62ff4608804ad7a5,TCR,2024-06-10_15h12.13.256,LearnStrategy,2023.2.3,MacIntel,128.2051282,6,2,3,,,,,,,,5,09,,,,,,,,,,,5,0.967,1,,,,,,-0.359942853,-0.406528501,1,0,0,0.9666,Obsidian_rect,2,0,2,0,1
5e5d730f62ff4608804ad7a5,TCR,2024-06-10_15h12.13.256,LearnStrategy,2023.2.3,MacIntel,128.2051282,6,2,4,,,,,,,,6,11,,,,,,,,,,,6,0.974,1,,,,,,-0.089677373,-0.410702402,1,0,0,0.9738,Pegmatite_rect,3,0,3,0,1
5e5d730f62ff4608804ad7a5,TCR,2024-06-10_15h12.13.256,LearnStrategy,2023.2.3,MacIntel,128.2051282,6,2,5,,,,,,,,7,14,,,,,,,,,,,7,3.712,1,,,,,,0.138783999,-0.417328559,1,0,0,3.7116,Peridotite_rect,4,0,4,0,1
5e5d730f62ff4608804ad7a5,TCR,2024-06-10_15h12.13.256,LearnStrategy,2023.2.3,MacIntel,128.2051282,6,2,6,,,,,,,,6,10,,,,,,,,,,,6,1.01,1,,,,,,-0.1213614,-0.413494647,1,0,0,1.0097,Pegmatite_rect,5,0,5,0,1
5e5d730f62ff4608804ad7a5,TCR,2024-06-10_15h12.13.256,LearnStrategy,2023.2.3,MacIntel,128.2051282,6,2,7,,,,,,,,4,14,,,,,,,,,,,4,1.275,1,,,,,,0.379969618,-0.267223669,1,0,0,1.2754,Gabbro_rect,6,0,6,0,1
5e5d730f62ff4608804ad7a5,TCR,2024-06-10_15h12.13.256,LearnStrategy,2023.2.3,MacIntel,128.2051282,6,2,8,,,,,,,,2,10,,,,,,,,,,,2,1.569,1,,,,,,-0.138545284,-0.230613426,1,0,0,1.5691,Basalt_rect,7,0,7,0,1
5e5d730f62ff4608804ad7a5,TCR,2024-06-10_15h12.13.256,LearnStrategy,2023.2.3,MacIntel,128.2051282,6,2,9,,,,,,,,8,16,,,,,,,,,,,8,0.985,1,,,,,,0.408123553,-0.410449219,1,0,0,0.985,Pumice_rect,8,0,8,0,1
5e5d730f62ff4608804ad7a5,TCR,2024-06-10_15h12.13.256,LearnStrategy,2023.2.3,MacIntel,128.2051282,6,2,10,,,,,,,,8,09,,,,,,,,,,,8,0.76,1,,,,,,0.43333695,-0.398477286,1,0,0,0.7602,Pumice_rect,9,0,9,0,1
5e5d730f62ff4608804ad7a5,TCR,2024-06-10_15h12.13.256,LearnStrategy,2023.2.3,MacIntel,128.2051282,6,2,11,,,,,,,,1,03,,,,,,,,,,,3,4.451,0,,,,,,0.181633391,-0.250231481,1,0,0,4.4511,Diorite_rect,10,0,10,0,1
5e5d730f62ff4608804ad7a5,TCR,2024-06-10_15h12.13.256,LearnStrategy,2023.2.3,MacIntel,128.2051282,6,2,12,,,,,,,,4,05,,,,,,,,,,,4,5.883,1,,,,,,0.378515625,-0.268558304,1,0,0,5.8835,Gabbro_rect,11,0,11,0,1
5e5d730f62ff4608804ad7a5,TCR,2024-06-10_15h12.13.256,LearnStrategy,2023.2.3,MacIntel,128.2051282,6,2,13,,,,,,,,7,05,,,,,,,,,,,7,2.546,1,,,,,,0.194259983,-0.397652633,1,0,0,2.5457,Peridotite_rect,12,0,12,0,1
5e5d730f62ff4608804ad7a5,TCR,2024-06-10_15h12.13.256,LearnStrategy,2023.2.3,MacIntel,128.2051282,6,2,14,,,,,,,,5,06,,,,,,,,,,,5,0.973,1,,,,,,-0.368952546,-0.404893663,1,0,0,0.9735,Obsidian_rect,13,0,13,0,1
5e5d730f62ff4608804ad7a5,TCR,2024-06-10_15h12.13.256,LearnStrategy,2023.2.3,MacIntel,128.2051282,6,2,15,,,,,,,,3,08,,,,,,,,,,,3,2.292,1,,,,,,0.139174624,-0.271600116,1,0,0,2.292,Diorite_rect,14,0,14,0,1
5e5d730f62ff4608804ad7a5,TCR,2024-06-10_15h12.13.256,LearnStrategy,2023.2.3,MacIntel,128.2051282,6,2,16,,,,,,,,1,09,,,,,,,,,,,4,1.85,0,,,,,,0.457259115,-0.266276042,1,0,0,1.85,Gabbro_rect,15,0,15,0,1
5e5d730f62ff4608804ad7a5,TCR,2024-06-10_15h12.13.256,LearnStrategy,2023.2.3,MacIntel,128.2051282,7,1,1,0.039456742,0.003855613,1,0,0,0.7149,rock_grid_rect_2,6,15,-1,-1,0.715,-0.113454861,-0.408058449,1,0,0,1.1936,Pegmatite_rect,6,1.194,1,0,0,0,0,1,,,,,,,,,,,,
5e5d730f62ff4608804ad7a5,TCR,2024-06-10_15h12.13.256,LearnStrategy,2023.2.3,MacIntel,128.2051282,7,1,2,-0.105280671,0.00964265,1,0,0,0.9317,rock_grid_rect_2,7,04,-1,-1,0.932,0.134921152,-0.395428241,1,0,0,0.7702,Peridotite_rect,7,0.77,1,1,0,1,0,1,,,,,,,,,,,,
5e5d730f62ff4608804ad7a5,TCR,2024-06-10_15h12.13.256,LearnStrategy,2023.2.3,MacIntel,128.2051282,7,1,3,-0.084714988,-0.00031467,1,0,0,0.7751,rock_grid_rect_2,3,13,-1,-1,0.775,0.105193866,-0.263849103,1,0,0,2.4848,Diorite_rect,3,2.485,1,2,0,2,0,1,,,,,,,,,,,,
5e5d730f62ff4608804ad7a5,TCR,2024-06-10_15h12.13.256,LearnStrategy,2023.2.3,MacIntel,128.2051282,7,1,4,-0.009939236,-0.017494936,1,0,0,0.7063,rock_grid_rect_2,1,10,-1,-1,0.706,0.402025463,-0.228504774,1,0,0,1.0257,Gabbro_rect,4,1.026,0,3,0,3,0,1,,,,,,,,,,,,
5e5d730f62ff4608804ad7a5,TCR,2024-06-10_15h12.13.256,LearnStrategy,2023.2.3,MacIntel,128.2051282,7,1,5,-0.060662616,-0.019903791,1,0,0,1.0077,rock_grid_rect_2,2,06,-1,-1,1.008,-0.101341869,-0.236400463,1,0,0,1.0014,Basalt_rect,2,1.001,1,4,0,4,0,1,,,,,,,,,,,,
5e5d730f62ff4608804ad7a5,TCR,2024-06-10_15h12.13.256,LearnStrategy,2023.2.3,MacIntel,128.2051282,7,1,6,-0.020337818,1.80845E-05,1,0,0,1.1973,rock_grid_rect_2,3,16,-1,-1,1.197,0.132215712,-0.263219763,1,0,0,2.0443,Diorite_rect,3,2.044,1,5,0,5,0,1,,,,,,,,,,,,
5e5d730f62ff4608804ad7a5,TCR,2024-06-10_15h12.13.256,LearnStrategy,2023.2.3,MacIntel,128.2051282,7,1,7,-0.097764757,-0.013823785,1,0,0,0.8326,rock_grid_rect_2,1,07,-1,-1,0.833,-0.443916377,-0.244661458,1,0,0,1.2868,Andesite_rect,1,1.287,1,6,0,6,0,1,,,,,,,,,,,,
5e5d730f62ff4608804ad7a5,TCR,2024-06-10_15h12.13.256,LearnStrategy,2023.2.3,MacIntel,128.2051282,7,1,8,-0.103519242,-0.020515046,1,0,0,0.7011,rock_grid_rect_2,5,07,-1,-1,0.701,-0.408615451,-0.416409867,1,0,0,0.9999,Obsidian_rect,5,1,1,7,0,7,0,1,,,,,,,,,,,,
5e5d730f62ff4608804ad7a5,TCR,2024-06-10_15h12.13.256,LearnStrategy,2023.2.3,MacIntel,128.2051282,7,1,9,-0.033286314,0.003750723,1,0,0,0.7072,rock_grid_rect_2,4,12,-1,-1,0.707,0.438393374,-0.256640625,1,0,0,1.7724,Gabbro_rect,4,1.772,1,8,0,8,0,1,,,,,,,,,,,,
5e5d730f62ff4608804ad7a5,TCR,2024-06-10_15h12.13.256,LearnStrategy,2023.2.3,MacIntel,128.2051282,7,1,10,-0.065896267,-0.008116319,1,0,0,0.9726,rock_grid_rect_2,1,06,-1,-1,0.973,0.13536603,-0.251765046,1,0,0,2.3872,Diorite_rect,3,2.387,0,9,0,9,0,1,,,,,,,,,,,,
5e5d730f62ff4608804ad7a5,TCR,2024-06-10_15h12.13.256,LearnStrategy,2023.2.3,MacIntel,128.2051282,7,1,11,-0.051186343,-0.014181858,1,0,0,0.6481,rock_grid_rect_2,2,12,-1,-1,0.648,0.369596354,-0.409375,1,0,0,2.202,Pumice_rect,8,2.202,0,10,0,10,0,1,,,,,,,,,,,,
5e5d730f62ff4608804ad7a5,TCR,2024-06-10_15h12.13.256,LearnStrategy,2023.2.3,MacIntel,128.2051282,7,1,12,-0.025509983,-0.013773148,1,0,0,0.6653,rock_grid_rect_2,7,02,-1,-1,0.665,0.137706163,-0.395442708,1,0,0,1.363,Peridotite_rect,7,1.363,1,11,0,11,0,1,,,,,,,,,,,,
5e5d730f62ff4608804ad7a5,TCR,2024-06-10_15h12.13.256,LearnStrategy,2023.2.3,MacIntel,128.2051282,7,1,13,0.025802951,0.015118634,1,0,0,0.7167,rock_grid_rect_2,3,06,-1,-1,0.717,0.235839844,-0.246401186,1,0,0,1.7089,Diorite_rect,3,1.709,1,12,0,12,0,1,,,,,,,,,,,,
5e5d730f62ff4608804ad7a5,TCR,2024-06-10_15h12.13.256,LearnStrategy,2023.2.3,MacIntel,128.2051282,7,1,14,0.121567564,0.013114873,1,0,0,1.1986,rock_grid_rect_2,8,03,-1,-1,1.199,0.461027922,-0.416829427,1,0,0,1.1065,Pumice_rect,8,1.106,1,13,0,13,0,1,,,,,,,,,,,,
5e5d730f62ff4608804ad7a5,TCR,2024-06-10_15h12.13.256,LearnStrategy,2023.2.3,MacIntel,128.2051282,7,1,15,0.102105035,0.007331453,1,0,0,0.7648,rock_grid_rect_2,1,10,-1,-1,0.765,-0.374081308,-0.255099826,1,0,0,1.0863,Andesite_rect,1,1.086,1,14,0,14,0,1,,,,,,,,,,,,
5e5d730f62ff4608804ad7a5,TCR,2024-06-10_15h12.13.256,LearnStrategy,2023.2.3,MacIntel,128.2051282,7,1,16,0.055266204,0.008723958,1,0,0,0.779,rock_grid_rect_2,1,07,-1,-1,0.779,-0.306676794,-0.243102575,1,0,0,1.3422,Andesite_rect,1,1.342,1,15,0,15,0,1,,,,,,,,,,,,
5e5d730f62ff4608804ad7a5,TCR,2024-06-10_15h12.13.256,LearnStrategy,2023.2.3,MacIntel,128.2051282,7,2,1,,,,,,,,8,14,,,,,,,,,,,8,2.677,1,,,,,,0.349916811,-0.419220197,1,0,0,2.6769,Pumice_rect,0,0,0,0,1
5e5d730f62ff4608804ad7a5,TCR,2024-06-10_15h12.13.256,LearnStrategy,2023.2.3,MacIntel,128.2051282,7,2,2,,,,,,,,4,09,,,,,,,,,,,4,4.009,1,,,,,,0.348943866,-0.256673177,1,0,0,4.0092,Gabbro_rect,1,0,1,0,1
5e5d730f62ff4608804ad7a5,TCR,2024-06-10_15h12.13.256,LearnStrategy,2023.2.3,MacIntel,128.2051282,7,2,3,,,,,,,,3,02,,,,,,,,,,,3,1.985,1,,,,,,0.150958478,-0.262934028,1,0,0,1.9849,Diorite_rect,2,0,2,0,1
5e5d730f62ff4608804ad7a5,TCR,2024-06-10_15h12.13.256,LearnStrategy,2023.2.3,MacIntel,128.2051282,7,2,4,,,,,,,,7,08,,,,,,,,,,,7,0.959,1,,,,,,0.178034578,-0.397627315,1,0,0,0.9593,Peridotite_rect,3,0,3,0,1
5e5d730f62ff4608804ad7a5,TCR,2024-06-10_15h12.13.256,LearnStrategy,2023.2.3,MacIntel,128.2051282,7,2,5,,,,,,,,5,02,,,,,,,,,,,5,0.861,1,,,,,,-0.422363281,-0.419871238,1,0,0,0.8609,Obsidian_rect,4,0,4,0,1
5e5d730f62ff4608804ad7a5,TCR,2024-06-10_15h12.13.256,LearnStrategy,2023.2.3,MacIntel,128.2051282,7,2,6,,,,,,,,7,10,,,,,,,,,,,7,0.918,1,,,,,,0.097182436,-0.39005353,1,0,0,0.9183,Peridotite_rect,5,0,5,0,1
5e5d730f62ff4608804ad7a5,TCR,2024-06-10_15h12.13.256,LearnStrategy,2023.2.3,MacIntel,128.2051282,7,2,7,,,,,,,,2,11,,,,,,,,,,,4,3.343,0,,,,,,0.411140046,-0.251472078,1,0,0,3.3429,Gabbro_rect,6,0,6,0,1
5e5d730f62ff4608804ad7a5,TCR,2024-06-10_15h12.13.256,LearnStrategy,2023.2.3,MacIntel,128.2051282,7,2,8,,,,,,,,1,11,,,,,,,,,,,3,2.862,0,,,,,,0.045330584,-0.25228588,1,0,0,2.862,Diorite_rect,7,0,7,0,1
5e5d730f62ff4608804ad7a5,TCR,2024-06-10_15h12.13.256,LearnStrategy,2023.2.3,MacIntel,128.2051282,7,2,9,,,,,,,,8,16,,,,,,,,,,,8,0.997,1,,,,,,0.345066551,-0.386946615,1,0,0,0.9971,Pumice_rect,8,0,8,0,1
5e5d730f62ff4608804ad7a5,TCR,2024-06-10_15h12.13.256,LearnStrategy,2023.2.3,MacIntel,128.2051282,7,2,10,,,,,,,,3,08,,,,,,,,,,,3,1.484,1,,,,,,0.176320168,-0.257617188,1,0,0,1.4842,Diorite_rect,9,0,9,0,1
5e5d730f62ff4608804ad7a5,TCR,2024-06-10_15h12.13.256,LearnStrategy,2023.2.3,MacIntel,128.2051282,7,2,11,,,,,,,,1,03,,,,,,,,,,,4,1.251,0,,,,,,0.403099682,-0.261805556,1,0,0,1.2508,Gabbro_rect,10,0,10,0,1
5e5d730f62ff4608804ad7a5,TCR,2024-06-10_15h12.13.256,LearnStrategy,2023.2.3,MacIntel,128.2051282,7,2,12,,,,,,,,2,10,,,,,,,,,,,2,2.893,1,,,,,,-0.124811921,-0.249660012,1,0,0,2.8927,Basalt_rect,11,0,11,0,1
5e5d730f62ff4608804ad7a5,TCR,2024-06-10_15h12.13.256,LearnStrategy,2023.2.3,MacIntel,128.2051282,7,2,13,,,,,,,,4,03,,,,,,,,,,,4,1.143,1,,,,,,0.371397569,-0.253993056,1,0,0,1.1427,Gabbro_rect,12,0,12,0,1
5e5d730f62ff4608804ad7a5,TCR,2024-06-10_15h12.13.256,LearnStrategy,2023.2.3,MacIntel,128.2051282,7,2,14,,,,,,,,5,09,,,,,,,,,,,5,1.535,1,,,,,,-0.351786748,-0.417545573,1,0,0,1.5354,Obsidian_rect,13,0,13,0,1
5e5d730f62ff4608804ad7a5,TCR,2024-06-10_15h12.13.256,LearnStrategy,2023.2.3,MacIntel,128.2051282,7,2,15,,,,,,,,6,07,,,,,,,,,,,6,1.118,1,,,,,,-0.068919994,-0.41781684,1,0,0,1.1181,Pegmatite_rect,14,0,14,0,1
5e5d730f62ff4608804ad7a5,TCR,2024-06-10_15h12.13.256,LearnStrategy,2023.2.3,MacIntel,128.2051282,7,2,16,,,,,,,,6,16,,,,,,,,,,,6,1.724,1,,,,,,-0.081441696,-0.398889612,1,0,0,1.7235,Pegmatite_rect,15,0,15,0,1
5e5d730f62ff4608804ad7a5,TCR,2024-06-10_15h12.13.256,LearnStrategy,2023.2.3,MacIntel,128.2051282,8,1,1,0.009483507,-0.00875651,1,0,0,0.7989,rock_grid_rect_2,3,06,-1,-1,0.799,0.114076968,-0.228931568,1,0,0,1.078,Diorite_rect,3,1.078,1,0,0,0,0,1,,,,,,,,,,,,
5e5d730f62ff4608804ad7a5,TCR,2024-06-10_15h12.13.256,LearnStrategy,2023.2.3,MacIntel,128.2051282,8,1,2,0.054553675,-0.008796296,1,0,0,0.7986,rock_grid_rect_2,1,02,-1,-1,0.799,-0.382939091,-0.253924334,1,0,0,1.4127,Andesite_rect,1,1.413,1,1,0,1,0,1,,,,,,,,,,,,
5e5d730f62ff4608804ad7a5,TCR,2024-06-10_15h12.13.256,LearnStrategy,2023.2.3,MacIntel,128.2051282,8,1,3,-0.062065972,-0.00062934,1,0,0,0.5952,rock_grid_rect_2,1,02,-1,-1,0.595,-0.40073423,-0.228356481,1,0,0,0.7766,Andesite_rect,1,0.777,1,2,0,2,0,1,,,,,,,,,,,,
5e5d730f62ff4608804ad7a5,TCR,2024-06-10_15h12.13.256,LearnStrategy,2023.2.3,MacIntel,128.2051282,8,1,4,0.03786169,-0.012742332,1,0,0,0.7833,rock_grid_rect_2,2,16,-1,-1,0.783,0.446592882,-0.254311343,1,0,0,1.7016,Gabbro_rect,4,1.702,0,3,0,3,0,1,,,,,,,,,,,,
5e5d730f62ff4608804ad7a5,TCR,2024-06-10_15h12.13.256,LearnStrategy,2023.2.3,MacIntel,128.2051282,8,1,5,-0.044726562,-0.013588686,1,0,0,0.8081,rock_grid_rect_2,7,16,-1,-1,0.808,0.153776042,-0.390017361,1,0,0,1.1334,Peridotite_rect,7,1.133,1,4,0,4,0,1,,,,,,,,,,,,
5e5d730f62ff4608804ad7a5,TCR,2024-06-10_15h12.13.256,LearnStrategy,2023.2.3,MacIntel,128.2051282,8,1,6,-0.041908999,-0.010358796,1,0,0,0.7733,rock_grid_rect_2,7,13,-1,-1,0.773,0.131166811,-0.392230903,1,0,0,1.0026,Peridotite_rect,7,1.003,1,5,0,5,0,1,,,,,,,,,,,,
5e5d730f62ff4608804ad7a5,TCR,2024-06-10_15h12.13.256,LearnStrategy,2023.2.3,MacIntel,128.2051282,8,1,7,-0.049150029,0.001045284,1,0,0,1.0721,rock_grid_rect_2,6,09,-1,-1,1.072,-0.118442564,-0.387134693,1,0,0,1.3026,Pegmatite_rect,6,1.303,1,6,0,6,0,1,,,,,,,,,,,,
5e5d730f62ff4608804ad7a5,TCR,2024-06-10_15h12.13.256,LearnStrategy,2023.2.3,MacIntel,128.2051282,8,1,8,-0.074544271,-0.00150463,1,0,0,0.7311,rock_grid_rect_2,2,06,-1,-1,0.731,-0.100430411,-0.260329861,1,0,0,0.9145,Basalt_rect,2,0.914,1,7,0,7,0,1,,,,,,,,,,,,
5e5d730f62ff4608804ad7a5,TCR,2024-06-10_15h12.13.256,LearnStrategy,2023.2.3,MacIntel,128.2051282,8,1,9,-0.067842159,-0.018793403,1,0,0,0.7441,rock_grid_rect_2,5,04,-1,-1,0.744,-0.398994502,-0.414547164,1,0,0,1.5412,Obsidian_rect,5,1.541,1,8,0,8,0,1,,,,,,,,,,,,
5e5d730f62ff4608804ad7a5,TCR,2024-06-10_15h12.13.256,LearnStrategy,2023.2.3,MacIntel,128.2051282,8,1,10,0.011013455,-0.015802228,1,0,0,0.6079,rock_grid_rect_2,3,06,-1,-1,0.608,0.136848958,-0.245243779,1,0,0,0.9403,Diorite_rect,3,0.94,1,9,0,9,0,1,,,,,,,,,,,,
5e5d730f62ff4608804ad7a5,TCR,2024-06-10_15h12.13.256,LearnStrategy,2023.2.3,MacIntel,128.2051282,8,1,11,-0.012047888,-0.009678819,1,0,0,0.9248,rock_grid_rect_2,1,14,-1,-1,0.925,-0.343554688,-0.23354673,1,0,0,1.5189,Andesite_rect,1,1.519,1,10,0,10,0,1,,,,,,,,,,,,
5e5d730f62ff4608804ad7a5,TCR,2024-06-10_15h12.13.256,LearnStrategy,2023.2.3,MacIntel,128.2051282,8,1,12,-0.002987558,0.007595486,1,0,0,0.6791,rock_grid_rect_2,1,10,-1,-1,0.679,-0.380891927,-0.250806568,1,0,0,1.01,Andesite_rect,1,1.01,1,11,0,11,0,1,,,,,,,,,,,,
5e5d730f62ff4608804ad7a5,TCR,2024-06-10_15h12.13.256,LearnStrategy,2023.2.3,MacIntel,128.2051282,8,1,13,-0.057049334,-0.000108507,1,0,0,0.7983,rock_grid_rect_2,8,15,-1,-1,0.798,0.391521991,-0.402365451,1,0,0,1.0863,Pumice_rect,8,1.086,1,12,0,12,0,1,,,,,,,,,,,,
5e5d730f62ff4608804ad7a5,TCR,2024-06-10_15h12.13.256,LearnStrategy,2023.2.3,MacIntel,128.2051282,8,1,14,-0.001312934,0.002578848,1,0,0,0.7397,rock_grid_rect_2,2,09,-1,-1,0.74,-0.15135272,-0.252437789,1,0,0,0.8803,Basalt_rect,2,0.88,1,13,0,13,0,1,,,,,,,,,,,,
5e5d730f62ff4608804ad7a5,TCR,2024-06-10_15h12.13.256,LearnStrategy,2023.2.3,MacIntel,128.2051282,8,1,15,0.012268519,-0.012941262,1,0,0,0.7566,rock_grid_rect_2,4,11,-1,-1,0.757,0.449229601,-0.245695891,1,0,0,1.3951,Gabbro_rect,4,1.395,1,14,0,14,0,1,,,,,,,,,,,,
5e5d730f62ff4608804ad7a5,TCR,2024-06-10_15h12.13.256,LearnStrategy,2023.2.3,MacIntel,128.2051282,8,1,16,0.050249566,0.006561053,1,0,0,0.8307,rock_grid_rect_2,1,07,-1,-1,0.831,-0.381061921,-0.253023727,1,0,0,1.1522,Andesite_rect,1,1.152,1,15,0,15,0,1,,,,,,,,,,,,
5e5d730f62ff4608804ad7a5,TCR,2024-06-10_15h12.13.256,LearnStrategy,2023.2.3,MacIntel,128.2051282,8,2,1,,,,,,,,6,03,,,,,,,,,,,6,1.477,1,,,,,,-0.068641493,-0.396524161,1,0,0,1.4771,Pegmatite_rect,0,0,0,0,1
5e5d730f62ff4608804ad7a5,TCR,2024-06-10_15h12.13.256,LearnStrategy,2023.2.3,MacIntel,128.2051282,8,2,2,,,,,,,,2,01,,,,,,,,,,,2,1.171,1,,,,,,-0.111830874,-0.253989439,1,0,0,1.1713,Basalt_rect,1,0,1,0,1
5e5d730f62ff4608804ad7a5,TCR,2024-06-10_15h12.13.256,LearnStrategy,2023.2.3,MacIntel,128.2051282,8,2,3,,,,,,,,7,07,,,,,,,,,,,7,1.494,1,,,,,,0.172862413,-0.392661314,1,0,0,1.4936,Peridotite_rect,2,0,2,0,1
5e5d730f62ff4608804ad7a5,TCR,2024-06-10_15h12.13.256,LearnStrategy,2023.2.3,MacIntel,128.2051282,8,2,4,,,,,,,,6,10,,,,,,,,,,,6,0.805,1,,,,,,-0.062680845,-0.39879919,1,0,0,0.8045,Pegmatite_rect,3,0,3,0,1
5e5d730f62ff4608804ad7a5,TCR,2024-06-10_15h12.13.256,LearnStrategy,2023.2.3,MacIntel,128.2051282,8,2,5,,,,,,,,8,09,,,,,,,,,,,8,0.958,1,,,,,,0.40927011,-0.420793547,1,0,0,0.9585,Pumice_rect,4,0,4,0,1
5e5d730f62ff4608804ad7a5,TCR,2024-06-10_15h12.13.256,LearnStrategy,2023.2.3,MacIntel,128.2051282,8,2,6,,,,,,,,3,15,,,,,,,,,,,3,6.067,1,,,,,,0.147005208,-0.250987413,1,0,0,6.0669,Diorite_rect,5,0,5,0,1
5e5d730f62ff4608804ad7a5,TCR,2024-06-10_15h12.13.256,LearnStrategy,2023.2.3,MacIntel,128.2051282,8,2,7,,,,,,,,5,16,,,,,,,,,,,5,2.116,1,,,,,,-0.437525318,-0.410507089,1,0,0,2.1164,Obsidian_rect,6,0,6,0,1
5e5d730f62ff4608804ad7a5,TCR,2024-06-10_15h12.13.256,LearnStrategy,2023.2.3,MacIntel,128.2051282,8,2,8,,,,,,,,1,01,,,,,,,,,,,3,9.035,0,,,,,,0.171028646,-0.254474103,1,0,0,9.0346,Diorite_rect,7,0,7,0,1
5e5d730f62ff4608804ad7a5,TCR,2024-06-10_15h12.13.256,LearnStrategy,2023.2.3,MacIntel,128.2051282,8,2,9,,,,,,,,4,10,,,,,,,,,,,4,7.97,1,,,,,,0.40015191,-0.260828993,1,0,0,7.9697,Gabbro_rect,8,0,8,0,1
5e5d730f62ff4608804ad7a5,TCR,2024-06-10_15h12.13.256,LearnStrategy,2023.2.3,MacIntel,128.2051282,8,2,10,,,,,,,,2,02,,,,,,,,,,,2,1.275,1,,,,,,-0.117578125,-0.261201534,1,0,0,1.2753,Basalt_rect,9,0,9,0,1
5e5d730f62ff4608804ad7a5,TCR,2024-06-10_15h12.13.256,LearnStrategy,2023.2.3,MacIntel,128.2051282,8,2,11,,,,,,,,7,14,,,,,,,,,,,7,1.637,1,,,,,,0.152408854,-0.415227141,1,0,0,1.6367,Peridotite_rect,10,0,10,0,1
5e5d730f62ff4608804ad7a5,TCR,2024-06-10_15h12.13.256,LearnStrategy,2023.2.3,MacIntel,128.2051282,8,2,12,,,,,,,,1,04,,,,,,,,,,,1,3.572,1,,,,,,-0.460138166,-0.268229167,1,0,0,3.5722,Andesite_rect,11,0,11,0,1
5e5d730f62ff4608804ad7a5,TCR,2024-06-10_15h12.13.256,LearnStrategy,2023.2.3,MacIntel,128.2051282,8,2,13,,,,,,,,8,05,,,,,,,,,,,8,1.037,1,,,,,,0.33682364,-0.380826823,1,0,0,1.0369,Pumice_rect,12,0,12,0,1
5e5d730f62ff4608804ad7a5,TCR,2024-06-10_15h12.13.256,LearnStrategy,2023.2.3,MacIntel,128.2051282,8,2,14,,,,,,,,5,14,,,,,,,,,,,5,0.905,1,,,,,,-0.482826968,-0.412478299,1,0,0,0.9049,Obsidian_rect,13,0,13,0,1
5e5d730f62ff4608804ad7a5,TCR,2024-06-10_15h12.13.256,LearnStrategy,2023.2.3,MacIntel,128.2051282,8,2,15,,,,,,,,4,05,,,,,,,,,,,3,3.089,0,,,,,,0.197829861,-0.264952257,1,0,0,3.0888,Diorite_rect,14,0,14,0,1
5e5d730f62ff4608804ad7a5,TCR,2024-06-10_15h12.13.256,LearnStrategy,2023.2.3,MacIntel,128.2051282,8,2,16,,,,,,,,3,14,,,,,,,,,,,3,1.536,1,,,,,,0.21645327,-0.265559896,1,0,0,1.5364,Diorite_rect,15,0,15,0,1
5e5d730f62ff4608804ad7a5,TCR,2024-06-10_15h12.13.256,LearnStrategy,2023.2.3,MacIntel,128.2051282,9,1,1,0.021838831,-0.00797526,1,0,0,0.6511,rock_grid_rect_2,1,05,-1,-1,0.651,-0.468713831,-0.240502025,1,0,0,1.2226,Andesite_rect,1,1.223,1,0,0,0,0,1,,,,,,,,,,,,
5e5d730f62ff4608804ad7a5,TCR,2024-06-10_15h12.13.256,LearnStrategy,2023.2.3,MacIntel,128.2051282,9,1,2,-0.054271557,-0.006036603,1,0,0,0.7565,rock_grid_rect_2,4,08,-1,-1,0.757,0.103833912,-0.248567708,1,0,0,1.0536,Diorite_rect,3,1.054,0,1,0,1,0,1,,,,,,,,,,,,
5e5d730f62ff4608804ad7a5,TCR,2024-06-10_15h12.13.256,LearnStrategy,2023.2.3,MacIntel,128.2051282,9,1,3,0.044679543,-0.009628183,1,0,0,0.9662,rock_grid_rect_2,3,12,-1,-1,0.966,0.106948061,-0.253193721,1,0,0,0.8011,Diorite_rect,3,0.801,1,2,0,2,0,1,,,,,,,,,,,,
5e5d730f62ff4608804ad7a5,TCR,2024-06-10_15h12.13.256,LearnStrategy,2023.2.3,MacIntel,128.2051282,9,1,4,0.165964988,-0.024779369,1,0,0,0.9076,rock_grid_rect_2,5,04,-1,-1,0.908,-0.436982784,-0.408648003,1,0,0,1.8794,Obsidian_rect,5,1.879,1,3,0,3,0,1,,,,,,,,,,,,
5e5d730f62ff4608804ad7a5,TCR,2024-06-10_15h12.13.256,LearnStrategy,2023.2.3,MacIntel,128.2051282,9,1,5,0.063429543,0.010962818,1,0,0,0.9999,rock_grid_rect_2,6,05,-1,-1,1,-0.108445457,-0.404998553,1,0,0,1.1361,Pegmatite_rect,6,1.136,1,4,0,4,0,1,,,,,,,,,,,,
5e5d730f62ff4608804ad7a5,TCR,2024-06-10_15h12.13.256,LearnStrategy,2023.2.3,MacIntel,128.2051282,9,1,6,-0.058210359,-0.010988137,1,0,0,0.6905,rock_grid_rect_2,3,06,-1,-1,0.691,0.088729745,-0.249555122,1,0,0,1.4674,Diorite_rect,3,1.467,1,5,0,5,0,1,,,,,,,,,,,,
5e5d730f62ff4608804ad7a5,TCR,2024-06-10_15h12.13.256,LearnStrategy,2023.2.3,MacIntel,128.2051282,9,1,7,0.008304398,0.007237413,1,0,0,0.78,rock_grid_rect_2,1,14,-1,-1,0.78,-0.390549045,-0.244925492,1,0,0,1.1438,Andesite_rect,1,1.144,1,6,0,6,0,1,,,,,,,,,,,,
5e5d730f62ff4608804ad7a5,TCR,2024-06-10_15h12.13.256,LearnStrategy,2023.2.3,MacIntel,128.2051282,9,1,8,-0.025759549,0.021119068,1,0,0,0.6487,rock_grid_rect_2,2,12,-1,-1,0.649,0.369889323,-0.388324653,1,0,0,1.427,Pumice_rect,8,1.427,0,7,0,7,0,1,,,,,,,,,,,,
5e5d730f62ff4608804ad7a5,TCR,2024-06-10_15h12.13.256,LearnStrategy,2023.2.3,MacIntel,128.2051282,9,1,9,-0.008130787,-0.021166088,1,0,0,0.839,rock_grid_rect_2,8,15,-1,-1,0.839,0.461791088,-0.411610243,1,0,0,1.1969,Pumice_rect,8,1.197,1,8,0,8,0,1,,,,,,,,,,,,
5e5d730f62ff4608804ad7a5,TCR,2024-06-10_15h12.13.256,LearnStrategy,2023.2.3,MacIntel,128.2051282,9,1,10,-0.009440104,-0.014196325,1,0,0,0.6424,rock_grid_rect_2,1,14,-1,-1,0.642,-0.361273872,-0.264420573,1,0,0,1.0741,Andesite_rect,1,1.074,1,9,0,9,0,1,,,,,,,,,,,,
5e5d730f62ff4608804ad7a5,TCR,2024-06-10_15h12.13.256,LearnStrategy,2023.2.3,MacIntel,128.2051282,9,1,11,-0.034071181,0.00697338,1,0,0,0.5379,rock_grid_rect_2,4,11,-1,-1,0.538,0.381911892,-0.243287037,1,0,0,1.2698,Gabbro_rect,4,1.27,1,10,0,10,0,1,,,,,,,,,,,,
5e5d730f62ff4608804ad7a5,TCR,2024-06-10_15h12.13.256,LearnStrategy,2023.2.3,MacIntel,128.2051282,9,1,12,0.02385706,0.002256944,1,0,0,0.7324,rock_grid_rect_2,1,06,-1,-1,0.732,0.062116609,-0.242375579,1,0,0,1.3434,Diorite_rect,3,1.343,0,11,0,11,0,1,,,,,,,,,,,,
5e5d730f62ff4608804ad7a5,TCR,2024-06-10_15h12.13.256,LearnStrategy,2023.2.3,MacIntel,128.2051282,9,1,13,0.024395978,-0.006647859,1,0,0,0.6383,rock_grid_rect_2,2,06,-1,-1,0.638,-0.146549479,-0.24759838,1,0,0,1.9179,Basalt_rect,2,1.918,1,12,0,12,0,1,,,,,,,,,,,,
5e5d730f62ff4608804ad7a5,TCR,2024-06-10_15h12.13.256,LearnStrategy,2023.2.3,MacIntel,128.2051282,9,1,14,0.058210359,0.004264323,1,0,0,1.161,rock_grid_rect_2,1,07,-1,-1,1.161,-0.420142506,-0.246426505,1,0,0,1.0039,Andesite_rect,1,1.004,1,13,0,13,0,1,,,,,,,,,,,,
5e5d730f62ff4608804ad7a5,TCR,2024-06-10_15h12.13.256,LearnStrategy,2023.2.3,MacIntel,128.2051282,9,1,15,-0.024150029,-0.018200231,1,0,0,0.7482,rock_grid_rect_2,1,06,-1,-1,0.748,0.082823351,-0.25844184,1,0,0,2.6773,Diorite_rect,3,2.677,0,14,0,14,0,1,,,,,,,,,,,,
5e5d730f62ff4608804ad7a5,TCR,2024-06-10_15h12.13.256,LearnStrategy,2023.2.3,MacIntel,128.2051282,9,1,16,0.000235098,0.01051794,1,0,0,0.5671,rock_grid_rect_2,7,12,-1,-1,0.567,0.138353588,-0.389619502,1,0,0,0.9416,Peridotite_rect,7,0.942,1,15,0,15,0,1,,,,,,,,,,,,
5e5d730f62ff4608804ad7a5,TCR,2024-06-10_15h12.13.256,LearnStrategy,2023.2.3,MacIntel,128.2051282,9,2,1,,,,,,,,6,06,,,,,,,,,,,6,1.334,1,,,,,,-0.126671007,-0.380519387,1,0,0,1.3341,Pegmatite_rect,0,0,0,0,1
5e5d730f62ff4608804ad7a5,TCR,2024-06-10_15h12.13.256,LearnStrategy,2023.2.3,MacIntel,128.2051282,9,2,2,,,,,,,,8,04,,,,,,,,,,,8,1.059,1,,,,,,0.38781467,-0.413216146,1,0,0,1.0591,Pumice_rect,1,0,1,0,1
5e5d730f62ff4608804ad7a5,TCR,2024-06-10_15h12.13.256,LearnStrategy,2023.2.3,MacIntel,128.2051282,9,2,3,,,,,,,,1,16,,,,,,,,,,,1,1.162,1,,,,,,-0.382367622,-0.258224826,1,0,0,1.1617,Andesite_rect,2,0,2,0,1
5e5d730f62ff4608804ad7a5,TCR,2024-06-10_15h12.13.256,LearnStrategy,2023.2.3,MacIntel,128.2051282,9,2,4,,,,,,,,7,05,,,,,,,,,,,7,0.826,1,,,,,,0.148578559,-0.395240162,1,0,0,0.8262,Peridotite_rect,3,0,3,0,1
5e5d730f62ff4608804ad7a5,TCR,2024-06-10_15h12.13.256,LearnStrategy,2023.2.3,MacIntel,128.2051282,9,2,5,,,,,,,,1,09,,,,,,,,,,,4,2.766,0,,,,,,0.44411169,-0.239142072,1,0,0,2.7663,Gabbro_rect,4,0,4,0,1
5e5d730f62ff4608804ad7a5,TCR,2024-06-10_15h12.13.256,LearnStrategy,2023.2.3,MacIntel,128.2051282,9,2,6,,,,,,,,2,14,,,,,,,,,,,8,1.191,0,,,,,,0.47166522,-0.378566262,1,0,0,1.1905,Pumice_rect,5,0,5,0,1
5e5d730f62ff4608804ad7a5,TCR,2024-06-10_15h12.13.256,LearnStrategy,2023.2.3,MacIntel,128.2051282,9,2,7,,,,,,,,7,15,,,,,,,,,,,7,1.136,1,,,,,,0.158192274,-0.410315394,1,0,0,1.1358,Peridotite_rect,6,0,6,0,1
5e5d730f62ff4608804ad7a5,TCR,2024-06-10_15h12.13.256,LearnStrategy,2023.2.3,MacIntel,128.2051282,9,2,8,,,,,,,,4,13,,,,,,,,,,,3,3.142,0,,,,,,0.167382813,-0.245800781,1,0,0,3.1423,Diorite_rect,7,0,7,0,1
5e5d730f62ff4608804ad7a5,TCR,2024-06-10_15h12.13.256,LearnStrategy,2023.2.3,MacIntel,128.2051282,9,2,9,,,,,,,,3,10,,,,,,,,,,,4,6.317,0,,,,,,0.377090567,-0.254781539,1,0,0,6.3166,Gabbro_rect,8,0,8,0,1
5e5d730f62ff4608804ad7a5,TCR,2024-06-10_15h12.13.256,LearnStrategy,2023.2.3,MacIntel,128.2051282,9,2,10,,,,,,,,5,08,,,,,,,,,,,5,1.012,1,,,,,,-0.40441985,-0.415256076,1,0,0,1.0125,Obsidian_rect,9,0,9,0,1
5e5d730f62ff4608804ad7a5,TCR,2024-06-10_15h12.13.256,LearnStrategy,2023.2.3,MacIntel,128.2051282,9,2,11,,,,,,,,4,14,,,,,,,,,,,4,1.909,1,,,,,,0.389351852,-0.238758681,1,0,0,1.9085,Gabbro_rect,10,0,10,0,1
5e5d730f62ff4608804ad7a5,TCR,2024-06-10_15h12.13.256,LearnStrategy,2023.2.3,MacIntel,128.2051282,9,2,12,,,,,,,,8,08,,,,,,,,,,,8,0.893,1,,,,,,0.448535156,-0.40103805,1,0,0,0.893,Pumice_rect,11,0,11,0,1
5e5d730f62ff4608804ad7a5,TCR,2024-06-10_15h12.13.256,LearnStrategy,2023.2.3,MacIntel,128.2051282,9,2,13,,,,,,,,5,06,,,,,,,,,,,5,1.068,1,,,,,,-0.340306713,-0.414500145,1,0,0,1.0682,Obsidian_rect,12,0,12,0,1
5e5d730f62ff4608804ad7a5,TCR,2024-06-10_15h12.13.256,LearnStrategy,2023.2.3,MacIntel,128.2051282,9,2,14,,,,,,,,2,05,,,,,,,,,,,2,1.068,1,,,,,,-0.178005642,-0.239615885,1,0,0,1.0685,Basalt_rect,13,0,13,0,1
5e5d730f62ff4608804ad7a5,TCR,2024-06-10_15h12.13.256,LearnStrategy,2023.2.3,MacIntel,128.2051282,9,2,15,,,,,,,,3,07,,,,,,,,,,,3,1.709,1,,,,,,0.19771412,-0.237221499,1,0,0,1.7089,Diorite_rect,14,0,14,0,1
5e5d730f62ff4608804ad7a5,TCR,2024-06-10_15h12.13.256,LearnStrategy,2023.2.3,MacIntel,128.2051282,9,2,16,,,,,,,,6,11,,,,,,,,,,,6,0.976,1,,,,,,-0.100484664,-0.420572917,1,0,0,0.9756,Pegmatite_rect,15,0,15,0,1
5e5d730f62ff4608804ad7a5,TCR,2024-06-10_15h12.13.256,LearnStrategy,2023.2.3,MacIntel,128.2051282,,,,,,,,,,,,,,,,,,,,,,,,,,,,,,,,,,,,,,,,,,
5e5d730f62ff4608804ad7a5,TCR,2024-06-10_15h12.13.256,LearnStrategy,2023.2.3,MacIntel,128.2051282,,,,,,,,,,,,,,,,,,,,,,,,,,,,,,,,,,,,,,,,,,
5e5d730f62ff4608804ad7a5,TCR,2024-06-10_15h12.13.256,LearnStrategy,2023.2.3,MacIntel,128.2051282,,,,,,,,,,,8,03,1,1,,,,,,,,,,,,,,,,,,,,,,,,,,,,
5e5d730f62ff4608804ad7a5,TCR,2024-06-10_15h12.13.256,LearnStrategy,2023.2.3,MacIntel,128.2051282,,,,,,,,,,,3,09,1,2,,,,,,,,,,,,,,,,,,,,,,,,,,,,
5e5d730f62ff4608804ad7a5,TCR,2024-06-10_15h12.13.256,LearnStrategy,2023.2.3,MacIntel,128.2051282,,,,,,,,,,,4,08,1,3,,,,,,,,,,,,,,,,,,,,,,,,,,,,
5e5d730f62ff4608804ad7a5,TCR,2024-06-10_15h12.13.256,LearnStrategy,2023.2.3,MacIntel,128.2051282,,,,,,,,,,,4,15,1,4,,,,,,,,,,,,,,,,,,,,,,,,,,,,
5e5d730f62ff4608804ad7a5,TCR,2024-06-10_15h12.13.256,LearnStrategy,2023.2.3,MacIntel,128.2051282,,,,,,,,,,,3,13,1,5,,,,,,,,,,,,,,,,,,,,,,,,,,,,
5e5d730f62ff4608804ad7a5,TCR,2024-06-10_15h12.13.256,LearnStrategy,2023.2.3,MacIntel,128.2051282,,,,,,,,,,,2,09,1,6,,,,,,,,,,,,,,,,,,,,,,,,,,,,
5e5d730f62ff4608804ad7a5,TCR,2024-06-10_15h12.13.256,LearnStrategy,2023.2.3,MacIntel,128.2051282,,,,,,,,,,,4,16,1,7,,,,,,,,,,,,,,,,,,,,,,,,,,,,
5e5d730f62ff4608804ad7a5,TCR,2024-06-10_15h12.13.256,LearnStrategy,2023.2.3,MacIntel,128.2051282,,,,,,,,,,,7,13,1,8,,,,,,,,,,,,,,,,,,,,,,,,,,,,
5e5d730f62ff4608804ad7a5,TCR,2024-06-10_15h12.13.256,LearnStrategy,2023.2.3,MacIntel,128.2051282,,,,,,,,,,,6,12,2,1,,,,,,,,,,,,,,,,,,,,,,,,,,,,
5e5d730f62ff4608804ad7a5,TCR,2024-06-10_15h12.13.256,LearnStrategy,2023.2.3,MacIntel,128.2051282,,,,,,,,,,,5,11,2,2,,,,,,,,,,,,,,,,,,,,,,,,,,,,
5e5d730f62ff4608804ad7a5,TCR,2024-06-10_15h12.13.256,LearnStrategy,2023.2.3,MacIntel,128.2051282,,,,,,,,,,,2,16,2,3,,,,,,,,,,,,,,,,,,,,,,,,,,,,
5e5d730f62ff4608804ad7a5,TCR,2024-06-10_15h12.13.256,LearnStrategy,2023.2.3,MacIntel,128.2051282,,,,,,,,,,,5,04,2,4,,,,,,,,,,,,,,,,,,,,,,,,,,,,
5e5d730f62ff4608804ad7a5,TCR,2024-06-10_15h12.13.256,LearnStrategy,2023.2.3,MacIntel,128.2051282,,,,,,,,,,,6,15,2,5,,,,,,,,,,,,,,,,,,,,,,,,,,,,
5e5d730f62ff4608804ad7a5,TCR,2024-06-10_15h12.13.256,LearnStrategy,2023.2.3,MacIntel,128.2051282,,,,,,,,,,,8,02,2,6,,,,,,,,,,,,,,,,,,,,,,,,,,,,
5e5d730f62ff4608804ad7a5,TCR,2024-06-10_15h12.13.256,LearnStrategy,2023.2.3,MacIntel,128.2051282,,,,,,,,,,,7,04,2,7,,,,,,,,,,,,,,,,,,,,,,,,,,,,
5e5d730f62ff4608804ad7a5,TCR,2024-06-10_15h12.13.256,LearnStrategy,2023.2.3,MacIntel,128.2051282,,,,,,,,,,,6,09,2,8,,,,,,,,,,,,,,,,,,,,,,,,,,,,
5e5d730f62ff4608804ad7a5,TCR,2024-06-10_15h12.13.256,LearnStrategy,2023.2.3,MacIntel,128.2051282,,,,,,,,,,,3,11,3,1,,,,,,,,,,,,,,,,,,,,,,,,,,,,
5e5d730f62ff4608804ad7a5,TCR,2024-06-10_15h12.13.256,LearnStrategy,2023.2.3,MacIntel,128.2051282,,,,,,,,,,,6,08,3,2,,,,,,,,,,,,,,,,,,,,,,,,,,,,
5e5d730f62ff4608804ad7a5,TCR,2024-06-10_15h12.13.256,LearnStrategy,2023.2.3,MacIntel,128.2051282,,,,,,,,,,,1,14,3,3,,,,,,,,,,,,,,,,,,,,,,,,,,,,
5e5d730f62ff4608804ad7a5,TCR,2024-06-10_15h12.13.256,LearnStrategy,2023.2.3,MacIntel,128.2051282,,,,,,,,,,,7,16,3,4,,,,,,,,,,,,,,,,,,,,,,,,,,,,
5e5d730f62ff4608804ad7a5,TCR,2024-06-10_15h12.13.256,LearnStrategy,2023.2.3,MacIntel,128.2051282,,,,,,,,,,,1,10,3,5,,,,,,,,,,,,,,,,,,,,,,,,,,,,
5e5d730f62ff4608804ad7a5,TCR,2024-06-10_15h12.13.256,LearnStrategy,2023.2.3,MacIntel,128.2051282,,,,,,,,,,,1,02,3,6,,,,,,,,,,,,,,,,,,,,,,,,,,,,
5e5d730f62ff4608804ad7a5,TCR,2024-06-10_15h12.13.256,LearnStrategy,2023.2.3,MacIntel,128.2051282,,,,,,,,,,,7,12,3,7,,,,,,,,,,,,,,,,,,,,,,,,,,,,
5e5d730f62ff4608804ad7a5,TCR,2024-06-10_15h12.13.256,LearnStrategy,2023.2.3,MacIntel,128.2051282,,,,,,,,,,,8,10,3,8,,,,,,,,,,,,,,,,,,,,,,,,,,,,
5e5d730f62ff4608804ad7a5,TCR,2024-06-10_15h12.13.256,LearnStrategy,2023.2.3,MacIntel,128.2051282,,,,,,,,,,,5,10,4,1,,,,,,,,,,,,,,,,,,,,,,,,,,,,
5e5d730f62ff4608804ad7a5,TCR,2024-06-10_15h12.13.256,LearnStrategy,2023.2.3,MacIntel,128.2051282,,,,,,,,,,,3,12,4,2,,,,,,,,,,,,,,,,,,,,,,,,,,,,
5e5d730f62ff4608804ad7a5,TCR,2024-06-10_15h12.13.256,LearnStrategy,2023.2.3,MacIntel,128.2051282,,,,,,,,,,,6,05,4,3,,,,,,,,,,,,,,,,,,,,,,,,,,,,
5e5d730f62ff4608804ad7a5,TCR,2024-06-10_15h12.13.256,LearnStrategy,2023.2.3,MacIntel,128.2051282,,,,,,,,,,,3,06,4,4,,,,,,,,,,,,,,,,,,,,,,,,,,,,
5e5d730f62ff4608804ad7a5,TCR,2024-06-10_15h12.13.256,LearnStrategy,2023.2.3,MacIntel,128.2051282,,,,,,,,,,,2,08,4,5,,,,,,,,,,,,,,,,,,,,,,,,,,,,
5e5d730f62ff4608804ad7a5,TCR,2024-06-10_15h12.13.256,LearnStrategy,2023.2.3,MacIntel,128.2051282,,,,,,,,,,,4,12,4,6,,,,,,,,,,,,,,,,,,,,,,,,,,,,
5e5d730f62ff4608804ad7a5,TCR,2024-06-10_15h12.13.256,LearnStrategy,2023.2.3,MacIntel,128.2051282,,,,,,,,,,,2,12,4,7,,,,,,,,,,,,,,,,,,,,,,,,,,,,
5e5d730f62ff4608804ad7a5,TCR,2024-06-10_15h12.13.256,LearnStrategy,2023.2.3,MacIntel,128.2051282,,,,,,,,,,,2,04,4,8,,,,,,,,,,,,,,,,,,,,,,,,,,,,
5e5d730f62ff4608804ad7a5,TCR,2024-06-10_15h12.13.256,LearnStrategy,2023.2.3,MacIntel,128.2051282,,,,,,,,,,,6,13,5,1,,,,,,,,,,,,,,,,,,,,,,,,,,,,
5e5d730f62ff4608804ad7a5,TCR,2024-06-10_15h12.13.256,LearnStrategy,2023.2.3,MacIntel,128.2051282,,,,,,,,,,,7,06,5,2,,,,,,,,,,,,,,,,,,,,,,,,,,,,
5e5d730f62ff4608804ad7a5,TCR,2024-06-10_15h12.13.256,LearnStrategy,2023.2.3,MacIntel,128.2051282,,,,,,,,,,,7,02,5,3,,,,,,,,,,,,,,,,,,,,,,,,,,,,
5e5d730f62ff4608804ad7a5,TCR,2024-06-10_15h12.13.256,LearnStrategy,2023.2.3,MacIntel,128.2051282,,,,,,,,,,,2,06,5,4,,,,,,,,,,,,,,,,,,,,,,,,,,,,
5e5d730f62ff4608804ad7a5,TCR,2024-06-10_15h12.13.256,LearnStrategy,2023.2.3,MacIntel,128.2051282,,,,,,,,,,,4,01,5,5,,,,,,,,,,,,,,,,,,,,,,,,,,,,
5e5d730f62ff4608804ad7a5,TCR,2024-06-10_15h12.13.256,LearnStrategy,2023.2.3,MacIntel,128.2051282,,,,,,,,,,,4,11,5,6,,,,,,,,,,,,,,,,,,,,,,,,,,,,
5e5d730f62ff4608804ad7a5,TCR,2024-06-10_15h12.13.256,LearnStrategy,2023.2.3,MacIntel,128.2051282,,,,,,,,,,,8,13,5,7,,,,,,,,,,,,,,,,,,,,,,,,,,,,
5e5d730f62ff4608804ad7a5,TCR,2024-06-10_15h12.13.256,LearnStrategy,2023.2.3,MacIntel,128.2051282,,,,,,,,,,,8,06,5,8,,,,,,,,,,,,,,,,,,,,,,,,,,,,
5e5d730f62ff4608804ad7a5,TCR,2024-06-10_15h12.13.256,LearnStrategy,2023.2.3,MacIntel,128.2051282,,,,,,,,,,,5,07,6,1,,,,,,,,,,,,,,,,,,,,,,,,,,,,
5e5d730f62ff4608804ad7a5,TCR,2024-06-10_15h12.13.256,LearnStrategy,2023.2.3,MacIntel,128.2051282,,,,,,,,,,,3,16,6,2,,,,,,,,,,,,,,,,,,,,,,,,,,,,
5e5d730f62ff4608804ad7a5,TCR,2024-06-10_15h12.13.256,LearnStrategy,2023.2.3,MacIntel,128.2051282,,,,,,,,,,,1,05,6,3,,,,,,,,,,,,,,,,,,,,,,,,,,,,
5e5d730f62ff4608804ad7a5,TCR,2024-06-10_15h12.13.256,LearnStrategy,2023.2.3,MacIntel,128.2051282,,,,,,,,,,,5,05,6,4,,,,,,,,,,,,,,,,,,,,,,,,,,,,
5e5d730f62ff4608804ad7a5,TCR,2024-06-10_15h12.13.256,LearnStrategy,2023.2.3,MacIntel,128.2051282,,,,,,,,,,,1,07,6,5,,,,,,,,,,,,,,,,,,,,,,,,,,,,
5e5d730f62ff4608804ad7a5,TCR,2024-06-10_15h12.13.256,LearnStrategy,2023.2.3,MacIntel,128.2051282,,,,,,,,,,,8,15,6,6,,,,,,,,,,,,,,,,,,,,,,,,,,,,
5e5d730f62ff4608804ad7a5,TCR,2024-06-10_15h12.13.256,LearnStrategy,2023.2.3,MacIntel,128.2051282,,,,,,,,,,,1,06,6,7,,,,,,,,,,,,,,,,,,,,,,,,,,,,
5e5d730f62ff4608804ad7a5,TCR,2024-06-10_15h12.13.256,LearnStrategy,2023.2.3,MacIntel,128.2051282,,,,,,,,,,,5,12,6,8,,,,,,,,,,,,,,,,,,,,,,,,,,,,