participant,condition,date,expName,psychopyVersion,OS,frameRate,block,phase,trial,learn_mouse.x,learn_mouse.y,learn_mouse.leftButton,learn_mouse.midButton,learn_mouse.rightButton,learn_mouse.time,learn_mouse.clicked_name,cat,token,row,col,t_select,cat_rec,token_rec,cat_mouse_l.x,cat_mouse_l.y,cat_mouse_l.leftButton,cat_mouse_l.midButton,cat_mouse_l.rightButton,cat_mouse_l.time,cat_mouse_l.clicked_name,resp,t_resp,corr,train_trials.thisRepN,train_trials.thisTrialN,train_trials.thisN,train_trials.thisIndex,train_trials.ran,cat_mouse_t.x,cat_mouse_t.y,cat_mouse_t.leftButton,cat_mouse_t.midButton,cat_mouse_t.rightButton,cat_mouse_t.time,cat_mouse_t.clicked_name,test_trials.thisRepN,test_trials.thisTrialN,test_trials.thisN,test_trials.thisIndex,test_trials.ran,Bonus
5e7a2ccd69a7770604dfb352,SCR,2024-06-24_13h49.21.635,LearnStrategy,2023.2.3,MacIntel,59.24170616,,,,,,,,,,,,,,,,,,,,,,,,,,,,,,,,,,,,,,,,,,,,,
5e7a2ccd69a7770604dfb352,SCR,2024-06-24_13h49.21.635,LearnStrategy,2023.2.3,MacIntel,59.24170616,1,1,1,-0.075555556,-0.382222222,1,0,0,4.449,Obsidian_06,5,06,1,4,4.449,5,06,-0.406666667,-0.41,1,0,0,15.371,Obsidian_rect,5,15.371,1,0,0,0,0,1,,,,,,,,,,,,,
5e7a2ccd69a7770604dfb352,SCR,2024-06-24_13h49.21.635,LearnStrategy,2023.2.3,MacIntel,59.24170616,1,1,2,0.077777778,-0.241111111,1,0,0,2.229,Peridotite_10,7,10,2,5,2.229,7,10,0.11,-0.407777778,1,0,0,7.056,Peridotite_rect,7,7.056,1,1,0,1,0,1,,,,,,,,,,,,,
5e7a2ccd69a7770604dfb352,SCR,2024-06-24_13h49.21.635,LearnStrategy,2023.2.3,MacIntel,59.24170616,1,1,3,-0.525555556,0.118888889,1,0,0,1.661,Obsidian_07,5,07,4,1,1.661,5,07,-0.383333333,-0.391111111,1,0,0,3.356,Obsidian_rect,5,3.356,1,2,0,2,0,1,,,,,,,,,,,,,
5e7a2ccd69a7770604dfb352,SCR,2024-06-24_13h49.21.635,LearnStrategy,2023.2.3,MacIntel,59.24170616,1,1,4,-0.378888889,-0.264444444,1,0,0,3.1,Basalt_12,2,12,2,2,3.1,2,12,0.378888889,-0.403333333,1,0,0,8.751,Pumice_rect,8,8.751,0,3,0,3,0,1,,,,,,,,,,,,,
5e7a2ccd69a7770604dfb352,SCR,2024-06-24_13h49.21.635,LearnStrategy,2023.2.3,MacIntel,59.24170616,1,1,5,0.525555556,-0.228888889,1,0,0,1.507,Pumice_16,8,16,2,8,1.507,8,16,0.413333333,-0.396666667,1,0,0,3.419,Pumice_rect,8,3.419,1,4,0,4,0,1,,,,,,,,,,,,,
5e7a2ccd69a7770604dfb352,SCR,2024-06-24_13h49.21.635,LearnStrategy,2023.2.3,MacIntel,59.24170616,1,1,6,-0.553333333,0.393333333,1,0,0,1.281,Andesite_10,1,10,6,1,1.281,1,10,0.388888889,-0.247777778,1,0,0,4.18,Gabbro_rect,4,4.18,0,5,0,5,0,1,,,,,,,,,,,,,
5e7a2ccd69a7770604dfb352,SCR,2024-06-24_13h49.21.635,LearnStrategy,2023.2.3,MacIntel,59.24170616,1,1,7,-0.081111111,0.072222222,1,0,0,1.106,Diorite_10,3,10,4,4,1.106,3,10,0.332222222,-0.244444444,1,0,0,3.553,Gabbro_rect,4,3.553,0,6,0,6,0,1,,,,,,,,,,,,,
5e7a2ccd69a7770604dfb352,SCR,2024-06-24_13h49.21.635,LearnStrategy,2023.2.3,MacIntel,59.24170616,1,1,8,0.234444444,0.425555556,1,0,0,1.292,Pegmatite_15,6,15,6,6,1.292,6,15,-0.123333333,-0.388888889,1,0,0,4.814,Pegmatite_rect,6,4.814,1,7,0,7,0,1,,,,,,,,,,,,,
5e7a2ccd69a7770604dfb352,SCR,2024-06-24_13h49.21.635,LearnStrategy,2023.2.3,MacIntel,59.24170616,1,1,9,0.396666667,0.266666667,1,0,0,4.781,Andesite_05,1,05,5,7,4.781,1,05,-0.343333333,-0.24,1,0,0,3.496,Andesite_rect,1,3.496,1,8,0,8,0,1,,,,,,,,,,,,,
5e7a2ccd69a7770604dfb352,SCR,2024-06-24_13h49.21.635,LearnStrategy,2023.2.3,MacIntel,59.24170616,1,1,10,0.242222222,-0.245555556,1,0,0,1.987,Diorite_14,3,14,2,6,1.987,3,06,-0.39,-0.254444444,1,0,0,2.384,Andesite_rect,1,2.384,0,9,0,9,0,1,,,,,,,,,,,,,
5e7a2ccd69a7770604dfb352,SCR,2024-06-24_13h49.21.635,LearnStrategy,2023.2.3,MacIntel,59.24170616,1,1,11,-0.216666667,-0.255555556,1,0,0,1.8,Diorite_11,3,11,2,3,1.8,2,10,-0.396666667,-0.237777778,1,0,0,1.685,Andesite_rect,1,1.685,0,10,0,10,0,1,,,,,,,,,,,,,
5e7a2ccd69a7770604dfb352,SCR,2024-06-24_13h49.21.635,LearnStrategy,2023.2.3,MacIntel,59.24170616,1,1,12,0.243333333,0.272222222,1,0,0,1.561,Diorite_07,3,07,5,6,1.561,7,15,-0.441111111,-0.247777778,1,0,0,3.553,Andesite_rect,1,3.553,0,11,0,11,0,1,,,,,,,,,,,,,
5e7a2ccd69a7770604dfb352,SCR,2024-06-24_13h49.21.635,LearnStrategy,2023.2.3,MacIntel,59.24170616,1,1,13,-0.09,0.406666667,1,0,0,1.283,Diorite_16,3,16,6,4,1.283,6,10,0.083333333,-0.271111111,1,0,0,3.079,Diorite_rect,3,3.079,1,12,0,12,0,1,,,,,,,,,,,,,
5e7a2ccd69a7770604dfb352,SCR,2024-06-24_13h49.21.635,LearnStrategy,2023.2.3,MacIntel,59.24170616,1,1,14,-0.053333333,-0.243333333,1,0,0,4.079,Pegmatite_16,6,16,2,4,4.079,4,15,-0.104444444,-0.252222222,1,0,0,7.861,Basalt_rect,2,7.861,0,13,0,13,0,1,,,,,,,,,,,,,
5e7a2ccd69a7770604dfb352,SCR,2024-06-24_13h49.21.635,LearnStrategy,2023.2.3,MacIntel,59.24170616,1,1,15,-0.21,0.228888889,1,0,0,3.861,Pegmatite_10,6,10,5,3,3.861,8,15,0.381111111,-0.248888889,1,0,0,3.428,Gabbro_rect,4,3.428,0,14,0,14,0,1,,,,,,,,,,,,,
5e7a2ccd69a7770604dfb352,SCR,2024-06-24_13h49.21.635,LearnStrategy,2023.2.3,MacIntel,59.24170616,1,1,16,0.233333333,0.4,1,0,0,1.439,Pegmatite_15,6,15,6,6,1.439,4,12,-0.095555556,-0.4,1,0,0,1.434,Pegmatite_rect,6,1.434,1,15,0,15,0,1,,,,,,,,,,,,,
5e7a2ccd69a7770604dfb352,SCR,2024-06-24_13h49.21.635,LearnStrategy,2023.2.3,MacIntel,59.24170616,1,2,1,,,,,,,,2,02,,,,,,,,,,,,,2,7.539,1,,,,,,-0.212222222,-0.262222222,1,0,0,7.539,Basalt_rect,0,0,0,0,1,
5e7a2ccd69a7770604dfb352,SCR,2024-06-24_13h49.21.635,LearnStrategy,2023.2.3,MacIntel,59.24170616,1,2,2,,,,,,,,5,09,,,,,,,,,,,,,5,4.039,1,,,,,,-0.404444444,-0.394444444,1,0,0,4.039,Obsidian_rect,1,0,1,0,1,
5e7a2ccd69a7770604dfb352,SCR,2024-06-24_13h49.21.635,LearnStrategy,2023.2.3,MacIntel,59.24170616,1,2,3,,,,,,,,1,14,,,,,,,,,,,,,1,10.589,1,,,,,,-0.354444444,-0.266666667,1,0,0,10.589,Andesite_rect,2,0,2,0,1,
5e7a2ccd69a7770604dfb352,SCR,2024-06-24_13h49.21.635,LearnStrategy,2023.2.3,MacIntel,59.24170616,1,2,4,,,,,,,,2,11,,,,,,,,,,,,,8,1.841,0,,,,,,0.348888889,-0.39,1,0,0,1.841,Pumice_rect,3,0,3,0,1,
5e7a2ccd69a7770604dfb352,SCR,2024-06-24_13h49.21.635,LearnStrategy,2023.2.3,MacIntel,59.24170616,1,2,5,,,,,,,,3,09,,,,,,,,,,,,,3,3.478,1,,,,,,0.135555556,-0.241111111,1,0,0,3.478,Diorite_rect,4,0,4,0,1,
5e7a2ccd69a7770604dfb352,SCR,2024-06-24_13h49.21.635,LearnStrategy,2023.2.3,MacIntel,59.24170616,1,2,6,,,,,,,,6,05,,,,,,,,,,,,,6,4.18,1,,,,,,-0.127777778,-0.403333333,1,0,0,4.18,Pegmatite_rect,5,0,5,0,1,
5e7a2ccd69a7770604dfb352,SCR,2024-06-24_13h49.21.635,LearnStrategy,2023.2.3,MacIntel,59.24170616,1,2,7,,,,,,,,7,14,,,,,,,,,,,,,4,2.595,0,,,,,,0.397777778,-0.242222222,1,0,0,2.595,Gabbro_rect,6,0,6,0,1,
5e7a2ccd69a7770604dfb352,SCR,2024-06-24_13h49.21.635,LearnStrategy,2023.2.3,MacIntel,59.24170616,1,2,8,,,,,,,,7,12,,,,,,,,,,,,,3,3.069,0,,,,,,0.197777778,-0.253333333,1,0,0,3.069,Diorite_rect,7,0,7,0,1,
5e7a2ccd69a7770604dfb352,SCR,2024-06-24_13h49.21.635,LearnStrategy,2023.2.3,MacIntel,59.24170616,1,2,9,,,,,,,,5,10,,,,,,,,,,,,,5,1.657,1,,,,,,-0.361111111,-0.392222222,1,0,0,1.657,Obsidian_rect,8,0,8,0,1,
5e7a2ccd69a7770604dfb352,SCR,2024-06-24_13h49.21.635,LearnStrategy,2023.2.3,MacIntel,59.24170616,1,2,10,,,,,,,,8,05,,,,,,,,,,,,,8,2.39,1,,,,,,0.393333333,-0.393333333,1,0,0,2.39,Pumice_rect,9,0,9,0,1,
5e7a2ccd69a7770604dfb352,SCR,2024-06-24_13h49.21.635,LearnStrategy,2023.2.3,MacIntel,59.24170616,1,2,11,,,,,,,,4,05,,,,,,,,,,,,,2,1.885,0,,,,,,-0.078888889,-0.255555556,1,0,0,1.885,Basalt_rect,10,0,10,0,1,
5e7a2ccd69a7770604dfb352,SCR,2024-06-24_13h49.21.635,LearnStrategy,2023.2.3,MacIntel,59.24170616,1,2,12,,,,,,,,6,08,,,,,,,,,,,,,6,4.362,1,,,,,,-0.095555556,-0.407777778,1,0,0,4.362,Pegmatite_rect,11,0,11,0,1,
5e7a2ccd69a7770604dfb352,SCR,2024-06-24_13h49.21.635,LearnStrategy,2023.2.3,MacIntel,59.24170616,1,2,13,,,,,,,,3,13,,,,,,,,,,,,,3,1.399,1,,,,,,0.14,-0.258888889,1,0,0,1.399,Diorite_rect,12,0,12,0,1,
5e7a2ccd69a7770604dfb352,SCR,2024-06-24_13h49.21.635,LearnStrategy,2023.2.3,MacIntel,59.24170616,1,2,14,,,,,,,,8,02,,,,,,,,,,,,,8,1.18,1,,,,,,0.424444444,-0.42,1,0,0,1.18,Pumice_rect,13,0,13,0,1,
5e7a2ccd69a7770604dfb352,SCR,2024-06-24_13h49.21.635,LearnStrategy,2023.2.3,MacIntel,59.24170616,1,2,15,,,,,,,,4,10,,,,,,,,,,,,,2,2.725,0,,,,,,-0.157777778,-0.252222222,1,0,0,2.725,Basalt_rect,14,0,14,0,1,
5e7a2ccd69a7770604dfb352,SCR,2024-06-24_13h49.21.635,LearnStrategy,2023.2.3,MacIntel,59.24170616,1,2,16,,,,,,,,1,04,,,,,,,,,,,,,1,2.225,1,,,,,,-0.383333333,-0.262222222,1,0,0,2.225,Andesite_rect,15,0,15,0,1,
5e7a2ccd69a7770604dfb352,SCR,2024-06-24_13h49.21.635,LearnStrategy,2023.2.3,MacIntel,59.24170616,2,1,1,-0.551111111,-0.387777778,1,0,0,8.529,Gabbro_12,4,12,1,1,8.529,4,11,-0.112222222,-0.261111111,1,0,0,2.717,Basalt_rect,2,2.717,0,0,0,0,0,1,,,,,,,,,,,,,
5e7a2ccd69a7770604dfb352,SCR,2024-06-24_13h49.21.635,LearnStrategy,2023.2.3,MacIntel,59.24170616,2,1,2,0.404444444,0.077777778,1,0,0,1.014,Basalt_01,2,01,4,7,1.014,4,09,0.401111111,-0.246666667,1,0,0,1.071,Gabbro_rect,4,1.071,0,1,0,1,0,1,,,,,,,,,,,,,
5e7a2ccd69a7770604dfb352,SCR,2024-06-24_13h49.21.635,LearnStrategy,2023.2.3,MacIntel,59.24170616,2,1,3,0.078888889,0.244444444,1,0,0,1.754,Gabbro_11,4,11,5,5,1.754,8,10,-0.081111111,-0.233333333,1,0,0,1.414,Basalt_rect,2,1.414,0,2,0,2,0,1,,,,,,,,,,,,,
5e7a2ccd69a7770604dfb352,SCR,2024-06-24_13h49.21.635,LearnStrategy,2023.2.3,MacIntel,59.24170616,2,1,4,0.428888889,0.235555556,1,0,0,1.18,Andesite_05,1,05,5,7,1.18,7,07,0.113333333,-0.251111111,1,0,0,2.055,Diorite_rect,3,2.055,0,3,0,3,0,1,,,,,,,,,,,,,
5e7a2ccd69a7770604dfb352,SCR,2024-06-24_13h49.21.635,LearnStrategy,2023.2.3,MacIntel,59.24170616,2,1,5,-0.373333333,0.115555556,1,0,0,2.82,Peridotite_15,7,15,4,2,2.82,4,01,0.142222222,-0.396666667,1,0,0,2.127,Peridotite_rect,7,2.127,1,4,0,4,0,1,,,,,,,,,,,,,
5e7a2ccd69a7770604dfb352,SCR,2024-06-24_13h49.21.635,LearnStrategy,2023.2.3,MacIntel,59.24170616,2,1,6,-0.366666667,-0.255555556,1,0,0,3.764,Basalt_12,2,12,2,2,3.764,1,01,0.372222222,-0.396666667,1,0,0,1.547,Pumice_rect,8,1.547,0,5,0,5,0,1,,,,,,,,,,,,,
5e7a2ccd69a7770604dfb352,SCR,2024-06-24_13h49.21.635,LearnStrategy,2023.2.3,MacIntel,59.24170616,2,1,7,0.068888889,-0.414444444,1,0,0,2.83,Diorite_06,3,06,1,5,2.83,7,10,-0.075555556,-0.248888889,1,0,0,1.723,Basalt_rect,2,1.723,0,6,0,6,0,1,,,,,,,,,,,,,
5e7a2ccd69a7770604dfb352,SCR,2024-06-24_13h49.21.635,LearnStrategy,2023.2.3,MacIntel,59.24170616,2,1,8,0.534444444,-0.123333333,1,0,0,1.162,Pumice_08,8,08,3,8,1.162,7,04,-0.07,-0.247777778,1,0,0,2.553,Basalt_rect,2,2.553,0,7,0,7,0,1,,,,,,,,,,,,,
5e7a2ccd69a7770604dfb352,SCR,2024-06-24_13h49.21.635,LearnStrategy,2023.2.3,MacIntel,59.24170616,2,1,9,0.407777778,-0.407777778,1,0,0,1.151,Andesite_07,1,07,1,7,1.151,2,06,0.114444444,-0.242222222,1,0,0,1.001,Diorite_rect,3,1.001,0,8,0,8,0,1,,,,,,,,,,,,,
5e7a2ccd69a7770604dfb352,SCR,2024-06-24_13h49.21.635,LearnStrategy,2023.2.3,MacIntel,59.24170616,2,1,10,-0.542222222,0.412222222,1,0,0,2.649,Andesite_10,1,10,6,1,2.649,2,06,0.124444444,-0.26,1,0,0,2.653,Diorite_rect,3,2.653,0,9,0,9,0,1,,,,,,,,,,,,,
5e7a2ccd69a7770604dfb352,SCR,2024-06-24_13h49.21.635,LearnStrategy,2023.2.3,MacIntel,59.24170616,2,1,11,-0.355555556,0.248888889,1,0,0,1.55,Peridotite_07,7,07,5,2,1.55,4,15,0.112222222,-0.393333333,1,0,0,1.806,Peridotite_rect,7,1.806,1,10,0,10,0,1,,,,,,,,,,,,,
5e7a2ccd69a7770604dfb352,SCR,2024-06-24_13h49.21.635,LearnStrategy,2023.2.3,MacIntel,59.24170616,2,1,12,0.085555556,0.255555556,1,0,0,1.129,Gabbro_11,4,11,5,5,1.129,7,07,0.398888889,-0.24,1,0,0,1.409,Gabbro_rect,4,1.409,1,11,0,11,0,1,,,,,,,,,,,,,
5e7a2ccd69a7770604dfb352,SCR,2024-06-24_13h49.21.635,LearnStrategy,2023.2.3,MacIntel,59.24170616,2,1,13,0.425555556,0.252222222,1,0,0,1.292,Andesite_05,1,05,5,7,1.292,7,08,0.092222222,-0.254444444,1,0,0,2.517,Diorite_rect,3,2.517,0,12,0,12,0,1,,,,,,,,,,,,,
5e7a2ccd69a7770604dfb352,SCR,2024-06-24_13h49.21.635,LearnStrategy,2023.2.3,MacIntel,59.24170616,2,1,14,0.513333333,0.218888889,1,0,0,1.061,Andesite_16,1,16,5,8,1.061,2,08,-0.414444444,-0.248888889,1,0,0,1.398,Andesite_rect,1,1.398,1,13,0,13,0,1,,,,,,,,,,,,,
5e7a2ccd69a7770604dfb352,SCR,2024-06-24_13h49.21.635,LearnStrategy,2023.2.3,MacIntel,59.24170616,2,1,15,0.224444444,-0.235555556,1,0,0,1.109,Diorite_14,3,14,2,6,1.109,3,16,0.11,-0.247777778,1,0,0,0.811,Diorite_rect,3,0.811,1,14,0,14,0,1,,,,,,,,,,,,,
5e7a2ccd69a7770604dfb352,SCR,2024-06-24_13h49.21.635,LearnStrategy,2023.2.3,MacIntel,59.24170616,2,1,16,-0.223333333,-0.081111111,1,0,0,1.425,Basalt_16,2,16,3,3,1.425,4,08,-0.121111111,-0.25,1,0,0,2.387,Basalt_rect,2,2.387,1,15,0,15,0,1,,,,,,,,,,,,,
5e7a2ccd69a7770604dfb352,SCR,2024-06-24_13h49.21.635,LearnStrategy,2023.2.3,MacIntel,59.24170616,2,2,1,,,,,,,,1,06,,,,,,,,,,,,,3,3.138,0,,,,,,0.111111111,-0.261111111,1,0,0,3.138,Diorite_rect,0,0,0,0,1,
5e7a2ccd69a7770604dfb352,SCR,2024-06-24_13h49.21.635,LearnStrategy,2023.2.3,MacIntel,59.24170616,2,2,2,,,,,,,,4,14,,,,,,,,,,,,,1,4.152,0,,,,,,-0.34,-0.262222222,1,0,0,4.152,Andesite_rect,1,0,1,0,1,
5e7a2ccd69a7770604dfb352,SCR,2024-06-24_13h49.21.635,LearnStrategy,2023.2.3,MacIntel,59.24170616,2,2,3,,,,,,,,5,12,,,,,,,,,,,,,5,1.254,1,,,,,,-0.351111111,-0.397777778,1,0,0,1.254,Obsidian_rect,2,0,2,0,1,
5e7a2ccd69a7770604dfb352,SCR,2024-06-24_13h49.21.635,LearnStrategy,2023.2.3,MacIntel,59.24170616,2,2,4,,,,,,,,5,04,,,,,,,,,,,,,5,1.117,1,,,,,,-0.36,-0.384444444,1,0,0,1.117,Obsidian_rect,3,0,3,0,1,
5e7a2ccd69a7770604dfb352,SCR,2024-06-24_13h49.21.635,LearnStrategy,2023.2.3,MacIntel,59.24170616,2,2,5,,,,,,,,4,16,,,,,,,,,,,,,2,8.743,0,,,,,,-0.127777778,-0.238888889,1,0,0,8.743,Basalt_rect,4,0,4,0,1,
5e7a2ccd69a7770604dfb352,SCR,2024-06-24_13h49.21.635,LearnStrategy,2023.2.3,MacIntel,59.24170616,2,2,6,,,,,,,,6,11,,,,,,,,,,,,,6,2.946,1,,,,,,-0.07,-0.395555556,1,0,0,2.946,Pegmatite_rect,5,0,5,0,1,
5e7a2ccd69a7770604dfb352,SCR,2024-06-24_13h49.21.635,LearnStrategy,2023.2.3,MacIntel,59.24170616,2,2,7,,,,,,,,2,14,,,,,,,,,,,,,8,2.14,0,,,,,,0.355555556,-0.395555556,1,0,0,2.14,Pumice_rect,6,0,6,0,1,
5e7a2ccd69a7770604dfb352,SCR,2024-06-24_13h49.21.635,LearnStrategy,2023.2.3,MacIntel,59.24170616,2,2,8,,,,,,,,1,11,,,,,,,,,,,,,3,2.226,0,,,,,,0.08,-0.234444444,1,0,0,2.226,Diorite_rect,7,0,7,0,1,
5e7a2ccd69a7770604dfb352,SCR,2024-06-24_13h49.21.635,LearnStrategy,2023.2.3,MacIntel,59.24170616,2,2,9,,,,,,,,8,06,,,,,,,,,,,,,8,1.103,1,,,,,,0.357777778,-0.388888889,1,0,0,1.103,Pumice_rect,8,0,8,0,1,
5e7a2ccd69a7770604dfb352,SCR,2024-06-24_13h49.21.635,LearnStrategy,2023.2.3,MacIntel,59.24170616,2,2,10,,,,,,,,6,13,,,,,,,,,,,,,7,3.486,0,,,,,,0.085555556,-0.396666667,1,0,0,3.486,Peridotite_rect,9,0,9,0,1,
5e7a2ccd69a7770604dfb352,SCR,2024-06-24_13h49.21.635,LearnStrategy,2023.2.3,MacIntel,59.24170616,2,2,11,,,,,,,,3,12,,,,,,,,,,,,,1,3.475,0,,,,,,-0.4,-0.245555556,1,0,0,3.475,Andesite_rect,10,0,10,0,1,
5e7a2ccd69a7770604dfb352,SCR,2024-06-24_13h49.21.635,LearnStrategy,2023.2.3,MacIntel,59.24170616,2,2,12,,,,,,,,7,05,,,,,,,,,,,,,6,5.305,0,,,,,,-0.117777778,-0.393333333,1,0,0,5.305,Pegmatite_rect,11,0,11,0,1,
5e7a2ccd69a7770604dfb352,SCR,2024-06-24_13h49.21.635,LearnStrategy,2023.2.3,MacIntel,59.24170616,2,2,13,,,,,,,,8,09,,,,,,,,,,,,,8,1.144,1,,,,,,0.322222222,-0.388888889,1,0,0,1.144,Pumice_rect,12,0,12,0,1,
5e7a2ccd69a7770604dfb352,SCR,2024-06-24_13h49.21.635,LearnStrategy,2023.2.3,MacIntel,59.24170616,2,2,14,,,,,,,,3,15,,,,,,,,,,,,,3,2.454,1,,,,,,0.087777778,-0.257777778,1,0,0,2.454,Diorite_rect,13,0,13,0,1,
5e7a2ccd69a7770604dfb352,SCR,2024-06-24_13h49.21.635,LearnStrategy,2023.2.3,MacIntel,59.24170616,2,2,15,,,,,,,,7,06,,,,,,,,,,,,,7,1.595,1,,,,,,0.073333333,-0.387777778,1,0,0,1.595,Peridotite_rect,14,0,14,0,1,
5e7a2ccd69a7770604dfb352,SCR,2024-06-24_13h49.21.635,LearnStrategy,2023.2.3,MacIntel,59.24170616,2,2,16,,,,,,,,2,05,,,,,,,,,,,,,4,3.502,0,,,,,,0.433333333,-0.245555556,1,0,0,3.502,Gabbro_rect,15,0,15,0,1,
5e7a2ccd69a7770604dfb352,SCR,2024-06-24_13h49.21.635,LearnStrategy,2023.2.3,MacIntel,59.24170616,3,1,1,-0.541111111,0.408888889,1,0,0,0.991,Andesite_10,1,10,6,1,0.991,6,07,-0.406666667,-0.247777778,1,0,0,1.873,Andesite_rect,1,1.873,1,0,0,0,0,1,,,,,,,,,,,,,
5e7a2ccd69a7770604dfb352,SCR,2024-06-24_13h49.21.635,LearnStrategy,2023.2.3,MacIntel,59.24170616,3,1,2,-0.07,0.406666667,1,0,0,2.358,Diorite_16,3,16,6,4,2.358,1,07,0.083333333,-0.253333333,1,0,0,1.128,Diorite_rect,3,1.128,1,1,0,1,0,1,,,,,,,,,,,,,
5e7a2ccd69a7770604dfb352,SCR,2024-06-24_13h49.21.635,LearnStrategy,2023.2.3,MacIntel,59.24170616,3,1,3,-0.411111111,-0.248888889,1,0,0,2.663,Basalt_12,2,12,2,2,2.663,4,12,0.406666667,-0.392222222,1,0,0,2.447,Pumice_rect,8,2.447,0,2,0,2,0,1,,,,,,,,,,,,,
5e7a2ccd69a7770604dfb352,SCR,2024-06-24_13h49.21.635,LearnStrategy,2023.2.3,MacIntel,59.24170616,3,1,4,0.393333333,-0.091111111,1,0,0,2.357,Andesite_09,1,09,3,7,2.357,3,16,0.074444444,-0.254444444,1,0,0,2.092,Diorite_rect,3,2.092,0,3,0,3,0,1,,,,,,,,,,,,,
5e7a2ccd69a7770604dfb352,SCR,2024-06-24_13h49.21.635,LearnStrategy,2023.2.3,MacIntel,59.24170616,3,1,5,-0.372222222,0.372222222,1,0,0,0.883,Pumice_13,8,13,6,2,0.883,7,15,0.362222222,-0.403333333,1,0,0,1.539,Pumice_rect,8,1.539,1,4,0,4,0,1,,,,,,,,,,,,,
5e7a2ccd69a7770604dfb352,SCR,2024-06-24_13h49.21.635,LearnStrategy,2023.2.3,MacIntel,59.24170616,3,1,6,-0.078888889,0.09,1,0,0,0.999,Diorite_10,3,10,4,4,0.999,7,02,0.094444444,-0.241111111,1,0,0,2.58,Diorite_rect,3,2.58,1,5,0,5,0,1,,,,,,,,,,,,,
5e7a2ccd69a7770604dfb352,SCR,2024-06-24_13h49.21.635,LearnStrategy,2023.2.3,MacIntel,59.24170616,3,1,7,0.245555556,0.258888889,1,0,0,1.073,Diorite_07,3,07,5,6,1.073,4,09,0.093333333,-0.231111111,1,0,0,1.255,Diorite_rect,3,1.255,1,6,0,6,0,1,,,,,,,,,,,,,
5e7a2ccd69a7770604dfb352,SCR,2024-06-24_13h49.21.635,LearnStrategy,2023.2.3,MacIntel,59.24170616,3,1,8,0.538888889,0.247777778,1,0,0,0.992,Andesite_16,1,16,5,8,0.992,1,10,-0.357777778,-0.243333333,1,0,0,1.846,Andesite_rect,1,1.846,1,7,0,7,0,1,,,,,,,,,,,,,
5e7a2ccd69a7770604dfb352,SCR,2024-06-24_13h49.21.635,LearnStrategy,2023.2.3,MacIntel,59.24170616,3,1,9,0.071111111,-0.226666667,1,0,0,0.73,Peridotite_10,7,10,2,5,0.73,3,11,0.104444444,-0.39,1,0,0,1.254,Peridotite_rect,7,1.254,1,8,0,8,0,1,,,,,,,,,,,,,
5e7a2ccd69a7770604dfb352,SCR,2024-06-24_13h49.21.635,LearnStrategy,2023.2.3,MacIntel,59.24170616,3,1,10,0.254444444,-0.118888889,1,0,0,0.882,Pumice_10,8,10,3,6,0.882,8,13,0.335555556,-0.417777778,1,0,0,1.28,Pumice_rect,8,1.28,1,9,0,9,0,1,,,,,,,,,,,,,
5e7a2ccd69a7770604dfb352,SCR,2024-06-24_13h49.21.635,LearnStrategy,2023.2.3,MacIntel,59.24170616,3,1,11,0.406666667,-0.414444444,1,0,0,1.039,Andesite_07,1,07,1,7,1.039,2,08,0.118888889,-0.261111111,1,0,0,1.255,Diorite_rect,3,1.255,0,10,0,10,0,1,,,,,,,,,,,,,
5e7a2ccd69a7770604dfb352,SCR,2024-06-24_13h49.21.635,LearnStrategy,2023.2.3,MacIntel,59.24170616,3,1,12,0.562222222,0.107777778,1,0,0,1.551,Andesite_01,1,01,4,8,1.551,4,09,0.181111111,-0.265555556,1,0,0,1.08,Diorite_rect,3,1.08,0,11,0,11,0,1,,,,,,,,,,,,,
5e7a2ccd69a7770604dfb352,SCR,2024-06-24_13h49.21.635,LearnStrategy,2023.2.3,MacIntel,59.24170616,3,1,13,0.385555556,-0.398888889,1,0,0,4.907,Andesite_07,1,07,1,7,4.907,4,01,0.096666667,-0.237777778,1,0,0,0.909,Diorite_rect,3,0.909,0,12,0,12,0,1,,,,,,,,,,,,,
5e7a2ccd69a7770604dfb352,SCR,2024-06-24_13h49.21.635,LearnStrategy,2023.2.3,MacIntel,59.24170616,3,1,14,-0.072222222,0.405555556,1,0,0,1.301,Diorite_16,3,16,6,4,1.301,7,04,0.095555556,-0.238888889,1,0,0,1.914,Diorite_rect,3,1.914,1,13,0,13,0,1,,,,,,,,,,,,,
5e7a2ccd69a7770604dfb352,SCR,2024-06-24_13h49.21.635,LearnStrategy,2023.2.3,MacIntel,59.24170616,3,1,15,-0.085555556,-0.113333333,1,0,0,1.765,Obsidian_05,5,05,3,4,1.765,2,16,0.067777778,-0.404444444,1,0,0,2.934,Peridotite_rect,7,2.934,0,14,0,14,0,1,,,,,,,,,,,,,
5e7a2ccd69a7770604dfb352,SCR,2024-06-24_13h49.21.635,LearnStrategy,2023.2.3,MacIntel,59.24170616,3,1,16,-0.074444444,-0.248888889,1,0,0,2.006,Pegmatite_16,6,16,2,4,2.006,2,12,-0.086666667,-0.416666667,1,0,0,2.615,Pegmatite_rect,6,2.615,1,15,0,15,0,1,,,,,,,,,,,,,
5e7a2ccd69a7770604dfb352,SCR,2024-06-24_13h49.21.635,LearnStrategy,2023.2.3,MacIntel,59.24170616,3,2,1,,,,,,,,5,16,,,,,,,,,,,,,5,1.311,1,,,,,,-0.365555556,-0.4,1,0,0,1.311,Obsidian_rect,0,0,0,0,1,
5e7a2ccd69a7770604dfb352,SCR,2024-06-24_13h49.21.635,LearnStrategy,2023.2.3,MacIntel,59.24170616,3,2,2,,,,,,,,4,13,,,,,,,,,,,,,1,6.496,0,,,,,,-0.392222222,-0.265555556,1,0,0,6.496,Andesite_rect,1,0,1,0,1,
5e7a2ccd69a7770604dfb352,SCR,2024-06-24_13h49.21.635,LearnStrategy,2023.2.3,MacIntel,59.24170616,3,2,3,,,,,,,,6,09,,,,,,,,,,,,,7,3.489,0,,,,,,0.092222222,-0.395555556,1,0,0,3.489,Peridotite_rect,2,0,2,0,1,
5e7a2ccd69a7770604dfb352,SCR,2024-06-24_13h49.21.635,LearnStrategy,2023.2.3,MacIntel,59.24170616,3,2,4,,,,,,,,3,02,,,,,,,,,,,,,3,1.396,1,,,,,,0.106666667,-0.265555556,1,0,0,1.396,Diorite_rect,3,0,3,0,1,
5e7a2ccd69a7770604dfb352,SCR,2024-06-24_13h49.21.635,LearnStrategy,2023.2.3,MacIntel,59.24170616,3,2,5,,,,,,,,8,14,,,,,,,,,,,,,8,1.015,1,,,,,,0.41,-0.386666667,1,0,0,1.015,Pumice_rect,4,0,4,0,1,
5e7a2ccd69a7770604dfb352,SCR,2024-06-24_13h49.21.635,LearnStrategy,2023.2.3,MacIntel,59.24170616,3,2,6,,,,,,,,2,04,,,,,,,,,,,,,4,1.841,0,,,,,,0.378888889,-0.257777778,1,0,0,1.841,Gabbro_rect,5,0,5,0,1,
5e7a2ccd69a7770604dfb352,SCR,2024-06-24_13h49.21.635,LearnStrategy,2023.2.3,MacIntel,59.24170616,3,2,7,,,,,,,,3,08,,,,,,,,,,,,,1,6.47,0,,,,,,-0.347777778,-0.252222222,1,0,0,6.47,Andesite_rect,6,0,6,0,1,
5e7a2ccd69a7770604dfb352,SCR,2024-06-24_13h49.21.635,LearnStrategy,2023.2.3,MacIntel,59.24170616,3,2,8,,,,,,,,4,03,,,,,,,,,,,,,2,2.188,0,,,,,,-0.046666667,-0.25,1,0,0,2.188,Basalt_rect,7,0,7,0,1,
5e7a2ccd69a7770604dfb352,SCR,2024-06-24_13h49.21.635,LearnStrategy,2023.2.3,MacIntel,59.24170616,3,2,9,,,,,,,,7,16,,,,,,,,,,,,,3,3.123,0,,,,,,0.085555556,-0.248888889,1,0,0,3.123,Diorite_rect,8,0,8,0,1,
5e7a2ccd69a7770604dfb352,SCR,2024-06-24_13h49.21.635,LearnStrategy,2023.2.3,MacIntel,59.24170616,3,2,10,,,,,,,,1,02,,,,,,,,,,,,,3,1.328,0,,,,,,0.085555556,-0.248888889,1,0,0,1.328,Diorite_rect,9,0,9,0,1,
5e7a2ccd69a7770604dfb352,SCR,2024-06-24_13h49.21.635,LearnStrategy,2023.2.3,MacIntel,59.24170616,3,2,11,,,,,,,,2,09,,,,,,,,,,,,,4,1.157,0,,,,,,0.448888889,-0.243333333,1,0,0,1.157,Gabbro_rect,10,0,10,0,1,
5e7a2ccd69a7770604dfb352,SCR,2024-06-24_13h49.21.635,LearnStrategy,2023.2.3,MacIntel,59.24170616,3,2,12,,,,,,,,6,06,,,,,,,,,,,,,6,1.227,1,,,,,,-0.121111111,-0.394444444,1,0,0,1.227,Pegmatite_rect,11,0,11,0,1,
5e7a2ccd69a7770604dfb352,SCR,2024-06-24_13h49.21.635,LearnStrategy,2023.2.3,MacIntel,59.24170616,3,2,13,,,,,,,,7,13,,,,,,,,,,,,,7,1.282,1,,,,,,0.114444444,-0.413333333,1,0,0,1.282,Peridotite_rect,12,0,12,0,1,
5e7a2ccd69a7770604dfb352,SCR,2024-06-24_13h49.21.635,LearnStrategy,2023.2.3,MacIntel,59.24170616,3,2,14,,,,,,,,5,08,,,,,,,,,,,,,5,1.511,1,,,,,,-0.361111111,-0.403333333,1,0,0,1.511,Obsidian_rect,13,0,13,0,1,
5e7a2ccd69a7770604dfb352,SCR,2024-06-24_13h49.21.635,LearnStrategy,2023.2.3,MacIntel,59.24170616,3,2,15,,,,,,,,8,04,,,,,,,,,,,,,8,1.279,1,,,,,,0.353333333,-0.406666667,1,0,0,1.279,Pumice_rect,14,0,14,0,1,
5e7a2ccd69a7770604dfb352,SCR,2024-06-24_13h49.21.635,LearnStrategy,2023.2.3,MacIntel,59.24170616,3,2,16,,,,,,,,1,03,,,,,,,,,,,,,1,3.785,1,,,,,,-0.403333333,-0.245555556,1,0,0,3.785,Andesite_rect,15,0,15,0,1,
5e7a2ccd69a7770604dfb352,SCR,2024-06-24_13h49.21.635,LearnStrategy,2023.2.3,MacIntel,59.24170616,4,1,1,-0.227777778,0.265555556,1,0,0,2.539,Pegmatite_10,6,10,5,3,2.539,7,02,0.132222222,-0.408888889,1,0,0,1.51,Peridotite_rect,7,1.51,0,0,0,0,0,1,,,,,,,,,,,,,
5e7a2ccd69a7770604dfb352,SCR,2024-06-24_13h49.21.635,LearnStrategy,2023.2.3,MacIntel,59.24170616,4,1,2,-0.078888889,-0.394444444,1,0,0,2.47,Obsidian_06,5,06,1,4,2.47,2,12,0.104444444,-0.397777778,1,0,0,2.469,Peridotite_rect,7,2.469,0,1,0,1,0,1,,,,,,,,,,,,,
5e7a2ccd69a7770604dfb352,SCR,2024-06-24_13h49.21.635,LearnStrategy,2023.2.3,MacIntel,59.24170616,4,1,3,0.213333333,0.283333333,1,0,0,1.015,Diorite_07,3,07,5,6,1.015,4,08,0.105555556,-0.248888889,1,0,0,1.269,Diorite_rect,3,1.269,1,2,0,2,0,1,,,,,,,,,,,,,
5e7a2ccd69a7770604dfb352,SCR,2024-06-24_13h49.21.635,LearnStrategy,2023.2.3,MacIntel,59.24170616,4,1,4,0.378888889,-0.406666667,1,0,0,1.547,Andesite_07,1,07,1,7,1.547,2,12,-0.363333333,-0.26,1,0,0,1.398,Andesite_rect,1,1.398,1,3,0,3,0,1,,,,,,,,,,,,,
5e7a2ccd69a7770604dfb352,SCR,2024-06-24_13h49.21.635,LearnStrategy,2023.2.3,MacIntel,59.24170616,4,1,5,-0.554444444,0.397777778,1,0,0,0.804,Andesite_10,1,10,6,1,0.804,4,01,-0.382222222,-0.253333333,1,0,0,1.643,Andesite_rect,1,1.643,1,4,0,4,0,1,,,,,,,,,,,,,
5e7a2ccd69a7770604dfb352,SCR,2024-06-24_13h49.21.635,LearnStrategy,2023.2.3,MacIntel,59.24170616,4,1,6,-0.242222222,-0.262222222,1,0,0,2.682,Diorite_11,3,11,2,3,2.682,4,09,-0.342222222,-0.251111111,1,0,0,1.741,Andesite_rect,1,1.741,0,5,0,5,0,1,,,,,,,,,,,,,
5e7a2ccd69a7770604dfb352,SCR,2024-06-24_13h49.21.635,LearnStrategy,2023.2.3,MacIntel,59.24170616,4,1,7,0.22,0.247777778,1,0,0,1.16,Diorite_07,3,07,5,6,1.16,6,12,0.086666667,-0.26,1,0,0,1.22,Diorite_rect,3,1.22,1,6,0,6,0,1,,,,,,,,,,,,,
5e7a2ccd69a7770604dfb352,SCR,2024-06-24_13h49.21.635,LearnStrategy,2023.2.3,MacIntel,59.24170616,4,1,8,0.378888889,0.222222222,1,0,0,0.906,Andesite_05,1,05,5,7,0.906,1,16,-0.35,-0.24,1,0,0,1.956,Andesite_rect,1,1.956,1,7,0,7,0,1,,,,,,,,,,,,,
5e7a2ccd69a7770604dfb352,SCR,2024-06-24_13h49.21.635,LearnStrategy,2023.2.3,MacIntel,59.24170616,4,1,9,-0.071111111,0.418888889,1,0,0,1.747,Diorite_16,3,16,6,4,1.747,2,01,-0.401111111,-0.231111111,1,0,0,1.241,Andesite_rect,1,1.241,0,8,0,8,0,1,,,,,,,,,,,,,
5e7a2ccd69a7770604dfb352,SCR,2024-06-24_13h49.21.635,LearnStrategy,2023.2.3,MacIntel,59.24170616,4,1,10,-0.546666667,0.385555556,1,0,0,0.773,Andesite_10,1,10,6,1,0.773,1,01,-0.371111111,-0.266666667,1,0,0,1.755,Andesite_rect,1,1.755,1,9,0,9,0,1,,,,,,,,,,,,,
5e7a2ccd69a7770604dfb352,SCR,2024-06-24_13h49.21.635,LearnStrategy,2023.2.3,MacIntel,59.24170616,4,1,11,0.244444444,-0.108888889,1,0,0,1.048,Pumice_10,8,10,3,6,1.048,6,10,0.404444444,-0.403333333,1,0,0,1.045,Pumice_rect,8,1.045,1,10,0,10,0,1,,,,,,,,,,,,,
5e7a2ccd69a7770604dfb352,SCR,2024-06-24_13h49.21.635,LearnStrategy,2023.2.3,MacIntel,59.24170616,4,1,12,0.41,-0.423333333,1,0,0,2.022,Andesite_07,1,07,1,7,2.022,4,09,0.141111111,-0.248888889,1,0,0,1.495,Diorite_rect,3,1.495,0,11,0,11,0,1,,,,,,,,,,,,,
5e7a2ccd69a7770604dfb352,SCR,2024-06-24_13h49.21.635,LearnStrategy,2023.2.3,MacIntel,59.24170616,4,1,13,-0.061111111,0.092222222,1,0,0,3.89,Diorite_10,3,10,4,4,3.89,8,13,-0.106666667,-0.256666667,1,0,0,2.208,Basalt_rect,2,2.208,0,12,0,12,0,1,,,,,,,,,,,,,
5e7a2ccd69a7770604dfb352,SCR,2024-06-24_13h49.21.635,LearnStrategy,2023.2.3,MacIntel,59.24170616,4,1,14,0.388888889,0.251111111,1,0,0,1.058,Andesite_05,1,05,5,7,1.058,3,11,-0.408888889,-0.235555556,1,0,0,1.26,Andesite_rect,1,1.26,1,13,0,13,0,1,,,,,,,,,,,,,
5e7a2ccd69a7770604dfb352,SCR,2024-06-24_13h49.21.635,LearnStrategy,2023.2.3,MacIntel,59.24170616,4,1,15,0.538888889,0.24,1,0,0,1.08,Andesite_16,1,16,5,8,1.08,3,06,0.177777778,-0.238888889,1,0,0,1.19,Diorite_rect,3,1.19,0,14,0,14,0,1,,,,,,,,,,,,,
5e7a2ccd69a7770604dfb352,SCR,2024-06-24_13h49.21.635,LearnStrategy,2023.2.3,MacIntel,59.24170616,4,1,16,-0.222222222,-0.238888889,1,0,0,1.036,Diorite_11,3,11,2,3,1.036,7,15,0.148888889,-0.244444444,1,0,0,1.211,Diorite_rect,3,1.211,1,15,0,15,0,1,,,,,,,,,,,,,
5e7a2ccd69a7770604dfb352,SCR,2024-06-24_13h49.21.635,LearnStrategy,2023.2.3,MacIntel,59.24170616,4,2,1,,,,,,,,3,12,,,,,,,,,,,,,3,2.611,1,,,,,,0.106666667,-0.248888889,1,0,0,2.611,Diorite_rect,0,0,0,0,1,
5e7a2ccd69a7770604dfb352,SCR,2024-06-24_13h49.21.635,LearnStrategy,2023.2.3,MacIntel,59.24170616,4,2,2,,,,,,,,4,05,,,,,,,,,,,,,6,5.378,0,,,,,,-0.107777778,-0.402222222,1,0,0,5.378,Pegmatite_rect,1,0,1,0,1,
5e7a2ccd69a7770604dfb352,SCR,2024-06-24_13h49.21.635,LearnStrategy,2023.2.3,MacIntel,59.24170616,4,2,3,,,,,,,,1,14,,,,,,,,,,,,,1,2.118,1,,,,,,-0.348888889,-0.24,1,0,0,2.118,Andesite_rect,2,0,2,0,1,
5e7a2ccd69a7770604dfb352,SCR,2024-06-24_13h49.21.635,LearnStrategy,2023.2.3,MacIntel,59.24170616,4,2,4,,,,,,,,7,06,,,,,,,,,,,,,7,1.769,1,,,,,,0.102222222,-0.398888889,1,0,0,1.769,Peridotite_rect,3,0,3,0,1,
5e7a2ccd69a7770604dfb352,SCR,2024-06-24_13h49.21.635,LearnStrategy,2023.2.3,MacIntel,59.24170616,4,2,5,,,,,,,,3,08,,,,,,,,,,,,,3,5.44,1,,,,,,0.085555556,-0.252222222,1,0,0,5.44,Diorite_rect,4,0,4,0,1,
5e7a2ccd69a7770604dfb352,SCR,2024-06-24_13h49.21.635,LearnStrategy,2023.2.3,MacIntel,59.24170616,4,2,6,,,,,,,,1,06,,,,,,,,,,,,,1,1.714,1,,,,,,-0.328888889,-0.261111111,1,0,0,1.714,Andesite_rect,5,0,5,0,1,
5e7a2ccd69a7770604dfb352,SCR,2024-06-24_13h49.21.635,LearnStrategy,2023.2.3,MacIntel,59.24170616,4,2,7,,,,,,,,2,05,,,,,,,,,,,,,4,1.643,0,,,,,,0.42,-0.261111111,1,0,0,1.643,Gabbro_rect,6,0,6,0,1,
5e7a2ccd69a7770604dfb352,SCR,2024-06-24_13h49.21.635,LearnStrategy,2023.2.3,MacIntel,59.24170616,4,2,8,,,,,,,,6,13,,,,,,,,,,,,,6,2.161,1,,,,,,-0.123333333,-0.404444444,1,0,0,2.161,Pegmatite_rect,7,0,7,0,1,
5e7a2ccd69a7770604dfb352,SCR,2024-06-24_13h49.21.635,LearnStrategy,2023.2.3,MacIntel,59.24170616,4,2,9,,,,,,,,4,03,,,,,,,,,,,,,2,1.886,0,,,,,,-0.097777778,-0.236666667,1,0,0,1.886,Basalt_rect,8,0,8,0,1,
5e7a2ccd69a7770604dfb352,SCR,2024-06-24_13h49.21.635,LearnStrategy,2023.2.3,MacIntel,59.24170616,4,2,10,,,,,,,,8,04,,,,,,,,,,,,,8,1.128,1,,,,,,0.37,-0.386666667,1,0,0,1.128,Pumice_rect,9,0,9,0,1,
5e7a2ccd69a7770604dfb352,SCR,2024-06-24_13h49.21.635,LearnStrategy,2023.2.3,MacIntel,59.24170616,4,2,11,,,,,,,,2,11,,,,,,,,,,,,,4,1.465,0,,,,,,0.387777778,-0.255555556,1,0,0,1.465,Gabbro_rect,10,0,10,0,1,
5e7a2ccd69a7770604dfb352,SCR,2024-06-24_13h49.21.635,LearnStrategy,2023.2.3,MacIntel,59.24170616,4,2,12,,,,,,,,5,09,,,,,,,,,,,,,5,1.239,1,,,,,,-0.432222222,-0.395555556,1,0,0,1.239,Obsidian_rect,11,0,11,0,1,
5e7a2ccd69a7770604dfb352,SCR,2024-06-24_13h49.21.635,LearnStrategy,2023.2.3,MacIntel,59.24170616,4,2,13,,,,,,,,8,06,,,,,,,,,,,,,8,1.207,1,,,,,,0.362222222,-0.395555556,1,0,0,1.207,Pumice_rect,12,0,12,0,1,
5e7a2ccd69a7770604dfb352,SCR,2024-06-24_13h49.21.635,LearnStrategy,2023.2.3,MacIntel,59.24170616,4,2,14,,,,,,,,7,13,,,,,,,,,,,,,7,2.096,1,,,,,,0.125555556,-0.387777778,1,0,0,2.096,Peridotite_rect,13,0,13,0,1,
5e7a2ccd69a7770604dfb352,SCR,2024-06-24_13h49.21.635,LearnStrategy,2023.2.3,MacIntel,59.24170616,4,2,15,,,,,,,,5,12,,,,,,,,,,,,,5,1.145,1,,,,,,-0.363333333,-0.397777778,1,0,0,1.145,Obsidian_rect,14,0,14,0,1,
5e7a2ccd69a7770604dfb352,SCR,2024-06-24_13h49.21.635,LearnStrategy,2023.2.3,MacIntel,59.24170616,4,2,16,,,,,,,,6,08,,,,,,,,,,,,,7,1.825,0,,,,,,0.142222222,-0.393333333,1,0,0,1.825,Peridotite_rect,15,0,15,0,1,
5e7a2ccd69a7770604dfb352,SCR,2024-06-24_13h49.21.635,LearnStrategy,2023.2.3,MacIntel,59.24170616,5,1,1,0.553333333,0.431111111,1,0,0,2.987,Gabbro_08,4,08,6,8,2.987,2,08,0.42,-0.257777778,1,0,0,3.811,Gabbro_rect,4,3.811,1,0,0,0,0,1,,,,,,,,,,,,,
5e7a2ccd69a7770604dfb352,SCR,2024-06-24_13h49.21.635,LearnStrategy,2023.2.3,MacIntel,59.24170616,5,1,2,0.096666667,0.244444444,1,0,0,1.333,Gabbro_11,4,11,5,5,1.333,2,01,0.405555556,-0.236666667,1,0,0,1.124,Gabbro_rect,4,1.124,1,1,0,1,0,1,,,,,,,,,,,,,
5e7a2ccd69a7770604dfb352,SCR,2024-06-24_13h49.21.635,LearnStrategy,2023.2.3,MacIntel,59.24170616,5,1,3,-0.401111111,-0.115555556,1,0,0,1.139,Basalt_08,2,08,3,2,1.139,4,11,-0.142222222,-0.231111111,1,0,0,1.294,Basalt_rect,2,1.294,1,2,0,2,0,1,,,,,,,,,,,,,
5e7a2ccd69a7770604dfb352,SCR,2024-06-24_13h49.21.635,LearnStrategy,2023.2.3,MacIntel,59.24170616,5,1,4,-0.272222222,0.123333333,1,0,0,0.663,Basalt_06,2,06,4,3,0.663,6,12,-0.13,-0.234444444,1,0,0,1.021,Basalt_rect,2,1.021,1,3,0,3,0,1,,,,,,,,,,,,,
5e7a2ccd69a7770604dfb352,SCR,2024-06-24_13h49.21.635,LearnStrategy,2023.2.3,MacIntel,59.24170616,5,1,5,-0.562222222,-0.392222222,1,0,0,1.568,Gabbro_12,4,12,1,1,1.568,6,16,0.403333333,-0.245555556,1,0,0,1.932,Gabbro_rect,4,1.932,1,4,0,4,0,1,,,,,,,,,,,,,
5e7a2ccd69a7770604dfb352,SCR,2024-06-24_13h49.21.635,LearnStrategy,2023.2.3,MacIntel,59.24170616,5,1,6,0.392222222,-0.094444444,1,0,0,2.673,Andesite_09,1,09,3,7,2.673,3,06,0.086666667,-0.255555556,1,0,0,2.52,Diorite_rect,3,2.52,0,5,0,5,0,1,,,,,,,,,,,,,
5e7a2ccd69a7770604dfb352,SCR,2024-06-24_13h49.21.635,LearnStrategy,2023.2.3,MacIntel,59.24170616,5,1,7,0.527777778,0.247777778,1,0,0,1.433,Andesite_16,1,16,5,8,1.433,2,06,-0.336666667,-0.248888889,1,0,0,1.626,Andesite_rect,1,1.626,1,6,0,6,0,1,,,,,,,,,,,,,
5e7a2ccd69a7770604dfb352,SCR,2024-06-24_13h49.21.635,LearnStrategy,2023.2.3,MacIntel,59.24170616,5,1,8,0.237777778,-0.261111111,1,0,0,1.299,Diorite_14,3,14,2,6,1.299,2,10,0.1,-0.236666667,1,0,0,0.766,Diorite_rect,3,0.766,1,7,0,7,0,1,,,,,,,,,,,,,
5e7a2ccd69a7770604dfb352,SCR,2024-06-24_13h49.21.635,LearnStrategy,2023.2.3,MacIntel,59.24170616,5,1,9,-0.07,0.402222222,1,0,0,1.256,Diorite_16,3,16,6,4,1.256,7,08,0.118888889,-0.258888889,1,0,0,0.814,Diorite_rect,3,0.814,1,8,0,8,0,1,,,,,,,,,,,,,
5e7a2ccd69a7770604dfb352,SCR,2024-06-24_13h49.21.635,LearnStrategy,2023.2.3,MacIntel,59.24170616,5,1,10,-0.543333333,-0.094444444,1,0,0,1.848,Pegmatite_12,6,12,3,1,1.848,4,01,-0.074444444,-0.416666667,1,0,0,2.619,Pegmatite_rect,6,2.619,1,9,0,9,0,1,,,,,,,,,,,,,
5e7a2ccd69a7770604dfb352,SCR,2024-06-24_13h49.21.635,LearnStrategy,2023.2.3,MacIntel,59.24170616,5,1,11,0.091111111,-0.372222222,1,0,0,1.502,Diorite_06,3,06,1,5,1.502,1,10,0.097777778,-0.262222222,1,0,0,2.143,Diorite_rect,3,2.143,1,10,0,10,0,1,,,,,,,,,,,,,
5e7a2ccd69a7770604dfb352,SCR,2024-06-24_13h49.21.635,LearnStrategy,2023.2.3,MacIntel,59.24170616,5,1,12,0.248888889,-0.114444444,1,0,0,1.14,Pumice_10,8,10,3,6,1.14,7,04,0.421111111,-0.401111111,1,0,0,1.049,Pumice_rect,8,1.049,1,11,0,11,0,1,,,,,,,,,,,,,
5e7a2ccd69a7770604dfb352,SCR,2024-06-24_13h49.21.635,LearnStrategy,2023.2.3,MacIntel,59.24170616,5,1,13,0.39,-0.105555556,1,0,0,0.766,Andesite_09,1,09,3,7,0.766,4,08,-0.337777778,-0.248888889,1,0,0,4.438,Andesite_rect,1,4.438,1,12,0,12,0,1,,,,,,,,,,,,,
5e7a2ccd69a7770604dfb352,SCR,2024-06-24_13h49.21.635,LearnStrategy,2023.2.3,MacIntel,59.24170616,5,1,14,0.117777778,0.222222222,1,0,0,2.872,Gabbro_11,4,11,5,5,2.872,8,03,0.413333333,-0.27,1,0,0,0.84,Gabbro_rect,4,0.84,1,13,0,13,0,1,,,,,,,,,,,,,
5e7a2ccd69a7770604dfb352,SCR,2024-06-24_13h49.21.635,LearnStrategy,2023.2.3,MacIntel,59.24170616,5,1,15,-0.08,0.26,1,0,0,1.784,Gabbro_01,4,01,5,4,1.784,1,09,-0.098888889,-0.233333333,1,0,0,1.302,Basalt_rect,2,1.302,0,14,0,14,0,1,,,,,,,,,,,,,
5e7a2ccd69a7770604dfb352,SCR,2024-06-24_13h49.21.635,LearnStrategy,2023.2.3,MacIntel,59.24170616,5,1,16,-0.557777778,-0.387777778,1,0,0,1.682,Gabbro_12,4,12,1,1,1.682,4,08,-0.146666667,-0.251111111,1,0,0,0.955,Basalt_rect,2,0.955,0,15,0,15,0,1,,,,,,,,,,,,,
5e7a2ccd69a7770604dfb352,SCR,2024-06-24_13h49.21.635,LearnStrategy,2023.2.3,MacIntel,59.24170616,5,2,1,,,,,,,,8,02,,,,,,,,,,,,,8,1.175,1,,,,,,0.363333333,-0.397777778,1,0,0,1.175,Pumice_rect,0,0,0,0,1,
5e7a2ccd69a7770604dfb352,SCR,2024-06-24_13h49.21.635,LearnStrategy,2023.2.3,MacIntel,59.24170616,5,2,2,,,,,,,,3,15,,,,,,,,,,,,,1,8.99,0,,,,,,-0.382222222,-0.256666667,1,0,0,8.99,Andesite_rect,1,0,1,0,1,
5e7a2ccd69a7770604dfb352,SCR,2024-06-24_13h49.21.635,LearnStrategy,2023.2.3,MacIntel,59.24170616,5,2,3,,,,,,,,6,05,,,,,,,,,,,,,6,2.233,1,,,,,,-0.103333333,-0.404444444,1,0,0,2.233,Pegmatite_rect,2,0,2,0,1,
5e7a2ccd69a7770604dfb352,SCR,2024-06-24_13h49.21.635,LearnStrategy,2023.2.3,MacIntel,59.24170616,5,2,4,,,,,,,,8,05,,,,,,,,,,,,,8,1.054,1,,,,,,0.354444444,-0.408888889,1,0,0,1.054,Pumice_rect,3,0,3,0,1,
5e7a2ccd69a7770604dfb352,SCR,2024-06-24_13h49.21.635,LearnStrategy,2023.2.3,MacIntel,59.24170616,5,2,5,,,,,,,,6,09,,,,,,,,,,,,,7,1.238,0,,,,,,0.14,-0.404444444,1,0,0,1.238,Peridotite_rect,4,0,4,0,1,
5e7a2ccd69a7770604dfb352,SCR,2024-06-24_13h49.21.635,LearnStrategy,2023.2.3,MacIntel,59.24170616,5,2,6,,,,,,,,1,04,,,,,,,,,,,,,3,1.747,0,,,,,,0.072222222,-0.263333333,1,0,0,1.747,Diorite_rect,5,0,5,0,1,
5e7a2ccd69a7770604dfb352,SCR,2024-06-24_13h49.21.635,LearnStrategy,2023.2.3,MacIntel,59.24170616,5,2,7,,,,,,,,7,12,,,,,,,,,,,,,1,2.98,0,,,,,,-0.371111111,-0.246666667,1,0,0,2.98,Andesite_rect,6,0,6,0,1,
5e7a2ccd69a7770604dfb352,SCR,2024-06-24_13h49.21.635,LearnStrategy,2023.2.3,MacIntel,59.24170616,5,2,8,,,,,,,,4,13,,,,,,,,,,,,,2,5.789,0,,,,,,-0.126666667,-0.263333333,1,0,0,5.789,Basalt_rect,7,0,7,0,1,
5e7a2ccd69a7770604dfb352,SCR,2024-06-24_13h49.21.635,LearnStrategy,2023.2.3,MacIntel,59.24170616,5,2,9,,,,,,,,7,14,,,,,,,,,,,,,6,2.353,0,,,,,,-0.103333333,-0.405555556,1,0,0,2.353,Pegmatite_rect,8,0,8,0,1,
5e7a2ccd69a7770604dfb352,SCR,2024-06-24_13h49.21.635,LearnStrategy,2023.2.3,MacIntel,59.24170616,5,2,10,,,,,,,,5,04,,,,,,,,,,,,,5,2.302,1,,,,,,-0.363333333,-0.412222222,1,0,0,2.302,Obsidian_rect,9,0,9,0,1,
5e7a2ccd69a7770604dfb352,SCR,2024-06-24_13h49.21.635,LearnStrategy,2023.2.3,MacIntel,59.24170616,5,2,11,,,,,,,,3,13,,,,,,,,,,,,,1,3.535,0,,,,,,-0.344444444,-0.241111111,1,0,0,3.535,Andesite_rect,10,0,10,0,1,
5e7a2ccd69a7770604dfb352,SCR,2024-06-24_13h49.21.635,LearnStrategy,2023.2.3,MacIntel,59.24170616,5,2,12,,,,,,,,1,11,,,,,,,,,,,,,3,1.185,0,,,,,,0.104444444,-0.247777778,1,0,0,1.185,Diorite_rect,11,0,11,0,1,
5e7a2ccd69a7770604dfb352,SCR,2024-06-24_13h49.21.635,LearnStrategy,2023.2.3,MacIntel,59.24170616,5,2,13,,,,,,,,4,10,,,,,,,,,,,,,6,1.8,0,,,,,,-0.093333333,-0.386666667,1,0,0,1.8,Pegmatite_rect,12,0,12,0,1,
5e7a2ccd69a7770604dfb352,SCR,2024-06-24_13h49.21.635,LearnStrategy,2023.2.3,MacIntel,59.24170616,5,2,14,,,,,,,,2,14,,,,,,,,,,,,,8,1.498,0,,,,,,0.375555556,-0.38,1,0,0,1.498,Pumice_rect,13,0,13,0,1,
5e7a2ccd69a7770604dfb352,SCR,2024-06-24_13h49.21.635,LearnStrategy,2023.2.3,MacIntel,59.24170616,5,2,15,,,,,,,,2,02,,,,,,,,,,,,,4,0.913,0,,,,,,0.382222222,-0.27,1,0,0,0.913,Gabbro_rect,14,0,14,0,1,
5e7a2ccd69a7770604dfb352,SCR,2024-06-24_13h49.21.635,LearnStrategy,2023.2.3,MacIntel,59.24170616,5,2,16,,,,,,,,5,10,,,,,,,,,,,,,5,1.104,1,,,,,,-0.396666667,-0.386666667,1,0,0,1.104,Obsidian_rect,15,0,15,0,1,
5e7a2ccd69a7770604dfb352,SCR,2024-06-24_13h49.21.635,LearnStrategy,2023.2.3,MacIntel,59.24170616,6,1,1,-0.533333333,0.42,1,0,0,0.805,Andesite_10,1,10,6,1,0.805,3,07,-0.415555556,-0.241111111,1,0,0,1.98,Andesite_rect,1,1.98,1,0,0,0,0,1,,,,,,,,,,,,,
5e7a2ccd69a7770604dfb352,SCR,2024-06-24_13h49.21.635,LearnStrategy,2023.2.3,MacIntel,59.24170616,6,1,2,0.223333333,0.253333333,1,0,0,0.832,Diorite_07,3,07,5,6,0.832,7,02,0.156666667,-0.252222222,1,0,0,0.804,Diorite_rect,3,0.804,1,1,0,1,0,1,,,,,,,,,,,,,
5e7a2ccd69a7770604dfb352,SCR,2024-06-24_13h49.21.635,LearnStrategy,2023.2.3,MacIntel,59.24170616,6,1,3,-0.066666667,0.387777778,1,0,0,0.842,Diorite_16,3,16,6,4,0.842,4,08,0.105555556,-0.24,1,0,0,0.765,Diorite_rect,3,0.765,1,2,0,2,0,1,,,,,,,,,,,,,
5e7a2ccd69a7770604dfb352,SCR,2024-06-24_13h49.21.635,LearnStrategy,2023.2.3,MacIntel,59.24170616,6,1,4,-0.201111111,-0.228888889,1,0,0,1.296,Diorite_11,3,11,2,3,1.296,2,12,0.12,-0.271111111,1,0,0,0.797,Diorite_rect,3,0.797,1,3,0,3,0,1,,,,,,,,,,,,,
5e7a2ccd69a7770604dfb352,SCR,2024-06-24_13h49.21.635,LearnStrategy,2023.2.3,MacIntel,59.24170616,6,1,5,0.412222222,-0.116666667,1,0,0,0.976,Andesite_09,1,09,3,7,0.976,1,16,-0.396666667,-0.241111111,1,0,0,1.26,Andesite_rect,1,1.26,1,4,0,4,0,1,,,,,,,,,,,,,
5e7a2ccd69a7770604dfb352,SCR,2024-06-24_13h49.21.635,LearnStrategy,2023.2.3,MacIntel,59.24170616,6,1,6,-0.058888889,-0.097777778,1,0,0,4.954,Obsidian_05,5,05,3,4,4.954,8,10,-0.14,-0.42,1,0,0,1.233,Pegmatite_rect,6,1.233,0,5,0,5,0,1,,,,,,,,,,,,,
5e7a2ccd69a7770604dfb352,SCR,2024-06-24_13h49.21.635,LearnStrategy,2023.2.3,MacIntel,59.24170616,6,1,7,-0.065555556,-0.265555556,1,0,0,1.704,Pegmatite_16,6,16,2,4,1.704,4,12,-0.074444444,-0.391111111,1,0,0,1.327,Pegmatite_rect,6,1.327,1,6,0,6,0,1,,,,,,,,,,,,,
5e7a2ccd69a7770604dfb352,SCR,2024-06-24_13h49.21.635,LearnStrategy,2023.2.3,MacIntel,59.24170616,6,1,8,-0.535555556,0.414444444,1,0,0,3.045,Andesite_10,1,10,6,1,3.045,7,15,-0.366666667,-0.241111111,1,0,0,1.652,Andesite_rect,1,1.652,1,7,0,7,0,1,,,,,,,,,,,,,
5e7a2ccd69a7770604dfb352,SCR,2024-06-24_13h49.21.635,LearnStrategy,2023.2.3,MacIntel,59.24170616,6,1,9,0.554444444,-0.118888889,1,0,0,1.014,Pumice_08,8,08,3,8,1.014,1,16,-0.098888889,-0.245555556,1,0,0,1.114,Basalt_rect,2,1.114,0,8,0,8,0,1,,,,,,,,,,,,,
5e7a2ccd69a7770604dfb352,SCR,2024-06-24_13h49.21.635,LearnStrategy,2023.2.3,MacIntel,59.24170616,6,1,10,0.434444444,-0.445555556,1,0,0,1.3,Andesite_07,1,07,1,7,1.3,4,01,-0.407777778,-0.254444444,1,0,0,1.482,Andesite_rect,1,1.482,1,9,0,9,0,1,,,,,,,,,,,,,
5e7a2ccd69a7770604dfb352,SCR,2024-06-24_13h49.21.635,LearnStrategy,2023.2.3,MacIntel,59.24170616,6,1,11,0.033333333,-0.404444444,1,0,0,1.219,Diorite_06,3,06,1,5,1.219,6,16,0.105555556,-0.242222222,1,0,0,1.777,Diorite_rect,3,1.777,1,10,0,10,0,1,,,,,,,,,,,,,
5e7a2ccd69a7770604dfb352,SCR,2024-06-24_13h49.21.635,LearnStrategy,2023.2.3,MacIntel,59.24170616,6,1,12,-0.077777778,0.072222222,1,0,0,0.816,Diorite_10,3,10,4,4,0.816,4,12,0.076666667,-0.25,1,0,0,1.013,Diorite_rect,3,1.013,1,11,0,11,0,1,,,,,,,,,,,,,
5e7a2ccd69a7770604dfb352,SCR,2024-06-24_13h49.21.635,LearnStrategy,2023.2.3,MacIntel,59.24170616,6,1,13,0.215555556,0.087777778,1,0,0,1.079,Peridotite_04,7,04,4,6,1.079,3,07,-0.125555556,-0.39,1,0,0,1.381,Pegmatite_rect,6,1.381,0,12,0,12,0,1,,,,,,,,,,,,,
5e7a2ccd69a7770604dfb352,SCR,2024-06-24_13h49.21.635,LearnStrategy,2023.2.3,MacIntel,59.24170616,6,1,14,0.094444444,-0.105555556,1,0,0,1.159,Basalt_10,2,10,3,5,1.159,2,16,-0.096666667,-0.248888889,1,0,0,1.387,Basalt_rect,2,1.387,1,13,0,13,0,1,,,,,,,,,,,,,
5e7a2ccd69a7770604dfb352,SCR,2024-06-24_13h49.21.635,LearnStrategy,2023.2.3,MacIntel,59.24170616,6,1,15,0.404444444,0.056666667,1,0,0,0.987,Basalt_01,2,01,4,7,0.987,6,12,-0.106666667,-0.261111111,1,0,0,1.489,Basalt_rect,2,1.489,1,14,0,14,0,1,,,,,,,,,,,,,
5e7a2ccd69a7770604dfb352,SCR,2024-06-24_13h49.21.635,LearnStrategy,2023.2.3,MacIntel,59.24170616,6,1,16,0.552222222,0.361111111,1,0,0,1.085,Gabbro_08,4,08,6,8,1.085,2,10,0.361111111,-0.26,1,0,0,2.011,Gabbro_rect,4,2.011,1,15,0,15,0,1,,,,,,,,,,,,,
5e7a2ccd69a7770604dfb352,SCR,2024-06-24_13h49.21.635,LearnStrategy,2023.2.3,MacIntel,59.24170616,6,2,1,,,,,,,,6,11,,,,,,,,,,,,,7,5.544,0,,,,,,0.126666667,-0.394444444,1,0,0,5.544,Peridotite_rect,0,0,0,0,1,
5e7a2ccd69a7770604dfb352,SCR,2024-06-24_13h49.21.635,LearnStrategy,2023.2.3,MacIntel,59.24170616,6,2,2,,,,,,,,8,14,,,,,,,,,,,,,8,1.986,1,,,,,,0.415555556,-0.397777778,1,0,0,1.986,Pumice_rect,1,0,1,0,1,
5e7a2ccd69a7770604dfb352,SCR,2024-06-24_13h49.21.635,LearnStrategy,2023.2.3,MacIntel,59.24170616,6,2,3,,,,,,,,7,16,,,,,,,,,,,,,6,2.034,0,,,,,,-0.09,-0.407777778,1,0,0,2.034,Pegmatite_rect,2,0,2,0,1,
5e7a2ccd69a7770604dfb352,SCR,2024-06-24_13h49.21.635,LearnStrategy,2023.2.3,MacIntel,59.24170616,6,2,4,,,,,,,,8,09,,,,,,,,,,,,,8,1.15,1,,,,,,0.352222222,-0.392222222,1,0,0,1.15,Pumice_rect,3,0,3,0,1,
5e7a2ccd69a7770604dfb352,SCR,2024-06-24_13h49.21.635,LearnStrategy,2023.2.3,MacIntel,59.24170616,6,2,5,,,,,,,,3,02,,,,,,,,,,,,,3,3.944,1,,,,,,0.13,-0.252222222,1,0,0,3.944,Diorite_rect,4,0,4,0,1,
5e7a2ccd69a7770604dfb352,SCR,2024-06-24_13h49.21.635,LearnStrategy,2023.2.3,MacIntel,59.24170616,6,2,6,,,,,,,,2,04,,,,,,,,,,,,,4,2.722,0,,,,,,0.403333333,-0.244444444,1,0,0,2.722,Gabbro_rect,5,0,5,0,1,
5e7a2ccd69a7770604dfb352,SCR,2024-06-24_13h49.21.635,LearnStrategy,2023.2.3,MacIntel,59.24170616,6,2,7,,,,,,,,6,06,,,,,,,,,,,,,7,3.389,0,,,,,,0.138888889,-0.397777778,1,0,0,3.389,Peridotite_rect,6,0,6,0,1,
5e7a2ccd69a7770604dfb352,SCR,2024-06-24_13h49.21.635,LearnStrategy,2023.2.3,MacIntel,59.24170616,6,2,8,,,,,,,,2,09,,,,,,,,,,,,,2,3.227,1,,,,,,-0.098888889,-0.268888889,1,0,0,3.227,Basalt_rect,7,0,7,0,1,
5e7a2ccd69a7770604dfb352,SCR,2024-06-24_13h49.21.635,LearnStrategy,2023.2.3,MacIntel,59.24170616,6,2,9,,,,,,,,1,02,,,,,,,,,,,,,1,2.217,1,,,,,,-0.392222222,-0.236666667,1,0,0,2.217,Andesite_rect,8,0,8,0,1,
5e7a2ccd69a7770604dfb352,SCR,2024-06-24_13h49.21.635,LearnStrategy,2023.2.3,MacIntel,59.24170616,6,2,10,,,,,,,,4,16,,,,,,,,,,,,,2,4.13,0,,,,,,-0.132222222,-0.265555556,1,0,0,4.13,Basalt_rect,9,0,9,0,1,
5e7a2ccd69a7770604dfb352,SCR,2024-06-24_13h49.21.635,LearnStrategy,2023.2.3,MacIntel,59.24170616,6,2,11,,,,,,,,5,16,,,,,,,,,,,,,5,2.064,1,,,,,,-0.383333333,-0.402222222,1,0,0,2.064,Obsidian_rect,10,0,10,0,1,
5e7a2ccd69a7770604dfb352,SCR,2024-06-24_13h49.21.635,LearnStrategy,2023.2.3,MacIntel,59.24170616,6,2,12,,,,,,,,5,08,,,,,,,,,,,,,5,0.763,1,,,,,,-0.383333333,-0.402222222,1,0,0,0.763,Obsidian_rect,11,0,11,0,1,
5e7a2ccd69a7770604dfb352,SCR,2024-06-24_13h49.21.635,LearnStrategy,2023.2.3,MacIntel,59.24170616,6,2,13,,,,,,,,4,14,,,,,,,,,,,,,2,2.273,0,,,,,,-0.138888889,-0.271111111,1,0,0,2.273,Basalt_rect,12,0,12,0,1,
5e7a2ccd69a7770604dfb352,SCR,2024-06-24_13h49.21.635,LearnStrategy,2023.2.3,MacIntel,59.24170616,6,2,14,,,,,,,,1,03,,,,,,,,,,,,,1,1.439,1,,,,,,-0.444444444,-0.237777778,1,0,0,1.439,Andesite_rect,13,0,13,0,1,
5e7a2ccd69a7770604dfb352,SCR,2024-06-24_13h49.21.635,LearnStrategy,2023.2.3,MacIntel,59.24170616,6,2,15,,,,,,,,7,05,,,,,,,,,,,,,6,2.091,0,,,,,,-0.152222222,-0.397777778,1,0,0,2.091,Pegmatite_rect,14,0,14,0,1,
5e7a2ccd69a7770604dfb352,SCR,2024-06-24_13h49.21.635,LearnStrategy,2023.2.3,MacIntel,59.24170616,6,2,16,,,,,,,,3,09,,,,,,,,,,,,,3,1.286,1,,,,,,0.12,-0.236666667,1,0,0,1.286,Diorite_rect,15,0,15,0,1,
5e7a2ccd69a7770604dfb352,SCR,2024-06-24_13h49.21.635,LearnStrategy,2023.2.3,MacIntel,59.24170616,7,1,1,-0.374444444,-0.123333333,1,0,0,3.701,Basalt_08,2,08,3,2,3.701,6,12,-0.103333333,-0.267777778,1,0,0,1.532,Basalt_rect,2,1.532,1,0,0,0,0,1,,,,,,,,,,,,,
5e7a2ccd69a7770604dfb352,SCR,2024-06-24_13h49.21.635,LearnStrategy,2023.2.3,MacIntel,59.24170616,7,1,2,0.106666667,0.231111111,1,0,0,1.006,Gabbro_11,4,11,5,5,1.006,7,04,-0.098888889,-0.258888889,1,0,0,1.136,Basalt_rect,2,1.136,0,1,0,1,0,1,,,,,,,,,,,,,
5e7a2ccd69a7770604dfb352,SCR,2024-06-24_13h49.21.635,LearnStrategy,2023.2.3,MacIntel,59.24170616,7,1,3,0.437777778,0.102222222,1,0,0,1.123,Basalt_01,2,01,4,7,1.123,6,10,-0.062222222,-0.256666667,1,0,0,1.461,Basalt_rect,2,1.461,1,2,0,2,0,1,,,,,,,,,,,,,
5e7a2ccd69a7770604dfb352,SCR,2024-06-24_13h49.21.635,LearnStrategy,2023.2.3,MacIntel,59.24170616,7,1,4,0.541111111,0.398888889,1,0,0,1.071,Gabbro_08,4,08,6,8,1.071,7,15,0.362222222,-0.262222222,1,0,0,1.354,Gabbro_rect,4,1.354,1,3,0,3,0,1,,,,,,,,,,,,,
5e7a2ccd69a7770604dfb352,SCR,2024-06-24_13h49.21.635,LearnStrategy,2023.2.3,MacIntel,59.24170616,7,1,5,0.406666667,0.09,1,0,0,1.068,Basalt_01,2,01,4,7,1.068,4,12,-0.098888889,-0.254444444,1,0,0,1.04,Basalt_rect,2,1.04,1,4,0,4,0,1,,,,,,,,,,,,,
5e7a2ccd69a7770604dfb352,SCR,2024-06-24_13h49.21.635,LearnStrategy,2023.2.3,MacIntel,59.24170616,7,1,6,-0.397777778,-0.115555556,1,0,0,0.919,Basalt_08,2,08,3,2,0.919,4,09,-0.137777778,-0.253333333,1,0,0,0.979,Basalt_rect,2,0.979,1,5,0,5,0,1,,,,,,,,,,,,,
5e7a2ccd69a7770604dfb352,SCR,2024-06-24_13h49.21.635,LearnStrategy,2023.2.3,MacIntel,59.24170616,7,1,7,-0.378888889,-0.263333333,1,0,0,0.986,Basalt_12,2,12,2,2,0.986,6,12,0.335555556,-0.391111111,1,0,0,1.431,Pumice_rect,8,1.431,0,6,0,6,0,1,,,,,,,,,,,,,
5e7a2ccd69a7770604dfb352,SCR,2024-06-24_13h49.21.635,LearnStrategy,2023.2.3,MacIntel,59.24170616,7,1,8,-0.558888889,-0.408888889,1,0,0,0.799,Gabbro_12,4,12,1,1,0.799,2,12,0.368888889,-0.256666667,1,0,0,1.771,Gabbro_rect,4,1.771,1,7,0,7,0,1,,,,,,,,,,,,,
5e7a2ccd69a7770604dfb352,SCR,2024-06-24_13h49.21.635,LearnStrategy,2023.2.3,MacIntel,59.24170616,7,1,9,0.386666667,-0.092222222,1,0,0,0.946,Andesite_09,1,09,3,7,0.946,4,09,-0.417777778,-0.256666667,1,0,0,1.758,Andesite_rect,1,1.758,1,8,0,8,0,1,,,,,,,,,,,,,
5e7a2ccd69a7770604dfb352,SCR,2024-06-24_13h49.21.635,LearnStrategy,2023.2.3,MacIntel,59.24170616,7,1,10,0.58,-0.111111111,1,0,0,0.849,Pumice_08,8,08,3,8,0.849,1,01,0.397777778,-0.382222222,1,0,0,1.166,Pumice_rect,8,1.166,1,9,0,9,0,1,,,,,,,,,,,,,
5e7a2ccd69a7770604dfb352,SCR,2024-06-24_13h49.21.635,LearnStrategy,2023.2.3,MacIntel,59.24170616,7,1,11,0.372222222,-0.263333333,1,0,0,1.25,Gabbro_15,4,15,2,7,1.25,1,07,-0.11,-0.256666667,1,0,0,2.911,Basalt_rect,2,2.911,0,10,0,10,0,1,,,,,,,,,,,,,
5e7a2ccd69a7770604dfb352,SCR,2024-06-24_13h49.21.635,LearnStrategy,2023.2.3,MacIntel,59.24170616,7,1,12,0.431111111,-0.083333333,1,0,0,0.947,Andesite_09,1,09,3,7,0.947,2,12,-0.354444444,-0.265555556,1,0,0,1.612,Andesite_rect,1,1.612,1,11,0,11,0,1,,,,,,,,,,,,,
5e7a2ccd69a7770604dfb352,SCR,2024-06-24_13h49.21.635,LearnStrategy,2023.2.3,MacIntel,59.24170616,7,1,13,0.555555556,-0.105555556,1,0,0,0.839,Pumice_08,8,08,3,8,0.839,4,15,0.381111111,-0.39,1,0,0,1.495,Pumice_rect,8,1.495,1,12,0,12,0,1,,,,,,,,,,,,,
5e7a2ccd69a7770604dfb352,SCR,2024-06-24_13h49.21.635,LearnStrategy,2023.2.3,MacIntel,59.24170616,7,1,14,-0.225555556,-0.404444444,1,0,0,1.243,Pegmatite_07,6,07,1,3,1.243,7,02,-0.168888889,-0.412222222,1,0,0,0.794,Pegmatite_rect,6,0.794,1,13,0,13,0,1,,,,,,,,,,,,,
5e7a2ccd69a7770604dfb352,SCR,2024-06-24_13h49.21.635,LearnStrategy,2023.2.3,MacIntel,59.24170616,7,1,15,-0.402222222,-0.41,1,0,0,0.952,Pegmatite_03,6,03,1,2,0.952,3,14,0.112222222,-0.418888889,1,0,0,0.805,Peridotite_rect,7,0.805,0,14,0,14,0,1,,,,,,,,,,,,,
5e7a2ccd69a7770604dfb352,SCR,2024-06-24_13h49.21.635,LearnStrategy,2023.2.3,MacIntel,59.24170616,7,1,16,-0.074444444,-0.246666667,1,0,0,1.737,Pegmatite_16,6,16,2,4,1.737,2,16,0.121111111,-0.388888889,1,0,0,1.024,Peridotite_rect,7,1.024,0,15,0,15,0,1,,,,,,,,,,,,,
5e7a2ccd69a7770604dfb352,SCR,2024-06-24_13h49.21.635,LearnStrategy,2023.2.3,MacIntel,59.24170616,7,2,1,,,,,,,,8,05,,,,,,,,,,,,,8,1.313,1,,,,,,0.387777778,-0.405555556,1,0,0,1.313,Pumice_rect,0,0,0,0,1,
5e7a2ccd69a7770604dfb352,SCR,2024-06-24_13h49.21.635,LearnStrategy,2023.2.3,MacIntel,59.24170616,7,2,2,,,,,,,,6,13,,,,,,,,,,,,,6,1.536,1,,,,,,-0.095555556,-0.403333333,1,0,0,1.536,Pegmatite_rect,1,0,1,0,1,
5e7a2ccd69a7770604dfb352,SCR,2024-06-24_13h49.21.635,LearnStrategy,2023.2.3,MacIntel,59.24170616,7,2,3,,,,,,,,6,11,,,,,,,,,,,,,6,3.193,1,,,,,,-0.158888889,-0.398888889,1,0,0,3.193,Pegmatite_rect,2,0,2,0,1,
5e7a2ccd69a7770604dfb352,SCR,2024-06-24_13h49.21.635,LearnStrategy,2023.2.3,MacIntel,59.24170616,7,2,4,,,,,,,,3,13,,,,,,,,,,,,,3,1.279,1,,,,,,0.116666667,-0.247777778,1,0,0,1.279,Diorite_rect,3,0,3,0,1,
5e7a2ccd69a7770604dfb352,SCR,2024-06-24_13h49.21.635,LearnStrategy,2023.2.3,MacIntel,59.24170616,7,2,5,,,,,,,,3,12,,,,,,,,,,,,,3,0.785,1,,,,,,0.116666667,-0.247777778,1,0,0,0.785,Diorite_rect,4,0,4,0,1,
5e7a2ccd69a7770604dfb352,SCR,2024-06-24_13h49.21.635,LearnStrategy,2023.2.3,MacIntel,59.24170616,7,2,6,,,,,,,,2,14,,,,,,,,,,,,,4,4.498,0,,,,,,0.382222222,-0.235555556,1,0,0,4.498,Gabbro_rect,5,0,5,0,1,
5e7a2ccd69a7770604dfb352,SCR,2024-06-24_13h49.21.635,LearnStrategy,2023.2.3,MacIntel,59.24170616,7,2,7,,,,,,,,1,11,,,,,,,,,,,,,1,1.045,1,,,,,,-0.393333333,-0.262222222,1,0,0,1.045,Andesite_rect,6,0,6,0,1,
5e7a2ccd69a7770604dfb352,SCR,2024-06-24_13h49.21.635,LearnStrategy,2023.2.3,MacIntel,59.24170616,7,2,8,,,,,,,,1,03,,,,,,,,,,,,,1,0.957,1,,,,,,-0.387777778,-0.234444444,1,0,0,0.957,Andesite_rect,7,0,7,0,1,
5e7a2ccd69a7770604dfb352,SCR,2024-06-24_13h49.21.635,LearnStrategy,2023.2.3,MacIntel,59.24170616,7,2,9,,,,,,,,7,16,,,,,,,,,,,,,2,4.115,0,,,,,,-0.128888889,-0.248888889,1,0,0,4.115,Basalt_rect,8,0,8,0,1,
5e7a2ccd69a7770604dfb352,SCR,2024-06-24_13h49.21.635,LearnStrategy,2023.2.3,MacIntel,59.24170616,7,2,10,,,,,,,,4,13,,,,,,,,,,,,,4,4.024,1,,,,,,0.416666667,-0.243333333,1,0,0,4.024,Gabbro_rect,9,0,9,0,1,
5e7a2ccd69a7770604dfb352,SCR,2024-06-24_13h49.21.635,LearnStrategy,2023.2.3,MacIntel,59.24170616,7,2,11,,,,,,,,5,04,,,,,,,,,,,,,5,1.057,1,,,,,,-0.355555556,-0.385555556,1,0,0,1.057,Obsidian_rect,10,0,10,0,1,
5e7a2ccd69a7770604dfb352,SCR,2024-06-24_13h49.21.635,LearnStrategy,2023.2.3,MacIntel,59.24170616,7,2,12,,,,,,,,7,14,,,,,,,,,,,,,6,2.844,0,,,,,,-0.144444444,-0.402222222,1,0,0,2.844,Pegmatite_rect,11,0,11,0,1,
5e7a2ccd69a7770604dfb352,SCR,2024-06-24_13h49.21.635,LearnStrategy,2023.2.3,MacIntel,59.24170616,7,2,13,,,,,,,,4,05,,,,,,,,,,,,,4,3.261,1,,,,,,0.368888889,-0.247777778,1,0,0,3.261,Gabbro_rect,12,0,12,0,1,
5e7a2ccd69a7770604dfb352,SCR,2024-06-24_13h49.21.635,LearnStrategy,2023.2.3,MacIntel,59.24170616,7,2,14,,,,,,,,5,08,,,,,,,,,,,,,5,1.033,1,,,,,,-0.463333333,-0.388888889,1,0,0,1.033,Obsidian_rect,13,0,13,0,1,
5e7a2ccd69a7770604dfb352,SCR,2024-06-24_13h49.21.635,LearnStrategy,2023.2.3,MacIntel,59.24170616,7,2,15,,,,,,,,8,06,,,,,,,,,,,,,8,1.886,1,,,,,,0.381111111,-0.391111111,1,0,0,1.886,Pumice_rect,14,0,14,0,1,
5e7a2ccd69a7770604dfb352,SCR,2024-06-24_13h49.21.635,LearnStrategy,2023.2.3,MacIntel,59.24170616,7,2,16,,,,,,,,2,09,,,,,,,,,,,,,2,1.548,1,,,,,,-0.09,-0.257777778,1,0,0,1.548,Basalt_rect,15,0,15,0,1,
5e7a2ccd69a7770604dfb352,SCR,2024-06-24_13h49.21.635,LearnStrategy,2023.2.3,MacIntel,59.24170616,8,1,1,-0.52,-0.096666667,1,0,0,1.282,Pegmatite_12,6,12,3,1,1.282,7,02,0.054444444,-0.404444444,1,0,0,2.363,Peridotite_rect,7,2.363,0,0,0,0,0,1,,,,,,,,,,,,,
5e7a2ccd69a7770604dfb352,SCR,2024-06-24_13h49.21.635,LearnStrategy,2023.2.3,MacIntel,59.24170616,8,1,2,-0.243333333,0.227777778,1,0,0,1.916,Pegmatite_10,6,10,5,3,1.916,7,08,-0.087777778,-0.404444444,1,0,0,1.081,Pegmatite_rect,6,1.081,1,1,0,1,0,1,,,,,,,,,,,,,
5e7a2ccd69a7770604dfb352,SCR,2024-06-24_13h49.21.635,LearnStrategy,2023.2.3,MacIntel,59.24170616,8,1,3,-0.062222222,-0.404444444,1,0,0,2.049,Obsidian_06,5,06,1,4,2.049,6,12,-0.363333333,-0.381111111,1,0,0,1.406,Obsidian_rect,5,1.406,1,2,0,2,0,1,,,,,,,,,,,,,
5e7a2ccd69a7770604dfb352,SCR,2024-06-24_13h49.21.635,LearnStrategy,2023.2.3,MacIntel,59.24170616,8,1,4,-0.386666667,-0.42,1,0,0,1.266,Pegmatite_03,6,03,1,2,1.266,4,08,0.133333333,-0.396666667,1,0,0,1.11,Peridotite_rect,7,1.11,0,3,0,3,0,1,,,,,,,,,,,,,
5e7a2ccd69a7770604dfb352,SCR,2024-06-24_13h49.21.635,LearnStrategy,2023.2.3,MacIntel,59.24170616,8,1,5,0.26,0.39,1,0,0,1.336,Pegmatite_15,6,15,6,6,1.336,8,03,-0.057777778,-0.398888889,1,0,0,1.167,Pegmatite_rect,6,1.167,1,4,0,4,0,1,,,,,,,,,,,,,
5e7a2ccd69a7770604dfb352,SCR,2024-06-24_13h49.21.635,LearnStrategy,2023.2.3,MacIntel,59.24170616,8,1,6,0.067777778,0.107777778,1,0,0,2.268,Obsidian_14,5,14,4,5,2.268,4,01,-0.305555556,-0.378888889,1,0,0,1.775,Obsidian_rect,5,1.775,1,5,0,5,0,1,,,,,,,,,,,,,
5e7a2ccd69a7770604dfb352,SCR,2024-06-24_13h49.21.635,LearnStrategy,2023.2.3,MacIntel,59.24170616,8,1,7,0.246666667,0.074444444,1,0,0,1.376,Peridotite_04,7,04,4,6,1.376,2,06,0.156666667,-0.412222222,1,0,0,0.999,Peridotite_rect,7,0.999,1,6,0,6,0,1,,,,,,,,,,,,,
5e7a2ccd69a7770604dfb352,SCR,2024-06-24_13h49.21.635,LearnStrategy,2023.2.3,MacIntel,59.24170616,8,1,8,-0.06,-0.097777778,1,0,0,1.169,Obsidian_05,5,05,3,4,1.169,5,07,0.082222222,-0.401111111,1,0,0,0.89,Peridotite_rect,7,0.89,0,7,0,7,0,1,,,,,,,,,,,,,
5e7a2ccd69a7770604dfb352,SCR,2024-06-24_13h49.21.635,LearnStrategy,2023.2.3,MacIntel,59.24170616,8,1,9,-0.054444444,-0.242222222,1,0,0,1.272,Pegmatite_16,6,16,2,4,1.272,7,07,0.115555556,-0.395555556,1,0,0,0.933,Peridotite_rect,7,0.933,0,8,0,8,0,1,,,,,,,,,,,,,
5e7a2ccd69a7770604dfb352,SCR,2024-06-24_13h49.21.635,LearnStrategy,2023.2.3,MacIntel,59.24170616,8,1,10,-0.34,-0.414444444,1,0,0,1.68,Pegmatite_03,6,03,1,2,1.68,4,08,-0.127777778,-0.394444444,1,0,0,1.036,Pegmatite_rect,6,1.036,1,9,0,9,0,1,,,,,,,,,,,,,
5e7a2ccd69a7770604dfb352,SCR,2024-06-24_13h49.21.635,LearnStrategy,2023.2.3,MacIntel,59.24170616,8,1,11,0.534444444,-0.246666667,1,0,0,1.409,Pumice_16,8,16,2,8,1.409,1,16,0.433333333,-0.394444444,1,0,0,0.756,Pumice_rect,8,0.756,1,10,0,10,0,1,,,,,,,,,,,,,
5e7a2ccd69a7770604dfb352,SCR,2024-06-24_13h49.21.635,LearnStrategy,2023.2.3,MacIntel,59.24170616,8,1,12,0.075555556,0.233333333,1,0,0,1.019,Gabbro_11,4,11,5,5,1.019,6,16,-0.137777778,-0.252222222,1,0,0,1.617,Basalt_rect,2,1.617,0,11,0,11,0,1,,,,,,,,,,,,,
5e7a2ccd69a7770604dfb352,SCR,2024-06-24_13h49.21.635,LearnStrategy,2023.2.3,MacIntel,59.24170616,8,1,13,-0.228888889,0.105555556,1,0,0,0.639,Basalt_06,2,06,4,3,0.639,7,10,-0.098888889,-0.27,1,0,0,1.088,Basalt_rect,2,1.088,1,12,0,12,0,1,,,,,,,,,,,,,
5e7a2ccd69a7770604dfb352,SCR,2024-06-24_13h49.21.635,LearnStrategy,2023.2.3,MacIntel,59.24170616,8,1,14,-0.535555556,0.276666667,1,0,0,2.035,Pumice_03,8,03,5,1,2.035,2,16,0.298888889,-0.391111111,1,0,0,1.05,Pumice_rect,8,1.05,1,13,0,13,0,1,,,,,,,,,,,,,
5e7a2ccd69a7770604dfb352,SCR,2024-06-24_13h49.21.635,LearnStrategy,2023.2.3,MacIntel,59.24170616,8,1,15,-0.541111111,0.421111111,1,0,0,0.795,Andesite_10,1,10,6,1,0.795,2,16,-0.395555556,-0.247777778,1,0,0,1.171,Andesite_rect,1,1.171,1,14,0,14,0,1,,,,,,,,,,,,,
5e7a2ccd69a7770604dfb352,SCR,2024-06-24_13h49.21.635,LearnStrategy,2023.2.3,MacIntel,59.24170616,8,1,16,0.221111111,0.421111111,1,0,0,1.301,Pegmatite_15,6,15,6,6,1.301,3,10,-0.104444444,-0.392222222,1,0,0,1.802,Pegmatite_rect,6,1.802,1,15,0,15,0,1,,,,,,,,,,,,,
5e7a2ccd69a7770604dfb352,SCR,2024-06-24_13h49.21.635,LearnStrategy,2023.2.3,MacIntel,59.24170616,8,2,1,,,,,,,,4,14,,,,,,,,,,,,,4,2.708,1,,,,,,0.373333333,-0.243333333,1,0,0,2.708,Gabbro_rect,0,0,0,0,1,
5e7a2ccd69a7770604dfb352,SCR,2024-06-24_13h49.21.635,LearnStrategy,2023.2.3,MacIntel,59.24170616,8,2,2,,,,,,,,4,03,,,,,,,,,,,,,4,4.833,1,,,,,,0.365555556,-0.246666667,1,0,0,4.833,Gabbro_rect,1,0,1,0,1,
5e7a2ccd69a7770604dfb352,SCR,2024-06-24_13h49.21.635,LearnStrategy,2023.2.3,MacIntel,59.24170616,8,2,3,,,,,,,,3,08,,,,,,,,,,,,,3,1.522,1,,,,,,0.086666667,-0.248888889,1,0,0,1.522,Diorite_rect,2,0,2,0,1,
5e7a2ccd69a7770604dfb352,SCR,2024-06-24_13h49.21.635,LearnStrategy,2023.2.3,MacIntel,59.24170616,8,2,4,,,,,,,,5,12,,,,,,,,,,,,,5,1.165,1,,,,,,-0.434444444,-0.394444444,1,0,0,1.165,Obsidian_rect,3,0,3,0,1,
5e7a2ccd69a7770604dfb352,SCR,2024-06-24_13h49.21.635,LearnStrategy,2023.2.3,MacIntel,59.24170616,8,2,5,,,,,,,,2,04,,,,,,,,,,,,,2,1.236,1,,,,,,-0.136666667,-0.255555556,1,0,0,1.236,Basalt_rect,4,0,4,0,1,
5e7a2ccd69a7770604dfb352,SCR,2024-06-24_13h49.21.635,LearnStrategy,2023.2.3,MacIntel,59.24170616,8,2,6,,,,,,,,6,05,,,,,,,,,,,,,6,1.73,1,,,,,,-0.133333333,-0.408888889,1,0,0,1.73,Pegmatite_rect,5,0,5,0,1,
5e7a2ccd69a7770604dfb352,SCR,2024-06-24_13h49.21.635,LearnStrategy,2023.2.3,MacIntel,59.24170616,8,2,7,,,,,,,,8,02,,,,,,,,,,,,,8,1.259,1,,,,,,0.371111111,-0.405555556,1,0,0,1.259,Pumice_rect,6,0,6,0,1,
5e7a2ccd69a7770604dfb352,SCR,2024-06-24_13h49.21.635,LearnStrategy,2023.2.3,MacIntel,59.24170616,8,2,8,,,,,,,,7,13,,,,,,,,,,,,,7,1.233,1,,,,,,0.106666667,-0.39,1,0,0,1.233,Peridotite_rect,7,0,7,0,1,
5e7a2ccd69a7770604dfb352,SCR,2024-06-24_13h49.21.635,LearnStrategy,2023.2.3,MacIntel,59.24170616,8,2,9,,,,,,,,1,14,,,,,,,,,,,,,1,1.59,1,,,,,,-0.387777778,-0.251111111,1,0,0,1.59,Andesite_rect,8,0,8,0,1,
5e7a2ccd69a7770604dfb352,SCR,2024-06-24_13h49.21.635,LearnStrategy,2023.2.3,MacIntel,59.24170616,8,2,10,,,,,,,,3,02,,,,,,,,,,,,,3,1.223,1,,,,,,0.118888889,-0.257777778,1,0,0,1.223,Diorite_rect,9,0,9,0,1,
5e7a2ccd69a7770604dfb352,SCR,2024-06-24_13h49.21.635,LearnStrategy,2023.2.3,MacIntel,59.24170616,8,2,11,,,,,,,,1,04,,,,,,,,,,,,,3,1.26,0,,,,,,0.118888889,-0.257777778,1,0,0,1.26,Diorite_rect,10,0,10,0,1,
5e7a2ccd69a7770604dfb352,SCR,2024-06-24_13h49.21.635,LearnStrategy,2023.2.3,MacIntel,59.24170616,8,2,12,,,,,,,,5,10,,,,,,,,,,,,,5,1.19,1,,,,,,-0.422222222,-0.406666667,1,0,0,1.19,Obsidian_rect,11,0,11,0,1,
5e7a2ccd69a7770604dfb352,SCR,2024-06-24_13h49.21.635,LearnStrategy,2023.2.3,MacIntel,59.24170616,8,2,13,,,,,,,,7,12,,,,,,,,,,,,,3,1.928,0,,,,,,0.117777778,-0.248888889,1,0,0,1.928,Diorite_rect,12,0,12,0,1,
5e7a2ccd69a7770604dfb352,SCR,2024-06-24_13h49.21.635,LearnStrategy,2023.2.3,MacIntel,59.24170616,8,2,14,,,,,,,,8,09,,,,,,,,,,,,,8,1.029,1,,,,,,0.402222222,-0.388888889,1,0,0,1.029,Pumice_rect,13,0,13,0,1,
5e7a2ccd69a7770604dfb352,SCR,2024-06-24_13h49.21.635,LearnStrategy,2023.2.3,MacIntel,59.24170616,8,2,15,,,,,,,,6,06,,,,,,,,,,,,,7,6.562,0,,,,,,0.116666667,-0.378888889,1,0,0,6.562,Peridotite_rect,14,0,14,0,1,
5e7a2ccd69a7770604dfb352,SCR,2024-06-24_13h49.21.635,LearnStrategy,2023.2.3,MacIntel,59.24170616,8,2,16,,,,,,,,2,11,,,,,,,,,,,,,2,3.315,1,,,,,,-0.097777778,-0.257777778,1,0,0,3.315,Basalt_rect,15,0,15,0,1,
5e7a2ccd69a7770604dfb352,SCR,2024-06-24_13h49.21.635,LearnStrategy,2023.2.3,MacIntel,59.24170616,9,1,1,-0.087777778,0.254444444,1,0,0,1.654,Gabbro_01,4,01,5,4,1.654,7,04,0.436666667,-0.252222222,1,0,0,2.208,Gabbro_rect,4,2.208,1,0,0,0,0,1,,,,,,,,,,,,,
5e7a2ccd69a7770604dfb352,SCR,2024-06-24_13h49.21.635,LearnStrategy,2023.2.3,MacIntel,59.24170616,9,1,2,0.25,0.24,1,0,0,1.104,Diorite_07,3,07,5,6,1.104,1,07,0.11,-0.244444444,1,0,0,1.985,Diorite_rect,3,1.985,1,1,0,1,0,1,,,,,,,,,,,,,
5e7a2ccd69a7770604dfb352,SCR,2024-06-24_13h49.21.635,LearnStrategy,2023.2.3,MacIntel,59.24170616,9,1,3,-0.387777778,0.123333333,1,0,0,0.958,Peridotite_15,7,15,4,2,0.958,2,16,0.165555556,-0.404444444,1,0,0,1.057,Peridotite_rect,7,1.057,1,2,0,2,0,1,,,,,,,,,,,,,
5e7a2ccd69a7770604dfb352,SCR,2024-06-24_13h49.21.635,LearnStrategy,2023.2.3,MacIntel,59.24170616,9,1,4,-0.238888889,-0.081111111,1,0,0,1.095,Basalt_16,2,16,3,3,1.095,7,08,-0.091111111,-0.256666667,1,0,0,1.163,Basalt_rect,2,1.163,1,3,0,3,0,1,,,,,,,,,,,,,
5e7a2ccd69a7770604dfb352,SCR,2024-06-24_13h49.21.635,LearnStrategy,2023.2.3,MacIntel,59.24170616,9,1,5,0.08,-0.088888889,1,0,0,0.744,Basalt_10,2,10,3,5,0.744,4,12,-0.078888889,-0.255555556,1,0,0,1.527,Basalt_rect,2,1.527,1,4,0,4,0,1,,,,,,,,,,,,,
5e7a2ccd69a7770604dfb352,SCR,2024-06-24_13h49.21.635,LearnStrategy,2023.2.3,MacIntel,59.24170616,9,1,6,0.431111111,-0.086666667,1,0,0,0.792,Andesite_09,1,09,3,7,0.792,7,02,-0.392222222,-0.262222222,1,0,0,1.585,Andesite_rect,1,1.585,1,5,0,5,0,1,,,,,,,,,,,,,
5e7a2ccd69a7770604dfb352,SCR,2024-06-24_13h49.21.635,LearnStrategy,2023.2.3,MacIntel,59.24170616,9,1,7,-0.546666667,-0.396666667,1,0,0,2.127,Gabbro_12,4,12,1,1,2.127,8,03,0.44,-0.252222222,1,0,0,1.025,Gabbro_rect,4,1.025,1,6,0,6,0,1,,,,,,,,,,,,,
5e7a2ccd69a7770604dfb352,SCR,2024-06-24_13h49.21.635,LearnStrategy,2023.2.3,MacIntel,59.24170616,9,1,8,-0.245555556,0.396666667,1,0,0,1.242,Peridotite_08,7,08,6,3,1.242,6,07,0.121111111,-0.411111111,1,0,0,3.048,Peridotite_rect,7,3.048,1,7,0,7,0,1,,,,,,,,,,,,,
5e7a2ccd69a7770604dfb352,SCR,2024-06-24_13h49.21.635,LearnStrategy,2023.2.3,MacIntel,59.24170616,9,1,9,0.39,0.424444444,1,0,0,1.824,Peridotite_02,7,02,6,7,1.824,4,08,0.132222222,-0.398888889,1,0,0,1.166,Peridotite_rect,7,1.166,1,8,0,8,0,1,,,,,,,,,,,,,
5e7a2ccd69a7770604dfb352,SCR,2024-06-24_13h49.21.635,LearnStrategy,2023.2.3,MacIntel,59.24170616,9,1,10,0.541111111,0.411111111,1,0,0,0.884,Gabbro_08,4,08,6,8,0.884,6,07,0.383333333,-0.23,1,0,0,1.044,Gabbro_rect,4,1.044,1,9,0,9,0,1,,,,,,,,,,,,,
5e7a2ccd69a7770604dfb352,SCR,2024-06-24_13h49.21.635,LearnStrategy,2023.2.3,MacIntel,59.24170616,9,1,11,-0.377777778,0.241111111,1,0,0,1.019,Peridotite_07,7,07,5,2,1.019,5,05,0.083333333,-0.394444444,1,0,0,1.508,Peridotite_rect,7,1.508,1,10,0,10,0,1,,,,,,,,,,,,,
5e7a2ccd69a7770604dfb352,SCR,2024-06-24_13h49.21.635,LearnStrategy,2023.2.3,MacIntel,59.24170616,9,1,12,-0.554444444,0.244444444,1,0,0,0.817,Pumice_03,8,03,5,1,0.817,6,16,0.35,-0.414444444,1,0,0,1.303,Pumice_rect,8,1.303,1,11,0,11,0,1,,,,,,,,,,,,,
5e7a2ccd69a7770604dfb352,SCR,2024-06-24_13h49.21.635,LearnStrategy,2023.2.3,MacIntel,59.24170616,9,1,13,0.391111111,0.086666667,1,0,0,3.084,Basalt_01,2,01,4,7,3.084,1,10,-0.12,-0.252222222,1,0,0,0.895,Basalt_rect,2,0.895,1,12,0,12,0,1,,,,,,,,,,,,,
5e7a2ccd69a7770604dfb352,SCR,2024-06-24_13h49.21.635,LearnStrategy,2023.2.3,MacIntel,59.24170616,9,1,14,0.405555556,-0.075555556,1,0,0,0.707,Andesite_09,1,09,3,7,0.707,3,10,-0.344444444,-0.23,1,0,0,1.366,Andesite_rect,1,1.366,1,13,0,13,0,1,,,,,,,,,,,,,
5e7a2ccd69a7770604dfb352,SCR,2024-06-24_13h49.21.635,LearnStrategy,2023.2.3,MacIntel,59.24170616,9,1,15,0.578888889,-0.101111111,1,0,0,0.79,Pumice_08,8,08,3,8,0.79,2,08,0.395555556,-0.401111111,1,0,0,2.074,Pumice_rect,8,2.074,1,14,0,14,0,1,,,,,,,,,,,,,
5e7a2ccd69a7770604dfb352,SCR,2024-06-24_13h49.21.635,LearnStrategy,2023.2.3,MacIntel,59.24170616,9,1,16,-0.421111111,-0.115555556,1,0,0,1.258,Basalt_08,2,08,3,2,1.258,7,04,-0.156666667,-0.24,1,0,0,1.141,Basalt_rect,2,1.141,1,15,0,15,0,1,,,,,,,,,,,,,
5e7a2ccd69a7770604dfb352,SCR,2024-06-24_13h49.21.635,LearnStrategy,2023.2.3,MacIntel,59.24170616,9,2,1,,,,,,,,3,15,,,,,,,,,,,,,3,2.139,1,,,,,,0.111111111,-0.236666667,1,0,0,2.139,Diorite_rect,0,0,0,0,1,
5e7a2ccd69a7770604dfb352,SCR,2024-06-24_13h49.21.635,LearnStrategy,2023.2.3,MacIntel,59.24170616,9,2,2,,,,,,,,2,02,,,,,,,,,,,,,4,2.489,0,,,,,,0.382222222,-0.244444444,1,0,0,2.489,Gabbro_rect,1,0,1,0,1,
5e7a2ccd69a7770604dfb352,SCR,2024-06-24_13h49.21.635,LearnStrategy,2023.2.3,MacIntel,59.24170616,9,2,3,,,,,,,,6,08,,,,,,,,,,,,,6,2.85,1,,,,,,-0.122222222,-0.405555556,1,0,0,2.85,Pegmatite_rect,2,0,2,0,1,
5e7a2ccd69a7770604dfb352,SCR,2024-06-24_13h49.21.635,LearnStrategy,2023.2.3,MacIntel,59.24170616,9,2,4,,,,,,,,4,16,,,,,,,,,,,,,2,1.399,0,,,,,,-0.11,-0.266666667,1,0,0,1.399,Basalt_rect,3,0,3,0,1,
5e7a2ccd69a7770604dfb352,SCR,2024-06-24_13h49.21.635,LearnStrategy,2023.2.3,MacIntel,59.24170616,9,2,5,,,,,,,,4,10,,,,,,,,,,,,,4,4.835,1,,,,,,0.418888889,-0.24,1,0,0,4.835,Gabbro_rect,4,0,4,0,1,
5e7a2ccd69a7770604dfb352,SCR,2024-06-24_13h49.21.635,LearnStrategy,2023.2.3,MacIntel,59.24170616,9,2,6,,,,,,,,5,09,,,,,,,,,,,,,5,1.076,1,,,,,,-0.372222222,-0.386666667,1,0,0,1.076,Obsidian_rect,5,0,5,0,1,
5e7a2ccd69a7770604dfb352,SCR,2024-06-24_13h49.21.635,LearnStrategy,2023.2.3,MacIntel,59.24170616,9,2,7,,,,,,,,1,06,,,,,,,,,,,,,1,1.258,1,,,,,,-0.378888889,-0.256666667,1,0,0,1.258,Andesite_rect,6,0,6,0,1,
5e7a2ccd69a7770604dfb352,SCR,2024-06-24_13h49.21.635,LearnStrategy,2023.2.3,MacIntel,59.24170616,9,2,8,,,,,,,,7,06,,,,,,,,,,,,,7,2.132,1,,,,,,0.107777778,-0.4,1,0,0,2.132,Peridotite_rect,7,0,7,0,1,
5e7a2ccd69a7770604dfb352,SCR,2024-06-24_13h49.21.635,LearnStrategy,2023.2.3,MacIntel,59.24170616,9,2,9,,,,,,,,3,09,,,,,,,,,,,,,3,1.433,1,,,,,,0.12,-0.232222222,1,0,0,1.433,Diorite_rect,8,0,8,0,1,
5e7a2ccd69a7770604dfb352,SCR,2024-06-24_13h49.21.635,LearnStrategy,2023.2.3,MacIntel,59.24170616,9,2,10,,,,,,,,6,09,,,,,,,,,,,,,6,1.398,1,,,,,,-0.088888889,-0.396666667,1,0,0,1.398,Pegmatite_rect,9,0,9,0,1,
5e7a2ccd69a7770604dfb352,SCR,2024-06-24_13h49.21.635,LearnStrategy,2023.2.3,MacIntel,59.24170616,9,2,11,,,,,,,,5,16,,,,,,,,,,,,,5,1.154,1,,,,,,-0.361111111,-0.381111111,1,0,0,1.154,Obsidian_rect,10,0,10,0,1,
5e7a2ccd69a7770604dfb352,SCR,2024-06-24_13h49.21.635,LearnStrategy,2023.2.3,MacIntel,59.24170616,9,2,12,,,,,,,,8,14,,,,,,,,,,,,,8,1.133,1,,,,,,0.376666667,-0.388888889,1,0,0,1.133,Pumice_rect,11,0,11,0,1,
5e7a2ccd69a7770604dfb352,SCR,2024-06-24_13h49.21.635,LearnStrategy,2023.2.3,MacIntel,59.24170616,9,2,13,,,,,,,,7,05,,,,,,,,,,,,,7,1.843,1,,,,,,0.141111111,-0.407777778,1,0,0,1.843,Peridotite_rect,12,0,12,0,1,
5e7a2ccd69a7770604dfb352,SCR,2024-06-24_13h49.21.635,LearnStrategy,2023.2.3,MacIntel,59.24170616,9,2,14,,,,,,,,1,02,,,,,,,,,,,,,1,1.487,1,,,,,,-0.402222222,-0.245555556,1,0,0,1.487,Andesite_rect,13,0,13,0,1,
5e7a2ccd69a7770604dfb352,SCR,2024-06-24_13h49.21.635,LearnStrategy,2023.2.3,MacIntel,59.24170616,9,2,15,,,,,,,,8,04,,,,,,,,,,,,,8,1.221,1,,,,,,0.376666667,-0.398888889,1,0,0,1.221,Pumice_rect,14,0,14,0,1,
5e7a2ccd69a7770604dfb352,SCR,2024-06-24_13h49.21.635,LearnStrategy,2023.2.3,MacIntel,59.24170616,9,2,16,,,,,,,,2,05,,,,,,,,,,,,,2,4.322,1,,,,,,-0.154444444,-0.232222222,1,0,0,4.322,Basalt_rect,15,0,15,0,1,
5e7a2ccd69a7770604dfb352,SCR,2024-06-24_13h49.21.635,LearnStrategy,2023.2.3,MacIntel,59.24170616,,,,,,,,,,,,,,,,,,,,,,,,,,,,,,,,,,,,,,,,,,,,,1
5e7a2ccd69a7770604dfb352,SCR,2024-06-24_13h49.21.635,LearnStrategy,2023.2.3,MacIntel,59.24170616,,,,,,,,,,,,,,,,,,,,,,,,,,,,,,,,,,,,,,,,,,,,,
5e7a2ccd69a7770604dfb352,SCR,2024-06-24_13h49.21.635,LearnStrategy,2023.2.3,MacIntel,59.24170616,,,,,,,,,,,4,12,1,1,,,,,,,,,,,,,,,,,,,,,,,,,,,,,,,
5e7a2ccd69a7770604dfb352,SCR,2024-06-24_13h49.21.635,LearnStrategy,2023.2.3,MacIntel,59.24170616,,,,,,,,,,,6,03,1,2,,,,,,,,,,,,,,,,,,,,,,,,,,,,,,,
5e7a2ccd69a7770604dfb352,SCR,2024-06-24_13h49.21.635,LearnStrategy,2023.2.3,MacIntel,59.24170616,,,,,,,,,,,6,07,1,3,,,,,,,,,,,,,,,,,,,,,,,,,,,,,,,
5e7a2ccd69a7770604dfb352,SCR,2024-06-24_13h49.21.635,LearnStrategy,2023.2.3,MacIntel,59.24170616,,,,,,,,,,,5,06,1,4,,,,,,,,,,,,,,,,,,,,,,,,,,,,,,,
5e7a2ccd69a7770604dfb352,SCR,2024-06-24_13h49.21.635,LearnStrategy,2023.2.3,MacIntel,59.24170616,,,,,,,,,,,3,06,1,5,,,,,,,,,,,,,,,,,,,,,,,,,,,,,,,
5e7a2ccd69a7770604dfb352,SCR,2024-06-24_13h49.21.635,LearnStrategy,2023.2.3,MacIntel,59.24170616,,,,,,,,,,,4,09,1,6,,,,,,,,,,,,,,,,,,,,,,,,,,,,,,,
5e7a2ccd69a7770604dfb352,SCR,2024-06-24_13h49.21.635,LearnStrategy,2023.2.3,MacIntel,59.24170616,,,,,,,,,,,1,07,1,7,,,,,,,,,,,,,,,,,,,,,,,,,,,,,,,
5e7a2ccd69a7770604dfb352,SCR,2024-06-24_13h49.21.635,LearnStrategy,2023.2.3,MacIntel,59.24170616,,,,,,,,,,,5,02,1,8,,,,,,,,,,,,,,,,,,,,,,,,,,,,,,,
5e7a2ccd69a7770604dfb352,SCR,2024-06-24_13h49.21.635,LearnStrategy,2023.2.3,MacIntel,59.24170616,,,,,,,,,,,8,15,2,1,,,,,,,,,,,,,,,,,,,,,,,,,,,,,,,
5e7a2ccd69a7770604dfb352,SCR,2024-06-24_13h49.21.635,LearnStrategy,2023.2.3,MacIntel,59.24170616,,,,,,,,,,,2,12,2,2,,,,,,,,,,,,,,,,,,,,,,,,,,,,,,,
5e7a2ccd69a7770604dfb352,SCR,2024-06-24_13h49.21.635,LearnStrategy,2023.2.3,MacIntel,59.24170616,,,,,,,,,,,3,11,2,3,,,,,,,,,,,,,,,,,,,,,,,,,,,,,,,
5e7a2ccd69a7770604dfb352,SCR,2024-06-24_13h49.21.635,LearnStrategy,2023.2.3,MacIntel,59.24170616,,,,,,,,,,,6,16,2,4,,,,,,,,,,,,,,,,,,,,,,,,,,,,,,,
5e7a2ccd69a7770604dfb352,SCR,2024-06-24_13h49.21.635,LearnStrategy,2023.2.3,MacIntel,59.24170616,,,,,,,,,,,7,10,2,5,,,,,,,,,,,,,,,,,,,,,,,,,,,,,,,
5e7a2ccd69a7770604dfb352,SCR,2024-06-24_13h49.21.635,LearnStrategy,2023.2.3,MacIntel,59.24170616,,,,,,,,,,,3,14,2,6,,,,,,,,,,,,,,,,,,,,,,,,,,,,,,,
5e7a2ccd69a7770604dfb352,SCR,2024-06-24_13h49.21.635,LearnStrategy,2023.2.3,MacIntel,59.24170616,,,,,,,,,,,4,15,2,7,,,,,,,,,,,,,,,,,,,,,,,,,,,,,,,
5e7a2ccd69a7770604dfb352,SCR,2024-06-24_13h49.21.635,LearnStrategy,2023.2.3,MacIntel,59.24170616,,,,,,,,,,,8,16,2,8,,,,,,,,,,,,,,,,,,,,,,,,,,,,,,,
5e7a2ccd69a7770604dfb352,SCR,2024-06-24_13h49.21.635,LearnStrategy,2023.2.3,MacIntel,59.24170616,,,,,,,,,,,6,12,3,1,,,,,,,,,,,,,,,,,,,,,,,,,,,,,,,
5e7a2ccd69a7770604dfb352,SCR,2024-06-24_13h49.21.635,LearnStrategy,2023.2.3,MacIntel,59.24170616,,,,,,,,,,,2,08,3,2,,,,,,,,,,,,,,,,,,,,,,,,,,,,,,,
5e7a2ccd69a7770604dfb352,SCR,2024-06-24_13h49.21.635,LearnStrategy,2023.2.3,MacIntel,59.24170616,,,,,,,,,,,2,16,3,3,,,,,,,,,,,,,,,,,,,,,,,,,,,,,,,
5e7a2ccd69a7770604dfb352,SCR,2024-06-24_13h49.21.635,LearnStrategy,2023.2.3,MacIntel,59.24170616,,,,,,,,,,,5,05,3,4,,,,,,,,,,,,,,,,,,,,,,,,,,,,,,,
5e7a2ccd69a7770604dfb352,SCR,2024-06-24_13h49.21.635,LearnStrategy,2023.2.3,MacIntel,59.24170616,,,,,,,,,,,2,10,3,5,,,,,,,,,,,,,,,,,,,,,,,,,,,,,,,
5e7a2ccd69a7770604dfb352,SCR,2024-06-24_13h49.21.635,LearnStrategy,2023.2.3,MacIntel,59.24170616,,,,,,,,,,,8,10,3,6,,,,,,,,,,,,,,,,,,,,,,,,,,,,,,,
5e7a2ccd69a7770604dfb352,SCR,2024-06-24_13h49.21.635,LearnStrategy,2023.2.3,MacIntel,59.24170616,,,,,,,,,,,1,09,3,7,,,,,,,,,,,,,,,,,,,,,,,,,,,,,,,
5e7a2ccd69a7770604dfb352,SCR,2024-06-24_13h49.21.635,LearnStrategy,2023.2.3,MacIntel,59.24170616,,,,,,,,,,,8,08,3,8,,,,,,,,,,,,,,,,,,,,,,,,,,,,,,,
5e7a2ccd69a7770604dfb352,SCR,2024-06-24_13h49.21.635,LearnStrategy,2023.2.3,MacIntel,59.24170616,,,,,,,,,,,5,07,4,1,,,,,,,,,,,,,,,,,,,,,,,,,,,,,,,
5e7a2ccd69a7770604dfb352,SCR,2024-06-24_13h49.21.635,LearnStrategy,2023.2.3,MacIntel,59.24170616,,,,,,,,,,,7,15,4,2,,,,,,,,,,,,,,,,,,,,,,,,,,,,,,,
5e7a2ccd69a7770604dfb352,SCR,2024-06-24_13h49.21.635,LearnStrategy,2023.2.3,MacIntel,59.24170616,,,,,,,,,,,2,06,4,3,,,,,,,,,,,,,,,,,,,,,,,,,,,,,,,
5e7a2ccd69a7770604dfb352,SCR,2024-06-24_13h49.21.635,LearnStrategy,2023.2.3,MacIntel,59.24170616,,,,,,,,,,,3,10,4,4,,,,,,,,,,,,,,,,,,,,,,,,,,,,,,,
5e7a2ccd69a7770604dfb352,SCR,2024-06-24_13h49.21.635,LearnStrategy,2023.2.3,MacIntel,59.24170616,,,,,,,,,,,5,14,4,5,,,,,,,,,,,,,,,,,,,,,,,,,,,,,,,
5e7a2ccd69a7770604dfb352,SCR,2024-06-24_13h49.21.635,LearnStrategy,2023.2.3,MacIntel,59.24170616,,,,,,,,,,,7,04,4,6,,,,,,,,,,,,,,,,,,,,,,,,,,,,,,,
5e7a2ccd69a7770604dfb352,SCR,2024-06-24_13h49.21.635,LearnStrategy,2023.2.3,MacIntel,59.24170616,,,,,,,,,,,2,01,4,7,,,,,,,,,,,,,,,,,,,,,,,,,,,,,,,
5e7a2ccd69a7770604dfb352,SCR,2024-06-24_13h49.21.635,LearnStrategy,2023.2.3,MacIntel,59.24170616,,,,,,,,,,,1,01,4,8,,,,,,,,,,,,,,,,,,,,,,,,,,,,,,,
5e7a2ccd69a7770604dfb352,SCR,2024-06-24_13h49.21.635,LearnStrategy,2023.2.3,MacIntel,59.24170616,,,,,,,,,,,8,03,5,1,,,,,,,,,,,,,,,,,,,,,,,,,,,,,,,
5e7a2ccd69a7770604dfb352,SCR,2024-06-24_13h49.21.635,LearnStrategy,2023.2.3,MacIntel,59.24170616,,,,,,,,,,,7,07,5,2,,,,,,,,,,,,,,,,,,,,,,,,,,,,,,,
5e7a2ccd69a7770604dfb352,SCR,2024-06-24_13h49.21.635,LearnStrategy,2023.2.3,MacIntel,59.24170616,,,,,,,,,,,6,10,5,3,,,,,,,,,,,,,,,,,,,,,,,,,,,,,,,
5e7a2ccd69a7770604dfb352,SCR,2024-06-24_13h49.21.635,LearnStrategy,2023.2.3,MacIntel,59.24170616,,,,,,,,,,,4,01,5,4,,,,,,,,,,,,,,,,,,,,,,,,,,,,,,,
5e7a2ccd69a7770604dfb352,SCR,2024-06-24_13h49.21.635,LearnStrategy,2023.2.3,MacIntel,59.24170616,,,,,,,,,,,4,11,5,5,,,,,,,,,,,,,,,,,,,,,,,,,,,,,,,
5e7a2ccd69a7770604dfb352,SCR,2024-06-24_13h49.21.635,LearnStrategy,2023.2.3,MacIntel,59.24170616,,,,,,,,,,,3,07,5,6,,,,,,,,,,,,,,,,,,,,,,,,,,,,,,,
5e7a2ccd69a7770604dfb352,SCR,2024-06-24_13h49.21.635,LearnStrategy,2023.2.3,MacIntel,59.24170616,,,,,,,,,,,1,05,5,7,,,,,,,,,,,,,,,,,,,,,,,,,,,,,,,
5e7a2ccd69a7770604dfb352,SCR,2024-06-24_13h49.21.635,LearnStrategy,2023.2.3,MacIntel,59.24170616,,,,,,,,,,,1,16,5,8,,,,,,,,,,,,,,,,,,,,,,,,,,,,,,,
5e7a2ccd69a7770604dfb352,SCR,2024-06-24_13h49.21.635,LearnStrategy,2023.2.3,MacIntel,59.24170616,,,,,,,,,,,1,10,6,1,,,,,,,,,,,,,,,,,,,,,,,,,,,,,,,
5e7a2ccd69a7770604dfb352,SCR,2024-06-24_13h49.21.635,LearnStrategy,2023.2.3,MacIntel,59.24170616,,,,,,,,,,,8,13,6,2,,,,,,,,,,,,,,,,,,,,,,,,,,,,,,,
5e7a2ccd69a7770604dfb352,SCR,2024-06-24_13h49.21.635,LearnStrategy,2023.2.3,MacIntel,59.24170616,,,,,,,,,,,7,08,6,3,,,,,,,,,,,,,,,,,,,,,,,,,,,,,,,
5e7a2ccd69a7770604dfb352,SCR,2024-06-24_13h49.21.635,LearnStrategy,2023.2.3,MacIntel,59.24170616,,,,,,,,,,,3,16,6,4,,,,,,,,,,,,,,,,,,,,,,,,,,,,,,,
5e7a2ccd69a7770604dfb352,SCR,2024-06-24_13h49.21.635,LearnStrategy,2023.2.3,MacIntel,59.24170616,,,,,,,,,,,5,11,6,5,,,,,,,,,,,,,,,,,,,,,,,,,,,,,,,
5e7a2ccd69a7770604dfb352,SCR,2024-06-24_13h49.21.635,LearnStrategy,2023.2.3,MacIntel,59.24170616,,,,,,,,,,,6,15,6,6,,,,,,,,,,,,,,,,,,,,,,,,,,,,,,,
5e7a2ccd69a7770604dfb352,SCR,2024-06-24_13h49.21.635,LearnStrategy,2023.2.3,MacIntel,59.24170616,,,,,,,,,,,7,02,6,7,,,,,,,,,,,,,,,,,,,,,,,,,,,,,,,
5e7a2ccd69a7770604dfb352,SCR,2024-06-24_13h49.21.635,LearnStrategy,2023.2.3,MacIntel,59.24170616,,,,,,,,,,,4,08,6,8,,,,,,,,,,,,,,,,,,,,,,,,,,,,,,,