participant,condition,date,expName,psychopyVersion,OS,frameRate,block,phase,trial,learn_mouse_2.x,learn_mouse_2.y,learn_mouse_2.leftButton,learn_mouse_2.midButton,learn_mouse_2.rightButton,learn_mouse_2.time,learn_mouse_2.clicked_name,cat,token,row,col,t_select,cat_mouse_l.x,cat_mouse_l.y,cat_mouse_l.leftButton,cat_mouse_l.midButton,cat_mouse_l.rightButton,cat_mouse_l.time,cat_mouse_l.clicked_name,resp,t_resp,corr,train_trials.thisRepN,train_trials.thisTrialN,train_trials.thisN,train_trials.thisIndex,train_trials.ran,cat_mouse_t.x,cat_mouse_t.y,cat_mouse_t.leftButton,cat_mouse_t.midButton,cat_mouse_t.rightButton,cat_mouse_t.time,cat_mouse_t.clicked_name,test_trials.thisRepN,test_trials.thisTrialN,test_trials.thisN,test_trials.thisIndex,test_trials.ran
5e7d11401ae8680ca60eed9e,TCR,2024-06-10_14h49.56.077,LearnStrategy,2023.2.3,Linux x86_64,60.06366749,,,,,,,,,,,,,,,,,,,,,,,,,,,,,,,,,,,,,,,,,,
5e7d11401ae8680ca60eed9e,TCR,2024-06-10_14h49.56.077,LearnStrategy,2023.2.3,Linux x86_64,60.06366749,1,1,1,0.11377142,-0.017886233,1,0,0,4.3234,rock_grid_rect_2,2,09,-1,-1,4.323,0.173320957,-0.234565064,1,0,0,4.2016,Diorite_rect,3,4.202,0,0,0,0,0,1,,,,,,,,,,,,
5e7d11401ae8680ca60eed9e,TCR,2024-06-10_14h49.56.077,LearnStrategy,2023.2.3,Linux x86_64,60.06366749,1,1,2,0.184866343,0.006519877,1,0,0,2.1203,rock_grid_rect_2,1,16,-1,-1,2.12,0.378706444,-0.242898947,1,0,0,4.627,Gabbro_rect,4,4.627,0,1,0,1,0,1,,,,,,,,,,,,
5e7d11401ae8680ca60eed9e,TCR,2024-06-10_14h49.56.077,LearnStrategy,2023.2.3,Linux x86_64,60.06366749,1,1,3,0.147799712,0.016044194,1,0,0,1.5416,rock_grid_rect_2,7,07,-1,-1,1.542,0.35865401,-0.394097841,1,0,0,18.0571,Pumice_rect,8,18.057,0,2,0,2,0,1,,,,,,,,,,,,
5e7d11401ae8680ca60eed9e,TCR,2024-06-10_14h49.56.077,LearnStrategy,2023.2.3,Linux x86_64,60.06366749,1,1,4,0.173928624,-0.005980799,1,0,0,1.5367,rock_grid_rect_2,8,03,-1,-1,1.537,0.149622715,-0.241113072,1,0,0,4.4788,Diorite_rect,3,4.479,0,3,0,3,0,1,,,,,,,,,,,,
5e7d11401ae8680ca60eed9e,TCR,2024-06-10_14h49.56.077,LearnStrategy,2023.2.3,Linux x86_64,60.06366749,1,1,5,0.176359295,-0.003599732,1,0,0,1.602,rock_grid_rect_2,6,12,-1,-1,1.602,-0.073992254,-0.404217549,1,0,0,7.0126,Pegmatite_rect,6,7.013,1,4,0,4,0,1,,,,,,,,,,,,
5e7d11401ae8680ca60eed9e,TCR,2024-06-10_14h49.56.077,LearnStrategy,2023.2.3,Linux x86_64,60.06366749,1,1,6,0.180005102,-0.005980799,1,0,0,1.1046,rock_grid_rect_2,3,07,-1,-1,1.105,0.358046342,-0.228612397,1,0,0,9.4704,Gabbro_rect,4,9.47,0,5,0,5,0,1,,,,,,,,,,,,
5e7d11401ae8680ca60eed9e,TCR,2024-06-10_14h49.56.077,LearnStrategy,2023.2.3,Linux x86_64,60.06366749,1,1,7,0.175143959,-0.011338274,1,0,0,2.6664,rock_grid_rect_2,5,10,-1,-1,2.666,0.147799712,-0.264923941,1,0,0,175.7987,Diorite_rect,3,175.799,0,6,0,6,0,1,,,,,,,,,,,,
5e7d11401ae8680ca60eed9e,TCR,2024-06-10_14h49.56.077,LearnStrategy,2023.2.3,Linux x86_64,60.06366749,1,1,8,0.179397533,-0.008361916,1,0,0,163.2272,rock_grid_rect_2,1,07,-1,-1,163.227,0.096757125,-0.395883666,1,0,0,2.0903,Peridotite_rect,7,2.09,0,7,0,7,0,1,,,,,,,,,,,,
5e7d11401ae8680ca60eed9e,TCR,2024-06-10_14h49.56.077,LearnStrategy,2023.2.3,Linux x86_64,60.06366749,1,1,9,0.168459715,-0.010147691,1,0,0,0.8681,rock_grid_rect_2,4,16,-1,-1,0.868,0.356223339,-0.39052629,1,0,0,3.0655,Pumice_rect,8,3.066,0,8,0,8,0,1,,,,,,,,,,,,
5e7d11401ae8680ca60eed9e,TCR,2024-06-10_14h49.56.077,LearnStrategy,2023.2.3,Linux x86_64,60.06366749,1,1,10,0.180612769,-0.010742983,1,0,0,2.497,rock_grid_rect_2,4,09,-1,-1,2.497,0.178182198,-0.394693182,1,0,0,2.9966,Peridotite_rect,7,2.997,0,9,0,9,0,1,,,,,,,,,,,,
5e7d11401ae8680ca60eed9e,TCR,2024-06-10_14h49.56.077,LearnStrategy,2023.2.3,Linux x86_64,60.06366749,1,1,11,0.184866343,-0.010147691,1,0,0,1.2705,rock_grid_rect_2,6,08,-1,-1,1.271,0.116201991,-0.246470548,1,0,0,4.1548,Diorite_rect,3,4.155,0,10,0,10,0,1,,,,,,,,,,,,
5e7d11401ae8680ca60eed9e,TCR,2024-06-10_14h49.56.077,LearnStrategy,2023.2.3,Linux x86_64,60.06366749,1,1,12,0.050575878,0.002948227,1,0,0,2.7253,rock_grid_rect_2,8,13,-1,-1,2.725,-0.067308109,-0.410765508,1,0,0,2.5868,Pegmatite_rect,6,2.587,0,11,0,11,0,1,,,,,,,,,,,,
5e7d11401ae8680ca60eed9e,TCR,2024-06-10_14h49.56.077,LearnStrategy,2023.2.3,Linux x86_64,60.06366749,1,1,13,0.207349349,-0.019672058,1,0,0,1.5769,rock_grid_rect_2,7,15,-1,-1,1.577,0.165421477,-0.242898947,1,0,0,0.7897,Diorite_rect,3,0.79,0,12,0,12,0,1,,,,,,,,,,,,
5e7d11401ae8680ca60eed9e,TCR,2024-06-10_14h49.56.077,LearnStrategy,2023.2.3,Linux x86_64,60.06366749,1,1,14,0.16967505,-0.007171382,1,0,0,2.0285,rock_grid_rect_2,3,09,-1,-1,2.028,-0.097899894,-0.237305433,1,0,0,8.4748,Basalt_rect,2,8.475,0,13,0,13,0,1,,,,,,,,,,,,
5e7d11401ae8680ca60eed9e,TCR,2024-06-10_14h49.56.077,LearnStrategy,2023.2.3,Linux x86_64,60.06366749,1,1,15,0.186081579,0.005924635,1,0,0,537.7715,rock_grid_rect_2,2,05,-1,-1,537.772,-0.062007245,-0.246712551,1,0,0,2.0593,Basalt_rect,2,2.059,1,14,0,14,0,1,,,,,,,,,,,,
5e7d11401ae8680ca60eed9e,TCR,2024-06-10_14h49.56.077,LearnStrategy,2023.2.3,Linux x86_64,60.06366749,1,1,16,-0.04887077,-0.008594327,1,0,0,1.9692,rock_grid_rect_2,5,07,-1,-1,1.969,-0.368159142,-0.234666607,1,0,0,4.7593,Andesite_rect,1,4.759,0,15,0,15,0,1,,,,,,,,,,,,
5e7d11401ae8680ca60eed9e,TCR,2024-06-10_14h49.56.077,LearnStrategy,2023.2.3,Linux x86_64,60.06366749,1,2,1,,,,,,,,4,15,,,,,,,,,,,3,2.538,0,,,,,,0.155699193,-0.235755647,1,0,0,2.5383,Diorite_rect,0,0,0,0,1
5e7d11401ae8680ca60eed9e,TCR,2024-06-10_14h49.56.077,LearnStrategy,2023.2.3,Linux x86_64,60.06366749,1,2,2,,,,,,,,4,05,,,,,,,,,,,4,3.465,1,,,,,,0.348931626,-0.249446906,1,0,0,3.4646,Gabbro_rect,1,0,1,0,1
5e7d11401ae8680ca60eed9e,TCR,2024-06-10_14h49.56.077,LearnStrategy,2023.2.3,Linux x86_64,60.06366749,1,2,3,,,,,,,,6,10,,,,,,,,,,,3,0.718,0,,,,,,0.169067383,-0.246470548,1,0,0,0.7179,Diorite_rect,2,0,2,0,1
5e7d11401ae8680ca60eed9e,TCR,2024-06-10_14h49.56.077,LearnStrategy,2023.2.3,Linux x86_64,60.06366749,1,2,4,,,,,,,,1,11,,,,,,,,,,,7,0.499,0,,,,,,0.141723235,-0.388145223,1,0,0,0.4986,Peridotite_rect,3,0,3,0,1
5e7d11401ae8680ca60eed9e,TCR,2024-06-10_14h49.56.077,LearnStrategy,2023.2.3,Linux x86_64,60.06366749,1,2,5,,,,,,,,7,08,,,,,,,,,,,8,1.52,0,,,,,,0.347716291,-0.387549882,1,0,0,1.5199,Pumice_rect,4,0,4,0,1
5e7d11401ae8680ca60eed9e,TCR,2024-06-10_14h49.56.077,LearnStrategy,2023.2.3,Linux x86_64,60.06366749,1,2,6,,,,,,,,5,08,,,,,,,,,,,4,14.995,0,,,,,,0.377491109,-0.25063739,1,0,0,14.9949,Gabbro_rect,5,0,5,0,1
5e7d11401ae8680ca60eed9e,TCR,2024-06-10_14h49.56.077,LearnStrategy,2023.2.3,Linux x86_64,60.06366749,1,2,7,,,,,,,,2,08,,,,,,,,,,,3,1.278,0,,,,,,0.162990906,-0.239327247,1,0,0,1.2778,Diorite_rect,6,0,6,0,1
5e7d11401ae8680ca60eed9e,TCR,2024-06-10_14h49.56.077,LearnStrategy,2023.2.3,Linux x86_64,60.06366749,1,2,8,,,,,,,,8,09,,,,,,,,,,,8,3.281,1,,,,,,0.37992168,-0.404217549,1,0,0,3.2809,Pumice_rect,7,0,7,0,1
5e7d11401ae8680ca60eed9e,TCR,2024-06-10_14h49.56.077,LearnStrategy,2023.2.3,Linux x86_64,60.06366749,1,2,9,,,,,,,,8,14,,,,,,,,,,,8,0.967,1,,,,,,0.352577533,-0.37981134,1,0,0,0.9668,Pumice_rect,8,0,8,0,1
5e7d11401ae8680ca60eed9e,TCR,2024-06-10_14h49.56.077,LearnStrategy,2023.2.3,Linux x86_64,60.06366749,1,2,10,,,,,,,,2,10,,,,,,,,,,,2,3.095,1,,,,,,-0.137795414,-0.247661131,1,0,0,3.0949,Basalt_rect,9,0,9,0,1
5e7d11401ae8680ca60eed9e,TCR,2024-06-10_14h49.56.077,LearnStrategy,2023.2.3,Linux x86_64,60.06366749,1,2,11,,,,,,,,3,10,,,,,,,,,,,3,8.337,1,,,,,,0.145369141,-0.233969822,1,0,0,8.3374,Diorite_rect,10,0,10,0,1
5e7d11401ae8680ca60eed9e,TCR,2024-06-10_14h49.56.077,LearnStrategy,2023.2.3,Linux x86_64,60.06366749,1,2,12,,,,,,,,1,03,,,,,,,,,,,7,1.108,0,,,,,,0.146584477,-0.394693182,1,0,0,1.1077,Peridotite_rect,11,0,11,0,1
5e7d11401ae8680ca60eed9e,TCR,2024-06-10_14h49.56.077,LearnStrategy,2023.2.3,Linux x86_64,60.06366749,1,2,13,,,,,,,,3,14,,,,,,,,,,,4,1.3,0,,,,,,0.40908893,-0.232779289,1,0,0,1.3001,Gabbro_rect,12,0,12,0,1
5e7d11401ae8680ca60eed9e,TCR,2024-06-10_14h49.56.077,LearnStrategy,2023.2.3,Linux x86_64,60.06366749,1,2,14,,,,,,,,6,11,,,,,,,,,,,2,1.166,0,,,,,,-0.100728833,-0.230993463,1,0,0,1.1662,Basalt_rect,13,0,13,0,1
5e7d11401ae8680ca60eed9e,TCR,2024-06-10_14h49.56.077,LearnStrategy,2023.2.3,Linux x86_64,60.06366749,1,2,15,,,,,,,,7,14,,,,,,,,,,,6,0.654,0,,,,,,-0.09890588,-0.392907357,1,0,0,0.6544,Pegmatite_rect,14,0,14,0,1
5e7d11401ae8680ca60eed9e,TCR,2024-06-10_14h49.56.077,LearnStrategy,2023.2.3,Linux x86_64,60.06366749,1,2,16,,,,,,,,5,06,,,,,,,,,,,7,0.638,0,,,,,,0.074881787,-0.381597165,1,0,0,0.6378,Peridotite_rect,15,0,15,0,1
5e7d11401ae8680ca60eed9e,TCR,2024-06-10_14h49.56.077,LearnStrategy,2023.2.3,Linux x86_64,60.06366749,2,1,1,0.121063133,-0.004790315,1,0,0,1.2319,rock_grid_rect_2,6,09,-1,-1,1.232,-0.332850801,-0.421480359,1,0,0,4.5104,Obsidian_rect,5,4.51,0,0,0,0,0,1,,,,,,,,,,,,
5e7d11401ae8680ca60eed9e,TCR,2024-06-10_14h49.56.077,LearnStrategy,2023.2.3,Linux x86_64,60.06366749,2,1,2,0.145976809,-0.024434242,1,0,0,1.1629,rock_grid_rect_2,5,10,-1,-1,1.163,-0.114704741,-0.242898947,1,0,0,2.4605,Basalt_rect,2,2.46,0,1,0,1,0,1,,,,,,,,,,,,
5e7d11401ae8680ca60eed9e,TCR,2024-06-10_14h49.56.077,LearnStrategy,2023.2.3,Linux x86_64,60.06366749,2,1,3,0.175751627,-0.017886233,1,0,0,0.8524,rock_grid_rect_2,3,09,-1,-1,0.852,0.361692248,-0.256590157,1,0,0,5.9577,Gabbro_rect,4,5.958,0,2,0,2,0,1,,,,,,,,,,,,
5e7d11401ae8680ca60eed9e,TCR,2024-06-10_14h49.56.077,LearnStrategy,2023.2.3,Linux x86_64,60.06366749,2,1,4,0.144153806,0.005924635,1,0,0,1.0995,rock_grid_rect_2,1,09,-1,-1,1.1,-0.114704741,-0.245279964,1,0,0,2.2927,Basalt_rect,2,2.293,0,3,0,3,0,1,,,,,,,,,,,,
5e7d11401ae8680ca60eed9e,TCR,2024-06-10_14h49.56.077,LearnStrategy,2023.2.3,Linux x86_64,60.06366749,2,1,5,0.173320957,-0.007171382,1,0,0,0.8945,rock_grid_rect_2,7,07,-1,-1,0.895,-0.340750231,-0.402431724,1,0,0,11.3145,Obsidian_rect,5,11.314,0,4,0,4,0,1,,,,,,,,,,,,
5e7d11401ae8680ca60eed9e,TCR,2024-06-10_14h49.56.077,LearnStrategy,2023.2.3,Linux x86_64,60.06366749,2,1,6,0.166636812,-0.001218665,1,0,0,1.0178,rock_grid_rect_2,4,14,-1,-1,1.018,0.154483857,-0.252423265,1,0,0,1.01,Diorite_rect,3,1.01,0,5,0,5,0,1,,,,,,,,,,,,
5e7d11401ae8680ca60eed9e,TCR,2024-06-10_14h49.56.077,LearnStrategy,2023.2.3,Linux x86_64,60.06366749,2,1,7,0.159952667,-0.018481525,1,0,0,0.8466,rock_grid_rect_2,1,10,-1,-1,0.847,0.40665826,-0.240517831,1,0,0,1.0216,Gabbro_rect,4,1.022,0,6,0,6,0,1,,,,,,,,,,,,
5e7d11401ae8680ca60eed9e,TCR,2024-06-10_14h49.56.077,LearnStrategy,2023.2.3,Linux x86_64,60.06366749,2,1,8,0.170282718,-0.008361916,1,0,0,0.835,rock_grid_rect_2,4,09,-1,-1,0.835,0.399366447,-0.38338299,1,0,0,55.2345,Pumice_rect,8,55.235,0,7,0,7,0,1,,,,,,,,,,,,
5e7d11401ae8680ca60eed9e,TCR,2024-06-10_14h49.56.077,LearnStrategy,2023.2.3,Linux x86_64,60.06366749,2,1,9,0.04206873,0.016639486,1,0,0,1.7156,rock_grid_rect_2,6,16,-1,-1,1.716,0.4303566,-0.270876658,1,0,0,8.481,Gabbro_rect,4,8.481,0,8,0,8,0,1,,,,,,,,,,,,
5e7d11401ae8680ca60eed9e,TCR,2024-06-10_14h49.56.077,LearnStrategy,2023.2.3,Linux x86_64,60.06366749,2,1,10,0.144761474,0.016044194,1,0,0,2.3803,rock_grid_rect_2,7,15,-1,-1,2.38,-0.123819507,-0.412551333,1,0,0,0.8962,Pegmatite_rect,6,0.896,0,9,0,9,0,1,,,,,,,,,,,,
5e7d11401ae8680ca60eed9e,TCR,2024-06-10_14h49.56.077,LearnStrategy,2023.2.3,Linux x86_64,60.06366749,2,1,11,0.085819505,0.013663127,1,0,0,0.7711,rock_grid_rect_2,7,04,-1,-1,0.771,-0.090398832,-0.253018507,1,0,0,0.863,Basalt_rect,2,0.863,0,10,0,10,0,1,,,,,,,,,,,,
5e7d11401ae8680ca60eed9e,TCR,2024-06-10_14h49.56.077,LearnStrategy,2023.2.3,Linux x86_64,60.06366749,2,1,12,0.164206241,-0.007171382,1,0,0,0.6176,rock_grid_rect_2,2,02,-1,-1,0.618,0.193373391,-0.229207638,1,0,0,2.2942,Diorite_rect,3,2.294,0,11,0,11,0,1,,,,,,,,,,,,
5e7d11401ae8680ca60eed9e,TCR,2024-06-10_14h49.56.077,LearnStrategy,2023.2.3,Linux x86_64,60.06366749,2,1,13,0.203703442,0.023187445,1,0,0,1.2429,rock_grid_rect_2,6,07,-1,-1,1.243,0.130177849,-0.38338299,1,0,0,4.2855,Peridotite_rect,7,4.285,0,12,0,12,0,1,,,,,,,,,,,,
5e7d11401ae8680ca60eed9e,TCR,2024-06-10_14h49.56.077,LearnStrategy,2023.2.3,Linux x86_64,60.06366749,2,1,14,0.173320957,0.006519877,1,0,0,1.0611,rock_grid_rect_2,5,07,-1,-1,1.061,-0.130793618,-0.257486051,1,0,0,88.9676,Basalt_rect,2,88.968,0,13,0,13,0,1,,,,,,,,,,,,
5e7d11401ae8680ca60eed9e,TCR,2024-06-10_14h49.56.077,LearnStrategy,2023.2.3,Linux x86_64,60.06366749,2,1,15,-0.020226295,0.024570726,1,0,0,526.5035,rock_grid_rect_2,2,02,-1,-1,526.504,-0.113156396,-0.267517289,1,0,0,4.3655,Basalt_rect,2,4.365,1,14,0,14,0,1,,,,,,,,,,,,
5e7d11401ae8680ca60eed9e,TCR,2024-06-10_14h49.56.077,LearnStrategy,2023.2.3,Linux x86_64,60.06366749,2,1,16,0.06055433,-0.008078659,1,0,0,2.7744,rock_grid_rect_2,3,15,-1,-1,2.774,0.169961339,-0.237310801,1,0,0,72.956,Diorite_rect,3,72.956,1,15,0,15,0,1,,,,,,,,,,,,
5e7d11401ae8680ca60eed9e,TCR,2024-06-10_14h49.56.077,LearnStrategy,2023.2.3,Linux x86_64,60.06366749,2,2,1,,,,,,,,2,16,,,,,,,,,,,2,39.21,1,,,,,,-0.170440127,-0.268525015,1,0,0,39.2103,Basalt_rect,0,0,0,0,1
5e7d11401ae8680ca60eed9e,TCR,2024-06-10_14h49.56.077,LearnStrategy,2023.2.3,Linux x86_64,60.06366749,2,2,2,,,,,,,,7,06,,,,,,,,,,,3,2.259,0,,,,,,0.181452549,-0.237287142,1,0,0,2.2587,Diorite_rect,1,0,1,0,1
5e7d11401ae8680ca60eed9e,TCR,2024-06-10_14h49.56.077,LearnStrategy,2023.2.3,Linux x86_64,60.06366749,2,2,3,,,,,,,,2,06,,,,,,,,,,,2,2.196,1,,,,,,-0.040216701,-0.228311992,1,0,0,2.1964,Basalt_rect,2,0,2,0,1
5e7d11401ae8680ca60eed9e,TCR,2024-06-10_14h49.56.077,LearnStrategy,2023.2.3,Linux x86_64,60.06366749,2,2,4,,,,,,,,8,15,,,,,,,,,,,8,9.253,1,,,,,,0.348349009,-0.41224407,1,0,0,9.2531,Pumice_rect,3,0,3,0,1
5e7d11401ae8680ca60eed9e,TCR,2024-06-10_14h49.56.077,LearnStrategy,2023.2.3,Linux x86_64,60.06366749,2,2,5,,,,,,,,5,09,,,,,,,,,,,5,3.458,1,,,,,,-0.449059104,-0.399949661,1,0,0,3.4577,Obsidian_rect,4,0,4,0,1
5e7d11401ae8680ca60eed9e,TCR,2024-06-10_14h49.56.077,LearnStrategy,2023.2.3,Linux x86_64,60.06366749,2,2,6,,,,,,,,1,14,,,,,,,,,,,3,21.108,0,,,,,,0.163856531,-0.264925332,1,0,0,21.108,Diorite_rect,5,0,5,0,1
5e7d11401ae8680ca60eed9e,TCR,2024-06-10_14h49.56.077,LearnStrategy,2023.2.3,Linux x86_64,60.06366749,2,2,7,,,,,,,,6,06,,,,,,,,,,,1,47.686,0,,,,,,-0.392514505,-0.243376393,1,0,0,47.6857,Andesite_rect,6,0,6,0,1
5e7d11401ae8680ca60eed9e,TCR,2024-06-10_14h49.56.077,LearnStrategy,2023.2.3,Linux x86_64,60.06366749,2,2,8,,,,,,,,4,03,,,,,,,,,,,6,3.783,0,,,,,,-0.122302574,-0.402742069,1,0,0,3.7834,Pegmatite_rect,7,0,7,0,1
5e7d11401ae8680ca60eed9e,TCR,2024-06-10_14h49.56.077,LearnStrategy,2023.2.3,Linux x86_64,60.06366749,2,2,9,,,,,,,,3,13,,,,,,,,,,,6,1.171,0,,,,,,-0.122302574,-0.402742069,1,0,0,1.1713,Pegmatite_rect,8,0,8,0,1
5e7d11401ae8680ca60eed9e,TCR,2024-06-10_14h49.56.077,LearnStrategy,2023.2.3,Linux x86_64,60.06366749,2,2,10,,,,,,,,7,10,,,,,,,,,,,4,20.927,0,,,,,,0.364501058,-0.251735973,1,0,0,20.9266,Gabbro_rect,9,0,9,0,1
5e7d11401ae8680ca60eed9e,TCR,2024-06-10_14h49.56.077,LearnStrategy,2023.2.3,Linux x86_64,60.06366749,2,2,11,,,,,,,,3,02,,,,,,,,,,,3,2.436,1,,,,,,0.173773154,-0.265078765,1,0,0,2.4362,Diorite_rect,10,0,10,0,1
5e7d11401ae8680ca60eed9e,TCR,2024-06-10_14h49.56.077,LearnStrategy,2023.2.3,Linux x86_64,60.06366749,2,2,12,,,,,,,,8,08,,,,,,,,,,,8,3.598,1,,,,,,0.404030169,-0.400629696,1,0,0,3.5983,Pumice_rect,11,0,11,0,1
5e7d11401ae8680ca60eed9e,TCR,2024-06-10_14h49.56.077,LearnStrategy,2023.2.3,Linux x86_64,60.06366749,2,2,13,,,,,,,,1,02,,,,,,,,,,,3,14.594,0,,,,,,0.048395511,-0.262616285,1,0,0,14.5945,Diorite_rect,12,0,12,0,1
5e7d11401ae8680ca60eed9e,TCR,2024-06-10_14h49.56.077,LearnStrategy,2023.2.3,Linux x86_64,60.06366749,2,2,14,,,,,,,,5,16,,,,,,,,,,,5,1.782,1,,,,,,-0.475816286,-0.381910194,1,0,0,1.7815,Obsidian_rect,13,0,13,0,1
5e7d11401ae8680ca60eed9e,TCR,2024-06-10_14h49.56.077,LearnStrategy,2023.2.3,Linux x86_64,60.06366749,2,2,15,,,,,,,,4,13,,,,,,,,,,,3,2.637,0,,,,,,0.169142832,-0.249820374,1,0,0,2.6367,Diorite_rect,14,0,14,0,1
5e7d11401ae8680ca60eed9e,TCR,2024-06-10_14h49.56.077,LearnStrategy,2023.2.3,Linux x86_64,60.06366749,2,2,16,,,,,,,,6,05,,,,,,,,,,,3,1.52,0,,,,,,0.169142832,-0.249820374,1,0,0,1.5199,Diorite_rect,15,0,15,0,1
5e7d11401ae8680ca60eed9e,TCR,2024-06-10_14h49.56.077,LearnStrategy,2023.2.3,Linux x86_64,60.06366749,3,1,1,0.01141268,0.010193716,1,0,0,3.2043,rock_grid_rect_2,6,12,-1,-1,3.204,-0.096299858,-0.397270476,1,0,0,17.3752,Pegmatite_rect,6,17.375,1,0,0,0,0,1,,,,,,,,,,,,
5e7d11401ae8680ca60eed9e,TCR,2024-06-10_14h49.56.077,LearnStrategy,2023.2.3,Linux x86_64,60.06366749,3,1,2,-0.027229036,-0.013230165,1,0,0,1.9827,rock_grid_rect_2,1,04,-1,-1,1.983,0.161553398,-0.416626275,1,0,0,6.7808,Peridotite_rect,7,6.781,0,1,0,1,0,1,,,,,,,,,,,,
5e7d11401ae8680ca60eed9e,TCR,2024-06-10_14h49.56.077,LearnStrategy,2023.2.3,Linux x86_64,60.06366749,3,1,3,0.002591211,-0.018461395,1,0,0,2.0536,rock_grid_rect_2,6,08,-1,-1,2.054,-0.419243281,-0.385439994,1,0,0,14.8926,Obsidian_rect,5,14.893,0,2,0,2,0,1,,,,,,,,,,,,
5e7d11401ae8680ca60eed9e,TCR,2024-06-10_14h49.56.077,LearnStrategy,2023.2.3,Linux x86_64,60.06366749,3,1,4,-0.081057719,-0.005792127,1,0,0,2.8182,rock_grid_rect_2,4,08,-1,-1,2.818,-0.155996217,-0.408344579,1,0,0,2.6954,Pegmatite_rect,6,2.695,0,3,0,3,0,1,,,,,,,,,,,,
5e7d11401ae8680ca60eed9e,TCR,2024-06-10_14h49.56.077,LearnStrategy,2023.2.3,Linux x86_64,60.06366749,3,1,5,0.006268629,0.00361678,1,0,0,1.5675,rock_grid_rect_2,5,14,-1,-1,1.568,-0.350873668,-0.397665216,1,0,0,2.0896,Obsidian_rect,5,2.09,1,4,0,4,0,1,,,,,,,,,,,,
5e7d11401ae8680ca60eed9e,TCR,2024-06-10_14h49.56.077,LearnStrategy,2023.2.3,Linux x86_64,60.06366749,3,1,6,-0.001566436,-0.002930632,1,0,0,1.7613,rock_grid_rect_2,1,16,-1,-1,1.761,0.0455367,-0.4099136,1,0,0,5.2065,Peridotite_rect,7,5.207,0,5,0,5,0,1,,,,,,,,,,,,
5e7d11401ae8680ca60eed9e,TCR,2024-06-10_14h49.56.077,LearnStrategy,2023.2.3,Linux x86_64,60.06366749,3,1,7,0.043891733,0.011877302,1,0,0,3.332,rock_grid_rect_2,6,03,-1,-1,3.332,-0.352903236,-0.391716774,1,0,0,6.7415,Obsidian_rect,5,6.742,0,6,0,6,0,1,,,,,,,,,,,,
5e7d11401ae8680ca60eed9e,TCR,2024-06-10_14h49.56.077,LearnStrategy,2023.2.3,Linux x86_64,60.06366749,3,1,8,0.171497954,0.001757743,1,0,0,0.9699,rock_grid_rect_2,7,13,-1,-1,0.97,-0.113489455,-0.38338299,1,0,0,5.2374,Pegmatite_rect,6,5.237,0,7,0,7,0,1,,,,,,,,,,,,
5e7d11401ae8680ca60eed9e,TCR,2024-06-10_14h49.56.077,LearnStrategy,2023.2.3,Linux x86_64,60.06366749,3,1,9,0.16967505,-0.011933566,1,0,0,1.4292,rock_grid_rect_2,3,16,-1,-1,1.429,0.171497954,-0.232184047,1,0,0,16.3033,Diorite_rect,3,16.303,1,8,0,8,0,1,,,,,,,,,,,,
5e7d11401ae8680ca60eed9e,TCR,2024-06-10_14h49.56.077,LearnStrategy,2023.2.3,Linux x86_64,60.06366749,3,1,10,0.149622715,0.001757743,1,0,0,1.9962,rock_grid_rect_2,7,15,-1,-1,1.996,-0.078853446,-0.38338299,1,0,0,8.9344,Pegmatite_rect,6,8.934,0,9,0,9,0,1,,,,,,,,,,,,
5e7d11401ae8680ca60eed9e,TCR,2024-06-10_14h49.56.077,LearnStrategy,2023.2.3,Linux x86_64,60.06366749,3,1,11,0.136861994,0.001162451,1,0,0,0.8715,rock_grid_rect_2,4,09,-1,-1,0.872,-0.33042023,-0.236350889,1,0,0,2.49,Andesite_rect,1,2.49,0,10,0,10,0,1,,,,,,,,,,,,
5e7d11401ae8680ca60eed9e,TCR,2024-06-10_14h49.56.077,LearnStrategy,2023.2.3,Linux x86_64,60.06366749,3,1,12,0.153268522,-2.81318E-05,1,0,0,0.8103,rock_grid_rect_2,3,12,-1,-1,0.81,0.435217742,-0.253018507,1,0,0,1.5408,Gabbro_rect,4,1.541,0,11,0,11,0,1,,,,,,,,,,,,
5e7d11401ae8680ca60eed9e,TCR,2024-06-10_14h49.56.077,LearnStrategy,2023.2.3,Linux x86_64,60.06366749,3,1,13,0.152660954,-0.000623374,1,0,0,0.9276,rock_grid_rect_2,4,12,-1,-1,0.928,-0.116527694,-0.386359299,1,0,0,5.3419,Pegmatite_rect,6,5.342,0,12,0,12,0,1,,,,,,,,,,,,
5e7d11401ae8680ca60eed9e,TCR,2024-06-10_14h49.56.077,LearnStrategy,2023.2.3,Linux x86_64,60.06366749,3,1,14,0.122278468,-0.02026735,1,0,0,0.8088,rock_grid_rect_2,2,09,-1,-1,0.809,-0.306114222,-0.239327247,1,0,0,2.5395,Andesite_rect,1,2.54,0,13,0,13,0,1,,,,,,,,,,,,
5e7d11401ae8680ca60eed9e,TCR,2024-06-10_14h49.56.077,LearnStrategy,2023.2.3,Linux x86_64,60.06366749,3,1,15,0.174536292,-0.005385557,1,0,0,0.7248,rock_grid_rect_2,7,15,-1,-1,0.725,0.123493704,-0.399455316,1,0,0,7.1136,Peridotite_rect,7,7.114,1,14,0,14,0,1,,,,,,,,,,,,
5e7d11401ae8680ca60eed9e,TCR,2024-06-10_14h49.56.077,LearnStrategy,2023.2.3,Linux x86_64,60.06366749,3,1,16,0.164206241,-0.018481525,1,0,0,1.025,rock_grid_rect_2,1,01,-1,-1,1.025,0.13503909,-0.246470548,1,0,0,2.0127,Diorite_rect,3,2.013,0,15,0,15,0,1,,,,,,,,,,,,
5e7d11401ae8680ca60eed9e,TCR,2024-06-10_14h49.56.077,LearnStrategy,2023.2.3,Linux x86_64,60.06366749,3,2,1,,,,,,,,8,05,,,,,,,,,,,8,4.185,1,,,,,,0.392074635,-0.402431724,1,0,0,4.1849,Pumice_rect,0,0,0,0,1
5e7d11401ae8680ca60eed9e,TCR,2024-06-10_14h49.56.077,LearnStrategy,2023.2.3,Linux x86_64,60.06366749,3,2,2,,,,,,,,4,11,,,,,,,,,,,4,5.643,1,,,,,,0.371414632,-0.257185448,1,0,0,5.6431,Gabbro_rect,1,0,1,0,1
5e7d11401ae8680ca60eed9e,TCR,2024-06-10_14h49.56.077,LearnStrategy,2023.2.3,Linux x86_64,60.06366749,3,2,3,,,,,,,,7,02,,,,,,,,,,,6,2.958,0,,,,,,-0.086752876,-0.395883666,1,0,0,2.9578,Pegmatite_rect,2,0,2,0,1
5e7d11401ae8680ca60eed9e,TCR,2024-06-10_14h49.56.077,LearnStrategy,2023.2.3,Linux x86_64,60.06366749,3,2,4,,,,,,,,6,13,,,,,,,,,,,6,2.242,1,,,,,,-0.101944119,-0.382192506,1,0,0,2.2422,Pegmatite_rect,3,0,3,0,1
5e7d11401ae8680ca60eed9e,TCR,2024-06-10_14h49.56.077,LearnStrategy,2023.2.3,Linux x86_64,60.06366749,3,2,5,,,,,,,,5,05,,,,,,,,,,,5,5.494,1,,,,,,-0.362625619,-0.407193858,1,0,0,5.4942,Obsidian_rect,4,0,4,0,1
5e7d11401ae8680ca60eed9e,TCR,2024-06-10_14h49.56.077,LearnStrategy,2023.2.3,Linux x86_64,60.06366749,3,2,6,,,,,,,,1,05,,,,,,,,,,,7,10.737,0,,,,,,0.117417227,-0.392907357,1,0,0,10.7369,Peridotite_rect,5,0,5,0,1
5e7d11401ae8680ca60eed9e,TCR,2024-06-10_14h49.56.077,LearnStrategy,2023.2.3,Linux x86_64,60.06366749,3,2,7,,,,,,,,1,06,,,,,,,,,,,7,1.461,0,,,,,,0.107694843,-0.392907357,1,0,0,1.4612,Peridotite_rect,6,0,6,0,1
5e7d11401ae8680ca60eed9e,TCR,2024-06-10_14h49.56.077,LearnStrategy,2023.2.3,Linux x86_64,60.06366749,3,2,8,,,,,,,,5,11,,,,,,,,,,,2,1.213,0,,,,,,-0.129895984,-0.229207638,1,0,0,1.2134,Basalt_rect,7,0,7,0,1
5e7d11401ae8680ca60eed9e,TCR,2024-06-10_14h49.56.077,LearnStrategy,2023.2.3,Linux x86_64,60.06366749,3,2,9,,,,,,,,2,01,,,,,,,,,,,4,255.354,0,,,,,,0.423672456,-0.248851615,1,0,0,255.3538,Gabbro_rect,8,0,8,0,1
5e7d11401ae8680ca60eed9e,TCR,2024-06-10_14h49.56.077,LearnStrategy,2023.2.3,Linux x86_64,60.06366749,3,2,10,,,,,,,,4,10,,,,,,,,,,,7,2.437,0,,,,,,0.106479508,-0.389931048,1,0,0,2.4371,Peridotite_rect,9,0,9,0,1
5e7d11401ae8680ca60eed9e,TCR,2024-06-10_14h49.56.077,LearnStrategy,2023.2.3,Linux x86_64,60.06366749,3,2,11,,,,,,,,3,08,,,,,,,,,,,6,3.116,0,,,,,,-0.07763816,-0.378025515,1,0,0,3.1159,Pegmatite_rect,10,0,10,0,1
5e7d11401ae8680ca60eed9e,TCR,2024-06-10_14h49.56.077,LearnStrategy,2023.2.3,Linux x86_64,60.06366749,3,2,12,,,,,,,,8,04,,,,,,,,,,,7,1.294,0,,,,,,0.129570181,-0.382787748,1,0,0,1.2938,Peridotite_rect,11,0,11,0,1
5e7d11401ae8680ca60eed9e,TCR,2024-06-10_14h49.56.077,LearnStrategy,2023.2.3,Linux x86_64,60.06366749,3,2,13,,,,,,,,2,12,,,,,,,,,,,8,14.423,0,,,,,,0.407265927,-0.384573474,1,0,0,14.4228,Pumice_rect,12,0,12,0,1
5e7d11401ae8680ca60eed9e,TCR,2024-06-10_14h49.56.077,LearnStrategy,2023.2.3,Linux x86_64,60.06366749,3,2,14,,,,,,,,6,15,,,,,,,,,,,3,3.596,0,,,,,,0.147799712,-0.242898947,1,0,0,3.5961,Diorite_rect,13,0,13,0,1
5e7d11401ae8680ca60eed9e,TCR,2024-06-10_14h49.56.077,LearnStrategy,2023.2.3,Linux x86_64,60.06366749,3,2,15,,,,,,,,3,06,,,,,,,,,,,7,3.854,0,,,,,,0.11924023,-0.395288424,1,0,0,3.8544,Peridotite_rect,14,0,14,0,1
5e7d11401ae8680ca60eed9e,TCR,2024-06-10_14h49.56.077,LearnStrategy,2023.2.3,Linux x86_64,60.06366749,3,2,16,,,,,,,,7,16,,,,,,,,,,,3,111.529,0,,,,,,0.144153806,-0.2714719,1,0,0,111.5286,Diorite_rect,15,0,15,0,1
5e7d11401ae8680ca60eed9e,TCR,2024-06-10_14h49.56.077,LearnStrategy,2023.2.3,Linux x86_64,60.06366749,4,1,1,0.176359295,-0.006576091,1,0,0,3.7054,rock_grid_rect_2,7,15,-1,-1,3.705,0.169067383,-0.248851615,1,0,0,1.5217,Diorite_rect,3,1.522,0,0,0,0,0,1,,,,,,,,,,,,
5e7d11401ae8680ca60eed9e,TCR,2024-06-10_14h49.56.077,LearnStrategy,2023.2.3,Linux x86_64,60.06366749,4,1,2,0.066982307,0.017830069,1,0,0,0.9954,rock_grid_rect_2,8,13,-1,-1,0.995,-0.101944119,-0.242898947,1,0,0,1.5349,Basalt_rect,2,1.535,0,1,0,1,0,1,,,,,,,,,,,,
5e7d11401ae8680ca60eed9e,TCR,2024-06-10_14h49.56.077,LearnStrategy,2023.2.3,Linux x86_64,60.06366749,4,1,3,0.153268522,-0.023243708,1,0,0,1.3588,rock_grid_rect_2,1,16,-1,-1,1.359,0.459523751,-0.264923941,1,0,0,1.626,Gabbro_rect,4,1.626,0,2,0,2,0,1,,,,,,,,,,,,
5e7d11401ae8680ca60eed9e,TCR,2024-06-10_14h49.56.077,LearnStrategy,2023.2.3,Linux x86_64,60.06366749,4,1,4,0.13260842,-0.017290991,1,0,0,0.8668,rock_grid_rect_2,6,16,-1,-1,0.867,0.136861994,-0.246470548,1,0,0,8.9082,Diorite_rect,3,8.908,0,3,0,3,0,1,,,,,,,,,,,,
5e7d11401ae8680ca60eed9e,TCR,2024-06-10_14h49.56.077,LearnStrategy,2023.2.3,Linux x86_64,60.06366749,4,1,5,0.182435772,0.024378028,1,0,0,0.7722,rock_grid_rect_2,7,12,-1,-1,0.772,0.112556085,-0.405408033,1,0,0,1.773,Peridotite_rect,7,1.773,1,4,0,4,0,1,,,,,,,,,,,,
5e7d11401ae8680ca60eed9e,TCR,2024-06-10_14h49.56.077,LearnStrategy,2023.2.3,Linux x86_64,60.06366749,4,1,6,0.193981059,-0.001218665,1,0,0,2.0091,rock_grid_rect_2,3,12,-1,-1,2.009,0.117417227,-0.392312016,1,0,0,1.1863,Peridotite_rect,7,1.186,0,5,0,5,0,1,,,,,,,,,,,,
5e7d11401ae8680ca60eed9e,TCR,2024-06-10_14h49.56.077,LearnStrategy,2023.2.3,Linux x86_64,60.06366749,4,1,7,0.11924023,-0.023839,1,0,0,1.5412,rock_grid_rect_2,2,04,-1,-1,1.541,-0.33588904,-0.245279964,1,0,0,1.3626,Andesite_rect,1,1.363,0,6,0,6,0,1,,,,,,,,,,,,
5e7d11401ae8680ca60eed9e,TCR,2024-06-10_14h49.56.077,LearnStrategy,2023.2.3,Linux x86_64,60.06366749,4,1,8,0.133823755,-0.021457883,1,0,0,0.7079,rock_grid_rect_2,4,12,-1,-1,0.708,-0.135972461,-0.411956091,1,0,0,3.8813,Pegmatite_rect,6,3.881,0,7,0,7,0,1,,,,,,,,,,,,
5e7d11401ae8680ca60eed9e,TCR,2024-06-10_14h49.56.077,LearnStrategy,2023.2.3,Linux x86_64,60.06366749,4,1,9,0.18304334,-0.022053125,1,0,0,0.7621,rock_grid_rect_2,2,09,-1,-1,0.762,0.396328209,-0.251232731,1,0,0,3.4772,Gabbro_rect,4,3.477,0,8,0,8,0,1,,,,,,,,,,,,
5e7d11401ae8680ca60eed9e,TCR,2024-06-10_14h49.56.077,LearnStrategy,2023.2.3,Linux x86_64,60.06366749,4,1,10,0.169067383,-0.006576091,1,0,0,0.7398,rock_grid_rect_2,1,10,-1,-1,0.74,0.106479508,-0.255994915,1,0,0,1.0292,Diorite_rect,3,1.029,0,9,0,9,0,1,,,,,,,,,,,,
5e7d11401ae8680ca60eed9e,TCR,2024-06-10_14h49.56.077,LearnStrategy,2023.2.3,Linux x86_64,60.06366749,4,1,11,0.155091525,-0.011933566,1,0,0,0.6445,rock_grid_rect_2,4,16,-1,-1,0.644,-0.126857745,-0.258971273,1,0,0,1.0625,Basalt_rect,2,1.063,0,10,0,10,0,1,,,,,,,,,,,,
5e7d11401ae8680ca60eed9e,TCR,2024-06-10_14h49.56.077,LearnStrategy,2023.2.3,Linux x86_64,60.06366749,4,1,12,0.138684897,-0.015505166,1,0,0,0.6564,rock_grid_rect_2,5,02,-1,-1,0.656,-0.092221785,-0.253018507,1,0,0,2.876,Basalt_rect,2,2.876,0,11,0,11,0,1,,,,,,,,,,,,
5e7d11401ae8680ca60eed9e,TCR,2024-06-10_14h49.56.077,LearnStrategy,2023.2.3,Linux x86_64,60.06366749,4,1,13,0.175751627,-2.81318E-05,1,0,0,0.6431,rock_grid_rect_2,1,07,-1,-1,0.643,0.122278468,-0.246470548,1,0,0,2.6961,Diorite_rect,3,2.696,0,12,0,12,0,1,,,,,,,,,,,,
5e7d11401ae8680ca60eed9e,TCR,2024-06-10_14h49.56.077,LearnStrategy,2023.2.3,Linux x86_64,60.06366749,4,1,14,0.139900232,0.024378028,1,0,0,1.3087,rock_grid_rect_2,7,05,-1,-1,1.309,0.155091525,-0.236946181,1,0,0,3.5136,Diorite_rect,3,3.514,0,13,0,13,0,1,,,,,,,,,,,,
5e7d11401ae8680ca60eed9e,TCR,2024-06-10_14h49.56.077,LearnStrategy,2023.2.3,Linux x86_64,60.06366749,4,1,15,0.141723235,-0.011933566,1,0,0,0.652,rock_grid_rect_2,6,12,-1,-1,0.652,0.14840738,-0.237541422,1,0,0,21.1099,Diorite_rect,3,21.11,0,14,0,14,0,1,,,,,,,,,,,,
5e7d11401ae8680ca60eed9e,TCR,2024-06-10_14h49.56.077,LearnStrategy,2023.2.3,Linux x86_64,60.06366749,4,1,16,0.046929971,-0.019672058,1,0,0,1.4064,rock_grid_rect_2,3,15,-1,-1,1.406,-0.142048938,-0.262542874,1,0,0,2.892,Basalt_rect,2,2.892,0,15,0,15,0,1,,,,,,,,,,,,
5e7d11401ae8680ca60eed9e,TCR,2024-06-10_14h49.56.077,LearnStrategy,2023.2.3,Linux x86_64,60.06366749,4,2,1,,,,,,,,5,09,,,,,,,,,,,5,4.774,1,,,,,,-0.37842453,-0.398264832,1,0,0,4.7738,Obsidian_rect,0,0,0,0,1
5e7d11401ae8680ca60eed9e,TCR,2024-06-10_14h49.56.077,LearnStrategy,2023.2.3,Linux x86_64,60.06366749,4,2,2,,,,,,,,5,11,,,,,,,,,,,2,2.844,0,,,,,,-0.107412978,-0.238732006,1,0,0,2.8436,Basalt_rect,1,0,1,0,1
5e7d11401ae8680ca60eed9e,TCR,2024-06-10_14h49.56.077,LearnStrategy,2023.2.3,Linux x86_64,60.06366749,4,2,3,,,,,,,,7,08,,,,,,,,,,,7,4.427,1,,,,,,0.116201991,-0.398264832,1,0,0,4.4268,Peridotite_rect,2,0,2,0,1
5e7d11401ae8680ca60eed9e,TCR,2024-06-10_14h49.56.077,LearnStrategy,2023.2.3,Linux x86_64,60.06366749,4,2,4,,,,,,,,6,06,,,,,,,,,,,2,1.357,0,,,,,,-0.084322255,-0.263733457,1,0,0,1.3569,Basalt_rect,3,0,3,0,1
5e7d11401ae8680ca60eed9e,TCR,2024-06-10_14h49.56.077,LearnStrategy,2023.2.3,Linux x86_64,60.06366749,4,2,5,,,,,,,,1,03,,,,,,,,,,,7,179.915,0,,,,,,0.140978785,-0.404262978,1,0,0,179.9151,Peridotite_rect,4,0,4,0,1
5e7d11401ae8680ca60eed9e,TCR,2024-06-10_14h49.56.077,LearnStrategy,2023.2.3,Linux x86_64,60.06366749,4,2,6,,,,,,,,4,05,,,,,,,,,,,3,1.545,0,,,,,,0.11732299,-0.255116217,1,0,0,1.5452,Diorite_rect,5,0,5,0,1
5e7d11401ae8680ca60eed9e,TCR,2024-06-10_14h49.56.077,LearnStrategy,2023.2.3,Linux x86_64,60.06366749,4,2,7,,,,,,,,4,11,,,,,,,,,,,3,403.026,0,,,,,,0.145638133,-0.249909093,1,0,0,403.0265,Diorite_rect,6,0,6,0,1
5e7d11401ae8680ca60eed9e,TCR,2024-06-10_14h49.56.077,LearnStrategy,2023.2.3,Linux x86_64,60.06366749,4,2,8,,,,,,,,3,06,,,,,,,,,,,7,2.33,0,,,,,,0.173503565,-0.416870714,1,0,0,2.3299,Peridotite_rect,7,0,7,0,1
5e7d11401ae8680ca60eed9e,TCR,2024-06-10_14h49.56.077,LearnStrategy,2023.2.3,Linux x86_64,60.06366749,4,2,9,,,,,,,,7,16,,,,,,,,,,,4,2.835,0,,,,,,0.42475568,-0.238904823,1,0,0,2.8351,Gabbro_rect,8,0,8,0,1
5e7d11401ae8680ca60eed9e,TCR,2024-06-10_14h49.56.077,LearnStrategy,2023.2.3,Linux x86_64,60.06366749,4,2,10,,,,,,,,2,06,,,,,,,,,,,3,1.071,0,,,,,,0.098737089,-0.250463082,1,0,0,1.0714,Diorite_rect,9,0,9,0,1
5e7d11401ae8680ca60eed9e,TCR,2024-06-10_14h49.56.077,LearnStrategy,2023.2.3,Linux x86_64,60.06366749,4,2,11,,,,,,,,3,13,,,,,,,,,,,2,1.157,0,,,,,,-0.085104479,-0.258337512,1,0,0,1.1565,Basalt_rect,10,0,10,0,1
5e7d11401ae8680ca60eed9e,TCR,2024-06-10_14h49.56.077,LearnStrategy,2023.2.3,Linux x86_64,60.06366749,4,2,12,,,,,,,,2,08,,,,,,,,,,,1,3.605,0,,,,,,-0.421306598,-0.263527935,1,0,0,3.6053,Andesite_rect,11,0,11,0,1
5e7d11401ae8680ca60eed9e,TCR,2024-06-10_14h49.56.077,LearnStrategy,2023.2.3,Linux x86_64,60.06366749,4,2,13,,,,,,,,6,13,,,,,,,,,,,3,5.045,0,,,,,,0.052276611,-0.237783774,1,0,0,5.0448,Diorite_rect,12,0,12,0,1
5e7d11401ae8680ca60eed9e,TCR,2024-06-10_14h49.56.077,LearnStrategy,2023.2.3,Linux x86_64,60.06366749,4,2,14,,,,,,,,8,04,,,,,,,,,,,8,2.396,1,,,,,,0.362432623,-0.378260112,1,0,0,2.3961,Pumice_rect,13,0,13,0,1
5e7d11401ae8680ca60eed9e,TCR,2024-06-10_14h49.56.077,LearnStrategy,2023.2.3,Linux x86_64,60.06366749,4,2,15,,,,,,,,1,11,,,,,,,,,,,8,1.478,0,,,,,,0.360742525,-0.381640605,1,0,0,1.4785,Pumice_rect,14,0,14,0,1
5e7d11401ae8680ca60eed9e,TCR,2024-06-10_14h49.56.077,LearnStrategy,2023.2.3,Linux x86_64,60.06366749,4,2,16,,,,,,,,8,14,,,,,,,,,,,8,1.316,1,,,,,,0.362432623,-0.383706059,1,0,0,1.3162,Pumice_rect,15,0,15,0,1
5e7d11401ae8680ca60eed9e,TCR,2024-06-10_14h49.56.077,LearnStrategy,2023.2.3,Linux x86_64,60.06366749,5,1,1,0.067993065,0.021575679,1,0,0,3.7348,rock_grid_rect_2,7,05,-1,-1,3.735,0.117062547,-0.265727537,1,0,0,23.32,Diorite_rect,3,23.32,0,0,0,0,0,1,,,,,,,,,,,,
5e7d11401ae8680ca60eed9e,TCR,2024-06-10_14h49.56.077,LearnStrategy,2023.2.3,Linux x86_64,60.06366749,5,1,2,0.16524861,0.018722137,1,0,0,16.2499,rock_grid_rect_2,7,07,-1,-1,16.25,0.186764695,-0.388812534,1,0,0,1.7884,Peridotite_rect,7,1.788,1,1,0,1,0,1,,,,,,,,,,,,
5e7d11401ae8680ca60eed9e,TCR,2024-06-10_14h49.56.077,LearnStrategy,2023.2.3,Linux x86_64,60.06366749,5,1,3,0.116360444,-0.009105918,1,0,0,2.0084,rock_grid_rect_2,2,09,-1,-1,2.008,-0.096125948,-0.237938648,1,0,0,4.2608,Basalt_rect,2,4.261,1,2,0,2,0,1,,,,,,,,,,,,
5e7d11401ae8680ca60eed9e,TCR,2024-06-10_14h49.56.077,LearnStrategy,2023.2.3,Linux x86_64,60.06366749,5,1,4,0.003412104,-0.022694889,1,0,0,1.3205,rock_grid_rect_2,1,16,-1,-1,1.32,0.11541758,-0.407042562,1,0,0,2.6604,Peridotite_rect,7,2.66,0,3,0,3,0,1,,,,,,,,,,,,
5e7d11401ae8680ca60eed9e,TCR,2024-06-10_14h49.56.077,LearnStrategy,2023.2.3,Linux x86_64,60.06366749,5,1,5,0.030333081,0.007699426,1,0,0,1.7197,rock_grid_rect_2,1,09,-1,-1,1.72,0.097141229,-0.397420281,1,0,0,2.5454,Peridotite_rect,7,2.545,0,4,0,4,0,1,,,,,,,,,,,,
5e7d11401ae8680ca60eed9e,TCR,2024-06-10_14h49.56.077,LearnStrategy,2023.2.3,Linux x86_64,60.06366749,5,1,6,0.094639781,-0.004750951,1,0,0,1.5546,rock_grid_rect_2,1,07,-1,-1,1.555,-0.374342182,-0.267371858,1,0,0,2.1438,Andesite_rect,1,2.144,1,5,0,5,0,1,,,,,,,,,,,,
5e7d11401ae8680ca60eed9e,TCR,2024-06-10_14h49.56.077,LearnStrategy,2023.2.3,Linux x86_64,60.06366749,5,1,7,0.153062553,-0.011246125,1,0,0,6.6752,rock_grid_rect_2,3,16,-1,-1,6.675,-0.39263921,-0.249910535,1,0,0,4.3582,Andesite_rect,1,4.358,0,6,0,6,0,1,,,,,,,,,,,,
5e7d11401ae8680ca60eed9e,TCR,2024-06-10_14h49.56.077,LearnStrategy,2023.2.3,Linux x86_64,60.06366749,5,1,8,0.08763048,-0.005803658,1,0,0,1.5665,rock_grid_rect_2,6,08,-1,-1,1.566,-0.091987784,-0.266818019,1,0,0,5.2018,Basalt_rect,2,5.202,0,7,0,7,0,1,,,,,,,,,,,,
5e7d11401ae8680ca60eed9e,TCR,2024-06-10_14h49.56.077,LearnStrategy,2023.2.3,Linux x86_64,60.06366749,5,1,9,0.097452369,-0.0225676,1,0,0,2.0639,rock_grid_rect_2,3,11,-1,-1,2.064,0.163986057,-0.3933351,1,0,0,2.1739,Peridotite_rect,7,2.174,0,8,0,8,0,1,,,,,,,,,,,,
5e7d11401ae8680ca60eed9e,TCR,2024-06-10_14h49.56.077,LearnStrategy,2023.2.3,Linux x86_64,60.06366749,5,1,10,0.091630171,-0.006154958,1,0,0,24.794,rock_grid_rect_2,8,03,-1,-1,24.794,0.423198588,-0.395087425,1,0,0,1.8267,Pumice_rect,8,1.827,1,9,0,9,0,1,,,,,,,,,,,,
5e7d11401ae8680ca60eed9e,TCR,2024-06-10_14h49.56.077,LearnStrategy,2023.2.3,Linux x86_64,60.06366749,5,1,11,0.072533325,0.00752149,1,0,0,1.4573,rock_grid_rect_2,2,14,-1,-1,1.457,-0.338264838,-0.259501355,1,0,0,4.0324,Andesite_rect,1,4.032,0,10,0,10,0,1,,,,,,,,,,,,
5e7d11401ae8680ca60eed9e,TCR,2024-06-10_14h49.56.077,LearnStrategy,2023.2.3,Linux x86_64,60.06366749,5,1,12,0.025602459,-0.00986349,1,0,0,1.454,rock_grid_rect_2,3,12,-1,-1,1.454,-0.314106994,-0.228411597,1,0,0,3.7493,Andesite_rect,1,3.749,0,11,0,11,0,1,,,,,,,,,,,,
5e7d11401ae8680ca60eed9e,TCR,2024-06-10_14h49.56.077,LearnStrategy,2023.2.3,Linux x86_64,60.06366749,5,1,13,0.033347562,0.013846481,1,0,0,1.6914,rock_grid_rect_2,4,01,-1,-1,1.691,0.42947666,-0.264114976,1,0,0,5.9628,Gabbro_rect,4,5.963,1,12,0,12,0,1,,,,,,,,,,,,
5e7d11401ae8680ca60eed9e,TCR,2024-06-10_14h49.56.077,LearnStrategy,2023.2.3,Linux x86_64,60.06366749,5,1,14,0.055780467,0.003558529,1,0,0,1.9664,rock_grid_rect_2,5,04,-1,-1,1.966,-0.160325886,-0.259417407,1,0,0,6.833,Basalt_rect,2,6.833,0,13,0,13,0,1,,,,,,,,,,,,
5e7d11401ae8680ca60eed9e,TCR,2024-06-10_14h49.56.077,LearnStrategy,2023.2.3,Linux x86_64,60.06366749,5,1,15,0.007531977,0.002426943,1,0,0,1.1978,rock_grid_rect_2,6,12,-1,-1,1.198,0.142549794,-0.421932556,1,0,0,6.7243,Peridotite_rect,7,6.724,0,14,0,14,0,1,,,,,,,,,,,,
5e7d11401ae8680ca60eed9e,TCR,2024-06-10_14h49.56.077,LearnStrategy,2023.2.3,Linux x86_64,60.06366749,5,1,16,0.076025649,0.001382486,1,0,0,1.2179,rock_grid_rect_2,4,16,-1,-1,1.218,-0.419361077,-0.264615137,1,0,0,1.6653,Andesite_rect,1,1.665,0,15,0,15,0,1,,,,,,,,,,,,
5e7d11401ae8680ca60eed9e,TCR,2024-06-10_14h49.56.077,LearnStrategy,2023.2.3,Linux x86_64,60.06366749,5,2,1,,,,,,,,7,14,,,,,,,,,,,4,11.329,0,,,,,,0.399366447,-0.260161757,1,0,0,11.3291,Gabbro_rect,0,0,0,0,1
5e7d11401ae8680ca60eed9e,TCR,2024-06-10_14h49.56.077,LearnStrategy,2023.2.3,Linux x86_64,60.06366749,5,2,2,,,,,,,,1,05,,,,,,,,,,,7,1.731,0,,,,,,0.144153806,-0.410765508,1,0,0,1.7314,Peridotite_rect,1,0,1,0,1
5e7d11401ae8680ca60eed9e,TCR,2024-06-10_14h49.56.077,LearnStrategy,2023.2.3,Linux x86_64,60.06366749,5,2,3,,,,,,,,3,10,,,,,,,,,,,7,1.622,0,,,,,,0.108302511,-0.419694534,1,0,0,1.622,Peridotite_rect,2,0,2,0,1
5e7d11401ae8680ca60eed9e,TCR,2024-06-10_14h49.56.077,LearnStrategy,2023.2.3,Linux x86_64,60.06366749,5,2,4,,,,,,,,5,05,,,,,,,,,,,2,1.649,0,,,,,,-0.140833653,-0.237541422,1,0,0,1.6488,Basalt_rect,3,0,3,0,1
5e7d11401ae8680ca60eed9e,TCR,2024-06-10_14h49.56.077,LearnStrategy,2023.2.3,Linux x86_64,60.06366749,5,2,5,,,,,,,,4,03,,,,,,,,,,,7,3.427,0,,,,,,0.145369141,-0.394097841,1,0,0,3.4271,Peridotite_rect,4,0,4,0,1
5e7d11401ae8680ca60eed9e,TCR,2024-06-10_14h49.56.077,LearnStrategy,2023.2.3,Linux x86_64,60.06366749,5,2,6,,,,,,,,5,16,,,,,,,,,,,2,2.737,0,,,,,,-0.065485206,-0.242303606,1,0,0,2.7366,Basalt_rect,5,0,5,0,1
5e7d11401ae8680ca60eed9e,TCR,2024-06-10_14h49.56.077,LearnStrategy,2023.2.3,Linux x86_64,60.06366749,5,2,7,,,,,,,,8,05,,,,,,,,,,,8,4.134,1,,,,,,0.404227689,-0.389931048,1,0,0,4.1337,Pumice_rect,6,0,6,0,1
5e7d11401ae8680ca60eed9e,TCR,2024-06-10_14h49.56.077,LearnStrategy,2023.2.3,Linux x86_64,60.06366749,5,2,8,,,,,,,,6,11,,,,,,,,,,,7,3.738,0,,,,,,0.117417227,-0.387549882,1,0,0,3.7384,Peridotite_rect,7,0,7,0,1
5e7d11401ae8680ca60eed9e,TCR,2024-06-10_14h49.56.077,LearnStrategy,2023.2.3,Linux x86_64,60.06366749,5,2,9,,,,,,,,7,06,,,,,,,,,,,6,14.817,0,,,,,,-0.110451217,-0.392907357,1,0,0,14.8172,Pegmatite_rect,8,0,8,0,1
5e7d11401ae8680ca60eed9e,TCR,2024-06-10_14h49.56.077,LearnStrategy,2023.2.3,Linux x86_64,60.06366749,5,2,10,,,,,,,,8,15,,,,,,,,,,,8,1.183,1,,,,,,0.459523751,-0.403026966,1,0,0,1.1829,Pumice_rect,9,0,9,0,1
5e7d11401ae8680ca60eed9e,TCR,2024-06-10_14h49.56.077,LearnStrategy,2023.2.3,Linux x86_64,60.06366749,5,2,11,,,,,,,,6,15,,,,,,,,,,,2,4.901,0,,,,,,-0.157847898,-0.240517831,1,0,0,4.9011,Basalt_rect,10,0,10,0,1
5e7d11401ae8680ca60eed9e,TCR,2024-06-10_14h49.56.077,LearnStrategy,2023.2.3,Linux x86_64,60.06366749,5,2,12,,,,,,,,2,01,,,,,,,,,,,1,3.99,0,,,,,,-0.355941474,-0.257185448,1,0,0,3.9905,Andesite_rect,11,0,11,0,1
5e7d11401ae8680ca60eed9e,TCR,2024-06-10_14h49.56.077,LearnStrategy,2023.2.3,Linux x86_64,60.06366749,5,2,13,,,,,,,,1,06,,,,,,,,,,,4,3.108,0,,,,,,0.35865401,-0.253613748,1,0,0,3.1076,Gabbro_rect,12,0,12,0,1
5e7d11401ae8680ca60eed9e,TCR,2024-06-10_14h49.56.077,LearnStrategy,2023.2.3,Linux x86_64,60.06366749,5,2,14,,,,,,,,2,16,,,,,,,,,,,2,6.227,1,,,,,,-0.078853446,-0.241708364,1,0,0,6.2268,Basalt_rect,13,0,13,0,1
5e7d11401ae8680ca60eed9e,TCR,2024-06-10_14h49.56.077,LearnStrategy,2023.2.3,Linux x86_64,60.06366749,5,2,15,,,,,,,,3,02,,,,,,,,,,,3,1.181,1,,,,,,0.171497954,-0.233969822,1,0,0,1.1805,Diorite_rect,14,0,14,0,1
5e7d11401ae8680ca60eed9e,TCR,2024-06-10_14h49.56.077,LearnStrategy,2023.2.3,Linux x86_64,60.06366749,5,2,16,,,,,,,,4,15,,,,,,,,,,,3,1.635,0,,,,,,0.144153806,-0.247661131,1,0,0,1.6353,Diorite_rect,15,0,15,0,1
5e7d11401ae8680ca60eed9e,TCR,2024-06-10_14h49.56.077,LearnStrategy,2023.2.3,Linux x86_64,60.06366749,6,1,1,0.146240234,0.008217032,1,0,0,95.0211,rock_grid_rect_2,3,09,-1,-1,95.021,0.168069647,-0.233900387,1,0,0,3.3241,Diorite_rect,3,3.324,1,0,0,0,0,1,,,,,,,,,,,,
5e7d11401ae8680ca60eed9e,TCR,2024-06-10_14h49.56.077,LearnStrategy,2023.2.3,Linux x86_64,60.06366749,6,1,2,0.135968137,0.006190098,1,0,0,1.8207,rock_grid_rect_2,1,07,-1,-1,1.821,0.147400201,-0.246669657,1,0,0,1.7351,Diorite_rect,3,1.735,0,1,0,1,0,1,,,,,,,,,,,,
5e7d11401ae8680ca60eed9e,TCR,2024-06-10_14h49.56.077,LearnStrategy,2023.2.3,Linux x86_64,60.06366749,6,1,3,0.058068887,0.013907864,1,0,0,1.6621,rock_grid_rect_2,7,07,-1,-1,1.662,-0.127365212,-0.397674064,1,0,0,3.8083,Pegmatite_rect,6,3.808,0,2,0,2,0,1,,,,,,,,,,,,
5e7d11401ae8680ca60eed9e,TCR,2024-06-10_14h49.56.077,LearnStrategy,2023.2.3,Linux x86_64,60.06366749,6,1,4,0.121893867,0.010168964,1,0,0,1.8259,rock_grid_rect_2,7,05,-1,-1,1.826,0.132564284,-0.420230331,1,0,0,1.8527,Peridotite_rect,7,1.853,1,3,0,3,0,1,,,,,,,,,,,,
5e7d11401ae8680ca60eed9e,TCR,2024-06-10_14h49.56.077,LearnStrategy,2023.2.3,Linux x86_64,60.06366749,6,1,5,0.066662518,-0.01045565,1,0,0,1.5557,rock_grid_rect_2,5,07,-1,-1,1.556,-0.157652417,-0.238975053,1,0,0,3.5015,Basalt_rect,2,3.502,0,4,0,4,0,1,,,,,,,,,,,,
5e7d11401ae8680ca60eed9e,TCR,2024-06-10_14h49.56.077,LearnStrategy,2023.2.3,Linux x86_64,60.06366749,6,1,6,0.087843109,0.016255034,1,0,0,1.927,rock_grid_rect_2,4,01,-1,-1,1.927,0.422429585,-0.234335586,1,0,0,3.8599,Gabbro_rect,4,3.86,1,5,0,5,0,1,,,,,,,,,,,,
5e7d11401ae8680ca60eed9e,TCR,2024-06-10_14h49.56.077,LearnStrategy,2023.2.3,Linux x86_64,60.06366749,6,1,7,0.123861605,-0.013768448,1,0,0,2.8761,rock_grid_rect_2,2,09,-1,-1,2.876,-0.114023662,-0.250212331,1,0,0,3.4822,Basalt_rect,2,3.482,1,6,0,6,0,1,,,,,,,,,,,,
5e7d11401ae8680ca60eed9e,TCR,2024-06-10_14h49.56.077,LearnStrategy,2023.2.3,Linux x86_64,60.06366749,6,1,8,0.112688294,-0.001489844,1,0,0,1.5309,rock_grid_rect_2,5,04,-1,-1,1.531,-0.360718817,-0.402000104,1,0,0,7.6147,Obsidian_rect,5,7.615,1,7,0,7,0,1,,,,,,,,,,,,
5e7d11401ae8680ca60eed9e,TCR,2024-06-10_14h49.56.077,LearnStrategy,2023.2.3,Linux x86_64,60.06366749,6,1,9,0.011750659,-0.000534952,1,0,0,1.57,rock_grid_rect_2,4,08,-1,-1,1.57,-0.106427966,-0.406518992,1,0,0,4.8944,Pegmatite_rect,6,4.894,0,8,0,8,0,1,,,,,,,,,,,,
5e7d11401ae8680ca60eed9e,TCR,2024-06-10_14h49.56.077,LearnStrategy,2023.2.3,Linux x86_64,60.06366749,6,1,10,0.135712962,-0.003524482,1,0,0,6.7217,rock_grid_rect_2,6,12,-1,-1,6.722,0.13326092,-0.248658022,1,0,0,7.0697,Diorite_rect,3,7.07,0,9,0,9,0,1,,,,,,,,,,,,
5e7d11401ae8680ca60eed9e,TCR,2024-06-10_14h49.56.077,LearnStrategy,2023.2.3,Linux x86_64,60.06366749,6,1,11,0.148021089,0.003694466,1,0,0,2.176,rock_grid_rect_2,3,15,-1,-1,2.176,0.11773622,-0.265740559,1,0,0,2.9193,Diorite_rect,3,2.919,1,10,0,10,0,1,,,,,,,,,,,,
5e7d11401ae8680ca60eed9e,TCR,2024-06-10_14h49.56.077,LearnStrategy,2023.2.3,Linux x86_64,60.06366749,6,1,12,0.176721231,0.007428247,1,0,0,1.5427,rock_grid_rect_2,2,11,-1,-1,1.543,-0.34321465,-0.26467145,1,0,0,4.4467,Andesite_rect,1,4.447,0,11,0,11,0,1,,,,,,,,,,,,
5e7d11401ae8680ca60eed9e,TCR,2024-06-10_14h49.56.077,LearnStrategy,2023.2.3,Linux x86_64,60.06366749,6,1,13,0.106091726,-0.005051007,1,0,0,1.6133,rock_grid_rect_2,6,12,-1,-1,1.613,-0.095489253,-0.260968584,1,0,0,4.3281,Basalt_rect,2,4.328,0,12,0,12,0,1,,,,,,,,,,,,
5e7d11401ae8680ca60eed9e,TCR,2024-06-10_14h49.56.077,LearnStrategy,2023.2.3,Linux x86_64,60.06366749,6,1,14,0.122138803,-0.024256206,1,0,0,2.475,rock_grid_rect_2,1,07,-1,-1,2.475,0.176871732,-0.259887149,1,0,0,4.0079,Diorite_rect,3,4.008,0,13,0,13,0,1,,,,,,,,,,,,
5e7d11401ae8680ca60eed9e,TCR,2024-06-10_14h49.56.077,LearnStrategy,2023.2.3,Linux x86_64,60.06366749,6,1,15,-0.100082298,-0.007003585,1,0,0,7.4447,rock_grid_rect_2,7,15,-1,-1,7.445,-0.087582716,-0.409032468,1,0,0,3.6061,Pegmatite_rect,6,3.606,0,14,0,14,0,1,,,,,,,,,,,,
5e7d11401ae8680ca60eed9e,TCR,2024-06-10_14h49.56.077,LearnStrategy,2023.2.3,Linux x86_64,60.06366749,6,1,16,0.086989511,-0.010443225,1,0,0,1.9927,rock_grid_rect_2,1,16,-1,-1,1.993,0.115616491,-0.39171071,1,0,0,2.9548,Peridotite_rect,7,2.955,0,15,0,15,0,1,,,,,,,,,,,,
5e7d11401ae8680ca60eed9e,TCR,2024-06-10_14h49.56.077,LearnStrategy,2023.2.3,Linux x86_64,60.06366749,6,2,1,,,,,,,,8,08,,,,,,,,,,,8,1.794,1,,,,,,0.403315143,-0.420734517,1,0,0,1.7938,Pumice_rect,0,0,0,0,1
5e7d11401ae8680ca60eed9e,TCR,2024-06-10_14h49.56.077,LearnStrategy,2023.2.3,Linux x86_64,60.06366749,6,2,2,,,,,,,,5,06,,,,,,,,,,,5,3.141,1,,,,,,-0.387724886,-0.407591481,1,0,0,3.1406,Obsidian_rect,1,0,1,0,1
5e7d11401ae8680ca60eed9e,TCR,2024-06-10_14h49.56.077,LearnStrategy,2023.2.3,Linux x86_64,60.06366749,6,2,3,,,,,,,,3,08,,,,,,,,,,,6,3.479,0,,,,,,-0.150254091,-0.386599562,1,0,0,3.4785,Pegmatite_rect,2,0,2,0,1
5e7d11401ae8680ca60eed9e,TCR,2024-06-10_14h49.56.077,LearnStrategy,2023.2.3,Linux x86_64,60.06366749,6,2,4,,,,,,,,2,12,,,,,,,,,,,8,2.88,0,,,,,,0.373379387,-0.409481782,1,0,0,2.8798,Pumice_rect,3,0,3,0,1
5e7d11401ae8680ca60eed9e,TCR,2024-06-10_14h49.56.077,LearnStrategy,2023.2.3,Linux x86_64,60.06366749,6,2,5,,,,,,,,4,10,,,,,,,,,,,4,2.575,1,,,,,,0.42996524,-0.252268689,1,0,0,2.5751,Gabbro_rect,4,0,4,0,1
5e7d11401ae8680ca60eed9e,TCR,2024-06-10_14h49.56.077,LearnStrategy,2023.2.3,Linux x86_64,60.06366749,6,2,6,,,,,,,,1,14,,,,,,,,,,,3,4.386,0,,,,,,0.126252911,-0.244117116,1,0,0,4.3861,Diorite_rect,5,0,5,0,1
5e7d11401ae8680ca60eed9e,TCR,2024-06-10_14h49.56.077,LearnStrategy,2023.2.3,Linux x86_64,60.06366749,6,2,7,,,,,,,,5,08,,,,,,,,,,,5,3.107,1,,,,,,-0.346042049,-0.402334903,1,0,0,3.1071,Obsidian_rect,6,0,6,0,1
5e7d11401ae8680ca60eed9e,TCR,2024-06-10_14h49.56.077,LearnStrategy,2023.2.3,Linux x86_64,60.06366749,6,2,8,,,,,,,,3,14,,,,,,,,,,,5,1.226,0,,,,,,-0.346042049,-0.402334903,1,0,0,1.2261,Obsidian_rect,7,0,7,0,1
5e7d11401ae8680ca60eed9e,TCR,2024-06-10_14h49.56.077,LearnStrategy,2023.2.3,Linux x86_64,60.06366749,6,2,9,,,,,,,,1,02,,,,,,,,,,,4,2.59,0,,,,,,0.372022896,-0.254167985,1,0,0,2.5898,Gabbro_rect,8,0,8,0,1
5e7d11401ae8680ca60eed9e,TCR,2024-06-10_14h49.56.077,LearnStrategy,2023.2.3,Linux x86_64,60.06366749,6,2,10,,,,,,,,4,13,,,,,,,,,,,6,2.819,0,,,,,,-0.080978891,-0.38541554,1,0,0,2.8187,Pegmatite_rect,9,0,9,0,1
5e7d11401ae8680ca60eed9e,TCR,2024-06-10_14h49.56.077,LearnStrategy,2023.2.3,Linux x86_64,60.06366749,6,2,11,,,,,,,,6,10,,,,,,,,,,,6,1.407,1,,,,,,-0.080978891,-0.38541554,1,0,0,1.4072,Pegmatite_rect,10,0,10,0,1
5e7d11401ae8680ca60eed9e,TCR,2024-06-10_14h49.56.077,LearnStrategy,2023.2.3,Linux x86_64,60.06366749,6,2,12,,,,,,,,7,10,,,,,,,,,,,6,3.465,0,,,,,,-0.087452892,-0.393587392,1,0,0,3.4645,Pegmatite_rect,11,0,11,0,1
5e7d11401ae8680ca60eed9e,TCR,2024-06-10_14h49.56.077,LearnStrategy,2023.2.3,Linux x86_64,60.06366749,6,2,13,,,,,,,,6,05,,,,,,,,,,,3,2.604,0,,,,,,0.157657884,-0.236429221,1,0,0,2.6041,Diorite_rect,12,0,12,0,1
5e7d11401ae8680ca60eed9e,TCR,2024-06-10_14h49.56.077,LearnStrategy,2023.2.3,Linux x86_64,60.06366749,6,2,14,,,,,,,,8,09,,,,,,,,,,,8,4.659,1,,,,,,0.421213454,-0.37879084,1,0,0,4.6593,Pumice_rect,13,0,13,0,1
5e7d11401ae8680ca60eed9e,TCR,2024-06-10_14h49.56.077,LearnStrategy,2023.2.3,Linux x86_64,60.06366749,6,2,15,,,,,,,,2,10,,,,,,,,,,,2,3.626,1,,,,,,-0.130426214,-0.255506534,1,0,0,3.6262,Basalt_rect,14,0,14,0,1
5e7d11401ae8680ca60eed9e,TCR,2024-06-10_14h49.56.077,LearnStrategy,2023.2.3,Linux x86_64,60.06366749,6,2,16,,,,,,,,7,02,,,,,,,,,,,6,3.403,0,,,,,,-0.180138852,-0.406673469,1,0,0,3.4028,Pegmatite_rect,15,0,15,0,1
5e7d11401ae8680ca60eed9e,TCR,2024-06-10_14h49.56.077,LearnStrategy,2023.2.3,Linux x86_64,60.06366749,7,1,1,0.146730106,-0.001305745,1,0,0,4.4788,rock_grid_rect_2,1,16,-1,-1,4.479,0.120076332,-0.265578727,1,0,0,1.7388,Diorite_rect,3,1.739,0,0,0,0,0,1,,,,,,,,,,,,
5e7d11401ae8680ca60eed9e,TCR,2024-06-10_14h49.56.077,LearnStrategy,2023.2.3,Linux x86_64,60.06366749,7,1,2,-0.110957789,0.017366838,1,0,0,1.7583,rock_grid_rect_2,3,15,-1,-1,1.758,0.13460916,-0.247054805,1,0,0,3.5153,Diorite_rect,3,3.515,1,1,0,1,0,1,,,,,,,,,,,,
5e7d11401ae8680ca60eed9e,TCR,2024-06-10_14h49.56.077,LearnStrategy,2023.2.3,Linux x86_64,60.06366749,7,1,3,0.114951367,0.002312228,1,0,0,1.4114,rock_grid_rect_2,2,11,-1,-1,1.411,0.440290818,-0.401781213,1,0,0,3.6236,Pumice_rect,8,3.624,0,2,0,2,0,1,,,,,,,,,,,,
5e7d11401ae8680ca60eed9e,TCR,2024-06-10_14h49.56.077,LearnStrategy,2023.2.3,Linux x86_64,60.06366749,7,1,4,-0.004804083,0.007474669,1,0,0,1.4126,rock_grid_rect_2,7,13,-1,-1,1.413,-0.082325491,-0.406350499,1,0,0,5.5884,Pegmatite_rect,6,5.588,0,3,0,3,0,1,,,,,,,,,,,,
5e7d11401ae8680ca60eed9e,TCR,2024-06-10_14h49.56.077,LearnStrategy,2023.2.3,Linux x86_64,60.06366749,7,1,5,0.001424982,0.006905422,1,0,0,1.6994,rock_grid_rect_2,3,09,-1,-1,1.699,0.137950587,-0.242584974,1,0,0,2.4131,Diorite_rect,3,2.413,1,4,0,4,0,1,,,,,,,,,,,,
5e7d11401ae8680ca60eed9e,TCR,2024-06-10_14h49.56.077,LearnStrategy,2023.2.3,Linux x86_64,60.06366749,7,1,6,0.057344617,0.008527973,1,0,0,1.3911,rock_grid_rect_2,6,09,-1,-1,1.391,0.082652238,-0.406283897,1,0,0,3.4374,Peridotite_rect,7,3.437,0,5,0,5,0,1,,,,,,,,,,,,
5e7d11401ae8680ca60eed9e,TCR,2024-06-10_14h49.56.077,LearnStrategy,2023.2.3,Linux x86_64,60.06366749,7,1,7,-0.01869316,0.009969854,1,0,0,1.2627,rock_grid_rect_2,7,07,-1,-1,1.263,-0.099783136,-0.407722796,1,0,0,2.0132,Pegmatite_rect,6,2.013,0,6,0,6,0,1,,,,,,,,,,,,
5e7d11401ae8680ca60eed9e,TCR,2024-06-10_14h49.56.077,LearnStrategy,2023.2.3,Linux x86_64,60.06366749,7,1,8,0.162044065,0.013667104,1,0,0,2.2587,rock_grid_rect_2,6,03,-1,-1,2.259,-0.091727192,-0.39711918,1,0,0,4.4322,Pegmatite_rect,6,4.432,1,7,0,7,0,1,,,,,,,,,,,,
5e7d11401ae8680ca60eed9e,TCR,2024-06-10_14h49.56.077,LearnStrategy,2023.2.3,Linux x86_64,60.06366749,7,1,9,0.077079947,-0.009101644,1,0,0,1.806,rock_grid_rect_2,2,09,-1,-1,1.806,-0.408377532,-0.263377634,1,0,0,4.9948,Andesite_rect,1,4.995,0,8,0,8,0,1,,,,,,,,,,,,
5e7d11401ae8680ca60eed9e,TCR,2024-06-10_14h49.56.077,LearnStrategy,2023.2.3,Linux x86_64,60.06366749,7,1,10,0.011761892,0.007382471,1,0,0,1.3251,rock_grid_rect_2,4,08,-1,-1,1.325,0.456328749,-0.252106707,1,0,0,2.3645,Gabbro_rect,4,2.364,1,9,0,9,0,1,,,,,,,,,,,,
5e7d11401ae8680ca60eed9e,TCR,2024-06-10_14h49.56.077,LearnStrategy,2023.2.3,Linux x86_64,60.06366749,7,1,11,0.021898003,0.000703694,1,0,0,1.5803,rock_grid_rect_2,7,04,-1,-1,1.58,0.398774983,-0.248898683,1,0,0,4.1053,Gabbro_rect,4,4.105,0,10,0,10,0,1,,,,,,,,,,,,
5e7d11401ae8680ca60eed9e,TCR,2024-06-10_14h49.56.077,LearnStrategy,2023.2.3,Linux x86_64,60.06366749,7,1,12,0.00562269,-0.006399894,1,0,0,1.502,rock_grid_rect_2,5,02,-1,-1,1.502,-0.36573205,-0.414220655,1,0,0,2.3302,Obsidian_rect,5,2.33,1,11,0,11,0,1,,,,,,,,,,,,
5e7d11401ae8680ca60eed9e,TCR,2024-06-10_14h49.56.077,LearnStrategy,2023.2.3,Linux x86_64,60.06366749,7,1,13,0.042583056,0.002669443,1,0,0,1.9063,rock_grid_rect_2,8,06,-1,-1,1.906,0.406057849,-0.396670761,1,0,0,4.3938,Pumice_rect,8,4.394,1,12,0,12,0,1,,,,,,,,,,,,
5e7d11401ae8680ca60eed9e,TCR,2024-06-10_14h49.56.077,LearnStrategy,2023.2.3,Linux x86_64,60.06366749,7,1,14,0.05096863,-0.006721571,1,0,0,1.7255,rock_grid_rect_2,1,07,-1,-1,1.726,0.148309664,-0.242751976,1,0,0,2.0208,Diorite_rect,3,2.021,0,13,0,13,0,1,,,,,,,,,,,,
5e7d11401ae8680ca60eed9e,TCR,2024-06-10_14h49.56.077,LearnStrategy,2023.2.3,Linux x86_64,60.06366749,7,1,15,0.090712656,-0.014979807,1,0,0,1.9117,rock_grid_rect_2,3,16,-1,-1,1.912,0.138185284,-0.248918018,1,0,0,1.6757,Diorite_rect,3,1.676,1,14,0,14,0,1,,,,,,,,,,,,
5e7d11401ae8680ca60eed9e,TCR,2024-06-10_14h49.56.077,LearnStrategy,2023.2.3,Linux x86_64,60.06366749,7,1,16,0.146710722,-0.01444719,1,0,0,1.53,rock_grid_rect_2,4,09,-1,-1,1.53,-0.373788343,-0.247508642,1,0,0,3.5763,Andesite_rect,1,3.576,0,15,0,15,0,1,,,,,,,,,,,,
5e7d11401ae8680ca60eed9e,TCR,2024-06-10_14h49.56.077,LearnStrategy,2023.2.3,Linux x86_64,60.06366749,7,2,1,,,,,,,,1,02,,,,,,,,,,,3,1.566,0,,,,,,0.141914591,-0.269714952,1,0,0,1.5661,Diorite_rect,0,0,0,0,1
5e7d11401ae8680ca60eed9e,TCR,2024-06-10_14h49.56.077,LearnStrategy,2023.2.3,Linux x86_64,60.06366749,7,2,2,,,,,,,,8,08,,,,,,,,,,,8,2.089,1,,,,,,0.430141884,-0.413607321,1,0,0,2.0888,Pumice_rect,1,0,1,0,1
5e7d11401ae8680ca60eed9e,TCR,2024-06-10_14h49.56.077,LearnStrategy,2023.2.3,Linux x86_64,60.06366749,7,2,3,,,,,,,,5,09,,,,,,,,,,,5,6.304,1,,,,,,-0.429866729,-0.400073719,1,0,0,6.3042,Obsidian_rect,2,0,2,0,1
5e7d11401ae8680ca60eed9e,TCR,2024-06-10_14h49.56.077,LearnStrategy,2023.2.3,Linux x86_64,60.06366749,7,2,4,,,,,,,,7,16,,,,,,,,,,,5,1.858,0,,,,,,-0.436251861,-0.395567058,1,0,0,1.8582,Obsidian_rect,3,0,3,0,1
5e7d11401ae8680ca60eed9e,TCR,2024-06-10_14h49.56.077,LearnStrategy,2023.2.3,Linux x86_64,60.06366749,7,2,5,,,,,,,,8,05,,,,,,,,,,,8,2.128,1,,,,,,0.378007622,-0.401501882,1,0,0,2.1282,Pumice_rect,4,0,4,0,1
5e7d11401ae8680ca60eed9e,TCR,2024-06-10_14h49.56.077,LearnStrategy,2023.2.3,Linux x86_64,60.06366749,7,2,6,,,,,,,,4,11,,,,,,,,,,,4,3.81,1,,,,,,0.350765663,-0.266857234,1,0,0,3.8104,Gabbro_rect,5,0,5,0,1
5e7d11401ae8680ca60eed9e,TCR,2024-06-10_14h49.56.077,LearnStrategy,2023.2.3,Linux x86_64,60.06366749,7,2,7,,,,,,,,3,02,,,,,,,,,,,3,1.931,1,,,,,,0.097942439,-0.251858441,1,0,0,1.9313,Diorite_rect,6,0,6,0,1
5e7d11401ae8680ca60eed9e,TCR,2024-06-10_14h49.56.077,LearnStrategy,2023.2.3,Linux x86_64,60.06366749,7,2,8,,,,,,,,3,08,,,,,,,,,,,3,0.908,1,,,,,,0.097942439,-0.251858441,1,0,0,0.9077,Diorite_rect,7,0,7,0,1
5e7d11401ae8680ca60eed9e,TCR,2024-06-10_14h49.56.077,LearnStrategy,2023.2.3,Linux x86_64,60.06366749,7,2,9,,,,,,,,7,06,,,,,,,,,,,6,1.801,0,,,,,,-0.121521642,-0.412229755,1,0,0,1.8006,Pegmatite_rect,8,0,8,0,1
5e7d11401ae8680ca60eed9e,TCR,2024-06-10_14h49.56.077,LearnStrategy,2023.2.3,Linux x86_64,60.06366749,7,2,10,,,,,,,,4,13,,,,,,,,,,,6,8.765,0,,,,,,-0.093633347,-0.413806331,1,0,0,8.7649,Pegmatite_rect,9,0,9,0,1
5e7d11401ae8680ca60eed9e,TCR,2024-06-10_14h49.56.077,LearnStrategy,2023.2.3,Linux x86_64,60.06366749,7,2,11,,,,,,,,1,06,,,,,,,,,,,3,2.92,0,,,,,,0.109996386,-0.241410395,1,0,0,2.9201,Diorite_rect,10,0,10,0,1
5e7d11401ae8680ca60eed9e,TCR,2024-06-10_14h49.56.077,LearnStrategy,2023.2.3,Linux x86_64,60.06366749,7,2,12,,,,,,,,2,01,,,,,,,,,,,2,2.362,1,,,,,,-0.172243597,-0.257649027,1,0,0,2.3621,Basalt_rect,11,0,11,0,1
5e7d11401ae8680ca60eed9e,TCR,2024-06-10_14h49.56.077,LearnStrategy,2023.2.3,Linux x86_64,60.06366749,7,2,13,,,,,,,,2,10,,,,,,,,,,,2,2.339,1,,,,,,-0.150179736,-0.262335215,1,0,0,2.3386,Basalt_rect,12,0,12,0,1
5e7d11401ae8680ca60eed9e,TCR,2024-06-10_14h49.56.077,LearnStrategy,2023.2.3,Linux x86_64,60.06366749,7,2,14,,,,,,,,5,16,,,,,,,,,,,5,2.294,1,,,,,,-0.368282007,-0.42183991,1,0,0,2.294,Obsidian_rect,13,0,13,0,1
5e7d11401ae8680ca60eed9e,TCR,2024-06-10_14h49.56.077,LearnStrategy,2023.2.3,Linux x86_64,60.06366749,7,2,15,,,,,,,,6,06,,,,,,,,,,,3,3.032,0,,,,,,0.169909847,-0.244967134,1,0,0,3.0316,Diorite_rect,14,0,14,0,1
5e7d11401ae8680ca60eed9e,TCR,2024-06-10_14h49.56.077,LearnStrategy,2023.2.3,Linux x86_64,60.06366749,7,2,16,,,,,,,,6,10,,,,,,,,,,,2,2.871,0,,,,,,-0.087629138,-0.248362339,1,0,0,2.8708,Basalt_rect,15,0,15,0,1
5e7d11401ae8680ca60eed9e,TCR,2024-06-10_14h49.56.077,LearnStrategy,2023.2.3,Linux x86_64,60.06366749,8,1,1,0.101565184,-0.00820227,1,0,0,8.3422,rock_grid_rect_2,3,07,-1,-1,8.342,0.133127318,-0.234761241,1,0,0,1.8336,Diorite_rect,3,1.834,1,0,0,0,0,1,,,,,,,,,,,,
5e7d11401ae8680ca60eed9e,TCR,2024-06-10_14h49.56.077,LearnStrategy,2023.2.3,Linux x86_64,60.06366749,8,1,2,0.128028298,-0.005565134,1,0,0,2.165,rock_grid_rect_2,1,04,-1,-1,2.165,0.210345141,-0.394451725,1,0,0,3.8773,Peridotite_rect,7,3.877,0,1,0,1,0,1,,,,,,,,,,,,
5e7d11401ae8680ca60eed9e,TCR,2024-06-10_14h49.56.077,LearnStrategy,2023.2.3,Linux x86_64,60.06366749,8,1,3,0.064368531,-0.002768203,1,0,0,1.3611,rock_grid_rect_2,4,09,-1,-1,1.361,0.37744419,-0.259965629,1,0,0,7.0214,Gabbro_rect,4,7.021,1,2,0,2,0,1,,,,,,,,,,,,
5e7d11401ae8680ca60eed9e,TCR,2024-06-10_14h49.56.077,LearnStrategy,2023.2.3,Linux x86_64,60.06366749,8,1,4,0.109283646,0.013386928,1,0,0,1.5964,rock_grid_rect_2,2,04,-1,-1,1.596,-0.064609838,-0.260355698,1,0,0,1.9091,Basalt_rect,2,1.909,1,3,0,3,0,1,,,,,,,,,,,,
5e7d11401ae8680ca60eed9e,TCR,2024-06-10_14h49.56.077,LearnStrategy,2023.2.3,Linux x86_64,60.06366749,8,1,5,0.003445902,-0.007520197,1,0,0,1.8783,rock_grid_rect_2,6,12,-1,-1,1.878,-0.050241377,-0.392094516,1,0,0,3.4752,Pegmatite_rect,6,3.475,1,4,0,4,0,1,,,,,,,,,,,,
5e7d11401ae8680ca60eed9e,TCR,2024-06-10_14h49.56.077,LearnStrategy,2023.2.3,Linux x86_64,60.06366749,8,1,6,0.084069367,0.008449343,1,0,0,1.3427,rock_grid_rect_2,4,12,-1,-1,1.343,0.365747707,-0.262767382,1,0,0,5.3507,Gabbro_rect,4,5.351,1,5,0,5,0,1,,,,,,,,,,,,
5e7d11401ae8680ca60eed9e,TCR,2024-06-10_14h49.56.077,LearnStrategy,2023.2.3,Linux x86_64,60.06366749,8,1,7,0.055705614,-0.014803262,1,0,0,1.2784,rock_grid_rect_2,7,05,-1,-1,1.278,-0.083748087,-0.409949088,1,0,0,2.7523,Pegmatite_rect,6,2.752,0,6,0,6,0,1,,,,,,,,,,,,
5e7d11401ae8680ca60eed9e,TCR,2024-06-10_14h49.56.077,LearnStrategy,2023.2.3,Linux x86_64,60.06366749,8,1,8,0.066158332,-0.002610346,1,0,0,1.362,rock_grid_rect_2,6,03,-1,-1,1.362,0.112786607,-0.230441563,1,0,0,5.8429,Diorite_rect,3,5.843,0,7,0,7,0,1,,,,,,,,,,,,
5e7d11401ae8680ca60eed9e,TCR,2024-06-10_14h49.56.077,LearnStrategy,2023.2.3,Linux x86_64,60.06366749,8,1,9,0.070526322,0.018470441,1,0,0,1.4872,rock_grid_rect_2,2,11,-1,-1,1.487,0.366941073,-0.405030291,1,0,0,2.6114,Pumice_rect,8,2.611,0,8,0,8,0,1,,,,,,,,,,,,
5e7d11401ae8680ca60eed9e,TCR,2024-06-10_14h49.56.077,LearnStrategy,2023.2.3,Linux x86_64,60.06366749,8,1,10,0.111214703,-0.006318978,1,0,0,1.6584,rock_grid_rect_2,5,14,-1,-1,1.658,-0.390957661,-0.388862635,1,0,0,4.3428,Obsidian_rect,5,4.343,1,9,0,9,0,1,,,,,,,,,,,,
5e7d11401ae8680ca60eed9e,TCR,2024-06-10_14h49.56.077,LearnStrategy,2023.2.3,Linux x86_64,60.06366749,8,1,11,0.051316153,-0.006218081,1,0,0,1.8359,rock_grid_rect_2,7,05,-1,-1,1.836,0.074061589,-0.410576637,1,0,0,3.2801,Peridotite_rect,7,3.28,1,10,0,10,0,1,,,,,,,,,,,,
5e7d11401ae8680ca60eed9e,TCR,2024-06-10_14h49.56.077,LearnStrategy,2023.2.3,Linux x86_64,60.06366749,8,1,12,0.151620573,0.00514251,1,0,0,1.8919,rock_grid_rect_2,1,01,-1,-1,1.892,0.079552666,-0.256583149,1,0,0,1.8272,Diorite_rect,3,1.827,0,11,0,11,0,1,,,,,,,,,,,,
5e7d11401ae8680ca60eed9e,TCR,2024-06-10_14h49.56.077,LearnStrategy,2023.2.3,Linux x86_64,60.06366749,8,1,13,0.152518903,-0.001114886,1,0,0,1.6161,rock_grid_rect_2,3,07,-1,-1,1.616,0.14410808,-0.240158677,1,0,0,2.6693,Diorite_rect,3,2.669,1,12,0,12,0,1,,,,,,,,,,,,
5e7d11401ae8680ca60eed9e,TCR,2024-06-10_14h49.56.077,LearnStrategy,2023.2.3,Linux x86_64,60.06366749,8,1,14,0.10903533,-0.002716959,1,0,0,1.3921,rock_grid_rect_2,7,13,-1,-1,1.392,-0.364790777,-0.247597263,1,0,0,6.5821,Andesite_rect,1,6.582,0,13,0,13,0,1,,,,,,,,,,,,
5e7d11401ae8680ca60eed9e,TCR,2024-06-10_14h49.56.077,LearnStrategy,2023.2.3,Linux x86_64,60.06366749,8,1,15,0.093460431,-0.010366782,1,0,0,2.2274,rock_grid_rect_2,1,07,-1,-1,2.227,-0.393618655,-0.236733402,1,0,0,3.4663,Andesite_rect,1,3.466,1,14,0,14,0,1,,,,,,,,,,,,
5e7d11401ae8680ca60eed9e,TCR,2024-06-10_14h49.56.077,LearnStrategy,2023.2.3,Linux x86_64,60.06366749,8,1,16,0.179460358,-0.014056029,1,0,0,1.6091,rock_grid_rect_2,6,12,-1,-1,1.609,-0.091303425,-0.401777634,1,0,0,4.4705,Pegmatite_rect,6,4.471,1,15,0,15,0,1,,,,,,,,,,,,
5e7d11401ae8680ca60eed9e,TCR,2024-06-10_14h49.56.077,LearnStrategy,2023.2.3,Linux x86_64,60.06366749,8,2,1,,,,,,,,3,10,,,,,,,,,,,7,4.151,0,,,,,,0.100395774,-0.402988198,1,0,0,4.1505,Peridotite_rect,0,0,0,0,1
5e7d11401ae8680ca60eed9e,TCR,2024-06-10_14h49.56.077,LearnStrategy,2023.2.3,Linux x86_64,60.06366749,8,2,2,,,,,,,,6,15,,,,,,,,,,,6,2.978,1,,,,,,-0.16797874,-0.402239275,1,0,0,2.9782,Pegmatite_rect,1,0,1,0,1
5e7d11401ae8680ca60eed9e,TCR,2024-06-10_14h49.56.077,LearnStrategy,2023.2.3,Linux x86_64,60.06366749,8,2,3,,,,,,,,8,04,,,,,,,,,,,8,72.012,1,,,,,,0.460645943,-0.41769777,1,0,0,72.0121,Pumice_rect,2,0,2,0,1
5e7d11401ae8680ca60eed9e,TCR,2024-06-10_14h49.56.077,LearnStrategy,2023.2.3,Linux x86_64,60.06366749,8,2,4,,,,,,,,7,08,,,,,,,,,,,6,335.218,0,,,,,,-0.095011807,-0.396859334,1,0,0,335.2176,Pegmatite_rect,3,0,3,0,1
5e7d11401ae8680ca60eed9e,TCR,2024-06-10_14h49.56.077,LearnStrategy,2023.2.3,Linux x86_64,60.06366749,8,2,5,,,,,,,,4,15,,,,,,,,,,,6,0.94,0,,,,,,-0.095011807,-0.396859334,1,0,0,0.94,Pegmatite_rect,4,0,4,0,1
5e7d11401ae8680ca60eed9e,TCR,2024-06-10_14h49.56.077,LearnStrategy,2023.2.3,Linux x86_64,60.06366749,8,2,6,,,,,,,,2,08,,,,,,,,,,,4,3.714,0,,,,,,0.388148901,-0.232324706,1,0,0,3.7137,Gabbro_rect,5,0,5,0,1
5e7d11401ae8680ca60eed9e,TCR,2024-06-10_14h49.56.077,LearnStrategy,2023.2.3,Linux x86_64,60.06366749,8,2,7,,,,,,,,4,03,,,,,,,,,,,3,1.463,0,,,,,,0.142420269,-0.247569081,1,0,0,1.463,Diorite_rect,6,0,6,0,1
5e7d11401ae8680ca60eed9e,TCR,2024-06-10_14h49.56.077,LearnStrategy,2023.2.3,Linux x86_64,60.06366749,8,2,8,,,,,,,,5,06,,,,,,,,,,,5,2.049,1,,,,,,-0.343108534,-0.397252484,1,0,0,2.049,Obsidian_rect,7,0,7,0,1
5e7d11401ae8680ca60eed9e,TCR,2024-06-10_14h49.56.077,LearnStrategy,2023.2.3,Linux x86_64,60.06366749,8,2,9,,,,,,,,2,06,,,,,,,,,,,2,4.561,1,,,,,,-0.157156183,-0.251814752,1,0,0,4.5607,Basalt_rect,8,0,8,0,1
5e7d11401ae8680ca60eed9e,TCR,2024-06-10_14h49.56.077,LearnStrategy,2023.2.3,Linux x86_64,60.06366749,8,2,10,,,,,,,,5,08,,,,,,,,,,,5,3.75,1,,,,,,-0.354454413,-0.402533714,1,0,0,3.7504,Obsidian_rect,9,0,9,0,1
5e7d11401ae8680ca60eed9e,TCR,2024-06-10_14h49.56.077,LearnStrategy,2023.2.3,Linux x86_64,60.06366749,8,2,11,,,,,,,,7,10,,,,,,,,,,,6,3.892,0,,,,,,-0.111930027,-0.401687771,1,0,0,3.8919,Pegmatite_rect,10,0,10,0,1
5e7d11401ae8680ca60eed9e,TCR,2024-06-10_14h49.56.077,LearnStrategy,2023.2.3,Linux x86_64,60.06366749,8,2,12,,,,,,,,6,05,,,,,,,,,,,6,3.833,1,,,,,,-0.09630289,-0.409380785,1,0,0,3.8328,Pegmatite_rect,11,0,11,0,1
5e7d11401ae8680ca60eed9e,TCR,2024-06-10_14h49.56.077,LearnStrategy,2023.2.3,Linux x86_64,60.06366749,8,2,13,,,,,,,,3,13,,,,,,,,,,,6,1.001,0,,,,,,-0.09630289,-0.409380785,1,0,0,1.0006,Pegmatite_rect,12,0,12,0,1
5e7d11401ae8680ca60eed9e,TCR,2024-06-10_14h49.56.077,LearnStrategy,2023.2.3,Linux x86_64,60.06366749,8,2,14,,,,,,,,1,05,,,,,,,,,,,3,2.582,0,,,,,,0.114430779,-0.254271268,1,0,0,2.5825,Diorite_rect,13,0,13,0,1
5e7d11401ae8680ca60eed9e,TCR,2024-06-10_14h49.56.077,LearnStrategy,2023.2.3,Linux x86_64,60.06366749,8,2,15,,,,,,,,8,15,,,,,,,,,,,8,3.89,1,,,,,,0.397114508,-0.406491655,1,0,0,3.8904,Pumice_rect,14,0,14,0,1
5e7d11401ae8680ca60eed9e,TCR,2024-06-10_14h49.56.077,LearnStrategy,2023.2.3,Linux x86_64,60.06366749,8,2,16,,,,,,,,1,14,,,,,,,,,,,1,5.084,1,,,,,,-0.344238331,-0.243745388,1,0,0,5.0845,Andesite_rect,15,0,15,0,1
5e7d11401ae8680ca60eed9e,TCR,2024-06-10_14h49.56.077,LearnStrategy,2023.2.3,Linux x86_64,60.06366749,9,1,1,-0.034177103,-0.006907659,1,0,0,15.1382,rock_grid_rect_2,6,16,-1,-1,15.138,-0.391185152,-0.267900299,1,0,0,12.0759,Andesite_rect,1,12.076,0,0,0,0,0,1,,,,,,,,,,,,
5e7d11401ae8680ca60eed9e,TCR,2024-06-10_14h49.56.077,LearnStrategy,2023.2.3,Linux x86_64,60.06366749,9,1,2,0.163598573,0.002352985,1,0,0,2.7447,rock_grid_rect_2,2,14,-1,-1,2.745,-0.33042023,-0.235160405,1,0,0,5.7301,Andesite_rect,1,5.73,0,1,0,1,0,1,,,,,,,,,,,,
5e7d11401ae8680ca60eed9e,TCR,2024-06-10_14h49.56.077,LearnStrategy,2023.2.3,Linux x86_64,60.06366749,9,1,3,0.131393184,-0.017886233,1,0,0,0.8418,rock_grid_rect_2,3,09,-1,-1,0.842,0.130785516,-0.235755647,1,0,0,1.2647,Diorite_rect,3,1.265,1,2,0,2,0,1,,,,,,,,,,,,
5e7d11401ae8680ca60eed9e,TCR,2024-06-10_14h49.56.077,LearnStrategy,2023.2.3,Linux x86_64,60.06366749,9,1,4,0.169067383,0.00771041,1,0,0,1.9174,rock_grid_rect_2,4,08,-1,-1,1.917,-0.073992254,-0.398860074,1,0,0,1.2545,Pegmatite_rect,6,1.255,0,3,0,3,0,1,,,,,,,,,,,,
5e7d11401ae8680ca60eed9e,TCR,2024-06-10_14h49.56.077,LearnStrategy,2023.2.3,Linux x86_64,60.06366749,9,1,5,0.162383238,-0.010147691,1,0,0,0.7892,rock_grid_rect_2,3,12,-1,-1,0.789,-0.073992254,-0.408384342,1,0,0,1.8481,Pegmatite_rect,6,1.848,0,4,0,4,0,1,,,,,,,,,,,,
5e7d11401ae8680ca60eed9e,TCR,2024-06-10_14h49.56.077,LearnStrategy,2023.2.3,Linux x86_64,60.06366749,9,1,6,0.181828104,-0.009552449,1,0,0,0.6893,rock_grid_rect_2,6,03,-1,-1,0.689,-0.094652356,-0.401241141,1,0,0,1.3724,Pegmatite_rect,6,1.372,1,5,0,5,0,1,,,,,,,,,,,,
5e7d11401ae8680ca60eed9e,TCR,2024-06-10_14h49.56.077,LearnStrategy,2023.2.3,Linux x86_64,60.06366749,9,1,7,0.162990906,-0.005385557,1,0,0,0.6588,rock_grid_rect_2,7,07,-1,-1,0.659,-0.081284017,-0.4149324,1,0,0,1.2058,Pegmatite_rect,6,1.206,0,6,0,6,0,1,,,,,,,,,,,,
5e7d11401ae8680ca60eed9e,TCR,2024-06-10_14h49.56.077,LearnStrategy,2023.2.3,Linux x86_64,60.06366749,9,1,8,0.173320957,-0.001218665,1,0,0,0.733,rock_grid_rect_2,4,01,-1,-1,0.733,0.353185101,-0.235160405,1,0,0,1.2601,Gabbro_rect,4,1.26,1,7,0,7,0,1,,,,,,,,,,,,
5e7d11401ae8680ca60eed9e,TCR,2024-06-10_14h49.56.077,LearnStrategy,2023.2.3,Linux x86_64,60.06366749,9,1,9,0.175143959,-0.001218665,1,0,0,0.7632,rock_grid_rect_2,2,04,-1,-1,0.763,-0.152378989,-0.24706579,1,0,0,1.8269,Basalt_rect,2,1.827,1,8,0,8,0,1,,,,,,,,,,,,
5e7d11401ae8680ca60eed9e,TCR,2024-06-10_14h49.56.077,LearnStrategy,2023.2.3,Linux x86_64,60.06366749,9,1,10,0.158737431,-0.001218665,1,0,0,0.8144,rock_grid_rect_2,1,04,-1,-1,0.814,0.123493704,-0.232779289,1,0,0,4.113,Diorite_rect,3,4.113,0,9,0,9,0,1,,,,,,,,,,,,
5e7d11401ae8680ca60eed9e,TCR,2024-06-10_14h49.56.077,LearnStrategy,2023.2.3,Linux x86_64,60.06366749,9,1,11,0.173928624,-0.008361916,1,0,0,0.7293,rock_grid_rect_2,4,16,-1,-1,0.729,-0.347434426,-0.239922589,1,0,0,1.4463,Andesite_rect,1,1.446,0,10,0,10,0,1,,,,,,,,,,,,
5e7d11401ae8680ca60eed9e,TCR,2024-06-10_14h49.56.077,LearnStrategy,2023.2.3,Linux x86_64,60.06366749,9,1,12,0.170282718,-0.008957207,1,0,0,1.062,rock_grid_rect_2,5,10,-1,-1,1.062,-0.329204945,-0.401836383,1,0,0,1.5453,Obsidian_rect,5,1.545,1,11,0,11,0,1,,,,,,,,,,,,
5e7d11401ae8680ca60eed9e,TCR,2024-06-10_14h49.56.077,LearnStrategy,2023.2.3,Linux x86_64,60.06366749,9,1,13,0.130177849,-0.003004441,1,0,0,0.7264,rock_grid_rect_2,1,09,-1,-1,0.726,0.327663857,-0.263138116,1,0,0,2.3663,Gabbro_rect,4,2.366,0,12,0,12,0,1,,,,,,,,,,,,
5e7d11401ae8680ca60eed9e,TCR,2024-06-10_14h49.56.077,LearnStrategy,2023.2.3,Linux x86_64,60.06366749,9,1,14,0.173320957,-0.018481525,1,0,0,0.6787,rock_grid_rect_2,3,11,-1,-1,0.679,0.118024894,-0.261352291,1,0,0,4.4475,Diorite_rect,3,4.448,1,13,0,13,0,1,,,,,,,,,,,,
5e7d11401ae8680ca60eed9e,TCR,2024-06-10_14h49.56.077,LearnStrategy,2023.2.3,Linux x86_64,60.06366749,9,1,15,0.176359295,-0.015505166,1,0,0,0.7083,rock_grid_rect_2,7,04,-1,-1,0.708,0.07913536,-0.408979683,1,0,0,2.5415,Peridotite_rect,7,2.541,1,14,0,14,0,1,,,,,,,,,,,,
5e7d11401ae8680ca60eed9e,TCR,2024-06-10_14h49.56.077,LearnStrategy,2023.2.3,Linux x86_64,60.06366749,9,1,16,0.199449868,0.001757743,1,0,0,0.7105,rock_grid_rect_2,7,15,-1,-1,0.711,-0.079461064,-0.400050558,1,0,0,4.4895,Pegmatite_rect,6,4.489,0,15,0,15,0,1,,,,,,,,,,,,
5e7d11401ae8680ca60eed9e,TCR,2024-06-10_14h49.56.077,LearnStrategy,2023.2.3,Linux x86_64,60.06366749,9,2,1,,,,,,,,2,12,,,,,,,,,,,8,2.874,0,,,,,,0.33981691,-0.385168815,1,0,0,2.8739,Pumice_rect,0,0,0,0,1
5e7d11401ae8680ca60eed9e,TCR,2024-06-10_14h49.56.077,LearnStrategy,2023.2.3,Linux x86_64,60.06366749,9,2,2,,,,,,,,8,09,,,,,,,,,,,8,0.876,1,,,,,,0.333740334,-0.395288424,1,0,0,0.8757,Pumice_rect,1,0,1,0,1
5e7d11401ae8680ca60eed9e,TCR,2024-06-10_14h49.56.077,LearnStrategy,2023.2.3,Linux x86_64,60.06366749,9,2,3,,,,,,,,6,11,,,,,,,,,,,6,1.701,1,,,,,,-0.066092824,-0.412551333,1,0,0,1.7012,Pegmatite_rect,2,0,2,0,1
5e7d11401ae8680ca60eed9e,TCR,2024-06-10_14h49.56.077,LearnStrategy,2023.2.3,Linux x86_64,60.06366749,9,2,4,,,,,,,,3,14,,,,,,,,,,,3,1.308,1,,,,,,0.142330903,-0.233969822,1,0,0,1.3076,Diorite_rect,3,0,3,0,1
5e7d11401ae8680ca60eed9e,TCR,2024-06-10_14h49.56.077,LearnStrategy,2023.2.3,Linux x86_64,60.06366749,9,2,5,,,,,,,,4,05,,,,,,,,,,,6,1.722,0,,,,,,-0.074599922,-0.4149324,1,0,0,1.7224,Pegmatite_rect,4,0,4,0,1
5e7d11401ae8680ca60eed9e,TCR,2024-06-10_14h49.56.077,LearnStrategy,2023.2.3,Linux x86_64,60.06366749,9,2,6,,,,,,,,8,14,,,,,,,,,,,8,1.57,1,,,,,,0.386605825,-0.381597165,1,0,0,1.5695,Pumice_rect,5,0,5,0,1
5e7d11401ae8680ca60eed9e,TCR,2024-06-10_14h49.56.077,LearnStrategy,2023.2.3,Linux x86_64,60.06366749,9,2,7,,,,,,,,7,14,,,,,,,,,,,6,2.163,0,,,,,,-0.060016346,-0.406598616,1,0,0,2.1626,Pegmatite_rect,6,0,6,0,1
5e7d11401ae8680ca60eed9e,TCR,2024-06-10_14h49.56.077,LearnStrategy,2023.2.3,Linux x86_64,60.06366749,9,2,8,,,,,,,,7,02,,,,,,,,,,,6,1.764,0,,,,,,-0.193091526,-0.382192506,1,0,0,1.7644,Pegmatite_rect,7,0,7,0,1
5e7d11401ae8680ca60eed9e,TCR,2024-06-10_14h49.56.077,LearnStrategy,2023.2.3,Linux x86_64,60.06366749,9,2,9,,,,,,,,5,11,,,,,,,,,,,5,1.676,1,,,,,,-0.369309764,-0.395288424,1,0,0,1.6755,Obsidian_rect,8,0,8,0,1
5e7d11401ae8680ca60eed9e,TCR,2024-06-10_14h49.56.077,LearnStrategy,2023.2.3,Linux x86_64,60.06366749,9,2,10,,,,,,,,5,05,,,,,,,,,,,5,1.052,1,,,,,,-0.345611473,-0.419099292,1,0,0,1.0525,Obsidian_rect,9,0,9,0,1
5e7d11401ae8680ca60eed9e,TCR,2024-06-10_14h49.56.077,LearnStrategy,2023.2.3,Linux x86_64,60.06366749,9,2,11,,,,,,,,1,03,,,,,,,,,,,2,2.38,0,,,,,,-0.135364843,-0.232779289,1,0,0,2.3803,Basalt_rect,10,0,10,0,1
5e7d11401ae8680ca60eed9e,TCR,2024-06-10_14h49.56.077,LearnStrategy,2023.2.3,Linux x86_64,60.06366749,9,2,12,,,,,,,,1,11,,,,,,,,,,,3,1.069,0,,,,,,0.12713961,-0.242898947,1,0,0,1.069,Diorite_rect,11,0,11,0,1
5e7d11401ae8680ca60eed9e,TCR,2024-06-10_14h49.56.077,LearnStrategy,2023.2.3,Linux x86_64,60.06366749,9,2,13,,,,,,,,3,06,,,,,,,,,,,3,1.463,1,,,,,,0.130177849,-0.253613748,1,0,0,1.4632,Diorite_rect,12,0,12,0,1
5e7d11401ae8680ca60eed9e,TCR,2024-06-10_14h49.56.077,LearnStrategy,2023.2.3,Linux x86_64,60.06366749,9,2,14,,,,,,,,4,10,,,,,,,,,,,6,6.345,0,,,,,,-0.157240231,-0.38338299,1,0,0,6.3449,Pegmatite_rect,13,0,13,0,1
5e7d11401ae8680ca60eed9e,TCR,2024-06-10_14h49.56.077,LearnStrategy,2023.2.3,Linux x86_64,60.06366749,9,2,15,,,,,,,,6,13,,,,,,,,,,,3,1.342,0,,,,,,0.111948417,-0.249446906,1,0,0,1.3417,Diorite_rect,14,0,14,0,1
5e7d11401ae8680ca60eed9e,TCR,2024-06-10_14h49.56.077,LearnStrategy,2023.2.3,Linux x86_64,60.06366749,9,2,16,,,,,,,,2,16,,,,,,,,,,,2,1.618,1,,,,,,-0.142048938,-0.25063739,1,0,0,1.6181,Basalt_rect,15,0,15,0,1
5e7d11401ae8680ca60eed9e,TCR,2024-06-10_14h49.56.077,LearnStrategy,2023.2.3,Linux x86_64,60.06366749,,,,,,,,,,,,,,,,,,,,,,,,,,,,,,,,,,,,,,,,,,
5e7d11401ae8680ca60eed9e,TCR,2024-06-10_14h49.56.077,LearnStrategy,2023.2.3,Linux x86_64,60.06366749,,,,,,,,,,,,,,,,,,,,,,,,,,,,,,,,,,,,,,,,,,
5e7d11401ae8680ca60eed9e,TCR,2024-06-10_14h49.56.077,LearnStrategy,2023.2.3,Linux x86_64,60.06366749,,,,,,,,,,,6,16,1,1,,,,,,,,,,,,,,,,,,,,,,,,,,,,
5e7d11401ae8680ca60eed9e,TCR,2024-06-10_14h49.56.077,LearnStrategy,2023.2.3,Linux x86_64,60.06366749,,,,,,,,,,,3,16,1,2,,,,,,,,,,,,,,,,,,,,,,,,,,,,
5e7d11401ae8680ca60eed9e,TCR,2024-06-10_14h49.56.077,LearnStrategy,2023.2.3,Linux x86_64,60.06366749,,,,,,,,,,,4,12,1,3,,,,,,,,,,,,,,,,,,,,,,,,,,,,
5e7d11401ae8680ca60eed9e,TCR,2024-06-10_14h49.56.077,LearnStrategy,2023.2.3,Linux x86_64,60.06366749,,,,,,,,,,,7,05,1,4,,,,,,,,,,,,,,,,,,,,,,,,,,,,
5e7d11401ae8680ca60eed9e,TCR,2024-06-10_14h49.56.077,LearnStrategy,2023.2.3,Linux x86_64,60.06366749,,,,,,,,,,,5,12,1,5,,,,,,,,,,,,,,,,,,,,,,,,,,,,
5e7d11401ae8680ca60eed9e,TCR,2024-06-10_14h49.56.077,LearnStrategy,2023.2.3,Linux x86_64,60.06366749,,,,,,,,,,,2,09,1,6,,,,,,,,,,,,,,,,,,,,,,,,,,,,
5e7d11401ae8680ca60eed9e,TCR,2024-06-10_14h49.56.077,LearnStrategy,2023.2.3,Linux x86_64,60.06366749,,,,,,,,,,,8,10,1,7,,,,,,,,,,,,,,,,,,,,,,,,,,,,
5e7d11401ae8680ca60eed9e,TCR,2024-06-10_14h49.56.077,LearnStrategy,2023.2.3,Linux x86_64,60.06366749,,,,,,,,,,,2,02,1,8,,,,,,,,,,,,,,,,,,,,,,,,,,,,
5e7d11401ae8680ca60eed9e,TCR,2024-06-10_14h49.56.077,LearnStrategy,2023.2.3,Linux x86_64,60.06366749,,,,,,,,,,,2,14,2,1,,,,,,,,,,,,,,,,,,,,,,,,,,,,
5e7d11401ae8680ca60eed9e,TCR,2024-06-10_14h49.56.077,LearnStrategy,2023.2.3,Linux x86_64,60.06366749,,,,,,,,,,,6,03,2,2,,,,,,,,,,,,,,,,,,,,,,,,,,,,
5e7d11401ae8680ca60eed9e,TCR,2024-06-10_14h49.56.077,LearnStrategy,2023.2.3,Linux x86_64,60.06366749,,,,,,,,,,,4,16,2,3,,,,,,,,,,,,,,,,,,,,,,,,,,,,
5e7d11401ae8680ca60eed9e,TCR,2024-06-10_14h49.56.077,LearnStrategy,2023.2.3,Linux x86_64,60.06366749,,,,,,,,,,,3,15,2,4,,,,,,,,,,,,,,,,,,,,,,,,,,,,
5e7d11401ae8680ca60eed9e,TCR,2024-06-10_14h49.56.077,LearnStrategy,2023.2.3,Linux x86_64,60.06366749,,,,,,,,,,,5,10,2,5,,,,,,,,,,,,,,,,,,,,,,,,,,,,
5e7d11401ae8680ca60eed9e,TCR,2024-06-10_14h49.56.077,LearnStrategy,2023.2.3,Linux x86_64,60.06366749,,,,,,,,,,,1,10,2,6,,,,,,,,,,,,,,,,,,,,,,,,,,,,
5e7d11401ae8680ca60eed9e,TCR,2024-06-10_14h49.56.077,LearnStrategy,2023.2.3,Linux x86_64,60.06366749,,,,,,,,,,,5,02,2,7,,,,,,,,,,,,,,,,,,,,,,,,,,,,
5e7d11401ae8680ca60eed9e,TCR,2024-06-10_14h49.56.077,LearnStrategy,2023.2.3,Linux x86_64,60.06366749,,,,,,,,,,,5,04,2,8,,,,,,,,,,,,,,,,,,,,,,,,,,,,
5e7d11401ae8680ca60eed9e,TCR,2024-06-10_14h49.56.077,LearnStrategy,2023.2.3,Linux x86_64,60.06366749,,,,,,,,,,,4,09,3,1,,,,,,,,,,,,,,,,,,,,,,,,,,,,
5e7d11401ae8680ca60eed9e,TCR,2024-06-10_14h49.56.077,LearnStrategy,2023.2.3,Linux x86_64,60.06366749,,,,,,,,,,,6,09,3,2,,,,,,,,,,,,,,,,,,,,,,,,,,,,
5e7d11401ae8680ca60eed9e,TCR,2024-06-10_14h49.56.077,LearnStrategy,2023.2.3,Linux x86_64,60.06366749,,,,,,,,,,,4,08,3,3,,,,,,,,,,,,,,,,,,,,,,,,,,,,
5e7d11401ae8680ca60eed9e,TCR,2024-06-10_14h49.56.077,LearnStrategy,2023.2.3,Linux x86_64,60.06366749,,,,,,,,,,,7,04,3,4,,,,,,,,,,,,,,,,,,,,,,,,,,,,
5e7d11401ae8680ca60eed9e,TCR,2024-06-10_14h49.56.077,LearnStrategy,2023.2.3,Linux x86_64,60.06366749,,,,,,,,,,,7,12,3,5,,,,,,,,,,,,,,,,,,,,,,,,,,,,
5e7d11401ae8680ca60eed9e,TCR,2024-06-10_14h49.56.077,LearnStrategy,2023.2.3,Linux x86_64,60.06366749,,,,,,,,,,,2,05,3,6,,,,,,,,,,,,,,,,,,,,,,,,,,,,
5e7d11401ae8680ca60eed9e,TCR,2024-06-10_14h49.56.077,LearnStrategy,2023.2.3,Linux x86_64,60.06366749,,,,,,,,,,,3,11,3,7,,,,,,,,,,,,,,,,,,,,,,,,,,,,
5e7d11401ae8680ca60eed9e,TCR,2024-06-10_14h49.56.077,LearnStrategy,2023.2.3,Linux x86_64,60.06366749,,,,,,,,,,,3,09,3,8,,,,,,,,,,,,,,,,,,,,,,,,,,,,
5e7d11401ae8680ca60eed9e,TCR,2024-06-10_14h49.56.077,LearnStrategy,2023.2.3,Linux x86_64,60.06366749,,,,,,,,,,,8,02,4,1,,,,,,,,,,,,,,,,,,,,,,,,,,,,
5e7d11401ae8680ca60eed9e,TCR,2024-06-10_14h49.56.077,LearnStrategy,2023.2.3,Linux x86_64,60.06366749,,,,,,,,,,,8,03,4,2,,,,,,,,,,,,,,,,,,,,,,,,,,,,
5e7d11401ae8680ca60eed9e,TCR,2024-06-10_14h49.56.077,LearnStrategy,2023.2.3,Linux x86_64,60.06366749,,,,,,,,,,,6,12,4,3,,,,,,,,,,,,,,,,,,,,,,,,,,,,
5e7d11401ae8680ca60eed9e,TCR,2024-06-10_14h49.56.077,LearnStrategy,2023.2.3,Linux x86_64,60.06366749,,,,,,,,,,,1,09,4,4,,,,,,,,,,,,,,,,,,,,,,,,,,,,
5e7d11401ae8680ca60eed9e,TCR,2024-06-10_14h49.56.077,LearnStrategy,2023.2.3,Linux x86_64,60.06366749,,,,,,,,,,,5,14,4,5,,,,,,,,,,,,,,,,,,,,,,,,,,,,
5e7d11401ae8680ca60eed9e,TCR,2024-06-10_14h49.56.077,LearnStrategy,2023.2.3,Linux x86_64,60.06366749,,,,,,,,,,,1,16,4,6,,,,,,,,,,,,,,,,,,,,,,,,,,,,
5e7d11401ae8680ca60eed9e,TCR,2024-06-10_14h49.56.077,LearnStrategy,2023.2.3,Linux x86_64,60.06366749,,,,,,,,,,,7,13,4,7,,,,,,,,,,,,,,,,,,,,,,,,,,,,
5e7d11401ae8680ca60eed9e,TCR,2024-06-10_14h49.56.077,LearnStrategy,2023.2.3,Linux x86_64,60.06366749,,,,,,,,,,,2,11,4,8,,,,,,,,,,,,,,,,,,,,,,,,,,,,
5e7d11401ae8680ca60eed9e,TCR,2024-06-10_14h49.56.077,LearnStrategy,2023.2.3,Linux x86_64,60.06366749,,,,,,,,,,,3,07,5,1,,,,,,,,,,,,,,,,,,,,,,,,,,,,
5e7d11401ae8680ca60eed9e,TCR,2024-06-10_14h49.56.077,LearnStrategy,2023.2.3,Linux x86_64,60.06366749,,,,,,,,,,,8,13,5,2,,,,,,,,,,,,,,,,,,,,,,,,,,,,
5e7d11401ae8680ca60eed9e,TCR,2024-06-10_14h49.56.077,LearnStrategy,2023.2.3,Linux x86_64,60.06366749,,,,,,,,,,,8,06,5,3,,,,,,,,,,,,,,,,,,,,,,,,,,,,
5e7d11401ae8680ca60eed9e,TCR,2024-06-10_14h49.56.077,LearnStrategy,2023.2.3,Linux x86_64,60.06366749,,,,,,,,,,,7,15,5,4,,,,,,,,,,,,,,,,,,,,,,,,,,,,
5e7d11401ae8680ca60eed9e,TCR,2024-06-10_14h49.56.077,LearnStrategy,2023.2.3,Linux x86_64,60.06366749,,,,,,,,,,,1,07,5,5,,,,,,,,,,,,,,,,,,,,,,,,,,,,
5e7d11401ae8680ca60eed9e,TCR,2024-06-10_14h49.56.077,LearnStrategy,2023.2.3,Linux x86_64,60.06366749,,,,,,,,,,,6,08,5,6,,,,,,,,,,,,,,,,,,,,,,,,,,,,
5e7d11401ae8680ca60eed9e,TCR,2024-06-10_14h49.56.077,LearnStrategy,2023.2.3,Linux x86_64,60.06366749,,,,,,,,,,,4,14,5,7,,,,,,,,,,,,,,,,,,,,,,,,,,,,
5e7d11401ae8680ca60eed9e,TCR,2024-06-10_14h49.56.077,LearnStrategy,2023.2.3,Linux x86_64,60.06366749,,,,,,,,,,,6,07,5,8,,,,,,,,,,,,,,,,,,,,,,,,,,,,
5e7d11401ae8680ca60eed9e,TCR,2024-06-10_14h49.56.077,LearnStrategy,2023.2.3,Linux x86_64,60.06366749,,,,,,,,,,,2,04,6,1,,,,,,,,,,,,,,,,,,,,,,,,,,,,
5e7d11401ae8680ca60eed9e,TCR,2024-06-10_14h49.56.077,LearnStrategy,2023.2.3,Linux x86_64,60.06366749,,,,,,,,,,,5,07,6,2,,,,,,,,,,,,,,,,,,,,,,,,,,,,
5e7d11401ae8680ca60eed9e,TCR,2024-06-10_14h49.56.077,LearnStrategy,2023.2.3,Linux x86_64,60.06366749,,,,,,,,,,,8,16,6,3,,,,,,,,,,,,,,,,,,,,,,,,,,,,
5e7d11401ae8680ca60eed9e,TCR,2024-06-10_14h49.56.077,LearnStrategy,2023.2.3,Linux x86_64,60.06366749,,,,,,,,,,,1,04,6,4,,,,,,,,,,,,,,,,,,,,,,,,,,,,
5e7d11401ae8680ca60eed9e,TCR,2024-06-10_14h49.56.077,LearnStrategy,2023.2.3,Linux x86_64,60.06366749,,,,,,,,,,,1,01,6,5,,,,,,,,,,,,,,,,,,,,,,,,,,,,
5e7d11401ae8680ca60eed9e,TCR,2024-06-10_14h49.56.077,LearnStrategy,2023.2.3,Linux x86_64,60.06366749,,,,,,,,,,,3,12,6,6,,,,,,,,,,,,,,,,,,,,,,,,,,,,
5e7d11401ae8680ca60eed9e,TCR,2024-06-10_14h49.56.077,LearnStrategy,2023.2.3,Linux x86_64,60.06366749,,,,,,,,,,,4,01,6,7,,,,,,,,,,,,,,,,,,,,,,,,,,,,
5e7d11401ae8680ca60eed9e,TCR,2024-06-10_14h49.56.077,LearnStrategy,2023.2.3,Linux x86_64,60.06366749,,,,,,,,,,,7,07,6,8,,,,,,,,,,,,,,,,,,,,,,,,,,,,