participant,condition,date,expName,psychopyVersion,OS,frameRate,block,phase,trial,learn_mouse_2.x,learn_mouse_2.y,learn_mouse_2.leftButton,learn_mouse_2.midButton,learn_mouse_2.rightButton,learn_mouse_2.time,learn_mouse_2.clicked_name,cat,token,row,col,t_select,cat_mouse_l.x,cat_mouse_l.y,cat_mouse_l.leftButton,cat_mouse_l.midButton,cat_mouse_l.rightButton,cat_mouse_l.time,cat_mouse_l.clicked_name,resp,t_resp,corr,train_trials.thisRepN,train_trials.thisTrialN,train_trials.thisN,train_trials.thisIndex,train_trials.ran,cat_mouse_t.x,cat_mouse_t.y,cat_mouse_t.leftButton,cat_mouse_t.midButton,cat_mouse_t.rightButton,cat_mouse_t.time,cat_mouse_t.clicked_name,test_trials.thisRepN,test_trials.thisTrialN,test_trials.thisN,test_trials.thisIndex,test_trials.ran,Bonus
5e914ee346d11b48197172c2,TCR,2024-06-20_13h27.46.870,LearnStrategy,2023.2.3,Win32,60.24096386,,,,,,,,,,,,,,,,,,,,,,,,,,,,,,,,,,,,,,,,,,,
5e914ee346d11b48197172c2,TCR,2024-06-20_13h27.46.870,LearnStrategy,2023.2.3,Win32,60.24096386,1,1,1,0.031423696,-0.008333333,1,0,0,2.7772,rock_grid_rect_2,2,02,-1,-1,2.777,0.173090363,-0.245138931,1,0,0,3.441,Diorite_rect,3,3.441,0,0,0,0,0,1,,,,,,,,,,,,,
5e914ee346d11b48197172c2,TCR,2024-06-20_13h27.46.870,LearnStrategy,2023.2.3,Win32,60.24096386,1,1,2,-0.006076304,0.005555534,1,0,0,1.4657,rock_grid_rect_2,3,06,-1,-1,1.466,0.127257029,-0.256944466,1,0,0,2.7231,Diorite_rect,3,2.723,1,1,0,1,0,1,,,,,,,,,,,,,
5e914ee346d11b48197172c2,TCR,2024-06-20_13h27.46.870,LearnStrategy,2023.2.3,Win32,60.24096386,1,1,3,0.034895833,-0.020138899,1,0,0,1.0993,rock_grid_rect_2,8,14,-1,-1,1.099,-0.3734375,-0.265277799,1,0,0,4.6407,Andesite_rect,1,4.641,0,2,0,2,0,1,,,,,,,,,,,,,
5e914ee346d11b48197172c2,TCR,2024-06-20_13h27.46.870,LearnStrategy,2023.2.3,Win32,60.24096386,1,1,4,0.055034765,-0.0125,1,0,0,1.0031,rock_grid_rect_2,5,12,-1,-1,1.003,-0.419965235,-0.409722265,1,0,0,2.7825,Obsidian_rect,5,2.783,1,3,0,3,0,1,,,,,,,,,,,,,
5e914ee346d11b48197172c2,TCR,2024-06-20_13h27.46.870,LearnStrategy,2023.2.3,Win32,60.24096386,1,1,5,0.009201431,0.003472201,1,0,0,1.0371,rock_grid_rect_2,8,16,-1,-1,1.037,-0.119270833,-0.3875,1,0,0,5.2169,Pegmatite_rect,6,5.217,0,4,0,4,0,1,,,,,,,,,,,,,
5e914ee346d11b48197172c2,TCR,2024-06-20_13h27.46.870,LearnStrategy,2023.2.3,Win32,60.24096386,1,1,6,0.027257029,-0.00625,1,0,0,1.0045,rock_grid_rect_2,7,08,-1,-1,1.005,-0.328993034,-0.25,1,0,0,3.1361,Andesite_rect,1,3.136,0,5,0,5,0,1,,,,,,,,,,,,,
5e914ee346d11b48197172c2,TCR,2024-06-20_13h27.46.870,LearnStrategy,2023.2.3,Win32,60.24096386,1,1,7,0.034201431,0.007638868,1,0,0,0.8847,rock_grid_rect_2,6,13,-1,-1,0.885,0.383507029,-0.256944466,1,0,0,1.4487,Gabbro_rect,4,1.449,0,6,0,6,0,1,,,,,,,,,,,,,
5e914ee346d11b48197172c2,TCR,2024-06-20_13h27.46.870,LearnStrategy,2023.2.3,Win32,60.24096386,1,1,8,-0.063020833,-0.013888899,1,0,0,0.9182,rock_grid_rect_2,5,07,-1,-1,0.918,0.416145833,-0.402777799,1,0,0,1.9495,Pumice_rect,8,1.95,0,7,0,7,0,1,,,,,,,,,,,,,
5e914ee346d11b48197172c2,TCR,2024-06-20_13h27.46.870,LearnStrategy,2023.2.3,Win32,60.24096386,1,1,9,-0.060242971,0.004166667,1,0,0,0.7511,rock_grid_rect_2,3,15,-1,-1,0.751,-0.344965235,-0.247222265,1,0,0,8.6352,Andesite_rect,1,8.635,0,8,0,8,0,1,,,,,,,,,,,,,
5e914ee346d11b48197172c2,TCR,2024-06-20_13h27.46.870,LearnStrategy,2023.2.3,Win32,60.24096386,1,1,10,0.018923696,-0.006944466,1,0,0,1.0165,rock_grid_rect_2,4,10,-1,-1,1.017,0.425173696,-0.248611132,1,0,0,1.3642,Gabbro_rect,4,1.364,1,9,0,9,0,1,,,,,,,,,,,,,
5e914ee346d11b48197172c2,TCR,2024-06-20_13h27.46.870,LearnStrategy,2023.2.3,Win32,60.24096386,1,1,11,0.035590363,0.001388868,1,0,0,0.7439,rock_grid_rect_2,7,06,-1,-1,0.744,0.386284765,-0.40625,1,0,0,2.8852,Pumice_rect,8,2.885,0,10,0,10,0,1,,,,,,,,,,,,,
5e914ee346d11b48197172c2,TCR,2024-06-20_13h27.46.870,LearnStrategy,2023.2.3,Win32,60.24096386,1,1,12,-0.0296875,0.015972201,1,0,0,0.6789,rock_grid_rect_2,1,06,-1,-1,0.679,-0.142881902,-0.256944466,1,0,0,1.6058,Basalt_rect,2,1.606,0,11,0,11,0,1,,,,,,,,,,,,,
5e914ee346d11b48197172c2,TCR,2024-06-20_13h27.46.870,LearnStrategy,2023.2.3,Win32,60.24096386,1,1,13,-0.053298569,-0.011805566,1,0,0,1.2359,rock_grid_rect_2,1,04,-1,-1,1.236,0.154340363,-0.250694466,1,0,0,1.819,Diorite_rect,3,1.819,0,12,0,12,0,1,,,,,,,,,,,,,
5e914ee346d11b48197172c2,TCR,2024-06-20_13h27.46.870,LearnStrategy,2023.2.3,Win32,60.24096386,1,1,14,0.025173696,-0.0125,1,0,0,0.7272,rock_grid_rect_2,4,03,-1,-1,0.727,-0.343576368,-0.253472265,1,0,0,2.4229,Andesite_rect,1,2.423,0,13,0,13,0,1,,,,,,,,,,,,,
5e914ee346d11b48197172c2,TCR,2024-06-20_13h27.46.870,LearnStrategy,2023.2.3,Win32,60.24096386,1,1,15,0.048090363,-0.000694466,1,0,0,0.7389,rock_grid_rect_2,2,05,-1,-1,0.739,-0.133159701,-0.419444466,1,0,0,2.7724,Pegmatite_rect,6,2.772,0,14,0,14,0,1,,,,,,,,,,,,,
5e914ee346d11b48197172c2,TCR,2024-06-20_13h27.46.870,LearnStrategy,2023.2.3,Win32,60.24096386,1,1,16,0.030034765,-0.009027799,1,0,0,1.0474,rock_grid_rect_2,6,06,-1,-1,1.047,0.385590363,-0.404166667,1,0,0,2.716,Pumice_rect,8,2.716,0,15,0,15,0,1,,,,,,,,,,,,,
5e914ee346d11b48197172c2,TCR,2024-06-20_13h27.46.870,LearnStrategy,2023.2.3,Win32,60.24096386,1,2,1,,,,,,,,8,02,,,,,,,,,,,8,11.028,1,,,,,,0.397395833,-0.385416667,1,0,0,11.0277,Pumice_rect,0,0,0,0,1,
5e914ee346d11b48197172c2,TCR,2024-06-20_13h27.46.870,LearnStrategy,2023.2.3,Win32,60.24096386,1,2,2,,,,,,,,4,11,,,,,,,,,,,2,7.159,0,,,,,,-0.115798569,-0.25625,1,0,0,7.1593,Basalt_rect,1,0,1,0,1,
5e914ee346d11b48197172c2,TCR,2024-06-20_13h27.46.870,LearnStrategy,2023.2.3,Win32,60.24096386,1,2,3,,,,,,,,2,04,,,,,,,,,,,2,2.658,1,,,,,,-0.113715235,-0.251388931,1,0,0,2.6576,Basalt_rect,2,0,2,0,1,
5e914ee346d11b48197172c2,TCR,2024-06-20_13h27.46.870,LearnStrategy,2023.2.3,Win32,60.24096386,1,2,4,,,,,,,,2,14,,,,,,,,,,,8,3.034,0,,,,,,0.346007029,-0.406944466,1,0,0,3.0336,Pumice_rect,3,0,3,0,1,
5e914ee346d11b48197172c2,TCR,2024-06-20_13h27.46.870,LearnStrategy,2023.2.3,Win32,60.24096386,1,2,5,,,,,,,,7,04,,,,,,,,,,,7,7.97,1,,,,,,0.202257029,-0.4,1,0,0,7.9697,Peridotite_rect,4,0,4,0,1,
5e914ee346d11b48197172c2,TCR,2024-06-20_13h27.46.870,LearnStrategy,2023.2.3,Win32,60.24096386,1,2,6,,,,,,,,5,05,,,,,,,,,,,5,2.724,1,,,,,,-0.361631902,-0.396527799,1,0,0,2.7244,Obsidian_rect,5,0,5,0,1,
5e914ee346d11b48197172c2,TCR,2024-06-20_13h27.46.870,LearnStrategy,2023.2.3,Win32,60.24096386,1,2,7,,,,,,,,6,11,,,,,,,,,,,6,4.757,1,,,,,,-0.088715235,-0.390972265,1,0,0,4.7568,Pegmatite_rect,6,0,6,0,1,
5e914ee346d11b48197172c2,TCR,2024-06-20_13h27.46.870,LearnStrategy,2023.2.3,Win32,60.24096386,1,2,8,,,,,,,,3,12,,,,,,,,,,,3,10.545,1,,,,,,0.194618098,-0.245833333,1,0,0,10.5449,Diorite_rect,7,0,7,0,1,
5e914ee346d11b48197172c2,TCR,2024-06-20_13h27.46.870,LearnStrategy,2023.2.3,Win32,60.24096386,1,2,9,,,,,,,,6,09,,,,,,,,,,,7,3.868,0,,,,,,0.159201431,-0.395833333,1,0,0,3.8677,Peridotite_rect,8,0,8,0,1,
5e914ee346d11b48197172c2,TCR,2024-06-20_13h27.46.870,LearnStrategy,2023.2.3,Win32,60.24096386,1,2,10,,,,,,,,1,02,,,,,,,,,,,1,3.268,1,,,,,,-0.420659701,-0.243055598,1,0,0,3.2676,Andesite_rect,9,0,9,0,1,
5e914ee346d11b48197172c2,TCR,2024-06-20_13h27.46.870,LearnStrategy,2023.2.3,Win32,60.24096386,1,2,11,,,,,,,,3,08,,,,,,,,,,,1,5.735,0,,,,,,-0.3359375,-0.252777799,1,0,0,5.7349,Andesite_rect,10,0,10,0,1,
5e914ee346d11b48197172c2,TCR,2024-06-20_13h27.46.870,LearnStrategy,2023.2.3,Win32,60.24096386,1,2,12,,,,,,,,7,02,,,,,,,,,,,3,4.091,0,,,,,,0.090451431,-0.259722265,1,0,0,4.0907,Diorite_rect,11,0,11,0,1,
5e914ee346d11b48197172c2,TCR,2024-06-20_13h27.46.870,LearnStrategy,2023.2.3,Win32,60.24096386,1,2,13,,,,,,,,5,16,,,,,,,,,,,5,1.72,1,,,,,,-0.353993034,-0.382638931,1,0,0,1.7202,Obsidian_rect,12,0,12,0,1,
5e914ee346d11b48197172c2,TCR,2024-06-20_13h27.46.870,LearnStrategy,2023.2.3,Win32,60.24096386,1,2,14,,,,,,,,8,05,,,,,,,,,,,8,5.254,1,,,,,,0.375868098,-0.394444466,1,0,0,5.2539,Pumice_rect,13,0,13,0,1,
5e914ee346d11b48197172c2,TCR,2024-06-20_13h27.46.870,LearnStrategy,2023.2.3,Win32,60.24096386,1,2,15,,,,,,,,1,11,,,,,,,,,,,4,4.725,0,,,,,,0.373090363,-0.255555598,1,0,0,4.7248,Gabbro_rect,14,0,14,0,1,
5e914ee346d11b48197172c2,TCR,2024-06-20_13h27.46.870,LearnStrategy,2023.2.3,Win32,60.24096386,1,2,16,,,,,,,,4,05,,,,,,,,,,,1,3.869,0,,,,,,-0.350520833,-0.245833333,1,0,0,3.869,Andesite_rect,15,0,15,0,1,
5e914ee346d11b48197172c2,TCR,2024-06-20_13h27.46.870,LearnStrategy,2023.2.3,Win32,60.24096386,2,1,1,0.044618098,-0.015972233,1,0,0,1.4832,rock_grid_rect_2,3,11,-1,-1,1.483,0.427257029,-0.244444466,1,0,0,5.4916,Gabbro_rect,4,5.492,0,0,0,0,0,1,,,,,,,,,,,,,
5e914ee346d11b48197172c2,TCR,2024-06-20_13h27.46.870,LearnStrategy,2023.2.3,Win32,60.24096386,2,1,2,0.089757029,0.004861101,1,0,0,1.0068,rock_grid_rect_2,4,09,-1,-1,1.007,0.374479167,-0.244444466,1,0,0,4.133,Gabbro_rect,4,4.133,1,1,0,1,0,1,,,,,,,,,,,,,
5e914ee346d11b48197172c2,TCR,2024-06-20_13h27.46.870,LearnStrategy,2023.2.3,Win32,60.24096386,2,1,3,0.093229167,-0.008333333,1,0,0,0.9195,rock_grid_rect_2,7,14,-1,-1,0.919,-0.415104167,-0.260416667,1,0,0,8.6692,Andesite_rect,1,8.669,0,2,0,2,0,1,,,,,,,,,,,,,
5e914ee346d11b48197172c2,TCR,2024-06-20_13h27.46.870,LearnStrategy,2023.2.3,Win32,60.24096386,2,1,4,0.034895833,-0.005555566,1,0,0,1.0162,rock_grid_rect_2,2,02,-1,-1,1.016,-0.0984375,-0.235416667,1,0,0,2.904,Basalt_rect,2,2.904,1,3,0,3,0,1,,,,,,,,,,,,,
5e914ee346d11b48197172c2,TCR,2024-06-20_13h27.46.870,LearnStrategy,2023.2.3,Win32,60.24096386,2,1,5,0.0015625,-0.009722233,1,0,0,0.8233,rock_grid_rect_2,1,04,-1,-1,0.823,-0.412326368,-0.251388931,1,0,0,3.9334,Andesite_rect,1,3.933,1,4,0,4,0,1,,,,,,,,,,,,,
5e914ee346d11b48197172c2,TCR,2024-06-20_13h27.46.870,LearnStrategy,2023.2.3,Win32,60.24096386,2,1,6,-0.027604167,-0.00625,1,0,0,0.9736,rock_grid_rect_2,6,03,-1,-1,0.974,-0.137326368,-0.400694466,1,0,0,6.4344,Pegmatite_rect,6,6.434,1,5,0,5,0,1,,,,,,,,,,,,,
5e914ee346d11b48197172c2,TCR,2024-06-20_13h27.46.870,LearnStrategy,2023.2.3,Win32,60.24096386,2,1,7,-0.0046875,0.003472201,1,0,0,0.8901,rock_grid_rect_2,7,14,-1,-1,0.89,0.135590363,-0.406944466,1,0,0,10.2664,Peridotite_rect,7,10.266,1,6,0,6,0,1,,,,,,,,,,,,,
5e914ee346d11b48197172c2,TCR,2024-06-20_13h27.46.870,LearnStrategy,2023.2.3,Win32,60.24096386,2,1,8,0.047395833,-0.006944466,1,0,0,0.8663,rock_grid_rect_2,1,06,-1,-1,0.866,-0.394270833,-0.250694466,1,0,0,4.5208,Andesite_rect,1,4.521,1,7,0,7,0,1,,,,,,,,,,,,,
5e914ee346d11b48197172c2,TCR,2024-06-20_13h27.46.870,LearnStrategy,2023.2.3,Win32,60.24096386,2,1,9,0.012673696,-0.011805566,1,0,0,1.066,rock_grid_rect_2,4,09,-1,-1,1.066,0.411979167,-0.266666667,1,0,0,4.3042,Gabbro_rect,4,4.304,1,8,0,8,0,1,,,,,,,,,,,,,
5e914ee346d11b48197172c2,TCR,2024-06-20_13h27.46.870,LearnStrategy,2023.2.3,Win32,60.24096386,2,1,10,0.033507029,-0.009722233,1,0,0,1.1458,rock_grid_rect_2,3,06,-1,-1,1.146,0.1203125,-0.4125,1,0,0,7.8262,Peridotite_rect,7,7.826,0,9,0,9,0,1,,,,,,,,,,,,,
5e914ee346d11b48197172c2,TCR,2024-06-20_13h27.46.870,LearnStrategy,2023.2.3,Win32,60.24096386,2,1,11,0.069618098,-0.010416667,1,0,0,1.3347,rock_grid_rect_2,2,08,-1,-1,1.335,-0.121354167,-0.258333333,1,0,0,4.6502,Basalt_rect,2,4.65,1,10,0,10,0,1,,,,,,,,,,,,,
5e914ee346d11b48197172c2,TCR,2024-06-20_13h27.46.870,LearnStrategy,2023.2.3,Win32,60.24096386,2,1,12,0.027257029,0.001388868,1,0,0,0.783,rock_grid_rect_2,4,10,-1,-1,0.783,0.350868098,-0.257638931,1,0,0,3.7695,Gabbro_rect,4,3.769,1,11,0,11,0,1,,,,,,,,,,,,,
5e914ee346d11b48197172c2,TCR,2024-06-20_13h27.46.870,LearnStrategy,2023.2.3,Win32,60.24096386,2,1,13,0.052257029,-0.017361132,1,0,0,0.8793,rock_grid_rect_2,1,06,-1,-1,0.879,-0.370659701,-0.267361132,1,0,0,2.0983,Andesite_rect,1,2.098,1,12,0,12,0,1,,,,,,,,,,,,,
5e914ee346d11b48197172c2,TCR,2024-06-20_13h27.46.870,LearnStrategy,2023.2.3,Win32,60.24096386,2,1,14,-0.015798569,-0.006944466,1,0,0,0.7526,rock_grid_rect_2,4,01,-1,-1,0.753,0.125868098,-0.411111132,1,0,0,9.337,Peridotite_rect,7,9.337,0,13,0,13,0,1,,,,,,,,,,,,,
5e914ee346d11b48197172c2,TCR,2024-06-20_13h27.46.870,LearnStrategy,2023.2.3,Win32,60.24096386,2,1,15,0.017534765,0.001388868,1,0,0,1.4609,rock_grid_rect_2,6,13,-1,-1,1.461,-0.116492971,-0.411805598,1,0,0,9.5089,Pegmatite_rect,6,9.509,1,14,0,14,0,1,,,,,,,,,,,,,
5e914ee346d11b48197172c2,TCR,2024-06-20_13h27.46.870,LearnStrategy,2023.2.3,Win32,60.24096386,2,1,16,0.022395833,-0.010416667,1,0,0,0.8234,rock_grid_rect_2,8,14,-1,-1,0.823,0.435590363,-0.400694466,1,0,0,6.4009,Pumice_rect,8,6.401,1,15,0,15,0,1,,,,,,,,,,,,,
5e914ee346d11b48197172c2,TCR,2024-06-20_13h27.46.870,LearnStrategy,2023.2.3,Win32,60.24096386,2,2,1,,,,,,,,8,10,,,,,,,,,,,8,5.442,1,,,,,,0.389757029,-0.407638931,1,0,0,5.4423,Pumice_rect,0,0,0,0,1,
5e914ee346d11b48197172c2,TCR,2024-06-20_13h27.46.870,LearnStrategy,2023.2.3,Win32,60.24096386,2,2,2,,,,,,,,7,13,,,,,,,,,,,6,3.523,0,,,,,,-0.130381902,-0.403472265,1,0,0,3.5234,Pegmatite_rect,1,0,1,0,1,
5e914ee346d11b48197172c2,TCR,2024-06-20_13h27.46.870,LearnStrategy,2023.2.3,Win32,60.24096386,2,2,3,,,,,,,,3,02,,,,,,,,,,,3,6.525,1,,,,,,0.146007029,-0.263888931,1,0,0,6.5253,Diorite_rect,2,0,2,0,1,
5e914ee346d11b48197172c2,TCR,2024-06-20_13h27.46.870,LearnStrategy,2023.2.3,Win32,60.24096386,2,2,4,,,,,,,,1,09,,,,,,,,,,,4,6.863,0,,,,,,0.375868098,-0.240277799,1,0,0,6.8632,Gabbro_rect,3,0,3,0,1,
5e914ee346d11b48197172c2,TCR,2024-06-20_13h27.46.870,LearnStrategy,2023.2.3,Win32,60.24096386,2,2,5,,,,,,,,5,11,,,,,,,,,,,5,1.533,1,,,,,,-0.358159701,-0.409027799,1,0,0,1.5328,Obsidian_rect,4,0,4,0,1,
5e914ee346d11b48197172c2,TCR,2024-06-20_13h27.46.870,LearnStrategy,2023.2.3,Win32,60.24096386,2,2,6,,,,,,,,8,08,,,,,,,,,,,7,4.224,0,,,,,,0.135590363,-0.397916667,1,0,0,4.2241,Peridotite_rect,5,0,5,0,1,
5e914ee346d11b48197172c2,TCR,2024-06-20_13h27.46.870,LearnStrategy,2023.2.3,Win32,60.24096386,2,2,7,,,,,,,,7,15,,,,,,,,,,,7,5.208,1,,,,,,0.107118098,-0.402777799,1,0,0,5.2078,Peridotite_rect,6,0,6,0,1,
5e914ee346d11b48197172c2,TCR,2024-06-20_13h27.46.870,LearnStrategy,2023.2.3,Win32,60.24096386,2,2,8,,,,,,,,2,12,,,,,,,,,,,8,3.157,0,,,,,,0.410590363,-0.411805598,1,0,0,3.1567,Pumice_rect,7,0,7,0,1,
5e914ee346d11b48197172c2,TCR,2024-06-20_13h27.46.870,LearnStrategy,2023.2.3,Win32,60.24096386,2,2,9,,,,,,,,3,10,,,,,,,,,,,4,4.474,0,,,,,,0.388368098,-0.246527799,1,0,0,4.4736,Gabbro_rect,8,0,8,0,1,
5e914ee346d11b48197172c2,TCR,2024-06-20_13h27.46.870,LearnStrategy,2023.2.3,Win32,60.24096386,2,2,10,,,,,,,,4,13,,,,,,,,,,,4,8.44,1,,,,,,0.400173696,-0.267361132,1,0,0,8.4398,Gabbro_rect,9,0,9,0,1,
5e914ee346d11b48197172c2,TCR,2024-06-20_13h27.46.870,LearnStrategy,2023.2.3,Win32,60.24096386,2,2,11,,,,,,,,6,16,,,,,,,,,,,6,6.787,1,,,,,,-0.101909637,-0.404861132,1,0,0,6.7865,Pegmatite_rect,10,0,10,0,1,
5e914ee346d11b48197172c2,TCR,2024-06-20_13h27.46.870,LearnStrategy,2023.2.3,Win32,60.24096386,2,2,12,,,,,,,,4,08,,,,,,,,,,,4,7.893,1,,,,,,0.400868098,-0.261805598,1,0,0,7.893,Gabbro_rect,11,0,11,0,1,
5e914ee346d11b48197172c2,TCR,2024-06-20_13h27.46.870,LearnStrategy,2023.2.3,Win32,60.24096386,2,2,13,,,,,,,,2,11,,,,,,,,,,,8,3.708,0,,,,,,0.440451431,-0.403472265,1,0,0,3.7083,Pumice_rect,12,0,12,0,1,
5e914ee346d11b48197172c2,TCR,2024-06-20_13h27.46.870,LearnStrategy,2023.2.3,Win32,60.24096386,2,2,14,,,,,,,,6,12,,,,,,,,,,,6,5.758,1,,,,,,-0.069270833,-0.4,1,0,0,5.7581,Pegmatite_rect,13,0,13,0,1,
5e914ee346d11b48197172c2,TCR,2024-06-20_13h27.46.870,LearnStrategy,2023.2.3,Win32,60.24096386,2,2,15,,,,,,,,1,05,,,,,,,,,,,7,2.691,0,,,,,,0.136979167,-0.4,1,0,0,2.6906,Peridotite_rect,14,0,14,0,1,
5e914ee346d11b48197172c2,TCR,2024-06-20_13h27.46.870,LearnStrategy,2023.2.3,Win32,60.24096386,2,2,16,,,,,,,,5,02,,,,,,,,,,,5,1.089,1,,,,,,-0.387326368,-0.404861132,1,0,0,1.0887,Obsidian_rect,15,0,15,0,1,
5e914ee346d11b48197172c2,TCR,2024-06-20_13h27.46.870,LearnStrategy,2023.2.3,Win32,60.24096386,3,1,1,0.122395833,0.000694434,1,0,0,1.044,rock_grid_rect_2,3,14,-1,-1,1.044,0.175868098,-0.246527799,1,0,0,9.5931,Diorite_rect,3,9.593,1,0,0,0,0,1,,,,,,,,,,,,,
5e914ee346d11b48197172c2,TCR,2024-06-20_13h27.46.870,LearnStrategy,2023.2.3,Win32,60.24096386,3,1,2,0.054340363,0.0125,1,0,0,0.8026,rock_grid_rect_2,5,09,-1,-1,0.803,-0.345659701,-0.403472265,1,0,0,1.2152,Obsidian_rect,5,1.215,1,1,0,1,0,1,,,,,,,,,,,,,
5e914ee346d11b48197172c2,TCR,2024-06-20_13h27.46.870,LearnStrategy,2023.2.3,Win32,60.24096386,3,1,3,0.050173696,-0.015972233,1,0,0,0.8277,rock_grid_rect_2,6,08,-1,-1,0.828,0.1265625,-0.407638931,1,0,0,3.7738,Peridotite_rect,7,3.774,0,2,0,2,0,1,,,,,,,,,,,,,
5e914ee346d11b48197172c2,TCR,2024-06-20_13h27.46.870,LearnStrategy,2023.2.3,Win32,60.24096386,3,1,4,-0.028298569,-0.011805566,1,0,0,0.821,rock_grid_rect_2,2,06,-1,-1,0.821,-0.097048569,-0.24375,1,0,0,4.087,Basalt_rect,2,4.087,1,3,0,3,0,1,,,,,,,,,,,,,
5e914ee346d11b48197172c2,TCR,2024-06-20_13h27.46.870,LearnStrategy,2023.2.3,Win32,60.24096386,3,1,5,0.028645833,-0.022222233,1,0,0,0.8233,rock_grid_rect_2,4,10,-1,-1,0.823,0.398784765,-0.248611132,1,0,0,2.9154,Gabbro_rect,4,2.915,1,4,0,4,0,1,,,,,,,,,,,,,
5e914ee346d11b48197172c2,TCR,2024-06-20_13h27.46.870,LearnStrategy,2023.2.3,Win32,60.24096386,3,1,6,0.0515625,-0.01875,1,0,0,0.7994,rock_grid_rect_2,7,16,-1,-1,0.799,0.384201431,-0.270833333,1,0,0,9.8933,Gabbro_rect,4,9.893,0,5,0,5,0,1,,,,,,,,,,,,,
5e914ee346d11b48197172c2,TCR,2024-06-20_13h27.46.870,LearnStrategy,2023.2.3,Win32,60.24096386,3,1,7,0.050173696,-0.002777799,1,0,0,0.6941,rock_grid_rect_2,2,16,-1,-1,0.694,0.418229167,-0.395138931,1,0,0,4.6585,Pumice_rect,8,4.659,0,6,0,6,0,1,,,,,,,,,,,,,
5e914ee346d11b48197172c2,TCR,2024-06-20_13h27.46.870,LearnStrategy,2023.2.3,Win32,60.24096386,3,1,8,-0.039409637,0.0125,1,0,0,0.7106,rock_grid_rect_2,1,14,-1,-1,0.711,0.139757029,-0.388888931,1,0,0,3.9032,Peridotite_rect,7,3.903,0,7,0,7,0,1,,,,,,,,,,,,,
5e914ee346d11b48197172c2,TCR,2024-06-20_13h27.46.870,LearnStrategy,2023.2.3,Win32,60.24096386,3,1,9,0.052951431,0.003472201,1,0,0,0.7346,rock_grid_rect_2,7,16,-1,-1,0.735,0.121701431,-0.388194466,1,0,0,2.1991,Peridotite_rect,7,2.199,1,8,0,8,0,1,,,,,,,,,,,,,
5e914ee346d11b48197172c2,TCR,2024-06-20_13h27.46.870,LearnStrategy,2023.2.3,Win32,60.24096386,3,1,10,0.0515625,-0.020138899,1,0,0,0.8695,rock_grid_rect_2,1,14,-1,-1,0.87,-0.069270833,-0.390972265,1,0,0,7.4534,Pegmatite_rect,6,7.453,0,9,0,9,0,1,,,,,,,,,,,,,
5e914ee346d11b48197172c2,TCR,2024-06-20_13h27.46.870,LearnStrategy,2023.2.3,Win32,60.24096386,3,1,11,0.025868098,-0.019444466,1,0,0,0.7271,rock_grid_rect_2,3,15,-1,-1,0.727,0.168923696,-0.255555598,1,0,0,4.2835,Diorite_rect,3,4.284,1,10,0,10,0,1,,,,,,,,,,,,,
5e914ee346d11b48197172c2,TCR,2024-06-20_13h27.46.870,LearnStrategy,2023.2.3,Win32,60.24096386,3,1,12,0.018229167,-0.007638899,1,0,0,0.6972,rock_grid_rect_2,2,10,-1,-1,0.697,-0.101909637,-0.247916667,1,0,0,4.9542,Basalt_rect,2,4.954,1,11,0,11,0,1,,,,,,,,,,,,,
5e914ee346d11b48197172c2,TCR,2024-06-20_13h27.46.870,LearnStrategy,2023.2.3,Win32,60.24096386,3,1,13,0.067534765,-0.025,1,0,0,0.6662,rock_grid_rect_2,8,16,-1,-1,0.666,0.409895833,-0.413194466,1,0,0,2.9536,Pumice_rect,8,2.954,1,12,0,12,0,1,,,,,,,,,,,,,
5e914ee346d11b48197172c2,TCR,2024-06-20_13h27.46.870,LearnStrategy,2023.2.3,Win32,60.24096386,3,1,14,0.021007029,0.006944434,1,0,0,0.6972,rock_grid_rect_2,8,15,-1,-1,0.697,-0.097742971,-0.247916667,1,0,0,5.5252,Basalt_rect,2,5.525,0,13,0,13,0,1,,,,,,,,,,,,,
5e914ee346d11b48197172c2,TCR,2024-06-20_13h27.46.870,LearnStrategy,2023.2.3,Win32,60.24096386,3,1,15,0.075868098,0.000694434,1,0,0,0.83,rock_grid_rect_2,1,16,-1,-1,0.83,-0.371354167,-0.258333333,1,0,0,3.9567,Andesite_rect,1,3.957,1,14,0,14,0,1,,,,,,,,,,,,,
5e914ee346d11b48197172c2,TCR,2024-06-20_13h27.46.870,LearnStrategy,2023.2.3,Win32,60.24096386,3,1,16,0.074479167,-0.001388899,1,0,0,0.7681,rock_grid_rect_2,4,01,-1,-1,0.768,0.455729167,-0.236805598,1,0,0,3.0494,Gabbro_rect,4,3.049,1,15,0,15,0,1,,,,,,,,,,,,,
5e914ee346d11b48197172c2,TCR,2024-06-20_13h27.46.870,LearnStrategy,2023.2.3,Win32,60.24096386,3,2,1,,,,,,,,5,08,,,,,,,,,,,5,1.205,1,,,,,,-0.392881902,-0.405555598,1,0,0,1.2054,Obsidian_rect,0,0,0,0,1,
5e914ee346d11b48197172c2,TCR,2024-06-20_13h27.46.870,LearnStrategy,2023.2.3,Win32,60.24096386,3,2,2,,,,,,,,6,05,,,,,,,,,,,6,2.937,1,,,,,,-0.1734375,-0.398611132,1,0,0,2.9366,Pegmatite_rect,1,0,1,0,1,
5e914ee346d11b48197172c2,TCR,2024-06-20_13h27.46.870,LearnStrategy,2023.2.3,Win32,60.24096386,3,2,3,,,,,,,,1,01,,,,,,,,,,,3,13.556,0,,,,,,0.1515625,-0.242361132,1,0,0,13.5564,Diorite_rect,2,0,2,0,1,
5e914ee346d11b48197172c2,TCR,2024-06-20_13h27.46.870,LearnStrategy,2023.2.3,Win32,60.24096386,3,2,4,,,,,,,,5,14,,,,,,,,,,,5,1.189,1,,,,,,-0.3796875,-0.404166667,1,0,0,1.1892,Obsidian_rect,3,0,3,0,1,
5e914ee346d11b48197172c2,TCR,2024-06-20_13h27.46.870,LearnStrategy,2023.2.3,Win32,60.24096386,3,2,5,,,,,,,,8,03,,,,,,,,,,,8,1.483,1,,,,,,0.364757029,-0.404861132,1,0,0,1.4832,Pumice_rect,4,0,4,0,1,
5e914ee346d11b48197172c2,TCR,2024-06-20_13h27.46.870,LearnStrategy,2023.2.3,Win32,60.24096386,3,2,6,,,,,,,,2,09,,,,,,,,,,,2,1.589,1,,,,,,-0.140104167,-0.253472265,1,0,0,1.5891,Basalt_rect,5,0,5,0,1,
5e914ee346d11b48197172c2,TCR,2024-06-20_13h27.46.870,LearnStrategy,2023.2.3,Win32,60.24096386,3,2,7,,,,,,,,7,05,,,,,,,,,,,6,4.514,0,,,,,,-0.131076368,-0.401388931,1,0,0,4.5137,Pegmatite_rect,6,0,6,0,1,
5e914ee346d11b48197172c2,TCR,2024-06-20_13h27.46.870,LearnStrategy,2023.2.3,Win32,60.24096386,3,2,8,,,,,,,,3,13,,,,,,,,,,,3,3.707,1,,,,,,0.148784765,-0.254861132,1,0,0,3.7068,Diorite_rect,7,0,7,0,1,
5e914ee346d11b48197172c2,TCR,2024-06-20_13h27.46.870,LearnStrategy,2023.2.3,Win32,60.24096386,3,2,9,,,,,,,,6,07,,,,,,,,,,,6,4.238,1,,,,,,-0.122742971,-0.3875,1,0,0,4.238,Pegmatite_rect,8,0,8,0,1,
5e914ee346d11b48197172c2,TCR,2024-06-20_13h27.46.870,LearnStrategy,2023.2.3,Win32,60.24096386,3,2,10,,,,,,,,7,07,,,,,,,,,,,4,3.169,0,,,,,,0.4453125,-0.236111132,1,0,0,3.1695,Gabbro_rect,9,0,9,0,1,
5e914ee346d11b48197172c2,TCR,2024-06-20_13h27.46.870,LearnStrategy,2023.2.3,Win32,60.24096386,3,2,11,,,,,,,,8,09,,,,,,,,,,,8,1.289,1,,,,,,0.396701431,-0.402777799,1,0,0,1.2892,Pumice_rect,10,0,10,0,1,
5e914ee346d11b48197172c2,TCR,2024-06-20_13h27.46.870,LearnStrategy,2023.2.3,Win32,60.24096386,3,2,12,,,,,,,,1,07,,,,,,,,,,,1,4.892,1,,,,,,-0.365798569,-0.254861132,1,0,0,4.8915,Andesite_rect,11,0,11,0,1,
5e914ee346d11b48197172c2,TCR,2024-06-20_13h27.46.870,LearnStrategy,2023.2.3,Win32,60.24096386,3,2,13,,,,,,,,3,07,,,,,,,,,,,1,1.112,0,,,,,,-0.4171875,-0.25,1,0,0,1.1117,Andesite_rect,12,0,12,0,1,
5e914ee346d11b48197172c2,TCR,2024-06-20_13h27.46.870,LearnStrategy,2023.2.3,Win32,60.24096386,3,2,14,,,,,,,,2,01,,,,,,,,,,,2,1.239,1,,,,,,-0.105381902,-0.260416667,1,0,0,1.2388,Basalt_rect,13,0,13,0,1,
5e914ee346d11b48197172c2,TCR,2024-06-20_13h27.46.870,LearnStrategy,2023.2.3,Win32,60.24096386,3,2,15,,,,,,,,4,12,,,,,,,,,,,2,1.139,0,,,,,,-0.101909637,-0.243055598,1,0,0,1.1394,Basalt_rect,14,0,14,0,1,
5e914ee346d11b48197172c2,TCR,2024-06-20_13h27.46.870,LearnStrategy,2023.2.3,Win32,60.24096386,3,2,16,,,,,,,,4,14,,,,,,,,,,,2,8.007,0,,,,,,-0.0859375,-0.24375,1,0,0,8.007,Basalt_rect,15,0,15,0,1,
5e914ee346d11b48197172c2,TCR,2024-06-20_13h27.46.870,LearnStrategy,2023.2.3,Win32,60.24096386,4,1,1,0.027257029,-0.0125,1,0,0,1.0831,rock_grid_rect_2,4,03,-1,-1,1.083,0.415451431,-0.249305598,1,0,0,4.2989,Gabbro_rect,4,4.299,1,0,0,0,0,1,,,,,,,,,,,,,
5e914ee346d11b48197172c2,TCR,2024-06-20_13h27.46.870,LearnStrategy,2023.2.3,Win32,60.24096386,4,1,2,0.025868098,0,1,0,0,0.698,rock_grid_rect_2,3,14,-1,-1,0.698,-0.3609375,-0.253472265,1,0,0,8.0964,Andesite_rect,1,8.096,0,1,0,1,0,1,,,,,,,,,,,,,
5e914ee346d11b48197172c2,TCR,2024-06-20_13h27.46.870,LearnStrategy,2023.2.3,Win32,60.24096386,4,1,3,0.055729167,0.001388868,1,0,0,0.7995,rock_grid_rect_2,2,10,-1,-1,0.799,-0.107465235,-0.254166667,1,0,0,3.8811,Basalt_rect,2,3.881,1,2,0,2,0,1,,,,,,,,,,,,,
5e914ee346d11b48197172c2,TCR,2024-06-20_13h27.46.870,LearnStrategy,2023.2.3,Win32,60.24096386,4,1,4,0.030729167,-0.007638899,1,0,0,0.8994,rock_grid_rect_2,8,13,-1,-1,0.899,0.4078125,-0.395833333,1,0,0,1.079,Pumice_rect,8,1.079,1,3,0,3,0,1,,,,,,,,,,,,,
5e914ee346d11b48197172c2,TCR,2024-06-20_13h27.46.870,LearnStrategy,2023.2.3,Win32,60.24096386,4,1,5,0.046701431,-0.004861132,1,0,0,0.7997,rock_grid_rect_2,7,10,-1,-1,0.8,-0.369270833,-0.229166667,1,0,0,4.0811,Andesite_rect,1,4.081,0,4,0,4,0,1,,,,,,,,,,,,,
5e914ee346d11b48197172c2,TCR,2024-06-20_13h27.46.870,LearnStrategy,2023.2.3,Win32,60.24096386,4,1,6,0.031423696,-0.004861132,1,0,0,0.6958,rock_grid_rect_2,1,04,-1,-1,0.696,-0.3671875,-0.255555598,1,0,0,3.6143,Andesite_rect,1,3.614,1,5,0,5,0,1,,,,,,,,,,,,,
5e914ee346d11b48197172c2,TCR,2024-06-20_13h27.46.870,LearnStrategy,2023.2.3,Win32,60.24096386,4,1,7,0.018923696,0.007638868,1,0,0,0.7994,rock_grid_rect_2,7,14,-1,-1,0.799,-0.107465235,-0.400694466,1,0,0,6.6497,Pegmatite_rect,6,6.65,0,6,0,6,0,1,,,,,,,,,,,,,
5e914ee346d11b48197172c2,TCR,2024-06-20_13h27.46.870,LearnStrategy,2023.2.3,Win32,60.24096386,4,1,8,0.036284765,-0.019444466,1,0,0,0.7771,rock_grid_rect_2,1,03,-1,-1,0.777,0.412673696,-0.252083333,1,0,0,11.011,Gabbro_rect,4,11.011,0,7,0,7,0,1,,,,,,,,,,,,,
5e914ee346d11b48197172c2,TCR,2024-06-20_13h27.46.870,LearnStrategy,2023.2.3,Win32,60.24096386,4,1,9,0.0578125,-0.005555566,1,0,0,0.8661,rock_grid_rect_2,4,16,-1,-1,0.866,-0.097048569,-0.239583333,1,0,0,3.2237,Basalt_rect,2,3.224,0,8,0,8,0,1,,,,,,,,,,,,,
5e914ee346d11b48197172c2,TCR,2024-06-20_13h27.46.870,LearnStrategy,2023.2.3,Win32,60.24096386,4,1,10,0.019618098,-0.000694466,1,0,0,0.7145,rock_grid_rect_2,2,05,-1,-1,0.715,-0.103298569,-0.258333333,1,0,0,1.1016,Basalt_rect,2,1.102,1,9,0,9,0,1,,,,,,,,,,,,,
5e914ee346d11b48197172c2,TCR,2024-06-20_13h27.46.870,LearnStrategy,2023.2.3,Win32,60.24096386,4,1,11,0.032118098,0.00625,1,0,0,0.6663,rock_grid_rect_2,3,06,-1,-1,0.666,0.119618098,-0.411111132,1,0,0,11.5952,Peridotite_rect,7,11.595,0,10,0,10,0,1,,,,,,,,,,,,,
5e914ee346d11b48197172c2,TCR,2024-06-20_13h27.46.870,LearnStrategy,2023.2.3,Win32,60.24096386,4,1,12,0.093923696,-0.013194466,1,0,0,0.9346,rock_grid_rect_2,4,16,-1,-1,0.935,-0.126215235,-0.265277799,1,0,0,5.551,Basalt_rect,2,5.551,0,11,0,11,0,1,,,,,,,,,,,,,
5e914ee346d11b48197172c2,TCR,2024-06-20_13h27.46.870,LearnStrategy,2023.2.3,Win32,60.24096386,4,1,13,0.081423696,-0.002777799,1,0,0,0.6614,rock_grid_rect_2,5,06,-1,-1,0.661,-0.390104167,-0.413888931,1,0,0,1.5681,Obsidian_rect,5,1.568,1,12,0,12,0,1,,,,,,,,,,,,,
5e914ee346d11b48197172c2,TCR,2024-06-20_13h27.46.870,LearnStrategy,2023.2.3,Win32,60.24096386,4,1,14,0.083507029,-0.005555566,1,0,0,0.7359,rock_grid_rect_2,6,13,-1,-1,0.736,-0.117881902,-0.408333333,1,0,0,4.7553,Pegmatite_rect,6,4.755,1,13,0,13,0,1,,,,,,,,,,,,,
5e914ee346d11b48197172c2,TCR,2024-06-20_13h27.46.870,LearnStrategy,2023.2.3,Win32,60.24096386,4,1,15,0.071007029,0,1,0,0,0.688,rock_grid_rect_2,1,14,-1,-1,0.688,0.149479167,-0.394444466,1,0,0,1.5481,Peridotite_rect,7,1.548,0,14,0,14,0,1,,,,,,,,,,,,,
5e914ee346d11b48197172c2,TCR,2024-06-20_13h27.46.870,LearnStrategy,2023.2.3,Win32,60.24096386,4,1,16,0.088368098,-0.007638899,1,0,0,0.7521,rock_grid_rect_2,7,16,-1,-1,0.752,0.1390625,-0.403472265,1,0,0,3.1829,Peridotite_rect,7,3.183,1,15,0,15,0,1,,,,,,,,,,,,,
5e914ee346d11b48197172c2,TCR,2024-06-20_13h27.46.870,LearnStrategy,2023.2.3,Win32,60.24096386,4,2,1,,,,,,,,5,14,,,,,,,,,,,5,1.839,1,,,,,,-0.410243034,-0.404861132,1,0,0,1.8389,Obsidian_rect,0,0,0,0,1,
5e914ee346d11b48197172c2,TCR,2024-06-20_13h27.46.870,LearnStrategy,2023.2.3,Win32,60.24096386,4,2,2,,,,,,,,8,09,,,,,,,,,,,8,2.151,1,,,,,,0.384201431,-0.397222265,1,0,0,2.1506,Pumice_rect,1,0,1,0,1,
5e914ee346d11b48197172c2,TCR,2024-06-20_13h27.46.870,LearnStrategy,2023.2.3,Win32,60.24096386,4,2,3,,,,,,,,7,07,,,,,,,,,,,4,5.119,0,,,,,,0.3453125,-0.232638931,1,0,0,5.1187,Gabbro_rect,2,0,2,0,1,
5e914ee346d11b48197172c2,TCR,2024-06-20_13h27.46.870,LearnStrategy,2023.2.3,Win32,60.24096386,4,2,4,,,,,,,,1,01,,,,,,,,,,,4,4.352,0,,,,,,0.371701431,-0.231944466,1,0,0,4.3524,Gabbro_rect,3,0,3,0,1,
5e914ee346d11b48197172c2,TCR,2024-06-20_13h27.46.870,LearnStrategy,2023.2.3,Win32,60.24096386,4,2,5,,,,,,,,3,13,,,,,,,,,,,7,7.709,0,,,,,,0.125868098,-0.421527799,1,0,0,7.7087,Peridotite_rect,4,0,4,0,1,
5e914ee346d11b48197172c2,TCR,2024-06-20_13h27.46.870,LearnStrategy,2023.2.3,Win32,60.24096386,4,2,6,,,,,,,,6,11,,,,,,,,,,,6,4.691,1,,,,,,-0.089409637,-0.398611132,1,0,0,4.6913,Pegmatite_rect,5,0,5,0,1,
5e914ee346d11b48197172c2,TCR,2024-06-20_13h27.46.870,LearnStrategy,2023.2.3,Win32,60.24096386,4,2,7,,,,,,,,4,13,,,,,,,,,,,4,3.823,1,,,,,,0.373784765,-0.253472265,1,0,0,3.823,Gabbro_rect,6,0,6,0,1,
5e914ee346d11b48197172c2,TCR,2024-06-20_13h27.46.870,LearnStrategy,2023.2.3,Win32,60.24096386,4,2,8,,,,,,,,4,05,,,,,,,,,,,4,2.89,1,,,,,,0.373784765,-0.253472265,1,0,0,2.8901,Gabbro_rect,7,0,7,0,1,
5e914ee346d11b48197172c2,TCR,2024-06-20_13h27.46.870,LearnStrategy,2023.2.3,Win32,60.24096386,4,2,9,,,,,,,,2,09,,,,,,,,,,,2,1.219,1,,,,,,-0.117881902,-0.263194466,1,0,0,1.2188,Basalt_rect,8,0,8,0,1,
5e914ee346d11b48197172c2,TCR,2024-06-20_13h27.46.870,LearnStrategy,2023.2.3,Win32,60.24096386,4,2,10,,,,,,,,1,07,,,,,,,,,,,4,4.885,0,,,,,,0.3828125,-0.2625,1,0,0,4.8852,Gabbro_rect,9,0,9,0,1,
5e914ee346d11b48197172c2,TCR,2024-06-20_13h27.46.870,LearnStrategy,2023.2.3,Win32,60.24096386,4,2,11,,,,,,,,3,08,,,,,,,,,,,1,6.29,0,,,,,,-0.330381902,-0.263194466,1,0,0,6.2896,Andesite_rect,10,0,10,0,1,
5e914ee346d11b48197172c2,TCR,2024-06-20_13h27.46.870,LearnStrategy,2023.2.3,Win32,60.24096386,4,2,12,,,,,,,,8,05,,,,,,,,,,,8,1.07,1,,,,,,0.402951431,-0.419444466,1,0,0,1.0704,Pumice_rect,11,0,11,0,1,
5e914ee346d11b48197172c2,TCR,2024-06-20_13h27.46.870,LearnStrategy,2023.2.3,Win32,60.24096386,4,2,13,,,,,,,,7,04,,,,,,,,,,,4,3.59,0,,,,,,0.393229167,-0.261805598,1,0,0,3.5904,Gabbro_rect,12,0,12,0,1,
5e914ee346d11b48197172c2,TCR,2024-06-20_13h27.46.870,LearnStrategy,2023.2.3,Win32,60.24096386,4,2,14,,,,,,,,5,02,,,,,,,,,,,5,1.089,1,,,,,,-0.363715235,-0.395138931,1,0,0,1.0892,Obsidian_rect,13,0,13,0,1,
5e914ee346d11b48197172c2,TCR,2024-06-20_13h27.46.870,LearnStrategy,2023.2.3,Win32,60.24096386,4,2,15,,,,,,,,6,05,,,,,,,,,,,6,7.127,1,,,,,,-0.091492971,-0.388194466,1,0,0,7.1266,Pegmatite_rect,14,0,14,0,1,
5e914ee346d11b48197172c2,TCR,2024-06-20_13h27.46.870,LearnStrategy,2023.2.3,Win32,60.24096386,4,2,16,,,,,,,,2,01,,,,,,,,,,,2,1.069,1,,,,,,-0.118576304,-0.252777799,1,0,0,1.0693,Basalt_rect,15,0,15,0,1,
5e914ee346d11b48197172c2,TCR,2024-06-20_13h27.46.870,LearnStrategy,2023.2.3,Win32,60.24096386,5,1,1,0.046701431,-0.011111132,1,0,0,1.6142,rock_grid_rect_2,3,09,-1,-1,1.614,0.3765625,-0.242361132,1,0,0,3.4146,Gabbro_rect,4,3.415,0,0,0,0,0,1,,,,,,,,,,,,,
5e914ee346d11b48197172c2,TCR,2024-06-20_13h27.46.870,LearnStrategy,2023.2.3,Win32,60.24096386,5,1,2,0.0328125,0.011805534,1,0,0,0.9442,rock_grid_rect_2,6,03,-1,-1,0.944,0.154340363,-0.4,1,0,0,4.7818,Peridotite_rect,7,4.782,0,1,0,1,0,1,,,,,,,,,,,,,
5e914ee346d11b48197172c2,TCR,2024-06-20_13h27.46.870,LearnStrategy,2023.2.3,Win32,60.24096386,5,1,3,0.061979167,0,1,0,0,0.8326,rock_grid_rect_2,7,12,-1,-1,0.833,0.160590363,-0.404166667,1,0,0,4.7483,Peridotite_rect,7,4.748,1,2,0,2,0,1,,,,,,,,,,,,,
5e914ee346d11b48197172c2,TCR,2024-06-20_13h27.46.870,LearnStrategy,2023.2.3,Win32,60.24096386,5,1,4,0.059201431,-0.009027799,1,0,0,0.7959,rock_grid_rect_2,3,11,-1,-1,0.796,0.428645833,-0.24375,1,0,0,5.2745,Gabbro_rect,4,5.274,0,3,0,3,0,1,,,,,,,,,,,,,
5e914ee346d11b48197172c2,TCR,2024-06-20_13h27.46.870,LearnStrategy,2023.2.3,Win32,60.24096386,5,1,5,0.072395833,-0.006944466,1,0,0,0.9215,rock_grid_rect_2,3,06,-1,-1,0.922,0.386979167,-0.23125,1,0,0,1.0314,Gabbro_rect,4,1.031,0,4,0,4,0,1,,,,,,,,,,,,,
5e914ee346d11b48197172c2,TCR,2024-06-20_13h27.46.870,LearnStrategy,2023.2.3,Win32,60.24096386,5,1,6,0.036284765,-0.023611132,1,0,0,0.8829,rock_grid_rect_2,8,16,-1,-1,0.883,0.393229167,-0.396527799,1,0,0,1.022,Pumice_rect,8,1.022,1,5,0,5,0,1,,,,,,,,,,,,,
5e914ee346d11b48197172c2,TCR,2024-06-20_13h27.46.870,LearnStrategy,2023.2.3,Win32,60.24096386,5,1,7,0.0453125,0.003472201,1,0,0,0.6863,rock_grid_rect_2,4,16,-1,-1,0.686,0.355729167,-0.2625,1,0,0,1.9497,Gabbro_rect,4,1.95,1,6,0,6,0,1,,,,,,,,,,,,,
5e914ee346d11b48197172c2,TCR,2024-06-20_13h27.46.870,LearnStrategy,2023.2.3,Win32,60.24096386,5,1,8,0.066840363,-0.01875,1,0,0,0.8479,rock_grid_rect_2,1,14,-1,-1,0.848,-0.388715235,-0.252083333,1,0,0,7.0022,Andesite_rect,1,7.002,1,7,0,7,0,1,,,,,,,,,,,,,
5e914ee346d11b48197172c2,TCR,2024-06-20_13h27.46.870,LearnStrategy,2023.2.3,Win32,60.24096386,5,1,9,0.040451431,-0.016666667,1,0,0,0.8027,rock_grid_rect_2,7,06,-1,-1,0.803,0.152257029,-0.402777799,1,0,0,4.4843,Peridotite_rect,7,4.484,1,8,0,8,0,1,,,,,,,,,,,,,
5e914ee346d11b48197172c2,TCR,2024-06-20_13h27.46.870,LearnStrategy,2023.2.3,Win32,60.24096386,5,1,10,0.040451431,0.0125,1,0,0,0.9189,rock_grid_rect_2,1,04,-1,-1,0.919,-0.352604167,-0.254166667,1,0,0,2.3514,Andesite_rect,1,2.351,1,9,0,9,0,1,,,,,,,,,,,,,
5e914ee346d11b48197172c2,TCR,2024-06-20_13h27.46.870,LearnStrategy,2023.2.3,Win32,60.24096386,5,1,11,0.024479167,-0.003472233,1,0,0,0.6828,rock_grid_rect_2,7,16,-1,-1,0.683,0.104340363,-0.414583333,1,0,0,2.3863,Peridotite_rect,7,2.386,1,10,0,10,0,1,,,,,,,,,,,,,
5e914ee346d11b48197172c2,TCR,2024-06-20_13h27.46.870,LearnStrategy,2023.2.3,Win32,60.24096386,5,1,12,0.0203125,-0.002083333,1,0,0,0.7693,rock_grid_rect_2,1,10,-1,-1,0.769,0.443229167,-0.249305598,1,0,0,7.1361,Gabbro_rect,4,7.136,0,11,0,11,0,1,,,,,,,,,,,,,
5e914ee346d11b48197172c2,TCR,2024-06-20_13h27.46.870,LearnStrategy,2023.2.3,Win32,60.24096386,5,1,13,0.038368098,-0.013194466,1,0,0,0.7123,rock_grid_rect_2,4,15,-1,-1,0.712,0.127257029,-0.415972265,1,0,0,10.1269,Peridotite_rect,7,10.127,0,12,0,12,0,1,,,,,,,,,,,,,
5e914ee346d11b48197172c2,TCR,2024-06-20_13h27.46.870,LearnStrategy,2023.2.3,Win32,60.24096386,5,1,14,0.096007029,0.013194434,1,0,0,0.746,rock_grid_rect_2,2,10,-1,-1,0.746,-0.113020833,-0.234722265,1,0,0,5.7883,Basalt_rect,2,5.788,1,13,0,13,0,1,,,,,,,,,,,,,
5e914ee346d11b48197172c2,TCR,2024-06-20_13h27.46.870,LearnStrategy,2023.2.3,Win32,60.24096386,5,1,15,0.041840363,0.006944434,1,0,0,0.9239,rock_grid_rect_2,7,08,-1,-1,0.924,0.1390625,-0.404166667,1,0,0,4.8334,Peridotite_rect,7,4.833,1,14,0,14,0,1,,,,,,,,,,,,,
5e914ee346d11b48197172c2,TCR,2024-06-20_13h27.46.870,LearnStrategy,2023.2.3,Win32,60.24096386,5,1,16,0.067534765,-0.009722233,1,0,0,0.7389,rock_grid_rect_2,1,06,-1,-1,0.739,-0.119270833,-0.391666667,1,0,0,1.3995,Pegmatite_rect,6,1.399,0,15,0,15,0,1,,,,,,,,,,,,,
5e914ee346d11b48197172c2,TCR,2024-06-20_13h27.46.870,LearnStrategy,2023.2.3,Win32,60.24096386,5,2,1,,,,,,,,6,09,,,,,,,,,,,6,5.203,1,,,,,,-0.106076304,-0.419444466,1,0,0,5.2028,Pegmatite_rect,0,0,0,0,1,
5e914ee346d11b48197172c2,TCR,2024-06-20_13h27.46.870,LearnStrategy,2023.2.3,Win32,60.24096386,5,2,2,,,,,,,,1,09,,,,,,,,,,,1,5.591,1,,,,,,-0.356076368,-0.253472265,1,0,0,5.5907,Andesite_rect,1,0,1,0,1,
5e914ee346d11b48197172c2,TCR,2024-06-20_13h27.46.870,LearnStrategy,2023.2.3,Win32,60.24096386,5,2,3,,,,,,,,5,16,,,,,,,,,,,5,1.189,1,,,,,,-0.363020833,-0.408333333,1,0,0,1.1888,Obsidian_rect,2,0,2,0,1,
5e914ee346d11b48197172c2,TCR,2024-06-20_13h27.46.870,LearnStrategy,2023.2.3,Win32,60.24096386,5,2,4,,,,,,,,6,16,,,,,,,,,,,6,5.941,1,,,,,,-0.102604167,-0.40625,1,0,0,5.9412,Pegmatite_rect,3,0,3,0,1,
5e914ee346d11b48197172c2,TCR,2024-06-20_13h27.46.870,LearnStrategy,2023.2.3,Win32,60.24096386,5,2,5,,,,,,,,4,12,,,,,,,,,,,4,6.091,1,,,,,,0.436284765,-0.259027799,1,0,0,6.0911,Gabbro_rect,4,0,4,0,1,
5e914ee346d11b48197172c2,TCR,2024-06-20_13h27.46.870,LearnStrategy,2023.2.3,Win32,60.24096386,5,2,6,,,,,,,,2,12,,,,,,,,,,,8,1.767,0,,,,,,0.377951431,-0.411111132,1,0,0,1.767,Pumice_rect,5,0,5,0,1,
5e914ee346d11b48197172c2,TCR,2024-06-20_13h27.46.870,LearnStrategy,2023.2.3,Win32,60.24096386,5,2,7,,,,,,,,7,05,,,,,,,,,,,7,5.838,1,,,,,,0.116840363,-0.405555598,1,0,0,5.8379,Peridotite_rect,6,0,6,0,1,
5e914ee346d11b48197172c2,TCR,2024-06-20_13h27.46.870,LearnStrategy,2023.2.3,Win32,60.24096386,5,2,8,,,,,,,,5,08,,,,,,,,,,,5,1.001,1,,,,,,-0.395659701,-0.407638931,1,0,0,1.0013,Obsidian_rect,7,0,7,0,1,
5e914ee346d11b48197172c2,TCR,2024-06-20_13h27.46.870,LearnStrategy,2023.2.3,Win32,60.24096386,5,2,9,,,,,,,,8,03,,,,,,,,,,,8,1.072,1,,,,,,0.409201431,-0.404861132,1,0,0,1.0723,Pumice_rect,8,0,8,0,1,
5e914ee346d11b48197172c2,TCR,2024-06-20_13h27.46.870,LearnStrategy,2023.2.3,Win32,60.24096386,5,2,10,,,,,,,,3,02,,,,,,,,,,,3,6.859,1,,,,,,0.1890625,-0.251388931,1,0,0,6.8588,Diorite_rect,9,0,9,0,1,
5e914ee346d11b48197172c2,TCR,2024-06-20_13h27.46.870,LearnStrategy,2023.2.3,Win32,60.24096386,5,2,11,,,,,,,,8,02,,,,,,,,,,,8,1.133,1,,,,,,0.390451431,-0.392361132,1,0,0,1.1327,Pumice_rect,10,0,10,0,1,
5e914ee346d11b48197172c2,TCR,2024-06-20_13h27.46.870,LearnStrategy,2023.2.3,Win32,60.24096386,5,2,12,,,,,,,,2,04,,,,,,,,,,,2,1.222,1,,,,,,-0.126215235,-0.259722265,1,0,0,1.2222,Basalt_rect,11,0,11,0,1,
5e914ee346d11b48197172c2,TCR,2024-06-20_13h27.46.870,LearnStrategy,2023.2.3,Win32,60.24096386,5,2,13,,,,,,,,1,11,,,,,,,,,,,1,5.385,1,,,,,,-0.349131902,-0.253472265,1,0,0,5.3853,Andesite_rect,12,0,12,0,1,
5e914ee346d11b48197172c2,TCR,2024-06-20_13h27.46.870,LearnStrategy,2023.2.3,Win32,60.24096386,5,2,14,,,,,,,,4,08,,,,,,,,,,,4,4.007,1,,,,,,0.455729167,-0.247222265,1,0,0,4.0071,Gabbro_rect,13,0,13,0,1,
5e914ee346d11b48197172c2,TCR,2024-06-20_13h27.46.870,LearnStrategy,2023.2.3,Win32,60.24096386,5,2,15,,,,,,,,3,07,,,,,,,,,,,6,6.458,0,,,,,,-0.108854167,-0.395138931,1,0,0,6.4583,Pegmatite_rect,14,0,14,0,1,
5e914ee346d11b48197172c2,TCR,2024-06-20_13h27.46.870,LearnStrategy,2023.2.3,Win32,60.24096386,5,2,16,,,,,,,,7,15,,,,,,,,,,,7,3.92,1,,,,,,0.086979167,-0.390277799,1,0,0,3.9203,Peridotite_rect,15,0,15,0,1,
5e914ee346d11b48197172c2,TCR,2024-06-20_13h27.46.870,LearnStrategy,2023.2.3,Win32,60.24096386,6,1,1,0.008507029,0.000694434,1,0,0,1.1438,rock_grid_rect_2,8,06,-1,-1,1.144,0.3953125,-0.413888931,1,0,0,1.3966,Pumice_rect,8,1.397,1,0,0,0,0,1,,,,,,,,,,,,,
5e914ee346d11b48197172c2,TCR,2024-06-20_13h27.46.870,LearnStrategy,2023.2.3,Win32,60.24096386,6,1,2,0.057118098,0.001388868,1,0,0,0.7993,rock_grid_rect_2,1,03,-1,-1,0.799,-0.405381902,-0.236805598,1,0,0,5.52,Andesite_rect,1,5.52,1,1,0,1,0,1,,,,,,,,,,,,,
5e914ee346d11b48197172c2,TCR,2024-06-20_13h27.46.870,LearnStrategy,2023.2.3,Win32,60.24096386,6,1,3,0.044618098,-0.016666667,1,0,0,0.8004,rock_grid_rect_2,2,02,-1,-1,0.8,-0.132465235,-0.25625,1,0,0,1.9841,Basalt_rect,2,1.984,1,2,0,2,0,1,,,,,,,,,,,,,
5e914ee346d11b48197172c2,TCR,2024-06-20_13h27.46.870,LearnStrategy,2023.2.3,Win32,60.24096386,6,1,4,-0.008854167,0.003472201,1,0,0,0.6639,rock_grid_rect_2,3,06,-1,-1,0.664,0.128645833,-0.254166667,1,0,0,5.3125,Diorite_rect,3,5.313,1,3,0,3,0,1,,,,,,,,,,,,,
5e914ee346d11b48197172c2,TCR,2024-06-20_13h27.46.870,LearnStrategy,2023.2.3,Win32,60.24096386,6,1,5,0.071701431,-0.00625,1,0,0,0.8133,rock_grid_rect_2,5,07,-1,-1,0.813,-0.367881902,-0.388194466,1,0,0,1.2168,Obsidian_rect,5,1.217,1,4,0,4,0,1,,,,,,,,,,,,,
5e914ee346d11b48197172c2,TCR,2024-06-20_13h27.46.870,LearnStrategy,2023.2.3,Win32,60.24096386,6,1,6,0.019618098,0.008333333,1,0,0,0.6667,rock_grid_rect_2,7,14,-1,-1,0.667,0.150868098,-0.399305598,1,0,0,3.801,Peridotite_rect,7,3.801,1,5,0,5,0,1,,,,,,,,,,,,,
5e914ee346d11b48197172c2,TCR,2024-06-20_13h27.46.870,LearnStrategy,2023.2.3,Win32,60.24096386,6,1,7,0.023784765,-0.023611132,1,0,0,0.6331,rock_grid_rect_2,6,10,-1,-1,0.633,-0.0984375,-0.4125,1,0,0,6.1243,Pegmatite_rect,6,6.124,1,6,0,6,0,1,,,,,,,,,,,,,
5e914ee346d11b48197172c2,TCR,2024-06-20_13h27.46.870,LearnStrategy,2023.2.3,Win32,60.24096386,6,1,8,0.034201431,-0.005555566,1,0,0,0.7508,rock_grid_rect_2,4,15,-1,-1,0.751,0.182118098,-0.25625,1,0,0,6.2252,Diorite_rect,3,6.225,0,7,0,7,0,1,,,,,,,,,,,,,
5e914ee346d11b48197172c2,TCR,2024-06-20_13h27.46.870,LearnStrategy,2023.2.3,Win32,60.24096386,6,1,9,0.014757029,-0.023611132,1,0,0,0.6492,rock_grid_rect_2,3,16,-1,-1,0.649,0.129340363,-0.270138931,1,0,0,1.1231,Diorite_rect,3,1.123,1,8,0,8,0,1,,,,,,,,,,,,,
5e914ee346d11b48197172c2,TCR,2024-06-20_13h27.46.870,LearnStrategy,2023.2.3,Win32,60.24096386,6,1,10,0.073090363,0.002083333,1,0,0,0.6498,rock_grid_rect_2,7,16,-1,-1,0.65,0.152257029,-0.420833333,1,0,0,3.0412,Peridotite_rect,7,3.041,1,9,0,9,0,1,,,,,,,,,,,,,
5e914ee346d11b48197172c2,TCR,2024-06-20_13h27.46.870,LearnStrategy,2023.2.3,Win32,60.24096386,6,1,11,0.072395833,-0.006944466,1,0,0,0.8273,rock_grid_rect_2,7,12,-1,-1,0.827,0.386979167,-0.249305598,1,0,0,4.3573,Gabbro_rect,4,4.357,0,10,0,10,0,1,,,,,,,,,,,,,
5e914ee346d11b48197172c2,TCR,2024-06-20_13h27.46.870,LearnStrategy,2023.2.3,Win32,60.24096386,6,1,12,0.066145833,-0.0125,1,0,0,0.6346,rock_grid_rect_2,3,06,-1,-1,0.635,0.354340363,-0.232638931,1,0,0,1.1452,Gabbro_rect,4,1.145,0,11,0,11,0,1,,,,,,,,,,,,,
5e914ee346d11b48197172c2,TCR,2024-06-20_13h27.46.870,LearnStrategy,2023.2.3,Win32,60.24096386,6,1,13,0.060590363,-0.004166667,1,0,0,0.564,rock_grid_rect_2,2,16,-1,-1,0.564,-0.143576368,-0.259027799,1,0,0,3.4328,Basalt_rect,2,3.433,1,12,0,12,0,1,,,,,,,,,,,,,
5e914ee346d11b48197172c2,TCR,2024-06-20_13h27.46.870,LearnStrategy,2023.2.3,Win32,60.24096386,6,1,14,0.014757029,-0.006944466,1,0,0,0.6671,rock_grid_rect_2,1,14,-1,-1,0.667,-0.3546875,-0.252777799,1,0,0,6.6354,Andesite_rect,1,6.635,1,13,0,13,0,1,,,,,,,,,,,,,
5e914ee346d11b48197172c2,TCR,2024-06-20_13h27.46.870,LearnStrategy,2023.2.3,Win32,60.24096386,6,1,15,0.048090363,0.001388868,1,0,0,0.7338,rock_grid_rect_2,1,03,-1,-1,0.734,0.146701431,-0.26875,1,0,0,4.9031,Diorite_rect,3,4.903,0,14,0,14,0,1,,,,,,,,,,,,,
5e914ee346d11b48197172c2,TCR,2024-06-20_13h27.46.870,LearnStrategy,2023.2.3,Win32,60.24096386,6,1,16,0.018923696,0.008333333,1,0,0,0.6161,rock_grid_rect_2,4,10,-1,-1,0.616,0.397395833,-0.261111132,1,0,0,3.4366,Gabbro_rect,4,3.437,1,15,0,15,0,1,,,,,,,,,,,,,
5e914ee346d11b48197172c2,TCR,2024-06-20_13h27.46.870,LearnStrategy,2023.2.3,Win32,60.24096386,6,2,1,,,,,,,,7,13,,,,,,,,,,,6,5.66,0,,,,,,-0.134548569,-0.408333333,1,0,0,5.6601,Pegmatite_rect,0,0,0,0,1,
5e914ee346d11b48197172c2,TCR,2024-06-20_13h27.46.870,LearnStrategy,2023.2.3,Win32,60.24096386,6,2,2,,,,,,,,7,02,,,,,,,,,,,6,1.365,0,,,,,,-0.105381902,-0.395138931,1,0,0,1.3654,Pegmatite_rect,1,0,1,0,1,
5e914ee346d11b48197172c2,TCR,2024-06-20_13h27.46.870,LearnStrategy,2023.2.3,Win32,60.24096386,6,2,3,,,,,,,,2,14,,,,,,,,,,,8,3.335,0,,,,,,0.385590363,-0.417361132,1,0,0,3.3349,Pumice_rect,2,0,2,0,1,
5e914ee346d11b48197172c2,TCR,2024-06-20_13h27.46.870,LearnStrategy,2023.2.3,Win32,60.24096386,6,2,4,,,,,,,,6,12,,,,,,,,,,,6,4.674,1,,,,,,-0.1046875,-0.406944466,1,0,0,4.6743,Pegmatite_rect,3,0,3,0,1,
5e914ee346d11b48197172c2,TCR,2024-06-20_13h27.46.870,LearnStrategy,2023.2.3,Win32,60.24096386,6,2,5,,,,,,,,6,07,,,,,,,,,,,6,1.485,1,,,,,,-0.103298569,-0.403472265,1,0,0,1.4847,Pegmatite_rect,4,0,4,0,1,
5e914ee346d11b48197172c2,TCR,2024-06-20_13h27.46.870,LearnStrategy,2023.2.3,Win32,60.24096386,6,2,6,,,,,,,,3,10,,,,,,,,,,,4,8.661,0,,,,,,0.402951431,-0.249305598,1,0,0,8.6606,Gabbro_rect,5,0,5,0,1,
5e914ee346d11b48197172c2,TCR,2024-06-20_13h27.46.870,LearnStrategy,2023.2.3,Win32,60.24096386,6,2,7,,,,,,,,2,11,,,,,,,,,,,8,1.757,0,,,,,,0.384201431,-0.413888931,1,0,0,1.7571,Pumice_rect,6,0,6,0,1,
5e914ee346d11b48197172c2,TCR,2024-06-20_13h27.46.870,LearnStrategy,2023.2.3,Win32,60.24096386,6,2,8,,,,,,,,1,05,,,,,,,,,,,4,4.489,0,,,,,,0.385590363,-0.252777799,1,0,0,4.4893,Gabbro_rect,7,0,7,0,1,
5e914ee346d11b48197172c2,TCR,2024-06-20_13h27.46.870,LearnStrategy,2023.2.3,Win32,60.24096386,6,2,9,,,,,,,,8,08,,,,,,,,,,,8,1.006,1,,,,,,0.386979167,-0.407638931,1,0,0,1.0062,Pumice_rect,8,0,8,0,1,
5e914ee346d11b48197172c2,TCR,2024-06-20_13h27.46.870,LearnStrategy,2023.2.3,Win32,60.24096386,6,2,10,,,,,,,,8,10,,,,,,,,,,,8,0.822,1,,,,,,0.386979167,-0.407638931,1,0,0,0.8223,Pumice_rect,9,0,9,0,1,
5e914ee346d11b48197172c2,TCR,2024-06-20_13h27.46.870,LearnStrategy,2023.2.3,Win32,60.24096386,6,2,11,,,,,,,,1,02,,,,,,,,,,,1,4.391,1,,,,,,-0.338715235,-0.251388931,1,0,0,4.3914,Andesite_rect,10,0,10,0,1,
5e914ee346d11b48197172c2,TCR,2024-06-20_13h27.46.870,LearnStrategy,2023.2.3,Win32,60.24096386,6,2,12,,,,,,,,4,11,,,,,,,,,,,2,6.574,0,,,,,,-0.097048569,-0.259722265,1,0,0,6.5743,Basalt_rect,11,0,11,0,1,
5e914ee346d11b48197172c2,TCR,2024-06-20_13h27.46.870,LearnStrategy,2023.2.3,Win32,60.24096386,6,2,13,,,,,,,,5,11,,,,,,,,,,,5,1.002,1,,,,,,-0.387326368,-0.416666667,1,0,0,1.0023,Obsidian_rect,12,0,12,0,1,
5e914ee346d11b48197172c2,TCR,2024-06-20_13h27.46.870,LearnStrategy,2023.2.3,Win32,60.24096386,6,2,14,,,,,,,,5,05,,,,,,,,,,,5,1.591,1,,,,,,-0.381770833,-0.410416667,1,0,0,1.5905,Obsidian_rect,13,0,13,0,1,
5e914ee346d11b48197172c2,TCR,2024-06-20_13h27.46.870,LearnStrategy,2023.2.3,Win32,60.24096386,6,2,15,,,,,,,,3,12,,,,,,,,,,,4,7.701,0,,,,,,0.411979167,-0.254166667,1,0,0,7.7009,Gabbro_rect,14,0,14,0,1,
5e914ee346d11b48197172c2,TCR,2024-06-20_13h27.46.870,LearnStrategy,2023.2.3,Win32,60.24096386,6,2,16,,,,,,,,4,14,,,,,,,,,,,7,5.191,0,,,,,,0.1078125,-0.397222265,1,0,0,5.1906,Peridotite_rect,15,0,15,0,1,
5e914ee346d11b48197172c2,TCR,2024-06-20_13h27.46.870,LearnStrategy,2023.2.3,Win32,60.24096386,7,1,1,0.093923696,-0.019444466,1,0,0,2.6005,rock_grid_rect_2,2,02,-1,-1,2.601,-0.140798569,-0.250694466,1,0,0,2.385,Basalt_rect,2,2.385,1,0,0,0,0,1,,,,,,,,,,,,,
5e914ee346d11b48197172c2,TCR,2024-06-20_13h27.46.870,LearnStrategy,2023.2.3,Win32,60.24096386,7,1,2,0.0078125,-0.013888899,1,0,0,0.7964,rock_grid_rect_2,7,06,-1,-1,0.796,0.096701431,-0.406944466,1,0,0,5.0372,Peridotite_rect,7,5.037,1,1,0,1,0,1,,,,,,,,,,,,,
5e914ee346d11b48197172c2,TCR,2024-06-20_13h27.46.870,LearnStrategy,2023.2.3,Win32,60.24096386,7,1,3,0.0953125,-0.003472233,1,0,0,0.7103,rock_grid_rect_2,7,06,-1,-1,0.71,0.099479167,-0.402777799,1,0,0,1.0724,Peridotite_rect,7,1.072,1,2,0,2,0,1,,,,,,,,,,,,,
5e914ee346d11b48197172c2,TCR,2024-06-20_13h27.46.870,LearnStrategy,2023.2.3,Win32,60.24096386,7,1,4,0.041840363,-0.002083333,1,0,0,0.757,rock_grid_rect_2,7,12,-1,-1,0.757,0.184201431,-0.2625,1,0,0,4.6169,Diorite_rect,3,4.617,0,3,0,3,0,1,,,,,,,,,,,,,
5e914ee346d11b48197172c2,TCR,2024-06-20_13h27.46.870,LearnStrategy,2023.2.3,Win32,60.24096386,7,1,5,0.0640625,-0.002083333,1,0,0,0.84,rock_grid_rect_2,1,16,-1,-1,0.84,0.128645833,-0.254166667,1,0,0,0.881,Diorite_rect,3,0.881,0,4,0,4,0,1,,,,,,,,,,,,,
5e914ee346d11b48197172c2,TCR,2024-06-20_13h27.46.870,LearnStrategy,2023.2.3,Win32,60.24096386,7,1,6,0.061284765,-0.019444466,1,0,0,0.6973,rock_grid_rect_2,8,16,-1,-1,0.697,0.384201431,-0.390277799,1,0,0,1.3327,Pumice_rect,8,1.333,1,5,0,5,0,1,,,,,,,,,,,,,
5e914ee346d11b48197172c2,TCR,2024-06-20_13h27.46.870,LearnStrategy,2023.2.3,Win32,60.24096386,7,1,7,0.046701431,-0.00625,1,0,0,0.6697,rock_grid_rect_2,2,05,-1,-1,0.67,-0.093576304,-0.254861132,1,0,0,1.6162,Basalt_rect,2,1.616,1,6,0,6,0,1,,,,,,,,,,,,,
5e914ee346d11b48197172c2,TCR,2024-06-20_13h27.46.870,LearnStrategy,2023.2.3,Win32,60.24096386,7,1,8,0.005729167,-0.009027799,1,0,0,0.6511,rock_grid_rect_2,3,09,-1,-1,0.651,0.1390625,-0.255555598,1,0,0,3.6507,Diorite_rect,3,3.651,1,7,0,7,0,1,,,,,,,,,,,,,
5e914ee346d11b48197172c2,TCR,2024-06-20_13h27.46.870,LearnStrategy,2023.2.3,Win32,60.24096386,7,1,9,0.059895833,-0.011111132,1,0,0,0.7325,rock_grid_rect_2,4,15,-1,-1,0.733,0.353645833,-0.259027799,1,0,0,2.2664,Gabbro_rect,4,2.266,1,8,0,8,0,1,,,,,,,,,,,,,
5e914ee346d11b48197172c2,TCR,2024-06-20_13h27.46.870,LearnStrategy,2023.2.3,Win32,60.24096386,7,1,10,0.023784765,0.004166667,1,0,0,0.7156,rock_grid_rect_2,6,15,-1,-1,0.716,-0.121354167,-0.394444466,1,0,0,2.4001,Pegmatite_rect,6,2.4,1,9,0,9,0,1,,,,,,,,,,,,,
5e914ee346d11b48197172c2,TCR,2024-06-20_13h27.46.870,LearnStrategy,2023.2.3,Win32,60.24096386,7,1,11,0.023784765,-0.008333333,1,0,0,0.6152,rock_grid_rect_2,3,14,-1,-1,0.615,0.148784765,-0.249305598,1,0,0,2.8506,Diorite_rect,3,2.851,1,10,0,10,0,1,,,,,,,,,,,,,
5e914ee346d11b48197172c2,TCR,2024-06-20_13h27.46.870,LearnStrategy,2023.2.3,Win32,60.24096386,7,1,12,0.002951431,-0.000694466,1,0,0,0.7793,rock_grid_rect_2,2,06,-1,-1,0.779,-0.125520833,-0.260416667,1,0,0,1.7333,Basalt_rect,2,1.733,1,11,0,11,0,1,,,,,,,,,,,,,
5e914ee346d11b48197172c2,TCR,2024-06-20_13h27.46.870,LearnStrategy,2023.2.3,Win32,60.24096386,7,1,13,0.010590363,0.008333333,1,0,0,0.6318,rock_grid_rect_2,3,14,-1,-1,0.632,0.144618098,-0.264583333,1,0,0,2.586,Diorite_rect,3,2.586,1,12,0,12,0,1,,,,,,,,,,,,,
5e914ee346d11b48197172c2,TCR,2024-06-20_13h27.46.870,LearnStrategy,2023.2.3,Win32,60.24096386,7,1,14,0.044618098,-0.004861132,1,0,0,0.7025,rock_grid_rect_2,4,09,-1,-1,0.702,0.390451431,-0.233333333,1,0,0,4.6526,Gabbro_rect,4,4.653,1,13,0,13,0,1,,,,,,,,,,,,,
5e914ee346d11b48197172c2,TCR,2024-06-20_13h27.46.870,LearnStrategy,2023.2.3,Win32,60.24096386,7,1,15,0.061979167,-0.008333333,1,0,0,0.607,rock_grid_rect_2,4,16,-1,-1,0.607,0.4265625,-0.263194466,1,0,0,1.0981,Gabbro_rect,4,1.098,1,14,0,14,0,1,,,,,,,,,,,,,
5e914ee346d11b48197172c2,TCR,2024-06-20_13h27.46.870,LearnStrategy,2023.2.3,Win32,60.24096386,7,1,16,0.073784765,-0.017361132,1,0,0,0.568,rock_grid_rect_2,1,14,-1,-1,0.568,-0.347743034,-0.256944466,1,0,0,1.5817,Andesite_rect,1,1.582,1,15,0,15,0,1,,,,,,,,,,,,,
5e914ee346d11b48197172c2,TCR,2024-06-20_13h27.46.870,LearnStrategy,2023.2.3,Win32,60.24096386,7,2,1,,,,,,,,5,05,,,,,,,,,,,5,1.122,1,,,,,,-0.405381902,-0.397222265,1,0,0,1.1223,Obsidian_rect,0,0,0,0,1,
5e914ee346d11b48197172c2,TCR,2024-06-20_13h27.46.870,LearnStrategy,2023.2.3,Win32,60.24096386,7,2,2,,,,,,,,6,12,,,,,,,,,,,1,4.153,0,,,,,,-0.372048569,-0.240277799,1,0,0,4.1528,Andesite_rect,1,0,1,0,1,
5e914ee346d11b48197172c2,TCR,2024-06-20_13h27.46.870,LearnStrategy,2023.2.3,Win32,60.24096386,7,2,3,,,,,,,,5,16,,,,,,,,,,,5,1.239,1,,,,,,-0.366493034,-0.404166667,1,0,0,1.2392,Obsidian_rect,2,0,2,0,1,
5e914ee346d11b48197172c2,TCR,2024-06-20_13h27.46.870,LearnStrategy,2023.2.3,Win32,60.24096386,7,2,4,,,,,,,,1,11,,,,,,,,,,,1,6.374,1,,,,,,-0.349131902,-0.260416667,1,0,0,6.3745,Andesite_rect,3,0,3,0,1,
5e914ee346d11b48197172c2,TCR,2024-06-20_13h27.46.870,LearnStrategy,2023.2.3,Win32,60.24096386,7,2,5,,,,,,,,3,07,,,,,,,,,,,3,3.54,1,,,,,,0.125173696,-0.252083333,1,0,0,3.5401,Diorite_rect,4,0,4,0,1,
5e914ee346d11b48197172c2,TCR,2024-06-20_13h27.46.870,LearnStrategy,2023.2.3,Win32,60.24096386,7,2,6,,,,,,,,2,11,,,,,,,,,,,8,1.105,0,,,,,,0.379340363,-0.400694466,1,0,0,1.1052,Pumice_rect,5,0,5,0,1,
5e914ee346d11b48197172c2,TCR,2024-06-20_13h27.46.870,LearnStrategy,2023.2.3,Win32,60.24096386,7,2,7,,,,,,,,7,15,,,,,,,,,,,7,6.105,1,,,,,,0.118923696,-0.394444466,1,0,0,6.1055,Peridotite_rect,6,0,6,0,1,
5e914ee346d11b48197172c2,TCR,2024-06-20_13h27.46.870,LearnStrategy,2023.2.3,Win32,60.24096386,7,2,8,,,,,,,,4,05,,,,,,,,,,,4,4.673,1,,,,,,0.3640625,-0.246527799,1,0,0,4.6726,Gabbro_rect,7,0,7,0,1,
5e914ee346d11b48197172c2,TCR,2024-06-20_13h27.46.870,LearnStrategy,2023.2.3,Win32,60.24096386,7,2,9,,,,,,,,8,09,,,,,,,,,,,8,1.322,1,,,,,,0.373784765,-0.411805598,1,0,0,1.3225,Pumice_rect,8,0,8,0,1,
5e914ee346d11b48197172c2,TCR,2024-06-20_13h27.46.870,LearnStrategy,2023.2.3,Win32,60.24096386,7,2,10,,,,,,,,7,04,,,,,,,,,,,6,5.704,0,,,,,,-0.099131902,-0.409027799,1,0,0,5.7041,Pegmatite_rect,9,0,9,0,1,
5e914ee346d11b48197172c2,TCR,2024-06-20_13h27.46.870,LearnStrategy,2023.2.3,Win32,60.24096386,7,2,11,,,,,,,,6,11,,,,,,,,,,,6,5.686,1,,,,,,-0.125520833,-0.397222265,1,0,0,5.6855,Pegmatite_rect,10,0,10,0,1,
5e914ee346d11b48197172c2,TCR,2024-06-20_13h27.46.870,LearnStrategy,2023.2.3,Win32,60.24096386,7,2,12,,,,,,,,4,14,,,,,,,,,,,4,1.59,1,,,,,,0.361979167,-0.256944466,1,0,0,1.5896,Gabbro_rect,11,0,11,0,1,
5e914ee346d11b48197172c2,TCR,2024-06-20_13h27.46.870,LearnStrategy,2023.2.3,Win32,60.24096386,7,2,13,,,,,,,,8,05,,,,,,,,,,,8,1.216,1,,,,,,0.368923696,-0.407638931,1,0,0,1.2163,Pumice_rect,12,0,12,0,1,
5e914ee346d11b48197172c2,TCR,2024-06-20_13h27.46.870,LearnStrategy,2023.2.3,Win32,60.24096386,7,2,14,,,,,,,,1,02,,,,,,,,,,,3,2.951,0,,,,,,0.127257029,-0.239583333,1,0,0,2.9508,Diorite_rect,13,0,13,0,1,
5e914ee346d11b48197172c2,TCR,2024-06-20_13h27.46.870,LearnStrategy,2023.2.3,Win32,60.24096386,7,2,15,,,,,,,,2,09,,,,,,,,,,,2,0.916,1,,,,,,-0.151215235,-0.256944466,1,0,0,0.9163,Basalt_rect,14,0,14,0,1,
5e914ee346d11b48197172c2,TCR,2024-06-20_13h27.46.870,LearnStrategy,2023.2.3,Win32,60.24096386,7,2,16,,,,,,,,3,02,,,,,,,,,,,4,12.407,0,,,,,,0.3765625,-0.251388931,1,0,0,12.407,Gabbro_rect,15,0,15,0,1,
5e914ee346d11b48197172c2,TCR,2024-06-20_13h27.46.870,LearnStrategy,2023.2.3,Win32,60.24096386,8,1,1,0.005034765,-0.005555566,1,0,0,0.983,rock_grid_rect_2,7,06,-1,-1,0.983,0.105034765,-0.396527799,1,0,0,6.7663,Peridotite_rect,7,6.766,1,0,0,0,0,1,,,,,,,,,,,,,
5e914ee346d11b48197172c2,TCR,2024-06-20_13h27.46.870,LearnStrategy,2023.2.3,Win32,60.24096386,8,1,2,0.031423696,-0.008333333,1,0,0,0.9828,rock_grid_rect_2,1,10,-1,-1,0.983,-0.366493034,-0.257638931,1,0,0,14.4796,Andesite_rect,1,14.48,1,1,0,1,0,1,,,,,,,,,,,,,
5e914ee346d11b48197172c2,TCR,2024-06-20_13h27.46.870,LearnStrategy,2023.2.3,Win32,60.24096386,8,1,3,0.059201431,0.010416667,1,0,0,0.6829,rock_grid_rect_2,2,16,-1,-1,0.683,0.375868098,-0.258333333,1,0,0,1.4727,Gabbro_rect,4,1.473,0,2,0,2,0,1,,,,,,,,,,,,,
5e914ee346d11b48197172c2,TCR,2024-06-20_13h27.46.870,LearnStrategy,2023.2.3,Win32,60.24096386,8,1,4,0.047395833,0.009722201,1,0,0,1.0073,rock_grid_rect_2,6,10,-1,-1,1.007,-0.107465235,-0.397916667,1,0,0,4.9003,Pegmatite_rect,6,4.9,1,3,0,3,0,1,,,,,,,,,,,,,
5e914ee346d11b48197172c2,TCR,2024-06-20_13h27.46.870,LearnStrategy,2023.2.3,Win32,60.24096386,8,1,5,0.033507029,-0.017361132,1,0,0,0.6733,rock_grid_rect_2,7,12,-1,-1,0.673,0.103645833,-0.406944466,1,0,0,1.1814,Peridotite_rect,7,1.181,1,4,0,4,0,1,,,,,,,,,,,,,
5e914ee346d11b48197172c2,TCR,2024-06-20_13h27.46.870,LearnStrategy,2023.2.3,Win32,60.24096386,8,1,6,-0.002604167,0.020138868,1,0,0,0.6529,rock_grid_rect_2,8,13,-1,-1,0.653,0.357118098,-0.4,1,0,0,1.0336,Pumice_rect,8,1.034,1,5,0,5,0,1,,,,,,,,,,,,,
5e914ee346d11b48197172c2,TCR,2024-06-20_13h27.46.870,LearnStrategy,2023.2.3,Win32,60.24096386,8,1,7,0.010590363,0.020833333,1,0,0,0.5664,rock_grid_rect_2,2,10,-1,-1,0.566,-0.090104167,-0.259722265,1,0,0,2.2024,Basalt_rect,2,2.202,1,6,0,6,0,1,,,,,,,,,,,,,
5e914ee346d11b48197172c2,TCR,2024-06-20_13h27.46.870,LearnStrategy,2023.2.3,Win32,60.24096386,8,1,8,0.090451431,-0.010416667,1,0,0,0.8861,rock_grid_rect_2,2,02,-1,-1,0.886,-0.365104167,-0.261805598,1,0,0,4.0844,Andesite_rect,1,4.084,0,7,0,7,0,1,,,,,,,,,,,,,
5e914ee346d11b48197172c2,TCR,2024-06-20_13h27.46.870,LearnStrategy,2023.2.3,Win32,60.24096386,8,1,9,0.062673696,-0.011805566,1,0,0,0.6974,rock_grid_rect_2,4,10,-1,-1,0.697,0.364757029,-0.247916667,1,0,0,3.2203,Gabbro_rect,4,3.22,1,8,0,8,0,1,,,,,,,,,,,,,
5e914ee346d11b48197172c2,TCR,2024-06-20_13h27.46.870,LearnStrategy,2023.2.3,Win32,60.24096386,8,1,10,0.022395833,-0.009027799,1,0,0,0.5146,rock_grid_rect_2,7,10,-1,-1,0.515,0.1203125,-0.404166667,1,0,0,1.8024,Peridotite_rect,7,1.802,1,9,0,9,0,1,,,,,,,,,,,,,
5e914ee346d11b48197172c2,TCR,2024-06-20_13h27.46.870,LearnStrategy,2023.2.3,Win32,60.24096386,8,1,11,0.021701431,-0.001388899,1,0,0,0.536,rock_grid_rect_2,3,11,-1,-1,0.536,-0.330381902,-0.257638931,1,0,0,5.4685,Andesite_rect,1,5.469,0,10,0,10,0,1,,,,,,,,,,,,,
5e914ee346d11b48197172c2,TCR,2024-06-20_13h27.46.870,LearnStrategy,2023.2.3,Win32,60.24096386,8,1,12,0.0453125,-0.004166667,1,0,0,0.6024,rock_grid_rect_2,3,11,-1,-1,0.602,0.127257029,-0.252777799,1,0,0,1.4825,Diorite_rect,3,1.483,1,11,0,11,0,1,,,,,,,,,,,,,
5e914ee346d11b48197172c2,TCR,2024-06-20_13h27.46.870,LearnStrategy,2023.2.3,Win32,60.24096386,8,1,13,0.046007029,-0.004861132,1,0,0,0.603,rock_grid_rect_2,6,10,-1,-1,0.603,-0.077604167,-0.396527799,1,0,0,2.0529,Pegmatite_rect,6,2.053,1,12,0,12,0,1,,,,,,,,,,,,,
5e914ee346d11b48197172c2,TCR,2024-06-20_13h27.46.870,LearnStrategy,2023.2.3,Win32,60.24096386,8,1,14,0.016840363,0.013194434,1,0,0,0.501,rock_grid_rect_2,4,03,-1,-1,0.501,0.159201431,-0.238888931,1,0,0,1.3478,Diorite_rect,3,1.348,0,13,0,13,0,1,,,,,,,,,,,,,
5e914ee346d11b48197172c2,TCR,2024-06-20_13h27.46.870,LearnStrategy,2023.2.3,Win32,60.24096386,8,1,15,0.021701431,-0.0125,1,0,0,0.5333,rock_grid_rect_2,1,04,-1,-1,0.533,0.168229167,-0.232638931,1,0,0,1.2156,Diorite_rect,3,1.216,0,14,0,14,0,1,,,,,,,,,,,,,
5e914ee346d11b48197172c2,TCR,2024-06-20_13h27.46.870,LearnStrategy,2023.2.3,Win32,60.24096386,8,1,16,0.0390625,-0.011111132,1,0,0,0.4828,rock_grid_rect_2,3,15,-1,-1,0.483,0.142534765,-0.238194466,1,0,0,5.7422,Diorite_rect,3,5.742,1,15,0,15,0,1,,,,,,,,,,,,,
5e914ee346d11b48197172c2,TCR,2024-06-20_13h27.46.870,LearnStrategy,2023.2.3,Win32,60.24096386,8,2,1,,,,,,,,5,02,,,,,,,,,,,5,1.156,1,,,,,,-0.349826368,-0.393055598,1,0,0,1.156,Obsidian_rect,0,0,0,0,1,
5e914ee346d11b48197172c2,TCR,2024-06-20_13h27.46.870,LearnStrategy,2023.2.3,Win32,60.24096386,8,2,2,,,,,,,,3,10,,,,,,,,,,,7,8.872,0,,,,,,0.136979167,-0.397222265,1,0,0,8.8716,Peridotite_rect,1,0,1,0,1,
5e914ee346d11b48197172c2,TCR,2024-06-20_13h27.46.870,LearnStrategy,2023.2.3,Win32,60.24096386,8,2,3,,,,,,,,4,11,,,,,,,,,,,2,4.171,0,,,,,,-0.116492971,-0.249305598,1,0,0,4.1708,Basalt_rect,2,0,2,0,1,
5e914ee346d11b48197172c2,TCR,2024-06-20_13h27.46.870,LearnStrategy,2023.2.3,Win32,60.24096386,8,2,4,,,,,,,,7,13,,,,,,,,,,,6,1.488,0,,,,,,-0.121354167,-0.394444466,1,0,0,1.4881,Pegmatite_rect,3,0,3,0,1,
5e914ee346d11b48197172c2,TCR,2024-06-20_13h27.46.870,LearnStrategy,2023.2.3,Win32,60.24096386,8,2,5,,,,,,,,7,07,,,,,,,,,,,7,4.908,1,,,,,,0.103645833,-0.402083333,1,0,0,4.9075,Peridotite_rect,4,0,4,0,1,
5e914ee346d11b48197172c2,TCR,2024-06-20_13h27.46.870,LearnStrategy,2023.2.3,Win32,60.24096386,8,2,6,,,,,,,,8,10,,,,,,,,,,,8,0.889,1,,,,,,0.383507029,-0.40625,1,0,0,0.8886,Pumice_rect,5,0,5,0,1,
5e914ee346d11b48197172c2,TCR,2024-06-20_13h27.46.870,LearnStrategy,2023.2.3,Win32,60.24096386,8,2,7,,,,,,,,3,08,,,,,,,,,,,3,6.325,1,,,,,,0.130034765,-0.247916667,1,0,0,6.3246,Diorite_rect,6,0,6,0,1,
5e914ee346d11b48197172c2,TCR,2024-06-20_13h27.46.870,LearnStrategy,2023.2.3,Win32,60.24096386,8,2,8,,,,,,,,1,05,,,,,,,,,,,4,3.456,0,,,,,,0.377257029,-0.254166667,1,0,0,3.4562,Gabbro_rect,7,0,7,0,1,
5e914ee346d11b48197172c2,TCR,2024-06-20_13h27.46.870,LearnStrategy,2023.2.3,Win32,60.24096386,8,2,9,,,,,,,,2,12,,,,,,,,,,,8,1.085,0,,,,,,0.3828125,-0.4125,1,0,0,1.0847,Pumice_rect,8,0,8,0,1,
5e914ee346d11b48197172c2,TCR,2024-06-20_13h27.46.870,LearnStrategy,2023.2.3,Win32,60.24096386,8,2,10,,,,,,,,5,08,,,,,,,,,,,5,1.006,1,,,,,,-0.374826368,-0.419444466,1,0,0,1.0058,Obsidian_rect,9,0,9,0,1,
5e914ee346d11b48197172c2,TCR,2024-06-20_13h27.46.870,LearnStrategy,2023.2.3,Win32,60.24096386,8,2,11,,,,,,,,8,08,,,,,,,,,,,8,0.949,1,,,,,,0.413368098,-0.405555598,1,0,0,0.9493,Pumice_rect,10,0,10,0,1,
5e914ee346d11b48197172c2,TCR,2024-06-20_13h27.46.870,LearnStrategy,2023.2.3,Win32,60.24096386,8,2,12,,,,,,,,6,07,,,,,,,,,,,6,3.335,1,,,,,,-0.115798569,-0.398611132,1,0,0,3.3347,Pegmatite_rect,11,0,11,0,1,
5e914ee346d11b48197172c2,TCR,2024-06-20_13h27.46.870,LearnStrategy,2023.2.3,Win32,60.24096386,8,2,13,,,,,,,,1,09,,,,,,,,,,,3,2.485,0,,,,,,0.147395833,-0.238194466,1,0,0,2.4849,Diorite_rect,12,0,12,0,1,
5e914ee346d11b48197172c2,TCR,2024-06-20_13h27.46.870,LearnStrategy,2023.2.3,Win32,60.24096386,8,2,14,,,,,,,,2,14,,,,,,,,,,,8,8.123,0,,,,,,0.364757029,-0.384027799,1,0,0,8.123,Pumice_rect,13,0,13,0,1,
5e914ee346d11b48197172c2,TCR,2024-06-20_13h27.46.870,LearnStrategy,2023.2.3,Win32,60.24096386,8,2,15,,,,,,,,4,12,,,,,,,,,,,2,5.757,0,,,,,,-0.161631902,-0.248611132,1,0,0,5.7575,Basalt_rect,14,0,14,0,1,
5e914ee346d11b48197172c2,TCR,2024-06-20_13h27.46.870,LearnStrategy,2023.2.3,Win32,60.24096386,8,2,16,,,,,,,,6,09,,,,,,,,,,,6,1.473,1,,,,,,-0.091492971,-0.406944466,1,0,0,1.4727,Pegmatite_rect,15,0,15,0,1,
5e914ee346d11b48197172c2,TCR,2024-06-20_13h27.46.870,LearnStrategy,2023.2.3,Win32,60.24096386,9,1,1,0.055034765,0.013194434,1,0,0,0.9672,rock_grid_rect_2,4,09,-1,-1,0.967,0.4203125,-0.259722265,1,0,0,4.983,Gabbro_rect,4,4.983,1,0,0,0,0,1,,,,,,,,,,,,,
5e914ee346d11b48197172c2,TCR,2024-06-20_13h27.46.870,LearnStrategy,2023.2.3,Win32,60.24096386,9,1,2,0.054340363,-0.002777799,1,0,0,0.716,rock_grid_rect_2,1,03,-1,-1,0.716,-0.1484375,-0.244444466,1,0,0,9.1555,Basalt_rect,2,9.155,0,1,0,1,0,1,,,,,,,,,,,,,
5e914ee346d11b48197172c2,TCR,2024-06-20_13h27.46.870,LearnStrategy,2023.2.3,Win32,60.24096386,9,1,3,0.035590363,0.002083333,1,0,0,0.6113,rock_grid_rect_2,2,06,-1,-1,0.611,-0.103298569,-0.252777799,1,0,0,1.1176,Basalt_rect,2,1.118,1,2,0,2,0,1,,,,,,,,,,,,,
5e914ee346d11b48197172c2,TCR,2024-06-20_13h27.46.870,LearnStrategy,2023.2.3,Win32,60.24096386,9,1,4,-0.030381902,0,1,0,0,0.5991,rock_grid_rect_2,3,06,-1,-1,0.599,-0.380381902,-0.235416667,1,0,0,4.1679,Andesite_rect,1,4.168,0,3,0,3,0,1,,,,,,,,,,,,,
5e914ee346d11b48197172c2,TCR,2024-06-20_13h27.46.870,LearnStrategy,2023.2.3,Win32,60.24096386,9,1,5,0.005729167,-0.011111132,1,0,0,0.5779,rock_grid_rect_2,1,14,-1,-1,0.578,-0.371354167,-0.247222265,1,0,0,5.2363,Andesite_rect,1,5.236,1,4,0,4,0,1,,,,,,,,,,,,,
5e914ee346d11b48197172c2,TCR,2024-06-20_13h27.46.870,LearnStrategy,2023.2.3,Win32,60.24096386,9,1,6,0.014757029,-0.022916667,1,0,0,0.6996,rock_grid_rect_2,2,10,-1,-1,0.7,-0.127604167,-0.248611132,1,0,0,1.8339,Basalt_rect,2,1.834,1,5,0,5,0,1,,,,,,,,,,,,,
5e914ee346d11b48197172c2,TCR,2024-06-20_13h27.46.870,LearnStrategy,2023.2.3,Win32,60.24096386,9,1,7,-0.041492971,0,1,0,0,0.5997,rock_grid_rect_2,4,15,-1,-1,0.6,0.384201431,-0.267361132,1,0,0,7.403,Gabbro_rect,4,7.403,1,6,0,6,0,1,,,,,,,,,,,,,
5e914ee346d11b48197172c2,TCR,2024-06-20_13h27.46.870,LearnStrategy,2023.2.3,Win32,60.24096386,9,1,8,0.025173696,-0.009027799,1,0,0,0.7495,rock_grid_rect_2,3,11,-1,-1,0.75,0.384895833,-0.254166667,1,0,0,1.0501,Gabbro_rect,4,1.05,0,7,0,7,0,1,,,,,,,,,,,,,
5e914ee346d11b48197172c2,TCR,2024-06-20_13h27.46.870,LearnStrategy,2023.2.3,Win32,60.24096386,9,1,9,0.027257029,-0.015972233,1,0,0,0.5828,rock_grid_rect_2,3,16,-1,-1,0.583,0.402951431,-0.252777799,1,0,0,3.2569,Gabbro_rect,4,3.257,0,8,0,8,0,1,,,,,,,,,,,,,
5e914ee346d11b48197172c2,TCR,2024-06-20_13h27.46.870,LearnStrategy,2023.2.3,Win32,60.24096386,9,1,10,-0.0546875,-0.022222233,1,0,0,0.5231,rock_grid_rect_2,6,06,-1,-1,0.523,-0.063715235,-0.401388931,1,0,0,4.1833,Pegmatite_rect,6,4.183,1,9,0,9,0,1,,,,,,,,,,,,,
5e914ee346d11b48197172c2,TCR,2024-06-20_13h27.46.870,LearnStrategy,2023.2.3,Win32,60.24096386,9,1,11,0.041145833,-0.005555566,1,0,0,0.923,rock_grid_rect_2,1,10,-1,-1,0.923,-0.363020833,-0.246527799,1,0,0,11.4038,Andesite_rect,1,11.404,1,10,0,10,0,1,,,,,,,,,,,,,
5e914ee346d11b48197172c2,TCR,2024-06-20_13h27.46.870,LearnStrategy,2023.2.3,Win32,60.24096386,9,1,12,0.014757029,-0.011111132,1,0,0,0.5186,rock_grid_rect_2,7,08,-1,-1,0.519,0.119618098,-0.408333333,1,0,0,1.9644,Peridotite_rect,7,1.964,1,11,0,11,0,1,,,,,,,,,,,,,
5e914ee346d11b48197172c2,TCR,2024-06-20_13h27.46.870,LearnStrategy,2023.2.3,Win32,60.24096386,9,1,13,-0.015798569,-0.000694466,1,0,0,0.5827,rock_grid_rect_2,7,10,-1,-1,0.583,0.124479167,-0.388194466,1,0,0,0.919,Peridotite_rect,7,0.919,1,12,0,12,0,1,,,,,,,,,,,,,
5e914ee346d11b48197172c2,TCR,2024-06-20_13h27.46.870,LearnStrategy,2023.2.3,Win32,60.24096386,9,1,14,0.069618098,0.009722201,1,0,0,0.7834,rock_grid_rect_2,4,10,-1,-1,0.783,-0.413020833,-0.251388931,1,0,0,3.2506,Andesite_rect,1,3.251,0,13,0,13,0,1,,,,,,,,,,,,,
5e914ee346d11b48197172c2,TCR,2024-06-20_13h27.46.870,LearnStrategy,2023.2.3,Win32,60.24096386,9,1,15,0.046701431,-0.022916667,1,0,0,0.5984,rock_grid_rect_2,2,10,-1,-1,0.598,-0.153993034,-0.270138931,1,0,0,0.9323,Basalt_rect,2,0.932,1,14,0,14,0,1,,,,,,,,,,,,,
5e914ee346d11b48197172c2,TCR,2024-06-20_13h27.46.870,LearnStrategy,2023.2.3,Win32,60.24096386,9,1,16,0.000173696,0.002777767,1,0,0,0.517,rock_grid_rect_2,8,15,-1,-1,0.517,0.383507029,-0.384027799,1,0,0,0.9492,Pumice_rect,8,0.949,1,15,0,15,0,1,,,,,,,,,,,,,
5e914ee346d11b48197172c2,TCR,2024-06-20_13h27.46.870,LearnStrategy,2023.2.3,Win32,60.24096386,9,2,1,,,,,,,,5,14,,,,,,,,,,,5,1.014,1,,,,,,-0.374131902,-0.404861132,1,0,0,1.0145,Obsidian_rect,0,0,0,0,1,
5e914ee346d11b48197172c2,TCR,2024-06-20_13h27.46.870,LearnStrategy,2023.2.3,Win32,60.24096386,9,2,2,,,,,,,,1,01,,,,,,,,,,,3,7.835,0,,,,,,0.160590363,-0.260416667,1,0,0,7.8354,Diorite_rect,1,0,1,0,1,
5e914ee346d11b48197172c2,TCR,2024-06-20_13h27.46.870,LearnStrategy,2023.2.3,Win32,60.24096386,9,2,3,,,,,,,,6,05,,,,,,,,,,,6,2.682,1,,,,,,-0.117881902,-0.411805598,1,0,0,2.6819,Pegmatite_rect,2,0,2,0,1,
5e914ee346d11b48197172c2,TCR,2024-06-20_13h27.46.870,LearnStrategy,2023.2.3,Win32,60.24096386,9,2,4,,,,,,,,2,01,,,,,,,,,,,2,1.88,1,,,,,,-0.095659637,-0.240972265,1,0,0,1.88,Basalt_rect,3,0,3,0,1,
5e914ee346d11b48197172c2,TCR,2024-06-20_13h27.46.870,LearnStrategy,2023.2.3,Win32,60.24096386,9,2,5,,,,,,,,4,13,,,,,,,,,,,4,2.557,1,,,,,,0.406423696,-0.259027799,1,0,0,2.557,Gabbro_rect,4,0,4,0,1,
5e914ee346d11b48197172c2,TCR,2024-06-20_13h27.46.870,LearnStrategy,2023.2.3,Win32,60.24096386,9,2,6,,,,,,,,3,13,,,,,,,,,,,3,2.967,1,,,,,,0.140451431,-0.252777799,1,0,0,2.9672,Diorite_rect,5,0,5,0,1,
5e914ee346d11b48197172c2,TCR,2024-06-20_13h27.46.870,LearnStrategy,2023.2.3,Win32,60.24096386,9,2,7,,,,,,,,7,05,,,,,,,,,,,6,4.392,0,,,,,,-0.087326304,-0.396527799,1,0,0,4.3922,Pegmatite_rect,6,0,6,0,1,
5e914ee346d11b48197172c2,TCR,2024-06-20_13h27.46.870,LearnStrategy,2023.2.3,Win32,60.24096386,9,2,8,,,,,,,,4,08,,,,,,,,,,,4,2.175,1,,,,,,0.429340363,-0.25625,1,0,0,2.1748,Gabbro_rect,7,0,7,0,1,
5e914ee346d11b48197172c2,TCR,2024-06-20_13h27.46.870,LearnStrategy,2023.2.3,Win32,60.24096386,9,2,9,,,,,,,,2,04,,,,,,,,,,,2,1.056,1,,,,,,-0.072048569,-0.271527799,1,0,0,1.0565,Basalt_rect,8,0,8,0,1,
5e914ee346d11b48197172c2,TCR,2024-06-20_13h27.46.870,LearnStrategy,2023.2.3,Win32,60.24096386,9,2,10,,,,,,,,8,03,,,,,,,,,,,8,0.99,1,,,,,,0.383507029,-0.383333333,1,0,0,0.9897,Pumice_rect,9,0,9,0,1,
5e914ee346d11b48197172c2,TCR,2024-06-20_13h27.46.870,LearnStrategy,2023.2.3,Win32,60.24096386,9,2,11,,,,,,,,7,02,,,,,,,,,,,7,8.103,1,,,,,,0.129340363,-0.395833333,1,0,0,8.1034,Peridotite_rect,10,0,10,0,1,
5e914ee346d11b48197172c2,TCR,2024-06-20_13h27.46.870,LearnStrategy,2023.2.3,Win32,60.24096386,9,2,12,,,,,,,,3,12,,,,,,,,,,,3,7.023,1,,,,,,0.144618098,-0.263888931,1,0,0,7.0227,Diorite_rect,11,0,11,0,1,
5e914ee346d11b48197172c2,TCR,2024-06-20_13h27.46.870,LearnStrategy,2023.2.3,Win32,60.24096386,9,2,13,,,,,,,,1,07,,,,,,,,,,,3,6.592,0,,,,,,0.144618098,-0.263888931,1,0,0,6.592,Diorite_rect,12,0,12,0,1,
5e914ee346d11b48197172c2,TCR,2024-06-20_13h27.46.870,LearnStrategy,2023.2.3,Win32,60.24096386,9,2,14,,,,,,,,5,11,,,,,,,,,,,5,0.969,1,,,,,,-0.3859375,-0.415277799,1,0,0,0.9693,Obsidian_rect,13,0,13,0,1,
5e914ee346d11b48197172c2,TCR,2024-06-20_13h27.46.870,LearnStrategy,2023.2.3,Win32,60.24096386,9,2,15,,,,,,,,6,16,,,,,,,,,,,6,4.459,1,,,,,,-0.158159701,-0.405555598,1,0,0,4.4587,Pegmatite_rect,14,0,14,0,1,
5e914ee346d11b48197172c2,TCR,2024-06-20_13h27.46.870,LearnStrategy,2023.2.3,Win32,60.24096386,9,2,16,,,,,,,,8,02,,,,,,,,,,,8,1.017,1,,,,,,0.390451431,-0.400694466,1,0,0,1.0166,Pumice_rect,15,0,15,0,1,
5e914ee346d11b48197172c2,TCR,2024-06-20_13h27.46.870,LearnStrategy,2023.2.3,Win32,60.24096386,,,,,,,,,,,,,,,,,,,,,,,,,,,,,,,,,,,,,,,,,,,1
5e914ee346d11b48197172c2,TCR,2024-06-20_13h27.46.870,LearnStrategy,2023.2.3,Win32,60.24096386,,,,,,,,,,,,,,,,,,,,,,,,,,,,,,,,,,,,,,,,,,,
5e914ee346d11b48197172c2,TCR,2024-06-20_13h27.46.870,LearnStrategy,2023.2.3,Win32,60.24096386,,,,,,,,,,,3,15,1,1,,,,,,,,,,,,,,,,,,,,,,,,,,,,,
5e914ee346d11b48197172c2,TCR,2024-06-20_13h27.46.870,LearnStrategy,2023.2.3,Win32,60.24096386,,,,,,,,,,,6,03,1,2,,,,,,,,,,,,,,,,,,,,,,,,,,,,,
5e914ee346d11b48197172c2,TCR,2024-06-20_13h27.46.870,LearnStrategy,2023.2.3,Win32,60.24096386,,,,,,,,,,,7,08,1,3,,,,,,,,,,,,,,,,,,,,,,,,,,,,,
5e914ee346d11b48197172c2,TCR,2024-06-20_13h27.46.870,LearnStrategy,2023.2.3,Win32,60.24096386,,,,,,,,,,,7,16,1,4,,,,,,,,,,,,,,,,,,,,,,,,,,,,,
5e914ee346d11b48197172c2,TCR,2024-06-20_13h27.46.870,LearnStrategy,2023.2.3,Win32,60.24096386,,,,,,,,,,,5,06,1,5,,,,,,,,,,,,,,,,,,,,,,,,,,,,,
5e914ee346d11b48197172c2,TCR,2024-06-20_13h27.46.870,LearnStrategy,2023.2.3,Win32,60.24096386,,,,,,,,,,,8,06,1,6,,,,,,,,,,,,,,,,,,,,,,,,,,,,,
5e914ee346d11b48197172c2,TCR,2024-06-20_13h27.46.870,LearnStrategy,2023.2.3,Win32,60.24096386,,,,,,,,,,,7,06,1,7,,,,,,,,,,,,,,,,,,,,,,,,,,,,,
5e914ee346d11b48197172c2,TCR,2024-06-20_13h27.46.870,LearnStrategy,2023.2.3,Win32,60.24096386,,,,,,,,,,,2,06,1,8,,,,,,,,,,,,,,,,,,,,,,,,,,,,,
5e914ee346d11b48197172c2,TCR,2024-06-20_13h27.46.870,LearnStrategy,2023.2.3,Win32,60.24096386,,,,,,,,,,,5,10,2,1,,,,,,,,,,,,,,,,,,,,,,,,,,,,,
5e914ee346d11b48197172c2,TCR,2024-06-20_13h27.46.870,LearnStrategy,2023.2.3,Win32,60.24096386,,,,,,,,,,,6,10,2,2,,,,,,,,,,,,,,,,,,,,,,,,,,,,,
5e914ee346d11b48197172c2,TCR,2024-06-20_13h27.46.870,LearnStrategy,2023.2.3,Win32,60.24096386,,,,,,,,,,,2,10,2,3,,,,,,,,,,,,,,,,,,,,,,,,,,,,,
5e914ee346d11b48197172c2,TCR,2024-06-20_13h27.46.870,LearnStrategy,2023.2.3,Win32,60.24096386,,,,,,,,,,,6,08,2,4,,,,,,,,,,,,,,,,,,,,,,,,,,,,,
5e914ee346d11b48197172c2,TCR,2024-06-20_13h27.46.870,LearnStrategy,2023.2.3,Win32,60.24096386,,,,,,,,,,,4,03,2,5,,,,,,,,,,,,,,,,,,,,,,,,,,,,,
5e914ee346d11b48197172c2,TCR,2024-06-20_13h27.46.870,LearnStrategy,2023.2.3,Win32,60.24096386,,,,,,,,,,,4,09,2,6,,,,,,,,,,,,,,,,,,,,,,,,,,,,,
5e914ee346d11b48197172c2,TCR,2024-06-20_13h27.46.870,LearnStrategy,2023.2.3,Win32,60.24096386,,,,,,,,,,,8,15,2,7,,,,,,,,,,,,,,,,,,,,,,,,,,,,,
5e914ee346d11b48197172c2,TCR,2024-06-20_13h27.46.870,LearnStrategy,2023.2.3,Win32,60.24096386,,,,,,,,,,,2,02,2,8,,,,,,,,,,,,,,,,,,,,,,,,,,,,,
5e914ee346d11b48197172c2,TCR,2024-06-20_13h27.46.870,LearnStrategy,2023.2.3,Win32,60.24096386,,,,,,,,,,,5,07,3,1,,,,,,,,,,,,,,,,,,,,,,,,,,,,,
5e914ee346d11b48197172c2,TCR,2024-06-20_13h27.46.870,LearnStrategy,2023.2.3,Win32,60.24096386,,,,,,,,,,,4,15,3,2,,,,,,,,,,,,,,,,,,,,,,,,,,,,,
5e914ee346d11b48197172c2,TCR,2024-06-20_13h27.46.870,LearnStrategy,2023.2.3,Win32,60.24096386,,,,,,,,,,,8,04,3,3,,,,,,,,,,,,,,,,,,,,,,,,,,,,,
5e914ee346d11b48197172c2,TCR,2024-06-20_13h27.46.870,LearnStrategy,2023.2.3,Win32,60.24096386,,,,,,,,,,,1,06,3,4,,,,,,,,,,,,,,,,,,,,,,,,,,,,,
5e914ee346d11b48197172c2,TCR,2024-06-20_13h27.46.870,LearnStrategy,2023.2.3,Win32,60.24096386,,,,,,,,,,,1,10,3,5,,,,,,,,,,,,,,,,,,,,,,,,,,,,,
5e914ee346d11b48197172c2,TCR,2024-06-20_13h27.46.870,LearnStrategy,2023.2.3,Win32,60.24096386,,,,,,,,,,,3,09,3,6,,,,,,,,,,,,,,,,,,,,,,,,,,,,,
5e914ee346d11b48197172c2,TCR,2024-06-20_13h27.46.870,LearnStrategy,2023.2.3,Win32,60.24096386,,,,,,,,,,,5,09,3,7,,,,,,,,,,,,,,,,,,,,,,,,,,,,,
5e914ee346d11b48197172c2,TCR,2024-06-20_13h27.46.870,LearnStrategy,2023.2.3,Win32,60.24096386,,,,,,,,,,,8,13,3,8,,,,,,,,,,,,,,,,,,,,,,,,,,,,,
5e914ee346d11b48197172c2,TCR,2024-06-20_13h27.46.870,LearnStrategy,2023.2.3,Win32,60.24096386,,,,,,,,,,,1,04,4,1,,,,,,,,,,,,,,,,,,,,,,,,,,,,,
5e914ee346d11b48197172c2,TCR,2024-06-20_13h27.46.870,LearnStrategy,2023.2.3,Win32,60.24096386,,,,,,,,,,,3,14,4,2,,,,,,,,,,,,,,,,,,,,,,,,,,,,,
5e914ee346d11b48197172c2,TCR,2024-06-20_13h27.46.870,LearnStrategy,2023.2.3,Win32,60.24096386,,,,,,,,,,,7,12,4,3,,,,,,,,,,,,,,,,,,,,,,,,,,,,,
5e914ee346d11b48197172c2,TCR,2024-06-20_13h27.46.870,LearnStrategy,2023.2.3,Win32,60.24096386,,,,,,,,,,,3,16,4,4,,,,,,,,,,,,,,,,,,,,,,,,,,,,,
5e914ee346d11b48197172c2,TCR,2024-06-20_13h27.46.870,LearnStrategy,2023.2.3,Win32,60.24096386,,,,,,,,,,,8,14,4,5,,,,,,,,,,,,,,,,,,,,,,,,,,,,,
5e914ee346d11b48197172c2,TCR,2024-06-20_13h27.46.870,LearnStrategy,2023.2.3,Win32,60.24096386,,,,,,,,,,,6,06,4,6,,,,,,,,,,,,,,,,,,,,,,,,,,,,,
5e914ee346d11b48197172c2,TCR,2024-06-20_13h27.46.870,LearnStrategy,2023.2.3,Win32,60.24096386,,,,,,,,,,,5,04,4,7,,,,,,,,,,,,,,,,,,,,,,,,,,,,,
5e914ee346d11b48197172c2,TCR,2024-06-20_13h27.46.870,LearnStrategy,2023.2.3,Win32,60.24096386,,,,,,,,,,,3,06,4,8,,,,,,,,,,,,,,,,,,,,,,,,,,,,,
5e914ee346d11b48197172c2,TCR,2024-06-20_13h27.46.870,LearnStrategy,2023.2.3,Win32,60.24096386,,,,,,,,,,,1,16,5,1,,,,,,,,,,,,,,,,,,,,,,,,,,,,,
5e914ee346d11b48197172c2,TCR,2024-06-20_13h27.46.870,LearnStrategy,2023.2.3,Win32,60.24096386,,,,,,,,,,,1,14,5,2,,,,,,,,,,,,,,,,,,,,,,,,,,,,,
5e914ee346d11b48197172c2,TCR,2024-06-20_13h27.46.870,LearnStrategy,2023.2.3,Win32,60.24096386,,,,,,,,,,,4,01,5,3,,,,,,,,,,,,,,,,,,,,,,,,,,,,,
5e914ee346d11b48197172c2,TCR,2024-06-20_13h27.46.870,LearnStrategy,2023.2.3,Win32,60.24096386,,,,,,,,,,,2,08,5,4,,,,,,,,,,,,,,,,,,,,,,,,,,,,,
5e914ee346d11b48197172c2,TCR,2024-06-20_13h27.46.870,LearnStrategy,2023.2.3,Win32,60.24096386,,,,,,,,,,,5,12,5,5,,,,,,,,,,,,,,,,,,,,,,,,,,,,,
5e914ee346d11b48197172c2,TCR,2024-06-20_13h27.46.870,LearnStrategy,2023.2.3,Win32,60.24096386,,,,,,,,,,,6,13,5,6,,,,,,,,,,,,,,,,,,,,,,,,,,,,,
5e914ee346d11b48197172c2,TCR,2024-06-20_13h27.46.870,LearnStrategy,2023.2.3,Win32,60.24096386,,,,,,,,,,,1,03,5,7,,,,,,,,,,,,,,,,,,,,,,,,,,,,,
5e914ee346d11b48197172c2,TCR,2024-06-20_13h27.46.870,LearnStrategy,2023.2.3,Win32,60.24096386,,,,,,,,,,,7,14,5,8,,,,,,,,,,,,,,,,,,,,,,,,,,,,,
5e914ee346d11b48197172c2,TCR,2024-06-20_13h27.46.870,LearnStrategy,2023.2.3,Win32,60.24096386,,,,,,,,,,,7,10,6,1,,,,,,,,,,,,,,,,,,,,,,,,,,,,,
5e914ee346d11b48197172c2,TCR,2024-06-20_13h27.46.870,LearnStrategy,2023.2.3,Win32,60.24096386,,,,,,,,,,,4,10,6,2,,,,,,,,,,,,,,,,,,,,,,,,,,,,,
5e914ee346d11b48197172c2,TCR,2024-06-20_13h27.46.870,LearnStrategy,2023.2.3,Win32,60.24096386,,,,,,,,,,,6,15,6,3,,,,,,,,,,,,,,,,,,,,,,,,,,,,,
5e914ee346d11b48197172c2,TCR,2024-06-20_13h27.46.870,LearnStrategy,2023.2.3,Win32,60.24096386,,,,,,,,,,,8,16,6,4,,,,,,,,,,,,,,,,,,,,,,,,,,,,,
5e914ee346d11b48197172c2,TCR,2024-06-20_13h27.46.870,LearnStrategy,2023.2.3,Win32,60.24096386,,,,,,,,,,,3,11,6,5,,,,,,,,,,,,,,,,,,,,,,,,,,,,,
5e914ee346d11b48197172c2,TCR,2024-06-20_13h27.46.870,LearnStrategy,2023.2.3,Win32,60.24096386,,,,,,,,,,,2,05,6,6,,,,,,,,,,,,,,,,,,,,,,,,,,,,,
5e914ee346d11b48197172c2,TCR,2024-06-20_13h27.46.870,LearnStrategy,2023.2.3,Win32,60.24096386,,,,,,,,,,,4,16,6,7,,,,,,,,,,,,,,,,,,,,,,,,,,,,,
5e914ee346d11b48197172c2,TCR,2024-06-20_13h27.46.870,LearnStrategy,2023.2.3,Win32,60.24096386,,,,,,,,,,,2,16,6,8,,,,,,,,,,,,,,,,,,,,,,,,,,,,,