participant,condition,date,expName,psychopyVersion,OS,frameRate,block,phase,trial,learn_mouse.x,learn_mouse.y,learn_mouse.leftButton,learn_mouse.midButton,learn_mouse.rightButton,learn_mouse.time,learn_mouse.clicked_name,cat,token,row,col,t_select,cat_mouse_l.x,cat_mouse_l.y,cat_mouse_l.leftButton,cat_mouse_l.midButton,cat_mouse_l.rightButton,cat_mouse_l.time,cat_mouse_l.clicked_name,resp,t_resp,corr,train_trials.thisRepN,train_trials.thisTrialN,train_trials.thisN,train_trials.thisIndex,train_trials.ran,cat_mouse_t.x,cat_mouse_t.y,cat_mouse_t.leftButton,cat_mouse_t.midButton,cat_mouse_t.rightButton,cat_mouse_t.time,cat_mouse_t.clicked_name,test_trials.thisRepN,test_trials.thisTrialN,test_trials.thisN,test_trials.thisIndex,test_trials.ran,Bonus
5e9f3f09ccc75a0c345e4845,SCN,2024-06-11_13h12.59.099,LearnStrategy,2023.2.3,Win32,60.24096386,,,,,,,,,,,,,,,,,,,,,,,,,,,,,,,,,,,,,,,,,,,
5e9f3f09ccc75a0c345e4845,SCN,2024-06-11_13h12.59.099,LearnStrategy,2023.2.3,Win32,60.24096386,1,1,1,0.043518519,0.090740741,1,0,0,2.5807,Obsidian_10,5,10,4,5,2.581,-0.375,-0.400925926,1,0,0,3.8956,Obsidian_rect,5,3.896,1,0,0,0,0,1,,,,,,,,,,,,,
5e9f3f09ccc75a0c345e4845,SCN,2024-06-11_13h12.59.099,LearnStrategy,2023.2.3,Win32,60.24096386,1,1,2,-0.233333333,0.088888889,1,0,0,3.3456,Diorite_13,3,13,4,3,3.346,0.435185185,-0.416666667,1,0,0,3.4757,Pumice_rect,8,3.476,0,1,0,1,0,1,,,,,,,,,,,,,
5e9f3f09ccc75a0c345e4845,SCN,2024-06-11_13h12.59.099,LearnStrategy,2023.2.3,Win32,60.24096386,1,1,3,-0.088888889,-0.260185185,1,0,0,4.38,Andesite_03,1,03,2,4,4.38,-0.088888889,-0.260185185,1,0,0,1.1619,Basalt_rect,2,1.162,0,2,0,2,0,1,,,,,,,,,,,,,
5e9f3f09ccc75a0c345e4845,SCN,2024-06-11_13h12.59.099,LearnStrategy,2023.2.3,Win32,60.24096386,1,1,4,-0.386111111,-0.410185185,1,0,0,4.636,Pegmatite_10,6,10,1,2,4.636,0.052777778,-0.394444444,1,0,0,2.4543,Peridotite_rect,7,2.454,0,3,0,3,0,1,,,,,,,,,,,,,
5e9f3f09ccc75a0c345e4845,SCN,2024-06-11_13h12.59.099,LearnStrategy,2023.2.3,Win32,60.24096386,1,1,5,-0.37037037,0.253703704,1,0,0,2.7054,Gabbro_12,4,12,5,2,2.705,0.450925926,-0.240740741,1,0,0,2.1187,Gabbro_rect,4,2.119,1,4,0,4,0,1,,,,,,,,,,,,,
5e9f3f09ccc75a0c345e4845,SCN,2024-06-11_13h12.59.099,LearnStrategy,2023.2.3,Win32,60.24096386,1,1,6,-0.076851852,0.248148148,1,0,0,2.6558,Pumice_09,8,09,5,4,2.656,0.384259259,-0.39537037,1,0,0,1.2463,Pumice_rect,8,1.246,1,5,0,5,0,1,,,,,,,,,,,,,
5e9f3f09ccc75a0c345e4845,SCN,2024-06-11_13h12.59.099,LearnStrategy,2023.2.3,Win32,60.24096386,1,1,7,-0.543518519,-0.405555556,1,0,0,2.4756,Peridotite_13,7,13,1,1,2.476,0.207407407,-0.398148148,1,0,0,3.0335,Peridotite_rect,7,3.034,1,6,0,6,0,1,,,,,,,,,,,,,
5e9f3f09ccc75a0c345e4845,SCN,2024-06-11_13h12.59.099,LearnStrategy,2023.2.3,Win32,60.24096386,1,1,8,0.409259259,-0.085185185,1,0,0,2.2858,Pegmatite_11,6,11,3,7,2.286,0.128703704,-0.266666667,1,0,0,1.8858,Diorite_rect,3,1.886,0,7,0,7,0,1,,,,,,,,,,,,,
5e9f3f09ccc75a0c345e4845,SCN,2024-06-11_13h12.59.099,LearnStrategy,2023.2.3,Win32,60.24096386,1,1,9,0.251851852,0.393518519,1,0,0,2.8005,Peridotite_04,7,04,6,6,2.8,-0.153703704,-0.410185185,1,0,0,1.9853,Pegmatite_rect,6,1.985,0,8,0,8,0,1,,,,,,,,,,,,,
5e9f3f09ccc75a0c345e4845,SCN,2024-06-11_13h12.59.099,LearnStrategy,2023.2.3,Win32,60.24096386,1,1,10,-0.575,0.427777778,1,0,0,3.4407,Pegmatite_12,6,12,6,1,3.441,-0.413888889,-0.230555556,1,0,0,3.4966,Andesite_rect,1,3.497,0,9,0,9,0,1,,,,,,,,,,,,,
5e9f3f09ccc75a0c345e4845,SCN,2024-06-11_13h12.59.099,LearnStrategy,2023.2.3,Win32,60.24096386,1,1,11,0.244444444,0.248148148,1,0,0,1.9748,Andesite_07,1,07,5,6,1.975,-0.099074074,-0.228703704,1,0,0,3.4838,Basalt_rect,2,3.484,0,10,0,10,0,1,,,,,,,,,,,,,
5e9f3f09ccc75a0c345e4845,SCN,2024-06-11_13h12.59.099,LearnStrategy,2023.2.3,Win32,60.24096386,1,1,12,-0.373148148,-0.226851852,1,0,0,1.7332,Pumice_02,8,02,2,2,1.733,0.376851852,-0.396296296,1,0,0,1.8511,Pumice_rect,8,1.851,1,11,0,11,0,1,,,,,,,,,,,,,
5e9f3f09ccc75a0c345e4845,SCN,2024-06-11_13h12.59.099,LearnStrategy,2023.2.3,Win32,60.24096386,1,1,13,0.080555556,-0.247222222,1,0,0,4.5079,Gabbro_13,4,13,2,5,4.508,-0.144444444,-0.265740741,1,0,0,1.5007,Basalt_rect,2,1.501,0,12,0,12,0,1,,,,,,,,,,,,,
5e9f3f09ccc75a0c345e4845,SCN,2024-06-11_13h12.59.099,LearnStrategy,2023.2.3,Win32,60.24096386,1,1,14,-0.424074074,0.417592593,1,0,0,3.3942,Pumice_16,8,16,6,2,3.394,0.150925926,-0.246296296,1,0,0,1.666,Diorite_rect,3,1.666,0,13,0,13,0,1,,,,,,,,,,,,,
5e9f3f09ccc75a0c345e4845,SCN,2024-06-11_13h12.59.099,LearnStrategy,2023.2.3,Win32,60.24096386,1,1,15,0.531481481,0.232407407,1,0,0,2.4344,Gabbro_01,4,01,5,8,2.434,-0.175,-0.242592593,1,0,0,2.5714,Basalt_rect,2,2.571,0,14,0,14,0,1,,,,,,,,,,,,,
5e9f3f09ccc75a0c345e4845,SCN,2024-06-11_13h12.59.099,LearnStrategy,2023.2.3,Win32,60.24096386,1,1,16,0.517592593,0.435185185,1,0,0,3.2548,Peridotite_08,7,08,6,8,3.255,0.133333333,-0.228703704,1,0,0,1.6461,Diorite_rect,3,1.646,0,15,0,15,0,1,,,,,,,,,,,,,
5e9f3f09ccc75a0c345e4845,SCN,2024-06-11_13h12.59.099,LearnStrategy,2023.2.3,Win32,60.24096386,1,2,1,,,,,,,,3,02,,,,,,,,,,,4,6.14,0,,,,,,0.387962963,-0.242592593,1,0,0,6.1398,Gabbro_rect,0,0,0,0,1,
5e9f3f09ccc75a0c345e4845,SCN,2024-06-11_13h12.59.099,LearnStrategy,2023.2.3,Win32,60.24096386,1,2,2,,,,,,,,2,14,,,,,,,,,,,2,2.28,1,,,,,,-0.167592593,-0.260185185,1,0,0,2.2803,Basalt_rect,1,0,1,0,1,
5e9f3f09ccc75a0c345e4845,SCN,2024-06-11_13h12.59.099,LearnStrategy,2023.2.3,Win32,60.24096386,1,2,3,,,,,,,,6,06,,,,,,,,,,,4,4.678,0,,,,,,0.371296296,-0.262962963,1,0,0,4.6776,Gabbro_rect,2,0,2,0,1,
5e9f3f09ccc75a0c345e4845,SCN,2024-06-11_13h12.59.099,LearnStrategy,2023.2.3,Win32,60.24096386,1,2,4,,,,,,,,8,10,,,,,,,,,,,8,1.257,1,,,,,,0.366666667,-0.387962963,1,0,0,1.2572,Pumice_rect,3,0,3,0,1,
5e9f3f09ccc75a0c345e4845,SCN,2024-06-11_13h12.59.099,LearnStrategy,2023.2.3,Win32,60.24096386,1,2,5,,,,,,,,3,11,,,,,,,,,,,1,2.709,0,,,,,,-0.386111111,-0.266666667,1,0,0,2.7091,Andesite_rect,4,0,4,0,1,
5e9f3f09ccc75a0c345e4845,SCN,2024-06-11_13h12.59.099,LearnStrategy,2023.2.3,Win32,60.24096386,1,2,6,,,,,,,,1,10,,,,,,,,,,,8,1.898,0,,,,,,0.4,-0.389814815,1,0,0,1.8978,Pumice_rect,5,0,5,0,1,
5e9f3f09ccc75a0c345e4845,SCN,2024-06-11_13h12.59.099,LearnStrategy,2023.2.3,Win32,60.24096386,1,2,7,,,,,,,,4,09,,,,,,,,,,,5,2.983,0,,,,,,-0.382407407,-0.407407407,1,0,0,2.9829,Obsidian_rect,6,0,6,0,1,
5e9f3f09ccc75a0c345e4845,SCN,2024-06-11_13h12.59.099,LearnStrategy,2023.2.3,Win32,60.24096386,1,2,8,,,,,,,,6,09,,,,,,,,,,,6,3.034,1,,,,,,-0.067592593,-0.406481481,1,0,0,3.0335,Pegmatite_rect,7,0,7,0,1,
5e9f3f09ccc75a0c345e4845,SCN,2024-06-11_13h12.59.099,LearnStrategy,2023.2.3,Win32,60.24096386,1,2,9,,,,,,,,7,15,,,,,,,,,,,7,1.286,1,,,,,,0.112962963,-0.383333333,1,0,0,1.2864,Peridotite_rect,8,0,8,0,1,
5e9f3f09ccc75a0c345e4845,SCN,2024-06-11_13h12.59.099,LearnStrategy,2023.2.3,Win32,60.24096386,1,2,10,,,,,,,,2,12,,,,,,,,,,,8,2.277,0,,,,,,0.462962963,-0.405555556,1,0,0,2.2771,Pumice_rect,9,0,9,0,1,
5e9f3f09ccc75a0c345e4845,SCN,2024-06-11_13h12.59.099,LearnStrategy,2023.2.3,Win32,60.24096386,1,2,11,,,,,,,,5,02,,,,,,,,,,,5,1.387,1,,,,,,-0.425,-0.417592593,1,0,0,1.3873,Obsidian_rect,10,0,10,0,1,
5e9f3f09ccc75a0c345e4845,SCN,2024-06-11_13h12.59.099,LearnStrategy,2023.2.3,Win32,60.24096386,1,2,12,,,,,,,,1,09,,,,,,,,,,,2,1.792,0,,,,,,-0.14537037,-0.234259259,1,0,0,1.792,Basalt_rect,11,0,11,0,1,
5e9f3f09ccc75a0c345e4845,SCN,2024-06-11_13h12.59.099,LearnStrategy,2023.2.3,Win32,60.24096386,1,2,13,,,,,,,,5,05,,,,,,,,,,,3,2.094,0,,,,,,0.169444444,-0.258333333,1,0,0,2.0937,Diorite_rect,12,0,12,0,1,
5e9f3f09ccc75a0c345e4845,SCN,2024-06-11_13h12.59.099,LearnStrategy,2023.2.3,Win32,60.24096386,1,2,14,,,,,,,,7,12,,,,,,,,,,,7,2.813,1,,,,,,0.047222222,-0.412037037,1,0,0,2.8132,Peridotite_rect,13,0,13,0,1,
5e9f3f09ccc75a0c345e4845,SCN,2024-06-11_13h12.59.099,LearnStrategy,2023.2.3,Win32,60.24096386,1,2,15,,,,,,,,8,04,,,,,,,,,,,8,1.124,1,,,,,,0.371296296,-0.37962963,1,0,0,1.1243,Pumice_rect,14,0,14,0,1,
5e9f3f09ccc75a0c345e4845,SCN,2024-06-11_13h12.59.099,LearnStrategy,2023.2.3,Win32,60.24096386,1,2,16,,,,,,,,4,15,,,,,,,,,,,4,1.756,1,,,,,,0.34537037,-0.252777778,1,0,0,1.7558,Gabbro_rect,15,0,15,0,1,
5e9f3f09ccc75a0c345e4845,SCN,2024-06-11_13h12.59.099,LearnStrategy,2023.2.3,Win32,60.24096386,2,1,1,0.4,-0.124074074,1,0,0,3.0888,Pegmatite_11,6,11,3,7,3.089,0.417592593,-0.236111111,1,0,0,1.4443,Gabbro_rect,4,1.444,0,0,0,0,0,1,,,,,,,,,,,,,
5e9f3f09ccc75a0c345e4845,SCN,2024-06-11_13h12.59.099,LearnStrategy,2023.2.3,Win32,60.24096386,2,1,2,-0.547222222,0.085185185,1,0,0,3.0931,Pegmatite_07,6,07,4,1,3.093,-0.062037037,-0.398148148,1,0,0,1.1999,Pegmatite_rect,6,1.2,1,1,0,1,0,1,,,,,,,,,,,,,
5e9f3f09ccc75a0c345e4845,SCN,2024-06-11_13h12.59.099,LearnStrategy,2023.2.3,Win32,60.24096386,2,1,3,-0.212962963,0.287037037,1,0,0,2.1021,Pegmatite_13,6,13,5,3,2.102,-0.185185185,-0.409259259,1,0,0,1.3553,Pegmatite_rect,6,1.355,1,2,0,2,0,1,,,,,,,,,,,,,
5e9f3f09ccc75a0c345e4845,SCN,2024-06-11_13h12.59.099,LearnStrategy,2023.2.3,Win32,60.24096386,2,1,4,0.262037037,0.259259259,1,0,0,3.0606,Andesite_07,1,07,5,6,3.061,0.376851852,-0.264814815,1,0,0,1.337,Gabbro_rect,4,1.337,0,3,0,3,0,1,,,,,,,,,,,,,
5e9f3f09ccc75a0c345e4845,SCN,2024-06-11_13h12.59.099,LearnStrategy,2023.2.3,Win32,60.24096386,2,1,5,-0.399074074,-0.097222222,1,0,0,4.5508,Diorite_16,3,16,3,2,4.551,-0.346296296,-0.242592593,1,0,0,1.0901,Andesite_rect,1,1.09,0,4,0,4,0,1,,,,,,,,,,,,,
5e9f3f09ccc75a0c345e4845,SCN,2024-06-11_13h12.59.099,LearnStrategy,2023.2.3,Win32,60.24096386,2,1,6,0.037962963,-0.07962963,1,0,0,1.7932,Diorite_06,3,06,3,5,1.793,0.049074074,-0.253703704,1,0,0,2.1747,Diorite_rect,3,2.175,1,5,0,5,0,1,,,,,,,,,,,,,
5e9f3f09ccc75a0c345e4845,SCN,2024-06-11_13h12.59.099,LearnStrategy,2023.2.3,Win32,60.24096386,2,1,7,-0.224074074,0.111111111,1,0,0,2.4853,Diorite_13,3,13,4,3,2.485,0.175925926,-0.240740741,1,0,0,1.3509,Diorite_rect,3,1.351,1,6,0,6,0,1,,,,,,,,,,,,,
5e9f3f09ccc75a0c345e4845,SCN,2024-06-11_13h12.59.099,LearnStrategy,2023.2.3,Win32,60.24096386,2,1,8,0.090740741,0.275925926,1,0,0,2.1363,Andesite_11,1,11,5,5,2.136,-0.200925926,-0.255555556,1,0,0,1.7123,Basalt_rect,2,1.712,0,7,0,7,0,1,,,,,,,,,,,,,
5e9f3f09ccc75a0c345e4845,SCN,2024-06-11_13h12.59.099,LearnStrategy,2023.2.3,Win32,60.24096386,2,1,9,0.587037037,0.263888889,1,0,0,2.2626,Gabbro_01,4,01,5,8,2.263,-0.349074074,-0.264814815,1,0,0,1.3754,Andesite_rect,1,1.375,0,8,0,8,0,1,,,,,,,,,,,,,
5e9f3f09ccc75a0c345e4845,SCN,2024-06-11_13h12.59.099,LearnStrategy,2023.2.3,Win32,60.24096386,2,1,10,0.064814815,-0.237037037,1,0,0,1.8163,Gabbro_13,4,13,2,5,1.816,0.407407407,-0.27037037,1,0,0,1.233,Gabbro_rect,4,1.233,1,9,0,9,0,1,,,,,,,,,,,,,
5e9f3f09ccc75a0c345e4845,SCN,2024-06-11_13h12.59.099,LearnStrategy,2023.2.3,Win32,60.24096386,2,1,11,0.09537037,-0.438888889,1,0,0,3.1623,Andesite_16,1,16,1,5,3.162,-0.4,-0.258333333,1,0,0,1.9366,Andesite_rect,1,1.937,1,10,0,10,0,1,,,,,,,,,,,,,
5e9f3f09ccc75a0c345e4845,SCN,2024-06-11_13h12.59.099,LearnStrategy,2023.2.3,Win32,60.24096386,2,1,12,0.080555556,-0.096296296,1,0,0,1.2455,Diorite_06,3,06,3,5,1.245,-0.468518519,-0.260185185,1,0,0,1.2027,Andesite_rect,1,1.203,0,11,0,11,0,1,,,,,,,,,,,,,
5e9f3f09ccc75a0c345e4845,SCN,2024-06-11_13h12.59.099,LearnStrategy,2023.2.3,Win32,60.24096386,2,1,13,0.550925926,-0.217592593,1,0,0,1.5676,Peridotite_05,7,05,2,8,1.568,-0.078703704,-0.249074074,1,0,0,1.2673,Basalt_rect,2,1.267,0,12,0,12,0,1,,,,,,,,,,,,,
5e9f3f09ccc75a0c345e4845,SCN,2024-06-11_13h12.59.099,LearnStrategy,2023.2.3,Win32,60.24096386,2,1,14,-0.24537037,0.428703704,1,0,0,3.5114,Peridotite_02,7,02,6,3,3.511,0.093518519,-0.389814815,1,0,0,1.7665,Peridotite_rect,7,1.766,1,13,0,13,0,1,,,,,,,,,,,,,
5e9f3f09ccc75a0c345e4845,SCN,2024-06-11_13h12.59.099,LearnStrategy,2023.2.3,Win32,60.24096386,2,1,15,-0.076851852,-0.071296296,1,0,0,1.2429,Gabbro_14,4,14,3,4,1.243,-0.086111111,-0.242592593,1,0,0,1.2177,Basalt_rect,2,1.218,0,14,0,14,0,1,,,,,,,,,,,,,
5e9f3f09ccc75a0c345e4845,SCN,2024-06-11_13h12.59.099,LearnStrategy,2023.2.3,Win32,60.24096386,2,1,16,0.416666667,-0.260185185,1,0,0,1.6957,Basalt_10,2,10,2,7,1.696,0.407407407,-0.248148148,1,0,0,2.0444,Gabbro_rect,4,2.044,0,15,0,15,0,1,,,,,,,,,,,,,
5e9f3f09ccc75a0c345e4845,SCN,2024-06-11_13h12.59.099,LearnStrategy,2023.2.3,Win32,60.24096386,2,2,1,,,,,,,,5,06,,,,,,,,,,,5,2.222,1,,,,,,-0.382407407,-0.384259259,1,0,0,2.2221,Obsidian_rect,0,0,0,0,1,
5e9f3f09ccc75a0c345e4845,SCN,2024-06-11_13h12.59.099,LearnStrategy,2023.2.3,Win32,60.24096386,2,2,2,,,,,,,,2,09,,,,,,,,,,,1,4.286,0,,,,,,-0.361111111,-0.237962963,1,0,0,4.286,Andesite_rect,1,0,1,0,1,
5e9f3f09ccc75a0c345e4845,SCN,2024-06-11_13h12.59.099,LearnStrategy,2023.2.3,Win32,60.24096386,2,2,3,,,,,,,,1,01,,,,,,,,,,,3,2.697,0,,,,,,0.026851852,-0.265740741,1,0,0,2.6974,Diorite_rect,2,0,2,0,1,
5e9f3f09ccc75a0c345e4845,SCN,2024-06-11_13h12.59.099,LearnStrategy,2023.2.3,Win32,60.24096386,2,2,4,,,,,,,,5,04,,,,,,,,,,,5,1.462,1,,,,,,-0.350925926,-0.394444444,1,0,0,1.4619,Obsidian_rect,3,0,3,0,1,
5e9f3f09ccc75a0c345e4845,SCN,2024-06-11_13h12.59.099,LearnStrategy,2023.2.3,Win32,60.24096386,2,2,5,,,,,,,,4,05,,,,,,,,,,,1,3.29,0,,,,,,-0.343518519,-0.255555556,1,0,0,3.29,Andesite_rect,4,0,4,0,1,
5e9f3f09ccc75a0c345e4845,SCN,2024-06-11_13h12.59.099,LearnStrategy,2023.2.3,Win32,60.24096386,2,2,6,,,,,,,,6,16,,,,,,,,,,,3,1.945,0,,,,,,0.198148148,-0.253703704,1,0,0,1.9448,Diorite_rect,5,0,5,0,1,
5e9f3f09ccc75a0c345e4845,SCN,2024-06-11_13h12.59.099,LearnStrategy,2023.2.3,Win32,60.24096386,2,2,7,,,,,,,,3,15,,,,,,,,,,,3,0.88,1,,,,,,0.185185185,-0.258333333,1,0,0,0.8799,Diorite_rect,6,0,6,0,1,
5e9f3f09ccc75a0c345e4845,SCN,2024-06-11_13h12.59.099,LearnStrategy,2023.2.3,Win32,60.24096386,2,2,8,,,,,,,,8,15,,,,,,,,,,,8,1.475,1,,,,,,0.388888889,-0.408333333,1,0,0,1.4746,Pumice_rect,7,0,7,0,1,
5e9f3f09ccc75a0c345e4845,SCN,2024-06-11_13h12.59.099,LearnStrategy,2023.2.3,Win32,60.24096386,2,2,9,,,,,,,,4,03,,,,,,,,,,,3,1.234,0,,,,,,0.17037037,-0.255555556,1,0,0,1.2338,Diorite_rect,8,0,8,0,1,
5e9f3f09ccc75a0c345e4845,SCN,2024-06-11_13h12.59.099,LearnStrategy,2023.2.3,Win32,60.24096386,2,2,10,,,,,,,,2,01,,,,,,,,,,,2,3.115,1,,,,,,-0.135185185,-0.265740741,1,0,0,3.1153,Basalt_rect,9,0,9,0,1,
5e9f3f09ccc75a0c345e4845,SCN,2024-06-11_13h12.59.099,LearnStrategy,2023.2.3,Win32,60.24096386,2,2,11,,,,,,,,7,14,,,,,,,,,,,7,2.452,1,,,,,,0.093518519,-0.408333333,1,0,0,2.4522,Peridotite_rect,10,0,10,0,1,
5e9f3f09ccc75a0c345e4845,SCN,2024-06-11_13h12.59.099,LearnStrategy,2023.2.3,Win32,60.24096386,2,2,12,,,,,,,,6,08,,,,,,,,,,,4,4.262,0,,,,,,0.403703704,-0.237037037,1,0,0,4.2617,Gabbro_rect,11,0,11,0,1,
5e9f3f09ccc75a0c345e4845,SCN,2024-06-11_13h12.59.099,LearnStrategy,2023.2.3,Win32,60.24096386,2,2,13,,,,,,,,8,08,,,,,,,,,,,8,1.211,1,,,,,,0.451851852,-0.406481481,1,0,0,1.2108,Pumice_rect,12,0,12,0,1,
5e9f3f09ccc75a0c345e4845,SCN,2024-06-11_13h12.59.099,LearnStrategy,2023.2.3,Win32,60.24096386,2,2,14,,,,,,,,7,06,,,,,,,,,,,3,2.34,0,,,,,,0.133333333,-0.252777778,1,0,0,2.3399,Diorite_rect,13,0,13,0,1,
5e9f3f09ccc75a0c345e4845,SCN,2024-06-11_13h12.59.099,LearnStrategy,2023.2.3,Win32,60.24096386,2,2,15,,,,,,,,1,02,,,,,,,,,,,3,1.003,0,,,,,,0.14537037,-0.253703704,1,0,0,1.0027,Diorite_rect,14,0,14,0,1,
5e9f3f09ccc75a0c345e4845,SCN,2024-06-11_13h12.59.099,LearnStrategy,2023.2.3,Win32,60.24096386,2,2,16,,,,,,,,3,07,,,,,,,,,,,3,0.827,1,,,,,,0.14537037,-0.250925926,1,0,0,0.8268,Diorite_rect,15,0,15,0,1,
5e9f3f09ccc75a0c345e4845,SCN,2024-06-11_13h12.59.099,LearnStrategy,2023.2.3,Win32,60.24096386,3,1,1,-0.596296296,0.10462963,1,0,0,2.7622,Pegmatite_07,6,07,4,1,2.762,0.17962963,-0.253703704,1,0,0,1.6526,Diorite_rect,3,1.653,0,0,0,0,0,1,,,,,,,,,,,,,
5e9f3f09ccc75a0c345e4845,SCN,2024-06-11_13h12.59.099,LearnStrategy,2023.2.3,Win32,60.24096386,3,1,2,0.382407407,-0.114814815,1,0,0,1.7809,Pegmatite_11,6,11,3,7,1.781,0.113888889,-0.252777778,1,0,0,1.2034,Diorite_rect,3,1.203,0,1,0,1,0,1,,,,,,,,,,,,,
5e9f3f09ccc75a0c345e4845,SCN,2024-06-11_13h12.59.099,LearnStrategy,2023.2.3,Win32,60.24096386,3,1,3,-0.393518519,-0.243518519,1,0,0,1.7134,Pumice_02,8,02,2,2,1.713,0.496296296,-0.414814815,1,0,0,0.9904,Pumice_rect,8,0.99,1,2,0,2,0,1,,,,,,,,,,,,,
5e9f3f09ccc75a0c345e4845,SCN,2024-06-11_13h12.59.099,LearnStrategy,2023.2.3,Win32,60.24096386,3,1,4,0.10462963,-0.423148148,1,0,0,1.2481,Andesite_16,1,16,1,5,1.248,0.152777778,-0.259259259,1,0,0,1.2974,Diorite_rect,3,1.297,0,3,0,3,0,1,,,,,,,,,,,,,
5e9f3f09ccc75a0c345e4845,SCN,2024-06-11_13h12.59.099,LearnStrategy,2023.2.3,Win32,60.24096386,3,1,5,0.065740741,0.274074074,1,0,0,2.0806,Andesite_11,1,11,5,5,2.081,-0.368518519,-0.235185185,1,0,0,1.2082,Andesite_rect,1,1.208,1,4,0,4,0,1,,,,,,,,,,,,,
5e9f3f09ccc75a0c345e4845,SCN,2024-06-11_13h12.59.099,LearnStrategy,2023.2.3,Win32,60.24096386,3,1,6,0.362037037,0.402777778,1,0,0,1.8879,Gabbro_08,4,08,6,7,1.888,-0.416666667,-0.246296296,1,0,0,1.4751,Andesite_rect,1,1.475,0,5,0,5,0,1,,,,,,,,,,,,,
5e9f3f09ccc75a0c345e4845,SCN,2024-06-11_13h12.59.099,LearnStrategy,2023.2.3,Win32,60.24096386,3,1,7,-0.215740741,0.397222222,1,0,0,2.1781,Peridotite_02,7,02,6,3,2.178,0.162962963,-0.391666667,1,0,0,1.4895,Peridotite_rect,7,1.49,1,6,0,6,0,1,,,,,,,,,,,,,
5e9f3f09ccc75a0c345e4845,SCN,2024-06-11_13h12.59.099,LearnStrategy,2023.2.3,Win32,60.24096386,3,1,8,-0.091666667,0.401851852,1,0,0,1.3595,Pegmatite_05,6,05,6,4,1.36,-0.075925926,-0.405555556,1,0,0,3.7144,Pegmatite_rect,6,3.714,1,7,0,7,0,1,,,,,,,,,,,,,
5e9f3f09ccc75a0c345e4845,SCN,2024-06-11_13h12.59.099,LearnStrategy,2023.2.3,Win32,60.24096386,3,1,9,0.367592593,-0.084259259,1,0,0,1.7623,Pegmatite_11,6,11,3,7,1.762,-0.193518519,-0.412037037,1,0,0,1.3664,Pegmatite_rect,6,1.366,1,8,0,8,0,1,,,,,,,,,,,,,
5e9f3f09ccc75a0c345e4845,SCN,2024-06-11_13h12.59.099,LearnStrategy,2023.2.3,Win32,60.24096386,3,1,10,-0.217592593,0.105555556,1,0,0,1.605,Diorite_13,3,13,4,3,1.605,0.122222222,-0.231481481,1,0,0,0.8946,Diorite_rect,3,0.895,1,9,0,9,0,1,,,,,,,,,,,,,
5e9f3f09ccc75a0c345e4845,SCN,2024-06-11_13h12.59.099,LearnStrategy,2023.2.3,Win32,60.24096386,3,1,11,-0.259259259,0.240740741,1,0,0,3.3277,Pegmatite_13,6,13,5,3,3.328,-0.087037037,-0.411111111,1,0,0,1.3134,Pegmatite_rect,6,1.313,1,10,0,10,0,1,,,,,,,,,,,,,
5e9f3f09ccc75a0c345e4845,SCN,2024-06-11_13h12.59.099,LearnStrategy,2023.2.3,Win32,60.24096386,3,1,12,0.269444444,0.24537037,1,0,0,1.5954,Andesite_07,1,07,5,6,1.595,0.116666667,-0.256481481,1,0,0,1.5102,Diorite_rect,3,1.51,0,11,0,11,0,1,,,,,,,,,,,,,
5e9f3f09ccc75a0c345e4845,SCN,2024-06-11_13h12.59.099,LearnStrategy,2023.2.3,Win32,60.24096386,3,1,13,-0.372222222,-0.107407407,1,0,0,1.2571,Diorite_16,3,16,3,2,1.257,-0.387962963,-0.251851852,1,0,0,1.2038,Andesite_rect,1,1.204,0,12,0,12,0,1,,,,,,,,,,,,,
5e9f3f09ccc75a0c345e4845,SCN,2024-06-11_13h12.59.099,LearnStrategy,2023.2.3,Win32,60.24096386,3,1,14,0.4,-0.246296296,1,0,0,1.5603,Basalt_10,2,10,2,7,1.56,0.399074074,-0.240740741,1,0,0,0.8603,Gabbro_rect,4,0.86,0,13,0,13,0,1,,,,,,,,,,,,,
5e9f3f09ccc75a0c345e4845,SCN,2024-06-11_13h12.59.099,LearnStrategy,2023.2.3,Win32,60.24096386,3,1,15,-0.049074074,-0.100925926,1,0,0,1.3064,Gabbro_14,4,14,3,4,1.306,-0.157407407,-0.238888889,1,0,0,1.1505,Basalt_rect,2,1.15,0,14,0,14,0,1,,,,,,,,,,,,,
5e9f3f09ccc75a0c345e4845,SCN,2024-06-11_13h12.59.099,LearnStrategy,2023.2.3,Win32,60.24096386,3,1,16,-0.550925926,-0.085185185,1,0,0,2.2037,Basalt_04,2,04,3,1,2.204,0.400925926,-0.236111111,1,0,0,1.9341,Gabbro_rect,4,1.934,0,15,0,15,0,1,,,,,,,,,,,,,
5e9f3f09ccc75a0c345e4845,SCN,2024-06-11_13h12.59.099,LearnStrategy,2023.2.3,Win32,60.24096386,3,2,1,,,,,,,,1,14,,,,,,,,,,,3,1.811,0,,,,,,0.106481481,-0.239814815,1,0,0,1.8105,Diorite_rect,0,0,0,0,1,
5e9f3f09ccc75a0c345e4845,SCN,2024-06-11_13h12.59.099,LearnStrategy,2023.2.3,Win32,60.24096386,3,2,2,,,,,,,,6,03,,,,,,,,,,,6,1.402,1,,,,,,-0.07037037,-0.403703704,1,0,0,1.4019,Pegmatite_rect,1,0,1,0,1,
5e9f3f09ccc75a0c345e4845,SCN,2024-06-11_13h12.59.099,LearnStrategy,2023.2.3,Win32,60.24096386,3,2,3,,,,,,,,8,05,,,,,,,,,,,8,1.359,1,,,,,,0.397222222,-0.37962963,1,0,0,1.3586,Pumice_rect,2,0,2,0,1,
5e9f3f09ccc75a0c345e4845,SCN,2024-06-11_13h12.59.099,LearnStrategy,2023.2.3,Win32,60.24096386,3,2,4,,,,,,,,4,11,,,,,,,,,,,1,3.361,0,,,,,,-0.449074074,-0.250925926,1,0,0,3.3614,Andesite_rect,3,0,3,0,1,
5e9f3f09ccc75a0c345e4845,SCN,2024-06-11_13h12.59.099,LearnStrategy,2023.2.3,Win32,60.24096386,3,2,5,,,,,,,,6,15,,,,,,,,,,,6,1.635,1,,,,,,-0.133333333,-0.4,1,0,0,1.635,Pegmatite_rect,4,0,4,0,1,
5e9f3f09ccc75a0c345e4845,SCN,2024-06-11_13h12.59.099,LearnStrategy,2023.2.3,Win32,60.24096386,3,2,6,,,,,,,,3,08,,,,,,,,,,,3,1.688,1,,,,,,0.169444444,-0.237962963,1,0,0,1.688,Diorite_rect,5,0,5,0,1,
5e9f3f09ccc75a0c345e4845,SCN,2024-06-11_13h12.59.099,LearnStrategy,2023.2.3,Win32,60.24096386,3,2,7,,,,,,,,2,02,,,,,,,,,,,2,1.506,1,,,,,,-0.068518519,-0.25,1,0,0,1.5064,Basalt_rect,6,0,6,0,1,
5e9f3f09ccc75a0c345e4845,SCN,2024-06-11_13h12.59.099,LearnStrategy,2023.2.3,Win32,60.24096386,3,2,8,,,,,,,,5,07,,,,,,,,,,,5,3.22,1,,,,,,-0.436111111,-0.398148148,1,0,0,3.2203,Obsidian_rect,7,0,7,0,1,
5e9f3f09ccc75a0c345e4845,SCN,2024-06-11_13h12.59.099,LearnStrategy,2023.2.3,Win32,60.24096386,3,2,9,,,,,,,,8,13,,,,,,,,,,,4,1.757,0,,,,,,0.456481481,-0.265740741,1,0,0,1.757,Gabbro_rect,8,0,8,0,1,
5e9f3f09ccc75a0c345e4845,SCN,2024-06-11_13h12.59.099,LearnStrategy,2023.2.3,Win32,60.24096386,3,2,10,,,,,,,,3,14,,,,,,,,,,,3,3.422,1,,,,,,0.159259259,-0.242592593,1,0,0,3.4223,Diorite_rect,9,0,9,0,1,
5e9f3f09ccc75a0c345e4845,SCN,2024-06-11_13h12.59.099,LearnStrategy,2023.2.3,Win32,60.24096386,3,2,11,,,,,,,,5,16,,,,,,,,,,,5,1.748,1,,,,,,-0.37037037,-0.387962963,1,0,0,1.7482,Obsidian_rect,10,0,10,0,1,
5e9f3f09ccc75a0c345e4845,SCN,2024-06-11_13h12.59.099,LearnStrategy,2023.2.3,Win32,60.24096386,3,2,12,,,,,,,,7,10,,,,,,,,,,,7,1.915,1,,,,,,0.171296296,-0.4,1,0,0,1.9148,Peridotite_rect,11,0,11,0,1,
5e9f3f09ccc75a0c345e4845,SCN,2024-06-11_13h12.59.099,LearnStrategy,2023.2.3,Win32,60.24096386,3,2,13,,,,,,,,4,16,,,,,,,,,,,2,1.54,0,,,,,,-0.189814815,-0.237037037,1,0,0,1.5405,Basalt_rect,12,0,12,0,1,
5e9f3f09ccc75a0c345e4845,SCN,2024-06-11_13h12.59.099,LearnStrategy,2023.2.3,Win32,60.24096386,3,2,14,,,,,,,,7,16,,,,,,,,,,,7,2.269,1,,,,,,0.108333333,-0.4,1,0,0,2.269,Peridotite_rect,13,0,13,0,1,
5e9f3f09ccc75a0c345e4845,SCN,2024-06-11_13h12.59.099,LearnStrategy,2023.2.3,Win32,60.24096386,3,2,15,,,,,,,,2,11,,,,,,,,,,,1,2.253,0,,,,,,-0.375,-0.252777778,1,0,0,2.2527,Andesite_rect,14,0,14,0,1,
5e9f3f09ccc75a0c345e4845,SCN,2024-06-11_13h12.59.099,LearnStrategy,2023.2.3,Win32,60.24096386,3,2,16,,,,,,,,1,05,,,,,,,,,,,3,1.589,0,,,,,,0.194444444,-0.243518519,1,0,0,1.589,Diorite_rect,15,0,15,0,1,
5e9f3f09ccc75a0c345e4845,SCN,2024-06-11_13h12.59.099,LearnStrategy,2023.2.3,Win32,60.24096386,4,1,1,0.067592593,-0.248148148,1,0,0,1.6747,Gabbro_13,4,13,2,5,1.675,-0.173148148,-0.257407407,1,0,0,3.4081,Basalt_rect,2,3.408,0,0,0,0,0,1,,,,,,,,,,,,,
5e9f3f09ccc75a0c345e4845,SCN,2024-06-11_13h12.59.099,LearnStrategy,2023.2.3,Win32,60.24096386,4,1,2,-0.064814815,-0.106481481,1,0,0,1.0228,Gabbro_14,4,14,3,4,1.023,0.40462963,-0.22962963,1,0,0,1.0528,Gabbro_rect,4,1.053,1,1,0,1,0,1,,,,,,,,,,,,,
5e9f3f09ccc75a0c345e4845,SCN,2024-06-11_13h12.59.099,LearnStrategy,2023.2.3,Win32,60.24096386,4,1,3,0.075,-0.227777778,1,0,0,1.6949,Gabbro_13,4,13,2,5,1.695,0.427777778,-0.252777778,1,0,0,1.75,Gabbro_rect,4,1.75,1,2,0,2,0,1,,,,,,,,,,,,,
5e9f3f09ccc75a0c345e4845,SCN,2024-06-11_13h12.59.099,LearnStrategy,2023.2.3,Win32,60.24096386,4,1,4,0.402777778,0.288888889,1,0,0,1.5219,Andesite_04,1,04,5,7,1.522,0.183333333,-0.239814815,1,0,0,1.4259,Diorite_rect,3,1.426,0,3,0,3,0,1,,,,,,,,,,,,,
5e9f3f09ccc75a0c345e4845,SCN,2024-06-11_13h12.59.099,LearnStrategy,2023.2.3,Win32,60.24096386,4,1,5,0.087962963,0.291666667,1,0,0,1.848,Andesite_11,1,11,5,5,1.848,-0.415740741,-0.263888889,1,0,0,1.4028,Andesite_rect,1,1.403,1,4,0,4,0,1,,,,,,,,,,,,,
5e9f3f09ccc75a0c345e4845,SCN,2024-06-11_13h12.59.099,LearnStrategy,2023.2.3,Win32,60.24096386,4,1,6,-0.075,-0.096296296,1,0,0,1.6939,Gabbro_14,4,14,3,4,1.694,0.349074074,-0.230555556,1,0,0,1.6308,Gabbro_rect,4,1.631,1,5,0,5,0,1,,,,,,,,,,,,,
5e9f3f09ccc75a0c345e4845,SCN,2024-06-11_13h12.59.099,LearnStrategy,2023.2.3,Win32,60.24096386,4,1,7,-0.24537037,-0.077777778,1,0,0,0.9533,Basalt_16,2,16,3,3,0.953,-0.103703704,-0.266666667,1,0,0,2.6471,Basalt_rect,2,2.647,1,6,0,6,0,1,,,,,,,,,,,,,
5e9f3f09ccc75a0c345e4845,SCN,2024-06-11_13h12.59.099,LearnStrategy,2023.2.3,Win32,60.24096386,4,1,8,-0.078703704,0.089814815,1,0,0,1.493,Pumice_06,8,06,4,4,1.493,0.424074074,-0.409259259,1,0,0,1.4739,Pumice_rect,8,1.474,1,7,0,7,0,1,,,,,,,,,,,,,
5e9f3f09ccc75a0c345e4845,SCN,2024-06-11_13h12.59.099,LearnStrategy,2023.2.3,Win32,60.24096386,4,1,9,0.539814815,0.400925926,1,0,0,3.0763,Peridotite_08,7,08,6,8,3.076,0.131481481,-0.419444444,1,0,0,1.4345,Peridotite_rect,7,1.434,1,8,0,8,0,1,,,,,,,,,,,,,
5e9f3f09ccc75a0c345e4845,SCN,2024-06-11_13h12.59.099,LearnStrategy,2023.2.3,Win32,60.24096386,4,1,10,-0.509259259,0.432407407,1,0,0,1.4997,Pegmatite_12,6,12,6,1,1.5,-0.385185185,-0.247222222,1,0,0,2.2295,Andesite_rect,1,2.23,0,9,0,9,0,1,,,,,,,,,,,,,
5e9f3f09ccc75a0c345e4845,SCN,2024-06-11_13h12.59.099,LearnStrategy,2023.2.3,Win32,60.24096386,4,1,11,-0.55,0.09537037,1,0,0,1.1512,Pegmatite_07,6,07,4,1,1.151,-0.113888889,-0.407407407,1,0,0,1.9206,Pegmatite_rect,6,1.921,1,10,0,10,0,1,,,,,,,,,,,,,
5e9f3f09ccc75a0c345e4845,SCN,2024-06-11_13h12.59.099,LearnStrategy,2023.2.3,Win32,60.24096386,4,1,12,-0.577777778,-0.25,1,0,0,1.6391,Basalt_08,2,08,2,1,1.639,-0.071296296,-0.232407407,1,0,0,1.4152,Basalt_rect,2,1.415,1,11,0,11,0,1,,,,,,,,,,,,,
5e9f3f09ccc75a0c345e4845,SCN,2024-06-11_13h12.59.099,LearnStrategy,2023.2.3,Win32,60.24096386,4,1,13,-0.07037037,-0.086111111,1,0,0,1.7754,Gabbro_14,4,14,3,4,1.775,0.415740741,-0.250925926,1,0,0,1.3885,Gabbro_rect,4,1.388,1,12,0,12,0,1,,,,,,,,,,,,,
5e9f3f09ccc75a0c345e4845,SCN,2024-06-11_13h12.59.099,LearnStrategy,2023.2.3,Win32,60.24096386,4,1,14,0.078703704,-0.387037037,1,0,0,1.4481,Andesite_16,1,16,1,5,1.448,0.099074074,-0.263888889,1,0,0,1.4089,Diorite_rect,3,1.409,0,13,0,13,0,1,,,,,,,,,,,,,
5e9f3f09ccc75a0c345e4845,SCN,2024-06-11_13h12.59.099,LearnStrategy,2023.2.3,Win32,60.24096386,4,1,15,-0.368518519,-0.100925926,1,0,0,1.712,Diorite_16,3,16,3,2,1.712,0.193518519,-0.238888889,1,0,0,1.1889,Diorite_rect,3,1.189,1,14,0,14,0,1,,,,,,,,,,,,,
5e9f3f09ccc75a0c345e4845,SCN,2024-06-11_13h12.59.099,LearnStrategy,2023.2.3,Win32,60.24096386,4,1,16,-0.215740741,0.125925926,1,0,0,1.8471,Diorite_13,3,13,4,3,1.847,0.157407407,-0.260185185,1,0,0,1.2673,Diorite_rect,3,1.267,1,15,0,15,0,1,,,,,,,,,,,,,
5e9f3f09ccc75a0c345e4845,SCN,2024-06-11_13h12.59.099,LearnStrategy,2023.2.3,Win32,60.24096386,4,2,1,,,,,,,,8,15,,,,,,,,,,,8,1.538,1,,,,,,0.428703704,-0.389814815,1,0,0,1.5381,Pumice_rect,0,0,0,0,1,
5e9f3f09ccc75a0c345e4845,SCN,2024-06-11_13h12.59.099,LearnStrategy,2023.2.3,Win32,60.24096386,4,2,2,,,,,,,,6,15,,,,,,,,,,,6,1.743,1,,,,,,-0.099074074,-0.389814815,1,0,0,1.7429,Pegmatite_rect,1,0,1,0,1,
5e9f3f09ccc75a0c345e4845,SCN,2024-06-11_13h12.59.099,LearnStrategy,2023.2.3,Win32,60.24096386,4,2,3,,,,,,,,7,15,,,,,,,,,,,7,1.337,1,,,,,,0.147222222,-0.405555556,1,0,0,1.337,Peridotite_rect,2,0,2,0,1,
5e9f3f09ccc75a0c345e4845,SCN,2024-06-11_13h12.59.099,LearnStrategy,2023.2.3,Win32,60.24096386,4,2,4,,,,,,,,4,15,,,,,,,,,,,4,5.077,1,,,,,,0.433333333,-0.240740741,1,0,0,5.0768,Gabbro_rect,3,0,3,0,1,
5e9f3f09ccc75a0c345e4845,SCN,2024-06-11_13h12.59.099,LearnStrategy,2023.2.3,Win32,60.24096386,4,2,5,,,,,,,,5,06,,,,,,,,,,,5,1.675,1,,,,,,-0.381481481,-0.398148148,1,0,0,1.6747,Obsidian_rect,4,0,4,0,1,
5e9f3f09ccc75a0c345e4845,SCN,2024-06-11_13h12.59.099,LearnStrategy,2023.2.3,Win32,60.24096386,4,2,6,,,,,,,,1,02,,,,,,,,,,,3,1.947,0,,,,,,0.160185185,-0.240740741,1,0,0,1.9474,Diorite_rect,5,0,5,0,1,
5e9f3f09ccc75a0c345e4845,SCN,2024-06-11_13h12.59.099,LearnStrategy,2023.2.3,Win32,60.24096386,4,2,7,,,,,,,,6,09,,,,,,,,,,,6,1.735,1,,,,,,-0.113888889,-0.381481481,1,0,0,1.7347,Pegmatite_rect,6,0,6,0,1,
5e9f3f09ccc75a0c345e4845,SCN,2024-06-11_13h12.59.099,LearnStrategy,2023.2.3,Win32,60.24096386,4,2,8,,,,,,,,7,16,,,,,,,,,,,7,1.139,1,,,,,,0.188888889,-0.394444444,1,0,0,1.1393,Peridotite_rect,7,0,7,0,1,
5e9f3f09ccc75a0c345e4845,SCN,2024-06-11_13h12.59.099,LearnStrategy,2023.2.3,Win32,60.24096386,4,2,9,,,,,,,,4,11,,,,,,,,,,,1,1.218,0,,,,,,-0.335185185,-0.238888889,1,0,0,1.2176,Andesite_rect,8,0,8,0,1,
5e9f3f09ccc75a0c345e4845,SCN,2024-06-11_13h12.59.099,LearnStrategy,2023.2.3,Win32,60.24096386,4,2,10,,,,,,,,1,09,,,,,,,,,,,1,1.598,1,,,,,,-0.361111111,-0.232407407,1,0,0,1.5985,Andesite_rect,9,0,9,0,1,
5e9f3f09ccc75a0c345e4845,SCN,2024-06-11_13h12.59.099,LearnStrategy,2023.2.3,Win32,60.24096386,4,2,11,,,,,,,,8,13,,,,,,,,,,,8,1.932,1,,,,,,0.45,-0.399074074,1,0,0,1.9317,Pumice_rect,10,0,10,0,1,
5e9f3f09ccc75a0c345e4845,SCN,2024-06-11_13h12.59.099,LearnStrategy,2023.2.3,Win32,60.24096386,4,2,12,,,,,,,,3,11,,,,,,,,,,,3,1.321,1,,,,,,0.174074074,-0.255555556,1,0,0,1.3212,Diorite_rect,11,0,11,0,1,
5e9f3f09ccc75a0c345e4845,SCN,2024-06-11_13h12.59.099,LearnStrategy,2023.2.3,Win32,60.24096386,4,2,13,,,,,,,,3,15,,,,,,,,,,,3,2.287,1,,,,,,0.182407407,-0.252777778,1,0,0,2.2874,Diorite_rect,12,0,12,0,1,
5e9f3f09ccc75a0c345e4845,SCN,2024-06-11_13h12.59.099,LearnStrategy,2023.2.3,Win32,60.24096386,4,2,14,,,,,,,,2,14,,,,,,,,,,,2,3.529,1,,,,,,-0.077777778,-0.235185185,1,0,0,3.5287,Basalt_rect,13,0,13,0,1,
5e9f3f09ccc75a0c345e4845,SCN,2024-06-11_13h12.59.099,LearnStrategy,2023.2.3,Win32,60.24096386,4,2,15,,,,,,,,5,16,,,,,,,,,,,5,1.497,1,,,,,,-0.40462963,-0.397222222,1,0,0,1.4972,Obsidian_rect,14,0,14,0,1,
5e9f3f09ccc75a0c345e4845,SCN,2024-06-11_13h12.59.099,LearnStrategy,2023.2.3,Win32,60.24096386,4,2,16,,,,,,,,2,09,,,,,,,,,,,1,1.668,0,,,,,,-0.416666667,-0.248148148,1,0,0,1.668,Andesite_rect,15,0,15,0,1,
5e9f3f09ccc75a0c345e4845,SCN,2024-06-11_13h12.59.099,LearnStrategy,2023.2.3,Win32,60.24096386,5,1,1,0.411111111,-0.251851852,1,0,0,1.3484,Basalt_10,2,10,2,7,1.348,-0.189814815,-0.260185185,1,0,0,1.3508,Basalt_rect,2,1.351,1,0,0,0,0,1,,,,,,,,,,,,,
5e9f3f09ccc75a0c345e4845,SCN,2024-06-11_13h12.59.099,LearnStrategy,2023.2.3,Win32,60.24096386,5,1,2,0.039814815,0.116666667,1,0,0,1.3725,Obsidian_10,5,10,4,5,1.373,-0.383333333,-0.394444444,1,0,0,1.2491,Obsidian_rect,5,1.249,1,1,0,1,0,1,,,,,,,,,,,,,
5e9f3f09ccc75a0c345e4845,SCN,2024-06-11_13h12.59.099,LearnStrategy,2023.2.3,Win32,60.24096386,5,1,3,0.114814815,0.274074074,1,0,0,1.7625,Andesite_11,1,11,5,5,1.763,-0.355555556,-0.234259259,1,0,0,1.2988,Andesite_rect,1,1.299,1,2,0,2,0,1,,,,,,,,,,,,,
5e9f3f09ccc75a0c345e4845,SCN,2024-06-11_13h12.59.099,LearnStrategy,2023.2.3,Win32,60.24096386,5,1,4,0.060185185,0.412037037,1,0,0,1.5118,Pumice_14,8,14,6,5,1.512,0.465740741,-0.40462963,1,0,0,1.2994,Pumice_rect,8,1.299,1,3,0,3,0,1,,,,,,,,,,,,,
5e9f3f09ccc75a0c345e4845,SCN,2024-06-11_13h12.59.099,LearnStrategy,2023.2.3,Win32,60.24096386,5,1,5,0.222222222,0.388888889,1,0,0,1.0173,Peridotite_04,7,04,6,6,1.017,0.200925926,-0.232407407,1,0,0,1.1965,Diorite_rect,3,1.196,0,4,0,4,0,1,,,,,,,,,,,,,
5e9f3f09ccc75a0c345e4845,SCN,2024-06-11_13h12.59.099,LearnStrategy,2023.2.3,Win32,60.24096386,5,1,6,0.403703704,0.400925926,1,0,0,1.5889,Gabbro_08,4,08,6,7,1.589,-0.358333333,-0.262037037,1,0,0,1.2499,Andesite_rect,1,1.25,0,5,0,5,0,1,,,,,,,,,,,,,
5e9f3f09ccc75a0c345e4845,SCN,2024-06-11_13h12.59.099,LearnStrategy,2023.2.3,Win32,60.24096386,5,1,7,0.598148148,0.421296296,1,0,0,1.2689,Peridotite_08,7,08,6,8,1.269,0.197222222,-0.390740741,1,0,0,1.5261,Peridotite_rect,7,1.526,1,6,0,6,0,1,,,,,,,,,,,,,
5e9f3f09ccc75a0c345e4845,SCN,2024-06-11_13h12.59.099,LearnStrategy,2023.2.3,Win32,60.24096386,5,1,8,0.422222222,0.223148148,1,0,0,2.6205,Andesite_04,1,04,5,7,2.62,-0.339814815,-0.250925926,1,0,0,1.6868,Andesite_rect,1,1.687,1,7,0,7,0,1,,,,,,,,,,,,,
5e9f3f09ccc75a0c345e4845,SCN,2024-06-11_13h12.59.099,LearnStrategy,2023.2.3,Win32,60.24096386,5,1,9,-0.071296296,-0.224074074,1,0,0,2.5831,Andesite_03,1,03,2,4,2.583,0.092592593,-0.249074074,1,0,0,1.3012,Diorite_rect,3,1.301,0,8,0,8,0,1,,,,,,,,,,,,,
5e9f3f09ccc75a0c345e4845,SCN,2024-06-11_13h12.59.099,LearnStrategy,2023.2.3,Win32,60.24096386,5,1,10,0.084259259,-0.389814815,1,0,0,1.455,Andesite_16,1,16,1,5,1.455,0.161111111,-0.255555556,1,0,0,1.8188,Diorite_rect,3,1.819,0,9,0,9,0,1,,,,,,,,,,,,,
5e9f3f09ccc75a0c345e4845,SCN,2024-06-11_13h12.59.099,LearnStrategy,2023.2.3,Win32,60.24096386,5,1,11,-0.205555556,-0.425925926,1,0,0,1.5623,Peridotite_07,7,07,1,3,1.562,0.085185185,-0.413888889,1,0,0,1.3808,Peridotite_rect,7,1.381,1,10,0,10,0,1,,,,,,,,,,,,,
5e9f3f09ccc75a0c345e4845,SCN,2024-06-11_13h12.59.099,LearnStrategy,2023.2.3,Win32,60.24096386,5,1,12,0.525925926,-0.122222222,1,0,0,1.7169,Diorite_09,3,09,3,8,1.717,0.12962963,-0.232407407,1,0,0,0.9164,Diorite_rect,3,0.916,1,11,0,11,0,1,,,,,,,,,,,,,
5e9f3f09ccc75a0c345e4845,SCN,2024-06-11_13h12.59.099,LearnStrategy,2023.2.3,Win32,60.24096386,5,1,13,-0.364814815,0.10462963,1,0,0,2.1271,Basalt_05,2,05,4,2,2.127,-0.128703704,-0.256481481,1,0,0,1.1667,Basalt_rect,2,1.167,1,12,0,12,0,1,,,,,,,,,,,,,
5e9f3f09ccc75a0c345e4845,SCN,2024-06-11_13h12.59.099,LearnStrategy,2023.2.3,Win32,60.24096386,5,1,14,-0.569444444,0.244444444,1,0,0,1.4452,Diorite_10,3,10,5,1,1.445,-0.39537037,-0.232407407,1,0,0,3.681,Andesite_rect,1,3.681,0,13,0,13,0,1,,,,,,,,,,,,,
5e9f3f09ccc75a0c345e4845,SCN,2024-06-11_13h12.59.099,LearnStrategy,2023.2.3,Win32,60.24096386,5,1,15,0.088888889,-0.266666667,1,0,0,2.5294,Gabbro_13,4,13,2,5,2.529,-0.110185185,-0.249074074,1,0,0,0.9477,Basalt_rect,2,0.948,0,14,0,14,0,1,,,,,,,,,,,,,
5e9f3f09ccc75a0c345e4845,SCN,2024-06-11_13h12.59.099,LearnStrategy,2023.2.3,Win32,60.24096386,5,1,16,0.437037037,-0.240740741,1,0,0,1.2846,Basalt_10,2,10,2,7,1.285,-0.098148148,-0.256481481,1,0,0,1.119,Basalt_rect,2,1.119,1,15,0,15,0,1,,,,,,,,,,,,,
5e9f3f09ccc75a0c345e4845,SCN,2024-06-11_13h12.59.099,LearnStrategy,2023.2.3,Win32,60.24096386,5,2,1,,,,,,,,4,03,,,,,,,,,,,1,3.095,0,,,,,,-0.35462963,-0.237037037,1,0,0,3.0953,Andesite_rect,0,0,0,0,1,
5e9f3f09ccc75a0c345e4845,SCN,2024-06-11_13h12.59.099,LearnStrategy,2023.2.3,Win32,60.24096386,5,2,2,,,,,,,,8,05,,,,,,,,,,,8,1.397,1,,,,,,0.387037037,-0.40462963,1,0,0,1.3974,Pumice_rect,1,0,1,0,1,
5e9f3f09ccc75a0c345e4845,SCN,2024-06-11_13h12.59.099,LearnStrategy,2023.2.3,Win32,60.24096386,5,2,3,,,,,,,,6,03,,,,,,,,,,,6,2.35,1,,,,,,-0.151851852,-0.408333333,1,0,0,2.3499,Pegmatite_rect,2,0,2,0,1,
5e9f3f09ccc75a0c345e4845,SCN,2024-06-11_13h12.59.099,LearnStrategy,2023.2.3,Win32,60.24096386,5,2,4,,,,,,,,3,02,,,,,,,,,,,7,2.667,0,,,,,,0.15,-0.413888889,1,0,0,2.6666,Peridotite_rect,3,0,3,0,1,
5e9f3f09ccc75a0c345e4845,SCN,2024-06-11_13h12.59.099,LearnStrategy,2023.2.3,Win32,60.24096386,5,2,5,,,,,,,,6,06,,,,,,,,,,,6,1.506,1,,,,,,-0.084259259,-0.399074074,1,0,0,1.5062,Pegmatite_rect,4,0,4,0,1,
5e9f3f09ccc75a0c345e4845,SCN,2024-06-11_13h12.59.099,LearnStrategy,2023.2.3,Win32,60.24096386,5,2,6,,,,,,,,3,07,,,,,,,,,,,3,2.234,1,,,,,,0.151851852,-0.253703704,1,0,0,2.2338,Diorite_rect,5,0,5,0,1,
5e9f3f09ccc75a0c345e4845,SCN,2024-06-11_13h12.59.099,LearnStrategy,2023.2.3,Win32,60.24096386,5,2,7,,,,,,,,1,05,,,,,,,,,,,1,1.297,1,,,,,,-0.428703704,-0.250925926,1,0,0,1.2965,Andesite_rect,6,0,6,0,1,
5e9f3f09ccc75a0c345e4845,SCN,2024-06-11_13h12.59.099,LearnStrategy,2023.2.3,Win32,60.24096386,5,2,8,,,,,,,,8,08,,,,,,,,,,,8,3.025,1,,,,,,0.403703704,-0.39537037,1,0,0,3.0252,Pumice_rect,7,0,7,0,1,
5e9f3f09ccc75a0c345e4845,SCN,2024-06-11_13h12.59.099,LearnStrategy,2023.2.3,Win32,60.24096386,5,2,9,,,,,,,,5,05,,,,,,,,,,,5,2.627,1,,,,,,-0.389814815,-0.40462963,1,0,0,2.6268,Obsidian_rect,8,0,8,0,1,
5e9f3f09ccc75a0c345e4845,SCN,2024-06-11_13h12.59.099,LearnStrategy,2023.2.3,Win32,60.24096386,5,2,10,,,,,,,,2,02,,,,,,,,,,,1,3.06,0,,,,,,-0.433333333,-0.246296296,1,0,0,3.0596,Andesite_rect,9,0,9,0,1,
5e9f3f09ccc75a0c345e4845,SCN,2024-06-11_13h12.59.099,LearnStrategy,2023.2.3,Win32,60.24096386,5,2,11,,,,,,,,5,04,,,,,,,,,,,5,1.253,1,,,,,,-0.349074074,-0.399074074,1,0,0,1.2526,Obsidian_rect,10,0,10,0,1,
5e9f3f09ccc75a0c345e4845,SCN,2024-06-11_13h12.59.099,LearnStrategy,2023.2.3,Win32,60.24096386,5,2,12,,,,,,,,7,06,,,,,,,,,,,7,3.678,1,,,,,,0.181481481,-0.409259259,1,0,0,3.6783,Peridotite_rect,11,0,11,0,1,
5e9f3f09ccc75a0c345e4845,SCN,2024-06-11_13h12.59.099,LearnStrategy,2023.2.3,Win32,60.24096386,5,2,13,,,,,,,,4,05,,,,,,,,,,,2,1.723,0,,,,,,-0.15462963,-0.247222222,1,0,0,1.7227,Basalt_rect,12,0,12,0,1,
5e9f3f09ccc75a0c345e4845,SCN,2024-06-11_13h12.59.099,LearnStrategy,2023.2.3,Win32,60.24096386,5,2,14,,,,,,,,7,14,,,,,,,,,,,3,1.221,0,,,,,,0.092592593,-0.253703704,1,0,0,1.2212,Diorite_rect,13,0,13,0,1,
5e9f3f09ccc75a0c345e4845,SCN,2024-06-11_13h12.59.099,LearnStrategy,2023.2.3,Win32,60.24096386,5,2,15,,,,,,,,1,10,,,,,,,,,,,1,1.983,1,,,,,,-0.397222222,-0.253703704,1,0,0,1.983,Andesite_rect,14,0,14,0,1,
5e9f3f09ccc75a0c345e4845,SCN,2024-06-11_13h12.59.099,LearnStrategy,2023.2.3,Win32,60.24096386,5,2,16,,,,,,,,2,12,,,,,,,,,,,1,4.211,0,,,,,,-0.382407407,-0.243518519,1,0,0,4.2112,Andesite_rect,15,0,15,0,1,
5e9f3f09ccc75a0c345e4845,SCN,2024-06-11_13h12.59.099,LearnStrategy,2023.2.3,Win32,60.24096386,6,1,1,0.524074074,0.422222222,1,0,0,4.6678,Peridotite_08,7,08,6,8,4.668,0.17037037,-0.4,1,0,0,1.7728,Peridotite_rect,7,1.773,1,0,0,0,0,1,,,,,,,,,,,,,
5e9f3f09ccc75a0c345e4845,SCN,2024-06-11_13h12.59.099,LearnStrategy,2023.2.3,Win32,60.24096386,6,1,2,0.587962963,0.261111111,1,0,0,1.0906,Gabbro_01,4,01,5,8,1.091,-0.384259259,-0.242592593,1,0,0,2.3723,Andesite_rect,1,2.372,0,1,0,1,0,1,,,,,,,,,,,,,
5e9f3f09ccc75a0c345e4845,SCN,2024-06-11_13h12.59.099,LearnStrategy,2023.2.3,Win32,60.24096386,6,1,3,0.548148148,0.114814815,1,0,0,1.1515,Pumice_03,8,03,4,8,1.152,0.448148148,-0.384259259,1,0,0,1.0322,Pumice_rect,8,1.032,1,2,0,2,0,1,,,,,,,,,,,,,
5e9f3f09ccc75a0c345e4845,SCN,2024-06-11_13h12.59.099,LearnStrategy,2023.2.3,Win32,60.24096386,6,1,4,0.411111111,0.092592593,1,0,0,0.9545,Obsidian_14,5,14,4,7,0.954,-0.42037037,-0.419444444,1,0,0,1.1271,Obsidian_rect,5,1.127,1,3,0,3,0,1,,,,,,,,,,,,,
5e9f3f09ccc75a0c345e4845,SCN,2024-06-11_13h12.59.099,LearnStrategy,2023.2.3,Win32,60.24096386,6,1,5,0.40462963,0.25,1,0,0,1.3723,Andesite_04,1,04,5,7,1.372,0.135185185,-0.266666667,1,0,0,1.4594,Diorite_rect,3,1.459,0,4,0,4,0,1,,,,,,,,,,,,,
5e9f3f09ccc75a0c345e4845,SCN,2024-06-11_13h12.59.099,LearnStrategy,2023.2.3,Win32,60.24096386,6,1,6,0.37037037,0.415740741,1,0,0,0.9361,Gabbro_08,4,08,6,7,0.936,-0.363888889,-0.247222222,1,0,0,1.1357,Andesite_rect,1,1.136,0,5,0,5,0,1,,,,,,,,,,,,,
5e9f3f09ccc75a0c345e4845,SCN,2024-06-11_13h12.59.099,LearnStrategy,2023.2.3,Win32,60.24096386,6,1,7,-0.062962963,0.406481481,1,0,0,3.2289,Pegmatite_05,6,05,6,4,3.229,-0.180555556,-0.252777778,1,0,0,3.6203,Basalt_rect,2,3.62,0,6,0,6,0,1,,,,,,,,,,,,,
5e9f3f09ccc75a0c345e4845,SCN,2024-06-11_13h12.59.099,LearnStrategy,2023.2.3,Win32,60.24096386,6,1,8,-0.22962963,0.402777778,1,0,0,1.1661,Peridotite_02,7,02,6,3,1.166,0.15,-0.401851852,1,0,0,1.2797,Peridotite_rect,7,1.28,1,7,0,7,0,1,,,,,,,,,,,,,
5e9f3f09ccc75a0c345e4845,SCN,2024-06-11_13h12.59.099,LearnStrategy,2023.2.3,Win32,60.24096386,6,1,9,-0.388888889,0.400925926,1,0,0,0.9367,Pumice_16,8,16,6,2,0.937,0.467592593,-0.385185185,1,0,0,1.3022,Pumice_rect,8,1.302,1,8,0,8,0,1,,,,,,,,,,,,,
5e9f3f09ccc75a0c345e4845,SCN,2024-06-11_13h12.59.099,LearnStrategy,2023.2.3,Win32,60.24096386,6,1,10,-0.585185185,0.421296296,1,0,0,1.1659,Pegmatite_12,6,12,6,1,1.166,-0.15462963,-0.414814815,1,0,0,3.5184,Pegmatite_rect,6,3.518,1,9,0,9,0,1,,,,,,,,,,,,,
5e9f3f09ccc75a0c345e4845,SCN,2024-06-11_13h12.59.099,LearnStrategy,2023.2.3,Win32,60.24096386,6,1,11,-0.357407407,0.267592593,1,0,0,1.5014,Gabbro_12,4,12,5,2,1.501,-0.099074074,-0.230555556,1,0,0,1.3369,Basalt_rect,2,1.337,0,10,0,10,0,1,,,,,,,,,,,,,
5e9f3f09ccc75a0c345e4845,SCN,2024-06-11_13h12.59.099,LearnStrategy,2023.2.3,Win32,60.24096386,6,1,12,-0.386111111,0.113888889,1,0,0,1.7203,Basalt_05,2,05,4,2,1.72,-0.182407407,-0.25462963,1,0,0,1.9855,Basalt_rect,2,1.986,1,11,0,11,0,1,,,,,,,,,,,,,
5e9f3f09ccc75a0c345e4845,SCN,2024-06-11_13h12.59.099,LearnStrategy,2023.2.3,Win32,60.24096386,6,1,13,-0.561111111,-0.261111111,1,0,0,2.7891,Basalt_08,2,08,2,1,2.789,-0.153703704,-0.266666667,1,0,0,1.2634,Basalt_rect,2,1.263,1,12,0,12,0,1,,,,,,,,,,,,,
5e9f3f09ccc75a0c345e4845,SCN,2024-06-11_13h12.59.099,LearnStrategy,2023.2.3,Win32,60.24096386,6,1,14,-0.551851852,-0.1,1,0,0,1.4718,Basalt_04,2,04,3,1,1.472,0.422222222,-0.247222222,1,0,0,1.3583,Gabbro_rect,4,1.358,0,13,0,13,0,1,,,,,,,,,,,,,
5e9f3f09ccc75a0c345e4845,SCN,2024-06-11_13h12.59.099,LearnStrategy,2023.2.3,Win32,60.24096386,6,1,15,-0.121296296,-0.391666667,1,0,0,2.4219,Basalt_06,2,06,1,4,2.422,0.400925926,-0.255555556,1,0,0,1.5654,Gabbro_rect,4,1.565,0,14,0,14,0,1,,,,,,,,,,,,,
5e9f3f09ccc75a0c345e4845,SCN,2024-06-11_13h12.59.099,LearnStrategy,2023.2.3,Win32,60.24096386,6,1,16,0.37962963,-0.226851852,1,0,0,2.5985,Basalt_10,2,10,2,7,2.598,0.441666667,-0.235185185,1,0,0,0.8979,Gabbro_rect,4,0.898,0,15,0,15,0,1,,,,,,,,,,,,,
5e9f3f09ccc75a0c345e4845,SCN,2024-06-11_13h12.59.099,LearnStrategy,2023.2.3,Win32,60.24096386,6,2,1,,,,,,,,7,12,,,,,,,,,,,7,3.748,1,,,,,,0.158333333,-0.387962963,1,0,0,3.748,Peridotite_rect,0,0,0,0,1,
5e9f3f09ccc75a0c345e4845,SCN,2024-06-11_13h12.59.099,LearnStrategy,2023.2.3,Win32,60.24096386,6,2,2,,,,,,,,3,08,,,,,,,,,,,7,2.017,0,,,,,,0.142592593,-0.387037037,1,0,0,2.0171,Peridotite_rect,1,0,1,0,1,
5e9f3f09ccc75a0c345e4845,SCN,2024-06-11_13h12.59.099,LearnStrategy,2023.2.3,Win32,60.24096386,6,2,3,,,,,,,,6,16,,,,,,,,,,,6,1.326,1,,,,,,-0.189814815,-0.419444444,1,0,0,1.3262,Pegmatite_rect,2,0,2,0,1,
5e9f3f09ccc75a0c345e4845,SCN,2024-06-11_13h12.59.099,LearnStrategy,2023.2.3,Win32,60.24096386,6,2,4,,,,,,,,7,10,,,,,,,,,,,7,2.394,1,,,,,,0.187037037,-0.393518519,1,0,0,2.3936,Peridotite_rect,3,0,3,0,1,
5e9f3f09ccc75a0c345e4845,SCN,2024-06-11_13h12.59.099,LearnStrategy,2023.2.3,Win32,60.24096386,6,2,5,,,,,,,,2,11,,,,,,,,,,,1,1.743,0,,,,,,-0.360185185,-0.253703704,1,0,0,1.7432,Andesite_rect,4,0,4,0,1,
5e9f3f09ccc75a0c345e4845,SCN,2024-06-11_13h12.59.099,LearnStrategy,2023.2.3,Win32,60.24096386,6,2,6,,,,,,,,1,14,,,,,,,,,,,1,1.508,1,,,,,,-0.323148148,-0.251851852,1,0,0,1.5079,Andesite_rect,5,0,5,0,1,
5e9f3f09ccc75a0c345e4845,SCN,2024-06-11_13h12.59.099,LearnStrategy,2023.2.3,Win32,60.24096386,6,2,7,,,,,,,,4,16,,,,,,,,,,,2,1.967,0,,,,,,-0.141666667,-0.241666667,1,0,0,1.9672,Basalt_rect,6,0,6,0,1,
5e9f3f09ccc75a0c345e4845,SCN,2024-06-11_13h12.59.099,LearnStrategy,2023.2.3,Win32,60.24096386,6,2,8,,,,,,,,6,08,,,,,,,,,,,6,1.388,1,,,,,,-0.134259259,-0.406481481,1,0,0,1.3882,Pegmatite_rect,7,0,7,0,1,
5e9f3f09ccc75a0c345e4845,SCN,2024-06-11_13h12.59.099,LearnStrategy,2023.2.3,Win32,60.24096386,6,2,9,,,,,,,,8,10,,,,,,,,,,,8,1.152,1,,,,,,0.380555556,-0.407407407,1,0,0,1.152,Pumice_rect,8,0,8,0,1,
5e9f3f09ccc75a0c345e4845,SCN,2024-06-11_13h12.59.099,LearnStrategy,2023.2.3,Win32,60.24096386,6,2,10,,,,,,,,5,02,,,,,,,,,,,5,1.493,1,,,,,,-0.32037037,-0.399074074,1,0,0,1.4933,Obsidian_rect,9,0,9,0,1,
5e9f3f09ccc75a0c345e4845,SCN,2024-06-11_13h12.59.099,LearnStrategy,2023.2.3,Win32,60.24096386,6,2,11,,,,,,,,1,01,,,,,,,,,,,3,2.049,0,,,,,,0.17962963,-0.251851852,1,0,0,2.0487,Diorite_rect,10,0,10,0,1,
5e9f3f09ccc75a0c345e4845,SCN,2024-06-11_13h12.59.099,LearnStrategy,2023.2.3,Win32,60.24096386,6,2,12,,,,,,,,8,04,,,,,,,,,,,8,1.311,1,,,,,,0.42037037,-0.402777778,1,0,0,1.3112,Pumice_rect,11,0,11,0,1,
5e9f3f09ccc75a0c345e4845,SCN,2024-06-11_13h12.59.099,LearnStrategy,2023.2.3,Win32,60.24096386,6,2,13,,,,,,,,5,07,,,,,,,,,,,6,4.068,0,,,,,,-0.122222222,-0.398148148,1,0,0,4.0681,Pegmatite_rect,12,0,12,0,1,
5e9f3f09ccc75a0c345e4845,SCN,2024-06-11_13h12.59.099,LearnStrategy,2023.2.3,Win32,60.24096386,6,2,14,,,,,,,,2,01,,,,,,,,,,,1,1.326,0,,,,,,-0.317592593,-0.257407407,1,0,0,1.3261,Andesite_rect,13,0,13,0,1,
5e9f3f09ccc75a0c345e4845,SCN,2024-06-11_13h12.59.099,LearnStrategy,2023.2.3,Win32,60.24096386,6,2,15,,,,,,,,4,09,,,,,,,,,,,2,2.681,0,,,,,,-0.121296296,-0.243518519,1,0,0,2.6811,Basalt_rect,14,0,14,0,1,
5e9f3f09ccc75a0c345e4845,SCN,2024-06-11_13h12.59.099,LearnStrategy,2023.2.3,Win32,60.24096386,6,2,16,,,,,,,,3,14,,,,,,,,,,,3,1.192,1,,,,,,0.182407407,-0.250925926,1,0,0,1.192,Diorite_rect,15,0,15,0,1,
5e9f3f09ccc75a0c345e4845,SCN,2024-06-11_13h12.59.099,LearnStrategy,2023.2.3,Win32,60.24096386,7,1,1,-0.212037037,0.248148148,1,0,0,1.9927,Pegmatite_13,6,13,5,3,1.993,0.192592593,-0.263888889,1,0,0,1.2107,Diorite_rect,3,1.211,0,0,0,0,0,1,,,,,,,,,,,,,
5e9f3f09ccc75a0c345e4845,SCN,2024-06-11_13h12.59.099,LearnStrategy,2023.2.3,Win32,60.24096386,7,1,2,0.196296296,0.244444444,1,0,0,1.2999,Andesite_07,1,07,5,6,1.3,0.126851852,-0.252777778,1,0,0,0.9274,Diorite_rect,3,0.927,0,1,0,1,0,1,,,,,,,,,,,,,
5e9f3f09ccc75a0c345e4845,SCN,2024-06-11_13h12.59.099,LearnStrategy,2023.2.3,Win32,60.24096386,7,1,3,0.415740741,0.273148148,1,0,0,1.3713,Andesite_04,1,04,5,7,1.371,0.168518519,-0.249074074,1,0,0,1.4438,Diorite_rect,3,1.444,0,2,0,2,0,1,,,,,,,,,,,,,
5e9f3f09ccc75a0c345e4845,SCN,2024-06-11_13h12.59.099,LearnStrategy,2023.2.3,Win32,60.24096386,7,1,4,0.578703704,0.265740741,1,0,0,1.1923,Gabbro_01,4,01,5,8,1.192,-0.373148148,-0.238888889,1,0,0,1.0073,Andesite_rect,1,1.007,0,3,0,3,0,1,,,,,,,,,,,,,
5e9f3f09ccc75a0c345e4845,SCN,2024-06-11_13h12.59.099,LearnStrategy,2023.2.3,Win32,60.24096386,7,1,5,0.092592593,0.276851852,1,0,0,2.7755,Andesite_11,1,11,5,5,2.775,-0.441666667,-0.231481481,1,0,0,1.2342,Andesite_rect,1,1.234,1,4,0,4,0,1,,,,,,,,,,,,,
5e9f3f09ccc75a0c345e4845,SCN,2024-06-11_13h12.59.099,LearnStrategy,2023.2.3,Win32,60.24096386,7,1,6,-0.384259259,0.25,1,0,0,1.6063,Gabbro_12,4,12,5,2,1.606,0.471296296,-0.238888889,1,0,0,1.6598,Gabbro_rect,4,1.66,1,5,0,5,0,1,,,,,,,,,,,,,
5e9f3f09ccc75a0c345e4845,SCN,2024-06-11_13h12.59.099,LearnStrategy,2023.2.3,Win32,60.24096386,7,1,7,-0.369444444,0.100925926,1,0,0,1.4107,Basalt_05,2,05,4,2,1.411,-0.130555556,-0.242592593,1,0,0,1.1259,Basalt_rect,2,1.126,1,6,0,6,0,1,,,,,,,,,,,,,
5e9f3f09ccc75a0c345e4845,SCN,2024-06-11_13h12.59.099,LearnStrategy,2023.2.3,Win32,60.24096386,7,1,8,0.064814815,-0.110185185,1,0,0,0.7886,Diorite_06,3,06,3,5,0.789,0.138888889,-0.237962963,1,0,0,1.581,Diorite_rect,3,1.581,1,7,0,7,0,1,,,,,,,,,,,,,
5e9f3f09ccc75a0c345e4845,SCN,2024-06-11_13h12.59.099,LearnStrategy,2023.2.3,Win32,60.24096386,7,1,9,-0.067592593,-0.073148148,1,0,0,1.042,Gabbro_14,4,14,3,4,1.042,0.441666667,-0.260185185,1,0,0,1.2801,Gabbro_rect,4,1.28,1,8,0,8,0,1,,,,,,,,,,,,,
5e9f3f09ccc75a0c345e4845,SCN,2024-06-11_13h12.59.099,LearnStrategy,2023.2.3,Win32,60.24096386,7,1,10,-0.202777778,-0.067592593,1,0,0,1.0765,Basalt_16,2,16,3,3,1.077,0.40462963,-0.230555556,1,0,0,0.9849,Gabbro_rect,4,0.985,0,9,0,9,0,1,,,,,,,,,,,,,
5e9f3f09ccc75a0c345e4845,SCN,2024-06-11_13h12.59.099,LearnStrategy,2023.2.3,Win32,60.24096386,7,1,11,-0.069444444,-0.256481481,1,0,0,1.3355,Andesite_03,1,03,2,4,1.335,-0.450925926,-0.253703704,1,0,0,2.1381,Andesite_rect,1,2.138,1,10,0,10,0,1,,,,,,,,,,,,,
5e9f3f09ccc75a0c345e4845,SCN,2024-06-11_13h12.59.099,LearnStrategy,2023.2.3,Win32,60.24096386,7,1,12,-0.041666667,0.097222222,1,0,0,2.2934,Pumice_06,8,06,4,4,2.293,0.436111111,-0.409259259,1,0,0,1.2662,Pumice_rect,8,1.266,1,11,0,11,0,1,,,,,,,,,,,,,
5e9f3f09ccc75a0c345e4845,SCN,2024-06-11_13h12.59.099,LearnStrategy,2023.2.3,Win32,60.24096386,7,1,13,0.524074074,-0.080555556,1,0,0,2.09,Diorite_09,3,09,3,8,2.09,0.15,-0.255555556,1,0,0,1.1039,Diorite_rect,3,1.104,1,12,0,12,0,1,,,,,,,,,,,,,
5e9f3f09ccc75a0c345e4845,SCN,2024-06-11_13h12.59.099,LearnStrategy,2023.2.3,Win32,60.24096386,7,1,14,0.578703704,-0.246296296,1,0,0,0.9855,Peridotite_05,7,05,2,8,0.986,-0.387962963,-0.247222222,1,0,0,1.4935,Andesite_rect,1,1.494,0,13,0,13,0,1,,,,,,,,,,,,,
5e9f3f09ccc75a0c345e4845,SCN,2024-06-11_13h12.59.099,LearnStrategy,2023.2.3,Win32,60.24096386,7,1,15,0.217592593,-0.401851852,1,0,0,2.6182,Diorite_12,3,12,1,6,2.618,0.374074074,-0.407407407,1,0,0,1.2092,Pumice_rect,8,1.209,0,14,0,14,0,1,,,,,,,,,,,,,
5e9f3f09ccc75a0c345e4845,SCN,2024-06-11_13h12.59.099,LearnStrategy,2023.2.3,Win32,60.24096386,7,1,16,0.101851852,-0.371296296,1,0,0,0.9397,Andesite_16,1,16,1,5,0.94,0.117592593,-0.233333333,1,0,0,1.7758,Diorite_rect,3,1.776,0,15,0,15,0,1,,,,,,,,,,,,,
5e9f3f09ccc75a0c345e4845,SCN,2024-06-11_13h12.59.099,LearnStrategy,2023.2.3,Win32,60.24096386,7,2,1,,,,,,,,6,03,,,,,,,,,,,7,2.174,0,,,,,,0.135185185,-0.405555556,1,0,0,2.1738,Peridotite_rect,0,0,0,0,1,
5e9f3f09ccc75a0c345e4845,SCN,2024-06-11_13h12.59.099,LearnStrategy,2023.2.3,Win32,60.24096386,7,2,2,,,,,,,,2,11,,,,,,,,,,,1,2.488,0,,,,,,-0.386111111,-0.251851852,1,0,0,2.4882,Andesite_rect,1,0,1,0,1,
5e9f3f09ccc75a0c345e4845,SCN,2024-06-11_13h12.59.099,LearnStrategy,2023.2.3,Win32,60.24096386,7,2,3,,,,,,,,4,09,,,,,,,,,,,2,4.926,0,,,,,,-0.201851852,-0.269444444,1,0,0,4.9263,Basalt_rect,2,0,2,0,1,
5e9f3f09ccc75a0c345e4845,SCN,2024-06-11_13h12.59.099,LearnStrategy,2023.2.3,Win32,60.24096386,7,2,4,,,,,,,,7,14,,,,,,,,,,,4,1.5,0,,,,,,0.361111111,-0.25462963,1,0,0,1.4996,Gabbro_rect,3,0,3,0,1,
5e9f3f09ccc75a0c345e4845,SCN,2024-06-11_13h12.59.099,LearnStrategy,2023.2.3,Win32,60.24096386,7,2,5,,,,,,,,1,05,,,,,,,,,,,1,1.239,1,,,,,,-0.407407407,-0.259259259,1,0,0,1.2392,Andesite_rect,4,0,4,0,1,
5e9f3f09ccc75a0c345e4845,SCN,2024-06-11_13h12.59.099,LearnStrategy,2023.2.3,Win32,60.24096386,7,2,6,,,,,,,,5,02,,,,,,,,,,,5,1.444,1,,,,,,-0.348148148,-0.40462963,1,0,0,1.4438,Obsidian_rect,5,0,5,0,1,
5e9f3f09ccc75a0c345e4845,SCN,2024-06-11_13h12.59.099,LearnStrategy,2023.2.3,Win32,60.24096386,7,2,7,,,,,,,,3,08,,,,,,,,,,,3,1.995,1,,,,,,0.185185185,-0.250925926,1,0,0,1.9955,Diorite_rect,6,0,6,0,1,
5e9f3f09ccc75a0c345e4845,SCN,2024-06-11_13h12.59.099,LearnStrategy,2023.2.3,Win32,60.24096386,7,2,8,,,,,,,,7,06,,,,,,,,,,,7,1.182,1,,,,,,0.180555556,-0.402777778,1,0,0,1.1819,Peridotite_rect,7,0,7,0,1,
5e9f3f09ccc75a0c345e4845,SCN,2024-06-11_13h12.59.099,LearnStrategy,2023.2.3,Win32,60.24096386,7,2,9,,,,,,,,8,13,,,,,,,,,,,8,3.083,1,,,,,,0.453703704,-0.407407407,1,0,0,3.083,Pumice_rect,8,0,8,0,1,
5e9f3f09ccc75a0c345e4845,SCN,2024-06-11_13h12.59.099,LearnStrategy,2023.2.3,Win32,60.24096386,7,2,10,,,,,,,,5,07,,,,,,,,,,,5,2.406,1,,,,,,-0.439814815,-0.419444444,1,0,0,2.4058,Obsidian_rect,9,0,9,0,1,
5e9f3f09ccc75a0c345e4845,SCN,2024-06-11_13h12.59.099,LearnStrategy,2023.2.3,Win32,60.24096386,7,2,11,,,,,,,,3,14,,,,,,,,,,,3,1.471,1,,,,,,0.108333333,-0.262037037,1,0,0,1.4713,Diorite_rect,10,0,10,0,1,
5e9f3f09ccc75a0c345e4845,SCN,2024-06-11_13h12.59.099,LearnStrategy,2023.2.3,Win32,60.24096386,7,2,12,,,,,,,,4,03,,,,,,,,,,,4,1.725,1,,,,,,0.400925926,-0.246296296,1,0,0,1.7247,Gabbro_rect,11,0,11,0,1,
5e9f3f09ccc75a0c345e4845,SCN,2024-06-11_13h12.59.099,LearnStrategy,2023.2.3,Win32,60.24096386,7,2,13,,,,,,,,1,14,,,,,,,,,,,6,1.933,0,,,,,,-0.126851852,-0.403703704,1,0,0,1.9325,Pegmatite_rect,12,0,12,0,1,
5e9f3f09ccc75a0c345e4845,SCN,2024-06-11_13h12.59.099,LearnStrategy,2023.2.3,Win32,60.24096386,7,2,14,,,,,,,,8,10,,,,,,,,,,,8,1.157,1,,,,,,0.487037037,-0.406481481,1,0,0,1.1569,Pumice_rect,13,0,13,0,1,
5e9f3f09ccc75a0c345e4845,SCN,2024-06-11_13h12.59.099,LearnStrategy,2023.2.3,Win32,60.24096386,7,2,15,,,,,,,,6,09,,,,,,,,,,,6,1.646,1,,,,,,-0.067592593,-0.406481481,1,0,0,1.6464,Pegmatite_rect,14,0,14,0,1,
5e9f3f09ccc75a0c345e4845,SCN,2024-06-11_13h12.59.099,LearnStrategy,2023.2.3,Win32,60.24096386,7,2,16,,,,,,,,2,12,,,,,,,,,,,2,2.432,1,,,,,,-0.118518519,-0.241666667,1,0,0,2.4316,Basalt_rect,15,0,15,0,1,
5e9f3f09ccc75a0c345e4845,SCN,2024-06-11_13h12.59.099,LearnStrategy,2023.2.3,Win32,60.24096386,8,1,1,0.042592593,0.105555556,1,0,0,1.0737,Obsidian_10,5,10,4,5,1.074,-0.352777778,-0.396296296,1,0,0,1.397,Obsidian_rect,5,1.397,1,0,0,0,0,1,,,,,,,,,,,,,
5e9f3f09ccc75a0c345e4845,SCN,2024-06-11_13h12.59.099,LearnStrategy,2023.2.3,Win32,60.24096386,8,1,2,-0.55462963,-0.1,1,0,0,0.9981,Basalt_04,2,04,3,1,0.998,-0.135185185,-0.269444444,1,0,0,1.3419,Basalt_rect,2,1.342,1,1,0,1,0,1,,,,,,,,,,,,,
5e9f3f09ccc75a0c345e4845,SCN,2024-06-11_13h12.59.099,LearnStrategy,2023.2.3,Win32,60.24096386,8,1,3,-0.381481481,-0.091666667,1,0,0,0.8452,Diorite_16,3,16,3,2,0.845,0.188888889,-0.25462963,1,0,0,1.0242,Diorite_rect,3,1.024,1,2,0,2,0,1,,,,,,,,,,,,,
5e9f3f09ccc75a0c345e4845,SCN,2024-06-11_13h12.59.099,LearnStrategy,2023.2.3,Win32,60.24096386,8,1,4,-0.221296296,-0.087037037,1,0,0,1.0419,Basalt_16,2,16,3,3,1.042,0.450925926,-0.249074074,1,0,0,1.4854,Gabbro_rect,4,1.485,0,3,0,3,0,1,,,,,,,,,,,,,
5e9f3f09ccc75a0c345e4845,SCN,2024-06-11_13h12.59.099,LearnStrategy,2023.2.3,Win32,60.24096386,8,1,5,-0.102777778,-0.110185185,1,0,0,1.053,Gabbro_14,4,14,3,4,1.053,0.452777778,-0.234259259,1,0,0,1.1298,Gabbro_rect,4,1.13,1,4,0,4,0,1,,,,,,,,,,,,,
5e9f3f09ccc75a0c345e4845,SCN,2024-06-11_13h12.59.099,LearnStrategy,2023.2.3,Win32,60.24096386,8,1,6,0.038888889,-0.080555556,1,0,0,0.9055,Diorite_06,3,06,3,5,0.906,0.123148148,-0.248148148,1,0,0,1.085,Diorite_rect,3,1.085,1,5,0,5,0,1,,,,,,,,,,,,,
5e9f3f09ccc75a0c345e4845,SCN,2024-06-11_13h12.59.099,LearnStrategy,2023.2.3,Win32,60.24096386,8,1,7,0.225925926,-0.087037037,1,0,0,1.217,Obsidian_12,5,12,3,6,1.217,-0.47037037,-0.396296296,1,0,0,1.109,Obsidian_rect,5,1.109,1,6,0,6,0,1,,,,,,,,,,,,,
5e9f3f09ccc75a0c345e4845,SCN,2024-06-11_13h12.59.099,LearnStrategy,2023.2.3,Win32,60.24096386,8,1,8,0.577777778,-0.094444444,1,0,0,1.2144,Diorite_09,3,09,3,8,1.214,0.168518519,-0.240740741,1,0,0,1.2342,Diorite_rect,3,1.234,1,7,0,7,0,1,,,,,,,,,,,,,
5e9f3f09ccc75a0c345e4845,SCN,2024-06-11_13h12.59.099,LearnStrategy,2023.2.3,Win32,60.24096386,8,1,9,-0.562962963,0.098148148,1,0,0,1.6421,Pegmatite_07,6,07,4,1,1.642,-0.098148148,-0.408333333,1,0,0,1.4394,Pegmatite_rect,6,1.439,1,8,0,8,0,1,,,,,,,,,,,,,
5e9f3f09ccc75a0c345e4845,SCN,2024-06-11_13h12.59.099,LearnStrategy,2023.2.3,Win32,60.24096386,8,1,10,-0.367592593,0.091666667,1,0,0,1.6001,Basalt_05,2,05,4,2,1.6,-0.152777778,-0.25,1,0,0,1.1555,Basalt_rect,2,1.156,1,9,0,9,0,1,,,,,,,,,,,,,
5e9f3f09ccc75a0c345e4845,SCN,2024-06-11_13h12.59.099,LearnStrategy,2023.2.3,Win32,60.24096386,8,1,11,-0.273148148,0.096296296,1,0,0,1.1553,Diorite_13,3,13,4,3,1.155,0.175925926,-0.247222222,1,0,0,1.1245,Diorite_rect,3,1.125,1,10,0,10,0,1,,,,,,,,,,,,,
5e9f3f09ccc75a0c345e4845,SCN,2024-06-11_13h12.59.099,LearnStrategy,2023.2.3,Win32,60.24096386,8,1,12,0.213888889,0.42962963,1,0,0,9.4098,Peridotite_04,7,04,6,6,9.41,0.193518519,-0.39537037,1,0,0,1.1827,Peridotite_rect,7,1.183,1,11,0,11,0,1,,,,,,,,,,,,,
5e9f3f09ccc75a0c345e4845,SCN,2024-06-11_13h12.59.099,LearnStrategy,2023.2.3,Win32,60.24096386,8,1,13,-0.049074074,0.433333333,1,0,0,1.8447,Pegmatite_05,6,05,6,4,1.845,-0.075,-0.40462963,1,0,0,2.1959,Pegmatite_rect,6,2.196,1,12,0,12,0,1,,,,,,,,,,,,,
5e9f3f09ccc75a0c345e4845,SCN,2024-06-11_13h12.59.099,LearnStrategy,2023.2.3,Win32,60.24096386,8,1,14,0.410185185,-0.280555556,1,0,0,2.5328,Basalt_10,2,10,2,7,2.533,-0.132407407,-0.25,1,0,0,0.9941,Basalt_rect,2,0.994,1,13,0,13,0,1,,,,,,,,,,,,,
5e9f3f09ccc75a0c345e4845,SCN,2024-06-11_13h12.59.099,LearnStrategy,2023.2.3,Win32,60.24096386,8,1,15,-0.248148148,-0.077777778,1,0,0,1.4693,Basalt_16,2,16,3,3,1.469,-0.121296296,-0.249074074,1,0,0,0.9967,Basalt_rect,2,0.997,1,14,0,14,0,1,,,,,,,,,,,,,
5e9f3f09ccc75a0c345e4845,SCN,2024-06-11_13h12.59.099,LearnStrategy,2023.2.3,Win32,60.24096386,8,1,16,-0.052777778,0.093518519,1,0,0,1.305,Pumice_06,8,06,4,4,1.305,0.422222222,-0.412037037,1,0,0,0.9496,Pumice_rect,8,0.95,1,15,0,15,0,1,,,,,,,,,,,,,
5e9f3f09ccc75a0c345e4845,SCN,2024-06-11_13h12.59.099,LearnStrategy,2023.2.3,Win32,60.24096386,8,2,1,,,,,,,,6,16,,,,,,,,,,,6,2.26,1,,,,,,-0.147222222,-0.402777778,1,0,0,2.2604,Pegmatite_rect,0,0,0,0,1,
5e9f3f09ccc75a0c345e4845,SCN,2024-06-11_13h12.59.099,LearnStrategy,2023.2.3,Win32,60.24096386,8,2,2,,,,,,,,4,05,,,,,,,,,,,2,3.608,0,,,,,,-0.114814815,-0.262962963,1,0,0,3.6084,Basalt_rect,1,0,1,0,1,
5e9f3f09ccc75a0c345e4845,SCN,2024-06-11_13h12.59.099,LearnStrategy,2023.2.3,Win32,60.24096386,8,2,3,,,,,,,,5,06,,,,,,,,,,,5,1.493,1,,,,,,-0.425,-0.405555556,1,0,0,1.4932,Obsidian_rect,2,0,2,0,1,
5e9f3f09ccc75a0c345e4845,SCN,2024-06-11_13h12.59.099,LearnStrategy,2023.2.3,Win32,60.24096386,8,2,4,,,,,,,,1,02,,,,,,,,,,,3,1.529,0,,,,,,0.127777778,-0.22962963,1,0,0,1.5294,Diorite_rect,3,0,3,0,1,
5e9f3f09ccc75a0c345e4845,SCN,2024-06-11_13h12.59.099,LearnStrategy,2023.2.3,Win32,60.24096386,8,2,5,,,,,,,,4,16,,,,,,,,,,,2,1.145,0,,,,,,-0.152777778,-0.22962963,1,0,0,1.1455,Basalt_rect,4,0,4,0,1,
5e9f3f09ccc75a0c345e4845,SCN,2024-06-11_13h12.59.099,LearnStrategy,2023.2.3,Win32,60.24096386,8,2,6,,,,,,,,3,02,,,,,,,,,,,7,1.825,0,,,,,,0.148148148,-0.419444444,1,0,0,1.8251,Peridotite_rect,5,0,5,0,1,
5e9f3f09ccc75a0c345e4845,SCN,2024-06-11_13h12.59.099,LearnStrategy,2023.2.3,Win32,60.24096386,8,2,7,,,,,,,,1,01,,,,,,,,,,,3,4.047,0,,,,,,0.219444444,-0.237962963,1,0,0,4.0473,Diorite_rect,6,0,6,0,1,
5e9f3f09ccc75a0c345e4845,SCN,2024-06-11_13h12.59.099,LearnStrategy,2023.2.3,Win32,60.24096386,8,2,8,,,,,,,,8,04,,,,,,,,,,,8,1.267,1,,,,,,0.390740741,-0.390740741,1,0,0,1.2667,Pumice_rect,7,0,7,0,1,
5e9f3f09ccc75a0c345e4845,SCN,2024-06-11_13h12.59.099,LearnStrategy,2023.2.3,Win32,60.24096386,8,2,9,,,,,,,,2,14,,,,,,,,,,,4,2.41,0,,,,,,0.350925926,-0.238888889,1,0,0,2.4098,Gabbro_rect,8,0,8,0,1,
5e9f3f09ccc75a0c345e4845,SCN,2024-06-11_13h12.59.099,LearnStrategy,2023.2.3,Win32,60.24096386,8,2,10,,,,,,,,7,12,,,,,,,,,,,7,1.835,1,,,,,,0.152777778,-0.412037037,1,0,0,1.8347,Peridotite_rect,9,0,9,0,1,
5e9f3f09ccc75a0c345e4845,SCN,2024-06-11_13h12.59.099,LearnStrategy,2023.2.3,Win32,60.24096386,8,2,11,,,,,,,,3,15,,,,,,,,,,,3,1.217,1,,,,,,0.141666667,-0.25462963,1,0,0,1.2168,Diorite_rect,10,0,10,0,1,
5e9f3f09ccc75a0c345e4845,SCN,2024-06-11_13h12.59.099,LearnStrategy,2023.2.3,Win32,60.24096386,8,2,12,,,,,,,,5,05,,,,,,,,,,,5,1.486,1,,,,,,-0.392592593,-0.4,1,0,0,1.4864,Obsidian_rect,11,0,11,0,1,
5e9f3f09ccc75a0c345e4845,SCN,2024-06-11_13h12.59.099,LearnStrategy,2023.2.3,Win32,60.24096386,8,2,13,,,,,,,,2,01,,,,,,,,,,,2,1.316,1,,,,,,-0.200925926,-0.248148148,1,0,0,1.3163,Basalt_rect,12,0,12,0,1,
5e9f3f09ccc75a0c345e4845,SCN,2024-06-11_13h12.59.099,LearnStrategy,2023.2.3,Win32,60.24096386,8,2,14,,,,,,,,7,10,,,,,,,,,,,7,1.39,1,,,,,,0.137037037,-0.408333333,1,0,0,1.3904,Peridotite_rect,13,0,13,0,1,
5e9f3f09ccc75a0c345e4845,SCN,2024-06-11_13h12.59.099,LearnStrategy,2023.2.3,Win32,60.24096386,8,2,15,,,,,,,,8,15,,,,,,,,,,,8,1.059,1,,,,,,0.361111111,-0.40462963,1,0,0,1.0586,Pumice_rect,14,0,14,0,1,
5e9f3f09ccc75a0c345e4845,SCN,2024-06-11_13h12.59.099,LearnStrategy,2023.2.3,Win32,60.24096386,8,2,16,,,,,,,,6,06,,,,,,,,,,,6,3.057,1,,,,,,-0.110185185,-0.403703704,1,0,0,3.0566,Pegmatite_rect,15,0,15,0,1,
5e9f3f09ccc75a0c345e4845,SCN,2024-06-11_13h12.59.099,LearnStrategy,2023.2.3,Win32,60.24096386,9,1,1,0.571296296,0.262037037,1,0,0,2.3588,Gabbro_01,4,01,5,8,2.359,-0.326851852,-0.257407407,1,0,0,2.6633,Andesite_rect,1,2.663,0,0,0,0,0,1,,,,,,,,,,,,,
5e9f3f09ccc75a0c345e4845,SCN,2024-06-11_13h12.59.099,LearnStrategy,2023.2.3,Win32,60.24096386,9,1,2,0.592592593,0.424074074,1,0,0,1.3114,Peridotite_08,7,08,6,8,1.311,0.45,-0.259259259,1,0,0,1.2231,Gabbro_rect,4,1.223,0,1,0,1,0,1,,,,,,,,,,,,,
5e9f3f09ccc75a0c345e4845,SCN,2024-06-11_13h12.59.099,LearnStrategy,2023.2.3,Win32,60.24096386,9,1,3,0.374074074,0.40462963,1,0,0,1.1607,Gabbro_08,4,08,6,7,1.161,-0.485185185,-0.268518519,1,0,0,2.0671,Andesite_rect,1,2.067,0,2,0,2,0,1,,,,,,,,,,,,,
5e9f3f09ccc75a0c345e4845,SCN,2024-06-11_13h12.59.099,LearnStrategy,2023.2.3,Win32,60.24096386,9,1,4,0.596296296,0.437037037,1,0,0,1.7484,Peridotite_08,7,08,6,8,1.748,0.465740741,-0.244444444,1,0,0,0.9241,Gabbro_rect,4,0.924,0,3,0,3,0,1,,,,,,,,,,,,,
5e9f3f09ccc75a0c345e4845,SCN,2024-06-11_13h12.59.099,LearnStrategy,2023.2.3,Win32,60.24096386,9,1,5,0.052777778,-0.115740741,1,0,0,1.0727,Diorite_06,3,06,3,5,1.073,0.127777778,-0.234259259,1,0,0,1.0512,Diorite_rect,3,1.051,1,4,0,4,0,1,,,,,,,,,,,,,
5e9f3f09ccc75a0c345e4845,SCN,2024-06-11_13h12.59.099,LearnStrategy,2023.2.3,Win32,60.24096386,9,1,6,-0.365740741,0.10462963,1,0,0,1.7086,Basalt_05,2,05,4,2,1.709,-0.121296296,-0.232407407,1,0,0,1.2894,Basalt_rect,2,1.289,1,5,0,5,0,1,,,,,,,,,,,,,
5e9f3f09ccc75a0c345e4845,SCN,2024-06-11_13h12.59.099,LearnStrategy,2023.2.3,Win32,60.24096386,9,1,7,-0.059259259,-0.098148148,1,0,0,1.1927,Gabbro_14,4,14,3,4,1.193,0.351851852,-0.264814815,1,0,0,1.3404,Gabbro_rect,4,1.34,1,6,0,6,0,1,,,,,,,,,,,,,
5e9f3f09ccc75a0c345e4845,SCN,2024-06-11_13h12.59.099,LearnStrategy,2023.2.3,Win32,60.24096386,9,1,8,0.056481481,-0.128703704,1,0,0,0.9936,Diorite_06,3,06,3,5,0.994,0.139814815,-0.235185185,1,0,0,1.1013,Diorite_rect,3,1.101,1,7,0,7,0,1,,,,,,,,,,,,,
5e9f3f09ccc75a0c345e4845,SCN,2024-06-11_13h12.59.099,LearnStrategy,2023.2.3,Win32,60.24096386,9,1,9,0.10462963,-0.418518519,1,0,0,1.6086,Andesite_16,1,16,1,5,1.609,-0.37962963,-0.256481481,1,0,0,0.9589,Andesite_rect,1,0.959,1,8,0,8,0,1,,,,,,,,,,,,,
5e9f3f09ccc75a0c345e4845,SCN,2024-06-11_13h12.59.099,LearnStrategy,2023.2.3,Win32,60.24096386,9,1,10,-0.092592593,-0.072222222,1,0,0,1.272,Gabbro_14,4,14,3,4,1.272,0.468518519,-0.233333333,1,0,0,1.0357,Gabbro_rect,4,1.036,1,9,0,9,0,1,,,,,,,,,,,,,
5e9f3f09ccc75a0c345e4845,SCN,2024-06-11_13h12.59.099,LearnStrategy,2023.2.3,Win32,60.24096386,9,1,11,-0.100925926,0.246296296,1,0,0,1.551,Pumice_09,8,09,5,4,1.551,0.392592593,-0.397222222,1,0,0,2.3211,Pumice_rect,8,2.321,1,10,0,10,0,1,,,,,,,,,,,,,
5e9f3f09ccc75a0c345e4845,SCN,2024-06-11_13h12.59.099,LearnStrategy,2023.2.3,Win32,60.24096386,9,1,12,-0.081481481,0.399074074,1,0,0,3.381,Pegmatite_05,6,05,6,4,3.381,-0.159259259,-0.413888889,1,0,0,1.5226,Pegmatite_rect,6,1.523,1,11,0,11,0,1,,,,,,,,,,,,,
5e9f3f09ccc75a0c345e4845,SCN,2024-06-11_13h12.59.099,LearnStrategy,2023.2.3,Win32,60.24096386,9,1,13,0.400925926,-0.273148148,1,0,0,1.5916,Basalt_10,2,10,2,7,1.592,0.411111111,-0.261111111,1,0,0,0.7893,Gabbro_rect,4,0.789,0,12,0,12,0,1,,,,,,,,,,,,,
5e9f3f09ccc75a0c345e4845,SCN,2024-06-11_13h12.59.099,LearnStrategy,2023.2.3,Win32,60.24096386,9,1,14,-0.067592593,-0.103703704,1,0,0,0.8708,Gabbro_14,4,14,3,4,0.871,0.372222222,-0.259259259,1,0,0,1.9406,Gabbro_rect,4,1.941,1,13,0,13,0,1,,,,,,,,,,,,,
5e9f3f09ccc75a0c345e4845,SCN,2024-06-11_13h12.59.099,LearnStrategy,2023.2.3,Win32,60.24096386,9,1,15,0.208333333,0.125,1,0,0,1.5774,Obsidian_09,5,09,4,6,1.577,-0.47962963,-0.419444444,1,0,0,2.0595,Obsidian_rect,5,2.06,1,14,0,14,0,1,,,,,,,,,,,,,
5e9f3f09ccc75a0c345e4845,SCN,2024-06-11_13h12.59.099,LearnStrategy,2023.2.3,Win32,60.24096386,9,1,16,-0.384259259,0.121296296,1,0,0,1.4664,Basalt_05,2,05,4,2,1.466,0.401851852,-0.243518519,1,0,0,1.5627,Gabbro_rect,4,1.563,0,15,0,15,0,1,,,,,,,,,,,,,
5e9f3f09ccc75a0c345e4845,SCN,2024-06-11_13h12.59.099,LearnStrategy,2023.2.3,Win32,60.24096386,9,2,1,,,,,,,,8,05,,,,,,,,,,,8,1.199,1,,,,,,0.396296296,-0.400925926,1,0,0,1.1992,Pumice_rect,0,0,0,0,1,
5e9f3f09ccc75a0c345e4845,SCN,2024-06-11_13h12.59.099,LearnStrategy,2023.2.3,Win32,60.24096386,9,2,2,,,,,,,,8,08,,,,,,,,,,,8,1.254,1,,,,,,0.389814815,-0.398148148,1,0,0,1.2542,Pumice_rect,1,0,1,0,1,
5e9f3f09ccc75a0c345e4845,SCN,2024-06-11_13h12.59.099,LearnStrategy,2023.2.3,Win32,60.24096386,9,2,3,,,,,,,,4,11,,,,,,,,,,,1,2.685,0,,,,,,-0.40462963,-0.251851852,1,0,0,2.6848,Andesite_rect,2,0,2,0,1,
5e9f3f09ccc75a0c345e4845,SCN,2024-06-11_13h12.59.099,LearnStrategy,2023.2.3,Win32,60.24096386,9,2,4,,,,,,,,5,16,,,,,,,,,,,5,1.13,1,,,,,,-0.364814815,-0.389814815,1,0,0,1.1295,Obsidian_rect,3,0,3,0,1,
5e9f3f09ccc75a0c345e4845,SCN,2024-06-11_13h12.59.099,LearnStrategy,2023.2.3,Win32,60.24096386,9,2,5,,,,,,,,2,09,,,,,,,,,,,1,4.768,0,,,,,,-0.421296296,-0.252777778,1,0,0,4.7681,Andesite_rect,4,0,4,0,1,
5e9f3f09ccc75a0c345e4845,SCN,2024-06-11_13h12.59.099,LearnStrategy,2023.2.3,Win32,60.24096386,9,2,6,,,,,,,,5,04,,,,,,,,,,,5,1.578,1,,,,,,-0.405555556,-0.394444444,1,0,0,1.5784,Obsidian_rect,5,0,5,0,1,
5e9f3f09ccc75a0c345e4845,SCN,2024-06-11_13h12.59.099,LearnStrategy,2023.2.3,Win32,60.24096386,9,2,7,,,,,,,,7,15,,,,,,,,,,,7,1.347,1,,,,,,0.194444444,-0.383333333,1,0,0,1.3474,Peridotite_rect,6,0,6,0,1,
5e9f3f09ccc75a0c345e4845,SCN,2024-06-11_13h12.59.099,LearnStrategy,2023.2.3,Win32,60.24096386,9,2,8,,,,,,,,7,16,,,,,,,,,,,7,1.27,1,,,,,,0.161111111,-0.411111111,1,0,0,1.2703,Peridotite_rect,7,0,7,0,1,
5e9f3f09ccc75a0c345e4845,SCN,2024-06-11_13h12.59.099,LearnStrategy,2023.2.3,Win32,60.24096386,9,2,9,,,,,,,,6,15,,,,,,,,,,,6,1.25,1,,,,,,-0.083333333,-0.407407407,1,0,0,1.2501,Pegmatite_rect,8,0,8,0,1,
5e9f3f09ccc75a0c345e4845,SCN,2024-06-11_13h12.59.099,LearnStrategy,2023.2.3,Win32,60.24096386,9,2,10,,,,,,,,3,07,,,,,,,,,,,3,1.757,1,,,,,,0.15,-0.247222222,1,0,0,1.7571,Diorite_rect,9,0,9,0,1,
5e9f3f09ccc75a0c345e4845,SCN,2024-06-11_13h12.59.099,LearnStrategy,2023.2.3,Win32,60.24096386,9,2,11,,,,,,,,3,11,,,,,,,,,,,3,0.908,1,,,,,,0.146296296,-0.256481481,1,0,0,0.9078,Diorite_rect,10,0,10,0,1,
5e9f3f09ccc75a0c345e4845,SCN,2024-06-11_13h12.59.099,LearnStrategy,2023.2.3,Win32,60.24096386,9,2,12,,,,,,,,1,10,,,,,,,,,,,1,4.205,1,,,,,,-0.303703704,-0.238888889,1,0,0,4.2048,Andesite_rect,11,0,11,0,1,
5e9f3f09ccc75a0c345e4845,SCN,2024-06-11_13h12.59.099,LearnStrategy,2023.2.3,Win32,60.24096386,9,2,13,,,,,,,,1,09,,,,,,,,,,,1,1.114,1,,,,,,-0.303703704,-0.238888889,1,0,0,1.1141,Andesite_rect,12,0,12,0,1,
5e9f3f09ccc75a0c345e4845,SCN,2024-06-11_13h12.59.099,LearnStrategy,2023.2.3,Win32,60.24096386,9,2,14,,,,,,,,4,15,,,,,,,,,,,6,2.443,0,,,,,,-0.093518519,-0.419444444,1,0,0,2.4433,Pegmatite_rect,13,0,13,0,1,
5e9f3f09ccc75a0c345e4845,SCN,2024-06-11_13h12.59.099,LearnStrategy,2023.2.3,Win32,60.24096386,9,2,15,,,,,,,,6,08,,,,,,,,,,,6,1.405,1,,,,,,-0.166666667,-0.414814815,1,0,0,1.4053,Pegmatite_rect,14,0,14,0,1,
5e9f3f09ccc75a0c345e4845,SCN,2024-06-11_13h12.59.099,LearnStrategy,2023.2.3,Win32,60.24096386,9,2,16,,,,,,,,2,02,,,,,,,,,,,2,1.131,1,,,,,,-0.118518519,-0.246296296,1,0,0,1.1313,Basalt_rect,15,0,15,0,1,
5e9f3f09ccc75a0c345e4845,SCN,2024-06-11_13h12.59.099,LearnStrategy,2023.2.3,Win32,60.24096386,,,,,,,,,,,,,,,,,,,,,,,,,,,,,,,,,,,,,,,,,,,1
5e9f3f09ccc75a0c345e4845,SCN,2024-06-11_13h12.59.099,LearnStrategy,2023.2.3,Win32,60.24096386,,,,,,,,,,,,,,,,,,,,,,,,,,,,,,,,,,,,,,,,,,,
5e9f3f09ccc75a0c345e4845,SCN,2024-06-11_13h12.59.099,LearnStrategy,2023.2.3,Win32,60.24096386,,,,,,,,,,,7,13,1,1,,,,,,,,,,,,,,,,,,,,,,,,,,,,,
5e9f3f09ccc75a0c345e4845,SCN,2024-06-11_13h12.59.099,LearnStrategy,2023.2.3,Win32,60.24096386,,,,,,,,,,,6,10,1,2,,,,,,,,,,,,,,,,,,,,,,,,,,,,,
5e9f3f09ccc75a0c345e4845,SCN,2024-06-11_13h12.59.099,LearnStrategy,2023.2.3,Win32,60.24096386,,,,,,,,,,,7,07,1,3,,,,,,,,,,,,,,,,,,,,,,,,,,,,,
5e9f3f09ccc75a0c345e4845,SCN,2024-06-11_13h12.59.099,LearnStrategy,2023.2.3,Win32,60.24096386,,,,,,,,,,,2,06,1,4,,,,,,,,,,,,,,,,,,,,,,,,,,,,,
5e9f3f09ccc75a0c345e4845,SCN,2024-06-11_13h12.59.099,LearnStrategy,2023.2.3,Win32,60.24096386,,,,,,,,,,,1,16,1,5,,,,,,,,,,,,,,,,,,,,,,,,,,,,,
5e9f3f09ccc75a0c345e4845,SCN,2024-06-11_13h12.59.099,LearnStrategy,2023.2.3,Win32,60.24096386,,,,,,,,,,,3,12,1,6,,,,,,,,,,,,,,,,,,,,,,,,,,,,,
5e9f3f09ccc75a0c345e4845,SCN,2024-06-11_13h12.59.099,LearnStrategy,2023.2.3,Win32,60.24096386,,,,,,,,,,,4,10,1,7,,,,,,,,,,,,,,,,,,,,,,,,,,,,,
5e9f3f09ccc75a0c345e4845,SCN,2024-06-11_13h12.59.099,LearnStrategy,2023.2.3,Win32,60.24096386,,,,,,,,,,,1,06,1,8,,,,,,,,,,,,,,,,,,,,,,,,,,,,,
5e9f3f09ccc75a0c345e4845,SCN,2024-06-11_13h12.59.099,LearnStrategy,2023.2.3,Win32,60.24096386,,,,,,,,,,,2,08,2,1,,,,,,,,,,,,,,,,,,,,,,,,,,,,,
5e9f3f09ccc75a0c345e4845,SCN,2024-06-11_13h12.59.099,LearnStrategy,2023.2.3,Win32,60.24096386,,,,,,,,,,,8,02,2,2,,,,,,,,,,,,,,,,,,,,,,,,,,,,,
5e9f3f09ccc75a0c345e4845,SCN,2024-06-11_13h12.59.099,LearnStrategy,2023.2.3,Win32,60.24096386,,,,,,,,,,,5,11,2,3,,,,,,,,,,,,,,,,,,,,,,,,,,,,,
5e9f3f09ccc75a0c345e4845,SCN,2024-06-11_13h12.59.099,LearnStrategy,2023.2.3,Win32,60.24096386,,,,,,,,,,,1,03,2,4,,,,,,,,,,,,,,,,,,,,,,,,,,,,,
5e9f3f09ccc75a0c345e4845,SCN,2024-06-11_13h12.59.099,LearnStrategy,2023.2.3,Win32,60.24096386,,,,,,,,,,,4,13,2,5,,,,,,,,,,,,,,,,,,,,,,,,,,,,,
5e9f3f09ccc75a0c345e4845,SCN,2024-06-11_13h12.59.099,LearnStrategy,2023.2.3,Win32,60.24096386,,,,,,,,,,,5,08,2,6,,,,,,,,,,,,,,,,,,,,,,,,,,,,,
5e9f3f09ccc75a0c345e4845,SCN,2024-06-11_13h12.59.099,LearnStrategy,2023.2.3,Win32,60.24096386,,,,,,,,,,,2,10,2,7,,,,,,,,,,,,,,,,,,,,,,,,,,,,,
5e9f3f09ccc75a0c345e4845,SCN,2024-06-11_13h12.59.099,LearnStrategy,2023.2.3,Win32,60.24096386,,,,,,,,,,,7,05,2,8,,,,,,,,,,,,,,,,,,,,,,,,,,,,,
5e9f3f09ccc75a0c345e4845,SCN,2024-06-11_13h12.59.099,LearnStrategy,2023.2.3,Win32,60.24096386,,,,,,,,,,,2,04,3,1,,,,,,,,,,,,,,,,,,,,,,,,,,,,,
5e9f3f09ccc75a0c345e4845,SCN,2024-06-11_13h12.59.099,LearnStrategy,2023.2.3,Win32,60.24096386,,,,,,,,,,,3,16,3,2,,,,,,,,,,,,,,,,,,,,,,,,,,,,,
5e9f3f09ccc75a0c345e4845,SCN,2024-06-11_13h12.59.099,LearnStrategy,2023.2.3,Win32,60.24096386,,,,,,,,,,,2,16,3,3,,,,,,,,,,,,,,,,,,,,,,,,,,,,,
5e9f3f09ccc75a0c345e4845,SCN,2024-06-11_13h12.59.099,LearnStrategy,2023.2.3,Win32,60.24096386,,,,,,,,,,,4,14,3,4,,,,,,,,,,,,,,,,,,,,,,,,,,,,,
5e9f3f09ccc75a0c345e4845,SCN,2024-06-11_13h12.59.099,LearnStrategy,2023.2.3,Win32,60.24096386,,,,,,,,,,,3,06,3,5,,,,,,,,,,,,,,,,,,,,,,,,,,,,,
5e9f3f09ccc75a0c345e4845,SCN,2024-06-11_13h12.59.099,LearnStrategy,2023.2.3,Win32,60.24096386,,,,,,,,,,,5,12,3,6,,,,,,,,,,,,,,,,,,,,,,,,,,,,,
5e9f3f09ccc75a0c345e4845,SCN,2024-06-11_13h12.59.099,LearnStrategy,2023.2.3,Win32,60.24096386,,,,,,,,,,,6,11,3,7,,,,,,,,,,,,,,,,,,,,,,,,,,,,,
5e9f3f09ccc75a0c345e4845,SCN,2024-06-11_13h12.59.099,LearnStrategy,2023.2.3,Win32,60.24096386,,,,,,,,,,,3,09,3,8,,,,,,,,,,,,,,,,,,,,,,,,,,,,,
5e9f3f09ccc75a0c345e4845,SCN,2024-06-11_13h12.59.099,LearnStrategy,2023.2.3,Win32,60.24096386,,,,,,,,,,,6,07,4,1,,,,,,,,,,,,,,,,,,,,,,,,,,,,,
5e9f3f09ccc75a0c345e4845,SCN,2024-06-11_13h12.59.099,LearnStrategy,2023.2.3,Win32,60.24096386,,,,,,,,,,,2,05,4,2,,,,,,,,,,,,,,,,,,,,,,,,,,,,,
5e9f3f09ccc75a0c345e4845,SCN,2024-06-11_13h12.59.099,LearnStrategy,2023.2.3,Win32,60.24096386,,,,,,,,,,,3,13,4,3,,,,,,,,,,,,,,,,,,,,,,,,,,,,,
5e9f3f09ccc75a0c345e4845,SCN,2024-06-11_13h12.59.099,LearnStrategy,2023.2.3,Win32,60.24096386,,,,,,,,,,,8,06,4,4,,,,,,,,,,,,,,,,,,,,,,,,,,,,,
5e9f3f09ccc75a0c345e4845,SCN,2024-06-11_13h12.59.099,LearnStrategy,2023.2.3,Win32,60.24096386,,,,,,,,,,,5,10,4,5,,,,,,,,,,,,,,,,,,,,,,,,,,,,,
5e9f3f09ccc75a0c345e4845,SCN,2024-06-11_13h12.59.099,LearnStrategy,2023.2.3,Win32,60.24096386,,,,,,,,,,,5,09,4,6,,,,,,,,,,,,,,,,,,,,,,,,,,,,,
5e9f3f09ccc75a0c345e4845,SCN,2024-06-11_13h12.59.099,LearnStrategy,2023.2.3,Win32,60.24096386,,,,,,,,,,,5,14,4,7,,,,,,,,,,,,,,,,,,,,,,,,,,,,,
5e9f3f09ccc75a0c345e4845,SCN,2024-06-11_13h12.59.099,LearnStrategy,2023.2.3,Win32,60.24096386,,,,,,,,,,,8,03,4,8,,,,,,,,,,,,,,,,,,,,,,,,,,,,,
5e9f3f09ccc75a0c345e4845,SCN,2024-06-11_13h12.59.099,LearnStrategy,2023.2.3,Win32,60.24096386,,,,,,,,,,,3,10,5,1,,,,,,,,,,,,,,,,,,,,,,,,,,,,,
5e9f3f09ccc75a0c345e4845,SCN,2024-06-11_13h12.59.099,LearnStrategy,2023.2.3,Win32,60.24096386,,,,,,,,,,,4,12,5,2,,,,,,,,,,,,,,,,,,,,,,,,,,,,,
5e9f3f09ccc75a0c345e4845,SCN,2024-06-11_13h12.59.099,LearnStrategy,2023.2.3,Win32,60.24096386,,,,,,,,,,,6,13,5,3,,,,,,,,,,,,,,,,,,,,,,,,,,,,,
5e9f3f09ccc75a0c345e4845,SCN,2024-06-11_13h12.59.099,LearnStrategy,2023.2.3,Win32,60.24096386,,,,,,,,,,,8,09,5,4,,,,,,,,,,,,,,,,,,,,,,,,,,,,,
5e9f3f09ccc75a0c345e4845,SCN,2024-06-11_13h12.59.099,LearnStrategy,2023.2.3,Win32,60.24096386,,,,,,,,,,,1,11,5,5,,,,,,,,,,,,,,,,,,,,,,,,,,,,,
5e9f3f09ccc75a0c345e4845,SCN,2024-06-11_13h12.59.099,LearnStrategy,2023.2.3,Win32,60.24096386,,,,,,,,,,,1,07,5,6,,,,,,,,,,,,,,,,,,,,,,,,,,,,,
5e9f3f09ccc75a0c345e4845,SCN,2024-06-11_13h12.59.099,LearnStrategy,2023.2.3,Win32,60.24096386,,,,,,,,,,,1,04,5,7,,,,,,,,,,,,,,,,,,,,,,,,,,,,,
5e9f3f09ccc75a0c345e4845,SCN,2024-06-11_13h12.59.099,LearnStrategy,2023.2.3,Win32,60.24096386,,,,,,,,,,,4,01,5,8,,,,,,,,,,,,,,,,,,,,,,,,,,,,,
5e9f3f09ccc75a0c345e4845,SCN,2024-06-11_13h12.59.099,LearnStrategy,2023.2.3,Win32,60.24096386,,,,,,,,,,,6,12,6,1,,,,,,,,,,,,,,,,,,,,,,,,,,,,,
5e9f3f09ccc75a0c345e4845,SCN,2024-06-11_13h12.59.099,LearnStrategy,2023.2.3,Win32,60.24096386,,,,,,,,,,,8,16,6,2,,,,,,,,,,,,,,,,,,,,,,,,,,,,,
5e9f3f09ccc75a0c345e4845,SCN,2024-06-11_13h12.59.099,LearnStrategy,2023.2.3,Win32,60.24096386,,,,,,,,,,,7,02,6,3,,,,,,,,,,,,,,,,,,,,,,,,,,,,,
5e9f3f09ccc75a0c345e4845,SCN,2024-06-11_13h12.59.099,LearnStrategy,2023.2.3,Win32,60.24096386,,,,,,,,,,,6,05,6,4,,,,,,,,,,,,,,,,,,,,,,,,,,,,,
5e9f3f09ccc75a0c345e4845,SCN,2024-06-11_13h12.59.099,LearnStrategy,2023.2.3,Win32,60.24096386,,,,,,,,,,,8,14,6,5,,,,,,,,,,,,,,,,,,,,,,,,,,,,,
5e9f3f09ccc75a0c345e4845,SCN,2024-06-11_13h12.59.099,LearnStrategy,2023.2.3,Win32,60.24096386,,,,,,,,,,,7,04,6,6,,,,,,,,,,,,,,,,,,,,,,,,,,,,,
5e9f3f09ccc75a0c345e4845,SCN,2024-06-11_13h12.59.099,LearnStrategy,2023.2.3,Win32,60.24096386,,,,,,,,,,,4,08,6,7,,,,,,,,,,,,,,,,,,,,,,,,,,,,,
5e9f3f09ccc75a0c345e4845,SCN,2024-06-11_13h12.59.099,LearnStrategy,2023.2.3,Win32,60.24096386,,,,,,,,,,,7,08,6,8,,,,,,,,,,,,,,,,,,,,,,,,,,,,,