participant,condition,date,expName,psychopyVersion,OS,frameRate,block,phase,trial,learn_mouse_2.x,learn_mouse_2.y,learn_mouse_2.leftButton,learn_mouse_2.midButton,learn_mouse_2.rightButton,learn_mouse_2.time,learn_mouse_2.clicked_name,cat,token,row,col,t_select,cat_mouse_l.x,cat_mouse_l.y,cat_mouse_l.leftButton,cat_mouse_l.midButton,cat_mouse_l.rightButton,cat_mouse_l.time,cat_mouse_l.clicked_name,resp,t_resp,corr,train_trials.thisRepN,train_trials.thisTrialN,train_trials.thisN,train_trials.thisIndex,train_trials.ran,cat_mouse_t.x,cat_mouse_t.y,cat_mouse_t.leftButton,cat_mouse_t.midButton,cat_mouse_t.rightButton,cat_mouse_t.time,cat_mouse_t.clicked_name,test_trials.thisRepN,test_trials.thisTrialN,test_trials.thisN,test_trials.thisIndex,test_trials.ran,Bonus
5ee0e5063f7f190b2b3f3b14,TCR,2024-06-25_11h40.04.009,LearnStrategy,2023.2.3,Win32,60.60606061,,,,,,,,,,,,,,,,,,,,,,,,,,,,,,,,,,,,,,,,,,,
5ee0e5063f7f190b2b3f3b14,TCR,2024-06-25_11h40.04.009,LearnStrategy,2023.2.3,Win32,60.60606061,1,1,1,0.049074131,-0.008333333,1,0,0,2.7088,rock_grid_rect_2,7,04,-1,-1,2.709,0.124074131,-0.390740797,1,0,0,19.9077,Peridotite_rect,7,19.908,1,0,0,0,0,1,,,,,,,,,,,,,
5ee0e5063f7f190b2b3f3b14,TCR,2024-06-25_11h40.04.009,LearnStrategy,2023.2.3,Win32,60.60606061,1,1,2,0.063888889,-0.02129631,1,0,0,3.0219,rock_grid_rect_2,3,15,-1,-1,3.022,-0.156481425,-0.252777778,1,0,0,7.7443,Basalt_rect,2,7.744,0,1,0,1,0,1,,,,,,,,,,,,,
5ee0e5063f7f190b2b3f3b14,TCR,2024-06-25_11h40.04.009,LearnStrategy,2023.2.3,Win32,60.60606061,1,1,3,0.078703732,0.004629601,1,0,0,2.3664,rock_grid_rect_2,3,12,-1,-1,2.366,-0.111111111,-0.250925954,1,0,0,12.1868,Basalt_rect,2,12.187,0,2,0,2,0,1,,,,,,,,,,,,,
5ee0e5063f7f190b2b3f3b14,TCR,2024-06-25_11h40.04.009,LearnStrategy,2023.2.3,Win32,60.60606061,1,1,4,0.027777778,-0.001851866,1,0,0,1.4598,rock_grid_rect_2,6,07,-1,-1,1.46,0.425925954,-0.253703732,1,0,0,7.6941,Gabbro_rect,4,7.694,0,3,0,3,0,1,,,,,,,,,,,,,
5ee0e5063f7f190b2b3f3b14,TCR,2024-06-25_11h40.04.009,LearnStrategy,2023.2.3,Win32,60.60606061,1,1,5,0.023148176,-0.005555556,1,0,0,1.8749,rock_grid_rect_2,1,16,-1,-1,1.875,-0.053703647,-0.397222222,1,0,0,8.8347,Pegmatite_rect,6,8.835,0,4,0,4,0,1,,,,,,,,,,,,,
5ee0e5063f7f190b2b3f3b14,TCR,2024-06-25_11h40.04.009,LearnStrategy,2023.2.3,Win32,60.60606061,1,1,6,0.004629686,0.004629601,1,0,0,1.1218,rock_grid_rect_2,7,12,-1,-1,1.122,0.096296353,-0.25648151,1,0,0,6.6838,Diorite_rect,3,6.684,0,5,0,5,0,1,,,,,,,,,,,,,
5ee0e5063f7f190b2b3f3b14,TCR,2024-06-25_11h40.04.009,LearnStrategy,2023.2.3,Win32,60.60606061,1,1,7,0.027777778,-0.008333333,1,0,0,1.0573,rock_grid_rect_2,8,16,-1,-1,1.057,0.343518575,-0.404629686,1,0,0,2.2261,Pumice_rect,8,2.226,1,6,0,6,0,1,,,,,,,,,,,,,
5ee0e5063f7f190b2b3f3b14,TCR,2024-06-25_11h40.04.009,LearnStrategy,2023.2.3,Win32,60.60606061,1,1,8,-0.029629601,0.002777778,1,0,0,1.4603,rock_grid_rect_2,5,10,-1,-1,1.46,-0.385185157,-0.412037065,1,0,0,3.5242,Obsidian_rect,5,3.524,1,7,0,7,0,1,,,,,,,,,,,,,
5ee0e5063f7f190b2b3f3b14,TCR,2024-06-25_11h40.04.009,LearnStrategy,2023.2.3,Win32,60.60606061,1,1,9,-0.020370314,0.016666667,1,0,0,1.4019,rock_grid_rect_2,6,10,-1,-1,1.402,0.1,-0.413888889,1,0,0,4.173,Peridotite_rect,7,4.173,0,8,0,8,0,1,,,,,,,,,,,,,
5ee0e5063f7f190b2b3f3b14,TCR,2024-06-25_11h40.04.009,LearnStrategy,2023.2.3,Win32,60.60606061,1,1,10,0.046296353,-0.003703732,1,0,0,1.159,rock_grid_rect_2,8,06,-1,-1,1.159,0.380555556,-0.388888889,1,0,0,6.211,Pumice_rect,8,6.211,1,9,0,9,0,1,,,,,,,,,,,,,
5ee0e5063f7f190b2b3f3b14,TCR,2024-06-25_11h40.04.009,LearnStrategy,2023.2.3,Win32,60.60606061,1,1,11,0.017592621,0.013888889,1,0,0,0.975,rock_grid_rect_2,2,12,-1,-1,0.975,0.397222222,-0.237037065,1,0,0,7.6735,Gabbro_rect,4,7.673,0,10,0,10,0,1,,,,,,,,,,,,,
5ee0e5063f7f190b2b3f3b14,TCR,2024-06-25_11h40.04.009,LearnStrategy,2023.2.3,Win32,60.60606061,1,1,12,0.011111111,0.000925912,1,0,0,1.2932,rock_grid_rect_2,1,07,-1,-1,1.293,0.10648151,-0.240740797,1,0,0,5.8561,Diorite_rect,3,5.856,0,11,0,11,0,1,,,,,,,,,,,,,
5ee0e5063f7f190b2b3f3b14,TCR,2024-06-25_11h40.04.009,LearnStrategy,2023.2.3,Win32,60.60606061,1,1,13,0.028703732,-0.008333333,1,0,0,1.1757,rock_grid_rect_2,2,05,-1,-1,1.176,-0.351851824,-0.407407464,1,0,0,10.2786,Obsidian_rect,5,10.279,0,12,0,12,0,1,,,,,,,,,,,,,
5ee0e5063f7f190b2b3f3b14,TCR,2024-06-25_11h40.04.009,LearnStrategy,2023.2.3,Win32,60.60606061,1,1,14,0.040740797,-0.005555556,1,0,0,1.2436,rock_grid_rect_2,4,13,-1,-1,1.244,0.162963019,-0.4,1,0,0,8.0198,Peridotite_rect,7,8.02,0,13,0,13,0,1,,,,,,,,,,,,,
5ee0e5063f7f190b2b3f3b14,TCR,2024-06-25_11h40.04.009,LearnStrategy,2023.2.3,Win32,60.60606061,1,1,15,-0.002777778,-0.011111111,1,0,0,11.3827,rock_grid_rect_2,4,08,-1,-1,11.383,0.118518575,-0.262963019,1,0,0,7.3164,Diorite_rect,3,7.316,0,14,0,14,0,1,,,,,,,,,,,,,
5ee0e5063f7f190b2b3f3b14,TCR,2024-06-25_11h40.04.009,LearnStrategy,2023.2.3,Win32,60.60606061,1,1,16,0.030555556,-0.010185199,1,0,0,1.0523,rock_grid_rect_2,5,04,-1,-1,1.052,-0.361111111,-0.398148176,1,0,0,4.1626,Obsidian_rect,5,4.163,1,15,0,15,0,1,,,,,,,,,,,,,
5ee0e5063f7f190b2b3f3b14,TCR,2024-06-25_11h40.04.009,LearnStrategy,2023.2.3,Win32,60.60606061,1,2,1,,,,,,,,5,02,,,,,,,,,,,5,2.018,1,,,,,,-0.332407379,-0.386111111,1,0,0,2.018,Obsidian_rect,0,0,0,0,1,
5ee0e5063f7f190b2b3f3b14,TCR,2024-06-25_11h40.04.009,LearnStrategy,2023.2.3,Win32,60.60606061,1,2,2,,,,,,,,2,01,,,,,,,,,,,2,6.762,1,,,,,,-0.084259203,-0.258333333,1,0,0,6.7621,Basalt_rect,1,0,1,0,1,
5ee0e5063f7f190b2b3f3b14,TCR,2024-06-25_11h40.04.009,LearnStrategy,2023.2.3,Win32,60.60606061,1,2,3,,,,,,,,3,06,,,,,,,,,,,3,4.73,1,,,,,,0.124074131,-0.244444444,1,0,0,4.73,Diorite_rect,2,0,2,0,1,
5ee0e5063f7f190b2b3f3b14,TCR,2024-06-25_11h40.04.009,LearnStrategy,2023.2.3,Win32,60.60606061,1,2,4,,,,,,,,4,14,,,,,,,,,,,1,11.453,0,,,,,,-0.352777778,-0.257407464,1,0,0,11.4526,Andesite_rect,3,0,3,0,1,
5ee0e5063f7f190b2b3f3b14,TCR,2024-06-25_11h40.04.009,LearnStrategy,2023.2.3,Win32,60.60606061,1,2,5,,,,,,,,7,02,,,,,,,,,,,6,5.785,0,,,,,,-0.098148092,-0.395370399,1,0,0,5.7847,Pegmatite_rect,4,0,4,0,1,
5ee0e5063f7f190b2b3f3b14,TCR,2024-06-25_11h40.04.009,LearnStrategy,2023.2.3,Win32,60.60606061,1,2,6,,,,,,,,1,14,,,,,,,,,,,3,16.187,0,,,,,,0.090740797,-0.242592621,1,0,0,16.1868,Diorite_rect,5,0,5,0,1,
5ee0e5063f7f190b2b3f3b14,TCR,2024-06-25_11h40.04.009,LearnStrategy,2023.2.3,Win32,60.60606061,1,2,7,,,,,,,,7,13,,,,,,,,,,,6,9.241,0,,,,,,-0.071296268,-0.405555556,1,0,0,9.2409,Pegmatite_rect,6,0,6,0,1,
5ee0e5063f7f190b2b3f3b14,TCR,2024-06-25_11h40.04.009,LearnStrategy,2023.2.3,Win32,60.60606061,1,2,8,,,,,,,,6,13,,,,,,,,,,,6,9.439,1,,,,,,-0.075925869,-0.401851908,1,0,0,9.4389,Pegmatite_rect,7,0,7,0,1,
5ee0e5063f7f190b2b3f3b14,TCR,2024-06-25_11h40.04.009,LearnStrategy,2023.2.3,Win32,60.60606061,1,2,9,,,,,,,,8,05,,,,,,,,,,,8,1.576,1,,,,,,0.370370399,-0.395370399,1,0,0,1.576,Pumice_rect,8,0,8,0,1,
5ee0e5063f7f190b2b3f3b14,TCR,2024-06-25_11h40.04.009,LearnStrategy,2023.2.3,Win32,60.60606061,1,2,10,,,,,,,,6,06,,,,,,,,,,,4,6.026,0,,,,,,0.359259288,-0.25648151,1,0,0,6.0264,Gabbro_rect,9,0,9,0,1,
5ee0e5063f7f190b2b3f3b14,TCR,2024-06-25_11h40.04.009,LearnStrategy,2023.2.3,Win32,60.60606061,1,2,11,,,,,,,,4,16,,,,,,,,,,,1,6.292,0,,,,,,-0.335185157,-0.25648151,1,0,0,6.2921,Andesite_rect,10,0,10,0,1,
5ee0e5063f7f190b2b3f3b14,TCR,2024-06-25_11h40.04.009,LearnStrategy,2023.2.3,Win32,60.60606061,1,2,12,,,,,,,,1,10,,,,,,,,,,,2,12.955,0,,,,,,-0.076851824,-0.262037065,1,0,0,12.9546,Basalt_rect,11,0,11,0,1,
5ee0e5063f7f190b2b3f3b14,TCR,2024-06-25_11h40.04.009,LearnStrategy,2023.2.3,Win32,60.60606061,1,2,13,,,,,,,,3,14,,,,,,,,,,,2,10.609,0,,,,,,-0.083333333,-0.249074131,1,0,0,10.6086,Basalt_rect,12,0,12,0,1,
5ee0e5063f7f190b2b3f3b14,TCR,2024-06-25_11h40.04.009,LearnStrategy,2023.2.3,Win32,60.60606061,1,2,14,,,,,,,,5,06,,,,,,,,,,,5,1.75,1,,,,,,-0.340740712,-0.396296353,1,0,0,1.7503,Obsidian_rect,13,0,13,0,1,
5ee0e5063f7f190b2b3f3b14,TCR,2024-06-25_11h40.04.009,LearnStrategy,2023.2.3,Win32,60.60606061,1,2,15,,,,,,,,8,09,,,,,,,,,,,8,1.171,1,,,,,,0.374074131,-0.398148176,1,0,0,1.1712,Pumice_rect,14,0,14,0,1,
5ee0e5063f7f190b2b3f3b14,TCR,2024-06-25_11h40.04.009,LearnStrategy,2023.2.3,Win32,60.60606061,1,2,16,,,,,,,,2,02,,,,,,,,,,,1,5.209,0,,,,,,-0.35,-0.249074131,1,0,0,5.2085,Andesite_rect,15,0,15,0,1,
5ee0e5063f7f190b2b3f3b14,TCR,2024-06-25_11h40.04.009,LearnStrategy,2023.2.3,Win32,60.60606061,2,1,1,0.043518575,0,1,0,0,1.7624,rock_grid_rect_2,7,16,-1,-1,1.762,0.191666667,-0.410185242,1,0,0,3.7658,Peridotite_rect,7,3.766,1,0,0,0,0,1,,,,,,,,,,,,,
5ee0e5063f7f190b2b3f3b14,TCR,2024-06-25_11h40.04.009,LearnStrategy,2023.2.3,Win32,60.60606061,2,1,2,0.075925954,-0.011111111,1,0,0,1.2088,rock_grid_rect_2,2,04,-1,-1,1.209,-0.365740712,-0.266666667,1,0,0,6.1138,Andesite_rect,1,6.114,0,1,0,1,0,1,,,,,,,,,,,,,
5ee0e5063f7f190b2b3f3b14,TCR,2024-06-25_11h40.04.009,LearnStrategy,2023.2.3,Win32,60.60606061,2,1,3,-0.022222222,-0.018518533,1,0,0,1.1403,rock_grid_rect_2,4,10,-1,-1,1.14,-0.413888889,-0.251851908,1,0,0,13.5096,Andesite_rect,1,13.51,0,2,0,2,0,1,,,,,,,,,,,,,
5ee0e5063f7f190b2b3f3b14,TCR,2024-06-25_11h40.04.009,LearnStrategy,2023.2.3,Win32,60.60606061,2,1,4,-0.038888889,-0.011111111,1,0,0,2.342,rock_grid_rect_2,4,03,-1,-1,2.342,-0.159259203,-0.255555556,1,0,0,14.8246,Basalt_rect,2,14.825,0,3,0,3,0,1,,,,,,,,,,,,,
5ee0e5063f7f190b2b3f3b14,TCR,2024-06-25_11h40.04.009,LearnStrategy,2023.2.3,Win32,60.60606061,2,1,5,0.062037065,-0.007407422,1,0,0,1.5186,rock_grid_rect_2,7,04,-1,-1,1.519,0.086111111,-0.420370399,1,0,0,1.8083,Peridotite_rect,7,1.808,1,4,0,4,0,1,,,,,,,,,,,,,
5ee0e5063f7f190b2b3f3b14,TCR,2024-06-25_11h40.04.009,LearnStrategy,2023.2.3,Win32,60.60606061,2,1,6,-0.035185157,-0.003703732,1,0,0,1.0232,rock_grid_rect_2,1,07,-1,-1,1.023,-0.092592536,-0.407407464,1,0,0,9.45,Pegmatite_rect,6,9.45,0,5,0,5,0,1,,,,,,,,,,,,,
5ee0e5063f7f190b2b3f3b14,TCR,2024-06-25_11h40.04.009,LearnStrategy,2023.2.3,Win32,60.60606061,2,1,7,0.002777778,0.000925912,1,0,0,1.0417,rock_grid_rect_2,7,12,-1,-1,1.042,-0.127777778,-0.386111111,1,0,0,2.2361,Pegmatite_rect,6,2.236,0,6,0,6,0,1,,,,,,,,,,,,,
5ee0e5063f7f190b2b3f3b14,TCR,2024-06-25_11h40.04.009,LearnStrategy,2023.2.3,Win32,60.60606061,2,1,8,0.027777778,0.008333333,1,0,0,1.4248,rock_grid_rect_2,2,05,-1,-1,1.425,0.084259288,-0.257407464,1,0,0,3.7453,Diorite_rect,3,3.745,0,7,0,7,0,1,,,,,,,,,,,,,
5ee0e5063f7f190b2b3f3b14,TCR,2024-06-25_11h40.04.009,LearnStrategy,2023.2.3,Win32,60.60606061,2,1,9,0.016666667,-0.000925954,1,0,0,1.2446,rock_grid_rect_2,1,16,-1,-1,1.245,0.317592621,-0.230555556,1,0,0,4.1462,Gabbro_rect,4,4.146,0,8,0,8,0,1,,,,,,,,,,,,,
5ee0e5063f7f190b2b3f3b14,TCR,2024-06-25_11h40.04.009,LearnStrategy,2023.2.3,Win32,60.60606061,2,1,10,-0.030555556,-0.012037065,1,0,0,1.1438,rock_grid_rect_2,1,06,-1,-1,1.144,-0.336111111,-0.241666667,1,0,0,5.9459,Andesite_rect,1,5.946,1,9,0,9,0,1,,,,,,,,,,,,,
5ee0e5063f7f190b2b3f3b14,TCR,2024-06-25_11h40.04.009,LearnStrategy,2023.2.3,Win32,60.60606061,2,1,11,-0.008333333,-0.00648151,1,0,0,1.1611,rock_grid_rect_2,6,10,-1,-1,1.161,-0.089814758,-0.386111111,1,0,0,3.082,Pegmatite_rect,6,3.082,1,10,0,10,0,1,,,,,,,,,,,,,
5ee0e5063f7f190b2b3f3b14,TCR,2024-06-25_11h40.04.009,LearnStrategy,2023.2.3,Win32,60.60606061,2,1,12,-0.017592536,-0.004629644,1,0,0,14.9064,rock_grid_rect_2,3,15,-1,-1,14.906,-0.086111111,-0.264814843,1,0,0,6.5232,Basalt_rect,2,6.523,0,11,0,11,0,1,,,,,,,,,,,,,
5ee0e5063f7f190b2b3f3b14,TCR,2024-06-25_11h40.04.009,LearnStrategy,2023.2.3,Win32,60.60606061,2,1,13,0.032407464,-0.010185199,1,0,0,1.7424,rock_grid_rect_2,6,12,-1,-1,1.742,-0.469444444,-0.241666667,1,0,0,4.0912,Andesite_rect,1,4.091,0,12,0,12,0,1,,,,,,,,,,,,,
5ee0e5063f7f190b2b3f3b14,TCR,2024-06-25_11h40.04.009,LearnStrategy,2023.2.3,Win32,60.60606061,2,1,14,-0.015740712,-0.012962977,1,0,0,1.174,rock_grid_rect_2,1,16,-1,-1,1.174,0.355555556,-0.242592621,1,0,0,5.7125,Gabbro_rect,4,5.712,0,13,0,13,0,1,,,,,,,,,,,,,
5ee0e5063f7f190b2b3f3b14,TCR,2024-06-25_11h40.04.009,LearnStrategy,2023.2.3,Win32,60.60606061,2,1,15,0.120370399,-0.009259288,1,0,0,1.2742,rock_grid_rect_2,3,15,-1,-1,1.274,0.119444444,-0.25,1,0,0,6.039,Diorite_rect,3,6.039,1,14,0,14,0,1,,,,,,,,,,,,,
5ee0e5063f7f190b2b3f3b14,TCR,2024-06-25_11h40.04.009,LearnStrategy,2023.2.3,Win32,60.60606061,2,1,16,0.063888889,-0.012962977,1,0,0,1.1776,rock_grid_rect_2,4,15,-1,-1,1.178,0.370370399,-0.248148176,1,0,0,4.6655,Gabbro_rect,4,4.665,1,15,0,15,0,1,,,,,,,,,,,,,
5ee0e5063f7f190b2b3f3b14,TCR,2024-06-25_11h40.04.009,LearnStrategy,2023.2.3,Win32,60.60606061,2,2,1,,,,,,,,3,10,,,,,,,,,,,3,4.807,1,,,,,,0.128703732,-0.260185242,1,0,0,4.8073,Diorite_rect,0,0,0,0,1,
5ee0e5063f7f190b2b3f3b14,TCR,2024-06-25_11h40.04.009,LearnStrategy,2023.2.3,Win32,60.60606061,2,2,2,,,,,,,,2,06,,,,,,,,,,,2,6.672,1,,,,,,-0.09351849,-0.260185242,1,0,0,6.6717,Basalt_rect,1,0,1,0,1,
5ee0e5063f7f190b2b3f3b14,TCR,2024-06-25_11h40.04.009,LearnStrategy,2023.2.3,Win32,60.60606061,2,2,3,,,,,,,,5,14,,,,,,,,,,,5,1.37,1,,,,,,-0.389814801,-0.387037065,1,0,0,1.3702,Obsidian_rect,2,0,2,0,1,
5ee0e5063f7f190b2b3f3b14,TCR,2024-06-25_11h40.04.009,LearnStrategy,2023.2.3,Win32,60.60606061,2,2,4,,,,,,,,7,14,,,,,,,,,,,1,5.871,0,,,,,,-0.381481467,-0.25648151,1,0,0,5.871,Andesite_rect,3,0,3,0,1,
5ee0e5063f7f190b2b3f3b14,TCR,2024-06-25_11h40.04.009,LearnStrategy,2023.2.3,Win32,60.60606061,2,2,5,,,,,,,,8,10,,,,,,,,,,,8,2.838,1,,,,,,0.345370399,-0.392592621,1,0,0,2.8383,Pumice_rect,4,0,4,0,1,
5ee0e5063f7f190b2b3f3b14,TCR,2024-06-25_11h40.04.009,LearnStrategy,2023.2.3,Win32,60.60606061,2,2,6,,,,,,,,7,07,,,,,,,,,,,1,8.6,0,,,,,,-0.364814801,-0.235185242,1,0,0,8.5997,Andesite_rect,5,0,5,0,1,
5ee0e5063f7f190b2b3f3b14,TCR,2024-06-25_11h40.04.009,LearnStrategy,2023.2.3,Win32,60.60606061,2,2,7,,,,,,,,1,04,,,,,,,,,,,7,4.642,0,,,,,,0.124074131,-0.401851908,1,0,0,4.6419,Peridotite_rect,6,0,6,0,1,
5ee0e5063f7f190b2b3f3b14,TCR,2024-06-25_11h40.04.009,LearnStrategy,2023.2.3,Win32,60.60606061,2,2,8,,,,,,,,6,03,,,,,,,,,,,4,13.923,0,,,,,,0.386111111,-0.241666667,1,0,0,13.9235,Gabbro_rect,7,0,7,0,1,
5ee0e5063f7f190b2b3f3b14,TCR,2024-06-25_11h40.04.009,LearnStrategy,2023.2.3,Win32,60.60606061,2,2,9,,,,,,,,3,08,,,,,,,,,,,2,5.591,0,,,,,,-0.057407379,-0.262037065,1,0,0,5.591,Basalt_rect,8,0,8,0,1,
5ee0e5063f7f190b2b3f3b14,TCR,2024-06-25_11h40.04.009,LearnStrategy,2023.2.3,Win32,60.60606061,2,2,10,,,,,,,,4,01,,,,,,,,,,,4,4.68,1,,,,,,0.433333333,-0.248148176,1,0,0,4.6802,Gabbro_rect,9,0,9,0,1,
5ee0e5063f7f190b2b3f3b14,TCR,2024-06-25_11h40.04.009,LearnStrategy,2023.2.3,Win32,60.60606061,2,2,11,,,,,,,,2,08,,,,,,,,,,,3,5.768,0,,,,,,0.078703732,-0.262037065,1,0,0,5.7678,Diorite_rect,10,0,10,0,1,
5ee0e5063f7f190b2b3f3b14,TCR,2024-06-25_11h40.04.009,LearnStrategy,2023.2.3,Win32,60.60606061,2,2,12,,,,,,,,8,02,,,,,,,,,,,8,1.457,1,,,,,,0.364814843,-0.407407464,1,0,0,1.4572,Pumice_rect,11,0,11,0,1,
5ee0e5063f7f190b2b3f3b14,TCR,2024-06-25_11h40.04.009,LearnStrategy,2023.2.3,Win32,60.60606061,2,2,13,,,,,,,,1,09,,,,,,,,,,,2,5.578,0,,,,,,-0.075925869,-0.25648151,1,0,0,5.5776,Basalt_rect,12,0,12,0,1,
5ee0e5063f7f190b2b3f3b14,TCR,2024-06-25_11h40.04.009,LearnStrategy,2023.2.3,Win32,60.60606061,2,2,14,,,,,,,,4,11,,,,,,,,,,,4,4.608,1,,,,,,0.364814843,-0.249074131,1,0,0,4.6082,Gabbro_rect,13,0,13,0,1,
5ee0e5063f7f190b2b3f3b14,TCR,2024-06-25_11h40.04.009,LearnStrategy,2023.2.3,Win32,60.60606061,2,2,15,,,,,,,,6,11,,,,,,,,,,,7,5.76,0,,,,,,0.136111111,-0.401851908,1,0,0,5.7597,Peridotite_rect,14,0,14,0,1,
5ee0e5063f7f190b2b3f3b14,TCR,2024-06-25_11h40.04.009,LearnStrategy,2023.2.3,Win32,60.60606061,2,2,16,,,,,,,,5,05,,,,,,,,,,,5,2.322,1,,,,,,-0.342592578,-0.407407464,1,0,0,2.3223,Obsidian_rect,15,0,15,0,1,
5ee0e5063f7f190b2b3f3b14,TCR,2024-06-25_11h40.04.009,LearnStrategy,2023.2.3,Win32,60.60606061,3,1,1,0.045370399,-0.004629644,1,0,0,1.8794,rock_grid_rect_2,3,09,-1,-1,1.879,-0.357407379,-0.235185242,1,0,0,6.8304,Andesite_rect,1,6.83,0,0,0,0,0,1,,,,,,,,,,,,,
5ee0e5063f7f190b2b3f3b14,TCR,2024-06-25_11h40.04.009,LearnStrategy,2023.2.3,Win32,60.60606061,3,1,2,0.077777778,-0.012037065,1,0,0,1.0897,rock_grid_rect_2,7,05,-1,-1,1.09,0.067592621,-0.388888889,1,0,0,8.0704,Peridotite_rect,7,8.07,1,1,0,1,0,1,,,,,,,,,,,,,
5ee0e5063f7f190b2b3f3b14,TCR,2024-06-25_11h40.04.009,LearnStrategy,2023.2.3,Win32,60.60606061,3,1,3,-0.012036981,-0.00648151,1,0,0,1.1949,rock_grid_rect_2,4,03,-1,-1,1.195,-0.348148134,-0.263888889,1,0,0,5.6462,Andesite_rect,1,5.646,0,2,0,2,0,1,,,,,,,,,,,,,
5ee0e5063f7f190b2b3f3b14,TCR,2024-06-25_11h40.04.009,LearnStrategy,2023.2.3,Win32,60.60606061,3,1,4,-0.031481425,-0.016666667,1,0,0,1.031,rock_grid_rect_2,6,15,-1,-1,1.031,0.378703732,-0.244444444,1,0,0,8.2913,Gabbro_rect,4,8.291,0,3,0,3,0,1,,,,,,,,,,,,,
5ee0e5063f7f190b2b3f3b14,TCR,2024-06-25_11h40.04.009,LearnStrategy,2023.2.3,Win32,60.60606061,3,1,5,0.027777778,-0.010185199,1,0,0,1.1528,rock_grid_rect_2,2,05,-1,-1,1.153,0.05648151,-0.239814843,1,0,0,6.877,Diorite_rect,3,6.877,0,4,0,4,0,1,,,,,,,,,,,,,
5ee0e5063f7f190b2b3f3b14,TCR,2024-06-25_11h40.04.009,LearnStrategy,2023.2.3,Win32,60.60606061,3,1,6,-0.014814758,-0.001851866,1,0,0,2.0872,rock_grid_rect_2,3,15,-1,-1,2.087,0.393518575,-0.250925954,1,0,0,4.937,Gabbro_rect,4,4.937,0,5,0,5,0,1,,,,,,,,,,,,,
5ee0e5063f7f190b2b3f3b14,TCR,2024-06-25_11h40.04.009,LearnStrategy,2023.2.3,Win32,60.60606061,3,1,7,-0.066666667,-0.025,1,0,0,1.0558,rock_grid_rect_2,2,12,-1,-1,1.056,0.362963019,-0.4,1,0,0,1.466,Pumice_rect,8,1.466,0,6,0,6,0,1,,,,,,,,,,,,,
5ee0e5063f7f190b2b3f3b14,TCR,2024-06-25_11h40.04.009,LearnStrategy,2023.2.3,Win32,60.60606061,3,1,8,-0.027777778,-0.010185199,1,0,0,1.0867,rock_grid_rect_2,1,02,-1,-1,1.087,-0.066666667,-0.394444444,1,0,0,7.2168,Pegmatite_rect,6,7.217,0,7,0,7,0,1,,,,,,,,,,,,,
5ee0e5063f7f190b2b3f3b14,TCR,2024-06-25_11h40.04.009,LearnStrategy,2023.2.3,Win32,60.60606061,3,1,9,0.025,-0.022222222,1,0,0,1.6412,rock_grid_rect_2,7,04,-1,-1,1.641,0.084259288,-0.421296353,1,0,0,2.9943,Peridotite_rect,7,2.994,1,8,0,8,0,1,,,,,,,,,,,,,
5ee0e5063f7f190b2b3f3b14,TCR,2024-06-25_11h40.04.009,LearnStrategy,2023.2.3,Win32,60.60606061,3,1,10,0.014814843,-0.018518533,1,0,0,1.3219,rock_grid_rect_2,7,05,-1,-1,1.322,0.122222222,-0.40648151,1,0,0,1.7209,Peridotite_rect,7,1.721,1,9,0,9,0,1,,,,,,,,,,,,,
5ee0e5063f7f190b2b3f3b14,TCR,2024-06-25_11h40.04.009,LearnStrategy,2023.2.3,Win32,60.60606061,3,1,11,0.034259288,0,1,0,0,0.9786,rock_grid_rect_2,4,09,-1,-1,0.979,-0.063888889,-0.257407464,1,0,0,14.7622,Basalt_rect,2,14.762,0,10,0,10,0,1,,,,,,,,,,,,,
5ee0e5063f7f190b2b3f3b14,TCR,2024-06-25_11h40.04.009,LearnStrategy,2023.2.3,Win32,60.60606061,3,1,12,0.062963019,-0.020370399,1,0,0,1.0114,rock_grid_rect_2,1,16,-1,-1,1.011,-0.4,-0.245370399,1,0,0,4.1629,Andesite_rect,1,4.163,1,11,0,11,0,1,,,,,,,,,,,,,
5ee0e5063f7f190b2b3f3b14,TCR,2024-06-25_11h40.04.009,LearnStrategy,2023.2.3,Win32,60.60606061,3,1,13,0.025925954,-0.002777778,1,0,0,1.1889,rock_grid_rect_2,6,10,-1,-1,1.189,-0.067592536,-0.404629686,1,0,0,1.7882,Pegmatite_rect,6,1.788,1,12,0,12,0,1,,,,,,,,,,,,,
5ee0e5063f7f190b2b3f3b14,TCR,2024-06-25_11h40.04.009,LearnStrategy,2023.2.3,Win32,60.60606061,3,1,14,0.015740797,0,1,0,0,1.3129,rock_grid_rect_2,6,07,-1,-1,1.313,0.334259288,-0.246296353,1,0,0,4.949,Gabbro_rect,4,4.949,0,13,0,13,0,1,,,,,,,,,,,,,
5ee0e5063f7f190b2b3f3b14,TCR,2024-06-25_11h40.04.009,LearnStrategy,2023.2.3,Win32,60.60606061,3,1,15,0.017592621,0.006481467,1,0,0,0.9795,rock_grid_rect_2,1,11,-1,-1,0.979,-0.357407379,-0.251851908,1,0,0,5.3781,Andesite_rect,1,5.378,1,14,0,14,0,1,,,,,,,,,,,,,
5ee0e5063f7f190b2b3f3b14,TCR,2024-06-25_11h40.04.009,LearnStrategy,2023.2.3,Win32,60.60606061,3,1,16,0.041666667,-0.012962977,1,0,0,1.1111,rock_grid_rect_2,1,03,-1,-1,1.111,-0.075925869,-0.251851908,1,0,0,5.2963,Basalt_rect,2,5.296,0,15,0,15,0,1,,,,,,,,,,,,,
5ee0e5063f7f190b2b3f3b14,TCR,2024-06-25_11h40.04.009,LearnStrategy,2023.2.3,Win32,60.60606061,3,2,1,,,,,,,,6,09,,,,,,,,,,,7,10.416,0,,,,,,0.075,-0.410185242,1,0,0,10.4155,Peridotite_rect,0,0,0,0,1,
5ee0e5063f7f190b2b3f3b14,TCR,2024-06-25_11h40.04.009,LearnStrategy,2023.2.3,Win32,60.60606061,3,2,2,,,,,,,,8,08,,,,,,,,,,,2,8.652,0,,,,,,-0.049074046,-0.239814843,1,0,0,8.6522,Basalt_rect,1,0,1,0,1,
5ee0e5063f7f190b2b3f3b14,TCR,2024-06-25_11h40.04.009,LearnStrategy,2023.2.3,Win32,60.60606061,3,2,3,,,,,,,,5,08,,,,,,,,,,,5,3.657,1,,,,,,-0.334259245,-0.383333333,1,0,0,3.6573,Obsidian_rect,2,0,2,0,1,
5ee0e5063f7f190b2b3f3b14,TCR,2024-06-25_11h40.04.009,LearnStrategy,2023.2.3,Win32,60.60606061,3,2,4,,,,,,,,7,06,,,,,,,,,,,7,2.614,1,,,,,,0.085185242,-0.412037065,1,0,0,2.6141,Peridotite_rect,3,0,3,0,1,
5ee0e5063f7f190b2b3f3b14,TCR,2024-06-25_11h40.04.009,LearnStrategy,2023.2.3,Win32,60.60606061,3,2,5,,,,,,,,5,07,,,,,,,,,,,5,2.947,1,,,,,,-0.4,-0.404629686,1,0,0,2.9466,Obsidian_rect,4,0,4,0,1,
5ee0e5063f7f190b2b3f3b14,TCR,2024-06-25_11h40.04.009,LearnStrategy,2023.2.3,Win32,60.60606061,3,2,6,,,,,,,,3,16,,,,,,,,,,,3,13.987,1,,,,,,0.069444444,-0.250925954,1,0,0,13.9874,Diorite_rect,5,0,5,0,1,
5ee0e5063f7f190b2b3f3b14,TCR,2024-06-25_11h40.04.009,LearnStrategy,2023.2.3,Win32,60.60606061,3,2,7,,,,,,,,4,05,,,,,,,,,,,4,7.192,1,,,,,,0.341666667,-0.259259288,1,0,0,7.192,Gabbro_rect,6,0,6,0,1,
5ee0e5063f7f190b2b3f3b14,TCR,2024-06-25_11h40.04.009,LearnStrategy,2023.2.3,Win32,60.60606061,3,2,8,,,,,,,,7,10,,,,,,,,,,,4,14.465,0,,,,,,0.342592621,-0.264814843,1,0,0,14.4648,Gabbro_rect,7,0,7,0,1,
5ee0e5063f7f190b2b3f3b14,TCR,2024-06-25_11h40.04.009,LearnStrategy,2023.2.3,Win32,60.60606061,3,2,9,,,,,,,,2,10,,,,,,,,,,,2,4.31,1,,,,,,-0.150925869,-0.257407464,1,0,0,4.3096,Basalt_rect,8,0,8,0,1,
5ee0e5063f7f190b2b3f3b14,TCR,2024-06-25_11h40.04.009,LearnStrategy,2023.2.3,Win32,60.60606061,3,2,10,,,,,,,,8,14,,,,,,,,,,,8,2.492,1,,,,,,0.418518575,-0.412963019,1,0,0,2.4918,Pumice_rect,9,0,9,0,1,
5ee0e5063f7f190b2b3f3b14,TCR,2024-06-25_11h40.04.009,LearnStrategy,2023.2.3,Win32,60.60606061,3,2,11,,,,,,,,3,07,,,,,,,,,,,3,10.633,1,,,,,,0.096296353,-0.251851908,1,0,0,10.6335,Diorite_rect,10,0,10,0,1,
5ee0e5063f7f190b2b3f3b14,TCR,2024-06-25_11h40.04.009,LearnStrategy,2023.2.3,Win32,60.60606061,3,2,12,,,,,,,,1,05,,,,,,,,,,,7,5.714,0,,,,,,0.143518575,-0.416666667,1,0,0,5.7138,Peridotite_rect,11,0,11,0,1,
5ee0e5063f7f190b2b3f3b14,TCR,2024-06-25_11h40.04.009,LearnStrategy,2023.2.3,Win32,60.60606061,3,2,13,,,,,,,,1,01,,,,,,,,,,,1,2.221,1,,,,,,-0.373148134,-0.262963019,1,0,0,2.2208,Andesite_rect,12,0,12,0,1,
5ee0e5063f7f190b2b3f3b14,TCR,2024-06-25_11h40.04.009,LearnStrategy,2023.2.3,Win32,60.60606061,3,2,14,,,,,,,,2,16,,,,,,,,,,,8,17.405,0,,,,,,0.358333333,-0.395370399,1,0,0,17.4052,Pumice_rect,13,0,13,0,1,
5ee0e5063f7f190b2b3f3b14,TCR,2024-06-25_11h40.04.009,LearnStrategy,2023.2.3,Win32,60.60606061,3,2,15,,,,,,,,4,12,,,,,,,,,,,4,8.74,1,,,,,,0.348148176,-0.244444444,1,0,0,8.7397,Gabbro_rect,14,0,14,0,1,
5ee0e5063f7f190b2b3f3b14,TCR,2024-06-25_11h40.04.009,LearnStrategy,2023.2.3,Win32,60.60606061,3,2,16,,,,,,,,6,05,,,,,,,,,,,6,10.458,1,,,,,,-0.134259203,-0.383333333,1,0,0,10.4579,Pegmatite_rect,15,0,15,0,1,
5ee0e5063f7f190b2b3f3b14,TCR,2024-06-25_11h40.04.009,LearnStrategy,2023.2.3,Win32,60.60606061,4,1,1,-0.006481425,-0.02129631,1,0,0,1.2638,rock_grid_rect_2,2,14,-1,-1,1.264,0.372222222,-0.409259288,1,0,0,4.3788,Pumice_rect,8,4.379,0,0,0,0,0,1,,,,,,,,,,,,,
5ee0e5063f7f190b2b3f3b14,TCR,2024-06-25_11h40.04.009,LearnStrategy,2023.2.3,Win32,60.60606061,4,1,2,-0.053703647,-0.007407422,1,0,0,1.911,rock_grid_rect_2,3,12,-1,-1,1.911,0.132407464,-0.252777778,1,0,0,2.0146,Diorite_rect,3,2.015,1,1,0,1,0,1,,,,,,,,,,,,,
5ee0e5063f7f190b2b3f3b14,TCR,2024-06-25_11h40.04.009,LearnStrategy,2023.2.3,Win32,60.60606061,4,1,3,0.013888889,-0.000925954,1,0,0,1.1633,rock_grid_rect_2,6,15,-1,-1,1.163,-0.154629601,-0.401851908,1,0,0,2.0498,Pegmatite_rect,6,2.05,1,2,0,2,0,1,,,,,,,,,,,,,
5ee0e5063f7f190b2b3f3b14,TCR,2024-06-25_11h40.04.009,LearnStrategy,2023.2.3,Win32,60.60606061,4,1,4,-0.032407379,0.008333333,1,0,0,1.1645,rock_grid_rect_2,4,09,-1,-1,1.164,0.389814843,-0.260185242,1,0,0,4.5596,Gabbro_rect,4,4.56,1,3,0,3,0,1,,,,,,,,,,,,,
5ee0e5063f7f190b2b3f3b14,TCR,2024-06-25_11h40.04.009,LearnStrategy,2023.2.3,Win32,60.60606061,4,1,5,0.053703732,-0.008333333,1,0,0,1.0949,rock_grid_rect_2,8,04,-1,-1,1.095,-0.127777778,-0.25648151,1,0,0,2.6754,Basalt_rect,2,2.675,0,4,0,4,0,1,,,,,,,,,,,,,
5ee0e5063f7f190b2b3f3b14,TCR,2024-06-25_11h40.04.009,LearnStrategy,2023.2.3,Win32,60.60606061,4,1,6,-0.026851824,0.006481467,1,0,0,1.0571,rock_grid_rect_2,1,11,-1,-1,1.057,-0.376851824,-0.239814843,1,0,0,1.6018,Andesite_rect,1,1.602,1,5,0,5,0,1,,,,,,,,,,,,,
5ee0e5063f7f190b2b3f3b14,TCR,2024-06-25_11h40.04.009,LearnStrategy,2023.2.3,Win32,60.60606061,4,1,7,-0.027777778,-0.010185199,1,0,0,1.0952,rock_grid_rect_2,7,08,-1,-1,1.095,0.123148176,-0.391666667,1,0,0,2.5238,Peridotite_rect,7,2.524,1,6,0,6,0,1,,,,,,,,,,,,,
5ee0e5063f7f190b2b3f3b14,TCR,2024-06-25_11h40.04.009,LearnStrategy,2023.2.3,Win32,60.60606061,4,1,8,0.001851908,0,1,0,0,0.9986,rock_grid_rect_2,6,15,-1,-1,0.999,-0.11851849,-0.386111111,1,0,0,1.5942,Pegmatite_rect,6,1.594,1,7,0,7,0,1,,,,,,,,,,,,,
5ee0e5063f7f190b2b3f3b14,TCR,2024-06-25_11h40.04.009,LearnStrategy,2023.2.3,Win32,60.60606061,4,1,9,-0.044444444,0,1,0,0,1.2291,rock_grid_rect_2,2,12,-1,-1,1.229,-0.100925869,-0.238888889,1,0,0,4.7496,Basalt_rect,2,4.75,1,8,0,8,0,1,,,,,,,,,,,,,
5ee0e5063f7f190b2b3f3b14,TCR,2024-06-25_11h40.04.009,LearnStrategy,2023.2.3,Win32,60.60606061,4,1,10,-0.002777778,0.000925912,1,0,0,1.0612,rock_grid_rect_2,7,04,-1,-1,1.061,0.099074131,-0.407407464,1,0,0,1.8997,Peridotite_rect,7,1.9,1,9,0,9,0,1,,,,,,,,,,,,,
5ee0e5063f7f190b2b3f3b14,TCR,2024-06-25_11h40.04.009,LearnStrategy,2023.2.3,Win32,60.60606061,4,1,11,0.002777778,0.017592578,1,0,0,0.8294,rock_grid_rect_2,1,16,-1,-1,0.829,0.369444444,-0.244444444,1,0,0,8.6467,Gabbro_rect,4,8.647,0,10,0,10,0,1,,,,,,,,,,,,,
5ee0e5063f7f190b2b3f3b14,TCR,2024-06-25_11h40.04.009,LearnStrategy,2023.2.3,Win32,60.60606061,4,1,12,0.016666667,-0.014814843,1,0,0,0.9284,rock_grid_rect_2,7,08,-1,-1,0.928,0.087037065,-0.405555556,1,0,0,2.1332,Peridotite_rect,7,2.133,1,11,0,11,0,1,,,,,,,,,,,,,
5ee0e5063f7f190b2b3f3b14,TCR,2024-06-25_11h40.04.009,LearnStrategy,2023.2.3,Win32,60.60606061,4,1,13,-0.04351849,-0.004629644,1,0,0,1.2296,rock_grid_rect_2,5,12,-1,-1,1.23,-0.37870369,-0.404629686,1,0,0,1.6639,Obsidian_rect,5,1.664,1,12,0,12,0,1,,,,,,,,,,,,,
5ee0e5063f7f190b2b3f3b14,TCR,2024-06-25_11h40.04.009,LearnStrategy,2023.2.3,Win32,60.60606061,4,1,14,-0.010185157,-0.005555556,1,0,0,0.9945,rock_grid_rect_2,6,16,-1,-1,0.995,-0.130555556,-0.385185242,1,0,0,4.1841,Pegmatite_rect,6,4.184,1,13,0,13,0,1,,,,,,,,,,,,,
5ee0e5063f7f190b2b3f3b14,TCR,2024-06-25_11h40.04.009,LearnStrategy,2023.2.3,Win32,60.60606061,4,1,15,-0.012962935,-0.011111111,1,0,0,0.9948,rock_grid_rect_2,2,09,-1,-1,0.995,-0.11851849,-0.252777778,1,0,0,3.2771,Basalt_rect,2,3.277,1,14,0,14,0,1,,,,,,,,,,,,,
5ee0e5063f7f190b2b3f3b14,TCR,2024-06-25_11h40.04.009,LearnStrategy,2023.2.3,Win32,60.60606061,4,1,16,-0.041666667,0.004629601,1,0,0,0.9792,rock_grid_rect_2,1,16,-1,-1,0.979,-0.339814801,-0.250925954,1,0,0,2.1447,Andesite_rect,1,2.145,1,15,0,15,0,1,,,,,,,,,,,,,
5ee0e5063f7f190b2b3f3b14,TCR,2024-06-25_11h40.04.009,LearnStrategy,2023.2.3,Win32,60.60606061,4,2,1,,,,,,,,6,11,,,,,,,,,,,6,1.457,1,,,,,,-0.082407379,-0.412037065,1,0,0,1.4572,Pegmatite_rect,0,0,0,0,1,
5ee0e5063f7f190b2b3f3b14,TCR,2024-06-25_11h40.04.009,LearnStrategy,2023.2.3,Win32,60.60606061,4,2,2,,,,,,,,8,08,,,,,,,,,,,2,6.775,0,,,,,,-0.098148092,-0.253703732,1,0,0,6.7751,Basalt_rect,1,0,1,0,1,
5ee0e5063f7f190b2b3f3b14,TCR,2024-06-25_11h40.04.009,LearnStrategy,2023.2.3,Win32,60.60606061,4,2,3,,,,,,,,8,02,,,,,,,,,,,8,2.08,1,,,,,,0.362037065,-0.400925954,1,0,0,2.08,Pumice_rect,2,0,2,0,1,
5ee0e5063f7f190b2b3f3b14,TCR,2024-06-25_11h40.04.009,LearnStrategy,2023.2.3,Win32,60.60606061,4,2,4,,,,,,,,2,01,,,,,,,,,,,2,4.993,1,,,,,,-0.076851824,-0.263888889,1,0,0,4.9925,Basalt_rect,3,0,3,0,1,
5ee0e5063f7f190b2b3f3b14,TCR,2024-06-25_11h40.04.009,LearnStrategy,2023.2.3,Win32,60.60606061,4,2,5,,,,,,,,3,08,,,,,,,,,,,3,2.471,1,,,,,,0.086111111,-0.241666667,1,0,0,2.4711,Diorite_rect,4,0,4,0,1,
5ee0e5063f7f190b2b3f3b14,TCR,2024-06-25_11h40.04.009,LearnStrategy,2023.2.3,Win32,60.60606061,4,2,6,,,,,,,,2,02,,,,,,,,,,,2,4.176,1,,,,,,-0.053703647,-0.260185242,1,0,0,4.1762,Basalt_rect,5,0,5,0,1,
5ee0e5063f7f190b2b3f3b14,TCR,2024-06-25_11h40.04.009,LearnStrategy,2023.2.3,Win32,60.60606061,4,2,7,,,,,,,,1,01,,,,,,,,,,,1,1.996,1,,,,,,-0.365740712,-0.244444444,1,0,0,1.9964,Andesite_rect,6,0,6,0,1,
5ee0e5063f7f190b2b3f3b14,TCR,2024-06-25_11h40.04.009,LearnStrategy,2023.2.3,Win32,60.60606061,4,2,8,,,,,,,,1,04,,,,,,,,,,,1,18.438,1,,,,,,-0.351851824,-0.244444444,1,0,0,18.4384,Andesite_rect,7,0,7,0,1,
5ee0e5063f7f190b2b3f3b14,TCR,2024-06-25_11h40.04.009,LearnStrategy,2023.2.3,Win32,60.60606061,4,2,9,,,,,,,,5,06,,,,,,,,,,,5,1.593,1,,,,,,-0.359259245,-0.385185242,1,0,0,1.593,Obsidian_rect,8,0,8,0,1,
5ee0e5063f7f190b2b3f3b14,TCR,2024-06-25_11h40.04.009,LearnStrategy,2023.2.3,Win32,60.60606061,4,2,10,,,,,,,,5,05,,,,,,,,,,,5,3.564,1,,,,,,-0.312037023,-0.4,1,0,0,3.5639,Obsidian_rect,9,0,9,0,1,
5ee0e5063f7f190b2b3f3b14,TCR,2024-06-25_11h40.04.009,LearnStrategy,2023.2.3,Win32,60.60606061,4,2,11,,,,,,,,6,09,,,,,,,,,,,7,9.1,0,,,,,,0.060185242,-0.401851908,1,0,0,9.1,Peridotite_rect,10,0,10,0,1,
5ee0e5063f7f190b2b3f3b14,TCR,2024-06-25_11h40.04.009,LearnStrategy,2023.2.3,Win32,60.60606061,4,2,12,,,,,,,,7,06,,,,,,,,,,,7,2.624,1,,,,,,0.118518575,-0.390740797,1,0,0,2.624,Peridotite_rect,11,0,11,0,1,
5ee0e5063f7f190b2b3f3b14,TCR,2024-06-25_11h40.04.009,LearnStrategy,2023.2.3,Win32,60.60606061,4,2,13,,,,,,,,4,14,,,,,,,,,,,4,5.778,1,,,,,,0.329629686,-0.258333333,1,0,0,5.7784,Gabbro_rect,12,0,12,0,1,
5ee0e5063f7f190b2b3f3b14,TCR,2024-06-25_11h40.04.009,LearnStrategy,2023.2.3,Win32,60.60606061,4,2,14,,,,,,,,3,10,,,,,,,,,,,3,4.212,1,,,,,,0.066666667,-0.265740797,1,0,0,4.2119,Diorite_rect,13,0,13,0,1,
5ee0e5063f7f190b2b3f3b14,TCR,2024-06-25_11h40.04.009,LearnStrategy,2023.2.3,Win32,60.60606061,4,2,15,,,,,,,,7,02,,,,,,,,,,,7,1.418,1,,,,,,0.098148176,-0.404629686,1,0,0,1.4182,Peridotite_rect,14,0,14,0,1,
5ee0e5063f7f190b2b3f3b14,TCR,2024-06-25_11h40.04.009,LearnStrategy,2023.2.3,Win32,60.60606061,4,2,16,,,,,,,,4,01,,,,,,,,,,,4,2.827,1,,,,,,0.344444444,-0.244444444,1,0,0,2.8267,Gabbro_rect,15,0,15,0,1,
5ee0e5063f7f190b2b3f3b14,TCR,2024-06-25_11h40.04.009,LearnStrategy,2023.2.3,Win32,60.60606061,5,1,1,0.052777778,-0.00648151,1,0,0,1.2095,rock_grid_rect_2,6,07,-1,-1,1.209,-0.166666667,-0.390740797,1,0,0,3.1545,Pegmatite_rect,6,3.155,1,0,0,0,0,1,,,,,,,,,,,,,
5ee0e5063f7f190b2b3f3b14,TCR,2024-06-25_11h40.04.009,LearnStrategy,2023.2.3,Win32,60.60606061,5,1,2,0.012037065,-0.017592621,1,0,0,0.9287,rock_grid_rect_2,4,08,-1,-1,0.929,0.418518575,-0.237037065,1,0,0,3.9125,Gabbro_rect,4,3.912,1,1,0,1,0,1,,,,,,,,,,,,,
5ee0e5063f7f190b2b3f3b14,TCR,2024-06-25_11h40.04.009,LearnStrategy,2023.2.3,Win32,60.60606061,5,1,3,0.025925954,0.016666667,1,0,0,0.9141,rock_grid_rect_2,5,04,-1,-1,0.914,-0.388888889,-0.407407464,1,0,0,1.4329,Obsidian_rect,5,1.433,1,2,0,2,0,1,,,,,,,,,,,,,
5ee0e5063f7f190b2b3f3b14,TCR,2024-06-25_11h40.04.009,LearnStrategy,2023.2.3,Win32,60.60606061,5,1,4,-0.006481425,-0.02129631,1,0,0,0.8964,rock_grid_rect_2,7,16,-1,-1,0.896,0.109259288,-0.403703732,1,0,0,4.3159,Peridotite_rect,7,4.316,1,3,0,3,0,1,,,,,,,,,,,,,
5ee0e5063f7f190b2b3f3b14,TCR,2024-06-25_11h40.04.009,LearnStrategy,2023.2.3,Win32,60.60606061,5,1,5,0.013888889,-0.001851866,1,0,0,1.3308,rock_grid_rect_2,8,13,-1,-1,1.331,0.388888889,-0.391666667,1,0,0,10.0254,Pumice_rect,8,10.025,1,4,0,4,0,1,,,,,,,,,,,,,
5ee0e5063f7f190b2b3f3b14,TCR,2024-06-25_11h40.04.009,LearnStrategy,2023.2.3,Win32,60.60606061,5,1,6,-0.061111111,0.008333333,1,0,0,1.4118,rock_grid_rect_2,3,15,-1,-1,1.412,0.112037065,-0.245370399,1,0,0,2.2428,Diorite_rect,3,2.243,1,5,0,5,0,1,,,,,,,,,,,,,
5ee0e5063f7f190b2b3f3b14,TCR,2024-06-25_11h40.04.009,LearnStrategy,2023.2.3,Win32,60.60606061,5,1,7,0.032407464,-0.015740755,1,0,0,1.2881,rock_grid_rect_2,1,07,-1,-1,1.288,-0.405555556,-0.249074131,1,0,0,1.4887,Andesite_rect,1,1.489,1,6,0,6,0,1,,,,,,,,,,,,,
5ee0e5063f7f190b2b3f3b14,TCR,2024-06-25_11h40.04.009,LearnStrategy,2023.2.3,Win32,60.60606061,5,1,8,-0.008333333,-0.020370399,1,0,0,0.9129,rock_grid_rect_2,2,12,-1,-1,0.913,-0.162036981,-0.240740797,1,0,0,1.9305,Basalt_rect,2,1.93,1,7,0,7,0,1,,,,,,,,,,,,,
5ee0e5063f7f190b2b3f3b14,TCR,2024-06-25_11h40.04.009,LearnStrategy,2023.2.3,Win32,60.60606061,5,1,9,-0.014814758,-0.012962977,1,0,0,1.0117,rock_grid_rect_2,1,06,-1,-1,1.012,-0.341666667,-0.235185242,1,0,0,1.5328,Andesite_rect,1,1.533,1,8,0,8,0,1,,,,,,,,,,,,,
5ee0e5063f7f190b2b3f3b14,TCR,2024-06-25_11h40.04.009,LearnStrategy,2023.2.3,Win32,60.60606061,5,1,10,0.021296353,-0.008333333,1,0,0,0.8456,rock_grid_rect_2,7,05,-1,-1,0.846,0.169444444,-0.403703732,1,0,0,1.8015,Peridotite_rect,7,1.802,1,9,0,9,0,1,,,,,,,,,,,,,
5ee0e5063f7f190b2b3f3b14,TCR,2024-06-25_11h40.04.009,LearnStrategy,2023.2.3,Win32,60.60606061,5,1,11,0.021296353,-0.010185199,1,0,0,1.0792,rock_grid_rect_2,2,05,-1,-1,1.079,-0.088888889,-0.259259288,1,0,0,1.9432,Basalt_rect,2,1.943,1,10,0,10,0,1,,,,,,,,,,,,,
5ee0e5063f7f190b2b3f3b14,TCR,2024-06-25_11h40.04.009,LearnStrategy,2023.2.3,Win32,60.60606061,5,1,12,0.059259288,-0.007407422,1,0,0,1.1104,rock_grid_rect_2,7,04,-1,-1,1.11,0.060185242,-0.401851908,1,0,0,1.5938,Peridotite_rect,7,1.594,1,11,0,11,0,1,,,,,,,,,,,,,
5ee0e5063f7f190b2b3f3b14,TCR,2024-06-25_11h40.04.009,LearnStrategy,2023.2.3,Win32,60.60606061,5,1,13,-0.040740712,-0.008333333,1,0,0,1.5628,rock_grid_rect_2,6,16,-1,-1,1.563,-0.189814801,-0.413888889,1,0,0,1.5659,Pegmatite_rect,6,1.566,1,12,0,12,0,1,,,,,,,,,,,,,
5ee0e5063f7f190b2b3f3b14,TCR,2024-06-25_11h40.04.009,LearnStrategy,2023.2.3,Win32,60.60606061,5,1,14,0.041666667,-0.00648151,1,0,0,1.0796,rock_grid_rect_2,1,06,-1,-1,1.08,-0.361111111,-0.253703732,1,0,0,1.4179,Andesite_rect,1,1.418,1,13,0,13,0,1,,,,,,,,,,,,,
5ee0e5063f7f190b2b3f3b14,TCR,2024-06-25_11h40.04.009,LearnStrategy,2023.2.3,Win32,60.60606061,5,1,15,-0.012962935,0.005555556,1,0,0,1.2118,rock_grid_rect_2,6,08,-1,-1,1.212,-0.114814758,-0.402777778,1,0,0,2.3927,Pegmatite_rect,6,2.393,1,14,0,14,0,1,,,,,,,,,,,,,
5ee0e5063f7f190b2b3f3b14,TCR,2024-06-25_11h40.04.009,LearnStrategy,2023.2.3,Win32,60.60606061,5,1,16,0.002777778,-0.008333333,1,0,0,0.9446,rock_grid_rect_2,8,04,-1,-1,0.945,0.368518575,-0.413888889,1,0,0,4.5814,Pumice_rect,8,4.581,1,15,0,15,0,1,,,,,,,,,,,,,
5ee0e5063f7f190b2b3f3b14,TCR,2024-06-25_11h40.04.009,LearnStrategy,2023.2.3,Win32,60.60606061,5,2,1,,,,,,,,8,09,,,,,,,,,,,8,2.009,1,,,,,,0.388888889,-0.395370399,1,0,0,2.0086,Pumice_rect,0,0,0,0,1,
5ee0e5063f7f190b2b3f3b14,TCR,2024-06-25_11h40.04.009,LearnStrategy,2023.2.3,Win32,60.60606061,5,2,2,,,,,,,,8,14,,,,,,,,,,,8,1.713,1,,,,,,0.320370399,-0.393518575,1,0,0,1.7128,Pumice_rect,1,0,1,0,1,
5ee0e5063f7f190b2b3f3b14,TCR,2024-06-25_11h40.04.009,LearnStrategy,2023.2.3,Win32,60.60606061,5,2,3,,,,,,,,4,16,,,,,,,,,,,4,5.511,1,,,,,,0.387037065,-0.258333333,1,0,0,5.5109,Gabbro_rect,2,0,2,0,1,
5ee0e5063f7f190b2b3f3b14,TCR,2024-06-25_11h40.04.009,LearnStrategy,2023.2.3,Win32,60.60606061,5,2,4,,,,,,,,1,14,,,,,,,,,,,6,15.193,0,,,,,,-0.103703647,-0.399074131,1,0,0,15.1929,Pegmatite_rect,3,0,3,0,1,
5ee0e5063f7f190b2b3f3b14,TCR,2024-06-25_11h40.04.009,LearnStrategy,2023.2.3,Win32,60.60606061,5,2,5,,,,,,,,7,14,,,,,,,,,,,7,4.102,1,,,,,,0.154629686,-0.400925954,1,0,0,4.1023,Peridotite_rect,4,0,4,0,1,
5ee0e5063f7f190b2b3f3b14,TCR,2024-06-25_11h40.04.009,LearnStrategy,2023.2.3,Win32,60.60606061,5,2,6,,,,,,,,3,07,,,,,,,,,,,3,2.682,1,,,,,,0.096296353,-0.261111111,1,0,0,2.6822,Diorite_rect,5,0,5,0,1,
5ee0e5063f7f190b2b3f3b14,TCR,2024-06-25_11h40.04.009,LearnStrategy,2023.2.3,Win32,60.60606061,5,2,7,,,,,,,,4,12,,,,,,,,,,,1,3.96,0,,,,,,-0.340740712,-0.252777778,1,0,0,3.9604,Andesite_rect,6,0,6,0,1,
5ee0e5063f7f190b2b3f3b14,TCR,2024-06-25_11h40.04.009,LearnStrategy,2023.2.3,Win32,60.60606061,5,2,8,,,,,,,,5,02,,,,,,,,,,,5,1.582,1,,,,,,-0.390740712,-0.404629686,1,0,0,1.5815,Obsidian_rect,7,0,7,0,1,
5ee0e5063f7f190b2b3f3b14,TCR,2024-06-25_11h40.04.009,LearnStrategy,2023.2.3,Win32,60.60606061,5,2,9,,,,,,,,5,07,,,,,,,,,,,5,1.889,1,,,,,,-0.375925912,-0.390740797,1,0,0,1.889,Obsidian_rect,8,0,8,0,1,
5ee0e5063f7f190b2b3f3b14,TCR,2024-06-25_11h40.04.009,LearnStrategy,2023.2.3,Win32,60.60606061,5,2,10,,,,,,,,2,16,,,,,,,,,,,2,5.352,1,,,,,,-0.11851849,-0.259259288,1,0,0,5.3523,Basalt_rect,9,0,9,0,1,
5ee0e5063f7f190b2b3f3b14,TCR,2024-06-25_11h40.04.009,LearnStrategy,2023.2.3,Win32,60.60606061,5,2,11,,,,,,,,3,14,,,,,,,,,,,3,3.042,1,,,,,,0.132407464,-0.265740797,1,0,0,3.042,Diorite_rect,10,0,10,0,1,
5ee0e5063f7f190b2b3f3b14,TCR,2024-06-25_11h40.04.009,LearnStrategy,2023.2.3,Win32,60.60606061,5,2,12,,,,,,,,7,13,,,,,,,,,,,7,1.493,1,,,,,,0.1,-0.395370399,1,0,0,1.4931,Peridotite_rect,11,0,11,0,1,
5ee0e5063f7f190b2b3f3b14,TCR,2024-06-25_11h40.04.009,LearnStrategy,2023.2.3,Win32,60.60606061,5,2,13,,,,,,,,2,06,,,,,,,,,,,2,2.86,1,,,,,,-0.071296268,-0.261111111,1,0,0,2.86,Basalt_rect,12,0,12,0,1,
5ee0e5063f7f190b2b3f3b14,TCR,2024-06-25_11h40.04.009,LearnStrategy,2023.2.3,Win32,60.60606061,5,2,14,,,,,,,,6,13,,,,,,,,,,,6,4.209,1,,,,,,-0.087962935,-0.412037065,1,0,0,4.2089,Pegmatite_rect,13,0,13,0,1,
5ee0e5063f7f190b2b3f3b14,TCR,2024-06-25_11h40.04.009,LearnStrategy,2023.2.3,Win32,60.60606061,5,2,15,,,,,,,,1,10,,,,,,,,,,,1,8.47,1,,,,,,-0.356481467,-0.244444444,1,0,0,8.4698,Andesite_rect,14,0,14,0,1,
5ee0e5063f7f190b2b3f3b14,TCR,2024-06-25_11h40.04.009,LearnStrategy,2023.2.3,Win32,60.60606061,5,2,16,,,,,,,,6,05,,,,,,,,,,,6,4.342,1,,,,,,-0.058333333,-0.389814843,1,0,0,4.3423,Pegmatite_rect,15,0,15,0,1,
5ee0e5063f7f190b2b3f3b14,TCR,2024-06-25_11h40.04.009,LearnStrategy,2023.2.3,Win32,60.60606061,6,1,1,0.019444444,-0.009259288,1,0,0,1.1653,rock_grid_rect_2,5,10,-1,-1,1.165,-0.396296268,-0.407407464,1,0,0,1.36,Obsidian_rect,5,1.36,1,0,0,0,0,1,,,,,,,,,,,,,
5ee0e5063f7f190b2b3f3b14,TCR,2024-06-25_11h40.04.009,LearnStrategy,2023.2.3,Win32,60.60606061,6,1,2,0.011111111,-0.000925954,1,0,0,0.946,rock_grid_rect_2,6,08,-1,-1,0.946,-0.184259245,-0.400925954,1,0,0,1.1984,Pegmatite_rect,6,1.198,1,1,0,1,0,1,,,,,,,,,,,,,
5ee0e5063f7f190b2b3f3b14,TCR,2024-06-25_11h40.04.009,LearnStrategy,2023.2.3,Win32,60.60606061,6,1,3,0.047222222,0.015740712,1,0,0,0.8628,rock_grid_rect_2,8,06,-1,-1,0.863,0.413888889,-0.417592621,1,0,0,2.9494,Pumice_rect,8,2.949,1,2,0,2,0,1,,,,,,,,,,,,,
5ee0e5063f7f190b2b3f3b14,TCR,2024-06-25_11h40.04.009,LearnStrategy,2023.2.3,Win32,60.60606061,6,1,4,-0.001851824,-0.000925954,1,0,0,1.1471,rock_grid_rect_2,1,02,-1,-1,1.147,-0.074074046,-0.386111111,1,0,0,8.8102,Pegmatite_rect,6,8.81,0,3,0,3,0,1,,,,,,,,,,,,,
5ee0e5063f7f190b2b3f3b14,TCR,2024-06-25_11h40.04.009,LearnStrategy,2023.2.3,Win32,60.60606061,6,1,5,0.009259288,-0.007407422,1,0,0,1.6903,rock_grid_rect_2,1,11,-1,-1,1.69,-0.340740712,-0.242592621,1,0,0,1.6904,Andesite_rect,1,1.69,1,4,0,4,0,1,,,,,,,,,,,,,
5ee0e5063f7f190b2b3f3b14,TCR,2024-06-25_11h40.04.009,LearnStrategy,2023.2.3,Win32,60.60606061,6,1,6,-0.074074046,-0.012037065,1,0,0,1.1458,rock_grid_rect_2,6,07,-1,-1,1.146,-0.121296268,-0.38148151,1,0,0,18.2709,Pegmatite_rect,6,18.271,1,5,0,5,0,1,,,,,,,,,,,,,
5ee0e5063f7f190b2b3f3b14,TCR,2024-06-25_11h40.04.009,LearnStrategy,2023.2.3,Win32,60.60606061,6,1,7,0.124074131,-0.013888889,1,0,0,0.9287,rock_grid_rect_2,4,15,-1,-1,0.929,0.374074131,-0.248148176,1,0,0,3.0374,Gabbro_rect,4,3.037,1,6,0,6,0,1,,,,,,,,,,,,,
5ee0e5063f7f190b2b3f3b14,TCR,2024-06-25_11h40.04.009,LearnStrategy,2023.2.3,Win32,60.60606061,6,1,8,0.155555556,-0.008333333,1,0,0,1.2778,rock_grid_rect_2,6,15,-1,-1,1.278,-0.103703647,-0.408333333,1,0,0,1.5151,Pegmatite_rect,6,1.515,1,7,0,7,0,1,,,,,,,,,,,,,
5ee0e5063f7f190b2b3f3b14,TCR,2024-06-25_11h40.04.009,LearnStrategy,2023.2.3,Win32,60.60606061,6,1,9,0.061111111,-0.00648151,1,0,0,1.2147,rock_grid_rect_2,7,12,-1,-1,1.215,0.129629686,-0.389814843,1,0,0,3.978,Peridotite_rect,7,3.978,1,8,0,8,0,1,,,,,,,,,,,,,
5ee0e5063f7f190b2b3f3b14,TCR,2024-06-25_11h40.04.009,LearnStrategy,2023.2.3,Win32,60.60606061,6,1,10,0.003703732,-0.001851866,1,0,0,1.1433,rock_grid_rect_2,7,08,-1,-1,1.143,0.115740797,-0.412037065,1,0,0,2.8533,Peridotite_rect,7,2.853,1,9,0,9,0,1,,,,,,,,,,,,,
5ee0e5063f7f190b2b3f3b14,TCR,2024-06-25_11h40.04.009,LearnStrategy,2023.2.3,Win32,60.60606061,6,1,11,0.010185242,-0.005555556,1,0,0,1.2109,rock_grid_rect_2,3,12,-1,-1,1.211,0.112037065,-0.238888889,1,0,0,5.2496,Diorite_rect,3,5.25,1,10,0,10,0,1,,,,,,,,,,,,,
5ee0e5063f7f190b2b3f3b14,TCR,2024-06-25_11h40.04.009,LearnStrategy,2023.2.3,Win32,60.60606061,6,1,12,-0.05,-0.002777778,1,0,0,1.0824,rock_grid_rect_2,2,04,-1,-1,1.082,-0.084259203,-0.262037065,1,0,0,2.0144,Basalt_rect,2,2.014,1,11,0,11,0,1,,,,,,,,,,,,,
5ee0e5063f7f190b2b3f3b14,TCR,2024-06-25_11h40.04.009,LearnStrategy,2023.2.3,Win32,60.60606061,6,1,13,0.002777778,0.000925912,1,0,0,1.4782,rock_grid_rect_2,8,03,-1,-1,1.478,0.361111111,-0.386111111,1,0,0,3.5579,Pumice_rect,8,3.558,1,12,0,12,0,1,,,,,,,,,,,,,
5ee0e5063f7f190b2b3f3b14,TCR,2024-06-25_11h40.04.009,LearnStrategy,2023.2.3,Win32,60.60606061,6,1,14,-0.098148092,-0.013888889,1,0,0,1.3776,rock_grid_rect_2,2,04,-1,-1,1.378,-0.086111111,-0.237037065,1,0,0,1.4847,Basalt_rect,2,1.485,1,13,0,13,0,1,,,,,,,,,,,,,
5ee0e5063f7f190b2b3f3b14,TCR,2024-06-25_11h40.04.009,LearnStrategy,2023.2.3,Win32,60.60606061,6,1,15,-0.012962935,-0.002777778,1,0,0,1.1294,rock_grid_rect_2,4,15,-1,-1,1.129,0.371296353,-0.260185242,1,0,0,3.8503,Gabbro_rect,4,3.85,1,14,0,14,0,1,,,,,,,,,,,,,
5ee0e5063f7f190b2b3f3b14,TCR,2024-06-25_11h40.04.009,LearnStrategy,2023.2.3,Win32,60.60606061,6,1,16,-0.054629601,-0.013888889,1,0,0,0.9936,rock_grid_rect_2,1,16,-1,-1,0.994,-0.355555556,-0.238888889,1,0,0,1.7307,Andesite_rect,1,1.731,1,15,0,15,0,1,,,,,,,,,,,,,
5ee0e5063f7f190b2b3f3b14,TCR,2024-06-25_11h40.04.009,LearnStrategy,2023.2.3,Win32,60.60606061,6,2,1,,,,,,,,3,16,,,,,,,,,,,3,3.264,1,,,,,,0.120370399,-0.25,1,0,0,3.2642,Diorite_rect,0,0,0,0,1,
5ee0e5063f7f190b2b3f3b14,TCR,2024-06-25_11h40.04.009,LearnStrategy,2023.2.3,Win32,60.60606061,6,2,2,,,,,,,,8,10,,,,,,,,,,,8,2.936,1,,,,,,0.33148151,-0.398148176,1,0,0,2.9358,Pumice_rect,1,0,1,0,1,
5ee0e5063f7f190b2b3f3b14,TCR,2024-06-25_11h40.04.009,LearnStrategy,2023.2.3,Win32,60.60606061,6,2,3,,,,,,,,7,10,,,,,,,,,,,7,1.704,1,,,,,,0.137963019,-0.411111111,1,0,0,1.704,Peridotite_rect,2,0,2,0,1,
5ee0e5063f7f190b2b3f3b14,TCR,2024-06-25_11h40.04.009,LearnStrategy,2023.2.3,Win32,60.60606061,6,2,4,,,,,,,,7,07,,,,,,,,,,,7,2.674,1,,,,,,0.094444444,-0.411111111,1,0,0,2.674,Peridotite_rect,3,0,3,0,1,
5ee0e5063f7f190b2b3f3b14,TCR,2024-06-25_11h40.04.009,LearnStrategy,2023.2.3,Win32,60.60606061,6,2,5,,,,,,,,4,11,,,,,,,,,,,4,6.212,1,,,,,,0.35648151,-0.234259288,1,0,0,6.2116,Gabbro_rect,4,0,4,0,1,
5ee0e5063f7f190b2b3f3b14,TCR,2024-06-25_11h40.04.009,LearnStrategy,2023.2.3,Win32,60.60606061,6,2,6,,,,,,,,5,14,,,,,,,,,,,5,1.477,1,,,,,,-0.366666667,-0.393518575,1,0,0,1.4767,Obsidian_rect,5,0,5,0,1,
5ee0e5063f7f190b2b3f3b14,TCR,2024-06-25_11h40.04.009,LearnStrategy,2023.2.3,Win32,60.60606061,6,2,7,,,,,,,,1,09,,,,,,,,,,,1,4.859,1,,,,,,-0.364814801,-0.239814843,1,0,0,4.8585,Andesite_rect,6,0,6,0,1,
5ee0e5063f7f190b2b3f3b14,TCR,2024-06-25_11h40.04.009,LearnStrategy,2023.2.3,Win32,60.60606061,6,2,8,,,,,,,,1,05,,,,,,,,,,,7,2.891,0,,,,,,0.111111111,-0.382407464,1,0,0,2.8915,Peridotite_rect,7,0,7,0,1,
5ee0e5063f7f190b2b3f3b14,TCR,2024-06-25_11h40.04.009,LearnStrategy,2023.2.3,Win32,60.60606061,6,2,9,,,,,,,,6,03,,,,,,,,,,,6,5.025,1,,,,,,-0.092592536,-0.420370399,1,0,0,5.0252,Pegmatite_rect,8,0,8,0,1,
5ee0e5063f7f190b2b3f3b14,TCR,2024-06-25_11h40.04.009,LearnStrategy,2023.2.3,Win32,60.60606061,6,2,10,,,,,,,,4,05,,,,,,,,,,,4,3.591,1,,,,,,0.445370399,-0.262963019,1,0,0,3.5915,Gabbro_rect,9,0,9,0,1,
5ee0e5063f7f190b2b3f3b14,TCR,2024-06-25_11h40.04.009,LearnStrategy,2023.2.3,Win32,60.60606061,6,2,11,,,,,,,,3,06,,,,,,,,,,,3,11.285,1,,,,,,0.101851908,-0.261111111,1,0,0,11.2845,Diorite_rect,10,0,10,0,1,
5ee0e5063f7f190b2b3f3b14,TCR,2024-06-25_11h40.04.009,LearnStrategy,2023.2.3,Win32,60.60606061,6,2,12,,,,,,,,8,05,,,,,,,,,,,8,2.491,1,,,,,,0.337037065,-0.408333333,1,0,0,2.4909,Pumice_rect,11,0,11,0,1,
5ee0e5063f7f190b2b3f3b14,TCR,2024-06-25_11h40.04.009,LearnStrategy,2023.2.3,Win32,60.60606061,6,2,13,,,,,,,,2,08,,,,,,,,,,,2,1.973,1,,,,,,-0.099074046,-0.243518575,1,0,0,1.9731,Basalt_rect,12,0,12,0,1,
5ee0e5063f7f190b2b3f3b14,TCR,2024-06-25_11h40.04.009,LearnStrategy,2023.2.3,Win32,60.60606061,6,2,14,,,,,,,,5,08,,,,,,,,,,,5,1.2,1,,,,,,-0.341666667,-0.394444444,1,0,0,1.2001,Obsidian_rect,13,0,13,0,1,
5ee0e5063f7f190b2b3f3b14,TCR,2024-06-25_11h40.04.009,LearnStrategy,2023.2.3,Win32,60.60606061,6,2,15,,,,,,,,2,10,,,,,,,,,,,2,1.66,1,,,,,,-0.051851824,-0.250925954,1,0,0,1.66,Basalt_rect,14,0,14,0,1,
5ee0e5063f7f190b2b3f3b14,TCR,2024-06-25_11h40.04.009,LearnStrategy,2023.2.3,Win32,60.60606061,6,2,16,,,,,,,,6,06,,,,,,,,,,,6,5.38,1,,,,,,-0.053703647,-0.391666667,1,0,0,5.3798,Pegmatite_rect,15,0,15,0,1,
5ee0e5063f7f190b2b3f3b14,TCR,2024-06-25_11h40.04.009,LearnStrategy,2023.2.3,Win32,60.60606061,7,1,1,0.003703732,-0.010185199,1,0,0,1.2902,rock_grid_rect_2,1,03,-1,-1,1.29,-0.409259245,-0.239814843,1,0,0,1.7747,Andesite_rect,1,1.775,1,0,0,0,0,1,,,,,,,,,,,,,
5ee0e5063f7f190b2b3f3b14,TCR,2024-06-25_11h40.04.009,LearnStrategy,2023.2.3,Win32,60.60606061,7,1,2,0.000925954,-0.014814843,1,0,0,0.9569,rock_grid_rect_2,4,08,-1,-1,0.957,0.375925954,-0.237963019,1,0,0,2.1719,Gabbro_rect,4,2.172,1,1,0,1,0,1,,,,,,,,,,,,,
5ee0e5063f7f190b2b3f3b14,TCR,2024-06-25_11h40.04.009,LearnStrategy,2023.2.3,Win32,60.60606061,7,1,3,0.025925954,-0.018518533,1,0,0,1.0106,rock_grid_rect_2,1,11,-1,-1,1.011,-0.392592578,-0.240740797,1,0,0,1.4504,Andesite_rect,1,1.45,1,2,0,2,0,1,,,,,,,,,,,,,
5ee0e5063f7f190b2b3f3b14,TCR,2024-06-25_11h40.04.009,LearnStrategy,2023.2.3,Win32,60.60606061,7,1,4,-0.010185157,-0.02129631,1,0,0,0.9727,rock_grid_rect_2,3,12,-1,-1,0.973,0.13148151,-0.255555556,1,0,0,1.8264,Diorite_rect,3,1.826,1,3,0,3,0,1,,,,,,,,,,,,,
5ee0e5063f7f190b2b3f3b14,TCR,2024-06-25_11h40.04.009,LearnStrategy,2023.2.3,Win32,60.60606061,7,1,5,0.030555556,-0.018518533,1,0,0,0.8966,rock_grid_rect_2,8,16,-1,-1,0.897,0.359259288,-0.387963019,1,0,0,2.1653,Pumice_rect,8,2.165,1,4,0,4,0,1,,,,,,,,,,,,,
5ee0e5063f7f190b2b3f3b14,TCR,2024-06-25_11h40.04.009,LearnStrategy,2023.2.3,Win32,60.60606061,7,1,6,-0.025925869,-0.014814843,1,0,0,1.0935,rock_grid_rect_2,2,05,-1,-1,1.093,-0.1,-0.260185242,1,0,0,1.1511,Basalt_rect,2,1.151,1,5,0,5,0,1,,,,,,,,,,,,,
5ee0e5063f7f190b2b3f3b14,TCR,2024-06-25_11h40.04.009,LearnStrategy,2023.2.3,Win32,60.60606061,7,1,7,0.013888889,-0.002777778,1,0,0,1.1624,rock_grid_rect_2,8,03,-1,-1,1.162,0.365740797,-0.407407464,1,0,0,2.4778,Pumice_rect,8,2.478,1,6,0,6,0,1,,,,,,,,,,,,,
5ee0e5063f7f190b2b3f3b14,TCR,2024-06-25_11h40.04.009,LearnStrategy,2023.2.3,Win32,60.60606061,7,1,8,-0.020370314,-0.003703732,1,0,0,0.8332,rock_grid_rect_2,7,12,-1,-1,0.833,0.109259288,-0.4,1,0,0,2.0291,Peridotite_rect,7,2.029,1,7,0,7,0,1,,,,,,,,,,,,,
5ee0e5063f7f190b2b3f3b14,TCR,2024-06-25_11h40.04.009,LearnStrategy,2023.2.3,Win32,60.60606061,7,1,9,-0.024074046,-0.004629644,1,0,0,0.9444,rock_grid_rect_2,1,02,-1,-1,0.944,-0.337037023,-0.229629686,1,0,0,10.7793,Andesite_rect,1,10.779,1,8,0,8,0,1,,,,,,,,,,,,,
5ee0e5063f7f190b2b3f3b14,TCR,2024-06-25_11h40.04.009,LearnStrategy,2023.2.3,Win32,60.60606061,7,1,10,0.020370399,0.012037023,1,0,0,0.9107,rock_grid_rect_2,2,11,-1,-1,0.911,-0.062962935,-0.252777778,1,0,0,7.1319,Basalt_rect,2,7.132,1,9,0,9,0,1,,,,,,,,,,,,,
5ee0e5063f7f190b2b3f3b14,TCR,2024-06-25_11h40.04.009,LearnStrategy,2023.2.3,Win32,60.60606061,7,1,11,0.017592621,-0.009259288,1,0,0,1.0112,rock_grid_rect_2,4,13,-1,-1,1.011,0.367592621,-0.254629686,1,0,0,3.6801,Gabbro_rect,4,3.68,1,10,0,10,0,1,,,,,,,,,,,,,
5ee0e5063f7f190b2b3f3b14,TCR,2024-06-25_11h40.04.009,LearnStrategy,2023.2.3,Win32,60.60606061,7,1,12,0.019444444,-0.012037065,1,0,0,1.4269,rock_grid_rect_2,5,10,-1,-1,1.427,-0.341666667,-0.410185242,1,0,0,1.1691,Obsidian_rect,5,1.169,1,11,0,11,0,1,,,,,,,,,,,,,
5ee0e5063f7f190b2b3f3b14,TCR,2024-06-25_11h40.04.009,LearnStrategy,2023.2.3,Win32,60.60606061,7,1,13,-0.000925869,-0.004629644,1,0,0,0.8298,rock_grid_rect_2,7,16,-1,-1,0.83,0.092592621,-0.390740797,1,0,0,1.8102,Peridotite_rect,7,1.81,1,12,0,12,0,1,,,,,,,,,,,,,
5ee0e5063f7f190b2b3f3b14,TCR,2024-06-25_11h40.04.009,LearnStrategy,2023.2.3,Win32,60.60606061,7,1,14,-0.021296268,-0.012962977,1,0,0,0.8496,rock_grid_rect_2,6,12,-1,-1,0.85,-0.079629601,-0.38148151,1,0,0,1.3063,Pegmatite_rect,6,1.306,1,13,0,13,0,1,,,,,,,,,,,,,
5ee0e5063f7f190b2b3f3b14,TCR,2024-06-25_11h40.04.009,LearnStrategy,2023.2.3,Win32,60.60606061,7,1,15,0.027777778,0.004629601,1,0,0,1.0127,rock_grid_rect_2,6,07,-1,-1,1.013,-0.092592536,-0.403703732,1,0,0,2.4504,Pegmatite_rect,6,2.45,1,14,0,14,0,1,,,,,,,,,,,,,
5ee0e5063f7f190b2b3f3b14,TCR,2024-06-25_11h40.04.009,LearnStrategy,2023.2.3,Win32,60.60606061,7,1,16,0.020370399,0.002777778,1,0,0,0.8779,rock_grid_rect_2,1,03,-1,-1,0.878,-0.32870369,-0.261111111,1,0,0,1.4456,Andesite_rect,1,1.446,1,15,0,15,0,1,,,,,,,,,,,,,
5ee0e5063f7f190b2b3f3b14,TCR,2024-06-25_11h40.04.009,LearnStrategy,2023.2.3,Win32,60.60606061,7,2,1,,,,,,,,4,16,,,,,,,,,,,4,5.689,1,,,,,,0.394444444,-0.271296353,1,0,0,5.6889,Gabbro_rect,0,0,0,0,1,
5ee0e5063f7f190b2b3f3b14,TCR,2024-06-25_11h40.04.009,LearnStrategy,2023.2.3,Win32,60.60606061,7,2,2,,,,,,,,6,06,,,,,,,,,,,6,2.955,1,,,,,,-0.115740712,-0.405555556,1,0,0,2.9546,Pegmatite_rect,1,0,1,0,1,
5ee0e5063f7f190b2b3f3b14,TCR,2024-06-25_11h40.04.009,LearnStrategy,2023.2.3,Win32,60.60606061,7,2,3,,,,,,,,7,06,,,,,,,,,,,7,2.046,1,,,,,,0.119444444,-0.390740797,1,0,0,2.0461,Peridotite_rect,2,0,2,0,1,
5ee0e5063f7f190b2b3f3b14,TCR,2024-06-25_11h40.04.009,LearnStrategy,2023.2.3,Win32,60.60606061,7,2,4,,,,,,,,7,07,,,,,,,,,,,7,2.544,1,,,,,,0.103703732,-0.387037065,1,0,0,2.544,Peridotite_rect,3,0,3,0,1,
5ee0e5063f7f190b2b3f3b14,TCR,2024-06-25_11h40.04.009,LearnStrategy,2023.2.3,Win32,60.60606061,7,2,5,,,,,,,,1,09,,,,,,,,,,,1,1.873,1,,,,,,-0.323148134,-0.260185242,1,0,0,1.8728,Andesite_rect,4,0,4,0,1,
5ee0e5063f7f190b2b3f3b14,TCR,2024-06-25_11h40.04.009,LearnStrategy,2023.2.3,Win32,60.60606061,7,2,6,,,,,,,,8,05,,,,,,,,,,,8,5.271,1,,,,,,0.380555556,-0.403703732,1,0,0,5.2707,Pumice_rect,5,0,5,0,1,
5ee0e5063f7f190b2b3f3b14,TCR,2024-06-25_11h40.04.009,LearnStrategy,2023.2.3,Win32,60.60606061,7,2,7,,,,,,,,8,10,,,,,,,,,,,8,2.126,1,,,,,,0.386111111,-0.419444444,1,0,0,2.1262,Pumice_rect,6,0,6,0,1,
5ee0e5063f7f190b2b3f3b14,TCR,2024-06-25_11h40.04.009,LearnStrategy,2023.2.3,Win32,60.60606061,7,2,8,,,,,,,,3,10,,,,,,,,,,,3,2.652,1,,,,,,0.101851908,-0.250925954,1,0,0,2.6524,Diorite_rect,7,0,7,0,1,
5ee0e5063f7f190b2b3f3b14,TCR,2024-06-25_11h40.04.009,LearnStrategy,2023.2.3,Win32,60.60606061,7,2,9,,,,,,,,1,01,,,,,,,,,,,1,2.926,1,,,,,,-0.373148134,-0.25648151,1,0,0,2.9257,Andesite_rect,8,0,8,0,1,
5ee0e5063f7f190b2b3f3b14,TCR,2024-06-25_11h40.04.009,LearnStrategy,2023.2.3,Win32,60.60606061,7,2,10,,,,,,,,6,13,,,,,,,,,,,6,4.058,1,,,,,,-0.078703647,-0.393518575,1,0,0,4.058,Pegmatite_rect,9,0,9,0,1,
5ee0e5063f7f190b2b3f3b14,TCR,2024-06-25_11h40.04.009,LearnStrategy,2023.2.3,Win32,60.60606061,7,2,11,,,,,,,,4,14,,,,,,,,,,,4,3.221,1,,,,,,0.371296353,-0.243518575,1,0,0,3.2209,Gabbro_rect,10,0,10,0,1,
5ee0e5063f7f190b2b3f3b14,TCR,2024-06-25_11h40.04.009,LearnStrategy,2023.2.3,Win32,60.60606061,7,2,12,,,,,,,,2,06,,,,,,,,,,,2,1.855,1,,,,,,-0.128703647,-0.249074131,1,0,0,1.8554,Basalt_rect,11,0,11,0,1,
5ee0e5063f7f190b2b3f3b14,TCR,2024-06-25_11h40.04.009,LearnStrategy,2023.2.3,Win32,60.60606061,7,2,13,,,,,,,,5,02,,,,,,,,,,,5,1.346,1,,,,,,-0.329629601,-0.398148176,1,0,0,1.3464,Obsidian_rect,12,0,12,0,1,
5ee0e5063f7f190b2b3f3b14,TCR,2024-06-25_11h40.04.009,LearnStrategy,2023.2.3,Win32,60.60606061,7,2,14,,,,,,,,2,02,,,,,,,,,,,2,2.577,1,,,,,,-0.148148092,-0.245370399,1,0,0,2.5768,Basalt_rect,13,0,13,0,1,
5ee0e5063f7f190b2b3f3b14,TCR,2024-06-25_11h40.04.009,LearnStrategy,2023.2.3,Win32,60.60606061,7,2,15,,,,,,,,3,14,,,,,,,,,,,3,1.973,1,,,,,,0.132407464,-0.264814843,1,0,0,1.973,Diorite_rect,14,0,14,0,1,
5ee0e5063f7f190b2b3f3b14,TCR,2024-06-25_11h40.04.009,LearnStrategy,2023.2.3,Win32,60.60606061,7,2,16,,,,,,,,5,08,,,,,,,,,,,5,1.485,1,,,,,,-0.337962935,-0.383333333,1,0,0,1.485,Obsidian_rect,15,0,15,0,1,
5ee0e5063f7f190b2b3f3b14,TCR,2024-06-25_11h40.04.009,LearnStrategy,2023.2.3,Win32,60.60606061,8,1,1,0.073148176,0.010185157,1,0,0,0.8923,rock_grid_rect_2,5,16,-1,-1,0.892,-0.34351849,-0.396296353,1,0,0,1.2037,Obsidian_rect,5,1.204,1,0,0,0,0,1,,,,,,,,,,,,,
5ee0e5063f7f190b2b3f3b14,TCR,2024-06-25_11h40.04.009,LearnStrategy,2023.2.3,Win32,60.60606061,8,1,2,0.008333333,-0.009259288,1,0,0,0.8064,rock_grid_rect_2,4,09,-1,-1,0.806,0.450925954,-0.244444444,1,0,0,6.8856,Gabbro_rect,4,6.886,1,1,0,1,0,1,,,,,,,,,,,,,
5ee0e5063f7f190b2b3f3b14,TCR,2024-06-25_11h40.04.009,LearnStrategy,2023.2.3,Win32,60.60606061,8,1,3,0.089814843,-0.010185199,1,0,0,1.1439,rock_grid_rect_2,2,11,-1,-1,1.144,-0.142592536,-0.248148176,1,0,0,2.3149,Basalt_rect,2,2.315,1,2,0,2,0,1,,,,,,,,,,,,,
5ee0e5063f7f190b2b3f3b14,TCR,2024-06-25_11h40.04.009,LearnStrategy,2023.2.3,Win32,60.60606061,8,1,4,0.022222222,0.001851824,1,0,0,0.8777,rock_grid_rect_2,1,07,-1,-1,0.878,-0.387962935,-0.255555556,1,0,0,2.5479,Andesite_rect,1,2.548,1,3,0,3,0,1,,,,,,,,,,,,,
5ee0e5063f7f190b2b3f3b14,TCR,2024-06-25_11h40.04.009,LearnStrategy,2023.2.3,Win32,60.60606061,8,1,5,0.037963019,0.000925912,1,0,0,0.8275,rock_grid_rect_2,6,16,-1,-1,0.828,-0.079629601,-0.4,1,0,0,1.5169,Pegmatite_rect,6,1.517,1,4,0,4,0,1,,,,,,,,,,,,,
5ee0e5063f7f190b2b3f3b14,TCR,2024-06-25_11h40.04.009,LearnStrategy,2023.2.3,Win32,60.60606061,8,1,6,0.00648151,-0.00648151,1,0,0,1.0454,rock_grid_rect_2,7,15,-1,-1,1.045,0.180555556,-0.419444444,1,0,0,1.5832,Peridotite_rect,7,1.583,1,5,0,5,0,1,,,,,,,,,,,,,
5ee0e5063f7f190b2b3f3b14,TCR,2024-06-25_11h40.04.009,LearnStrategy,2023.2.3,Win32,60.60606061,8,1,7,0.035185242,-0.013888889,1,0,0,0.9792,rock_grid_rect_2,2,12,-1,-1,0.979,-0.105555556,-0.25648151,1,0,0,3.647,Basalt_rect,2,3.647,1,6,0,6,0,1,,,,,,,,,,,,,
5ee0e5063f7f190b2b3f3b14,TCR,2024-06-25_11h40.04.009,LearnStrategy,2023.2.3,Win32,60.60606061,8,1,8,0.037037065,-0.014814843,1,0,0,0.96,rock_grid_rect_2,4,08,-1,-1,0.96,0.354629686,-0.244444444,1,0,0,1.6237,Gabbro_rect,4,1.624,1,7,0,7,0,1,,,,,,,,,,,,,
5ee0e5063f7f190b2b3f3b14,TCR,2024-06-25_11h40.04.009,LearnStrategy,2023.2.3,Win32,60.60606061,8,1,9,0.019444444,-0.009259288,1,0,0,0.9129,rock_grid_rect_2,3,09,-1,-1,0.913,0.098148176,-0.239814843,1,0,0,1.7815,Diorite_rect,3,1.782,1,8,0,8,0,1,,,,,,,,,,,,,
5ee0e5063f7f190b2b3f3b14,TCR,2024-06-25_11h40.04.009,LearnStrategy,2023.2.3,Win32,60.60606061,8,1,10,0.023148176,-0.012962977,1,0,0,0.9121,rock_grid_rect_2,1,02,-1,-1,0.912,-0.322222222,-0.233333333,1,0,0,6.3739,Andesite_rect,1,6.374,1,9,0,9,0,1,,,,,,,,,,,,,
5ee0e5063f7f190b2b3f3b14,TCR,2024-06-25_11h40.04.009,LearnStrategy,2023.2.3,Win32,60.60606061,8,1,11,0.074074131,0.005555556,1,0,0,0.7774,rock_grid_rect_2,7,15,-1,-1,0.777,0.087963019,-0.379629686,1,0,0,1.4004,Peridotite_rect,7,1.4,1,10,0,10,0,1,,,,,,,,,,,,,
5ee0e5063f7f190b2b3f3b14,TCR,2024-06-25_11h40.04.009,LearnStrategy,2023.2.3,Win32,60.60606061,8,1,12,0.029629686,-0.010185199,1,0,0,0.8962,rock_grid_rect_2,1,16,-1,-1,0.896,-0.35370369,-0.260185242,1,0,0,9.4883,Andesite_rect,1,9.488,1,11,0,11,0,1,,,,,,,,,,,,,
5ee0e5063f7f190b2b3f3b14,TCR,2024-06-25_11h40.04.009,LearnStrategy,2023.2.3,Win32,60.60606061,8,1,13,0.060185242,-0.001851866,1,0,0,1.1704,rock_grid_rect_2,6,07,-1,-1,1.17,-0.109259203,-0.398148176,1,0,0,1.6193,Pegmatite_rect,6,1.619,1,12,0,12,0,1,,,,,,,,,,,,,
5ee0e5063f7f190b2b3f3b14,TCR,2024-06-25_11h40.04.009,LearnStrategy,2023.2.3,Win32,60.60606061,8,1,14,0.021296353,0.002777778,1,0,0,0.7791,rock_grid_rect_2,8,06,-1,-1,0.779,0.320370399,-0.389814843,1,0,0,1.7452,Pumice_rect,8,1.745,1,13,0,13,0,1,,,,,,,,,,,,,
5ee0e5063f7f190b2b3f3b14,TCR,2024-06-25_11h40.04.009,LearnStrategy,2023.2.3,Win32,60.60606061,8,1,15,0.03148151,-0.003703732,1,0,0,0.8903,rock_grid_rect_2,8,16,-1,-1,0.89,0.376851908,-0.4,1,0,0,1.7368,Pumice_rect,8,1.737,1,14,0,14,0,1,,,,,,,,,,,,,
5ee0e5063f7f190b2b3f3b14,TCR,2024-06-25_11h40.04.009,LearnStrategy,2023.2.3,Win32,60.60606061,8,1,16,0.018518575,0.005555556,1,0,0,0.9619,rock_grid_rect_2,1,11,-1,-1,0.962,-0.404629601,-0.237963019,1,0,0,1.6233,Andesite_rect,1,1.623,1,15,0,15,0,1,,,,,,,,,,,,,
5ee0e5063f7f190b2b3f3b14,TCR,2024-06-25_11h40.04.009,LearnStrategy,2023.2.3,Win32,60.60606061,8,2,1,,,,,,,,7,13,,,,,,,,,,,7,1.399,1,,,,,,0.110185242,-0.392592621,1,0,0,1.3994,Peridotite_rect,0,0,0,0,1,
5ee0e5063f7f190b2b3f3b14,TCR,2024-06-25_11h40.04.009,LearnStrategy,2023.2.3,Win32,60.60606061,8,2,2,,,,,,,,3,16,,,,,,,,,,,3,2.609,1,,,,,,0.109259288,-0.239814843,1,0,0,2.6091,Diorite_rect,1,0,1,0,1,
5ee0e5063f7f190b2b3f3b14,TCR,2024-06-25_11h40.04.009,LearnStrategy,2023.2.3,Win32,60.60606061,8,2,3,,,,,,,,3,06,,,,,,,,,,,3,2.629,1,,,,,,0.10648151,-0.254629686,1,0,0,2.6294,Diorite_rect,2,0,2,0,1,
5ee0e5063f7f190b2b3f3b14,TCR,2024-06-25_11h40.04.009,LearnStrategy,2023.2.3,Win32,60.60606061,8,2,4,,,,,,,,1,14,,,,,,,,,,,1,12.915,1,,,,,,-0.325925912,-0.255555556,1,0,0,12.9154,Andesite_rect,3,0,3,0,1,
5ee0e5063f7f190b2b3f3b14,TCR,2024-06-25_11h40.04.009,LearnStrategy,2023.2.3,Win32,60.60606061,8,2,5,,,,,,,,6,05,,,,,,,,,,,6,2.61,1,,,,,,-0.076851824,-0.410185242,1,0,0,2.6101,Pegmatite_rect,4,0,4,0,1,
5ee0e5063f7f190b2b3f3b14,TCR,2024-06-25_11h40.04.009,LearnStrategy,2023.2.3,Win32,60.60606061,8,2,6,,,,,,,,7,10,,,,,,,,,,,7,1.428,1,,,,,,0.083333333,-0.414814843,1,0,0,1.4276,Peridotite_rect,5,0,5,0,1,
5ee0e5063f7f190b2b3f3b14,TCR,2024-06-25_11h40.04.009,LearnStrategy,2023.2.3,Win32,60.60606061,8,2,7,,,,,,,,6,11,,,,,,,,,,,6,1.783,1,,,,,,-0.073148092,-0.400925954,1,0,0,1.7829,Pegmatite_rect,6,0,6,0,1,
5ee0e5063f7f190b2b3f3b14,TCR,2024-06-25_11h40.04.009,LearnStrategy,2023.2.3,Win32,60.60606061,8,2,8,,,,,,,,5,14,,,,,,,,,,,5,1.363,1,,,,,,-0.338888889,-0.4,1,0,0,1.363,Obsidian_rect,7,0,7,0,1,
5ee0e5063f7f190b2b3f3b14,TCR,2024-06-25_11h40.04.009,LearnStrategy,2023.2.3,Win32,60.60606061,8,2,9,,,,,,,,1,05,,,,,,,,,,,7,1.741,0,,,,,,0.100925954,-0.394444444,1,0,0,1.7411,Peridotite_rect,8,0,8,0,1,
5ee0e5063f7f190b2b3f3b14,TCR,2024-06-25_11h40.04.009,LearnStrategy,2023.2.3,Win32,60.60606061,8,2,10,,,,,,,,5,07,,,,,,,,,,,5,2.937,1,,,,,,-0.352777778,-0.392592621,1,0,0,2.937,Obsidian_rect,9,0,9,0,1,
5ee0e5063f7f190b2b3f3b14,TCR,2024-06-25_11h40.04.009,LearnStrategy,2023.2.3,Win32,60.60606061,8,2,11,,,,,,,,4,05,,,,,,,,,,,4,5.828,1,,,,,,0.379629686,-0.242592621,1,0,0,5.8285,Gabbro_rect,10,0,10,0,1,
5ee0e5063f7f190b2b3f3b14,TCR,2024-06-25_11h40.04.009,LearnStrategy,2023.2.3,Win32,60.60606061,8,2,12,,,,,,,,4,01,,,,,,,,,,,4,1.91,1,,,,,,0.364814843,-0.258333333,1,0,0,1.9099,Gabbro_rect,11,0,11,0,1,
5ee0e5063f7f190b2b3f3b14,TCR,2024-06-25_11h40.04.009,LearnStrategy,2023.2.3,Win32,60.60606061,8,2,13,,,,,,,,8,02,,,,,,,,,,,8,1.691,1,,,,,,0.35648151,-0.409259288,1,0,0,1.6914,Pumice_rect,12,0,12,0,1,
5ee0e5063f7f190b2b3f3b14,TCR,2024-06-25_11h40.04.009,LearnStrategy,2023.2.3,Win32,60.60606061,8,2,14,,,,,,,,8,08,,,,,,,,,,,2,5.039,0,,,,,,-0.100925869,-0.238888889,1,0,0,5.0387,Basalt_rect,13,0,13,0,1,
5ee0e5063f7f190b2b3f3b14,TCR,2024-06-25_11h40.04.009,LearnStrategy,2023.2.3,Win32,60.60606061,8,2,15,,,,,,,,2,16,,,,,,,,,,,2,3.591,1,,,,,,-0.122222222,-0.25,1,0,0,3.5912,Basalt_rect,14,0,14,0,1,
5ee0e5063f7f190b2b3f3b14,TCR,2024-06-25_11h40.04.009,LearnStrategy,2023.2.3,Win32,60.60606061,8,2,16,,,,,,,,2,01,,,,,,,,,,,2,1.695,1,,,,,,-0.105555556,-0.245370399,1,0,0,1.6945,Basalt_rect,15,0,15,0,1,
5ee0e5063f7f190b2b3f3b14,TCR,2024-06-25_11h40.04.009,LearnStrategy,2023.2.3,Win32,60.60606061,9,1,1,0.03148151,-0.012037065,1,0,0,1.6062,rock_grid_rect_2,1,07,-1,-1,1.606,-0.402777778,-0.237963019,1,0,0,3.1701,Andesite_rect,1,3.17,1,0,0,0,0,1,,,,,,,,,,,,,
5ee0e5063f7f190b2b3f3b14,TCR,2024-06-25_11h40.04.009,LearnStrategy,2023.2.3,Win32,60.60606061,9,1,2,0.036111111,-0.011111111,1,0,0,1.1105,rock_grid_rect_2,6,10,-1,-1,1.111,-0.087036981,-0.407407464,1,0,0,1.3817,Pegmatite_rect,6,1.382,1,1,0,1,0,1,,,,,,,,,,,,,
5ee0e5063f7f190b2b3f3b14,TCR,2024-06-25_11h40.04.009,LearnStrategy,2023.2.3,Win32,60.60606061,9,1,3,-0.014814758,-0.010185199,1,0,0,0.7987,rock_grid_rect_2,8,16,-1,-1,0.799,0.430555556,-0.411111111,1,0,0,2.2011,Pumice_rect,8,2.201,1,2,0,2,0,1,,,,,,,,,,,,,
5ee0e5063f7f190b2b3f3b14,TCR,2024-06-25_11h40.04.009,LearnStrategy,2023.2.3,Win32,60.60606061,9,1,4,0.00648151,0.012037023,1,0,0,1.1468,rock_grid_rect_2,3,15,-1,-1,1.147,0.160185242,-0.242592621,1,0,0,4.299,Diorite_rect,3,4.299,1,3,0,3,0,1,,,,,,,,,,,,,
5ee0e5063f7f190b2b3f3b14,TCR,2024-06-25_11h40.04.009,LearnStrategy,2023.2.3,Win32,60.60606061,9,1,5,-0.008333333,0.007407379,1,0,0,0.7273,rock_grid_rect_2,2,11,-1,-1,0.727,-0.159259203,-0.232407464,1,0,0,2.3184,Basalt_rect,2,2.318,1,4,0,4,0,1,,,,,,,,,,,,,
5ee0e5063f7f190b2b3f3b14,TCR,2024-06-25_11h40.04.009,LearnStrategy,2023.2.3,Win32,60.60606061,9,1,6,0.022222222,-0.022222222,1,0,0,1.3121,rock_grid_rect_2,8,04,-1,-1,1.312,0.386111111,-0.402777778,1,0,0,3.5328,Pumice_rect,8,3.533,1,5,0,5,0,1,,,,,,,,,,,,,
5ee0e5063f7f190b2b3f3b14,TCR,2024-06-25_11h40.04.009,LearnStrategy,2023.2.3,Win32,60.60606061,9,1,7,0.062963019,-0.024074088,1,0,0,0.944,rock_grid_rect_2,7,05,-1,-1,0.944,0.15648151,-0.413888889,1,0,0,1.7156,Peridotite_rect,7,1.716,1,6,0,6,0,1,,,,,,,,,,,,,
5ee0e5063f7f190b2b3f3b14,TCR,2024-06-25_11h40.04.009,LearnStrategy,2023.2.3,Win32,60.60606061,9,1,8,0.065740797,-0.001851866,1,0,0,0.7283,rock_grid_rect_2,1,02,-1,-1,0.728,-0.181481467,-0.400925954,1,0,0,8.5162,Pegmatite_rect,6,8.516,0,7,0,7,0,1,,,,,,,,,,,,,
5ee0e5063f7f190b2b3f3b14,TCR,2024-06-25_11h40.04.009,LearnStrategy,2023.2.3,Win32,60.60606061,9,1,9,0.024074131,0.007407379,1,0,0,1.1448,rock_grid_rect_2,2,14,-1,-1,1.145,0.371296353,-0.403703732,1,0,0,5.8913,Pumice_rect,8,5.891,0,8,0,8,0,1,,,,,,,,,,,,,
5ee0e5063f7f190b2b3f3b14,TCR,2024-06-25_11h40.04.009,LearnStrategy,2023.2.3,Win32,60.60606061,9,1,10,0.046296353,-0.003703732,1,0,0,1.2421,rock_grid_rect_2,8,03,-1,-1,1.242,0.354629686,-0.40648151,1,0,0,4.8609,Pumice_rect,8,4.861,1,9,0,9,0,1,,,,,,,,,,,,,
5ee0e5063f7f190b2b3f3b14,TCR,2024-06-25_11h40.04.009,LearnStrategy,2023.2.3,Win32,60.60606061,9,1,11,0.079629686,-0.005555556,1,0,0,1.4725,rock_grid_rect_2,4,13,-1,-1,1.473,0.363888889,-0.261111111,1,0,0,9.1296,Gabbro_rect,4,9.13,1,10,0,10,0,1,,,,,,,,,,,,,
5ee0e5063f7f190b2b3f3b14,TCR,2024-06-25_11h40.04.009,LearnStrategy,2023.2.3,Win32,60.60606061,9,1,12,-0.015740712,-0.009259288,1,0,0,1.6104,rock_grid_rect_2,6,12,-1,-1,1.61,-0.204629601,-0.412037065,1,0,0,1.4811,Pegmatite_rect,6,1.481,1,11,0,11,0,1,,,,,,,,,,,,,
5ee0e5063f7f190b2b3f3b14,TCR,2024-06-25_11h40.04.009,LearnStrategy,2023.2.3,Win32,60.60606061,9,1,13,-0.006481425,-0.004629644,1,0,0,0.9634,rock_grid_rect_2,5,04,-1,-1,0.963,-0.387962935,-0.407407464,1,0,0,1.2726,Obsidian_rect,5,1.273,1,12,0,12,0,1,,,,,,,,,,,,,
5ee0e5063f7f190b2b3f3b14,TCR,2024-06-25_11h40.04.009,LearnStrategy,2023.2.3,Win32,60.60606061,9,1,14,0.030555556,-0.015740755,1,0,0,1.1293,rock_grid_rect_2,1,07,-1,-1,1.129,-0.386111111,-0.261111111,1,0,0,3.5314,Andesite_rect,1,3.531,1,13,0,13,0,1,,,,,,,,,,,,,
5ee0e5063f7f190b2b3f3b14,TCR,2024-06-25_11h40.04.009,LearnStrategy,2023.2.3,Win32,60.60606061,9,1,15,0.037963019,0.001851824,1,0,0,0.9893,rock_grid_rect_2,1,06,-1,-1,0.989,-0.340740712,-0.241666667,1,0,0,2.0718,Andesite_rect,1,2.072,1,14,0,14,0,1,,,,,,,,,,,,,
5ee0e5063f7f190b2b3f3b14,TCR,2024-06-25_11h40.04.009,LearnStrategy,2023.2.3,Win32,60.60606061,9,1,16,0.015740797,-0.008333333,1,0,0,0.9618,rock_grid_rect_2,7,04,-1,-1,0.962,0.085185242,-0.399074131,1,0,0,1.8638,Peridotite_rect,7,1.864,1,15,0,15,0,1,,,,,,,,,,,,,
5ee0e5063f7f190b2b3f3b14,TCR,2024-06-25_11h40.04.009,LearnStrategy,2023.2.3,Win32,60.60606061,9,2,1,,,,,,,,6,03,,,,,,,,,,,6,1.83,1,,,,,,-0.100925869,-0.393518575,1,0,0,1.8297,Pegmatite_rect,0,0,0,0,1,
5ee0e5063f7f190b2b3f3b14,TCR,2024-06-25_11h40.04.009,LearnStrategy,2023.2.3,Win32,60.60606061,9,2,2,,,,,,,,2,08,,,,,,,,,,,2,1.827,1,,,,,,-0.06851849,-0.237963019,1,0,0,1.8273,Basalt_rect,1,0,1,0,1,
5ee0e5063f7f190b2b3f3b14,TCR,2024-06-25_11h40.04.009,LearnStrategy,2023.2.3,Win32,60.60606061,9,2,3,,,,,,,,1,10,,,,,,,,,,,4,7.221,0,,,,,,0.35,-0.230555556,1,0,0,7.2213,Gabbro_rect,2,0,2,0,1,
5ee0e5063f7f190b2b3f3b14,TCR,2024-06-25_11h40.04.009,LearnStrategy,2023.2.3,Win32,60.60606061,9,2,4,,,,,,,,8,14,,,,,,,,,,,8,3.212,1,,,,,,0.361111111,-0.403703732,1,0,0,3.2125,Pumice_rect,3,0,3,0,1,
5ee0e5063f7f190b2b3f3b14,TCR,2024-06-25_11h40.04.009,LearnStrategy,2023.2.3,Win32,60.60606061,9,2,5,,,,,,,,7,14,,,,,,,,,,,7,4.875,1,,,,,,0.129629686,-0.389814843,1,0,0,4.8752,Peridotite_rect,4,0,4,0,1,
5ee0e5063f7f190b2b3f3b14,TCR,2024-06-25_11h40.04.009,LearnStrategy,2023.2.3,Win32,60.60606061,9,2,6,,,,,,,,7,02,,,,,,,,,,,7,1.509,1,,,,,,0.126851908,-0.392592621,1,0,0,1.5094,Peridotite_rect,5,0,5,0,1,
5ee0e5063f7f190b2b3f3b14,TCR,2024-06-25_11h40.04.009,LearnStrategy,2023.2.3,Win32,60.60606061,9,2,7,,,,,,,,5,06,,,,,,,,,,,5,1.434,1,,,,,,-0.351851824,-0.400925954,1,0,0,1.4339,Obsidian_rect,6,0,6,0,1,
5ee0e5063f7f190b2b3f3b14,TCR,2024-06-25_11h40.04.009,LearnStrategy,2023.2.3,Win32,60.60606061,9,2,8,,,,,,,,4,11,,,,,,,,,,,4,5.658,1,,,,,,0.349074131,-0.246296353,1,0,0,5.6581,Gabbro_rect,7,0,7,0,1,
5ee0e5063f7f190b2b3f3b14,TCR,2024-06-25_11h40.04.009,LearnStrategy,2023.2.3,Win32,60.60606061,9,2,9,,,,,,,,8,09,,,,,,,,,,,8,1.66,1,,,,,,0.384259288,-0.413888889,1,0,0,1.6596,Pumice_rect,8,0,8,0,1,
5ee0e5063f7f190b2b3f3b14,TCR,2024-06-25_11h40.04.009,LearnStrategy,2023.2.3,Win32,60.60606061,9,2,10,,,,,,,,6,09,,,,,,,,,,,6,1.88,1,,,,,,-0.115740712,-0.390740797,1,0,0,1.8796,Pegmatite_rect,9,0,9,0,1,
5ee0e5063f7f190b2b3f3b14,TCR,2024-06-25_11h40.04.009,LearnStrategy,2023.2.3,Win32,60.60606061,9,2,11,,,,,,,,5,05,,,,,,,,,,,5,2.663,1,,,,,,-0.340740712,-0.389814843,1,0,0,2.6633,Obsidian_rect,10,0,10,0,1,
5ee0e5063f7f190b2b3f3b14,TCR,2024-06-25_11h40.04.009,LearnStrategy,2023.2.3,Win32,60.60606061,9,2,12,,,,,,,,1,04,,,,,,,,,,,1,6.691,1,,,,,,-0.357407379,-0.259259288,1,0,0,6.6906,Andesite_rect,11,0,11,0,1,
5ee0e5063f7f190b2b3f3b14,TCR,2024-06-25_11h40.04.009,LearnStrategy,2023.2.3,Win32,60.60606061,9,2,13,,,,,,,,2,10,,,,,,,,,,,2,1.727,1,,,,,,-0.112962935,-0.242592621,1,0,0,1.7269,Basalt_rect,12,0,12,0,1,
5ee0e5063f7f190b2b3f3b14,TCR,2024-06-25_11h40.04.009,LearnStrategy,2023.2.3,Win32,60.60606061,9,2,14,,,,,,,,4,12,,,,,,,,,,,4,4.023,1,,,,,,0.387037065,-0.259259288,1,0,0,4.0228,Gabbro_rect,13,0,13,0,1,
5ee0e5063f7f190b2b3f3b14,TCR,2024-06-25_11h40.04.009,LearnStrategy,2023.2.3,Win32,60.60606061,9,2,15,,,,,,,,3,07,,,,,,,,,,,3,3.029,1,,,,,,0.132407464,-0.25,1,0,0,3.0286,Diorite_rect,14,0,14,0,1,
5ee0e5063f7f190b2b3f3b14,TCR,2024-06-25_11h40.04.009,LearnStrategy,2023.2.3,Win32,60.60606061,9,2,16,,,,,,,,3,08,,,,,,,,,,,3,2.849,1,,,,,,0.109259288,-0.248148176,1,0,0,2.8487,Diorite_rect,15,0,15,0,1,
5ee0e5063f7f190b2b3f3b14,TCR,2024-06-25_11h40.04.009,LearnStrategy,2023.2.3,Win32,60.60606061,,,,,,,,,,,,,,,,,,,,,,,,,,,,,,,,,,,,,,,,,,,1
5ee0e5063f7f190b2b3f3b14,TCR,2024-06-25_11h40.04.009,LearnStrategy,2023.2.3,Win32,60.60606061,,,,,,,,,,,,,,,,,,,,,,,,,,,,,,,,,,,,,,,,,,,
5ee0e5063f7f190b2b3f3b14,TCR,2024-06-25_11h40.04.009,LearnStrategy,2023.2.3,Win32,60.60606061,,,,,,,,,,,6,15,1,1,,,,,,,,,,,,,,,,,,,,,,,,,,,,,
5ee0e5063f7f190b2b3f3b14,TCR,2024-06-25_11h40.04.009,LearnStrategy,2023.2.3,Win32,60.60606061,,,,,,,,,,,3,11,1,2,,,,,,,,,,,,,,,,,,,,,,,,,,,,,
5ee0e5063f7f190b2b3f3b14,TCR,2024-06-25_11h40.04.009,LearnStrategy,2023.2.3,Win32,60.60606061,,,,,,,,,,,5,11,1,3,,,,,,,,,,,,,,,,,,,,,,,,,,,,,
5ee0e5063f7f190b2b3f3b14,TCR,2024-06-25_11h40.04.009,LearnStrategy,2023.2.3,Win32,60.60606061,,,,,,,,,,,7,04,1,4,,,,,,,,,,,,,,,,,,,,,,,,,,,,,
5ee0e5063f7f190b2b3f3b14,TCR,2024-06-25_11h40.04.009,LearnStrategy,2023.2.3,Win32,60.60606061,,,,,,,,,,,6,12,1,5,,,,,,,,,,,,,,,,,,,,,,,,,,,,,
5ee0e5063f7f190b2b3f3b14,TCR,2024-06-25_11h40.04.009,LearnStrategy,2023.2.3,Win32,60.60606061,,,,,,,,,,,2,14,1,6,,,,,,,,,,,,,,,,,,,,,,,,,,,,,
5ee0e5063f7f190b2b3f3b14,TCR,2024-06-25_11h40.04.009,LearnStrategy,2023.2.3,Win32,60.60606061,,,,,,,,,,,7,05,1,7,,,,,,,,,,,,,,,,,,,,,,,,,,,,,
5ee0e5063f7f190b2b3f3b14,TCR,2024-06-25_11h40.04.009,LearnStrategy,2023.2.3,Win32,60.60606061,,,,,,,,,,,4,09,1,8,,,,,,,,,,,,,,,,,,,,,,,,,,,,,
5ee0e5063f7f190b2b3f3b14,TCR,2024-06-25_11h40.04.009,LearnStrategy,2023.2.3,Win32,60.60606061,,,,,,,,,,,8,03,2,1,,,,,,,,,,,,,,,,,,,,,,,,,,,,,
5ee0e5063f7f190b2b3f3b14,TCR,2024-06-25_11h40.04.009,LearnStrategy,2023.2.3,Win32,60.60606061,,,,,,,,,,,5,04,2,2,,,,,,,,,,,,,,,,,,,,,,,,,,,,,
5ee0e5063f7f190b2b3f3b14,TCR,2024-06-25_11h40.04.009,LearnStrategy,2023.2.3,Win32,60.60606061,,,,,,,,,,,7,15,2,3,,,,,,,,,,,,,,,,,,,,,,,,,,,,,
5ee0e5063f7f190b2b3f3b14,TCR,2024-06-25_11h40.04.009,LearnStrategy,2023.2.3,Win32,60.60606061,,,,,,,,,,,5,09,2,4,,,,,,,,,,,,,,,,,,,,,,,,,,,,,
5ee0e5063f7f190b2b3f3b14,TCR,2024-06-25_11h40.04.009,LearnStrategy,2023.2.3,Win32,60.60606061,,,,,,,,,,,6,16,2,5,,,,,,,,,,,,,,,,,,,,,,,,,,,,,
5ee0e5063f7f190b2b3f3b14,TCR,2024-06-25_11h40.04.009,LearnStrategy,2023.2.3,Win32,60.60606061,,,,,,,,,,,1,16,2,6,,,,,,,,,,,,,,,,,,,,,,,,,,,,,
5ee0e5063f7f190b2b3f3b14,TCR,2024-06-25_11h40.04.009,LearnStrategy,2023.2.3,Win32,60.60606061,,,,,,,,,,,4,10,2,7,,,,,,,,,,,,,,,,,,,,,,,,,,,,,
5ee0e5063f7f190b2b3f3b14,TCR,2024-06-25_11h40.04.009,LearnStrategy,2023.2.3,Win32,60.60606061,,,,,,,,,,,5,12,2,8,,,,,,,,,,,,,,,,,,,,,,,,,,,,,
5ee0e5063f7f190b2b3f3b14,TCR,2024-06-25_11h40.04.009,LearnStrategy,2023.2.3,Win32,60.60606061,,,,,,,,,,,2,04,3,1,,,,,,,,,,,,,,,,,,,,,,,,,,,,,
5ee0e5063f7f190b2b3f3b14,TCR,2024-06-25_11h40.04.009,LearnStrategy,2023.2.3,Win32,60.60606061,,,,,,,,,,,2,11,3,2,,,,,,,,,,,,,,,,,,,,,,,,,,,,,
5ee0e5063f7f190b2b3f3b14,TCR,2024-06-25_11h40.04.009,LearnStrategy,2023.2.3,Win32,60.60606061,,,,,,,,,,,4,03,3,3,,,,,,,,,,,,,,,,,,,,,,,,,,,,,
5ee0e5063f7f190b2b3f3b14,TCR,2024-06-25_11h40.04.009,LearnStrategy,2023.2.3,Win32,60.60606061,,,,,,,,,,,5,10,3,4,,,,,,,,,,,,,,,,,,,,,,,,,,,,,
5ee0e5063f7f190b2b3f3b14,TCR,2024-06-25_11h40.04.009,LearnStrategy,2023.2.3,Win32,60.60606061,,,,,,,,,,,1,07,3,5,,,,,,,,,,,,,,,,,,,,,,,,,,,,,
5ee0e5063f7f190b2b3f3b14,TCR,2024-06-25_11h40.04.009,LearnStrategy,2023.2.3,Win32,60.60606061,,,,,,,,,,,7,12,3,6,,,,,,,,,,,,,,,,,,,,,,,,,,,,,
5ee0e5063f7f190b2b3f3b14,TCR,2024-06-25_11h40.04.009,LearnStrategy,2023.2.3,Win32,60.60606061,,,,,,,,,,,4,15,3,7,,,,,,,,,,,,,,,,,,,,,,,,,,,,,
5ee0e5063f7f190b2b3f3b14,TCR,2024-06-25_11h40.04.009,LearnStrategy,2023.2.3,Win32,60.60606061,,,,,,,,,,,8,15,3,8,,,,,,,,,,,,,,,,,,,,,,,,,,,,,
5ee0e5063f7f190b2b3f3b14,TCR,2024-06-25_11h40.04.009,LearnStrategy,2023.2.3,Win32,60.60606061,,,,,,,,,,,8,06,4,1,,,,,,,,,,,,,,,,,,,,,,,,,,,,,
5ee0e5063f7f190b2b3f3b14,TCR,2024-06-25_11h40.04.009,LearnStrategy,2023.2.3,Win32,60.60606061,,,,,,,,,,,2,05,4,2,,,,,,,,,,,,,,,,,,,,,,,,,,,,,
5ee0e5063f7f190b2b3f3b14,TCR,2024-06-25_11h40.04.009,LearnStrategy,2023.2.3,Win32,60.60606061,,,,,,,,,,,2,12,4,3,,,,,,,,,,,,,,,,,,,,,,,,,,,,,
5ee0e5063f7f190b2b3f3b14,TCR,2024-06-25_11h40.04.009,LearnStrategy,2023.2.3,Win32,60.60606061,,,,,,,,,,,3,13,4,4,,,,,,,,,,,,,,,,,,,,,,,,,,,,,
5ee0e5063f7f190b2b3f3b14,TCR,2024-06-25_11h40.04.009,LearnStrategy,2023.2.3,Win32,60.60606061,,,,,,,,,,,6,10,4,5,,,,,,,,,,,,,,,,,,,,,,,,,,,,,
5ee0e5063f7f190b2b3f3b14,TCR,2024-06-25_11h40.04.009,LearnStrategy,2023.2.3,Win32,60.60606061,,,,,,,,,,,1,02,4,6,,,,,,,,,,,,,,,,,,,,,,,,,,,,,
5ee0e5063f7f190b2b3f3b14,TCR,2024-06-25_11h40.04.009,LearnStrategy,2023.2.3,Win32,60.60606061,,,,,,,,,,,3,02,4,7,,,,,,,,,,,,,,,,,,,,,,,,,,,,,
5ee0e5063f7f190b2b3f3b14,TCR,2024-06-25_11h40.04.009,LearnStrategy,2023.2.3,Win32,60.60606061,,,,,,,,,,,6,07,4,8,,,,,,,,,,,,,,,,,,,,,,,,,,,,,
5ee0e5063f7f190b2b3f3b14,TCR,2024-06-25_11h40.04.009,LearnStrategy,2023.2.3,Win32,60.60606061,,,,,,,,,,,1,11,5,1,,,,,,,,,,,,,,,,,,,,,,,,,,,,,
5ee0e5063f7f190b2b3f3b14,TCR,2024-06-25_11h40.04.009,LearnStrategy,2023.2.3,Win32,60.60606061,,,,,,,,,,,2,09,5,2,,,,,,,,,,,,,,,,,,,,,,,,,,,,,
5ee0e5063f7f190b2b3f3b14,TCR,2024-06-25_11h40.04.009,LearnStrategy,2023.2.3,Win32,60.60606061,,,,,,,,,,,6,08,5,3,,,,,,,,,,,,,,,,,,,,,,,,,,,,,
5ee0e5063f7f190b2b3f3b14,TCR,2024-06-25_11h40.04.009,LearnStrategy,2023.2.3,Win32,60.60606061,,,,,,,,,,,8,04,5,4,,,,,,,,,,,,,,,,,,,,,,,,,,,,,
5ee0e5063f7f190b2b3f3b14,TCR,2024-06-25_11h40.04.009,LearnStrategy,2023.2.3,Win32,60.60606061,,,,,,,,,,,3,15,5,5,,,,,,,,,,,,,,,,,,,,,,,,,,,,,
5ee0e5063f7f190b2b3f3b14,TCR,2024-06-25_11h40.04.009,LearnStrategy,2023.2.3,Win32,60.60606061,,,,,,,,,,,8,13,5,6,,,,,,,,,,,,,,,,,,,,,,,,,,,,,
5ee0e5063f7f190b2b3f3b14,TCR,2024-06-25_11h40.04.009,LearnStrategy,2023.2.3,Win32,60.60606061,,,,,,,,,,,7,08,5,7,,,,,,,,,,,,,,,,,,,,,,,,,,,,,
5ee0e5063f7f190b2b3f3b14,TCR,2024-06-25_11h40.04.009,LearnStrategy,2023.2.3,Win32,60.60606061,,,,,,,,,,,3,09,5,8,,,,,,,,,,,,,,,,,,,,,,,,,,,,,
5ee0e5063f7f190b2b3f3b14,TCR,2024-06-25_11h40.04.009,LearnStrategy,2023.2.3,Win32,60.60606061,,,,,,,,,,,4,13,6,1,,,,,,,,,,,,,,,,,,,,,,,,,,,,,
5ee0e5063f7f190b2b3f3b14,TCR,2024-06-25_11h40.04.009,LearnStrategy,2023.2.3,Win32,60.60606061,,,,,,,,,,,5,16,6,2,,,,,,,,,,,,,,,,,,,,,,,,,,,,,
5ee0e5063f7f190b2b3f3b14,TCR,2024-06-25_11h40.04.009,LearnStrategy,2023.2.3,Win32,60.60606061,,,,,,,,,,,3,12,6,3,,,,,,,,,,,,,,,,,,,,,,,,,,,,,
5ee0e5063f7f190b2b3f3b14,TCR,2024-06-25_11h40.04.009,LearnStrategy,2023.2.3,Win32,60.60606061,,,,,,,,,,,7,16,6,4,,,,,,,,,,,,,,,,,,,,,,,,,,,,,
5ee0e5063f7f190b2b3f3b14,TCR,2024-06-25_11h40.04.009,LearnStrategy,2023.2.3,Win32,60.60606061,,,,,,,,,,,1,06,6,5,,,,,,,,,,,,,,,,,,,,,,,,,,,,,
5ee0e5063f7f190b2b3f3b14,TCR,2024-06-25_11h40.04.009,LearnStrategy,2023.2.3,Win32,60.60606061,,,,,,,,,,,1,03,6,6,,,,,,,,,,,,,,,,,,,,,,,,,,,,,
5ee0e5063f7f190b2b3f3b14,TCR,2024-06-25_11h40.04.009,LearnStrategy,2023.2.3,Win32,60.60606061,,,,,,,,,,,8,16,6,7,,,,,,,,,,,,,,,,,,,,,,,,,,,,,
5ee0e5063f7f190b2b3f3b14,TCR,2024-06-25_11h40.04.009,LearnStrategy,2023.2.3,Win32,60.60606061,,,,,,,,,,,4,08,6,8,,,,,,,,,,,,,,,,,,,,,,,,,,,,,