participant,condition,date,expName,psychopyVersion,OS,frameRate,block,phase,trial,learn_mouse.x,learn_mouse.y,learn_mouse.leftButton,learn_mouse.midButton,learn_mouse.rightButton,learn_mouse.time,learn_mouse.clicked_name,cat,token,row,col,t_select,cat_rec,token_rec,cat_mouse_l.x,cat_mouse_l.y,cat_mouse_l.leftButton,cat_mouse_l.midButton,cat_mouse_l.rightButton,cat_mouse_l.time,cat_mouse_l.clicked_name,resp,t_resp,corr,train_trials.thisRepN,train_trials.thisTrialN,train_trials.thisN,train_trials.thisIndex,train_trials.ran,cat_mouse_t.x,cat_mouse_t.y,cat_mouse_t.leftButton,cat_mouse_t.midButton,cat_mouse_t.rightButton,cat_mouse_t.time,cat_mouse_t.clicked_name,test_trials.thisRepN,test_trials.thisTrialN,test_trials.thisN,test_trials.thisIndex,test_trials.ran,Bonus
5ee1be444c9d75206ce5aa92,SCR,2024-06-24_18h46.16.920,LearnStrategy,2023.2.3,Win32,59.88023952,,,,,,,,,,,,,,,,,,,,,,,,,,,,,,,,,,,,,,,,,,,,,
5ee1be444c9d75206ce5aa92,SCR,2024-06-24_18h46.16.920,LearnStrategy,2023.2.3,Win32,59.88023952,1,1,1,0.060011609,-0.246296374,1,0,0,8.6318,Obsidian_02,5,02,2,5,8.632,7,12,-0.343692144,-0.415740776,1,0,0,5.2721,Obsidian_rect,5,5.272,1,0,0,0,0,1,,,,,,,,,,,,,
5ee1be444c9d75206ce5aa92,SCR,2024-06-24_18h46.16.920,LearnStrategy,2023.2.3,Win32,59.88023952,1,1,2,0.275752385,0.108333333,1,0,0,1.9531,Andesite_07,1,07,4,6,1.953,1,07,0.173900477,-0.248148155,1,0,0,3.6837,Diorite_rect,3,3.684,0,1,0,1,0,1,,,,,,,,,,,,,
5ee1be444c9d75206ce5aa92,SCR,2024-06-24_18h46.16.920,LearnStrategy,2023.2.3,Win32,59.88023952,1,1,3,0.244270833,0.420370372,1,0,0,3.8611,Basalt_09,2,09,6,6,3.861,8,15,-0.109432793,-0.261111132,1,0,0,3.0065,Basalt_rect,2,3.006,1,2,0,2,0,1,,,,,,,,,,,,,
5ee1be444c9d75206ce5aa92,SCR,2024-06-24_18h46.16.920,LearnStrategy,2023.2.3,Win32,59.88023952,1,1,4,-0.250173632,0.25,1,0,0,2.2125,Peridotite_14,7,14,5,3,2.212,7,14,0.375752385,-0.236111132,1,0,0,5.5951,Gabbro_rect,4,5.595,0,3,0,3,0,1,,,,,,,,,,,,,
5ee1be444c9d75206ce5aa92,SCR,2024-06-24_18h46.16.920,LearnStrategy,2023.2.3,Win32,59.88023952,1,1,5,-0.11035881,-0.398148155,1,0,0,3.3106,Diorite_08,3,08,1,4,3.311,2,09,-0.13535881,-0.25370369,1,0,0,4.066,Basalt_rect,2,4.066,0,4,0,4,0,1,,,,,,,,,,,,,
5ee1be444c9d75206ce5aa92,SCR,2024-06-24_18h46.16.920,LearnStrategy,2023.2.3,Win32,59.88023952,1,1,6,0.041493034,-0.070370356,1,0,0,1.3607,Diorite_13,3,13,3,5,1.361,3,13,0.347048569,-0.382407443,1,0,0,5.7977,Pumice_rect,8,5.798,0,5,0,5,0,1,,,,,,,,,,,,,
5ee1be444c9d75206ce5aa92,SCR,2024-06-24_18h46.16.920,LearnStrategy,2023.2.3,Win32,59.88023952,1,1,7,0.408159765,0.065740712,1,0,0,3.5822,Gabbro_01,4,01,4,7,3.582,4,01,-0.350173632,-0.260185242,1,0,0,2.3809,Andesite_rect,1,2.381,0,6,0,6,0,1,,,,,,,,,,,,,
5ee1be444c9d75206ce5aa92,SCR,2024-06-24_18h46.16.920,LearnStrategy,2023.2.3,Win32,59.88023952,1,1,8,-0.241840299,0.368518519,1,0,0,2.1367,Pegmatite_13,6,13,6,3,2.137,6,13,0.309085719,-0.25370369,1,0,0,3.9948,Gabbro_rect,4,3.995,0,7,0,7,0,1,,,,,,,,,,,,,
5ee1be444c9d75206ce5aa92,SCR,2024-06-24_18h46.16.920,LearnStrategy,2023.2.3,Win32,59.88023952,1,1,9,-0.247395833,-0.220370356,1,0,0,1.3052,Gabbro_14,4,14,2,3,1.305,4,14,0.402604167,-0.380555534,1,0,0,2.7409,Pumice_rect,8,2.741,0,8,0,8,0,1,,,,,,,,,,,,,
5ee1be444c9d75206ce5aa92,SCR,2024-06-24_18h46.16.920,LearnStrategy,2023.2.3,Win32,59.88023952,1,1,10,0.047974523,0.403703705,1,0,0,1.668,Diorite_07,3,07,6,5,1.668,3,07,-0.385358779,-0.258333333,1,0,0,6.4063,Andesite_rect,1,6.406,0,9,0,9,0,1,,,,,,,,,,,,,
5ee1be444c9d75206ce5aa92,SCR,2024-06-24_18h46.16.920,LearnStrategy,2023.2.3,Win32,59.88023952,1,1,11,-0.033506966,-0.066666667,1,0,0,1.0759,Pegmatite_11,6,11,3,4,1.076,6,11,0.33223381,-0.240740776,1,0,0,3.9909,Gabbro_rect,4,3.991,0,10,0,10,0,1,,,,,,,,,,,,,
5ee1be444c9d75206ce5aa92,SCR,2024-06-24_18h46.16.920,LearnStrategy,2023.2.3,Win32,59.88023952,1,1,12,-0.39276619,-0.377777799,1,0,0,2.3943,Andesite_10,1,10,1,2,2.394,1,10,0.309085719,-0.266666667,1,0,0,6.8123,Gabbro_rect,4,6.812,0,11,0,11,0,1,,,,,,,,,,,,,
5ee1be444c9d75206ce5aa92,SCR,2024-06-24_18h46.16.920,LearnStrategy,2023.2.3,Win32,59.88023952,1,1,13,-0.220543989,0.075,1,0,0,1.5097,Obsidian_05,5,05,4,3,1.51,5,05,-0.348321724,-0.407407443,1,0,0,1.9198,Obsidian_rect,5,1.92,1,12,0,12,0,1,,,,,,,,,,,,,
5ee1be444c9d75206ce5aa92,SCR,2024-06-24_18h46.16.920,LearnStrategy,2023.2.3,Win32,59.88023952,1,1,14,0.274826431,-0.232407443,1,0,0,2.9761,Basalt_10,2,10,2,6,2.976,5,02,-0.344618034,-0.231481489,1,0,0,4.0851,Andesite_rect,1,4.085,0,13,0,13,0,1,,,,,,,,,,,,,
5ee1be444c9d75206ce5aa92,SCR,2024-06-24_18h46.16.920,LearnStrategy,2023.2.3,Win32,59.88023952,1,1,15,-0.538136578,-0.27870369,1,0,0,1.6056,Gabbro_10,4,10,2,1,1.606,2,16,0.335011546,-0.419444466,1,0,0,5.1967,Pumice_rect,8,5.197,0,14,0,14,0,1,,,,,,,,,,,,,
5ee1be444c9d75206ce5aa92,SCR,2024-06-24_18h46.16.920,LearnStrategy,2023.2.3,Win32,59.88023952,1,1,16,-0.237210655,-0.250925954,1,0,0,1.645,Gabbro_14,4,14,2,3,1.645,8,03,0.346122742,-0.235185242,1,0,0,2.8001,Gabbro_rect,4,2.8,1,15,0,15,0,1,,,,,,,,,,,,,
5ee1be444c9d75206ce5aa92,SCR,2024-06-24_18h46.16.920,LearnStrategy,2023.2.3,Win32,59.88023952,1,2,1,,,,,,,,5,14,,,,,,,,,,,,,5,2.545,1,,,,,,-0.387210655,-0.414814822,1,0,0,2.5451,Obsidian_rect,0,0,0,0,1,
5ee1be444c9d75206ce5aa92,SCR,2024-06-24_18h46.16.920,LearnStrategy,2023.2.3,Win32,59.88023952,1,2,2,,,,,,,,3,15,,,,,,,,,,,,,1,1.807,0,,,,,,-0.354803212,-0.230555534,1,0,0,1.8066,Andesite_rect,1,0,1,0,1,
5ee1be444c9d75206ce5aa92,SCR,2024-06-24_18h46.16.920,LearnStrategy,2023.2.3,Win32,59.88023952,1,2,3,,,,,,,,4,05,,,,,,,,,,,,,1,1.931,0,,,,,,-0.324247678,-0.237963041,1,0,0,1.9306,Andesite_rect,2,0,2,0,1,
5ee1be444c9d75206ce5aa92,SCR,2024-06-24_18h46.16.920,LearnStrategy,2023.2.3,Win32,59.88023952,1,2,4,,,,,,,,2,08,,,,,,,,,,,,,2,6.643,1,,,,,,-0.11035881,-0.269444466,1,0,0,6.643,Basalt_rect,3,0,3,0,1,
5ee1be444c9d75206ce5aa92,SCR,2024-06-24_18h46.16.920,LearnStrategy,2023.2.3,Win32,59.88023952,1,2,5,,,,,,,,7,10,,,,,,,,,,,,,1,3.771,0,,,,,,-0.402025445,-0.22870369,1,0,0,3.7713,Andesite_rect,4,0,4,0,1,
5ee1be444c9d75206ce5aa92,SCR,2024-06-24_18h46.16.920,LearnStrategy,2023.2.3,Win32,59.88023952,1,2,6,,,,,,,,3,02,,,,,,,,,,,,,6,2.369,0,,,,,,-0.079803212,-0.410185242,1,0,0,2.3691,Pegmatite_rect,5,0,5,0,1,
5ee1be444c9d75206ce5aa92,SCR,2024-06-24_18h46.16.920,LearnStrategy,2023.2.3,Win32,59.88023952,1,2,7,,,,,,,,5,16,,,,,,,,,,,,,5,1.954,1,,,,,,-0.309432856,-0.406481489,1,0,0,1.9536,Obsidian_rect,6,0,6,0,1,
5ee1be444c9d75206ce5aa92,SCR,2024-06-24_18h46.16.920,LearnStrategy,2023.2.3,Win32,59.88023952,1,2,8,,,,,,,,2,05,,,,,,,,,,,,,3,3.529,0,,,,,,0.153530121,-0.246296374,1,0,0,3.5295,Diorite_rect,7,0,7,0,1,
5ee1be444c9d75206ce5aa92,SCR,2024-06-24_18h46.16.920,LearnStrategy,2023.2.3,Win32,59.88023952,1,2,9,,,,,,,,4,15,,,,,,,,,,,,,1,1.954,0,,,,,,-0.370543989,-0.254629707,1,0,0,1.9543,Andesite_rect,8,0,8,0,1,
5ee1be444c9d75206ce5aa92,SCR,2024-06-24_18h46.16.920,LearnStrategy,2023.2.3,Win32,59.88023952,1,2,10,,,,,,,,8,04,,,,,,,,,,,,,8,3.628,1,,,,,,0.387789408,-0.391666667,1,0,0,3.628,Pumice_rect,9,0,9,0,1,
5ee1be444c9d75206ce5aa92,SCR,2024-06-24_18h46.16.920,LearnStrategy,2023.2.3,Win32,59.88023952,1,2,11,,,,,,,,1,04,,,,,,,,,,,,,6,2.986,0,,,,,,-0.152025477,-0.402777799,1,0,0,2.9857,Pegmatite_rect,10,0,10,0,1,
5ee1be444c9d75206ce5aa92,SCR,2024-06-24_18h46.16.920,LearnStrategy,2023.2.3,Win32,59.88023952,1,2,12,,,,,,,,1,01,,,,,,,,,,,,,3,4.612,0,,,,,,0.062789345,-0.234259288,1,0,0,4.6117,Diorite_rect,11,0,11,0,1,
5ee1be444c9d75206ce5aa92,SCR,2024-06-24_18h46.16.920,LearnStrategy,2023.2.3,Win32,59.88023952,1,2,13,,,,,,,,7,08,,,,,,,,,,,,,2,72.045,0,,,,,,-0.109432793,-0.232407443,1,0,0,72.0448,Basalt_rect,12,0,12,0,1,
5ee1be444c9d75206ce5aa92,SCR,2024-06-24_18h46.16.920,LearnStrategy,2023.2.3,Win32,59.88023952,1,2,14,,,,,,,,6,06,,,,,,,,,,,,,6,5.061,1,,,,,,-0.086284701,-0.380555534,1,0,0,5.061,Pegmatite_rect,13,0,13,0,1,
5ee1be444c9d75206ce5aa92,SCR,2024-06-24_18h46.16.920,LearnStrategy,2023.2.3,Win32,59.88023952,1,2,15,,,,,,,,8,08,,,,,,,,,,,,,4,3.422,0,,,,,,0.380381902,-0.239814822,1,0,0,3.422,Gabbro_rect,14,0,14,0,1,
5ee1be444c9d75206ce5aa92,SCR,2024-06-24_18h46.16.920,LearnStrategy,2023.2.3,Win32,59.88023952,1,2,16,,,,,,,,6,09,,,,,,,,,,,,,2,9.022,0,,,,,,-0.100173632,-0.242592621,1,0,0,9.0222,Basalt_rect,15,0,15,0,1,
5ee1be444c9d75206ce5aa92,SCR,2024-06-24_18h46.16.920,LearnStrategy,2023.2.3,Win32,59.88023952,2,1,1,-0.381655089,0.254629628,1,0,0,5.3765,Pegmatite_16,6,16,5,2,5.376,3,11,0.136863454,-0.25,1,0,0,2.1894,Diorite_rect,3,2.189,0,0,0,0,0,1,,,,,,,,,,,,,
5ee1be444c9d75206ce5aa92,SCR,2024-06-24_18h46.16.920,LearnStrategy,2023.2.3,Win32,59.88023952,2,1,2,-0.277025477,0.389814814,1,0,0,3.2379,Pegmatite_13,6,13,6,3,3.238,6,08,-0.112210592,-0.391666667,1,0,0,2.0243,Pegmatite_rect,6,2.024,1,1,0,1,0,1,,,,,,,,,,,,,
5ee1be444c9d75206ce5aa92,SCR,2024-06-24_18h46.16.920,LearnStrategy,2023.2.3,Win32,59.88023952,2,1,3,-0.08535881,-0.370370356,1,0,0,1.5477,Diorite_08,3,08,1,4,1.548,1,07,-0.439988422,-0.229629707,1,0,0,1.441,Andesite_rect,1,1.441,0,2,0,2,0,1,,,,,,,,,,,,,
5ee1be444c9d75206ce5aa92,SCR,2024-06-24_18h46.16.920,LearnStrategy,2023.2.3,Win32,59.88023952,2,1,4,0.1109375,-0.135185178,1,0,0,0.9072,Diorite_13,3,13,3,5,0.907,4,10,0.117418989,-0.255555534,1,0,0,2.3975,Diorite_rect,3,2.398,1,3,0,3,0,1,,,,,,,,,,,,,
5ee1be444c9d75206ce5aa92,SCR,2024-06-24_18h46.16.920,LearnStrategy,2023.2.3,Win32,59.88023952,2,1,5,0.423900477,-0.254629707,1,0,0,1.9107,Gabbro_13,4,13,2,7,1.911,2,10,-0.34276619,-0.240740776,1,0,0,1.7632,Andesite_rect,1,1.763,0,4,0,4,0,1,,,,,,,,,,,,,
5ee1be444c9d75206ce5aa92,SCR,2024-06-24_18h46.16.920,LearnStrategy,2023.2.3,Win32,59.88023952,2,1,6,0.094270833,-0.375925954,1,0,0,1.3543,Peridotite_07,7,07,1,5,1.354,4,14,0.400752385,-0.237037023,1,0,0,2.0083,Gabbro_rect,4,2.008,0,5,0,5,0,1,,,,,,,,,,,,,
5ee1be444c9d75206ce5aa92,SCR,2024-06-24_18h46.16.920,LearnStrategy,2023.2.3,Win32,59.88023952,2,1,7,-0.389988422,0.120370356,1,0,0,2.7205,Obsidian_06,5,06,4,2,2.721,3,16,-0.436284733,-0.416666667,1,0,0,1.6205,Obsidian_rect,5,1.62,1,6,0,6,0,1,,,,,,,,,,,,,
5ee1be444c9d75206ce5aa92,SCR,2024-06-24_18h46.16.920,LearnStrategy,2023.2.3,Win32,59.88023952,2,1,8,-0.204803212,0.104629612,1,0,0,1.1347,Obsidian_05,5,05,4,3,1.135,6,13,-0.3390625,-0.384259288,1,0,0,3.246,Obsidian_rect,5,3.246,1,7,0,7,0,1,,,,,,,,,,,,,
5ee1be444c9d75206ce5aa92,SCR,2024-06-24_18h46.16.920,LearnStrategy,2023.2.3,Win32,59.88023952,2,1,9,-0.429803212,-0.438888868,1,0,0,2.561,Andesite_10,1,10,1,2,2.561,1,10,0.330381902,-0.241666667,1,0,0,3.0245,Gabbro_rect,4,3.024,0,8,0,8,0,1,,,,,,,,,,,,,
5ee1be444c9d75206ce5aa92,SCR,2024-06-24_18h46.16.920,LearnStrategy,2023.2.3,Win32,59.88023952,2,1,10,0.377604167,-0.407407443,1,0,0,2.9623,Andesite_03,1,03,1,7,2.962,2,04,-0.384432856,-0.240740776,1,0,0,3.4844,Andesite_rect,1,3.484,1,9,0,9,0,1,,,,,,,,,,,,,
5ee1be444c9d75206ce5aa92,SCR,2024-06-24_18h46.16.920,LearnStrategy,2023.2.3,Win32,59.88023952,2,1,11,0.553530248,-0.425,1,0,0,1.5977,Andesite_09,1,09,1,8,1.598,4,09,-0.349247678,-0.233333333,1,0,0,1.5389,Andesite_rect,1,1.539,1,10,0,10,0,1,,,,,,,,,,,,,
5ee1be444c9d75206ce5aa92,SCR,2024-06-24_18h46.16.920,LearnStrategy,2023.2.3,Win32,59.88023952,2,1,12,-0.602951399,0.235185178,1,0,0,2.9113,Gabbro_12,4,12,5,1,2.911,1,02,-0.357581011,-0.232407443,1,0,0,4.3867,Andesite_rect,1,4.387,0,11,0,11,0,1,,,,,,,,,,,,,
5ee1be444c9d75206ce5aa92,SCR,2024-06-24_18h46.16.920,LearnStrategy,2023.2.3,Win32,59.88023952,2,1,13,-0.581655089,-0.399074109,1,0,0,3.1929,Pumice_03,8,03,1,1,3.193,8,06,0.383159765,-0.398148155,1,0,0,2.1584,Pumice_rect,8,2.158,1,12,0,12,0,1,,,,,,,,,,,,,
5ee1be444c9d75206ce5aa92,SCR,2024-06-24_18h46.16.920,LearnStrategy,2023.2.3,Win32,59.88023952,2,1,14,0.219270833,0.25555555,1,0,0,4.208,Pumice_05,8,05,5,6,4.208,7,05,0.359085719,-0.411111132,1,0,0,2.0428,Pumice_rect,8,2.043,1,13,0,13,0,1,,,,,,,,,,,,,
5ee1be444c9d75206ce5aa92,SCR,2024-06-24_18h46.16.920,LearnStrategy,2023.2.3,Win32,59.88023952,2,1,15,0.228530121,0.381481481,1,0,0,2.7846,Basalt_09,2,09,6,6,2.785,3,14,-0.476099523,-0.244444466,1,0,0,3.2811,Andesite_rect,1,3.281,0,14,0,14,0,1,,,,,,,,,,,,,
5ee1be444c9d75206ce5aa92,SCR,2024-06-24_18h46.16.920,LearnStrategy,2023.2.3,Win32,59.88023952,2,1,16,0.396122742,0.230555566,1,0,0,3.7663,Pumice_13,8,13,5,7,3.766,7,12,0.387789408,-0.402777799,1,0,0,3.2966,Pumice_rect,8,3.297,1,15,0,15,0,1,,,,,,,,,,,,,
5ee1be444c9d75206ce5aa92,SCR,2024-06-24_18h46.16.920,LearnStrategy,2023.2.3,Win32,59.88023952,2,2,1,,,,,,,,5,09,,,,,,,,,,,,,5,1.598,1,,,,,,-0.352951368,-0.409259288,1,0,0,1.5984,Obsidian_rect,0,0,0,0,1,
5ee1be444c9d75206ce5aa92,SCR,2024-06-24_18h46.16.920,LearnStrategy,2023.2.3,Win32,59.88023952,2,2,2,,,,,,,,7,02,,,,,,,,,,,,,3,2.812,0,,,,,,0.122974523,-0.237037023,1,0,0,2.8121,Diorite_rect,1,0,1,0,1,
5ee1be444c9d75206ce5aa92,SCR,2024-06-24_18h46.16.920,LearnStrategy,2023.2.3,Win32,59.88023952,2,2,3,,,,,,,,2,12,,,,,,,,,,,,,4,5.962,0,,,,,,0.36464119,-0.248148155,1,0,0,5.962,Gabbro_rect,2,0,2,0,1,
5ee1be444c9d75206ce5aa92,SCR,2024-06-24_18h46.16.920,LearnStrategy,2023.2.3,Win32,59.88023952,2,2,4,,,,,,,,8,14,,,,,,,,,,,,,8,3.979,1,,,,,,0.383159765,-0.386111132,1,0,0,3.9794,Pumice_rect,3,0,3,0,1,
5ee1be444c9d75206ce5aa92,SCR,2024-06-24_18h46.16.920,LearnStrategy,2023.2.3,Win32,59.88023952,2,2,5,,,,,,,,2,06,,,,,,,,,,,,,1,4.176,0,,,,,,-0.36776619,-0.260185242,1,0,0,4.1762,Andesite_rect,4,0,4,0,1,
5ee1be444c9d75206ce5aa92,SCR,2024-06-24_18h46.16.920,LearnStrategy,2023.2.3,Win32,59.88023952,2,2,6,,,,,,,,1,16,,,,,,,,,,,,,3,5.208,0,,,,,,0.122048632,-0.25370369,1,0,0,5.2077,Diorite_rect,5,0,5,0,1,
5ee1be444c9d75206ce5aa92,SCR,2024-06-24_18h46.16.920,LearnStrategy,2023.2.3,Win32,59.88023952,2,2,7,,,,,,,,5,12,,,,,,,,,,,,,5,1.452,1,,,,,,-0.374247678,-0.394444466,1,0,0,1.4524,Obsidian_rect,6,0,6,0,1,
5ee1be444c9d75206ce5aa92,SCR,2024-06-24_18h46.16.920,LearnStrategy,2023.2.3,Win32,59.88023952,2,2,8,,,,,,,,1,11,,,,,,,,,,,,,2,2.273,0,,,,,,-0.143692144,-0.251851908,1,0,0,2.273,Basalt_rect,7,0,7,0,1,
5ee1be444c9d75206ce5aa92,SCR,2024-06-24_18h46.16.920,LearnStrategy,2023.2.3,Win32,59.88023952,2,2,9,,,,,,,,3,06,,,,,,,,,,,,,6,6.216,0,,,,,,-0.089988391,-0.391666667,1,0,0,6.2159,Pegmatite_rect,8,0,8,0,1,
5ee1be444c9d75206ce5aa92,SCR,2024-06-24_18h46.16.920,LearnStrategy,2023.2.3,Win32,59.88023952,2,2,10,,,,,,,,6,15,,,,,,,,,,,,,6,3.037,1,,,,,,-0.121469879,-0.402777799,1,0,0,3.0365,Pegmatite_rect,9,0,9,0,1,
5ee1be444c9d75206ce5aa92,SCR,2024-06-24_18h46.16.920,LearnStrategy,2023.2.3,Win32,59.88023952,2,2,11,,,,,,,,4,08,,,,,,,,,,,,,1,1.869,0,,,,,,-0.401099523,-0.240740776,1,0,0,1.8693,Andesite_rect,10,0,10,0,1,
5ee1be444c9d75206ce5aa92,SCR,2024-06-24_18h46.16.920,LearnStrategy,2023.2.3,Win32,59.88023952,2,2,12,,,,,,,,8,16,,,,,,,,,,,,,8,1.95,1,,,,,,0.304456075,-0.391666667,1,0,0,1.9497,Pumice_rect,11,0,11,0,1,
5ee1be444c9d75206ce5aa92,SCR,2024-06-24_18h46.16.920,LearnStrategy,2023.2.3,Win32,59.88023952,2,2,13,,,,,,,,6,12,,,,,,,,,,,,,3,2.78,0,,,,,,0.059085655,-0.260185242,1,0,0,2.7798,Diorite_rect,12,0,12,0,1,
5ee1be444c9d75206ce5aa92,SCR,2024-06-24_18h46.16.920,LearnStrategy,2023.2.3,Win32,59.88023952,2,2,14,,,,,,,,3,12,,,,,,,,,,,,,3,1.527,1,,,,,,0.050752322,-0.267592621,1,0,0,1.5271,Diorite_rect,13,0,13,0,1,
5ee1be444c9d75206ce5aa92,SCR,2024-06-24_18h46.16.920,LearnStrategy,2023.2.3,Win32,59.88023952,2,2,15,,,,,,,,4,11,,,,,,,,,,,,,2,4.236,0,,,,,,-0.100173632,-0.254629707,1,0,0,4.2359,Basalt_rect,14,0,14,0,1,
5ee1be444c9d75206ce5aa92,SCR,2024-06-24_18h46.16.920,LearnStrategy,2023.2.3,Win32,59.88023952,2,2,16,,,,,,,,7,15,,,,,,,,,,,,,3,3.525,0,,,,,,0.097048632,-0.248148155,1,0,0,3.5255,Diorite_rect,15,0,15,0,1,
5ee1be444c9d75206ce5aa92,SCR,2024-06-24_18h46.16.920,LearnStrategy,2023.2.3,Win32,59.88023952,3,1,1,-0.396469911,-0.101851845,1,0,0,1.7222,Peridotite_13,7,13,3,2,1.722,7,05,0.103530121,-0.400925954,1,0,0,2.3319,Peridotite_rect,7,2.332,1,0,0,0,0,1,,,,,,,,,,,,,
5ee1be444c9d75206ce5aa92,SCR,2024-06-24_18h46.16.920,LearnStrategy,2023.2.3,Win32,59.88023952,3,1,2,-0.363136578,0.373148147,1,0,0,3.0346,Pegmatite_10,6,10,6,2,3.035,3,07,0.093344943,-0.410185242,1,0,0,1.4215,Peridotite_rect,7,1.421,0,1,0,1,0,1,,,,,,,,,,,,,
5ee1be444c9d75206ce5aa92,SCR,2024-06-24_18h46.16.920,LearnStrategy,2023.2.3,Win32,59.88023952,3,1,3,-0.276099523,0.219444434,1,0,0,1.6639,Peridotite_14,7,14,5,3,1.664,4,10,0.059085655,-0.404629707,1,0,0,1.9977,Peridotite_rect,7,1.998,1,2,0,2,0,1,,,,,,,,,,,,,
5ee1be444c9d75206ce5aa92,SCR,2024-06-24_18h46.16.920,LearnStrategy,2023.2.3,Win32,59.88023952,3,1,4,0.55723381,-0.286111132,1,0,0,2.2941,Peridotite_12,7,12,2,8,2.294,7,04,0.115567144,-0.409259288,1,0,0,1.641,Peridotite_rect,7,1.641,1,3,0,3,0,1,,,,,,,,,,,,,
5ee1be444c9d75206ce5aa92,SCR,2024-06-24_18h46.16.920,LearnStrategy,2023.2.3,Win32,59.88023952,3,1,5,-0.114988391,0.084259256,1,0,0,7.9403,Pegmatite_08,6,08,4,4,7.94,4,12,-0.21035881,-0.250925954,1,0,0,1.5557,Basalt_rect,2,1.556,0,4,0,4,0,1,,,,,,,,,,,,,
5ee1be444c9d75206ce5aa92,SCR,2024-06-24_18h46.16.920,LearnStrategy,2023.2.3,Win32,59.88023952,3,1,6,0.537789408,0.239814806,1,0,0,9.4865,Pegmatite_05,6,05,5,8,9.486,1,05,0.110011609,-0.244444466,1,0,0,5.8091,Diorite_rect,3,5.809,0,5,0,5,0,1,,,,,,,,,,,,,
5ee1be444c9d75206ce5aa92,SCR,2024-06-24_18h46.16.920,LearnStrategy,2023.2.3,Win32,59.88023952,3,1,7,-0.520543989,0.250925922,1,0,0,8.5411,Gabbro_12,4,12,5,1,8.541,1,10,-0.382581011,-0.231481489,1,0,0,2.6865,Andesite_rect,1,2.686,0,6,0,6,0,1,,,,,,,,,,,,,
5ee1be444c9d75206ce5aa92,SCR,2024-06-24_18h46.16.920,LearnStrategy,2023.2.3,Win32,59.88023952,3,1,8,0.251678212,0.426851853,1,0,0,1.1278,Basalt_09,2,09,6,6,1.128,2,02,0.372048569,-0.258333333,1,0,0,2.61,Gabbro_rect,4,2.61,0,7,0,7,0,1,,,,,,,,,,,,,
5ee1be444c9d75206ce5aa92,SCR,2024-06-24_18h46.16.920,LearnStrategy,2023.2.3,Win32,59.88023952,3,1,9,-0.546469911,0.099074046,1,0,0,3.1285,Peridotite_04,7,04,4,1,3.128,1,10,-0.131655057,-0.390740776,1,0,0,7.3358,Pegmatite_rect,6,7.336,0,8,0,8,0,1,,,,,,,,,,,,,
5ee1be444c9d75206ce5aa92,SCR,2024-06-24_18h46.16.920,LearnStrategy,2023.2.3,Win32,59.88023952,3,1,10,-0.533506934,0.106481489,1,0,0,1.0013,Peridotite_04,7,04,4,1,1.001,4,12,0.098900477,-0.416666667,1,0,0,3.6444,Peridotite_rect,7,3.644,1,9,0,9,0,1,,,,,,,,,,,,,
5ee1be444c9d75206ce5aa92,SCR,2024-06-24_18h46.16.920,LearnStrategy,2023.2.3,Win32,59.88023952,3,1,11,-0.382581011,-0.262963041,1,0,0,1.3953,Pumice_10,8,10,2,2,1.395,6,10,-0.202951368,-0.392592621,1,0,0,2.7861,Pegmatite_rect,6,2.786,0,10,0,10,0,1,,,,,,,,,,,,,
5ee1be444c9d75206ce5aa92,SCR,2024-06-24_18h46.16.920,LearnStrategy,2023.2.3,Win32,59.88023952,3,1,12,-0.397395833,-0.385185242,1,0,0,2.3944,Andesite_10,1,10,1,2,2.394,2,10,-0.353877322,-0.231481489,1,0,0,2.4531,Andesite_rect,1,2.453,1,11,0,11,0,1,,,,,,,,,,,,,
5ee1be444c9d75206ce5aa92,SCR,2024-06-24_18h46.16.920,LearnStrategy,2023.2.3,Win32,59.88023952,3,1,13,-0.59276619,-0.427777799,1,0,0,1.3138,Pumice_03,8,03,1,1,1.314,7,04,0.325752385,-0.412963041,1,0,0,2.5666,Pumice_rect,8,2.567,1,12,0,12,0,1,,,,,,,,,,,,,
5ee1be444c9d75206ce5aa92,SCR,2024-06-24_18h46.16.920,LearnStrategy,2023.2.3,Win32,59.88023952,3,1,14,0.383159765,-0.388888868,1,0,0,2.0795,Andesite_03,1,03,1,7,2.08,8,05,-0.385358779,-0.22870369,1,0,0,4.1759,Andesite_rect,1,4.176,1,13,0,13,0,1,,,,,,,,,,,,,
5ee1be444c9d75206ce5aa92,SCR,2024-06-24_18h46.16.920,LearnStrategy,2023.2.3,Win32,59.88023952,3,1,15,-0.554803244,0.296296295,1,0,0,4.3776,Gabbro_12,4,12,5,1,4.378,3,14,-0.187210655,-0.239814822,1,0,0,1.582,Basalt_rect,2,1.582,0,14,0,14,0,1,,,,,,,,,,,,,
5ee1be444c9d75206ce5aa92,SCR,2024-06-24_18h46.16.920,LearnStrategy,2023.2.3,Win32,59.88023952,3,1,16,0.251678212,0.380555558,1,0,0,0.8629,Basalt_09,2,09,6,6,0.863,6,16,-0.209432856,-0.233333333,1,0,0,2.2797,Basalt_rect,2,2.28,1,15,0,15,0,1,,,,,,,,,,,,,
5ee1be444c9d75206ce5aa92,SCR,2024-06-24_18h46.16.920,LearnStrategy,2023.2.3,Win32,59.88023952,3,2,1,,,,,,,,8,09,,,,,,,,,,,,,8,1.474,1,,,,,,0.388715235,-0.399074109,1,0,0,1.4741,Pumice_rect,0,0,0,0,1,
5ee1be444c9d75206ce5aa92,SCR,2024-06-24_18h46.16.920,LearnStrategy,2023.2.3,Win32,59.88023952,3,2,2,,,,,,,,8,02,,,,,,,,,,,,,8,1.383,1,,,,,,0.393344879,-0.395370356,1,0,0,1.3835,Pumice_rect,1,0,1,0,1,
5ee1be444c9d75206ce5aa92,SCR,2024-06-24_18h46.16.920,LearnStrategy,2023.2.3,Win32,59.88023952,3,2,3,,,,,,,,3,10,,,,,,,,,,,,,6,8.019,0,,,,,,-0.101099459,-0.382407443,1,0,0,8.0186,Pegmatite_rect,2,0,2,0,1,
5ee1be444c9d75206ce5aa92,SCR,2024-06-24_18h46.16.920,LearnStrategy,2023.2.3,Win32,59.88023952,3,2,4,,,,,,,,7,06,,,,,,,,,,,,,7,2.185,1,,,,,,0.116493034,-0.404629707,1,0,0,2.1848,Peridotite_rect,3,0,3,0,1,
5ee1be444c9d75206ce5aa92,SCR,2024-06-24_18h46.16.920,LearnStrategy,2023.2.3,Win32,59.88023952,3,2,5,,,,,,,,6,07,,,,,,,,,,,,,7,1.571,0,,,,,,0.104456011,-0.388888868,1,0,0,1.5707,Peridotite_rect,4,0,4,0,1,
5ee1be444c9d75206ce5aa92,SCR,2024-06-24_18h46.16.920,LearnStrategy,2023.2.3,Win32,59.88023952,3,2,6,,,,,,,,6,03,,,,,,,,,,,,,7,1.363,0,,,,,,0.121122678,-0.4,1,0,0,1.3632,Peridotite_rect,5,0,5,0,1,
5ee1be444c9d75206ce5aa92,SCR,2024-06-24_18h46.16.920,LearnStrategy,2023.2.3,Win32,59.88023952,3,2,7,,,,,,,,2,14,,,,,,,,,,,,,6,5.77,0,,,,,,-0.147395833,-0.399074109,1,0,0,5.7705,Pegmatite_rect,6,0,6,0,1,
5ee1be444c9d75206ce5aa92,SCR,2024-06-24_18h46.16.920,LearnStrategy,2023.2.3,Win32,59.88023952,3,2,8,,,,,,,,1,14,,,,,,,,,,,,,1,4.303,1,,,,,,-0.377951399,-0.236111132,1,0,0,4.3027,Andesite_rect,7,0,7,0,1,
5ee1be444c9d75206ce5aa92,SCR,2024-06-24_18h46.16.920,LearnStrategy,2023.2.3,Win32,59.88023952,3,2,9,,,,,,,,4,03,,,,,,,,,,,,,3,1.83,0,,,,,,0.091493034,-0.265740776,1,0,0,1.8305,Diorite_rect,8,0,8,0,1,
5ee1be444c9d75206ce5aa92,SCR,2024-06-24_18h46.16.920,LearnStrategy,2023.2.3,Win32,59.88023952,3,2,10,,,,,,,,5,04,,,,,,,,,,,,,5,1.387,1,,,,,,-0.363136578,-0.385185242,1,0,0,1.3869,Obsidian_rect,9,0,9,0,1,
5ee1be444c9d75206ce5aa92,SCR,2024-06-24_18h46.16.920,LearnStrategy,2023.2.3,Win32,59.88023952,3,2,11,,,,,,,,1,06,,,,,,,,,,,,,1,1.993,1,,,,,,-0.396469911,-0.25370369,1,0,0,1.9928,Andesite_rect,10,0,10,0,1,
5ee1be444c9d75206ce5aa92,SCR,2024-06-24_18h46.16.920,LearnStrategy,2023.2.3,Win32,59.88023952,3,2,12,,,,,,,,5,11,,,,,,,,,,,,,5,1.431,1,,,,,,-0.356655089,-0.382407443,1,0,0,1.4312,Obsidian_rect,11,0,11,0,1,
5ee1be444c9d75206ce5aa92,SCR,2024-06-24_18h46.16.920,LearnStrategy,2023.2.3,Win32,59.88023952,3,2,13,,,,,,,,7,16,,,,,,,,,,,,,7,1.698,1,,,,,,0.116493034,-0.412963041,1,0,0,1.6977,Peridotite_rect,12,0,12,0,1,
5ee1be444c9d75206ce5aa92,SCR,2024-06-24_18h46.16.920,LearnStrategy,2023.2.3,Win32,59.88023952,3,2,14,,,,,,,,4,16,,,,,,,,,,,,,6,6.471,0,,,,,,-0.131655057,-0.388888868,1,0,0,6.4707,Pegmatite_rect,13,0,13,0,1,
5ee1be444c9d75206ce5aa92,SCR,2024-06-24_18h46.16.920,LearnStrategy,2023.2.3,Win32,59.88023952,3,2,15,,,,,,,,3,09,,,,,,,,,,,,,3,2.001,1,,,,,,0.134085655,-0.258333333,1,0,0,2.0008,Diorite_rect,14,0,14,0,1,
5ee1be444c9d75206ce5aa92,SCR,2024-06-24_18h46.16.920,LearnStrategy,2023.2.3,Win32,59.88023952,3,2,16,,,,,,,,2,01,,,,,,,,,,,,,4,2.735,0,,,,,,0.3359375,-0.256481489,1,0,0,2.7353,Gabbro_rect,15,0,15,0,1,
5ee1be444c9d75206ce5aa92,SCR,2024-06-24_18h46.16.920,LearnStrategy,2023.2.3,Win32,59.88023952,4,1,1,-0.064988391,0.378703705,1,0,0,7.2919,Andesite_05,1,05,6,4,7.292,1,05,-0.390914345,-0.230555534,1,0,0,2.9459,Andesite_rect,1,2.946,1,0,0,0,0,1,,,,,,,,,,,,,
5ee1be444c9d75206ce5aa92,SCR,2024-06-24_18h46.16.920,LearnStrategy,2023.2.3,Win32,59.88023952,4,1,2,0.2359375,0.088888899,1,0,0,0.9622,Andesite_07,1,07,4,6,0.962,1,07,-0.379803244,-0.258333333,1,0,0,2.7299,Andesite_rect,1,2.73,1,1,0,1,0,1,,,,,,,,,,,,,
5ee1be444c9d75206ce5aa92,SCR,2024-06-24_18h46.16.920,LearnStrategy,2023.2.3,Win32,59.88023952,4,1,3,0.247974523,-0.129629644,1,0,0,0.9391,Gabbro_09,4,09,3,6,0.939,4,09,0.115567144,-0.242592621,1,0,0,1.6858,Diorite_rect,3,1.686,0,2,0,2,0,1,,,,,,,,,,,,,
5ee1be444c9d75206ce5aa92,SCR,2024-06-24_18h46.16.920,LearnStrategy,2023.2.3,Win32,59.88023952,4,1,4,-0.538136578,-0.25370369,1,0,0,1.7641,Gabbro_10,4,10,2,1,1.764,4,10,0.430381902,-0.256481489,1,0,0,2.2808,Gabbro_rect,4,2.281,1,3,0,3,0,1,,,,,,,,,,,,,
5ee1be444c9d75206ce5aa92,SCR,2024-06-24_18h46.16.920,LearnStrategy,2023.2.3,Win32,59.88023952,4,1,5,0.3609375,0.081481489,1,0,0,1.4711,Gabbro_01,4,01,4,7,1.471,4,01,0.120196788,-0.387037023,1,0,0,2.4004,Peridotite_rect,7,2.4,0,4,0,4,0,1,,,,,,,,,,,,,
5ee1be444c9d75206ce5aa92,SCR,2024-06-24_18h46.16.920,LearnStrategy,2023.2.3,Win32,59.88023952,4,1,6,-0.206655057,-0.093518511,1,0,0,2.2129,Diorite_16,3,16,3,3,2.213,3,16,-0.368692112,-0.22870369,1,0,0,2.8835,Andesite_rect,1,2.883,0,5,0,5,0,1,,,,,,,,,,,,,
5ee1be444c9d75206ce5aa92,SCR,2024-06-24_18h46.16.920,LearnStrategy,2023.2.3,Win32,59.88023952,4,1,7,-0.078877258,0.086111101,1,0,0,1.3001,Pegmatite_08,6,08,4,4,1.3,6,08,0.075752322,-0.400925954,1,0,0,1.3396,Peridotite_rect,7,1.34,0,6,0,6,0,1,,,,,,,,,,,,,
5ee1be444c9d75206ce5aa92,SCR,2024-06-24_18h46.16.920,LearnStrategy,2023.2.3,Win32,59.88023952,4,1,8,0.503530121,0.227777767,1,0,0,2.7939,Pegmatite_05,6,05,5,8,2.794,6,05,-0.163136546,-0.404629707,1,0,0,2.0648,Pegmatite_rect,6,2.065,1,7,0,7,0,1,,,,,,,,,,,,,
5ee1be444c9d75206ce5aa92,SCR,2024-06-24_18h46.16.920,LearnStrategy,2023.2.3,Win32,59.88023952,4,1,9,0.227604167,0.398148147,1,0,0,1.8626,Basalt_09,2,09,6,6,1.863,2,09,0.373900477,-0.22870369,1,0,0,2.2835,Gabbro_rect,4,2.284,0,8,0,8,0,1,,,,,,,,,,,,,
5ee1be444c9d75206ce5aa92,SCR,2024-06-24_18h46.16.920,LearnStrategy,2023.2.3,Win32,59.88023952,4,1,10,0.563715235,0.44074074,1,0,0,1.3615,Basalt_11,2,11,6,8,1.362,2,11,0.330381902,-0.242592621,1,0,0,4.0503,Gabbro_rect,4,4.05,0,9,0,9,0,1,,,,,,,,,,,,,
5ee1be444c9d75206ce5aa92,SCR,2024-06-24_18h46.16.920,LearnStrategy,2023.2.3,Win32,59.88023952,4,1,11,-0.237210655,0.214814822,1,0,0,1.269,Peridotite_14,7,14,5,3,1.269,7,14,0.155381966,-0.389814822,1,0,0,4.1249,Peridotite_rect,7,4.125,1,10,0,10,0,1,,,,,,,,,,,,,
5ee1be444c9d75206ce5aa92,SCR,2024-06-24_18h46.16.920,LearnStrategy,2023.2.3,Win32,59.88023952,4,1,12,0.538715235,-0.288888868,1,0,0,1.3953,Peridotite_12,7,12,2,8,1.395,7,12,0.179456075,-0.394444466,1,0,0,1.5381,Peridotite_rect,7,1.538,1,11,0,11,0,1,,,,,,,,,,,,,
5ee1be444c9d75206ce5aa92,SCR,2024-06-24_18h46.16.920,LearnStrategy,2023.2.3,Win32,59.88023952,4,1,13,-0.086284701,-0.383333333,1,0,0,1.5254,Diorite_08,3,08,1,4,1.525,3,08,0.086863454,-0.264814822,1,0,0,1.4659,Diorite_rect,3,1.466,1,12,0,12,0,1,,,,,,,,,,,,,
5ee1be444c9d75206ce5aa92,SCR,2024-06-24_18h46.16.920,LearnStrategy,2023.2.3,Win32,59.88023952,4,1,14,-0.047395833,0.102777767,1,0,0,0.8588,Pegmatite_08,6,08,4,4,0.859,6,08,-0.167766126,-0.416666667,1,0,0,3.1702,Pegmatite_rect,6,3.17,1,13,0,13,0,1,,,,,,,,,,,,,
5ee1be444c9d75206ce5aa92,SCR,2024-06-24_18h46.16.920,LearnStrategy,2023.2.3,Win32,59.88023952,4,1,15,0.525752385,0.090740712,1,0,0,1.4262,Pumice_06,8,06,4,8,1.426,8,06,0.412789408,-0.405555534,1,0,0,1.1251,Pumice_rect,8,1.125,1,14,0,14,0,1,,,,,,,,,,,,,
5ee1be444c9d75206ce5aa92,SCR,2024-06-24_18h46.16.920,LearnStrategy,2023.2.3,Win32,59.88023952,4,1,16,-0.087210592,-0.234259288,1,0,0,0.9973,Basalt_04,2,04,2,4,0.997,2,04,0.310011546,-0.263888868,1,0,0,1.8859,Gabbro_rect,4,1.886,0,15,0,15,0,1,,,,,,,,,,,,,
5ee1be444c9d75206ce5aa92,SCR,2024-06-24_18h46.16.920,LearnStrategy,2023.2.3,Win32,59.88023952,4,2,1,,,,,,,,5,09,,,,,,,,,,,,,5,2.306,1,,,,,,-0.364988422,-0.388888868,1,0,0,2.3063,Obsidian_rect,0,0,0,0,1,
5ee1be444c9d75206ce5aa92,SCR,2024-06-24_18h46.16.920,LearnStrategy,2023.2.3,Win32,59.88023952,4,2,2,,,,,,,,3,09,,,,,,,,,,,,,1,2.15,0,,,,,,-0.398321756,-0.230555534,1,0,0,2.1498,Andesite_rect,1,0,1,0,1,
5ee1be444c9d75206ce5aa92,SCR,2024-06-24_18h46.16.920,LearnStrategy,2023.2.3,Win32,59.88023952,4,2,3,,,,,,,,2,12,,,,,,,,,,,,,8,1.691,0,,,,,,0.347048569,-0.411111132,1,0,0,1.6908,Pumice_rect,2,0,2,0,1,
5ee1be444c9d75206ce5aa92,SCR,2024-06-24_18h46.16.920,LearnStrategy,2023.2.3,Win32,59.88023952,4,2,4,,,,,,,,6,09,,,,,,,,,,,,,6,2.982,1,,,,,,-0.126099459,-0.412963041,1,0,0,2.9818,Pegmatite_rect,3,0,3,0,1,
5ee1be444c9d75206ce5aa92,SCR,2024-06-24_18h46.16.920,LearnStrategy,2023.2.3,Win32,59.88023952,4,2,5,,,,,,,,5,11,,,,,,,,,,,,,5,2.797,1,,,,,,-0.383506934,-0.385185242,1,0,0,2.797,Obsidian_rect,4,0,4,0,1,
5ee1be444c9d75206ce5aa92,SCR,2024-06-24_18h46.16.920,LearnStrategy,2023.2.3,Win32,59.88023952,4,2,6,,,,,,,,6,06,,,,,,,,,,,,,6,3.599,1,,,,,,-0.191840299,-0.4,1,0,0,3.5993,Pegmatite_rect,5,0,5,0,1,
5ee1be444c9d75206ce5aa92,SCR,2024-06-24_18h46.16.920,LearnStrategy,2023.2.3,Win32,59.88023952,4,2,7,,,,,,,,1,06,,,,,,,,,,,,,1,4.192,1,,,,,,-0.379803244,-0.262963041,1,0,0,4.1919,Andesite_rect,6,0,6,0,1,
5ee1be444c9d75206ce5aa92,SCR,2024-06-24_18h46.16.920,LearnStrategy,2023.2.3,Win32,59.88023952,4,2,8,,,,,,,,4,05,,,,,,,,,,,,,7,1.625,0,,,,,,0.091493034,-0.417592621,1,0,0,1.6245,Peridotite_rect,7,0,7,0,1,
5ee1be444c9d75206ce5aa92,SCR,2024-06-24_18h46.16.920,LearnStrategy,2023.2.3,Win32,59.88023952,4,2,9,,,,,,,,3,10,,,,,,,,,,,,,3,2.757,1,,,,,,0.123900477,-0.248148155,1,0,0,2.7575,Diorite_rect,8,0,8,0,1,
5ee1be444c9d75206ce5aa92,SCR,2024-06-24_18h46.16.920,LearnStrategy,2023.2.3,Win32,59.88023952,4,2,10,,,,,,,,7,16,,,,,,,,,,,,,7,2.538,1,,,,,,0.141493034,-0.405555534,1,0,0,2.538,Peridotite_rect,9,0,9,0,1,
5ee1be444c9d75206ce5aa92,SCR,2024-06-24_18h46.16.920,LearnStrategy,2023.2.3,Win32,59.88023952,4,2,11,,,,,,,,4,08,,,,,,,,,,,,,4,4.079,1,,,,,,0.356307856,-0.254629707,1,0,0,4.0787,Gabbro_rect,10,0,10,0,1,
5ee1be444c9d75206ce5aa92,SCR,2024-06-24_18h46.16.920,LearnStrategy,2023.2.3,Win32,59.88023952,4,2,12,,,,,,,,2,14,,,,,,,,,,,,,4,2.953,0,,,,,,0.383159765,-0.238888868,1,0,0,2.9525,Gabbro_rect,11,0,11,0,1,
5ee1be444c9d75206ce5aa92,SCR,2024-06-24_18h46.16.920,LearnStrategy,2023.2.3,Win32,59.88023952,4,2,13,,,,,,,,8,14,,,,,,,,,,,,,8,1.496,1,,,,,,0.412789408,-0.400925954,1,0,0,1.4961,Pumice_rect,12,0,12,0,1,
5ee1be444c9d75206ce5aa92,SCR,2024-06-24_18h46.16.920,LearnStrategy,2023.2.3,Win32,59.88023952,4,2,14,,,,,,,,8,16,,,,,,,,,,,,,8,3.752,1,,,,,,0.393344879,-0.405555534,1,0,0,3.752,Pumice_rect,13,0,13,0,1,
5ee1be444c9d75206ce5aa92,SCR,2024-06-24_18h46.16.920,LearnStrategy,2023.2.3,Win32,59.88023952,4,2,15,,,,,,,,1,11,,,,,,,,,,,,,2,4.797,0,,,,,,-0.152951368,-0.251851908,1,0,0,4.7972,Basalt_rect,14,0,14,0,1,
5ee1be444c9d75206ce5aa92,SCR,2024-06-24_18h46.16.920,LearnStrategy,2023.2.3,Win32,59.88023952,4,2,16,,,,,,,,7,15,,,,,,,,,,,,,7,1.148,1,,,,,,0.143344943,-0.415740776,1,0,0,1.1483,Peridotite_rect,15,0,15,0,1,
5ee1be444c9d75206ce5aa92,SCR,2024-06-24_18h46.16.920,LearnStrategy,2023.2.3,Win32,59.88023952,5,1,1,0.083159701,0.106481489,1,0,0,0.9809,Basalt_02,2,02,4,5,0.981,2,02,0.358159765,-0.237037023,1,0,0,2.8807,Gabbro_rect,4,2.881,0,0,0,0,0,1,,,,,,,,,,,,,
5ee1be444c9d75206ce5aa92,SCR,2024-06-24_18h46.16.920,LearnStrategy,2023.2.3,Win32,59.88023952,5,1,2,-0.499247646,0.07870369,1,0,0,2.188,Peridotite_04,7,04,4,1,2.188,7,04,0.098900477,-0.37870369,1,0,0,2.1548,Peridotite_rect,7,2.155,1,1,0,1,0,1,,,,,,,,,,,,,
5ee1be444c9d75206ce5aa92,SCR,2024-06-24_18h46.16.920,LearnStrategy,2023.2.3,Win32,59.88023952,5,1,3,0.063715299,0.243518511,1,0,0,1.4846,Andesite_02,1,02,5,5,1.485,1,02,0.096122678,-0.239814822,1,0,0,4.7003,Diorite_rect,3,4.7,0,2,0,2,0,1,,,,,,,,,,,,,
5ee1be444c9d75206ce5aa92,SCR,2024-06-24_18h46.16.920,LearnStrategy,2023.2.3,Win32,59.88023952,5,1,4,0.191493098,0.400925922,1,0,0,1.7751,Basalt_09,2,09,6,6,1.775,2,09,-0.127025477,-0.234259288,1,0,0,4.3324,Basalt_rect,2,4.332,1,3,0,3,0,1,,,,,,,,,,,,,
5ee1be444c9d75206ce5aa92,SCR,2024-06-24_18h46.16.920,LearnStrategy,2023.2.3,Win32,59.88023952,5,1,5,-0.046469879,0.105555566,1,0,0,0.8302,Pegmatite_08,6,08,4,4,0.83,6,08,-0.145543925,-0.398148155,1,0,0,1.7895,Pegmatite_rect,6,1.789,1,4,0,4,0,1,,,,,,,,,,,,,
5ee1be444c9d75206ce5aa92,SCR,2024-06-24_18h46.16.920,LearnStrategy,2023.2.3,Win32,59.88023952,5,1,6,-0.384432856,-0.234259288,1,0,0,1.2059,Pumice_10,8,10,2,2,1.206,8,10,0.122048632,-0.401851908,1,0,0,3.5396,Peridotite_rect,7,3.54,0,5,0,5,0,1,,,,,,,,,,,,,
5ee1be444c9d75206ce5aa92,SCR,2024-06-24_18h46.16.920,LearnStrategy,2023.2.3,Win32,59.88023952,5,1,7,0.288715235,-0.289814822,1,0,0,1.0465,Basalt_10,2,10,2,6,1.047,2,10,0.344270833,-0.237963041,1,0,0,2.6133,Gabbro_rect,4,2.613,0,6,0,6,0,1,,,,,,,,,,,,,
5ee1be444c9d75206ce5aa92,SCR,2024-06-24_18h46.16.920,LearnStrategy,2023.2.3,Win32,59.88023952,5,1,8,0.219270833,0.382407403,1,0,0,1.242,Basalt_09,2,09,6,6,1.242,2,09,-0.122395833,-0.257407443,1,0,0,2.5101,Basalt_rect,2,2.51,1,7,0,7,0,1,,,,,,,,,,,,,
5ee1be444c9d75206ce5aa92,SCR,2024-06-24_18h46.16.920,LearnStrategy,2023.2.3,Win32,59.88023952,5,1,9,0.088715299,0.109259256,1,0,0,1.0285,Basalt_02,2,02,4,5,1.028,4,14,-0.147395833,-0.240740776,1,0,0,1.4489,Basalt_rect,2,1.449,1,8,0,8,0,1,,,,,,,,,,,,,
5ee1be444c9d75206ce5aa92,SCR,2024-06-24_18h46.16.920,LearnStrategy,2023.2.3,Win32,59.88023952,5,1,10,0.063715299,0.218518511,1,0,0,1.28,Andesite_02,1,02,5,5,1.28,1,02,-0.509432856,-0.241666667,1,0,0,5.296,Andesite_rect,1,5.296,1,9,0,9,0,1,,,,,,,,,,,,,
5ee1be444c9d75206ce5aa92,SCR,2024-06-24_18h46.16.920,LearnStrategy,2023.2.3,Win32,59.88023952,5,1,11,-0.503877322,0.086111101,1,0,0,1.5254,Peridotite_04,7,04,4,1,1.525,7,04,0.150752322,-0.387037023,1,0,0,2.1539,Peridotite_rect,7,2.154,1,10,0,10,0,1,,,,,,,,,,,,,
5ee1be444c9d75206ce5aa92,SCR,2024-06-24_18h46.16.920,LearnStrategy,2023.2.3,Win32,59.88023952,5,1,12,-0.104803212,-0.098148155,1,0,0,0.8297,Pegmatite_11,6,11,3,4,0.83,6,11,-0.120543925,-0.396296374,1,0,0,2.9905,Pegmatite_rect,6,2.991,1,11,0,11,0,1,,,,,,,,,,,,,
5ee1be444c9d75206ce5aa92,SCR,2024-06-24_18h46.16.920,LearnStrategy,2023.2.3,Win32,59.88023952,5,1,13,0.220196788,-0.129629644,1,0,0,1.0923,Gabbro_09,4,09,3,6,1.092,4,09,-0.075173632,-0.251851908,1,0,0,3.8518,Basalt_rect,2,3.852,0,12,0,12,0,1,,,,,,,,,,,,,
5ee1be444c9d75206ce5aa92,SCR,2024-06-24_18h46.16.920,LearnStrategy,2023.2.3,Win32,59.88023952,5,1,14,0.260011546,-0.125925954,1,0,0,1.1453,Gabbro_09,4,09,3,6,1.145,4,09,0.410011546,-0.235185242,1,0,0,1.2243,Gabbro_rect,4,1.224,1,13,0,13,0,1,,,,,,,,,,,,,
5ee1be444c9d75206ce5aa92,SCR,2024-06-24_18h46.16.920,LearnStrategy,2023.2.3,Win32,59.88023952,5,1,15,0.513715235,-0.092592621,1,0,0,1.6967,Diorite_11,3,11,3,8,1.697,3,11,0.13223381,-0.261111132,1,0,0,2.1712,Diorite_rect,3,2.171,1,14,0,14,0,1,,,,,,,,,,,,,
5ee1be444c9d75206ce5aa92,SCR,2024-06-24_18h46.16.920,LearnStrategy,2023.2.3,Win32,59.88023952,5,1,16,0.516493098,-0.268518575,1,0,0,2.1296,Peridotite_12,7,12,2,8,2.13,3,11,0.163715299,-0.391666667,1,0,0,1.5809,Peridotite_rect,7,1.581,1,15,0,15,0,1,,,,,,,,,,,,,
5ee1be444c9d75206ce5aa92,SCR,2024-06-24_18h46.16.920,LearnStrategy,2023.2.3,Win32,59.88023952,5,2,1,,,,,,,,8,02,,,,,,,,,,,,,8,5.503,1,,,,,,0.3609375,-0.409259288,1,0,0,5.5026,Pumice_rect,0,0,0,0,1,
5ee1be444c9d75206ce5aa92,SCR,2024-06-24_18h46.16.920,LearnStrategy,2023.2.3,Win32,59.88023952,5,2,2,,,,,,,,8,09,,,,,,,,,,,,,8,1.219,1,,,,,,0.405381902,-0.388888868,1,0,0,1.2195,Pumice_rect,1,0,1,0,1,
5ee1be444c9d75206ce5aa92,SCR,2024-06-24_18h46.16.920,LearnStrategy,2023.2.3,Win32,59.88023952,5,2,3,,,,,,,,5,16,,,,,,,,,,,,,5,1.788,1,,,,,,-0.389988422,-0.404629707,1,0,0,1.7882,Obsidian_rect,2,0,2,0,1,
5ee1be444c9d75206ce5aa92,SCR,2024-06-24_18h46.16.920,LearnStrategy,2023.2.3,Win32,59.88023952,5,2,4,,,,,,,,4,11,,,,,,,,,,,,,2,3.152,0,,,,,,-0.131655057,-0.235185242,1,0,0,3.1523,Basalt_rect,3,0,3,0,1,
5ee1be444c9d75206ce5aa92,SCR,2024-06-24_18h46.16.920,LearnStrategy,2023.2.3,Win32,59.88023952,5,2,5,,,,,,,,7,02,,,,,,,,,,,,,7,3.799,1,,,,,,0.092418989,-0.404629707,1,0,0,3.7994,Peridotite_rect,4,0,4,0,1,
5ee1be444c9d75206ce5aa92,SCR,2024-06-24_18h46.16.920,LearnStrategy,2023.2.3,Win32,59.88023952,5,2,6,,,,,,,,2,08,,,,,,,,,,,,,2,7.628,1,,,,,,-0.154803212,-0.246296374,1,0,0,7.6275,Basalt_rect,5,0,5,0,1,
5ee1be444c9d75206ce5aa92,SCR,2024-06-24_18h46.16.920,LearnStrategy,2023.2.3,Win32,59.88023952,5,2,7,,,,,,,,1,16,,,,,,,,,,,,,3,2.743,0,,,,,,0.112789345,-0.250925954,1,0,0,2.7429,Diorite_rect,6,0,6,0,1,
5ee1be444c9d75206ce5aa92,SCR,2024-06-24_18h46.16.920,LearnStrategy,2023.2.3,Win32,59.88023952,5,2,8,,,,,,,,3,02,,,,,,,,,,,,,7,4.185,0,,,,,,0.127604167,-0.412963041,1,0,0,4.1852,Peridotite_rect,7,0,7,0,1,
5ee1be444c9d75206ce5aa92,SCR,2024-06-24_18h46.16.920,LearnStrategy,2023.2.3,Win32,59.88023952,5,2,9,,,,,,,,3,06,,,,,,,,,,,,,1,6.547,0,,,,,,-0.381655089,-0.258333333,1,0,0,6.5467,Andesite_rect,8,0,8,0,1,
5ee1be444c9d75206ce5aa92,SCR,2024-06-24_18h46.16.920,LearnStrategy,2023.2.3,Win32,59.88023952,5,2,10,,,,,,,,6,07,,,,,,,,,,,,,6,1.727,1,,,,,,-0.090914345,-0.401851908,1,0,0,1.7273,Pegmatite_rect,9,0,9,0,1,
5ee1be444c9d75206ce5aa92,SCR,2024-06-24_18h46.16.920,LearnStrategy,2023.2.3,Win32,59.88023952,5,2,11,,,,,,,,2,06,,,,,,,,,,,,,2,4.147,1,,,,,,-0.146469879,-0.252777799,1,0,0,4.1473,Basalt_rect,10,0,10,0,1,
5ee1be444c9d75206ce5aa92,SCR,2024-06-24_18h46.16.920,LearnStrategy,2023.2.3,Win32,59.88023952,5,2,12,,,,,,,,7,06,,,,,,,,,,,,,7,2.383,1,,,,,,0.096122678,-0.401851908,1,0,0,2.3833,Peridotite_rect,11,0,11,0,1,
5ee1be444c9d75206ce5aa92,SCR,2024-06-24_18h46.16.920,LearnStrategy,2023.2.3,Win32,59.88023952,5,2,13,,,,,,,,4,16,,,,,,,,,,,,,4,7.153,1,,,,,,0.384085719,-0.262963041,1,0,0,7.1527,Gabbro_rect,12,0,12,0,1,
5ee1be444c9d75206ce5aa92,SCR,2024-06-24_18h46.16.920,LearnStrategy,2023.2.3,Win32,59.88023952,5,2,14,,,,,,,,6,12,,,,,,,,,,,,,6,2.276,1,,,,,,-0.159432793,-0.391666667,1,0,0,2.2758,Pegmatite_rect,13,0,13,0,1,
5ee1be444c9d75206ce5aa92,SCR,2024-06-24_18h46.16.920,LearnStrategy,2023.2.3,Win32,59.88023952,5,2,15,,,,,,,,5,04,,,,,,,,,,,,,5,1.356,1,,,,,,-0.378877322,-0.398148155,1,0,0,1.3556,Obsidian_rect,14,0,14,0,1,
5ee1be444c9d75206ce5aa92,SCR,2024-06-24_18h46.16.920,LearnStrategy,2023.2.3,Win32,59.88023952,5,2,16,,,,,,,,1,01,,,,,,,,,,,,,3,3.265,0,,,,,,0.146122678,-0.237963041,1,0,0,3.2649,Diorite_rect,15,0,15,0,1,
5ee1be444c9d75206ce5aa92,SCR,2024-06-24_18h46.16.920,LearnStrategy,2023.2.3,Win32,59.88023952,6,1,1,0.069270833,0.215740744,1,0,0,1.4602,Andesite_02,1,02,5,5,1.46,1,02,-0.407581011,-0.249074109,1,0,0,2.2455,Andesite_rect,1,2.245,1,0,0,0,0,1,,,,,,,,,,,,,
5ee1be444c9d75206ce5aa92,SCR,2024-06-24_18h46.16.920,LearnStrategy,2023.2.3,Win32,59.88023952,6,1,2,-0.227025477,-0.402777799,1,0,0,1.2134,Basalt_16,2,16,1,3,1.213,2,16,-0.130729167,-0.240740776,1,0,0,1.5261,Basalt_rect,2,1.526,1,1,0,1,0,1,,,,,,,,,,,,,
5ee1be444c9d75206ce5aa92,SCR,2024-06-24_18h46.16.920,LearnStrategy,2023.2.3,Win32,59.88023952,6,1,3,-0.423321756,-0.420370356,1,0,0,1.1273,Andesite_10,1,10,1,2,1.127,1,10,-0.08535881,-0.247222201,1,0,0,6.6425,Basalt_rect,2,6.643,0,2,0,2,0,1,,,,,,,,,,,,,
5ee1be444c9d75206ce5aa92,SCR,2024-06-24_18h46.16.920,LearnStrategy,2023.2.3,Win32,59.88023952,6,1,4,0.400752385,0.105555566,1,0,0,1.4088,Gabbro_01,4,01,4,7,1.409,4,01,0.117418989,-0.407407443,1,0,0,2.4127,Peridotite_rect,7,2.413,0,3,0,3,0,1,,,,,,,,,,,,,
5ee1be444c9d75206ce5aa92,SCR,2024-06-24_18h46.16.920,LearnStrategy,2023.2.3,Win32,59.88023952,6,1,5,-0.527025445,-0.12129631,1,0,0,1.6567,Diorite_14,3,14,3,1,1.657,3,14,0.115567144,-0.260185242,1,0,0,2.4214,Diorite_rect,3,2.421,1,4,0,4,0,1,,,,,,,,,,,,,
5ee1be444c9d75206ce5aa92,SCR,2024-06-24_18h46.16.920,LearnStrategy,2023.2.3,Win32,59.88023952,6,1,6,0.076678276,-0.425,1,0,0,1.238,Peridotite_07,7,07,1,5,1.238,7,07,0.122974523,-0.394444466,1,0,0,1.5645,Peridotite_rect,7,1.564,1,5,0,5,0,1,,,,,,,,,,,,,
5ee1be444c9d75206ce5aa92,SCR,2024-06-24_18h46.16.920,LearnStrategy,2023.2.3,Win32,59.88023952,6,1,7,0.515567144,-0.399074109,1,0,0,1.0955,Andesite_09,1,09,1,8,1.095,1,09,-0.102025477,-0.243518575,1,0,0,2.8779,Basalt_rect,2,2.878,0,6,0,6,0,1,,,,,,,,,,,,,
5ee1be444c9d75206ce5aa92,SCR,2024-06-24_18h46.16.920,LearnStrategy,2023.2.3,Win32,59.88023952,6,1,8,-0.104803212,-0.262037023,1,0,0,0.9696,Basalt_04,2,04,2,4,0.97,2,04,-0.104803212,-0.257407443,1,0,0,0.9105,Basalt_rect,2,0.91,1,7,0,7,0,1,,,,,,,,,,,,,
5ee1be444c9d75206ce5aa92,SCR,2024-06-24_18h46.16.920,LearnStrategy,2023.2.3,Win32,59.88023952,6,1,9,0.527604167,-0.102777799,1,0,0,1.1464,Diorite_11,3,11,3,8,1.146,3,11,0.124826368,-0.232407443,1,0,0,3.3537,Diorite_rect,3,3.354,1,8,0,8,0,1,,,,,,,,,,,,,
5ee1be444c9d75206ce5aa92,SCR,2024-06-24_18h46.16.920,LearnStrategy,2023.2.3,Win32,59.88023952,6,1,10,-0.221469879,-0.256481489,1,0,0,1.8789,Gabbro_14,4,14,2,3,1.879,4,14,0.342419052,-0.236111132,1,0,0,5.9055,Gabbro_rect,4,5.906,1,9,0,9,0,1,,,,,,,,,,,,,
5ee1be444c9d75206ce5aa92,SCR,2024-06-24_18h46.16.920,LearnStrategy,2023.2.3,Win32,59.88023952,6,1,11,-0.206655057,-0.054629644,1,0,0,1.0965,Diorite_16,3,16,3,3,1.096,3,16,-0.364988422,-0.242592621,1,0,0,1.5305,Andesite_rect,1,1.531,0,10,0,10,0,1,,,,,,,,,,,,,
5ee1be444c9d75206ce5aa92,SCR,2024-06-24_18h46.16.920,LearnStrategy,2023.2.3,Win32,59.88023952,6,1,12,-0.59276619,0.261111116,1,0,0,2.2296,Gabbro_12,4,12,5,1,2.23,4,12,-0.147395833,-0.271296374,1,0,0,2.2503,Basalt_rect,2,2.25,0,11,0,11,0,1,,,,,,,,,,,,,
5ee1be444c9d75206ce5aa92,SCR,2024-06-24_18h46.16.920,LearnStrategy,2023.2.3,Win32,59.88023952,6,1,13,0.554456075,0.116666667,1,0,0,1.2585,Pumice_06,8,06,4,8,1.259,8,06,0.326678212,-0.414814822,1,0,0,1.4888,Pumice_rect,8,1.489,1,12,0,12,0,1,,,,,,,,,,,,,
5ee1be444c9d75206ce5aa92,SCR,2024-06-24_18h46.16.920,LearnStrategy,2023.2.3,Win32,59.88023952,6,1,14,0.245196788,0.361111116,1,0,0,1.4635,Basalt_09,2,09,6,6,1.463,2,09,-0.151099459,-0.266666667,1,0,0,2.7711,Basalt_rect,2,2.771,1,13,0,13,0,1,,,,,,,,,,,,,
5ee1be444c9d75206ce5aa92,SCR,2024-06-24_18h46.16.920,LearnStrategy,2023.2.3,Win32,59.88023952,6,1,15,0.042418989,0.380555558,1,0,0,1.9828,Diorite_07,3,07,6,5,1.983,3,07,-0.444618066,-0.251851908,1,0,0,2.2156,Andesite_rect,1,2.216,0,14,0,14,0,1,,,,,,,,,,,,,
5ee1be444c9d75206ce5aa92,SCR,2024-06-24_18h46.16.920,LearnStrategy,2023.2.3,Win32,59.88023952,6,1,16,-0.366840267,0.397222225,1,0,0,1.4982,Pegmatite_10,6,10,6,2,1.498,6,10,-0.154803212,-0.398148155,1,0,0,3.1378,Pegmatite_rect,6,3.138,1,15,0,15,0,1,,,,,,,,,,,,,
5ee1be444c9d75206ce5aa92,SCR,2024-06-24_18h46.16.920,LearnStrategy,2023.2.3,Win32,59.88023952,6,2,1,,,,,,,,8,08,,,,,,,,,,,,,8,2.258,1,,,,,,0.397048569,-0.412037023,1,0,0,2.2583,Pumice_rect,0,0,0,0,1,
5ee1be444c9d75206ce5aa92,SCR,2024-06-24_18h46.16.920,LearnStrategy,2023.2.3,Win32,59.88023952,6,2,2,,,,,,,,4,03,,,,,,,,,,,,,2,7.234,0,,,,,,-0.197395833,-0.240740776,1,0,0,7.2342,Basalt_rect,1,0,1,0,1,
5ee1be444c9d75206ce5aa92,SCR,2024-06-24_18h46.16.920,LearnStrategy,2023.2.3,Win32,59.88023952,6,2,3,,,,,,,,3,15,,,,,,,,,,,,,3,5.419,1,,,,,,0.061863454,-0.241666667,1,0,0,5.4189,Diorite_rect,2,0,2,0,1,
5ee1be444c9d75206ce5aa92,SCR,2024-06-24_18h46.16.920,LearnStrategy,2023.2.3,Win32,59.88023952,6,2,4,,,,,,,,2,01,,,,,,,,,,,,,2,4.798,1,,,,,,-0.099247678,-0.258333333,1,0,0,4.7983,Basalt_rect,3,0,3,0,1,
5ee1be444c9d75206ce5aa92,SCR,2024-06-24_18h46.16.920,LearnStrategy,2023.2.3,Win32,59.88023952,6,2,5,,,,,,,,3,12,,,,,,,,,,,,,3,5.548,1,,,,,,0.137789345,-0.254629707,1,0,0,5.5475,Diorite_rect,4,0,4,0,1,
5ee1be444c9d75206ce5aa92,SCR,2024-06-24_18h46.16.920,LearnStrategy,2023.2.3,Win32,59.88023952,6,2,6,,,,,,,,4,15,,,,,,,,,,,,,3,1.625,0,,,,,,0.088715299,-0.252777799,1,0,0,1.6249,Diorite_rect,5,0,5,0,1,
5ee1be444c9d75206ce5aa92,SCR,2024-06-24_18h46.16.920,LearnStrategy,2023.2.3,Win32,59.88023952,6,2,7,,,,,,,,1,14,,,,,,,,,,,,,8,7.978,0,,,,,,0.351678212,-0.401851908,1,0,0,7.9777,Pumice_rect,6,0,6,0,1,
5ee1be444c9d75206ce5aa92,SCR,2024-06-24_18h46.16.920,LearnStrategy,2023.2.3,Win32,59.88023952,6,2,8,,,,,,,,5,14,,,,,,,,,,,,,5,1.904,1,,,,,,-0.355729167,-0.397222201,1,0,0,1.9035,Obsidian_rect,7,0,7,0,1,
5ee1be444c9d75206ce5aa92,SCR,2024-06-24_18h46.16.920,LearnStrategy,2023.2.3,Win32,59.88023952,6,2,9,,,,,,,,1,04,,,,,,,,,,,,,2,3.186,0,,,,,,-0.116840299,-0.240740776,1,0,0,3.1859,Basalt_rect,8,0,8,0,1,
5ee1be444c9d75206ce5aa92,SCR,2024-06-24_18h46.16.920,LearnStrategy,2023.2.3,Win32,59.88023952,6,2,10,,,,,,,,6,15,,,,,,,,,,,,,6,1.702,1,,,,,,-0.150173632,-0.388888868,1,0,0,1.7024,Pegmatite_rect,9,0,9,0,1,
5ee1be444c9d75206ce5aa92,SCR,2024-06-24_18h46.16.920,LearnStrategy,2023.2.3,Win32,59.88023952,6,2,11,,,,,,,,7,08,,,,,,,,,,,,,7,4.953,1,,,,,,0.083159701,-0.387037023,1,0,0,4.9527,Peridotite_rect,10,0,10,0,1,
5ee1be444c9d75206ce5aa92,SCR,2024-06-24_18h46.16.920,LearnStrategy,2023.2.3,Win32,59.88023952,6,2,12,,,,,,,,5,12,,,,,,,,,,,,,5,1.501,1,,,,,,-0.36776619,-0.383333333,1,0,0,1.501,Obsidian_rect,11,0,11,0,1,
5ee1be444c9d75206ce5aa92,SCR,2024-06-24_18h46.16.920,LearnStrategy,2023.2.3,Win32,59.88023952,6,2,13,,,,,,,,7,10,,,,,,,,,,,,,7,1.25,1,,,,,,0.087789345,-0.414814822,1,0,0,1.2498,Peridotite_rect,12,0,12,0,1,
5ee1be444c9d75206ce5aa92,SCR,2024-06-24_18h46.16.920,LearnStrategy,2023.2.3,Win32,59.88023952,6,2,14,,,,,,,,2,05,,,,,,,,,,,,,2,1.513,1,,,,,,-0.084432793,-0.25,1,0,0,1.5125,Basalt_rect,13,0,13,0,1,
5ee1be444c9d75206ce5aa92,SCR,2024-06-24_18h46.16.920,LearnStrategy,2023.2.3,Win32,59.88023952,6,2,15,,,,,,,,6,03,,,,,,,,,,,,,6,1.839,1,,,,,,-0.100173632,-0.410185242,1,0,0,1.8389,Pegmatite_rect,14,0,14,0,1,
5ee1be444c9d75206ce5aa92,SCR,2024-06-24_18h46.16.920,LearnStrategy,2023.2.3,Win32,59.88023952,6,2,16,,,,,,,,8,04,,,,,,,,,,,,,8,3.499,1,,,,,,0.404456075,-0.408333333,1,0,0,3.4986,Pumice_rect,15,0,15,0,1,
5ee1be444c9d75206ce5aa92,SCR,2024-06-24_18h46.16.920,LearnStrategy,2023.2.3,Win32,59.88023952,7,1,1,0.070196788,-0.077777799,1,0,0,1.1302,Diorite_13,3,13,3,5,1.13,3,13,-0.390914345,-0.262037023,1,0,0,3.0119,Andesite_rect,1,3.012,0,0,0,0,0,1,,,,,,,,,,,,,
5ee1be444c9d75206ce5aa92,SCR,2024-06-24_18h46.16.920,LearnStrategy,2023.2.3,Win32,59.88023952,7,1,2,0.2359375,-0.089814822,1,0,0,1.0463,Gabbro_09,4,09,3,6,1.046,4,09,0.373900477,-0.244444466,1,0,0,3.3443,Gabbro_rect,4,3.344,1,1,0,1,0,1,,,,,,,,,,,,,
5ee1be444c9d75206ce5aa92,SCR,2024-06-24_18h46.16.920,LearnStrategy,2023.2.3,Win32,59.88023952,7,1,3,0.546122742,0.387037039,1,0,0,1.5904,Basalt_11,2,11,6,8,1.59,2,11,-0.099247678,-0.255555534,1,0,0,2.1963,Basalt_rect,2,2.196,1,2,0,2,0,1,,,,,,,,,,,,,
5ee1be444c9d75206ce5aa92,SCR,2024-06-24_18h46.16.920,LearnStrategy,2023.2.3,Win32,59.88023952,7,1,4,0.218344879,-0.261111132,1,0,0,0.9459,Basalt_10,2,10,2,6,0.946,2,10,-0.072395833,-0.25370369,1,0,0,2.1818,Basalt_rect,2,2.182,1,3,0,3,0,1,,,,,,,,,,,,,
5ee1be444c9d75206ce5aa92,SCR,2024-06-24_18h46.16.920,LearnStrategy,2023.2.3,Win32,59.88023952,7,1,5,-0.503877322,0.235185178,1,0,0,3.2784,Gabbro_12,4,12,5,1,3.278,4,12,-0.093692144,-0.248148155,1,0,0,4.8578,Basalt_rect,2,4.858,0,4,0,4,0,1,,,,,,,,,,,,,
5ee1be444c9d75206ce5aa92,SCR,2024-06-24_18h46.16.920,LearnStrategy,2023.2.3,Win32,59.88023952,7,1,6,-0.506655089,0.087962945,1,0,0,1.3728,Peridotite_04,7,04,4,1,1.373,7,04,0.18964119,-0.385185242,1,0,0,1.8924,Peridotite_rect,7,1.892,1,5,0,5,0,1,,,,,,,,,,,,,
5ee1be444c9d75206ce5aa92,SCR,2024-06-24_18h46.16.920,LearnStrategy,2023.2.3,Win32,59.88023952,7,1,7,0.388715235,-0.441666667,1,0,0,1.6105,Andesite_03,1,03,1,7,1.61,1,03,0.121122678,-0.238888868,1,0,0,2.5199,Diorite_rect,3,2.52,0,6,0,6,0,1,,,,,,,,,,,,,
5ee1be444c9d75206ce5aa92,SCR,2024-06-24_18h46.16.920,LearnStrategy,2023.2.3,Win32,59.88023952,7,1,8,-0.075173632,0.406481481,1,0,0,1.6937,Andesite_05,1,05,6,4,1.694,1,05,-0.431655089,-0.255555534,1,0,0,1.5216,Andesite_rect,1,1.522,1,7,0,7,0,1,,,,,,,,,,,,,
5ee1be444c9d75206ce5aa92,SCR,2024-06-24_18h46.16.920,LearnStrategy,2023.2.3,Win32,59.88023952,7,1,9,0.091493034,-0.066666667,1,0,0,0.8128,Diorite_13,3,13,3,5,0.813,3,13,0.135011609,-0.237037023,1,0,0,2.108,Diorite_rect,3,2.108,1,8,0,8,0,1,,,,,,,,,,,,,
5ee1be444c9d75206ce5aa92,SCR,2024-06-24_18h46.16.920,LearnStrategy,2023.2.3,Win32,59.88023952,7,1,10,-0.358506934,0.39907407,1,0,0,1.4452,Pegmatite_10,6,10,6,2,1.445,6,10,-0.149247678,-0.393518575,1,0,0,1.9952,Pegmatite_rect,6,1.995,1,9,0,9,0,1,,,,,,,,,,,,,
5ee1be444c9d75206ce5aa92,SCR,2024-06-24_18h46.16.920,LearnStrategy,2023.2.3,Win32,59.88023952,7,1,11,0.060011609,0.238888884,1,0,0,1.191,Andesite_02,1,02,5,5,1.191,1,02,-0.406655089,-0.239814822,1,0,0,2.2035,Andesite_rect,1,2.204,1,10,0,10,0,1,,,,,,,,,,,,,
5ee1be444c9d75206ce5aa92,SCR,2024-06-24_18h46.16.920,LearnStrategy,2023.2.3,Win32,59.88023952,7,1,12,-0.502951399,-0.424074109,1,0,0,1.6016,Pumice_03,8,03,1,1,1.602,8,03,0.317419052,-0.398148155,1,0,0,1.6426,Pumice_rect,8,1.643,1,11,0,11,0,1,,,,,,,,,,,,,
5ee1be444c9d75206ce5aa92,SCR,2024-06-24_18h46.16.920,LearnStrategy,2023.2.3,Win32,59.88023952,7,1,13,-0.21035881,-0.068518511,1,0,0,1.0141,Diorite_16,3,16,3,3,1.014,3,16,0.11464119,-0.246296374,1,0,0,1.9028,Diorite_rect,3,1.903,1,12,0,12,0,1,,,,,,,,,,,,,
5ee1be444c9d75206ce5aa92,SCR,2024-06-24_18h46.16.920,LearnStrategy,2023.2.3,Win32,59.88023952,7,1,14,-0.540914345,0.257407411,1,0,0,1.7803,Gabbro_12,4,12,5,1,1.78,4,12,-0.102025477,-0.259259288,1,0,0,2.4329,Basalt_rect,2,2.433,0,13,0,13,0,1,,,,,,,,,,,,,
5ee1be444c9d75206ce5aa92,SCR,2024-06-24_18h46.16.920,LearnStrategy,2023.2.3,Win32,59.88023952,7,1,15,0.226678212,0.1,1,0,0,0.919,Andesite_07,1,07,4,6,0.919,1,07,0.097048632,-0.256481489,1,0,0,1.2084,Diorite_rect,3,1.208,0,14,0,14,0,1,,,,,,,,,,,,,
5ee1be444c9d75206ce5aa92,SCR,2024-06-24_18h46.16.920,LearnStrategy,2023.2.3,Win32,59.88023952,7,1,16,-0.289988391,-0.282407443,1,0,0,1.0963,Gabbro_14,4,14,2,3,1.096,4,14,-0.053877258,-0.261111132,1,0,0,2.2556,Basalt_rect,2,2.256,0,15,0,15,0,1,,,,,,,,,,,,,
5ee1be444c9d75206ce5aa92,SCR,2024-06-24_18h46.16.920,LearnStrategy,2023.2.3,Win32,59.88023952,7,2,1,,,,,,,,1,11,,,,,,,,,,,,,1,2.826,1,,,,,,-0.353877322,-0.235185242,1,0,0,2.8256,Andesite_rect,0,0,0,0,1,
5ee1be444c9d75206ce5aa92,SCR,2024-06-24_18h46.16.920,LearnStrategy,2023.2.3,Win32,59.88023952,7,2,2,,,,,,,,7,08,,,,,,,,,,,,,7,4.456,1,,,,,,0.124826368,-0.387963041,1,0,0,4.4564,Peridotite_rect,1,0,1,0,1,
5ee1be444c9d75206ce5aa92,SCR,2024-06-24_18h46.16.920,LearnStrategy,2023.2.3,Win32,59.88023952,7,2,3,,,,,,,,2,12,,,,,,,,,,,,,8,1.761,0,,,,,,0.356307856,-0.384259288,1,0,0,1.761,Pumice_rect,2,0,2,0,1,
5ee1be444c9d75206ce5aa92,SCR,2024-06-24_18h46.16.920,LearnStrategy,2023.2.3,Win32,59.88023952,7,2,4,,,,,,,,6,09,,,,,,,,,,,,,6,3.322,1,,,,,,-0.166840299,-0.390740776,1,0,0,3.322,Pegmatite_rect,3,0,3,0,1,
5ee1be444c9d75206ce5aa92,SCR,2024-06-24_18h46.16.920,LearnStrategy,2023.2.3,Win32,59.88023952,7,2,5,,,,,,,,1,06,,,,,,,,,,,,,1,2.715,1,,,,,,-0.363136578,-0.232407443,1,0,0,2.7145,Andesite_rect,4,0,4,0,1,
5ee1be444c9d75206ce5aa92,SCR,2024-06-24_18h46.16.920,LearnStrategy,2023.2.3,Win32,59.88023952,7,2,6,,,,,,,,8,09,,,,,,,,,,,,,8,1.723,1,,,,,,0.366493098,-0.395370356,1,0,0,1.7229,Pumice_rect,5,0,5,0,1,
5ee1be444c9d75206ce5aa92,SCR,2024-06-24_18h46.16.920,LearnStrategy,2023.2.3,Win32,59.88023952,7,2,7,,,,,,,,7,02,,,,,,,,,,,,,7,1.165,1,,,,,,0.175752322,-0.4,1,0,0,1.1654,Peridotite_rect,6,0,6,0,1,
5ee1be444c9d75206ce5aa92,SCR,2024-06-24_18h46.16.920,LearnStrategy,2023.2.3,Win32,59.88023952,7,2,8,,,,,,,,5,12,,,,,,,,,,,,,5,1.672,1,,,,,,-0.362210655,-0.395370356,1,0,0,1.6719,Obsidian_rect,7,0,7,0,1,
5ee1be444c9d75206ce5aa92,SCR,2024-06-24_18h46.16.920,LearnStrategy,2023.2.3,Win32,59.88023952,7,2,9,,,,,,,,4,05,,,,,,,,,,,,,4,3.638,1,,,,,,0.398900477,-0.265740776,1,0,0,3.6377,Gabbro_rect,8,0,8,0,1,
5ee1be444c9d75206ce5aa92,SCR,2024-06-24_18h46.16.920,LearnStrategy,2023.2.3,Win32,59.88023952,7,2,10,,,,,,,,5,16,,,,,,,,,,,,,5,1.644,1,,,,,,-0.406655089,-0.383333333,1,0,0,1.6437,Obsidian_rect,9,0,9,0,1,
5ee1be444c9d75206ce5aa92,SCR,2024-06-24_18h46.16.920,LearnStrategy,2023.2.3,Win32,59.88023952,7,2,11,,,,,,,,2,14,,,,,,,,,,,,,4,4.29,0,,,,,,0.350752385,-0.255555534,1,0,0,4.2902,Gabbro_rect,10,0,10,0,1,
5ee1be444c9d75206ce5aa92,SCR,2024-06-24_18h46.16.920,LearnStrategy,2023.2.3,Win32,59.88023952,7,2,12,,,,,,,,3,10,,,,,,,,,,,,,3,2.604,1,,,,,,0.067418989,-0.239814822,1,0,0,2.6042,Diorite_rect,11,0,11,0,1,
5ee1be444c9d75206ce5aa92,SCR,2024-06-24_18h46.16.920,LearnStrategy,2023.2.3,Win32,59.88023952,7,2,13,,,,,,,,8,08,,,,,,,,,,,,,8,1.79,1,,,,,,0.370196788,-0.407407443,1,0,0,1.7898,Pumice_rect,12,0,12,0,1,
5ee1be444c9d75206ce5aa92,SCR,2024-06-24_18h46.16.920,LearnStrategy,2023.2.3,Win32,59.88023952,7,2,14,,,,,,,,6,07,,,,,,,,,,,,,6,1.483,1,,,,,,-0.156655057,-0.407407443,1,0,0,1.4831,Pegmatite_rect,13,0,13,0,1,
5ee1be444c9d75206ce5aa92,SCR,2024-06-24_18h46.16.920,LearnStrategy,2023.2.3,Win32,59.88023952,7,2,15,,,,,,,,3,12,,,,,,,,,,,,,3,4.824,1,,,,,,0.058159701,-0.258333333,1,0,0,4.8236,Diorite_rect,14,0,14,0,1,
5ee1be444c9d75206ce5aa92,SCR,2024-06-24_18h46.16.920,LearnStrategy,2023.2.3,Win32,59.88023952,7,2,16,,,,,,,,4,11,,,,,,,,,,,,,2,4.005,0,,,,,,-0.086284701,-0.238888868,1,0,0,4.0054,Basalt_rect,15,0,15,0,1,
5ee1be444c9d75206ce5aa92,SCR,2024-06-24_18h46.16.920,LearnStrategy,2023.2.3,Win32,59.88023952,8,1,1,0.374826431,-0.242592621,1,0,0,1.7548,Gabbro_13,4,13,2,7,1.755,4,13,0.359085719,-0.234259288,1,0,0,2.3446,Gabbro_rect,4,2.345,1,0,0,0,0,1,,,,,,,,,,,,,
5ee1be444c9d75206ce5aa92,SCR,2024-06-24_18h46.16.920,LearnStrategy,2023.2.3,Win32,59.88023952,8,1,2,-0.529803212,-0.242592621,1,0,0,1.4804,Gabbro_10,4,10,2,1,1.48,4,10,0.3359375,-0.247222201,1,0,0,2.4129,Gabbro_rect,4,2.413,1,1,0,1,0,1,,,,,,,,,,,,,
5ee1be444c9d75206ce5aa92,SCR,2024-06-24_18h46.16.920,LearnStrategy,2023.2.3,Win32,59.88023952,8,1,3,0.551678212,0.389814814,1,0,0,1.6759,Basalt_11,2,11,6,8,1.676,2,11,-0.062210592,-0.236111132,1,0,0,3.7423,Basalt_rect,2,3.742,1,2,0,2,0,1,,,,,,,,,,,,,
5ee1be444c9d75206ce5aa92,SCR,2024-06-24_18h46.16.920,LearnStrategy,2023.2.3,Win32,59.88023952,8,1,4,-0.268692144,-0.449074109,1,0,0,1.3079,Basalt_16,2,16,1,3,1.308,2,16,-0.151099459,-0.236111132,1,0,0,1.2862,Basalt_rect,2,1.286,1,3,0,3,0,1,,,,,,,,,,,,,
5ee1be444c9d75206ce5aa92,SCR,2024-06-24_18h46.16.920,LearnStrategy,2023.2.3,Win32,59.88023952,8,1,5,0.063715299,0.227777767,1,0,0,1.093,Andesite_02,1,02,5,5,1.093,1,02,-0.376099523,-0.240740776,1,0,0,2.3283,Andesite_rect,1,2.328,1,4,0,4,0,1,,,,,,,,,,,,,
5ee1be444c9d75206ce5aa92,SCR,2024-06-24_18h46.16.920,LearnStrategy,2023.2.3,Win32,59.88023952,8,1,6,-0.385358779,-0.282407443,1,0,0,1.3462,Pumice_10,8,10,2,2,1.346,8,10,0.374826431,-0.398148155,1,0,0,1.5881,Pumice_rect,8,1.588,1,5,0,5,0,1,,,,,,,,,,,,,
5ee1be444c9d75206ce5aa92,SCR,2024-06-24_18h46.16.920,LearnStrategy,2023.2.3,Win32,59.88023952,8,1,7,0.400752385,-0.258333333,1,0,0,1.0536,Gabbro_13,4,13,2,7,1.054,4,13,0.36464119,-0.247222201,1,0,0,2.558,Gabbro_rect,4,2.558,1,6,0,6,0,1,,,,,,,,,,,,,
5ee1be444c9d75206ce5aa92,SCR,2024-06-24_18h46.16.920,LearnStrategy,2023.2.3,Win32,59.88023952,8,1,8,-0.5390625,0.121296279,1,0,0,1.447,Peridotite_04,7,04,4,1,1.447,7,04,0.119270833,-0.408333333,1,0,0,1.843,Peridotite_rect,7,1.843,1,7,0,7,0,1,,,,,,,,,,,,,
5ee1be444c9d75206ce5aa92,SCR,2024-06-24_18h46.16.920,LearnStrategy,2023.2.3,Win32,59.88023952,8,1,9,-0.065914345,0.37407407,1,0,0,1.5129,Andesite_05,1,05,6,4,1.513,1,05,-0.403877322,-0.236111132,1,0,0,2.438,Andesite_rect,1,2.438,1,8,0,8,0,1,,,,,,,,,,,,,
5ee1be444c9d75206ce5aa92,SCR,2024-06-24_18h46.16.920,LearnStrategy,2023.2.3,Win32,59.88023952,8,1,10,-0.436284733,0.243518511,1,0,0,1.0132,Pegmatite_16,6,16,5,2,1.013,6,16,-0.164988391,-0.37870369,1,0,0,2.0744,Pegmatite_rect,6,2.074,1,9,0,9,0,1,,,,,,,,,,,,,
5ee1be444c9d75206ce5aa92,SCR,2024-06-24_18h46.16.920,LearnStrategy,2023.2.3,Win32,59.88023952,8,1,11,0.540567144,0.450925922,1,0,0,1.8808,Basalt_11,2,11,6,8,1.881,2,11,-0.1390625,-0.242592621,1,0,0,3.875,Basalt_rect,2,3.875,1,10,0,10,0,1,,,,,,,,,,,,,
5ee1be444c9d75206ce5aa92,SCR,2024-06-24_18h46.16.920,LearnStrategy,2023.2.3,Win32,59.88023952,8,1,12,0.087789345,0.253703705,1,0,0,1.1651,Andesite_02,1,02,5,5,1.165,1,02,-0.418692112,-0.250925954,1,0,0,1.7019,Andesite_rect,1,1.702,1,11,0,11,0,1,,,,,,,,,,,,,
5ee1be444c9d75206ce5aa92,SCR,2024-06-24_18h46.16.920,LearnStrategy,2023.2.3,Win32,59.88023952,8,1,13,0.222974523,0.385185178,1,0,0,1.213,Basalt_09,2,09,6,6,1.213,2,09,-0.133506966,-0.230555534,1,0,0,3.4908,Basalt_rect,2,3.491,1,12,0,12,0,1,,,,,,,,,,,,,
5ee1be444c9d75206ce5aa92,SCR,2024-06-24_18h46.16.920,LearnStrategy,2023.2.3,Win32,59.88023952,8,1,14,-0.1140625,-0.416666667,1,0,0,1.4843,Diorite_08,3,08,1,4,1.484,3,08,0.140567144,-0.262037023,1,0,0,2.7324,Diorite_rect,3,2.732,1,13,0,13,0,1,,,,,,,,,,,,,
5ee1be444c9d75206ce5aa92,SCR,2024-06-24_18h46.16.920,LearnStrategy,2023.2.3,Win32,59.88023952,8,1,15,0.110011609,-0.12870369,1,0,0,1.0473,Diorite_13,3,13,3,5,1.047,3,13,0.105381966,-0.238888868,1,0,0,2.9395,Diorite_rect,3,2.939,1,14,0,14,0,1,,,,,,,,,,,,,
5ee1be444c9d75206ce5aa92,SCR,2024-06-24_18h46.16.920,LearnStrategy,2023.2.3,Win32,59.88023952,8,1,16,-0.56776619,-0.245370356,1,0,0,1.9343,Gabbro_10,4,10,2,1,1.934,4,10,-0.076099459,-0.235185242,1,0,0,5.8302,Basalt_rect,2,5.83,0,15,0,15,0,1,,,,,,,,,,,,,
5ee1be444c9d75206ce5aa92,SCR,2024-06-24_18h46.16.920,LearnStrategy,2023.2.3,Win32,59.88023952,8,2,1,,,,,,,,6,06,,,,,,,,,,,,,6,3.19,1,,,,,,-0.140914345,-0.414814822,1,0,0,3.19,Pegmatite_rect,0,0,0,0,1,
5ee1be444c9d75206ce5aa92,SCR,2024-06-24_18h46.16.920,LearnStrategy,2023.2.3,Win32,59.88023952,8,2,2,,,,,,,,2,01,,,,,,,,,,,,,4,8.486,0,,,,,,0.336863454,-0.254629707,1,0,0,8.4865,Gabbro_rect,1,0,1,0,1,
5ee1be444c9d75206ce5aa92,SCR,2024-06-24_18h46.16.920,LearnStrategy,2023.2.3,Win32,59.88023952,8,2,3,,,,,,,,4,08,,,,,,,,,,,,,4,2.646,1,,,,,,0.394270833,-0.241666667,1,0,0,2.6461,Gabbro_rect,2,0,2,0,1,
5ee1be444c9d75206ce5aa92,SCR,2024-06-24_18h46.16.920,LearnStrategy,2023.2.3,Win32,59.88023952,8,2,4,,,,,,,,8,16,,,,,,,,,,,,,8,1.359,1,,,,,,0.368344879,-0.380555534,1,0,0,1.3591,Pumice_rect,3,0,3,0,1,
5ee1be444c9d75206ce5aa92,SCR,2024-06-24_18h46.16.920,LearnStrategy,2023.2.3,Win32,59.88023952,8,2,5,,,,,,,,5,09,,,,,,,,,,,,,5,2.251,1,,,,,,-0.352025477,-0.415740776,1,0,0,2.2512,Obsidian_rect,4,0,4,0,1,
5ee1be444c9d75206ce5aa92,SCR,2024-06-24_18h46.16.920,LearnStrategy,2023.2.3,Win32,59.88023952,8,2,6,,,,,,,,6,03,,,,,,,,,,,,,6,1.836,1,,,,,,-0.131655057,-0.385185242,1,0,0,1.8363,Pegmatite_rect,5,0,5,0,1,
5ee1be444c9d75206ce5aa92,SCR,2024-06-24_18h46.16.920,LearnStrategy,2023.2.3,Win32,59.88023952,8,2,7,,,,,,,,5,11,,,,,,,,,,,,,5,1.387,1,,,,,,-0.338136546,-0.384259288,1,0,0,1.3865,Obsidian_rect,6,0,6,0,1,
5ee1be444c9d75206ce5aa92,SCR,2024-06-24_18h46.16.920,LearnStrategy,2023.2.3,Win32,59.88023952,8,2,8,,,,,,,,1,16,,,,,,,,,,,,,3,5.511,0,,,,,,0.1359375,-0.255555534,1,0,0,5.511,Diorite_rect,7,0,7,0,1,
5ee1be444c9d75206ce5aa92,SCR,2024-06-24_18h46.16.920,LearnStrategy,2023.2.3,Win32,59.88023952,8,2,9,,,,,,,,3,15,,,,,,,,,,,,,3,1.901,1,,,,,,0.051678276,-0.248148155,1,0,0,1.9005,Diorite_rect,8,0,8,0,1,
5ee1be444c9d75206ce5aa92,SCR,2024-06-24_18h46.16.920,LearnStrategy,2023.2.3,Win32,59.88023952,8,2,10,,,,,,,,3,02,,,,,,,,,,,,,3,2.389,1,,,,,,0.08964119,-0.233333333,1,0,0,2.389,Diorite_rect,9,0,9,0,1,
5ee1be444c9d75206ce5aa92,SCR,2024-06-24_18h46.16.920,LearnStrategy,2023.2.3,Win32,59.88023952,8,2,11,,,,,,,,2,06,,,,,,,,,,,,,2,1.793,1,,,,,,-0.144618034,-0.243518575,1,0,0,1.7931,Basalt_rect,10,0,10,0,1,
5ee1be444c9d75206ce5aa92,SCR,2024-06-24_18h46.16.920,LearnStrategy,2023.2.3,Win32,59.88023952,8,2,12,,,,,,,,1,04,,,,,,,,,,,,,3,3.515,0,,,,,,0.075752322,-0.255555534,1,0,0,3.5155,Diorite_rect,11,0,11,0,1,
5ee1be444c9d75206ce5aa92,SCR,2024-06-24_18h46.16.920,LearnStrategy,2023.2.3,Win32,59.88023952,8,2,13,,,,,,,,8,02,,,,,,,,,,,,,8,1.487,1,,,,,,0.408159765,-0.401851908,1,0,0,1.4868,Pumice_rect,12,0,12,0,1,
5ee1be444c9d75206ce5aa92,SCR,2024-06-24_18h46.16.920,LearnStrategy,2023.2.3,Win32,59.88023952,8,2,14,,,,,,,,4,15,,,,,,,,,,,,,3,1.023,0,,,,,,0.140567144,-0.246296374,1,0,0,1.0231,Diorite_rect,13,0,13,0,1,
5ee1be444c9d75206ce5aa92,SCR,2024-06-24_18h46.16.920,LearnStrategy,2023.2.3,Win32,59.88023952,8,2,15,,,,,,,,7,16,,,,,,,,,,,,,7,1.399,1,,,,,,0.113715299,-0.379629707,1,0,0,1.3992,Peridotite_rect,14,0,14,0,1,
5ee1be444c9d75206ce5aa92,SCR,2024-06-24_18h46.16.920,LearnStrategy,2023.2.3,Win32,59.88023952,8,2,16,,,,,,,,7,10,,,,,,,,,,,,,7,1.984,1,,,,,,0.134085655,-0.416666667,1,0,0,1.984,Peridotite_rect,15,0,15,0,1,
5ee1be444c9d75206ce5aa92,SCR,2024-06-24_18h46.16.920,LearnStrategy,2023.2.3,Win32,59.88023952,9,1,1,0.049826368,0.070370356,1,0,0,0.9847,Basalt_02,2,02,4,5,0.985,2,02,0.392419052,-0.236111132,1,0,0,2.3178,Gabbro_rect,4,2.318,0,0,0,0,0,1,,,,,,,,,,,,,
5ee1be444c9d75206ce5aa92,SCR,2024-06-24_18h46.16.920,LearnStrategy,2023.2.3,Win32,59.88023952,9,1,2,0.058159701,-0.415740776,1,0,0,1.3618,Peridotite_07,7,07,1,5,1.362,7,07,0.095196788,-0.396296374,1,0,0,2.5333,Peridotite_rect,7,2.533,1,1,0,1,0,1,,,,,,,,,,,,,
5ee1be444c9d75206ce5aa92,SCR,2024-06-24_18h46.16.920,LearnStrategy,2023.2.3,Win32,59.88023952,9,1,3,0.411863454,-0.260185242,1,0,0,1.0853,Gabbro_13,4,13,2,7,1.085,4,13,0.365567144,-0.262963041,1,0,0,2.4659,Gabbro_rect,4,2.466,1,2,0,2,0,1,,,,,,,,,,,,,
5ee1be444c9d75206ce5aa92,SCR,2024-06-24_18h46.16.920,LearnStrategy,2023.2.3,Win32,59.88023952,9,1,4,-0.552951399,-0.239814822,1,0,0,1.6967,Gabbro_10,4,10,2,1,1.697,4,10,0.35723381,-0.250925954,1,0,0,2.5306,Gabbro_rect,4,2.531,1,3,0,3,0,1,,,,,,,,,,,,,
5ee1be444c9d75206ce5aa92,SCR,2024-06-24_18h46.16.920,LearnStrategy,2023.2.3,Win32,59.88023952,9,1,5,0.277604167,-0.144444466,1,0,0,0.9453,Gabbro_09,4,09,3,6,0.945,4,09,0.356307856,-0.255555534,1,0,0,1.313,Gabbro_rect,4,1.313,1,4,0,4,0,1,,,,,,,,,,,,,
5ee1be444c9d75206ce5aa92,SCR,2024-06-24_18h46.16.920,LearnStrategy,2023.2.3,Win32,59.88023952,9,1,6,0.576678212,-0.363888868,1,0,0,1.2795,Andesite_09,1,09,1,8,1.279,1,09,-0.353877322,-0.247222201,1,0,0,3.5568,Andesite_rect,1,3.557,1,5,0,5,0,1,,,,,,,,,,,,,
5ee1be444c9d75206ce5aa92,SCR,2024-06-24_18h46.16.920,LearnStrategy,2023.2.3,Win32,59.88023952,9,1,7,-0.121469879,-0.385185242,1,0,0,1.2003,Diorite_08,3,08,1,4,1.2,3,08,0.098900477,-0.25370369,1,0,0,1.9725,Diorite_rect,3,1.972,1,6,0,6,0,1,,,,,,,,,,,,,
5ee1be444c9d75206ce5aa92,SCR,2024-06-24_18h46.16.920,LearnStrategy,2023.2.3,Win32,59.88023952,9,1,8,-0.286284701,0.221296279,1,0,0,1.9822,Peridotite_14,7,14,5,3,1.982,6,13,0.118344943,-0.395370356,1,0,0,5.1269,Peridotite_rect,7,5.127,1,7,0,7,0,1,,,,,,,,,,,,,
5ee1be444c9d75206ce5aa92,SCR,2024-06-24_18h46.16.920,LearnStrategy,2023.2.3,Win32,59.88023952,9,1,9,0.360011546,0.39907407,1,0,0,1.2737,Pumice_15,8,15,6,7,1.274,8,15,0.376678212,-0.382407443,1,0,0,1.8595,Pumice_rect,8,1.86,1,8,0,8,0,1,,,,,,,,,,,,,
5ee1be444c9d75206ce5aa92,SCR,2024-06-24_18h46.16.920,LearnStrategy,2023.2.3,Win32,59.88023952,9,1,10,0.359085719,-0.258333333,1,0,0,0.9951,Gabbro_13,4,13,2,7,0.995,4,13,0.371122742,-0.22870369,1,0,0,1.2587,Gabbro_rect,4,1.259,1,9,0,9,0,1,,,,,,,,,,,,,
5ee1be444c9d75206ce5aa92,SCR,2024-06-24_18h46.16.920,LearnStrategy,2023.2.3,Win32,59.88023952,9,1,11,0.520196788,0.408333333,1,0,0,2.5622,Basalt_11,2,11,6,8,2.562,2,11,-0.097395833,-0.237963041,1,0,0,2.9822,Basalt_rect,2,2.982,1,10,0,10,0,1,,,,,,,,,,,,,
5ee1be444c9d75206ce5aa92,SCR,2024-06-24_18h46.16.920,LearnStrategy,2023.2.3,Win32,59.88023952,9,1,12,0.072048632,0.257407411,1,0,0,1.1973,Andesite_02,1,02,5,5,1.197,1,02,0.072048632,-0.244444466,1,0,0,2.8063,Diorite_rect,3,2.806,0,11,0,11,0,1,,,,,,,,,,,,,
5ee1be444c9d75206ce5aa92,SCR,2024-06-24_18h46.16.920,LearnStrategy,2023.2.3,Win32,59.88023952,9,1,13,0.029456075,0.199074078,1,0,0,1.0809,Andesite_02,1,02,5,5,1.081,1,02,-0.379803244,-0.254629707,1,0,0,1.1809,Andesite_rect,1,1.181,1,12,0,12,0,1,,,,,,,,,,,,,
5ee1be444c9d75206ce5aa92,SCR,2024-06-24_18h46.16.920,LearnStrategy,2023.2.3,Win32,59.88023952,9,1,14,0.2109375,0.381481481,1,0,0,1.3461,Basalt_09,2,09,6,6,1.346,2,09,-0.194618034,-0.230555534,1,0,0,1.409,Basalt_rect,2,1.409,1,13,0,13,0,1,,,,,,,,,,,,,
5ee1be444c9d75206ce5aa92,SCR,2024-06-24_18h46.16.920,LearnStrategy,2023.2.3,Win32,59.88023952,9,1,15,-0.555729167,0.25,1,0,0,1.3633,Gabbro_12,4,12,5,1,1.363,3,16,0.405381902,-0.25,1,0,0,2.7705,Gabbro_rect,4,2.771,1,14,0,14,0,1,,,,,,,,,,,,,
5ee1be444c9d75206ce5aa92,SCR,2024-06-24_18h46.16.920,LearnStrategy,2023.2.3,Win32,59.88023952,9,1,16,0.345196788,-0.391666667,1,0,0,1.881,Andesite_03,1,03,1,7,1.881,1,03,0.071122678,-0.249074109,1,0,0,3.2969,Diorite_rect,3,3.297,0,15,0,15,0,1,,,,,,,,,,,,,
5ee1be444c9d75206ce5aa92,SCR,2024-06-24_18h46.16.920,LearnStrategy,2023.2.3,Win32,59.88023952,9,2,1,,,,,,,,8,14,,,,,,,,,,,,,8,1.288,1,,,,,,0.340567144,-0.400925954,1,0,0,1.2881,Pumice_rect,0,0,0,0,1,
5ee1be444c9d75206ce5aa92,SCR,2024-06-24_18h46.16.920,LearnStrategy,2023.2.3,Win32,59.88023952,9,2,2,,,,,,,,6,12,,,,,,,,,,,,,6,1.496,1,,,,,,-0.100173632,-0.416666667,1,0,0,1.4963,Pegmatite_rect,1,0,1,0,1,
5ee1be444c9d75206ce5aa92,SCR,2024-06-24_18h46.16.920,LearnStrategy,2023.2.3,Win32,59.88023952,9,2,3,,,,,,,,3,06,,,,,,,,,,,,,3,7.094,1,,,,,,0.093344943,-0.25370369,1,0,0,7.0942,Diorite_rect,2,0,2,0,1,
5ee1be444c9d75206ce5aa92,SCR,2024-06-24_18h46.16.920,LearnStrategy,2023.2.3,Win32,59.88023952,9,2,4,,,,,,,,4,16,,,,,,,,,,,,,4,1.81,1,,,,,,0.359085719,-0.244444466,1,0,0,1.8101,Gabbro_rect,3,0,3,0,1,
5ee1be444c9d75206ce5aa92,SCR,2024-06-24_18h46.16.920,LearnStrategy,2023.2.3,Win32,59.88023952,9,2,5,,,,,,,,2,05,,,,,,,,,,,,,2,2.209,1,,,,,,-0.125173632,-0.266666667,1,0,0,2.2089,Basalt_rect,4,0,4,0,1,
5ee1be444c9d75206ce5aa92,SCR,2024-06-24_18h46.16.920,LearnStrategy,2023.2.3,Win32,59.88023952,9,2,6,,,,,,,,4,03,,,,,,,,,,,,,2,6.795,0,,,,,,-0.1390625,-0.262963041,1,0,0,6.7951,Basalt_rect,5,0,5,0,1,
5ee1be444c9d75206ce5aa92,SCR,2024-06-24_18h46.16.920,LearnStrategy,2023.2.3,Win32,59.88023952,9,2,7,,,,,,,,8,04,,,,,,,,,,,,,8,1.503,1,,,,,,0.305381902,-0.405555534,1,0,0,1.5026,Pumice_rect,6,0,6,0,1,
5ee1be444c9d75206ce5aa92,SCR,2024-06-24_18h46.16.920,LearnStrategy,2023.2.3,Win32,59.88023952,9,2,8,,,,,,,,7,15,,,,,,,,,,,,,7,1.884,1,,,,,,0.165567144,-0.406481489,1,0,0,1.8837,Peridotite_rect,7,0,7,0,1,
5ee1be444c9d75206ce5aa92,SCR,2024-06-24_18h46.16.920,LearnStrategy,2023.2.3,Win32,59.88023952,9,2,9,,,,,,,,3,09,,,,,,,,,,,,,1,2.422,0,,,,,,-0.429803212,-0.256481489,1,0,0,2.4216,Andesite_rect,8,0,8,0,1,
5ee1be444c9d75206ce5aa92,SCR,2024-06-24_18h46.16.920,LearnStrategy,2023.2.3,Win32,59.88023952,9,2,10,,,,,,,,1,14,,,,,,,,,,,,,7,4.056,0,,,,,,0.099826368,-0.417592621,1,0,0,4.0564,Peridotite_rect,9,0,9,0,1,
5ee1be444c9d75206ce5aa92,SCR,2024-06-24_18h46.16.920,LearnStrategy,2023.2.3,Win32,59.88023952,9,2,11,,,,,,,,1,01,,,,,,,,,,,,,3,4.421,0,,,,,,0.124826368,-0.241666667,1,0,0,4.4205,Diorite_rect,10,0,10,0,1,
5ee1be444c9d75206ce5aa92,SCR,2024-06-24_18h46.16.920,LearnStrategy,2023.2.3,Win32,59.88023952,9,2,12,,,,,,,,5,14,,,,,,,,,,,,,5,1.611,1,,,,,,-0.396469911,-0.387963041,1,0,0,1.6107,Obsidian_rect,11,0,11,0,1,
5ee1be444c9d75206ce5aa92,SCR,2024-06-24_18h46.16.920,LearnStrategy,2023.2.3,Win32,59.88023952,9,2,13,,,,,,,,2,08,,,,,,,,,,,,,2,3.022,1,,,,,,-0.133506966,-0.262037023,1,0,0,3.0216,Basalt_rect,12,0,12,0,1,
5ee1be444c9d75206ce5aa92,SCR,2024-06-24_18h46.16.920,LearnStrategy,2023.2.3,Win32,59.88023952,9,2,14,,,,,,,,7,06,,,,,,,,,,,,,7,1.91,1,,,,,,0.127604167,-0.412963041,1,0,0,1.9102,Peridotite_rect,13,0,13,0,1,
5ee1be444c9d75206ce5aa92,SCR,2024-06-24_18h46.16.920,LearnStrategy,2023.2.3,Win32,59.88023952,9,2,15,,,,,,,,5,04,,,,,,,,,,,,,5,1.522,1,,,,,,-0.391840267,-0.4,1,0,0,1.5216,Obsidian_rect,14,0,14,0,1,
5ee1be444c9d75206ce5aa92,SCR,2024-06-24_18h46.16.920,LearnStrategy,2023.2.3,Win32,59.88023952,9,2,16,,,,,,,,6,15,,,,,,,,,,,,,6,2.06,1,,,,,,-0.161284701,-0.382407443,1,0,0,2.06,Pegmatite_rect,15,0,15,0,1,
5ee1be444c9d75206ce5aa92,SCR,2024-06-24_18h46.16.920,LearnStrategy,2023.2.3,Win32,59.88023952,,,,,,,,,,,,,,,,,,,,,,,,,,,,,,,,,,,,,,,,,,,,,1
5ee1be444c9d75206ce5aa92,SCR,2024-06-24_18h46.16.920,LearnStrategy,2023.2.3,Win32,59.88023952,,,,,,,,,,,,,,,,,,,,,,,,,,,,,,,,,,,,,,,,,,,,,
5ee1be444c9d75206ce5aa92,SCR,2024-06-24_18h46.16.920,LearnStrategy,2023.2.3,Win32,59.88023952,,,,,,,,,,,8,03,1,1,,,,,,,,,,,,,,,,,,,,,,,,,,,,,,,
5ee1be444c9d75206ce5aa92,SCR,2024-06-24_18h46.16.920,LearnStrategy,2023.2.3,Win32,59.88023952,,,,,,,,,,,1,10,1,2,,,,,,,,,,,,,,,,,,,,,,,,,,,,,,,
5ee1be444c9d75206ce5aa92,SCR,2024-06-24_18h46.16.920,LearnStrategy,2023.2.3,Win32,59.88023952,,,,,,,,,,,2,16,1,3,,,,,,,,,,,,,,,,,,,,,,,,,,,,,,,
5ee1be444c9d75206ce5aa92,SCR,2024-06-24_18h46.16.920,LearnStrategy,2023.2.3,Win32,59.88023952,,,,,,,,,,,3,08,1,4,,,,,,,,,,,,,,,,,,,,,,,,,,,,,,,
5ee1be444c9d75206ce5aa92,SCR,2024-06-24_18h46.16.920,LearnStrategy,2023.2.3,Win32,59.88023952,,,,,,,,,,,7,07,1,5,,,,,,,,,,,,,,,,,,,,,,,,,,,,,,,
5ee1be444c9d75206ce5aa92,SCR,2024-06-24_18h46.16.920,LearnStrategy,2023.2.3,Win32,59.88023952,,,,,,,,,,,5,08,1,6,,,,,,,,,,,,,,,,,,,,,,,,,,,,,,,
5ee1be444c9d75206ce5aa92,SCR,2024-06-24_18h46.16.920,LearnStrategy,2023.2.3,Win32,59.88023952,,,,,,,,,,,1,03,1,7,,,,,,,,,,,,,,,,,,,,,,,,,,,,,,,
5ee1be444c9d75206ce5aa92,SCR,2024-06-24_18h46.16.920,LearnStrategy,2023.2.3,Win32,59.88023952,,,,,,,,,,,1,09,1,8,,,,,,,,,,,,,,,,,,,,,,,,,,,,,,,
5ee1be444c9d75206ce5aa92,SCR,2024-06-24_18h46.16.920,LearnStrategy,2023.2.3,Win32,59.88023952,,,,,,,,,,,4,10,2,1,,,,,,,,,,,,,,,,,,,,,,,,,,,,,,,
5ee1be444c9d75206ce5aa92,SCR,2024-06-24_18h46.16.920,LearnStrategy,2023.2.3,Win32,59.88023952,,,,,,,,,,,8,10,2,2,,,,,,,,,,,,,,,,,,,,,,,,,,,,,,,
5ee1be444c9d75206ce5aa92,SCR,2024-06-24_18h46.16.920,LearnStrategy,2023.2.3,Win32,59.88023952,,,,,,,,,,,4,14,2,3,,,,,,,,,,,,,,,,,,,,,,,,,,,,,,,
5ee1be444c9d75206ce5aa92,SCR,2024-06-24_18h46.16.920,LearnStrategy,2023.2.3,Win32,59.88023952,,,,,,,,,,,2,04,2,4,,,,,,,,,,,,,,,,,,,,,,,,,,,,,,,
5ee1be444c9d75206ce5aa92,SCR,2024-06-24_18h46.16.920,LearnStrategy,2023.2.3,Win32,59.88023952,,,,,,,,,,,5,02,2,5,,,,,,,,,,,,,,,,,,,,,,,,,,,,,,,
5ee1be444c9d75206ce5aa92,SCR,2024-06-24_18h46.16.920,LearnStrategy,2023.2.3,Win32,59.88023952,,,,,,,,,,,2,10,2,6,,,,,,,,,,,,,,,,,,,,,,,,,,,,,,,
5ee1be444c9d75206ce5aa92,SCR,2024-06-24_18h46.16.920,LearnStrategy,2023.2.3,Win32,59.88023952,,,,,,,,,,,4,13,2,7,,,,,,,,,,,,,,,,,,,,,,,,,,,,,,,
5ee1be444c9d75206ce5aa92,SCR,2024-06-24_18h46.16.920,LearnStrategy,2023.2.3,Win32,59.88023952,,,,,,,,,,,7,12,2,8,,,,,,,,,,,,,,,,,,,,,,,,,,,,,,,
5ee1be444c9d75206ce5aa92,SCR,2024-06-24_18h46.16.920,LearnStrategy,2023.2.3,Win32,59.88023952,,,,,,,,,,,3,14,3,1,,,,,,,,,,,,,,,,,,,,,,,,,,,,,,,
5ee1be444c9d75206ce5aa92,SCR,2024-06-24_18h46.16.920,LearnStrategy,2023.2.3,Win32,59.88023952,,,,,,,,,,,7,13,3,2,,,,,,,,,,,,,,,,,,,,,,,,,,,,,,,
5ee1be444c9d75206ce5aa92,SCR,2024-06-24_18h46.16.920,LearnStrategy,2023.2.3,Win32,59.88023952,,,,,,,,,,,3,16,3,3,,,,,,,,,,,,,,,,,,,,,,,,,,,,,,,
5ee1be444c9d75206ce5aa92,SCR,2024-06-24_18h46.16.920,LearnStrategy,2023.2.3,Win32,59.88023952,,,,,,,,,,,6,11,3,4,,,,,,,,,,,,,,,,,,,,,,,,,,,,,,,
5ee1be444c9d75206ce5aa92,SCR,2024-06-24_18h46.16.920,LearnStrategy,2023.2.3,Win32,59.88023952,,,,,,,,,,,3,13,3,5,,,,,,,,,,,,,,,,,,,,,,,,,,,,,,,
5ee1be444c9d75206ce5aa92,SCR,2024-06-24_18h46.16.920,LearnStrategy,2023.2.3,Win32,59.88023952,,,,,,,,,,,4,09,3,6,,,,,,,,,,,,,,,,,,,,,,,,,,,,,,,
5ee1be444c9d75206ce5aa92,SCR,2024-06-24_18h46.16.920,LearnStrategy,2023.2.3,Win32,59.88023952,,,,,,,,,,,7,05,3,7,,,,,,,,,,,,,,,,,,,,,,,,,,,,,,,
5ee1be444c9d75206ce5aa92,SCR,2024-06-24_18h46.16.920,LearnStrategy,2023.2.3,Win32,59.88023952,,,,,,,,,,,3,11,3,8,,,,,,,,,,,,,,,,,,,,,,,,,,,,,,,
5ee1be444c9d75206ce5aa92,SCR,2024-06-24_18h46.16.920,LearnStrategy,2023.2.3,Win32,59.88023952,,,,,,,,,,,7,04,4,1,,,,,,,,,,,,,,,,,,,,,,,,,,,,,,,
5ee1be444c9d75206ce5aa92,SCR,2024-06-24_18h46.16.920,LearnStrategy,2023.2.3,Win32,59.88023952,,,,,,,,,,,5,06,4,2,,,,,,,,,,,,,,,,,,,,,,,,,,,,,,,
5ee1be444c9d75206ce5aa92,SCR,2024-06-24_18h46.16.920,LearnStrategy,2023.2.3,Win32,59.88023952,,,,,,,,,,,5,05,4,3,,,,,,,,,,,,,,,,,,,,,,,,,,,,,,,
5ee1be444c9d75206ce5aa92,SCR,2024-06-24_18h46.16.920,LearnStrategy,2023.2.3,Win32,59.88023952,,,,,,,,,,,6,08,4,4,,,,,,,,,,,,,,,,,,,,,,,,,,,,,,,
5ee1be444c9d75206ce5aa92,SCR,2024-06-24_18h46.16.920,LearnStrategy,2023.2.3,Win32,59.88023952,,,,,,,,,,,2,02,4,5,,,,,,,,,,,,,,,,,,,,,,,,,,,,,,,
5ee1be444c9d75206ce5aa92,SCR,2024-06-24_18h46.16.920,LearnStrategy,2023.2.3,Win32,59.88023952,,,,,,,,,,,1,07,4,6,,,,,,,,,,,,,,,,,,,,,,,,,,,,,,,
5ee1be444c9d75206ce5aa92,SCR,2024-06-24_18h46.16.920,LearnStrategy,2023.2.3,Win32,59.88023952,,,,,,,,,,,4,01,4,7,,,,,,,,,,,,,,,,,,,,,,,,,,,,,,,
5ee1be444c9d75206ce5aa92,SCR,2024-06-24_18h46.16.920,LearnStrategy,2023.2.3,Win32,59.88023952,,,,,,,,,,,8,06,4,8,,,,,,,,,,,,,,,,,,,,,,,,,,,,,,,
5ee1be444c9d75206ce5aa92,SCR,2024-06-24_18h46.16.920,LearnStrategy,2023.2.3,Win32,59.88023952,,,,,,,,,,,4,12,5,1,,,,,,,,,,,,,,,,,,,,,,,,,,,,,,,
5ee1be444c9d75206ce5aa92,SCR,2024-06-24_18h46.16.920,LearnStrategy,2023.2.3,Win32,59.88023952,,,,,,,,,,,6,16,5,2,,,,,,,,,,,,,,,,,,,,,,,,,,,,,,,
5ee1be444c9d75206ce5aa92,SCR,2024-06-24_18h46.16.920,LearnStrategy,2023.2.3,Win32,59.88023952,,,,,,,,,,,7,14,5,3,,,,,,,,,,,,,,,,,,,,,,,,,,,,,,,
5ee1be444c9d75206ce5aa92,SCR,2024-06-24_18h46.16.920,LearnStrategy,2023.2.3,Win32,59.88023952,,,,,,,,,,,5,07,5,4,,,,,,,,,,,,,,,,,,,,,,,,,,,,,,,
5ee1be444c9d75206ce5aa92,SCR,2024-06-24_18h46.16.920,LearnStrategy,2023.2.3,Win32,59.88023952,,,,,,,,,,,1,02,5,5,,,,,,,,,,,,,,,,,,,,,,,,,,,,,,,
5ee1be444c9d75206ce5aa92,SCR,2024-06-24_18h46.16.920,LearnStrategy,2023.2.3,Win32,59.88023952,,,,,,,,,,,8,05,5,6,,,,,,,,,,,,,,,,,,,,,,,,,,,,,,,
5ee1be444c9d75206ce5aa92,SCR,2024-06-24_18h46.16.920,LearnStrategy,2023.2.3,Win32,59.88023952,,,,,,,,,,,8,13,5,7,,,,,,,,,,,,,,,,,,,,,,,,,,,,,,,
5ee1be444c9d75206ce5aa92,SCR,2024-06-24_18h46.16.920,LearnStrategy,2023.2.3,Win32,59.88023952,,,,,,,,,,,6,05,5,8,,,,,,,,,,,,,,,,,,,,,,,,,,,,,,,
5ee1be444c9d75206ce5aa92,SCR,2024-06-24_18h46.16.920,LearnStrategy,2023.2.3,Win32,59.88023952,,,,,,,,,,,5,10,6,1,,,,,,,,,,,,,,,,,,,,,,,,,,,,,,,
5ee1be444c9d75206ce5aa92,SCR,2024-06-24_18h46.16.920,LearnStrategy,2023.2.3,Win32,59.88023952,,,,,,,,,,,6,10,6,2,,,,,,,,,,,,,,,,,,,,,,,,,,,,,,,
5ee1be444c9d75206ce5aa92,SCR,2024-06-24_18h46.16.920,LearnStrategy,2023.2.3,Win32,59.88023952,,,,,,,,,,,6,13,6,3,,,,,,,,,,,,,,,,,,,,,,,,,,,,,,,
5ee1be444c9d75206ce5aa92,SCR,2024-06-24_18h46.16.920,LearnStrategy,2023.2.3,Win32,59.88023952,,,,,,,,,,,1,05,6,4,,,,,,,,,,,,,,,,,,,,,,,,,,,,,,,
5ee1be444c9d75206ce5aa92,SCR,2024-06-24_18h46.16.920,LearnStrategy,2023.2.3,Win32,59.88023952,,,,,,,,,,,3,07,6,5,,,,,,,,,,,,,,,,,,,,,,,,,,,,,,,
5ee1be444c9d75206ce5aa92,SCR,2024-06-24_18h46.16.920,LearnStrategy,2023.2.3,Win32,59.88023952,,,,,,,,,,,2,09,6,6,,,,,,,,,,,,,,,,,,,,,,,,,,,,,,,
5ee1be444c9d75206ce5aa92,SCR,2024-06-24_18h46.16.920,LearnStrategy,2023.2.3,Win32,59.88023952,,,,,,,,,,,8,15,6,7,,,,,,,,,,,,,,,,,,,,,,,,,,,,,,,
5ee1be444c9d75206ce5aa92,SCR,2024-06-24_18h46.16.920,LearnStrategy,2023.2.3,Win32,59.88023952,,,,,,,,,,,2,11,6,8,,,,,,,,,,,,,,,,,,,,,,,,,,,,,,,