participant,condition,date,expName,psychopyVersion,OS,frameRate,block,phase,trial,learn_mouse.x,learn_mouse.y,learn_mouse.leftButton,learn_mouse.midButton,learn_mouse.rightButton,learn_mouse.time,learn_mouse.clicked_name,cat,token,row,col,t_select,cat_rec,token_rec,cat_mouse_l.x,cat_mouse_l.y,cat_mouse_l.leftButton,cat_mouse_l.midButton,cat_mouse_l.rightButton,cat_mouse_l.time,cat_mouse_l.clicked_name,resp,t_resp,corr,train_trials.thisRepN,train_trials.thisTrialN,train_trials.thisN,train_trials.thisIndex,train_trials.ran,cat_mouse_t.x,cat_mouse_t.y,cat_mouse_t.leftButton,cat_mouse_t.midButton,cat_mouse_t.rightButton,cat_mouse_t.time,cat_mouse_t.clicked_name,test_trials.thisRepN,test_trials.thisTrialN,test_trials.thisN,test_trials.thisIndex,test_trials.ran,Bonus
5ee29028fb6eba3d81ebf0f9,SCR,2024-06-24_13h46.49.720,LearnStrategy,2023.2.3,Win32,59.88023952,,,,,,,,,,,,,,,,,,,,,,,,,,,,,,,,,,,,,,,,,,,,,
5ee29028fb6eba3d81ebf0f9,SCR,2024-06-24_13h46.49.720,LearnStrategy,2023.2.3,Win32,59.88023952,1,1,1,0.065740727,-0.392592607,1,0,0,3.3263,Obsidian_07,5,07,1,5,3.326,5,07,-0.086111069,-0.242592635,1,0,0,4.4068,Basalt_rect,2,4.407,0,0,0,0,0,1,,,,,,,,,,,,,
5ee29028fb6eba3d81ebf0f9,SCR,2024-06-24_13h46.49.720,LearnStrategy,2023.2.3,Win32,59.88023952,1,1,2,0.062037079,0.417592587,1,0,0,1.447,Diorite_16,3,16,6,5,1.447,3,16,-0.314814815,-0.236111111,1,0,0,3.4975,Andesite_rect,1,3.498,0,1,0,1,0,1,,,,,,,,,,,,,
5ee29028fb6eba3d81ebf0f9,SCR,2024-06-24_13h46.49.720,LearnStrategy,2023.2.3,Win32,59.88023952,1,1,3,0.050000014,-0.249074088,1,0,0,1.4734,Gabbro_16,4,16,2,5,1.473,4,16,-0.353703711,-0.401851866,1,0,0,2.3952,Obsidian_rect,5,2.395,0,2,0,2,0,1,,,,,,,,,,,,,
5ee29028fb6eba3d81ebf0f9,SCR,2024-06-24_13h46.49.720,LearnStrategy,2023.2.3,Win32,59.88023952,1,1,4,-0.559259238,0.093518504,1,0,0,1.6483,Andesite_07,1,07,4,1,1.648,1,07,0.102777764,-0.247222265,1,0,0,1.796,Diorite_rect,3,1.796,0,3,0,3,0,1,,,,,,,,,,,,,
5ee29028fb6eba3d81ebf0f9,SCR,2024-06-24_13h46.49.720,LearnStrategy,2023.2.3,Win32,59.88023952,1,1,5,-0.051851838,0.076851845,1,0,0,1.1345,Andesite_01,1,01,4,4,1.135,1,01,-0.36296297,-0.386111153,1,0,0,1.317,Obsidian_rect,5,1.317,0,4,0,4,0,1,,,,,,,,,,,,,
5ee29028fb6eba3d81ebf0f9,SCR,2024-06-24_13h46.49.720,LearnStrategy,2023.2.3,Win32,59.88023952,1,1,6,-0.521296289,0.430555556,1,0,0,1.6719,Pumice_10,8,10,6,1,1.672,8,10,0.353703675,-0.401851866,1,0,0,2.449,Pumice_rect,8,2.449,1,5,0,5,0,1,,,,,,,,,,,,,
5ee29028fb6eba3d81ebf0f9,SCR,2024-06-24_13h46.49.720,LearnStrategy,2023.2.3,Win32,59.88023952,1,1,7,0.062037079,0.059259238,1,0,0,1.1471,Pegmatite_16,6,16,4,5,1.147,6,16,-0.115740741,-0.232407393,1,0,0,2.7307,Basalt_rect,2,2.731,0,6,0,6,0,1,,,,,,,,,,,,,
5ee29028fb6eba3d81ebf0f9,SCR,2024-06-24_13h46.49.720,LearnStrategy,2023.2.3,Win32,59.88023952,1,1,8,0.399074131,0.365740741,1,0,0,1.5066,Gabbro_12,4,12,6,7,1.507,4,12,-0.110185199,-0.236111111,1,0,0,3.2893,Basalt_rect,2,3.289,0,7,0,7,0,1,,,,,,,,,,,,,
5ee29028fb6eba3d81ebf0f9,SCR,2024-06-24_13h46.49.720,LearnStrategy,2023.2.3,Win32,59.88023952,1,1,9,-0.040740755,0.205555545,1,0,0,0.9665,Peridotite_15,7,15,5,4,0.966,7,15,-0.063888903,-0.229629658,1,0,0,2.4306,Basalt_rect,2,2.431,0,8,0,8,0,1,,,,,,,,,,,,,
5ee29028fb6eba3d81ebf0f9,SCR,2024-06-24_13h46.49.720,LearnStrategy,2023.2.3,Win32,59.88023952,1,1,10,0.192592621,-0.09629631,1,0,0,0.9578,Basalt_01,2,01,3,6,0.958,2,01,0.377777806,-0.237037023,1,0,0,3.5397,Gabbro_rect,4,3.54,0,9,0,9,0,1,,,,,,,,,,,,,
5ee29028fb6eba3d81ebf0f9,SCR,2024-06-24_13h46.49.720,LearnStrategy,2023.2.3,Win32,59.88023952,1,1,11,0.373148176,0.210185175,1,0,0,1.116,Peridotite_07,7,07,5,7,1.116,7,07,0.170370384,-0.397222236,1,0,0,4.7706,Peridotite_rect,7,4.771,1,10,0,10,0,1,,,,,,,,,,,,,
5ee29028fb6eba3d81ebf0f9,SCR,2024-06-24_13h46.49.720,LearnStrategy,2023.2.3,Win32,59.88023952,1,1,12,-0.215740698,-0.425000014,1,0,0,1.2079,Obsidian_11,5,11,1,3,1.208,5,11,-0.345370363,-0.388888889,1,0,0,1.2746,Obsidian_rect,5,1.275,1,11,0,11,0,1,,,,,,,,,,,,,
5ee29028fb6eba3d81ebf0f9,SCR,2024-06-24_13h46.49.720,LearnStrategy,2023.2.3,Win32,59.88023952,1,1,13,0.219444487,-0.411111125,1,0,0,1.5686,Diorite_14,3,14,1,6,1.569,3,14,0.209259245,-0.378703718,1,0,0,3.1648,Peridotite_rect,7,3.165,0,12,0,12,0,1,,,,,,,,,,,,,
5ee29028fb6eba3d81ebf0f9,SCR,2024-06-24_13h46.49.720,LearnStrategy,2023.2.3,Win32,59.88023952,1,1,14,0.385185242,-0.268518519,1,0,0,1.1275,Pegmatite_10,6,10,2,7,1.127,6,10,0.137962977,-0.387037065,1,0,0,4.0411,Peridotite_rect,7,4.041,0,13,0,13,0,1,,,,,,,,,,,,,
5ee29028fb6eba3d81ebf0f9,SCR,2024-06-24_13h46.49.720,LearnStrategy,2023.2.3,Win32,59.88023952,1,1,15,-0.396296289,0.290740737,1,0,0,1.1625,Pumice_14,8,14,5,2,1.162,8,14,0.357407464,-0.236111111,1,0,0,2.181,Gabbro_rect,4,2.181,0,14,0,14,0,1,,,,,,,,,,,,,
5ee29028fb6eba3d81ebf0f9,SCR,2024-06-24_13h46.49.720,LearnStrategy,2023.2.3,Win32,59.88023952,1,1,16,-0.589814822,-0.250925912,1,0,0,1.2586,Basalt_04,2,04,2,1,1.259,2,04,-0.366666653,-0.25,1,0,0,2.2907,Andesite_rect,1,2.291,0,15,0,15,0,1,,,,,,,,,,,,,
5ee29028fb6eba3d81ebf0f9,SCR,2024-06-24_13h46.49.720,LearnStrategy,2023.2.3,Win32,59.88023952,1,2,1,,,,,,,,2,05,,,,,,,,,,,,,1,4.068,0,,,,,,-0.341666645,-0.244444459,1,0,0,4.0679,Andesite_rect,0,0,0,0,1,
5ee29028fb6eba3d81ebf0f9,SCR,2024-06-24_13h46.49.720,LearnStrategy,2023.2.3,Win32,59.88023952,1,2,2,,,,,,,,5,05,,,,,,,,,,,,,7,6.844,0,,,,,,0.110185199,-0.411111125,1,0,0,6.8437,Peridotite_rect,1,0,1,0,1,
5ee29028fb6eba3d81ebf0f9,SCR,2024-06-24_13h46.49.720,LearnStrategy,2023.2.3,Win32,59.88023952,1,2,3,,,,,,,,7,10,,,,,,,,,,,,,7,0.994,1,,,,,,0.110185199,-0.411111125,1,0,0,0.9938,Peridotite_rect,2,0,2,0,1,
5ee29028fb6eba3d81ebf0f9,SCR,2024-06-24_13h46.49.720,LearnStrategy,2023.2.3,Win32,59.88023952,1,2,4,,,,,,,,6,11,,,,,,,,,,,,,8,2.47,0,,,,,,0.369444529,-0.388888889,1,0,0,2.4704,Pumice_rect,3,0,3,0,1,
5ee29028fb6eba3d81ebf0f9,SCR,2024-06-24_13h46.49.720,LearnStrategy,2023.2.3,Win32,59.88023952,1,2,5,,,,,,,,3,02,,,,,,,,,,,,,3,2.258,1,,,,,,0.108333376,-0.253703718,1,0,0,2.2576,Diorite_rect,4,0,4,0,1,
5ee29028fb6eba3d81ebf0f9,SCR,2024-06-24_13h46.49.720,LearnStrategy,2023.2.3,Win32,59.88023952,1,2,6,,,,,,,,7,05,,,,,,,,,,,,,3,1.694,0,,,,,,0.108333376,-0.253703718,1,0,0,1.6943,Diorite_rect,5,0,5,0,1,
5ee29028fb6eba3d81ebf0f9,SCR,2024-06-24_13h46.49.720,LearnStrategy,2023.2.3,Win32,59.88023952,1,2,7,,,,,,,,3,09,,,,,,,,,,,,,8,1.544,0,,,,,,0.375925982,-0.395370413,1,0,0,1.5441,Pumice_rect,6,0,6,0,1,
5ee29028fb6eba3d81ebf0f9,SCR,2024-06-24_13h46.49.720,LearnStrategy,2023.2.3,Win32,59.88023952,1,2,8,,,,,,,,5,04,,,,,,,,,,,,,5,1.294,1,,,,,,-0.39166666,-0.391666695,1,0,0,1.2943,Obsidian_rect,7,0,7,0,1,
5ee29028fb6eba3d81ebf0f9,SCR,2024-06-24_13h46.49.720,LearnStrategy,2023.2.3,Win32,59.88023952,1,2,9,,,,,,,,8,05,,,,,,,,,,,,,8,1.892,1,,,,,,0.399999972,-0.413888931,1,0,0,1.8918,Pumice_rect,8,0,8,0,1,
5ee29028fb6eba3d81ebf0f9,SCR,2024-06-24_13h46.49.720,LearnStrategy,2023.2.3,Win32,59.88023952,1,2,10,,,,,,,,4,09,,,,,,,,,,,,,1,3.067,0,,,,,,-0.346296275,-0.265740783,1,0,0,3.067,Andesite_rect,9,0,9,0,1,
5ee29028fb6eba3d81ebf0f9,SCR,2024-06-24_13h46.49.720,LearnStrategy,2023.2.3,Win32,59.88023952,1,2,11,,,,,,,,6,06,,,,,,,,,,,,,4,3.927,0,,,,,,0.317592621,-0.246296282,1,0,0,3.9273,Gabbro_rect,10,0,10,0,1,
5ee29028fb6eba3d81ebf0f9,SCR,2024-06-24_13h46.49.720,LearnStrategy,2023.2.3,Win32,59.88023952,1,2,12,,,,,,,,1,02,,,,,,,,,,,,,4,1.092,0,,,,,,0.317592621,-0.246296282,1,0,0,1.092,Gabbro_rect,11,0,11,0,1,
5ee29028fb6eba3d81ebf0f9,SCR,2024-06-24_13h46.49.720,LearnStrategy,2023.2.3,Win32,59.88023952,1,2,13,,,,,,,,1,14,,,,,,,,,,,,,7,3.125,0,,,,,,0.137037065,-0.414814843,1,0,0,3.1252,Peridotite_rect,12,0,12,0,1,
5ee29028fb6eba3d81ebf0f9,SCR,2024-06-24_13h46.49.720,LearnStrategy,2023.2.3,Win32,59.88023952,1,2,14,,,,,,,,4,15,,,,,,,,,,,,,2,1.573,0,,,,,,-0.055555556,-0.238888917,1,0,0,1.5731,Basalt_rect,13,0,13,0,1,
5ee29028fb6eba3d81ebf0f9,SCR,2024-06-24_13h46.49.720,LearnStrategy,2023.2.3,Win32,59.88023952,1,2,15,,,,,,,,8,16,,,,,,,,,,,,,8,1.532,1,,,,,,0.40833339,-0.416666667,1,0,0,1.5319,Pumice_rect,14,0,14,0,1,
5ee29028fb6eba3d81ebf0f9,SCR,2024-06-24_13h46.49.720,LearnStrategy,2023.2.3,Win32,59.88023952,1,2,16,,,,,,,,2,11,,,,,,,,,,,,,8,1.985,0,,,,,,0.374074159,-0.39444443,1,0,0,1.9852,Pumice_rect,15,0,15,0,1,
5ee29028fb6eba3d81ebf0f9,SCR,2024-06-24_13h46.49.720,LearnStrategy,2023.2.3,Win32,59.88023952,2,1,1,-0.529629637,-0.072222215,1,0,0,1.6297,Basalt_08,2,08,3,1,1.63,2,08,-0.342592593,-0.407407407,1,0,0,2.1709,Obsidian_rect,5,2.171,0,0,0,0,0,1,,,,,,,,,,,,,
5ee29028fb6eba3d81ebf0f9,SCR,2024-06-24_13h46.49.720,LearnStrategy,2023.2.3,Win32,59.88023952,2,1,2,-0.558333326,0.095370363,1,0,0,0.9481,Andesite_07,1,07,4,1,0.948,1,07,-0.103703675,-0.413888931,1,0,0,6.0049,Pegmatite_rect,6,6.005,0,1,0,1,0,1,,,,,,,,,,,,,
5ee29028fb6eba3d81ebf0f9,SCR,2024-06-24_13h46.49.720,LearnStrategy,2023.2.3,Win32,59.88023952,2,1,3,0.57222225,-0.44722225,1,0,0,1.6985,Gabbro_14,4,14,1,8,1.698,4,14,-0.324074074,-0.380555541,1,0,0,3.6065,Obsidian_rect,5,3.606,0,2,0,2,0,1,,,,,,,,,,,,,
5ee29028fb6eba3d81ebf0f9,SCR,2024-06-24_13h46.49.720,LearnStrategy,2023.2.3,Win32,59.88023952,2,1,4,0.064814815,0.124074053,1,0,0,0.7806,Pegmatite_16,6,16,4,5,0.781,6,16,0.156481496,-0.237963005,1,0,0,3.4129,Diorite_rect,3,3.413,0,3,0,3,0,1,,,,,,,,,,,,,
5ee29028fb6eba3d81ebf0f9,SCR,2024-06-24_13h46.49.720,LearnStrategy,2023.2.3,Win32,59.88023952,2,1,5,0.207407422,-0.08888891,1,0,0,1.1344,Basalt_01,2,01,3,6,1.134,2,01,-0.097222222,-0.25462963,1,0,0,1.6217,Basalt_rect,2,1.622,1,4,0,4,0,1,,,,,,,,,,,,,
5ee29028fb6eba3d81ebf0f9,SCR,2024-06-24_13h46.49.720,LearnStrategy,2023.2.3,Win32,59.88023952,2,1,6,-0.051851838,0.236111111,1,0,0,1.2807,Peridotite_15,7,15,5,4,1.281,7,15,0.118518547,-0.410185213,1,0,0,0.9879,Peridotite_rect,7,0.988,1,5,0,5,0,1,,,,,,,,,,,,,
5ee29028fb6eba3d81ebf0f9,SCR,2024-06-24_13h46.49.720,LearnStrategy,2023.2.3,Win32,59.88023952,2,1,7,-0.556481467,-0.391666695,1,0,0,1.3953,Diorite_15,3,15,1,1,1.395,3,15,0.150925954,-0.241666653,1,0,0,4.672,Diorite_rect,3,4.672,1,6,0,6,0,1,,,,,,,,,,,,,
5ee29028fb6eba3d81ebf0f9,SCR,2024-06-24_13h46.49.720,LearnStrategy,2023.2.3,Win32,59.88023952,2,1,8,0.394444501,0.414814817,1,0,0,1.1596,Gabbro_12,4,12,6,7,1.16,4,12,-0.396296289,-0.235185199,1,0,0,3.842,Andesite_rect,1,3.842,0,7,0,7,0,1,,,,,,,,,,,,,
5ee29028fb6eba3d81ebf0f9,SCR,2024-06-24_13h46.49.720,LearnStrategy,2023.2.3,Win32,59.88023952,2,1,9,0.529629601,-0.100000028,1,0,0,1.2123,Pegmatite_07,6,07,3,8,1.212,6,07,-0.141666624,-0.385185171,1,0,0,2.2879,Pegmatite_rect,6,2.288,1,8,0,8,0,1,,,,,,,,,,,,,
5ee29028fb6eba3d81ebf0f9,SCR,2024-06-24_13h46.49.720,LearnStrategy,2023.2.3,Win32,59.88023952,2,1,10,-0.065740727,0.096296275,1,0,0,1.1462,Andesite_01,1,01,4,4,1.146,1,01,-0.375,-0.382407436,1,0,0,0.982,Obsidian_rect,5,0.982,0,9,0,9,0,1,,,,,,,,,,,,,
5ee29028fb6eba3d81ebf0f9,SCR,2024-06-24_13h46.49.720,LearnStrategy,2023.2.3,Win32,59.88023952,2,1,11,0.419444473,-0.434259273,1,0,0,1.1254,Basalt_14,2,14,1,7,1.125,2,14,0.411111196,-0.237963005,1,0,0,1.749,Gabbro_rect,4,1.749,0,10,0,10,0,1,,,,,,,,,,,,,
5ee29028fb6eba3d81ebf0f9,SCR,2024-06-24_13h46.49.720,LearnStrategy,2023.2.3,Win32,59.88023952,2,1,12,-0.424999979,0.26666666,1,0,0,1.1611,Pumice_14,8,14,5,2,1.161,8,14,0.363888917,-0.396296325,1,0,0,1.3497,Pumice_rect,8,1.35,1,11,0,11,0,1,,,,,,,,,,,,,
5ee29028fb6eba3d81ebf0f9,SCR,2024-06-24_13h46.49.720,LearnStrategy,2023.2.3,Win32,59.88023952,2,1,13,0.557407379,0.401851848,1,0,0,1.3244,Gabbro_08,4,08,6,8,1.324,4,08,0.174074102,-0.25,1,0,0,5.3058,Diorite_rect,3,5.306,0,12,0,12,0,1,,,,,,,,,,,,,
5ee29028fb6eba3d81ebf0f9,SCR,2024-06-24_13h46.49.720,LearnStrategy,2023.2.3,Win32,59.88023952,2,1,14,-0.074074074,0.102777764,1,0,0,0.763,Andesite_01,1,01,4,4,0.763,1,01,-0.37037037,-0.248148176,1,0,0,1.2374,Andesite_rect,1,1.237,1,13,0,13,0,1,,,,,,,,,,,,,
5ee29028fb6eba3d81ebf0f9,SCR,2024-06-24_13h46.49.720,LearnStrategy,2023.2.3,Win32,59.88023952,2,1,15,-0.257407365,-0.123148176,1,0,0,1.4618,Peridotite_08,7,08,3,3,1.462,7,08,0.151851866,-0.412037037,1,0,0,1.5384,Peridotite_rect,7,1.538,1,14,0,14,0,1,,,,,,,,,,,,,
5ee29028fb6eba3d81ebf0f9,SCR,2024-06-24_13h46.49.720,LearnStrategy,2023.2.3,Win32,59.88023952,2,1,16,-0.236111111,0.429629631,1,0,0,1.1694,Obsidian_14,5,14,6,3,1.169,5,14,-0.366666653,-0.392592607,1,0,0,0.95,Obsidian_rect,5,0.95,1,15,0,15,0,1,,,,,,,,,,,,,
5ee29028fb6eba3d81ebf0f9,SCR,2024-06-24_13h46.49.720,LearnStrategy,2023.2.3,Win32,59.88023952,2,2,1,,,,,,,,3,06,,,,,,,,,,,,,4,13.132,0,,,,,,0.414814843,-0.242592635,1,0,0,13.1323,Gabbro_rect,0,0,0,0,1,
5ee29028fb6eba3d81ebf0f9,SCR,2024-06-24_13h46.49.720,LearnStrategy,2023.2.3,Win32,59.88023952,2,2,2,,,,,,,,4,01,,,,,,,,,,,,,7,1.382,0,,,,,,0.160185213,-0.398148148,1,0,0,1.382,Peridotite_rect,1,0,1,0,1,
5ee29028fb6eba3d81ebf0f9,SCR,2024-06-24_13h46.49.720,LearnStrategy,2023.2.3,Win32,59.88023952,2,2,3,,,,,,,,1,11,,,,,,,,,,,,,7,1.451,0,,,,,,0.160185213,-0.398148148,1,0,0,1.4507,Peridotite_rect,2,0,2,0,1,
5ee29028fb6eba3d81ebf0f9,SCR,2024-06-24_13h46.49.720,LearnStrategy,2023.2.3,Win32,59.88023952,2,2,4,,,,,,,,5,06,,,,,,,,,,,,,5,1.789,1,,,,,,-0.374074053,-0.384259259,1,0,0,1.7895,Obsidian_rect,3,0,3,0,1,
5ee29028fb6eba3d81ebf0f9,SCR,2024-06-24_13h46.49.720,LearnStrategy,2023.2.3,Win32,59.88023952,2,2,5,,,,,,,,2,16,,,,,,,,,,,,,4,1.271,0,,,,,,0.468518575,-0.242592635,1,0,0,1.2711,Gabbro_rect,4,0,4,0,1,
5ee29028fb6eba3d81ebf0f9,SCR,2024-06-24_13h46.49.720,LearnStrategy,2023.2.3,Win32,59.88023952,2,2,6,,,,,,,,1,06,,,,,,,,,,,,,8,2.51,0,,,,,,0.433333362,-0.39444443,1,0,0,2.5095,Pumice_rect,5,0,5,0,1,
5ee29028fb6eba3d81ebf0f9,SCR,2024-06-24_13h46.49.720,LearnStrategy,2023.2.3,Win32,59.88023952,2,2,7,,,,,,,,7,04,,,,,,,,,,,,,3,2.064,0,,,,,,0.183333362,-0.271296325,1,0,0,2.0643,Diorite_rect,6,0,6,0,1,
5ee29028fb6eba3d81ebf0f9,SCR,2024-06-24_13h46.49.720,LearnStrategy,2023.2.3,Win32,59.88023952,2,2,8,,,,,,,,2,10,,,,,,,,,,,,,1,1.735,0,,,,,,-0.337962963,-0.262037065,1,0,0,1.7354,Andesite_rect,7,0,7,0,1,
5ee29028fb6eba3d81ebf0f9,SCR,2024-06-24_13h46.49.720,LearnStrategy,2023.2.3,Win32,59.88023952,2,2,9,,,,,,,,7,02,,,,,,,,,,,,,7,9.617,1,,,,,,0.116666653,-0.410185213,1,0,0,9.6165,Peridotite_rect,8,0,8,0,1,
5ee29028fb6eba3d81ebf0f9,SCR,2024-06-24_13h46.49.720,LearnStrategy,2023.2.3,Win32,59.88023952,2,2,10,,,,,,,,5,08,,,,,,,,,,,,,5,1.326,1,,,,,,-0.38703703,-0.410185213,1,0,0,1.3259,Obsidian_rect,9,0,9,0,1,
5ee29028fb6eba3d81ebf0f9,SCR,2024-06-24_13h46.49.720,LearnStrategy,2023.2.3,Win32,59.88023952,2,2,11,,,,,,,,6,09,,,,,,,,,,,,,6,4.564,1,,,,,,-0.056481467,-0.396296325,1,0,0,4.5639,Pegmatite_rect,10,0,10,0,1,
5ee29028fb6eba3d81ebf0f9,SCR,2024-06-24_13h46.49.720,LearnStrategy,2023.2.3,Win32,59.88023952,2,2,12,,,,,,,,4,05,,,,,,,,,,,,,2,1.918,0,,,,,,-0.053703661,-0.257407436,1,0,0,1.9181,Basalt_rect,11,0,11,0,1,
5ee29028fb6eba3d81ebf0f9,SCR,2024-06-24_13h46.49.720,LearnStrategy,2023.2.3,Win32,59.88023952,2,2,13,,,,,,,,8,09,,,,,,,,,,,,,8,1.927,1,,,,,,0.452777863,-0.419444473,1,0,0,1.9267,Pumice_rect,12,0,12,0,1,
5ee29028fb6eba3d81ebf0f9,SCR,2024-06-24_13h46.49.720,LearnStrategy,2023.2.3,Win32,59.88023952,2,2,14,,,,,,,,8,13,,,,,,,,,,,,,8,1.694,1,,,,,,0.452777863,-0.419444473,1,0,0,1.6936,Pumice_rect,13,0,13,0,1,
5ee29028fb6eba3d81ebf0f9,SCR,2024-06-24_13h46.49.720,LearnStrategy,2023.2.3,Win32,59.88023952,2,2,15,,,,,,,,6,05,,,,,,,,,,,,,4,2.116,0,,,,,,0.395370342,-0.262037065,1,0,0,2.1156,Gabbro_rect,14,0,14,0,1,
5ee29028fb6eba3d81ebf0f9,SCR,2024-06-24_13h46.49.720,LearnStrategy,2023.2.3,Win32,59.88023952,2,2,16,,,,,,,,3,10,,,,,,,,,,,,,3,2.778,1,,,,,,0.098148134,-0.251851894,1,0,0,2.7775,Diorite_rect,15,0,15,0,1,
5ee29028fb6eba3d81ebf0f9,SCR,2024-06-24_13h46.49.720,LearnStrategy,2023.2.3,Win32,59.88023952,3,1,1,0.374074159,-0.390740783,1,0,0,1.5151,Basalt_14,2,14,1,7,1.515,2,14,-0.089814787,-0.25462963,1,0,0,2.7404,Basalt_rect,2,2.74,1,0,0,0,0,1,,,,,,,,,,,,,
5ee29028fb6eba3d81ebf0f9,SCR,2024-06-24_13h46.49.720,LearnStrategy,2023.2.3,Win32,59.88023952,3,1,2,0.395370342,-0.39444443,1,0,0,1.0475,Basalt_14,2,14,1,7,1.048,2,14,-0.12037037,-0.237037023,1,0,0,1.0491,Basalt_rect,2,1.049,1,1,0,1,0,1,,,,,,,,,,,,,
5ee29028fb6eba3d81ebf0f9,SCR,2024-06-24_13h46.49.720,LearnStrategy,2023.2.3,Win32,59.88023952,3,1,3,0.425000085,0.418518517,1,0,0,1.4361,Gabbro_12,4,12,6,7,1.436,4,12,0.438888974,-0.235185199,1,0,0,4.5755,Gabbro_rect,4,4.575,1,2,0,2,0,1,,,,,,,,,,,,,
5ee29028fb6eba3d81ebf0f9,SCR,2024-06-24_13h46.49.720,LearnStrategy,2023.2.3,Win32,59.88023952,3,1,4,-0.385185171,0.237037041,1,0,0,5.2909,Pumice_14,8,14,5,2,5.291,5,02,0.363888917,-0.40370369,1,0,0,1.4478,Pumice_rect,8,1.448,1,3,0,3,0,1,,,,,,,,,,,,,
5ee29028fb6eba3d81ebf0f9,SCR,2024-06-24_13h46.49.720,LearnStrategy,2023.2.3,Win32,59.88023952,3,1,5,-0.219444416,-0.075925933,1,0,0,0.9755,Peridotite_08,7,08,3,3,0.976,7,08,0.17777782,-0.268518519,1,0,0,1.3919,Diorite_rect,3,1.392,0,4,0,4,0,1,,,,,,,,,,,,,
5ee29028fb6eba3d81ebf0f9,SCR,2024-06-24_13h46.49.720,LearnStrategy,2023.2.3,Win32,59.88023952,3,1,6,-0.512962942,0.086111104,1,0,0,1.3724,Andesite_07,1,07,4,1,1.372,1,07,0.083333333,-0.240740741,1,0,0,3.5979,Diorite_rect,3,3.598,0,5,0,5,0,1,,,,,,,,,,,,,
5ee29028fb6eba3d81ebf0f9,SCR,2024-06-24_13h46.49.720,LearnStrategy,2023.2.3,Win32,59.88023952,3,1,7,0.236111111,0.276851848,1,0,0,0.9688,Gabbro_13,4,13,5,6,0.969,4,13,0.140740783,-0.262037065,1,0,0,3.8406,Diorite_rect,3,3.841,0,6,0,6,0,1,,,,,,,,,,,,,
5ee29028fb6eba3d81ebf0f9,SCR,2024-06-24_13h46.49.720,LearnStrategy,2023.2.3,Win32,59.88023952,3,1,8,-0.526851831,-0.402777778,1,0,0,1.0728,Diorite_15,3,15,1,1,1.073,3,15,0.124074088,-0.247222265,1,0,0,2.4798,Diorite_rect,3,2.48,1,7,0,7,0,1,,,,,,,,,,,,,
5ee29028fb6eba3d81ebf0f9,SCR,2024-06-24_13h46.49.720,LearnStrategy,2023.2.3,Win32,59.88023952,3,1,9,-0.550925926,0.256481471,1,0,0,1.1176,Diorite_08,3,08,5,1,1.118,3,08,0.188888903,-0.408333319,1,0,0,1.4745,Peridotite_rect,7,1.475,0,8,0,8,0,1,,,,,,,,,,,,,
5ee29028fb6eba3d81ebf0f9,SCR,2024-06-24_13h46.49.720,LearnStrategy,2023.2.3,Win32,59.88023952,3,1,10,0.530555584,-0.118518547,1,0,0,1.193,Pegmatite_07,6,07,3,8,1.193,6,07,0.178703732,-0.417592578,1,0,0,1.8567,Peridotite_rect,7,1.857,0,9,0,9,0,1,,,,,,,,,,,,,
5ee29028fb6eba3d81ebf0f9,SCR,2024-06-24_13h46.49.720,LearnStrategy,2023.2.3,Win32,59.88023952,3,1,11,0.57685188,0.077777757,1,0,0,1.1096,Andesite_05,1,05,4,8,1.11,1,05,-0.116666653,-0.392592607,1,0,0,5.7363,Pegmatite_rect,6,5.736,0,10,0,10,0,1,,,,,,,,,,,,,
5ee29028fb6eba3d81ebf0f9,SCR,2024-06-24_13h46.49.720,LearnStrategy,2023.2.3,Win32,59.88023952,3,1,12,-0.075925898,0.279629619,1,0,0,1.2545,Peridotite_15,7,15,5,4,1.255,7,15,0.136111153,-0.378703718,1,0,0,1.1151,Peridotite_rect,7,1.115,1,11,0,11,0,1,,,,,,,,,,,,,
5ee29028fb6eba3d81ebf0f9,SCR,2024-06-24_13h46.49.720,LearnStrategy,2023.2.3,Win32,59.88023952,3,1,13,0.557407379,0.394444439,1,0,0,1.0147,Gabbro_08,4,08,6,8,1.015,4,08,0.106481481,-0.260185171,1,0,0,3.0412,Diorite_rect,3,3.041,0,12,0,12,0,1,,,,,,,,,,,,,
5ee29028fb6eba3d81ebf0f9,SCR,2024-06-24_13h46.49.720,LearnStrategy,2023.2.3,Win32,59.88023952,3,1,14,-0.551851838,-0.103703746,1,0,0,1.2082,Basalt_08,2,08,3,1,1.208,2,08,-0.389814801,-0.259259259,1,0,0,2.5161,Andesite_rect,1,2.516,0,13,0,13,0,1,,,,,,,,,,,,,
5ee29028fb6eba3d81ebf0f9,SCR,2024-06-24_13h46.49.720,LearnStrategy,2023.2.3,Win32,59.88023952,3,1,15,0.385185242,0.104629623,1,0,0,1.1095,Andesite_03,1,03,4,7,1.11,1,03,0.124074088,-0.253703718,1,0,0,3.209,Diorite_rect,3,3.209,0,14,0,14,0,1,,,,,,,,,,,,,
5ee29028fb6eba3d81ebf0f9,SCR,2024-06-24_13h46.49.720,LearnStrategy,2023.2.3,Win32,59.88023952,3,1,16,0.583333333,-0.068518533,1,0,0,1.1519,Pegmatite_07,6,07,3,8,1.152,6,07,0.173148191,-0.401851866,1,0,0,1.747,Peridotite_rect,7,1.747,0,15,0,15,0,1,,,,,,,,,,,,,
5ee29028fb6eba3d81ebf0f9,SCR,2024-06-24_13h46.49.720,LearnStrategy,2023.2.3,Win32,59.88023952,3,2,1,,,,,,,,6,13,,,,,,,,,,,,,4,12.892,0,,,,,,0.3648149,-0.243518547,1,0,0,12.8919,Gabbro_rect,0,0,0,0,1,
5ee29028fb6eba3d81ebf0f9,SCR,2024-06-24_13h46.49.720,LearnStrategy,2023.2.3,Win32,59.88023952,3,2,2,,,,,,,,7,16,,,,,,,,,,,,,1,3.286,0,,,,,,-0.349074081,-0.24537037,1,0,0,3.2865,Andesite_rect,1,0,1,0,1,
5ee29028fb6eba3d81ebf0f9,SCR,2024-06-24_13h46.49.720,LearnStrategy,2023.2.3,Win32,59.88023952,3,2,3,,,,,,,,8,03,,,,,,,,,,,,,8,1.276,1,,,,,,0.395370342,-0.400000042,1,0,0,1.2758,Pumice_rect,2,0,2,0,1,
5ee29028fb6eba3d81ebf0f9,SCR,2024-06-24_13h46.49.720,LearnStrategy,2023.2.3,Win32,59.88023952,3,2,4,,,,,,,,4,03,,,,,,,,,,,,,4,2.269,1,,,,,,0.399074131,-0.240740741,1,0,0,2.2695,Gabbro_rect,3,0,3,0,1,
5ee29028fb6eba3d81ebf0f9,SCR,2024-06-24_13h46.49.720,LearnStrategy,2023.2.3,Win32,59.88023952,3,2,5,,,,,,,,3,13,,,,,,,,,,,,,3,1.619,1,,,,,,0.220370399,-0.247222265,1,0,0,1.6194,Diorite_rect,4,0,4,0,1,
5ee29028fb6eba3d81ebf0f9,SCR,2024-06-24_13h46.49.720,LearnStrategy,2023.2.3,Win32,59.88023952,3,2,6,,,,,,,,3,07,,,,,,,,,,,,,3,0.741,1,,,,,,0.220370399,-0.247222265,1,0,0,0.7414,Diorite_rect,5,0,5,0,1,
5ee29028fb6eba3d81ebf0f9,SCR,2024-06-24_13h46.49.720,LearnStrategy,2023.2.3,Win32,59.88023952,3,2,7,,,,,,,,4,11,,,,,,,,,,,,,2,2.16,0,,,,,,-0.12037037,-0.262037065,1,0,0,2.1597,Basalt_rect,6,0,6,0,1,
5ee29028fb6eba3d81ebf0f9,SCR,2024-06-24_13h46.49.720,LearnStrategy,2023.2.3,Win32,59.88023952,3,2,8,,,,,,,,2,12,,,,,,,,,,,,,2,0.596,1,,,,,,-0.12037037,-0.262037065,1,0,0,0.5955,Basalt_rect,7,0,7,0,1,
5ee29028fb6eba3d81ebf0f9,SCR,2024-06-24_13h46.49.720,LearnStrategy,2023.2.3,Win32,59.88023952,3,2,9,,,,,,,,5,09,,,,,,,,,,,,,5,1.356,1,,,,,,-0.402777778,-0.418518561,1,0,0,1.3557,Obsidian_rect,8,0,8,0,1,
5ee29028fb6eba3d81ebf0f9,SCR,2024-06-24_13h46.49.720,LearnStrategy,2023.2.3,Win32,59.88023952,3,2,10,,,,,,,,2,02,,,,,,,,,,,,,1,2.366,0,,,,,,-0.40370369,-0.243518547,1,0,0,2.3665,Andesite_rect,9,0,9,0,1,
5ee29028fb6eba3d81ebf0f9,SCR,2024-06-24_13h46.49.720,LearnStrategy,2023.2.3,Win32,59.88023952,3,2,11,,,,,,,,1,09,,,,,,,,,,,,,8,1.475,0,,,,,,0.421296296,-0.393518519,1,0,0,1.4751,Pumice_rect,10,0,10,0,1,
5ee29028fb6eba3d81ebf0f9,SCR,2024-06-24_13h46.49.720,LearnStrategy,2023.2.3,Win32,59.88023952,3,2,12,,,,,,,,5,12,,,,,,,,,,,,,5,1.118,1,,,,,,-0.368518511,-0.398148148,1,0,0,1.118,Obsidian_rect,11,0,11,0,1,
5ee29028fb6eba3d81ebf0f9,SCR,2024-06-24_13h46.49.720,LearnStrategy,2023.2.3,Win32,59.88023952,3,2,13,,,,,,,,6,15,,,,,,,,,,,,,7,3.187,0,,,,,,0.114814829,-0.408333319,1,0,0,3.1868,Peridotite_rect,12,0,12,0,1,
5ee29028fb6eba3d81ebf0f9,SCR,2024-06-24_13h46.49.720,LearnStrategy,2023.2.3,Win32,59.88023952,3,2,14,,,,,,,,8,04,,,,,,,,,,,,,8,1.11,1,,,,,,0.353703675,-0.401851866,1,0,0,1.1104,Pumice_rect,13,0,13,0,1,
5ee29028fb6eba3d81ebf0f9,SCR,2024-06-24_13h46.49.720,LearnStrategy,2023.2.3,Win32,59.88023952,3,2,15,,,,,,,,7,13,,,,,,,,,,,,,7,1.632,1,,,,,,0.155555584,-0.416666667,1,0,0,1.6316,Peridotite_rect,14,0,14,0,1,
5ee29028fb6eba3d81ebf0f9,SCR,2024-06-24_13h46.49.720,LearnStrategy,2023.2.3,Win32,59.88023952,3,2,16,,,,,,,,1,10,,,,,,,,,,,,,6,1.331,0,,,,,,-0.104629587,-0.406481496,1,0,0,1.3308,Pegmatite_rect,15,0,15,0,1,
5ee29028fb6eba3d81ebf0f9,SCR,2024-06-24_13h46.49.720,LearnStrategy,2023.2.3,Win32,59.88023952,4,1,1,-0.247222194,-0.093518504,1,0,0,0.9137,Peridotite_08,7,08,3,3,0.914,7,08,0.136111153,-0.405555584,1,0,0,1.3305,Peridotite_rect,7,1.331,1,0,0,0,0,1,,,,,,,,,,,,,
5ee29028fb6eba3d81ebf0f9,SCR,2024-06-24_13h46.49.720,LearnStrategy,2023.2.3,Win32,59.88023952,4,1,2,-0.372222229,0.075925933,1,0,0,1.0688,Basalt_06,2,06,4,2,1.069,2,06,-0.336111104,-0.234259288,1,0,0,1.049,Andesite_rect,1,1.049,0,1,0,1,0,1,,,,,,,,,,,,,
5ee29028fb6eba3d81ebf0f9,SCR,2024-06-24_13h46.49.720,LearnStrategy,2023.2.3,Win32,59.88023952,4,1,3,-0.266666624,0.255555559,1,0,0,0.9252,Pegmatite_03,6,03,5,3,0.925,6,03,0.118518547,-0.235185199,1,0,0,2.0216,Diorite_rect,3,2.022,0,2,0,2,0,1,,,,,,,,,,,,,
5ee29028fb6eba3d81ebf0f9,SCR,2024-06-24_13h46.49.720,LearnStrategy,2023.2.3,Win32,59.88023952,4,1,4,0.396296325,0.213888892,1,0,0,1.1296,Peridotite_07,7,07,5,7,1.13,7,07,-0.126851824,-0.398148148,1,0,0,1.5167,Pegmatite_rect,6,1.517,0,3,0,3,0,1,,,,,,,,,,,,,
5ee29028fb6eba3d81ebf0f9,SCR,2024-06-24_13h46.49.720,LearnStrategy,2023.2.3,Win32,59.88023952,4,1,5,0.587037122,0.409259257,1,0,0,1.261,Gabbro_08,4,08,6,8,1.261,4,08,0.141666695,-0.242592635,1,0,0,2.1653,Diorite_rect,3,2.165,0,4,0,4,0,1,,,,,,,,,,,,,
5ee29028fb6eba3d81ebf0f9,SCR,2024-06-24_13h46.49.720,LearnStrategy,2023.2.3,Win32,59.88023952,4,1,6,0.219444487,0.402777778,1,0,0,1.1263,Diorite_11,3,11,6,6,1.126,3,11,0.164814843,-0.243518547,1,0,0,0.9316,Diorite_rect,3,0.932,1,5,0,5,0,1,,,,,,,,,,,,,
5ee29028fb6eba3d81ebf0f9,SCR,2024-06-24_13h46.49.720,LearnStrategy,2023.2.3,Win32,59.88023952,4,1,7,-0.548148155,0.087037016,1,0,0,1.0522,Andesite_07,1,07,4,1,1.052,1,07,0.12037037,-0.248148176,1,0,0,1.4801,Diorite_rect,3,1.48,0,6,0,6,0,1,,,,,,,,,,,,,
5ee29028fb6eba3d81ebf0f9,SCR,2024-06-24_13h46.49.720,LearnStrategy,2023.2.3,Win32,59.88023952,4,1,8,0.517592677,-0.113888917,1,0,0,1.1723,Pegmatite_07,6,07,3,8,1.172,6,07,-0.12037037,-0.406481496,1,0,0,0.8661,Pegmatite_rect,6,0.866,1,7,0,7,0,1,,,,,,,,,,,,,
5ee29028fb6eba3d81ebf0f9,SCR,2024-06-24_13h46.49.720,LearnStrategy,2023.2.3,Win32,59.88023952,4,1,9,-0.212037051,-0.238888917,1,0,0,1.1171,Andesite_04,1,04,2,3,1.117,1,04,0.462962963,-0.387962977,1,0,0,1.4324,Pumice_rect,8,1.432,0,8,0,8,0,1,,,,,,,,,,,,,
5ee29028fb6eba3d81ebf0f9,SCR,2024-06-24_13h46.49.720,LearnStrategy,2023.2.3,Win32,59.88023952,4,1,10,0.198148162,-0.081481474,1,0,0,0.6896,Basalt_01,2,01,3,6,0.69,2,01,-0.091666681,-0.238888917,1,0,0,1.6228,Basalt_rect,2,1.623,1,9,0,9,0,1,,,,,,,,,,,,,
5ee29028fb6eba3d81ebf0f9,SCR,2024-06-24_13h46.49.720,LearnStrategy,2023.2.3,Win32,59.88023952,4,1,11,0.271296325,0.263888889,1,0,0,1.0337,Gabbro_13,4,13,5,6,1.034,4,13,0.117592635,-0.248148176,1,0,0,2.6821,Diorite_rect,3,2.682,0,10,0,10,0,1,,,,,,,,,,,,,
5ee29028fb6eba3d81ebf0f9,SCR,2024-06-24_13h46.49.720,LearnStrategy,2023.2.3,Win32,59.88023952,4,1,12,0.07685188,0.084259245,1,0,0,0.7514,Pegmatite_16,6,16,4,5,0.751,6,16,-0.154629601,-0.416666667,1,0,0,10.4641,Pegmatite_rect,6,10.464,1,11,0,11,0,1,,,,,,,,,,,,,
5ee29028fb6eba3d81ebf0f9,SCR,2024-06-24_13h46.49.720,LearnStrategy,2023.2.3,Win32,59.88023952,4,1,13,0.569444444,0.407407407,1,0,0,1.0816,Gabbro_08,4,08,6,8,1.082,4,08,0.429629714,-0.236111111,1,0,0,1.6047,Gabbro_rect,4,1.605,1,12,0,12,0,1,,,,,,,,,,,,,
5ee29028fb6eba3d81ebf0f9,SCR,2024-06-24_13h46.49.720,LearnStrategy,2023.2.3,Win32,59.88023952,4,1,14,0.077777792,-0.09629631,1,0,0,1.2629,Basalt_09,2,09,3,5,1.263,2,09,-0.163888861,-0.239814829,1,0,0,0.7471,Basalt_rect,2,0.747,1,13,0,13,0,1,,,,,,,,,,,,,
5ee29028fb6eba3d81ebf0f9,SCR,2024-06-24_13h46.49.720,LearnStrategy,2023.2.3,Win32,59.88023952,4,1,15,-0.255555541,0.091666645,1,0,0,0.7062,Pumice_15,8,15,4,3,0.706,8,15,0.398148148,-0.389814801,1,0,0,0.9031,Pumice_rect,8,0.903,1,14,0,14,0,1,,,,,,,,,,,,,
5ee29028fb6eba3d81ebf0f9,SCR,2024-06-24_13h46.49.720,LearnStrategy,2023.2.3,Win32,59.88023952,4,1,16,0.578703704,0.221296293,1,0,0,1.2379,Andesite_16,1,16,5,8,1.238,1,16,0.209259245,-0.257407436,1,0,0,6.9164,Diorite_rect,3,6.916,0,15,0,15,0,1,,,,,,,,,,,,,
5ee29028fb6eba3d81ebf0f9,SCR,2024-06-24_13h46.49.720,LearnStrategy,2023.2.3,Win32,59.88023952,4,2,1,,,,,,,,3,06,,,,,,,,,,,,,3,10.481,1,,,,,,0.140740783,-0.241666653,1,0,0,10.4812,Diorite_rect,0,0,0,0,1,
5ee29028fb6eba3d81ebf0f9,SCR,2024-06-24_13h46.49.720,LearnStrategy,2023.2.3,Win32,59.88023952,4,2,2,,,,,,,,7,05,,,,,,,,,,,,,7,8.255,1,,,,,,0.112037023,-0.405555584,1,0,0,8.2546,Peridotite_rect,1,0,1,0,1,
5ee29028fb6eba3d81ebf0f9,SCR,2024-06-24_13h46.49.720,LearnStrategy,2023.2.3,Win32,59.88023952,4,2,3,,,,,,,,2,10,,,,,,,,,,,,,2,4.572,1,,,,,,-0.12962963,-0.249074088,1,0,0,4.5722,Basalt_rect,2,0,2,0,1,
5ee29028fb6eba3d81ebf0f9,SCR,2024-06-24_13h46.49.720,LearnStrategy,2023.2.3,Win32,59.88023952,4,2,4,,,,,,,,8,09,,,,,,,,,,,,,8,1.722,1,,,,,,0.394444501,-0.395370413,1,0,0,1.7222,Pumice_rect,3,0,3,0,1,
5ee29028fb6eba3d81ebf0f9,SCR,2024-06-24_13h46.49.720,LearnStrategy,2023.2.3,Win32,59.88023952,4,2,5,,,,,,,,4,03,,,,,,,,,,,,,3,1.26,0,,,,,,0.14444443,-0.247222265,1,0,0,1.2602,Diorite_rect,4,0,4,0,1,
5ee29028fb6eba3d81ebf0f9,SCR,2024-06-24_13h46.49.720,LearnStrategy,2023.2.3,Win32,59.88023952,4,2,6,,,,,,,,6,06,,,,,,,,,,,,,7,3.41,0,,,,,,0.152777778,-0.410185213,1,0,0,3.4102,Peridotite_rect,5,0,5,0,1,
5ee29028fb6eba3d81ebf0f9,SCR,2024-06-24_13h46.49.720,LearnStrategy,2023.2.3,Win32,59.88023952,4,2,7,,,,,,,,1,14,,,,,,,,,,,,,7,0.856,0,,,,,,0.152777778,-0.410185213,1,0,0,0.8555,Peridotite_rect,6,0,6,0,1,
5ee29028fb6eba3d81ebf0f9,SCR,2024-06-24_13h46.49.720,LearnStrategy,2023.2.3,Win32,59.88023952,4,2,8,,,,,,,,3,13,,,,,,,,,,,,,7,0.635,0,,,,,,0.152777778,-0.410185213,1,0,0,0.6352,Peridotite_rect,7,0,7,0,1,
5ee29028fb6eba3d81ebf0f9,SCR,2024-06-24_13h46.49.720,LearnStrategy,2023.2.3,Win32,59.88023952,4,2,9,,,,,,,,1,10,,,,,,,,,,,,,4,4.472,0,,,,,,0.389814871,-0.253703718,1,0,0,4.4724,Gabbro_rect,8,0,8,0,1,
5ee29028fb6eba3d81ebf0f9,SCR,2024-06-24_13h46.49.720,LearnStrategy,2023.2.3,Win32,59.88023952,4,2,10,,,,,,,,5,06,,,,,,,,,,,,,5,1.29,1,,,,,,-0.330555563,-0.408333319,1,0,0,1.2897,Obsidian_rect,9,0,9,0,1,
5ee29028fb6eba3d81ebf0f9,SCR,2024-06-24_13h46.49.720,LearnStrategy,2023.2.3,Win32,59.88023952,4,2,11,,,,,,,,4,15,,,,,,,,,,,,,4,7.073,1,,,,,,0.410185213,-0.229629658,1,0,0,7.073,Gabbro_rect,10,0,10,0,1,
5ee29028fb6eba3d81ebf0f9,SCR,2024-06-24_13h46.49.720,LearnStrategy,2023.2.3,Win32,59.88023952,4,2,12,,,,,,,,5,12,,,,,,,,,,,,,5,1.933,1,,,,,,-0.372222229,-0.409259302,1,0,0,1.9332,Obsidian_rect,11,0,11,0,1,
5ee29028fb6eba3d81ebf0f9,SCR,2024-06-24_13h46.49.720,LearnStrategy,2023.2.3,Win32,59.88023952,4,2,13,,,,,,,,7,16,,,,,,,,,,,,,7,7.336,1,,,,,,0.159259302,-0.392592607,1,0,0,7.3358,Peridotite_rect,12,0,12,0,1,
5ee29028fb6eba3d81ebf0f9,SCR,2024-06-24_13h46.49.720,LearnStrategy,2023.2.3,Win32,59.88023952,4,2,14,,,,,,,,2,16,,,,,,,,,,,,,2,4.201,1,,,,,,-0.175000014,-0.257407436,1,0,0,4.2007,Basalt_rect,13,0,13,0,1,
5ee29028fb6eba3d81ebf0f9,SCR,2024-06-24_13h46.49.720,LearnStrategy,2023.2.3,Win32,59.88023952,4,2,15,,,,,,,,6,13,,,,,,,,,,,,,7,2.257,0,,,,,,0.124074088,-0.400000042,1,0,0,2.257,Peridotite_rect,14,0,14,0,1,
5ee29028fb6eba3d81ebf0f9,SCR,2024-06-24_13h46.49.720,LearnStrategy,2023.2.3,Win32,59.88023952,4,2,16,,,,,,,,8,16,,,,,,,,,,,,,8,1.311,1,,,,,,0.354629658,-0.411111125,1,0,0,1.311,Pumice_rect,15,0,15,0,1,
5ee29028fb6eba3d81ebf0f9,SCR,2024-06-24_13h46.49.720,LearnStrategy,2023.2.3,Win32,59.88023952,5,1,1,-0.39166666,-0.086111104,1,0,0,1.595,Pegmatite_12,6,12,3,2,1.595,6,12,0.146296325,-0.258333347,1,0,0,6.1257,Diorite_rect,3,6.126,0,0,0,0,0,1,,,,,,,,,,,,,
5ee29028fb6eba3d81ebf0f9,SCR,2024-06-24_13h46.49.720,LearnStrategy,2023.2.3,Win32,59.88023952,5,1,2,0.557407379,-0.436111097,1,0,0,1.1673,Gabbro_14,4,14,1,8,1.167,4,14,0.375,-0.248148176,1,0,0,1.8237,Gabbro_rect,4,1.824,1,1,0,1,0,1,,,,,,,,,,,,,
5ee29028fb6eba3d81ebf0f9,SCR,2024-06-24_13h46.49.720,LearnStrategy,2023.2.3,Win32,59.88023952,5,1,3,0.399999972,-0.079629651,1,0,0,1.1056,Peridotite_14,7,14,3,7,1.106,7,14,0.358333305,-0.415740755,1,0,0,1.7163,Pumice_rect,8,1.716,0,2,0,2,0,1,,,,,,,,,,,,,
5ee29028fb6eba3d81ebf0f9,SCR,2024-06-24_13h46.49.720,LearnStrategy,2023.2.3,Win32,59.88023952,5,1,4,0.087037051,0.103703711,1,0,0,0.9264,Pegmatite_16,6,16,4,5,0.926,6,16,-0.094444416,-0.402777778,1,0,0,13.2175,Pegmatite_rect,6,13.217,1,3,0,3,0,1,,,,,,,,,,,,,
5ee29028fb6eba3d81ebf0f9,SCR,2024-06-24_13h46.49.720,LearnStrategy,2023.2.3,Win32,59.88023952,5,1,5,0.22592594,0.38055555,1,0,0,0.9618,Diorite_11,3,11,6,6,0.962,3,11,0.142592607,-0.252777806,1,0,0,4.9597,Diorite_rect,3,4.96,1,4,0,4,0,1,,,,,,,,,,,,,
5ee29028fb6eba3d81ebf0f9,SCR,2024-06-24_13h46.49.720,LearnStrategy,2023.2.3,Win32,59.88023952,5,1,6,0.516666695,0.390740739,1,0,0,1.046,Gabbro_08,4,08,6,8,1.046,4,08,0.422222279,-0.25,1,0,0,3.6385,Gabbro_rect,4,3.639,1,5,0,5,0,1,,,,,,,,,,,,,
5ee29028fb6eba3d81ebf0f9,SCR,2024-06-24_13h46.49.720,LearnStrategy,2023.2.3,Win32,59.88023952,5,1,7,0.412037037,0.10833334,1,0,0,0.8129,Andesite_03,1,03,4,7,0.813,1,03,-0.408333319,-0.264814801,1,0,0,2.5702,Andesite_rect,1,2.57,1,6,0,6,0,1,,,,,,,,,,,,,
5ee29028fb6eba3d81ebf0f9,SCR,2024-06-24_13h46.49.720,LearnStrategy,2023.2.3,Win32,59.88023952,5,1,8,0.531481566,0.212962963,1,0,0,0.9519,Andesite_16,1,16,5,8,0.952,1,16,-0.342592593,-0.232407393,1,0,0,1.8627,Andesite_rect,1,1.863,1,7,0,7,0,1,,,,,,,,,,,,,
5ee29028fb6eba3d81ebf0f9,SCR,2024-06-24_13h46.49.720,LearnStrategy,2023.2.3,Win32,59.88023952,5,1,9,0.562962991,0.095370363,1,0,0,1.1074,Andesite_05,1,05,4,8,1.107,1,05,-0.366666653,-0.257407436,1,0,0,1.0566,Andesite_rect,1,1.057,1,8,0,8,0,1,,,,,,,,,,,,,
5ee29028fb6eba3d81ebf0f9,SCR,2024-06-24_13h46.49.720,LearnStrategy,2023.2.3,Win32,59.88023952,5,1,10,-0.404629637,0.100925905,1,0,0,0.956,Basalt_06,2,06,4,2,0.956,2,06,-0.162037037,-0.253703718,1,0,0,0.8476,Basalt_rect,2,0.848,1,9,0,9,0,1,,,,,,,,,,,,,
5ee29028fb6eba3d81ebf0f9,SCR,2024-06-24_13h46.49.720,LearnStrategy,2023.2.3,Win32,59.88023952,5,1,11,0.522222307,0.049999979,1,0,0,0.7479,Andesite_05,1,05,4,8,0.748,1,05,-0.397222201,-0.271296325,1,0,0,0.8233,Andesite_rect,1,0.823,1,10,0,10,0,1,,,,,,,,,,,,,
5ee29028fb6eba3d81ebf0f9,SCR,2024-06-24_13h46.49.720,LearnStrategy,2023.2.3,Win32,59.88023952,5,1,12,-0.073148162,-0.411111125,1,0,0,1.1308,Diorite_12,3,12,1,4,1.131,3,12,0.162037037,-0.262962977,1,0,0,2.8073,Diorite_rect,3,2.807,1,11,0,11,0,1,,,,,,,,,,,,,
5ee29028fb6eba3d81ebf0f9,SCR,2024-06-24_13h46.49.720,LearnStrategy,2023.2.3,Win32,59.88023952,5,1,13,0.431481538,-0.37962963,1,0,0,0.8138,Basalt_14,2,14,1,7,0.814,2,14,0.426851908,-0.246296282,1,0,0,0.8063,Gabbro_rect,4,0.806,0,12,0,12,0,1,,,,,,,,,,,,,
5ee29028fb6eba3d81ebf0f9,SCR,2024-06-24_13h46.49.720,LearnStrategy,2023.2.3,Win32,59.88023952,5,1,14,-0.395370377,-0.098148134,1,0,0,1.0972,Pegmatite_12,6,12,3,2,1.097,6,12,-0.164814772,-0.413888931,1,0,0,9.1725,Pegmatite_rect,6,9.173,1,13,0,13,0,1,,,,,,,,,,,,,
5ee29028fb6eba3d81ebf0f9,SCR,2024-06-24_13h46.49.720,LearnStrategy,2023.2.3,Win32,59.88023952,5,1,15,-0.056481467,-0.092592593,1,0,0,0.7621,Peridotite_12,7,12,3,4,0.762,7,12,-0.106481481,-0.37962963,1,0,0,0.7397,Pegmatite_rect,6,0.74,0,14,0,14,0,1,,,,,,,,,,,,,
5ee29028fb6eba3d81ebf0f9,SCR,2024-06-24_13h46.49.720,LearnStrategy,2023.2.3,Win32,59.88023952,5,1,16,0.579629686,-0.431481467,1,0,0,1.1301,Gabbro_14,4,14,1,8,1.13,4,14,-0.121296282,-0.250925912,1,0,0,1.5921,Basalt_rect,2,1.592,0,15,0,15,0,1,,,,,,,,,,,,,
5ee29028fb6eba3d81ebf0f9,SCR,2024-06-24_13h46.49.720,LearnStrategy,2023.2.3,Win32,59.88023952,5,2,1,,,,,,,,5,09,,,,,,,,,,,,,5,1.189,1,,,,,,-0.365740741,-0.415740755,1,0,0,1.1888,Obsidian_rect,0,0,0,0,1,
5ee29028fb6eba3d81ebf0f9,SCR,2024-06-24_13h46.49.720,LearnStrategy,2023.2.3,Win32,59.88023952,5,2,2,,,,,,,,3,02,,,,,,,,,,,,,1,3.105,0,,,,,,-0.368518511,-0.229629658,1,0,0,3.105,Andesite_rect,1,0,1,0,1,
5ee29028fb6eba3d81ebf0f9,SCR,2024-06-24_13h46.49.720,LearnStrategy,2023.2.3,Win32,59.88023952,5,2,3,,,,,,,,2,05,,,,,,,,,,,,,4,2.956,0,,,,,,0.393518519,-0.234259288,1,0,0,2.9556,Gabbro_rect,2,0,2,0,1,
5ee29028fb6eba3d81ebf0f9,SCR,2024-06-24_13h46.49.720,LearnStrategy,2023.2.3,Win32,59.88023952,5,2,4,,,,,,,,7,10,,,,,,,,,,,,,7,12.925,1,,,,,,0.137962977,-0.386111153,1,0,0,12.9249,Peridotite_rect,3,0,3,0,1,
5ee29028fb6eba3d81ebf0f9,SCR,2024-06-24_13h46.49.720,LearnStrategy,2023.2.3,Win32,59.88023952,5,2,5,,,,,,,,4,05,,,,,,,,,,,,,7,0.803,0,,,,,,0.137962977,-0.384259259,1,0,0,0.8035,Peridotite_rect,4,0,4,0,1,
5ee29028fb6eba3d81ebf0f9,SCR,2024-06-24_13h46.49.720,LearnStrategy,2023.2.3,Win32,59.88023952,5,2,6,,,,,,,,6,11,,,,,,,,,,,,,6,3.422,1,,,,,,-0.116666653,-0.396296325,1,0,0,3.4223,Pegmatite_rect,5,0,5,0,1,
5ee29028fb6eba3d81ebf0f9,SCR,2024-06-24_13h46.49.720,LearnStrategy,2023.2.3,Win32,59.88023952,5,2,7,,,,,,,,8,05,,,,,,,,,,,,,8,1.023,1,,,,,,0.440740797,-0.397222236,1,0,0,1.0226,Pumice_rect,6,0,6,0,1,
5ee29028fb6eba3d81ebf0f9,SCR,2024-06-24_13h46.49.720,LearnStrategy,2023.2.3,Win32,59.88023952,5,2,8,,,,,,,,1,06,,,,,,,,,,,,,3,3.111,0,,,,,,0.140740783,-0.231481481,1,0,0,3.1105,Diorite_rect,7,0,7,0,1,
5ee29028fb6eba3d81ebf0f9,SCR,2024-06-24_13h46.49.720,LearnStrategy,2023.2.3,Win32,59.88023952,5,2,9,,,,,,,,7,13,,,,,,,,,,,,,7,2.138,1,,,,,,0.080555598,-0.382407436,1,0,0,2.1381,Peridotite_rect,8,0,8,0,1,
5ee29028fb6eba3d81ebf0f9,SCR,2024-06-24_13h46.49.720,LearnStrategy,2023.2.3,Win32,59.88023952,5,2,10,,,,,,,,2,11,,,,,,,,,,,,,1,3.522,0,,,,,,-0.377777771,-0.257407436,1,0,0,3.522,Andesite_rect,9,0,9,0,1,
5ee29028fb6eba3d81ebf0f9,SCR,2024-06-24_13h46.49.720,LearnStrategy,2023.2.3,Win32,59.88023952,5,2,11,,,,,,,,3,09,,,,,,,,,,,,,7,2.155,0,,,,,,0.195370356,-0.384259259,1,0,0,2.1551,Peridotite_rect,10,0,10,0,1,
5ee29028fb6eba3d81ebf0f9,SCR,2024-06-24_13h46.49.720,LearnStrategy,2023.2.3,Win32,59.88023952,5,2,12,,,,,,,,8,04,,,,,,,,,,,,,8,1.513,1,,,,,,0.404629601,-0.400925954,1,0,0,1.5132,Pumice_rect,11,0,11,0,1,
5ee29028fb6eba3d81ebf0f9,SCR,2024-06-24_13h46.49.720,LearnStrategy,2023.2.3,Win32,59.88023952,5,2,13,,,,,,,,1,09,,,,,,,,,,,,,8,0.673,0,,,,,,0.404629601,-0.400925954,1,0,0,0.6727,Pumice_rect,12,0,12,0,1,
5ee29028fb6eba3d81ebf0f9,SCR,2024-06-24_13h46.49.720,LearnStrategy,2023.2.3,Win32,59.88023952,5,2,14,,,,,,,,5,04,,,,,,,,,,,,,5,1.997,1,,,,,,-0.373148141,-0.396296325,1,0,0,1.9969,Obsidian_rect,13,0,13,0,1,
5ee29028fb6eba3d81ebf0f9,SCR,2024-06-24_13h46.49.720,LearnStrategy,2023.2.3,Win32,59.88023952,5,2,15,,,,,,,,4,01,,,,,,,,,,,,,1,3.138,0,,,,,,-0.413888896,-0.255555541,1,0,0,3.1381,Andesite_rect,14,0,14,0,1,
5ee29028fb6eba3d81ebf0f9,SCR,2024-06-24_13h46.49.720,LearnStrategy,2023.2.3,Win32,59.88023952,5,2,16,,,,,,,,6,09,,,,,,,,,,,,,7,1.068,0,,,,,,0.10092594,-0.389814801,1,0,0,1.0679,Peridotite_rect,15,0,15,0,1,
5ee29028fb6eba3d81ebf0f9,SCR,2024-06-24_13h46.49.720,LearnStrategy,2023.2.3,Win32,59.88023952,6,1,1,0.069444444,0.087037016,1,0,0,0.8977,Pegmatite_16,6,16,4,5,0.898,6,16,-0.091666681,-0.393518519,1,0,0,1.5351,Pegmatite_rect,6,1.535,1,0,0,0,0,1,,,,,,,,,,,,,
5ee29028fb6eba3d81ebf0f9,SCR,2024-06-24_13h46.49.720,LearnStrategy,2023.2.3,Win32,59.88023952,6,1,2,-0.54074072,0.242592582,1,0,0,1.123,Diorite_08,3,08,5,1,1.123,3,08,-0.364814794,-0.237963005,1,0,0,2.6105,Andesite_rect,1,2.611,0,1,0,1,0,1,,,,,,,,,,,,,
5ee29028fb6eba3d81ebf0f9,SCR,2024-06-24_13h46.49.720,LearnStrategy,2023.2.3,Win32,59.88023952,6,1,3,0.082407422,-0.265740783,1,0,0,1.1296,Gabbro_16,4,16,2,5,1.13,4,16,0.383333418,-0.25,1,0,0,2.0073,Gabbro_rect,4,2.007,1,2,0,2,0,1,,,,,,,,,,,,,
5ee29028fb6eba3d81ebf0f9,SCR,2024-06-24_13h46.49.720,LearnStrategy,2023.2.3,Win32,59.88023952,6,1,4,0.239814829,0.237037041,1,0,0,1.0248,Gabbro_13,4,13,5,6,1.025,4,13,0.162962949,-0.268518519,1,0,0,1.6237,Diorite_rect,3,1.624,0,3,0,3,0,1,,,,,,,,,,,,,
5ee29028fb6eba3d81ebf0f9,SCR,2024-06-24_13h46.49.720,LearnStrategy,2023.2.3,Win32,59.88023952,6,1,5,0.242592635,0.248148141,1,0,0,0.886,Gabbro_13,4,13,5,6,0.886,4,08,0.40833339,-0.242592635,1,0,0,1.1461,Gabbro_rect,4,1.146,1,4,0,4,0,1,,,,,,,,,,,,,
5ee29028fb6eba3d81ebf0f9,SCR,2024-06-24_13h46.49.720,LearnStrategy,2023.2.3,Win32,59.88023952,6,1,6,0.401851937,-0.45185188,1,0,0,0.9444,Basalt_14,2,14,1,7,0.944,6,12,0.392592677,-0.262962977,1,0,0,0.7531,Gabbro_rect,4,0.753,0,5,0,5,0,1,,,,,,,,,,,,,
5ee29028fb6eba3d81ebf0f9,SCR,2024-06-24_13h46.49.720,LearnStrategy,2023.2.3,Win32,59.88023952,6,1,7,0.567592621,-0.415740755,1,0,0,0.786,Gabbro_14,4,14,1,8,0.786,6,12,0.442592621,-0.249074088,1,0,0,0.9469,Gabbro_rect,4,0.947,1,6,0,6,0,1,,,,,,,,,,,,,
5ee29028fb6eba3d81ebf0f9,SCR,2024-06-24_13h46.49.720,LearnStrategy,2023.2.3,Win32,59.88023952,6,1,8,0.392592677,-0.45648151,1,0,0,0.8046,Basalt_14,2,14,1,7,0.805,2,08,-0.132407365,-0.240740741,1,0,0,1.2989,Basalt_rect,2,1.299,1,7,0,7,0,1,,,,,,,,,,,,,
5ee29028fb6eba3d81ebf0f9,SCR,2024-06-24_13h46.49.720,LearnStrategy,2023.2.3,Win32,59.88023952,6,1,9,-0.212962963,-0.248148176,1,0,0,0.8983,Andesite_04,1,04,2,3,0.898,1,04,-0.350925905,-0.258333347,1,0,0,3.2328,Andesite_rect,1,3.233,1,8,0,8,0,1,,,,,,,,,,,,,
5ee29028fb6eba3d81ebf0f9,SCR,2024-06-24_13h46.49.720,LearnStrategy,2023.2.3,Win32,59.88023952,6,1,10,-0.130555541,0.082407386,1,0,0,0.7554,Andesite_01,1,01,4,4,0.755,1,01,-0.112962935,-0.242592635,1,0,0,1.0793,Basalt_rect,2,1.079,0,9,0,9,0,1,,,,,,,,,,,,,
5ee29028fb6eba3d81ebf0f9,SCR,2024-06-24_13h46.49.720,LearnStrategy,2023.2.3,Win32,59.88023952,6,1,11,-0.065740727,0.072222215,1,0,0,0.5973,Andesite_01,1,01,4,4,0.597,1,16,-0.373148141,-0.236111111,1,0,0,0.8549,Andesite_rect,1,0.855,1,10,0,10,0,1,,,,,,,,,,,,,
5ee29028fb6eba3d81ebf0f9,SCR,2024-06-24_13h46.49.720,LearnStrategy,2023.2.3,Win32,59.88023952,6,1,12,-0.242592564,-0.247222265,1,0,0,0.7841,Andesite_04,1,04,2,3,0.784,1,05,-0.354629623,-0.243518547,1,0,0,0.5692,Andesite_rect,1,0.569,1,11,0,11,0,1,,,,,,,,,,,,,
5ee29028fb6eba3d81ebf0f9,SCR,2024-06-24_13h46.49.720,LearnStrategy,2023.2.3,Win32,59.88023952,6,1,13,0.232407393,0.401851848,1,0,0,0.833,Diorite_11,3,11,6,6,0.833,3,11,-0.333333333,-0.231481481,1,0,0,1.2487,Andesite_rect,1,1.249,0,12,0,12,0,1,,,,,,,,,,,,,
5ee29028fb6eba3d81ebf0f9,SCR,2024-06-24_13h46.49.720,LearnStrategy,2023.2.3,Win32,59.88023952,6,1,14,0.082407422,0.394444439,1,0,0,0.8688,Diorite_16,3,16,6,5,0.869,7,12,0.212037051,-0.264814801,1,0,0,0.7799,Diorite_rect,3,0.78,1,13,0,13,0,1,,,,,,,,,,,,,
5ee29028fb6eba3d81ebf0f9,SCR,2024-06-24_13h46.49.720,LearnStrategy,2023.2.3,Win32,59.88023952,6,1,15,0.233333376,0.420370367,1,0,0,0.7858,Diorite_11,3,11,6,6,0.786,8,10,0.145370413,-0.262037065,1,0,0,0.9979,Diorite_rect,3,0.998,1,14,0,14,0,1,,,,,,,,,,,,,
5ee29028fb6eba3d81ebf0f9,SCR,2024-06-24_13h46.49.720,LearnStrategy,2023.2.3,Win32,59.88023952,6,1,16,-0.52870369,-0.237963005,1,0,0,1.1074,Basalt_04,2,04,2,1,1.107,2,04,-0.412962949,-0.248148176,1,0,0,0.5203,Andesite_rect,1,0.52,0,15,0,15,0,1,,,,,,,,,,,,,
5ee29028fb6eba3d81ebf0f9,SCR,2024-06-24_13h46.49.720,LearnStrategy,2023.2.3,Win32,59.88023952,6,2,1,,,,,,,,3,07,,,,,,,,,,,,,1,2.514,0,,,,,,-0.343518504,-0.25,1,0,0,2.514,Andesite_rect,0,0,0,0,1,
5ee29028fb6eba3d81ebf0f9,SCR,2024-06-24_13h46.49.720,LearnStrategy,2023.2.3,Win32,59.88023952,6,2,2,,,,,,,,6,15,,,,,,,,,,,,,7,1.154,0,,,,,,0.080555598,-0.400000042,1,0,0,1.1544,Peridotite_rect,1,0,1,0,1,
5ee29028fb6eba3d81ebf0f9,SCR,2024-06-24_13h46.49.720,LearnStrategy,2023.2.3,Win32,59.88023952,6,2,3,,,,,,,,6,05,,,,,,,,,,,,,7,0.856,0,,,,,,0.080555598,-0.400000042,1,0,0,0.8565,Peridotite_rect,2,0,2,0,1,
5ee29028fb6eba3d81ebf0f9,SCR,2024-06-24_13h46.49.720,LearnStrategy,2023.2.3,Win32,59.88023952,6,2,4,,,,,,,,8,13,,,,,,,,,,,,,8,0.99,1,,,,,,0.33148151,-0.387962977,1,0,0,0.9896,Pumice_rect,3,0,3,0,1,
5ee29028fb6eba3d81ebf0f9,SCR,2024-06-24_13h46.49.720,LearnStrategy,2023.2.3,Win32,59.88023952,6,2,5,,,,,,,,1,11,,,,,,,,,,,,,8,1.706,0,,,,,,0.33148151,-0.387962977,1,0,0,1.7059,Pumice_rect,4,0,4,0,1,
5ee29028fb6eba3d81ebf0f9,SCR,2024-06-24_13h46.49.720,LearnStrategy,2023.2.3,Win32,59.88023952,6,2,6,,,,,,,,7,04,,,,,,,,,,,,,7,1.405,1,,,,,,0.14444443,-0.39444443,1,0,0,1.4053,Peridotite_rect,5,0,5,0,1,
5ee29028fb6eba3d81ebf0f9,SCR,2024-06-24_13h46.49.720,LearnStrategy,2023.2.3,Win32,59.88023952,6,2,7,,,,,,,,2,02,,,,,,,,,,,,,2,1.667,1,,,,,,-0.127777735,-0.237963005,1,0,0,1.6671,Basalt_rect,6,0,6,0,1,
5ee29028fb6eba3d81ebf0f9,SCR,2024-06-24_13h46.49.720,LearnStrategy,2023.2.3,Win32,59.88023952,6,2,8,,,,,,,,5,05,,,,,,,,,,,,,7,2.009,0,,,,,,0.109259288,-0.408333319,1,0,0,2.0093,Peridotite_rect,7,0,7,0,1,
5ee29028fb6eba3d81ebf0f9,SCR,2024-06-24_13h46.49.720,LearnStrategy,2023.2.3,Win32,59.88023952,6,2,9,,,,,,,,2,12,,,,,,,,,,,,,7,0.959,0,,,,,,0.109259288,-0.408333319,1,0,0,0.9592,Peridotite_rect,8,0,8,0,1,
5ee29028fb6eba3d81ebf0f9,SCR,2024-06-24_13h46.49.720,LearnStrategy,2023.2.3,Win32,59.88023952,6,2,10,,,,,,,,8,03,,,,,,,,,,,,,8,0.973,1,,,,,,0.313888974,-0.412037037,1,0,0,0.9729,Pumice_rect,9,0,9,0,1,
5ee29028fb6eba3d81ebf0f9,SCR,2024-06-24_13h46.49.720,LearnStrategy,2023.2.3,Win32,59.88023952,6,2,11,,,,,,,,4,09,,,,,,,,,,,,,2,1.708,0,,,,,,-0.156481496,-0.253703718,1,0,0,1.7082,Basalt_rect,10,0,10,0,1,
5ee29028fb6eba3d81ebf0f9,SCR,2024-06-24_13h46.49.720,LearnStrategy,2023.2.3,Win32,59.88023952,6,2,12,,,,,,,,3,10,,,,,,,,,,,,,1,1.17,0,,,,,,-0.342592593,-0.248148176,1,0,0,1.1703,Andesite_rect,11,0,11,0,1,
5ee29028fb6eba3d81ebf0f9,SCR,2024-06-24_13h46.49.720,LearnStrategy,2023.2.3,Win32,59.88023952,6,2,13,,,,,,,,5,08,,,,,,,,,,,,,5,1.052,1,,,,,,-0.344444452,-0.406481496,1,0,0,1.0515,Obsidian_rect,12,0,12,0,1,
5ee29028fb6eba3d81ebf0f9,SCR,2024-06-24_13h46.49.720,LearnStrategy,2023.2.3,Win32,59.88023952,6,2,14,,,,,,,,4,11,,,,,,,,,,,,,3,1.458,0,,,,,,0.130555541,-0.250925912,1,0,0,1.4576,Diorite_rect,13,0,13,0,1,
5ee29028fb6eba3d81ebf0f9,SCR,2024-06-24_13h46.49.720,LearnStrategy,2023.2.3,Win32,59.88023952,6,2,15,,,,,,,,7,02,,,,,,,,,,,,,7,1.307,1,,,,,,0.163888931,-0.406481496,1,0,0,1.3075,Peridotite_rect,14,0,14,0,1,
5ee29028fb6eba3d81ebf0f9,SCR,2024-06-24_13h46.49.720,LearnStrategy,2023.2.3,Win32,59.88023952,6,2,16,,,,,,,,1,02,,,,,,,,,,,,,4,2.716,0,,,,,,0.375925982,-0.252777806,1,0,0,2.7163,Gabbro_rect,15,0,15,0,1,
5ee29028fb6eba3d81ebf0f9,SCR,2024-06-24_13h46.49.720,LearnStrategy,2023.2.3,Win32,59.88023952,7,1,1,-0.419444437,-0.246296282,1,0,0,1.7211,Obsidian_16,5,16,2,2,1.721,5,16,-0.349999993,-0.380555541,1,0,0,1.231,Obsidian_rect,5,1.231,1,0,0,0,0,1,,,,,,,,,,,,,
5ee29028fb6eba3d81ebf0f9,SCR,2024-06-24_13h46.49.720,LearnStrategy,2023.2.3,Win32,59.88023952,7,1,2,0.412963019,-0.270370413,1,0,0,1.3474,Pegmatite_10,6,10,2,7,1.347,6,10,-0.089814787,-0.398148148,1,0,0,0.9989,Pegmatite_rect,6,0.999,1,1,0,1,0,1,,,,,,,,,,,,,
5ee29028fb6eba3d81ebf0f9,SCR,2024-06-24_13h46.49.720,LearnStrategy,2023.2.3,Win32,59.88023952,7,1,3,0.237963005,0.2462963,1,0,0,0.8196,Gabbro_13,4,13,5,6,0.82,4,13,-0.435185185,-0.264814801,1,0,0,2.2141,Andesite_rect,1,2.214,0,2,0,2,0,1,,,,,,,,,,,,,
5ee29028fb6eba3d81ebf0f9,SCR,2024-06-24_13h46.49.720,LearnStrategy,2023.2.3,Win32,59.88023952,7,1,4,0.261111153,0.247222212,1,0,0,0.9642,Gabbro_13,4,13,5,6,0.964,6,12,0.374074159,-0.258333347,1,0,0,0.8268,Gabbro_rect,4,0.827,1,3,0,3,0,1,,,,,,,,,,,,,
5ee29028fb6eba3d81ebf0f9,SCR,2024-06-24_13h46.49.720,LearnStrategy,2023.2.3,Win32,59.88023952,7,1,5,-0.513888889,-0.374074088,1,0,0,1.0806,Diorite_15,3,15,1,1,1.081,3,15,0.17777782,-0.238888917,1,0,0,2.4408,Diorite_rect,3,2.441,1,4,0,4,0,1,,,,,,,,,,,,,
5ee29028fb6eba3d81ebf0f9,SCR,2024-06-24_13h46.49.720,LearnStrategy,2023.2.3,Win32,59.88023952,7,1,6,0.229629658,0.424074076,1,0,0,0.9466,Diorite_11,3,11,6,6,0.947,3,15,0.192592621,-0.255555541,1,0,0,0.8503,Diorite_rect,3,0.85,1,5,0,5,0,1,,,,,,,,,,,,,
5ee29028fb6eba3d81ebf0f9,SCR,2024-06-24_13h46.49.720,LearnStrategy,2023.2.3,Win32,59.88023952,7,1,7,-0.075925898,-0.425925926,1,0,0,2.7467,Diorite_12,3,12,1,4,2.747,6,08,0.131481524,-0.256481524,1,0,0,0.7107,Diorite_rect,3,0.711,1,6,0,6,0,1,,,,,,,,,,,,,
5ee29028fb6eba3d81ebf0f9,SCR,2024-06-24_13h46.49.720,LearnStrategy,2023.2.3,Win32,59.88023952,7,1,8,0.582407492,-0.401851866,1,0,0,1.497,Gabbro_14,4,14,1,8,1.497,4,14,0.356481481,-0.270370413,1,0,0,2.0558,Gabbro_rect,4,2.056,1,7,0,7,0,1,,,,,,,,,,,,,
5ee29028fb6eba3d81ebf0f9,SCR,2024-06-24_13h46.49.720,LearnStrategy,2023.2.3,Win32,59.88023952,7,1,9,-0.574999986,-0.428703732,1,0,0,2.7159,Diorite_15,3,15,1,1,2.716,3,15,-0.346296275,-0.243518547,1,0,0,1.1473,Andesite_rect,1,1.147,0,8,0,8,0,1,,,,,,,,,,,,,
5ee29028fb6eba3d81ebf0f9,SCR,2024-06-24_13h46.49.720,LearnStrategy,2023.2.3,Win32,59.88023952,7,1,10,-0.527777778,-0.374074088,1,0,0,0.8974,Diorite_15,3,15,1,1,0.897,1,16,0.088888875,-0.252777806,1,0,0,0.6655,Diorite_rect,3,0.666,1,9,0,9,0,1,,,,,,,,,,,,,
5ee29028fb6eba3d81ebf0f9,SCR,2024-06-24_13h46.49.720,LearnStrategy,2023.2.3,Win32,59.88023952,7,1,11,0.058333362,0.398148148,1,0,0,1.5008,Diorite_16,3,16,6,5,1.501,1,16,0.110185199,-0.271296325,1,0,0,0.9603,Diorite_rect,3,0.96,1,10,0,10,0,1,,,,,,,,,,,,,
5ee29028fb6eba3d81ebf0f9,SCR,2024-06-24_13h46.49.720,LearnStrategy,2023.2.3,Win32,59.88023952,7,1,12,0.25,0.224999993,1,0,0,1.1545,Gabbro_13,4,13,5,6,1.155,2,14,-0.36296297,-0.229629658,1,0,0,0.8411,Andesite_rect,1,0.841,0,11,0,11,0,1,,,,,,,,,,,,,
5ee29028fb6eba3d81ebf0f9,SCR,2024-06-24_13h46.49.720,LearnStrategy,2023.2.3,Win32,59.88023952,7,1,13,0.568518603,-0.385185171,1,0,0,1.359,Gabbro_14,4,14,1,8,1.359,4,14,0.397222307,-0.264814801,1,0,0,0.6493,Gabbro_rect,4,0.649,1,12,0,12,0,1,,,,,,,,,,,,,
5ee29028fb6eba3d81ebf0f9,SCR,2024-06-24_13h46.49.720,LearnStrategy,2023.2.3,Win32,59.88023952,7,1,14,0.596296381,0.140740748,1,0,0,0.9733,Andesite_05,1,05,4,8,0.973,1,05,-0.3675926,-0.252777806,1,0,0,1.1419,Andesite_rect,1,1.142,1,13,0,13,0,1,,,,,,,,,,,,,
5ee29028fb6eba3d81ebf0f9,SCR,2024-06-24_13h46.49.720,LearnStrategy,2023.2.3,Win32,59.88023952,7,1,15,0.419444473,0.069444444,1,0,0,0.6988,Andesite_03,1,03,4,7,0.699,2,06,-0.38703703,-0.26944443,1,0,0,0.8422,Andesite_rect,1,0.842,1,14,0,14,0,1,,,,,,,,,,,,,
5ee29028fb6eba3d81ebf0f9,SCR,2024-06-24_13h46.49.720,LearnStrategy,2023.2.3,Win32,59.88023952,7,1,16,0.58148151,0.221296293,1,0,0,0.8528,Andesite_16,1,16,5,8,0.853,7,08,-0.330555563,-0.233333376,1,0,0,0.864,Andesite_rect,1,0.864,1,15,0,15,0,1,,,,,,,,,,,,,
5ee29028fb6eba3d81ebf0f9,SCR,2024-06-24_13h46.49.720,LearnStrategy,2023.2.3,Win32,59.88023952,7,2,1,,,,,,,,2,12,,,,,,,,,,,,,1,2.144,0,,,,,,-0.361111111,-0.252777806,1,0,0,2.1441,Andesite_rect,0,0,0,0,1,
5ee29028fb6eba3d81ebf0f9,SCR,2024-06-24_13h46.49.720,LearnStrategy,2023.2.3,Win32,59.88023952,7,2,2,,,,,,,,8,03,,,,,,,,,,,,,8,1.257,1,,,,,,0.391666695,-0.389814801,1,0,0,1.257,Pumice_rect,1,0,1,0,1,
5ee29028fb6eba3d81ebf0f9,SCR,2024-06-24_13h46.49.720,LearnStrategy,2023.2.3,Win32,59.88023952,7,2,3,,,,,,,,5,05,,,,,,,,,,,,,7,1.986,0,,,,,,0.142592607,-0.407407407,1,0,0,1.9863,Peridotite_rect,2,0,2,0,1,
5ee29028fb6eba3d81ebf0f9,SCR,2024-06-24_13h46.49.720,LearnStrategy,2023.2.3,Win32,59.88023952,7,2,4,,,,,,,,2,16,,,,,,,,,,,,,4,1.159,0,,,,,,0.368518547,-0.234259288,1,0,0,1.1595,Gabbro_rect,3,0,3,0,1,
5ee29028fb6eba3d81ebf0f9,SCR,2024-06-24_13h46.49.720,LearnStrategy,2023.2.3,Win32,59.88023952,7,2,5,,,,,,,,3,07,,,,,,,,,,,,,3,2.707,1,,,,,,0.159259302,-0.25462963,1,0,0,2.7072,Diorite_rect,4,0,4,0,1,
5ee29028fb6eba3d81ebf0f9,SCR,2024-06-24_13h46.49.720,LearnStrategy,2023.2.3,Win32,59.88023952,7,2,6,,,,,,,,6,06,,,,,,,,,,,,,3,2.154,0,,,,,,0.127777806,-0.25462963,1,0,0,2.154,Diorite_rect,5,0,5,0,1,
5ee29028fb6eba3d81ebf0f9,SCR,2024-06-24_13h46.49.720,LearnStrategy,2023.2.3,Win32,59.88023952,7,2,7,,,,,,,,5,09,,,,,,,,,,,,,5,1.177,1,,,,,,-0.35833334,-0.387962977,1,0,0,1.1773,Obsidian_rect,6,0,6,0,1,
5ee29028fb6eba3d81ebf0f9,SCR,2024-06-24_13h46.49.720,LearnStrategy,2023.2.3,Win32,59.88023952,7,2,8,,,,,,,,8,04,,,,,,,,,,,,,8,1.323,1,,,,,,0.367592564,-0.391666695,1,0,0,1.3228,Pumice_rect,7,0,7,0,1,
5ee29028fb6eba3d81ebf0f9,SCR,2024-06-24_13h46.49.720,LearnStrategy,2023.2.3,Win32,59.88023952,7,2,9,,,,,,,,4,01,,,,,,,,,,,,,1,1.756,0,,,,,,-0.35833334,-0.265740783,1,0,0,1.7558,Andesite_rect,8,0,8,0,1,
5ee29028fb6eba3d81ebf0f9,SCR,2024-06-24_13h46.49.720,LearnStrategy,2023.2.3,Win32,59.88023952,7,2,10,,,,,,,,4,11,,,,,,,,,,,,,3,2.043,0,,,,,,0.079629616,-0.25,1,0,0,2.0433,Diorite_rect,9,0,9,0,1,
5ee29028fb6eba3d81ebf0f9,SCR,2024-06-24_13h46.49.720,LearnStrategy,2023.2.3,Win32,59.88023952,7,2,11,,,,,,,,1,11,,,,,,,,,,,,,1,1.892,1,,,,,,-0.393518519,-0.25,1,0,0,1.8924,Andesite_rect,10,0,10,0,1,
5ee29028fb6eba3d81ebf0f9,SCR,2024-06-24_13h46.49.720,LearnStrategy,2023.2.3,Win32,59.88023952,7,2,12,,,,,,,,7,04,,,,,,,,,,,,,3,2.529,0,,,,,,0.154629672,-0.266666695,1,0,0,2.5285,Diorite_rect,11,0,11,0,1,
5ee29028fb6eba3d81ebf0f9,SCR,2024-06-24_13h46.49.720,LearnStrategy,2023.2.3,Win32,59.88023952,7,2,13,,,,,,,,7,05,,,,,,,,,,,,,7,2.549,1,,,,,,0.156481496,-0.398148148,1,0,0,2.5491,Peridotite_rect,12,0,12,0,1,
5ee29028fb6eba3d81ebf0f9,SCR,2024-06-24_13h46.49.720,LearnStrategy,2023.2.3,Win32,59.88023952,7,2,14,,,,,,,,6,11,,,,,,,,,,,,,6,1.244,1,,,,,,-0.092592593,-0.37962963,1,0,0,1.244,Pegmatite_rect,13,0,13,0,1,
5ee29028fb6eba3d81ebf0f9,SCR,2024-06-24_13h46.49.720,LearnStrategy,2023.2.3,Win32,59.88023952,7,2,15,,,,,,,,3,10,,,,,,,,,,,,,1,1.761,0,,,,,,-0.360185164,-0.250925912,1,0,0,1.7611,Andesite_rect,14,0,14,0,1,
5ee29028fb6eba3d81ebf0f9,SCR,2024-06-24_13h46.49.720,LearnStrategy,2023.2.3,Win32,59.88023952,7,2,16,,,,,,,,1,09,,,,,,,,,,,,,3,2.893,0,,,,,,0.145370413,-0.271296325,1,0,0,2.8929,Diorite_rect,15,0,15,0,1,
5ee29028fb6eba3d81ebf0f9,SCR,2024-06-24_13h46.49.720,LearnStrategy,2023.2.3,Win32,59.88023952,8,1,1,-0.518518519,-0.08888891,1,0,0,7.7592,Basalt_08,2,08,3,1,7.759,2,08,-0.138888889,-0.240740741,1,0,0,1.4353,Basalt_rect,2,1.435,1,0,0,0,0,1,,,,,,,,,,,,,
5ee29028fb6eba3d81ebf0f9,SCR,2024-06-24_13h46.49.720,LearnStrategy,2023.2.3,Win32,59.88023952,8,1,2,-0.380555541,0.067592586,1,0,0,1.8553,Basalt_06,2,06,4,2,1.855,2,06,-0.133333347,-0.243518547,1,0,0,0.8147,Basalt_rect,2,0.815,1,1,0,1,0,1,,,,,,,,,,,,,
5ee29028fb6eba3d81ebf0f9,SCR,2024-06-24_13h46.49.720,LearnStrategy,2023.2.3,Win32,59.88023952,8,1,3,-0.551851838,0.086111104,1,0,0,1.1649,Andesite_07,1,07,4,1,1.165,1,07,-0.3675926,-0.25462963,1,0,0,1.3054,Andesite_rect,1,1.305,1,2,0,2,0,1,,,,,,,,,,,,,
5ee29028fb6eba3d81ebf0f9,SCR,2024-06-24_13h46.49.720,LearnStrategy,2023.2.3,Win32,59.88023952,8,1,4,-0.062962921,-0.401851866,1,0,0,1.0316,Diorite_12,3,12,1,4,1.032,3,12,-0.340740734,-0.25462963,1,0,0,1.5071,Andesite_rect,1,1.507,0,3,0,3,0,1,,,,,,,,,,,,,
5ee29028fb6eba3d81ebf0f9,SCR,2024-06-24_13h46.49.720,LearnStrategy,2023.2.3,Win32,59.88023952,8,1,5,0.089814857,0.429629631,1,0,0,2.3484,Diorite_16,3,16,6,5,2.348,3,16,0.099074116,-0.240740741,1,0,0,1.3868,Diorite_rect,3,1.387,1,4,0,4,0,1,,,,,,,,,,,,,
5ee29028fb6eba3d81ebf0f9,SCR,2024-06-24_13h46.49.720,LearnStrategy,2023.2.3,Win32,59.88023952,8,1,6,0.258333347,0.069444444,1,0,0,0.7755,Pegmatite_08,6,08,4,6,0.775,6,08,-0.086111069,-0.39907406,1,0,0,1.4285,Pegmatite_rect,6,1.428,1,5,0,5,0,1,,,,,,,,,,,,,
5ee29028fb6eba3d81ebf0f9,SCR,2024-06-24_13h46.49.720,LearnStrategy,2023.2.3,Win32,59.88023952,8,1,7,0.57222225,-0.411111125,1,0,0,1.3309,Gabbro_14,4,14,1,8,1.331,4,14,0.432407379,-0.250925912,1,0,0,0.7736,Gabbro_rect,4,0.774,1,6,0,6,0,1,,,,,,,,,,,,,
5ee29028fb6eba3d81ebf0f9,SCR,2024-06-24_13h46.49.720,LearnStrategy,2023.2.3,Win32,59.88023952,8,1,8,0.075925968,0.233333323,1,0,0,0.8044,Gabbro_10,4,10,5,5,0.804,4,10,-0.104629587,-0.271296325,1,0,0,1.1822,Basalt_rect,2,1.182,0,7,0,7,0,1,,,,,,,,,,,,,
5ee29028fb6eba3d81ebf0f9,SCR,2024-06-24_13h46.49.720,LearnStrategy,2023.2.3,Win32,59.88023952,8,1,9,0.553703732,-0.095370399,1,0,0,1.7478,Pegmatite_07,6,07,3,8,1.748,6,07,-0.123148106,-0.391666695,1,0,0,1.3685,Pegmatite_rect,6,1.369,1,8,0,8,0,1,,,,,,,,,,,,,
5ee29028fb6eba3d81ebf0f9,SCR,2024-06-24_13h46.49.720,LearnStrategy,2023.2.3,Win32,59.88023952,8,1,10,0.215740769,-0.365740741,1,0,0,1.0975,Diorite_14,3,14,1,6,1.098,3,14,0.07222225,-0.25,1,0,0,2.1712,Diorite_rect,3,2.171,1,9,0,9,0,1,,,,,,,,,,,,,
5ee29028fb6eba3d81ebf0f9,SCR,2024-06-24_13h46.49.720,LearnStrategy,2023.2.3,Win32,59.88023952,8,1,11,0.377777806,0.24166667,1,0,0,1.1653,Peridotite_07,7,07,5,7,1.165,7,07,0.090740769,-0.386111153,1,0,0,1.3214,Peridotite_rect,7,1.321,1,10,0,10,0,1,,,,,,,,,,,,,
5ee29028fb6eba3d81ebf0f9,SCR,2024-06-24_13h46.49.720,LearnStrategy,2023.2.3,Win32,59.88023952,8,1,12,0.405555584,0.126851859,1,0,0,0.8392,Andesite_03,1,03,4,7,0.839,1,03,-0.355555534,-0.240740741,1,0,0,1.3827,Andesite_rect,1,1.383,1,11,0,11,0,1,,,,,,,,,,,,,
5ee29028fb6eba3d81ebf0f9,SCR,2024-06-24_13h46.49.720,LearnStrategy,2023.2.3,Win32,59.88023952,8,1,13,-0.3675926,-0.251851894,1,0,0,0.9057,Obsidian_16,5,16,2,2,0.906,5,16,-0.352777764,-0.380555541,1,0,0,1.3185,Obsidian_rect,5,1.319,1,12,0,12,0,1,,,,,,,,,,,,,
5ee29028fb6eba3d81ebf0f9,SCR,2024-06-24_13h46.49.720,LearnStrategy,2023.2.3,Win32,59.88023952,8,1,14,0.40370376,0.415740737,1,0,0,0.8927,Gabbro_12,4,12,6,7,0.893,4,12,-0.337962963,-0.24537037,1,0,0,3.5753,Andesite_rect,1,3.575,0,13,0,13,0,1,,,,,,,,,,,,,
5ee29028fb6eba3d81ebf0f9,SCR,2024-06-24_13h46.49.720,LearnStrategy,2023.2.3,Win32,59.88023952,8,1,15,0.399074131,0.412037037,1,0,0,1.2015,Gabbro_12,4,12,6,7,1.202,1,04,0.387037065,-0.252777806,1,0,0,0.723,Gabbro_rect,4,0.723,1,14,0,14,0,1,,,,,,,,,,,,,
5ee29028fb6eba3d81ebf0f9,SCR,2024-06-24_13h46.49.720,LearnStrategy,2023.2.3,Win32,59.88023952,8,1,16,-0.253703718,-0.23055557,1,0,0,0.685,Andesite_04,1,04,2,3,0.685,7,12,0.18240745,-0.251851894,1,0,0,2.0641,Diorite_rect,3,2.064,0,15,0,15,0,1,,,,,,,,,,,,,
5ee29028fb6eba3d81ebf0f9,SCR,2024-06-24_13h46.49.720,LearnStrategy,2023.2.3,Win32,59.88023952,8,2,1,,,,,,,,3,06,,,,,,,,,,,,,1,1.494,0,,,,,,-0.373148141,-0.256481524,1,0,0,1.4935,Andesite_rect,0,0,0,0,1,
5ee29028fb6eba3d81ebf0f9,SCR,2024-06-24_13h46.49.720,LearnStrategy,2023.2.3,Win32,59.88023952,8,2,2,,,,,,,,2,10,,,,,,,,,,,,,4,2.289,0,,,,,,0.373148176,-0.256481524,1,0,0,2.2894,Gabbro_rect,1,0,1,0,1,
5ee29028fb6eba3d81ebf0f9,SCR,2024-06-24_13h46.49.720,LearnStrategy,2023.2.3,Win32,59.88023952,8,2,3,,,,,,,,6,15,,,,,,,,,,,,,6,1.706,1,,,,,,-0.150925884,-0.419444473,1,0,0,1.706,Pegmatite_rect,2,0,2,0,1,
5ee29028fb6eba3d81ebf0f9,SCR,2024-06-24_13h46.49.720,LearnStrategy,2023.2.3,Win32,59.88023952,8,2,4,,,,,,,,6,09,,,,,,,,,,,,,6,0.594,1,,,,,,-0.150925884,-0.419444473,1,0,0,0.594,Pegmatite_rect,3,0,3,0,1,
5ee29028fb6eba3d81ebf0f9,SCR,2024-06-24_13h46.49.720,LearnStrategy,2023.2.3,Win32,59.88023952,8,2,5,,,,,,,,7,02,,,,,,,,,,,,,6,0.551,0,,,,,,-0.150925884,-0.419444473,1,0,0,0.5514,Pegmatite_rect,4,0,4,0,1,
5ee29028fb6eba3d81ebf0f9,SCR,2024-06-24_13h46.49.720,LearnStrategy,2023.2.3,Win32,59.88023952,8,2,6,,,,,,,,1,02,,,,,,,,,,,,,3,1.723,0,,,,,,0.125,-0.270370413,1,0,0,1.7229,Diorite_rect,5,0,5,0,1,
5ee29028fb6eba3d81ebf0f9,SCR,2024-06-24_13h46.49.720,LearnStrategy,2023.2.3,Win32,59.88023952,8,2,7,,,,,,,,4,15,,,,,,,,,,,,,3,1.507,0,,,,,,0.125,-0.270370413,1,0,0,1.5069,Diorite_rect,6,0,6,0,1,
5ee29028fb6eba3d81ebf0f9,SCR,2024-06-24_13h46.49.720,LearnStrategy,2023.2.3,Win32,59.88023952,8,2,8,,,,,,,,5,06,,,,,,,,,,,,,5,1.549,1,,,,,,-0.37962963,-0.406481496,1,0,0,1.5489,Obsidian_rect,7,0,7,0,1,
5ee29028fb6eba3d81ebf0f9,SCR,2024-06-24_13h46.49.720,LearnStrategy,2023.2.3,Win32,59.88023952,8,2,9,,,,,,,,7,10,,,,,,,,,,,,,7,1.192,1,,,,,,0.158333319,-0.404629672,1,0,0,1.1917,Peridotite_rect,8,0,8,0,1,
5ee29028fb6eba3d81ebf0f9,SCR,2024-06-24_13h46.49.720,LearnStrategy,2023.2.3,Win32,59.88023952,8,2,10,,,,,,,,5,04,,,,,,,,,,,,,5,1.173,1,,,,,,-0.375,-0.390740783,1,0,0,1.1731,Obsidian_rect,9,0,9,0,1,
5ee29028fb6eba3d81ebf0f9,SCR,2024-06-24_13h46.49.720,LearnStrategy,2023.2.3,Win32,59.88023952,8,2,11,,,,,,,,2,02,,,,,,,,,,,,,2,2.19,1,,,,,,-0.131481453,-0.246296282,1,0,0,2.1903,Basalt_rect,10,0,10,0,1,
5ee29028fb6eba3d81ebf0f9,SCR,2024-06-24_13h46.49.720,LearnStrategy,2023.2.3,Win32,59.88023952,8,2,12,,,,,,,,4,03,,,,,,,,,,,,,1,1.792,0,,,,,,-0.355555534,-0.267592607,1,0,0,1.7921,Andesite_rect,11,0,11,0,1,
5ee29028fb6eba3d81ebf0f9,SCR,2024-06-24_13h46.49.720,LearnStrategy,2023.2.3,Win32,59.88023952,8,2,13,,,,,,,,3,13,,,,,,,,,,,,,1,4.442,0,,,,,,-0.413888896,-0.249074088,1,0,0,4.4423,Andesite_rect,12,0,12,0,1,
5ee29028fb6eba3d81ebf0f9,SCR,2024-06-24_13h46.49.720,LearnStrategy,2023.2.3,Win32,59.88023952,8,2,14,,,,,,,,1,10,,,,,,,,,,,,,3,5.338,0,,,,,,0.116666653,-0.267592607,1,0,0,5.3381,Diorite_rect,13,0,13,0,1,
5ee29028fb6eba3d81ebf0f9,SCR,2024-06-24_13h46.49.720,LearnStrategy,2023.2.3,Win32,59.88023952,8,2,15,,,,,,,,8,05,,,,,,,,,,,,,8,1.088,1,,,,,,0.374074159,-0.397222236,1,0,0,1.0883,Pumice_rect,14,0,14,0,1,
5ee29028fb6eba3d81ebf0f9,SCR,2024-06-24_13h46.49.720,LearnStrategy,2023.2.3,Win32,59.88023952,8,2,16,,,,,,,,8,13,,,,,,,,,,,,,8,1.436,1,,,,,,0.350000028,-0.407407407,1,0,0,1.436,Pumice_rect,15,0,15,0,1,
5ee29028fb6eba3d81ebf0f9,SCR,2024-06-24_13h46.49.720,LearnStrategy,2023.2.3,Win32,59.88023952,9,1,1,-0.041666667,-0.449074074,1,0,0,11.4291,Diorite_12,3,12,1,4,11.429,3,12,-0.418518526,-0.257407436,1,0,0,1.4157,Andesite_rect,1,1.416,0,0,0,0,0,1,,,,,,,,,,,,,
5ee29028fb6eba3d81ebf0f9,SCR,2024-06-24_13h46.49.720,LearnStrategy,2023.2.3,Win32,59.88023952,9,1,2,0.378703788,0.076851845,1,0,0,0.9722,Andesite_03,1,03,4,7,0.972,1,03,-0.450925933,-0.262037065,1,0,0,1.0311,Andesite_rect,1,1.031,1,1,0,1,0,1,,,,,,,,,,,,,
5ee29028fb6eba3d81ebf0f9,SCR,2024-06-24_13h46.49.720,LearnStrategy,2023.2.3,Win32,59.88023952,9,1,3,0.54814812,0.410185187,1,0,0,1.0723,Gabbro_08,4,08,6,8,1.072,4,08,0.382407436,-0.262962977,1,0,0,1.2361,Gabbro_rect,4,1.236,1,2,0,2,0,1,,,,,,,,,,,,,
5ee29028fb6eba3d81ebf0f9,SCR,2024-06-24_13h46.49.720,LearnStrategy,2023.2.3,Win32,59.88023952,9,1,4,0.237037023,0.222222222,1,0,0,0.9988,Gabbro_13,4,13,5,6,0.999,4,13,-0.375,-0.243518547,1,0,0,2.1469,Andesite_rect,1,2.147,0,3,0,3,0,1,,,,,,,,,,,,,
5ee29028fb6eba3d81ebf0f9,SCR,2024-06-24_13h46.49.720,LearnStrategy,2023.2.3,Win32,59.88023952,9,1,5,-0.082407422,-0.112963005,1,0,0,1.3699,Peridotite_12,7,12,3,4,1.37,7,12,0.064814815,-0.418518561,1,0,0,1.1156,Peridotite_rect,7,1.116,1,4,0,4,0,1,,,,,,,,,,,,,
5ee29028fb6eba3d81ebf0f9,SCR,2024-06-24_13h46.49.720,LearnStrategy,2023.2.3,Win32,59.88023952,9,1,6,0.559259344,-0.407407407,1,0,0,1.0302,Gabbro_14,4,14,1,8,1.03,4,14,0.425000085,-0.251851894,1,0,0,0.5443,Gabbro_rect,4,0.544,1,5,0,5,0,1,,,,,,,,,,,,,
5ee29028fb6eba3d81ebf0f9,SCR,2024-06-24_13h46.49.720,LearnStrategy,2023.2.3,Win32,59.88023952,9,1,7,0.253703718,0.244444441,1,0,0,1.1088,Gabbro_13,4,13,5,6,1.109,3,14,0.430555556,-0.229629658,1,0,0,0.709,Gabbro_rect,4,0.709,1,6,0,6,0,1,,,,,,,,,,,,,
5ee29028fb6eba3d81ebf0f9,SCR,2024-06-24_13h46.49.720,LearnStrategy,2023.2.3,Win32,59.88023952,9,1,8,-0.52407406,0.071296303,1,0,0,0.9693,Andesite_07,1,07,4,1,0.969,1,07,-0.376851859,-0.241666653,1,0,0,0.5877,Andesite_rect,1,0.588,1,7,0,7,0,1,,,,,,,,,,,,,
5ee29028fb6eba3d81ebf0f9,SCR,2024-06-24_13h46.49.720,LearnStrategy,2023.2.3,Win32,59.88023952,9,1,9,-0.53611109,-0.082407422,1,0,0,0.819,Basalt_08,2,08,3,1,0.819,2,08,-0.112037023,-0.251851894,1,0,0,0.8241,Basalt_rect,2,0.824,1,8,0,8,0,1,,,,,,,,,,,,,
5ee29028fb6eba3d81ebf0f9,SCR,2024-06-24_13h46.49.720,LearnStrategy,2023.2.3,Win32,59.88023952,9,1,10,-0.407407407,0.070370356,1,0,0,1.0269,Basalt_06,2,06,4,2,1.027,3,15,-0.115740741,-0.262037065,1,0,0,0.8523,Basalt_rect,2,0.852,1,9,0,9,0,1,,,,,,,,,,,,,
5ee29028fb6eba3d81ebf0f9,SCR,2024-06-24_13h46.49.720,LearnStrategy,2023.2.3,Win32,59.88023952,9,1,11,0.233333376,-0.091666681,1,0,0,0.9812,Basalt_01,2,01,3,6,0.981,5,07,-0.089814787,-0.262037065,1,0,0,0.6889,Basalt_rect,2,0.689,1,10,0,10,0,1,,,,,,,,,,,,,
5ee29028fb6eba3d81ebf0f9,SCR,2024-06-24_13h46.49.720,LearnStrategy,2023.2.3,Win32,59.88023952,9,1,12,-0.211111069,0.224999993,1,0,0,1.1552,Pegmatite_03,6,03,5,3,1.155,6,03,-0.09629631,-0.390740783,1,0,0,1.0301,Pegmatite_rect,6,1.03,1,11,0,11,0,1,,,,,,,,,,,,,
5ee29028fb6eba3d81ebf0f9,SCR,2024-06-24_13h46.49.720,LearnStrategy,2023.2.3,Win32,59.88023952,9,1,13,-0.082407422,-0.113888917,1,0,0,0.7802,Peridotite_12,7,12,3,4,0.78,7,12,0.121296282,-0.380555541,1,0,0,0.8902,Peridotite_rect,7,0.89,1,12,0,12,0,1,,,,,,,,,,,,,
5ee29028fb6eba3d81ebf0f9,SCR,2024-06-24_13h46.49.720,LearnStrategy,2023.2.3,Win32,59.88023952,9,1,14,0.053703732,0.11296297,1,0,0,0.8637,Pegmatite_16,6,16,4,5,0.864,6,16,-0.10555557,-0.409259302,1,0,0,0.8877,Pegmatite_rect,6,0.888,1,13,0,13,0,1,,,,,,,,,,,,,
5ee29028fb6eba3d81ebf0f9,SCR,2024-06-24_13h46.49.720,LearnStrategy,2023.2.3,Win32,59.88023952,9,1,15,0.240740741,-0.085185192,1,0,0,0.8317,Basalt_01,2,01,3,6,0.832,2,01,-0.110185199,-0.239814829,1,0,0,0.7331,Basalt_rect,2,0.733,1,14,0,14,0,1,,,,,,,,,,,,,
5ee29028fb6eba3d81ebf0f9,SCR,2024-06-24_13h46.49.720,LearnStrategy,2023.2.3,Win32,59.88023952,9,1,16,-0.035185143,0.051851838,1,0,0,0.847,Andesite_01,1,01,4,4,0.847,1,01,-0.291666667,-0.233333376,1,0,0,20.9982,Andesite_rect,1,20.998,1,15,0,15,0,1,,,,,,,,,,,,,
5ee29028fb6eba3d81ebf0f9,SCR,2024-06-24_13h46.49.720,LearnStrategy,2023.2.3,Win32,59.88023952,9,2,1,,,,,,,,6,05,,,,,,,,,,,,,6,1.674,1,,,,,,-0.139814801,-0.386111153,1,0,0,1.674,Pegmatite_rect,0,0,0,0,1,
5ee29028fb6eba3d81ebf0f9,SCR,2024-06-24_13h46.49.720,LearnStrategy,2023.2.3,Win32,59.88023952,9,2,2,,,,,,,,6,13,,,,,,,,,,,,,6,0.672,1,,,,,,-0.139814801,-0.386111153,1,0,0,0.6721,Pegmatite_rect,1,0,1,0,1,
5ee29028fb6eba3d81ebf0f9,SCR,2024-06-24_13h46.49.720,LearnStrategy,2023.2.3,Win32,59.88023952,9,2,3,,,,,,,,1,06,,,,,,,,,,,,,1,1.492,1,,,,,,-0.357407393,-0.238888917,1,0,0,1.4917,Andesite_rect,2,0,2,0,1,
5ee29028fb6eba3d81ebf0f9,SCR,2024-06-24_13h46.49.720,LearnStrategy,2023.2.3,Win32,59.88023952,9,2,4,,,,,,,,8,16,,,,,,,,,,,,,8,1.056,1,,,,,,0.413888861,-0.395370413,1,0,0,1.056,Pumice_rect,3,0,3,0,1,
5ee29028fb6eba3d81ebf0f9,SCR,2024-06-24_13h46.49.720,LearnStrategy,2023.2.3,Win32,59.88023952,9,2,5,,,,,,,,7,13,,,,,,,,,,,,,7,2.524,1,,,,,,0.126851894,-0.400000042,1,0,0,2.524,Peridotite_rect,4,0,4,0,1,
5ee29028fb6eba3d81ebf0f9,SCR,2024-06-24_13h46.49.720,LearnStrategy,2023.2.3,Win32,59.88023952,9,2,6,,,,,,,,8,09,,,,,,,,,,,,,8,1.201,1,,,,,,0.336111139,-0.413888931,1,0,0,1.2011,Pumice_rect,5,0,5,0,1,
5ee29028fb6eba3d81ebf0f9,SCR,2024-06-24_13h46.49.720,LearnStrategy,2023.2.3,Win32,59.88023952,9,2,7,,,,,,,,4,05,,,,,,,,,,,,,7,2.992,0,,,,,,0.116666653,-0.407407407,1,0,0,2.9916,Peridotite_rect,6,0,6,0,1,
5ee29028fb6eba3d81ebf0f9,SCR,2024-06-24_13h46.49.720,LearnStrategy,2023.2.3,Win32,59.88023952,9,2,8,,,,,,,,1,14,,,,,,,,,,,,,3,2.839,0,,,,,,0.155555584,-0.259259259,1,0,0,2.839,Diorite_rect,7,0,7,0,1,
5ee29028fb6eba3d81ebf0f9,SCR,2024-06-24_13h46.49.720,LearnStrategy,2023.2.3,Win32,59.88023952,9,2,9,,,,,,,,4,09,,,,,,,,,,,,,4,3.339,1,,,,,,0.383333418,-0.255555541,1,0,0,3.3392,Gabbro_rect,8,0,8,0,1,
5ee29028fb6eba3d81ebf0f9,SCR,2024-06-24_13h46.49.720,LearnStrategy,2023.2.3,Win32,59.88023952,9,2,10,,,,,,,,3,02,,,,,,,,,,,,,1,1.345,0,,,,,,-0.365740741,-0.251851894,1,0,0,1.3446,Andesite_rect,9,0,9,0,1,
5ee29028fb6eba3d81ebf0f9,SCR,2024-06-24_13h46.49.720,LearnStrategy,2023.2.3,Win32,59.88023952,9,2,11,,,,,,,,3,09,,,,,,,,,,,,,1,1.026,0,,,,,,-0.312962956,-0.233333376,1,0,0,1.0263,Andesite_rect,10,0,10,0,1,
5ee29028fb6eba3d81ebf0f9,SCR,2024-06-24_13h46.49.720,LearnStrategy,2023.2.3,Win32,59.88023952,9,2,12,,,,,,,,2,05,,,,,,,,,,,,,2,1.006,1,,,,,,-0.087962963,-0.251851894,1,0,0,1.0059,Basalt_rect,11,0,11,0,1,
5ee29028fb6eba3d81ebf0f9,SCR,2024-06-24_13h46.49.720,LearnStrategy,2023.2.3,Win32,59.88023952,9,2,13,,,,,,,,7,16,,,,,,,,,,,,,7,2.308,1,,,,,,0.095370399,-0.400925954,1,0,0,2.3076,Peridotite_rect,12,0,12,0,1,
5ee29028fb6eba3d81ebf0f9,SCR,2024-06-24_13h46.49.720,LearnStrategy,2023.2.3,Win32,59.88023952,9,2,14,,,,,,,,5,08,,,,,,,,,,,,,5,1.295,1,,,,,,-0.368518511,-0.404629672,1,0,0,1.2946,Obsidian_rect,13,0,13,0,1,
5ee29028fb6eba3d81ebf0f9,SCR,2024-06-24_13h46.49.720,LearnStrategy,2023.2.3,Win32,59.88023952,9,2,15,,,,,,,,5,12,,,,,,,,,,,,,5,0.741,1,,,,,,-0.368518511,-0.404629672,1,0,0,0.7414,Obsidian_rect,14,0,14,0,1,
5ee29028fb6eba3d81ebf0f9,SCR,2024-06-24_13h46.49.720,LearnStrategy,2023.2.3,Win32,59.88023952,9,2,16,,,,,,,,2,11,,,,,,,,,,,,,8,2.782,0,,,,,,0.336111139,-0.402777778,1,0,0,2.7821,Pumice_rect,15,0,15,0,1,
5ee29028fb6eba3d81ebf0f9,SCR,2024-06-24_13h46.49.720,LearnStrategy,2023.2.3,Win32,59.88023952,,,,,,,,,,,,,,,,,,,,,,,,,,,,,,,,,,,,,,,,,,,,,0
5ee29028fb6eba3d81ebf0f9,SCR,2024-06-24_13h46.49.720,LearnStrategy,2023.2.3,Win32,59.88023952,,,,,,,,,,,,,,,,,,,,,,,,,,,,,,,,,,,,,,,,,,,,,
5ee29028fb6eba3d81ebf0f9,SCR,2024-06-24_13h46.49.720,LearnStrategy,2023.2.3,Win32,59.88023952,,,,,,,,,,,3,15,1,1,,,,,,,,,,,,,,,,,,,,,,,,,,,,,,,
5ee29028fb6eba3d81ebf0f9,SCR,2024-06-24_13h46.49.720,LearnStrategy,2023.2.3,Win32,59.88023952,,,,,,,,,,,8,02,1,2,,,,,,,,,,,,,,,,,,,,,,,,,,,,,,,
5ee29028fb6eba3d81ebf0f9,SCR,2024-06-24_13h46.49.720,LearnStrategy,2023.2.3,Win32,59.88023952,,,,,,,,,,,5,11,1,3,,,,,,,,,,,,,,,,,,,,,,,,,,,,,,,
5ee29028fb6eba3d81ebf0f9,SCR,2024-06-24_13h46.49.720,LearnStrategy,2023.2.3,Win32,59.88023952,,,,,,,,,,,3,12,1,4,,,,,,,,,,,,,,,,,,,,,,,,,,,,,,,
5ee29028fb6eba3d81ebf0f9,SCR,2024-06-24_13h46.49.720,LearnStrategy,2023.2.3,Win32,59.88023952,,,,,,,,,,,5,07,1,5,,,,,,,,,,,,,,,,,,,,,,,,,,,,,,,
5ee29028fb6eba3d81ebf0f9,SCR,2024-06-24_13h46.49.720,LearnStrategy,2023.2.3,Win32,59.88023952,,,,,,,,,,,3,14,1,6,,,,,,,,,,,,,,,,,,,,,,,,,,,,,,,
5ee29028fb6eba3d81ebf0f9,SCR,2024-06-24_13h46.49.720,LearnStrategy,2023.2.3,Win32,59.88023952,,,,,,,,,,,2,14,1,7,,,,,,,,,,,,,,,,,,,,,,,,,,,,,,,
5ee29028fb6eba3d81ebf0f9,SCR,2024-06-24_13h46.49.720,LearnStrategy,2023.2.3,Win32,59.88023952,,,,,,,,,,,4,14,1,8,,,,,,,,,,,,,,,,,,,,,,,,,,,,,,,
5ee29028fb6eba3d81ebf0f9,SCR,2024-06-24_13h46.49.720,LearnStrategy,2023.2.3,Win32,59.88023952,,,,,,,,,,,2,04,2,1,,,,,,,,,,,,,,,,,,,,,,,,,,,,,,,
5ee29028fb6eba3d81ebf0f9,SCR,2024-06-24_13h46.49.720,LearnStrategy,2023.2.3,Win32,59.88023952,,,,,,,,,,,5,16,2,2,,,,,,,,,,,,,,,,,,,,,,,,,,,,,,,
5ee29028fb6eba3d81ebf0f9,SCR,2024-06-24_13h46.49.720,LearnStrategy,2023.2.3,Win32,59.88023952,,,,,,,,,,,1,04,2,3,,,,,,,,,,,,,,,,,,,,,,,,,,,,,,,
5ee29028fb6eba3d81ebf0f9,SCR,2024-06-24_13h46.49.720,LearnStrategy,2023.2.3,Win32,59.88023952,,,,,,,,,,,5,10,2,4,,,,,,,,,,,,,,,,,,,,,,,,,,,,,,,
5ee29028fb6eba3d81ebf0f9,SCR,2024-06-24_13h46.49.720,LearnStrategy,2023.2.3,Win32,59.88023952,,,,,,,,,,,4,16,2,5,,,,,,,,,,,,,,,,,,,,,,,,,,,,,,,
5ee29028fb6eba3d81ebf0f9,SCR,2024-06-24_13h46.49.720,LearnStrategy,2023.2.3,Win32,59.88023952,,,,,,,,,,,7,06,2,6,,,,,,,,,,,,,,,,,,,,,,,,,,,,,,,
5ee29028fb6eba3d81ebf0f9,SCR,2024-06-24_13h46.49.720,LearnStrategy,2023.2.3,Win32,59.88023952,,,,,,,,,,,6,10,2,7,,,,,,,,,,,,,,,,,,,,,,,,,,,,,,,
5ee29028fb6eba3d81ebf0f9,SCR,2024-06-24_13h46.49.720,LearnStrategy,2023.2.3,Win32,59.88023952,,,,,,,,,,,8,06,2,8,,,,,,,,,,,,,,,,,,,,,,,,,,,,,,,
5ee29028fb6eba3d81ebf0f9,SCR,2024-06-24_13h46.49.720,LearnStrategy,2023.2.3,Win32,59.88023952,,,,,,,,,,,2,08,3,1,,,,,,,,,,,,,,,,,,,,,,,,,,,,,,,
5ee29028fb6eba3d81ebf0f9,SCR,2024-06-24_13h46.49.720,LearnStrategy,2023.2.3,Win32,59.88023952,,,,,,,,,,,6,12,3,2,,,,,,,,,,,,,,,,,,,,,,,,,,,,,,,
5ee29028fb6eba3d81ebf0f9,SCR,2024-06-24_13h46.49.720,LearnStrategy,2023.2.3,Win32,59.88023952,,,,,,,,,,,7,08,3,3,,,,,,,,,,,,,,,,,,,,,,,,,,,,,,,
5ee29028fb6eba3d81ebf0f9,SCR,2024-06-24_13h46.49.720,LearnStrategy,2023.2.3,Win32,59.88023952,,,,,,,,,,,7,12,3,4,,,,,,,,,,,,,,,,,,,,,,,,,,,,,,,
5ee29028fb6eba3d81ebf0f9,SCR,2024-06-24_13h46.49.720,LearnStrategy,2023.2.3,Win32,59.88023952,,,,,,,,,,,2,09,3,5,,,,,,,,,,,,,,,,,,,,,,,,,,,,,,,
5ee29028fb6eba3d81ebf0f9,SCR,2024-06-24_13h46.49.720,LearnStrategy,2023.2.3,Win32,59.88023952,,,,,,,,,,,2,01,3,6,,,,,,,,,,,,,,,,,,,,,,,,,,,,,,,
5ee29028fb6eba3d81ebf0f9,SCR,2024-06-24_13h46.49.720,LearnStrategy,2023.2.3,Win32,59.88023952,,,,,,,,,,,7,14,3,7,,,,,,,,,,,,,,,,,,,,,,,,,,,,,,,
5ee29028fb6eba3d81ebf0f9,SCR,2024-06-24_13h46.49.720,LearnStrategy,2023.2.3,Win32,59.88023952,,,,,,,,,,,6,07,3,8,,,,,,,,,,,,,,,,,,,,,,,,,,,,,,,
5ee29028fb6eba3d81ebf0f9,SCR,2024-06-24_13h46.49.720,LearnStrategy,2023.2.3,Win32,59.88023952,,,,,,,,,,,1,07,4,1,,,,,,,,,,,,,,,,,,,,,,,,,,,,,,,
5ee29028fb6eba3d81ebf0f9,SCR,2024-06-24_13h46.49.720,LearnStrategy,2023.2.3,Win32,59.88023952,,,,,,,,,,,2,06,4,2,,,,,,,,,,,,,,,,,,,,,,,,,,,,,,,
5ee29028fb6eba3d81ebf0f9,SCR,2024-06-24_13h46.49.720,LearnStrategy,2023.2.3,Win32,59.88023952,,,,,,,,,,,8,15,4,3,,,,,,,,,,,,,,,,,,,,,,,,,,,,,,,
5ee29028fb6eba3d81ebf0f9,SCR,2024-06-24_13h46.49.720,LearnStrategy,2023.2.3,Win32,59.88023952,,,,,,,,,,,1,01,4,4,,,,,,,,,,,,,,,,,,,,,,,,,,,,,,,
5ee29028fb6eba3d81ebf0f9,SCR,2024-06-24_13h46.49.720,LearnStrategy,2023.2.3,Win32,59.88023952,,,,,,,,,,,6,16,4,5,,,,,,,,,,,,,,,,,,,,,,,,,,,,,,,
5ee29028fb6eba3d81ebf0f9,SCR,2024-06-24_13h46.49.720,LearnStrategy,2023.2.3,Win32,59.88023952,,,,,,,,,,,6,08,4,6,,,,,,,,,,,,,,,,,,,,,,,,,,,,,,,
5ee29028fb6eba3d81ebf0f9,SCR,2024-06-24_13h46.49.720,LearnStrategy,2023.2.3,Win32,59.88023952,,,,,,,,,,,1,03,4,7,,,,,,,,,,,,,,,,,,,,,,,,,,,,,,,
5ee29028fb6eba3d81ebf0f9,SCR,2024-06-24_13h46.49.720,LearnStrategy,2023.2.3,Win32,59.88023952,,,,,,,,,,,1,05,4,8,,,,,,,,,,,,,,,,,,,,,,,,,,,,,,,
5ee29028fb6eba3d81ebf0f9,SCR,2024-06-24_13h46.49.720,LearnStrategy,2023.2.3,Win32,59.88023952,,,,,,,,,,,3,08,5,1,,,,,,,,,,,,,,,,,,,,,,,,,,,,,,,
5ee29028fb6eba3d81ebf0f9,SCR,2024-06-24_13h46.49.720,LearnStrategy,2023.2.3,Win32,59.88023952,,,,,,,,,,,8,14,5,2,,,,,,,,,,,,,,,,,,,,,,,,,,,,,,,
5ee29028fb6eba3d81ebf0f9,SCR,2024-06-24_13h46.49.720,LearnStrategy,2023.2.3,Win32,59.88023952,,,,,,,,,,,6,03,5,3,,,,,,,,,,,,,,,,,,,,,,,,,,,,,,,
5ee29028fb6eba3d81ebf0f9,SCR,2024-06-24_13h46.49.720,LearnStrategy,2023.2.3,Win32,59.88023952,,,,,,,,,,,7,15,5,4,,,,,,,,,,,,,,,,,,,,,,,,,,,,,,,
5ee29028fb6eba3d81ebf0f9,SCR,2024-06-24_13h46.49.720,LearnStrategy,2023.2.3,Win32,59.88023952,,,,,,,,,,,4,10,5,5,,,,,,,,,,,,,,,,,,,,,,,,,,,,,,,
5ee29028fb6eba3d81ebf0f9,SCR,2024-06-24_13h46.49.720,LearnStrategy,2023.2.3,Win32,59.88023952,,,,,,,,,,,4,13,5,6,,,,,,,,,,,,,,,,,,,,,,,,,,,,,,,
5ee29028fb6eba3d81ebf0f9,SCR,2024-06-24_13h46.49.720,LearnStrategy,2023.2.3,Win32,59.88023952,,,,,,,,,,,7,07,5,7,,,,,,,,,,,,,,,,,,,,,,,,,,,,,,,
5ee29028fb6eba3d81ebf0f9,SCR,2024-06-24_13h46.49.720,LearnStrategy,2023.2.3,Win32,59.88023952,,,,,,,,,,,1,16,5,8,,,,,,,,,,,,,,,,,,,,,,,,,,,,,,,
5ee29028fb6eba3d81ebf0f9,SCR,2024-06-24_13h46.49.720,LearnStrategy,2023.2.3,Win32,59.88023952,,,,,,,,,,,8,10,6,1,,,,,,,,,,,,,,,,,,,,,,,,,,,,,,,
5ee29028fb6eba3d81ebf0f9,SCR,2024-06-24_13h46.49.720,LearnStrategy,2023.2.3,Win32,59.88023952,,,,,,,,,,,5,02,6,2,,,,,,,,,,,,,,,,,,,,,,,,,,,,,,,
5ee29028fb6eba3d81ebf0f9,SCR,2024-06-24_13h46.49.720,LearnStrategy,2023.2.3,Win32,59.88023952,,,,,,,,,,,5,14,6,3,,,,,,,,,,,,,,,,,,,,,,,,,,,,,,,
5ee29028fb6eba3d81ebf0f9,SCR,2024-06-24_13h46.49.720,LearnStrategy,2023.2.3,Win32,59.88023952,,,,,,,,,,,8,08,6,4,,,,,,,,,,,,,,,,,,,,,,,,,,,,,,,
5ee29028fb6eba3d81ebf0f9,SCR,2024-06-24_13h46.49.720,LearnStrategy,2023.2.3,Win32,59.88023952,,,,,,,,,,,3,16,6,5,,,,,,,,,,,,,,,,,,,,,,,,,,,,,,,
5ee29028fb6eba3d81ebf0f9,SCR,2024-06-24_13h46.49.720,LearnStrategy,2023.2.3,Win32,59.88023952,,,,,,,,,,,3,11,6,6,,,,,,,,,,,,,,,,,,,,,,,,,,,,,,,
5ee29028fb6eba3d81ebf0f9,SCR,2024-06-24_13h46.49.720,LearnStrategy,2023.2.3,Win32,59.88023952,,,,,,,,,,,4,12,6,7,,,,,,,,,,,,,,,,,,,,,,,,,,,,,,,
5ee29028fb6eba3d81ebf0f9,SCR,2024-06-24_13h46.49.720,LearnStrategy,2023.2.3,Win32,59.88023952,,,,,,,,,,,4,08,6,8,,,,,,,,,,,,,,,,,,,,,,,,,,,,,,,