participant,condition,date,expName,psychopyVersion,OS,frameRate,block,phase,trial,learn_mouse_2.x,learn_mouse_2.y,learn_mouse_2.leftButton,learn_mouse_2.midButton,learn_mouse_2.rightButton,learn_mouse_2.time,learn_mouse_2.clicked_name,cat,token,row,col,t_select,cat_mouse_l.x,cat_mouse_l.y,cat_mouse_l.leftButton,cat_mouse_l.midButton,cat_mouse_l.rightButton,cat_mouse_l.time,cat_mouse_l.clicked_name,resp,t_resp,corr,train_trials.thisRepN,train_trials.thisTrialN,train_trials.thisN,train_trials.thisIndex,train_trials.ran,cat_mouse_t.x,cat_mouse_t.y,cat_mouse_t.leftButton,cat_mouse_t.midButton,cat_mouse_t.rightButton,cat_mouse_t.time,cat_mouse_t.clicked_name,test_trials.thisRepN,test_trials.thisTrialN,test_trials.thisN,test_trials.thisIndex,test_trials.ran,Bonus,blocks.thisRepN,blocks.thisTrialN,blocks.thisN,blocks.thisIndex,blocks.ran,blocks.order,train_trials.order
5ef4d8b87faaa00c0dea0c4e,TCN,2024-06-11_10h09.40.286,LearnStrategy,2023.2.3,MacIntel,59.88023952,,,,,,,,,,,,,,,,,,,,,,,,,,,,,,,,,,,,,,,,,,,,,,,,,,
5ef4d8b87faaa00c0dea0c4e,TCN,2024-06-11_10h09.40.286,LearnStrategy,2023.2.3,MacIntel,59.88023952,1,1,1,-0.008048503,-0.004568142,1,0,0,2.2279,rock_grid_rect_2,8,05,-1,-1,2.228,0.340445964,-0.407953559,1,0,0,5.4749,Pumice_rect,8,5.475,1,0,0,0,0,1,,,,,,,,,,,,,,,,,,,,
5ef4d8b87faaa00c0dea0c4e,TCN,2024-06-11_10h09.40.286,LearnStrategy,2023.2.3,MacIntel,59.88023952,1,1,2,0.051635742,-0.001852756,1,0,0,1.0647,rock_grid_rect_2,5,05,-1,-1,1.065,-0.050577799,-0.259556749,1,0,0,4.9486,Basalt_rect,2,4.949,0,1,0,1,0,1,,,,,,,,,,,,,,,,,,,,
5ef4d8b87faaa00c0dea0c4e,TCN,2024-06-11_10h09.40.286,LearnStrategy,2023.2.3,MacIntel,59.88023952,1,1,3,-0.004885525,-0.006266276,1,0,0,1.1424,rock_grid_rect_2,3,08,-1,-1,1.142,-0.166490343,-0.247393121,1,0,0,6.266,Basalt_rect,2,6.266,0,2,0,2,0,1,,,,,,,,,,,,,,,,,,,,
5ef4d8b87faaa00c0dea0c4e,TCN,2024-06-11_10h09.40.286,LearnStrategy,2023.2.3,MacIntel,59.88023952,1,1,4,0.019585503,-0.008547635,1,0,0,1.1751,rock_grid_rect_2,6,08,-1,-1,1.175,0.349517144,-0.265161133,1,0,0,3.4483,Gabbro_rect,4,3.448,0,3,0,3,0,1,,,,,,,,,,,,,,,,,,,,
5ef4d8b87faaa00c0dea0c4e,TCN,2024-06-11_10h09.40.286,LearnStrategy,2023.2.3,MacIntel,59.88023952,1,1,5,-0.003659397,-0.001052517,1,0,0,1.2075,rock_grid_rect_2,4,08,-1,-1,1.208,-0.173003472,-0.261504449,1,0,0,2.8644,Basalt_rect,2,2.864,0,4,0,4,0,1,,,,,,,,,,,,,,,,,,,,
5ef4d8b87faaa00c0dea0c4e,TCN,2024-06-11_10h09.40.286,LearnStrategy,2023.2.3,MacIntel,59.88023952,1,1,6,-0.017789714,-0.009326172,1,0,0,1.5258,rock_grid_rect_2,4,12,-1,-1,1.526,-0.367569987,-0.24230957,1,0,0,3.3815,Andesite_rect,1,3.381,0,5,0,5,0,1,,,,,,,,,,,,,,,,,,,,
5ef4d8b87faaa00c0dea0c4e,TCN,2024-06-11_10h09.40.286,LearnStrategy,2023.2.3,MacIntel,59.88023952,1,1,7,0.041975911,-0.002327474,1,0,0,0.958,rock_grid_rect_2,1,02,-1,-1,0.958,0.220564779,-0.411154514,1,0,0,16.2252,Peridotite_rect,7,16.225,0,6,0,6,0,1,,,,,,,,,,,,,,,,,,,,
5ef4d8b87faaa00c0dea0c4e,TCN,2024-06-11_10h09.40.286,LearnStrategy,2023.2.3,MacIntel,59.88023952,1,1,8,-0.018093533,-0.014466688,1,0,0,0.9758,rock_grid_rect_2,1,10,-1,-1,0.976,-0.353290473,-0.229090712,1,0,0,6.283,Andesite_rect,1,6.283,1,7,0,7,0,1,,,,,,,,,,,,,,,,,,,,
5ef4d8b87faaa00c0dea0c4e,TCN,2024-06-11_10h09.40.286,LearnStrategy,2023.2.3,MacIntel,59.88023952,1,1,9,0.025415039,-0.012551541,1,0,0,0.9334,rock_grid_rect_2,7,14,-1,-1,0.933,-0.331488715,-0.252522786,1,0,0,7.4338,Andesite_rect,1,7.434,0,8,0,8,0,1,,,,,,,,,,,,,,,,,,,,
5ef4d8b87faaa00c0dea0c4e,TCN,2024-06-11_10h09.40.286,LearnStrategy,2023.2.3,MacIntel,59.88023952,1,1,10,-0.007722982,0.012475586,1,0,0,9.3483,rock_grid_rect_2,5,04,-1,-1,9.348,-0.123212348,-0.259697808,1,0,0,4.4487,Basalt_rect,2,4.449,0,9,0,9,0,1,,,,,,,,,,,,,,,,,,,,
5ef4d8b87faaa00c0dea0c4e,TCN,2024-06-11_10h09.40.286,LearnStrategy,2023.2.3,MacIntel,59.88023952,1,1,11,-0.014523655,0.002788628,1,0,0,0.8405,rock_grid_rect_2,3,10,-1,-1,0.84,-0.072412109,-0.269704861,1,0,0,2.2808,Basalt_rect,2,2.281,0,10,0,10,0,1,,,,,,,,,,,,,,,,,,,,
5ef4d8b87faaa00c0dea0c4e,TCN,2024-06-11_10h09.40.286,LearnStrategy,2023.2.3,MacIntel,59.88023952,1,1,12,-0.015017361,-0.007484266,1,0,0,1.0592,rock_grid_rect_2,2,10,-1,-1,1.059,-0.335514323,-0.385251194,1,0,0,5.1338,Obsidian_rect,5,5.134,0,11,0,11,0,1,,,,,,,,,,,,,,,,,,,,
5ef4d8b87faaa00c0dea0c4e,TCN,2024-06-11_10h09.40.286,LearnStrategy,2023.2.3,MacIntel,59.88023952,1,1,13,-0.027457682,0.005851237,1,0,0,1.0255,rock_grid_rect_2,2,05,-1,-1,1.025,-0.098876953,-0.253491211,1,0,0,1.6796,Basalt_rect,2,1.68,1,12,0,12,0,1,,,,,,,,,,,,,,,,,,,,
5ef4d8b87faaa00c0dea0c4e,TCN,2024-06-11_10h09.40.286,LearnStrategy,2023.2.3,MacIntel,59.88023952,1,1,14,-0.020643446,-0.007972548,1,0,0,0.7834,rock_grid_rect_2,7,13,-1,-1,0.783,-0.369528537,-0.24772678,1,0,0,8.2185,Andesite_rect,1,8.218,0,13,0,13,0,1,,,,,,,,,,,,,,,,,,,,
5ef4d8b87faaa00c0dea0c4e,TCN,2024-06-11_10h09.40.286,LearnStrategy,2023.2.3,MacIntel,59.88023952,1,1,15,-0.034339735,-0.01531033,1,0,0,1.4096,rock_grid_rect_2,6,11,-1,-1,1.41,-0.326812066,-0.386802843,1,0,0,1.9469,Obsidian_rect,5,1.947,0,14,0,14,0,1,,,,,,,,,,,,,,,,,,,,
5ef4d8b87faaa00c0dea0c4e,TCN,2024-06-11_10h09.40.286,LearnStrategy,2023.2.3,MacIntel,59.88023952,1,1,16,-0.012687174,-0.011075846,1,0,0,0.9426,rock_grid_rect_2,8,02,-1,-1,0.943,0.372517904,-0.401727973,1,0,0,7.5185,Pumice_rect,8,7.519,1,15,0,15,0,1,,,,,,,,,,,,,,,,,,,,
5ef4d8b87faaa00c0dea0c4e,TCN,2024-06-11_10h09.40.286,LearnStrategy,2023.2.3,MacIntel,59.88023952,1,2,1,,,,,,,,4,01,,,,,,,,,,,3,5.199,0,,,,,,0.113891602,-0.256437174,1,0,0,5.1988,Diorite_rect,0,0,0,0,1,,,,,,,,
5ef4d8b87faaa00c0dea0c4e,TCN,2024-06-11_10h09.40.286,LearnStrategy,2023.2.3,MacIntel,59.88023952,1,2,2,,,,,,,,5,16,,,,,,,,,,,5,2.079,1,,,,,,-0.329654948,-0.413237847,1,0,0,2.0793,Obsidian_rect,1,0,1,0,1,,,,,,,,
5ef4d8b87faaa00c0dea0c4e,TCN,2024-06-11_10h09.40.286,LearnStrategy,2023.2.3,MacIntel,59.88023952,1,2,3,,,,,,,,6,05,,,,,,,,,,,6,6.168,1,,,,,,-0.071937391,-0.400534397,1,0,0,6.1676,Pegmatite_rect,2,0,2,0,1,,,,,,,,
5ef4d8b87faaa00c0dea0c4e,TCN,2024-06-11_10h09.40.286,LearnStrategy,2023.2.3,MacIntel,59.88023952,1,2,4,,,,,,,,8,06,,,,,,,,,,,8,2.346,1,,,,,,0.376139323,-0.401931424,1,0,0,2.3462,Pumice_rect,3,0,3,0,1,,,,,,,,
5ef4d8b87faaa00c0dea0c4e,TCN,2024-06-11_10h09.40.286,LearnStrategy,2023.2.3,MacIntel,59.88023952,1,2,5,,,,,,,,1,05,,,,,,,,,,,3,3.899,0,,,,,,0.164591471,-0.26023763,1,0,0,3.8986,Diorite_rect,4,0,4,0,1,,,,,,,,
5ef4d8b87faaa00c0dea0c4e,TCN,2024-06-11_10h09.40.286,LearnStrategy,2023.2.3,MacIntel,59.88023952,1,2,6,,,,,,,,7,06,,,,,,,,,,,6,4.031,0,,,,,,-0.05694987,-0.393280707,1,0,0,4.0312,Pegmatite_rect,5,0,5,0,1,,,,,,,,
5ef4d8b87faaa00c0dea0c4e,TCN,2024-06-11_10h09.40.286,LearnStrategy,2023.2.3,MacIntel,59.88023952,1,2,7,,,,,,,,3,15,,,,,,,,,,,7,2.63,0,,,,,,0.11936849,-0.393967014,1,0,0,2.6296,Peridotite_rect,6,0,6,0,1,,,,,,,,
5ef4d8b87faaa00c0dea0c4e,TCN,2024-06-11_10h09.40.286,LearnStrategy,2023.2.3,MacIntel,59.88023952,1,2,8,,,,,,,,2,16,,,,,,,,,,,4,4.248,0,,,,,,0.348657227,-0.25508355,1,0,0,4.248,Gabbro_rect,7,0,7,0,1,,,,,,,,
5ef4d8b87faaa00c0dea0c4e,TCN,2024-06-11_10h09.40.286,LearnStrategy,2023.2.3,MacIntel,59.88023952,1,2,9,,,,,,,,5,11,,,,,,,,,,,5,3.681,1,,,,,,-0.332419162,-0.39675293,1,0,0,3.6807,Obsidian_rect,8,0,8,0,1,,,,,,,,
5ef4d8b87faaa00c0dea0c4e,TCN,2024-06-11_10h09.40.286,LearnStrategy,2023.2.3,MacIntel,59.88023952,1,2,10,,,,,,,,3,06,,,,,,,,,,,3,7.651,1,,,,,,0.134686957,-0.270705838,1,0,0,7.6505,Diorite_rect,9,0,9,0,1,,,,,,,,
5ef4d8b87faaa00c0dea0c4e,TCN,2024-06-11_10h09.40.286,LearnStrategy,2023.2.3,MacIntel,59.88023952,1,2,11,,,,,,,,4,03,,,,,,,,,,,3,1.561,0,,,,,,0.136070421,-0.247854275,1,0,0,1.5614,Diorite_rect,10,0,10,0,1,,,,,,,,
5ef4d8b87faaa00c0dea0c4e,TCN,2024-06-11_10h09.40.286,LearnStrategy,2023.2.3,MacIntel,59.88023952,1,2,12,,,,,,,,8,08,,,,,,,,,,,8,1.896,1,,,,,,0.390337457,-0.397105577,1,0,0,1.8959,Pumice_rect,11,0,11,0,1,,,,,,,,
5ef4d8b87faaa00c0dea0c4e,TCN,2024-06-11_10h09.40.286,LearnStrategy,2023.2.3,MacIntel,59.88023952,1,2,13,,,,,,,,6,07,,,,,,,,,,,6,6.2,1,,,,,,-0.095732964,-0.421207682,1,0,0,6.2,Pegmatite_rect,12,0,12,0,1,,,,,,,,
5ef4d8b87faaa00c0dea0c4e,TCN,2024-06-11_10h09.40.286,LearnStrategy,2023.2.3,MacIntel,59.88023952,1,2,14,,,,,,,,7,07,,,,,,,,,,,3,5.415,0,,,,,,0.207400174,-0.260186089,1,0,0,5.415,Diorite_rect,13,0,13,0,1,,,,,,,,
5ef4d8b87faaa00c0dea0c4e,TCN,2024-06-11_10h09.40.286,LearnStrategy,2023.2.3,MacIntel,59.88023952,1,2,15,,,,,,,,1,03,,,,,,,,,,,4,4.465,0,,,,,,0.359247504,-0.265055339,1,0,0,4.4651,Gabbro_rect,14,0,14,0,1,,,,,,,,
5ef4d8b87faaa00c0dea0c4e,TCN,2024-06-11_10h09.40.286,LearnStrategy,2023.2.3,MacIntel,59.88023952,1,2,16,,,,,,,,2,06,,,,,,,,,,,2,5.35,1,,,,,,-0.113406033,-0.238823785,1,0,0,5.3496,Basalt_rect,15,0,15,0,1,,,,,,,,
5ef4d8b87faaa00c0dea0c4e,TCN,2024-06-11_10h09.40.286,LearnStrategy,2023.2.3,MacIntel,59.88023952,2,1,1,0.018622504,-0.010476345,1,0,0,1.2837,rock_grid_rect_2,4,16,-1,-1,1.284,-0.09332411,-0.242960612,1,0,0,7.5675,Basalt_rect,2,7.567,0,0,0,0,0,1,,,,,,,,,,,,,,,,,,,,
5ef4d8b87faaa00c0dea0c4e,TCN,2024-06-11_10h09.40.286,LearnStrategy,2023.2.3,MacIntel,59.88023952,2,1,2,-0.001169162,-0.006903754,1,0,0,0.9597,rock_grid_rect_2,2,12,-1,-1,0.96,0.093351237,-0.411773003,1,0,0,9.2024,Peridotite_rect,7,9.202,0,1,0,1,0,1,,,,,,,,,,,,,,,,,,,,
5ef4d8b87faaa00c0dea0c4e,TCN,2024-06-11_10h09.40.286,LearnStrategy,2023.2.3,MacIntel,59.88023952,2,1,3,0.073483615,-0.004730903,1,0,0,1.0251,rock_grid_rect_2,3,07,-1,-1,1.025,0.129500326,-0.247013346,1,0,0,7.7347,Diorite_rect,3,7.735,1,2,0,2,0,1,,,,,,,,,,,,,,,,,,,,
5ef4d8b87faaa00c0dea0c4e,TCN,2024-06-11_10h09.40.286,LearnStrategy,2023.2.3,MacIntel,59.88023952,2,1,4,0.01257053,-0.016501194,1,0,0,1.0329,rock_grid_rect_2,5,07,-1,-1,1.033,-0.367740885,-0.399782986,1,0,0,3.0812,Obsidian_rect,5,3.081,1,3,0,3,0,1,,,,,,,,,,,,,,,,,,,,
5ef4d8b87faaa00c0dea0c4e,TCN,2024-06-11_10h09.40.286,LearnStrategy,2023.2.3,MacIntel,59.88023952,2,1,5,-0.01492513,-0.015066189,1,0,0,0.9834,rock_grid_rect_2,6,16,-1,-1,0.983,-0.086268446,-0.391438802,1,0,0,4.1156,Pegmatite_rect,6,4.116,1,4,0,4,0,1,,,,,,,,,,,,,,,,,,,,
5ef4d8b87faaa00c0dea0c4e,TCN,2024-06-11_10h09.40.286,LearnStrategy,2023.2.3,MacIntel,59.88023952,2,1,6,0.010701497,0.002918837,1,0,0,0.8652,rock_grid_rect_2,7,10,-1,-1,0.865,0.125900608,-0.386960178,1,0,0,3.5476,Peridotite_rect,7,3.548,1,5,0,5,0,1,,,,,,,,,,,,,,,,,,,,
5ef4d8b87faaa00c0dea0c4e,TCN,2024-06-11_10h09.40.286,LearnStrategy,2023.2.3,MacIntel,59.88023952,2,1,7,0.008289931,-0.010416667,1,0,0,0.9814,rock_grid_rect_2,7,05,-1,-1,0.981,0.093041992,-0.410823568,1,0,0,3.7484,Peridotite_rect,7,3.748,1,6,0,6,0,1,,,,,,,,,,,,,,,,,,,,
5ef4d8b87faaa00c0dea0c4e,TCN,2024-06-11_10h09.40.286,LearnStrategy,2023.2.3,MacIntel,59.88023952,2,1,8,-0.000181749,-0.009510634,1,0,0,0.832,rock_grid_rect_2,1,04,-1,-1,0.832,0.109250217,-0.25316569,1,0,0,14.5559,Diorite_rect,3,14.556,0,7,0,7,0,1,,,,,,,,,,,,,,,,,,,,
5ef4d8b87faaa00c0dea0c4e,TCN,2024-06-11_10h09.40.286,LearnStrategy,2023.2.3,MacIntel,59.88023952,2,1,9,-0.020507813,0.0027398,1,0,0,1.0419,rock_grid_rect_2,4,15,-1,-1,1.042,0.376540799,-0.253005642,1,0,0,4.4659,Gabbro_rect,4,4.466,1,8,0,8,0,1,,,,,,,,,,,,,,,,,,,,
5ef4d8b87faaa00c0dea0c4e,TCN,2024-06-11_10h09.40.286,LearnStrategy,2023.2.3,MacIntel,59.88023952,2,1,10,0.020562066,-0.00578342,1,0,0,0.8157,rock_grid_rect_2,5,14,-1,-1,0.816,-0.302829319,-0.39147678,1,0,0,1.1967,Obsidian_rect,5,1.197,1,9,0,9,0,1,,,,,,,,,,,,,,,,,,,,
5ef4d8b87faaa00c0dea0c4e,TCN,2024-06-11_10h09.40.286,LearnStrategy,2023.2.3,MacIntel,59.88023952,2,1,11,0.062993707,0.017993164,1,0,0,0.8324,rock_grid_rect_2,1,16,-1,-1,0.832,0.366710069,-0.238680013,1,0,0,4.2142,Gabbro_rect,4,4.214,0,10,0,10,0,1,,,,,,,,,,,,,,,,,,,,
5ef4d8b87faaa00c0dea0c4e,TCN,2024-06-11_10h09.40.286,LearnStrategy,2023.2.3,MacIntel,59.88023952,2,1,12,0.017494032,-0.003643121,1,0,0,0.859,rock_grid_rect_2,3,16,-1,-1,0.859,-0.331363932,-0.245762804,1,0,0,2.4465,Andesite_rect,1,2.447,0,11,0,11,0,1,,,,,,,,,,,,,,,,,,,,
5ef4d8b87faaa00c0dea0c4e,TCN,2024-06-11_10h09.40.286,LearnStrategy,2023.2.3,MacIntel,59.88023952,2,1,13,0.028583442,-0.015595161,1,0,0,0.9589,rock_grid_rect_2,8,13,-1,-1,0.959,0.351426866,-0.38374566,1,0,0,2.5127,Pumice_rect,8,2.513,1,12,0,12,0,1,,,,,,,,,,,,,,,,,,,,
5ef4d8b87faaa00c0dea0c4e,TCN,2024-06-11_10h09.40.286,LearnStrategy,2023.2.3,MacIntel,59.88023952,2,1,14,0.010183377,0.000320095,1,0,0,0.8327,rock_grid_rect_2,6,06,-1,-1,0.833,-0.087917752,-0.413254123,1,0,0,4.166,Pegmatite_rect,6,4.166,1,13,0,13,0,1,,,,,,,,,,,,,,,,,,,,
5ef4d8b87faaa00c0dea0c4e,TCN,2024-06-11_10h09.40.286,LearnStrategy,2023.2.3,MacIntel,59.88023952,2,1,15,-0.043923611,0.008572049,1,0,0,0.7661,rock_grid_rect_2,8,15,-1,-1,0.766,0.363297526,-0.395293511,1,0,0,1.4963,Pumice_rect,8,1.496,1,14,0,14,0,1,,,,,,,,,,,,,,,,,,,,
5ef4d8b87faaa00c0dea0c4e,TCN,2024-06-11_10h09.40.286,LearnStrategy,2023.2.3,MacIntel,59.88023952,2,1,16,-0.030680339,-0.014480252,1,0,0,0.7995,rock_grid_rect_2,2,08,-1,-1,0.799,-0.388671875,-0.419365777,1,0,0,1.2624,Obsidian_rect,5,1.262,0,15,0,15,0,1,,,,,,,,,,,,,,,,,,,,
5ef4d8b87faaa00c0dea0c4e,TCN,2024-06-11_10h09.40.286,LearnStrategy,2023.2.3,MacIntel,59.88023952,2,2,1,,,,,,,,5,12,,,,,,,,,,,5,2.529,1,,,,,,-0.347414822,-0.402446832,1,0,0,2.5294,Obsidian_rect,0,0,0,0,1,,,,,,,,
5ef4d8b87faaa00c0dea0c4e,TCN,2024-06-11_10h09.40.286,LearnStrategy,2023.2.3,MacIntel,59.88023952,2,2,2,,,,,,,,2,01,,,,,,,,,,,2,4.416,1,,,,,,-0.116981337,-0.238330078,1,0,0,4.4158,Basalt_rect,1,0,1,0,1,,,,,,,,
5ef4d8b87faaa00c0dea0c4e,TCN,2024-06-11_10h09.40.286,LearnStrategy,2023.2.3,MacIntel,59.88023952,2,2,3,,,,,,,,3,13,,,,,,,,,,,7,3.43,0,,,,,,0.183121745,-0.403238932,1,0,0,3.4298,Peridotite_rect,2,0,2,0,1,,,,,,,,
5ef4d8b87faaa00c0dea0c4e,TCN,2024-06-11_10h09.40.286,LearnStrategy,2023.2.3,MacIntel,59.88023952,2,2,4,,,,,,,,3,09,,,,,,,,,,,7,1.713,0,,,,,,0.177175564,-0.403618707,1,0,0,1.7126,Peridotite_rect,3,0,3,0,1,,,,,,,,
5ef4d8b87faaa00c0dea0c4e,TCN,2024-06-11_10h09.40.286,LearnStrategy,2023.2.3,MacIntel,59.88023952,2,2,5,,,,,,,,8,16,,,,,,,,,,,8,3.047,1,,,,,,0.387825521,-0.405362956,1,0,0,3.0467,Pumice_rect,4,0,4,0,1,,,,,,,,
5ef4d8b87faaa00c0dea0c4e,TCN,2024-06-11_10h09.40.286,LearnStrategy,2023.2.3,MacIntel,59.88023952,2,2,6,,,,,,,,7,02,,,,,,,,,,,2,9.102,0,,,,,,-0.091560872,-0.257733832,1,0,0,9.102,Basalt_rect,5,0,5,0,1,,,,,,,,
5ef4d8b87faaa00c0dea0c4e,TCN,2024-06-11_10h09.40.286,LearnStrategy,2023.2.3,MacIntel,59.88023952,2,2,7,,,,,,,,1,14,,,,,,,,,,,6,2.413,0,,,,,,-0.090877279,-0.398779297,1,0,0,2.4134,Pegmatite_rect,6,0,6,0,1,,,,,,,,
5ef4d8b87faaa00c0dea0c4e,TCN,2024-06-11_10h09.40.286,LearnStrategy,2023.2.3,MacIntel,59.88023952,2,2,8,,,,,,,,7,15,,,,,,,,,,,1,4.432,0,,,,,,-0.339979384,-0.244441732,1,0,0,4.4318,Andesite_rect,7,0,7,0,1,,,,,,,,
5ef4d8b87faaa00c0dea0c4e,TCN,2024-06-11_10h09.40.286,LearnStrategy,2023.2.3,MacIntel,59.88023952,2,2,9,,,,,,,,2,04,,,,,,,,,,,4,7.784,0,,,,,,0.437342665,-0.263004557,1,0,0,7.7843,Gabbro_rect,8,0,8,0,1,,,,,,,,
5ef4d8b87faaa00c0dea0c4e,TCN,2024-06-11_10h09.40.286,LearnStrategy,2023.2.3,MacIntel,59.88023952,2,2,10,,,,,,,,6,10,,,,,,,,,,,6,2.263,1,,,,,,-0.057359484,-0.398529731,1,0,0,2.2631,Pegmatite_rect,9,0,9,0,1,,,,,,,,
5ef4d8b87faaa00c0dea0c4e,TCN,2024-06-11_10h09.40.286,LearnStrategy,2023.2.3,MacIntel,59.88023952,2,2,11,,,,,,,,4,11,,,,,,,,,,,2,5.599,0,,,,,,-0.132693142,-0.239968533,1,0,0,5.5994,Basalt_rect,10,0,10,0,1,,,,,,,,
5ef4d8b87faaa00c0dea0c4e,TCN,2024-06-11_10h09.40.286,LearnStrategy,2023.2.3,MacIntel,59.88023952,2,2,12,,,,,,,,4,14,,,,,,,,,,,2,3.163,0,,,,,,-0.093712023,-0.250284831,1,0,0,3.1634,Basalt_rect,11,0,11,0,1,,,,,,,,
5ef4d8b87faaa00c0dea0c4e,TCN,2024-06-11_10h09.40.286,LearnStrategy,2023.2.3,MacIntel,59.88023952,2,2,13,,,,,,,,5,09,,,,,,,,,,,5,1.245,1,,,,,,-0.312334527,-0.413845486,1,0,0,1.2455,Obsidian_rect,12,0,12,0,1,,,,,,,,
5ef4d8b87faaa00c0dea0c4e,TCN,2024-06-11_10h09.40.286,LearnStrategy,2023.2.3,MacIntel,59.88023952,2,2,14,,,,,,,,1,01,,,,,,,,,,,4,7.918,0,,,,,,0.324077691,-0.261515299,1,0,0,7.9181,Gabbro_rect,13,0,13,0,1,,,,,,,,
5ef4d8b87faaa00c0dea0c4e,TCN,2024-06-11_10h09.40.286,LearnStrategy,2023.2.3,MacIntel,59.88023952,2,2,15,,,,,,,,8,14,,,,,,,,,,,8,1.06,1,,,,,,0.392708333,-0.418286133,1,0,0,1.0605,Pumice_rect,14,0,14,0,1,,,,,,,,
5ef4d8b87faaa00c0dea0c4e,TCN,2024-06-11_10h09.40.286,LearnStrategy,2023.2.3,MacIntel,59.88023952,2,2,16,,,,,,,,6,15,,,,,,,,,,,6,2.58,1,,,,,,-0.131217448,-0.404622396,1,0,0,2.5796,Pegmatite_rect,15,0,15,0,1,,,,,,,,
5ef4d8b87faaa00c0dea0c4e,TCN,2024-06-11_10h09.40.286,LearnStrategy,2023.2.3,MacIntel,59.88023952,3,1,1,0.030498589,-0.014510091,1,0,0,6.8887,rock_grid_rect_2,7,04,-1,-1,6.889,0.116452365,-0.263294813,1,0,0,14.3057,Diorite_rect,3,14.306,0,0,0,0,0,1,,,,,,,,,,,,,,,,,,,,
5ef4d8b87faaa00c0dea0c4e,TCN,2024-06-11_10h09.40.286,LearnStrategy,2023.2.3,MacIntel,59.88023952,3,1,2,0.014385308,-0.018967014,1,0,0,0.9253,rock_grid_rect_2,6,09,-1,-1,0.925,-0.167407227,-0.399896918,1,0,0,2.9316,Pegmatite_rect,6,2.932,1,1,0,1,0,1,,,,,,,,,,,,,,,,,,,,
5ef4d8b87faaa00c0dea0c4e,TCN,2024-06-11_10h09.40.286,LearnStrategy,2023.2.3,MacIntel,59.88023952,3,1,3,-0.033308919,0.010609266,1,0,0,0.9661,rock_grid_rect_2,2,02,-1,-1,0.966,-0.072021484,-0.256317817,1,0,0,6.2341,Basalt_rect,2,6.234,1,2,0,2,0,1,,,,,,,,,,,,,,,,,,,,
5ef4d8b87faaa00c0dea0c4e,TCN,2024-06-11_10h09.40.286,LearnStrategy,2023.2.3,MacIntel,59.88023952,3,1,4,0.046796332,0.000770399,1,0,0,0.867,rock_grid_rect_2,7,08,-1,-1,0.867,0.17425944,-0.240367296,1,0,0,6.3654,Diorite_rect,3,6.365,0,3,0,3,0,1,,,,,,,,,,,,,,,,,,,,
5ef4d8b87faaa00c0dea0c4e,TCN,2024-06-11_10h09.40.286,LearnStrategy,2023.2.3,MacIntel,59.88023952,3,1,5,0.01171875,-0.003721788,1,0,0,0.9591,rock_grid_rect_2,8,10,-1,-1,0.959,0.358946398,-0.40265842,1,0,0,1.0453,Pumice_rect,8,1.045,1,4,0,4,0,1,,,,,,,,,,,,,,,,,,,,
5ef4d8b87faaa00c0dea0c4e,TCN,2024-06-11_10h09.40.286,LearnStrategy,2023.2.3,MacIntel,59.88023952,3,1,6,0.000496419,-0.012280273,1,0,0,0.8002,rock_grid_rect_2,3,02,-1,-1,0.8,0.087554253,-0.250010851,1,0,0,12.4546,Diorite_rect,3,12.455,1,5,0,5,0,1,,,,,,,,,,,,,,,,,,,,
5ef4d8b87faaa00c0dea0c4e,TCN,2024-06-11_10h09.40.286,LearnStrategy,2023.2.3,MacIntel,59.88023952,3,1,7,0.012969293,-0.013916016,1,0,0,0.974,rock_grid_rect_2,5,06,-1,-1,0.974,-0.211173503,-0.41086697,1,0,0,3.6152,Pegmatite_rect,6,3.615,0,6,0,6,0,1,,,,,,,,,,,,,,,,,,,,
5ef4d8b87faaa00c0dea0c4e,TCN,2024-06-11_10h09.40.286,LearnStrategy,2023.2.3,MacIntel,59.88023952,3,1,8,-0.021668837,0.002015516,1,0,0,0.7496,rock_grid_rect_2,3,14,-1,-1,0.75,-0.344476997,-0.240437826,1,0,0,5.1487,Andesite_rect,1,5.149,0,7,0,7,0,1,,,,,,,,,,,,,,,,,,,,
5ef4d8b87faaa00c0dea0c4e,TCN,2024-06-11_10h09.40.286,LearnStrategy,2023.2.3,MacIntel,59.88023952,3,1,9,-0.037689887,-0.007598199,1,0,0,0.8574,rock_grid_rect_2,1,11,-1,-1,0.857,0.10793457,-0.404001194,1,0,0,9.1033,Peridotite_rect,7,9.103,0,8,0,8,0,1,,,,,,,,,,,,,,,,,,,,
5ef4d8b87faaa00c0dea0c4e,TCN,2024-06-11_10h09.40.286,LearnStrategy,2023.2.3,MacIntel,59.88023952,3,1,10,0.004777018,0.012763129,1,0,0,0.957,rock_grid_rect_2,2,14,-1,-1,0.957,0.183265516,-0.399549696,1,0,0,6.3668,Peridotite_rect,7,6.367,0,9,0,9,0,1,,,,,,,,,,,,,,,,,,,,
5ef4d8b87faaa00c0dea0c4e,TCN,2024-06-11_10h09.40.286,LearnStrategy,2023.2.3,MacIntel,59.88023952,3,1,11,0.094848633,-0.006486003,1,0,0,1.4503,rock_grid_rect_2,4,13,-1,-1,1.45,-0.128184679,-0.266303168,1,0,0,4.8318,Basalt_rect,2,4.832,0,10,0,10,0,1,,,,,,,,,,,,,,,,,,,,
5ef4d8b87faaa00c0dea0c4e,TCN,2024-06-11_10h09.40.286,LearnStrategy,2023.2.3,MacIntel,59.88023952,3,1,12,0.021744792,0.005913628,1,0,0,1.0409,rock_grid_rect_2,5,02,-1,-1,1.041,-0.351548937,-0.385525174,1,0,0,1.2797,Obsidian_rect,5,1.28,1,11,0,11,0,1,,,,,,,,,,,,,,,,,,,,
5ef4d8b87faaa00c0dea0c4e,TCN,2024-06-11_10h09.40.286,LearnStrategy,2023.2.3,MacIntel,59.88023952,3,1,13,-0.001264106,-0.010107422,1,0,0,0.9655,rock_grid_rect_2,4,05,-1,-1,0.965,-0.091493056,-0.235891385,1,0,0,4.0665,Basalt_rect,2,4.067,0,12,0,12,0,1,,,,,,,,,,,,,,,,,,,,
5ef4d8b87faaa00c0dea0c4e,TCN,2024-06-11_10h09.40.286,LearnStrategy,2023.2.3,MacIntel,59.88023952,3,1,14,0.034863281,-0.009893121,1,0,0,0.8243,rock_grid_rect_2,1,06,-1,-1,0.824,-0.311119249,-0.248019748,1,0,0,8.2192,Andesite_rect,1,8.219,1,13,0,13,0,1,,,,,,,,,,,,,,,,,,,,
5ef4d8b87faaa00c0dea0c4e,TCN,2024-06-11_10h09.40.286,LearnStrategy,2023.2.3,MacIntel,59.88023952,3,1,15,0.048364258,-0.012036133,1,0,0,1.034,rock_grid_rect_2,8,04,-1,-1,1.034,0.408995226,-0.385053168,1,0,0,1.2623,Pumice_rect,8,1.262,1,14,0,14,0,1,,,,,,,,,,,,,,,,,,,,
5ef4d8b87faaa00c0dea0c4e,TCN,2024-06-11_10h09.40.286,LearnStrategy,2023.2.3,MacIntel,59.88023952,3,1,16,0.011569553,-0.000103082,1,0,0,0.8836,rock_grid_rect_2,6,13,-1,-1,0.884,-0.048952908,-0.386528863,1,0,0,13.0379,Pegmatite_rect,6,13.038,1,15,0,15,0,1,,,,,,,,,,,,,,,,,,,,
5ef4d8b87faaa00c0dea0c4e,TCN,2024-06-11_10h09.40.286,LearnStrategy,2023.2.3,MacIntel,59.88023952,3,2,1,,,,,,,,4,10,,,,,,,,,,,2,7.235,0,,,,,,-0.062594944,-0.260923937,1,0,0,7.2345,Basalt_rect,0,0,0,0,1,,,,,,,,
5ef4d8b87faaa00c0dea0c4e,TCN,2024-06-11_10h09.40.286,LearnStrategy,2023.2.3,MacIntel,59.88023952,3,2,2,,,,,,,,3,11,,,,,,,,,,,3,9.269,1,,,,,,0.082877604,-0.265847439,1,0,0,9.2693,Diorite_rect,1,0,1,0,1,,,,,,,,
5ef4d8b87faaa00c0dea0c4e,TCN,2024-06-11_10h09.40.286,LearnStrategy,2023.2.3,MacIntel,59.88023952,3,2,3,,,,,,,,4,09,,,,,,,,,,,4,9.085,1,,,,,,0.395054796,-0.269441732,1,0,0,9.0849,Gabbro_rect,2,0,2,0,1,,,,,,,,
5ef4d8b87faaa00c0dea0c4e,TCN,2024-06-11_10h09.40.286,LearnStrategy,2023.2.3,MacIntel,59.88023952,3,2,4,,,,,,,,2,11,,,,,,,,,,,4,3.563,0,,,,,,0.334830729,-0.261425781,1,0,0,3.5634,Gabbro_rect,3,0,3,0,1,,,,,,,,
5ef4d8b87faaa00c0dea0c4e,TCN,2024-06-11_10h09.40.286,LearnStrategy,2023.2.3,MacIntel,59.88023952,3,2,5,,,,,,,,8,03,,,,,,,,,,,8,1.195,1,,,,,,0.318250868,-0.413604058,1,0,0,1.1954,Pumice_rect,4,0,4,0,1,,,,,,,,
5ef4d8b87faaa00c0dea0c4e,TCN,2024-06-11_10h09.40.286,LearnStrategy,2023.2.3,MacIntel,59.88023952,3,2,6,,,,,,,,8,09,,,,,,,,,,,8,1.03,1,,,,,,0.348714193,-0.379625109,1,0,0,1.0298,Pumice_rect,5,0,5,0,1,,,,,,,,
5ef4d8b87faaa00c0dea0c4e,TCN,2024-06-11_10h09.40.286,LearnStrategy,2023.2.3,MacIntel,59.88023952,3,2,7,,,,,,,,6,03,,,,,,,,,,,6,2.898,1,,,,,,-0.095049371,-0.402652995,1,0,0,2.8979,Pegmatite_rect,6,0,6,0,1,,,,,,,,
5ef4d8b87faaa00c0dea0c4e,TCN,2024-06-11_10h09.40.286,LearnStrategy,2023.2.3,MacIntel,59.88023952,3,2,8,,,,,,,,7,12,,,,,,,,,,,1,3.282,0,,,,,,-0.334377713,-0.243495009,1,0,0,3.2817,Andesite_rect,7,0,7,0,1,,,,,,,,
5ef4d8b87faaa00c0dea0c4e,TCN,2024-06-11_10h09.40.286,LearnStrategy,2023.2.3,MacIntel,59.88023952,3,2,9,,,,,,,,1,09,,,,,,,,,,,1,6.099,1,,,,,,-0.343229167,-0.255213759,1,0,0,6.0989,Andesite_rect,8,0,8,0,1,,,,,,,,
5ef4d8b87faaa00c0dea0c4e,TCN,2024-06-11_10h09.40.286,LearnStrategy,2023.2.3,MacIntel,59.88023952,3,2,10,,,,,,,,1,07,,,,,,,,,,,3,4.798,0,,,,,,0.110104709,-0.235568576,1,0,0,4.7981,Diorite_rect,9,0,9,0,1,,,,,,,,
5ef4d8b87faaa00c0dea0c4e,TCN,2024-06-11_10h09.40.286,LearnStrategy,2023.2.3,MacIntel,59.88023952,3,2,11,,,,,,,,5,10,,,,,,,,,,,5,3.413,1,,,,,,-0.336691623,-0.389808485,1,0,0,3.4129,Obsidian_rect,10,0,10,0,1,,,,,,,,
5ef4d8b87faaa00c0dea0c4e,TCN,2024-06-11_10h09.40.286,LearnStrategy,2023.2.3,MacIntel,59.88023952,3,2,12,,,,,,,,6,12,,,,,,,,,,,6,2.596,1,,,,,,-0.075249566,-0.3939426,1,0,0,2.5956,Pegmatite_rect,11,0,11,0,1,,,,,,,,
5ef4d8b87faaa00c0dea0c4e,TCN,2024-06-11_10h09.40.286,LearnStrategy,2023.2.3,MacIntel,59.88023952,3,2,13,,,,,,,,3,12,,,,,,,,,,,3,4.515,1,,,,,,0.054796007,-0.254101562,1,0,0,4.5146,Diorite_rect,12,0,12,0,1,,,,,,,,
5ef4d8b87faaa00c0dea0c4e,TCN,2024-06-11_10h09.40.286,LearnStrategy,2023.2.3,MacIntel,59.88023952,3,2,14,,,,,,,,2,09,,,,,,,,,,,2,13.173,1,,,,,,-0.104229058,-0.22996148,1,0,0,13.1727,Basalt_rect,13,0,13,0,1,,,,,,,,
5ef4d8b87faaa00c0dea0c4e,TCN,2024-06-11_10h09.40.286,LearnStrategy,2023.2.3,MacIntel,59.88023952,3,2,15,,,,,,,,5,08,,,,,,,,,,,5,1.195,1,,,,,,-0.339382595,-0.405476888,1,0,0,1.1955,Obsidian_rect,14,0,14,0,1,,,,,,,,
5ef4d8b87faaa00c0dea0c4e,TCN,2024-06-11_10h09.40.286,LearnStrategy,2023.2.3,MacIntel,59.88023952,3,2,16,,,,,,,,7,16,,,,,,,,,,,4,2.797,0,,,,,,0.354630534,-0.254611545,1,0,0,2.7969,Gabbro_rect,15,0,15,0,1,,,,,,,,
5ef4d8b87faaa00c0dea0c4e,TCN,2024-06-11_10h09.40.286,LearnStrategy,2023.2.3,MacIntel,59.88023952,4,1,1,0.036496311,-0.009120009,1,0,0,1.568,rock_grid_rect_2,1,11,-1,-1,1.568,-0.106106228,-0.238511827,1,0,0,5.5156,Basalt_rect,2,5.516,0,0,0,0,0,1,,,,,,,,,,,,,,,,,,,,
5ef4d8b87faaa00c0dea0c4e,TCN,2024-06-11_10h09.40.286,LearnStrategy,2023.2.3,MacIntel,59.88023952,4,1,2,0.003116862,-0.010443793,1,0,0,1.0234,rock_grid_rect_2,2,10,-1,-1,1.023,0.378792318,-0.252102322,1,0,0,11.0549,Gabbro_rect,4,11.055,0,1,0,1,0,1,,,,,,,,,,,,,,,,,,,,
5ef4d8b87faaa00c0dea0c4e,TCN,2024-06-11_10h09.40.286,LearnStrategy,2023.2.3,MacIntel,59.88023952,4,1,3,0.042049154,0.007874891,1,0,0,0.8484,rock_grid_rect_2,3,16,-1,-1,0.848,,,,,,,,,,,2,0,2,0,1,,,,,,,,,,,,,,3,0,3,0,1,8,15
5ef4d8b87faaa00c0dea0c4e,TCN,2024-06-11_10h09.40.286,LearnStrategy,2023.2.3,MacIntel,59.88023952,,,,,,,,,,,,,,,,,,,,,,,,,,2,0,2,0,1,,,,,,,,,,,,,,3,0,3,0,1,8,15
5ef4d8b87faaa00c0dea0c4e,TCN,2024-06-11_10h09.40.286,LearnStrategy,2023.2.3,MacIntel,59.88023952,,,,,,,,,,,3,08,1,1,,,,,,,,,,,,2,0,2,0,1,,,,,,,,,,,,,,3,0,3,0,1,8,15
5ef4d8b87faaa00c0dea0c4e,TCN,2024-06-11_10h09.40.286,LearnStrategy,2023.2.3,MacIntel,59.88023952,,,,,,,,,,,7,10,1,2,,,,,,,,,,,,2,0,2,0,1,,,,,,,,,,,,,,3,0,3,0,1,8,15
5ef4d8b87faaa00c0dea0c4e,TCN,2024-06-11_10h09.40.286,LearnStrategy,2023.2.3,MacIntel,59.88023952,,,,,,,,,,,4,12,1,3,,,,,,,,,,,,2,0,2,0,1,,,,,,,,,,,,,,3,0,3,0,1,8,15
5ef4d8b87faaa00c0dea0c4e,TCN,2024-06-11_10h09.40.286,LearnStrategy,2023.2.3,MacIntel,59.88023952,,,,,,,,,,,3,02,1,4,,,,,,,,,,,,2,0,2,0,1,,,,,,,,,,,,,,3,0,3,0,1,8,15
5ef4d8b87faaa00c0dea0c4e,TCN,2024-06-11_10h09.40.286,LearnStrategy,2023.2.3,MacIntel,59.88023952,,,,,,,,,,,3,10,1,5,,,,,,,,,,,,2,0,2,0,1,,,,,,,,,,,,,,3,0,3,0,1,8,15
5ef4d8b87faaa00c0dea0c4e,TCN,2024-06-11_10h09.40.286,LearnStrategy,2023.2.3,MacIntel,59.88023952,,,,,,,,,,,3,14,1,6,,,,,,,,,,,,2,0,2,0,1,,,,,,,,,,,,,,3,0,3,0,1,8,15
5ef4d8b87faaa00c0dea0c4e,TCN,2024-06-11_10h09.40.286,LearnStrategy,2023.2.3,MacIntel,59.88023952,,,,,,,,,,,5,07,1,7,,,,,,,,,,,,2,0,2,0,1,,,,,,,,,,,,,,3,0,3,0,1,8,15
5ef4d8b87faaa00c0dea0c4e,TCN,2024-06-11_10h09.40.286,LearnStrategy,2023.2.3,MacIntel,59.88023952,,,,,,,,,,,5,05,1,8,,,,,,,,,,,,2,0,2,0,1,,,,,,,,,,,,,,3,0,3,0,1,8,15
5ef4d8b87faaa00c0dea0c4e,TCN,2024-06-11_10h09.40.286,LearnStrategy,2023.2.3,MacIntel,59.88023952,,,,,,,,,,,8,04,2,1,,,,,,,,,,,,2,0,2,0,1,,,,,,,,,,,,,,3,0,3,0,1,8,15
5ef4d8b87faaa00c0dea0c4e,TCN,2024-06-11_10h09.40.286,LearnStrategy,2023.2.3,MacIntel,59.88023952,,,,,,,,,,,6,06,2,2,,,,,,,,,,,,2,0,2,0,1,,,,,,,,,,,,,,3,0,3,0,1,8,15
5ef4d8b87faaa00c0dea0c4e,TCN,2024-06-11_10h09.40.286,LearnStrategy,2023.2.3,MacIntel,59.88023952,,,,,,,,,,,4,13,2,3,,,,,,,,,,,,2,0,2,0,1,,,,,,,,,,,,,,3,0,3,0,1,8,15
5ef4d8b87faaa00c0dea0c4e,TCN,2024-06-11_10h09.40.286,LearnStrategy,2023.2.3,MacIntel,59.88023952,,,,,,,,,,,8,05,2,4,,,,,,,,,,,,2,0,2,0,1,,,,,,,,,,,,,,3,0,3,0,1,8,15
5ef4d8b87faaa00c0dea0c4e,TCN,2024-06-11_10h09.40.286,LearnStrategy,2023.2.3,MacIntel,59.88023952,,,,,,,,,,,6,11,2,5,,,,,,,,,,,,2,0,2,0,1,,,,,,,,,,,,,,3,0,3,0,1,8,15
5ef4d8b87faaa00c0dea0c4e,TCN,2024-06-11_10h09.40.286,LearnStrategy,2023.2.3,MacIntel,59.88023952,,,,,,,,,,,8,10,2,6,,,,,,,,,,,,2,0,2,0,1,,,,,,,,,,,,,,3,0,3,0,1,8,15
5ef4d8b87faaa00c0dea0c4e,TCN,2024-06-11_10h09.40.286,LearnStrategy,2023.2.3,MacIntel,59.88023952,,,,,,,,,,,2,08,2,7,,,,,,,,,,,,2,0,2,0,1,,,,,,,,,,,,,,3,0,3,0,1,8,15
5ef4d8b87faaa00c0dea0c4e,TCN,2024-06-11_10h09.40.286,LearnStrategy,2023.2.3,MacIntel,59.88023952,,,,,,,,,,,1,16,2,8,,,,,,,,,,,,2,0,2,0,1,,,,,,,,,,,,,,3,0,3,0,1,8,15
5ef4d8b87faaa00c0dea0c4e,TCN,2024-06-11_10h09.40.286,LearnStrategy,2023.2.3,MacIntel,59.88023952,,,,,,,,,,,4,08,3,1,,,,,,,,,,,,2,0,2,0,1,,,,,,,,,,,,,,3,0,3,0,1,8,15
5ef4d8b87faaa00c0dea0c4e,TCN,2024-06-11_10h09.40.286,LearnStrategy,2023.2.3,MacIntel,59.88023952,,,,,,,,,,,3,07,3,2,,,,,,,,,,,,2,0,2,0,1,,,,,,,,,,,,,,3,0,3,0,1,8,15
5ef4d8b87faaa00c0dea0c4e,TCN,2024-06-11_10h09.40.286,LearnStrategy,2023.2.3,MacIntel,59.88023952,,,,,,,,,,,5,06,3,3,,,,,,,,,,,,2,0,2,0,1,,,,,,,,,,,,,,3,0,3,0,1,8,15
5ef4d8b87faaa00c0dea0c4e,TCN,2024-06-11_10h09.40.286,LearnStrategy,2023.2.3,MacIntel,59.88023952,,,,,,,,,,,1,11,3,4,,,,,,,,,,,,2,0,2,0,1,,,,,,,,,,,,,,3,0,3,0,1,8,15
5ef4d8b87faaa00c0dea0c4e,TCN,2024-06-11_10h09.40.286,LearnStrategy,2023.2.3,MacIntel,59.88023952,,,,,,,,,,,8,13,3,5,,,,,,,,,,,,2,0,2,0,1,,,,,,,,,,,,,,3,0,3,0,1,8,15
5ef4d8b87faaa00c0dea0c4e,TCN,2024-06-11_10h09.40.286,LearnStrategy,2023.2.3,MacIntel,59.88023952,,,,,,,,,,,7,04,3,6,,,,,,,,,,,,2,0,2,0,1,,,,,,,,,,,,,,3,0,3,0,1,8,15
5ef4d8b87faaa00c0dea0c4e,TCN,2024-06-11_10h09.40.286,LearnStrategy,2023.2.3,MacIntel,59.88023952,,,,,,,,,,,1,10,3,7,,,,,,,,,,,,2,0,2,0,1,,,,,,,,,,,,,,3,0,3,0,1,8,15
5ef4d8b87faaa00c0dea0c4e,TCN,2024-06-11_10h09.40.286,LearnStrategy,2023.2.3,MacIntel,59.88023952,,,,,,,,,,,2,10,3,8,,,,,,,,,,,,2,0,2,0,1,,,,,,,,,,,,,,3,0,3,0,1,8,15
5ef4d8b87faaa00c0dea0c4e,TCN,2024-06-11_10h09.40.286,LearnStrategy,2023.2.3,MacIntel,59.88023952,,,,,,,,,,,6,13,4,1,,,,,,,,,,,,2,0,2,0,1,,,,,,,,,,,,,,3,0,3,0,1,8,15
5ef4d8b87faaa00c0dea0c4e,TCN,2024-06-11_10h09.40.286,LearnStrategy,2023.2.3,MacIntel,59.88023952,,,,,,,,,,,6,09,4,2,,,,,,,,,,,,2,0,2,0,1,,,,,,,,,,,,,,3,0,3,0,1,8,15
5ef4d8b87faaa00c0dea0c4e,TCN,2024-06-11_10h09.40.286,LearnStrategy,2023.2.3,MacIntel,59.88023952,,,,,,,,,,,5,14,4,3,,,,,,,,,,,,2,0,2,0,1,,,,,,,,,,,,,,3,0,3,0,1,8,15
5ef4d8b87faaa00c0dea0c4e,TCN,2024-06-11_10h09.40.286,LearnStrategy,2023.2.3,MacIntel,59.88023952,,,,,,,,,,,2,02,4,4,,,,,,,,,,,,2,0,2,0,1,,,,,,,,,,,,,,3,0,3,0,1,8,15
5ef4d8b87faaa00c0dea0c4e,TCN,2024-06-11_10h09.40.286,LearnStrategy,2023.2.3,MacIntel,59.88023952,,,,,,,,,,,5,02,4,5,,,,,,,,,,,,2,0,2,0,1,,,,,,,,,,,,,,3,0,3,0,1,8,15
5ef4d8b87faaa00c0dea0c4e,TCN,2024-06-11_10h09.40.286,LearnStrategy,2023.2.3,MacIntel,59.88023952,,,,,,,,,,,7,08,4,6,,,,,,,,,,,,2,0,2,0,1,,,,,,,,,,,,,,3,0,3,0,1,8,15
5ef4d8b87faaa00c0dea0c4e,TCN,2024-06-11_10h09.40.286,LearnStrategy,2023.2.3,MacIntel,59.88023952,,,,,,,,,,,2,05,4,7,,,,,,,,,,,,2,0,2,0,1,,,,,,,,,,,,,,3,0,3,0,1,8,15
5ef4d8b87faaa00c0dea0c4e,TCN,2024-06-11_10h09.40.286,LearnStrategy,2023.2.3,MacIntel,59.88023952,,,,,,,,,,,1,06,4,8,,,,,,,,,,,,2,0,2,0,1,,,,,,,,,,,,,,3,0,3,0,1,8,15
5ef4d8b87faaa00c0dea0c4e,TCN,2024-06-11_10h09.40.286,LearnStrategy,2023.2.3,MacIntel,59.88023952,,,,,,,,,,,8,15,5,1,,,,,,,,,,,,2,0,2,0,1,,,,,,,,,,,,,,3,0,3,0,1,8,15
5ef4d8b87faaa00c0dea0c4e,TCN,2024-06-11_10h09.40.286,LearnStrategy,2023.2.3,MacIntel,59.88023952,,,,,,,,,,,1,02,5,2,,,,,,,,,,,,2,0,2,0,1,,,,,,,,,,,,,,3,0,3,0,1,8,15
5ef4d8b87faaa00c0dea0c4e,TCN,2024-06-11_10h09.40.286,LearnStrategy,2023.2.3,MacIntel,59.88023952,,,,,,,,,,,6,08,5,3,,,,,,,,,,,,2,0,2,0,1,,,,,,,,,,,,,,3,0,3,0,1,8,15
5ef4d8b87faaa00c0dea0c4e,TCN,2024-06-11_10h09.40.286,LearnStrategy,2023.2.3,MacIntel,59.88023952,,,,,,,,,,,8,02,5,4,,,,,,,,,,,,2,0,2,0,1,,,,,,,,,,,,,,3,0,3,0,1,8,15
5ef4d8b87faaa00c0dea0c4e,TCN,2024-06-11_10h09.40.286,LearnStrategy,2023.2.3,MacIntel,59.88023952,,,,,,,,,,,4,16,5,5,,,,,,,,,,,,2,0,2,0,1,,,,,,,,,,,,,,3,0,3,0,1,8,15
5ef4d8b87faaa00c0dea0c4e,TCN,2024-06-11_10h09.40.286,LearnStrategy,2023.2.3,MacIntel,59.88023952,,,,,,,,,,,5,04,5,6,,,,,,,,,,,,2,0,2,0,1,,,,,,,,,,,,,,3,0,3,0,1,8,15
5ef4d8b87faaa00c0dea0c4e,TCN,2024-06-11_10h09.40.286,LearnStrategy,2023.2.3,MacIntel,59.88023952,,,,,,,,,,,6,16,5,7,,,,,,,,,,,,2,0,2,0,1,,,,,,,,,,,,,,3,0,3,0,1,8,15
5ef4d8b87faaa00c0dea0c4e,TCN,2024-06-11_10h09.40.286,LearnStrategy,2023.2.3,MacIntel,59.88023952,,,,,,,,,,,4,15,5,8,,,,,,,,,,,,2,0,2,0,1,,,,,,,,,,,,,,3,0,3,0,1,8,15
5ef4d8b87faaa00c0dea0c4e,TCN,2024-06-11_10h09.40.286,LearnStrategy,2023.2.3,MacIntel,59.88023952,,,,,,,,,,,2,12,6,1,,,,,,,,,,,,2,0,2,0,1,,,,,,,,,,,,,,3,0,3,0,1,8,15
5ef4d8b87faaa00c0dea0c4e,TCN,2024-06-11_10h09.40.286,LearnStrategy,2023.2.3,MacIntel,59.88023952,,,,,,,,,,,3,16,6,2,,,,,,,,,,,,2,0,2,0,1,,,,,,,,,,,,,,3,0,3,0,1,8,15
5ef4d8b87faaa00c0dea0c4e,TCN,2024-06-11_10h09.40.286,LearnStrategy,2023.2.3,MacIntel,59.88023952,,,,,,,,,,,2,14,6,3,,,,,,,,,,,,2,0,2,0,1,,,,,,,,,,,,,,3,0,3,0,1,8,15
5ef4d8b87faaa00c0dea0c4e,TCN,2024-06-11_10h09.40.286,LearnStrategy,2023.2.3,MacIntel,59.88023952,,,,,,,,,,,1,04,6,4,,,,,,,,,,,,2,0,2,0,1,,,,,,,,,,,,,,3,0,3,0,1,8,15
5ef4d8b87faaa00c0dea0c4e,TCN,2024-06-11_10h09.40.286,LearnStrategy,2023.2.3,MacIntel,59.88023952,,,,,,,,,,,4,05,6,5,,,,,,,,,,,,2,0,2,0,1,,,,,,,,,,,,,,3,0,3,0,1,8,15
5ef4d8b87faaa00c0dea0c4e,TCN,2024-06-11_10h09.40.286,LearnStrategy,2023.2.3,MacIntel,59.88023952,,,,,,,,,,,7,13,6,6,,,,,,,,,,,,2,0,2,0,1,,,,,,,,,,,,,,3,0,3,0,1,8,15
5ef4d8b87faaa00c0dea0c4e,TCN,2024-06-11_10h09.40.286,LearnStrategy,2023.2.3,MacIntel,59.88023952,,,,,,,,,,,7,14,6,7,,,,,,,,,,,,2,0,2,0,1,,,,,,,,,,,,,,3,0,3,0,1,8,15
5ef4d8b87faaa00c0dea0c4e,TCN,2024-06-11_10h09.40.286,LearnStrategy,2023.2.3,MacIntel,59.88023952,,,,,,,,,,,7,05,6,8,,,,,,,,,,,,2,0,2,0,1,,,,,,,,,,,,,,3,0,3,0,1,8,15
5ef4d8b87faaa00c0dea0c4e,TCN,2024-06-11_10h09.40.286,LearnStrategy,2023.2.3,MacIntel,59.88023952,,,,,,,,,,,,,,,,,,,,,,,,,,2,0,2,0,1,,,,,,,,,,,,,,3,0,3,0,1,8,15
5ef4d8b87faaa00c0dea0c4e,TCN,2024-06-11_10h09.40.286,LearnStrategy,2023.2.3,MacIntel,59.88023952,,,,,,,,,,,3,08,1,1,,,,,,,,,,,,2,0,2,0,1,,,,,,,,,,,,,,3,0,3,0,1,8,15
5ef4d8b87faaa00c0dea0c4e,TCN,2024-06-11_10h09.40.286,LearnStrategy,2023.2.3,MacIntel,59.88023952,,,,,,,,,,,7,10,1,2,,,,,,,,,,,,2,0,2,0,1,,,,,,,,,,,,,,3,0,3,0,1,8,15
5ef4d8b87faaa00c0dea0c4e,TCN,2024-06-11_10h09.40.286,LearnStrategy,2023.2.3,MacIntel,59.88023952,,,,,,,,,,,4,12,1,3,,,,,,,,,,,,2,0,2,0,1,,,,,,,,,,,,,,3,0,3,0,1,8,15
5ef4d8b87faaa00c0dea0c4e,TCN,2024-06-11_10h09.40.286,LearnStrategy,2023.2.3,MacIntel,59.88023952,,,,,,,,,,,3,02,1,4,,,,,,,,,,,,2,0,2,0,1,,,,,,,,,,,,,,3,0,3,0,1,8,15
5ef4d8b87faaa00c0dea0c4e,TCN,2024-06-11_10h09.40.286,LearnStrategy,2023.2.3,MacIntel,59.88023952,,,,,,,,,,,3,10,1,5,,,,,,,,,,,,2,0,2,0,1,,,,,,,,,,,,,,3,0,3,0,1,8,15
5ef4d8b87faaa00c0dea0c4e,TCN,2024-06-11_10h09.40.286,LearnStrategy,2023.2.3,MacIntel,59.88023952,,,,,,,,,,,3,14,1,6,,,,,,,,,,,,2,0,2,0,1,,,,,,,,,,,,,,3,0,3,0,1,8,15
5ef4d8b87faaa00c0dea0c4e,TCN,2024-06-11_10h09.40.286,LearnStrategy,2023.2.3,MacIntel,59.88023952,,,,,,,,,,,5,07,1,7,,,,,,,,,,,,2,0,2,0,1,,,,,,,,,,,,,,3,0,3,0,1,8,15
5ef4d8b87faaa00c0dea0c4e,TCN,2024-06-11_10h09.40.286,LearnStrategy,2023.2.3,MacIntel,59.88023952,,,,,,,,,,,5,05,1,8,,,,,,,,,,,,2,0,2,0,1,,,,,,,,,,,,,,3,0,3,0,1,8,15
5ef4d8b87faaa00c0dea0c4e,TCN,2024-06-11_10h09.40.286,LearnStrategy,2023.2.3,MacIntel,59.88023952,,,,,,,,,,,8,04,2,1,,,,,,,,,,,,2,0,2,0,1,,,,,,,,,,,,,,3,0,3,0,1,8,15
5ef4d8b87faaa00c0dea0c4e,TCN,2024-06-11_10h09.40.286,LearnStrategy,2023.2.3,MacIntel,59.88023952,,,,,,,,,,,6,06,2,2,,,,,,,,,,,,2,0,2,0,1,,,,,,,,,,,,,,3,0,3,0,1,8,15
5ef4d8b87faaa00c0dea0c4e,TCN,2024-06-11_10h09.40.286,LearnStrategy,2023.2.3,MacIntel,59.88023952,,,,,,,,,,,4,13,2,3,,,,,,,,,,,,2,0,2,0,1,,,,,,,,,,,,,,3,0,3,0,1,8,15
5ef4d8b87faaa00c0dea0c4e,TCN,2024-06-11_10h09.40.286,LearnStrategy,2023.2.3,MacIntel,59.88023952,,,,,,,,,,,8,05,2,4,,,,,,,,,,,,2,0,2,0,1,,,,,,,,,,,,,,3,0,3,0,1,8,15
5ef4d8b87faaa00c0dea0c4e,TCN,2024-06-11_10h09.40.286,LearnStrategy,2023.2.3,MacIntel,59.88023952,,,,,,,,,,,6,11,2,5,,,,,,,,,,,,2,0,2,0,1,,,,,,,,,,,,,,3,0,3,0,1,8,15
5ef4d8b87faaa00c0dea0c4e,TCN,2024-06-11_10h09.40.286,LearnStrategy,2023.2.3,MacIntel,59.88023952,,,,,,,,,,,8,10,2,6,,,,,,,,,,,,2,0,2,0,1,,,,,,,,,,,,,,3,0,3,0,1,8,15
5ef4d8b87faaa00c0dea0c4e,TCN,2024-06-11_10h09.40.286,LearnStrategy,2023.2.3,MacIntel,59.88023952,,,,,,,,,,,2,08,2,7,,,,,,,,,,,,2,0,2,0,1,,,,,,,,,,,,,,3,0,3,0,1,8,15
5ef4d8b87faaa00c0dea0c4e,TCN,2024-06-11_10h09.40.286,LearnStrategy,2023.2.3,MacIntel,59.88023952,,,,,,,,,,,1,16,2,8,,,,,,,,,,,,2,0,2,0,1,,,,,,,,,,,,,,3,0,3,0,1,8,15
5ef4d8b87faaa00c0dea0c4e,TCN,2024-06-11_10h09.40.286,LearnStrategy,2023.2.3,MacIntel,59.88023952,,,,,,,,,,,4,08,3,1,,,,,,,,,,,,2,0,2,0,1,,,,,,,,,,,,,,3,0,3,0,1,8,15
5ef4d8b87faaa00c0dea0c4e,TCN,2024-06-11_10h09.40.286,LearnStrategy,2023.2.3,MacIntel,59.88023952,,,,,,,,,,,3,07,3,2,,,,,,,,,,,,2,0,2,0,1,,,,,,,,,,,,,,3,0,3,0,1,8,15
5ef4d8b87faaa00c0dea0c4e,TCN,2024-06-11_10h09.40.286,LearnStrategy,2023.2.3,MacIntel,59.88023952,,,,,,,,,,,5,06,3,3,,,,,,,,,,,,2,0,2,0,1,,,,,,,,,,,,,,3,0,3,0,1,8,15
5ef4d8b87faaa00c0dea0c4e,TCN,2024-06-11_10h09.40.286,LearnStrategy,2023.2.3,MacIntel,59.88023952,,,,,,,,,,,1,11,3,4,,,,,,,,,,,,2,0,2,0,1,,,,,,,,,,,,,,3,0,3,0,1,8,15
5ef4d8b87faaa00c0dea0c4e,TCN,2024-06-11_10h09.40.286,LearnStrategy,2023.2.3,MacIntel,59.88023952,,,,,,,,,,,8,13,3,5,,,,,,,,,,,,2,0,2,0,1,,,,,,,,,,,,,,3,0,3,0,1,8,15
5ef4d8b87faaa00c0dea0c4e,TCN,2024-06-11_10h09.40.286,LearnStrategy,2023.2.3,MacIntel,59.88023952,,,,,,,,,,,7,04,3,6,,,,,,,,,,,,2,0,2,0,1,,,,,,,,,,,,,,3,0,3,0,1,8,15
5ef4d8b87faaa00c0dea0c4e,TCN,2024-06-11_10h09.40.286,LearnStrategy,2023.2.3,MacIntel,59.88023952,,,,,,,,,,,1,10,3,7,,,,,,,,,,,,2,0,2,0,1,,,,,,,,,,,,,,3,0,3,0,1,8,15
5ef4d8b87faaa00c0dea0c4e,TCN,2024-06-11_10h09.40.286,LearnStrategy,2023.2.3,MacIntel,59.88023952,,,,,,,,,,,2,10,3,8,,,,,,,,,,,,2,0,2,0,1,,,,,,,,,,,,,,3,0,3,0,1,8,15
5ef4d8b87faaa00c0dea0c4e,TCN,2024-06-11_10h09.40.286,LearnStrategy,2023.2.3,MacIntel,59.88023952,,,,,,,,,,,6,13,4,1,,,,,,,,,,,,2,0,2,0,1,,,,,,,,,,,,,,3,0,3,0,1,8,15
5ef4d8b87faaa00c0dea0c4e,TCN,2024-06-11_10h09.40.286,LearnStrategy,2023.2.3,MacIntel,59.88023952,,,,,,,,,,,6,09,4,2,,,,,,,,,,,,2,0,2,0,1,,,,,,,,,,,,,,3,0,3,0,1,8,15
5ef4d8b87faaa00c0dea0c4e,TCN,2024-06-11_10h09.40.286,LearnStrategy,2023.2.3,MacIntel,59.88023952,,,,,,,,,,,5,14,4,3,,,,,,,,,,,,2,0,2,0,1,,,,,,,,,,,,,,3,0,3,0,1,8,15
5ef4d8b87faaa00c0dea0c4e,TCN,2024-06-11_10h09.40.286,LearnStrategy,2023.2.3,MacIntel,59.88023952,,,,,,,,,,,2,02,4,4,,,,,,,,,,,,2,0,2,0,1,,,,,,,,,,,,,,3,0,3,0,1,8,15
5ef4d8b87faaa00c0dea0c4e,TCN,2024-06-11_10h09.40.286,LearnStrategy,2023.2.3,MacIntel,59.88023952,,,,,,,,,,,5,02,4,5,,,,,,,,,,,,2,0,2,0,1,,,,,,,,,,,,,,3,0,3,0,1,8,15
5ef4d8b87faaa00c0dea0c4e,TCN,2024-06-11_10h09.40.286,LearnStrategy,2023.2.3,MacIntel,59.88023952,,,,,,,,,,,7,08,4,6,,,,,,,,,,,,2,0,2,0,1,,,,,,,,,,,,,,3,0,3,0,1,8,15
5ef4d8b87faaa00c0dea0c4e,TCN,2024-06-11_10h09.40.286,LearnStrategy,2023.2.3,MacIntel,59.88023952,,,,,,,,,,,2,05,4,7,,,,,,,,,,,,2,0,2,0,1,,,,,,,,,,,,,,3,0,3,0,1,8,15
5ef4d8b87faaa00c0dea0c4e,TCN,2024-06-11_10h09.40.286,LearnStrategy,2023.2.3,MacIntel,59.88023952,,,,,,,,,,,1,06,4,8,,,,,,,,,,,,2,0,2,0,1,,,,,,,,,,,,,,3,0,3,0,1,8,15
5ef4d8b87faaa00c0dea0c4e,TCN,2024-06-11_10h09.40.286,LearnStrategy,2023.2.3,MacIntel,59.88023952,,,,,,,,,,,8,15,5,1,,,,,,,,,,,,2,0,2,0,1,,,,,,,,,,,,,,3,0,3,0,1,8,15
5ef4d8b87faaa00c0dea0c4e,TCN,2024-06-11_10h09.40.286,LearnStrategy,2023.2.3,MacIntel,59.88023952,,,,,,,,,,,1,02,5,2,,,,,,,,,,,,2,0,2,0,1,,,,,,,,,,,,,,3,0,3,0,1,8,15
5ef4d8b87faaa00c0dea0c4e,TCN,2024-06-11_10h09.40.286,LearnStrategy,2023.2.3,MacIntel,59.88023952,,,,,,,,,,,6,08,5,3,,,,,,,,,,,,2,0,2,0,1,,,,,,,,,,,,,,3,0,3,0,1,8,15
5ef4d8b87faaa00c0dea0c4e,TCN,2024-06-11_10h09.40.286,LearnStrategy,2023.2.3,MacIntel,59.88023952,,,,,,,,,,,8,02,5,4,,,,,,,,,,,,2,0,2,0,1,,,,,,,,,,,,,,3,0,3,0,1,8,15
5ef4d8b87faaa00c0dea0c4e,TCN,2024-06-11_10h09.40.286,LearnStrategy,2023.2.3,MacIntel,59.88023952,,,,,,,,,,,4,16,5,5,,,,,,,,,,,,2,0,2,0,1,,,,,,,,,,,,,,3,0,3,0,1,8,15
5ef4d8b87faaa00c0dea0c4e,TCN,2024-06-11_10h09.40.286,LearnStrategy,2023.2.3,MacIntel,59.88023952,,,,,,,,,,,5,04,5,6,,,,,,,,,,,,2,0,2,0,1,,,,,,,,,,,,,,3,0,3,0,1,8,15
5ef4d8b87faaa00c0dea0c4e,TCN,2024-06-11_10h09.40.286,LearnStrategy,2023.2.3,MacIntel,59.88023952,,,,,,,,,,,6,16,5,7,,,,,,,,,,,,2,0,2,0,1,,,,,,,,,,,,,,3,0,3,0,1,8,15
5ef4d8b87faaa00c0dea0c4e,TCN,2024-06-11_10h09.40.286,LearnStrategy,2023.2.3,MacIntel,59.88023952,,,,,,,,,,,4,15,5,8,,,,,,,,,,,,2,0,2,0,1,,,,,,,,,,,,,,3,0,3,0,1,8,15
5ef4d8b87faaa00c0dea0c4e,TCN,2024-06-11_10h09.40.286,LearnStrategy,2023.2.3,MacIntel,59.88023952,,,,,,,,,,,2,12,6,1,,,,,,,,,,,,2,0,2,0,1,,,,,,,,,,,,,,3,0,3,0,1,8,15
5ef4d8b87faaa00c0dea0c4e,TCN,2024-06-11_10h09.40.286,LearnStrategy,2023.2.3,MacIntel,59.88023952,,,,,,,,,,,3,16,6,2,,,,,,,,,,,,2,0,2,0,1,,,,,,,,,,,,,,3,0,3,0,1,8,15
5ef4d8b87faaa00c0dea0c4e,TCN,2024-06-11_10h09.40.286,LearnStrategy,2023.2.3,MacIntel,59.88023952,,,,,,,,,,,2,14,6,3,,,,,,,,,,,,2,0,2,0,1,,,,,,,,,,,,,,3,0,3,0,1,8,15
5ef4d8b87faaa00c0dea0c4e,TCN,2024-06-11_10h09.40.286,LearnStrategy,2023.2.3,MacIntel,59.88023952,,,,,,,,,,,1,04,6,4,,,,,,,,,,,,2,0,2,0,1,,,,,,,,,,,,,,3,0,3,0,1,8,15
5ef4d8b87faaa00c0dea0c4e,TCN,2024-06-11_10h09.40.286,LearnStrategy,2023.2.3,MacIntel,59.88023952,,,,,,,,,,,4,05,6,5,,,,,,,,,,,,2,0,2,0,1,,,,,,,,,,,,,,3,0,3,0,1,8,15
5ef4d8b87faaa00c0dea0c4e,TCN,2024-06-11_10h09.40.286,LearnStrategy,2023.2.3,MacIntel,59.88023952,,,,,,,,,,,7,13,6,6,,,,,,,,,,,,2,0,2,0,1,,,,,,,,,,,,,,3,0,3,0,1,8,15
5ef4d8b87faaa00c0dea0c4e,TCN,2024-06-11_10h09.40.286,LearnStrategy,2023.2.3,MacIntel,59.88023952,,,,,,,,,,,7,14,6,7,,,,,,,,,,,,2,0,2,0,1,,,,,,,,,,,,,,3,0,3,0,1,8,15
5ef4d8b87faaa00c0dea0c4e,TCN,2024-06-11_10h09.40.286,LearnStrategy,2023.2.3,MacIntel,59.88023952,,,,,,,,,,,7,05,6,8,,,,,,,,,,,,2,0,2,0,1,,,,,,,,,,,,,,3,0,3,0,1,8,15