participant,condition,date,expName,psychopyVersion,OS,frameRate,block,phase,trial,learn_mouse_2.x,learn_mouse_2.y,learn_mouse_2.leftButton,learn_mouse_2.midButton,learn_mouse_2.rightButton,learn_mouse_2.time,learn_mouse_2.clicked_name,cat,token,row,col,t_select,cat_mouse_l.x,cat_mouse_l.y,cat_mouse_l.leftButton,cat_mouse_l.midButton,cat_mouse_l.rightButton,cat_mouse_l.time,cat_mouse_l.clicked_name,resp,t_resp,corr,train_trials.thisRepN,train_trials.thisTrialN,train_trials.thisN,train_trials.thisIndex,train_trials.ran,cat_mouse_t.x,cat_mouse_t.y,cat_mouse_t.leftButton,cat_mouse_t.midButton,cat_mouse_t.rightButton,cat_mouse_t.time,cat_mouse_t.clicked_name,test_trials.thisRepN,test_trials.thisTrialN,test_trials.thisN,test_trials.thisIndex,test_trials.ran,Bonus
5f5834134283933a1c3b42d0,TCN,2024-06-11_13h10.38.305,LearnStrategy,2023.2.3,Win32,143.6781609,,,,,,,,,,,,,,,,,,,,,,,,,,,,,,,,,,,,,,,,,,,
5f5834134283933a1c3b42d0,TCN,2024-06-11_13h10.38.305,LearnStrategy,2023.2.3,Win32,143.6781609,1,1,1,0.061979167,0.011197917,1,0,0,1.489,rock_grid_rect_2,4,09,-1,-1,1.489,-0.38671875,-0.259114583,1,0,0,7.007,Andesite_rect,1,7.007,0,0,0,0,0,1,,,,,,,,,,,,,
5f5834134283933a1c3b42d0,TCN,2024-06-11_13h10.38.305,LearnStrategy,2023.2.3,Win32,143.6781609,1,1,2,-0.05625,-0.007552083,1,0,0,1.194,rock_grid_rect_2,1,09,-1,-1,1.194,-0.0625,-0.241666667,1,0,0,4.52,Basalt_rect,2,4.52,0,1,0,1,0,1,,,,,,,,,,,,,
5f5834134283933a1c3b42d0,TCN,2024-06-11_13h10.38.305,LearnStrategy,2023.2.3,Win32,143.6781609,1,1,3,-0.009635417,-0.011197917,1,0,0,0.973,rock_grid_rect_2,3,07,-1,-1,0.973,-0.0984375,-0.2625,1,0,0,5.506,Basalt_rect,2,5.506,0,2,0,2,0,1,,,,,,,,,,,,,
5f5834134283933a1c3b42d0,TCN,2024-06-11_13h10.38.305,LearnStrategy,2023.2.3,Win32,143.6781609,1,1,4,-0.025520833,0.004947917,1,0,0,1.292,rock_grid_rect_2,7,04,-1,-1,1.292,0.075,-0.404166667,1,0,0,9.231,Peridotite_rect,7,9.231,1,3,0,3,0,1,,,,,,,,,,,,,
5f5834134283933a1c3b42d0,TCN,2024-06-11_13h10.38.305,LearnStrategy,2023.2.3,Win32,143.6781609,1,1,5,-0.015885417,-0.002864583,1,0,0,1.029,rock_grid_rect_2,4,14,-1,-1,1.029,-0.172916667,-0.411197917,1,0,0,7.004,Pegmatite_rect,6,7.004,0,4,0,4,0,1,,,,,,,,,,,,,
5f5834134283933a1c3b42d0,TCN,2024-06-11_13h10.38.305,LearnStrategy,2023.2.3,Win32,143.6781609,1,1,6,0,-0.00703125,1,0,0,1.198,rock_grid_rect_2,5,05,-1,-1,1.198,-0.485416667,-0.40703125,1,0,0,2.904,Obsidian_rect,5,2.904,1,5,0,5,0,1,,,,,,,,,,,,,
5f5834134283933a1c3b42d0,TCN,2024-06-11_13h10.38.305,LearnStrategy,2023.2.3,Win32,143.6781609,1,1,7,-0.038802083,0.004947917,1,0,0,1.045,rock_grid_rect_2,1,05,-1,-1,1.045,-0.126302083,-0.258333333,1,0,0,8.167,Basalt_rect,2,8.167,0,6,0,6,0,1,,,,,,,,,,,,,
5f5834134283933a1c3b42d0,TCN,2024-06-11_13h10.38.305,LearnStrategy,2023.2.3,Win32,143.6781609,1,1,8,0.0078125,-0.004166667,1,0,0,1.039,rock_grid_rect_2,5,14,-1,-1,1.039,-0.383854167,-0.410416667,1,0,0,1.577,Obsidian_rect,5,1.577,1,7,0,7,0,1,,,,,,,,,,,,,
5f5834134283933a1c3b42d0,TCN,2024-06-11_13h10.38.305,LearnStrategy,2023.2.3,Win32,143.6781609,1,1,9,-0.00625,-0.00546875,1,0,0,0.94,rock_grid_rect_2,2,14,-1,-1,0.94,0.35078125,-0.409635417,1,0,0,2.862,Pumice_rect,8,2.862,0,8,0,8,0,1,,,,,,,,,,,,,
5f5834134283933a1c3b42d0,TCN,2024-06-11_13h10.38.305,LearnStrategy,2023.2.3,Win32,143.6781609,1,1,10,0.046614583,-0.0125,1,0,0,1.102,rock_grid_rect_2,6,07,-1,-1,1.102,-0.0984375,-0.40625,1,0,0,6.426,Pegmatite_rect,6,6.426,1,9,0,9,0,1,,,,,,,,,,,,,
5f5834134283933a1c3b42d0,TCN,2024-06-11_13h10.38.305,LearnStrategy,2023.2.3,Win32,143.6781609,1,1,11,0.0375,0.003385417,1,0,0,1.188,rock_grid_rect_2,6,13,-1,-1,1.188,-0.1484375,-0.41328125,1,0,0,11.487,Pegmatite_rect,6,11.487,1,10,0,10,0,1,,,,,,,,,,,,,
5f5834134283933a1c3b42d0,TCN,2024-06-11_13h10.38.305,LearnStrategy,2023.2.3,Win32,143.6781609,1,1,12,0.036979167,-0.00703125,1,0,0,0.909,rock_grid_rect_2,3,13,-1,-1,0.909,-0.090104167,-0.247135417,1,0,0,2.27,Basalt_rect,2,2.27,0,11,0,11,0,1,,,,,,,,,,,,,
5f5834134283933a1c3b42d0,TCN,2024-06-11_13h10.38.305,LearnStrategy,2023.2.3,Win32,143.6781609,1,1,13,0.028645833,-0.016666667,1,0,0,1.191,rock_grid_rect_2,8,08,-1,-1,1.191,0.4078125,-0.4125,1,0,0,1.34,Pumice_rect,8,1.34,1,12,0,12,0,1,,,,,,,,,,,,,
5f5834134283933a1c3b42d0,TCN,2024-06-11_13h10.38.305,LearnStrategy,2023.2.3,Win32,143.6781609,1,1,14,-0.031770833,0.002864583,1,0,0,0.969,rock_grid_rect_2,7,13,-1,-1,0.969,-0.127604167,-0.404947917,1,0,0,3.637,Pegmatite_rect,6,3.637,0,13,0,13,0,1,,,,,,,,,,,,,
5f5834134283933a1c3b42d0,TCN,2024-06-11_13h10.38.305,LearnStrategy,2023.2.3,Win32,143.6781609,1,1,15,0.074479167,-0.023697917,1,0,0,3.108,rock_grid_rect_2,8,06,-1,-1,3.108,0.461197917,-0.408333333,1,0,0,1.712,Pumice_rect,8,1.712,1,14,0,14,0,1,,,,,,,,,,,,,
5f5834134283933a1c3b42d0,TCN,2024-06-11_13h10.38.305,LearnStrategy,2023.2.3,Win32,143.6781609,1,1,16,0.002083333,-0.0125,1,0,0,0.919,rock_grid_rect_2,2,05,-1,-1,0.919,0.380729167,-0.24375,1,0,0,3.455,Gabbro_rect,4,3.455,0,15,0,15,0,1,,,,,,,,,,,,,
5f5834134283933a1c3b42d0,TCN,2024-06-11_13h10.38.305,LearnStrategy,2023.2.3,Win32,143.6781609,1,2,1,,,,,,,,3,10,,,,,,,,,,,3,2.298,1,,,,,,0.180729167,-0.252864583,1,0,0,2.298,Diorite_rect,0,0,0,0,1,
5f5834134283933a1c3b42d0,TCN,2024-06-11_13h10.38.305,LearnStrategy,2023.2.3,Win32,143.6781609,1,2,2,,,,,,,,4,16,,,,,,,,,,,4,2.251,1,,,,,,0.3515625,-0.246614583,1,0,0,2.251,Gabbro_rect,1,0,1,0,1,
5f5834134283933a1c3b42d0,TCN,2024-06-11_13h10.38.305,LearnStrategy,2023.2.3,Win32,143.6781609,1,2,3,,,,,,,,2,16,,,,,,,,,,,2,2.564,1,,,,,,-0.084635417,-0.26171875,1,0,0,2.564,Basalt_rect,2,0,2,0,1,
5f5834134283933a1c3b42d0,TCN,2024-06-11_13h10.38.305,LearnStrategy,2023.2.3,Win32,143.6781609,1,2,4,,,,,,,,1,04,,,,,,,,,,,2,13.535,0,,,,,,-0.0875,-0.265364583,1,0,0,13.535,Basalt_rect,3,0,3,0,1,
5f5834134283933a1c3b42d0,TCN,2024-06-11_13h10.38.305,LearnStrategy,2023.2.3,Win32,143.6781609,1,2,5,,,,,,,,6,15,,,,,,,,,,,6,3.787,1,,,,,,-0.1,-0.41875,1,0,0,3.787,Pegmatite_rect,4,0,4,0,1,
5f5834134283933a1c3b42d0,TCN,2024-06-11_13h10.38.305,LearnStrategy,2023.2.3,Win32,143.6781609,1,2,6,,,,,,,,3,08,,,,,,,,,,,3,1.866,1,,,,,,0.189583333,-0.261197917,1,0,0,1.866,Diorite_rect,5,0,5,0,1,
5f5834134283933a1c3b42d0,TCN,2024-06-11_13h10.38.305,LearnStrategy,2023.2.3,Win32,143.6781609,1,2,7,,,,,,,,1,14,,,,,,,,,,,3,4.517,0,,,,,,0.1265625,-0.26171875,1,0,0,4.517,Diorite_rect,6,0,6,0,1,
5f5834134283933a1c3b42d0,TCN,2024-06-11_13h10.38.305,LearnStrategy,2023.2.3,Win32,143.6781609,1,2,8,,,,,,,,7,02,,,,,,,,,,,7,1.407,1,,,,,,0.077864583,-0.398697917,1,0,0,1.407,Peridotite_rect,7,0,7,0,1,
5f5834134283933a1c3b42d0,TCN,2024-06-11_13h10.38.305,LearnStrategy,2023.2.3,Win32,143.6781609,1,2,9,,,,,,,,6,10,,,,,,,,,,,6,2.92,1,,,,,,-0.090885417,-0.398697917,1,0,0,2.92,Pegmatite_rect,8,0,8,0,1,
5f5834134283933a1c3b42d0,TCN,2024-06-11_13h10.38.305,LearnStrategy,2023.2.3,Win32,143.6781609,1,2,10,,,,,,,,8,05,,,,,,,,,,,8,1.211,1,,,,,,0.3375,-0.397135417,1,0,0,1.211,Pumice_rect,9,0,9,0,1,
5f5834134283933a1c3b42d0,TCN,2024-06-11_13h10.38.305,LearnStrategy,2023.2.3,Win32,143.6781609,1,2,11,,,,,,,,8,16,,,,,,,,,,,2,4.169,0,,,,,,-0.11171875,-0.247916667,1,0,0,4.169,Basalt_rect,10,0,10,0,1,
5f5834134283933a1c3b42d0,TCN,2024-06-11_13h10.38.305,LearnStrategy,2023.2.3,Win32,143.6781609,1,2,12,,,,,,,,5,07,,,,,,,,,,,5,1.869,1,,,,,,-0.404166667,-0.402083333,1,0,0,1.869,Obsidian_rect,11,0,11,0,1,
5f5834134283933a1c3b42d0,TCN,2024-06-11_13h10.38.305,LearnStrategy,2023.2.3,Win32,143.6781609,1,2,13,,,,,,,,5,02,,,,,,,,,,,5,1.37,1,,,,,,-0.402083333,-0.39375,1,0,0,1.37,Obsidian_rect,12,0,12,0,1,
5f5834134283933a1c3b42d0,TCN,2024-06-11_13h10.38.305,LearnStrategy,2023.2.3,Win32,143.6781609,1,2,14,,,,,,,,4,15,,,,,,,,,,,3,2.753,0,,,,,,0.196614583,-0.257552083,1,0,0,2.753,Diorite_rect,13,0,13,0,1,
5f5834134283933a1c3b42d0,TCN,2024-06-11_13h10.38.305,LearnStrategy,2023.2.3,Win32,143.6781609,1,2,15,,,,,,,,7,06,,,,,,,,,,,7,1.645,1,,,,,,0.08125,-0.389583333,1,0,0,1.645,Peridotite_rect,14,0,14,0,1,
5f5834134283933a1c3b42d0,TCN,2024-06-11_13h10.38.305,LearnStrategy,2023.2.3,Win32,143.6781609,1,2,16,,,,,,,,2,12,,,,,,,,,,,8,2.616,0,,,,,,0.391666667,-0.417447917,1,0,0,2.616,Pumice_rect,15,0,15,0,1,
5f5834134283933a1c3b42d0,TCN,2024-06-11_13h10.38.305,LearnStrategy,2023.2.3,Win32,143.6781609,2,1,1,0.016145833,0.004166667,1,0,0,1.514,rock_grid_rect_2,8,10,-1,-1,1.514,0.341145833,-0.40078125,1,0,0,2.185,Pumice_rect,8,2.185,1,0,0,0,0,1,,,,,,,,,,,,,
5f5834134283933a1c3b42d0,TCN,2024-06-11_13h10.38.305,LearnStrategy,2023.2.3,Win32,143.6781609,2,1,2,0.00078125,-0.00703125,1,0,0,1.029,rock_grid_rect_2,6,16,-1,-1,1.029,0.336979167,-0.25625,1,0,0,6.978,Gabbro_rect,4,6.978,0,1,0,1,0,1,,,,,,,,,,,,,
5f5834134283933a1c3b42d0,TCN,2024-06-11_13h10.38.305,LearnStrategy,2023.2.3,Win32,143.6781609,2,1,3,-0.0375,-0.009114583,1,0,0,0.805,rock_grid_rect_2,7,05,-1,-1,0.805,0.091666667,-0.3875,1,0,0,3.336,Peridotite_rect,7,3.336,1,2,0,2,0,1,,,,,,,,,,,,,
5f5834134283933a1c3b42d0,TCN,2024-06-11_13h10.38.305,LearnStrategy,2023.2.3,Win32,143.6781609,2,1,4,-0.04921875,0.011197917,1,0,0,0.803,rock_grid_rect_2,5,04,-1,-1,0.803,-0.44921875,-0.407552083,1,0,0,1.186,Obsidian_rect,5,1.186,1,3,0,3,0,1,,,,,,,,,,,,,
5f5834134283933a1c3b42d0,TCN,2024-06-11_13h10.38.305,LearnStrategy,2023.2.3,Win32,143.6781609,2,1,5,-0.07421875,0.022916667,1,0,0,0.854,rock_grid_rect_2,1,16,-1,-1,0.854,0.443229167,-0.247135417,1,0,0,4.63,Gabbro_rect,4,4.63,0,4,0,4,0,1,,,,,,,,,,,,,
5f5834134283933a1c3b42d0,TCN,2024-06-11_13h10.38.305,LearnStrategy,2023.2.3,Win32,143.6781609,2,1,6,0.00078125,-0.011197917,1,0,0,1.042,rock_grid_rect_2,2,08,-1,-1,1.042,0.354947917,-0.247916667,1,0,0,3.389,Gabbro_rect,4,3.389,0,5,0,5,0,1,,,,,,,,,,,,,
5f5834134283933a1c3b42d0,TCN,2024-06-11_13h10.38.305,LearnStrategy,2023.2.3,Win32,143.6781609,2,1,7,-0.010416667,-0.00546875,1,0,0,1.027,rock_grid_rect_2,8,02,-1,-1,1.027,0.4140625,-0.420833333,1,0,0,1.177,Pumice_rect,8,1.177,1,6,0,6,0,1,,,,,,,,,,,,,
5f5834134283933a1c3b42d0,TCN,2024-06-11_13h10.38.305,LearnStrategy,2023.2.3,Win32,143.6781609,2,1,8,-0.060416667,0,1,0,0,0.861,rock_grid_rect_2,4,05,-1,-1,0.861,-0.4,-0.26328125,1,0,0,1.588,Andesite_rect,1,1.588,0,7,0,7,0,1,,,,,,,,,,,,,
5f5834134283933a1c3b42d0,TCN,2024-06-11_13h10.38.305,LearnStrategy,2023.2.3,Win32,143.6781609,2,1,9,0.073697917,-0.00625,1,0,0,1.502,rock_grid_rect_2,6,09,-1,-1,1.502,0.0828125,-0.417447917,1,0,0,3.259,Peridotite_rect,7,3.259,0,8,0,8,0,1,,,,,,,,,,,,,
5f5834134283933a1c3b42d0,TCN,2024-06-11_13h10.38.305,LearnStrategy,2023.2.3,Win32,143.6781609,2,1,10,-0.009635417,-0.020833333,1,0,0,0.808,rock_grid_rect_2,1,10,-1,-1,0.808,-0.181770833,-0.24921875,1,0,0,2.217,Basalt_rect,2,2.217,0,9,0,9,0,1,,,,,,,,,,,,,
5f5834134283933a1c3b42d0,TCN,2024-06-11_13h10.38.305,LearnStrategy,2023.2.3,Win32,143.6781609,2,1,11,-0.060416667,0,1,0,0,0.778,rock_grid_rect_2,3,02,-1,-1,0.778,0.154166667,-0.248697917,1,0,0,1.258,Diorite_rect,3,1.258,1,10,0,10,0,1,,,,,,,,,,,,,
5f5834134283933a1c3b42d0,TCN,2024-06-11_13h10.38.305,LearnStrategy,2023.2.3,Win32,143.6781609,2,1,12,-0.000520833,0.00703125,1,0,0,0.768,rock_grid_rect_2,3,12,-1,-1,0.768,0.097916667,-0.23671875,1,0,0,1.163,Diorite_rect,3,1.163,1,11,0,11,0,1,,,,,,,,,,,,,
5f5834134283933a1c3b42d0,TCN,2024-06-11_13h10.38.305,LearnStrategy,2023.2.3,Win32,143.6781609,2,1,13,-0.004166667,-0.008333333,1,0,0,0.864,rock_grid_rect_2,5,16,-1,-1,0.864,-0.360416667,-0.420833333,1,0,0,1.005,Obsidian_rect,5,1.005,1,12,0,12,0,1,,,,,,,,,,,,,
5f5834134283933a1c3b42d0,TCN,2024-06-11_13h10.38.305,LearnStrategy,2023.2.3,Win32,143.6781609,2,1,14,-0.0375,0.015364583,1,0,0,0.911,rock_grid_rect_2,4,10,-1,-1,0.911,-0.360416667,-0.254166667,1,0,0,1.837,Andesite_rect,1,1.837,0,13,0,13,0,1,,,,,,,,,,,,,
5f5834134283933a1c3b42d0,TCN,2024-06-11_13h10.38.305,LearnStrategy,2023.2.3,Win32,143.6781609,2,1,15,-0.016666667,-0.00625,1,0,0,0.916,rock_grid_rect_2,7,07,-1,-1,0.916,0.104166667,-0.414583333,1,0,0,2.287,Peridotite_rect,7,2.287,1,14,0,14,0,1,,,,,,,,,,,,,
5f5834134283933a1c3b42d0,TCN,2024-06-11_13h10.38.305,LearnStrategy,2023.2.3,Win32,143.6781609,2,1,16,0.00078125,-0.020833333,1,0,0,0.761,rock_grid_rect_2,2,11,-1,-1,0.761,0.385416667,-0.41875,1,0,0,2.238,Pumice_rect,8,2.238,0,15,0,15,0,1,,,,,,,,,,,,,
5f5834134283933a1c3b42d0,TCN,2024-06-11_13h10.38.305,LearnStrategy,2023.2.3,Win32,143.6781609,2,2,1,,,,,,,,1,07,,,,,,,,,,,1,3.846,1,,,,,,-0.381770833,-0.267447917,1,0,0,3.846,Andesite_rect,0,0,0,0,1,
5f5834134283933a1c3b42d0,TCN,2024-06-11_13h10.38.305,LearnStrategy,2023.2.3,Win32,143.6781609,2,2,2,,,,,,,,5,09,,,,,,,,,,,5,1.299,1,,,,,,-0.360416667,-0.390885417,1,0,0,1.299,Obsidian_rect,1,0,1,0,1,
5f5834134283933a1c3b42d0,TCN,2024-06-11_13h10.38.305,LearnStrategy,2023.2.3,Win32,143.6781609,2,2,3,,,,,,,,8,09,,,,,,,,,,,8,1.446,1,,,,,,0.380729167,-0.392447917,1,0,0,1.446,Pumice_rect,2,0,2,0,1,
5f5834134283933a1c3b42d0,TCN,2024-06-11_13h10.38.305,LearnStrategy,2023.2.3,Win32,143.6781609,2,2,4,,,,,,,,6,06,,,,,,,,,,,6,2.756,1,,,,,,-0.107552083,-0.38671875,1,0,0,2.756,Pegmatite_rect,3,0,3,0,1,
5f5834134283933a1c3b42d0,TCN,2024-06-11_13h10.38.305,LearnStrategy,2023.2.3,Win32,143.6781609,2,2,5,,,,,,,,4,08,,,,,,,,,,,4,5.802,1,,,,,,0.410416667,-0.247135417,1,0,0,5.802,Gabbro_rect,4,0,4,0,1,
5f5834134283933a1c3b42d0,TCN,2024-06-11_13h10.38.305,LearnStrategy,2023.2.3,Win32,143.6781609,2,2,6,,,,,,,,2,10,,,,,,,,,,,5,1.754,0,,,,,,-0.358854167,-0.398697917,1,0,0,1.754,Obsidian_rect,5,0,5,0,1,
5f5834134283933a1c3b42d0,TCN,2024-06-11_13h10.38.305,LearnStrategy,2023.2.3,Win32,143.6781609,2,2,7,,,,,,,,4,01,,,,,,,,,,,7,5.982,0,,,,,,0.047916667,-0.409114583,1,0,0,5.982,Peridotite_rect,6,0,6,0,1,
5f5834134283933a1c3b42d0,TCN,2024-06-11_13h10.38.305,LearnStrategy,2023.2.3,Win32,143.6781609,2,2,8,,,,,,,,7,15,,,,,,,,,,,7,2.723,1,,,,,,0.061197917,-0.403385417,1,0,0,2.723,Peridotite_rect,7,0,7,0,1,
5f5834134283933a1c3b42d0,TCN,2024-06-11_13h10.38.305,LearnStrategy,2023.2.3,Win32,143.6781609,2,2,9,,,,,,,,2,06,,,,,,,,,,,5,1.082,0,,,,,,-0.350520833,-0.396614583,1,0,0,1.082,Obsidian_rect,8,0,8,0,1,
5f5834134283933a1c3b42d0,TCN,2024-06-11_13h10.38.305,LearnStrategy,2023.2.3,Win32,143.6781609,2,2,10,,,,,,,,1,03,,,,,,,,,,,1,4.577,1,,,,,,-0.360416667,-0.242447917,1,0,0,4.577,Andesite_rect,9,0,9,0,1,
5f5834134283933a1c3b42d0,TCN,2024-06-11_13h10.38.305,LearnStrategy,2023.2.3,Win32,143.6781609,2,2,11,,,,,,,,8,15,,,,,,,,,,,8,1.3,1,,,,,,0.441145833,-0.415885417,1,0,0,1.3,Pumice_rect,10,0,10,0,1,
5f5834134283933a1c3b42d0,TCN,2024-06-11_13h10.38.305,LearnStrategy,2023.2.3,Win32,143.6781609,2,2,12,,,,,,,,3,16,,,,,,,,,,,3,1.252,1,,,,,,0.147916667,-0.245833333,1,0,0,1.252,Diorite_rect,11,0,11,0,1,
5f5834134283933a1c3b42d0,TCN,2024-06-11_13h10.38.305,LearnStrategy,2023.2.3,Win32,143.6781609,2,2,13,,,,,,,,6,05,,,,,,,,,,,6,2.509,1,,,,,,-0.096354167,-0.415364583,1,0,0,2.509,Pegmatite_rect,12,0,12,0,1,
5f5834134283933a1c3b42d0,TCN,2024-06-11_13h10.38.305,LearnStrategy,2023.2.3,Win32,143.6781609,2,2,14,,,,,,,,7,10,,,,,,,,,,,7,1.221,1,,,,,,0.122916667,-0.397135417,1,0,0,1.221,Peridotite_rect,13,0,13,0,1,
5f5834134283933a1c3b42d0,TCN,2024-06-11_13h10.38.305,LearnStrategy,2023.2.3,Win32,143.6781609,2,2,15,,,,,,,,3,11,,,,,,,,,,,3,2.152,1,,,,,,0.079947917,-0.2375,1,0,0,2.152,Diorite_rect,14,0,14,0,1,
5f5834134283933a1c3b42d0,TCN,2024-06-11_13h10.38.305,LearnStrategy,2023.2.3,Win32,143.6781609,2,2,16,,,,,,,,5,11,,,,,,,,,,,5,1.271,1,,,,,,-0.360416667,-0.404947917,1,0,0,1.271,Obsidian_rect,15,0,15,0,1,
5f5834134283933a1c3b42d0,TCN,2024-06-11_13h10.38.305,LearnStrategy,2023.2.3,Win32,143.6781609,3,1,1,0.016145833,-0.011197917,1,0,0,0.957,rock_grid_rect_2,7,08,-1,-1,0.957,0.105729167,-0.41953125,1,0,0,1.444,Peridotite_rect,7,1.444,1,0,0,0,0,1,,,,,,,,,,,,,
5f5834134283933a1c3b42d0,TCN,2024-06-11_13h10.38.305,LearnStrategy,2023.2.3,Win32,143.6781609,3,1,2,0.029947917,0.00703125,1,0,0,0.859,rock_grid_rect_2,3,15,-1,-1,0.859,0.115364583,-0.248697917,1,0,0,1.229,Diorite_rect,3,1.229,1,1,0,1,0,1,,,,,,,,,,,,,
5f5834134283933a1c3b42d0,TCN,2024-06-11_13h10.38.305,LearnStrategy,2023.2.3,Win32,143.6781609,3,1,3,0.020833333,-0.022916667,1,0,0,0.646,rock_grid_rect_2,2,09,-1,-1,0.646,-0.145052083,-0.247135417,1,0,0,4.446,Basalt_rect,2,4.446,1,2,0,2,0,1,,,,,,,,,,,,,
5f5834134283933a1c3b42d0,TCN,2024-06-11_13h10.38.305,LearnStrategy,2023.2.3,Win32,143.6781609,3,1,4,0.040364583,0.009635417,1,0,0,1.023,rock_grid_rect_2,6,03,-1,-1,1.023,-0.195833333,-0.4,1,0,0,1.65,Pegmatite_rect,6,1.65,1,3,0,3,0,1,,,,,,,,,,,,,
5f5834134283933a1c3b42d0,TCN,2024-06-11_13h10.38.305,LearnStrategy,2023.2.3,Win32,143.6781609,3,1,5,-0.009635417,0.007552083,1,0,0,1.076,rock_grid_rect_2,1,11,-1,-1,1.076,-0.375520833,-0.26796875,1,0,0,3.704,Andesite_rect,1,3.704,1,4,0,4,0,1,,,,,,,,,,,,,
5f5834134283933a1c3b42d0,TCN,2024-06-11_13h10.38.305,LearnStrategy,2023.2.3,Win32,143.6781609,3,1,6,-0.0125,0,1,0,0,0.805,rock_grid_rect_2,2,01,-1,-1,0.805,0.37578125,-0.24921875,1,0,0,2.035,Gabbro_rect,4,2.035,0,5,0,5,0,1,,,,,,,,,,,,,
5f5834134283933a1c3b42d0,TCN,2024-06-11_13h10.38.305,LearnStrategy,2023.2.3,Win32,143.6781609,3,1,7,-0.070833333,-0.00546875,1,0,0,0.861,rock_grid_rect_2,5,08,-1,-1,0.861,-0.39375,-0.397916667,1,0,0,1.075,Obsidian_rect,5,1.075,1,6,0,6,0,1,,,,,,,,,,,,,
5f5834134283933a1c3b42d0,TCN,2024-06-11_13h10.38.305,LearnStrategy,2023.2.3,Win32,143.6781609,3,1,8,-0.021354167,0.00078125,1,0,0,1.726,rock_grid_rect_2,6,08,-1,-1,1.726,-0.077604167,-0.417447917,1,0,0,1.193,Pegmatite_rect,6,1.193,1,7,0,7,0,1,,,,,,,,,,,,,
5f5834134283933a1c3b42d0,TCN,2024-06-11_13h10.38.305,LearnStrategy,2023.2.3,Win32,143.6781609,3,1,9,-0.013020833,0.013802083,1,0,0,0.71,rock_grid_rect_2,8,14,-1,-1,0.71,0.386979167,-0.40078125,1,0,0,1.099,Pumice_rect,8,1.099,1,8,0,8,0,1,,,,,,,,,,,,,
5f5834134283933a1c3b42d0,TCN,2024-06-11_13h10.38.305,LearnStrategy,2023.2.3,Win32,143.6781609,3,1,10,-0.006770833,-0.017447917,1,0,0,0.808,rock_grid_rect_2,8,13,-1,-1,0.808,0.423697917,-0.409635417,1,0,0,3.047,Pumice_rect,8,3.047,1,9,0,9,0,1,,,,,,,,,,,,,
5f5834134283933a1c3b42d0,TCN,2024-06-11_13h10.38.305,LearnStrategy,2023.2.3,Win32,143.6781609,3,1,11,-0.045833333,0.013802083,1,0,0,0.696,rock_grid_rect_2,3,09,-1,-1,0.696,0.134114583,-0.23671875,1,0,0,1.152,Diorite_rect,3,1.152,1,10,0,10,0,1,,,,,,,,,,,,,
5f5834134283933a1c3b42d0,TCN,2024-06-11_13h10.38.305,LearnStrategy,2023.2.3,Win32,143.6781609,3,1,12,-0.038802083,0.004947917,1,0,0,0.806,rock_grid_rect_2,4,11,-1,-1,0.806,0.422916667,-0.241666667,1,0,0,5.412,Gabbro_rect,4,5.412,1,11,0,11,0,1,,,,,,,,,,,,,
5f5834134283933a1c3b42d0,TCN,2024-06-11_13h10.38.305,LearnStrategy,2023.2.3,Win32,143.6781609,3,1,13,0.075,-0.003385417,1,0,0,1.177,rock_grid_rect_2,1,02,-1,-1,1.177,-0.364583333,-0.252864583,1,0,0,2.884,Andesite_rect,1,2.884,1,12,0,12,0,1,,,,,,,,,,,,,
5f5834134283933a1c3b42d0,TCN,2024-06-11_13h10.38.305,LearnStrategy,2023.2.3,Win32,143.6781609,3,1,14,0.070833333,-0.015364583,1,0,0,1.283,rock_grid_rect_2,4,12,-1,-1,1.283,0.441666667,-0.247135417,1,0,0,2.04,Gabbro_rect,4,2.04,1,13,0,13,0,1,,,,,,,,,,,,,
5f5834134283933a1c3b42d0,TCN,2024-06-11_13h10.38.305,LearnStrategy,2023.2.3,Win32,143.6781609,3,1,15,0.034895833,0.007552083,1,0,0,0.969,rock_grid_rect_2,5,10,-1,-1,0.969,-0.358854167,-0.415885417,1,0,0,1.475,Obsidian_rect,5,1.475,1,14,0,14,0,1,,,,,,,,,,,,,
5f5834134283933a1c3b42d0,TCN,2024-06-11_13h10.38.305,LearnStrategy,2023.2.3,Win32,143.6781609,3,1,16,0.083333333,-0.0125,1,0,0,1.199,rock_grid_rect_2,7,14,-1,-1,1.199,0.12578125,-0.41328125,1,0,0,1.618,Peridotite_rect,7,1.618,1,15,0,15,0,1,,,,,,,,,,,,,
5f5834134283933a1c3b42d0,TCN,2024-06-11_13h10.38.305,LearnStrategy,2023.2.3,Win32,143.6781609,3,2,1,,,,,,,,7,16,,,,,,,,,,,7,3.39,1,,,,,,0.092447917,-0.39296875,1,0,0,3.39,Peridotite_rect,0,0,0,0,1,
5f5834134283933a1c3b42d0,TCN,2024-06-11_13h10.38.305,LearnStrategy,2023.2.3,Win32,143.6781609,3,2,2,,,,,,,,8,03,,,,,,,,,,,8,1.396,1,,,,,,0.34453125,-0.397135417,1,0,0,1.396,Pumice_rect,1,0,1,0,1,
5f5834134283933a1c3b42d0,TCN,2024-06-11_13h10.38.305,LearnStrategy,2023.2.3,Win32,143.6781609,3,2,3,,,,,,,,2,04,,,,,,,,,,,4,3.149,0,,,,,,0.422916667,-0.23828125,1,0,0,3.149,Gabbro_rect,2,0,2,0,1,
5f5834134283933a1c3b42d0,TCN,2024-06-11_13h10.38.305,LearnStrategy,2023.2.3,Win32,143.6781609,3,2,4,,,,,,,,5,06,,,,,,,,,,,5,1.367,1,,,,,,-0.407552083,-0.401302083,1,0,0,1.367,Obsidian_rect,3,0,3,0,1,
5f5834134283933a1c3b42d0,TCN,2024-06-11_13h10.38.305,LearnStrategy,2023.2.3,Win32,143.6781609,3,2,5,,,,,,,,7,12,,,,,,,,,,,7,3.107,1,,,,,,0.074479167,-0.397916667,1,0,0,3.107,Peridotite_rect,4,0,4,0,1,
5f5834134283933a1c3b42d0,TCN,2024-06-11_13h10.38.305,LearnStrategy,2023.2.3,Win32,143.6781609,3,2,6,,,,,,,,1,06,,,,,,,,,,,1,3.026,1,,,,,,-0.397916667,-0.259635417,1,0,0,3.026,Andesite_rect,5,0,5,0,1,
5f5834134283933a1c3b42d0,TCN,2024-06-11_13h10.38.305,LearnStrategy,2023.2.3,Win32,143.6781609,3,2,7,,,,,,,,1,01,,,,,,,,,,,3,2.099,0,,,,,,0.078645833,-0.229166667,1,0,0,2.099,Diorite_rect,6,0,6,0,1,
5f5834134283933a1c3b42d0,TCN,2024-06-11_13h10.38.305,LearnStrategy,2023.2.3,Win32,143.6781609,3,2,8,,,,,,,,5,12,,,,,,,,,,,5,1.071,1,,,,,,-0.415885417,-0.397916667,1,0,0,1.071,Obsidian_rect,7,0,7,0,1,
5f5834134283933a1c3b42d0,TCN,2024-06-11_13h10.38.305,LearnStrategy,2023.2.3,Win32,143.6781609,3,2,9,,,,,,,,6,11,,,,,,,,,,,6,1.123,1,,,,,,-0.1359375,-0.409114583,1,0,0,1.123,Pegmatite_rect,8,0,8,0,1,
5f5834134283933a1c3b42d0,TCN,2024-06-11_13h10.38.305,LearnStrategy,2023.2.3,Win32,143.6781609,3,2,10,,,,,,,,4,03,,,,,,,,,,,1,6.238,0,,,,,,-0.445052083,-0.24921875,1,0,0,6.238,Andesite_rect,9,0,9,0,1,
5f5834134283933a1c3b42d0,TCN,2024-06-11_13h10.38.305,LearnStrategy,2023.2.3,Win32,143.6781609,3,2,11,,,,,,,,8,04,,,,,,,,,,,8,1.689,1,,,,,,0.349479167,-0.383333333,1,0,0,1.689,Pumice_rect,10,0,10,0,1,
5f5834134283933a1c3b42d0,TCN,2024-06-11_13h10.38.305,LearnStrategy,2023.2.3,Win32,143.6781609,3,2,12,,,,,,,,2,02,,,,,,,,,,,2,1.59,1,,,,,,-0.1234375,-0.259114583,1,0,0,1.59,Basalt_rect,11,0,11,0,1,
5f5834134283933a1c3b42d0,TCN,2024-06-11_13h10.38.305,LearnStrategy,2023.2.3,Win32,143.6781609,3,2,13,,,,,,,,3,14,,,,,,,,,,,3,1.207,1,,,,,,0.1515625,-0.26328125,1,0,0,1.207,Diorite_rect,12,0,12,0,1,
5f5834134283933a1c3b42d0,TCN,2024-06-11_13h10.38.305,LearnStrategy,2023.2.3,Win32,143.6781609,3,2,14,,,,,,,,6,12,,,,,,,,,,,3,1.884,0,,,,,,0.11328125,-0.258333333,1,0,0,1.884,Diorite_rect,13,0,13,0,1,
5f5834134283933a1c3b42d0,TCN,2024-06-11_13h10.38.305,LearnStrategy,2023.2.3,Win32,143.6781609,3,2,15,,,,,,,,4,13,,,,,,,,,,,4,2.151,1,,,,,,0.366145833,-0.25,1,0,0,2.151,Gabbro_rect,14,0,14,0,1,
5f5834134283933a1c3b42d0,TCN,2024-06-11_13h10.38.305,LearnStrategy,2023.2.3,Win32,143.6781609,3,2,16,,,,,,,,3,06,,,,,,,,,,,3,2.34,1,,,,,,0.1140625,-0.25625,1,0,0,2.34,Diorite_rect,15,0,15,0,1,
5f5834134283933a1c3b42d0,TCN,2024-06-11_13h10.38.305,LearnStrategy,2023.2.3,Win32,143.6781609,4,1,1,0.118229167,0.014583333,1,0,0,1.137,rock_grid_rect_2,8,02,-1,-1,1.137,0.35703125,-0.397916667,1,0,0,1.181,Pumice_rect,8,1.181,1,0,0,0,0,1,,,,,,,,,,,,,
5f5834134283933a1c3b42d0,TCN,2024-06-11_13h10.38.305,LearnStrategy,2023.2.3,Win32,143.6781609,4,1,2,-0.021354167,0.004166667,1,0,0,0.859,rock_grid_rect_2,6,13,-1,-1,0.859,-0.138802083,-0.404947917,1,0,0,1.333,Pegmatite_rect,6,1.333,1,1,0,1,0,1,,,,,,,,,,,,,
5f5834134283933a1c3b42d0,TCN,2024-06-11_13h10.38.305,LearnStrategy,2023.2.3,Win32,143.6781609,4,1,3,0.023697917,-0.002864583,1,0,0,0.752,rock_grid_rect_2,2,08,-1,-1,0.752,0.404947917,-0.240885417,1,0,0,1.122,Gabbro_rect,4,1.122,0,2,0,2,0,1,,,,,,,,,,,,,
5f5834134283933a1c3b42d0,TCN,2024-06-11_13h10.38.305,LearnStrategy,2023.2.3,Win32,143.6781609,4,1,4,0.045833333,-0.014583333,1,0,0,0.807,rock_grid_rect_2,1,10,-1,-1,0.807,-0.397916667,-0.25546875,1,0,0,1.52,Andesite_rect,1,1.52,1,3,0,3,0,1,,,,,,,,,,,,,
5f5834134283933a1c3b42d0,TCN,2024-06-11_13h10.38.305,LearnStrategy,2023.2.3,Win32,143.6781609,4,1,5,0.024479167,0.017447917,1,0,0,0.916,rock_grid_rect_2,2,05,-1,-1,0.916,0.396614583,-0.251302083,1,0,0,2.11,Gabbro_rect,4,2.11,0,4,0,4,0,1,,,,,,,,,,,,,
5f5834134283933a1c3b42d0,TCN,2024-06-11_13h10.38.305,LearnStrategy,2023.2.3,Win32,143.6781609,4,1,6,0.0078125,-0.011197917,1,0,0,0.962,rock_grid_rect_2,1,09,-1,-1,0.962,-0.407552083,-0.238802083,1,0,0,1.319,Andesite_rect,1,1.319,1,5,0,5,0,1,,,,,,,,,,,,,
5f5834134283933a1c3b42d0,TCN,2024-06-11_13h10.38.305,LearnStrategy,2023.2.3,Win32,143.6781609,4,1,7,-0.006770833,-0.001302083,1,0,0,0.854,rock_grid_rect_2,3,02,-1,-1,0.854,0.1125,-0.25546875,1,0,0,1.146,Diorite_rect,3,1.146,1,6,0,6,0,1,,,,,,,,,,,,,
5f5834134283933a1c3b42d0,TCN,2024-06-11_13h10.38.305,LearnStrategy,2023.2.3,Win32,143.6781609,4,1,8,-0.032552083,-0.00625,1,0,0,0.809,rock_grid_rect_2,7,04,-1,-1,0.809,0.097395833,-0.39375,1,0,0,1.34,Peridotite_rect,7,1.34,1,7,0,7,0,1,,,,,,,,,,,,,
5f5834134283933a1c3b42d0,TCN,2024-06-11_13h10.38.305,LearnStrategy,2023.2.3,Win32,143.6781609,4,1,9,-0.03671875,-0.008333333,1,0,0,1.082,rock_grid_rect_2,4,11,-1,-1,1.082,-0.154166667,-0.259635417,1,0,0,2.757,Basalt_rect,2,2.757,0,8,0,8,0,1,,,,,,,,,,,,,
5f5834134283933a1c3b42d0,TCN,2024-06-11_13h10.38.305,LearnStrategy,2023.2.3,Win32,143.6781609,4,1,10,0.0015625,0.003385417,1,0,0,0.87,rock_grid_rect_2,5,05,-1,-1,0.87,-0.401302083,-0.40546875,1,0,0,1.254,Obsidian_rect,5,1.254,1,9,0,9,0,1,,,,,,,,,,,,,
5f5834134283933a1c3b42d0,TCN,2024-06-11_13h10.38.305,LearnStrategy,2023.2.3,Win32,143.6781609,4,1,11,-0.002604167,0.00546875,1,0,0,0.918,rock_grid_rect_2,4,10,-1,-1,0.918,0.36953125,-0.257552083,1,0,0,2.746,Gabbro_rect,4,2.746,1,10,0,10,0,1,,,,,,,,,,,,,
5f5834134283933a1c3b42d0,TCN,2024-06-11_13h10.38.305,LearnStrategy,2023.2.3,Win32,143.6781609,4,1,12,0.0390625,0,1,0,0,1.074,rock_grid_rect_2,6,09,-1,-1,1.074,-0.122135417,-0.404947917,1,0,0,2.022,Pegmatite_rect,6,2.022,1,11,0,11,0,1,,,,,,,,,,,,,
5f5834134283933a1c3b42d0,TCN,2024-06-11_13h10.38.305,LearnStrategy,2023.2.3,Win32,143.6781609,4,1,13,0.0515625,0.007552083,1,0,0,0.915,rock_grid_rect_2,8,10,-1,-1,0.915,0.355729167,-0.41328125,1,0,0,1.366,Pumice_rect,8,1.366,1,12,0,12,0,1,,,,,,,,,,,,,
5f5834134283933a1c3b42d0,TCN,2024-06-11_13h10.38.305,LearnStrategy,2023.2.3,Win32,143.6781609,4,1,14,0.00078125,-0.01171875,1,0,0,0.972,rock_grid_rect_2,7,13,-1,-1,0.972,0.1140625,-0.416666667,1,0,0,1.253,Peridotite_rect,7,1.253,1,13,0,13,0,1,,,,,,,,,,,,,
5f5834134283933a1c3b42d0,TCN,2024-06-11_13h10.38.305,LearnStrategy,2023.2.3,Win32,143.6781609,4,1,15,0.011197917,-0.001302083,1,0,0,0.698,rock_grid_rect_2,5,16,-1,-1,0.698,-0.358854167,-0.409114583,1,0,0,1.194,Obsidian_rect,5,1.194,1,14,0,14,0,1,,,,,,,,,,,,,
5f5834134283933a1c3b42d0,TCN,2024-06-11_13h10.38.305,LearnStrategy,2023.2.3,Win32,143.6781609,4,1,16,0.010416667,-0.001302083,1,0,0,1.025,rock_grid_rect_2,3,09,-1,-1,1.025,0.108333333,-0.259635417,1,0,0,1.113,Diorite_rect,3,1.113,1,15,0,15,0,1,,,,,,,,,,,,,
5f5834134283933a1c3b42d0,TCN,2024-06-11_13h10.38.305,LearnStrategy,2023.2.3,Win32,143.6781609,4,2,1,,,,,,,,8,04,,,,,,,,,,,8,1.125,1,,,,,,0.3390625,-0.410416667,1,0,0,1.125,Pumice_rect,0,0,0,0,1,
5f5834134283933a1c3b42d0,TCN,2024-06-11_13h10.38.305,LearnStrategy,2023.2.3,Win32,143.6781609,4,2,2,,,,,,,,8,09,,,,,,,,,,,8,1.629,1,,,,,,0.40703125,-0.40546875,1,0,0,1.629,Pumice_rect,1,0,1,0,1,
5f5834134283933a1c3b42d0,TCN,2024-06-11_13h10.38.305,LearnStrategy,2023.2.3,Win32,143.6781609,4,2,3,,,,,,,,4,08,,,,,,,,,,,4,3.968,1,,,,,,0.33125,-0.263802083,1,0,0,3.968,Gabbro_rect,2,0,2,0,1,
5f5834134283933a1c3b42d0,TCN,2024-06-11_13h10.38.305,LearnStrategy,2023.2.3,Win32,143.6781609,4,2,4,,,,,,,,6,15,,,,,,,,,,,6,1.334,1,,,,,,-0.140885417,-0.390885417,1,0,0,1.334,Pegmatite_rect,3,0,3,0,1,
5f5834134283933a1c3b42d0,TCN,2024-06-11_13h10.38.305,LearnStrategy,2023.2.3,Win32,143.6781609,4,2,5,,,,,,,,4,16,,,,,,,,,,,4,2.877,1,,,,,,0.374479167,-0.2625,1,0,0,2.877,Gabbro_rect,4,0,4,0,1,
5f5834134283933a1c3b42d0,TCN,2024-06-11_13h10.38.305,LearnStrategy,2023.2.3,Win32,143.6781609,4,2,6,,,,,,,,3,11,,,,,,,,,,,3,1.253,1,,,,,,0.124479167,-0.251302083,1,0,0,1.253,Diorite_rect,5,0,5,0,1,
5f5834134283933a1c3b42d0,TCN,2024-06-11_13h10.38.305,LearnStrategy,2023.2.3,Win32,143.6781609,4,2,7,,,,,,,,2,10,,,,,,,,,,,5,2.103,0,,,,,,-0.396354167,-0.388802083,1,0,0,2.103,Obsidian_rect,6,0,6,0,1,
5f5834134283933a1c3b42d0,TCN,2024-06-11_13h10.38.305,LearnStrategy,2023.2.3,Win32,143.6781609,4,2,8,,,,,,,,7,06,,,,,,,,,,,7,1.45,1,,,,,,0.083333333,-0.413802083,1,0,0,1.45,Peridotite_rect,7,0,7,0,1,
5f5834134283933a1c3b42d0,TCN,2024-06-11_13h10.38.305,LearnStrategy,2023.2.3,Win32,143.6781609,4,2,9,,,,,,,,7,10,,,,,,,,,,,7,2.552,1,,,,,,0.109114583,-0.402864583,1,0,0,2.552,Peridotite_rect,8,0,8,0,1,
5f5834134283933a1c3b42d0,TCN,2024-06-11_13h10.38.305,LearnStrategy,2023.2.3,Win32,143.6781609,4,2,10,,,,,,,,1,03,,,,,,,,,,,1,1.637,1,,,,,,-0.383854167,-0.252083333,1,0,0,1.637,Andesite_rect,9,0,9,0,1,
5f5834134283933a1c3b42d0,TCN,2024-06-11_13h10.38.305,LearnStrategy,2023.2.3,Win32,143.6781609,4,2,11,,,,,,,,6,12,,,,,,,,,,,6,1.488,1,,,,,,-0.1484375,-0.397135417,1,0,0,1.488,Pegmatite_rect,10,0,10,0,1,
5f5834134283933a1c3b42d0,TCN,2024-06-11_13h10.38.305,LearnStrategy,2023.2.3,Win32,143.6781609,4,2,12,,,,,,,,2,12,,,,,,,,,,,2,2.557,1,,,,,,-0.171354167,-0.247135417,1,0,0,2.557,Basalt_rect,11,0,11,0,1,
5f5834134283933a1c3b42d0,TCN,2024-06-11_13h10.38.305,LearnStrategy,2023.2.3,Win32,143.6781609,4,2,13,,,,,,,,5,06,,,,,,,,,,,5,1.085,1,,,,,,-0.358854167,-0.407552083,1,0,0,1.085,Obsidian_rect,12,0,12,0,1,
5f5834134283933a1c3b42d0,TCN,2024-06-11_13h10.38.305,LearnStrategy,2023.2.3,Win32,143.6781609,4,2,14,,,,,,,,5,09,,,,,,,,,,,5,1.097,1,,,,,,-0.350520833,-0.421614583,1,0,0,1.097,Obsidian_rect,13,0,13,0,1,
5f5834134283933a1c3b42d0,TCN,2024-06-11_13h10.38.305,LearnStrategy,2023.2.3,Win32,143.6781609,4,2,15,,,,,,,,3,16,,,,,,,,,,,3,1.17,1,,,,,,0.110416667,-0.26875,1,0,0,1.17,Diorite_rect,14,0,14,0,1,
5f5834134283933a1c3b42d0,TCN,2024-06-11_13h10.38.305,LearnStrategy,2023.2.3,Win32,143.6781609,4,2,16,,,,,,,,1,06,,,,,,,,,,,1,2.332,1,,,,,,-0.357552083,-0.246614583,1,0,0,2.332,Andesite_rect,15,0,15,0,1,
5f5834134283933a1c3b42d0,TCN,2024-06-11_13h10.38.305,LearnStrategy,2023.2.3,Win32,143.6781609,5,1,1,-0.058854167,-0.001302083,1,0,0,1.014,rock_grid_rect_2,5,14,-1,-1,1.014,-0.375520833,-0.404166667,1,0,0,1.243,Obsidian_rect,5,1.243,1,0,0,0,0,1,,,,,,,,,,,,,
5f5834134283933a1c3b42d0,TCN,2024-06-11_13h10.38.305,LearnStrategy,2023.2.3,Win32,143.6781609,5,1,2,-0.01796875,0.016666667,1,0,0,0.924,rock_grid_rect_2,7,08,-1,-1,0.924,0.080729167,-0.403385417,1,0,0,1.519,Peridotite_rect,7,1.519,1,1,0,1,0,1,,,,,,,,,,,,,
5f5834134283933a1c3b42d0,TCN,2024-06-11_13h10.38.305,LearnStrategy,2023.2.3,Win32,143.6781609,5,1,3,-0.058854167,-0.00546875,1,0,0,0.756,rock_grid_rect_2,8,14,-1,-1,0.756,0.34375,-0.40703125,1,0,0,1.185,Pumice_rect,8,1.185,1,2,0,2,0,1,,,,,,,,,,,,,
5f5834134283933a1c3b42d0,TCN,2024-06-11_13h10.38.305,LearnStrategy,2023.2.3,Win32,143.6781609,5,1,4,-0.009635417,-0.004166667,1,0,0,0.859,rock_grid_rect_2,6,08,-1,-1,0.859,-0.113020833,-0.415364583,1,0,0,1.192,Pegmatite_rect,6,1.192,1,3,0,3,0,1,,,,,,,,,,,,,
5f5834134283933a1c3b42d0,TCN,2024-06-11_13h10.38.305,LearnStrategy,2023.2.3,Win32,143.6781609,5,1,5,-0.027083333,-0.004947917,1,0,0,0.919,rock_grid_rect_2,1,11,-1,-1,0.919,-0.381770833,-0.257552083,1,0,0,1.555,Andesite_rect,1,1.555,1,4,0,4,0,1,,,,,,,,,,,,,
5f5834134283933a1c3b42d0,TCN,2024-06-11_13h10.38.305,LearnStrategy,2023.2.3,Win32,143.6781609,5,1,6,-0.008333333,-0.007552083,1,0,0,0.702,rock_grid_rect_2,7,05,-1,-1,0.702,0.06875,-0.420833333,1,0,0,1.154,Peridotite_rect,7,1.154,1,5,0,5,0,1,,,,,,,,,,,,,
5f5834134283933a1c3b42d0,TCN,2024-06-11_13h10.38.305,LearnStrategy,2023.2.3,Win32,143.6781609,5,1,7,-0.021354167,0.008333333,1,0,0,0.805,rock_grid_rect_2,3,15,-1,-1,0.805,0.165364583,-0.270052083,1,0,0,1.205,Diorite_rect,3,1.205,1,6,0,6,0,1,,,,,,,,,,,,,
5f5834134283933a1c3b42d0,TCN,2024-06-11_13h10.38.305,LearnStrategy,2023.2.3,Win32,143.6781609,5,1,8,-0.015885417,-0.015364583,1,0,0,0.706,rock_grid_rect_2,8,06,-1,-1,0.706,0.375,-0.404947917,1,0,0,1.197,Pumice_rect,8,1.197,1,7,0,7,0,1,,,,,,,,,,,,,
5f5834134283933a1c3b42d0,TCN,2024-06-11_13h10.38.305,LearnStrategy,2023.2.3,Win32,143.6781609,5,1,9,0.004947917,-0.015885417,1,0,0,0.659,rock_grid_rect_2,2,01,-1,-1,0.659,-0.082552083,-0.270833333,1,0,0,2.293,Basalt_rect,2,2.293,1,8,0,8,0,1,,,,,,,,,,,,,
5f5834134283933a1c3b42d0,TCN,2024-06-11_13h10.38.305,LearnStrategy,2023.2.3,Win32,143.6781609,5,1,10,0.042447917,-0.00703125,1,0,0,0.753,rock_grid_rect_2,6,16,-1,-1,0.753,-0.114583333,-0.40703125,1,0,0,1.188,Pegmatite_rect,6,1.188,1,9,0,9,0,1,,,,,,,,,,,,,
5f5834134283933a1c3b42d0,TCN,2024-06-11_13h10.38.305,LearnStrategy,2023.2.3,Win32,143.6781609,5,1,11,0.06875,-0.017447917,1,0,0,0.81,rock_grid_rect_2,1,02,-1,-1,0.81,-0.390885417,-0.25625,1,0,0,2.33,Andesite_rect,1,2.33,1,10,0,10,0,1,,,,,,,,,,,,,
5f5834134283933a1c3b42d0,TCN,2024-06-11_13h10.38.305,LearnStrategy,2023.2.3,Win32,143.6781609,5,1,12,0.04375,-0.01953125,1,0,0,0.925,rock_grid_rect_2,3,13,-1,-1,0.925,0.102083333,-0.247135417,1,0,0,1.503,Diorite_rect,3,1.503,1,11,0,11,0,1,,,,,,,,,,,,,
5f5834134283933a1c3b42d0,TCN,2024-06-11_13h10.38.305,LearnStrategy,2023.2.3,Win32,143.6781609,5,1,13,-0.0484375,0.00546875,1,0,0,0.813,rock_grid_rect_2,4,14,-1,-1,0.813,0.399479167,-0.24453125,1,0,0,1.313,Gabbro_rect,4,1.313,1,12,0,12,0,1,,,,,,,,,,,,,
5f5834134283933a1c3b42d0,TCN,2024-06-11_13h10.38.305,LearnStrategy,2023.2.3,Win32,143.6781609,5,1,14,-0.008333333,-0.015364583,1,0,0,0.594,rock_grid_rect_2,5,04,-1,-1,0.594,-0.385416667,-0.40546875,1,0,0,1.203,Obsidian_rect,5,1.203,1,13,0,13,0,1,,,,,,,,,,,,,
5f5834134283933a1c3b42d0,TCN,2024-06-11_13h10.38.305,LearnStrategy,2023.2.3,Win32,143.6781609,5,1,15,0.043229167,-0.009114583,1,0,0,1.124,rock_grid_rect_2,2,09,-1,-1,1.124,-0.11875,-0.24921875,1,0,0,1.076,Basalt_rect,2,1.076,1,14,0,14,0,1,,,,,,,,,,,,,
5f5834134283933a1c3b42d0,TCN,2024-06-11_13h10.38.305,LearnStrategy,2023.2.3,Win32,143.6781609,5,1,16,-0.008854167,0.004947917,1,0,0,1.019,rock_grid_rect_2,4,05,-1,-1,1.019,0.386197917,-0.24921875,1,0,0,1.647,Gabbro_rect,4,1.647,1,15,0,15,0,1,,,,,,,,,,,,,
5f5834134283933a1c3b42d0,TCN,2024-06-11_13h10.38.305,LearnStrategy,2023.2.3,Win32,143.6781609,5,2,1,,,,,,,,7,02,,,,,,,,,,,7,1.522,1,,,,,,0.1203125,-0.397135417,1,0,0,1.522,Peridotite_rect,0,0,0,0,1,
5f5834134283933a1c3b42d0,TCN,2024-06-11_13h10.38.305,LearnStrategy,2023.2.3,Win32,143.6781609,5,2,2,,,,,,,,4,03,,,,,,,,,,,3,1.454,0,,,,,,0.117447917,-0.25546875,1,0,0,1.454,Diorite_rect,1,0,1,0,1,
5f5834134283933a1c3b42d0,TCN,2024-06-11_13h10.38.305,LearnStrategy,2023.2.3,Win32,143.6781609,5,2,3,,,,,,,,5,07,,,,,,,,,,,5,1.075,1,,,,,,-0.363802083,-0.403385417,1,0,0,1.075,Obsidian_rect,2,0,2,0,1,
5f5834134283933a1c3b42d0,TCN,2024-06-11_13h10.38.305,LearnStrategy,2023.2.3,Win32,143.6781609,5,2,4,,,,,,,,8,05,,,,,,,,,,,8,1.113,1,,,,,,0.359895833,-0.402083333,1,0,0,1.113,Pumice_rect,3,0,3,0,1,
5f5834134283933a1c3b42d0,TCN,2024-06-11_13h10.38.305,LearnStrategy,2023.2.3,Win32,143.6781609,5,2,5,,,,,,,,2,04,,,,,,,,,,,2,6.654,1,,,,,,-0.154166667,-0.25546875,1,0,0,6.654,Basalt_rect,4,0,4,0,1,
5f5834134283933a1c3b42d0,TCN,2024-06-11_13h10.38.305,LearnStrategy,2023.2.3,Win32,143.6781609,5,2,6,,,,,,,,3,08,,,,,,,,,,,3,1.021,1,,,,,,0.061979167,-0.24921875,1,0,0,1.021,Diorite_rect,5,0,5,0,1,
5f5834134283933a1c3b42d0,TCN,2024-06-11_13h10.38.305,LearnStrategy,2023.2.3,Win32,143.6781609,5,2,7,,,,,,,,8,16,,,,,,,,,,,8,1.495,1,,,,,,0.335416667,-0.417447917,1,0,0,1.495,Pumice_rect,6,0,6,0,1,
5f5834134283933a1c3b42d0,TCN,2024-06-11_13h10.38.305,LearnStrategy,2023.2.3,Win32,143.6781609,5,2,8,,,,,,,,6,06,,,,,,,,,,,6,1.445,1,,,,,,-0.108333333,-0.41171875,1,0,0,1.445,Pegmatite_rect,7,0,7,0,1,
5f5834134283933a1c3b42d0,TCN,2024-06-11_13h10.38.305,LearnStrategy,2023.2.3,Win32,143.6781609,5,2,9,,,,,,,,3,06,,,,,,,,,,,3,1.076,1,,,,,,0.086979167,-0.270052083,1,0,0,1.076,Diorite_rect,8,0,8,0,1,
5f5834134283933a1c3b42d0,TCN,2024-06-11_13h10.38.305,LearnStrategy,2023.2.3,Win32,143.6781609,5,2,10,,,,,,,,6,11,,,,,,,,,,,6,1.129,1,,,,,,-0.122135417,-0.39296875,1,0,0,1.129,Pegmatite_rect,9,0,9,0,1,
5f5834134283933a1c3b42d0,TCN,2024-06-11_13h10.38.305,LearnStrategy,2023.2.3,Win32,143.6781609,5,2,11,,,,,,,,1,14,,,,,,,,,,,1,1.68,1,,,,,,-0.396354167,-0.261197917,1,0,0,1.68,Andesite_rect,10,0,10,0,1,
5f5834134283933a1c3b42d0,TCN,2024-06-11_13h10.38.305,LearnStrategy,2023.2.3,Win32,143.6781609,5,2,12,,,,,,,,4,15,,,,,,,,,,,4,2.776,1,,,,,,0.461979167,-0.257552083,1,0,0,2.776,Gabbro_rect,11,0,11,0,1,
5f5834134283933a1c3b42d0,TCN,2024-06-11_13h10.38.305,LearnStrategy,2023.2.3,Win32,143.6781609,5,2,13,,,,,,,,5,02,,,,,,,,,,,5,1.065,1,,,,,,-0.372916667,-0.39296875,1,0,0,1.065,Obsidian_rect,12,0,12,0,1,
5f5834134283933a1c3b42d0,TCN,2024-06-11_13h10.38.305,LearnStrategy,2023.2.3,Win32,143.6781609,5,2,14,,,,,,,,1,01,,,,,,,,,,,4,1.35,0,,,,,,0.323697917,-0.254947917,1,0,0,1.35,Gabbro_rect,13,0,13,0,1,
5f5834134283933a1c3b42d0,TCN,2024-06-11_13h10.38.305,LearnStrategy,2023.2.3,Win32,143.6781609,5,2,15,,,,,,,,7,16,,,,,,,,,,,7,1.207,1,,,,,,0.085416667,-0.41171875,1,0,0,1.207,Peridotite_rect,14,0,14,0,1,
5f5834134283933a1c3b42d0,TCN,2024-06-11_13h10.38.305,LearnStrategy,2023.2.3,Win32,143.6781609,5,2,16,,,,,,,,2,06,,,,,,,,,,,2,1.679,1,,,,,,-0.11171875,-0.252083333,1,0,0,1.679,Basalt_rect,15,0,15,0,1,
5f5834134283933a1c3b42d0,TCN,2024-06-11_13h10.38.305,LearnStrategy,2023.2.3,Win32,143.6781609,6,1,1,-0.027604167,0.013802083,1,0,0,1.148,rock_grid_rect_2,6,07,-1,-1,1.148,-0.096354167,-0.386197917,1,0,0,1.065,Pegmatite_rect,6,1.065,1,0,0,0,0,1,,,,,,,,,,,,,
5f5834134283933a1c3b42d0,TCN,2024-06-11_13h10.38.305,LearnStrategy,2023.2.3,Win32,143.6781609,6,1,2,-0.033854167,-0.002083333,1,0,0,0.859,rock_grid_rect_2,3,07,-1,-1,0.859,0.14453125,-0.259635417,1,0,0,1.794,Diorite_rect,3,1.794,1,1,0,1,0,1,,,,,,,,,,,,,
5f5834134283933a1c3b42d0,TCN,2024-06-11_13h10.38.305,LearnStrategy,2023.2.3,Win32,143.6781609,6,1,3,-0.047135417,0.00703125,1,0,0,0.696,rock_grid_rect_2,4,09,-1,-1,0.696,0.474479167,-0.254166667,1,0,0,2.381,Gabbro_rect,4,2.381,1,2,0,2,0,1,,,,,,,,,,,,,
5f5834134283933a1c3b42d0,TCN,2024-06-11_13h10.38.305,LearnStrategy,2023.2.3,Win32,143.6781609,6,1,4,-0.006770833,-0.01328125,1,0,0,0.706,rock_grid_rect_2,1,05,-1,-1,0.706,-0.3984375,-0.247135417,1,0,0,1.284,Andesite_rect,1,1.284,1,3,0,3,0,1,,,,,,,,,,,,,
5f5834134283933a1c3b42d0,TCN,2024-06-11_13h10.38.305,LearnStrategy,2023.2.3,Win32,143.6781609,6,1,5,0.036197917,-0.00078125,1,0,0,0.914,rock_grid_rect_2,8,13,-1,-1,0.914,0.377083333,-0.420833333,1,0,0,1.493,Pumice_rect,8,1.493,1,4,0,4,0,1,,,,,,,,,,,,,
5f5834134283933a1c3b42d0,TCN,2024-06-11_13h10.38.305,LearnStrategy,2023.2.3,Win32,143.6781609,6,1,6,-0.008333333,0.002864583,1,0,0,0.593,rock_grid_rect_2,5,08,-1,-1,0.593,-0.34296875,-0.40625,1,0,0,1.132,Obsidian_rect,5,1.132,1,5,0,5,0,1,,,,,,,,,,,,,
5f5834134283933a1c3b42d0,TCN,2024-06-11_13h10.38.305,LearnStrategy,2023.2.3,Win32,143.6781609,6,1,7,0.0125,0.01796875,1,0,0,0.773,rock_grid_rect_2,8,08,-1,-1,0.773,0.392447917,-0.413802083,1,0,0,1.933,Pumice_rect,8,1.933,1,6,0,6,0,1,,,,,,,,,,,,,
5f5834134283933a1c3b42d0,TCN,2024-06-11_13h10.38.305,LearnStrategy,2023.2.3,Win32,143.6781609,6,1,8,0.046614583,-0.007552083,1,0,0,1.338,rock_grid_rect_2,4,12,-1,-1,1.338,0.411979167,-0.25078125,1,0,0,1.377,Gabbro_rect,4,1.377,1,7,0,7,0,1,,,,,,,,,,,,,
5f5834134283933a1c3b42d0,TCN,2024-06-11_13h10.38.305,LearnStrategy,2023.2.3,Win32,143.6781609,6,1,9,0.067447917,-0.002864583,1,0,0,0.649,rock_grid_rect_2,2,14,-1,-1,0.649,-0.069270833,-0.26328125,1,0,0,2.123,Basalt_rect,2,2.123,1,8,0,8,0,1,,,,,,,,,,,,,
5f5834134283933a1c3b42d0,TCN,2024-06-11_13h10.38.305,LearnStrategy,2023.2.3,Win32,143.6781609,6,1,10,0.030729167,-0.009635417,1,0,0,0.806,rock_grid_rect_2,6,03,-1,-1,0.806,-0.163020833,-0.398697917,1,0,0,1.189,Pegmatite_rect,6,1.189,1,9,0,9,0,1,,,,,,,,,,,,,
5f5834134283933a1c3b42d0,TCN,2024-06-11_13h10.38.305,LearnStrategy,2023.2.3,Win32,143.6781609,6,1,11,0.0078125,-0.003385417,1,0,0,0.924,rock_grid_rect_2,2,11,-1,-1,0.924,-0.153385417,-0.240885417,1,0,0,1.584,Basalt_rect,2,1.584,1,10,0,10,0,1,,,,,,,,,,,,,
5f5834134283933a1c3b42d0,TCN,2024-06-11_13h10.38.305,LearnStrategy,2023.2.3,Win32,143.6781609,6,1,12,-0.033333333,-0.0125,1,0,0,0.653,rock_grid_rect_2,1,16,-1,-1,0.653,-0.377083333,-0.252864583,1,0,0,1.534,Andesite_rect,1,1.534,1,11,0,11,0,1,,,,,,,,,,,,,
5f5834134283933a1c3b42d0,TCN,2024-06-11_13h10.38.305,LearnStrategy,2023.2.3,Win32,143.6781609,6,1,13,0.025,-0.011197917,1,0,0,0.864,rock_grid_rect_2,5,10,-1,-1,0.864,-0.43671875,-0.415364583,1,0,0,2.73,Obsidian_rect,5,2.73,1,12,0,12,0,1,,,,,,,,,,,,,
5f5834134283933a1c3b42d0,TCN,2024-06-11_13h10.38.305,LearnStrategy,2023.2.3,Win32,143.6781609,6,1,14,-0.083333333,0.004166667,1,0,0,0.917,rock_grid_rect_2,7,07,-1,-1,0.917,0.111979167,-0.407552083,1,0,0,1.662,Peridotite_rect,7,1.662,1,13,0,13,0,1,,,,,,,,,,,,,
5f5834134283933a1c3b42d0,TCN,2024-06-11_13h10.38.305,LearnStrategy,2023.2.3,Win32,143.6781609,6,1,15,-0.013802083,0.007552083,1,0,0,0.805,rock_grid_rect_2,7,14,-1,-1,0.805,0.13203125,-0.414583333,1,0,0,1.473,Peridotite_rect,7,1.473,1,14,0,14,0,1,,,,,,,,,,,,,
5f5834134283933a1c3b42d0,TCN,2024-06-11_13h10.38.305,LearnStrategy,2023.2.3,Win32,143.6781609,6,1,16,-0.013802083,-0.010416667,1,0,0,0.706,rock_grid_rect_2,3,12,-1,-1,0.706,0.152083333,-0.25546875,1,0,0,1.203,Diorite_rect,3,1.203,1,15,0,15,0,1,,,,,,,,,,,,,
5f5834134283933a1c3b42d0,TCN,2024-06-11_13h10.38.305,LearnStrategy,2023.2.3,Win32,143.6781609,6,2,1,,,,,,,,8,03,,,,,,,,,,,8,1.945,1,,,,,,0.396614583,-0.411197917,1,0,0,1.945,Pumice_rect,0,0,0,0,1,
5f5834134283933a1c3b42d0,TCN,2024-06-11_13h10.38.305,LearnStrategy,2023.2.3,Win32,143.6781609,6,2,2,,,,,,,,7,15,,,,,,,,,,,7,1.24,1,,,,,,0.097395833,-0.384635417,1,0,0,1.24,Peridotite_rect,1,0,1,0,1,
5f5834134283933a1c3b42d0,TCN,2024-06-11_13h10.38.305,LearnStrategy,2023.2.3,Win32,143.6781609,6,2,3,,,,,,,,1,04,,,,,,,,,,,1,1.305,1,,,,,,-0.377083333,-0.233333333,1,0,0,1.305,Andesite_rect,2,0,2,0,1,
5f5834134283933a1c3b42d0,TCN,2024-06-11_13h10.38.305,LearnStrategy,2023.2.3,Win32,143.6781609,6,2,4,,,,,,,,7,12,,,,,,,,,,,7,1.32,1,,,,,,0.13203125,-0.40625,1,0,0,1.32,Peridotite_rect,3,0,3,0,1,
5f5834134283933a1c3b42d0,TCN,2024-06-11_13h10.38.305,LearnStrategy,2023.2.3,Win32,143.6781609,6,2,5,,,,,,,,2,16,,,,,,,,,,,2,2.488,1,,,,,,-0.1125,-0.247916667,1,0,0,2.488,Basalt_rect,4,0,4,0,1,
5f5834134283933a1c3b42d0,TCN,2024-06-11_13h10.38.305,LearnStrategy,2023.2.3,Win32,143.6781609,6,2,6,,,,,,,,1,07,,,,,,,,,,,1,1.535,1,,,,,,-0.3859375,-0.259114583,1,0,0,1.535,Andesite_rect,5,0,5,0,1,
5f5834134283933a1c3b42d0,TCN,2024-06-11_13h10.38.305,LearnStrategy,2023.2.3,Win32,143.6781609,6,2,7,,,,,,,,3,14,,,,,,,,,,,3,1.451,1,,,,,,0.116145833,-0.25703125,1,0,0,1.451,Diorite_rect,6,0,6,0,1,
5f5834134283933a1c3b42d0,TCN,2024-06-11_13h10.38.305,LearnStrategy,2023.2.3,Win32,143.6781609,6,2,8,,,,,,,,5,11,,,,,,,,,,,5,1.152,1,,,,,,-0.370052083,-0.414583333,1,0,0,1.152,Obsidian_rect,7,0,7,0,1,
5f5834134283933a1c3b42d0,TCN,2024-06-11_13h10.38.305,LearnStrategy,2023.2.3,Win32,143.6781609,6,2,9,,,,,,,,6,10,,,,,,,,,,,6,1.227,1,,,,,,-0.163020833,-0.417447917,1,0,0,1.227,Pegmatite_rect,8,0,8,0,1,
5f5834134283933a1c3b42d0,TCN,2024-06-11_13h10.38.305,LearnStrategy,2023.2.3,Win32,143.6781609,6,2,10,,,,,,,,3,10,,,,,,,,,,,3,1.221,1,,,,,,0.170833333,-0.25546875,1,0,0,1.221,Diorite_rect,9,0,9,0,1,
5f5834134283933a1c3b42d0,TCN,2024-06-11_13h10.38.305,LearnStrategy,2023.2.3,Win32,143.6781609,6,2,11,,,,,,,,4,13,,,,,,,,,,,4,2.487,1,,,,,,0.36328125,-0.258333333,1,0,0,2.487,Gabbro_rect,10,0,10,0,1,
5f5834134283933a1c3b42d0,TCN,2024-06-11_13h10.38.305,LearnStrategy,2023.2.3,Win32,143.6781609,6,2,12,,,,,,,,8,15,,,,,,,,,,,8,2.116,1,,,,,,0.354947917,-0.390885417,1,0,0,2.116,Pumice_rect,11,0,11,0,1,
5f5834134283933a1c3b42d0,TCN,2024-06-11_13h10.38.305,LearnStrategy,2023.2.3,Win32,143.6781609,6,2,13,,,,,,,,2,02,,,,,,,,,,,2,1.112,1,,,,,,-0.158854167,-0.25625,1,0,0,1.112,Basalt_rect,12,0,12,0,1,
5f5834134283933a1c3b42d0,TCN,2024-06-11_13h10.38.305,LearnStrategy,2023.2.3,Win32,143.6781609,6,2,14,,,,,,,,4,01,,,,,,,,,,,7,6.023,0,,,,,,0.165364583,-0.41875,1,0,0,6.023,Peridotite_rect,13,0,13,0,1,
5f5834134283933a1c3b42d0,TCN,2024-06-11_13h10.38.305,LearnStrategy,2023.2.3,Win32,143.6781609,6,2,15,,,,,,,,5,12,,,,,,,,,,,5,1.106,1,,,,,,-0.360416667,-0.40703125,1,0,0,1.106,Obsidian_rect,14,0,14,0,1,
5f5834134283933a1c3b42d0,TCN,2024-06-11_13h10.38.305,LearnStrategy,2023.2.3,Win32,143.6781609,6,2,16,,,,,,,,6,05,,,,,,,,,,,6,1.585,1,,,,,,-0.138802083,-0.417447917,1,0,0,1.585,Pegmatite_rect,15,0,15,0,1,
5f5834134283933a1c3b42d0,TCN,2024-06-11_13h10.38.305,LearnStrategy,2023.2.3,Win32,143.6781609,7,1,1,0.011197917,0.007552083,1,0,0,1.074,rock_grid_rect_2,7,08,-1,-1,1.074,0.110416667,-0.386197917,1,0,0,2.415,Peridotite_rect,7,2.415,1,0,0,0,0,1,,,,,,,,,,,,,
5f5834134283933a1c3b42d0,TCN,2024-06-11_13h10.38.305,LearnStrategy,2023.2.3,Win32,143.6781609,7,1,2,-0.013020833,0.007552083,1,0,0,0.97,rock_grid_rect_2,5,14,-1,-1,0.97,-0.444270833,-0.388802083,1,0,0,2.666,Obsidian_rect,5,2.666,1,1,0,1,0,1,,,,,,,,,,,,,
5f5834134283933a1c3b42d0,TCN,2024-06-11_13h10.38.305,LearnStrategy,2023.2.3,Win32,143.6781609,7,1,3,-0.0625,-0.007552083,1,0,0,0.861,rock_grid_rect_2,1,02,-1,-1,0.861,-0.10625,-0.246614583,1,0,0,2.312,Basalt_rect,2,2.312,0,2,0,2,0,1,,,,,,,,,,,,,
5f5834134283933a1c3b42d0,TCN,2024-06-11_13h10.38.305,LearnStrategy,2023.2.3,Win32,143.6781609,7,1,4,0.059114583,0.00078125,1,0,0,0.755,rock_grid_rect_2,5,16,-1,-1,0.755,-0.350520833,-0.38828125,1,0,0,1.307,Obsidian_rect,5,1.307,1,3,0,3,0,1,,,,,,,,,,,,,
5f5834134283933a1c3b42d0,TCN,2024-06-11_13h10.38.305,LearnStrategy,2023.2.3,Win32,143.6781609,7,1,5,0.01328125,0.02421875,1,0,0,0.865,rock_grid_rect_2,7,07,-1,-1,0.865,0.1265625,-0.41171875,1,0,0,1.087,Peridotite_rect,7,1.087,1,4,0,4,0,1,,,,,,,,,,,,,
5f5834134283933a1c3b42d0,TCN,2024-06-11_13h10.38.305,LearnStrategy,2023.2.3,Win32,143.6781609,7,1,6,0.023697917,0.002864583,1,0,0,0.649,rock_grid_rect_2,8,14,-1,-1,0.649,0.378645833,-0.4125,1,0,0,1.25,Pumice_rect,8,1.25,1,5,0,5,0,1,,,,,,,,,,,,,
5f5834134283933a1c3b42d0,TCN,2024-06-11_13h10.38.305,LearnStrategy,2023.2.3,Win32,143.6781609,7,1,7,0.0203125,0.022916667,1,0,0,0.706,rock_grid_rect_2,3,13,-1,-1,0.706,0.147916667,-0.24375,1,0,0,1.25,Diorite_rect,3,1.25,1,6,0,6,0,1,,,,,,,,,,,,,
5f5834134283933a1c3b42d0,TCN,2024-06-11_13h10.38.305,LearnStrategy,2023.2.3,Win32,143.6781609,7,1,8,0.043229167,0.015885417,1,0,0,0.612,rock_grid_rect_2,6,13,-1,-1,0.612,-0.158333333,-0.40703125,1,0,0,1.387,Pegmatite_rect,6,1.387,1,7,0,7,0,1,,,,,,,,,,,,,
5f5834134283933a1c3b42d0,TCN,2024-06-11_13h10.38.305,LearnStrategy,2023.2.3,Win32,143.6781609,7,1,9,-0.008333333,0.004947917,1,0,0,0.658,rock_grid_rect_2,8,08,-1,-1,0.658,0.4,-0.407552083,1,0,0,1.21,Pumice_rect,8,1.21,1,8,0,8,0,1,,,,,,,,,,,,,
5f5834134283933a1c3b42d0,TCN,2024-06-11_13h10.38.305,LearnStrategy,2023.2.3,Win32,143.6781609,7,1,10,0.0015625,-0.01875,1,0,0,0.642,rock_grid_rect_2,4,11,-1,-1,0.642,0.416666667,-0.258333333,1,0,0,1.193,Gabbro_rect,4,1.193,1,9,0,9,0,1,,,,,,,,,,,,,
5f5834134283933a1c3b42d0,TCN,2024-06-11_13h10.38.305,LearnStrategy,2023.2.3,Win32,143.6781609,7,1,11,-0.0609375,0.0125,1,0,0,0.656,rock_grid_rect_2,1,16,-1,-1,0.656,-0.352604167,-0.240885417,1,0,0,1.137,Andesite_rect,1,1.137,1,10,0,10,0,1,,,,,,,,,,,,,
5f5834134283933a1c3b42d0,TCN,2024-06-11_13h10.38.305,LearnStrategy,2023.2.3,Win32,143.6781609,7,1,12,0.05703125,-0.009635417,1,0,0,0.81,rock_grid_rect_2,6,09,-1,-1,0.81,-0.103385417,-0.408333333,1,0,0,1.3,Pegmatite_rect,6,1.3,1,11,0,11,0,1,,,,,,,,,,,,,
5f5834134283933a1c3b42d0,TCN,2024-06-11_13h10.38.305,LearnStrategy,2023.2.3,Win32,143.6781609,7,1,13,0.022395833,-0.002864583,1,0,0,0.86,rock_grid_rect_2,2,05,-1,-1,0.86,-0.127083333,-0.25703125,1,0,0,1.384,Basalt_rect,2,1.384,1,12,0,12,0,1,,,,,,,,,,,,,
5f5834134283933a1c3b42d0,TCN,2024-06-11_13h10.38.305,LearnStrategy,2023.2.3,Win32,143.6781609,7,1,14,0.0078125,-0.004166667,1,0,0,0.642,rock_grid_rect_2,3,15,-1,-1,0.642,0.121614583,-0.266666667,1,0,0,1.157,Diorite_rect,3,1.157,1,13,0,13,0,1,,,,,,,,,,,,,
5f5834134283933a1c3b42d0,TCN,2024-06-11_13h10.38.305,LearnStrategy,2023.2.3,Win32,143.6781609,7,1,15,-0.014583333,0.00625,1,0,0,0.646,rock_grid_rect_2,2,09,-1,-1,0.646,-0.089583333,-0.252083333,1,0,0,1.129,Basalt_rect,2,1.129,1,14,0,14,0,1,,,,,,,,,,,,,
5f5834134283933a1c3b42d0,TCN,2024-06-11_13h10.38.305,LearnStrategy,2023.2.3,Win32,143.6781609,7,1,16,0.022395833,-0.020833333,1,0,0,0.589,rock_grid_rect_2,4,05,-1,-1,0.589,0.398697917,-0.248697917,1,0,0,1.254,Gabbro_rect,4,1.254,1,15,0,15,0,1,,,,,,,,,,,,,
5f5834134283933a1c3b42d0,TCN,2024-06-11_13h10.38.305,LearnStrategy,2023.2.3,Win32,143.6781609,7,2,1,,,,,,,,5,06,,,,,,,,,,,5,1.205,1,,,,,,-0.378385417,-0.395833333,1,0,0,1.205,Obsidian_rect,0,0,0,0,1,
5f5834134283933a1c3b42d0,TCN,2024-06-11_13h10.38.305,LearnStrategy,2023.2.3,Win32,143.6781609,7,2,2,,,,,,,,8,09,,,,,,,,,,,8,2.153,1,,,,,,0.414583333,-0.408333333,1,0,0,2.153,Pumice_rect,1,0,1,0,1,
5f5834134283933a1c3b42d0,TCN,2024-06-11_13h10.38.305,LearnStrategy,2023.2.3,Win32,143.6781609,7,2,3,,,,,,,,7,16,,,,,,,,,,,4,1.718,0,,,,,,0.408333333,-0.271614583,1,0,0,1.718,Gabbro_rect,2,0,2,0,1,
5f5834134283933a1c3b42d0,TCN,2024-06-11_13h10.38.305,LearnStrategy,2023.2.3,Win32,143.6781609,7,2,4,,,,,,,,2,06,,,,,,,,,,,2,1.865,1,,,,,,-0.128385417,-0.240885417,1,0,0,1.865,Basalt_rect,3,0,3,0,1,
5f5834134283933a1c3b42d0,TCN,2024-06-11_13h10.38.305,LearnStrategy,2023.2.3,Win32,143.6781609,7,2,5,,,,,,,,3,06,,,,,,,,,,,3,1.28,1,,,,,,0.11953125,-0.252083333,1,0,0,1.28,Diorite_rect,4,0,4,0,1,
5f5834134283933a1c3b42d0,TCN,2024-06-11_13h10.38.305,LearnStrategy,2023.2.3,Win32,143.6781609,7,2,6,,,,,,,,2,10,,,,,,,,,,,5,3.689,0,,,,,,-0.38125,-0.40546875,1,0,0,3.689,Obsidian_rect,5,0,5,0,1,
5f5834134283933a1c3b42d0,TCN,2024-06-11_13h10.38.305,LearnStrategy,2023.2.3,Win32,143.6781609,7,2,7,,,,,,,,5,07,,,,,,,,,,,5,1.097,1,,,,,,-0.35546875,-0.40546875,1,0,0,1.097,Obsidian_rect,6,0,6,0,1,
5f5834134283933a1c3b42d0,TCN,2024-06-11_13h10.38.305,LearnStrategy,2023.2.3,Win32,143.6781609,7,2,8,,,,,,,,7,10,,,,,,,,,,,7,1.168,1,,,,,,0.077083333,-0.403385417,1,0,0,1.168,Peridotite_rect,7,0,7,0,1,
5f5834134283933a1c3b42d0,TCN,2024-06-11_13h10.38.305,LearnStrategy,2023.2.3,Win32,143.6781609,7,2,9,,,,,,,,6,12,,,,,,,,,,,6,1.805,1,,,,,,-0.133333333,-0.397135417,1,0,0,1.805,Pegmatite_rect,8,0,8,0,1,
5f5834134283933a1c3b42d0,TCN,2024-06-11_13h10.38.305,LearnStrategy,2023.2.3,Win32,143.6781609,7,2,10,,,,,,,,4,01,,,,,,,,,,,7,2.839,0,,,,,,0.146614583,-0.410416667,1,0,0,2.839,Peridotite_rect,9,0,9,0,1,
5f5834134283933a1c3b42d0,TCN,2024-06-11_13h10.38.305,LearnStrategy,2023.2.3,Win32,143.6781609,7,2,11,,,,,,,,1,14,,,,,,,,,,,1,2.242,1,,,,,,-0.402604167,-0.25625,1,0,0,2.242,Andesite_rect,10,0,10,0,1,
5f5834134283933a1c3b42d0,TCN,2024-06-11_13h10.38.305,LearnStrategy,2023.2.3,Win32,143.6781609,7,2,12,,,,,,,,8,16,,,,,,,,,,,8,2.117,1,,,,,,0.3828125,-0.40703125,1,0,0,2.117,Pumice_rect,11,0,11,0,1,
5f5834134283933a1c3b42d0,TCN,2024-06-11_13h10.38.305,LearnStrategy,2023.2.3,Win32,143.6781609,7,2,13,,,,,,,,1,03,,,,,,,,,,,2,1.207,0,,,,,,-0.121354167,-0.2625,1,0,0,1.207,Basalt_rect,12,0,12,0,1,
5f5834134283933a1c3b42d0,TCN,2024-06-11_13h10.38.305,LearnStrategy,2023.2.3,Win32,143.6781609,7,2,14,,,,,,,,6,05,,,,,,,,,,,6,1.214,1,,,,,,-0.122916667,-0.402864583,1,0,0,1.214,Pegmatite_rect,13,0,13,0,1,
5f5834134283933a1c3b42d0,TCN,2024-06-11_13h10.38.305,LearnStrategy,2023.2.3,Win32,143.6781609,7,2,15,,,,,,,,4,16,,,,,,,,,,,4,1.294,1,,,,,,0.397916667,-0.24453125,1,0,0,1.294,Gabbro_rect,14,0,14,0,1,
5f5834134283933a1c3b42d0,TCN,2024-06-11_13h10.38.305,LearnStrategy,2023.2.3,Win32,143.6781609,7,2,16,,,,,,,,3,14,,,,,,,,,,,3,1.07,1,,,,,,0.111197917,-0.259635417,1,0,0,1.07,Diorite_rect,15,0,15,0,1,
5f5834134283933a1c3b42d0,TCN,2024-06-11_13h10.38.305,LearnStrategy,2023.2.3,Win32,143.6781609,8,1,1,0.00078125,0.00546875,1,0,0,1.026,rock_grid_rect_2,6,07,-1,-1,1.026,-0.100520833,-0.38828125,1,0,0,1.264,Pegmatite_rect,6,1.264,1,0,0,0,0,1,,,,,,,,,,,,,
5f5834134283933a1c3b42d0,TCN,2024-06-11_13h10.38.305,LearnStrategy,2023.2.3,Win32,143.6781609,8,1,2,-0.01875,-0.010416667,1,0,0,0.916,rock_grid_rect_2,6,03,-1,-1,0.916,-0.121354167,-0.409635417,1,0,0,1.02,Pegmatite_rect,6,1.02,1,1,0,1,0,1,,,,,,,,,,,,,
5f5834134283933a1c3b42d0,TCN,2024-06-11_13h10.38.305,LearnStrategy,2023.2.3,Win32,143.6781609,8,1,3,0.030729167,-0.00546875,1,0,0,0.76,rock_grid_rect_2,5,08,-1,-1,0.76,-0.3546875,-0.415364583,1,0,0,1.012,Obsidian_rect,5,1.012,1,2,0,2,0,1,,,,,,,,,,,,,
5f5834134283933a1c3b42d0,TCN,2024-06-11_13h10.38.305,LearnStrategy,2023.2.3,Win32,143.6781609,8,1,4,0.0515625,0.020833333,1,0,0,0.762,rock_grid_rect_2,2,01,-1,-1,0.762,-0.127604167,-0.271614583,1,0,0,0.936,Basalt_rect,2,0.936,1,3,0,3,0,1,,,,,,,,,,,,,
5f5834134283933a1c3b42d0,TCN,2024-06-11_13h10.38.305,LearnStrategy,2023.2.3,Win32,143.6781609,8,1,5,0.027864583,-0.013802083,1,0,0,0.602,rock_grid_rect_2,8,13,-1,-1,0.602,0.45,-0.40546875,1,0,0,1.092,Pumice_rect,8,1.092,1,4,0,4,0,1,,,,,,,,,,,,,
5f5834134283933a1c3b42d0,TCN,2024-06-11_13h10.38.305,LearnStrategy,2023.2.3,Win32,143.6781609,8,1,6,0.0203125,-0.020052083,1,0,0,0.972,rock_grid_rect_2,2,14,-1,-1,0.972,0.408333333,-0.39921875,1,0,0,1.799,Pumice_rect,8,1.799,0,5,0,5,0,1,,,,,,,,,,,,,
5f5834134283933a1c3b42d0,TCN,2024-06-11_13h10.38.305,LearnStrategy,2023.2.3,Win32,143.6781609,8,1,7,0.0328125,0.02421875,1,0,0,0.642,rock_grid_rect_2,8,10,-1,-1,0.642,0.4328125,-0.414583333,1,0,0,1.25,Pumice_rect,8,1.25,1,6,0,6,0,1,,,,,,,,,,,,,
5f5834134283933a1c3b42d0,TCN,2024-06-11_13h10.38.305,LearnStrategy,2023.2.3,Win32,143.6781609,8,1,8,0.059895833,0.020833333,1,0,0,0.816,rock_grid_rect_2,4,14,-1,-1,0.816,0.3828125,-0.245833333,1,0,0,1.207,Gabbro_rect,4,1.207,1,7,0,7,0,1,,,,,,,,,,,,,
5f5834134283933a1c3b42d0,TCN,2024-06-11_13h10.38.305,LearnStrategy,2023.2.3,Win32,143.6781609,8,1,9,-0.003385417,-0.02421875,1,0,0,0.591,rock_grid_rect_2,1,09,-1,-1,0.591,-0.097916667,-0.240885417,1,0,0,1.195,Basalt_rect,2,1.195,0,8,0,8,0,1,,,,,,,,,,,,,
5f5834134283933a1c3b42d0,TCN,2024-06-11_13h10.38.305,LearnStrategy,2023.2.3,Win32,143.6781609,8,1,10,-0.013802083,0.016666667,1,0,0,0.767,rock_grid_rect_2,5,05,-1,-1,0.767,-0.344270833,-0.409635417,1,0,0,1.406,Obsidian_rect,5,1.406,1,9,0,9,0,1,,,,,,,,,,,,,
5f5834134283933a1c3b42d0,TCN,2024-06-11_13h10.38.305,LearnStrategy,2023.2.3,Win32,143.6781609,8,1,11,-0.052083333,0.002864583,1,0,0,0.751,rock_grid_rect_2,7,05,-1,-1,0.751,0.110416667,-0.41953125,1,0,0,1.942,Peridotite_rect,7,1.942,1,10,0,10,0,1,,,,,,,,,,,,,
5f5834134283933a1c3b42d0,TCN,2024-06-11_13h10.38.305,LearnStrategy,2023.2.3,Win32,143.6781609,8,1,12,0.040364583,-0.00703125,1,0,0,0.643,rock_grid_rect_2,3,02,-1,-1,0.643,0.1578125,-0.253385417,1,0,0,1.158,Diorite_rect,3,1.158,1,11,0,11,0,1,,,,,,,,,,,,,
5f5834134283933a1c3b42d0,TCN,2024-06-11_13h10.38.305,LearnStrategy,2023.2.3,Win32,143.6781609,8,1,13,0.0265625,-0.021614583,1,0,0,0.755,rock_grid_rect_2,1,10,-1,-1,0.755,-0.428385417,-0.261197917,1,0,0,1.404,Andesite_rect,1,1.404,1,12,0,12,0,1,,,,,,,,,,,,,
5f5834134283933a1c3b42d0,TCN,2024-06-11_13h10.38.305,LearnStrategy,2023.2.3,Win32,143.6781609,8,1,14,0.009114583,-0.00625,1,0,0,0.975,rock_grid_rect_2,4,10,-1,-1,0.975,0.43125,-0.245833333,1,0,0,1.13,Gabbro_rect,4,1.13,1,13,0,13,0,1,,,,,,,,,,,,,
5f5834134283933a1c3b42d0,TCN,2024-06-11_13h10.38.305,LearnStrategy,2023.2.3,Win32,143.6781609,8,1,15,-0.014583333,0.002083333,1,0,0,0.651,rock_grid_rect_2,7,04,-1,-1,0.651,0.154947917,-0.40546875,1,0,0,1.221,Peridotite_rect,7,1.221,1,14,0,14,0,1,,,,,,,,,,,,,
5f5834134283933a1c3b42d0,TCN,2024-06-11_13h10.38.305,LearnStrategy,2023.2.3,Win32,143.6781609,8,1,16,-0.007552083,-0.013802083,1,0,0,1.128,rock_grid_rect_2,3,07,-1,-1,1.128,0.125,-0.25078125,1,0,0,1.022,Diorite_rect,3,1.022,1,15,0,15,0,1,,,,,,,,,,,,,
5f5834134283933a1c3b42d0,TCN,2024-06-11_13h10.38.305,LearnStrategy,2023.2.3,Win32,143.6781609,8,2,1,,,,,,,,5,12,,,,,,,,,,,5,1.088,1,,,,,,-0.39296875,-0.40078125,1,0,0,1.088,Obsidian_rect,0,0,0,0,1,
5f5834134283933a1c3b42d0,TCN,2024-06-11_13h10.38.305,LearnStrategy,2023.2.3,Win32,143.6781609,8,2,2,,,,,,,,7,15,,,,,,,,,,,7,1.276,1,,,,,,0.1140625,-0.398697917,1,0,0,1.276,Peridotite_rect,1,0,1,0,1,
5f5834134283933a1c3b42d0,TCN,2024-06-11_13h10.38.305,LearnStrategy,2023.2.3,Win32,143.6781609,8,2,3,,,,,,,,7,02,,,,,,,,,,,7,1.491,1,,,,,,0.121614583,-0.40078125,1,0,0,1.491,Peridotite_rect,2,0,2,0,1,
5f5834134283933a1c3b42d0,TCN,2024-06-11_13h10.38.305,LearnStrategy,2023.2.3,Win32,143.6781609,8,2,4,,,,,,,,3,16,,,,,,,,,,,3,1.077,1,,,,,,0.1078125,-0.259635417,1,0,0,1.077,Diorite_rect,3,0,3,0,1,
5f5834134283933a1c3b42d0,TCN,2024-06-11_13h10.38.305,LearnStrategy,2023.2.3,Win32,143.6781609,8,2,5,,,,,,,,6,10,,,,,,,,,,,6,1.664,1,,,,,,-0.09296875,-0.401302083,1,0,0,1.664,Pegmatite_rect,4,0,4,0,1,
5f5834134283933a1c3b42d0,TCN,2024-06-11_13h10.38.305,LearnStrategy,2023.2.3,Win32,143.6781609,8,2,6,,,,,,,,4,08,,,,,,,,,,,4,2.683,1,,,,,,0.4328125,-0.245052083,1,0,0,2.683,Gabbro_rect,5,0,5,0,1,
5f5834134283933a1c3b42d0,TCN,2024-06-11_13h10.38.305,LearnStrategy,2023.2.3,Win32,143.6781609,8,2,7,,,,,,,,6,06,,,,,,,,,,,6,1.37,1,,,,,,-0.107552083,-0.389583333,1,0,0,1.37,Pegmatite_rect,6,0,6,0,1,
5f5834134283933a1c3b42d0,TCN,2024-06-11_13h10.38.305,LearnStrategy,2023.2.3,Win32,143.6781609,8,2,8,,,,,,,,8,15,,,,,,,,,,,8,1.125,1,,,,,,0.3453125,-0.384114583,1,0,0,1.125,Pumice_rect,7,0,7,0,1,
5f5834134283933a1c3b42d0,TCN,2024-06-11_13h10.38.305,LearnStrategy,2023.2.3,Win32,143.6781609,8,2,9,,,,,,,,2,16,,,,,,,,,,,2,1.507,1,,,,,,-0.0859375,-0.247135417,1,0,0,1.507,Basalt_rect,8,0,8,0,1,
5f5834134283933a1c3b42d0,TCN,2024-06-11_13h10.38.305,LearnStrategy,2023.2.3,Win32,143.6781609,8,2,10,,,,,,,,4,13,,,,,,,,,,,4,1.339,1,,,,,,0.40078125,-0.248697917,1,0,0,1.339,Gabbro_rect,9,0,9,0,1,
5f5834134283933a1c3b42d0,TCN,2024-06-11_13h10.38.305,LearnStrategy,2023.2.3,Win32,143.6781609,8,2,11,,,,,,,,8,03,,,,,,,,,,,8,1.29,1,,,,,,0.365364583,-0.41796875,1,0,0,1.29,Pumice_rect,10,0,10,0,1,
5f5834134283933a1c3b42d0,TCN,2024-06-11_13h10.38.305,LearnStrategy,2023.2.3,Win32,143.6781609,8,2,12,,,,,,,,3,11,,,,,,,,,,,3,1.033,1,,,,,,0.120833333,-0.259114583,1,0,0,1.033,Diorite_rect,11,0,11,0,1,
5f5834134283933a1c3b42d0,TCN,2024-06-11_13h10.38.305,LearnStrategy,2023.2.3,Win32,143.6781609,8,2,13,,,,,,,,1,07,,,,,,,,,,,1,1.405,1,,,,,,-0.375520833,-0.2625,1,0,0,1.405,Andesite_rect,12,0,12,0,1,
5f5834134283933a1c3b42d0,TCN,2024-06-11_13h10.38.305,LearnStrategy,2023.2.3,Win32,143.6781609,8,2,14,,,,,,,,5,09,,,,,,,,,,,5,2.035,1,,,,,,-0.371354167,-0.4125,1,0,0,2.035,Obsidian_rect,13,0,13,0,1,
5f5834134283933a1c3b42d0,TCN,2024-06-11_13h10.38.305,LearnStrategy,2023.2.3,Win32,143.6781609,8,2,15,,,,,,,,1,06,,,,,,,,,,,1,3.076,1,,,,,,-0.415885417,-0.25078125,1,0,0,3.076,Andesite_rect,14,0,14,0,1,
5f5834134283933a1c3b42d0,TCN,2024-06-11_13h10.38.305,LearnStrategy,2023.2.3,Win32,143.6781609,8,2,16,,,,,,,,2,12,,,,,,,,,,,2,1.528,1,,,,,,-0.108854167,-0.261197917,1,0,0,1.528,Basalt_rect,15,0,15,0,1,
5f5834134283933a1c3b42d0,TCN,2024-06-11_13h10.38.305,LearnStrategy,2023.2.3,Win32,143.6781609,9,1,1,0.0140625,0.013802083,1,0,0,0.963,rock_grid_rect_2,8,06,-1,-1,0.963,0.4203125,-0.407552083,1,0,0,1.606,Pumice_rect,8,1.606,1,0,0,0,0,1,,,,,,,,,,,,,
5f5834134283933a1c3b42d0,TCN,2024-06-11_13h10.38.305,LearnStrategy,2023.2.3,Win32,143.6781609,9,1,2,0.030729167,-0.009114583,1,0,0,1.233,rock_grid_rect_2,6,16,-1,-1,1.233,-0.07421875,-0.39921875,1,0,0,1.401,Pegmatite_rect,6,1.401,1,1,0,1,0,1,,,,,,,,,,,,,
5f5834134283933a1c3b42d0,TCN,2024-06-11_13h10.38.305,LearnStrategy,2023.2.3,Win32,143.6781609,9,1,3,0.03125,-0.014583333,1,0,0,0.931,rock_grid_rect_2,2,11,-1,-1,0.931,-0.152083333,-0.24453125,1,0,0,1.612,Basalt_rect,2,1.612,1,2,0,2,0,1,,,,,,,,,,,,,
5f5834134283933a1c3b42d0,TCN,2024-06-11_13h10.38.305,LearnStrategy,2023.2.3,Win32,143.6781609,9,1,4,-0.0125,0.001302083,1,0,0,0.965,rock_grid_rect_2,5,04,-1,-1,0.965,-0.364583333,-0.402864583,1,0,0,1.242,Obsidian_rect,5,1.242,1,3,0,3,0,1,,,,,,,,,,,,,
5f5834134283933a1c3b42d0,TCN,2024-06-11_13h10.38.305,LearnStrategy,2023.2.3,Win32,143.6781609,9,1,5,-0.0171875,0.014583333,1,0,0,1.242,rock_grid_rect_2,7,14,-1,-1,1.242,0.139583333,-0.395833333,1,0,0,1.339,Peridotite_rect,7,1.339,1,4,0,4,0,1,,,,,,,,,,,,,
5f5834134283933a1c3b42d0,TCN,2024-06-11_13h10.38.305,LearnStrategy,2023.2.3,Win32,143.6781609,9,1,6,0.0125,0.004947917,1,0,0,0.66,rock_grid_rect_2,1,05,-1,-1,0.66,-0.445052083,-0.24921875,1,0,0,1.877,Andesite_rect,1,1.877,1,5,0,5,0,1,,,,,,,,,,,,,
5f5834134283933a1c3b42d0,TCN,2024-06-11_13h10.38.305,LearnStrategy,2023.2.3,Win32,143.6781609,9,1,7,0.0140625,-0.015364583,1,0,0,0.757,rock_grid_rect_2,4,09,-1,-1,0.757,0.45,-0.246614583,1,0,0,1.964,Gabbro_rect,4,1.964,1,6,0,6,0,1,,,,,,,,,,,,,
5f5834134283933a1c3b42d0,TCN,2024-06-11_13h10.38.305,LearnStrategy,2023.2.3,Win32,143.6781609,9,1,8,-0.0734375,-0.002864583,1,0,0,1.029,rock_grid_rect_2,4,12,-1,-1,1.029,0.391145833,-0.245052083,1,0,0,3.785,Gabbro_rect,4,3.785,1,7,0,7,0,1,,,,,,,,,,,,,
5f5834134283933a1c3b42d0,TCN,2024-06-11_13h10.38.305,LearnStrategy,2023.2.3,Win32,143.6781609,9,1,9,-0.020052083,-0.010416667,1,0,0,0.648,rock_grid_rect_2,8,02,-1,-1,0.648,0.391145833,-0.398697917,1,0,0,1.189,Pumice_rect,8,1.189,1,8,0,8,0,1,,,,,,,,,,,,,
5f5834134283933a1c3b42d0,TCN,2024-06-11_13h10.38.305,LearnStrategy,2023.2.3,Win32,143.6781609,9,1,10,0.0265625,-0.013802083,1,0,0,0.922,rock_grid_rect_2,6,08,-1,-1,0.922,-0.138802083,-0.397135417,1,0,0,1.143,Pegmatite_rect,6,1.143,1,9,0,9,0,1,,,,,,,,,,,,,
5f5834134283933a1c3b42d0,TCN,2024-06-11_13h10.38.305,LearnStrategy,2023.2.3,Win32,143.6781609,9,1,11,-0.014583333,0.002083333,1,0,0,1.143,rock_grid_rect_2,1,11,-1,-1,1.143,-0.394270833,-0.252083333,1,0,0,1.899,Andesite_rect,1,1.899,1,10,0,10,0,1,,,,,,,,,,,,,
5f5834134283933a1c3b42d0,TCN,2024-06-11_13h10.38.305,LearnStrategy,2023.2.3,Win32,143.6781609,9,1,12,0.025,0.01328125,1,0,0,0.645,rock_grid_rect_2,5,10,-1,-1,0.645,-0.365104167,-0.395052083,1,0,0,1.013,Obsidian_rect,5,1.013,1,11,0,11,0,1,,,,,,,,,,,,,
5f5834134283933a1c3b42d0,TCN,2024-06-11_13h10.38.305,LearnStrategy,2023.2.3,Win32,143.6781609,9,1,13,0.0265625,0.00625,1,0,0,0.858,rock_grid_rect_2,2,08,-1,-1,0.858,-0.120052083,-0.25,1,0,0,1.845,Basalt_rect,2,1.845,1,12,0,12,0,1,,,,,,,,,,,,,
5f5834134283933a1c3b42d0,TCN,2024-06-11_13h10.38.305,LearnStrategy,2023.2.3,Win32,143.6781609,9,1,14,0.00703125,0.021614583,1,0,0,0.642,rock_grid_rect_2,3,09,-1,-1,0.642,0.1203125,-0.247135417,1,0,0,1.073,Diorite_rect,3,1.073,1,13,0,13,0,1,,,,,,,,,,,,,
5f5834134283933a1c3b42d0,TCN,2024-06-11_13h10.38.305,LearnStrategy,2023.2.3,Win32,143.6781609,9,1,15,-0.0234375,-0.023697917,1,0,0,0.777,rock_grid_rect_2,7,13,-1,-1,0.777,0.130729167,-0.409635417,1,0,0,0.943,Peridotite_rect,7,0.943,1,14,0,14,0,1,,,,,,,,,,,,,
5f5834134283933a1c3b42d0,TCN,2024-06-11_13h10.38.305,LearnStrategy,2023.2.3,Win32,143.6781609,9,1,16,-0.0234375,-0.009635417,1,0,0,0.753,rock_grid_rect_2,3,12,-1,-1,0.753,0.111979167,-0.254947917,1,0,0,1.127,Diorite_rect,3,1.127,1,15,0,15,0,1,,,,,,,,,,,,,
5f5834134283933a1c3b42d0,TCN,2024-06-11_13h10.38.305,LearnStrategy,2023.2.3,Win32,143.6781609,9,2,1,,,,,,,,8,04,,,,,,,,,,,8,1.016,1,,,,,,0.4140625,-0.416666667,1,0,0,1.016,Pumice_rect,0,0,0,0,1,
5f5834134283933a1c3b42d0,TCN,2024-06-11_13h10.38.305,LearnStrategy,2023.2.3,Win32,143.6781609,9,2,2,,,,,,,,2,04,,,,,,,,,,,2,3.504,1,,,,,,-0.107552083,-0.253385417,1,0,0,3.504,Basalt_rect,1,0,1,0,1,
5f5834134283933a1c3b42d0,TCN,2024-06-11_13h10.38.305,LearnStrategy,2023.2.3,Win32,143.6781609,9,2,3,,,,,,,,7,06,,,,,,,,,,,7,2.627,1,,,,,,0.149479167,-0.404166667,1,0,0,2.627,Peridotite_rect,2,0,2,0,1,
5f5834134283933a1c3b42d0,TCN,2024-06-11_13h10.38.305,LearnStrategy,2023.2.3,Win32,143.6781609,9,2,4,,,,,,,,5,11,,,,,,,,,,,5,1.094,1,,,,,,-0.360416667,-0.40625,1,0,0,1.094,Obsidian_rect,3,0,3,0,1,
5f5834134283933a1c3b42d0,TCN,2024-06-11_13h10.38.305,LearnStrategy,2023.2.3,Win32,143.6781609,9,2,5,,,,,,,,3,10,,,,,,,,,,,3,1.754,1,,,,,,0.127083333,-0.26171875,1,0,0,1.754,Diorite_rect,4,0,4,0,1,
5f5834134283933a1c3b42d0,TCN,2024-06-11_13h10.38.305,LearnStrategy,2023.2.3,Win32,143.6781609,9,2,6,,,,,,,,1,01,,,,,,,,,,,4,7.912,0,,,,,,0.359895833,-0.245833333,1,0,0,7.912,Gabbro_rect,5,0,5,0,1,
5f5834134283933a1c3b42d0,TCN,2024-06-11_13h10.38.305,LearnStrategy,2023.2.3,Win32,143.6781609,9,2,7,,,,,,,,2,02,,,,,,,,,,,2,1.99,1,,,,,,-0.120052083,-0.257552083,1,0,0,1.99,Basalt_rect,6,0,6,0,1,
5f5834134283933a1c3b42d0,TCN,2024-06-11_13h10.38.305,LearnStrategy,2023.2.3,Win32,143.6781609,9,2,8,,,,,,,,7,12,,,,,,,,,,,7,1.385,1,,,,,,0.10625,-0.402083333,1,0,0,1.385,Peridotite_rect,7,0,7,0,1,
5f5834134283933a1c3b42d0,TCN,2024-06-11_13h10.38.305,LearnStrategy,2023.2.3,Win32,143.6781609,9,2,9,,,,,,,,4,03,,,,,,,,,,,3,1.438,0,,,,,,0.114583333,-0.248697917,1,0,0,1.438,Diorite_rect,8,0,8,0,1,
5f5834134283933a1c3b42d0,TCN,2024-06-11_13h10.38.305,LearnStrategy,2023.2.3,Win32,143.6781609,9,2,10,,,,,,,,4,15,,,,,,,,,,,4,1.56,1,,,,,,0.414583333,-0.235416667,1,0,0,1.56,Gabbro_rect,9,0,9,0,1,
5f5834134283933a1c3b42d0,TCN,2024-06-11_13h10.38.305,LearnStrategy,2023.2.3,Win32,143.6781609,9,2,11,,,,,,,,5,02,,,,,,,,,,,5,1.065,1,,,,,,-0.421354167,-0.40703125,1,0,0,1.065,Obsidian_rect,10,0,10,0,1,
5f5834134283933a1c3b42d0,TCN,2024-06-11_13h10.38.305,LearnStrategy,2023.2.3,Win32,143.6781609,9,2,12,,,,,,,,6,11,,,,,,,,,,,6,1.142,1,,,,,,-0.144270833,-0.402083333,1,0,0,1.142,Pegmatite_rect,11,0,11,0,1,
5f5834134283933a1c3b42d0,TCN,2024-06-11_13h10.38.305,LearnStrategy,2023.2.3,Win32,143.6781609,9,2,13,,,,,,,,6,15,,,,,,,,,,,6,1.177,1,,,,,,-0.154166667,-0.416666667,1,0,0,1.177,Pegmatite_rect,12,0,12,0,1,
5f5834134283933a1c3b42d0,TCN,2024-06-11_13h10.38.305,LearnStrategy,2023.2.3,Win32,143.6781609,9,2,14,,,,,,,,3,08,,,,,,,,,,,3,1.167,1,,,,,,0.097916667,-0.260416667,1,0,0,1.167,Diorite_rect,13,0,13,0,1,
5f5834134283933a1c3b42d0,TCN,2024-06-11_13h10.38.305,LearnStrategy,2023.2.3,Win32,143.6781609,9,2,15,,,,,,,,8,05,,,,,,,,,,,8,1.125,1,,,,,,0.447395833,-0.403385417,1,0,0,1.125,Pumice_rect,14,0,14,0,1,
5f5834134283933a1c3b42d0,TCN,2024-06-11_13h10.38.305,LearnStrategy,2023.2.3,Win32,143.6781609,9,2,16,,,,,,,,1,04,,,,,,,,,,,1,1.979,1,,,,,,-0.365104167,-0.2375,1,0,0,1.979,Andesite_rect,15,0,15,0,1,
5f5834134283933a1c3b42d0,TCN,2024-06-11_13h10.38.305,LearnStrategy,2023.2.3,Win32,143.6781609,,,,,,,,,,,,,,,,,,,,,,,,,,,,,,,,,,,,,,,,,,,1
5f5834134283933a1c3b42d0,TCN,2024-06-11_13h10.38.305,LearnStrategy,2023.2.3,Win32,143.6781609,,,,,,,,,,,,,,,,,,,,,,,,,,,,,,,,,,,,,,,,,,,
5f5834134283933a1c3b42d0,TCN,2024-06-11_13h10.38.305,LearnStrategy,2023.2.3,Win32,143.6781609,,,,,,,,,,,6,16,1,1,,,,,,,,,,,,,,,,,,,,,,,,,,,,,
5f5834134283933a1c3b42d0,TCN,2024-06-11_13h10.38.305,LearnStrategy,2023.2.3,Win32,143.6781609,,,,,,,,,,,5,08,1,2,,,,,,,,,,,,,,,,,,,,,,,,,,,,,
5f5834134283933a1c3b42d0,TCN,2024-06-11_13h10.38.305,LearnStrategy,2023.2.3,Win32,143.6781609,,,,,,,,,,,7,04,1,3,,,,,,,,,,,,,,,,,,,,,,,,,,,,,
5f5834134283933a1c3b42d0,TCN,2024-06-11_13h10.38.305,LearnStrategy,2023.2.3,Win32,143.6781609,,,,,,,,,,,4,12,1,4,,,,,,,,,,,,,,,,,,,,,,,,,,,,,
5f5834134283933a1c3b42d0,TCN,2024-06-11_13h10.38.305,LearnStrategy,2023.2.3,Win32,143.6781609,,,,,,,,,,,6,03,1,5,,,,,,,,,,,,,,,,,,,,,,,,,,,,,
5f5834134283933a1c3b42d0,TCN,2024-06-11_13h10.38.305,LearnStrategy,2023.2.3,Win32,143.6781609,,,,,,,,,,,3,09,1,6,,,,,,,,,,,,,,,,,,,,,,,,,,,,,
5f5834134283933a1c3b42d0,TCN,2024-06-11_13h10.38.305,LearnStrategy,2023.2.3,Win32,143.6781609,,,,,,,,,,,1,10,1,7,,,,,,,,,,,,,,,,,,,,,,,,,,,,,
5f5834134283933a1c3b42d0,TCN,2024-06-11_13h10.38.305,LearnStrategy,2023.2.3,Win32,143.6781609,,,,,,,,,,,7,08,1,8,,,,,,,,,,,,,,,,,,,,,,,,,,,,,
5f5834134283933a1c3b42d0,TCN,2024-06-11_13h10.38.305,LearnStrategy,2023.2.3,Win32,143.6781609,,,,,,,,,,,5,04,2,1,,,,,,,,,,,,,,,,,,,,,,,,,,,,,
5f5834134283933a1c3b42d0,TCN,2024-06-11_13h10.38.305,LearnStrategy,2023.2.3,Win32,143.6781609,,,,,,,,,,,4,05,2,2,,,,,,,,,,,,,,,,,,,,,,,,,,,,,
5f5834134283933a1c3b42d0,TCN,2024-06-11_13h10.38.305,LearnStrategy,2023.2.3,Win32,143.6781609,,,,,,,,,,,3,12,2,3,,,,,,,,,,,,,,,,,,,,,,,,,,,,,
5f5834134283933a1c3b42d0,TCN,2024-06-11_13h10.38.305,LearnStrategy,2023.2.3,Win32,143.6781609,,,,,,,,,,,2,14,2,4,,,,,,,,,,,,,,,,,,,,,,,,,,,,,
5f5834134283933a1c3b42d0,TCN,2024-06-11_13h10.38.305,LearnStrategy,2023.2.3,Win32,143.6781609,,,,,,,,,,,4,09,2,5,,,,,,,,,,,,,,,,,,,,,,,,,,,,,
5f5834134283933a1c3b42d0,TCN,2024-06-11_13h10.38.305,LearnStrategy,2023.2.3,Win32,143.6781609,,,,,,,,,,,2,05,2,6,,,,,,,,,,,,,,,,,,,,,,,,,,,,,
5f5834134283933a1c3b42d0,TCN,2024-06-11_13h10.38.305,LearnStrategy,2023.2.3,Win32,143.6781609,,,,,,,,,,,1,09,2,7,,,,,,,,,,,,,,,,,,,,,,,,,,,,,
5f5834134283933a1c3b42d0,TCN,2024-06-11_13h10.38.305,LearnStrategy,2023.2.3,Win32,143.6781609,,,,,,,,,,,1,02,2,8,,,,,,,,,,,,,,,,,,,,,,,,,,,,,
5f5834134283933a1c3b42d0,TCN,2024-06-11_13h10.38.305,LearnStrategy,2023.2.3,Win32,143.6781609,,,,,,,,,,,1,05,3,1,,,,,,,,,,,,,,,,,,,,,,,,,,,,,
5f5834134283933a1c3b42d0,TCN,2024-06-11_13h10.38.305,LearnStrategy,2023.2.3,Win32,143.6781609,,,,,,,,,,,3,02,3,2,,,,,,,,,,,,,,,,,,,,,,,,,,,,,
5f5834134283933a1c3b42d0,TCN,2024-06-11_13h10.38.305,LearnStrategy,2023.2.3,Win32,143.6781609,,,,,,,,,,,6,07,3,3,,,,,,,,,,,,,,,,,,,,,,,,,,,,,
5f5834134283933a1c3b42d0,TCN,2024-06-11_13h10.38.305,LearnStrategy,2023.2.3,Win32,143.6781609,,,,,,,,,,,7,07,3,4,,,,,,,,,,,,,,,,,,,,,,,,,,,,,
5f5834134283933a1c3b42d0,TCN,2024-06-11_13h10.38.305,LearnStrategy,2023.2.3,Win32,143.6781609,,,,,,,,,,,4,11,3,5,,,,,,,,,,,,,,,,,,,,,,,,,,,,,
5f5834134283933a1c3b42d0,TCN,2024-06-11_13h10.38.305,LearnStrategy,2023.2.3,Win32,143.6781609,,,,,,,,,,,4,10,3,6,,,,,,,,,,,,,,,,,,,,,,,,,,,,,
5f5834134283933a1c3b42d0,TCN,2024-06-11_13h10.38.305,LearnStrategy,2023.2.3,Win32,143.6781609,,,,,,,,,,,3,15,3,7,,,,,,,,,,,,,,,,,,,,,,,,,,,,,
5f5834134283933a1c3b42d0,TCN,2024-06-11_13h10.38.305,LearnStrategy,2023.2.3,Win32,143.6781609,,,,,,,,,,,2,01,3,8,,,,,,,,,,,,,,,,,,,,,,,,,,,,,
5f5834134283933a1c3b42d0,TCN,2024-06-11_13h10.38.305,LearnStrategy,2023.2.3,Win32,143.6781609,,,,,,,,,,,5,10,4,1,,,,,,,,,,,,,,,,,,,,,,,,,,,,,
5f5834134283933a1c3b42d0,TCN,2024-06-11_13h10.38.305,LearnStrategy,2023.2.3,Win32,143.6781609,,,,,,,,,,,2,11,4,2,,,,,,,,,,,,,,,,,,,,,,,,,,,,,
5f5834134283933a1c3b42d0,TCN,2024-06-11_13h10.38.305,LearnStrategy,2023.2.3,Win32,143.6781609,,,,,,,,,,,8,10,4,3,,,,,,,,,,,,,,,,,,,,,,,,,,,,,
5f5834134283933a1c3b42d0,TCN,2024-06-11_13h10.38.305,LearnStrategy,2023.2.3,Win32,143.6781609,,,,,,,,,,,7,14,4,4,,,,,,,,,,,,,,,,,,,,,,,,,,,,,
5f5834134283933a1c3b42d0,TCN,2024-06-11_13h10.38.305,LearnStrategy,2023.2.3,Win32,143.6781609,,,,,,,,,,,4,14,4,5,,,,,,,,,,,,,,,,,,,,,,,,,,,,,
5f5834134283933a1c3b42d0,TCN,2024-06-11_13h10.38.305,LearnStrategy,2023.2.3,Win32,143.6781609,,,,,,,,,,,1,11,4,6,,,,,,,,,,,,,,,,,,,,,,,,,,,,,
5f5834134283933a1c3b42d0,TCN,2024-06-11_13h10.38.305,LearnStrategy,2023.2.3,Win32,143.6781609,,,,,,,,,,,5,14,4,7,,,,,,,,,,,,,,,,,,,,,,,,,,,,,
5f5834134283933a1c3b42d0,TCN,2024-06-11_13h10.38.305,LearnStrategy,2023.2.3,Win32,143.6781609,,,,,,,,,,,2,08,4,8,,,,,,,,,,,,,,,,,,,,,,,,,,,,,
5f5834134283933a1c3b42d0,TCN,2024-06-11_13h10.38.305,LearnStrategy,2023.2.3,Win32,143.6781609,,,,,,,,,,,3,07,5,1,,,,,,,,,,,,,,,,,,,,,,,,,,,,,
5f5834134283933a1c3b42d0,TCN,2024-06-11_13h10.38.305,LearnStrategy,2023.2.3,Win32,143.6781609,,,,,,,,,,,8,13,5,2,,,,,,,,,,,,,,,,,,,,,,,,,,,,,
5f5834134283933a1c3b42d0,TCN,2024-06-11_13h10.38.305,LearnStrategy,2023.2.3,Win32,143.6781609,,,,,,,,,,,7,13,5,3,,,,,,,,,,,,,,,,,,,,,,,,,,,,,
5f5834134283933a1c3b42d0,TCN,2024-06-11_13h10.38.305,LearnStrategy,2023.2.3,Win32,143.6781609,,,,,,,,,,,8,08,5,4,,,,,,,,,,,,,,,,,,,,,,,,,,,,,
5f5834134283933a1c3b42d0,TCN,2024-06-11_13h10.38.305,LearnStrategy,2023.2.3,Win32,143.6781609,,,,,,,,,,,6,08,5,5,,,,,,,,,,,,,,,,,,,,,,,,,,,,,
5f5834134283933a1c3b42d0,TCN,2024-06-11_13h10.38.305,LearnStrategy,2023.2.3,Win32,143.6781609,,,,,,,,,,,8,06,5,6,,,,,,,,,,,,,,,,,,,,,,,,,,,,,
5f5834134283933a1c3b42d0,TCN,2024-06-11_13h10.38.305,LearnStrategy,2023.2.3,Win32,143.6781609,,,,,,,,,,,6,09,5,7,,,,,,,,,,,,,,,,,,,,,,,,,,,,,
5f5834134283933a1c3b42d0,TCN,2024-06-11_13h10.38.305,LearnStrategy,2023.2.3,Win32,143.6781609,,,,,,,,,,,3,13,5,8,,,,,,,,,,,,,,,,,,,,,,,,,,,,,
5f5834134283933a1c3b42d0,TCN,2024-06-11_13h10.38.305,LearnStrategy,2023.2.3,Win32,143.6781609,,,,,,,,,,,8,02,6,1,,,,,,,,,,,,,,,,,,,,,,,,,,,,,
5f5834134283933a1c3b42d0,TCN,2024-06-11_13h10.38.305,LearnStrategy,2023.2.3,Win32,143.6781609,,,,,,,,,,,6,13,6,2,,,,,,,,,,,,,,,,,,,,,,,,,,,,,
5f5834134283933a1c3b42d0,TCN,2024-06-11_13h10.38.305,LearnStrategy,2023.2.3,Win32,143.6781609,,,,,,,,,,,7,05,6,3,,,,,,,,,,,,,,,,,,,,,,,,,,,,,
5f5834134283933a1c3b42d0,TCN,2024-06-11_13h10.38.305,LearnStrategy,2023.2.3,Win32,143.6781609,,,,,,,,,,,5,16,6,4,,,,,,,,,,,,,,,,,,,,,,,,,,,,,
5f5834134283933a1c3b42d0,TCN,2024-06-11_13h10.38.305,LearnStrategy,2023.2.3,Win32,143.6781609,,,,,,,,,,,8,14,6,5,,,,,,,,,,,,,,,,,,,,,,,,,,,,,
5f5834134283933a1c3b42d0,TCN,2024-06-11_13h10.38.305,LearnStrategy,2023.2.3,Win32,143.6781609,,,,,,,,,,,1,16,6,6,,,,,,,,,,,,,,,,,,,,,,,,,,,,,
5f5834134283933a1c3b42d0,TCN,2024-06-11_13h10.38.305,LearnStrategy,2023.2.3,Win32,143.6781609,,,,,,,,,,,5,05,6,7,,,,,,,,,,,,,,,,,,,,,,,,,,,,,
5f5834134283933a1c3b42d0,TCN,2024-06-11_13h10.38.305,LearnStrategy,2023.2.3,Win32,143.6781609,,,,,,,,,,,2,09,6,8,,,,,,,,,,,,,,,,,,,,,,,,,,,,,