participant,condition,date,expName,psychopyVersion,OS,frameRate,block,phase,trial,learn_mouse.x,learn_mouse.y,learn_mouse.leftButton,learn_mouse.midButton,learn_mouse.rightButton,learn_mouse.time,learn_mouse.clicked_name,cat,token,row,col,t_select,cat_mouse_l.x,cat_mouse_l.y,cat_mouse_l.leftButton,cat_mouse_l.midButton,cat_mouse_l.rightButton,cat_mouse_l.time,cat_mouse_l.clicked_name,resp,t_resp,corr,train_trials.thisRepN,train_trials.thisTrialN,train_trials.thisN,train_trials.thisIndex,train_trials.ran,cat_mouse_t.x,cat_mouse_t.y,cat_mouse_t.leftButton,cat_mouse_t.midButton,cat_mouse_t.rightButton,cat_mouse_t.time,cat_mouse_t.clicked_name,test_trials.thisRepN,test_trials.thisTrialN,test_trials.thisN,test_trials.thisIndex,test_trials.ran,Bonus
5f6136ff23e5260b6cf1f33c,SCN,2024-06-12_12h37.41.027,LearnStrategy,2023.2.3,Win32,60.24096386,,,,,,,,,,,,,,,,,,,,,,,,,,,,,,,,,,,,,,,,,,,
5f6136ff23e5260b6cf1f33c,SCN,2024-06-12_12h37.41.027,LearnStrategy,2023.2.3,Win32,60.24096386,1,1,1,-0.524074074,0.392592593,1,0,0,2.2016,Andesite_03,1,03,6,1,2.202,-0.323148148,-0.231481481,1,0,0,2.2796,Andesite_rect,1,2.28,1,0,0,0,0,1,,,,,,,,,,,,,
5f6136ff23e5260b6cf1f33c,SCN,2024-06-12_12h37.41.027,LearnStrategy,2023.2.3,Win32,60.24096386,1,1,2,-0.372222222,0.243518519,1,0,0,1.4484,Obsidian_11,5,11,5,2,1.448,-0.385185185,-0.410185185,1,0,0,1.0266,Obsidian_rect,5,1.027,1,1,0,1,0,1,,,,,,,,,,,,,
5f6136ff23e5260b6cf1f33c,SCN,2024-06-12_12h37.41.027,LearnStrategy,2023.2.3,Win32,60.24096386,1,1,3,-0.519444444,-0.098148148,1,0,0,1.5319,Peridotite_13,7,13,3,1,1.532,0.136111111,-0.419444444,1,0,0,3.1854,Peridotite_rect,7,3.185,1,2,0,2,0,1,,,,,,,,,,,,,
5f6136ff23e5260b6cf1f33c,SCN,2024-06-12_12h37.41.027,LearnStrategy,2023.2.3,Win32,60.24096386,1,1,4,-0.364814815,-0.12037037,1,0,0,1.4809,Gabbro_12,4,12,3,2,1.481,-0.150925926,-0.239814815,1,0,0,0.945,Basalt_rect,2,0.945,0,3,0,3,0,1,,,,,,,,,,,,,
5f6136ff23e5260b6cf1f33c,SCN,2024-06-12_12h37.41.027,LearnStrategy,2023.2.3,Win32,60.24096386,1,1,5,0.388888889,0.22037037,1,0,0,3.1682,Gabbro_11,4,11,5,7,3.168,0.324074074,-0.261111111,1,0,0,1.0965,Gabbro_rect,4,1.097,1,4,0,4,0,1,,,,,,,,,,,,,
5f6136ff23e5260b6cf1f33c,SCN,2024-06-12_12h37.41.027,LearnStrategy,2023.2.3,Win32,60.24096386,1,1,6,0.218518519,-0.108333333,1,0,0,1.6174,Andesite_16,1,16,3,6,1.617,-0.067592593,-0.235185185,1,0,0,0.7813,Basalt_rect,2,0.781,0,5,0,5,0,1,,,,,,,,,,,,,
5f6136ff23e5260b6cf1f33c,SCN,2024-06-12_12h37.41.027,LearnStrategy,2023.2.3,Win32,60.24096386,1,1,7,-0.067592593,0.257407407,1,0,0,1.8843,Diorite_08,3,08,5,4,1.884,0.086111111,-0.238888889,1,0,0,1.1795,Diorite_rect,3,1.179,1,6,0,6,0,1,,,,,,,,,,,,,
5f6136ff23e5260b6cf1f33c,SCN,2024-06-12_12h37.41.027,LearnStrategy,2023.2.3,Win32,60.24096386,1,1,8,-0.090740741,0.097222222,1,0,0,1.3678,Diorite_07,3,07,4,4,1.368,-0.334259259,-0.259259259,1,0,0,2.4802,Andesite_rect,1,2.48,0,7,0,7,0,1,,,,,,,,,,,,,
5f6136ff23e5260b6cf1f33c,SCN,2024-06-12_12h37.41.027,LearnStrategy,2023.2.3,Win32,60.24096386,1,1,9,0.090740741,-0.251851852,1,0,0,1.1631,Diorite_16,3,16,2,5,1.163,-0.306481481,-0.252777778,1,0,0,0.9968,Andesite_rect,1,0.997,0,8,0,8,0,1,,,,,,,,,,,,,
5f6136ff23e5260b6cf1f33c,SCN,2024-06-12_12h37.41.027,LearnStrategy,2023.2.3,Win32,60.24096386,1,1,10,0.04537037,-0.128703704,1,0,0,1.3529,Pumice_08,8,08,3,5,1.353,-0.10462963,-0.410185185,1,0,0,2.047,Pegmatite_rect,6,2.047,0,9,0,9,0,1,,,,,,,,,,,,,
5f6136ff23e5260b6cf1f33c,SCN,2024-06-12_12h37.41.027,LearnStrategy,2023.2.3,Win32,60.24096386,1,1,11,-0.206481481,0.242592593,1,0,0,3.7502,Obsidian_05,5,05,5,3,3.75,-0.319444444,-0.391666667,1,0,0,2.0987,Obsidian_rect,5,2.099,1,10,0,10,0,1,,,,,,,,,,,,,
5f6136ff23e5260b6cf1f33c,SCN,2024-06-12_12h37.41.027,LearnStrategy,2023.2.3,Win32,60.24096386,1,1,12,-0.246296296,-0.285185185,1,0,0,1.0484,Gabbro_15,4,15,2,3,1.048,-0.126851852,-0.24537037,1,0,0,1.2751,Basalt_rect,2,1.275,0,11,0,11,0,1,,,,,,,,,,,,,
5f6136ff23e5260b6cf1f33c,SCN,2024-06-12_12h37.41.027,LearnStrategy,2023.2.3,Win32,60.24096386,1,1,13,-0.361111111,-0.257407407,1,0,0,1.9131,Diorite_15,3,15,2,2,1.913,0.29537037,-0.248148148,1,0,0,1.1591,Gabbro_rect,4,1.159,0,12,0,12,0,1,,,,,,,,,,,,,
5f6136ff23e5260b6cf1f33c,SCN,2024-06-12_12h37.41.027,LearnStrategy,2023.2.3,Win32,60.24096386,1,1,14,-0.030555556,-0.246296296,1,0,0,1.3666,Pumice_06,8,06,2,4,1.367,0.140740741,-0.24537037,1,0,0,2.705,Diorite_rect,3,2.705,0,13,0,13,0,1,,,,,,,,,,,,,
5f6136ff23e5260b6cf1f33c,SCN,2024-06-12_12h37.41.027,LearnStrategy,2023.2.3,Win32,60.24096386,1,1,15,-0.402777778,-0.421296296,1,0,0,2.6984,Pumice_14,8,14,1,2,2.698,0.339814815,-0.394444444,1,0,0,1.443,Pumice_rect,8,1.443,1,14,0,14,0,1,,,,,,,,,,,,,
5f6136ff23e5260b6cf1f33c,SCN,2024-06-12_12h37.41.027,LearnStrategy,2023.2.3,Win32,60.24096386,1,1,16,0.252777778,-0.238888889,1,0,0,0.932,Gabbro_13,4,13,2,6,0.932,-0.069444444,-0.234259259,1,0,0,1.7927,Basalt_rect,2,1.793,0,15,0,15,0,1,,,,,,,,,,,,,
5f6136ff23e5260b6cf1f33c,SCN,2024-06-12_12h37.41.027,LearnStrategy,2023.2.3,Win32,60.24096386,1,2,1,,,,,,,,8,10,,,,,,,,,,,8,4.734,1,,,,,,0.382407407,-0.403703704,1,0,0,4.7337,Pumice_rect,0,0,0,0,1,
5f6136ff23e5260b6cf1f33c,SCN,2024-06-12_12h37.41.027,LearnStrategy,2023.2.3,Win32,60.24096386,1,2,2,,,,,,,,6,15,,,,,,,,,,,5,7.519,0,,,,,,-0.352777778,-0.388888889,1,0,0,7.5194,Obsidian_rect,1,0,1,0,1,
5f6136ff23e5260b6cf1f33c,SCN,2024-06-12_12h37.41.027,LearnStrategy,2023.2.3,Win32,60.24096386,1,2,3,,,,,,,,7,06,,,,,,,,,,,7,2.265,1,,,,,,0.074074074,-0.407407407,1,0,0,2.2649,Peridotite_rect,2,0,2,0,1,
5f6136ff23e5260b6cf1f33c,SCN,2024-06-12_12h37.41.027,LearnStrategy,2023.2.3,Win32,60.24096386,1,2,4,,,,,,,,2,16,,,,,,,,,,,4,4.054,0,,,,,,0.337037037,-0.260185185,1,0,0,4.0537,Gabbro_rect,3,0,3,0,1,
5f6136ff23e5260b6cf1f33c,SCN,2024-06-12_12h37.41.027,LearnStrategy,2023.2.3,Win32,60.24096386,1,2,5,,,,,,,,4,08,,,,,,,,,,,1,4.844,0,,,,,,-0.403703704,-0.262037037,1,0,0,4.8438,Andesite_rect,4,0,4,0,1,
5f6136ff23e5260b6cf1f33c,SCN,2024-06-12_12h37.41.027,LearnStrategy,2023.2.3,Win32,60.24096386,1,2,6,,,,,,,,6,10,,,,,,,,,,,7,1.252,0,,,,,,0.058333333,-0.390740741,1,0,0,1.2524,Peridotite_rect,5,0,5,0,1,
5f6136ff23e5260b6cf1f33c,SCN,2024-06-12_12h37.41.027,LearnStrategy,2023.2.3,Win32,60.24096386,1,2,7,,,,,,,,4,09,,,,,,,,,,,5,1.102,0,,,,,,-0.398148148,-0.40462963,1,0,0,1.1015,Obsidian_rect,6,0,6,0,1,
5f6136ff23e5260b6cf1f33c,SCN,2024-06-12_12h37.41.027,LearnStrategy,2023.2.3,Win32,60.24096386,1,2,8,,,,,,,,8,16,,,,,,,,,,,8,1.493,1,,,,,,0.330555556,-0.4,1,0,0,1.4933,Pumice_rect,7,0,7,0,1,
5f6136ff23e5260b6cf1f33c,SCN,2024-06-12_12h37.41.027,LearnStrategy,2023.2.3,Win32,60.24096386,1,2,9,,,,,,,,1,07,,,,,,,,,,,2,2.072,0,,,,,,-0.07962963,-0.256481481,1,0,0,2.0716,Basalt_rect,8,0,8,0,1,
5f6136ff23e5260b6cf1f33c,SCN,2024-06-12_12h37.41.027,LearnStrategy,2023.2.3,Win32,60.24096386,1,2,10,,,,,,,,5,14,,,,,,,,,,,5,1.536,1,,,,,,-0.337037037,-0.389814815,1,0,0,1.5362,Obsidian_rect,9,0,9,0,1,
5f6136ff23e5260b6cf1f33c,SCN,2024-06-12_12h37.41.027,LearnStrategy,2023.2.3,Win32,60.24096386,1,2,11,,,,,,,,2,01,,,,,,,,,,,6,7.916,0,,,,,,-0.093518519,-0.412962963,1,0,0,7.9155,Pegmatite_rect,10,0,10,0,1,
5f6136ff23e5260b6cf1f33c,SCN,2024-06-12_12h37.41.027,LearnStrategy,2023.2.3,Win32,60.24096386,1,2,12,,,,,,,,3,09,,,,,,,,,,,2,3.77,0,,,,,,-0.105555556,-0.25462963,1,0,0,3.7698,Basalt_rect,11,0,11,0,1,
5f6136ff23e5260b6cf1f33c,SCN,2024-06-12_12h37.41.027,LearnStrategy,2023.2.3,Win32,60.24096386,1,2,13,,,,,,,,7,02,,,,,,,,,,,7,1.38,1,,,,,,0.113888889,-0.385185185,1,0,0,1.3805,Peridotite_rect,12,0,12,0,1,
5f6136ff23e5260b6cf1f33c,SCN,2024-06-12_12h37.41.027,LearnStrategy,2023.2.3,Win32,60.24096386,1,2,14,,,,,,,,1,05,,,,,,,,,,,3,3.519,0,,,,,,0.075925926,-0.262962963,1,0,0,3.5192,Diorite_rect,13,0,13,0,1,
5f6136ff23e5260b6cf1f33c,SCN,2024-06-12_12h37.41.027,LearnStrategy,2023.2.3,Win32,60.24096386,1,2,15,,,,,,,,3,10,,,,,,,,,,,4,6.32,0,,,,,,0.326851852,-0.264814815,1,0,0,6.3197,Gabbro_rect,14,0,14,0,1,
5f6136ff23e5260b6cf1f33c,SCN,2024-06-12_12h37.41.027,LearnStrategy,2023.2.3,Win32,60.24096386,1,2,16,,,,,,,,5,02,,,,,,,,,,,5,1.07,1,,,,,,-0.321296296,-0.40462963,1,0,0,1.0696,Obsidian_rect,15,0,15,0,1,
5f6136ff23e5260b6cf1f33c,SCN,2024-06-12_12h37.41.027,LearnStrategy,2023.2.3,Win32,60.24096386,2,1,1,-0.047222222,-0.1,1,0,0,1.9136,Pegmatite_06,6,06,3,4,1.914,-0.412037037,-0.249074074,1,0,0,1.1765,Andesite_rect,1,1.176,0,0,0,0,0,1,,,,,,,,,,,,,
5f6136ff23e5260b6cf1f33c,SCN,2024-06-12_12h37.41.027,LearnStrategy,2023.2.3,Win32,60.24096386,2,1,2,0.111111111,-0.39537037,1,0,0,2.2322,Diorite_14,3,14,1,5,2.232,-0.059259259,-0.402777778,1,0,0,1.6594,Pegmatite_rect,6,1.659,0,1,0,1,0,1,,,,,,,,,,,,,
5f6136ff23e5260b6cf1f33c,SCN,2024-06-12_12h37.41.027,LearnStrategy,2023.2.3,Win32,60.24096386,2,1,3,0.538888889,-0.25462963,1,0,0,2.3461,Pegmatite_05,6,05,2,8,2.346,-0.376851852,-0.402777778,1,0,0,2.7485,Obsidian_rect,5,2.748,0,2,0,2,0,1,,,,,,,,,,,,,
5f6136ff23e5260b6cf1f33c,SCN,2024-06-12_12h37.41.027,LearnStrategy,2023.2.3,Win32,60.24096386,2,1,4,-0.068518519,0.128703704,1,0,0,6.4315,Diorite_07,3,07,4,4,6.431,-0.121296296,-0.393518519,1,0,0,1.1473,Pegmatite_rect,6,1.147,0,3,0,3,0,1,,,,,,,,,,,,,
5f6136ff23e5260b6cf1f33c,SCN,2024-06-12_12h37.41.027,LearnStrategy,2023.2.3,Win32,60.24096386,2,1,5,0.399074074,0.375,1,0,0,3.016,Peridotite_04,7,04,6,7,3.016,0.391666667,-0.238888889,1,0,0,1.8929,Gabbro_rect,4,1.893,0,4,0,4,0,1,,,,,,,,,,,,,
5f6136ff23e5260b6cf1f33c,SCN,2024-06-12_12h37.41.027,LearnStrategy,2023.2.3,Win32,60.24096386,2,1,6,-0.106481481,0.097222222,1,0,0,7.2015,Diorite_07,3,07,4,4,7.202,0.150925926,-0.247222222,1,0,0,1.0805,Diorite_rect,3,1.081,1,5,0,5,0,1,,,,,,,,,,,,,
5f6136ff23e5260b6cf1f33c,SCN,2024-06-12_12h37.41.027,LearnStrategy,2023.2.3,Win32,60.24096386,2,1,7,-0.249074074,-0.416666667,1,0,0,2.999,Peridotite_05,7,05,1,3,2.999,0.086111111,-0.42037037,1,0,0,1.5762,Peridotite_rect,7,1.576,1,6,0,6,0,1,,,,,,,,,,,,,
5f6136ff23e5260b6cf1f33c,SCN,2024-06-12_12h37.41.027,LearnStrategy,2023.2.3,Win32,60.24096386,2,1,8,0.096296296,-0.447222222,1,0,0,1.0175,Diorite_14,3,14,1,5,1.017,0.330555556,-0.239814815,1,0,0,1.4674,Gabbro_rect,4,1.467,0,7,0,7,0,1,,,,,,,,,,,,,
5f6136ff23e5260b6cf1f33c,SCN,2024-06-12_12h37.41.027,LearnStrategy,2023.2.3,Win32,60.24096386,2,1,9,0.112037037,-0.278703704,1,0,0,1.2494,Diorite_16,3,16,2,5,1.249,0.113888889,-0.248148148,1,0,0,0.4919,Diorite_rect,3,0.492,1,8,0,8,0,1,,,,,,,,,,,,,
5f6136ff23e5260b6cf1f33c,SCN,2024-06-12_12h37.41.027,LearnStrategy,2023.2.3,Win32,60.24096386,2,1,10,0.42037037,-0.425925926,1,0,0,1.8655,Andesite_10,1,10,1,7,1.865,-0.1,-0.250925926,1,0,0,1.4096,Basalt_rect,2,1.41,0,9,0,9,0,1,,,,,,,,,,,,,
5f6136ff23e5260b6cf1f33c,SCN,2024-06-12_12h37.41.027,LearnStrategy,2023.2.3,Win32,60.24096386,2,1,11,0.27037037,-0.271296296,1,0,0,4.8156,Gabbro_13,4,13,2,6,4.816,-0.346296296,-0.269444444,1,0,0,2.0768,Andesite_rect,1,2.077,0,10,0,10,0,1,,,,,,,,,,,,,
5f6136ff23e5260b6cf1f33c,SCN,2024-06-12_12h37.41.027,LearnStrategy,2023.2.3,Win32,60.24096386,2,1,12,0.552777778,0.390740741,1,0,0,5.0479,Obsidian_06,5,06,6,8,5.048,-0.430555556,-0.409259259,1,0,0,1.3991,Obsidian_rect,5,1.399,1,11,0,11,0,1,,,,,,,,,,,,,
5f6136ff23e5260b6cf1f33c,SCN,2024-06-12_12h37.41.027,LearnStrategy,2023.2.3,Win32,60.24096386,2,1,13,0.103703704,0.410185185,1,0,0,1.6835,Pegmatite_13,6,13,6,5,1.684,-0.34537037,-0.27037037,1,0,0,2.9681,Andesite_rect,1,2.968,0,12,0,12,0,1,,,,,,,,,,,,,
5f6136ff23e5260b6cf1f33c,SCN,2024-06-12_12h37.41.027,LearnStrategy,2023.2.3,Win32,60.24096386,2,1,14,-0.051851852,0.37037037,1,0,0,2.6669,Basalt_12,2,12,6,4,2.667,-0.132407407,-0.250925926,1,0,0,2.8675,Basalt_rect,2,2.867,1,13,0,13,0,1,,,,,,,,,,,,,
5f6136ff23e5260b6cf1f33c,SCN,2024-06-12_12h37.41.027,LearnStrategy,2023.2.3,Win32,60.24096386,2,1,15,-0.235185185,0.433333333,1,0,0,1.1662,Diorite_12,3,12,6,3,1.166,0.140740741,-0.4,1,0,0,3.2598,Peridotite_rect,7,3.26,0,14,0,14,0,1,,,,,,,,,,,,,
5f6136ff23e5260b6cf1f33c,SCN,2024-06-12_12h37.41.027,LearnStrategy,2023.2.3,Win32,60.24096386,2,1,16,-0.242592593,0.241666667,1,0,0,2.1823,Obsidian_05,5,05,5,3,2.182,-0.403703704,-0.389814815,1,0,0,1.6764,Obsidian_rect,5,1.676,1,15,0,15,0,1,,,,,,,,,,,,,
5f6136ff23e5260b6cf1f33c,SCN,2024-06-12_12h37.41.027,LearnStrategy,2023.2.3,Win32,60.24096386,2,2,1,,,,,,,,1,01,,,,,,,,,,,4,3.087,0,,,,,,0.355555556,-0.238888889,1,0,0,3.087,Gabbro_rect,0,0,0,0,1,
5f6136ff23e5260b6cf1f33c,SCN,2024-06-12_12h37.41.027,LearnStrategy,2023.2.3,Win32,60.24096386,2,2,2,,,,,,,,2,09,,,,,,,,,,,3,1.982,0,,,,,,0.109259259,-0.240740741,1,0,0,1.9819,Diorite_rect,1,0,1,0,1,
5f6136ff23e5260b6cf1f33c,SCN,2024-06-12_12h37.41.027,LearnStrategy,2023.2.3,Win32,60.24096386,2,2,3,,,,,,,,5,07,,,,,,,,,,,5,1.069,1,,,,,,-0.399074074,-0.412037037,1,0,0,1.0686,Obsidian_rect,2,0,2,0,1,
5f6136ff23e5260b6cf1f33c,SCN,2024-06-12_12h37.41.027,LearnStrategy,2023.2.3,Win32,60.24096386,2,2,4,,,,,,,,6,12,,,,,,,,,,,6,3.093,1,,,,,,-0.064814815,-0.410185185,1,0,0,3.093,Pegmatite_rect,3,0,3,0,1,
5f6136ff23e5260b6cf1f33c,SCN,2024-06-12_12h37.41.027,LearnStrategy,2023.2.3,Win32,60.24096386,2,2,5,,,,,,,,4,03,,,,,,,,,,,1,6.004,0,,,,,,-0.323148148,-0.255555556,1,0,0,6.0036,Andesite_rect,4,0,4,0,1,
5f6136ff23e5260b6cf1f33c,SCN,2024-06-12_12h37.41.027,LearnStrategy,2023.2.3,Win32,60.24096386,2,2,6,,,,,,,,8,09,,,,,,,,,,,8,1.413,1,,,,,,0.400925926,-0.384259259,1,0,0,1.4125,Pumice_rect,5,0,5,0,1,
5f6136ff23e5260b6cf1f33c,SCN,2024-06-12_12h37.41.027,LearnStrategy,2023.2.3,Win32,60.24096386,2,2,7,,,,,,,,6,07,,,,,,,,,,,5,3.732,0,,,,,,-0.405555556,-0.386111111,1,0,0,3.7318,Obsidian_rect,6,0,6,0,1,
5f6136ff23e5260b6cf1f33c,SCN,2024-06-12_12h37.41.027,LearnStrategy,2023.2.3,Win32,60.24096386,2,2,8,,,,,,,,1,11,,,,,,,,,,,3,3.922,0,,,,,,0.103703704,-0.259259259,1,0,0,3.9223,Diorite_rect,7,0,7,0,1,
5f6136ff23e5260b6cf1f33c,SCN,2024-06-12_12h37.41.027,LearnStrategy,2023.2.3,Win32,60.24096386,2,2,9,,,,,,,,4,10,,,,,,,,,,,4,4.73,1,,,,,,0.323148148,-0.257407407,1,0,0,4.7299,Gabbro_rect,8,0,8,0,1,
5f6136ff23e5260b6cf1f33c,SCN,2024-06-12_12h37.41.027,LearnStrategy,2023.2.3,Win32,60.24096386,2,2,10,,,,,,,,3,06,,,,,,,,,,,6,3.533,0,,,,,,-0.133333333,-0.385185185,1,0,0,3.5334,Pegmatite_rect,9,0,9,0,1,
5f6136ff23e5260b6cf1f33c,SCN,2024-06-12_12h37.41.027,LearnStrategy,2023.2.3,Win32,60.24096386,2,2,11,,,,,,,,3,11,,,,,,,,,,,3,3.622,1,,,,,,0.067592593,-0.256481481,1,0,0,3.6218,Diorite_rect,10,0,10,0,1,
5f6136ff23e5260b6cf1f33c,SCN,2024-06-12_12h37.41.027,LearnStrategy,2023.2.3,Win32,60.24096386,2,2,12,,,,,,,,8,13,,,,,,,,,,,8,1.43,1,,,,,,0.366666667,-0.400925926,1,0,0,1.4296,Pumice_rect,11,0,11,0,1,
5f6136ff23e5260b6cf1f33c,SCN,2024-06-12_12h37.41.027,LearnStrategy,2023.2.3,Win32,60.24096386,2,2,13,,,,,,,,7,14,,,,,,,,,,,7,1.07,1,,,,,,0.143518519,-0.402777778,1,0,0,1.0699,Peridotite_rect,12,0,12,0,1,
5f6136ff23e5260b6cf1f33c,SCN,2024-06-12_12h37.41.027,LearnStrategy,2023.2.3,Win32,60.24096386,2,2,14,,,,,,,,7,15,,,,,,,,,,,7,0.987,1,,,,,,0.143518519,-0.402777778,1,0,0,0.9869,Peridotite_rect,13,0,13,0,1,
5f6136ff23e5260b6cf1f33c,SCN,2024-06-12_12h37.41.027,LearnStrategy,2023.2.3,Win32,60.24096386,2,2,15,,,,,,,,2,08,,,,,,,,,,,5,0.953,0,,,,,,-0.381481481,-0.412962963,1,0,0,0.9534,Obsidian_rect,14,0,14,0,1,
5f6136ff23e5260b6cf1f33c,SCN,2024-06-12_12h37.41.027,LearnStrategy,2023.2.3,Win32,60.24096386,2,2,16,,,,,,,,5,10,,,,,,,,,,,5,0.919,1,,,,,,-0.384259259,-0.410185185,1,0,0,0.9192,Obsidian_rect,15,0,15,0,1,
5f6136ff23e5260b6cf1f33c,SCN,2024-06-12_12h37.41.027,LearnStrategy,2023.2.3,Win32,60.24096386,3,1,1,-0.051851852,-0.112037037,1,0,0,1.0461,Pegmatite_06,6,06,3,4,1.046,-0.365740741,-0.239814815,1,0,0,1.4598,Andesite_rect,1,1.46,0,0,0,0,0,1,,,,,,,,,,,,,
5f6136ff23e5260b6cf1f33c,SCN,2024-06-12_12h37.41.027,LearnStrategy,2023.2.3,Win32,60.24096386,3,1,2,-0.072222222,0.102777778,1,0,0,1.2489,Diorite_07,3,07,4,4,1.249,-0.07037037,-0.398148148,1,0,0,1.0248,Pegmatite_rect,6,1.025,0,1,0,1,0,1,,,,,,,,,,,,,
5f6136ff23e5260b6cf1f33c,SCN,2024-06-12_12h37.41.027,LearnStrategy,2023.2.3,Win32,60.24096386,3,1,3,-0.033333333,0.224074074,1,0,0,2.3811,Diorite_08,3,08,5,4,2.381,-0.355555556,-0.237962963,1,0,0,1.7262,Andesite_rect,1,1.726,0,2,0,2,0,1,,,,,,,,,,,,,
5f6136ff23e5260b6cf1f33c,SCN,2024-06-12_12h37.41.027,LearnStrategy,2023.2.3,Win32,60.24096386,3,1,4,0.099074074,0.387037037,1,0,0,4.4659,Pegmatite_13,6,13,6,5,4.466,0.387962963,-0.255555556,1,0,0,3.6428,Gabbro_rect,4,3.643,0,3,0,3,0,1,,,,,,,,,,,,,
5f6136ff23e5260b6cf1f33c,SCN,2024-06-12_12h37.41.027,LearnStrategy,2023.2.3,Win32,60.24096386,3,1,5,-0.07037037,0.386111111,1,0,0,2.2347,Basalt_12,2,12,6,4,2.235,0.352777778,-0.382407407,1,0,0,1.9629,Pumice_rect,8,1.963,0,4,0,4,0,1,,,,,,,,,,,,,
5f6136ff23e5260b6cf1f33c,SCN,2024-06-12_12h37.41.027,LearnStrategy,2023.2.3,Win32,60.24096386,3,1,6,-0.25,0.425925926,1,0,0,1.3344,Diorite_12,3,12,6,3,1.334,-0.346296296,-0.251851852,1,0,0,1.6058,Andesite_rect,1,1.606,0,5,0,5,0,1,,,,,,,,,,,,,
5f6136ff23e5260b6cf1f33c,SCN,2024-06-12_12h37.41.027,LearnStrategy,2023.2.3,Win32,60.24096386,3,1,7,-0.367592593,0.402777778,1,0,0,1.6327,Gabbro_16,4,16,6,2,1.633,0.45462963,-0.246296296,1,0,0,1.2681,Gabbro_rect,4,1.268,1,6,0,6,0,1,,,,,,,,,,,,,
5f6136ff23e5260b6cf1f33c,SCN,2024-06-12_12h37.41.027,LearnStrategy,2023.2.3,Win32,60.24096386,3,1,8,-0.535185185,0.219444444,1,0,0,1.4828,Basalt_14,2,14,5,1,1.483,0.343518519,-0.257407407,1,0,0,1.2596,Gabbro_rect,4,1.26,0,7,0,7,0,1,,,,,,,,,,,,,
5f6136ff23e5260b6cf1f33c,SCN,2024-06-12_12h37.41.027,LearnStrategy,2023.2.3,Win32,60.24096386,3,1,9,-0.399074074,-0.117592593,1,0,0,2.5306,Gabbro_12,4,12,3,2,2.531,-0.148148148,-0.244444444,1,0,0,0.9527,Basalt_rect,2,0.953,0,8,0,8,0,1,,,,,,,,,,,,,
5f6136ff23e5260b6cf1f33c,SCN,2024-06-12_12h37.41.027,LearnStrategy,2023.2.3,Win32,60.24096386,3,1,10,-0.55462963,-0.24537037,1,0,0,1.8822,Pegmatite_09,6,09,2,1,1.882,0.062962963,-0.405555556,1,0,0,1.1762,Peridotite_rect,7,1.176,0,9,0,9,0,1,,,,,,,,,,,,,
5f6136ff23e5260b6cf1f33c,SCN,2024-06-12_12h37.41.027,LearnStrategy,2023.2.3,Win32,60.24096386,3,1,11,-0.513888889,-0.426851852,1,0,0,1.4657,Pegmatite_03,6,03,1,1,1.466,0.096296296,-0.381481481,1,0,0,1.0267,Peridotite_rect,7,1.027,0,10,0,10,0,1,,,,,,,,,,,,,
5f6136ff23e5260b6cf1f33c,SCN,2024-06-12_12h37.41.027,LearnStrategy,2023.2.3,Win32,60.24096386,3,1,12,-0.085185185,-0.434259259,1,0,0,1.1326,Peridotite_16,7,16,1,4,1.133,-0.149074074,-0.4,1,0,0,1.0768,Pegmatite_rect,6,1.077,0,11,0,11,0,1,,,,,,,,,,,,,
5f6136ff23e5260b6cf1f33c,SCN,2024-06-12_12h37.41.027,LearnStrategy,2023.2.3,Win32,60.24096386,3,1,13,0.237037037,-0.434259259,1,0,0,1.468,Andesite_06,1,06,1,6,1.468,-0.074074074,-0.228703704,1,0,0,0.8624,Basalt_rect,2,0.862,0,12,0,12,0,1,,,,,,,,,,,,,
5f6136ff23e5260b6cf1f33c,SCN,2024-06-12_12h37.41.027,LearnStrategy,2023.2.3,Win32,60.24096386,3,1,14,0.094444444,-0.248148148,1,0,0,1.3817,Diorite_16,3,16,2,5,1.382,-0.325925926,-0.255555556,1,0,0,0.8856,Andesite_rect,1,0.886,0,13,0,13,0,1,,,,,,,,,,,,,
5f6136ff23e5260b6cf1f33c,SCN,2024-06-12_12h37.41.027,LearnStrategy,2023.2.3,Win32,60.24096386,3,1,15,0.397222222,-0.437037037,1,0,0,0.913,Andesite_10,1,10,1,7,0.913,0.35,-0.393518519,1,0,0,1.4412,Pumice_rect,8,1.441,0,14,0,14,0,1,,,,,,,,,,,,,
5f6136ff23e5260b6cf1f33c,SCN,2024-06-12_12h37.41.027,LearnStrategy,2023.2.3,Win32,60.24096386,3,1,16,0.538888889,-0.39537037,1,0,0,1.899,Andesite_02,1,02,1,8,1.899,0.472222222,-0.415740741,1,0,0,1.1669,Pumice_rect,8,1.167,0,15,0,15,0,1,,,,,,,,,,,,,
5f6136ff23e5260b6cf1f33c,SCN,2024-06-12_12h37.41.027,LearnStrategy,2023.2.3,Win32,60.24096386,3,2,1,,,,,,,,6,16,,,,,,,,,,,5,8.238,0,,,,,,-0.406481481,-0.381481481,1,0,0,8.2378,Obsidian_rect,0,0,0,0,1,
5f6136ff23e5260b6cf1f33c,SCN,2024-06-12_12h37.41.027,LearnStrategy,2023.2.3,Win32,60.24096386,3,2,2,,,,,,,,3,02,,,,,,,,,,,3,2.829,1,,,,,,0.090740741,-0.255555556,1,0,0,2.8289,Diorite_rect,1,0,1,0,1,
5f6136ff23e5260b6cf1f33c,SCN,2024-06-12_12h37.41.027,LearnStrategy,2023.2.3,Win32,60.24096386,3,2,3,,,,,,,,1,09,,,,,,,,,,,4,7.183,0,,,,,,0.44537037,-0.263888889,1,0,0,7.1827,Gabbro_rect,2,0,2,0,1,
5f6136ff23e5260b6cf1f33c,SCN,2024-06-12_12h37.41.027,LearnStrategy,2023.2.3,Win32,60.24096386,3,2,4,,,,,,,,8,03,,,,,,,,,,,8,1.413,1,,,,,,0.35462963,-0.382407407,1,0,0,1.4135,Pumice_rect,3,0,3,0,1,
5f6136ff23e5260b6cf1f33c,SCN,2024-06-12_12h37.41.027,LearnStrategy,2023.2.3,Win32,60.24096386,3,2,5,,,,,,,,7,10,,,,,,,,,,,7,1.487,1,,,,,,0.147222222,-0.391666667,1,0,0,1.4872,Peridotite_rect,4,0,4,0,1,
5f6136ff23e5260b6cf1f33c,SCN,2024-06-12_12h37.41.027,LearnStrategy,2023.2.3,Win32,60.24096386,3,2,6,,,,,,,,8,04,,,,,,,,,,,8,2.105,1,,,,,,0.338888889,-0.383333333,1,0,0,2.1046,Pumice_rect,5,0,5,0,1,
5f6136ff23e5260b6cf1f33c,SCN,2024-06-12_12h37.41.027,LearnStrategy,2023.2.3,Win32,60.24096386,3,2,7,,,,,,,,2,11,,,,,,,,,,,2,4.286,1,,,,,,-0.097222222,-0.232407407,1,0,0,4.2856,Basalt_rect,6,0,6,0,1,
5f6136ff23e5260b6cf1f33c,SCN,2024-06-12_12h37.41.027,LearnStrategy,2023.2.3,Win32,60.24096386,3,2,8,,,,,,,,5,04,,,,,,,,,,,5,1.171,1,,,,,,-0.408333333,-0.417592593,1,0,0,1.1709,Obsidian_rect,7,0,7,0,1,
5f6136ff23e5260b6cf1f33c,SCN,2024-06-12_12h37.41.027,LearnStrategy,2023.2.3,Win32,60.24096386,3,2,9,,,,,,,,4,05,,,,,,,,,,,3,5.51,0,,,,,,0.091666667,-0.248148148,1,0,0,5.5095,Diorite_rect,8,0,8,0,1,
5f6136ff23e5260b6cf1f33c,SCN,2024-06-12_12h37.41.027,LearnStrategy,2023.2.3,Win32,60.24096386,3,2,10,,,,,,,,4,14,,,,,,,,,,,3,8.742,0,,,,,,0.089814815,-0.259259259,1,0,0,8.7419,Diorite_rect,9,0,9,0,1,
5f6136ff23e5260b6cf1f33c,SCN,2024-06-12_12h37.41.027,LearnStrategy,2023.2.3,Win32,60.24096386,3,2,11,,,,,,,,5,16,,,,,,,,,,,5,0.936,1,,,,,,-0.364814815,-0.399074074,1,0,0,0.9364,Obsidian_rect,10,0,10,0,1,
5f6136ff23e5260b6cf1f33c,SCN,2024-06-12_12h37.41.027,LearnStrategy,2023.2.3,Win32,60.24096386,3,2,12,,,,,,,,7,07,,,,,,,,,,,7,1.261,1,,,,,,0.116666667,-0.390740741,1,0,0,1.2606,Peridotite_rect,11,0,11,0,1,
5f6136ff23e5260b6cf1f33c,SCN,2024-06-12_12h37.41.027,LearnStrategy,2023.2.3,Win32,60.24096386,3,2,13,,,,,,,,1,14,,,,,,,,,,,6,2.503,0,,,,,,-0.208333333,-0.406481481,1,0,0,2.5032,Pegmatite_rect,12,0,12,0,1,
5f6136ff23e5260b6cf1f33c,SCN,2024-06-12_12h37.41.027,LearnStrategy,2023.2.3,Win32,60.24096386,3,2,14,,,,,,,,6,11,,,,,,,,,,,5,1.971,0,,,,,,-0.450925926,-0.388888889,1,0,0,1.9715,Obsidian_rect,13,0,13,0,1,
5f6136ff23e5260b6cf1f33c,SCN,2024-06-12_12h37.41.027,LearnStrategy,2023.2.3,Win32,60.24096386,3,2,15,,,,,,,,3,13,,,,,,,,,,,1,1.771,0,,,,,,-0.413888889,-0.258333333,1,0,0,1.7706,Andesite_rect,14,0,14,0,1,
5f6136ff23e5260b6cf1f33c,SCN,2024-06-12_12h37.41.027,LearnStrategy,2023.2.3,Win32,60.24096386,3,2,16,,,,,,,,2,04,,,,,,,,,,,4,3.269,0,,,,,,0.309259259,-0.249074074,1,0,0,3.269,Gabbro_rect,15,0,15,0,1,
5f6136ff23e5260b6cf1f33c,SCN,2024-06-12_12h37.41.027,LearnStrategy,2023.2.3,Win32,60.24096386,4,1,1,-0.065740741,0.107407407,1,0,0,1.295,Diorite_07,3,07,4,4,1.295,-0.343518519,-0.24537037,1,0,0,0.7359,Andesite_rect,1,0.736,0,0,0,0,0,1,,,,,,,,,,,,,
5f6136ff23e5260b6cf1f33c,SCN,2024-06-12_12h37.41.027,LearnStrategy,2023.2.3,Win32,60.24096386,4,1,2,-0.060185185,0.237037037,1,0,0,0.9129,Diorite_08,3,08,5,4,0.913,-0.37962963,-0.241666667,1,0,0,1.1935,Andesite_rect,1,1.194,0,1,0,1,0,1,,,,,,,,,,,,,
5f6136ff23e5260b6cf1f33c,SCN,2024-06-12_12h37.41.027,LearnStrategy,2023.2.3,Win32,60.24096386,4,1,3,-0.233333333,0.089814815,1,0,0,1.0146,Basalt_02,2,02,4,3,1.015,-0.072222222,-0.386111111,1,0,0,1.0263,Pegmatite_rect,6,1.026,0,2,0,2,0,1,,,,,,,,,,,,,
5f6136ff23e5260b6cf1f33c,SCN,2024-06-12_12h37.41.027,LearnStrategy,2023.2.3,Win32,60.24096386,4,1,4,-0.561111111,-0.246296296,1,0,0,1.5828,Pegmatite_09,6,09,2,1,1.583,0.069444444,-0.239814815,1,0,0,1.8595,Diorite_rect,3,1.86,0,3,0,3,0,1,,,,,,,,,,,,,
5f6136ff23e5260b6cf1f33c,SCN,2024-06-12_12h37.41.027,LearnStrategy,2023.2.3,Win32,60.24096386,4,1,5,0.078703704,-0.269444444,1,0,0,1.4169,Diorite_16,3,16,2,5,1.417,-0.317592593,-0.242592593,1,0,0,2.9994,Andesite_rect,1,2.999,0,4,0,4,0,1,,,,,,,,,,,,,
5f6136ff23e5260b6cf1f33c,SCN,2024-06-12_12h37.41.027,LearnStrategy,2023.2.3,Win32,60.24096386,4,1,6,0.121296296,-0.390740741,1,0,0,0.865,Diorite_14,3,14,1,5,0.865,0.083333333,-0.260185185,1,0,0,0.7088,Diorite_rect,3,0.709,1,5,0,5,0,1,,,,,,,,,,,,,
5f6136ff23e5260b6cf1f33c,SCN,2024-06-12_12h37.41.027,LearnStrategy,2023.2.3,Win32,60.24096386,4,1,7,0.225925926,-0.112037037,1,0,0,1.3822,Andesite_16,1,16,3,6,1.382,-0.114814815,-0.237037037,1,0,0,1.1104,Basalt_rect,2,1.11,0,6,0,6,0,1,,,,,,,,,,,,,
5f6136ff23e5260b6cf1f33c,SCN,2024-06-12_12h37.41.027,LearnStrategy,2023.2.3,Win32,60.24096386,4,1,8,0.244444444,-0.284259259,1,0,0,2.0314,Gabbro_13,4,13,2,6,2.031,-0.2,-0.261111111,1,0,0,1.6098,Basalt_rect,2,1.61,0,7,0,7,0,1,,,,,,,,,,,,,
5f6136ff23e5260b6cf1f33c,SCN,2024-06-12_12h37.41.027,LearnStrategy,2023.2.3,Win32,60.24096386,4,1,9,0.396296296,-0.262962963,1,0,0,0.8325,Basalt_10,2,10,2,7,0.832,0.360185185,-0.237962963,1,0,0,0.827,Gabbro_rect,4,0.827,0,8,0,8,0,1,,,,,,,,,,,,,
5f6136ff23e5260b6cf1f33c,SCN,2024-06-12_12h37.41.027,LearnStrategy,2023.2.3,Win32,60.24096386,4,1,10,0.586111111,-0.259259259,1,0,0,1.2973,Pegmatite_05,6,05,2,8,1.297,-0.363888889,-0.4,1,0,0,1.1094,Obsidian_rect,5,1.109,0,9,0,9,0,1,,,,,,,,,,,,,
5f6136ff23e5260b6cf1f33c,SCN,2024-06-12_12h37.41.027,LearnStrategy,2023.2.3,Win32,60.24096386,4,1,11,0.441666667,-0.448148148,1,0,0,1.0149,Andesite_10,1,10,1,7,1.015,0.380555556,-0.231481481,1,0,0,1.2707,Gabbro_rect,4,1.271,0,10,0,10,0,1,,,,,,,,,,,,,
5f6136ff23e5260b6cf1f33c,SCN,2024-06-12_12h37.41.027,LearnStrategy,2023.2.3,Win32,60.24096386,4,1,12,0.543518519,-0.415740741,1,0,0,0.7325,Andesite_02,1,02,1,8,0.733,0.344444444,-0.262962963,1,0,0,1.9912,Gabbro_rect,4,1.991,0,11,0,11,0,1,,,,,,,,,,,,,
5f6136ff23e5260b6cf1f33c,SCN,2024-06-12_12h37.41.027,LearnStrategy,2023.2.3,Win32,60.24096386,4,1,13,-0.05462963,-0.411111111,1,0,0,1.446,Peridotite_16,7,16,1,4,1.446,0.22037037,-0.412962963,1,0,0,1.0263,Peridotite_rect,7,1.026,1,12,0,12,0,1,,,,,,,,,,,,,
5f6136ff23e5260b6cf1f33c,SCN,2024-06-12_12h37.41.027,LearnStrategy,2023.2.3,Win32,60.24096386,4,1,14,-0.228703704,-0.419444444,1,0,0,0.7989,Peridotite_05,7,05,1,3,0.799,0.075,-0.396296296,1,0,0,1.6439,Peridotite_rect,7,1.644,1,13,0,13,0,1,,,,,,,,,,,,,
5f6136ff23e5260b6cf1f33c,SCN,2024-06-12_12h37.41.027,LearnStrategy,2023.2.3,Win32,60.24096386,4,1,15,-0.406481481,-0.418518519,1,0,0,1.3958,Pumice_14,8,14,1,2,1.396,0.42037037,-0.408333333,1,0,0,0.8851,Pumice_rect,8,0.885,1,14,0,14,0,1,,,,,,,,,,,,,
5f6136ff23e5260b6cf1f33c,SCN,2024-06-12_12h37.41.027,LearnStrategy,2023.2.3,Win32,60.24096386,4,1,16,-0.553703704,-0.244444444,1,0,0,3.4308,Pegmatite_09,6,09,2,1,3.431,-0.377777778,-0.255555556,1,0,0,2.0544,Andesite_rect,1,2.054,0,15,0,15,0,1,,,,,,,,,,,,,
5f6136ff23e5260b6cf1f33c,SCN,2024-06-12_12h37.41.027,LearnStrategy,2023.2.3,Win32,60.24096386,4,2,1,,,,,,,,5,07,,,,,,,,,,,5,1.285,1,,,,,,-0.35,-0.387962963,1,0,0,1.2847,Obsidian_rect,0,0,0,0,1,
5f6136ff23e5260b6cf1f33c,SCN,2024-06-12_12h37.41.027,LearnStrategy,2023.2.3,Win32,60.24096386,4,2,2,,,,,,,,5,16,,,,,,,,,,,5,1.037,1,,,,,,-0.35,-0.387962963,1,0,0,1.0372,Obsidian_rect,1,0,1,0,1,
5f6136ff23e5260b6cf1f33c,SCN,2024-06-12_12h37.41.027,LearnStrategy,2023.2.3,Win32,60.24096386,4,2,3,,,,,,,,3,02,,,,,,,,,,,6,1.919,0,,,,,,-0.137962963,-0.400925926,1,0,0,1.9192,Pegmatite_rect,2,0,2,0,1,
5f6136ff23e5260b6cf1f33c,SCN,2024-06-12_12h37.41.027,LearnStrategy,2023.2.3,Win32,60.24096386,4,2,4,,,,,,,,4,08,,,,,,,,,,,1,7.243,0,,,,,,-0.368518519,-0.230555556,1,0,0,7.2434,Andesite_rect,3,0,3,0,1,
5f6136ff23e5260b6cf1f33c,SCN,2024-06-12_12h37.41.027,LearnStrategy,2023.2.3,Win32,60.24096386,4,2,5,,,,,,,,4,03,,,,,,,,,,,2,2.904,0,,,,,,-0.09537037,-0.235185185,1,0,0,2.9035,Basalt_rect,4,0,4,0,1,
5f6136ff23e5260b6cf1f33c,SCN,2024-06-12_12h37.41.027,LearnStrategy,2023.2.3,Win32,60.24096386,4,2,6,,,,,,,,7,06,,,,,,,,,,,7,1.369,1,,,,,,0.097222222,-0.408333333,1,0,0,1.3689,Peridotite_rect,5,0,5,0,1,
5f6136ff23e5260b6cf1f33c,SCN,2024-06-12_12h37.41.027,LearnStrategy,2023.2.3,Win32,60.24096386,4,2,7,,,,,,,,7,02,,,,,,,,,,,7,0.885,1,,,,,,0.097222222,-0.408333333,1,0,0,0.885,Peridotite_rect,6,0,6,0,1,
5f6136ff23e5260b6cf1f33c,SCN,2024-06-12_12h37.41.027,LearnStrategy,2023.2.3,Win32,60.24096386,4,2,8,,,,,,,,1,05,,,,,,,,,,,6,6.419,0,,,,,,-0.135185185,-0.398148148,1,0,0,6.4188,Pegmatite_rect,7,0,7,0,1,
5f6136ff23e5260b6cf1f33c,SCN,2024-06-12_12h37.41.027,LearnStrategy,2023.2.3,Win32,60.24096386,4,2,9,,,,,,,,8,04,,,,,,,,,,,8,1.115,1,,,,,,0.428703704,-0.401851852,1,0,0,1.1145,Pumice_rect,8,0,8,0,1,
5f6136ff23e5260b6cf1f33c,SCN,2024-06-12_12h37.41.027,LearnStrategy,2023.2.3,Win32,60.24096386,4,2,10,,,,,,,,8,16,,,,,,,,,,,8,0.67,1,,,,,,0.428703704,-0.401851852,1,0,0,0.6704,Pumice_rect,9,0,9,0,1,
5f6136ff23e5260b6cf1f33c,SCN,2024-06-12_12h37.41.027,LearnStrategy,2023.2.3,Win32,60.24096386,4,2,11,,,,,,,,1,07,,,,,,,,,,,2,2.071,0,,,,,,-0.113888889,-0.238888889,1,0,0,2.0705,Basalt_rect,10,0,10,0,1,
5f6136ff23e5260b6cf1f33c,SCN,2024-06-12_12h37.41.027,LearnStrategy,2023.2.3,Win32,60.24096386,4,2,12,,,,,,,,2,16,,,,,,,,,,,2,1.903,1,,,,,,-0.113888889,-0.238888889,1,0,0,1.903,Basalt_rect,11,0,11,0,1,
5f6136ff23e5260b6cf1f33c,SCN,2024-06-12_12h37.41.027,LearnStrategy,2023.2.3,Win32,60.24096386,4,2,13,,,,,,,,2,09,,,,,,,,,,,2,2.415,1,,,,,,-0.113888889,-0.238888889,1,0,0,2.415,Basalt_rect,12,0,12,0,1,
5f6136ff23e5260b6cf1f33c,SCN,2024-06-12_12h37.41.027,LearnStrategy,2023.2.3,Win32,60.24096386,4,2,14,,,,,,,,6,11,,,,,,,,,,,5,2.475,0,,,,,,-0.378703704,-0.391666667,1,0,0,2.4746,Obsidian_rect,13,0,13,0,1,
5f6136ff23e5260b6cf1f33c,SCN,2024-06-12_12h37.41.027,LearnStrategy,2023.2.3,Win32,60.24096386,4,2,15,,,,,,,,6,07,,,,,,,,,,,1,2.803,0,,,,,,-0.385185185,-0.266666667,1,0,0,2.8035,Andesite_rect,14,0,14,0,1,
5f6136ff23e5260b6cf1f33c,SCN,2024-06-12_12h37.41.027,LearnStrategy,2023.2.3,Win32,60.24096386,4,2,16,,,,,,,,3,06,,,,,,,,,,,6,2.188,0,,,,,,-0.158333333,-0.412037037,1,0,0,2.1883,Pegmatite_rect,15,0,15,0,1,
5f6136ff23e5260b6cf1f33c,SCN,2024-06-12_12h37.41.027,LearnStrategy,2023.2.3,Win32,60.24096386,5,1,1,-0.069444444,0.090740741,1,0,0,1.4163,Diorite_07,3,07,4,4,1.416,0.146296296,-0.269444444,1,0,0,2.1024,Diorite_rect,3,2.102,1,0,0,0,0,1,,,,,,,,,,,,,
5f6136ff23e5260b6cf1f33c,SCN,2024-06-12_12h37.41.027,LearnStrategy,2023.2.3,Win32,60.24096386,5,1,2,-0.060185185,0.237962963,1,0,0,0.6302,Diorite_08,3,08,5,4,0.63,0.092592593,-0.232407407,1,0,0,0.8598,Diorite_rect,3,0.86,1,1,0,1,0,1,,,,,,,,,,,,,
5f6136ff23e5260b6cf1f33c,SCN,2024-06-12_12h37.41.027,LearnStrategy,2023.2.3,Win32,60.24096386,5,1,3,0.541666667,-0.272222222,1,0,0,2.2479,Pegmatite_05,6,05,2,8,2.248,-0.356481481,-0.262037037,1,0,0,0.9733,Andesite_rect,1,0.973,0,2,0,2,0,1,,,,,,,,,,,,,
5f6136ff23e5260b6cf1f33c,SCN,2024-06-12_12h37.41.027,LearnStrategy,2023.2.3,Win32,60.24096386,5,1,4,0.403703704,-0.293518519,1,0,0,0.9325,Basalt_10,2,10,2,7,0.933,-0.207407407,-0.237962963,1,0,0,1.7427,Basalt_rect,2,1.743,1,3,0,3,0,1,,,,,,,,,,,,,
5f6136ff23e5260b6cf1f33c,SCN,2024-06-12_12h37.41.027,LearnStrategy,2023.2.3,Win32,60.24096386,5,1,5,0.280555556,-0.264814815,1,0,0,0.7805,Gabbro_13,4,13,2,6,0.78,-0.086111111,-0.240740741,1,0,0,0.9771,Basalt_rect,2,0.977,0,4,0,4,0,1,,,,,,,,,,,,,
5f6136ff23e5260b6cf1f33c,SCN,2024-06-12_12h37.41.027,LearnStrategy,2023.2.3,Win32,60.24096386,5,1,6,0.126851852,-0.278703704,1,0,0,1.1326,Diorite_16,3,16,2,5,1.133,-0.339814815,-0.228703704,1,0,0,1.0604,Andesite_rect,1,1.06,0,5,0,5,0,1,,,,,,,,,,,,,
5f6136ff23e5260b6cf1f33c,SCN,2024-06-12_12h37.41.027,LearnStrategy,2023.2.3,Win32,60.24096386,5,1,7,0.125,-0.409259259,1,0,0,0.7303,Diorite_14,3,14,1,5,0.73,0.09537037,-0.267592593,1,0,0,0.4931,Diorite_rect,3,0.493,1,6,0,6,0,1,,,,,,,,,,,,,
5f6136ff23e5260b6cf1f33c,SCN,2024-06-12_12h37.41.027,LearnStrategy,2023.2.3,Win32,60.24096386,5,1,8,-0.212037037,-0.258333333,1,0,0,1.8822,Gabbro_15,4,15,2,3,1.882,-0.198148148,-0.255555556,1,0,0,1.0359,Basalt_rect,2,1.036,0,7,0,7,0,1,,,,,,,,,,,,,
5f6136ff23e5260b6cf1f33c,SCN,2024-06-12_12h37.41.027,LearnStrategy,2023.2.3,Win32,60.24096386,5,1,9,-0.356481481,-0.111111111,1,0,0,1.1189,Gabbro_12,4,12,3,2,1.119,-0.097222222,-0.252777778,1,0,0,0.9647,Basalt_rect,2,0.965,0,8,0,8,0,1,,,,,,,,,,,,,
5f6136ff23e5260b6cf1f33c,SCN,2024-06-12_12h37.41.027,LearnStrategy,2023.2.3,Win32,60.24096386,5,1,10,-0.237962963,0.078703704,1,0,0,1.2167,Basalt_02,2,02,4,3,1.217,0.368518519,-0.262037037,1,0,0,1.1799,Gabbro_rect,4,1.18,0,9,0,9,0,1,,,,,,,,,,,,,
5f6136ff23e5260b6cf1f33c,SCN,2024-06-12_12h37.41.027,LearnStrategy,2023.2.3,Win32,60.24096386,5,1,11,-0.523148148,0.246296296,1,0,0,2.0009,Basalt_14,2,14,5,1,2.001,-0.100925926,-0.230555556,1,0,0,0.9307,Basalt_rect,2,0.931,1,10,0,10,0,1,,,,,,,,,,,,,
5f6136ff23e5260b6cf1f33c,SCN,2024-06-12_12h37.41.027,LearnStrategy,2023.2.3,Win32,60.24096386,5,1,12,-0.376851852,0.390740741,1,0,0,1.4847,Gabbro_16,4,16,6,2,1.485,-0.091666667,-0.234259259,1,0,0,0.8801,Basalt_rect,2,0.88,0,11,0,11,0,1,,,,,,,,,,,,,
5f6136ff23e5260b6cf1f33c,SCN,2024-06-12_12h37.41.027,LearnStrategy,2023.2.3,Win32,60.24096386,5,1,13,-0.048148148,0.375,1,0,0,1.0682,Basalt_12,2,12,6,4,1.068,-0.297222222,-0.247222222,1,0,0,1.4313,Andesite_rect,1,1.431,0,12,0,12,0,1,,,,,,,,,,,,,
5f6136ff23e5260b6cf1f33c,SCN,2024-06-12_12h37.41.027,LearnStrategy,2023.2.3,Win32,60.24096386,5,1,14,0.093518519,0.373148148,1,0,0,1.6839,Pegmatite_13,6,13,6,5,1.684,-0.380555556,-0.258333333,1,0,0,1.3648,Andesite_rect,1,1.365,0,13,0,13,0,1,,,,,,,,,,,,,
5f6136ff23e5260b6cf1f33c,SCN,2024-06-12_12h37.41.027,LearnStrategy,2023.2.3,Win32,60.24096386,5,1,15,0.275,0.408333333,1,0,0,1.02,Peridotite_12,7,12,6,6,1.02,0.073148148,-0.413888889,1,0,0,1.1802,Peridotite_rect,7,1.18,1,14,0,14,0,1,,,,,,,,,,,,,
5f6136ff23e5260b6cf1f33c,SCN,2024-06-12_12h37.41.027,LearnStrategy,2023.2.3,Win32,60.24096386,5,1,16,0.442592593,0.398148148,1,0,0,0.9699,Peridotite_04,7,04,6,7,0.97,-0.105555556,-0.387962963,1,0,0,1.7466,Pegmatite_rect,6,1.747,0,15,0,15,0,1,,,,,,,,,,,,,
5f6136ff23e5260b6cf1f33c,SCN,2024-06-12_12h37.41.027,LearnStrategy,2023.2.3,Win32,60.24096386,5,2,1,,,,,,,,5,02,,,,,,,,,,,5,1.304,1,,,,,,-0.364814815,-0.391666667,1,0,0,1.3039,Obsidian_rect,0,0,0,0,1,
5f6136ff23e5260b6cf1f33c,SCN,2024-06-12_12h37.41.027,LearnStrategy,2023.2.3,Win32,60.24096386,5,2,2,,,,,,,,3,13,,,,,,,,,,,6,3.82,0,,,,,,-0.178703704,-0.418518519,1,0,0,3.8203,Pegmatite_rect,1,0,1,0,1,
5f6136ff23e5260b6cf1f33c,SCN,2024-06-12_12h37.41.027,LearnStrategy,2023.2.3,Win32,60.24096386,5,2,3,,,,,,,,8,13,,,,,,,,,,,8,1.071,1,,,,,,0.356481481,-0.407407407,1,0,0,1.0708,Pumice_rect,2,0,2,0,1,
5f6136ff23e5260b6cf1f33c,SCN,2024-06-12_12h37.41.027,LearnStrategy,2023.2.3,Win32,60.24096386,5,2,4,,,,,,,,2,08,,,,,,,,,,,4,3.808,0,,,,,,0.340740741,-0.256481481,1,0,0,3.8079,Gabbro_rect,3,0,3,0,1,
5f6136ff23e5260b6cf1f33c,SCN,2024-06-12_12h37.41.027,LearnStrategy,2023.2.3,Win32,60.24096386,5,2,5,,,,,,,,6,16,,,,,,,,,,,1,5.722,0,,,,,,-0.368518519,-0.250925926,1,0,0,5.7219,Andesite_rect,4,0,4,0,1,
5f6136ff23e5260b6cf1f33c,SCN,2024-06-12_12h37.41.027,LearnStrategy,2023.2.3,Win32,60.24096386,5,2,6,,,,,,,,4,14,,,,,,,,,,,4,1.641,1,,,,,,0.325925926,-0.253703704,1,0,0,1.6406,Gabbro_rect,5,0,5,0,1,
5f6136ff23e5260b6cf1f33c,SCN,2024-06-12_12h37.41.027,LearnStrategy,2023.2.3,Win32,60.24096386,5,2,7,,,,,,,,3,11,,,,,,,,,,,6,2.236,0,,,,,,-0.037037037,-0.383333333,1,0,0,2.2362,Pegmatite_rect,6,0,6,0,1,
5f6136ff23e5260b6cf1f33c,SCN,2024-06-12_12h37.41.027,LearnStrategy,2023.2.3,Win32,60.24096386,5,2,8,,,,,,,,1,14,,,,,,,,,,,4,2.772,0,,,,,,0.380555556,-0.256481481,1,0,0,2.7721,Gabbro_rect,7,0,7,0,1,
5f6136ff23e5260b6cf1f33c,SCN,2024-06-12_12h37.41.027,LearnStrategy,2023.2.3,Win32,60.24096386,5,2,9,,,,,,,,7,14,,,,,,,,,,,7,1.036,1,,,,,,0.132407407,-0.405555556,1,0,0,1.0361,Peridotite_rect,8,0,8,0,1,
5f6136ff23e5260b6cf1f33c,SCN,2024-06-12_12h37.41.027,LearnStrategy,2023.2.3,Win32,60.24096386,5,2,10,,,,,,,,1,09,,,,,,,,,,,2,2.806,0,,,,,,-0.105555556,-0.252777778,1,0,0,2.8058,Basalt_rect,9,0,9,0,1,
5f6136ff23e5260b6cf1f33c,SCN,2024-06-12_12h37.41.027,LearnStrategy,2023.2.3,Win32,60.24096386,5,2,11,,,,,,,,6,15,,,,,,,,,,,5,1.688,0,,,,,,-0.414814815,-0.384259259,1,0,0,1.6883,Obsidian_rect,10,0,10,0,1,
5f6136ff23e5260b6cf1f33c,SCN,2024-06-12_12h37.41.027,LearnStrategy,2023.2.3,Win32,60.24096386,5,2,12,,,,,,,,4,10,,,,,,,,,,,4,4.134,1,,,,,,0.355555556,-0.258333333,1,0,0,4.1344,Gabbro_rect,11,0,11,0,1,
5f6136ff23e5260b6cf1f33c,SCN,2024-06-12_12h37.41.027,LearnStrategy,2023.2.3,Win32,60.24096386,5,2,13,,,,,,,,8,03,,,,,,,,,,,8,1.063,1,,,,,,0.325925926,-0.4,1,0,0,1.0635,Pumice_rect,12,0,12,0,1,
5f6136ff23e5260b6cf1f33c,SCN,2024-06-12_12h37.41.027,LearnStrategy,2023.2.3,Win32,60.24096386,5,2,14,,,,,,,,7,10,,,,,,,,,,,7,0.914,1,,,,,,0.12037037,-0.415740741,1,0,0,0.9138,Peridotite_rect,13,0,13,0,1,
5f6136ff23e5260b6cf1f33c,SCN,2024-06-12_12h37.41.027,LearnStrategy,2023.2.3,Win32,60.24096386,5,2,15,,,,,,,,2,11,,,,,,,,,,,2,2.513,1,,,,,,-0.081481481,-0.251851852,1,0,0,2.5134,Basalt_rect,14,0,14,0,1,
5f6136ff23e5260b6cf1f33c,SCN,2024-06-12_12h37.41.027,LearnStrategy,2023.2.3,Win32,60.24096386,5,2,16,,,,,,,,5,14,,,,,,,,,,,5,1.169,1,,,,,,-0.378703704,-0.386111111,1,0,0,1.1694,Obsidian_rect,15,0,15,0,1,
5f6136ff23e5260b6cf1f33c,SCN,2024-06-12_12h37.41.027,LearnStrategy,2023.2.3,Win32,60.24096386,6,1,1,-0.061111111,-0.087037037,1,0,0,0.7823,Pegmatite_06,6,06,3,4,0.782,-0.359259259,-0.236111111,1,0,0,0.9601,Andesite_rect,1,0.96,0,0,0,0,0,1,,,,,,,,,,,,,
5f6136ff23e5260b6cf1f33c,SCN,2024-06-12_12h37.41.027,LearnStrategy,2023.2.3,Win32,60.24096386,6,1,2,-0.063888889,0.101851852,1,0,0,0.7825,Diorite_07,3,07,4,4,0.783,0.112037037,-0.242592593,1,0,0,0.7148,Diorite_rect,3,0.715,1,1,0,1,0,1,,,,,,,,,,,,,
5f6136ff23e5260b6cf1f33c,SCN,2024-06-12_12h37.41.027,LearnStrategy,2023.2.3,Win32,60.24096386,6,1,3,-0.041666667,0.222222222,1,0,0,0.7508,Diorite_08,3,08,5,4,0.751,0.130555556,-0.233333333,1,0,0,0.6313,Diorite_rect,3,0.631,1,2,0,2,0,1,,,,,,,,,,,,,
5f6136ff23e5260b6cf1f33c,SCN,2024-06-12_12h37.41.027,LearnStrategy,2023.2.3,Win32,60.24096386,6,1,4,0.121296296,-0.242592593,1,0,0,1.0017,Diorite_16,3,16,2,5,1.002,-0.052777778,-0.407407407,1,0,0,0.7961,Pegmatite_rect,6,0.796,0,3,0,3,0,1,,,,,,,,,,,,,
5f6136ff23e5260b6cf1f33c,SCN,2024-06-12_12h37.41.027,LearnStrategy,2023.2.3,Win32,60.24096386,6,1,5,0.123148148,-0.425,1,0,0,0.668,Diorite_14,3,14,1,5,0.668,0.07962963,-0.242592593,1,0,0,1.0805,Diorite_rect,3,1.081,1,4,0,4,0,1,,,,,,,,,,,,,
5f6136ff23e5260b6cf1f33c,SCN,2024-06-12_12h37.41.027,LearnStrategy,2023.2.3,Win32,60.24096386,6,1,6,0.260185185,-0.412037037,1,0,0,1.151,Andesite_06,1,06,1,6,1.151,-0.090740741,-0.403703704,1,0,0,0.7971,Pegmatite_rect,6,0.797,0,5,0,5,0,1,,,,,,,,,,,,,
5f6136ff23e5260b6cf1f33c,SCN,2024-06-12_12h37.41.027,LearnStrategy,2023.2.3,Win32,60.24096386,6,1,7,0.363888889,-0.401851852,1,0,0,0.768,Andesite_10,1,10,1,7,0.768,-0.341666667,-0.258333333,1,0,0,0.8805,Andesite_rect,1,0.881,1,6,0,6,0,1,,,,,,,,,,,,,
5f6136ff23e5260b6cf1f33c,SCN,2024-06-12_12h37.41.027,LearnStrategy,2023.2.3,Win32,60.24096386,6,1,8,0.57037037,-0.430555556,1,0,0,0.7346,Andesite_02,1,02,1,8,0.735,-0.355555556,-0.231481481,1,0,0,1.2968,Andesite_rect,1,1.297,1,7,0,7,0,1,,,,,,,,,,,,,
5f6136ff23e5260b6cf1f33c,SCN,2024-06-12_12h37.41.027,LearnStrategy,2023.2.3,Win32,60.24096386,6,1,9,0.409259259,-0.25462963,1,0,0,3.4008,Basalt_10,2,10,2,7,3.401,0.400925926,-0.237037037,1,0,0,0.6663,Gabbro_rect,4,0.666,0,8,0,8,0,1,,,,,,,,,,,,,
5f6136ff23e5260b6cf1f33c,SCN,2024-06-12_12h37.41.027,LearnStrategy,2023.2.3,Win32,60.24096386,6,1,10,0.25,-0.272222222,1,0,0,1.1655,Gabbro_13,4,13,2,6,1.165,0.316666667,-0.246296296,1,0,0,0.7589,Gabbro_rect,4,0.759,1,9,0,9,0,1,,,,,,,,,,,,,
5f6136ff23e5260b6cf1f33c,SCN,2024-06-12_12h37.41.027,LearnStrategy,2023.2.3,Win32,60.24096386,6,1,11,0.571296296,-0.235185185,1,0,0,1.466,Pegmatite_05,6,05,2,8,1.466,-0.122222222,-0.37962963,1,0,0,1.3074,Pegmatite_rect,6,1.307,1,10,0,10,0,1,,,,,,,,,,,,,
5f6136ff23e5260b6cf1f33c,SCN,2024-06-12_12h37.41.027,LearnStrategy,2023.2.3,Win32,60.24096386,6,1,12,0.54537037,-0.106481481,1,0,0,1.2815,Basalt_06,2,06,3,8,1.281,-0.140740741,-0.252777778,1,0,0,0.7598,Basalt_rect,2,0.76,1,11,0,11,0,1,,,,,,,,,,,,,
5f6136ff23e5260b6cf1f33c,SCN,2024-06-12_12h37.41.027,LearnStrategy,2023.2.3,Win32,60.24096386,6,1,13,0.389814815,0.100925926,1,0,0,1.8663,Basalt_05,2,05,4,7,1.866,-0.117592593,-0.250925926,1,0,0,0.8895,Basalt_rect,2,0.889,1,12,0,12,0,1,,,,,,,,,,,,,
5f6136ff23e5260b6cf1f33c,SCN,2024-06-12_12h37.41.027,LearnStrategy,2023.2.3,Win32,60.24096386,6,1,14,0.210185185,0.080555556,1,0,0,0.9494,Peridotite_08,7,08,4,6,0.949,0.143518519,-0.396296296,1,0,0,1.2738,Peridotite_rect,7,1.274,1,13,0,13,0,1,,,,,,,,,,,,,
5f6136ff23e5260b6cf1f33c,SCN,2024-06-12_12h37.41.027,LearnStrategy,2023.2.3,Win32,60.24096386,6,1,15,0.384259259,0.25462963,1,0,0,1.5165,Gabbro_11,4,11,5,7,1.516,0.338888889,-0.231481481,1,0,0,0.7848,Gabbro_rect,4,0.785,1,14,0,14,0,1,,,,,,,,,,,,,
5f6136ff23e5260b6cf1f33c,SCN,2024-06-12_12h37.41.027,LearnStrategy,2023.2.3,Win32,60.24096386,6,1,16,0.547222222,0.228703704,1,0,0,0.8835,Andesite_04,1,04,5,8,0.884,0.350925926,-0.242592593,1,0,0,0.9565,Gabbro_rect,4,0.957,0,15,0,15,0,1,,,,,,,,,,,,,
5f6136ff23e5260b6cf1f33c,SCN,2024-06-12_12h37.41.027,LearnStrategy,2023.2.3,Win32,60.24096386,6,2,1,,,,,,,,8,10,,,,,,,,,,,1,4.187,0,,,,,,-0.390740741,-0.235185185,1,0,0,4.1865,Andesite_rect,0,0,0,0,1,
5f6136ff23e5260b6cf1f33c,SCN,2024-06-12_12h37.41.027,LearnStrategy,2023.2.3,Win32,60.24096386,6,2,2,,,,,,,,5,04,,,,,,,,,,,5,0.875,1,,,,,,-0.40462963,-0.415740741,1,0,0,0.8754,Obsidian_rect,1,0,1,0,1,
5f6136ff23e5260b6cf1f33c,SCN,2024-06-12_12h37.41.027,LearnStrategy,2023.2.3,Win32,60.24096386,6,2,3,,,,,,,,5,10,,,,,,,,,,,5,1.26,1,,,,,,-0.405555556,-0.415740741,1,0,0,1.2604,Obsidian_rect,2,0,2,0,1,
5f6136ff23e5260b6cf1f33c,SCN,2024-06-12_12h37.41.027,LearnStrategy,2023.2.3,Win32,60.24096386,6,2,4,,,,,,,,7,07,,,,,,,,,,,7,1.264,1,,,,,,0.051851852,-0.39537037,1,0,0,1.2635,Peridotite_rect,3,0,3,0,1,
5f6136ff23e5260b6cf1f33c,SCN,2024-06-12_12h37.41.027,LearnStrategy,2023.2.3,Win32,60.24096386,6,2,5,,,,,,,,3,10,,,,,,,,,,,6,4.891,0,,,,,,-0.090740741,-0.392592593,1,0,0,4.891,Pegmatite_rect,4,0,4,0,1,
5f6136ff23e5260b6cf1f33c,SCN,2024-06-12_12h37.41.027,LearnStrategy,2023.2.3,Win32,60.24096386,6,2,6,,,,,,,,2,04,,,,,,,,,,,2,2.916,1,,,,,,-0.122222222,-0.249074074,1,0,0,2.9164,Basalt_rect,5,0,5,0,1,
5f6136ff23e5260b6cf1f33c,SCN,2024-06-12_12h37.41.027,LearnStrategy,2023.2.3,Win32,60.24096386,6,2,7,,,,,,,,6,10,,,,,,,,,,,7,1.065,0,,,,,,0.109259259,-0.405555556,1,0,0,1.0646,Peridotite_rect,6,0,6,0,1,
5f6136ff23e5260b6cf1f33c,SCN,2024-06-12_12h37.41.027,LearnStrategy,2023.2.3,Win32,60.24096386,6,2,8,,,,,,,,2,01,,,,,,,,,,,4,1.349,0,,,,,,0.343518519,-0.266666667,1,0,0,1.3486,Gabbro_rect,7,0,7,0,1,
5f6136ff23e5260b6cf1f33c,SCN,2024-06-12_12h37.41.027,LearnStrategy,2023.2.3,Win32,60.24096386,6,2,9,,,,,,,,3,09,,,,,,,,,,,3,3.907,1,,,,,,0.065740741,-0.263888889,1,0,0,3.9071,Diorite_rect,8,0,8,0,1,
5f6136ff23e5260b6cf1f33c,SCN,2024-06-12_12h37.41.027,LearnStrategy,2023.2.3,Win32,60.24096386,6,2,10,,,,,,,,7,15,,,,,,,,,,,7,0.912,1,,,,,,0.100925926,-0.382407407,1,0,0,0.9124,Peridotite_rect,9,0,9,0,1,
5f6136ff23e5260b6cf1f33c,SCN,2024-06-12_12h37.41.027,LearnStrategy,2023.2.3,Win32,60.24096386,6,2,11,,,,,,,,4,09,,,,,,,,,,,2,3.803,0,,,,,,-0.097222222,-0.260185185,1,0,0,3.803,Basalt_rect,10,0,10,0,1,
5f6136ff23e5260b6cf1f33c,SCN,2024-06-12_12h37.41.027,LearnStrategy,2023.2.3,Win32,60.24096386,6,2,12,,,,,,,,1,01,,,,,,,,,,,4,2.329,0,,,,,,0.361111111,-0.263888889,1,0,0,2.329,Gabbro_rect,11,0,11,0,1,
5f6136ff23e5260b6cf1f33c,SCN,2024-06-12_12h37.41.027,LearnStrategy,2023.2.3,Win32,60.24096386,6,2,13,,,,,,,,4,05,,,,,,,,,,,7,2.398,0,,,,,,0.151851852,-0.401851852,1,0,0,2.3982,Peridotite_rect,12,0,12,0,1,
5f6136ff23e5260b6cf1f33c,SCN,2024-06-12_12h37.41.027,LearnStrategy,2023.2.3,Win32,60.24096386,6,2,14,,,,,,,,8,09,,,,,,,,,,,8,1.036,1,,,,,,0.364814815,-0.380555556,1,0,0,1.036,Pumice_rect,13,0,13,0,1,
5f6136ff23e5260b6cf1f33c,SCN,2024-06-12_12h37.41.027,LearnStrategy,2023.2.3,Win32,60.24096386,6,2,15,,,,,,,,6,12,,,,,,,,,,,6,8.503,1,,,,,,-0.202777778,-0.384259259,1,0,0,8.503,Pegmatite_rect,14,0,14,0,1,
5f6136ff23e5260b6cf1f33c,SCN,2024-06-12_12h37.41.027,LearnStrategy,2023.2.3,Win32,60.24096386,6,2,16,,,,,,,,1,11,,,,,,,,,,,4,3.577,0,,,,,,0.313888889,-0.251851852,1,0,0,3.5769,Gabbro_rect,15,0,15,0,1,
5f6136ff23e5260b6cf1f33c,SCN,2024-06-12_12h37.41.027,LearnStrategy,2023.2.3,Win32,60.24096386,7,1,1,-0.047222222,-0.115740741,1,0,0,1.5429,Pegmatite_06,6,06,3,4,1.543,0.083333333,-0.25,1,0,0,1.3681,Diorite_rect,3,1.368,0,0,0,0,0,1,,,,,,,,,,,,,
5f6136ff23e5260b6cf1f33c,SCN,2024-06-12_12h37.41.027,LearnStrategy,2023.2.3,Win32,60.24096386,7,1,2,-0.22962963,-0.113888889,1,0,0,1.2159,Gabbro_01,4,01,3,3,1.216,-0.328703704,-0.232407407,1,0,0,1.456,Andesite_rect,1,1.456,0,1,0,1,0,1,,,,,,,,,,,,,
5f6136ff23e5260b6cf1f33c,SCN,2024-06-12_12h37.41.027,LearnStrategy,2023.2.3,Win32,60.24096386,7,1,3,-0.355555556,-0.087037037,1,0,0,0.8814,Gabbro_12,4,12,3,2,0.881,-0.037037037,-0.256481481,1,0,0,0.7931,Basalt_rect,2,0.793,0,2,0,2,0,1,,,,,,,,,,,,,
5f6136ff23e5260b6cf1f33c,SCN,2024-06-12_12h37.41.027,LearnStrategy,2023.2.3,Win32,60.24096386,7,1,4,-0.512962963,-0.233333333,1,0,0,1.3151,Pegmatite_09,6,09,2,1,1.315,-0.419444444,-0.237037037,1,0,0,0.8935,Andesite_rect,1,0.894,0,3,0,3,0,1,,,,,,,,,,,,,
5f6136ff23e5260b6cf1f33c,SCN,2024-06-12_12h37.41.027,LearnStrategy,2023.2.3,Win32,60.24096386,7,1,5,-0.348148148,-0.260185185,1,0,0,0.9831,Diorite_15,3,15,2,2,0.983,-0.348148148,-0.261111111,1,0,0,1.068,Andesite_rect,1,1.068,0,4,0,4,0,1,,,,,,,,,,,,,
5f6136ff23e5260b6cf1f33c,SCN,2024-06-12_12h37.41.027,LearnStrategy,2023.2.3,Win32,60.24096386,7,1,6,-0.202777778,-0.264814815,1,0,0,0.5656,Gabbro_15,4,15,2,3,0.566,0.112037037,-0.237962963,1,0,0,0.6429,Diorite_rect,3,0.643,0,5,0,5,0,1,,,,,,,,,,,,,
5f6136ff23e5260b6cf1f33c,SCN,2024-06-12_12h37.41.027,LearnStrategy,2023.2.3,Win32,60.24096386,7,1,7,-0.052777778,-0.264814815,1,0,0,1.416,Pumice_06,8,06,2,4,1.416,0.457407407,-0.381481481,1,0,0,0.6564,Pumice_rect,8,0.656,1,6,0,6,0,1,,,,,,,,,,,,,
5f6136ff23e5260b6cf1f33c,SCN,2024-06-12_12h37.41.027,LearnStrategy,2023.2.3,Win32,60.24096386,7,1,8,-0.233333333,-0.389814815,1,0,0,0.7824,Peridotite_05,7,05,1,3,0.782,0.040740741,-0.378703704,1,0,0,0.876,Peridotite_rect,7,0.876,1,7,0,7,0,1,,,,,,,,,,,,,
5f6136ff23e5260b6cf1f33c,SCN,2024-06-12_12h37.41.027,LearnStrategy,2023.2.3,Win32,60.24096386,7,1,9,0.123148148,-0.410185185,1,0,0,2.1323,Diorite_14,3,14,1,5,2.132,-0.361111111,-0.262037037,1,0,0,0.6933,Andesite_rect,1,0.693,0,8,0,8,0,1,,,,,,,,,,,,,
5f6136ff23e5260b6cf1f33c,SCN,2024-06-12_12h37.41.027,LearnStrategy,2023.2.3,Win32,60.24096386,7,1,10,0.114814815,-0.263888889,1,0,0,0.8162,Diorite_16,3,16,2,5,0.816,0.112962963,-0.263888889,1,0,0,0.4099,Diorite_rect,3,0.41,1,9,0,9,0,1,,,,,,,,,,,,,
5f6136ff23e5260b6cf1f33c,SCN,2024-06-12_12h37.41.027,LearnStrategy,2023.2.3,Win32,60.24096386,7,1,11,0.096296296,-0.083333333,1,0,0,1.8164,Pumice_08,8,08,3,5,1.816,0.333333333,-0.37962963,1,0,0,0.7585,Pumice_rect,8,0.759,1,10,0,10,0,1,,,,,,,,,,,,,
5f6136ff23e5260b6cf1f33c,SCN,2024-06-12_12h37.41.027,LearnStrategy,2023.2.3,Win32,60.24096386,7,1,12,-0.094444444,0.088888889,1,0,0,0.5654,Diorite_07,3,07,4,4,0.565,0.109259259,-0.25462963,1,0,0,1.3933,Diorite_rect,3,1.393,1,11,0,11,0,1,,,,,,,,,,,,,
5f6136ff23e5260b6cf1f33c,SCN,2024-06-12_12h37.41.027,LearnStrategy,2023.2.3,Win32,60.24096386,7,1,13,-0.075,0.235185185,1,0,0,0.7493,Diorite_08,3,08,5,4,0.749,0.106481481,-0.234259259,1,0,0,0.7097,Diorite_rect,3,0.71,1,12,0,12,0,1,,,,,,,,,,,,,
5f6136ff23e5260b6cf1f33c,SCN,2024-06-12_12h37.41.027,LearnStrategy,2023.2.3,Win32,60.24096386,7,1,14,-0.216666667,0.247222222,1,0,0,1.0322,Obsidian_05,5,05,5,3,1.032,-0.377777778,-0.382407407,1,0,0,1.0261,Obsidian_rect,5,1.026,1,13,0,13,0,1,,,,,,,,,,,,,
5f6136ff23e5260b6cf1f33c,SCN,2024-06-12_12h37.41.027,LearnStrategy,2023.2.3,Win32,60.24096386,7,1,15,-0.237962963,0.387037037,1,0,0,0.9995,Diorite_12,3,12,6,3,1,0.355555556,-0.24537037,1,0,0,1.2932,Gabbro_rect,4,1.293,0,14,0,14,0,1,,,,,,,,,,,,,
5f6136ff23e5260b6cf1f33c,SCN,2024-06-12_12h37.41.027,LearnStrategy,2023.2.3,Win32,60.24096386,7,1,16,-0.098148148,0.408333333,1,0,0,0.6508,Basalt_12,2,12,6,4,0.651,0.389814815,-0.265740741,1,0,0,0.7302,Gabbro_rect,4,0.73,0,15,0,15,0,1,,,,,,,,,,,,,
5f6136ff23e5260b6cf1f33c,SCN,2024-06-12_12h37.41.027,LearnStrategy,2023.2.3,Win32,60.24096386,7,2,1,,,,,,,,2,04,,,,,,,,,,,1,6.034,0,,,,,,-0.318518519,-0.22962963,1,0,0,6.0338,Andesite_rect,0,0,0,0,1,
5f6136ff23e5260b6cf1f33c,SCN,2024-06-12_12h37.41.027,LearnStrategy,2023.2.3,Win32,60.24096386,7,2,2,,,,,,,,1,01,,,,,,,,,,,1,1.848,1,,,,,,-0.411111111,-0.269444444,1,0,0,1.8477,Andesite_rect,1,0,1,0,1,
5f6136ff23e5260b6cf1f33c,SCN,2024-06-12_12h37.41.027,LearnStrategy,2023.2.3,Win32,60.24096386,7,2,3,,,,,,,,5,07,,,,,,,,,,,5,1.21,1,,,,,,-0.401851852,-0.410185185,1,0,0,1.2104,Obsidian_rect,2,0,2,0,1,
5f6136ff23e5260b6cf1f33c,SCN,2024-06-12_12h37.41.027,LearnStrategy,2023.2.3,Win32,60.24096386,7,2,4,,,,,,,,2,01,,,,,,,,,,,2,2.018,1,,,,,,-0.116666667,-0.244444444,1,0,0,2.0181,Basalt_rect,3,0,3,0,1,
5f6136ff23e5260b6cf1f33c,SCN,2024-06-12_12h37.41.027,LearnStrategy,2023.2.3,Win32,60.24096386,7,2,5,,,,,,,,8,13,,,,,,,,,,,8,0.953,1,,,,,,0.377777778,-0.414814815,1,0,0,0.9533,Pumice_rect,4,0,4,0,1,
5f6136ff23e5260b6cf1f33c,SCN,2024-06-12_12h37.41.027,LearnStrategy,2023.2.3,Win32,60.24096386,7,2,6,,,,,,,,3,11,,,,,,,,,,,6,1.481,0,,,,,,-0.152777778,-0.401851852,1,0,0,1.4815,Pegmatite_rect,5,0,5,0,1,
5f6136ff23e5260b6cf1f33c,SCN,2024-06-12_12h37.41.027,LearnStrategy,2023.2.3,Win32,60.24096386,7,2,7,,,,,,,,7,02,,,,,,,,,,,7,0.893,1,,,,,,0.076851852,-0.381481481,1,0,0,0.8933,Peridotite_rect,6,0,6,0,1,
5f6136ff23e5260b6cf1f33c,SCN,2024-06-12_12h37.41.027,LearnStrategy,2023.2.3,Win32,60.24096386,7,2,8,,,,,,,,6,15,,,,,,,,,,,3,2.17,0,,,,,,0.05462963,-0.252777778,1,0,0,2.1697,Diorite_rect,7,0,7,0,1,
5f6136ff23e5260b6cf1f33c,SCN,2024-06-12_12h37.41.027,LearnStrategy,2023.2.3,Win32,60.24096386,7,2,9,,,,,,,,3,13,,,,,,,,,,,3,1.255,1,,,,,,0.05462963,-0.250925926,1,0,0,1.2555,Diorite_rect,8,0,8,0,1,
5f6136ff23e5260b6cf1f33c,SCN,2024-06-12_12h37.41.027,LearnStrategy,2023.2.3,Win32,60.24096386,7,2,10,,,,,,,,4,14,,,,,,,,,,,2,2.45,0,,,,,,-0.089814815,-0.236111111,1,0,0,2.45,Basalt_rect,9,0,9,0,1,
5f6136ff23e5260b6cf1f33c,SCN,2024-06-12_12h37.41.027,LearnStrategy,2023.2.3,Win32,60.24096386,7,2,11,,,,,,,,6,10,,,,,,,,,,,7,1.225,0,,,,,,0.092592593,-0.409259259,1,0,0,1.2252,Peridotite_rect,10,0,10,0,1,
5f6136ff23e5260b6cf1f33c,SCN,2024-06-12_12h37.41.027,LearnStrategy,2023.2.3,Win32,60.24096386,7,2,12,,,,,,,,7,10,,,,,,,,,,,7,0.745,1,,,,,,0.092592593,-0.409259259,1,0,0,0.7448,Peridotite_rect,11,0,11,0,1,
5f6136ff23e5260b6cf1f33c,SCN,2024-06-12_12h37.41.027,LearnStrategy,2023.2.3,Win32,60.24096386,7,2,13,,,,,,,,8,04,,,,,,,,,,,8,0.845,1,,,,,,0.373148148,-0.397222222,1,0,0,0.8452,Pumice_rect,12,0,12,0,1,
5f6136ff23e5260b6cf1f33c,SCN,2024-06-12_12h37.41.027,LearnStrategy,2023.2.3,Win32,60.24096386,7,2,14,,,,,,,,4,05,,,,,,,,,,,4,1.703,1,,,,,,0.346296296,-0.263888889,1,0,0,1.7035,Gabbro_rect,13,0,13,0,1,
5f6136ff23e5260b6cf1f33c,SCN,2024-06-12_12h37.41.027,LearnStrategy,2023.2.3,Win32,60.24096386,7,2,15,,,,,,,,1,07,,,,,,,,,,,3,1.36,0,,,,,,0.156481481,-0.262962963,1,0,0,1.3602,Diorite_rect,14,0,14,0,1,
5f6136ff23e5260b6cf1f33c,SCN,2024-06-12_12h37.41.027,LearnStrategy,2023.2.3,Win32,60.24096386,7,2,16,,,,,,,,5,16,,,,,,,,,,,5,0.987,1,,,,,,-0.316666667,-0.381481481,1,0,0,0.9871,Obsidian_rect,15,0,15,0,1,
5f6136ff23e5260b6cf1f33c,SCN,2024-06-12_12h37.41.027,LearnStrategy,2023.2.3,Win32,60.24096386,8,1,1,-0.052777778,-0.087962963,1,0,0,1.264,Pegmatite_06,6,06,3,4,1.264,0.138888889,-0.259259259,1,0,0,0.776,Diorite_rect,3,0.776,0,0,0,0,0,1,,,,,,,,,,,,,
5f6136ff23e5260b6cf1f33c,SCN,2024-06-12_12h37.41.027,LearnStrategy,2023.2.3,Win32,60.24096386,8,1,2,-0.092592593,0.103703704,1,0,0,0.5659,Diorite_07,3,07,4,4,0.566,0.057407407,-0.251851852,1,0,0,0.8429,Diorite_rect,3,0.843,1,1,0,1,0,1,,,,,,,,,,,,,
5f6136ff23e5260b6cf1f33c,SCN,2024-06-12_12h37.41.027,LearnStrategy,2023.2.3,Win32,60.24096386,8,1,3,0.097222222,-0.293518519,1,0,0,0.8306,Diorite_16,3,16,2,5,0.831,0.097222222,-0.246296296,1,0,0,0.4594,Diorite_rect,3,0.459,1,2,0,2,0,1,,,,,,,,,,,,,
5f6136ff23e5260b6cf1f33c,SCN,2024-06-12_12h37.41.027,LearnStrategy,2023.2.3,Win32,60.24096386,8,1,4,0.259259259,-0.267592593,1,0,0,1.0825,Gabbro_13,4,13,2,6,1.082,0.332407407,-0.232407407,1,0,0,0.7424,Gabbro_rect,4,0.742,1,3,0,3,0,1,,,,,,,,,,,,,
5f6136ff23e5260b6cf1f33c,SCN,2024-06-12_12h37.41.027,LearnStrategy,2023.2.3,Win32,60.24096386,8,1,5,-0.076851852,0.416666667,1,0,0,0.7142,Basalt_12,2,12,6,4,0.714,-0.091666667,-0.253703704,1,0,0,0.8084,Basalt_rect,2,0.808,1,4,0,4,0,1,,,,,,,,,,,,,
5f6136ff23e5260b6cf1f33c,SCN,2024-06-12_12h37.41.027,LearnStrategy,2023.2.3,Win32,60.24096386,8,1,6,0.108333333,0.403703704,1,0,0,2.1994,Pegmatite_13,6,13,6,5,2.199,-0.091666667,-0.401851852,1,0,0,1.6419,Pegmatite_rect,6,1.642,1,5,0,5,0,1,,,,,,,,,,,,,
5f6136ff23e5260b6cf1f33c,SCN,2024-06-12_12h37.41.027,LearnStrategy,2023.2.3,Win32,60.24096386,8,1,7,0.428703704,0.407407407,1,0,0,1.2157,Peridotite_04,7,04,6,7,1.216,-0.397222222,-0.237962963,1,0,0,1.0101,Andesite_rect,1,1.01,0,6,0,6,0,1,,,,,,,,,,,,,
5f6136ff23e5260b6cf1f33c,SCN,2024-06-12_12h37.41.027,LearnStrategy,2023.2.3,Win32,60.24096386,8,1,8,0.536111111,0.272222222,1,0,0,1.7311,Andesite_04,1,04,5,8,1.731,0.384259259,-0.25,1,0,0,1.2175,Gabbro_rect,4,1.217,0,7,0,7,0,1,,,,,,,,,,,,,
5f6136ff23e5260b6cf1f33c,SCN,2024-06-12_12h37.41.027,LearnStrategy,2023.2.3,Win32,60.24096386,8,1,9,0.369444444,0.269444444,1,0,0,0.8991,Gabbro_11,4,11,5,7,0.899,0.337037037,-0.241666667,1,0,0,1.0088,Gabbro_rect,4,1.009,1,8,0,8,0,1,,,,,,,,,,,,,
5f6136ff23e5260b6cf1f33c,SCN,2024-06-12_12h37.41.027,LearnStrategy,2023.2.3,Win32,60.24096386,8,1,10,0.250925926,0.264814815,1,0,0,0.9153,Pegmatite_08,6,08,5,6,0.915,-0.357407407,-0.231481481,1,0,0,1.0931,Andesite_rect,1,1.093,0,9,0,9,0,1,,,,,,,,,,,,,
5f6136ff23e5260b6cf1f33c,SCN,2024-06-12_12h37.41.027,LearnStrategy,2023.2.3,Win32,60.24096386,8,1,11,-0.548148148,0.261111111,1,0,0,2.8487,Basalt_14,2,14,5,1,2.849,-0.142592593,-0.271296296,1,0,0,0.8432,Basalt_rect,2,0.843,1,10,0,10,0,1,,,,,,,,,,,,,
5f6136ff23e5260b6cf1f33c,SCN,2024-06-12_12h37.41.027,LearnStrategy,2023.2.3,Win32,60.24096386,8,1,12,-0.046296296,-0.118518519,1,0,0,3.6481,Pegmatite_06,6,06,3,4,3.648,-0.081481481,-0.399074074,1,0,0,0.8533,Pegmatite_rect,6,0.853,1,11,0,11,0,1,,,,,,,,,,,,,
5f6136ff23e5260b6cf1f33c,SCN,2024-06-12_12h37.41.027,LearnStrategy,2023.2.3,Win32,60.24096386,8,1,13,0.101851852,-0.246296296,1,0,0,0.8645,Diorite_16,3,16,2,5,0.864,0.101851852,-0.246296296,1,0,0,1.0574,Diorite_rect,3,1.057,1,12,0,12,0,1,,,,,,,,,,,,,
5f6136ff23e5260b6cf1f33c,SCN,2024-06-12_12h37.41.027,LearnStrategy,2023.2.3,Win32,60.24096386,8,1,14,0.088888889,-0.42037037,1,0,0,0.6487,Diorite_14,3,14,1,5,0.649,0.103703704,-0.251851852,1,0,0,0.4436,Diorite_rect,3,0.444,1,13,0,13,0,1,,,,,,,,,,,,,
5f6136ff23e5260b6cf1f33c,SCN,2024-06-12_12h37.41.027,LearnStrategy,2023.2.3,Win32,60.24096386,8,1,15,0.253703704,-0.25462963,1,0,0,1.0476,Gabbro_13,4,13,2,6,1.048,-0.351851852,-0.228703704,1,0,0,1.193,Andesite_rect,1,1.193,0,14,0,14,0,1,,,,,,,,,,,,,
5f6136ff23e5260b6cf1f33c,SCN,2024-06-12_12h37.41.027,LearnStrategy,2023.2.3,Win32,60.24096386,8,1,16,0.422222222,-0.266666667,1,0,0,0.8488,Basalt_10,2,10,2,7,0.849,0.363888889,-0.235185185,1,0,0,0.7103,Gabbro_rect,4,0.71,0,15,0,15,0,1,,,,,,,,,,,,,
5f6136ff23e5260b6cf1f33c,SCN,2024-06-12_12h37.41.027,LearnStrategy,2023.2.3,Win32,60.24096386,8,2,1,,,,,,,,4,03,,,,,,,,,,,2,5.087,0,,,,,,-0.059259259,-0.241666667,1,0,0,5.0874,Basalt_rect,0,0,0,0,1,
5f6136ff23e5260b6cf1f33c,SCN,2024-06-12_12h37.41.027,LearnStrategy,2023.2.3,Win32,60.24096386,8,2,2,,,,,,,,2,08,,,,,,,,,,,2,4.519,1,,,,,,-0.122222222,-0.260185185,1,0,0,4.5193,Basalt_rect,1,0,1,0,1,
5f6136ff23e5260b6cf1f33c,SCN,2024-06-12_12h37.41.027,LearnStrategy,2023.2.3,Win32,60.24096386,8,2,3,,,,,,,,5,10,,,,,,,,,,,5,0.98,1,,,,,,-0.380555556,-0.388888889,1,0,0,0.9801,Obsidian_rect,2,0,2,0,1,
5f6136ff23e5260b6cf1f33c,SCN,2024-06-12_12h37.41.027,LearnStrategy,2023.2.3,Win32,60.24096386,8,2,4,,,,,,,,7,07,,,,,,,,,,,7,0.833,1,,,,,,0.130555556,-0.410185185,1,0,0,0.8329,Peridotite_rect,3,0,3,0,1,
5f6136ff23e5260b6cf1f33c,SCN,2024-06-12_12h37.41.027,LearnStrategy,2023.2.3,Win32,60.24096386,8,2,5,,,,,,,,8,10,,,,,,,,,,,8,2.282,1,,,,,,0.344444444,-0.381481481,1,0,0,2.2815,Pumice_rect,4,0,4,0,1,
5f6136ff23e5260b6cf1f33c,SCN,2024-06-12_12h37.41.027,LearnStrategy,2023.2.3,Win32,60.24096386,8,2,6,,,,,,,,1,14,,,,,,,,,,,6,5.102,0,,,,,,-0.173148148,-0.40462963,1,0,0,5.1022,Pegmatite_rect,5,0,5,0,1,
5f6136ff23e5260b6cf1f33c,SCN,2024-06-12_12h37.41.027,LearnStrategy,2023.2.3,Win32,60.24096386,8,2,7,,,,,,,,1,09,,,,,,,,,,,4,2.788,0,,,,,,0.385185185,-0.253703704,1,0,0,2.788,Gabbro_rect,6,0,6,0,1,
5f6136ff23e5260b6cf1f33c,SCN,2024-06-12_12h37.41.027,LearnStrategy,2023.2.3,Win32,60.24096386,8,2,8,,,,,,,,6,11,,,,,,,,,,,6,4.322,1,,,,,,-0.207407407,-0.381481481,1,0,0,4.3215,Pegmatite_rect,7,0,7,0,1,
5f6136ff23e5260b6cf1f33c,SCN,2024-06-12_12h37.41.027,LearnStrategy,2023.2.3,Win32,60.24096386,8,2,9,,,,,,,,5,04,,,,,,,,,,,5,0.836,1,,,,,,-0.314814815,-0.411111111,1,0,0,0.8364,Obsidian_rect,8,0,8,0,1,
5f6136ff23e5260b6cf1f33c,SCN,2024-06-12_12h37.41.027,LearnStrategy,2023.2.3,Win32,60.24096386,8,2,10,,,,,,,,2,11,,,,,,,,,,,2,2.186,1,,,,,,-0.106481481,-0.25,1,0,0,2.1855,Basalt_rect,9,0,9,0,1,
5f6136ff23e5260b6cf1f33c,SCN,2024-06-12_12h37.41.027,LearnStrategy,2023.2.3,Win32,60.24096386,8,2,11,,,,,,,,6,16,,,,,,,,,,,6,3.47,1,,,,,,-0.118518519,-0.385185185,1,0,0,3.4699,Pegmatite_rect,10,0,10,0,1,
5f6136ff23e5260b6cf1f33c,SCN,2024-06-12_12h37.41.027,LearnStrategy,2023.2.3,Win32,60.24096386,8,2,12,,,,,,,,3,09,,,,,,,,,,,3,1.686,1,,,,,,0.088888889,-0.249074074,1,0,0,1.686,Diorite_rect,11,0,11,0,1,
5f6136ff23e5260b6cf1f33c,SCN,2024-06-12_12h37.41.027,LearnStrategy,2023.2.3,Win32,60.24096386,8,2,13,,,,,,,,3,02,,,,,,,,,,,3,0.953,1,,,,,,0.088888889,-0.249074074,1,0,0,0.9532,Diorite_rect,12,0,12,0,1,
5f6136ff23e5260b6cf1f33c,SCN,2024-06-12_12h37.41.027,LearnStrategy,2023.2.3,Win32,60.24096386,8,2,14,,,,,,,,7,15,,,,,,,,,,,7,0.886,1,,,,,,0.096296296,-0.380555556,1,0,0,0.8861,Peridotite_rect,13,0,13,0,1,
5f6136ff23e5260b6cf1f33c,SCN,2024-06-12_12h37.41.027,LearnStrategy,2023.2.3,Win32,60.24096386,8,2,15,,,,,,,,8,03,,,,,,,,,,,8,1.277,1,,,,,,0.349074074,-0.396296296,1,0,0,1.2772,Pumice_rect,14,0,14,0,1,
5f6136ff23e5260b6cf1f33c,SCN,2024-06-12_12h37.41.027,LearnStrategy,2023.2.3,Win32,60.24096386,8,2,16,,,,,,,,4,09,,,,,,,,,,,2,2.269,0,,,,,,-0.112962963,-0.263888889,1,0,0,2.2686,Basalt_rect,15,0,15,0,1,
5f6136ff23e5260b6cf1f33c,SCN,2024-06-12_12h37.41.027,LearnStrategy,2023.2.3,Win32,60.24096386,9,1,1,0.049074074,-0.274074074,1,0,0,4.5835,Diorite_16,3,16,2,5,4.583,0.111111111,-0.253703704,1,0,0,1.2687,Diorite_rect,3,1.269,1,0,0,0,0,1,,,,,,,,,,,,,
5f6136ff23e5260b6cf1f33c,SCN,2024-06-12_12h37.41.027,LearnStrategy,2023.2.3,Win32,60.24096386,9,1,2,-0.086111111,-0.112037037,1,0,0,0.5158,Pegmatite_06,6,06,3,4,0.516,-0.099074074,-0.403703704,1,0,0,1.226,Pegmatite_rect,6,1.226,1,1,0,1,0,1,,,,,,,,,,,,,
5f6136ff23e5260b6cf1f33c,SCN,2024-06-12_12h37.41.027,LearnStrategy,2023.2.3,Win32,60.24096386,9,1,3,0.271296296,0.269444444,1,0,0,1.1659,Pegmatite_08,6,08,5,6,1.166,-0.149074074,-0.392592593,1,0,0,0.6925,Pegmatite_rect,6,0.692,1,2,0,2,0,1,,,,,,,,,,,,,
5f6136ff23e5260b6cf1f33c,SCN,2024-06-12_12h37.41.027,LearnStrategy,2023.2.3,Win32,60.24096386,9,1,4,0.10462963,0.211111111,1,0,0,0.8154,Pumice_02,8,02,5,5,0.815,-0.472222222,-0.251851852,1,0,0,0.9597,Andesite_rect,1,0.96,0,3,0,3,0,1,,,,,,,,,,,,,
5f6136ff23e5260b6cf1f33c,SCN,2024-06-12_12h37.41.027,LearnStrategy,2023.2.3,Win32,60.24096386,9,1,5,-0.056481481,0.261111111,1,0,0,1.1314,Diorite_08,3,08,5,4,1.131,0.162037037,-0.237037037,1,0,0,1.0025,Diorite_rect,3,1.002,1,4,0,4,0,1,,,,,,,,,,,,,
5f6136ff23e5260b6cf1f33c,SCN,2024-06-12_12h37.41.027,LearnStrategy,2023.2.3,Win32,60.24096386,9,1,6,-0.24537037,0.083333333,1,0,0,2.1326,Basalt_02,2,02,4,3,2.133,-0.119444444,-0.250925926,1,0,0,0.8389,Basalt_rect,2,0.839,1,5,0,5,0,1,,,,,,,,,,,,,
5f6136ff23e5260b6cf1f33c,SCN,2024-06-12_12h37.41.027,LearnStrategy,2023.2.3,Win32,60.24096386,9,1,7,-0.075925926,0.402777778,1,0,0,0.549,Basalt_12,2,12,6,4,0.549,-0.064814815,-0.255555556,1,0,0,0.7096,Basalt_rect,2,0.71,1,6,0,6,0,1,,,,,,,,,,,,,
5f6136ff23e5260b6cf1f33c,SCN,2024-06-12_12h37.41.027,LearnStrategy,2023.2.3,Win32,60.24096386,9,1,8,0.602777778,-0.255555556,1,0,0,4.8327,Pegmatite_05,6,05,2,8,4.833,-0.109259259,-0.402777778,1,0,0,1.5848,Pegmatite_rect,6,1.585,1,7,0,7,0,1,,,,,,,,,,,,,
5f6136ff23e5260b6cf1f33c,SCN,2024-06-12_12h37.41.027,LearnStrategy,2023.2.3,Win32,60.24096386,9,1,9,0.514814815,-0.100925926,1,0,0,1.1328,Basalt_06,2,06,3,8,1.133,-0.181481481,-0.243518519,1,0,0,1.1762,Basalt_rect,2,1.176,1,8,0,8,0,1,,,,,,,,,,,,,
5f6136ff23e5260b6cf1f33c,SCN,2024-06-12_12h37.41.027,LearnStrategy,2023.2.3,Win32,60.24096386,9,1,10,-0.562962963,0.255555556,1,0,0,1.2484,Basalt_14,2,14,5,1,1.248,0.399074074,-0.255555556,1,0,0,0.9932,Gabbro_rect,4,0.993,0,9,0,9,0,1,,,,,,,,,,,,,
5f6136ff23e5260b6cf1f33c,SCN,2024-06-12_12h37.41.027,LearnStrategy,2023.2.3,Win32,60.24096386,9,1,11,0.358333333,0.246296296,1,0,0,1.5326,Gabbro_11,4,11,5,7,1.533,0.347222222,-0.250925926,1,0,0,1.0932,Gabbro_rect,4,1.093,1,10,0,10,0,1,,,,,,,,,,,,,
5f6136ff23e5260b6cf1f33c,SCN,2024-06-12_12h37.41.027,LearnStrategy,2023.2.3,Win32,60.24096386,9,1,12,0.549074074,0.237037037,1,0,0,0.9139,Andesite_04,1,04,5,8,0.914,0.367592593,-0.241666667,1,0,0,1.0596,Gabbro_rect,4,1.06,0,11,0,11,0,1,,,,,,,,,,,,,
5f6136ff23e5260b6cf1f33c,SCN,2024-06-12_12h37.41.027,LearnStrategy,2023.2.3,Win32,60.24096386,9,1,13,0.444444444,0.407407407,1,0,0,2.6494,Peridotite_04,7,04,6,7,2.649,0.160185185,-0.408333333,1,0,0,0.8934,Peridotite_rect,7,0.893,1,12,0,12,0,1,,,,,,,,,,,,,
5f6136ff23e5260b6cf1f33c,SCN,2024-06-12_12h37.41.027,LearnStrategy,2023.2.3,Win32,60.24096386,9,1,14,0.051851852,0.388888889,1,0,0,0.8323,Pegmatite_13,6,13,6,5,0.832,-0.12037037,-0.411111111,1,0,0,0.8594,Pegmatite_rect,6,0.859,1,13,0,13,0,1,,,,,,,,,,,,,
5f6136ff23e5260b6cf1f33c,SCN,2024-06-12_12h37.41.027,LearnStrategy,2023.2.3,Win32,60.24096386,9,1,15,-0.236111111,0.408333333,1,0,0,1.0655,Diorite_12,3,12,6,3,1.065,-0.322222222,-0.240740741,1,0,0,1.2385,Andesite_rect,1,1.238,0,14,0,14,0,1,,,,,,,,,,,,,
5f6136ff23e5260b6cf1f33c,SCN,2024-06-12_12h37.41.027,LearnStrategy,2023.2.3,Win32,60.24096386,9,1,16,-0.387037037,0.37037037,1,0,0,1.2366,Gabbro_16,4,16,6,2,1.237,-0.05,-0.255555556,1,0,0,1.4819,Basalt_rect,2,1.482,0,15,0,15,0,1,,,,,,,,,,,,,
5f6136ff23e5260b6cf1f33c,SCN,2024-06-12_12h37.41.027,LearnStrategy,2023.2.3,Win32,60.24096386,9,2,1,,,,,,,,4,10,,,,,,,,,,,2,2.169,0,,,,,,-0.086111111,-0.261111111,1,0,0,2.1694,Basalt_rect,0,0,0,0,1,
5f6136ff23e5260b6cf1f33c,SCN,2024-06-12_12h37.41.027,LearnStrategy,2023.2.3,Win32,60.24096386,9,2,2,,,,,,,,2,16,,,,,,,,,,,2,2.182,1,,,,,,-0.086111111,-0.261111111,1,0,0,2.1821,Basalt_rect,1,0,1,0,1,
5f6136ff23e5260b6cf1f33c,SCN,2024-06-12_12h37.41.027,LearnStrategy,2023.2.3,Win32,60.24096386,9,2,3,,,,,,,,8,16,,,,,,,,,,,8,1.183,1,,,,,,0.387962963,-0.409259259,1,0,0,1.1827,Pumice_rect,2,0,2,0,1,
5f6136ff23e5260b6cf1f33c,SCN,2024-06-12_12h37.41.027,LearnStrategy,2023.2.3,Win32,60.24096386,9,2,4,,,,,,,,4,08,,,,,,,,,,,4,3.886,1,,,,,,0.362962963,-0.252777778,1,0,0,3.8857,Gabbro_rect,3,0,3,0,1,
5f6136ff23e5260b6cf1f33c,SCN,2024-06-12_12h37.41.027,LearnStrategy,2023.2.3,Win32,60.24096386,9,2,5,,,,,,,,7,14,,,,,,,,,,,7,1.036,1,,,,,,0.175,-0.416666667,1,0,0,1.0357,Peridotite_rect,4,0,4,0,1,
5f6136ff23e5260b6cf1f33c,SCN,2024-06-12_12h37.41.027,LearnStrategy,2023.2.3,Win32,60.24096386,9,2,6,,,,,,,,8,09,,,,,,,,,,,8,1.113,1,,,,,,0.350925926,-0.399074074,1,0,0,1.1133,Pumice_rect,5,0,5,0,1,
5f6136ff23e5260b6cf1f33c,SCN,2024-06-12_12h37.41.027,LearnStrategy,2023.2.3,Win32,60.24096386,9,2,7,,,,,,,,6,07,,,,,,,,,,,6,3.582,1,,,,,,-0.143518519,-0.393518519,1,0,0,3.5819,Pegmatite_rect,6,0,6,0,1,
5f6136ff23e5260b6cf1f33c,SCN,2024-06-12_12h37.41.027,LearnStrategy,2023.2.3,Win32,60.24096386,9,2,8,,,,,,,,1,05,,,,,,,,,,,4,3.105,0,,,,,,0.4,-0.228703704,1,0,0,3.1051,Gabbro_rect,7,0,7,0,1,
5f6136ff23e5260b6cf1f33c,SCN,2024-06-12_12h37.41.027,LearnStrategy,2023.2.3,Win32,60.24096386,9,2,9,,,,,,,,5,14,,,,,,,,,,,5,1.05,1,,,,,,-0.327777778,-0.392592593,1,0,0,1.05,Obsidian_rect,8,0,8,0,1,
5f6136ff23e5260b6cf1f33c,SCN,2024-06-12_12h37.41.027,LearnStrategy,2023.2.3,Win32,60.24096386,9,2,10,,,,,,,,3,06,,,,,,,,,,,3,2.248,1,,,,,,0.07962963,-0.263888889,1,0,0,2.2484,Diorite_rect,9,0,9,0,1,
5f6136ff23e5260b6cf1f33c,SCN,2024-06-12_12h37.41.027,LearnStrategy,2023.2.3,Win32,60.24096386,9,2,11,,,,,,,,5,02,,,,,,,,,,,5,0.855,1,,,,,,-0.355555556,-0.412037037,1,0,0,0.8551,Obsidian_rect,10,0,10,0,1,
5f6136ff23e5260b6cf1f33c,SCN,2024-06-12_12h37.41.027,LearnStrategy,2023.2.3,Win32,60.24096386,9,2,12,,,,,,,,1,11,,,,,,,,,,,6,2.785,0,,,,,,-0.178703704,-0.398148148,1,0,0,2.7854,Pegmatite_rect,11,0,11,0,1,
5f6136ff23e5260b6cf1f33c,SCN,2024-06-12_12h37.41.027,LearnStrategy,2023.2.3,Win32,60.24096386,9,2,13,,,,,,,,3,10,,,,,,,,,,,3,2.274,1,,,,,,0.080555556,-0.259259259,1,0,0,2.2738,Diorite_rect,12,0,12,0,1,
5f6136ff23e5260b6cf1f33c,SCN,2024-06-12_12h37.41.027,LearnStrategy,2023.2.3,Win32,60.24096386,9,2,14,,,,,,,,7,06,,,,,,,,,,,7,1.448,1,,,,,,0.109259259,-0.389814815,1,0,0,1.4479,Peridotite_rect,13,0,13,0,1,
5f6136ff23e5260b6cf1f33c,SCN,2024-06-12_12h37.41.027,LearnStrategy,2023.2.3,Win32,60.24096386,9,2,15,,,,,,,,2,09,,,,,,,,,,,4,4.07,0,,,,,,0.330555556,-0.230555556,1,0,0,4.0699,Gabbro_rect,14,0,14,0,1,
5f6136ff23e5260b6cf1f33c,SCN,2024-06-12_12h37.41.027,LearnStrategy,2023.2.3,Win32,60.24096386,9,2,16,,,,,,,,6,12,,,,,,,,,,,3,3.096,0,,,,,,0.126851852,-0.268518519,1,0,0,3.0962,Diorite_rect,15,0,15,0,1,
5f6136ff23e5260b6cf1f33c,SCN,2024-06-12_12h37.41.027,LearnStrategy,2023.2.3,Win32,60.24096386,,,,,,,,,,,,,,,,,,,,,,,,,,,,,,,,,,,,,,,,,,,1
5f6136ff23e5260b6cf1f33c,SCN,2024-06-12_12h37.41.027,LearnStrategy,2023.2.3,Win32,60.24096386,,,,,,,,,,,,,,,,,,,,,,,,,,,,,,,,,,,,,,,,,,,
5f6136ff23e5260b6cf1f33c,SCN,2024-06-12_12h37.41.027,LearnStrategy,2023.2.3,Win32,60.24096386,,,,,,,,,,,6,03,1,1,,,,,,,,,,,,,,,,,,,,,,,,,,,,,
5f6136ff23e5260b6cf1f33c,SCN,2024-06-12_12h37.41.027,LearnStrategy,2023.2.3,Win32,60.24096386,,,,,,,,,,,8,14,1,2,,,,,,,,,,,,,,,,,,,,,,,,,,,,,
5f6136ff23e5260b6cf1f33c,SCN,2024-06-12_12h37.41.027,LearnStrategy,2023.2.3,Win32,60.24096386,,,,,,,,,,,7,05,1,3,,,,,,,,,,,,,,,,,,,,,,,,,,,,,
5f6136ff23e5260b6cf1f33c,SCN,2024-06-12_12h37.41.027,LearnStrategy,2023.2.3,Win32,60.24096386,,,,,,,,,,,7,16,1,4,,,,,,,,,,,,,,,,,,,,,,,,,,,,,
5f6136ff23e5260b6cf1f33c,SCN,2024-06-12_12h37.41.027,LearnStrategy,2023.2.3,Win32,60.24096386,,,,,,,,,,,3,14,1,5,,,,,,,,,,,,,,,,,,,,,,,,,,,,,
5f6136ff23e5260b6cf1f33c,SCN,2024-06-12_12h37.41.027,LearnStrategy,2023.2.3,Win32,60.24096386,,,,,,,,,,,1,06,1,6,,,,,,,,,,,,,,,,,,,,,,,,,,,,,
5f6136ff23e5260b6cf1f33c,SCN,2024-06-12_12h37.41.027,LearnStrategy,2023.2.3,Win32,60.24096386,,,,,,,,,,,1,10,1,7,,,,,,,,,,,,,,,,,,,,,,,,,,,,,
5f6136ff23e5260b6cf1f33c,SCN,2024-06-12_12h37.41.027,LearnStrategy,2023.2.3,Win32,60.24096386,,,,,,,,,,,1,02,1,8,,,,,,,,,,,,,,,,,,,,,,,,,,,,,
5f6136ff23e5260b6cf1f33c,SCN,2024-06-12_12h37.41.027,LearnStrategy,2023.2.3,Win32,60.24096386,,,,,,,,,,,6,09,2,1,,,,,,,,,,,,,,,,,,,,,,,,,,,,,
5f6136ff23e5260b6cf1f33c,SCN,2024-06-12_12h37.41.027,LearnStrategy,2023.2.3,Win32,60.24096386,,,,,,,,,,,3,15,2,2,,,,,,,,,,,,,,,,,,,,,,,,,,,,,
5f6136ff23e5260b6cf1f33c,SCN,2024-06-12_12h37.41.027,LearnStrategy,2023.2.3,Win32,60.24096386,,,,,,,,,,,4,15,2,3,,,,,,,,,,,,,,,,,,,,,,,,,,,,,
5f6136ff23e5260b6cf1f33c,SCN,2024-06-12_12h37.41.027,LearnStrategy,2023.2.3,Win32,60.24096386,,,,,,,,,,,8,06,2,4,,,,,,,,,,,,,,,,,,,,,,,,,,,,,
5f6136ff23e5260b6cf1f33c,SCN,2024-06-12_12h37.41.027,LearnStrategy,2023.2.3,Win32,60.24096386,,,,,,,,,,,3,16,2,5,,,,,,,,,,,,,,,,,,,,,,,,,,,,,
5f6136ff23e5260b6cf1f33c,SCN,2024-06-12_12h37.41.027,LearnStrategy,2023.2.3,Win32,60.24096386,,,,,,,,,,,4,13,2,6,,,,,,,,,,,,,,,,,,,,,,,,,,,,,
5f6136ff23e5260b6cf1f33c,SCN,2024-06-12_12h37.41.027,LearnStrategy,2023.2.3,Win32,60.24096386,,,,,,,,,,,2,10,2,7,,,,,,,,,,,,,,,,,,,,,,,,,,,,,
5f6136ff23e5260b6cf1f33c,SCN,2024-06-12_12h37.41.027,LearnStrategy,2023.2.3,Win32,60.24096386,,,,,,,,,,,6,05,2,8,,,,,,,,,,,,,,,,,,,,,,,,,,,,,
5f6136ff23e5260b6cf1f33c,SCN,2024-06-12_12h37.41.027,LearnStrategy,2023.2.3,Win32,60.24096386,,,,,,,,,,,7,13,3,1,,,,,,,,,,,,,,,,,,,,,,,,,,,,,
5f6136ff23e5260b6cf1f33c,SCN,2024-06-12_12h37.41.027,LearnStrategy,2023.2.3,Win32,60.24096386,,,,,,,,,,,4,12,3,2,,,,,,,,,,,,,,,,,,,,,,,,,,,,,
5f6136ff23e5260b6cf1f33c,SCN,2024-06-12_12h37.41.027,LearnStrategy,2023.2.3,Win32,60.24096386,,,,,,,,,,,4,01,3,3,,,,,,,,,,,,,,,,,,,,,,,,,,,,,
5f6136ff23e5260b6cf1f33c,SCN,2024-06-12_12h37.41.027,LearnStrategy,2023.2.3,Win32,60.24096386,,,,,,,,,,,6,06,3,4,,,,,,,,,,,,,,,,,,,,,,,,,,,,,
5f6136ff23e5260b6cf1f33c,SCN,2024-06-12_12h37.41.027,LearnStrategy,2023.2.3,Win32,60.24096386,,,,,,,,,,,8,08,3,5,,,,,,,,,,,,,,,,,,,,,,,,,,,,,
5f6136ff23e5260b6cf1f33c,SCN,2024-06-12_12h37.41.027,LearnStrategy,2023.2.3,Win32,60.24096386,,,,,,,,,,,1,16,3,6,,,,,,,,,,,,,,,,,,,,,,,,,,,,,
5f6136ff23e5260b6cf1f33c,SCN,2024-06-12_12h37.41.027,LearnStrategy,2023.2.3,Win32,60.24096386,,,,,,,,,,,5,12,3,7,,,,,,,,,,,,,,,,,,,,,,,,,,,,,
5f6136ff23e5260b6cf1f33c,SCN,2024-06-12_12h37.41.027,LearnStrategy,2023.2.3,Win32,60.24096386,,,,,,,,,,,2,06,3,8,,,,,,,,,,,,,,,,,,,,,,,,,,,,,
5f6136ff23e5260b6cf1f33c,SCN,2024-06-12_12h37.41.027,LearnStrategy,2023.2.3,Win32,60.24096386,,,,,,,,,,,5,08,4,1,,,,,,,,,,,,,,,,,,,,,,,,,,,,,
5f6136ff23e5260b6cf1f33c,SCN,2024-06-12_12h37.41.027,LearnStrategy,2023.2.3,Win32,60.24096386,,,,,,,,,,,5,09,4,2,,,,,,,,,,,,,,,,,,,,,,,,,,,,,
5f6136ff23e5260b6cf1f33c,SCN,2024-06-12_12h37.41.027,LearnStrategy,2023.2.3,Win32,60.24096386,,,,,,,,,,,2,02,4,3,,,,,,,,,,,,,,,,,,,,,,,,,,,,,
5f6136ff23e5260b6cf1f33c,SCN,2024-06-12_12h37.41.027,LearnStrategy,2023.2.3,Win32,60.24096386,,,,,,,,,,,3,07,4,4,,,,,,,,,,,,,,,,,,,,,,,,,,,,,
5f6136ff23e5260b6cf1f33c,SCN,2024-06-12_12h37.41.027,LearnStrategy,2023.2.3,Win32,60.24096386,,,,,,,,,,,8,05,4,5,,,,,,,,,,,,,,,,,,,,,,,,,,,,,
5f6136ff23e5260b6cf1f33c,SCN,2024-06-12_12h37.41.027,LearnStrategy,2023.2.3,Win32,60.24096386,,,,,,,,,,,7,08,4,6,,,,,,,,,,,,,,,,,,,,,,,,,,,,,
5f6136ff23e5260b6cf1f33c,SCN,2024-06-12_12h37.41.027,LearnStrategy,2023.2.3,Win32,60.24096386,,,,,,,,,,,2,05,4,7,,,,,,,,,,,,,,,,,,,,,,,,,,,,,
5f6136ff23e5260b6cf1f33c,SCN,2024-06-12_12h37.41.027,LearnStrategy,2023.2.3,Win32,60.24096386,,,,,,,,,,,8,15,4,8,,,,,,,,,,,,,,,,,,,,,,,,,,,,,
5f6136ff23e5260b6cf1f33c,SCN,2024-06-12_12h37.41.027,LearnStrategy,2023.2.3,Win32,60.24096386,,,,,,,,,,,2,14,5,1,,,,,,,,,,,,,,,,,,,,,,,,,,,,,
5f6136ff23e5260b6cf1f33c,SCN,2024-06-12_12h37.41.027,LearnStrategy,2023.2.3,Win32,60.24096386,,,,,,,,,,,5,11,5,2,,,,,,,,,,,,,,,,,,,,,,,,,,,,,
5f6136ff23e5260b6cf1f33c,SCN,2024-06-12_12h37.41.027,LearnStrategy,2023.2.3,Win32,60.24096386,,,,,,,,,,,5,05,5,3,,,,,,,,,,,,,,,,,,,,,,,,,,,,,
5f6136ff23e5260b6cf1f33c,SCN,2024-06-12_12h37.41.027,LearnStrategy,2023.2.3,Win32,60.24096386,,,,,,,,,,,3,08,5,4,,,,,,,,,,,,,,,,,,,,,,,,,,,,,
5f6136ff23e5260b6cf1f33c,SCN,2024-06-12_12h37.41.027,LearnStrategy,2023.2.3,Win32,60.24096386,,,,,,,,,,,8,02,5,5,,,,,,,,,,,,,,,,,,,,,,,,,,,,,
5f6136ff23e5260b6cf1f33c,SCN,2024-06-12_12h37.41.027,LearnStrategy,2023.2.3,Win32,60.24096386,,,,,,,,,,,6,08,5,6,,,,,,,,,,,,,,,,,,,,,,,,,,,,,
5f6136ff23e5260b6cf1f33c,SCN,2024-06-12_12h37.41.027,LearnStrategy,2023.2.3,Win32,60.24096386,,,,,,,,,,,4,11,5,7,,,,,,,,,,,,,,,,,,,,,,,,,,,,,
5f6136ff23e5260b6cf1f33c,SCN,2024-06-12_12h37.41.027,LearnStrategy,2023.2.3,Win32,60.24096386,,,,,,,,,,,1,04,5,8,,,,,,,,,,,,,,,,,,,,,,,,,,,,,
5f6136ff23e5260b6cf1f33c,SCN,2024-06-12_12h37.41.027,LearnStrategy,2023.2.3,Win32,60.24096386,,,,,,,,,,,1,03,6,1,,,,,,,,,,,,,,,,,,,,,,,,,,,,,
5f6136ff23e5260b6cf1f33c,SCN,2024-06-12_12h37.41.027,LearnStrategy,2023.2.3,Win32,60.24096386,,,,,,,,,,,4,16,6,2,,,,,,,,,,,,,,,,,,,,,,,,,,,,,
5f6136ff23e5260b6cf1f33c,SCN,2024-06-12_12h37.41.027,LearnStrategy,2023.2.3,Win32,60.24096386,,,,,,,,,,,3,12,6,3,,,,,,,,,,,,,,,,,,,,,,,,,,,,,
5f6136ff23e5260b6cf1f33c,SCN,2024-06-12_12h37.41.027,LearnStrategy,2023.2.3,Win32,60.24096386,,,,,,,,,,,2,12,6,4,,,,,,,,,,,,,,,,,,,,,,,,,,,,,
5f6136ff23e5260b6cf1f33c,SCN,2024-06-12_12h37.41.027,LearnStrategy,2023.2.3,Win32,60.24096386,,,,,,,,,,,6,13,6,5,,,,,,,,,,,,,,,,,,,,,,,,,,,,,
5f6136ff23e5260b6cf1f33c,SCN,2024-06-12_12h37.41.027,LearnStrategy,2023.2.3,Win32,60.24096386,,,,,,,,,,,7,12,6,6,,,,,,,,,,,,,,,,,,,,,,,,,,,,,
5f6136ff23e5260b6cf1f33c,SCN,2024-06-12_12h37.41.027,LearnStrategy,2023.2.3,Win32,60.24096386,,,,,,,,,,,7,04,6,7,,,,,,,,,,,,,,,,,,,,,,,,,,,,,
5f6136ff23e5260b6cf1f33c,SCN,2024-06-12_12h37.41.027,LearnStrategy,2023.2.3,Win32,60.24096386,,,,,,,,,,,5,06,6,8,,,,,,,,,,,,,,,,,,,,,,,,,,,,,