participant,condition,date,expName,psychopyVersion,OS,frameRate,block,phase,trial,learn_mouse_2.x,learn_mouse_2.y,learn_mouse_2.leftButton,learn_mouse_2.midButton,learn_mouse_2.rightButton,learn_mouse_2.time,learn_mouse_2.clicked_name,cat,token,row,col,t_select,cat_mouse_l.x,cat_mouse_l.y,cat_mouse_l.leftButton,cat_mouse_l.midButton,cat_mouse_l.rightButton,cat_mouse_l.time,cat_mouse_l.clicked_name,resp,t_resp,corr,train_trials.thisRepN,train_trials.thisTrialN,train_trials.thisN,train_trials.thisIndex,train_trials.ran,cat_mouse_t.x,cat_mouse_t.y,cat_mouse_t.leftButton,cat_mouse_t.midButton,cat_mouse_t.rightButton,cat_mouse_t.time,cat_mouse_t.clicked_name,test_trials.thisRepN,test_trials.thisTrialN,test_trials.thisN,test_trials.thisIndex,test_trials.ran,Bonus
5f627a1e4b807f1aa7e35280,TCR,2024-06-11_12h09.40.189,LearnStrategy,2023.2.3,Win32,59.88023952,,,,,,,,,,,,,,,,,,,,,,,,,,,,,,,,,,,,,,,,,,,
5f627a1e4b807f1aa7e35280,TCR,2024-06-11_12h09.40.189,LearnStrategy,2023.2.3,Win32,59.88023952,1,1,1,0.065555556,-0.007777778,1,0,0,1.7082,rock_grid_rect_2,8,06,-1,-1,1.708,0.392222222,-0.41,1,0,0,3.8211,Pumice_rect,8,3.821,1,0,0,0,0,1,,,,,,,,,,,,,
5f627a1e4b807f1aa7e35280,TCR,2024-06-11_12h09.40.189,LearnStrategy,2023.2.3,Win32,59.88023952,1,1,2,0.024444444,-0.003333333,1,0,0,1.0584,rock_grid_rect_2,1,05,-1,-1,1.058,0.341111111,-0.257777778,1,0,0,16.4451,Gabbro_rect,4,16.445,0,1,0,1,0,1,,,,,,,,,,,,,
5f627a1e4b807f1aa7e35280,TCR,2024-06-11_12h09.40.189,LearnStrategy,2023.2.3,Win32,59.88023952,1,1,3,0.086666667,-0.004444444,1,0,0,1.1752,rock_grid_rect_2,6,05,-1,-1,1.175,-0.391111111,-0.388888889,1,0,0,8.2617,Obsidian_rect,5,8.262,0,2,0,2,0,1,,,,,,,,,,,,,
5f627a1e4b807f1aa7e35280,TCR,2024-06-11_12h09.40.189,LearnStrategy,2023.2.3,Win32,59.88023952,1,1,4,0.045555556,-0.002222222,1,0,0,1.2584,rock_grid_rect_2,4,08,-1,-1,1.258,-0.388888889,-0.415555556,1,0,0,9.6767,Obsidian_rect,5,9.677,0,3,0,3,0,1,,,,,,,,,,,,,
5f627a1e4b807f1aa7e35280,TCR,2024-06-11_12h09.40.189,LearnStrategy,2023.2.3,Win32,59.88023952,1,1,5,0.025555556,-0.015555556,1,0,0,1.183,rock_grid_rect_2,5,16,-1,-1,1.183,-0.421111111,-0.404444444,1,0,0,7.9619,Obsidian_rect,5,7.962,1,4,0,4,0,1,,,,,,,,,,,,,
5f627a1e4b807f1aa7e35280,TCR,2024-06-11_12h09.40.189,LearnStrategy,2023.2.3,Win32,59.88023952,1,1,6,0.001111111,0.007777778,1,0,0,0.841,rock_grid_rect_2,5,05,-1,-1,0.841,0.075555556,-0.241111111,1,0,0,14.3029,Diorite_rect,3,14.303,0,5,0,5,0,1,,,,,,,,,,,,,
5f627a1e4b807f1aa7e35280,TCR,2024-06-11_12h09.40.189,LearnStrategy,2023.2.3,Win32,59.88023952,1,1,7,-0.063333333,0.007777778,1,0,0,0.8081,rock_grid_rect_2,1,06,-1,-1,0.808,-0.362222222,-0.267777778,1,0,0,15.0457,Andesite_rect,1,15.046,1,6,0,6,0,1,,,,,,,,,,,,,
5f627a1e4b807f1aa7e35280,TCR,2024-06-11_12h09.40.189,LearnStrategy,2023.2.3,Win32,59.88023952,1,1,8,0.037777778,-0.013333333,1,0,0,0.959,rock_grid_rect_2,3,09,-1,-1,0.959,-0.098888889,-0.408888889,1,0,0,21.5126,Pegmatite_rect,6,21.513,0,7,0,7,0,1,,,,,,,,,,,,,
5f627a1e4b807f1aa7e35280,TCR,2024-06-11_12h09.40.189,LearnStrategy,2023.2.3,Win32,59.88023952,1,1,9,0.01,-0.002222222,1,0,0,1.0421,rock_grid_rect_2,8,14,-1,-1,1.042,0.464444444,-0.413333333,1,0,0,2.2286,Pumice_rect,8,2.229,1,8,0,8,0,1,,,,,,,,,,,,,
5f627a1e4b807f1aa7e35280,TCR,2024-06-11_12h09.40.189,LearnStrategy,2023.2.3,Win32,59.88023952,1,1,10,0.006666667,-0.004444444,1,0,0,1.2316,rock_grid_rect_2,2,14,-1,-1,1.232,0.396666667,-0.404444444,1,0,0,16.1127,Pumice_rect,8,16.113,0,9,0,9,0,1,,,,,,,,,,,,,
5f627a1e4b807f1aa7e35280,TCR,2024-06-11_12h09.40.189,LearnStrategy,2023.2.3,Win32,59.88023952,1,1,11,0.005555556,-0.004444444,1,0,0,0.942,rock_grid_rect_2,7,10,-1,-1,0.942,-0.422222222,-0.252222222,1,0,0,30.5626,Andesite_rect,1,30.563,0,10,0,10,0,1,,,,,,,,,,,,,
5f627a1e4b807f1aa7e35280,TCR,2024-06-11_12h09.40.189,LearnStrategy,2023.2.3,Win32,59.88023952,1,1,12,0,-0.006666667,1,0,0,1.075,rock_grid_rect_2,6,16,-1,-1,1.075,-0.116666667,-0.385555556,1,0,0,37.6959,Pegmatite_rect,6,37.696,1,11,0,11,0,1,,,,,,,,,,,,,
5f627a1e4b807f1aa7e35280,TCR,2024-06-11_12h09.40.189,LearnStrategy,2023.2.3,Win32,59.88023952,1,1,13,-0.023333333,-0.005555556,1,0,0,3.6589,rock_grid_rect_2,2,02,-1,-1,3.659,-0.367777778,-0.234444444,1,0,0,17.5292,Andesite_rect,1,17.529,0,12,0,12,0,1,,,,,,,,,,,,,
5f627a1e4b807f1aa7e35280,TCR,2024-06-11_12h09.40.189,LearnStrategy,2023.2.3,Win32,59.88023952,1,1,14,0.07,0.004444444,1,0,0,1.3089,rock_grid_rect_2,7,12,-1,-1,1.309,0.111111111,-0.252222222,1,0,0,13.4957,Diorite_rect,3,13.496,0,13,0,13,0,1,,,,,,,,,,,,,
5f627a1e4b807f1aa7e35280,TCR,2024-06-11_12h09.40.189,LearnStrategy,2023.2.3,Win32,59.88023952,1,1,15,0.073333333,-0.006666667,1,0,0,1.8917,rock_grid_rect_2,3,15,-1,-1,1.892,-0.137777778,-0.248888889,1,0,0,12.196,Basalt_rect,2,12.196,0,14,0,14,0,1,,,,,,,,,,,,,
5f627a1e4b807f1aa7e35280,TCR,2024-06-11_12h09.40.189,LearnStrategy,2023.2.3,Win32,59.88023952,1,1,16,0.061111111,-0.014444444,1,0,0,0.9916,rock_grid_rect_2,4,11,-1,-1,0.992,-0.124444444,-0.265555556,1,0,0,4.5129,Basalt_rect,2,4.513,0,15,0,15,0,1,,,,,,,,,,,,,
5f627a1e4b807f1aa7e35280,TCR,2024-06-11_12h09.40.189,LearnStrategy,2023.2.3,Win32,59.88023952,1,2,1,,,,,,,,6,15,,,,,,,,,,,6,15.995,1,,,,,,-0.133333333,-0.4,1,0,0,15.9945,Pegmatite_rect,0,0,0,0,1,
5f627a1e4b807f1aa7e35280,TCR,2024-06-11_12h09.40.189,LearnStrategy,2023.2.3,Win32,59.88023952,1,2,2,,,,,,,,5,11,,,,,,,,,,,5,1.595,1,,,,,,-0.372222222,-0.404444444,1,0,0,1.5951,Obsidian_rect,1,0,1,0,1,
5f627a1e4b807f1aa7e35280,TCR,2024-06-11_12h09.40.189,LearnStrategy,2023.2.3,Win32,59.88023952,1,2,3,,,,,,,,8,13,,,,,,,,,,,8,2.845,1,,,,,,0.401111111,-0.415555556,1,0,0,2.8452,Pumice_rect,2,0,2,0,1,
5f627a1e4b807f1aa7e35280,TCR,2024-06-11_12h09.40.189,LearnStrategy,2023.2.3,Win32,59.88023952,1,2,4,,,,,,,,5,12,,,,,,,,,,,5,1.395,1,,,,,,-0.387777778,-0.405555556,1,0,0,1.3949,Obsidian_rect,3,0,3,0,1,
5f627a1e4b807f1aa7e35280,TCR,2024-06-11_12h09.40.189,LearnStrategy,2023.2.3,Win32,59.88023952,1,2,5,,,,,,,,1,09,,,,,,,,,,,2,5.087,0,,,,,,-0.16,-0.238888889,1,0,0,5.0869,Basalt_rect,4,0,4,0,1,
5f627a1e4b807f1aa7e35280,TCR,2024-06-11_12h09.40.189,LearnStrategy,2023.2.3,Win32,59.88023952,1,2,6,,,,,,,,1,07,,,,,,,,,,,3,15.053,0,,,,,,0.173333333,-0.255555556,1,0,0,15.0529,Diorite_rect,5,0,5,0,1,
5f627a1e4b807f1aa7e35280,TCR,2024-06-11_12h09.40.189,LearnStrategy,2023.2.3,Win32,59.88023952,1,2,7,,,,,,,,2,16,,,,,,,,,,,2,7.236,1,,,,,,-0.103333333,-0.247777778,1,0,0,7.2356,Basalt_rect,6,0,6,0,1,
5f627a1e4b807f1aa7e35280,TCR,2024-06-11_12h09.40.189,LearnStrategy,2023.2.3,Win32,59.88023952,1,2,8,,,,,,,,3,02,,,,,,,,,,,1,12.328,0,,,,,,-0.397777778,-0.23,1,0,0,12.328,Andesite_rect,7,0,7,0,1,
5f627a1e4b807f1aa7e35280,TCR,2024-06-11_12h09.40.189,LearnStrategy,2023.2.3,Win32,59.88023952,1,2,9,,,,,,,,3,16,,,,,,,,,,,6,9.062,0,,,,,,-0.101111111,-0.418888889,1,0,0,9.0615,Pegmatite_rect,8,0,8,0,1,
5f627a1e4b807f1aa7e35280,TCR,2024-06-11_12h09.40.189,LearnStrategy,2023.2.3,Win32,59.88023952,1,2,10,,,,,,,,4,09,,,,,,,,,,,4,20.227,1,,,,,,0.422222222,-0.242222222,1,0,0,20.2273,Gabbro_rect,9,0,9,0,1,
5f627a1e4b807f1aa7e35280,TCR,2024-06-11_12h09.40.189,LearnStrategy,2023.2.3,Win32,59.88023952,1,2,11,,,,,,,,8,09,,,,,,,,,,,8,4.612,1,,,,,,0.422222222,-0.421111111,1,0,0,4.6117,Pumice_rect,10,0,10,0,1,
5f627a1e4b807f1aa7e35280,TCR,2024-06-11_12h09.40.189,LearnStrategy,2023.2.3,Win32,59.88023952,1,2,12,,,,,,,,7,14,,,,,,,,,,,1,30.445,0,,,,,,-0.394444444,-0.24,1,0,0,30.4454,Andesite_rect,11,0,11,0,1,
5f627a1e4b807f1aa7e35280,TCR,2024-06-11_12h09.40.189,LearnStrategy,2023.2.3,Win32,59.88023952,1,2,13,,,,,,,,2,09,,,,,,,,,,,4,3.162,0,,,,,,0.458888889,-0.264444444,1,0,0,3.1621,Gabbro_rect,12,0,12,0,1,
5f627a1e4b807f1aa7e35280,TCR,2024-06-11_12h09.40.189,LearnStrategy,2023.2.3,Win32,59.88023952,1,2,14,,,,,,,,4,15,,,,,,,,,,,3,10.579,0,,,,,,0.136666667,-0.241111111,1,0,0,10.5786,Diorite_rect,13,0,13,0,1,
5f627a1e4b807f1aa7e35280,TCR,2024-06-11_12h09.40.189,LearnStrategy,2023.2.3,Win32,59.88023952,1,2,15,,,,,,,,7,15,,,,,,,,,,,1,7.479,0,,,,,,-0.35,-0.264444444,1,0,0,7.4787,Andesite_rect,14,0,14,0,1,
5f627a1e4b807f1aa7e35280,TCR,2024-06-11_12h09.40.189,LearnStrategy,2023.2.3,Win32,59.88023952,1,2,16,,,,,,,,6,13,,,,,,,,,,,6,7.362,1,,,,,,-0.113333333,-0.386666667,1,0,0,7.3619,Pegmatite_rect,15,0,15,0,1,
5f627a1e4b807f1aa7e35280,TCR,2024-06-11_12h09.40.189,LearnStrategy,2023.2.3,Win32,59.88023952,2,1,1,0.068888889,-0.008888889,1,0,0,1.4655,rock_grid_rect_2,1,05,-1,-1,1.466,-0.374444444,-0.257777778,1,0,0,21.1457,Andesite_rect,1,21.146,1,0,0,0,0,1,,,,,,,,,,,,,
5f627a1e4b807f1aa7e35280,TCR,2024-06-11_12h09.40.189,LearnStrategy,2023.2.3,Win32,59.88023952,2,1,2,0.02,-0.017777778,1,0,0,1.0483,rock_grid_rect_2,7,05,-1,-1,1.048,-0.433333333,-0.258888889,1,0,0,6.1289,Andesite_rect,1,6.129,0,1,0,1,0,1,,,,,,,,,,,,,
5f627a1e4b807f1aa7e35280,TCR,2024-06-11_12h09.40.189,LearnStrategy,2023.2.3,Win32,59.88023952,2,1,3,0.018888889,0,1,0,0,0.9415,rock_grid_rect_2,3,09,-1,-1,0.941,0.156666667,-0.233333333,1,0,0,7.4286,Diorite_rect,3,7.429,1,2,0,2,0,1,,,,,,,,,,,,,
5f627a1e4b807f1aa7e35280,TCR,2024-06-11_12h09.40.189,LearnStrategy,2023.2.3,Win32,59.88023952,2,1,4,0.067777778,0,1,0,0,0.9985,rock_grid_rect_2,3,10,-1,-1,0.999,0.088888889,-0.27,1,0,0,17.8295,Diorite_rect,3,17.829,1,3,0,3,0,1,,,,,,,,,,,,,
5f627a1e4b807f1aa7e35280,TCR,2024-06-11_12h09.40.189,LearnStrategy,2023.2.3,Win32,59.88023952,2,1,5,0.088888889,0,1,0,0,0.8914,rock_grid_rect_2,4,14,-1,-1,0.891,-0.103333333,-0.264444444,1,0,0,7.5631,Basalt_rect,2,7.563,0,4,0,4,0,1,,,,,,,,,,,,,
5f627a1e4b807f1aa7e35280,TCR,2024-06-11_12h09.40.189,LearnStrategy,2023.2.3,Win32,59.88023952,2,1,6,0.011111111,-0.002222222,1,0,0,1.0416,rock_grid_rect_2,3,08,-1,-1,1.042,0.083333333,-0.242222222,1,0,0,7.1797,Diorite_rect,3,7.18,1,5,0,5,0,1,,,,,,,,,,,,,
5f627a1e4b807f1aa7e35280,TCR,2024-06-11_12h09.40.189,LearnStrategy,2023.2.3,Win32,59.88023952,2,1,7,0.052222222,-0.008888889,1,0,0,1.3585,rock_grid_rect_2,7,10,-1,-1,1.359,0.16,-0.412222222,1,0,0,7.7294,Peridotite_rect,7,7.729,1,6,0,6,0,1,,,,,,,,,,,,,
5f627a1e4b807f1aa7e35280,TCR,2024-06-11_12h09.40.189,LearnStrategy,2023.2.3,Win32,59.88023952,2,1,8,-0.012222222,-0.011111111,1,0,0,1.0315,rock_grid_rect_2,4,08,-1,-1,1.032,0.437777778,-0.27,1,0,0,14.2457,Gabbro_rect,4,14.246,1,7,0,7,0,1,,,,,,,,,,,,,
5f627a1e4b807f1aa7e35280,TCR,2024-06-11_12h09.40.189,LearnStrategy,2023.2.3,Win32,59.88023952,2,1,9,0.062222222,-0.001111111,1,0,0,0.8919,rock_grid_rect_2,1,05,-1,-1,0.892,0.115555556,-0.402222222,1,0,0,9.0966,Peridotite_rect,7,9.097,0,8,0,8,0,1,,,,,,,,,,,,,
5f627a1e4b807f1aa7e35280,TCR,2024-06-11_12h09.40.189,LearnStrategy,2023.2.3,Win32,59.88023952,2,1,10,0.123333333,-0.018888889,1,0,0,1.142,rock_grid_rect_2,2,14,-1,-1,1.142,-0.101111111,-0.265555556,1,0,0,6.0951,Basalt_rect,2,6.095,1,9,0,9,0,1,,,,,,,,,,,,,
5f627a1e4b807f1aa7e35280,TCR,2024-06-11_12h09.40.189,LearnStrategy,2023.2.3,Win32,59.88023952,2,1,11,0.011111111,-0.001111111,1,0,0,0.9815,rock_grid_rect_2,6,16,-1,-1,0.981,-0.096666667,-0.412222222,1,0,0,11.2961,Pegmatite_rect,6,11.296,1,10,0,10,0,1,,,,,,,,,,,,,
5f627a1e4b807f1aa7e35280,TCR,2024-06-11_12h09.40.189,LearnStrategy,2023.2.3,Win32,59.88023952,2,1,12,0.023333333,-0.008888889,1,0,0,1.0316,rock_grid_rect_2,7,06,-1,-1,1.032,0.095555556,-0.241111111,1,0,0,9.546,Diorite_rect,3,9.546,0,11,0,11,0,1,,,,,,,,,,,,,
5f627a1e4b807f1aa7e35280,TCR,2024-06-11_12h09.40.189,LearnStrategy,2023.2.3,Win32,59.88023952,2,1,13,-0.013333333,0.016666667,1,0,0,0.8747,rock_grid_rect_2,2,02,-1,-1,0.875,0.41,-0.234444444,1,0,0,7.9461,Gabbro_rect,4,7.946,0,12,0,12,0,1,,,,,,,,,,,,,
5f627a1e4b807f1aa7e35280,TCR,2024-06-11_12h09.40.189,LearnStrategy,2023.2.3,Win32,59.88023952,2,1,14,0.061111111,-0.01,1,0,0,1.1582,rock_grid_rect_2,3,15,-1,-1,1.158,0.146666667,-0.248888889,1,0,0,4.2125,Diorite_rect,3,4.212,1,13,0,13,0,1,,,,,,,,,,,,,
5f627a1e4b807f1aa7e35280,TCR,2024-06-11_12h09.40.189,LearnStrategy,2023.2.3,Win32,59.88023952,2,1,15,0.018888889,-0.006666667,1,0,0,0.9977,rock_grid_rect_2,1,14,-1,-1,0.998,0.125555556,-0.245555556,1,0,0,14.6799,Diorite_rect,3,14.68,0,14,0,14,0,1,,,,,,,,,,,,,
5f627a1e4b807f1aa7e35280,TCR,2024-06-11_12h09.40.189,LearnStrategy,2023.2.3,Win32,59.88023952,2,1,16,0.071111111,0.011111111,1,0,0,0.8746,rock_grid_rect_2,1,10,-1,-1,0.875,-0.35,-0.25,1,0,0,8.6958,Andesite_rect,1,8.696,1,15,0,15,0,1,,,,,,,,,,,,,
5f627a1e4b807f1aa7e35280,TCR,2024-06-11_12h09.40.189,LearnStrategy,2023.2.3,Win32,59.88023952,2,2,1,,,,,,,,8,15,,,,,,,,,,,8,1.762,1,,,,,,0.403333333,-0.405555556,1,0,0,1.762,Pumice_rect,0,0,0,0,1,
5f627a1e4b807f1aa7e35280,TCR,2024-06-11_12h09.40.189,LearnStrategy,2023.2.3,Win32,59.88023952,2,2,2,,,,,,,,6,11,,,,,,,,,,,6,18.178,1,,,,,,-0.124444444,-0.401111111,1,0,0,18.1775,Pegmatite_rect,1,0,1,0,1,
5f627a1e4b807f1aa7e35280,TCR,2024-06-11_12h09.40.189,LearnStrategy,2023.2.3,Win32,59.88023952,2,2,3,,,,,,,,4,16,,,,,,,,,,,4,9.096,1,,,,,,0.352222222,-0.244444444,1,0,0,9.0955,Gabbro_rect,2,0,2,0,1,
5f627a1e4b807f1aa7e35280,TCR,2024-06-11_12h09.40.189,LearnStrategy,2023.2.3,Win32,59.88023952,2,2,4,,,,,,,,7,07,,,,,,,,,,,1,9.645,0,,,,,,-0.34,-0.25,1,0,0,9.6454,Andesite_rect,3,0,3,0,1,
5f627a1e4b807f1aa7e35280,TCR,2024-06-11_12h09.40.189,LearnStrategy,2023.2.3,Win32,59.88023952,2,2,5,,,,,,,,5,06,,,,,,,,,,,5,2.862,1,,,,,,-0.37,-0.414444444,1,0,0,2.8616,Obsidian_rect,4,0,4,0,1,
5f627a1e4b807f1aa7e35280,TCR,2024-06-11_12h09.40.189,LearnStrategy,2023.2.3,Win32,59.88023952,2,2,6,,,,,,,,3,07,,,,,,,,,,,3,7.529,1,,,,,,0.165555556,-0.265555556,1,0,0,7.529,Diorite_rect,5,0,5,0,1,
5f627a1e4b807f1aa7e35280,TCR,2024-06-11_12h09.40.189,LearnStrategy,2023.2.3,Win32,59.88023952,2,2,7,,,,,,,,1,16,,,,,,,,,,,7,29.779,0,,,,,,0.144444444,-0.405555556,1,0,0,29.7786,Peridotite_rect,6,0,6,0,1,
5f627a1e4b807f1aa7e35280,TCR,2024-06-11_12h09.40.189,LearnStrategy,2023.2.3,Win32,59.88023952,2,2,8,,,,,,,,6,10,,,,,,,,,,,7,17.445,0,,,,,,0.186666667,-0.403333333,1,0,0,17.4453,Peridotite_rect,7,0,7,0,1,
5f627a1e4b807f1aa7e35280,TCR,2024-06-11_12h09.40.189,LearnStrategy,2023.2.3,Win32,59.88023952,2,2,9,,,,,,,,4,13,,,,,,,,,,,3,7.595,0,,,,,,0.162222222,-0.255555556,1,0,0,7.5949,Diorite_rect,8,0,8,0,1,
5f627a1e4b807f1aa7e35280,TCR,2024-06-11_12h09.40.189,LearnStrategy,2023.2.3,Win32,59.88023952,2,2,10,,,,,,,,2,01,,,,,,,,,,,2,8.045,1,,,,,,-0.151111111,-0.256666667,1,0,0,8.0455,Basalt_rect,9,0,9,0,1,
5f627a1e4b807f1aa7e35280,TCR,2024-06-11_12h09.40.189,LearnStrategy,2023.2.3,Win32,59.88023952,2,2,11,,,,,,,,3,06,,,,,,,,,,,3,8.728,1,,,,,,0.156666667,-0.247777778,1,0,0,8.7282,Diorite_rect,10,0,10,0,1,
5f627a1e4b807f1aa7e35280,TCR,2024-06-11_12h09.40.189,LearnStrategy,2023.2.3,Win32,59.88023952,2,2,12,,,,,,,,1,02,,,,,,,,,,,6,12.695,0,,,,,,-0.112222222,-0.401111111,1,0,0,12.6952,Pegmatite_rect,11,0,11,0,1,
5f627a1e4b807f1aa7e35280,TCR,2024-06-11_12h09.40.189,LearnStrategy,2023.2.3,Win32,59.88023952,2,2,13,,,,,,,,7,02,,,,,,,,,,,6,10.528,0,,,,,,-0.064444444,-0.41,1,0,0,10.5282,Pegmatite_rect,12,0,12,0,1,
5f627a1e4b807f1aa7e35280,TCR,2024-06-11_12h09.40.189,LearnStrategy,2023.2.3,Win32,59.88023952,2,2,14,,,,,,,,5,10,,,,,,,,,,,5,1.495,1,,,,,,-0.337777778,-0.416666667,1,0,0,1.495,Obsidian_rect,13,0,13,0,1,
5f627a1e4b807f1aa7e35280,TCR,2024-06-11_12h09.40.189,LearnStrategy,2023.2.3,Win32,59.88023952,2,2,15,,,,,,,,8,10,,,,,,,,,,,8,1.579,1,,,,,,0.397777778,-0.408888889,1,0,0,1.5788,Pumice_rect,14,0,14,0,1,
5f627a1e4b807f1aa7e35280,TCR,2024-06-11_12h09.40.189,LearnStrategy,2023.2.3,Win32,59.88023952,2,2,16,,,,,,,,2,05,,,,,,,,,,,4,13.52,0,,,,,,0.348888889,-0.244444444,1,0,0,13.5199,Gabbro_rect,15,0,15,0,1,
5f627a1e4b807f1aa7e35280,TCR,2024-06-11_12h09.40.189,LearnStrategy,2023.2.3,Win32,59.88023952,3,1,1,-0.05,-0.007777778,1,0,0,1.0061,rock_grid_rect_2,4,12,-1,-1,1.006,0.477777778,-0.255555556,1,0,0,7.9959,Gabbro_rect,4,7.996,1,0,0,0,0,1,,,,,,,,,,,,,
5f627a1e4b807f1aa7e35280,TCR,2024-06-11_12h09.40.189,LearnStrategy,2023.2.3,Win32,59.88023952,3,1,2,0.058888889,0.007777778,1,0,0,0.8984,rock_grid_rect_2,3,14,-1,-1,0.898,0.165555556,-0.263333333,1,0,0,5.9796,Diorite_rect,3,5.98,1,1,0,1,0,1,,,,,,,,,,,,,
5f627a1e4b807f1aa7e35280,TCR,2024-06-11_12h09.40.189,LearnStrategy,2023.2.3,Win32,59.88023952,3,1,3,0.046666667,0.002222222,1,0,0,0.8813,rock_grid_rect_2,6,06,-1,-1,0.881,0.14,-0.406666667,1,0,0,16.5131,Peridotite_rect,7,16.513,0,2,0,2,0,1,,,,,,,,,,,,,
5f627a1e4b807f1aa7e35280,TCR,2024-06-11_12h09.40.189,LearnStrategy,2023.2.3,Win32,59.88023952,3,1,4,0,-0.016666667,1,0,0,0.9419,rock_grid_rect_2,7,06,-1,-1,0.942,-0.148888889,-0.411111111,1,0,0,11.1626,Pegmatite_rect,6,11.163,0,3,0,3,0,1,,,,,,,,,,,,,
5f627a1e4b807f1aa7e35280,TCR,2024-06-11_12h09.40.189,LearnStrategy,2023.2.3,Win32,59.88023952,3,1,5,0.05,-0.011111111,1,0,0,0.9746,rock_grid_rect_2,7,12,-1,-1,0.975,0.134444444,-0.244444444,1,0,0,8.638,Diorite_rect,3,8.638,0,4,0,4,0,1,,,,,,,,,,,,,
5f627a1e4b807f1aa7e35280,TCR,2024-06-11_12h09.40.189,LearnStrategy,2023.2.3,Win32,59.88023952,3,1,6,0.07,0.004444444,1,0,0,0.9001,rock_grid_rect_2,1,14,-1,-1,0.9,-0.43,-0.246666667,1,0,0,6.1871,Andesite_rect,1,6.187,1,5,0,5,0,1,,,,,,,,,,,,,
5f627a1e4b807f1aa7e35280,TCR,2024-06-11_12h09.40.189,LearnStrategy,2023.2.3,Win32,59.88023952,3,1,7,-0.043333333,-0.008888889,1,0,0,0.8152,rock_grid_rect_2,6,05,-1,-1,0.815,-0.408888889,-0.413333333,1,0,0,2.912,Obsidian_rect,5,2.912,0,6,0,6,0,1,,,,,,,,,,,,,
5f627a1e4b807f1aa7e35280,TCR,2024-06-11_12h09.40.189,LearnStrategy,2023.2.3,Win32,59.88023952,3,1,8,0.034444444,-0.017777778,1,0,0,0.8071,rock_grid_rect_2,7,06,-1,-1,0.807,0.11,-0.397777778,1,0,0,15.9883,Peridotite_rect,7,15.988,1,7,0,7,0,1,,,,,,,,,,,,,
5f627a1e4b807f1aa7e35280,TCR,2024-06-11_12h09.40.189,LearnStrategy,2023.2.3,Win32,59.88023952,3,1,9,0.065555556,-0.023333333,1,0,0,0.8838,rock_grid_rect_2,4,01,-1,-1,0.884,-0.421111111,-0.231111111,1,0,0,13.4121,Andesite_rect,1,13.412,0,8,0,8,0,1,,,,,,,,,,,,,
5f627a1e4b807f1aa7e35280,TCR,2024-06-11_12h09.40.189,LearnStrategy,2023.2.3,Win32,59.88023952,3,1,10,-0.011111111,-0.007777778,1,0,0,1.0075,rock_grid_rect_2,2,08,-1,-1,1.007,0.382222222,-0.248888889,1,0,0,6.1026,Gabbro_rect,4,6.103,0,9,0,9,0,1,,,,,,,,,,,,,
5f627a1e4b807f1aa7e35280,TCR,2024-06-11_12h09.40.189,LearnStrategy,2023.2.3,Win32,59.88023952,3,1,11,0.104444444,-0.005555556,1,0,0,0.8675,rock_grid_rect_2,1,01,-1,-1,0.868,0.384444444,-0.235555556,1,0,0,6.4362,Gabbro_rect,4,6.436,0,10,0,10,0,1,,,,,,,,,,,,,
5f627a1e4b807f1aa7e35280,TCR,2024-06-11_12h09.40.189,LearnStrategy,2023.2.3,Win32,59.88023952,3,1,12,0.097777778,-0.007777778,1,0,0,1.3083,rock_grid_rect_2,1,10,-1,-1,1.308,-0.35,-0.244444444,1,0,0,19.246,Andesite_rect,1,19.246,1,11,0,11,0,1,,,,,,,,,,,,,
5f627a1e4b807f1aa7e35280,TCR,2024-06-11_12h09.40.189,LearnStrategy,2023.2.3,Win32,59.88023952,3,1,13,0.082222222,-0.016666667,1,0,0,1.1586,rock_grid_rect_2,7,12,-1,-1,1.159,0.113333333,-0.413333333,1,0,0,7.9791,Peridotite_rect,7,7.979,1,12,0,12,0,1,,,,,,,,,,,,,
5f627a1e4b807f1aa7e35280,TCR,2024-06-11_12h09.40.189,LearnStrategy,2023.2.3,Win32,59.88023952,3,1,14,0.057777778,-0.005555556,1,0,0,1.1821,rock_grid_rect_2,3,08,-1,-1,1.182,0.108888889,-0.254444444,1,0,0,11.195,Diorite_rect,3,11.195,1,13,0,13,0,1,,,,,,,,,,,,,
5f627a1e4b807f1aa7e35280,TCR,2024-06-11_12h09.40.189,LearnStrategy,2023.2.3,Win32,59.88023952,3,1,15,0.043333333,0.007777778,1,0,0,0.8482,rock_grid_rect_2,1,14,-1,-1,0.848,-0.378888889,-0.245555556,1,0,0,5.5459,Andesite_rect,1,5.546,1,14,0,14,0,1,,,,,,,,,,,,,
5f627a1e4b807f1aa7e35280,TCR,2024-06-11_12h09.40.189,LearnStrategy,2023.2.3,Win32,59.88023952,3,1,16,0.021111111,-0.017777778,1,0,0,0.9316,rock_grid_rect_2,2,08,-1,-1,0.932,-0.112222222,-0.25,1,0,0,3.0948,Basalt_rect,2,3.095,1,15,0,15,0,1,,,,,,,,,,,,,
5f627a1e4b807f1aa7e35280,TCR,2024-06-11_12h09.40.189,LearnStrategy,2023.2.3,Win32,59.88023952,3,2,1,,,,,,,,5,02,,,,,,,,,,,5,1.295,1,,,,,,-0.438888889,-0.421111111,1,0,0,1.2949,Obsidian_rect,0,0,0,0,1,
5f627a1e4b807f1aa7e35280,TCR,2024-06-11_12h09.40.189,LearnStrategy,2023.2.3,Win32,59.88023952,3,2,2,,,,,,,,4,03,,,,,,,,,,,4,15.609,1,,,,,,0.39,-0.242222222,1,0,0,15.6093,Gabbro_rect,1,0,1,0,1,
5f627a1e4b807f1aa7e35280,TCR,2024-06-11_12h09.40.189,LearnStrategy,2023.2.3,Win32,59.88023952,3,2,3,,,,,,,,5,08,,,,,,,,,,,5,1.345,1,,,,,,-0.41,-0.408888889,1,0,0,1.3454,Obsidian_rect,2,0,2,0,1,
5f627a1e4b807f1aa7e35280,TCR,2024-06-11_12h09.40.189,LearnStrategy,2023.2.3,Win32,59.88023952,3,2,4,,,,,,,,6,08,,,,,,,,,,,6,21.229,1,,,,,,-0.092222222,-0.416666667,1,0,0,21.2289,Pegmatite_rect,3,0,3,0,1,
5f627a1e4b807f1aa7e35280,TCR,2024-06-11_12h09.40.189,LearnStrategy,2023.2.3,Win32,59.88023952,3,2,5,,,,,,,,1,11,,,,,,,,,,,6,31.962,0,,,,,,-0.077777778,-0.418888889,1,0,0,31.9621,Pegmatite_rect,4,0,4,0,1,
5f627a1e4b807f1aa7e35280,TCR,2024-06-11_12h09.40.189,LearnStrategy,2023.2.3,Win32,59.88023952,3,2,6,,,,,,,,4,05,,,,,,,,,,,7,8.062,0,,,,,,0.128888889,-0.411111111,1,0,0,8.062,Peridotite_rect,5,0,5,0,1,
5f627a1e4b807f1aa7e35280,TCR,2024-06-11_12h09.40.189,LearnStrategy,2023.2.3,Win32,59.88023952,3,2,7,,,,,,,,7,13,,,,,,,,,,,7,19.928,1,,,,,,0.128888889,-0.408888889,1,0,0,19.9284,Peridotite_rect,6,0,6,0,1,
5f627a1e4b807f1aa7e35280,TCR,2024-06-11_12h09.40.189,LearnStrategy,2023.2.3,Win32,59.88023952,3,2,8,,,,,,,,8,02,,,,,,,,,,,8,2.275,1,,,,,,0.386666667,-0.412222222,1,0,0,2.2754,Pumice_rect,7,0,7,0,1,
5f627a1e4b807f1aa7e35280,TCR,2024-06-11_12h09.40.189,LearnStrategy,2023.2.3,Win32,59.88023952,3,2,9,,,,,,,,1,04,,,,,,,,,,,3,13.061,0,,,,,,0.103333333,-0.243333333,1,0,0,13.0613,Diorite_rect,8,0,8,0,1,
5f627a1e4b807f1aa7e35280,TCR,2024-06-11_12h09.40.189,LearnStrategy,2023.2.3,Win32,59.88023952,3,2,10,,,,,,,,7,04,,,,,,,,,,,3,9.562,0,,,,,,0.1,-0.26,1,0,0,9.5621,Diorite_rect,9,0,9,0,1,
5f627a1e4b807f1aa7e35280,TCR,2024-06-11_12h09.40.189,LearnStrategy,2023.2.3,Win32,59.88023952,3,2,11,,,,,,,,2,06,,,,,,,,,,,2,17.212,1,,,,,,-0.15,-0.257777778,1,0,0,17.2118,Basalt_rect,10,0,10,0,1,
5f627a1e4b807f1aa7e35280,TCR,2024-06-11_12h09.40.189,LearnStrategy,2023.2.3,Win32,59.88023952,3,2,12,,,,,,,,6,07,,,,,,,,,,,4,14.245,0,,,,,,0.446666667,-0.27,1,0,0,14.2452,Gabbro_rect,11,0,11,0,1,
5f627a1e4b807f1aa7e35280,TCR,2024-06-11_12h09.40.189,LearnStrategy,2023.2.3,Win32,59.88023952,3,2,13,,,,,,,,8,03,,,,,,,,,,,8,4.12,1,,,,,,0.444444444,-0.415555556,1,0,0,4.1198,Pumice_rect,12,0,12,0,1,
5f627a1e4b807f1aa7e35280,TCR,2024-06-11_12h09.40.189,LearnStrategy,2023.2.3,Win32,59.88023952,3,2,14,,,,,,,,3,13,,,,,,,,,,,3,4.969,1,,,,,,0.135555556,-0.25,1,0,0,4.9691,Diorite_rect,13,0,13,0,1,
5f627a1e4b807f1aa7e35280,TCR,2024-06-11_12h09.40.189,LearnStrategy,2023.2.3,Win32,59.88023952,3,2,15,,,,,,,,2,04,,,,,,,,,,,2,12.995,1,,,,,,-0.09,-0.242222222,1,0,0,12.9946,Basalt_rect,14,0,14,0,1,
5f627a1e4b807f1aa7e35280,TCR,2024-06-11_12h09.40.189,LearnStrategy,2023.2.3,Win32,59.88023952,3,2,16,,,,,,,,3,12,,,,,,,,,,,3,5.095,1,,,,,,0.134444444,-0.266666667,1,0,0,5.0953,Diorite_rect,15,0,15,0,1,
5f627a1e4b807f1aa7e35280,TCR,2024-06-11_12h09.40.189,LearnStrategy,2023.2.3,Win32,59.88023952,4,1,1,0.094444444,0.014444444,1,0,0,1.6823,rock_grid_rect_2,4,01,-1,-1,1.682,0.405555556,-0.241111111,1,0,0,5.3791,Gabbro_rect,4,5.379,1,0,0,0,0,1,,,,,,,,,,,,,
5f627a1e4b807f1aa7e35280,TCR,2024-06-11_12h09.40.189,LearnStrategy,2023.2.3,Win32,59.88023952,4,1,2,0.06,-0.003333333,1,0,0,0.9315,rock_grid_rect_2,1,14,-1,-1,0.931,-0.362222222,-0.252222222,1,0,0,4.6127,Andesite_rect,1,4.613,1,1,0,1,0,1,,,,,,,,,,,,,
5f627a1e4b807f1aa7e35280,TCR,2024-06-11_12h09.40.189,LearnStrategy,2023.2.3,Win32,59.88023952,4,1,3,-0.001111111,-0.013333333,1,0,0,0.9485,rock_grid_rect_2,1,10,-1,-1,0.949,-0.397777778,-0.237777778,1,0,0,13.6458,Andesite_rect,1,13.646,1,2,0,2,0,1,,,,,,,,,,,,,
5f627a1e4b807f1aa7e35280,TCR,2024-06-11_12h09.40.189,LearnStrategy,2023.2.3,Win32,59.88023952,4,1,4,0.005555556,-0.004444444,1,0,0,0.965,rock_grid_rect_2,4,01,-1,-1,0.965,0.416666667,-0.242222222,1,0,0,7.2628,Gabbro_rect,4,7.263,1,3,0,3,0,1,,,,,,,,,,,,,
5f627a1e4b807f1aa7e35280,TCR,2024-06-11_12h09.40.189,LearnStrategy,2023.2.3,Win32,59.88023952,4,1,5,0.008888889,0.002222222,1,0,0,0.8491,rock_grid_rect_2,6,03,-1,-1,0.849,0.125555556,-0.421111111,1,0,0,12.0117,Peridotite_rect,7,12.012,0,4,0,4,0,1,,,,,,,,,,,,,
5f627a1e4b807f1aa7e35280,TCR,2024-06-11_12h09.40.189,LearnStrategy,2023.2.3,Win32,59.88023952,4,1,6,0.12,-0.008888889,1,0,0,1.1085,rock_grid_rect_2,2,08,-1,-1,1.108,-0.194444444,-0.243333333,1,0,0,3.529,Basalt_rect,2,3.529,1,5,0,5,0,1,,,,,,,,,,,,,
5f627a1e4b807f1aa7e35280,TCR,2024-06-11_12h09.40.189,LearnStrategy,2023.2.3,Win32,59.88023952,4,1,7,0.004444444,-0.022222222,1,0,0,0.8989,rock_grid_rect_2,7,06,-1,-1,0.899,-0.126666667,-0.406666667,1,0,0,10.9627,Pegmatite_rect,6,10.963,0,6,0,6,0,1,,,,,,,,,,,,,
5f627a1e4b807f1aa7e35280,TCR,2024-06-11_12h09.40.189,LearnStrategy,2023.2.3,Win32,59.88023952,4,1,8,-0.054444444,-0.012222222,1,0,0,1.3083,rock_grid_rect_2,7,08,-1,-1,1.308,0.085555556,-0.255555556,1,0,0,13.3797,Diorite_rect,3,13.38,0,7,0,7,0,1,,,,,,,,,,,,,
5f627a1e4b807f1aa7e35280,TCR,2024-06-11_12h09.40.189,LearnStrategy,2023.2.3,Win32,59.88023952,4,1,9,0.026666667,-0.008888889,1,0,0,1.0917,rock_grid_rect_2,3,14,-1,-1,1.092,0.144444444,-0.242222222,1,0,0,6.446,Diorite_rect,3,6.446,1,8,0,8,0,1,,,,,,,,,,,,,
5f627a1e4b807f1aa7e35280,TCR,2024-06-11_12h09.40.189,LearnStrategy,2023.2.3,Win32,59.88023952,4,1,10,0.007777778,0.004444444,1,0,0,0.7483,rock_grid_rect_2,6,09,-1,-1,0.748,-0.088888889,-0.404444444,1,0,0,7.83,Pegmatite_rect,6,7.83,1,9,0,9,0,1,,,,,,,,,,,,,
5f627a1e4b807f1aa7e35280,TCR,2024-06-11_12h09.40.189,LearnStrategy,2023.2.3,Win32,59.88023952,4,1,11,0.073333333,0,1,0,0,1.1587,rock_grid_rect_2,3,08,-1,-1,1.159,0.107777778,-0.235555556,1,0,0,16.0963,Diorite_rect,3,16.096,1,10,0,10,0,1,,,,,,,,,,,,,
5f627a1e4b807f1aa7e35280,TCR,2024-06-11_12h09.40.189,LearnStrategy,2023.2.3,Win32,59.88023952,4,1,12,-0.02,0.007777778,1,0,0,0.7252,rock_grid_rect_2,2,10,-1,-1,0.725,-0.138888889,-0.24,1,0,0,13.913,Basalt_rect,2,13.913,1,11,0,11,0,1,,,,,,,,,,,,,
5f627a1e4b807f1aa7e35280,TCR,2024-06-11_12h09.40.189,LearnStrategy,2023.2.3,Win32,59.88023952,4,1,13,-0.004444444,-0.021111111,1,0,0,0.915,rock_grid_rect_2,1,06,-1,-1,0.915,0.432222222,-0.253333333,1,0,0,5.9626,Gabbro_rect,4,5.963,0,12,0,12,0,1,,,,,,,,,,,,,
5f627a1e4b807f1aa7e35280,TCR,2024-06-11_12h09.40.189,LearnStrategy,2023.2.3,Win32,59.88023952,4,1,14,0.083333333,0.023333333,1,0,0,0.7902,rock_grid_rect_2,1,01,-1,-1,0.79,0.455555556,-0.248888889,1,0,0,8.9629,Gabbro_rect,4,8.963,0,13,0,13,0,1,,,,,,,,,,,,,
5f627a1e4b807f1aa7e35280,TCR,2024-06-11_12h09.40.189,LearnStrategy,2023.2.3,Win32,59.88023952,4,1,15,0.014444444,0.001111111,1,0,0,0.7247,rock_grid_rect_2,1,05,-1,-1,0.725,0.166666667,-0.407777778,1,0,0,18.1961,Peridotite_rect,7,18.196,0,14,0,14,0,1,,,,,,,,,,,,,
5f627a1e4b807f1aa7e35280,TCR,2024-06-11_12h09.40.189,LearnStrategy,2023.2.3,Win32,59.88023952,4,1,16,0.102222222,-0.02,1,0,0,0.9582,rock_grid_rect_2,7,06,-1,-1,0.958,0.175555556,-0.385555556,1,0,0,8.9123,Peridotite_rect,7,8.912,1,15,0,15,0,1,,,,,,,,,,,,,
5f627a1e4b807f1aa7e35280,TCR,2024-06-11_12h09.40.189,LearnStrategy,2023.2.3,Win32,59.88023952,4,2,1,,,,,,,,1,11,,,,,,,,,,,1,26.254,1,,,,,,-0.425555556,-0.256666667,1,0,0,26.2539,Andesite_rect,0,0,0,0,1,
5f627a1e4b807f1aa7e35280,TCR,2024-06-11_12h09.40.189,LearnStrategy,2023.2.3,Win32,59.88023952,4,2,2,,,,,,,,7,15,,,,,,,,,,,7,5.161,1,,,,,,0.114444444,-0.412222222,1,0,0,5.1609,Peridotite_rect,1,0,1,0,1,
5f627a1e4b807f1aa7e35280,TCR,2024-06-11_12h09.40.189,LearnStrategy,2023.2.3,Win32,59.88023952,4,2,3,,,,,,,,2,05,,,,,,,,,,,2,13.912,1,,,,,,-0.121111111,-0.254444444,1,0,0,13.9116,Basalt_rect,2,0,2,0,1,
5f627a1e4b807f1aa7e35280,TCR,2024-06-11_12h09.40.189,LearnStrategy,2023.2.3,Win32,59.88023952,4,2,4,,,,,,,,7,07,,,,,,,,,,,7,11.279,1,,,,,,0.2,-0.403333333,1,0,0,11.2788,Peridotite_rect,3,0,3,0,1,
5f627a1e4b807f1aa7e35280,TCR,2024-06-11_12h09.40.189,LearnStrategy,2023.2.3,Win32,59.88023952,4,2,5,,,,,,,,6,11,,,,,,,,,,,4,28.828,0,,,,,,0.427777778,-0.243333333,1,0,0,28.8283,Gabbro_rect,4,0,4,0,1,
5f627a1e4b807f1aa7e35280,TCR,2024-06-11_12h09.40.189,LearnStrategy,2023.2.3,Win32,59.88023952,4,2,6,,,,,,,,2,09,,,,,,,,,,,4,3.761,0,,,,,,0.427777778,-0.243333333,1,0,0,3.7612,Gabbro_rect,5,0,5,0,1,
5f627a1e4b807f1aa7e35280,TCR,2024-06-11_12h09.40.189,LearnStrategy,2023.2.3,Win32,59.88023952,4,2,7,,,,,,,,5,11,,,,,,,,,,,5,1.295,1,,,,,,-0.364444444,-0.401111111,1,0,0,1.2952,Obsidian_rect,6,0,6,0,1,
5f627a1e4b807f1aa7e35280,TCR,2024-06-11_12h09.40.189,LearnStrategy,2023.2.3,Win32,59.88023952,4,2,8,,,,,,,,8,10,,,,,,,,,,,8,1.212,1,,,,,,0.362222222,-0.408888889,1,0,0,1.2122,Pumice_rect,7,0,7,0,1,
5f627a1e4b807f1aa7e35280,TCR,2024-06-11_12h09.40.189,LearnStrategy,2023.2.3,Win32,59.88023952,4,2,9,,,,,,,,6,13,,,,,,,,,,,6,8.279,1,,,,,,-0.152222222,-0.393333333,1,0,0,8.2792,Pegmatite_rect,8,0,8,0,1,
5f627a1e4b807f1aa7e35280,TCR,2024-06-11_12h09.40.189,LearnStrategy,2023.2.3,Win32,59.88023952,4,2,10,,,,,,,,3,06,,,,,,,,,,,3,4.512,1,,,,,,0.097777778,-0.24,1,0,0,4.5117,Diorite_rect,9,0,9,0,1,
5f627a1e4b807f1aa7e35280,TCR,2024-06-11_12h09.40.189,LearnStrategy,2023.2.3,Win32,59.88023952,4,2,11,,,,,,,,1,02,,,,,,,,,,,7,13.446,0,,,,,,0.148888889,-0.401111111,1,0,0,13.4457,Peridotite_rect,10,0,10,0,1,
5f627a1e4b807f1aa7e35280,TCR,2024-06-11_12h09.40.189,LearnStrategy,2023.2.3,Win32,59.88023952,4,2,12,,,,,,,,8,15,,,,,,,,,,,8,6.945,1,,,,,,0.445555556,-0.415555556,1,0,0,6.9451,Pumice_rect,11,0,11,0,1,
5f627a1e4b807f1aa7e35280,TCR,2024-06-11_12h09.40.189,LearnStrategy,2023.2.3,Win32,59.88023952,4,2,13,,,,,,,,3,13,,,,,,,,,,,3,5.045,1,,,,,,0.116666667,-0.258888889,1,0,0,5.0447,Diorite_rect,12,0,12,0,1,
5f627a1e4b807f1aa7e35280,TCR,2024-06-11_12h09.40.189,LearnStrategy,2023.2.3,Win32,59.88023952,4,2,14,,,,,,,,4,09,,,,,,,,,,,4,5.345,1,,,,,,0.385555556,-0.236666667,1,0,0,5.3454,Gabbro_rect,13,0,13,0,1,
5f627a1e4b807f1aa7e35280,TCR,2024-06-11_12h09.40.189,LearnStrategy,2023.2.3,Win32,59.88023952,4,2,15,,,,,,,,5,10,,,,,,,,,,,5,1.229,1,,,,,,-0.332222222,-0.406666667,1,0,0,1.2291,Obsidian_rect,14,0,14,0,1,
5f627a1e4b807f1aa7e35280,TCR,2024-06-11_12h09.40.189,LearnStrategy,2023.2.3,Win32,59.88023952,4,2,16,,,,,,,,4,15,,,,,,,,,,,4,13.013,1,,,,,,0.405555556,-0.25,1,0,0,13.0127,Gabbro_rect,15,0,15,0,1,
5f627a1e4b807f1aa7e35280,TCR,2024-06-11_12h09.40.189,LearnStrategy,2023.2.3,Win32,59.88023952,5,1,1,0.127777778,-0.001111111,1,0,0,43.7324,rock_grid_rect_2,7,16,-1,-1,43.732,0.112222222,-0.407777778,1,0,0,13.3186,Peridotite_rect,7,13.319,1,0,0,0,0,1,,,,,,,,,,,,,
5f627a1e4b807f1aa7e35280,TCR,2024-06-11_12h09.40.189,LearnStrategy,2023.2.3,Win32,59.88023952,5,1,2,-0.036666667,-0.023333333,1,0,0,1.0815,rock_grid_rect_2,2,10,-1,-1,1.082,-0.157777778,-0.256666667,1,0,0,6.8198,Basalt_rect,2,6.82,1,1,0,1,0,1,,,,,,,,,,,,,
5f627a1e4b807f1aa7e35280,TCR,2024-06-11_12h09.40.189,LearnStrategy,2023.2.3,Win32,59.88023952,5,1,3,-0.004444444,-0.003333333,1,0,0,1.0233,rock_grid_rect_2,6,16,-1,-1,1.023,-0.131111111,-0.417777778,1,0,0,20.1951,Pegmatite_rect,6,20.195,1,2,0,2,0,1,,,,,,,,,,,,,
5f627a1e4b807f1aa7e35280,TCR,2024-06-11_12h09.40.189,LearnStrategy,2023.2.3,Win32,59.88023952,5,1,4,0.035555556,0.002222222,1,0,0,0.9126,rock_grid_rect_2,2,02,-1,-1,0.913,0.422222222,-0.253333333,1,0,0,3.3456,Gabbro_rect,4,3.346,0,3,0,3,0,1,,,,,,,,,,,,,
5f627a1e4b807f1aa7e35280,TCR,2024-06-11_12h09.40.189,LearnStrategy,2023.2.3,Win32,59.88023952,5,1,5,0.066666667,-0.008888889,1,0,0,1.1327,rock_grid_rect_2,7,06,-1,-1,1.133,0.175555556,-0.416666667,1,0,0,7.4377,Peridotite_rect,7,7.438,1,4,0,4,0,1,,,,,,,,,,,,,
5f627a1e4b807f1aa7e35280,TCR,2024-06-11_12h09.40.189,LearnStrategy,2023.2.3,Win32,59.88023952,5,1,6,0.035555556,-0.011111111,1,0,0,1.0315,rock_grid_rect_2,3,10,-1,-1,1.032,-0.158888889,-0.408888889,1,0,0,7.6958,Pegmatite_rect,6,7.696,0,5,0,5,0,1,,,,,,,,,,,,,
5f627a1e4b807f1aa7e35280,TCR,2024-06-11_12h09.40.189,LearnStrategy,2023.2.3,Win32,59.88023952,5,1,7,0.006666667,-0.007777778,1,0,0,1.0249,rock_grid_rect_2,8,04,-1,-1,1.025,0.437777778,-0.4,1,0,0,1.7952,Pumice_rect,8,1.795,1,6,0,6,0,1,,,,,,,,,,,,,
5f627a1e4b807f1aa7e35280,TCR,2024-06-11_12h09.40.189,LearnStrategy,2023.2.3,Win32,59.88023952,5,1,8,0.071111111,-0.007777778,1,0,0,0.9155,rock_grid_rect_2,4,08,-1,-1,0.916,0.465555556,-0.247777778,1,0,0,9.6127,Gabbro_rect,4,9.613,1,7,0,7,0,1,,,,,,,,,,,,,
5f627a1e4b807f1aa7e35280,TCR,2024-06-11_12h09.40.189,LearnStrategy,2023.2.3,Win32,59.88023952,5,1,9,0.033333333,0.006666667,1,0,0,0.8313,rock_grid_rect_2,1,06,-1,-1,0.831,0.101111111,-0.414444444,1,0,0,13.0629,Peridotite_rect,7,13.063,0,8,0,8,0,1,,,,,,,,,,,,,
5f627a1e4b807f1aa7e35280,TCR,2024-06-11_12h09.40.189,LearnStrategy,2023.2.3,Win32,59.88023952,5,1,10,0.114444444,0.002222222,1,0,0,1.1919,rock_grid_rect_2,6,05,-1,-1,1.192,0.121111111,-0.245555556,1,0,0,31.3122,Diorite_rect,3,31.312,0,9,0,9,0,1,,,,,,,,,,,,,
5f627a1e4b807f1aa7e35280,TCR,2024-06-11_12h09.40.189,LearnStrategy,2023.2.3,Win32,59.88023952,5,1,11,0.033333333,-0.02,1,0,0,1.1084,rock_grid_rect_2,1,14,-1,-1,1.108,-0.386666667,-0.246666667,1,0,0,8.0288,Andesite_rect,1,8.029,1,10,0,10,0,1,,,,,,,,,,,,,
5f627a1e4b807f1aa7e35280,TCR,2024-06-11_12h09.40.189,LearnStrategy,2023.2.3,Win32,59.88023952,5,1,12,0.056666667,-0.01,1,0,0,0.8317,rock_grid_rect_2,5,14,-1,-1,0.832,-0.376666667,-0.414444444,1,0,0,1.2456,Obsidian_rect,5,1.246,1,11,0,11,0,1,,,,,,,,,,,,,
5f627a1e4b807f1aa7e35280,TCR,2024-06-11_12h09.40.189,LearnStrategy,2023.2.3,Win32,59.88023952,5,1,13,-0.02,-0.003333333,1,0,0,0.7651,rock_grid_rect_2,7,12,-1,-1,0.765,0.164444444,-0.411111111,1,0,0,9.4465,Peridotite_rect,7,9.447,1,12,0,12,0,1,,,,,,,,,,,,,
5f627a1e4b807f1aa7e35280,TCR,2024-06-11_12h09.40.189,LearnStrategy,2023.2.3,Win32,59.88023952,5,1,14,0.055555556,-0.012222222,1,0,0,1.082,rock_grid_rect_2,4,11,-1,-1,1.082,0.443333333,-0.245555556,1,0,0,4.9626,Gabbro_rect,4,4.963,1,13,0,13,0,1,,,,,,,,,,,,,
5f627a1e4b807f1aa7e35280,TCR,2024-06-11_12h09.40.189,LearnStrategy,2023.2.3,Win32,59.88023952,5,1,15,0.042222222,-0.006666667,1,0,0,0.9812,rock_grid_rect_2,6,06,-1,-1,0.981,0.142222222,-0.421111111,1,0,0,19.7465,Peridotite_rect,7,19.747,0,14,0,14,0,1,,,,,,,,,,,,,
5f627a1e4b807f1aa7e35280,TCR,2024-06-11_12h09.40.189,LearnStrategy,2023.2.3,Win32,59.88023952,5,1,16,0.05,-0.007777778,1,0,0,1.1083,rock_grid_rect_2,1,14,-1,-1,1.108,-0.401111111,-0.236666667,1,0,0,4.4459,Andesite_rect,1,4.446,1,15,0,15,0,1,,,,,,,,,,,,,
5f627a1e4b807f1aa7e35280,TCR,2024-06-11_12h09.40.189,LearnStrategy,2023.2.3,Win32,59.88023952,5,2,1,,,,,,,,6,15,,,,,,,,,,,6,17.945,1,,,,,,-0.181111111,-0.412222222,1,0,0,17.9452,Pegmatite_rect,0,0,0,0,1,
5f627a1e4b807f1aa7e35280,TCR,2024-06-11_12h09.40.189,LearnStrategy,2023.2.3,Win32,59.88023952,5,2,2,,,,,,,,1,09,,,,,,,,,,,4,14.786,0,,,,,,0.398888889,-0.233333333,1,0,0,14.7865,Gabbro_rect,1,0,1,0,1,
5f627a1e4b807f1aa7e35280,TCR,2024-06-11_12h09.40.189,LearnStrategy,2023.2.3,Win32,59.88023952,5,2,3,,,,,,,,7,13,,,,,,,,,,,7,5.758,1,,,,,,0.125555556,-0.418888889,1,0,0,5.7582,Peridotite_rect,2,0,2,0,1,
5f627a1e4b807f1aa7e35280,TCR,2024-06-11_12h09.40.189,LearnStrategy,2023.2.3,Win32,59.88023952,5,2,4,,,,,,,,5,08,,,,,,,,,,,5,1.129,1,,,,,,-0.376666667,-0.413333333,1,0,0,1.1285,Obsidian_rect,3,0,3,0,1,
5f627a1e4b807f1aa7e35280,TCR,2024-06-11_12h09.40.189,LearnStrategy,2023.2.3,Win32,59.88023952,5,2,5,,,,,,,,7,04,,,,,,,,,,,4,29.995,0,,,,,,0.372222222,-0.247777778,1,0,0,29.9953,Gabbro_rect,4,0,4,0,1,
5f627a1e4b807f1aa7e35280,TCR,2024-06-11_12h09.40.189,LearnStrategy,2023.2.3,Win32,59.88023952,5,2,6,,,,,,,,8,09,,,,,,,,,,,8,1.045,1,,,,,,0.396666667,-0.398888889,1,0,0,1.0454,Pumice_rect,5,0,5,0,1,
5f627a1e4b807f1aa7e35280,TCR,2024-06-11_12h09.40.189,LearnStrategy,2023.2.3,Win32,59.88023952,5,2,7,,,,,,,,8,03,,,,,,,,,,,8,1.012,1,,,,,,0.397777778,-0.397777778,1,0,0,1.0122,Pumice_rect,6,0,6,0,1,
5f627a1e4b807f1aa7e35280,TCR,2024-06-11_12h09.40.189,LearnStrategy,2023.2.3,Win32,59.88023952,5,2,8,,,,,,,,3,12,,,,,,,,,,,3,32.212,1,,,,,,0.112222222,-0.241111111,1,0,0,32.2121,Diorite_rect,7,0,7,0,1,
5f627a1e4b807f1aa7e35280,TCR,2024-06-11_12h09.40.189,LearnStrategy,2023.2.3,Win32,59.88023952,5,2,9,,,,,,,,2,01,,,,,,,,,,,2,4.428,1,,,,,,-0.144444444,-0.258888889,1,0,0,4.4284,Basalt_rect,8,0,8,0,1,
5f627a1e4b807f1aa7e35280,TCR,2024-06-11_12h09.40.189,LearnStrategy,2023.2.3,Win32,59.88023952,5,2,10,,,,,,,,1,07,,,,,,,,,,,1,12.412,1,,,,,,-0.375555556,-0.247777778,1,0,0,12.4119,Andesite_rect,9,0,9,0,1,
5f627a1e4b807f1aa7e35280,TCR,2024-06-11_12h09.40.189,LearnStrategy,2023.2.3,Win32,59.88023952,5,2,11,,,,,,,,6,08,,,,,,,,,,,6,20.262,1,,,,,,-0.153333333,-0.391111111,1,0,0,20.262,Pegmatite_rect,10,0,10,0,1,
5f627a1e4b807f1aa7e35280,TCR,2024-06-11_12h09.40.189,LearnStrategy,2023.2.3,Win32,59.88023952,5,2,12,,,,,,,,5,06,,,,,,,,,,,5,3.728,1,,,,,,-0.407777778,-0.394444444,1,0,0,3.7283,Obsidian_rect,11,0,11,0,1,
5f627a1e4b807f1aa7e35280,TCR,2024-06-11_12h09.40.189,LearnStrategy,2023.2.3,Win32,59.88023952,5,2,13,,,,,,,,3,02,,,,,,,,,,,3,29.145,1,,,,,,0.193333333,-0.264444444,1,0,0,29.1454,Diorite_rect,12,0,12,0,1,
5f627a1e4b807f1aa7e35280,TCR,2024-06-11_12h09.40.189,LearnStrategy,2023.2.3,Win32,59.88023952,5,2,14,,,,,,,,2,16,,,,,,,,,,,2,5.329,1,,,,,,-0.12,-0.242222222,1,0,0,5.3285,Basalt_rect,13,0,13,0,1,
5f627a1e4b807f1aa7e35280,TCR,2024-06-11_12h09.40.189,LearnStrategy,2023.2.3,Win32,59.88023952,5,2,15,,,,,,,,4,05,,,,,,,,,,,7,13.612,0,,,,,,0.135555556,-0.382222222,1,0,0,13.6123,Peridotite_rect,14,0,14,0,1,
5f627a1e4b807f1aa7e35280,TCR,2024-06-11_12h09.40.189,LearnStrategy,2023.2.3,Win32,59.88023952,5,2,16,,,,,,,,4,13,,,,,,,,,,,3,19.929,0,,,,,,0.117777778,-0.242222222,1,0,0,19.9288,Diorite_rect,15,0,15,0,1,
5f627a1e4b807f1aa7e35280,TCR,2024-06-11_12h09.40.189,LearnStrategy,2023.2.3,Win32,59.88023952,6,1,1,0.034444444,-0.01,1,0,0,1.6826,rock_grid_rect_2,7,12,-1,-1,1.683,0.131111111,-0.413333333,1,0,0,16.9957,Peridotite_rect,7,16.996,1,0,0,0,0,1,,,,,,,,,,,,,
5f627a1e4b807f1aa7e35280,TCR,2024-06-11_12h09.40.189,LearnStrategy,2023.2.3,Win32,59.88023952,6,1,2,0.11,-0.001111111,1,0,0,1.1486,rock_grid_rect_2,4,10,-1,-1,1.149,0.46,-0.265555556,1,0,0,10.8291,Gabbro_rect,4,10.829,1,1,0,1,0,1,,,,,,,,,,,,,
5f627a1e4b807f1aa7e35280,TCR,2024-06-11_12h09.40.189,LearnStrategy,2023.2.3,Win32,59.88023952,6,1,3,0.086666667,-0.023333333,1,0,0,1.1156,rock_grid_rect_2,1,03,-1,-1,1.116,0.118888889,-0.234444444,1,0,0,8.8632,Diorite_rect,3,8.863,0,2,0,2,0,1,,,,,,,,,,,,,
5f627a1e4b807f1aa7e35280,TCR,2024-06-11_12h09.40.189,LearnStrategy,2023.2.3,Win32,59.88023952,6,1,4,0.006666667,-0.016666667,1,0,0,1.8593,rock_grid_rect_2,3,08,-1,-1,1.859,0.223333333,-0.23,1,0,0,5.6793,Diorite_rect,3,5.679,1,3,0,3,0,1,,,,,,,,,,,,,
5f627a1e4b807f1aa7e35280,TCR,2024-06-11_12h09.40.189,LearnStrategy,2023.2.3,Win32,59.88023952,6,1,5,0.045555556,0.005555556,1,0,0,0.6979,rock_grid_rect_2,8,05,-1,-1,0.698,0.328888889,-0.402222222,1,0,0,1.7788,Pumice_rect,8,1.779,1,4,0,4,0,1,,,,,,,,,,,,,
5f627a1e4b807f1aa7e35280,TCR,2024-06-11_12h09.40.189,LearnStrategy,2023.2.3,Win32,59.88023952,6,1,6,0.026666667,0.005555556,1,0,0,0.6822,rock_grid_rect_2,1,14,-1,-1,0.682,-0.344444444,-0.266666667,1,0,0,8.7295,Andesite_rect,1,8.729,1,5,0,5,0,1,,,,,,,,,,,,,
5f627a1e4b807f1aa7e35280,TCR,2024-06-11_12h09.40.189,LearnStrategy,2023.2.3,Win32,59.88023952,6,1,7,0.031111111,-0.024444444,1,0,0,0.9157,rock_grid_rect_2,6,12,-1,-1,0.916,-0.178888889,-0.408888889,1,0,0,21.2123,Pegmatite_rect,6,21.212,1,6,0,6,0,1,,,,,,,,,,,,,
5f627a1e4b807f1aa7e35280,TCR,2024-06-11_12h09.40.189,LearnStrategy,2023.2.3,Win32,59.88023952,6,1,8,0.148888889,-0.005555556,1,0,0,0.9822,rock_grid_rect_2,4,01,-1,-1,0.982,0.456666667,-0.247777778,1,0,0,5.3872,Gabbro_rect,4,5.387,1,7,0,7,0,1,,,,,,,,,,,,,
5f627a1e4b807f1aa7e35280,TCR,2024-06-11_12h09.40.189,LearnStrategy,2023.2.3,Win32,59.88023952,6,1,9,0.077777778,0.018888889,1,0,0,0.7313,rock_grid_rect_2,2,11,-1,-1,0.731,0.404444444,-0.253333333,1,0,0,9.8536,Gabbro_rect,4,9.854,0,8,0,8,0,1,,,,,,,,,,,,,
5f627a1e4b807f1aa7e35280,TCR,2024-06-11_12h09.40.189,LearnStrategy,2023.2.3,Win32,59.88023952,6,1,10,0.098888889,-0.01,1,0,0,0.9519,rock_grid_rect_2,4,10,-1,-1,0.952,0.438888889,-0.247777778,1,0,0,6.9271,Gabbro_rect,4,6.927,1,9,0,9,0,1,,,,,,,,,,,,,
5f627a1e4b807f1aa7e35280,TCR,2024-06-11_12h09.40.189,LearnStrategy,2023.2.3,Win32,59.88023952,6,1,11,0.042222222,0,1,0,0,0.6396,rock_grid_rect_2,7,16,-1,-1,0.64,0.138888889,-0.406666667,1,0,0,5.3291,Peridotite_rect,7,5.329,1,10,0,10,0,1,,,,,,,,,,,,,
5f627a1e4b807f1aa7e35280,TCR,2024-06-11_12h09.40.189,LearnStrategy,2023.2.3,Win32,59.88023952,6,1,12,0.073333333,0.003333333,1,0,0,1.0064,rock_grid_rect_2,5,09,-1,-1,1.006,-0.362222222,-0.387777778,1,0,0,1.0956,Obsidian_rect,5,1.096,1,11,0,11,0,1,,,,,,,,,,,,,
5f627a1e4b807f1aa7e35280,TCR,2024-06-11_12h09.40.189,LearnStrategy,2023.2.3,Win32,59.88023952,6,1,13,0.025555556,0.004444444,1,0,0,1.1566,rock_grid_rect_2,4,11,-1,-1,1.157,0.423333333,-0.264444444,1,0,0,6.58,Gabbro_rect,4,6.58,1,12,0,12,0,1,,,,,,,,,,,,,
5f627a1e4b807f1aa7e35280,TCR,2024-06-11_12h09.40.189,LearnStrategy,2023.2.3,Win32,59.88023952,6,1,14,0.11,-0.021111111,1,0,0,0.9197,rock_grid_rect_2,6,05,-1,-1,0.92,-0.121111111,-0.395555556,1,0,0,10.5718,Pegmatite_rect,6,10.572,1,13,0,13,0,1,,,,,,,,,,,,,
5f627a1e4b807f1aa7e35280,TCR,2024-06-11_12h09.40.189,LearnStrategy,2023.2.3,Win32,59.88023952,6,1,15,0.047777778,0.007777778,1,0,0,0.832,rock_grid_rect_2,1,05,-1,-1,0.832,-0.391111111,-0.246666667,1,0,0,23.3121,Andesite_rect,1,23.312,1,14,0,14,0,1,,,,,,,,,,,,,
5f627a1e4b807f1aa7e35280,TCR,2024-06-11_12h09.40.189,LearnStrategy,2023.2.3,Win32,59.88023952,6,1,16,0.07,-0.004444444,1,0,0,0.7318,rock_grid_rect_2,7,12,-1,-1,0.732,0.181111111,-0.418888889,1,0,0,7.9128,Peridotite_rect,7,7.913,1,15,0,15,0,1,,,,,,,,,,,,,
5f627a1e4b807f1aa7e35280,TCR,2024-06-11_12h09.40.189,LearnStrategy,2023.2.3,Win32,59.88023952,6,2,1,,,,,,,,6,07,,,,,,,,,,,4,26.912,0,,,,,,0.415555556,-0.25,1,0,0,26.9116,Gabbro_rect,0,0,0,0,1,
5f627a1e4b807f1aa7e35280,TCR,2024-06-11_12h09.40.189,LearnStrategy,2023.2.3,Win32,59.88023952,6,2,2,,,,,,,,8,02,,,,,,,,,,,8,1.029,1,,,,,,0.376666667,-0.408888889,1,0,0,1.0286,Pumice_rect,1,0,1,0,1,
5f627a1e4b807f1aa7e35280,TCR,2024-06-11_12h09.40.189,LearnStrategy,2023.2.3,Win32,59.88023952,6,2,3,,,,,,,,2,06,,,,,,,,,,,2,18.662,1,,,,,,-0.126666667,-0.261111111,1,0,0,18.6623,Basalt_rect,2,0,2,0,1,
5f627a1e4b807f1aa7e35280,TCR,2024-06-11_12h09.40.189,LearnStrategy,2023.2.3,Win32,59.88023952,6,2,4,,,,,,,,1,04,,,,,,,,,,,1,3.629,1,,,,,,-0.371111111,-0.254444444,1,0,0,3.6287,Andesite_rect,3,0,3,0,1,
5f627a1e4b807f1aa7e35280,TCR,2024-06-11_12h09.40.189,LearnStrategy,2023.2.3,Win32,59.88023952,6,2,5,,,,,,,,2,04,,,,,,,,,,,2,7.995,1,,,,,,-0.114444444,-0.26,1,0,0,7.9954,Basalt_rect,4,0,4,0,1,
5f627a1e4b807f1aa7e35280,TCR,2024-06-11_12h09.40.189,LearnStrategy,2023.2.3,Win32,59.88023952,6,2,6,,,,,,,,1,16,,,,,,,,,,,7,17.662,0,,,,,,0.173333333,-0.414444444,1,0,0,17.6618,Peridotite_rect,5,0,5,0,1,
5f627a1e4b807f1aa7e35280,TCR,2024-06-11_12h09.40.189,LearnStrategy,2023.2.3,Win32,59.88023952,6,2,7,,,,,,,,5,02,,,,,,,,,,,5,1.162,1,,,,,,-0.403333333,-0.4,1,0,0,1.1621,Obsidian_rect,6,0,6,0,1,
5f627a1e4b807f1aa7e35280,TCR,2024-06-11_12h09.40.189,LearnStrategy,2023.2.3,Win32,59.88023952,6,2,8,,,,,,,,7,14,,,,,,,,,,,6,12.729,0,,,,,,-0.156666667,-0.415555556,1,0,0,12.729,Pegmatite_rect,7,0,7,0,1,
5f627a1e4b807f1aa7e35280,TCR,2024-06-11_12h09.40.189,LearnStrategy,2023.2.3,Win32,59.88023952,6,2,9,,,,,,,,5,12,,,,,,,,,,,5,1.012,1,,,,,,-0.374444444,-0.401111111,1,0,0,1.0117,Obsidian_rect,8,0,8,0,1,
5f627a1e4b807f1aa7e35280,TCR,2024-06-11_12h09.40.189,LearnStrategy,2023.2.3,Win32,59.88023952,6,2,10,,,,,,,,3,07,,,,,,,,,,,3,9.329,1,,,,,,0.09,-0.263333333,1,0,0,9.3288,Diorite_rect,9,0,9,0,1,
5f627a1e4b807f1aa7e35280,TCR,2024-06-11_12h09.40.189,LearnStrategy,2023.2.3,Win32,59.88023952,6,2,11,,,,,,,,8,13,,,,,,,,,,,8,1.745,1,,,,,,0.368888889,-0.42,1,0,0,1.7449,Pumice_rect,10,0,10,0,1,
5f627a1e4b807f1aa7e35280,TCR,2024-06-11_12h09.40.189,LearnStrategy,2023.2.3,Win32,59.88023952,6,2,12,,,,,,,,4,16,,,,,,,,,,,4,6.245,1,,,,,,0.45,-0.245555556,1,0,0,6.2454,Gabbro_rect,11,0,11,0,1,
5f627a1e4b807f1aa7e35280,TCR,2024-06-11_12h09.40.189,LearnStrategy,2023.2.3,Win32,59.88023952,6,2,13,,,,,,,,3,16,,,,,,,,,,,3,4.762,1,,,,,,0.185555556,-0.23,1,0,0,4.762,Diorite_rect,12,0,12,0,1,
5f627a1e4b807f1aa7e35280,TCR,2024-06-11_12h09.40.189,LearnStrategy,2023.2.3,Win32,59.88023952,6,2,14,,,,,,,,4,03,,,,,,,,,,,6,28.586,0,,,,,,-0.094444444,-0.417777778,1,0,0,28.5865,Pegmatite_rect,13,0,13,0,1,
5f627a1e4b807f1aa7e35280,TCR,2024-06-11_12h09.40.189,LearnStrategy,2023.2.3,Win32,59.88023952,6,2,15,,,,,,,,7,02,,,,,,,,,,,7,5.77,1,,,,,,0.165555556,-0.411111111,1,0,0,5.7697,Peridotite_rect,14,0,14,0,1,
5f627a1e4b807f1aa7e35280,TCR,2024-06-11_12h09.40.189,LearnStrategy,2023.2.3,Win32,59.88023952,6,2,16,,,,,,,,6,10,,,,,,,,,,,7,5.495,0,,,,,,0.153333333,-0.421111111,1,0,0,5.4951,Peridotite_rect,15,0,15,0,1,
5f627a1e4b807f1aa7e35280,TCR,2024-06-11_12h09.40.189,LearnStrategy,2023.2.3,Win32,59.88023952,7,1,1,0.14,0.002222222,1,0,0,1.2992,rock_grid_rect_2,6,16,-1,-1,1.299,-0.11,-0.394444444,1,0,0,8.7624,Pegmatite_rect,6,8.762,1,0,0,0,0,1,,,,,,,,,,,,,
5f627a1e4b807f1aa7e35280,TCR,2024-06-11_12h09.40.189,LearnStrategy,2023.2.3,Win32,59.88023952,7,1,2,0.081111111,-0.006666667,1,0,0,0.9492,rock_grid_rect_2,1,05,-1,-1,0.949,-0.345555556,-0.237777778,1,0,0,5.5126,Andesite_rect,1,5.513,1,1,0,1,0,1,,,,,,,,,,,,,
5f627a1e4b807f1aa7e35280,TCR,2024-06-11_12h09.40.189,LearnStrategy,2023.2.3,Win32,59.88023952,7,1,3,0.083333333,-0.021111111,1,0,0,1.2984,rock_grid_rect_2,6,16,-1,-1,1.298,-0.152222222,-0.41,1,0,0,3.7291,Pegmatite_rect,6,3.729,1,2,0,2,0,1,,,,,,,,,,,,,
5f627a1e4b807f1aa7e35280,TCR,2024-06-11_12h09.40.189,LearnStrategy,2023.2.3,Win32,59.88023952,7,1,4,0.065555556,0.004444444,1,0,0,0.8326,rock_grid_rect_2,2,14,-1,-1,0.833,-0.075555556,-0.246666667,1,0,0,4.8462,Basalt_rect,2,4.846,1,3,0,3,0,1,,,,,,,,,,,,,
5f627a1e4b807f1aa7e35280,TCR,2024-06-11_12h09.40.189,LearnStrategy,2023.2.3,Win32,59.88023952,7,1,5,-0.016666667,-0.017777778,1,0,0,0.7817,rock_grid_rect_2,1,03,-1,-1,0.782,0.082222222,-0.244444444,1,0,0,13.8791,Diorite_rect,3,13.879,0,4,0,4,0,1,,,,,,,,,,,,,
5f627a1e4b807f1aa7e35280,TCR,2024-06-11_12h09.40.189,LearnStrategy,2023.2.3,Win32,59.88023952,7,1,6,0.038888889,0.006666667,1,0,0,1.0418,rock_grid_rect_2,4,10,-1,-1,1.042,0.433333333,-0.238888889,1,0,0,7.2124,Gabbro_rect,4,7.212,1,5,0,5,0,1,,,,,,,,,,,,,
5f627a1e4b807f1aa7e35280,TCR,2024-06-11_12h09.40.189,LearnStrategy,2023.2.3,Win32,59.88023952,7,1,7,0.054444444,0.008888889,1,0,0,0.8483,rock_grid_rect_2,3,11,-1,-1,0.848,0.078888889,-0.252222222,1,0,0,9.8792,Diorite_rect,3,9.879,1,6,0,6,0,1,,,,,,,,,,,,,
5f627a1e4b807f1aa7e35280,TCR,2024-06-11_12h09.40.189,LearnStrategy,2023.2.3,Win32,59.88023952,7,1,8,0.047777778,-0.01,1,0,0,1.1643,rock_grid_rect_2,7,08,-1,-1,1.164,-0.086666667,-0.415555556,1,0,0,12.563,Pegmatite_rect,6,12.563,0,7,0,7,0,1,,,,,,,,,,,,,
5f627a1e4b807f1aa7e35280,TCR,2024-06-11_12h09.40.189,LearnStrategy,2023.2.3,Win32,59.88023952,7,1,9,0.021111111,-0.002222222,1,0,0,1.0579,rock_grid_rect_2,7,16,-1,-1,1.058,0.111111111,-0.386666667,1,0,0,4.1627,Peridotite_rect,7,4.163,1,8,0,8,0,1,,,,,,,,,,,,,
5f627a1e4b807f1aa7e35280,TCR,2024-06-11_12h09.40.189,LearnStrategy,2023.2.3,Win32,59.88023952,7,1,10,0.035555556,0.002222222,1,0,0,0.7152,rock_grid_rect_2,4,08,-1,-1,0.715,0.461111111,-0.26,1,0,0,10.4629,Gabbro_rect,4,10.463,1,9,0,9,0,1,,,,,,,,,,,,,
5f627a1e4b807f1aa7e35280,TCR,2024-06-11_12h09.40.189,LearnStrategy,2023.2.3,Win32,59.88023952,7,1,11,0.041111111,-0.008888889,1,0,0,1.0755,rock_grid_rect_2,8,08,-1,-1,1.075,0.341111111,-0.401111111,1,0,0,2.2126,Pumice_rect,8,2.213,1,10,0,10,0,1,,,,,,,,,,,,,
5f627a1e4b807f1aa7e35280,TCR,2024-06-11_12h09.40.189,LearnStrategy,2023.2.3,Win32,59.88023952,7,1,12,0.026666667,-0.007777778,1,0,0,0.8657,rock_grid_rect_2,1,06,-1,-1,0.866,-0.377777778,-0.237777778,1,0,0,12.2794,Andesite_rect,1,12.279,1,11,0,11,0,1,,,,,,,,,,,,,
5f627a1e4b807f1aa7e35280,TCR,2024-06-11_12h09.40.189,LearnStrategy,2023.2.3,Win32,59.88023952,7,1,13,0.098888889,0.004444444,1,0,0,1.0419,rock_grid_rect_2,6,09,-1,-1,1.042,-0.188888889,-0.414444444,1,0,0,11.8028,Pegmatite_rect,6,11.803,1,12,0,12,0,1,,,,,,,,,,,,,
5f627a1e4b807f1aa7e35280,TCR,2024-06-11_12h09.40.189,LearnStrategy,2023.2.3,Win32,59.88023952,7,1,14,0.111111111,-0.02,1,0,0,1.1459,rock_grid_rect_2,4,12,-1,-1,1.146,0.363333333,-0.258888889,1,0,0,17.2625,Gabbro_rect,4,17.262,1,13,0,13,0,1,,,,,,,,,,,,,
5f627a1e4b807f1aa7e35280,TCR,2024-06-11_12h09.40.189,LearnStrategy,2023.2.3,Win32,59.88023952,7,1,15,0.073333333,-0.004444444,1,0,0,1.0664,rock_grid_rect_2,7,16,-1,-1,1.066,0.072222222,-0.412222222,1,0,0,3.9711,Peridotite_rect,7,3.971,1,14,0,14,0,1,,,,,,,,,,,,,
5f627a1e4b807f1aa7e35280,TCR,2024-06-11_12h09.40.189,LearnStrategy,2023.2.3,Win32,59.88023952,7,1,16,0.084444444,0.001111111,1,0,0,0.9316,rock_grid_rect_2,5,05,-1,-1,0.932,-0.401111111,-0.414444444,1,0,0,15.5284,Obsidian_rect,5,15.528,1,15,0,15,0,1,,,,,,,,,,,,,
5f627a1e4b807f1aa7e35280,TCR,2024-06-11_12h09.40.189,LearnStrategy,2023.2.3,Win32,59.88023952,7,2,1,,,,,,,,2,09,,,,,,,,,,,4,14.095,0,,,,,,0.383333333,-0.254444444,1,0,0,14.0949,Gabbro_rect,0,0,0,0,1,
5f627a1e4b807f1aa7e35280,TCR,2024-06-11_12h09.40.189,LearnStrategy,2023.2.3,Win32,59.88023952,7,2,2,,,,,,,,5,10,,,,,,,,,,,5,1.212,1,,,,,,-0.352222222,-0.405555556,1,0,0,1.2117,Obsidian_rect,1,0,1,0,1,
5f627a1e4b807f1aa7e35280,TCR,2024-06-11_12h09.40.189,LearnStrategy,2023.2.3,Win32,59.88023952,7,2,3,,,,,,,,2,05,,,,,,,,,,,4,12.245,0,,,,,,0.417777778,-0.247777778,1,0,0,12.2454,Gabbro_rect,2,0,2,0,1,
5f627a1e4b807f1aa7e35280,TCR,2024-06-11_12h09.40.189,LearnStrategy,2023.2.3,Win32,59.88023952,7,2,4,,,,,,,,1,04,,,,,,,,,,,7,20.862,0,,,,,,0.107777778,-0.41,1,0,0,20.862,Peridotite_rect,3,0,3,0,1,
5f627a1e4b807f1aa7e35280,TCR,2024-06-11_12h09.40.189,LearnStrategy,2023.2.3,Win32,59.88023952,7,2,5,,,,,,,,8,10,,,,,,,,,,,8,1.712,1,,,,,,0.357777778,-0.404444444,1,0,0,1.7121,Pumice_rect,4,0,4,0,1,
5f627a1e4b807f1aa7e35280,TCR,2024-06-11_12h09.40.189,LearnStrategy,2023.2.3,Win32,59.88023952,7,2,6,,,,,,,,3,16,,,,,,,,,,,1,21.465,0,,,,,,-0.387777778,-0.247777778,1,0,0,21.4647,Andesite_rect,5,0,5,0,1,
5f627a1e4b807f1aa7e35280,TCR,2024-06-11_12h09.40.189,LearnStrategy,2023.2.3,Win32,59.88023952,7,2,7,,,,,,,,5,12,,,,,,,,,,,5,1.486,1,,,,,,-0.375555556,-0.42,1,0,0,1.4858,Obsidian_rect,6,0,6,0,1,
5f627a1e4b807f1aa7e35280,TCR,2024-06-11_12h09.40.189,LearnStrategy,2023.2.3,Win32,59.88023952,7,2,8,,,,,,,,1,07,,,,,,,,,,,1,4.586,1,,,,,,-0.415555556,-0.261111111,1,0,0,4.5861,Andesite_rect,7,0,7,0,1,
5f627a1e4b807f1aa7e35280,TCR,2024-06-11_12h09.40.189,LearnStrategy,2023.2.3,Win32,59.88023952,7,2,9,,,,,,,,7,04,,,,,,,,,,,7,28.595,1,,,,,,0.127777778,-0.407777778,1,0,0,28.5949,Peridotite_rect,8,0,8,0,1,
5f627a1e4b807f1aa7e35280,TCR,2024-06-11_12h09.40.189,LearnStrategy,2023.2.3,Win32,59.88023952,7,2,10,,,,,,,,7,13,,,,,,,,,,,7,3.062,1,,,,,,0.127777778,-0.407777778,1,0,0,3.0618,Peridotite_rect,9,0,9,0,1,
5f627a1e4b807f1aa7e35280,TCR,2024-06-11_12h09.40.189,LearnStrategy,2023.2.3,Win32,59.88023952,7,2,11,,,,,,,,8,13,,,,,,,,,,,2,15.979,0,,,,,,-0.078888889,-0.255555556,1,0,0,15.9787,Basalt_rect,10,0,10,0,1,
5f627a1e4b807f1aa7e35280,TCR,2024-06-11_12h09.40.189,LearnStrategy,2023.2.3,Win32,59.88023952,7,2,12,,,,,,,,4,16,,,,,,,,,,,4,3.829,1,,,,,,0.371111111,-0.238888889,1,0,0,3.8291,Gabbro_rect,11,0,11,0,1,
5f627a1e4b807f1aa7e35280,TCR,2024-06-11_12h09.40.189,LearnStrategy,2023.2.3,Win32,59.88023952,7,2,13,,,,,,,,6,11,,,,,,,,,,,6,22.779,1,,,,,,-0.107777778,-0.407777778,1,0,0,22.7788,Pegmatite_rect,12,0,12,0,1,
5f627a1e4b807f1aa7e35280,TCR,2024-06-11_12h09.40.189,LearnStrategy,2023.2.3,Win32,59.88023952,7,2,14,,,,,,,,3,02,,,,,,,,,,,3,11.962,1,,,,,,0.09,-0.253333333,1,0,0,11.9618,Diorite_rect,13,0,13,0,1,
5f627a1e4b807f1aa7e35280,TCR,2024-06-11_12h09.40.189,LearnStrategy,2023.2.3,Win32,59.88023952,7,2,15,,,,,,,,6,07,,,,,,,,,,,6,14.628,1,,,,,,-0.143333333,-0.398888889,1,0,0,14.6282,Pegmatite_rect,14,0,14,0,1,
5f627a1e4b807f1aa7e35280,TCR,2024-06-11_12h09.40.189,LearnStrategy,2023.2.3,Win32,59.88023952,7,2,16,,,,,,,,4,03,,,,,,,,,,,4,10.395,1,,,,,,0.385555556,-0.251111111,1,0,0,10.3952,Gabbro_rect,15,0,15,0,1,
5f627a1e4b807f1aa7e35280,TCR,2024-06-11_12h09.40.189,LearnStrategy,2023.2.3,Win32,59.88023952,8,1,1,0.101111111,-0.007777778,1,0,0,1.6324,rock_grid_rect_2,1,06,-1,-1,1.632,-0.403333333,-0.23,1,0,0,5.7624,Andesite_rect,1,5.762,1,0,0,0,0,1,,,,,,,,,,,,,
5f627a1e4b807f1aa7e35280,TCR,2024-06-11_12h09.40.189,LearnStrategy,2023.2.3,Win32,59.88023952,8,1,2,-0.02,0.008888889,1,0,0,0.7991,rock_grid_rect_2,3,08,-1,-1,0.799,-0.167777778,-0.26,1,0,0,14.8959,Basalt_rect,2,14.896,0,1,0,1,0,1,,,,,,,,,,,,,
5f627a1e4b807f1aa7e35280,TCR,2024-06-11_12h09.40.189,LearnStrategy,2023.2.3,Win32,59.88023952,8,1,3,0.041111111,-0.002222222,1,0,0,0.8409,rock_grid_rect_2,2,14,-1,-1,0.841,-0.11,-0.244444444,1,0,0,6.2793,Basalt_rect,2,6.279,1,2,0,2,0,1,,,,,,,,,,,,,
5f627a1e4b807f1aa7e35280,TCR,2024-06-11_12h09.40.189,LearnStrategy,2023.2.3,Win32,59.88023952,8,1,4,0.044444444,0.01,1,0,0,0.865,rock_grid_rect_2,1,06,-1,-1,0.865,-0.34,-0.238888889,1,0,0,5.4037,Andesite_rect,1,5.404,1,3,0,3,0,1,,,,,,,,,,,,,
5f627a1e4b807f1aa7e35280,TCR,2024-06-11_12h09.40.189,LearnStrategy,2023.2.3,Win32,59.88023952,8,1,5,0.036666667,-0.018888889,1,0,0,0.9482,rock_grid_rect_2,7,08,-1,-1,0.948,0.157777778,-0.407777778,1,0,0,7.4034,Peridotite_rect,7,7.403,1,4,0,4,0,1,,,,,,,,,,,,,
5f627a1e4b807f1aa7e35280,TCR,2024-06-11_12h09.40.189,LearnStrategy,2023.2.3,Win32,59.88023952,8,1,6,0.075555556,-0.014444444,1,0,0,1.0071,rock_grid_rect_2,6,05,-1,-1,1.007,-0.114444444,-0.4,1,0,0,5.9287,Pegmatite_rect,6,5.929,1,5,0,5,0,1,,,,,,,,,,,,,
5f627a1e4b807f1aa7e35280,TCR,2024-06-11_12h09.40.189,LearnStrategy,2023.2.3,Win32,59.88023952,8,1,7,0.008888889,0.015555556,1,0,0,1.1401,rock_grid_rect_2,6,12,-1,-1,1.14,-0.132222222,-0.41,1,0,0,12.6707,Pegmatite_rect,6,12.671,1,6,0,6,0,1,,,,,,,,,,,,,
5f627a1e4b807f1aa7e35280,TCR,2024-06-11_12h09.40.189,LearnStrategy,2023.2.3,Win32,59.88023952,8,1,8,0.006666667,-0.001111111,1,0,0,0.7818,rock_grid_rect_2,4,11,-1,-1,0.782,0.4,-0.268888889,1,0,0,3.0295,Gabbro_rect,4,3.03,1,7,0,7,0,1,,,,,,,,,,,,,
5f627a1e4b807f1aa7e35280,TCR,2024-06-11_12h09.40.189,LearnStrategy,2023.2.3,Win32,59.88023952,8,1,9,0.011111111,-0.015555556,1,0,0,1.0152,rock_grid_rect_2,2,08,-1,-1,1.015,-0.104444444,-0.255555556,1,0,0,3.9793,Basalt_rect,2,3.979,1,8,0,8,0,1,,,,,,,,,,,,,
5f627a1e4b807f1aa7e35280,TCR,2024-06-11_12h09.40.189,LearnStrategy,2023.2.3,Win32,59.88023952,8,1,10,0.044444444,-0.006666667,1,0,0,0.9647,rock_grid_rect_2,4,10,-1,-1,0.965,0.458888889,-0.245555556,1,0,0,6.912,Gabbro_rect,4,6.912,1,9,0,9,0,1,,,,,,,,,,,,,
5f627a1e4b807f1aa7e35280,TCR,2024-06-11_12h09.40.189,LearnStrategy,2023.2.3,Win32,59.88023952,8,1,11,0.035555556,-0.007777778,1,0,0,0.765,rock_grid_rect_2,7,06,-1,-1,0.765,0.15,-0.418888889,1,0,0,4.3958,Peridotite_rect,7,4.396,1,10,0,10,0,1,,,,,,,,,,,,,
5f627a1e4b807f1aa7e35280,TCR,2024-06-11_12h09.40.189,LearnStrategy,2023.2.3,Win32,59.88023952,8,1,12,0.062222222,-0.015555556,1,0,0,1.2325,rock_grid_rect_2,2,10,-1,-1,1.233,-0.113333333,-0.244444444,1,0,0,6.0582,Basalt_rect,2,6.058,1,11,0,11,0,1,,,,,,,,,,,,,
5f627a1e4b807f1aa7e35280,TCR,2024-06-11_12h09.40.189,LearnStrategy,2023.2.3,Win32,59.88023952,8,1,13,-0.006666667,-0.017777778,1,0,0,1.3486,rock_grid_rect_2,8,08,-1,-1,1.349,0.403333333,-0.412222222,1,0,0,2.9956,Pumice_rect,8,2.996,1,12,0,12,0,1,,,,,,,,,,,,,
5f627a1e4b807f1aa7e35280,TCR,2024-06-11_12h09.40.189,LearnStrategy,2023.2.3,Win32,59.88023952,8,1,14,0.032222222,0.002222222,1,0,0,0.8152,rock_grid_rect_2,1,03,-1,-1,0.815,-0.415555556,-0.243333333,1,0,0,3.0624,Andesite_rect,1,3.062,1,13,0,13,0,1,,,,,,,,,,,,,
5f627a1e4b807f1aa7e35280,TCR,2024-06-11_12h09.40.189,LearnStrategy,2023.2.3,Win32,59.88023952,8,1,15,-0.061111111,0.003333333,1,0,0,0.7486,rock_grid_rect_2,3,09,-1,-1,0.749,-0.408888889,-0.257777778,1,0,0,16.1793,Andesite_rect,1,16.179,0,14,0,14,0,1,,,,,,,,,,,,,
5f627a1e4b807f1aa7e35280,TCR,2024-06-11_12h09.40.189,LearnStrategy,2023.2.3,Win32,59.88023952,8,1,16,0.01,-0.023333333,1,0,0,0.6751,rock_grid_rect_2,5,07,-1,-1,0.675,-0.408888889,-0.412222222,1,0,0,2.5459,Obsidian_rect,5,2.546,1,15,0,15,0,1,,,,,,,,,,,,,
5f627a1e4b807f1aa7e35280,TCR,2024-06-11_12h09.40.189,LearnStrategy,2023.2.3,Win32,59.88023952,8,2,1,,,,,,,,6,10,,,,,,,,,,,7,4.311,0,,,,,,0.113333333,-0.41,1,0,0,4.3113,Peridotite_rect,0,0,0,0,1,
5f627a1e4b807f1aa7e35280,TCR,2024-06-11_12h09.40.189,LearnStrategy,2023.2.3,Win32,59.88023952,8,2,2,,,,,,,,4,09,,,,,,,,,,,4,4.562,1,,,,,,0.413333333,-0.243333333,1,0,0,4.5618,Gabbro_rect,1,0,1,0,1,
5f627a1e4b807f1aa7e35280,TCR,2024-06-11_12h09.40.189,LearnStrategy,2023.2.3,Win32,59.88023952,8,2,3,,,,,,,,1,11,,,,,,,,,,,1,22.495,1,,,,,,-0.39,-0.261111111,1,0,0,22.4951,Andesite_rect,2,0,2,0,1,
5f627a1e4b807f1aa7e35280,TCR,2024-06-11_12h09.40.189,LearnStrategy,2023.2.3,Win32,59.88023952,8,2,4,,,,,,,,7,14,,,,,,,,,,,6,6.379,0,,,,,,-0.14,-0.411111111,1,0,0,6.3785,Pegmatite_rect,3,0,3,0,1,
5f627a1e4b807f1aa7e35280,TCR,2024-06-11_12h09.40.189,LearnStrategy,2023.2.3,Win32,59.88023952,8,2,5,,,,,,,,8,15,,,,,,,,,,,8,1.678,1,,,,,,0.398888889,-0.404444444,1,0,0,1.6785,Pumice_rect,4,0,4,0,1,
5f627a1e4b807f1aa7e35280,TCR,2024-06-11_12h09.40.189,LearnStrategy,2023.2.3,Win32,59.88023952,8,2,6,,,,,,,,6,13,,,,,,,,,,,6,9.529,1,,,,,,-0.21,-0.418888889,1,0,0,9.5289,Pegmatite_rect,5,0,5,0,1,
5f627a1e4b807f1aa7e35280,TCR,2024-06-11_12h09.40.189,LearnStrategy,2023.2.3,Win32,59.88023952,8,2,7,,,,,,,,2,06,,,,,,,,,,,2,3.978,1,,,,,,-0.115555556,-0.248888889,1,0,0,3.9782,Basalt_rect,6,0,6,0,1,
5f627a1e4b807f1aa7e35280,TCR,2024-06-11_12h09.40.189,LearnStrategy,2023.2.3,Win32,59.88023952,8,2,8,,,,,,,,3,07,,,,,,,,,,,3,6.962,1,,,,,,0.118888889,-0.264444444,1,0,0,6.9617,Diorite_rect,7,0,7,0,1,
5f627a1e4b807f1aa7e35280,TCR,2024-06-11_12h09.40.189,LearnStrategy,2023.2.3,Win32,59.88023952,8,2,9,,,,,,,,5,02,,,,,,,,,,,5,1.095,1,,,,,,-0.396666667,-0.411111111,1,0,0,1.0951,Obsidian_rect,8,0,8,0,1,
5f627a1e4b807f1aa7e35280,TCR,2024-06-11_12h09.40.189,LearnStrategy,2023.2.3,Win32,59.88023952,8,2,10,,,,,,,,5,11,,,,,,,,,,,5,0.812,1,,,,,,-0.392222222,-0.414444444,1,0,0,0.8121,Obsidian_rect,9,0,9,0,1,
5f627a1e4b807f1aa7e35280,TCR,2024-06-11_12h09.40.189,LearnStrategy,2023.2.3,Win32,59.88023952,8,2,11,,,,,,,,3,12,,,,,,,,,,,3,5.562,1,,,,,,0.141111111,-0.266666667,1,0,0,5.5619,Diorite_rect,10,0,10,0,1,
5f627a1e4b807f1aa7e35280,TCR,2024-06-11_12h09.40.189,LearnStrategy,2023.2.3,Win32,59.88023952,8,2,12,,,,,,,,7,15,,,,,,,,,,,7,5.546,1,,,,,,0.157777778,-0.407777778,1,0,0,5.5455,Peridotite_rect,11,0,11,0,1,
5f627a1e4b807f1aa7e35280,TCR,2024-06-11_12h09.40.189,LearnStrategy,2023.2.3,Win32,59.88023952,8,2,13,,,,,,,,4,05,,,,,,,,,,,7,6.879,0,,,,,,0.162222222,-0.403333333,1,0,0,6.8787,Peridotite_rect,12,0,12,0,1,
5f627a1e4b807f1aa7e35280,TCR,2024-06-11_12h09.40.189,LearnStrategy,2023.2.3,Win32,59.88023952,8,2,14,,,,,,,,2,16,,,,,,,,,,,2,3.895,1,,,,,,-0.096666667,-0.255555556,1,0,0,3.8951,Basalt_rect,13,0,13,0,1,
5f627a1e4b807f1aa7e35280,TCR,2024-06-11_12h09.40.189,LearnStrategy,2023.2.3,Win32,59.88023952,8,2,15,,,,,,,,8,03,,,,,,,,,,,8,1.945,1,,,,,,0.4,-0.417777778,1,0,0,1.9453,Pumice_rect,14,0,14,0,1,
5f627a1e4b807f1aa7e35280,TCR,2024-06-11_12h09.40.189,LearnStrategy,2023.2.3,Win32,59.88023952,8,2,16,,,,,,,,1,16,,,,,,,,,,,1,5.295,1,,,,,,-0.36,-0.232222222,1,0,0,5.2953,Andesite_rect,15,0,15,0,1,
5f627a1e4b807f1aa7e35280,TCR,2024-06-11_12h09.40.189,LearnStrategy,2023.2.3,Win32,59.88023952,9,1,1,0.026666667,-0.017777778,1,0,0,1.4823,rock_grid_rect_2,4,10,-1,-1,1.482,0.465555556,-0.251111111,1,0,0,5.6955,Gabbro_rect,4,5.696,1,0,0,0,0,1,,,,,,,,,,,,,
5f627a1e4b807f1aa7e35280,TCR,2024-06-11_12h09.40.189,LearnStrategy,2023.2.3,Win32,59.88023952,9,1,2,0.03,0.013333333,1,0,0,0.7655,rock_grid_rect_2,2,11,-1,-1,0.765,0.394444444,-0.236666667,1,0,0,6.412,Gabbro_rect,4,6.412,0,1,0,1,0,1,,,,,,,,,,,,,
5f627a1e4b807f1aa7e35280,TCR,2024-06-11_12h09.40.189,LearnStrategy,2023.2.3,Win32,59.88023952,9,1,3,0.005555556,-0.012222222,1,0,0,1.4254,rock_grid_rect_2,5,09,-1,-1,1.425,-0.4,-0.393333333,1,0,0,1.1615,Obsidian_rect,5,1.161,1,2,0,2,0,1,,,,,,,,,,,,,
5f627a1e4b807f1aa7e35280,TCR,2024-06-11_12h09.40.189,LearnStrategy,2023.2.3,Win32,59.88023952,9,1,4,-0.017777778,-0.014444444,1,0,0,0.8322,rock_grid_rect_2,2,02,-1,-1,0.832,-0.108888889,-0.248888889,1,0,0,4.6126,Basalt_rect,2,4.613,1,3,0,3,0,1,,,,,,,,,,,,,
5f627a1e4b807f1aa7e35280,TCR,2024-06-11_12h09.40.189,LearnStrategy,2023.2.3,Win32,59.88023952,9,1,5,-0.005555556,-0.001111111,1,0,0,0.6652,rock_grid_rect_2,6,09,-1,-1,0.665,0.122222222,-0.403333333,1,0,0,3.4957,Peridotite_rect,7,3.496,0,4,0,4,0,1,,,,,,,,,,,,,
5f627a1e4b807f1aa7e35280,TCR,2024-06-11_12h09.40.189,LearnStrategy,2023.2.3,Win32,59.88023952,9,1,6,0.054444444,-0.012222222,1,0,0,0.8921,rock_grid_rect_2,4,01,-1,-1,0.892,0.432222222,-0.252222222,1,0,0,9.6128,Gabbro_rect,4,9.613,1,5,0,5,0,1,,,,,,,,,,,,,
5f627a1e4b807f1aa7e35280,TCR,2024-06-11_12h09.40.189,LearnStrategy,2023.2.3,Win32,59.88023952,9,1,7,0.007777778,-0.015555556,1,0,0,2.2485,rock_grid_rect_2,7,08,-1,-1,2.249,-0.35,-0.255555556,1,0,0,11.4958,Andesite_rect,1,11.496,0,6,0,6,0,1,,,,,,,,,,,,,
5f627a1e4b807f1aa7e35280,TCR,2024-06-11_12h09.40.189,LearnStrategy,2023.2.3,Win32,59.88023952,9,1,8,-0.047777778,-0.012222222,1,0,0,0.9169,rock_grid_rect_2,6,16,-1,-1,0.917,-0.075555556,-0.414444444,1,0,0,3.9955,Pegmatite_rect,6,3.995,1,7,0,7,0,1,,,,,,,,,,,,,
5f627a1e4b807f1aa7e35280,TCR,2024-06-11_12h09.40.189,LearnStrategy,2023.2.3,Win32,59.88023952,9,1,9,0.043333333,-0.001111111,1,0,0,0.8566,rock_grid_rect_2,8,06,-1,-1,0.857,0.385555556,-0.403333333,1,0,0,1.3121,Pumice_rect,8,1.312,1,8,0,8,0,1,,,,,,,,,,,,,
5f627a1e4b807f1aa7e35280,TCR,2024-06-11_12h09.40.189,LearnStrategy,2023.2.3,Win32,59.88023952,9,1,10,0.074444444,-0.011111111,1,0,0,0.7565,rock_grid_rect_2,3,09,-1,-1,0.756,0.101111111,-0.243333333,1,0,0,5.8123,Diorite_rect,3,5.812,1,9,0,9,0,1,,,,,,,,,,,,,
5f627a1e4b807f1aa7e35280,TCR,2024-06-11_12h09.40.189,LearnStrategy,2023.2.3,Win32,59.88023952,9,1,11,0.068888889,0.016666667,1,0,0,0.8068,rock_grid_rect_2,4,11,-1,-1,0.807,0.414444444,-0.241111111,1,0,0,3.1779,Gabbro_rect,4,3.178,1,10,0,10,0,1,,,,,,,,,,,,,
5f627a1e4b807f1aa7e35280,TCR,2024-06-11_12h09.40.189,LearnStrategy,2023.2.3,Win32,59.88023952,9,1,12,0.091111111,-0.015555556,1,0,0,0.8401,rock_grid_rect_2,7,12,-1,-1,0.84,0.111111111,-0.403333333,1,0,0,5.1614,Peridotite_rect,7,5.161,1,11,0,11,0,1,,,,,,,,,,,,,
5f627a1e4b807f1aa7e35280,TCR,2024-06-11_12h09.40.189,LearnStrategy,2023.2.3,Win32,59.88023952,9,1,13,0.101111111,-0.014444444,1,0,0,1.248,rock_grid_rect_2,6,09,-1,-1,1.248,-0.186666667,-0.404444444,1,0,0,1.7022,Pegmatite_rect,6,1.702,1,12,0,12,0,1,,,,,,,,,,,,,
5f627a1e4b807f1aa7e35280,TCR,2024-06-11_12h09.40.189,LearnStrategy,2023.2.3,Win32,59.88023952,9,1,14,0.03,-0.021111111,1,0,0,0.8147,rock_grid_rect_2,7,05,-1,-1,0.815,0.143333333,-0.4,1,0,0,2.1699,Peridotite_rect,7,2.17,1,13,0,13,0,1,,,,,,,,,,,,,
5f627a1e4b807f1aa7e35280,TCR,2024-06-11_12h09.40.189,LearnStrategy,2023.2.3,Win32,59.88023952,9,1,15,0.063333333,-0.023333333,1,0,0,0.8322,rock_grid_rect_2,1,14,-1,-1,0.832,-0.33,-0.255555556,1,0,0,35.0203,Andesite_rect,1,35.02,1,14,0,14,0,1,,,,,,,,,,,,,
5f627a1e4b807f1aa7e35280,TCR,2024-06-11_12h09.40.189,LearnStrategy,2023.2.3,Win32,59.88023952,9,1,16,0.011111111,-0.007777778,1,0,0,1.124,rock_grid_rect_2,1,10,-1,-1,1.124,-0.076666667,-0.253333333,1,0,0,14.3616,Basalt_rect,2,14.362,0,15,0,15,0,1,,,,,,,,,,,,,
5f627a1e4b807f1aa7e35280,TCR,2024-06-11_12h09.40.189,LearnStrategy,2023.2.3,Win32,59.88023952,9,2,1,,,,,,,,2,04,,,,,,,,,,,2,5.129,1,,,,,,-0.096666667,-0.242222222,1,0,0,5.1289,Basalt_rect,0,0,0,0,1,
5f627a1e4b807f1aa7e35280,TCR,2024-06-11_12h09.40.189,LearnStrategy,2023.2.3,Win32,59.88023952,9,2,2,,,,,,,,7,07,,,,,,,,,,,7,5.944,1,,,,,,0.133333333,-0.417777778,1,0,0,5.9436,Peridotite_rect,1,0,1,0,1,
5f627a1e4b807f1aa7e35280,TCR,2024-06-11_12h09.40.189,LearnStrategy,2023.2.3,Win32,59.88023952,9,2,3,,,,,,,,1,09,,,,,,,,,,,4,20.045,0,,,,,,0.422222222,-0.253333333,1,0,0,20.0453,Gabbro_rect,2,0,2,0,1,
5f627a1e4b807f1aa7e35280,TCR,2024-06-11_12h09.40.189,LearnStrategy,2023.2.3,Win32,59.88023952,9,2,4,,,,,,,,6,08,,,,,,,,,,,6,1.962,1,,,,,,-0.111111111,-0.418888889,1,0,0,1.9621,Pegmatite_rect,3,0,3,0,1,
5f627a1e4b807f1aa7e35280,TCR,2024-06-11_12h09.40.189,LearnStrategy,2023.2.3,Win32,59.88023952,9,2,5,,,,,,,,3,13,,,,,,,,,,,3,26.979,1,,,,,,0.132222222,-0.246666667,1,0,0,26.9788,Diorite_rect,4,0,4,0,1,
5f627a1e4b807f1aa7e35280,TCR,2024-06-11_12h09.40.189,LearnStrategy,2023.2.3,Win32,59.88023952,9,2,6,,,,,,,,4,15,,,,,,,,,,,3,6.595,0,,,,,,0.15,-0.264444444,1,0,0,6.5951,Diorite_rect,5,0,5,0,1,
5f627a1e4b807f1aa7e35280,TCR,2024-06-11_12h09.40.189,LearnStrategy,2023.2.3,Win32,59.88023952,9,2,7,,,,,,,,8,09,,,,,,,,,,,8,1.062,1,,,,,,0.388888889,-0.402222222,1,0,0,1.062,Pumice_rect,6,0,6,0,1,
5f627a1e4b807f1aa7e35280,TCR,2024-06-11_12h09.40.189,LearnStrategy,2023.2.3,Win32,59.88023952,9,2,8,,,,,,,,2,01,,,,,,,,,,,2,4.279,1,,,,,,-0.104444444,-0.256666667,1,0,0,4.2789,Basalt_rect,7,0,7,0,1,
5f627a1e4b807f1aa7e35280,TCR,2024-06-11_12h09.40.189,LearnStrategy,2023.2.3,Win32,59.88023952,9,2,9,,,,,,,,3,06,,,,,,,,,,,3,6.695,1,,,,,,0.133333333,-0.262222222,1,0,0,6.6955,Diorite_rect,8,0,8,0,1,
5f627a1e4b807f1aa7e35280,TCR,2024-06-11_12h09.40.189,LearnStrategy,2023.2.3,Win32,59.88023952,9,2,10,,,,,,,,8,02,,,,,,,,,,,8,1.063,1,,,,,,0.356666667,-0.405555556,1,0,0,1.0625,Pumice_rect,9,0,9,0,1,
5f627a1e4b807f1aa7e35280,TCR,2024-06-11_12h09.40.189,LearnStrategy,2023.2.3,Win32,59.88023952,9,2,11,,,,,,,,4,13,,,,,,,,,,,3,35.879,0,,,,,,0.108888889,-0.24,1,0,0,35.8787,Diorite_rect,10,0,10,0,1,
5f627a1e4b807f1aa7e35280,TCR,2024-06-11_12h09.40.189,LearnStrategy,2023.2.3,Win32,59.88023952,9,2,12,,,,,,,,1,02,,,,,,,,,,,3,40.095,0,,,,,,0.175555556,-0.24,1,0,0,40.0949,Diorite_rect,11,0,11,0,1,
5f627a1e4b807f1aa7e35280,TCR,2024-06-11_12h09.40.189,LearnStrategy,2023.2.3,Win32,59.88023952,9,2,13,,,,,,,,7,02,,,,,,,,,,,7,3.896,1,,,,,,0.132222222,-0.42,1,0,0,3.8956,Peridotite_rect,12,0,12,0,1,
5f627a1e4b807f1aa7e35280,TCR,2024-06-11_12h09.40.189,LearnStrategy,2023.2.3,Win32,59.88023952,9,2,14,,,,,,,,5,06,,,,,,,,,,,5,2.745,1,,,,,,-0.361111111,-0.406666667,1,0,0,2.7453,Obsidian_rect,13,0,13,0,1,
5f627a1e4b807f1aa7e35280,TCR,2024-06-11_12h09.40.189,LearnStrategy,2023.2.3,Win32,59.88023952,9,2,15,,,,,,,,6,15,,,,,,,,,,,6,1.279,1,,,,,,-0.137777778,-0.407777778,1,0,0,1.2788,Pegmatite_rect,14,0,14,0,1,
5f627a1e4b807f1aa7e35280,TCR,2024-06-11_12h09.40.189,LearnStrategy,2023.2.3,Win32,59.88023952,9,2,16,,,,,,,,5,08,,,,,,,,,,,5,0.996,1,,,,,,-0.397777778,-0.403333333,1,0,0,0.9961,Obsidian_rect,15,0,15,0,1,
5f627a1e4b807f1aa7e35280,TCR,2024-06-11_12h09.40.189,LearnStrategy,2023.2.3,Win32,59.88023952,,,,,,,,,,,,,,,,,,,,,,,,,,,,,,,,,,,,,,,,,,,1
5f627a1e4b807f1aa7e35280,TCR,2024-06-11_12h09.40.189,LearnStrategy,2023.2.3,Win32,59.88023952,,,,,,,,,,,,,,,,,,,,,,,,,,,,,,,,,,,,,,,,,,,
5f627a1e4b807f1aa7e35280,TCR,2024-06-11_12h09.40.189,LearnStrategy,2023.2.3,Win32,59.88023952,,,,,,,,,,,3,14,1,1,,,,,,,,,,,,,,,,,,,,,,,,,,,,,
5f627a1e4b807f1aa7e35280,TCR,2024-06-11_12h09.40.189,LearnStrategy,2023.2.3,Win32,59.88023952,,,,,,,,,,,7,05,1,2,,,,,,,,,,,,,,,,,,,,,,,,,,,,,
5f627a1e4b807f1aa7e35280,TCR,2024-06-11_12h09.40.189,LearnStrategy,2023.2.3,Win32,59.88023952,,,,,,,,,,,2,11,1,3,,,,,,,,,,,,,,,,,,,,,,,,,,,,,
5f627a1e4b807f1aa7e35280,TCR,2024-06-11_12h09.40.189,LearnStrategy,2023.2.3,Win32,59.88023952,,,,,,,,,,,4,10,1,4,,,,,,,,,,,,,,,,,,,,,,,,,,,,,
5f627a1e4b807f1aa7e35280,TCR,2024-06-11_12h09.40.189,LearnStrategy,2023.2.3,Win32,59.88023952,,,,,,,,,,,5,09,1,5,,,,,,,,,,,,,,,,,,,,,,,,,,,,,
5f627a1e4b807f1aa7e35280,TCR,2024-06-11_12h09.40.189,LearnStrategy,2023.2.3,Win32,59.88023952,,,,,,,,,,,2,02,1,6,,,,,,,,,,,,,,,,,,,,,,,,,,,,,
5f627a1e4b807f1aa7e35280,TCR,2024-06-11_12h09.40.189,LearnStrategy,2023.2.3,Win32,59.88023952,,,,,,,,,,,2,14,1,7,,,,,,,,,,,,,,,,,,,,,,,,,,,,,
5f627a1e4b807f1aa7e35280,TCR,2024-06-11_12h09.40.189,LearnStrategy,2023.2.3,Win32,59.88023952,,,,,,,,,,,6,16,1,8,,,,,,,,,,,,,,,,,,,,,,,,,,,,,
5f627a1e4b807f1aa7e35280,TCR,2024-06-11_12h09.40.189,LearnStrategy,2023.2.3,Win32,59.88023952,,,,,,,,,,,6,09,2,1,,,,,,,,,,,,,,,,,,,,,,,,,,,,,
5f627a1e4b807f1aa7e35280,TCR,2024-06-11_12h09.40.189,LearnStrategy,2023.2.3,Win32,59.88023952,,,,,,,,,,,5,07,2,2,,,,,,,,,,,,,,,,,,,,,,,,,,,,,
5f627a1e4b807f1aa7e35280,TCR,2024-06-11_12h09.40.189,LearnStrategy,2023.2.3,Win32,59.88023952,,,,,,,,,,,5,05,2,3,,,,,,,,,,,,,,,,,,,,,,,,,,,,,
5f627a1e4b807f1aa7e35280,TCR,2024-06-11_12h09.40.189,LearnStrategy,2023.2.3,Win32,59.88023952,,,,,,,,,,,3,11,2,4,,,,,,,,,,,,,,,,,,,,,,,,,,,,,
5f627a1e4b807f1aa7e35280,TCR,2024-06-11_12h09.40.189,LearnStrategy,2023.2.3,Win32,59.88023952,,,,,,,,,,,3,15,2,5,,,,,,,,,,,,,,,,,,,,,,,,,,,,,
5f627a1e4b807f1aa7e35280,TCR,2024-06-11_12h09.40.189,LearnStrategy,2023.2.3,Win32,59.88023952,,,,,,,,,,,8,14,2,6,,,,,,,,,,,,,,,,,,,,,,,,,,,,,
5f627a1e4b807f1aa7e35280,TCR,2024-06-11_12h09.40.189,LearnStrategy,2023.2.3,Win32,59.88023952,,,,,,,,,,,7,16,2,7,,,,,,,,,,,,,,,,,,,,,,,,,,,,,
5f627a1e4b807f1aa7e35280,TCR,2024-06-11_12h09.40.189,LearnStrategy,2023.2.3,Win32,59.88023952,,,,,,,,,,,8,04,2,8,,,,,,,,,,,,,,,,,,,,,,,,,,,,,
5f627a1e4b807f1aa7e35280,TCR,2024-06-11_12h09.40.189,LearnStrategy,2023.2.3,Win32,59.88023952,,,,,,,,,,,6,12,3,1,,,,,,,,,,,,,,,,,,,,,,,,,,,,,
5f627a1e4b807f1aa7e35280,TCR,2024-06-11_12h09.40.189,LearnStrategy,2023.2.3,Win32,59.88023952,,,,,,,,,,,1,03,3,2,,,,,,,,,,,,,,,,,,,,,,,,,,,,,
5f627a1e4b807f1aa7e35280,TCR,2024-06-11_12h09.40.189,LearnStrategy,2023.2.3,Win32,59.88023952,,,,,,,,,,,7,06,3,3,,,,,,,,,,,,,,,,,,,,,,,,,,,,,
5f627a1e4b807f1aa7e35280,TCR,2024-06-11_12h09.40.189,LearnStrategy,2023.2.3,Win32,59.88023952,,,,,,,,,,,4,11,3,4,,,,,,,,,,,,,,,,,,,,,,,,,,,,,
5f627a1e4b807f1aa7e35280,TCR,2024-06-11_12h09.40.189,LearnStrategy,2023.2.3,Win32,59.88023952,,,,,,,,,,,6,06,3,5,,,,,,,,,,,,,,,,,,,,,,,,,,,,,
5f627a1e4b807f1aa7e35280,TCR,2024-06-11_12h09.40.189,LearnStrategy,2023.2.3,Win32,59.88023952,,,,,,,,,,,2,08,3,6,,,,,,,,,,,,,,,,,,,,,,,,,,,,,
5f627a1e4b807f1aa7e35280,TCR,2024-06-11_12h09.40.189,LearnStrategy,2023.2.3,Win32,59.88023952,,,,,,,,,,,1,10,3,7,,,,,,,,,,,,,,,,,,,,,,,,,,,,,
5f627a1e4b807f1aa7e35280,TCR,2024-06-11_12h09.40.189,LearnStrategy,2023.2.3,Win32,59.88023952,,,,,,,,,,,4,08,3,8,,,,,,,,,,,,,,,,,,,,,,,,,,,,,
5f627a1e4b807f1aa7e35280,TCR,2024-06-11_12h09.40.189,LearnStrategy,2023.2.3,Win32,59.88023952,,,,,,,,,,,8,05,4,1,,,,,,,,,,,,,,,,,,,,,,,,,,,,,
5f627a1e4b807f1aa7e35280,TCR,2024-06-11_12h09.40.189,LearnStrategy,2023.2.3,Win32,59.88023952,,,,,,,,,,,3,09,4,2,,,,,,,,,,,,,,,,,,,,,,,,,,,,,
5f627a1e4b807f1aa7e35280,TCR,2024-06-11_12h09.40.189,LearnStrategy,2023.2.3,Win32,59.88023952,,,,,,,,,,,1,14,4,3,,,,,,,,,,,,,,,,,,,,,,,,,,,,,
5f627a1e4b807f1aa7e35280,TCR,2024-06-11_12h09.40.189,LearnStrategy,2023.2.3,Win32,59.88023952,,,,,,,,,,,2,10,4,4,,,,,,,,,,,,,,,,,,,,,,,,,,,,,
5f627a1e4b807f1aa7e35280,TCR,2024-06-11_12h09.40.189,LearnStrategy,2023.2.3,Win32,59.88023952,,,,,,,,,,,8,06,4,5,,,,,,,,,,,,,,,,,,,,,,,,,,,,,
5f627a1e4b807f1aa7e35280,TCR,2024-06-11_12h09.40.189,LearnStrategy,2023.2.3,Win32,59.88023952,,,,,,,,,,,5,16,4,6,,,,,,,,,,,,,,,,,,,,,,,,,,,,,
5f627a1e4b807f1aa7e35280,TCR,2024-06-11_12h09.40.189,LearnStrategy,2023.2.3,Win32,59.88023952,,,,,,,,,,,4,14,4,7,,,,,,,,,,,,,,,,,,,,,,,,,,,,,
5f627a1e4b807f1aa7e35280,TCR,2024-06-11_12h09.40.189,LearnStrategy,2023.2.3,Win32,59.88023952,,,,,,,,,,,4,12,4,8,,,,,,,,,,,,,,,,,,,,,,,,,,,,,
5f627a1e4b807f1aa7e35280,TCR,2024-06-11_12h09.40.189,LearnStrategy,2023.2.3,Win32,59.88023952,,,,,,,,,,,8,08,5,1,,,,,,,,,,,,,,,,,,,,,,,,,,,,,
5f627a1e4b807f1aa7e35280,TCR,2024-06-11_12h09.40.189,LearnStrategy,2023.2.3,Win32,59.88023952,,,,,,,,,,,7,12,5,2,,,,,,,,,,,,,,,,,,,,,,,,,,,,,
5f627a1e4b807f1aa7e35280,TCR,2024-06-11_12h09.40.189,LearnStrategy,2023.2.3,Win32,59.88023952,,,,,,,,,,,5,04,5,3,,,,,,,,,,,,,,,,,,,,,,,,,,,,,
5f627a1e4b807f1aa7e35280,TCR,2024-06-11_12h09.40.189,LearnStrategy,2023.2.3,Win32,59.88023952,,,,,,,,,,,8,16,5,4,,,,,,,,,,,,,,,,,,,,,,,,,,,,,
5f627a1e4b807f1aa7e35280,TCR,2024-06-11_12h09.40.189,LearnStrategy,2023.2.3,Win32,59.88023952,,,,,,,,,,,3,08,5,5,,,,,,,,,,,,,,,,,,,,,,,,,,,,,
5f627a1e4b807f1aa7e35280,TCR,2024-06-11_12h09.40.189,LearnStrategy,2023.2.3,Win32,59.88023952,,,,,,,,,,,1,05,5,6,,,,,,,,,,,,,,,,,,,,,,,,,,,,,
5f627a1e4b807f1aa7e35280,TCR,2024-06-11_12h09.40.189,LearnStrategy,2023.2.3,Win32,59.88023952,,,,,,,,,,,1,01,5,7,,,,,,,,,,,,,,,,,,,,,,,,,,,,,
5f627a1e4b807f1aa7e35280,TCR,2024-06-11_12h09.40.189,LearnStrategy,2023.2.3,Win32,59.88023952,,,,,,,,,,,7,10,5,8,,,,,,,,,,,,,,,,,,,,,,,,,,,,,
5f627a1e4b807f1aa7e35280,TCR,2024-06-11_12h09.40.189,LearnStrategy,2023.2.3,Win32,59.88023952,,,,,,,,,,,4,01,6,1,,,,,,,,,,,,,,,,,,,,,,,,,,,,,
5f627a1e4b807f1aa7e35280,TCR,2024-06-11_12h09.40.189,LearnStrategy,2023.2.3,Win32,59.88023952,,,,,,,,,,,1,06,6,2,,,,,,,,,,,,,,,,,,,,,,,,,,,,,
5f627a1e4b807f1aa7e35280,TCR,2024-06-11_12h09.40.189,LearnStrategy,2023.2.3,Win32,59.88023952,,,,,,,,,,,2,12,6,3,,,,,,,,,,,,,,,,,,,,,,,,,,,,,
5f627a1e4b807f1aa7e35280,TCR,2024-06-11_12h09.40.189,LearnStrategy,2023.2.3,Win32,59.88023952,,,,,,,,,,,7,08,6,4,,,,,,,,,,,,,,,,,,,,,,,,,,,,,
5f627a1e4b807f1aa7e35280,TCR,2024-06-11_12h09.40.189,LearnStrategy,2023.2.3,Win32,59.88023952,,,,,,,,,,,6,05,6,5,,,,,,,,,,,,,,,,,,,,,,,,,,,,,
5f627a1e4b807f1aa7e35280,TCR,2024-06-11_12h09.40.189,LearnStrategy,2023.2.3,Win32,59.88023952,,,,,,,,,,,5,14,6,6,,,,,,,,,,,,,,,,,,,,,,,,,,,,,
5f627a1e4b807f1aa7e35280,TCR,2024-06-11_12h09.40.189,LearnStrategy,2023.2.3,Win32,59.88023952,,,,,,,,,,,3,10,6,7,,,,,,,,,,,,,,,,,,,,,,,,,,,,,
5f627a1e4b807f1aa7e35280,TCR,2024-06-11_12h09.40.189,LearnStrategy,2023.2.3,Win32,59.88023952,,,,,,,,,,,6,03,6,8,,,,,,,,,,,,,,,,,,,,,,,,,,,,,