participant,condition,date,expName,psychopyVersion,OS,frameRate,block,phase,trial,learn_mouse_2.x,learn_mouse_2.y,learn_mouse_2.leftButton,learn_mouse_2.midButton,learn_mouse_2.rightButton,learn_mouse_2.time,learn_mouse_2.clicked_name,cat,token,row,col,t_select,cat_mouse_l.x,cat_mouse_l.y,cat_mouse_l.leftButton,cat_mouse_l.midButton,cat_mouse_l.rightButton,cat_mouse_l.time,cat_mouse_l.clicked_name,resp,t_resp,corr,train_trials.thisRepN,train_trials.thisTrialN,train_trials.thisN,train_trials.thisIndex,train_trials.ran,cat_mouse_t.x,cat_mouse_t.y,cat_mouse_t.leftButton,cat_mouse_t.midButton,cat_mouse_t.rightButton,cat_mouse_t.time,cat_mouse_t.clicked_name,test_trials.thisRepN,test_trials.thisTrialN,test_trials.thisN,test_trials.thisIndex,test_trials.ran,Bonus
5f73610089f920075dbb129b,TCR,2024-06-24_13h45.41.209,LearnStrategy,2023.2.3,Linux x86_64,59.88023952,,,,,,,,,,,,,,,,,,,,,,,,,,,,,,,,,,,,,,,,,,,
5f73610089f920075dbb129b,TCR,2024-06-24_13h45.41.209,LearnStrategy,2023.2.3,Linux x86_64,59.88023952,1,1,1,-0.017871625,-0.002486997,1,0,0,1.755,rock_grid_rect_2,3,16,-1,-1,1.755,-0.102082102,-0.23290923,1,0,0,9.0801,Basalt_rect,2,9.08,0,0,0,0,0,1,,,,,,,,,,,,,
5f73610089f920075dbb129b,TCR,2024-06-24_13h45.41.209,LearnStrategy,2023.2.3,Linux x86_64,59.88023952,1,1,2,0.030248727,-0.004337759,1,0,0,2.5646,rock_grid_rect_2,5,10,-1,-1,2.565,-0.362116825,-0.383747858,1,0,0,3.9086,Obsidian_rect,5,3.909,1,1,0,1,0,1,,,,,,,,,,,,,
5f73610089f920075dbb129b,TCR,2024-06-24_13h45.41.209,LearnStrategy,2023.2.3,Linux x86_64,59.88023952,1,1,3,-0.036379424,0.010468487,1,0,0,1.2215,rock_grid_rect_2,2,09,-1,-1,1.221,0.369866993,-0.390225553,1,0,0,4.6442,Pumice_rect,8,4.644,0,2,0,2,0,1,,,,,,,,,,,,,
5f73610089f920075dbb129b,TCR,2024-06-24_13h45.41.209,LearnStrategy,2023.2.3,Linux x86_64,59.88023952,1,1,4,0.026547142,-0.010815516,1,0,0,1.2203,rock_grid_rect_2,1,10,-1,-1,1.22,0.364314647,-0.417987283,1,0,0,6.1083,Pumice_rect,8,6.108,0,3,0,3,0,1,,,,,,,,,,,,,
5f73610089f920075dbb129b,TCR,2024-06-24_13h45.41.209,LearnStrategy,2023.2.3,Linux x86_64,59.88023952,1,1,5,0.012666278,-0.006188551,1,0,0,2.2221,rock_grid_rect_2,6,09,-1,-1,2.222,0.201445915,-0.406882591,1,0,0,7.0136,Peridotite_rect,7,7.014,0,4,0,4,0,1,,,,,,,,,,,,,
5f73610089f920075dbb129b,TCR,2024-06-24_13h45.41.209,LearnStrategy,2023.2.3,Linux x86_64,59.88023952,1,1,6,0.019144035,-0.021920208,1,0,0,0.9216,rock_grid_rect_2,8,05,-1,-1,0.922,0.407808003,-0.40595718,1,0,0,1.8113,Pumice_rect,8,1.811,1,5,0,5,0,1,,,,,,,,,,,,,
5f73610089f920075dbb129b,TCR,2024-06-24_13h45.41.209,LearnStrategy,2023.2.3,Linux x86_64,59.88023952,1,1,7,0.016367862,-0.002486997,1,0,0,1.0887,rock_grid_rect_2,5,05,-1,-1,1.089,-0.363042237,-0.384673207,1,0,0,2.4924,Obsidian_rect,5,2.492,1,6,0,6,0,1,,,,,,,,,,,,,
5f73610089f920075dbb129b,TCR,2024-06-24_13h45.41.209,LearnStrategy,2023.2.3,Linux x86_64,59.88023952,1,1,8,-0.002139937,0.007692314,1,0,0,1.2481,rock_grid_rect_2,4,03,-1,-1,1.248,0.133892415,-0.256043963,1,0,0,13.5268,Diorite_rect,3,13.527,0,7,0,7,0,1,,,,,,,,,,,,,
5f73610089f920075dbb129b,TCR,2024-06-24_13h45.41.209,LearnStrategy,2023.2.3,Linux x86_64,59.88023952,1,1,9,-0.027125494,0.001214587,1,0,0,1.0803,rock_grid_rect_2,3,09,-1,-1,1.08,0.176460421,-0.229207645,1,0,0,12.5564,Diorite_rect,3,12.556,1,8,0,8,0,1,,,,,,,,,,,,,
5f73610089f920075dbb129b,TCR,2024-06-24_13h45.41.209,LearnStrategy,2023.2.3,Linux x86_64,59.88023952,1,1,10,0.018218623,-0.01451707,1,0,0,0.8527,rock_grid_rect_2,7,15,-1,-1,0.853,0.077443605,-0.394852549,1,0,0,8.4316,Peridotite_rect,7,8.432,1,9,0,9,0,1,,,,,,,,,,,,,
5f73610089f920075dbb129b,TCR,2024-06-24_13h45.41.209,LearnStrategy,2023.2.3,Linux x86_64,59.88023952,1,1,11,0.025621731,-0.016367831,1,0,0,0.9894,rock_grid_rect_2,1,01,-1,-1,0.989,0.148698691,-0.244939271,1,0,0,31.1205,Diorite_rect,3,31.12,0,10,0,10,0,1,,,,,,,,,,,,,
5f73610089f920075dbb129b,TCR,2024-06-24_13h45.41.209,LearnStrategy,2023.2.3,Linux x86_64,59.88023952,1,1,12,0.018218623,-0.002486997,1,0,0,0.9207,rock_grid_rect_2,8,15,-1,-1,0.921,0.395777899,-0.385598619,1,0,0,6.8128,Pumice_rect,8,6.813,1,11,0,11,0,1,,,,,,,,,,,,,
5f73610089f920075dbb129b,TCR,2024-06-24_13h45.41.209,LearnStrategy,2023.2.3,Linux x86_64,59.88023952,1,1,13,-0.037304774,0.016020833,1,0,0,1.1302,rock_grid_rect_2,4,05,-1,-1,1.13,-0.36674376,-0.231058406,1,0,0,17.9743,Andesite_rect,1,17.974,0,12,0,12,0,1,,,,,,,,,,,,,
5f73610089f920075dbb129b,TCR,2024-06-24_13h45.41.209,LearnStrategy,2023.2.3,Linux x86_64,59.88023952,1,1,14,0.050607287,0.004916141,1,0,0,0.9719,rock_grid_rect_2,6,03,-1,-1,0.972,-0.094678995,-0.379120861,1,0,0,13.7933,Pegmatite_rect,6,13.793,1,13,0,13,0,1,,,,,,,,,,,,,
5f73610089f920075dbb129b,TCR,2024-06-24_13h45.41.209,LearnStrategy,2023.2.3,Linux x86_64,59.88023952,1,1,15,-0.026200082,-0.002486997,1,0,0,1.0466,rock_grid_rect_2,2,10,-1,-1,1.047,-0.129843832,-0.247715444,1,0,0,20.0411,Basalt_rect,2,20.041,1,14,0,14,0,1,,,,,,,,,,,,,
5f73610089f920075dbb129b,TCR,2024-06-24_13h45.41.209,LearnStrategy,2023.2.3,Linux x86_64,59.88023952,1,1,16,0.011740866,0.003065349,1,0,0,0.9806,rock_grid_rect_2,7,07,-1,-1,0.981,0.359687713,-0.242163098,1,0,0,25.6152,Gabbro_rect,4,25.615,0,15,0,15,0,1,,,,,,,,,,,,,
5f73610089f920075dbb129b,TCR,2024-06-24_13h45.41.209,LearnStrategy,2023.2.3,Linux x86_64,59.88023952,1,2,1,,,,,,,,1,16,,,,,,,,,,,1,19.188,1,,,,,,-0.391729316,-0.231983818,1,0,0,19.1884,Andesite_rect,0,0,0,0,1,
5f73610089f920075dbb129b,TCR,2024-06-24_13h45.41.209,LearnStrategy,2023.2.3,Linux x86_64,59.88023952,1,2,2,,,,,,,,2,05,,,,,,,,,,,2,3.558,1,,,,,,-0.11873914,-0.257894724,1,0,0,3.5578,Basalt_rect,1,0,1,0,1,
5f73610089f920075dbb129b,TCR,2024-06-24_13h45.41.209,LearnStrategy,2023.2.3,Linux x86_64,59.88023952,1,2,3,,,,,,,,8,02,,,,,,,,,,,8,3.558,1,,,,,,0.428166563,-0.385598619,1,0,0,3.5575,Pumice_rect,2,0,2,0,1,
5f73610089f920075dbb129b,TCR,2024-06-24_13h45.41.209,LearnStrategy,2023.2.3,Linux x86_64,59.88023952,1,2,4,,,,,,,,5,07,,,,,,,,,,,5,3.361,1,,,,,,-0.36674376,-0.403181007,1,0,0,3.3605,Obsidian_rect,3,0,3,0,1,
5f73610089f920075dbb129b,TCR,2024-06-24_13h45.41.209,LearnStrategy,2023.2.3,Linux x86_64,59.88023952,1,2,5,,,,,,,,4,16,,,,,,,,,,,2,2.607,0,,,,,,-0.115037617,-0.244939271,1,0,0,2.607,Basalt_rect,4,0,4,0,1,
5f73610089f920075dbb129b,TCR,2024-06-24_13h45.41.209,LearnStrategy,2023.2.3,Linux x86_64,59.88023952,1,2,6,,,,,,,,7,10,,,,,,,,,,,7,8.375,1,,,,,,0.103354574,-0.401330245,1,0,0,8.3745,Peridotite_rect,5,0,5,0,1,
5f73610089f920075dbb129b,TCR,2024-06-24_13h45.41.209,LearnStrategy,2023.2.3,Linux x86_64,59.88023952,1,2,7,,,,,,,,3,06,,,,,,,,,,,3,16.39,1,,,,,,0.105205335,-0.251417029,1,0,0,16.3898,Diorite_rect,6,0,6,0,1,
5f73610089f920075dbb129b,TCR,2024-06-24_13h45.41.209,LearnStrategy,2023.2.3,Linux x86_64,59.88023952,1,2,8,,,,,,,,1,03,,,,,,,,,,,1,35.805,1,,,,,,-0.350086722,-0.255118552,1,0,0,35.8045,Andesite_rect,7,0,7,0,1,
5f73610089f920075dbb129b,TCR,2024-06-24_13h45.41.209,LearnStrategy,2023.2.3,Linux x86_64,59.88023952,1,2,9,,,,,,,,4,14,,,,,,,,,,,2,2.377,0,,,,,,-0.16685943,-0.246790033,1,0,0,2.3768,Basalt_rect,8,0,8,0,1,
5f73610089f920075dbb129b,TCR,2024-06-24_13h45.41.209,LearnStrategy,2023.2.3,Linux x86_64,59.88023952,1,2,10,,,,,,,,6,05,,,,,,,,,,,5,18.773,0,,,,,,-0.379699244,-0.385598619,1,0,0,18.7725,Obsidian_rect,9,0,9,0,1,
5f73610089f920075dbb129b,TCR,2024-06-24_13h45.41.209,LearnStrategy,2023.2.3,Linux x86_64,59.88023952,1,2,11,,,,,,,,7,02,,,,,,,,,,,6,11.356,0,,,,,,-0.063215742,-0.389300265,1,0,0,11.3565,Pegmatite_rect,10,0,10,0,1,
5f73610089f920075dbb129b,TCR,2024-06-24_13h45.41.209,LearnStrategy,2023.2.3,Linux x86_64,59.88023952,1,2,12,,,,,,,,8,16,,,,,,,,,,,8,1.777,1,,,,,,0.383747796,-0.391150965,1,0,0,1.7767,Pumice_rect,11,0,11,0,1,
5f73610089f920075dbb129b,TCR,2024-06-24_13h45.41.209,LearnStrategy,2023.2.3,Linux x86_64,59.88023952,1,2,13,,,,,,,,2,04,,,,,,,,,,,2,1.547,1,,,,,,-0.108559859,-0.249566206,1,0,0,1.5467,Basalt_rect,12,0,12,0,1,
5f73610089f920075dbb129b,TCR,2024-06-24_13h45.41.209,LearnStrategy,2023.2.3,Linux x86_64,59.88023952,1,2,14,,,,,,,,6,11,,,,,,,,,,,5,10.225,0,,,,,,-0.410237115,-0.40595718,1,0,0,10.2248,Obsidian_rect,13,0,13,0,1,
5f73610089f920075dbb129b,TCR,2024-06-24_13h45.41.209,LearnStrategy,2023.2.3,Linux x86_64,59.88023952,1,2,15,,,,,,,,5,12,,,,,,,,,,,5,1.182,1,,,,,,-0.418565634,-0.410584176,1,0,0,1.1816,Obsidian_rect,14,0,14,0,1,
5f73610089f920075dbb129b,TCR,2024-06-24_13h45.41.209,LearnStrategy,2023.2.3,Linux x86_64,59.88023952,1,2,16,,,,,,,,3,02,,,,,,,,,,,3,12.94,1,,,,,,0.086697536,-0.252342379,1,0,0,12.9401,Diorite_rect,15,0,15,0,1,
5f73610089f920075dbb129b,TCR,2024-06-24_13h45.41.209,LearnStrategy,2023.2.3,Linux x86_64,59.88023952,2,1,1,0.032099488,-0.002486997,1,0,0,1.4819,rock_grid_rect_2,6,13,-1,-1,1.482,-0.076171195,-0.388374792,1,0,0,16.8566,Pegmatite_rect,6,16.857,1,0,0,0,0,1,,,,,,,,,,,,,
5f73610089f920075dbb129b,TCR,2024-06-24_13h45.41.209,LearnStrategy,2023.2.3,Linux x86_64,59.88023952,2,1,2,0.007113932,-0.015442451,1,0,0,1.0016,rock_grid_rect_2,4,05,-1,-1,1.002,0.417061871,-0.248640856,1,0,0,11.3617,Gabbro_rect,4,11.362,1,1,0,1,0,1,,,,,,,,,,,,,
5f73610089f920075dbb129b,TCR,2024-06-24_13h45.41.209,LearnStrategy,2023.2.3,Linux x86_64,59.88023952,2,1,3,-0.08079813,-0.009890105,1,0,0,2.2622,rock_grid_rect_2,6,03,-1,-1,2.262,-0.072469611,-0.393927138,1,0,0,19.4461,Pegmatite_rect,6,19.446,1,2,0,2,0,1,,,,,,,,,,,,,
5f73610089f920075dbb129b,TCR,2024-06-24_13h45.41.209,LearnStrategy,2023.2.3,Linux x86_64,59.88023952,2,1,4,-0.069693438,-0.015442451,1,0,0,0.8973,rock_grid_rect_2,6,13,-1,-1,0.897,-0.124291486,-0.388374792,1,0,0,12.4924,Pegmatite_rect,6,12.492,1,3,0,3,0,1,,,,,,,,,,,,,
5f73610089f920075dbb129b,TCR,2024-06-24_13h45.41.209,LearnStrategy,2023.2.3,Linux x86_64,59.88023952,2,1,5,-0.023423909,-0.009890105,1,0,0,0.881,rock_grid_rect_2,7,14,-1,-1,0.881,0.108906858,-0.401330245,1,0,0,27.4211,Peridotite_rect,7,27.421,1,4,0,4,0,1,,,,,,,,,,,,,
5f73610089f920075dbb129b,TCR,2024-06-24_13h45.41.209,LearnStrategy,2023.2.3,Linux x86_64,59.88023952,2,1,6,-0.04285712,-0.006188551,1,0,0,0.8303,rock_grid_rect_2,6,07,-1,-1,0.83,-0.141873935,-0.416136522,1,0,0,9.4582,Pegmatite_rect,6,9.458,1,5,0,5,0,1,,,,,,,,,,,,,
5f73610089f920075dbb129b,TCR,2024-06-24_13h45.41.209,LearnStrategy,2023.2.3,Linux x86_64,59.88023952,2,1,7,-0.034528601,-0.011740897,1,0,0,0.7966,rock_grid_rect_2,7,13,-1,-1,0.797,0.092249882,-0.41521111,1,0,0,6.4427,Peridotite_rect,7,6.443,1,6,0,6,0,1,,,,,,,,,,,,,
5f73610089f920075dbb129b,TCR,2024-06-24_13h45.41.209,LearnStrategy,2023.2.3,Linux x86_64,59.88023952,2,1,8,-0.024349321,-0.011740897,1,0,0,0.7978,rock_grid_rect_2,7,13,-1,-1,0.798,0.17831112,-0.407808003,1,0,0,2.7755,Peridotite_rect,7,2.775,1,7,0,7,0,1,,,,,,,,,,,,,
5f73610089f920075dbb129b,TCR,2024-06-24_13h45.41.209,LearnStrategy,2023.2.3,Linux x86_64,59.88023952,2,1,9,0.003412409,-0.022845558,1,0,0,0.8644,rock_grid_rect_2,4,03,-1,-1,0.864,0.415211172,-0.249566206,1,0,0,4.4858,Gabbro_rect,4,4.486,1,8,0,8,0,1,,,,,,,,,,,,,
5f73610089f920075dbb129b,TCR,2024-06-24_13h45.41.209,LearnStrategy,2023.2.3,Linux x86_64,59.88023952,2,1,10,-0.002139937,0.000289176,1,0,0,0.8976,rock_grid_rect_2,8,13,-1,-1,0.898,0.379120861,-0.413360349,1,0,0,4.1394,Pumice_rect,8,4.139,1,9,0,9,0,1,,,,,,,,,,,,,
5f73610089f920075dbb129b,TCR,2024-06-24_13h45.41.209,LearnStrategy,2023.2.3,Linux x86_64,59.88023952,2,1,11,-0.019722386,-0.003412378,1,0,0,0.8641,rock_grid_rect_2,4,03,-1,-1,0.864,0.420763394,-0.251417029,1,0,0,3.1641,Gabbro_rect,4,3.164,1,10,0,10,0,1,,,,,,,,,,,,,
5f73610089f920075dbb129b,TCR,2024-06-24_13h45.41.209,LearnStrategy,2023.2.3,Linux x86_64,59.88023952,2,1,12,-0.008617695,0.004916141,1,0,0,0.8305,rock_grid_rect_2,6,09,-1,-1,0.831,-0.09097741,-0.393927138,1,0,0,6.2134,Pegmatite_rect,6,6.213,1,11,0,11,0,1,,,,,,,,,,,,,
5f73610089f920075dbb129b,TCR,2024-06-24_13h45.41.209,LearnStrategy,2023.2.3,Linux x86_64,59.88023952,2,1,13,-0.074320434,0.019722386,1,0,0,0.8969,rock_grid_rect_2,5,10,-1,-1,0.897,-0.342683615,-0.411509525,1,0,0,1.4911,Obsidian_rect,5,1.491,1,12,0,12,0,1,,,,,,,,,,,,,
5f73610089f920075dbb129b,TCR,2024-06-24_13h45.41.209,LearnStrategy,2023.2.3,Linux x86_64,59.88023952,2,1,14,-0.015095452,-0.008039343,1,0,0,1.0472,rock_grid_rect_2,4,05,-1,-1,1.047,0.428166563,-0.265297894,1,0,0,7.66,Gabbro_rect,4,7.66,1,13,0,13,0,1,,,,,,,,,,,,,
5f73610089f920075dbb129b,TCR,2024-06-24_13h45.41.209,LearnStrategy,2023.2.3,Linux x86_64,59.88023952,2,1,15,-0.003065349,-0.003412378,1,0,0,0.831,rock_grid_rect_2,4,13,-1,-1,0.831,-0.438924226,-0.235685341,1,0,0,17.8459,Andesite_rect,1,17.846,0,14,0,14,0,1,,,,,,,,,,,,,
5f73610089f920075dbb129b,TCR,2024-06-24_13h45.41.209,LearnStrategy,2023.2.3,Linux x86_64,59.88023952,2,1,16,0.007113932,0.016020833,1,0,0,1.0887,rock_grid_rect_2,2,08,-1,-1,1.089,-0.11781379,-0.235685341,1,0,0,1.4414,Basalt_rect,2,1.441,1,15,0,15,0,1,,,,,,,,,,,,,
5f73610089f920075dbb129b,TCR,2024-06-24_13h45.41.209,LearnStrategy,2023.2.3,Linux x86_64,59.88023952,2,2,1,,,,,,,,4,09,,,,,,,,,,,2,21.439,0,,,,,,-0.122440724,-0.255118552,1,0,0,21.4385,Basalt_rect,0,0,0,0,1,
5f73610089f920075dbb129b,TCR,2024-06-24_13h45.41.209,LearnStrategy,2023.2.3,Linux x86_64,59.88023952,2,2,2,,,,,,,,1,09,,,,,,,,,,,1,6.858,1,,,,,,-0.378773863,-0.246790033,1,0,0,6.8579,Andesite_rect,1,0,1,0,1,
5f73610089f920075dbb129b,TCR,2024-06-24_13h45.41.209,LearnStrategy,2023.2.3,Linux x86_64,59.88023952,2,2,3,,,,,,,,3,13,,,,,,,,,,,7,13.092,0,,,,,,0.143146345,-0.393001726,1,0,0,13.0922,Peridotite_rect,2,0,2,0,1,
5f73610089f920075dbb129b,TCR,2024-06-24_13h45.41.209,LearnStrategy,2023.2.3,Linux x86_64,59.88023952,2,2,4,,,,,,,,7,16,,,,,,,,,,,1,8.759,0,,,,,,-0.351012133,-0.230133057,1,0,0,8.7591,Andesite_rect,3,0,3,0,1,
5f73610089f920075dbb129b,TCR,2024-06-24_13h45.41.209,LearnStrategy,2023.2.3,Linux x86_64,59.88023952,2,2,5,,,,,,,,6,16,,,,,,,,,,,6,3.592,1,,,,,,-0.096529694,-0.41521111,1,0,0,3.5918,Pegmatite_rect,4,0,4,0,1,
5f73610089f920075dbb129b,TCR,2024-06-24_13h45.41.209,LearnStrategy,2023.2.3,Linux x86_64,59.88023952,2,2,6,,,,,,,,7,05,,,,,,,,,,,7,8.403,1,,,,,,0.192192047,-0.408733352,1,0,0,8.4033,Peridotite_rect,5,0,5,0,1,
5f73610089f920075dbb129b,TCR,2024-06-24_13h45.41.209,LearnStrategy,2023.2.3,Linux x86_64,59.88023952,2,2,7,,,,,,,,1,07,,,,,,,,,,,3,9.342,0,,,,,,0.211625196,-0.256969375,1,0,0,9.3423,Diorite_rect,6,0,6,0,1,
5f73610089f920075dbb129b,TCR,2024-06-24_13h45.41.209,LearnStrategy,2023.2.3,Linux x86_64,59.88023952,2,2,8,,,,,,,,5,16,,,,,,,,,,,5,1.24,1,,,,,,-0.388953143,-0.406882591,1,0,0,1.2404,Obsidian_rect,7,0,7,0,1,
5f73610089f920075dbb129b,TCR,2024-06-24_13h45.41.209,LearnStrategy,2023.2.3,Linux x86_64,59.88023952,2,2,9,,,,,,,,4,11,,,,,,,,,,,2,7.141,0,,,,,,-0.109485271,-0.24401386,1,0,0,7.1411,Basalt_rect,8,0,8,0,1,
5f73610089f920075dbb129b,TCR,2024-06-24_13h45.41.209,LearnStrategy,2023.2.3,Linux x86_64,59.88023952,2,2,10,,,,,,,,8,14,,,,,,,,,,,8,1.175,1,,,,,,0.430017386,-0.417061871,1,0,0,1.1751,Pumice_rect,9,0,9,0,1,
5f73610089f920075dbb129b,TCR,2024-06-24_13h45.41.209,LearnStrategy,2023.2.3,Linux x86_64,59.88023952,2,2,11,,,,,,,,5,09,,,,,,,,,,,5,1.155,1,,,,,,-0.394505489,-0.421688929,1,0,0,1.1554,Obsidian_rect,10,0,10,0,1,
5f73610089f920075dbb129b,TCR,2024-06-24_13h45.41.209,LearnStrategy,2023.2.3,Linux x86_64,59.88023952,2,2,12,,,,,,,,8,10,,,,,,,,,,,8,1.169,1,,,,,,0.403181068,-0.404106418,1,0,0,1.1693,Pumice_rect,11,0,11,0,1,
5f73610089f920075dbb129b,TCR,2024-06-24_13h45.41.209,LearnStrategy,2023.2.3,Linux x86_64,59.88023952,2,2,13,,,,,,,,3,12,,,,,,,,,,,3,15.255,1,,,,,,0.088548297,-0.231058406,1,0,0,15.2555,Diorite_rect,12,0,12,0,1,
5f73610089f920075dbb129b,TCR,2024-06-24_13h45.41.209,LearnStrategy,2023.2.3,Linux x86_64,59.88023952,2,2,14,,,,,,,,6,10,,,,,,,,,,,6,5.879,1,,,,,,-0.104858275,-0.410584176,1,0,0,5.8794,Pegmatite_rect,13,0,13,0,1,
5f73610089f920075dbb129b,TCR,2024-06-24_13h45.41.209,LearnStrategy,2023.2.3,Linux x86_64,59.88023952,2,2,15,,,,,,,,2,11,,,,,,,,,,,8,1.942,0,,,,,,0.455002881,-0.410584176,1,0,0,1.9421,Pumice_rect,14,0,14,0,1,
5f73610089f920075dbb129b,TCR,2024-06-24_13h45.41.209,LearnStrategy,2023.2.3,Linux x86_64,59.88023952,2,2,16,,,,,,,,2,16,,,,,,,,,,,2,1.937,1,,,,,,-0.132620005,-0.242163098,1,0,0,1.9371,Basalt_rect,15,0,15,0,1,
5f73610089f920075dbb129b,TCR,2024-06-24_13h45.41.209,LearnStrategy,2023.2.3,Linux x86_64,59.88023952,3,1,1,-0.017871625,-0.006188551,1,0,0,1.4976,rock_grid_rect_2,4,08,-1,-1,1.498,0.144071695,-0.396703311,1,0,0,11.1934,Peridotite_rect,7,11.193,0,0,0,0,0,1,,,,,,,,,,,,,
5f73610089f920075dbb129b,TCR,2024-06-24_13h45.41.209,LearnStrategy,2023.2.3,Linux x86_64,59.88023952,3,1,2,0.042278769,-0.009890105,1,0,0,1.0342,rock_grid_rect_2,2,10,-1,-1,1.034,-0.115037617,-0.231058406,1,0,0,1.8417,Basalt_rect,2,1.842,1,1,0,1,0,1,,,,,,,,,,,,,
5f73610089f920075dbb129b,TCR,2024-06-24_13h45.41.209,LearnStrategy,2023.2.3,Linux x86_64,59.88023952,3,1,3,-0.010468456,-0.020069385,1,0,0,0.9469,rock_grid_rect_2,4,13,-1,-1,0.947,0.438345843,-0.257894724,1,0,0,8.9246,Gabbro_rect,4,8.925,1,2,0,2,0,1,,,,,,,,,,,,,
5f73610089f920075dbb129b,TCR,2024-06-24_13h45.41.209,LearnStrategy,2023.2.3,Linux x86_64,59.88023952,3,1,4,0.000636298,-0.001561586,1,0,0,0.9145,rock_grid_rect_2,5,11,-1,-1,0.914,-0.399132454,-0.390225553,1,0,0,1.2424,Obsidian_rect,5,1.242,1,3,0,3,0,1,,,,,,,,,,,,,
5f73610089f920075dbb129b,TCR,2024-06-24_13h45.41.209,LearnStrategy,2023.2.3,Linux x86_64,59.88023952,3,1,5,0.010815516,-0.008039343,1,0,0,1.0313,rock_grid_rect_2,8,08,-1,-1,1.031,0.432793498,-0.402255657,1,0,0,2.0127,Pumice_rect,8,2.013,1,4,0,4,0,1,,,,,,,,,,,,,
5f73610089f920075dbb129b,TCR,2024-06-24_13h45.41.209,LearnStrategy,2023.2.3,Linux x86_64,59.88023952,3,1,6,-0.027125494,-0.000636205,1,0,0,0.8805,rock_grid_rect_2,4,08,-1,-1,0.88,0.382822508,-0.248640856,1,0,0,7.3417,Gabbro_rect,4,7.342,1,5,0,5,0,1,,,,,,,,,,,,,
5f73610089f920075dbb129b,TCR,2024-06-24_13h45.41.209,LearnStrategy,2023.2.3,Linux x86_64,59.88023952,3,1,7,-0.022498559,0.01324466,1,0,0,0.8307,rock_grid_rect_2,1,01,-1,-1,0.831,-0.347310611,-0.254193202,1,0,0,4.926,Andesite_rect,1,4.926,1,6,0,6,0,1,,,,,,,,,,,,,
5f73610089f920075dbb129b,TCR,2024-06-24_13h45.41.209,LearnStrategy,2023.2.3,Linux x86_64,59.88023952,3,1,8,-0.031752366,-0.008964724,1,0,0,0.7477,rock_grid_rect_2,3,07,-1,-1,0.748,0.382822508,-0.236610752,1,0,0,11.1504,Gabbro_rect,4,11.15,0,7,0,7,0,1,,,,,,,,,,,,,
5f73610089f920075dbb129b,TCR,2024-06-24_13h45.41.209,LearnStrategy,2023.2.3,Linux x86_64,59.88023952,3,1,9,-0.028050905,-0.015442451,1,0,0,0.8711,rock_grid_rect_2,7,13,-1,-1,0.871,0.15795256,-0.403181007,1,0,0,7.9753,Peridotite_rect,7,7.975,1,8,0,8,0,1,,,,,,,,,,,,,
5f73610089f920075dbb129b,TCR,2024-06-24_13h45.41.209,LearnStrategy,2023.2.3,Linux x86_64,59.88023952,3,1,10,-0.00399076,0.008617695,1,0,0,0.9807,rock_grid_rect_2,2,09,-1,-1,0.981,-0.11873914,-0.24401386,1,0,0,1.4253,Basalt_rect,2,1.425,1,9,0,9,0,1,,,,,,,,,,,,,
5f73610089f920075dbb129b,TCR,2024-06-24_13h45.41.209,LearnStrategy,2023.2.3,Linux x86_64,59.88023952,3,1,11,-0.028050905,-0.01451707,1,0,0,0.8491,rock_grid_rect_2,7,12,-1,-1,0.849,0.160728794,-0.389300265,1,0,0,16.2112,Peridotite_rect,7,16.211,1,10,0,10,0,1,,,,,,,,,,,,,
5f73610089f920075dbb129b,TCR,2024-06-24_13h45.41.209,LearnStrategy,2023.2.3,Linux x86_64,59.88023952,3,1,12,-0.005841522,0.008617695,1,0,0,0.9473,rock_grid_rect_2,6,12,-1,-1,0.947,0.109832269,-0.265297894,1,0,0,7.5403,Diorite_rect,3,7.54,0,11,0,11,0,1,,,,,,,,,,,,,
5f73610089f920075dbb129b,TCR,2024-06-24_13h45.41.209,LearnStrategy,2023.2.3,Linux x86_64,59.88023952,3,1,13,0.038577246,0.004916141,1,0,0,1.0538,rock_grid_rect_2,1,05,-1,-1,1.054,-0.414864081,-0.254193202,1,0,0,8.1575,Andesite_rect,1,8.158,1,12,0,12,0,1,,,,,,,,,,,,,
5f73610089f920075dbb129b,TCR,2024-06-24_13h45.41.209,LearnStrategy,2023.2.3,Linux x86_64,59.88023952,3,1,14,0.038577246,-0.006188551,1,0,0,0.9044,rock_grid_rect_2,6,09,-1,-1,0.904,-0.094678995,-0.396703311,1,0,0,8.0938,Pegmatite_rect,6,8.094,1,13,0,13,0,1,,,,,,,,,,,,,
5f73610089f920075dbb129b,TCR,2024-06-24_13h45.41.209,LearnStrategy,2023.2.3,Linux x86_64,59.88023952,3,1,15,-0.016946213,-0.019144035,1,0,0,1.1966,rock_grid_rect_2,4,15,-1,-1,1.197,0.417061871,-0.264372482,1,0,0,6.5317,Gabbro_rect,4,6.532,1,14,0,14,0,1,,,,,,,,,,,,,
5f73610089f920075dbb129b,TCR,2024-06-24_13h45.41.209,LearnStrategy,2023.2.3,Linux x86_64,59.88023952,3,1,16,0.045054942,0.000289176,1,0,0,0.8556,rock_grid_rect_2,3,09,-1,-1,0.856,0.137593999,-0.230133057,1,0,0,24.0213,Diorite_rect,3,24.021,1,15,0,15,0,1,,,,,,,,,,,,,
5f73610089f920075dbb129b,TCR,2024-06-24_13h45.41.209,LearnStrategy,2023.2.3,Linux x86_64,59.88023952,3,2,1,,,,,,,,5,04,,,,,,,,,,,5,1.51,1,,,,,,-0.372296136,-0.393001726,1,0,0,1.5098,Obsidian_rect,0,0,0,0,1,
5f73610089f920075dbb129b,TCR,2024-06-24_13h45.41.209,LearnStrategy,2023.2.3,Linux x86_64,59.88023952,3,2,2,,,,,,,,4,10,,,,,,,,,,,4,20.688,1,,,,,,0.436495144,-0.235685341,1,0,0,20.6881,Gabbro_rect,1,0,1,0,1,
5f73610089f920075dbb129b,TCR,2024-06-24_13h45.41.209,LearnStrategy,2023.2.3,Linux x86_64,59.88023952,3,2,3,,,,,,,,4,12,,,,,,,,,,,4,9.841,1,,,,,,0.37819545,-0.23290923,1,0,0,9.8413,Gabbro_rect,2,0,2,0,1,
5f73610089f920075dbb129b,TCR,2024-06-24_13h45.41.209,LearnStrategy,2023.2.3,Linux x86_64,59.88023952,3,2,4,,,,,,,,2,01,,,,,,,,,,,2,1.143,1,,,,,,-0.122440724,-0.237536164,1,0,0,1.1425,Basalt_rect,3,0,3,0,1,
5f73610089f920075dbb129b,TCR,2024-06-24_13h45.41.209,LearnStrategy,2023.2.3,Linux x86_64,59.88023952,3,2,5,,,,,,,,3,15,,,,,,,,,,,3,10.308,1,,,,,,0.147773279,-0.238461514,1,0,0,10.3076,Diorite_rect,4,0,4,0,1,
5f73610089f920075dbb129b,TCR,2024-06-24_13h45.41.209,LearnStrategy,2023.2.3,Linux x86_64,59.88023952,3,2,6,,,,,,,,7,04,,,,,,,,,,,4,8.928,0,,,,,,0.417987283,-0.238461514,1,0,0,8.928,Gabbro_rect,5,0,5,0,1,
5f73610089f920075dbb129b,TCR,2024-06-24_13h45.41.209,LearnStrategy,2023.2.3,Linux x86_64,59.88023952,3,2,7,,,,,,,,2,12,,,,,,,,,,,8,1.196,0,,,,,,0.421688806,-0.401330245,1,0,0,1.1957,Pumice_rect,6,0,6,0,1,
5f73610089f920075dbb129b,TCR,2024-06-24_13h45.41.209,LearnStrategy,2023.2.3,Linux x86_64,59.88023952,3,2,8,,,,,,,,5,06,,,,,,,,,,,5,1.249,1,,,,,,-0.415789461,-0.392076376,1,0,0,1.2494,Obsidian_rect,7,0,7,0,1,
5f73610089f920075dbb129b,TCR,2024-06-24_13h45.41.209,LearnStrategy,2023.2.3,Linux x86_64,59.88023952,3,2,9,,,,,,,,6,08,,,,,,,,,,,6,7.198,1,,,,,,-0.134470766,-0.381897034,1,0,0,7.1985,Pegmatite_rect,8,0,8,0,1,
5f73610089f920075dbb129b,TCR,2024-06-24_13h45.41.209,LearnStrategy,2023.2.3,Linux x86_64,59.88023952,3,2,10,,,,,,,,3,08,,,,,,,,,,,3,12.525,1,,,,,,0.140370172,-0.245864683,1,0,0,12.5247,Diorite_rect,9,0,9,0,1,
5f73610089f920075dbb129b,TCR,2024-06-24_13h45.41.209,LearnStrategy,2023.2.3,Linux x86_64,59.88023952,3,2,11,,,,,,,,8,09,,,,,,,,,,,8,1.278,1,,,,,,0.446674424,-0.398554072,1,0,0,1.2777,Pumice_rect,10,0,10,0,1,
5f73610089f920075dbb129b,TCR,2024-06-24_13h45.41.209,LearnStrategy,2023.2.3,Linux x86_64,59.88023952,3,2,12,,,,,,,,7,06,,,,,,,,,,,7,11.407,1,,,,,,0.167206428,-0.400404834,1,0,0,11.4072,Peridotite_rect,11,0,11,0,1,
5f73610089f920075dbb129b,TCR,2024-06-24_13h45.41.209,LearnStrategy,2023.2.3,Linux x86_64,59.88023952,3,2,13,,,,,,,,6,06,,,,,,,,,,,6,16.964,1,,,,,,-0.122440724,-0.417987283,1,0,0,16.9644,Pegmatite_rect,12,0,12,0,1,
5f73610089f920075dbb129b,TCR,2024-06-24_13h45.41.209,LearnStrategy,2023.2.3,Linux x86_64,59.88023952,3,2,14,,,,,,,,8,03,,,,,,,,,,,8,1.237,1,,,,,,0.417987283,-0.383747858,1,0,0,1.2369,Pumice_rect,13,0,13,0,1,
5f73610089f920075dbb129b,TCR,2024-06-24_13h45.41.209,LearnStrategy,2023.2.3,Linux x86_64,59.88023952,3,2,15,,,,,,,,1,11,,,,,,,,,,,1,5.542,1,,,,,,-0.357489891,-0.247715444,1,0,0,5.542,Andesite_rect,14,0,14,0,1,
5f73610089f920075dbb129b,TCR,2024-06-24_13h45.41.209,LearnStrategy,2023.2.3,Linux x86_64,59.88023952,3,2,16,,,,,,,,1,14,,,,,,,,,,,1,15.157,1,,,,,,-0.413013288,-0.235685341,1,0,0,15.1569,Andesite_rect,15,0,15,0,1,
5f73610089f920075dbb129b,TCR,2024-06-24_13h45.41.209,LearnStrategy,2023.2.3,Linux x86_64,59.88023952,4,1,1,-0.028976255,0.007692314,1,0,0,1.2484,rock_grid_rect_2,2,06,-1,-1,1.248,-0.075245784,-0.231983818,1,0,0,2.8922,Basalt_rect,2,2.892,1,0,0,0,0,1,,,,,,,,,,,,,
5f73610089f920075dbb129b,TCR,2024-06-24_13h45.41.209,LearnStrategy,2023.2.3,Linux x86_64,59.88023952,4,1,2,0.007113932,-0.008039343,1,0,0,0.6969,rock_grid_rect_2,4,08,-1,-1,0.697,0.448525124,-0.235685341,1,0,0,7.3244,Gabbro_rect,4,7.324,1,1,0,1,0,1,,,,,,,,,,,,,
5f73610089f920075dbb129b,TCR,2024-06-24_13h45.41.209,LearnStrategy,2023.2.3,Linux x86_64,59.88023952,4,1,3,-0.026200082,-0.00526317,1,0,0,0.6797,rock_grid_rect_2,2,08,-1,-1,0.68,-0.123366074,-0.234759991,1,0,0,1.3707,Basalt_rect,2,1.371,1,2,0,2,0,1,,,,,,,,,,,,,
5f73610089f920075dbb129b,TCR,2024-06-24_13h45.41.209,LearnStrategy,2023.2.3,Linux x86_64,59.88023952,4,1,4,0.006188582,-0.001561586,1,0,0,0.748,rock_grid_rect_2,6,13,-1,-1,0.748,0.41613646,-0.238461514,1,0,0,34.1191,Gabbro_rect,4,34.119,0,3,0,3,0,1,,,,,,,,,,,,,
5f73610089f920075dbb129b,TCR,2024-06-24_13h45.41.209,LearnStrategy,2023.2.3,Linux x86_64,59.88023952,4,1,5,-0.000289176,-0.019144035,1,0,0,0.9885,rock_grid_rect_2,8,08,-1,-1,0.989,0.46240605,-0.395777899,1,0,0,1.2096,Pumice_rect,8,1.21,1,4,0,4,0,1,,,,,,,,,,,,,
5f73610089f920075dbb129b,TCR,2024-06-24_13h45.41.209,LearnStrategy,2023.2.3,Linux x86_64,59.88023952,4,1,6,0.015442451,-0.004337759,1,0,0,1.2482,rock_grid_rect_2,6,09,-1,-1,1.248,-0.110410621,-0.410584176,1,0,0,2.0251,Pegmatite_rect,6,2.025,1,5,0,5,0,1,,,,,,,,,,,,,
5f73610089f920075dbb129b,TCR,2024-06-24_13h45.41.209,LearnStrategy,2023.2.3,Linux x86_64,59.88023952,4,1,7,-0.00399076,-0.013591689,1,0,0,0.7301,rock_grid_rect_2,5,10,-1,-1,0.73,-0.341758265,-0.410584176,1,0,0,1.0276,Obsidian_rect,5,1.028,1,6,0,6,0,1,,,,,,,,,,,,,
5f73610089f920075dbb129b,TCR,2024-06-24_13h45.41.209,LearnStrategy,2023.2.3,Linux x86_64,59.88023952,4,1,8,0.025621731,-0.007113932,1,0,0,0.8982,rock_grid_rect_2,7,12,-1,-1,0.898,0.202371327,-0.402255657,1,0,0,9.414,Peridotite_rect,7,9.414,1,7,0,7,0,1,,,,,,,,,,,,,
5f73610089f920075dbb129b,TCR,2024-06-24_13h45.41.209,LearnStrategy,2023.2.3,Linux x86_64,59.88023952,4,1,9,-0.005841522,0.003990729,1,0,0,0.6975,rock_grid_rect_2,3,14,-1,-1,0.697,0.186639701,-0.24401386,1,0,0,8.1082,Diorite_rect,3,8.108,1,8,0,8,0,1,,,,,,,,,,,,,
5f73610089f920075dbb129b,TCR,2024-06-24_13h45.41.209,LearnStrategy,2023.2.3,Linux x86_64,59.88023952,4,1,10,-0.005841522,-0.008039343,1,0,0,0.7309,rock_grid_rect_2,7,15,-1,-1,0.731,0.180161943,-0.396703311,1,0,0,3.2256,Peridotite_rect,7,3.226,1,9,0,9,0,1,,,,,,,,,,,,,
5f73610089f920075dbb129b,TCR,2024-06-24_13h45.41.209,LearnStrategy,2023.2.3,Linux x86_64,59.88023952,4,1,11,0.020994796,-0.008964724,1,0,0,0.6637,rock_grid_rect_2,7,13,-1,-1,0.664,0.182012766,-0.41521111,1,0,0,3.0928,Peridotite_rect,7,3.093,1,10,0,10,0,1,,,,,,,,,,,,,
5f73610089f920075dbb129b,TCR,2024-06-24_13h45.41.209,LearnStrategy,2023.2.3,Linux x86_64,59.88023952,4,1,12,0.047831114,-0.017293243,1,0,0,0.731,rock_grid_rect_2,2,02,-1,-1,0.731,-0.116888378,-0.246790033,1,0,0,1.6103,Basalt_rect,2,1.61,1,11,0,11,0,1,,,,,,,,,,,,,
5f73610089f920075dbb129b,TCR,2024-06-24_13h45.41.209,LearnStrategy,2023.2.3,Linux x86_64,59.88023952,4,1,13,-0.028976255,-0.013591689,1,0,0,0.9979,rock_grid_rect_2,4,03,-1,-1,0.998,0.408733414,-0.251417029,1,0,0,4.1269,Gabbro_rect,4,4.127,1,12,0,12,0,1,,,,,,,,,,,,,
5f73610089f920075dbb129b,TCR,2024-06-24_13h45.41.209,LearnStrategy,2023.2.3,Linux x86_64,59.88023952,4,1,14,0.017293212,-0.004337759,1,0,0,0.847,rock_grid_rect_2,4,03,-1,-1,0.847,0.409658826,-0.231983818,1,0,0,1.1748,Gabbro_rect,4,1.175,1,13,0,13,0,1,,,,,,,,,,,,,
5f73610089f920075dbb129b,TCR,2024-06-24_13h45.41.209,LearnStrategy,2023.2.3,Linux x86_64,59.88023952,4,1,15,0.063562741,0.008617695,1,0,0,0.7478,rock_grid_rect_2,3,09,-1,-1,0.748,0.132967065,-0.231983818,1,0,0,5.9593,Diorite_rect,3,5.959,1,14,0,14,0,1,,,,,,,,,,,,,
5f73610089f920075dbb129b,TCR,2024-06-24_13h45.41.209,LearnStrategy,2023.2.3,Linux x86_64,59.88023952,4,1,16,-0.003065349,0.002139968,1,0,0,0.7469,rock_grid_rect_2,1,01,-1,-1,0.747,-0.352862895,-0.231983818,1,0,0,6.4248,Andesite_rect,1,6.425,1,15,0,15,0,1,,,,,,,,,,,,,
5f73610089f920075dbb129b,TCR,2024-06-24_13h45.41.209,LearnStrategy,2023.2.3,Linux x86_64,59.88023952,4,2,1,,,,,,,,5,16,,,,,,,,,,,5,1.092,1,,,,,,-0.349161372,-0.408733352,1,0,0,1.0924,Obsidian_rect,0,0,0,0,1,
5f73610089f920075dbb129b,TCR,2024-06-24_13h45.41.209,LearnStrategy,2023.2.3,Linux x86_64,59.88023952,4,2,2,,,,,,,,1,07,,,,,,,,,,,1,33.496,1,,,,,,-0.338982092,-0.238461514,1,0,0,33.496,Andesite_rect,1,0,1,0,1,
5f73610089f920075dbb129b,TCR,2024-06-24_13h45.41.209,LearnStrategy,2023.2.3,Linux x86_64,59.88023952,4,2,3,,,,,,,,1,09,,,,,,,,,,,1,12.357,1,,,,,,-0.396356281,-0.23290923,1,0,0,12.3567,Andesite_rect,2,0,2,0,1,
5f73610089f920075dbb129b,TCR,2024-06-24_13h45.41.209,LearnStrategy,2023.2.3,Linux x86_64,59.88023952,4,2,4,,,,,,,,3,13,,,,,,,,,,,6,29.473,0,,,,,,-0.083574303,-0.409658764,1,0,0,29.4734,Pegmatite_rect,3,0,3,0,1,
5f73610089f920075dbb129b,TCR,2024-06-24_13h45.41.209,LearnStrategy,2023.2.3,Linux x86_64,59.88023952,4,2,5,,,,,,,,7,10,,,,,,,,,,,7,2.442,1,,,,,,0.135743238,-0.402255657,1,0,0,2.4424,Peridotite_rect,4,0,4,0,1,
5f73610089f920075dbb129b,TCR,2024-06-24_13h45.41.209,LearnStrategy,2023.2.3,Linux x86_64,59.88023952,4,2,6,,,,,,,,4,12,,,,,,,,,,,4,5.556,1,,,,,,0.41613646,-0.252342379,1,0,0,5.556,Gabbro_rect,5,0,5,0,1,
5f73610089f920075dbb129b,TCR,2024-06-24_13h45.41.209,LearnStrategy,2023.2.3,Linux x86_64,59.88023952,4,2,7,,,,,,,,6,08,,,,,,,,,,,6,1.477,1,,,,,,-0.111336032,-0.398554072,1,0,0,1.4768,Pegmatite_rect,6,0,6,0,1,
5f73610089f920075dbb129b,TCR,2024-06-24_13h45.41.209,LearnStrategy,2023.2.3,Linux x86_64,59.88023952,4,2,8,,,,,,,,8,02,,,,,,,,,,,8,1.81,1,,,,,,0.392076376,-0.400404834,1,0,0,1.8104,Pumice_rect,7,0,7,0,1,
5f73610089f920075dbb129b,TCR,2024-06-24_13h45.41.209,LearnStrategy,2023.2.3,Linux x86_64,59.88023952,4,2,9,,,,,,,,2,16,,,,,,,,,,,2,1.243,1,,,,,,-0.123366074,-0.235685341,1,0,0,1.2429,Basalt_rect,8,0,8,0,1,
5f73610089f920075dbb129b,TCR,2024-06-24_13h45.41.209,LearnStrategy,2023.2.3,Linux x86_64,59.88023952,4,2,10,,,,,,,,2,01,,,,,,,,,,,2,1.226,1,,,,,,-0.123366074,-0.242163098,1,0,0,1.2255,Basalt_rect,9,0,9,0,1,
5f73610089f920075dbb129b,TCR,2024-06-24_13h45.41.209,LearnStrategy,2023.2.3,Linux x86_64,59.88023952,4,2,11,,,,,,,,5,12,,,,,,,,,,,5,0.976,1,,,,,,-0.405610181,-0.396703311,1,0,0,0.9762,Obsidian_rect,10,0,10,0,1,
5f73610089f920075dbb129b,TCR,2024-06-24_13h45.41.209,LearnStrategy,2023.2.3,Linux x86_64,59.88023952,4,2,12,,,,,,,,3,12,,,,,,,,,,,3,8.592,1,,,,,,0.187565112,-0.256969375,1,0,0,8.5925,Diorite_rect,11,0,11,0,1,
5f73610089f920075dbb129b,TCR,2024-06-24_13h45.41.209,LearnStrategy,2023.2.3,Linux x86_64,59.88023952,4,2,13,,,,,,,,4,16,,,,,,,,,,,2,1.686,0,,,,,,-0.096529694,-0.231058406,1,0,0,1.6858,Basalt_rect,12,0,12,0,1,
5f73610089f920075dbb129b,TCR,2024-06-24_13h45.41.209,LearnStrategy,2023.2.3,Linux x86_64,59.88023952,4,2,14,,,,,,,,7,02,,,,,,,,,,,7,1.943,1,,,,,,0.100578401,-0.380046273,1,0,0,1.9431,Peridotite_rect,13,0,13,0,1,
5f73610089f920075dbb129b,TCR,2024-06-24_13h45.41.209,LearnStrategy,2023.2.3,Linux x86_64,59.88023952,4,2,15,,,,,,,,6,06,,,,,,,,,,,6,6.999,1,,,,,,-0.108559859,-0.419838044,1,0,0,6.9992,Pegmatite_rect,14,0,14,0,1,
5f73610089f920075dbb129b,TCR,2024-06-24_13h45.41.209,LearnStrategy,2023.2.3,Linux x86_64,59.88023952,4,2,16,,,,,,,,8,03,,,,,,,,,,,8,1.082,1,,,,,,0.477212265,-0.382822446,1,0,0,1.0824,Pumice_rect,15,0,15,0,1,
5f73610089f920075dbb129b,TCR,2024-06-24_13h45.41.209,LearnStrategy,2023.2.3,Linux x86_64,59.88023952,5,1,1,0.165355729,-0.015442451,1,0,0,1.4474,rock_grid_rect_2,2,02,-1,-1,1.447,-0.137246939,-0.236610752,1,0,0,2.043,Basalt_rect,2,2.043,1,0,0,0,0,1,,,,,,,,,,,,,
5f73610089f920075dbb129b,TCR,2024-06-24_13h45.41.209,LearnStrategy,2023.2.3,Linux x86_64,59.88023952,5,1,2,-0.008617695,-0.008039343,1,0,0,0.7146,rock_grid_rect_2,3,07,-1,-1,0.715,0.191266635,-0.254193202,1,0,0,4.4085,Diorite_rect,3,4.409,1,1,0,1,0,1,,,,,,,,,,,,,
5f73610089f920075dbb129b,TCR,2024-06-24_13h45.41.209,LearnStrategy,2023.2.3,Linux x86_64,59.88023952,5,1,3,0.031174077,-0.01451707,1,0,0,0.9471,rock_grid_rect_2,7,12,-1,-1,0.947,0.169057251,-0.38744938,1,0,0,7.5082,Peridotite_rect,7,7.508,1,2,0,2,0,1,,,,,,,,,,,,,
5f73610089f920075dbb129b,TCR,2024-06-24_13h45.41.209,LearnStrategy,2023.2.3,Linux x86_64,59.88023952,5,1,4,0.016367862,-0.001561586,1,0,0,0.664,rock_grid_rect_2,4,03,-1,-1,0.664,0.379120861,-0.234759991,1,0,0,2.1596,Gabbro_rect,4,2.16,1,3,0,3,0,1,,,,,,,,,,,,,
5f73610089f920075dbb129b,TCR,2024-06-24_13h45.41.209,LearnStrategy,2023.2.3,Linux x86_64,59.88023952,5,1,5,0.022845558,0.016020833,1,0,0,0.6811,rock_grid_rect_2,5,02,-1,-1,0.681,-0.363967587,-0.394852549,1,0,0,1.01,Obsidian_rect,5,1.01,1,4,0,4,0,1,,,,,,,,,,,,,
5f73610089f920075dbb129b,TCR,2024-06-24_13h45.41.209,LearnStrategy,2023.2.3,Linux x86_64,59.88023952,5,1,6,0.013591689,0.003065349,1,0,0,0.7152,rock_grid_rect_2,6,09,-1,-1,0.715,-0.111336032,-0.383747858,1,0,0,2.1653,Pegmatite_rect,6,2.165,1,5,0,5,0,1,,,,,,,,,,,,,
5f73610089f920075dbb129b,TCR,2024-06-24_13h45.41.209,LearnStrategy,2023.2.3,Linux x86_64,59.88023952,5,1,7,0.024696381,-0.016367831,1,0,0,0.6803,rock_grid_rect_2,7,14,-1,-1,0.68,0.120936961,-0.399479484,1,0,0,11.9078,Peridotite_rect,7,11.908,1,6,0,6,0,1,,,,,,,,,,,,,
5f73610089f920075dbb129b,TCR,2024-06-24_13h45.41.209,LearnStrategy,2023.2.3,Linux x86_64,59.88023952,5,1,8,-0.005841522,-0.023770969,1,0,0,0.7137,rock_grid_rect_2,3,10,-1,-1,0.714,0.096876816,-0.236610752,1,0,0,5.8097,Diorite_rect,3,5.81,1,7,0,7,0,1,,,,,,,,,,,,,
5f73610089f920075dbb129b,TCR,2024-06-24_13h45.41.209,LearnStrategy,2023.2.3,Linux x86_64,59.88023952,5,1,9,-0.013244629,-0.020069385,1,0,0,0.6806,rock_grid_rect_2,3,16,-1,-1,0.681,0.171833486,-0.24308851,1,0,0,5.4413,Diorite_rect,3,5.441,1,8,0,8,0,1,,,,,,,,,,,,,
5f73610089f920075dbb129b,TCR,2024-06-24_13h45.41.209,LearnStrategy,2023.2.3,Linux x86_64,59.88023952,5,1,10,-0.035454013,-0.00526317,1,0,0,0.6309,rock_grid_rect_2,4,01,-1,-1,0.631,0.483690022,-0.247715444,1,0,0,11.891,Gabbro_rect,4,11.891,1,9,0,9,0,1,,,,,,,,,,,,,
5f73610089f920075dbb129b,TCR,2024-06-24_13h45.41.209,LearnStrategy,2023.2.3,Linux x86_64,59.88023952,5,1,11,0.032099488,-0.004337759,1,0,0,0.7311,rock_grid_rect_2,4,15,-1,-1,0.731,0.380971685,-0.242163098,1,0,0,5.2751,Gabbro_rect,4,5.275,1,10,0,10,0,1,,,,,,,,,,,,,
5f73610089f920075dbb129b,TCR,2024-06-24_13h45.41.209,LearnStrategy,2023.2.3,Linux x86_64,59.88023952,5,1,12,-0.083574303,0.000289176,1,0,0,0.6968,rock_grid_rect_2,2,09,-1,-1,0.697,-0.16685943,-0.23290923,1,0,0,1.1996,Basalt_rect,2,1.2,1,11,0,11,0,1,,,,,,,,,,,,,
5f73610089f920075dbb129b,TCR,2024-06-24_13h45.41.209,LearnStrategy,2023.2.3,Linux x86_64,59.88023952,5,1,13,-0.018796975,-0.007113932,1,0,0,0.7642,rock_grid_rect_2,1,01,-1,-1,0.764,-0.388027763,-0.24401386,1,0,0,4.8159,Andesite_rect,1,4.816,1,12,0,12,0,1,,,,,,,,,,,,,
5f73610089f920075dbb129b,TCR,2024-06-24_13h45.41.209,LearnStrategy,2023.2.3,Linux x86_64,59.88023952,5,1,14,-0.00491611,-0.000636205,1,0,0,0.7311,rock_grid_rect_2,8,15,-1,-1,0.731,0.451301358,-0.404106418,1,0,0,1.3392,Pumice_rect,8,1.339,1,13,0,13,0,1,,,,,,,,,,,,,
5f73610089f920075dbb129b,TCR,2024-06-24_13h45.41.209,LearnStrategy,2023.2.3,Linux x86_64,59.88023952,5,1,15,0.002486997,-0.003412378,1,0,0,0.7642,rock_grid_rect_2,6,13,-1,-1,0.764,-0.104858275,-0.38744938,1,0,0,2.427,Pegmatite_rect,6,2.427,1,14,0,14,0,1,,,,,,,,,,,,,
5f73610089f920075dbb129b,TCR,2024-06-24_13h45.41.209,LearnStrategy,2023.2.3,Linux x86_64,59.88023952,5,1,16,-0.000289176,0.01417004,1,0,0,0.8374,rock_grid_rect_2,4,05,-1,-1,0.837,0.394852488,-0.231058406,1,0,0,17.6544,Gabbro_rect,4,17.654,1,15,0,15,0,1,,,,,,,,,,,,,
5f73610089f920075dbb129b,TCR,2024-06-24_13h45.41.209,LearnStrategy,2023.2.3,Linux x86_64,59.88023952,5,2,1,,,,,,,,2,12,,,,,,,,,,,8,1.239,0,,,,,,0.37819545,-0.385598619,1,0,0,1.2392,Pumice_rect,0,0,0,0,1,
5f73610089f920075dbb129b,TCR,2024-06-24_13h45.41.209,LearnStrategy,2023.2.3,Linux x86_64,59.88023952,5,2,2,,,,,,,,7,04,,,,,,,,,,,4,22.084,0,,,,,,0.380971685,-0.255118552,1,0,0,22.0836,Gabbro_rect,1,0,1,0,1,
5f73610089f920075dbb129b,TCR,2024-06-24_13h45.41.209,LearnStrategy,2023.2.3,Linux x86_64,59.88023952,5,2,3,,,,,,,,8,16,,,,,,,,,,,8,1.224,1,,,,,,0.360613124,-0.406882591,1,0,0,1.224,Pumice_rect,2,0,2,0,1,
5f73610089f920075dbb129b,TCR,2024-06-24_13h45.41.209,LearnStrategy,2023.2.3,Linux x86_64,59.88023952,5,2,4,,,,,,,,6,10,,,,,,,,,,,6,5.895,1,,,,,,-0.073395022,-0.407808003,1,0,0,5.8951,Pegmatite_rect,3,0,3,0,1,
5f73610089f920075dbb129b,TCR,2024-06-24_13h45.41.209,LearnStrategy,2023.2.3,Linux x86_64,59.88023952,5,2,5,,,,,,,,7,06,,,,,,,,,,,7,3.213,1,,,,,,0.07096591,-0.401330245,1,0,0,3.2126,Peridotite_rect,4,0,4,0,1,
5f73610089f920075dbb129b,TCR,2024-06-24_13h45.41.209,LearnStrategy,2023.2.3,Linux x86_64,59.88023952,5,2,6,,,,,,,,5,04,,,,,,,,,,,5,0.999,1,,,,,,-0.37599769,-0.412434937,1,0,0,0.9991,Obsidian_rect,5,0,5,0,1,
5f73610089f920075dbb129b,TCR,2024-06-24_13h45.41.209,LearnStrategy,2023.2.3,Linux x86_64,59.88023952,5,2,7,,,,,,,,4,14,,,,,,,,,,,4,2.042,1,,,,,,0.343030675,-0.26344707,1,0,0,2.0415,Gabbro_rect,6,0,6,0,1,
5f73610089f920075dbb129b,TCR,2024-06-24_13h45.41.209,LearnStrategy,2023.2.3,Linux x86_64,59.88023952,5,2,8,,,,,,,,8,14,,,,,,,,,,,8,2.201,1,,,,,,0.408733414,-0.409658764,1,0,0,2.2014,Pumice_rect,7,0,7,0,1,
5f73610089f920075dbb129b,TCR,2024-06-24_13h45.41.209,LearnStrategy,2023.2.3,Linux x86_64,59.88023952,5,2,9,,,,,,,,1,14,,,,,,,,,,,1,25.487,1,,,,,,-0.343609026,-0.239386925,1,0,0,25.4874,Andesite_rect,8,0,8,0,1,
5f73610089f920075dbb129b,TCR,2024-06-24_13h45.41.209,LearnStrategy,2023.2.3,Linux x86_64,59.88023952,5,2,10,,,,,,,,1,16,,,,,,,,,,,1,2.792,1,,,,,,-0.399132454,-0.254193202,1,0,0,2.7917,Andesite_rect,9,0,9,0,1,
5f73610089f920075dbb129b,TCR,2024-06-24_13h45.41.209,LearnStrategy,2023.2.3,Linux x86_64,59.88023952,5,2,11,,,,,,,,4,10,,,,,,,,,,,4,10.391,1,,,,,,0.433718909,-0.265297894,1,0,0,10.3909,Gabbro_rect,10,0,10,0,1,
5f73610089f920075dbb129b,TCR,2024-06-24_13h45.41.209,LearnStrategy,2023.2.3,Linux x86_64,59.88023952,5,2,12,,,,,,,,3,08,,,,,,,,,,,7,17.339,0,,,,,,0.163504906,-0.396703311,1,0,0,17.3392,Peridotite_rect,11,0,11,0,1,
5f73610089f920075dbb129b,TCR,2024-06-24_13h45.41.209,LearnStrategy,2023.2.3,Linux x86_64,59.88023952,5,2,13,,,,,,,,5,09,,,,,,,,,,,5,1.012,1,,,,,,-0.326951988,-0.380971685,1,0,0,1.0123,Obsidian_rect,12,0,12,0,1,
5f73610089f920075dbb129b,TCR,2024-06-24_13h45.41.209,LearnStrategy,2023.2.3,Linux x86_64,59.88023952,5,2,14,,,,,,,,6,05,,,,,,,,,,,5,9.208,0,,,,,,-0.36581841,-0.40595718,1,0,0,9.2083,Obsidian_rect,13,0,13,0,1,
5f73610089f920075dbb129b,TCR,2024-06-24_13h45.41.209,LearnStrategy,2023.2.3,Linux x86_64,59.88023952,5,2,15,,,,,,,,2,04,,,,,,,,,,,2,1.141,1,,,,,,-0.151127804,-0.26344707,1,0,0,1.1413,Basalt_rect,14,0,14,0,1,
5f73610089f920075dbb129b,TCR,2024-06-24_13h45.41.209,LearnStrategy,2023.2.3,Linux x86_64,59.88023952,5,2,16,,,,,,,,3,15,,,,,,,,,,,3,9.383,1,,,,,,0.171833486,-0.237536164,1,0,0,9.3834,Diorite_rect,15,0,15,0,1,
5f73610089f920075dbb129b,TCR,2024-06-24_13h45.41.209,LearnStrategy,2023.2.3,Linux x86_64,59.88023952,6,1,1,0.025621731,-0.009890105,1,0,0,1.265,rock_grid_rect_2,2,06,-1,-1,1.265,-0.103932925,-0.237536164,1,0,0,2.1596,Basalt_rect,2,2.16,1,0,0,0,0,1,,,,,,,,,,,,,
5f73610089f920075dbb129b,TCR,2024-06-24_13h45.41.209,LearnStrategy,2023.2.3,Linux x86_64,59.88023952,6,1,2,-0.006766933,-0.00526317,1,0,0,0.7137,rock_grid_rect_2,3,16,-1,-1,0.714,0.160728794,-0.236610752,1,0,0,1.7093,Diorite_rect,3,1.709,1,1,0,1,0,1,,,,,,,,,,,,,
5f73610089f920075dbb129b,TCR,2024-06-24_13h45.41.209,LearnStrategy,2023.2.3,Linux x86_64,59.88023952,6,1,3,0.016367862,-0.00526317,1,0,0,0.6488,rock_grid_rect_2,5,14,-1,-1,0.649,-0.376923071,-0.393927138,1,0,0,1.0927,Obsidian_rect,5,1.093,1,2,0,2,0,1,,,,,,,,,,,,,
5f73610089f920075dbb129b,TCR,2024-06-24_13h45.41.209,LearnStrategy,2023.2.3,Linux x86_64,59.88023952,6,1,4,0.076518194,-0.000636205,1,0,0,0.5478,rock_grid_rect_2,3,10,-1,-1,0.548,0.136668588,-0.233834579,1,0,0,3.7939,Diorite_rect,3,3.794,1,3,0,3,0,1,,,,,,,,,,,,,
5f73610089f920075dbb129b,TCR,2024-06-24_13h45.41.209,LearnStrategy,2023.2.3,Linux x86_64,59.88023952,6,1,5,0.003412409,-0.007113932,1,0,0,1.0296,rock_grid_rect_2,7,07,-1,-1,1.03,0.078369017,-0.413360349,1,0,0,2.4943,Peridotite_rect,7,2.494,1,4,0,4,0,1,,,,,,,,,,,,,
5f73610089f920075dbb129b,TCR,2024-06-24_13h45.41.209,LearnStrategy,2023.2.3,Linux x86_64,59.88023952,6,1,6,0.015442451,-0.008039343,1,0,0,0.6646,rock_grid_rect_2,7,12,-1,-1,0.665,0.159803383,-0.411509525,1,0,0,3.5271,Peridotite_rect,7,3.527,1,5,0,5,0,1,,,,,,,,,,,,,
5f73610089f920075dbb129b,TCR,2024-06-24_13h45.41.209,LearnStrategy,2023.2.3,Linux x86_64,59.88023952,6,1,7,-0.007692283,0.003065349,1,0,0,0.6803,rock_grid_rect_2,4,01,-1,-1,0.68,0.433718909,-0.248640856,1,0,0,2.3551,Gabbro_rect,4,2.355,1,6,0,6,0,1,,,,,,,,,,,,,
5f73610089f920075dbb129b,TCR,2024-06-24_13h45.41.209,LearnStrategy,2023.2.3,Linux x86_64,59.88023952,6,1,8,0.055234222,-0.003412378,1,0,0,2.1806,rock_grid_rect_2,1,02,-1,-1,2.181,-0.371370725,-0.237536164,1,0,0,5.6437,Andesite_rect,1,5.644,1,7,0,7,0,1,,,,,,,,,,,,,
5f73610089f920075dbb129b,TCR,2024-06-24_13h45.41.209,LearnStrategy,2023.2.3,Linux x86_64,59.88023952,6,1,9,0.018218623,0.005841522,1,0,0,0.6816,rock_grid_rect_2,6,15,-1,-1,0.682,-0.103007514,-0.406882591,1,0,0,1.3762,Pegmatite_rect,6,1.376,1,8,0,8,0,1,,,,,,,,,,,,,
5f73610089f920075dbb129b,TCR,2024-06-24_13h45.41.209,LearnStrategy,2023.2.3,Linux x86_64,59.88023952,6,1,10,0.023770969,-0.011740897,1,0,0,0.6308,rock_grid_rect_2,4,15,-1,-1,0.631,0.442972778,-0.268074005,1,0,0,2.1038,Gabbro_rect,4,2.104,1,9,0,9,0,1,,,,,,,,,,,,,
5f73610089f920075dbb129b,TCR,2024-06-24_13h45.41.209,LearnStrategy,2023.2.3,Linux x86_64,59.88023952,6,1,11,0.008964755,0.01324466,1,0,0,0.581,rock_grid_rect_2,8,05,-1,-1,0.581,0.418912695,-0.380046273,1,0,0,1.004,Pumice_rect,8,1.004,1,10,0,10,0,1,,,,,,,,,,,,,
5f73610089f920075dbb129b,TCR,2024-06-24_13h45.41.209,LearnStrategy,2023.2.3,Linux x86_64,59.88023952,6,1,12,0.022845558,0.001214587,1,0,0,0.7146,rock_grid_rect_2,2,02,-1,-1,0.715,-0.12891842,-0.256969375,1,0,0,1.2803,Basalt_rect,2,1.28,1,11,0,11,0,1,,,,,,,,,,,,,
5f73610089f920075dbb129b,TCR,2024-06-24_13h45.41.209,LearnStrategy,2023.2.3,Linux x86_64,59.88023952,6,1,13,-0.020647798,-0.001561586,1,0,0,0.6815,rock_grid_rect_2,3,16,-1,-1,0.682,0.158877971,-0.266223243,1,0,0,3.4596,Diorite_rect,3,3.46,1,12,0,12,0,1,,,,,,,,,,,,,
5f73610089f920075dbb129b,TCR,2024-06-24_13h45.41.209,LearnStrategy,2023.2.3,Linux x86_64,59.88023952,6,1,14,0.063562741,0.01324466,1,0,0,0.5308,rock_grid_rect_2,2,08,-1,-1,0.531,-0.104858275,-0.230133057,1,0,0,1.4278,Basalt_rect,2,1.428,1,13,0,13,0,1,,,,,,,,,,,,,
5f73610089f920075dbb129b,TCR,2024-06-24_13h45.41.209,LearnStrategy,2023.2.3,Linux x86_64,59.88023952,6,1,15,0.009890105,0.002139968,1,0,0,0.5317,rock_grid_rect_2,7,15,-1,-1,0.532,0.105205335,-0.393001726,1,0,0,1.3972,Peridotite_rect,7,1.397,1,14,0,14,0,1,,,,,,,,,,,,,
5f73610089f920075dbb129b,TCR,2024-06-24_13h45.41.209,LearnStrategy,2023.2.3,Linux x86_64,59.88023952,6,1,16,-0.008617695,0.003990729,1,0,0,0.6153,rock_grid_rect_2,6,03,-1,-1,0.615,-0.113186794,-0.385598619,1,0,0,1.0809,Pegmatite_rect,6,1.081,1,15,0,15,0,1,,,,,,,,,,,,,
5f73610089f920075dbb129b,TCR,2024-06-24_13h45.41.209,LearnStrategy,2023.2.3,Linux x86_64,59.88023952,6,2,1,,,,,,,,2,11,,,,,,,,,,,8,1.558,0,,,,,,0.430017386,-0.421688929,1,0,0,1.5583,Pumice_rect,0,0,0,0,1,
5f73610089f920075dbb129b,TCR,2024-06-24_13h45.41.209,LearnStrategy,2023.2.3,Linux x86_64,59.88023952,6,2,2,,,,,,,,3,06,,,,,,,,,,,3,20.376,1,,,,,,0.163504906,-0.24401386,1,0,0,20.3761,Diorite_rect,1,0,1,0,1,
5f73610089f920075dbb129b,TCR,2024-06-24_13h45.41.209,LearnStrategy,2023.2.3,Linux x86_64,59.88023952,6,2,3,,,,,,,,6,11,,,,,,,,,,,6,2.042,1,,,,,,-0.12799307,-0.398554072,1,0,0,2.0421,Pegmatite_rect,2,0,2,0,1,
5f73610089f920075dbb129b,TCR,2024-06-24_13h45.41.209,LearnStrategy,2023.2.3,Linux x86_64,59.88023952,6,2,4,,,,,,,,2,05,,,,,,,,,,,2,1.175,1,,,,,,-0.130769243,-0.24401386,1,0,0,1.1755,Basalt_rect,3,0,3,0,1,
5f73610089f920075dbb129b,TCR,2024-06-24_13h45.41.209,LearnStrategy,2023.2.3,Linux x86_64,59.88023952,6,2,5,,,,,,,,5,06,,,,,,,,,,,5,1.436,1,,,,,,-0.430595707,-0.412434937,1,0,0,1.4361,Obsidian_rect,4,0,4,0,1,
5f73610089f920075dbb129b,TCR,2024-06-24_13h45.41.209,LearnStrategy,2023.2.3,Linux x86_64,59.88023952,6,2,6,,,,,,,,8,10,,,,,,,,,,,8,1.459,1,,,,,,0.363389235,-0.380046273,1,0,0,1.4592,Pumice_rect,5,0,5,0,1,
5f73610089f920075dbb129b,TCR,2024-06-24_13h45.41.209,LearnStrategy,2023.2.3,Linux x86_64,59.88023952,6,2,7,,,,,,,,5,07,,,,,,,,,,,5,0.977,1,,,,,,-0.408386354,-0.38744938,1,0,0,0.977,Obsidian_rect,6,0,6,0,1,
5f73610089f920075dbb129b,TCR,2024-06-24_13h45.41.209,LearnStrategy,2023.2.3,Linux x86_64,59.88023952,6,2,8,,,,,,,,4,09,,,,,,,,,,,4,11.69,1,,,,,,0.37634475,-0.233834579,1,0,0,11.6898,Gabbro_rect,7,0,7,0,1,
5f73610089f920075dbb129b,TCR,2024-06-24_13h45.41.209,LearnStrategy,2023.2.3,Linux x86_64,59.88023952,6,2,9,,,,,,,,1,03,,,,,,,,,,,4,39.659,0,,,,,,0.42631574,-0.25326779,1,0,0,39.6595,Gabbro_rect,8,0,8,0,1,
5f73610089f920075dbb129b,TCR,2024-06-24_13h45.41.209,LearnStrategy,2023.2.3,Linux x86_64,59.88023952,6,2,10,,,,,,,,4,11,,,,,,,,,,,4,9.375,1,,,,,,0.37634475,-0.231983818,1,0,0,9.3754,Gabbro_rect,9,0,9,0,1,
5f73610089f920075dbb129b,TCR,2024-06-24_13h45.41.209,LearnStrategy,2023.2.3,Linux x86_64,59.88023952,6,2,11,,,,,,,,7,16,,,,,,,,,,,4,25.619,0,,,,,,0.410584114,-0.235685341,1,0,0,25.6188,Gabbro_rect,10,0,10,0,1,
5f73610089f920075dbb129b,TCR,2024-06-24_13h45.41.209,LearnStrategy,2023.2.3,Linux x86_64,59.88023952,6,2,12,,,,,,,,6,16,,,,,,,,,,,6,1.293,1,,,,,,-0.140023112,-0.414285698,1,0,0,1.2935,Pegmatite_rect,11,0,11,0,1,
5f73610089f920075dbb129b,TCR,2024-06-24_13h45.41.209,LearnStrategy,2023.2.3,Linux x86_64,59.88023952,6,2,13,,,,,,,,7,05,,,,,,,,,,,7,6.818,1,,,,,,0.127414719,-0.408733352,1,0,0,6.8178,Peridotite_rect,12,0,12,0,1,
5f73610089f920075dbb129b,TCR,2024-06-24_13h45.41.209,LearnStrategy,2023.2.3,Linux x86_64,59.88023952,6,2,14,,,,,,,,1,11,,,,,,,,,,,2,12.992,0,,,,,,-0.091902822,-0.254193202,1,0,0,12.992,Basalt_rect,13,0,13,0,1,
5f73610089f920075dbb129b,TCR,2024-06-24_13h45.41.209,LearnStrategy,2023.2.3,Linux x86_64,59.88023952,6,2,15,,,,,,,,8,09,,,,,,,,,,,8,1.116,1,,,,,,0.393927076,-0.393001726,1,0,0,1.1162,Pumice_rect,14,0,14,0,1,
5f73610089f920075dbb129b,TCR,2024-06-24_13h45.41.209,LearnStrategy,2023.2.3,Linux x86_64,59.88023952,6,2,16,,,,,,,,3,02,,,,,,,,,,,1,11.693,0,,,,,,-0.413013288,-0.239386925,1,0,0,11.693,Andesite_rect,15,0,15,0,1,
5f73610089f920075dbb129b,TCR,2024-06-24_13h45.41.209,LearnStrategy,2023.2.3,Linux x86_64,59.88023952,7,1,1,0.000636298,0.008617695,1,0,0,0.9148,rock_grid_rect_2,1,05,-1,-1,0.915,-0.377848451,-0.233834579,1,0,0,1.4428,Andesite_rect,1,1.443,1,0,0,0,0,1,,,,,,,,,,,,,
5f73610089f920075dbb129b,TCR,2024-06-24_13h45.41.209,LearnStrategy,2023.2.3,Linux x86_64,59.88023952,7,1,2,0.039502596,-0.000636205,1,0,0,0.5483,rock_grid_rect_2,4,01,-1,-1,0.548,0.449450535,-0.234759991,1,0,0,1.4797,Gabbro_rect,4,1.48,1,1,0,1,0,1,,,,,,,,,,,,,
5f73610089f920075dbb129b,TCR,2024-06-24_13h45.41.209,LearnStrategy,2023.2.3,Linux x86_64,59.88023952,7,1,3,0.020069385,-0.00526317,1,0,0,0.531,rock_grid_rect_2,7,15,-1,-1,0.531,0.103354574,-0.393927138,1,0,0,1.6261,Peridotite_rect,7,1.626,1,2,0,2,0,1,,,,,,,,,,,,,
5f73610089f920075dbb129b,TCR,2024-06-24_13h45.41.209,LearnStrategy,2023.2.3,Linux x86_64,59.88023952,7,1,4,0.014517039,0.001214587,1,0,0,0.6479,rock_grid_rect_2,3,16,-1,-1,0.648,0.126489307,-0.229207645,1,0,0,2.0924,Diorite_rect,3,2.092,1,3,0,3,0,1,,,,,,,,,,,,,
5f73610089f920075dbb129b,TCR,2024-06-24_13h45.41.209,LearnStrategy,2023.2.3,Linux x86_64,59.88023952,7,1,5,0.04412953,-0.002486997,1,0,0,0.9317,rock_grid_rect_2,2,09,-1,-1,0.932,-0.043782531,-0.265297894,1,0,0,1.5165,Basalt_rect,2,1.517,1,4,0,4,0,1,,,,,,,,,,,,,
5f73610089f920075dbb129b,TCR,2024-06-24_13h45.41.209,LearnStrategy,2023.2.3,Linux x86_64,59.88023952,7,1,6,0.062637391,-0.000636205,1,0,0,0.6318,rock_grid_rect_2,2,10,-1,-1,0.632,-0.181665706,-0.237536164,1,0,0,1.5754,Basalt_rect,2,1.575,1,5,0,5,0,1,,,,,,,,,,,,,
5f73610089f920075dbb129b,TCR,2024-06-24_13h45.41.209,LearnStrategy,2023.2.3,Linux x86_64,59.88023952,7,1,7,0.045980353,-0.002486997,1,0,0,0.5649,rock_grid_rect_2,7,07,-1,-1,0.565,0.12926548,-0.388374792,1,0,0,1.6883,Peridotite_rect,7,1.688,1,6,0,6,0,1,,,,,,,,,,,,,
5f73610089f920075dbb129b,TCR,2024-06-24_13h45.41.209,LearnStrategy,2023.2.3,Linux x86_64,59.88023952,7,1,8,0.018218623,0.017871594,1,0,0,0.5483,rock_grid_rect_2,8,06,-1,-1,0.548,0.380046273,-0.40595718,1,0,0,1.6927,Pumice_rect,8,1.693,1,7,0,7,0,1,,,,,,,,,,,,,
5f73610089f920075dbb129b,TCR,2024-06-24_13h45.41.209,LearnStrategy,2023.2.3,Linux x86_64,59.88023952,7,1,9,0.04320418,-0.000636205,1,0,0,0.5812,rock_grid_rect_2,1,10,-1,-1,0.581,-0.382475417,-0.252342379,1,0,0,1.5685,Andesite_rect,1,1.568,1,8,0,8,0,1,,,,,,,,,,,,,
5f73610089f920075dbb129b,TCR,2024-06-24_13h45.41.209,LearnStrategy,2023.2.3,Linux x86_64,59.88023952,7,1,10,0.006188582,-0.007113932,1,0,0,0.6307,rock_grid_rect_2,4,13,-1,-1,0.631,0.408733414,-0.260670897,1,0,0,1.1765,Gabbro_rect,4,1.177,1,9,0,9,0,1,,,,,,,,,,,,,
5f73610089f920075dbb129b,TCR,2024-06-24_13h45.41.209,LearnStrategy,2023.2.3,Linux x86_64,59.88023952,7,1,11,0.038577246,0.008617695,1,0,0,0.5303,rock_grid_rect_2,3,09,-1,-1,0.53,0.115384615,-0.245864683,1,0,0,2.2965,Diorite_rect,3,2.297,1,10,0,10,0,1,,,,,,,,,,,,,
5f73610089f920075dbb129b,TCR,2024-06-24_13h45.41.209,LearnStrategy,2023.2.3,Linux x86_64,59.88023952,7,1,12,-0.003065349,0.007692314,1,0,0,0.5315,rock_grid_rect_2,2,08,-1,-1,0.531,-0.114112205,-0.24401386,1,0,0,1.6182,Basalt_rect,2,1.618,1,11,0,11,0,1,,,,,,,,,,,,,
5f73610089f920075dbb129b,TCR,2024-06-24_13h45.41.209,LearnStrategy,2023.2.3,Linux x86_64,59.88023952,7,1,13,0.040428007,0.017871594,1,0,0,0.6818,rock_grid_rect_2,6,07,-1,-1,0.682,-0.126142247,-0.400404834,1,0,0,1.2822,Pegmatite_rect,6,1.282,1,12,0,12,0,1,,,,,,,,,,,,,
5f73610089f920075dbb129b,TCR,2024-06-24_13h45.41.209,LearnStrategy,2023.2.3,Linux x86_64,59.88023952,7,1,14,0.013591689,-0.012666278,1,0,0,0.5651,rock_grid_rect_2,7,08,-1,-1,0.565,0.191266635,-0.391150965,1,0,0,1.4266,Peridotite_rect,7,1.427,1,13,0,13,0,1,,,,,,,,,,,,,
5f73610089f920075dbb129b,TCR,2024-06-24_13h45.41.209,LearnStrategy,2023.2.3,Linux x86_64,59.88023952,7,1,15,-0.022498559,0.000289176,1,0,0,0.4981,rock_grid_rect_2,1,04,-1,-1,0.498,0.448525124,-0.255118552,1,0,0,5.3923,Gabbro_rect,4,5.392,0,14,0,14,0,1,,,,,,,,,,,,,
5f73610089f920075dbb129b,TCR,2024-06-24_13h45.41.209,LearnStrategy,2023.2.3,Linux x86_64,59.88023952,7,1,16,0.003412409,0.001214587,1,0,0,0.9151,rock_grid_rect_2,3,14,-1,-1,0.915,0.137593999,-0.251417029,1,0,0,2.5924,Diorite_rect,3,2.592,1,15,0,15,0,1,,,,,,,,,,,,,
5f73610089f920075dbb129b,TCR,2024-06-24_13h45.41.209,LearnStrategy,2023.2.3,Linux x86_64,59.88023952,7,2,1,,,,,,,,3,08,,,,,,,,,,,3,5.244,1,,,,,,0.123713134,-0.247715444,1,0,0,5.244,Diorite_rect,0,0,0,0,1,
5f73610089f920075dbb129b,TCR,2024-06-24_13h45.41.209,LearnStrategy,2023.2.3,Linux x86_64,59.88023952,7,2,2,,,,,,,,6,06,,,,,,,,,,,6,60.031,1,,,,,,-0.091902822,-0.414285698,1,0,0,60.0313,Pegmatite_rect,1,0,1,0,1,
5f73610089f920075dbb129b,TCR,2024-06-24_13h45.41.209,LearnStrategy,2023.2.3,Linux x86_64,59.88023952,7,2,3,,,,,,,,4,16,,,,,,,,,,,2,1.284,0,,,,,,-0.106709098,-0.246790033,1,0,0,1.284,Basalt_rect,2,0,2,0,1,
5f73610089f920075dbb129b,TCR,2024-06-24_13h45.41.209,LearnStrategy,2023.2.3,Linux x86_64,59.88023952,7,2,4,,,,,,,,5,07,,,,,,,,,,,5,1.043,1,,,,,,-0.351012133,-0.409658764,1,0,0,1.043,Obsidian_rect,3,0,3,0,1,
5f73610089f920075dbb129b,TCR,2024-06-24_13h45.41.209,LearnStrategy,2023.2.3,Linux x86_64,59.88023952,7,2,5,,,,,,,,5,06,,,,,,,,,,,5,0.812,1,,,,,,-0.357489891,-0.400404834,1,0,0,0.8123,Obsidian_rect,4,0,4,0,1,
5f73610089f920075dbb129b,TCR,2024-06-24_13h45.41.209,LearnStrategy,2023.2.3,Linux x86_64,59.88023952,7,2,6,,,,,,,,1,03,,,,,,,,,,,1,6.168,1,,,,,,-0.38617697,-0.242163098,1,0,0,6.1675,Andesite_rect,5,0,5,0,1,
5f73610089f920075dbb129b,TCR,2024-06-24_13h45.41.209,LearnStrategy,2023.2.3,Linux x86_64,59.88023952,7,2,7,,,,,,,,2,12,,,,,,,,,,,8,1.091,0,,,,,,0.332851394,-0.381897034,1,0,0,1.0914,Pumice_rect,6,0,6,0,1,
5f73610089f920075dbb129b,TCR,2024-06-24_13h45.41.209,LearnStrategy,2023.2.3,Linux x86_64,59.88023952,7,2,8,,,,,,,,2,01,,,,,,,,,,,2,1.085,1,,,,,,-0.13817235,-0.257894724,1,0,0,1.0852,Basalt_rect,7,0,7,0,1,
5f73610089f920075dbb129b,TCR,2024-06-24_13h45.41.209,LearnStrategy,2023.2.3,Linux x86_64,59.88023952,7,2,9,,,,,,,,4,09,,,,,,,,,,,4,8.959,1,,,,,,0.450375947,-0.231983818,1,0,0,8.9586,Gabbro_rect,8,0,8,0,1,
5f73610089f920075dbb129b,TCR,2024-06-24_13h45.41.209,LearnStrategy,2023.2.3,Linux x86_64,59.88023952,7,2,10,,,,,,,,6,16,,,,,,,,,,,6,1.101,1,,,,,,-0.104858275,-0.396703311,1,0,0,1.101,Pegmatite_rect,9,0,9,0,1,
5f73610089f920075dbb129b,TCR,2024-06-24_13h45.41.209,LearnStrategy,2023.2.3,Linux x86_64,59.88023952,7,2,11,,,,,,,,8,09,,,,,,,,,,,8,0.995,1,,,,,,0.451301358,-0.401330245,1,0,0,0.9947,Pumice_rect,10,0,10,0,1,
5f73610089f920075dbb129b,TCR,2024-06-24_13h45.41.209,LearnStrategy,2023.2.3,Linux x86_64,59.88023952,7,2,12,,,,,,,,8,02,,,,,,,,,,,8,0.977,1,,,,,,0.450375947,-0.401330245,1,0,0,0.977,Pumice_rect,11,0,11,0,1,
5f73610089f920075dbb129b,TCR,2024-06-24_13h45.41.209,LearnStrategy,2023.2.3,Linux x86_64,59.88023952,7,2,13,,,,,,,,3,13,,,,,,,,,,,3,2.976,1,,,,,,0.15795256,-0.259745548,1,0,0,2.976,Diorite_rect,12,0,12,0,1,
5f73610089f920075dbb129b,TCR,2024-06-24_13h45.41.209,LearnStrategy,2023.2.3,Linux x86_64,59.88023952,7,2,14,,,,,,,,7,05,,,,,,,,,,,7,2.618,1,,,,,,0.134817826,-0.413360349,1,0,0,2.618,Peridotite_rect,13,0,13,0,1,
5f73610089f920075dbb129b,TCR,2024-06-24_13h45.41.209,LearnStrategy,2023.2.3,Linux x86_64,59.88023952,7,2,15,,,,,,,,1,07,,,,,,,,,,,1,5.407,1,,,,,,-0.359340652,-0.270850178,1,0,0,5.4075,Andesite_rect,14,0,14,0,1,
5f73610089f920075dbb129b,TCR,2024-06-24_13h45.41.209,LearnStrategy,2023.2.3,Linux x86_64,59.88023952,7,2,16,,,,,,,,7,10,,,,,,,,,,,7,1.49,1,,,,,,0.117235377,-0.396703311,1,0,0,1.4901,Peridotite_rect,15,0,15,0,1,
5f73610089f920075dbb129b,TCR,2024-06-24_13h45.41.209,LearnStrategy,2023.2.3,Linux x86_64,59.88023952,8,1,1,-0.024349321,0.003990729,1,0,0,1.1322,rock_grid_rect_2,7,14,-1,-1,1.132,0.114459204,-0.397628722,1,0,0,3.0948,Peridotite_rect,7,3.095,1,0,0,0,0,1,,,,,,,,,,,,,
5f73610089f920075dbb129b,TCR,2024-06-24_13h45.41.209,LearnStrategy,2023.2.3,Linux x86_64,59.88023952,8,1,2,-0.020647798,-0.006188551,1,0,0,0.698,rock_grid_rect_2,2,08,-1,-1,0.698,-0.087275887,-0.229207645,1,0,0,1.3148,Basalt_rect,2,1.315,1,1,0,1,0,1,,,,,,,,,,,,,
5f73610089f920075dbb129b,TCR,2024-06-24_13h45.41.209,LearnStrategy,2023.2.3,Linux x86_64,59.88023952,8,1,3,0.042278769,0.012319248,1,0,0,0.8977,rock_grid_rect_2,4,13,-1,-1,0.898,0.34025444,-0.249566206,1,0,0,1.9634,Gabbro_rect,4,1.963,1,2,0,2,0,1,,,,,,,,,,,,,
5f73610089f920075dbb129b,TCR,2024-06-24_13h45.41.209,LearnStrategy,2023.2.3,Linux x86_64,59.88023952,8,1,4,0.054308872,-0.016367831,1,0,0,0.5975,rock_grid_rect_2,5,05,-1,-1,0.597,-0.371370725,-0.383747858,1,0,0,1.1104,Obsidian_rect,5,1.11,1,3,0,3,0,1,,,,,,,,,,,,,
5f73610089f920075dbb129b,TCR,2024-06-24_13h45.41.209,LearnStrategy,2023.2.3,Linux x86_64,59.88023952,8,1,5,0.145922518,-0.024696381,1,0,0,0.5486,rock_grid_rect_2,7,08,-1,-1,0.549,0.132967065,-0.395777899,1,0,0,1.4928,Peridotite_rect,7,1.493,1,4,0,4,0,1,,,,,,,,,,,,,
5f73610089f920075dbb129b,TCR,2024-06-24_13h45.41.209,LearnStrategy,2023.2.3,Linux x86_64,59.88023952,8,1,6,0.086697536,-0.01451707,1,0,0,0.5479,rock_grid_rect_2,2,06,-1,-1,0.548,-0.13817235,-0.228282233,1,0,0,1.2829,Basalt_rect,2,1.283,1,5,0,5,0,1,,,,,,,,,,,,,
5f73610089f920075dbb129b,TCR,2024-06-24_13h45.41.209,LearnStrategy,2023.2.3,Linux x86_64,59.88023952,8,1,7,0.060786568,-0.001561586,1,0,0,0.6649,rock_grid_rect_2,3,16,-1,-1,0.665,0.123713134,-0.251417029,1,0,0,1.0768,Diorite_rect,3,1.077,1,6,0,6,0,1,,,,,,,,,,,,,
5f73610089f920075dbb129b,TCR,2024-06-24_13h45.41.209,LearnStrategy,2023.2.3,Linux x86_64,59.88023952,8,1,8,0.008039343,-0.009890105,1,0,0,0.6483,rock_grid_rect_2,4,03,-1,-1,0.648,0.362463824,-0.245864683,1,0,0,1.7439,Gabbro_rect,4,1.744,1,7,0,7,0,1,,,,,,,,,,,,,
5f73610089f920075dbb129b,TCR,2024-06-24_13h45.41.209,LearnStrategy,2023.2.3,Linux x86_64,59.88023952,8,1,9,0.094100643,0.003990729,1,0,0,0.6812,rock_grid_rect_2,3,16,-1,-1,0.681,0.141295522,-0.248640856,1,0,0,1.094,Diorite_rect,3,1.094,1,8,0,8,0,1,,,,,,,,,,,,,
5f73610089f920075dbb129b,TCR,2024-06-24_13h45.41.209,LearnStrategy,2023.2.3,Linux x86_64,59.88023952,8,1,10,0.024696381,-0.012666278,1,0,0,0.5481,rock_grid_rect_2,8,06,-1,-1,0.548,0.42631574,-0.395777899,1,0,0,0.9566,Pumice_rect,8,0.957,1,9,0,9,0,1,,,,,,,,,,,,,
5f73610089f920075dbb129b,TCR,2024-06-24_13h45.41.209,LearnStrategy,2023.2.3,Linux x86_64,59.88023952,8,1,11,0.020994796,0.000289176,1,0,0,0.4485,rock_grid_rect_2,2,09,-1,-1,0.448,-0.12891842,-0.257894724,1,0,0,1.8086,Basalt_rect,2,1.809,1,10,0,10,0,1,,,,,,,,,,,,,
5f73610089f920075dbb129b,TCR,2024-06-24_13h45.41.209,LearnStrategy,2023.2.3,Linux x86_64,59.88023952,8,1,12,0.030248727,-0.011740897,1,0,0,0.8811,rock_grid_rect_2,1,05,-1,-1,0.881,-0.332504334,-0.24401386,1,0,0,1.0264,Andesite_rect,1,1.026,1,11,0,11,0,1,,,,,,,,,,,,,
5f73610089f920075dbb129b,TCR,2024-06-24_13h45.41.209,LearnStrategy,2023.2.3,Linux x86_64,59.88023952,8,1,13,0.013591689,0.010468487,1,0,0,0.8316,rock_grid_rect_2,4,08,-1,-1,0.832,0.381897096,-0.265297894,1,0,0,1.6657,Gabbro_rect,4,1.666,1,12,0,12,0,1,,,,,,,,,,,,,
5f73610089f920075dbb129b,TCR,2024-06-24_13h45.41.209,LearnStrategy,2023.2.3,Linux x86_64,59.88023952,8,1,14,0.022845558,0.001214587,1,0,0,0.7816,rock_grid_rect_2,1,02,-1,-1,0.782,0.135743238,-0.233834579,1,0,0,5.8098,Diorite_rect,3,5.81,0,13,0,13,0,1,,,,,,,,,,,,,
5f73610089f920075dbb129b,TCR,2024-06-24_13h45.41.209,LearnStrategy,2023.2.3,Linux x86_64,59.88023952,8,1,15,0.028397904,-0.013591689,1,0,0,0.9392,rock_grid_rect_2,6,03,-1,-1,0.939,-0.076171195,-0.379120861,1,0,0,1.5096,Pegmatite_rect,6,1.51,1,14,0,14,0,1,,,,,,,,,,,,,
5f73610089f920075dbb129b,TCR,2024-06-24_13h45.41.209,LearnStrategy,2023.2.3,Linux x86_64,59.88023952,8,1,16,0.020994796,0.003065349,1,0,0,0.598,rock_grid_rect_2,2,14,-1,-1,0.598,0.389300142,-0.398554072,1,0,0,1.3263,Pumice_rect,8,1.326,0,15,0,15,0,1,,,,,,,,,,,,,
5f73610089f920075dbb129b,TCR,2024-06-24_13h45.41.209,LearnStrategy,2023.2.3,Linux x86_64,59.88023952,8,2,1,,,,,,,,4,12,,,,,,,,,,,4,12.014,1,,,,,,0.455928293,-0.262521721,1,0,0,12.0141,Gabbro_rect,0,0,0,0,1,
5f73610089f920075dbb129b,TCR,2024-06-24_13h45.41.209,LearnStrategy,2023.2.3,Linux x86_64,59.88023952,8,2,2,,,,,,,,2,04,,,,,,,,,,,2,1.62,1,,,,,,-0.054887223,-0.256969375,1,0,0,1.6203,Basalt_rect,1,0,1,0,1,
5f73610089f920075dbb129b,TCR,2024-06-24_13h45.41.209,LearnStrategy,2023.2.3,Linux x86_64,59.88023952,8,2,3,,,,,,,,8,16,,,,,,,,,,,8,0.993,1,,,,,,0.412434937,-0.400404834,1,0,0,0.9932,Pumice_rect,2,0,2,0,1,
5f73610089f920075dbb129b,TCR,2024-06-24_13h45.41.209,LearnStrategy,2023.2.3,Linux x86_64,59.88023952,8,2,4,,,,,,,,1,11,,,,,,,,,,,1,5.328,1,,,,,,-0.367669171,-0.240312337,1,0,0,5.3281,Andesite_rect,3,0,3,0,1,
5f73610089f920075dbb129b,TCR,2024-06-24_13h45.41.209,LearnStrategy,2023.2.3,Linux x86_64,59.88023952,8,2,5,,,,,,,,2,16,,,,,,,,,,,2,1.219,1,,,,,,-0.134470766,-0.259745548,1,0,0,1.2194,Basalt_rect,4,0,4,0,1,
5f73610089f920075dbb129b,TCR,2024-06-24_13h45.41.209,LearnStrategy,2023.2.3,Linux x86_64,59.88023952,8,2,6,,,,,,,,5,04,,,,,,,,,,,5,1.092,1,,,,,,-0.383400797,-0.402255657,1,0,0,1.0923,Obsidian_rect,5,0,5,0,1,
5f73610089f920075dbb129b,TCR,2024-06-24_13h45.41.209,LearnStrategy,2023.2.3,Linux x86_64,59.88023952,8,2,7,,,,,,,,3,12,,,,,,,,,,,3,1.493,1,,,,,,0.144997106,-0.258820136,1,0,0,1.4925,Diorite_rect,6,0,6,0,1,
5f73610089f920075dbb129b,TCR,2024-06-24_13h45.41.209,LearnStrategy,2023.2.3,Linux x86_64,59.88023952,8,2,8,,,,,,,,8,10,,,,,,,,,,,8,1.109,1,,,,,,0.392076376,-0.394852549,1,0,0,1.1093,Pumice_rect,7,0,7,0,1,
5f73610089f920075dbb129b,TCR,2024-06-24_13h45.41.209,LearnStrategy,2023.2.3,Linux x86_64,59.88023952,8,2,9,,,,,,,,3,15,,,,,,,,,,,3,2.743,1,,,,,,0.15795256,-0.259745548,1,0,0,2.7427,Diorite_rect,8,0,8,0,1,
5f73610089f920075dbb129b,TCR,2024-06-24_13h45.41.209,LearnStrategy,2023.2.3,Linux x86_64,59.88023952,8,2,10,,,,,,,,7,16,,,,,,,,,,,4,6.942,0,,,,,,0.410584114,-0.24401386,1,0,0,6.9423,Gabbro_rect,9,0,9,0,1,
5f73610089f920075dbb129b,TCR,2024-06-24_13h45.41.209,LearnStrategy,2023.2.3,Linux x86_64,59.88023952,8,2,11,,,,,,,,7,02,,,,,,,,,,,7,1.201,1,,,,,,0.165355729,-0.410584176,1,0,0,1.201,Peridotite_rect,10,0,10,0,1,
5f73610089f920075dbb129b,TCR,2024-06-24_13h45.41.209,LearnStrategy,2023.2.3,Linux x86_64,59.88023952,8,2,12,,,,,,,,1,16,,,,,,,,,,,1,6.274,1,,,,,,-0.356564479,-0.248640856,1,0,0,6.2741,Andesite_rect,11,0,11,0,1,
5f73610089f920075dbb129b,TCR,2024-06-24_13h45.41.209,LearnStrategy,2023.2.3,Linux x86_64,59.88023952,8,2,13,,,,,,,,6,08,,,,,,,,,,,6,1.11,1,,,,,,-0.09097741,-0.412434937,1,0,0,1.1096,Pegmatite_rect,12,0,12,0,1,
5f73610089f920075dbb129b,TCR,2024-06-24_13h45.41.209,LearnStrategy,2023.2.3,Linux x86_64,59.88023952,8,2,14,,,,,,,,6,10,,,,,,,,,,,6,2.874,1,,,,,,-0.083574303,-0.388374792,1,0,0,2.8744,Pegmatite_rect,13,0,13,0,1,
5f73610089f920075dbb129b,TCR,2024-06-24_13h45.41.209,LearnStrategy,2023.2.3,Linux x86_64,59.88023952,8,2,15,,,,,,,,5,09,,,,,,,,,,,5,0.952,1,,,,,,-0.344534438,-0.413360349,1,0,0,0.9518,Obsidian_rect,14,0,14,0,1,
5f73610089f920075dbb129b,TCR,2024-06-24_13h45.41.209,LearnStrategy,2023.2.3,Linux x86_64,59.88023952,8,2,16,,,,,,,,4,10,,,,,,,,,,,4,1.364,1,,,,,,0.391150965,-0.245864683,1,0,0,1.3643,Gabbro_rect,15,0,15,0,1,
5f73610089f920075dbb129b,TCR,2024-06-24_13h45.41.209,LearnStrategy,2023.2.3,Linux x86_64,59.88023952,9,1,1,0.037651834,-0.004337759,1,0,0,0.8829,rock_grid_rect_2,2,08,-1,-1,0.883,-0.132620005,-0.270850178,1,0,0,1.0928,Basalt_rect,2,1.093,1,0,0,0,0,1,,,,,,,,,,,,,
5f73610089f920075dbb129b,TCR,2024-06-24_13h45.41.209,LearnStrategy,2023.2.3,Linux x86_64,59.88023952,9,1,2,0.00526317,-0.020994796,1,0,0,0.7482,rock_grid_rect_2,7,15,-1,-1,0.748,0.190341224,-0.40503183,1,0,0,1.2606,Peridotite_rect,7,1.261,1,1,0,1,0,1,,,,,,,,,,,,,
5f73610089f920075dbb129b,TCR,2024-06-24_13h45.41.209,LearnStrategy,2023.2.3,Linux x86_64,59.88023952,9,1,3,-0.036379424,-0.008964724,1,0,0,0.565,rock_grid_rect_2,6,09,-1,-1,0.565,-0.098380579,-0.393001726,1,0,0,0.9758,Pegmatite_rect,6,0.976,1,2,0,2,0,1,,,,,,,,,,,,,
5f73610089f920075dbb129b,TCR,2024-06-24_13h45.41.209,LearnStrategy,2023.2.3,Linux x86_64,59.88023952,9,1,4,0.014517039,-0.00526317,1,0,0,0.9149,rock_grid_rect_2,4,13,-1,-1,0.915,0.34025444,-0.233834579,1,0,0,1.7169,Gabbro_rect,4,1.717,1,3,0,3,0,1,,,,,,,,,,,,,
5f73610089f920075dbb129b,TCR,2024-06-24_13h45.41.209,LearnStrategy,2023.2.3,Linux x86_64,59.88023952,9,1,5,-0.012319279,-0.012666278,1,0,0,0.7975,rock_grid_rect_2,7,13,-1,-1,0.798,0.137593999,-0.420763456,1,0,0,1.7245,Peridotite_rect,7,1.724,1,4,0,4,0,1,,,,,,,,,,,,,
5f73610089f920075dbb129b,TCR,2024-06-24_13h45.41.209,LearnStrategy,2023.2.3,Linux x86_64,59.88023952,9,1,6,0.011740866,-0.01451707,1,0,0,0.5648,rock_grid_rect_2,4,05,-1,-1,0.565,0.435569732,-0.240312337,1,0,0,1.4499,Gabbro_rect,4,1.45,1,5,0,5,0,1,,,,,,,,,,,,,
5f73610089f920075dbb129b,TCR,2024-06-24_13h45.41.209,LearnStrategy,2023.2.3,Linux x86_64,59.88023952,9,1,7,-0.020647798,-0.004337759,1,0,0,0.6647,rock_grid_rect_2,2,06,-1,-1,0.665,-0.129843832,-0.245864683,1,0,0,0.9772,Basalt_rect,2,0.977,1,6,0,6,0,1,,,,,,,,,,,,,
5f73610089f920075dbb129b,TCR,2024-06-24_13h45.41.209,LearnStrategy,2023.2.3,Linux x86_64,59.88023952,9,1,8,0.051532699,0.019722386,1,0,0,0.5633,rock_grid_rect_2,5,14,-1,-1,0.563,-0.354713718,-0.410584176,1,0,0,1.7595,Obsidian_rect,5,1.76,1,7,0,7,0,1,,,,,,,,,,,,,
5f73610089f920075dbb129b,TCR,2024-06-24_13h45.41.209,LearnStrategy,2023.2.3,Linux x86_64,59.88023952,9,1,9,0.028397904,0.010468487,1,0,0,0.5976,rock_grid_rect_2,8,05,-1,-1,0.598,0.408733414,-0.381897034,1,0,0,0.9773,Pumice_rect,8,0.977,1,8,0,8,0,1,,,,,,,,,,,,,
5f73610089f920075dbb129b,TCR,2024-06-24_13h45.41.209,LearnStrategy,2023.2.3,Linux x86_64,59.88023952,9,1,10,-0.012319279,-0.006188551,1,0,0,0.6316,rock_grid_rect_2,2,06,-1,-1,0.632,-0.129843832,-0.256043963,1,0,0,0.9604,Basalt_rect,2,0.96,1,9,0,9,0,1,,,,,,,,,,,,,
5f73610089f920075dbb129b,TCR,2024-06-24_13h45.41.209,LearnStrategy,2023.2.3,Linux x86_64,59.88023952,9,1,11,-0.025274732,-0.004337759,1,0,0,0.6313,rock_grid_rect_2,4,15,-1,-1,0.631,0.41613646,-0.265297894,1,0,0,6.2463,Gabbro_rect,4,6.246,1,10,0,10,0,1,,,,,,,,,,,,,
5f73610089f920075dbb129b,TCR,2024-06-24_13h45.41.209,LearnStrategy,2023.2.3,Linux x86_64,59.88023952,9,1,12,0.020994796,-0.019144035,1,0,0,0.5818,rock_grid_rect_2,3,11,-1,-1,0.582,0.108906858,-0.250491617,1,0,0,1.3099,Diorite_rect,3,1.31,1,11,0,11,0,1,,,,,,,,,,,,,
5f73610089f920075dbb129b,TCR,2024-06-24_13h45.41.209,LearnStrategy,2023.2.3,Linux x86_64,59.88023952,9,1,13,0.007113932,0.020647767,1,0,0,0.5983,rock_grid_rect_2,1,01,-1,-1,0.598,-0.373221517,-0.246790033,1,0,0,4.3585,Andesite_rect,1,4.358,1,12,0,12,0,1,,,,,,,,,,,,,
5f73610089f920075dbb129b,TCR,2024-06-24_13h45.41.209,LearnStrategy,2023.2.3,Linux x86_64,59.88023952,9,1,14,-0.003065349,-0.008039343,1,0,0,0.7484,rock_grid_rect_2,7,14,-1,-1,0.748,0.131116242,-0.40503183,1,0,0,7.0417,Peridotite_rect,7,7.042,1,13,0,13,0,1,,,,,,,,,,,,,
5f73610089f920075dbb129b,TCR,2024-06-24_13h45.41.209,LearnStrategy,2023.2.3,Linux x86_64,59.88023952,9,1,15,0.014517039,0.003065349,1,0,0,0.648,rock_grid_rect_2,1,04,-1,-1,0.648,-0.393580109,-0.242163098,1,0,0,4.5765,Andesite_rect,1,4.577,1,14,0,14,0,1,,,,,,,,,,,,,
5f73610089f920075dbb129b,TCR,2024-06-24_13h45.41.209,LearnStrategy,2023.2.3,Linux x86_64,59.88023952,9,1,16,-0.065991915,-0.015442451,1,0,0,0.6977,rock_grid_rect_2,3,14,-1,-1,0.698,0.194968158,-0.256969375,1,0,0,1.177,Diorite_rect,3,1.177,1,15,0,15,0,1,,,,,,,,,,,,,
5f73610089f920075dbb129b,TCR,2024-06-24_13h45.41.209,LearnStrategy,2023.2.3,Linux x86_64,59.88023952,9,2,1,,,,,,,,3,02,,,,,,,,,,,3,7.46,1,,,,,,0.122787723,-0.24401386,1,0,0,7.4597,Diorite_rect,0,0,0,0,1,
5f73610089f920075dbb129b,TCR,2024-06-24_13h45.41.209,LearnStrategy,2023.2.3,Linux x86_64,59.88023952,9,2,2,,,,,,,,2,05,,,,,,,,,,,2,1.881,1,,,,,,-0.134470766,-0.249566206,1,0,0,1.8814,Basalt_rect,1,0,1,0,1,
5f73610089f920075dbb129b,TCR,2024-06-24_13h45.41.209,LearnStrategy,2023.2.3,Linux x86_64,59.88023952,9,2,3,,,,,,,,1,09,,,,,,,,,,,1,9.259,1,,,,,,-0.394505489,-0.260670897,1,0,0,9.2591,Andesite_rect,2,0,2,0,1,
5f73610089f920075dbb129b,TCR,2024-06-24_13h45.41.209,LearnStrategy,2023.2.3,Linux x86_64,59.88023952,9,2,4,,,,,,,,8,14,,,,,,,,,,,8,1.044,1,,,,,,0.349508432,-0.397628722,1,0,0,1.0441,Pumice_rect,3,0,3,0,1,
5f73610089f920075dbb129b,TCR,2024-06-24_13h45.41.209,LearnStrategy,2023.2.3,Linux x86_64,59.88023952,9,2,5,,,,,,,,7,04,,,,,,,,,,,1,18.554,0,,,,,,-0.405610181,-0.262521721,1,0,0,18.5542,Andesite_rect,4,0,4,0,1,
5f73610089f920075dbb129b,TCR,2024-06-24_13h45.41.209,LearnStrategy,2023.2.3,Linux x86_64,59.88023952,9,2,6,,,,,,,,1,14,,,,,,,,,,,1,6.426,1,,,,,,-0.42411798,-0.256969375,1,0,0,6.4263,Andesite_rect,5,0,5,0,1,
5f73610089f920075dbb129b,TCR,2024-06-24_13h45.41.209,LearnStrategy,2023.2.3,Linux x86_64,59.88023952,9,2,7,,,,,,,,6,05,,,,,,,,,,,6,2.271,1,,,,,,-0.066917265,-0.398554072,1,0,0,2.2708,Pegmatite_rect,6,0,6,0,1,
5f73610089f920075dbb129b,TCR,2024-06-24_13h45.41.209,LearnStrategy,2023.2.3,Linux x86_64,59.88023952,9,2,8,,,,,,,,4,11,,,,,,,,,,,2,3.009,0,,,,,,-0.082648953,-0.262521721,1,0,0,3.0092,Basalt_rect,7,0,7,0,1,
5f73610089f920075dbb129b,TCR,2024-06-24_13h45.41.209,LearnStrategy,2023.2.3,Linux x86_64,59.88023952,9,2,9,,,,,,,,5,12,,,,,,,,,,,5,0.986,1,,,,,,-0.383400797,-0.381897034,1,0,0,0.9856,Obsidian_rect,8,0,8,0,1,
5f73610089f920075dbb129b,TCR,2024-06-24_13h45.41.209,LearnStrategy,2023.2.3,Linux x86_64,59.88023952,9,2,10,,,,,,,,2,11,,,,,,,,,,,8,2.016,0,,,,,,0.422614217,-0.404106418,1,0,0,2.0159,Pumice_rect,9,0,9,0,1,
5f73610089f920075dbb129b,TCR,2024-06-24_13h45.41.209,LearnStrategy,2023.2.3,Linux x86_64,59.88023952,9,2,11,,,,,,,,4,14,,,,,,,,,,,4,4.064,1,,,,,,0.4799885,-0.254193202,1,0,0,4.0642,Gabbro_rect,10,0,10,0,1,
5f73610089f920075dbb129b,TCR,2024-06-24_13h45.41.209,LearnStrategy,2023.2.3,Linux x86_64,59.88023952,9,2,12,,,,,,,,3,06,,,,,,,,,,,3,12.314,1,,,,,,0.206998261,-0.240312337,1,0,0,12.3138,Diorite_rect,11,0,11,0,1,
5f73610089f920075dbb129b,TCR,2024-06-24_13h45.41.209,LearnStrategy,2023.2.3,Linux x86_64,59.88023952,9,2,13,,,,,,,,6,11,,,,,,,,,,,6,1.117,1,,,,,,-0.065991915,-0.399479484,1,0,0,1.1172,Pegmatite_rect,12,0,12,0,1,
5f73610089f920075dbb129b,TCR,2024-06-24_13h45.41.209,LearnStrategy,2023.2.3,Linux x86_64,59.88023952,9,2,14,,,,,,,,7,06,,,,,,,,,,,6,1.73,0,,,,,,-0.098380579,-0.390225553,1,0,0,1.7298,Pegmatite_rect,13,0,13,0,1,
5f73610089f920075dbb129b,TCR,2024-06-24_13h45.41.209,LearnStrategy,2023.2.3,Linux x86_64,59.88023952,9,2,15,,,,,,,,5,16,,,,,,,,,,,5,0.961,1,,,,,,-0.317698058,-0.40595718,1,0,0,0.9611,Obsidian_rect,14,0,14,0,1,
5f73610089f920075dbb129b,TCR,2024-06-24_13h45.41.209,LearnStrategy,2023.2.3,Linux x86_64,59.88023952,9,2,16,,,,,,,,8,03,,,,,,,,,,,2,12.278,0,,,,,,-0.115037617,-0.268074005,1,0,0,12.2782,Basalt_rect,15,0,15,0,1,
5f73610089f920075dbb129b,TCR,2024-06-24_13h45.41.209,LearnStrategy,2023.2.3,Linux x86_64,59.88023952,,,,,,,,,,,,,,,,,,,,,,,,,,,,,,,,,,,,,,,,,,,1
5f73610089f920075dbb129b,TCR,2024-06-24_13h45.41.209,LearnStrategy,2023.2.3,Linux x86_64,59.88023952,,,,,,,,,,,,,,,,,,,,,,,,,,,,,,,,,,,,,,,,,,,
5f73610089f920075dbb129b,TCR,2024-06-24_13h45.41.209,LearnStrategy,2023.2.3,Linux x86_64,59.88023952,,,,,,,,,,,2,10,1,1,,,,,,,,,,,,,,,,,,,,,,,,,,,,,
5f73610089f920075dbb129b,TCR,2024-06-24_13h45.41.209,LearnStrategy,2023.2.3,Linux x86_64,59.88023952,,,,,,,,,,,2,14,1,2,,,,,,,,,,,,,,,,,,,,,,,,,,,,,
5f73610089f920075dbb129b,TCR,2024-06-24_13h45.41.209,LearnStrategy,2023.2.3,Linux x86_64,59.88023952,,,,,,,,,,,6,13,1,3,,,,,,,,,,,,,,,,,,,,,,,,,,,,,
5f73610089f920075dbb129b,TCR,2024-06-24_13h45.41.209,LearnStrategy,2023.2.3,Linux x86_64,59.88023952,,,,,,,,,,,4,08,1,4,,,,,,,,,,,,,,,,,,,,,,,,,,,,,
5f73610089f920075dbb129b,TCR,2024-06-24_13h45.41.209,LearnStrategy,2023.2.3,Linux x86_64,59.88023952,,,,,,,,,,,3,14,1,5,,,,,,,,,,,,,,,,,,,,,,,,,,,,,
5f73610089f920075dbb129b,TCR,2024-06-24_13h45.41.209,LearnStrategy,2023.2.3,Linux x86_64,59.88023952,,,,,,,,,,,8,06,1,6,,,,,,,,,,,,,,,,,,,,,,,,,,,,,
5f73610089f920075dbb129b,TCR,2024-06-24_13h45.41.209,LearnStrategy,2023.2.3,Linux x86_64,59.88023952,,,,,,,,,,,8,15,1,7,,,,,,,,,,,,,,,,,,,,,,,,,,,,,
5f73610089f920075dbb129b,TCR,2024-06-24_13h45.41.209,LearnStrategy,2023.2.3,Linux x86_64,59.88023952,,,,,,,,,,,2,06,1,8,,,,,,,,,,,,,,,,,,,,,,,,,,,,,
5f73610089f920075dbb129b,TCR,2024-06-24_13h45.41.209,LearnStrategy,2023.2.3,Linux x86_64,59.88023952,,,,,,,,,,,6,15,2,1,,,,,,,,,,,,,,,,,,,,,,,,,,,,,
5f73610089f920075dbb129b,TCR,2024-06-24_13h45.41.209,LearnStrategy,2023.2.3,Linux x86_64,59.88023952,,,,,,,,,,,7,15,2,2,,,,,,,,,,,,,,,,,,,,,,,,,,,,,
5f73610089f920075dbb129b,TCR,2024-06-24_13h45.41.209,LearnStrategy,2023.2.3,Linux x86_64,59.88023952,,,,,,,,,,,3,07,2,3,,,,,,,,,,,,,,,,,,,,,,,,,,,,,
5f73610089f920075dbb129b,TCR,2024-06-24_13h45.41.209,LearnStrategy,2023.2.3,Linux x86_64,59.88023952,,,,,,,,,,,3,09,2,4,,,,,,,,,,,,,,,,,,,,,,,,,,,,,
5f73610089f920075dbb129b,TCR,2024-06-24_13h45.41.209,LearnStrategy,2023.2.3,Linux x86_64,59.88023952,,,,,,,,,,,6,07,2,5,,,,,,,,,,,,,,,,,,,,,,,,,,,,,
5f73610089f920075dbb129b,TCR,2024-06-24_13h45.41.209,LearnStrategy,2023.2.3,Linux x86_64,59.88023952,,,,,,,,,,,8,08,2,6,,,,,,,,,,,,,,,,,,,,,,,,,,,,,
5f73610089f920075dbb129b,TCR,2024-06-24_13h45.41.209,LearnStrategy,2023.2.3,Linux x86_64,59.88023952,,,,,,,,,,,7,13,2,7,,,,,,,,,,,,,,,,,,,,,,,,,,,,,
5f73610089f920075dbb129b,TCR,2024-06-24_13h45.41.209,LearnStrategy,2023.2.3,Linux x86_64,59.88023952,,,,,,,,,,,1,05,2,8,,,,,,,,,,,,,,,,,,,,,,,,,,,,,
5f73610089f920075dbb129b,TCR,2024-06-24_13h45.41.209,LearnStrategy,2023.2.3,Linux x86_64,59.88023952,,,,,,,,,,,1,10,3,1,,,,,,,,,,,,,,,,,,,,,,,,,,,,,
5f73610089f920075dbb129b,TCR,2024-06-24_13h45.41.209,LearnStrategy,2023.2.3,Linux x86_64,59.88023952,,,,,,,,,,,5,05,3,2,,,,,,,,,,,,,,,,,,,,,,,,,,,,,
5f73610089f920075dbb129b,TCR,2024-06-24_13h45.41.209,LearnStrategy,2023.2.3,Linux x86_64,59.88023952,,,,,,,,,,,8,05,3,3,,,,,,,,,,,,,,,,,,,,,,,,,,,,,
5f73610089f920075dbb129b,TCR,2024-06-24_13h45.41.209,LearnStrategy,2023.2.3,Linux x86_64,59.88023952,,,,,,,,,,,4,15,3,4,,,,,,,,,,,,,,,,,,,,,,,,,,,,,
5f73610089f920075dbb129b,TCR,2024-06-24_13h45.41.209,LearnStrategy,2023.2.3,Linux x86_64,59.88023952,,,,,,,,,,,1,04,3,5,,,,,,,,,,,,,,,,,,,,,,,,,,,,,
5f73610089f920075dbb129b,TCR,2024-06-24_13h45.41.209,LearnStrategy,2023.2.3,Linux x86_64,59.88023952,,,,,,,,,,,4,01,3,6,,,,,,,,,,,,,,,,,,,,,,,,,,,,,
5f73610089f920075dbb129b,TCR,2024-06-24_13h45.41.209,LearnStrategy,2023.2.3,Linux x86_64,59.88023952,,,,,,,,,,,4,03,3,7,,,,,,,,,,,,,,,,,,,,,,,,,,,,,
5f73610089f920075dbb129b,TCR,2024-06-24_13h45.41.209,LearnStrategy,2023.2.3,Linux x86_64,59.88023952,,,,,,,,,,,7,08,3,8,,,,,,,,,,,,,,,,,,,,,,,,,,,,,
5f73610089f920075dbb129b,TCR,2024-06-24_13h45.41.209,LearnStrategy,2023.2.3,Linux x86_64,59.88023952,,,,,,,,,,,4,05,4,1,,,,,,,,,,,,,,,,,,,,,,,,,,,,,
5f73610089f920075dbb129b,TCR,2024-06-24_13h45.41.209,LearnStrategy,2023.2.3,Linux x86_64,59.88023952,,,,,,,,,,,7,07,4,2,,,,,,,,,,,,,,,,,,,,,,,,,,,,,
5f73610089f920075dbb129b,TCR,2024-06-24_13h45.41.209,LearnStrategy,2023.2.3,Linux x86_64,59.88023952,,,,,,,,,,,5,10,4,3,,,,,,,,,,,,,,,,,,,,,,,,,,,,,
5f73610089f920075dbb129b,TCR,2024-06-24_13h45.41.209,LearnStrategy,2023.2.3,Linux x86_64,59.88023952,,,,,,,,,,,2,08,4,4,,,,,,,,,,,,,,,,,,,,,,,,,,,,,
5f73610089f920075dbb129b,TCR,2024-06-24_13h45.41.209,LearnStrategy,2023.2.3,Linux x86_64,59.88023952,,,,,,,,,,,1,02,4,5,,,,,,,,,,,,,,,,,,,,,,,,,,,,,
5f73610089f920075dbb129b,TCR,2024-06-24_13h45.41.209,LearnStrategy,2023.2.3,Linux x86_64,59.88023952,,,,,,,,,,,3,16,4,6,,,,,,,,,,,,,,,,,,,,,,,,,,,,,
5f73610089f920075dbb129b,TCR,2024-06-24_13h45.41.209,LearnStrategy,2023.2.3,Linux x86_64,59.88023952,,,,,,,,,,,8,13,4,7,,,,,,,,,,,,,,,,,,,,,,,,,,,,,
5f73610089f920075dbb129b,TCR,2024-06-24_13h45.41.209,LearnStrategy,2023.2.3,Linux x86_64,59.88023952,,,,,,,,,,,1,01,4,8,,,,,,,,,,,,,,,,,,,,,,,,,,,,,
5f73610089f920075dbb129b,TCR,2024-06-24_13h45.41.209,LearnStrategy,2023.2.3,Linux x86_64,59.88023952,,,,,,,,,,,1,06,5,1,,,,,,,,,,,,,,,,,,,,,,,,,,,,,
5f73610089f920075dbb129b,TCR,2024-06-24_13h45.41.209,LearnStrategy,2023.2.3,Linux x86_64,59.88023952,,,,,,,,,,,5,14,5,2,,,,,,,,,,,,,,,,,,,,,,,,,,,,,
5f73610089f920075dbb129b,TCR,2024-06-24_13h45.41.209,LearnStrategy,2023.2.3,Linux x86_64,59.88023952,,,,,,,,,,,2,09,5,3,,,,,,,,,,,,,,,,,,,,,,,,,,,,,
5f73610089f920075dbb129b,TCR,2024-06-24_13h45.41.209,LearnStrategy,2023.2.3,Linux x86_64,59.88023952,,,,,,,,,,,2,02,5,4,,,,,,,,,,,,,,,,,,,,,,,,,,,,,
5f73610089f920075dbb129b,TCR,2024-06-24_13h45.41.209,LearnStrategy,2023.2.3,Linux x86_64,59.88023952,,,,,,,,,,,5,08,5,5,,,,,,,,,,,,,,,,,,,,,,,,,,,,,
5f73610089f920075dbb129b,TCR,2024-06-24_13h45.41.209,LearnStrategy,2023.2.3,Linux x86_64,59.88023952,,,,,,,,,,,5,02,5,6,,,,,,,,,,,,,,,,,,,,,,,,,,,,,
5f73610089f920075dbb129b,TCR,2024-06-24_13h45.41.209,LearnStrategy,2023.2.3,Linux x86_64,59.88023952,,,,,,,,,,,6,09,5,7,,,,,,,,,,,,,,,,,,,,,,,,,,,,,
5f73610089f920075dbb129b,TCR,2024-06-24_13h45.41.209,LearnStrategy,2023.2.3,Linux x86_64,59.88023952,,,,,,,,,,,7,14,5,8,,,,,,,,,,,,,,,,,,,,,,,,,,,,,
5f73610089f920075dbb129b,TCR,2024-06-24_13h45.41.209,LearnStrategy,2023.2.3,Linux x86_64,59.88023952,,,,,,,,,,,4,13,6,1,,,,,,,,,,,,,,,,,,,,,,,,,,,,,
5f73610089f920075dbb129b,TCR,2024-06-24_13h45.41.209,LearnStrategy,2023.2.3,Linux x86_64,59.88023952,,,,,,,,,,,7,12,6,2,,,,,,,,,,,,,,,,,,,,,,,,,,,,,
5f73610089f920075dbb129b,TCR,2024-06-24_13h45.41.209,LearnStrategy,2023.2.3,Linux x86_64,59.88023952,,,,,,,,,,,5,11,6,3,,,,,,,,,,,,,,,,,,,,,,,,,,,,,
5f73610089f920075dbb129b,TCR,2024-06-24_13h45.41.209,LearnStrategy,2023.2.3,Linux x86_64,59.88023952,,,,,,,,,,,3,10,6,4,,,,,,,,,,,,,,,,,,,,,,,,,,,,,
5f73610089f920075dbb129b,TCR,2024-06-24_13h45.41.209,LearnStrategy,2023.2.3,Linux x86_64,59.88023952,,,,,,,,,,,3,11,6,5,,,,,,,,,,,,,,,,,,,,,,,,,,,,,
5f73610089f920075dbb129b,TCR,2024-06-24_13h45.41.209,LearnStrategy,2023.2.3,Linux x86_64,59.88023952,,,,,,,,,,,6,12,6,6,,,,,,,,,,,,,,,,,,,,,,,,,,,,,
5f73610089f920075dbb129b,TCR,2024-06-24_13h45.41.209,LearnStrategy,2023.2.3,Linux x86_64,59.88023952,,,,,,,,,,,8,04,6,7,,,,,,,,,,,,,,,,,,,,,,,,,,,,,
5f73610089f920075dbb129b,TCR,2024-06-24_13h45.41.209,LearnStrategy,2023.2.3,Linux x86_64,59.88023952,,,,,,,,,,,6,03,6,8,,,,,,,,,,,,,,,,,,,,,,,,,,,,,