participant,condition,date,expName,psychopyVersion,OS,frameRate,block,phase,trial,learn_mouse.x,learn_mouse.y,learn_mouse.leftButton,learn_mouse.midButton,learn_mouse.rightButton,learn_mouse.time,learn_mouse.clicked_name,cat,token,row,col,t_select,cat_mouse_l.x,cat_mouse_l.y,cat_mouse_l.leftButton,cat_mouse_l.midButton,cat_mouse_l.rightButton,cat_mouse_l.time,cat_mouse_l.clicked_name,resp,t_resp,corr,train_trials.thisRepN,train_trials.thisTrialN,train_trials.thisN,train_trials.thisIndex,train_trials.ran,cat_mouse_t.x,cat_mouse_t.y,cat_mouse_t.leftButton,cat_mouse_t.midButton,cat_mouse_t.rightButton,cat_mouse_t.time,cat_mouse_t.clicked_name,test_trials.thisRepN,test_trials.thisTrialN,test_trials.thisN,test_trials.thisIndex,test_trials.ran,Bonus
5f81fc9446ee002f681ea5e3,SCN,2024-06-11_10h19.24.419,LearnStrategy,2023.2.3,Win32,59.52380952,,,,,,,,,,,,,,,,,,,,,,,,,,,,,,,,,,,,,,,,,,,
5f81fc9446ee002f681ea5e3,SCN,2024-06-11_10h19.24.419,LearnStrategy,2023.2.3,Win32,59.52380952,1,1,1,-0.055555556,0.07962963,1,0,0,13.0734,Basalt_16,2,16,4,4,13.073,0.336111111,-0.412037037,1,0,0,8.8558,Pumice_rect,8,8.856,0,0,0,0,0,1,,,,,,,,,,,,,
5f81fc9446ee002f681ea5e3,SCN,2024-06-11_10h19.24.419,LearnStrategy,2023.2.3,Win32,59.52380952,1,1,2,-0.055555556,0.073148148,1,0,0,1.189,Basalt_16,2,16,4,4,1.189,-0.147222222,-0.248148148,1,0,0,2.6466,Basalt_rect,2,2.647,1,1,0,1,0,1,,,,,,,,,,,,,
5f81fc9446ee002f681ea5e3,SCN,2024-06-11_10h19.24.419,LearnStrategy,2023.2.3,Win32,59.52380952,1,1,3,-0.219444444,0.093518519,1,0,0,1.2351,Andesite_07,1,07,4,3,1.235,-0.349074074,-0.232407407,1,0,0,3.4631,Andesite_rect,1,3.463,1,2,0,2,0,1,,,,,,,,,,,,,
5f81fc9446ee002f681ea5e3,SCN,2024-06-11_10h19.24.419,LearnStrategy,2023.2.3,Win32,59.52380952,1,1,4,-0.377777778,0.085185185,1,0,0,1.4839,Obsidian_06,5,06,4,2,1.484,0.186111111,-0.247222222,1,0,0,3.1304,Diorite_rect,3,3.13,0,3,0,3,0,1,,,,,,,,,,,,,
5f81fc9446ee002f681ea5e3,SCN,2024-06-11_10h19.24.419,LearnStrategy,2023.2.3,Win32,59.52380952,1,1,5,-0.437037037,0.101851852,1,0,0,1.9683,Obsidian_06,5,06,4,2,1.968,-0.325925926,-0.380555556,1,0,0,2.2967,Obsidian_rect,5,2.297,1,4,0,4,0,1,,,,,,,,,,,,,
5f81fc9446ee002f681ea5e3,SCN,2024-06-11_10h19.24.419,LearnStrategy,2023.2.3,Win32,59.52380952,1,1,6,-0.55,0.1,1,0,0,1.4884,Peridotite_07,7,07,4,1,1.488,0.177777778,-0.39537037,1,0,0,7.9054,Peridotite_rect,7,7.905,1,5,0,5,0,1,,,,,,,,,,,,,
5f81fc9446ee002f681ea5e3,SCN,2024-06-11_10h19.24.419,LearnStrategy,2023.2.3,Win32,59.52380952,1,1,7,-0.537037037,-0.088888889,1,0,0,2.8992,Basalt_11,2,11,3,1,2.899,0.364814815,-0.405555556,1,0,0,4.1048,Pumice_rect,8,4.105,0,6,0,6,0,1,,,,,,,,,,,,,
5f81fc9446ee002f681ea5e3,SCN,2024-06-11_10h19.24.419,LearnStrategy,2023.2.3,Win32,59.52380952,1,1,8,-0.584259259,-0.090740741,1,0,0,1.1487,Basalt_11,2,11,3,1,1.149,-0.063888889,-0.240740741,1,0,0,0.9281,Basalt_rect,2,0.928,1,7,0,7,0,1,,,,,,,,,,,,,
5f81fc9446ee002f681ea5e3,SCN,2024-06-11_10h19.24.419,LearnStrategy,2023.2.3,Win32,59.52380952,1,1,9,-0.369444444,-0.087037037,1,0,0,1.816,Gabbro_10,4,10,3,2,1.816,-0.1,-0.237037037,1,0,0,5.1115,Basalt_rect,2,5.111,0,8,0,8,0,1,,,,,,,,,,,,,
5f81fc9446ee002f681ea5e3,SCN,2024-06-11_10h19.24.419,LearnStrategy,2023.2.3,Win32,59.52380952,1,1,10,-0.397222222,-0.075925926,1,0,0,0.7812,Gabbro_10,4,10,3,2,0.781,0.336111111,-0.247222222,1,0,0,1.9948,Gabbro_rect,4,1.995,1,9,0,9,0,1,,,,,,,,,,,,,
5f81fc9446ee002f681ea5e3,SCN,2024-06-11_10h19.24.419,LearnStrategy,2023.2.3,Win32,59.52380952,1,1,11,-0.222222222,-0.103703704,1,0,0,0.8656,Andesite_06,1,06,3,3,0.866,0.211111111,-0.417592593,1,0,0,7.1108,Peridotite_rect,7,7.111,0,10,0,10,0,1,,,,,,,,,,,,,
5f81fc9446ee002f681ea5e3,SCN,2024-06-11_10h19.24.419,LearnStrategy,2023.2.3,Win32,59.52380952,1,1,12,-0.225925926,-0.107407407,1,0,0,0.8989,Andesite_06,1,06,3,3,0.899,-0.375925926,-0.240740741,1,0,0,0.5771,Andesite_rect,1,0.577,1,11,0,11,0,1,,,,,,,,,,,,,
5f81fc9446ee002f681ea5e3,SCN,2024-06-11_10h19.24.419,LearnStrategy,2023.2.3,Win32,59.52380952,1,1,13,-0.052777778,-0.107407407,1,0,0,1.9819,Peridotite_02,7,02,3,4,1.982,-0.077777778,-0.388888889,1,0,0,6.295,Pegmatite_rect,6,6.295,0,12,0,12,0,1,,,,,,,,,,,,,
5f81fc9446ee002f681ea5e3,SCN,2024-06-11_10h19.24.419,LearnStrategy,2023.2.3,Win32,59.52380952,1,1,14,0.039814815,-0.082407407,1,0,0,1.3653,Pegmatite_12,6,12,3,5,1.365,-0.393518519,-0.24537037,1,0,0,3.3284,Andesite_rect,1,3.328,0,13,0,13,0,1,,,,,,,,,,,,,
5f81fc9446ee002f681ea5e3,SCN,2024-06-11_10h19.24.419,LearnStrategy,2023.2.3,Win32,59.52380952,1,1,15,0.066666667,-0.090740741,1,0,0,0.7317,Pegmatite_12,6,12,3,5,0.732,-0.137037037,-0.387037037,1,0,0,1.2615,Pegmatite_rect,6,1.261,1,14,0,14,0,1,,,,,,,,,,,,,
5f81fc9446ee002f681ea5e3,SCN,2024-06-11_10h19.24.419,LearnStrategy,2023.2.3,Win32,59.52380952,1,1,16,0.034259259,-0.088888889,1,0,0,1.9663,Pegmatite_12,6,12,3,5,1.966,-0.138888889,-0.407407407,1,0,0,0.7942,Pegmatite_rect,6,0.794,1,15,0,15,0,1,,,,,,,,,,,,,
5f81fc9446ee002f681ea5e3,SCN,2024-06-11_10h19.24.419,LearnStrategy,2023.2.3,Win32,59.52380952,1,2,1,,,,,,,,7,15,,,,,,,,,,,7,3.911,1,,,,,,0.161111111,-0.399074074,1,0,0,3.9114,Peridotite_rect,0,0,0,0,1,
5f81fc9446ee002f681ea5e3,SCN,2024-06-11_10h19.24.419,LearnStrategy,2023.2.3,Win32,59.52380952,1,2,2,,,,,,,,2,12,,,,,,,,,,,2,7.111,1,,,,,,-0.127777778,-0.258333333,1,0,0,7.1112,Basalt_rect,1,0,1,0,1,
5f81fc9446ee002f681ea5e3,SCN,2024-06-11_10h19.24.419,LearnStrategy,2023.2.3,Win32,59.52380952,1,2,3,,,,,,,,3,10,,,,,,,,,,,7,4.945,0,,,,,,0.169444444,-0.399074074,1,0,0,4.9447,Peridotite_rect,2,0,2,0,1,
5f81fc9446ee002f681ea5e3,SCN,2024-06-11_10h19.24.419,LearnStrategy,2023.2.3,Win32,59.52380952,1,2,4,,,,,,,,5,05,,,,,,,,,,,5,1.761,1,,,,,,-0.361111111,-0.407407407,1,0,0,1.7609,Obsidian_rect,3,0,3,0,1,
5f81fc9446ee002f681ea5e3,SCN,2024-06-11_10h19.24.419,LearnStrategy,2023.2.3,Win32,59.52380952,1,2,5,,,,,,,,4,08,,,,,,,,,,,2,6.712,0,,,,,,-0.067592593,-0.256481481,1,0,0,6.7116,Basalt_rect,4,0,4,0,1,
5f81fc9446ee002f681ea5e3,SCN,2024-06-11_10h19.24.419,LearnStrategy,2023.2.3,Win32,59.52380952,1,2,6,,,,,,,,8,10,,,,,,,,,,,8,4.345,1,,,,,,0.332407407,-0.389814815,1,0,0,4.3452,Pumice_rect,5,0,5,0,1,
5f81fc9446ee002f681ea5e3,SCN,2024-06-11_10h19.24.419,LearnStrategy,2023.2.3,Win32,59.52380952,1,2,7,,,,,,,,5,08,,,,,,,,,,,5,1.128,1,,,,,,-0.437037037,-0.406481481,1,0,0,1.1283,Obsidian_rect,6,0,6,0,1,
5f81fc9446ee002f681ea5e3,SCN,2024-06-11_10h19.24.419,LearnStrategy,2023.2.3,Win32,59.52380952,1,2,8,,,,,,,,3,15,,,,,,,,,,,1,4.712,0,,,,,,-0.336111111,-0.260185185,1,0,0,4.7117,Andesite_rect,7,0,7,0,1,
5f81fc9446ee002f681ea5e3,SCN,2024-06-11_10h19.24.419,LearnStrategy,2023.2.3,Win32,59.52380952,1,2,9,,,,,,,,8,14,,,,,,,,,,,8,1.877,1,,,,,,0.399074074,-0.410185185,1,0,0,1.8769,Pumice_rect,8,0,8,0,1,
5f81fc9446ee002f681ea5e3,SCN,2024-06-11_10h19.24.419,LearnStrategy,2023.2.3,Win32,59.52380952,1,2,10,,,,,,,,2,08,,,,,,,,,,,2,2.578,1,,,,,,-0.134259259,-0.251851852,1,0,0,2.5784,Basalt_rect,9,0,9,0,1,
5f81fc9446ee002f681ea5e3,SCN,2024-06-11_10h19.24.419,LearnStrategy,2023.2.3,Win32,59.52380952,1,2,11,,,,,,,,6,06,,,,,,,,,,,3,2.684,0,,,,,,0.17962963,-0.240740741,1,0,0,2.6844,Diorite_rect,10,0,10,0,1,
5f81fc9446ee002f681ea5e3,SCN,2024-06-11_10h19.24.419,LearnStrategy,2023.2.3,Win32,59.52380952,1,2,12,,,,,,,,1,11,,,,,,,,,,,1,1.561,1,,,,,,-0.365740741,-0.242592593,1,0,0,1.561,Andesite_rect,11,0,11,0,1,
5f81fc9446ee002f681ea5e3,SCN,2024-06-11_10h19.24.419,LearnStrategy,2023.2.3,Win32,59.52380952,1,2,13,,,,,,,,7,16,,,,,,,,,,,7,2.028,1,,,,,,0.094444444,-0.381481481,1,0,0,2.0282,Peridotite_rect,12,0,12,0,1,
5f81fc9446ee002f681ea5e3,SCN,2024-06-11_10h19.24.419,LearnStrategy,2023.2.3,Win32,59.52380952,1,2,14,,,,,,,,6,07,,,,,,,,,,,6,5.344,1,,,,,,-0.088888889,-0.392592593,1,0,0,5.3439,Pegmatite_rect,13,0,13,0,1,
5f81fc9446ee002f681ea5e3,SCN,2024-06-11_10h19.24.419,LearnStrategy,2023.2.3,Win32,59.52380952,1,2,15,,,,,,,,1,16,,,,,,,,,,,4,2.428,0,,,,,,0.325,-0.24537037,1,0,0,2.4279,Gabbro_rect,14,0,14,0,1,
5f81fc9446ee002f681ea5e3,SCN,2024-06-11_10h19.24.419,LearnStrategy,2023.2.3,Win32,59.52380952,1,2,16,,,,,,,,4,09,,,,,,,,,,,2,2.578,0,,,,,,-0.105555556,-0.238888889,1,0,0,2.578,Basalt_rect,15,0,15,0,1,
5f81fc9446ee002f681ea5e3,SCN,2024-06-11_10h19.24.419,LearnStrategy,2023.2.3,Win32,59.52380952,2,1,1,-0.513888889,0.37962963,1,0,0,3.8994,Basalt_04,2,04,6,1,3.899,-0.059259259,-0.240740741,1,0,0,5.2049,Basalt_rect,2,5.205,1,0,0,0,0,1,,,,,,,,,,,,,
5f81fc9446ee002f681ea5e3,SCN,2024-06-11_10h19.24.419,LearnStrategy,2023.2.3,Win32,59.52380952,2,1,2,-0.397222222,0.368518519,1,0,0,0.8984,Gabbro_13,4,13,6,2,0.898,0.089814815,-0.266666667,1,0,0,2.4285,Diorite_rect,3,2.428,0,1,0,1,0,1,,,,,,,,,,,,,
5f81fc9446ee002f681ea5e3,SCN,2024-06-11_10h19.24.419,LearnStrategy,2023.2.3,Win32,59.52380952,2,1,3,-0.227777778,0.373148148,1,0,0,1.4987,Obsidian_10,5,10,6,3,1.499,-0.337037037,-0.412037037,1,0,0,1.5281,Obsidian_rect,5,1.528,1,2,0,2,0,1,,,,,,,,,,,,,
5f81fc9446ee002f681ea5e3,SCN,2024-06-11_10h19.24.419,LearnStrategy,2023.2.3,Win32,59.52380952,2,1,4,-0.034259259,0.398148148,1,0,0,1.3323,Basalt_10,2,10,6,4,1.332,-0.160185185,-0.264814815,1,0,0,2.0109,Basalt_rect,2,2.011,1,3,0,3,0,1,,,,,,,,,,,,,
5f81fc9446ee002f681ea5e3,SCN,2024-06-11_10h19.24.419,LearnStrategy,2023.2.3,Win32,59.52380952,2,1,5,0.074074074,0.37962963,1,0,0,1.0827,Obsidian_07,5,07,6,5,1.083,-0.403703704,-0.403703704,1,0,0,1.3281,Obsidian_rect,5,1.328,1,4,0,4,0,1,,,,,,,,,,,,,
5f81fc9446ee002f681ea5e3,SCN,2024-06-11_10h19.24.419,LearnStrategy,2023.2.3,Win32,59.52380952,2,1,6,0.219444444,0.368518519,1,0,0,1.2992,Pegmatite_10,6,10,6,6,1.299,0.144444444,-0.392592593,1,0,0,0.9279,Peridotite_rect,7,0.928,0,5,0,5,0,1,,,,,,,,,,,,,
5f81fc9446ee002f681ea5e3,SCN,2024-06-11_10h19.24.419,LearnStrategy,2023.2.3,Win32,59.52380952,2,1,7,0.425925926,0.396296296,1,0,0,1.9153,Andesite_03,1,03,6,7,1.915,-0.311111111,-0.253703704,1,0,0,3.062,Andesite_rect,1,3.062,1,6,0,6,0,1,,,,,,,,,,,,,
5f81fc9446ee002f681ea5e3,SCN,2024-06-11_10h19.24.419,LearnStrategy,2023.2.3,Win32,59.52380952,2,1,8,0.52962963,0.416666667,1,0,0,0.9155,Gabbro_14,4,14,6,8,0.916,-0.344444444,-0.247222222,1,0,0,2.2616,Andesite_rect,1,2.262,0,7,0,7,0,1,,,,,,,,,,,,,
5f81fc9446ee002f681ea5e3,SCN,2024-06-11_10h19.24.419,LearnStrategy,2023.2.3,Win32,59.52380952,2,1,9,-0.528703704,0.248148148,1,0,0,2.9484,Obsidian_09,5,09,5,1,2.948,-0.302777778,-0.403703704,1,0,0,2.5721,Obsidian_rect,5,2.572,1,8,0,8,0,1,,,,,,,,,,,,,
5f81fc9446ee002f681ea5e3,SCN,2024-06-11_10h19.24.419,LearnStrategy,2023.2.3,Win32,59.52380952,2,1,10,-0.422222222,0.25462963,1,0,0,1.2483,Gabbro_11,4,11,5,2,1.248,-0.336111111,-0.251851852,1,0,0,2.2284,Andesite_rect,1,2.228,0,9,0,9,0,1,,,,,,,,,,,,,
5f81fc9446ee002f681ea5e3,SCN,2024-06-11_10h19.24.419,LearnStrategy,2023.2.3,Win32,59.52380952,2,1,11,-0.197222222,0.260185185,1,0,0,2.8483,Andesite_10,1,10,5,3,2.848,-0.292592593,-0.265740741,1,0,0,4.3756,Andesite_rect,1,4.376,1,10,0,10,0,1,,,,,,,,,,,,,
5f81fc9446ee002f681ea5e3,SCN,2024-06-11_10h19.24.419,LearnStrategy,2023.2.3,Win32,59.52380952,2,1,12,-0.040740741,0.260185185,1,0,0,4.082,Gabbro_05,4,05,5,4,4.082,0.086111111,-0.257407407,1,0,0,3.8383,Diorite_rect,3,3.838,0,11,0,11,0,1,,,,,,,,,,,,,
5f81fc9446ee002f681ea5e3,SCN,2024-06-11_10h19.24.419,LearnStrategy,2023.2.3,Win32,59.52380952,2,1,13,0.077777778,0.25462963,1,0,0,2.4489,Peridotite_08,7,08,5,5,2.449,0.033333333,-0.42037037,1,0,0,6.088,Peridotite_rect,7,6.088,1,12,0,12,0,1,,,,,,,,,,,,,
5f81fc9446ee002f681ea5e3,SCN,2024-06-11_10h19.24.419,LearnStrategy,2023.2.3,Win32,59.52380952,2,1,14,0.225,0.216666667,1,0,0,1.2817,Pumice_04,8,04,5,6,1.282,0.348148148,-0.42037037,1,0,0,1.795,Pumice_rect,8,1.795,1,13,0,13,0,1,,,,,,,,,,,,,
5f81fc9446ee002f681ea5e3,SCN,2024-06-11_10h19.24.419,LearnStrategy,2023.2.3,Win32,59.52380952,2,1,15,0.394444444,0.231481481,1,0,0,0.9156,Pegmatite_03,6,03,5,7,0.916,-0.102777778,-0.414814815,1,0,0,5.0609,Pegmatite_rect,6,5.061,1,14,0,14,0,1,,,,,,,,,,,,,
5f81fc9446ee002f681ea5e3,SCN,2024-06-11_10h19.24.419,LearnStrategy,2023.2.3,Win32,59.52380952,2,1,16,0.55,0.225,1,0,0,0.8153,Pumice_09,8,09,5,8,0.815,0.377777778,-0.414814815,1,0,0,2.4444,Pumice_rect,8,2.444,1,15,0,15,0,1,,,,,,,,,,,,,
5f81fc9446ee002f681ea5e3,SCN,2024-06-11_10h19.24.419,LearnStrategy,2023.2.3,Win32,59.52380952,2,2,1,,,,,,,,1,05,,,,,,,,,,,1,2.729,1,,,,,,-0.330555556,-0.253703704,1,0,0,2.7287,Andesite_rect,0,0,0,0,1,
5f81fc9446ee002f681ea5e3,SCN,2024-06-11_10h19.24.419,LearnStrategy,2023.2.3,Win32,59.52380952,2,2,2,,,,,,,,7,04,,,,,,,,,,,6,4.545,0,,,,,,-0.090740741,-0.410185185,1,0,0,4.5452,Pegmatite_rect,1,0,1,0,1,
5f81fc9446ee002f681ea5e3,SCN,2024-06-11_10h19.24.419,LearnStrategy,2023.2.3,Win32,59.52380952,2,2,3,,,,,,,,8,06,,,,,,,,,,,8,1.128,1,,,,,,0.475925926,-0.392592593,1,0,0,1.1279,Pumice_rect,2,0,2,0,1,
5f81fc9446ee002f681ea5e3,SCN,2024-06-11_10h19.24.419,LearnStrategy,2023.2.3,Win32,59.52380952,2,2,4,,,,,,,,8,08,,,,,,,,,,,8,1.611,1,,,,,,0.412962963,-0.388888889,1,0,0,1.6113,Pumice_rect,3,0,3,0,1,
5f81fc9446ee002f681ea5e3,SCN,2024-06-11_10h19.24.419,LearnStrategy,2023.2.3,Win32,59.52380952,2,2,5,,,,,,,,5,11,,,,,,,,,,,5,1.594,1,,,,,,-0.390740741,-0.4,1,0,0,1.594,Obsidian_rect,4,0,4,0,1,
5f81fc9446ee002f681ea5e3,SCN,2024-06-11_10h19.24.419,LearnStrategy,2023.2.3,Win32,59.52380952,2,2,6,,,,,,,,6,08,,,,,,,,,,,6,3.795,1,,,,,,-0.080555556,-0.399074074,1,0,0,3.7953,Pegmatite_rect,5,0,5,0,1,
5f81fc9446ee002f681ea5e3,SCN,2024-06-11_10h19.24.419,LearnStrategy,2023.2.3,Win32,59.52380952,2,2,7,,,,,,,,4,01,,,,,,,,,,,4,5.678,1,,,,,,0.390740741,-0.256481481,1,0,0,5.6785,Gabbro_rect,6,0,6,0,1,
5f81fc9446ee002f681ea5e3,SCN,2024-06-11_10h19.24.419,LearnStrategy,2023.2.3,Win32,59.52380952,2,2,8,,,,,,,,1,01,,,,,,,,,,,4,4.729,0,,,,,,0.37962963,-0.232407407,1,0,0,4.7288,Gabbro_rect,7,0,7,0,1,
5f81fc9446ee002f681ea5e3,SCN,2024-06-11_10h19.24.419,LearnStrategy,2023.2.3,Win32,59.52380952,2,2,9,,,,,,,,3,16,,,,,,,,,,,1,2.411,0,,,,,,-0.399074074,-0.248148148,1,0,0,2.4113,Andesite_rect,8,0,8,0,1,
5f81fc9446ee002f681ea5e3,SCN,2024-06-11_10h19.24.419,LearnStrategy,2023.2.3,Win32,59.52380952,2,2,10,,,,,,,,4,03,,,,,,,,,,,1,2.279,0,,,,,,-0.336111111,-0.243518519,1,0,0,2.2788,Andesite_rect,9,0,9,0,1,
5f81fc9446ee002f681ea5e3,SCN,2024-06-11_10h19.24.419,LearnStrategy,2023.2.3,Win32,59.52380952,2,2,11,,,,,,,,7,13,,,,,,,,,,,7,4.544,1,,,,,,0.084259259,-0.412037037,1,0,0,4.5443,Peridotite_rect,10,0,10,0,1,
5f81fc9446ee002f681ea5e3,SCN,2024-06-11_10h19.24.419,LearnStrategy,2023.2.3,Win32,59.52380952,2,2,12,,,,,,,,3,06,,,,,,,,,,,1,2.211,0,,,,,,-0.325925926,-0.243518519,1,0,0,2.2112,Andesite_rect,11,0,11,0,1,
5f81fc9446ee002f681ea5e3,SCN,2024-06-11_10h19.24.419,LearnStrategy,2023.2.3,Win32,59.52380952,2,2,13,,,,,,,,2,06,,,,,,,,,,,2,1.928,1,,,,,,-0.147222222,-0.228703704,1,0,0,1.9282,Basalt_rect,12,0,12,0,1,
5f81fc9446ee002f681ea5e3,SCN,2024-06-11_10h19.24.419,LearnStrategy,2023.2.3,Win32,59.52380952,2,2,14,,,,,,,,5,12,,,,,,,,,,,5,1.286,1,,,,,,-0.359259259,-0.392592593,1,0,0,1.2862,Obsidian_rect,13,0,13,0,1,
5f81fc9446ee002f681ea5e3,SCN,2024-06-11_10h19.24.419,LearnStrategy,2023.2.3,Win32,59.52380952,2,2,15,,,,,,,,2,05,,,,,,,,,,,2,1.8,1,,,,,,-0.097222222,-0.247222222,1,0,0,1.7998,Basalt_rect,14,0,14,0,1,
5f81fc9446ee002f681ea5e3,SCN,2024-06-11_10h19.24.419,LearnStrategy,2023.2.3,Win32,59.52380952,2,2,16,,,,,,,,6,11,,,,,,,,,,,3,7.638,0,,,,,,0.071296296,-0.237037037,1,0,0,7.638,Diorite_rect,15,0,15,0,1,
5f81fc9446ee002f681ea5e3,SCN,2024-06-11_10h19.24.419,LearnStrategy,2023.2.3,Win32,59.52380952,3,1,1,-0.522222222,0.385185185,1,0,0,3.6951,Basalt_04,2,04,6,1,3.695,-0.135185185,-0.249074074,1,0,0,1.3053,Basalt_rect,2,1.305,1,0,0,0,0,1,,,,,,,,,,,,,
5f81fc9446ee002f681ea5e3,SCN,2024-06-11_10h19.24.419,LearnStrategy,2023.2.3,Win32,59.52380952,3,1,2,-0.537037037,0.115740741,1,0,0,1.5657,Peridotite_07,7,07,4,1,1.566,-0.315740741,-0.249074074,1,0,0,3.6448,Andesite_rect,1,3.645,0,1,0,1,0,1,,,,,,,,,,,,,
5f81fc9446ee002f681ea5e3,SCN,2024-06-11_10h19.24.419,LearnStrategy,2023.2.3,Win32,59.52380952,3,1,3,-0.541666667,-0.132407407,1,0,0,2.0985,Basalt_11,2,11,3,1,2.099,-0.09537037,-0.234259259,1,0,0,1.7946,Basalt_rect,2,1.795,1,2,0,2,0,1,,,,,,,,,,,,,
5f81fc9446ee002f681ea5e3,SCN,2024-06-11_10h19.24.419,LearnStrategy,2023.2.3,Win32,59.52380952,3,1,4,-0.555555556,-0.250925926,1,0,0,1.1326,Gabbro_12,4,12,2,1,1.133,-0.361111111,-0.240740741,1,0,0,1.4945,Andesite_rect,1,1.495,0,3,0,3,0,1,,,,,,,,,,,,,
5f81fc9446ee002f681ea5e3,SCN,2024-06-11_10h19.24.419,LearnStrategy,2023.2.3,Win32,59.52380952,3,1,5,-0.551851852,-0.425925926,1,0,0,2.3492,Diorite_14,3,14,1,1,2.349,-0.375925926,-0.232407407,1,0,0,1.2718,Andesite_rect,1,1.272,0,4,0,4,0,1,,,,,,,,,,,,,
5f81fc9446ee002f681ea5e3,SCN,2024-06-11_10h19.24.419,LearnStrategy,2023.2.3,Win32,59.52380952,3,1,6,0.083333333,-0.133333333,1,0,0,4.0658,Pegmatite_12,6,12,3,5,4.066,0.186111111,-0.250925926,1,0,0,0.7552,Diorite_rect,3,0.755,0,5,0,5,0,1,,,,,,,,,,,,,
5f81fc9446ee002f681ea5e3,SCN,2024-06-11_10h19.24.419,LearnStrategy,2023.2.3,Win32,59.52380952,3,1,7,-0.397222222,-0.456481481,1,0,0,3.2166,Obsidian_16,5,16,1,2,3.217,-0.384259259,-0.392592593,1,0,0,1.0279,Obsidian_rect,5,1.028,1,6,0,6,0,1,,,,,,,,,,,,,
5f81fc9446ee002f681ea5e3,SCN,2024-06-11_10h19.24.419,LearnStrategy,2023.2.3,Win32,59.52380952,3,1,8,-0.062037037,-0.430555556,1,0,0,1.4495,Pumice_03,8,03,1,4,1.449,0.465740741,-0.390740741,1,0,0,0.9779,Pumice_rect,8,0.978,1,7,0,7,0,1,,,,,,,,,,,,,
5f81fc9446ee002f681ea5e3,SCN,2024-06-11_10h19.24.419,LearnStrategy,2023.2.3,Win32,59.52380952,3,1,9,0.10462963,-0.378703704,1,0,0,1.2497,Diorite_09,3,09,1,5,1.25,0.415740741,-0.259259259,1,0,0,2.2613,Gabbro_rect,4,2.261,0,8,0,8,0,1,,,,,,,,,,,,,
5f81fc9446ee002f681ea5e3,SCN,2024-06-11_10h19.24.419,LearnStrategy,2023.2.3,Win32,59.52380952,3,1,10,0.221296296,-0.428703704,1,0,0,4.199,Pegmatite_16,6,16,1,6,4.199,0.165740741,-0.264814815,1,0,0,2.1886,Diorite_rect,3,2.189,0,9,0,9,0,1,,,,,,,,,,,,,
5f81fc9446ee002f681ea5e3,SCN,2024-06-11_10h19.24.419,LearnStrategy,2023.2.3,Win32,59.52380952,3,1,11,0.416666667,-0.42037037,1,0,0,2.0985,Basalt_09,2,09,1,7,2.099,-0.163888889,-0.260185185,1,0,0,1.761,Basalt_rect,2,1.761,1,10,0,10,0,1,,,,,,,,,,,,,
5f81fc9446ee002f681ea5e3,SCN,2024-06-11_10h19.24.419,LearnStrategy,2023.2.3,Win32,59.52380952,3,1,12,0.547222222,-0.239814815,1,0,0,1.899,Pegmatite_15,6,15,2,8,1.899,0.080555556,-0.232407407,1,0,0,1.7612,Diorite_rect,3,1.761,0,11,0,11,0,1,,,,,,,,,,,,,
5f81fc9446ee002f681ea5e3,SCN,2024-06-11_10h19.24.419,LearnStrategy,2023.2.3,Win32,59.52380952,3,1,13,0.424074074,-0.293518519,1,0,0,1.9157,Peridotite_06,7,06,2,7,1.916,0.177777778,-0.407407407,1,0,0,1.0282,Peridotite_rect,7,1.028,1,12,0,12,0,1,,,,,,,,,,,,,
5f81fc9446ee002f681ea5e3,SCN,2024-06-11_10h19.24.419,LearnStrategy,2023.2.3,Win32,59.52380952,3,1,14,0.563888889,-0.109259259,1,0,0,4.4492,Diorite_08,3,08,3,8,4.449,0.199074074,-0.241666667,1,0,0,1.2887,Diorite_rect,3,1.289,1,13,0,13,0,1,,,,,,,,,,,,,
5f81fc9446ee002f681ea5e3,SCN,2024-06-11_10h19.24.419,LearnStrategy,2023.2.3,Win32,59.52380952,3,1,15,0.561111111,0.07962963,1,0,0,2.6494,Peridotite_14,7,14,4,8,2.649,-0.380555556,-0.234259259,1,0,0,2.1215,Andesite_rect,1,2.121,0,14,0,14,0,1,,,,,,,,,,,,,
5f81fc9446ee002f681ea5e3,SCN,2024-06-11_10h19.24.419,LearnStrategy,2023.2.3,Win32,59.52380952,3,1,16,-0.213888889,0.076851852,1,0,0,8.182,Andesite_07,1,07,4,3,8.182,-0.325925926,-0.255555556,1,0,0,2.1208,Andesite_rect,1,2.121,1,15,0,15,0,1,,,,,,,,,,,,,
5f81fc9446ee002f681ea5e3,SCN,2024-06-11_10h19.24.419,LearnStrategy,2023.2.3,Win32,59.52380952,3,2,1,,,,,,,,3,07,,,,,,,,,,,3,4.279,1,,,,,,0.05462963,-0.240740741,1,0,0,4.279,Diorite_rect,0,0,0,0,1,
5f81fc9446ee002f681ea5e3,SCN,2024-06-11_10h19.24.419,LearnStrategy,2023.2.3,Win32,59.52380952,3,2,2,,,,,,,,1,02,,,,,,,,,,,6,3.079,0,,,,,,-0.076851852,-0.392592593,1,0,0,3.0785,Pegmatite_rect,1,0,1,0,1,
5f81fc9446ee002f681ea5e3,SCN,2024-06-11_10h19.24.419,LearnStrategy,2023.2.3,Win32,59.52380952,3,2,3,,,,,,,,8,02,,,,,,,,,,,8,1.761,1,,,,,,0.421296296,-0.400925926,1,0,0,1.7614,Pumice_rect,2,0,2,0,1,
5f81fc9446ee002f681ea5e3,SCN,2024-06-11_10h19.24.419,LearnStrategy,2023.2.3,Win32,59.52380952,3,2,4,,,,,,,,1,14,,,,,,,,,,,6,6.178,0,,,,,,-0.075,-0.39537037,1,0,0,6.1779,Pegmatite_rect,3,0,3,0,1,
5f81fc9446ee002f681ea5e3,SCN,2024-06-11_10h19.24.419,LearnStrategy,2023.2.3,Win32,59.52380952,3,2,5,,,,,,,,6,05,,,,,,,,,,,3,6.095,0,,,,,,0.124074074,-0.260185185,1,0,0,6.0946,Diorite_rect,4,0,4,0,1,
5f81fc9446ee002f681ea5e3,SCN,2024-06-11_10h19.24.419,LearnStrategy,2023.2.3,Win32,59.52380952,3,2,6,,,,,,,,3,12,,,,,,,,,,,3,2.179,1,,,,,,0.10462963,-0.239814815,1,0,0,2.1787,Diorite_rect,5,0,5,0,1,
5f81fc9446ee002f681ea5e3,SCN,2024-06-11_10h19.24.419,LearnStrategy,2023.2.3,Win32,59.52380952,3,2,7,,,,,,,,4,16,,,,,,,,,,,2,1.306,0,,,,,,-0.134259259,-0.232407407,1,0,0,1.3058,Basalt_rect,6,0,6,0,1,
5f81fc9446ee002f681ea5e3,SCN,2024-06-11_10h19.24.419,LearnStrategy,2023.2.3,Win32,59.52380952,3,2,8,,,,,,,,2,01,,,,,,,,,,,2,1.077,1,,,,,,-0.091666667,-0.232407407,1,0,0,1.0775,Basalt_rect,7,0,7,0,1,
5f81fc9446ee002f681ea5e3,SCN,2024-06-11_10h19.24.419,LearnStrategy,2023.2.3,Win32,59.52380952,3,2,9,,,,,,,,7,10,,,,,,,,,,,7,1.712,1,,,,,,0.106481481,-0.384259259,1,0,0,1.7116,Peridotite_rect,8,0,8,0,1,
5f81fc9446ee002f681ea5e3,SCN,2024-06-11_10h19.24.419,LearnStrategy,2023.2.3,Win32,59.52380952,3,2,10,,,,,,,,6,09,,,,,,,,,,,6,7.856,1,,,,,,-0.174074074,-0.412037037,1,0,0,7.8558,Pegmatite_rect,9,0,9,0,1,
5f81fc9446ee002f681ea5e3,SCN,2024-06-11_10h19.24.419,LearnStrategy,2023.2.3,Win32,59.52380952,3,2,11,,,,,,,,2,14,,,,,,,,,,,2,1.544,1,,,,,,-0.124074074,-0.249074074,1,0,0,1.5445,Basalt_rect,10,0,10,0,1,
5f81fc9446ee002f681ea5e3,SCN,2024-06-11_10h19.24.419,LearnStrategy,2023.2.3,Win32,59.52380952,3,2,12,,,,,,,,5,04,,,,,,,,,,,5,1.279,1,,,,,,-0.409259259,-0.383333333,1,0,0,1.2786,Obsidian_rect,11,0,11,0,1,
5f81fc9446ee002f681ea5e3,SCN,2024-06-11_10h19.24.419,LearnStrategy,2023.2.3,Win32,59.52380952,3,2,13,,,,,,,,5,14,,,,,,,,,,,5,0.895,1,,,,,,-0.409259259,-0.383333333,1,0,0,0.8945,Obsidian_rect,12,0,12,0,1,
5f81fc9446ee002f681ea5e3,SCN,2024-06-11_10h19.24.419,LearnStrategy,2023.2.3,Win32,59.52380952,3,2,14,,,,,,,,4,15,,,,,,,,,,,4,3.578,1,,,,,,0.434259259,-0.251851852,1,0,0,3.5781,Gabbro_rect,13,0,13,0,1,
5f81fc9446ee002f681ea5e3,SCN,2024-06-11_10h19.24.419,LearnStrategy,2023.2.3,Win32,59.52380952,3,2,15,,,,,,,,7,12,,,,,,,,,,,6,5.178,0,,,,,,-0.125925926,-0.403703704,1,0,0,5.1781,Pegmatite_rect,14,0,14,0,1,
5f81fc9446ee002f681ea5e3,SCN,2024-06-11_10h19.24.419,LearnStrategy,2023.2.3,Win32,59.52380952,3,2,16,,,,,,,,8,05,,,,,,,,,,,8,1.195,1,,,,,,0.437962963,-0.397222222,1,0,0,1.1946,Pumice_rect,15,0,15,0,1,
5f81fc9446ee002f681ea5e3,SCN,2024-06-11_10h19.24.419,LearnStrategy,2023.2.3,Win32,59.52380952,4,1,1,-0.200925926,0.135185185,1,0,0,3.2222,Andesite_07,1,07,4,3,3.222,-0.369444444,-0.265740741,1,0,0,0.6888,Andesite_rect,1,0.689,1,0,0,0,0,1,,,,,,,,,,,,,
5f81fc9446ee002f681ea5e3,SCN,2024-06-11_10h19.24.419,LearnStrategy,2023.2.3,Win32,59.52380952,4,1,2,0.106481481,-0.077777778,1,0,0,1.2293,Pegmatite_12,6,12,3,5,1.229,0.108333333,-0.242592593,1,0,0,1.0141,Diorite_rect,3,1.014,0,1,0,1,0,1,,,,,,,,,,,,,
5f81fc9446ee002f681ea5e3,SCN,2024-06-11_10h19.24.419,LearnStrategy,2023.2.3,Win32,59.52380952,4,1,3,0.210185185,-0.103703704,1,0,0,1.5685,Diorite_11,3,11,3,6,1.569,0.131481481,-0.232407407,1,0,0,2.2651,Diorite_rect,3,2.265,1,2,0,2,0,1,,,,,,,,,,,,,
5f81fc9446ee002f681ea5e3,SCN,2024-06-11_10h19.24.419,LearnStrategy,2023.2.3,Win32,59.52380952,4,1,4,0.576851852,-0.092592593,1,0,0,0.8388,Diorite_08,3,08,3,8,0.839,0.119444444,-0.237037037,1,0,0,0.8137,Diorite_rect,3,0.814,1,3,0,3,0,1,,,,,,,,,,,,,
5f81fc9446ee002f681ea5e3,SCN,2024-06-11_10h19.24.419,LearnStrategy,2023.2.3,Win32,59.52380952,4,1,5,0.076851852,-0.440740741,1,0,0,1.7853,Diorite_09,3,09,1,5,1.785,0.321296296,-0.230555556,1,0,0,2.3047,Gabbro_rect,4,2.305,0,4,0,4,0,1,,,,,,,,,,,,,
5f81fc9446ee002f681ea5e3,SCN,2024-06-11_10h19.24.419,LearnStrategy,2023.2.3,Win32,59.52380952,4,1,6,-0.222222222,0.086111111,1,0,0,3.1492,Andesite_07,1,07,4,3,3.149,-0.083333333,-0.387962963,1,0,0,1.9108,Pegmatite_rect,6,1.911,0,5,0,5,0,1,,,,,,,,,,,,,
5f81fc9446ee002f681ea5e3,SCN,2024-06-11_10h19.24.419,LearnStrategy,2023.2.3,Win32,59.52380952,4,1,7,-0.376851852,-0.252777778,1,0,0,2.5988,Diorite_02,3,02,2,2,2.599,-0.175,-0.400925926,1,0,0,2.5971,Pegmatite_rect,6,2.597,0,6,0,6,0,1,,,,,,,,,,,,,
5f81fc9446ee002f681ea5e3,SCN,2024-06-11_10h19.24.419,LearnStrategy,2023.2.3,Win32,59.52380952,4,1,8,-0.547222222,-0.386111111,1,0,0,1.5055,Diorite_14,3,14,1,1,1.505,0.07962963,-0.240740741,1,0,0,1.1133,Diorite_rect,3,1.113,1,7,0,7,0,1,,,,,,,,,,,,,
5f81fc9446ee002f681ea5e3,SCN,2024-06-11_10h19.24.419,LearnStrategy,2023.2.3,Win32,59.52380952,4,1,9,0.288888889,-0.117592593,1,0,0,1.5067,Diorite_11,3,11,3,6,1.507,-0.07037037,-0.413888889,1,0,0,1.6301,Pegmatite_rect,6,1.63,0,8,0,8,0,1,,,,,,,,,,,,,
5f81fc9446ee002f681ea5e3,SCN,2024-06-11_10h19.24.419,LearnStrategy,2023.2.3,Win32,59.52380952,4,1,10,0.269444444,0.094444444,1,0,0,1.8354,Pegmatite_13,6,13,4,6,1.835,0.369444444,-0.260185185,1,0,0,5.053,Gabbro_rect,4,5.053,0,9,0,9,0,1,,,,,,,,,,,,,
5f81fc9446ee002f681ea5e3,SCN,2024-06-11_10h19.24.419,LearnStrategy,2023.2.3,Win32,59.52380952,4,1,11,0.535185185,-0.246296296,1,0,0,2.0485,Pegmatite_15,6,15,2,8,2.049,-0.10462963,-0.402777778,1,0,0,2.4117,Pegmatite_rect,6,2.412,1,10,0,10,0,1,,,,,,,,,,,,,
5f81fc9446ee002f681ea5e3,SCN,2024-06-11_10h19.24.419,LearnStrategy,2023.2.3,Win32,59.52380952,4,1,12,0.538888889,0.056481481,1,0,0,3.7988,Peridotite_14,7,14,4,8,3.799,-0.056481481,-0.384259259,1,0,0,4.4119,Pegmatite_rect,6,4.412,0,11,0,11,0,1,,,,,,,,,,,,,
5f81fc9446ee002f681ea5e3,SCN,2024-06-11_10h19.24.419,LearnStrategy,2023.2.3,Win32,59.52380952,4,1,13,0.37962963,0.212037037,1,0,0,3.4654,Pegmatite_03,6,03,5,7,3.465,-0.075,-0.402777778,1,0,0,2.13,Pegmatite_rect,6,2.13,1,12,0,12,0,1,,,,,,,,,,,,,
5f81fc9446ee002f681ea5e3,SCN,2024-06-11_10h19.24.419,LearnStrategy,2023.2.3,Win32,59.52380952,4,1,14,0.051851852,0.069444444,1,0,0,1.7984,Andesite_04,1,04,4,5,1.798,-0.389814815,-0.242592593,1,0,0,2.1779,Andesite_rect,1,2.178,1,13,0,13,0,1,,,,,,,,,,,,,
5f81fc9446ee002f681ea5e3,SCN,2024-06-11_10h19.24.419,LearnStrategy,2023.2.3,Win32,59.52380952,4,1,15,-0.226851852,0.074074074,1,0,0,2.2322,Andesite_07,1,07,4,3,2.232,-0.35,-0.251851852,1,0,0,1.9278,Andesite_rect,1,1.928,1,14,0,14,0,1,,,,,,,,,,,,,
5f81fc9446ee002f681ea5e3,SCN,2024-06-11_10h19.24.419,LearnStrategy,2023.2.3,Win32,59.52380952,4,1,16,-0.513888889,0.096296296,1,0,0,3.316,Peridotite_07,7,07,4,1,3.316,0.101851852,-0.402777778,1,0,0,1.7718,Peridotite_rect,7,1.772,1,15,0,15,0,1,,,,,,,,,,,,,
5f81fc9446ee002f681ea5e3,SCN,2024-06-11_10h19.24.419,LearnStrategy,2023.2.3,Win32,59.52380952,4,2,1,,,,,,,,2,05,,,,,,,,,,,2,1.195,1,,,,,,-0.155555556,-0.235185185,1,0,0,1.1951,Basalt_rect,0,0,0,0,1,
5f81fc9446ee002f681ea5e3,SCN,2024-06-11_10h19.24.419,LearnStrategy,2023.2.3,Win32,59.52380952,4,2,2,,,,,,,,3,15,,,,,,,,,,,3,4.312,1,,,,,,0.146296296,-0.267592593,1,0,0,4.3115,Diorite_rect,1,0,1,0,1,
5f81fc9446ee002f681ea5e3,SCN,2024-06-11_10h19.24.419,LearnStrategy,2023.2.3,Win32,59.52380952,4,2,3,,,,,,,,5,05,,,,,,,,,,,5,1.728,1,,,,,,-0.360185185,-0.412037037,1,0,0,1.7282,Obsidian_rect,2,0,2,0,1,
5f81fc9446ee002f681ea5e3,SCN,2024-06-11_10h19.24.419,LearnStrategy,2023.2.3,Win32,59.52380952,4,2,4,,,,,,,,8,06,,,,,,,,,,,8,1.845,1,,,,,,0.32037037,-0.412962963,1,0,0,1.8449,Pumice_rect,3,0,3,0,1,
5f81fc9446ee002f681ea5e3,SCN,2024-06-11_10h19.24.419,LearnStrategy,2023.2.3,Win32,59.52380952,4,2,5,,,,,,,,4,01,,,,,,,,,,,1,5.728,0,,,,,,-0.35,-0.240740741,1,0,0,5.7281,Andesite_rect,4,0,4,0,1,
5f81fc9446ee002f681ea5e3,SCN,2024-06-11_10h19.24.419,LearnStrategy,2023.2.3,Win32,59.52380952,4,2,6,,,,,,,,7,16,,,,,,,,,,,6,1.828,0,,,,,,-0.097222222,-0.407407407,1,0,0,1.8278,Pegmatite_rect,5,0,5,0,1,
5f81fc9446ee002f681ea5e3,SCN,2024-06-11_10h19.24.419,LearnStrategy,2023.2.3,Win32,59.52380952,4,2,7,,,,,,,,1,02,,,,,,,,,,,1,4.362,1,,,,,,-0.362037037,-0.253703704,1,0,0,4.3623,Andesite_rect,6,0,6,0,1,
5f81fc9446ee002f681ea5e3,SCN,2024-06-11_10h19.24.419,LearnStrategy,2023.2.3,Win32,59.52380952,4,2,8,,,,,,,,6,11,,,,,,,,,,,6,9.562,1,,,,,,-0.073148148,-0.39537037,1,0,0,9.5622,Pegmatite_rect,7,0,7,0,1,
5f81fc9446ee002f681ea5e3,SCN,2024-06-11_10h19.24.419,LearnStrategy,2023.2.3,Win32,59.52380952,4,2,9,,,,,,,,8,10,,,,,,,,,,,8,1.078,1,,,,,,0.42962963,-0.399074074,1,0,0,1.078,Pumice_rect,8,0,8,0,1,
5f81fc9446ee002f681ea5e3,SCN,2024-06-11_10h19.24.419,LearnStrategy,2023.2.3,Win32,59.52380952,4,2,10,,,,,,,,7,15,,,,,,,,,,,7,1.528,1,,,,,,0.172222222,-0.394444444,1,0,0,1.5276,Peridotite_rect,9,0,9,0,1,
5f81fc9446ee002f681ea5e3,SCN,2024-06-11_10h19.24.419,LearnStrategy,2023.2.3,Win32,59.52380952,4,2,11,,,,,,,,4,16,,,,,,,,,,,2,1.578,0,,,,,,-0.178703704,-0.25462963,1,0,0,1.5779,Basalt_rect,10,0,10,0,1,
5f81fc9446ee002f681ea5e3,SCN,2024-06-11_10h19.24.419,LearnStrategy,2023.2.3,Win32,59.52380952,4,2,12,,,,,,,,1,16,,,,,,,,,,,1,4.479,1,,,,,,-0.419444444,-0.22962963,1,0,0,4.4786,Andesite_rect,11,0,11,0,1,
5f81fc9446ee002f681ea5e3,SCN,2024-06-11_10h19.24.419,LearnStrategy,2023.2.3,Win32,59.52380952,4,2,13,,,,,,,,2,01,,,,,,,,,,,2,1.345,1,,,,,,-0.139814815,-0.267592593,1,0,0,1.3447,Basalt_rect,12,0,12,0,1,
5f81fc9446ee002f681ea5e3,SCN,2024-06-11_10h19.24.419,LearnStrategy,2023.2.3,Win32,59.52380952,4,2,14,,,,,,,,3,12,,,,,,,,,,,3,1.544,1,,,,,,0.091666667,-0.242592593,1,0,0,1.5442,Diorite_rect,13,0,13,0,1,
5f81fc9446ee002f681ea5e3,SCN,2024-06-11_10h19.24.419,LearnStrategy,2023.2.3,Win32,59.52380952,4,2,15,,,,,,,,5,04,,,,,,,,,,,5,1.312,1,,,,,,-0.416666667,-0.385185185,1,0,0,1.3115,Obsidian_rect,14,0,14,0,1,
5f81fc9446ee002f681ea5e3,SCN,2024-06-11_10h19.24.419,LearnStrategy,2023.2.3,Win32,59.52380952,4,2,16,,,,,,,,6,06,,,,,,,,,,,3,4.591,0,,,,,,0.110185185,-0.250925926,1,0,0,4.5913,Diorite_rect,15,0,15,0,1,
5f81fc9446ee002f681ea5e3,SCN,2024-06-11_10h19.24.419,LearnStrategy,2023.2.3,Win32,59.52380952,5,1,1,0.541666667,0.390740741,1,0,0,2.5159,Gabbro_14,4,14,6,8,2.516,0.310185185,-0.240740741,1,0,0,2.4447,Gabbro_rect,4,2.445,1,0,0,0,0,1,,,,,,,,,,,,,
5f81fc9446ee002f681ea5e3,SCN,2024-06-11_10h19.24.419,LearnStrategy,2023.2.3,Win32,59.52380952,5,1,2,0.566666667,0.094444444,1,0,0,2.8321,Peridotite_14,7,14,4,8,2.832,0.085185185,-0.387962963,1,0,0,1.0631,Peridotite_rect,7,1.063,1,1,0,1,0,1,,,,,,,,,,,,,
5f81fc9446ee002f681ea5e3,SCN,2024-06-11_10h19.24.419,LearnStrategy,2023.2.3,Win32,59.52380952,5,1,3,-0.076851852,-0.376851852,1,0,0,6.6492,Pumice_03,8,03,1,4,6.649,0.341666667,-0.394444444,1,0,0,1.2048,Pumice_rect,8,1.205,1,2,0,2,0,1,,,,,,,,,,,,,
5f81fc9446ee002f681ea5e3,SCN,2024-06-11_10h19.24.419,LearnStrategy,2023.2.3,Win32,59.52380952,5,1,4,-0.555555556,-0.393518519,1,0,0,2.9496,Diorite_14,3,14,1,1,2.95,0.116666667,-0.263888889,1,0,0,8.1282,Diorite_rect,3,8.128,1,3,0,3,0,1,,,,,,,,,,,,,
5f81fc9446ee002f681ea5e3,SCN,2024-06-11_10h19.24.419,LearnStrategy,2023.2.3,Win32,59.52380952,5,1,5,-0.398148148,-0.243518519,1,0,0,1.8988,Diorite_02,3,02,2,2,1.899,-0.166666667,-0.394444444,1,0,0,3.6945,Pegmatite_rect,6,3.695,0,4,0,4,0,1,,,,,,,,,,,,,
5f81fc9446ee002f681ea5e3,SCN,2024-06-11_10h19.24.419,LearnStrategy,2023.2.3,Win32,59.52380952,5,1,6,-0.238888889,0.125925926,1,0,0,2.699,Andesite_07,1,07,4,3,2.699,-0.383333333,-0.232407407,1,0,0,1.2613,Andesite_rect,1,1.261,1,5,0,5,0,1,,,,,,,,,,,,,
5f81fc9446ee002f681ea5e3,SCN,2024-06-11_10h19.24.419,LearnStrategy,2023.2.3,Win32,59.52380952,5,1,7,0.069444444,0.086111111,1,0,0,1.1998,Andesite_04,1,04,4,5,1.2,-0.412037037,-0.240740741,1,0,0,1.6776,Andesite_rect,1,1.678,1,6,0,6,0,1,,,,,,,,,,,,,
5f81fc9446ee002f681ea5e3,SCN,2024-06-11_10h19.24.419,LearnStrategy,2023.2.3,Win32,59.52380952,5,1,8,0.380555556,0.257407407,1,0,0,6.4993,Pegmatite_03,6,03,5,7,6.499,-0.123148148,-0.392592593,1,0,0,1.1717,Pegmatite_rect,6,1.172,1,7,0,7,0,1,,,,,,,,,,,,,
5f81fc9446ee002f681ea5e3,SCN,2024-06-11_10h19.24.419,LearnStrategy,2023.2.3,Win32,59.52380952,5,1,9,0.383333333,-0.267592593,1,0,0,1.1158,Peridotite_06,7,06,2,7,1.116,0.133333333,-0.409259259,1,0,0,1.3947,Peridotite_rect,7,1.395,1,8,0,8,0,1,,,,,,,,,,,,,
5f81fc9446ee002f681ea5e3,SCN,2024-06-11_10h19.24.419,LearnStrategy,2023.2.3,Win32,59.52380952,5,1,10,0.533333333,0.400925926,1,0,0,4.166,Gabbro_14,4,14,6,8,4.166,-0.108333333,-0.236111111,1,0,0,1.5477,Basalt_rect,2,1.548,0,9,0,9,0,1,,,,,,,,,,,,,
5f81fc9446ee002f681ea5e3,SCN,2024-06-11_10h19.24.419,LearnStrategy,2023.2.3,Win32,59.52380952,5,1,11,-0.55,0.07962963,1,0,0,3.9681,Peridotite_07,7,07,4,1,3.968,0.113888889,-0.387962963,1,0,0,1.246,Peridotite_rect,7,1.246,1,10,0,10,0,1,,,,,,,,,,,,,
5f81fc9446ee002f681ea5e3,SCN,2024-06-11_10h19.24.419,LearnStrategy,2023.2.3,Win32,59.52380952,5,1,12,0.225,-0.252777778,1,0,0,3.7821,Pumice_16,8,16,2,6,3.782,0.456481481,-0.402777778,1,0,0,0.7554,Pumice_rect,8,0.755,1,11,0,11,0,1,,,,,,,,,,,,,
5f81fc9446ee002f681ea5e3,SCN,2024-06-11_10h19.24.419,LearnStrategy,2023.2.3,Win32,59.52380952,5,1,13,-0.098148148,0.072222222,1,0,0,1.9995,Basalt_16,2,16,4,4,1.999,0.471296296,-0.27037037,1,0,0,2.0116,Gabbro_rect,4,2.012,0,12,0,12,0,1,,,,,,,,,,,,,
5f81fc9446ee002f681ea5e3,SCN,2024-06-11_10h19.24.419,LearnStrategy,2023.2.3,Win32,59.52380952,5,1,14,-0.038888889,-0.412962963,1,0,0,4.8157,Pumice_03,8,03,1,4,4.816,0.378703704,-0.384259259,1,0,0,1.0054,Pumice_rect,8,1.005,1,13,0,13,0,1,,,,,,,,,,,,,
5f81fc9446ee002f681ea5e3,SCN,2024-06-11_10h19.24.419,LearnStrategy,2023.2.3,Win32,59.52380952,5,1,15,0.062962963,-0.09537037,1,0,0,1.4159,Pegmatite_12,6,12,3,5,1.416,-0.105555556,-0.412962963,1,0,0,1.1446,Pegmatite_rect,6,1.145,1,14,0,14,0,1,,,,,,,,,,,,,
5f81fc9446ee002f681ea5e3,SCN,2024-06-11_10h19.24.419,LearnStrategy,2023.2.3,Win32,59.52380952,5,1,16,0.397222222,-0.22962963,1,0,0,1.4495,Peridotite_06,7,06,2,7,1.449,0.071296296,-0.407407407,1,0,0,1.0283,Peridotite_rect,7,1.028,1,15,0,15,0,1,,,,,,,,,,,,,
5f81fc9446ee002f681ea5e3,SCN,2024-06-11_10h19.24.419,LearnStrategy,2023.2.3,Win32,59.52380952,5,2,1,,,,,,,,1,01,,,,,,,,,,,1,6.795,1,,,,,,-0.351851852,-0.249074074,1,0,0,6.7953,Andesite_rect,0,0,0,0,1,
5f81fc9446ee002f681ea5e3,SCN,2024-06-11_10h19.24.419,LearnStrategy,2023.2.3,Win32,59.52380952,5,2,2,,,,,,,,7,12,,,,,,,,,,,7,1.856,1,,,,,,0.10462963,-0.390740741,1,0,0,1.8558,Peridotite_rect,1,0,1,0,1,
5f81fc9446ee002f681ea5e3,SCN,2024-06-11_10h19.24.419,LearnStrategy,2023.2.3,Win32,59.52380952,5,2,3,,,,,,,,1,14,,,,,,,,,,,6,5.04,0,,,,,,-0.103703704,-0.40462963,1,0,0,5.0398,Pegmatite_rect,2,0,2,0,1,
5f81fc9446ee002f681ea5e3,SCN,2024-06-11_10h19.24.419,LearnStrategy,2023.2.3,Win32,59.52380952,5,2,4,,,,,,,,4,03,,,,,,,,,,,1,2.416,0,,,,,,-0.396296296,-0.234259259,1,0,0,2.4161,Andesite_rect,3,0,3,0,1,
5f81fc9446ee002f681ea5e3,SCN,2024-06-11_10h19.24.419,LearnStrategy,2023.2.3,Win32,59.52380952,5,2,5,,,,,,,,4,09,,,,,,,,,,,1,11.623,0,,,,,,-0.371296296,-0.249074074,1,0,0,11.6226,Andesite_rect,4,0,4,0,1,
5f81fc9446ee002f681ea5e3,SCN,2024-06-11_10h19.24.419,LearnStrategy,2023.2.3,Win32,59.52380952,5,2,6,,,,,,,,6,07,,,,,,,,,,,6,6.356,1,,,,,,-0.12962963,-0.396296296,1,0,0,6.3557,Pegmatite_rect,5,0,5,0,1,
5f81fc9446ee002f681ea5e3,SCN,2024-06-11_10h19.24.419,LearnStrategy,2023.2.3,Win32,59.52380952,5,2,7,,,,,,,,3,10,,,,,,,,,,,3,1.639,1,,,,,,0.12037037,-0.249074074,1,0,0,1.6391,Diorite_rect,6,0,6,0,1,
5f81fc9446ee002f681ea5e3,SCN,2024-06-11_10h19.24.419,LearnStrategy,2023.2.3,Win32,59.52380952,5,2,8,,,,,,,,2,12,,,,,,,,,,,2,3.862,1,,,,,,-0.15,-0.237962963,1,0,0,3.8619,Basalt_rect,7,0,7,0,1,
5f81fc9446ee002f681ea5e3,SCN,2024-06-11_10h19.24.419,LearnStrategy,2023.2.3,Win32,59.52380952,5,2,9,,,,,,,,3,07,,,,,,,,,,,3,1.389,1,,,,,,0.088888889,-0.238888889,1,0,0,1.3893,Diorite_rect,8,0,8,0,1,
5f81fc9446ee002f681ea5e3,SCN,2024-06-11_10h19.24.419,LearnStrategy,2023.2.3,Win32,59.52380952,5,2,10,,,,,,,,5,11,,,,,,,,,,,5,1.095,1,,,,,,-0.353703704,-0.392592593,1,0,0,1.0947,Obsidian_rect,9,0,9,0,1,
5f81fc9446ee002f681ea5e3,SCN,2024-06-11_10h19.24.419,LearnStrategy,2023.2.3,Win32,59.52380952,5,2,11,,,,,,,,8,05,,,,,,,,,,,8,1.062,1,,,,,,0.341666667,-0.407407407,1,0,0,1.0618,Pumice_rect,10,0,10,0,1,
5f81fc9446ee002f681ea5e3,SCN,2024-06-11_10h19.24.419,LearnStrategy,2023.2.3,Win32,59.52380952,5,2,12,,,,,,,,8,02,,,,,,,,,,,8,1.443,1,,,,,,0.402777778,-0.378703704,1,0,0,1.4427,Pumice_rect,11,0,11,0,1,
5f81fc9446ee002f681ea5e3,SCN,2024-06-11_10h19.24.419,LearnStrategy,2023.2.3,Win32,59.52380952,5,2,13,,,,,,,,6,05,,,,,,,,,,,3,3.195,0,,,,,,0.113888889,-0.255555556,1,0,0,3.1954,Diorite_rect,12,0,12,0,1,
5f81fc9446ee002f681ea5e3,SCN,2024-06-11_10h19.24.419,LearnStrategy,2023.2.3,Win32,59.52380952,5,2,14,,,,,,,,2,14,,,,,,,,,,,4,2.688,0,,,,,,0.32037037,-0.24537037,1,0,0,2.6879,Gabbro_rect,13,0,13,0,1,
5f81fc9446ee002f681ea5e3,SCN,2024-06-11_10h19.24.419,LearnStrategy,2023.2.3,Win32,59.52380952,5,2,15,,,,,,,,7,10,,,,,,,,,,,7,2.344,1,,,,,,0.130555556,-0.419444444,1,0,0,2.3443,Peridotite_rect,14,0,14,0,1,
5f81fc9446ee002f681ea5e3,SCN,2024-06-11_10h19.24.419,LearnStrategy,2023.2.3,Win32,59.52380952,5,2,16,,,,,,,,5,12,,,,,,,,,,,5,1.053,1,,,,,,-0.422222222,-0.386111111,1,0,0,1.0535,Obsidian_rect,15,0,15,0,1,
5f81fc9446ee002f681ea5e3,SCN,2024-06-11_10h19.24.419,LearnStrategy,2023.2.3,Win32,59.52380952,6,1,1,0.228703704,0.150925926,1,0,0,1.7995,Pegmatite_13,6,13,4,6,1.799,-0.105555556,-0.385185185,1,0,0,6.7617,Pegmatite_rect,6,6.762,1,0,0,0,0,1,,,,,,,,,,,,,
5f81fc9446ee002f681ea5e3,SCN,2024-06-11_10h19.24.419,LearnStrategy,2023.2.3,Win32,59.52380952,6,1,2,-0.513888889,-0.085185185,1,0,0,2.9493,Basalt_11,2,11,3,1,2.949,-0.078703704,-0.260185185,1,0,0,4.4889,Basalt_rect,2,4.489,1,1,0,1,0,1,,,,,,,,,,,,,
5f81fc9446ee002f681ea5e3,SCN,2024-06-11_10h19.24.419,LearnStrategy,2023.2.3,Win32,59.52380952,6,1,3,-0.533333333,-0.240740741,1,0,0,1.0661,Gabbro_12,4,12,2,1,1.066,-0.356481481,-0.249074074,1,0,0,2.4115,Andesite_rect,1,2.412,0,2,0,2,0,1,,,,,,,,,,,,,
5f81fc9446ee002f681ea5e3,SCN,2024-06-11_10h19.24.419,LearnStrategy,2023.2.3,Win32,59.52380952,6,1,4,-0.569444444,-0.22037037,1,0,0,1.5494,Gabbro_12,4,12,2,1,1.549,0.37037037,-0.22962963,1,0,0,0.795,Gabbro_rect,4,0.795,1,3,0,3,0,1,,,,,,,,,,,,,
5f81fc9446ee002f681ea5e3,SCN,2024-06-11_10h19.24.419,LearnStrategy,2023.2.3,Win32,59.52380952,6,1,5,-0.088888889,0.417592593,1,0,0,1.9663,Basalt_10,2,10,6,4,1.966,0.393518519,-0.249074074,1,0,0,1.1611,Gabbro_rect,4,1.161,0,4,0,4,0,1,,,,,,,,,,,,,
5f81fc9446ee002f681ea5e3,SCN,2024-06-11_10h19.24.419,LearnStrategy,2023.2.3,Win32,59.52380952,6,1,6,-0.528703704,-0.424074074,1,0,0,2.749,Diorite_14,3,14,1,1,2.749,0.101851852,-0.265740741,1,0,0,2.2378,Diorite_rect,3,2.238,1,5,0,5,0,1,,,,,,,,,,,,,
5f81fc9446ee002f681ea5e3,SCN,2024-06-11_10h19.24.419,LearnStrategy,2023.2.3,Win32,59.52380952,6,1,7,0.533333333,-0.224074074,1,0,0,2.6495,Pegmatite_15,6,15,2,8,2.649,-0.193518519,-0.405555556,1,0,0,0.8282,Pegmatite_rect,6,0.828,1,6,0,6,0,1,,,,,,,,,,,,,
5f81fc9446ee002f681ea5e3,SCN,2024-06-11_10h19.24.419,LearnStrategy,2023.2.3,Win32,59.52380952,6,1,8,0.441666667,0.086111111,1,0,0,1.1993,Peridotite_05,7,05,4,7,1.199,0.160185185,-0.411111111,1,0,0,1.1114,Peridotite_rect,7,1.111,1,7,0,7,0,1,,,,,,,,,,,,,
5f81fc9446ee002f681ea5e3,SCN,2024-06-11_10h19.24.419,LearnStrategy,2023.2.3,Win32,59.52380952,6,1,9,0.503703704,0.04537037,1,0,0,1.0826,Peridotite_14,7,14,4,8,1.083,0.162962963,-0.415740741,1,0,0,2.3782,Peridotite_rect,7,2.378,1,8,0,8,0,1,,,,,,,,,,,,,
5f81fc9446ee002f681ea5e3,SCN,2024-06-11_10h19.24.419,LearnStrategy,2023.2.3,Win32,59.52380952,6,1,10,0.201851852,0.125925926,1,0,0,2.3162,Pegmatite_13,6,13,4,6,2.316,-0.108333333,-0.407407407,1,0,0,7.4174,Pegmatite_rect,6,7.417,1,9,0,9,0,1,,,,,,,,,,,,,
5f81fc9446ee002f681ea5e3,SCN,2024-06-11_10h19.24.419,LearnStrategy,2023.2.3,Win32,59.52380952,6,1,11,0.058333333,0.100925926,1,0,0,1.1018,Andesite_04,1,04,4,5,1.102,-0.371296296,-0.265740741,1,0,0,1.5136,Andesite_rect,1,1.514,1,10,0,10,0,1,,,,,,,,,,,,,
5f81fc9446ee002f681ea5e3,SCN,2024-06-11_10h19.24.419,LearnStrategy,2023.2.3,Win32,59.52380952,6,1,12,-0.206481481,0.069444444,1,0,0,1.3059,Andesite_07,1,07,4,3,1.306,-0.318518519,-0.246296296,1,0,0,1.7471,Andesite_rect,1,1.747,1,11,0,11,0,1,,,,,,,,,,,,,
5f81fc9446ee002f681ea5e3,SCN,2024-06-11_10h19.24.419,LearnStrategy,2023.2.3,Win32,59.52380952,6,1,13,-0.530555556,0.073148148,1,0,0,1.0851,Peridotite_07,7,07,4,1,1.085,0.085185185,-0.417592593,1,0,0,1.43,Peridotite_rect,7,1.43,1,12,0,12,0,1,,,,,,,,,,,,,
5f81fc9446ee002f681ea5e3,SCN,2024-06-11_10h19.24.419,LearnStrategy,2023.2.3,Win32,59.52380952,6,1,14,-0.228703704,0.272222222,1,0,0,2.2184,Andesite_10,1,10,5,3,2.218,-0.35,-0.242592593,1,0,0,2.9304,Andesite_rect,1,2.93,1,13,0,13,0,1,,,,,,,,,,,,,
5f81fc9446ee002f681ea5e3,SCN,2024-06-11_10h19.24.419,LearnStrategy,2023.2.3,Win32,59.52380952,6,1,15,0.262037037,0.398148148,1,0,0,5.4519,Pegmatite_10,6,10,6,6,5.452,0.110185185,-0.407407407,1,0,0,3.5644,Peridotite_rect,7,3.564,0,14,0,14,0,1,,,,,,,,,,,,,
5f81fc9446ee002f681ea5e3,SCN,2024-06-11_10h19.24.419,LearnStrategy,2023.2.3,Win32,59.52380952,6,1,16,0.194444444,0.356481481,1,0,0,0.8662,Pegmatite_10,6,10,6,6,0.866,-0.087037037,-0.40462963,1,0,0,1.5286,Pegmatite_rect,6,1.529,1,15,0,15,0,1,,,,,,,,,,,,,
5f81fc9446ee002f681ea5e3,SCN,2024-06-11_10h19.24.419,LearnStrategy,2023.2.3,Win32,59.52380952,6,2,1,,,,,,,,5,08,,,,,,,,,,,5,2.078,1,,,,,,-0.366666667,-0.415740741,1,0,0,2.0778,Obsidian_rect,0,0,0,0,1,
5f81fc9446ee002f681ea5e3,SCN,2024-06-11_10h19.24.419,LearnStrategy,2023.2.3,Win32,59.52380952,6,2,2,,,,,,,,3,16,,,,,,,,,,,3,6.223,1,,,,,,0.161111111,-0.262037037,1,0,0,6.2232,Diorite_rect,1,0,1,0,1,
5f81fc9446ee002f681ea5e3,SCN,2024-06-11_10h19.24.419,LearnStrategy,2023.2.3,Win32,59.52380952,6,2,3,,,,,,,,1,11,,,,,,,,,,,1,4.597,1,,,,,,-0.341666667,-0.243518519,1,0,0,4.5968,Andesite_rect,2,0,2,0,1,
5f81fc9446ee002f681ea5e3,SCN,2024-06-11_10h19.24.419,LearnStrategy,2023.2.3,Win32,59.52380952,6,2,4,,,,,,,,3,06,,,,,,,,,,,3,2.548,1,,,,,,0.15,-0.268518519,1,0,0,2.5479,Diorite_rect,3,0,3,0,1,
5f81fc9446ee002f681ea5e3,SCN,2024-06-11_10h19.24.419,LearnStrategy,2023.2.3,Win32,59.52380952,6,2,5,,,,,,,,2,08,,,,,,,,,,,2,1.454,1,,,,,,-0.175,-0.249074074,1,0,0,1.4544,Basalt_rect,4,0,4,0,1,
5f81fc9446ee002f681ea5e3,SCN,2024-06-11_10h19.24.419,LearnStrategy,2023.2.3,Win32,59.52380952,6,2,6,,,,,,,,1,05,,,,,,,,,,,1,3.203,1,,,,,,-0.387037037,-0.240740741,1,0,0,3.2031,Andesite_rect,5,0,5,0,1,
5f81fc9446ee002f681ea5e3,SCN,2024-06-11_10h19.24.419,LearnStrategy,2023.2.3,Win32,59.52380952,6,2,7,,,,,,,,6,09,,,,,,,,,,,6,2.921,1,,,,,,-0.066666667,-0.40462963,1,0,0,2.9214,Pegmatite_rect,6,0,6,0,1,
5f81fc9446ee002f681ea5e3,SCN,2024-06-11_10h19.24.419,LearnStrategy,2023.2.3,Win32,59.52380952,6,2,8,,,,,,,,5,14,,,,,,,,,,,5,0.97,1,,,,,,-0.385185185,-0.407407407,1,0,0,0.9703,Obsidian_rect,7,0,7,0,1,
5f81fc9446ee002f681ea5e3,SCN,2024-06-11_10h19.24.419,LearnStrategy,2023.2.3,Win32,59.52380952,6,2,9,,,,,,,,8,14,,,,,,,,,,,8,2.379,1,,,,,,0.416666667,-0.385185185,1,0,0,2.3788,Pumice_rect,8,0,8,0,1,
5f81fc9446ee002f681ea5e3,SCN,2024-06-11_10h19.24.419,LearnStrategy,2023.2.3,Win32,59.52380952,6,2,10,,,,,,,,8,08,,,,,,,,,,,8,1.923,1,,,,,,0.44537037,-0.412037037,1,0,0,1.9227,Pumice_rect,9,0,9,0,1,
5f81fc9446ee002f681ea5e3,SCN,2024-06-11_10h19.24.419,LearnStrategy,2023.2.3,Win32,59.52380952,6,2,11,,,,,,,,4,15,,,,,,,,,,,1,11.047,0,,,,,,-0.401851852,-0.234259259,1,0,0,11.0471,Andesite_rect,10,0,10,0,1,
5f81fc9446ee002f681ea5e3,SCN,2024-06-11_10h19.24.419,LearnStrategy,2023.2.3,Win32,59.52380952,6,2,12,,,,,,,,6,08,,,,,,,,,,,6,3.918,1,,,,,,-0.102777778,-0.411111111,1,0,0,3.9179,Pegmatite_rect,11,0,11,0,1,
5f81fc9446ee002f681ea5e3,SCN,2024-06-11_10h19.24.419,LearnStrategy,2023.2.3,Win32,59.52380952,6,2,13,,,,,,,,7,13,,,,,,,,,,,7,1.731,1,,,,,,0.101851852,-0.401851852,1,0,0,1.7313,Peridotite_rect,12,0,12,0,1,
5f81fc9446ee002f681ea5e3,SCN,2024-06-11_10h19.24.419,LearnStrategy,2023.2.3,Win32,59.52380952,6,2,14,,,,,,,,7,04,,,,,,,,,,,4,6.888,0,,,,,,0.347222222,-0.262037037,1,0,0,6.8877,Gabbro_rect,13,0,13,0,1,
5f81fc9446ee002f681ea5e3,SCN,2024-06-11_10h19.24.419,LearnStrategy,2023.2.3,Win32,59.52380952,6,2,15,,,,,,,,2,06,,,,,,,,,,,2,4.035,1,,,,,,-0.175,-0.237037037,1,0,0,4.0355,Basalt_rect,14,0,14,0,1,
5f81fc9446ee002f681ea5e3,SCN,2024-06-11_10h19.24.419,LearnStrategy,2023.2.3,Win32,59.52380952,6,2,16,,,,,,,,4,08,,,,,,,,,,,1,6.422,0,,,,,,-0.321296296,-0.249074074,1,0,0,6.4224,Andesite_rect,15,0,15,0,1,
5f81fc9446ee002f681ea5e3,SCN,2024-06-11_10h19.24.419,LearnStrategy,2023.2.3,Win32,59.52380952,7,1,1,0.233333333,0.402777778,1,0,0,6.3327,Pegmatite_10,6,10,6,6,6.333,-0.088888889,-0.407407407,1,0,0,0.8723,Pegmatite_rect,6,0.872,1,0,0,0,0,1,,,,,,,,,,,,,
5f81fc9446ee002f681ea5e3,SCN,2024-06-11_10h19.24.419,LearnStrategy,2023.2.3,Win32,59.52380952,7,1,2,0.393518519,0.22037037,1,0,0,1.5149,Pegmatite_03,6,03,5,7,1.515,-0.072222222,-0.385185185,1,0,0,1.1787,Pegmatite_rect,6,1.179,1,1,0,1,0,1,,,,,,,,,,,,,
5f81fc9446ee002f681ea5e3,SCN,2024-06-11_10h19.24.419,LearnStrategy,2023.2.3,Win32,59.52380952,7,1,3,0.544444444,0.387962963,1,0,0,0.9996,Gabbro_14,4,14,6,8,1,0.371296296,-0.247222222,1,0,0,1.6447,Gabbro_rect,4,1.645,1,2,0,2,0,1,,,,,,,,,,,,,
5f81fc9446ee002f681ea5e3,SCN,2024-06-11_10h19.24.419,LearnStrategy,2023.2.3,Win32,59.52380952,7,1,4,-0.101851852,0.387962963,1,0,0,2.2492,Basalt_10,2,10,6,4,2.249,-0.105555556,-0.260185185,1,0,0,1.028,Basalt_rect,2,1.028,1,3,0,3,0,1,,,,,,,,,,,,,
5f81fc9446ee002f681ea5e3,SCN,2024-06-11_10h19.24.419,LearnStrategy,2023.2.3,Win32,59.52380952,7,1,5,-0.101851852,-0.12962963,1,0,0,1.216,Peridotite_02,7,02,3,4,1.216,0.098148148,-0.410185185,1,0,0,1.7448,Peridotite_rect,7,1.745,1,4,0,4,0,1,,,,,,,,,,,,,
5f81fc9446ee002f681ea5e3,SCN,2024-06-11_10h19.24.419,LearnStrategy,2023.2.3,Win32,59.52380952,7,1,6,-0.530555556,-0.243518519,1,0,0,2.4651,Gabbro_12,4,12,2,1,2.465,0.406481481,-0.235185185,1,0,0,2.1451,Gabbro_rect,4,2.145,1,5,0,5,0,1,,,,,,,,,,,,,
5f81fc9446ee002f681ea5e3,SCN,2024-06-11_10h19.24.419,LearnStrategy,2023.2.3,Win32,59.52380952,7,1,7,0.513888889,0.409259259,1,0,0,1.3499,Gabbro_14,4,14,6,8,1.35,0.383333333,-0.252777778,1,0,0,1.2277,Gabbro_rect,4,1.228,1,6,0,6,0,1,,,,,,,,,,,,,
5f81fc9446ee002f681ea5e3,SCN,2024-06-11_10h19.24.419,LearnStrategy,2023.2.3,Win32,59.52380952,7,1,8,0.538888889,-0.243518519,1,0,0,1.0656,Pegmatite_15,6,15,2,8,1.066,-0.091666667,-0.39537037,1,0,0,2.1449,Pegmatite_rect,6,2.145,1,7,0,7,0,1,,,,,,,,,,,,,
5f81fc9446ee002f681ea5e3,SCN,2024-06-11_10h19.24.419,LearnStrategy,2023.2.3,Win32,59.52380952,7,1,9,0.112962963,-0.426851852,1,0,0,2.816,Diorite_09,3,09,1,5,2.816,0.116666667,-0.237037037,1,0,0,0.6213,Diorite_rect,3,0.621,1,8,0,8,0,1,,,,,,,,,,,,,
5f81fc9446ee002f681ea5e3,SCN,2024-06-11_10h19.24.419,LearnStrategy,2023.2.3,Win32,59.52380952,7,1,10,-0.551851852,0.099074074,1,0,0,1.2329,Peridotite_07,7,07,4,1,1.233,0.108333333,-0.415740741,1,0,0,2.0591,Peridotite_rect,7,2.059,1,9,0,9,0,1,,,,,,,,,,,,,
5f81fc9446ee002f681ea5e3,SCN,2024-06-11_10h19.24.419,LearnStrategy,2023.2.3,Win32,59.52380952,7,1,11,-0.371296296,0.272222222,1,0,0,1.9327,Gabbro_11,4,11,5,2,1.933,-0.330555556,-0.253703704,1,0,0,4.0618,Andesite_rect,1,4.062,0,10,0,10,0,1,,,,,,,,,,,,,
5f81fc9446ee002f681ea5e3,SCN,2024-06-11_10h19.24.419,LearnStrategy,2023.2.3,Win32,59.52380952,7,1,12,0.397222222,0.392592593,1,0,0,1.3827,Andesite_03,1,03,6,7,1.383,-0.37037037,-0.27037037,1,0,0,2.5613,Andesite_rect,1,2.561,1,11,0,11,0,1,,,,,,,,,,,,,
5f81fc9446ee002f681ea5e3,SCN,2024-06-11_10h19.24.419,LearnStrategy,2023.2.3,Win32,59.52380952,7,1,13,-0.547222222,0.398148148,1,0,0,1.4823,Basalt_04,2,04,6,1,1.482,0.412037037,-0.25462963,1,0,0,2.8277,Gabbro_rect,4,2.828,0,12,0,12,0,1,,,,,,,,,,,,,
5f81fc9446ee002f681ea5e3,SCN,2024-06-11_10h19.24.419,LearnStrategy,2023.2.3,Win32,59.52380952,7,1,14,-0.551851852,0.109259259,1,0,0,0.9163,Peridotite_07,7,07,4,1,0.916,0.116666667,-0.407407407,1,0,0,1.2114,Peridotite_rect,7,1.211,1,13,0,13,0,1,,,,,,,,,,,,,
5f81fc9446ee002f681ea5e3,SCN,2024-06-11_10h19.24.419,LearnStrategy,2023.2.3,Win32,59.52380952,7,1,15,-0.541666667,-0.119444444,1,0,0,1.2992,Basalt_11,2,11,3,1,1.299,0.343518519,-0.40462963,1,0,0,1.1956,Pumice_rect,8,1.196,0,14,0,14,0,1,,,,,,,,,,,,,
5f81fc9446ee002f681ea5e3,SCN,2024-06-11_10h19.24.419,LearnStrategy,2023.2.3,Win32,59.52380952,7,1,16,-0.52037037,-0.232407407,1,0,0,0.8825,Gabbro_12,4,12,2,1,0.882,0.387037037,-0.262037037,1,0,0,1.4783,Gabbro_rect,4,1.478,1,15,0,15,0,1,,,,,,,,,,,,,
5f81fc9446ee002f681ea5e3,SCN,2024-06-11_10h19.24.419,LearnStrategy,2023.2.3,Win32,59.52380952,7,2,1,,,,,,,,2,12,,,,,,,,,,,2,2.312,1,,,,,,-0.101851852,-0.269444444,1,0,0,2.3123,Basalt_rect,0,0,0,0,1,
5f81fc9446ee002f681ea5e3,SCN,2024-06-11_10h19.24.419,LearnStrategy,2023.2.3,Win32,59.52380952,7,2,2,,,,,,,,8,14,,,,,,,,,,,8,2.356,1,,,,,,0.358333333,-0.393518519,1,0,0,2.356,Pumice_rect,1,0,1,0,1,
5f81fc9446ee002f681ea5e3,SCN,2024-06-11_10h19.24.419,LearnStrategy,2023.2.3,Win32,59.52380952,7,2,3,,,,,,,,6,07,,,,,,,,,,,6,10.229,1,,,,,,-0.125,-0.421296296,1,0,0,10.2286,Pegmatite_rect,2,0,2,0,1,
5f81fc9446ee002f681ea5e3,SCN,2024-06-11_10h19.24.419,LearnStrategy,2023.2.3,Win32,59.52380952,7,2,4,,,,,,,,4,15,,,,,,,,,,,1,6.572,0,,,,,,-0.37037037,-0.255555556,1,0,0,6.5722,Andesite_rect,3,0,3,0,1,
5f81fc9446ee002f681ea5e3,SCN,2024-06-11_10h19.24.419,LearnStrategy,2023.2.3,Win32,59.52380952,7,2,5,,,,,,,,7,16,,,,,,,,,,,6,1.755,0,,,,,,-0.101851852,-0.387037037,1,0,0,1.7555,Pegmatite_rect,4,0,4,0,1,
5f81fc9446ee002f681ea5e3,SCN,2024-06-11_10h19.24.419,LearnStrategy,2023.2.3,Win32,59.52380952,7,2,6,,,,,,,,1,11,,,,,,,,,,,1,5.629,1,,,,,,-0.353703704,-0.259259259,1,0,0,5.6292,Andesite_rect,5,0,5,0,1,
5f81fc9446ee002f681ea5e3,SCN,2024-06-11_10h19.24.419,LearnStrategy,2023.2.3,Win32,59.52380952,7,2,7,,,,,,,,5,08,,,,,,,,,,,5,1.589,1,,,,,,-0.410185185,-0.415740741,1,0,0,1.5889,Obsidian_rect,6,0,6,0,1,
5f81fc9446ee002f681ea5e3,SCN,2024-06-11_10h19.24.419,LearnStrategy,2023.2.3,Win32,59.52380952,7,2,8,,,,,,,,3,16,,,,,,,,,,,3,1.729,1,,,,,,0.108333333,-0.262037037,1,0,0,1.7287,Diorite_rect,7,0,7,0,1,
5f81fc9446ee002f681ea5e3,SCN,2024-06-11_10h19.24.419,LearnStrategy,2023.2.3,Win32,59.52380952,7,2,9,,,,,,,,5,12,,,,,,,,,,,5,1.206,1,,,,,,-0.366666667,-0.403703704,1,0,0,1.2063,Obsidian_rect,8,0,8,0,1,
5f81fc9446ee002f681ea5e3,SCN,2024-06-11_10h19.24.419,LearnStrategy,2023.2.3,Win32,59.52380952,7,2,10,,,,,,,,8,06,,,,,,,,,,,8,1.445,1,,,,,,0.363888889,-0.393518519,1,0,0,1.4449,Pumice_rect,9,0,9,0,1,
5f81fc9446ee002f681ea5e3,SCN,2024-06-11_10h19.24.419,LearnStrategy,2023.2.3,Win32,59.52380952,7,2,11,,,,,,,,4,03,,,,,,,,,,,4,2.828,1,,,,,,0.397222222,-0.240740741,1,0,0,2.8281,Gabbro_rect,10,0,10,0,1,
5f81fc9446ee002f681ea5e3,SCN,2024-06-11_10h19.24.419,LearnStrategy,2023.2.3,Win32,59.52380952,7,2,12,,,,,,,,3,07,,,,,,,,,,,3,1.272,1,,,,,,0.085185185,-0.246296296,1,0,0,1.2722,Diorite_rect,11,0,11,0,1,
5f81fc9446ee002f681ea5e3,SCN,2024-06-11_10h19.24.419,LearnStrategy,2023.2.3,Win32,59.52380952,7,2,13,,,,,,,,6,06,,,,,,,,,,,6,7.379,1,,,,,,-0.052777778,-0.390740741,1,0,0,7.3791,Pegmatite_rect,12,0,12,0,1,
5f81fc9446ee002f681ea5e3,SCN,2024-06-11_10h19.24.419,LearnStrategy,2023.2.3,Win32,59.52380952,7,2,14,,,,,,,,1,14,,,,,,,,,,,1,2.939,1,,,,,,-0.422222222,-0.237962963,1,0,0,2.9388,Andesite_rect,13,0,13,0,1,
5f81fc9446ee002f681ea5e3,SCN,2024-06-11_10h19.24.419,LearnStrategy,2023.2.3,Win32,59.52380952,7,2,15,,,,,,,,2,06,,,,,,,,,,,2,1.189,1,,,,,,-0.141666667,-0.240740741,1,0,0,1.1893,Basalt_rect,14,0,14,0,1,
5f81fc9446ee002f681ea5e3,SCN,2024-06-11_10h19.24.419,LearnStrategy,2023.2.3,Win32,59.52380952,7,2,16,,,,,,,,7,10,,,,,,,,,,,7,1.279,1,,,,,,0.112037037,-0.407407407,1,0,0,1.2786,Peridotite_rect,15,0,15,0,1,
5f81fc9446ee002f681ea5e3,SCN,2024-06-11_10h19.24.419,LearnStrategy,2023.2.3,Win32,59.52380952,8,1,1,0.068518519,0.096296296,1,0,0,0.7487,Andesite_04,1,04,4,5,0.749,-0.443518519,-0.251851852,1,0,0,1.1282,Andesite_rect,1,1.128,1,0,0,0,0,1,,,,,,,,,,,,,
5f81fc9446ee002f681ea5e3,SCN,2024-06-11_10h19.24.419,LearnStrategy,2023.2.3,Win32,59.52380952,8,1,2,0.228703704,0.128703704,1,0,0,1.149,Pegmatite_13,6,13,4,6,1.149,-0.088888889,-0.399074074,1,0,0,4.5777,Pegmatite_rect,6,4.578,1,1,0,1,0,1,,,,,,,,,,,,,
5f81fc9446ee002f681ea5e3,SCN,2024-06-11_10h19.24.419,LearnStrategy,2023.2.3,Win32,59.52380952,8,1,3,0.063888889,-0.421296296,1,0,0,1.2983,Diorite_09,3,09,1,5,1.298,0.135185185,-0.238888889,1,0,0,0.4281,Diorite_rect,3,0.428,1,2,0,2,0,1,,,,,,,,,,,,,
5f81fc9446ee002f681ea5e3,SCN,2024-06-11_10h19.24.419,LearnStrategy,2023.2.3,Win32,59.52380952,8,1,4,-0.535185185,-0.394444444,1,0,0,0.9659,Diorite_14,3,14,1,1,0.966,0.155555556,-0.257407407,1,0,0,0.6275,Diorite_rect,3,0.627,1,3,0,3,0,1,,,,,,,,,,,,,
5f81fc9446ee002f681ea5e3,SCN,2024-06-11_10h19.24.419,LearnStrategy,2023.2.3,Win32,59.52380952,8,1,5,-0.537962963,0.086111111,1,0,0,0.9158,Peridotite_07,7,07,4,1,0.916,0.110185185,-0.412962963,1,0,0,1.312,Peridotite_rect,7,1.312,1,4,0,4,0,1,,,,,,,,,,,,,
5f81fc9446ee002f681ea5e3,SCN,2024-06-11_10h19.24.419,LearnStrategy,2023.2.3,Win32,59.52380952,8,1,6,0.223148148,-0.39537037,1,0,0,1.1826,Pegmatite_16,6,16,1,6,1.183,0.07037037,-0.24537037,1,0,0,3.9611,Diorite_rect,3,3.961,0,5,0,5,0,1,,,,,,,,,,,,,
5f81fc9446ee002f681ea5e3,SCN,2024-06-11_10h19.24.419,LearnStrategy,2023.2.3,Win32,59.52380952,8,1,7,0.533333333,-0.265740741,1,0,0,2.6321,Pegmatite_15,6,15,2,8,2.632,-0.112037037,-0.393518519,1,0,0,1.9552,Pegmatite_rect,6,1.955,1,6,0,6,0,1,,,,,,,,,,,,,
5f81fc9446ee002f681ea5e3,SCN,2024-06-11_10h19.24.419,LearnStrategy,2023.2.3,Win32,59.52380952,8,1,8,0.537037037,0.381481481,1,0,0,2.5824,Gabbro_14,4,14,6,8,2.582,0.363888889,-0.250925926,1,0,0,4.2279,Gabbro_rect,4,4.228,1,7,0,7,0,1,,,,,,,,,,,,,
5f81fc9446ee002f681ea5e3,SCN,2024-06-11_10h19.24.419,LearnStrategy,2023.2.3,Win32,59.52380952,8,1,9,-0.376851852,-0.249074074,1,0,0,9.0496,Diorite_02,3,02,2,2,9.05,0.128703704,-0.252777778,1,0,0,1.222,Diorite_rect,3,1.222,1,8,0,8,0,1,,,,,,,,,,,,,
5f81fc9446ee002f681ea5e3,SCN,2024-06-11_10h19.24.419,LearnStrategy,2023.2.3,Win32,59.52380952,8,1,10,-0.064814815,-0.388888889,1,0,0,5.0655,Pumice_03,8,03,1,4,5.065,0.388888889,-0.412962963,1,0,0,0.8889,Pumice_rect,8,0.889,1,9,0,9,0,1,,,,,,,,,,,,,
5f81fc9446ee002f681ea5e3,SCN,2024-06-11_10h19.24.419,LearnStrategy,2023.2.3,Win32,59.52380952,8,1,11,-0.244444444,0.239814815,1,0,0,5.2494,Andesite_10,1,10,5,3,5.249,-0.355555556,-0.269444444,1,0,0,1.6379,Andesite_rect,1,1.638,1,10,0,10,0,1,,,,,,,,,,,,,
5f81fc9446ee002f681ea5e3,SCN,2024-06-11_10h19.24.419,LearnStrategy,2023.2.3,Win32,59.52380952,8,1,12,-0.427777778,0.264814815,1,0,0,2.0665,Gabbro_11,4,11,5,2,2.067,0.139814815,-0.244444444,1,0,0,4.4449,Diorite_rect,3,4.445,0,11,0,11,0,1,,,,,,,,,,,,,
5f81fc9446ee002f681ea5e3,SCN,2024-06-11_10h19.24.419,LearnStrategy,2023.2.3,Win32,59.52380952,8,1,13,-0.539814815,-0.244444444,1,0,0,1.7153,Gabbro_12,4,12,2,1,1.715,0.388888889,-0.252777778,1,0,0,1.6946,Gabbro_rect,4,1.695,1,12,0,12,0,1,,,,,,,,,,,,,
5f81fc9446ee002f681ea5e3,SCN,2024-06-11_10h19.24.419,LearnStrategy,2023.2.3,Win32,59.52380952,8,1,14,0.086111111,0.067592593,1,0,0,0.6328,Andesite_04,1,04,4,5,0.633,-0.341666667,-0.246296296,1,0,0,0.8282,Andesite_rect,1,0.828,1,13,0,13,0,1,,,,,,,,,,,,,
5f81fc9446ee002f681ea5e3,SCN,2024-06-11_10h19.24.419,LearnStrategy,2023.2.3,Win32,59.52380952,8,1,15,-0.051851852,0.398148148,1,0,0,2.766,Basalt_10,2,10,6,4,2.766,-0.139814815,-0.246296296,1,0,0,0.9549,Basalt_rect,2,0.955,1,14,0,14,0,1,,,,,,,,,,,,,
5f81fc9446ee002f681ea5e3,SCN,2024-06-11_10h19.24.419,LearnStrategy,2023.2.3,Win32,59.52380952,8,1,16,0.07962963,0.121296296,1,0,0,0.5492,Andesite_04,1,04,4,5,0.549,-0.39537037,-0.263888889,1,0,0,0.7784,Andesite_rect,1,0.778,1,15,0,15,0,1,,,,,,,,,,,,,
5f81fc9446ee002f681ea5e3,SCN,2024-06-11_10h19.24.419,LearnStrategy,2023.2.3,Win32,59.52380952,8,2,1,,,,,,,,6,09,,,,,,,,,,,6,3.029,1,,,,,,-0.133333333,-0.394444444,1,0,0,3.0288,Pegmatite_rect,0,0,0,0,1,
5f81fc9446ee002f681ea5e3,SCN,2024-06-11_10h19.24.419,LearnStrategy,2023.2.3,Win32,59.52380952,8,2,2,,,,,,,,6,05,,,,,,,,,,,3,1.662,0,,,,,,0.105555556,-0.232407407,1,0,0,1.6619,Diorite_rect,1,0,1,0,1,
5f81fc9446ee002f681ea5e3,SCN,2024-06-11_10h19.24.419,LearnStrategy,2023.2.3,Win32,59.52380952,8,2,3,,,,,,,,1,16,,,,,,,,,,,1,1.562,1,,,,,,-0.397222222,-0.252777778,1,0,0,1.5617,Andesite_rect,2,0,2,0,1,
5f81fc9446ee002f681ea5e3,SCN,2024-06-11_10h19.24.419,LearnStrategy,2023.2.3,Win32,59.52380952,8,2,4,,,,,,,,8,10,,,,,,,,,,,8,1.812,1,,,,,,0.325,-0.382407407,1,0,0,1.8115,Pumice_rect,3,0,3,0,1,
5f81fc9446ee002f681ea5e3,SCN,2024-06-11_10h19.24.419,LearnStrategy,2023.2.3,Win32,59.52380952,8,2,5,,,,,,,,5,04,,,,,,,,,,,5,1.315,1,,,,,,-0.356481481,-0.407407407,1,0,0,1.315,Obsidian_rect,4,0,4,0,1,
5f81fc9446ee002f681ea5e3,SCN,2024-06-11_10h19.24.419,LearnStrategy,2023.2.3,Win32,59.52380952,8,2,6,,,,,,,,4,01,,,,,,,,,,,1,6.292,0,,,,,,-0.35,-0.244444444,1,0,0,6.2918,Andesite_rect,5,0,5,0,1,
5f81fc9446ee002f681ea5e3,SCN,2024-06-11_10h19.24.419,LearnStrategy,2023.2.3,Win32,59.52380952,8,2,7,,,,,,,,4,09,,,,,,,,,,,2,3.656,0,,,,,,-0.1,-0.259259259,1,0,0,3.6559,Basalt_rect,6,0,6,0,1,
5f81fc9446ee002f681ea5e3,SCN,2024-06-11_10h19.24.419,LearnStrategy,2023.2.3,Win32,59.52380952,8,2,8,,,,,,,,7,12,,,,,,,,,,,7,1.423,1,,,,,,0.147222222,-0.394444444,1,0,0,1.4227,Peridotite_rect,7,0,7,0,1,
5f81fc9446ee002f681ea5e3,SCN,2024-06-11_10h19.24.419,LearnStrategy,2023.2.3,Win32,59.52380952,8,2,9,,,,,,,,5,11,,,,,,,,,,,5,1.077,1,,,,,,-0.380555556,-0.407407407,1,0,0,1.0773,Obsidian_rect,8,0,8,0,1,
5f81fc9446ee002f681ea5e3,SCN,2024-06-11_10h19.24.419,LearnStrategy,2023.2.3,Win32,59.52380952,8,2,10,,,,,,,,1,05,,,,,,,,,,,1,2.211,1,,,,,,-0.4,-0.232407407,1,0,0,2.2113,Andesite_rect,9,0,9,0,1,
5f81fc9446ee002f681ea5e3,SCN,2024-06-11_10h19.24.419,LearnStrategy,2023.2.3,Win32,59.52380952,8,2,11,,,,,,,,7,15,,,,,,,,,,,7,1.495,1,,,,,,0.098148148,-0.385185185,1,0,0,1.4951,Peridotite_rect,10,0,10,0,1,
5f81fc9446ee002f681ea5e3,SCN,2024-06-11_10h19.24.419,LearnStrategy,2023.2.3,Win32,59.52380952,8,2,12,,,,,,,,3,10,,,,,,,,,,,3,1.528,1,,,,,,0.037962963,-0.24537037,1,0,0,1.5281,Diorite_rect,11,0,11,0,1,
5f81fc9446ee002f681ea5e3,SCN,2024-06-11_10h19.24.419,LearnStrategy,2023.2.3,Win32,59.52380952,8,2,13,,,,,,,,3,06,,,,,,,,,,,3,1.661,1,,,,,,0.063888889,-0.232407407,1,0,0,1.6611,Diorite_rect,12,0,12,0,1,
5f81fc9446ee002f681ea5e3,SCN,2024-06-11_10h19.24.419,LearnStrategy,2023.2.3,Win32,59.52380952,8,2,14,,,,,,,,2,08,,,,,,,,,,,2,1.144,1,,,,,,-0.156481481,-0.238888889,1,0,0,1.1443,Basalt_rect,13,0,13,0,1,
5f81fc9446ee002f681ea5e3,SCN,2024-06-11_10h19.24.419,LearnStrategy,2023.2.3,Win32,59.52380952,8,2,15,,,,,,,,2,14,,,,,,,,,,,4,13.662,0,,,,,,0.32962963,-0.262037037,1,0,0,13.6622,Gabbro_rect,14,0,14,0,1,
5f81fc9446ee002f681ea5e3,SCN,2024-06-11_10h19.24.419,LearnStrategy,2023.2.3,Win32,59.52380952,8,2,16,,,,,,,,8,02,,,,,,,,,,,8,1.247,1,,,,,,0.35,-0.392592593,1,0,0,1.2471,Pumice_rect,15,0,15,0,1,
5f81fc9446ee002f681ea5e3,SCN,2024-06-11_10h19.24.419,LearnStrategy,2023.2.3,Win32,59.52380952,9,1,1,-0.086111111,0.369444444,1,0,0,1.9994,Basalt_10,2,10,6,4,1.999,-0.064814815,-0.265740741,1,0,0,1.5785,Basalt_rect,2,1.579,1,0,0,0,0,1,,,,,,,,,,,,,
5f81fc9446ee002f681ea5e3,SCN,2024-06-11_10h19.24.419,LearnStrategy,2023.2.3,Win32,59.52380952,9,1,2,-0.376851852,0.387962963,1,0,0,0.9493,Gabbro_13,4,13,6,2,0.949,-0.387962963,-0.25462963,1,0,0,2.3117,Andesite_rect,1,2.312,0,1,0,1,0,1,,,,,,,,,,,,,
5f81fc9446ee002f681ea5e3,SCN,2024-06-11_10h19.24.419,LearnStrategy,2023.2.3,Win32,59.52380952,9,1,3,-0.278703704,0.121296296,1,0,0,5.2163,Andesite_07,1,07,4,3,5.216,-0.362037037,-0.243518519,1,0,0,0.762,Andesite_rect,1,0.762,1,2,0,2,0,1,,,,,,,,,,,,,
5f81fc9446ee002f681ea5e3,SCN,2024-06-11_10h19.24.419,LearnStrategy,2023.2.3,Win32,59.52380952,9,1,4,-0.360185185,0.412962963,1,0,0,0.7564,Gabbro_13,4,13,6,2,0.756,0.410185185,-0.242592593,1,0,0,1.1641,Gabbro_rect,4,1.164,1,3,0,3,0,1,,,,,,,,,,,,,
5f81fc9446ee002f681ea5e3,SCN,2024-06-11_10h19.24.419,LearnStrategy,2023.2.3,Win32,59.52380952,9,1,5,0.566666667,0.405555556,1,0,0,3.6895,Gabbro_14,4,14,6,8,3.689,0.353703704,-0.244444444,1,0,0,1.2134,Gabbro_rect,4,1.213,1,4,0,4,0,1,,,,,,,,,,,,,
5f81fc9446ee002f681ea5e3,SCN,2024-06-11_10h19.24.419,LearnStrategy,2023.2.3,Win32,59.52380952,9,1,6,0.066666667,-0.086111111,1,0,0,0.952,Pegmatite_12,6,12,3,5,0.952,-0.1,-0.390740741,1,0,0,0.9802,Pegmatite_rect,6,0.98,1,5,0,5,0,1,,,,,,,,,,,,,
5f81fc9446ee002f681ea5e3,SCN,2024-06-11_10h19.24.419,LearnStrategy,2023.2.3,Win32,59.52380952,9,1,7,-0.048148148,-0.390740741,1,0,0,1.1892,Pumice_03,8,03,1,4,1.189,0.37037037,-0.413888889,1,0,0,1.0707,Pumice_rect,8,1.071,1,6,0,6,0,1,,,,,,,,,,,,,
5f81fc9446ee002f681ea5e3,SCN,2024-06-11_10h19.24.419,LearnStrategy,2023.2.3,Win32,59.52380952,9,1,8,0.227777778,-0.251851852,1,0,0,1.0827,Pumice_16,8,16,2,6,1.083,0.368518519,-0.384259259,1,0,0,0.9113,Pumice_rect,8,0.911,1,7,0,7,0,1,,,,,,,,,,,,,
5f81fc9446ee002f681ea5e3,SCN,2024-06-11_10h19.24.419,LearnStrategy,2023.2.3,Win32,59.52380952,9,1,9,0.225,-0.250925926,1,0,0,4.3157,Pumice_16,8,16,2,6,4.316,0.380555556,-0.402777778,1,0,0,0.7239,Pumice_rect,8,0.724,1,8,0,8,0,1,,,,,,,,,,,,,
5f81fc9446ee002f681ea5e3,SCN,2024-06-11_10h19.24.419,LearnStrategy,2023.2.3,Win32,59.52380952,9,1,10,-0.402777778,0.377777778,1,0,0,2.3157,Gabbro_13,4,13,6,2,2.316,0.330555556,-0.27037037,1,0,0,2.1361,Gabbro_rect,4,2.136,1,9,0,9,0,1,,,,,,,,,,,,,
5f81fc9446ee002f681ea5e3,SCN,2024-06-11_10h19.24.419,LearnStrategy,2023.2.3,Win32,59.52380952,9,1,11,-0.551851852,0.389814815,1,0,0,1.033,Basalt_04,2,04,6,1,1.033,-0.162962963,-0.271296296,1,0,0,2.1449,Basalt_rect,2,2.145,1,10,0,10,0,1,,,,,,,,,,,,,
5f81fc9446ee002f681ea5e3,SCN,2024-06-11_10h19.24.419,LearnStrategy,2023.2.3,Win32,59.52380952,9,1,12,-0.503703704,-0.22962963,1,0,0,2.6495,Gabbro_12,4,12,2,1,2.649,0.336111111,-0.251851852,1,0,0,1.6281,Gabbro_rect,4,1.628,1,11,0,11,0,1,,,,,,,,,,,,,
5f81fc9446ee002f681ea5e3,SCN,2024-06-11_10h19.24.419,LearnStrategy,2023.2.3,Win32,59.52380952,9,1,13,0.096296296,-0.099074074,1,0,0,1.1327,Pegmatite_12,6,12,3,5,1.133,-0.038888889,-0.390740741,1,0,0,0.5944,Pegmatite_rect,6,0.594,1,12,0,12,0,1,,,,,,,,,,,,,
5f81fc9446ee002f681ea5e3,SCN,2024-06-11_10h19.24.419,LearnStrategy,2023.2.3,Win32,59.52380952,9,1,14,-0.07037037,0.05462963,1,0,0,1.2832,Basalt_16,2,16,4,4,1.283,-0.097222222,-0.24537037,1,0,0,2.6773,Basalt_rect,2,2.677,1,13,0,13,0,1,,,,,,,,,,,,,
5f81fc9446ee002f681ea5e3,SCN,2024-06-11_10h19.24.419,LearnStrategy,2023.2.3,Win32,59.52380952,9,1,15,0.55,-0.392592593,1,0,0,2.2161,Pumice_15,8,15,1,8,2.216,0.375,-0.387962963,1,0,0,1.3053,Pumice_rect,8,1.305,1,14,0,14,0,1,,,,,,,,,,,,,
5f81fc9446ee002f681ea5e3,SCN,2024-06-11_10h19.24.419,LearnStrategy,2023.2.3,Win32,59.52380952,9,1,16,0.058333333,-0.069444444,1,0,0,0.8992,Pegmatite_12,6,12,3,5,0.899,-0.087037037,-0.37962963,1,0,0,0.6284,Pegmatite_rect,6,0.628,1,15,0,15,0,1,,,,,,,,,,,,,
5f81fc9446ee002f681ea5e3,SCN,2024-06-11_10h19.24.419,LearnStrategy,2023.2.3,Win32,59.52380952,9,2,1,,,,,,,,5,14,,,,,,,,,,,5,1.195,1,,,,,,-0.32037037,-0.407407407,1,0,0,1.1946,Obsidian_rect,0,0,0,0,1,
5f81fc9446ee002f681ea5e3,SCN,2024-06-11_10h19.24.419,LearnStrategy,2023.2.3,Win32,59.52380952,9,2,2,,,,,,,,8,08,,,,,,,,,,,8,1.962,1,,,,,,0.321296296,-0.382407407,1,0,0,1.9617,Pumice_rect,1,0,1,0,1,
5f81fc9446ee002f681ea5e3,SCN,2024-06-11_10h19.24.419,LearnStrategy,2023.2.3,Win32,59.52380952,9,2,3,,,,,,,,1,01,,,,,,,,,,,1,9.746,1,,,,,,-0.335185185,-0.230555556,1,0,0,9.7456,Andesite_rect,2,0,2,0,1,
5f81fc9446ee002f681ea5e3,SCN,2024-06-11_10h19.24.419,LearnStrategy,2023.2.3,Win32,59.52380952,9,2,4,,,,,,,,4,16,,,,,,,,,,,4,4.072,1,,,,,,0.403703704,-0.22962963,1,0,0,4.0725,Gabbro_rect,3,0,3,0,1,
5f81fc9446ee002f681ea5e3,SCN,2024-06-11_10h19.24.419,LearnStrategy,2023.2.3,Win32,59.52380952,9,2,5,,,,,,,,5,05,,,,,,,,,,,5,1.848,1,,,,,,-0.358333333,-0.394444444,1,0,0,1.8484,Obsidian_rect,4,0,4,0,1,
5f81fc9446ee002f681ea5e3,SCN,2024-06-11_10h19.24.419,LearnStrategy,2023.2.3,Win32,59.52380952,9,2,6,,,,,,,,7,13,,,,,,,,,,,7,1.183,1,,,,,,0.113888889,-0.390740741,1,0,0,1.1829,Peridotite_rect,5,0,5,0,1,
5f81fc9446ee002f681ea5e3,SCN,2024-06-11_10h19.24.419,LearnStrategy,2023.2.3,Win32,59.52380952,9,2,7,,,,,,,,4,08,,,,,,,,,,,4,5.899,1,,,,,,0.383333333,-0.25462963,1,0,0,5.8993,Gabbro_rect,6,0,6,0,1,
5f81fc9446ee002f681ea5e3,SCN,2024-06-11_10h19.24.419,LearnStrategy,2023.2.3,Win32,59.52380952,9,2,8,,,,,,,,2,05,,,,,,,,,,,2,1.148,1,,,,,,-0.083333333,-0.257407407,1,0,0,1.1481,Basalt_rect,7,0,7,0,1,
5f81fc9446ee002f681ea5e3,SCN,2024-06-11_10h19.24.419,LearnStrategy,2023.2.3,Win32,59.52380952,9,2,9,,,,,,,,3,12,,,,,,,,,,,3,1.52,1,,,,,,0.076851852,-0.244444444,1,0,0,1.5205,Diorite_rect,8,0,8,0,1,
5f81fc9446ee002f681ea5e3,SCN,2024-06-11_10h19.24.419,LearnStrategy,2023.2.3,Win32,59.52380952,9,2,10,,,,,,,,7,04,,,,,,,,,,,6,6.65,0,,,,,,-0.087037037,-0.412962963,1,0,0,6.6498,Pegmatite_rect,9,0,9,0,1,
5f81fc9446ee002f681ea5e3,SCN,2024-06-11_10h19.24.419,LearnStrategy,2023.2.3,Win32,59.52380952,9,2,11,,,,,,,,3,15,,,,,,,,,,,3,1.667,1,,,,,,0.137037037,-0.269444444,1,0,0,1.6673,Diorite_rect,10,0,10,0,1,
5f81fc9446ee002f681ea5e3,SCN,2024-06-11_10h19.24.419,LearnStrategy,2023.2.3,Win32,59.52380952,9,2,12,,,,,,,,1,02,,,,,,,,,,,1,1.923,1,,,,,,-0.393518519,-0.257407407,1,0,0,1.9226,Andesite_rect,11,0,11,0,1,
5f81fc9446ee002f681ea5e3,SCN,2024-06-11_10h19.24.419,LearnStrategy,2023.2.3,Win32,59.52380952,9,2,13,,,,,,,,2,01,,,,,,,,,,,2,1.478,1,,,,,,-0.125,-0.268518519,1,0,0,1.4777,Basalt_rect,12,0,12,0,1,
5f81fc9446ee002f681ea5e3,SCN,2024-06-11_10h19.24.419,LearnStrategy,2023.2.3,Win32,59.52380952,9,2,14,,,,,,,,6,11,,,,,,,,,,,6,2.112,1,,,,,,-0.126851852,-0.403703704,1,0,0,2.1119,Pegmatite_rect,13,0,13,0,1,
5f81fc9446ee002f681ea5e3,SCN,2024-06-11_10h19.24.419,LearnStrategy,2023.2.3,Win32,59.52380952,9,2,15,,,,,,,,6,08,,,,,,,,,,,6,1.262,1,,,,,,-0.093518519,-0.388888889,1,0,0,1.2617,Pegmatite_rect,14,0,14,0,1,
5f81fc9446ee002f681ea5e3,SCN,2024-06-11_10h19.24.419,LearnStrategy,2023.2.3,Win32,59.52380952,9,2,16,,,,,,,,8,05,,,,,,,,,,,8,1.411,1,,,,,,0.325,-0.392592593,1,0,0,1.4112,Pumice_rect,15,0,15,0,1,
5f81fc9446ee002f681ea5e3,SCN,2024-06-11_10h19.24.419,LearnStrategy,2023.2.3,Win32,59.52380952,,,,,,,,,,,,,,,,,,,,,,,,,,,,,,,,,,,,,,,,,,,1
5f81fc9446ee002f681ea5e3,SCN,2024-06-11_10h19.24.419,LearnStrategy,2023.2.3,Win32,59.52380952,,,,,,,,,,,,,,,,,,,,,,,,,,,,,,,,,,,,,,,,,,,
5f81fc9446ee002f681ea5e3,SCN,2024-06-11_10h19.24.419,LearnStrategy,2023.2.3,Win32,59.52380952,,,,,,,,,,,3,14,1,1,,,,,,,,,,,,,,,,,,,,,,,,,,,,,
5f81fc9446ee002f681ea5e3,SCN,2024-06-11_10h19.24.419,LearnStrategy,2023.2.3,Win32,59.52380952,,,,,,,,,,,5,16,1,2,,,,,,,,,,,,,,,,,,,,,,,,,,,,,
5f81fc9446ee002f681ea5e3,SCN,2024-06-11_10h19.24.419,LearnStrategy,2023.2.3,Win32,59.52380952,,,,,,,,,,,5,02,1,3,,,,,,,,,,,,,,,,,,,,,,,,,,,,,
5f81fc9446ee002f681ea5e3,SCN,2024-06-11_10h19.24.419,LearnStrategy,2023.2.3,Win32,59.52380952,,,,,,,,,,,8,03,1,4,,,,,,,,,,,,,,,,,,,,,,,,,,,,,
5f81fc9446ee002f681ea5e3,SCN,2024-06-11_10h19.24.419,LearnStrategy,2023.2.3,Win32,59.52380952,,,,,,,,,,,3,09,1,5,,,,,,,,,,,,,,,,,,,,,,,,,,,,,
5f81fc9446ee002f681ea5e3,SCN,2024-06-11_10h19.24.419,LearnStrategy,2023.2.3,Win32,59.52380952,,,,,,,,,,,6,16,1,6,,,,,,,,,,,,,,,,,,,,,,,,,,,,,
5f81fc9446ee002f681ea5e3,SCN,2024-06-11_10h19.24.419,LearnStrategy,2023.2.3,Win32,59.52380952,,,,,,,,,,,2,09,1,7,,,,,,,,,,,,,,,,,,,,,,,,,,,,,
5f81fc9446ee002f681ea5e3,SCN,2024-06-11_10h19.24.419,LearnStrategy,2023.2.3,Win32,59.52380952,,,,,,,,,,,8,15,1,8,,,,,,,,,,,,,,,,,,,,,,,,,,,,,
5f81fc9446ee002f681ea5e3,SCN,2024-06-11_10h19.24.419,LearnStrategy,2023.2.3,Win32,59.52380952,,,,,,,,,,,4,12,2,1,,,,,,,,,,,,,,,,,,,,,,,,,,,,,
5f81fc9446ee002f681ea5e3,SCN,2024-06-11_10h19.24.419,LearnStrategy,2023.2.3,Win32,59.52380952,,,,,,,,,,,3,02,2,2,,,,,,,,,,,,,,,,,,,,,,,,,,,,,
5f81fc9446ee002f681ea5e3,SCN,2024-06-11_10h19.24.419,LearnStrategy,2023.2.3,Win32,59.52380952,,,,,,,,,,,2,02,2,3,,,,,,,,,,,,,,,,,,,,,,,,,,,,,
5f81fc9446ee002f681ea5e3,SCN,2024-06-11_10h19.24.419,LearnStrategy,2023.2.3,Win32,59.52380952,,,,,,,,,,,8,13,2,4,,,,,,,,,,,,,,,,,,,,,,,,,,,,,
5f81fc9446ee002f681ea5e3,SCN,2024-06-11_10h19.24.419,LearnStrategy,2023.2.3,Win32,59.52380952,,,,,,,,,,,3,13,2,5,,,,,,,,,,,,,,,,,,,,,,,,,,,,,
5f81fc9446ee002f681ea5e3,SCN,2024-06-11_10h19.24.419,LearnStrategy,2023.2.3,Win32,59.52380952,,,,,,,,,,,8,16,2,6,,,,,,,,,,,,,,,,,,,,,,,,,,,,,
5f81fc9446ee002f681ea5e3,SCN,2024-06-11_10h19.24.419,LearnStrategy,2023.2.3,Win32,59.52380952,,,,,,,,,,,7,06,2,7,,,,,,,,,,,,,,,,,,,,,,,,,,,,,
5f81fc9446ee002f681ea5e3,SCN,2024-06-11_10h19.24.419,LearnStrategy,2023.2.3,Win32,59.52380952,,,,,,,,,,,6,15,2,8,,,,,,,,,,,,,,,,,,,,,,,,,,,,,
5f81fc9446ee002f681ea5e3,SCN,2024-06-11_10h19.24.419,LearnStrategy,2023.2.3,Win32,59.52380952,,,,,,,,,,,2,11,3,1,,,,,,,,,,,,,,,,,,,,,,,,,,,,,
5f81fc9446ee002f681ea5e3,SCN,2024-06-11_10h19.24.419,LearnStrategy,2023.2.3,Win32,59.52380952,,,,,,,,,,,4,10,3,2,,,,,,,,,,,,,,,,,,,,,,,,,,,,,
5f81fc9446ee002f681ea5e3,SCN,2024-06-11_10h19.24.419,LearnStrategy,2023.2.3,Win32,59.52380952,,,,,,,,,,,1,06,3,3,,,,,,,,,,,,,,,,,,,,,,,,,,,,,
5f81fc9446ee002f681ea5e3,SCN,2024-06-11_10h19.24.419,LearnStrategy,2023.2.3,Win32,59.52380952,,,,,,,,,,,7,02,3,4,,,,,,,,,,,,,,,,,,,,,,,,,,,,,
5f81fc9446ee002f681ea5e3,SCN,2024-06-11_10h19.24.419,LearnStrategy,2023.2.3,Win32,59.52380952,,,,,,,,,,,6,12,3,5,,,,,,,,,,,,,,,,,,,,,,,,,,,,,
5f81fc9446ee002f681ea5e3,SCN,2024-06-11_10h19.24.419,LearnStrategy,2023.2.3,Win32,59.52380952,,,,,,,,,,,3,11,3,6,,,,,,,,,,,,,,,,,,,,,,,,,,,,,
5f81fc9446ee002f681ea5e3,SCN,2024-06-11_10h19.24.419,LearnStrategy,2023.2.3,Win32,59.52380952,,,,,,,,,,,1,09,3,7,,,,,,,,,,,,,,,,,,,,,,,,,,,,,
5f81fc9446ee002f681ea5e3,SCN,2024-06-11_10h19.24.419,LearnStrategy,2023.2.3,Win32,59.52380952,,,,,,,,,,,3,08,3,8,,,,,,,,,,,,,,,,,,,,,,,,,,,,,
5f81fc9446ee002f681ea5e3,SCN,2024-06-11_10h19.24.419,LearnStrategy,2023.2.3,Win32,59.52380952,,,,,,,,,,,7,07,4,1,,,,,,,,,,,,,,,,,,,,,,,,,,,,,
5f81fc9446ee002f681ea5e3,SCN,2024-06-11_10h19.24.419,LearnStrategy,2023.2.3,Win32,59.52380952,,,,,,,,,,,5,06,4,2,,,,,,,,,,,,,,,,,,,,,,,,,,,,,
5f81fc9446ee002f681ea5e3,SCN,2024-06-11_10h19.24.419,LearnStrategy,2023.2.3,Win32,59.52380952,,,,,,,,,,,1,07,4,3,,,,,,,,,,,,,,,,,,,,,,,,,,,,,
5f81fc9446ee002f681ea5e3,SCN,2024-06-11_10h19.24.419,LearnStrategy,2023.2.3,Win32,59.52380952,,,,,,,,,,,2,16,4,4,,,,,,,,,,,,,,,,,,,,,,,,,,,,,
5f81fc9446ee002f681ea5e3,SCN,2024-06-11_10h19.24.419,LearnStrategy,2023.2.3,Win32,59.52380952,,,,,,,,,,,1,04,4,5,,,,,,,,,,,,,,,,,,,,,,,,,,,,,
5f81fc9446ee002f681ea5e3,SCN,2024-06-11_10h19.24.419,LearnStrategy,2023.2.3,Win32,59.52380952,,,,,,,,,,,6,13,4,6,,,,,,,,,,,,,,,,,,,,,,,,,,,,,
5f81fc9446ee002f681ea5e3,SCN,2024-06-11_10h19.24.419,LearnStrategy,2023.2.3,Win32,59.52380952,,,,,,,,,,,7,05,4,7,,,,,,,,,,,,,,,,,,,,,,,,,,,,,
5f81fc9446ee002f681ea5e3,SCN,2024-06-11_10h19.24.419,LearnStrategy,2023.2.3,Win32,59.52380952,,,,,,,,,,,7,14,4,8,,,,,,,,,,,,,,,,,,,,,,,,,,,,,
5f81fc9446ee002f681ea5e3,SCN,2024-06-11_10h19.24.419,LearnStrategy,2023.2.3,Win32,59.52380952,,,,,,,,,,,5,09,5,1,,,,,,,,,,,,,,,,,,,,,,,,,,,,,
5f81fc9446ee002f681ea5e3,SCN,2024-06-11_10h19.24.419,LearnStrategy,2023.2.3,Win32,59.52380952,,,,,,,,,,,4,11,5,2,,,,,,,,,,,,,,,,,,,,,,,,,,,,,
5f81fc9446ee002f681ea5e3,SCN,2024-06-11_10h19.24.419,LearnStrategy,2023.2.3,Win32,59.52380952,,,,,,,,,,,1,10,5,3,,,,,,,,,,,,,,,,,,,,,,,,,,,,,
5f81fc9446ee002f681ea5e3,SCN,2024-06-11_10h19.24.419,LearnStrategy,2023.2.3,Win32,59.52380952,,,,,,,,,,,4,05,5,4,,,,,,,,,,,,,,,,,,,,,,,,,,,,,
5f81fc9446ee002f681ea5e3,SCN,2024-06-11_10h19.24.419,LearnStrategy,2023.2.3,Win32,59.52380952,,,,,,,,,,,7,08,5,5,,,,,,,,,,,,,,,,,,,,,,,,,,,,,
5f81fc9446ee002f681ea5e3,SCN,2024-06-11_10h19.24.419,LearnStrategy,2023.2.3,Win32,59.52380952,,,,,,,,,,,8,04,5,6,,,,,,,,,,,,,,,,,,,,,,,,,,,,,
5f81fc9446ee002f681ea5e3,SCN,2024-06-11_10h19.24.419,LearnStrategy,2023.2.3,Win32,59.52380952,,,,,,,,,,,6,03,5,7,,,,,,,,,,,,,,,,,,,,,,,,,,,,,
5f81fc9446ee002f681ea5e3,SCN,2024-06-11_10h19.24.419,LearnStrategy,2023.2.3,Win32,59.52380952,,,,,,,,,,,8,09,5,8,,,,,,,,,,,,,,,,,,,,,,,,,,,,,
5f81fc9446ee002f681ea5e3,SCN,2024-06-11_10h19.24.419,LearnStrategy,2023.2.3,Win32,59.52380952,,,,,,,,,,,2,04,6,1,,,,,,,,,,,,,,,,,,,,,,,,,,,,,
5f81fc9446ee002f681ea5e3,SCN,2024-06-11_10h19.24.419,LearnStrategy,2023.2.3,Win32,59.52380952,,,,,,,,,,,4,13,6,2,,,,,,,,,,,,,,,,,,,,,,,,,,,,,
5f81fc9446ee002f681ea5e3,SCN,2024-06-11_10h19.24.419,LearnStrategy,2023.2.3,Win32,59.52380952,,,,,,,,,,,5,10,6,3,,,,,,,,,,,,,,,,,,,,,,,,,,,,,
5f81fc9446ee002f681ea5e3,SCN,2024-06-11_10h19.24.419,LearnStrategy,2023.2.3,Win32,59.52380952,,,,,,,,,,,2,10,6,4,,,,,,,,,,,,,,,,,,,,,,,,,,,,,
5f81fc9446ee002f681ea5e3,SCN,2024-06-11_10h19.24.419,LearnStrategy,2023.2.3,Win32,59.52380952,,,,,,,,,,,5,07,6,5,,,,,,,,,,,,,,,,,,,,,,,,,,,,,
5f81fc9446ee002f681ea5e3,SCN,2024-06-11_10h19.24.419,LearnStrategy,2023.2.3,Win32,59.52380952,,,,,,,,,,,6,10,6,6,,,,,,,,,,,,,,,,,,,,,,,,,,,,,
5f81fc9446ee002f681ea5e3,SCN,2024-06-11_10h19.24.419,LearnStrategy,2023.2.3,Win32,59.52380952,,,,,,,,,,,1,03,6,7,,,,,,,,,,,,,,,,,,,,,,,,,,,,,
5f81fc9446ee002f681ea5e3,SCN,2024-06-11_10h19.24.419,LearnStrategy,2023.2.3,Win32,59.52380952,,,,,,,,,,,4,14,6,8,,,,,,,,,,,,,,,,,,,,,,,,,,,,,