participant,condition,date,expName,psychopyVersion,OS,frameRate,block,phase,trial,learn_mouse_2.x,learn_mouse_2.y,learn_mouse_2.leftButton,learn_mouse_2.midButton,learn_mouse_2.rightButton,learn_mouse_2.time,learn_mouse_2.clicked_name,cat,token,row,col,t_select,cat_mouse_l.x,cat_mouse_l.y,cat_mouse_l.leftButton,cat_mouse_l.midButton,cat_mouse_l.rightButton,cat_mouse_l.time,cat_mouse_l.clicked_name,resp,t_resp,corr,train_trials.thisRepN,train_trials.thisTrialN,train_trials.thisN,train_trials.thisIndex,train_trials.ran,cat_mouse_t.x,cat_mouse_t.y,cat_mouse_t.leftButton,cat_mouse_t.midButton,cat_mouse_t.rightButton,cat_mouse_t.time,cat_mouse_t.clicked_name,test_trials.thisRepN,test_trials.thisTrialN,test_trials.thisN,test_trials.thisIndex,test_trials.ran,Bonus
5f9fdfd04296cb0102563f84,TCN,2024-06-26_10h38.02.454,LearnStrategy,2023.2.3,Win32,37.79289494,,,,,,,,,,,,,,,,,,,,,,,,,,,,,,,,,,,,,,,,,,,
5f9fdfd04296cb0102563f84,TCN,2024-06-26_10h38.02.454,LearnStrategy,2023.2.3,Win32,37.79289494,1,1,1,-0.083984375,0.000976563,1,0,0,4.431,rock_grid_rect_2,4,11,-1,-1,4.431,0.12109375,-0.25390625,1,0,0,9.903,Diorite_rect,3,9.903,0,0,0,0,0,1,,,,,,,,,,,,,
5f9fdfd04296cb0102563f84,TCN,2024-06-26_10h38.02.454,LearnStrategy,2023.2.3,Win32,37.79289494,1,1,2,-0.016601563,-0.002929688,1,0,0,1.432,rock_grid_rect_2,5,05,-1,-1,1.432,0.37109375,-0.4140625,1,0,0,2.622,Pumice_rect,8,2.622,0,1,0,1,0,1,,,,,,,,,,,,,
5f9fdfd04296cb0102563f84,TCN,2024-06-26_10h38.02.454,LearnStrategy,2023.2.3,Win32,37.79289494,1,1,3,0.000976563,0.015625,1,0,0,1.345,rock_grid_rect_2,6,15,-1,-1,1.345,-0.352539063,-0.2578125,1,0,0,2.636,Andesite_rect,1,2.636,0,2,0,2,0,1,,,,,,,,,,,,,
5f9fdfd04296cb0102563f84,TCN,2024-06-26_10h38.02.454,LearnStrategy,2023.2.3,Win32,37.79289494,1,1,4,-0.01953125,-0.018554688,1,0,0,1.027,rock_grid_rect_2,7,07,-1,-1,1.027,0.359375,-0.260742188,1,0,0,1.891,Gabbro_rect,4,1.891,0,3,0,3,0,1,,,,,,,,,,,,,
5f9fdfd04296cb0102563f84,TCN,2024-06-26_10h38.02.454,LearnStrategy,2023.2.3,Win32,37.79289494,1,1,5,0.01171875,-0.006835938,1,0,0,1.131,rock_grid_rect_2,3,10,-1,-1,1.131,0.110351563,-0.240234375,1,0,0,3.257,Diorite_rect,3,3.257,1,4,0,4,0,1,,,,,,,,,,,,,
5f9fdfd04296cb0102563f84,TCN,2024-06-26_10h38.02.454,LearnStrategy,2023.2.3,Win32,37.79289494,1,1,6,0.00390625,-0.010742188,1,0,0,1.061,rock_grid_rect_2,2,01,-1,-1,1.061,-0.166992188,-0.255859375,1,0,0,7.183,Basalt_rect,2,7.183,1,5,0,5,0,1,,,,,,,,,,,,,
5f9fdfd04296cb0102563f84,TCN,2024-06-26_10h38.02.454,LearnStrategy,2023.2.3,Win32,37.79289494,1,1,7,0.01953125,-0.013671875,1,0,0,1.063,rock_grid_rect_2,8,09,-1,-1,1.063,-0.383789063,-0.262695313,1,0,0,8.291,Andesite_rect,1,8.291,0,6,0,6,0,1,,,,,,,,,,,,,
5f9fdfd04296cb0102563f84,TCN,2024-06-26_10h38.02.454,LearnStrategy,2023.2.3,Win32,37.79289494,1,1,8,0.029296875,-0.01171875,1,0,0,1.072,rock_grid_rect_2,1,05,-1,-1,1.072,0.407226563,-0.260742188,1,0,0,3.857,Gabbro_rect,4,3.857,0,7,0,7,0,1,,,,,,,,,,,,,
5f9fdfd04296cb0102563f84,TCN,2024-06-26_10h38.02.454,LearnStrategy,2023.2.3,Win32,37.79289494,1,1,9,0.018554688,-0.017578125,1,0,0,1.118,rock_grid_rect_2,7,06,-1,-1,1.118,-0.092773438,-0.39453125,1,0,0,1.553,Pegmatite_rect,6,1.553,0,8,0,8,0,1,,,,,,,,,,,,,
5f9fdfd04296cb0102563f84,TCN,2024-06-26_10h38.02.454,LearnStrategy,2023.2.3,Win32,37.79289494,1,1,10,0.029296875,-0.002929688,1,0,0,1.027,rock_grid_rect_2,3,12,-1,-1,1.027,-0.375976563,-0.252929688,1,0,0,2.265,Andesite_rect,1,2.265,0,9,0,9,0,1,,,,,,,,,,,,,
5f9fdfd04296cb0102563f84,TCN,2024-06-26_10h38.02.454,LearnStrategy,2023.2.3,Win32,37.79289494,1,1,11,-0.013671875,-0.002929688,1,0,0,0.979,rock_grid_rect_2,5,07,-1,-1,0.979,-0.342773438,-0.40234375,1,0,0,2.069,Obsidian_rect,5,2.069,1,10,0,10,0,1,,,,,,,,,,,,,
5f9fdfd04296cb0102563f84,TCN,2024-06-26_10h38.02.454,LearnStrategy,2023.2.3,Win32,37.79289494,1,1,12,0.0078125,0.008789063,1,0,0,1.12,rock_grid_rect_2,8,13,-1,-1,1.12,0.338867188,-0.420898438,1,0,0,3.01,Pumice_rect,8,3.01,1,11,0,11,0,1,,,,,,,,,,,,,
5f9fdfd04296cb0102563f84,TCN,2024-06-26_10h38.02.454,LearnStrategy,2023.2.3,Win32,37.79289494,1,1,13,0.040039063,0.000976563,1,0,0,0.795,rock_grid_rect_2,2,12,-1,-1,0.795,0.05859375,-0.396484375,1,0,0,2.55,Peridotite_rect,7,2.55,0,12,0,12,0,1,,,,,,,,,,,,,
5f9fdfd04296cb0102563f84,TCN,2024-06-26_10h38.02.454,LearnStrategy,2023.2.3,Win32,37.79289494,1,1,14,-0.000976563,-0.014648438,1,0,0,0.839,rock_grid_rect_2,6,09,-1,-1,0.839,-0.09375,-0.397460938,1,0,0,6.068,Pegmatite_rect,6,6.068,1,13,0,13,0,1,,,,,,,,,,,,,
5f9fdfd04296cb0102563f84,TCN,2024-06-26_10h38.02.454,LearnStrategy,2023.2.3,Win32,37.79289494,1,1,15,0.048828125,-0.013671875,1,0,0,0.912,rock_grid_rect_2,1,01,-1,-1,0.912,-0.356445313,-0.399414063,1,0,0,1.464,Obsidian_rect,5,1.464,0,14,0,14,0,1,,,,,,,,,,,,,
5f9fdfd04296cb0102563f84,TCN,2024-06-26_10h38.02.454,LearnStrategy,2023.2.3,Win32,37.79289494,1,1,16,0.028320313,-0.010742188,1,0,0,0.805,rock_grid_rect_2,4,10,-1,-1,0.805,0.086914063,-0.248046875,1,0,0,0.828,Diorite_rect,3,0.828,0,15,0,15,0,1,,,,,,,,,,,,,
5f9fdfd04296cb0102563f84,TCN,2024-06-26_10h38.02.454,LearnStrategy,2023.2.3,Win32,37.79289494,1,2,1,,,,,,,,8,02,,,,,,,,,,,8,4.653,1,,,,,,0.354492188,-0.396484375,1,0,0,4.653,Pumice_rect,0,0,0,0,1,
5f9fdfd04296cb0102563f84,TCN,2024-06-26_10h38.02.454,LearnStrategy,2023.2.3,Win32,37.79289494,1,2,2,,,,,,,,4,03,,,,,,,,,,,2,4.731,0,,,,,,-0.11328125,-0.254882813,1,0,0,4.731,Basalt_rect,1,0,1,0,1,
5f9fdfd04296cb0102563f84,TCN,2024-06-26_10h38.02.454,LearnStrategy,2023.2.3,Win32,37.79289494,1,2,3,,,,,,,,6,11,,,,,,,,,,,7,4.055,0,,,,,,0.078125,-0.38671875,1,0,0,4.055,Peridotite_rect,2,0,2,0,1,
5f9fdfd04296cb0102563f84,TCN,2024-06-26_10h38.02.454,LearnStrategy,2023.2.3,Win32,37.79289494,1,2,4,,,,,,,,7,04,,,,,,,,,,,3,5.696,0,,,,,,0.083984375,-0.259765625,1,0,0,5.696,Diorite_rect,3,0,3,0,1,
5f9fdfd04296cb0102563f84,TCN,2024-06-26_10h38.02.454,LearnStrategy,2023.2.3,Win32,37.79289494,1,2,5,,,,,,,,3,11,,,,,,,,,,,3,3.111,1,,,,,,0.063476563,-0.264648438,1,0,0,3.111,Diorite_rect,4,0,4,0,1,
5f9fdfd04296cb0102563f84,TCN,2024-06-26_10h38.02.454,LearnStrategy,2023.2.3,Win32,37.79289494,1,2,6,,,,,,,,5,09,,,,,,,,,,,5,1.634,1,,,,,,-0.41015625,-0.389648438,1,0,0,1.634,Obsidian_rect,5,0,5,0,1,
5f9fdfd04296cb0102563f84,TCN,2024-06-26_10h38.02.454,LearnStrategy,2023.2.3,Win32,37.79289494,1,2,7,,,,,,,,2,09,,,,,,,,,,,2,2.227,1,,,,,,-0.17578125,-0.248046875,1,0,0,2.227,Basalt_rect,6,0,6,0,1,
5f9fdfd04296cb0102563f84,TCN,2024-06-26_10h38.02.454,LearnStrategy,2023.2.3,Win32,37.79289494,1,2,8,,,,,,,,3,16,,,,,,,,,,,7,6.65,0,,,,,,0.102539063,-0.392578125,1,0,0,6.65,Peridotite_rect,7,0,7,0,1,
5f9fdfd04296cb0102563f84,TCN,2024-06-26_10h38.02.454,LearnStrategy,2023.2.3,Win32,37.79289494,1,2,9,,,,,,,,1,11,,,,,,,,,,,1,2.87,1,,,,,,-0.33984375,-0.247070313,1,0,0,2.87,Andesite_rect,8,0,8,0,1,
5f9fdfd04296cb0102563f84,TCN,2024-06-26_10h38.02.454,LearnStrategy,2023.2.3,Win32,37.79289494,1,2,10,,,,,,,,7,14,,,,,,,,,,,1,1.752,0,,,,,,-0.340820313,-0.248046875,1,0,0,1.752,Andesite_rect,9,0,9,0,1,
5f9fdfd04296cb0102563f84,TCN,2024-06-26_10h38.02.454,LearnStrategy,2023.2.3,Win32,37.79289494,1,2,11,,,,,,,,4,09,,,,,,,,,,,8,5.021,0,,,,,,0.354492188,-0.390625,1,0,0,5.021,Pumice_rect,10,0,10,0,1,
5f9fdfd04296cb0102563f84,TCN,2024-06-26_10h38.02.454,LearnStrategy,2023.2.3,Win32,37.79289494,1,2,12,,,,,,,,1,07,,,,,,,,,,,7,1.826,0,,,,,,0.150390625,-0.396484375,1,0,0,1.826,Peridotite_rect,11,0,11,0,1,
5f9fdfd04296cb0102563f84,TCN,2024-06-26_10h38.02.454,LearnStrategy,2023.2.3,Win32,37.79289494,1,2,13,,,,,,,,5,16,,,,,,,,,,,5,1.446,1,,,,,,-0.376953125,-0.400390625,1,0,0,1.446,Obsidian_rect,12,0,12,0,1,
5f9fdfd04296cb0102563f84,TCN,2024-06-26_10h38.02.454,LearnStrategy,2023.2.3,Win32,37.79289494,1,2,14,,,,,,,,6,03,,,,,,,,,,,7,3.455,0,,,,,,0.100585938,-0.404296875,1,0,0,3.455,Peridotite_rect,13,0,13,0,1,
5f9fdfd04296cb0102563f84,TCN,2024-06-26_10h38.02.454,LearnStrategy,2023.2.3,Win32,37.79289494,1,2,15,,,,,,,,2,05,,,,,,,,,,,5,1.97,0,,,,,,-0.4140625,-0.40234375,1,0,0,1.97,Obsidian_rect,14,0,14,0,1,
5f9fdfd04296cb0102563f84,TCN,2024-06-26_10h38.02.454,LearnStrategy,2023.2.3,Win32,37.79289494,1,2,16,,,,,,,,8,16,,,,,,,,,,,8,2.077,1,,,,,,0.356445313,-0.39453125,1,0,0,2.077,Pumice_rect,15,0,15,0,1,
5f9fdfd04296cb0102563f84,TCN,2024-06-26_10h38.02.454,LearnStrategy,2023.2.3,Win32,37.79289494,2,1,1,0.006835938,0.010742188,1,0,0,1.112,rock_grid_rect_2,8,15,-1,-1,1.112,0.366210938,-0.401367188,1,0,0,5.067,Pumice_rect,8,5.067,1,0,0,0,0,1,,,,,,,,,,,,,
5f9fdfd04296cb0102563f84,TCN,2024-06-26_10h38.02.454,LearnStrategy,2023.2.3,Win32,37.79289494,2,1,2,0.139648438,-0.0078125,1,0,0,1.099,rock_grid_rect_2,5,04,-1,-1,1.099,-0.396484375,-0.392578125,1,0,0,1.819,Obsidian_rect,5,1.819,1,1,0,1,0,1,,,,,,,,,,,,,
5f9fdfd04296cb0102563f84,TCN,2024-06-26_10h38.02.454,LearnStrategy,2023.2.3,Win32,37.79289494,2,1,3,0.078125,0.005859375,1,0,0,1.045,rock_grid_rect_2,7,05,-1,-1,1.045,0.064453125,-0.3984375,1,0,0,2.946,Peridotite_rect,7,2.946,1,2,0,2,0,1,,,,,,,,,,,,,
5f9fdfd04296cb0102563f84,TCN,2024-06-26_10h38.02.454,LearnStrategy,2023.2.3,Win32,37.79289494,2,1,4,0.083007813,0.001953125,1,0,0,0.978,rock_grid_rect_2,6,07,-1,-1,0.978,0.107421875,-0.233398438,1,0,0,1.999,Diorite_rect,3,1.999,0,3,0,3,0,1,,,,,,,,,,,,,
5f9fdfd04296cb0102563f84,TCN,2024-06-26_10h38.02.454,LearnStrategy,2023.2.3,Win32,37.79289494,2,1,5,0.080078125,0.006835938,1,0,0,1.151,rock_grid_rect_2,6,06,-1,-1,1.151,-0.368164063,-0.262695313,1,0,0,4.024,Andesite_rect,1,4.024,0,4,0,4,0,1,,,,,,,,,,,,,
5f9fdfd04296cb0102563f84,TCN,2024-06-26_10h38.02.454,LearnStrategy,2023.2.3,Win32,37.79289494,2,1,6,0.036132813,-0.004882813,1,0,0,1.191,rock_grid_rect_2,4,01,-1,-1,1.191,-0.154296875,-0.245117188,1,0,0,2.368,Basalt_rect,2,2.368,0,5,0,5,0,1,,,,,,,,,,,,,
5f9fdfd04296cb0102563f84,TCN,2024-06-26_10h38.02.454,LearnStrategy,2023.2.3,Win32,37.79289494,2,1,7,0.05078125,0.018554688,1,0,0,0.901,rock_grid_rect_2,7,10,-1,-1,0.901,0.357421875,-0.25,1,0,0,2.829,Gabbro_rect,4,2.829,0,6,0,6,0,1,,,,,,,,,,,,,
5f9fdfd04296cb0102563f84,TCN,2024-06-26_10h38.02.454,LearnStrategy,2023.2.3,Win32,37.79289494,2,1,8,-0.002929688,0.004882813,1,0,0,0.851,rock_grid_rect_2,1,10,-1,-1,0.851,-0.098632813,-0.259765625,1,0,0,1.274,Basalt_rect,2,1.274,0,7,0,7,0,1,,,,,,,,,,,,,
5f9fdfd04296cb0102563f84,TCN,2024-06-26_10h38.02.454,LearnStrategy,2023.2.3,Win32,37.79289494,2,1,9,-0.005859375,-0.012695313,1,0,0,0.864,rock_grid_rect_2,4,08,-1,-1,0.864,-0.392578125,-0.2578125,1,0,0,1.094,Andesite_rect,1,1.094,0,8,0,8,0,1,,,,,,,,,,,,,
5f9fdfd04296cb0102563f84,TCN,2024-06-26_10h38.02.454,LearnStrategy,2023.2.3,Win32,37.79289494,2,1,10,-0.028320313,-0.01171875,1,0,0,0.861,rock_grid_rect_2,3,15,-1,-1,0.861,-0.168945313,-0.2578125,1,0,0,2.816,Basalt_rect,2,2.816,0,9,0,9,0,1,,,,,,,,,,,,,
5f9fdfd04296cb0102563f84,TCN,2024-06-26_10h38.02.454,LearnStrategy,2023.2.3,Win32,37.79289494,2,1,11,0.010742188,0.005859375,1,0,0,0.798,rock_grid_rect_2,5,08,-1,-1,0.798,-0.372070313,-0.403320313,1,0,0,1.581,Obsidian_rect,5,1.581,1,10,0,10,0,1,,,,,,,,,,,,,
5f9fdfd04296cb0102563f84,TCN,2024-06-26_10h38.02.454,LearnStrategy,2023.2.3,Win32,37.79289494,2,1,12,0.024414063,-0.013671875,1,0,0,0.899,rock_grid_rect_2,2,08,-1,-1,0.899,-0.364257813,-0.401367188,1,0,0,0.982,Obsidian_rect,5,0.982,0,11,0,11,0,1,,,,,,,,,,,,,
5f9fdfd04296cb0102563f84,TCN,2024-06-26_10h38.02.454,LearnStrategy,2023.2.3,Win32,37.79289494,2,1,13,0.008789063,0.013671875,1,0,0,0.842,rock_grid_rect_2,8,05,-1,-1,0.842,0.33203125,-0.397460938,1,0,0,1.532,Pumice_rect,8,1.532,1,12,0,12,0,1,,,,,,,,,,,,,
5f9fdfd04296cb0102563f84,TCN,2024-06-26_10h38.02.454,LearnStrategy,2023.2.3,Win32,37.79289494,2,1,14,0.033203125,-0.004882813,1,0,0,0.659,rock_grid_rect_2,2,14,-1,-1,0.659,0.33203125,-0.390625,1,0,0,2.262,Pumice_rect,8,2.262,0,13,0,13,0,1,,,,,,,,,,,,,
5f9fdfd04296cb0102563f84,TCN,2024-06-26_10h38.02.454,LearnStrategy,2023.2.3,Win32,37.79289494,2,1,15,0.045898438,0.001953125,1,0,0,0.634,rock_grid_rect_2,3,07,-1,-1,0.634,-0.158203125,-0.416015625,1,0,0,1.284,Pegmatite_rect,6,1.284,0,14,0,14,0,1,,,,,,,,,,,,,
5f9fdfd04296cb0102563f84,TCN,2024-06-26_10h38.02.454,LearnStrategy,2023.2.3,Win32,37.79289494,2,1,16,0.01953125,-0.001953125,1,0,0,0.978,rock_grid_rect_2,1,16,-1,-1,0.978,-0.102539063,-0.25390625,1,0,0,1.332,Basalt_rect,2,1.332,0,15,0,15,0,1,,,,,,,,,,,,,
5f9fdfd04296cb0102563f84,TCN,2024-06-26_10h38.02.454,LearnStrategy,2023.2.3,Win32,37.79289494,2,2,1,,,,,,,,8,10,,,,,,,,,,,2,2.437,0,,,,,,-0.080078125,-0.2578125,1,0,0,2.437,Basalt_rect,0,0,0,0,1,
5f9fdfd04296cb0102563f84,TCN,2024-06-26_10h38.02.454,LearnStrategy,2023.2.3,Win32,37.79289494,2,2,2,,,,,,,,6,16,,,,,,,,,,,4,7.205,0,,,,,,0.418945313,-0.25,1,0,0,7.205,Gabbro_rect,1,0,1,0,1,
5f9fdfd04296cb0102563f84,TCN,2024-06-26_10h38.02.454,LearnStrategy,2023.2.3,Win32,37.79289494,2,2,3,,,,,,,,4,05,,,,,,,,,,,2,1.872,0,,,,,,-0.111328125,-0.263671875,1,0,0,1.872,Basalt_rect,2,0,2,0,1,
5f9fdfd04296cb0102563f84,TCN,2024-06-26_10h38.02.454,LearnStrategy,2023.2.3,Win32,37.79289494,2,2,4,,,,,,,,6,13,,,,,,,,,,,6,4.43,1,,,,,,-0.108398438,-0.40625,1,0,0,4.43,Pegmatite_rect,3,0,3,0,1,
5f9fdfd04296cb0102563f84,TCN,2024-06-26_10h38.02.454,LearnStrategy,2023.2.3,Win32,37.79289494,2,2,5,,,,,,,,7,16,,,,,,,,,,,5,3.567,0,,,,,,-0.368164063,-0.401367188,1,0,0,3.567,Obsidian_rect,4,0,4,0,1,
5f9fdfd04296cb0102563f84,TCN,2024-06-26_10h38.02.454,LearnStrategy,2023.2.3,Win32,37.79289494,2,2,6,,,,,,,,3,13,,,,,,,,,,,3,2.897,1,,,,,,0.098632813,-0.260742188,1,0,0,2.897,Diorite_rect,5,0,5,0,1,
5f9fdfd04296cb0102563f84,TCN,2024-06-26_10h38.02.454,LearnStrategy,2023.2.3,Win32,37.79289494,2,2,7,,,,,,,,2,04,,,,,,,,,,,5,1.819,0,,,,,,-0.380859375,-0.396484375,1,0,0,1.819,Obsidian_rect,6,0,6,0,1,
5f9fdfd04296cb0102563f84,TCN,2024-06-26_10h38.02.454,LearnStrategy,2023.2.3,Win32,37.79289494,2,2,8,,,,,,,,5,12,,,,,,,,,,,5,0.962,1,,,,,,-0.3828125,-0.384765625,1,0,0,0.962,Obsidian_rect,7,0,7,0,1,
5f9fdfd04296cb0102563f84,TCN,2024-06-26_10h38.02.454,LearnStrategy,2023.2.3,Win32,37.79289494,2,2,9,,,,,,,,8,06,,,,,,,,,,,8,2.122,1,,,,,,0.385742188,-0.409179688,1,0,0,2.122,Pumice_rect,8,0,8,0,1,
5f9fdfd04296cb0102563f84,TCN,2024-06-26_10h38.02.454,LearnStrategy,2023.2.3,Win32,37.79289494,2,2,10,,,,,,,,2,16,,,,,,,,,,,6,6.282,0,,,,,,-0.115234375,-0.383789063,1,0,0,6.282,Pegmatite_rect,9,0,9,0,1,
5f9fdfd04296cb0102563f84,TCN,2024-06-26_10h38.02.454,LearnStrategy,2023.2.3,Win32,37.79289494,2,2,11,,,,,,,,1,03,,,,,,,,,,,2,2.238,0,,,,,,-0.19140625,-0.24609375,1,0,0,2.238,Basalt_rect,10,0,10,0,1,
5f9fdfd04296cb0102563f84,TCN,2024-06-26_10h38.02.454,LearnStrategy,2023.2.3,Win32,37.79289494,2,2,12,,,,,,,,7,12,,,,,,,,,,,3,2.057,0,,,,,,0.15234375,-0.250976563,1,0,0,2.057,Diorite_rect,11,0,11,0,1,
5f9fdfd04296cb0102563f84,TCN,2024-06-26_10h38.02.454,LearnStrategy,2023.2.3,Win32,37.79289494,2,2,13,,,,,,,,5,14,,,,,,,,,,,5,2.209,1,,,,,,-0.404296875,-0.391601563,1,0,0,2.209,Obsidian_rect,12,0,12,0,1,
5f9fdfd04296cb0102563f84,TCN,2024-06-26_10h38.02.454,LearnStrategy,2023.2.3,Win32,37.79289494,2,2,14,,,,,,,,1,02,,,,,,,,,,,7,3.33,0,,,,,,0.165039063,-0.401367188,1,0,0,3.33,Peridotite_rect,13,0,13,0,1,
5f9fdfd04296cb0102563f84,TCN,2024-06-26_10h38.02.454,LearnStrategy,2023.2.3,Win32,37.79289494,2,2,15,,,,,,,,4,14,,,,,,,,,,,1,2.355,0,,,,,,-0.37109375,-0.250976563,1,0,0,2.355,Andesite_rect,14,0,14,0,1,
5f9fdfd04296cb0102563f84,TCN,2024-06-26_10h38.02.454,LearnStrategy,2023.2.3,Win32,37.79289494,2,2,16,,,,,,,,3,02,,,,,,,,,,,6,2.084,0,,,,,,-0.138671875,-0.396484375,1,0,0,2.084,Pegmatite_rect,15,0,15,0,1,
5f9fdfd04296cb0102563f84,TCN,2024-06-26_10h38.02.454,LearnStrategy,2023.2.3,Win32,37.79289494,3,1,1,0.021484375,0.0078125,1,0,0,1.128,rock_grid_rect_2,5,11,-1,-1,1.128,-0.362304688,-0.411132813,1,0,0,1.182,Obsidian_rect,5,1.182,1,0,0,0,0,1,,,,,,,,,,,,,
5f9fdfd04296cb0102563f84,TCN,2024-06-26_10h38.02.454,LearnStrategy,2023.2.3,Win32,37.79289494,3,1,2,-0.004882813,0.000976563,1,0,0,0.999,rock_grid_rect_2,1,09,-1,-1,0.999,-0.374023438,-0.252929688,1,0,0,1.897,Andesite_rect,1,1.897,1,1,0,1,0,1,,,,,,,,,,,,,
5f9fdfd04296cb0102563f84,TCN,2024-06-26_10h38.02.454,LearnStrategy,2023.2.3,Win32,37.79289494,3,1,3,0.020507813,-0.001953125,1,0,0,0.805,rock_grid_rect_2,8,08,-1,-1,0.805,0.404296875,-0.40234375,1,0,0,3.538,Pumice_rect,8,3.538,1,2,0,2,0,1,,,,,,,,,,,,,
5f9fdfd04296cb0102563f84,TCN,2024-06-26_10h38.02.454,LearnStrategy,2023.2.3,Win32,37.79289494,3,1,4,0.03515625,0.0078125,1,0,0,1.241,rock_grid_rect_2,6,12,-1,-1,1.241,-0.116210938,-0.412109375,1,0,0,3.415,Pegmatite_rect,6,3.415,1,3,0,3,0,1,,,,,,,,,,,,,
5f9fdfd04296cb0102563f84,TCN,2024-06-26_10h38.02.454,LearnStrategy,2023.2.3,Win32,37.79289494,3,1,5,0.025390625,-0.01171875,1,0,0,0.741,rock_grid_rect_2,4,15,-1,-1,0.741,0.107421875,-0.41015625,1,0,0,1.857,Peridotite_rect,7,1.857,0,4,0,4,0,1,,,,,,,,,,,,,
5f9fdfd04296cb0102563f84,TCN,2024-06-26_10h38.02.454,LearnStrategy,2023.2.3,Win32,37.79289494,3,1,6,0.016601563,-0.002929688,1,0,0,0.901,rock_grid_rect_2,6,05,-1,-1,0.901,-0.15234375,-0.39453125,1,0,0,3.991,Pegmatite_rect,6,3.991,1,5,0,5,0,1,,,,,,,,,,,,,
5f9fdfd04296cb0102563f84,TCN,2024-06-26_10h38.02.454,LearnStrategy,2023.2.3,Win32,37.79289494,3,1,7,0.018554688,0.005859375,1,0,0,1.152,rock_grid_rect_2,4,12,-1,-1,1.152,-0.17578125,-0.259765625,1,0,0,1.73,Basalt_rect,2,1.73,0,6,0,6,0,1,,,,,,,,,,,,,
5f9fdfd04296cb0102563f84,TCN,2024-06-26_10h38.02.454,LearnStrategy,2023.2.3,Win32,37.79289494,3,1,8,0.028320313,-0.0078125,1,0,0,0.803,rock_grid_rect_2,2,06,-1,-1,0.803,0.380859375,-0.2578125,1,0,0,2.125,Gabbro_rect,4,2.125,0,7,0,7,0,1,,,,,,,,,,,,,
5f9fdfd04296cb0102563f84,TCN,2024-06-26_10h38.02.454,LearnStrategy,2023.2.3,Win32,37.79289494,3,1,9,0.009765625,0.006835938,1,0,0,1.031,rock_grid_rect_2,7,15,-1,-1,1.031,-0.364257813,-0.248046875,1,0,0,1.488,Andesite_rect,1,1.488,0,8,0,8,0,1,,,,,,,,,,,,,
5f9fdfd04296cb0102563f84,TCN,2024-06-26_10h38.02.454,LearnStrategy,2023.2.3,Win32,37.79289494,3,1,10,-0.005859375,0.009765625,1,0,0,0.926,rock_grid_rect_2,7,13,-1,-1,0.926,-0.068359375,-0.250976563,1,0,0,4.742,Basalt_rect,2,4.742,0,9,0,9,0,1,,,,,,,,,,,,,
5f9fdfd04296cb0102563f84,TCN,2024-06-26_10h38.02.454,LearnStrategy,2023.2.3,Win32,37.79289494,3,1,11,0.076171875,-0.017578125,1,0,0,0.991,rock_grid_rect_2,8,14,-1,-1,0.991,0.362304688,-0.40625,1,0,0,1.334,Pumice_rect,8,1.334,1,10,0,10,0,1,,,,,,,,,,,,,
5f9fdfd04296cb0102563f84,TCN,2024-06-26_10h38.02.454,LearnStrategy,2023.2.3,Win32,37.79289494,3,1,12,0.08203125,-0.017578125,1,0,0,0.827,rock_grid_rect_2,3,09,-1,-1,0.827,0.204101563,-0.254882813,1,0,0,2.713,Diorite_rect,3,2.713,1,11,0,11,0,1,,,,,,,,,,,,,
5f9fdfd04296cb0102563f84,TCN,2024-06-26_10h38.02.454,LearnStrategy,2023.2.3,Win32,37.79289494,3,1,13,0.053710938,0.005859375,1,0,0,0.863,rock_grid_rect_2,1,14,-1,-1,0.863,0.356445313,-0.4140625,1,0,0,2.978,Pumice_rect,8,2.978,0,12,0,12,0,1,,,,,,,,,,,,,
5f9fdfd04296cb0102563f84,TCN,2024-06-26_10h38.02.454,LearnStrategy,2023.2.3,Win32,37.79289494,3,1,14,0.0546875,0.015625,1,0,0,0.754,rock_grid_rect_2,5,02,-1,-1,0.754,-0.3515625,-0.392578125,1,0,0,1.171,Obsidian_rect,5,1.171,1,13,0,13,0,1,,,,,,,,,,,,,
5f9fdfd04296cb0102563f84,TCN,2024-06-26_10h38.02.454,LearnStrategy,2023.2.3,Win32,37.79289494,3,1,15,0.081054688,-0.002929688,1,0,0,1.129,rock_grid_rect_2,2,02,-1,-1,1.129,-0.349609375,-0.254882813,1,0,0,1.984,Andesite_rect,1,1.984,0,14,0,14,0,1,,,,,,,,,,,,,
5f9fdfd04296cb0102563f84,TCN,2024-06-26_10h38.02.454,LearnStrategy,2023.2.3,Win32,37.79289494,3,1,16,0.05859375,0.020507813,1,0,0,0.762,rock_grid_rect_2,3,06,-1,-1,0.762,-0.094726563,-0.255859375,1,0,0,1.488,Basalt_rect,2,1.488,0,15,0,15,0,1,,,,,,,,,,,,,
5f9fdfd04296cb0102563f84,TCN,2024-06-26_10h38.02.454,LearnStrategy,2023.2.3,Win32,37.79289494,3,2,1,,,,,,,,3,08,,,,,,,,,,,3,1.83,1,,,,,,0.096679688,-0.254882813,1,0,0,1.83,Diorite_rect,0,0,0,0,1,
5f9fdfd04296cb0102563f84,TCN,2024-06-26_10h38.02.454,LearnStrategy,2023.2.3,Win32,37.79289494,3,2,2,,,,,,,,2,11,,,,,,,,,,,8,1.719,0,,,,,,0.400390625,-0.41796875,1,0,0,1.719,Pumice_rect,1,0,1,0,1,
5f9fdfd04296cb0102563f84,TCN,2024-06-26_10h38.02.454,LearnStrategy,2023.2.3,Win32,37.79289494,3,2,3,,,,,,,,4,13,,,,,,,,,,,7,2.456,0,,,,,,0.125,-0.405273438,1,0,0,2.456,Peridotite_rect,2,0,2,0,1,
5f9fdfd04296cb0102563f84,TCN,2024-06-26_10h38.02.454,LearnStrategy,2023.2.3,Win32,37.79289494,3,2,4,,,,,,,,3,14,,,,,,,,,,,7,7.131,0,,,,,,0.073242188,-0.390625,1,0,0,7.131,Peridotite_rect,3,0,3,0,1,
5f9fdfd04296cb0102563f84,TCN,2024-06-26_10h38.02.454,LearnStrategy,2023.2.3,Win32,37.79289494,3,2,5,,,,,,,,1,06,,,,,,,,,,,6,3.298,0,,,,,,-0.12890625,-0.400390625,1,0,0,3.298,Pegmatite_rect,4,0,4,0,1,
5f9fdfd04296cb0102563f84,TCN,2024-06-26_10h38.02.454,LearnStrategy,2023.2.3,Win32,37.79289494,3,2,6,,,,,,,,6,10,,,,,,,,,,,8,8.971,0,,,,,,0.376953125,-0.393554688,1,0,0,8.971,Pumice_rect,5,0,5,0,1,
5f9fdfd04296cb0102563f84,TCN,2024-06-26_10h38.02.454,LearnStrategy,2023.2.3,Win32,37.79289494,3,2,7,,,,,,,,1,04,,,,,,,,,,,1,3.005,1,,,,,,-0.35546875,-0.252929688,1,0,0,3.005,Andesite_rect,6,0,6,0,1,
5f9fdfd04296cb0102563f84,TCN,2024-06-26_10h38.02.454,LearnStrategy,2023.2.3,Win32,37.79289494,3,2,8,,,,,,,,7,02,,,,,,,,,,,1,1.474,0,,,,,,-0.350585938,-0.256835938,1,0,0,1.474,Andesite_rect,7,0,7,0,1,
5f9fdfd04296cb0102563f84,TCN,2024-06-26_10h38.02.454,LearnStrategy,2023.2.3,Win32,37.79289494,3,2,9,,,,,,,,6,08,,,,,,,,,,,8,4.744,0,,,,,,0.3984375,-0.39453125,1,0,0,4.744,Pumice_rect,8,0,8,0,1,
5f9fdfd04296cb0102563f84,TCN,2024-06-26_10h38.02.454,LearnStrategy,2023.2.3,Win32,37.79289494,3,2,10,,,,,,,,2,10,,,,,,,,,,,5,1.362,0,,,,,,-0.370117188,-0.408203125,1,0,0,1.362,Obsidian_rect,9,0,9,0,1,
5f9fdfd04296cb0102563f84,TCN,2024-06-26_10h38.02.454,LearnStrategy,2023.2.3,Win32,37.79289494,3,2,11,,,,,,,,7,08,,,,,,,,,,,1,5.23,0,,,,,,-0.3046875,-0.256835938,1,0,0,5.23,Andesite_rect,10,0,10,0,1,
5f9fdfd04296cb0102563f84,TCN,2024-06-26_10h38.02.454,LearnStrategy,2023.2.3,Win32,37.79289494,3,2,12,,,,,,,,4,16,,,,,,,,,,,5,2.231,0,,,,,,-0.33984375,-0.3984375,1,0,0,2.231,Obsidian_rect,11,0,11,0,1,
5f9fdfd04296cb0102563f84,TCN,2024-06-26_10h38.02.454,LearnStrategy,2023.2.3,Win32,37.79289494,3,2,13,,,,,,,,8,04,,,,,,,,,,,8,3.059,1,,,,,,0.418945313,-0.409179688,1,0,0,3.059,Pumice_rect,12,0,12,0,1,
5f9fdfd04296cb0102563f84,TCN,2024-06-26_10h38.02.454,LearnStrategy,2023.2.3,Win32,37.79289494,3,2,14,,,,,,,,5,10,,,,,,,,,,,5,1.505,1,,,,,,-0.395507813,-0.384765625,1,0,0,1.505,Obsidian_rect,13,0,13,0,1,
5f9fdfd04296cb0102563f84,TCN,2024-06-26_10h38.02.454,LearnStrategy,2023.2.3,Win32,37.79289494,3,2,15,,,,,,,,8,03,,,,,,,,,,,8,1.431,1,,,,,,0.411132813,-0.40625,1,0,0,1.431,Pumice_rect,14,0,14,0,1,
5f9fdfd04296cb0102563f84,TCN,2024-06-26_10h38.02.454,LearnStrategy,2023.2.3,Win32,37.79289494,3,2,16,,,,,,,,5,06,,,,,,,,,,,5,1.443,1,,,,,,-0.374023438,-0.404296875,1,0,0,1.443,Obsidian_rect,15,0,15,0,1,
5f9fdfd04296cb0102563f84,TCN,2024-06-26_10h38.02.454,LearnStrategy,2023.2.3,Win32,37.79289494,4,1,1,-0.005859375,0.012695313,1,0,0,1.588,rock_grid_rect_2,4,10,-1,-1,1.588,-0.340820313,-0.40625,1,0,0,1.747,Obsidian_rect,5,1.747,0,0,0,0,0,1,,,,,,,,,,,,,
5f9fdfd04296cb0102563f84,TCN,2024-06-26_10h38.02.454,LearnStrategy,2023.2.3,Win32,37.79289494,4,1,2,0.004882813,-0.008789063,1,0,0,0.973,rock_grid_rect_2,7,07,-1,-1,0.973,-0.358398438,-0.235351563,1,0,0,1.959,Andesite_rect,1,1.959,0,1,0,1,0,1,,,,,,,,,,,,,
5f9fdfd04296cb0102563f84,TCN,2024-06-26_10h38.02.454,LearnStrategy,2023.2.3,Win32,37.79289494,4,1,3,0.069335938,0.002929688,1,0,0,0.842,rock_grid_rect_2,2,06,-1,-1,0.842,-0.380859375,-0.397460938,1,0,0,1.256,Obsidian_rect,5,1.256,0,2,0,2,0,1,,,,,,,,,,,,,
5f9fdfd04296cb0102563f84,TCN,2024-06-26_10h38.02.454,LearnStrategy,2023.2.3,Win32,37.79289494,4,1,4,0.028320313,-0.018554688,1,0,0,1.133,rock_grid_rect_2,1,09,-1,-1,1.133,-0.125,-0.264648438,1,0,0,1.837,Basalt_rect,2,1.837,0,3,0,3,0,1,,,,,,,,,,,,,
5f9fdfd04296cb0102563f84,TCN,2024-06-26_10h38.02.454,LearnStrategy,2023.2.3,Win32,37.79289494,4,1,5,0.083007813,0.000976563,1,0,0,0.729,rock_grid_rect_2,3,06,-1,-1,0.729,0.098632813,-0.259765625,1,0,0,1.353,Diorite_rect,3,1.353,1,4,0,4,0,1,,,,,,,,,,,,,
5f9fdfd04296cb0102563f84,TCN,2024-06-26_10h38.02.454,LearnStrategy,2023.2.3,Win32,37.79289494,4,1,6,0.080078125,-0.013671875,1,0,0,0.794,rock_grid_rect_2,2,08,-1,-1,0.794,-0.354492188,-0.40234375,1,0,0,2.058,Obsidian_rect,5,2.058,0,5,0,5,0,1,,,,,,,,,,,,,
5f9fdfd04296cb0102563f84,TCN,2024-06-26_10h38.02.454,LearnStrategy,2023.2.3,Win32,37.79289494,4,1,7,0.078125,0.010742188,1,0,0,0.708,rock_grid_rect_2,7,15,-1,-1,0.708,0.1171875,-0.403320313,1,0,0,2.015,Peridotite_rect,7,2.015,1,6,0,6,0,1,,,,,,,,,,,,,
5f9fdfd04296cb0102563f84,TCN,2024-06-26_10h38.02.454,LearnStrategy,2023.2.3,Win32,37.79289494,4,1,8,0.064453125,-0.0078125,1,0,0,0.76,rock_grid_rect_2,8,14,-1,-1,0.76,0.374023438,-0.413085938,1,0,0,2.898,Pumice_rect,8,2.898,1,7,0,7,0,1,,,,,,,,,,,,,
5f9fdfd04296cb0102563f84,TCN,2024-06-26_10h38.02.454,LearnStrategy,2023.2.3,Win32,37.79289494,4,1,9,0.096679688,-0.009765625,1,0,0,0.911,rock_grid_rect_2,3,10,-1,-1,0.911,-0.109375,-0.413085938,1,0,0,1.19,Pegmatite_rect,6,1.19,0,8,0,8,0,1,,,,,,,,,,,,,
5f9fdfd04296cb0102563f84,TCN,2024-06-26_10h38.02.454,LearnStrategy,2023.2.3,Win32,37.79289494,4,1,10,0.088867188,0.001953125,1,0,0,0.81,rock_grid_rect_2,6,07,-1,-1,0.81,0.090820313,-0.4140625,1,0,0,3.703,Peridotite_rect,7,3.703,0,9,0,9,0,1,,,,,,,,,,,,,
5f9fdfd04296cb0102563f84,TCN,2024-06-26_10h38.02.454,LearnStrategy,2023.2.3,Win32,37.79289494,4,1,11,0.055664063,-0.018554688,1,0,0,0.815,rock_grid_rect_2,1,01,-1,-1,0.815,-0.09375,-0.420898438,1,0,0,1.969,Pegmatite_rect,6,1.969,0,10,0,10,0,1,,,,,,,,,,,,,
5f9fdfd04296cb0102563f84,TCN,2024-06-26_10h38.02.454,LearnStrategy,2023.2.3,Win32,37.79289494,4,1,12,0.04296875,-0.010742188,1,0,0,0.734,rock_grid_rect_2,8,13,-1,-1,0.734,0.368164063,-0.418945313,1,0,0,2.366,Pumice_rect,8,2.366,1,11,0,11,0,1,,,,,,,,,,,,,
5f9fdfd04296cb0102563f84,TCN,2024-06-26_10h38.02.454,LearnStrategy,2023.2.3,Win32,37.79289494,4,1,13,0.047851563,0.006835938,1,0,0,1.053,rock_grid_rect_2,4,15,-1,-1,1.053,-0.080078125,-0.381835938,1,0,0,2.926,Pegmatite_rect,6,2.926,0,12,0,12,0,1,,,,,,,,,,,,,
5f9fdfd04296cb0102563f84,TCN,2024-06-26_10h38.02.454,LearnStrategy,2023.2.3,Win32,37.79289494,4,1,14,0.065429688,0.010742188,1,0,0,0.786,rock_grid_rect_2,5,08,-1,-1,0.786,-0.411132813,-0.401367188,1,0,0,1.309,Obsidian_rect,5,1.309,1,13,0,13,0,1,,,,,,,,,,,,,
5f9fdfd04296cb0102563f84,TCN,2024-06-26_10h38.02.454,LearnStrategy,2023.2.3,Win32,37.79289494,4,1,15,0.073242188,-0.013671875,1,0,0,1.191,rock_grid_rect_2,6,09,-1,-1,1.191,-0.364257813,-0.250976563,1,0,0,1.361,Andesite_rect,1,1.361,0,14,0,14,0,1,,,,,,,,,,,,,
5f9fdfd04296cb0102563f84,TCN,2024-06-26_10h38.02.454,LearnStrategy,2023.2.3,Win32,37.79289494,4,1,16,0.075195313,-0.010742188,1,0,0,0.857,rock_grid_rect_2,5,07,-1,-1,0.857,-0.424804688,-0.418945313,1,0,0,1.083,Obsidian_rect,5,1.083,1,15,0,15,0,1,,,,,,,,,,,,,
5f9fdfd04296cb0102563f84,TCN,2024-06-26_10h38.02.454,LearnStrategy,2023.2.3,Win32,37.79289494,4,2,1,,,,,,,,8,10,,,,,,,,,,,8,2.177,1,,,,,,0.344726563,-0.415039063,1,0,0,2.177,Pumice_rect,0,0,0,0,1,
5f9fdfd04296cb0102563f84,TCN,2024-06-26_10h38.02.454,LearnStrategy,2023.2.3,Win32,37.79289494,4,2,2,,,,,,,,6,11,,,,,,,,,,,4,6.537,0,,,,,,0.361328125,-0.244140625,1,0,0,6.537,Gabbro_rect,1,0,1,0,1,
5f9fdfd04296cb0102563f84,TCN,2024-06-26_10h38.02.454,LearnStrategy,2023.2.3,Win32,37.79289494,4,2,3,,,,,,,,5,14,,,,,,,,,,,5,1.763,1,,,,,,-0.358398438,-0.409179688,1,0,0,1.763,Obsidian_rect,2,0,2,0,1,
5f9fdfd04296cb0102563f84,TCN,2024-06-26_10h38.02.454,LearnStrategy,2023.2.3,Win32,37.79289494,4,2,4,,,,,,,,4,09,,,,,,,,,,,1,6.188,0,,,,,,-0.33984375,-0.256835938,1,0,0,6.188,Andesite_rect,3,0,3,0,1,
5f9fdfd04296cb0102563f84,TCN,2024-06-26_10h38.02.454,LearnStrategy,2023.2.3,Win32,37.79289494,4,2,5,,,,,,,,4,05,,,,,,,,,,,3,5.984,0,,,,,,0.103515625,-0.252929688,1,0,0,5.984,Diorite_rect,4,0,4,0,1,
5f9fdfd04296cb0102563f84,TCN,2024-06-26_10h38.02.454,LearnStrategy,2023.2.3,Win32,37.79289494,4,2,6,,,,,,,,2,10,,,,,,,,,,,5,1.937,0,,,,,,-0.3671875,-0.408203125,1,0,0,1.937,Obsidian_rect,5,0,5,0,1,
5f9fdfd04296cb0102563f84,TCN,2024-06-26_10h38.02.454,LearnStrategy,2023.2.3,Win32,37.79289494,4,2,7,,,,,,,,7,14,,,,,,,,,,,3,10.424,0,,,,,,0.119140625,-0.256835938,1,0,0,10.424,Diorite_rect,6,0,6,0,1,
5f9fdfd04296cb0102563f84,TCN,2024-06-26_10h38.02.454,LearnStrategy,2023.2.3,Win32,37.79289494,4,2,8,,,,,,,,5,10,,,,,,,,,,,5,2.135,1,,,,,,-0.340820313,-0.411132813,1,0,0,2.135,Obsidian_rect,7,0,7,0,1,
5f9fdfd04296cb0102563f84,TCN,2024-06-26_10h38.02.454,LearnStrategy,2023.2.3,Win32,37.79289494,4,2,9,,,,,,,,1,07,,,,,,,,,,,1,4.111,1,,,,,,-0.346679688,-0.24609375,1,0,0,4.111,Andesite_rect,8,0,8,0,1,
5f9fdfd04296cb0102563f84,TCN,2024-06-26_10h38.02.454,LearnStrategy,2023.2.3,Win32,37.79289494,4,2,10,,,,,,,,3,11,,,,,,,,,,,2,5.812,0,,,,,,-0.087890625,-0.265625,1,0,0,5.812,Basalt_rect,9,0,9,0,1,
5f9fdfd04296cb0102563f84,TCN,2024-06-26_10h38.02.454,LearnStrategy,2023.2.3,Win32,37.79289494,4,2,11,,,,,,,,6,10,,,,,,,,,,,1,4.561,0,,,,,,-0.349609375,-0.254882813,1,0,0,4.561,Andesite_rect,10,0,10,0,1,
5f9fdfd04296cb0102563f84,TCN,2024-06-26_10h38.02.454,LearnStrategy,2023.2.3,Win32,37.79289494,4,2,12,,,,,,,,7,08,,,,,,,,,,,1,2.481,0,,,,,,-0.345703125,-0.259765625,1,0,0,2.481,Andesite_rect,11,0,11,0,1,
5f9fdfd04296cb0102563f84,TCN,2024-06-26_10h38.02.454,LearnStrategy,2023.2.3,Win32,37.79289494,4,2,13,,,,,,,,8,16,,,,,,,,,,,8,1.569,1,,,,,,0.40234375,-0.407226563,1,0,0,1.569,Pumice_rect,12,0,12,0,1,
5f9fdfd04296cb0102563f84,TCN,2024-06-26_10h38.02.454,LearnStrategy,2023.2.3,Win32,37.79289494,4,2,14,,,,,,,,2,11,,,,,,,,,,,6,2.006,0,,,,,,-0.096679688,-0.41015625,1,0,0,2.006,Pegmatite_rect,13,0,13,0,1,
5f9fdfd04296cb0102563f84,TCN,2024-06-26_10h38.02.454,LearnStrategy,2023.2.3,Win32,37.79289494,4,2,15,,,,,,,,3,13,,,,,,,,,,,3,6.252,1,,,,,,0.095703125,-0.271484375,1,0,0,6.252,Diorite_rect,14,0,14,0,1,
5f9fdfd04296cb0102563f84,TCN,2024-06-26_10h38.02.454,LearnStrategy,2023.2.3,Win32,37.79289494,4,2,16,,,,,,,,1,06,,,,,,,,,,,2,1.683,0,,,,,,-0.188476563,-0.247070313,1,0,0,1.683,Basalt_rect,15,0,15,0,1,
5f9fdfd04296cb0102563f84,TCN,2024-06-26_10h38.02.454,LearnStrategy,2023.2.3,Win32,37.79289494,5,1,1,-0.026367188,-0.01171875,1,0,0,0.877,rock_grid_rect_2,6,05,-1,-1,0.877,0.418945313,-0.418945313,1,0,0,3.581,Pumice_rect,8,3.581,0,0,0,0,0,1,,,,,,,,,,,,,
5f9fdfd04296cb0102563f84,TCN,2024-06-26_10h38.02.454,LearnStrategy,2023.2.3,Win32,37.79289494,5,1,2,0.02734375,-0.020507813,1,0,0,0.943,rock_grid_rect_2,7,05,-1,-1,0.943,-0.07421875,-0.258789063,1,0,0,1.466,Basalt_rect,2,1.466,0,1,0,1,0,1,,,,,,,,,,,,,
5f9fdfd04296cb0102563f84,TCN,2024-06-26_10h38.02.454,LearnStrategy,2023.2.3,Win32,37.79289494,5,1,3,0.017578125,-0.01953125,1,0,0,1.241,rock_grid_rect_2,5,02,-1,-1,1.241,-0.381835938,-0.400390625,1,0,0,1.116,Obsidian_rect,5,1.116,1,2,0,2,0,1,,,,,,,,,,,,,
5f9fdfd04296cb0102563f84,TCN,2024-06-26_10h38.02.454,LearnStrategy,2023.2.3,Win32,37.79289494,5,1,4,0.002929688,-0.006835938,1,0,0,1.059,rock_grid_rect_2,3,07,-1,-1,1.059,-0.365234375,-0.271484375,1,0,0,1.273,Andesite_rect,1,1.273,0,3,0,3,0,1,,,,,,,,,,,,,
5f9fdfd04296cb0102563f84,TCN,2024-06-26_10h38.02.454,LearnStrategy,2023.2.3,Win32,37.79289494,5,1,5,0.052734375,-0.022460938,1,0,0,0.701,rock_grid_rect_2,4,08,-1,-1,0.701,-0.106445313,-0.256835938,1,0,0,2.14,Basalt_rect,2,2.14,0,4,0,4,0,1,,,,,,,,,,,,,
5f9fdfd04296cb0102563f84,TCN,2024-06-26_10h38.02.454,LearnStrategy,2023.2.3,Win32,37.79289494,5,1,6,0.045898438,0.016601563,1,0,0,0.748,rock_grid_rect_2,4,01,-1,-1,0.748,-0.10546875,-0.249023438,1,0,0,1,Basalt_rect,2,1,0,5,0,5,0,1,,,,,,,,,,,,,
5f9fdfd04296cb0102563f84,TCN,2024-06-26_10h38.02.454,LearnStrategy,2023.2.3,Win32,37.79289494,5,1,7,0.046875,-0.001953125,1,0,0,0.698,rock_grid_rect_2,6,06,-1,-1,0.698,0.166015625,-0.264648438,1,0,0,3.556,Diorite_rect,3,3.556,0,6,0,6,0,1,,,,,,,,,,,,,
5f9fdfd04296cb0102563f84,TCN,2024-06-26_10h38.02.454,LearnStrategy,2023.2.3,Win32,37.79289494,5,1,8,-0.033203125,0.010742188,1,0,0,0.9,rock_grid_rect_2,8,08,-1,-1,0.9,0.344726563,-0.409179688,1,0,0,2.197,Pumice_rect,8,2.197,1,7,0,7,0,1,,,,,,,,,,,,,
5f9fdfd04296cb0102563f84,TCN,2024-06-26_10h38.02.454,LearnStrategy,2023.2.3,Win32,37.79289494,5,1,9,0.03125,-0.002929688,1,0,0,0.709,rock_grid_rect_2,8,05,-1,-1,0.709,0.35546875,-0.404296875,1,0,0,1.208,Pumice_rect,8,1.208,1,8,0,8,0,1,,,,,,,,,,,,,
5f9fdfd04296cb0102563f84,TCN,2024-06-26_10h38.02.454,LearnStrategy,2023.2.3,Win32,37.79289494,5,1,10,0.00390625,0,1,0,0,1.039,rock_grid_rect_2,1,14,-1,-1,1.039,-0.092773438,-0.403320313,1,0,0,2.834,Pegmatite_rect,6,2.834,0,9,0,9,0,1,,,,,,,,,,,,,
5f9fdfd04296cb0102563f84,TCN,2024-06-26_10h38.02.454,LearnStrategy,2023.2.3,Win32,37.79289494,5,1,11,0.032226563,0.001953125,1,0,0,0.753,rock_grid_rect_2,5,04,-1,-1,0.753,-0.365234375,-0.40234375,1,0,0,2.336,Obsidian_rect,5,2.336,1,10,0,10,0,1,,,,,,,,,,,,,
5f9fdfd04296cb0102563f84,TCN,2024-06-26_10h38.02.454,LearnStrategy,2023.2.3,Win32,37.79289494,5,1,12,0.045898438,-0.001953125,1,0,0,0.715,rock_grid_rect_2,2,01,-1,-1,0.715,-0.189453125,-0.250976563,1,0,0,2.669,Basalt_rect,2,2.669,1,11,0,11,0,1,,,,,,,,,,,,,
5f9fdfd04296cb0102563f84,TCN,2024-06-26_10h38.02.454,LearnStrategy,2023.2.3,Win32,37.79289494,5,1,13,0.018554688,-0.01171875,1,0,0,0.799,rock_grid_rect_2,7,10,-1,-1,0.799,-0.069335938,-0.40625,1,0,0,3.472,Pegmatite_rect,6,3.472,0,12,0,12,0,1,,,,,,,,,,,,,
5f9fdfd04296cb0102563f84,TCN,2024-06-26_10h38.02.454,LearnStrategy,2023.2.3,Win32,37.79289494,5,1,14,0.0703125,-0.0234375,1,0,0,0.767,rock_grid_rect_2,2,12,-1,-1,0.767,0.076171875,-0.391601563,1,0,0,2.681,Peridotite_rect,7,2.681,0,13,0,13,0,1,,,,,,,,,,,,,
5f9fdfd04296cb0102563f84,TCN,2024-06-26_10h38.02.454,LearnStrategy,2023.2.3,Win32,37.79289494,5,1,15,0.068359375,0.005859375,1,0,0,0.644,rock_grid_rect_2,1,16,-1,-1,0.644,-0.103515625,-0.404296875,1,0,0,1.207,Pegmatite_rect,6,1.207,0,14,0,14,0,1,,,,,,,,,,,,,
5f9fdfd04296cb0102563f84,TCN,2024-06-26_10h38.02.454,LearnStrategy,2023.2.3,Win32,37.79289494,5,1,16,0.119140625,0.0078125,1,0,0,0.642,rock_grid_rect_2,3,12,-1,-1,0.642,0.333007813,-0.245117188,1,0,0,2.761,Gabbro_rect,4,2.761,0,15,0,15,0,1,,,,,,,,,,,,,
5f9fdfd04296cb0102563f84,TCN,2024-06-26_10h38.02.454,LearnStrategy,2023.2.3,Win32,37.79289494,5,2,1,,,,,,,,4,03,,,,,,,,,,,3,4.992,0,,,,,,0.083984375,-0.254882813,1,0,0,4.992,Diorite_rect,0,0,0,0,1,
5f9fdfd04296cb0102563f84,TCN,2024-06-26_10h38.02.454,LearnStrategy,2023.2.3,Win32,37.79289494,5,2,2,,,,,,,,7,04,,,,,,,,,,,1,5.15,0,,,,,,-0.33984375,-0.256835938,1,0,0,5.15,Andesite_rect,1,0,1,0,1,
5f9fdfd04296cb0102563f84,TCN,2024-06-26_10h38.02.454,LearnStrategy,2023.2.3,Win32,37.79289494,5,2,3,,,,,,,,2,04,,,,,,,,,,,2,4.751,1,,,,,,-0.173828125,-0.254882813,1,0,0,4.751,Basalt_rect,2,0,2,0,1,
5f9fdfd04296cb0102563f84,TCN,2024-06-26_10h38.02.454,LearnStrategy,2023.2.3,Win32,37.79289494,5,2,4,,,,,,,,3,14,,,,,,,,,,,1,3.779,0,,,,,,-0.3515625,-0.248046875,1,0,0,3.779,Andesite_rect,3,0,3,0,1,
5f9fdfd04296cb0102563f84,TCN,2024-06-26_10h38.02.454,LearnStrategy,2023.2.3,Win32,37.79289494,5,2,5,,,,,,,,1,03,,,,,,,,,,,2,2.248,0,,,,,,-0.162109375,-0.254882813,1,0,0,2.248,Basalt_rect,4,0,4,0,1,
5f9fdfd04296cb0102563f84,TCN,2024-06-26_10h38.02.454,LearnStrategy,2023.2.3,Win32,37.79289494,5,2,6,,,,,,,,5,06,,,,,,,,,,,5,1.308,1,,,,,,-0.384765625,-0.408203125,1,0,0,1.308,Obsidian_rect,5,0,5,0,1,
5f9fdfd04296cb0102563f84,TCN,2024-06-26_10h38.02.454,LearnStrategy,2023.2.3,Win32,37.79289494,5,2,7,,,,,,,,4,13,,,,,,,,,,,7,3.721,0,,,,,,0.073242188,-0.390625,1,0,0,3.721,Peridotite_rect,6,0,6,0,1,
5f9fdfd04296cb0102563f84,TCN,2024-06-26_10h38.02.454,LearnStrategy,2023.2.3,Win32,37.79289494,5,2,8,,,,,,,,1,11,,,,,,,,,,,4,3.563,0,,,,,,0.37109375,-0.25390625,1,0,0,3.563,Gabbro_rect,7,0,7,0,1,
5f9fdfd04296cb0102563f84,TCN,2024-06-26_10h38.02.454,LearnStrategy,2023.2.3,Win32,37.79289494,5,2,9,,,,,,,,2,09,,,,,,,,,,,2,2.543,1,,,,,,-0.166015625,-0.259765625,1,0,0,2.543,Basalt_rect,8,0,8,0,1,
5f9fdfd04296cb0102563f84,TCN,2024-06-26_10h38.02.454,LearnStrategy,2023.2.3,Win32,37.79289494,5,2,10,,,,,,,,3,02,,,,,,,,,,,1,1.67,0,,,,,,-0.354492188,-0.2578125,1,0,0,1.67,Andesite_rect,9,0,9,0,1,
5f9fdfd04296cb0102563f84,TCN,2024-06-26_10h38.02.454,LearnStrategy,2023.2.3,Win32,37.79289494,5,2,11,,,,,,,,6,13,,,,,,,,,,,3,4.294,0,,,,,,0.079101563,-0.243164063,1,0,0,4.294,Diorite_rect,10,0,10,0,1,
5f9fdfd04296cb0102563f84,TCN,2024-06-26_10h38.02.454,LearnStrategy,2023.2.3,Win32,37.79289494,5,2,12,,,,,,,,7,02,,,,,,,,,,,4,2.695,0,,,,,,0.34765625,-0.250976563,1,0,0,2.695,Gabbro_rect,11,0,11,0,1,
5f9fdfd04296cb0102563f84,TCN,2024-06-26_10h38.02.454,LearnStrategy,2023.2.3,Win32,37.79289494,5,2,13,,,,,,,,8,03,,,,,,,,,,,8,2.57,1,,,,,,0.393554688,-0.416015625,1,0,0,2.57,Pumice_rect,12,0,12,0,1,
5f9fdfd04296cb0102563f84,TCN,2024-06-26_10h38.02.454,LearnStrategy,2023.2.3,Win32,37.79289494,5,2,14,,,,,,,,8,02,,,,,,,,,,,8,1.194,1,,,,,,0.376953125,-0.416992188,1,0,0,1.194,Pumice_rect,13,0,13,0,1,
5f9fdfd04296cb0102563f84,TCN,2024-06-26_10h38.02.454,LearnStrategy,2023.2.3,Win32,37.79289494,5,2,15,,,,,,,,5,12,,,,,,,,,,,5,1.382,1,,,,,,-0.44921875,-0.391601563,1,0,0,1.382,Obsidian_rect,14,0,14,0,1,
5f9fdfd04296cb0102563f84,TCN,2024-06-26_10h38.02.454,LearnStrategy,2023.2.3,Win32,37.79289494,5,2,16,,,,,,,,6,08,,,,,,,,,,,7,3.406,0,,,,,,0.055664063,-0.399414063,1,0,0,3.406,Peridotite_rect,15,0,15,0,1,
5f9fdfd04296cb0102563f84,TCN,2024-06-26_10h38.02.454,LearnStrategy,2023.2.3,Win32,37.79289494,6,1,1,-0.012695313,-0.00390625,1,0,0,0.875,rock_grid_rect_2,6,15,-1,-1,0.875,0.104492188,-0.25,1,0,0,2.098,Diorite_rect,3,2.098,0,0,0,0,0,1,,,,,,,,,,,,,
5f9fdfd04296cb0102563f84,TCN,2024-06-26_10h38.02.454,LearnStrategy,2023.2.3,Win32,37.79289494,6,1,2,0.016601563,-0.000976563,1,0,0,0.826,rock_grid_rect_2,5,05,-1,-1,0.826,-0.364257813,-0.412109375,1,0,0,1.535,Obsidian_rect,5,1.535,1,1,0,1,0,1,,,,,,,,,,,,,
5f9fdfd04296cb0102563f84,TCN,2024-06-26_10h38.02.454,LearnStrategy,2023.2.3,Win32,37.79289494,6,1,3,0.055664063,-0.002929688,1,0,0,0.851,rock_grid_rect_2,3,09,-1,-1,0.851,-0.078125,-0.259765625,1,0,0,1.589,Basalt_rect,2,1.589,0,2,0,2,0,1,,,,,,,,,,,,,
5f9fdfd04296cb0102563f84,TCN,2024-06-26_10h38.02.454,LearnStrategy,2023.2.3,Win32,37.79289494,6,1,4,0.09375,-0.004882813,1,0,0,0.866,rock_grid_rect_2,3,15,-1,-1,0.866,0.072265625,-0.255859375,1,0,0,1.532,Diorite_rect,3,1.532,1,3,0,3,0,1,,,,,,,,,,,,,
5f9fdfd04296cb0102563f84,TCN,2024-06-26_10h38.02.454,LearnStrategy,2023.2.3,Win32,37.79289494,6,1,5,0.083007813,0.002929688,1,0,0,0.876,rock_grid_rect_2,8,09,-1,-1,0.876,0.381835938,-0.404296875,1,0,0,1.924,Pumice_rect,8,1.924,1,4,0,4,0,1,,,,,,,,,,,,,
5f9fdfd04296cb0102563f84,TCN,2024-06-26_10h38.02.454,LearnStrategy,2023.2.3,Win32,37.79289494,6,1,6,0.061523438,0.000976563,1,0,0,0.91,rock_grid_rect_2,1,05,-1,-1,0.91,0.341796875,-0.2421875,1,0,0,2.691,Gabbro_rect,4,2.691,0,5,0,5,0,1,,,,,,,,,,,,,
5f9fdfd04296cb0102563f84,TCN,2024-06-26_10h38.02.454,LearnStrategy,2023.2.3,Win32,37.79289494,6,1,7,0.073242188,-0.010742188,1,0,0,0.823,rock_grid_rect_2,2,02,-1,-1,0.823,-0.109375,-0.258789063,1,0,0,1.776,Basalt_rect,2,1.776,1,6,0,6,0,1,,,,,,,,,,,,,
5f9fdfd04296cb0102563f84,TCN,2024-06-26_10h38.02.454,LearnStrategy,2023.2.3,Win32,37.79289494,6,1,8,0.028320313,-0.015625,1,0,0,0.885,rock_grid_rect_2,7,13,-1,-1,0.885,0.379882813,-0.252929688,1,0,0,3.027,Gabbro_rect,4,3.027,0,7,0,7,0,1,,,,,,,,,,,,,
5f9fdfd04296cb0102563f84,TCN,2024-06-26_10h38.02.454,LearnStrategy,2023.2.3,Win32,37.79289494,6,1,9,0.114257813,-0.0078125,1,0,0,0.826,rock_grid_rect_2,2,14,-1,-1,0.826,-0.096679688,-0.409179688,1,0,0,4.509,Pegmatite_rect,6,4.509,0,8,0,8,0,1,,,,,,,,,,,,,
5f9fdfd04296cb0102563f84,TCN,2024-06-26_10h38.02.454,LearnStrategy,2023.2.3,Win32,37.79289494,6,1,10,0.075195313,-0.01171875,1,0,0,0.835,rock_grid_rect_2,4,12,-1,-1,0.835,-0.069335938,-0.403320313,1,0,0,4.492,Pegmatite_rect,6,4.492,0,9,0,9,0,1,,,,,,,,,,,,,
5f9fdfd04296cb0102563f84,TCN,2024-06-26_10h38.02.454,LearnStrategy,2023.2.3,Win32,37.79289494,6,1,11,0.07421875,0,1,0,0,0.691,rock_grid_rect_2,6,12,-1,-1,0.691,-0.061523438,-0.400390625,1,0,0,3.556,Pegmatite_rect,6,3.556,1,10,0,10,0,1,,,,,,,,,,,,,
5f9fdfd04296cb0102563f84,TCN,2024-06-26_10h38.02.454,LearnStrategy,2023.2.3,Win32,37.79289494,6,1,12,0.1171875,-0.01171875,1,0,0,0.692,rock_grid_rect_2,7,06,-1,-1,0.692,0.3671875,-0.255859375,1,0,0,3.758,Gabbro_rect,4,3.758,0,11,0,11,0,1,,,,,,,,,,,,,
5f9fdfd04296cb0102563f84,TCN,2024-06-26_10h38.02.454,LearnStrategy,2023.2.3,Win32,37.79289494,6,1,13,0.106445313,-0.006835938,1,0,0,0.703,rock_grid_rect_2,1,10,-1,-1,0.703,0.385742188,-0.395507813,1,0,0,4.642,Pumice_rect,8,4.642,0,12,0,12,0,1,,,,,,,,,,,,,
5f9fdfd04296cb0102563f84,TCN,2024-06-26_10h38.02.454,LearnStrategy,2023.2.3,Win32,37.79289494,6,1,14,0.096679688,-0.021484375,1,0,0,0.706,rock_grid_rect_2,8,15,-1,-1,0.706,0.408203125,-0.400390625,1,0,0,1.308,Pumice_rect,8,1.308,1,13,0,13,0,1,,,,,,,,,,,,,
5f9fdfd04296cb0102563f84,TCN,2024-06-26_10h38.02.454,LearnStrategy,2023.2.3,Win32,37.79289494,6,1,15,0.099609375,0.000976563,1,0,0,0.926,rock_grid_rect_2,5,11,-1,-1,0.926,-0.340820313,-0.38671875,1,0,0,1.211,Obsidian_rect,5,1.211,1,14,0,14,0,1,,,,,,,,,,,,,
5f9fdfd04296cb0102563f84,TCN,2024-06-26_10h38.02.454,LearnStrategy,2023.2.3,Win32,37.79289494,6,1,16,0.12890625,0.006835938,1,0,0,0.967,rock_grid_rect_2,4,11,-1,-1,0.967,-0.110351563,-0.244140625,1,0,0,3.267,Basalt_rect,2,3.267,0,15,0,15,0,1,,,,,,,,,,,,,
5f9fdfd04296cb0102563f84,TCN,2024-06-26_10h38.02.454,LearnStrategy,2023.2.3,Win32,37.79289494,6,2,1,,,,,,,,1,02,,,,,,,,,,,3,9.701,0,,,,,,0.178710938,-0.256835938,1,0,0,9.701,Diorite_rect,0,0,0,0,1,
5f9fdfd04296cb0102563f84,TCN,2024-06-26_10h38.02.454,LearnStrategy,2023.2.3,Win32,37.79289494,6,2,2,,,,,,,,8,06,,,,,,,,,,,8,1.314,1,,,,,,0.3828125,-0.4140625,1,0,0,1.314,Pumice_rect,1,0,1,0,1,
5f9fdfd04296cb0102563f84,TCN,2024-06-26_10h38.02.454,LearnStrategy,2023.2.3,Win32,37.79289494,6,2,3,,,,,,,,4,14,,,,,,,,,,,2,3.509,0,,,,,,-0.108398438,-0.24609375,1,0,0,3.509,Basalt_rect,2,0,2,0,1,
5f9fdfd04296cb0102563f84,TCN,2024-06-26_10h38.02.454,LearnStrategy,2023.2.3,Win32,37.79289494,6,2,4,,,,,,,,1,04,,,,,,,,,,,6,5.117,0,,,,,,-0.079101563,-0.405273438,1,0,0,5.117,Pegmatite_rect,3,0,3,0,1,
5f9fdfd04296cb0102563f84,TCN,2024-06-26_10h38.02.454,LearnStrategy,2023.2.3,Win32,37.79289494,6,2,5,,,,,,,,5,09,,,,,,,,,,,5,1.269,1,,,,,,-0.381835938,-0.403320313,1,0,0,1.269,Obsidian_rect,4,0,4,0,1,
5f9fdfd04296cb0102563f84,TCN,2024-06-26_10h38.02.454,LearnStrategy,2023.2.3,Win32,37.79289494,6,2,6,,,,,,,,3,16,,,,,,,,,,,3,1.846,1,,,,,,0.098632813,-0.241210938,1,0,0,1.846,Diorite_rect,5,0,5,0,1,
5f9fdfd04296cb0102563f84,TCN,2024-06-26_10h38.02.454,LearnStrategy,2023.2.3,Win32,37.79289494,6,2,7,,,,,,,,3,08,,,,,,,,,,,3,2.967,1,,,,,,0.09765625,-0.243164063,1,0,0,2.967,Diorite_rect,6,0,6,0,1,
5f9fdfd04296cb0102563f84,TCN,2024-06-26_10h38.02.454,LearnStrategy,2023.2.3,Win32,37.79289494,6,2,8,,,,,,,,6,16,,,,,,,,,,,7,7.433,0,,,,,,0.069335938,-0.379882813,1,0,0,7.433,Peridotite_rect,7,0,7,0,1,
5f9fdfd04296cb0102563f84,TCN,2024-06-26_10h38.02.454,LearnStrategy,2023.2.3,Win32,37.79289494,6,2,9,,,,,,,,8,04,,,,,,,,,,,8,1.443,1,,,,,,0.396484375,-0.407226563,1,0,0,1.443,Pumice_rect,8,0,8,0,1,
5f9fdfd04296cb0102563f84,TCN,2024-06-26_10h38.02.454,LearnStrategy,2023.2.3,Win32,37.79289494,6,2,10,,,,,,,,5,16,,,,,,,,,,,5,1.364,1,,,,,,-0.354492188,-0.395507813,1,0,0,1.364,Obsidian_rect,9,0,9,0,1,
5f9fdfd04296cb0102563f84,TCN,2024-06-26_10h38.02.454,LearnStrategy,2023.2.3,Win32,37.79289494,6,2,11,,,,,,,,2,16,,,,,,,,,,,2,1.591,1,,,,,,-0.135742188,-0.236328125,1,0,0,1.591,Basalt_rect,10,0,10,0,1,
5f9fdfd04296cb0102563f84,TCN,2024-06-26_10h38.02.454,LearnStrategy,2023.2.3,Win32,37.79289494,6,2,12,,,,,,,,7,16,,,,,,,,,,,7,2.37,1,,,,,,0.103515625,-0.404296875,1,0,0,2.37,Peridotite_rect,11,0,11,0,1,
5f9fdfd04296cb0102563f84,TCN,2024-06-26_10h38.02.454,LearnStrategy,2023.2.3,Win32,37.79289494,6,2,13,,,,,,,,4,16,,,,,,,,,,,2,4.065,0,,,,,,-0.150390625,-0.256835938,1,0,0,4.065,Basalt_rect,12,0,12,0,1,
5f9fdfd04296cb0102563f84,TCN,2024-06-26_10h38.02.454,LearnStrategy,2023.2.3,Win32,37.79289494,6,2,14,,,,,,,,2,05,,,,,,,,,,,5,5.91,0,,,,,,-0.342773438,-0.395507813,1,0,0,5.91,Obsidian_rect,13,0,13,0,1,
5f9fdfd04296cb0102563f84,TCN,2024-06-26_10h38.02.454,LearnStrategy,2023.2.3,Win32,37.79289494,6,2,15,,,,,,,,7,12,,,,,,,,,,,7,2.302,1,,,,,,0.11328125,-0.384765625,1,0,0,2.302,Peridotite_rect,14,0,14,0,1,
5f9fdfd04296cb0102563f84,TCN,2024-06-26_10h38.02.454,LearnStrategy,2023.2.3,Win32,37.79289494,6,2,16,,,,,,,,6,03,,,,,,,,,,,7,1.302,0,,,,,,0.090820313,-0.391601563,1,0,0,1.302,Peridotite_rect,15,0,15,0,1,
5f9fdfd04296cb0102563f84,TCN,2024-06-26_10h38.02.454,LearnStrategy,2023.2.3,Win32,37.79289494,7,1,1,-0.00390625,-0.013671875,1,0,0,1.738,rock_grid_rect_2,3,12,-1,-1,1.738,0.1484375,-0.264648438,1,0,0,2.213,Diorite_rect,3,2.213,1,0,0,0,0,1,,,,,,,,,,,,,
5f9fdfd04296cb0102563f84,TCN,2024-06-26_10h38.02.454,LearnStrategy,2023.2.3,Win32,37.79289494,7,1,2,0.028320313,-0.002929688,1,0,0,0.755,rock_grid_rect_2,1,01,-1,-1,0.755,-0.119140625,-0.413085938,1,0,0,5.067,Pegmatite_rect,6,5.067,0,1,0,1,0,1,,,,,,,,,,,,,
5f9fdfd04296cb0102563f84,TCN,2024-06-26_10h38.02.454,LearnStrategy,2023.2.3,Win32,37.79289494,7,1,3,0.055664063,-0.01171875,1,0,0,0.806,rock_grid_rect_2,6,07,-1,-1,0.806,0.086914063,-0.412109375,1,0,0,1.902,Peridotite_rect,7,1.902,0,2,0,2,0,1,,,,,,,,,,,,,
5f9fdfd04296cb0102563f84,TCN,2024-06-26_10h38.02.454,LearnStrategy,2023.2.3,Win32,37.79289494,7,1,4,0.03515625,-0.0234375,1,0,0,0.892,rock_grid_rect_2,2,01,-1,-1,0.892,-0.129882813,-0.256835938,1,0,0,1.941,Basalt_rect,2,1.941,1,3,0,3,0,1,,,,,,,,,,,,,
5f9fdfd04296cb0102563f84,TCN,2024-06-26_10h38.02.454,LearnStrategy,2023.2.3,Win32,37.79289494,7,1,5,0.057617188,0.001953125,1,0,0,0.72,rock_grid_rect_2,6,15,-1,-1,0.72,0.35546875,-0.235351563,1,0,0,2.554,Gabbro_rect,4,2.554,0,4,0,4,0,1,,,,,,,,,,,,,
5f9fdfd04296cb0102563f84,TCN,2024-06-26_10h38.02.454,LearnStrategy,2023.2.3,Win32,37.79289494,7,1,6,0.083984375,-0.014648438,1,0,0,0.701,rock_grid_rect_2,8,08,-1,-1,0.701,0.418945313,-0.399414063,1,0,0,1.883,Pumice_rect,8,1.883,1,5,0,5,0,1,,,,,,,,,,,,,
5f9fdfd04296cb0102563f84,TCN,2024-06-26_10h38.02.454,LearnStrategy,2023.2.3,Win32,37.79289494,7,1,7,0.077148438,-0.001953125,1,0,0,0.704,rock_grid_rect_2,5,04,-1,-1,0.704,-0.395507813,-0.391601563,1,0,0,1.59,Obsidian_rect,5,1.59,1,6,0,6,0,1,,,,,,,,,,,,,
5f9fdfd04296cb0102563f84,TCN,2024-06-26_10h38.02.454,LearnStrategy,2023.2.3,Win32,37.79289494,7,1,8,0.086914063,-0.009765625,1,0,0,0.81,rock_grid_rect_2,5,07,-1,-1,0.81,-0.361328125,-0.411132813,1,0,0,1.017,Obsidian_rect,5,1.017,1,7,0,7,0,1,,,,,,,,,,,,,
5f9fdfd04296cb0102563f84,TCN,2024-06-26_10h38.02.454,LearnStrategy,2023.2.3,Win32,37.79289494,7,1,9,0.116210938,-0.015625,1,0,0,0.811,rock_grid_rect_2,8,15,-1,-1,0.811,0.37109375,-0.412109375,1,0,0,1.272,Pumice_rect,8,1.272,1,8,0,8,0,1,,,,,,,,,,,,,
5f9fdfd04296cb0102563f84,TCN,2024-06-26_10h38.02.454,LearnStrategy,2023.2.3,Win32,37.79289494,7,1,10,0.049804688,-0.006835938,1,0,0,0.725,rock_grid_rect_2,3,10,-1,-1,0.725,0.1171875,-0.252929688,1,0,0,2.488,Diorite_rect,3,2.488,1,9,0,9,0,1,,,,,,,,,,,,,
5f9fdfd04296cb0102563f84,TCN,2024-06-26_10h38.02.454,LearnStrategy,2023.2.3,Win32,37.79289494,7,1,11,0.092773438,-0.002929688,1,0,0,0.77,rock_grid_rect_2,4,08,-1,-1,0.77,0.11328125,-0.250976563,1,0,0,2.46,Diorite_rect,3,2.46,0,10,0,10,0,1,,,,,,,,,,,,,
5f9fdfd04296cb0102563f84,TCN,2024-06-26_10h38.02.454,LearnStrategy,2023.2.3,Win32,37.79289494,7,1,12,0.106445313,0.020507813,1,0,0,0.667,rock_grid_rect_2,7,13,-1,-1,0.667,0.103515625,-0.400390625,1,0,0,1.249,Peridotite_rect,7,1.249,1,11,0,11,0,1,,,,,,,,,,,,,
5f9fdfd04296cb0102563f84,TCN,2024-06-26_10h38.02.454,LearnStrategy,2023.2.3,Win32,37.79289494,7,1,13,0.090820313,-0.018554688,1,0,0,0.754,rock_grid_rect_2,1,16,-1,-1,0.754,0.318359375,-0.25,1,0,0,3.288,Gabbro_rect,4,3.288,0,12,0,12,0,1,,,,,,,,,,,,,
5f9fdfd04296cb0102563f84,TCN,2024-06-26_10h38.02.454,LearnStrategy,2023.2.3,Win32,37.79289494,7,1,14,0.125976563,0.001953125,1,0,0,0.749,rock_grid_rect_2,2,02,-1,-1,0.749,-0.13671875,-0.26953125,1,0,0,1.413,Basalt_rect,2,1.413,1,13,0,13,0,1,,,,,,,,,,,,,
5f9fdfd04296cb0102563f84,TCN,2024-06-26_10h38.02.454,LearnStrategy,2023.2.3,Win32,37.79289494,7,1,15,0.1328125,0.001953125,1,0,0,0.8,rock_grid_rect_2,7,05,-1,-1,0.8,-0.111328125,-0.416015625,1,0,0,3.436,Pegmatite_rect,6,3.436,0,14,0,14,0,1,,,,,,,,,,,,,
5f9fdfd04296cb0102563f84,TCN,2024-06-26_10h38.02.454,LearnStrategy,2023.2.3,Win32,37.79289494,7,1,16,0.111328125,-0.01171875,1,0,0,0.722,rock_grid_rect_2,4,01,-1,-1,0.722,0.134765625,-0.392578125,1,0,0,2.471,Peridotite_rect,7,2.471,0,15,0,15,0,1,,,,,,,,,,,,,
5f9fdfd04296cb0102563f84,TCN,2024-06-26_10h38.02.454,LearnStrategy,2023.2.3,Win32,37.79289494,7,2,1,,,,,,,,6,13,,,,,,,,,,,6,4.584,1,,,,,,-0.091796875,-0.396484375,1,0,0,4.584,Pegmatite_rect,0,0,0,0,1,
5f9fdfd04296cb0102563f84,TCN,2024-06-26_10h38.02.454,LearnStrategy,2023.2.3,Win32,37.79289494,7,2,2,,,,,,,,1,06,,,,,,,,,,,3,3.546,0,,,,,,0.124023438,-0.262695313,1,0,0,3.546,Diorite_rect,1,0,1,0,1,
5f9fdfd04296cb0102563f84,TCN,2024-06-26_10h38.02.454,LearnStrategy,2023.2.3,Win32,37.79289494,7,2,3,,,,,,,,2,05,,,,,,,,,,,2,4.814,1,,,,,,-0.126953125,-0.249023438,1,0,0,4.814,Basalt_rect,2,0,2,0,1,
5f9fdfd04296cb0102563f84,TCN,2024-06-26_10h38.02.454,LearnStrategy,2023.2.3,Win32,37.79289494,7,2,4,,,,,,,,5,06,,,,,,,,,,,5,1.32,1,,,,,,-0.374023438,-0.37890625,1,0,0,1.32,Obsidian_rect,3,0,3,0,1,
5f9fdfd04296cb0102563f84,TCN,2024-06-26_10h38.02.454,LearnStrategy,2023.2.3,Win32,37.79289494,7,2,5,,,,,,,,4,13,,,,,,,,,,,6,5.903,0,,,,,,-0.08203125,-0.419921875,1,0,0,5.903,Pegmatite_rect,4,0,4,0,1,
5f9fdfd04296cb0102563f84,TCN,2024-06-26_10h38.02.454,LearnStrategy,2023.2.3,Win32,37.79289494,7,2,6,,,,,,,,6,10,,,,,,,,,,,7,1.504,0,,,,,,0.118164063,-0.407226563,1,0,0,1.504,Peridotite_rect,5,0,5,0,1,
5f9fdfd04296cb0102563f84,TCN,2024-06-26_10h38.02.454,LearnStrategy,2023.2.3,Win32,37.79289494,7,2,7,,,,,,,,5,14,,,,,,,,,,,5,1.403,1,,,,,,-0.36328125,-0.391601563,1,0,0,1.403,Obsidian_rect,6,0,6,0,1,
5f9fdfd04296cb0102563f84,TCN,2024-06-26_10h38.02.454,LearnStrategy,2023.2.3,Win32,37.79289494,7,2,8,,,,,,,,3,16,,,,,,,,,,,3,3.711,1,,,,,,0.1015625,-0.244140625,1,0,0,3.711,Diorite_rect,7,0,7,0,1,
5f9fdfd04296cb0102563f84,TCN,2024-06-26_10h38.02.454,LearnStrategy,2023.2.3,Win32,37.79289494,7,2,9,,,,,,,,8,04,,,,,,,,,,,8,2.188,1,,,,,,0.360351563,-0.399414063,1,0,0,2.188,Pumice_rect,8,0,8,0,1,
5f9fdfd04296cb0102563f84,TCN,2024-06-26_10h38.02.454,LearnStrategy,2023.2.3,Win32,37.79289494,7,2,10,,,,,,,,2,04,,,,,,,,,,,2,2.609,1,,,,,,-0.165039063,-0.25,1,0,0,2.609,Basalt_rect,9,0,9,0,1,
5f9fdfd04296cb0102563f84,TCN,2024-06-26_10h38.02.454,LearnStrategy,2023.2.3,Win32,37.79289494,7,2,11,,,,,,,,7,04,,,,,,,,,,,6,7.121,0,,,,,,-0.104492188,-0.389648438,1,0,0,7.121,Pegmatite_rect,10,0,10,0,1,
5f9fdfd04296cb0102563f84,TCN,2024-06-26_10h38.02.454,LearnStrategy,2023.2.3,Win32,37.79289494,7,2,12,,,,,,,,8,06,,,,,,,,,,,8,2.227,1,,,,,,0.37890625,-0.393554688,1,0,0,2.227,Pumice_rect,11,0,11,0,1,
5f9fdfd04296cb0102563f84,TCN,2024-06-26_10h38.02.454,LearnStrategy,2023.2.3,Win32,37.79289494,7,2,13,,,,,,,,1,02,,,,,,,,,,,4,8.337,0,,,,,,0.416015625,-0.25390625,1,0,0,8.337,Gabbro_rect,12,0,12,0,1,
5f9fdfd04296cb0102563f84,TCN,2024-06-26_10h38.02.454,LearnStrategy,2023.2.3,Win32,37.79289494,7,2,14,,,,,,,,3,02,,,,,,,,,,,6,4.252,0,,,,,,-0.119140625,-0.408203125,1,0,0,4.252,Pegmatite_rect,13,0,13,0,1,
5f9fdfd04296cb0102563f84,TCN,2024-06-26_10h38.02.454,LearnStrategy,2023.2.3,Win32,37.79289494,7,2,15,,,,,,,,4,09,,,,,,,,,,,1,3.322,0,,,,,,-0.403320313,-0.245117188,1,0,0,3.322,Andesite_rect,14,0,14,0,1,
5f9fdfd04296cb0102563f84,TCN,2024-06-26_10h38.02.454,LearnStrategy,2023.2.3,Win32,37.79289494,7,2,16,,,,,,,,7,16,,,,,,,,,,,1,1.746,0,,,,,,-0.361328125,-0.267578125,1,0,0,1.746,Andesite_rect,15,0,15,0,1,
5f9fdfd04296cb0102563f84,TCN,2024-06-26_10h38.02.454,LearnStrategy,2023.2.3,Win32,37.79289494,8,1,1,0.000976563,-0.006835938,1,0,0,0.946,rock_grid_rect_2,3,15,-1,-1,0.946,0.344726563,-0.249023438,1,0,0,3.286,Gabbro_rect,4,3.286,0,0,0,0,0,1,,,,,,,,,,,,,
5f9fdfd04296cb0102563f84,TCN,2024-06-26_10h38.02.454,LearnStrategy,2023.2.3,Win32,37.79289494,8,1,2,0.076171875,0.000976563,1,0,0,1.053,rock_grid_rect_2,4,12,-1,-1,1.053,-0.112304688,-0.26953125,1,0,0,1.647,Basalt_rect,2,1.647,0,1,0,1,0,1,,,,,,,,,,,,,
5f9fdfd04296cb0102563f84,TCN,2024-06-26_10h38.02.454,LearnStrategy,2023.2.3,Win32,37.79289494,8,1,3,0.014648438,-0.00390625,1,0,0,0.847,rock_grid_rect_2,8,13,-1,-1,0.847,0.366210938,-0.396484375,1,0,0,1.602,Pumice_rect,8,1.602,1,2,0,2,0,1,,,,,,,,,,,,,
5f9fdfd04296cb0102563f84,TCN,2024-06-26_10h38.02.454,LearnStrategy,2023.2.3,Win32,37.79289494,8,1,4,0.069335938,-0.00390625,1,0,0,0.75,rock_grid_rect_2,1,10,-1,-1,0.75,-0.0703125,-0.400390625,1,0,0,4.907,Pegmatite_rect,6,4.907,0,3,0,3,0,1,,,,,,,,,,,,,
5f9fdfd04296cb0102563f84,TCN,2024-06-26_10h38.02.454,LearnStrategy,2023.2.3,Win32,37.79289494,8,1,5,0.044921875,-0.009765625,1,0,0,0.738,rock_grid_rect_2,8,09,-1,-1,0.738,0.344726563,-0.401367188,1,0,0,3.521,Pumice_rect,8,3.521,1,4,0,4,0,1,,,,,,,,,,,,,
5f9fdfd04296cb0102563f84,TCN,2024-06-26_10h38.02.454,LearnStrategy,2023.2.3,Win32,37.79289494,8,1,6,0.013671875,-0.017578125,1,0,0,0.682,rock_grid_rect_2,3,07,-1,-1,0.682,0.102539063,-0.250976563,1,0,0,1.533,Diorite_rect,3,1.533,1,5,0,5,0,1,,,,,,,,,,,,,
5f9fdfd04296cb0102563f84,TCN,2024-06-26_10h38.02.454,LearnStrategy,2023.2.3,Win32,37.79289494,8,1,7,0.057617188,-0.021484375,1,0,0,0.78,rock_grid_rect_2,2,08,-1,-1,0.78,-0.376953125,-0.4140625,1,0,0,1.216,Obsidian_rect,5,1.216,0,6,0,6,0,1,,,,,,,,,,,,,
5f9fdfd04296cb0102563f84,TCN,2024-06-26_10h38.02.454,LearnStrategy,2023.2.3,Win32,37.79289494,8,1,8,0.034179688,-0.001953125,1,0,0,0.684,rock_grid_rect_2,4,11,-1,-1,0.684,-0.377929688,-0.229492188,1,0,0,1.481,Andesite_rect,1,1.481,0,7,0,7,0,1,,,,,,,,,,,,,
5f9fdfd04296cb0102563f84,TCN,2024-06-26_10h38.02.454,LearnStrategy,2023.2.3,Win32,37.79289494,8,1,9,0.052734375,0.01171875,1,0,0,0.673,rock_grid_rect_2,1,09,-1,-1,0.673,0.336914063,-0.251953125,1,0,0,1.163,Gabbro_rect,4,1.163,0,8,0,8,0,1,,,,,,,,,,,,,
5f9fdfd04296cb0102563f84,TCN,2024-06-26_10h38.02.454,LearnStrategy,2023.2.3,Win32,37.79289494,8,1,10,0.053710938,-0.002929688,1,0,0,0.722,rock_grid_rect_2,7,10,-1,-1,0.722,0.107421875,-0.420898438,1,0,0,3.202,Peridotite_rect,7,3.202,1,9,0,9,0,1,,,,,,,,,,,,,
5f9fdfd04296cb0102563f84,TCN,2024-06-26_10h38.02.454,LearnStrategy,2023.2.3,Win32,37.79289494,8,1,11,0.098632813,0.0078125,1,0,0,0.83,rock_grid_rect_2,5,02,-1,-1,0.83,-0.395507813,-0.404296875,1,0,0,1.326,Obsidian_rect,5,1.326,1,10,0,10,0,1,,,,,,,,,,,,,
5f9fdfd04296cb0102563f84,TCN,2024-06-26_10h38.02.454,LearnStrategy,2023.2.3,Win32,37.79289494,8,1,12,0.08984375,-0.004882813,1,0,0,0.848,rock_grid_rect_2,6,06,-1,-1,0.848,0.130859375,-0.25390625,1,0,0,5.405,Diorite_rect,3,5.405,0,11,0,11,0,1,,,,,,,,,,,,,
5f9fdfd04296cb0102563f84,TCN,2024-06-26_10h38.02.454,LearnStrategy,2023.2.3,Win32,37.79289494,8,1,13,0.0703125,-0.009765625,1,0,0,0.629,rock_grid_rect_2,6,09,-1,-1,0.629,0.09765625,-0.400390625,1,0,0,1.544,Peridotite_rect,7,1.544,0,12,0,12,0,1,,,,,,,,,,,,,
5f9fdfd04296cb0102563f84,TCN,2024-06-26_10h38.02.454,LearnStrategy,2023.2.3,Win32,37.79289494,8,1,14,0.115234375,0.006835938,1,0,0,0.851,rock_grid_rect_2,7,06,-1,-1,0.851,0.083984375,-0.39453125,1,0,0,1.238,Peridotite_rect,7,1.238,1,13,0,13,0,1,,,,,,,,,,,,,
5f9fdfd04296cb0102563f84,TCN,2024-06-26_10h38.02.454,LearnStrategy,2023.2.3,Win32,37.79289494,8,1,15,0.102539063,-0.0078125,1,0,0,0.833,rock_grid_rect_2,5,05,-1,-1,0.833,-0.396484375,-0.403320313,1,0,0,1.469,Obsidian_rect,5,1.469,1,14,0,14,0,1,,,,,,,,,,,,,
5f9fdfd04296cb0102563f84,TCN,2024-06-26_10h38.02.454,LearnStrategy,2023.2.3,Win32,37.79289494,8,1,16,0.116210938,0,1,0,0,0.673,rock_grid_rect_2,2,12,-1,-1,0.673,-0.1171875,-0.397460938,1,0,0,5.684,Pegmatite_rect,6,5.684,0,15,0,15,0,1,,,,,,,,,,,,,
5f9fdfd04296cb0102563f84,TCN,2024-06-26_10h38.02.454,LearnStrategy,2023.2.3,Win32,37.79289494,8,2,1,,,,,,,,4,14,,,,,,,,,,,6,10.393,0,,,,,,-0.137695313,-0.395507813,1,0,0,10.393,Pegmatite_rect,0,0,0,0,1,
5f9fdfd04296cb0102563f84,TCN,2024-06-26_10h38.02.454,LearnStrategy,2023.2.3,Win32,37.79289494,8,2,2,,,,,,,,1,04,,,,,,,,,,,4,9.747,0,,,,,,0.356445313,-0.24609375,1,0,0,9.747,Gabbro_rect,1,0,1,0,1,
5f9fdfd04296cb0102563f84,TCN,2024-06-26_10h38.02.454,LearnStrategy,2023.2.3,Win32,37.79289494,8,2,3,,,,,,,,7,12,,,,,,,,,,,7,2.342,1,,,,,,0.178710938,-0.397460938,1,0,0,2.342,Peridotite_rect,2,0,2,0,1,
5f9fdfd04296cb0102563f84,TCN,2024-06-26_10h38.02.454,LearnStrategy,2023.2.3,Win32,37.79289494,8,2,4,,,,,,,,8,03,,,,,,,,,,,8,1.422,1,,,,,,0.399414063,-0.390625,1,0,0,1.422,Pumice_rect,3,0,3,0,1,
5f9fdfd04296cb0102563f84,TCN,2024-06-26_10h38.02.454,LearnStrategy,2023.2.3,Win32,37.79289494,8,2,5,,,,,,,,2,16,,,,,,,,,,,2,2.816,1,,,,,,-0.118164063,-0.244140625,1,0,0,2.816,Basalt_rect,4,0,4,0,1,
5f9fdfd04296cb0102563f84,TCN,2024-06-26_10h38.02.454,LearnStrategy,2023.2.3,Win32,37.79289494,8,2,6,,,,,,,,5,16,,,,,,,,,,,5,1.435,1,,,,,,-0.404296875,-0.400390625,1,0,0,1.435,Obsidian_rect,5,0,5,0,1,
5f9fdfd04296cb0102563f84,TCN,2024-06-26_10h38.02.454,LearnStrategy,2023.2.3,Win32,37.79289494,8,2,7,,,,,,,,7,02,,,,,,,,,,,7,1.935,1,,,,,,0.079101563,-0.395507813,1,0,0,1.935,Peridotite_rect,6,0,6,0,1,
5f9fdfd04296cb0102563f84,TCN,2024-06-26_10h38.02.454,LearnStrategy,2023.2.3,Win32,37.79289494,8,2,8,,,,,,,,6,08,,,,,,,,,,,6,5.641,1,,,,,,-0.103515625,-0.405273438,1,0,0,5.641,Pegmatite_rect,7,0,7,0,1,
5f9fdfd04296cb0102563f84,TCN,2024-06-26_10h38.02.454,LearnStrategy,2023.2.3,Win32,37.79289494,8,2,9,,,,,,,,3,08,,,,,,,,,,,3,10.686,1,,,,,,0.174804688,-0.259765625,1,0,0,10.686,Diorite_rect,8,0,8,0,1,
5f9fdfd04296cb0102563f84,TCN,2024-06-26_10h38.02.454,LearnStrategy,2023.2.3,Win32,37.79289494,8,2,10,,,,,,,,8,10,,,,,,,,,,,8,3.341,1,,,,,,0.423828125,-0.399414063,1,0,0,3.341,Pumice_rect,9,0,9,0,1,
5f9fdfd04296cb0102563f84,TCN,2024-06-26_10h38.02.454,LearnStrategy,2023.2.3,Win32,37.79289494,8,2,11,,,,,,,,1,11,,,,,,,,,,,6,4.112,0,,,,,,-0.116210938,-0.411132813,1,0,0,4.112,Pegmatite_rect,10,0,10,0,1,
5f9fdfd04296cb0102563f84,TCN,2024-06-26_10h38.02.454,LearnStrategy,2023.2.3,Win32,37.79289494,8,2,12,,,,,,,,2,10,,,,,,,,,,,1,1.583,0,,,,,,-0.35546875,-0.247070313,1,0,0,1.583,Andesite_rect,11,0,11,0,1,
5f9fdfd04296cb0102563f84,TCN,2024-06-26_10h38.02.454,LearnStrategy,2023.2.3,Win32,37.79289494,8,2,13,,,,,,,,6,16,,,,,,,,,,,6,4.954,1,,,,,,-0.109375,-0.40625,1,0,0,4.954,Pegmatite_rect,12,0,12,0,1,
5f9fdfd04296cb0102563f84,TCN,2024-06-26_10h38.02.454,LearnStrategy,2023.2.3,Win32,37.79289494,8,2,14,,,,,,,,5,09,,,,,,,,,,,5,1.496,1,,,,,,-0.346679688,-0.391601563,1,0,0,1.496,Obsidian_rect,13,0,13,0,1,
5f9fdfd04296cb0102563f84,TCN,2024-06-26_10h38.02.454,LearnStrategy,2023.2.3,Win32,37.79289494,8,2,15,,,,,,,,4,05,,,,,,,,,,,4,4.775,1,,,,,,0.341796875,-0.240234375,1,0,0,4.775,Gabbro_rect,14,0,14,0,1,
5f9fdfd04296cb0102563f84,TCN,2024-06-26_10h38.02.454,LearnStrategy,2023.2.3,Win32,37.79289494,8,2,16,,,,,,,,3,11,,,,,,,,,,,4,1.385,0,,,,,,0.356445313,-0.229492188,1,0,0,1.385,Gabbro_rect,15,0,15,0,1,
5f9fdfd04296cb0102563f84,TCN,2024-06-26_10h38.02.454,LearnStrategy,2023.2.3,Win32,37.79289494,9,1,1,0.016601563,-0.021484375,1,0,0,1.139,rock_grid_rect_2,7,07,-1,-1,1.139,0.399414063,-0.240234375,1,0,0,2.169,Gabbro_rect,4,2.169,0,0,0,0,0,1,,,,,,,,,,,,,
5f9fdfd04296cb0102563f84,TCN,2024-06-26_10h38.02.454,LearnStrategy,2023.2.3,Win32,37.79289494,9,1,2,0.106445313,-0.017578125,1,0,0,1.007,rock_grid_rect_2,3,06,-1,-1,1.007,-0.084960938,-0.3984375,1,0,0,2.707,Pegmatite_rect,6,2.707,0,1,0,1,0,1,,,,,,,,,,,,,
5f9fdfd04296cb0102563f84,TCN,2024-06-26_10h38.02.454,LearnStrategy,2023.2.3,Win32,37.79289494,9,1,3,0.045898438,0.001953125,1,0,0,0.685,rock_grid_rect_2,4,15,-1,-1,0.685,-0.3515625,-0.262695313,1,0,0,2.705,Andesite_rect,1,2.705,0,2,0,2,0,1,,,,,,,,,,,,,
5f9fdfd04296cb0102563f84,TCN,2024-06-26_10h38.02.454,LearnStrategy,2023.2.3,Win32,37.79289494,9,1,4,0.11328125,0.018554688,1,0,0,0.831,rock_grid_rect_2,2,06,-1,-1,0.831,-0.354492188,-0.412109375,1,0,0,1.617,Obsidian_rect,5,1.617,0,3,0,3,0,1,,,,,,,,,,,,,
5f9fdfd04296cb0102563f84,TCN,2024-06-26_10h38.02.454,LearnStrategy,2023.2.3,Win32,37.79289494,9,1,5,0.111328125,0,1,0,0,0.751,rock_grid_rect_2,6,05,-1,-1,0.751,-0.088867188,-0.4140625,1,0,0,4.255,Pegmatite_rect,6,4.255,1,4,0,4,0,1,,,,,,,,,,,,,
5f9fdfd04296cb0102563f84,TCN,2024-06-26_10h38.02.454,LearnStrategy,2023.2.3,Win32,37.79289494,9,1,6,0.108398438,-0.015625,1,0,0,0.743,rock_grid_rect_2,1,05,-1,-1,0.743,0.331054688,-0.2578125,1,0,0,4.07,Gabbro_rect,4,4.07,0,5,0,5,0,1,,,,,,,,,,,,,
5f9fdfd04296cb0102563f84,TCN,2024-06-26_10h38.02.454,LearnStrategy,2023.2.3,Win32,37.79289494,9,1,7,0.106445313,-0.012695313,1,0,0,0.682,rock_grid_rect_2,4,10,-1,-1,0.682,0.366210938,-0.404296875,1,0,0,9.155,Pumice_rect,8,9.155,0,6,0,6,0,1,,,,,,,,,,,,,
5f9fdfd04296cb0102563f84,TCN,2024-06-26_10h38.02.454,LearnStrategy,2023.2.3,Win32,37.79289494,9,1,8,0.11328125,-0.004882813,1,0,0,0.736,rock_grid_rect_2,2,14,-1,-1,0.736,0.401367188,-0.391601563,1,0,0,1.261,Pumice_rect,8,1.261,0,7,0,7,0,1,,,,,,,,,,,,,
5f9fdfd04296cb0102563f84,TCN,2024-06-26_10h38.02.454,LearnStrategy,2023.2.3,Win32,37.79289494,9,1,9,0.1171875,-0.012695313,1,0,0,0.769,rock_grid_rect_2,6,12,-1,-1,0.769,-0.0546875,-0.405273438,1,0,0,2.686,Pegmatite_rect,6,2.686,1,8,0,8,0,1,,,,,,,,,,,,,
5f9fdfd04296cb0102563f84,TCN,2024-06-26_10h38.02.454,LearnStrategy,2023.2.3,Win32,37.79289494,9,1,10,0.141601563,-0.016601563,1,0,0,0.689,rock_grid_rect_2,5,08,-1,-1,0.689,-0.37109375,-0.404296875,1,0,0,1.07,Obsidian_rect,5,1.07,1,9,0,9,0,1,,,,,,,,,,,,,
5f9fdfd04296cb0102563f84,TCN,2024-06-26_10h38.02.454,LearnStrategy,2023.2.3,Win32,37.79289494,9,1,11,0.118164063,-0.008789063,1,0,0,1.028,rock_grid_rect_2,8,05,-1,-1,1.028,0.346679688,-0.419921875,1,0,0,1.496,Pumice_rect,8,1.496,1,10,0,10,0,1,,,,,,,,,,,,,
5f9fdfd04296cb0102563f84,TCN,2024-06-26_10h38.02.454,LearnStrategy,2023.2.3,Win32,37.79289494,9,1,12,0.110351563,-0.01171875,1,0,0,0.75,rock_grid_rect_2,1,14,-1,-1,0.75,0.091796875,-0.271484375,1,0,0,1.705,Diorite_rect,3,1.705,0,11,0,11,0,1,,,,,,,,,,,,,
5f9fdfd04296cb0102563f84,TCN,2024-06-26_10h38.02.454,LearnStrategy,2023.2.3,Win32,37.79289494,9,1,13,0.126953125,-0.008789063,1,0,0,0.635,rock_grid_rect_2,7,15,-1,-1,0.635,0.127929688,-0.401367188,1,0,0,1.119,Peridotite_rect,7,1.119,1,12,0,12,0,1,,,,,,,,,,,,,
5f9fdfd04296cb0102563f84,TCN,2024-06-26_10h38.02.454,LearnStrategy,2023.2.3,Win32,37.79289494,9,1,14,0.151367188,-0.013671875,1,0,0,0.673,rock_grid_rect_2,3,09,-1,-1,0.673,0.0625,-0.259765625,1,0,0,4.343,Diorite_rect,3,4.343,1,13,0,13,0,1,,,,,,,,,,,,,
5f9fdfd04296cb0102563f84,TCN,2024-06-26_10h38.02.454,LearnStrategy,2023.2.3,Win32,37.79289494,9,1,15,0.1328125,-0.006835938,1,0,0,0.691,rock_grid_rect_2,8,14,-1,-1,0.691,0.372070313,-0.411132813,1,0,0,1.315,Pumice_rect,8,1.315,1,14,0,14,0,1,,,,,,,,,,,,,
5f9fdfd04296cb0102563f84,TCN,2024-06-26_10h38.02.454,LearnStrategy,2023.2.3,Win32,37.79289494,9,1,16,0.123046875,0.009765625,1,0,0,0.719,rock_grid_rect_2,5,11,-1,-1,0.719,-0.396484375,-0.384765625,1,0,0,1.176,Obsidian_rect,5,1.176,1,15,0,15,0,1,,,,,,,,,,,,,
5f9fdfd04296cb0102563f84,TCN,2024-06-26_10h38.02.454,LearnStrategy,2023.2.3,Win32,37.79289494,9,2,1,,,,,,,,6,03,,,,,,,,,,,7,1.83,0,,,,,,0.120117188,-0.409179688,1,0,0,1.83,Peridotite_rect,0,0,0,0,1,
5f9fdfd04296cb0102563f84,TCN,2024-06-26_10h38.02.454,LearnStrategy,2023.2.3,Win32,37.79289494,9,2,2,,,,,,,,1,07,,,,,,,,,,,3,2.049,0,,,,,,0.125,-0.260742188,1,0,0,2.049,Diorite_rect,1,0,1,0,1,
5f9fdfd04296cb0102563f84,TCN,2024-06-26_10h38.02.454,LearnStrategy,2023.2.3,Win32,37.79289494,9,2,3,,,,,,,,4,03,,,,,,,,,,,1,2.648,0,,,,,,-0.362304688,-0.267578125,1,0,0,2.648,Andesite_rect,2,0,2,0,1,
5f9fdfd04296cb0102563f84,TCN,2024-06-26_10h38.02.454,LearnStrategy,2023.2.3,Win32,37.79289494,9,2,4,,,,,,,,8,16,,,,,,,,,,,8,2.59,1,,,,,,0.361328125,-0.399414063,1,0,0,2.59,Pumice_rect,3,0,3,0,1,
5f9fdfd04296cb0102563f84,TCN,2024-06-26_10h38.02.454,LearnStrategy,2023.2.3,Win32,37.79289494,9,2,5,,,,,,,,8,02,,,,,,,,,,,8,1.255,1,,,,,,0.356445313,-0.400390625,1,0,0,1.255,Pumice_rect,4,0,4,0,1,
5f9fdfd04296cb0102563f84,TCN,2024-06-26_10h38.02.454,LearnStrategy,2023.2.3,Win32,37.79289494,9,2,6,,,,,,,,2,11,,,,,,,,,,,8,2.656,0,,,,,,0.358398438,-0.40234375,1,0,0,2.656,Pumice_rect,5,0,5,0,1,
5f9fdfd04296cb0102563f84,TCN,2024-06-26_10h38.02.454,LearnStrategy,2023.2.3,Win32,37.79289494,9,2,7,,,,,,,,3,13,,,,,,,,,,,3,13.04,1,,,,,,0.13671875,-0.252929688,1,0,0,13.04,Diorite_rect,6,0,6,0,1,
5f9fdfd04296cb0102563f84,TCN,2024-06-26_10h38.02.454,LearnStrategy,2023.2.3,Win32,37.79289494,9,2,8,,,,,,,,6,11,,,,,,,,,,,7,1.997,0,,,,,,0.150390625,-0.40625,1,0,0,1.997,Peridotite_rect,7,0,7,0,1,
5f9fdfd04296cb0102563f84,TCN,2024-06-26_10h38.02.454,LearnStrategy,2023.2.3,Win32,37.79289494,9,2,9,,,,,,,,1,03,,,,,,,,,,,2,3.138,0,,,,,,-0.118164063,-0.26171875,1,0,0,3.138,Basalt_rect,8,0,8,0,1,
5f9fdfd04296cb0102563f84,TCN,2024-06-26_10h38.02.454,LearnStrategy,2023.2.3,Win32,37.79289494,9,2,10,,,,,,,,5,12,,,,,,,,,,,5,1.54,1,,,,,,-0.375,-0.397460938,1,0,0,1.54,Obsidian_rect,9,0,9,0,1,
5f9fdfd04296cb0102563f84,TCN,2024-06-26_10h38.02.454,LearnStrategy,2023.2.3,Win32,37.79289494,9,2,11,,,,,,,,5,10,,,,,,,,,,,5,1.371,1,,,,,,-0.397460938,-0.408203125,1,0,0,1.371,Obsidian_rect,10,0,10,0,1,
5f9fdfd04296cb0102563f84,TCN,2024-06-26_10h38.02.454,LearnStrategy,2023.2.3,Win32,37.79289494,9,2,12,,,,,,,,7,08,,,,,,,,,,,1,8.427,0,,,,,,-0.389648438,-0.25,1,0,0,8.427,Andesite_rect,11,0,11,0,1,
5f9fdfd04296cb0102563f84,TCN,2024-06-26_10h38.02.454,LearnStrategy,2023.2.3,Win32,37.79289494,9,2,13,,,,,,,,2,09,,,,,,,,,,,2,1.789,1,,,,,,-0.173828125,-0.263671875,1,0,0,1.789,Basalt_rect,12,0,12,0,1,
5f9fdfd04296cb0102563f84,TCN,2024-06-26_10h38.02.454,LearnStrategy,2023.2.3,Win32,37.79289494,9,2,14,,,,,,,,4,16,,,,,,,,,,,2,1.271,0,,,,,,-0.131835938,-0.264648438,1,0,0,1.271,Basalt_rect,13,0,13,0,1,
5f9fdfd04296cb0102563f84,TCN,2024-06-26_10h38.02.454,LearnStrategy,2023.2.3,Win32,37.79289494,9,2,15,,,,,,,,3,14,,,,,,,,,,,3,2.973,1,,,,,,0.092773438,-0.2421875,1,0,0,2.973,Diorite_rect,14,0,14,0,1,
5f9fdfd04296cb0102563f84,TCN,2024-06-26_10h38.02.454,LearnStrategy,2023.2.3,Win32,37.79289494,9,2,16,,,,,,,,7,14,,,,,,,,,,,3,6.922,0,,,,,,0.0546875,-0.254882813,0,0,1,6.922,Diorite_rect,15,0,15,0,1,
5f9fdfd04296cb0102563f84,TCN,2024-06-26_10h38.02.454,LearnStrategy,2023.2.3,Win32,37.79289494,,,,,,,,,,,,,,,,,,,,,,,,,,,,,,,,,,,,,,,,,,,0
5f9fdfd04296cb0102563f84,TCN,2024-06-26_10h38.02.454,LearnStrategy,2023.2.3,Win32,37.79289494,,,,,,,,,,,,,,,,,,,,,,,,,,,,,,,,,,,,,,,,,,,
5f9fdfd04296cb0102563f84,TCN,2024-06-26_10h38.02.454,LearnStrategy,2023.2.3,Win32,37.79289494,,,,,,,,,,,3,12,1,1,,,,,,,,,,,,,,,,,,,,,,,,,,,,,
5f9fdfd04296cb0102563f84,TCN,2024-06-26_10h38.02.454,LearnStrategy,2023.2.3,Win32,37.79289494,,,,,,,,,,,2,02,1,2,,,,,,,,,,,,,,,,,,,,,,,,,,,,,
5f9fdfd04296cb0102563f84,TCN,2024-06-26_10h38.02.454,LearnStrategy,2023.2.3,Win32,37.79289494,,,,,,,,,,,4,12,1,3,,,,,,,,,,,,,,,,,,,,,,,,,,,,,
5f9fdfd04296cb0102563f84,TCN,2024-06-26_10h38.02.454,LearnStrategy,2023.2.3,Win32,37.79289494,,,,,,,,,,,1,05,1,4,,,,,,,,,,,,,,,,,,,,,,,,,,,,,
5f9fdfd04296cb0102563f84,TCN,2024-06-26_10h38.02.454,LearnStrategy,2023.2.3,Win32,37.79289494,,,,,,,,,,,2,01,1,5,,,,,,,,,,,,,,,,,,,,,,,,,,,,,
5f9fdfd04296cb0102563f84,TCN,2024-06-26_10h38.02.454,LearnStrategy,2023.2.3,Win32,37.79289494,,,,,,,,,,,1,09,1,6,,,,,,,,,,,,,,,,,,,,,,,,,,,,,
5f9fdfd04296cb0102563f84,TCN,2024-06-26_10h38.02.454,LearnStrategy,2023.2.3,Win32,37.79289494,,,,,,,,,,,6,15,1,7,,,,,,,,,,,,,,,,,,,,,,,,,,,,,
5f9fdfd04296cb0102563f84,TCN,2024-06-26_10h38.02.454,LearnStrategy,2023.2.3,Win32,37.79289494,,,,,,,,,,,8,08,1,8,,,,,,,,,,,,,,,,,,,,,,,,,,,,,
5f9fdfd04296cb0102563f84,TCN,2024-06-26_10h38.02.454,LearnStrategy,2023.2.3,Win32,37.79289494,,,,,,,,,,,4,01,2,1,,,,,,,,,,,,,,,,,,,,,,,,,,,,,
5f9fdfd04296cb0102563f84,TCN,2024-06-26_10h38.02.454,LearnStrategy,2023.2.3,Win32,37.79289494,,,,,,,,,,,3,06,2,2,,,,,,,,,,,,,,,,,,,,,,,,,,,,,
5f9fdfd04296cb0102563f84,TCN,2024-06-26_10h38.02.454,LearnStrategy,2023.2.3,Win32,37.79289494,,,,,,,,,,,5,07,2,3,,,,,,,,,,,,,,,,,,,,,,,,,,,,,
5f9fdfd04296cb0102563f84,TCN,2024-06-26_10h38.02.454,LearnStrategy,2023.2.3,Win32,37.79289494,,,,,,,,,,,7,05,2,4,,,,,,,,,,,,,,,,,,,,,,,,,,,,,
5f9fdfd04296cb0102563f84,TCN,2024-06-26_10h38.02.454,LearnStrategy,2023.2.3,Win32,37.79289494,,,,,,,,,,,7,07,2,5,,,,,,,,,,,,,,,,,,,,,,,,,,,,,
5f9fdfd04296cb0102563f84,TCN,2024-06-26_10h38.02.454,LearnStrategy,2023.2.3,Win32,37.79289494,,,,,,,,,,,8,13,2,6,,,,,,,,,,,,,,,,,,,,,,,,,,,,,
5f9fdfd04296cb0102563f84,TCN,2024-06-26_10h38.02.454,LearnStrategy,2023.2.3,Win32,37.79289494,,,,,,,,,,,5,08,2,7,,,,,,,,,,,,,,,,,,,,,,,,,,,,,
5f9fdfd04296cb0102563f84,TCN,2024-06-26_10h38.02.454,LearnStrategy,2023.2.3,Win32,37.79289494,,,,,,,,,,,3,10,2,8,,,,,,,,,,,,,,,,,,,,,,,,,,,,,
5f9fdfd04296cb0102563f84,TCN,2024-06-26_10h38.02.454,LearnStrategy,2023.2.3,Win32,37.79289494,,,,,,,,,,,3,09,3,1,,,,,,,,,,,,,,,,,,,,,,,,,,,,,
5f9fdfd04296cb0102563f84,TCN,2024-06-26_10h38.02.454,LearnStrategy,2023.2.3,Win32,37.79289494,,,,,,,,,,,7,10,3,2,,,,,,,,,,,,,,,,,,,,,,,,,,,,,
5f9fdfd04296cb0102563f84,TCN,2024-06-26_10h38.02.454,LearnStrategy,2023.2.3,Win32,37.79289494,,,,,,,,,,,4,08,3,3,,,,,,,,,,,,,,,,,,,,,,,,,,,,,
5f9fdfd04296cb0102563f84,TCN,2024-06-26_10h38.02.454,LearnStrategy,2023.2.3,Win32,37.79289494,,,,,,,,,,,2,08,3,4,,,,,,,,,,,,,,,,,,,,,,,,,,,,,
5f9fdfd04296cb0102563f84,TCN,2024-06-26_10h38.02.454,LearnStrategy,2023.2.3,Win32,37.79289494,,,,,,,,,,,7,13,3,5,,,,,,,,,,,,,,,,,,,,,,,,,,,,,
5f9fdfd04296cb0102563f84,TCN,2024-06-26_10h38.02.454,LearnStrategy,2023.2.3,Win32,37.79289494,,,,,,,,,,,6,12,3,6,,,,,,,,,,,,,,,,,,,,,,,,,,,,,
5f9fdfd04296cb0102563f84,TCN,2024-06-26_10h38.02.454,LearnStrategy,2023.2.3,Win32,37.79289494,,,,,,,,,,,2,06,3,7,,,,,,,,,,,,,,,,,,,,,,,,,,,,,
5f9fdfd04296cb0102563f84,TCN,2024-06-26_10h38.02.454,LearnStrategy,2023.2.3,Win32,37.79289494,,,,,,,,,,,8,14,3,8,,,,,,,,,,,,,,,,,,,,,,,,,,,,,
5f9fdfd04296cb0102563f84,TCN,2024-06-26_10h38.02.454,LearnStrategy,2023.2.3,Win32,37.79289494,,,,,,,,,,,8,15,4,1,,,,,,,,,,,,,,,,,,,,,,,,,,,,,
5f9fdfd04296cb0102563f84,TCN,2024-06-26_10h38.02.454,LearnStrategy,2023.2.3,Win32,37.79289494,,,,,,,,,,,8,05,4,2,,,,,,,,,,,,,,,,,,,,,,,,,,,,,
5f9fdfd04296cb0102563f84,TCN,2024-06-26_10h38.02.454,LearnStrategy,2023.2.3,Win32,37.79289494,,,,,,,,,,,7,15,4,3,,,,,,,,,,,,,,,,,,,,,,,,,,,,,
5f9fdfd04296cb0102563f84,TCN,2024-06-26_10h38.02.454,LearnStrategy,2023.2.3,Win32,37.79289494,,,,,,,,,,,7,06,4,4,,,,,,,,,,,,,,,,,,,,,,,,,,,,,
5f9fdfd04296cb0102563f84,TCN,2024-06-26_10h38.02.454,LearnStrategy,2023.2.3,Win32,37.79289494,,,,,,,,,,,1,14,4,5,,,,,,,,,,,,,,,,,,,,,,,,,,,,,
5f9fdfd04296cb0102563f84,TCN,2024-06-26_10h38.02.454,LearnStrategy,2023.2.3,Win32,37.79289494,,,,,,,,,,,3,07,4,6,,,,,,,,,,,,,,,,,,,,,,,,,,,,,
5f9fdfd04296cb0102563f84,TCN,2024-06-26_10h38.02.454,LearnStrategy,2023.2.3,Win32,37.79289494,,,,,,,,,,,5,11,4,7,,,,,,,,,,,,,,,,,,,,,,,,,,,,,
5f9fdfd04296cb0102563f84,TCN,2024-06-26_10h38.02.454,LearnStrategy,2023.2.3,Win32,37.79289494,,,,,,,,,,,4,11,4,8,,,,,,,,,,,,,,,,,,,,,,,,,,,,,
5f9fdfd04296cb0102563f84,TCN,2024-06-26_10h38.02.454,LearnStrategy,2023.2.3,Win32,37.79289494,,,,,,,,,,,3,15,5,1,,,,,,,,,,,,,,,,,,,,,,,,,,,,,
5f9fdfd04296cb0102563f84,TCN,2024-06-26_10h38.02.454,LearnStrategy,2023.2.3,Win32,37.79289494,,,,,,,,,,,8,09,5,2,,,,,,,,,,,,,,,,,,,,,,,,,,,,,
5f9fdfd04296cb0102563f84,TCN,2024-06-26_10h38.02.454,LearnStrategy,2023.2.3,Win32,37.79289494,,,,,,,,,,,6,09,5,3,,,,,,,,,,,,,,,,,,,,,,,,,,,,,
5f9fdfd04296cb0102563f84,TCN,2024-06-26_10h38.02.454,LearnStrategy,2023.2.3,Win32,37.79289494,,,,,,,,,,,5,02,5,4,,,,,,,,,,,,,,,,,,,,,,,,,,,,,
5f9fdfd04296cb0102563f84,TCN,2024-06-26_10h38.02.454,LearnStrategy,2023.2.3,Win32,37.79289494,,,,,,,,,,,1,16,5,5,,,,,,,,,,,,,,,,,,,,,,,,,,,,,
5f9fdfd04296cb0102563f84,TCN,2024-06-26_10h38.02.454,LearnStrategy,2023.2.3,Win32,37.79289494,,,,,,,,,,,4,10,5,6,,,,,,,,,,,,,,,,,,,,,,,,,,,,,
5f9fdfd04296cb0102563f84,TCN,2024-06-26_10h38.02.454,LearnStrategy,2023.2.3,Win32,37.79289494,,,,,,,,,,,1,01,5,7,,,,,,,,,,,,,,,,,,,,,,,,,,,,,
5f9fdfd04296cb0102563f84,TCN,2024-06-26_10h38.02.454,LearnStrategy,2023.2.3,Win32,37.79289494,,,,,,,,,,,2,14,5,8,,,,,,,,,,,,,,,,,,,,,,,,,,,,,
5f9fdfd04296cb0102563f84,TCN,2024-06-26_10h38.02.454,LearnStrategy,2023.2.3,Win32,37.79289494,,,,,,,,,,,6,05,6,1,,,,,,,,,,,,,,,,,,,,,,,,,,,,,
5f9fdfd04296cb0102563f84,TCN,2024-06-26_10h38.02.454,LearnStrategy,2023.2.3,Win32,37.79289494,,,,,,,,,,,5,04,6,2,,,,,,,,,,,,,,,,,,,,,,,,,,,,,
5f9fdfd04296cb0102563f84,TCN,2024-06-26_10h38.02.454,LearnStrategy,2023.2.3,Win32,37.79289494,,,,,,,,,,,5,05,6,3,,,,,,,,,,,,,,,,,,,,,,,,,,,,,
5f9fdfd04296cb0102563f84,TCN,2024-06-26_10h38.02.454,LearnStrategy,2023.2.3,Win32,37.79289494,,,,,,,,,,,4,15,6,4,,,,,,,,,,,,,,,,,,,,,,,,,,,,,
5f9fdfd04296cb0102563f84,TCN,2024-06-26_10h38.02.454,LearnStrategy,2023.2.3,Win32,37.79289494,,,,,,,,,,,6,07,6,5,,,,,,,,,,,,,,,,,,,,,,,,,,,,,
5f9fdfd04296cb0102563f84,TCN,2024-06-26_10h38.02.454,LearnStrategy,2023.2.3,Win32,37.79289494,,,,,,,,,,,6,06,6,6,,,,,,,,,,,,,,,,,,,,,,,,,,,,,
5f9fdfd04296cb0102563f84,TCN,2024-06-26_10h38.02.454,LearnStrategy,2023.2.3,Win32,37.79289494,,,,,,,,,,,1,10,6,7,,,,,,,,,,,,,,,,,,,,,,,,,,,,,
5f9fdfd04296cb0102563f84,TCN,2024-06-26_10h38.02.454,LearnStrategy,2023.2.3,Win32,37.79289494,,,,,,,,,,,2,12,6,8,,,,,,,,,,,,,,,,,,,,,,,,,,,,,