participant,condition,date,expName,psychopyVersion,OS,frameRate,block,phase,trial,learn_mouse_2.x,learn_mouse_2.y,learn_mouse_2.leftButton,learn_mouse_2.midButton,learn_mouse_2.rightButton,learn_mouse_2.time,learn_mouse_2.clicked_name,cat,token,row,col,t_select,cat_mouse_l.x,cat_mouse_l.y,cat_mouse_l.leftButton,cat_mouse_l.midButton,cat_mouse_l.rightButton,cat_mouse_l.time,cat_mouse_l.clicked_name,resp,t_resp,corr,train_trials.thisRepN,train_trials.thisTrialN,train_trials.thisN,train_trials.thisIndex,train_trials.ran,cat_mouse_t.x,cat_mouse_t.y,cat_mouse_t.leftButton,cat_mouse_t.midButton,cat_mouse_t.rightButton,cat_mouse_t.time,cat_mouse_t.clicked_name,test_trials.thisRepN,test_trials.thisTrialN,test_trials.thisN,test_trials.thisIndex,test_trials.ran
5fea7e34e1506a5df25419ec,TCN,2024-06-10_15h17.08.679,LearnStrategy,2023.2.3,Win32,11.99040767,,,,,,,,,,,,,,,,,,,,,,,,,,,,,,,,,,,,,,,,,,
5fea7e34e1506a5df25419ec,TCN,2024-06-10_15h17.08.679,LearnStrategy,2023.2.3,Win32,11.99040767,1,1,1,0.155555584,-0.005555577,1,0,0,3.0691,rock_grid_rect_2,4,11,-1,-1,3.069,0.410185213,-0.252777806,1,0,0,8.1858,Gabbro_rect,4,8.186,1,0,0,0,0,1,,,,,,,,,,,,
5fea7e34e1506a5df25419ec,TCN,2024-06-10_15h17.08.679,LearnStrategy,2023.2.3,Win32,11.99040767,1,1,2,0.000925912,0.000925912,1,0,0,2.5471,rock_grid_rect_2,7,12,-1,-1,2.547,0.099074116,-0.407407407,1,0,0,13.5544,Peridotite_rect,7,13.554,1,1,0,1,0,1,,,,,,,,,,,,
5fea7e34e1506a5df25419ec,TCN,2024-06-10_15h17.08.679,LearnStrategy,2023.2.3,Win32,11.99040767,1,1,3,-0.032407407,0.0074074,1,0,0,1.7194,rock_grid_rect_2,8,04,-1,-1,1.719,0.397222307,-0.414814843,1,0,0,4.1907,Pumice_rect,8,4.191,1,2,0,2,0,1,,,,,,,,,,,,
5fea7e34e1506a5df25419ec,TCN,2024-06-10_15h17.08.679,LearnStrategy,2023.2.3,Win32,11.99040767,1,1,4,0.056481467,0.008333312,1,0,0,2.0296,rock_grid_rect_2,1,10,-1,-1,2.03,0.395370342,-0.242592635,1,0,0,6.4061,Gabbro_rect,4,6.406,0,3,0,3,0,1,,,,,,,,,,,,
5fea7e34e1506a5df25419ec,TCN,2024-06-10_15h17.08.679,LearnStrategy,2023.2.3,Win32,11.99040767,1,1,5,0.040740755,0.01666666,1,0,0,1.6261,rock_grid_rect_2,3,09,-1,-1,1.626,-0.108333305,-0.24537037,1,0,0,3.4472,Basalt_rect,2,3.447,0,4,0,4,0,1,,,,,,,,,,,,
5fea7e34e1506a5df25419ec,TCN,2024-06-10_15h17.08.679,LearnStrategy,2023.2.3,Win32,11.99040767,1,1,6,0.051851838,0.01203703,1,0,0,1.9462,rock_grid_rect_2,4,01,-1,-1,1.946,-0.366666653,-0.247222265,1,0,0,4.5848,Andesite_rect,1,4.585,0,5,0,5,0,1,,,,,,,,,,,,
5fea7e34e1506a5df25419ec,TCN,2024-06-10_15h17.08.679,LearnStrategy,2023.2.3,Win32,11.99040767,1,1,7,0.037962949,-0.008333347,1,0,0,3.0835,rock_grid_rect_2,2,01,-1,-1,3.084,-0.128703718,-0.398148148,1,0,0,11.1607,Pegmatite_rect,6,11.161,0,6,0,6,0,1,,,,,,,,,,,,
5fea7e34e1506a5df25419ec,TCN,2024-06-10_15h17.08.679,LearnStrategy,2023.2.3,Win32,11.99040767,1,1,8,-0.020370342,0.005555541,1,0,0,1.5436,rock_grid_rect_2,7,02,-1,-1,1.544,0.133333347,-0.407407407,1,0,0,4.3602,Peridotite_rect,7,4.36,1,7,0,7,0,1,,,,,,,,,,,,
5fea7e34e1506a5df25419ec,TCN,2024-06-10_15h17.08.679,LearnStrategy,2023.2.3,Win32,11.99040767,1,1,9,-0.042592578,-0.003703718,1,0,0,1.3109,rock_grid_rect_2,2,04,-1,-1,1.311,-0.085185157,-0.262037065,1,0,0,2.559,Basalt_rect,2,2.559,1,8,0,8,0,1,,,,,,,,,,,,
5fea7e34e1506a5df25419ec,TCN,2024-06-10_15h17.08.679,LearnStrategy,2023.2.3,Win32,11.99040767,1,1,10,0.014814801,-0.012962977,1,0,0,1.5129,rock_grid_rect_2,3,14,-1,-1,1.513,0.145370413,-0.242592635,1,0,0,2.5329,Diorite_rect,3,2.533,1,9,0,9,0,1,,,,,,,,,,,,
5fea7e34e1506a5df25419ec,TCN,2024-06-10_15h17.08.679,LearnStrategy,2023.2.3,Win32,11.99040767,1,1,11,-0.041666667,0.010185171,1,0,0,1.1526,rock_grid_rect_2,6,06,-1,-1,1.153,-0.139814801,-0.393518519,1,0,0,8.2342,Pegmatite_rect,6,8.234,1,10,0,10,0,1,,,,,,,,,,,,
5fea7e34e1506a5df25419ec,TCN,2024-06-10_15h17.08.679,LearnStrategy,2023.2.3,Win32,11.99040767,1,1,12,-0.164814772,0.01944443,1,0,0,1.2543,rock_grid_rect_2,8,10,-1,-1,1.254,0.397222307,-0.401851866,1,0,0,2.3839,Pumice_rect,8,2.384,1,11,0,11,0,1,,,,,,,,,,,,
5fea7e34e1506a5df25419ec,TCN,2024-06-10_15h17.08.679,LearnStrategy,2023.2.3,Win32,11.99040767,1,1,13,-0.012962977,-0.008333347,1,0,0,1.9069,rock_grid_rect_2,6,05,-1,-1,1.907,0.121296282,-0.259259259,1,0,0,2.4781,Diorite_rect,3,2.478,0,12,0,12,0,1,,,,,,,,,,,,
5fea7e34e1506a5df25419ec,TCN,2024-06-10_15h17.08.679,LearnStrategy,2023.2.3,Win32,11.99040767,1,1,14,0.009259259,-0.001851859,1,0,0,1.6562,rock_grid_rect_2,5,08,-1,-1,1.656,-0.38703703,-0.397222236,1,0,0,1.7472,Obsidian_rect,5,1.747,1,13,0,13,0,1,,,,,,,,,,,,
5fea7e34e1506a5df25419ec,TCN,2024-06-10_15h17.08.679,LearnStrategy,2023.2.3,Win32,11.99040767,1,1,15,-0.012962977,-0.001851859,1,0,0,1.7522,rock_grid_rect_2,5,09,-1,-1,1.752,-0.424074067,-0.396296325,1,0,0,3.7091,Obsidian_rect,5,3.709,1,14,0,14,0,1,,,,,,,,,,,,
5fea7e34e1506a5df25419ec,TCN,2024-06-10_15h17.08.679,LearnStrategy,2023.2.3,Win32,11.99040767,1,1,16,-0.053703661,0.000925912,1,0,0,1.6011,rock_grid_rect_2,1,01,-1,-1,1.601,0.156481496,-0.244444459,1,0,0,2.1577,Diorite_rect,3,2.158,0,15,0,15,0,1,,,,,,,,,,,,
5fea7e34e1506a5df25419ec,TCN,2024-06-10_15h17.08.679,LearnStrategy,2023.2.3,Win32,11.99040767,1,2,1,,,,,,,,1,09,,,,,,,,,,,4,6.006,0,,,,,,0.405555584,-0.251851894,1,0,0,6.0056,Gabbro_rect,0,0,0,0,1
5fea7e34e1506a5df25419ec,TCN,2024-06-10_15h17.08.679,LearnStrategy,2023.2.3,Win32,11.99040767,1,2,2,,,,,,,,6,10,,,,,,,,,,,7,3.855,0,,,,,,0.122222265,-0.401851866,1,0,0,3.8551,Peridotite_rect,1,0,1,0,1
5fea7e34e1506a5df25419ec,TCN,2024-06-10_15h17.08.679,LearnStrategy,2023.2.3,Win32,11.99040767,1,2,3,,,,,,,,4,10,,,,,,,,,,,2,7.301,0,,,,,,-0.146296254,-0.24537037,1,0,0,7.3012,Basalt_rect,2,0,2,0,1
5fea7e34e1506a5df25419ec,TCN,2024-06-10_15h17.08.679,LearnStrategy,2023.2.3,Win32,11.99040767,1,2,4,,,,,,,,3,02,,,,,,,,,,,1,2.735,0,,,,,,-0.390740748,-0.24537037,1,0,0,2.7348,Andesite_rect,3,0,3,0,1
5fea7e34e1506a5df25419ec,TCN,2024-06-10_15h17.08.679,LearnStrategy,2023.2.3,Win32,11.99040767,1,2,5,,,,,,,,7,16,,,,,,,,,,,6,5.093,0,,,,,,-0.095370328,-0.400000042,1,0,0,5.0934,Pegmatite_rect,4,0,4,0,1
5fea7e34e1506a5df25419ec,TCN,2024-06-10_15h17.08.679,LearnStrategy,2023.2.3,Win32,11.99040767,1,2,6,,,,,,,,5,05,,,,,,,,,,,5,3.278,1,,,,,,-0.390740748,-0.395370413,1,0,0,3.2779,Obsidian_rect,5,0,5,0,1
5fea7e34e1506a5df25419ec,TCN,2024-06-10_15h17.08.679,LearnStrategy,2023.2.3,Win32,11.99040767,1,2,7,,,,,,,,5,10,,,,,,,,,,,5,3.163,1,,,,,,-0.427777785,-0.397222236,1,0,0,3.1629,Obsidian_rect,6,0,6,0,1
5fea7e34e1506a5df25419ec,TCN,2024-06-10_15h17.08.679,LearnStrategy,2023.2.3,Win32,11.99040767,1,2,8,,,,,,,,6,03,,,,,,,,,,,1,2.764,0,,,,,,-0.345370363,-0.237963005,1,0,0,2.764,Andesite_rect,7,0,7,0,1
5fea7e34e1506a5df25419ec,TCN,2024-06-10_15h17.08.679,LearnStrategy,2023.2.3,Win32,11.99040767,1,2,9,,,,,,,,2,16,,,,,,,,,,,8,2.552,0,,,,,,0.409259231,-0.409259302,1,0,0,2.5515,Pumice_rect,8,0,8,0,1
5fea7e34e1506a5df25419ec,TCN,2024-06-10_15h17.08.679,LearnStrategy,2023.2.3,Win32,11.99040767,1,2,10,,,,,,,,2,11,,,,,,,,,,,8,4.526,0,,,,,,0.399074131,-0.396296325,1,0,0,4.526,Pumice_rect,9,0,9,0,1
5fea7e34e1506a5df25419ec,TCN,2024-06-10_15h17.08.679,LearnStrategy,2023.2.3,Win32,11.99040767,1,2,11,,,,,,,,8,14,,,,,,,,,,,8,1.872,1,,,,,,0.389814871,-0.404629672,1,0,0,1.872,Pumice_rect,10,0,10,0,1
5fea7e34e1506a5df25419ec,TCN,2024-06-10_15h17.08.679,LearnStrategy,2023.2.3,Win32,11.99040767,1,2,12,,,,,,,,3,11,,,,,,,,,,,1,3.216,0,,,,,,-0.3675926,-0.240740741,1,0,0,3.2158,Andesite_rect,11,0,11,0,1
5fea7e34e1506a5df25419ec,TCN,2024-06-10_15h17.08.679,LearnStrategy,2023.2.3,Win32,11.99040767,1,2,13,,,,,,,,8,05,,,,,,,,,,,8,1.896,1,,,,,,0.401851937,-0.400000042,1,0,0,1.8957,Pumice_rect,12,0,12,0,1
5fea7e34e1506a5df25419ec,TCN,2024-06-10_15h17.08.679,LearnStrategy,2023.2.3,Win32,11.99040767,1,2,14,,,,,,,,1,02,,,,,,,,,,,6,8.937,0,,,,,,-0.10092594,-0.406481496,1,0,0,8.9365,Pegmatite_rect,13,0,13,0,1
5fea7e34e1506a5df25419ec,TCN,2024-06-10_15h17.08.679,LearnStrategy,2023.2.3,Win32,11.99040767,1,2,15,,,,,,,,7,15,,,,,,,,,,,7,2.2,1,,,,,,0.186111097,-0.402777778,1,0,0,2.1998,Peridotite_rect,14,0,14,0,1
5fea7e34e1506a5df25419ec,TCN,2024-06-10_15h17.08.679,LearnStrategy,2023.2.3,Win32,11.99040767,1,2,16,,,,,,,,4,05,,,,,,,,,,,1,9.846,0,,,,,,-0.334259245,-0.240740741,1,0,0,9.8458,Andesite_rect,15,0,15,0,1
5fea7e34e1506a5df25419ec,TCN,2024-06-10_15h17.08.679,LearnStrategy,2023.2.3,Win32,11.99040767,2,1,1,-0.039814772,-0.019444466,1,0,0,1.8063,rock_grid_rect_2,1,03,-1,-1,1.806,0.425925926,-0.253703718,1,0,0,2.9725,Gabbro_rect,4,2.972,0,0,0,0,0,1,,,,,,,,,,,,
5fea7e34e1506a5df25419ec,TCN,2024-06-10_15h17.08.679,LearnStrategy,2023.2.3,Win32,11.99040767,2,1,2,0.068518533,-0.005555577,1,0,0,1.6252,rock_grid_rect_2,8,09,-1,-1,1.625,0.40833339,-0.388888889,1,0,0,2.7791,Pumice_rect,8,2.779,1,1,0,1,0,1,,,,,,,,,,,,
5fea7e34e1506a5df25419ec,TCN,2024-06-10_15h17.08.679,LearnStrategy,2023.2.3,Win32,11.99040767,2,1,3,0.008333347,0.009259259,1,0,0,1.6563,rock_grid_rect_2,2,10,-1,-1,1.656,-0.10092594,-0.247222265,1,0,0,4.4112,Basalt_rect,2,4.411,1,2,0,2,0,1,,,,,,,,,,,,
5fea7e34e1506a5df25419ec,TCN,2024-06-10_15h17.08.679,LearnStrategy,2023.2.3,Win32,11.99040767,2,1,4,-0.036111125,-0.002777771,1,0,0,3.5728,rock_grid_rect_2,7,06,-1,-1,3.573,-0.418518526,-0.247222265,1,0,0,3.1394,Andesite_rect,1,3.139,0,3,0,3,0,1,,,,,,,,,,,,
5fea7e34e1506a5df25419ec,TCN,2024-06-10_15h17.08.679,LearnStrategy,2023.2.3,Win32,11.99040767,2,1,5,0.030555584,0.000925912,1,0,0,1.4993,rock_grid_rect_2,6,11,-1,-1,1.499,-0.125,-0.397222236,1,0,0,2.6579,Pegmatite_rect,6,2.658,1,4,0,4,0,1,,,,,,,,,,,,
5fea7e34e1506a5df25419ec,TCN,2024-06-10_15h17.08.679,LearnStrategy,2023.2.3,Win32,11.99040767,2,1,6,-0.007407365,0.010185171,1,0,0,1.5359,rock_grid_rect_2,4,08,-1,-1,1.536,-0.156481496,-0.257407436,1,0,0,3.4597,Basalt_rect,2,3.46,0,5,0,5,0,1,,,,,,,,,,,,
5fea7e34e1506a5df25419ec,TCN,2024-06-10_15h17.08.679,LearnStrategy,2023.2.3,Win32,11.99040767,2,1,7,-0.023148148,0.000925912,1,0,0,1.5993,rock_grid_rect_2,3,13,-1,-1,1.599,-0.409259266,-0.238888917,1,0,0,1.7939,Andesite_rect,1,1.794,0,6,0,6,0,1,,,,,,,,,,,,
5fea7e34e1506a5df25419ec,TCN,2024-06-10_15h17.08.679,LearnStrategy,2023.2.3,Win32,11.99040767,2,1,8,0.007407436,-0.0074074,1,0,0,1.7623,rock_grid_rect_2,6,15,-1,-1,1.762,-0.402777778,-0.258333347,1,0,0,2.4075,Andesite_rect,1,2.407,0,7,0,7,0,1,,,,,,,,,,,,
5fea7e34e1506a5df25419ec,TCN,2024-06-10_15h17.08.679,LearnStrategy,2023.2.3,Win32,11.99040767,2,1,9,-0.062962921,0.001851859,1,0,0,1.0116,rock_grid_rect_2,7,04,-1,-1,1.012,-0.136111083,-0.409259302,1,0,0,2.464,Pegmatite_rect,6,2.464,0,8,0,8,0,1,,,,,,,,,,,,
5fea7e34e1506a5df25419ec,TCN,2024-06-10_15h17.08.679,LearnStrategy,2023.2.3,Win32,11.99040767,2,1,10,0.031481496,0.000925912,1,0,0,1.3053,rock_grid_rect_2,8,02,-1,-1,1.305,0.374074159,-0.395370413,1,0,0,1.8354,Pumice_rect,8,1.835,1,9,0,9,0,1,,,,,,,,,,,,
5fea7e34e1506a5df25419ec,TCN,2024-06-10_15h17.08.679,LearnStrategy,2023.2.3,Win32,11.99040767,2,1,11,-0.022222236,-0.008333347,1,0,0,1.1791,rock_grid_rect_2,1,11,-1,-1,1.179,0.396296325,-0.25462963,1,0,0,4.8765,Gabbro_rect,4,4.876,0,10,0,10,0,1,,,,,,,,,,,,
5fea7e34e1506a5df25419ec,TCN,2024-06-10_15h17.08.679,LearnStrategy,2023.2.3,Win32,11.99040767,2,1,12,-0.049074032,-0.00462963,1,0,0,1.3988,rock_grid_rect_2,5,02,-1,-1,1.399,-0.397222201,-0.398148148,1,0,0,3.3083,Obsidian_rect,5,3.308,1,11,0,11,0,1,,,,,,,,,,,,
5fea7e34e1506a5df25419ec,TCN,2024-06-10_15h17.08.679,LearnStrategy,2023.2.3,Win32,11.99040767,2,1,13,0.066666709,0.010185171,1,0,0,1.5065,rock_grid_rect_2,2,05,-1,-1,1.506,-0.124074088,-0.253703718,1,0,0,2.9216,Basalt_rect,2,2.922,1,12,0,12,0,1,,,,,,,,,,,,
5fea7e34e1506a5df25419ec,TCN,2024-06-10_15h17.08.679,LearnStrategy,2023.2.3,Win32,11.99040767,2,1,14,-0.063888903,0.013888889,1,0,0,1.3569,rock_grid_rect_2,5,16,-1,-1,1.357,-0.388888889,-0.398148148,1,0,0,1.7409,Obsidian_rect,5,1.741,1,13,0,13,0,1,,,,,,,,,,,,
5fea7e34e1506a5df25419ec,TCN,2024-06-10_15h17.08.679,LearnStrategy,2023.2.3,Win32,11.99040767,2,1,15,-0.034259231,-0.006481489,1,0,0,1.2644,rock_grid_rect_2,4,16,-1,-1,1.264,-0.113888847,-0.251851894,1,0,0,9.0293,Basalt_rect,2,9.029,0,14,0,14,0,1,,,,,,,,,,,,
5fea7e34e1506a5df25419ec,TCN,2024-06-10_15h17.08.679,LearnStrategy,2023.2.3,Win32,11.99040767,2,1,16,0.032407407,0.012962942,1,0,0,1.6217,rock_grid_rect_2,3,08,-1,-1,1.622,0.176851838,-0.237963005,1,0,0,1.6171,Diorite_rect,3,1.617,1,15,0,15,0,1,,,,,,,,,,,,
5fea7e34e1506a5df25419ec,TCN,2024-06-10_15h17.08.679,LearnStrategy,2023.2.3,Win32,11.99040767,2,2,1,,,,,,,,5,12,,,,,,,,,,,5,2.034,1,,,,,,-0.36296297,-0.420370384,1,0,0,2.0341,Obsidian_rect,0,0,0,0,1
5fea7e34e1506a5df25419ec,TCN,2024-06-10_15h17.08.679,LearnStrategy,2023.2.3,Win32,11.99040767,2,2,2,,,,,,,,8,15,,,,,,,,,,,8,2.474,1,,,,,,0.404629601,-0.417592578,1,0,0,2.4738,Pumice_rect,1,0,1,0,1
5fea7e34e1506a5df25419ec,TCN,2024-06-10_15h17.08.679,LearnStrategy,2023.2.3,Win32,11.99040767,2,2,3,,,,,,,,1,06,,,,,,,,,,,4,7.119,0,,,,,,0.371296353,-0.249074088,1,0,0,7.1188,Gabbro_rect,2,0,2,0,1
5fea7e34e1506a5df25419ec,TCN,2024-06-10_15h17.08.679,LearnStrategy,2023.2.3,Win32,11.99040767,2,2,4,,,,,,,,2,12,,,,,,,,,,,4,2.486,0,,,,,,0.388888889,-0.25,1,0,0,2.4859,Gabbro_rect,3,0,3,0,1
5fea7e34e1506a5df25419ec,TCN,2024-06-10_15h17.08.679,LearnStrategy,2023.2.3,Win32,11.99040767,2,2,5,,,,,,,,5,06,,,,,,,,,,,6,2.627,0,,,,,,-0.126851824,-0.406481496,1,0,0,2.6269,Pegmatite_rect,4,0,4,0,1
5fea7e34e1506a5df25419ec,TCN,2024-06-10_15h17.08.679,LearnStrategy,2023.2.3,Win32,11.99040767,2,2,6,,,,,,,,4,09,,,,,,,,,,,3,3.252,0,,,,,,0.131481524,-0.246296282,1,0,0,3.2516,Diorite_rect,5,0,5,0,1
5fea7e34e1506a5df25419ec,TCN,2024-06-10_15h17.08.679,LearnStrategy,2023.2.3,Win32,11.99040767,2,2,7,,,,,,,,8,06,,,,,,,,,,,8,3.617,1,,,,,,0.390740712,-0.39907406,1,0,0,3.6175,Pumice_rect,6,0,6,0,1
5fea7e34e1506a5df25419ec,TCN,2024-06-10_15h17.08.679,LearnStrategy,2023.2.3,Win32,11.99040767,2,2,8,,,,,,,,4,03,,,,,,,,,,,1,3.874,0,,,,,,-0.442592586,-0.265740783,1,0,0,3.8743,Andesite_rect,7,0,7,0,1
5fea7e34e1506a5df25419ec,TCN,2024-06-10_15h17.08.679,LearnStrategy,2023.2.3,Win32,11.99040767,2,2,9,,,,,,,,3,07,,,,,,,,,,,3,1.538,1,,,,,,0.095370399,-0.247222265,1,0,0,1.5379,Diorite_rect,8,0,8,0,1
5fea7e34e1506a5df25419ec,TCN,2024-06-10_15h17.08.679,LearnStrategy,2023.2.3,Win32,11.99040767,2,2,10,,,,,,,,6,12,,,,,,,,,,,1,6.01,0,,,,,,-0.410185178,-0.241666653,1,0,0,6.0097,Andesite_rect,9,0,9,0,1
5fea7e34e1506a5df25419ec,TCN,2024-06-10_15h17.08.679,LearnStrategy,2023.2.3,Win32,11.99040767,2,2,11,,,,,,,,7,10,,,,,,,,,,,7,4.084,1,,,,,,0.135185171,-0.39444443,1,0,0,4.0839,Peridotite_rect,10,0,10,0,1
5fea7e34e1506a5df25419ec,TCN,2024-06-10_15h17.08.679,LearnStrategy,2023.2.3,Win32,11.99040767,2,2,12,,,,,,,,7,13,,,,,,,,,,,7,2.344,1,,,,,,0.152777778,-0.39444443,1,0,0,2.3439,Peridotite_rect,11,0,11,0,1
5fea7e34e1506a5df25419ec,TCN,2024-06-10_15h17.08.679,LearnStrategy,2023.2.3,Win32,11.99040767,2,2,13,,,,,,,,6,16,,,,,,,,,,,3,1.684,0,,,,,,0.141666695,-0.244444459,1,0,0,1.684,Diorite_rect,12,0,12,0,1
5fea7e34e1506a5df25419ec,TCN,2024-06-10_15h17.08.679,LearnStrategy,2023.2.3,Win32,11.99040767,2,2,14,,,,,,,,2,02,,,,,,,,,,,4,1.793,0,,,,,,0.359259288,-0.253703718,1,0,0,1.7934,Gabbro_rect,13,0,13,0,1
5fea7e34e1506a5df25419ec,TCN,2024-06-10_15h17.08.679,LearnStrategy,2023.2.3,Win32,11.99040767,2,2,15,,,,,,,,3,15,,,,,,,,,,,6,4.345,0,,,,,,-0.137036995,-0.418518561,1,0,0,4.3446,Pegmatite_rect,14,0,14,0,1
5fea7e34e1506a5df25419ec,TCN,2024-06-10_15h17.08.679,LearnStrategy,2023.2.3,Win32,11.99040767,2,2,16,,,,,,,,1,14,,,,,,,,,,,1,4.327,1,,,,,,-0.433333326,-0.247222265,1,0,0,4.327,Andesite_rect,15,0,15,0,1
5fea7e34e1506a5df25419ec,TCN,2024-06-10_15h17.08.679,LearnStrategy,2023.2.3,Win32,11.99040767,3,1,1,-0.035185143,-0.011111118,1,0,0,2.0402,rock_grid_rect_2,4,12,-1,-1,2.04,0.416666667,-0.235185199,1,0,0,6.2645,Gabbro_rect,4,6.264,1,0,0,0,0,1,,,,,,,,,,,,
5fea7e34e1506a5df25419ec,TCN,2024-06-10_15h17.08.679,LearnStrategy,2023.2.3,Win32,11.99040767,3,1,2,-0.024999972,0.01203703,1,0,0,1.6259,rock_grid_rect_2,3,16,-1,-1,1.626,0.135185171,-0.233333376,1,0,0,2.9055,Diorite_rect,3,2.905,1,1,0,1,0,1,,,,,,,,,,,,
5fea7e34e1506a5df25419ec,TCN,2024-06-10_15h17.08.679,LearnStrategy,2023.2.3,Win32,11.99040767,3,1,3,0.071296339,0.010185171,1,0,0,1.3017,rock_grid_rect_2,3,06,-1,-1,1.302,0.138888889,-0.239814829,1,0,0,2.2028,Diorite_rect,3,2.203,1,2,0,2,0,1,,,,,,,,,,,,
5fea7e34e1506a5df25419ec,TCN,2024-06-10_15h17.08.679,LearnStrategy,2023.2.3,Win32,11.99040767,3,1,4,0.016666695,0,1,0,0,1.2661,rock_grid_rect_2,8,08,-1,-1,1.266,0.351851852,-0.407407407,1,0,0,2.5202,Pumice_rect,8,2.52,1,3,0,3,0,1,,,,,,,,,,,,
5fea7e34e1506a5df25419ec,TCN,2024-06-10_15h17.08.679,LearnStrategy,2023.2.3,Win32,11.99040767,3,1,5,0.067592621,-0.000925947,1,0,0,1.3757,rock_grid_rect_2,2,09,-1,-1,1.376,0.389814871,-0.256481524,1,0,0,1.8862,Gabbro_rect,4,1.886,0,4,0,4,0,1,,,,,,,,,,,,
5fea7e34e1506a5df25419ec,TCN,2024-06-10_15h17.08.679,LearnStrategy,2023.2.3,Win32,11.99040767,3,1,6,0.059259273,0.013888889,1,0,0,1.3799,rock_grid_rect_2,5,04,-1,-1,1.38,-0.380555541,-0.415740755,1,0,0,1.8882,Obsidian_rect,5,1.888,1,5,0,5,0,1,,,,,,,,,,,,
5fea7e34e1506a5df25419ec,TCN,2024-06-10_15h17.08.679,LearnStrategy,2023.2.3,Win32,11.99040767,3,1,7,0.016666695,0.001851859,1,0,0,1.5334,rock_grid_rect_2,6,08,-1,-1,1.533,-0.142592607,-0.393518519,1,0,0,1.9862,Pegmatite_rect,6,1.986,1,6,0,6,0,1,,,,,,,,,,,,
5fea7e34e1506a5df25419ec,TCN,2024-06-10_15h17.08.679,LearnStrategy,2023.2.3,Win32,11.99040767,3,1,8,0.011111153,0.00462963,1,0,0,1.377,rock_grid_rect_2,6,09,-1,-1,1.377,0.14444443,-0.386111153,1,0,0,1.871,Peridotite_rect,7,1.871,0,7,0,7,0,1,,,,,,,,,,,,
5fea7e34e1506a5df25419ec,TCN,2024-06-10_15h17.08.679,LearnStrategy,2023.2.3,Win32,11.99040767,3,1,9,-0.016666624,0.02407406,1,0,0,1.2648,rock_grid_rect_2,1,04,-1,-1,1.265,-0.39444443,-0.259259259,1,0,0,4.3363,Andesite_rect,1,4.336,1,8,0,8,0,1,,,,,,,,,,,,
5fea7e34e1506a5df25419ec,TCN,2024-06-10_15h17.08.679,LearnStrategy,2023.2.3,Win32,11.99040767,3,1,10,-0.009259259,-0.000925947,1,0,0,1.3886,rock_grid_rect_2,5,14,-1,-1,1.389,-0.381481489,-0.404629672,1,0,0,1.7715,Obsidian_rect,5,1.771,1,9,0,9,0,1,,,,,,,,,,,,
5fea7e34e1506a5df25419ec,TCN,2024-06-10_15h17.08.679,LearnStrategy,2023.2.3,Win32,11.99040767,3,1,11,0.006481524,0.000925912,1,0,0,1.514,rock_grid_rect_2,7,08,-1,-1,1.514,0.127777806,-0.381481524,1,0,0,2.5507,Peridotite_rect,7,2.551,1,10,0,10,0,1,,,,,,,,,,,,
5fea7e34e1506a5df25419ec,TCN,2024-06-10_15h17.08.679,LearnStrategy,2023.2.3,Win32,11.99040767,3,1,12,0.043518561,-0.010185206,1,0,0,1.8781,rock_grid_rect_2,1,16,-1,-1,1.878,-0.412037037,-0.249074088,1,0,0,2.4009,Andesite_rect,1,2.401,1,11,0,11,0,1,,,,,,,,,,,,
5fea7e34e1506a5df25419ec,TCN,2024-06-10_15h17.08.679,LearnStrategy,2023.2.3,Win32,11.99040767,3,1,13,0.001851894,0.010185171,1,0,0,1.2642,rock_grid_rect_2,7,07,-1,-1,1.264,0.147222236,-0.392592607,1,0,0,2.1994,Peridotite_rect,7,2.199,1,12,0,12,0,1,,,,,,,,,,,,
5fea7e34e1506a5df25419ec,TCN,2024-06-10_15h17.08.679,LearnStrategy,2023.2.3,Win32,11.99040767,3,1,14,-0.037037037,-0.012962977,1,0,0,1.3738,rock_grid_rect_2,2,14,-1,-1,1.374,-0.102777764,-0.24537037,1,0,0,4.0094,Basalt_rect,2,4.009,1,13,0,13,0,1,,,,,,,,,,,,
5fea7e34e1506a5df25419ec,TCN,2024-06-10_15h17.08.679,LearnStrategy,2023.2.3,Win32,11.99040767,3,1,15,0.032407407,0.001851859,1,0,0,1.3871,rock_grid_rect_2,4,14,-1,-1,1.387,-0.109259217,-0.25,1,0,0,2.08,Basalt_rect,2,2.08,0,14,0,14,0,1,,,,,,,,,,,,
5fea7e34e1506a5df25419ec,TCN,2024-06-10_15h17.08.679,LearnStrategy,2023.2.3,Win32,11.99040767,3,1,16,-0.006481453,0.005555541,1,0,0,1.5289,rock_grid_rect_2,8,13,-1,-1,1.529,0.386111083,-0.393518519,1,0,0,2.8786,Pumice_rect,8,2.879,1,15,0,15,0,1,,,,,,,,,,,,
5fea7e34e1506a5df25419ec,TCN,2024-06-10_15h17.08.679,LearnStrategy,2023.2.3,Win32,11.99040767,3,2,1,,,,,,,,3,12,,,,,,,,,,,3,1.542,1,,,,,,0.12962963,-0.25,1,0,0,1.5417,Diorite_rect,0,0,0,0,1
5fea7e34e1506a5df25419ec,TCN,2024-06-10_15h17.08.679,LearnStrategy,2023.2.3,Win32,11.99040767,3,2,2,,,,,,,,6,07,,,,,,,,,,,6,5.59,1,,,,,,-0.183333291,-0.407407407,1,0,0,5.59,Pegmatite_rect,1,0,1,0,1
5fea7e34e1506a5df25419ec,TCN,2024-06-10_15h17.08.679,LearnStrategy,2023.2.3,Win32,11.99040767,3,2,3,,,,,,,,5,07,,,,,,,,,,,6,7.095,0,,,,,,-0.169444402,-0.413888931,1,0,0,7.0951,Pegmatite_rect,2,0,2,0,1
5fea7e34e1506a5df25419ec,TCN,2024-06-10_15h17.08.679,LearnStrategy,2023.2.3,Win32,11.99040767,3,2,4,,,,,,,,4,13,,,,,,,,,,,1,10.977,0,,,,,,-0.401851831,-0.25,1,0,0,10.9771,Andesite_rect,3,0,3,0,1
5fea7e34e1506a5df25419ec,TCN,2024-06-10_15h17.08.679,LearnStrategy,2023.2.3,Win32,11.99040767,3,2,5,,,,,,,,2,06,,,,,,,,,,,2,1.596,1,,,,,,-0.157407407,-0.253703718,1,0,0,1.5963,Basalt_rect,4,0,4,0,1
5fea7e34e1506a5df25419ec,TCN,2024-06-10_15h17.08.679,LearnStrategy,2023.2.3,Win32,11.99040767,3,2,6,,,,,,,,6,13,,,,,,,,,,,6,6.174,1,,,,,,-0.099074046,-0.410185213,1,0,0,6.1738,Pegmatite_rect,5,0,5,0,1
5fea7e34e1506a5df25419ec,TCN,2024-06-10_15h17.08.679,LearnStrategy,2023.2.3,Win32,11.99040767,3,2,7,,,,,,,,7,14,,,,,,,,,,,7,2.944,1,,,,,,0.137962977,-0.401851866,1,0,0,2.9444,Peridotite_rect,6,0,6,0,1
5fea7e34e1506a5df25419ec,TCN,2024-06-10_15h17.08.679,LearnStrategy,2023.2.3,Win32,11.99040767,3,2,8,,,,,,,,7,05,,,,,,,,,,,7,1.774,1,,,,,,0.12962963,-0.393518519,1,0,0,1.7738,Peridotite_rect,7,0,7,0,1
5fea7e34e1506a5df25419ec,TCN,2024-06-10_15h17.08.679,LearnStrategy,2023.2.3,Win32,11.99040767,3,2,9,,,,,,,,5,11,,,,,,,,,,,5,2.14,1,,,,,,-0.436111097,-0.384259259,1,0,0,2.1405,Obsidian_rect,8,0,8,0,1
5fea7e34e1506a5df25419ec,TCN,2024-06-10_15h17.08.679,LearnStrategy,2023.2.3,Win32,11.99040767,3,2,10,,,,,,,,8,03,,,,,,,,,,,8,1.787,1,,,,,,0.37037037,-0.414814843,1,0,0,1.7867,Pumice_rect,9,0,9,0,1
5fea7e34e1506a5df25419ec,TCN,2024-06-10_15h17.08.679,LearnStrategy,2023.2.3,Win32,11.99040767,3,2,11,,,,,,,,1,07,,,,,,,,,,,3,1.524,0,,,,,,0.126851894,-0.232407393,1,0,0,1.5236,Diorite_rect,10,0,10,0,1
5fea7e34e1506a5df25419ec,TCN,2024-06-10_15h17.08.679,LearnStrategy,2023.2.3,Win32,11.99040767,3,2,12,,,,,,,,4,15,,,,,,,,,,,6,5.388,0,,,,,,-0.104629587,-0.409259302,1,0,0,5.3875,Pegmatite_rect,11,0,11,0,1
5fea7e34e1506a5df25419ec,TCN,2024-06-10_15h17.08.679,LearnStrategy,2023.2.3,Win32,11.99040767,3,2,13,,,,,,,,2,08,,,,,,,,,,,2,1.947,1,,,,,,-0.090740698,-0.251851894,1,0,0,1.9475,Basalt_rect,12,0,12,0,1
5fea7e34e1506a5df25419ec,TCN,2024-06-10_15h17.08.679,LearnStrategy,2023.2.3,Win32,11.99040767,3,2,14,,,,,,,,8,16,,,,,,,,,,,8,4.412,1,,,,,,0.391666695,-0.40370369,1,0,0,4.4121,Pumice_rect,13,0,13,0,1
5fea7e34e1506a5df25419ec,TCN,2024-06-10_15h17.08.679,LearnStrategy,2023.2.3,Win32,11.99040767,3,2,15,,,,,,,,3,10,,,,,,,,,,,7,2.465,0,,,,,,0.162037037,-0.40370369,1,0,0,2.4655,Peridotite_rect,14,0,14,0,1
5fea7e34e1506a5df25419ec,TCN,2024-06-10_15h17.08.679,LearnStrategy,2023.2.3,Win32,11.99040767,3,2,16,,,,,,,,1,05,,,,,,,,,,,4,3.144,0,,,,,,0.435185185,-0.242592635,1,0,0,3.1442,Gabbro_rect,15,0,15,0,1
5fea7e34e1506a5df25419ec,TCN,2024-06-10_15h17.08.679,LearnStrategy,2023.2.3,Win32,11.99040767,4,1,1,-0.051851838,-0.00462963,1,0,0,1.0377,rock_grid_rect_2,3,09,-1,-1,1.038,0.113888917,-0.228703746,1,0,0,1.9452,Diorite_rect,3,1.945,1,0,0,0,0,1,,,,,,,,,,,,
5fea7e34e1506a5df25419ec,TCN,2024-06-10_15h17.08.679,LearnStrategy,2023.2.3,Win32,11.99040767,4,1,2,-0.034259231,0.022222201,1,0,0,1.3923,rock_grid_rect_2,6,08,-1,-1,1.392,-0.133333347,-0.386111153,1,0,0,3.7095,Pegmatite_rect,6,3.71,1,1,0,1,0,1,,,,,,,,,,,,
5fea7e34e1506a5df25419ec,TCN,2024-06-10_15h17.08.679,LearnStrategy,2023.2.3,Win32,11.99040767,4,1,3,-0.020370342,-0.009259259,1,0,0,1.1496,rock_grid_rect_2,5,04,-1,-1,1.15,-0.386111118,-0.40370369,1,0,0,1.5862,Obsidian_rect,5,1.586,1,2,0,2,0,1,,,,,,,,,,,,
5fea7e34e1506a5df25419ec,TCN,2024-06-10_15h17.08.679,LearnStrategy,2023.2.3,Win32,11.99040767,4,1,4,-0.02870369,-0.00462963,1,0,0,1.1396,rock_grid_rect_2,2,09,-1,-1,1.14,-0.137036995,-0.233333376,1,0,0,1.4233,Basalt_rect,2,1.423,1,3,0,3,0,1,,,,,,,,,,,,
5fea7e34e1506a5df25419ec,TCN,2024-06-10_15h17.08.679,LearnStrategy,2023.2.3,Win32,11.99040767,4,1,5,-0.037037037,0.023148148,1,0,0,1.0001,rock_grid_rect_2,7,06,-1,-1,1,0.116666653,-0.421296296,1,0,0,2.5179,Peridotite_rect,7,2.518,1,4,0,4,0,1,,,,,,,,,,,,
5fea7e34e1506a5df25419ec,TCN,2024-06-10_15h17.08.679,LearnStrategy,2023.2.3,Win32,11.99040767,4,1,6,-0.030555513,-0.003703718,1,0,0,2.7777,rock_grid_rect_2,4,08,-1,-1,2.778,0.375925982,-0.262962977,1,0,0,1.687,Gabbro_rect,4,1.687,1,5,0,5,0,1,,,,,,,,,,,,
5fea7e34e1506a5df25419ec,TCN,2024-06-10_15h17.08.679,LearnStrategy,2023.2.3,Win32,11.99040767,4,1,7,-0.021296254,-0.009259259,1,0,0,1.3703,rock_grid_rect_2,4,11,-1,-1,1.37,-0.124074088,-0.242592635,1,0,0,1.3837,Basalt_rect,2,1.384,0,6,0,6,0,1,,,,,,,,,,,,
5fea7e34e1506a5df25419ec,TCN,2024-06-10_15h17.08.679,LearnStrategy,2023.2.3,Win32,11.99040767,4,1,8,-0.058333291,0.003703683,1,0,0,1.4861,rock_grid_rect_2,1,04,-1,-1,1.486,0.37962963,-0.251851894,1,0,0,3.6264,Gabbro_rect,4,3.626,0,7,0,7,0,1,,,,,,,,,,,,
5fea7e34e1506a5df25419ec,TCN,2024-06-10_15h17.08.679,LearnStrategy,2023.2.3,Win32,11.99040767,4,1,9,-0.027777778,-0.006481489,1,0,0,1.5806,rock_grid_rect_2,8,10,-1,-1,1.581,0.368518547,-0.410185213,1,0,0,2.3491,Pumice_rect,8,2.349,1,8,0,8,0,1,,,,,,,,,,,,
5fea7e34e1506a5df25419ec,TCN,2024-06-10_15h17.08.679,LearnStrategy,2023.2.3,Win32,11.99040767,4,1,10,-0.057407379,-0.010185206,1,0,0,1.5073,rock_grid_rect_2,8,04,-1,-1,1.507,0.347222222,-0.400925954,1,0,0,3.4453,Pumice_rect,8,3.445,1,9,0,9,0,1,,,,,,,,,,,,
5fea7e34e1506a5df25419ec,TCN,2024-06-10_15h17.08.679,LearnStrategy,2023.2.3,Win32,11.99040767,4,1,11,-0.009259259,0.000925912,1,0,0,1.8755,rock_grid_rect_2,1,01,-1,-1,1.875,-0.423148155,-0.258333347,1,0,0,2.0401,Andesite_rect,1,2.04,1,10,0,10,0,1,,,,,,,,,,,,
5fea7e34e1506a5df25419ec,TCN,2024-06-10_15h17.08.679,LearnStrategy,2023.2.3,Win32,11.99040767,4,1,12,0.025925954,-0.001851859,1,0,0,2.8881,rock_grid_rect_2,3,08,-1,-1,2.888,0.163888931,-0.249074088,1,0,0,1.8983,Diorite_rect,3,1.898,1,11,0,11,0,1,,,,,,,,,,,,
5fea7e34e1506a5df25419ec,TCN,2024-06-10_15h17.08.679,LearnStrategy,2023.2.3,Win32,11.99040767,4,1,13,0.048148191,-0.003703718,1,0,0,1.3649,rock_grid_rect_2,6,09,-1,-1,1.365,-0.131481453,-0.385185171,1,0,0,5.9998,Pegmatite_rect,6,6,1,12,0,12,0,1,,,,,,,,,,,,
5fea7e34e1506a5df25419ec,TCN,2024-06-10_15h17.08.679,LearnStrategy,2023.2.3,Win32,11.99040767,4,1,14,-0.065740727,-0.013888889,1,0,0,1.2627,rock_grid_rect_2,2,14,-1,-1,1.263,0.412037037,-0.406481496,1,0,0,2.8666,Pumice_rect,8,2.867,0,13,0,13,0,1,,,,,,,,,,,,
5fea7e34e1506a5df25419ec,TCN,2024-06-10_15h17.08.679,LearnStrategy,2023.2.3,Win32,11.99040767,4,1,15,0.023148148,0.01203703,1,0,0,1.3552,rock_grid_rect_2,5,02,-1,-1,1.355,-0.398148148,-0.401851866,1,0,0,1.8293,Obsidian_rect,5,1.829,1,14,0,14,0,1,,,,,,,,,,,,
5fea7e34e1506a5df25419ec,TCN,2024-06-10_15h17.08.679,LearnStrategy,2023.2.3,Win32,11.99040767,4,1,16,-0.034259231,-0.006481489,1,0,0,1.3722,rock_grid_rect_2,7,12,-1,-1,1.372,0.14907406,-0.386111153,1,0,0,2.3537,Peridotite_rect,7,2.354,1,15,0,15,0,1,,,,,,,,,,,,
5fea7e34e1506a5df25419ec,TCN,2024-06-10_15h17.08.679,LearnStrategy,2023.2.3,Win32,11.99040767,4,2,1,,,,,,,,2,06,,,,,,,,,,,2,1.882,1,,,,,,-0.137036995,-0.247222265,1,0,0,1.8821,Basalt_rect,0,0,0,0,1
5fea7e34e1506a5df25419ec,TCN,2024-06-10_15h17.08.679,LearnStrategy,2023.2.3,Win32,11.99040767,4,2,2,,,,,,,,7,05,,,,,,,,,,,7,2.14,1,,,,,,0.148148148,-0.389814801,1,0,0,2.1402,Peridotite_rect,1,0,1,0,1
5fea7e34e1506a5df25419ec,TCN,2024-06-10_15h17.08.679,LearnStrategy,2023.2.3,Win32,11.99040767,4,2,3,,,,,,,,4,03,,,,,,,,,,,3,3.5,0,,,,,,0.118518547,-0.242592635,1,0,0,3.4998,Diorite_rect,2,0,2,0,1
5fea7e34e1506a5df25419ec,TCN,2024-06-10_15h17.08.679,LearnStrategy,2023.2.3,Win32,11.99040767,4,2,4,,,,,,,,3,07,,,,,,,,,,,3,1.256,1,,,,,,0.113888917,-0.243518547,1,0,0,1.2562,Diorite_rect,3,0,3,0,1
5fea7e34e1506a5df25419ec,TCN,2024-06-10_15h17.08.679,LearnStrategy,2023.2.3,Win32,11.99040767,4,2,5,,,,,,,,6,13,,,,,,,,,,,1,7.164,0,,,,,,-0.432407414,-0.244444459,1,0,0,7.1642,Andesite_rect,4,0,4,0,1
5fea7e34e1506a5df25419ec,TCN,2024-06-10_15h17.08.679,LearnStrategy,2023.2.3,Win32,11.99040767,4,2,6,,,,,,,,7,15,,,,,,,,,,,7,1.778,1,,,,,,0.102777764,-0.392592607,1,0,0,1.7779,Peridotite_rect,5,0,5,0,1
5fea7e34e1506a5df25419ec,TCN,2024-06-10_15h17.08.679,LearnStrategy,2023.2.3,Win32,11.99040767,4,2,7,,,,,,,,2,16,,,,,,,,,,,2,2.632,1,,,,,,-0.108333305,-0.247222265,1,0,0,2.6315,Basalt_rect,6,0,6,0,1
5fea7e34e1506a5df25419ec,TCN,2024-06-10_15h17.08.679,LearnStrategy,2023.2.3,Win32,11.99040767,4,2,8,,,,,,,,1,05,,,,,,,,,,,4,6.268,0,,,,,,0.433333362,-0.24537037,1,0,0,6.2679,Gabbro_rect,7,0,7,0,1
5fea7e34e1506a5df25419ec,TCN,2024-06-10_15h17.08.679,LearnStrategy,2023.2.3,Win32,11.99040767,4,2,9,,,,,,,,4,13,,,,,,,,,,,4,4.286,1,,,,,,0.405555584,-0.252777806,1,0,0,4.2858,Gabbro_rect,8,0,8,0,1
5fea7e34e1506a5df25419ec,TCN,2024-06-10_15h17.08.679,LearnStrategy,2023.2.3,Win32,11.99040767,4,2,10,,,,,,,,5,07,,,,,,,,,,,5,2.154,1,,,,,,-0.389814801,-0.395370413,1,0,0,2.1539,Obsidian_rect,9,0,9,0,1
5fea7e34e1506a5df25419ec,TCN,2024-06-10_15h17.08.679,LearnStrategy,2023.2.3,Win32,11.99040767,4,2,11,,,,,,,,6,07,,,,,,,,,,,6,1.793,1,,,,,,-0.15370369,-0.39907406,1,0,0,1.7933,Pegmatite_rect,10,0,10,0,1
5fea7e34e1506a5df25419ec,TCN,2024-06-10_15h17.08.679,LearnStrategy,2023.2.3,Win32,11.99040767,4,2,12,,,,,,,,8,05,,,,,,,,,,,8,2.235,1,,,,,,0.393518519,-0.39907406,1,0,0,2.2354,Pumice_rect,11,0,11,0,1
5fea7e34e1506a5df25419ec,TCN,2024-06-10_15h17.08.679,LearnStrategy,2023.2.3,Win32,11.99040767,4,2,13,,,,,,,,8,16,,,,,,,,,,,2,4.508,0,,,,,,-0.137036995,-0.248148176,1,0,0,4.5077,Basalt_rect,12,0,12,0,1
5fea7e34e1506a5df25419ec,TCN,2024-06-10_15h17.08.679,LearnStrategy,2023.2.3,Win32,11.99040767,4,2,14,,,,,,,,1,06,,,,,,,,,,,4,2.178,0,,,,,,0.359259288,-0.242592635,1,0,0,2.1776,Gabbro_rect,13,0,13,0,1
5fea7e34e1506a5df25419ec,TCN,2024-06-10_15h17.08.679,LearnStrategy,2023.2.3,Win32,11.99040767,4,2,15,,,,,,,,5,05,,,,,,,,,,,3,1.381,0,,,,,,0.127777806,-0.239814829,1,0,0,1.3808,Diorite_rect,14,0,14,0,1
5fea7e34e1506a5df25419ec,TCN,2024-06-10_15h17.08.679,LearnStrategy,2023.2.3,Win32,11.99040767,4,2,16,,,,,,,,3,11,,,,,,,,,,,3,1.197,1,,,,,,0.122222265,-0.251851894,1,0,0,1.1969,Diorite_rect,15,0,15,0,1
5fea7e34e1506a5df25419ec,TCN,2024-06-10_15h17.08.679,LearnStrategy,2023.2.3,Win32,11.99040767,5,1,1,0.050925926,0.02407406,1,0,0,1.7581,rock_grid_rect_2,4,12,-1,-1,1.758,-0.14444443,-0.247222265,1,0,0,1.7469,Basalt_rect,2,1.747,0,0,0,0,0,1,,,,,,,,,,,,
5fea7e34e1506a5df25419ec,TCN,2024-06-10_15h17.08.679,LearnStrategy,2023.2.3,Win32,11.99040767,5,1,2,0,0.010185171,1,0,0,1.4858,rock_grid_rect_2,3,16,-1,-1,1.486,0.166666667,-0.247222265,1,0,0,1.7933,Diorite_rect,3,1.793,1,1,0,1,0,1,,,,,,,,,,,,
5fea7e34e1506a5df25419ec,TCN,2024-06-10_15h17.08.679,LearnStrategy,2023.2.3,Win32,11.99040767,5,1,3,-0.001851824,0.005555541,1,0,0,1.8301,rock_grid_rect_2,5,09,-1,-1,1.83,-0.385185171,-0.400000042,1,0,0,1.7833,Obsidian_rect,5,1.783,1,2,0,2,0,1,,,,,,,,,,,,
5fea7e34e1506a5df25419ec,TCN,2024-06-10_15h17.08.679,LearnStrategy,2023.2.3,Win32,11.99040767,5,1,4,0.048148191,-0.005555577,1,0,0,1.1333,rock_grid_rect_2,1,10,-1,-1,1.133,0.387037065,-0.261111153,1,0,0,3.0846,Gabbro_rect,4,3.085,0,3,0,3,0,1,,,,,,,,,,,,
5fea7e34e1506a5df25419ec,TCN,2024-06-10_15h17.08.679,LearnStrategy,2023.2.3,Win32,11.99040767,5,1,5,-0.013888889,-0.005555577,1,0,0,1.3309,rock_grid_rect_2,2,04,-1,-1,1.331,-0.133333347,-0.239814829,1,0,0,4.7768,Basalt_rect,2,4.777,1,4,0,4,0,1,,,,,,,,,,,,
5fea7e34e1506a5df25419ec,TCN,2024-06-10_15h17.08.679,LearnStrategy,2023.2.3,Win32,11.99040767,5,1,6,0.070370356,0.01203703,1,0,0,1.87,rock_grid_rect_2,8,08,-1,-1,1.87,0.384259259,-0.39907406,1,0,0,2.9145,Pumice_rect,8,2.915,1,5,0,5,0,1,,,,,,,,,,,,
5fea7e34e1506a5df25419ec,TCN,2024-06-10_15h17.08.679,LearnStrategy,2023.2.3,Win32,11.99040767,5,1,7,-0.012036995,0.002777771,1,0,0,2.8838,rock_grid_rect_2,5,08,-1,-1,2.884,-0.426851838,-0.409259302,1,0,0,2.1136,Obsidian_rect,5,2.114,1,6,0,6,0,1,,,,,,,,,,,,
5fea7e34e1506a5df25419ec,TCN,2024-06-10_15h17.08.679,LearnStrategy,2023.2.3,Win32,11.99040767,5,1,8,-0.015740712,-0.005555577,1,0,0,2.0554,rock_grid_rect_2,6,15,-1,-1,2.055,-0.148148148,-0.380555541,1,0,0,1.7657,Pegmatite_rect,6,1.766,1,7,0,7,0,1,,,,,,,,,,,,
5fea7e34e1506a5df25419ec,TCN,2024-06-10_15h17.08.679,LearnStrategy,2023.2.3,Win32,11.99040767,5,1,9,-0.135185171,0.000925912,1,0,0,1.2535,rock_grid_rect_2,4,01,-1,-1,1.254,0.41851849,-0.267592607,1,0,0,2.0766,Gabbro_rect,4,2.077,1,8,0,8,0,1,,,,,,,,,,,,
5fea7e34e1506a5df25419ec,TCN,2024-06-10_15h17.08.679,LearnStrategy,2023.2.3,Win32,11.99040767,5,1,10,-0.010185171,-0.005555577,1,0,0,1.4039,rock_grid_rect_2,1,16,-1,-1,1.404,0.122222265,-0.25462963,1,0,0,1.8213,Diorite_rect,3,1.821,0,9,0,9,0,1,,,,,,,,,,,,
5fea7e34e1506a5df25419ec,TCN,2024-06-10_15h17.08.679,LearnStrategy,2023.2.3,Win32,11.99040767,5,1,11,-0.023148148,-0.013888889,1,0,0,1.4994,rock_grid_rect_2,8,02,-1,-1,1.499,0.426851908,-0.405555584,1,0,0,2.4229,Pumice_rect,8,2.423,1,10,0,10,0,1,,,,,,,,,,,,
5fea7e34e1506a5df25419ec,TCN,2024-06-10_15h17.08.679,LearnStrategy,2023.2.3,Win32,11.99040767,5,1,12,-0.05277775,-0.003703718,1,0,0,1.229,rock_grid_rect_2,7,07,-1,-1,1.229,0.165740755,-0.388888889,1,0,0,1.9291,Peridotite_rect,7,1.929,1,11,0,11,0,1,,,,,,,,,,,,
5fea7e34e1506a5df25419ec,TCN,2024-06-10_15h17.08.679,LearnStrategy,2023.2.3,Win32,11.99040767,5,1,13,-0.047222208,0.005555541,1,0,0,1.4835,rock_grid_rect_2,7,02,-1,-1,1.484,0.107407393,-0.393518519,1,0,0,2.4358,Peridotite_rect,7,2.436,1,12,0,12,0,1,,,,,,,,,,,,
5fea7e34e1506a5df25419ec,TCN,2024-06-10_15h17.08.679,LearnStrategy,2023.2.3,Win32,11.99040767,5,1,14,0.038888931,0.010185171,1,0,0,1.4916,rock_grid_rect_2,3,14,-1,-1,1.492,0.116666653,-0.240740741,1,0,0,1.5038,Diorite_rect,3,1.504,1,13,0,13,0,1,,,,,,,,,,,,
5fea7e34e1506a5df25419ec,TCN,2024-06-10_15h17.08.679,LearnStrategy,2023.2.3,Win32,11.99040767,5,1,15,-0.053703661,-0.006481489,1,0,0,1.3953,rock_grid_rect_2,6,06,-1,-1,1.395,-0.398148148,-0.248148176,1,0,0,6.8867,Andesite_rect,1,6.887,0,14,0,14,0,1,,,,,,,,,,,,
5fea7e34e1506a5df25419ec,TCN,2024-06-10_15h17.08.679,LearnStrategy,2023.2.3,Win32,11.99040767,5,1,16,-0.04814812,-0.003703718,1,0,0,1.2593,rock_grid_rect_2,2,01,-1,-1,1.259,-0.074074074,-0.261111153,1,0,0,1.4477,Basalt_rect,2,1.448,1,15,0,15,0,1,,,,,,,,,,,,
5fea7e34e1506a5df25419ec,TCN,2024-06-10_15h17.08.679,LearnStrategy,2023.2.3,Win32,11.99040767,5,2,1,,,,,,,,4,10,,,,,,,,,,,4,9.153,1,,,,,,0.399999972,-0.246296282,1,0,0,9.153,Gabbro_rect,0,0,0,0,1
5fea7e34e1506a5df25419ec,TCN,2024-06-10_15h17.08.679,LearnStrategy,2023.2.3,Win32,11.99040767,5,2,2,,,,,,,,1,09,,,,,,,,,,,4,6.145,0,,,,,,0.413888861,-0.251851894,1,0,0,6.1455,Gabbro_rect,1,0,1,0,1
5fea7e34e1506a5df25419ec,TCN,2024-06-10_15h17.08.679,LearnStrategy,2023.2.3,Win32,11.99040767,5,2,3,,,,,,,,5,11,,,,,,,,,,,5,1.919,1,,,,,,-0.37037037,-0.397222236,1,0,0,1.9189,Obsidian_rect,2,0,2,0,1
5fea7e34e1506a5df25419ec,TCN,2024-06-10_15h17.08.679,LearnStrategy,2023.2.3,Win32,11.99040767,5,2,4,,,,,,,,6,12,,,,,,,,,,,1,11.331,0,,,,,,-0.386111118,-0.24537037,1,0,0,11.3312,Andesite_rect,3,0,3,0,1
5fea7e34e1506a5df25419ec,TCN,2024-06-10_15h17.08.679,LearnStrategy,2023.2.3,Win32,11.99040767,5,2,5,,,,,,,,7,14,,,,,,,,,,,7,2.217,1,,,,,,0.118518547,-0.40370369,1,0,0,2.2174,Peridotite_rect,4,0,4,0,1
5fea7e34e1506a5df25419ec,TCN,2024-06-10_15h17.08.679,LearnStrategy,2023.2.3,Win32,11.99040767,5,2,6,,,,,,,,3,12,,,,,,,,,,,1,3.539,0,,,,,,-0.373148141,-0.242592635,1,0,0,3.5387,Andesite_rect,5,0,5,0,1
5fea7e34e1506a5df25419ec,TCN,2024-06-10_15h17.08.679,LearnStrategy,2023.2.3,Win32,11.99040767,5,2,7,,,,,,,,5,12,,,,,,,,,,,5,1.36,1,,,,,,-0.373148141,-0.407407407,1,0,0,1.3597,Obsidian_rect,6,0,6,0,1
5fea7e34e1506a5df25419ec,TCN,2024-06-10_15h17.08.679,LearnStrategy,2023.2.3,Win32,11.99040767,5,2,8,,,,,,,,3,10,,,,,,,,,,,1,3.083,0,,,,,,-0.368518511,-0.237963005,1,0,0,3.0829,Andesite_rect,7,0,7,0,1
5fea7e34e1506a5df25419ec,TCN,2024-06-10_15h17.08.679,LearnStrategy,2023.2.3,Win32,11.99040767,5,2,9,,,,,,,,8,15,,,,,,,,,,,8,2.677,1,,,,,,0.394444501,-0.380555541,1,0,0,2.6765,Pumice_rect,8,0,8,0,1
5fea7e34e1506a5df25419ec,TCN,2024-06-10_15h17.08.679,LearnStrategy,2023.2.3,Win32,11.99040767,5,2,10,,,,,,,,2,11,,,,,,,,,,,4,2.307,0,,,,,,0.391666695,-0.235185199,1,0,0,2.3068,Gabbro_rect,9,0,9,0,1
5fea7e34e1506a5df25419ec,TCN,2024-06-10_15h17.08.679,LearnStrategy,2023.2.3,Win32,11.99040767,5,2,11,,,,,,,,7,13,,,,,,,,,,,7,1.721,1,,,,,,0.137037065,-0.378703718,1,0,0,1.7212,Peridotite_rect,10,0,10,0,1
5fea7e34e1506a5df25419ec,TCN,2024-06-10_15h17.08.679,LearnStrategy,2023.2.3,Win32,11.99040767,5,2,12,,,,,,,,1,02,,,,,,,,,,,6,4.516,0,,,,,,-0.139814801,-0.39444443,1,0,0,4.5156,Pegmatite_rect,11,0,11,0,1
5fea7e34e1506a5df25419ec,TCN,2024-06-10_15h17.08.679,LearnStrategy,2023.2.3,Win32,11.99040767,5,2,13,,,,,,,,8,03,,,,,,,,,,,8,2.132,1,,,,,,0.382407436,-0.396296325,1,0,0,2.1318,Pumice_rect,12,0,12,0,1
5fea7e34e1506a5df25419ec,TCN,2024-06-10_15h17.08.679,LearnStrategy,2023.2.3,Win32,11.99040767,5,2,14,,,,,,,,4,09,,,,,,,,,,,2,3.268,0,,,,,,-0.104629587,-0.247222265,1,0,0,3.2684,Basalt_rect,13,0,13,0,1
5fea7e34e1506a5df25419ec,TCN,2024-06-10_15h17.08.679,LearnStrategy,2023.2.3,Win32,11.99040767,5,2,15,,,,,,,,2,02,,,,,,,,,,,2,1.212,1,,,,,,-0.104629587,-0.247222265,1,0,0,1.2119,Basalt_rect,14,0,14,0,1
5fea7e34e1506a5df25419ec,TCN,2024-06-10_15h17.08.679,LearnStrategy,2023.2.3,Win32,11.99040767,5,2,16,,,,,,,,6,03,,,,,,,,,,,6,4.07,1,,,,,,-0.141666624,-0.392592607,1,0,0,4.0704,Pegmatite_rect,15,0,15,0,1
5fea7e34e1506a5df25419ec,TCN,2024-06-10_15h17.08.679,LearnStrategy,2023.2.3,Win32,11.99040767,6,1,1,0.015740783,0.000925912,1,0,0,1.2638,rock_grid_rect_2,6,05,-1,-1,1.264,0.12962963,-0.250925912,1,0,0,4.5367,Diorite_rect,3,4.537,0,0,0,0,0,1,,,,,,,,,,,,
5fea7e34e1506a5df25419ec,TCN,2024-06-10_15h17.08.679,LearnStrategy,2023.2.3,Win32,11.99040767,6,1,2,0.011111153,-0.000925947,1,0,0,1.7307,rock_grid_rect_2,8,13,-1,-1,1.731,0.415740826,-0.398148148,1,0,0,2.4051,Pumice_rect,8,2.405,1,1,0,1,0,1,,,,,,,,,,,,
5fea7e34e1506a5df25419ec,TCN,2024-06-10_15h17.08.679,LearnStrategy,2023.2.3,Win32,11.99040767,6,1,3,0.036111125,-0.000925947,1,0,0,3.5232,rock_grid_rect_2,1,11,-1,-1,3.523,0.391666695,-0.249074088,1,0,0,3.1473,Gabbro_rect,4,3.147,0,2,0,2,0,1,,,,,,,,,,,,
5fea7e34e1506a5df25419ec,TCN,2024-06-10_15h17.08.679,LearnStrategy,2023.2.3,Win32,11.99040767,6,1,4,-0.062962921,0.015740748,1,0,0,1.2823,rock_grid_rect_2,7,04,-1,-1,1.282,-0.12962963,-0.398148148,1,0,0,3.4046,Pegmatite_rect,6,3.405,0,3,0,3,0,1,,,,,,,,,,,,
5fea7e34e1506a5df25419ec,TCN,2024-06-10_15h17.08.679,LearnStrategy,2023.2.3,Win32,11.99040767,6,1,5,-0.046296296,-0.002777771,1,0,0,1.5288,rock_grid_rect_2,8,09,-1,-1,1.529,0.430555556,-0.387037065,1,0,0,2.0346,Pumice_rect,8,2.035,1,4,0,4,0,1,,,,,,,,,,,,
5fea7e34e1506a5df25419ec,TCN,2024-06-10_15h17.08.679,LearnStrategy,2023.2.3,Win32,11.99040767,6,1,6,-0.037962949,0.005555541,1,0,0,1.2936,rock_grid_rect_2,4,16,-1,-1,1.294,-0.125925912,-0.249074088,1,0,0,2.1086,Basalt_rect,2,2.109,0,5,0,5,0,1,,,,,,,,,,,,
5fea7e34e1506a5df25419ec,TCN,2024-06-10_15h17.08.679,LearnStrategy,2023.2.3,Win32,11.99040767,6,1,7,-0.104629587,-0.000925947,1,0,0,1.8773,rock_grid_rect_2,3,13,-1,-1,1.877,-0.365740741,-0.248148176,1,0,0,2.3379,Andesite_rect,1,2.338,0,6,0,6,0,1,,,,,,,,,,,,
5fea7e34e1506a5df25419ec,TCN,2024-06-10_15h17.08.679,LearnStrategy,2023.2.3,Win32,11.99040767,6,1,8,-0.020370342,0.012962942,1,0,0,1.3721,rock_grid_rect_2,1,03,-1,-1,1.372,-0.410185178,-0.235185199,1,0,0,3.999,Andesite_rect,1,3.999,1,7,0,7,0,1,,,,,,,,,,,,
5fea7e34e1506a5df25419ec,TCN,2024-06-10_15h17.08.679,LearnStrategy,2023.2.3,Win32,11.99040767,6,1,9,0.051851838,-0.008333347,1,0,0,1.3818,rock_grid_rect_2,4,14,-1,-1,1.382,0.435185185,-0.241666653,1,0,0,2.5109,Gabbro_rect,4,2.511,1,8,0,8,0,1,,,,,,,,,,,,
5fea7e34e1506a5df25419ec,TCN,2024-06-10_15h17.08.679,LearnStrategy,2023.2.3,Win32,11.99040767,6,1,10,0.064814815,-0.013888889,1,0,0,1.2605,rock_grid_rect_2,3,06,-1,-1,1.26,-0.39444443,-0.246296282,1,0,0,4.219,Andesite_rect,1,4.219,0,9,0,9,0,1,,,,,,,,,,,,
5fea7e34e1506a5df25419ec,TCN,2024-06-10_15h17.08.679,LearnStrategy,2023.2.3,Win32,11.99040767,6,1,11,0.092592593,0.008333312,1,0,0,1.5014,rock_grid_rect_2,5,14,-1,-1,1.501,-0.419444437,-0.387037065,1,0,0,1.6031,Obsidian_rect,5,1.603,1,10,0,10,0,1,,,,,,,,,,,,
5fea7e34e1506a5df25419ec,TCN,2024-06-10_15h17.08.679,LearnStrategy,2023.2.3,Win32,11.99040767,6,1,12,-0.015740712,0.010185171,1,0,0,1.0329,rock_grid_rect_2,5,16,-1,-1,1.033,-0.400000007,-0.382407436,1,0,0,1.5591,Obsidian_rect,5,1.559,1,11,0,11,0,1,,,,,,,,,,,,
5fea7e34e1506a5df25419ec,TCN,2024-06-10_15h17.08.679,LearnStrategy,2023.2.3,Win32,11.99040767,6,1,13,-0.005555541,0.015740748,1,0,0,1.8748,rock_grid_rect_2,7,08,-1,-1,1.875,0.12037037,-0.397222236,1,0,0,1.8982,Peridotite_rect,7,1.898,1,12,0,12,0,1,,,,,,,,,,,,
5fea7e34e1506a5df25419ec,TCN,2024-06-10_15h17.08.679,LearnStrategy,2023.2.3,Win32,11.99040767,6,1,14,-0.065740727,-0.012962977,1,0,0,1.3928,rock_grid_rect_2,2,10,-1,-1,1.393,-0.12037037,-0.25,1,0,0,1.7652,Basalt_rect,2,1.765,1,13,0,13,0,1,,,,,,,,,,,,
5fea7e34e1506a5df25419ec,TCN,2024-06-10_15h17.08.679,LearnStrategy,2023.2.3,Win32,11.99040767,6,1,15,-0.020370342,-0.000925947,1,0,0,1.8625,rock_grid_rect_2,2,05,-1,-1,1.862,-0.125,-0.232407393,1,0,0,1.512,Basalt_rect,2,1.512,1,14,0,14,0,1,,,,,,,,,,,,
5fea7e34e1506a5df25419ec,TCN,2024-06-10_15h17.08.679,LearnStrategy,2023.2.3,Win32,11.99040767,6,1,16,0.035185213,-0.01666666,1,0,0,1.6158,rock_grid_rect_2,6,11,-1,-1,1.616,-0.12037037,-0.400925954,1,0,0,2.7592,Pegmatite_rect,6,2.759,1,15,0,15,0,1,,,,,,,,,,,,
5fea7e34e1506a5df25419ec,TCN,2024-06-10_15h17.08.679,LearnStrategy,2023.2.3,Win32,11.99040767,6,2,1,,,,,,,,4,15,,,,,,,,,,,1,4.267,0,,,,,,-0.339814822,-0.23055557,1,0,0,4.2672,Andesite_rect,0,0,0,0,1
5fea7e34e1506a5df25419ec,TCN,2024-06-10_15h17.08.679,LearnStrategy,2023.2.3,Win32,11.99040767,6,2,2,,,,,,,,3,15,,,,,,,,,,,3,2.04,1,,,,,,0.124074088,-0.252777806,1,0,0,2.04,Diorite_rect,1,0,1,0,1
5fea7e34e1506a5df25419ec,TCN,2024-06-10_15h17.08.679,LearnStrategy,2023.2.3,Win32,11.99040767,6,2,3,,,,,,,,1,14,,,,,,,,,,,1,2.357,1,,,,,,-0.430555556,-0.253703718,1,0,0,2.3566,Andesite_rect,2,0,2,0,1
5fea7e34e1506a5df25419ec,TCN,2024-06-10_15h17.08.679,LearnStrategy,2023.2.3,Win32,11.99040767,6,2,4,,,,,,,,8,14,,,,,,,,,,,8,1.956,1,,,,,,0.391666695,-0.39907406,1,0,0,1.9561,Pumice_rect,3,0,3,0,1
5fea7e34e1506a5df25419ec,TCN,2024-06-10_15h17.08.679,LearnStrategy,2023.2.3,Win32,11.99040767,6,2,5,,,,,,,,1,07,,,,,,,,,,,1,3.457,1,,,,,,-0.417592578,-0.246296282,1,0,0,3.4565,Andesite_rect,4,0,4,0,1
5fea7e34e1506a5df25419ec,TCN,2024-06-10_15h17.08.679,LearnStrategy,2023.2.3,Win32,11.99040767,6,2,6,,,,,,,,7,16,,,,,,,,,,,7,3.94,1,,,,,,0.089814857,-0.388888889,1,0,0,3.9405,Peridotite_rect,5,0,5,0,1
5fea7e34e1506a5df25419ec,TCN,2024-06-10_15h17.08.679,LearnStrategy,2023.2.3,Win32,11.99040767,6,2,7,,,,,,,,4,05,,,,,,,,,,,4,2.243,1,,,,,,0.395370342,-0.243518547,1,0,0,2.2425,Gabbro_rect,6,0,6,0,1
5fea7e34e1506a5df25419ec,TCN,2024-06-10_15h17.08.679,LearnStrategy,2023.2.3,Win32,11.99040767,6,2,8,,,,,,,,2,12,,,,,,,,,,,4,4.14,0,,,,,,0.396296325,-0.248148176,1,0,0,4.14,Gabbro_rect,7,0,7,0,1
5fea7e34e1506a5df25419ec,TCN,2024-06-10_15h17.08.679,LearnStrategy,2023.2.3,Win32,11.99040767,6,2,9,,,,,,,,5,10,,,,,,,,,,,5,2.327,1,,,,,,-0.437962956,-0.383333347,1,0,0,2.3274,Obsidian_rect,8,0,8,0,1
5fea7e34e1506a5df25419ec,TCN,2024-06-10_15h17.08.679,LearnStrategy,2023.2.3,Win32,11.99040767,6,2,10,,,,,,,,5,06,,,,,,,,,,,5,1.618,1,,,,,,-0.459259245,-0.405555584,1,0,0,1.6179,Obsidian_rect,9,0,9,0,1
5fea7e34e1506a5df25419ec,TCN,2024-06-10_15h17.08.679,LearnStrategy,2023.2.3,Win32,11.99040767,6,2,11,,,,,,,,3,02,,,,,,,,,,,3,2.853,1,,,,,,0.110185199,-0.250925912,1,0,0,2.8528,Diorite_rect,10,0,10,0,1
5fea7e34e1506a5df25419ec,TCN,2024-06-10_15h17.08.679,LearnStrategy,2023.2.3,Win32,11.99040767,6,2,12,,,,,,,,6,10,,,,,,,,,,,7,1.997,0,,,,,,0.08148151,-0.415740755,1,0,0,1.9974,Peridotite_rect,11,0,11,0,1
5fea7e34e1506a5df25419ec,TCN,2024-06-10_15h17.08.679,LearnStrategy,2023.2.3,Win32,11.99040767,6,2,13,,,,,,,,7,10,,,,,,,,,,,7,1.282,1,,,,,,0.086111139,-0.387962977,1,0,0,1.2822,Peridotite_rect,12,0,12,0,1
5fea7e34e1506a5df25419ec,TCN,2024-06-10_15h17.08.679,LearnStrategy,2023.2.3,Win32,11.99040767,6,2,14,,,,,,,,6,16,,,,,,,,,,,1,7.9,0,,,,,,-0.384259259,-0.251851894,1,0,0,7.9,Andesite_rect,13,0,13,0,1
5fea7e34e1506a5df25419ec,TCN,2024-06-10_15h17.08.679,LearnStrategy,2023.2.3,Win32,11.99040767,6,2,15,,,,,,,,8,06,,,,,,,,,,,8,1.999,1,,,,,,0.387963048,-0.389814801,1,0,0,1.9986,Pumice_rect,14,0,14,0,1
5fea7e34e1506a5df25419ec,TCN,2024-06-10_15h17.08.679,LearnStrategy,2023.2.3,Win32,11.99040767,6,2,16,,,,,,,,2,08,,,,,,,,,,,2,1.869,1,,,,,,-0.114814829,-0.250925912,1,0,0,1.869,Basalt_rect,15,0,15,0,1
5fea7e34e1506a5df25419ec,TCN,2024-06-10_15h17.08.679,LearnStrategy,2023.2.3,Win32,11.99040767,7,1,1,0.016666695,-0.0074074,1,0,0,1.2543,rock_grid_rect_2,1,11,-1,-1,1.254,0.426851908,-0.232407393,1,0,0,5.1269,Gabbro_rect,4,5.127,0,0,0,0,0,1,,,,,,,,,,,,
5fea7e34e1506a5df25419ec,TCN,2024-06-10_15h17.08.679,LearnStrategy,2023.2.3,Win32,11.99040767,7,1,2,-0.000925912,-0.017592607,1,0,0,1.3596,rock_grid_rect_2,3,14,-1,-1,1.36,0.117592635,-0.243518547,1,0,0,1.6795,Diorite_rect,3,1.679,1,1,0,1,0,1,,,,,,,,,,,,
5fea7e34e1506a5df25419ec,TCN,2024-06-10_15h17.08.679,LearnStrategy,2023.2.3,Win32,11.99040767,7,1,3,-0.042592578,-0.006481489,1,0,0,2.5968,rock_grid_rect_2,7,06,-1,-1,2.597,0.150925954,-0.407407407,1,0,0,1.7666,Peridotite_rect,7,1.767,1,2,0,2,0,1,,,,,,,,,,,,
5fea7e34e1506a5df25419ec,TCN,2024-06-10_15h17.08.679,LearnStrategy,2023.2.3,Win32,11.99040767,7,1,4,0.013888889,-0.000925947,1,0,0,2.8823,rock_grid_rect_2,5,09,-1,-1,2.882,-0.407407407,-0.40370369,1,0,0,2.231,Obsidian_rect,5,2.231,1,3,0,3,0,1,,,,,,,,,,,,
5fea7e34e1506a5df25419ec,TCN,2024-06-10_15h17.08.679,LearnStrategy,2023.2.3,Win32,11.99040767,7,1,5,-0.027777778,-0.013888889,1,0,0,1.8925,rock_grid_rect_2,8,10,-1,-1,1.892,0.389814871,-0.410185213,1,0,0,1.7351,Pumice_rect,8,1.735,1,4,0,4,0,1,,,,,,,,,,,,
5fea7e34e1506a5df25419ec,TCN,2024-06-10_15h17.08.679,LearnStrategy,2023.2.3,Win32,11.99040767,7,1,6,-0.037037037,-0.002777771,1,0,0,2.436,rock_grid_rect_2,4,11,-1,-1,2.436,0.41851849,-0.248148176,1,0,0,3.9254,Gabbro_rect,4,3.925,1,5,0,5,0,1,,,,,,,,,,,,
5fea7e34e1506a5df25419ec,TCN,2024-06-10_15h17.08.679,LearnStrategy,2023.2.3,Win32,11.99040767,7,1,7,-0.050925926,-0.008333347,1,0,0,1.1369,rock_grid_rect_2,5,16,-1,-1,1.137,-0.395370377,-0.384259259,1,0,0,1.6643,Obsidian_rect,5,1.664,1,6,0,6,0,1,,,,,,,,,,,,
5fea7e34e1506a5df25419ec,TCN,2024-06-10_15h17.08.679,LearnStrategy,2023.2.3,Win32,11.99040767,7,1,8,-0.042592578,-0.005555577,1,0,0,1.7603,rock_grid_rect_2,1,04,-1,-1,1.76,-0.39444443,-0.243518547,1,0,0,5.1726,Andesite_rect,1,5.173,1,7,0,7,0,1,,,,,,,,,,,,
5fea7e34e1506a5df25419ec,TCN,2024-06-10_15h17.08.679,LearnStrategy,2023.2.3,Win32,11.99040767,7,1,9,-0.020370342,-0.021296289,1,0,0,1.4218,rock_grid_rect_2,6,11,-1,-1,1.422,-0.123148106,-0.384259259,1,0,0,1.6123,Pegmatite_rect,6,1.612,1,8,0,8,0,1,,,,,,,,,,,,
5fea7e34e1506a5df25419ec,TCN,2024-06-10_15h17.08.679,LearnStrategy,2023.2.3,Win32,11.99040767,7,1,10,-0.035185143,0.01944443,1,0,0,1.4227,rock_grid_rect_2,2,14,-1,-1,1.423,0.441666638,-0.246296282,1,0,0,5.5514,Gabbro_rect,4,5.551,0,9,0,9,0,1,,,,,,,,,,,,
5fea7e34e1506a5df25419ec,TCN,2024-06-10_15h17.08.679,LearnStrategy,2023.2.3,Win32,11.99040767,7,1,11,0.046296296,0.011111118,1,0,0,1.6488,rock_grid_rect_2,8,02,-1,-1,1.649,0.388888889,-0.416666667,1,0,0,1.6075,Pumice_rect,8,1.608,1,10,0,10,0,1,,,,,,,,,,,,
5fea7e34e1506a5df25419ec,TCN,2024-06-10_15h17.08.679,LearnStrategy,2023.2.3,Win32,11.99040767,7,1,12,-0.095370328,-0.000925947,1,0,0,1.1305,rock_grid_rect_2,7,07,-1,-1,1.13,0.111111111,-0.393518519,1,0,0,1.6413,Peridotite_rect,7,1.641,1,11,0,11,0,1,,,,,,,,,,,,
5fea7e34e1506a5df25419ec,TCN,2024-06-10_15h17.08.679,LearnStrategy,2023.2.3,Win32,11.99040767,7,1,13,0.037962949,0.020370377,1,0,0,1.7506,rock_grid_rect_2,3,16,-1,-1,1.751,0.07222225,-0.251851894,1,0,0,1.8477,Diorite_rect,3,1.848,1,12,0,12,0,1,,,,,,,,,,,,
5fea7e34e1506a5df25419ec,TCN,2024-06-10_15h17.08.679,LearnStrategy,2023.2.3,Win32,11.99040767,7,1,14,-0.005555541,0.010185171,1,0,0,1.6375,rock_grid_rect_2,4,08,-1,-1,1.638,0.396296325,-0.237037023,1,0,0,2.9333,Gabbro_rect,4,2.933,1,13,0,13,0,1,,,,,,,,,,,,
5fea7e34e1506a5df25419ec,TCN,2024-06-10_15h17.08.679,LearnStrategy,2023.2.3,Win32,11.99040767,7,1,15,0.039814843,0.015740748,1,0,0,1.4085,rock_grid_rect_2,2,10,-1,-1,1.409,-0.136111083,-0.25,1,0,0,1.6074,Basalt_rect,2,1.607,1,14,0,14,0,1,,,,,,,,,,,,
5fea7e34e1506a5df25419ec,TCN,2024-06-10_15h17.08.679,LearnStrategy,2023.2.3,Win32,11.99040767,7,1,16,0.027777778,-0.003703718,1,0,0,1.226,rock_grid_rect_2,6,15,-1,-1,1.226,-0.162037037,-0.397222236,1,0,0,2.0167,Pegmatite_rect,6,2.017,1,15,0,15,0,1,,,,,,,,,,,,
5fea7e34e1506a5df25419ec,TCN,2024-06-10_15h17.08.679,LearnStrategy,2023.2.3,Win32,11.99040767,7,2,1,,,,,,,,1,14,,,,,,,,,,,1,6.693,1,,,,,,-0.390740748,-0.258333347,1,0,0,6.6925,Andesite_rect,0,0,0,0,1
5fea7e34e1506a5df25419ec,TCN,2024-06-10_15h17.08.679,LearnStrategy,2023.2.3,Win32,11.99040767,7,2,2,,,,,,,,7,10,,,,,,,,,,,7,1.64,1,,,,,,0.130555541,-0.395370413,1,0,0,1.6399,Peridotite_rect,1,0,1,0,1
5fea7e34e1506a5df25419ec,TCN,2024-06-10_15h17.08.679,LearnStrategy,2023.2.3,Win32,11.99040767,7,2,3,,,,,,,,1,07,,,,,,,,,,,1,4.453,1,,,,,,-0.421296296,-0.232407393,1,0,0,4.4534,Andesite_rect,2,0,2,0,1
5fea7e34e1506a5df25419ec,TCN,2024-06-10_15h17.08.679,LearnStrategy,2023.2.3,Win32,11.99040767,7,2,4,,,,,,,,2,02,,,,,,,,,,,2,1.942,1,,,,,,-0.127777735,-0.258333347,1,0,0,1.9424,Basalt_rect,3,0,3,0,1
5fea7e34e1506a5df25419ec,TCN,2024-06-10_15h17.08.679,LearnStrategy,2023.2.3,Win32,11.99040767,7,2,5,,,,,,,,2,08,,,,,,,,,,,2,6.21,1,,,,,,-0.113888847,-0.248148176,1,0,0,6.2098,Basalt_rect,4,0,4,0,1
5fea7e34e1506a5df25419ec,TCN,2024-06-10_15h17.08.679,LearnStrategy,2023.2.3,Win32,11.99040767,7,2,6,,,,,,,,5,07,,,,,,,,,,,5,2.577,1,,,,,,-0.405555548,-0.413888931,1,0,0,2.5773,Obsidian_rect,5,0,5,0,1
5fea7e34e1506a5df25419ec,TCN,2024-06-10_15h17.08.679,LearnStrategy,2023.2.3,Win32,11.99040767,7,2,7,,,,,,,,5,10,,,,,,,,,,,5,1.934,1,,,,,,-0.39166666,-0.396296325,1,0,0,1.9337,Obsidian_rect,6,0,6,0,1
5fea7e34e1506a5df25419ec,TCN,2024-06-10_15h17.08.679,LearnStrategy,2023.2.3,Win32,11.99040767,7,2,8,,,,,,,,4,09,,,,,,,,,,,4,2.738,1,,,,,,0.356481481,-0.241666653,1,0,0,2.7377,Gabbro_rect,7,0,7,0,1
5fea7e34e1506a5df25419ec,TCN,2024-06-10_15h17.08.679,LearnStrategy,2023.2.3,Win32,11.99040767,7,2,9,,,,,,,,6,10,,,,,,,,,,,7,1.743,0,,,,,,0.128703718,-0.401851866,1,0,0,1.7429,Peridotite_rect,8,0,8,0,1
5fea7e34e1506a5df25419ec,TCN,2024-06-10_15h17.08.679,LearnStrategy,2023.2.3,Win32,11.99040767,7,2,10,,,,,,,,4,05,,,,,,,,,,,6,6.038,0,,,,,,-0.108333305,-0.392592607,1,0,0,6.0384,Pegmatite_rect,9,0,9,0,1
5fea7e34e1506a5df25419ec,TCN,2024-06-10_15h17.08.679,LearnStrategy,2023.2.3,Win32,11.99040767,7,2,11,,,,,,,,8,06,,,,,,,,,,,8,1.463,1,,,,,,0.45648151,-0.385185171,1,0,0,1.4626,Pumice_rect,10,0,10,0,1
5fea7e34e1506a5df25419ec,TCN,2024-06-10_15h17.08.679,LearnStrategy,2023.2.3,Win32,11.99040767,7,2,12,,,,,,,,3,11,,,,,,,,,,,1,5.797,0,,,,,,-0.414814808,-0.249074088,1,0,0,5.7965,Andesite_rect,11,0,11,0,1
5fea7e34e1506a5df25419ec,TCN,2024-06-10_15h17.08.679,LearnStrategy,2023.2.3,Win32,11.99040767,7,2,13,,,,,,,,6,03,,,,,,,,,,,6,3.821,1,,,,,,-0.140740712,-0.39907406,1,0,0,3.8209,Pegmatite_rect,12,0,12,0,1
5fea7e34e1506a5df25419ec,TCN,2024-06-10_15h17.08.679,LearnStrategy,2023.2.3,Win32,11.99040767,7,2,14,,,,,,,,7,13,,,,,,,,,,,7,1.649,1,,,,,,0.158333319,-0.390740783,1,0,0,1.6491,Peridotite_rect,13,0,13,0,1
5fea7e34e1506a5df25419ec,TCN,2024-06-10_15h17.08.679,LearnStrategy,2023.2.3,Win32,11.99040767,7,2,15,,,,,,,,8,15,,,,,,,,,,,8,2.71,1,,,,,,0.425925926,-0.37962963,1,0,0,2.7101,Pumice_rect,14,0,14,0,1
5fea7e34e1506a5df25419ec,TCN,2024-06-10_15h17.08.679,LearnStrategy,2023.2.3,Win32,11.99040767,7,2,16,,,,,,,,3,15,,,,,,,,,,,3,2.154,1,,,,,,0.125925912,-0.239814829,1,0,0,2.154,Diorite_rect,15,0,15,0,1
5fea7e34e1506a5df25419ec,TCN,2024-06-10_15h17.08.679,LearnStrategy,2023.2.3,Win32,11.99040767,8,1,1,-0.075925898,0.009259259,1,0,0,1.2451,rock_grid_rect_2,6,09,-1,-1,1.245,-0.12037037,-0.416666667,1,0,0,1.7216,Pegmatite_rect,6,1.722,1,0,0,0,0,1,,,,,,,,,,,,
5fea7e34e1506a5df25419ec,TCN,2024-06-10_15h17.08.679,LearnStrategy,2023.2.3,Win32,11.99040767,8,1,2,-0.056481467,0.003703683,1,0,0,2.1145,rock_grid_rect_2,4,01,-1,-1,2.114,0.411111196,-0.248148176,1,0,0,2.1785,Gabbro_rect,4,2.178,1,1,0,1,0,1,,,,,,,,,,,,
5fea7e34e1506a5df25419ec,TCN,2024-06-10_15h17.08.679,LearnStrategy,2023.2.3,Win32,11.99040767,8,1,3,-0.012036995,0.003703683,1,0,0,3.6239,rock_grid_rect_2,1,01,-1,-1,3.624,0.396296325,-0.239814829,1,0,0,3.276,Gabbro_rect,4,3.276,0,2,0,2,0,1,,,,,,,,,,,,
5fea7e34e1506a5df25419ec,TCN,2024-06-10_15h17.08.679,LearnStrategy,2023.2.3,Win32,11.99040767,8,1,4,0.086111139,-0.003703718,1,0,0,1.122,rock_grid_rect_2,8,13,-1,-1,1.122,0.110185199,-0.242592635,1,0,0,4.298,Diorite_rect,3,4.298,0,3,0,3,0,1,,,,,,,,,,,,
5fea7e34e1506a5df25419ec,TCN,2024-06-10_15h17.08.679,LearnStrategy,2023.2.3,Win32,11.99040767,8,1,5,0.039814843,0.005555541,1,0,0,1.982,rock_grid_rect_2,5,08,-1,-1,1.982,-0.418518526,-0.39444443,1,0,0,3.4205,Obsidian_rect,5,3.42,1,4,0,4,0,1,,,,,,,,,,,,
5fea7e34e1506a5df25419ec,TCN,2024-06-10_15h17.08.679,LearnStrategy,2023.2.3,Win32,11.99040767,8,1,6,-0.037962949,-0.000925947,1,0,0,1.3787,rock_grid_rect_2,3,13,-1,-1,1.379,0.118518547,-0.248148176,1,0,0,2.1341,Diorite_rect,3,2.134,1,5,0,5,0,1,,,,,,,,,,,,
5fea7e34e1506a5df25419ec,TCN,2024-06-10_15h17.08.679,LearnStrategy,2023.2.3,Win32,11.99040767,8,1,7,-0.015740712,0.01203703,1,0,0,1.3401,rock_grid_rect_2,5,04,-1,-1,1.34,-0.400000007,-0.398148148,1,0,0,3.7763,Obsidian_rect,5,3.776,1,6,0,6,0,1,,,,,,,,,,,,
5fea7e34e1506a5df25419ec,TCN,2024-06-10_15h17.08.679,LearnStrategy,2023.2.3,Win32,11.99040767,8,1,8,0.05277782,0.012962942,1,0,0,1.7084,rock_grid_rect_2,4,12,-1,-1,1.708,-0.142592607,-0.257407436,1,0,0,1.6082,Basalt_rect,2,1.608,0,7,0,7,0,1,,,,,,,,,,,,
5fea7e34e1506a5df25419ec,TCN,2024-06-10_15h17.08.679,LearnStrategy,2023.2.3,Win32,11.99040767,8,1,9,-0.094444416,0.022222201,1,0,0,2.0982,rock_grid_rect_2,2,09,-1,-1,2.098,-0.12962963,-0.250925912,1,0,0,1.6288,Basalt_rect,2,1.629,1,8,0,8,0,1,,,,,,,,,,,,
5fea7e34e1506a5df25419ec,TCN,2024-06-10_15h17.08.679,LearnStrategy,2023.2.3,Win32,11.99040767,8,1,10,-0.04814812,0.00462963,1,0,0,1.6437,rock_grid_rect_2,2,05,-1,-1,1.644,-0.159259231,-0.253703718,1,0,0,2.1274,Basalt_rect,2,2.127,1,9,0,9,0,1,,,,,,,,,,,,
5fea7e34e1506a5df25419ec,TCN,2024-06-10_15h17.08.679,LearnStrategy,2023.2.3,Win32,11.99040767,8,1,11,-0.059259273,0.017592571,1,0,0,1.4713,rock_grid_rect_2,7,02,-1,-1,1.471,0.12037037,-0.392592607,1,0,0,2.3175,Peridotite_rect,7,2.317,1,10,0,10,0,1,,,,,,,,,,,,
5fea7e34e1506a5df25419ec,TCN,2024-06-10_15h17.08.679,LearnStrategy,2023.2.3,Win32,11.99040767,8,1,12,0.000925912,0,1,0,0,2.1649,rock_grid_rect_2,8,09,-1,-1,2.165,0.363888917,-0.401851866,1,0,0,2.0319,Pumice_rect,8,2.032,1,11,0,11,0,1,,,,,,,,,,,,
5fea7e34e1506a5df25419ec,TCN,2024-06-10_15h17.08.679,LearnStrategy,2023.2.3,Win32,11.99040767,8,1,13,-0.038888861,0.005555541,1,0,0,1.5984,rock_grid_rect_2,7,12,-1,-1,1.598,0.111111111,-0.396296325,1,0,0,1.9096,Peridotite_rect,7,1.91,1,12,0,12,0,1,,,,,,,,,,,,
5fea7e34e1506a5df25419ec,TCN,2024-06-10_15h17.08.679,LearnStrategy,2023.2.3,Win32,11.99040767,8,1,14,-0.011111083,0.00462963,1,0,0,1.4112,rock_grid_rect_2,1,16,-1,-1,1.411,-0.366666653,-0.248148176,1,0,0,3.9512,Andesite_rect,1,3.951,1,13,0,13,0,1,,,,,,,,,,,,
5fea7e34e1506a5df25419ec,TCN,2024-06-10_15h17.08.679,LearnStrategy,2023.2.3,Win32,11.99040767,8,1,15,0.037962949,0.014814801,1,0,0,1.1325,rock_grid_rect_2,6,05,-1,-1,1.133,0.157407407,-0.237037023,1,0,0,1.3804,Diorite_rect,3,1.38,0,14,0,14,0,1,,,,,,,,,,,,
5fea7e34e1506a5df25419ec,TCN,2024-06-10_15h17.08.679,LearnStrategy,2023.2.3,Win32,11.99040767,8,1,16,-0.058333291,-0.010185206,1,0,0,1.3609,rock_grid_rect_2,3,08,-1,-1,1.361,0.08148151,-0.244444459,1,0,0,1.3804,Diorite_rect,3,1.38,1,15,0,15,0,1,,,,,,,,,,,,
5fea7e34e1506a5df25419ec,TCN,2024-06-10_15h17.08.679,LearnStrategy,2023.2.3,Win32,11.99040767,8,2,1,,,,,,,,7,14,,,,,,,,,,,7,1.671,1,,,,,,0.134259259,-0.409259302,1,0,0,1.6706,Peridotite_rect,0,0,0,0,1
5fea7e34e1506a5df25419ec,TCN,2024-06-10_15h17.08.679,LearnStrategy,2023.2.3,Win32,11.99040767,8,2,2,,,,,,,,1,02,,,,,,,,,,,1,2.218,1,,,,,,-0.410185178,-0.238888917,1,0,0,2.2182,Andesite_rect,1,0,1,0,1
5fea7e34e1506a5df25419ec,TCN,2024-06-10_15h17.08.679,LearnStrategy,2023.2.3,Win32,11.99040767,8,2,3,,,,,,,,3,02,,,,,,,,,,,3,2.329,1,,,,,,0.12962963,-0.240740741,1,0,0,2.3292,Diorite_rect,2,0,2,0,1
5fea7e34e1506a5df25419ec,TCN,2024-06-10_15h17.08.679,LearnStrategy,2023.2.3,Win32,11.99040767,8,2,4,,,,,,,,6,13,,,,,,,,,,,6,4.464,1,,,,,,-0.134259259,-0.397222236,1,0,0,4.4637,Pegmatite_rect,3,0,3,0,1
5fea7e34e1506a5df25419ec,TCN,2024-06-10_15h17.08.679,LearnStrategy,2023.2.3,Win32,11.99040767,8,2,5,,,,,,,,2,16,,,,,,,,,,,4,5.783,0,,,,,,0.401851937,-0.244444459,1,0,0,5.7827,Gabbro_rect,4,0,4,0,1
5fea7e34e1506a5df25419ec,TCN,2024-06-10_15h17.08.679,LearnStrategy,2023.2.3,Win32,11.99040767,8,2,6,,,,,,,,7,15,,,,,,,,,,,7,1.54,1,,,,,,0.121296282,-0.391666695,1,0,0,1.5398,Peridotite_rect,5,0,5,0,1
5fea7e34e1506a5df25419ec,TCN,2024-06-10_15h17.08.679,LearnStrategy,2023.2.3,Win32,11.99040767,8,2,7,,,,,,,,8,05,,,,,,,,,,,8,2.453,1,,,,,,0.419444473,-0.396296325,1,0,0,2.4525,Pumice_rect,6,0,6,0,1
5fea7e34e1506a5df25419ec,TCN,2024-06-10_15h17.08.679,LearnStrategy,2023.2.3,Win32,11.99040767,8,2,8,,,,,,,,4,15,,,,,,,,,,,1,5.892,0,,,,,,-0.398148148,-0.242592635,1,0,0,5.8919,Andesite_rect,7,0,7,0,1
5fea7e34e1506a5df25419ec,TCN,2024-06-10_15h17.08.679,LearnStrategy,2023.2.3,Win32,11.99040767,8,2,9,,,,,,,,6,12,,,,,,,,,,,3,1.792,0,,,,,,0.102777764,-0.241666653,1,0,0,1.7924,Diorite_rect,8,0,8,0,1
5fea7e34e1506a5df25419ec,TCN,2024-06-10_15h17.08.679,LearnStrategy,2023.2.3,Win32,11.99040767,8,2,10,,,,,,,,1,09,,,,,,,,,,,4,2.487,0,,,,,,0.425925926,-0.255555541,1,0,0,2.487,Gabbro_rect,9,0,9,0,1
5fea7e34e1506a5df25419ec,TCN,2024-06-10_15h17.08.679,LearnStrategy,2023.2.3,Win32,11.99040767,8,2,11,,,,,,,,4,13,,,,,,,,,,,6,2.975,0,,,,,,-0.134259259,-0.382407436,1,0,0,2.975,Pegmatite_rect,10,0,10,0,1
5fea7e34e1506a5df25419ec,TCN,2024-06-10_15h17.08.679,LearnStrategy,2023.2.3,Win32,11.99040767,8,2,12,,,,,,,,3,07,,,,,,,,,,,3,2.111,1,,,,,,0.095370399,-0.23055557,1,0,0,2.111,Diorite_rect,11,0,11,0,1
5fea7e34e1506a5df25419ec,TCN,2024-06-10_15h17.08.679,LearnStrategy,2023.2.3,Win32,11.99040767,8,2,13,,,,,,,,8,16,,,,,,,,,,,4,3.692,0,,,,,,0.433333362,-0.239814829,1,0,0,3.6918,Gabbro_rect,12,0,12,0,1
5fea7e34e1506a5df25419ec,TCN,2024-06-10_15h17.08.679,LearnStrategy,2023.2.3,Win32,11.99040767,8,2,14,,,,,,,,5,11,,,,,,,,,,,5,2.318,1,,,,,,-0.37037037,-0.384259259,1,0,0,2.3184,Obsidian_rect,13,0,13,0,1
5fea7e34e1506a5df25419ec,TCN,2024-06-10_15h17.08.679,LearnStrategy,2023.2.3,Win32,11.99040767,8,2,15,,,,,,,,2,11,,,,,,,,,,,4,2.896,0,,,,,,0.351851852,-0.250925912,1,0,0,2.896,Gabbro_rect,14,0,14,0,1
5fea7e34e1506a5df25419ec,TCN,2024-06-10_15h17.08.679,LearnStrategy,2023.2.3,Win32,11.99040767,8,2,16,,,,,,,,5,05,,,,,,,,,,,5,2.34,1,,,,,,-0.386111118,-0.385185171,1,0,0,2.3404,Obsidian_rect,15,0,15,0,1
5fea7e34e1506a5df25419ec,TCN,2024-06-10_15h17.08.679,LearnStrategy,2023.2.3,Win32,11.99040767,9,1,1,0.047222208,0.009259259,1,0,0,1.3747,rock_grid_rect_2,2,01,-1,-1,1.375,-0.112962935,-0.236111111,1,0,0,2.0061,Basalt_rect,2,2.006,1,0,0,0,0,1,,,,,,,,,,,,
5fea7e34e1506a5df25419ec,TCN,2024-06-10_15h17.08.679,LearnStrategy,2023.2.3,Win32,11.99040767,9,1,2,0.043518561,-0.003703718,1,0,0,1.4927,rock_grid_rect_2,7,04,-1,-1,1.493,-0.12962963,-0.406481496,1,0,0,2.3248,Pegmatite_rect,6,2.325,0,1,0,1,0,1,,,,,,,,,,,,
5fea7e34e1506a5df25419ec,TCN,2024-06-10_15h17.08.679,LearnStrategy,2023.2.3,Win32,11.99040767,9,1,3,0.038888931,-0.01666666,1,0,0,1.68,rock_grid_rect_2,4,14,-1,-1,1.68,0.422222279,-0.240740741,1,0,0,3.4662,Gabbro_rect,4,3.466,1,2,0,2,0,1,,,,,,,,,,,,
5fea7e34e1506a5df25419ec,TCN,2024-06-10_15h17.08.679,LearnStrategy,2023.2.3,Win32,11.99040767,9,1,4,0.101851852,0.008333312,1,0,0,1.6102,rock_grid_rect_2,6,08,-1,-1,1.61,-0.150925884,-0.411111125,1,0,0,1.5904,Pegmatite_rect,6,1.59,1,3,0,3,0,1,,,,,,,,,,,,
5fea7e34e1506a5df25419ec,TCN,2024-06-10_15h17.08.679,LearnStrategy,2023.2.3,Win32,11.99040767,9,1,5,0.053703732,0.022222201,1,0,0,1.3772,rock_grid_rect_2,2,04,-1,-1,1.377,-0.127777735,-0.262037065,1,0,0,1.4551,Basalt_rect,2,1.455,1,4,0,4,0,1,,,,,,,,,,,,
5fea7e34e1506a5df25419ec,TCN,2024-06-10_15h17.08.679,LearnStrategy,2023.2.3,Win32,11.99040767,9,1,6,0.002777806,-0.005555577,1,0,0,1.0119,rock_grid_rect_2,8,04,-1,-1,1.012,0.40833339,-0.401851866,1,0,0,1.5997,Pumice_rect,8,1.6,1,5,0,5,0,1,,,,,,,,,,,,
5fea7e34e1506a5df25419ec,TCN,2024-06-10_15h17.08.679,LearnStrategy,2023.2.3,Win32,11.99040767,9,1,7,-0.002777735,-0.010185206,1,0,0,1.473,rock_grid_rect_2,7,08,-1,-1,1.473,0.112037023,-0.396296325,1,0,0,1.4302,Peridotite_rect,7,1.43,1,6,0,6,0,1,,,,,,,,,,,,
5fea7e34e1506a5df25419ec,TCN,2024-06-10_15h17.08.679,LearnStrategy,2023.2.3,Win32,11.99040767,9,1,8,-0.058333291,-0.005555577,1,0,0,1.0006,rock_grid_rect_2,5,14,-1,-1,1.001,-0.416666667,-0.382407436,1,0,0,1.7245,Obsidian_rect,5,1.725,1,7,0,7,0,1,,,,,,,,,,,,
5fea7e34e1506a5df25419ec,TCN,2024-06-10_15h17.08.679,LearnStrategy,2023.2.3,Win32,11.99040767,9,1,9,-0.029629601,0.00462963,1,0,0,2.6115,rock_grid_rect_2,1,10,-1,-1,2.611,-0.39907406,-0.243518547,1,0,0,3.3656,Andesite_rect,1,3.366,1,8,0,8,0,1,,,,,,,,,,,,
5fea7e34e1506a5df25419ec,TCN,2024-06-10_15h17.08.679,LearnStrategy,2023.2.3,Win32,11.99040767,9,1,10,-0.024999972,-0.008333347,1,0,0,1.6291,rock_grid_rect_2,8,08,-1,-1,1.629,0.387037065,-0.395370413,1,0,0,2.4355,Pumice_rect,8,2.436,1,9,0,9,0,1,,,,,,,,,,,,
5fea7e34e1506a5df25419ec,TCN,2024-06-10_15h17.08.679,LearnStrategy,2023.2.3,Win32,11.99040767,9,1,11,0.008333347,0.00462963,1,0,0,1.3642,rock_grid_rect_2,1,03,-1,-1,1.364,-0.407407407,-0.251851894,1,0,0,3.6755,Andesite_rect,1,3.676,1,10,0,10,0,1,,,,,,,,,,,,
5fea7e34e1506a5df25419ec,TCN,2024-06-10_15h17.08.679,LearnStrategy,2023.2.3,Win32,11.99040767,9,1,12,0,-0.003703718,1,0,0,1.5059,rock_grid_rect_2,4,16,-1,-1,1.506,0.460185157,-0.262037065,1,0,0,1.7544,Gabbro_rect,4,1.754,1,11,0,11,0,1,,,,,,,,,,,,
5fea7e34e1506a5df25419ec,TCN,2024-06-10_15h17.08.679,LearnStrategy,2023.2.3,Win32,11.99040767,9,1,13,-0.00462963,-0.006481489,1,0,0,1.3967,rock_grid_rect_2,3,09,-1,-1,1.397,0.14444443,-0.238888917,1,0,0,1.3612,Diorite_rect,3,1.361,1,12,0,12,0,1,,,,,,,,,,,,
5fea7e34e1506a5df25419ec,TCN,2024-06-10_15h17.08.679,LearnStrategy,2023.2.3,Win32,11.99040767,9,1,14,-0.016666624,-0.010185206,1,0,0,1.6077,rock_grid_rect_2,5,02,-1,-1,1.608,-0.400000007,-0.392592607,1,0,0,1.7049,Obsidian_rect,5,1.705,1,13,0,13,0,1,,,,,,,,,,,,
5fea7e34e1506a5df25419ec,TCN,2024-06-10_15h17.08.679,LearnStrategy,2023.2.3,Win32,11.99040767,9,1,15,-0.023148148,-0.006481489,1,0,0,1.2936,rock_grid_rect_2,3,06,-1,-1,1.294,0.14907406,-0.234259288,1,0,0,1.5598,Diorite_rect,3,1.56,1,14,0,14,0,1,,,,,,,,,,,,
5fea7e34e1506a5df25419ec,TCN,2024-06-10_15h17.08.679,LearnStrategy,2023.2.3,Win32,11.99040767,9,1,16,0.036111125,0.002777771,1,0,0,1.0638,rock_grid_rect_2,6,06,-1,-1,1.064,-0.113888847,-0.391666695,1,0,0,3.3478,Pegmatite_rect,6,3.348,1,15,0,15,0,1,,,,,,,,,,,,
5fea7e34e1506a5df25419ec,TCN,2024-06-10_15h17.08.679,LearnStrategy,2023.2.3,Win32,11.99040767,9,2,1,,,,,,,,1,05,,,,,,,,,,,1,22.77,1,,,,,,-0.398148148,-0.246296282,1,0,0,22.7695,Andesite_rect,0,0,0,0,1
5fea7e34e1506a5df25419ec,TCN,2024-06-10_15h17.08.679,LearnStrategy,2023.2.3,Win32,11.99040767,9,2,2,,,,,,,,1,06,,,,,,,,,,,1,3.582,1,,,,,,-0.40370369,-0.243518547,1,0,0,3.5822,Andesite_rect,1,0,1,0,1
5fea7e34e1506a5df25419ec,TCN,2024-06-10_15h17.08.679,LearnStrategy,2023.2.3,Win32,11.99040767,9,2,3,,,,,,,,4,10,,,,,,,,,,,4,3.484,1,,,,,,0.404629601,-0.242592635,1,0,0,3.4842,Gabbro_rect,2,0,2,0,1
5fea7e34e1506a5df25419ec,TCN,2024-06-10_15h17.08.679,LearnStrategy,2023.2.3,Win32,11.99040767,9,2,4,,,,,,,,8,14,,,,,,,,,,,8,1.699,1,,,,,,0.398148148,-0.412962949,1,0,0,1.6992,Pumice_rect,3,0,3,0,1
5fea7e34e1506a5df25419ec,TCN,2024-06-10_15h17.08.679,LearnStrategy,2023.2.3,Win32,11.99040767,9,2,5,,,,,,,,7,16,,,,,,,,,,,7,2.201,1,,,,,,0.150925954,-0.413888931,1,0,0,2.2014,Peridotite_rect,4,0,4,0,1
5fea7e34e1506a5df25419ec,TCN,2024-06-10_15h17.08.679,LearnStrategy,2023.2.3,Win32,11.99040767,9,2,6,,,,,,,,5,12,,,,,,,,,,,5,2.288,1,,,,,,-0.432407414,-0.39907406,1,0,0,2.2884,Obsidian_rect,5,0,5,0,1
5fea7e34e1506a5df25419ec,TCN,2024-06-10_15h17.08.679,LearnStrategy,2023.2.3,Win32,11.99040767,9,2,7,,,,,,,,2,06,,,,,,,,,,,2,2.81,1,,,,,,-0.136111083,-0.250925912,1,0,0,2.8097,Basalt_rect,6,0,6,0,1
5fea7e34e1506a5df25419ec,TCN,2024-06-10_15h17.08.679,LearnStrategy,2023.2.3,Win32,11.99040767,9,2,8,,,,,,,,8,03,,,,,,,,,,,8,2.086,1,,,,,,0.395370342,-0.39907406,1,0,0,2.0864,Pumice_rect,7,0,7,0,1
5fea7e34e1506a5df25419ec,TCN,2024-06-10_15h17.08.679,LearnStrategy,2023.2.3,Win32,11.99040767,9,2,9,,,,,,,,7,05,,,,,,,,,,,7,1.924,1,,,,,,0.141666695,-0.387037065,1,0,0,1.9239,Peridotite_rect,8,0,8,0,1
5fea7e34e1506a5df25419ec,TCN,2024-06-10_15h17.08.679,LearnStrategy,2023.2.3,Win32,11.99040767,9,2,10,,,,,,,,5,06,,,,,,,,,,,5,1.63,1,,,,,,-0.421296296,-0.405555584,1,0,0,1.63,Obsidian_rect,9,0,9,0,1
5fea7e34e1506a5df25419ec,TCN,2024-06-10_15h17.08.679,LearnStrategy,2023.2.3,Win32,11.99040767,9,2,11,,,,,,,,6,16,,,,,,,,,,,6,3.368,1,,,,,,-0.09629631,-0.39907406,1,0,0,3.3684,Pegmatite_rect,10,0,10,0,1
5fea7e34e1506a5df25419ec,TCN,2024-06-10_15h17.08.679,LearnStrategy,2023.2.3,Win32,11.99040767,9,2,12,,,,,,,,2,12,,,,,,,,,,,1,3.009,0,,,,,,-0.389814801,-0.23055557,1,0,0,3.009,Andesite_rect,11,0,11,0,1
5fea7e34e1506a5df25419ec,TCN,2024-06-10_15h17.08.679,LearnStrategy,2023.2.3,Win32,11.99040767,9,2,13,,,,,,,,3,10,,,,,,,,,,,3,1.634,1,,,,,,0.167592578,-0.256481524,1,0,0,1.6341,Diorite_rect,12,0,12,0,1
5fea7e34e1506a5df25419ec,TCN,2024-06-10_15h17.08.679,LearnStrategy,2023.2.3,Win32,11.99040767,9,2,14,,,,,,,,6,07,,,,,,,,,,,6,1.802,1,,,,,,-0.126851824,-0.412962949,1,0,0,1.8015,Pegmatite_rect,13,0,13,0,1
5fea7e34e1506a5df25419ec,TCN,2024-06-10_15h17.08.679,LearnStrategy,2023.2.3,Win32,11.99040767,9,2,15,,,,,,,,4,03,,,,,,,,,,,1,2.169,0,,,,,,-0.390740748,-0.246296282,1,0,0,2.1688,Andesite_rect,14,0,14,0,1
5fea7e34e1506a5df25419ec,TCN,2024-06-10_15h17.08.679,LearnStrategy,2023.2.3,Win32,11.99040767,9,2,16,,,,,,,,3,12,,,,,,,,,,,3,3.165,1,,,,,,0.131481524,-0.266666695,1,0,0,3.1651,Diorite_rect,15,0,15,0,1
5fea7e34e1506a5df25419ec,TCN,2024-06-10_15h17.08.679,LearnStrategy,2023.2.3,Win32,11.99040767,,,,,,,,,,,,,,,,,,,,,,,,,,,,,,,,,,,,,,,,,,
5fea7e34e1506a5df25419ec,TCN,2024-06-10_15h17.08.679,LearnStrategy,2023.2.3,Win32,11.99040767,,,,,,,,,,,,,,,,,,,,,,,,,,,,,,,,,,,,,,,,,,
5fea7e34e1506a5df25419ec,TCN,2024-06-10_15h17.08.679,LearnStrategy,2023.2.3,Win32,11.99040767,,,,,,,,,,,4,12,1,1,,,,,,,,,,,,,,,,,,,,,,,,,,,,
5fea7e34e1506a5df25419ec,TCN,2024-06-10_15h17.08.679,LearnStrategy,2023.2.3,Win32,11.99040767,,,,,,,,,,,5,04,1,2,,,,,,,,,,,,,,,,,,,,,,,,,,,,
5fea7e34e1506a5df25419ec,TCN,2024-06-10_15h17.08.679,LearnStrategy,2023.2.3,Win32,11.99040767,,,,,,,,,,,1,11,1,3,,,,,,,,,,,,,,,,,,,,,,,,,,,,
5fea7e34e1506a5df25419ec,TCN,2024-06-10_15h17.08.679,LearnStrategy,2023.2.3,Win32,11.99040767,,,,,,,,,,,3,06,1,4,,,,,,,,,,,,,,,,,,,,,,,,,,,,
5fea7e34e1506a5df25419ec,TCN,2024-06-10_15h17.08.679,LearnStrategy,2023.2.3,Win32,11.99040767,,,,,,,,,,,4,11,1,5,,,,,,,,,,,,,,,,,,,,,,,,,,,,
5fea7e34e1506a5df25419ec,TCN,2024-06-10_15h17.08.679,LearnStrategy,2023.2.3,Win32,11.99040767,,,,,,,,,,,5,16,1,6,,,,,,,,,,,,,,,,,,,,,,,,,,,,
5fea7e34e1506a5df25419ec,TCN,2024-06-10_15h17.08.679,LearnStrategy,2023.2.3,Win32,11.99040767,,,,,,,,,,,7,02,1,7,,,,,,,,,,,,,,,,,,,,,,,,,,,,
5fea7e34e1506a5df25419ec,TCN,2024-06-10_15h17.08.679,LearnStrategy,2023.2.3,Win32,11.99040767,,,,,,,,,,,8,09,1,8,,,,,,,,,,,,,,,,,,,,,,,,,,,,
5fea7e34e1506a5df25419ec,TCN,2024-06-10_15h17.08.679,LearnStrategy,2023.2.3,Win32,11.99040767,,,,,,,,,,,7,08,2,1,,,,,,,,,,,,,,,,,,,,,,,,,,,,
5fea7e34e1506a5df25419ec,TCN,2024-06-10_15h17.08.679,LearnStrategy,2023.2.3,Win32,11.99040767,,,,,,,,,,,1,10,2,2,,,,,,,,,,,,,,,,,,,,,,,,,,,,
5fea7e34e1506a5df25419ec,TCN,2024-06-10_15h17.08.679,LearnStrategy,2023.2.3,Win32,11.99040767,,,,,,,,,,,1,01,2,3,,,,,,,,,,,,,,,,,,,,,,,,,,,,
5fea7e34e1506a5df25419ec,TCN,2024-06-10_15h17.08.679,LearnStrategy,2023.2.3,Win32,11.99040767,,,,,,,,,,,8,04,2,4,,,,,,,,,,,,,,,,,,,,,,,,,,,,
5fea7e34e1506a5df25419ec,TCN,2024-06-10_15h17.08.679,LearnStrategy,2023.2.3,Win32,11.99040767,,,,,,,,,,,5,14,2,5,,,,,,,,,,,,,,,,,,,,,,,,,,,,
5fea7e34e1506a5df25419ec,TCN,2024-06-10_15h17.08.679,LearnStrategy,2023.2.3,Win32,11.99040767,,,,,,,,,,,8,02,2,6,,,,,,,,,,,,,,,,,,,,,,,,,,,,
5fea7e34e1506a5df25419ec,TCN,2024-06-10_15h17.08.679,LearnStrategy,2023.2.3,Win32,11.99040767,,,,,,,,,,,6,09,2,7,,,,,,,,,,,,,,,,,,,,,,,,,,,,
5fea7e34e1506a5df25419ec,TCN,2024-06-10_15h17.08.679,LearnStrategy,2023.2.3,Win32,11.99040767,,,,,,,,,,,4,16,2,8,,,,,,,,,,,,,,,,,,,,,,,,,,,,
5fea7e34e1506a5df25419ec,TCN,2024-06-10_15h17.08.679,LearnStrategy,2023.2.3,Win32,11.99040767,,,,,,,,,,,1,04,3,1,,,,,,,,,,,,,,,,,,,,,,,,,,,,
5fea7e34e1506a5df25419ec,TCN,2024-06-10_15h17.08.679,LearnStrategy,2023.2.3,Win32,11.99040767,,,,,,,,,,,3,08,3,2,,,,,,,,,,,,,,,,,,,,,,,,,,,,
5fea7e34e1506a5df25419ec,TCN,2024-06-10_15h17.08.679,LearnStrategy,2023.2.3,Win32,11.99040767,,,,,,,,,,,2,09,3,3,,,,,,,,,,,,,,,,,,,,,,,,,,,,
5fea7e34e1506a5df25419ec,TCN,2024-06-10_15h17.08.679,LearnStrategy,2023.2.3,Win32,11.99040767,,,,,,,,,,,6,05,3,4,,,,,,,,,,,,,,,,,,,,,,,,,,,,
5fea7e34e1506a5df25419ec,TCN,2024-06-10_15h17.08.679,LearnStrategy,2023.2.3,Win32,11.99040767,,,,,,,,,,,8,08,3,5,,,,,,,,,,,,,,,,,,,,,,,,,,,,
5fea7e34e1506a5df25419ec,TCN,2024-06-10_15h17.08.679,LearnStrategy,2023.2.3,Win32,11.99040767,,,,,,,,,,,2,01,3,6,,,,,,,,,,,,,,,,,,,,,,,,,,,,
5fea7e34e1506a5df25419ec,TCN,2024-06-10_15h17.08.679,LearnStrategy,2023.2.3,Win32,11.99040767,,,,,,,,,,,4,14,3,7,,,,,,,,,,,,,,,,,,,,,,,,,,,,
5fea7e34e1506a5df25419ec,TCN,2024-06-10_15h17.08.679,LearnStrategy,2023.2.3,Win32,11.99040767,,,,,,,,,,,3,13,3,8,,,,,,,,,,,,,,,,,,,,,,,,,,,,
5fea7e34e1506a5df25419ec,TCN,2024-06-10_15h17.08.679,LearnStrategy,2023.2.3,Win32,11.99040767,,,,,,,,,,,3,09,4,1,,,,,,,,,,,,,,,,,,,,,,,,,,,,
5fea7e34e1506a5df25419ec,TCN,2024-06-10_15h17.08.679,LearnStrategy,2023.2.3,Win32,11.99040767,,,,,,,,,,,7,04,4,2,,,,,,,,,,,,,,,,,,,,,,,,,,,,
5fea7e34e1506a5df25419ec,TCN,2024-06-10_15h17.08.679,LearnStrategy,2023.2.3,Win32,11.99040767,,,,,,,,,,,5,08,4,3,,,,,,,,,,,,,,,,,,,,,,,,,,,,
5fea7e34e1506a5df25419ec,TCN,2024-06-10_15h17.08.679,LearnStrategy,2023.2.3,Win32,11.99040767,,,,,,,,,,,5,02,4,4,,,,,,,,,,,,,,,,,,,,,,,,,,,,
5fea7e34e1506a5df25419ec,TCN,2024-06-10_15h17.08.679,LearnStrategy,2023.2.3,Win32,11.99040767,,,,,,,,,,,3,16,4,5,,,,,,,,,,,,,,,,,,,,,,,,,,,,
5fea7e34e1506a5df25419ec,TCN,2024-06-10_15h17.08.679,LearnStrategy,2023.2.3,Win32,11.99040767,,,,,,,,,,,2,05,4,6,,,,,,,,,,,,,,,,,,,,,,,,,,,,
5fea7e34e1506a5df25419ec,TCN,2024-06-10_15h17.08.679,LearnStrategy,2023.2.3,Win32,11.99040767,,,,,,,,,,,4,01,4,7,,,,,,,,,,,,,,,,,,,,,,,,,,,,
5fea7e34e1506a5df25419ec,TCN,2024-06-10_15h17.08.679,LearnStrategy,2023.2.3,Win32,11.99040767,,,,,,,,,,,7,06,4,8,,,,,,,,,,,,,,,,,,,,,,,,,,,,
5fea7e34e1506a5df25419ec,TCN,2024-06-10_15h17.08.679,LearnStrategy,2023.2.3,Win32,11.99040767,,,,,,,,,,,6,06,5,1,,,,,,,,,,,,,,,,,,,,,,,,,,,,
5fea7e34e1506a5df25419ec,TCN,2024-06-10_15h17.08.679,LearnStrategy,2023.2.3,Win32,11.99040767,,,,,,,,,,,6,11,5,2,,,,,,,,,,,,,,,,,,,,,,,,,,,,
5fea7e34e1506a5df25419ec,TCN,2024-06-10_15h17.08.679,LearnStrategy,2023.2.3,Win32,11.99040767,,,,,,,,,,,3,14,5,3,,,,,,,,,,,,,,,,,,,,,,,,,,,,
5fea7e34e1506a5df25419ec,TCN,2024-06-10_15h17.08.679,LearnStrategy,2023.2.3,Win32,11.99040767,,,,,,,,,,,8,10,5,4,,,,,,,,,,,,,,,,,,,,,,,,,,,,
5fea7e34e1506a5df25419ec,TCN,2024-06-10_15h17.08.679,LearnStrategy,2023.2.3,Win32,11.99040767,,,,,,,,,,,2,04,5,5,,,,,,,,,,,,,,,,,,,,,,,,,,,,
5fea7e34e1506a5df25419ec,TCN,2024-06-10_15h17.08.679,LearnStrategy,2023.2.3,Win32,11.99040767,,,,,,,,,,,1,16,5,6,,,,,,,,,,,,,,,,,,,,,,,,,,,,
5fea7e34e1506a5df25419ec,TCN,2024-06-10_15h17.08.679,LearnStrategy,2023.2.3,Win32,11.99040767,,,,,,,,,,,4,08,5,7,,,,,,,,,,,,,,,,,,,,,,,,,,,,
5fea7e34e1506a5df25419ec,TCN,2024-06-10_15h17.08.679,LearnStrategy,2023.2.3,Win32,11.99040767,,,,,,,,,,,6,15,5,8,,,,,,,,,,,,,,,,,,,,,,,,,,,,
5fea7e34e1506a5df25419ec,TCN,2024-06-10_15h17.08.679,LearnStrategy,2023.2.3,Win32,11.99040767,,,,,,,,,,,1,03,6,1,,,,,,,,,,,,,,,,,,,,,,,,,,,,
5fea7e34e1506a5df25419ec,TCN,2024-06-10_15h17.08.679,LearnStrategy,2023.2.3,Win32,11.99040767,,,,,,,,,,,8,13,6,2,,,,,,,,,,,,,,,,,,,,,,,,,,,,
5fea7e34e1506a5df25419ec,TCN,2024-06-10_15h17.08.679,LearnStrategy,2023.2.3,Win32,11.99040767,,,,,,,,,,,2,14,6,3,,,,,,,,,,,,,,,,,,,,,,,,,,,,
5fea7e34e1506a5df25419ec,TCN,2024-06-10_15h17.08.679,LearnStrategy,2023.2.3,Win32,11.99040767,,,,,,,,,,,2,10,6,4,,,,,,,,,,,,,,,,,,,,,,,,,,,,
5fea7e34e1506a5df25419ec,TCN,2024-06-10_15h17.08.679,LearnStrategy,2023.2.3,Win32,11.99040767,,,,,,,,,,,7,12,6,5,,,,,,,,,,,,,,,,,,,,,,,,,,,,
5fea7e34e1506a5df25419ec,TCN,2024-06-10_15h17.08.679,LearnStrategy,2023.2.3,Win32,11.99040767,,,,,,,,,,,7,07,6,6,,,,,,,,,,,,,,,,,,,,,,,,,,,,
5fea7e34e1506a5df25419ec,TCN,2024-06-10_15h17.08.679,LearnStrategy,2023.2.3,Win32,11.99040767,,,,,,,,,,,5,09,6,7,,,,,,,,,,,,,,,,,,,,,,,,,,,,
5fea7e34e1506a5df25419ec,TCN,2024-06-10_15h17.08.679,LearnStrategy,2023.2.3,Win32,11.99040767,,,,,,,,,,,6,08,6,8,,,,,,,,,,,,,,,,,,,,,,,,,,,,