participant,condition,date,expName,psychopyVersion,OS,frameRate,block,phase,trial,learn_mouse_2.x,learn_mouse_2.y,learn_mouse_2.leftButton,learn_mouse_2.midButton,learn_mouse_2.rightButton,learn_mouse_2.time,learn_mouse_2.clicked_name,cat,token,row,col,t_select,cat_mouse_l.x,cat_mouse_l.y,cat_mouse_l.leftButton,cat_mouse_l.midButton,cat_mouse_l.rightButton,cat_mouse_l.time,cat_mouse_l.clicked_name,resp,t_resp,corr,train_trials.thisRepN,train_trials.thisTrialN,train_trials.thisN,train_trials.thisIndex,train_trials.ran,cat_mouse_t.x,cat_mouse_t.y,cat_mouse_t.leftButton,cat_mouse_t.midButton,cat_mouse_t.rightButton,cat_mouse_t.time,cat_mouse_t.clicked_name,test_trials.thisRepN,test_trials.thisTrialN,test_trials.thisN,test_trials.thisIndex,test_trials.ran,Bonus
6018a5c0e1600b187ccb8693,TCR,2024-06-20_16h30.45.236,LearnStrategy,2023.2.3,Win32,60.24096386,,,,,,,,,,,,,,,,,,,,,,,,,,,,,,,,,,,,,,,,,,,
6018a5c0e1600b187ccb8693,TCR,2024-06-20_16h30.45.236,LearnStrategy,2023.2.3,Win32,60.24096386,1,1,1,0.036250019,0.001249981,1,0,0,2.4656,rock_grid_rect_2,2,08,-1,-1,2.466,-0.34749999,-0.401249981,1,0,0,2.5463,Obsidian_rect,5,2.546,0,0,0,0,0,1,,,,,,,,,,,,,
6018a5c0e1600b187ccb8693,TCR,2024-06-20_16h30.45.236,LearnStrategy,2023.2.3,Win32,60.24096386,1,1,2,-0.010624981,0.00062499,1,0,0,1.263,rock_grid_rect_2,4,10,-1,-1,1.263,0.088749981,-0.240625,1,0,0,1.9702,Diorite_rect,3,1.97,0,1,0,1,0,1,,,,,,,,,,,,,
6018a5c0e1600b187ccb8693,TCR,2024-06-20_16h30.45.236,LearnStrategy,2023.2.3,Win32,60.24096386,1,1,3,-0.02249999,0.00625,1,0,0,1.0293,rock_grid_rect_2,8,14,-1,-1,1.029,0.317500019,-0.405625057,1,0,0,2.3184,Pumice_rect,8,2.318,1,2,0,2,0,1,,,,,,,,,,,,,
6018a5c0e1600b187ccb8693,TCR,2024-06-20_16h30.45.236,LearnStrategy,2023.2.3,Win32,60.24096386,1,1,4,0.002500057,-0.007500029,1,0,0,1.0562,rock_grid_rect_2,3,02,-1,-1,1.056,-0.12437501,-0.388749981,1,0,0,2.6662,Pegmatite_rect,6,2.666,0,3,0,3,0,1,,,,,,,,,,,,,
6018a5c0e1600b187ccb8693,TCR,2024-06-20_16h30.45.236,LearnStrategy,2023.2.3,Win32,60.24096386,1,1,5,-0.03499999,-0.010625029,1,0,0,0.9295,rock_grid_rect_2,1,16,-1,-1,0.929,0.159375,-0.24937501,1,0,0,3.4601,Diorite_rect,3,3.46,0,4,0,4,0,1,,,,,,,,,,,,,
6018a5c0e1600b187ccb8693,TCR,2024-06-20_16h30.45.236,LearnStrategy,2023.2.3,Win32,60.24096386,1,1,6,0.014375019,-0.004375029,1,0,0,0.9168,rock_grid_rect_2,8,09,-1,-1,0.917,0.385000038,-0.404374981,1,0,0,2.8682,Pumice_rect,8,2.868,1,5,0,5,0,1,,,,,,,,,,,,,
6018a5c0e1600b187ccb8693,TCR,2024-06-20_16h30.45.236,LearnStrategy,2023.2.3,Win32,60.24096386,1,1,7,0.010624981,0.00625,1,0,0,0.9622,rock_grid_rect_2,7,07,-1,-1,0.962,-0.132499981,-0.389375019,1,0,0,3.0032,Pegmatite_rect,6,3.003,0,6,0,6,0,1,,,,,,,,,,,,,
6018a5c0e1600b187ccb8693,TCR,2024-06-20_16h30.45.236,LearnStrategy,2023.2.3,Win32,60.24096386,1,1,8,-0.004374981,0.00562501,1,0,0,1.9968,rock_grid_rect_2,3,15,-1,-1,1.997,-0.35625,-0.26500001,1,0,0,2.1709,Andesite_rect,1,2.171,0,7,0,7,0,1,,,,,,,,,,,,,
6018a5c0e1600b187ccb8693,TCR,2024-06-20_16h30.45.236,LearnStrategy,2023.2.3,Win32,60.24096386,1,1,9,-0.00875001,-0.008125019,1,0,0,1.1884,rock_grid_rect_2,6,07,-1,-1,1.188,-0.06937499,-0.248125029,1,0,0,2.4975,Basalt_rect,2,2.498,0,8,0,8,0,1,,,,,,,,,,,,,
6018a5c0e1600b187ccb8693,TCR,2024-06-20_16h30.45.236,LearnStrategy,2023.2.3,Win32,60.24096386,1,1,10,-0.00250001,-0.00562501,1,0,0,0.9641,rock_grid_rect_2,5,07,-1,-1,0.964,-0.18125,-0.248750019,1,0,0,10.5583,Basalt_rect,2,10.558,0,9,0,9,0,1,,,,,,,,,,,,,
6018a5c0e1600b187ccb8693,TCR,2024-06-20_16h30.45.236,LearnStrategy,2023.2.3,Win32,60.24096386,1,1,11,-0.001874971,-0.023750019,1,0,0,1.0401,rock_grid_rect_2,4,05,-1,-1,1.04,0.105625057,-0.263750029,1,0,0,3.2668,Diorite_rect,3,3.267,0,10,0,10,0,1,,,,,,,,,,,,,
6018a5c0e1600b187ccb8693,TCR,2024-06-20_16h30.45.236,LearnStrategy,2023.2.3,Win32,60.24096386,1,1,12,0.054374981,-0.011250019,1,0,0,1.0476,rock_grid_rect_2,5,10,-1,-1,1.048,-0.364374971,-0.415000057,1,0,0,2.8034,Obsidian_rect,5,2.803,1,11,0,11,0,1,,,,,,,,,,,,,
6018a5c0e1600b187ccb8693,TCR,2024-06-20_16h30.45.236,LearnStrategy,2023.2.3,Win32,60.24096386,1,1,13,0.022500038,0.010624981,1,0,0,1.2075,rock_grid_rect_2,2,09,-1,-1,1.207,-0.104999971,-0.25250001,1,0,0,6.7956,Basalt_rect,2,6.796,1,12,0,12,0,1,,,,,,,,,,,,,
6018a5c0e1600b187ccb8693,TCR,2024-06-20_16h30.45.236,LearnStrategy,2023.2.3,Win32,60.24096386,1,1,14,0.023750019,0.00687499,1,0,0,1.2376,rock_grid_rect_2,6,10,-1,-1,1.238,-0.366874981,-0.260625029,1,0,0,3.5189,Andesite_rect,1,3.519,0,13,0,13,0,1,,,,,,,,,,,,,
6018a5c0e1600b187ccb8693,TCR,2024-06-20_16h30.45.236,LearnStrategy,2023.2.3,Win32,60.24096386,1,1,15,0.010000038,-0.005000019,1,0,0,1.0464,rock_grid_rect_2,1,10,-1,-1,1.046,0.091874981,-0.26187501,1,0,0,7.1907,Diorite_rect,3,7.191,0,14,0,14,0,1,,,,,,,,,,,,,
6018a5c0e1600b187ccb8693,TCR,2024-06-20_16h30.45.236,LearnStrategy,2023.2.3,Win32,60.24096386,1,1,16,-0.059375,0.00625,1,0,0,0.9307,rock_grid_rect_2,7,10,-1,-1,0.931,0.122500038,-0.24937501,1,0,0,205.0504,Diorite_rect,3,205.05,0,15,0,15,0,1,,,,,,,,,,,,,
6018a5c0e1600b187ccb8693,TCR,2024-06-20_16h30.45.236,LearnStrategy,2023.2.3,Win32,60.24096386,1,2,1,,,,,,,,5,12,,,,,,,,,,,2,3.005,0,,,,,,-0.157499981,-0.26312499,1,0,0,3.0046,Basalt_rect,0,0,0,0,1,
6018a5c0e1600b187ccb8693,TCR,2024-06-20_16h30.45.236,LearnStrategy,2023.2.3,Win32,60.24096386,1,2,2,,,,,,,,1,06,,,,,,,,,,,7,3.657,0,,,,,,0.099375057,-0.394375038,1,0,0,3.6573,Peridotite_rect,1,0,1,0,1,
6018a5c0e1600b187ccb8693,TCR,2024-06-20_16h30.45.236,LearnStrategy,2023.2.3,Win32,60.24096386,1,2,3,,,,,,,,4,01,,,,,,,,,,,8,2.543,0,,,,,,0.330625057,-0.421875,1,0,0,2.5429,Pumice_rect,2,0,2,0,1,
6018a5c0e1600b187ccb8693,TCR,2024-06-20_16h30.45.236,LearnStrategy,2023.2.3,Win32,60.24096386,1,2,4,,,,,,,,5,06,,,,,,,,,,,5,3.093,1,,,,,,-0.436874986,-0.39375,1,0,0,3.0929,Obsidian_rect,3,0,3,0,1,
6018a5c0e1600b187ccb8693,TCR,2024-06-20_16h30.45.236,LearnStrategy,2023.2.3,Win32,60.24096386,1,2,5,,,,,,,,4,14,,,,,,,,,,,2,1.506,0,,,,,,-0.16500001,-0.25374999,1,0,0,1.5062,Basalt_rect,4,0,4,0,1,
6018a5c0e1600b187ccb8693,TCR,2024-06-20_16h30.45.236,LearnStrategy,2023.2.3,Win32,60.24096386,1,2,6,,,,,,,,7,02,,,,,,,,,,,6,2.052,0,,,,,,-0.06875,-0.381875038,1,0,0,2.0518,Pegmatite_rect,5,0,5,0,1,
6018a5c0e1600b187ccb8693,TCR,2024-06-20_16h30.45.236,LearnStrategy,2023.2.3,Win32,60.24096386,1,2,7,,,,,,,,6,08,,,,,,,,,,,5,2.141,0,,,,,,-0.35374999,-0.382499981,1,0,0,2.1406,Obsidian_rect,6,0,6,0,1,
6018a5c0e1600b187ccb8693,TCR,2024-06-20_16h30.45.236,LearnStrategy,2023.2.3,Win32,60.24096386,1,2,8,,,,,,,,3,14,,,,,,,,,,,7,1.784,0,,,,,,0.091874981,-0.388749981,1,0,0,1.784,Peridotite_rect,7,0,7,0,1,
6018a5c0e1600b187ccb8693,TCR,2024-06-20_16h30.45.236,LearnStrategy,2023.2.3,Win32,60.24096386,1,2,9,,,,,,,,6,09,,,,,,,,,,,6,4.7,1,,,,,,-0.11812501,-0.398750019,1,0,0,4.7005,Pegmatite_rect,8,0,8,0,1,
6018a5c0e1600b187ccb8693,TCR,2024-06-20_16h30.45.236,LearnStrategy,2023.2.3,Win32,60.24096386,1,2,10,,,,,,,,7,16,,,,,,,,,,,2,21.923,0,,,,,,-0.119999981,-0.255000019,1,0,0,21.9228,Basalt_rect,9,0,9,0,1,
6018a5c0e1600b187ccb8693,TCR,2024-06-20_16h30.45.236,LearnStrategy,2023.2.3,Win32,60.24096386,1,2,11,,,,,,,,2,14,,,,,,,,,,,2,4.686,1,,,,,,-0.123124981,-0.264375019,1,0,0,4.6857,Basalt_rect,10,0,10,0,1,
6018a5c0e1600b187ccb8693,TCR,2024-06-20_16h30.45.236,LearnStrategy,2023.2.3,Win32,60.24096386,1,2,12,,,,,,,,1,01,,,,,,,,,,,2,2.373,0,,,,,,-0.151874971,-0.25625,1,0,0,2.3732,Basalt_rect,11,0,11,0,1,
6018a5c0e1600b187ccb8693,TCR,2024-06-20_16h30.45.236,LearnStrategy,2023.2.3,Win32,60.24096386,1,2,13,,,,,,,,2,12,,,,,,,,,,,6,5.971,0,,,,,,-0.129999971,-0.391250038,1,0,0,5.9711,Pegmatite_rect,12,0,12,0,1,
6018a5c0e1600b187ccb8693,TCR,2024-06-20_16h30.45.236,LearnStrategy,2023.2.3,Win32,60.24096386,1,2,14,,,,,,,,8,16,,,,,,,,,,,2,9.139,0,,,,,,-0.13499999,-0.25875001,1,0,0,9.139,Basalt_rect,13,0,13,0,1,
6018a5c0e1600b187ccb8693,TCR,2024-06-20_16h30.45.236,LearnStrategy,2023.2.3,Win32,60.24096386,1,2,15,,,,,,,,3,06,,,,,,,,,,,7,69.415,0,,,,,,0.098750019,-0.399375057,1,0,0,69.4153,Peridotite_rect,14,0,14,0,1,
6018a5c0e1600b187ccb8693,TCR,2024-06-20_16h30.45.236,LearnStrategy,2023.2.3,Win32,60.24096386,1,2,16,,,,,,,,8,06,,,,,,,,,,,2,25.337,0,,,,,,-0.1375,-0.254375029,1,0,0,25.3369,Basalt_rect,15,0,15,0,1,
6018a5c0e1600b187ccb8693,TCR,2024-06-20_16h30.45.236,LearnStrategy,2023.2.3,Win32,60.24096386,2,1,1,0.008125019,-0.00374999,1,0,0,14.574,rock_grid_rect_2,8,04,-1,-1,14.574,-0.117499971,-0.242500019,1,0,0,29.9285,Basalt_rect,2,29.928,0,0,0,0,0,1,,,,,,,,,,,,,
6018a5c0e1600b187ccb8693,TCR,2024-06-20_16h30.45.236,LearnStrategy,2023.2.3,Win32,60.24096386,2,1,2,0.013749981,0.00250001,1,0,0,1.1138,rock_grid_rect_2,6,06,-1,-1,1.114,0.10625,-0.24749999,1,0,0,2.0249,Diorite_rect,3,2.025,0,1,0,1,0,1,,,,,,,,,,,,,
6018a5c0e1600b187ccb8693,TCR,2024-06-20_16h30.45.236,LearnStrategy,2023.2.3,Win32,60.24096386,2,1,3,0.011875057,0.020624971,1,0,0,1.024,rock_grid_rect_2,3,02,-1,-1,1.024,-0.321875,-0.385624981,1,0,0,7.9823,Obsidian_rect,5,7.982,0,2,0,2,0,1,,,,,,,,,,,,,
6018a5c0e1600b187ccb8693,TCR,2024-06-20_16h30.45.236,LearnStrategy,2023.2.3,Win32,60.24096386,2,1,4,0.004374981,-0.00374999,1,0,0,1.1973,rock_grid_rect_2,4,15,-1,-1,1.197,-0.154999971,-0.254375029,1,0,0,2.9766,Basalt_rect,2,2.977,0,3,0,3,0,1,,,,,,,,,,,,,
6018a5c0e1600b187ccb8693,TCR,2024-06-20_16h30.45.236,LearnStrategy,2023.2.3,Win32,60.24096386,2,1,5,0.009375,-0.00250001,1,0,0,1.0648,rock_grid_rect_2,1,10,-1,-1,1.065,-0.13499999,-0.2375,1,0,0,1.8601,Basalt_rect,2,1.86,0,4,0,4,0,1,,,,,,,,,,,,,
6018a5c0e1600b187ccb8693,TCR,2024-06-20_16h30.45.236,LearnStrategy,2023.2.3,Win32,60.24096386,2,1,6,0.029374981,0.00687499,1,0,0,6.1975,rock_grid_rect_2,3,15,-1,-1,6.197,-0.39625001,-0.25687499,1,0,0,33.4378,Andesite_rect,1,33.438,0,5,0,5,0,1,,,,,,,,,,,,,
6018a5c0e1600b187ccb8693,TCR,2024-06-20_16h30.45.236,LearnStrategy,2023.2.3,Win32,60.24096386,2,1,7,-0.061249971,0.00250001,1,0,0,10.5953,rock_grid_rect_2,7,06,-1,-1,10.595,-0.076249981,-0.391250038,1,0,0,4.2419,Pegmatite_rect,6,4.242,0,6,0,6,0,1,,,,,,,,,,,,,
6018a5c0e1600b187ccb8693,TCR,2024-06-20_16h30.45.236,LearnStrategy,2023.2.3,Win32,60.24096386,2,1,8,-0.029999971,0.02249999,1,0,0,0.8478,rock_grid_rect_2,4,10,-1,-1,0.848,-0.15687499,-0.25875001,1,0,0,2.2444,Basalt_rect,2,2.244,0,7,0,7,0,1,,,,,,,,,,,,,
6018a5c0e1600b187ccb8693,TCR,2024-06-20_16h30.45.236,LearnStrategy,2023.2.3,Win32,60.24096386,2,1,9,-0.048124981,-0.00250001,1,0,0,1.0806,rock_grid_rect_2,7,14,-1,-1,1.081,-0.1375,-0.25999999,1,0,0,1.6266,Basalt_rect,2,1.627,0,8,0,8,0,1,,,,,,,,,,,,,
6018a5c0e1600b187ccb8693,TCR,2024-06-20_16h30.45.236,LearnStrategy,2023.2.3,Win32,60.24096386,2,1,10,-0.00875001,-0.007500029,1,0,0,0.9312,rock_grid_rect_2,1,04,-1,-1,0.931,0.133750057,-0.39375,1,0,0,2.6922,Peridotite_rect,7,2.692,0,9,0,9,0,1,,,,,,,,,,,,,
6018a5c0e1600b187ccb8693,TCR,2024-06-20_16h30.45.236,LearnStrategy,2023.2.3,Win32,60.24096386,2,1,11,-0.01312499,-0.00999999,1,0,0,11.7376,rock_grid_rect_2,2,06,-1,-1,11.738,-0.126874971,-0.25374999,1,0,0,3.0366,Basalt_rect,2,3.037,1,10,0,10,0,1,,,,,,,,,,,,,
6018a5c0e1600b187ccb8693,TCR,2024-06-20_16h30.45.236,LearnStrategy,2023.2.3,Win32,60.24096386,2,1,12,-0.004374981,-0.00562501,1,0,0,1.198,rock_grid_rect_2,8,14,-1,-1,1.198,0.35625,-0.401875019,1,0,0,3.4933,Pumice_rect,8,3.493,1,11,0,11,0,1,,,,,,,,,,,,,
6018a5c0e1600b187ccb8693,TCR,2024-06-20_16h30.45.236,LearnStrategy,2023.2.3,Win32,60.24096386,2,1,13,0.003125,-0.003125,1,0,0,1.1973,rock_grid_rect_2,6,07,-1,-1,1.197,-0.37437501,-0.403750038,1,0,0,4.6583,Obsidian_rect,5,4.658,0,12,0,12,0,1,,,,,,,,,,,,,
6018a5c0e1600b187ccb8693,TCR,2024-06-20_16h30.45.236,LearnStrategy,2023.2.3,Win32,60.24096386,2,1,14,-0.10250001,0.00250001,1,0,0,1.0144,rock_grid_rect_2,7,07,-1,-1,1.014,0.072500038,-0.393125057,1,0,0,2.176,Peridotite_rect,7,2.176,1,13,0,13,0,1,,,,,,,,,,,,,
6018a5c0e1600b187ccb8693,TCR,2024-06-20_16h30.45.236,LearnStrategy,2023.2.3,Win32,60.24096386,2,1,15,0.016874981,-0.01624999,1,0,0,1.064,rock_grid_rect_2,5,04,-1,-1,1.064,-0.370624971,-0.400625038,1,0,0,1.3606,Obsidian_rect,5,1.361,1,14,0,14,0,1,,,,,,,,,,,,,
6018a5c0e1600b187ccb8693,TCR,2024-06-20_16h30.45.236,LearnStrategy,2023.2.3,Win32,60.24096386,2,1,16,-0.04124999,-0.01312499,1,0,0,0.9141,rock_grid_rect_2,2,09,-1,-1,0.914,-0.092499971,-0.248750019,1,0,0,1.6952,Basalt_rect,2,1.695,1,15,0,15,0,1,,,,,,,,,,,,,
6018a5c0e1600b187ccb8693,TCR,2024-06-20_16h30.45.236,LearnStrategy,2023.2.3,Win32,60.24096386,2,2,1,,,,,,,,6,12,,,,,,,,,,,1,5.588,0,,,,,,-0.36875,-0.257500029,1,0,0,5.588,Andesite_rect,0,0,0,0,1,
6018a5c0e1600b187ccb8693,TCR,2024-06-20_16h30.45.236,LearnStrategy,2023.2.3,Win32,60.24096386,2,2,2,,,,,,,,3,13,,,,,,,,,,,6,3.494,0,,,,,,-0.13187499,-0.406875038,1,0,0,3.4938,Pegmatite_rect,1,0,1,0,1,
6018a5c0e1600b187ccb8693,TCR,2024-06-20_16h30.45.236,LearnStrategy,2023.2.3,Win32,60.24096386,2,2,3,,,,,,,,4,03,,,,,,,,,,,2,3.373,0,,,,,,-0.151249981,-0.26500001,1,0,0,3.373,Basalt_rect,2,0,2,0,1,
6018a5c0e1600b187ccb8693,TCR,2024-06-20_16h30.45.236,LearnStrategy,2023.2.3,Win32,60.24096386,2,2,4,,,,,,,,3,08,,,,,,,,,,,2,0.97,0,,,,,,-0.151249981,-0.26500001,1,0,0,0.97,Basalt_rect,3,0,3,0,1,
6018a5c0e1600b187ccb8693,TCR,2024-06-20_16h30.45.236,LearnStrategy,2023.2.3,Win32,60.24096386,2,2,5,,,,,,,,5,14,,,,,,,,,,,5,1.236,1,,,,,,-0.35687499,-0.390000057,1,0,0,1.2364,Obsidian_rect,4,0,4,0,1,
6018a5c0e1600b187ccb8693,TCR,2024-06-20_16h30.45.236,LearnStrategy,2023.2.3,Win32,60.24096386,2,2,6,,,,,,,,1,07,,,,,,,,,,,6,1.352,0,,,,,,-0.1125,-0.394375038,1,0,0,1.3524,Pegmatite_rect,5,0,5,0,1,
6018a5c0e1600b187ccb8693,TCR,2024-06-20_16h30.45.236,LearnStrategy,2023.2.3,Win32,60.24096386,2,2,7,,,,,,,,8,03,,,,,,,,,,,2,1.125,0,,,,,,-0.140625,-0.251250029,1,0,0,1.1246,Basalt_rect,6,0,6,0,1,
6018a5c0e1600b187ccb8693,TCR,2024-06-20_16h30.45.236,LearnStrategy,2023.2.3,Win32,60.24096386,2,2,8,,,,,,,,2,04,,,,,,,,,,,5,1.158,0,,,,,,-0.39375,-0.394999981,1,0,0,1.1582,Obsidian_rect,7,0,7,0,1,
6018a5c0e1600b187ccb8693,TCR,2024-06-20_16h30.45.236,LearnStrategy,2023.2.3,Win32,60.24096386,2,2,9,,,,,,,,6,15,,,,,,,,,,,5,3.095,0,,,,,,-0.3625,-0.391874981,1,0,0,3.0949,Obsidian_rect,8,0,8,0,1,
6018a5c0e1600b187ccb8693,TCR,2024-06-20_16h30.45.236,LearnStrategy,2023.2.3,Win32,60.24096386,2,2,10,,,,,,,,5,11,,,,,,,,,,,5,1.076,1,,,,,,-0.3875,-0.403750038,1,0,0,1.0756,Obsidian_rect,9,0,9,0,1,
6018a5c0e1600b187ccb8693,TCR,2024-06-20_16h30.45.236,LearnStrategy,2023.2.3,Win32,60.24096386,2,2,11,,,,,,,,1,05,,,,,,,,,,,8,4.29,0,,,,,,0.344999981,-0.4125,1,0,0,4.2896,Pumice_rect,10,0,10,0,1,
6018a5c0e1600b187ccb8693,TCR,2024-06-20_16h30.45.236,LearnStrategy,2023.2.3,Win32,60.24096386,2,2,12,,,,,,,,2,02,,,,,,,,,,,2,1.436,1,,,,,,-0.11812501,-0.239375019,1,0,0,1.4361,Basalt_rect,11,0,11,0,1,
6018a5c0e1600b187ccb8693,TCR,2024-06-20_16h30.45.236,LearnStrategy,2023.2.3,Win32,60.24096386,2,2,13,,,,,,,,7,05,,,,,,,,,,,7,1.971,1,,,,,,0.044999981,-0.4,1,0,0,1.9709,Peridotite_rect,12,0,12,0,1,
6018a5c0e1600b187ccb8693,TCR,2024-06-20_16h30.45.236,LearnStrategy,2023.2.3,Win32,60.24096386,2,2,14,,,,,,,,7,13,,,,,,,,,,,6,1.22,0,,,,,,-0.1125,-0.393125057,1,0,0,1.2198,Pegmatite_rect,13,0,13,0,1,
6018a5c0e1600b187ccb8693,TCR,2024-06-20_16h30.45.236,LearnStrategy,2023.2.3,Win32,60.24096386,2,2,15,,,,,,,,4,11,,,,,,,,,,,2,1.612,0,,,,,,-0.141874981,-0.25999999,1,0,0,1.6119,Basalt_rect,14,0,14,0,1,
6018a5c0e1600b187ccb8693,TCR,2024-06-20_16h30.45.236,LearnStrategy,2023.2.3,Win32,60.24096386,2,2,16,,,,,,,,8,05,,,,,,,,,,,2,0.837,0,,,,,,-0.141874981,-0.25999999,1,0,0,0.8369,Basalt_rect,15,0,15,0,1,
6018a5c0e1600b187ccb8693,TCR,2024-06-20_16h30.45.236,LearnStrategy,2023.2.3,Win32,60.24096386,3,1,1,0.001875019,-0.001875019,1,0,0,1.2568,rock_grid_rect_2,2,06,-1,-1,1.257,-0.145624971,-0.239375019,1,0,0,1.3173,Basalt_rect,2,1.317,1,0,0,0,0,1,,,,,,,,,,,,,
6018a5c0e1600b187ccb8693,TCR,2024-06-20_16h30.45.236,LearnStrategy,2023.2.3,Win32,60.24096386,3,1,2,-0.001874971,-0.020000029,1,0,0,1.5817,rock_grid_rect_2,3,12,-1,-1,1.582,-0.111249971,-0.386875057,1,0,0,1.4043,Pegmatite_rect,6,1.404,0,1,0,1,0,1,,,,,,,,,,,,,
6018a5c0e1600b187ccb8693,TCR,2024-06-20_16h30.45.236,LearnStrategy,2023.2.3,Win32,60.24096386,3,1,3,-0.06624999,-0.011250019,1,0,0,1.0745,rock_grid_rect_2,5,05,-1,-1,1.074,-0.340625,-0.3875,1,0,0,1.2338,Obsidian_rect,5,1.234,1,2,0,2,0,1,,,,,,,,,,,,,
6018a5c0e1600b187ccb8693,TCR,2024-06-20_16h30.45.236,LearnStrategy,2023.2.3,Win32,60.24096386,3,1,4,-0.060624981,-0.025,1,0,0,1.1979,rock_grid_rect_2,7,14,-1,-1,1.198,-0.14937501,-0.260625029,1,0,0,0.9113,Basalt_rect,2,0.911,0,3,0,3,0,1,,,,,,,,,,,,,
6018a5c0e1600b187ccb8693,TCR,2024-06-20_16h30.45.236,LearnStrategy,2023.2.3,Win32,60.24096386,3,1,5,0.008125019,-0.00625,1,0,0,0.9315,rock_grid_rect_2,8,02,-1,-1,0.932,-0.125,-0.229375029,1,0,0,1.1449,Basalt_rect,2,1.145,0,4,0,4,0,1,,,,,,,,,,,,,
6018a5c0e1600b187ccb8693,TCR,2024-06-20_16h30.45.236,LearnStrategy,2023.2.3,Win32,60.24096386,3,1,6,-0.03687501,-0.00250001,1,0,0,76.5157,rock_grid_rect_2,8,15,-1,-1,76.516,-0.09625001,-0.26187501,1,0,0,0.6483,Basalt_rect,2,0.648,0,5,0,5,0,1,,,,,,,,,,,,,
6018a5c0e1600b187ccb8693,TCR,2024-06-20_16h30.45.236,LearnStrategy,2023.2.3,Win32,60.24096386,3,1,7,-0.013749981,0.004999971,1,0,0,0.7644,rock_grid_rect_2,1,02,-1,-1,0.764,-0.1625,-0.251250029,1,0,0,1.3095,Basalt_rect,2,1.31,0,6,0,6,0,1,,,,,,,,,,,,,
6018a5c0e1600b187ccb8693,TCR,2024-06-20_16h30.45.236,LearnStrategy,2023.2.3,Win32,60.24096386,3,1,8,-0.08187499,0.004374981,1,0,0,0.7638,rock_grid_rect_2,2,16,-1,-1,0.764,-0.33812499,-0.405000019,1,0,0,1.278,Obsidian_rect,5,1.278,0,7,0,7,0,1,,,,,,,,,,,,,
6018a5c0e1600b187ccb8693,TCR,2024-06-20_16h30.45.236,LearnStrategy,2023.2.3,Win32,60.24096386,3,1,9,-0.06875,-0.016875029,1,0,0,0.8317,rock_grid_rect_2,8,10,-1,-1,0.832,-0.12125001,-0.260625029,1,0,0,0.8614,Basalt_rect,2,0.861,0,8,0,8,0,1,,,,,,,,,,,,,
6018a5c0e1600b187ccb8693,TCR,2024-06-20_16h30.45.236,LearnStrategy,2023.2.3,Win32,60.24096386,3,1,10,0.001249981,-0.003125,1,0,0,0.9646,rock_grid_rect_2,6,06,-1,-1,0.965,-0.15562501,-0.25875001,1,0,0,3.6434,Basalt_rect,2,3.643,0,9,0,9,0,1,,,,,,,,,,,,,
6018a5c0e1600b187ccb8693,TCR,2024-06-20_16h30.45.236,LearnStrategy,2023.2.3,Win32,60.24096386,3,1,11,-0.00687499,0,1,0,0,1.0971,rock_grid_rect_2,6,16,-1,-1,1.097,-0.14625001,-0.396875,1,0,0,2.7431,Pegmatite_rect,6,2.743,1,10,0,10,0,1,,,,,,,,,,,,,
6018a5c0e1600b187ccb8693,TCR,2024-06-20_16h30.45.236,LearnStrategy,2023.2.3,Win32,60.24096386,3,1,12,-0.076874971,0.00374999,1,0,0,0.6479,rock_grid_rect_2,3,02,-1,-1,0.648,0.113125038,-0.414375019,1,0,0,1.5418,Peridotite_rect,7,1.542,0,11,0,11,0,1,,,,,,,,,,,,,
6018a5c0e1600b187ccb8693,TCR,2024-06-20_16h30.45.236,LearnStrategy,2023.2.3,Win32,60.24096386,3,1,13,-0.03499999,0.007499981,1,0,0,1.1652,rock_grid_rect_2,7,08,-1,-1,1.165,0.353750038,-0.235625029,1,0,0,1.6253,Gabbro_rect,4,1.625,0,12,0,12,0,1,,,,,,,,,,,,,
6018a5c0e1600b187ccb8693,TCR,2024-06-20_16h30.45.236,LearnStrategy,2023.2.3,Win32,60.24096386,3,1,14,0,-0.00687499,1,0,0,0.9479,rock_grid_rect_2,4,10,-1,-1,0.948,-0.16812501,-0.25250001,1,0,0,2.9269,Basalt_rect,2,2.927,0,13,0,13,0,1,,,,,,,,,,,,,
6018a5c0e1600b187ccb8693,TCR,2024-06-20_16h30.45.236,LearnStrategy,2023.2.3,Win32,60.24096386,3,1,15,-0.034375,-0.00625,1,0,0,0.9639,rock_grid_rect_2,1,02,-1,-1,0.964,-0.11187501,-0.4125,0,0,1,1.6744,Pegmatite_rect,6,1.674,0,14,0,14,0,1,,,,,,,,,,,,,
6018a5c0e1600b187ccb8693,TCR,2024-06-20_16h30.45.236,LearnStrategy,2023.2.3,Win32,60.24096386,3,1,16,-0.042499971,-0.001250029,1,0,0,1.1322,rock_grid_rect_2,4,05,-1,-1,1.132,-0.3625,-0.397500038,1,0,0,3.2911,Obsidian_rect,5,3.291,0,15,0,15,0,1,,,,,,,,,,,,,
6018a5c0e1600b187ccb8693,TCR,2024-06-20_16h30.45.236,LearnStrategy,2023.2.3,Win32,60.24096386,3,2,1,,,,,,,,6,03,,,,,,,,,,,6,3.64,1,,,,,,-0.148124981,-0.416874981,1,0,0,3.6399,Pegmatite_rect,0,0,0,0,1,
6018a5c0e1600b187ccb8693,TCR,2024-06-20_16h30.45.236,LearnStrategy,2023.2.3,Win32,60.24096386,3,2,2,,,,,,,,4,13,,,,,,,,,,,5,1.78,0,,,,,,-0.33499999,-0.388749981,1,0,0,1.7802,Obsidian_rect,1,0,1,0,1,
6018a5c0e1600b187ccb8693,TCR,2024-06-20_16h30.45.236,LearnStrategy,2023.2.3,Win32,60.24096386,3,2,3,,,,,,,,2,05,,,,,,,,,,,5,0.39,0,,,,,,-0.33499999,-0.388749981,1,0,0,0.3896,Obsidian_rect,2,0,2,0,1,
6018a5c0e1600b187ccb8693,TCR,2024-06-20_16h30.45.236,LearnStrategy,2023.2.3,Win32,60.24096386,3,2,4,,,,,,,,7,12,,,,,,,,,,,6,3.244,0,,,,,,-0.08062501,-0.421250057,1,0,0,3.2442,Pegmatite_rect,3,0,3,0,1,
6018a5c0e1600b187ccb8693,TCR,2024-06-20_16h30.45.236,LearnStrategy,2023.2.3,Win32,60.24096386,3,2,5,,,,,,,,1,14,,,,,,,,,,,2,6.765,0,,,,,,-0.14312501,-0.261250019,1,0,0,6.7652,Basalt_rect,4,0,4,0,1,
6018a5c0e1600b187ccb8693,TCR,2024-06-20_16h30.45.236,LearnStrategy,2023.2.3,Win32,60.24096386,3,2,6,,,,,,,,3,16,,,,,,,,,,,6,1.931,0,,,,,,-0.078125,-0.404374981,1,0,0,1.9309,Pegmatite_rect,5,0,5,0,1,
6018a5c0e1600b187ccb8693,TCR,2024-06-20_16h30.45.236,LearnStrategy,2023.2.3,Win32,60.24096386,3,2,7,,,,,,,,8,13,,,,,,,,,,,2,1.203,0,,,,,,-0.101874971,-0.25374999,1,0,0,1.2028,Basalt_rect,6,0,6,0,1,
6018a5c0e1600b187ccb8693,TCR,2024-06-20_16h30.45.236,LearnStrategy,2023.2.3,Win32,60.24096386,3,2,8,,,,,,,,3,11,,,,,,,,,,,3,2.316,1,,,,,,0.115000057,-0.25062499,1,0,0,2.3163,Diorite_rect,7,0,7,0,1,
6018a5c0e1600b187ccb8693,TCR,2024-06-20_16h30.45.236,LearnStrategy,2023.2.3,Win32,60.24096386,3,2,9,,,,,,,,5,02,,,,,,,,,,,5,1.161,1,,,,,,-0.383124971,-0.405625057,1,0,0,1.1606,Obsidian_rect,8,0,8,0,1,
6018a5c0e1600b187ccb8693,TCR,2024-06-20_16h30.45.236,LearnStrategy,2023.2.3,Win32,60.24096386,3,2,10,,,,,,,,8,08,,,,,,,,,,,2,0.809,0,,,,,,-0.142499971,-0.26500001,1,0,0,0.8088,Basalt_rect,9,0,9,0,1,
6018a5c0e1600b187ccb8693,TCR,2024-06-20_16h30.45.236,LearnStrategy,2023.2.3,Win32,60.24096386,3,2,11,,,,,,,,6,05,,,,,,,,,,,6,1.603,1,,,,,,-0.16187501,-0.410624981,1,0,0,1.6026,Pegmatite_rect,10,0,10,0,1,
6018a5c0e1600b187ccb8693,TCR,2024-06-20_16h30.45.236,LearnStrategy,2023.2.3,Win32,60.24096386,3,2,12,,,,,,,,4,08,,,,,,,,,,,8,19.423,0,,,,,,0.331875038,-0.391250038,1,0,0,19.4227,Pumice_rect,11,0,11,0,1,
6018a5c0e1600b187ccb8693,TCR,2024-06-20_16h30.45.236,LearnStrategy,2023.2.3,Win32,60.24096386,3,2,13,,,,,,,,1,11,,,,,,,,,,,2,0.956,0,,,,,,-0.088749981,-0.25374999,1,0,0,0.9562,Basalt_rect,12,0,12,0,1,
6018a5c0e1600b187ccb8693,TCR,2024-06-20_16h30.45.236,LearnStrategy,2023.2.3,Win32,60.24096386,3,2,14,,,,,,,,5,16,,,,,,,,,,,5,1.261,1,,,,,,-0.37562499,-0.390000057,1,0,0,1.2607,Obsidian_rect,13,0,13,0,1,
6018a5c0e1600b187ccb8693,TCR,2024-06-20_16h30.45.236,LearnStrategy,2023.2.3,Win32,60.24096386,3,2,15,,,,,,,,2,11,,,,,,,,,,,8,3.057,0,,,,,,0.349375057,-0.419999981,1,0,0,3.0572,Pumice_rect,14,0,14,0,1,
6018a5c0e1600b187ccb8693,TCR,2024-06-20_16h30.45.236,LearnStrategy,2023.2.3,Win32,60.24096386,3,2,16,,,,,,,,7,04,,,,,,,,,,,6,1.319,0,,,,,,-0.076874971,-0.394375038,1,0,0,1.3186,Pegmatite_rect,15,0,15,0,1,
6018a5c0e1600b187ccb8693,TCR,2024-06-20_16h30.45.236,LearnStrategy,2023.2.3,Win32,60.24096386,4,1,1,-0.06500001,0.00562501,1,0,0,1.5145,rock_grid_rect_2,8,14,-1,-1,1.514,-0.166874981,-0.25,1,0,0,1.1954,Basalt_rect,2,1.195,0,0,0,0,0,1,,,,,,,,,,,,,
6018a5c0e1600b187ccb8693,TCR,2024-06-20_16h30.45.236,LearnStrategy,2023.2.3,Win32,60.24096386,4,1,2,-0.011249971,0.00374999,1,0,0,0.981,rock_grid_rect_2,4,16,-1,-1,0.981,-0.457500005,-0.397500038,1,0,0,1.111,Obsidian_rect,5,1.111,0,1,0,1,0,1,,,,,,,,,,,,,
6018a5c0e1600b187ccb8693,TCR,2024-06-20_16h30.45.236,LearnStrategy,2023.2.3,Win32,60.24096386,4,1,3,-0.03812499,-0.003125,1,0,0,3.3473,rock_grid_rect_2,1,02,-1,-1,3.347,0.341250038,-0.409375,1,0,0,1.328,Pumice_rect,8,1.328,0,2,0,2,0,1,,,,,,,,,,,,,
6018a5c0e1600b187ccb8693,TCR,2024-06-20_16h30.45.236,LearnStrategy,2023.2.3,Win32,60.24096386,4,1,4,-0.01624999,0.004999971,1,0,0,1.7314,rock_grid_rect_2,8,04,-1,-1,1.731,-0.116874981,-0.251250029,1,0,0,2.9942,Basalt_rect,2,2.994,0,3,0,3,0,1,,,,,,,,,,,,,
6018a5c0e1600b187ccb8693,TCR,2024-06-20_16h30.45.236,LearnStrategy,2023.2.3,Win32,60.24096386,4,1,5,0.034375,-0.00875001,1,0,0,0.8977,rock_grid_rect_2,3,09,-1,-1,0.898,-0.14437499,-0.39375,1,0,0,1.5555,Pegmatite_rect,6,1.556,0,4,0,4,0,1,,,,,,,,,,,,,
6018a5c0e1600b187ccb8693,TCR,2024-06-20_16h30.45.236,LearnStrategy,2023.2.3,Win32,60.24096386,4,1,6,0.15,-0.00875001,1,0,0,1.5412,rock_grid_rect_2,2,08,-1,-1,1.541,-0.334375,-0.393125057,1,0,0,3.2675,Obsidian_rect,5,3.268,0,5,0,5,0,1,,,,,,,,,,,,,
6018a5c0e1600b187ccb8693,TCR,2024-06-20_16h30.45.236,LearnStrategy,2023.2.3,Win32,60.24096386,4,1,7,0.002500057,0.001249981,1,0,0,1.3303,rock_grid_rect_2,4,09,-1,-1,1.33,-0.326249981,-0.414375019,1,0,0,1.9109,Obsidian_rect,5,1.911,0,6,0,6,0,1,,,,,,,,,,,,,
6018a5c0e1600b187ccb8693,TCR,2024-06-20_16h30.45.236,LearnStrategy,2023.2.3,Win32,60.24096386,4,1,8,-0.06812501,-0.0125,1,0,0,0.7984,rock_grid_rect_2,3,09,-1,-1,0.798,-0.14937501,-0.25,1,0,0,1.289,Basalt_rect,2,1.289,0,7,0,7,0,1,,,,,,,,,,,,,
6018a5c0e1600b187ccb8693,TCR,2024-06-20_16h30.45.236,LearnStrategy,2023.2.3,Win32,60.24096386,4,1,9,-0.042499971,-0.00625,1,0,0,1.667,rock_grid_rect_2,2,16,-1,-1,1.667,-0.15062499,-0.24749999,1,0,0,1.4158,Basalt_rect,2,1.416,1,8,0,8,0,1,,,,,,,,,,,,,
6018a5c0e1600b187ccb8693,TCR,2024-06-20_16h30.45.236,LearnStrategy,2023.2.3,Win32,60.24096386,4,1,10,-0.054999971,-0.023125029,1,0,0,0.9316,rock_grid_rect_2,1,03,-1,-1,0.932,-0.10625,-0.23125,1,0,0,1.4596,Basalt_rect,2,1.46,0,9,0,9,0,1,,,,,,,,,,,,,
6018a5c0e1600b187ccb8693,TCR,2024-06-20_16h30.45.236,LearnStrategy,2023.2.3,Win32,60.24096386,4,1,11,-0.084375,-0.001250029,1,0,0,0.9642,rock_grid_rect_2,7,07,-1,-1,0.964,0.392500019,-0.408125019,1,0,0,2.9429,Pumice_rect,8,2.943,0,10,0,10,0,1,,,,,,,,,,,,,
6018a5c0e1600b187ccb8693,TCR,2024-06-20_16h30.45.236,LearnStrategy,2023.2.3,Win32,60.24096386,4,1,12,0.004374981,0.00687499,1,0,0,3.3965,rock_grid_rect_2,7,15,-1,-1,3.397,0.115625,-0.403750038,1,0,0,2.5587,Peridotite_rect,7,2.559,1,11,0,11,0,1,,,,,,,,,,,,,
6018a5c0e1600b187ccb8693,TCR,2024-06-20_16h30.45.236,LearnStrategy,2023.2.3,Win32,60.24096386,4,1,13,-0.017499971,-0.00875001,1,0,0,0.9988,rock_grid_rect_2,8,04,-1,-1,0.999,0.386250019,-0.39375,1,0,0,5.4101,Pumice_rect,8,5.41,1,12,0,12,0,1,,,,,,,,,,,,,
6018a5c0e1600b187ccb8693,TCR,2024-06-20_16h30.45.236,LearnStrategy,2023.2.3,Win32,60.24096386,4,1,14,-0.08187499,-0.01812501,1,0,0,0.8309,rock_grid_rect_2,2,10,-1,-1,0.831,-0.34937501,-0.381875038,1,0,0,1.1946,Obsidian_rect,5,1.195,0,13,0,13,0,1,,,,,,,,,,,,,
6018a5c0e1600b187ccb8693,TCR,2024-06-20_16h30.45.236,LearnStrategy,2023.2.3,Win32,60.24096386,4,1,15,-0.08499999,-0.003125,1,0,0,0.7313,rock_grid_rect_2,6,06,-1,-1,0.731,0.105000019,-0.24749999,1,0,0,1.6434,Diorite_rect,3,1.643,0,14,0,14,0,1,,,,,,,,,,,,,
6018a5c0e1600b187ccb8693,TCR,2024-06-20_16h30.45.236,LearnStrategy,2023.2.3,Win32,60.24096386,4,1,16,-0.014374971,-0.008125019,1,0,0,1.0474,rock_grid_rect_2,5,04,-1,-1,1.047,-0.389374971,-0.408125019,1,0,0,1.1614,Obsidian_rect,5,1.161,1,15,0,15,0,1,,,,,,,,,,,,,
6018a5c0e1600b187ccb8693,TCR,2024-06-20_16h30.45.236,LearnStrategy,2023.2.3,Win32,60.24096386,4,2,1,,,,,,,,4,03,,,,,,,,,,,3,3.11,0,,,,,,0.086250019,-0.27125001,1,0,0,3.1104,Diorite_rect,0,0,0,0,1,
6018a5c0e1600b187ccb8693,TCR,2024-06-20_16h30.45.236,LearnStrategy,2023.2.3,Win32,60.24096386,4,2,2,,,,,,,,1,01,,,,,,,,,,,2,1.046,0,,,,,,-0.07874999,-0.258125019,1,0,0,1.0462,Basalt_rect,1,0,1,0,1,
6018a5c0e1600b187ccb8693,TCR,2024-06-20_16h30.45.236,LearnStrategy,2023.2.3,Win32,60.24096386,4,2,3,,,,,,,,6,09,,,,,,,,,,,6,1.674,1,,,,,,-0.13812499,-0.383125019,1,0,0,1.6736,Pegmatite_rect,2,0,2,0,1,
6018a5c0e1600b187ccb8693,TCR,2024-06-20_16h30.45.236,LearnStrategy,2023.2.3,Win32,60.24096386,4,2,4,,,,,,,,5,11,,,,,,,,,,,5,0.942,1,,,,,,-0.338749981,-0.404374981,1,0,0,0.9421,Obsidian_rect,3,0,3,0,1,
6018a5c0e1600b187ccb8693,TCR,2024-06-20_16h30.45.236,LearnStrategy,2023.2.3,Win32,60.24096386,4,2,5,,,,,,,,7,13,,,,,,,,,,,8,5.437,0,,,,,,0.36875,-0.411875057,1,0,0,5.4373,Pumice_rect,4,0,4,0,1,
6018a5c0e1600b187ccb8693,TCR,2024-06-20_16h30.45.236,LearnStrategy,2023.2.3,Win32,60.24096386,4,2,6,,,,,,,,5,12,,,,,,,,,,,5,1.01,1,,,,,,-0.336249971,-0.391874981,1,0,0,1.0097,Obsidian_rect,5,0,5,0,1,
6018a5c0e1600b187ccb8693,TCR,2024-06-20_16h30.45.236,LearnStrategy,2023.2.3,Win32,60.24096386,4,2,7,,,,,,,,6,05,,,,,,,,,,,6,2.692,1,,,,,,-0.07562499,-0.402500057,1,0,0,2.6917,Pegmatite_rect,6,0,6,0,1,
6018a5c0e1600b187ccb8693,TCR,2024-06-20_16h30.45.236,LearnStrategy,2023.2.3,Win32,60.24096386,4,2,8,,,,,,,,1,11,,,,,,,,,,,7,7.03,0,,,,,,0.1875,-0.404374981,1,0,0,7.0295,Peridotite_rect,7,0,7,0,1,
6018a5c0e1600b187ccb8693,TCR,2024-06-20_16h30.45.236,LearnStrategy,2023.2.3,Win32,60.24096386,4,2,9,,,,,,,,3,16,,,,,,,,,,,6,1.979,0,,,,,,-0.07437501,-0.401249981,1,0,0,1.9792,Pegmatite_rect,8,0,8,0,1,
6018a5c0e1600b187ccb8693,TCR,2024-06-20_16h30.45.236,LearnStrategy,2023.2.3,Win32,60.24096386,4,2,10,,,,,,,,2,04,,,,,,,,,,,2,1.212,1,,,,,,-0.121875,-0.258125019,1,0,0,1.2115,Basalt_rect,9,0,9,0,1,
6018a5c0e1600b187ccb8693,TCR,2024-06-20_16h30.45.236,LearnStrategy,2023.2.3,Win32,60.24096386,4,2,11,,,,,,,,8,05,,,,,,,,,,,8,1.602,1,,,,,,0.334375,-0.394999981,1,0,0,1.6022,Pumice_rect,10,0,10,0,1,
6018a5c0e1600b187ccb8693,TCR,2024-06-20_16h30.45.236,LearnStrategy,2023.2.3,Win32,60.24096386,4,2,12,,,,,,,,8,03,,,,,,,,,,,8,4.283,1,,,,,,0.415625,-0.417500019,1,0,0,4.2833,Pumice_rect,11,0,11,0,1,
6018a5c0e1600b187ccb8693,TCR,2024-06-20_16h30.45.236,LearnStrategy,2023.2.3,Win32,60.24096386,4,2,13,,,,,,,,3,08,,,,,,,,,,,6,2.266,0,,,,,,-0.058124971,-0.398750019,1,0,0,2.2661,Pegmatite_rect,12,0,12,0,1,
6018a5c0e1600b187ccb8693,TCR,2024-06-20_16h30.45.236,LearnStrategy,2023.2.3,Win32,60.24096386,4,2,14,,,,,,,,2,05,,,,,,,,,,,2,1.327,1,,,,,,-0.12437501,-0.263750029,1,0,0,1.3274,Basalt_rect,13,0,13,0,1,
6018a5c0e1600b187ccb8693,TCR,2024-06-20_16h30.45.236,LearnStrategy,2023.2.3,Win32,60.24096386,4,2,15,,,,,,,,4,01,,,,,,,,,,,4,3.175,1,,,,,,0.378750038,-0.251250029,1,0,0,3.175,Gabbro_rect,14,0,14,0,1,
6018a5c0e1600b187ccb8693,TCR,2024-06-20_16h30.45.236,LearnStrategy,2023.2.3,Win32,60.24096386,4,2,16,,,,,,,,7,12,,,,,,,,,,,6,1.034,0,,,,,,-0.04375,-0.385624981,1,0,0,1.0338,Pegmatite_rect,15,0,15,0,1,
6018a5c0e1600b187ccb8693,TCR,2024-06-20_16h30.45.236,LearnStrategy,2023.2.3,Win32,60.24096386,5,1,1,0.011250019,-0.003125,1,0,0,18.3144,rock_grid_rect_2,2,09,-1,-1,18.314,-0.12249999,-0.24937501,1,0,0,1.7497,Basalt_rect,2,1.75,1,0,0,0,0,1,,,,,,,,,,,,,
6018a5c0e1600b187ccb8693,TCR,2024-06-20_16h30.45.236,LearnStrategy,2023.2.3,Win32,60.24096386,5,1,2,-0.011249971,0.00999999,1,0,0,1.1897,rock_grid_rect_2,7,08,-1,-1,1.19,-0.09124999,-0.401249981,1,0,0,2.4517,Pegmatite_rect,6,2.452,0,1,0,1,0,1,,,,,,,,,,,,,
6018a5c0e1600b187ccb8693,TCR,2024-06-20_16h30.45.236,LearnStrategy,2023.2.3,Win32,60.24096386,5,1,3,0.013749981,0.020624971,1,0,0,0.7311,rock_grid_rect_2,4,10,-1,-1,0.731,0.044375038,-0.410624981,1,0,0,1.5942,Peridotite_rect,7,1.594,0,2,0,2,0,1,,,,,,,,,,,,,
6018a5c0e1600b187ccb8693,TCR,2024-06-20_16h30.45.236,LearnStrategy,2023.2.3,Win32,60.24096386,5,1,4,0.029374981,-0.016875029,1,0,0,1.1478,rock_grid_rect_2,1,10,-1,-1,1.148,0.079374981,-0.270625019,1,0,0,1.9428,Diorite_rect,3,1.943,0,3,0,3,0,1,,,,,,,,,,,,,
6018a5c0e1600b187ccb8693,TCR,2024-06-20_16h30.45.236,LearnStrategy,2023.2.3,Win32,60.24096386,5,1,5,-0.0375,0.00562501,1,0,0,1.1812,rock_grid_rect_2,3,07,-1,-1,1.181,-0.125,-0.405625057,1,0,0,2.5094,Pegmatite_rect,6,2.509,0,4,0,4,0,1,,,,,,,,,,,,,
6018a5c0e1600b187ccb8693,TCR,2024-06-20_16h30.45.236,LearnStrategy,2023.2.3,Win32,60.24096386,5,1,6,0.010624981,-0.00625,1,0,0,1.6803,rock_grid_rect_2,7,10,-1,-1,1.68,-0.103125,-0.394999981,1,0,0,8.6093,Pegmatite_rect,6,8.609,0,5,0,5,0,1,,,,,,,,,,,,,
6018a5c0e1600b187ccb8693,TCR,2024-06-20_16h30.45.236,LearnStrategy,2023.2.3,Win32,60.24096386,5,1,7,-0.059375,-0.01624999,1,0,0,1.0798,rock_grid_rect_2,4,16,-1,-1,1.08,-0.126249981,-0.24375,1,0,0,1.0586,Basalt_rect,2,1.059,0,6,0,6,0,1,,,,,,,,,,,,,
6018a5c0e1600b187ccb8693,TCR,2024-06-20_16h30.45.236,LearnStrategy,2023.2.3,Win32,60.24096386,5,1,8,-0.053125,-0.020000029,1,0,0,1.3809,rock_grid_rect_2,3,02,-1,-1,1.381,0.081875038,-0.382499981,1,0,0,1.2934,Peridotite_rect,7,1.293,0,7,0,7,0,1,,,,,,,,,,,,,
6018a5c0e1600b187ccb8693,TCR,2024-06-20_16h30.45.236,LearnStrategy,2023.2.3,Win32,60.24096386,5,1,9,-0.039374971,-0.00062499,1,0,0,1.0971,rock_grid_rect_2,5,10,-1,-1,1.097,-0.369999981,-0.385624981,1,0,0,1.3453,Obsidian_rect,5,1.345,1,8,0,8,0,1,,,,,,,,,,,,,
6018a5c0e1600b187ccb8693,TCR,2024-06-20_16h30.45.236,LearnStrategy,2023.2.3,Win32,60.24096386,5,1,10,-0.08125,-0.00250001,1,0,0,1.0646,rock_grid_rect_2,7,10,-1,-1,1.065,-0.096875,-0.385000038,1,0,0,4.6257,Pegmatite_rect,6,4.626,0,9,0,9,0,1,,,,,,,,,,,,,
6018a5c0e1600b187ccb8693,TCR,2024-06-20_16h30.45.236,LearnStrategy,2023.2.3,Win32,60.24096386,5,1,11,-0.085624981,-0.014375019,1,0,0,1.0467,rock_grid_rect_2,2,10,-1,-1,1.047,-0.198124981,-0.24312501,1,0,0,1.3917,Basalt_rect,2,1.392,1,10,0,10,0,1,,,,,,,,,,,,,
6018a5c0e1600b187ccb8693,TCR,2024-06-20_16h30.45.236,LearnStrategy,2023.2.3,Win32,60.24096386,5,1,12,-0.048749971,0.020624971,1,0,0,1.1809,rock_grid_rect_2,8,09,-1,-1,1.181,0.385000038,-0.405625057,1,0,0,3.4925,Pumice_rect,8,3.492,1,11,0,11,0,1,,,,,,,,,,,,,
6018a5c0e1600b187ccb8693,TCR,2024-06-20_16h30.45.236,LearnStrategy,2023.2.3,Win32,60.24096386,5,1,13,-0.01500001,-0.023750019,1,0,0,1.6969,rock_grid_rect_2,1,16,-1,-1,1.697,-0.12874999,-0.403750038,1,0,0,63.0351,Pegmatite_rect,6,63.035,0,12,0,12,0,1,,,,,,,,,,,,,
6018a5c0e1600b187ccb8693,TCR,2024-06-20_16h30.45.236,LearnStrategy,2023.2.3,Win32,60.24096386,5,1,14,-0.06500001,-0.00625,1,0,0,1.6962,rock_grid_rect_2,8,09,-1,-1,1.696,0.344375038,-0.385624981,1,0,0,2.4518,Pumice_rect,8,2.452,1,13,0,13,0,1,,,,,,,,,,,,,
6018a5c0e1600b187ccb8693,TCR,2024-06-20_16h30.45.236,LearnStrategy,2023.2.3,Win32,60.24096386,5,1,15,-0.02874999,-0.01187501,1,0,0,1.2383,rock_grid_rect_2,6,10,-1,-1,1.238,-0.13499999,-0.385000038,1,0,0,2.4426,Pegmatite_rect,6,2.443,1,14,0,14,0,1,,,,,,,,,,,,,
6018a5c0e1600b187ccb8693,TCR,2024-06-20_16h30.45.236,LearnStrategy,2023.2.3,Win32,60.24096386,5,1,16,0.001875019,-0.001250029,1,0,0,2.1633,rock_grid_rect_2,1,16,-1,-1,2.163,-0.109375,-0.389375019,1,0,0,4.9528,Pegmatite_rect,6,4.953,0,15,0,15,0,1,,,,,,,,,,,,,
6018a5c0e1600b187ccb8693,TCR,2024-06-20_16h30.45.236,LearnStrategy,2023.2.3,Win32,60.24096386,5,2,1,,,,,,,,3,11,,,,,,,,,,,6,6.336,0,,,,,,-0.090625,-0.383750057,1,0,0,6.3364,Pegmatite_rect,0,0,0,0,1,
6018a5c0e1600b187ccb8693,TCR,2024-06-20_16h30.45.236,LearnStrategy,2023.2.3,Win32,60.24096386,5,2,2,,,,,,,,4,14,,,,,,,,,,,2,1.834,0,,,,,,-0.146875,-0.258125019,1,0,0,1.8344,Basalt_rect,1,0,1,0,1,
6018a5c0e1600b187ccb8693,TCR,2024-06-20_16h30.45.236,LearnStrategy,2023.2.3,Win32,60.24096386,5,2,3,,,,,,,,6,15,,,,,,,,,,,6,4.026,1,,,,,,-0.058124971,-0.398750019,1,0,0,4.0263,Pegmatite_rect,2,0,2,0,1,
6018a5c0e1600b187ccb8693,TCR,2024-06-20_16h30.45.236,LearnStrategy,2023.2.3,Win32,60.24096386,5,2,4,,,,,,,,7,02,,,,,,,,,,,7,5.963,1,,,,,,0.055625057,-0.383125019,1,0,0,5.9629,Peridotite_rect,3,0,3,0,1,
6018a5c0e1600b187ccb8693,TCR,2024-06-20_16h30.45.236,LearnStrategy,2023.2.3,Win32,60.24096386,5,2,5,,,,,,,,6,08,,,,,,,,,,,6,1.266,1,,,,,,-0.1,-0.388125038,1,0,0,1.2661,Pegmatite_rect,4,0,4,0,1,
6018a5c0e1600b187ccb8693,TCR,2024-06-20_16h30.45.236,LearnStrategy,2023.2.3,Win32,60.24096386,5,2,6,,,,,,,,2,11,,,,,,,,,,,2,1.628,1,,,,,,-0.11875,-0.266875029,1,0,0,1.6284,Basalt_rect,5,0,5,0,1,
6018a5c0e1600b187ccb8693,TCR,2024-06-20_16h30.45.236,LearnStrategy,2023.2.3,Win32,60.24096386,5,2,7,,,,,,,,8,06,,,,,,,,,,,8,1.635,1,,,,,,0.380000019,-0.419375038,1,0,0,1.6353,Pumice_rect,6,0,6,0,1,
6018a5c0e1600b187ccb8693,TCR,2024-06-20_16h30.45.236,LearnStrategy,2023.2.3,Win32,60.24096386,5,2,8,,,,,,,,2,14,,,,,,,,,,,2,1.834,1,,,,,,-0.119999981,-0.266875029,1,0,0,1.8344,Basalt_rect,7,0,7,0,1,
6018a5c0e1600b187ccb8693,TCR,2024-06-20_16h30.45.236,LearnStrategy,2023.2.3,Win32,60.24096386,5,2,9,,,,,,,,5,02,,,,,,,,,,,5,2.193,1,,,,,,-0.40687499,-0.401875019,1,0,0,2.193,Obsidian_rect,8,0,8,0,1,
6018a5c0e1600b187ccb8693,TCR,2024-06-20_16h30.45.236,LearnStrategy,2023.2.3,Win32,60.24096386,5,2,10,,,,,,,,7,05,,,,,,,,,,,6,6.672,0,,,,,,-0.123749971,-0.402500057,1,0,0,6.6724,Pegmatite_rect,9,0,9,0,1,
6018a5c0e1600b187ccb8693,TCR,2024-06-20_16h30.45.236,LearnStrategy,2023.2.3,Win32,60.24096386,5,2,11,,,,,,,,4,08,,,,,,,,,,,2,1.508,0,,,,,,-0.12125001,-0.248125029,1,0,0,1.5083,Basalt_rect,10,0,10,0,1,
6018a5c0e1600b187ccb8693,TCR,2024-06-20_16h30.45.236,LearnStrategy,2023.2.3,Win32,60.24096386,5,2,12,,,,,,,,1,05,,,,,,,,,,,6,2.691,0,,,,,,-0.101874971,-0.384375,1,0,0,2.6906,Pegmatite_rect,11,0,11,0,1,
6018a5c0e1600b187ccb8693,TCR,2024-06-20_16h30.45.236,LearnStrategy,2023.2.3,Win32,60.24096386,5,2,13,,,,,,,,1,06,,,,,,,,,,,7,2.803,0,,,,,,0.077500057,-0.382499981,1,0,0,2.8032,Peridotite_rect,12,0,12,0,1,
6018a5c0e1600b187ccb8693,TCR,2024-06-20_16h30.45.236,LearnStrategy,2023.2.3,Win32,60.24096386,5,2,14,,,,,,,,3,13,,,,,,,,,,,6,2.465,0,,,,,,-0.05250001,-0.395625019,1,0,0,2.4652,Pegmatite_rect,13,0,13,0,1,
6018a5c0e1600b187ccb8693,TCR,2024-06-20_16h30.45.236,LearnStrategy,2023.2.3,Win32,60.24096386,5,2,15,,,,,,,,5,06,,,,,,,,,,,5,1.437,1,,,,,,-0.33187499,-0.393125057,1,0,0,1.4367,Obsidian_rect,14,0,14,0,1,
6018a5c0e1600b187ccb8693,TCR,2024-06-20_16h30.45.236,LearnStrategy,2023.2.3,Win32,60.24096386,5,2,16,,,,,,,,8,16,,,,,,,,,,,2,0.787,0,,,,,,-0.139374971,-0.265625,1,0,0,0.7866,Basalt_rect,15,0,15,0,1,
6018a5c0e1600b187ccb8693,TCR,2024-06-20_16h30.45.236,LearnStrategy,2023.2.3,Win32,60.24096386,6,1,1,-0.075,-0.004375029,1,0,0,0.9014,rock_grid_rect_2,7,14,-1,-1,0.901,0.077500057,-0.230000019,1,0,0,1.2994,Diorite_rect,3,1.299,0,0,0,0,0,1,,,,,,,,,,,,,
6018a5c0e1600b187ccb8693,TCR,2024-06-20_16h30.45.236,LearnStrategy,2023.2.3,Win32,60.24096386,6,1,2,-0.116874981,-0.00875001,1,0,0,1.0972,rock_grid_rect_2,1,16,-1,-1,1.097,-0.11624999,-0.23812499,1,0,0,0.8265,Basalt_rect,2,0.827,0,1,0,1,0,1,,,,,,,,,,,,,
6018a5c0e1600b187ccb8693,TCR,2024-06-20_16h30.45.236,LearnStrategy,2023.2.3,Win32,60.24096386,6,1,3,-0.041874981,-0.00875001,1,0,0,1.1817,rock_grid_rect_2,6,07,-1,-1,1.182,-0.07750001,-0.382499981,1,0,0,1.6746,Pegmatite_rect,6,1.675,1,2,0,2,0,1,,,,,,,,,,,,,
6018a5c0e1600b187ccb8693,TCR,2024-06-20_16h30.45.236,LearnStrategy,2023.2.3,Win32,60.24096386,6,1,4,-0.107499981,-0.00625,1,0,0,1.348,rock_grid_rect_2,4,15,-1,-1,1.348,-0.20062499,-0.398750019,1,0,0,4.162,Pegmatite_rect,6,4.162,0,3,0,3,0,1,,,,,,,,,,,,,
6018a5c0e1600b187ccb8693,TCR,2024-06-20_16h30.45.236,LearnStrategy,2023.2.3,Win32,60.24096386,6,1,5,-0.09375,-0.014375019,1,0,0,0.998,rock_grid_rect_2,3,07,-1,-1,0.998,0.104374981,-0.420625019,1,0,0,3.8881,Peridotite_rect,7,3.888,0,4,0,4,0,1,,,,,,,,,,,,,
6018a5c0e1600b187ccb8693,TCR,2024-06-20_16h30.45.236,LearnStrategy,2023.2.3,Win32,60.24096386,6,1,6,-0.023749971,-0.00374999,1,0,0,1.4648,rock_grid_rect_2,8,04,-1,-1,1.465,-0.12750001,-0.255000019,1,0,0,0.9948,Basalt_rect,2,0.995,0,5,0,5,0,1,,,,,,,,,,,,,
6018a5c0e1600b187ccb8693,TCR,2024-06-20_16h30.45.236,LearnStrategy,2023.2.3,Win32,60.24096386,6,1,7,-0.03062501,0.008124971,1,0,0,1.2142,rock_grid_rect_2,7,08,-1,-1,1.214,-0.141874981,-0.254375029,1,0,0,2.2779,Basalt_rect,2,2.278,0,6,0,6,0,1,,,,,,,,,,,,,
6018a5c0e1600b187ccb8693,TCR,2024-06-20_16h30.45.236,LearnStrategy,2023.2.3,Win32,60.24096386,6,1,8,0.058125019,-0.01500001,1,0,0,1.6366,rock_grid_rect_2,5,04,-1,-1,1.637,-0.39124999,-0.416250038,1,0,0,1.8262,Obsidian_rect,5,1.826,1,7,0,7,0,1,,,,,,,,,,,,,
6018a5c0e1600b187ccb8693,TCR,2024-06-20_16h30.45.236,LearnStrategy,2023.2.3,Win32,60.24096386,6,1,9,-0.03687501,-0.003125,1,0,0,5.9931,rock_grid_rect_2,4,05,-1,-1,5.993,-0.125,-0.25,1,0,0,33.1118,Basalt_rect,2,33.112,0,8,0,8,0,1,,,,,,,,,,,,,
6018a5c0e1600b187ccb8693,TCR,2024-06-20_16h30.45.236,LearnStrategy,2023.2.3,Win32,60.24096386,6,1,10,-0.02750001,0.00875001,1,0,0,1.131,rock_grid_rect_2,3,09,-1,-1,1.131,-0.119999981,-0.417500019,1,0,0,5.9402,Pegmatite_rect,6,5.94,0,9,0,9,0,1,,,,,,,,,,,,,
6018a5c0e1600b187ccb8693,TCR,2024-06-20_16h30.45.236,LearnStrategy,2023.2.3,Win32,60.24096386,6,1,11,-0.029999971,0.004374981,1,0,0,1.2475,rock_grid_rect_2,1,03,-1,-1,1.247,-0.15999999,-0.260625029,1,0,0,1.4618,Basalt_rect,2,1.462,0,10,0,10,0,1,,,,,,,,,,,,,
6018a5c0e1600b187ccb8693,TCR,2024-06-20_16h30.45.236,LearnStrategy,2023.2.3,Win32,60.24096386,6,1,12,-0.029999971,0.001249981,1,0,0,4.7145,rock_grid_rect_2,4,16,-1,-1,4.715,-0.098124981,-0.248750019,1,0,0,0.9438,Basalt_rect,2,0.944,0,11,0,11,0,1,,,,,,,,,,,,,
6018a5c0e1600b187ccb8693,TCR,2024-06-20_16h30.45.236,LearnStrategy,2023.2.3,Win32,60.24096386,6,1,13,-0.066874981,-0.00374999,1,0,0,0.7149,rock_grid_rect_2,1,10,-1,-1,0.715,-0.19749999,-0.388749981,1,0,0,1.1765,Pegmatite_rect,6,1.177,0,12,0,12,0,1,,,,,,,,,,,,,
6018a5c0e1600b187ccb8693,TCR,2024-06-20_16h30.45.236,LearnStrategy,2023.2.3,Win32,60.24096386,6,1,14,-0.038749981,-0.014375019,1,0,0,3.8309,rock_grid_rect_2,8,02,-1,-1,3.831,-0.12249999,-0.251250029,1,0,0,1.6769,Basalt_rect,2,1.677,0,13,0,13,0,1,,,,,,,,,,,,,
6018a5c0e1600b187ccb8693,TCR,2024-06-20_16h30.45.236,LearnStrategy,2023.2.3,Win32,60.24096386,6,1,15,-0.01500001,-0.00250001,1,0,0,1.1645,rock_grid_rect_2,3,12,-1,-1,1.164,-0.129374981,-0.401875019,1,0,0,4.3723,Pegmatite_rect,6,4.372,0,14,0,14,0,1,,,,,,,,,,,,,
6018a5c0e1600b187ccb8693,TCR,2024-06-20_16h30.45.236,LearnStrategy,2023.2.3,Win32,60.24096386,6,1,16,-0.05,-0.023750019,1,0,0,0.7144,rock_grid_rect_2,2,16,-1,-1,0.714,-0.135624981,-0.246875,1,0,0,1.2212,Basalt_rect,2,1.221,1,15,0,15,0,1,,,,,,,,,,,,,
6018a5c0e1600b187ccb8693,TCR,2024-06-20_16h30.45.236,LearnStrategy,2023.2.3,Win32,60.24096386,6,2,1,,,,,,,,7,16,,,,,,,,,,,3,3.834,0,,,,,,0.098124981,-0.24312501,1,0,0,3.8344,Diorite_rect,0,0,0,0,1,
6018a5c0e1600b187ccb8693,TCR,2024-06-20_16h30.45.236,LearnStrategy,2023.2.3,Win32,60.24096386,6,2,2,,,,,,,,8,13,,,,,,,,,,,2,1.08,0,,,,,,-0.07437501,-0.255000019,1,0,0,1.08,Basalt_rect,1,0,1,0,1,
6018a5c0e1600b187ccb8693,TCR,2024-06-20_16h30.45.236,LearnStrategy,2023.2.3,Win32,60.24096386,6,2,3,,,,,,,,3,06,,,,,,,,,,,6,0.978,0,,,,,,-0.141874981,-0.38125,1,0,0,0.9781,Pegmatite_rect,2,0,2,0,1,
6018a5c0e1600b187ccb8693,TCR,2024-06-20_16h30.45.236,LearnStrategy,2023.2.3,Win32,60.24096386,6,2,4,,,,,,,,4,13,,,,,,,,,,,2,3.6,0,,,,,,-0.15687499,-0.259375,1,0,0,3.5999,Basalt_rect,3,0,3,0,1,
6018a5c0e1600b187ccb8693,TCR,2024-06-20_16h30.45.236,LearnStrategy,2023.2.3,Win32,60.24096386,6,2,5,,,,,,,,2,02,,,,,,,,,,,2,0.797,1,,,,,,-0.15562501,-0.259375,1,0,0,0.7968,Basalt_rect,4,0,4,0,1,
6018a5c0e1600b187ccb8693,TCR,2024-06-20_16h30.45.236,LearnStrategy,2023.2.3,Win32,60.24096386,6,2,6,,,,,,,,7,04,,,,,,,,,,,6,0.886,0,,,,,,-0.15250001,-0.395625019,1,0,0,0.8855,Pegmatite_rect,5,0,5,0,1,
6018a5c0e1600b187ccb8693,TCR,2024-06-20_16h30.45.236,LearnStrategy,2023.2.3,Win32,60.24096386,6,2,7,,,,,,,,6,03,,,,,,,,,,,6,1.17,1,,,,,,-0.12750001,-0.391874981,1,0,0,1.1698,Pegmatite_rect,6,0,6,0,1,
6018a5c0e1600b187ccb8693,TCR,2024-06-20_16h30.45.236,LearnStrategy,2023.2.3,Win32,60.24096386,6,2,8,,,,,,,,5,14,,,,,,,,,,,5,1.16,1,,,,,,-0.403125,-0.411250019,1,0,0,1.1597,Obsidian_rect,7,0,7,0,1,
6018a5c0e1600b187ccb8693,TCR,2024-06-20_16h30.45.236,LearnStrategy,2023.2.3,Win32,60.24096386,6,2,9,,,,,,,,4,11,,,,,,,,,,,2,1.908,0,,,,,,-0.144999981,-0.258125019,1,0,0,1.9078,Basalt_rect,8,0,8,0,1,
6018a5c0e1600b187ccb8693,TCR,2024-06-20_16h30.45.236,LearnStrategy,2023.2.3,Win32,60.24096386,6,2,10,,,,,,,,1,14,,,,,,,,,,,6,1.368,0,,,,,,-0.125,-0.385624981,1,0,0,1.3681,Pegmatite_rect,9,0,9,0,1,
6018a5c0e1600b187ccb8693,TCR,2024-06-20_16h30.45.236,LearnStrategy,2023.2.3,Win32,60.24096386,6,2,11,,,,,,,,3,14,,,,,,,,,,,7,1.584,0,,,,,,0.089375019,-0.394999981,1,0,0,1.5843,Peridotite_rect,10,0,10,0,1,
6018a5c0e1600b187ccb8693,TCR,2024-06-20_16h30.45.236,LearnStrategy,2023.2.3,Win32,60.24096386,6,2,12,,,,,,,,6,12,,,,,,,,,,,6,1.458,1,,,,,,-0.11875,-0.407499981,1,0,0,1.4584,Pegmatite_rect,11,0,11,0,1,
6018a5c0e1600b187ccb8693,TCR,2024-06-20_16h30.45.236,LearnStrategy,2023.2.3,Win32,60.24096386,6,2,13,,,,,,,,1,07,,,,,,,,,,,6,1.203,0,,,,,,-0.078125,-0.409375,1,0,0,1.2029,Pegmatite_rect,12,0,12,0,1,
6018a5c0e1600b187ccb8693,TCR,2024-06-20_16h30.45.236,LearnStrategy,2023.2.3,Win32,60.24096386,6,2,14,,,,,,,,8,08,,,,,,,,,,,2,2.936,0,,,,,,-0.10062499,-0.260625029,1,0,0,2.9357,Basalt_rect,13,0,13,0,1,
6018a5c0e1600b187ccb8693,TCR,2024-06-20_16h30.45.236,LearnStrategy,2023.2.3,Win32,60.24096386,6,2,15,,,,,,,,2,12,,,,,,,,,,,8,9.24,0,,,,,,0.36875,-0.409375,1,0,0,9.2402,Pumice_rect,14,0,14,0,1,
6018a5c0e1600b187ccb8693,TCR,2024-06-20_16h30.45.236,LearnStrategy,2023.2.3,Win32,60.24096386,6,2,16,,,,,,,,5,16,,,,,,,,,,,5,1.281,1,,,,,,-0.386249971,-0.419375038,1,0,0,1.2805,Obsidian_rect,15,0,15,0,1,
6018a5c0e1600b187ccb8693,TCR,2024-06-20_16h30.45.236,LearnStrategy,2023.2.3,Win32,60.24096386,7,1,1,0.001249981,0.00625,1,0,0,1.3651,rock_grid_rect_2,1,16,-1,-1,1.365,-0.158124971,-0.25062499,1,0,0,65.5858,Basalt_rect,2,65.586,0,0,0,0,0,1,,,,,,,,,,,,,
6018a5c0e1600b187ccb8693,TCR,2024-06-20_16h30.45.236,LearnStrategy,2023.2.3,Win32,60.24096386,7,1,2,0.001875019,-0.02249999,1,0,0,1.6811,rock_grid_rect_2,1,10,-1,-1,1.681,-0.14000001,-0.2375,1,0,0,1.1927,Basalt_rect,2,1.193,0,1,0,1,0,1,,,,,,,,,,,,,
6018a5c0e1600b187ccb8693,TCR,2024-06-20_16h30.45.236,LearnStrategy,2023.2.3,Win32,60.24096386,7,1,3,-0.041874981,-0.008125019,1,0,0,1.0806,rock_grid_rect_2,2,10,-1,-1,1.081,-0.154999971,-0.24312501,1,0,0,2.0094,Basalt_rect,2,2.009,1,2,0,2,0,1,,,,,,,,,,,,,
6018a5c0e1600b187ccb8693,TCR,2024-06-20_16h30.45.236,LearnStrategy,2023.2.3,Win32,60.24096386,7,1,4,-0.04437499,0.004999971,1,0,0,1.2977,rock_grid_rect_2,2,10,-1,-1,1.298,-0.14124999,-0.23812499,1,0,0,9.1437,Basalt_rect,2,9.144,1,3,0,3,0,1,,,,,,,,,,,,,
6018a5c0e1600b187ccb8693,TCR,2024-06-20_16h30.45.236,LearnStrategy,2023.2.3,Win32,60.24096386,7,1,5,-0.01312499,-0.02125001,1,0,0,3.7298,rock_grid_rect_2,4,16,-1,-1,3.73,-0.16624999,-0.246875,1,0,0,1.4104,Basalt_rect,2,1.41,0,4,0,4,0,1,,,,,,,,,,,,,
6018a5c0e1600b187ccb8693,TCR,2024-06-20_16h30.45.236,LearnStrategy,2023.2.3,Win32,60.24096386,7,1,6,-0.08375001,0.004999971,1,0,0,1.631,rock_grid_rect_2,8,15,-1,-1,1.631,-0.153125,-0.25062499,1,0,0,7.488,Basalt_rect,2,7.488,0,5,0,5,0,1,,,,,,,,,,,,,
6018a5c0e1600b187ccb8693,TCR,2024-06-20_16h30.45.236,LearnStrategy,2023.2.3,Win32,60.24096386,7,1,7,-0.01937499,-0.00374999,1,0,0,4.7465,rock_grid_rect_2,4,12,-1,-1,4.746,-0.151874971,-0.408125019,1,0,0,6.4761,Pegmatite_rect,6,6.476,0,6,0,6,0,1,,,,,,,,,,,,,
6018a5c0e1600b187ccb8693,TCR,2024-06-20_16h30.45.236,LearnStrategy,2023.2.3,Win32,60.24096386,7,1,8,-0.06624999,-0.009375,1,0,0,1.207,rock_grid_rect_2,8,14,-1,-1,1.207,-0.12125001,-0.248750019,1,0,0,0.7676,Basalt_rect,2,0.768,0,7,0,7,0,1,,,,,,,,,,,,,
6018a5c0e1600b187ccb8693,TCR,2024-06-20_16h30.45.236,LearnStrategy,2023.2.3,Win32,60.24096386,7,1,9,-0.0875,0.010624981,1,0,0,0.8146,rock_grid_rect_2,4,12,-1,-1,0.815,-0.148124981,-0.267500019,1,0,0,0.7766,Basalt_rect,2,0.777,0,8,0,8,0,1,,,,,,,,,,,,,
6018a5c0e1600b187ccb8693,TCR,2024-06-20_16h30.45.236,LearnStrategy,2023.2.3,Win32,60.24096386,7,1,10,-0.058124971,-0.001875019,1,0,0,1.3806,rock_grid_rect_2,3,12,-1,-1,1.381,-0.12874999,-0.266875029,1,0,0,2.6547,Basalt_rect,2,2.655,0,9,0,9,0,1,,,,,,,,,,,,,
6018a5c0e1600b187ccb8693,TCR,2024-06-20_16h30.45.236,LearnStrategy,2023.2.3,Win32,60.24096386,7,1,11,0.029374981,0.014374971,1,0,0,1.1595,rock_grid_rect_2,1,03,-1,-1,1.159,-0.125,-0.23687501,1,0,0,1.0629,Basalt_rect,2,1.063,0,10,0,10,0,1,,,,,,,,,,,,,
6018a5c0e1600b187ccb8693,TCR,2024-06-20_16h30.45.236,LearnStrategy,2023.2.3,Win32,60.24096386,7,1,12,-0.013749981,0.00687499,1,0,0,1.049,rock_grid_rect_2,6,10,-1,-1,1.049,-0.1125,-0.261250019,1,0,0,0.843,Basalt_rect,2,0.843,0,11,0,11,0,1,,,,,,,,,,,,,
6018a5c0e1600b187ccb8693,TCR,2024-06-20_16h30.45.236,LearnStrategy,2023.2.3,Win32,60.24096386,7,1,13,-0.034375,0.020624971,1,0,0,1.1314,rock_grid_rect_2,3,10,-1,-1,1.131,-0.13062501,-0.255000019,1,0,0,1.2587,Basalt_rect,2,1.259,0,12,0,12,0,1,,,,,,,,,,,,,
6018a5c0e1600b187ccb8693,TCR,2024-06-20_16h30.45.236,LearnStrategy,2023.2.3,Win32,60.24096386,7,1,14,-0.051249981,0.00562501,1,0,0,1.6649,rock_grid_rect_2,7,07,-1,-1,1.665,-0.13125,-0.24312501,1,0,0,1.0081,Basalt_rect,2,1.008,0,13,0,13,0,1,,,,,,,,,,,,,
6018a5c0e1600b187ccb8693,TCR,2024-06-20_16h30.45.236,LearnStrategy,2023.2.3,Win32,60.24096386,7,1,15,-0.023124981,0.003125,1,0,0,1.1652,rock_grid_rect_2,7,14,-1,-1,1.165,-0.13125,-0.251250029,1,0,0,0.8425,Basalt_rect,2,0.842,0,14,0,14,0,1,,,,,,,,,,,,,
6018a5c0e1600b187ccb8693,TCR,2024-06-20_16h30.45.236,LearnStrategy,2023.2.3,Win32,60.24096386,7,1,16,-0.09000001,-0.004375029,1,0,0,1.2144,rock_grid_rect_2,3,02,-1,-1,1.214,-0.17562499,-0.395625019,1,0,0,0.9952,Pegmatite_rect,6,0.995,0,15,0,15,0,1,,,,,,,,,,,,,
6018a5c0e1600b187ccb8693,TCR,2024-06-20_16h30.45.236,LearnStrategy,2023.2.3,Win32,60.24096386,7,2,1,,,,,,,,3,11,,,,,,,,,,,2,1.952,0,,,,,,-0.126249981,-0.254375029,1,0,0,1.9525,Basalt_rect,0,0,0,0,1,
6018a5c0e1600b187ccb8693,TCR,2024-06-20_16h30.45.236,LearnStrategy,2023.2.3,Win32,60.24096386,7,2,2,,,,,,,,8,03,,,,,,,,,,,2,1.188,0,,,,,,-0.09437499,-0.266875029,1,0,0,1.1884,Basalt_rect,1,0,1,0,1,
6018a5c0e1600b187ccb8693,TCR,2024-06-20_16h30.45.236,LearnStrategy,2023.2.3,Win32,60.24096386,7,2,3,,,,,,,,4,11,,,,,,,,,,,2,34.437,0,,,,,,-0.14000001,-0.245000029,1,0,0,34.4372,Basalt_rect,2,0,2,0,1,
6018a5c0e1600b187ccb8693,TCR,2024-06-20_16h30.45.236,LearnStrategy,2023.2.3,Win32,60.24096386,7,2,4,,,,,,,,7,16,,,,,,,,,,,6,0.927,0,,,,,,-0.117499971,-0.391874981,1,0,0,0.9273,Pegmatite_rect,3,0,3,0,1,
6018a5c0e1600b187ccb8693,TCR,2024-06-20_16h30.45.236,LearnStrategy,2023.2.3,Win32,60.24096386,7,2,5,,,,,,,,6,15,,,,,,,,,,,6,1.393,1,,,,,,-0.151874971,-0.401875019,1,0,0,1.3934,Pegmatite_rect,4,0,4,0,1,
6018a5c0e1600b187ccb8693,TCR,2024-06-20_16h30.45.236,LearnStrategy,2023.2.3,Win32,60.24096386,7,2,6,,,,,,,,2,12,,,,,,,,,,,2,0.644,1,,,,,,-0.119999981,-0.26312499,1,0,0,0.6443,Basalt_rect,5,0,5,0,1,
6018a5c0e1600b187ccb8693,TCR,2024-06-20_16h30.45.236,LearnStrategy,2023.2.3,Win32,60.24096386,7,2,7,,,,,,,,8,06,,,,,,,,,,,2,1.637,0,,,,,,-0.169999981,-0.24437499,1,0,0,1.6371,Basalt_rect,6,0,6,0,1,
6018a5c0e1600b187ccb8693,TCR,2024-06-20_16h30.45.236,LearnStrategy,2023.2.3,Win32,60.24096386,7,2,8,,,,,,,,5,02,,,,,,,,,,,5,4.917,1,,,,,,-0.37562499,-0.408750057,1,0,0,4.9173,Obsidian_rect,7,0,7,0,1,
6018a5c0e1600b187ccb8693,TCR,2024-06-20_16h30.45.236,LearnStrategy,2023.2.3,Win32,60.24096386,7,2,9,,,,,,,,1,06,,,,,,,,,,,2,1.452,0,,,,,,-0.1875,-0.2375,1,0,0,1.4516,Basalt_rect,8,0,8,0,1,
6018a5c0e1600b187ccb8693,TCR,2024-06-20_16h30.45.236,LearnStrategy,2023.2.3,Win32,60.24096386,7,2,10,,,,,,,,6,12,,,,,,,,,,,2,0.886,0,,,,,,-0.119999981,-0.267500019,1,0,0,0.8856,Basalt_rect,9,0,9,0,1,
6018a5c0e1600b187ccb8693,TCR,2024-06-20_16h30.45.236,LearnStrategy,2023.2.3,Win32,60.24096386,7,2,11,,,,,,,,4,13,,,,,,,,,,,2,1.069,0,,,,,,-0.098749971,-0.24625001,1,0,0,1.0688,Basalt_rect,10,0,10,0,1,
6018a5c0e1600b187ccb8693,TCR,2024-06-20_16h30.45.236,LearnStrategy,2023.2.3,Win32,60.24096386,7,2,12,,,,,,,,2,11,,,,,,,,,,,2,18.19,1,,,,,,-0.17249999,-0.25875001,1,0,0,18.1896,Basalt_rect,11,0,11,0,1,
6018a5c0e1600b187ccb8693,TCR,2024-06-20_16h30.45.236,LearnStrategy,2023.2.3,Win32,60.24096386,7,2,13,,,,,,,,1,11,,,,,,,,,,,2,284.095,0,,,,,,-0.20562501,-0.2375,1,0,0,284.0951,Basalt_rect,12,0,12,0,1,
6018a5c0e1600b187ccb8693,TCR,2024-06-20_16h30.45.236,LearnStrategy,2023.2.3,Win32,60.24096386,7,2,14,,,,,,,,5,14,,,,,,,,,,,5,1.252,1,,,,,,-0.40625,-0.404374981,1,0,0,1.2523,Obsidian_rect,13,0,13,0,1,
6018a5c0e1600b187ccb8693,TCR,2024-06-20_16h30.45.236,LearnStrategy,2023.2.3,Win32,60.24096386,7,2,15,,,,,,,,7,04,,,,,,,,,,,6,59.938,0,,,,,,-0.126874971,-0.393125057,1,0,0,59.9381,Pegmatite_rect,14,0,14,0,1,
6018a5c0e1600b187ccb8693,TCR,2024-06-20_16h30.45.236,LearnStrategy,2023.2.3,Win32,60.24096386,7,2,16,,,,,,,,3,08,,,,,,,,,,,6,11.412,0,,,,,,-0.13812499,-0.390625,1,0,0,11.4121,Pegmatite_rect,15,0,15,0,1,
6018a5c0e1600b187ccb8693,TCR,2024-06-20_16h30.45.236,LearnStrategy,2023.2.3,Win32,60.24096386,8,1,1,0.014375019,0.003125,1,0,0,1.5154,rock_grid_rect_2,8,09,-1,-1,1.515,0.373750019,-0.393125057,1,0,0,1.327,Pumice_rect,8,1.327,1,0,0,0,0,1,,,,,,,,,,,,,
6018a5c0e1600b187ccb8693,TCR,2024-06-20_16h30.45.236,LearnStrategy,2023.2.3,Win32,60.24096386,8,1,2,-0.061249971,-0.009375,1,0,0,0.7143,rock_grid_rect_2,4,10,-1,-1,0.714,-0.10875001,-0.236250019,1,0,0,1.3749,Basalt_rect,2,1.375,0,1,0,1,0,1,,,,,,,,,,,,,
6018a5c0e1600b187ccb8693,TCR,2024-06-20_16h30.45.236,LearnStrategy,2023.2.3,Win32,60.24096386,8,1,3,-0.014374971,0.00374999,1,0,0,0.8816,rock_grid_rect_2,4,09,-1,-1,0.882,-0.09375,-0.230000019,1,0,0,2.6098,Basalt_rect,2,2.61,0,2,0,2,0,1,,,,,,,,,,,,,
6018a5c0e1600b187ccb8693,TCR,2024-06-20_16h30.45.236,LearnStrategy,2023.2.3,Win32,60.24096386,8,1,4,-0.051874971,-0.005000019,1,0,0,0.998,rock_grid_rect_2,4,10,-1,-1,0.998,-0.125,-0.265625,1,0,0,0.8447,Basalt_rect,2,0.845,0,3,0,3,0,1,,,,,,,,,,,,,
6018a5c0e1600b187ccb8693,TCR,2024-06-20_16h30.45.236,LearnStrategy,2023.2.3,Win32,60.24096386,8,1,5,-0.01624999,0.01500001,1,0,0,1.1476,rock_grid_rect_2,1,09,-1,-1,1.148,-0.13375001,-0.25562501,1,0,0,1.1926,Basalt_rect,2,1.193,0,4,0,4,0,1,,,,,,,,,,,,,
6018a5c0e1600b187ccb8693,TCR,2024-06-20_16h30.45.236,LearnStrategy,2023.2.3,Win32,60.24096386,8,1,6,-0.07125001,-0.01500001,1,0,0,1.0145,rock_grid_rect_2,7,07,-1,-1,1.015,-0.11937499,-0.390000057,1,0,0,1.5757,Pegmatite_rect,6,1.576,0,5,0,5,0,1,,,,,,,,,,,,,
6018a5c0e1600b187ccb8693,TCR,2024-06-20_16h30.45.236,LearnStrategy,2023.2.3,Win32,60.24096386,8,1,7,-0.08812499,-0.001250029,1,0,0,1.1315,rock_grid_rect_2,7,15,-1,-1,1.131,-0.11500001,-0.385000038,1,0,0,1.5184,Pegmatite_rect,6,1.518,0,6,0,6,0,1,,,,,,,,,,,,,
6018a5c0e1600b187ccb8693,TCR,2024-06-20_16h30.45.236,LearnStrategy,2023.2.3,Win32,60.24096386,8,1,8,-0.019999981,-0.013750029,1,0,0,0.8896,rock_grid_rect_2,1,04,-1,-1,0.89,-0.117499971,-0.391250038,1,0,0,2.421,Pegmatite_rect,6,2.421,0,7,0,7,0,1,,,,,,,,,,,,,
6018a5c0e1600b187ccb8693,TCR,2024-06-20_16h30.45.236,LearnStrategy,2023.2.3,Win32,60.24096386,8,1,9,-0.108124971,-0.013750029,1,0,0,1.0079,rock_grid_rect_2,1,09,-1,-1,1.008,-0.35875001,-0.263750029,1,0,0,1.9632,Andesite_rect,1,1.963,1,8,0,8,0,1,,,,,,,,,,,,,
6018a5c0e1600b187ccb8693,TCR,2024-06-20_16h30.45.236,LearnStrategy,2023.2.3,Win32,60.24096386,8,1,10,-0.03499999,-0.0125,1,0,0,0.9476,rock_grid_rect_2,8,14,-1,-1,0.948,-0.136249971,-0.25625,1,0,0,81.6151,Basalt_rect,2,81.615,0,9,0,9,0,1,,,,,,,,,,,,,
6018a5c0e1600b187ccb8693,TCR,2024-06-20_16h30.45.236,LearnStrategy,2023.2.3,Win32,60.24096386,8,1,11,-0.001249981,0.016874981,1,0,0,1.3314,rock_grid_rect_2,3,02,-1,-1,1.331,-0.153125,-0.379374981,1,0,0,1.0922,Pegmatite_rect,6,1.092,0,10,0,10,0,1,,,,,,,,,,,,,
6018a5c0e1600b187ccb8693,TCR,2024-06-20_16h30.45.236,LearnStrategy,2023.2.3,Win32,60.24096386,8,1,12,-0.01500001,-0.00250001,1,0,0,1.5475,rock_grid_rect_2,6,10,-1,-1,1.548,-0.1375,-0.403125,1,0,0,1.7111,Pegmatite_rect,6,1.711,1,11,0,11,0,1,,,,,,,,,,,,,
6018a5c0e1600b187ccb8693,TCR,2024-06-20_16h30.45.236,LearnStrategy,2023.2.3,Win32,60.24096386,8,1,13,-0.026249981,-0.005000019,1,0,0,0.8817,rock_grid_rect_2,3,07,-1,-1,0.882,-0.13499999,-0.25875001,1,0,0,1.5417,Basalt_rect,2,1.542,0,12,0,12,0,1,,,,,,,,,,,,,
6018a5c0e1600b187ccb8693,TCR,2024-06-20_16h30.45.236,LearnStrategy,2023.2.3,Win32,60.24096386,8,1,14,-0.01875,-0.02249999,1,0,0,0.6816,rock_grid_rect_2,3,09,-1,-1,0.682,-0.11312499,-0.415625,1,0,0,0.7206,Pegmatite_rect,6,0.721,0,13,0,13,0,1,,,,,,,,,,,,,
6018a5c0e1600b187ccb8693,TCR,2024-06-20_16h30.45.236,LearnStrategy,2023.2.3,Win32,60.24096386,8,1,15,-0.026874971,-0.01937499,1,0,0,38.628,rock_grid_rect_2,2,16,-1,-1,38.628,-0.11812501,-0.25999999,1,0,0,0.9835,Basalt_rect,2,0.984,1,14,0,14,0,1,,,,,,,,,,,,,
6018a5c0e1600b187ccb8693,TCR,2024-06-20_16h30.45.236,LearnStrategy,2023.2.3,Win32,60.24096386,8,1,16,0,0.007499981,1,0,0,14.5564,rock_grid_rect_2,2,01,-1,-1,14.556,-0.15999999,-0.24437499,1,0,0,1.9319,Basalt_rect,2,1.932,1,15,0,15,0,1,,,,,,,,,,,,,
6018a5c0e1600b187ccb8693,TCR,2024-06-20_16h30.45.236,LearnStrategy,2023.2.3,Win32,60.24096386,8,2,1,,,,,,,,8,16,,,,,,,,,,,8,1.373,1,,,,,,0.353750038,-0.402500057,1,0,0,1.3731,Pumice_rect,0,0,0,0,1,
6018a5c0e1600b187ccb8693,TCR,2024-06-20_16h30.45.236,LearnStrategy,2023.2.3,Win32,60.24096386,8,2,2,,,,,,,,2,05,,,,,,,,,,,2,1.656,1,,,,,,-0.17874999,-0.25999999,1,0,0,1.6556,Basalt_rect,1,0,1,0,1,
6018a5c0e1600b187ccb8693,TCR,2024-06-20_16h30.45.236,LearnStrategy,2023.2.3,Win32,60.24096386,8,2,3,,,,,,,,6,08,,,,,,,,,,,6,1.177,1,,,,,,-0.22125001,-0.404374981,1,0,0,1.1772,Pegmatite_rect,2,0,2,0,1,
6018a5c0e1600b187ccb8693,TCR,2024-06-20_16h30.45.236,LearnStrategy,2023.2.3,Win32,60.24096386,8,2,4,,,,,,,,3,16,,,,,,,,,,,7,1.755,0,,,,,,0.096875,-0.421250057,1,0,0,1.7549,Peridotite_rect,3,0,3,0,1,
6018a5c0e1600b187ccb8693,TCR,2024-06-20_16h30.45.236,LearnStrategy,2023.2.3,Win32,60.24096386,8,2,5,,,,,,,,3,13,,,,,,,,,,,7,1.082,0,,,,,,0.060624981,-0.40625,1,0,0,1.0823,Peridotite_rect,4,0,4,0,1,
6018a5c0e1600b187ccb8693,TCR,2024-06-20_16h30.45.236,LearnStrategy,2023.2.3,Win32,60.24096386,8,2,6,,,,,,,,4,08,,,,,,,,,,,2,7.24,0,,,,,,-0.167499971,-0.26875,1,0,0,7.2403,Basalt_rect,5,0,5,0,1,
6018a5c0e1600b187ccb8693,TCR,2024-06-20_16h30.45.236,LearnStrategy,2023.2.3,Win32,60.24096386,8,2,7,,,,,,,,5,11,,,,,,,,,,,5,1.113,1,,,,,,-0.33687501,-0.3875,1,0,0,1.1135,Obsidian_rect,6,0,6,0,1,
6018a5c0e1600b187ccb8693,TCR,2024-06-20_16h30.45.236,LearnStrategy,2023.2.3,Win32,60.24096386,8,2,8,,,,,,,,6,05,,,,,,,,,,,6,1.04,1,,,,,,-0.209375,-0.39375,1,0,0,1.0398,Pegmatite_rect,7,0,7,0,1,
6018a5c0e1600b187ccb8693,TCR,2024-06-20_16h30.45.236,LearnStrategy,2023.2.3,Win32,60.24096386,8,2,9,,,,,,,,8,08,,,,,,,,,,,8,2.672,1,,,,,,0.355625057,-0.4,1,0,0,2.6717,Pumice_rect,8,0,8,0,1,
6018a5c0e1600b187ccb8693,TCR,2024-06-20_16h30.45.236,LearnStrategy,2023.2.3,Win32,60.24096386,8,2,10,,,,,,,,1,01,,,,,,,,,,,2,4.382,0,,,,,,-0.125,-0.25,1,0,0,4.3822,Basalt_rect,9,0,9,0,1,
6018a5c0e1600b187ccb8693,TCR,2024-06-20_16h30.45.236,LearnStrategy,2023.2.3,Win32,60.24096386,8,2,11,,,,,,,,7,12,,,,,,,,,,,7,1.53,1,,,,,,0.054374981,-0.408750057,1,0,0,1.5305,Peridotite_rect,10,0,10,0,1,
6018a5c0e1600b187ccb8693,TCR,2024-06-20_16h30.45.236,LearnStrategy,2023.2.3,Win32,60.24096386,8,2,12,,,,,,,,2,02,,,,,,,,,,,2,0.935,1,,,,,,-0.15374999,-0.255000019,1,0,0,0.9347,Basalt_rect,11,0,11,0,1,
6018a5c0e1600b187ccb8693,TCR,2024-06-20_16h30.45.236,LearnStrategy,2023.2.3,Win32,60.24096386,8,2,13,,,,,,,,1,14,,,,,,,,,,,6,1.582,0,,,,,,-0.161249971,-0.3875,1,0,0,1.5822,Pegmatite_rect,12,0,12,0,1,
6018a5c0e1600b187ccb8693,TCR,2024-06-20_16h30.45.236,LearnStrategy,2023.2.3,Win32,60.24096386,8,2,14,,,,,,,,7,05,,,,,,,,,,,6,1.62,0,,,,,,-0.15562501,-0.393125057,1,0,0,1.6198,Pegmatite_rect,13,0,13,0,1,
6018a5c0e1600b187ccb8693,TCR,2024-06-20_16h30.45.236,LearnStrategy,2023.2.3,Win32,60.24096386,8,2,15,,,,,,,,4,14,,,,,,,,,,,2,1.113,0,,,,,,-0.18062501,-0.257500029,1,0,0,1.1131,Basalt_rect,14,0,14,0,1,
6018a5c0e1600b187ccb8693,TCR,2024-06-20_16h30.45.236,LearnStrategy,2023.2.3,Win32,60.24096386,8,2,16,,,,,,,,5,12,,,,,,,,,,,5,1.191,1,,,,,,-0.33812499,-0.385624981,1,0,0,1.1914,Obsidian_rect,15,0,15,0,1,
6018a5c0e1600b187ccb8693,TCR,2024-06-20_16h30.45.236,LearnStrategy,2023.2.3,Win32,60.24096386,9,1,1,-0.045624971,-0.00062499,1,0,0,0.5414,rock_grid_rect_2,3,07,-1,-1,0.541,-0.115625,-0.25875001,1,0,0,0.9495,Basalt_rect,2,0.95,0,0,0,0,0,1,,,,,,,,,,,,,
6018a5c0e1600b187ccb8693,TCR,2024-06-20_16h30.45.236,LearnStrategy,2023.2.3,Win32,60.24096386,9,1,2,-0.04000001,-0.00999999,1,0,0,0.7482,rock_grid_rect_2,8,15,-1,-1,0.748,-0.10562501,-0.25374999,1,0,0,0.4759,Basalt_rect,2,0.476,0,1,0,1,0,1,,,,,,,,,,,,,
6018a5c0e1600b187ccb8693,TCR,2024-06-20_16h30.45.236,LearnStrategy,2023.2.3,Win32,60.24096386,9,1,3,-0.03062501,0.003125,1,0,0,0.9148,rock_grid_rect_2,3,12,-1,-1,0.915,-0.176249981,-0.263750029,1,0,0,0.6386,Basalt_rect,2,0.639,0,2,0,2,0,1,,,,,,,,,,,,,
6018a5c0e1600b187ccb8693,TCR,2024-06-20_16h30.45.236,LearnStrategy,2023.2.3,Win32,60.24096386,9,1,4,0.009375,0.013749981,1,0,0,1.1023,rock_grid_rect_2,3,15,-1,-1,1.102,-0.10875001,-0.25687499,1,0,0,1.3821,Basalt_rect,2,1.382,0,3,0,3,0,1,,,,,,,,,,,,,
6018a5c0e1600b187ccb8693,TCR,2024-06-20_16h30.45.236,LearnStrategy,2023.2.3,Win32,60.24096386,9,1,5,-0.028125,-0.00625,1,0,0,1.3177,rock_grid_rect_2,4,09,-1,-1,1.318,-0.09124999,-0.234375,1,0,0,2.2975,Basalt_rect,2,2.297,0,4,0,4,0,1,,,,,,,,,,,,,
6018a5c0e1600b187ccb8693,TCR,2024-06-20_16h30.45.236,LearnStrategy,2023.2.3,Win32,60.24096386,9,1,6,-0.00875001,0.008124971,1,0,0,0.9372,rock_grid_rect_2,4,10,-1,-1,0.937,-0.116874981,-0.242500019,1,0,0,3.4111,Basalt_rect,2,3.411,0,5,0,5,0,1,,,,,,,,,,,,,
6018a5c0e1600b187ccb8693,TCR,2024-06-20_16h30.45.236,LearnStrategy,2023.2.3,Win32,60.24096386,9,1,7,-0.02874999,-0.00999999,1,0,0,8.2569,rock_grid_rect_2,7,14,-1,-1,8.257,-0.071875,-0.25250001,1,0,0,6.8984,Basalt_rect,2,6.898,0,6,0,6,0,1,,,,,,,,,,,,,
6018a5c0e1600b187ccb8693,TCR,2024-06-20_16h30.45.236,LearnStrategy,2023.2.3,Win32,60.24096386,9,1,8,-0.045624971,-0.010625029,1,0,0,0.9644,rock_grid_rect_2,1,02,-1,-1,0.964,-0.098124981,-0.25562501,1,0,0,0.5702,Basalt_rect,2,0.57,0,7,0,7,0,1,,,,,,,,,,,,,
6018a5c0e1600b187ccb8693,TCR,2024-06-20_16h30.45.236,LearnStrategy,2023.2.3,Win32,60.24096386,9,1,9,-0.054374981,0.008124971,1,0,0,1.0083,rock_grid_rect_2,6,16,-1,-1,1.008,-0.11624999,-0.406875038,1,0,0,1.2131,Pegmatite_rect,6,1.213,1,8,0,8,0,1,,,,,,,,,,,,,
6018a5c0e1600b187ccb8693,TCR,2024-06-20_16h30.45.236,LearnStrategy,2023.2.3,Win32,60.24096386,9,1,10,-0.061249971,-0.001250029,1,0,0,0.9138,rock_grid_rect_2,1,16,-1,-1,0.914,0.083125019,-0.390625,1,0,0,1.3614,Peridotite_rect,7,1.361,0,9,0,9,0,1,,,,,,,,,,,,,
6018a5c0e1600b187ccb8693,TCR,2024-06-20_16h30.45.236,LearnStrategy,2023.2.3,Win32,60.24096386,9,1,11,-0.038749981,-0.01312499,1,0,0,0.8476,rock_grid_rect_2,4,09,-1,-1,0.848,-0.123124981,-0.394999981,1,0,0,0.8755,Pegmatite_rect,6,0.876,0,10,0,10,0,1,,,,,,,,,,,,,
6018a5c0e1600b187ccb8693,TCR,2024-06-20_16h30.45.236,LearnStrategy,2023.2.3,Win32,60.24096386,9,1,12,-0.054999971,-0.004375029,1,0,0,1.2313,rock_grid_rect_2,7,10,-1,-1,1.231,-0.11187501,-0.380625057,1,0,0,0.8422,Pegmatite_rect,6,0.842,0,11,0,11,0,1,,,,,,,,,,,,,
6018a5c0e1600b187ccb8693,TCR,2024-06-20_16h30.45.236,LearnStrategy,2023.2.3,Win32,60.24096386,9,1,13,-0.061249971,0.007499981,1,0,0,1.2142,rock_grid_rect_2,8,09,-1,-1,1.214,-0.117499971,-0.258125019,1,0,0,1.6563,Basalt_rect,2,1.656,0,12,0,12,0,1,,,,,,,,,,,,,
6018a5c0e1600b187ccb8693,TCR,2024-06-20_16h30.45.236,LearnStrategy,2023.2.3,Win32,60.24096386,9,1,14,-0.023124981,0.004374981,1,0,0,0.9978,rock_grid_rect_2,1,09,-1,-1,0.998,-0.11500001,-0.253125,1,0,0,0.9585,Basalt_rect,2,0.959,0,13,0,13,0,1,,,,,,,,,,,,,
6018a5c0e1600b187ccb8693,TCR,2024-06-20_16h30.45.236,LearnStrategy,2023.2.3,Win32,60.24096386,9,1,15,-0.06875,0.00250001,1,0,0,0.8142,rock_grid_rect_2,2,09,-1,-1,0.814,-0.159375,-0.251875019,1,0,0,0.9755,Basalt_rect,2,0.976,1,14,0,14,0,1,,,,,,,,,,,,,
6018a5c0e1600b187ccb8693,TCR,2024-06-20_16h30.45.236,LearnStrategy,2023.2.3,Win32,60.24096386,9,1,16,-0.04000001,0.01312499,1,0,0,0.8475,rock_grid_rect_2,7,08,-1,-1,0.848,0.035624981,-0.39375,1,0,0,2.1527,Peridotite_rect,7,2.153,1,15,0,15,0,1,,,,,,,,,,,,,
6018a5c0e1600b187ccb8693,TCR,2024-06-20_16h30.45.236,LearnStrategy,2023.2.3,Win32,60.24096386,9,2,1,,,,,,,,5,06,,,,,,,,,,,5,1.54,1,,,,,,-0.332499981,-0.3875,1,0,0,1.5397,Obsidian_rect,0,0,0,0,1,
6018a5c0e1600b187ccb8693,TCR,2024-06-20_16h30.45.236,LearnStrategy,2023.2.3,Win32,60.24096386,9,2,2,,,,,,,,4,01,,,,,,,,,,,1,3.741,0,,,,,,-0.41937499,-0.230000019,1,0,0,3.7413,Andesite_rect,1,0,1,0,1,
6018a5c0e1600b187ccb8693,TCR,2024-06-20_16h30.45.236,LearnStrategy,2023.2.3,Win32,60.24096386,9,2,3,,,,,,,,3,14,,,,,,,,,,,6,1.245,0,,,,,,-0.19749999,-0.405625057,1,0,0,1.245,Pegmatite_rect,2,0,2,0,1,
6018a5c0e1600b187ccb8693,TCR,2024-06-20_16h30.45.236,LearnStrategy,2023.2.3,Win32,60.24096386,9,2,4,,,,,,,,1,07,,,,,,,,,,,6,1.168,0,,,,,,-0.11187501,-0.386250019,1,0,0,1.1682,Pegmatite_rect,3,0,3,0,1,
6018a5c0e1600b187ccb8693,TCR,2024-06-20_16h30.45.236,LearnStrategy,2023.2.3,Win32,60.24096386,9,2,5,,,,,,,,8,13,,,,,,,,,,,2,1.435,0,,,,,,-0.103125,-0.25687499,1,0,0,1.4354,Basalt_rect,4,0,4,0,1,
6018a5c0e1600b187ccb8693,TCR,2024-06-20_16h30.45.236,LearnStrategy,2023.2.3,Win32,60.24096386,9,2,6,,,,,,,,7,13,,,,,,,,,,,6,1.405,0,,,,,,-0.19000001,-0.386250019,1,0,0,1.4052,Pegmatite_rect,5,0,5,0,1,
6018a5c0e1600b187ccb8693,TCR,2024-06-20_16h30.45.236,LearnStrategy,2023.2.3,Win32,60.24096386,9,2,7,,,,,,,,6,03,,,,,,,,,,,6,1.362,1,,,,,,-0.129374981,-0.386250019,1,0,0,1.3618,Pegmatite_rect,6,0,6,0,1,
6018a5c0e1600b187ccb8693,TCR,2024-06-20_16h30.45.236,LearnStrategy,2023.2.3,Win32,60.24096386,9,2,8,,,,,,,,6,09,,,,,,,,,,,7,1.17,0,,,,,,0.028750038,-0.39375,1,0,0,1.17,Peridotite_rect,7,0,7,0,1,
6018a5c0e1600b187ccb8693,TCR,2024-06-20_16h30.45.236,LearnStrategy,2023.2.3,Win32,60.24096386,9,2,9,,,,,,,,4,03,,,,,,,,,,,7,2.291,0,,,,,,0.043125057,-0.408125019,1,0,0,2.2907,Peridotite_rect,8,0,8,0,1,
6018a5c0e1600b187ccb8693,TCR,2024-06-20_16h30.45.236,LearnStrategy,2023.2.3,Win32,60.24096386,9,2,10,,,,,,,,7,02,,,,,,,,,,,6,1.865,0,,,,,,-0.13499999,-0.404374981,1,0,0,1.8647,Pegmatite_rect,9,0,9,0,1,
6018a5c0e1600b187ccb8693,TCR,2024-06-20_16h30.45.236,LearnStrategy,2023.2.3,Win32,60.24096386,9,2,11,,,,,,,,2,14,,,,,,,,,,,2,1.807,1,,,,,,-0.170624971,-0.25875001,1,0,0,1.8074,Basalt_rect,10,0,10,0,1,
6018a5c0e1600b187ccb8693,TCR,2024-06-20_16h30.45.236,LearnStrategy,2023.2.3,Win32,60.24096386,9,2,12,,,,,,,,3,06,,,,,,,,,,,6,1.083,0,,,,,,-0.13812499,-0.393125057,1,0,0,1.0833,Pegmatite_rect,11,0,11,0,1,
6018a5c0e1600b187ccb8693,TCR,2024-06-20_16h30.45.236,LearnStrategy,2023.2.3,Win32,60.24096386,9,2,13,,,,,,,,2,04,,,,,,,,,,,2,1.571,1,,,,,,-0.16312499,-0.25875001,1,0,0,1.5711,Basalt_rect,12,0,12,0,1,
6018a5c0e1600b187ccb8693,TCR,2024-06-20_16h30.45.236,LearnStrategy,2023.2.3,Win32,60.24096386,9,2,14,,,,,,,,5,16,,,,,,,,,,,5,1.074,1,,,,,,-0.33125,-0.405000019,1,0,0,1.0737,Obsidian_rect,13,0,13,0,1,
6018a5c0e1600b187ccb8693,TCR,2024-06-20_16h30.45.236,LearnStrategy,2023.2.3,Win32,60.24096386,9,2,15,,,,,,,,8,05,,,,,,,,,,,2,0.956,0,,,,,,-0.20999999,-0.26187501,1,0,0,0.9564,Basalt_rect,14,0,14,0,1,
6018a5c0e1600b187ccb8693,TCR,2024-06-20_16h30.45.236,LearnStrategy,2023.2.3,Win32,60.24096386,9,2,16,,,,,,,,1,05,,,,,,,,,,,6,1.255,0,,,,,,-0.179374981,-0.386250019,1,0,0,1.2552,Pegmatite_rect,15,0,15,0,1,
6018a5c0e1600b187ccb8693,TCR,2024-06-20_16h30.45.236,LearnStrategy,2023.2.3,Win32,60.24096386,,,,,,,,,,,,,,,,,,,,,,,,,,,,,,,,,,,,,,,,,,,0
6018a5c0e1600b187ccb8693,TCR,2024-06-20_16h30.45.236,LearnStrategy,2023.2.3,Win32,60.24096386,,,,,,,,,,,,,,,,,,,,,,,,,,,,,,,,,,,,,,,,,,,
6018a5c0e1600b187ccb8693,TCR,2024-06-20_16h30.45.236,LearnStrategy,2023.2.3,Win32,60.24096386,,,,,,,,,,,5,04,1,1,,,,,,,,,,,,,,,,,,,,,,,,,,,,,
6018a5c0e1600b187ccb8693,TCR,2024-06-20_16h30.45.236,LearnStrategy,2023.2.3,Win32,60.24096386,,,,,,,,,,,5,07,1,2,,,,,,,,,,,,,,,,,,,,,,,,,,,,,
6018a5c0e1600b187ccb8693,TCR,2024-06-20_16h30.45.236,LearnStrategy,2023.2.3,Win32,60.24096386,,,,,,,,,,,7,07,1,3,,,,,,,,,,,,,,,,,,,,,,,,,,,,,
6018a5c0e1600b187ccb8693,TCR,2024-06-20_16h30.45.236,LearnStrategy,2023.2.3,Win32,60.24096386,,,,,,,,,,,7,15,1,4,,,,,,,,,,,,,,,,,,,,,,,,,,,,,
6018a5c0e1600b187ccb8693,TCR,2024-06-20_16h30.45.236,LearnStrategy,2023.2.3,Win32,60.24096386,,,,,,,,,,,6,13,1,5,,,,,,,,,,,,,,,,,,,,,,,,,,,,,
6018a5c0e1600b187ccb8693,TCR,2024-06-20_16h30.45.236,LearnStrategy,2023.2.3,Win32,60.24096386,,,,,,,,,,,4,16,1,6,,,,,,,,,,,,,,,,,,,,,,,,,,,,,
6018a5c0e1600b187ccb8693,TCR,2024-06-20_16h30.45.236,LearnStrategy,2023.2.3,Win32,60.24096386,,,,,,,,,,,2,06,1,7,,,,,,,,,,,,,,,,,,,,,,,,,,,,,
6018a5c0e1600b187ccb8693,TCR,2024-06-20_16h30.45.236,LearnStrategy,2023.2.3,Win32,60.24096386,,,,,,,,,,,6,11,1,8,,,,,,,,,,,,,,,,,,,,,,,,,,,,,
6018a5c0e1600b187ccb8693,TCR,2024-06-20_16h30.45.236,LearnStrategy,2023.2.3,Win32,60.24096386,,,,,,,,,,,6,10,2,1,,,,,,,,,,,,,,,,,,,,,,,,,,,,,
6018a5c0e1600b187ccb8693,TCR,2024-06-20_16h30.45.236,LearnStrategy,2023.2.3,Win32,60.24096386,,,,,,,,,,,3,02,2,2,,,,,,,,,,,,,,,,,,,,,,,,,,,,,
6018a5c0e1600b187ccb8693,TCR,2024-06-20_16h30.45.236,LearnStrategy,2023.2.3,Win32,60.24096386,,,,,,,,,,,3,07,2,3,,,,,,,,,,,,,,,,,,,,,,,,,,,,,
6018a5c0e1600b187ccb8693,TCR,2024-06-20_16h30.45.236,LearnStrategy,2023.2.3,Win32,60.24096386,,,,,,,,,,,2,10,2,4,,,,,,,,,,,,,,,,,,,,,,,,,,,,,
6018a5c0e1600b187ccb8693,TCR,2024-06-20_16h30.45.236,LearnStrategy,2023.2.3,Win32,60.24096386,,,,,,,,,,,2,16,2,5,,,,,,,,,,,,,,,,,,,,,,,,,,,,,
6018a5c0e1600b187ccb8693,TCR,2024-06-20_16h30.45.236,LearnStrategy,2023.2.3,Win32,60.24096386,,,,,,,,,,,2,08,2,6,,,,,,,,,,,,,,,,,,,,,,,,,,,,,
6018a5c0e1600b187ccb8693,TCR,2024-06-20_16h30.45.236,LearnStrategy,2023.2.3,Win32,60.24096386,,,,,,,,,,,1,16,2,7,,,,,,,,,,,,,,,,,,,,,,,,,,,,,
6018a5c0e1600b187ccb8693,TCR,2024-06-20_16h30.45.236,LearnStrategy,2023.2.3,Win32,60.24096386,,,,,,,,,,,1,10,2,8,,,,,,,,,,,,,,,,,,,,,,,,,,,,,
6018a5c0e1600b187ccb8693,TCR,2024-06-20_16h30.45.236,LearnStrategy,2023.2.3,Win32,60.24096386,,,,,,,,,,,6,07,3,1,,,,,,,,,,,,,,,,,,,,,,,,,,,,,
6018a5c0e1600b187ccb8693,TCR,2024-06-20_16h30.45.236,LearnStrategy,2023.2.3,Win32,60.24096386,,,,,,,,,,,5,09,3,2,,,,,,,,,,,,,,,,,,,,,,,,,,,,,
6018a5c0e1600b187ccb8693,TCR,2024-06-20_16h30.45.236,LearnStrategy,2023.2.3,Win32,60.24096386,,,,,,,,,,,1,04,3,3,,,,,,,,,,,,,,,,,,,,,,,,,,,,,
6018a5c0e1600b187ccb8693,TCR,2024-06-20_16h30.45.236,LearnStrategy,2023.2.3,Win32,60.24096386,,,,,,,,,,,4,09,3,4,,,,,,,,,,,,,,,,,,,,,,,,,,,,,
6018a5c0e1600b187ccb8693,TCR,2024-06-20_16h30.45.236,LearnStrategy,2023.2.3,Win32,60.24096386,,,,,,,,,,,4,15,3,5,,,,,,,,,,,,,,,,,,,,,,,,,,,,,
6018a5c0e1600b187ccb8693,TCR,2024-06-20_16h30.45.236,LearnStrategy,2023.2.3,Win32,60.24096386,,,,,,,,,,,8,09,3,6,,,,,,,,,,,,,,,,,,,,,,,,,,,,,
6018a5c0e1600b187ccb8693,TCR,2024-06-20_16h30.45.236,LearnStrategy,2023.2.3,Win32,60.24096386,,,,,,,,,,,3,15,3,7,,,,,,,,,,,,,,,,,,,,,,,,,,,,,
6018a5c0e1600b187ccb8693,TCR,2024-06-20_16h30.45.236,LearnStrategy,2023.2.3,Win32,60.24096386,,,,,,,,,,,7,10,3,8,,,,,,,,,,,,,,,,,,,,,,,,,,,,,
6018a5c0e1600b187ccb8693,TCR,2024-06-20_16h30.45.236,LearnStrategy,2023.2.3,Win32,60.24096386,,,,,,,,,,,4,05,4,1,,,,,,,,,,,,,,,,,,,,,,,,,,,,,
6018a5c0e1600b187ccb8693,TCR,2024-06-20_16h30.45.236,LearnStrategy,2023.2.3,Win32,60.24096386,,,,,,,,,,,7,06,4,2,,,,,,,,,,,,,,,,,,,,,,,,,,,,,
6018a5c0e1600b187ccb8693,TCR,2024-06-20_16h30.45.236,LearnStrategy,2023.2.3,Win32,60.24096386,,,,,,,,,,,8,04,4,3,,,,,,,,,,,,,,,,,,,,,,,,,,,,,
6018a5c0e1600b187ccb8693,TCR,2024-06-20_16h30.45.236,LearnStrategy,2023.2.3,Win32,60.24096386,,,,,,,,,,,8,02,4,4,,,,,,,,,,,,,,,,,,,,,,,,,,,,,
6018a5c0e1600b187ccb8693,TCR,2024-06-20_16h30.45.236,LearnStrategy,2023.2.3,Win32,60.24096386,,,,,,,,,,,4,12,4,5,,,,,,,,,,,,,,,,,,,,,,,,,,,,,
6018a5c0e1600b187ccb8693,TCR,2024-06-20_16h30.45.236,LearnStrategy,2023.2.3,Win32,60.24096386,,,,,,,,,,,3,10,4,6,,,,,,,,,,,,,,,,,,,,,,,,,,,,,
6018a5c0e1600b187ccb8693,TCR,2024-06-20_16h30.45.236,LearnStrategy,2023.2.3,Win32,60.24096386,,,,,,,,,,,5,05,4,7,,,,,,,,,,,,,,,,,,,,,,,,,,,,,
6018a5c0e1600b187ccb8693,TCR,2024-06-20_16h30.45.236,LearnStrategy,2023.2.3,Win32,60.24096386,,,,,,,,,,,5,10,4,8,,,,,,,,,,,,,,,,,,,,,,,,,,,,,
6018a5c0e1600b187ccb8693,TCR,2024-06-20_16h30.45.236,LearnStrategy,2023.2.3,Win32,60.24096386,,,,,,,,,,,5,08,5,1,,,,,,,,,,,,,,,,,,,,,,,,,,,,,
6018a5c0e1600b187ccb8693,TCR,2024-06-20_16h30.45.236,LearnStrategy,2023.2.3,Win32,60.24096386,,,,,,,,,,,8,14,5,2,,,,,,,,,,,,,,,,,,,,,,,,,,,,,
6018a5c0e1600b187ccb8693,TCR,2024-06-20_16h30.45.236,LearnStrategy,2023.2.3,Win32,60.24096386,,,,,,,,,,,2,01,5,3,,,,,,,,,,,,,,,,,,,,,,,,,,,,,
6018a5c0e1600b187ccb8693,TCR,2024-06-20_16h30.45.236,LearnStrategy,2023.2.3,Win32,60.24096386,,,,,,,,,,,8,10,5,4,,,,,,,,,,,,,,,,,,,,,,,,,,,,,
6018a5c0e1600b187ccb8693,TCR,2024-06-20_16h30.45.236,LearnStrategy,2023.2.3,Win32,60.24096386,,,,,,,,,,,2,09,5,5,,,,,,,,,,,,,,,,,,,,,,,,,,,,,
6018a5c0e1600b187ccb8693,TCR,2024-06-20_16h30.45.236,LearnStrategy,2023.2.3,Win32,60.24096386,,,,,,,,,,,1,03,5,6,,,,,,,,,,,,,,,,,,,,,,,,,,,,,
6018a5c0e1600b187ccb8693,TCR,2024-06-20_16h30.45.236,LearnStrategy,2023.2.3,Win32,60.24096386,,,,,,,,,,,6,06,5,7,,,,,,,,,,,,,,,,,,,,,,,,,,,,,
6018a5c0e1600b187ccb8693,TCR,2024-06-20_16h30.45.236,LearnStrategy,2023.2.3,Win32,60.24096386,,,,,,,,,,,1,09,5,8,,,,,,,,,,,,,,,,,,,,,,,,,,,,,
6018a5c0e1600b187ccb8693,TCR,2024-06-20_16h30.45.236,LearnStrategy,2023.2.3,Win32,60.24096386,,,,,,,,,,,7,08,6,1,,,,,,,,,,,,,,,,,,,,,,,,,,,,,
6018a5c0e1600b187ccb8693,TCR,2024-06-20_16h30.45.236,LearnStrategy,2023.2.3,Win32,60.24096386,,,,,,,,,,,6,16,6,2,,,,,,,,,,,,,,,,,,,,,,,,,,,,,
6018a5c0e1600b187ccb8693,TCR,2024-06-20_16h30.45.236,LearnStrategy,2023.2.3,Win32,60.24096386,,,,,,,,,,,1,02,6,3,,,,,,,,,,,,,,,,,,,,,,,,,,,,,
6018a5c0e1600b187ccb8693,TCR,2024-06-20_16h30.45.236,LearnStrategy,2023.2.3,Win32,60.24096386,,,,,,,,,,,4,10,6,4,,,,,,,,,,,,,,,,,,,,,,,,,,,,,
6018a5c0e1600b187ccb8693,TCR,2024-06-20_16h30.45.236,LearnStrategy,2023.2.3,Win32,60.24096386,,,,,,,,,,,3,09,6,5,,,,,,,,,,,,,,,,,,,,,,,,,,,,,
6018a5c0e1600b187ccb8693,TCR,2024-06-20_16h30.45.236,LearnStrategy,2023.2.3,Win32,60.24096386,,,,,,,,,,,8,15,6,6,,,,,,,,,,,,,,,,,,,,,,,,,,,,,
6018a5c0e1600b187ccb8693,TCR,2024-06-20_16h30.45.236,LearnStrategy,2023.2.3,Win32,60.24096386,,,,,,,,,,,7,14,6,7,,,,,,,,,,,,,,,,,,,,,,,,,,,,,
6018a5c0e1600b187ccb8693,TCR,2024-06-20_16h30.45.236,LearnStrategy,2023.2.3,Win32,60.24096386,,,,,,,,,,,3,12,6,8,,,,,,,,,,,,,,,,,,,,,,,,,,,,,