participant,condition,date,expName,psychopyVersion,OS,frameRate,block,phase,trial,learn_mouse.x,learn_mouse.y,learn_mouse.leftButton,learn_mouse.midButton,learn_mouse.rightButton,learn_mouse.time,learn_mouse.clicked_name,cat,token,row,col,t_select,cat_rec,token_rec,cat_mouse_l.x,cat_mouse_l.y,cat_mouse_l.leftButton,cat_mouse_l.midButton,cat_mouse_l.rightButton,cat_mouse_l.time,cat_mouse_l.clicked_name,resp,t_resp,corr,train_trials.thisRepN,train_trials.thisTrialN,train_trials.thisN,train_trials.thisIndex,train_trials.ran,cat_mouse_t.x,cat_mouse_t.y,cat_mouse_t.leftButton,cat_mouse_t.midButton,cat_mouse_t.rightButton,cat_mouse_t.time,cat_mouse_t.clicked_name,test_trials.thisRepN,test_trials.thisTrialN,test_trials.thisN,test_trials.thisIndex,test_trials.ran,Bonus
60370cc8e1feab5ce84685ef,SCR,2024-06-11_10h11.23.637,LearnStrategy,2023.2.3,MacIntel,60.0024001,,,,,,,,,,,,,,,,,,,,,,,,,,,,,,,,,,,,,,,,,,,,,
60370cc8e1feab5ce84685ef,SCR,2024-06-11_10h11.23.637,LearnStrategy,2023.2.3,MacIntel,60.0024001,1,1,1,0.202229818,0.074915568,1,0,0,2.9768,Obsidian_05,5,05,4,6,2.977,5,05,0.058720907,-0.418039958,1,0,0,9.3734,Peridotite_rect,7,9.373,0,0,0,0,0,1,,,,,,,,,,,,,
60370cc8e1feab5ce84685ef,SCR,2024-06-11_10h11.23.637,LearnStrategy,2023.2.3,MacIntel,60.0024001,1,1,2,0.404815674,0.110738118,1,0,0,1.26,Peridotite_06,7,06,4,7,1.26,7,06,0.178949992,-0.38961792,1,0,0,4.1348,Peridotite_rect,7,4.135,1,1,0,1,0,1,,,,,,,,,,,,,
60370cc8e1feab5ce84685ef,SCR,2024-06-11_10h11.23.637,LearnStrategy,2023.2.3,MacIntel,60.0024001,1,1,3,-0.255599976,-0.263092041,1,0,0,1.3456,Pegmatite_10,6,10,2,3,1.346,6,10,-0.374135335,-0.255101522,1,0,0,5.2899,Andesite_rect,1,5.29,0,2,0,2,0,1,,,,,,,,,,,,,
60370cc8e1feab5ce84685ef,SCR,2024-06-11_10h11.23.637,LearnStrategy,2023.2.3,MacIntel,60.0024001,1,1,4,-0.086380005,0.251515706,1,0,0,2.9101,Andesite_16,1,16,5,4,2.91,1,16,0.335713704,-0.406845093,1,0,0,4.1247,Pumice_rect,8,4.125,0,3,0,3,0,1,,,,,,,,,,,,,
60370cc8e1feab5ce84685ef,SCR,2024-06-11_10h11.23.637,LearnStrategy,2023.2.3,MacIntel,60.0024001,1,1,5,0.269846598,0.392985026,1,0,0,1.73,Basalt_06,2,06,6,6,1.73,2,06,0.319285075,-0.398422241,1,0,0,2.4162,Pumice_rect,8,2.416,0,4,0,4,0,1,,,,,,,,,,,,,
60370cc8e1feab5ce84685ef,SCR,2024-06-11_10h11.23.637,LearnStrategy,2023.2.3,MacIntel,60.0024001,1,1,6,-0.101486206,-0.269144694,1,0,0,1.5781,Obsidian_14,5,14,2,4,1.578,5,14,-0.101486206,-0.269144694,1,0,0,0.9762,Basalt_rect,2,0.976,0,5,0,5,0,1,,,,,,,,,,,,,
60370cc8e1feab5ce84685ef,SCR,2024-06-11_10h11.23.637,LearnStrategy,2023.2.3,MacIntel,60.0024001,1,1,7,-0.25470988,-0.42825826,1,0,0,1.2301,Diorite_13,3,13,1,3,1.23,3,13,0.027216593,-0.402704875,1,0,0,5.928,Peridotite_rect,7,5.928,0,6,0,6,0,1,,,,,,,,,,,,,
60370cc8e1feab5ce84685ef,SCR,2024-06-11_10h11.23.637,LearnStrategy,2023.2.3,MacIntel,60.0024001,1,1,8,0.538152059,-0.452926636,1,0,0,1.2617,Peridotite_08,7,08,1,8,1.262,7,08,0.434875488,-0.406311035,1,0,0,2.2716,Pumice_rect,8,2.272,0,7,0,7,0,1,,,,,,,,,,,,,
60370cc8e1feab5ce84685ef,SCR,2024-06-11_10h11.23.637,LearnStrategy,2023.2.3,MacIntel,60.0024001,1,1,9,0.369939168,0.402791341,1,0,0,1.3624,Diorite_12,3,12,6,7,1.362,3,12,-0.410054525,-0.408030192,1,0,0,8.0239,Obsidian_rect,5,8.024,0,8,0,8,0,1,,,,,,,,,,,,,
60370cc8e1feab5ce84685ef,SCR,2024-06-11_10h11.23.637,LearnStrategy,2023.2.3,MacIntel,60.0024001,1,1,10,-0.417755127,-0.105173747,1,0,0,1.8974,Gabbro_05,4,05,3,2,1.897,4,05,-0.371246338,-0.385375977,1,0,0,3.77,Obsidian_rect,5,3.77,0,9,0,9,0,1,,,,,,,,,,,,,
60370cc8e1feab5ce84685ef,SCR,2024-06-11_10h11.23.637,LearnStrategy,2023.2.3,MacIntel,60.0024001,1,1,11,-0.382110596,0.109130859,1,0,0,1.145,Andesite_14,1,14,4,2,1.145,1,14,0.374328613,-0.402679443,1,0,0,4.3963,Pumice_rect,8,4.396,0,10,0,10,0,1,,,,,,,,,,,,,
60370cc8e1feab5ce84685ef,SCR,2024-06-11_10h11.23.637,LearnStrategy,2023.2.3,MacIntel,60.0024001,1,1,12,-0.243352254,0.120778402,1,0,0,1.31,Pegmatite_12,6,12,4,3,1.31,6,12,-0.353403727,-0.254557292,1,0,0,2.4403,Andesite_rect,1,2.44,0,11,0,11,0,1,,,,,,,,,,,,,
60370cc8e1feab5ce84685ef,SCR,2024-06-11_10h11.23.637,LearnStrategy,2023.2.3,MacIntel,60.0024001,1,1,13,0.534515381,-0.092330933,1,0,0,1.177,Gabbro_08,4,08,3,8,1.177,4,08,0.152603149,-0.248087565,1,0,0,4.0784,Diorite_rect,3,4.078,0,12,0,12,0,1,,,,,,,,,,,,,
60370cc8e1feab5ce84685ef,SCR,2024-06-11_10h11.23.637,LearnStrategy,2023.2.3,MacIntel,60.0024001,1,1,14,-0.083180745,0.397699992,1,0,0,1.0982,Pumice_09,8,09,6,4,1.098,8,09,0.46917216,-0.419311523,1,0,0,1.219,Pumice_rect,8,1.219,1,13,0,13,0,1,,,,,,,,,,,,,
60370cc8e1feab5ce84685ef,SCR,2024-06-11_10h11.23.637,LearnStrategy,2023.2.3,MacIntel,60.0024001,1,1,15,-0.351257324,0.266998291,1,0,0,0.9275,Basalt_10,2,10,5,2,0.928,2,10,-0.394282023,-0.38671875,1,0,0,3.7431,Obsidian_rect,5,3.743,0,14,0,14,0,1,,,,,,,,,,,,,
60370cc8e1feab5ce84685ef,SCR,2024-06-11_10h11.23.637,LearnStrategy,2023.2.3,MacIntel,60.0024001,1,1,16,0.077555339,0.417170207,1,0,0,1.2279,Pumice_16,8,16,6,5,1.228,8,16,0.454950968,-0.39789327,1,0,0,1.0398,Pumice_rect,8,1.04,1,15,0,15,0,1,,,,,,,,,,,,,
60370cc8e1feab5ce84685ef,SCR,2024-06-11_10h11.23.637,LearnStrategy,2023.2.3,MacIntel,60.0024001,1,2,1,,,,,,,,4,13,,,,,,,,,,,,,3,5.347,0,,,,,,0.208658854,-0.247477214,1,0,0,5.3468,Diorite_rect,0,0,0,0,1,
60370cc8e1feab5ce84685ef,SCR,2024-06-11_10h11.23.637,LearnStrategy,2023.2.3,MacIntel,60.0024001,1,2,2,,,,,,,,8,04,,,,,,,,,,,,,8,1.772,1,,,,,,0.37159729,-0.417633057,1,0,0,1.7721,Pumice_rect,1,0,1,0,1,
60370cc8e1feab5ce84685ef,SCR,2024-06-11_10h11.23.637,LearnStrategy,2023.2.3,MacIntel,60.0024001,1,2,3,,,,,,,,3,09,,,,,,,,,,,,,4,3.096,0,,,,,,0.350702922,-0.239939372,1,0,0,3.0955,Gabbro_rect,2,0,2,0,1,
60370cc8e1feab5ce84685ef,SCR,2024-06-11_10h11.23.637,LearnStrategy,2023.2.3,MacIntel,60.0024001,1,2,4,,,,,,,,2,01,,,,,,,,,,,,,2,2.798,1,,,,,,-0.208150228,-0.264022827,1,0,0,2.7984,Basalt_rect,3,0,3,0,1,
60370cc8e1feab5ce84685ef,SCR,2024-06-11_10h11.23.637,LearnStrategy,2023.2.3,MacIntel,60.0024001,1,2,5,,,,,,,,7,13,,,,,,,,,,,,,3,3.066,0,,,,,,0.0590566,-0.264297485,1,0,0,3.0664,Diorite_rect,4,0,4,0,1,
60370cc8e1feab5ce84685ef,SCR,2024-06-11_10h11.23.637,LearnStrategy,2023.2.3,MacIntel,60.0024001,1,2,6,,,,,,,,1,02,,,,,,,,,,,,,5,2.851,0,,,,,,-0.298350016,-0.395797729,1,0,0,2.8514,Obsidian_rect,5,0,5,0,1,
60370cc8e1feab5ce84685ef,SCR,2024-06-11_10h11.23.637,LearnStrategy,2023.2.3,MacIntel,60.0024001,1,2,7,,,,,,,,5,12,,,,,,,,,,,,,1,3.652,0,,,,,,-0.31741333,-0.246775309,1,0,0,3.6519,Andesite_rect,6,0,6,0,1,
60370cc8e1feab5ce84685ef,SCR,2024-06-11_10h11.23.637,LearnStrategy,2023.2.3,MacIntel,60.0024001,1,2,8,,,,,,,,6,09,,,,,,,,,,,,,4,5.123,0,,,,,,0.328989665,-0.265380859,1,0,0,5.1229,Gabbro_rect,7,0,7,0,1,
60370cc8e1feab5ce84685ef,SCR,2024-06-11_10h11.23.637,LearnStrategy,2023.2.3,MacIntel,60.0024001,1,2,9,,,,,,,,1,06,,,,,,,,,,,,,6,4.932,0,,,,,,-0.034525553,-0.383453369,1,0,0,4.9324,Pegmatite_rect,8,0,8,0,1,
60370cc8e1feab5ce84685ef,SCR,2024-06-11_10h11.23.637,LearnStrategy,2023.2.3,MacIntel,60.0024001,1,2,10,,,,,,,,6,16,,,,,,,,,,,,,2,2.65,0,,,,,,-0.063217163,-0.233123779,1,0,0,2.6502,Basalt_rect,9,0,9,0,1,
60370cc8e1feab5ce84685ef,SCR,2024-06-11_10h11.23.637,LearnStrategy,2023.2.3,MacIntel,60.0024001,1,2,11,,,,,,,,3,07,,,,,,,,,,,,,3,2.428,1,,,,,,0.176254272,-0.261505127,1,0,0,2.4283,Diorite_rect,10,0,10,0,1,
60370cc8e1feab5ce84685ef,SCR,2024-06-11_10h11.23.637,LearnStrategy,2023.2.3,MacIntel,60.0024001,1,2,12,,,,,,,,2,16,,,,,,,,,,,,,8,2.985,0,,,,,,0.351908366,-0.388519287,1,0,0,2.9853,Pumice_rect,11,0,11,0,1,
60370cc8e1feab5ce84685ef,SCR,2024-06-11_10h11.23.637,LearnStrategy,2023.2.3,MacIntel,60.0024001,1,2,13,,,,,,,,7,10,,,,,,,,,,,,,1,2.829,0,,,,,,-0.371281942,-0.247746785,1,0,0,2.8295,Andesite_rect,12,0,12,0,1,
60370cc8e1feab5ce84685ef,SCR,2024-06-11_10h11.23.637,LearnStrategy,2023.2.3,MacIntel,60.0024001,1,2,14,,,,,,,,5,16,,,,,,,,,,,,,5,2.083,1,,,,,,-0.354446411,-0.406529744,1,0,0,2.0828,Obsidian_rect,13,0,13,0,1,
60370cc8e1feab5ce84685ef,SCR,2024-06-11_10h11.23.637,LearnStrategy,2023.2.3,MacIntel,60.0024001,1,2,15,,,,,,,,4,01,,,,,,,,,,,,,4,2.022,1,,,,,,0.35651652,-0.260457357,1,0,0,2.0225,Gabbro_rect,14,0,14,0,1,
60370cc8e1feab5ce84685ef,SCR,2024-06-11_10h11.23.637,LearnStrategy,2023.2.3,MacIntel,60.0024001,1,2,16,,,,,,,,8,05,,,,,,,,,,,,,8,1.081,1,,,,,,0.344884237,-0.384755452,1,0,0,1.0814,Pumice_rect,15,0,15,0,1,
60370cc8e1feab5ce84685ef,SCR,2024-06-11_10h11.23.637,LearnStrategy,2023.2.3,MacIntel,60.0024001,2,1,1,-0.220163981,0.425562541,1,0,0,1.9768,Obsidian_02,5,02,6,3,1.977,5,02,-0.344217936,-0.25479126,1,0,0,3.8134,Andesite_rect,1,3.813,0,0,0,0,0,1,,,,,,,,,,,,,
60370cc8e1feab5ce84685ef,SCR,2024-06-11_10h11.23.637,LearnStrategy,2023.2.3,MacIntel,60.0024001,2,1,2,-0.573120117,-0.122314453,1,0,0,0.9436,Basalt_08,2,08,3,1,0.944,2,08,0.151199341,-0.248092651,1,0,0,3.5124,Diorite_rect,3,3.512,0,1,0,1,0,1,,,,,,,,,,,,,
60370cc8e1feab5ce84685ef,SCR,2024-06-11_10h11.23.637,LearnStrategy,2023.2.3,MacIntel,60.0024001,2,1,3,-0.080317179,-0.266393026,1,0,0,0.8129,Obsidian_14,5,14,2,4,0.813,5,14,-0.111165365,-0.395889282,1,0,0,3.7844,Pegmatite_rect,6,3.784,0,2,0,2,0,1,,,,,,,,,,,,,
60370cc8e1feab5ce84685ef,SCR,2024-06-11_10h11.23.637,LearnStrategy,2023.2.3,MacIntel,60.0024001,2,1,4,0.086817424,-0.209691366,1,0,0,2.2128,Peridotite_15,7,15,2,5,2.213,7,15,0.120773315,-0.254592896,1,0,0,1.657,Diorite_rect,3,1.657,0,3,0,3,0,1,,,,,,,,,,,,,
60370cc8e1feab5ce84685ef,SCR,2024-06-11_10h11.23.637,LearnStrategy,2023.2.3,MacIntel,60.0024001,2,1,5,0.414210002,0.287907918,1,0,0,1.6797,Gabbro_10,4,10,5,7,1.68,4,10,-0.39713033,-0.263905843,1,0,0,6.0389,Andesite_rect,1,6.039,0,4,0,4,0,1,,,,,,,,,,,,,
60370cc8e1feab5ce84685ef,SCR,2024-06-11_10h11.23.637,LearnStrategy,2023.2.3,MacIntel,60.0024001,2,1,6,0.345809937,-0.30259196,1,0,0,1.5621,Andesite_09,1,09,2,7,1.562,1,09,0.07027181,-0.385101318,1,0,0,2.8241,Peridotite_rect,7,2.824,0,5,0,5,0,1,,,,,,,,,,,,,
60370cc8e1feab5ce84685ef,SCR,2024-06-11_10h11.23.637,LearnStrategy,2023.2.3,MacIntel,60.0024001,2,1,7,0.588831584,-0.277598063,1,0,0,1.1319,Diorite_10,3,10,2,8,1.132,3,10,0.417892456,-0.246322632,1,0,0,1.5078,Gabbro_rect,4,1.508,0,6,0,6,0,1,,,,,,,,,,,,,
60370cc8e1feab5ce84685ef,SCR,2024-06-11_10h11.23.637,LearnStrategy,2023.2.3,MacIntel,60.0024001,2,1,8,-0.569356283,0.085662842,1,0,0,2.3119,Peridotite_02,7,02,4,1,2.312,7,02,0.14440918,-0.235946655,1,0,0,2.0427,Diorite_rect,3,2.043,0,7,0,7,0,1,,,,,,,,,,,,,
60370cc8e1feab5ce84685ef,SCR,2024-06-11_10h11.23.637,LearnStrategy,2023.2.3,MacIntel,60.0024001,2,1,9,0.250406901,-0.084493001,1,0,0,0.9444,Pegmatite_11,6,11,3,6,0.944,6,11,-0.128687541,-0.246241252,1,0,0,2.7953,Basalt_rect,2,2.795,0,8,0,8,0,1,,,,,,,,,,,,,
60370cc8e1feab5ce84685ef,SCR,2024-06-11_10h11.23.637,LearnStrategy,2023.2.3,MacIntel,60.0024001,2,1,10,0.238972982,-0.274993896,1,0,0,0.9618,Andesite_01,1,01,2,6,0.962,1,01,0.364074707,-0.253540039,1,0,0,1.7645,Gabbro_rect,4,1.764,0,9,0,9,0,1,,,,,,,,,,,,,
60370cc8e1feab5ce84685ef,SCR,2024-06-11_10h11.23.637,LearnStrategy,2023.2.3,MacIntel,60.0024001,2,1,11,-0.248011271,-0.28485616,1,0,0,0.7626,Pegmatite_10,6,10,2,3,0.763,6,10,-0.175938924,-0.259969076,1,0,0,1.1648,Basalt_rect,2,1.165,0,10,0,10,0,1,,,,,,,,,,,,,
60370cc8e1feab5ce84685ef,SCR,2024-06-11_10h11.23.637,LearnStrategy,2023.2.3,MacIntel,60.0024001,2,1,12,0.096618652,0.293304443,1,0,0,0.878,Pegmatite_03,6,03,5,5,0.878,6,03,-0.333648682,-0.235799154,1,0,0,1.8475,Andesite_rect,1,1.847,0,11,0,11,0,1,,,,,,,,,,,,,
60370cc8e1feab5ce84685ef,SCR,2024-06-11_10h11.23.637,LearnStrategy,2023.2.3,MacIntel,60.0024001,2,1,13,0.067189535,-0.085973104,1,0,0,1.0443,Diorite_08,3,08,3,5,1.044,3,08,0.410832723,-0.251368205,1,0,0,3.4115,Gabbro_rect,4,3.412,0,12,0,12,0,1,,,,,,,,,,,,,
60370cc8e1feab5ce84685ef,SCR,2024-06-11_10h11.23.637,LearnStrategy,2023.2.3,MacIntel,60.0024001,2,1,14,-0.538355509,0.388712565,1,0,0,1.3793,Peridotite_07,7,07,6,1,1.379,7,07,0.175760905,-0.380381266,1,0,0,3.3901,Peridotite_rect,7,3.39,1,13,0,13,0,1,,,,,,,,,,,,,
60370cc8e1feab5ce84685ef,SCR,2024-06-11_10h11.23.637,LearnStrategy,2023.2.3,MacIntel,60.0024001,2,1,15,-0.215464274,-0.076787313,1,0,0,2.2309,Basalt_11,2,11,3,3,2.231,2,11,0.385721842,-0.412185669,1,0,0,1.9584,Pumice_rect,8,1.958,0,14,0,14,0,1,,,,,,,,,,,,,
60370cc8e1feab5ce84685ef,SCR,2024-06-11_10h11.23.637,LearnStrategy,2023.2.3,MacIntel,60.0024001,2,1,16,-0.07379659,0.089080811,1,0,0,0.9798,Gabbro_15,4,15,4,4,0.98,4,15,-0.097132365,-0.231842041,1,0,0,1.9748,Basalt_rect,2,1.975,0,15,0,15,0,1,,,,,,,,,,,,,
60370cc8e1feab5ce84685ef,SCR,2024-06-11_10h11.23.637,LearnStrategy,2023.2.3,MacIntel,60.0024001,2,2,1,,,,,,,,3,15,,,,,,,,,,,,,4,12.568,0,,,,,,0.467107137,-0.271779378,1,0,0,12.5677,Gabbro_rect,0,0,0,0,1,
60370cc8e1feab5ce84685ef,SCR,2024-06-11_10h11.23.637,LearnStrategy,2023.2.3,MacIntel,60.0024001,2,2,2,,,,,,,,4,11,,,,,,,,,,,,,1,6.482,0,,,,,,-0.418752035,-0.232721965,1,0,0,6.482,Andesite_rect,1,0,1,0,1,
60370cc8e1feab5ce84685ef,SCR,2024-06-11_10h11.23.637,LearnStrategy,2023.2.3,MacIntel,60.0024001,2,2,3,,,,,,,,1,07,,,,,,,,,,,,,3,6.026,0,,,,,,0.101928711,-0.249679565,1,0,0,6.0265,Diorite_rect,2,0,2,0,1,
60370cc8e1feab5ce84685ef,SCR,2024-06-11_10h11.23.637,LearnStrategy,2023.2.3,MacIntel,60.0024001,2,2,4,,,,,,,,6,08,,,,,,,,,,,,,6,7.679,1,,,,,,-0.098403931,-0.383239746,1,0,0,7.679,Pegmatite_rect,3,0,3,0,1,
60370cc8e1feab5ce84685ef,SCR,2024-06-11_10h11.23.637,LearnStrategy,2023.2.3,MacIntel,60.0024001,2,2,5,,,,,,,,5,06,,,,,,,,,,,,,5,7.413,1,,,,,,-0.343770345,-0.413472493,1,0,0,7.4129,Obsidian_rect,4,0,4,0,1,
60370cc8e1feab5ce84685ef,SCR,2024-06-11_10h11.23.637,LearnStrategy,2023.2.3,MacIntel,60.0024001,2,2,6,,,,,,,,7,16,,,,,,,,,,,,,6,12.535,0,,,,,,-0.096272786,-0.413823446,1,0,0,12.5355,Pegmatite_rect,5,0,5,0,1,
60370cc8e1feab5ce84685ef,SCR,2024-06-11_10h11.23.637,LearnStrategy,2023.2.3,MacIntel,60.0024001,2,2,7,,,,,,,,5,08,,,,,,,,,,,,,5,5.655,1,,,,,,-0.335403442,-0.383499146,1,0,0,5.6554,Obsidian_rect,6,0,6,0,1,
60370cc8e1feab5ce84685ef,SCR,2024-06-11_10h11.23.637,LearnStrategy,2023.2.3,MacIntel,60.0024001,2,2,8,,,,,,,,7,04,,,,,,,,,,,,,3,7.78,0,,,,,,0.10933431,-0.22869873,1,0,0,7.7797,Diorite_rect,7,0,7,0,1,
60370cc8e1feab5ce84685ef,SCR,2024-06-11_10h11.23.637,LearnStrategy,2023.2.3,MacIntel,60.0024001,2,2,9,,,,,,,,4,14,,,,,,,,,,,,,4,6.228,1,,,,,,0.37546285,-0.271006266,1,0,0,6.2282,Gabbro_rect,8,0,8,0,1,
60370cc8e1feab5ce84685ef,SCR,2024-06-11_10h11.23.637,LearnStrategy,2023.2.3,MacIntel,60.0024001,2,2,10,,,,,,,,2,05,,,,,,,,,,,,,1,10.974,0,,,,,,-0.377339681,-0.239318848,1,0,0,10.9736,Andesite_rect,9,0,9,0,1,
60370cc8e1feab5ce84685ef,SCR,2024-06-11_10h11.23.637,LearnStrategy,2023.2.3,MacIntel,60.0024001,2,2,11,,,,,,,,8,08,,,,,,,,,,,,,8,1.393,1,,,,,,0.440790812,-0.400171916,1,0,0,1.3926,Pumice_rect,10,0,10,0,1,
60370cc8e1feab5ce84685ef,SCR,2024-06-11_10h11.23.637,LearnStrategy,2023.2.3,MacIntel,60.0024001,2,2,12,,,,,,,,6,15,,,,,,,,,,,,,6,6.443,1,,,,,,-0.072275798,-0.398335775,1,0,0,6.4435,Pegmatite_rect,11,0,11,0,1,
60370cc8e1feab5ce84685ef,SCR,2024-06-11_10h11.23.637,LearnStrategy,2023.2.3,MacIntel,60.0024001,2,2,13,,,,,,,,1,04,,,,,,,,,,,,,7,9.208,0,,,,,,0.117202759,-0.407602946,1,0,0,9.2079,Peridotite_rect,12,0,12,0,1,
60370cc8e1feab5ce84685ef,SCR,2024-06-11_10h11.23.637,LearnStrategy,2023.2.3,MacIntel,60.0024001,2,2,14,,,,,,,,2,12,,,,,,,,,,,,,8,1.338,0,,,,,,0.35887146,-0.398071289,1,0,0,1.3384,Pumice_rect,13,0,13,0,1,
60370cc8e1feab5ce84685ef,SCR,2024-06-11_10h11.23.637,LearnStrategy,2023.2.3,MacIntel,60.0024001,2,2,15,,,,,,,,3,06,,,,,,,,,,,,,3,5.088,1,,,,,,0.174825033,-0.24063619,1,0,0,5.0883,Diorite_rect,14,0,14,0,1,
60370cc8e1feab5ce84685ef,SCR,2024-06-11_10h11.23.637,LearnStrategy,2023.2.3,MacIntel,60.0024001,2,2,16,,,,,,,,8,10,,,,,,,,,,,,,8,1.528,1,,,,,,0.36992391,-0.388626099,1,0,0,1.5276,Pumice_rect,15,0,15,0,1,
60370cc8e1feab5ce84685ef,SCR,2024-06-11_10h11.23.637,LearnStrategy,2023.2.3,MacIntel,60.0024001,3,1,1,0.374745687,0.428512573,1,0,0,1.3459,Diorite_12,3,12,6,7,1.346,3,12,0.164326986,-0.24663798,1,0,0,5.8976,Diorite_rect,3,5.898,1,0,0,0,0,1,,,,,,,,,,,,,
60370cc8e1feab5ce84685ef,SCR,2024-06-11_10h11.23.637,LearnStrategy,2023.2.3,MacIntel,60.0024001,3,1,2,-0.388463338,-0.40490214,1,0,0,1.0459,Peridotite_12,7,12,1,2,1.046,7,12,0.068684896,-0.249023438,1,0,0,3.1063,Diorite_rect,3,3.106,0,1,0,1,0,1,,,,,,,,,,,,,
60370cc8e1feab5ce84685ef,SCR,2024-06-11_10h11.23.637,LearnStrategy,2023.2.3,MacIntel,60.0024001,3,1,3,-0.568394979,0.122843424,1,0,0,0.9473,Peridotite_02,7,02,4,1,0.947,7,02,0.136016846,-0.404286702,1,0,0,6.9428,Peridotite_rect,7,6.943,1,2,0,2,0,1,,,,,,,,,,,,,
60370cc8e1feab5ce84685ef,SCR,2024-06-11_10h11.23.637,LearnStrategy,2023.2.3,MacIntel,60.0024001,3,1,4,0.255442301,-0.228759766,1,0,0,0.9305,Andesite_01,1,01,2,6,0.93,1,01,-0.352564494,-0.257858276,1,0,0,4.7137,Andesite_rect,1,4.714,1,3,0,3,0,1,,,,,,,,,,,,,
60370cc8e1feab5ce84685ef,SCR,2024-06-11_10h11.23.637,LearnStrategy,2023.2.3,MacIntel,60.0024001,3,1,5,-0.196680705,-0.267862956,1,0,0,0.878,Pegmatite_10,6,10,2,3,0.878,6,10,-0.130976359,-0.40594991,1,0,0,3.6806,Pegmatite_rect,6,3.681,1,4,0,4,0,1,,,,,,,,,,,,,
60370cc8e1feab5ce84685ef,SCR,2024-06-11_10h11.23.637,LearnStrategy,2023.2.3,MacIntel,60.0024001,3,1,6,-0.069758097,0.389470418,1,0,0,1.1795,Pumice_09,8,09,6,4,1.18,8,09,0.412780762,-0.407089233,1,0,0,1.0751,Pumice_rect,8,1.075,1,5,0,5,0,1,,,,,,,,,,,,,
60370cc8e1feab5ce84685ef,SCR,2024-06-11_10h11.23.637,LearnStrategy,2023.2.3,MacIntel,60.0024001,3,1,7,0.065378825,0.09916687,1,0,0,0.6787,Basalt_14,2,14,4,5,0.679,2,14,0.376174927,-0.408788045,1,0,0,2.0873,Pumice_rect,8,2.087,0,6,0,6,0,1,,,,,,,,,,,,,
60370cc8e1feab5ce84685ef,SCR,2024-06-11_10h11.23.637,LearnStrategy,2023.2.3,MacIntel,60.0024001,3,1,8,0.529378255,-0.05804952,1,0,0,1.5632,Gabbro_08,4,08,3,8,1.563,4,08,-0.374791463,-0.25664266,1,0,0,8.3641,Andesite_rect,1,8.364,0,7,0,7,0,1,,,,,,,,,,,,,
60370cc8e1feab5ce84685ef,SCR,2024-06-11_10h11.23.637,LearnStrategy,2023.2.3,MacIntel,60.0024001,3,1,9,-0.067779541,0.244979858,1,0,0,0.8595,Andesite_16,1,16,5,4,0.86,1,16,-0.3724823,-0.248636882,1,0,0,4.5625,Andesite_rect,1,4.563,1,8,0,8,0,1,,,,,,,,,,,,,
60370cc8e1feab5ce84685ef,SCR,2024-06-11_10h11.23.637,LearnStrategy,2023.2.3,MacIntel,60.0024001,3,1,10,-0.213119507,-0.363377889,1,0,0,0.898,Diorite_13,3,13,1,3,0.898,3,13,0.159179688,-0.265452067,1,0,0,6.9552,Diorite_rect,3,6.955,1,9,0,9,0,1,,,,,,,,,,,,,
60370cc8e1feab5ce84685ef,SCR,2024-06-11_10h11.23.637,LearnStrategy,2023.2.3,MacIntel,60.0024001,3,1,11,-0.037526449,0.075927734,1,0,0,0.9784,Gabbro_15,4,15,4,4,0.978,4,15,0.453491211,-0.249994914,1,0,0,7.7477,Gabbro_rect,4,7.748,1,10,0,10,0,1,,,,,,,,,,,,,
60370cc8e1feab5ce84685ef,SCR,2024-06-11_10h11.23.637,LearnStrategy,2023.2.3,MacIntel,60.0024001,3,1,12,0.393478394,-0.436625163,1,0,0,1.5766,Pegmatite_13,6,13,1,7,1.577,6,13,-0.084208171,-0.39419047,1,0,0,7.4392,Pegmatite_rect,6,7.439,1,11,0,11,0,1,,,,,,,,,,,,,
60370cc8e1feab5ce84685ef,SCR,2024-06-11_10h11.23.637,LearnStrategy,2023.2.3,MacIntel,60.0024001,3,1,13,0.214447021,0.417017619,1,0,0,0.861,Basalt_06,2,06,6,6,0.861,2,06,-0.419743856,-0.255528768,1,0,0,5.2949,Andesite_rect,1,5.295,0,12,0,12,0,1,,,,,,,,,,,,,
60370cc8e1feab5ce84685ef,SCR,2024-06-11_10h11.23.637,LearnStrategy,2023.2.3,MacIntel,60.0024001,3,1,14,-0.514826457,0.085042318,1,0,0,0.9296,Peridotite_02,7,02,4,1,0.93,7,02,0.080891927,-0.421096802,1,0,0,4.2685,Peridotite_rect,7,4.269,1,13,0,13,0,1,,,,,,,,,,,,,
60370cc8e1feab5ce84685ef,SCR,2024-06-11_10h11.23.637,LearnStrategy,2023.2.3,MacIntel,60.0024001,3,1,15,-0.251408895,0.432723999,1,0,0,0.8609,Obsidian_02,5,02,6,3,0.861,5,02,-0.39743042,-0.396708171,1,0,0,5.2728,Obsidian_rect,5,5.273,1,14,0,14,0,1,,,,,,,,,,,,,
60370cc8e1feab5ce84685ef,SCR,2024-06-11_10h11.23.637,LearnStrategy,2023.2.3,MacIntel,60.0024001,3,1,16,-0.244700114,0.223266602,1,0,0,1.711,Basalt_09,2,09,5,3,1.711,2,09,-0.399871826,-0.243815104,1,0,0,5.5046,Andesite_rect,1,5.505,0,15,0,15,0,1,,,,,,,,,,,,,
60370cc8e1feab5ce84685ef,SCR,2024-06-11_10h11.23.637,LearnStrategy,2023.2.3,MacIntel,60.0024001,3,2,1,,,,,,,,2,02,,,,,,,,,,,,,1,7.848,0,,,,,,-0.391667684,-0.233113607,1,0,0,7.8479,Andesite_rect,0,0,0,0,1,
60370cc8e1feab5ce84685ef,SCR,2024-06-11_10h11.23.637,LearnStrategy,2023.2.3,MacIntel,60.0024001,3,2,2,,,,,,,,4,09,,,,,,,,,,,,,4,6.228,1,,,,,,0.422414144,-0.246490479,1,0,0,6.228,Gabbro_rect,1,0,1,0,1,
60370cc8e1feab5ce84685ef,SCR,2024-06-11_10h11.23.637,LearnStrategy,2023.2.3,MacIntel,60.0024001,3,2,3,,,,,,,,7,14,,,,,,,,,,,,,7,8.904,1,,,,,,0.119445801,-0.39423116,1,0,0,8.9038,Peridotite_rect,2,0,2,0,1,
60370cc8e1feab5ce84685ef,SCR,2024-06-11_10h11.23.637,LearnStrategy,2023.2.3,MacIntel,60.0024001,3,2,4,,,,,,,,1,05,,,,,,,,,,,,,3,6.482,0,,,,,,0.109064738,-0.258199056,1,0,0,6.4822,Diorite_rect,3,0,3,0,1,
60370cc8e1feab5ce84685ef,SCR,2024-06-11_10h11.23.637,LearnStrategy,2023.2.3,MacIntel,60.0024001,3,2,5,,,,,,,,8,02,,,,,,,,,,,,,8,2.575,1,,,,,,0.338134766,-0.413574219,1,0,0,2.5749,Pumice_rect,4,0,4,0,1,
60370cc8e1feab5ce84685ef,SCR,2024-06-11_10h11.23.637,LearnStrategy,2023.2.3,MacIntel,60.0024001,3,2,6,,,,,,,,5,04,,,,,,,,,,,,,5,6.71,1,,,,,,-0.438776652,-0.414810181,1,0,0,6.7098,Obsidian_rect,5,0,5,0,1,
60370cc8e1feab5ce84685ef,SCR,2024-06-11_10h11.23.637,LearnStrategy,2023.2.3,MacIntel,60.0024001,3,2,7,,,,,,,,7,05,,,,,,,,,,,,,7,6.807,1,,,,,,0.110432943,-0.39688619,1,0,0,6.8071,Peridotite_rect,6,0,6,0,1,
60370cc8e1feab5ce84685ef,SCR,2024-06-11_10h11.23.637,LearnStrategy,2023.2.3,MacIntel,60.0024001,3,2,8,,,,,,,,5,07,,,,,,,,,,,,,5,2.058,1,,,,,,-0.32506307,-0.387039185,1,0,0,2.0584,Obsidian_rect,7,0,7,0,1,
60370cc8e1feab5ce84685ef,SCR,2024-06-11_10h11.23.637,LearnStrategy,2023.2.3,MacIntel,60.0024001,3,2,9,,,,,,,,3,02,,,,,,,,,,,,,3,5.864,1,,,,,,0.169367472,-0.234634399,1,0,0,5.8643,Diorite_rect,8,0,8,0,1,
60370cc8e1feab5ce84685ef,SCR,2024-06-11_10h11.23.637,LearnStrategy,2023.2.3,MacIntel,60.0024001,3,2,10,,,,,,,,1,10,,,,,,,,,,,,,8,2.894,0,,,,,,0.392954508,-0.386347453,1,0,0,2.8942,Pumice_rect,9,0,9,0,1,
60370cc8e1feab5ce84685ef,SCR,2024-06-11_10h11.23.637,LearnStrategy,2023.2.3,MacIntel,60.0024001,3,2,11,,,,,,,,6,07,,,,,,,,,,,,,6,4.647,1,,,,,,-0.08787028,-0.404373169,1,0,0,4.647,Pegmatite_rect,10,0,10,0,1,
60370cc8e1feab5ce84685ef,SCR,2024-06-11_10h11.23.637,LearnStrategy,2023.2.3,MacIntel,60.0024001,3,2,12,,,,,,,,3,14,,,,,,,,,,,,,3,6.508,1,,,,,,0.160608927,-0.26117452,1,0,0,6.508,Diorite_rect,11,0,11,0,1,
60370cc8e1feab5ce84685ef,SCR,2024-06-11_10h11.23.637,LearnStrategy,2023.2.3,MacIntel,60.0024001,3,2,13,,,,,,,,2,04,,,,,,,,,,,,,2,10.803,1,,,,,,-0.12000529,-0.253890991,1,0,0,10.8028,Basalt_rect,12,0,12,0,1,
60370cc8e1feab5ce84685ef,SCR,2024-06-11_10h11.23.637,LearnStrategy,2023.2.3,MacIntel,60.0024001,3,2,14,,,,,,,,8,03,,,,,,,,,,,,,8,3.519,1,,,,,,0.33585612,-0.404149373,1,0,0,3.5193,Pumice_rect,13,0,13,0,1,
60370cc8e1feab5ce84685ef,SCR,2024-06-11_10h11.23.637,LearnStrategy,2023.2.3,MacIntel,60.0024001,3,2,15,,,,,,,,6,05,,,,,,,,,,,,,4,14.288,0,,,,,,0.297668457,-0.26953125,1,0,0,14.2875,Gabbro_rect,14,0,14,0,1,
60370cc8e1feab5ce84685ef,SCR,2024-06-11_10h11.23.637,LearnStrategy,2023.2.3,MacIntel,60.0024001,3,2,16,,,,,,,,4,03,,,,,,,,,,,,,2,9.089,0,,,,,,-0.103434245,-0.24764506,1,0,0,9.0891,Basalt_rect,15,0,15,0,1,
60370cc8e1feab5ce84685ef,SCR,2024-06-11_10h11.23.637,LearnStrategy,2023.2.3,MacIntel,60.0024001,4,1,1,-0.229675293,-0.268625895,1,0,0,1.2946,Pegmatite_10,6,10,2,3,1.295,6,10,-0.159439087,-0.397755941,1,0,0,6.2767,Pegmatite_rect,6,6.277,1,0,0,0,0,1,,,,,,,,,,,,,
60370cc8e1feab5ce84685ef,SCR,2024-06-11_10h11.23.637,LearnStrategy,2023.2.3,MacIntel,60.0024001,4,1,2,-0.211313883,-0.077814738,1,0,0,0.8789,Basalt_11,2,11,3,3,0.879,2,11,-0.096511841,-0.248138428,1,0,0,4.489,Basalt_rect,2,4.489,1,1,0,1,0,1,,,,,,,,,,,,,
60370cc8e1feab5ce84685ef,SCR,2024-06-11_10h11.23.637,LearnStrategy,2023.2.3,MacIntel,60.0024001,4,1,3,-0.234390259,0.227320353,1,0,0,0.9962,Basalt_09,2,09,5,3,0.996,2,09,-0.379135132,-0.263870239,1,0,0,9.8926,Andesite_rect,1,9.893,0,2,0,2,0,1,,,,,,,,,,,,,
60370cc8e1feab5ce84685ef,SCR,2024-06-11_10h11.23.637,LearnStrategy,2023.2.3,MacIntel,60.0024001,4,1,4,0.129862467,-0.444239299,1,0,0,1.1442,Diorite_11,3,11,1,5,1.144,3,11,0.114446004,-0.236633301,1,0,0,5.0642,Diorite_rect,3,5.064,1,3,0,3,0,1,,,,,,,,,,,,,
60370cc8e1feab5ce84685ef,SCR,2024-06-11_10h11.23.637,LearnStrategy,2023.2.3,MacIntel,60.0024001,4,1,5,0.220092773,-0.07892863,1,0,0,4.9315,Pegmatite_11,6,11,3,6,4.932,6,11,-0.094350179,-0.39638265,1,0,0,1.3104,Pegmatite_rect,6,1.31,1,4,0,4,0,1,,,,,,,,,,,,,
60370cc8e1feab5ce84685ef,SCR,2024-06-11_10h11.23.637,LearnStrategy,2023.2.3,MacIntel,60.0024001,4,1,6,0.214447021,-0.407806396,1,0,0,1.0443,Andesite_11,1,11,1,6,1.044,1,11,0.212631226,-0.239786784,1,0,0,12.1437,Diorite_rect,3,12.144,0,5,0,5,0,1,,,,,,,,,,,,,
60370cc8e1feab5ce84685ef,SCR,2024-06-11_10h11.23.637,LearnStrategy,2023.2.3,MacIntel,60.0024001,4,1,7,0.591257731,0.09753418,1,0,0,1.096,Gabbro_12,4,12,4,8,1.096,4,12,0.144927979,-0.248967489,1,0,0,3.1677,Diorite_rect,3,3.168,0,6,0,6,0,1,,,,,,,,,,,,,
60370cc8e1feab5ce84685ef,SCR,2024-06-11_10h11.23.637,LearnStrategy,2023.2.3,MacIntel,60.0024001,4,1,8,-0.517389933,-0.083989461,1,0,0,0.848,Basalt_08,2,08,3,1,0.848,2,08,-0.464055379,-0.259043376,1,0,0,6.4715,Andesite_rect,1,6.471,0,7,0,7,0,1,,,,,,,,,,,,,
60370cc8e1feab5ce84685ef,SCR,2024-06-11_10h11.23.637,LearnStrategy,2023.2.3,MacIntel,60.0024001,4,1,9,-0.391677856,-0.407999674,1,0,0,1.1448,Peridotite_12,7,12,1,2,1.145,7,12,0.387557983,-0.267049154,1,0,0,5.4197,Gabbro_rect,4,5.42,0,8,0,8,0,1,,,,,,,,,,,,,
60370cc8e1feab5ce84685ef,SCR,2024-06-11_10h11.23.637,LearnStrategy,2023.2.3,MacIntel,60.0024001,4,1,10,0.103978475,0.410349528,1,0,0,0.9946,Pumice_16,8,16,6,5,0.995,8,16,0.432418823,-0.421559652,1,0,0,1.0717,Pumice_rect,8,1.072,1,9,0,9,0,1,,,,,,,,,,,,,
60370cc8e1feab5ce84685ef,SCR,2024-06-11_10h11.23.637,LearnStrategy,2023.2.3,MacIntel,60.0024001,4,1,11,-0.071538289,0.260787964,1,0,0,0.9284,Andesite_16,1,16,5,4,0.928,1,16,0.158452352,-0.228525798,1,0,0,6.0491,Diorite_rect,3,6.049,0,10,0,10,0,1,,,,,,,,,,,,,
60370cc8e1feab5ce84685ef,SCR,2024-06-11_10h11.23.637,LearnStrategy,2023.2.3,MacIntel,60.0024001,4,1,12,0.224868774,0.254933675,1,0,0,0.9438,Gabbro_16,4,16,5,6,0.944,4,16,0.386494954,-0.245473226,1,0,0,7.605,Gabbro_rect,4,7.605,1,11,0,11,0,1,,,,,,,,,,,,,
60370cc8e1feab5ce84685ef,SCR,2024-06-11_10h11.23.637,LearnStrategy,2023.2.3,MacIntel,60.0024001,4,1,13,0.374094645,-0.253540039,1,0,0,1.6773,Andesite_09,1,09,2,7,1.677,1,09,-0.087356567,-0.240198771,1,0,0,6.5904,Basalt_rect,2,6.59,0,12,0,12,0,1,,,,,,,,,,,,,
60370cc8e1feab5ce84685ef,SCR,2024-06-11_10h11.23.637,LearnStrategy,2023.2.3,MacIntel,60.0024001,4,1,14,-0.521565755,-0.218536377,1,0,0,1.1092,Diorite_16,3,16,2,1,1.109,3,16,-0.458689372,-0.237202962,1,0,0,1.5794,Andesite_rect,1,1.579,0,13,0,13,0,1,,,,,,,,,,,,,
60370cc8e1feab5ce84685ef,SCR,2024-06-11_10h11.23.637,LearnStrategy,2023.2.3,MacIntel,60.0024001,4,1,15,-0.193745931,0.371276855,1,0,0,1.1135,Obsidian_02,5,02,6,3,1.113,5,02,-0.364501953,-0.402542114,1,0,0,0.8615,Obsidian_rect,5,0.861,1,14,0,14,0,1,,,,,,,,,,,,,
60370cc8e1feab5ce84685ef,SCR,2024-06-11_10h11.23.637,LearnStrategy,2023.2.3,MacIntel,60.0024001,4,1,16,0.529469808,-0.42578125,1,0,0,1.3131,Peridotite_08,7,08,1,8,1.313,7,08,0.109812419,-0.247487386,1,0,0,6.4372,Diorite_rect,3,6.437,0,15,0,15,0,1,,,,,,,,,,,,,
60370cc8e1feab5ce84685ef,SCR,2024-06-11_10h11.23.637,LearnStrategy,2023.2.3,MacIntel,60.0024001,4,2,1,,,,,,,,6,09,,,,,,,,,,,,,6,5.049,1,,,,,,-0.087651571,-0.404301961,1,0,0,5.0486,Pegmatite_rect,0,0,0,0,1,
60370cc8e1feab5ce84685ef,SCR,2024-06-11_10h11.23.637,LearnStrategy,2023.2.3,MacIntel,60.0024001,4,2,2,,,,,,,,8,02,,,,,,,,,,,,,8,1.597,1,,,,,,0.384216309,-0.400578817,1,0,0,1.5967,Pumice_rect,1,0,1,0,1,
60370cc8e1feab5ce84685ef,SCR,2024-06-11_10h11.23.637,LearnStrategy,2023.2.3,MacIntel,60.0024001,4,2,3,,,,,,,,3,07,,,,,,,,,,,,,1,21.138,0,,,,,,-0.38710022,-0.239695231,1,0,0,21.1377,Andesite_rect,2,0,2,0,1,
60370cc8e1feab5ce84685ef,SCR,2024-06-11_10h11.23.637,LearnStrategy,2023.2.3,MacIntel,60.0024001,4,2,4,,,,,,,,7,04,,,,,,,,,,,,,7,14.639,1,,,,,,0.053471883,-0.409169515,1,0,0,14.6392,Peridotite_rect,3,0,3,0,1,
60370cc8e1feab5ce84685ef,SCR,2024-06-11_10h11.23.637,LearnStrategy,2023.2.3,MacIntel,60.0024001,4,2,5,,,,,,,,5,04,,,,,,,,,,,,,5,1.177,1,,,,,,-0.3565979,-0.412272135,1,0,0,1.1768,Obsidian_rect,4,0,4,0,1,
60370cc8e1feab5ce84685ef,SCR,2024-06-11_10h11.23.637,LearnStrategy,2023.2.3,MacIntel,60.0024001,4,2,6,,,,,,,,4,03,,,,,,,,,,,,,3,8.18,0,,,,,,0.186447144,-0.244150798,1,0,0,8.1796,Diorite_rect,5,0,5,0,1,
60370cc8e1feab5ce84685ef,SCR,2024-06-11_10h11.23.637,LearnStrategy,2023.2.3,MacIntel,60.0024001,4,2,7,,,,,,,,2,01,,,,,,,,,,,,,1,7.508,0,,,,,,-0.374827067,-0.255345662,1,0,0,7.5083,Andesite_rect,6,0,6,0,1,
60370cc8e1feab5ce84685ef,SCR,2024-06-11_10h11.23.637,LearnStrategy,2023.2.3,MacIntel,60.0024001,4,2,8,,,,,,,,1,06,,,,,,,,,,,,,2,1.761,0,,,,,,-0.125518799,-0.232991536,1,0,0,1.7607,Basalt_rect,7,0,7,0,1,
60370cc8e1feab5ce84685ef,SCR,2024-06-11_10h11.23.637,LearnStrategy,2023.2.3,MacIntel,60.0024001,4,2,9,,,,,,,,2,12,,,,,,,,,,,,,8,2.047,0,,,,,,0.369415283,-0.40490214,1,0,0,2.0469,Pumice_rect,8,0,8,0,1,
60370cc8e1feab5ce84685ef,SCR,2024-06-11_10h11.23.637,LearnStrategy,2023.2.3,MacIntel,60.0024001,4,2,10,,,,,,,,8,08,,,,,,,,,,,,,8,1.339,1,,,,,,0.367207845,-0.402826945,1,0,0,1.3386,Pumice_rect,9,0,9,0,1,
60370cc8e1feab5ce84685ef,SCR,2024-06-11_10h11.23.637,LearnStrategy,2023.2.3,MacIntel,60.0024001,4,2,11,,,,,,,,5,12,,,,,,,,,,,,,5,1.079,1,,,,,,-0.385131836,-0.397277832,1,0,0,1.0787,Obsidian_rect,10,0,10,0,1,
60370cc8e1feab5ce84685ef,SCR,2024-06-11_10h11.23.637,LearnStrategy,2023.2.3,MacIntel,60.0024001,4,2,12,,,,,,,,7,05,,,,,,,,,,,,,7,6.729,1,,,,,,0.075973511,-0.412501017,1,0,0,6.7294,Peridotite_rect,11,0,11,0,1,
60370cc8e1feab5ce84685ef,SCR,2024-06-11_10h11.23.637,LearnStrategy,2023.2.3,MacIntel,60.0024001,4,2,13,,,,,,,,1,02,,,,,,,,,,,,,1,2.925,1,,,,,,-0.347483317,-0.258061727,1,0,0,2.9254,Andesite_rect,12,0,12,0,1,
60370cc8e1feab5ce84685ef,SCR,2024-06-11_10h11.23.637,LearnStrategy,2023.2.3,MacIntel,60.0024001,4,2,14,,,,,,,,4,01,,,,,,,,,,,,,3,9.831,0,,,,,,0.190556844,-0.241750081,1,0,0,9.8305,Diorite_rect,13,0,13,0,1,
60370cc8e1feab5ce84685ef,SCR,2024-06-11_10h11.23.637,LearnStrategy,2023.2.3,MacIntel,60.0024001,4,2,15,,,,,,,,3,14,,,,,,,,,,,,,3,6.248,1,,,,,,0.190556844,-0.241750081,1,0,0,6.248,Diorite_rect,14,0,14,0,1,
60370cc8e1feab5ce84685ef,SCR,2024-06-11_10h11.23.637,LearnStrategy,2023.2.3,MacIntel,60.0024001,4,2,16,,,,,,,,6,16,,,,,,,,,,,,,6,17.063,1,,,,,,-0.046661377,-0.39495341,1,0,0,17.0629,Pegmatite_rect,15,0,15,0,1,
60370cc8e1feab5ce84685ef,SCR,2024-06-11_10h11.23.637,LearnStrategy,2023.2.3,MacIntel,60.0024001,5,1,1,0.262176514,-0.278335571,1,0,0,1.3813,Andesite_01,1,01,2,6,1.381,1,01,-0.339436849,-0.235733032,1,0,0,4.0119,Andesite_rect,1,4.012,1,0,0,0,0,1,,,,,,,,,,,,,
60370cc8e1feab5ce84685ef,SCR,2024-06-11_10h11.23.637,LearnStrategy,2023.2.3,MacIntel,60.0024001,5,1,2,-0.202875773,-0.255828857,1,0,0,1.0317,Pegmatite_10,6,10,2,3,1.032,6,10,-0.154037476,-0.406428019,1,0,0,3.8926,Pegmatite_rect,6,3.893,1,1,0,1,0,1,,,,,,,,,,,,,
60370cc8e1feab5ce84685ef,SCR,2024-06-11_10h11.23.637,LearnStrategy,2023.2.3,MacIntel,60.0024001,5,1,3,-0.376327515,0.242446899,1,0,0,0.9788,Basalt_10,2,10,5,2,0.979,2,10,-0.17497762,-0.229451497,1,0,0,9.5658,Basalt_rect,2,9.566,1,2,0,2,0,1,,,,,,,,,,,,,
60370cc8e1feab5ce84685ef,SCR,2024-06-11_10h11.23.637,LearnStrategy,2023.2.3,MacIntel,60.0024001,5,1,4,0.398457845,-0.206156413,1,0,0,0.8782,Andesite_09,1,09,2,7,0.878,1,09,-0.386235555,-0.253616333,1,0,0,4.155,Andesite_rect,1,4.155,1,3,0,3,0,1,,,,,,,,,,,,,
60370cc8e1feab5ce84685ef,SCR,2024-06-11_10h11.23.637,LearnStrategy,2023.2.3,MacIntel,60.0024001,5,1,5,-0.078470866,0.373016357,1,0,0,1.7429,Pumice_09,8,09,6,4,1.743,8,09,0.429870605,-0.408472697,1,0,0,1.6574,Pumice_rect,8,1.657,1,4,0,4,0,1,,,,,,,,,,,,,
60370cc8e1feab5ce84685ef,SCR,2024-06-11_10h11.23.637,LearnStrategy,2023.2.3,MacIntel,60.0024001,5,1,6,0.228856405,0.273869832,1,0,0,1.2613,Gabbro_16,4,16,5,6,1.261,4,16,-0.125813802,-0.233164469,1,0,0,7.9419,Basalt_rect,2,7.942,0,5,0,5,0,1,,,,,,,,,,,,,
60370cc8e1feab5ce84685ef,SCR,2024-06-11_10h11.23.637,LearnStrategy,2023.2.3,MacIntel,60.0024001,5,1,7,0.559402466,-0.094792684,1,0,0,1.3293,Gabbro_08,4,08,3,8,1.329,4,08,-0.328420003,-0.249181112,1,0,0,3.7982,Andesite_rect,1,3.798,0,6,0,6,0,1,,,,,,,,,,,,,
60370cc8e1feab5ce84685ef,SCR,2024-06-11_10h11.23.637,LearnStrategy,2023.2.3,MacIntel,60.0024001,5,1,8,0.391199748,0.456156413,1,0,0,1.1116,Diorite_12,3,12,6,7,1.112,3,12,0.161331177,-0.239883423,1,0,0,4.9341,Diorite_rect,3,4.934,1,7,0,7,0,1,,,,,,,,,,,,,
60370cc8e1feab5ce84685ef,SCR,2024-06-11_10h11.23.637,LearnStrategy,2023.2.3,MacIntel,60.0024001,5,1,9,-0.572875977,0.091985067,1,0,0,0.9449,Peridotite_02,7,02,4,1,0.945,7,02,0.143620809,-0.387013753,1,0,0,5.2326,Peridotite_rect,7,5.233,1,8,0,8,0,1,,,,,,,,,,,,,
60370cc8e1feab5ce84685ef,SCR,2024-06-11_10h11.23.637,LearnStrategy,2023.2.3,MacIntel,60.0024001,5,1,10,-0.568974813,-0.105443319,1,0,0,1.0642,Basalt_08,2,08,3,1,1.064,2,08,-0.079315186,-0.271016439,1,0,0,3.4404,Basalt_rect,2,3.44,1,9,0,9,0,1,,,,,,,,,,,,,
60370cc8e1feab5ce84685ef,SCR,2024-06-11_10h11.23.637,LearnStrategy,2023.2.3,MacIntel,60.0024001,5,1,11,-0.387654622,0.089345296,1,0,0,0.8291,Andesite_14,1,14,4,2,0.829,1,14,0.113418579,-0.257151286,1,0,0,4.5302,Diorite_rect,3,4.53,0,10,0,10,0,1,,,,,,,,,,,,,
60370cc8e1feab5ce84685ef,SCR,2024-06-11_10h11.23.637,LearnStrategy,2023.2.3,MacIntel,60.0024001,5,1,12,0.256729126,0.255091349,1,0,0,1.1611,Gabbro_16,4,16,5,6,1.161,4,16,-0.072463989,-0.262008667,1,0,0,3.7681,Basalt_rect,2,3.768,0,11,0,11,0,1,,,,,,,,,,,,,
60370cc8e1feab5ce84685ef,SCR,2024-06-11_10h11.23.637,LearnStrategy,2023.2.3,MacIntel,60.0024001,5,1,13,0.555999756,0.221542358,1,0,0,1.179,Andesite_03,1,03,5,8,1.179,1,03,-0.405298869,-0.235788981,1,0,0,4.7789,Andesite_rect,1,4.779,1,12,0,12,0,1,,,,,,,,,,,,,
60370cc8e1feab5ce84685ef,SCR,2024-06-11_10h11.23.637,LearnStrategy,2023.2.3,MacIntel,60.0024001,5,1,14,-0.039850871,-0.208226522,1,0,0,0.713,Obsidian_14,5,14,2,4,0.713,5,14,-0.337341309,-0.379567464,1,0,0,0.971,Obsidian_rect,5,0.971,1,13,0,13,0,1,,,,,,,,,,,,,
60370cc8e1feab5ce84685ef,SCR,2024-06-11_10h11.23.637,LearnStrategy,2023.2.3,MacIntel,60.0024001,5,1,15,-0.520151774,-0.21887207,1,0,0,0.9505,Diorite_16,3,16,2,1,0.95,3,16,0.113037109,-0.266560872,1,0,0,4.1789,Diorite_rect,3,4.179,1,14,0,14,0,1,,,,,,,,,,,,,
60370cc8e1feab5ce84685ef,SCR,2024-06-11_10h11.23.637,LearnStrategy,2023.2.3,MacIntel,60.0024001,5,1,16,-0.239598592,0.234553019,1,0,0,0.9133,Basalt_09,2,09,5,3,0.913,2,09,-0.144424438,-0.239028931,1,0,0,4.1821,Basalt_rect,2,4.182,1,15,0,15,0,1,,,,,,,,,,,,,
60370cc8e1feab5ce84685ef,SCR,2024-06-11_10h11.23.637,LearnStrategy,2023.2.3,MacIntel,60.0024001,5,2,1,,,,,,,,7,14,,,,,,,,,,,,,3,8.306,0,,,,,,0.121246338,-0.243977865,1,0,0,8.3059,Diorite_rect,0,0,0,0,1,
60370cc8e1feab5ce84685ef,SCR,2024-06-11_10h11.23.637,LearnStrategy,2023.2.3,MacIntel,60.0024001,5,2,2,,,,,,,,2,05,,,,,,,,,,,,,2,10.364,1,,,,,,-0.125315348,-0.265716553,1,0,0,10.3641,Basalt_rect,1,0,1,0,1,
60370cc8e1feab5ce84685ef,SCR,2024-06-11_10h11.23.637,LearnStrategy,2023.2.3,MacIntel,60.0024001,5,2,3,,,,,,,,1,04,,,,,,,,,,,,,3,8.665,0,,,,,,0.051864624,-0.249064128,1,0,0,8.6647,Diorite_rect,2,0,2,0,1,
60370cc8e1feab5ce84685ef,SCR,2024-06-11_10h11.23.637,LearnStrategy,2023.2.3,MacIntel,60.0024001,5,2,4,,,,,,,,7,13,,,,,,,,,,,,,7,8.422,1,,,,,,0.102808634,-0.387858073,1,0,0,8.4217,Peridotite_rect,3,0,3,0,1,
60370cc8e1feab5ce84685ef,SCR,2024-06-11_10h11.23.637,LearnStrategy,2023.2.3,MacIntel,60.0024001,5,2,5,,,,,,,,1,07,,,,,,,,,,,,,3,4.381,0,,,,,,0.146275838,-0.231150309,1,0,0,4.3808,Diorite_rect,4,0,4,0,1,
60370cc8e1feab5ce84685ef,SCR,2024-06-11_10h11.23.637,LearnStrategy,2023.2.3,MacIntel,60.0024001,5,2,6,,,,,,,,5,06,,,,,,,,,,,,,5,3.223,1,,,,,,-0.341578166,-0.416091919,1,0,0,3.2229,Obsidian_rect,5,0,5,0,1,
60370cc8e1feab5ce84685ef,SCR,2024-06-11_10h11.23.637,LearnStrategy,2023.2.3,MacIntel,60.0024001,5,2,7,,,,,,,,2,16,,,,,,,,,,,,,2,3.894,1,,,,,,-0.079096476,-0.244354248,1,0,0,3.8943,Basalt_rect,6,0,6,0,1,
60370cc8e1feab5ce84685ef,SCR,2024-06-11_10h11.23.637,LearnStrategy,2023.2.3,MacIntel,60.0024001,5,2,8,,,,,,,,6,08,,,,,,,,,,,,,6,6.354,1,,,,,,-0.051528931,-0.382705688,1,0,0,6.3543,Pegmatite_rect,7,0,7,0,1,
60370cc8e1feab5ce84685ef,SCR,2024-06-11_10h11.23.637,LearnStrategy,2023.2.3,MacIntel,60.0024001,5,2,9,,,,,,,,3,02,,,,,,,,,,,,,3,3.921,1,,,,,,0.202534993,-0.235839844,1,0,0,3.9208,Diorite_rect,8,0,8,0,1,
60370cc8e1feab5ce84685ef,SCR,2024-06-11_10h11.23.637,LearnStrategy,2023.2.3,MacIntel,60.0024001,5,2,10,,,,,,,,8,04,,,,,,,,,,,,,8,1.814,1,,,,,,0.322413127,-0.399073283,1,0,0,1.8136,Pumice_rect,9,0,9,0,1,
60370cc8e1feab5ce84685ef,SCR,2024-06-11_10h11.23.637,LearnStrategy,2023.2.3,MacIntel,60.0024001,5,2,11,,,,,,,,5,08,,,,,,,,,,,,,5,1.382,1,,,,,,-0.371276855,-0.399302165,1,0,0,1.3823,Obsidian_rect,10,0,10,0,1,
60370cc8e1feab5ce84685ef,SCR,2024-06-11_10h11.23.637,LearnStrategy,2023.2.3,MacIntel,60.0024001,5,2,12,,,,,,,,4,11,,,,,,,,,,,,,2,4.781,0,,,,,,-0.16049703,-0.263687134,1,0,0,4.7813,Basalt_rect,11,0,11,0,1,
60370cc8e1feab5ce84685ef,SCR,2024-06-11_10h11.23.637,LearnStrategy,2023.2.3,MacIntel,60.0024001,5,2,13,,,,,,,,4,13,,,,,,,,,,,,,2,4.181,0,,,,,,-0.16049703,-0.263687134,1,0,0,4.1813,Basalt_rect,12,0,12,0,1,
60370cc8e1feab5ce84685ef,SCR,2024-06-11_10h11.23.637,LearnStrategy,2023.2.3,MacIntel,60.0024001,5,2,14,,,,,,,,8,03,,,,,,,,,,,,,8,1.777,1,,,,,,0.473739624,-0.397221883,1,0,0,1.7771,Pumice_rect,13,0,13,0,1,
60370cc8e1feab5ce84685ef,SCR,2024-06-11_10h11.23.637,LearnStrategy,2023.2.3,MacIntel,60.0024001,5,2,15,,,,,,,,3,15,,,,,,,,,,,,,3,4.587,1,,,,,,0.085113525,-0.23332723,1,0,0,4.5872,Diorite_rect,14,0,14,0,1,
60370cc8e1feab5ce84685ef,SCR,2024-06-11_10h11.23.637,LearnStrategy,2023.2.3,MacIntel,60.0024001,5,2,16,,,,,,,,6,07,,,,,,,,,,,,,6,4.612,1,,,,,,-0.06749471,-0.407099406,1,0,0,4.6122,Pegmatite_rect,15,0,15,0,1,
60370cc8e1feab5ce84685ef,SCR,2024-06-11_10h11.23.637,LearnStrategy,2023.2.3,MacIntel,60.0024001,6,1,1,0.073949178,-0.10299174,1,0,0,2.0139,Diorite_08,3,08,3,5,2.014,3,08,0.116358439,-0.229487101,1,0,0,3.6857,Diorite_rect,3,3.686,1,0,0,0,0,1,,,,,,,,,,,,,
60370cc8e1feab5ce84685ef,SCR,2024-06-11_10h11.23.637,LearnStrategy,2023.2.3,MacIntel,60.0024001,6,1,2,0.514663696,0.389104207,1,0,0,1.2618,Pumice_14,8,14,6,8,1.262,8,14,0.417058309,-0.391596476,1,0,0,1.1511,Pumice_rect,8,1.151,1,1,0,1,0,1,,,,,,,,,,,,,
60370cc8e1feab5ce84685ef,SCR,2024-06-11_10h11.23.637,LearnStrategy,2023.2.3,MacIntel,60.0024001,6,1,3,-0.35991923,0.076227824,1,0,0,1.1331,Andesite_14,1,14,4,2,1.133,1,14,0.352172852,-0.265803019,1,0,0,6.3256,Gabbro_rect,4,6.326,0,2,0,2,0,1,,,,,,,,,,,,,
60370cc8e1feab5ce84685ef,SCR,2024-06-11_10h11.23.637,LearnStrategy,2023.2.3,MacIntel,60.0024001,6,1,4,0.231984456,0.111760457,1,0,0,0.8641,Obsidian_05,5,05,4,6,0.864,5,05,-0.349411011,-0.401784261,1,0,0,1.3057,Obsidian_rect,5,1.306,1,3,0,3,0,1,,,,,,,,,,,,,
60370cc8e1feab5ce84685ef,SCR,2024-06-11_10h11.23.637,LearnStrategy,2023.2.3,MacIntel,60.0024001,6,1,5,0.389063517,-0.382970174,1,0,0,0.9963,Pegmatite_13,6,13,1,7,0.996,6,13,0.17725118,-0.393610636,1,0,0,2.6673,Peridotite_rect,7,2.667,0,4,0,4,0,1,,,,,,,,,,,,,
60370cc8e1feab5ce84685ef,SCR,2024-06-11_10h11.23.637,LearnStrategy,2023.2.3,MacIntel,60.0024001,6,1,6,0.359720866,0.290812174,1,0,0,0.8121,Gabbro_10,4,10,5,7,0.812,4,10,-0.375457764,-0.267745972,1,0,0,2.3365,Andesite_rect,1,2.337,0,5,0,5,0,1,,,,,,,,,,,,,
60370cc8e1feab5ce84685ef,SCR,2024-06-11_10h11.23.637,LearnStrategy,2023.2.3,MacIntel,60.0024001,6,1,7,-0.523788452,0.400975545,1,0,0,1.0789,Peridotite_07,7,07,6,1,1.079,7,07,0.091781616,-0.405186971,1,0,0,6.5872,Peridotite_rect,7,6.587,1,6,0,6,0,1,,,,,,,,,,,,,
60370cc8e1feab5ce84685ef,SCR,2024-06-11_10h11.23.637,LearnStrategy,2023.2.3,MacIntel,60.0024001,6,1,8,-0.219650269,0.259592692,1,0,0,0.7115,Basalt_09,2,09,5,3,0.712,2,09,-0.131286621,-0.244720459,1,0,0,2.5124,Basalt_rect,2,2.512,1,7,0,7,0,1,,,,,,,,,,,,,
60370cc8e1feab5ce84685ef,SCR,2024-06-11_10h11.23.637,LearnStrategy,2023.2.3,MacIntel,60.0024001,6,1,9,0.579732259,-0.288045247,1,0,0,0.9138,Diorite_10,3,10,2,8,0.914,3,10,0.361918132,-0.228480021,1,0,0,3.86,Gabbro_rect,4,3.86,0,8,0,8,0,1,,,,,,,,,,,,,
60370cc8e1feab5ce84685ef,SCR,2024-06-11_10h11.23.637,LearnStrategy,2023.2.3,MacIntel,60.0024001,6,1,10,0.549875895,-0.109441121,1,0,0,0.9147,Gabbro_08,4,08,3,8,0.915,4,08,-0.372451782,-0.266057332,1,0,0,1.4672,Andesite_rect,1,1.467,0,9,0,9,0,1,,,,,,,,,,,,,
60370cc8e1feab5ce84685ef,SCR,2024-06-11_10h11.23.637,LearnStrategy,2023.2.3,MacIntel,60.0024001,6,1,11,0.50869751,-0.43456014,1,0,0,1.0628,Peridotite_08,7,08,1,8,1.063,7,08,0.20820109,-0.236679077,1,0,0,3.2405,Diorite_rect,3,3.241,0,10,0,10,0,1,,,,,,,,,,,,,
60370cc8e1feab5ce84685ef,SCR,2024-06-11_10h11.23.637,LearnStrategy,2023.2.3,MacIntel,60.0024001,6,1,12,0.402781169,0.23664856,1,0,0,1.0952,Gabbro_10,4,10,5,7,1.095,4,10,0.133422852,-0.249867757,1,0,0,2.0247,Diorite_rect,3,2.025,0,11,0,11,0,1,,,,,,,,,,,,,
60370cc8e1feab5ce84685ef,SCR,2024-06-11_10h11.23.637,LearnStrategy,2023.2.3,MacIntel,60.0024001,6,1,13,0.207600911,0.227956136,1,0,0,0.7954,Gabbro_16,4,16,5,6,0.795,4,16,-0.100529989,-0.244522095,1,0,0,4.2722,Basalt_rect,2,4.272,0,12,0,12,0,1,,,,,,,,,,,,,
60370cc8e1feab5ce84685ef,SCR,2024-06-11_10h11.23.637,LearnStrategy,2023.2.3,MacIntel,60.0024001,6,1,14,-0.053868612,0.298736572,1,0,0,0.6807,Andesite_16,1,16,5,4,0.681,1,16,-0.403747559,-0.240244548,1,0,0,2.3638,Andesite_rect,1,2.364,1,13,0,13,0,1,,,,,,,,,,,,,
60370cc8e1feab5ce84685ef,SCR,2024-06-11_10h11.23.637,LearnStrategy,2023.2.3,MacIntel,60.0024001,6,1,15,0.094640096,0.12491862,1,0,0,0.6775,Basalt_14,2,14,4,5,0.678,2,14,-0.0806427,-0.233159383,1,0,0,1.5663,Basalt_rect,2,1.566,1,14,0,14,0,1,,,,,,,,,,,,,
60370cc8e1feab5ce84685ef,SCR,2024-06-11_10h11.23.637,LearnStrategy,2023.2.3,MacIntel,60.0024001,6,1,16,0.550760905,0.266688029,1,0,0,0.9312,Andesite_03,1,03,5,8,0.931,1,03,0.17985026,-0.243631999,1,0,0,1.6792,Diorite_rect,3,1.679,0,15,0,15,0,1,,,,,,,,,,,,,
60370cc8e1feab5ce84685ef,SCR,2024-06-11_10h11.23.637,LearnStrategy,2023.2.3,MacIntel,60.0024001,6,2,1,,,,,,,,4,14,,,,,,,,,,,,,4,5.887,1,,,,,,0.417241414,-0.262929281,1,0,0,5.8866,Gabbro_rect,0,0,0,0,1,
60370cc8e1feab5ce84685ef,SCR,2024-06-11_10h11.23.637,LearnStrategy,2023.2.3,MacIntel,60.0024001,6,2,2,,,,,,,,6,15,,,,,,,,,,,,,6,8.345,1,,,,,,-0.160771688,-0.397272746,1,0,0,8.3454,Pegmatite_rect,1,0,1,0,1,
60370cc8e1feab5ce84685ef,SCR,2024-06-11_10h11.23.637,LearnStrategy,2023.2.3,MacIntel,60.0024001,6,2,3,,,,,,,,7,16,,,,,,,,,,,,,7,5.346,1,,,,,,0.064239502,-0.416971842,1,0,0,5.3465,Peridotite_rect,2,0,2,0,1,
60370cc8e1feab5ce84685ef,SCR,2024-06-11_10h11.23.637,LearnStrategy,2023.2.3,MacIntel,60.0024001,6,2,4,,,,,,,,8,10,,,,,,,,,,,,,8,2.143,1,,,,,,0.372650146,-0.403422038,1,0,0,2.1427,Pumice_rect,3,0,3,0,1,
60370cc8e1feab5ce84685ef,SCR,2024-06-11_10h11.23.637,LearnStrategy,2023.2.3,MacIntel,60.0024001,6,2,5,,,,,,,,3,09,,,,,,,,,,,,,1,4.837,0,,,,,,-0.444544474,-0.260935465,1,0,0,4.8372,Andesite_rect,4,0,4,0,1,
60370cc8e1feab5ce84685ef,SCR,2024-06-11_10h11.23.637,LearnStrategy,2023.2.3,MacIntel,60.0024001,6,2,6,,,,,,,,5,07,,,,,,,,,,,,,5,1.146,1,,,,,,-0.373341878,-0.407602946,1,0,0,1.1464,Obsidian_rect,5,0,5,0,1,
60370cc8e1feab5ce84685ef,SCR,2024-06-11_10h11.23.637,LearnStrategy,2023.2.3,MacIntel,60.0024001,6,2,7,,,,,,,,3,06,,,,,,,,,,,,,3,5.922,1,,,,,,0.160761515,-0.245559692,1,0,0,5.9215,Diorite_rect,6,0,6,0,1,
60370cc8e1feab5ce84685ef,SCR,2024-06-11_10h11.23.637,LearnStrategy,2023.2.3,MacIntel,60.0024001,6,2,8,,,,,,,,1,10,,,,,,,,,,,,,1,5.313,1,,,,,,-0.489390055,-0.265401204,1,0,0,5.3133,Andesite_rect,7,0,7,0,1,
60370cc8e1feab5ce84685ef,SCR,2024-06-11_10h11.23.637,LearnStrategy,2023.2.3,MacIntel,60.0024001,6,2,9,,,,,,,,4,09,,,,,,,,,,,,,2,10.546,0,,,,,,-0.112701416,-0.238072713,1,0,0,10.5464,Basalt_rect,8,0,8,0,1,
60370cc8e1feab5ce84685ef,SCR,2024-06-11_10h11.23.637,LearnStrategy,2023.2.3,MacIntel,60.0024001,6,2,10,,,,,,,,5,16,,,,,,,,,,,,,5,2.37,1,,,,,,-0.378397624,-0.405253092,1,0,0,2.3695,Obsidian_rect,9,0,9,0,1,
60370cc8e1feab5ce84685ef,SCR,2024-06-11_10h11.23.637,LearnStrategy,2023.2.3,MacIntel,60.0024001,6,2,11,,,,,,,,7,10,,,,,,,,,,,,,7,8.811,1,,,,,,0.063456217,-0.416753133,1,0,0,8.8108,Peridotite_rect,10,0,10,0,1,
60370cc8e1feab5ce84685ef,SCR,2024-06-11_10h11.23.637,LearnStrategy,2023.2.3,MacIntel,60.0024001,6,2,12,,,,,,,,6,05,,,,,,,,,,,,,3,5.939,0,,,,,,0.157648722,-0.244761149,1,0,0,5.9388,Diorite_rect,11,0,11,0,1,
60370cc8e1feab5ce84685ef,SCR,2024-06-11_10h11.23.637,LearnStrategy,2023.2.3,MacIntel,60.0024001,6,2,13,,,,,,,,2,04,,,,,,,,,,,,,1,10.367,0,,,,,,-0.393809001,-0.24331665,1,0,0,10.3674,Andesite_rect,12,0,12,0,1,
60370cc8e1feab5ce84685ef,SCR,2024-06-11_10h11.23.637,LearnStrategy,2023.2.3,MacIntel,60.0024001,6,2,14,,,,,,,,1,05,,,,,,,,,,,,,3,4.129,0,,,,,,0.14924113,-0.268325806,1,0,0,4.1293,Diorite_rect,13,0,13,0,1,
60370cc8e1feab5ce84685ef,SCR,2024-06-11_10h11.23.637,LearnStrategy,2023.2.3,MacIntel,60.0024001,6,2,15,,,,,,,,2,02,,,,,,,,,,,,,1,3.703,0,,,,,,-0.308278402,-0.247497559,1,0,0,3.7026,Andesite_rect,14,0,14,0,1,
60370cc8e1feab5ce84685ef,SCR,2024-06-11_10h11.23.637,LearnStrategy,2023.2.3,MacIntel,60.0024001,6,2,16,,,,,,,,8,05,,,,,,,,,,,,,8,1.478,1,,,,,,0.442403158,-0.394048055,1,0,0,1.4783,Pumice_rect,15,0,15,0,1,
60370cc8e1feab5ce84685ef,SCR,2024-06-11_10h11.23.637,LearnStrategy,2023.2.3,MacIntel,60.0024001,7,1,1,-0.429361979,0.256525675,1,0,0,1.2318,Basalt_10,2,10,5,2,1.232,2,10,0.425486247,-0.242202759,1,0,0,6.3456,Gabbro_rect,4,6.346,0,0,0,0,0,1,,,,,,,,,,,,,
60370cc8e1feab5ce84685ef,SCR,2024-06-11_10h11.23.637,LearnStrategy,2023.2.3,MacIntel,60.0024001,7,1,2,0.250610352,-0.233978271,1,0,0,1.447,Andesite_01,1,01,2,6,1.447,1,01,-0.334777832,-0.228652954,1,0,0,1.7811,Andesite_rect,1,1.781,1,1,0,1,0,1,,,,,,,,,,,,,
60370cc8e1feab5ce84685ef,SCR,2024-06-11_10h11.23.637,LearnStrategy,2023.2.3,MacIntel,60.0024001,7,1,3,-0.217259725,0.098205566,1,0,0,0.6985,Pegmatite_12,6,12,4,3,0.699,6,12,-0.081675212,-0.404754639,1,0,0,2.5206,Pegmatite_rect,6,2.521,1,2,0,2,0,1,,,,,,,,,,,,,
60370cc8e1feab5ce84685ef,SCR,2024-06-11_10h11.23.637,LearnStrategy,2023.2.3,MacIntel,60.0024001,7,1,4,-0.538472493,-0.45547994,1,0,0,1.1798,Pumice_15,8,15,1,1,1.18,8,15,0.449935913,-0.381693522,1,0,0,1.2133,Pumice_rect,8,1.213,1,3,0,3,0,1,,,,,,,,,,,,,
60370cc8e1feab5ce84685ef,SCR,2024-06-11_10h11.23.637,LearnStrategy,2023.2.3,MacIntel,60.0024001,7,1,5,0.53108724,-0.112915039,1,0,0,1.065,Gabbro_08,4,08,3,8,1.065,4,08,0.143178304,-0.245859782,1,0,0,2.7817,Diorite_rect,3,2.782,0,4,0,4,0,1,,,,,,,,,,,,,
60370cc8e1feab5ce84685ef,SCR,2024-06-11_10h11.23.637,LearnStrategy,2023.2.3,MacIntel,60.0024001,7,1,6,-0.223363241,0.393351237,1,0,0,1.0819,Obsidian_02,5,02,6,3,1.082,5,02,-0.434697469,-0.394134521,1,0,0,0.8617,Obsidian_rect,5,0.862,1,5,0,5,0,1,,,,,,,,,,,,,
60370cc8e1feab5ce84685ef,SCR,2024-06-11_10h11.23.637,LearnStrategy,2023.2.3,MacIntel,60.0024001,7,1,7,0.395161947,0.091888428,1,0,0,0.9469,Peridotite_06,7,06,4,7,0.947,7,06,-0.101710002,-0.40435791,1,0,0,2.0906,Pegmatite_rect,6,2.091,0,6,0,6,0,1,,,,,,,,,,,,,
60370cc8e1feab5ce84685ef,SCR,2024-06-11_10h11.23.637,LearnStrategy,2023.2.3,MacIntel,60.0024001,7,1,8,0.391438802,0.272018433,1,0,0,1.0976,Gabbro_10,4,10,5,7,1.098,4,10,0.394902547,-0.2628479,1,0,0,2.2485,Gabbro_rect,4,2.248,1,7,0,7,0,1,,,,,,,,,,,,,
60370cc8e1feab5ce84685ef,SCR,2024-06-11_10h11.23.637,LearnStrategy,2023.2.3,MacIntel,60.0024001,7,1,9,0.555394491,-0.262410482,1,0,0,1.0625,Diorite_10,3,10,2,8,1.063,3,10,-0.339370728,-0.240432739,1,0,0,1.2482,Andesite_rect,1,1.248,0,8,0,8,0,1,,,,,,,,,,,,,
60370cc8e1feab5ce84685ef,SCR,2024-06-11_10h11.23.637,LearnStrategy,2023.2.3,MacIntel,60.0024001,7,1,10,-0.185943604,0.100026449,1,0,0,0.9468,Pegmatite_12,6,12,4,3,0.947,6,12,0.071960449,-0.398630778,1,0,0,1.257,Peridotite_rect,7,1.257,0,9,0,9,0,1,,,,,,,,,,,,,
60370cc8e1feab5ce84685ef,SCR,2024-06-11_10h11.23.637,LearnStrategy,2023.2.3,MacIntel,60.0024001,7,1,11,-0.068969727,0.244695028,1,0,0,0.7141,Andesite_16,1,16,5,4,0.714,1,16,0.178578695,-0.243759155,1,0,0,2.3391,Diorite_rect,3,2.339,0,10,0,10,0,1,,,,,,,,,,,,,
60370cc8e1feab5ce84685ef,SCR,2024-06-11_10h11.23.637,LearnStrategy,2023.2.3,MacIntel,60.0024001,7,1,12,0.420359294,-0.247812907,1,0,0,1.0461,Andesite_09,1,09,2,7,1.046,1,09,0.465169271,-0.244918823,1,0,0,0.9421,Gabbro_rect,4,0.942,0,11,0,11,0,1,,,,,,,,,,,,,
60370cc8e1feab5ce84685ef,SCR,2024-06-11_10h11.23.637,LearnStrategy,2023.2.3,MacIntel,60.0024001,7,1,13,-0.064605713,0.085067749,1,0,0,0.6617,Gabbro_15,4,15,4,4,0.662,4,15,0.354375203,-0.247573853,1,0,0,1.7821,Gabbro_rect,4,1.782,1,12,0,12,0,1,,,,,,,,,,,,,
60370cc8e1feab5ce84685ef,SCR,2024-06-11_10h11.23.637,LearnStrategy,2023.2.3,MacIntel,60.0024001,7,1,14,0.107437134,-0.090698242,1,0,0,0.6303,Diorite_08,3,08,3,5,0.63,3,08,-0.354527791,-0.249069214,1,0,0,2.9611,Andesite_rect,1,2.961,0,13,0,13,0,1,,,,,,,,,,,,,
60370cc8e1feab5ce84685ef,SCR,2024-06-11_10h11.23.637,LearnStrategy,2023.2.3,MacIntel,60.0024001,7,1,15,-0.539713542,-0.071182251,1,0,0,1.2702,Basalt_08,2,08,3,1,1.27,2,08,-0.37024943,-0.251836141,1,0,0,1.3923,Andesite_rect,1,1.392,0,14,0,14,0,1,,,,,,,,,,,,,
60370cc8e1feab5ce84685ef,SCR,2024-06-11_10h11.23.637,LearnStrategy,2023.2.3,MacIntel,60.0024001,7,1,16,-0.389017741,0.227605184,1,0,0,0.763,Basalt_10,2,10,5,2,0.763,2,10,-0.125905355,-0.246083577,1,0,0,1.9836,Basalt_rect,2,1.984,1,15,0,15,0,1,,,,,,,,,,,,,
60370cc8e1feab5ce84685ef,SCR,2024-06-11_10h11.23.637,LearnStrategy,2023.2.3,MacIntel,60.0024001,7,2,1,,,,,,,,6,15,,,,,,,,,,,,,6,9.829,1,,,,,,-0.082433065,-0.37874349,1,0,0,9.8292,Pegmatite_rect,0,0,0,0,1,
60370cc8e1feab5ce84685ef,SCR,2024-06-11_10h11.23.637,LearnStrategy,2023.2.3,MacIntel,60.0024001,7,2,2,,,,,,,,2,12,,,,,,,,,,,,,8,1.63,0,,,,,,0.353871663,-0.40852356,1,0,0,1.63,Pumice_rect,1,0,1,0,1,
60370cc8e1feab5ce84685ef,SCR,2024-06-11_10h11.23.637,LearnStrategy,2023.2.3,MacIntel,60.0024001,7,2,3,,,,,,,,1,07,,,,,,,,,,,,,3,6.429,0,,,,,,0.099797567,-0.245747884,1,0,0,6.429,Diorite_rect,2,0,2,0,1,
60370cc8e1feab5ce84685ef,SCR,2024-06-11_10h11.23.637,LearnStrategy,2023.2.3,MacIntel,60.0024001,7,2,4,,,,,,,,1,04,,,,,,,,,,,,,3,5.723,0,,,,,,0.109481812,-0.246729533,1,0,0,5.7232,Diorite_rect,3,0,3,0,1,
60370cc8e1feab5ce84685ef,SCR,2024-06-11_10h11.23.637,LearnStrategy,2023.2.3,MacIntel,60.0024001,7,2,5,,,,,,,,5,12,,,,,,,,,,,,,5,1.738,1,,,,,,-0.391596476,-0.404368083,1,0,0,1.7378,Obsidian_rect,4,0,4,0,1,
60370cc8e1feab5ce84685ef,SCR,2024-06-11_10h11.23.637,LearnStrategy,2023.2.3,MacIntel,60.0024001,7,2,6,,,,,,,,4,01,,,,,,,,,,,,,1,1.348,0,,,,,,-0.36298116,-0.255533854,1,0,0,1.3475,Andesite_rect,5,0,5,0,1,
60370cc8e1feab5ce84685ef,SCR,2024-06-11_10h11.23.637,LearnStrategy,2023.2.3,MacIntel,60.0024001,7,2,7,,,,,,,,3,09,,,,,,,,,,,,,1,1.017,0,,,,,,-0.36298116,-0.255533854,1,0,0,1.0166,Andesite_rect,6,0,6,0,1,
60370cc8e1feab5ce84685ef,SCR,2024-06-11_10h11.23.637,LearnStrategy,2023.2.3,MacIntel,60.0024001,7,2,8,,,,,,,,8,10,,,,,,,,,,,,,8,1.393,1,,,,,,0.470011393,-0.402638753,1,0,0,1.3933,Pumice_rect,7,0,7,0,1,
60370cc8e1feab5ce84685ef,SCR,2024-06-11_10h11.23.637,LearnStrategy,2023.2.3,MacIntel,60.0024001,7,2,9,,,,,,,,7,16,,,,,,,,,,,,,7,11.982,1,,,,,,0.127090454,-0.404378255,1,0,0,11.9821,Peridotite_rect,8,0,8,0,1,
60370cc8e1feab5ce84685ef,SCR,2024-06-11_10h11.23.637,LearnStrategy,2023.2.3,MacIntel,60.0024001,7,2,10,,,,,,,,2,16,,,,,,,,,,,,,2,3.512,1,,,,,,-0.113667806,-0.247319539,1,0,0,3.512,Basalt_rect,9,0,9,0,1,
60370cc8e1feab5ce84685ef,SCR,2024-06-11_10h11.23.637,LearnStrategy,2023.2.3,MacIntel,60.0024001,7,2,11,,,,,,,,7,13,,,,,,,,,,,,,7,9.019,1,,,,,,0.10333252,-0.380091349,1,0,0,9.0193,Peridotite_rect,10,0,10,0,1,
60370cc8e1feab5ce84685ef,SCR,2024-06-11_10h11.23.637,LearnStrategy,2023.2.3,MacIntel,60.0024001,7,2,12,,,,,,,,5,07,,,,,,,,,,,,,5,1.229,1,,,,,,-0.445617676,-0.402913411,1,0,0,1.2292,Obsidian_rect,11,0,11,0,1,
60370cc8e1feab5ce84685ef,SCR,2024-06-11_10h11.23.637,LearnStrategy,2023.2.3,MacIntel,60.0024001,7,2,13,,,,,,,,3,14,,,,,,,,,,,,,1,1.844,0,,,,,,-0.401412964,-0.236999512,1,0,0,1.8441,Andesite_rect,12,0,12,0,1,
60370cc8e1feab5ce84685ef,SCR,2024-06-11_10h11.23.637,LearnStrategy,2023.2.3,MacIntel,60.0024001,7,2,14,,,,,,,,6,09,,,,,,,,,,,,,6,5.997,1,,,,,,-0.150889079,-0.397557576,1,0,0,5.997,Pegmatite_rect,13,0,13,0,1,
60370cc8e1feab5ce84685ef,SCR,2024-06-11_10h11.23.637,LearnStrategy,2023.2.3,MacIntel,60.0024001,7,2,15,,,,,,,,8,05,,,,,,,,,,,,,8,1.225,1,,,,,,0.456319173,-0.387451172,1,0,0,1.2248,Pumice_rect,14,0,14,0,1,
60370cc8e1feab5ce84685ef,SCR,2024-06-11_10h11.23.637,LearnStrategy,2023.2.3,MacIntel,60.0024001,7,2,16,,,,,,,,4,14,,,,,,,,,,,,,2,1.695,0,,,,,,-0.106323242,-0.229166667,1,0,0,1.6947,Basalt_rect,15,0,15,0,1,
60370cc8e1feab5ce84685ef,SCR,2024-06-11_10h11.23.637,LearnStrategy,2023.2.3,MacIntel,60.0024001,8,1,1,-0.260706584,0.127415975,1,0,0,0.95,Pegmatite_12,6,12,4,3,0.95,6,12,0.12852478,-0.255182902,1,0,0,1.6871,Diorite_rect,3,1.687,0,0,0,0,0,1,,,,,,,,,,,,,
60370cc8e1feab5ce84685ef,SCR,2024-06-11_10h11.23.637,LearnStrategy,2023.2.3,MacIntel,60.0024001,8,1,2,0.247614543,0.421142578,1,0,0,1.0315,Basalt_06,2,06,6,6,1.032,2,06,-0.113062541,-0.263702393,1,0,0,4.2926,Basalt_rect,2,4.293,1,1,0,1,0,1,,,,,,,,,,,,,
60370cc8e1feab5ce84685ef,SCR,2024-06-11_10h11.23.637,LearnStrategy,2023.2.3,MacIntel,60.0024001,8,1,3,0.255589803,-0.282613118,1,0,0,0.8452,Andesite_01,1,01,2,6,0.845,1,01,-0.354715983,-0.234410604,1,0,0,1.3292,Andesite_rect,1,1.329,1,2,0,2,0,1,,,,,,,,,,,,,
60370cc8e1feab5ce84685ef,SCR,2024-06-11_10h11.23.637,LearnStrategy,2023.2.3,MacIntel,60.0024001,8,1,4,-0.213719686,-0.113800049,1,0,0,0.8453,Basalt_11,2,11,3,3,0.845,2,11,0.43943278,-0.383056641,1,0,0,0.8893,Pumice_rect,8,0.889,0,3,0,3,0,1,,,,,,,,,,,,,
60370cc8e1feab5ce84685ef,SCR,2024-06-11_10h11.23.637,LearnStrategy,2023.2.3,MacIntel,60.0024001,8,1,5,0.540283203,-0.263676961,1,0,0,1.878,Diorite_10,3,10,2,8,1.878,3,10,0.148874919,-0.25507609,1,0,0,1.8757,Diorite_rect,3,1.876,1,4,0,4,0,1,,,,,,,,,,,,,
60370cc8e1feab5ce84685ef,SCR,2024-06-11_10h11.23.637,LearnStrategy,2023.2.3,MacIntel,60.0024001,8,1,6,0.081715902,0.404856364,1,0,0,1.0457,Pumice_16,8,16,6,5,1.046,8,16,0.424880981,-0.402669271,1,0,0,2.3702,Pumice_rect,8,2.37,1,5,0,5,0,1,,,,,,,,,,,,,
60370cc8e1feab5ce84685ef,SCR,2024-06-11_10h11.23.637,LearnStrategy,2023.2.3,MacIntel,60.0024001,8,1,7,0.425633748,0.420120239,1,0,0,1.0461,Diorite_12,3,12,6,7,1.046,3,12,0.406036377,-0.246576945,1,0,0,1.2284,Gabbro_rect,4,1.228,0,6,0,6,0,1,,,,,,,,,,,,,
60370cc8e1feab5ce84685ef,SCR,2024-06-11_10h11.23.637,LearnStrategy,2023.2.3,MacIntel,60.0024001,8,1,8,0.401438395,0.120819092,1,0,0,0.9298,Peridotite_06,7,06,4,7,0.93,7,06,-0.141123454,-0.409428914,1,0,0,1.3888,Pegmatite_rect,6,1.389,0,7,0,7,0,1,,,,,,,,,,,,,
60370cc8e1feab5ce84685ef,SCR,2024-06-11_10h11.23.637,LearnStrategy,2023.2.3,MacIntel,60.0024001,8,1,9,0.557261149,0.048522949,1,0,0,1.0474,Gabbro_12,4,12,4,8,1.047,4,12,0.149047852,-0.259109497,1,0,0,1.806,Diorite_rect,3,1.806,0,8,0,8,0,1,,,,,,,,,,,,,
60370cc8e1feab5ce84685ef,SCR,2024-06-11_10h11.23.637,LearnStrategy,2023.2.3,MacIntel,60.0024001,8,1,10,0.235850016,-0.426396688,1,0,0,1.0953,Andesite_11,1,11,1,6,1.095,1,11,0.144292196,-0.247380575,1,0,0,2.5919,Diorite_rect,3,2.592,0,9,0,9,0,1,,,,,,,,,,,,,
60370cc8e1feab5ce84685ef,SCR,2024-06-11_10h11.23.637,LearnStrategy,2023.2.3,MacIntel,60.0024001,8,1,11,0.265762329,0.451538086,1,0,0,0.8808,Basalt_06,2,06,6,6,0.881,2,06,0.396118164,-0.247227987,1,0,0,4.9716,Gabbro_rect,4,4.972,0,10,0,10,0,1,,,,,,,,,,,,,
60370cc8e1feab5ce84685ef,SCR,2024-06-11_10h11.23.637,LearnStrategy,2023.2.3,MacIntel,60.0024001,8,1,12,0.204945882,0.222783407,1,0,0,0.9971,Gabbro_16,4,16,5,6,0.997,4,16,-0.117736816,-0.235865275,1,0,0,1.0829,Basalt_rect,2,1.083,0,11,0,11,0,1,,,,,,,,,,,,,
60370cc8e1feab5ce84685ef,SCR,2024-06-11_10h11.23.637,LearnStrategy,2023.2.3,MacIntel,60.0024001,8,1,13,0.342885335,0.390721639,1,0,0,0.9054,Diorite_12,3,12,6,7,0.905,3,12,-0.365854899,-0.253356934,1,0,0,1.9747,Andesite_rect,1,1.975,0,12,0,12,0,1,,,,,,,,,,,,,
60370cc8e1feab5ce84685ef,SCR,2024-06-11_10h11.23.637,LearnStrategy,2023.2.3,MacIntel,60.0024001,8,1,14,0.407374064,-0.247309367,1,0,0,1.0786,Andesite_09,1,09,2,7,1.079,1,09,-0.360992432,-0.258488973,1,0,0,3.5435,Andesite_rect,1,3.543,1,13,0,13,0,1,,,,,,,,,,,,,
60370cc8e1feab5ce84685ef,SCR,2024-06-11_10h11.23.637,LearnStrategy,2023.2.3,MacIntel,60.0024001,8,1,15,0.278045654,-0.280919393,1,0,0,1.3136,Andesite_01,1,01,2,6,1.314,1,01,0.392064412,-0.250645955,1,0,0,3.0658,Gabbro_rect,4,3.066,0,14,0,14,0,1,,,,,,,,,,,,,
60370cc8e1feab5ce84685ef,SCR,2024-06-11_10h11.23.637,LearnStrategy,2023.2.3,MacIntel,60.0024001,8,1,16,0.537913005,0.075536092,1,0,0,1.1298,Gabbro_12,4,12,4,8,1.13,4,12,-0.353164673,-0.25289917,1,0,0,1.6333,Andesite_rect,1,1.633,0,15,0,15,0,1,,,,,,,,,,,,,
60370cc8e1feab5ce84685ef,SCR,2024-06-11_10h11.23.637,LearnStrategy,2023.2.3,MacIntel,60.0024001,8,2,1,,,,,,,,2,01,,,,,,,,,,,,,2,3.304,1,,,,,,-0.133412679,-0.241755168,1,0,0,3.3043,Basalt_rect,0,0,0,0,1,
60370cc8e1feab5ce84685ef,SCR,2024-06-11_10h11.23.637,LearnStrategy,2023.2.3,MacIntel,60.0024001,8,2,2,,,,,,,,1,02,,,,,,,,,,,,,2,2.133,0,,,,,,-0.133412679,-0.241755168,1,0,0,2.1327,Basalt_rect,1,0,1,0,1,
60370cc8e1feab5ce84685ef,SCR,2024-06-11_10h11.23.637,LearnStrategy,2023.2.3,MacIntel,60.0024001,8,2,3,,,,,,,,1,10,,,,,,,,,,,,,2,9.209,0,,,,,,-0.111597697,-0.266581217,1,0,0,9.2087,Basalt_rect,2,0,2,0,1,
60370cc8e1feab5ce84685ef,SCR,2024-06-11_10h11.23.637,LearnStrategy,2023.2.3,MacIntel,60.0024001,8,2,4,,,,,,,,4,13,,,,,,,,,,,,,2,1.374,0,,,,,,-0.111597697,-0.266581217,1,0,0,1.3743,Basalt_rect,3,0,3,0,1,
60370cc8e1feab5ce84685ef,SCR,2024-06-11_10h11.23.637,LearnStrategy,2023.2.3,MacIntel,60.0024001,8,2,5,,,,,,,,3,15,,,,,,,,,,,,,3,5.281,1,,,,,,0.1449941,-0.230545044,1,0,0,5.2807,Diorite_rect,4,0,4,0,1,
60370cc8e1feab5ce84685ef,SCR,2024-06-11_10h11.23.637,LearnStrategy,2023.2.3,MacIntel,60.0024001,8,2,6,,,,,,,,8,04,,,,,,,,,,,,,8,1.955,1,,,,,,0.364720662,-0.39960734,1,0,0,1.9549,Pumice_rect,5,0,5,0,1,
60370cc8e1feab5ce84685ef,SCR,2024-06-11_10h11.23.637,LearnStrategy,2023.2.3,MacIntel,60.0024001,8,2,7,,,,,,,,5,06,,,,,,,,,,,,,5,1.171,1,,,,,,-0.383804321,-0.411290487,1,0,0,1.1714,Obsidian_rect,6,0,6,0,1,
60370cc8e1feab5ce84685ef,SCR,2024-06-11_10h11.23.637,LearnStrategy,2023.2.3,MacIntel,60.0024001,8,2,8,,,,,,,,2,05,,,,,,,,,,,,,1,7.323,0,,,,,,-0.416829427,-0.251597087,1,0,0,7.3231,Andesite_rect,7,0,7,0,1,
60370cc8e1feab5ce84685ef,SCR,2024-06-11_10h11.23.637,LearnStrategy,2023.2.3,MacIntel,60.0024001,8,2,9,,,,,,,,4,03,,,,,,,,,,,,,3,4.337,0,,,,,,0.143117269,-0.258178711,1,0,0,4.3374,Diorite_rect,8,0,8,0,1,
60370cc8e1feab5ce84685ef,SCR,2024-06-11_10h11.23.637,LearnStrategy,2023.2.3,MacIntel,60.0024001,8,2,10,,,,,,,,5,08,,,,,,,,,,,,,5,1.041,1,,,,,,-0.400187174,-0.413279215,1,0,0,1.0406,Obsidian_rect,9,0,9,0,1,
60370cc8e1feab5ce84685ef,SCR,2024-06-11_10h11.23.637,LearnStrategy,2023.2.3,MacIntel,60.0024001,8,2,11,,,,,,,,3,02,,,,,,,,,,,,,3,5.16,1,,,,,,0.093454997,-0.260116577,1,0,0,5.1603,Diorite_rect,10,0,10,0,1,
60370cc8e1feab5ce84685ef,SCR,2024-06-11_10h11.23.637,LearnStrategy,2023.2.3,MacIntel,60.0024001,8,2,12,,,,,,,,6,05,,,,,,,,,,,,,6,12.905,1,,,,,,-0.122787476,-0.384770711,1,0,0,12.9053,Pegmatite_rect,11,0,11,0,1,
60370cc8e1feab5ce84685ef,SCR,2024-06-11_10h11.23.637,LearnStrategy,2023.2.3,MacIntel,60.0024001,8,2,13,,,,,,,,7,10,,,,,,,,,,,,,7,4.211,1,,,,,,0.078226725,-0.417470296,1,0,0,4.2107,Peridotite_rect,12,0,12,0,1,
60370cc8e1feab5ce84685ef,SCR,2024-06-11_10h11.23.637,LearnStrategy,2023.2.3,MacIntel,60.0024001,8,2,14,,,,,,,,8,08,,,,,,,,,,,,,8,1.919,1,,,,,,0.353403727,-0.398874919,1,0,0,1.9193,Pumice_rect,13,0,13,0,1,
60370cc8e1feab5ce84685ef,SCR,2024-06-11_10h11.23.637,LearnStrategy,2023.2.3,MacIntel,60.0024001,8,2,15,,,,,,,,6,08,,,,,,,,,,,,,6,5.196,1,,,,,,-0.139328003,-0.398345947,1,0,0,5.1955,Pegmatite_rect,14,0,14,0,1,
60370cc8e1feab5ce84685ef,SCR,2024-06-11_10h11.23.637,LearnStrategy,2023.2.3,MacIntel,60.0024001,8,2,16,,,,,,,,7,04,,,,,,,,,,,,,6,1.941,0,,,,,,-0.139328003,-0.398345947,1,0,0,1.9411,Pegmatite_rect,15,0,15,0,1,
60370cc8e1feab5ce84685ef,SCR,2024-06-11_10h11.23.637,LearnStrategy,2023.2.3,MacIntel,60.0024001,9,1,1,-0.435211182,-0.059931437,1,0,0,1.2491,Gabbro_05,4,05,3,2,1.249,4,05,0.173151652,-0.242935181,1,0,0,1.7464,Diorite_rect,3,1.746,0,0,0,0,0,1,,,,,,,,,,,,,
60370cc8e1feab5ce84685ef,SCR,2024-06-11_10h11.23.637,LearnStrategy,2023.2.3,MacIntel,60.0024001,9,1,2,0.377878825,0.141621908,1,0,0,0.9977,Peridotite_06,7,06,4,7,0.998,7,06,0.099639893,-0.394378662,1,0,0,1.7482,Peridotite_rect,7,1.748,1,1,0,1,0,1,,,,,,,,,,,,,
60370cc8e1feab5ce84685ef,SCR,2024-06-11_10h11.23.637,LearnStrategy,2023.2.3,MacIntel,60.0024001,9,1,3,0.380569458,-0.405385335,1,0,0,1.1473,Pegmatite_13,6,13,1,7,1.147,6,13,-0.121790568,-0.414418538,1,0,0,1.5726,Pegmatite_rect,6,1.573,1,2,0,2,0,1,,,,,,,,,,,,,
60370cc8e1feab5ce84685ef,SCR,2024-06-11_10h11.23.637,LearnStrategy,2023.2.3,MacIntel,60.0024001,9,1,4,-0.273386637,-0.121582031,1,0,0,0.8818,Basalt_11,2,11,3,3,0.882,2,11,0.391616821,-0.401341756,1,0,0,1.1127,Pumice_rect,8,1.113,0,3,0,3,0,1,,,,,,,,,,,,,
60370cc8e1feab5ce84685ef,SCR,2024-06-11_10h11.23.637,LearnStrategy,2023.2.3,MacIntel,60.0024001,9,1,5,0.236521403,0.234461466,1,0,0,1.1637,Gabbro_16,4,16,5,6,1.164,4,16,-0.066782633,-0.232996623,1,0,0,1.699,Basalt_rect,2,1.699,0,4,0,4,0,1,,,,,,,,,,,,,
60370cc8e1feab5ce84685ef,SCR,2024-06-11_10h11.23.637,LearnStrategy,2023.2.3,MacIntel,60.0024001,9,1,6,0.08706665,0.070378621,1,0,0,0.7814,Basalt_14,2,14,4,5,0.781,2,14,-0.176259359,-0.253575643,1,0,0,1.2768,Basalt_rect,2,1.277,1,5,0,5,0,1,,,,,,,,,,,,,
60370cc8e1feab5ce84685ef,SCR,2024-06-11_10h11.23.637,LearnStrategy,2023.2.3,MacIntel,60.0024001,9,1,7,-0.51949056,-0.200312297,1,0,0,1.0282,Diorite_16,3,16,2,1,1.028,3,16,-0.370112101,-0.2440389,1,0,0,0.748,Andesite_rect,1,0.748,0,6,0,6,0,1,,,,,,,,,,,,,
60370cc8e1feab5ce84685ef,SCR,2024-06-11_10h11.23.637,LearnStrategy,2023.2.3,MacIntel,60.0024001,9,1,8,-0.131235758,0.207382202,1,0,0,1.0969,Andesite_16,1,16,5,4,1.097,1,16,0.132405599,-0.253117879,1,0,0,10.6338,Diorite_rect,3,10.634,0,7,0,7,0,1,,,,,,,,,,,,,
60370cc8e1feab5ce84685ef,SCR,2024-06-11_10h11.23.637,LearnStrategy,2023.2.3,MacIntel,60.0024001,9,1,9,-0.440338135,-0.112711589,1,0,0,1.0976,Gabbro_05,4,05,3,2,1.098,4,05,0.106374105,-0.235427856,1,0,0,4.3134,Diorite_rect,3,4.313,0,8,0,8,0,1,,,,,,,,,,,,,
60370cc8e1feab5ce84685ef,SCR,2024-06-11_10h11.23.637,LearnStrategy,2023.2.3,MacIntel,60.0024001,9,1,10,0.246912638,-0.383041382,1,0,0,1.3634,Andesite_11,1,11,1,6,1.363,1,11,-0.404622396,-0.228083293,1,0,0,3.0285,Andesite_rect,1,3.028,1,9,0,9,0,1,,,,,,,,,,,,,
60370cc8e1feab5ce84685ef,SCR,2024-06-11_10h11.23.637,LearnStrategy,2023.2.3,MacIntel,60.0024001,9,1,11,0.517608643,0.21383667,1,0,0,1.2462,Andesite_03,1,03,5,8,1.246,1,03,-0.351003011,-0.236857096,1,0,0,2.7667,Andesite_rect,1,2.767,1,10,0,10,0,1,,,,,,,,,,,,,
60370cc8e1feab5ce84685ef,SCR,2024-06-11_10h11.23.637,LearnStrategy,2023.2.3,MacIntel,60.0024001,9,1,12,-0.517440796,-0.398635864,1,0,0,1.6826,Pumice_15,8,15,1,1,1.683,8,15,-0.151926676,-0.25445048,1,0,0,1.2997,Basalt_rect,2,1.3,0,11,0,11,0,1,,,,,,,,,,,,,
60370cc8e1feab5ce84685ef,SCR,2024-06-11_10h11.23.637,LearnStrategy,2023.2.3,MacIntel,60.0024001,9,1,13,-0.35480245,-0.103693644,1,0,0,1.1449,Gabbro_05,4,05,3,2,1.145,4,05,0.167526245,-0.252431234,1,0,0,2.6175,Diorite_rect,3,2.617,0,12,0,12,0,1,,,,,,,,,,,,,
60370cc8e1feab5ce84685ef,SCR,2024-06-11_10h11.23.637,LearnStrategy,2023.2.3,MacIntel,60.0024001,9,1,14,0.098027547,-0.411427816,1,0,0,1.713,Diorite_11,3,11,1,5,1.713,3,11,0.380340576,-0.238433838,1,0,0,6.6458,Gabbro_rect,4,6.646,0,13,0,13,0,1,,,,,,,,,,,,,
60370cc8e1feab5ce84685ef,SCR,2024-06-11_10h11.23.637,LearnStrategy,2023.2.3,MacIntel,60.0024001,9,1,15,0.211914063,0.389231364,1,0,0,1.0452,Basalt_06,2,06,6,6,1.045,2,06,0.378204346,-0.250559489,1,0,0,63.0765,Gabbro_rect,4,63.076,0,14,0,14,0,1,,,,,,,,,,,,,
60370cc8e1feab5ce84685ef,SCR,2024-06-11_10h11.23.637,LearnStrategy,2023.2.3,MacIntel,60.0024001,9,1,16,0.39104716,-0.237121582,1,0,0,1.4285,Andesite_09,1,09,2,7,1.428,1,09,-0.440210978,-0.248062134,1,0,0,1.4696,Andesite_rect,1,1.47,1,15,0,15,0,1,,,,,,,,,,,,,
60370cc8e1feab5ce84685ef,SCR,2024-06-11_10h11.23.637,LearnStrategy,2023.2.3,MacIntel,60.0024001,9,2,1,,,,,,,,6,16,,,,,,,,,,,,,6,8.509,1,,,,,,-0.108744303,-0.395609538,1,0,0,8.5087,Pegmatite_rect,0,0,0,0,1,
60370cc8e1feab5ce84685ef,SCR,2024-06-11_10h11.23.637,LearnStrategy,2023.2.3,MacIntel,60.0024001,9,2,2,,,,,,,,2,04,,,,,,,,,,,,,2,7.519,1,,,,,,-0.114222209,-0.229690552,1,0,0,7.5194,Basalt_rect,1,0,1,0,1,
60370cc8e1feab5ce84685ef,SCR,2024-06-11_10h11.23.637,LearnStrategy,2023.2.3,MacIntel,60.0024001,9,2,3,,,,,,,,3,06,,,,,,,,,,,,,3,5.696,1,,,,,,0.128758748,-0.243403117,1,0,0,5.6962,Diorite_rect,2,0,2,0,1,
60370cc8e1feab5ce84685ef,SCR,2024-06-11_10h11.23.637,LearnStrategy,2023.2.3,MacIntel,60.0024001,9,2,4,,,,,,,,8,02,,,,,,,,,,,,,8,1.413,1,,,,,,0.377085368,-0.393829346,1,0,0,1.4131,Pumice_rect,3,0,3,0,1,
60370cc8e1feab5ce84685ef,SCR,2024-06-11_10h11.23.637,LearnStrategy,2023.2.3,MacIntel,60.0024001,9,2,5,,,,,,,,4,09,,,,,,,,,,,,,4,6.788,1,,,,,,0.424067179,-0.233495076,1,0,0,6.7881,Gabbro_rect,4,0,4,0,1,
60370cc8e1feab5ce84685ef,SCR,2024-06-11_10h11.23.637,LearnStrategy,2023.2.3,MacIntel,60.0024001,9,2,6,,,,,,,,3,07,,,,,,,,,,,,,4,8.849,0,,,,,,0.340744019,-0.255401611,1,0,0,8.8487,Gabbro_rect,5,0,5,0,1,
60370cc8e1feab5ce84685ef,SCR,2024-06-11_10h11.23.637,LearnStrategy,2023.2.3,MacIntel,60.0024001,9,2,7,,,,,,,,7,14,,,,,,,,,,,,,3,7.848,0,,,,,,0.203521729,-0.238637288,1,0,0,7.8484,Diorite_rect,6,0,6,0,1,
60370cc8e1feab5ce84685ef,SCR,2024-06-11_10h11.23.637,LearnStrategy,2023.2.3,MacIntel,60.0024001,9,2,8,,,,,,,,5,04,,,,,,,,,,,,,5,1.66,1,,,,,,-0.333546956,-0.41595459,1,0,0,1.6603,Obsidian_rect,7,0,7,0,1,
60370cc8e1feab5ce84685ef,SCR,2024-06-11_10h11.23.637,LearnStrategy,2023.2.3,MacIntel,60.0024001,9,2,9,,,,,,,,4,11,,,,,,,,,,,,,1,3.137,0,,,,,,-0.317301432,-0.248204549,1,0,0,3.1371,Andesite_rect,8,0,8,0,1,
60370cc8e1feab5ce84685ef,SCR,2024-06-11_10h11.23.637,LearnStrategy,2023.2.3,MacIntel,60.0024001,9,2,10,,,,,,,,6,07,,,,,,,,,,,,,6,4.84,1,,,,,,-0.125701904,-0.384150187,1,0,0,4.8404,Pegmatite_rect,9,0,9,0,1,
60370cc8e1feab5ce84685ef,SCR,2024-06-11_10h11.23.637,LearnStrategy,2023.2.3,MacIntel,60.0024001,9,2,11,,,,,,,,1,05,,,,,,,,,,,,,3,4.666,0,,,,,,0.178222656,-0.25831604,1,0,0,4.6664,Diorite_rect,10,0,10,0,1,
60370cc8e1feab5ce84685ef,SCR,2024-06-11_10h11.23.637,LearnStrategy,2023.2.3,MacIntel,60.0024001,9,2,12,,,,,,,,1,06,,,,,,,,,,,,,1,11.346,1,,,,,,-0.443852743,-0.240010579,1,0,0,11.346,Andesite_rect,11,0,11,0,1,
60370cc8e1feab5ce84685ef,SCR,2024-06-11_10h11.23.637,LearnStrategy,2023.2.3,MacIntel,60.0024001,9,2,13,,,,,,,,5,16,,,,,,,,,,,,,5,3.098,1,,,,,,-0.376063029,-0.405008952,1,0,0,3.0977,Obsidian_rect,12,0,12,0,1,
60370cc8e1feab5ce84685ef,SCR,2024-06-11_10h11.23.637,LearnStrategy,2023.2.3,MacIntel,60.0024001,9,2,14,,,,,,,,2,02,,,,,,,,,,,,,2,1.955,1,,,,,,-0.150741577,-0.229721069,1,0,0,1.9554,Basalt_rect,13,0,13,0,1,
60370cc8e1feab5ce84685ef,SCR,2024-06-11_10h11.23.637,LearnStrategy,2023.2.3,MacIntel,60.0024001,9,2,15,,,,,,,,8,03,,,,,,,,,,,,,8,2.123,1,,,,,,0.367797852,-0.382883708,1,0,0,2.1231,Pumice_rect,14,0,14,0,1,
60370cc8e1feab5ce84685ef,SCR,2024-06-11_10h11.23.637,LearnStrategy,2023.2.3,MacIntel,60.0024001,9,2,16,,,,,,,,7,05,,,,,,,,,,,,,7,5.028,1,,,,,,0.132807414,-0.398579915,1,0,0,5.0285,Peridotite_rect,15,0,15,0,1,
60370cc8e1feab5ce84685ef,SCR,2024-06-11_10h11.23.637,LearnStrategy,2023.2.3,MacIntel,60.0024001,,,,,,,,,,,,,,,,,,,,,,,,,,,,,,,,,,,,,,,,,,,,,0
60370cc8e1feab5ce84685ef,SCR,2024-06-11_10h11.23.637,LearnStrategy,2023.2.3,MacIntel,60.0024001,,,,,,,,,,,,,,,,,,,,,,,,,,,,,,,,,,,,,,,,,,,,,
60370cc8e1feab5ce84685ef,SCR,2024-06-11_10h11.23.637,LearnStrategy,2023.2.3,MacIntel,60.0024001,,,,,,,,,,,8,15,1,1,,,,,,,,,,,,,,,,,,,,,,,,,,,,,,,
60370cc8e1feab5ce84685ef,SCR,2024-06-11_10h11.23.637,LearnStrategy,2023.2.3,MacIntel,60.0024001,,,,,,,,,,,7,12,1,2,,,,,,,,,,,,,,,,,,,,,,,,,,,,,,,
60370cc8e1feab5ce84685ef,SCR,2024-06-11_10h11.23.637,LearnStrategy,2023.2.3,MacIntel,60.0024001,,,,,,,,,,,3,13,1,3,,,,,,,,,,,,,,,,,,,,,,,,,,,,,,,
60370cc8e1feab5ce84685ef,SCR,2024-06-11_10h11.23.637,LearnStrategy,2023.2.3,MacIntel,60.0024001,,,,,,,,,,,8,06,1,4,,,,,,,,,,,,,,,,,,,,,,,,,,,,,,,
60370cc8e1feab5ce84685ef,SCR,2024-06-11_10h11.23.637,LearnStrategy,2023.2.3,MacIntel,60.0024001,,,,,,,,,,,3,11,1,5,,,,,,,,,,,,,,,,,,,,,,,,,,,,,,,
60370cc8e1feab5ce84685ef,SCR,2024-06-11_10h11.23.637,LearnStrategy,2023.2.3,MacIntel,60.0024001,,,,,,,,,,,1,11,1,6,,,,,,,,,,,,,,,,,,,,,,,,,,,,,,,
60370cc8e1feab5ce84685ef,SCR,2024-06-11_10h11.23.637,LearnStrategy,2023.2.3,MacIntel,60.0024001,,,,,,,,,,,6,13,1,7,,,,,,,,,,,,,,,,,,,,,,,,,,,,,,,
60370cc8e1feab5ce84685ef,SCR,2024-06-11_10h11.23.637,LearnStrategy,2023.2.3,MacIntel,60.0024001,,,,,,,,,,,7,08,1,8,,,,,,,,,,,,,,,,,,,,,,,,,,,,,,,
60370cc8e1feab5ce84685ef,SCR,2024-06-11_10h11.23.637,LearnStrategy,2023.2.3,MacIntel,60.0024001,,,,,,,,,,,3,16,2,1,,,,,,,,,,,,,,,,,,,,,,,,,,,,,,,
60370cc8e1feab5ce84685ef,SCR,2024-06-11_10h11.23.637,LearnStrategy,2023.2.3,MacIntel,60.0024001,,,,,,,,,,,5,11,2,2,,,,,,,,,,,,,,,,,,,,,,,,,,,,,,,
60370cc8e1feab5ce84685ef,SCR,2024-06-11_10h11.23.637,LearnStrategy,2023.2.3,MacIntel,60.0024001,,,,,,,,,,,6,10,2,3,,,,,,,,,,,,,,,,,,,,,,,,,,,,,,,
60370cc8e1feab5ce84685ef,SCR,2024-06-11_10h11.23.637,LearnStrategy,2023.2.3,MacIntel,60.0024001,,,,,,,,,,,5,14,2,4,,,,,,,,,,,,,,,,,,,,,,,,,,,,,,,
60370cc8e1feab5ce84685ef,SCR,2024-06-11_10h11.23.637,LearnStrategy,2023.2.3,MacIntel,60.0024001,,,,,,,,,,,7,15,2,5,,,,,,,,,,,,,,,,,,,,,,,,,,,,,,,
60370cc8e1feab5ce84685ef,SCR,2024-06-11_10h11.23.637,LearnStrategy,2023.2.3,MacIntel,60.0024001,,,,,,,,,,,1,01,2,6,,,,,,,,,,,,,,,,,,,,,,,,,,,,,,,
60370cc8e1feab5ce84685ef,SCR,2024-06-11_10h11.23.637,LearnStrategy,2023.2.3,MacIntel,60.0024001,,,,,,,,,,,1,09,2,7,,,,,,,,,,,,,,,,,,,,,,,,,,,,,,,
60370cc8e1feab5ce84685ef,SCR,2024-06-11_10h11.23.637,LearnStrategy,2023.2.3,MacIntel,60.0024001,,,,,,,,,,,3,10,2,8,,,,,,,,,,,,,,,,,,,,,,,,,,,,,,,
60370cc8e1feab5ce84685ef,SCR,2024-06-11_10h11.23.637,LearnStrategy,2023.2.3,MacIntel,60.0024001,,,,,,,,,,,2,08,3,1,,,,,,,,,,,,,,,,,,,,,,,,,,,,,,,
60370cc8e1feab5ce84685ef,SCR,2024-06-11_10h11.23.637,LearnStrategy,2023.2.3,MacIntel,60.0024001,,,,,,,,,,,4,05,3,2,,,,,,,,,,,,,,,,,,,,,,,,,,,,,,,
60370cc8e1feab5ce84685ef,SCR,2024-06-11_10h11.23.637,LearnStrategy,2023.2.3,MacIntel,60.0024001,,,,,,,,,,,2,11,3,3,,,,,,,,,,,,,,,,,,,,,,,,,,,,,,,
60370cc8e1feab5ce84685ef,SCR,2024-06-11_10h11.23.637,LearnStrategy,2023.2.3,MacIntel,60.0024001,,,,,,,,,,,5,09,3,4,,,,,,,,,,,,,,,,,,,,,,,,,,,,,,,
60370cc8e1feab5ce84685ef,SCR,2024-06-11_10h11.23.637,LearnStrategy,2023.2.3,MacIntel,60.0024001,,,,,,,,,,,3,08,3,5,,,,,,,,,,,,,,,,,,,,,,,,,,,,,,,
60370cc8e1feab5ce84685ef,SCR,2024-06-11_10h11.23.637,LearnStrategy,2023.2.3,MacIntel,60.0024001,,,,,,,,,,,6,11,3,6,,,,,,,,,,,,,,,,,,,,,,,,,,,,,,,
60370cc8e1feab5ce84685ef,SCR,2024-06-11_10h11.23.637,LearnStrategy,2023.2.3,MacIntel,60.0024001,,,,,,,,,,,8,13,3,7,,,,,,,,,,,,,,,,,,,,,,,,,,,,,,,
60370cc8e1feab5ce84685ef,SCR,2024-06-11_10h11.23.637,LearnStrategy,2023.2.3,MacIntel,60.0024001,,,,,,,,,,,4,08,3,8,,,,,,,,,,,,,,,,,,,,,,,,,,,,,,,
60370cc8e1feab5ce84685ef,SCR,2024-06-11_10h11.23.637,LearnStrategy,2023.2.3,MacIntel,60.0024001,,,,,,,,,,,7,02,4,1,,,,,,,,,,,,,,,,,,,,,,,,,,,,,,,
60370cc8e1feab5ce84685ef,SCR,2024-06-11_10h11.23.637,LearnStrategy,2023.2.3,MacIntel,60.0024001,,,,,,,,,,,1,14,4,2,,,,,,,,,,,,,,,,,,,,,,,,,,,,,,,
60370cc8e1feab5ce84685ef,SCR,2024-06-11_10h11.23.637,LearnStrategy,2023.2.3,MacIntel,60.0024001,,,,,,,,,,,6,12,4,3,,,,,,,,,,,,,,,,,,,,,,,,,,,,,,,
60370cc8e1feab5ce84685ef,SCR,2024-06-11_10h11.23.637,LearnStrategy,2023.2.3,MacIntel,60.0024001,,,,,,,,,,,4,15,4,4,,,,,,,,,,,,,,,,,,,,,,,,,,,,,,,
60370cc8e1feab5ce84685ef,SCR,2024-06-11_10h11.23.637,LearnStrategy,2023.2.3,MacIntel,60.0024001,,,,,,,,,,,2,14,4,5,,,,,,,,,,,,,,,,,,,,,,,,,,,,,,,
60370cc8e1feab5ce84685ef,SCR,2024-06-11_10h11.23.637,LearnStrategy,2023.2.3,MacIntel,60.0024001,,,,,,,,,,,5,05,4,6,,,,,,,,,,,,,,,,,,,,,,,,,,,,,,,
60370cc8e1feab5ce84685ef,SCR,2024-06-11_10h11.23.637,LearnStrategy,2023.2.3,MacIntel,60.0024001,,,,,,,,,,,7,06,4,7,,,,,,,,,,,,,,,,,,,,,,,,,,,,,,,
60370cc8e1feab5ce84685ef,SCR,2024-06-11_10h11.23.637,LearnStrategy,2023.2.3,MacIntel,60.0024001,,,,,,,,,,,4,12,4,8,,,,,,,,,,,,,,,,,,,,,,,,,,,,,,,
60370cc8e1feab5ce84685ef,SCR,2024-06-11_10h11.23.637,LearnStrategy,2023.2.3,MacIntel,60.0024001,,,,,,,,,,,5,10,5,1,,,,,,,,,,,,,,,,,,,,,,,,,,,,,,,
60370cc8e1feab5ce84685ef,SCR,2024-06-11_10h11.23.637,LearnStrategy,2023.2.3,MacIntel,60.0024001,,,,,,,,,,,2,10,5,2,,,,,,,,,,,,,,,,,,,,,,,,,,,,,,,
60370cc8e1feab5ce84685ef,SCR,2024-06-11_10h11.23.637,LearnStrategy,2023.2.3,MacIntel,60.0024001,,,,,,,,,,,2,09,5,3,,,,,,,,,,,,,,,,,,,,,,,,,,,,,,,
60370cc8e1feab5ce84685ef,SCR,2024-06-11_10h11.23.637,LearnStrategy,2023.2.3,MacIntel,60.0024001,,,,,,,,,,,1,16,5,4,,,,,,,,,,,,,,,,,,,,,,,,,,,,,,,
60370cc8e1feab5ce84685ef,SCR,2024-06-11_10h11.23.637,LearnStrategy,2023.2.3,MacIntel,60.0024001,,,,,,,,,,,6,03,5,5,,,,,,,,,,,,,,,,,,,,,,,,,,,,,,,
60370cc8e1feab5ce84685ef,SCR,2024-06-11_10h11.23.637,LearnStrategy,2023.2.3,MacIntel,60.0024001,,,,,,,,,,,4,16,5,6,,,,,,,,,,,,,,,,,,,,,,,,,,,,,,,
60370cc8e1feab5ce84685ef,SCR,2024-06-11_10h11.23.637,LearnStrategy,2023.2.3,MacIntel,60.0024001,,,,,,,,,,,4,10,5,7,,,,,,,,,,,,,,,,,,,,,,,,,,,,,,,
60370cc8e1feab5ce84685ef,SCR,2024-06-11_10h11.23.637,LearnStrategy,2023.2.3,MacIntel,60.0024001,,,,,,,,,,,1,03,5,8,,,,,,,,,,,,,,,,,,,,,,,,,,,,,,,
60370cc8e1feab5ce84685ef,SCR,2024-06-11_10h11.23.637,LearnStrategy,2023.2.3,MacIntel,60.0024001,,,,,,,,,,,7,07,6,1,,,,,,,,,,,,,,,,,,,,,,,,,,,,,,,
60370cc8e1feab5ce84685ef,SCR,2024-06-11_10h11.23.637,LearnStrategy,2023.2.3,MacIntel,60.0024001,,,,,,,,,,,6,06,6,2,,,,,,,,,,,,,,,,,,,,,,,,,,,,,,,
60370cc8e1feab5ce84685ef,SCR,2024-06-11_10h11.23.637,LearnStrategy,2023.2.3,MacIntel,60.0024001,,,,,,,,,,,5,02,6,3,,,,,,,,,,,,,,,,,,,,,,,,,,,,,,,
60370cc8e1feab5ce84685ef,SCR,2024-06-11_10h11.23.637,LearnStrategy,2023.2.3,MacIntel,60.0024001,,,,,,,,,,,8,09,6,4,,,,,,,,,,,,,,,,,,,,,,,,,,,,,,,
60370cc8e1feab5ce84685ef,SCR,2024-06-11_10h11.23.637,LearnStrategy,2023.2.3,MacIntel,60.0024001,,,,,,,,,,,8,16,6,5,,,,,,,,,,,,,,,,,,,,,,,,,,,,,,,
60370cc8e1feab5ce84685ef,SCR,2024-06-11_10h11.23.637,LearnStrategy,2023.2.3,MacIntel,60.0024001,,,,,,,,,,,2,06,6,6,,,,,,,,,,,,,,,,,,,,,,,,,,,,,,,
60370cc8e1feab5ce84685ef,SCR,2024-06-11_10h11.23.637,LearnStrategy,2023.2.3,MacIntel,60.0024001,,,,,,,,,,,3,12,6,7,,,,,,,,,,,,,,,,,,,,,,,,,,,,,,,
60370cc8e1feab5ce84685ef,SCR,2024-06-11_10h11.23.637,LearnStrategy,2023.2.3,MacIntel,60.0024001,,,,,,,,,,,8,14,6,8,,,,,,,,,,,,,,,,,,,,,,,,,,,,,,,