participant,condition,date,expName,psychopyVersion,OS,frameRate,block,phase,trial,learn_mouse.x,learn_mouse.y,learn_mouse.leftButton,learn_mouse.midButton,learn_mouse.rightButton,learn_mouse.time,learn_mouse.clicked_name,cat,token,row,col,t_select,cat_rec,token_rec,cat_mouse_l.x,cat_mouse_l.y,cat_mouse_l.leftButton,cat_mouse_l.midButton,cat_mouse_l.rightButton,cat_mouse_l.time,cat_mouse_l.clicked_name,resp,t_resp,corr,train_trials.thisRepN,train_trials.thisTrialN,train_trials.thisN,train_trials.thisIndex,train_trials.ran,cat_mouse_t.x,cat_mouse_t.y,cat_mouse_t.leftButton,cat_mouse_t.midButton,cat_mouse_t.rightButton,cat_mouse_t.time,cat_mouse_t.clicked_name,test_trials.thisRepN,test_trials.thisTrialN,test_trials.thisN,test_trials.thisIndex,test_trials.ran,Bonus
606604f1ca47696cf97529c0,SCR,2024-06-20_16h33.01.213,LearnStrategy,2023.2.3,Win32,60.0240096,,,,,,,,,,,,,,,,,,,,,,,,,,,,,,,,,,,,,,,,,,,,,
606604f1ca47696cf97529c0,SCR,2024-06-20_16h33.01.213,LearnStrategy,2023.2.3,Win32,60.0240096,1,1,1,-0.217013889,-0.235243056,1,0,0,3.091,Pegmatite_06,6,06,2,3,3.091,6,06,-0.373263889,-0.235243056,1,0,0,29.713,Andesite_rect,1,29.713,0,0,0,0,0,1,,,,,,,,,,,,,
606604f1ca47696cf97529c0,SCR,2024-06-20_16h33.01.213,LearnStrategy,2023.2.3,Win32,60.0240096,1,1,2,0.230902778,0.262152778,1,0,0,1.276,Pegmatite_11,6,11,5,6,1.276,6,11,-0.359375,-0.248263889,1,0,0,2.238,Andesite_rect,1,2.238,0,1,0,1,0,1,,,,,,,,,,,,,
606604f1ca47696cf97529c0,SCR,2024-06-20_16h33.01.213,LearnStrategy,2023.2.3,Win32,60.0240096,1,1,3,-0.404513889,0.400173611,1,0,0,1.18,Gabbro_05,4,05,6,2,1.18,4,05,-0.1171875,-0.264756944,1,0,0,3.91,Basalt_rect,2,3.91,0,2,0,2,0,1,,,,,,,,,,,,,
606604f1ca47696cf97529c0,SCR,2024-06-20_16h33.01.213,LearnStrategy,2023.2.3,Win32,60.0240096,1,1,4,0.069444444,-0.118055556,1,0,0,0.913,Basalt_04,2,04,3,5,0.913,2,04,0.347222222,-0.269097222,1,0,0,0.982,Gabbro_rect,4,0.982,0,3,0,3,0,1,,,,,,,,,,,,,
606604f1ca47696cf97529c0,SCR,2024-06-20_16h33.01.213,LearnStrategy,2023.2.3,Win32,60.0240096,1,1,5,-0.574652778,-0.383680556,1,0,0,0.98,Andesite_04,1,04,1,1,0.98,1,04,0.107638889,-0.267361111,1,0,0,1.585,Diorite_rect,3,1.585,0,4,0,4,0,1,,,,,,,,,,,,,
606604f1ca47696cf97529c0,SCR,2024-06-20_16h33.01.213,LearnStrategy,2023.2.3,Win32,60.0240096,1,1,6,0.40625,-0.387152778,1,0,0,0.915,Gabbro_10,4,10,1,7,0.915,4,10,-0.144097222,-0.263020833,1,0,0,2.168,Basalt_rect,2,2.168,0,5,0,5,0,1,,,,,,,,,,,,,
606604f1ca47696cf97529c0,SCR,2024-06-20_16h33.01.213,LearnStrategy,2023.2.3,Win32,60.0240096,1,1,7,-0.060763889,-0.133680556,1,0,0,0.813,Basalt_09,2,09,3,4,0.813,2,09,-0.107638889,-0.248263889,1,0,0,2.73,Basalt_rect,2,2.73,1,6,0,6,0,1,,,,,,,,,,,,,
606604f1ca47696cf97529c0,SCR,2024-06-20_16h33.01.213,LearnStrategy,2023.2.3,Win32,60.0240096,1,1,8,0.595486111,0.081597222,1,0,0,1.247,Peridotite_04,7,04,4,8,1.247,7,04,-0.362847222,-0.262152778,1,0,0,1.735,Andesite_rect,1,1.735,0,7,0,7,0,1,,,,,,,,,,,,,
606604f1ca47696cf97529c0,SCR,2024-06-20_16h33.01.213,LearnStrategy,2023.2.3,Win32,60.0240096,1,1,9,0.269965278,0.387152778,1,0,0,1.049,Pumice_09,8,09,6,6,1.049,8,09,0.404513889,-0.264756944,1,0,0,1.244,Gabbro_rect,4,1.244,0,8,0,8,0,1,,,,,,,,,,,,,
606604f1ca47696cf97529c0,SCR,2024-06-20_16h33.01.213,LearnStrategy,2023.2.3,Win32,60.0240096,1,1,10,-0.580729167,0.123263889,1,0,0,0.962,Obsidian_02,5,02,4,1,0.962,5,02,-0.107638889,-0.248263889,1,0,0,2.373,Basalt_rect,2,2.373,0,9,0,9,0,1,,,,,,,,,,,,,
606604f1ca47696cf97529c0,SCR,2024-06-20_16h33.01.213,LearnStrategy,2023.2.3,Win32,60.0240096,1,1,11,0.413194444,0.443576389,1,0,0,0.997,Andesite_06,1,06,6,7,0.997,1,06,0.103298611,-0.265625,1,0,0,2.505,Diorite_rect,3,2.505,0,10,0,10,0,1,,,,,,,,,,,,,
606604f1ca47696cf97529c0,SCR,2024-06-20_16h33.01.213,LearnStrategy,2023.2.3,Win32,60.0240096,1,1,12,0.530381944,0.28125,1,0,0,0.864,Peridotite_07,7,07,5,8,0.864,7,07,-0.390625,-0.228298611,1,0,0,1.485,Andesite_rect,1,1.485,0,11,0,11,0,1,,,,,,,,,,,,,
606604f1ca47696cf97529c0,SCR,2024-06-20_16h33.01.213,LearnStrategy,2023.2.3,Win32,60.0240096,1,1,13,-0.415798611,0.227430556,1,0,0,0.847,Diorite_16,3,16,5,2,0.847,3,16,0.1484375,-0.392361111,1,0,0,1.455,Peridotite_rect,7,1.455,0,12,0,12,0,1,,,,,,,,,,,,,
606604f1ca47696cf97529c0,SCR,2024-06-20_16h33.01.213,LearnStrategy,2023.2.3,Win32,60.0240096,1,1,14,-0.355034722,-0.415798611,1,0,0,0.927,Pumice_13,8,13,1,2,0.927,8,13,0.085069444,-0.411458333,1,0,0,5.808,Peridotite_rect,7,5.808,0,13,0,13,0,1,,,,,,,,,,,,,
606604f1ca47696cf97529c0,SCR,2024-06-20_16h33.01.213,LearnStrategy,2023.2.3,Win32,60.0240096,1,1,15,-0.516493056,0.245659722,1,0,0,0.88,Obsidian_11,5,11,5,1,0.88,5,11,-0.339409722,-0.401909722,1,0,0,1.881,Obsidian_rect,5,1.881,1,14,0,14,0,1,,,,,,,,,,,,,
606604f1ca47696cf97529c0,SCR,2024-06-20_16h33.01.213,LearnStrategy,2023.2.3,Win32,60.0240096,1,1,16,-0.1171875,0.262152778,1,0,0,0.79,Diorite_07,3,07,5,4,0.79,3,07,0.115451389,-0.420138889,1,0,0,1.211,Peridotite_rect,7,1.211,0,15,0,15,0,1,,,,,,,,,,,,,
606604f1ca47696cf97529c0,SCR,2024-06-20_16h33.01.213,LearnStrategy,2023.2.3,Win32,60.0240096,1,2,1,,,,,,,,7,12,,,,,,,,,,,,,7,3.394,1,,,,,,0.122395833,-0.403645833,1,0,0,3.394,Peridotite_rect,0,0,0,0,1,
606604f1ca47696cf97529c0,SCR,2024-06-20_16h33.01.213,LearnStrategy,2023.2.3,Win32,60.0240096,1,2,2,,,,,,,,1,09,,,,,,,,,,,,,4,5.862,0,,,,,,0.362847222,-0.264756944,1,0,0,5.862,Gabbro_rect,1,0,1,0,1,
606604f1ca47696cf97529c0,SCR,2024-06-20_16h33.01.213,LearnStrategy,2023.2.3,Win32,60.0240096,1,2,3,,,,,,,,3,09,,,,,,,,,,,,,7,4.366,0,,,,,,0.1328125,-0.393229167,1,0,0,4.366,Peridotite_rect,2,0,2,0,1,
606604f1ca47696cf97529c0,SCR,2024-06-20_16h33.01.213,LearnStrategy,2023.2.3,Win32,60.0240096,1,2,4,,,,,,,,2,11,,,,,,,,,,,,,4,2.833,0,,,,,,0.4296875,-0.248263889,1,0,0,2.833,Gabbro_rect,3,0,3,0,1,
606604f1ca47696cf97529c0,SCR,2024-06-20_16h33.01.213,LearnStrategy,2023.2.3,Win32,60.0240096,1,2,5,,,,,,,,8,02,,,,,,,,,,,,,7,2.205,0,,,,,,0.120659722,-0.403645833,1,0,0,2.205,Peridotite_rect,4,0,4,0,1,
606604f1ca47696cf97529c0,SCR,2024-06-20_16h33.01.213,LearnStrategy,2023.2.3,Win32,60.0240096,1,2,6,,,,,,,,5,05,,,,,,,,,,,,,5,1.447,1,,,,,,-0.418402778,-0.383680556,1,0,0,1.447,Obsidian_rect,5,0,5,0,1,
606604f1ca47696cf97529c0,SCR,2024-06-20_16h33.01.213,LearnStrategy,2023.2.3,Win32,60.0240096,1,2,7,,,,,,,,7,10,,,,,,,,,,,,,7,1.909,1,,,,,,0.100694444,-0.403645833,1,0,0,1.909,Peridotite_rect,6,0,6,0,1,
606604f1ca47696cf97529c0,SCR,2024-06-20_16h33.01.213,LearnStrategy,2023.2.3,Win32,60.0240096,1,2,8,,,,,,,,4,13,,,,,,,,,,,,,1,2.799,0,,,,,,-0.364583333,-0.254340278,1,0,0,2.799,Andesite_rect,7,0,7,0,1,
606604f1ca47696cf97529c0,SCR,2024-06-20_16h33.01.213,LearnStrategy,2023.2.3,Win32,60.0240096,1,2,9,,,,,,,,4,08,,,,,,,,,,,,,4,4.517,1,,,,,,0.3515625,-0.271701389,1,0,0,4.517,Gabbro_rect,8,0,8,0,1,
606604f1ca47696cf97529c0,SCR,2024-06-20_16h33.01.213,LearnStrategy,2023.2.3,Win32,60.0240096,1,2,10,,,,,,,,6,08,,,,,,,,,,,,,3,5.238,0,,,,,,0.071180556,-0.253472222,1,0,0,5.238,Diorite_rect,9,0,9,0,1,
606604f1ca47696cf97529c0,SCR,2024-06-20_16h33.01.213,LearnStrategy,2023.2.3,Win32,60.0240096,1,2,11,,,,,,,,8,05,,,,,,,,,,,,,8,1.603,1,,,,,,0.376736111,-0.404513889,1,0,0,1.603,Pumice_rect,10,0,10,0,1,
606604f1ca47696cf97529c0,SCR,2024-06-20_16h33.01.213,LearnStrategy,2023.2.3,Win32,60.0240096,1,2,12,,,,,,,,2,05,,,,,,,,,,,,,2,3.075,1,,,,,,-0.120659722,-0.254340278,1,0,0,3.075,Basalt_rect,11,0,11,0,1,
606604f1ca47696cf97529c0,SCR,2024-06-20_16h33.01.213,LearnStrategy,2023.2.3,Win32,60.0240096,1,2,13,,,,,,,,3,15,,,,,,,,,,,,,6,3.988,0,,,,,,-0.078125,-0.411458333,1,0,0,3.988,Pegmatite_rect,12,0,12,0,1,
606604f1ca47696cf97529c0,SCR,2024-06-20_16h33.01.213,LearnStrategy,2023.2.3,Win32,60.0240096,1,2,14,,,,,,,,6,07,,,,,,,,,,,,,7,1.975,0,,,,,,0.143229167,-0.395833333,1,0,0,1.975,Peridotite_rect,13,0,13,0,1,
606604f1ca47696cf97529c0,SCR,2024-06-20_16h33.01.213,LearnStrategy,2023.2.3,Win32,60.0240096,1,2,15,,,,,,,,5,12,,,,,,,,,,,,,5,1.501,1,,,,,,-0.355902778,-0.380208333,1,0,0,1.501,Obsidian_rect,14,0,14,0,1,
606604f1ca47696cf97529c0,SCR,2024-06-20_16h33.01.213,LearnStrategy,2023.2.3,Win32,60.0240096,1,2,16,,,,,,,,1,07,,,,,,,,,,,,,7,7.838,0,,,,,,0.113715278,-0.392361111,1,0,0,7.838,Peridotite_rect,15,0,15,0,1,
606604f1ca47696cf97529c0,SCR,2024-06-20_16h33.01.213,LearnStrategy,2023.2.3,Win32,60.0240096,2,1,1,0.422743056,0.407986111,1,0,0,1.466,Andesite_06,1,06,6,7,1.466,1,06,0.151041667,-0.403645833,1,0,0,3.487,Peridotite_rect,7,3.487,0,0,0,0,0,1,,,,,,,,,,,,,
606604f1ca47696cf97529c0,SCR,2024-06-20_16h33.01.213,LearnStrategy,2023.2.3,Win32,60.0240096,2,1,2,-0.379340278,0.229166667,1,0,0,1.483,Diorite_16,3,16,5,2,1.483,3,16,0.110243056,-0.269097222,1,0,0,2.843,Diorite_rect,3,2.843,1,1,0,1,0,1,,,,,,,,,,,,,
606604f1ca47696cf97529c0,SCR,2024-06-20_16h33.01.213,LearnStrategy,2023.2.3,Win32,60.0240096,2,1,3,0.546875,-0.439236111,1,0,0,1.177,Gabbro_03,4,03,1,8,1.177,4,03,0.104166667,-0.243923611,1,0,0,4.491,Diorite_rect,3,4.491,0,2,0,2,0,1,,,,,,,,,,,,,
606604f1ca47696cf97529c0,SCR,2024-06-20_16h33.01.213,LearnStrategy,2023.2.3,Win32,60.0240096,2,1,4,-0.571180556,-0.1328125,1,0,0,1.064,Pegmatite_05,6,05,3,1,1.064,6,05,-0.355034722,-0.270833333,1,0,0,2.684,Andesite_rect,1,2.684,0,3,0,3,0,1,,,,,,,,,,,,,
606604f1ca47696cf97529c0,SCR,2024-06-20_16h33.01.213,LearnStrategy,2023.2.3,Win32,60.0240096,2,1,5,0.399305556,-0.395833333,1,0,0,1.016,Gabbro_10,4,10,1,7,1.016,4,10,-0.358506944,-0.270833333,1,0,0,4.658,Andesite_rect,1,4.658,0,4,0,4,0,1,,,,,,,,,,,,,
606604f1ca47696cf97529c0,SCR,2024-06-20_16h33.01.213,LearnStrategy,2023.2.3,Win32,60.0240096,2,1,6,-0.215277778,-0.303819444,1,0,0,0.898,Pegmatite_06,6,06,2,3,0.898,6,06,-0.081597222,-0.379340278,1,0,0,2.688,Pegmatite_rect,6,2.688,1,5,0,5,0,1,,,,,,,,,,,,,
606604f1ca47696cf97529c0,SCR,2024-06-20_16h33.01.213,LearnStrategy,2023.2.3,Win32,60.0240096,2,1,7,-0.543402778,-0.088541667,1,0,0,1.133,Pegmatite_05,6,05,3,1,1.133,6,05,-0.120659722,-0.401041667,1,0,0,1.327,Pegmatite_rect,6,1.327,1,6,0,6,0,1,,,,,,,,,,,,,
606604f1ca47696cf97529c0,SCR,2024-06-20_16h33.01.213,LearnStrategy,2023.2.3,Win32,60.0240096,2,1,8,-0.283854167,-0.421875,1,0,0,1.048,Basalt_01,2,01,1,3,1.048,2,01,-0.133680556,-0.266493056,1,0,0,1.154,Basalt_rect,2,1.154,1,7,0,7,0,1,,,,,,,,,,,,,
606604f1ca47696cf97529c0,SCR,2024-06-20_16h33.01.213,LearnStrategy,2023.2.3,Win32,60.0240096,2,1,9,0.405381944,0.074652778,1,0,0,0.812,Pumice_16,8,16,4,7,0.812,8,16,0.344618056,-0.410590278,1,0,0,1.394,Pumice_rect,8,1.394,1,8,0,8,0,1,,,,,,,,,,,,,
606604f1ca47696cf97529c0,SCR,2024-06-20_16h33.01.213,LearnStrategy,2023.2.3,Win32,60.0240096,2,1,10,-0.084201389,0.222222222,1,0,0,0.783,Diorite_07,3,07,5,4,0.783,3,07,-0.078993056,-0.396701389,1,0,0,4.81,Pegmatite_rect,6,4.81,0,9,0,9,0,1,,,,,,,,,,,,,
606604f1ca47696cf97529c0,SCR,2024-06-20_16h33.01.213,LearnStrategy,2023.2.3,Win32,60.0240096,2,1,11,-0.416666667,-0.253472222,1,0,0,0.863,Diorite_06,3,06,2,2,0.863,3,06,0.119791667,-0.256076389,1,0,0,5.578,Diorite_rect,3,5.578,1,10,0,10,0,1,,,,,,,,,,,,,
606604f1ca47696cf97529c0,SCR,2024-06-20_16h33.01.213,LearnStrategy,2023.2.3,Win32,60.0240096,2,1,12,0.206597222,-0.081597222,1,0,0,0.821,Peridotite_05,7,05,3,6,0.821,7,05,-0.106770833,-0.3984375,1,0,0,5.804,Pegmatite_rect,6,5.804,0,11,0,11,0,1,,,,,,,,,,,,,
606604f1ca47696cf97529c0,SCR,2024-06-20_16h33.01.213,LearnStrategy,2023.2.3,Win32,60.0240096,2,1,13,-0.053819444,-0.365451389,1,0,0,0.763,Basalt_12,2,12,1,4,0.763,2,12,-0.078993056,-0.253472222,1,0,0,1.66,Basalt_rect,2,1.66,1,12,0,12,0,1,,,,,,,,,,,,,
606604f1ca47696cf97529c0,SCR,2024-06-20_16h33.01.213,LearnStrategy,2023.2.3,Win32,60.0240096,2,1,14,0.111979167,-0.427083333,1,0,0,0.862,Pumice_04,8,04,1,5,0.862,8,04,0.385416667,-0.395833333,1,0,0,1.695,Pumice_rect,8,1.695,1,13,0,13,0,1,,,,,,,,,,,,,
606604f1ca47696cf97529c0,SCR,2024-06-20_16h33.01.213,LearnStrategy,2023.2.3,Win32,60.0240096,2,1,15,0.249131944,0.080729167,1,0,0,0.681,Andesite_14,1,14,4,6,0.681,1,14,0.111111111,-0.258680556,1,0,0,3.881,Diorite_rect,3,3.881,0,14,0,14,0,1,,,,,,,,,,,,,
606604f1ca47696cf97529c0,SCR,2024-06-20_16h33.01.213,LearnStrategy,2023.2.3,Win32,60.0240096,2,1,16,0.385416667,0.402777778,1,0,0,0.982,Andesite_06,1,06,6,7,0.982,1,06,-0.375,-0.248263889,1,0,0,1.017,Andesite_rect,1,1.017,1,15,0,15,0,1,,,,,,,,,,,,,
606604f1ca47696cf97529c0,SCR,2024-06-20_16h33.01.213,LearnStrategy,2023.2.3,Win32,60.0240096,2,2,1,,,,,,,,4,16,,,,,,,,,,,,,8,2.952,0,,,,,,0.368923611,-0.401909722,1,0,0,2.952,Pumice_rect,0,0,0,0,1,
606604f1ca47696cf97529c0,SCR,2024-06-20_16h33.01.213,LearnStrategy,2023.2.3,Win32,60.0240096,2,2,2,,,,,,,,1,16,,,,,,,,,,,,,1,1.485,1,,,,,,-0.374131944,-0.259548611,1,0,0,1.485,Andesite_rect,1,0,1,0,1,
606604f1ca47696cf97529c0,SCR,2024-06-20_16h33.01.213,LearnStrategy,2023.2.3,Win32,60.0240096,2,2,3,,,,,,,,8,10,,,,,,,,,,,,,6,4.782,0,,,,,,-0.083333333,-0.4140625,1,0,0,4.782,Pegmatite_rect,2,0,2,0,1,
606604f1ca47696cf97529c0,SCR,2024-06-20_16h33.01.213,LearnStrategy,2023.2.3,Win32,60.0240096,2,2,4,,,,,,,,2,02,,,,,,,,,,,,,2,1.433,1,,,,,,-0.094618056,-0.266493056,1,0,0,1.433,Basalt_rect,3,0,3,0,1,
606604f1ca47696cf97529c0,SCR,2024-06-20_16h33.01.213,LearnStrategy,2023.2.3,Win32,60.0240096,2,2,5,,,,,,,,6,12,,,,,,,,,,,,,4,3.234,0,,,,,,0.407118056,-0.271701389,1,0,0,3.234,Gabbro_rect,4,0,4,0,1,
606604f1ca47696cf97529c0,SCR,2024-06-20_16h33.01.213,LearnStrategy,2023.2.3,Win32,60.0240096,2,2,6,,,,,,,,5,09,,,,,,,,,,,,,5,1.181,1,,,,,,-0.388020833,-0.394965278,1,0,0,1.181,Obsidian_rect,5,0,5,0,1,
606604f1ca47696cf97529c0,SCR,2024-06-20_16h33.01.213,LearnStrategy,2023.2.3,Win32,60.0240096,2,2,7,,,,,,,,1,01,,,,,,,,,,,,,3,2.899,0,,,,,,0.071180556,-0.260416667,1,0,0,2.899,Diorite_rect,6,0,6,0,1,
606604f1ca47696cf97529c0,SCR,2024-06-20_16h33.01.213,LearnStrategy,2023.2.3,Win32,60.0240096,2,2,8,,,,,,,,2,14,,,,,,,,,,,,,8,1.211,0,,,,,,0.399305556,-0.416666667,1,0,0,1.211,Pumice_rect,7,0,7,0,1,
606604f1ca47696cf97529c0,SCR,2024-06-20_16h33.01.213,LearnStrategy,2023.2.3,Win32,60.0240096,2,2,9,,,,,,,,3,08,,,,,,,,,,,,,1,2.704,0,,,,,,-0.355034722,-0.262152778,1,0,0,2.704,Andesite_rect,8,0,8,0,1,
606604f1ca47696cf97529c0,SCR,2024-06-20_16h33.01.213,LearnStrategy,2023.2.3,Win32,60.0240096,2,2,10,,,,,,,,4,12,,,,,,,,,,,,,4,1.562,1,,,,,,0.458333333,-0.263020833,1,0,0,1.562,Gabbro_rect,9,0,9,0,1,
606604f1ca47696cf97529c0,SCR,2024-06-20_16h33.01.213,LearnStrategy,2023.2.3,Win32,60.0240096,2,2,11,,,,,,,,7,14,,,,,,,,,,,,,7,2.699,1,,,,,,0.116319444,-0.395833333,1,0,0,2.699,Peridotite_rect,10,0,10,0,1,
606604f1ca47696cf97529c0,SCR,2024-06-20_16h33.01.213,LearnStrategy,2023.2.3,Win32,60.0240096,2,2,12,,,,,,,,8,14,,,,,,,,,,,,,8,1.193,1,,,,,,0.426215278,-0.411458333,1,0,0,1.193,Pumice_rect,11,0,11,0,1,
606604f1ca47696cf97529c0,SCR,2024-06-20_16h33.01.213,LearnStrategy,2023.2.3,Win32,60.0240096,2,2,13,,,,,,,,6,16,,,,,,,,,,,,,1,4.315,0,,,,,,-0.324652778,-0.252604167,1,0,0,4.315,Andesite_rect,12,0,12,0,1,
606604f1ca47696cf97529c0,SCR,2024-06-20_16h33.01.213,LearnStrategy,2023.2.3,Win32,60.0240096,2,2,14,,,,,,,,7,06,,,,,,,,,,,,,6,1.557,0,,,,,,-0.107638889,-0.401041667,1,0,0,1.557,Pegmatite_rect,13,0,13,0,1,
606604f1ca47696cf97529c0,SCR,2024-06-20_16h33.01.213,LearnStrategy,2023.2.3,Win32,60.0240096,2,2,15,,,,,,,,5,16,,,,,,,,,,,,,5,1.37,1,,,,,,-0.322048611,-0.394097222,1,0,0,1.37,Obsidian_rect,14,0,14,0,1,
606604f1ca47696cf97529c0,SCR,2024-06-20_16h33.01.213,LearnStrategy,2023.2.3,Win32,60.0240096,2,2,16,,,,,,,,3,11,,,,,,,,,,,,,6,2.112,0,,,,,,-0.048611111,-0.394965278,1,0,0,2.112,Pegmatite_rect,15,0,15,0,1,
606604f1ca47696cf97529c0,SCR,2024-06-20_16h33.01.213,LearnStrategy,2023.2.3,Win32,60.0240096,3,1,1,-0.541666667,-0.144965278,1,0,0,0.999,Pegmatite_05,6,05,3,1,0.999,6,05,-0.361979167,-0.240451389,1,0,0,2.286,Andesite_rect,1,2.286,0,0,0,0,0,1,,,,,,,,,,,,,
606604f1ca47696cf97529c0,SCR,2024-06-20_16h33.01.213,LearnStrategy,2023.2.3,Win32,60.0240096,3,1,2,0.446180556,0.215277778,1,0,0,0.914,Andesite_05,1,05,5,7,0.914,1,05,-0.338541667,-0.252604167,1,0,0,1.364,Andesite_rect,1,1.364,1,1,0,1,0,1,,,,,,,,,,,,,
606604f1ca47696cf97529c0,SCR,2024-06-20_16h33.01.213,LearnStrategy,2023.2.3,Win32,60.0240096,3,1,3,0.282986111,-0.299479167,1,0,0,0.948,Pumice_03,8,03,2,6,0.948,8,03,0.372395833,-0.388888889,1,0,0,1.019,Pumice_rect,8,1.019,1,2,0,2,0,1,,,,,,,,,,,,,
606604f1ca47696cf97529c0,SCR,2024-06-20_16h33.01.213,LearnStrategy,2023.2.3,Win32,60.0240096,3,1,4,0.590277778,-0.109375,1,0,0,0.747,Basalt_16,2,16,3,8,0.747,2,16,0.408854167,-0.405381944,1,0,0,0.695,Pumice_rect,8,0.695,0,3,0,3,0,1,,,,,,,,,,,,,
606604f1ca47696cf97529c0,SCR,2024-06-20_16h33.01.213,LearnStrategy,2023.2.3,Win32,60.0240096,3,1,5,0.247395833,-0.126736111,1,0,0,0.667,Peridotite_05,7,05,3,6,0.667,7,05,0.346354167,-0.241319444,1,0,0,2.832,Gabbro_rect,4,2.832,0,4,0,4,0,1,,,,,,,,,,,,,
606604f1ca47696cf97529c0,SCR,2024-06-20_16h33.01.213,LearnStrategy,2023.2.3,Win32,60.0240096,3,1,6,0.40625,-0.396701389,1,0,0,0.798,Gabbro_10,4,10,1,7,0.798,4,10,0.107638889,-0.397569444,1,0,0,1.994,Peridotite_rect,7,1.994,0,5,0,5,0,1,,,,,,,,,,,,,
606604f1ca47696cf97529c0,SCR,2024-06-20_16h33.01.213,LearnStrategy,2023.2.3,Win32,60.0240096,3,1,7,-0.220486111,-0.269097222,1,0,0,0.829,Pegmatite_06,6,06,2,3,0.829,6,06,-0.128472222,-0.387152778,1,0,0,2.804,Pegmatite_rect,6,2.804,1,6,0,6,0,1,,,,,,,,,,,,,
606604f1ca47696cf97529c0,SCR,2024-06-20_16h33.01.213,LearnStrategy,2023.2.3,Win32,60.0240096,3,1,8,-0.346354167,0.225694444,1,0,0,0.948,Diorite_16,3,16,5,2,0.948,3,16,0.1484375,-0.40625,1,0,0,3.191,Peridotite_rect,7,3.191,0,7,0,7,0,1,,,,,,,,,,,,,
606604f1ca47696cf97529c0,SCR,2024-06-20_16h33.01.213,LearnStrategy,2023.2.3,Win32,60.0240096,3,1,9,-0.573784722,-0.262152778,1,0,0,0.981,Pegmatite_13,6,13,2,1,0.981,6,13,0.094618056,-0.260416667,1,0,0,4.377,Diorite_rect,3,4.377,0,8,0,8,0,1,,,,,,,,,,,,,
606604f1ca47696cf97529c0,SCR,2024-06-20_16h33.01.213,LearnStrategy,2023.2.3,Win32,60.0240096,3,1,10,-0.053819444,-0.110243056,1,0,0,0.749,Basalt_09,2,09,3,4,0.749,2,09,-0.094618056,-0.263888889,1,0,0,1.015,Basalt_rect,2,1.015,1,9,0,9,0,1,,,,,,,,,,,,,
606604f1ca47696cf97529c0,SCR,2024-06-20_16h33.01.213,LearnStrategy,2023.2.3,Win32,60.0240096,3,1,11,-0.388020833,0.095486111,1,0,0,0.88,Gabbro_15,4,15,4,2,0.88,4,15,0.123263889,-0.261284722,1,0,0,1.402,Diorite_rect,3,1.402,0,10,0,10,0,1,,,,,,,,,,,,,
606604f1ca47696cf97529c0,SCR,2024-06-20_16h33.01.213,LearnStrategy,2023.2.3,Win32,60.0240096,3,1,12,-0.546875,-0.394965278,1,0,0,0.901,Andesite_04,1,04,1,1,0.901,1,04,0.144965278,-0.2578125,1,0,0,4.383,Diorite_rect,3,4.383,0,11,0,11,0,1,,,,,,,,,,,,,
606604f1ca47696cf97529c0,SCR,2024-06-20_16h33.01.213,LearnStrategy,2023.2.3,Win32,60.0240096,3,1,13,-0.272569444,0.252604167,1,0,0,39.811,Pumice_15,8,15,5,3,39.811,8,15,0.361979167,-0.380208333,1,0,0,0.977,Pumice_rect,8,0.977,1,12,0,12,0,1,,,,,,,,,,,,,
606604f1ca47696cf97529c0,SCR,2024-06-20_16h33.01.213,LearnStrategy,2023.2.3,Win32,60.0240096,3,1,14,-0.366319444,-0.250868056,1,0,0,0.796,Diorite_06,3,06,2,2,0.796,3,06,0.113715278,-0.263888889,1,0,0,2.993,Diorite_rect,3,2.993,1,13,0,13,0,1,,,,,,,,,,,,,
606604f1ca47696cf97529c0,SCR,2024-06-20_16h33.01.213,LearnStrategy,2023.2.3,Win32,60.0240096,3,1,15,-0.526041667,-0.387152778,1,0,0,0.882,Andesite_04,1,04,1,1,0.882,1,04,-0.154513889,-0.402777778,1,0,0,2.928,Pegmatite_rect,6,2.928,0,14,0,14,0,1,,,,,,,,,,,,,
606604f1ca47696cf97529c0,SCR,2024-06-20_16h33.01.213,LearnStrategy,2023.2.3,Win32,60.0240096,3,1,16,0.235243056,-0.399305556,1,0,0,0.797,Diorite_02,3,02,1,6,0.797,3,02,0.177083333,-0.262152778,1,0,0,1.185,Diorite_rect,3,1.185,1,15,0,15,0,1,,,,,,,,,,,,,
606604f1ca47696cf97529c0,SCR,2024-06-20_16h33.01.213,LearnStrategy,2023.2.3,Win32,60.0240096,3,2,1,,,,,,,,8,08,,,,,,,,,,,,,8,1.13,1,,,,,,0.414930556,-0.407986111,1,0,0,1.13,Pumice_rect,0,0,0,0,1,
606604f1ca47696cf97529c0,SCR,2024-06-20_16h33.01.213,LearnStrategy,2023.2.3,Win32,60.0240096,3,2,2,,,,,,,,3,14,,,,,,,,,,,,,3,1.243,1,,,,,,0.136284722,-0.2578125,1,0,0,1.243,Diorite_rect,1,0,1,0,1,
606604f1ca47696cf97529c0,SCR,2024-06-20_16h33.01.213,LearnStrategy,2023.2.3,Win32,60.0240096,3,2,3,,,,,,,,4,01,,,,,,,,,,,,,1,1.342,0,,,,,,-0.422743056,-0.241319444,1,0,0,1.342,Andesite_rect,2,0,2,0,1,
606604f1ca47696cf97529c0,SCR,2024-06-20_16h33.01.213,LearnStrategy,2023.2.3,Win32,60.0240096,3,2,4,,,,,,,,1,02,,,,,,,,,,,,,7,2.413,0,,,,,,0.091145833,-0.408854167,1,0,0,2.413,Peridotite_rect,3,0,3,0,1,
606604f1ca47696cf97529c0,SCR,2024-06-20_16h33.01.213,LearnStrategy,2023.2.3,Win32,60.0240096,3,2,5,,,,,,,,6,10,,,,,,,,,,,,,6,2.109,1,,,,,,-0.072048611,-0.401909722,1,0,0,2.109,Pegmatite_rect,4,0,4,0,1,
606604f1ca47696cf97529c0,SCR,2024-06-20_16h33.01.213,LearnStrategy,2023.2.3,Win32,60.0240096,3,2,6,,,,,,,,2,08,,,,,,,,,,,,,2,2.659,1,,,,,,-0.142361111,-0.258680556,1,0,0,2.659,Basalt_rect,5,0,5,0,1,
606604f1ca47696cf97529c0,SCR,2024-06-20_16h33.01.213,LearnStrategy,2023.2.3,Win32,60.0240096,3,2,7,,,,,,,,8,06,,,,,,,,,,,,,8,1.327,1,,,,,,0.408854167,-0.421875,1,0,0,1.327,Pumice_rect,6,0,6,0,1,
606604f1ca47696cf97529c0,SCR,2024-06-20_16h33.01.213,LearnStrategy,2023.2.3,Win32,60.0240096,3,2,8,,,,,,,,5,08,,,,,,,,,,,,,5,1.043,1,,,,,,-0.415798611,-0.414930556,1,0,0,1.043,Obsidian_rect,7,0,7,0,1,
606604f1ca47696cf97529c0,SCR,2024-06-20_16h33.01.213,LearnStrategy,2023.2.3,Win32,60.0240096,3,2,9,,,,,,,,4,14,,,,,,,,,,,,,6,3.848,0,,,,,,-0.167534722,-0.416666667,1,0,0,3.848,Pegmatite_rect,8,0,8,0,1,
606604f1ca47696cf97529c0,SCR,2024-06-20_16h33.01.213,LearnStrategy,2023.2.3,Win32,60.0240096,3,2,10,,,,,,,,5,10,,,,,,,,,,,,,5,1.441,1,,,,,,-0.348090278,-0.378472222,1,0,0,1.441,Obsidian_rect,9,0,9,0,1,
606604f1ca47696cf97529c0,SCR,2024-06-20_16h33.01.213,LearnStrategy,2023.2.3,Win32,60.0240096,3,2,11,,,,,,,,6,03,,,,,,,,,,,,,3,1.98,0,,,,,,0.055555556,-0.25,1,0,0,1.98,Diorite_rect,10,0,10,0,1,
606604f1ca47696cf97529c0,SCR,2024-06-20_16h33.01.213,LearnStrategy,2023.2.3,Win32,60.0240096,3,2,12,,,,,,,,2,06,,,,,,,,,,,,,2,1.257,1,,,,,,-0.161458333,-0.231770833,1,0,0,1.257,Basalt_rect,11,0,11,0,1,
606604f1ca47696cf97529c0,SCR,2024-06-20_16h33.01.213,LearnStrategy,2023.2.3,Win32,60.0240096,3,2,13,,,,,,,,3,10,,,,,,,,,,,,,6,5.81,0,,,,,,-0.105902778,-0.387152778,1,0,0,5.81,Pegmatite_rect,12,0,12,0,1,
606604f1ca47696cf97529c0,SCR,2024-06-20_16h33.01.213,LearnStrategy,2023.2.3,Win32,60.0240096,3,2,14,,,,,,,,7,16,,,,,,,,,,,,,7,4.573,1,,,,,,0.098958333,-0.386284722,1,0,0,4.573,Peridotite_rect,13,0,13,0,1,
606604f1ca47696cf97529c0,SCR,2024-06-20_16h33.01.213,LearnStrategy,2023.2.3,Win32,60.0240096,3,2,15,,,,,,,,7,15,,,,,,,,,,,,,3,2.11,0,,,,,,0.0859375,-0.25,1,0,0,2.11,Diorite_rect,14,0,14,0,1,
606604f1ca47696cf97529c0,SCR,2024-06-20_16h33.01.213,LearnStrategy,2023.2.3,Win32,60.0240096,3,2,16,,,,,,,,1,11,,,,,,,,,,,,,2,5.037,0,,,,,,-0.092013889,-0.247395833,1,0,0,5.037,Basalt_rect,15,0,15,0,1,
606604f1ca47696cf97529c0,SCR,2024-06-20_16h33.01.213,LearnStrategy,2023.2.3,Win32,60.0240096,4,1,1,0.081597222,0.266493056,1,0,0,1.011,Peridotite_08,7,08,5,5,1.011,7,08,0.144097222,-0.262152778,1,0,0,7.264,Diorite_rect,3,7.264,0,0,0,0,0,1,,,,,,,,,,,,,
606604f1ca47696cf97529c0,SCR,2024-06-20_16h33.01.213,LearnStrategy,2023.2.3,Win32,60.0240096,4,1,2,0.079861111,-0.279513889,1,0,0,0.663,Pegmatite_09,6,09,2,5,0.663,6,09,0.105902778,-0.240451389,1,0,0,1.107,Diorite_rect,3,1.107,0,1,0,1,0,1,,,,,,,,,,,,,
606604f1ca47696cf97529c0,SCR,2024-06-20_16h33.01.213,LearnStrategy,2023.2.3,Win32,60.0240096,4,1,3,-0.216145833,-0.264756944,1,0,0,0.866,Pegmatite_06,6,06,2,3,0.866,6,06,0.110243056,-0.233506944,1,0,0,1.45,Diorite_rect,3,1.45,0,2,0,2,0,1,,,,,,,,,,,,,
606604f1ca47696cf97529c0,SCR,2024-06-20_16h33.01.213,LearnStrategy,2023.2.3,Win32,60.0240096,4,1,4,0.580729167,-0.409722222,1,0,0,1.462,Gabbro_03,4,03,1,8,1.462,4,03,-0.362847222,-0.256944444,1,0,0,2.025,Andesite_rect,1,2.025,0,3,0,3,0,1,,,,,,,,,,,,,
606604f1ca47696cf97529c0,SCR,2024-06-20_16h33.01.213,LearnStrategy,2023.2.3,Win32,60.0240096,4,1,5,-0.390625,0.374131944,1,0,0,0.965,Gabbro_05,4,05,6,2,0.965,4,05,-0.372395833,-0.2578125,1,0,0,1.274,Andesite_rect,1,1.274,0,4,0,4,0,1,,,,,,,,,,,,,
606604f1ca47696cf97529c0,SCR,2024-06-20_16h33.01.213,LearnStrategy,2023.2.3,Win32,60.0240096,4,1,6,0.276041667,0.109375,1,0,0,0.681,Andesite_14,1,14,4,6,0.681,1,14,-0.3984375,-0.256944444,1,0,0,1.007,Andesite_rect,1,1.007,1,5,0,5,0,1,,,,,,,,,,,,,
606604f1ca47696cf97529c0,SCR,2024-06-20_16h33.01.213,LearnStrategy,2023.2.3,Win32,60.0240096,4,1,7,0.361111111,0.223090278,1,0,0,0.829,Andesite_05,1,05,5,7,0.829,1,05,-0.388020833,-0.258680556,1,0,0,0.943,Andesite_rect,1,0.943,1,6,0,6,0,1,,,,,,,,,,,,,
606604f1ca47696cf97529c0,SCR,2024-06-20_16h33.01.213,LearnStrategy,2023.2.3,Win32,60.0240096,4,1,8,-0.381076389,0.130208333,1,0,0,0.733,Gabbro_15,4,15,4,2,0.733,4,15,-0.046875,-0.411458333,1,0,0,5.778,Pegmatite_rect,6,5.778,0,7,0,7,0,1,,,,,,,,,,,,,
606604f1ca47696cf97529c0,SCR,2024-06-20_16h33.01.213,LearnStrategy,2023.2.3,Win32,60.0240096,4,1,9,-0.049479167,0.376736111,1,0,0,0.945,Basalt_10,2,10,6,4,0.945,2,10,-0.110243056,-0.237847222,1,0,0,1.952,Basalt_rect,2,1.952,1,8,0,8,0,1,,,,,,,,,,,,,
606604f1ca47696cf97529c0,SCR,2024-06-20_16h33.01.213,LearnStrategy,2023.2.3,Win32,60.0240096,4,1,10,-0.115451389,0.143229167,1,0,0,0.582,Diorite_12,3,12,4,4,0.582,3,12,0.3203125,-0.246527778,1,0,0,2.86,Gabbro_rect,4,2.86,0,9,0,9,0,1,,,,,,,,,,,,,
606604f1ca47696cf97529c0,SCR,2024-06-20_16h33.01.213,LearnStrategy,2023.2.3,Win32,60.0240096,4,1,11,0.415798611,-0.112847222,1,0,0,0.731,Andesite_10,1,10,3,7,0.731,1,10,-0.348958333,-0.263888889,1,0,0,2.162,Andesite_rect,1,2.162,1,10,0,10,0,1,,,,,,,,,,,,,
606604f1ca47696cf97529c0,SCR,2024-06-20_16h33.01.213,LearnStrategy,2023.2.3,Win32,60.0240096,4,1,12,-0.073784722,0.085069444,1,0,0,0.598,Diorite_12,3,12,4,4,0.598,3,12,-0.128472222,-0.381076389,1,0,0,1.075,Pegmatite_rect,6,1.075,0,11,0,11,0,1,,,,,,,,,,,,,
606604f1ca47696cf97529c0,SCR,2024-06-20_16h33.01.213,LearnStrategy,2023.2.3,Win32,60.0240096,4,1,13,-0.223958333,-0.279513889,1,0,0,0.617,Pegmatite_06,6,06,2,3,0.617,6,06,0.147569444,-0.234375,1,0,0,2.084,Diorite_rect,3,2.084,0,12,0,12,0,1,,,,,,,,,,,,,
606604f1ca47696cf97529c0,SCR,2024-06-20_16h33.01.213,LearnStrategy,2023.2.3,Win32,60.0240096,4,1,14,0.243055556,-0.09375,1,0,0,1.082,Peridotite_05,7,05,3,6,1.082,7,05,0.137152778,-0.396701389,1,0,0,1.899,Peridotite_rect,7,1.899,1,13,0,13,0,1,,,,,,,,,,,,,
606604f1ca47696cf97529c0,SCR,2024-06-20_16h33.01.213,LearnStrategy,2023.2.3,Win32,60.0240096,4,1,15,-0.404513889,-0.277777778,1,0,0,0.898,Diorite_06,3,06,2,2,0.898,3,06,0.073784722,-0.255208333,1,0,0,3.105,Diorite_rect,3,3.105,1,14,0,14,0,1,,,,,,,,,,,,,
606604f1ca47696cf97529c0,SCR,2024-06-20_16h33.01.213,LearnStrategy,2023.2.3,Win32,60.0240096,4,1,16,0.061631944,-0.419270833,1,0,0,0.698,Pumice_04,8,04,1,5,0.698,8,04,0.431423611,-0.414930556,1,0,0,1.387,Pumice_rect,8,1.387,1,15,0,15,0,1,,,,,,,,,,,,,
606604f1ca47696cf97529c0,SCR,2024-06-20_16h33.01.213,LearnStrategy,2023.2.3,Win32,60.0240096,4,2,1,,,,,,,,2,02,,,,,,,,,,,,,2,1.971,1,,,,,,-0.142361111,-0.255208333,1,0,0,1.971,Basalt_rect,0,0,0,0,1,
606604f1ca47696cf97529c0,SCR,2024-06-20_16h33.01.213,LearnStrategy,2023.2.3,Win32,60.0240096,4,2,2,,,,,,,,6,12,,,,,,,,,,,,,7,3.365,0,,,,,,0.086805556,-0.408854167,1,0,0,3.365,Peridotite_rect,1,0,1,0,1,
606604f1ca47696cf97529c0,SCR,2024-06-20_16h33.01.213,LearnStrategy,2023.2.3,Win32,60.0240096,4,2,3,,,,,,,,5,12,,,,,,,,,,,,,5,0.992,1,,,,,,-0.3984375,-0.403645833,1,0,0,0.992,Obsidian_rect,2,0,2,0,1,
606604f1ca47696cf97529c0,SCR,2024-06-20_16h33.01.213,LearnStrategy,2023.2.3,Win32,60.0240096,4,2,4,,,,,,,,3,11,,,,,,,,,,,,,6,3.014,0,,,,,,-0.078993056,-0.388020833,1,0,0,3.014,Pegmatite_rect,3,0,3,0,1,
606604f1ca47696cf97529c0,SCR,2024-06-20_16h33.01.213,LearnStrategy,2023.2.3,Win32,60.0240096,4,2,5,,,,,,,,1,07,,,,,,,,,,,,,3,1.886,0,,,,,,0.114583333,-0.245659722,1,0,0,1.886,Diorite_rect,4,0,4,0,1,
606604f1ca47696cf97529c0,SCR,2024-06-20_16h33.01.213,LearnStrategy,2023.2.3,Win32,60.0240096,4,2,6,,,,,,,,2,08,,,,,,,,,,,,,2,1.141,1,,,,,,-0.097222222,-0.260416667,1,0,0,1.141,Basalt_rect,5,0,5,0,1,
606604f1ca47696cf97529c0,SCR,2024-06-20_16h33.01.213,LearnStrategy,2023.2.3,Win32,60.0240096,4,2,7,,,,,,,,4,12,,,,,,,,,,,,,1,1.321,0,,,,,,-0.373263889,-0.245659722,1,0,0,1.321,Andesite_rect,6,0,6,0,1,
606604f1ca47696cf97529c0,SCR,2024-06-20_16h33.01.213,LearnStrategy,2023.2.3,Win32,60.0240096,4,2,8,,,,,,,,1,09,,,,,,,,,,,,,1,1.364,1,,,,,,-0.325520833,-0.239583333,1,0,0,1.364,Andesite_rect,7,0,7,0,1,
606604f1ca47696cf97529c0,SCR,2024-06-20_16h33.01.213,LearnStrategy,2023.2.3,Win32,60.0240096,4,2,9,,,,,,,,8,08,,,,,,,,,,,,,8,1.176,1,,,,,,0.421875,-0.390625,1,0,0,1.176,Pumice_rect,8,0,8,0,1,
606604f1ca47696cf97529c0,SCR,2024-06-20_16h33.01.213,LearnStrategy,2023.2.3,Win32,60.0240096,4,2,10,,,,,,,,7,16,,,,,,,,,,,,,6,2.822,0,,,,,,-0.092013889,-0.399305556,1,0,0,2.822,Pegmatite_rect,9,0,9,0,1,
606604f1ca47696cf97529c0,SCR,2024-06-20_16h33.01.213,LearnStrategy,2023.2.3,Win32,60.0240096,4,2,11,,,,,,,,5,16,,,,,,,,,,,,,5,0.958,1,,,,,,-0.348958333,-0.397569444,1,0,0,0.958,Obsidian_rect,10,0,10,0,1,
606604f1ca47696cf97529c0,SCR,2024-06-20_16h33.01.213,LearnStrategy,2023.2.3,Win32,60.0240096,4,2,12,,,,,,,,4,08,,,,,,,,,,,,,1,16.048,0,,,,,,-0.384548611,-0.261284722,1,0,0,16.048,Andesite_rect,11,0,11,0,1,
606604f1ca47696cf97529c0,SCR,2024-06-20_16h33.01.213,LearnStrategy,2023.2.3,Win32,60.0240096,4,2,13,,,,,,,,8,02,,,,,,,,,,,,,7,4.085,0,,,,,,0.120659722,-0.397569444,1,0,0,4.085,Peridotite_rect,12,0,12,0,1,
606604f1ca47696cf97529c0,SCR,2024-06-20_16h33.01.213,LearnStrategy,2023.2.3,Win32,60.0240096,4,2,14,,,,,,,,7,15,,,,,,,,,,,,,3,5.675,0,,,,,,0.133680556,-0.254340278,1,0,0,5.675,Diorite_rect,13,0,13,0,1,
606604f1ca47696cf97529c0,SCR,2024-06-20_16h33.01.213,LearnStrategy,2023.2.3,Win32,60.0240096,4,2,15,,,,,,,,6,10,,,,,,,,,,,,,6,2.53,1,,,,,,-0.059895833,-0.3828125,1,0,0,2.53,Pegmatite_rect,14,0,14,0,1,
606604f1ca47696cf97529c0,SCR,2024-06-20_16h33.01.213,LearnStrategy,2023.2.3,Win32,60.0240096,4,2,16,,,,,,,,3,14,,,,,,,,,,,,,3,1.375,1,,,,,,0.083333333,-0.259548611,1,0,0,1.375,Diorite_rect,15,0,15,0,1,
606604f1ca47696cf97529c0,SCR,2024-06-20_16h33.01.213,LearnStrategy,2023.2.3,Win32,60.0240096,5,1,1,-0.595486111,-0.368055556,1,0,0,1.009,Andesite_04,1,04,1,1,1.009,1,04,0.106770833,-0.401909722,1,0,0,4.114,Peridotite_rect,7,4.114,0,0,0,0,0,1,,,,,,,,,,,,,
606604f1ca47696cf97529c0,SCR,2024-06-20_16h33.01.213,LearnStrategy,2023.2.3,Win32,60.0240096,5,1,2,0.048611111,0.3828125,1,0,0,0.863,Pegmatite_15,6,15,6,5,0.863,6,15,0.134548611,-0.247395833,1,0,0,1.258,Diorite_rect,3,1.258,0,1,0,1,0,1,,,,,,,,,,,,,
606604f1ca47696cf97529c0,SCR,2024-06-20_16h33.01.213,LearnStrategy,2023.2.3,Win32,60.0240096,5,1,3,0.213541667,-0.092881944,1,0,0,0.832,Peridotite_05,7,05,3,6,0.832,7,05,0.103298611,-0.244791667,1,0,0,1.315,Diorite_rect,3,1.315,0,2,0,2,0,1,,,,,,,,,,,,,
606604f1ca47696cf97529c0,SCR,2024-06-20_16h33.01.213,LearnStrategy,2023.2.3,Win32,60.0240096,5,1,4,-0.5546875,-0.269097222,1,0,0,1,Pegmatite_13,6,13,2,1,1,6,13,0.0859375,-0.245659722,1,0,0,0.979,Diorite_rect,3,0.979,0,3,0,3,0,1,,,,,,,,,,,,,
606604f1ca47696cf97529c0,SCR,2024-06-20_16h33.01.213,LearnStrategy,2023.2.3,Win32,60.0240096,5,1,5,0.390625,-0.422743056,1,0,0,1.082,Gabbro_10,4,10,1,7,1.082,4,10,-0.361979167,-0.256076389,1,0,0,0.968,Andesite_rect,1,0.968,0,4,0,4,0,1,,,,,,,,,,,,,
606604f1ca47696cf97529c0,SCR,2024-06-20_16h33.01.213,LearnStrategy,2023.2.3,Win32,60.0240096,5,1,6,-0.200520833,-0.438368056,1,0,0,0.732,Basalt_01,2,01,1,3,0.732,2,01,-0.116319444,-0.269097222,1,0,0,1.057,Basalt_rect,2,1.057,1,5,0,5,0,1,,,,,,,,,,,,,
606604f1ca47696cf97529c0,SCR,2024-06-20_16h33.01.213,LearnStrategy,2023.2.3,Win32,60.0240096,5,1,7,0.238715278,-0.269097222,1,0,0,0.7,Pumice_03,8,03,2,6,0.7,8,03,0.434027778,-0.389756944,1,0,0,0.744,Pumice_rect,8,0.744,1,6,0,6,0,1,,,,,,,,,,,,,
606604f1ca47696cf97529c0,SCR,2024-06-20_16h33.01.213,LearnStrategy,2023.2.3,Win32,60.0240096,5,1,8,0.248263889,-0.092881944,1,0,0,0.734,Peridotite_05,7,05,3,6,0.734,7,05,0.140625,-0.407986111,1,0,0,1.792,Peridotite_rect,7,1.792,1,7,0,7,0,1,,,,,,,,,,,,,
606604f1ca47696cf97529c0,SCR,2024-06-20_16h33.01.213,LearnStrategy,2023.2.3,Win32,60.0240096,5,1,9,-0.191840278,0.066840278,1,0,0,0.778,Peridotite_02,7,02,4,3,0.778,7,02,-0.057291667,-0.396701389,1,0,0,2.042,Pegmatite_rect,6,2.042,0,8,0,8,0,1,,,,,,,,,,,,,
606604f1ca47696cf97529c0,SCR,2024-06-20_16h33.01.213,LearnStrategy,2023.2.3,Win32,60.0240096,5,1,10,0.094618056,-0.269097222,1,0,0,1.266,Pegmatite_09,6,09,2,5,1.266,6,09,0.090277778,-0.249131944,1,0,0,2.39,Diorite_rect,3,2.39,0,9,0,9,0,1,,,,,,,,,,,,,
606604f1ca47696cf97529c0,SCR,2024-06-20_16h33.01.213,LearnStrategy,2023.2.3,Win32,60.0240096,5,1,11,0.359375,0.383680556,1,0,0,0.982,Andesite_06,1,06,6,7,0.982,1,06,-0.308159722,-0.259548611,1,0,0,0.931,Andesite_rect,1,0.931,1,10,0,10,0,1,,,,,,,,,,,,,
606604f1ca47696cf97529c0,SCR,2024-06-20_16h33.01.213,LearnStrategy,2023.2.3,Win32,60.0240096,5,1,12,-0.368923611,0.079861111,1,0,0,0.75,Gabbro_15,4,15,4,2,0.75,4,15,0.173611111,-0.386284722,1,0,0,3.874,Peridotite_rect,7,3.874,0,11,0,11,0,1,,,,,,,,,,,,,
606604f1ca47696cf97529c0,SCR,2024-06-20_16h33.01.213,LearnStrategy,2023.2.3,Win32,60.0240096,5,1,13,-0.395833333,-0.240451389,1,0,0,0.747,Diorite_06,3,06,2,2,0.747,3,06,0.091145833,-0.249131944,1,0,0,1.903,Diorite_rect,3,1.903,1,12,0,12,0,1,,,,,,,,,,,,,
606604f1ca47696cf97529c0,SCR,2024-06-20_16h33.01.213,LearnStrategy,2023.2.3,Win32,60.0240096,5,1,14,0.228298611,-0.394097222,1,0,0,0.766,Diorite_02,3,02,1,6,0.766,3,02,0.162326389,-0.253472222,1,0,0,1.36,Diorite_rect,3,1.36,1,13,0,13,0,1,,,,,,,,,,,,,
606604f1ca47696cf97529c0,SCR,2024-06-20_16h33.01.213,LearnStrategy,2023.2.3,Win32,60.0240096,5,1,15,0.388020833,0.2421875,1,0,0,0.715,Andesite_05,1,05,5,7,0.715,1,05,0.439236111,-0.263888889,1,0,0,2.365,Gabbro_rect,4,2.365,0,14,0,14,0,1,,,,,,,,,,,,,
606604f1ca47696cf97529c0,SCR,2024-06-20_16h33.01.213,LearnStrategy,2023.2.3,Win32,60.0240096,5,1,16,-0.34375,0.089409722,1,0,0,0.696,Gabbro_15,4,15,4,2,0.696,4,15,0.405381944,-0.241319444,1,0,0,1.409,Gabbro_rect,4,1.409,1,15,0,15,0,1,,,,,,,,,,,,,
606604f1ca47696cf97529c0,SCR,2024-06-20_16h33.01.213,LearnStrategy,2023.2.3,Win32,60.0240096,5,2,1,,,,,,,,2,06,,,,,,,,,,,,,2,4.971,1,,,,,,-0.086805556,-0.234375,1,0,0,4.971,Basalt_rect,0,0,0,0,1,
606604f1ca47696cf97529c0,SCR,2024-06-20_16h33.01.213,LearnStrategy,2023.2.3,Win32,60.0240096,5,2,2,,,,,,,,5,10,,,,,,,,,,,,,5,1.746,1,,,,,,-0.355902778,-0.405381944,1,0,0,1.746,Obsidian_rect,1,0,1,0,1,
606604f1ca47696cf97529c0,SCR,2024-06-20_16h33.01.213,LearnStrategy,2023.2.3,Win32,60.0240096,5,2,3,,,,,,,,7,14,,,,,,,,,,,,,7,3.287,1,,,,,,0.085069444,-0.391493056,1,0,0,3.287,Peridotite_rect,2,0,2,0,1,
606604f1ca47696cf97529c0,SCR,2024-06-20_16h33.01.213,LearnStrategy,2023.2.3,Win32,60.0240096,5,2,4,,,,,,,,8,14,,,,,,,,,,,,,8,2.216,1,,,,,,0.380208333,-0.399305556,1,0,0,2.216,Pumice_rect,3,0,3,0,1,
606604f1ca47696cf97529c0,SCR,2024-06-20_16h33.01.213,LearnStrategy,2023.2.3,Win32,60.0240096,5,2,5,,,,,,,,5,05,,,,,,,,,,,,,5,1.126,1,,,,,,-0.356770833,-0.380208333,1,0,0,1.126,Obsidian_rect,4,0,4,0,1,
606604f1ca47696cf97529c0,SCR,2024-06-20_16h33.01.213,LearnStrategy,2023.2.3,Win32,60.0240096,5,2,6,,,,,,,,2,05,,,,,,,,,,,,,2,1.03,1,,,,,,-0.111979167,-0.244791667,1,0,0,1.03,Basalt_rect,5,0,5,0,1,
606604f1ca47696cf97529c0,SCR,2024-06-20_16h33.01.213,LearnStrategy,2023.2.3,Win32,60.0240096,5,2,7,,,,,,,,8,06,,,,,,,,,,,,,8,1.097,1,,,,,,0.434027778,-0.418402778,1,0,0,1.097,Pumice_rect,6,0,6,0,1,
606604f1ca47696cf97529c0,SCR,2024-06-20_16h33.01.213,LearnStrategy,2023.2.3,Win32,60.0240096,5,2,8,,,,,,,,6,08,,,,,,,,,,,,,7,5.174,0,,,,,,0.112847222,-0.3984375,1,0,0,5.174,Peridotite_rect,7,0,7,0,1,
606604f1ca47696cf97529c0,SCR,2024-06-20_16h33.01.213,LearnStrategy,2023.2.3,Win32,60.0240096,5,2,9,,,,,,,,7,06,,,,,,,,,,,,,7,1.059,1,,,,,,0.103298611,-0.387152778,1,0,0,1.059,Peridotite_rect,8,0,8,0,1,
606604f1ca47696cf97529c0,SCR,2024-06-20_16h33.01.213,LearnStrategy,2023.2.3,Win32,60.0240096,5,2,10,,,,,,,,1,01,,,,,,,,,,,,,1,5.563,1,,,,,,-0.3203125,-0.244791667,1,0,0,5.563,Andesite_rect,9,0,9,0,1,
606604f1ca47696cf97529c0,SCR,2024-06-20_16h33.01.213,LearnStrategy,2023.2.3,Win32,60.0240096,5,2,11,,,,,,,,3,15,,,,,,,,,,,,,7,1.941,0,,,,,,0.121527778,-0.407986111,1,0,0,1.941,Peridotite_rect,10,0,10,0,1,
606604f1ca47696cf97529c0,SCR,2024-06-20_16h33.01.213,LearnStrategy,2023.2.3,Win32,60.0240096,5,2,12,,,,,,,,3,08,,,,,,,,,,,,,7,1.012,0,,,,,,0.126736111,-0.414930556,1,0,0,1.012,Peridotite_rect,11,0,11,0,1,
606604f1ca47696cf97529c0,SCR,2024-06-20_16h33.01.213,LearnStrategy,2023.2.3,Win32,60.0240096,5,2,13,,,,,,,,4,01,,,,,,,,,,,,,7,1.993,0,,,,,,0.059895833,-0.397569444,1,0,0,1.993,Peridotite_rect,12,0,12,0,1,
606604f1ca47696cf97529c0,SCR,2024-06-20_16h33.01.213,LearnStrategy,2023.2.3,Win32,60.0240096,5,2,14,,,,,,,,4,16,,,,,,,,,,,,,4,2.559,1,,,,,,0.453125,-0.254340278,1,0,0,2.559,Gabbro_rect,13,0,13,0,1,
606604f1ca47696cf97529c0,SCR,2024-06-20_16h33.01.213,LearnStrategy,2023.2.3,Win32,60.0240096,5,2,15,,,,,,,,1,02,,,,,,,,,,,,,1,1.661,1,,,,,,-0.338541667,-0.2578125,1,0,0,1.661,Andesite_rect,14,0,14,0,1,
606604f1ca47696cf97529c0,SCR,2024-06-20_16h33.01.213,LearnStrategy,2023.2.3,Win32,60.0240096,5,2,16,,,,,,,,6,03,,,,,,,,,,,,,7,1.243,0,,,,,,0.123263889,-0.388888889,1,0,0,1.243,Peridotite_rect,15,0,15,0,1,
606604f1ca47696cf97529c0,SCR,2024-06-20_16h33.01.213,LearnStrategy,2023.2.3,Win32,60.0240096,6,1,1,-0.407118056,0.390625,1,0,0,1.348,Gabbro_05,4,05,6,2,1.348,4,05,-0.368055556,-0.238715278,1,0,0,2.728,Andesite_rect,1,2.728,0,0,0,0,0,1,,,,,,,,,,,,,
606604f1ca47696cf97529c0,SCR,2024-06-20_16h33.01.213,LearnStrategy,2023.2.3,Win32,60.0240096,6,1,2,0.223958333,-0.263020833,1,0,0,0.8,Pumice_03,8,03,2,6,0.8,8,03,0.383680556,-0.3984375,1,0,0,0.914,Pumice_rect,8,0.914,1,1,0,1,0,1,,,,,,,,,,,,,
606604f1ca47696cf97529c0,SCR,2024-06-20_16h33.01.213,LearnStrategy,2023.2.3,Win32,60.0240096,6,1,3,-0.102430556,0.207465278,1,0,0,0.733,Diorite_07,3,07,5,4,0.733,3,07,0.145833333,-0.388888889,1,0,0,2.036,Peridotite_rect,7,2.036,0,2,0,2,0,1,,,,,,,,,,,,,
606604f1ca47696cf97529c0,SCR,2024-06-20_16h33.01.213,LearnStrategy,2023.2.3,Win32,60.0240096,6,1,4,-0.095486111,0.248263889,1,0,0,0.747,Diorite_07,3,07,5,4,0.747,3,07,0.144965278,-0.269097222,1,0,0,0.72,Diorite_rect,3,0.72,1,3,0,3,0,1,,,,,,,,,,,,,
606604f1ca47696cf97529c0,SCR,2024-06-20_16h33.01.213,LearnStrategy,2023.2.3,Win32,60.0240096,6,1,5,-0.089409722,0.378472222,1,0,0,0.8,Basalt_10,2,10,6,4,0.8,2,10,-0.129340278,-0.269097222,1,0,0,1.266,Basalt_rect,2,1.266,1,4,0,4,0,1,,,,,,,,,,,,,
606604f1ca47696cf97529c0,SCR,2024-06-20_16h33.01.213,LearnStrategy,2023.2.3,Win32,60.0240096,6,1,6,-0.265625,0.401909722,1,0,0,0.813,Andesite_03,1,03,6,3,0.813,1,03,-0.322916667,-0.236979167,1,0,0,3.373,Andesite_rect,1,3.373,1,5,0,5,0,1,,,,,,,,,,,,,
606604f1ca47696cf97529c0,SCR,2024-06-20_16h33.01.213,LearnStrategy,2023.2.3,Win32,60.0240096,6,1,7,0.063368056,-0.255208333,1,0,0,1.115,Pegmatite_09,6,09,2,5,1.115,6,09,0.111979167,-0.389756944,1,0,0,1.754,Peridotite_rect,7,1.754,0,6,0,6,0,1,,,,,,,,,,,,,
606604f1ca47696cf97529c0,SCR,2024-06-20_16h33.01.213,LearnStrategy,2023.2.3,Win32,60.0240096,6,1,8,-0.540798611,0.370659722,1,0,0,0.981,Peridotite_13,7,13,6,1,0.981,7,13,0.160590278,-0.378472222,1,0,0,0.998,Peridotite_rect,7,0.998,1,7,0,7,0,1,,,,,,,,,,,,,
606604f1ca47696cf97529c0,SCR,2024-06-20_16h33.01.213,LearnStrategy,2023.2.3,Win32,60.0240096,6,1,9,-0.191840278,0.125868056,1,0,0,0.632,Peridotite_02,7,02,4,3,0.632,7,02,0.192708333,-0.394097222,1,0,0,1.7,Peridotite_rect,7,1.7,1,8,0,8,0,1,,,,,,,,,,,,,
606604f1ca47696cf97529c0,SCR,2024-06-20_16h33.01.213,LearnStrategy,2023.2.3,Win32,60.0240096,6,1,10,0.3984375,-0.401041667,1,0,0,0.965,Gabbro_10,4,10,1,7,0.965,4,10,0.373263889,-0.246527778,1,0,0,2.014,Gabbro_rect,4,2.014,1,9,0,9,0,1,,,,,,,,,,,,,
606604f1ca47696cf97529c0,SCR,2024-06-20_16h33.01.213,LearnStrategy,2023.2.3,Win32,60.0240096,6,1,11,-0.217013889,-0.238715278,1,0,0,0.733,Pegmatite_06,6,06,2,3,0.733,6,06,0.1328125,-0.393229167,1,0,0,2.453,Peridotite_rect,7,2.453,0,10,0,10,0,1,,,,,,,,,,,,,
606604f1ca47696cf97529c0,SCR,2024-06-20_16h33.01.213,LearnStrategy,2023.2.3,Win32,60.0240096,6,1,12,0.386284722,0.278645833,1,0,0,0.863,Andesite_05,1,05,5,7,0.863,1,05,-0.3984375,-0.230034722,1,0,0,0.972,Andesite_rect,1,0.972,1,11,0,11,0,1,,,,,,,,,,,,,
606604f1ca47696cf97529c0,SCR,2024-06-20_16h33.01.213,LearnStrategy,2023.2.3,Win32,60.0240096,6,1,13,-0.547743056,-0.220486111,1,0,0,0.832,Pegmatite_13,6,13,2,1,0.832,6,13,0.133680556,-0.415798611,1,0,0,1.644,Peridotite_rect,7,1.644,0,12,0,12,0,1,,,,,,,,,,,,,
606604f1ca47696cf97529c0,SCR,2024-06-20_16h33.01.213,LearnStrategy,2023.2.3,Win32,60.0240096,6,1,14,0.410590278,-0.421875,1,0,0,0.749,Gabbro_10,4,10,1,7,0.749,4,10,0.389756944,-0.248263889,1,0,0,2.339,Gabbro_rect,4,2.339,1,13,0,13,0,1,,,,,,,,,,,,,
606604f1ca47696cf97529c0,SCR,2024-06-20_16h33.01.213,LearnStrategy,2023.2.3,Win32,60.0240096,6,1,15,-0.237847222,0.081597222,1,0,0,0.749,Peridotite_02,7,02,4,3,0.749,7,02,0.175347222,-0.383680556,1,0,0,1.445,Peridotite_rect,7,1.445,1,14,0,14,0,1,,,,,,,,,,,,,
606604f1ca47696cf97529c0,SCR,2024-06-20_16h33.01.213,LearnStrategy,2023.2.3,Win32,60.0240096,6,1,16,0.239583333,-0.439236111,1,0,0,0.833,Diorite_02,3,02,1,6,0.833,3,02,-0.056423611,-0.402777778,1,0,0,4.027,Pegmatite_rect,6,4.027,0,15,0,15,0,1,,,,,,,,,,,,,
606604f1ca47696cf97529c0,SCR,2024-06-20_16h33.01.213,LearnStrategy,2023.2.3,Win32,60.0240096,6,2,1,,,,,,,,6,16,,,,,,,,,,,,,7,2.051,0,,,,,,0.102430556,-0.404513889,1,0,0,2.051,Peridotite_rect,0,0,0,0,1,
606604f1ca47696cf97529c0,SCR,2024-06-20_16h33.01.213,LearnStrategy,2023.2.3,Win32,60.0240096,6,2,2,,,,,,,,6,07,,,,,,,,,,,,,7,1.251,0,,,,,,0.131076389,-0.394965278,1,0,0,1.251,Peridotite_rect,1,0,1,0,1,
606604f1ca47696cf97529c0,SCR,2024-06-20_16h33.01.213,LearnStrategy,2023.2.3,Win32,60.0240096,6,2,3,,,,,,,,3,10,,,,,,,,,,,,,6,1.292,0,,,,,,-0.111979167,-0.390625,1,0,0,1.292,Pegmatite_rect,2,0,2,0,1,
606604f1ca47696cf97529c0,SCR,2024-06-20_16h33.01.213,LearnStrategy,2023.2.3,Win32,60.0240096,6,2,4,,,,,,,,2,14,,,,,,,,,,,,,4,2.814,0,,,,,,0.414930556,-0.248263889,1,0,0,2.814,Gabbro_rect,3,0,3,0,1,
606604f1ca47696cf97529c0,SCR,2024-06-20_16h33.01.213,LearnStrategy,2023.2.3,Win32,60.0240096,6,2,5,,,,,,,,4,13,,,,,,,,,,,,,4,1.533,1,,,,,,0.373263889,-0.250868056,1,0,0,1.533,Gabbro_rect,4,0,4,0,1,
606604f1ca47696cf97529c0,SCR,2024-06-20_16h33.01.213,LearnStrategy,2023.2.3,Win32,60.0240096,6,2,6,,,,,,,,1,16,,,,,,,,,,,,,1,5.743,1,,,,,,-0.368055556,-0.232638889,1,0,0,5.743,Andesite_rect,5,0,5,0,1,
606604f1ca47696cf97529c0,SCR,2024-06-20_16h33.01.213,LearnStrategy,2023.2.3,Win32,60.0240096,6,2,7,,,,,,,,4,14,,,,,,,,,,,,,4,1.653,1,,,,,,0.412326389,-0.261284722,1,0,0,1.653,Gabbro_rect,6,0,6,0,1,
606604f1ca47696cf97529c0,SCR,2024-06-20_16h33.01.213,LearnStrategy,2023.2.3,Win32,60.0240096,6,2,8,,,,,,,,5,09,,,,,,,,,,,,,5,0.953,1,,,,,,-0.397569444,-0.408854167,1,0,0,0.953,Obsidian_rect,7,0,7,0,1,
606604f1ca47696cf97529c0,SCR,2024-06-20_16h33.01.213,LearnStrategy,2023.2.3,Win32,60.0240096,6,2,9,,,,,,,,5,08,,,,,,,,,,,,,5,1.928,1,,,,,,-0.383680556,-0.394965278,1,0,0,1.928,Obsidian_rect,8,0,8,0,1,
606604f1ca47696cf97529c0,SCR,2024-06-20_16h33.01.213,LearnStrategy,2023.2.3,Win32,60.0240096,6,2,10,,,,,,,,3,09,,,,,,,,,,,,,3,1.879,1,,,,,,0.092013889,-0.266493056,1,0,0,1.879,Diorite_rect,9,0,9,0,1,
606604f1ca47696cf97529c0,SCR,2024-06-20_16h33.01.213,LearnStrategy,2023.2.3,Win32,60.0240096,6,2,11,,,,,,,,7,12,,,,,,,,,,,,,6,3.28,0,,,,,,-0.105902778,-0.4140625,1,0,0,3.28,Pegmatite_rect,10,0,10,0,1,
606604f1ca47696cf97529c0,SCR,2024-06-20_16h33.01.213,LearnStrategy,2023.2.3,Win32,60.0240096,6,2,12,,,,,,,,1,11,,,,,,,,,,,,,1,5.59,1,,,,,,-0.388888889,-0.238715278,1,0,0,5.59,Andesite_rect,11,0,11,0,1,
606604f1ca47696cf97529c0,SCR,2024-06-20_16h33.01.213,LearnStrategy,2023.2.3,Win32,60.0240096,6,2,13,,,,,,,,8,05,,,,,,,,,,,,,8,1.172,1,,,,,,0.376736111,-0.405381944,1,0,0,1.172,Pumice_rect,12,0,12,0,1,
606604f1ca47696cf97529c0,SCR,2024-06-20_16h33.01.213,LearnStrategy,2023.2.3,Win32,60.0240096,6,2,14,,,,,,,,8,10,,,,,,,,,,,,,8,1.595,1,,,,,,0.342881944,-0.397569444,1,0,0,1.595,Pumice_rect,13,0,13,0,1,
606604f1ca47696cf97529c0,SCR,2024-06-20_16h33.01.213,LearnStrategy,2023.2.3,Win32,60.0240096,6,2,15,,,,,,,,7,10,,,,,,,,,,,,,7,3.98,1,,,,,,0.110243056,-0.405381944,1,0,0,3.98,Peridotite_rect,14,0,14,0,1,
606604f1ca47696cf97529c0,SCR,2024-06-20_16h33.01.213,LearnStrategy,2023.2.3,Win32,60.0240096,6,2,16,,,,,,,,2,11,,,,,,,,,,,,,1,2.282,0,,,,,,-0.335069444,-0.230034722,1,0,0,2.282,Andesite_rect,15,0,15,0,1,
606604f1ca47696cf97529c0,SCR,2024-06-20_16h33.01.213,LearnStrategy,2023.2.3,Win32,60.0240096,7,1,1,-0.250868056,0.091145833,1,0,0,1.231,Peridotite_02,7,02,4,3,1.231,7,02,0.137152778,-0.393229167,1,0,0,1.61,Peridotite_rect,7,1.61,1,0,0,0,0,1,,,,,,,,,,,,,
606604f1ca47696cf97529c0,SCR,2024-06-20_16h33.01.213,LearnStrategy,2023.2.3,Win32,60.0240096,7,1,2,-0.052951389,-0.131076389,1,0,0,0.616,Basalt_09,2,09,3,4,0.616,2,09,-0.089409722,-0.231770833,1,0,0,0.832,Basalt_rect,2,0.832,1,1,0,1,0,1,,,,,,,,,,,,,
606604f1ca47696cf97529c0,SCR,2024-06-20_16h33.01.213,LearnStrategy,2023.2.3,Win32,60.0240096,7,1,3,0.588541667,0.077256944,1,0,0,0.816,Peridotite_04,7,04,4,8,0.816,7,04,0.119791667,-0.255208333,1,0,0,2.831,Diorite_rect,3,2.831,0,2,0,2,0,1,,,,,,,,,,,,,
606604f1ca47696cf97529c0,SCR,2024-06-20_16h33.01.213,LearnStrategy,2023.2.3,Win32,60.0240096,7,1,4,0.375868056,-0.361979167,1,0,0,0.851,Gabbro_10,4,10,1,7,0.851,4,10,0.422743056,-0.267361111,1,0,0,1.819,Gabbro_rect,4,1.819,1,3,0,3,0,1,,,,,,,,,,,,,
606604f1ca47696cf97529c0,SCR,2024-06-20_16h33.01.213,LearnStrategy,2023.2.3,Win32,60.0240096,7,1,5,0.5234375,0.253472222,1,0,0,0.813,Peridotite_07,7,07,5,8,0.813,7,07,-0.078125,-0.397569444,1,0,0,1.547,Pegmatite_rect,6,1.547,0,4,0,4,0,1,,,,,,,,,,,,,
606604f1ca47696cf97529c0,SCR,2024-06-20_16h33.01.213,LearnStrategy,2023.2.3,Win32,60.0240096,7,1,6,0.258680556,-0.275173611,1,0,0,1,Pumice_03,8,03,2,6,1,8,03,0.380208333,-0.390625,1,0,0,1.185,Pumice_rect,8,1.185,1,5,0,5,0,1,,,,,,,,,,,,,
606604f1ca47696cf97529c0,SCR,2024-06-20_16h33.01.213,LearnStrategy,2023.2.3,Win32,60.0240096,7,1,7,0.075520833,-0.065972222,1,0,0,0.598,Basalt_04,2,04,3,5,0.598,2,04,-0.051215278,-0.246527778,1,0,0,1.248,Basalt_rect,2,1.248,1,6,0,6,0,1,,,,,,,,,,,,,
606604f1ca47696cf97529c0,SCR,2024-06-20_16h33.01.213,LearnStrategy,2023.2.3,Win32,60.0240096,7,1,8,-0.081597222,0.082465278,1,0,0,0.715,Diorite_12,3,12,4,4,0.715,3,12,0.121527778,-0.255208333,1,0,0,2.326,Diorite_rect,3,2.326,1,7,0,7,0,1,,,,,,,,,,,,,
606604f1ca47696cf97529c0,SCR,2024-06-20_16h33.01.213,LearnStrategy,2023.2.3,Win32,60.0240096,7,1,9,-0.581597222,-0.146701389,1,0,0,0.783,Pegmatite_05,6,05,3,1,0.783,6,05,0.125868056,-0.421875,1,0,0,1.197,Peridotite_rect,7,1.197,0,8,0,8,0,1,,,,,,,,,,,,,
606604f1ca47696cf97529c0,SCR,2024-06-20_16h33.01.213,LearnStrategy,2023.2.3,Win32,60.0240096,7,1,10,-0.073784722,-0.265625,1,0,0,0.614,Diorite_13,3,13,2,4,0.614,3,13,-0.098090278,-0.421875,1,0,0,2.805,Pegmatite_rect,6,2.805,0,9,0,9,0,1,,,,,,,,,,,,,
606604f1ca47696cf97529c0,SCR,2024-06-20_16h33.01.213,LearnStrategy,2023.2.3,Win32,60.0240096,7,1,11,-0.366319444,-0.124131944,1,0,0,0.762,Gabbro_11,4,11,3,2,0.762,4,11,0.394097222,-0.260416667,1,0,0,5.203,Gabbro_rect,4,5.203,1,10,0,10,0,1,,,,,,,,,,,,,
606604f1ca47696cf97529c0,SCR,2024-06-20_16h33.01.213,LearnStrategy,2023.2.3,Win32,60.0240096,7,1,12,0.113715278,-0.272569444,1,0,0,0.899,Pegmatite_09,6,09,2,5,0.899,6,09,0.124131944,-0.393229167,1,0,0,1.065,Peridotite_rect,7,1.065,0,11,0,11,0,1,,,,,,,,,,,,,
606604f1ca47696cf97529c0,SCR,2024-06-20_16h33.01.213,LearnStrategy,2023.2.3,Win32,60.0240096,7,1,13,0.4140625,0.2265625,1,0,0,0.949,Andesite_05,1,05,5,7,0.949,1,05,-0.359375,-0.258680556,1,0,0,1.611,Andesite_rect,1,1.611,1,12,0,12,0,1,,,,,,,,,,,,,
606604f1ca47696cf97529c0,SCR,2024-06-20_16h33.01.213,LearnStrategy,2023.2.3,Win32,60.0240096,7,1,14,0.263020833,0.250868056,1,0,0,0.698,Pegmatite_11,6,11,5,6,0.698,6,11,-0.078993056,-0.390625,1,0,0,2.105,Pegmatite_rect,6,2.105,1,13,0,13,0,1,,,,,,,,,,,,,
606604f1ca47696cf97529c0,SCR,2024-06-20_16h33.01.213,LearnStrategy,2023.2.3,Win32,60.0240096,7,1,15,-0.401041667,-0.276909722,1,0,0,1.067,Diorite_06,3,06,2,2,1.067,3,06,0.140625,-0.245659722,1,0,0,3.644,Diorite_rect,3,3.644,1,14,0,14,0,1,,,,,,,,,,,,,
606604f1ca47696cf97529c0,SCR,2024-06-20_16h33.01.213,LearnStrategy,2023.2.3,Win32,60.0240096,7,1,16,0.078993056,0.373263889,1,0,0,0.899,Pegmatite_15,6,15,6,5,0.899,6,15,-0.097222222,-0.413194444,1,0,0,2.205,Pegmatite_rect,6,2.205,1,15,0,15,0,1,,,,,,,,,,,,,
606604f1ca47696cf97529c0,SCR,2024-06-20_16h33.01.213,LearnStrategy,2023.2.3,Win32,60.0240096,7,2,1,,,,,,,,2,05,,,,,,,,,,,,,2,1.725,1,,,,,,-0.112847222,-0.264756944,1,0,0,1.725,Basalt_rect,0,0,0,0,1,
606604f1ca47696cf97529c0,SCR,2024-06-20_16h33.01.213,LearnStrategy,2023.2.3,Win32,60.0240096,7,2,2,,,,,,,,5,10,,,,,,,,,,,,,5,0.983,1,,,,,,-0.348090278,-0.421875,1,0,0,0.983,Obsidian_rect,1,0,1,0,1,
606604f1ca47696cf97529c0,SCR,2024-06-20_16h33.01.213,LearnStrategy,2023.2.3,Win32,60.0240096,7,2,3,,,,,,,,1,01,,,,,,,,,,,,,4,5.436,0,,,,,,0.359375,-0.252604167,1,0,0,5.436,Gabbro_rect,2,0,2,0,1,
606604f1ca47696cf97529c0,SCR,2024-06-20_16h33.01.213,LearnStrategy,2023.2.3,Win32,60.0240096,7,2,4,,,,,,,,3,09,,,,,,,,,,,,,3,3.664,1,,,,,,0.118055556,-0.258680556,1,0,0,3.664,Diorite_rect,3,0,3,0,1,
606604f1ca47696cf97529c0,SCR,2024-06-20_16h33.01.213,LearnStrategy,2023.2.3,Win32,60.0240096,7,2,5,,,,,,,,8,10,,,,,,,,,,,,,8,1.094,1,,,,,,0.396701389,-0.417534722,1,0,0,1.094,Pumice_rect,4,0,4,0,1,
606604f1ca47696cf97529c0,SCR,2024-06-20_16h33.01.213,LearnStrategy,2023.2.3,Win32,60.0240096,7,2,6,,,,,,,,3,11,,,,,,,,,,,,,3,1.72,1,,,,,,0.088541667,-0.237847222,1,0,0,1.72,Diorite_rect,5,0,5,0,1,
606604f1ca47696cf97529c0,SCR,2024-06-20_16h33.01.213,LearnStrategy,2023.2.3,Win32,60.0240096,7,2,7,,,,,,,,1,07,,,,,,,,,,,,,3,1.259,0,,,,,,0.081597222,-0.250868056,1,0,0,1.259,Diorite_rect,6,0,6,0,1,
606604f1ca47696cf97529c0,SCR,2024-06-20_16h33.01.213,LearnStrategy,2023.2.3,Win32,60.0240096,7,2,8,,,,,,,,7,14,,,,,,,,,,,,,6,2.194,0,,,,,,-0.082465278,-0.405381944,1,0,0,2.194,Pegmatite_rect,7,0,7,0,1,
606604f1ca47696cf97529c0,SCR,2024-06-20_16h33.01.213,LearnStrategy,2023.2.3,Win32,60.0240096,7,2,9,,,,,,,,8,08,,,,,,,,,,,,,8,1.262,1,,,,,,0.3828125,-0.405381944,1,0,0,1.262,Pumice_rect,8,0,8,0,1,
606604f1ca47696cf97529c0,SCR,2024-06-20_16h33.01.213,LearnStrategy,2023.2.3,Win32,60.0240096,7,2,10,,,,,,,,5,12,,,,,,,,,,,,,5,1.075,1,,,,,,-0.405381944,-0.405381944,1,0,0,1.075,Obsidian_rect,9,0,9,0,1,
606604f1ca47696cf97529c0,SCR,2024-06-20_16h33.01.213,LearnStrategy,2023.2.3,Win32,60.0240096,7,2,11,,,,,,,,4,12,,,,,,,,,,,,,4,5.955,1,,,,,,0.393229167,-0.265625,1,0,0,5.955,Gabbro_rect,10,0,10,0,1,
606604f1ca47696cf97529c0,SCR,2024-06-20_16h33.01.213,LearnStrategy,2023.2.3,Win32,60.0240096,7,2,12,,,,,,,,4,16,,,,,,,,,,,,,4,1.308,1,,,,,,0.383680556,-0.262152778,1,0,0,1.308,Gabbro_rect,11,0,11,0,1,
606604f1ca47696cf97529c0,SCR,2024-06-20_16h33.01.213,LearnStrategy,2023.2.3,Win32,60.0240096,7,2,13,,,,,,,,6,16,,,,,,,,,,,,,6,1.802,1,,,,,,-0.125868056,-0.40625,1,0,0,1.802,Pegmatite_rect,12,0,12,0,1,
606604f1ca47696cf97529c0,SCR,2024-06-20_16h33.01.213,LearnStrategy,2023.2.3,Win32,60.0240096,7,2,14,,,,,,,,6,08,,,,,,,,,,,,,6,2.533,1,,,,,,-0.105034722,-0.400173611,1,0,0,2.533,Pegmatite_rect,13,0,13,0,1,
606604f1ca47696cf97529c0,SCR,2024-06-20_16h33.01.213,LearnStrategy,2023.2.3,Win32,60.0240096,7,2,15,,,,,,,,7,06,,,,,,,,,,,,,7,1.03,1,,,,,,0.075520833,-0.404513889,1,0,0,1.03,Peridotite_rect,14,0,14,0,1,
606604f1ca47696cf97529c0,SCR,2024-06-20_16h33.01.213,LearnStrategy,2023.2.3,Win32,60.0240096,7,2,16,,,,,,,,2,02,,,,,,,,,,,,,1,2.647,0,,,,,,-0.303819444,-0.263888889,1,0,0,2.647,Andesite_rect,15,0,15,0,1,
606604f1ca47696cf97529c0,SCR,2024-06-20_16h33.01.213,LearnStrategy,2023.2.3,Win32,60.0240096,8,1,1,-0.387152778,0.098090278,1,0,0,1.113,Gabbro_15,4,15,4,2,1.113,4,15,0.399305556,-0.248263889,1,0,0,3.258,Gabbro_rect,4,3.258,1,0,0,0,0,1,,,,,,,,,,,,,
606604f1ca47696cf97529c0,SCR,2024-06-20_16h33.01.213,LearnStrategy,2023.2.3,Win32,60.0240096,8,1,2,-0.076388889,-0.246527778,1,0,0,0.581,Diorite_13,3,13,2,4,0.581,3,13,0.095486111,-0.256944444,1,0,0,1.6,Diorite_rect,3,1.6,1,1,0,1,0,1,,,,,,,,,,,,,
606604f1ca47696cf97529c0,SCR,2024-06-20_16h33.01.213,LearnStrategy,2023.2.3,Win32,60.0240096,8,1,3,-0.362847222,-0.096354167,1,0,0,0.682,Gabbro_11,4,11,3,2,0.682,4,11,-0.357638889,-0.252604167,1,0,0,1.864,Andesite_rect,1,1.864,0,2,0,2,0,1,,,,,,,,,,,,,
606604f1ca47696cf97529c0,SCR,2024-06-20_16h33.01.213,LearnStrategy,2023.2.3,Win32,60.0240096,8,1,4,0.348958333,0.254340278,1,0,0,0.85,Andesite_05,1,05,5,7,0.85,1,05,-0.380208333,-0.263020833,1,0,0,1.104,Andesite_rect,1,1.104,1,3,0,3,0,1,,,,,,,,,,,,,
606604f1ca47696cf97529c0,SCR,2024-06-20_16h33.01.213,LearnStrategy,2023.2.3,Win32,60.0240096,8,1,5,0.213541667,-0.098958333,1,0,0,0.648,Peridotite_05,7,05,3,6,0.648,7,05,0.133680556,-0.401041667,1,0,0,2.087,Peridotite_rect,7,2.087,1,4,0,4,0,1,,,,,,,,,,,,,
606604f1ca47696cf97529c0,SCR,2024-06-20_16h33.01.213,LearnStrategy,2023.2.3,Win32,60.0240096,8,1,6,-0.072916667,-0.243055556,1,0,0,0.532,Diorite_13,3,13,2,4,0.532,3,13,0.126736111,-0.262152778,1,0,0,1.826,Diorite_rect,3,1.826,1,5,0,5,0,1,,,,,,,,,,,,,
606604f1ca47696cf97529c0,SCR,2024-06-20_16h33.01.213,LearnStrategy,2023.2.3,Win32,60.0240096,8,1,7,-0.564236111,-0.108506944,1,0,0,0.767,Pegmatite_05,6,05,3,1,0.767,6,05,-0.0859375,-0.392361111,1,0,0,0.902,Pegmatite_rect,6,0.902,1,6,0,6,0,1,,,,,,,,,,,,,
606604f1ca47696cf97529c0,SCR,2024-06-20_16h33.01.213,LearnStrategy,2023.2.3,Win32,60.0240096,8,1,8,-0.079861111,-0.373263889,1,0,0,0.615,Basalt_12,2,12,1,4,0.615,2,12,-0.361111111,-0.256944444,1,0,0,4.916,Andesite_rect,1,4.916,0,7,0,7,0,1,,,,,,,,,,,,,
606604f1ca47696cf97529c0,SCR,2024-06-20_16h33.01.213,LearnStrategy,2023.2.3,Win32,60.0240096,8,1,9,0.0703125,-0.102430556,1,0,0,0.648,Basalt_04,2,04,3,5,0.648,2,04,-0.1328125,-0.25,1,0,0,0.947,Basalt_rect,2,0.947,1,8,0,8,0,1,,,,,,,,,,,,,
606604f1ca47696cf97529c0,SCR,2024-06-20_16h33.01.213,LearnStrategy,2023.2.3,Win32,60.0240096,8,1,10,0.405381944,-0.112847222,1,0,0,0.682,Andesite_10,1,10,3,7,0.682,1,10,-0.380208333,-0.255208333,1,0,0,2.813,Andesite_rect,1,2.813,1,9,0,9,0,1,,,,,,,,,,,,,
606604f1ca47696cf97529c0,SCR,2024-06-20_16h33.01.213,LearnStrategy,2023.2.3,Win32,60.0240096,8,1,11,0.588541667,0.220486111,1,0,0,0.963,Peridotite_07,7,07,5,8,0.963,7,07,0.122395833,-0.414930556,1,0,0,1.383,Peridotite_rect,7,1.383,1,10,0,10,0,1,,,,,,,,,,,,,
606604f1ca47696cf97529c0,SCR,2024-06-20_16h33.01.213,LearnStrategy,2023.2.3,Win32,60.0240096,8,1,12,-0.375868056,-0.416666667,1,0,0,0.849,Pumice_13,8,13,1,2,0.849,8,13,0.348090278,-0.402777778,1,0,0,1.01,Pumice_rect,8,1.01,1,11,0,11,0,1,,,,,,,,,,,,,
606604f1ca47696cf97529c0,SCR,2024-06-20_16h33.01.213,LearnStrategy,2023.2.3,Win32,60.0240096,8,1,13,0.103298611,-0.258680556,1,0,0,0.616,Pegmatite_09,6,09,2,5,0.616,6,09,-0.130208333,-0.390625,1,0,0,2.087,Pegmatite_rect,6,2.087,1,12,0,12,0,1,,,,,,,,,,,,,
606604f1ca47696cf97529c0,SCR,2024-06-20_16h33.01.213,LearnStrategy,2023.2.3,Win32,60.0240096,8,1,14,-0.565972222,-0.418402778,1,0,0,0.848,Andesite_04,1,04,1,1,0.848,1,04,0.120659722,-0.256944444,1,0,0,4.126,Diorite_rect,3,4.126,0,13,0,13,0,1,,,,,,,,,,,,,
606604f1ca47696cf97529c0,SCR,2024-06-20_16h33.01.213,LearnStrategy,2023.2.3,Win32,60.0240096,8,1,15,0.080729167,0.217013889,1,0,0,0.765,Peridotite_08,7,08,5,5,0.765,7,08,0.130208333,-0.241319444,1,0,0,8.011,Diorite_rect,3,8.011,0,14,0,14,0,1,,,,,,,,,,,,,
606604f1ca47696cf97529c0,SCR,2024-06-20_16h33.01.213,LearnStrategy,2023.2.3,Win32,60.0240096,8,1,16,0.077256944,0.375868056,1,0,0,1.014,Pegmatite_15,6,15,6,5,1.014,6,15,-0.107638889,-0.383680556,1,0,0,2.144,Pegmatite_rect,6,2.144,1,15,0,15,0,1,,,,,,,,,,,,,
606604f1ca47696cf97529c0,SCR,2024-06-20_16h33.01.213,LearnStrategy,2023.2.3,Win32,60.0240096,8,2,1,,,,,,,,1,16,,,,,,,,,,,,,1,1.443,1,,,,,,-0.371527778,-0.269097222,1,0,0,1.443,Andesite_rect,0,0,0,0,1,
606604f1ca47696cf97529c0,SCR,2024-06-20_16h33.01.213,LearnStrategy,2023.2.3,Win32,60.0240096,8,2,2,,,,,,,,3,14,,,,,,,,,,,,,3,1.175,1,,,,,,0.127604167,-0.258680556,1,0,0,1.175,Diorite_rect,1,0,1,0,1,
606604f1ca47696cf97529c0,SCR,2024-06-20_16h33.01.213,LearnStrategy,2023.2.3,Win32,60.0240096,8,2,3,,,,,,,,2,14,,,,,,,,,,,,,4,2.873,0,,,,,,0.420138889,-0.262152778,1,0,0,2.873,Gabbro_rect,2,0,2,0,1,
606604f1ca47696cf97529c0,SCR,2024-06-20_16h33.01.213,LearnStrategy,2023.2.3,Win32,60.0240096,8,2,4,,,,,,,,7,15,,,,,,,,,,,,,7,1.349,1,,,,,,0.090277778,-0.392361111,1,0,0,1.349,Peridotite_rect,3,0,3,0,1,
606604f1ca47696cf97529c0,SCR,2024-06-20_16h33.01.213,LearnStrategy,2023.2.3,Win32,60.0240096,8,2,5,,,,,,,,6,12,,,,,,,,,,,,,6,1.035,1,,,,,,-0.077256944,-0.397569444,1,0,0,1.035,Pegmatite_rect,4,0,4,0,1,
606604f1ca47696cf97529c0,SCR,2024-06-20_16h33.01.213,LearnStrategy,2023.2.3,Win32,60.0240096,8,2,6,,,,,,,,1,09,,,,,,,,,,,,,1,1.247,1,,,,,,-0.390625,-0.261284722,1,0,0,1.247,Andesite_rect,5,0,5,0,1,
606604f1ca47696cf97529c0,SCR,2024-06-20_16h33.01.213,LearnStrategy,2023.2.3,Win32,60.0240096,8,2,7,,,,,,,,4,13,,,,,,,,,,,,,4,1.391,1,,,,,,0.410590278,-0.256944444,1,0,0,1.391,Gabbro_rect,6,0,6,0,1,
606604f1ca47696cf97529c0,SCR,2024-06-20_16h33.01.213,LearnStrategy,2023.2.3,Win32,60.0240096,8,2,8,,,,,,,,6,10,,,,,,,,,,,,,7,2.203,0,,,,,,0.144097222,-0.401909722,1,0,0,2.203,Peridotite_rect,7,0,7,0,1,
606604f1ca47696cf97529c0,SCR,2024-06-20_16h33.01.213,LearnStrategy,2023.2.3,Win32,60.0240096,8,2,9,,,,,,,,5,09,,,,,,,,,,,,,5,1.042,1,,,,,,-0.345486111,-0.4140625,1,0,0,1.042,Obsidian_rect,8,0,8,0,1,
606604f1ca47696cf97529c0,SCR,2024-06-20_16h33.01.213,LearnStrategy,2023.2.3,Win32,60.0240096,8,2,10,,,,,,,,3,15,,,,,,,,,,,,,6,3.03,0,,,,,,-0.0859375,-0.417534722,1,0,0,3.03,Pegmatite_rect,9,0,9,0,1,
606604f1ca47696cf97529c0,SCR,2024-06-20_16h33.01.213,LearnStrategy,2023.2.3,Win32,60.0240096,8,2,11,,,,,,,,8,02,,,,,,,,,,,,,8,1.055,1,,,,,,0.330729167,-0.391493056,1,0,0,1.055,Pumice_rect,10,0,10,0,1,
606604f1ca47696cf97529c0,SCR,2024-06-20_16h33.01.213,LearnStrategy,2023.2.3,Win32,60.0240096,8,2,12,,,,,,,,8,14,,,,,,,,,,,,,8,0.931,1,,,,,,0.439236111,-0.391493056,1,0,0,0.931,Pumice_rect,11,0,11,0,1,
606604f1ca47696cf97529c0,SCR,2024-06-20_16h33.01.213,LearnStrategy,2023.2.3,Win32,60.0240096,8,2,13,,,,,,,,2,06,,,,,,,,,,,,,2,3.496,1,,,,,,-0.1484375,-0.244791667,1,0,0,3.496,Basalt_rect,12,0,12,0,1,
606604f1ca47696cf97529c0,SCR,2024-06-20_16h33.01.213,LearnStrategy,2023.2.3,Win32,60.0240096,8,2,14,,,,,,,,4,01,,,,,,,,,,,,,6,2.796,0,,,,,,-0.116319444,-0.420138889,1,0,0,2.796,Pegmatite_rect,13,0,13,0,1,
606604f1ca47696cf97529c0,SCR,2024-06-20_16h33.01.213,LearnStrategy,2023.2.3,Win32,60.0240096,8,2,15,,,,,,,,5,08,,,,,,,,,,,,,5,4.618,1,,,,,,-0.391493056,-0.417534722,1,0,0,4.618,Obsidian_rect,14,0,14,0,1,
606604f1ca47696cf97529c0,SCR,2024-06-20_16h33.01.213,LearnStrategy,2023.2.3,Win32,60.0240096,8,2,16,,,,,,,,7,16,,,,,,,,,,,,,3,3.072,0,,,,,,0.1328125,-0.258680556,1,0,0,3.072,Diorite_rect,15,0,15,0,1,
606604f1ca47696cf97529c0,SCR,2024-06-20_16h33.01.213,LearnStrategy,2023.2.3,Win32,60.0240096,9,1,1,-0.196180556,0.059895833,1,0,0,0.746,Peridotite_02,7,02,4,3,0.746,7,02,0.111979167,-0.3984375,1,0,0,2.354,Peridotite_rect,7,2.354,1,0,0,0,0,1,,,,,,,,,,,,,
606604f1ca47696cf97529c0,SCR,2024-06-20_16h33.01.213,LearnStrategy,2023.2.3,Win32,60.0240096,9,1,2,-0.247395833,-0.377604167,1,0,0,0.699,Basalt_01,2,01,1,3,0.699,2,01,-0.059895833,-0.263020833,1,0,0,1.157,Basalt_rect,2,1.157,1,1,0,1,0,1,,,,,,,,,,,,,
606604f1ca47696cf97529c0,SCR,2024-06-20_16h33.01.213,LearnStrategy,2023.2.3,Win32,60.0240096,9,1,3,-0.230034722,-0.263020833,1,0,0,0.632,Pegmatite_06,6,06,2,3,0.632,6,06,0.135416667,-0.248263889,1,0,0,1.638,Diorite_rect,3,1.638,0,2,0,2,0,1,,,,,,,,,,,,,
606604f1ca47696cf97529c0,SCR,2024-06-20_16h33.01.213,LearnStrategy,2023.2.3,Win32,60.0240096,9,1,4,-0.032118056,-0.409722222,1,0,0,0.566,Basalt_12,2,12,1,4,0.566,2,12,-0.407118056,-0.241319444,1,0,0,3.3,Andesite_rect,1,3.3,0,3,0,3,0,1,,,,,,,,,,,,,
606604f1ca47696cf97529c0,SCR,2024-06-20_16h33.01.213,LearnStrategy,2023.2.3,Win32,60.0240096,9,1,5,0.2734375,0.230902778,1,0,0,0.933,Pegmatite_11,6,11,5,6,0.933,6,11,-0.139756944,-0.410590278,1,0,0,2.164,Pegmatite_rect,6,2.164,1,4,0,4,0,1,,,,,,,,,,,,,
606604f1ca47696cf97529c0,SCR,2024-06-20_16h33.01.213,LearnStrategy,2023.2.3,Win32,60.0240096,9,1,6,0.388888889,0.077256944,1,0,0,0.834,Pumice_16,8,16,4,7,0.834,8,16,0.400173611,-0.388020833,1,0,0,2.007,Pumice_rect,8,2.007,1,5,0,5,0,1,,,,,,,,,,,,,
606604f1ca47696cf97529c0,SCR,2024-06-20_16h33.01.213,LearnStrategy,2023.2.3,Win32,60.0240096,9,1,7,-0.219618056,0.094618056,1,0,0,0.666,Peridotite_02,7,02,4,3,0.666,7,02,0.168402778,-0.401041667,1,0,0,1.016,Peridotite_rect,7,1.016,1,6,0,6,0,1,,,,,,,,,,,,,
606604f1ca47696cf97529c0,SCR,2024-06-20_16h33.01.213,LearnStrategy,2023.2.3,Win32,60.0240096,9,1,8,0.213541667,0.098090278,1,0,0,0.649,Andesite_14,1,14,4,6,0.649,1,14,-0.375868056,-0.265625,1,0,0,2.127,Andesite_rect,1,2.127,1,7,0,7,0,1,,,,,,,,,,,,,
606604f1ca47696cf97529c0,SCR,2024-06-20_16h33.01.213,LearnStrategy,2023.2.3,Win32,60.0240096,9,1,9,-0.434027778,0.414930556,1,0,0,1.014,Gabbro_05,4,05,6,2,1.014,4,05,-0.111111111,-0.409722222,1,0,0,2.98,Pegmatite_rect,6,2.98,0,8,0,8,0,1,,,,,,,,,,,,,
606604f1ca47696cf97529c0,SCR,2024-06-20_16h33.01.213,LearnStrategy,2023.2.3,Win32,60.0240096,9,1,10,-0.053819444,-0.262152778,1,0,0,0.698,Diorite_13,3,13,2,4,0.698,3,13,0.125868056,-0.258680556,1,0,0,1.377,Diorite_rect,3,1.377,1,9,0,9,0,1,,,,,,,,,,,,,
606604f1ca47696cf97529c0,SCR,2024-06-20_16h33.01.213,LearnStrategy,2023.2.3,Win32,60.0240096,9,1,11,-0.572048611,-0.261284722,1,0,0,0.783,Pegmatite_13,6,13,2,1,0.783,6,13,-0.065104167,-0.394097222,1,0,0,1.529,Pegmatite_rect,6,1.529,1,10,0,10,0,1,,,,,,,,,,,,,
606604f1ca47696cf97529c0,SCR,2024-06-20_16h33.01.213,LearnStrategy,2023.2.3,Win32,60.0240096,9,1,12,0.414930556,0.446180556,1,0,0,0.933,Andesite_06,1,06,6,7,0.933,1,06,-0.3828125,-0.252604167,1,0,0,2.714,Andesite_rect,1,2.714,1,11,0,11,0,1,,,,,,,,,,,,,
606604f1ca47696cf97529c0,SCR,2024-06-20_16h33.01.213,LearnStrategy,2023.2.3,Win32,60.0240096,9,1,13,0.060763889,0.235243056,1,0,0,0.698,Peridotite_08,7,08,5,5,0.698,7,08,0.119791667,-0.396701389,1,0,0,1.681,Peridotite_rect,7,1.681,1,12,0,12,0,1,,,,,,,,,,,,,
606604f1ca47696cf97529c0,SCR,2024-06-20_16h33.01.213,LearnStrategy,2023.2.3,Win32,60.0240096,9,1,14,-0.546006944,0.293402778,1,0,0,0.782,Obsidian_11,5,11,5,1,0.782,5,11,-0.399305556,-0.413194444,1,0,0,0.726,Obsidian_rect,5,0.726,1,13,0,13,0,1,,,,,,,,,,,,,
606604f1ca47696cf97529c0,SCR,2024-06-20_16h33.01.213,LearnStrategy,2023.2.3,Win32,60.0240096,9,1,15,-0.400173611,-0.060763889,1,0,0,0.649,Gabbro_11,4,11,3,2,0.649,4,11,0.381076389,-0.269965278,1,0,0,3.919,Gabbro_rect,4,3.919,1,14,0,14,0,1,,,,,,,,,,,,,
606604f1ca47696cf97529c0,SCR,2024-06-20_16h33.01.213,LearnStrategy,2023.2.3,Win32,60.0240096,9,1,16,-0.401041667,0.210069444,1,0,0,0.948,Diorite_16,3,16,5,2,0.948,3,16,0.128472222,-0.241319444,1,0,0,0.898,Diorite_rect,3,0.898,1,15,0,15,0,1,,,,,,,,,,,,,
606604f1ca47696cf97529c0,SCR,2024-06-20_16h33.01.213,LearnStrategy,2023.2.3,Win32,60.0240096,9,2,1,,,,,,,,1,02,,,,,,,,,,,,,3,4.608,0,,,,,,0.138888889,-0.248263889,1,0,0,4.608,Diorite_rect,0,0,0,0,1,
606604f1ca47696cf97529c0,SCR,2024-06-20_16h33.01.213,LearnStrategy,2023.2.3,Win32,60.0240096,9,2,2,,,,,,,,2,08,,,,,,,,,,,,,2,1.549,1,,,,,,-0.144097222,-0.251736111,1,0,0,1.549,Basalt_rect,1,0,1,0,1,
606604f1ca47696cf97529c0,SCR,2024-06-20_16h33.01.213,LearnStrategy,2023.2.3,Win32,60.0240096,9,2,3,,,,,,,,3,10,,,,,,,,,,,,,3,2.817,1,,,,,,0.137152778,-0.249131944,1,0,0,2.817,Diorite_rect,2,0,2,0,1,
606604f1ca47696cf97529c0,SCR,2024-06-20_16h33.01.213,LearnStrategy,2023.2.3,Win32,60.0240096,9,2,4,,,,,,,,8,06,,,,,,,,,,,,,8,1.174,1,,,,,,0.401041667,-0.388888889,1,0,0,1.174,Pumice_rect,3,0,3,0,1,
606604f1ca47696cf97529c0,SCR,2024-06-20_16h33.01.213,LearnStrategy,2023.2.3,Win32,60.0240096,9,2,5,,,,,,,,3,08,,,,,,,,,,,,,6,2.785,0,,,,,,-0.106770833,-0.405381944,1,0,0,2.785,Pegmatite_rect,4,0,4,0,1,
606604f1ca47696cf97529c0,SCR,2024-06-20_16h33.01.213,LearnStrategy,2023.2.3,Win32,60.0240096,9,2,6,,,,,,,,5,16,,,,,,,,,,,,,5,0.913,1,,,,,,-0.318576389,-0.390625,1,0,0,0.913,Obsidian_rect,5,0,5,0,1,
606604f1ca47696cf97529c0,SCR,2024-06-20_16h33.01.213,LearnStrategy,2023.2.3,Win32,60.0240096,9,2,7,,,,,,,,6,03,,,,,,,,,,,,,6,1.144,1,,,,,,-0.105902778,-0.3984375,1,0,0,1.144,Pegmatite_rect,6,0,6,0,1,
606604f1ca47696cf97529c0,SCR,2024-06-20_16h33.01.213,LearnStrategy,2023.2.3,Win32,60.0240096,9,2,8,,,,,,,,5,05,,,,,,,,,,,,,5,1.098,1,,,,,,-0.401041667,-0.397569444,1,0,0,1.098,Obsidian_rect,7,0,7,0,1,
606604f1ca47696cf97529c0,SCR,2024-06-20_16h33.01.213,LearnStrategy,2023.2.3,Win32,60.0240096,9,2,9,,,,,,,,7,12,,,,,,,,,,,,,7,1.106,1,,,,,,0.108506944,-0.394097222,1,0,0,1.106,Peridotite_rect,8,0,8,0,1,
606604f1ca47696cf97529c0,SCR,2024-06-20_16h33.01.213,LearnStrategy,2023.2.3,Win32,60.0240096,9,2,10,,,,,,,,4,14,,,,,,,,,,,,,4,1.829,1,,,,,,0.369791667,-0.2578125,1,0,0,1.829,Gabbro_rect,9,0,9,0,1,
606604f1ca47696cf97529c0,SCR,2024-06-20_16h33.01.213,LearnStrategy,2023.2.3,Win32,60.0240096,9,2,11,,,,,,,,2,11,,,,,,,,,,,,,1,3.787,0,,,,,,-0.363715278,-0.256944444,1,0,0,3.787,Andesite_rect,10,0,10,0,1,
606604f1ca47696cf97529c0,SCR,2024-06-20_16h33.01.213,LearnStrategy,2023.2.3,Win32,60.0240096,9,2,12,,,,,,,,7,10,,,,,,,,,,,,,7,1.351,1,,,,,,0.165798611,-0.394097222,1,0,0,1.351,Peridotite_rect,11,0,11,0,1,
606604f1ca47696cf97529c0,SCR,2024-06-20_16h33.01.213,LearnStrategy,2023.2.3,Win32,60.0240096,9,2,13,,,,,,,,8,05,,,,,,,,,,,,,8,0.945,1,,,,,,0.387152778,-0.379340278,1,0,0,0.945,Pumice_rect,12,0,12,0,1,
606604f1ca47696cf97529c0,SCR,2024-06-20_16h33.01.213,LearnStrategy,2023.2.3,Win32,60.0240096,9,2,14,,,,,,,,6,07,,,,,,,,,,,,,6,1.733,1,,,,,,-0.158854167,-0.388888889,1,0,0,1.733,Pegmatite_rect,13,0,13,0,1,
606604f1ca47696cf97529c0,SCR,2024-06-20_16h33.01.213,LearnStrategy,2023.2.3,Win32,60.0240096,9,2,15,,,,,,,,1,11,,,,,,,,,,,,,1,2.598,1,,,,,,-0.366319444,-0.259548611,1,0,0,2.598,Andesite_rect,14,0,14,0,1,
606604f1ca47696cf97529c0,SCR,2024-06-20_16h33.01.213,LearnStrategy,2023.2.3,Win32,60.0240096,9,2,16,,,,,,,,4,08,,,,,,,,,,,,,4,1.565,1,,,,,,0.401041667,-0.239583333,1,0,0,1.565,Gabbro_rect,15,0,15,0,1,
606604f1ca47696cf97529c0,SCR,2024-06-20_16h33.01.213,LearnStrategy,2023.2.3,Win32,60.0240096,,,,,,,,,,,,,,,,,,,,,,,,,,,,,,,,,,,,,,,,,,,,,1
606604f1ca47696cf97529c0,SCR,2024-06-20_16h33.01.213,LearnStrategy,2023.2.3,Win32,60.0240096,,,,,,,,,,,,,,,,,,,,,,,,,,,,,,,,,,,,,,,,,,,,,
606604f1ca47696cf97529c0,SCR,2024-06-20_16h33.01.213,LearnStrategy,2023.2.3,Win32,60.0240096,,,,,,,,,,,1,04,1,1,,,,,,,,,,,,,,,,,,,,,,,,,,,,,,,
606604f1ca47696cf97529c0,SCR,2024-06-20_16h33.01.213,LearnStrategy,2023.2.3,Win32,60.0240096,,,,,,,,,,,8,13,1,2,,,,,,,,,,,,,,,,,,,,,,,,,,,,,,,
606604f1ca47696cf97529c0,SCR,2024-06-20_16h33.01.213,LearnStrategy,2023.2.3,Win32,60.0240096,,,,,,,,,,,2,01,1,3,,,,,,,,,,,,,,,,,,,,,,,,,,,,,,,
606604f1ca47696cf97529c0,SCR,2024-06-20_16h33.01.213,LearnStrategy,2023.2.3,Win32,60.0240096,,,,,,,,,,,2,12,1,4,,,,,,,,,,,,,,,,,,,,,,,,,,,,,,,
606604f1ca47696cf97529c0,SCR,2024-06-20_16h33.01.213,LearnStrategy,2023.2.3,Win32,60.0240096,,,,,,,,,,,8,04,1,5,,,,,,,,,,,,,,,,,,,,,,,,,,,,,,,
606604f1ca47696cf97529c0,SCR,2024-06-20_16h33.01.213,LearnStrategy,2023.2.3,Win32,60.0240096,,,,,,,,,,,3,02,1,6,,,,,,,,,,,,,,,,,,,,,,,,,,,,,,,
606604f1ca47696cf97529c0,SCR,2024-06-20_16h33.01.213,LearnStrategy,2023.2.3,Win32,60.0240096,,,,,,,,,,,4,10,1,7,,,,,,,,,,,,,,,,,,,,,,,,,,,,,,,
606604f1ca47696cf97529c0,SCR,2024-06-20_16h33.01.213,LearnStrategy,2023.2.3,Win32,60.0240096,,,,,,,,,,,4,03,1,8,,,,,,,,,,,,,,,,,,,,,,,,,,,,,,,
606604f1ca47696cf97529c0,SCR,2024-06-20_16h33.01.213,LearnStrategy,2023.2.3,Win32,60.0240096,,,,,,,,,,,6,13,2,1,,,,,,,,,,,,,,,,,,,,,,,,,,,,,,,
606604f1ca47696cf97529c0,SCR,2024-06-20_16h33.01.213,LearnStrategy,2023.2.3,Win32,60.0240096,,,,,,,,,,,3,06,2,2,,,,,,,,,,,,,,,,,,,,,,,,,,,,,,,
606604f1ca47696cf97529c0,SCR,2024-06-20_16h33.01.213,LearnStrategy,2023.2.3,Win32,60.0240096,,,,,,,,,,,6,06,2,3,,,,,,,,,,,,,,,,,,,,,,,,,,,,,,,
606604f1ca47696cf97529c0,SCR,2024-06-20_16h33.01.213,LearnStrategy,2023.2.3,Win32,60.0240096,,,,,,,,,,,3,13,2,4,,,,,,,,,,,,,,,,,,,,,,,,,,,,,,,
606604f1ca47696cf97529c0,SCR,2024-06-20_16h33.01.213,LearnStrategy,2023.2.3,Win32,60.0240096,,,,,,,,,,,6,09,2,5,,,,,,,,,,,,,,,,,,,,,,,,,,,,,,,
606604f1ca47696cf97529c0,SCR,2024-06-20_16h33.01.213,LearnStrategy,2023.2.3,Win32,60.0240096,,,,,,,,,,,8,03,2,6,,,,,,,,,,,,,,,,,,,,,,,,,,,,,,,
606604f1ca47696cf97529c0,SCR,2024-06-20_16h33.01.213,LearnStrategy,2023.2.3,Win32,60.0240096,,,,,,,,,,,4,09,2,7,,,,,,,,,,,,,,,,,,,,,,,,,,,,,,,
606604f1ca47696cf97529c0,SCR,2024-06-20_16h33.01.213,LearnStrategy,2023.2.3,Win32,60.0240096,,,,,,,,,,,5,04,2,8,,,,,,,,,,,,,,,,,,,,,,,,,,,,,,,
606604f1ca47696cf97529c0,SCR,2024-06-20_16h33.01.213,LearnStrategy,2023.2.3,Win32,60.0240096,,,,,,,,,,,6,05,3,1,,,,,,,,,,,,,,,,,,,,,,,,,,,,,,,
606604f1ca47696cf97529c0,SCR,2024-06-20_16h33.01.213,LearnStrategy,2023.2.3,Win32,60.0240096,,,,,,,,,,,4,11,3,2,,,,,,,,,,,,,,,,,,,,,,,,,,,,,,,
606604f1ca47696cf97529c0,SCR,2024-06-20_16h33.01.213,LearnStrategy,2023.2.3,Win32,60.0240096,,,,,,,,,,,5,06,3,3,,,,,,,,,,,,,,,,,,,,,,,,,,,,,,,
606604f1ca47696cf97529c0,SCR,2024-06-20_16h33.01.213,LearnStrategy,2023.2.3,Win32,60.0240096,,,,,,,,,,,2,09,3,4,,,,,,,,,,,,,,,,,,,,,,,,,,,,,,,
606604f1ca47696cf97529c0,SCR,2024-06-20_16h33.01.213,LearnStrategy,2023.2.3,Win32,60.0240096,,,,,,,,,,,2,04,3,5,,,,,,,,,,,,,,,,,,,,,,,,,,,,,,,
606604f1ca47696cf97529c0,SCR,2024-06-20_16h33.01.213,LearnStrategy,2023.2.3,Win32,60.0240096,,,,,,,,,,,7,05,3,6,,,,,,,,,,,,,,,,,,,,,,,,,,,,,,,
606604f1ca47696cf97529c0,SCR,2024-06-20_16h33.01.213,LearnStrategy,2023.2.3,Win32,60.0240096,,,,,,,,,,,1,10,3,7,,,,,,,,,,,,,,,,,,,,,,,,,,,,,,,
606604f1ca47696cf97529c0,SCR,2024-06-20_16h33.01.213,LearnStrategy,2023.2.3,Win32,60.0240096,,,,,,,,,,,2,16,3,8,,,,,,,,,,,,,,,,,,,,,,,,,,,,,,,
606604f1ca47696cf97529c0,SCR,2024-06-20_16h33.01.213,LearnStrategy,2023.2.3,Win32,60.0240096,,,,,,,,,,,5,02,4,1,,,,,,,,,,,,,,,,,,,,,,,,,,,,,,,
606604f1ca47696cf97529c0,SCR,2024-06-20_16h33.01.213,LearnStrategy,2023.2.3,Win32,60.0240096,,,,,,,,,,,4,15,4,2,,,,,,,,,,,,,,,,,,,,,,,,,,,,,,,
606604f1ca47696cf97529c0,SCR,2024-06-20_16h33.01.213,LearnStrategy,2023.2.3,Win32,60.0240096,,,,,,,,,,,7,02,4,3,,,,,,,,,,,,,,,,,,,,,,,,,,,,,,,
606604f1ca47696cf97529c0,SCR,2024-06-20_16h33.01.213,LearnStrategy,2023.2.3,Win32,60.0240096,,,,,,,,,,,3,12,4,4,,,,,,,,,,,,,,,,,,,,,,,,,,,,,,,
606604f1ca47696cf97529c0,SCR,2024-06-20_16h33.01.213,LearnStrategy,2023.2.3,Win32,60.0240096,,,,,,,,,,,5,14,4,5,,,,,,,,,,,,,,,,,,,,,,,,,,,,,,,
606604f1ca47696cf97529c0,SCR,2024-06-20_16h33.01.213,LearnStrategy,2023.2.3,Win32,60.0240096,,,,,,,,,,,1,14,4,6,,,,,,,,,,,,,,,,,,,,,,,,,,,,,,,
606604f1ca47696cf97529c0,SCR,2024-06-20_16h33.01.213,LearnStrategy,2023.2.3,Win32,60.0240096,,,,,,,,,,,8,16,4,7,,,,,,,,,,,,,,,,,,,,,,,,,,,,,,,
606604f1ca47696cf97529c0,SCR,2024-06-20_16h33.01.213,LearnStrategy,2023.2.3,Win32,60.0240096,,,,,,,,,,,7,04,4,8,,,,,,,,,,,,,,,,,,,,,,,,,,,,,,,
606604f1ca47696cf97529c0,SCR,2024-06-20_16h33.01.213,LearnStrategy,2023.2.3,Win32,60.0240096,,,,,,,,,,,5,11,5,1,,,,,,,,,,,,,,,,,,,,,,,,,,,,,,,
606604f1ca47696cf97529c0,SCR,2024-06-20_16h33.01.213,LearnStrategy,2023.2.3,Win32,60.0240096,,,,,,,,,,,3,16,5,2,,,,,,,,,,,,,,,,,,,,,,,,,,,,,,,
606604f1ca47696cf97529c0,SCR,2024-06-20_16h33.01.213,LearnStrategy,2023.2.3,Win32,60.0240096,,,,,,,,,,,8,15,5,3,,,,,,,,,,,,,,,,,,,,,,,,,,,,,,,
606604f1ca47696cf97529c0,SCR,2024-06-20_16h33.01.213,LearnStrategy,2023.2.3,Win32,60.0240096,,,,,,,,,,,3,07,5,4,,,,,,,,,,,,,,,,,,,,,,,,,,,,,,,
606604f1ca47696cf97529c0,SCR,2024-06-20_16h33.01.213,LearnStrategy,2023.2.3,Win32,60.0240096,,,,,,,,,,,7,08,5,5,,,,,,,,,,,,,,,,,,,,,,,,,,,,,,,
606604f1ca47696cf97529c0,SCR,2024-06-20_16h33.01.213,LearnStrategy,2023.2.3,Win32,60.0240096,,,,,,,,,,,6,11,5,6,,,,,,,,,,,,,,,,,,,,,,,,,,,,,,,
606604f1ca47696cf97529c0,SCR,2024-06-20_16h33.01.213,LearnStrategy,2023.2.3,Win32,60.0240096,,,,,,,,,,,1,05,5,7,,,,,,,,,,,,,,,,,,,,,,,,,,,,,,,
606604f1ca47696cf97529c0,SCR,2024-06-20_16h33.01.213,LearnStrategy,2023.2.3,Win32,60.0240096,,,,,,,,,,,7,07,5,8,,,,,,,,,,,,,,,,,,,,,,,,,,,,,,,
606604f1ca47696cf97529c0,SCR,2024-06-20_16h33.01.213,LearnStrategy,2023.2.3,Win32,60.0240096,,,,,,,,,,,7,13,6,1,,,,,,,,,,,,,,,,,,,,,,,,,,,,,,,
606604f1ca47696cf97529c0,SCR,2024-06-20_16h33.01.213,LearnStrategy,2023.2.3,Win32,60.0240096,,,,,,,,,,,4,05,6,2,,,,,,,,,,,,,,,,,,,,,,,,,,,,,,,
606604f1ca47696cf97529c0,SCR,2024-06-20_16h33.01.213,LearnStrategy,2023.2.3,Win32,60.0240096,,,,,,,,,,,1,03,6,3,,,,,,,,,,,,,,,,,,,,,,,,,,,,,,,
606604f1ca47696cf97529c0,SCR,2024-06-20_16h33.01.213,LearnStrategy,2023.2.3,Win32,60.0240096,,,,,,,,,,,2,10,6,4,,,,,,,,,,,,,,,,,,,,,,,,,,,,,,,
606604f1ca47696cf97529c0,SCR,2024-06-20_16h33.01.213,LearnStrategy,2023.2.3,Win32,60.0240096,,,,,,,,,,,6,15,6,5,,,,,,,,,,,,,,,,,,,,,,,,,,,,,,,
606604f1ca47696cf97529c0,SCR,2024-06-20_16h33.01.213,LearnStrategy,2023.2.3,Win32,60.0240096,,,,,,,,,,,8,09,6,6,,,,,,,,,,,,,,,,,,,,,,,,,,,,,,,
606604f1ca47696cf97529c0,SCR,2024-06-20_16h33.01.213,LearnStrategy,2023.2.3,Win32,60.0240096,,,,,,,,,,,1,06,6,7,,,,,,,,,,,,,,,,,,,,,,,,,,,,,,,
606604f1ca47696cf97529c0,SCR,2024-06-20_16h33.01.213,LearnStrategy,2023.2.3,Win32,60.0240096,,,,,,,,,,,5,07,6,8,,,,,,,,,,,,,,,,,,,,,,,,,,,,,,,