participant,condition,date,expName,psychopyVersion,OS,frameRate,block,phase,trial,learn_mouse_2.x,learn_mouse_2.y,learn_mouse_2.leftButton,learn_mouse_2.midButton,learn_mouse_2.rightButton,learn_mouse_2.time,learn_mouse_2.clicked_name,cat,token,row,col,t_select,cat_mouse_l.x,cat_mouse_l.y,cat_mouse_l.leftButton,cat_mouse_l.midButton,cat_mouse_l.rightButton,cat_mouse_l.time,cat_mouse_l.clicked_name,resp,t_resp,corr,train_trials.thisRepN,train_trials.thisTrialN,train_trials.thisN,train_trials.thisIndex,train_trials.ran,cat_mouse_t.x,cat_mouse_t.y,cat_mouse_t.leftButton,cat_mouse_t.midButton,cat_mouse_t.rightButton,cat_mouse_t.time,cat_mouse_t.clicked_name,test_trials.thisRepN,test_trials.thisTrialN,test_trials.thisN,test_trials.thisIndex,test_trials.ran,Bonus
6090578fb2299eacaec32b7a,TCR,2024-06-20_13h27.38.006,LearnStrategy,2023.2.3,Win32,163.9344262,,,,,,,,,,,,,,,,,,,,,,,,,,,,,,,,,,,,,,,,,,,
6090578fb2299eacaec32b7a,TCR,2024-06-20_13h27.38.006,LearnStrategy,2023.2.3,Win32,163.9344262,1,1,1,-0.022222222,-0.008333333,1,0,0,3.1749,rock_grid_rect_2,3,15,-1,-1,3.175,0.349074074,-0.250925926,1,0,0,5.3335,Gabbro_rect,4,5.334,0,0,0,0,0,1,,,,,,,,,,,,,
6090578fb2299eacaec32b7a,TCR,2024-06-20_13h27.38.006,LearnStrategy,2023.2.3,Win32,163.9344262,1,1,2,0.05,-0.006481481,1,0,0,1.6858,rock_grid_rect_2,7,10,-1,-1,1.686,-0.192592593,-0.237962963,1,0,0,5.471,Basalt_rect,2,5.471,0,1,0,1,0,1,,,,,,,,,,,,,
6090578fb2299eacaec32b7a,TCR,2024-06-20_13h27.38.006,LearnStrategy,2023.2.3,Win32,163.9344262,1,1,3,0.105555556,-0.006481481,1,0,0,0.794,rock_grid_rect_2,3,10,-1,-1,0.794,0.20462963,-0.262037037,1,0,0,1.9008,Diorite_rect,3,1.901,1,2,0,2,0,1,,,,,,,,,,,,,
6090578fb2299eacaec32b7a,TCR,2024-06-20_13h27.38.006,LearnStrategy,2023.2.3,Win32,163.9344262,1,1,4,0.005555556,-0.015740741,1,0,0,0.9325,rock_grid_rect_2,8,09,-1,-1,0.933,0.337037037,-0.393518519,1,0,0,2.8344,Pumice_rect,8,2.834,1,3,0,3,0,1,,,,,,,,,,,,,
6090578fb2299eacaec32b7a,TCR,2024-06-20_13h27.38.006,LearnStrategy,2023.2.3,Win32,163.9344262,1,1,5,0.02962963,-0.012962963,1,0,0,0.5884,rock_grid_rect_2,8,02,-1,-1,0.588,0.399074074,-0.386111111,1,0,0,1.0867,Pumice_rect,8,1.087,1,4,0,4,0,1,,,,,,,,,,,,,
6090578fb2299eacaec32b7a,TCR,2024-06-20_13h27.38.006,LearnStrategy,2023.2.3,Win32,163.9344262,1,1,6,-0.015740741,-0.009259259,1,0,0,0.532,rock_grid_rect_2,5,14,-1,-1,0.532,-0.318518519,-0.417592593,1,0,0,1.2116,Obsidian_rect,5,1.212,1,5,0,5,0,1,,,,,,,,,,,,,
6090578fb2299eacaec32b7a,TCR,2024-06-20_13h27.38.006,LearnStrategy,2023.2.3,Win32,163.9344262,1,1,7,-0.086111111,-0.012962963,1,0,0,0.7881,rock_grid_rect_2,1,03,-1,-1,0.788,-0.118518519,-0.421296296,1,0,0,3.6099,Pegmatite_rect,6,3.61,0,6,0,6,0,1,,,,,,,,,,,,,
6090578fb2299eacaec32b7a,TCR,2024-06-20_13h27.38.006,LearnStrategy,2023.2.3,Win32,163.9344262,1,1,8,0.121296296,0.017592593,1,0,0,0.7342,rock_grid_rect_2,4,09,-1,-1,0.734,-0.326851852,-0.411111111,1,0,0,1.1306,Obsidian_rect,5,1.131,0,7,0,7,0,1,,,,,,,,,,,,,
6090578fb2299eacaec32b7a,TCR,2024-06-20_13h27.38.006,LearnStrategy,2023.2.3,Win32,163.9344262,1,1,9,-0.024074074,-0.021296296,1,0,0,0.6308,rock_grid_rect_2,5,10,-1,-1,0.631,-0.312962963,-0.414814815,1,0,0,0.9912,Obsidian_rect,5,0.991,1,8,0,8,0,1,,,,,,,,,,,,,
6090578fb2299eacaec32b7a,TCR,2024-06-20_13h27.38.006,LearnStrategy,2023.2.3,Win32,163.9344262,1,1,10,0.032407407,0.021296296,1,0,0,0.5321,rock_grid_rect_2,2,01,-1,-1,0.532,-0.076851852,-0.243518519,1,0,0,4.3509,Basalt_rect,2,4.351,1,9,0,9,0,1,,,,,,,,,,,,,
6090578fb2299eacaec32b7a,TCR,2024-06-20_13h27.38.006,LearnStrategy,2023.2.3,Win32,163.9344262,1,1,11,0.033333333,-0.013888889,1,0,0,2.4441,rock_grid_rect_2,7,07,-1,-1,2.444,0.092592593,-0.42037037,1,0,0,2.0218,Peridotite_rect,7,2.022,1,10,0,10,0,1,,,,,,,,,,,,,
6090578fb2299eacaec32b7a,TCR,2024-06-20_13h27.38.006,LearnStrategy,2023.2.3,Win32,163.9344262,1,1,12,0.008333333,-0.002777778,1,0,0,0.6052,rock_grid_rect_2,4,03,-1,-1,0.605,0.110185185,-0.247222222,1,0,0,2.3918,Diorite_rect,3,2.392,0,11,0,11,0,1,,,,,,,,,,,,,
6090578fb2299eacaec32b7a,TCR,2024-06-20_13h27.38.006,LearnStrategy,2023.2.3,Win32,163.9344262,1,1,13,0.050925926,0.013888889,1,0,0,0.8689,rock_grid_rect_2,6,15,-1,-1,0.869,-0.080555556,-0.401851852,1,0,0,7.5146,Pegmatite_rect,6,7.515,1,12,0,12,0,1,,,,,,,,,,,,,
6090578fb2299eacaec32b7a,TCR,2024-06-20_13h27.38.006,LearnStrategy,2023.2.3,Win32,163.9344262,1,1,14,0.012962963,0.013888889,1,0,0,0.5385,rock_grid_rect_2,1,10,-1,-1,0.538,0.328703704,-0.244444444,1,0,0,4.0292,Gabbro_rect,4,4.029,0,13,0,13,0,1,,,,,,,,,,,,,
6090578fb2299eacaec32b7a,TCR,2024-06-20_13h27.38.006,LearnStrategy,2023.2.3,Win32,163.9344262,1,1,15,0.037962963,-0.018518519,1,0,0,0.6011,rock_grid_rect_2,2,02,-1,-1,0.601,-0.103703704,-0.22962963,1,0,0,2.3733,Basalt_rect,2,2.373,1,14,0,14,0,1,,,,,,,,,,,,,
6090578fb2299eacaec32b7a,TCR,2024-06-20_13h27.38.006,LearnStrategy,2023.2.3,Win32,163.9344262,1,1,16,0.039814815,0.009259259,1,0,0,0.8059,rock_grid_rect_2,6,06,-1,-1,0.806,-0.175925926,-0.393518519,1,0,0,3.9794,Pegmatite_rect,6,3.979,1,15,0,15,0,1,,,,,,,,,,,,,
6090578fb2299eacaec32b7a,TCR,2024-06-20_13h27.38.006,LearnStrategy,2023.2.3,Win32,163.9344262,1,2,1,,,,,,,,7,15,,,,,,,,,,,7,1.506,1,,,,,,0.152777778,-0.401851852,1,0,0,1.5062,Peridotite_rect,0,0,0,0,1,
6090578fb2299eacaec32b7a,TCR,2024-06-20_13h27.38.006,LearnStrategy,2023.2.3,Win32,163.9344262,1,2,2,,,,,,,,6,08,,,,,,,,,,,6,6.776,1,,,,,,-0.091666667,-0.416666667,1,0,0,6.7758,Pegmatite_rect,1,0,1,0,1,
6090578fb2299eacaec32b7a,TCR,2024-06-20_13h27.38.006,LearnStrategy,2023.2.3,Win32,163.9344262,1,2,3,,,,,,,,5,06,,,,,,,,,,,5,2.671,1,,,,,,-0.40462963,-0.419444444,1,0,0,2.6706,Obsidian_rect,2,0,2,0,1,
6090578fb2299eacaec32b7a,TCR,2024-06-20_13h27.38.006,LearnStrategy,2023.2.3,Win32,163.9344262,1,2,4,,,,,,,,8,14,,,,,,,,,,,8,1.045,1,,,,,,0.351851852,-0.401851852,1,0,0,1.0452,Pumice_rect,3,0,3,0,1,
6090578fb2299eacaec32b7a,TCR,2024-06-20_13h27.38.006,LearnStrategy,2023.2.3,Win32,163.9344262,1,2,5,,,,,,,,3,08,,,,,,,,,,,3,4.811,1,,,,,,0.097222222,-0.242592593,1,0,0,4.8109,Diorite_rect,4,0,4,0,1,
6090578fb2299eacaec32b7a,TCR,2024-06-20_13h27.38.006,LearnStrategy,2023.2.3,Win32,163.9344262,1,2,6,,,,,,,,1,06,,,,,,,,,,,1,3.646,1,,,,,,-0.382407407,-0.256481481,1,0,0,3.6463,Andesite_rect,5,0,5,0,1,
6090578fb2299eacaec32b7a,TCR,2024-06-20_13h27.38.006,LearnStrategy,2023.2.3,Win32,163.9344262,1,2,7,,,,,,,,3,02,,,,,,,,,,,3,2.871,1,,,,,,0.143518519,-0.261111111,1,0,0,2.8707,Diorite_rect,6,0,6,0,1,
6090578fb2299eacaec32b7a,TCR,2024-06-20_13h27.38.006,LearnStrategy,2023.2.3,Win32,163.9344262,1,2,8,,,,,,,,4,16,,,,,,,,,,,4,3.15,1,,,,,,0.387962963,-0.251851852,1,0,0,3.1497,Gabbro_rect,7,0,7,0,1,
6090578fb2299eacaec32b7a,TCR,2024-06-20_13h27.38.006,LearnStrategy,2023.2.3,Win32,163.9344262,1,2,9,,,,,,,,2,08,,,,,,,,,,,4,3.404,0,,,,,,0.387962963,-0.252777778,1,0,0,3.4039,Gabbro_rect,8,0,8,0,1,
6090578fb2299eacaec32b7a,TCR,2024-06-20_13h27.38.006,LearnStrategy,2023.2.3,Win32,163.9344262,1,2,10,,,,,,,,6,11,,,,,,,,,,,6,1.433,1,,,,,,-0.169444444,-0.42037037,1,0,0,1.4335,Pegmatite_rect,9,0,9,0,1,
6090578fb2299eacaec32b7a,TCR,2024-06-20_13h27.38.006,LearnStrategy,2023.2.3,Win32,163.9344262,1,2,11,,,,,,,,7,08,,,,,,,,,,,7,1.009,1,,,,,,0.110185185,-0.386111111,1,0,0,1.0095,Peridotite_rect,10,0,10,0,1,
6090578fb2299eacaec32b7a,TCR,2024-06-20_13h27.38.006,LearnStrategy,2023.2.3,Win32,163.9344262,1,2,12,,,,,,,,4,13,,,,,,,,,,,3,3.126,0,,,,,,0.149074074,-0.248148148,1,0,0,3.1255,Diorite_rect,11,0,11,0,1,
6090578fb2299eacaec32b7a,TCR,2024-06-20_13h27.38.006,LearnStrategy,2023.2.3,Win32,163.9344262,1,2,13,,,,,,,,8,03,,,,,,,,,,,8,1.937,1,,,,,,0.378703704,-0.405555556,1,0,0,1.9367,Pumice_rect,12,0,12,0,1,
6090578fb2299eacaec32b7a,TCR,2024-06-20_13h27.38.006,LearnStrategy,2023.2.3,Win32,163.9344262,1,2,14,,,,,,,,5,11,,,,,,,,,,,5,0.991,1,,,,,,-0.364814815,-0.39537037,1,0,0,0.9908,Obsidian_rect,13,0,13,0,1,
6090578fb2299eacaec32b7a,TCR,2024-06-20_13h27.38.006,LearnStrategy,2023.2.3,Win32,163.9344262,1,2,15,,,,,,,,2,09,,,,,,,,,,,2,1.306,1,,,,,,-0.065740741,-0.265740741,1,0,0,1.3064,Basalt_rect,14,0,14,0,1,
6090578fb2299eacaec32b7a,TCR,2024-06-20_13h27.38.006,LearnStrategy,2023.2.3,Win32,163.9344262,1,2,16,,,,,,,,1,05,,,,,,,,,,,1,11.716,1,,,,,,-0.4,-0.243518519,1,0,0,11.7165,Andesite_rect,15,0,15,0,1,
6090578fb2299eacaec32b7a,TCR,2024-06-20_13h27.38.006,LearnStrategy,2023.2.3,Win32,163.9344262,2,1,1,0.119444444,0,1,0,0,2.1205,rock_grid_rect_2,4,09,-1,-1,2.12,0.402777778,-0.234259259,1,0,0,7.7038,Gabbro_rect,4,7.704,1,0,0,0,0,1,,,,,,,,,,,,,
6090578fb2299eacaec32b7a,TCR,2024-06-20_13h27.38.006,LearnStrategy,2023.2.3,Win32,163.9344262,2,1,2,0.010185185,-0.011111111,1,0,0,0.8076,rock_grid_rect_2,1,07,-1,-1,0.808,0.096296296,-0.246296296,1,0,0,2.4745,Diorite_rect,3,2.475,0,1,0,1,0,1,,,,,,,,,,,,,
6090578fb2299eacaec32b7a,TCR,2024-06-20_13h27.38.006,LearnStrategy,2023.2.3,Win32,163.9344262,2,1,3,0.034259259,0.000925926,1,0,0,0.6313,rock_grid_rect_2,6,12,-1,-1,0.631,-0.187037037,-0.25,1,0,0,6.9397,Basalt_rect,2,6.94,0,2,0,2,0,1,,,,,,,,,,,,,
6090578fb2299eacaec32b7a,TCR,2024-06-20_13h27.38.006,LearnStrategy,2023.2.3,Win32,163.9344262,2,1,4,0,0.003703704,1,0,0,0.8554,rock_grid_rect_2,4,14,-1,-1,0.855,0.369444444,-0.248148148,1,0,0,5.7876,Gabbro_rect,4,5.788,1,3,0,3,0,1,,,,,,,,,,,,,
6090578fb2299eacaec32b7a,TCR,2024-06-20_13h27.38.006,LearnStrategy,2023.2.3,Win32,163.9344262,2,1,5,0.022222222,0.011111111,1,0,0,0.6473,rock_grid_rect_2,7,10,-1,-1,0.647,0.15462963,-0.382407407,1,0,0,0.8822,Peridotite_rect,7,0.882,1,4,0,4,0,1,,,,,,,,,,,,,
6090578fb2299eacaec32b7a,TCR,2024-06-20_13h27.38.006,LearnStrategy,2023.2.3,Win32,163.9344262,2,1,6,0.05,0.017592593,1,0,0,0.4898,rock_grid_rect_2,2,01,-1,-1,0.49,-0.065740741,-0.244444444,1,0,0,1.0032,Basalt_rect,2,1.003,1,5,0,5,0,1,,,,,,,,,,,,,
6090578fb2299eacaec32b7a,TCR,2024-06-20_13h27.38.006,LearnStrategy,2023.2.3,Win32,163.9344262,2,1,7,0.002777778,-0.009259259,1,0,0,0.7563,rock_grid_rect_2,4,14,-1,-1,0.756,-0.387962963,-0.259259259,1,0,0,2.1984,Andesite_rect,1,2.198,0,6,0,6,0,1,,,,,,,,,,,,,
6090578fb2299eacaec32b7a,TCR,2024-06-20_13h27.38.006,LearnStrategy,2023.2.3,Win32,163.9344262,2,1,8,-0.027777778,-0.023148148,1,0,0,0.4596,rock_grid_rect_2,5,16,-1,-1,0.46,-0.336111111,-0.39537037,1,0,0,0.8216,Obsidian_rect,5,0.822,1,7,0,7,0,1,,,,,,,,,,,,,
6090578fb2299eacaec32b7a,TCR,2024-06-20_13h27.38.006,LearnStrategy,2023.2.3,Win32,163.9344262,2,1,9,0.042592593,0.015740741,1,0,0,0.5328,rock_grid_rect_2,8,09,-1,-1,0.533,0.386111111,-0.417592593,1,0,0,0.8033,Pumice_rect,8,0.803,1,8,0,8,0,1,,,,,,,,,,,,,
6090578fb2299eacaec32b7a,TCR,2024-06-20_13h27.38.006,LearnStrategy,2023.2.3,Win32,163.9344262,2,1,10,-0.010185185,-0.011111111,1,0,0,0.4172,rock_grid_rect_2,2,04,-1,-1,0.417,-0.105555556,-0.261111111,1,0,0,0.9547,Basalt_rect,2,0.955,1,9,0,9,0,1,,,,,,,,,,,,,
6090578fb2299eacaec32b7a,TCR,2024-06-20_13h27.38.006,LearnStrategy,2023.2.3,Win32,163.9344262,2,1,11,0.007407407,0,1,0,0,0.4172,rock_grid_rect_2,3,15,-1,-1,0.417,0.131481481,-0.238888889,1,0,0,1.8158,Diorite_rect,3,1.816,1,10,0,10,0,1,,,,,,,,,,,,,
6090578fb2299eacaec32b7a,TCR,2024-06-20_13h27.38.006,LearnStrategy,2023.2.3,Win32,163.9344262,2,1,12,0.083333333,0.000925926,1,0,0,0.7328,rock_grid_rect_2,4,03,-1,-1,0.733,-0.37037037,-0.244444444,1,0,0,2.2037,Andesite_rect,1,2.204,0,11,0,11,0,1,,,,,,,,,,,,,
6090578fb2299eacaec32b7a,TCR,2024-06-20_13h27.38.006,LearnStrategy,2023.2.3,Win32,163.9344262,2,1,13,0.074074074,-0.007407407,1,0,0,0.8377,rock_grid_rect_2,2,01,-1,-1,0.838,-0.109259259,-0.24537037,1,0,0,0.9483,Basalt_rect,2,0.948,1,12,0,12,0,1,,,,,,,,,,,,,
6090578fb2299eacaec32b7a,TCR,2024-06-20_13h27.38.006,LearnStrategy,2023.2.3,Win32,163.9344262,2,1,14,-0.013888889,0.005555556,1,0,0,0.4778,rock_grid_rect_2,4,01,-1,-1,0.478,0.10462963,-0.412037037,1,0,0,1.6276,Peridotite_rect,7,1.628,0,13,0,13,0,1,,,,,,,,,,,,,
6090578fb2299eacaec32b7a,TCR,2024-06-20_13h27.38.006,LearnStrategy,2023.2.3,Win32,163.9344262,2,1,15,0.007407407,0.002777778,1,0,0,0.704,rock_grid_rect_2,2,02,-1,-1,0.704,-0.081481481,-0.232407407,1,0,0,1.1005,Basalt_rect,2,1.101,1,14,0,14,0,1,,,,,,,,,,,,,
6090578fb2299eacaec32b7a,TCR,2024-06-20_13h27.38.006,LearnStrategy,2023.2.3,Win32,163.9344262,2,1,16,-0.005555556,-0.016666667,1,0,0,0.4475,rock_grid_rect_2,2,11,-1,-1,0.447,-0.130555556,-0.240740741,1,0,0,3.2468,Basalt_rect,2,3.247,1,15,0,15,0,1,,,,,,,,,,,,,
6090578fb2299eacaec32b7a,TCR,2024-06-20_13h27.38.006,LearnStrategy,2023.2.3,Win32,163.9344262,2,2,1,,,,,,,,3,12,,,,,,,,,,,3,3.119,1,,,,,,0.167592593,-0.262037037,1,0,0,3.1191,Diorite_rect,0,0,0,0,1,
6090578fb2299eacaec32b7a,TCR,2024-06-20_13h27.38.006,LearnStrategy,2023.2.3,Win32,163.9344262,2,2,2,,,,,,,,1,16,,,,,,,,,,,1,10.076,1,,,,,,-0.338888889,-0.264814815,1,0,0,10.0756,Andesite_rect,1,0,1,0,1,
6090578fb2299eacaec32b7a,TCR,2024-06-20_13h27.38.006,LearnStrategy,2023.2.3,Win32,163.9344262,2,2,3,,,,,,,,7,02,,,,,,,,,,,7,1.19,1,,,,,,0.116666667,-0.398148148,1,0,0,1.1904,Peridotite_rect,2,0,2,0,1,
6090578fb2299eacaec32b7a,TCR,2024-06-20_13h27.38.006,LearnStrategy,2023.2.3,Win32,163.9344262,2,2,4,,,,,,,,4,11,,,,,,,,,,,2,3.883,0,,,,,,-0.166666667,-0.243518519,1,0,0,3.8832,Basalt_rect,3,0,3,0,1,
6090578fb2299eacaec32b7a,TCR,2024-06-20_13h27.38.006,LearnStrategy,2023.2.3,Win32,163.9344262,2,2,5,,,,,,,,6,07,,,,,,,,,,,6,0.865,1,,,,,,-0.107407407,-0.410185185,1,0,0,0.8652,Pegmatite_rect,4,0,4,0,1,
6090578fb2299eacaec32b7a,TCR,2024-06-20_13h27.38.006,LearnStrategy,2023.2.3,Win32,163.9344262,2,2,6,,,,,,,,8,08,,,,,,,,,,,8,1.051,1,,,,,,0.430555556,-0.398148148,1,0,0,1.0511,Pumice_rect,5,0,5,0,1,
6090578fb2299eacaec32b7a,TCR,2024-06-20_13h27.38.006,LearnStrategy,2023.2.3,Win32,163.9344262,2,2,7,,,,,,,,2,16,,,,,,,,,,,4,1.937,0,,,,,,0.380555556,-0.257407407,1,0,0,1.9367,Gabbro_rect,6,0,6,0,1,
6090578fb2299eacaec32b7a,TCR,2024-06-20_13h27.38.006,LearnStrategy,2023.2.3,Win32,163.9344262,2,2,8,,,,,,,,8,06,,,,,,,,,,,8,3.283,1,,,,,,0.448148148,-0.410185185,1,0,0,3.2828,Pumice_rect,7,0,7,0,1,
6090578fb2299eacaec32b7a,TCR,2024-06-20_13h27.38.006,LearnStrategy,2023.2.3,Win32,163.9344262,2,2,9,,,,,,,,5,12,,,,,,,,,,,5,0.857,1,,,,,,-0.39537037,-0.400925926,1,0,0,0.8575,Obsidian_rect,8,0,8,0,1,
6090578fb2299eacaec32b7a,TCR,2024-06-20_13h27.38.006,LearnStrategy,2023.2.3,Win32,163.9344262,2,2,10,,,,,,,,5,07,,,,,,,,,,,5,1.461,1,,,,,,-0.373148148,-0.394444444,1,0,0,1.461,Obsidian_rect,9,0,9,0,1,
6090578fb2299eacaec32b7a,TCR,2024-06-20_13h27.38.006,LearnStrategy,2023.2.3,Win32,163.9344262,2,2,11,,,,,,,,4,10,,,,,,,,,,,4,2.913,1,,,,,,0.431481481,-0.241666667,1,0,0,2.9131,Gabbro_rect,10,0,10,0,1,
6090578fb2299eacaec32b7a,TCR,2024-06-20_13h27.38.006,LearnStrategy,2023.2.3,Win32,163.9344262,2,2,12,,,,,,,,7,13,,,,,,,,,,,7,1.058,1,,,,,,0.158333333,-0.42037037,1,0,0,1.0577,Peridotite_rect,11,0,11,0,1,
6090578fb2299eacaec32b7a,TCR,2024-06-20_13h27.38.006,LearnStrategy,2023.2.3,Win32,163.9344262,2,2,13,,,,,,,,3,13,,,,,,,,,,,3,1.421,1,,,,,,0.091666667,-0.252777778,1,0,0,1.4214,Diorite_rect,12,0,12,0,1,
6090578fb2299eacaec32b7a,TCR,2024-06-20_13h27.38.006,LearnStrategy,2023.2.3,Win32,163.9344262,2,2,14,,,,,,,,6,05,,,,,,,,,,,6,17.551,1,,,,,,-0.15462963,-0.393518519,1,0,0,17.5507,Pegmatite_rect,13,0,13,0,1,
6090578fb2299eacaec32b7a,TCR,2024-06-20_13h27.38.006,LearnStrategy,2023.2.3,Win32,163.9344262,2,2,15,,,,,,,,1,14,,,,,,,,,,,4,3.441,0,,,,,,0.365740741,-0.243518519,1,0,0,3.4409,Gabbro_rect,14,0,14,0,1,
6090578fb2299eacaec32b7a,TCR,2024-06-20_13h27.38.006,LearnStrategy,2023.2.3,Win32,163.9344262,2,2,16,,,,,,,,2,12,,,,,,,,,,,2,1.821,1,,,,,,-0.143518519,-0.258333333,1,0,0,1.8212,Basalt_rect,15,0,15,0,1,
6090578fb2299eacaec32b7a,TCR,2024-06-20_13h27.38.006,LearnStrategy,2023.2.3,Win32,163.9344262,3,1,1,0.052777778,-0.009259259,1,0,0,4.0438,rock_grid_rect_2,1,10,-1,-1,4.044,-0.075,-0.237037037,1,0,0,1.058,Basalt_rect,2,1.058,0,0,0,0,0,1,,,,,,,,,,,,,
6090578fb2299eacaec32b7a,TCR,2024-06-20_13h27.38.006,LearnStrategy,2023.2.3,Win32,163.9344262,3,1,2,0.064814815,0.000925926,1,0,0,0.5767,rock_grid_rect_2,2,02,-1,-1,0.577,-0.078703704,-0.262962963,1,0,0,1.4158,Basalt_rect,2,1.416,1,1,0,1,0,1,,,,,,,,,,,,,
6090578fb2299eacaec32b7a,TCR,2024-06-20_13h27.38.006,LearnStrategy,2023.2.3,Win32,163.9344262,3,1,3,-0.058333333,-0.011111111,1,0,0,0.9145,rock_grid_rect_2,2,14,-1,-1,0.914,-0.093518519,-0.252777778,1,0,0,2.9496,Basalt_rect,2,2.95,1,2,0,2,0,1,,,,,,,,,,,,,
6090578fb2299eacaec32b7a,TCR,2024-06-20_13h27.38.006,LearnStrategy,2023.2.3,Win32,163.9344262,3,1,4,0.028703704,-0.006481481,1,0,0,0.6113,rock_grid_rect_2,4,09,-1,-1,0.611,0.351851852,-0.261111111,1,0,0,1.6589,Gabbro_rect,4,1.659,1,3,0,3,0,1,,,,,,,,,,,,,
6090578fb2299eacaec32b7a,TCR,2024-06-20_13h27.38.006,LearnStrategy,2023.2.3,Win32,163.9344262,3,1,5,0.089814815,0,1,0,0,0.7333,rock_grid_rect_2,6,03,-1,-1,0.733,-0.059259259,-0.413888889,1,0,0,0.9548,Pegmatite_rect,6,0.955,1,4,0,4,0,1,,,,,,,,,,,,,
6090578fb2299eacaec32b7a,TCR,2024-06-20_13h27.38.006,LearnStrategy,2023.2.3,Win32,163.9344262,3,1,6,0.053703704,-0.005555556,1,0,0,0.4597,rock_grid_rect_2,1,07,-1,-1,0.46,0.475925926,-0.258333333,1,0,0,2.6466,Gabbro_rect,4,2.647,0,5,0,5,0,1,,,,,,,,,,,,,
6090578fb2299eacaec32b7a,TCR,2024-06-20_13h27.38.006,LearnStrategy,2023.2.3,Win32,163.9344262,3,1,7,0.062037037,-0.005555556,1,0,0,0.769,rock_grid_rect_2,1,11,-1,-1,0.769,-0.350925926,-0.253703704,1,0,0,4.4547,Andesite_rect,1,4.455,1,6,0,6,0,1,,,,,,,,,,,,,
6090578fb2299eacaec32b7a,TCR,2024-06-20_13h27.38.006,LearnStrategy,2023.2.3,Win32,163.9344262,3,1,8,-0.012962963,-0.025,1,0,0,0.5445,rock_grid_rect_2,4,03,-1,-1,0.544,0.187037037,-0.231481481,1,0,0,1.4945,Diorite_rect,3,1.495,0,7,0,7,0,1,,,,,,,,,,,,,
6090578fb2299eacaec32b7a,TCR,2024-06-20_13h27.38.006,LearnStrategy,2023.2.3,Win32,163.9344262,3,1,9,0.074074074,-0.001851852,1,0,0,0.8031,rock_grid_rect_2,5,09,-1,-1,0.803,-0.362962963,-0.40462963,1,0,0,0.8599,Obsidian_rect,5,0.86,1,8,0,8,0,1,,,,,,,,,,,,,
6090578fb2299eacaec32b7a,TCR,2024-06-20_13h27.38.006,LearnStrategy,2023.2.3,Win32,163.9344262,3,1,10,0.068518519,0.009259259,1,0,0,0.7507,rock_grid_rect_2,2,11,-1,-1,0.751,-0.082407407,-0.249074074,1,0,0,0.9365,Basalt_rect,2,0.937,1,9,0,9,0,1,,,,,,,,,,,,,
6090578fb2299eacaec32b7a,TCR,2024-06-20_13h27.38.006,LearnStrategy,2023.2.3,Win32,163.9344262,3,1,11,0.025925926,0.005555556,1,0,0,0.4233,rock_grid_rect_2,2,05,-1,-1,0.423,0.37037037,-0.248148148,1,0,0,1.8266,Gabbro_rect,4,1.827,0,10,0,10,0,1,,,,,,,,,,,,,
6090578fb2299eacaec32b7a,TCR,2024-06-20_13h27.38.006,LearnStrategy,2023.2.3,Win32,163.9344262,3,1,12,0.056481481,-0.005555556,1,0,0,0.4474,rock_grid_rect_2,8,09,-1,-1,0.447,0.374074074,-0.391666667,1,0,0,0.7849,Pumice_rect,8,0.785,1,11,0,11,0,1,,,,,,,,,,,,,
6090578fb2299eacaec32b7a,TCR,2024-06-20_13h27.38.006,LearnStrategy,2023.2.3,Win32,163.9344262,3,1,13,0.016666667,-0.013888889,1,0,0,0.4778,rock_grid_rect_2,4,08,-1,-1,0.478,0.405555556,-0.243518519,1,0,0,3.8954,Gabbro_rect,4,3.895,1,12,0,12,0,1,,,,,,,,,,,,,
6090578fb2299eacaec32b7a,TCR,2024-06-20_13h27.38.006,LearnStrategy,2023.2.3,Win32,163.9344262,3,1,14,0.02037037,-0.023148148,1,0,0,0.4961,rock_grid_rect_2,3,10,-1,-1,0.496,0.125,-0.264814815,1,0,0,1.0701,Diorite_rect,3,1.07,1,13,0,13,0,1,,,,,,,,,,,,,
6090578fb2299eacaec32b7a,TCR,2024-06-20_13h27.38.006,LearnStrategy,2023.2.3,Win32,163.9344262,3,1,15,0.030555556,-0.023148148,1,0,0,0.4613,rock_grid_rect_2,4,01,-1,-1,0.461,0.327777778,-0.237962963,1,0,0,4.0068,Gabbro_rect,4,4.007,1,14,0,14,0,1,,,,,,,,,,,,,
6090578fb2299eacaec32b7a,TCR,2024-06-20_13h27.38.006,LearnStrategy,2023.2.3,Win32,163.9344262,3,1,16,0.048148148,-0.012037037,1,0,0,0.4353,rock_grid_rect_2,7,12,-1,-1,0.435,0.110185185,-0.415740741,1,0,0,1.2943,Peridotite_rect,7,1.294,1,15,0,15,0,1,,,,,,,,,,,,,
6090578fb2299eacaec32b7a,TCR,2024-06-20_13h27.38.006,LearnStrategy,2023.2.3,Win32,163.9344262,3,2,1,,,,,,,,3,16,,,,,,,,,,,3,4.653,1,,,,,,0.07037037,-0.234259259,1,0,0,4.6533,Diorite_rect,0,0,0,0,1,
6090578fb2299eacaec32b7a,TCR,2024-06-20_13h27.38.006,LearnStrategy,2023.2.3,Win32,163.9344262,3,2,2,,,,,,,,8,04,,,,,,,,,,,8,0.966,1,,,,,,0.407407407,-0.418518519,1,0,0,0.9663,Pumice_rect,1,0,1,0,1,
6090578fb2299eacaec32b7a,TCR,2024-06-20_13h27.38.006,LearnStrategy,2023.2.3,Win32,163.9344262,3,2,3,,,,,,,,7,06,,,,,,,,,,,7,1.342,1,,,,,,0.12037037,-0.401851852,1,0,0,1.3423,Peridotite_rect,2,0,2,0,1,
6090578fb2299eacaec32b7a,TCR,2024-06-20_13h27.38.006,LearnStrategy,2023.2.3,Win32,163.9344262,3,2,4,,,,,,,,8,05,,,,,,,,,,,8,2.422,1,,,,,,0.374074074,-0.407407407,1,0,0,2.4216,Pumice_rect,3,0,3,0,1,
6090578fb2299eacaec32b7a,TCR,2024-06-20_13h27.38.006,LearnStrategy,2023.2.3,Win32,163.9344262,3,2,5,,,,,,,,6,16,,,,,,,,,,,6,3.629,1,,,,,,-0.100925926,-0.4,1,0,0,3.6286,Pegmatite_rect,4,0,4,0,1,
6090578fb2299eacaec32b7a,TCR,2024-06-20_13h27.38.006,LearnStrategy,2023.2.3,Win32,163.9344262,3,2,6,,,,,,,,2,06,,,,,,,,,,,2,1.761,1,,,,,,-0.109259259,-0.244444444,1,0,0,1.7608,Basalt_rect,5,0,5,0,1,
6090578fb2299eacaec32b7a,TCR,2024-06-20_13h27.38.006,LearnStrategy,2023.2.3,Win32,163.9344262,3,2,7,,,,,,,,4,12,,,,,,,,,,,1,3.974,0,,,,,,-0.396296296,-0.255555556,1,0,0,3.9745,Andesite_rect,6,0,6,0,1,
6090578fb2299eacaec32b7a,TCR,2024-06-20_13h27.38.006,LearnStrategy,2023.2.3,Win32,163.9344262,3,2,8,,,,,,,,7,16,,,,,,,,,,,1,7.825,0,,,,,,-0.406481481,-0.238888889,1,0,0,7.8247,Andesite_rect,7,0,7,0,1,
6090578fb2299eacaec32b7a,TCR,2024-06-20_13h27.38.006,LearnStrategy,2023.2.3,Win32,163.9344262,3,2,9,,,,,,,,1,09,,,,,,,,,,,2,1.142,0,,,,,,-0.108333333,-0.242592593,1,0,0,1.1424,Basalt_rect,8,0,8,0,1,
6090578fb2299eacaec32b7a,TCR,2024-06-20_13h27.38.006,LearnStrategy,2023.2.3,Win32,163.9344262,3,2,10,,,,,,,,3,06,,,,,,,,,,,3,4.408,1,,,,,,0.108333333,-0.255555556,1,0,0,4.4078,Diorite_rect,9,0,9,0,1,
6090578fb2299eacaec32b7a,TCR,2024-06-20_13h27.38.006,LearnStrategy,2023.2.3,Win32,163.9344262,3,2,11,,,,,,,,1,04,,,,,,,,,,,1,1.642,1,,,,,,-0.32962963,-0.25,1,0,0,1.6418,Andesite_rect,10,0,10,0,1,
6090578fb2299eacaec32b7a,TCR,2024-06-20_13h27.38.006,LearnStrategy,2023.2.3,Win32,163.9344262,3,2,12,,,,,,,,5,08,,,,,,,,,,,5,0.773,1,,,,,,-0.387037037,-0.406481481,1,0,0,0.7728,Obsidian_rect,11,0,11,0,1,
6090578fb2299eacaec32b7a,TCR,2024-06-20_13h27.38.006,LearnStrategy,2023.2.3,Win32,163.9344262,3,2,13,,,,,,,,5,02,,,,,,,,,,,5,0.585,1,,,,,,-0.387037037,-0.405555556,1,0,0,0.585,Obsidian_rect,12,0,12,0,1,
6090578fb2299eacaec32b7a,TCR,2024-06-20_13h27.38.006,LearnStrategy,2023.2.3,Win32,163.9344262,3,2,14,,,,,,,,4,15,,,,,,,,,,,4,2.913,1,,,,,,0.358333333,-0.236111111,1,0,0,2.9133,Gabbro_rect,13,0,13,0,1,
6090578fb2299eacaec32b7a,TCR,2024-06-20_13h27.38.006,LearnStrategy,2023.2.3,Win32,163.9344262,3,2,15,,,,,,,,6,09,,,,,,,,,,,7,2.297,0,,,,,,0.077777778,-0.415740741,1,0,0,2.2965,Peridotite_rect,14,0,14,0,1,
6090578fb2299eacaec32b7a,TCR,2024-06-20_13h27.38.006,LearnStrategy,2023.2.3,Win32,163.9344262,3,2,16,,,,,,,,2,10,,,,,,,,,,,2,3.58,1,,,,,,-0.132407407,-0.25,1,0,0,3.5803,Basalt_rect,15,0,15,0,1,
6090578fb2299eacaec32b7a,TCR,2024-06-20_13h27.38.006,LearnStrategy,2023.2.3,Win32,163.9344262,4,1,1,0.067592593,-0.002777778,1,0,0,0.9571,rock_grid_rect_2,1,11,-1,-1,0.957,-0.321296296,-0.252777778,1,0,0,2.1968,Andesite_rect,1,2.197,1,0,0,0,0,1,,,,,,,,,,,,,
6090578fb2299eacaec32b7a,TCR,2024-06-20_13h27.38.006,LearnStrategy,2023.2.3,Win32,163.9344262,4,1,2,0.021296296,0.001851852,1,0,0,0.8174,rock_grid_rect_2,2,04,-1,-1,0.817,-0.091666667,-0.251851852,1,0,0,0.6996,Basalt_rect,2,0.7,1,1,0,1,0,1,,,,,,,,,,,,,
6090578fb2299eacaec32b7a,TCR,2024-06-20_13h27.38.006,LearnStrategy,2023.2.3,Win32,163.9344262,4,1,3,-0.005555556,-0.007407407,1,0,0,0.4965,rock_grid_rect_2,4,03,-1,-1,0.496,0.369444444,-0.241666667,1,0,0,0.8761,Gabbro_rect,4,0.876,1,2,0,2,0,1,,,,,,,,,,,,,
6090578fb2299eacaec32b7a,TCR,2024-06-20_13h27.38.006,LearnStrategy,2023.2.3,Win32,163.9344262,4,1,4,0.064814815,0.008333333,1,0,0,0.4353,rock_grid_rect_2,4,05,-1,-1,0.435,0.362962963,-0.25462963,1,0,0,2.7316,Gabbro_rect,4,2.732,1,3,0,3,0,1,,,,,,,,,,,,,
6090578fb2299eacaec32b7a,TCR,2024-06-20_13h27.38.006,LearnStrategy,2023.2.3,Win32,163.9344262,4,1,5,0.067592593,0.006481481,1,0,0,0.496,rock_grid_rect_2,3,10,-1,-1,0.496,0.112962963,-0.235185185,1,0,0,0.9913,Diorite_rect,3,0.991,1,4,0,4,0,1,,,,,,,,,,,,,
6090578fb2299eacaec32b7a,TCR,2024-06-20_13h27.38.006,LearnStrategy,2023.2.3,Win32,163.9344262,4,1,6,0.02037037,-0.010185185,1,0,0,0.4234,rock_grid_rect_2,6,13,-1,-1,0.423,-0.335185185,-0.248148148,1,0,0,1.828,Andesite_rect,1,1.828,0,5,0,5,0,1,,,,,,,,,,,,,
6090578fb2299eacaec32b7a,TCR,2024-06-20_13h27.38.006,LearnStrategy,2023.2.3,Win32,163.9344262,4,1,7,0.02037037,-0.00462963,1,0,0,0.4598,rock_grid_rect_2,6,10,-1,-1,0.46,0.076851852,-0.37962963,1,0,0,2.501,Peridotite_rect,7,2.501,0,6,0,6,0,1,,,,,,,,,,,,,
6090578fb2299eacaec32b7a,TCR,2024-06-20_13h27.38.006,LearnStrategy,2023.2.3,Win32,163.9344262,4,1,8,0.022222222,-0.018518519,1,0,0,0.4232,rock_grid_rect_2,7,04,-1,-1,0.423,-0.32962963,-0.260185185,1,0,0,2.4222,Andesite_rect,1,2.422,0,7,0,7,0,1,,,,,,,,,,,,,
6090578fb2299eacaec32b7a,TCR,2024-06-20_13h27.38.006,LearnStrategy,2023.2.3,Win32,163.9344262,4,1,9,0.035185185,-0.009259259,1,0,0,0.4678,rock_grid_rect_2,4,09,-1,-1,0.468,0.350925926,-0.247222222,1,0,0,1.4156,Gabbro_rect,4,1.416,1,8,0,8,0,1,,,,,,,,,,,,,
6090578fb2299eacaec32b7a,TCR,2024-06-20_13h27.38.006,LearnStrategy,2023.2.3,Win32,163.9344262,4,1,10,0.049074074,0.015740741,1,0,0,0.4354,rock_grid_rect_2,1,11,-1,-1,0.435,-0.423148148,-0.251851852,1,0,0,2.8475,Andesite_rect,1,2.848,1,9,0,9,0,1,,,,,,,,,,,,,
6090578fb2299eacaec32b7a,TCR,2024-06-20_13h27.38.006,LearnStrategy,2023.2.3,Win32,163.9344262,4,1,11,0.027777778,0.005555556,1,0,0,0.4113,rock_grid_rect_2,8,16,-1,-1,0.411,0.4,-0.415740741,1,0,0,1.0622,Pumice_rect,8,1.062,1,10,0,10,0,1,,,,,,,,,,,,,
6090578fb2299eacaec32b7a,TCR,2024-06-20_13h27.38.006,LearnStrategy,2023.2.3,Win32,163.9344262,4,1,12,-0.022222222,-0.012037037,1,0,0,0.3866,rock_grid_rect_2,1,03,-1,-1,0.387,0.341666667,-0.234259259,1,0,0,2.7255,Gabbro_rect,4,2.726,0,11,0,11,0,1,,,,,,,,,,,,,
6090578fb2299eacaec32b7a,TCR,2024-06-20_13h27.38.006,LearnStrategy,2023.2.3,Win32,163.9344262,4,1,13,0.044444444,-0.005555556,1,0,0,0.3989,rock_grid_rect_2,4,14,-1,-1,0.399,0.372222222,-0.260185185,1,0,0,3.2286,Gabbro_rect,4,3.229,1,12,0,12,0,1,,,,,,,,,,,,,
6090578fb2299eacaec32b7a,TCR,2024-06-20_13h27.38.006,LearnStrategy,2023.2.3,Win32,163.9344262,4,1,14,0.04537037,0.000925926,1,0,0,0.3747,rock_grid_rect_2,7,07,-1,-1,0.375,0.144444444,-0.414814815,1,0,0,1.0761,Peridotite_rect,7,1.076,1,13,0,13,0,1,,,,,,,,,,,,,
6090578fb2299eacaec32b7a,TCR,2024-06-20_13h27.38.006,LearnStrategy,2023.2.3,Win32,163.9344262,4,1,15,0.034259259,-0.010185185,1,0,0,0.702,rock_grid_rect_2,2,02,-1,-1,0.702,-0.102777778,-0.259259259,1,0,0,0.9669,Basalt_rect,2,0.967,1,14,0,14,0,1,,,,,,,,,,,,,
6090578fb2299eacaec32b7a,TCR,2024-06-20_13h27.38.006,LearnStrategy,2023.2.3,Win32,163.9344262,4,1,16,0,-0.010185185,1,0,0,0.387,rock_grid_rect_2,5,16,-1,-1,0.387,-0.328703704,-0.410185185,1,0,0,0.8639,Obsidian_rect,5,0.864,1,15,0,15,0,1,,,,,,,,,,,,,
6090578fb2299eacaec32b7a,TCR,2024-06-20_13h27.38.006,LearnStrategy,2023.2.3,Win32,163.9344262,4,2,1,,,,,,,,7,08,,,,,,,,,,,7,1.27,1,,,,,,0.153703704,-0.401851852,1,0,0,1.27,Peridotite_rect,0,0,0,0,1,
6090578fb2299eacaec32b7a,TCR,2024-06-20_13h27.38.006,LearnStrategy,2023.2.3,Win32,163.9344262,4,2,2,,,,,,,,1,16,,,,,,,,,,,1,4.217,1,,,,,,-0.360185185,-0.237962963,1,0,0,4.217,Andesite_rect,1,0,1,0,1,
6090578fb2299eacaec32b7a,TCR,2024-06-20_13h27.38.006,LearnStrategy,2023.2.3,Win32,163.9344262,4,2,3,,,,,,,,2,09,,,,,,,,,,,2,0.997,1,,,,,,-0.149074074,-0.248148148,1,0,0,0.9972,Basalt_rect,2,0,2,0,1,
6090578fb2299eacaec32b7a,TCR,2024-06-20_13h27.38.006,LearnStrategy,2023.2.3,Win32,163.9344262,4,2,4,,,,,,,,3,12,,,,,,,,,,,3,3.619,1,,,,,,0.15,-0.250925926,1,0,0,3.6188,Diorite_rect,3,0,3,0,1,
6090578fb2299eacaec32b7a,TCR,2024-06-20_13h27.38.006,LearnStrategy,2023.2.3,Win32,163.9344262,4,2,5,,,,,,,,4,15,,,,,,,,,,,3,2.659,0,,,,,,0.15,-0.250925926,1,0,0,2.6588,Diorite_rect,4,0,4,0,1,
6090578fb2299eacaec32b7a,TCR,2024-06-20_13h27.38.006,LearnStrategy,2023.2.3,Win32,163.9344262,4,2,6,,,,,,,,2,10,,,,,,,,,,,2,1.149,1,,,,,,-0.09537037,-0.255555556,1,0,0,1.1487,Basalt_rect,5,0,5,0,1,
6090578fb2299eacaec32b7a,TCR,2024-06-20_13h27.38.006,LearnStrategy,2023.2.3,Win32,163.9344262,4,2,7,,,,,,,,8,03,,,,,,,,,,,8,0.888,1,,,,,,0.39537037,-0.39537037,1,0,0,0.8879,Pumice_rect,6,0,6,0,1,
6090578fb2299eacaec32b7a,TCR,2024-06-20_13h27.38.006,LearnStrategy,2023.2.3,Win32,163.9344262,4,2,8,,,,,,,,6,08,,,,,,,,,,,6,5.951,1,,,,,,-0.077777778,-0.394444444,1,0,0,5.9509,Pegmatite_rect,7,0,7,0,1,
6090578fb2299eacaec32b7a,TCR,2024-06-20_13h27.38.006,LearnStrategy,2023.2.3,Win32,163.9344262,4,2,9,,,,,,,,1,05,,,,,,,,,,,1,4.656,1,,,,,,-0.35,-0.242592593,1,0,0,4.6559,Andesite_rect,8,0,8,0,1,
6090578fb2299eacaec32b7a,TCR,2024-06-20_13h27.38.006,LearnStrategy,2023.2.3,Win32,163.9344262,4,2,10,,,,,,,,3,06,,,,,,,,,,,4,2.307,0,,,,,,0.402777778,-0.253703704,1,0,0,2.3068,Gabbro_rect,9,0,9,0,1,
6090578fb2299eacaec32b7a,TCR,2024-06-20_13h27.38.006,LearnStrategy,2023.2.3,Win32,163.9344262,4,2,11,,,,,,,,5,08,,,,,,,,,,,5,0.833,1,,,,,,-0.464814815,-0.387962963,1,0,0,0.8332,Obsidian_rect,10,0,10,0,1,
6090578fb2299eacaec32b7a,TCR,2024-06-20_13h27.38.006,LearnStrategy,2023.2.3,Win32,163.9344262,4,2,12,,,,,,,,6,16,,,,,,,,,,,6,2.707,1,,,,,,-0.112037037,-0.386111111,1,0,0,2.7071,Pegmatite_rect,11,0,11,0,1,
6090578fb2299eacaec32b7a,TCR,2024-06-20_13h27.38.006,LearnStrategy,2023.2.3,Win32,163.9344262,4,2,13,,,,,,,,5,12,,,,,,,,,,,5,0.76,1,,,,,,-0.349074074,-0.389814815,1,0,0,0.7604,Obsidian_rect,12,0,12,0,1,
6090578fb2299eacaec32b7a,TCR,2024-06-20_13h27.38.006,LearnStrategy,2023.2.3,Win32,163.9344262,4,2,14,,,,,,,,8,14,,,,,,,,,,,8,0.858,1,,,,,,0.332407407,-0.388888889,1,0,0,0.8575,Pumice_rect,13,0,13,0,1,
6090578fb2299eacaec32b7a,TCR,2024-06-20_13h27.38.006,LearnStrategy,2023.2.3,Win32,163.9344262,4,2,15,,,,,,,,4,12,,,,,,,,,,,2,4.132,0,,,,,,-0.098148148,-0.25,1,0,0,4.1318,Basalt_rect,14,0,14,0,1,
6090578fb2299eacaec32b7a,TCR,2024-06-20_13h27.38.006,LearnStrategy,2023.2.3,Win32,163.9344262,4,2,16,,,,,,,,7,06,,,,,,,,,,,7,1.288,1,,,,,,0.156481481,-0.412962963,1,0,0,1.2885,Peridotite_rect,15,0,15,0,1,
6090578fb2299eacaec32b7a,TCR,2024-06-20_13h27.38.006,LearnStrategy,2023.2.3,Win32,163.9344262,5,1,1,0.010185185,0.011111111,1,0,0,3.4722,rock_grid_rect_2,6,15,-1,-1,3.472,-0.10462963,-0.411111111,1,0,0,2.2643,Pegmatite_rect,6,2.264,1,0,0,0,0,1,,,,,,,,,,,,,
6090578fb2299eacaec32b7a,TCR,2024-06-20_13h27.38.006,LearnStrategy,2023.2.3,Win32,163.9344262,5,1,2,0.065740741,0.012037037,1,0,0,0.5507,rock_grid_rect_2,4,09,-1,-1,0.551,0.42962963,-0.236111111,1,0,0,1.1788,Gabbro_rect,4,1.179,1,1,0,1,0,1,,,,,,,,,,,,,
6090578fb2299eacaec32b7a,TCR,2024-06-20_13h27.38.006,LearnStrategy,2023.2.3,Win32,163.9344262,5,1,3,0.085185185,0.002777778,1,0,0,0.4235,rock_grid_rect_2,5,09,-1,-1,0.423,-0.367592593,-0.421296296,1,0,0,1.5368,Obsidian_rect,5,1.537,1,2,0,2,0,1,,,,,,,,,,,,,
6090578fb2299eacaec32b7a,TCR,2024-06-20_13h27.38.006,LearnStrategy,2023.2.3,Win32,163.9344262,5,1,4,0.075,-0.007407407,1,0,0,0.4173,rock_grid_rect_2,4,03,-1,-1,0.417,0.149074074,-0.252777778,1,0,0,1.5795,Diorite_rect,3,1.579,0,3,0,3,0,1,,,,,,,,,,,,,
6090578fb2299eacaec32b7a,TCR,2024-06-20_13h27.38.006,LearnStrategy,2023.2.3,Win32,163.9344262,5,1,5,0.063888889,-0.009259259,1,0,0,0.7145,rock_grid_rect_2,8,13,-1,-1,0.715,0.353703704,-0.396296296,1,0,0,0.8882,Pumice_rect,8,0.888,1,4,0,4,0,1,,,,,,,,,,,,,
6090578fb2299eacaec32b7a,TCR,2024-06-20_13h27.38.006,LearnStrategy,2023.2.3,Win32,163.9344262,5,1,6,0.025,-0.009259259,1,0,0,0.411,rock_grid_rect_2,2,01,-1,-1,0.411,-0.112037037,-0.264814815,1,0,0,0.9949,Basalt_rect,2,0.995,1,5,0,5,0,1,,,,,,,,,,,,,
6090578fb2299eacaec32b7a,TCR,2024-06-20_13h27.38.006,LearnStrategy,2023.2.3,Win32,163.9344262,5,1,7,0.005555556,-0.021296296,1,0,0,0.4109,rock_grid_rect_2,7,05,-1,-1,0.411,0.105555556,-0.389814815,1,0,0,1.0583,Peridotite_rect,7,1.058,1,6,0,6,0,1,,,,,,,,,,,,,
6090578fb2299eacaec32b7a,TCR,2024-06-20_13h27.38.006,LearnStrategy,2023.2.3,Win32,163.9344262,5,1,8,0.043518519,-0.02037037,1,0,0,0.3749,rock_grid_rect_2,4,05,-1,-1,0.375,-0.390740741,-0.259259259,1,0,0,1.9749,Andesite_rect,1,1.975,0,7,0,7,0,1,,,,,,,,,,,,,
6090578fb2299eacaec32b7a,TCR,2024-06-20_13h27.38.006,LearnStrategy,2023.2.3,Win32,163.9344262,5,1,9,0.077777778,0.014814815,1,0,0,0.393,rock_grid_rect_2,3,07,-1,-1,0.393,-0.309259259,-0.252777778,1,0,0,2.7194,Andesite_rect,1,2.719,0,8,0,8,0,1,,,,,,,,,,,,,
6090578fb2299eacaec32b7a,TCR,2024-06-20_13h27.38.006,LearnStrategy,2023.2.3,Win32,163.9344262,5,1,10,0.049074074,0.016666667,1,0,0,0.638,rock_grid_rect_2,7,10,-1,-1,0.638,0.161111111,-0.417592593,1,0,0,0.9348,Peridotite_rect,7,0.935,1,9,0,9,0,1,,,,,,,,,,,,,
6090578fb2299eacaec32b7a,TCR,2024-06-20_13h27.38.006,LearnStrategy,2023.2.3,Win32,163.9344262,5,1,11,0.083333333,0.00462963,1,0,0,0.9203,rock_grid_rect_2,4,09,-1,-1,0.92,0.377777778,-0.236111111,1,0,0,1.2579,Gabbro_rect,4,1.258,1,10,0,10,0,1,,,,,,,,,,,,,
6090578fb2299eacaec32b7a,TCR,2024-06-20_13h27.38.006,LearnStrategy,2023.2.3,Win32,163.9344262,5,1,12,0.039814815,0,1,0,0,0.6175,rock_grid_rect_2,1,03,-1,-1,0.618,-0.372222222,-0.257407407,1,0,0,2.5495,Andesite_rect,1,2.55,1,11,0,11,0,1,,,,,,,,,,,,,
6090578fb2299eacaec32b7a,TCR,2024-06-20_13h27.38.006,LearnStrategy,2023.2.3,Win32,163.9344262,5,1,13,0.000925926,-0.009259259,1,0,0,0.3871,rock_grid_rect_2,3,09,-1,-1,0.387,0.394444444,-0.228703704,1,0,0,2.1615,Gabbro_rect,4,2.161,0,12,0,12,0,1,,,,,,,,,,,,,
6090578fb2299eacaec32b7a,TCR,2024-06-20_13h27.38.006,LearnStrategy,2023.2.3,Win32,163.9344262,5,1,14,0.09537037,-0.001851852,1,0,0,0.6822,rock_grid_rect_2,2,02,-1,-1,0.682,-0.114814815,-0.24537037,1,0,0,0.8133,Basalt_rect,2,0.813,1,13,0,13,0,1,,,,,,,,,,,,,
6090578fb2299eacaec32b7a,TCR,2024-06-20_13h27.38.006,LearnStrategy,2023.2.3,Win32,163.9344262,5,1,15,0.007407407,-0.002777778,1,0,0,0.3632,rock_grid_rect_2,1,10,-1,-1,0.363,-0.387962963,-0.248148148,1,0,0,1.4579,Andesite_rect,1,1.458,1,14,0,14,0,1,,,,,,,,,,,,,
6090578fb2299eacaec32b7a,TCR,2024-06-20_13h27.38.006,LearnStrategy,2023.2.3,Win32,163.9344262,5,1,16,-0.006481481,-0.00462963,1,0,0,0.3622,rock_grid_rect_2,4,01,-1,-1,0.362,-0.351851852,-0.246296296,1,0,0,2.956,Andesite_rect,1,2.956,0,15,0,15,0,1,,,,,,,,,,,,,
6090578fb2299eacaec32b7a,TCR,2024-06-20_13h27.38.006,LearnStrategy,2023.2.3,Win32,163.9344262,5,2,1,,,,,,,,1,04,,,,,,,,,,,1,1.925,1,,,,,,-0.383333333,-0.262037037,1,0,0,1.9249,Andesite_rect,0,0,0,0,1,
6090578fb2299eacaec32b7a,TCR,2024-06-20_13h27.38.006,LearnStrategy,2023.2.3,Win32,163.9344262,5,2,2,,,,,,,,1,06,,,,,,,,,,,1,4.435,1,,,,,,-0.446296296,-0.230555556,1,0,0,4.4352,Andesite_rect,1,0,1,0,1,
6090578fb2299eacaec32b7a,TCR,2024-06-20_13h27.38.006,LearnStrategy,2023.2.3,Win32,163.9344262,5,2,3,,,,,,,,5,06,,,,,,,,,,,5,1.033,1,,,,,,-0.377777778,-0.389814815,1,0,0,1.0331,Obsidian_rect,2,0,2,0,1,
6090578fb2299eacaec32b7a,TCR,2024-06-20_13h27.38.006,LearnStrategy,2023.2.3,Win32,163.9344262,5,2,4,,,,,,,,7,02,,,,,,,,,,,7,1.045,1,,,,,,0.200925926,-0.416666667,1,0,0,1.0453,Peridotite_rect,3,0,3,0,1,
6090578fb2299eacaec32b7a,TCR,2024-06-20_13h27.38.006,LearnStrategy,2023.2.3,Win32,163.9344262,5,2,5,,,,,,,,7,13,,,,,,,,,,,7,0.724,1,,,,,,0.200925926,-0.416666667,1,0,0,0.7243,Peridotite_rect,4,0,4,0,1,
6090578fb2299eacaec32b7a,TCR,2024-06-20_13h27.38.006,LearnStrategy,2023.2.3,Win32,163.9344262,5,2,6,,,,,,,,3,16,,,,,,,,,,,3,2.096,1,,,,,,0.17037037,-0.263888889,1,0,0,2.0962,Diorite_rect,5,0,5,0,1,
6090578fb2299eacaec32b7a,TCR,2024-06-20_13h27.38.006,LearnStrategy,2023.2.3,Win32,163.9344262,5,2,7,,,,,,,,6,05,,,,,,,,,,,6,8.734,1,,,,,,-0.094444444,-0.402777778,1,0,0,8.7342,Pegmatite_rect,6,0,6,0,1,
6090578fb2299eacaec32b7a,TCR,2024-06-20_13h27.38.006,LearnStrategy,2023.2.3,Win32,163.9344262,5,2,8,,,,,,,,5,02,,,,,,,,,,,5,0.814,1,,,,,,-0.362037037,-0.42037037,1,0,0,0.8142,Obsidian_rect,7,0,7,0,1,
6090578fb2299eacaec32b7a,TCR,2024-06-20_13h27.38.006,LearnStrategy,2023.2.3,Win32,163.9344262,5,2,9,,,,,,,,6,11,,,,,,,,,,,6,2.472,1,,,,,,-0.133333333,-0.39537037,1,0,0,2.4724,Pegmatite_rect,8,0,8,0,1,
6090578fb2299eacaec32b7a,TCR,2024-06-20_13h27.38.006,LearnStrategy,2023.2.3,Win32,163.9344262,5,2,10,,,,,,,,8,06,,,,,,,,,,,8,0.858,1,,,,,,0.350925926,-0.409259259,1,0,0,0.8576,Pumice_rect,9,0,9,0,1,
6090578fb2299eacaec32b7a,TCR,2024-06-20_13h27.38.006,LearnStrategy,2023.2.3,Win32,163.9344262,5,2,11,,,,,,,,4,10,,,,,,,,,,,4,0.956,1,,,,,,0.339814815,-0.234259259,1,0,0,0.9563,Gabbro_rect,10,0,10,0,1,
6090578fb2299eacaec32b7a,TCR,2024-06-20_13h27.38.006,LearnStrategy,2023.2.3,Win32,163.9344262,5,2,12,,,,,,,,8,04,,,,,,,,,,,8,0.785,1,,,,,,0.362037037,-0.402777778,1,0,0,0.7847,Pumice_rect,11,0,11,0,1,
6090578fb2299eacaec32b7a,TCR,2024-06-20_13h27.38.006,LearnStrategy,2023.2.3,Win32,163.9344262,5,2,13,,,,,,,,3,08,,,,,,,,,,,4,6.897,0,,,,,,0.400925926,-0.236111111,1,0,0,6.8972,Gabbro_rect,12,0,12,0,1,
6090578fb2299eacaec32b7a,TCR,2024-06-20_13h27.38.006,LearnStrategy,2023.2.3,Win32,163.9344262,5,2,14,,,,,,,,2,16,,,,,,,,,,,2,1.506,1,,,,,,-0.10462963,-0.25,1,0,0,1.5064,Basalt_rect,13,0,13,0,1,
6090578fb2299eacaec32b7a,TCR,2024-06-20_13h27.38.006,LearnStrategy,2023.2.3,Win32,163.9344262,5,2,15,,,,,,,,4,11,,,,,,,,,,,2,4.314,0,,,,,,-0.146296296,-0.235185185,1,0,0,4.3141,Basalt_rect,14,0,14,0,1,
6090578fb2299eacaec32b7a,TCR,2024-06-20_13h27.38.006,LearnStrategy,2023.2.3,Win32,163.9344262,5,2,16,,,,,,,,2,12,,,,,,,,,,,2,1.3,1,,,,,,-0.146296296,-0.235185185,1,0,0,1.3003,Basalt_rect,15,0,15,0,1,
6090578fb2299eacaec32b7a,TCR,2024-06-20_13h27.38.006,LearnStrategy,2023.2.3,Win32,163.9344262,6,1,1,0.112962963,-0.005555556,1,0,0,1.5151,rock_grid_rect_2,3,14,-1,-1,1.515,0.37962963,-0.240740741,1,0,0,4.9858,Gabbro_rect,4,4.986,0,0,0,0,0,1,,,,,,,,,,,,,
6090578fb2299eacaec32b7a,TCR,2024-06-20_13h27.38.006,LearnStrategy,2023.2.3,Win32,163.9344262,6,1,2,0.064814815,0.022222222,1,0,0,0.7664,rock_grid_rect_2,4,09,-1,-1,0.766,0.443518519,-0.251851852,1,0,0,1.0559,Gabbro_rect,4,1.056,1,1,0,1,0,1,,,,,,,,,,,,,
6090578fb2299eacaec32b7a,TCR,2024-06-20_13h27.38.006,LearnStrategy,2023.2.3,Win32,163.9344262,6,1,3,0.05462963,0.017592593,1,0,0,0.5504,rock_grid_rect_2,6,10,-1,-1,0.55,-0.150925926,-0.381481481,1,0,0,8.3948,Pegmatite_rect,6,8.395,1,2,0,2,0,1,,,,,,,,,,,,,
6090578fb2299eacaec32b7a,TCR,2024-06-20_13h27.38.006,LearnStrategy,2023.2.3,Win32,163.9344262,6,1,4,0.039814815,0.015740741,1,0,0,0.4657,rock_grid_rect_2,4,08,-1,-1,0.466,0.415740741,-0.267592593,1,0,0,1.3234,Gabbro_rect,4,1.323,1,3,0,3,0,1,,,,,,,,,,,,,
6090578fb2299eacaec32b7a,TCR,2024-06-20_13h27.38.006,LearnStrategy,2023.2.3,Win32,163.9344262,6,1,5,-0.005555556,-0.000925926,1,0,0,0.4598,rock_grid_rect_2,4,08,-1,-1,0.46,-0.132407407,-0.243518519,1,0,0,4.7566,Basalt_rect,2,4.757,0,4,0,4,0,1,,,,,,,,,,,,,
6090578fb2299eacaec32b7a,TCR,2024-06-20_13h27.38.006,LearnStrategy,2023.2.3,Win32,163.9344262,6,1,6,0.012037037,-0.003703704,1,0,0,0.4011,rock_grid_rect_2,1,01,-1,-1,0.401,0.374074074,-0.24537037,1,0,0,3.8472,Gabbro_rect,4,3.847,0,5,0,5,0,1,,,,,,,,,,,,,
6090578fb2299eacaec32b7a,TCR,2024-06-20_13h27.38.006,LearnStrategy,2023.2.3,Win32,163.9344262,6,1,7,0.107407407,-0.007407407,1,0,0,0.6779,rock_grid_rect_2,7,04,-1,-1,0.678,-0.059259259,-0.386111111,1,0,0,1.9554,Pegmatite_rect,6,1.955,0,6,0,6,0,1,,,,,,,,,,,,,
6090578fb2299eacaec32b7a,TCR,2024-06-20_13h27.38.006,LearnStrategy,2023.2.3,Win32,163.9344262,6,1,8,0.061111111,-0.001851852,1,0,0,0.7264,rock_grid_rect_2,3,10,-1,-1,0.726,0.12037037,-0.236111111,1,0,0,1.8885,Diorite_rect,3,1.889,1,7,0,7,0,1,,,,,,,,,,,,,
6090578fb2299eacaec32b7a,TCR,2024-06-20_13h27.38.006,LearnStrategy,2023.2.3,Win32,163.9344262,6,1,9,0.084259259,-0.007407407,1,0,0,0.5627,rock_grid_rect_2,2,01,-1,-1,0.563,-0.109259259,-0.257407407,1,0,0,0.8286,Basalt_rect,2,0.829,1,8,0,8,0,1,,,,,,,,,,,,,
6090578fb2299eacaec32b7a,TCR,2024-06-20_13h27.38.006,LearnStrategy,2023.2.3,Win32,163.9344262,6,1,10,0.028703704,-0.016666667,1,0,0,0.393,rock_grid_rect_2,2,04,-1,-1,0.393,-0.083333333,-0.264814815,1,0,0,0.6771,Basalt_rect,2,0.677,1,9,0,9,0,1,,,,,,,,,,,,,
6090578fb2299eacaec32b7a,TCR,2024-06-20_13h27.38.006,LearnStrategy,2023.2.3,Win32,163.9344262,6,1,11,-0.002777778,-0.001851852,1,0,0,0.5872,rock_grid_rect_2,1,07,-1,-1,0.587,-0.425,-0.267592593,1,0,0,2.1312,Andesite_rect,1,2.131,1,10,0,10,0,1,,,,,,,,,,,,,
6090578fb2299eacaec32b7a,TCR,2024-06-20_13h27.38.006,LearnStrategy,2023.2.3,Win32,163.9344262,6,1,12,0.04537037,-0.009259259,1,0,0,0.3567,rock_grid_rect_2,4,14,-1,-1,0.357,0.322222222,-0.238888889,1,0,0,3.0953,Gabbro_rect,4,3.095,1,11,0,11,0,1,,,,,,,,,,,,,
6090578fb2299eacaec32b7a,TCR,2024-06-20_13h27.38.006,LearnStrategy,2023.2.3,Win32,163.9344262,6,1,13,0.093518519,-0.023148148,1,0,0,0.4657,rock_grid_rect_2,3,15,-1,-1,0.466,0.124074074,-0.248148148,1,0,0,1.9279,Diorite_rect,3,1.928,1,12,0,12,0,1,,,,,,,,,,,,,
6090578fb2299eacaec32b7a,TCR,2024-06-20_13h27.38.006,LearnStrategy,2023.2.3,Win32,163.9344262,6,1,14,0.065740741,-0.013888889,1,0,0,0.6901,rock_grid_rect_2,4,03,-1,-1,0.69,0.396296296,-0.247222222,1,0,0,1.7736,Gabbro_rect,4,1.774,1,13,0,13,0,1,,,,,,,,,,,,,
6090578fb2299eacaec32b7a,TCR,2024-06-20_13h27.38.006,LearnStrategy,2023.2.3,Win32,163.9344262,6,1,15,0.102777778,0.003703704,1,0,0,0.6719,rock_grid_rect_2,8,02,-1,-1,0.672,0.374074074,-0.383333333,1,0,0,0.985,Pumice_rect,8,0.985,1,14,0,14,0,1,,,,,,,,,,,,,
6090578fb2299eacaec32b7a,TCR,2024-06-20_13h27.38.006,LearnStrategy,2023.2.3,Win32,163.9344262,6,1,16,0.071296296,-0.009259259,1,0,0,0.6841,rock_grid_rect_2,5,09,-1,-1,0.684,-0.300925926,-0.383333333,1,0,0,0.7184,Obsidian_rect,5,0.718,1,15,0,15,0,1,,,,,,,,,,,,,
6090578fb2299eacaec32b7a,TCR,2024-06-20_13h27.38.006,LearnStrategy,2023.2.3,Win32,163.9344262,6,2,1,,,,,,,,4,13,,,,,,,,,,,4,3.678,1,,,,,,0.398148148,-0.24537037,1,0,0,3.6775,Gabbro_rect,0,0,0,0,1,
6090578fb2299eacaec32b7a,TCR,2024-06-20_13h27.38.006,LearnStrategy,2023.2.3,Win32,163.9344262,6,2,2,,,,,,,,4,16,,,,,,,,,,,4,2.95,1,,,,,,0.437962963,-0.252777778,1,0,0,2.9496,Gabbro_rect,1,0,1,0,1,
6090578fb2299eacaec32b7a,TCR,2024-06-20_13h27.38.006,LearnStrategy,2023.2.3,Win32,163.9344262,6,2,3,,,,,,,,3,13,,,,,,,,,,,3,1.44,1,,,,,,0.147222222,-0.240740741,1,0,0,1.4396,Diorite_rect,2,0,2,0,1,
6090578fb2299eacaec32b7a,TCR,2024-06-20_13h27.38.006,LearnStrategy,2023.2.3,Win32,163.9344262,6,2,4,,,,,,,,6,09,,,,,,,,,,,6,1.737,1,,,,,,-0.09537037,-0.403703704,1,0,0,1.7369,Pegmatite_rect,3,0,3,0,1,
6090578fb2299eacaec32b7a,TCR,2024-06-20_13h27.38.006,LearnStrategy,2023.2.3,Win32,163.9344262,6,2,5,,,,,,,,8,05,,,,,,,,,,,8,0.797,1,,,,,,0.360185185,-0.387962963,1,0,0,0.797,Pumice_rect,4,0,4,0,1,
6090578fb2299eacaec32b7a,TCR,2024-06-20_13h27.38.006,LearnStrategy,2023.2.3,Win32,163.9344262,6,2,6,,,,,,,,3,02,,,,,,,,,,,3,1.337,1,,,,,,0.128703704,-0.235185185,1,0,0,1.3366,Diorite_rect,5,0,5,0,1,
6090578fb2299eacaec32b7a,TCR,2024-06-20_13h27.38.006,LearnStrategy,2023.2.3,Win32,163.9344262,6,2,7,,,,,,,,8,08,,,,,,,,,,,8,1.052,1,,,,,,0.384259259,-0.398148148,1,0,0,1.0518,Pumice_rect,6,0,6,0,1,
6090578fb2299eacaec32b7a,TCR,2024-06-20_13h27.38.006,LearnStrategy,2023.2.3,Win32,163.9344262,6,2,8,,,,,,,,6,07,,,,,,,,,,,6,1.16,1,,,,,,-0.108333333,-0.393518519,1,0,0,1.1605,Pegmatite_rect,7,0,7,0,1,
6090578fb2299eacaec32b7a,TCR,2024-06-20_13h27.38.006,LearnStrategy,2023.2.3,Win32,163.9344262,6,2,9,,,,,,,,5,07,,,,,,,,,,,5,0.867,1,,,,,,-0.322222222,-0.39537037,1,0,0,0.8674,Obsidian_rect,8,0,8,0,1,
6090578fb2299eacaec32b7a,TCR,2024-06-20_13h27.38.006,LearnStrategy,2023.2.3,Win32,163.9344262,6,2,10,,,,,,,,1,09,,,,,,,,,,,2,2.992,0,,,,,,-0.085185185,-0.249074074,1,0,0,2.9921,Basalt_rect,9,0,9,0,1,
6090578fb2299eacaec32b7a,TCR,2024-06-20_13h27.38.006,LearnStrategy,2023.2.3,Win32,163.9344262,6,2,11,,,,,,,,7,15,,,,,,,,,,,7,1.227,1,,,,,,0.124074074,-0.393518519,1,0,0,1.2275,Peridotite_rect,10,0,10,0,1,
6090578fb2299eacaec32b7a,TCR,2024-06-20_13h27.38.006,LearnStrategy,2023.2.3,Win32,163.9344262,6,2,12,,,,,,,,2,08,,,,,,,,,,,2,3.995,1,,,,,,-0.151851852,-0.241666667,1,0,0,3.9945,Basalt_rect,11,0,11,0,1,
6090578fb2299eacaec32b7a,TCR,2024-06-20_13h27.38.006,LearnStrategy,2023.2.3,Win32,163.9344262,6,2,13,,,,,,,,5,11,,,,,,,,,,,5,0.791,1,,,,,,-0.319444444,-0.386111111,1,0,0,0.7905,Obsidian_rect,12,0,12,0,1,
6090578fb2299eacaec32b7a,TCR,2024-06-20_13h27.38.006,LearnStrategy,2023.2.3,Win32,163.9344262,6,2,14,,,,,,,,2,06,,,,,,,,,,,2,0.828,1,,,,,,-0.112037037,-0.261111111,1,0,0,0.8276,Basalt_rect,13,0,13,0,1,
6090578fb2299eacaec32b7a,TCR,2024-06-20_13h27.38.006,LearnStrategy,2023.2.3,Win32,163.9344262,6,2,15,,,,,,,,1,14,,,,,,,,,,,1,3.211,1,,,,,,-0.386111111,-0.237037037,1,0,0,3.2108,Andesite_rect,14,0,14,0,1,
6090578fb2299eacaec32b7a,TCR,2024-06-20_13h27.38.006,LearnStrategy,2023.2.3,Win32,163.9344262,6,2,16,,,,,,,,7,16,,,,,,,,,,,7,8.892,1,,,,,,0.137962963,-0.37962963,1,0,0,8.892,Peridotite_rect,15,0,15,0,1,
6090578fb2299eacaec32b7a,TCR,2024-06-20_13h27.38.006,LearnStrategy,2023.2.3,Win32,163.9344262,7,1,1,-0.016666667,0.005555556,1,0,0,1.0181,rock_grid_rect_2,4,14,-1,-1,1.018,0.437037037,-0.255555556,1,0,0,1.9977,Gabbro_rect,4,1.998,1,0,0,0,0,1,,,,,,,,,,,,,
6090578fb2299eacaec32b7a,TCR,2024-06-20_13h27.38.006,LearnStrategy,2023.2.3,Win32,163.9344262,7,1,2,0.023148148,0.02037037,1,0,0,0.5084,rock_grid_rect_2,5,04,-1,-1,0.508,-0.290740741,-0.390740741,1,0,0,0.9832,Obsidian_rect,5,0.983,1,1,0,1,0,1,,,,,,,,,,,,,
6090578fb2299eacaec32b7a,TCR,2024-06-20_13h27.38.006,LearnStrategy,2023.2.3,Win32,163.9344262,7,1,3,0.057407407,-0.006481481,1,0,0,0.3809,rock_grid_rect_2,2,14,-1,-1,0.381,-0.133333333,-0.22962963,1,0,0,3.3012,Basalt_rect,2,3.301,1,2,0,2,0,1,,,,,,,,,,,,,
6090578fb2299eacaec32b7a,TCR,2024-06-20_13h27.38.006,LearnStrategy,2023.2.3,Win32,163.9344262,7,1,4,0.015740741,0.019444444,1,0,0,0.3444,rock_grid_rect_2,4,01,-1,-1,0.344,0.123148148,-0.402777778,1,0,0,3.2529,Peridotite_rect,7,3.253,0,3,0,3,0,1,,,,,,,,,,,,,
6090578fb2299eacaec32b7a,TCR,2024-06-20_13h27.38.006,LearnStrategy,2023.2.3,Win32,163.9344262,7,1,5,0.037037037,0.02037037,1,0,0,0.4855,rock_grid_rect_2,2,04,-1,-1,0.486,-0.050925926,-0.246296296,1,0,0,1.1547,Basalt_rect,2,1.155,1,4,0,4,0,1,,,,,,,,,,,,,
6090578fb2299eacaec32b7a,TCR,2024-06-20_13h27.38.006,LearnStrategy,2023.2.3,Win32,163.9344262,7,1,6,0.024074074,-0.019444444,1,0,0,0.3991,rock_grid_rect_2,8,02,-1,-1,0.399,0.351851852,-0.399074074,1,0,0,0.8514,Pumice_rect,8,0.851,1,5,0,5,0,1,,,,,,,,,,,,,
6090578fb2299eacaec32b7a,TCR,2024-06-20_13h27.38.006,LearnStrategy,2023.2.3,Win32,163.9344262,7,1,7,-0.012962963,0.013888889,1,0,0,0.3749,rock_grid_rect_2,3,14,-1,-1,0.375,0.328703704,-0.246296296,1,0,0,2.4403,Gabbro_rect,4,2.44,0,6,0,6,0,1,,,,,,,,,,,,,
6090578fb2299eacaec32b7a,TCR,2024-06-20_13h27.38.006,LearnStrategy,2023.2.3,Win32,163.9344262,7,1,8,0.012037037,-0.013888889,1,0,0,0.4233,rock_grid_rect_2,7,07,-1,-1,0.423,0.150925926,-0.413888889,1,0,0,1.2519,Peridotite_rect,7,1.252,1,7,0,7,0,1,,,,,,,,,,,,,
6090578fb2299eacaec32b7a,TCR,2024-06-20_13h27.38.006,LearnStrategy,2023.2.3,Win32,163.9344262,7,1,9,0.005555556,-0.010185185,1,0,0,0.6294,rock_grid_rect_2,4,05,-1,-1,0.629,0.135185185,-0.392592593,1,0,0,3.1796,Peridotite_rect,7,3.18,0,8,0,8,0,1,,,,,,,,,,,,,
6090578fb2299eacaec32b7a,TCR,2024-06-20_13h27.38.006,LearnStrategy,2023.2.3,Win32,163.9344262,7,1,10,0.066666667,0.016666667,1,0,0,0.3989,rock_grid_rect_2,3,15,-1,-1,0.399,0.146296296,-0.260185185,1,0,0,0.9793,Diorite_rect,3,0.979,1,9,0,9,0,1,,,,,,,,,,,,,
6090578fb2299eacaec32b7a,TCR,2024-06-20_13h27.38.006,LearnStrategy,2023.2.3,Win32,163.9344262,7,1,11,-0.012037037,-0.003703704,1,0,0,0.3568,rock_grid_rect_2,1,10,-1,-1,0.357,-0.365740741,-0.246296296,1,0,0,1.2762,Andesite_rect,1,1.276,1,10,0,10,0,1,,,,,,,,,,,,,
6090578fb2299eacaec32b7a,TCR,2024-06-20_13h27.38.006,LearnStrategy,2023.2.3,Win32,163.9344262,7,1,12,-0.058333333,0.000925926,1,0,0,0.3929,rock_grid_rect_2,4,03,-1,-1,0.393,0.377777778,-0.251851852,1,0,0,1.1875,Gabbro_rect,4,1.188,1,11,0,11,0,1,,,,,,,,,,,,,
6090578fb2299eacaec32b7a,TCR,2024-06-20_13h27.38.006,LearnStrategy,2023.2.3,Win32,163.9344262,7,1,13,0.022222222,-0.012037037,1,0,0,0.3688,rock_grid_rect_2,1,07,-1,-1,0.369,-0.367592593,-0.240740741,1,0,0,1.7735,Andesite_rect,1,1.774,1,12,0,12,0,1,,,,,,,,,,,,,
6090578fb2299eacaec32b7a,TCR,2024-06-20_13h27.38.006,LearnStrategy,2023.2.3,Win32,163.9344262,7,1,14,-0.007407407,-0.017592593,1,0,0,0.3384,rock_grid_rect_2,1,01,-1,-1,0.338,0.350925926,-0.257407407,1,0,0,2.3858,Gabbro_rect,4,2.386,0,13,0,13,0,1,,,,,,,,,,,,,
6090578fb2299eacaec32b7a,TCR,2024-06-20_13h27.38.006,LearnStrategy,2023.2.3,Win32,163.9344262,7,1,15,0.022222222,-0.019444444,1,0,0,0.3081,rock_grid_rect_2,6,06,-1,-1,0.308,-0.099074074,-0.417592593,1,0,0,1.0943,Pegmatite_rect,6,1.094,1,14,0,14,0,1,,,,,,,,,,,,,
6090578fb2299eacaec32b7a,TCR,2024-06-20_13h27.38.006,LearnStrategy,2023.2.3,Win32,163.9344262,7,1,16,0.056481481,-0.007407407,1,0,0,0.3627,rock_grid_rect_2,3,09,-1,-1,0.363,0.171296296,-0.232407407,1,0,0,1.3674,Diorite_rect,3,1.367,1,15,0,15,0,1,,,,,,,,,,,,,
6090578fb2299eacaec32b7a,TCR,2024-06-20_13h27.38.006,LearnStrategy,2023.2.3,Win32,163.9344262,7,2,1,,,,,,,,1,06,,,,,,,,,,,1,1.173,1,,,,,,-0.424074074,-0.247222222,1,0,0,1.1729,Andesite_rect,0,0,0,0,1,
6090578fb2299eacaec32b7a,TCR,2024-06-20_13h27.38.006,LearnStrategy,2023.2.3,Win32,163.9344262,7,2,2,,,,,,,,7,08,,,,,,,,,,,7,1.264,1,,,,,,0.115740741,-0.397222222,1,0,0,1.264,Peridotite_rect,1,0,1,0,1,
6090578fb2299eacaec32b7a,TCR,2024-06-20_13h27.38.006,LearnStrategy,2023.2.3,Win32,163.9344262,7,2,3,,,,,,,,6,08,,,,,,,,,,,6,1.13,1,,,,,,-0.139814815,-0.412037037,1,0,0,1.1302,Pegmatite_rect,2,0,2,0,1,
6090578fb2299eacaec32b7a,TCR,2024-06-20_13h27.38.006,LearnStrategy,2023.2.3,Win32,163.9344262,7,2,4,,,,,,,,7,02,,,,,,,,,,,7,0.967,1,,,,,,0.126851852,-0.388888889,1,0,0,0.9666,Peridotite_rect,3,0,3,0,1,
6090578fb2299eacaec32b7a,TCR,2024-06-20_13h27.38.006,LearnStrategy,2023.2.3,Win32,163.9344262,7,2,5,,,,,,,,5,12,,,,,,,,,,,5,1.481,1,,,,,,-0.362037037,-0.393518519,1,0,0,1.4815,Obsidian_rect,4,0,4,0,1,
6090578fb2299eacaec32b7a,TCR,2024-06-20_13h27.38.006,LearnStrategy,2023.2.3,Win32,163.9344262,7,2,6,,,,,,,,4,15,,,,,,,,,,,4,2.519,1,,,,,,0.432407407,-0.250925926,1,0,0,2.5192,Gabbro_rect,5,0,5,0,1,
6090578fb2299eacaec32b7a,TCR,2024-06-20_13h27.38.006,LearnStrategy,2023.2.3,Win32,163.9344262,7,2,7,,,,,,,,2,08,,,,,,,,,,,2,0.839,1,,,,,,-0.101851852,-0.259259259,1,0,0,0.8393,Basalt_rect,6,0,6,0,1,
6090578fb2299eacaec32b7a,TCR,2024-06-20_13h27.38.006,LearnStrategy,2023.2.3,Win32,163.9344262,7,2,8,,,,,,,,5,11,,,,,,,,,,,5,0.797,1,,,,,,-0.328703704,-0.393518519,1,0,0,0.7969,Obsidian_rect,7,0,7,0,1,
6090578fb2299eacaec32b7a,TCR,2024-06-20_13h27.38.006,LearnStrategy,2023.2.3,Win32,163.9344262,7,2,9,,,,,,,,3,13,,,,,,,,,,,3,1.416,1,,,,,,0.112962963,-0.253703704,1,0,0,1.4158,Diorite_rect,8,0,8,0,1,
6090578fb2299eacaec32b7a,TCR,2024-06-20_13h27.38.006,LearnStrategy,2023.2.3,Win32,163.9344262,7,2,10,,,,,,,,8,08,,,,,,,,,,,8,0.791,1,,,,,,0.35,-0.390740741,1,0,0,0.7906,Pumice_rect,9,0,9,0,1,
6090578fb2299eacaec32b7a,TCR,2024-06-20_13h27.38.006,LearnStrategy,2023.2.3,Win32,163.9344262,7,2,11,,,,,,,,1,04,,,,,,,,,,,1,2.471,1,,,,,,-0.412037037,-0.262037037,1,0,0,2.4709,Andesite_rect,10,0,10,0,1,
6090578fb2299eacaec32b7a,TCR,2024-06-20_13h27.38.006,LearnStrategy,2023.2.3,Win32,163.9344262,7,2,12,,,,,,,,6,11,,,,,,,,,,,6,1.009,1,,,,,,-0.084259259,-0.400925926,1,0,0,1.0093,Pegmatite_rect,11,0,11,0,1,
6090578fb2299eacaec32b7a,TCR,2024-06-20_13h27.38.006,LearnStrategy,2023.2.3,Win32,163.9344262,7,2,13,,,,,,,,3,02,,,,,,,,,,,3,3.198,1,,,,,,0.134259259,-0.244444444,1,0,0,3.1983,Diorite_rect,12,0,12,0,1,
6090578fb2299eacaec32b7a,TCR,2024-06-20_13h27.38.006,LearnStrategy,2023.2.3,Win32,163.9344262,7,2,14,,,,,,,,4,13,,,,,,,,,,,4,3.022,1,,,,,,0.487962963,-0.237962963,1,0,0,3.0222,Gabbro_rect,13,0,13,0,1,
6090578fb2299eacaec32b7a,TCR,2024-06-20_13h27.38.006,LearnStrategy,2023.2.3,Win32,163.9344262,7,2,15,,,,,,,,2,06,,,,,,,,,,,2,0.937,1,,,,,,-0.096296296,-0.246296296,1,0,0,0.9365,Basalt_rect,14,0,14,0,1,
6090578fb2299eacaec32b7a,TCR,2024-06-20_13h27.38.006,LearnStrategy,2023.2.3,Win32,163.9344262,7,2,16,,,,,,,,8,14,,,,,,,,,,,8,0.852,1,,,,,,0.384259259,-0.393518519,1,0,0,0.8519,Pumice_rect,15,0,15,0,1,
6090578fb2299eacaec32b7a,TCR,2024-06-20_13h27.38.006,LearnStrategy,2023.2.3,Win32,163.9344262,8,1,1,-0.024074074,-0.011111111,1,0,0,0.7874,rock_grid_rect_2,7,04,-1,-1,0.787,0.130555556,-0.382407407,1,0,0,1.0819,Peridotite_rect,7,1.082,1,0,0,0,0,1,,,,,,,,,,,,,
6090578fb2299eacaec32b7a,TCR,2024-06-20_13h27.38.006,LearnStrategy,2023.2.3,Win32,163.9344262,8,1,2,0.067592593,0.010185185,1,0,0,0.496,rock_grid_rect_2,1,03,-1,-1,0.496,-0.373148148,-0.241666667,1,0,0,1.2941,Andesite_rect,1,1.294,1,1,0,1,0,1,,,,,,,,,,,,,
6090578fb2299eacaec32b7a,TCR,2024-06-20_13h27.38.006,LearnStrategy,2023.2.3,Win32,163.9344262,8,1,3,-0.035185185,-0.012962963,1,0,0,0.399,rock_grid_rect_2,6,03,-1,-1,0.399,-0.094444444,-0.402777778,1,0,0,1.2777,Pegmatite_rect,6,1.278,1,2,0,2,0,1,,,,,,,,,,,,,
6090578fb2299eacaec32b7a,TCR,2024-06-20_13h27.38.006,LearnStrategy,2023.2.3,Win32,163.9344262,8,1,4,-0.011111111,-0.012037037,1,0,0,0.6228,rock_grid_rect_2,4,05,-1,-1,0.623,0.380555556,-0.252777778,1,0,0,4.4718,Gabbro_rect,4,4.472,1,3,0,3,0,1,,,,,,,,,,,,,
6090578fb2299eacaec32b7a,TCR,2024-06-20_13h27.38.006,LearnStrategy,2023.2.3,Win32,163.9344262,8,1,5,0.101851852,-0.012962963,1,0,0,0.3748,rock_grid_rect_2,2,04,-1,-1,0.375,-0.073148148,-0.231481481,1,0,0,0.9974,Basalt_rect,2,0.997,1,4,0,4,0,1,,,,,,,,,,,,,
6090578fb2299eacaec32b7a,TCR,2024-06-20_13h27.38.006,LearnStrategy,2023.2.3,Win32,163.9344262,8,1,6,0.00462963,-0.002777778,1,0,0,0.5688,rock_grid_rect_2,3,10,-1,-1,0.569,0.193518519,-0.242592593,1,0,0,1.8765,Diorite_rect,3,1.877,1,5,0,5,0,1,,,,,,,,,,,,,
6090578fb2299eacaec32b7a,TCR,2024-06-20_13h27.38.006,LearnStrategy,2023.2.3,Win32,163.9344262,8,1,7,0.073148148,-0.005555556,1,0,0,1.1629,rock_grid_rect_2,7,14,-1,-1,1.163,-0.198148148,-0.403703704,1,0,0,11.8994,Pegmatite_rect,6,11.899,0,6,0,6,0,1,,,,,,,,,,,,,
6090578fb2299eacaec32b7a,TCR,2024-06-20_13h27.38.006,LearnStrategy,2023.2.3,Win32,163.9344262,8,1,8,0.042592593,-0.023148148,1,0,0,0.5562,rock_grid_rect_2,4,14,-1,-1,0.556,0.405555556,-0.233333333,1,0,0,1.4608,Gabbro_rect,4,1.461,1,7,0,7,0,1,,,,,,,,,,,,,
6090578fb2299eacaec32b7a,TCR,2024-06-20_13h27.38.006,LearnStrategy,2023.2.3,Win32,163.9344262,8,1,9,0.04537037,0.00462963,1,0,0,0.4218,rock_grid_rect_2,1,10,-1,-1,0.422,-0.34537037,-0.269444444,1,0,0,1.256,Andesite_rect,1,1.256,1,8,0,8,0,1,,,,,,,,,,,,,
6090578fb2299eacaec32b7a,TCR,2024-06-20_13h27.38.006,LearnStrategy,2023.2.3,Win32,163.9344262,8,1,10,0.017592593,0.003703704,1,0,0,0.3748,rock_grid_rect_2,5,14,-1,-1,0.375,-0.387037037,-0.418518519,1,0,0,0.8823,Obsidian_rect,5,0.882,1,9,0,9,0,1,,,,,,,,,,,,,
6090578fb2299eacaec32b7a,TCR,2024-06-20_13h27.38.006,LearnStrategy,2023.2.3,Win32,163.9344262,8,1,11,0.040740741,-0.000925926,1,0,0,0.4356,rock_grid_rect_2,2,04,-1,-1,0.436,-0.098148148,-0.244444444,1,0,0,1.1732,Basalt_rect,2,1.173,1,10,0,10,0,1,,,,,,,,,,,,,
6090578fb2299eacaec32b7a,TCR,2024-06-20_13h27.38.006,LearnStrategy,2023.2.3,Win32,163.9344262,8,1,12,0.003703704,-0.008333333,1,0,0,0.66,rock_grid_rect_2,4,14,-1,-1,0.66,0.409259259,-0.257407407,1,0,0,1.913,Gabbro_rect,4,1.913,1,11,0,11,0,1,,,,,,,,,,,,,
6090578fb2299eacaec32b7a,TCR,2024-06-20_13h27.38.006,LearnStrategy,2023.2.3,Win32,163.9344262,8,1,13,0.039814815,-0.007407407,1,0,0,0.383,rock_grid_rect_2,3,15,-1,-1,0.383,0.15,-0.257407407,1,0,0,1.1711,Diorite_rect,3,1.171,1,12,0,12,0,1,,,,,,,,,,,,,
6090578fb2299eacaec32b7a,TCR,2024-06-20_13h27.38.006,LearnStrategy,2023.2.3,Win32,163.9344262,8,1,14,0.047222222,0,1,0,0,0.3446,rock_grid_rect_2,1,02,-1,-1,0.345,-0.383333333,-0.256481481,1,0,0,4.096,Andesite_rect,1,4.096,1,13,0,13,0,1,,,,,,,,,,,,,
6090578fb2299eacaec32b7a,TCR,2024-06-20_13h27.38.006,LearnStrategy,2023.2.3,Win32,163.9344262,8,1,15,0.001851852,-0.008333333,1,0,0,0.5992,rock_grid_rect_2,4,03,-1,-1,0.599,0.422222222,-0.237962963,1,0,0,1.6889,Gabbro_rect,4,1.689,1,14,0,14,0,1,,,,,,,,,,,,,
6090578fb2299eacaec32b7a,TCR,2024-06-20_13h27.38.006,LearnStrategy,2023.2.3,Win32,163.9344262,8,1,16,0.04537037,0,1,0,0,0.7699,rock_grid_rect_2,8,10,-1,-1,0.77,0.35462963,-0.416666667,1,0,0,0.8862,Pumice_rect,8,0.886,1,15,0,15,0,1,,,,,,,,,,,,,
6090578fb2299eacaec32b7a,TCR,2024-06-20_13h27.38.006,LearnStrategy,2023.2.3,Win32,163.9344262,8,2,1,,,,,,,,2,10,,,,,,,,,,,2,4.345,1,,,,,,-0.046296296,-0.255555556,1,0,0,4.3445,Basalt_rect,0,0,0,0,1,
6090578fb2299eacaec32b7a,TCR,2024-06-20_13h27.38.006,LearnStrategy,2023.2.3,Win32,163.9344262,8,2,2,,,,,,,,4,10,,,,,,,,,,,4,3.594,1,,,,,,0.377777778,-0.249074074,1,0,0,3.5942,Gabbro_rect,1,0,1,0,1,
6090578fb2299eacaec32b7a,TCR,2024-06-20_13h27.38.006,LearnStrategy,2023.2.3,Win32,163.9344262,8,2,3,,,,,,,,6,09,,,,,,,,,,,6,0.991,1,,,,,,-0.146296296,-0.399074074,1,0,0,0.991,Pegmatite_rect,2,0,2,0,1,
6090578fb2299eacaec32b7a,TCR,2024-06-20_13h27.38.006,LearnStrategy,2023.2.3,Win32,163.9344262,8,2,4,,,,,,,,7,16,,,,,,,,,,,7,10.493,1,,,,,,0.146296296,-0.392592593,1,0,0,10.493,Peridotite_rect,3,0,3,0,1,
6090578fb2299eacaec32b7a,TCR,2024-06-20_13h27.38.006,LearnStrategy,2023.2.3,Win32,163.9344262,8,2,5,,,,,,,,5,02,,,,,,,,,,,5,0.845,1,,,,,,-0.308333333,-0.386111111,1,0,0,0.8453,Obsidian_rect,4,0,4,0,1,
6090578fb2299eacaec32b7a,TCR,2024-06-20_13h27.38.006,LearnStrategy,2023.2.3,Win32,163.9344262,8,2,6,,,,,,,,4,16,,,,,,,,,,,4,2.573,1,,,,,,0.391666667,-0.240740741,1,0,0,2.5733,Gabbro_rect,5,0,5,0,1,
6090578fb2299eacaec32b7a,TCR,2024-06-20_13h27.38.006,LearnStrategy,2023.2.3,Win32,163.9344262,8,2,7,,,,,,,,7,15,,,,,,,,,,,7,0.943,1,,,,,,0.178703704,-0.413888889,1,0,0,0.9428,Peridotite_rect,6,0,6,0,1,
6090578fb2299eacaec32b7a,TCR,2024-06-20_13h27.38.006,LearnStrategy,2023.2.3,Win32,163.9344262,8,2,8,,,,,,,,1,05,,,,,,,,,,,1,1.658,1,,,,,,-0.347222222,-0.242592593,1,0,0,1.6581,Andesite_rect,7,0,7,0,1,
6090578fb2299eacaec32b7a,TCR,2024-06-20_13h27.38.006,LearnStrategy,2023.2.3,Win32,163.9344262,8,2,9,,,,,,,,8,03,,,,,,,,,,,8,1.1,1,,,,,,0.434259259,-0.412962963,1,0,0,1.1001,Pumice_rect,8,0,8,0,1,
6090578fb2299eacaec32b7a,TCR,2024-06-20_13h27.38.006,LearnStrategy,2023.2.3,Win32,163.9344262,8,2,10,,,,,,,,8,05,,,,,,,,,,,8,0.67,1,,,,,,0.430555556,-0.407407407,1,0,0,0.6699,Pumice_rect,9,0,9,0,1,
6090578fb2299eacaec32b7a,TCR,2024-06-20_13h27.38.006,LearnStrategy,2023.2.3,Win32,163.9344262,8,2,11,,,,,,,,3,16,,,,,,,,,,,4,2.623,0,,,,,,0.447222222,-0.241666667,1,0,0,2.6226,Gabbro_rect,10,0,10,0,1,
6090578fb2299eacaec32b7a,TCR,2024-06-20_13h27.38.006,LearnStrategy,2023.2.3,Win32,163.9344262,8,2,12,,,,,,,,3,12,,,,,,,,,,,3,3.307,1,,,,,,0.177777778,-0.255555556,1,0,0,3.3075,Diorite_rect,11,0,11,0,1,
6090578fb2299eacaec32b7a,TCR,2024-06-20_13h27.38.006,LearnStrategy,2023.2.3,Win32,163.9344262,8,2,13,,,,,,,,2,16,,,,,,,,,,,2,0.894,1,,,,,,-0.17037037,-0.247222222,1,0,0,0.8941,Basalt_rect,12,0,12,0,1,
6090578fb2299eacaec32b7a,TCR,2024-06-20_13h27.38.006,LearnStrategy,2023.2.3,Win32,163.9344262,8,2,14,,,,,,,,1,16,,,,,,,,,,,1,1.84,1,,,,,,-0.380555556,-0.242592593,1,0,0,1.8402,Andesite_rect,13,0,13,0,1,
6090578fb2299eacaec32b7a,TCR,2024-06-20_13h27.38.006,LearnStrategy,2023.2.3,Win32,163.9344262,8,2,15,,,,,,,,5,08,,,,,,,,,,,5,0.743,1,,,,,,-0.399074074,-0.382407407,1,0,0,0.7426,Obsidian_rect,14,0,14,0,1,
6090578fb2299eacaec32b7a,TCR,2024-06-20_13h27.38.006,LearnStrategy,2023.2.3,Win32,163.9344262,8,2,16,,,,,,,,6,05,,,,,,,,,,,6,7.631,1,,,,,,-0.133333333,-0.417592593,1,0,0,7.6311,Pegmatite_rect,15,0,15,0,1,
6090578fb2299eacaec32b7a,TCR,2024-06-20_13h27.38.006,LearnStrategy,2023.2.3,Win32,163.9344262,9,1,1,0.065740741,0.003703704,1,0,0,0.9028,rock_grid_rect_2,4,14,-1,-1,0.903,0.400925926,-0.233333333,1,0,0,3.2896,Gabbro_rect,4,3.29,1,0,0,0,0,1,,,,,,,,,,,,,
6090578fb2299eacaec32b7a,TCR,2024-06-20_13h27.38.006,LearnStrategy,2023.2.3,Win32,163.9344262,9,1,2,0.032407407,-0.010185185,1,0,0,0.4417,rock_grid_rect_2,3,10,-1,-1,0.442,0.103703704,-0.249074074,1,0,0,0.9847,Diorite_rect,3,0.985,1,1,0,1,0,1,,,,,,,,,,,,,
6090578fb2299eacaec32b7a,TCR,2024-06-20_13h27.38.006,LearnStrategy,2023.2.3,Win32,163.9344262,9,1,3,0.043518519,0.00462963,1,0,0,0.6056,rock_grid_rect_2,7,04,-1,-1,0.606,0.140740741,-0.406481481,1,0,0,0.8536,Peridotite_rect,7,0.854,1,2,0,2,0,1,,,,,,,,,,,,,
6090578fb2299eacaec32b7a,TCR,2024-06-20_13h27.38.006,LearnStrategy,2023.2.3,Win32,163.9344262,9,1,4,0.036111111,-0.003703704,1,0,0,0.3869,rock_grid_rect_2,2,11,-1,-1,0.387,-0.15462963,-0.249074074,1,0,0,0.9003,Basalt_rect,2,0.9,1,3,0,3,0,1,,,,,,,,,,,,,
6090578fb2299eacaec32b7a,TCR,2024-06-20_13h27.38.006,LearnStrategy,2023.2.3,Win32,163.9344262,9,1,5,0.043518519,-0.012962963,1,0,0,0.4115,rock_grid_rect_2,3,10,-1,-1,0.412,0.108333333,-0.268518519,1,0,0,1.2702,Diorite_rect,3,1.27,1,4,0,4,0,1,,,,,,,,,,,,,
6090578fb2299eacaec32b7a,TCR,2024-06-20_13h27.38.006,LearnStrategy,2023.2.3,Win32,163.9344262,9,1,6,0.048148148,0.007407407,1,0,0,0.3386,rock_grid_rect_2,4,03,-1,-1,0.339,0.426851852,-0.255555556,1,0,0,0.8229,Gabbro_rect,4,0.823,1,5,0,5,0,1,,,,,,,,,,,,,
6090578fb2299eacaec32b7a,TCR,2024-06-20_13h27.38.006,LearnStrategy,2023.2.3,Win32,163.9344262,9,1,7,0.067592593,-0.012962963,1,0,0,0.3387,rock_grid_rect_2,3,11,-1,-1,0.339,0.135185185,-0.255555556,1,0,0,1.3372,Diorite_rect,3,1.337,1,6,0,6,0,1,,,,,,,,,,,,,
6090578fb2299eacaec32b7a,TCR,2024-06-20_13h27.38.006,LearnStrategy,2023.2.3,Win32,163.9344262,9,1,8,0.044444444,-0.010185185,1,0,0,0.3445,rock_grid_rect_2,1,03,-1,-1,0.344,-0.168518519,-0.237037037,1,0,0,2.3802,Basalt_rect,2,2.38,0,7,0,7,0,1,,,,,,,,,,,,,
6090578fb2299eacaec32b7a,TCR,2024-06-20_13h27.38.006,LearnStrategy,2023.2.3,Win32,163.9344262,9,1,9,0.081481481,-0.006481481,1,0,0,0.7079,rock_grid_rect_2,6,06,-1,-1,0.708,-0.098148148,-0.407407407,1,0,0,0.9971,Pegmatite_rect,6,0.997,1,8,0,8,0,1,,,,,,,,,,,,,
6090578fb2299eacaec32b7a,TCR,2024-06-20_13h27.38.006,LearnStrategy,2023.2.3,Win32,163.9344262,9,1,10,0.059259259,-0.018518519,1,0,0,0.3748,rock_grid_rect_2,1,01,-1,-1,0.375,0.385185185,-0.249074074,1,0,0,2.1626,Gabbro_rect,4,2.163,0,9,0,9,0,1,,,,,,,,,,,,,
6090578fb2299eacaec32b7a,TCR,2024-06-20_13h27.38.006,LearnStrategy,2023.2.3,Win32,163.9344262,9,1,11,0.046296296,0.006481481,1,0,0,0.575,rock_grid_rect_2,4,09,-1,-1,0.575,0.409259259,-0.237037037,1,0,0,1.1788,Gabbro_rect,4,1.179,1,10,0,10,0,1,,,,,,,,,,,,,
6090578fb2299eacaec32b7a,TCR,2024-06-20_13h27.38.006,LearnStrategy,2023.2.3,Win32,163.9344262,9,1,12,0.064814815,-0.012037037,1,0,0,0.3688,rock_grid_rect_2,8,13,-1,-1,0.369,0.381481481,-0.407407407,1,0,0,0.9897,Pumice_rect,8,0.99,1,11,0,11,0,1,,,,,,,,,,,,,
6090578fb2299eacaec32b7a,TCR,2024-06-20_13h27.38.006,LearnStrategy,2023.2.3,Win32,163.9344262,9,1,13,0.019444444,0.006481481,1,0,0,0.3703,rock_grid_rect_2,2,14,-1,-1,0.37,-0.148148148,-0.255555556,1,0,0,2.4742,Basalt_rect,2,2.474,1,12,0,12,0,1,,,,,,,,,,,,,
6090578fb2299eacaec32b7a,TCR,2024-06-20_13h27.38.006,LearnStrategy,2023.2.3,Win32,163.9344262,9,1,14,0.012962963,-0.017592593,1,0,0,0.3323,rock_grid_rect_2,7,14,-1,-1,0.332,0.153703704,-0.391666667,1,0,0,2.0037,Peridotite_rect,7,2.004,1,13,0,13,0,1,,,,,,,,,,,,,
6090578fb2299eacaec32b7a,TCR,2024-06-20_13h27.38.006,LearnStrategy,2023.2.3,Win32,163.9344262,9,1,15,0.046296296,0.009259259,1,0,0,0.3444,rock_grid_rect_2,5,04,-1,-1,0.344,-0.365740741,-0.407407407,1,0,0,2.483,Obsidian_rect,5,2.483,1,14,0,14,0,1,,,,,,,,,,,,,
6090578fb2299eacaec32b7a,TCR,2024-06-20_13h27.38.006,LearnStrategy,2023.2.3,Win32,163.9344262,9,1,16,0.043518519,-0.016666667,1,0,0,0.6174,rock_grid_rect_2,3,09,-1,-1,0.617,0.15,-0.233333333,1,0,0,1.4518,Diorite_rect,3,1.452,1,15,0,15,0,1,,,,,,,,,,,,,
6090578fb2299eacaec32b7a,TCR,2024-06-20_13h27.38.006,LearnStrategy,2023.2.3,Win32,163.9344262,9,2,1,,,,,,,,4,12,,,,,,,,,,,2,3.563,0,,,,,,-0.149074074,-0.257407407,1,0,0,3.5633,Basalt_rect,0,0,0,0,1,
6090578fb2299eacaec32b7a,TCR,2024-06-20_13h27.38.006,LearnStrategy,2023.2.3,Win32,163.9344262,9,2,2,,,,,,,,6,07,,,,,,,,,,,6,1.834,1,,,,,,-0.140740741,-0.394444444,1,0,0,1.8337,Pegmatite_rect,1,0,1,0,1,
6090578fb2299eacaec32b7a,TCR,2024-06-20_13h27.38.006,LearnStrategy,2023.2.3,Win32,163.9344262,9,2,3,,,,,,,,7,13,,,,,,,,,,,7,1.076,1,,,,,,0.116666667,-0.416666667,1,0,0,1.0759,Peridotite_rect,2,0,2,0,1,
6090578fb2299eacaec32b7a,TCR,2024-06-20_13h27.38.006,LearnStrategy,2023.2.3,Win32,163.9344262,9,2,4,,,,,,,,6,16,,,,,,,,,,,6,1.914,1,,,,,,-0.092592593,-0.401851852,1,0,0,1.9138,Pegmatite_rect,3,0,3,0,1,
6090578fb2299eacaec32b7a,TCR,2024-06-20_13h27.38.006,LearnStrategy,2023.2.3,Win32,163.9344262,9,2,5,,,,,,,,7,06,,,,,,,,,,,7,1.076,1,,,,,,0.112962963,-0.391666667,1,0,0,1.076,Peridotite_rect,4,0,4,0,1,
6090578fb2299eacaec32b7a,TCR,2024-06-20_13h27.38.006,LearnStrategy,2023.2.3,Win32,163.9344262,9,2,6,,,,,,,,1,14,,,,,,,,,,,1,1.84,1,,,,,,-0.410185185,-0.246296296,1,0,0,1.8403,Andesite_rect,5,0,5,0,1,
6090578fb2299eacaec32b7a,TCR,2024-06-20_13h27.38.006,LearnStrategy,2023.2.3,Win32,163.9344262,9,2,7,,,,,,,,8,06,,,,,,,,,,,8,0.984,1,,,,,,0.378703704,-0.4,1,0,0,0.9842,Pumice_rect,6,0,6,0,1,
6090578fb2299eacaec32b7a,TCR,2024-06-20_13h27.38.006,LearnStrategy,2023.2.3,Win32,163.9344262,9,2,8,,,,,,,,2,09,,,,,,,,,,,2,1.229,1,,,,,,-0.146296296,-0.264814815,1,0,0,1.2294,Basalt_rect,7,0,7,0,1,
6090578fb2299eacaec32b7a,TCR,2024-06-20_13h27.38.006,LearnStrategy,2023.2.3,Win32,163.9344262,9,2,9,,,,,,,,4,11,,,,,,,,,,,2,5.903,0,,,,,,-0.137037037,-0.250925926,1,0,0,5.9029,Basalt_rect,8,0,8,0,1,
6090578fb2299eacaec32b7a,TCR,2024-06-20_13h27.38.006,LearnStrategy,2023.2.3,Win32,163.9344262,9,2,10,,,,,,,,3,06,,,,,,,,,,,3,1.094,1,,,,,,0.122222222,-0.260185185,1,0,0,1.0942,Diorite_rect,9,0,9,0,1,
6090578fb2299eacaec32b7a,TCR,2024-06-20_13h27.38.006,LearnStrategy,2023.2.3,Win32,163.9344262,9,2,11,,,,,,,,5,07,,,,,,,,,,,5,1.118,1,,,,,,-0.352777778,-0.381481481,1,0,0,1.1184,Obsidian_rect,10,0,10,0,1,
6090578fb2299eacaec32b7a,TCR,2024-06-20_13h27.38.006,LearnStrategy,2023.2.3,Win32,163.9344262,9,2,12,,,,,,,,1,09,,,,,,,,,,,2,1.628,0,,,,,,-0.117592593,-0.249074074,1,0,0,1.6277,Basalt_rect,11,0,11,0,1,
6090578fb2299eacaec32b7a,TCR,2024-06-20_13h27.38.006,LearnStrategy,2023.2.3,Win32,163.9344262,9,2,13,,,,,,,,3,08,,,,,,,,,,,3,4.199,1,,,,,,0.159259259,-0.236111111,1,0,0,4.1987,Diorite_rect,12,0,12,0,1,
6090578fb2299eacaec32b7a,TCR,2024-06-20_13h27.38.006,LearnStrategy,2023.2.3,Win32,163.9344262,9,2,14,,,,,,,,5,06,,,,,,,,,,,5,0.815,1,,,,,,-0.403703704,-0.408333333,1,0,0,0.8152,Obsidian_rect,13,0,13,0,1,
6090578fb2299eacaec32b7a,TCR,2024-06-20_13h27.38.006,LearnStrategy,2023.2.3,Win32,163.9344262,9,2,15,,,,,,,,2,12,,,,,,,,,,,2,0.997,1,,,,,,-0.116666667,-0.232407407,1,0,0,0.997,Basalt_rect,14,0,14,0,1,
6090578fb2299eacaec32b7a,TCR,2024-06-20_13h27.38.006,LearnStrategy,2023.2.3,Win32,163.9344262,9,2,16,,,,,,,,8,04,,,,,,,,,,,8,0.791,1,,,,,,0.412037037,-0.383333333,1,0,0,0.7911,Pumice_rect,15,0,15,0,1,
6090578fb2299eacaec32b7a,TCR,2024-06-20_13h27.38.006,LearnStrategy,2023.2.3,Win32,163.9344262,,,,,,,,,,,,,,,,,,,,,,,,,,,,,,,,,,,,,,,,,,,1
6090578fb2299eacaec32b7a,TCR,2024-06-20_13h27.38.006,LearnStrategy,2023.2.3,Win32,163.9344262,,,,,,,,,,,,,,,,,,,,,,,,,,,,,,,,,,,,,,,,,,,
6090578fb2299eacaec32b7a,TCR,2024-06-20_13h27.38.006,LearnStrategy,2023.2.3,Win32,163.9344262,,,,,,,,,,,7,05,1,1,,,,,,,,,,,,,,,,,,,,,,,,,,,,,
6090578fb2299eacaec32b7a,TCR,2024-06-20_13h27.38.006,LearnStrategy,2023.2.3,Win32,163.9344262,,,,,,,,,,,3,07,1,2,,,,,,,,,,,,,,,,,,,,,,,,,,,,,
6090578fb2299eacaec32b7a,TCR,2024-06-20_13h27.38.006,LearnStrategy,2023.2.3,Win32,163.9344262,,,,,,,,,,,7,10,1,3,,,,,,,,,,,,,,,,,,,,,,,,,,,,,
6090578fb2299eacaec32b7a,TCR,2024-06-20_13h27.38.006,LearnStrategy,2023.2.3,Win32,163.9344262,,,,,,,,,,,1,03,1,4,,,,,,,,,,,,,,,,,,,,,,,,,,,,,
6090578fb2299eacaec32b7a,TCR,2024-06-20_13h27.38.006,LearnStrategy,2023.2.3,Win32,163.9344262,,,,,,,,,,,3,14,1,5,,,,,,,,,,,,,,,,,,,,,,,,,,,,,
6090578fb2299eacaec32b7a,TCR,2024-06-20_13h27.38.006,LearnStrategy,2023.2.3,Win32,163.9344262,,,,,,,,,,,6,15,1,6,,,,,,,,,,,,,,,,,,,,,,,,,,,,,
6090578fb2299eacaec32b7a,TCR,2024-06-20_13h27.38.006,LearnStrategy,2023.2.3,Win32,163.9344262,,,,,,,,,,,5,10,1,7,,,,,,,,,,,,,,,,,,,,,,,,,,,,,
6090578fb2299eacaec32b7a,TCR,2024-06-20_13h27.38.006,LearnStrategy,2023.2.3,Win32,163.9344262,,,,,,,,,,,2,01,1,8,,,,,,,,,,,,,,,,,,,,,,,,,,,,,
6090578fb2299eacaec32b7a,TCR,2024-06-20_13h27.38.006,LearnStrategy,2023.2.3,Win32,163.9344262,,,,,,,,,,,8,10,2,1,,,,,,,,,,,,,,,,,,,,,,,,,,,,,
6090578fb2299eacaec32b7a,TCR,2024-06-20_13h27.38.006,LearnStrategy,2023.2.3,Win32,163.9344262,,,,,,,,,,,1,07,2,2,,,,,,,,,,,,,,,,,,,,,,,,,,,,,
6090578fb2299eacaec32b7a,TCR,2024-06-20_13h27.38.006,LearnStrategy,2023.2.3,Win32,163.9344262,,,,,,,,,,,2,14,2,3,,,,,,,,,,,,,,,,,,,,,,,,,,,,,
6090578fb2299eacaec32b7a,TCR,2024-06-20_13h27.38.006,LearnStrategy,2023.2.3,Win32,163.9344262,,,,,,,,,,,4,08,2,4,,,,,,,,,,,,,,,,,,,,,,,,,,,,,
6090578fb2299eacaec32b7a,TCR,2024-06-20_13h27.38.006,LearnStrategy,2023.2.3,Win32,163.9344262,,,,,,,,,,,3,15,2,5,,,,,,,,,,,,,,,,,,,,,,,,,,,,,
6090578fb2299eacaec32b7a,TCR,2024-06-20_13h27.38.006,LearnStrategy,2023.2.3,Win32,163.9344262,,,,,,,,,,,5,16,2,6,,,,,,,,,,,,,,,,,,,,,,,,,,,,,
6090578fb2299eacaec32b7a,TCR,2024-06-20_13h27.38.006,LearnStrategy,2023.2.3,Win32,163.9344262,,,,,,,,,,,2,05,2,7,,,,,,,,,,,,,,,,,,,,,,,,,,,,,
6090578fb2299eacaec32b7a,TCR,2024-06-20_13h27.38.006,LearnStrategy,2023.2.3,Win32,163.9344262,,,,,,,,,,,5,05,2,8,,,,,,,,,,,,,,,,,,,,,,,,,,,,,
6090578fb2299eacaec32b7a,TCR,2024-06-20_13h27.38.006,LearnStrategy,2023.2.3,Win32,163.9344262,,,,,,,,,,,1,11,3,1,,,,,,,,,,,,,,,,,,,,,,,,,,,,,
6090578fb2299eacaec32b7a,TCR,2024-06-20_13h27.38.006,LearnStrategy,2023.2.3,Win32,163.9344262,,,,,,,,,,,7,12,3,2,,,,,,,,,,,,,,,,,,,,,,,,,,,,,
6090578fb2299eacaec32b7a,TCR,2024-06-20_13h27.38.006,LearnStrategy,2023.2.3,Win32,163.9344262,,,,,,,,,,,4,01,3,3,,,,,,,,,,,,,,,,,,,,,,,,,,,,,
6090578fb2299eacaec32b7a,TCR,2024-06-20_13h27.38.006,LearnStrategy,2023.2.3,Win32,163.9344262,,,,,,,,,,,7,04,3,4,,,,,,,,,,,,,,,,,,,,,,,,,,,,,
6090578fb2299eacaec32b7a,TCR,2024-06-20_13h27.38.006,LearnStrategy,2023.2.3,Win32,163.9344262,,,,,,,,,,,5,09,3,5,,,,,,,,,,,,,,,,,,,,,,,,,,,,,
6090578fb2299eacaec32b7a,TCR,2024-06-20_13h27.38.006,LearnStrategy,2023.2.3,Win32,163.9344262,,,,,,,,,,,8,09,3,6,,,,,,,,,,,,,,,,,,,,,,,,,,,,,
6090578fb2299eacaec32b7a,TCR,2024-06-20_13h27.38.006,LearnStrategy,2023.2.3,Win32,163.9344262,,,,,,,,,,,6,03,3,7,,,,,,,,,,,,,,,,,,,,,,,,,,,,,
6090578fb2299eacaec32b7a,TCR,2024-06-20_13h27.38.006,LearnStrategy,2023.2.3,Win32,163.9344262,,,,,,,,,,,7,07,3,8,,,,,,,,,,,,,,,,,,,,,,,,,,,,,
6090578fb2299eacaec32b7a,TCR,2024-06-20_13h27.38.006,LearnStrategy,2023.2.3,Win32,163.9344262,,,,,,,,,,,4,03,4,1,,,,,,,,,,,,,,,,,,,,,,,,,,,,,
6090578fb2299eacaec32b7a,TCR,2024-06-20_13h27.38.006,LearnStrategy,2023.2.3,Win32,163.9344262,,,,,,,,,,,6,10,4,2,,,,,,,,,,,,,,,,,,,,,,,,,,,,,
6090578fb2299eacaec32b7a,TCR,2024-06-20_13h27.38.006,LearnStrategy,2023.2.3,Win32,163.9344262,,,,,,,,,,,4,05,4,3,,,,,,,,,,,,,,,,,,,,,,,,,,,,,
6090578fb2299eacaec32b7a,TCR,2024-06-20_13h27.38.006,LearnStrategy,2023.2.3,Win32,163.9344262,,,,,,,,,,,1,01,4,4,,,,,,,,,,,,,,,,,,,,,,,,,,,,,
6090578fb2299eacaec32b7a,TCR,2024-06-20_13h27.38.006,LearnStrategy,2023.2.3,Win32,163.9344262,,,,,,,,,,,8,02,4,5,,,,,,,,,,,,,,,,,,,,,,,,,,,,,
6090578fb2299eacaec32b7a,TCR,2024-06-20_13h27.38.006,LearnStrategy,2023.2.3,Win32,163.9344262,,,,,,,,,,,2,04,4,6,,,,,,,,,,,,,,,,,,,,,,,,,,,,,
6090578fb2299eacaec32b7a,TCR,2024-06-20_13h27.38.006,LearnStrategy,2023.2.3,Win32,163.9344262,,,,,,,,,,,8,15,4,7,,,,,,,,,,,,,,,,,,,,,,,,,,,,,
6090578fb2299eacaec32b7a,TCR,2024-06-20_13h27.38.006,LearnStrategy,2023.2.3,Win32,163.9344262,,,,,,,,,,,8,13,4,8,,,,,,,,,,,,,,,,,,,,,,,,,,,,,
6090578fb2299eacaec32b7a,TCR,2024-06-20_13h27.38.006,LearnStrategy,2023.2.3,Win32,163.9344262,,,,,,,,,,,2,11,5,1,,,,,,,,,,,,,,,,,,,,,,,,,,,,,
6090578fb2299eacaec32b7a,TCR,2024-06-20_13h27.38.006,LearnStrategy,2023.2.3,Win32,163.9344262,,,,,,,,,,,3,09,5,2,,,,,,,,,,,,,,,,,,,,,,,,,,,,,
6090578fb2299eacaec32b7a,TCR,2024-06-20_13h27.38.006,LearnStrategy,2023.2.3,Win32,163.9344262,,,,,,,,,,,6,13,5,3,,,,,,,,,,,,,,,,,,,,,,,,,,,,,
6090578fb2299eacaec32b7a,TCR,2024-06-20_13h27.38.006,LearnStrategy,2023.2.3,Win32,163.9344262,,,,,,,,,,,8,16,5,4,,,,,,,,,,,,,,,,,,,,,,,,,,,,,
6090578fb2299eacaec32b7a,TCR,2024-06-20_13h27.38.006,LearnStrategy,2023.2.3,Win32,163.9344262,,,,,,,,,,,3,10,5,5,,,,,,,,,,,,,,,,,,,,,,,,,,,,,
6090578fb2299eacaec32b7a,TCR,2024-06-20_13h27.38.006,LearnStrategy,2023.2.3,Win32,163.9344262,,,,,,,,,,,2,02,5,6,,,,,,,,,,,,,,,,,,,,,,,,,,,,,
6090578fb2299eacaec32b7a,TCR,2024-06-20_13h27.38.006,LearnStrategy,2023.2.3,Win32,163.9344262,,,,,,,,,,,4,09,5,7,,,,,,,,,,,,,,,,,,,,,,,,,,,,,
6090578fb2299eacaec32b7a,TCR,2024-06-20_13h27.38.006,LearnStrategy,2023.2.3,Win32,163.9344262,,,,,,,,,,,6,06,5,8,,,,,,,,,,,,,,,,,,,,,,,,,,,,,
6090578fb2299eacaec32b7a,TCR,2024-06-20_13h27.38.006,LearnStrategy,2023.2.3,Win32,163.9344262,,,,,,,,,,,1,10,6,1,,,,,,,,,,,,,,,,,,,,,,,,,,,,,
6090578fb2299eacaec32b7a,TCR,2024-06-20_13h27.38.006,LearnStrategy,2023.2.3,Win32,163.9344262,,,,,,,,,,,6,12,6,2,,,,,,,,,,,,,,,,,,,,,,,,,,,,,
6090578fb2299eacaec32b7a,TCR,2024-06-20_13h27.38.006,LearnStrategy,2023.2.3,Win32,163.9344262,,,,,,,,,,,1,02,6,3,,,,,,,,,,,,,,,,,,,,,,,,,,,,,
6090578fb2299eacaec32b7a,TCR,2024-06-20_13h27.38.006,LearnStrategy,2023.2.3,Win32,163.9344262,,,,,,,,,,,7,14,6,4,,,,,,,,,,,,,,,,,,,,,,,,,,,,,
6090578fb2299eacaec32b7a,TCR,2024-06-20_13h27.38.006,LearnStrategy,2023.2.3,Win32,163.9344262,,,,,,,,,,,5,14,6,5,,,,,,,,,,,,,,,,,,,,,,,,,,,,,
6090578fb2299eacaec32b7a,TCR,2024-06-20_13h27.38.006,LearnStrategy,2023.2.3,Win32,163.9344262,,,,,,,,,,,5,04,6,6,,,,,,,,,,,,,,,,,,,,,,,,,,,,,
6090578fb2299eacaec32b7a,TCR,2024-06-20_13h27.38.006,LearnStrategy,2023.2.3,Win32,163.9344262,,,,,,,,,,,4,14,6,7,,,,,,,,,,,,,,,,,,,,,,,,,,,,,
6090578fb2299eacaec32b7a,TCR,2024-06-20_13h27.38.006,LearnStrategy,2023.2.3,Win32,163.9344262,,,,,,,,,,,3,11,6,8,,,,,,,,,,,,,,,,,,,,,,,,,,,,,