participant,condition,date,expName,psychopyVersion,OS,frameRate,block,phase,trial,learn_mouse.x,learn_mouse.y,learn_mouse.leftButton,learn_mouse.midButton,learn_mouse.rightButton,learn_mouse.time,learn_mouse.clicked_name,cat,token,row,col,t_select,cat_rec,token_rec,cat_mouse_l.x,cat_mouse_l.y,cat_mouse_l.leftButton,cat_mouse_l.midButton,cat_mouse_l.rightButton,cat_mouse_l.time,cat_mouse_l.clicked_name,resp,t_resp,corr,train_trials.thisRepN,train_trials.thisTrialN,train_trials.thisN,train_trials.thisIndex,train_trials.ran,cat_mouse_t.x,cat_mouse_t.y,cat_mouse_t.leftButton,cat_mouse_t.midButton,cat_mouse_t.rightButton,cat_mouse_t.time,cat_mouse_t.clicked_name,test_trials.thisRepN,test_trials.thisTrialN,test_trials.thisN,test_trials.thisIndex,test_trials.ran,Bonus
60c8467d9872c0d83f695499,SCR,2024-06-20_16h27.27.734,LearnStrategy,2023.2.3,Win32,59.88023952,,,,,,,,,,,,,,,,,,,,,,,,,,,,,,,,,,,,,,,,,,,,,
60c8467d9872c0d83f695499,SCR,2024-06-20_16h27.27.734,LearnStrategy,2023.2.3,Win32,59.88023952,1,1,1,-0.401851824,0.427777778,1,0,0,6.1917,Diorite_02,3,02,6,2,6.192,3,02,-0.369444444,-0.387037065,1,0,0,6.4035,Obsidian_rect,5,6.403,0,0,0,0,0,1,,,,,,,,,,,,,
60c8467d9872c0d83f695499,SCR,2024-06-20_16h27.27.734,LearnStrategy,2023.2.3,Win32,59.88023952,1,1,2,-0.097222222,-0.4,1,0,0,2.462,Basalt_10,2,10,1,4,2.462,2,10,-0.042592536,-0.259259288,1,0,0,5.2642,Basalt_rect,2,5.264,1,1,0,1,0,1,,,,,,,,,,,,,
60c8467d9872c0d83f695499,SCR,2024-06-20_16h27.27.734,LearnStrategy,2023.2.3,Win32,59.88023952,1,1,3,0.348148176,0.10370369,1,0,0,1.7085,Pegmatite_11,6,11,4,7,1.709,6,11,-0.054629601,-0.396296353,1,0,0,4.1547,Pegmatite_rect,6,4.155,1,2,0,2,0,1,,,,,,,,,,,,,
60c8467d9872c0d83f695499,SCR,2024-06-20_16h27.27.734,LearnStrategy,2023.2.3,Win32,59.88023952,1,1,4,0.375925954,0.418518517,1,0,0,1.8021,Obsidian_08,5,08,6,7,1.802,5,08,-0.441666667,-0.399074131,1,0,0,3.1878,Obsidian_rect,5,3.188,1,3,0,3,0,1,,,,,,,,,,,,,
60c8467d9872c0d83f695499,SCR,2024-06-20_16h27.27.734,LearnStrategy,2023.2.3,Win32,59.88023952,1,1,5,0.251851908,0.1,1,0,0,1.0778,Andesite_11,1,11,4,6,1.078,1,11,0.402777778,-0.402777778,1,0,0,5.8488,Pumice_rect,8,5.849,0,4,0,4,0,1,,,,,,,,,,,,,
60c8467d9872c0d83f695499,SCR,2024-06-20_16h27.27.734,LearnStrategy,2023.2.3,Win32,59.88023952,1,1,6,-0.105555556,0.445370367,1,0,0,1.1464,Diorite_08,3,08,6,4,1.146,3,08,0.158333333,-0.230555556,1,0,0,4.8383,Diorite_rect,3,4.838,1,5,0,5,0,1,,,,,,,,,,,,,
60c8467d9872c0d83f695499,SCR,2024-06-20_16h27.27.734,LearnStrategy,2023.2.3,Win32,59.88023952,1,1,7,0.249074131,0.430555556,1,0,0,1.8975,Obsidian_10,5,10,6,6,1.898,5,10,0.433333333,-0.234259288,1,0,0,2.2165,Gabbro_rect,4,2.216,0,6,0,6,0,1,,,,,,,,,,,,,
60c8467d9872c0d83f695499,SCR,2024-06-20_16h27.27.734,LearnStrategy,2023.2.3,Win32,59.88023952,1,1,8,-0.534259245,-0.134259288,1,0,0,1.2171,Pegmatite_06,6,06,3,1,1.217,6,06,-0.141666667,-0.260185242,1,0,0,5.6917,Basalt_rect,2,5.692,0,7,0,7,0,1,,,,,,,,,,,,,
60c8467d9872c0d83f695499,SCR,2024-06-20_16h27.27.734,LearnStrategy,2023.2.3,Win32,59.88023952,1,1,9,-0.204629601,-0.232407464,1,0,0,2.9625,Andesite_01,1,01,2,3,2.962,1,01,0.105555556,-0.399074131,1,0,0,3.6341,Peridotite_rect,7,3.634,0,8,0,8,0,1,,,,,,,,,,,,,
60c8467d9872c0d83f695499,SCR,2024-06-20_16h27.27.734,LearnStrategy,2023.2.3,Win32,59.88023952,1,1,10,-0.548148134,0.463888889,1,0,0,1.1615,Basalt_02,2,02,6,1,1.161,2,02,-0.167592536,-0.395370399,1,0,0,5.5469,Pegmatite_rect,6,5.547,0,9,0,9,0,1,,,,,,,,,,,,,
60c8467d9872c0d83f695499,SCR,2024-06-20_16h27.27.734,LearnStrategy,2023.2.3,Win32,59.88023952,1,1,11,-0.063888889,-0.112962977,1,0,0,1.1296,Gabbro_11,4,11,3,4,1.13,4,11,0.490740797,-0.250925954,1,0,0,3.3754,Gabbro_rect,4,3.375,1,10,0,10,0,1,,,,,,,,,,,,,
60c8467d9872c0d83f695499,SCR,2024-06-20_16h27.27.734,LearnStrategy,2023.2.3,Win32,59.88023952,1,1,12,-0.500925912,0.2074074,1,0,0,0.8506,Peridotite_08,7,08,5,1,0.851,7,08,-0.115740712,-0.228703732,1,0,0,2.843,Basalt_rect,2,2.843,0,11,0,11,0,1,,,,,,,,,,,,,
60c8467d9872c0d83f695499,SCR,2024-06-20_16h27.27.734,LearnStrategy,2023.2.3,Win32,59.88023952,1,1,13,0.414814843,0.2574074,1,0,0,1.099,Peridotite_10,7,10,5,7,1.099,7,10,0.189814843,-0.420370399,1,0,0,3.8899,Peridotite_rect,7,3.89,1,12,0,12,0,1,,,,,,,,,,,,,
60c8467d9872c0d83f695499,SCR,2024-06-20_16h27.27.734,LearnStrategy,2023.2.3,Win32,59.88023952,1,1,14,0.127777778,0.084259245,1,0,0,0.8163,Pumice_13,8,13,4,5,0.816,8,13,-0.075925869,-0.40648151,1,0,0,3.1193,Pegmatite_rect,6,3.119,0,13,0,13,0,1,,,,,,,,,,,,,
60c8467d9872c0d83f695499,SCR,2024-06-20_16h27.27.734,LearnStrategy,2023.2.3,Win32,59.88023952,1,1,15,-0.046296268,0.073148134,1,0,0,1.0944,Gabbro_08,4,08,4,4,1.094,4,08,-0.122222222,-0.233333333,1,0,0,5.6906,Basalt_rect,2,5.691,0,14,0,14,0,1,,,,,,,,,,,,,
60c8467d9872c0d83f695499,SCR,2024-06-20_16h27.27.734,LearnStrategy,2023.2.3,Win32,59.88023952,1,1,16,-0.256481467,0.1,1,0,0,3.7243,Pumice_06,8,06,4,3,3.724,8,06,0.364814843,-0.384259288,1,0,0,2.0681,Pumice_rect,8,2.068,1,15,0,15,0,1,,,,,,,,,,,,,
60c8467d9872c0d83f695499,SCR,2024-06-20_16h27.27.734,LearnStrategy,2023.2.3,Win32,59.88023952,1,2,1,,,,,,,,2,16,,,,,,,,,,,,,6,12.846,0,,,,,,-0.080555556,-0.40648151,1,0,0,12.8457,Pegmatite_rect,0,0,0,0,1,
60c8467d9872c0d83f695499,SCR,2024-06-20_16h27.27.734,LearnStrategy,2023.2.3,Win32,59.88023952,1,2,2,,,,,,,,2,06,,,,,,,,,,,,,5,8.507,0,,,,,,-0.360185157,-0.396296353,1,0,0,8.5074,Obsidian_rect,1,0,1,0,1,
60c8467d9872c0d83f695499,SCR,2024-06-20_16h27.27.734,LearnStrategy,2023.2.3,Win32,59.88023952,1,2,3,,,,,,,,7,04,,,,,,,,,,,,,2,3.123,0,,,,,,-0.087036981,-0.260185242,1,0,0,3.1227,Basalt_rect,2,0,2,0,1,
60c8467d9872c0d83f695499,SCR,2024-06-20_16h27.27.734,LearnStrategy,2023.2.3,Win32,59.88023952,1,2,4,,,,,,,,3,13,,,,,,,,,,,,,6,4.387,0,,,,,,-0.063888889,-0.412037065,1,0,0,4.3867,Pegmatite_rect,3,0,3,0,1,
60c8467d9872c0d83f695499,SCR,2024-06-20_16h27.27.734,LearnStrategy,2023.2.3,Win32,59.88023952,1,2,5,,,,,,,,5,09,,,,,,,,,,,,,5,1.144,1,,,,,,-0.39351849,-0.383333333,1,0,0,1.144,Obsidian_rect,4,0,4,0,1,
60c8467d9872c0d83f695499,SCR,2024-06-20_16h27.27.734,LearnStrategy,2023.2.3,Win32,59.88023952,1,2,6,,,,,,,,3,10,,,,,,,,,,,,,1,37.168,0,,,,,,-0.377777778,-0.255555556,1,0,0,37.1675,Andesite_rect,5,0,5,0,1,
60c8467d9872c0d83f695499,SCR,2024-06-20_16h27.27.734,LearnStrategy,2023.2.3,Win32,59.88023952,1,2,7,,,,,,,,1,16,,,,,,,,,,,,,3,2.553,0,,,,,,0.132407464,-0.264814843,1,0,0,2.5535,Diorite_rect,6,0,6,0,1,
60c8467d9872c0d83f695499,SCR,2024-06-20_16h27.27.734,LearnStrategy,2023.2.3,Win32,59.88023952,1,2,8,,,,,,,,8,05,,,,,,,,,,,,,8,2.527,1,,,,,,0.417592621,-0.410185242,1,0,0,2.5273,Pumice_rect,7,0,7,0,1,
60c8467d9872c0d83f695499,SCR,2024-06-20_16h27.27.734,LearnStrategy,2023.2.3,Win32,59.88023952,1,2,9,,,,,,,,6,08,,,,,,,,,,,,,5,2.199,0,,,,,,-0.337962935,-0.392592621,1,0,0,2.1994,Obsidian_rect,8,0,8,0,1,
60c8467d9872c0d83f695499,SCR,2024-06-20_16h27.27.734,LearnStrategy,2023.2.3,Win32,59.88023952,1,2,10,,,,,,,,8,10,,,,,,,,,,,,,8,1.402,1,,,,,,0.340740797,-0.40648151,1,0,0,1.4019,Pumice_rect,9,0,9,0,1,
60c8467d9872c0d83f695499,SCR,2024-06-20_16h27.27.734,LearnStrategy,2023.2.3,Win32,59.88023952,1,2,11,,,,,,,,5,14,,,,,,,,,,,,,5,1.048,1,,,,,,-0.462037023,-0.400925954,1,0,0,1.0476,Obsidian_rect,10,0,10,0,1,
60c8467d9872c0d83f695499,SCR,2024-06-20_16h27.27.734,LearnStrategy,2023.2.3,Win32,59.88023952,1,2,12,,,,,,,,1,04,,,,,,,,,,,,,8,8.958,0,,,,,,0.405555556,-0.389814843,1,0,0,8.9581,Pumice_rect,11,0,11,0,1,
60c8467d9872c0d83f695499,SCR,2024-06-20_16h27.27.734,LearnStrategy,2023.2.3,Win32,59.88023952,1,2,13,,,,,,,,6,13,,,,,,,,,,,,,5,2.81,0,,,,,,-0.310185157,-0.38148151,1,0,0,2.8099,Obsidian_rect,12,0,12,0,1,
60c8467d9872c0d83f695499,SCR,2024-06-20_16h27.27.734,LearnStrategy,2023.2.3,Win32,59.88023952,1,2,14,,,,,,,,4,03,,,,,,,,,,,,,1,15.616,0,,,,,,-0.354629601,-0.266666667,1,0,0,15.6162,Andesite_rect,13,0,13,0,1,
60c8467d9872c0d83f695499,SCR,2024-06-20_16h27.27.734,LearnStrategy,2023.2.3,Win32,59.88023952,1,2,15,,,,,,,,4,15,,,,,,,,,,,,,1,2.117,0,,,,,,-0.345370356,-0.228703732,1,0,0,2.1168,Andesite_rect,14,0,14,0,1,
60c8467d9872c0d83f695499,SCR,2024-06-20_16h27.27.734,LearnStrategy,2023.2.3,Win32,59.88023952,1,2,16,,,,,,,,7,13,,,,,,,,,,,,,2,24.456,0,,,,,,-0.174074046,-0.262037065,1,0,0,24.4561,Basalt_rect,15,0,15,0,1,
60c8467d9872c0d83f695499,SCR,2024-06-20_16h27.27.734,LearnStrategy,2023.2.3,Win32,59.88023952,2,1,1,0.205555556,-0.421296353,1,0,0,2.523,Obsidian_05,5,05,1,6,2.523,5,05,-0.321296268,-0.401851908,1,0,0,5.0916,Obsidian_rect,5,5.092,1,0,0,0,0,1,,,,,,,,,,,,,
60c8467d9872c0d83f695499,SCR,2024-06-20_16h27.27.734,LearnStrategy,2023.2.3,Win32,59.88023952,2,1,2,0.382407464,0.139814801,1,0,0,0.9288,Pegmatite_11,6,11,4,7,0.929,6,11,-0.339814801,-0.383333333,1,0,0,2.4302,Obsidian_rect,5,2.43,0,1,0,1,0,1,,,,,,,,,,,,,
60c8467d9872c0d83f695499,SCR,2024-06-20_16h27.27.734,LearnStrategy,2023.2.3,Win32,59.88023952,2,1,3,0.033333333,0.25,1,0,0,1.3073,Pegmatite_05,6,05,5,5,1.307,6,05,0.129629686,-0.255555556,1,0,0,6.5078,Diorite_rect,3,6.508,0,2,0,2,0,1,,,,,,,,,,,,,
60c8467d9872c0d83f695499,SCR,2024-06-20_16h27.27.734,LearnStrategy,2023.2.3,Win32,59.88023952,2,1,4,-0.434259245,-0.074074088,1,0,0,2.428,Diorite_15,3,15,3,2,2.428,3,15,-0.358333333,-0.25,1,0,0,5.0848,Andesite_rect,1,5.085,0,3,0,3,0,1,,,,,,,,,,,,,
60c8467d9872c0d83f695499,SCR,2024-06-20_16h27.27.734,LearnStrategy,2023.2.3,Win32,59.88023952,2,1,5,0.264814843,-0.130555556,1,0,0,1.0805,Gabbro_14,4,14,3,6,1.081,4,14,-0.090740712,-0.238888889,1,0,0,4.4514,Basalt_rect,2,4.451,0,4,0,4,0,1,,,,,,,,,,,,,
60c8467d9872c0d83f695499,SCR,2024-06-20_16h27.27.734,LearnStrategy,2023.2.3,Win32,59.88023952,2,1,6,0.211111111,0.214814801,1,0,0,0.9198,Basalt_12,2,12,5,6,0.92,2,12,0.330555556,-0.383333333,1,0,0,1.6448,Pumice_rect,8,1.645,0,5,0,5,0,1,,,,,,,,,,,,,
60c8467d9872c0d83f695499,SCR,2024-06-20_16h27.27.734,LearnStrategy,2023.2.3,Win32,59.88023952,2,1,7,0.089814843,-0.083333333,1,0,0,0.906,Andesite_06,1,06,3,5,0.906,1,06,-0.067592536,-0.387963019,1,0,0,3.0754,Pegmatite_rect,6,3.075,0,6,0,6,0,1,,,,,,,,,,,,,
60c8467d9872c0d83f695499,SCR,2024-06-20_16h27.27.734,LearnStrategy,2023.2.3,Win32,59.88023952,2,1,8,0.362963019,0.064814801,1,0,0,0.8637,Pegmatite_11,6,11,4,7,0.864,6,11,0.130555556,-0.269444444,1,0,0,4.4915,Diorite_rect,3,4.491,0,7,0,7,0,1,,,,,,,,,,,,,
60c8467d9872c0d83f695499,SCR,2024-06-20_16h27.27.734,LearnStrategy,2023.2.3,Win32,59.88023952,2,1,9,-0.411111111,-0.453703732,1,0,0,0.9042,Andesite_09,1,09,1,2,0.904,1,09,-0.071296268,-0.397222222,1,0,0,3.6342,Pegmatite_rect,6,3.634,0,8,0,8,0,1,,,,,,,,,,,,,
60c8467d9872c0d83f695499,SCR,2024-06-20_16h27.27.734,LearnStrategy,2023.2.3,Win32,59.88023952,2,1,10,-0.116666667,0.415740739,1,0,0,1.3697,Diorite_08,3,08,6,4,1.37,3,08,-0.052777778,-0.243518575,1,0,0,8.0111,Basalt_rect,2,8.011,0,9,0,9,0,1,,,,,,,,,,,,,
60c8467d9872c0d83f695499,SCR,2024-06-20_16h27.27.734,LearnStrategy,2023.2.3,Win32,59.88023952,2,1,11,-0.562037023,0.431481478,1,0,0,1.0754,Basalt_02,2,02,6,1,1.075,2,02,0.179629686,-0.411111111,1,0,0,5.265,Peridotite_rect,7,5.265,0,10,0,10,0,1,,,,,,,,,,,,,
60c8467d9872c0d83f695499,SCR,2024-06-20_16h27.27.734,LearnStrategy,2023.2.3,Win32,59.88023952,2,1,12,0.269444444,-0.083333333,1,0,0,1.3157,Gabbro_14,4,14,3,6,1.316,4,14,0.384259288,-0.260185242,1,0,0,7.5933,Gabbro_rect,4,7.593,1,11,0,11,0,1,,,,,,,,,,,,,
60c8467d9872c0d83f695499,SCR,2024-06-20_16h27.27.734,LearnStrategy,2023.2.3,Win32,59.88023952,2,1,13,-0.355555556,0.217592578,1,0,0,0.97,Andesite_02,1,02,5,2,0.97,1,02,-0.349074046,-0.250925954,1,0,0,4.2891,Andesite_rect,1,4.289,1,12,0,12,0,1,,,,,,,,,,,,,
60c8467d9872c0d83f695499,SCR,2024-06-20_16h27.27.734,LearnStrategy,2023.2.3,Win32,59.88023952,2,1,14,0.213888889,-0.268518575,1,0,0,0.9901,Peridotite_07,7,07,2,6,0.99,7,07,0.335185242,-0.413888889,1,0,0,3.047,Pumice_rect,8,3.047,0,13,0,13,0,1,,,,,,,,,,,,,
60c8467d9872c0d83f695499,SCR,2024-06-20_16h27.27.734,LearnStrategy,2023.2.3,Win32,59.88023952,2,1,15,-0.265740712,0.27870369,1,0,0,0.8798,Basalt_04,2,04,5,3,0.88,2,04,-0.062036981,-0.254629686,1,0,0,3.0598,Basalt_rect,2,3.06,1,14,0,14,0,1,,,,,,,,,,,,,
60c8467d9872c0d83f695499,SCR,2024-06-20_16h27.27.734,LearnStrategy,2023.2.3,Win32,59.88023952,2,1,16,-0.121296268,0.291666667,1,0,0,1.3434,Peridotite_15,7,15,5,4,1.343,7,15,-0.354629601,-0.228703732,1,0,0,2.0271,Andesite_rect,1,2.027,0,15,0,15,0,1,,,,,,,,,,,,,
60c8467d9872c0d83f695499,SCR,2024-06-20_16h27.27.734,LearnStrategy,2023.2.3,Win32,59.88023952,2,2,1,,,,,,,,6,09,,,,,,,,,,,,,6,11.312,1,,,,,,-0.09351849,-0.412037065,1,0,0,11.3115,Pegmatite_rect,0,0,0,0,1,
60c8467d9872c0d83f695499,SCR,2024-06-20_16h27.27.734,LearnStrategy,2023.2.3,Win32,59.88023952,2,2,2,,,,,,,,8,09,,,,,,,,,,,,,8,4.355,1,,,,,,0.342592621,-0.410185242,1,0,0,4.3551,Pumice_rect,1,0,1,0,1,
60c8467d9872c0d83f695499,SCR,2024-06-20_16h27.27.734,LearnStrategy,2023.2.3,Win32,59.88023952,2,2,3,,,,,,,,3,14,,,,,,,,,,,,,7,6.063,0,,,,,,0.120370399,-0.402777778,1,0,0,6.0632,Peridotite_rect,2,0,2,0,1,
60c8467d9872c0d83f695499,SCR,2024-06-20_16h27.27.734,LearnStrategy,2023.2.3,Win32,59.88023952,2,2,4,,,,,,,,7,02,,,,,,,,,,,,,6,1.748,0,,,,,,-0.134259203,-0.404629686,1,0,0,1.7483,Pegmatite_rect,3,0,3,0,1,
60c8467d9872c0d83f695499,SCR,2024-06-20_16h27.27.734,LearnStrategy,2023.2.3,Win32,59.88023952,2,2,5,,,,,,,,7,12,,,,,,,,,,,,,1,1.217,0,,,,,,-0.336111111,-0.262963019,1,0,0,1.2168,Andesite_rect,4,0,4,0,1,
60c8467d9872c0d83f695499,SCR,2024-06-20_16h27.27.734,LearnStrategy,2023.2.3,Win32,59.88023952,2,2,6,,,,,,,,1,07,,,,,,,,,,,,,6,2.47,0,,,,,,-0.102777778,-0.409259288,1,0,0,2.4698,Pegmatite_rect,5,0,5,0,1,
60c8467d9872c0d83f695499,SCR,2024-06-20_16h27.27.734,LearnStrategy,2023.2.3,Win32,59.88023952,2,2,7,,,,,,,,5,07,,,,,,,,,,,,,5,3.108,1,,,,,,-0.361111111,-0.413888889,1,0,0,3.108,Obsidian_rect,6,0,6,0,1,
60c8467d9872c0d83f695499,SCR,2024-06-20_16h27.27.734,LearnStrategy,2023.2.3,Win32,59.88023952,2,2,8,,,,,,,,4,01,,,,,,,,,,,,,3,6.007,0,,,,,,0.178703732,-0.261111111,1,0,0,6.0071,Diorite_rect,7,0,7,0,1,
60c8467d9872c0d83f695499,SCR,2024-06-20_16h27.27.734,LearnStrategy,2023.2.3,Win32,59.88023952,2,2,9,,,,,,,,4,13,,,,,,,,,,,,,4,3.515,1,,,,,,0.410185242,-0.251851908,1,0,0,3.5146,Gabbro_rect,8,0,8,0,1,
60c8467d9872c0d83f695499,SCR,2024-06-20_16h27.27.734,LearnStrategy,2023.2.3,Win32,59.88023952,2,2,10,,,,,,,,3,11,,,,,,,,,,,,,1,4.574,0,,,,,,-0.312962935,-0.259259288,1,0,0,4.5736,Andesite_rect,9,0,9,0,1,
60c8467d9872c0d83f695499,SCR,2024-06-20_16h27.27.734,LearnStrategy,2023.2.3,Win32,59.88023952,2,2,11,,,,,,,,2,08,,,,,,,,,,,,,4,4.775,0,,,,,,0.369444444,-0.235185242,1,0,0,4.7748,Gabbro_rect,10,0,10,0,1,
60c8467d9872c0d83f695499,SCR,2024-06-20_16h27.27.734,LearnStrategy,2023.2.3,Win32,59.88023952,2,2,12,,,,,,,,1,03,,,,,,,,,,,,,7,4.657,0,,,,,,0.148148176,-0.418518575,1,0,0,4.6566,Peridotite_rect,11,0,11,0,1,
60c8467d9872c0d83f695499,SCR,2024-06-20_16h27.27.734,LearnStrategy,2023.2.3,Win32,59.88023952,2,2,13,,,,,,,,2,01,,,,,,,,,,,,,4,4.48,0,,,,,,0.388888889,-0.262963019,1,0,0,4.4804,Gabbro_rect,12,0,12,0,1,
60c8467d9872c0d83f695499,SCR,2024-06-20_16h27.27.734,LearnStrategy,2023.2.3,Win32,59.88023952,2,2,14,,,,,,,,6,15,,,,,,,,,,,,,1,2.939,0,,,,,,-0.317592578,-0.237963019,1,0,0,2.939,Andesite_rect,13,0,13,0,1,
60c8467d9872c0d83f695499,SCR,2024-06-20_16h27.27.734,LearnStrategy,2023.2.3,Win32,59.88023952,2,2,15,,,,,,,,8,15,,,,,,,,,,,,,8,1.397,1,,,,,,0.460185242,-0.400925954,1,0,0,1.3968,Pumice_rect,14,0,14,0,1,
60c8467d9872c0d83f695499,SCR,2024-06-20_16h27.27.734,LearnStrategy,2023.2.3,Win32,59.88023952,2,2,16,,,,,,,,5,06,,,,,,,,,,,,,5,1.734,1,,,,,,-0.425925912,-0.421296353,1,0,0,1.734,Obsidian_rect,15,0,15,0,1,
60c8467d9872c0d83f695499,SCR,2024-06-20_16h27.27.734,LearnStrategy,2023.2.3,Win32,59.88023952,3,1,1,-0.400925912,0.419444444,1,0,0,1.039,Diorite_02,3,02,6,2,1.039,3,02,0.372222222,-0.414814843,1,0,0,8.1897,Pumice_rect,8,8.19,0,0,0,0,0,1,,,,,,,,,,,,,
60c8467d9872c0d83f695499,SCR,2024-06-20_16h27.27.734,LearnStrategy,2023.2.3,Win32,59.88023952,3,1,2,-0.241666667,0.242592578,1,0,0,0.936,Basalt_04,2,04,5,3,0.936,2,04,0.434259288,-0.248148176,1,0,0,1.3527,Gabbro_rect,4,1.353,0,1,0,1,0,1,,,,,,,,,,,,,
60c8467d9872c0d83f695499,SCR,2024-06-20_16h27.27.734,LearnStrategy,2023.2.3,Win32,59.88023952,3,1,3,0.112963019,0.423148145,1,0,0,6.7268,Pegmatite_10,6,10,6,5,6.727,6,10,-0.345370356,-0.393518575,1,0,0,4.5774,Obsidian_rect,5,4.577,0,2,0,2,0,1,,,,,,,,,,,,,
60c8467d9872c0d83f695499,SCR,2024-06-20_16h27.27.734,LearnStrategy,2023.2.3,Win32,59.88023952,3,1,4,-0.084259203,-0.419444444,1,0,0,1.4017,Basalt_10,2,10,1,4,1.402,2,10,-0.169444444,-0.259259288,1,0,0,1.7932,Basalt_rect,2,1.793,1,3,0,3,0,1,,,,,,,,,,,,,
60c8467d9872c0d83f695499,SCR,2024-06-20_16h27.27.734,LearnStrategy,2023.2.3,Win32,59.88023952,3,1,5,-0.433333333,0.247222222,1,0,0,1.2535,Andesite_02,1,02,5,2,1.254,1,02,-0.391666667,-0.246296353,1,0,0,2.9396,Andesite_rect,1,2.94,1,4,0,4,0,1,,,,,,,,,,,,,
60c8467d9872c0d83f695499,SCR,2024-06-20_16h27.27.734,LearnStrategy,2023.2.3,Win32,59.88023952,3,1,6,0.364814843,0.265740734,1,0,0,1.104,Peridotite_10,7,10,5,7,1.104,7,10,-0.060185157,-0.386111111,1,0,0,2.8921,Pegmatite_rect,6,2.892,0,5,0,5,0,1,,,,,,,,,,,,,
60c8467d9872c0d83f695499,SCR,2024-06-20_16h27.27.734,LearnStrategy,2023.2.3,Win32,59.88023952,3,1,7,-0.20370369,0.27870369,1,0,0,1.5649,Basalt_04,2,04,5,3,1.565,2,04,-0.080555556,-0.261111111,1,0,0,1.772,Basalt_rect,2,1.772,1,6,0,6,0,1,,,,,,,,,,,,,
60c8467d9872c0d83f695499,SCR,2024-06-20_16h27.27.734,LearnStrategy,2023.2.3,Win32,59.88023952,3,1,8,-0.361111111,-0.414814843,1,0,0,0.9556,Andesite_09,1,09,1,2,0.956,1,09,0.183333333,-0.403703732,1,0,0,4.7853,Peridotite_rect,7,4.785,0,7,0,7,0,1,,,,,,,,,,,,,
60c8467d9872c0d83f695499,SCR,2024-06-20_16h27.27.734,LearnStrategy,2023.2.3,Win32,59.88023952,3,1,9,-0.433333333,0.3787037,1,0,0,1.4721,Diorite_02,3,02,6,2,1.472,3,02,-0.100925869,-0.396296353,1,0,0,2.5988,Pegmatite_rect,6,2.599,0,8,0,8,0,1,,,,,,,,,,,,,
60c8467d9872c0d83f695499,SCR,2024-06-20_16h27.27.734,LearnStrategy,2023.2.3,Win32,59.88023952,3,1,10,-0.263888889,0.433333333,1,0,0,2.1764,Andesite_14,1,14,6,3,2.176,1,14,-0.37870369,-0.255555556,1,0,0,2.1304,Andesite_rect,1,2.13,1,9,0,9,0,1,,,,,,,,,,,,,
60c8467d9872c0d83f695499,SCR,2024-06-20_16h27.27.734,LearnStrategy,2023.2.3,Win32,59.88023952,3,1,11,0.100925954,-0.440740797,1,0,0,0.882,Gabbro_12,4,12,1,5,0.882,4,12,-0.072222222,-0.40648151,1,0,0,2.7653,Pegmatite_rect,6,2.765,0,10,0,10,0,1,,,,,,,,,,,,,
60c8467d9872c0d83f695499,SCR,2024-06-20_16h27.27.734,LearnStrategy,2023.2.3,Win32,59.88023952,3,1,12,0.535185242,0.246296289,1,0,0,0.9246,Pegmatite_03,6,03,5,8,0.925,6,03,0.136111111,-0.262037065,1,0,0,4.103,Diorite_rect,3,4.103,0,11,0,11,0,1,,,,,,,,,,,,,
60c8467d9872c0d83f695499,SCR,2024-06-20_16h27.27.734,LearnStrategy,2023.2.3,Win32,59.88023952,3,1,13,0.590740797,-0.266666667,1,0,0,1.0805,Diorite_12,3,12,2,8,1.081,3,12,0.111111111,-0.40648151,1,0,0,3.4774,Peridotite_rect,7,3.477,0,12,0,12,0,1,,,,,,,,,,,,,
60c8467d9872c0d83f695499,SCR,2024-06-20_16h27.27.734,LearnStrategy,2023.2.3,Win32,59.88023952,3,1,14,-0.109259203,0.292592578,1,0,0,1.2855,Peridotite_15,7,15,5,4,1.286,7,15,0.121296353,-0.237963019,1,0,0,3.9364,Diorite_rect,3,3.936,0,13,0,13,0,1,,,,,,,,,,,,,
60c8467d9872c0d83f695499,SCR,2024-06-20_16h27.27.734,LearnStrategy,2023.2.3,Win32,59.88023952,3,1,15,0.221296353,-0.258333333,1,0,0,1.4624,Peridotite_07,7,07,2,6,1.462,7,07,0.377777778,-0.241666667,1,0,0,11.2225,Gabbro_rect,4,11.222,0,14,0,14,0,1,,,,,,,,,,,,,
60c8467d9872c0d83f695499,SCR,2024-06-20_16h27.27.734,LearnStrategy,2023.2.3,Win32,59.88023952,3,1,16,0.185185242,-0.082407422,1,0,0,0.9673,Gabbro_14,4,14,3,6,0.967,4,14,-0.048148092,-0.257407464,1,0,0,3.068,Basalt_rect,2,3.068,0,15,0,15,0,1,,,,,,,,,,,,,
60c8467d9872c0d83f695499,SCR,2024-06-20_16h27.27.734,LearnStrategy,2023.2.3,Win32,59.88023952,3,2,1,,,,,,,,5,04,,,,,,,,,,,,,5,2.739,1,,,,,,-0.370370356,-0.402777778,1,0,0,2.7394,Obsidian_rect,0,0,0,0,1,
60c8467d9872c0d83f695499,SCR,2024-06-20_16h27.27.734,LearnStrategy,2023.2.3,Win32,59.88023952,3,2,2,,,,,,,,4,05,,,,,,,,,,,,,3,9.327,0,,,,,,0.136111111,-0.266666667,1,0,0,9.3267,Diorite_rect,1,0,1,0,1,
60c8467d9872c0d83f695499,SCR,2024-06-20_16h27.27.734,LearnStrategy,2023.2.3,Win32,59.88023952,3,2,3,,,,,,,,6,12,,,,,,,,,,,,,2,3.292,0,,,,,,-0.103703647,-0.250925954,1,0,0,3.2924,Basalt_rect,2,0,2,0,1,
60c8467d9872c0d83f695499,SCR,2024-06-20_16h27.27.734,LearnStrategy,2023.2.3,Win32,59.88023952,3,2,4,,,,,,,,2,05,,,,,,,,,,,,,2,4.406,1,,,,,,-0.048148092,-0.253703732,1,0,0,4.4065,Basalt_rect,3,0,3,0,1,
60c8467d9872c0d83f695499,SCR,2024-06-20_16h27.27.734,LearnStrategy,2023.2.3,Win32,59.88023952,3,2,5,,,,,,,,3,06,,,,,,,,,,,,,1,2.493,0,,,,,,-0.417592578,-0.238888889,1,0,0,2.4932,Andesite_rect,4,0,4,0,1,
60c8467d9872c0d83f695499,SCR,2024-06-20_16h27.27.734,LearnStrategy,2023.2.3,Win32,59.88023952,3,2,6,,,,,,,,8,16,,,,,,,,,,,,,8,1.54,1,,,,,,0.35,-0.402777778,1,0,0,1.5399,Pumice_rect,5,0,5,0,1,
60c8467d9872c0d83f695499,SCR,2024-06-20_16h27.27.734,LearnStrategy,2023.2.3,Win32,59.88023952,3,2,7,,,,,,,,3,07,,,,,,,,,,,,,7,8.002,0,,,,,,0.118518575,-0.401851908,1,0,0,8.0023,Peridotite_rect,6,0,6,0,1,
60c8467d9872c0d83f695499,SCR,2024-06-20_16h27.27.734,LearnStrategy,2023.2.3,Win32,59.88023952,3,2,8,,,,,,,,2,09,,,,,,,,,,,,,2,8.632,1,,,,,,-0.065740712,-0.243518575,1,0,0,8.632,Basalt_rect,7,0,7,0,1,
60c8467d9872c0d83f695499,SCR,2024-06-20_16h27.27.734,LearnStrategy,2023.2.3,Win32,59.88023952,3,2,9,,,,,,,,1,10,,,,,,,,,,,,,4,1.832,0,,,,,,0.370370399,-0.250925954,1,0,0,1.8321,Gabbro_rect,8,0,8,0,1,
60c8467d9872c0d83f695499,SCR,2024-06-20_16h27.27.734,LearnStrategy,2023.2.3,Win32,59.88023952,3,2,10,,,,,,,,8,14,,,,,,,,,,,,,8,1.091,1,,,,,,0.451851908,-0.420370399,1,0,0,1.0913,Pumice_rect,9,0,9,0,1,
60c8467d9872c0d83f695499,SCR,2024-06-20_16h27.27.734,LearnStrategy,2023.2.3,Win32,59.88023952,3,2,11,,,,,,,,7,16,,,,,,,,,,,,,3,9.022,0,,,,,,0.144444444,-0.261111111,1,0,0,9.0216,Diorite_rect,10,0,10,0,1,
60c8467d9872c0d83f695499,SCR,2024-06-20_16h27.27.734,LearnStrategy,2023.2.3,Win32,59.88023952,3,2,12,,,,,,,,1,05,,,,,,,,,,,,,1,3.614,1,,,,,,-0.358333333,-0.255555556,1,0,0,3.6143,Andesite_rect,11,0,11,0,1,
60c8467d9872c0d83f695499,SCR,2024-06-20_16h27.27.734,LearnStrategy,2023.2.3,Win32,59.88023952,3,2,13,,,,,,,,6,07,,,,,,,,,,,,,3,2.892,0,,,,,,0.099074131,-0.244444444,1,0,0,2.8923,Diorite_rect,12,0,12,0,1,
60c8467d9872c0d83f695499,SCR,2024-06-20_16h27.27.734,LearnStrategy,2023.2.3,Win32,59.88023952,3,2,14,,,,,,,,4,09,,,,,,,,,,,,,4,2.66,1,,,,,,0.358333333,-0.233333333,1,0,0,2.6596,Gabbro_rect,13,0,13,0,1,
60c8467d9872c0d83f695499,SCR,2024-06-20_16h27.27.734,LearnStrategy,2023.2.3,Win32,59.88023952,3,2,15,,,,,,,,7,14,,,,,,,,,,,,,8,1.842,0,,,,,,0.338888889,-0.392592621,1,0,0,1.8417,Pumice_rect,14,0,14,0,1,
60c8467d9872c0d83f695499,SCR,2024-06-20_16h27.27.734,LearnStrategy,2023.2.3,Win32,59.88023952,3,2,16,,,,,,,,5,16,,,,,,,,,,,,,5,2.161,1,,,,,,-0.335185157,-0.40648151,1,0,0,2.1615,Obsidian_rect,15,0,15,0,1,
60c8467d9872c0d83f695499,SCR,2024-06-20_16h27.27.734,LearnStrategy,2023.2.3,Win32,59.88023952,4,1,1,0.385185242,-0.093518533,1,0,0,2.8085,Peridotite_05,7,05,3,7,2.808,7,05,0.049074131,-0.397222222,1,0,0,12.6874,Peridotite_rect,7,12.687,1,0,0,0,0,1,,,,,,,,,,,,,
60c8467d9872c0d83f695499,SCR,2024-06-20_16h27.27.734,LearnStrategy,2023.2.3,Win32,59.88023952,4,1,2,-0.588888889,0.249074067,1,0,0,1.2627,Peridotite_08,7,08,5,1,1.263,7,08,-0.103703647,-0.407407464,1,0,0,1.553,Pegmatite_rect,6,1.553,0,1,0,1,0,1,,,,,,,,,,,,,
60c8467d9872c0d83f695499,SCR,2024-06-20_16h27.27.734,LearnStrategy,2023.2.3,Win32,59.88023952,4,1,3,-0.437962935,0.424074072,1,0,0,0.9455,Diorite_02,3,02,6,2,0.946,3,02,0.103703732,-0.243518575,1,0,0,2.8297,Diorite_rect,3,2.83,1,2,0,2,0,1,,,,,,,,,,,,,
60c8467d9872c0d83f695499,SCR,2024-06-20_16h27.27.734,LearnStrategy,2023.2.3,Win32,59.88023952,4,1,4,0.364814843,0.283333333,1,0,0,0.9473,Peridotite_10,7,10,5,7,0.947,7,10,0.134259288,-0.407407464,1,0,0,2.7995,Peridotite_rect,7,2.8,1,3,0,3,0,1,,,,,,,,,,,,,
60c8467d9872c0d83f695499,SCR,2024-06-20_16h27.27.734,LearnStrategy,2023.2.3,Win32,59.88023952,4,1,5,0.075925954,-0.425925954,1,0,0,0.8683,Gabbro_12,4,12,1,5,0.868,4,12,-0.361111111,-0.265740797,1,0,0,2.4905,Andesite_rect,1,2.49,0,4,0,4,0,1,,,,,,,,,,,,,
60c8467d9872c0d83f695499,SCR,2024-06-20_16h27.27.734,LearnStrategy,2023.2.3,Win32,59.88023952,4,1,6,-0.211111111,-0.376851908,1,0,0,1.1686,Basalt_11,2,11,1,3,1.169,2,11,0.391666667,-0.238888889,1,0,0,1.9062,Gabbro_rect,4,1.906,0,5,0,5,0,1,,,,,,,,,,,,,
60c8467d9872c0d83f695499,SCR,2024-06-20_16h27.27.734,LearnStrategy,2023.2.3,Win32,59.88023952,4,1,7,0.352777778,-0.407407464,1,0,0,1.0044,Pegmatite_16,6,16,1,7,1.004,6,16,0.079629686,-0.25,1,0,0,2.1215,Diorite_rect,3,2.121,0,6,0,6,0,1,,,,,,,,,,,,,
60c8467d9872c0d83f695499,SCR,2024-06-20_16h27.27.734,LearnStrategy,2023.2.3,Win32,59.88023952,4,1,8,0.510185242,-0.268518575,1,0,0,1.0987,Diorite_12,3,12,2,8,1.099,3,12,-0.312037023,-0.261111111,1,0,0,1.8229,Andesite_rect,1,1.823,0,7,0,7,0,1,,,,,,,,,,,,,
60c8467d9872c0d83f695499,SCR,2024-06-20_16h27.27.734,LearnStrategy,2023.2.3,Win32,59.88023952,4,1,9,-0.422222222,-0.380555556,1,0,0,0.8506,Andesite_09,1,09,1,2,0.851,1,09,0.344444444,-0.265740797,1,0,0,5.6914,Gabbro_rect,4,5.691,0,8,0,8,0,1,,,,,,,,,,,,,
60c8467d9872c0d83f695499,SCR,2024-06-20_16h27.27.734,LearnStrategy,2023.2.3,Win32,59.88023952,4,1,10,0.061111111,0.431481478,1,0,0,1.3504,Pegmatite_10,6,10,6,5,1.35,6,10,-0.331481467,-0.242592621,1,0,0,3.3044,Andesite_rect,1,3.304,0,9,0,9,0,1,,,,,,,,,,,,,
60c8467d9872c0d83f695499,SCR,2024-06-20_16h27.27.734,LearnStrategy,2023.2.3,Win32,59.88023952,4,1,11,-0.032407379,-0.09629631,1,0,0,1.0254,Gabbro_11,4,11,3,4,1.025,4,11,0.388888889,-0.252777778,1,0,0,2.4572,Gabbro_rect,4,2.457,1,10,0,10,0,1,,,,,,,,,,,,,
60c8467d9872c0d83f695499,SCR,2024-06-20_16h27.27.734,LearnStrategy,2023.2.3,Win32,59.88023952,4,1,12,-0.42870369,0.287962956,1,0,0,0.7741,Andesite_02,1,02,5,2,0.774,1,02,-0.325925912,-0.248148176,1,0,0,1.9532,Andesite_rect,1,1.953,1,11,0,11,0,1,,,,,,,,,,,,,
60c8467d9872c0d83f695499,SCR,2024-06-20_16h27.27.734,LearnStrategy,2023.2.3,Win32,59.88023952,4,1,13,-0.382407379,0.440740739,1,0,0,1.4364,Diorite_02,3,02,6,2,1.436,3,02,0.089814843,-0.236111111,1,0,0,1.0768,Diorite_rect,3,1.077,1,12,0,12,0,1,,,,,,,,,,,,,
60c8467d9872c0d83f695499,SCR,2024-06-20_16h27.27.734,LearnStrategy,2023.2.3,Win32,59.88023952,4,1,14,-0.281481467,0.447222222,1,0,0,0.6773,Andesite_14,1,14,6,3,0.677,1,14,0.453703732,-0.25648151,1,0,0,4.5004,Gabbro_rect,4,4.5,0,13,0,13,0,1,,,,,,,,,,,,,
60c8467d9872c0d83f695499,SCR,2024-06-20_16h27.27.734,LearnStrategy,2023.2.3,Win32,59.88023952,4,1,15,0.370370399,-0.412963019,1,0,0,0.7199,Pegmatite_16,6,16,1,7,0.72,6,16,0.084259288,-0.394444444,1,0,0,2.0054,Peridotite_rect,7,2.005,0,14,0,14,0,1,,,,,,,,,,,,,
60c8467d9872c0d83f695499,SCR,2024-06-20_16h27.27.734,LearnStrategy,2023.2.3,Win32,59.88023952,4,1,16,-0.234259245,0.270370356,1,0,0,1.1438,Basalt_04,2,04,5,3,1.144,2,04,0.362963019,-0.257407464,1,0,0,1.7556,Gabbro_rect,4,1.756,0,15,0,15,0,1,,,,,,,,,,,,,
60c8467d9872c0d83f695499,SCR,2024-06-20_16h27.27.734,LearnStrategy,2023.2.3,Win32,59.88023952,4,2,1,,,,,,,,8,16,,,,,,,,,,,,,8,2.218,1,,,,,,0.369444444,-0.410185242,1,0,0,2.218,Pumice_rect,0,0,0,0,1,
60c8467d9872c0d83f695499,SCR,2024-06-20_16h27.27.734,LearnStrategy,2023.2.3,Win32,59.88023952,4,2,2,,,,,,,,4,03,,,,,,,,,,,,,3,6.921,0,,,,,,0.167592621,-0.262037065,1,0,0,6.9207,Diorite_rect,1,0,1,0,1,
60c8467d9872c0d83f695499,SCR,2024-06-20_16h27.27.734,LearnStrategy,2023.2.3,Win32,59.88023952,4,2,3,,,,,,,,5,14,,,,,,,,,,,,,5,1.082,1,,,,,,-0.376851824,-0.415740797,1,0,0,1.0821,Obsidian_rect,2,0,2,0,1,
60c8467d9872c0d83f695499,SCR,2024-06-20_16h27.27.734,LearnStrategy,2023.2.3,Win32,59.88023952,4,2,4,,,,,,,,1,04,,,,,,,,,,,,,6,3.06,0,,,,,,-0.105555556,-0.417592621,1,0,0,3.0601,Pegmatite_rect,3,0,3,0,1,
60c8467d9872c0d83f695499,SCR,2024-06-20_16h27.27.734,LearnStrategy,2023.2.3,Win32,59.88023952,4,2,5,,,,,,,,5,04,,,,,,,,,,,,,5,1.17,1,,,,,,-0.362962935,-0.40648151,1,0,0,1.1698,Obsidian_rect,4,0,4,0,1,
60c8467d9872c0d83f695499,SCR,2024-06-20_16h27.27.734,LearnStrategy,2023.2.3,Win32,59.88023952,4,2,6,,,,,,,,8,05,,,,,,,,,,,,,8,3.045,1,,,,,,0.335185242,-0.403703732,1,0,0,3.0453,Pumice_rect,5,0,5,0,1,
60c8467d9872c0d83f695499,SCR,2024-06-20_16h27.27.734,LearnStrategy,2023.2.3,Win32,59.88023952,4,2,7,,,,,,,,6,13,,,,,,,,,,,,,3,5.518,0,,,,,,0.086111111,-0.25648151,1,0,0,5.5184,Diorite_rect,6,0,6,0,1,
60c8467d9872c0d83f695499,SCR,2024-06-20_16h27.27.734,LearnStrategy,2023.2.3,Win32,59.88023952,4,2,8,,,,,,,,4,15,,,,,,,,,,,,,7,7.054,0,,,,,,0.058333333,-0.393518575,1,0,0,7.0545,Peridotite_rect,7,0,7,0,1,
60c8467d9872c0d83f695499,SCR,2024-06-20_16h27.27.734,LearnStrategy,2023.2.3,Win32,59.88023952,4,2,9,,,,,,,,1,16,,,,,,,,,,,,,6,1.909,0,,,,,,-0.066666667,-0.38148151,1,0,0,1.9094,Pegmatite_rect,8,0,8,0,1,
60c8467d9872c0d83f695499,SCR,2024-06-20_16h27.27.734,LearnStrategy,2023.2.3,Win32,59.88023952,4,2,10,,,,,,,,2,06,,,,,,,,,,,,,2,3.852,1,,,,,,-0.187962935,-0.236111111,1,0,0,3.8515,Basalt_rect,9,0,9,0,1,
60c8467d9872c0d83f695499,SCR,2024-06-20_16h27.27.734,LearnStrategy,2023.2.3,Win32,59.88023952,4,2,11,,,,,,,,6,09,,,,,,,,,,,,,6,5.993,1,,,,,,-0.060185157,-0.416666667,1,0,0,5.9929,Pegmatite_rect,10,0,10,0,1,
60c8467d9872c0d83f695499,SCR,2024-06-20_16h27.27.734,LearnStrategy,2023.2.3,Win32,59.88023952,4,2,12,,,,,,,,3,06,,,,,,,,,,,,,7,1.863,0,,,,,,0.078703732,-0.389814843,1,0,0,1.8632,Peridotite_rect,11,0,11,0,1,
60c8467d9872c0d83f695499,SCR,2024-06-20_16h27.27.734,LearnStrategy,2023.2.3,Win32,59.88023952,4,2,13,,,,,,,,7,02,,,,,,,,,,,,,6,1.443,0,,,,,,-0.062036981,-0.390740797,1,0,0,1.4432,Pegmatite_rect,12,0,12,0,1,
60c8467d9872c0d83f695499,SCR,2024-06-20_16h27.27.734,LearnStrategy,2023.2.3,Win32,59.88023952,4,2,14,,,,,,,,2,05,,,,,,,,,,,,,2,1.642,1,,,,,,-0.105555556,-0.261111111,1,0,0,1.6422,Basalt_rect,13,0,13,0,1,
60c8467d9872c0d83f695499,SCR,2024-06-20_16h27.27.734,LearnStrategy,2023.2.3,Win32,59.88023952,4,2,15,,,,,,,,3,10,,,,,,,,,,,,,1,2.035,0,,,,,,-0.383333333,-0.250925954,1,0,0,2.0354,Andesite_rect,14,0,14,0,1,
60c8467d9872c0d83f695499,SCR,2024-06-20_16h27.27.734,LearnStrategy,2023.2.3,Win32,59.88023952,4,2,16,,,,,,,,7,04,,,,,,,,,,,,,6,2.98,0,,,,,,-0.087036981,-0.409259288,1,0,0,2.9803,Pegmatite_rect,15,0,15,0,1,
60c8467d9872c0d83f695499,SCR,2024-06-20_16h27.27.734,LearnStrategy,2023.2.3,Win32,59.88023952,5,1,1,-0.061111111,0.290740734,1,0,0,0.7735,Peridotite_15,7,15,5,4,0.774,7,15,-0.045370314,-0.4,1,0,0,4.6984,Pegmatite_rect,6,4.698,0,0,0,0,0,1,,,,,,,,,,,,,
60c8467d9872c0d83f695499,SCR,2024-06-20_16h27.27.734,LearnStrategy,2023.2.3,Win32,59.88023952,5,1,2,-0.212962935,-0.432407464,1,0,0,2.0423,Basalt_11,2,11,1,3,2.042,2,11,-0.100925869,-0.246296353,1,0,0,2.1799,Basalt_rect,2,2.18,1,1,0,1,0,1,,,,,,,,,,,,,
60c8467d9872c0d83f695499,SCR,2024-06-20_16h27.27.734,LearnStrategy,2023.2.3,Win32,59.88023952,5,1,3,-0.09351849,0.236111111,1,0,0,0.8807,Peridotite_15,7,15,5,4,0.881,7,15,-0.074074046,-0.398148176,1,0,0,2.8801,Pegmatite_rect,6,2.88,0,2,0,2,0,1,,,,,,,,,,,,,
60c8467d9872c0d83f695499,SCR,2024-06-20_16h27.27.734,LearnStrategy,2023.2.3,Win32,59.88023952,5,1,4,0.094444444,-0.093518533,1,0,0,0.8771,Andesite_06,1,06,3,5,0.877,1,06,0.162037065,-0.258333333,1,0,0,3.1019,Diorite_rect,3,3.102,0,3,0,3,0,1,,,,,,,,,,,,,
60c8467d9872c0d83f695499,SCR,2024-06-20_16h27.27.734,LearnStrategy,2023.2.3,Win32,59.88023952,5,1,5,-0.219444444,-0.12129631,1,0,0,0.8125,Gabbro_16,4,16,3,3,0.813,4,16,0.378703732,-0.268518575,1,0,0,2.0337,Gabbro_rect,4,2.034,1,4,0,4,0,1,,,,,,,,,,,,,
60c8467d9872c0d83f695499,SCR,2024-06-20_16h27.27.734,LearnStrategy,2023.2.3,Win32,59.88023952,5,1,6,0.058333333,0.227777778,1,0,0,0.8958,Pegmatite_05,6,05,5,5,0.896,6,05,0.194444444,-0.401851908,1,0,0,6.9997,Peridotite_rect,7,7,0,5,0,5,0,1,,,,,,,,,,,,,
60c8467d9872c0d83f695499,SCR,2024-06-20_16h27.27.734,LearnStrategy,2023.2.3,Win32,59.88023952,5,1,7,0.534259372,-0.252777778,1,0,0,1.014,Diorite_12,3,12,2,8,1.014,3,12,-0.05,-0.387037065,1,0,0,2.1836,Pegmatite_rect,6,2.184,0,6,0,6,0,1,,,,,,,,,,,,,
60c8467d9872c0d83f695499,SCR,2024-06-20_16h27.27.734,LearnStrategy,2023.2.3,Win32,59.88023952,5,1,8,0.368518575,-0.460185242,1,0,0,0.7596,Pegmatite_16,6,16,1,7,0.76,6,16,0.153703732,-0.412037065,1,0,0,1.7242,Peridotite_rect,7,1.724,0,7,0,7,0,1,,,,,,,,,,,,,
60c8467d9872c0d83f695499,SCR,2024-06-20_16h27.27.734,LearnStrategy,2023.2.3,Win32,59.88023952,5,1,9,-0.087962935,0.414814811,1,0,0,0.9136,Diorite_08,3,08,6,4,0.914,3,08,-0.156481425,-0.408333333,1,0,0,2.6715,Pegmatite_rect,6,2.671,0,8,0,8,0,1,,,,,,,,,,,,,
60c8467d9872c0d83f695499,SCR,2024-06-20_16h27.27.734,LearnStrategy,2023.2.3,Win32,59.88023952,5,1,10,-0.44351849,-0.09629631,1,0,0,0.8441,Diorite_15,3,15,3,2,0.844,3,15,-0.335185157,-0.262037065,1,0,0,1.4462,Andesite_rect,1,1.446,0,9,0,9,0,1,,,,,,,,,,,,,
60c8467d9872c0d83f695499,SCR,2024-06-20_16h27.27.734,LearnStrategy,2023.2.3,Win32,59.88023952,5,1,11,0.572222222,-0.437963019,1,0,0,1.0656,Peridotite_06,7,06,1,8,1.066,7,06,0.154629686,-0.393518575,1,0,0,8.1523,Peridotite_rect,7,8.152,1,10,0,10,0,1,,,,,,,,,,,,,
60c8467d9872c0d83f695499,SCR,2024-06-20_16h27.27.734,LearnStrategy,2023.2.3,Win32,59.88023952,5,1,12,0.267592621,0.105555556,1,0,0,0.9838,Andesite_11,1,11,4,6,0.984,1,11,0.414814843,-0.248148176,1,0,0,2.2412,Gabbro_rect,4,2.241,0,11,0,11,0,1,,,,,,,,,,,,,
60c8467d9872c0d83f695499,SCR,2024-06-20_16h27.27.734,LearnStrategy,2023.2.3,Win32,59.88023952,5,1,13,0.376851908,0.080555556,1,0,0,0.754,Pegmatite_11,6,11,4,7,0.754,6,11,-0.073148092,-0.261111111,1,0,0,8.1177,Basalt_rect,2,8.118,0,12,0,12,0,1,,,,,,,,,,,,,
60c8467d9872c0d83f695499,SCR,2024-06-20_16h27.27.734,LearnStrategy,2023.2.3,Win32,59.88023952,5,1,14,-0.067592536,0.134259245,1,0,0,1.0325,Gabbro_08,4,08,4,4,1.033,4,08,0.372222222,-0.23148151,1,0,0,2.2168,Gabbro_rect,4,2.217,1,13,0,13,0,1,,,,,,,,,,,,,
60c8467d9872c0d83f695499,SCR,2024-06-20_16h27.27.734,LearnStrategy,2023.2.3,Win32,59.88023952,5,1,15,0.10648151,-0.388888889,1,0,0,0.8247,Gabbro_12,4,12,1,5,0.825,4,12,0.345370399,-0.236111111,1,0,0,0.9626,Gabbro_rect,4,0.963,1,14,0,14,0,1,,,,,,,,,,,,,
60c8467d9872c0d83f695499,SCR,2024-06-20_16h27.27.734,LearnStrategy,2023.2.3,Win32,59.88023952,5,1,16,-0.388888889,-0.40648151,1,0,0,0.8544,Andesite_09,1,09,1,2,0.854,1,09,-0.371296268,-0.246296353,1,0,0,1.4096,Andesite_rect,1,1.41,1,15,0,15,0,1,,,,,,,,,,,,,
60c8467d9872c0d83f695499,SCR,2024-06-20_16h27.27.734,LearnStrategy,2023.2.3,Win32,59.88023952,5,2,1,,,,,,,,7,12,,,,,,,,,,,,,6,2.459,0,,,,,,-0.075,-0.414814843,1,0,0,2.4593,Pegmatite_rect,0,0,0,0,1,
60c8467d9872c0d83f695499,SCR,2024-06-20_16h27.27.734,LearnStrategy,2023.2.3,Win32,59.88023952,5,2,2,,,,,,,,5,09,,,,,,,,,,,,,5,2.067,1,,,,,,-0.361111111,-0.408333333,1,0,0,2.0674,Obsidian_rect,1,0,1,0,1,
60c8467d9872c0d83f695499,SCR,2024-06-20_16h27.27.734,LearnStrategy,2023.2.3,Win32,59.88023952,5,2,3,,,,,,,,8,14,,,,,,,,,,,,,4,10.911,0,,,,,,0.390740797,-0.263888889,1,0,0,10.911,Gabbro_rect,2,0,2,0,1,
60c8467d9872c0d83f695499,SCR,2024-06-20_16h27.27.734,LearnStrategy,2023.2.3,Win32,59.88023952,5,2,4,,,,,,,,1,07,,,,,,,,,,,,,6,7.205,0,,,,,,-0.116666667,-0.404629686,1,0,0,7.2048,Pegmatite_rect,3,0,3,0,1,
60c8467d9872c0d83f695499,SCR,2024-06-20_16h27.27.734,LearnStrategy,2023.2.3,Win32,59.88023952,5,2,5,,,,,,,,4,09,,,,,,,,,,,,,4,2.702,1,,,,,,0.336111111,-0.254629686,1,0,0,2.7018,Gabbro_rect,4,0,4,0,1,
60c8467d9872c0d83f695499,SCR,2024-06-20_16h27.27.734,LearnStrategy,2023.2.3,Win32,59.88023952,5,2,6,,,,,,,,6,07,,,,,,,,,,,,,7,3.184,0,,,,,,0.085185242,-0.420370399,1,0,0,3.1841,Peridotite_rect,5,0,5,0,1,
60c8467d9872c0d83f695499,SCR,2024-06-20_16h27.27.734,LearnStrategy,2023.2.3,Win32,59.88023952,5,2,7,,,,,,,,7,14,,,,,,,,,,,,,6,1.593,0,,,,,,-0.101851824,-0.407407464,1,0,0,1.5927,Pegmatite_rect,6,0,6,0,1,
60c8467d9872c0d83f695499,SCR,2024-06-20_16h27.27.734,LearnStrategy,2023.2.3,Win32,59.88023952,5,2,8,,,,,,,,3,14,,,,,,,,,,,,,7,1.185,0,,,,,,0.087037065,-0.383333333,1,0,0,1.1846,Peridotite_rect,7,0,7,0,1,
60c8467d9872c0d83f695499,SCR,2024-06-20_16h27.27.734,LearnStrategy,2023.2.3,Win32,59.88023952,5,2,9,,,,,,,,4,01,,,,,,,,,,,,,1,9.011,0,,,,,,-0.390740712,-0.257407464,1,0,0,9.0107,Andesite_rect,8,0,8,0,1,
60c8467d9872c0d83f695499,SCR,2024-06-20_16h27.27.734,LearnStrategy,2023.2.3,Win32,59.88023952,5,2,10,,,,,,,,5,06,,,,,,,,,,,,,5,2.917,1,,,,,,-0.360185157,-0.407407464,1,0,0,2.9173,Obsidian_rect,9,0,9,0,1,
60c8467d9872c0d83f695499,SCR,2024-06-20_16h27.27.734,LearnStrategy,2023.2.3,Win32,59.88023952,5,2,11,,,,,,,,2,01,,,,,,,,,,,,,2,8,1,,,,,,-0.075925869,-0.247222222,1,0,0,8,Basalt_rect,10,0,10,0,1,
60c8467d9872c0d83f695499,SCR,2024-06-20_16h27.27.734,LearnStrategy,2023.2.3,Win32,59.88023952,5,2,12,,,,,,,,6,08,,,,,,,,,,,,,5,3.385,0,,,,,,-0.331481467,-0.389814843,1,0,0,3.3849,Obsidian_rect,11,0,11,0,1,
60c8467d9872c0d83f695499,SCR,2024-06-20_16h27.27.734,LearnStrategy,2023.2.3,Win32,59.88023952,5,2,13,,,,,,,,8,15,,,,,,,,,,,,,8,7.44,1,,,,,,0.363888889,-0.417592621,1,0,0,7.4405,Pumice_rect,12,0,12,0,1,
60c8467d9872c0d83f695499,SCR,2024-06-20_16h27.27.734,LearnStrategy,2023.2.3,Win32,59.88023952,5,2,14,,,,,,,,3,13,,,,,,,,,,,,,6,6.163,0,,,,,,-0.062962935,-0.408333333,1,0,0,6.1632,Pegmatite_rect,13,0,13,0,1,
60c8467d9872c0d83f695499,SCR,2024-06-20_16h27.27.734,LearnStrategy,2023.2.3,Win32,59.88023952,5,2,15,,,,,,,,2,16,,,,,,,,,,,,,4,6.582,0,,,,,,0.369444444,-0.235185242,1,0,0,6.5822,Gabbro_rect,14,0,14,0,1,
60c8467d9872c0d83f695499,SCR,2024-06-20_16h27.27.734,LearnStrategy,2023.2.3,Win32,59.88023952,5,2,16,,,,,,,,1,05,,,,,,,,,,,,,1,3.163,1,,,,,,-0.360185157,-0.245370399,1,0,0,3.1634,Andesite_rect,15,0,15,0,1,
60c8467d9872c0d83f695499,SCR,2024-06-20_16h27.27.734,LearnStrategy,2023.2.3,Win32,59.88023952,6,1,1,-0.061111111,0.387962956,1,0,0,1.0017,Diorite_08,3,08,6,4,1.002,3,08,-0.133333333,-0.403703732,1,0,0,6.0932,Pegmatite_rect,6,6.093,0,0,0,0,0,1,,,,,,,,,,,,,
60c8467d9872c0d83f695499,SCR,2024-06-20_16h27.27.734,LearnStrategy,2023.2.3,Win32,59.88023952,6,1,2,-0.419444444,0.410185178,1,0,0,2.0863,Diorite_02,3,02,6,2,2.086,8,02,0.191666667,-0.25,1,0,0,0.9722,Diorite_rect,3,0.972,1,1,0,1,0,1,,,,,,,,,,,,,
60c8467d9872c0d83f695499,SCR,2024-06-20_16h27.27.734,LearnStrategy,2023.2.3,Win32,59.88023952,6,1,3,0.444444444,0.277777778,1,0,0,0.7409,Peridotite_10,7,10,5,7,0.741,7,10,-0.153703647,-0.253703732,1,0,0,5.7106,Basalt_rect,2,5.711,0,2,0,2,0,1,,,,,,,,,,,,,
60c8467d9872c0d83f695499,SCR,2024-06-20_16h27.27.734,LearnStrategy,2023.2.3,Win32,59.88023952,6,1,4,-0.416666667,-0.112037065,1,0,0,0.8302,Diorite_15,3,15,3,2,0.83,3,15,0.085185242,-0.414814843,1,0,0,1.532,Peridotite_rect,7,1.532,0,3,0,3,0,1,,,,,,,,,,,,,
60c8467d9872c0d83f695499,SCR,2024-06-20_16h27.27.734,LearnStrategy,2023.2.3,Win32,59.88023952,6,1,5,-0.075,0.401851845,1,0,0,5.4348,Diorite_08,3,08,6,4,5.435,3,08,0.15,-0.253703732,1,0,0,1.4285,Diorite_rect,3,1.428,1,4,0,4,0,1,,,,,,,,,,,,,
60c8467d9872c0d83f695499,SCR,2024-06-20_16h27.27.734,LearnStrategy,2023.2.3,Win32,59.88023952,6,1,6,-0.517592578,0.206481467,1,0,0,0.9636,Peridotite_08,7,08,5,1,0.964,7,08,0.079629686,-0.248148176,1,0,0,1.3356,Diorite_rect,3,1.336,0,5,0,5,0,1,,,,,,,,,,,,,
60c8467d9872c0d83f695499,SCR,2024-06-20_16h27.27.734,LearnStrategy,2023.2.3,Win32,59.88023952,6,1,7,0.196296353,-0.425925954,1,0,0,0.8199,Obsidian_05,5,05,1,6,0.82,5,05,-0.373148134,-0.392592621,1,0,0,1.7153,Obsidian_rect,5,1.715,1,6,0,6,0,1,,,,,,,,,,,,,
60c8467d9872c0d83f695499,SCR,2024-06-20_16h27.27.734,LearnStrategy,2023.2.3,Win32,59.88023952,6,1,8,-0.565740734,-0.094444444,1,0,0,0.9637,Pegmatite_06,6,06,3,1,0.964,6,06,0.427777778,-0.412037065,1,0,0,5.5096,Pumice_rect,8,5.51,0,7,0,7,0,1,,,,,,,,,,,,,
60c8467d9872c0d83f695499,SCR,2024-06-20_16h27.27.734,LearnStrategy,2023.2.3,Win32,59.88023952,6,1,9,0.245370399,0.072222222,1,0,0,0.8506,Andesite_11,1,11,4,6,0.851,1,11,-0.094444444,-0.248148176,1,0,0,5.2621,Basalt_rect,2,5.262,0,8,0,8,0,1,,,,,,,,,,,,,
60c8467d9872c0d83f695499,SCR,2024-06-20_16h27.27.734,LearnStrategy,2023.2.3,Win32,59.88023952,6,1,10,-0.530555556,0.255555556,1,0,0,0.7676,Peridotite_08,7,08,5,1,0.768,7,08,0.122222222,-0.25,1,0,0,1.6799,Diorite_rect,3,1.68,0,9,0,9,0,1,,,,,,,,,,,,,
60c8467d9872c0d83f695499,SCR,2024-06-20_16h27.27.734,LearnStrategy,2023.2.3,Win32,59.88023952,6,1,11,-0.538888889,-0.109259288,1,0,0,0.9506,Pegmatite_06,6,06,3,1,0.951,6,06,-0.375,-0.245370399,1,0,0,1.1147,Andesite_rect,1,1.115,0,10,0,10,0,1,,,,,,,,,,,,,
60c8467d9872c0d83f695499,SCR,2024-06-20_16h27.27.734,LearnStrategy,2023.2.3,Win32,59.88023952,6,1,12,-0.097222222,0.127777778,1,0,0,0.7642,Gabbro_08,4,08,4,4,0.764,4,08,0.377777778,-0.254629686,1,0,0,3.4706,Gabbro_rect,4,3.471,1,11,0,11,0,1,,,,,,,,,,,,,
60c8467d9872c0d83f695499,SCR,2024-06-20_16h27.27.734,LearnStrategy,2023.2.3,Win32,59.88023952,6,1,13,0.227777778,0.225,1,0,0,0.7909,Basalt_12,2,12,5,6,0.791,2,12,0.343518575,-0.412037065,1,0,0,1.0625,Pumice_rect,8,1.063,0,12,0,12,0,1,,,,,,,,,,,,,
60c8467d9872c0d83f695499,SCR,2024-06-20_16h27.27.734,LearnStrategy,2023.2.3,Win32,59.88023952,6,1,14,-0.519444444,-0.125925954,1,0,0,1.1225,Pegmatite_06,6,06,3,1,1.123,6,06,-0.314814801,-0.259259288,1,0,0,1.3749,Andesite_rect,1,1.375,0,13,0,13,0,1,,,,,,,,,,,,,
60c8467d9872c0d83f695499,SCR,2024-06-20_16h27.27.734,LearnStrategy,2023.2.3,Win32,59.88023952,6,1,15,-0.547222222,-0.116666667,1,0,0,0.7866,Pegmatite_06,6,06,3,1,0.787,1,01,-0.121296268,-0.411111111,1,0,0,0.9915,Pegmatite_rect,6,0.992,1,14,0,14,0,1,,,,,,,,,,,,,
60c8467d9872c0d83f695499,SCR,2024-06-20_16h27.27.734,LearnStrategy,2023.2.3,Win32,59.88023952,6,1,16,0.069444444,-0.422222222,1,0,0,0.7516,Gabbro_12,4,12,1,5,0.752,4,12,0.365740797,-0.255555556,1,0,0,3.7008,Gabbro_rect,4,3.701,1,15,0,15,0,1,,,,,,,,,,,,,
60c8467d9872c0d83f695499,SCR,2024-06-20_16h27.27.734,LearnStrategy,2023.2.3,Win32,59.88023952,6,2,1,,,,,,,,4,05,,,,,,,,,,,,,4,1.695,1,,,,,,0.377777778,-0.234259288,1,0,0,1.6951,Gabbro_rect,0,0,0,0,1,
60c8467d9872c0d83f695499,SCR,2024-06-20_16h27.27.734,LearnStrategy,2023.2.3,Win32,59.88023952,6,2,2,,,,,,,,8,10,,,,,,,,,,,,,8,5.985,1,,,,,,0.360185242,-0.388888889,1,0,0,5.9848,Pumice_rect,1,0,1,0,1,
60c8467d9872c0d83f695499,SCR,2024-06-20_16h27.27.734,LearnStrategy,2023.2.3,Win32,59.88023952,6,2,3,,,,,,,,1,03,,,,,,,,,,,,,1,1.278,1,,,,,,-0.398148134,-0.234259288,1,0,0,1.2783,Andesite_rect,2,0,2,0,1,
60c8467d9872c0d83f695499,SCR,2024-06-20_16h27.27.734,LearnStrategy,2023.2.3,Win32,59.88023952,6,2,4,,,,,,,,6,15,,,,,,,,,,,,,6,3.554,1,,,,,,-0.045370314,-0.418518575,1,0,0,3.5536,Pegmatite_rect,3,0,3,0,1,
60c8467d9872c0d83f695499,SCR,2024-06-20_16h27.27.734,LearnStrategy,2023.2.3,Win32,59.88023952,6,2,5,,,,,,,,2,08,,,,,,,,,,,,,4,2.983,0,,,,,,0.415740797,-0.253703732,1,0,0,2.9826,Gabbro_rect,4,0,4,0,1,
60c8467d9872c0d83f695499,SCR,2024-06-20_16h27.27.734,LearnStrategy,2023.2.3,Win32,59.88023952,6,2,6,,,,,,,,3,11,,,,,,,,,,,,,3,3.632,1,,,,,,0.137963019,-0.252777778,1,0,0,3.6322,Diorite_rect,5,0,5,0,1,
60c8467d9872c0d83f695499,SCR,2024-06-20_16h27.27.734,LearnStrategy,2023.2.3,Win32,59.88023952,6,2,7,,,,,,,,8,09,,,,,,,,,,,,,8,1.619,1,,,,,,0.375,-0.398148176,1,0,0,1.6194,Pumice_rect,6,0,6,0,1,
60c8467d9872c0d83f695499,SCR,2024-06-20_16h27.27.734,LearnStrategy,2023.2.3,Win32,59.88023952,6,2,8,,,,,,,,5,16,,,,,,,,,,,,,5,1.835,1,,,,,,-0.346296268,-0.398148176,1,0,0,1.8349,Obsidian_rect,7,0,7,0,1,
60c8467d9872c0d83f695499,SCR,2024-06-20_16h27.27.734,LearnStrategy,2023.2.3,Win32,59.88023952,6,2,9,,,,,,,,5,07,,,,,,,,,,,,,5,1.565,1,,,,,,-0.330555556,-0.414814843,1,0,0,1.5647,Obsidian_rect,8,0,8,0,1,
60c8467d9872c0d83f695499,SCR,2024-06-20_16h27.27.734,LearnStrategy,2023.2.3,Win32,59.88023952,6,2,10,,,,,,,,6,12,,,,,,,,,,,,,3,2.027,0,,,,,,0.115740797,-0.244444444,1,0,0,2.0272,Diorite_rect,9,0,9,0,1,
60c8467d9872c0d83f695499,SCR,2024-06-20_16h27.27.734,LearnStrategy,2023.2.3,Win32,59.88023952,6,2,11,,,,,,,,4,13,,,,,,,,,,,,,7,7.435,0,,,,,,0.112963019,-0.405555556,1,0,0,7.4353,Peridotite_rect,10,0,10,0,1,
60c8467d9872c0d83f695499,SCR,2024-06-20_16h27.27.734,LearnStrategy,2023.2.3,Win32,59.88023952,6,2,12,,,,,,,,1,10,,,,,,,,,,,,,4,4.397,0,,,,,,0.366666667,-0.251851908,1,0,0,4.3967,Gabbro_rect,11,0,11,0,1,
60c8467d9872c0d83f695499,SCR,2024-06-20_16h27.27.734,LearnStrategy,2023.2.3,Win32,59.88023952,6,2,13,,,,,,,,7,16,,,,,,,,,,,,,6,4.198,0,,,,,,-0.116666667,-0.40648151,1,0,0,4.198,Pegmatite_rect,12,0,12,0,1,
60c8467d9872c0d83f695499,SCR,2024-06-20_16h27.27.734,LearnStrategy,2023.2.3,Win32,59.88023952,6,2,14,,,,,,,,7,13,,,,,,,,,,,,,1,5.624,0,,,,,,-0.333333333,-0.251851908,1,0,0,5.6241,Andesite_rect,13,0,13,0,1,
60c8467d9872c0d83f695499,SCR,2024-06-20_16h27.27.734,LearnStrategy,2023.2.3,Win32,59.88023952,6,2,15,,,,,,,,2,09,,,,,,,,,,,,,4,1.732,0,,,,,,0.390740797,-0.257407464,1,0,0,1.732,Gabbro_rect,14,0,14,0,1,
60c8467d9872c0d83f695499,SCR,2024-06-20_16h27.27.734,LearnStrategy,2023.2.3,Win32,59.88023952,6,2,16,,,,,,,,3,07,,,,,,,,,,,,,3,1.337,1,,,,,,0.073148176,-0.251851908,1,0,0,1.3374,Diorite_rect,15,0,15,0,1,
60c8467d9872c0d83f695499,SCR,2024-06-20_16h27.27.734,LearnStrategy,2023.2.3,Win32,59.88023952,7,1,1,-0.371296268,-0.412963019,1,0,0,5.644,Andesite_09,1,09,1,2,5.644,1,09,-0.366666667,-0.232407464,1,0,0,7.5106,Andesite_rect,1,7.511,1,0,0,0,0,1,,,,,,,,,,,,,
60c8467d9872c0d83f695499,SCR,2024-06-20_16h27.27.734,LearnStrategy,2023.2.3,Win32,59.88023952,7,1,2,-0.590740734,0.437962961,1,0,0,0.8745,Basalt_02,2,02,6,1,0.874,2,02,-0.375,-0.247222222,1,0,0,1.6989,Andesite_rect,1,1.699,0,1,0,1,0,1,,,,,,,,,,,,,
60c8467d9872c0d83f695499,SCR,2024-06-20_16h27.27.734,LearnStrategy,2023.2.3,Win32,59.88023952,7,1,3,-0.527777778,-0.080555556,1,0,0,1.1199,Pegmatite_06,6,06,3,1,1.12,6,06,-0.097222222,-0.402777778,1,0,0,2.4284,Pegmatite_rect,6,2.428,1,2,0,2,0,1,,,,,,,,,,,,,
60c8467d9872c0d83f695499,SCR,2024-06-20_16h27.27.734,LearnStrategy,2023.2.3,Win32,59.88023952,7,1,4,0.400925954,0.117592578,1,0,0,0.7597,Pegmatite_11,6,11,4,7,0.76,6,11,0.085185242,-0.252777778,1,0,0,1.8106,Diorite_rect,3,1.811,0,3,0,3,0,1,,,,,,,,,,,,,
60c8467d9872c0d83f695499,SCR,2024-06-20_16h27.27.734,LearnStrategy,2023.2.3,Win32,59.88023952,7,1,5,0.202777778,0.420370367,1,0,0,0.8539,Obsidian_10,5,10,6,6,0.854,5,10,-0.449074046,-0.398148176,1,0,0,1.0706,Obsidian_rect,5,1.071,1,4,0,4,0,1,,,,,,,,,,,,,
60c8467d9872c0d83f695499,SCR,2024-06-20_16h27.27.734,LearnStrategy,2023.2.3,Win32,59.88023952,7,1,6,0.391666667,0.241666667,1,0,0,0.8377,Peridotite_10,7,10,5,7,0.838,7,10,0.15,-0.244444444,1,0,0,3.3701,Diorite_rect,3,3.37,0,5,0,5,0,1,,,,,,,,,,,,,
60c8467d9872c0d83f695499,SCR,2024-06-20_16h27.27.734,LearnStrategy,2023.2.3,Win32,59.88023952,7,1,7,0.541666667,0.091666667,1,0,0,0.8772,Diorite_16,3,16,4,8,0.877,3,16,0.182407464,-0.233333333,1,0,0,1.458,Diorite_rect,3,1.458,1,6,0,6,0,1,,,,,,,,,,,,,
60c8467d9872c0d83f695499,SCR,2024-06-20_16h27.27.734,LearnStrategy,2023.2.3,Win32,59.88023952,7,1,8,-0.229629601,0.423148145,1,0,0,1.0097,Andesite_14,1,14,6,3,1.01,1,14,-0.40370369,-0.25,1,0,0,2.8044,Andesite_rect,1,2.804,1,7,0,7,0,1,,,,,,,,,,,,,
60c8467d9872c0d83f695499,SCR,2024-06-20_16h27.27.734,LearnStrategy,2023.2.3,Win32,59.88023952,7,1,9,-0.084259203,0.100925912,1,0,0,0.7275,Gabbro_08,4,08,4,4,0.727,4,08,-0.104629601,-0.252777778,1,0,0,1.9489,Basalt_rect,2,1.949,0,8,0,8,0,1,,,,,,,,,,,,,
60c8467d9872c0d83f695499,SCR,2024-06-20_16h27.27.734,LearnStrategy,2023.2.3,Win32,59.88023952,7,1,10,0.581481595,-0.409259288,1,0,0,1.1461,Peridotite_06,7,06,1,8,1.146,7,06,-0.055555556,-0.405555556,1,0,0,1.8448,Pegmatite_rect,6,1.845,0,9,0,9,0,1,,,,,,,,,,,,,
60c8467d9872c0d83f695499,SCR,2024-06-20_16h27.27.734,LearnStrategy,2023.2.3,Win32,59.88023952,7,1,11,-0.090740712,0.235185178,1,0,0,0.9191,Peridotite_15,7,15,5,4,0.919,7,15,0.089814843,-0.417592621,1,0,0,0.7555,Peridotite_rect,7,0.755,1,10,0,10,0,1,,,,,,,,,,,,,
60c8467d9872c0d83f695499,SCR,2024-06-20_16h27.27.734,LearnStrategy,2023.2.3,Win32,59.88023952,7,1,12,-0.11851849,-0.084259288,1,0,0,0.7918,Gabbro_11,4,11,3,4,0.792,4,11,0.408333333,-0.263888889,1,0,0,1.5835,Gabbro_rect,4,1.583,1,11,0,11,0,1,,,,,,,,,,,,,
60c8467d9872c0d83f695499,SCR,2024-06-20_16h27.27.734,LearnStrategy,2023.2.3,Win32,59.88023952,7,1,13,0.057407464,0.2324074,1,0,0,0.7869,Pegmatite_05,6,05,5,5,0.787,6,05,0.121296353,-0.243518575,1,0,0,3.6973,Diorite_rect,3,3.697,0,12,0,12,0,1,,,,,,,,,,,,,
60c8467d9872c0d83f695499,SCR,2024-06-20_16h27.27.734,LearnStrategy,2023.2.3,Win32,59.88023952,7,1,14,0.111111111,-0.215740797,1,0,0,0.6525,Pumice_08,8,08,2,5,0.653,8,08,0.359259288,-0.4,1,0,0,1.3785,Pumice_rect,8,1.379,1,13,0,13,0,1,,,,,,,,,,,,,
60c8467d9872c0d83f695499,SCR,2024-06-20_16h27.27.734,LearnStrategy,2023.2.3,Win32,59.88023952,7,1,15,-0.364814801,0.104629601,1,0,0,0.8586,Basalt_14,2,14,4,2,0.859,2,14,0.392592621,-0.252777778,1,0,0,2.7314,Gabbro_rect,4,2.731,0,14,0,14,0,1,,,,,,,,,,,,,
60c8467d9872c0d83f695499,SCR,2024-06-20_16h27.27.734,LearnStrategy,2023.2.3,Win32,59.88023952,7,1,16,-0.432407379,-0.125,1,0,0,0.6799,Diorite_15,3,15,3,2,0.68,3,15,0.122222222,-0.232407464,1,0,0,2.0124,Diorite_rect,3,2.012,1,15,0,15,0,1,,,,,,,,,,,,,
60c8467d9872c0d83f695499,SCR,2024-06-20_16h27.27.734,LearnStrategy,2023.2.3,Win32,59.88023952,7,2,1,,,,,,,,3,07,,,,,,,,,,,,,3,1.16,1,,,,,,0.109259288,-0.246296353,1,0,0,1.1604,Diorite_rect,0,0,0,0,1,
60c8467d9872c0d83f695499,SCR,2024-06-20_16h27.27.734,LearnStrategy,2023.2.3,Win32,59.88023952,7,2,2,,,,,,,,3,14,,,,,,,,,,,,,3,0.919,1,,,,,,0.10648151,-0.244444444,1,0,0,0.9192,Diorite_rect,1,0,1,0,1,
60c8467d9872c0d83f695499,SCR,2024-06-20_16h27.27.734,LearnStrategy,2023.2.3,Win32,59.88023952,7,2,3,,,,,,,,7,02,,,,,,,,,,,,,6,1.777,0,,,,,,-0.057407379,-0.389814843,1,0,0,1.777,Pegmatite_rect,2,0,2,0,1,
60c8467d9872c0d83f695499,SCR,2024-06-20_16h27.27.734,LearnStrategy,2023.2.3,Win32,59.88023952,7,2,4,,,,,,,,1,04,,,,,,,,,,,,,1,1.467,1,,,,,,-0.324074046,-0.254629686,1,0,0,1.4673,Andesite_rect,3,0,3,0,1,
60c8467d9872c0d83f695499,SCR,2024-06-20_16h27.27.734,LearnStrategy,2023.2.3,Win32,59.88023952,7,2,5,,,,,,,,4,09,,,,,,,,,,,,,2,2.556,0,,,,,,-0.134259203,-0.230555556,1,0,0,2.5562,Basalt_rect,4,0,4,0,1,
60c8467d9872c0d83f695499,SCR,2024-06-20_16h27.27.734,LearnStrategy,2023.2.3,Win32,59.88023952,7,2,6,,,,,,,,1,16,,,,,,,,,,,,,1,4.932,1,,,,,,-0.371296268,-0.239814843,1,0,0,4.9317,Andesite_rect,5,0,5,0,1,
60c8467d9872c0d83f695499,SCR,2024-06-20_16h27.27.734,LearnStrategy,2023.2.3,Win32,59.88023952,7,2,7,,,,,,,,8,05,,,,,,,,,,,,,8,1.213,1,,,,,,0.423148176,-0.405555556,1,0,0,1.2129,Pumice_rect,6,0,6,0,1,
60c8467d9872c0d83f695499,SCR,2024-06-20_16h27.27.734,LearnStrategy,2023.2.3,Win32,59.88023952,7,2,8,,,,,,,,2,09,,,,,,,,,,,,,2,4.925,1,,,,,,-0.067592536,-0.239814843,1,0,0,4.925,Basalt_rect,7,0,7,0,1,
60c8467d9872c0d83f695499,SCR,2024-06-20_16h27.27.734,LearnStrategy,2023.2.3,Win32,59.88023952,7,2,9,,,,,,,,5,04,,,,,,,,,,,,,5,0.889,1,,,,,,-0.409259245,-0.4,1,0,0,0.8889,Obsidian_rect,8,0,8,0,1,
60c8467d9872c0d83f695499,SCR,2024-06-20_16h27.27.734,LearnStrategy,2023.2.3,Win32,59.88023952,7,2,10,,,,,,,,4,01,,,,,,,,,,,,,7,4.726,0,,,,,,0.137037065,-0.404629686,1,0,0,4.726,Peridotite_rect,9,0,9,0,1,
60c8467d9872c0d83f695499,SCR,2024-06-20_16h27.27.734,LearnStrategy,2023.2.3,Win32,59.88023952,7,2,11,,,,,,,,7,04,,,,,,,,,,,,,6,2.373,0,,,,,,-0.114814758,-0.399074131,1,0,0,2.3727,Pegmatite_rect,10,0,10,0,1,
60c8467d9872c0d83f695499,SCR,2024-06-20_16h27.27.734,LearnStrategy,2023.2.3,Win32,59.88023952,7,2,12,,,,,,,,2,05,,,,,,,,,,,,,4,18.74,0,,,,,,0.359259288,-0.261111111,1,0,0,18.7401,Gabbro_rect,11,0,11,0,1,
60c8467d9872c0d83f695499,SCR,2024-06-20_16h27.27.734,LearnStrategy,2023.2.3,Win32,59.88023952,7,2,13,,,,,,,,5,16,,,,,,,,,,,,,5,1.109,1,,,,,,-0.447222222,-0.396296353,1,0,0,1.1086,Obsidian_rect,12,0,12,0,1,
60c8467d9872c0d83f695499,SCR,2024-06-20_16h27.27.734,LearnStrategy,2023.2.3,Win32,59.88023952,7,2,14,,,,,,,,8,09,,,,,,,,,,,,,8,3.401,1,,,,,,0.387963019,-0.413888889,1,0,0,3.4006,Pumice_rect,13,0,13,0,1,
60c8467d9872c0d83f695499,SCR,2024-06-20_16h27.27.734,LearnStrategy,2023.2.3,Win32,59.88023952,7,2,15,,,,,,,,6,07,,,,,,,,,,,,,6,5.05,1,,,,,,-0.084259203,-0.380555556,1,0,0,5.0504,Pegmatite_rect,14,0,14,0,1,
60c8467d9872c0d83f695499,SCR,2024-06-20_16h27.27.734,LearnStrategy,2023.2.3,Win32,59.88023952,7,2,16,,,,,,,,6,15,,,,,,,,,,,,,6,6.346,1,,,,,,-0.085185157,-0.380555556,1,0,0,6.3464,Pegmatite_rect,15,0,15,0,1,
60c8467d9872c0d83f695499,SCR,2024-06-20_16h27.27.734,LearnStrategy,2023.2.3,Win32,59.88023952,8,1,1,0.603703817,0.062037023,1,0,0,3.7857,Diorite_16,3,16,4,8,3.786,3,16,0.153703732,-0.267592621,1,0,0,2.912,Diorite_rect,3,2.912,1,0,0,0,0,1,,,,,,,,,,,,,
60c8467d9872c0d83f695499,SCR,2024-06-20_16h27.27.734,LearnStrategy,2023.2.3,Win32,59.88023952,8,1,2,0.242592621,0.236111111,1,0,0,0.7606,Basalt_12,2,12,5,6,0.761,2,12,-0.14351849,-0.262963019,1,0,0,2.3394,Basalt_rect,2,2.339,1,1,0,1,0,1,,,,,,,,,,,,,
60c8467d9872c0d83f695499,SCR,2024-06-20_16h27.27.734,LearnStrategy,2023.2.3,Win32,59.88023952,8,1,3,0.235185242,-0.087037065,1,0,0,0.5977,Gabbro_14,4,14,3,6,0.598,4,14,0.367592621,-0.246296353,1,0,0,1.8978,Gabbro_rect,4,1.898,1,2,0,2,0,1,,,,,,,,,,,,,
60c8467d9872c0d83f695499,SCR,2024-06-20_16h27.27.734,LearnStrategy,2023.2.3,Win32,59.88023952,8,1,4,-0.416666667,0.116666667,1,0,0,0.7331,Basalt_14,2,14,4,2,0.733,2,14,-0.083333333,-0.250925954,1,0,0,3.0829,Basalt_rect,2,3.083,1,3,0,3,0,1,,,,,,,,,,,,,
60c8467d9872c0d83f695499,SCR,2024-06-20_16h27.27.734,LearnStrategy,2023.2.3,Win32,59.88023952,8,1,5,-0.234259245,0.082407379,1,0,0,0.6602,Pumice_06,8,06,4,3,0.66,8,06,0.425,-0.390740797,1,0,0,1.5949,Pumice_rect,8,1.595,1,4,0,4,0,1,,,,,,,,,,,,,
60c8467d9872c0d83f695499,SCR,2024-06-20_16h27.27.734,LearnStrategy,2023.2.3,Win32,59.88023952,8,1,6,0.104629686,0.229629623,1,0,0,0.5533,Pegmatite_05,6,05,5,5,0.553,6,05,0.167592621,-0.237963019,1,0,0,1.086,Diorite_rect,3,1.086,0,5,0,5,0,1,,,,,,,,,,,,,
60c8467d9872c0d83f695499,SCR,2024-06-20_16h27.27.734,LearnStrategy,2023.2.3,Win32,59.88023952,8,1,7,-0.217592578,-0.285185242,1,0,0,0.6968,Andesite_01,1,01,2,3,0.697,1,01,-0.097222222,-0.388888889,1,0,0,1.1892,Pegmatite_rect,6,1.189,0,6,0,6,0,1,,,,,,,,,,,,,
60c8467d9872c0d83f695499,SCR,2024-06-20_16h27.27.734,LearnStrategy,2023.2.3,Win32,59.88023952,8,1,8,-0.054629601,-0.080555556,1,0,0,1.1313,Gabbro_11,4,11,3,4,1.131,4,11,-0.082407379,-0.255555556,1,0,0,4.2031,Basalt_rect,2,4.203,0,7,0,7,0,1,,,,,,,,,,,,,
60c8467d9872c0d83f695499,SCR,2024-06-20_16h27.27.734,LearnStrategy,2023.2.3,Win32,59.88023952,8,1,9,0.553703817,-0.395370399,1,0,0,0.8057,Peridotite_06,7,06,1,8,0.806,7,06,-0.142592536,-0.414814843,1,0,0,1.412,Pegmatite_rect,6,1.412,0,8,0,8,0,1,,,,,,,,,,,,,
60c8467d9872c0d83f695499,SCR,2024-06-20_16h27.27.734,LearnStrategy,2023.2.3,Win32,59.88023952,8,1,10,-0.547222222,0.204629623,1,0,0,0.8614,Peridotite_08,7,08,5,1,0.861,7,08,0.079629686,-0.399074131,1,0,0,0.9241,Peridotite_rect,7,0.924,1,9,0,9,0,1,,,,,,,,,,,,,
60c8467d9872c0d83f695499,SCR,2024-06-20_16h27.27.734,LearnStrategy,2023.2.3,Win32,59.88023952,8,1,11,-0.512962935,-0.105555556,1,0,0,0.7216,Pegmatite_06,6,06,3,1,0.722,6,06,-0.075,-0.397222222,1,0,0,1.4007,Pegmatite_rect,6,1.401,1,10,0,10,0,1,,,,,,,,,,,,,
60c8467d9872c0d83f695499,SCR,2024-06-20_16h27.27.734,LearnStrategy,2023.2.3,Win32,59.88023952,8,1,12,-0.381481467,-0.09629631,1,0,0,0.9172,Diorite_15,3,15,3,2,0.917,3,15,0.123148176,-0.259259288,1,0,0,1.1277,Diorite_rect,3,1.128,1,11,0,11,0,1,,,,,,,,,,,,,
60c8467d9872c0d83f695499,SCR,2024-06-20_16h27.27.734,LearnStrategy,2023.2.3,Win32,59.88023952,8,1,13,-0.056481425,0.264814801,1,0,0,1.4105,Peridotite_15,7,15,5,4,1.41,7,15,0.176851908,-0.392592621,1,0,0,0.8072,Peridotite_rect,7,0.807,1,12,0,12,0,1,,,,,,,,,,,,,
60c8467d9872c0d83f695499,SCR,2024-06-20_16h27.27.734,LearnStrategy,2023.2.3,Win32,59.88023952,8,1,14,0.098148176,-0.364814843,1,0,0,1.1825,Gabbro_12,4,12,1,5,1.183,4,12,0.355555556,-0.233333333,1,0,0,2.4101,Gabbro_rect,4,2.41,1,13,0,13,0,1,,,,,,,,,,,,,
60c8467d9872c0d83f695499,SCR,2024-06-20_16h27.27.734,LearnStrategy,2023.2.3,Win32,59.88023952,8,1,15,-0.360185157,0.297222222,1,0,0,0.9239,Andesite_02,1,02,5,2,0.924,1,02,-0.308333333,-0.252777778,1,0,0,1.3586,Andesite_rect,1,1.359,1,14,0,14,0,1,,,,,,,,,,,,,
60c8467d9872c0d83f695499,SCR,2024-06-20_16h27.27.734,LearnStrategy,2023.2.3,Win32,59.88023952,8,1,16,-0.571296289,0.259259245,1,0,0,1.2108,Peridotite_08,7,08,5,1,1.211,7,08,0.104629686,-0.412037065,1,0,0,0.9059,Peridotite_rect,7,0.906,1,15,0,15,0,1,,,,,,,,,,,,,
60c8467d9872c0d83f695499,SCR,2024-06-20_16h27.27.734,LearnStrategy,2023.2.3,Win32,59.88023952,8,2,1,,,,,,,,6,13,,,,,,,,,,,,,6,13.537,1,,,,,,-0.137962935,-0.392592621,1,0,0,13.5373,Pegmatite_rect,0,0,0,0,1,
60c8467d9872c0d83f695499,SCR,2024-06-20_16h27.27.734,LearnStrategy,2023.2.3,Win32,59.88023952,8,2,2,,,,,,,,2,08,,,,,,,,,,,,,4,9.434,0,,,,,,0.415740797,-0.237963019,1,0,0,9.4339,Gabbro_rect,1,0,1,0,1,
60c8467d9872c0d83f695499,SCR,2024-06-20_16h27.27.734,LearnStrategy,2023.2.3,Win32,59.88023952,8,2,3,,,,,,,,3,10,,,,,,,,,,,,,3,1.918,1,,,,,,0.109259288,-0.235185242,1,0,0,1.9179,Diorite_rect,2,0,2,0,1,
60c8467d9872c0d83f695499,SCR,2024-06-20_16h27.27.734,LearnStrategy,2023.2.3,Win32,59.88023952,8,2,4,,,,,,,,1,10,,,,,,,,,,,,,1,2.639,1,,,,,,-0.361111111,-0.239814843,1,0,0,2.639,Andesite_rect,3,0,3,0,1,
60c8467d9872c0d83f695499,SCR,2024-06-20_16h27.27.734,LearnStrategy,2023.2.3,Win32,59.88023952,8,2,5,,,,,,,,6,12,,,,,,,,,,,,,6,4.541,1,,,,,,-0.089814758,-0.412037065,1,0,0,4.5408,Pegmatite_rect,4,0,4,0,1,
60c8467d9872c0d83f695499,SCR,2024-06-20_16h27.27.734,LearnStrategy,2023.2.3,Win32,59.88023952,8,2,6,,,,,,,,5,14,,,,,,,,,,,,,5,1.014,1,,,,,,-0.390740712,-0.413888889,1,0,0,1.0142,Obsidian_rect,5,0,5,0,1,
60c8467d9872c0d83f695499,SCR,2024-06-20_16h27.27.734,LearnStrategy,2023.2.3,Win32,59.88023952,8,2,7,,,,,,,,7,12,,,,,,,,,,,,,7,1.005,1,,,,,,0.161111111,-0.40648151,1,0,0,1.0054,Peridotite_rect,6,0,6,0,1,
60c8467d9872c0d83f695499,SCR,2024-06-20_16h27.27.734,LearnStrategy,2023.2.3,Win32,59.88023952,8,2,8,,,,,,,,7,13,,,,,,,,,,,,,7,0.825,1,,,,,,0.174074131,-0.395370399,1,0,0,0.8247,Peridotite_rect,7,0,7,0,1,
60c8467d9872c0d83f695499,SCR,2024-06-20_16h27.27.734,LearnStrategy,2023.2.3,Win32,59.88023952,8,2,9,,,,,,,,1,03,,,,,,,,,,,,,1,3.102,1,,,,,,-0.363888889,-0.259259288,1,0,0,3.1016,Andesite_rect,8,0,8,0,1,
60c8467d9872c0d83f695499,SCR,2024-06-20_16h27.27.734,LearnStrategy,2023.2.3,Win32,59.88023952,8,2,10,,,,,,,,4,13,,,,,,,,,,,,,2,5.137,0,,,,,,-0.078703647,-0.229629686,1,0,0,5.137,Basalt_rect,9,0,9,0,1,
60c8467d9872c0d83f695499,SCR,2024-06-20_16h27.27.734,LearnStrategy,2023.2.3,Win32,59.88023952,8,2,11,,,,,,,,4,05,,,,,,,,,,,,,2,1.791,0,,,,,,-0.083333333,-0.265740797,1,0,0,1.7908,Basalt_rect,10,0,10,0,1,
60c8467d9872c0d83f695499,SCR,2024-06-20_16h27.27.734,LearnStrategy,2023.2.3,Win32,59.88023952,8,2,12,,,,,,,,8,16,,,,,,,,,,,,,8,1.439,1,,,,,,0.418518575,-0.390740797,1,0,0,1.4392,Pumice_rect,11,0,11,0,1,
60c8467d9872c0d83f695499,SCR,2024-06-20_16h27.27.734,LearnStrategy,2023.2.3,Win32,59.88023952,8,2,13,,,,,,,,5,07,,,,,,,,,,,,,5,2.078,1,,,,,,-0.37870369,-0.417592621,1,0,0,2.0783,Obsidian_rect,12,0,12,0,1,
60c8467d9872c0d83f695499,SCR,2024-06-20_16h27.27.734,LearnStrategy,2023.2.3,Win32,59.88023952,8,2,14,,,,,,,,3,11,,,,,,,,,,,,,3,2.009,1,,,,,,0.167592621,-0.254629686,1,0,0,2.0093,Diorite_rect,13,0,13,0,1,
60c8467d9872c0d83f695499,SCR,2024-06-20_16h27.27.734,LearnStrategy,2023.2.3,Win32,59.88023952,8,2,15,,,,,,,,8,10,,,,,,,,,,,,,8,3.466,1,,,,,,0.413888889,-0.418518575,1,0,0,3.4663,Pumice_rect,14,0,14,0,1,
60c8467d9872c0d83f695499,SCR,2024-06-20_16h27.27.734,LearnStrategy,2023.2.3,Win32,59.88023952,8,2,16,,,,,,,,2,06,,,,,,,,,,,,,4,4.055,0,,,,,,0.362963019,-0.266666667,1,0,0,4.0549,Gabbro_rect,15,0,15,0,1,
60c8467d9872c0d83f695499,SCR,2024-06-20_16h27.27.734,LearnStrategy,2023.2.3,Win32,59.88023952,9,1,1,-0.102777778,-0.394444444,1,0,0,1.1114,Basalt_10,2,10,1,4,1.111,2,10,-0.102777778,-0.250925954,1,0,0,3.402,Basalt_rect,2,3.402,1,0,0,0,0,1,,,,,,,,,,,,,
60c8467d9872c0d83f695499,SCR,2024-06-20_16h27.27.734,LearnStrategy,2023.2.3,Win32,59.88023952,9,1,2,0.078703732,-0.420370399,1,0,0,0.7668,Gabbro_12,4,12,1,5,0.767,4,12,-0.304629601,-0.260185242,1,0,0,1.2994,Andesite_rect,1,1.299,0,1,0,1,0,1,,,,,,,,,,,,,
60c8467d9872c0d83f695499,SCR,2024-06-20_16h27.27.734,LearnStrategy,2023.2.3,Win32,59.88023952,9,1,3,0.066666667,-0.257407464,1,0,0,0.7532,Pumice_08,8,08,2,5,0.753,8,08,0.360185242,-0.384259288,1,0,0,1.3552,Pumice_rect,8,1.355,1,2,0,2,0,1,,,,,,,,,,,,,
60c8467d9872c0d83f695499,SCR,2024-06-20_16h27.27.734,LearnStrategy,2023.2.3,Win32,59.88023952,9,1,4,-0.195370356,-0.108333333,1,0,0,0.8106,Gabbro_16,4,16,3,3,0.811,4,16,0.367592621,-0.245370399,1,0,0,5.1899,Gabbro_rect,4,5.19,1,3,0,3,0,1,,,,,,,,,,,,,
60c8467d9872c0d83f695499,SCR,2024-06-20_16h27.27.734,LearnStrategy,2023.2.3,Win32,59.88023952,9,1,5,0.226851908,-0.247222222,1,0,0,0.8915,Peridotite_07,7,07,2,6,0.891,7,07,0.097222222,-0.410185242,1,0,0,0.7786,Peridotite_rect,7,0.779,1,4,0,4,0,1,,,,,,,,,,,,,
60c8467d9872c0d83f695499,SCR,2024-06-20_16h27.27.734,LearnStrategy,2023.2.3,Win32,59.88023952,9,1,6,-0.566666667,-0.132407422,1,0,0,0.7274,Pegmatite_06,6,06,3,1,0.727,6,06,-0.071296268,-0.407407464,1,0,0,1.001,Pegmatite_rect,6,1.001,1,5,0,5,0,1,,,,,,,,,,,,,
60c8467d9872c0d83f695499,SCR,2024-06-20_16h27.27.734,LearnStrategy,2023.2.3,Win32,59.88023952,9,1,7,-0.404629601,0.077777778,1,0,0,0.7533,Basalt_14,2,14,4,2,0.753,2,14,-0.151851824,-0.252777778,1,0,0,3.7358,Basalt_rect,2,3.736,1,6,0,6,0,1,,,,,,,,,,,,,
60c8467d9872c0d83f695499,SCR,2024-06-20_16h27.27.734,LearnStrategy,2023.2.3,Win32,59.88023952,9,1,8,-0.412037023,0.401851845,1,0,0,0.8921,Diorite_02,3,02,6,2,0.892,3,02,0.109259288,-0.245370399,1,0,0,1.8588,Diorite_rect,3,1.859,1,7,0,7,0,1,,,,,,,,,,,,,
60c8467d9872c0d83f695499,SCR,2024-06-20_16h27.27.734,LearnStrategy,2023.2.3,Win32,59.88023952,9,1,9,-0.211111111,0.295370356,1,0,0,0.7546,Basalt_04,2,04,5,3,0.755,2,04,-0.075925869,-0.246296353,1,0,0,1.1202,Basalt_rect,2,1.12,1,8,0,8,0,1,,,,,,,,,,,,,
60c8467d9872c0d83f695499,SCR,2024-06-20_16h27.27.734,LearnStrategy,2023.2.3,Win32,59.88023952,9,1,10,-0.254629601,-0.261111111,1,0,0,0.8514,Andesite_01,1,01,2,3,0.851,1,01,0.095370399,-0.251851908,1,0,0,1.2089,Diorite_rect,3,1.209,0,9,0,9,0,1,,,,,,,,,,,,,
60c8467d9872c0d83f695499,SCR,2024-06-20_16h27.27.734,LearnStrategy,2023.2.3,Win32,59.88023952,9,1,11,0.417592621,0.258333333,1,0,0,0.9529,Peridotite_10,7,10,5,7,0.953,7,10,0.187037065,-0.387037065,1,0,0,2.3581,Peridotite_rect,7,2.358,1,10,0,10,0,1,,,,,,,,,,,,,
60c8467d9872c0d83f695499,SCR,2024-06-20_16h27.27.734,LearnStrategy,2023.2.3,Win32,59.88023952,9,1,12,-0.078703647,-0.253703732,1,0,0,0.7327,Gabbro_10,4,10,2,4,0.733,4,10,0.385185242,-0.253703732,1,0,0,3.9222,Gabbro_rect,4,3.922,1,11,0,11,0,1,,,,,,,,,,,,,
60c8467d9872c0d83f695499,SCR,2024-06-20_16h27.27.734,LearnStrategy,2023.2.3,Win32,59.88023952,9,1,13,-0.437962935,0.092592578,1,0,0,0.7248,Basalt_14,2,14,4,2,0.725,2,14,-0.148148092,-0.252777778,1,0,0,0.7892,Basalt_rect,2,0.789,1,12,0,12,0,1,,,,,,,,,,,,,
60c8467d9872c0d83f695499,SCR,2024-06-20_16h27.27.734,LearnStrategy,2023.2.3,Win32,59.88023952,9,1,14,0.425,-0.428703732,1,0,0,0.8444,Pegmatite_16,6,16,1,7,0.844,6,16,-0.055555556,-0.408333333,1,0,0,4.0883,Pegmatite_rect,6,4.088,1,13,0,13,0,1,,,,,,,,,,,,,
60c8467d9872c0d83f695499,SCR,2024-06-20_16h27.27.734,LearnStrategy,2023.2.3,Win32,59.88023952,9,1,15,-0.573148134,0.299074067,1,0,0,0.7412,Peridotite_08,7,08,5,1,0.741,7,08,0.073148176,-0.392592621,1,0,0,0.9749,Peridotite_rect,7,0.975,1,14,0,14,0,1,,,,,,,,,,,,,
60c8467d9872c0d83f695499,SCR,2024-06-20_16h27.27.734,LearnStrategy,2023.2.3,Win32,59.88023952,9,1,16,-0.036111111,0.050925912,1,0,0,0.6542,Gabbro_08,4,08,4,4,0.654,4,08,0.382407464,-0.228703732,1,0,0,4.4753,Gabbro_rect,4,4.475,1,15,0,15,0,1,,,,,,,,,,,,,
60c8467d9872c0d83f695499,SCR,2024-06-20_16h27.27.734,LearnStrategy,2023.2.3,Win32,59.88023952,9,2,1,,,,,,,,1,07,,,,,,,,,,,,,3,1.523,0,,,,,,0.159259288,-0.255555556,1,0,0,1.5229,Diorite_rect,0,0,0,0,1,
60c8467d9872c0d83f695499,SCR,2024-06-20_16h27.27.734,LearnStrategy,2023.2.3,Win32,59.88023952,9,2,2,,,,,,,,5,09,,,,,,,,,,,,,5,1.067,1,,,,,,-0.363888889,-0.411111111,1,0,0,1.0666,Obsidian_rect,1,0,1,0,1,
60c8467d9872c0d83f695499,SCR,2024-06-20_16h27.27.734,LearnStrategy,2023.2.3,Win32,59.88023952,9,2,3,,,,,,,,4,03,,,,,,,,,,,,,1,6.817,0,,,,,,-0.373148134,-0.25648151,1,0,0,6.8169,Andesite_rect,2,0,2,0,1,
60c8467d9872c0d83f695499,SCR,2024-06-20_16h27.27.734,LearnStrategy,2023.2.3,Win32,59.88023952,9,2,4,,,,,,,,7,14,,,,,,,,,,,,,7,4.006,1,,,,,,0.15,-0.387963019,1,0,0,4.0059,Peridotite_rect,3,0,3,0,1,
60c8467d9872c0d83f695499,SCR,2024-06-20_16h27.27.734,LearnStrategy,2023.2.3,Win32,59.88023952,9,2,5,,,,,,,,7,16,,,,,,,,,,,,,7,6.511,1,,,,,,0.175925954,-0.401851908,1,0,0,6.5111,Peridotite_rect,4,0,4,0,1,
60c8467d9872c0d83f695499,SCR,2024-06-20_16h27.27.734,LearnStrategy,2023.2.3,Win32,59.88023952,9,2,6,,,,,,,,6,08,,,,,,,,,,,,,6,5.888,1,,,,,,-0.096296268,-0.393518575,1,0,0,5.8879,Pegmatite_rect,5,0,5,0,1,
60c8467d9872c0d83f695499,SCR,2024-06-20_16h27.27.734,LearnStrategy,2023.2.3,Win32,59.88023952,9,2,7,,,,,,,,2,16,,,,,,,,,,,,,4,9.22,0,,,,,,0.35,-0.270370399,1,0,0,9.2199,Gabbro_rect,6,0,6,0,1,
60c8467d9872c0d83f695499,SCR,2024-06-20_16h27.27.734,LearnStrategy,2023.2.3,Win32,59.88023952,9,2,8,,,,,,,,6,09,,,,,,,,,,,,,6,5.739,1,,,,,,-0.061111111,-0.400925954,1,0,0,5.7389,Pegmatite_rect,7,0,7,0,1,
60c8467d9872c0d83f695499,SCR,2024-06-20_16h27.27.734,LearnStrategy,2023.2.3,Win32,59.88023952,9,2,9,,,,,,,,8,15,,,,,,,,,,,,,8,2.202,1,,,,,,0.45,-0.401851908,1,0,0,2.202,Pumice_rect,8,0,8,0,1,
60c8467d9872c0d83f695499,SCR,2024-06-20_16h27.27.734,LearnStrategy,2023.2.3,Win32,59.88023952,9,2,10,,,,,,,,1,05,,,,,,,,,,,,,6,6.426,0,,,,,,-0.101851824,-0.395370399,1,0,0,6.4256,Pegmatite_rect,9,0,9,0,1,
60c8467d9872c0d83f695499,SCR,2024-06-20_16h27.27.734,LearnStrategy,2023.2.3,Win32,59.88023952,9,2,11,,,,,,,,5,06,,,,,,,,,,,,,5,1.006,1,,,,,,-0.357407379,-0.411111111,1,0,0,1.0057,Obsidian_rect,10,0,10,0,1,
60c8467d9872c0d83f695499,SCR,2024-06-20_16h27.27.734,LearnStrategy,2023.2.3,Win32,59.88023952,9,2,12,,,,,,,,8,14,,,,,,,,,,,,,8,1.333,1,,,,,,0.375,-0.414814843,1,0,0,1.3335,Pumice_rect,11,0,11,0,1,
60c8467d9872c0d83f695499,SCR,2024-06-20_16h27.27.734,LearnStrategy,2023.2.3,Win32,59.88023952,9,2,13,,,,,,,,2,01,,,,,,,,,,,,,2,2.555,1,,,,,,-0.094444444,-0.25,1,0,0,2.5551,Basalt_rect,12,0,12,0,1,
60c8467d9872c0d83f695499,SCR,2024-06-20_16h27.27.734,LearnStrategy,2023.2.3,Win32,59.88023952,9,2,14,,,,,,,,3,06,,,,,,,,,,,,,3,7.725,1,,,,,,0.091666667,-0.259259288,1,0,0,7.7252,Diorite_rect,13,0,13,0,1,
60c8467d9872c0d83f695499,SCR,2024-06-20_16h27.27.734,LearnStrategy,2023.2.3,Win32,59.88023952,9,2,15,,,,,,,,3,13,,,,,,,,,,,,,6,2.886,0,,,,,,-0.05,-0.417592621,1,0,0,2.8856,Pegmatite_rect,14,0,14,0,1,
60c8467d9872c0d83f695499,SCR,2024-06-20_16h27.27.734,LearnStrategy,2023.2.3,Win32,59.88023952,9,2,16,,,,,,,,4,15,,,,,,,,,,,,,6,7.31,0,,,,,,-0.072222222,-0.418518575,1,0,0,7.3102,Pegmatite_rect,15,0,15,0,1,
60c8467d9872c0d83f695499,SCR,2024-06-20_16h27.27.734,LearnStrategy,2023.2.3,Win32,59.88023952,,,,,,,,,,,,,,,,,,,,,,,,,,,,,,,,,,,,,,,,,,,,,1
60c8467d9872c0d83f695499,SCR,2024-06-20_16h27.27.734,LearnStrategy,2023.2.3,Win32,59.88023952,,,,,,,,,,,,,,,,,,,,,,,,,,,,,,,,,,,,,,,,,,,,,
60c8467d9872c0d83f695499,SCR,2024-06-20_16h27.27.734,LearnStrategy,2023.2.3,Win32,59.88023952,,,,,,,,,,,3,09,1,1,,,,,,,,,,,,,,,,,,,,,,,,,,,,,,,
60c8467d9872c0d83f695499,SCR,2024-06-20_16h27.27.734,LearnStrategy,2023.2.3,Win32,59.88023952,,,,,,,,,,,1,09,1,2,,,,,,,,,,,,,,,,,,,,,,,,,,,,,,,
60c8467d9872c0d83f695499,SCR,2024-06-20_16h27.27.734,LearnStrategy,2023.2.3,Win32,59.88023952,,,,,,,,,,,2,11,1,3,,,,,,,,,,,,,,,,,,,,,,,,,,,,,,,
60c8467d9872c0d83f695499,SCR,2024-06-20_16h27.27.734,LearnStrategy,2023.2.3,Win32,59.88023952,,,,,,,,,,,2,10,1,4,,,,,,,,,,,,,,,,,,,,,,,,,,,,,,,
60c8467d9872c0d83f695499,SCR,2024-06-20_16h27.27.734,LearnStrategy,2023.2.3,Win32,59.88023952,,,,,,,,,,,4,12,1,5,,,,,,,,,,,,,,,,,,,,,,,,,,,,,,,
60c8467d9872c0d83f695499,SCR,2024-06-20_16h27.27.734,LearnStrategy,2023.2.3,Win32,59.88023952,,,,,,,,,,,5,05,1,6,,,,,,,,,,,,,,,,,,,,,,,,,,,,,,,
60c8467d9872c0d83f695499,SCR,2024-06-20_16h27.27.734,LearnStrategy,2023.2.3,Win32,59.88023952,,,,,,,,,,,6,16,1,7,,,,,,,,,,,,,,,,,,,,,,,,,,,,,,,
60c8467d9872c0d83f695499,SCR,2024-06-20_16h27.27.734,LearnStrategy,2023.2.3,Win32,59.88023952,,,,,,,,,,,7,06,1,8,,,,,,,,,,,,,,,,,,,,,,,,,,,,,,,
60c8467d9872c0d83f695499,SCR,2024-06-20_16h27.27.734,LearnStrategy,2023.2.3,Win32,59.88023952,,,,,,,,,,,5,12,2,1,,,,,,,,,,,,,,,,,,,,,,,,,,,,,,,
60c8467d9872c0d83f695499,SCR,2024-06-20_16h27.27.734,LearnStrategy,2023.2.3,Win32,59.88023952,,,,,,,,,,,5,02,2,2,,,,,,,,,,,,,,,,,,,,,,,,,,,,,,,
60c8467d9872c0d83f695499,SCR,2024-06-20_16h27.27.734,LearnStrategy,2023.2.3,Win32,59.88023952,,,,,,,,,,,1,01,2,3,,,,,,,,,,,,,,,,,,,,,,,,,,,,,,,
60c8467d9872c0d83f695499,SCR,2024-06-20_16h27.27.734,LearnStrategy,2023.2.3,Win32,59.88023952,,,,,,,,,,,4,10,2,4,,,,,,,,,,,,,,,,,,,,,,,,,,,,,,,
60c8467d9872c0d83f695499,SCR,2024-06-20_16h27.27.734,LearnStrategy,2023.2.3,Win32,59.88023952,,,,,,,,,,,8,08,2,5,,,,,,,,,,,,,,,,,,,,,,,,,,,,,,,
60c8467d9872c0d83f695499,SCR,2024-06-20_16h27.27.734,LearnStrategy,2023.2.3,Win32,59.88023952,,,,,,,,,,,7,07,2,6,,,,,,,,,,,,,,,,,,,,,,,,,,,,,,,
60c8467d9872c0d83f695499,SCR,2024-06-20_16h27.27.734,LearnStrategy,2023.2.3,Win32,59.88023952,,,,,,,,,,,8,03,2,7,,,,,,,,,,,,,,,,,,,,,,,,,,,,,,,
60c8467d9872c0d83f695499,SCR,2024-06-20_16h27.27.734,LearnStrategy,2023.2.3,Win32,59.88023952,,,,,,,,,,,3,12,2,8,,,,,,,,,,,,,,,,,,,,,,,,,,,,,,,
60c8467d9872c0d83f695499,SCR,2024-06-20_16h27.27.734,LearnStrategy,2023.2.3,Win32,59.88023952,,,,,,,,,,,6,06,3,1,,,,,,,,,,,,,,,,,,,,,,,,,,,,,,,
60c8467d9872c0d83f695499,SCR,2024-06-20_16h27.27.734,LearnStrategy,2023.2.3,Win32,59.88023952,,,,,,,,,,,3,15,3,2,,,,,,,,,,,,,,,,,,,,,,,,,,,,,,,
60c8467d9872c0d83f695499,SCR,2024-06-20_16h27.27.734,LearnStrategy,2023.2.3,Win32,59.88023952,,,,,,,,,,,4,16,3,3,,,,,,,,,,,,,,,,,,,,,,,,,,,,,,,
60c8467d9872c0d83f695499,SCR,2024-06-20_16h27.27.734,LearnStrategy,2023.2.3,Win32,59.88023952,,,,,,,,,,,4,11,3,4,,,,,,,,,,,,,,,,,,,,,,,,,,,,,,,
60c8467d9872c0d83f695499,SCR,2024-06-20_16h27.27.734,LearnStrategy,2023.2.3,Win32,59.88023952,,,,,,,,,,,1,06,3,5,,,,,,,,,,,,,,,,,,,,,,,,,,,,,,,
60c8467d9872c0d83f695499,SCR,2024-06-20_16h27.27.734,LearnStrategy,2023.2.3,Win32,59.88023952,,,,,,,,,,,4,14,3,6,,,,,,,,,,,,,,,,,,,,,,,,,,,,,,,
60c8467d9872c0d83f695499,SCR,2024-06-20_16h27.27.734,LearnStrategy,2023.2.3,Win32,59.88023952,,,,,,,,,,,7,05,3,7,,,,,,,,,,,,,,,,,,,,,,,,,,,,,,,
60c8467d9872c0d83f695499,SCR,2024-06-20_16h27.27.734,LearnStrategy,2023.2.3,Win32,59.88023952,,,,,,,,,,,5,11,3,8,,,,,,,,,,,,,,,,,,,,,,,,,,,,,,,
60c8467d9872c0d83f695499,SCR,2024-06-20_16h27.27.734,LearnStrategy,2023.2.3,Win32,59.88023952,,,,,,,,,,,8,04,4,1,,,,,,,,,,,,,,,,,,,,,,,,,,,,,,,
60c8467d9872c0d83f695499,SCR,2024-06-20_16h27.27.734,LearnStrategy,2023.2.3,Win32,59.88023952,,,,,,,,,,,2,14,4,2,,,,,,,,,,,,,,,,,,,,,,,,,,,,,,,
60c8467d9872c0d83f695499,SCR,2024-06-20_16h27.27.734,LearnStrategy,2023.2.3,Win32,59.88023952,,,,,,,,,,,8,06,4,3,,,,,,,,,,,,,,,,,,,,,,,,,,,,,,,
60c8467d9872c0d83f695499,SCR,2024-06-20_16h27.27.734,LearnStrategy,2023.2.3,Win32,59.88023952,,,,,,,,,,,4,08,4,4,,,,,,,,,,,,,,,,,,,,,,,,,,,,,,,
60c8467d9872c0d83f695499,SCR,2024-06-20_16h27.27.734,LearnStrategy,2023.2.3,Win32,59.88023952,,,,,,,,,,,8,13,4,5,,,,,,,,,,,,,,,,,,,,,,,,,,,,,,,
60c8467d9872c0d83f695499,SCR,2024-06-20_16h27.27.734,LearnStrategy,2023.2.3,Win32,59.88023952,,,,,,,,,,,1,11,4,6,,,,,,,,,,,,,,,,,,,,,,,,,,,,,,,
60c8467d9872c0d83f695499,SCR,2024-06-20_16h27.27.734,LearnStrategy,2023.2.3,Win32,59.88023952,,,,,,,,,,,6,11,4,7,,,,,,,,,,,,,,,,,,,,,,,,,,,,,,,
60c8467d9872c0d83f695499,SCR,2024-06-20_16h27.27.734,LearnStrategy,2023.2.3,Win32,59.88023952,,,,,,,,,,,3,16,4,8,,,,,,,,,,,,,,,,,,,,,,,,,,,,,,,
60c8467d9872c0d83f695499,SCR,2024-06-20_16h27.27.734,LearnStrategy,2023.2.3,Win32,59.88023952,,,,,,,,,,,7,08,5,1,,,,,,,,,,,,,,,,,,,,,,,,,,,,,,,
60c8467d9872c0d83f695499,SCR,2024-06-20_16h27.27.734,LearnStrategy,2023.2.3,Win32,59.88023952,,,,,,,,,,,1,02,5,2,,,,,,,,,,,,,,,,,,,,,,,,,,,,,,,
60c8467d9872c0d83f695499,SCR,2024-06-20_16h27.27.734,LearnStrategy,2023.2.3,Win32,59.88023952,,,,,,,,,,,2,04,5,3,,,,,,,,,,,,,,,,,,,,,,,,,,,,,,,
60c8467d9872c0d83f695499,SCR,2024-06-20_16h27.27.734,LearnStrategy,2023.2.3,Win32,59.88023952,,,,,,,,,,,7,15,5,4,,,,,,,,,,,,,,,,,,,,,,,,,,,,,,,
60c8467d9872c0d83f695499,SCR,2024-06-20_16h27.27.734,LearnStrategy,2023.2.3,Win32,59.88023952,,,,,,,,,,,6,05,5,5,,,,,,,,,,,,,,,,,,,,,,,,,,,,,,,
60c8467d9872c0d83f695499,SCR,2024-06-20_16h27.27.734,LearnStrategy,2023.2.3,Win32,59.88023952,,,,,,,,,,,2,12,5,6,,,,,,,,,,,,,,,,,,,,,,,,,,,,,,,
60c8467d9872c0d83f695499,SCR,2024-06-20_16h27.27.734,LearnStrategy,2023.2.3,Win32,59.88023952,,,,,,,,,,,7,10,5,7,,,,,,,,,,,,,,,,,,,,,,,,,,,,,,,
60c8467d9872c0d83f695499,SCR,2024-06-20_16h27.27.734,LearnStrategy,2023.2.3,Win32,59.88023952,,,,,,,,,,,6,03,5,8,,,,,,,,,,,,,,,,,,,,,,,,,,,,,,,
60c8467d9872c0d83f695499,SCR,2024-06-20_16h27.27.734,LearnStrategy,2023.2.3,Win32,59.88023952,,,,,,,,,,,2,02,6,1,,,,,,,,,,,,,,,,,,,,,,,,,,,,,,,
60c8467d9872c0d83f695499,SCR,2024-06-20_16h27.27.734,LearnStrategy,2023.2.3,Win32,59.88023952,,,,,,,,,,,3,02,6,2,,,,,,,,,,,,,,,,,,,,,,,,,,,,,,,
60c8467d9872c0d83f695499,SCR,2024-06-20_16h27.27.734,LearnStrategy,2023.2.3,Win32,59.88023952,,,,,,,,,,,1,14,6,3,,,,,,,,,,,,,,,,,,,,,,,,,,,,,,,
60c8467d9872c0d83f695499,SCR,2024-06-20_16h27.27.734,LearnStrategy,2023.2.3,Win32,59.88023952,,,,,,,,,,,3,08,6,4,,,,,,,,,,,,,,,,,,,,,,,,,,,,,,,
60c8467d9872c0d83f695499,SCR,2024-06-20_16h27.27.734,LearnStrategy,2023.2.3,Win32,59.88023952,,,,,,,,,,,6,10,6,5,,,,,,,,,,,,,,,,,,,,,,,,,,,,,,,
60c8467d9872c0d83f695499,SCR,2024-06-20_16h27.27.734,LearnStrategy,2023.2.3,Win32,59.88023952,,,,,,,,,,,5,10,6,6,,,,,,,,,,,,,,,,,,,,,,,,,,,,,,,
60c8467d9872c0d83f695499,SCR,2024-06-20_16h27.27.734,LearnStrategy,2023.2.3,Win32,59.88023952,,,,,,,,,,,5,08,6,7,,,,,,,,,,,,,,,,,,,,,,,,,,,,,,,
60c8467d9872c0d83f695499,SCR,2024-06-20_16h27.27.734,LearnStrategy,2023.2.3,Win32,59.88023952,,,,,,,,,,,8,02,6,8,,,,,,,,,,,,,,,,,,,,,,,,,,,,,,,