participant,condition,date,expName,psychopyVersion,OS,frameRate,block,phase,trial,learn_mouse.x,learn_mouse.y,learn_mouse.leftButton,learn_mouse.midButton,learn_mouse.rightButton,learn_mouse.time,learn_mouse.clicked_name,cat,token,row,col,t_select,cat_mouse_l.x,cat_mouse_l.y,cat_mouse_l.leftButton,cat_mouse_l.midButton,cat_mouse_l.rightButton,cat_mouse_l.time,cat_mouse_l.clicked_name,resp,t_resp,corr,train_trials.thisRepN,train_trials.thisTrialN,train_trials.thisN,train_trials.thisIndex,train_trials.ran,cat_mouse_t.x,cat_mouse_t.y,cat_mouse_t.leftButton,cat_mouse_t.midButton,cat_mouse_t.rightButton,cat_mouse_t.time,cat_mouse_t.clicked_name,test_trials.thisRepN,test_trials.thisTrialN,test_trials.thisN,test_trials.thisIndex,test_trials.ran,Bonus
60ca4cfb5c287146cad0695a,SCN,2024-06-24_14h46.19.790,LearnStrategy,2023.2.3,Linux x86_64,59.88023952,,,,,,,,,,,,,,,,,,,,,,,,,,,,,,,,,,,,,,,,,,,
60ca4cfb5c287146cad0695a,SCN,2024-06-24_14h46.19.790,LearnStrategy,2023.2.3,Linux x86_64,59.88023952,1,1,1,-0.535412676,0.411824392,1,0,0,4.8285,Andesite_06,1,06,6,1,4.828,-0.086463248,-0.251865297,1,0,0,11.8153,Basalt_rect,2,11.815,0,0,0,0,0,1,,,,,,,,,,,,,
60ca4cfb5c287146cad0695a,SCN,2024-06-24_14h46.19.790,LearnStrategy,2023.2.3,Linux x86_64,59.88023952,1,1,2,-0.392410135,0.403771297,1,0,0,4.0168,Pumice_16,8,16,6,2,4.017,0.335976901,-0.390585886,1,0,0,4.6673,Pumice_rect,8,4.667,1,1,0,1,0,1,,,,,,,,,,,,,
60ca4cfb5c287146cad0695a,SCN,2024-06-24_14h46.19.790,LearnStrategy,2023.2.3,Linux x86_64,59.88023952,1,1,3,-0.199129848,0.389273227,1,0,0,3.1346,Pumice_10,8,10,6,3,3.135,-0.212613245,-0.396190016,1,0,0,6.9442,Pegmatite_rect,6,6.944,0,2,0,2,0,1,,,,,,,,,,,,,
60ca4cfb5c287146cad0695a,SCN,2024-06-24_14h46.19.790,LearnStrategy,2023.2.3,Linux x86_64,59.88023952,1,1,4,-0.079766,0.387172618,1,0,0,1.9869,Gabbro_13,4,13,6,4,1.987,-0.42913847,-0.414759676,1,0,0,4.7607,Obsidian_rect,5,4.761,0,3,0,3,0,1,,,,,,,,,,,,,
60ca4cfb5c287146cad0695a,SCN,2024-06-24_14h46.19.790,LearnStrategy,2023.2.3,Linux x86_64,59.88023952,1,1,5,0.066785929,0.394254138,1,0,0,1.898,Gabbro_12,4,12,6,5,1.898,0.045045736,-0.243405194,1,0,0,2.3926,Diorite_rect,3,2.393,0,4,0,4,0,1,,,,,,,,,,,,,
60ca4cfb5c287146cad0695a,SCN,2024-06-24_14h46.19.790,LearnStrategy,2023.2.3,Linux x86_64,59.88023952,1,1,6,0.236071376,0.422160816,1,0,0,1.5836,Basalt_04,2,04,6,6,1.584,-0.085108224,-0.405906785,1,0,0,5.2111,Pegmatite_rect,6,5.211,0,5,0,5,0,1,,,,,,,,,,,,,
60ca4cfb5c287146cad0695a,SCN,2024-06-24_14h46.19.790,LearnStrategy,2023.2.3,Linux x86_64,59.88023952,1,1,7,0.406235386,0.396503645,1,0,0,1.6976,Obsidian_14,5,14,6,7,1.698,-0.351055665,-0.402582589,1,0,0,4.3645,Obsidian_rect,5,4.364,1,6,0,6,0,1,,,,,,,,,,,,,
60ca4cfb5c287146cad0695a,SCN,2024-06-24_14h46.19.790,LearnStrategy,2023.2.3,Linux x86_64,59.88023952,1,1,8,0.519674955,0.387456357,1,0,0,1.9818,Obsidian_05,5,05,6,8,1.982,-0.389565553,-0.395191103,1,0,0,2.1043,Obsidian_rect,5,2.104,1,7,0,7,0,1,,,,,,,,,,,,,
60ca4cfb5c287146cad0695a,SCN,2024-06-24_14h46.19.790,LearnStrategy,2023.2.3,Linux x86_64,59.88023952,1,1,9,-0.534488445,0.224969389,1,0,0,1.3811,Andesite_01,1,01,5,1,1.381,0.093001603,-0.390621991,1,0,0,3.0364,Peridotite_rect,7,3.036,0,8,0,8,0,1,,,,,,,,,,,,,
60ca4cfb5c287146cad0695a,SCN,2024-06-24_14h46.19.790,LearnStrategy,2023.2.3,Linux x86_64,59.88023952,1,1,10,-0.365655962,0.238270092,1,0,0,1.4991,Pegmatite_12,6,12,5,2,1.499,0.090365128,-0.251438553,1,0,0,5.7119,Diorite_rect,3,5.712,0,9,0,9,0,1,,,,,,,,,,,,,
60ca4cfb5c287146cad0695a,SCN,2024-06-24_14h46.19.790,LearnStrategy,2023.2.3,Linux x86_64,59.88023952,1,1,11,-0.189304191,0.244194568,1,0,0,1.7309,Obsidian_11,5,11,5,3,1.731,-0.391229513,-0.384972299,1,0,0,2.1763,Obsidian_rect,5,2.176,1,10,0,10,0,1,,,,,,,,,,,,,
60ca4cfb5c287146cad0695a,SCN,2024-06-24_14h46.19.790,LearnStrategy,2023.2.3,Linux x86_64,59.88023952,1,1,12,-0.046072875,0.208276274,1,0,0,1.1002,Obsidian_09,5,09,5,4,1.1,-0.341178572,-0.400478166,1,0,0,1.4375,Obsidian_rect,5,1.438,1,11,0,11,0,1,,,,,,,,,,,,,
60ca4cfb5c287146cad0695a,SCN,2024-06-24_14h46.19.790,LearnStrategy,2023.2.3,Linux x86_64,59.88023952,1,1,13,0.038709184,0.230890713,1,0,0,1.3826,Basalt_05,2,05,5,5,1.383,-0.125549388,-0.401842717,1,0,0,6.7487,Pegmatite_rect,6,6.749,0,12,0,12,0,1,,,,,,,,,,,,,
60ca4cfb5c287146cad0695a,SCN,2024-06-24_14h46.19.790,LearnStrategy,2023.2.3,Linux x86_64,59.88023952,1,1,14,0.201771767,0.235675937,1,0,0,1.1975,Pegmatite_09,6,09,5,6,1.197,0.342813268,-0.391135131,1,0,0,1.9563,Pumice_rect,8,1.956,0,13,0,13,0,1,,,,,,,,,,,,,
60ca4cfb5c287146cad0695a,SCN,2024-06-24_14h46.19.790,LearnStrategy,2023.2.3,Linux x86_64,59.88023952,1,1,15,0.395005777,0.245169053,1,0,0,1.05,Pumice_03,8,03,5,7,1.05,0.345012826,-0.406103931,1,0,0,1.2764,Pumice_rect,8,1.276,1,14,0,14,0,1,,,,,,,,,,,,,
60ca4cfb5c287146cad0695a,SCN,2024-06-24_14h46.19.790,LearnStrategy,2023.2.3,Linux x86_64,59.88023952,1,1,16,0.533767485,0.246751293,1,0,0,1.2487,Diorite_13,3,13,5,8,1.249,0.308852505,-0.380529413,1,0,0,4.242,Pumice_rect,8,4.242,0,15,0,15,0,1,,,,,,,,,,,,,
60ca4cfb5c287146cad0695a,SCN,2024-06-24_14h46.19.790,LearnStrategy,2023.2.3,Linux x86_64,59.88023952,1,2,1,,,,,,,,2,09,,,,,,,,,,,6,6.62,0,,,,,,-0.143263194,-0.414143594,1,0,0,6.6205,Pegmatite_rect,0,0,0,0,1,
60ca4cfb5c287146cad0695a,SCN,2024-06-24_14h46.19.790,LearnStrategy,2023.2.3,Linux x86_64,59.88023952,1,2,2,,,,,,,,8,13,,,,,,,,,,,7,4.136,0,,,,,,0.088060119,-0.405503466,1,0,0,4.1359,Peridotite_rect,1,0,1,0,1,
60ca4cfb5c287146cad0695a,SCN,2024-06-24_14h46.19.790,LearnStrategy,2023.2.3,Linux x86_64,59.88023952,1,2,3,,,,,,,,3,02,,,,,,,,,,,3,2.856,1,,,,,,0.034630359,-0.252003128,1,0,0,2.8555,Diorite_rect,2,0,2,0,1,
60ca4cfb5c287146cad0695a,SCN,2024-06-24_14h46.19.790,LearnStrategy,2023.2.3,Linux x86_64,59.88023952,1,2,4,,,,,,,,4,15,,,,,,,,,,,2,2.449,0,,,,,,-0.064933956,-0.25744285,1,0,0,2.4492,Basalt_rect,3,0,3,0,1,
60ca4cfb5c287146cad0695a,SCN,2024-06-24_14h46.19.790,LearnStrategy,2023.2.3,Linux x86_64,59.88023952,1,2,5,,,,,,,,7,14,,,,,,,,,,,4,2.319,0,,,,,,0.413504157,-0.245259531,1,0,0,2.3188,Gabbro_rect,4,0,4,0,1,
60ca4cfb5c287146cad0695a,SCN,2024-06-24_14h46.19.790,LearnStrategy,2023.2.3,Linux x86_64,59.88023952,1,2,6,,,,,,,,6,08,,,,,,,,,,,5,3.067,0,,,,,,-0.334576101,-0.401923381,1,0,0,3.0668,Obsidian_rect,5,0,5,0,1,
60ca4cfb5c287146cad0695a,SCN,2024-06-24_14h46.19.790,LearnStrategy,2023.2.3,Linux x86_64,59.88023952,1,2,7,,,,,,,,1,03,,,,,,,,,,,2,3.346,0,,,,,,-0.077954431,-0.266282919,1,0,0,3.3461,Basalt_rect,6,0,6,0,1,
60ca4cfb5c287146cad0695a,SCN,2024-06-24_14h46.19.790,LearnStrategy,2023.2.3,Linux x86_64,59.88023952,1,2,8,,,,,,,,5,04,,,,,,,,,,,5,2.056,1,,,,,,-0.389302178,-0.395258944,1,0,0,2.0564,Obsidian_rect,7,0,7,0,1,
60ca4cfb5c287146cad0695a,SCN,2024-06-24_14h46.19.790,LearnStrategy,2023.2.3,Linux x86_64,59.88023952,1,2,9,,,,,,,,4,11,,,,,,,,,,,7,2.135,0,,,,,,0.103932269,-0.390738474,1,0,0,2.1352,Peridotite_rect,8,0,8,0,1,
60ca4cfb5c287146cad0695a,SCN,2024-06-24_14h46.19.790,LearnStrategy,2023.2.3,Linux x86_64,59.88023952,1,2,10,,,,,,,,2,08,,,,,,,,,,,4,5.858,0,,,,,,0.303384557,-0.230658733,1,0,0,5.8583,Gabbro_rect,9,0,9,0,1,
60ca4cfb5c287146cad0695a,SCN,2024-06-24_14h46.19.790,LearnStrategy,2023.2.3,Linux x86_64,59.88023952,1,2,11,,,,,,,,3,16,,,,,,,,,,,2,2.768,0,,,,,,-0.068000973,-0.251781768,1,0,0,2.7681,Basalt_rect,10,0,10,0,1,
60ca4cfb5c287146cad0695a,SCN,2024-06-24_14h46.19.790,LearnStrategy,2023.2.3,Linux x86_64,59.88023952,1,2,12,,,,,,,,7,16,,,,,,,,,,,6,3.077,0,,,,,,-0.103212742,-0.396290596,1,0,0,3.0767,Pegmatite_rect,11,0,11,0,1,
60ca4cfb5c287146cad0695a,SCN,2024-06-24_14h46.19.790,LearnStrategy,2023.2.3,Linux x86_64,59.88023952,1,2,13,,,,,,,,6,10,,,,,,,,,,,7,4.085,0,,,,,,0.193326565,-0.39684987,1,0,0,4.0851,Peridotite_rect,12,0,12,0,1,
60ca4cfb5c287146cad0695a,SCN,2024-06-24_14h46.19.790,LearnStrategy,2023.2.3,Linux x86_64,59.88023952,1,2,14,,,,,,,,1,02,,,,,,,,,,,3,3.067,0,,,,,,0.162131296,-0.266420463,1,0,0,3.0675,Diorite_rect,13,0,13,0,1,
60ca4cfb5c287146cad0695a,SCN,2024-06-24_14h46.19.790,LearnStrategy,2023.2.3,Linux x86_64,59.88023952,1,2,15,,,,,,,,5,06,,,,,,,,,,,5,1.939,1,,,,,,-0.330319042,-0.413249558,1,0,0,1.9386,Obsidian_rect,14,0,14,0,1,
60ca4cfb5c287146cad0695a,SCN,2024-06-24_14h46.19.790,LearnStrategy,2023.2.3,Linux x86_64,59.88023952,1,2,16,,,,,,,,8,05,,,,,,,,,,,8,3.212,1,,,,,,0.391787247,-0.420112932,1,0,0,3.2121,Pumice_rect,15,0,15,0,1,
60ca4cfb5c287146cad0695a,SCN,2024-06-24_14h46.19.790,LearnStrategy,2023.2.3,Linux x86_64,59.88023952,2,1,1,-0.506781744,-0.40426077,1,0,0,16.322,Diorite_14,3,14,1,1,16.322,-0.415854799,-0.240229217,1,0,0,2.7259,Andesite_rect,1,2.726,0,0,0,0,0,1,,,,,,,,,,,,,
60ca4cfb5c287146cad0695a,SCN,2024-06-24_14h46.19.790,LearnStrategy,2023.2.3,Linux x86_64,59.88023952,2,1,2,0.051015075,-0.244989601,1,0,0,4.4155,Peridotite_15,7,15,2,5,4.416,-0.07228597,-0.391865332,1,0,0,1.8816,Pegmatite_rect,6,1.882,0,1,0,1,0,1,,,,,,,,,,,,,
60ca4cfb5c287146cad0695a,SCN,2024-06-24_14h46.19.790,LearnStrategy,2023.2.3,Linux x86_64,59.88023952,2,1,3,0.528801573,-0.127571572,1,0,0,4.0995,Pegmatite_15,6,15,3,8,4.099,0.090963802,-0.256197719,1,0,0,3.0171,Diorite_rect,3,3.017,0,2,0,2,0,1,,,,,,,,,,,,,
60ca4cfb5c287146cad0695a,SCN,2024-06-24_14h46.19.790,LearnStrategy,2023.2.3,Linux x86_64,59.88023952,2,1,4,0.275811567,-0.418779328,1,0,0,2.7167,Gabbro_09,4,09,1,6,2.717,0.077455404,-0.244011892,1,0,0,1.8616,Diorite_rect,3,1.862,0,3,0,3,0,1,,,,,,,,,,,,,
60ca4cfb5c287146cad0695a,SCN,2024-06-24_14h46.19.790,LearnStrategy,2023.2.3,Linux x86_64,59.88023952,2,1,5,0.223618485,0.085231477,1,0,0,3.5839,Diorite_06,3,06,4,6,3.584,-0.350818544,-0.266015783,1,0,0,1.4603,Andesite_rect,1,1.46,0,4,0,4,0,1,,,,,,,,,,,,,
60ca4cfb5c287146cad0695a,SCN,2024-06-24_14h46.19.790,LearnStrategy,2023.2.3,Linux x86_64,59.88023952,2,1,6,-0.416010789,-0.241773435,1,0,0,1.1161,Andesite_07,1,07,2,2,1.116,-0.090735565,-0.266106547,1,0,0,1.2619,Basalt_rect,2,1.262,0,5,0,5,0,1,,,,,,,,,,,,,
60ca4cfb5c287146cad0695a,SCN,2024-06-24_14h46.19.790,LearnStrategy,2023.2.3,Linux x86_64,59.88023952,2,1,7,-0.040183914,-0.135910464,1,0,0,1.0814,Pegmatite_06,6,06,3,4,1.081,0.145921519,-0.391249894,1,0,0,3.0972,Peridotite_rect,7,3.097,0,6,0,6,0,1,,,,,,,,,,,,,
60ca4cfb5c287146cad0695a,SCN,2024-06-24_14h46.19.790,LearnStrategy,2023.2.3,Linux x86_64,59.88023952,2,1,8,0.555185667,-0.232887447,1,0,0,1.7156,Basalt_01,2,01,2,8,1.716,-0.106401184,-0.387545232,1,0,0,3.6264,Pegmatite_rect,6,3.626,0,7,0,7,0,1,,,,,,,,,,,,,
60ca4cfb5c287146cad0695a,SCN,2024-06-24_14h46.19.790,LearnStrategy,2023.2.3,Linux x86_64,59.88023952,2,1,9,0.208596816,-0.274676757,1,0,0,3.3659,Peridotite_07,7,07,2,6,3.366,-0.172213201,-0.380360563,1,0,0,2.5436,Pegmatite_rect,6,2.544,0,8,0,8,0,1,,,,,,,,,,,,,
60ca4cfb5c287146cad0695a,SCN,2024-06-24_14h46.19.790,LearnStrategy,2023.2.3,Linux x86_64,59.88023952,2,1,10,0.372382939,0.241020006,1,0,0,3.4663,Pumice_03,8,03,5,7,3.466,0.349396039,-0.399376739,1,0,0,2.8059,Pumice_rect,8,2.806,1,9,0,9,0,1,,,,,,,,,,,,,
60ca4cfb5c287146cad0695a,SCN,2024-06-24_14h46.19.790,LearnStrategy,2023.2.3,Linux x86_64,59.88023952,2,1,11,-0.233777113,-0.39507899,1,0,0,3.4475,Pegmatite_13,6,13,1,3,3.447,-0.196476753,-0.253512674,1,0,0,1.2826,Basalt_rect,2,1.283,0,10,0,10,0,1,,,,,,,,,,,,,
60ca4cfb5c287146cad0695a,SCN,2024-06-24_14h46.19.790,LearnStrategy,2023.2.3,Linux x86_64,59.88023952,2,1,12,0.231482564,0.2352015,1,0,0,2.4663,Pegmatite_09,6,09,5,6,2.466,0.394274788,-0.255979798,1,0,0,3.8981,Gabbro_rect,4,3.898,0,11,0,11,0,1,,,,,,,,,,,,,
60ca4cfb5c287146cad0695a,SCN,2024-06-24_14h46.19.790,LearnStrategy,2023.2.3,Linux x86_64,59.88023952,2,1,13,0.518852126,-0.269036521,1,0,0,2.219,Basalt_01,2,01,2,8,2.219,-0.102766726,-0.388125138,1,0,0,3.1292,Pegmatite_rect,6,3.129,0,12,0,12,0,1,,,,,,,,,,,,,
60ca4cfb5c287146cad0695a,SCN,2024-06-24_14h46.19.790,LearnStrategy,2023.2.3,Linux x86_64,59.88023952,2,1,14,0.363797756,-0.41052941,1,0,0,3.3831,Gabbro_08,4,08,1,7,3.383,0.159881162,-0.256887373,1,0,0,1.1651,Diorite_rect,3,1.165,0,13,0,13,0,1,,,,,,,,,,,,,
60ca4cfb5c287146cad0695a,SCN,2024-06-24_14h46.19.790,LearnStrategy,2023.2.3,Linux x86_64,59.88023952,2,1,15,0.034027529,0.235470982,1,0,0,4.0032,Basalt_05,2,05,5,5,4.003,0.173108813,-0.266817263,1,0,0,3.0706,Diorite_rect,3,3.071,0,14,0,14,0,1,,,,,,,,,,,,,
60ca4cfb5c287146cad0695a,SCN,2024-06-24_14h46.19.790,LearnStrategy,2023.2.3,Linux x86_64,59.88023952,2,1,16,-0.129029968,-0.272811675,1,0,0,4.7003,Diorite_10,3,10,2,4,4.7,-0.137826624,-0.258770079,1,0,0,1.5075,Basalt_rect,2,1.508,0,15,0,15,0,1,,,,,,,,,,,,,
60ca4cfb5c287146cad0695a,SCN,2024-06-24_14h46.19.790,LearnStrategy,2023.2.3,Linux x86_64,59.88023952,2,2,1,,,,,,,,5,02,,,,,,,,,,,5,2.243,1,,,,,,-0.37086999,-0.404138628,1,0,0,2.2425,Obsidian_rect,0,0,0,0,1,
60ca4cfb5c287146cad0695a,SCN,2024-06-24_14h46.19.790,LearnStrategy,2023.2.3,Linux x86_64,59.88023952,2,2,2,,,,,,,,3,12,,,,,,,,,,,1,1.874,0,,,,,,-0.348787908,-0.254170163,1,0,0,1.8737,Andesite_rect,1,0,1,0,1,
60ca4cfb5c287146cad0695a,SCN,2024-06-24_14h46.19.790,LearnStrategy,2023.2.3,Linux x86_64,59.88023952,2,2,3,,,,,,,,7,08,,,,,,,,,,,7,2.25,1,,,,,,0.095878135,-0.381365566,1,0,0,2.2503,Peridotite_rect,2,0,2,0,1,
60ca4cfb5c287146cad0695a,SCN,2024-06-24_14h46.19.790,LearnStrategy,2023.2.3,Linux x86_64,59.88023952,2,2,4,,,,,,,,6,16,,,,,,,,,,,6,1.462,1,,,,,,-0.084972328,-0.405137326,1,0,0,1.4625,Pegmatite_rect,3,0,3,0,1,
60ca4cfb5c287146cad0695a,SCN,2024-06-24_14h46.19.790,LearnStrategy,2023.2.3,Linux x86_64,59.88023952,2,2,5,,,,,,,,3,09,,,,,,,,,,,3,1.798,1,,,,,,0.09771313,-0.241776301,1,0,0,1.7985,Diorite_rect,4,0,4,0,1,
60ca4cfb5c287146cad0695a,SCN,2024-06-24_14h46.19.790,LearnStrategy,2023.2.3,Linux x86_64,59.88023952,2,2,6,,,,,,,,4,05,,,,,,,,,,,7,1.86,0,,,,,,0.17738285,-0.399084888,1,0,0,1.8599,Peridotite_rect,5,0,5,0,1,
60ca4cfb5c287146cad0695a,SCN,2024-06-24_14h46.19.790,LearnStrategy,2023.2.3,Linux x86_64,59.88023952,2,2,7,,,,,,,,8,15,,,,,,,,,,,8,1.675,1,,,,,,0.389661619,-0.392897628,1,0,0,1.6755,Pumice_rect,6,0,6,0,1,
60ca4cfb5c287146cad0695a,SCN,2024-06-24_14h46.19.790,LearnStrategy,2023.2.3,Linux x86_64,59.88023952,2,2,8,,,,,,,,2,10,,,,,,,,,,,6,2.584,0,,,,,,-0.112978008,-0.391145518,1,0,0,2.5844,Pegmatite_rect,7,0,7,0,1,
60ca4cfb5c287146cad0695a,SCN,2024-06-24_14h46.19.790,LearnStrategy,2023.2.3,Linux x86_64,59.88023952,2,2,9,,,,,,,,4,10,,,,,,,,,,,2,1.497,0,,,,,,-0.156133016,-0.261072365,1,0,0,1.4966,Basalt_rect,8,0,8,0,1,
60ca4cfb5c287146cad0695a,SCN,2024-06-24_14h46.19.790,LearnStrategy,2023.2.3,Linux x86_64,59.88023952,2,2,10,,,,,,,,1,04,,,,,,,,,,,3,1.721,0,,,,,,0.081109848,-0.249904077,1,0,0,1.721,Diorite_rect,9,0,9,0,1,
60ca4cfb5c287146cad0695a,SCN,2024-06-24_14h46.19.790,LearnStrategy,2023.2.3,Linux x86_64,59.88023952,2,2,11,,,,,,,,8,14,,,,,,,,,,,8,1.807,1,,,,,,0.37477076,-0.39526317,1,0,0,1.8069,Pumice_rect,10,0,10,0,1,
60ca4cfb5c287146cad0695a,SCN,2024-06-24_14h46.19.790,LearnStrategy,2023.2.3,Linux x86_64,59.88023952,2,2,12,,,,,,,,6,07,,,,,,,,,,,7,2.026,0,,,,,,0.168022335,-0.390983904,1,0,0,2.0256,Peridotite_rect,11,0,11,0,1,
60ca4cfb5c287146cad0695a,SCN,2024-06-24_14h46.19.790,LearnStrategy,2023.2.3,Linux x86_64,59.88023952,2,2,13,,,,,,,,1,16,,,,,,,,,,,6,5.534,0,,,,,,-0.083090124,-0.417170493,1,0,0,5.5339,Pegmatite_rect,12,0,12,0,1,
60ca4cfb5c287146cad0695a,SCN,2024-06-24_14h46.19.790,LearnStrategy,2023.2.3,Linux x86_64,59.88023952,2,2,14,,,,,,,,2,14,,,,,,,,,,,1,2.082,0,,,,,,-0.41186613,-0.259579009,1,0,0,2.0823,Andesite_rect,13,0,13,0,1,
60ca4cfb5c287146cad0695a,SCN,2024-06-24_14h46.19.790,LearnStrategy,2023.2.3,Linux x86_64,59.88023952,2,2,15,,,,,,,,7,02,,,,,,,,,,,1,1.8,0,,,,,,-0.364251795,-0.247474706,1,0,0,1.7999,Andesite_rect,14,0,14,0,1,
60ca4cfb5c287146cad0695a,SCN,2024-06-24_14h46.19.790,LearnStrategy,2023.2.3,Linux x86_64,59.88023952,2,2,16,,,,,,,,5,10,,,,,,,,,,,5,1.95,1,,,,,,-0.418064458,-0.405759068,1,0,0,1.9504,Obsidian_rect,15,0,15,0,1,
60ca4cfb5c287146cad0695a,SCN,2024-06-24_14h46.19.790,LearnStrategy,2023.2.3,Linux x86_64,59.88023952,3,1,1,0.54089728,-0.407673581,1,0,0,4.5167,Gabbro_14,4,14,1,8,4.517,-0.408975736,-0.228080069,1,0,0,2.9541,Andesite_rect,1,2.954,0,0,0,0,0,1,,,,,,,,,,,,,
60ca4cfb5c287146cad0695a,SCN,2024-06-24_14h46.19.790,LearnStrategy,2023.2.3,Linux x86_64,59.88023952,3,1,2,0.376412119,-0.41159817,1,0,0,1.3644,Gabbro_08,4,08,1,7,1.364,-0.3088092,-0.249230327,1,0,0,2.939,Andesite_rect,1,2.939,0,1,0,1,0,1,,,,,,,,,,,,,
60ca4cfb5c287146cad0695a,SCN,2024-06-24_14h46.19.790,LearnStrategy,2023.2.3,Linux x86_64,59.88023952,3,1,3,0.215463414,-0.369729772,1,0,0,1.1817,Gabbro_09,4,09,1,6,1.182,-0.143846109,-0.410690379,1,0,0,4.3018,Pegmatite_rect,6,4.302,0,2,0,2,0,1,,,,,,,,,,,,,
60ca4cfb5c287146cad0695a,SCN,2024-06-24_14h46.19.790,LearnStrategy,2023.2.3,Linux x86_64,59.88023952,3,1,4,0.041477114,-0.414694128,1,0,0,2.0167,Pumice_09,8,09,1,5,2.017,0.374965041,-0.407918724,1,0,0,3.0225,Pumice_rect,8,3.023,1,3,0,3,0,1,,,,,,,,,,,,,
60ca4cfb5c287146cad0695a,SCN,2024-06-24_14h46.19.790,LearnStrategy,2023.2.3,Linux x86_64,59.88023952,3,1,5,-0.102856632,-0.447099784,1,0,0,1.2987,Diorite_08,3,08,1,4,1.299,-0.067190036,-0.400377157,1,0,0,2.2362,Pegmatite_rect,6,2.236,0,4,0,4,0,1,,,,,,,,,,,,,
60ca4cfb5c287146cad0695a,SCN,2024-06-24_14h46.19.790,LearnStrategy,2023.2.3,Linux x86_64,59.88023952,3,1,6,-0.265869499,-0.282112301,1,0,0,1.6644,Peridotite_06,7,06,2,3,1.664,0.066476097,-0.389376,1,0,0,2.4745,Peridotite_rect,7,2.475,1,5,0,5,0,1,,,,,,,,,,,,,
60ca4cfb5c287146cad0695a,SCN,2024-06-24_14h46.19.790,LearnStrategy,2023.2.3,Linux x86_64,59.88023952,3,1,7,0.115989005,-0.108166547,1,0,0,3.3003,Andesite_09,1,09,3,5,3.3,-0.129847495,-0.244906358,1,0,0,1.8142,Basalt_rect,2,1.814,0,6,0,6,0,1,,,,,,,,,,,,,
60ca4cfb5c287146cad0695a,SCN,2024-06-24_14h46.19.790,LearnStrategy,2023.2.3,Linux x86_64,59.88023952,3,1,8,0.226234973,0.114357568,1,0,0,3.0823,Diorite_06,3,06,4,6,3.082,0.14308668,-0.245339407,1,0,0,1.2838,Diorite_rect,3,1.284,1,7,0,7,0,1,,,,,,,,,,,,,
60ca4cfb5c287146cad0695a,SCN,2024-06-24_14h46.19.790,LearnStrategy,2023.2.3,Linux x86_64,59.88023952,3,1,9,0.083908726,0.080109431,1,0,0,0.7485,Andesite_10,1,10,4,5,0.748,0.338919626,-0.40459109,1,0,0,3.5479,Pumice_rect,8,3.548,0,8,0,8,0,1,,,,,,,,,,,,,
60ca4cfb5c287146cad0695a,SCN,2024-06-24_14h46.19.790,LearnStrategy,2023.2.3,Linux x86_64,59.88023952,3,1,10,0.404051588,0.093621339,1,0,0,1.6325,Pegmatite_03,6,03,4,7,1.633,-0.40247653,-0.391633155,1,0,0,3.714,Obsidian_rect,5,3.714,0,9,0,9,0,1,,,,,,,,,,,,,
60ca4cfb5c287146cad0695a,SCN,2024-06-24_14h46.19.790,LearnStrategy,2023.2.3,Linux x86_64,59.88023952,3,1,11,-0.561217581,0.109984707,1,0,0,0.9822,Andesite_14,1,14,4,1,0.982,-0.363881393,-0.23331369,1,0,0,1.5663,Andesite_rect,1,1.566,1,10,0,10,0,1,,,,,,,,,,,,,
60ca4cfb5c287146cad0695a,SCN,2024-06-24_14h46.19.790,LearnStrategy,2023.2.3,Linux x86_64,59.88023952,3,1,12,0.58517671,0.117341986,1,0,0,6.6356,Peridotite_04,7,04,4,8,6.636,-0.095536783,-0.257375941,1,0,0,1.3496,Basalt_rect,2,1.35,0,11,0,11,0,1,,,,,,,,,,,,,
60ca4cfb5c287146cad0695a,SCN,2024-06-24_14h46.19.790,LearnStrategy,2023.2.3,Linux x86_64,59.88023952,3,1,13,0.565562217,-0.135802148,1,0,0,1.3328,Pegmatite_15,6,15,3,8,1.333,0.164064363,-0.228778893,1,0,0,20.1691,Diorite_rect,3,20.169,0,12,0,12,0,1,,,,,,,,,,,,,
60ca4cfb5c287146cad0695a,SCN,2024-06-24_14h46.19.790,LearnStrategy,2023.2.3,Linux x86_64,59.88023952,3,1,14,0.046846632,0.079117359,1,0,0,0.8641,Andesite_10,1,10,4,5,0.864,-0.111822424,-0.248201182,1,0,0,2.241,Basalt_rect,2,2.241,0,13,0,13,0,1,,,,,,,,,,,,,
60ca4cfb5c287146cad0695a,SCN,2024-06-24_14h46.19.790,LearnStrategy,2023.2.3,Linux x86_64,59.88023952,3,1,15,-0.034593681,0.23650969,1,0,0,2.6667,Obsidian_09,5,09,5,4,2.667,-0.336820934,-0.414422837,1,0,0,2.0227,Obsidian_rect,5,2.023,1,14,0,14,0,1,,,,,,,,,,,,,
60ca4cfb5c287146cad0695a,SCN,2024-06-24_14h46.19.790,LearnStrategy,2023.2.3,Linux x86_64,59.88023952,3,1,16,-0.378610172,0.266203527,1,0,0,2.0646,Pegmatite_12,6,12,5,2,2.065,-0.112617457,-0.265982758,1,0,0,1.1807,Basalt_rect,2,1.181,0,15,0,15,0,1,,,,,,,,,,,,,
60ca4cfb5c287146cad0695a,SCN,2024-06-24_14h46.19.790,LearnStrategy,2023.2.3,Linux x86_64,59.88023952,3,2,1,,,,,,,,1,11,,,,,,,,,,,2,4.875,0,,,,,,-0.145254502,-0.228267473,1,0,0,4.8752,Basalt_rect,0,0,0,0,1,
60ca4cfb5c287146cad0695a,SCN,2024-06-24_14h46.19.790,LearnStrategy,2023.2.3,Linux x86_64,59.88023952,3,2,2,,,,,,,,3,11,,,,,,,,,,,1,1.39,0,,,,,,-0.333728737,-0.242370176,1,0,0,1.3896,Andesite_rect,1,0,1,0,1,
60ca4cfb5c287146cad0695a,SCN,2024-06-24_14h46.19.790,LearnStrategy,2023.2.3,Linux x86_64,59.88023952,3,2,3,,,,,,,,4,01,,,,,,,,,,,3,1.443,0,,,,,,0.060765656,-0.254160062,1,0,0,1.4433,Diorite_rect,2,0,2,0,1,
60ca4cfb5c287146cad0695a,SCN,2024-06-24_14h46.19.790,LearnStrategy,2023.2.3,Linux x86_64,59.88023952,3,2,4,,,,,,,,7,12,,,,,,,,,,,4,1.721,0,,,,,,0.372350702,-0.250337914,1,0,0,1.7209,Gabbro_rect,3,0,3,0,1,
60ca4cfb5c287146cad0695a,SCN,2024-06-24_14h46.19.790,LearnStrategy,2023.2.3,Linux x86_64,59.88023952,3,2,5,,,,,,,,2,12,,,,,,,,,,,8,4.494,0,,,,,,0.361736316,-0.383924314,1,0,0,4.4936,Pumice_rect,4,0,4,0,1,
60ca4cfb5c287146cad0695a,SCN,2024-06-24_14h46.19.790,LearnStrategy,2023.2.3,Linux x86_64,59.88023952,3,2,6,,,,,,,,7,13,,,,,,,,,,,7,1.756,1,,,,,,0.088221734,-0.404738807,1,0,0,1.756,Peridotite_rect,5,0,5,0,1,
60ca4cfb5c287146cad0695a,SCN,2024-06-24_14h46.19.790,LearnStrategy,2023.2.3,Linux x86_64,59.88023952,3,2,7,,,,,,,,2,06,,,,,,,,,,,3,3.181,0,,,,,,0.076387862,-0.256944182,1,0,0,3.1812,Diorite_rect,6,0,6,0,1,
60ca4cfb5c287146cad0695a,SCN,2024-06-24_14h46.19.790,LearnStrategy,2023.2.3,Linux x86_64,59.88023952,3,2,8,,,,,,,,8,06,,,,,,,,,,,8,1.195,1,,,,,,0.332020218,-0.387665296,1,0,0,1.1953,Pumice_rect,7,0,7,0,1,
60ca4cfb5c287146cad0695a,SCN,2024-06-24_14h46.19.790,LearnStrategy,2023.2.3,Linux x86_64,59.88023952,3,2,9,,,,,,,,5,12,,,,,,,,,,,5,1.218,1,,,,,,-0.344565486,-0.384809467,1,0,0,1.2176,Obsidian_rect,8,0,8,0,1,
60ca4cfb5c287146cad0695a,SCN,2024-06-24_14h46.19.790,LearnStrategy,2023.2.3,Linux x86_64,59.88023952,3,2,10,,,,,,,,3,15,,,,,,,,,,,2,2.41,0,,,,,,-0.162148274,-0.229875663,1,0,0,2.4099,Basalt_rect,9,0,9,0,1,
60ca4cfb5c287146cad0695a,SCN,2024-06-24_14h46.19.790,LearnStrategy,2023.2.3,Linux x86_64,59.88023952,3,2,11,,,,,,,,8,02,,,,,,,,,,,8,1.682,1,,,,,,0.410086905,-0.406584046,1,0,0,1.6821,Pumice_rect,10,0,10,0,1,
60ca4cfb5c287146cad0695a,SCN,2024-06-24_14h46.19.790,LearnStrategy,2023.2.3,Linux x86_64,59.88023952,3,2,12,,,,,,,,6,05,,,,,,,,,,,7,1.694,0,,,,,,0.17156395,-0.392166424,1,0,0,1.6942,Peridotite_rect,11,0,11,0,1,
60ca4cfb5c287146cad0695a,SCN,2024-06-24_14h46.19.790,LearnStrategy,2023.2.3,Linux x86_64,59.88023952,3,2,13,,,,,,,,4,03,,,,,,,,,,,3,1.669,0,,,,,,0.147568179,-0.241575716,1,0,0,1.6693,Diorite_rect,12,0,12,0,1,
60ca4cfb5c287146cad0695a,SCN,2024-06-24_14h46.19.790,LearnStrategy,2023.2.3,Linux x86_64,59.88023952,3,2,14,,,,,,,,1,05,,,,,,,,,,,2,1.094,0,,,,,,-0.089323447,-0.253824655,1,0,0,1.094,Basalt_rect,13,0,13,0,1,
60ca4cfb5c287146cad0695a,SCN,2024-06-24_14h46.19.790,LearnStrategy,2023.2.3,Linux x86_64,59.88023952,3,2,15,,,,,,,,5,07,,,,,,,,,,,5,1.469,1,,,,,,-0.402608236,-0.394175785,1,0,0,1.4693,Obsidian_rect,14,0,14,0,1,
60ca4cfb5c287146cad0695a,SCN,2024-06-24_14h46.19.790,LearnStrategy,2023.2.3,Linux x86_64,59.88023952,3,2,16,,,,,,,,6,11,,,,,,,,,,,6,2.982,1,,,,,,-0.129592896,-0.397369098,1,0,0,2.9817,Pegmatite_rect,15,0,15,0,1,
60ca4cfb5c287146cad0695a,SCN,2024-06-24_14h46.19.790,LearnStrategy,2023.2.3,Linux x86_64,59.88023952,4,1,1,-0.541443587,-0.0903801,1,0,0,2.1017,Basalt_16,2,16,3,1,2.102,-0.355329594,-0.263419926,1,0,0,2.5868,Andesite_rect,1,2.587,0,0,0,0,0,1,,,,,,,,,,,,,
60ca4cfb5c287146cad0695a,SCN,2024-06-24_14h46.19.790,LearnStrategy,2023.2.3,Linux x86_64,59.88023952,4,1,2,-0.37986519,-0.096236287,1,0,0,1.0646,Peridotite_10,7,10,3,2,1.065,-0.14072343,-0.252004632,1,0,0,1.9348,Basalt_rect,2,1.935,0,1,0,1,0,1,,,,,,,,,,,,,
60ca4cfb5c287146cad0695a,SCN,2024-06-24_14h46.19.790,LearnStrategy,2023.2.3,Linux x86_64,59.88023952,4,1,3,-0.101841027,-0.09179032,1,0,0,0.7818,Pegmatite_06,6,06,3,4,0.782,-0.09774157,-0.244988956,1,0,0,1.1409,Basalt_rect,2,1.141,0,2,0,2,0,1,,,,,,,,,,,,,
60ca4cfb5c287146cad0695a,SCN,2024-06-24_14h46.19.790,LearnStrategy,2023.2.3,Linux x86_64,59.88023952,4,1,4,0.075307568,-0.091597114,1,0,0,0.8659,Andesite_09,1,09,3,5,0.866,0.301447837,-0.262541149,1,0,0,2.0754,Gabbro_rect,4,2.075,0,3,0,3,0,1,,,,,,,,,,,,,
60ca4cfb5c287146cad0695a,SCN,2024-06-24_14h46.19.790,LearnStrategy,2023.2.3,Linux x86_64,59.88023952,4,1,5,0.200474269,-0.4046729,1,0,0,1.9826,Gabbro_09,4,09,1,6,1.983,0.137934295,-0.259324195,1,0,0,3.09,Diorite_rect,3,3.09,0,4,0,4,0,1,,,,,,,,,,,,,
60ca4cfb5c287146cad0695a,SCN,2024-06-24_14h46.19.790,LearnStrategy,2023.2.3,Linux x86_64,59.88023952,4,1,6,-0.084159171,-0.100215822,1,0,0,1.0684,Pegmatite_06,6,06,3,4,1.068,-0.373483613,-0.241555514,1,0,0,5.1784,Andesite_rect,1,5.178,0,5,0,5,0,1,,,,,,,,,,,,,
60ca4cfb5c287146cad0695a,SCN,2024-06-24_14h46.19.790,LearnStrategy,2023.2.3,Linux x86_64,59.88023952,4,1,7,-0.064293015,0.085545607,1,0,0,0.8308,Basalt_02,2,02,4,4,0.831,0.132461118,-0.243936386,1,0,0,1.211,Diorite_rect,3,1.211,0,6,0,6,0,1,,,,,,,,,,,,,
60ca4cfb5c287146cad0695a,SCN,2024-06-24_14h46.19.790,LearnStrategy,2023.2.3,Linux x86_64,59.88023952,4,1,8,-0.361082158,0.101511709,1,0,0,1.1149,Pumice_08,8,08,4,2,1.115,-0.068240528,-0.252050265,1,0,0,4.657,Basalt_rect,2,4.657,0,7,0,7,0,1,,,,,,,,,,,,,
60ca4cfb5c287146cad0695a,SCN,2024-06-24_14h46.19.790,LearnStrategy,2023.2.3,Linux x86_64,59.88023952,4,1,9,-0.532207937,0.091984852,1,0,0,1.6487,Andesite_14,1,14,4,1,1.649,-0.111190724,-0.231020001,1,0,0,2.0953,Basalt_rect,2,2.095,0,8,0,8,0,1,,,,,,,,,,,,,
60ca4cfb5c287146cad0695a,SCN,2024-06-24_14h46.19.790,LearnStrategy,2023.2.3,Linux x86_64,59.88023952,4,1,10,-0.35945681,0.243422352,1,0,0,1.9494,Pegmatite_12,6,12,5,2,1.949,-0.192996244,-0.232806712,1,0,0,1.5847,Basalt_rect,2,1.585,0,9,0,9,0,1,,,,,,,,,,,,,
60ca4cfb5c287146cad0695a,SCN,2024-06-24_14h46.19.790,LearnStrategy,2023.2.3,Linux x86_64,59.88023952,4,1,11,0.062911701,0.230811177,1,0,0,0.8806,Basalt_05,2,05,5,5,0.881,-0.094762095,-0.268934151,1,0,0,1.107,Basalt_rect,2,1.107,1,10,0,10,0,1,,,,,,,,,,,,,
60ca4cfb5c287146cad0695a,SCN,2024-06-24_14h46.19.790,LearnStrategy,2023.2.3,Linux x86_64,59.88023952,4,1,12,0.386384489,0.236801237,1,0,0,1.7331,Pumice_03,8,03,5,7,1.733,0.373615534,-0.391283993,1,0,0,1.6601,Pumice_rect,8,1.66,1,11,0,11,0,1,,,,,,,,,,,,,
60ca4cfb5c287146cad0695a,SCN,2024-06-24_14h46.19.790,LearnStrategy,2023.2.3,Linux x86_64,59.88023952,4,1,13,0.05022914,0.247745568,1,0,0,1.9698,Basalt_05,2,05,5,5,1.97,-0.144012523,-0.248649991,1,0,0,1.2553,Basalt_rect,2,1.255,1,12,0,12,0,1,,,,,,,,,,,,,
60ca4cfb5c287146cad0695a,SCN,2024-06-24_14h46.19.790,LearnStrategy,2023.2.3,Linux x86_64,59.88023952,4,1,14,0.078379385,0.384627472,1,0,0,1.5486,Gabbro_12,4,12,6,5,1.549,-0.327247512,-0.25393949,1,0,0,2.146,Andesite_rect,1,2.146,0,13,0,13,0,1,,,,,,,,,,,,,
60ca4cfb5c287146cad0695a,SCN,2024-06-24_14h46.19.790,LearnStrategy,2023.2.3,Linux x86_64,59.88023952,4,1,15,0.208889885,0.079811813,1,0,0,3.3504,Diorite_06,3,06,4,6,3.35,0.375021491,-0.236070158,1,0,0,1.2134,Gabbro_rect,4,1.213,0,14,0,14,0,1,,,,,,,,,,,,,
60ca4cfb5c287146cad0695a,SCN,2024-06-24_14h46.19.790,LearnStrategy,2023.2.3,Linux x86_64,59.88023952,4,1,16,-0.254790543,-0.26609573,1,0,0,2.5992,Peridotite_06,7,06,2,3,2.599,0.43289772,-0.267748264,1,0,0,1.0574,Gabbro_rect,4,1.057,0,15,0,15,0,1,,,,,,,,,,,,,
60ca4cfb5c287146cad0695a,SCN,2024-06-24_14h46.19.790,LearnStrategy,2023.2.3,Linux x86_64,59.88023952,4,2,1,,,,,,,,3,12,,,,,,,,,,,3,1.679,1,,,,,,0.078018976,-0.249505415,1,0,0,1.6794,Diorite_rect,0,0,0,0,1,
60ca4cfb5c287146cad0695a,SCN,2024-06-24_14h46.19.790,LearnStrategy,2023.2.3,Linux x86_64,59.88023952,4,2,2,,,,,,,,5,02,,,,,,,,,,,5,1.373,1,,,,,,-0.405884291,-0.391124027,1,0,0,1.3733,Obsidian_rect,1,0,1,0,1,
60ca4cfb5c287146cad0695a,SCN,2024-06-24_14h46.19.790,LearnStrategy,2023.2.3,Linux x86_64,59.88023952,4,2,3,,,,,,,,6,08,,,,,,,,,,,1,1.977,0,,,,,,-0.338717322,-0.247252773,1,0,0,1.9775,Andesite_rect,2,0,2,0,1,
60ca4cfb5c287146cad0695a,SCN,2024-06-24_14h46.19.790,LearnStrategy,2023.2.3,Linux x86_64,59.88023952,4,2,4,,,,,,,,6,07,,,,,,,,,,,2,1.075,0,,,,,,-0.125794818,-0.261394805,1,0,0,1.0747,Basalt_rect,3,0,3,0,1,
60ca4cfb5c287146cad0695a,SCN,2024-06-24_14h46.19.790,LearnStrategy,2023.2.3,Linux x86_64,59.88023952,4,2,5,,,,,,,,2,08,,,,,,,,,,,3,1.4,0,,,,,,0.132572658,-0.251380168,1,0,0,1.3997,Diorite_rect,4,0,4,0,1,
60ca4cfb5c287146cad0695a,SCN,2024-06-24_14h46.19.790,LearnStrategy,2023.2.3,Linux x86_64,59.88023952,4,2,6,,,,,,,,4,01,,,,,,,,,,,4,1.629,1,,,,,,0.339374381,-0.252989003,1,0,0,1.6295,Gabbro_rect,5,0,5,0,1,
60ca4cfb5c287146cad0695a,SCN,2024-06-24_14h46.19.790,LearnStrategy,2023.2.3,Linux x86_64,59.88023952,4,2,7,,,,,,,,1,04,,,,,,,,,,,4,3.69,0,,,,,,0.322651321,-0.246876318,1,0,0,3.6899,Gabbro_rect,6,0,6,0,1,
60ca4cfb5c287146cad0695a,SCN,2024-06-24_14h46.19.790,LearnStrategy,2023.2.3,Linux x86_64,59.88023952,4,2,8,,,,,,,,7,16,,,,,,,,,,,7,1.157,1,,,,,,0.159584869,-0.389443124,1,0,0,1.1571,Peridotite_rect,7,0,7,0,1,
60ca4cfb5c287146cad0695a,SCN,2024-06-24_14h46.19.790,LearnStrategy,2023.2.3,Linux x86_64,59.88023952,4,2,9,,,,,,,,8,02,,,,,,,,,,,8,1.548,1,,,,,,0.38236276,-0.397173385,1,0,0,1.5483,Pumice_rect,8,0,8,0,1,
60ca4cfb5c287146cad0695a,SCN,2024-06-24_14h46.19.790,LearnStrategy,2023.2.3,Linux x86_64,59.88023952,4,2,10,,,,,,,,5,07,,,,,,,,,,,5,1.819,1,,,,,,-0.394441237,-0.392806004,1,0,0,1.8195,Obsidian_rect,9,0,9,0,1,
60ca4cfb5c287146cad0695a,SCN,2024-06-24_14h46.19.790,LearnStrategy,2023.2.3,Linux x86_64,59.88023952,4,2,11,,,,,,,,8,13,,,,,,,,,,,8,1.762,1,,,,,,0.3625441,-0.394811209,1,0,0,1.7624,Pumice_rect,10,0,10,0,1,
60ca4cfb5c287146cad0695a,SCN,2024-06-24_14h46.19.790,LearnStrategy,2023.2.3,Linux x86_64,59.88023952,4,2,12,,,,,,,,7,13,,,,,,,,,,,7,1.069,1,,,,,,0.071727986,-0.38940838,1,0,0,1.0689,Peridotite_rect,11,0,11,0,1,
60ca4cfb5c287146cad0695a,SCN,2024-06-24_14h46.19.790,LearnStrategy,2023.2.3,Linux x86_64,59.88023952,4,2,13,,,,,,,,1,11,,,,,,,,,,,6,1.166,0,,,,,,-0.12116288,-0.392787521,1,0,0,1.1656,Pegmatite_rect,12,0,12,0,1,
60ca4cfb5c287146cad0695a,SCN,2024-06-24_14h46.19.790,LearnStrategy,2023.2.3,Linux x86_64,59.88023952,4,2,14,,,,,,,,2,10,,,,,,,,,,,2,1.231,1,,,,,,-0.116408012,-0.248173244,1,0,0,1.2314,Basalt_rect,13,0,13,0,1,
60ca4cfb5c287146cad0695a,SCN,2024-06-24_14h46.19.790,LearnStrategy,2023.2.3,Linux x86_64,59.88023952,4,2,15,,,,,,,,3,11,,,,,,,,,,,3,1.046,1,,,,,,0.122191738,-0.242919062,1,0,0,1.0456,Diorite_rect,14,0,14,0,1,
60ca4cfb5c287146cad0695a,SCN,2024-06-24_14h46.19.790,LearnStrategy,2023.2.3,Linux x86_64,59.88023952,4,2,16,,,,,,,,4,03,,,,,,,,,,,1,2.976,0,,,,,,-0.349547158,-0.259741913,1,0,0,2.9763,Andesite_rect,15,0,15,0,1,
60ca4cfb5c287146cad0695a,SCN,2024-06-24_14h46.19.790,LearnStrategy,2023.2.3,Linux x86_64,59.88023952,5,1,1,-0.203701467,-0.088495819,1,0,0,2.8791,Peridotite_05,7,05,3,3,2.879,-0.105497906,-0.243208549,1,0,0,1.0205,Basalt_rect,2,1.021,0,0,0,0,0,1,,,,,,,,,,,,,
60ca4cfb5c287146cad0695a,SCN,2024-06-24_14h46.19.790,LearnStrategy,2023.2.3,Linux x86_64,59.88023952,5,1,2,-0.061608973,-0.091264608,1,0,0,2.3491,Pegmatite_06,6,06,3,4,2.349,0.040044722,-0.237964111,1,0,0,0.6307,Diorite_rect,3,0.631,0,1,0,1,0,1,,,,,,,,,,,,,
60ca4cfb5c287146cad0695a,SCN,2024-06-24_14h46.19.790,LearnStrategy,2023.2.3,Linux x86_64,59.88023952,5,1,3,-0.053244649,-0.059584927,1,0,0,0.8648,Pegmatite_06,6,06,3,4,0.865,0.358420359,-0.252788633,1,0,0,1.6849,Gabbro_rect,4,1.685,0,2,0,2,0,1,,,,,,,,,,,,,
60ca4cfb5c287146cad0695a,SCN,2024-06-24_14h46.19.790,LearnStrategy,2023.2.3,Linux x86_64,59.88023952,5,1,4,0.063431932,0.254335985,1,0,0,1.3147,Basalt_05,2,05,5,5,1.315,0.056721575,-0.418035158,1,0,0,8.6957,Peridotite_rect,7,8.696,0,3,0,3,0,1,,,,,,,,,,,,,
60ca4cfb5c287146cad0695a,SCN,2024-06-24_14h46.19.790,LearnStrategy,2023.2.3,Linux x86_64,59.88023952,5,1,5,-0.085112379,-0.362667102,1,0,0,1.0639,Diorite_08,3,08,1,4,1.064,-0.07206504,-0.256069631,1,0,0,0.7067,Basalt_rect,2,0.707,0,4,0,4,0,1,,,,,,,,,,,,,
60ca4cfb5c287146cad0695a,SCN,2024-06-24_14h46.19.790,LearnStrategy,2023.2.3,Linux x86_64,59.88023952,5,1,6,0.559513719,-0.240274205,1,0,0,1.7474,Basalt_01,2,01,2,8,1.747,0.347926323,-0.266934605,1,0,0,3.3984,Gabbro_rect,4,3.398,0,5,0,5,0,1,,,,,,,,,,,,,
60ca4cfb5c287146cad0695a,SCN,2024-06-24_14h46.19.790,LearnStrategy,2023.2.3,Linux x86_64,59.88023952,5,1,7,-0.213936103,0.126461907,1,0,0,0.9668,Gabbro_16,4,16,4,3,0.967,0.089533345,-0.386926355,1,0,0,3.8149,Peridotite_rect,7,3.815,0,6,0,6,0,1,,,,,,,,,,,,,
60ca4cfb5c287146cad0695a,SCN,2024-06-24_14h46.19.790,LearnStrategy,2023.2.3,Linux x86_64,59.88023952,5,1,8,0.099912473,0.376837045,1,0,0,2.3159,Gabbro_12,4,12,6,5,2.316,0.14950275,-0.392269367,1,0,0,2.2809,Peridotite_rect,7,2.281,0,7,0,7,0,1,,,,,,,,,,,,,
60ca4cfb5c287146cad0695a,SCN,2024-06-24_14h46.19.790,LearnStrategy,2023.2.3,Linux x86_64,59.88023952,5,1,9,-0.380307802,0.283434944,1,0,0,1.9158,Pegmatite_12,6,12,5,2,1.916,-0.15885825,-0.239922537,1,0,0,1.6091,Basalt_rect,2,1.609,0,8,0,8,0,1,,,,,,,,,,,,,
60ca4cfb5c287146cad0695a,SCN,2024-06-24_14h46.19.790,LearnStrategy,2023.2.3,Linux x86_64,59.88023952,5,1,10,0.240029563,0.230153115,1,0,0,1.116,Pegmatite_09,6,09,5,6,1.116,0.103916508,-0.238153449,1,0,0,0.8232,Diorite_rect,3,0.823,0,9,0,9,0,1,,,,,,,,,,,,,
60ca4cfb5c287146cad0695a,SCN,2024-06-24_14h46.19.790,LearnStrategy,2023.2.3,Linux x86_64,59.88023952,5,1,11,-0.532680171,0.274213728,1,0,0,1.2321,Andesite_01,1,01,5,1,1.232,-0.375443006,-0.24915568,1,0,0,1.9492,Andesite_rect,1,1.949,1,10,0,10,0,1,,,,,,,,,,,,,
60ca4cfb5c287146cad0695a,SCN,2024-06-24_14h46.19.790,LearnStrategy,2023.2.3,Linux x86_64,59.88023952,5,1,12,-0.571583636,-0.211814845,1,0,0,1.716,Basalt_11,2,11,2,1,1.716,-0.395710762,-0.241950666,1,0,0,1.357,Andesite_rect,1,1.357,0,11,0,11,0,1,,,,,,,,,,,,,
60ca4cfb5c287146cad0695a,SCN,2024-06-24_14h46.19.790,LearnStrategy,2023.2.3,Linux x86_64,59.88023952,5,1,13,-0.508561148,-0.37145115,1,0,0,1.1981,Diorite_14,3,14,1,1,1.198,-0.173470439,-0.252399212,1,0,0,1.1091,Basalt_rect,2,1.109,0,12,0,12,0,1,,,,,,,,,,,,,
60ca4cfb5c287146cad0695a,SCN,2024-06-24_14h46.19.790,LearnStrategy,2023.2.3,Linux x86_64,59.88023952,5,1,14,0.377992012,0.096106874,1,0,0,1.0356,Pegmatite_03,6,03,4,7,1.036,0.12715808,-0.237660583,1,0,0,0.927,Diorite_rect,3,0.927,0,13,0,13,0,1,,,,,,,,,,,,,
60ca4cfb5c287146cad0695a,SCN,2024-06-24_14h46.19.790,LearnStrategy,2023.2.3,Linux x86_64,59.88023952,5,1,15,0.511834086,-0.227191119,1,0,0,1.8336,Basalt_01,2,01,2,8,1.834,0.077589939,-0.233921821,1,0,0,2.1982,Diorite_rect,3,2.198,0,14,0,14,0,1,,,,,,,,,,,,,
60ca4cfb5c287146cad0695a,SCN,2024-06-24_14h46.19.790,LearnStrategy,2023.2.3,Linux x86_64,59.88023952,5,1,16,0.061087881,0.214571008,1,0,0,1.0473,Basalt_05,2,05,5,5,1.047,0.092365247,-0.238565723,1,0,0,5.622,Diorite_rect,3,5.622,0,15,0,15,0,1,,,,,,,,,,,,,
60ca4cfb5c287146cad0695a,SCN,2024-06-24_14h46.19.790,LearnStrategy,2023.2.3,Linux x86_64,59.88023952,5,2,1,,,,,,,,7,08,,,,,,,,,,,3,2.561,0,,,,,,0.086731387,-0.245059734,1,0,0,2.5613,Diorite_rect,0,0,0,0,1,
60ca4cfb5c287146cad0695a,SCN,2024-06-24_14h46.19.790,LearnStrategy,2023.2.3,Linux x86_64,59.88023952,5,2,2,,,,,,,,5,12,,,,,,,,,,,5,1.214,1,,,,,,-0.37284106,-0.405843386,1,0,0,1.2139,Obsidian_rect,1,0,1,0,1,
60ca4cfb5c287146cad0695a,SCN,2024-06-24_14h46.19.790,LearnStrategy,2023.2.3,Linux x86_64,59.88023952,5,2,3,,,,,,,,3,02,,,,,,,,,,,6,1.38,0,,,,,,-0.172308264,-0.395067958,1,0,0,1.38,Pegmatite_rect,2,0,2,0,1,
60ca4cfb5c287146cad0695a,SCN,2024-06-24_14h46.19.790,LearnStrategy,2023.2.3,Linux x86_64,59.88023952,5,2,4,,,,,,,,8,15,,,,,,,,,,,8,1.623,1,,,,,,0.343227619,-0.395724588,1,0,0,1.6231,Pumice_rect,3,0,3,0,1,
60ca4cfb5c287146cad0695a,SCN,2024-06-24_14h46.19.790,LearnStrategy,2023.2.3,Linux x86_64,59.88023952,5,2,5,,,,,,,,3,15,,,,,,,,,,,4,1.694,0,,,,,,0.332848777,-0.256269858,1,0,0,1.6936,Gabbro_rect,4,0,4,0,1,
60ca4cfb5c287146cad0695a,SCN,2024-06-24_14h46.19.790,LearnStrategy,2023.2.3,Linux x86_64,59.88023952,5,2,6,,,,,,,,2,14,,,,,,,,,,,7,1.786,0,,,,,,0.132930057,-0.393518367,1,0,0,1.7858,Peridotite_rect,5,0,5,0,1,
60ca4cfb5c287146cad0695a,SCN,2024-06-24_14h46.19.790,LearnStrategy,2023.2.3,Linux x86_64,59.88023952,5,2,7,,,,,,,,1,02,,,,,,,,,,,6,1.461,0,,,,,,-0.076841614,-0.412224353,1,0,0,1.4614,Pegmatite_rect,6,0,6,0,1,
60ca4cfb5c287146cad0695a,SCN,2024-06-24_14h46.19.790,LearnStrategy,2023.2.3,Linux x86_64,59.88023952,5,2,8,,,,,,,,6,05,,,,,,,,,,,7,1.697,0,,,,,,0.101448023,-0.381241418,1,0,0,1.6969,Peridotite_rect,7,0,7,0,1,
60ca4cfb5c287146cad0695a,SCN,2024-06-24_14h46.19.790,LearnStrategy,2023.2.3,Linux x86_64,59.88023952,5,2,9,,,,,,,,4,10,,,,,,,,,,,2,1.835,0,,,,,,-0.147231483,-0.240970164,1,0,0,1.8347,Basalt_rect,8,0,8,0,1,
60ca4cfb5c287146cad0695a,SCN,2024-06-24_14h46.19.790,LearnStrategy,2023.2.3,Linux x86_64,59.88023952,5,2,10,,,,,,,,8,05,,,,,,,,,,,8,1.28,1,,,,,,0.381646958,-0.381779845,1,0,0,1.2801,Pumice_rect,9,0,9,0,1,
60ca4cfb5c287146cad0695a,SCN,2024-06-24_14h46.19.790,LearnStrategy,2023.2.3,Linux x86_64,59.88023952,5,2,11,,,,,,,,6,16,,,,,,,,,,,3,1.983,0,,,,,,0.151771653,-0.243179679,1,0,0,1.9828,Diorite_rect,10,0,10,0,1,
60ca4cfb5c287146cad0695a,SCN,2024-06-24_14h46.19.790,LearnStrategy,2023.2.3,Linux x86_64,59.88023952,5,2,12,,,,,,,,1,03,,,,,,,,,,,1,3.427,1,,,,,,-0.40068176,-0.234187954,1,0,0,3.4265,Andesite_rect,11,0,11,0,1,
60ca4cfb5c287146cad0695a,SCN,2024-06-24_14h46.19.790,LearnStrategy,2023.2.3,Linux x86_64,59.88023952,5,2,13,,,,,,,,7,02,,,,,,,,,,,1,0.91,0,,,,,,-0.40068176,-0.230043223,1,0,0,0.9105,Andesite_rect,12,0,12,0,1,
60ca4cfb5c287146cad0695a,SCN,2024-06-24_14h46.19.790,LearnStrategy,2023.2.3,Linux x86_64,59.88023952,5,2,14,,,,,,,,2,09,,,,,,,,,,,4,1.292,0,,,,,,0.381638934,-0.243917546,1,0,0,1.2917,Gabbro_rect,13,0,13,0,1,
60ca4cfb5c287146cad0695a,SCN,2024-06-24_14h46.19.790,LearnStrategy,2023.2.3,Linux x86_64,59.88023952,5,2,15,,,,,,,,4,11,,,,,,,,,,,4,0.943,1,,,,,,0.381638934,-0.243917546,1,0,0,0.9434,Gabbro_rect,14,0,14,0,1,
60ca4cfb5c287146cad0695a,SCN,2024-06-24_14h46.19.790,LearnStrategy,2023.2.3,Linux x86_64,59.88023952,5,2,16,,,,,,,,5,04,,,,,,,,,,,5,1.609,1,,,,,,-0.401983019,-0.403854872,1,0,0,1.6088,Obsidian_rect,15,0,15,0,1,
60ca4cfb5c287146cad0695a,SCN,2024-06-24_14h46.19.790,LearnStrategy,2023.2.3,Linux x86_64,59.88023952,6,1,1,0.538449856,-0.417131093,1,0,0,1.9844,Gabbro_14,4,14,1,8,1.984,0.409884601,-0.240781757,1,0,0,2.0318,Gabbro_rect,4,2.032,1,0,0,0,0,1,,,,,,,,,,,,,
60ca4cfb5c287146cad0695a,SCN,2024-06-24_14h46.19.790,LearnStrategy,2023.2.3,Linux x86_64,59.88023952,6,1,2,0.383570425,-0.40307345,1,0,0,1.3656,Gabbro_08,4,08,1,7,1.366,0.158495119,-0.239820382,1,0,0,1.4335,Diorite_rect,3,1.433,0,1,0,1,0,1,,,,,,,,,,,,,
60ca4cfb5c287146cad0695a,SCN,2024-06-24_14h46.19.790,LearnStrategy,2023.2.3,Linux x86_64,59.88023952,6,1,3,0.202407622,-0.409546113,1,0,0,1.3995,Gabbro_09,4,09,1,6,1.399,0.377515336,-0.266366448,1,0,0,1.0292,Gabbro_rect,4,1.029,1,2,0,2,0,1,,,,,,,,,,,,,
60ca4cfb5c287146cad0695a,SCN,2024-06-24_14h46.19.790,LearnStrategy,2023.2.3,Linux x86_64,59.88023952,6,1,4,0.051094019,-0.39601866,1,0,0,1.1495,Pumice_09,8,09,1,5,1.149,0.385866837,-0.410001083,1,0,0,2.3607,Pumice_rect,8,2.361,1,3,0,3,0,1,,,,,,,,,,,,,
60ca4cfb5c287146cad0695a,SCN,2024-06-24_14h46.19.790,LearnStrategy,2023.2.3,Linux x86_64,59.88023952,6,1,5,-0.044388677,-0.397880447,1,0,0,1.4976,Diorite_08,3,08,1,4,1.498,0.331071164,-0.252353077,1,0,0,3.8765,Gabbro_rect,4,3.876,0,4,0,4,0,1,,,,,,,,,,,,,
60ca4cfb5c287146cad0695a,SCN,2024-06-24_14h46.19.790,LearnStrategy,2023.2.3,Linux x86_64,59.88023952,6,1,6,-0.215468429,-0.40293698,1,0,0,2.1989,Pegmatite_13,6,13,1,3,2.199,0.2989224,-0.242699135,1,0,0,2.1707,Gabbro_rect,4,2.171,0,5,0,5,0,1,,,,,,,,,,,,,
60ca4cfb5c287146cad0695a,SCN,2024-06-24_14h46.19.790,LearnStrategy,2023.2.3,Linux x86_64,59.88023952,6,1,7,-0.386222696,-0.394995389,1,0,0,1.5151,Diorite_07,3,07,1,2,1.515,0.396745422,-0.267812666,1,0,0,1.9612,Gabbro_rect,4,1.961,0,6,0,6,0,1,,,,,,,,,,,,,
60ca4cfb5c287146cad0695a,SCN,2024-06-24_14h46.19.790,LearnStrategy,2023.2.3,Linux x86_64,59.88023952,6,1,8,-0.530465498,-0.43617793,1,0,0,1.5841,Diorite_14,3,14,1,1,1.584,0.322474233,-0.263488411,1,0,0,1.2114,Gabbro_rect,4,1.211,0,7,0,7,0,1,,,,,,,,,,,,,
60ca4cfb5c287146cad0695a,SCN,2024-06-24_14h46.19.790,LearnStrategy,2023.2.3,Linux x86_64,59.88023952,6,1,9,0.525901257,-0.28808035,1,0,0,1.3323,Basalt_01,2,01,2,8,1.332,0.461279211,-0.265501927,1,0,0,0.9183,Gabbro_rect,4,0.918,0,8,0,8,0,1,,,,,,,,,,,,,
60ca4cfb5c287146cad0695a,SCN,2024-06-24_14h46.19.790,LearnStrategy,2023.2.3,Linux x86_64,59.88023952,6,1,10,0.251915515,-0.262525961,1,0,0,1.5827,Peridotite_07,7,07,2,6,1.583,0.383477439,-0.255391009,1,0,0,1.9265,Gabbro_rect,4,1.927,0,9,0,9,0,1,,,,,,,,,,,,,
60ca4cfb5c287146cad0695a,SCN,2024-06-24_14h46.19.790,LearnStrategy,2023.2.3,Linux x86_64,59.88023952,6,1,11,-0.066472945,-0.23483656,1,0,0,1.265,Diorite_10,3,10,2,4,1.265,-0.115761555,-0.230664034,1,0,0,1.0302,Basalt_rect,2,1.03,0,10,0,10,0,1,,,,,,,,,,,,,
60ca4cfb5c287146cad0695a,SCN,2024-06-24_14h46.19.790,LearnStrategy,2023.2.3,Linux x86_64,59.88023952,6,1,12,-0.231457276,-0.122024393,1,0,0,0.9497,Peridotite_05,7,05,3,3,0.95,0.413685687,-0.239087602,1,0,0,1.2976,Gabbro_rect,4,1.298,0,11,0,11,0,1,,,,,,,,,,,,,
60ca4cfb5c287146cad0695a,SCN,2024-06-24_14h46.19.790,LearnStrategy,2023.2.3,Linux x86_64,59.88023952,6,1,13,-0.079681038,0.099605256,1,0,0,0.8156,Basalt_02,2,02,4,4,0.816,0.454721513,-0.233661204,1,0,0,0.844,Gabbro_rect,4,0.844,0,12,0,12,0,1,,,,,,,,,,,,,
60ca4cfb5c287146cad0695a,SCN,2024-06-24_14h46.19.790,LearnStrategy,2023.2.3,Linux x86_64,59.88023952,6,1,14,-0.221909286,0.093391168,1,0,0,4.3017,Gabbro_16,4,16,4,3,4.302,0.334276656,-0.242748207,1,0,0,1.8405,Gabbro_rect,4,1.841,1,13,0,13,0,1,,,,,,,,,,,,,
60ca4cfb5c287146cad0695a,SCN,2024-06-24_14h46.19.790,LearnStrategy,2023.2.3,Linux x86_64,59.88023952,6,1,15,0.23453905,0.233738877,1,0,0,1.1993,Pegmatite_09,6,09,5,6,1.199,0.370089822,-0.264720362,1,0,0,1.4372,Gabbro_rect,4,1.437,0,14,0,14,0,1,,,,,,,,,,,,,
60ca4cfb5c287146cad0695a,SCN,2024-06-24_14h46.19.790,LearnStrategy,2023.2.3,Linux x86_64,59.88023952,6,1,16,0.076297814,0.241980808,1,0,0,2.215,Basalt_05,2,05,5,5,2.215,-0.121504519,-0.236835677,1,0,0,1.4341,Basalt_rect,2,1.434,1,15,0,15,0,1,,,,,,,,,,,,,
60ca4cfb5c287146cad0695a,SCN,2024-06-24_14h46.19.790,LearnStrategy,2023.2.3,Linux x86_64,59.88023952,6,2,1,,,,,,,,5,10,,,,,,,,,,,5,1.508,1,,,,,,-0.441943209,-0.399217274,1,0,0,1.5077,Obsidian_rect,0,0,0,0,1,
60ca4cfb5c287146cad0695a,SCN,2024-06-24_14h46.19.790,LearnStrategy,2023.2.3,Linux x86_64,59.88023952,6,2,2,,,,,,,,2,12,,,,,,,,,,,8,3.376,0,,,,,,0.358136101,-0.417277233,1,0,0,3.3761,Pumice_rect,1,0,1,0,1,
60ca4cfb5c287146cad0695a,SCN,2024-06-24_14h46.19.790,LearnStrategy,2023.2.3,Linux x86_64,59.88023952,6,2,3,,,,,,,,6,10,,,,,,,,,,,3,2.904,0,,,,,,0.049185739,-0.254663458,1,0,0,2.9042,Diorite_rect,2,0,2,0,1,
60ca4cfb5c287146cad0695a,SCN,2024-06-24_14h46.19.790,LearnStrategy,2023.2.3,Linux x86_64,59.88023952,6,2,4,,,,,,,,4,15,,,,,,,,,,,2,1.445,0,,,,,,-0.045367245,-0.252974103,1,0,0,1.4448,Basalt_rect,3,0,3,0,1,
60ca4cfb5c287146cad0695a,SCN,2024-06-24_14h46.19.790,LearnStrategy,2023.2.3,Linux x86_64,59.88023952,6,2,5,,,,,,,,6,11,,,,,,,,,,,4,2.495,0,,,,,,0.410392797,-0.256391785,1,0,0,2.4945,Gabbro_rect,4,0,4,0,1,
60ca4cfb5c287146cad0695a,SCN,2024-06-24_14h46.19.790,LearnStrategy,2023.2.3,Linux x86_64,59.88023952,6,2,6,,,,,,,,8,06,,,,,,,,,,,8,3.643,1,,,,,,0.376544361,-0.399097138,1,0,0,3.643,Pumice_rect,5,0,5,0,1,
60ca4cfb5c287146cad0695a,SCN,2024-06-24_14h46.19.790,LearnStrategy,2023.2.3,Linux x86_64,59.88023952,6,2,7,,,,,,,,2,06,,,,,,,,,,,4,4.887,0,,,,,,0.393725328,-0.2411883,1,0,0,4.8869,Gabbro_rect,6,0,6,0,1,
60ca4cfb5c287146cad0695a,SCN,2024-06-24_14h46.19.790,LearnStrategy,2023.2.3,Linux x86_64,59.88023952,6,2,8,,,,,,,,7,12,,,,,,,,,,,2,1.37,0,,,,,,-0.20196612,-0.254316231,1,0,0,1.3702,Basalt_rect,7,0,7,0,1,
60ca4cfb5c287146cad0695a,SCN,2024-06-24_14h46.19.790,LearnStrategy,2023.2.3,Linux x86_64,59.88023952,6,2,9,,,,,,,,3,16,,,,,,,,,,,3,1.352,1,,,,,,0.080387384,-0.257365912,1,0,0,1.3523,Diorite_rect,8,0,8,0,1,
60ca4cfb5c287146cad0695a,SCN,2024-06-24_14h46.19.790,LearnStrategy,2023.2.3,Linux x86_64,59.88023952,6,2,10,,,,,,,,7,14,,,,,,,,,,,1,1.902,0,,,,,,-0.402921865,-0.244150153,1,0,0,1.9017,Andesite_rect,9,0,9,0,1,
60ca4cfb5c287146cad0695a,SCN,2024-06-24_14h46.19.790,LearnStrategy,2023.2.3,Linux x86_64,59.88023952,6,2,11,,,,,,,,5,06,,,,,,,,,,,5,1.516,1,,,,,,-0.422257365,-0.409742758,1,0,0,1.5163,Obsidian_rect,10,0,10,0,1,
60ca4cfb5c287146cad0695a,SCN,2024-06-24_14h46.19.790,LearnStrategy,2023.2.3,Linux x86_64,59.88023952,6,2,12,,,,,,,,1,16,,,,,,,,,,,2,1.245,0,,,,,,-0.110591763,-0.242009767,1,0,0,1.2449,Basalt_rect,11,0,11,0,1,
60ca4cfb5c287146cad0695a,SCN,2024-06-24_14h46.19.790,LearnStrategy,2023.2.3,Linux x86_64,59.88023952,6,2,13,,,,,,,,3,09,,,,,,,,,,,3,0.995,1,,,,,,0.107791739,-0.230659736,1,0,0,0.9953,Diorite_rect,12,0,12,0,1,
60ca4cfb5c287146cad0695a,SCN,2024-06-24_14h46.19.790,LearnStrategy,2023.2.3,Linux x86_64,59.88023952,6,2,14,,,,,,,,8,14,,,,,,,,,,,8,1.531,1,,,,,,0.395790494,-0.401611543,1,0,0,1.5309,Pumice_rect,13,0,13,0,1,
60ca4cfb5c287146cad0695a,SCN,2024-06-24_14h46.19.790,LearnStrategy,2023.2.3,Linux x86_64,59.88023952,6,2,15,,,,,,,,4,05,,,,,,,,,,,7,1.648,0,,,,,,0.075352199,-0.384863697,1,0,0,1.6481,Peridotite_rect,14,0,14,0,1,
60ca4cfb5c287146cad0695a,SCN,2024-06-24_14h46.19.790,LearnStrategy,2023.2.3,Linux x86_64,59.88023952,6,2,16,,,,,,,,1,05,,,,,,,,,,,7,0.942,0,,,,,,0.075352199,-0.384863697,1,0,0,0.9424,Peridotite_rect,15,0,15,0,1,
60ca4cfb5c287146cad0695a,SCN,2024-06-24_14h46.19.790,LearnStrategy,2023.2.3,Linux x86_64,59.88023952,7,1,1,-0.051818704,-0.072261971,1,0,0,0.7813,Pegmatite_06,6,06,3,4,0.781,0.087625423,-0.231355837,1,0,0,1.3398,Diorite_rect,3,1.34,0,0,0,0,0,1,,,,,,,,,,,,,
60ca4cfb5c287146cad0695a,SCN,2024-06-24_14h46.19.790,LearnStrategy,2023.2.3,Linux x86_64,59.88023952,7,1,2,0.246640846,0.099364912,1,0,0,1.7324,Diorite_06,3,06,4,6,1.732,0.369841383,-0.267786447,1,0,0,1.3694,Gabbro_rect,4,1.369,0,1,0,1,0,1,,,,,,,,,,,,,
60ca4cfb5c287146cad0695a,SCN,2024-06-24_14h46.19.790,LearnStrategy,2023.2.3,Linux x86_64,59.88023952,7,1,3,0.081775504,0.096128186,1,0,0,0.8819,Andesite_10,1,10,4,5,0.882,-0.136824272,-0.247035783,1,0,0,1.5254,Basalt_rect,2,1.525,0,2,0,2,0,1,,,,,,,,,,,,,
60ca4cfb5c287146cad0695a,SCN,2024-06-24_14h46.19.790,LearnStrategy,2023.2.3,Linux x86_64,59.88023952,7,1,4,-0.368763167,0.105862291,1,0,0,1.6822,Pumice_08,8,08,4,2,1.682,-0.130488794,-0.257118189,1,0,0,1.4299,Basalt_rect,2,1.43,0,3,0,3,0,1,,,,,,,,,,,,,
60ca4cfb5c287146cad0695a,SCN,2024-06-24_14h46.19.790,LearnStrategy,2023.2.3,Linux x86_64,59.88023952,7,1,5,-0.378062289,0.057991458,1,0,0,1.0511,Pumice_08,8,08,4,2,1.051,-0.359792969,-0.253521342,1,0,0,1.0568,Andesite_rect,1,1.057,0,4,0,4,0,1,,,,,,,,,,,,,
60ca4cfb5c287146cad0695a,SCN,2024-06-24_14h46.19.790,LearnStrategy,2023.2.3,Linux x86_64,59.88023952,7,1,6,-0.212697204,-0.380726774,1,0,0,0.9655,Pegmatite_13,6,13,1,3,0.966,0.084034521,-0.386566807,1,0,0,2.3519,Peridotite_rect,7,2.352,0,5,0,5,0,1,,,,,,,,,,,,,
60ca4cfb5c287146cad0695a,SCN,2024-06-24_14h46.19.790,LearnStrategy,2023.2.3,Linux x86_64,59.88023952,7,1,7,0.076916404,0.375611838,1,0,0,2.6992,Gabbro_12,4,12,6,5,2.699,0.356082827,-0.242786175,1,0,0,2.7431,Gabbro_rect,4,2.743,1,6,0,6,0,1,,,,,,,,,,,,,
60ca4cfb5c287146cad0695a,SCN,2024-06-24_14h46.19.790,LearnStrategy,2023.2.3,Linux x86_64,59.88023952,7,1,8,-0.557144846,0.393065744,1,0,0,1.1836,Andesite_06,1,06,6,1,1.184,-0.169559676,-0.22963317,1,0,0,1.5696,Basalt_rect,2,1.57,0,7,0,7,0,1,,,,,,,,,,,,,
60ca4cfb5c287146cad0695a,SCN,2024-06-24_14h46.19.790,LearnStrategy,2023.2.3,Linux x86_64,59.88023952,7,1,9,-0.209112749,0.409009781,1,0,0,1.6153,Pumice_10,8,10,6,3,1.615,0.383733902,-0.414938842,1,0,0,2.3816,Pumice_rect,8,2.382,1,8,0,8,0,1,,,,,,,,,,,,,
60ca4cfb5c287146cad0695a,SCN,2024-06-24_14h46.19.790,LearnStrategy,2023.2.3,Linux x86_64,59.88023952,7,1,10,-0.083047858,0.38633488,1,0,0,1.683,Gabbro_13,4,13,6,4,1.683,0.138035089,-0.399112827,1,0,0,1.5962,Peridotite_rect,7,1.596,0,9,0,9,0,1,,,,,,,,,,,,,
60ca4cfb5c287146cad0695a,SCN,2024-06-24_14h46.19.790,LearnStrategy,2023.2.3,Linux x86_64,59.88023952,7,1,11,0.106871914,0.382314906,1,0,0,1.2657,Gabbro_12,4,12,6,5,1.266,0.177860242,-0.250574748,1,0,0,0.9428,Diorite_rect,3,0.943,0,10,0,10,0,1,,,,,,,,,,,,,
60ca4cfb5c287146cad0695a,SCN,2024-06-24_14h46.19.790,LearnStrategy,2023.2.3,Linux x86_64,59.88023952,7,1,12,0.205312308,0.380049576,1,0,0,2.184,Basalt_04,2,04,6,6,2.184,0.094029315,-0.2368927,1,0,0,1.0401,Diorite_rect,3,1.04,0,11,0,11,0,1,,,,,,,,,,,,,
60ca4cfb5c287146cad0695a,SCN,2024-06-24_14h46.19.790,LearnStrategy,2023.2.3,Linux x86_64,59.88023952,7,1,13,-0.397801395,0.392763093,1,0,0,1.981,Pumice_16,8,16,6,2,1.981,-0.350202498,-0.25898714,1,0,0,6.1801,Andesite_rect,1,6.18,0,12,0,12,0,1,,,,,,,,,,,,,
60ca4cfb5c287146cad0695a,SCN,2024-06-24_14h46.19.790,LearnStrategy,2023.2.3,Linux x86_64,59.88023952,7,1,14,0.550543557,0.079367517,1,0,0,2.3805,Peridotite_04,7,04,4,8,2.38,0.137350521,-0.232973627,1,0,0,1.0945,Diorite_rect,3,1.094,0,13,0,13,0,1,,,,,,,,,,,,,
60ca4cfb5c287146cad0695a,SCN,2024-06-24_14h46.19.790,LearnStrategy,2023.2.3,Linux x86_64,59.88023952,7,1,15,0.543535833,-0.118336852,1,0,0,1.2654,Pegmatite_15,6,15,3,8,1.265,0.066031013,-0.389267971,1,0,0,1.7644,Peridotite_rect,7,1.764,0,14,0,14,0,1,,,,,,,,,,,,,
60ca4cfb5c287146cad0695a,SCN,2024-06-24_14h46.19.790,LearnStrategy,2023.2.3,Linux x86_64,59.88023952,7,1,16,-0.092573855,-0.252266897,1,0,0,1.1658,Diorite_10,3,10,2,4,1.166,-0.094265504,-0.252943728,1,0,0,1.1845,Basalt_rect,2,1.185,0,15,0,15,0,1,,,,,,,,,,,,,
60ca4cfb5c287146cad0695a,SCN,2024-06-24_14h46.19.790,LearnStrategy,2023.2.3,Linux x86_64,59.88023952,7,2,1,,,,,,,,3,09,,,,,,,,,,,6,2.079,0,,,,,,-0.066450665,-0.384936337,1,0,0,2.0785,Pegmatite_rect,0,0,0,0,1,
60ca4cfb5c287146cad0695a,SCN,2024-06-24_14h46.19.790,LearnStrategy,2023.2.3,Linux x86_64,59.88023952,7,2,2,,,,,,,,4,11,,,,,,,,,,,4,1.48,1,,,,,,0.328241483,-0.244303887,1,0,0,1.4804,Gabbro_rect,1,0,1,0,1,
60ca4cfb5c287146cad0695a,SCN,2024-06-24_14h46.19.790,LearnStrategy,2023.2.3,Linux x86_64,59.88023952,7,2,3,,,,,,,,5,12,,,,,,,,,,,5,1.395,1,,,,,,-0.392285987,-0.395085509,1,0,0,1.3954,Obsidian_rect,2,0,2,0,1,
60ca4cfb5c287146cad0695a,SCN,2024-06-24_14h46.19.790,LearnStrategy,2023.2.3,Linux x86_64,59.88023952,7,2,4,,,,,,,,1,02,,,,,,,,,,,8,1.786,0,,,,,,0.356503482,-0.401923166,1,0,0,1.7863,Pumice_rect,3,0,3,0,1,
60ca4cfb5c287146cad0695a,SCN,2024-06-24_14h46.19.790,LearnStrategy,2023.2.3,Linux x86_64,59.88023952,7,2,5,,,,,,,,7,16,,,,,,,,,,,7,1.191,1,,,,,,0.130174234,-0.411182672,1,0,0,1.1912,Peridotite_rect,4,0,4,0,1,
60ca4cfb5c287146cad0695a,SCN,2024-06-24_14h46.19.790,LearnStrategy,2023.2.3,Linux x86_64,59.88023952,7,2,6,,,,,,,,5,06,,,,,,,,,,,5,1.318,1,,,,,,-0.35814502,-0.403292732,1,0,0,1.3178,Obsidian_rect,5,0,5,0,1,
60ca4cfb5c287146cad0695a,SCN,2024-06-24_14h46.19.790,LearnStrategy,2023.2.3,Linux x86_64,59.88023952,7,2,7,,,,,,,,2,09,,,,,,,,,,,4,1.504,0,,,,,,0.431936345,-0.238817815,1,0,0,1.5041,Gabbro_rect,6,0,6,0,1,
60ca4cfb5c287146cad0695a,SCN,2024-06-24_14h46.19.790,LearnStrategy,2023.2.3,Linux x86_64,59.88023952,7,2,8,,,,,,,,8,02,,,,,,,,,,,8,1.15,1,,,,,,0.415084767,-0.39812122,1,0,0,1.1502,Pumice_rect,7,0,7,0,1,
60ca4cfb5c287146cad0695a,SCN,2024-06-24_14h46.19.790,LearnStrategy,2023.2.3,Linux x86_64,59.88023952,7,2,9,,,,,,,,3,15,,,,,,,,,,,4,1.722,0,,,,,,0.365151419,-0.265140802,1,0,0,1.7219,Gabbro_rect,8,0,8,0,1,
60ca4cfb5c287146cad0695a,SCN,2024-06-24_14h46.19.790,LearnStrategy,2023.2.3,Linux x86_64,59.88023952,7,2,10,,,,,,,,1,11,,,,,,,,,,,4,1.523,0,,,,,,0.356211201,-0.257345782,1,0,0,1.5232,Gabbro_rect,9,0,9,0,1,
60ca4cfb5c287146cad0695a,SCN,2024-06-24_14h46.19.790,LearnStrategy,2023.2.3,Linux x86_64,59.88023952,7,2,11,,,,,,,,6,10,,,,,,,,,,,2,1.72,0,,,,,,-0.06594297,-0.263955488,1,0,0,1.7198,Basalt_rect,10,0,10,0,1,
60ca4cfb5c287146cad0695a,SCN,2024-06-24_14h46.19.790,LearnStrategy,2023.2.3,Linux x86_64,59.88023952,7,2,12,,,,,,,,4,15,,,,,,,,,,,4,1.916,1,,,,,,0.436923605,-0.246561686,1,0,0,1.916,Gabbro_rect,11,0,11,0,1,
60ca4cfb5c287146cad0695a,SCN,2024-06-24_14h46.19.790,LearnStrategy,2023.2.3,Linux x86_64,59.88023952,7,2,13,,,,,,,,6,16,,,,,,,,,,,3,1.563,0,,,,,,0.2222179,-0.253154199,1,0,0,1.5627,Diorite_rect,12,0,12,0,1,
60ca4cfb5c287146cad0695a,SCN,2024-06-24_14h46.19.790,LearnStrategy,2023.2.3,Linux x86_64,59.88023952,7,2,14,,,,,,,,2,14,,,,,,,,,,,3,1.485,0,,,,,,0.10840947,-0.259530582,1,0,0,1.4852,Diorite_rect,13,0,13,0,1,
60ca4cfb5c287146cad0695a,SCN,2024-06-24_14h46.19.790,LearnStrategy,2023.2.3,Linux x86_64,59.88023952,7,2,15,,,,,,,,7,02,,,,,,,,,,,3,2.084,0,,,,,,0.21990451,-0.265786686,1,0,0,2.0837,Diorite_rect,14,0,14,0,1,
60ca4cfb5c287146cad0695a,SCN,2024-06-24_14h46.19.790,LearnStrategy,2023.2.3,Linux x86_64,59.88023952,7,2,16,,,,,,,,8,14,,,,,,,,,,,8,1.438,1,,,,,,0.372975811,-0.381220356,1,0,0,1.4378,Pumice_rect,15,0,15,0,1,
60ca4cfb5c287146cad0695a,SCN,2024-06-24_14h46.19.790,LearnStrategy,2023.2.3,Linux x86_64,59.88023952,8,1,1,-0.5321954,0.378534254,1,0,0,1.5008,Andesite_06,1,06,6,1,1.501,0.356814246,-0.262264699,1,0,0,1.6208,Gabbro_rect,4,1.621,0,0,0,0,0,1,,,,,,,,,,,,,
60ca4cfb5c287146cad0695a,SCN,2024-06-24_14h46.19.790,LearnStrategy,2023.2.3,Linux x86_64,59.88023952,8,1,2,-0.580864311,0.244888646,1,0,0,1.3488,Andesite_01,1,01,5,1,1.349,0.408983114,-0.248876222,1,0,0,1.2246,Gabbro_rect,4,1.225,0,1,0,1,0,1,,,,,,,,,,,,,
60ca4cfb5c287146cad0695a,SCN,2024-06-24_14h46.19.790,LearnStrategy,2023.2.3,Linux x86_64,59.88023952,8,1,3,-0.519362579,0.128096424,1,0,0,1.0991,Andesite_14,1,14,4,1,1.099,0.329401007,-0.237972779,1,0,0,1.1863,Gabbro_rect,4,1.186,0,2,0,2,0,1,,,,,,,,,,,,,
60ca4cfb5c287146cad0695a,SCN,2024-06-24_14h46.19.790,LearnStrategy,2023.2.3,Linux x86_64,59.88023952,8,1,4,-0.543427767,-0.081047452,1,0,0,1.5658,Basalt_16,2,16,3,1,1.566,0.406758626,-0.259950378,1,0,0,1.3168,Gabbro_rect,4,1.317,0,3,0,3,0,1,,,,,,,,,,,,,
60ca4cfb5c287146cad0695a,SCN,2024-06-24_14h46.19.790,LearnStrategy,2023.2.3,Linux x86_64,59.88023952,8,1,5,-0.55166737,-0.224322538,1,0,0,0.9668,Basalt_11,2,11,2,1,0.967,0.313505504,-0.244484557,1,0,0,1.1885,Gabbro_rect,4,1.188,0,4,0,4,0,1,,,,,,,,,,,,,
60ca4cfb5c287146cad0695a,SCN,2024-06-24_14h46.19.790,LearnStrategy,2023.2.3,Linux x86_64,59.88023952,8,1,6,-0.544526723,-0.25995439,1,0,0,1.2863,Basalt_11,2,11,2,1,1.286,0.392330402,-0.261806076,1,0,0,0.8843,Gabbro_rect,4,0.884,0,5,0,5,0,1,,,,,,,,,,,,,
60ca4cfb5c287146cad0695a,SCN,2024-06-24_14h46.19.790,LearnStrategy,2023.2.3,Linux x86_64,59.88023952,8,1,7,-0.531736311,-0.370400657,1,0,0,1.0473,Diorite_14,3,14,1,1,1.047,0.33818047,-0.241780886,1,0,0,1.7887,Gabbro_rect,4,1.789,0,6,0,6,0,1,,,,,,,,,,,,,
60ca4cfb5c287146cad0695a,SCN,2024-06-24_14h46.19.790,LearnStrategy,2023.2.3,Linux x86_64,59.88023952,8,1,8,-0.377491911,0.384054775,1,0,0,1.8149,Pumice_16,8,16,6,2,1.815,0.359311386,-0.244498526,1,0,0,3.0929,Gabbro_rect,4,3.093,0,7,0,7,0,1,,,,,,,,,,,,,
60ca4cfb5c287146cad0695a,SCN,2024-06-24_14h46.19.790,LearnStrategy,2023.2.3,Linux x86_64,59.88023952,8,1,9,-0.368329939,0.241123826,1,0,0,1.3486,Pegmatite_12,6,12,5,2,1.349,0.440120213,-0.251545722,1,0,0,1.6708,Gabbro_rect,4,1.671,0,8,0,8,0,1,,,,,,,,,,,,,
60ca4cfb5c287146cad0695a,SCN,2024-06-24_14h46.19.790,LearnStrategy,2023.2.3,Linux x86_64,59.88023952,8,1,10,-0.402889628,-0.068853566,1,0,0,1.8991,Peridotite_10,7,10,3,2,1.899,0.352183884,-0.262599533,1,0,0,1.0954,Gabbro_rect,4,1.095,0,9,0,9,0,1,,,,,,,,,,,,,
60ca4cfb5c287146cad0695a,SCN,2024-06-24_14h46.19.790,LearnStrategy,2023.2.3,Linux x86_64,59.88023952,8,1,11,-0.388900363,-0.243579345,1,0,0,0.9818,Andesite_07,1,07,2,2,0.982,0.400709842,-0.233607762,1,0,0,0.8496,Gabbro_rect,4,0.85,0,10,0,10,0,1,,,,,,,,,,,,,
60ca4cfb5c287146cad0695a,SCN,2024-06-24_14h46.19.790,LearnStrategy,2023.2.3,Linux x86_64,59.88023952,8,1,12,-0.402580727,-0.250389493,1,0,0,1.332,Andesite_07,1,07,2,2,1.332,0.384642122,-0.256477822,1,0,0,1.3437,Gabbro_rect,4,1.344,0,11,0,11,0,1,,,,,,,,,,,,,
60ca4cfb5c287146cad0695a,SCN,2024-06-24_14h46.19.790,LearnStrategy,2023.2.3,Linux x86_64,59.88023952,8,1,13,-0.414188689,-0.368078241,1,0,0,1.0322,Diorite_07,3,07,1,2,1.032,0.374248809,-0.233349509,1,0,0,1.3129,Gabbro_rect,4,1.313,0,12,0,12,0,1,,,,,,,,,,,,,
60ca4cfb5c287146cad0695a,SCN,2024-06-24_14h46.19.790,LearnStrategy,2023.2.3,Linux x86_64,59.88023952,8,1,14,-0.222649301,-0.382923896,1,0,0,2.0331,Pegmatite_13,6,13,1,3,2.033,0.323031287,-0.2635579,1,0,0,15.4386,Gabbro_rect,4,15.439,0,13,0,13,0,1,,,,,,,,,,,,,
60ca4cfb5c287146cad0695a,SCN,2024-06-24_14h46.19.790,LearnStrategy,2023.2.3,Linux x86_64,59.88023952,8,1,15,-0.040110628,-0.108633265,1,0,0,0.9815,Pegmatite_06,6,06,3,4,0.981,0.319843704,-0.263862646,1,0,0,0.9856,Gabbro_rect,4,0.986,0,14,0,14,0,1,,,,,,,,,,,,,
60ca4cfb5c287146cad0695a,SCN,2024-06-24_14h46.19.790,LearnStrategy,2023.2.3,Linux x86_64,59.88023952,8,1,16,0.110506801,-0.095595597,1,0,0,1.3153,Andesite_09,1,09,3,5,1.315,0.373748349,-0.254305772,1,0,0,1.3967,Gabbro_rect,4,1.397,0,15,0,15,0,1,,,,,,,,,,,,,
60ca4cfb5c287146cad0695a,SCN,2024-06-24_14h46.19.790,LearnStrategy,2023.2.3,Linux x86_64,59.88023952,8,2,1,,,,,,,,5,04,,,,,,,,,,,5,1.634,1,,,,,,-0.412343558,-0.393716946,1,0,0,1.6337,Obsidian_rect,0,0,0,0,1,
60ca4cfb5c287146cad0695a,SCN,2024-06-24_14h46.19.790,LearnStrategy,2023.2.3,Linux x86_64,59.88023952,8,2,2,,,,,,,,7,13,,,,,,,,,,,4,2.08,0,,,,,,0.330652801,-0.228539265,1,0,0,2.0795,Gabbro_rect,1,0,1,0,1,
60ca4cfb5c287146cad0695a,SCN,2024-06-24_14h46.19.790,LearnStrategy,2023.2.3,Linux x86_64,59.88023952,8,2,3,,,,,,,,2,06,,,,,,,,,,,4,1.087,0,,,,,,0.316612709,-0.240043461,1,0,0,1.0875,Gabbro_rect,2,0,2,0,1,
60ca4cfb5c287146cad0695a,SCN,2024-06-24_14h46.19.790,LearnStrategy,2023.2.3,Linux x86_64,59.88023952,8,2,4,,,,,,,,7,14,,,,,,,,,,,4,0.956,0,,,,,,0.316612709,-0.240043461,1,0,0,0.9558,Gabbro_rect,3,0,3,0,1,
60ca4cfb5c287146cad0695a,SCN,2024-06-24_14h46.19.790,LearnStrategy,2023.2.3,Linux x86_64,59.88023952,8,2,5,,,,,,,,3,12,,,,,,,,,,,4,0.83,0,,,,,,0.316612709,-0.240043461,1,0,0,0.8301,Gabbro_rect,4,0,4,0,1,
60ca4cfb5c287146cad0695a,SCN,2024-06-24_14h46.19.790,LearnStrategy,2023.2.3,Linux x86_64,59.88023952,8,2,6,,,,,,,,8,06,,,,,,,,,,,8,1.361,1,,,,,,0.330632313,-0.390623424,1,0,0,1.361,Pumice_rect,5,0,5,0,1,
60ca4cfb5c287146cad0695a,SCN,2024-06-24_14h46.19.790,LearnStrategy,2023.2.3,Linux x86_64,59.88023952,8,2,7,,,,,,,,3,02,,,,,,,,,,,4,1.261,0,,,,,,0.327630558,-0.247561316,1,0,0,1.2609,Gabbro_rect,6,0,6,0,1,
60ca4cfb5c287146cad0695a,SCN,2024-06-24_14h46.19.790,LearnStrategy,2023.2.3,Linux x86_64,59.88023952,8,2,8,,,,,,,,2,12,,,,,,,,,,,8,1.469,0,,,,,,0.328221281,-0.392045858,1,0,0,1.4688,Pumice_rect,7,0,7,0,1,
60ca4cfb5c287146cad0695a,SCN,2024-06-24_14h46.19.790,LearnStrategy,2023.2.3,Linux x86_64,59.88023952,8,2,9,,,,,,,,1,05,,,,,,,,,,,4,1.399,0,,,,,,0.330813412,-0.262601038,1,0,0,1.3987,Gabbro_rect,8,0,8,0,1,
60ca4cfb5c287146cad0695a,SCN,2024-06-24_14h46.19.790,LearnStrategy,2023.2.3,Linux x86_64,59.88023952,8,2,10,,,,,,,,5,07,,,,,,,,,,,5,1.518,1,,,,,,-0.439085159,-0.409810886,1,0,0,1.5181,Obsidian_rect,9,0,9,0,1,
60ca4cfb5c287146cad0695a,SCN,2024-06-24_14h46.19.790,LearnStrategy,2023.2.3,Linux x86_64,59.88023952,8,2,11,,,,,,,,4,03,,,,,,,,,,,4,1.567,1,,,,,,0.306592914,-0.256247077,1,0,0,1.5667,Gabbro_rect,10,0,10,0,1,
60ca4cfb5c287146cad0695a,SCN,2024-06-24_14h46.19.790,LearnStrategy,2023.2.3,Linux x86_64,59.88023952,8,2,12,,,,,,,,6,05,,,,,,,,,,,4,1.504,0,,,,,,0.323452229,-0.254178186,1,0,0,1.5044,Gabbro_rect,11,0,11,0,1,
60ca4cfb5c287146cad0695a,SCN,2024-06-24_14h46.19.790,LearnStrategy,2023.2.3,Linux x86_64,59.88023952,8,2,13,,,,,,,,4,05,,,,,,,,,,,4,1.196,1,,,,,,0.323452229,-0.254685594,1,0,0,1.1959,Gabbro_rect,12,0,12,0,1,
60ca4cfb5c287146cad0695a,SCN,2024-06-24_14h46.19.790,LearnStrategy,2023.2.3,Linux x86_64,59.88023952,8,2,14,,,,,,,,8,05,,,,,,,,,,,8,1.668,1,,,,,,0.336215167,-0.404728061,1,0,0,1.668,Pumice_rect,13,0,13,0,1,
60ca4cfb5c287146cad0695a,SCN,2024-06-24_14h46.19.790,LearnStrategy,2023.2.3,Linux x86_64,59.88023952,8,2,15,,,,,,,,1,16,,,,,,,,,,,4,1.177,0,,,,,,0.34265151,-0.231199739,1,0,0,1.1771,Gabbro_rect,14,0,14,0,1,
60ca4cfb5c287146cad0695a,SCN,2024-06-24_14h46.19.790,LearnStrategy,2023.2.3,Linux x86_64,59.88023952,8,2,16,,,,,,,,6,11,,,,,,,,,,,4,1.607,0,,,,,,0.358493429,-0.269917448,1,0,0,1.6074,Gabbro_rect,15,0,15,0,1,
60ca4cfb5c287146cad0695a,SCN,2024-06-24_14h46.19.790,LearnStrategy,2023.2.3,Linux x86_64,59.88023952,9,1,1,-0.034692899,0.084329883,1,0,0,0.6831,Basalt_02,2,02,4,4,0.683,0.048895393,-0.243369877,1,0,0,0.9244,Diorite_rect,3,0.924,0,0,0,0,0,1,,,,,,,,,,,,,
60ca4cfb5c287146cad0695a,SCN,2024-06-24_14h46.19.790,LearnStrategy,2023.2.3,Linux x86_64,59.88023952,9,1,2,0.06286356,0.103871448,1,0,0,1.8309,Andesite_10,1,10,4,5,1.831,0.104681311,-0.254427341,1,0,0,1.2563,Diorite_rect,3,1.256,0,1,0,1,0,1,,,,,,,,,,,,,
60ca4cfb5c287146cad0695a,SCN,2024-06-24_14h46.19.790,LearnStrategy,2023.2.3,Linux x86_64,59.88023952,9,1,3,0.05533847,0.286789155,1,0,0,0.8154,Basalt_05,2,05,5,5,0.815,0.069557369,-0.264620141,1,0,0,2.4593,Diorite_rect,3,2.459,0,2,0,2,0,1,,,,,,,,,,,,,
60ca4cfb5c287146cad0695a,SCN,2024-06-24_14h46.19.790,LearnStrategy,2023.2.3,Linux x86_64,59.88023952,9,1,4,-0.048100216,0.43026501,1,0,0,1.1477,Gabbro_13,4,13,6,4,1.148,0.118746619,-0.259424201,1,0,0,2.4297,Diorite_rect,3,2.43,0,3,0,3,0,1,,,,,,,,,,,,,
60ca4cfb5c287146cad0695a,SCN,2024-06-24_14h46.19.790,LearnStrategy,2023.2.3,Linux x86_64,59.88023952,9,1,5,0.078854556,0.363112024,1,0,0,1.1485,Gabbro_12,4,12,6,5,1.149,0.340185174,-0.241863698,1,0,0,2.5492,Gabbro_rect,4,2.549,1,4,0,4,0,1,,,,,,,,,,,,,
60ca4cfb5c287146cad0695a,SCN,2024-06-24_14h46.19.790,LearnStrategy,2023.2.3,Linux x86_64,59.88023952,9,1,6,0.217033279,0.223639726,1,0,0,0.9987,Pegmatite_09,6,09,5,6,0.999,0.3745835,-0.243708722,1,0,0,1.1505,Gabbro_rect,4,1.151,0,5,0,5,0,1,,,,,,,,,,,,,
60ca4cfb5c287146cad0695a,SCN,2024-06-24_14h46.19.790,LearnStrategy,2023.2.3,Linux x86_64,59.88023952,9,1,7,0.389825669,0.108948542,1,0,0,1.1161,Pegmatite_03,6,03,4,7,1.116,0.183507713,-0.389003127,1,0,0,2.3202,Peridotite_rect,7,2.32,0,6,0,6,0,1,,,,,,,,,,,,,
60ca4cfb5c287146cad0695a,SCN,2024-06-24_14h46.19.790,LearnStrategy,2023.2.3,Linux x86_64,59.88023952,9,1,8,0.531505459,-0.124743896,1,0,0,4.1847,Pegmatite_15,6,15,3,8,4.185,0.396582518,-0.23428531,1,0,0,1.9252,Gabbro_rect,4,1.925,0,7,0,7,0,1,,,,,,,,,,,,,
60ca4cfb5c287146cad0695a,SCN,2024-06-24_14h46.19.790,LearnStrategy,2023.2.3,Linux x86_64,59.88023952,9,1,9,-0.505384562,0.394946416,1,0,0,3.6767,Andesite_06,1,06,6,1,3.677,-0.113621886,-0.250856928,1,0,0,1.5025,Basalt_rect,2,1.503,0,8,0,8,0,1,,,,,,,,,,,,,
60ca4cfb5c287146cad0695a,SCN,2024-06-24_14h46.19.790,LearnStrategy,2023.2.3,Linux x86_64,59.88023952,9,1,10,-0.408879132,0.22821901,1,0,0,3.2175,Pegmatite_12,6,12,5,2,3.218,-0.143204094,-0.380455841,1,0,0,2.3265,Pegmatite_rect,6,2.326,1,9,0,9,0,1,,,,,,,,,,,,,
60ca4cfb5c287146cad0695a,SCN,2024-06-24_14h46.19.790,LearnStrategy,2023.2.3,Linux x86_64,59.88023952,9,1,11,-0.439048767,-0.40576394,1,0,0,2.7662,Diorite_07,3,07,1,2,2.766,0.163135081,-0.252118321,1,0,0,2.3634,Diorite_rect,3,2.363,1,10,0,10,0,1,,,,,,,,,,,,,
60ca4cfb5c287146cad0695a,SCN,2024-06-24_14h46.19.790,LearnStrategy,2023.2.3,Linux x86_64,59.88023952,9,1,12,0.363426388,0.099474374,1,0,0,1.5486,Pegmatite_03,6,03,4,7,1.549,-0.221100427,-0.40242033,1,0,0,1.9243,Pegmatite_rect,6,1.924,1,11,0,11,0,1,,,,,,,,,,,,,
60ca4cfb5c287146cad0695a,SCN,2024-06-24_14h46.19.790,LearnStrategy,2023.2.3,Linux x86_64,59.88023952,9,1,13,-0.518393396,0.106799023,1,0,0,2.333,Andesite_14,1,14,4,1,2.333,0.301822071,-0.400802111,1,0,0,2.6966,Pumice_rect,8,2.697,0,12,0,12,0,1,,,,,,,,,,,,,
60ca4cfb5c287146cad0695a,SCN,2024-06-24_14h46.19.790,LearnStrategy,2023.2.3,Linux x86_64,59.88023952,9,1,14,-0.549373072,-0.398319441,1,0,0,1.2485,Diorite_14,3,14,1,1,1.249,-0.139433238,-0.256188908,1,0,0,1.2346,Basalt_rect,2,1.235,0,13,0,13,0,1,,,,,,,,,,,,,
60ca4cfb5c287146cad0695a,SCN,2024-06-24_14h46.19.790,LearnStrategy,2023.2.3,Linux x86_64,59.88023952,9,1,15,-0.241690837,0.429388807,1,0,0,1.9355,Pumice_10,8,10,6,3,1.936,0.330746789,-0.390827376,1,0,0,2.7895,Pumice_rect,8,2.79,1,14,0,14,0,1,,,,,,,,,,,,,
60ca4cfb5c287146cad0695a,SCN,2024-06-24_14h46.19.790,LearnStrategy,2023.2.3,Linux x86_64,59.88023952,9,1,16,0.338051093,-0.375917175,1,0,0,1.5326,Gabbro_08,4,08,1,7,1.533,0.342220969,-0.241440392,1,0,0,1.2728,Gabbro_rect,4,1.273,1,15,0,15,0,1,,,,,,,,,,,,,
60ca4cfb5c287146cad0695a,SCN,2024-06-24_14h46.19.790,LearnStrategy,2023.2.3,Linux x86_64,59.88023952,9,2,1,,,,,,,,1,04,,,,,,,,,,,4,2.263,0,,,,,,0.391872352,-0.26239422,1,0,0,2.263,Gabbro_rect,0,0,0,0,1,
60ca4cfb5c287146cad0695a,SCN,2024-06-24_14h46.19.790,LearnStrategy,2023.2.3,Linux x86_64,59.88023952,9,2,2,,,,,,,,8,13,,,,,,,,,,,8,1.225,1,,,,,,0.3853009,-0.384272831,1,0,0,1.2252,Pumice_rect,1,0,1,0,1,
60ca4cfb5c287146cad0695a,SCN,2024-06-24_14h46.19.790,LearnStrategy,2023.2.3,Linux x86_64,59.88023952,9,2,3,,,,,,,,5,10,,,,,,,,,,,5,1.441,1,,,,,,-0.363635032,-0.380508065,1,0,0,1.4407,Obsidian_rect,2,0,2,0,1,
60ca4cfb5c287146cad0695a,SCN,2024-06-24_14h46.19.790,LearnStrategy,2023.2.3,Linux x86_64,59.88023952,9,2,4,,,,,,,,4,01,,,,,,,,,,,4,1.497,1,,,,,,0.311783768,-0.265932826,1,0,0,1.4965,Gabbro_rect,3,0,3,0,1,
60ca4cfb5c287146cad0695a,SCN,2024-06-24_14h46.19.790,LearnStrategy,2023.2.3,Linux x86_64,59.88023952,9,2,5,,,,,,,,1,03,,,,,,,,,,,4,1.085,0,,,,,,0.322610631,-0.262549172,1,0,0,1.0855,Gabbro_rect,4,0,4,0,1,
60ca4cfb5c287146cad0695a,SCN,2024-06-24_14h46.19.790,LearnStrategy,2023.2.3,Linux x86_64,59.88023952,9,2,6,,,,,,,,8,15,,,,,,,,,,,8,1.475,1,,,,,,0.350822055,-0.397777217,1,0,0,1.4745,Pumice_rect,5,0,5,0,1,
60ca4cfb5c287146cad0695a,SCN,2024-06-24_14h46.19.790,LearnStrategy,2023.2.3,Linux x86_64,59.88023952,9,2,7,,,,,,,,7,12,,,,,,,,,,,4,1.97,0,,,,,,0.352654972,-0.255993839,1,0,0,1.97,Gabbro_rect,6,0,6,0,1,
60ca4cfb5c287146cad0695a,SCN,2024-06-24_14h46.19.790,LearnStrategy,2023.2.3,Linux x86_64,59.88023952,9,2,8,,,,,,,,6,08,,,,,,,,,,,6,3.898,1,,,,,,-0.154270154,-0.394991234,1,0,0,3.898,Pegmatite_rect,7,0,7,0,1,
60ca4cfb5c287146cad0695a,SCN,2024-06-24_14h46.19.790,LearnStrategy,2023.2.3,Linux x86_64,59.88023952,9,2,9,,,,,,,,7,08,,,,,,,,,,,4,1.893,0,,,,,,0.348072464,-0.238287124,1,0,0,1.8928,Gabbro_rect,8,0,8,0,1,
60ca4cfb5c287146cad0695a,SCN,2024-06-24_14h46.19.790,LearnStrategy,2023.2.3,Linux x86_64,59.88023952,9,2,10,,,,,,,,2,10,,,,,,,,,,,4,1.115,0,,,,,,0.33910703,-0.255881153,1,0,0,1.1153,Gabbro_rect,9,0,9,0,1,
60ca4cfb5c287146cad0695a,SCN,2024-06-24_14h46.19.790,LearnStrategy,2023.2.3,Linux x86_64,59.88023952,9,2,11,,,,,,,,3,16,,,,,,,,,,,4,1.072,0,,,,,,0.346507901,-0.265627221,1,0,0,1.0725,Gabbro_rect,10,0,10,0,1,
60ca4cfb5c287146cad0695a,SCN,2024-06-24_14h46.19.790,LearnStrategy,2023.2.3,Linux x86_64,59.88023952,9,2,12,,,,,,,,6,07,,,,,,,,,,,6,1.759,1,,,,,,-0.195386716,-0.390942927,1,0,0,1.7591,Pegmatite_rect,11,0,11,0,1,
60ca4cfb5c287146cad0695a,SCN,2024-06-24_14h46.19.790,LearnStrategy,2023.2.3,Linux x86_64,59.88023952,9,2,13,,,,,,,,2,08,,,,,,,,,,,4,1.609,0,,,,,,0.344434425,-0.244188192,1,0,0,1.6086,Gabbro_rect,12,0,12,0,1,
60ca4cfb5c287146cad0695a,SCN,2024-06-24_14h46.19.790,LearnStrategy,2023.2.3,Linux x86_64,59.88023952,9,2,14,,,,,,,,5,02,,,,,,,,,,,5,1.434,1,,,,,,-0.371237061,-0.421615386,1,0,0,1.434,Obsidian_rect,13,0,13,0,1,
60ca4cfb5c287146cad0695a,SCN,2024-06-24_14h46.19.790,LearnStrategy,2023.2.3,Linux x86_64,59.88023952,9,2,15,,,,,,,,4,10,,,,,,,,,,,4,1.199,1,,,,,,0.411690009,-0.242322823,1,0,0,1.1991,Gabbro_rect,14,0,14,0,1,
60ca4cfb5c287146cad0695a,SCN,2024-06-24_14h46.19.790,LearnStrategy,2023.2.3,Linux x86_64,59.88023952,9,2,16,,,,,,,,3,11,,,,,,,,,,,4,0.818,0,,,,,,0.411690009,-0.242322823,1,0,0,0.8184,Gabbro_rect,15,0,15,0,1,
60ca4cfb5c287146cad0695a,SCN,2024-06-24_14h46.19.790,LearnStrategy,2023.2.3,Linux x86_64,59.88023952,,,,,,,,,,,,,,,,,,,,,,,,,,,,,,,,,,,,,,,,,,,0
60ca4cfb5c287146cad0695a,SCN,2024-06-24_14h46.19.790,LearnStrategy,2023.2.3,Linux x86_64,59.88023952,,,,,,,,,,,,,,,,,,,,,,,,,,,,,,,,,,,,,,,,,,,
60ca4cfb5c287146cad0695a,SCN,2024-06-24_14h46.19.790,LearnStrategy,2023.2.3,Linux x86_64,59.88023952,,,,,,,,,,,3,14,1,1,,,,,,,,,,,,,,,,,,,,,,,,,,,,,
60ca4cfb5c287146cad0695a,SCN,2024-06-24_14h46.19.790,LearnStrategy,2023.2.3,Linux x86_64,59.88023952,,,,,,,,,,,3,07,1,2,,,,,,,,,,,,,,,,,,,,,,,,,,,,,
60ca4cfb5c287146cad0695a,SCN,2024-06-24_14h46.19.790,LearnStrategy,2023.2.3,Linux x86_64,59.88023952,,,,,,,,,,,6,13,1,3,,,,,,,,,,,,,,,,,,,,,,,,,,,,,
60ca4cfb5c287146cad0695a,SCN,2024-06-24_14h46.19.790,LearnStrategy,2023.2.3,Linux x86_64,59.88023952,,,,,,,,,,,3,08,1,4,,,,,,,,,,,,,,,,,,,,,,,,,,,,,
60ca4cfb5c287146cad0695a,SCN,2024-06-24_14h46.19.790,LearnStrategy,2023.2.3,Linux x86_64,59.88023952,,,,,,,,,,,8,09,1,5,,,,,,,,,,,,,,,,,,,,,,,,,,,,,
60ca4cfb5c287146cad0695a,SCN,2024-06-24_14h46.19.790,LearnStrategy,2023.2.3,Linux x86_64,59.88023952,,,,,,,,,,,4,09,1,6,,,,,,,,,,,,,,,,,,,,,,,,,,,,,
60ca4cfb5c287146cad0695a,SCN,2024-06-24_14h46.19.790,LearnStrategy,2023.2.3,Linux x86_64,59.88023952,,,,,,,,,,,4,08,1,7,,,,,,,,,,,,,,,,,,,,,,,,,,,,,
60ca4cfb5c287146cad0695a,SCN,2024-06-24_14h46.19.790,LearnStrategy,2023.2.3,Linux x86_64,59.88023952,,,,,,,,,,,4,14,1,8,,,,,,,,,,,,,,,,,,,,,,,,,,,,,
60ca4cfb5c287146cad0695a,SCN,2024-06-24_14h46.19.790,LearnStrategy,2023.2.3,Linux x86_64,59.88023952,,,,,,,,,,,2,11,2,1,,,,,,,,,,,,,,,,,,,,,,,,,,,,,
60ca4cfb5c287146cad0695a,SCN,2024-06-24_14h46.19.790,LearnStrategy,2023.2.3,Linux x86_64,59.88023952,,,,,,,,,,,1,07,2,2,,,,,,,,,,,,,,,,,,,,,,,,,,,,,
60ca4cfb5c287146cad0695a,SCN,2024-06-24_14h46.19.790,LearnStrategy,2023.2.3,Linux x86_64,59.88023952,,,,,,,,,,,7,06,2,3,,,,,,,,,,,,,,,,,,,,,,,,,,,,,
60ca4cfb5c287146cad0695a,SCN,2024-06-24_14h46.19.790,LearnStrategy,2023.2.3,Linux x86_64,59.88023952,,,,,,,,,,,3,10,2,4,,,,,,,,,,,,,,,,,,,,,,,,,,,,,
60ca4cfb5c287146cad0695a,SCN,2024-06-24_14h46.19.790,LearnStrategy,2023.2.3,Linux x86_64,59.88023952,,,,,,,,,,,7,15,2,5,,,,,,,,,,,,,,,,,,,,,,,,,,,,,
60ca4cfb5c287146cad0695a,SCN,2024-06-24_14h46.19.790,LearnStrategy,2023.2.3,Linux x86_64,59.88023952,,,,,,,,,,,7,07,2,6,,,,,,,,,,,,,,,,,,,,,,,,,,,,,
60ca4cfb5c287146cad0695a,SCN,2024-06-24_14h46.19.790,LearnStrategy,2023.2.3,Linux x86_64,59.88023952,,,,,,,,,,,5,16,2,7,,,,,,,,,,,,,,,,,,,,,,,,,,,,,
60ca4cfb5c287146cad0695a,SCN,2024-06-24_14h46.19.790,LearnStrategy,2023.2.3,Linux x86_64,59.88023952,,,,,,,,,,,2,01,2,8,,,,,,,,,,,,,,,,,,,,,,,,,,,,,
60ca4cfb5c287146cad0695a,SCN,2024-06-24_14h46.19.790,LearnStrategy,2023.2.3,Linux x86_64,59.88023952,,,,,,,,,,,2,16,3,1,,,,,,,,,,,,,,,,,,,,,,,,,,,,,
60ca4cfb5c287146cad0695a,SCN,2024-06-24_14h46.19.790,LearnStrategy,2023.2.3,Linux x86_64,59.88023952,,,,,,,,,,,7,10,3,2,,,,,,,,,,,,,,,,,,,,,,,,,,,,,
60ca4cfb5c287146cad0695a,SCN,2024-06-24_14h46.19.790,LearnStrategy,2023.2.3,Linux x86_64,59.88023952,,,,,,,,,,,7,05,3,3,,,,,,,,,,,,,,,,,,,,,,,,,,,,,
60ca4cfb5c287146cad0695a,SCN,2024-06-24_14h46.19.790,LearnStrategy,2023.2.3,Linux x86_64,59.88023952,,,,,,,,,,,6,06,3,4,,,,,,,,,,,,,,,,,,,,,,,,,,,,,
60ca4cfb5c287146cad0695a,SCN,2024-06-24_14h46.19.790,LearnStrategy,2023.2.3,Linux x86_64,59.88023952,,,,,,,,,,,1,09,3,5,,,,,,,,,,,,,,,,,,,,,,,,,,,,,
60ca4cfb5c287146cad0695a,SCN,2024-06-24_14h46.19.790,LearnStrategy,2023.2.3,Linux x86_64,59.88023952,,,,,,,,,,,5,08,3,6,,,,,,,,,,,,,,,,,,,,,,,,,,,,,
60ca4cfb5c287146cad0695a,SCN,2024-06-24_14h46.19.790,LearnStrategy,2023.2.3,Linux x86_64,59.88023952,,,,,,,,,,,8,04,3,7,,,,,,,,,,,,,,,,,,,,,,,,,,,,,
60ca4cfb5c287146cad0695a,SCN,2024-06-24_14h46.19.790,LearnStrategy,2023.2.3,Linux x86_64,59.88023952,,,,,,,,,,,6,15,3,8,,,,,,,,,,,,,,,,,,,,,,,,,,,,,
60ca4cfb5c287146cad0695a,SCN,2024-06-24_14h46.19.790,LearnStrategy,2023.2.3,Linux x86_64,59.88023952,,,,,,,,,,,1,14,4,1,,,,,,,,,,,,,,,,,,,,,,,,,,,,,
60ca4cfb5c287146cad0695a,SCN,2024-06-24_14h46.19.790,LearnStrategy,2023.2.3,Linux x86_64,59.88023952,,,,,,,,,,,8,08,4,2,,,,,,,,,,,,,,,,,,,,,,,,,,,,,
60ca4cfb5c287146cad0695a,SCN,2024-06-24_14h46.19.790,LearnStrategy,2023.2.3,Linux x86_64,59.88023952,,,,,,,,,,,4,16,4,3,,,,,,,,,,,,,,,,,,,,,,,,,,,,,
60ca4cfb5c287146cad0695a,SCN,2024-06-24_14h46.19.790,LearnStrategy,2023.2.3,Linux x86_64,59.88023952,,,,,,,,,,,2,02,4,4,,,,,,,,,,,,,,,,,,,,,,,,,,,,,
60ca4cfb5c287146cad0695a,SCN,2024-06-24_14h46.19.790,LearnStrategy,2023.2.3,Linux x86_64,59.88023952,,,,,,,,,,,1,10,4,5,,,,,,,,,,,,,,,,,,,,,,,,,,,,,
60ca4cfb5c287146cad0695a,SCN,2024-06-24_14h46.19.790,LearnStrategy,2023.2.3,Linux x86_64,59.88023952,,,,,,,,,,,3,06,4,6,,,,,,,,,,,,,,,,,,,,,,,,,,,,,
60ca4cfb5c287146cad0695a,SCN,2024-06-24_14h46.19.790,LearnStrategy,2023.2.3,Linux x86_64,59.88023952,,,,,,,,,,,6,03,4,7,,,,,,,,,,,,,,,,,,,,,,,,,,,,,
60ca4cfb5c287146cad0695a,SCN,2024-06-24_14h46.19.790,LearnStrategy,2023.2.3,Linux x86_64,59.88023952,,,,,,,,,,,7,04,4,8,,,,,,,,,,,,,,,,,,,,,,,,,,,,,
60ca4cfb5c287146cad0695a,SCN,2024-06-24_14h46.19.790,LearnStrategy,2023.2.3,Linux x86_64,59.88023952,,,,,,,,,,,1,01,5,1,,,,,,,,,,,,,,,,,,,,,,,,,,,,,
60ca4cfb5c287146cad0695a,SCN,2024-06-24_14h46.19.790,LearnStrategy,2023.2.3,Linux x86_64,59.88023952,,,,,,,,,,,6,12,5,2,,,,,,,,,,,,,,,,,,,,,,,,,,,,,
60ca4cfb5c287146cad0695a,SCN,2024-06-24_14h46.19.790,LearnStrategy,2023.2.3,Linux x86_64,59.88023952,,,,,,,,,,,5,11,5,3,,,,,,,,,,,,,,,,,,,,,,,,,,,,,
60ca4cfb5c287146cad0695a,SCN,2024-06-24_14h46.19.790,LearnStrategy,2023.2.3,Linux x86_64,59.88023952,,,,,,,,,,,5,09,5,4,,,,,,,,,,,,,,,,,,,,,,,,,,,,,
60ca4cfb5c287146cad0695a,SCN,2024-06-24_14h46.19.790,LearnStrategy,2023.2.3,Linux x86_64,59.88023952,,,,,,,,,,,2,05,5,5,,,,,,,,,,,,,,,,,,,,,,,,,,,,,
60ca4cfb5c287146cad0695a,SCN,2024-06-24_14h46.19.790,LearnStrategy,2023.2.3,Linux x86_64,59.88023952,,,,,,,,,,,6,09,5,6,,,,,,,,,,,,,,,,,,,,,,,,,,,,,
60ca4cfb5c287146cad0695a,SCN,2024-06-24_14h46.19.790,LearnStrategy,2023.2.3,Linux x86_64,59.88023952,,,,,,,,,,,8,03,5,7,,,,,,,,,,,,,,,,,,,,,,,,,,,,,
60ca4cfb5c287146cad0695a,SCN,2024-06-24_14h46.19.790,LearnStrategy,2023.2.3,Linux x86_64,59.88023952,,,,,,,,,,,3,13,5,8,,,,,,,,,,,,,,,,,,,,,,,,,,,,,
60ca4cfb5c287146cad0695a,SCN,2024-06-24_14h46.19.790,LearnStrategy,2023.2.3,Linux x86_64,59.88023952,,,,,,,,,,,1,06,6,1,,,,,,,,,,,,,,,,,,,,,,,,,,,,,
60ca4cfb5c287146cad0695a,SCN,2024-06-24_14h46.19.790,LearnStrategy,2023.2.3,Linux x86_64,59.88023952,,,,,,,,,,,8,16,6,2,,,,,,,,,,,,,,,,,,,,,,,,,,,,,
60ca4cfb5c287146cad0695a,SCN,2024-06-24_14h46.19.790,LearnStrategy,2023.2.3,Linux x86_64,59.88023952,,,,,,,,,,,8,10,6,3,,,,,,,,,,,,,,,,,,,,,,,,,,,,,
60ca4cfb5c287146cad0695a,SCN,2024-06-24_14h46.19.790,LearnStrategy,2023.2.3,Linux x86_64,59.88023952,,,,,,,,,,,4,13,6,4,,,,,,,,,,,,,,,,,,,,,,,,,,,,,
60ca4cfb5c287146cad0695a,SCN,2024-06-24_14h46.19.790,LearnStrategy,2023.2.3,Linux x86_64,59.88023952,,,,,,,,,,,4,12,6,5,,,,,,,,,,,,,,,,,,,,,,,,,,,,,
60ca4cfb5c287146cad0695a,SCN,2024-06-24_14h46.19.790,LearnStrategy,2023.2.3,Linux x86_64,59.88023952,,,,,,,,,,,2,04,6,6,,,,,,,,,,,,,,,,,,,,,,,,,,,,,
60ca4cfb5c287146cad0695a,SCN,2024-06-24_14h46.19.790,LearnStrategy,2023.2.3,Linux x86_64,59.88023952,,,,,,,,,,,5,14,6,7,,,,,,,,,,,,,,,,,,,,,,,,,,,,,
60ca4cfb5c287146cad0695a,SCN,2024-06-24_14h46.19.790,LearnStrategy,2023.2.3,Linux x86_64,59.88023952,,,,,,,,,,,5,05,6,8,,,,,,,,,,,,,,,,,,,,,,,,,,,,,