participant,condition,date,expName,psychopyVersion,OS,frameRate,block,phase,trial,learn_mouse.x,learn_mouse.y,learn_mouse.leftButton,learn_mouse.midButton,learn_mouse.rightButton,learn_mouse.time,learn_mouse.clicked_name,cat,token,row,col,t_select,cat_mouse_l.x,cat_mouse_l.y,cat_mouse_l.leftButton,cat_mouse_l.midButton,cat_mouse_l.rightButton,cat_mouse_l.time,cat_mouse_l.clicked_name,resp,t_resp,corr,train_trials.thisRepN,train_trials.thisTrialN,train_trials.thisN,train_trials.thisIndex,train_trials.ran,cat_mouse_t.x,cat_mouse_t.y,cat_mouse_t.leftButton,cat_mouse_t.midButton,cat_mouse_t.rightButton,cat_mouse_t.time,cat_mouse_t.clicked_name,test_trials.thisRepN,test_trials.thisTrialN,test_trials.thisN,test_trials.thisIndex,test_trials.ran,Bonus
60d13d406f3b34d6791c8831,SCN,2024-06-24_15h09.58.876,LearnStrategy,2023.2.3,MacIntel,120.4819277,,,,,,,,,,,,,,,,,,,,,,,,,,,,,,,,,,,,,,,,,,,
60d13d406f3b34d6791c8831,SCN,2024-06-24_15h09.58.876,LearnStrategy,2023.2.3,MacIntel,120.4819277,1,1,1,-0.530804304,0.394211242,1,0,0,3.9848,Obsidian_09,5,09,6,1,3.985,-0.373189928,-0.405333801,1,0,0,3.35,Obsidian_rect,5,3.35,1,0,0,0,0,1,,,,,,,,,,,,,
60d13d406f3b34d6791c8831,SCN,2024-06-24_15h09.58.876,LearnStrategy,2023.2.3,MacIntel,120.4819277,1,1,2,-0.071323792,0.417525535,1,0,0,4.8245,Diorite_07,3,07,6,4,4.825,0.129905139,-0.260829838,1,0,0,7.919,Diorite_rect,3,7.919,1,1,0,1,0,1,,,,,,,,,,,,,
60d13d406f3b34d6791c8831,SCN,2024-06-24_15h09.58.876,LearnStrategy,2023.2.3,MacIntel,120.4819277,1,1,3,0.384051188,0.387513396,1,0,0,2.3745,Gabbro_05,4,05,6,7,2.374,-0.368985169,-0.251783612,1,0,0,7.8114,Andesite_rect,1,7.811,0,2,0,2,0,1,,,,,,,,,,,,,
60d13d406f3b34d6791c8831,SCN,2024-06-24_15h09.58.876,LearnStrategy,2023.2.3,MacIntel,120.4819277,1,1,4,-0.404264626,0.235497096,1,0,0,3.5235,Pegmatite_10,6,10,5,2,3.524,-0.373189928,-0.240393139,1,0,0,1.4462,Andesite_rect,1,1.446,0,3,0,3,0,1,,,,,,,,,,,,,
60d13d406f3b34d6791c8831,SCN,2024-06-24_15h09.58.876,LearnStrategy,2023.2.3,MacIntel,120.4819277,1,1,5,-0.090272081,0.232706327,1,0,0,2.1902,Diorite_11,3,11,5,4,2.19,0.088825016,-0.244879042,1,0,0,3.7126,Diorite_rect,3,3.713,1,4,0,4,0,1,,,,,,,,,,,,,
60d13d406f3b34d6791c8831,SCN,2024-06-24_15h09.58.876,LearnStrategy,2023.2.3,MacIntel,120.4819277,1,1,6,-0.555251442,-0.074745482,1,0,0,6.1367,Peridotite_12,7,12,3,1,6.137,0.095584879,-0.243411304,1,0,0,2.0756,Diorite_rect,3,2.076,0,5,0,5,0,1,,,,,,,,,,,,,
60d13d406f3b34d6791c8831,SCN,2024-06-24_15h09.58.876,LearnStrategy,2023.2.3,MacIntel,120.4819277,1,1,7,-0.052499537,0.08564726,1,0,0,1.5166,Pegmatite_08,6,08,4,4,1.517,-0.110473116,-0.381837591,1,0,0,4.4792,Pegmatite_rect,6,4.479,1,6,0,6,0,1,,,,,,,,,,,,,
60d13d406f3b34d6791c8831,SCN,2024-06-24_15h09.58.876,LearnStrategy,2023.2.3,MacIntel,120.4819277,1,1,8,0.538787971,-0.089571702,1,0,0,2.5571,Obsidian_07,5,07,3,8,2.557,-0.447155648,-0.390892087,1,0,0,2.8543,Obsidian_rect,5,2.854,1,7,0,7,0,1,,,,,,,,,,,,,
60d13d406f3b34d6791c8831,SCN,2024-06-24_15h09.58.876,LearnStrategy,2023.2.3,MacIntel,120.4819277,1,1,9,-0.411909267,-0.084585527,1,0,0,1.7323,Andesite_03,1,03,3,2,1.732,0.145645077,-0.411762906,1,0,0,12.4042,Peridotite_rect,7,12.404,0,8,0,8,0,1,,,,,,,,,,,,,
60d13d406f3b34d6791c8831,SCN,2024-06-24_15h09.58.876,LearnStrategy,2023.2.3,MacIntel,120.4819277,1,1,10,0.397707352,-0.268267755,1,0,0,5.3747,Gabbro_12,4,12,2,7,5.375,-0.123294116,-0.250398563,1,0,0,4.8218,Basalt_rect,2,4.822,0,9,0,9,0,1,,,,,,,,,,,,,
60d13d406f3b34d6791c8831,SCN,2024-06-24_15h09.58.876,LearnStrategy,2023.2.3,MacIntel,120.4819277,1,1,11,-0.559468604,-0.260275819,1,0,0,6.8165,Pegmatite_13,6,13,2,1,6.816,-0.417350233,-0.257774463,1,0,0,3.0782,Andesite_rect,1,3.078,0,10,0,10,0,1,,,,,,,,,,,,,
60d13d406f3b34d6791c8831,SCN,2024-06-24_15h09.58.876,LearnStrategy,2023.2.3,MacIntel,120.4819277,1,1,12,-0.350975405,-0.392194446,1,0,0,2.2326,Pegmatite_05,6,05,1,2,2.233,-0.144913275,-0.402853117,1,0,0,2.312,Pegmatite_rect,6,2.312,1,11,0,11,0,1,,,,,,,,,,,,,
60d13d406f3b34d6791c8831,SCN,2024-06-24_15h09.58.876,LearnStrategy,2023.2.3,MacIntel,120.4819277,1,1,13,-0.085149469,0.107696404,1,0,0,2.0995,Pegmatite_08,6,08,4,4,2.099,-0.372470529,-0.238007548,1,0,0,2.4125,Andesite_rect,1,2.413,0,12,0,12,0,1,,,,,,,,,,,,,
60d13d406f3b34d6791c8831,SCN,2024-06-24_15h09.58.876,LearnStrategy,2023.2.3,MacIntel,120.4819277,1,1,14,-0.226378929,-0.115577536,1,0,0,7.8486,Andesite_16,1,16,3,3,7.849,0.387995475,-0.246987623,1,0,0,7.6275,Gabbro_rect,4,7.627,0,13,0,13,0,1,,,,,,,,,,,,,
60d13d406f3b34d6791c8831,SCN,2024-06-24_15h09.58.876,LearnStrategy,2023.2.3,MacIntel,120.4819277,1,1,15,0.54021023,0.399280106,1,0,0,5.9156,Pumice_06,8,06,6,8,5.916,0.375600325,-0.385380835,1,0,0,0.9063,Pumice_rect,8,0.906,1,14,0,14,0,1,,,,,,,,,,,,,
60d13d406f3b34d6791c8831,SCN,2024-06-24_15h09.58.876,LearnStrategy,2023.2.3,MacIntel,120.4819277,1,1,16,-0.390484428,-0.102802015,1,0,0,7.7239,Andesite_03,1,03,3,2,7.724,-0.085141201,-0.385537945,1,0,0,3.8835,Pegmatite_rect,6,3.884,0,15,0,15,0,1,,,,,,,,,,,,,
60d13d406f3b34d6791c8831,SCN,2024-06-24_15h09.58.876,LearnStrategy,2023.2.3,MacIntel,120.4819277,1,2,1,,,,,,,,2,05,,,,,,,,,,,4,8.97,0,,,,,,0.394532077,-0.239198276,1,0,0,8.9704,Gabbro_rect,0,0,0,0,1,
60d13d406f3b34d6791c8831,SCN,2024-06-24_15h09.58.876,LearnStrategy,2023.2.3,MacIntel,120.4819277,1,2,2,,,,,,,,3,16,,,,,,,,,,,3,2.883,1,,,,,,0.096477925,-0.250716918,1,0,0,2.8828,Diorite_rect,1,0,1,0,1,
60d13d406f3b34d6791c8831,SCN,2024-06-24_15h09.58.876,LearnStrategy,2023.2.3,MacIntel,120.4819277,1,2,3,,,,,,,,5,16,,,,,,,,,,,5,1.53,1,,,,,,-0.428219762,-0.421842751,1,0,0,1.5301,Obsidian_rect,2,0,2,0,1,
60d13d406f3b34d6791c8831,SCN,2024-06-24_15h09.58.876,LearnStrategy,2023.2.3,MacIntel,120.4819277,1,2,4,,,,,,,,5,14,,,,,,,,,,,5,2.387,1,,,,,,-0.377498049,-0.390172689,1,0,0,2.3872,Obsidian_rect,3,0,3,0,1,
60d13d406f3b34d6791c8831,SCN,2024-06-24_15h09.58.876,LearnStrategy,2023.2.3,MacIntel,120.4819277,1,2,5,,,,,,,,7,10,,,,,,,,,,,1,2.555,0,,,,,,-0.368398074,-0.242679502,1,0,0,2.5551,Andesite_rect,4,0,4,0,1,
60d13d406f3b34d6791c8831,SCN,2024-06-24_15h09.58.876,LearnStrategy,2023.2.3,MacIntel,120.4819277,1,2,6,,,,,,,,8,14,,,,,,,,,,,8,2.587,1,,,,,,0.426607318,-0.3984375,1,0,0,2.5868,Pumice_rect,5,0,5,0,1,
60d13d406f3b34d6791c8831,SCN,2024-06-24_15h09.58.876,LearnStrategy,2023.2.3,MacIntel,120.4819277,1,2,7,,,,,,,,6,11,,,,,,,,,,,1,3.561,0,,,,,,-0.335797755,-0.235117551,1,0,0,3.5611,Andesite_rect,6,0,6,0,1,
60d13d406f3b34d6791c8831,SCN,2024-06-24_15h09.58.876,LearnStrategy,2023.2.3,MacIntel,120.4819277,1,2,8,,,,,,,,1,14,,,,,,,,,,,3,2.314,0,,,,,,0.110952715,-0.24124484,1,0,0,2.3135,Diorite_rect,7,0,7,0,1,
60d13d406f3b34d6791c8831,SCN,2024-06-24_15h09.58.876,LearnStrategy,2023.2.3,MacIntel,120.4819277,1,2,9,,,,,,,,7,13,,,,,,,,,,,6,3.426,0,,,,,,-0.099400998,-0.392359825,1,0,0,3.4263,Pegmatite_rect,8,0,8,0,1,
60d13d406f3b34d6791c8831,SCN,2024-06-24_15h09.58.876,LearnStrategy,2023.2.3,MacIntel,120.4819277,1,2,10,,,,,,,,1,07,,,,,,,,,,,3,1.855,0,,,,,,0.083570101,-0.246181401,1,0,0,1.8551,Diorite_rect,9,0,9,0,1,
60d13d406f3b34d6791c8831,SCN,2024-06-24_15h09.58.876,LearnStrategy,2023.2.3,MacIntel,120.4819277,1,2,11,,,,,,,,4,03,,,,,,,,,,,3,2.443,0,,,,,,0.123405747,-0.253408459,1,0,0,2.4433,Diorite_rect,10,0,10,0,1,
60d13d406f3b34d6791c8831,SCN,2024-06-24_15h09.58.876,LearnStrategy,2023.2.3,MacIntel,120.4819277,1,2,12,,,,,,,,6,03,,,,,,,,,,,1,2.769,0,,,,,,-0.39576415,-0.253032222,1,0,0,2.7689,Andesite_rect,11,0,11,0,1,
60d13d406f3b34d6791c8831,SCN,2024-06-24_15h09.58.876,LearnStrategy,2023.2.3,MacIntel,120.4819277,1,2,13,,,,,,,,4,13,,,,,,,,,,,7,4.488,0,,,,,,0.072316066,-0.409149919,1,0,0,4.4878,Peridotite_rect,12,0,12,0,1,
60d13d406f3b34d6791c8831,SCN,2024-06-24_15h09.58.876,LearnStrategy,2023.2.3,MacIntel,120.4819277,1,2,14,,,,,,,,8,10,,,,,,,,,,,8,2.255,1,,,,,,0.416209118,-0.421793137,1,0,0,2.2549,Pumice_rect,13,0,13,0,1,
60d13d406f3b34d6791c8831,SCN,2024-06-24_15h09.58.876,LearnStrategy,2023.2.3,MacIntel,120.4819277,1,2,15,,,,,,,,3,13,,,,,,,,,,,3,2.269,1,,,,,,0.090697932,-0.230061091,1,0,0,2.2692,Diorite_rect,14,0,14,0,1,
60d13d406f3b34d6791c8831,SCN,2024-06-24_15h09.58.876,LearnStrategy,2023.2.3,MacIntel,120.4819277,1,2,16,,,,,,,,2,08,,,,,,,,,,,5,2.03,0,,,,,,-0.402643913,-0.403704818,1,0,0,2.0304,Obsidian_rect,15,0,15,0,1,
60d13d406f3b34d6791c8831,SCN,2024-06-24_15h09.58.876,LearnStrategy,2023.2.3,MacIntel,120.4819277,2,1,1,-0.384361274,0.392280443,1,0,0,2.4739,Andesite_10,1,10,6,2,2.474,0.11687328,-0.236676248,1,0,0,2.8168,Diorite_rect,3,2.817,0,0,0,0,0,1,,,,,,,,,,,,,
60d13d406f3b34d6791c8831,SCN,2024-06-24_15h09.58.876,LearnStrategy,2023.2.3,MacIntel,120.4819277,2,1,2,-0.063030039,0.411671121,1,0,0,1.4241,Diorite_07,3,07,6,4,1.424,-0.423601556,-0.23253764,1,0,0,1.405,Andesite_rect,1,1.405,0,1,0,1,0,1,,,,,,,,,,,,,
60d13d406f3b34d6791c8831,SCN,2024-06-24_15h09.58.876,LearnStrategy,2023.2.3,MacIntel,120.4819277,2,1,3,0.057411291,-0.396643139,1,0,0,5.9657,Peridotite_06,7,06,1,5,5.966,-0.351471542,-0.241687229,1,0,0,2.0875,Andesite_rect,1,2.088,0,2,0,2,0,1,,,,,,,,,,,,,
60d13d406f3b34d6791c8831,SCN,2024-06-24_15h09.58.876,LearnStrategy,2023.2.3,MacIntel,120.4819277,2,1,4,-0.38015238,-0.433411006,1,0,0,3.3573,Pegmatite_05,6,05,1,2,3.357,-0.395458199,-0.233319056,1,0,0,0.8799,Andesite_rect,1,0.88,0,3,0,3,0,1,,,,,,,,,,,,,
60d13d406f3b34d6791c8831,SCN,2024-06-24_15h09.58.876,LearnStrategy,2023.2.3,MacIntel,120.4819277,2,1,5,-0.413025574,0.248396651,1,0,0,1.3909,Pegmatite_10,6,10,5,2,1.391,-0.394391505,-0.254487557,1,0,0,0.8292,Andesite_rect,1,0.829,0,4,0,4,0,1,,,,,,,,,,,,,
60d13d406f3b34d6791c8831,SCN,2024-06-24_15h09.58.876,LearnStrategy,2023.2.3,MacIntel,120.4819277,2,1,6,-0.558009136,0.269292277,1,0,0,1.2417,Pegmatite_15,6,15,5,1,1.242,-0.17373882,-0.41490924,1,0,0,1.0803,Pegmatite_rect,6,1.08,1,5,0,5,0,1,,,,,,,,,,,,,
60d13d406f3b34d6791c8831,SCN,2024-06-24_15h09.58.876,LearnStrategy,2023.2.3,MacIntel,120.4819277,2,1,7,0.066412038,-0.393174316,1,0,0,3.1416,Peridotite_06,7,06,1,5,3.142,-0.169798668,-0.405077463,1,0,0,1.8625,Pegmatite_rect,6,1.863,0,6,0,6,0,1,,,,,,,,,,,,,
60d13d406f3b34d6791c8831,SCN,2024-06-24_15h09.58.876,LearnStrategy,2023.2.3,MacIntel,120.4819277,2,1,8,0.542781872,-0.285839265,1,0,0,1.7739,Basalt_11,2,11,2,8,1.774,0.386932916,-0.245131245,1,0,0,4.2126,Gabbro_rect,4,4.213,0,7,0,7,0,1,,,,,,,,,,,,,
60d13d406f3b34d6791c8831,SCN,2024-06-24_15h09.58.876,LearnStrategy,2023.2.3,MacIntel,120.4819277,2,1,9,0.373553761,-0.087252262,1,0,0,1.3653,Basalt_09,2,09,3,7,1.365,-0.165560833,-0.238065431,1,0,0,0.9969,Basalt_rect,2,0.997,1,8,0,8,0,1,,,,,,,,,,,,,
60d13d406f3b34d6791c8831,SCN,2024-06-24_15h09.58.876,LearnStrategy,2023.2.3,MacIntel,120.4819277,2,1,10,0.06549832,0.088454567,1,0,0,1.7658,Pumice_08,8,08,4,5,1.766,0.414724843,-0.392839424,1,0,0,1.3716,Pumice_rect,8,1.372,1,9,0,9,0,1,,,,,,,,,,,,,
60d13d406f3b34d6791c8831,SCN,2024-06-24_15h09.58.876,LearnStrategy,2023.2.3,MacIntel,120.4819277,2,1,11,-0.387354632,0.395273801,1,0,0,2.9247,Andesite_10,1,10,6,2,2.925,0.120375179,-0.240835527,1,0,0,1.8822,Diorite_rect,3,1.882,0,10,0,10,0,1,,,,,,,,,,,,,
60d13d406f3b34d6791c8831,SCN,2024-06-24_15h09.58.876,LearnStrategy,2023.2.3,MacIntel,120.4819277,2,1,12,0.08608386,-0.425840786,1,0,0,3.0819,Peridotite_06,7,06,1,5,3.082,-0.118192177,-0.402369384,1,0,0,6.6794,Pegmatite_rect,6,6.679,0,11,0,11,0,1,,,,,,,,,,,,,
60d13d406f3b34d6791c8831,SCN,2024-06-24_15h09.58.876,LearnStrategy,2023.2.3,MacIntel,120.4819277,2,1,13,0.387003202,0.388642107,1,0,0,8.4819,Gabbro_05,4,05,6,7,8.482,-0.112428722,-0.414367624,1,0,0,12.0312,Pegmatite_rect,6,12.031,0,12,0,12,0,1,,,,,,,,,,,,,
60d13d406f3b34d6791c8831,SCN,2024-06-24_15h09.58.876,LearnStrategy,2023.2.3,MacIntel,120.4819277,2,1,14,-0.071555323,0.079689485,1,0,0,1.3071,Pegmatite_08,6,08,4,4,1.307,-0.09608515,-0.389569056,1,0,0,2.1961,Pegmatite_rect,6,2.196,1,13,0,13,0,1,,,,,,,,,,,,,
60d13d406f3b34d6791c8831,SCN,2024-06-24_15h09.58.876,LearnStrategy,2023.2.3,MacIntel,120.4819277,2,1,15,-0.387367035,-0.395158863,1,0,0,3.8072,Pegmatite_05,6,05,1,2,3.807,-0.107438413,-0.419130537,1,0,0,1.6149,Pegmatite_rect,6,1.615,1,14,0,14,0,1,,,,,,,,,,,,,
60d13d406f3b34d6791c8831,SCN,2024-06-24_15h09.58.876,LearnStrategy,2023.2.3,MacIntel,120.4819277,2,1,16,-0.085393403,-0.289026944,1,0,0,1.8571,Basalt_16,2,16,2,4,1.857,0.402143642,-0.253243081,1,0,0,3.4386,Gabbro_rect,4,3.439,0,15,0,15,0,1,,,,,,,,,,,,,
60d13d406f3b34d6791c8831,SCN,2024-06-24_15h09.58.876,LearnStrategy,2023.2.3,MacIntel,120.4819277,2,2,1,,,,,,,,7,02,,,,,,,,,,,6,6.416,0,,,,,,-0.114276831,-0.415310284,1,0,0,6.416,Pegmatite_rect,0,0,0,0,1,
60d13d406f3b34d6791c8831,SCN,2024-06-24_15h09.58.876,LearnStrategy,2023.2.3,MacIntel,120.4819277,2,2,2,,,,,,,,2,04,,,,,,,,,,,2,1.887,1,,,,,,-0.097519812,-0.266473394,1,0,0,1.8867,Basalt_rect,1,0,1,0,1,
60d13d406f3b34d6791c8831,SCN,2024-06-24_15h09.58.876,LearnStrategy,2023.2.3,MacIntel,120.4819277,2,2,3,,,,,,,,7,15,,,,,,,,,,,1,4.862,0,,,,,,-0.331113397,-0.249993385,1,0,0,4.8616,Andesite_rect,2,0,2,0,1,
60d13d406f3b34d6791c8831,SCN,2024-06-24_15h09.58.876,LearnStrategy,2023.2.3,MacIntel,120.4819277,2,2,4,,,,,,,,3,12,,,,,,,,,,,3,1.622,1,,,,,,0.110857622,-0.235121686,1,0,0,1.6219,Diorite_rect,3,0,3,0,1,
60d13d406f3b34d6791c8831,SCN,2024-06-24_15h09.58.876,LearnStrategy,2023.2.3,MacIntel,120.4819277,2,2,5,,,,,,,,2,14,,,,,,,,,,,8,2.003,0,,,,,,0.373934133,-0.391698309,1,0,0,2.0031,Pumice_rect,4,0,4,0,1,
60d13d406f3b34d6791c8831,SCN,2024-06-24_15h09.58.876,LearnStrategy,2023.2.3,MacIntel,120.4819277,2,2,6,,,,,,,,3,14,,,,,,,,,,,3,1.705,1,,,,,,0.071704164,-0.239905271,1,0,0,1.7052,Diorite_rect,5,0,5,0,1,
60d13d406f3b34d6791c8831,SCN,2024-06-24_15h09.58.876,LearnStrategy,2023.2.3,MacIntel,120.4819277,2,2,7,,,,,,,,5,05,,,,,,,,,,,5,3.55,1,,,,,,-0.39301886,-0.393856504,1,0,0,3.5497,Obsidian_rect,6,0,6,0,1,
60d13d406f3b34d6791c8831,SCN,2024-06-24_15h09.58.876,LearnStrategy,2023.2.3,MacIntel,120.4819277,2,2,8,,,,,,,,8,05,,,,,,,,,,,8,1.312,1,,,,,,0.356784339,-0.383863483,1,0,0,1.3117,Pumice_rect,7,0,7,0,1,
60d13d406f3b34d6791c8831,SCN,2024-06-24_15h09.58.876,LearnStrategy,2023.2.3,MacIntel,120.4819277,2,2,9,,,,,,,,4,09,,,,,,,,,,,2,5.069,0,,,,,,-0.126581022,-0.258638568,1,0,0,5.0691,Basalt_rect,8,0,8,0,1,
60d13d406f3b34d6791c8831,SCN,2024-06-24_15h09.58.876,LearnStrategy,2023.2.3,MacIntel,120.4819277,2,2,10,,,,,,,,5,10,,,,,,,,,,,5,1.439,1,,,,,,-0.386887436,-0.409608846,1,0,0,1.439,Obsidian_rect,9,0,9,0,1,
60d13d406f3b34d6791c8831,SCN,2024-06-24_15h09.58.876,LearnStrategy,2023.2.3,MacIntel,120.4819277,2,2,11,,,,,,,,6,16,,,,,,,,,,,6,2.828,1,,,,,,-0.111155304,-0.410187672,1,0,0,2.8278,Pegmatite_rect,10,0,10,0,1,
60d13d406f3b34d6791c8831,SCN,2024-06-24_15h09.58.876,LearnStrategy,2023.2.3,MacIntel,120.4819277,2,2,12,,,,,,,,1,11,,,,,,,,,,,3,3.253,0,,,,,,0.079390149,-0.246809841,1,0,0,3.2532,Diorite_rect,11,0,11,0,1,
60d13d406f3b34d6791c8831,SCN,2024-06-24_15h09.58.876,LearnStrategy,2023.2.3,MacIntel,120.4819277,2,2,13,,,,,,,,6,12,,,,,,,,,,,3,1.929,0,,,,,,0.059982933,-0.240876872,1,0,0,1.9287,Diorite_rect,12,0,12,0,1,
60d13d406f3b34d6791c8831,SCN,2024-06-24_15h09.58.876,LearnStrategy,2023.2.3,MacIntel,120.4819277,2,2,14,,,,,,,,1,01,,,,,,,,,,,2,1.894,0,,,,,,-0.10977439,-0.239537303,1,0,0,1.8945,Basalt_rect,13,0,13,0,1,
60d13d406f3b34d6791c8831,SCN,2024-06-24_15h09.58.876,LearnStrategy,2023.2.3,MacIntel,120.4819277,2,2,15,,,,,,,,8,02,,,,,,,,,,,8,1.211,1,,,,,,0.350628109,-0.404850067,1,0,0,1.211,Pumice_rect,14,0,14,0,1,
60d13d406f3b34d6791c8831,SCN,2024-06-24_15h09.58.876,LearnStrategy,2023.2.3,MacIntel,120.4819277,2,2,16,,,,,,,,4,16,,,,,,,,,,,4,2.725,1,,,,,,0.35956684,-0.256840072,1,0,0,2.7249,Gabbro_rect,15,0,15,0,1,
60d13d406f3b34d6791c8831,SCN,2024-06-24_15h09.58.876,LearnStrategy,2023.2.3,MacIntel,120.4819277,3,1,1,-0.554895877,0.079317382,1,0,0,6.2881,Diorite_02,3,02,4,1,6.288,0.120449599,-0.248438823,1,0,0,1.9411,Diorite_rect,3,1.941,1,0,0,0,0,1,,,,,,,,,,,,,
60d13d406f3b34d6791c8831,SCN,2024-06-24_15h09.58.876,LearnStrategy,2023.2.3,MacIntel,120.4819277,3,1,2,-0.083255881,0.418207723,1,0,0,1.2399,Diorite_07,3,07,6,4,1.24,-0.439829362,-0.234749583,1,0,0,2.7144,Andesite_rect,1,2.714,0,1,0,1,0,1,,,,,,,,,,,,,
60d13d406f3b34d6791c8831,SCN,2024-06-24_15h09.58.876,LearnStrategy,2023.2.3,MacIntel,120.4819277,3,1,3,0.416047874,0.389886583,1,0,0,2.2498,Gabbro_05,4,05,6,7,2.25,0.350086493,-0.229569089,1,0,0,2.3629,Gabbro_rect,4,2.363,1,2,0,2,0,1,,,,,,,,,,,,,
60d13d406f3b34d6791c8831,SCN,2024-06-24_15h09.58.876,LearnStrategy,2023.2.3,MacIntel,120.4819277,3,1,4,-0.23668617,0.229105201,1,0,0,2.4826,Gabbro_15,4,15,5,3,2.483,0.123471899,-0.252027546,1,0,0,1.4855,Diorite_rect,3,1.486,0,3,0,3,0,1,,,,,,,,,,,,,
60d13d406f3b34d6791c8831,SCN,2024-06-24_15h09.58.876,LearnStrategy,2023.2.3,MacIntel,120.4819277,3,1,5,0.365309622,0.233537356,1,0,0,1.5908,Andesite_04,1,04,5,7,1.591,-0.385733919,-0.234997652,1,0,0,3.8027,Andesite_rect,1,3.803,1,4,0,4,0,1,,,,,,,,,,,,,
60d13d406f3b34d6791c8831,SCN,2024-06-24_15h09.58.876,LearnStrategy,2023.2.3,MacIntel,120.4819277,3,1,6,0.229558339,0.07842847,1,0,0,2.6336,Pumice_15,8,15,4,6,2.634,0.372929456,-0.404932757,1,0,0,2.181,Pumice_rect,8,2.181,1,5,0,5,0,1,,,,,,,,,,,,,
60d13d406f3b34d6791c8831,SCN,2024-06-24_15h09.58.876,LearnStrategy,2023.2.3,MacIntel,120.4819277,3,1,7,-0.377981782,-0.076391002,1,0,0,1.7736,Andesite_03,1,03,3,2,1.774,-0.35830996,-0.238962611,1,0,0,3.7357,Andesite_rect,1,3.736,1,6,0,6,0,1,,,,,,,,,,,,,
60d13d406f3b34d6791c8831,SCN,2024-06-24_15h09.58.876,LearnStrategy,2023.2.3,MacIntel,120.4819277,3,1,8,-0.375782242,-0.411006298,1,0,0,3.3241,Pegmatite_05,6,05,1,2,3.324,-0.14785702,-0.397221965,1,0,0,0.9995,Pegmatite_rect,6,1,1,7,0,7,0,1,,,,,,,,,,,,,
60d13d406f3b34d6791c8831,SCN,2024-06-24_15h09.58.876,LearnStrategy,2023.2.3,MacIntel,120.4819277,3,1,9,0.085112259,-0.411940689,1,0,0,1.6909,Peridotite_06,7,06,1,5,1.691,-0.134473731,-0.407545744,1,0,0,4.3363,Pegmatite_rect,6,4.336,0,8,0,8,0,1,,,,,,,,,,,,,
60d13d406f3b34d6791c8831,SCN,2024-06-24_15h09.58.876,LearnStrategy,2023.2.3,MacIntel,120.4819277,3,1,10,-0.543373101,-0.094442111,1,0,0,6.7083,Peridotite_12,7,12,3,1,6.708,0.146004776,-0.398247314,1,0,0,3.8037,Peridotite_rect,7,3.804,1,9,0,9,0,1,,,,,,,,,,,,,
60d13d406f3b34d6791c8831,SCN,2024-06-24_15h09.58.876,LearnStrategy,2023.2.3,MacIntel,120.4819277,3,1,11,-0.373508282,0.230994655,1,0,0,1.6242,Pegmatite_10,6,10,5,2,1.624,0.118845424,-0.408285814,1,0,0,1.2875,Peridotite_rect,7,1.288,0,10,0,10,0,1,,,,,,,,,,,,,
60d13d406f3b34d6791c8831,SCN,2024-06-24_15h09.58.876,LearnStrategy,2023.2.3,MacIntel,120.4819277,3,1,12,-0.540859342,0.254772009,1,0,0,1.3325,Pegmatite_15,6,15,5,1,1.332,0.124402155,-0.400058213,1,0,0,1.6295,Peridotite_rect,7,1.63,0,11,0,11,0,1,,,,,,,,,,,,,
60d13d406f3b34d6791c8831,SCN,2024-06-24_15h09.58.876,LearnStrategy,2023.2.3,MacIntel,120.4819277,3,1,13,0.413509308,-0.407392768,1,0,0,2.3916,Gabbro_01,4,01,1,7,2.392,0.095402962,-0.234993517,1,0,0,2.936,Diorite_rect,3,2.936,0,12,0,12,0,1,,,,,,,,,,,,,
60d13d406f3b34d6791c8831,SCN,2024-06-24_15h09.58.876,LearnStrategy,2023.2.3,MacIntel,120.4819277,3,1,14,0.248080778,-0.385087287,1,0,0,3.7333,Basalt_06,2,06,1,6,3.733,-0.140204111,-0.233666351,1,0,0,2.7095,Basalt_rect,2,2.709,1,13,0,13,0,1,,,,,,,,,,,,,
60d13d406f3b34d6791c8831,SCN,2024-06-24_15h09.58.876,LearnStrategy,2023.2.3,MacIntel,120.4819277,3,1,15,-0.399381814,-0.098121792,1,0,0,6.8918,Andesite_03,1,03,3,2,6.892,0.091987888,-0.237172384,1,0,0,3.8316,Diorite_rect,3,3.832,0,14,0,14,0,1,,,,,,,,,,,,,
60d13d406f3b34d6791c8831,SCN,2024-06-24_15h09.58.876,LearnStrategy,2023.2.3,MacIntel,120.4819277,3,1,16,-0.564256324,0.123556242,1,0,0,1.8659,Diorite_02,3,02,4,1,1.866,0.112370839,-0.247859997,1,0,0,1.5613,Diorite_rect,3,1.561,1,15,0,15,0,1,,,,,,,,,,,,,
60d13d406f3b34d6791c8831,SCN,2024-06-24_15h09.58.876,LearnStrategy,2023.2.3,MacIntel,120.4819277,3,2,1,,,,,,,,8,16,,,,,,,,,,,8,6.399,1,,,,,,0.389388793,-0.404601999,1,0,0,6.3992,Pumice_rect,0,0,0,0,1,
60d13d406f3b34d6791c8831,SCN,2024-06-24_15h09.58.876,LearnStrategy,2023.2.3,MacIntel,120.4819277,3,2,2,,,,,,,,5,04,,,,,,,,,,,5,1.442,1,,,,,,-0.380218532,-0.393868907,1,0,0,1.4421,Obsidian_rect,1,0,1,0,1,
60d13d406f3b34d6791c8831,SCN,2024-06-24_15h09.58.876,LearnStrategy,2023.2.3,MacIntel,120.4819277,3,2,3,,,,,,,,8,09,,,,,,,,,,,8,2.587,1,,,,,,0.400365818,-0.406557605,1,0,0,2.5871,Pumice_rect,2,0,2,0,1,
60d13d406f3b34d6791c8831,SCN,2024-06-24_15h09.58.876,LearnStrategy,2023.2.3,MacIntel,120.4819277,3,2,4,,,,,,,,6,07,,,,,,,,,,,6,4.355,1,,,,,,-0.127585699,-0.406193771,1,0,0,4.3554,Pegmatite_rect,3,0,3,0,1,
60d13d406f3b34d6791c8831,SCN,2024-06-24_15h09.58.876,LearnStrategy,2023.2.3,MacIntel,120.4819277,3,2,5,,,,,,,,1,09,,,,,,,,,,,3,3.412,0,,,,,,0.141514739,-0.251258534,1,0,0,3.4125,Diorite_rect,4,0,4,0,1,
60d13d406f3b34d6791c8831,SCN,2024-06-24_15h09.58.876,LearnStrategy,2023.2.3,MacIntel,120.4819277,3,2,6,,,,,,,,2,01,,,,,,,,,,,2,2.052,1,,,,,,-0.130740302,-0.242758057,1,0,0,2.0521,Basalt_rect,5,0,5,0,1,
60d13d406f3b34d6791c8831,SCN,2024-06-24_15h09.58.876,LearnStrategy,2023.2.3,MacIntel,120.4819277,3,2,7,,,,,,,,5,06,,,,,,,,,,,5,1.519,1,,,,,,-0.415547603,-0.404374603,1,0,0,1.5192,Obsidian_rect,6,0,6,0,1,
60d13d406f3b34d6791c8831,SCN,2024-06-24_15h09.58.876,LearnStrategy,2023.2.3,MacIntel,120.4819277,3,2,8,,,,,,,,3,09,,,,,,,,,,,3,1.588,1,,,,,,0.147551069,-0.242266055,1,0,0,1.5882,Diorite_rect,7,0,7,0,1,
60d13d406f3b34d6791c8831,SCN,2024-06-24_15h09.58.876,LearnStrategy,2023.2.3,MacIntel,120.4819277,3,2,9,,,,,,,,7,16,,,,,,,,,,,4,2.404,0,,,,,,0.375062844,-0.24399013,1,0,0,2.4038,Gabbro_rect,8,0,8,0,1,
60d13d406f3b34d6791c8831,SCN,2024-06-24_15h09.58.876,LearnStrategy,2023.2.3,MacIntel,120.4819277,3,2,10,,,,,,,,7,04,,,,,,,,,,,1,5.102,0,,,,,,-0.475720721,-0.237511411,1,0,0,5.1018,Andesite_rect,9,0,9,0,1,
60d13d406f3b34d6791c8831,SCN,2024-06-24_15h09.58.876,LearnStrategy,2023.2.3,MacIntel,120.4819277,3,2,11,,,,,,,,4,10,,,,,,,,,,,2,3.246,0,,,,,,-0.142201061,-0.247442415,1,0,0,3.2461,Basalt_rect,10,0,10,0,1,
60d13d406f3b34d6791c8831,SCN,2024-06-24_15h09.58.876,LearnStrategy,2023.2.3,MacIntel,120.4819277,3,2,12,,,,,,,,2,12,,,,,,,,,,,8,1.169,0,,,,,,0.388115375,-0.394877719,1,0,0,1.1691,Pumice_rect,11,0,11,0,1,
60d13d406f3b34d6791c8831,SCN,2024-06-24_15h09.58.876,LearnStrategy,2023.2.3,MacIntel,120.4819277,3,2,13,,,,,,,,4,14,,,,,,,,,,,4,1.92,1,,,,,,0.400353415,-0.248566992,1,0,0,1.9205,Gabbro_rect,12,0,12,0,1,
60d13d406f3b34d6791c8831,SCN,2024-06-24_15h09.58.876,LearnStrategy,2023.2.3,MacIntel,120.4819277,3,2,14,,,,,,,,3,15,,,,,,,,,,,3,1.535,1,,,,,,0.125865759,-0.243328615,1,0,0,1.5355,Diorite_rect,13,0,13,0,1,
60d13d406f3b34d6791c8831,SCN,2024-06-24_15h09.58.876,LearnStrategy,2023.2.3,MacIntel,120.4819277,3,2,15,,,,,,,,1,06,,,,,,,,,,,1,2.336,1,,,,,,-0.401010796,-0.242113079,1,0,0,2.3362,Andesite_rect,14,0,14,0,1,
60d13d406f3b34d6791c8831,SCN,2024-06-24_15h09.58.876,LearnStrategy,2023.2.3,MacIntel,120.4819277,3,2,16,,,,,,,,6,09,,,,,,,,,,,6,2.566,1,,,,,,-0.104841964,-0.399036999,1,0,0,2.566,Pegmatite_rect,15,0,15,0,1,
60d13d406f3b34d6791c8831,SCN,2024-06-24_15h09.58.876,LearnStrategy,2023.2.3,MacIntel,120.4819277,4,1,1,-0.531254961,0.395224188,1,0,0,1.8451,Obsidian_09,5,09,6,1,1.845,-0.382628929,-0.399264395,1,0,0,1.6225,Obsidian_rect,5,1.622,1,0,0,0,0,1,,,,,,,,,,,,,
60d13d406f3b34d6791c8831,SCN,2024-06-24_15h09.58.876,LearnStrategy,2023.2.3,MacIntel,120.4819277,4,1,2,-0.379217989,0.414151805,1,0,0,1.0067,Andesite_10,1,10,6,2,1.007,0.369535054,-0.245482675,1,0,0,3.3636,Gabbro_rect,4,3.364,0,1,0,1,0,1,,,,,,,,,,,,,
60d13d406f3b34d6791c8831,SCN,2024-06-24_15h09.58.876,LearnStrategy,2023.2.3,MacIntel,120.4819277,4,1,3,-0.201824295,0.397270752,1,0,0,1.0409,Pumice_04,8,04,6,3,1.041,0.397124391,-0.406173099,1,0,0,0.8698,Pumice_rect,8,0.87,1,2,0,2,0,1,,,,,,,,,,,,,
60d13d406f3b34d6791c8831,SCN,2024-06-24_15h09.58.876,LearnStrategy,2023.2.3,MacIntel,120.4819277,4,1,4,-0.075210197,0.395935317,1,0,0,1.1827,Diorite_07,3,07,6,4,1.183,0.155605022,-0.259961599,1,0,0,1.0378,Diorite_rect,3,1.038,1,3,0,3,0,1,,,,,,,,,,,,,
60d13d406f3b34d6791c8831,SCN,2024-06-24_15h09.58.876,LearnStrategy,2023.2.3,MacIntel,120.4819277,4,1,5,0.402333827,0.41325049,1,0,0,1.7415,Gabbro_05,4,05,6,7,1.742,0.372404378,-0.246321973,1,0,0,1.7959,Gabbro_rect,4,1.796,1,4,0,4,0,1,,,,,,,,,,,,,
60d13d406f3b34d6791c8831,SCN,2024-06-24_15h09.58.876,LearnStrategy,2023.2.3,MacIntel,120.4819277,4,1,6,-0.567919467,0.241752553,1,0,0,2.6069,Pegmatite_15,6,15,5,1,2.607,-0.152760505,-0.403547709,1,0,0,1.5963,Pegmatite_rect,6,1.596,1,5,0,5,0,1,,,,,,,,,,,,,
60d13d406f3b34d6791c8831,SCN,2024-06-24_15h09.58.876,LearnStrategy,2023.2.3,MacIntel,120.4819277,4,1,7,-0.343004141,0.227087578,1,0,0,0.874,Pegmatite_10,6,10,5,2,0.874,-0.100649608,-0.383665028,1,0,0,1.3206,Pegmatite_rect,6,1.321,1,6,0,6,0,1,,,,,,,,,,,,,
60d13d406f3b34d6791c8831,SCN,2024-06-24_15h09.58.876,LearnStrategy,2023.2.3,MacIntel,120.4819277,4,1,8,-0.238964265,0.235108455,1,0,0,1.0069,Gabbro_15,4,15,5,3,1.007,0.132431302,-0.25175467,1,0,0,1.5312,Diorite_rect,3,1.531,0,7,0,7,0,1,,,,,,,,,,,,,
60d13d406f3b34d6791c8831,SCN,2024-06-24_15h09.58.876,LearnStrategy,2023.2.3,MacIntel,120.4819277,4,1,9,-0.074664446,0.249442673,1,0,0,1.1917,Diorite_11,3,11,5,4,1.192,0.120032017,-0.250299336,1,0,0,1.7688,Diorite_rect,3,1.769,1,8,0,8,0,1,,,,,,,,,,,,,
60d13d406f3b34d6791c8831,SCN,2024-06-24_15h09.58.876,LearnStrategy,2023.2.3,MacIntel,120.4819277,4,1,10,-0.222418104,0.230341408,1,0,0,1.4402,Gabbro_15,4,15,5,3,1.44,-0.3271319,-0.264133282,1,0,0,3.4528,Andesite_rect,1,3.453,0,9,0,9,0,1,,,,,,,,,,,,,
60d13d406f3b34d6791c8831,SCN,2024-06-24_15h09.58.876,LearnStrategy,2023.2.3,MacIntel,120.4819277,4,1,11,0.241775706,0.231867029,1,0,0,1.8087,Diorite_10,3,10,5,6,1.809,0.121334376,-0.258878367,1,0,0,1.043,Diorite_rect,3,1.043,1,10,0,10,0,1,,,,,,,,,,,,,
60d13d406f3b34d6791c8831,SCN,2024-06-24_15h09.58.876,LearnStrategy,2023.2.3,MacIntel,120.4819277,4,1,12,0.397000357,0.251179152,1,0,0,1.2332,Andesite_04,1,04,5,7,1.233,-0.353526375,-0.251853898,1,0,0,2.1598,Andesite_rect,1,2.16,1,11,0,11,0,1,,,,,,,,,,,,,
60d13d406f3b34d6791c8831,SCN,2024-06-24_15h09.58.876,LearnStrategy,2023.2.3,MacIntel,120.4819277,4,1,13,-0.227350531,0.093035563,1,0,0,3.0744,Andesite_05,1,05,4,3,3.074,-0.339080526,-0.247434146,1,0,0,11.6184,Andesite_rect,1,11.618,1,12,0,12,0,1,,,,,,,,,,,,,
60d13d406f3b34d6791c8831,SCN,2024-06-24_15h09.58.876,LearnStrategy,2023.2.3,MacIntel,120.4819277,4,1,14,-0.062579382,-0.259837565,1,0,0,1.3324,Basalt_16,2,16,2,4,1.332,-0.113288692,-0.244263005,1,0,0,4.4607,Basalt_rect,2,4.461,1,13,0,13,0,1,,,,,,,,,,,,,
60d13d406f3b34d6791c8831,SCN,2024-06-24_15h09.58.876,LearnStrategy,2023.2.3,MacIntel,120.4819277,4,1,15,0.231646248,-0.260941469,1,0,0,1.3815,Basalt_02,2,02,2,6,1.381,-0.134965733,-0.238189465,1,0,0,1.106,Basalt_rect,2,1.106,1,14,0,14,0,1,,,,,,,,,,,,,
60d13d406f3b34d6791c8831,SCN,2024-06-24_15h09.58.876,LearnStrategy,2023.2.3,MacIntel,120.4819277,4,1,16,0.410706135,-0.258026666,1,0,0,1.565,Gabbro_12,4,12,2,7,1.565,0.384319929,-0.240500635,1,0,0,1.5476,Gabbro_rect,4,1.548,1,15,0,15,0,1,,,,,,,,,,,,,
60d13d406f3b34d6791c8831,SCN,2024-06-24_15h09.58.876,LearnStrategy,2023.2.3,MacIntel,120.4819277,4,2,1,,,,,,,,7,13,,,,,,,,,,,6,5.39,0,,,,,,-0.125803742,-0.39730052,1,0,0,5.3898,Pegmatite_rect,0,0,0,0,1,
60d13d406f3b34d6791c8831,SCN,2024-06-24_15h09.58.876,LearnStrategy,2023.2.3,MacIntel,120.4819277,4,2,2,,,,,,,,6,07,,,,,,,,,,,6,2.32,1,,,,,,-0.149605902,-0.404903816,1,0,0,2.3198,Pegmatite_rect,1,0,1,0,1,
60d13d406f3b34d6791c8831,SCN,2024-06-24_15h09.58.876,LearnStrategy,2023.2.3,MacIntel,120.4819277,4,2,3,,,,,,,,6,11,,,,,,,,,,,6,1.563,1,,,,,,-0.133948653,-0.416232271,1,0,0,1.563,Pegmatite_rect,2,0,2,0,1,
60d13d406f3b34d6791c8831,SCN,2024-06-24_15h09.58.876,LearnStrategy,2023.2.3,MacIntel,120.4819277,4,2,4,,,,,,,,1,14,,,,,,,,,,,3,4.411,0,,,,,,0.160686289,-0.238086103,1,0,0,4.4114,Diorite_rect,3,0,3,0,1,
60d13d406f3b34d6791c8831,SCN,2024-06-24_15h09.58.876,LearnStrategy,2023.2.3,MacIntel,120.4819277,4,2,5,,,,,,,,2,04,,,,,,,,,,,2,2.183,1,,,,,,-0.127639448,-0.242683637,1,0,0,2.1826,Basalt_rect,4,0,4,0,1,
60d13d406f3b34d6791c8831,SCN,2024-06-24_15h09.58.876,LearnStrategy,2023.2.3,MacIntel,120.4819277,4,2,6,,,,,,,,5,04,,,,,,,,,,,5,1.222,1,,,,,,-0.37670423,-0.394406389,1,0,0,1.2221,Obsidian_rect,5,0,5,0,1,
60d13d406f3b34d6791c8831,SCN,2024-06-24_15h09.58.876,LearnStrategy,2023.2.3,MacIntel,120.4819277,4,2,7,,,,,,,,3,13,,,,,,,,,,,3,1.296,1,,,,,,0.12510915,-0.256215767,1,0,0,1.2963,Diorite_rect,6,0,6,0,1,
60d13d406f3b34d6791c8831,SCN,2024-06-24_15h09.58.876,LearnStrategy,2023.2.3,MacIntel,120.4819277,4,2,8,,,,,,,,8,10,,,,,,,,,,,8,1.096,1,,,,,,0.373086566,-0.383375615,1,0,0,1.0955,Pumice_rect,7,0,7,0,1,
60d13d406f3b34d6791c8831,SCN,2024-06-24_15h09.58.876,LearnStrategy,2023.2.3,MacIntel,120.4819277,4,2,9,,,,,,,,8,09,,,,,,,,,,,8,1.012,1,,,,,,0.368873538,-0.391764461,1,0,0,1.012,Pumice_rect,8,0,8,0,1,
60d13d406f3b34d6791c8831,SCN,2024-06-24_15h09.58.876,LearnStrategy,2023.2.3,MacIntel,120.4819277,4,2,10,,,,,,,,4,16,,,,,,,,,,,4,3.236,1,,,,,,0.399634016,-0.253668931,1,0,0,3.2362,Gabbro_rect,9,0,9,0,1,
60d13d406f3b34d6791c8831,SCN,2024-06-24_15h09.58.876,LearnStrategy,2023.2.3,MacIntel,120.4819277,4,2,11,,,,,,,,3,09,,,,,,,,,,,3,1.229,1,,,,,,0.118489859,-0.240025171,1,0,0,1.2292,Diorite_rect,10,0,10,0,1,
60d13d406f3b34d6791c8831,SCN,2024-06-24_15h09.58.876,LearnStrategy,2023.2.3,MacIntel,120.4819277,4,2,12,,,,,,,,7,15,,,,,,,,,,,7,2.061,1,,,,,,0.130318586,-0.395646731,1,0,0,2.0607,Peridotite_rect,11,0,11,0,1,
60d13d406f3b34d6791c8831,SCN,2024-06-24_15h09.58.876,LearnStrategy,2023.2.3,MacIntel,120.4819277,4,2,13,,,,,,,,4,03,,,,,,,,,,,4,3.395,1,,,,,,0.394594094,-0.249067263,1,0,0,3.3948,Gabbro_rect,12,0,12,0,1,
60d13d406f3b34d6791c8831,SCN,2024-06-24_15h09.58.876,LearnStrategy,2023.2.3,MacIntel,120.4819277,4,2,14,,,,,,,,1,07,,,,,,,,,,,1,3.311,1,,,,,,-0.369336599,-0.239624127,1,0,0,3.3106,Andesite_rect,13,0,13,0,1,
60d13d406f3b34d6791c8831,SCN,2024-06-24_15h09.58.876,LearnStrategy,2023.2.3,MacIntel,120.4819277,4,2,15,,,,,,,,5,06,,,,,,,,,,,5,1.504,1,,,,,,-0.406385611,-0.409914797,1,0,0,1.5037,Obsidian_rect,14,0,14,0,1,
60d13d406f3b34d6791c8831,SCN,2024-06-24_15h09.58.876,LearnStrategy,2023.2.3,MacIntel,120.4819277,4,2,16,,,,,,,,2,08,,,,,,,,,,,2,1.953,1,,,,,,-0.148907176,-0.254810046,1,0,0,1.9528,Basalt_rect,15,0,15,0,1,
60d13d406f3b34d6791c8831,SCN,2024-06-24_15h09.58.876,LearnStrategy,2023.2.3,MacIntel,120.4819277,5,1,1,-0.214351748,0.391416338,1,0,0,4.2021,Pumice_04,8,04,6,3,4.202,0.357429317,-0.395911337,1,0,0,1.1967,Pumice_rect,8,1.197,1,0,0,0,0,1,,,,,,,,,,,,,
60d13d406f3b34d6791c8831,SCN,2024-06-24_15h09.58.876,LearnStrategy,2023.2.3,MacIntel,120.4819277,5,1,2,-0.378039664,0.398883196,1,0,0,1.0247,Andesite_10,1,10,6,2,1.025,-0.397033433,-0.243671776,1,0,0,2.4542,Andesite_rect,1,2.454,1,1,0,1,0,1,,,,,,,,,,,,,
60d13d406f3b34d6791c8831,SCN,2024-06-24_15h09.58.876,LearnStrategy,2023.2.3,MacIntel,120.4819277,5,1,3,-0.562478501,0.407023973,1,0,0,0.7905,Obsidian_09,5,09,6,1,0.79,-0.408142762,-0.38698501,1,0,0,1.4301,Obsidian_rect,5,1.43,1,2,0,2,0,1,,,,,,,,,,,,,
60d13d406f3b34d6791c8831,SCN,2024-06-24_15h09.58.876,LearnStrategy,2023.2.3,MacIntel,120.4819277,5,1,4,-0.079034584,0.384610996,1,0,0,1.3167,Diorite_07,3,07,6,4,1.317,0.120337968,-0.262454686,1,0,0,2.1312,Diorite_rect,3,2.131,1,3,0,3,0,1,,,,,,,,,,,,,
60d13d406f3b34d6791c8831,SCN,2024-06-24_15h09.58.876,LearnStrategy,2023.2.3,MacIntel,120.4819277,5,1,5,0.406815596,0.40830566,1,0,0,1.5074,Gabbro_05,4,05,6,7,1.507,0.407402691,-0.238846846,1,0,0,1.427,Gabbro_rect,4,1.427,1,4,0,4,0,1,,,,,,,,,,,,,
60d13d406f3b34d6791c8831,SCN,2024-06-24_15h09.58.876,LearnStrategy,2023.2.3,MacIntel,120.4819277,5,1,6,-0.56044434,0.24625086,1,0,0,2.0332,Pegmatite_15,6,15,5,1,2.033,-0.146099869,-0.410104983,1,0,0,1.9804,Pegmatite_rect,6,1.98,1,5,0,5,0,1,,,,,,,,,,,,,
60d13d406f3b34d6791c8831,SCN,2024-06-24_15h09.58.876,LearnStrategy,2023.2.3,MacIntel,120.4819277,5,1,7,-0.394164109,0.240007806,1,0,0,0.8492,Pegmatite_10,6,10,5,2,0.849,-0.128710276,-0.412151547,1,0,0,1.3463,Pegmatite_rect,6,1.346,1,6,0,6,0,1,,,,,,,,,,,,,
60d13d406f3b34d6791c8831,SCN,2024-06-24_15h09.58.876,LearnStrategy,2023.2.3,MacIntel,120.4819277,5,1,8,-0.231125304,0.229489707,1,0,0,1.6495,Gabbro_15,4,15,5,3,1.649,0.359157527,-0.255033307,1,0,0,2.7195,Gabbro_rect,4,2.719,1,7,0,7,0,1,,,,,,,,,,,,,
60d13d406f3b34d6791c8831,SCN,2024-06-24_15h09.58.876,LearnStrategy,2023.2.3,MacIntel,120.4819277,5,1,9,-0.075776619,0.242389262,1,0,0,1.466,Diorite_11,3,11,5,4,1.466,0.147249252,-0.255058114,1,0,0,1.0686,Diorite_rect,3,1.069,1,8,0,8,0,1,,,,,,,,,,,,,
60d13d406f3b34d6791c8831,SCN,2024-06-24_15h09.58.876,LearnStrategy,2023.2.3,MacIntel,120.4819277,5,1,10,0.088262728,0.243464225,1,0,0,1.2259,Pumice_13,8,13,5,5,1.226,0.408829084,-0.412172219,1,0,0,2.4106,Pumice_rect,8,2.411,1,9,0,9,0,1,,,,,,,,,,,,,
60d13d406f3b34d6791c8831,SCN,2024-06-24_15h09.58.876,LearnStrategy,2023.2.3,MacIntel,120.4819277,5,1,11,0.390141267,0.232739403,1,0,0,1.3078,Andesite_04,1,04,5,7,1.308,-0.408725722,-0.248600067,1,0,0,1.4365,Andesite_rect,1,1.436,1,10,0,10,0,1,,,,,,,,,,,,,
60d13d406f3b34d6791c8831,SCN,2024-06-24_15h09.58.876,LearnStrategy,2023.2.3,MacIntel,120.4819277,5,1,12,0.547768046,0.109693354,1,0,0,1.508,Peridotite_05,7,05,4,8,1.508,-0.371536139,-0.247922014,1,0,0,4.3597,Andesite_rect,1,4.36,0,11,0,11,0,1,,,,,,,,,,,,,
60d13d406f3b34d6791c8831,SCN,2024-06-24_15h09.58.876,LearnStrategy,2023.2.3,MacIntel,120.4819277,5,1,13,0.099330712,-0.085801062,1,0,0,4.5494,Peridotite_08,7,08,3,5,4.549,0.18311167,-0.412957769,1,0,0,1.5187,Peridotite_rect,7,1.519,1,12,0,12,0,1,,,,,,,,,,,,,
60d13d406f3b34d6791c8831,SCN,2024-06-24_15h09.58.876,LearnStrategy,2023.2.3,MacIntel,120.4819277,5,1,14,-0.217535292,-0.419556388,1,0,0,1.7077,Pegmatite_06,6,06,1,3,1.708,-0.149738205,-0.407822753,1,0,0,1.3039,Pegmatite_rect,6,1.304,1,13,0,13,0,1,,,,,,,,,,,,,
60d13d406f3b34d6791c8831,SCN,2024-06-24_15h09.58.876,LearnStrategy,2023.2.3,MacIntel,120.4819277,5,1,15,-0.248097316,-0.250369622,1,0,0,2.14,Peridotite_14,7,14,2,3,2.14,0.099694545,-0.412213564,1,0,0,2.0374,Peridotite_rect,7,2.037,1,14,0,14,0,1,,,,,,,,,,,,,
60d13d406f3b34d6791c8831,SCN,2024-06-24_15h09.58.876,LearnStrategy,2023.2.3,MacIntel,120.4819277,5,1,16,-0.560985956,-0.254239489,1,0,0,1.4077,Pegmatite_13,6,13,2,1,1.408,-0.120883719,-0.389250701,1,0,0,1.0844,Pegmatite_rect,6,1.084,1,15,0,15,0,1,,,,,,,,,,,,,
60d13d406f3b34d6791c8831,SCN,2024-06-24_15h09.58.876,LearnStrategy,2023.2.3,MacIntel,120.4819277,5,2,1,,,,,,,,5,05,,,,,,,,,,,5,2.475,1,,,,,,-0.428980505,-0.405366877,1,0,0,2.4753,Obsidian_rect,0,0,0,0,1,
60d13d406f3b34d6791c8831,SCN,2024-06-24_15h09.58.876,LearnStrategy,2023.2.3,MacIntel,120.4819277,5,2,2,,,,,,,,4,14,,,,,,,,,,,4,2.872,1,,,,,,0.369911291,-0.254165068,1,0,0,2.8717,Gabbro_rect,1,0,1,0,1,
60d13d406f3b34d6791c8831,SCN,2024-06-24_15h09.58.876,LearnStrategy,2023.2.3,MacIntel,120.4819277,5,2,3,,,,,,,,1,11,,,,,,,,,,,1,1.757,1,,,,,,-0.412475689,-0.244866638,1,0,0,1.7571,Andesite_rect,2,0,2,0,1,
60d13d406f3b34d6791c8831,SCN,2024-06-24_15h09.58.876,LearnStrategy,2023.2.3,MacIntel,120.4819277,5,2,4,,,,,,,,4,09,,,,,,,,,,,2,6.329,0,,,,,,-0.154608614,-0.249393886,1,0,0,6.3286,Basalt_rect,3,0,3,0,1,
60d13d406f3b34d6791c8831,SCN,2024-06-24_15h09.58.876,LearnStrategy,2023.2.3,MacIntel,120.4819277,5,2,5,,,,,,,,8,16,,,,,,,,,,,8,1.111,1,,,,,,0.35324523,-0.408901851,1,0,0,1.1108,Pumice_rect,4,0,4,0,1,
60d13d406f3b34d6791c8831,SCN,2024-06-24_15h09.58.876,LearnStrategy,2023.2.3,MacIntel,120.4819277,5,2,6,,,,,,,,2,01,,,,,,,,,,,2,2.437,1,,,,,,-0.110894832,-0.248327192,1,0,0,2.4372,Basalt_rect,5,0,5,0,1,
60d13d406f3b34d6791c8831,SCN,2024-06-24_15h09.58.876,LearnStrategy,2023.2.3,MacIntel,120.4819277,5,2,7,,,,,,,,6,12,,,,,,,,,,,3,2.174,0,,,,,,0.156006066,-0.25352009,1,0,0,2.1737,Diorite_rect,6,0,6,0,1,
60d13d406f3b34d6791c8831,SCN,2024-06-24_15h09.58.876,LearnStrategy,2023.2.3,MacIntel,120.4819277,5,2,8,,,,,,,,3,12,,,,,,,,,,,3,1.94,1,,,,,,0.137165273,-0.238065431,1,0,0,1.9399,Diorite_rect,7,0,7,0,1,
60d13d406f3b34d6791c8831,SCN,2024-06-24_15h09.58.876,LearnStrategy,2023.2.3,MacIntel,120.4819277,5,2,9,,,,,,,,8,02,,,,,,,,,,,8,1.146,1,,,,,,0.379891908,-0.405391683,1,0,0,1.1465,Pumice_rect,8,0,8,0,1,
60d13d406f3b34d6791c8831,SCN,2024-06-24_15h09.58.876,LearnStrategy,2023.2.3,MacIntel,120.4819277,5,2,10,,,,,,,,1,09,,,,,,,,,,,1,2.165,1,,,,,,-0.401428378,-0.242071735,1,0,0,2.1649,Andesite_rect,9,0,9,0,1,
60d13d406f3b34d6791c8831,SCN,2024-06-24_15h09.58.876,LearnStrategy,2023.2.3,MacIntel,120.4819277,5,2,11,,,,,,,,7,04,,,,,,,,,,,6,9.439,0,,,,,,-0.141411377,-0.400269071,1,0,0,9.439,Pegmatite_rect,10,0,10,0,1,
60d13d406f3b34d6791c8831,SCN,2024-06-24_15h09.58.876,LearnStrategy,2023.2.3,MacIntel,120.4819277,5,2,12,,,,,,,,2,14,,,,,,,,,,,8,4.528,0,,,,,,0.357983336,-0.393347964,1,0,0,4.5283,Pumice_rect,11,0,11,0,1,
60d13d406f3b34d6791c8831,SCN,2024-06-24_15h09.58.876,LearnStrategy,2023.2.3,MacIntel,120.4819277,5,2,13,,,,,,,,3,16,,,,,,,,,,,3,2.221,1,,,,,,0.130541847,-0.245499213,1,0,0,2.2209,Diorite_rect,12,0,12,0,1,
60d13d406f3b34d6791c8831,SCN,2024-06-24_15h09.58.876,LearnStrategy,2023.2.3,MacIntel,120.4819277,5,2,14,,,,,,,,6,09,,,,,,,,,,,6,2.637,1,,,,,,-0.131550659,-0.389155608,1,0,0,2.6368,Pegmatite_rect,13,0,13,0,1,
60d13d406f3b34d6791c8831,SCN,2024-06-24_15h09.58.876,LearnStrategy,2023.2.3,MacIntel,120.4819277,5,2,15,,,,,,,,5,10,,,,,,,,,,,5,1.37,1,,,,,,-0.37822985,-0.408198991,1,0,0,1.3705,Obsidian_rect,14,0,14,0,1,
60d13d406f3b34d6791c8831,SCN,2024-06-24_15h09.58.876,LearnStrategy,2023.2.3,MacIntel,120.4819277,5,2,16,,,,,,,,7,02,,,,,,,,,,,7,2.312,1,,,,,,0.161302326,-0.405966375,1,0,0,2.3118,Peridotite_rect,15,0,15,0,1,
60d13d406f3b34d6791c8831,SCN,2024-06-24_15h09.58.876,LearnStrategy,2023.2.3,MacIntel,120.4819277,6,1,1,-0.546788176,0.235939485,1,0,0,4.2702,Pegmatite_15,6,15,5,1,4.27,-0.108604334,-0.406094544,1,0,0,1.2232,Pegmatite_rect,6,1.223,1,0,0,0,0,1,,,,,,,,,,,,,
60d13d406f3b34d6791c8831,SCN,2024-06-24_15h09.58.876,LearnStrategy,2023.2.3,MacIntel,120.4819277,6,1,2,-0.548503982,-0.107812996,1,0,0,1.4,Peridotite_12,7,12,3,1,1.4,0.109691701,-0.417989422,1,0,0,2.271,Peridotite_rect,7,2.271,1,1,0,1,0,1,,,,,,,,,,,,,
60d13d406f3b34d6791c8831,SCN,2024-06-24_15h09.58.876,LearnStrategy,2023.2.3,MacIntel,120.4819277,6,1,3,-0.390434814,-0.081716203,1,0,0,0.8405,Andesite_03,1,03,3,2,0.841,-0.386159769,-0.244316754,1,0,0,2.6196,Andesite_rect,1,2.62,1,2,0,2,0,1,,,,,,,,,,,,,
60d13d406f3b34d6791c8831,SCN,2024-06-24_15h09.58.876,LearnStrategy,2023.2.3,MacIntel,120.4819277,6,1,4,-0.198669692,-0.083551909,1,0,0,0.9745,Andesite_16,1,16,3,3,0.975,-0.398761643,-0.247066178,1,0,0,2.651,Andesite_rect,1,2.651,1,3,0,3,0,1,,,,,,,,,,,,,
60d13d406f3b34d6791c8831,SCN,2024-06-24_15h09.58.876,LearnStrategy,2023.2.3,MacIntel,120.4819277,6,1,5,-0.062823316,-0.097414797,1,0,0,1.2404,Diorite_06,3,06,3,4,1.24,0.110026593,-0.249228507,1,0,0,1.1602,Diorite_rect,3,1.16,1,4,0,4,0,1,,,,,,,,,,,,,
60d13d406f3b34d6791c8831,SCN,2024-06-24_15h09.58.876,LearnStrategy,2023.2.3,MacIntel,120.4819277,6,1,6,0.066420307,-0.08150948,1,0,0,0.9261,Peridotite_08,7,08,3,5,0.926,0.113912997,-0.418287104,1,0,0,1.9513,Peridotite_rect,7,1.951,1,5,0,5,0,1,,,,,,,,,,,,,
60d13d406f3b34d6791c8831,SCN,2024-06-24_15h09.58.876,LearnStrategy,2023.2.3,MacIntel,120.4819277,6,1,7,0.249093724,-0.098845324,1,0,0,1.0399,Gabbro_11,4,11,3,6,1.04,0.400403028,-0.242096542,1,0,0,2.5695,Gabbro_rect,4,2.569,1,6,0,6,0,1,,,,,,,,,,,,,
60d13d406f3b34d6791c8831,SCN,2024-06-24_15h09.58.876,LearnStrategy,2023.2.3,MacIntel,120.4819277,6,1,8,0.410437394,-0.100160087,1,0,0,1.0834,Basalt_09,2,09,3,7,1.083,-0.181552974,-0.237503142,1,0,0,1.5693,Basalt_rect,2,1.569,1,7,0,7,0,1,,,,,,,,,,,,,
60d13d406f3b34d6791c8831,SCN,2024-06-24_15h09.58.876,LearnStrategy,2023.2.3,MacIntel,120.4819277,6,1,9,0.551761947,-0.132032738,1,0,0,1.1817,Obsidian_07,5,07,3,8,1.182,-0.388243544,-0.384739991,1,0,0,1.0597,Obsidian_rect,5,1.06,1,8,0,8,0,1,,,,,,,,,,,,,
60d13d406f3b34d6791c8831,SCN,2024-06-24_15h09.58.876,LearnStrategy,2023.2.3,MacIntel,120.4819277,6,1,10,-0.578032388,-0.255504637,1,0,0,1.3737,Pegmatite_13,6,13,2,1,1.374,-0.126461123,-0.395530966,1,0,0,2.3053,Pegmatite_rect,6,2.305,1,9,0,9,0,1,,,,,,,,,,,,,
60d13d406f3b34d6791c8831,SCN,2024-06-24_15h09.58.876,LearnStrategy,2023.2.3,MacIntel,120.4819277,6,1,11,-0.376249438,-0.261747691,1,0,0,0.7156,Peridotite_07,7,07,2,2,0.716,0.123914287,-0.413474578,1,0,0,2.9548,Peridotite_rect,7,2.955,1,10,0,10,0,1,,,,,,,,,,,,,
60d13d406f3b34d6791c8831,SCN,2024-06-24_15h09.58.876,LearnStrategy,2023.2.3,MacIntel,120.4819277,6,1,12,-0.226325181,-0.262979764,1,0,0,1.0654,Peridotite_14,7,14,2,3,1.065,0.092012694,-0.388266697,1,0,0,2.3964,Peridotite_rect,7,2.396,1,11,0,11,0,1,,,,,,,,,,,,,
60d13d406f3b34d6791c8831,SCN,2024-06-24_15h09.58.876,LearnStrategy,2023.2.3,MacIntel,120.4819277,6,1,13,-0.07016614,-0.259469597,1,0,0,1.2412,Basalt_16,2,16,2,4,1.241,0.418908929,-0.235870025,1,0,0,3.9049,Gabbro_rect,4,3.905,0,12,0,12,0,1,,,,,,,,,,,,,
60d13d406f3b34d6791c8831,SCN,2024-06-24_15h09.58.876,LearnStrategy,2023.2.3,MacIntel,120.4819277,6,1,14,0.094956439,-0.24143916,1,0,0,1.0907,Diorite_08,3,08,2,5,1.091,0.12448071,-0.255095324,1,0,0,1.0707,Diorite_rect,3,1.071,1,13,0,13,0,1,,,,,,,,,,,,,
60d13d406f3b34d6791c8831,SCN,2024-06-24_15h09.58.876,LearnStrategy,2023.2.3,MacIntel,120.4819277,6,1,15,0.274115554,-0.288613496,1,0,0,0.8489,Basalt_02,2,02,2,6,0.849,-0.19554403,-0.244916252,1,0,0,1.8559,Basalt_rect,2,1.856,1,14,0,14,0,1,,,,,,,,,,,,,
60d13d406f3b34d6791c8831,SCN,2024-06-24_15h09.58.876,LearnStrategy,2023.2.3,MacIntel,120.4819277,6,1,16,0.365553556,-0.247864131,1,0,0,1.39,Gabbro_12,4,12,2,7,1.39,0.351252415,-0.247119926,1,0,0,3.5716,Gabbro_rect,4,3.572,1,15,0,15,0,1,,,,,,,,,,,,,
60d13d406f3b34d6791c8831,SCN,2024-06-24_15h09.58.876,LearnStrategy,2023.2.3,MacIntel,120.4819277,6,2,1,,,,,,,,2,12,,,,,,,,,,,8,4.561,0,,,,,,0.374823045,-0.397147544,1,0,0,4.5613,Pumice_rect,0,0,0,0,1,
60d13d406f3b34d6791c8831,SCN,2024-06-24_15h09.58.876,LearnStrategy,2023.2.3,MacIntel,120.4819277,6,2,2,,,,,,,,4,10,,,,,,,,,,,4,3.729,1,,,,,,0.387553087,-0.23924789,1,0,0,3.729,Gabbro_rect,1,0,1,0,1,
60d13d406f3b34d6791c8831,SCN,2024-06-24_15h09.58.876,LearnStrategy,2023.2.3,MacIntel,120.4819277,6,2,3,,,,,,,,6,16,,,,,,,,,,,6,2.387,1,,,,,,-0.168086996,-0.399189974,1,0,0,2.3865,Pegmatite_rect,2,0,2,0,1,
60d13d406f3b34d6791c8831,SCN,2024-06-24_15h09.58.876,LearnStrategy,2023.2.3,MacIntel,120.4819277,6,2,4,,,,,,,,5,16,,,,,,,,,,,5,1.02,1,,,,,,-0.391389877,-0.420643754,1,0,0,1.0202,Obsidian_rect,3,0,3,0,1,
60d13d406f3b34d6791c8831,SCN,2024-06-24_15h09.58.876,LearnStrategy,2023.2.3,MacIntel,120.4819277,6,2,5,,,,,,,,2,05,,,,,,,,,,,2,1.53,1,,,,,,-0.098185463,-0.242377686,1,0,0,1.5295,Basalt_rect,4,0,4,0,1,
60d13d406f3b34d6791c8831,SCN,2024-06-24_15h09.58.876,LearnStrategy,2023.2.3,MacIntel,120.4819277,6,2,6,,,,,,,,1,01,,,,,,,,,,,4,3.57,0,,,,,,0.373748082,-0.251729863,1,0,0,3.57,Gabbro_rect,5,0,5,0,1,
60d13d406f3b34d6791c8831,SCN,2024-06-24_15h09.58.876,LearnStrategy,2023.2.3,MacIntel,120.4819277,6,2,7,,,,,,,,1,06,,,,,,,,,,,1,3.337,1,,,,,,-0.361609269,-0.247161271,1,0,0,3.337,Andesite_rect,6,0,6,0,1,
60d13d406f3b34d6791c8831,SCN,2024-06-24_15h09.58.876,LearnStrategy,2023.2.3,MacIntel,120.4819277,6,2,8,,,,,,,,3,14,,,,,,,,,,,3,1.427,1,,,,,,0.176256714,-0.249356676,1,0,0,1.4269,Diorite_rect,7,0,7,0,1,
60d13d406f3b34d6791c8831,SCN,2024-06-24_15h09.58.876,LearnStrategy,2023.2.3,MacIntel,120.4819277,6,2,9,,,,,,,,6,03,,,,,,,,,,,6,3.56,1,,,,,,-0.140001521,-0.392169639,1,0,0,3.5601,Pegmatite_rect,8,0,8,0,1,
60d13d406f3b34d6791c8831,SCN,2024-06-24_15h09.58.876,LearnStrategy,2023.2.3,MacIntel,120.4819277,6,2,10,,,,,,,,7,16,,,,,,,,,,,4,4.979,0,,,,,,0.370915968,-0.244325022,1,0,0,4.9787,Gabbro_rect,9,0,9,0,1,
60d13d406f3b34d6791c8831,SCN,2024-06-24_15h09.58.876,LearnStrategy,2023.2.3,MacIntel,120.4819277,6,2,11,,,,,,,,4,13,,,,,,,,,,,4,6.717,1,,,,,,0.341552941,-0.257989455,1,0,0,6.7175,Gabbro_rect,10,0,10,0,1,
60d13d406f3b34d6791c8831,SCN,2024-06-24_15h09.58.876,LearnStrategy,2023.2.3,MacIntel,120.4819277,6,2,12,,,,,,,,8,05,,,,,,,,,,,8,1.186,1,,,,,,0.319499663,-0.385438717,1,0,0,1.1859,Pumice_rect,11,0,11,0,1,
60d13d406f3b34d6791c8831,SCN,2024-06-24_15h09.58.876,LearnStrategy,2023.2.3,MacIntel,120.4819277,6,2,13,,,,,,,,5,14,,,,,,,,,,,5,1.207,1,,,,,,-0.402747275,-0.393471998,1,0,0,1.2066,Obsidian_rect,12,0,12,0,1,
60d13d406f3b34d6791c8831,SCN,2024-06-24_15h09.58.876,LearnStrategy,2023.2.3,MacIntel,120.4819277,6,2,14,,,,,,,,3,15,,,,,,,,,,,3,1.487,1,,,,,,0.164349432,-0.260031885,1,0,0,1.4869,Diorite_rect,13,0,13,0,1,
60d13d406f3b34d6791c8831,SCN,2024-06-24_15h09.58.876,LearnStrategy,2023.2.3,MacIntel,120.4819277,6,2,15,,,,,,,,7,10,,,,,,,,,,,7,2.083,1,,,,,,0.102026388,-0.392698852,1,0,0,2.0833,Peridotite_rect,14,0,14,0,1,
60d13d406f3b34d6791c8831,SCN,2024-06-24_15h09.58.876,LearnStrategy,2023.2.3,MacIntel,120.4819277,6,2,16,,,,,,,,8,14,,,,,,,,,,,8,3.12,1,,,,,,0.382690946,-0.417038494,1,0,0,3.1198,Pumice_rect,15,0,15,0,1,
60d13d406f3b34d6791c8831,SCN,2024-06-24_15h09.58.876,LearnStrategy,2023.2.3,MacIntel,120.4819277,7,1,1,-0.544493544,0.411865441,1,0,0,2.6041,Obsidian_09,5,09,6,1,2.604,-0.400233515,-0.412469901,1,0,0,1.1634,Obsidian_rect,5,1.163,1,0,0,0,0,1,,,,,,,,,,,,,
60d13d406f3b34d6791c8831,SCN,2024-06-24_15h09.58.876,LearnStrategy,2023.2.3,MacIntel,120.4819277,7,1,2,-0.383009301,0.414122863,1,0,0,0.9994,Andesite_10,1,10,6,2,0.999,-0.382124524,-0.256517583,1,0,0,2.2786,Andesite_rect,1,2.279,1,1,0,1,0,1,,,,,,,,,,,,,
60d13d406f3b34d6791c8831,SCN,2024-06-24_15h09.58.876,LearnStrategy,2023.2.3,MacIntel,120.4819277,7,1,3,-0.21735751,0.411179119,1,0,0,1.0162,Pumice_04,8,04,6,3,1.016,0.42333695,-0.395741824,1,0,0,1.1123,Pumice_rect,8,1.112,1,2,0,2,0,1,,,,,,,,,,,,,
60d13d406f3b34d6791c8831,SCN,2024-06-24_15h09.58.876,LearnStrategy,2023.2.3,MacIntel,120.4819277,7,1,4,-0.090329964,0.389692263,1,0,0,1.6396,Diorite_07,3,07,6,4,1.64,0.156613834,-0.248600067,1,0,0,1.8974,Diorite_rect,3,1.897,1,3,0,3,0,1,,,,,,,,,,,,,
60d13d406f3b34d6791c8831,SCN,2024-06-24_15h09.58.876,LearnStrategy,2023.2.3,MacIntel,120.4819277,7,1,5,0.077409736,0.427241546,1,0,0,1.1988,Obsidian_11,5,11,6,5,1.199,-0.381694539,-0.386869245,1,0,0,0.9934,Obsidian_rect,5,0.993,1,4,0,4,0,1,,,,,,,,,,,,,
60d13d406f3b34d6791c8831,SCN,2024-06-24_15h09.58.876,LearnStrategy,2023.2.3,MacIntel,120.4819277,7,1,6,0.237876899,0.401847613,1,0,0,0.7906,Obsidian_12,5,12,6,6,0.791,-0.392890691,-0.381684616,1,0,0,0.9884,Obsidian_rect,5,0.988,1,5,0,5,0,1,,,,,,,,,,,,,
60d13d406f3b34d6791c8831,SCN,2024-06-24_15h09.58.876,LearnStrategy,2023.2.3,MacIntel,120.4819277,7,1,7,0.395573964,0.390258686,1,0,0,1.0331,Gabbro_05,4,05,6,7,1.033,0.38576286,-0.234220371,1,0,0,2.069,Gabbro_rect,4,2.069,1,6,0,6,0,1,,,,,,,,,,,,,
60d13d406f3b34d6791c8831,SCN,2024-06-24_15h09.58.876,LearnStrategy,2023.2.3,MacIntel,120.4819277,7,1,8,0.578660828,0.412841177,1,0,0,1.5328,Pumice_06,8,06,6,8,1.533,0.375174475,-0.40027734,1,0,0,2.4847,Pumice_rect,8,2.485,1,7,0,7,0,1,,,,,,,,,,,,,
60d13d406f3b34d6791c8831,SCN,2024-06-24_15h09.58.876,LearnStrategy,2023.2.3,MacIntel,120.4819277,7,1,9,-0.538101648,0.236977237,1,0,0,1.1578,Pegmatite_15,6,15,5,1,1.158,-0.115649476,-0.406900766,1,0,0,0.9632,Pegmatite_rect,6,0.963,1,8,0,8,0,1,,,,,,,,,,,,,
60d13d406f3b34d6791c8831,SCN,2024-06-24_15h09.58.876,LearnStrategy,2023.2.3,MacIntel,120.4819277,7,1,10,-0.381876455,0.223234249,1,0,0,0.8322,Pegmatite_10,6,10,5,2,0.832,-0.117228845,-0.411564451,1,0,0,1.0122,Pegmatite_rect,6,1.012,1,9,0,9,0,1,,,,,,,,,,,,,
60d13d406f3b34d6791c8831,SCN,2024-06-24_15h09.58.876,LearnStrategy,2023.2.3,MacIntel,120.4819277,7,1,11,-0.204553047,0.227641597,1,0,0,0.9913,Gabbro_15,4,15,5,3,0.991,0.371676711,-0.238102641,1,0,0,4.8786,Gabbro_rect,4,4.879,1,10,0,10,0,1,,,,,,,,,,,,,
60d13d406f3b34d6791c8831,SCN,2024-06-24_15h09.58.876,LearnStrategy,2023.2.3,MacIntel,120.4819277,7,1,12,-0.083280688,0.235331717,1,0,0,1.2486,Diorite_11,3,11,5,4,1.249,0.095589014,-0.250630094,1,0,0,1.8126,Diorite_rect,3,1.813,1,11,0,11,0,1,,,,,,,,,,,,,
60d13d406f3b34d6791c8831,SCN,2024-06-24_15h09.58.876,LearnStrategy,2023.2.3,MacIntel,120.4819277,7,1,13,0.103882766,0.2495419,1,0,0,0.9743,Pumice_13,8,13,5,5,0.974,0.333647829,-0.393211526,1,0,0,1.3635,Pumice_rect,8,1.363,1,12,0,12,0,1,,,,,,,,,,,,,
60d13d406f3b34d6791c8831,SCN,2024-06-24_15h09.58.876,LearnStrategy,2023.2.3,MacIntel,120.4819277,7,1,14,0.232799766,0.243121064,1,0,0,1.2905,Diorite_10,3,10,5,6,1.291,0.107831188,-0.235998194,1,0,0,1.1962,Diorite_rect,3,1.196,1,13,0,13,0,1,,,,,,,,,,,,,
60d13d406f3b34d6791c8831,SCN,2024-06-24_15h09.58.876,LearnStrategy,2023.2.3,MacIntel,120.4819277,7,1,15,0.387586162,0.246833821,1,0,0,1.0576,Andesite_04,1,04,5,7,1.058,-0.41337287,-0.229101893,1,0,0,1.6124,Andesite_rect,1,1.612,1,14,0,14,0,1,,,,,,,,,,,,,
60d13d406f3b34d6791c8831,SCN,2024-06-24_15h09.58.876,LearnStrategy,2023.2.3,MacIntel,120.4819277,7,1,16,0.562883679,0.225772816,1,0,0,1.3909,Obsidian_02,5,02,5,8,1.391,-0.384373677,-0.40549918,1,0,0,1.4551,Obsidian_rect,5,1.455,1,15,0,15,0,1,,,,,,,,,,,,,
60d13d406f3b34d6791c8831,SCN,2024-06-24_15h09.58.876,LearnStrategy,2023.2.3,MacIntel,120.4819277,7,2,1,,,,,,,,7,04,,,,,,,,,,,6,5.249,0,,,,,,-0.121508024,-0.418741896,1,0,0,5.2489,Pegmatite_rect,0,0,0,0,1,
60d13d406f3b34d6791c8831,SCN,2024-06-24_15h09.58.876,LearnStrategy,2023.2.3,MacIntel,120.4819277,7,2,2,,,,,,,,1,06,,,,,,,,,,,1,2.254,1,,,,,,-0.354014242,-0.244854235,1,0,0,2.2536,Andesite_rect,1,0,1,0,1,
60d13d406f3b34d6791c8831,SCN,2024-06-24_15h09.58.876,LearnStrategy,2023.2.3,MacIntel,120.4819277,7,2,3,,,,,,,,8,10,,,,,,,,,,,8,1.801,1,,,,,,0.417160047,-0.414202245,1,0,0,1.8013,Pumice_rect,2,0,2,0,1,
60d13d406f3b34d6791c8831,SCN,2024-06-24_15h09.58.876,LearnStrategy,2023.2.3,MacIntel,120.4819277,7,2,4,,,,,,,,2,04,,,,,,,,,,,2,1.461,1,,,,,,-0.127709734,-0.259486135,1,0,0,1.4608,Basalt_rect,3,0,3,0,1,
60d13d406f3b34d6791c8831,SCN,2024-06-24_15h09.58.876,LearnStrategy,2023.2.3,MacIntel,120.4819277,7,2,5,,,,,,,,2,05,,,,,,,,,,,2,1.007,1,,,,,,-0.127709734,-0.259486135,1,0,0,1.0068,Basalt_rect,4,0,4,0,1,
60d13d406f3b34d6791c8831,SCN,2024-06-24_15h09.58.876,LearnStrategy,2023.2.3,MacIntel,120.4819277,7,2,6,,,,,,,,1,14,,,,,,,,,,,6,3.024,0,,,,,,-0.149791953,-0.396891207,1,0,0,3.0235,Pegmatite_rect,5,0,5,0,1,
60d13d406f3b34d6791c8831,SCN,2024-06-24_15h09.58.876,LearnStrategy,2023.2.3,MacIntel,120.4819277,7,2,7,,,,,,,,8,02,,,,,,,,,,,8,1.577,1,,,,,,0.397479956,-0.384562209,1,0,0,1.5771,Pumice_rect,6,0,6,0,1,
60d13d406f3b34d6791c8831,SCN,2024-06-24_15h09.58.876,LearnStrategy,2023.2.3,MacIntel,120.4819277,7,2,8,,,,,,,,5,06,,,,,,,,,,,5,1.923,1,,,,,,-0.395545023,-0.401137311,1,0,0,1.9233,Obsidian_rect,7,0,7,0,1,
60d13d406f3b34d6791c8831,SCN,2024-06-24_15h09.58.876,LearnStrategy,2023.2.3,MacIntel,120.4819277,7,2,9,,,,,,,,4,09,,,,,,,,,,,4,3.95,1,,,,,,0.396599313,-0.242828343,1,0,0,3.9498,Gabbro_rect,8,0,8,0,1,
60d13d406f3b34d6791c8831,SCN,2024-06-24_15h09.58.876,LearnStrategy,2023.2.3,MacIntel,120.4819277,7,2,10,,,,,,,,5,05,,,,,,,,,,,5,1.222,1,,,,,,-0.389926274,-0.390011444,1,0,0,1.2216,Obsidian_rect,9,0,9,0,1,
60d13d406f3b34d6791c8831,SCN,2024-06-24_15h09.58.876,LearnStrategy,2023.2.3,MacIntel,120.4819277,7,2,11,,,,,,,,3,09,,,,,,,,,,,3,1.303,1,,,,,,0.135561098,-0.26285573,1,0,0,1.3029,Diorite_rect,10,0,10,0,1,
60d13d406f3b34d6791c8831,SCN,2024-06-24_15h09.58.876,LearnStrategy,2023.2.3,MacIntel,120.4819277,7,2,12,,,,,,,,4,10,,,,,,,,,,,4,2.992,1,,,,,,0.371019329,-0.24657831,1,0,0,2.9917,Gabbro_rect,11,0,11,0,1,
60d13d406f3b34d6791c8831,SCN,2024-06-24_15h09.58.876,LearnStrategy,2023.2.3,MacIntel,120.4819277,7,2,13,,,,,,,,7,15,,,,,,,,,,,7,1.702,1,,,,,,0.091053497,-0.386687328,1,0,0,1.7025,Peridotite_rect,12,0,12,0,1,
60d13d406f3b34d6791c8831,SCN,2024-06-24_15h09.58.876,LearnStrategy,2023.2.3,MacIntel,120.4819277,7,2,14,,,,,,,,6,11,,,,,,,,,,,6,1.469,1,,,,,,-0.154046326,-0.394001211,1,0,0,1.469,Pegmatite_rect,13,0,13,0,1,
60d13d406f3b34d6791c8831,SCN,2024-06-24_15h09.58.876,LearnStrategy,2023.2.3,MacIntel,120.4819277,7,2,15,,,,,,,,3,16,,,,,,,,,,,3,4.719,1,,,,,,0.165267285,-0.254690146,1,0,0,4.7186,Diorite_rect,14,0,14,0,1,
60d13d406f3b34d6791c8831,SCN,2024-06-24_15h09.58.876,LearnStrategy,2023.2.3,MacIntel,120.4819277,7,2,16,,,,,,,,6,09,,,,,,,,,,,6,2.211,1,,,,,,-0.159875933,-0.387501819,1,0,0,2.2115,Pegmatite_rect,15,0,15,0,1,
60d13d406f3b34d6791c8831,SCN,2024-06-24_15h09.58.876,LearnStrategy,2023.2.3,MacIntel,120.4819277,8,1,1,-0.547276044,-0.080347693,1,0,0,2.2317,Peridotite_12,7,12,3,1,2.232,-0.419434007,-0.236399238,1,0,0,2.8465,Andesite_rect,1,2.846,0,0,0,0,0,1,,,,,,,,,,,,,
60d13d406f3b34d6791c8831,SCN,2024-06-24_15h09.58.876,LearnStrategy,2023.2.3,MacIntel,120.4819277,8,1,2,-0.395875781,-0.083754498,1,0,0,0.775,Andesite_03,1,03,3,2,0.775,0.383435152,-0.244196854,1,0,0,3.0633,Gabbro_rect,4,3.063,0,1,0,1,0,1,,,,,,,,,,,,,
60d13d406f3b34d6791c8831,SCN,2024-06-24_15h09.58.876,LearnStrategy,2023.2.3,MacIntel,120.4819277,8,1,3,-0.209770752,-0.097108846,1,0,0,0.89,Andesite_16,1,16,3,3,0.89,-0.333751191,-0.242055197,1,0,0,4.6469,Andesite_rect,1,4.647,1,2,0,2,0,1,,,,,,,,,,,,,
60d13d406f3b34d6791c8831,SCN,2024-06-24_15h09.58.876,LearnStrategy,2023.2.3,MacIntel,120.4819277,8,1,4,-0.077372526,-0.080852098,1,0,0,1.0578,Diorite_06,3,06,3,4,1.058,0.114839119,-0.249604744,1,0,0,1.7857,Diorite_rect,3,1.786,1,3,0,3,0,1,,,,,,,,,,,,,
60d13d406f3b34d6791c8831,SCN,2024-06-24_15h09.58.876,LearnStrategy,2023.2.3,MacIntel,120.4819277,8,1,5,0.207773801,-0.086491519,1,0,0,1.016,Gabbro_11,4,11,3,6,1.016,0.372346495,-0.244750873,1,0,0,3.0464,Gabbro_rect,4,3.046,1,4,0,4,0,1,,,,,,,,,,,,,
60d13d406f3b34d6791c8831,SCN,2024-06-24_15h09.58.876,LearnStrategy,2023.2.3,MacIntel,120.4819277,8,1,6,0.560295499,-0.12213481,1,0,0,1.1347,Obsidian_07,5,07,3,8,1.135,-0.40129194,-0.381188479,1,0,0,1.242,Obsidian_rect,5,1.242,1,5,0,5,0,1,,,,,,,,,,,,,
60d13d406f3b34d6791c8831,SCN,2024-06-24_15h09.58.876,LearnStrategy,2023.2.3,MacIntel,120.4819277,8,1,7,-0.555912958,-0.251055944,1,0,0,0.7649,Pegmatite_13,6,13,2,1,0.765,-0.161285788,-0.401149714,1,0,0,1.1384,Pegmatite_rect,6,1.138,1,6,0,6,0,1,,,,,,,,,,,,,
60d13d406f3b34d6791c8831,SCN,2024-06-24_15h09.58.876,LearnStrategy,2023.2.3,MacIntel,120.4819277,8,1,8,-0.3444264,-0.225839794,1,0,0,0.8161,Peridotite_07,7,07,2,2,0.816,0.110564074,-0.404229897,1,0,0,1.9041,Peridotite_rect,7,1.904,1,7,0,7,0,1,,,,,,,,,,,,,
60d13d406f3b34d6791c8831,SCN,2024-06-24_15h09.58.876,LearnStrategy,2023.2.3,MacIntel,120.4819277,8,1,9,-0.22633345,-0.236237993,1,0,0,1.208,Peridotite_14,7,14,2,3,1.208,0.140886299,-0.417385789,1,0,0,1.0048,Peridotite_rect,7,1.005,1,8,0,8,0,1,,,,,,,,,,,,,
60d13d406f3b34d6791c8831,SCN,2024-06-24_15h09.58.876,LearnStrategy,2023.2.3,MacIntel,120.4819277,8,1,10,-0.057857814,-0.25230869,1,0,0,1.341,Basalt_16,2,16,2,4,1.341,0.404136457,-0.25061769,1,0,0,2.0635,Gabbro_rect,4,2.063,0,9,0,9,0,1,,,,,,,,,,,,,
60d13d406f3b34d6791c8831,SCN,2024-06-24_15h09.58.876,LearnStrategy,2023.2.3,MacIntel,120.4819277,8,1,11,0.108728368,-0.254528902,1,0,0,1.1989,Diorite_08,3,08,2,5,1.199,0.124174759,-0.23269475,1,0,0,1.0214,Diorite_rect,3,1.021,1,10,0,10,0,1,,,,,,,,,,,,,
60d13d406f3b34d6791c8831,SCN,2024-06-24_15h09.58.876,LearnStrategy,2023.2.3,MacIntel,120.4819277,8,1,12,0.253976536,-0.265080076,1,0,0,1.0659,Basalt_02,2,02,2,6,1.066,-0.121202073,-0.246156594,1,0,0,1.4616,Basalt_rect,2,1.462,1,11,0,11,0,1,,,,,,,,,,,,,
60d13d406f3b34d6791c8831,SCN,2024-06-24_15h09.58.876,LearnStrategy,2023.2.3,MacIntel,120.4819277,8,1,13,0.37724998,-0.259701127,1,0,0,1.858,Gabbro_12,4,12,2,7,1.858,0.38842546,-0.243994265,1,0,0,1.872,Gabbro_rect,4,1.872,1,12,0,12,0,1,,,,,,,,,,,,,
60d13d406f3b34d6791c8831,SCN,2024-06-24_15h09.58.876,LearnStrategy,2023.2.3,MacIntel,120.4819277,8,1,14,0.546407805,-0.272873558,1,0,0,1.0159,Basalt_11,2,11,2,8,1.016,0.351566634,-0.386203595,1,0,0,1.8294,Pumice_rect,8,1.829,0,13,0,13,0,1,,,,,,,,,,,,,
60d13d406f3b34d6791c8831,SCN,2024-06-24_15h09.58.876,LearnStrategy,2023.2.3,MacIntel,120.4819277,8,1,15,-0.534574943,-0.39200426,1,0,0,1.682,Gabbro_08,4,08,1,1,1.682,0.385944777,-0.253945941,1,0,0,2.6107,Gabbro_rect,4,2.611,1,14,0,14,0,1,,,,,,,,,,,,,
60d13d406f3b34d6791c8831,SCN,2024-06-24_15h09.58.876,LearnStrategy,2023.2.3,MacIntel,120.4819277,8,1,16,-0.390773841,-0.409476543,1,0,0,3.6904,Pegmatite_05,6,05,1,2,3.69,-0.183872413,-0.40969567,1,0,0,1.5196,Pegmatite_rect,6,1.52,1,15,0,15,0,1,,,,,,,,,,,,,
60d13d406f3b34d6791c8831,SCN,2024-06-24_15h09.58.876,LearnStrategy,2023.2.3,MacIntel,120.4819277,8,2,1,,,,,,,,6,12,,,,,,,,,,,6,4.252,1,,,,,,-0.139331737,-0.399681976,1,0,0,4.2521,Pegmatite_rect,0,0,0,0,1,
60d13d406f3b34d6791c8831,SCN,2024-06-24_15h09.58.876,LearnStrategy,2023.2.3,MacIntel,120.4819277,8,2,2,,,,,,,,1,09,,,,,,,,,,,1,4.179,1,,,,,,-0.412194545,-0.245734878,1,0,0,4.1791,Andesite_rect,1,0,1,0,1,
60d13d406f3b34d6791c8831,SCN,2024-06-24_15h09.58.876,LearnStrategy,2023.2.3,MacIntel,120.4819277,8,2,3,,,,,,,,5,10,,,,,,,,,,,5,1.179,1,,,,,,-0.417734739,-0.411093122,1,0,0,1.1788,Obsidian_rect,2,0,2,0,1,
60d13d406f3b34d6791c8831,SCN,2024-06-24_15h09.58.876,LearnStrategy,2023.2.3,MacIntel,120.4819277,8,2,4,,,,,,,,5,16,,,,,,,,,,,5,1.137,1,,,,,,-0.434748095,-0.406900766,1,0,0,1.1366,Obsidian_rect,3,0,3,0,1,
60d13d406f3b34d6791c8831,SCN,2024-06-24_15h09.58.876,LearnStrategy,2023.2.3,MacIntel,120.4819277,8,2,5,,,,,,,,1,07,,,,,,,,,,,1,4.291,1,,,,,,-0.416928517,-0.263910021,1,0,0,4.2912,Andesite_rect,4,0,4,0,1,
60d13d406f3b34d6791c8831,SCN,2024-06-24_15h09.58.876,LearnStrategy,2023.2.3,MacIntel,120.4819277,8,2,6,,,,,,,,3,13,,,,,,,,,,,3,1.471,1,,,,,,0.102282725,-0.263885214,1,0,0,1.4706,Diorite_rect,5,0,5,0,1,
60d13d406f3b34d6791c8831,SCN,2024-06-24_15h09.58.876,LearnStrategy,2023.2.3,MacIntel,120.4819277,8,2,7,,,,,,,,8,09,,,,,,,,,,,8,1.117,1,,,,,,0.349061144,-0.398511921,1,0,0,1.1168,Pumice_rect,6,0,6,0,1,
60d13d406f3b34d6791c8831,SCN,2024-06-24_15h09.58.876,LearnStrategy,2023.2.3,MacIntel,120.4819277,8,2,8,,,,,,,,2,12,,,,,,,,,,,2,2.161,1,,,,,,-0.138930693,-0.242195769,1,0,0,2.1606,Basalt_rect,7,0,7,0,1,
60d13d406f3b34d6791c8831,SCN,2024-06-24_15h09.58.876,LearnStrategy,2023.2.3,MacIntel,120.4819277,8,2,9,,,,,,,,7,13,,,,,,,,,,,7,1.252,1,,,,,,0.107488027,-0.404622671,1,0,0,1.252,Peridotite_rect,8,0,8,0,1,
60d13d406f3b34d6791c8831,SCN,2024-06-24_15h09.58.876,LearnStrategy,2023.2.3,MacIntel,120.4819277,8,2,10,,,,,,,,3,12,,,,,,,,,,,3,4.277,1,,,,,,0.141556083,-0.254020361,1,0,0,4.2774,Diorite_rect,9,0,9,0,1,
60d13d406f3b34d6791c8831,SCN,2024-06-24_15h09.58.876,LearnStrategy,2023.2.3,MacIntel,120.4819277,8,2,11,,,,,,,,7,10,,,,,,,,,,,7,1.299,1,,,,,,0.108902016,-0.387700274,1,0,0,1.299,Peridotite_rect,10,0,10,0,1,
60d13d406f3b34d6791c8831,SCN,2024-06-24_15h09.58.876,LearnStrategy,2023.2.3,MacIntel,120.4819277,8,2,12,,,,,,,,4,03,,,,,,,,,,,4,2.344,1,,,,,,0.445692045,-0.266196384,1,0,0,2.3437,Gabbro_rect,11,0,11,0,1,
60d13d406f3b34d6791c8831,SCN,2024-06-24_15h09.58.876,LearnStrategy,2023.2.3,MacIntel,120.4819277,8,2,13,,,,,,,,8,16,,,,,,,,,,,8,1.824,1,,,,,,0.372855035,-0.396328919,1,0,0,1.824,Pumice_rect,12,0,12,0,1,
60d13d406f3b34d6791c8831,SCN,2024-06-24_15h09.58.876,LearnStrategy,2023.2.3,MacIntel,120.4819277,8,2,14,,,,,,,,6,07,,,,,,,,,,,6,2.319,1,,,,,,-0.144069843,-0.389544249,1,0,0,2.3186,Pegmatite_rect,13,0,13,0,1,
60d13d406f3b34d6791c8831,SCN,2024-06-24_15h09.58.876,LearnStrategy,2023.2.3,MacIntel,120.4819277,8,2,15,,,,,,,,4,16,,,,,,,,,,,4,3.368,1,,,,,,0.369489575,-0.25411132,1,0,0,3.3684,Gabbro_rect,14,0,14,0,1,
60d13d406f3b34d6791c8831,SCN,2024-06-24_15h09.58.876,LearnStrategy,2023.2.3,MacIntel,120.4819277,8,2,16,,,,,,,,2,14,,,,,,,,,,,2,4.424,1,,,,,,-0.146864747,-0.250113285,1,0,0,4.4239,Basalt_rect,15,0,15,0,1,
60d13d406f3b34d6791c8831,SCN,2024-06-24_15h09.58.876,LearnStrategy,2023.2.3,MacIntel,120.4819277,9,1,1,-0.550215654,-0.088753076,1,0,0,1.5597,Peridotite_12,7,12,3,1,1.56,-0.380946199,-0.230582035,1,0,0,5.3228,Andesite_rect,1,5.323,0,0,0,0,0,1,,,,,,,,,,,,,
60d13d406f3b34d6791c8831,SCN,2024-06-24_15h09.58.876,LearnStrategy,2023.2.3,MacIntel,120.4819277,9,1,2,-0.356486657,-0.096071093,1,0,0,0.9245,Andesite_03,1,03,3,2,0.925,-0.403247546,-0.230610976,1,0,0,2.1692,Andesite_rect,1,2.169,1,1,0,1,0,1,,,,,,,,,,,,,
60d13d406f3b34d6791c8831,SCN,2024-06-24_15h09.58.876,LearnStrategy,2023.2.3,MacIntel,120.4819277,9,1,3,-0.546602125,-0.106010366,1,0,0,1.1825,Peridotite_12,7,12,3,1,1.183,-0.124046591,-0.395845185,1,0,0,1.0691,Pegmatite_rect,6,1.069,0,2,0,2,0,1,,,,,,,,,,,,,
60d13d406f3b34d6791c8831,SCN,2024-06-24_15h09.58.876,LearnStrategy,2023.2.3,MacIntel,120.4819277,9,1,4,-0.269873584,-0.114713431,1,0,0,0.9999,Andesite_16,1,16,3,3,1,-0.4167466,-0.247119926,1,0,0,5.0857,Andesite_rect,1,5.086,1,3,0,3,0,1,,,,,,,,,,,,,
60d13d406f3b34d6791c8831,SCN,2024-06-24_15h09.58.876,LearnStrategy,2023.2.3,MacIntel,120.4819277,9,1,5,0.081713722,-0.102715191,1,0,0,0.9329,Peridotite_08,7,08,3,5,0.933,0.159243358,-0.411229559,1,0,0,1.5753,Peridotite_rect,7,1.575,1,4,0,4,0,1,,,,,,,,,,,,,
60d13d406f3b34d6791c8831,SCN,2024-06-24_15h09.58.876,LearnStrategy,2023.2.3,MacIntel,120.4819277,9,1,6,0.240952946,-0.113311845,1,0,0,2.6577,Gabbro_11,4,11,3,6,2.658,0.376170883,-0.236800282,1,0,0,2.211,Gabbro_rect,4,2.211,1,5,0,5,0,1,,,,,,,,,,,,,
60d13d406f3b34d6791c8831,SCN,2024-06-24_15h09.58.876,LearnStrategy,2023.2.3,MacIntel,120.4819277,9,1,7,-0.523478018,-0.255355796,1,0,0,2.516,Pegmatite_13,6,13,2,1,2.516,-0.128164526,-0.400599829,1,0,0,1.4631,Pegmatite_rect,6,1.463,1,6,0,6,0,1,,,,,,,,,,,,,
60d13d406f3b34d6791c8831,SCN,2024-06-24_15h09.58.876,LearnStrategy,2023.2.3,MacIntel,120.4819277,9,1,8,-0.084459012,0.103752117,1,0,0,1.1409,Pegmatite_08,6,08,4,4,1.141,-0.144590786,-0.405614945,1,0,0,1.2298,Pegmatite_rect,6,1.23,1,7,0,7,0,1,,,,,,,,,,,,,
60d13d406f3b34d6791c8831,SCN,2024-06-24_15h09.58.876,LearnStrategy,2023.2.3,MacIntel,120.4819277,9,1,9,-0.09616784,0.243538646,1,0,0,1.2823,Diorite_11,3,11,5,4,1.282,0.10197264,-0.251845629,1,0,0,0.9718,Diorite_rect,3,0.972,1,8,0,8,0,1,,,,,,,,,,,,,
60d13d406f3b34d6791c8831,SCN,2024-06-24_15h09.58.876,LearnStrategy,2023.2.3,MacIntel,120.4819277,9,1,10,0.407960845,0.233620045,1,0,0,1.2244,Andesite_04,1,04,5,7,1.224,-0.451992981,-0.251250265,1,0,0,1.1859,Andesite_rect,1,1.186,1,9,0,9,0,1,,,,,,,,,,,,,
60d13d406f3b34d6791c8831,SCN,2024-06-24_15h09.58.876,LearnStrategy,2023.2.3,MacIntel,120.4819277,9,1,11,-0.549889031,0.098319419,1,0,0,1.1065,Diorite_02,3,02,4,1,1.106,0.087196034,-0.241248975,1,0,0,5.7141,Diorite_rect,3,5.714,1,10,0,10,0,1,,,,,,,,,,,,,
60d13d406f3b34d6791c8831,SCN,2024-06-24_15h09.58.876,LearnStrategy,2023.2.3,MacIntel,120.4819277,9,1,12,0.573525812,0.082418237,1,0,0,1.4482,Peridotite_05,7,05,4,8,1.448,0.157833503,-0.412072992,1,0,0,2.0311,Peridotite_rect,7,2.031,1,11,0,11,0,1,,,,,,,,,,,,,
60d13d406f3b34d6791c8831,SCN,2024-06-24_15h09.58.876,LearnStrategy,2023.2.3,MacIntel,120.4819277,9,1,13,0.539858799,-0.258832888,1,0,0,1.3658,Basalt_11,2,11,2,8,1.366,0.401858363,-0.420044255,1,0,0,1.3361,Pumice_rect,8,1.336,0,12,0,12,0,1,,,,,,,,,,,,,
60d13d406f3b34d6791c8831,SCN,2024-06-24_15h09.58.876,LearnStrategy,2023.2.3,MacIntel,120.4819277,9,1,14,-0.221442369,-0.390544791,1,0,0,2.2341,Pegmatite_06,6,06,1,3,2.234,-0.116984911,-0.407363827,1,0,0,1.1853,Pegmatite_rect,6,1.185,1,13,0,13,0,1,,,,,,,,,,,,,
60d13d406f3b34d6791c8831,SCN,2024-06-24_15h09.58.876,LearnStrategy,2023.2.3,MacIntel,120.4819277,9,1,15,-0.548235242,-0.400818956,1,0,0,1.1246,Gabbro_08,4,08,1,1,1.125,0.39085653,-0.243142563,1,0,0,2.0686,Gabbro_rect,4,2.069,1,14,0,14,0,1,,,,,,,,,,,,,
60d13d406f3b34d6791c8831,SCN,2024-06-24_15h09.58.876,LearnStrategy,2023.2.3,MacIntel,120.4819277,9,1,16,-0.525400548,0.089727985,1,0,0,1.7995,Diorite_02,3,02,4,1,1.799,0.183595404,-0.266279074,1,0,0,2.8012,Diorite_rect,3,2.801,1,15,0,15,0,1,,,,,,,,,,,,,
60d13d406f3b34d6791c8831,SCN,2024-06-24_15h09.58.876,LearnStrategy,2023.2.3,MacIntel,120.4819277,9,2,1,,,,,,,,4,14,,,,,,,,,,,4,6.411,1,,,,,,0.395664922,-0.24900938,1,0,0,6.4108,Gabbro_rect,0,0,0,0,1,
60d13d406f3b34d6791c8831,SCN,2024-06-24_15h09.58.876,LearnStrategy,2023.2.3,MacIntel,120.4819277,9,2,2,,,,,,,,5,14,,,,,,,,,,,5,1.253,1,,,,,,-0.416696986,-0.390139613,1,0,0,1.2528,Obsidian_rect,1,0,1,0,1,
60d13d406f3b34d6791c8831,SCN,2024-06-24_15h09.58.876,LearnStrategy,2023.2.3,MacIntel,120.4819277,9,2,3,,,,,,,,7,16,,,,,,,,,,,4,6.822,0,,,,,,0.396768827,-0.268036225,1,0,0,6.8217,Gabbro_rect,2,0,2,0,1,
60d13d406f3b34d6791c8831,SCN,2024-06-24_15h09.58.876,LearnStrategy,2023.2.3,MacIntel,120.4819277,9,2,4,,,,,,,,8,05,,,,,,,,,,,8,1.252,1,,,,,,0.356631364,-0.397627143,1,0,0,1.2523,Pumice_rect,3,0,3,0,1,
60d13d406f3b34d6791c8831,SCN,2024-06-24_15h09.58.876,LearnStrategy,2023.2.3,MacIntel,120.4819277,9,2,5,,,,,,,,3,15,,,,,,,,,,,3,1.536,1,,,,,,0.153372407,-0.252044083,1,0,0,1.5364,Diorite_rect,4,0,4,0,1,
60d13d406f3b34d6791c8831,SCN,2024-06-24_15h09.58.876,LearnStrategy,2023.2.3,MacIntel,120.4819277,9,2,6,,,,,,,,5,04,,,,,,,,,,,5,1.019,1,,,,,,-0.447788222,-0.407632568,1,0,0,1.0191,Obsidian_rect,5,0,5,0,1,
60d13d406f3b34d6791c8831,SCN,2024-06-24_15h09.58.876,LearnStrategy,2023.2.3,MacIntel,120.4819277,9,2,7,,,,,,,,4,13,,,,,,,,,,,1,5.003,0,,,,,,-0.415051466,-0.24383302,1,0,0,5.0029,Andesite_rect,6,0,6,0,1,
60d13d406f3b34d6791c8831,SCN,2024-06-24_15h09.58.876,LearnStrategy,2023.2.3,MacIntel,120.4819277,9,2,8,,,,,,,,1,11,,,,,,,,,,,1,1.495,1,,,,,,-0.38681715,-0.237962069,1,0,0,1.4951,Andesite_rect,7,0,7,0,1,
60d13d406f3b34d6791c8831,SCN,2024-06-24_15h09.58.876,LearnStrategy,2023.2.3,MacIntel,120.4819277,9,2,9,,,,,,,,6,03,,,,,,,,,,,6,2.317,1,,,,,,-0.1014641,-0.404267107,1,0,0,2.3167,Pegmatite_rect,8,0,8,0,1,
60d13d406f3b34d6791c8831,SCN,2024-06-24_15h09.58.876,LearnStrategy,2023.2.3,MacIntel,120.4819277,9,2,10,,,,,,,,3,14,,,,,,,,,,,3,1.588,1,,,,,,0.145049713,-0.247806249,1,0,0,1.5875,Diorite_rect,9,0,9,0,1,
60d13d406f3b34d6791c8831,SCN,2024-06-24_15h09.58.876,LearnStrategy,2023.2.3,MacIntel,120.4819277,9,2,11,,,,,,,,2,01,,,,,,,,,,,2,1.466,1,,,,,,-0.133849426,-0.238975015,1,0,0,1.4656,Basalt_rect,10,0,10,0,1,
60d13d406f3b34d6791c8831,SCN,2024-06-24_15h09.58.876,LearnStrategy,2023.2.3,MacIntel,120.4819277,9,2,12,,,,,,,,1,01,,,,,,,,,,,4,2.112,0,,,,,,0.397934748,-0.248943229,1,0,0,2.1122,Gabbro_rect,11,0,11,0,1,
60d13d406f3b34d6791c8831,SCN,2024-06-24_15h09.58.876,LearnStrategy,2023.2.3,MacIntel,120.4819277,9,2,13,,,,,,,,7,02,,,,,,,,,,,7,2.182,1,,,,,,0.124224373,-0.40004581,1,0,0,2.1818,Peridotite_rect,12,0,12,0,1,
60d13d406f3b34d6791c8831,SCN,2024-06-24_15h09.58.876,LearnStrategy,2023.2.3,MacIntel,120.4819277,9,2,14,,,,,,,,2,08,,,,,,,,,,,2,1.895,1,,,,,,-0.115546114,-0.248922556,1,0,0,1.8954,Basalt_rect,13,0,13,0,1,
60d13d406f3b34d6791c8831,SCN,2024-06-24_15h09.58.876,LearnStrategy,2023.2.3,MacIntel,120.4819277,9,2,15,,,,,,,,8,14,,,,,,,,,,,8,1.717,1,,,,,,0.375844259,-0.400004465,1,0,0,1.7175,Pumice_rect,14,0,14,0,1,
60d13d406f3b34d6791c8831,SCN,2024-06-24_15h09.58.876,LearnStrategy,2023.2.3,MacIntel,120.4819277,9,2,16,,,,,,,,6,16,,,,,,,,,,,6,1.762,1,,,,,,-0.129917542,-0.397858674,1,0,0,1.7616,Pegmatite_rect,15,0,15,0,1,
60d13d406f3b34d6791c8831,SCN,2024-06-24_15h09.58.876,LearnStrategy,2023.2.3,MacIntel,120.4819277,,,,,,,,,,,,,,,,,,,,,,,,,,,,,,,,,,,,,,,,,,,1
60d13d406f3b34d6791c8831,SCN,2024-06-24_15h09.58.876,LearnStrategy,2023.2.3,MacIntel,120.4819277,,,,,,,,,,,,,,,,,,,,,,,,,,,,,,,,,,,,,,,,,,,
60d13d406f3b34d6791c8831,SCN,2024-06-24_15h09.58.876,LearnStrategy,2023.2.3,MacIntel,120.4819277,,,,,,,,,,,4,08,1,1,,,,,,,,,,,,,,,,,,,,,,,,,,,,,
60d13d406f3b34d6791c8831,SCN,2024-06-24_15h09.58.876,LearnStrategy,2023.2.3,MacIntel,120.4819277,,,,,,,,,,,6,05,1,2,,,,,,,,,,,,,,,,,,,,,,,,,,,,,
60d13d406f3b34d6791c8831,SCN,2024-06-24_15h09.58.876,LearnStrategy,2023.2.3,MacIntel,120.4819277,,,,,,,,,,,6,06,1,3,,,,,,,,,,,,,,,,,,,,,,,,,,,,,
60d13d406f3b34d6791c8831,SCN,2024-06-24_15h09.58.876,LearnStrategy,2023.2.3,MacIntel,120.4819277,,,,,,,,,,,5,08,1,4,,,,,,,,,,,,,,,,,,,,,,,,,,,,,
60d13d406f3b34d6791c8831,SCN,2024-06-24_15h09.58.876,LearnStrategy,2023.2.3,MacIntel,120.4819277,,,,,,,,,,,7,06,1,5,,,,,,,,,,,,,,,,,,,,,,,,,,,,,
60d13d406f3b34d6791c8831,SCN,2024-06-24_15h09.58.876,LearnStrategy,2023.2.3,MacIntel,120.4819277,,,,,,,,,,,2,06,1,6,,,,,,,,,,,,,,,,,,,,,,,,,,,,,
60d13d406f3b34d6791c8831,SCN,2024-06-24_15h09.58.876,LearnStrategy,2023.2.3,MacIntel,120.4819277,,,,,,,,,,,4,01,1,7,,,,,,,,,,,,,,,,,,,,,,,,,,,,,
60d13d406f3b34d6791c8831,SCN,2024-06-24_15h09.58.876,LearnStrategy,2023.2.3,MacIntel,120.4819277,,,,,,,,,,,8,03,1,8,,,,,,,,,,,,,,,,,,,,,,,,,,,,,
60d13d406f3b34d6791c8831,SCN,2024-06-24_15h09.58.876,LearnStrategy,2023.2.3,MacIntel,120.4819277,,,,,,,,,,,6,13,2,1,,,,,,,,,,,,,,,,,,,,,,,,,,,,,
60d13d406f3b34d6791c8831,SCN,2024-06-24_15h09.58.876,LearnStrategy,2023.2.3,MacIntel,120.4819277,,,,,,,,,,,7,07,2,2,,,,,,,,,,,,,,,,,,,,,,,,,,,,,
60d13d406f3b34d6791c8831,SCN,2024-06-24_15h09.58.876,LearnStrategy,2023.2.3,MacIntel,120.4819277,,,,,,,,,,,7,14,2,3,,,,,,,,,,,,,,,,,,,,,,,,,,,,,
60d13d406f3b34d6791c8831,SCN,2024-06-24_15h09.58.876,LearnStrategy,2023.2.3,MacIntel,120.4819277,,,,,,,,,,,2,16,2,4,,,,,,,,,,,,,,,,,,,,,,,,,,,,,
60d13d406f3b34d6791c8831,SCN,2024-06-24_15h09.58.876,LearnStrategy,2023.2.3,MacIntel,120.4819277,,,,,,,,,,,3,08,2,5,,,,,,,,,,,,,,,,,,,,,,,,,,,,,
60d13d406f3b34d6791c8831,SCN,2024-06-24_15h09.58.876,LearnStrategy,2023.2.3,MacIntel,120.4819277,,,,,,,,,,,2,02,2,6,,,,,,,,,,,,,,,,,,,,,,,,,,,,,
60d13d406f3b34d6791c8831,SCN,2024-06-24_15h09.58.876,LearnStrategy,2023.2.3,MacIntel,120.4819277,,,,,,,,,,,4,12,2,7,,,,,,,,,,,,,,,,,,,,,,,,,,,,,
60d13d406f3b34d6791c8831,SCN,2024-06-24_15h09.58.876,LearnStrategy,2023.2.3,MacIntel,120.4819277,,,,,,,,,,,2,11,2,8,,,,,,,,,,,,,,,,,,,,,,,,,,,,,
60d13d406f3b34d6791c8831,SCN,2024-06-24_15h09.58.876,LearnStrategy,2023.2.3,MacIntel,120.4819277,,,,,,,,,,,7,12,3,1,,,,,,,,,,,,,,,,,,,,,,,,,,,,,
60d13d406f3b34d6791c8831,SCN,2024-06-24_15h09.58.876,LearnStrategy,2023.2.3,MacIntel,120.4819277,,,,,,,,,,,1,03,3,2,,,,,,,,,,,,,,,,,,,,,,,,,,,,,
60d13d406f3b34d6791c8831,SCN,2024-06-24_15h09.58.876,LearnStrategy,2023.2.3,MacIntel,120.4819277,,,,,,,,,,,1,16,3,3,,,,,,,,,,,,,,,,,,,,,,,,,,,,,
60d13d406f3b34d6791c8831,SCN,2024-06-24_15h09.58.876,LearnStrategy,2023.2.3,MacIntel,120.4819277,,,,,,,,,,,3,06,3,4,,,,,,,,,,,,,,,,,,,,,,,,,,,,,
60d13d406f3b34d6791c8831,SCN,2024-06-24_15h09.58.876,LearnStrategy,2023.2.3,MacIntel,120.4819277,,,,,,,,,,,7,08,3,5,,,,,,,,,,,,,,,,,,,,,,,,,,,,,
60d13d406f3b34d6791c8831,SCN,2024-06-24_15h09.58.876,LearnStrategy,2023.2.3,MacIntel,120.4819277,,,,,,,,,,,4,11,3,6,,,,,,,,,,,,,,,,,,,,,,,,,,,,,
60d13d406f3b34d6791c8831,SCN,2024-06-24_15h09.58.876,LearnStrategy,2023.2.3,MacIntel,120.4819277,,,,,,,,,,,2,09,3,7,,,,,,,,,,,,,,,,,,,,,,,,,,,,,
60d13d406f3b34d6791c8831,SCN,2024-06-24_15h09.58.876,LearnStrategy,2023.2.3,MacIntel,120.4819277,,,,,,,,,,,5,07,3,8,,,,,,,,,,,,,,,,,,,,,,,,,,,,,
60d13d406f3b34d6791c8831,SCN,2024-06-24_15h09.58.876,LearnStrategy,2023.2.3,MacIntel,120.4819277,,,,,,,,,,,3,02,4,1,,,,,,,,,,,,,,,,,,,,,,,,,,,,,
60d13d406f3b34d6791c8831,SCN,2024-06-24_15h09.58.876,LearnStrategy,2023.2.3,MacIntel,120.4819277,,,,,,,,,,,1,02,4,2,,,,,,,,,,,,,,,,,,,,,,,,,,,,,
60d13d406f3b34d6791c8831,SCN,2024-06-24_15h09.58.876,LearnStrategy,2023.2.3,MacIntel,120.4819277,,,,,,,,,,,1,05,4,3,,,,,,,,,,,,,,,,,,,,,,,,,,,,,
60d13d406f3b34d6791c8831,SCN,2024-06-24_15h09.58.876,LearnStrategy,2023.2.3,MacIntel,120.4819277,,,,,,,,,,,6,08,4,4,,,,,,,,,,,,,,,,,,,,,,,,,,,,,
60d13d406f3b34d6791c8831,SCN,2024-06-24_15h09.58.876,LearnStrategy,2023.2.3,MacIntel,120.4819277,,,,,,,,,,,8,08,4,5,,,,,,,,,,,,,,,,,,,,,,,,,,,,,
60d13d406f3b34d6791c8831,SCN,2024-06-24_15h09.58.876,LearnStrategy,2023.2.3,MacIntel,120.4819277,,,,,,,,,,,8,15,4,6,,,,,,,,,,,,,,,,,,,,,,,,,,,,,
60d13d406f3b34d6791c8831,SCN,2024-06-24_15h09.58.876,LearnStrategy,2023.2.3,MacIntel,120.4819277,,,,,,,,,,,2,10,4,7,,,,,,,,,,,,,,,,,,,,,,,,,,,,,
60d13d406f3b34d6791c8831,SCN,2024-06-24_15h09.58.876,LearnStrategy,2023.2.3,MacIntel,120.4819277,,,,,,,,,,,7,05,4,8,,,,,,,,,,,,,,,,,,,,,,,,,,,,,
60d13d406f3b34d6791c8831,SCN,2024-06-24_15h09.58.876,LearnStrategy,2023.2.3,MacIntel,120.4819277,,,,,,,,,,,6,15,5,1,,,,,,,,,,,,,,,,,,,,,,,,,,,,,
60d13d406f3b34d6791c8831,SCN,2024-06-24_15h09.58.876,LearnStrategy,2023.2.3,MacIntel,120.4819277,,,,,,,,,,,6,10,5,2,,,,,,,,,,,,,,,,,,,,,,,,,,,,,
60d13d406f3b34d6791c8831,SCN,2024-06-24_15h09.58.876,LearnStrategy,2023.2.3,MacIntel,120.4819277,,,,,,,,,,,4,15,5,3,,,,,,,,,,,,,,,,,,,,,,,,,,,,,
60d13d406f3b34d6791c8831,SCN,2024-06-24_15h09.58.876,LearnStrategy,2023.2.3,MacIntel,120.4819277,,,,,,,,,,,3,11,5,4,,,,,,,,,,,,,,,,,,,,,,,,,,,,,
60d13d406f3b34d6791c8831,SCN,2024-06-24_15h09.58.876,LearnStrategy,2023.2.3,MacIntel,120.4819277,,,,,,,,,,,8,13,5,5,,,,,,,,,,,,,,,,,,,,,,,,,,,,,
60d13d406f3b34d6791c8831,SCN,2024-06-24_15h09.58.876,LearnStrategy,2023.2.3,MacIntel,120.4819277,,,,,,,,,,,3,10,5,6,,,,,,,,,,,,,,,,,,,,,,,,,,,,,
60d13d406f3b34d6791c8831,SCN,2024-06-24_15h09.58.876,LearnStrategy,2023.2.3,MacIntel,120.4819277,,,,,,,,,,,1,04,5,7,,,,,,,,,,,,,,,,,,,,,,,,,,,,,
60d13d406f3b34d6791c8831,SCN,2024-06-24_15h09.58.876,LearnStrategy,2023.2.3,MacIntel,120.4819277,,,,,,,,,,,5,02,5,8,,,,,,,,,,,,,,,,,,,,,,,,,,,,,
60d13d406f3b34d6791c8831,SCN,2024-06-24_15h09.58.876,LearnStrategy,2023.2.3,MacIntel,120.4819277,,,,,,,,,,,5,09,6,1,,,,,,,,,,,,,,,,,,,,,,,,,,,,,
60d13d406f3b34d6791c8831,SCN,2024-06-24_15h09.58.876,LearnStrategy,2023.2.3,MacIntel,120.4819277,,,,,,,,,,,1,10,6,2,,,,,,,,,,,,,,,,,,,,,,,,,,,,,
60d13d406f3b34d6791c8831,SCN,2024-06-24_15h09.58.876,LearnStrategy,2023.2.3,MacIntel,120.4819277,,,,,,,,,,,8,04,6,3,,,,,,,,,,,,,,,,,,,,,,,,,,,,,
60d13d406f3b34d6791c8831,SCN,2024-06-24_15h09.58.876,LearnStrategy,2023.2.3,MacIntel,120.4819277,,,,,,,,,,,3,07,6,4,,,,,,,,,,,,,,,,,,,,,,,,,,,,,
60d13d406f3b34d6791c8831,SCN,2024-06-24_15h09.58.876,LearnStrategy,2023.2.3,MacIntel,120.4819277,,,,,,,,,,,5,11,6,5,,,,,,,,,,,,,,,,,,,,,,,,,,,,,
60d13d406f3b34d6791c8831,SCN,2024-06-24_15h09.58.876,LearnStrategy,2023.2.3,MacIntel,120.4819277,,,,,,,,,,,5,12,6,6,,,,,,,,,,,,,,,,,,,,,,,,,,,,,
60d13d406f3b34d6791c8831,SCN,2024-06-24_15h09.58.876,LearnStrategy,2023.2.3,MacIntel,120.4819277,,,,,,,,,,,4,05,6,7,,,,,,,,,,,,,,,,,,,,,,,,,,,,,
60d13d406f3b34d6791c8831,SCN,2024-06-24_15h09.58.876,LearnStrategy,2023.2.3,MacIntel,120.4819277,,,,,,,,,,,8,06,6,8,,,,,,,,,,,,,,,,,,,,,,,,,,,,,