participant,condition,date,expName,psychopyVersion,OS,frameRate,block,phase,trial,learn_mouse.x,learn_mouse.y,learn_mouse.leftButton,learn_mouse.midButton,learn_mouse.rightButton,learn_mouse.time,learn_mouse.clicked_name,cat,token,row,col,t_select,cat_rec,token_rec,cat_mouse_l.x,cat_mouse_l.y,cat_mouse_l.leftButton,cat_mouse_l.midButton,cat_mouse_l.rightButton,cat_mouse_l.time,cat_mouse_l.clicked_name,resp,t_resp,corr,train_trials.thisRepN,train_trials.thisTrialN,train_trials.thisN,train_trials.thisIndex,train_trials.ran,cat_mouse_t.x,cat_mouse_t.y,cat_mouse_t.leftButton,cat_mouse_t.midButton,cat_mouse_t.rightButton,cat_mouse_t.time,cat_mouse_t.clicked_name,test_trials.thisRepN,test_trials.thisTrialN,test_trials.thisN,test_trials.thisIndex,test_trials.ran,Bonus
60e7639e8eca5490df1e412e,SCR,2024-06-24_14h56.34.962,LearnStrategy,2023.2.3,Win32,60.24096386,,,,,,,,,,,,,,,,,,,,,,,,,,,,,,,,,,,,,,,,,,,,,
60e7639e8eca5490df1e412e,SCR,2024-06-24_14h56.34.962,LearnStrategy,2023.2.3,Win32,60.24096386,1,1,1,0.391927083,-0.096354167,1,0,0,2.93,Pegmatite_08,6,08,3,7,2.93,6,08,0.071614583,-0.389322917,1,0,0,7.9827,Peridotite_rect,7,7.983,0,0,0,0,0,1,,,,,,,,,,,,,
60e7639e8eca5490df1e412e,SCR,2024-06-24_14h56.34.962,LearnStrategy,2023.2.3,Win32,60.24096386,1,1,2,0.08203125,-0.100260417,1,0,0,1.8927,Pumice_09,8,09,3,5,1.893,8,09,-0.110677083,-0.252604167,1,0,0,3.56,Basalt_rect,2,3.56,0,1,0,1,0,1,,,,,,,,,,,,,
60e7639e8eca5490df1e412e,SCR,2024-06-24_14h56.34.962,LearnStrategy,2023.2.3,Win32,60.24096386,1,1,3,0.565104167,-0.40625,1,0,0,3.1081,Peridotite_05,7,05,1,8,3.108,7,05,-0.317708333,-0.244791667,1,0,0,5.7857,Andesite_rect,1,5.786,0,2,0,2,0,1,,,,,,,,,,,,,
60e7639e8eca5490df1e412e,SCR,2024-06-24_14h56.34.962,LearnStrategy,2023.2.3,Win32,60.24096386,1,1,4,-0.415364583,0.408854167,1,0,0,11.8263,Diorite_14,3,14,6,2,11.826,3,14,0.18359375,-0.2421875,1,0,0,7.3769,Diorite_rect,3,7.377,1,3,0,3,0,1,,,,,,,,,,,,,
60e7639e8eca5490df1e412e,SCR,2024-06-24_14h56.34.962,LearnStrategy,2023.2.3,Win32,60.24096386,1,1,5,0.239583333,0.256510417,1,0,0,1.4984,Pegmatite_09,6,09,5,6,1.498,6,09,0.313802083,-0.266927083,1,0,0,3.0107,Gabbro_rect,4,3.011,0,4,0,4,0,1,,,,,,,,,,,,,
60e7639e8eca5490df1e412e,SCR,2024-06-24_14h56.34.962,LearnStrategy,2023.2.3,Win32,60.24096386,1,1,6,0.403645833,0.41796875,1,0,0,1.4178,Pumice_15,8,15,6,7,1.418,8,15,-0.35546875,-0.26953125,1,0,0,2.2367,Andesite_rect,1,2.237,0,5,0,5,0,1,,,,,,,,,,,,,
60e7639e8eca5490df1e412e,SCR,2024-06-24_14h56.34.962,LearnStrategy,2023.2.3,Win32,60.24096386,1,1,7,0.549479167,0.428385417,1,0,0,1.1684,Andesite_01,1,01,6,8,1.168,1,01,-0.411458333,-0.393229167,1,0,0,2.4723,Obsidian_rect,5,2.472,0,6,0,6,0,1,,,,,,,,,,,,,
60e7639e8eca5490df1e412e,SCR,2024-06-24_14h56.34.962,LearnStrategy,2023.2.3,Win32,60.24096386,1,1,8,-0.575520833,0.1015625,1,0,0,2.4324,Andesite_03,1,03,4,1,2.432,1,03,-0.0703125,-0.265625,1,0,0,7.553,Basalt_rect,2,7.553,0,7,0,7,0,1,,,,,,,,,,,,,
60e7639e8eca5490df1e412e,SCR,2024-06-24_14h56.34.962,LearnStrategy,2023.2.3,Win32,60.24096386,1,1,9,0.545572917,-0.078125,1,0,0,1.3284,Diorite_11,3,11,3,8,1.328,3,11,0.169270833,-0.260416667,1,0,0,2.4376,Diorite_rect,3,2.438,1,8,0,8,0,1,,,,,,,,,,,,,
60e7639e8eca5490df1e412e,SCR,2024-06-24_14h56.34.962,LearnStrategy,2023.2.3,Win32,60.24096386,1,1,10,0.526041667,-0.26171875,1,0,0,1.3198,Obsidian_02,5,02,2,8,1.32,5,02,-0.34375,-0.40234375,1,0,0,4.4841,Obsidian_rect,5,4.484,1,9,0,9,0,1,,,,,,,,,,,,,
60e7639e8eca5490df1e412e,SCR,2024-06-24_14h56.34.962,LearnStrategy,2023.2.3,Win32,60.24096386,1,1,11,-0.069010417,-0.419270833,1,0,0,1.2591,Basalt_10,2,10,1,4,1.259,2,10,-0.0859375,-0.251302083,1,0,0,3.9153,Basalt_rect,2,3.915,1,10,0,10,0,1,,,,,,,,,,,,,
60e7639e8eca5490df1e412e,SCR,2024-06-24_14h56.34.962,LearnStrategy,2023.2.3,Win32,60.24096386,1,1,12,-0.259114583,0.427083333,1,0,0,1.2828,Peridotite_08,7,08,6,3,1.283,7,08,0.106770833,-0.255208333,1,0,0,5.4859,Diorite_rect,3,5.486,0,11,0,11,0,1,,,,,,,,,,,,,
60e7639e8eca5490df1e412e,SCR,2024-06-24_14h56.34.962,LearnStrategy,2023.2.3,Win32,60.24096386,1,1,13,0.377604167,-0.40625,1,0,0,2.3606,Obsidian_10,5,10,1,7,2.361,5,10,-0.32421875,-0.407552083,1,0,0,4.8895,Obsidian_rect,5,4.889,1,12,0,12,0,1,,,,,,,,,,,,,
60e7639e8eca5490df1e412e,SCR,2024-06-24_14h56.34.962,LearnStrategy,2023.2.3,Win32,60.24096386,1,1,14,-0.079427083,0.243489583,1,0,0,1.4778,Gabbro_14,4,14,5,4,1.478,4,14,-0.088541667,-0.270833333,1,0,0,3.6031,Basalt_rect,2,3.603,0,13,0,13,0,1,,,,,,,,,,,,,
60e7639e8eca5490df1e412e,SCR,2024-06-24_14h56.34.962,LearnStrategy,2023.2.3,Win32,60.24096386,1,1,15,0.234375,0.389322917,1,0,0,5.4566,Gabbro_09,4,09,6,6,5.457,4,09,0.125,-0.265625,1,0,0,6.3617,Diorite_rect,3,6.362,0,14,0,14,0,1,,,,,,,,,,,,,
60e7639e8eca5490df1e412e,SCR,2024-06-24_14h56.34.962,LearnStrategy,2023.2.3,Win32,60.24096386,1,1,16,-0.08203125,-0.11328125,1,0,0,0.9358,Basalt_02,2,02,3,4,0.936,2,02,-0.325520833,-0.41796875,1,0,0,3.5366,Obsidian_rect,5,3.537,0,15,0,15,0,1,,,,,,,,,,,,,
60e7639e8eca5490df1e412e,SCR,2024-06-24_14h56.34.962,LearnStrategy,2023.2.3,Win32,60.24096386,1,2,1,,,,,,,,6,10,,,,,,,,,,,,,6,6.817,1,,,,,,-0.111979167,-0.393229167,1,0,0,6.8171,Pegmatite_rect,0,0,0,0,1,
60e7639e8eca5490df1e412e,SCR,2024-06-24_14h56.34.962,LearnStrategy,2023.2.3,Win32,60.24096386,1,2,2,,,,,,,,3,13,,,,,,,,,,,,,8,6.175,0,,,,,,0.373697917,-0.399739583,1,0,0,6.175,Pumice_rect,1,0,1,0,1,
60e7639e8eca5490df1e412e,SCR,2024-06-24_14h56.34.962,LearnStrategy,2023.2.3,Win32,60.24096386,1,2,3,,,,,,,,1,06,,,,,,,,,,,,,1,4.816,1,,,,,,-0.359375,-0.244791667,1,0,0,4.816,Andesite_rect,2,0,2,0,1,
60e7639e8eca5490df1e412e,SCR,2024-06-24_14h56.34.962,LearnStrategy,2023.2.3,Win32,60.24096386,1,2,4,,,,,,,,8,13,,,,,,,,,,,,,2,5.282,0,,,,,,-0.138020833,-0.24609375,1,0,0,5.2823,Basalt_rect,3,0,3,0,1,
60e7639e8eca5490df1e412e,SCR,2024-06-24_14h56.34.962,LearnStrategy,2023.2.3,Win32,60.24096386,1,2,5,,,,,,,,6,11,,,,,,,,,,,,,6,6.871,1,,,,,,-0.061197917,-0.399739583,1,0,0,6.8711,Pegmatite_rect,4,0,4,0,1,
60e7639e8eca5490df1e412e,SCR,2024-06-24_14h56.34.962,LearnStrategy,2023.2.3,Win32,60.24096386,1,2,6,,,,,,,,8,02,,,,,,,,,,,,,8,5.967,1,,,,,,0.41796875,-0.401041667,1,0,0,5.9673,Pumice_rect,5,0,5,0,1,
60e7639e8eca5490df1e412e,SCR,2024-06-24_14h56.34.962,LearnStrategy,2023.2.3,Win32,60.24096386,1,2,7,,,,,,,,5,04,,,,,,,,,,,,,5,3.049,1,,,,,,-0.39453125,-0.407552083,1,0,0,3.0495,Obsidian_rect,6,0,6,0,1,
60e7639e8eca5490df1e412e,SCR,2024-06-24_14h56.34.962,LearnStrategy,2023.2.3,Win32,60.24096386,1,2,8,,,,,,,,3,15,,,,,,,,,,,,,3,4.985,1,,,,,,0.162760417,-0.25,1,0,0,4.9852,Diorite_rect,7,0,7,0,1,
60e7639e8eca5490df1e412e,SCR,2024-06-24_14h56.34.962,LearnStrategy,2023.2.3,Win32,60.24096386,1,2,9,,,,,,,,2,01,,,,,,,,,,,,,4,6.147,0,,,,,,0.356770833,-0.251302083,1,0,0,6.1465,Gabbro_rect,8,0,8,0,1,
60e7639e8eca5490df1e412e,SCR,2024-06-24_14h56.34.962,LearnStrategy,2023.2.3,Win32,60.24096386,1,2,10,,,,,,,,4,05,,,,,,,,,,,,,7,7.435,0,,,,,,0.115885417,-0.408854167,1,0,0,7.4349,Peridotite_rect,9,0,9,0,1,
60e7639e8eca5490df1e412e,SCR,2024-06-24_14h56.34.962,LearnStrategy,2023.2.3,Win32,60.24096386,1,2,11,,,,,,,,2,08,,,,,,,,,,,,,1,8.313,0,,,,,,-0.346354167,-0.247395833,1,0,0,8.3133,Andesite_rect,10,0,10,0,1,
60e7639e8eca5490df1e412e,SCR,2024-06-24_14h56.34.962,LearnStrategy,2023.2.3,Win32,60.24096386,1,2,12,,,,,,,,1,02,,,,,,,,,,,,,7,6.195,0,,,,,,0.165364583,-0.39453125,1,0,0,6.1951,Peridotite_rect,11,0,11,0,1,
60e7639e8eca5490df1e412e,SCR,2024-06-24_14h56.34.962,LearnStrategy,2023.2.3,Win32,60.24096386,1,2,13,,,,,,,,4,15,,,,,,,,,,,,,8,5.805,0,,,,,,0.365885417,-0.40625,1,0,0,5.8052,Pumice_rect,12,0,12,0,1,
60e7639e8eca5490df1e412e,SCR,2024-06-24_14h56.34.962,LearnStrategy,2023.2.3,Win32,60.24096386,1,2,14,,,,,,,,7,14,,,,,,,,,,,,,2,9.497,0,,,,,,-0.083333333,-0.244791667,1,0,0,9.497,Basalt_rect,13,0,13,0,1,
60e7639e8eca5490df1e412e,SCR,2024-06-24_14h56.34.962,LearnStrategy,2023.2.3,Win32,60.24096386,1,2,15,,,,,,,,5,09,,,,,,,,,,,,,5,2.947,1,,,,,,-0.399739583,-0.397135417,1,0,0,2.9469,Obsidian_rect,14,0,14,0,1,
60e7639e8eca5490df1e412e,SCR,2024-06-24_14h56.34.962,LearnStrategy,2023.2.3,Win32,60.24096386,1,2,16,,,,,,,,7,12,,,,,,,,,,,,,7,5.641,1,,,,,,0.118489583,-0.41015625,1,0,0,5.641,Peridotite_rect,15,0,15,0,1,
60e7639e8eca5490df1e412e,SCR,2024-06-24_14h56.34.962,LearnStrategy,2023.2.3,Win32,60.24096386,2,1,1,-0.0625,-0.427083333,1,0,0,2.8026,Basalt_10,2,10,1,4,2.803,2,10,0.119791667,-0.389322917,1,0,0,7.75,Peridotite_rect,7,7.75,0,0,0,0,0,1,,,,,,,,,,,,,
60e7639e8eca5490df1e412e,SCR,2024-06-24_14h56.34.962,LearnStrategy,2023.2.3,Win32,60.24096386,2,1,2,0.393229167,0.265625,1,0,0,1.4109,Diorite_12,3,12,5,7,1.411,3,12,0.145833333,-0.235677083,1,0,0,3.5158,Diorite_rect,3,3.516,1,1,0,1,0,1,,,,,,,,,,,,,
60e7639e8eca5490df1e412e,SCR,2024-06-24_14h56.34.962,LearnStrategy,2023.2.3,Win32,60.24096386,2,1,3,0.580729167,0.248697917,1,0,0,1.3277,Andesite_04,1,04,5,8,1.328,1,04,-0.04296875,-0.252604167,1,0,0,38.7579,Basalt_rect,2,38.758,0,2,0,2,0,1,,,,,,,,,,,,,
60e7639e8eca5490df1e412e,SCR,2024-06-24_14h56.34.962,LearnStrategy,2023.2.3,Win32,60.24096386,2,1,4,0.2109375,0.067708333,1,0,0,0.9704,Andesite_09,1,09,4,6,0.97,1,09,0.111979167,-0.397135417,1,0,0,1.5632,Peridotite_rect,7,1.563,0,3,0,3,0,1,,,,,,,,,,,,,
60e7639e8eca5490df1e412e,SCR,2024-06-24_14h56.34.962,LearnStrategy,2023.2.3,Win32,60.24096386,2,1,5,-0.07421875,-0.1015625,1,0,0,0.845,Basalt_02,2,02,3,4,0.845,2,02,-0.364583333,-0.39453125,1,0,0,1.1972,Obsidian_rect,5,1.197,0,4,0,4,0,1,,,,,,,,,,,,,
60e7639e8eca5490df1e412e,SCR,2024-06-24_14h56.34.962,LearnStrategy,2023.2.3,Win32,60.24096386,2,1,6,0.231770833,0.372395833,1,0,0,1.3516,Gabbro_09,4,09,6,6,1.352,4,09,0.1953125,-0.252604167,1,0,0,1.4576,Diorite_rect,3,1.458,0,5,0,5,0,1,,,,,,,,,,,,,
60e7639e8eca5490df1e412e,SCR,2024-06-24_14h56.34.962,LearnStrategy,2023.2.3,Win32,60.24096386,2,1,7,-0.369791667,0.091145833,1,0,0,1.2583,Peridotite_16,7,16,4,2,1.258,7,16,-0.368489583,-0.40234375,1,0,0,1.8675,Obsidian_rect,5,1.867,0,6,0,6,0,1,,,,,,,,,,,,,
60e7639e8eca5490df1e412e,SCR,2024-06-24_14h56.34.962,LearnStrategy,2023.2.3,Win32,60.24096386,2,1,8,-0.380208333,-0.393229167,1,0,0,1.1543,Pumice_08,8,08,1,2,1.154,8,08,-0.333333333,-0.259114583,1,0,0,1.1163,Andesite_rect,1,1.116,0,7,0,7,0,1,,,,,,,,,,,,,
60e7639e8eca5490df1e412e,SCR,2024-06-24_14h56.34.962,LearnStrategy,2023.2.3,Win32,60.24096386,2,1,9,-0.05859375,0.095052083,1,0,0,0.8433,Basalt_14,2,14,4,4,0.843,2,14,0.311197917,-0.388020833,1,0,0,4.1484,Pumice_rect,8,4.148,0,8,0,8,0,1,,,,,,,,,,,,,
60e7639e8eca5490df1e412e,SCR,2024-06-24_14h56.34.962,LearnStrategy,2023.2.3,Win32,60.24096386,2,1,10,0.37890625,0.234375,1,0,0,4.5999,Diorite_12,3,12,5,7,4.6,3,12,0.1171875,-0.266927083,1,0,0,2.772,Diorite_rect,3,2.772,1,9,0,9,0,1,,,,,,,,,,,,,
60e7639e8eca5490df1e412e,SCR,2024-06-24_14h56.34.962,LearnStrategy,2023.2.3,Win32,60.24096386,2,1,11,-0.263020833,0.248697917,1,0,0,1.0885,Gabbro_08,4,08,5,3,1.089,4,08,0.463541667,-0.24609375,1,0,0,4.3223,Gabbro_rect,4,4.322,1,10,0,10,0,1,,,,,,,,,,,,,
60e7639e8eca5490df1e412e,SCR,2024-06-24_14h56.34.962,LearnStrategy,2023.2.3,Win32,60.24096386,2,1,12,-0.069010417,0.25,1,0,0,0.8967,Gabbro_14,4,14,5,4,0.897,4,14,-0.055989583,-0.38671875,1,0,0,3.226,Pegmatite_rect,6,3.226,0,11,0,11,0,1,,,,,,,,,,,,,
60e7639e8eca5490df1e412e,SCR,2024-06-24_14h56.34.962,LearnStrategy,2023.2.3,Win32,60.24096386,2,1,13,0.561197917,-0.41015625,1,0,0,1.3124,Peridotite_05,7,05,1,8,1.312,7,05,-0.33984375,-0.260416667,1,0,0,3.0316,Andesite_rect,1,3.032,0,12,0,12,0,1,,,,,,,,,,,,,
60e7639e8eca5490df1e412e,SCR,2024-06-24_14h56.34.962,LearnStrategy,2023.2.3,Win32,60.24096386,2,1,14,-0.05859375,-0.243489583,1,0,0,1.2595,Gabbro_10,4,10,2,4,1.26,4,10,-0.34765625,-0.401041667,1,0,0,2.8127,Obsidian_rect,5,2.813,0,13,0,13,0,1,,,,,,,,,,,,,
60e7639e8eca5490df1e412e,SCR,2024-06-24_14h56.34.962,LearnStrategy,2023.2.3,Win32,60.24096386,2,1,15,-0.0625,-0.115885417,1,0,0,0.9234,Basalt_02,2,02,3,4,0.923,2,02,0.368489583,-0.247395833,1,0,0,2.5672,Gabbro_rect,4,2.567,0,14,0,14,0,1,,,,,,,,,,,,,
60e7639e8eca5490df1e412e,SCR,2024-06-24_14h56.34.962,LearnStrategy,2023.2.3,Win32,60.24096386,2,1,16,0.526041667,0.106770833,1,0,0,1.0512,Pumice_06,8,06,4,8,1.051,8,06,0.408854167,-0.388020833,1,0,0,1.4051,Pumice_rect,8,1.405,1,15,0,15,0,1,,,,,,,,,,,,,
60e7639e8eca5490df1e412e,SCR,2024-06-24_14h56.34.962,LearnStrategy,2023.2.3,Win32,60.24096386,2,2,1,,,,,,,,3,08,,,,,,,,,,,,,7,2.917,0,,,,,,0.114583333,-0.401041667,1,0,0,2.9165,Peridotite_rect,0,0,0,0,1,
60e7639e8eca5490df1e412e,SCR,2024-06-24_14h56.34.962,LearnStrategy,2023.2.3,Win32,60.24096386,2,2,2,,,,,,,,4,01,,,,,,,,,,,,,1,6.645,0,,,,,,-0.326822917,-0.265625,1,0,0,6.6455,Andesite_rect,1,0,1,0,1,
60e7639e8eca5490df1e412e,SCR,2024-06-24_14h56.34.962,LearnStrategy,2023.2.3,Win32,60.24096386,2,2,3,,,,,,,,7,15,,,,,,,,,,,,,2,5.096,0,,,,,,-0.177083333,-0.231770833,1,0,0,5.0955,Basalt_rect,2,0,2,0,1,
60e7639e8eca5490df1e412e,SCR,2024-06-24_14h56.34.962,LearnStrategy,2023.2.3,Win32,60.24096386,2,2,4,,,,,,,,7,02,,,,,,,,,,,,,6,5.15,0,,,,,,-0.087239583,-0.393229167,1,0,0,5.1504,Pegmatite_rect,3,0,3,0,1,
60e7639e8eca5490df1e412e,SCR,2024-06-24_14h56.34.962,LearnStrategy,2023.2.3,Win32,60.24096386,2,2,5,,,,,,,,5,14,,,,,,,,,,,,,5,2.552,1,,,,,,-0.360677083,-0.40625,1,0,0,2.5519,Obsidian_rect,4,0,4,0,1,
60e7639e8eca5490df1e412e,SCR,2024-06-24_14h56.34.962,LearnStrategy,2023.2.3,Win32,60.24096386,2,2,6,,,,,,,,2,16,,,,,,,,,,,,,1,4.191,0,,,,,,-0.3203125,-0.259114583,1,0,0,4.1906,Andesite_rect,5,0,5,0,1,
60e7639e8eca5490df1e412e,SCR,2024-06-24_14h56.34.962,LearnStrategy,2023.2.3,Win32,60.24096386,2,2,7,,,,,,,,5,08,,,,,,,,,,,,,5,3.433,1,,,,,,-0.427083333,-0.395833333,1,0,0,3.4326,Obsidian_rect,6,0,6,0,1,
60e7639e8eca5490df1e412e,SCR,2024-06-24_14h56.34.962,LearnStrategy,2023.2.3,Win32,60.24096386,2,2,8,,,,,,,,2,06,,,,,,,,,,,,,4,2.852,0,,,,,,0.352864583,-0.244791667,1,0,0,2.8523,Gabbro_rect,7,0,7,0,1,
60e7639e8eca5490df1e412e,SCR,2024-06-24_14h56.34.962,LearnStrategy,2023.2.3,Win32,60.24096386,2,2,9,,,,,,,,4,03,,,,,,,,,,,,,7,7.529,0,,,,,,0.153645833,-0.404947917,1,0,0,7.5288,Peridotite_rect,8,0,8,0,1,
60e7639e8eca5490df1e412e,SCR,2024-06-24_14h56.34.962,LearnStrategy,2023.2.3,Win32,60.24096386,2,2,10,,,,,,,,3,16,,,,,,,,,,,,,3,6.164,1,,,,,,0.145833333,-0.255208333,1,0,0,6.1644,Diorite_rect,9,0,9,0,1,
60e7639e8eca5490df1e412e,SCR,2024-06-24_14h56.34.962,LearnStrategy,2023.2.3,Win32,60.24096386,2,2,11,,,,,,,,8,14,,,,,,,,,,,,,8,2.265,1,,,,,,0.438802083,-0.399739583,1,0,0,2.2649,Pumice_rect,10,0,10,0,1,
60e7639e8eca5490df1e412e,SCR,2024-06-24_14h56.34.962,LearnStrategy,2023.2.3,Win32,60.24096386,2,2,12,,,,,,,,8,05,,,,,,,,,,,,,8,3.458,1,,,,,,0.354166667,-0.41015625,1,0,0,3.4583,Pumice_rect,11,0,11,0,1,
60e7639e8eca5490df1e412e,SCR,2024-06-24_14h56.34.962,LearnStrategy,2023.2.3,Win32,60.24096386,2,2,13,,,,,,,,1,14,,,,,,,,,,,,,7,4.488,0,,,,,,0.06640625,-0.401041667,1,0,0,4.4876,Peridotite_rect,12,0,12,0,1,
60e7639e8eca5490df1e412e,SCR,2024-06-24_14h56.34.962,LearnStrategy,2023.2.3,Win32,60.24096386,2,2,14,,,,,,,,6,16,,,,,,,,,,,,,6,4.31,1,,,,,,-0.1640625,-0.384114583,1,0,0,4.3103,Pegmatite_rect,13,0,13,0,1,
60e7639e8eca5490df1e412e,SCR,2024-06-24_14h56.34.962,LearnStrategy,2023.2.3,Win32,60.24096386,2,2,15,,,,,,,,1,10,,,,,,,,,,,,,1,5.697,1,,,,,,-0.384114583,-0.26171875,1,0,0,5.6968,Andesite_rect,14,0,14,0,1,
60e7639e8eca5490df1e412e,SCR,2024-06-24_14h56.34.962,LearnStrategy,2023.2.3,Win32,60.24096386,2,2,16,,,,,,,,6,05,,,,,,,,,,,,,2,4.494,0,,,,,,-0.078125,-0.26171875,1,0,0,4.4942,Basalt_rect,15,0,15,0,1,
60e7639e8eca5490df1e412e,SCR,2024-06-24_14h56.34.962,LearnStrategy,2023.2.3,Win32,60.24096386,3,1,1,-0.110677083,0.248697917,1,0,0,0.9847,Gabbro_14,4,14,5,4,0.985,4,14,0.141927083,-0.251302083,1,0,0,1.4687,Diorite_rect,3,1.469,0,0,0,0,0,1,,,,,,,,,,,,,
60e7639e8eca5490df1e412e,SCR,2024-06-24_14h56.34.962,LearnStrategy,2023.2.3,Win32,60.24096386,3,1,2,-0.23046875,0.266927083,1,0,0,1.2444,Gabbro_08,4,08,5,3,1.244,4,08,0.412760417,-0.385416667,1,0,0,1.4997,Pumice_rect,8,1.5,0,1,0,1,0,1,,,,,,,,,,,,,
60e7639e8eca5490df1e412e,SCR,2024-06-24_14h56.34.962,LearnStrategy,2023.2.3,Win32,60.24096386,3,1,3,-0.221354167,0.079427083,1,0,0,1.0702,Pegmatite_13,6,13,4,3,1.07,6,13,0.092447917,-0.393229167,1,0,0,2.4302,Peridotite_rect,7,2.43,0,2,0,2,0,1,,,,,,,,,,,,,
60e7639e8eca5490df1e412e,SCR,2024-06-24_14h56.34.962,LearnStrategy,2023.2.3,Win32,60.24096386,3,1,4,-0.408854167,-0.118489583,1,0,0,1.0686,Basalt_12,2,12,3,2,1.069,2,12,-0.315104167,-0.229166667,1,0,0,3.9481,Andesite_rect,1,3.948,0,3,0,3,0,1,,,,,,,,,,,,,
60e7639e8eca5490df1e412e,SCR,2024-06-24_14h56.34.962,LearnStrategy,2023.2.3,Win32,60.24096386,3,1,5,0.07421875,-0.283854167,1,0,0,1.1341,Peridotite_07,7,07,2,5,1.134,7,07,0.337239583,-0.256510417,1,0,0,6.7819,Gabbro_rect,4,6.782,0,4,0,4,0,1,,,,,,,,,,,,,
60e7639e8eca5490df1e412e,SCR,2024-06-24_14h56.34.962,LearnStrategy,2023.2.3,Win32,60.24096386,3,1,6,-0.247395833,0.40625,1,0,0,1.1508,Peridotite_08,7,08,6,3,1.151,7,08,0.334635417,-0.24609375,1,0,0,1.778,Gabbro_rect,4,1.778,0,5,0,5,0,1,,,,,,,,,,,,,
60e7639e8eca5490df1e412e,SCR,2024-06-24_14h56.34.962,LearnStrategy,2023.2.3,Win32,60.24096386,3,1,7,0.3515625,0.225260417,1,0,0,1.2844,Diorite_12,3,12,5,7,1.284,3,12,0.307291667,-0.385416667,1,0,0,2.9253,Pumice_rect,8,2.925,0,6,0,6,0,1,,,,,,,,,,,,,
60e7639e8eca5490df1e412e,SCR,2024-06-24_14h56.34.962,LearnStrategy,2023.2.3,Win32,60.24096386,3,1,8,-0.427083333,0.0703125,1,0,0,0.9782,Peridotite_16,7,16,4,2,0.978,7,16,-0.14453125,-0.399739583,1,0,0,4.9071,Pegmatite_rect,6,4.907,0,7,0,7,0,1,,,,,,,,,,,,,
60e7639e8eca5490df1e412e,SCR,2024-06-24_14h56.34.962,LearnStrategy,2023.2.3,Win32,60.24096386,3,1,9,0.553385417,0.259114583,1,0,0,1.3895,Andesite_04,1,04,5,8,1.389,1,04,0.348958333,-0.248697917,1,0,0,2.9672,Gabbro_rect,4,2.967,0,8,0,8,0,1,,,,,,,,,,,,,
60e7639e8eca5490df1e412e,SCR,2024-06-24_14h56.34.962,LearnStrategy,2023.2.3,Win32,60.24096386,3,1,10,-0.555989583,-0.41015625,1,0,0,1.0605,Basalt_09,2,09,1,1,1.061,2,09,-0.095052083,-0.252604167,1,0,0,1.449,Basalt_rect,2,1.449,1,9,0,9,0,1,,,,,,,,,,,,,
60e7639e8eca5490df1e412e,SCR,2024-06-24_14h56.34.962,LearnStrategy,2023.2.3,Win32,60.24096386,3,1,11,0.548177083,0.229166667,1,0,0,1.1153,Andesite_04,1,04,5,8,1.115,1,04,-0.126302083,-0.252604167,1,0,0,3.5062,Basalt_rect,2,3.506,0,10,0,10,0,1,,,,,,,,,,,,,
60e7639e8eca5490df1e412e,SCR,2024-06-24_14h56.34.962,LearnStrategy,2023.2.3,Win32,60.24096386,3,1,12,0.516927083,-0.08203125,1,0,0,0.9837,Diorite_11,3,11,3,8,0.984,3,11,0.216145833,-0.244791667,1,0,0,2.9542,Diorite_rect,3,2.954,1,11,0,11,0,1,,,,,,,,,,,,,
60e7639e8eca5490df1e412e,SCR,2024-06-24_14h56.34.962,LearnStrategy,2023.2.3,Win32,60.24096386,3,1,13,0.087239583,-0.092447917,1,0,0,0.8984,Pumice_09,8,09,3,5,0.898,8,09,0.385416667,-0.381510417,1,0,0,1.2521,Pumice_rect,8,1.252,1,12,0,12,0,1,,,,,,,,,,,,,
60e7639e8eca5490df1e412e,SCR,2024-06-24_14h56.34.962,LearnStrategy,2023.2.3,Win32,60.24096386,3,1,14,0.255208333,0.444010417,1,0,0,1.1306,Gabbro_09,4,09,6,6,1.131,4,09,-0.4140625,-0.251302083,1,0,0,2.4655,Andesite_rect,1,2.466,0,13,0,13,0,1,,,,,,,,,,,,,
60e7639e8eca5490df1e412e,SCR,2024-06-24_14h56.34.962,LearnStrategy,2023.2.3,Win32,60.24096386,3,1,15,-0.559895833,0.3984375,1,0,0,1.531,Basalt_05,2,05,6,1,1.531,2,05,-0.39453125,-0.399739583,1,0,0,2.0285,Obsidian_rect,5,2.029,0,14,0,14,0,1,,,,,,,,,,,,,
60e7639e8eca5490df1e412e,SCR,2024-06-24_14h56.34.962,LearnStrategy,2023.2.3,Win32,60.24096386,3,1,16,-0.352864583,-0.125,1,0,0,0.9609,Basalt_12,2,12,3,2,0.961,2,12,-0.061197917,-0.25,1,0,0,3.6224,Basalt_rect,2,3.622,1,15,0,15,0,1,,,,,,,,,,,,,
60e7639e8eca5490df1e412e,SCR,2024-06-24_14h56.34.962,LearnStrategy,2023.2.3,Win32,60.24096386,3,2,1,,,,,,,,2,11,,,,,,,,,,,,,1,4.357,0,,,,,,-0.411458333,-0.266927083,1,0,0,4.3566,Andesite_rect,0,0,0,0,1,
60e7639e8eca5490df1e412e,SCR,2024-06-24_14h56.34.962,LearnStrategy,2023.2.3,Win32,60.24096386,3,2,2,,,,,,,,5,06,,,,,,,,,,,,,5,1.854,1,,,,,,-0.389322917,-0.40234375,1,0,0,1.8539,Obsidian_rect,1,0,1,0,1,
60e7639e8eca5490df1e412e,SCR,2024-06-24_14h56.34.962,LearnStrategy,2023.2.3,Win32,60.24096386,3,2,3,,,,,,,,6,03,,,,,,,,,,,,,6,2.965,1,,,,,,-0.078125,-0.412760417,1,0,0,2.9648,Pegmatite_rect,2,0,2,0,1,
60e7639e8eca5490df1e412e,SCR,2024-06-24_14h56.34.962,LearnStrategy,2023.2.3,Win32,60.24096386,3,2,4,,,,,,,,1,16,,,,,,,,,,,,,3,2.751,0,,,,,,0.1796875,-0.252604167,1,0,0,2.7508,Diorite_rect,3,0,3,0,1,
60e7639e8eca5490df1e412e,SCR,2024-06-24_14h56.34.962,LearnStrategy,2023.2.3,Win32,60.24096386,3,2,5,,,,,,,,3,02,,,,,,,,,,,,,7,6.005,0,,,,,,0.118489583,-0.407552083,1,0,0,6.0054,Peridotite_rect,4,0,4,0,1,
60e7639e8eca5490df1e412e,SCR,2024-06-24_14h56.34.962,LearnStrategy,2023.2.3,Win32,60.24096386,3,2,6,,,,,,,,6,12,,,,,,,,,,,,,6,1.966,1,,,,,,-0.13671875,-0.38671875,1,0,0,1.9663,Pegmatite_rect,5,0,5,0,1,
60e7639e8eca5490df1e412e,SCR,2024-06-24_14h56.34.962,LearnStrategy,2023.2.3,Win32,60.24096386,3,2,7,,,,,,,,7,06,,,,,,,,,,,,,6,4.02,0,,,,,,-0.118489583,-0.391927083,1,0,0,4.0202,Pegmatite_rect,6,0,6,0,1,
60e7639e8eca5490df1e412e,SCR,2024-06-24_14h56.34.962,LearnStrategy,2023.2.3,Win32,60.24096386,3,2,8,,,,,,,,5,11,,,,,,,,,,,,,5,1.622,1,,,,,,-0.3984375,-0.399739583,1,0,0,1.6217,Obsidian_rect,7,0,7,0,1,
60e7639e8eca5490df1e412e,SCR,2024-06-24_14h56.34.962,LearnStrategy,2023.2.3,Win32,60.24096386,3,2,9,,,,,,,,3,06,,,,,,,,,,,,,1,3.648,0,,,,,,-0.381510417,-0.260416667,1,0,0,3.6479,Andesite_rect,8,0,8,0,1,
60e7639e8eca5490df1e412e,SCR,2024-06-24_14h56.34.962,LearnStrategy,2023.2.3,Win32,60.24096386,3,2,10,,,,,,,,4,16,,,,,,,,,,,,,4,4.764,1,,,,,,0.390625,-0.256510417,1,0,0,4.7643,Gabbro_rect,9,0,9,0,1,
60e7639e8eca5490df1e412e,SCR,2024-06-24_14h56.34.962,LearnStrategy,2023.2.3,Win32,60.24096386,3,2,11,,,,,,,,4,11,,,,,,,,,,,,,4,8.705,1,,,,,,0.334635417,-0.2578125,1,0,0,8.7047,Gabbro_rect,10,0,10,0,1,
60e7639e8eca5490df1e412e,SCR,2024-06-24_14h56.34.962,LearnStrategy,2023.2.3,Win32,60.24096386,3,2,12,,,,,,,,1,07,,,,,,,,,,,,,3,6.093,0,,,,,,0.10546875,-0.247395833,1,0,0,6.0932,Diorite_rect,11,0,11,0,1,
60e7639e8eca5490df1e412e,SCR,2024-06-24_14h56.34.962,LearnStrategy,2023.2.3,Win32,60.24096386,3,2,13,,,,,,,,2,04,,,,,,,,,,,,,1,5.197,0,,,,,,-0.36328125,-0.255208333,1,0,0,5.1966,Andesite_rect,12,0,12,0,1,
60e7639e8eca5490df1e412e,SCR,2024-06-24_14h56.34.962,LearnStrategy,2023.2.3,Win32,60.24096386,3,2,14,,,,,,,,7,10,,,,,,,,,,,,,1,5.696,0,,,,,,-0.434895833,-0.25390625,1,0,0,5.6962,Andesite_rect,13,0,13,0,1,
60e7639e8eca5490df1e412e,SCR,2024-06-24_14h56.34.962,LearnStrategy,2023.2.3,Win32,60.24096386,3,2,15,,,,,,,,8,03,,,,,,,,,,,,,8,1.797,1,,,,,,0.368489583,-0.395833333,1,0,0,1.7972,Pumice_rect,14,0,14,0,1,
60e7639e8eca5490df1e412e,SCR,2024-06-24_14h56.34.962,LearnStrategy,2023.2.3,Win32,60.24096386,3,2,16,,,,,,,,8,04,,,,,,,,,,,,,8,1.572,1,,,,,,0.401041667,-0.389322917,1,0,0,1.5717,Pumice_rect,15,0,15,0,1,
60e7639e8eca5490df1e412e,SCR,2024-06-24_14h56.34.962,LearnStrategy,2023.2.3,Win32,60.24096386,4,1,1,0.544270833,-0.104166667,1,0,0,0.9982,Diorite_11,3,11,3,8,0.998,3,11,0.197916667,-0.25,1,0,0,0.9125,Diorite_rect,3,0.913,1,0,0,0,0,1,,,,,,,,,,,,,
60e7639e8eca5490df1e412e,SCR,2024-06-24_14h56.34.962,LearnStrategy,2023.2.3,Win32,60.24096386,4,1,2,0.053385417,0.078125,1,0,0,0.9943,Gabbro_13,4,13,4,5,0.994,4,13,-0.346354167,-0.26171875,1,0,0,2.1512,Andesite_rect,1,2.151,0,1,0,1,0,1,,,,,,,,,,,,,
60e7639e8eca5490df1e412e,SCR,2024-06-24_14h56.34.962,LearnStrategy,2023.2.3,Win32,60.24096386,4,1,3,0.252604167,-0.447916667,1,0,0,1.029,Peridotite_13,7,13,1,6,1.029,7,13,-0.31640625,-0.259114583,1,0,0,9.5556,Andesite_rect,1,9.556,0,2,0,2,0,1,,,,,,,,,,,,,
60e7639e8eca5490df1e412e,SCR,2024-06-24_14h56.34.962,LearnStrategy,2023.2.3,Win32,60.24096386,4,1,4,-0.53515625,-0.415364583,1,0,0,1.1685,Basalt_09,2,09,1,1,1.168,2,09,-0.125,-0.247395833,1,0,0,2.4832,Basalt_rect,2,2.483,1,3,0,3,0,1,,,,,,,,,,,,,
60e7639e8eca5490df1e412e,SCR,2024-06-24_14h56.34.962,LearnStrategy,2023.2.3,Win32,60.24096386,4,1,5,-0.240885417,-0.385416667,1,0,0,1.06,Andesite_05,1,05,1,3,1.06,1,05,0.131510417,-0.40234375,1,0,0,3.1091,Peridotite_rect,7,3.109,0,4,0,4,0,1,,,,,,,,,,,,,
60e7639e8eca5490df1e412e,SCR,2024-06-24_14h56.34.962,LearnStrategy,2023.2.3,Win32,60.24096386,4,1,6,0.56640625,0.427083333,1,0,0,1.0013,Andesite_01,1,01,6,8,1.001,1,01,-0.384114583,-0.420572917,1,0,0,3.9094,Obsidian_rect,5,3.909,0,5,0,5,0,1,,,,,,,,,,,,,
60e7639e8eca5490df1e412e,SCR,2024-06-24_14h56.34.962,LearnStrategy,2023.2.3,Win32,60.24096386,4,1,7,0.5703125,0.2578125,1,0,0,1.7679,Andesite_04,1,04,5,8,1.768,1,04,0.296875,-0.263020833,1,0,0,7.0606,Gabbro_rect,4,7.061,0,6,0,6,0,1,,,,,,,,,,,,,
60e7639e8eca5490df1e412e,SCR,2024-06-24_14h56.34.962,LearnStrategy,2023.2.3,Win32,60.24096386,4,1,8,-0.40625,0.419270833,1,0,0,0.9889,Diorite_14,3,14,6,2,0.989,3,14,0.2109375,-0.251302083,1,0,0,3.2348,Diorite_rect,3,3.235,1,7,0,7,0,1,,,,,,,,,,,,,
60e7639e8eca5490df1e412e,SCR,2024-06-24_14h56.34.962,LearnStrategy,2023.2.3,Win32,60.24096386,4,1,9,-0.411458333,0.40234375,1,0,0,1.212,Diorite_14,3,14,6,2,1.212,3,14,0.177083333,-0.229166667,1,0,0,1.1796,Diorite_rect,3,1.18,1,8,0,8,0,1,,,,,,,,,,,,,
60e7639e8eca5490df1e412e,SCR,2024-06-24_14h56.34.962,LearnStrategy,2023.2.3,Win32,60.24096386,4,1,10,-0.084635417,-0.109375,1,0,0,0.9078,Basalt_02,2,02,3,4,0.908,2,02,-0.130208333,-0.256510417,1,0,0,4.7693,Basalt_rect,2,4.769,1,9,0,9,0,1,,,,,,,,,,,,,
60e7639e8eca5490df1e412e,SCR,2024-06-24_14h56.34.962,LearnStrategy,2023.2.3,Win32,60.24096386,4,1,11,-0.096354167,-0.4609375,1,0,0,1.0195,Basalt_10,2,10,1,4,1.019,2,10,0.404947917,-0.2578125,1,0,0,3.0922,Gabbro_rect,4,3.092,0,10,0,10,0,1,,,,,,,,,,,,,
60e7639e8eca5490df1e412e,SCR,2024-06-24_14h56.34.962,LearnStrategy,2023.2.3,Win32,60.24096386,4,1,12,0.111979167,-0.283854167,1,0,0,0.9604,Peridotite_07,7,07,2,5,0.96,7,07,-0.35546875,-0.26171875,1,0,0,2.5047,Andesite_rect,1,2.505,0,11,0,11,0,1,,,,,,,,,,,,,
60e7639e8eca5490df1e412e,SCR,2024-06-24_14h56.34.962,LearnStrategy,2023.2.3,Win32,60.24096386,4,1,13,0.057291667,-0.3984375,1,0,0,1.0524,Pegmatite_06,6,06,1,5,1.052,6,06,-0.09375,-0.397135417,1,0,0,2.2858,Pegmatite_rect,6,2.286,1,12,0,12,0,1,,,,,,,,,,,,,
60e7639e8eca5490df1e412e,SCR,2024-06-24_14h56.34.962,LearnStrategy,2023.2.3,Win32,60.24096386,4,1,14,-0.3828125,0.084635417,1,0,0,0.9477,Peridotite_16,7,16,4,2,0.948,7,16,0.41796875,-0.263020833,1,0,0,1.9006,Gabbro_rect,4,1.901,0,13,0,13,0,1,,,,,,,,,,,,,
60e7639e8eca5490df1e412e,SCR,2024-06-24_14h56.34.962,LearnStrategy,2023.2.3,Win32,60.24096386,4,1,15,0.393229167,0.376302083,1,0,0,1.8899,Pumice_15,8,15,6,7,1.89,8,15,0.44921875,-0.416666667,1,0,0,2.0594,Pumice_rect,8,2.059,1,14,0,14,0,1,,,,,,,,,,,,,
60e7639e8eca5490df1e412e,SCR,2024-06-24_14h56.34.962,LearnStrategy,2023.2.3,Win32,60.24096386,4,1,16,-0.079427083,0.23828125,1,0,0,1.2244,Gabbro_14,4,14,5,4,1.224,4,14,0.063802083,-0.403645833,1,0,0,5.5126,Peridotite_rect,7,5.513,0,15,0,15,0,1,,,,,,,,,,,,,
60e7639e8eca5490df1e412e,SCR,2024-06-24_14h56.34.962,LearnStrategy,2023.2.3,Win32,60.24096386,4,2,1,,,,,,,,2,16,,,,,,,,,,,,,4,11.222,0,,,,,,0.361979167,-0.229166667,1,0,0,11.2225,Gabbro_rect,0,0,0,0,1,
60e7639e8eca5490df1e412e,SCR,2024-06-24_14h56.34.962,LearnStrategy,2023.2.3,Win32,60.24096386,4,2,2,,,,,,,,3,13,,,,,,,,,,,,,3,2.629,1,,,,,,0.16015625,-0.256510417,1,0,0,2.6288,Diorite_rect,1,0,1,0,1,
60e7639e8eca5490df1e412e,SCR,2024-06-24_14h56.34.962,LearnStrategy,2023.2.3,Win32,60.24096386,4,2,3,,,,,,,,2,06,,,,,,,,,,,,,2,3.181,1,,,,,,-0.141927083,-0.264322917,1,0,0,3.1809,Basalt_rect,2,0,2,0,1,
60e7639e8eca5490df1e412e,SCR,2024-06-24_14h56.34.962,LearnStrategy,2023.2.3,Win32,60.24096386,4,2,4,,,,,,,,5,06,,,,,,,,,,,,,5,1.382,1,,,,,,-0.3671875,-0.390625,1,0,0,1.3825,Obsidian_rect,3,0,3,0,1,
60e7639e8eca5490df1e412e,SCR,2024-06-24_14h56.34.962,LearnStrategy,2023.2.3,Win32,60.24096386,4,2,5,,,,,,,,4,01,,,,,,,,,,,,,1,6.844,0,,,,,,-0.427083333,-0.25390625,1,0,0,6.8437,Andesite_rect,4,0,4,0,1,
60e7639e8eca5490df1e412e,SCR,2024-06-24_14h56.34.962,LearnStrategy,2023.2.3,Win32,60.24096386,4,2,6,,,,,,,,1,02,,,,,,,,,,,,,8,2.654,0,,,,,,0.38671875,-0.416666667,1,0,0,2.6536,Pumice_rect,5,0,5,0,1,
60e7639e8eca5490df1e412e,SCR,2024-06-24_14h56.34.962,LearnStrategy,2023.2.3,Win32,60.24096386,4,2,7,,,,,,,,8,13,,,,,,,,,,,,,8,2.057,1,,,,,,0.385416667,-0.40234375,1,0,0,2.0573,Pumice_rect,6,0,6,0,1,
60e7639e8eca5490df1e412e,SCR,2024-06-24_14h56.34.962,LearnStrategy,2023.2.3,Win32,60.24096386,4,2,8,,,,,,,,6,05,,,,,,,,,,,,,6,4.674,1,,,,,,-0.079427083,-0.39453125,1,0,0,4.6743,Pegmatite_rect,7,0,7,0,1,
60e7639e8eca5490df1e412e,SCR,2024-06-24_14h56.34.962,LearnStrategy,2023.2.3,Win32,60.24096386,4,2,9,,,,,,,,3,06,,,,,,,,,,,,,3,5.771,1,,,,,,0.2109375,-0.26171875,1,0,0,5.7714,Diorite_rect,8,0,8,0,1,
60e7639e8eca5490df1e412e,SCR,2024-06-24_14h56.34.962,LearnStrategy,2023.2.3,Win32,60.24096386,4,2,10,,,,,,,,1,06,,,,,,,,,,,,,3,6.91,0,,,,,,0.098958333,-0.243489583,1,0,0,6.9101,Diorite_rect,9,0,9,0,1,
60e7639e8eca5490df1e412e,SCR,2024-06-24_14h56.34.962,LearnStrategy,2023.2.3,Win32,60.24096386,4,2,11,,,,,,,,8,02,,,,,,,,,,,,,8,2.044,1,,,,,,0.356770833,-0.420572917,1,0,0,2.0439,Pumice_rect,10,0,10,0,1,
60e7639e8eca5490df1e412e,SCR,2024-06-24_14h56.34.962,LearnStrategy,2023.2.3,Win32,60.24096386,4,2,12,,,,,,,,7,14,,,,,,,,,,,,,6,2.25,0,,,,,,-0.1640625,-0.39453125,1,0,0,2.2497,Pegmatite_rect,11,0,11,0,1,
60e7639e8eca5490df1e412e,SCR,2024-06-24_14h56.34.962,LearnStrategy,2023.2.3,Win32,60.24096386,4,2,13,,,,,,,,4,11,,,,,,,,,,,,,2,2.146,0,,,,,,-0.145833333,-0.251302083,1,0,0,2.1456,Basalt_rect,12,0,12,0,1,
60e7639e8eca5490df1e412e,SCR,2024-06-24_14h56.34.962,LearnStrategy,2023.2.3,Win32,60.24096386,4,2,14,,,,,,,,5,04,,,,,,,,,,,,,5,1.501,1,,,,,,-0.341145833,-0.390625,1,0,0,1.5011,Obsidian_rect,13,0,13,0,1,
60e7639e8eca5490df1e412e,SCR,2024-06-24_14h56.34.962,LearnStrategy,2023.2.3,Win32,60.24096386,4,2,15,,,,,,,,7,06,,,,,,,,,,,,,7,3.583,1,,,,,,0.0546875,-0.408854167,1,0,0,3.5828,Peridotite_rect,14,0,14,0,1,
60e7639e8eca5490df1e412e,SCR,2024-06-24_14h56.34.962,LearnStrategy,2023.2.3,Win32,60.24096386,4,2,16,,,,,,,,6,10,,,,,,,,,,,,,7,2.793,0,,,,,,0.125,-0.41796875,1,0,0,2.7929,Peridotite_rect,15,0,15,0,1,
60e7639e8eca5490df1e412e,SCR,2024-06-24_14h56.34.962,LearnStrategy,2023.2.3,Win32,60.24096386,5,1,1,-0.40234375,0.09765625,1,0,0,0.9761,Peridotite_16,7,16,4,2,0.976,7,16,0.143229167,-0.25,1,0,0,1.5193,Diorite_rect,3,1.519,0,0,0,0,0,1,,,,,,,,,,,,,
60e7639e8eca5490df1e412e,SCR,2024-06-24_14h56.34.962,LearnStrategy,2023.2.3,Win32,60.24096386,5,1,2,-0.403645833,0.065104167,1,0,0,1.0477,Peridotite_16,7,16,4,2,1.048,7,16,0.3515625,-0.255208333,1,0,0,1.7595,Gabbro_rect,4,1.759,0,1,0,1,0,1,,,,,,,,,,,,,
60e7639e8eca5490df1e412e,SCR,2024-06-24_14h56.34.962,LearnStrategy,2023.2.3,Win32,60.24096386,5,1,3,-0.4296875,0.4296875,1,0,0,1.0851,Diorite_14,3,14,6,2,1.085,3,14,0.131510417,-0.235677083,1,0,0,0.9348,Diorite_rect,3,0.935,1,2,0,2,0,1,,,,,,,,,,,,,
60e7639e8eca5490df1e412e,SCR,2024-06-24_14h56.34.962,LearnStrategy,2023.2.3,Win32,60.24096386,5,1,4,-0.22265625,-0.361979167,1,0,0,1.3245,Andesite_05,1,05,1,3,1.324,1,05,-0.337239583,-0.248697917,1,0,0,2.3654,Andesite_rect,1,2.365,1,3,0,3,0,1,,,,,,,,,,,,,
60e7639e8eca5490df1e412e,SCR,2024-06-24_14h56.34.962,LearnStrategy,2023.2.3,Win32,60.24096386,5,1,5,0.252604167,-0.430989583,1,0,0,0.9912,Peridotite_13,7,13,1,6,0.991,7,13,-0.135416667,-0.401041667,1,0,0,3.8281,Pegmatite_rect,6,3.828,0,4,0,4,0,1,,,,,,,,,,,,,
60e7639e8eca5490df1e412e,SCR,2024-06-24_14h56.34.962,LearnStrategy,2023.2.3,Win32,60.24096386,5,1,6,-0.0546875,0.240885417,1,0,0,1.0336,Gabbro_14,4,14,5,4,1.034,4,14,0.341145833,-0.231770833,1,0,0,1.7381,Gabbro_rect,4,1.738,1,5,0,5,0,1,,,,,,,,,,,,,
60e7639e8eca5490df1e412e,SCR,2024-06-24_14h56.34.962,LearnStrategy,2023.2.3,Win32,60.24096386,5,1,7,0.39453125,-0.2734375,1,0,0,1.6828,Pegmatite_15,6,15,2,7,1.683,6,15,0.0859375,-0.399739583,1,0,0,1.6228,Peridotite_rect,7,1.623,0,6,0,6,0,1,,,,,,,,,,,,,
60e7639e8eca5490df1e412e,SCR,2024-06-24_14h56.34.962,LearnStrategy,2023.2.3,Win32,60.24096386,5,1,8,-0.259114583,0.266927083,1,0,0,1.5395,Gabbro_08,4,08,5,3,1.539,4,08,0.40234375,-0.25390625,1,0,0,2.9742,Gabbro_rect,4,2.974,1,7,0,7,0,1,,,,,,,,,,,,,
60e7639e8eca5490df1e412e,SCR,2024-06-24_14h56.34.962,LearnStrategy,2023.2.3,Win32,60.24096386,5,1,9,0.552083333,0.255208333,1,0,0,1.0744,Andesite_04,1,04,5,8,1.074,1,04,-0.41796875,-0.260416667,1,0,0,2.5659,Andesite_rect,1,2.566,1,8,0,8,0,1,,,,,,,,,,,,,
60e7639e8eca5490df1e412e,SCR,2024-06-24_14h56.34.962,LearnStrategy,2023.2.3,Win32,60.24096386,5,1,10,-0.5234375,0.454427083,1,0,0,2.2703,Basalt_05,2,05,6,1,2.27,2,05,-0.393229167,-0.404947917,1,0,0,1.9021,Obsidian_rect,5,1.902,0,9,0,9,0,1,,,,,,,,,,,,,
60e7639e8eca5490df1e412e,SCR,2024-06-24_14h56.34.962,LearnStrategy,2023.2.3,Win32,60.24096386,5,1,11,-0.578125,0.263020833,1,0,0,0.9561,Pumice_16,8,16,5,1,0.956,8,16,0.356770833,-0.393229167,1,0,0,2.7741,Pumice_rect,8,2.774,1,10,0,10,0,1,,,,,,,,,,,,,
60e7639e8eca5490df1e412e,SCR,2024-06-24_14h56.34.962,LearnStrategy,2023.2.3,Win32,60.24096386,5,1,12,-0.247395833,0.268229167,1,0,0,1.0032,Gabbro_08,4,08,5,3,1.003,4,08,0.4453125,-0.40625,1,0,0,2.6377,Pumice_rect,8,2.638,0,11,0,11,0,1,,,,,,,,,,,,,
60e7639e8eca5490df1e412e,SCR,2024-06-24_14h56.34.962,LearnStrategy,2023.2.3,Win32,60.24096386,5,1,13,-0.052083333,0.065104167,1,0,0,1.0396,Basalt_14,2,14,4,4,1.04,2,14,0.33984375,-0.25,1,0,0,1.7051,Gabbro_rect,4,1.705,0,12,0,12,0,1,,,,,,,,,,,,,
60e7639e8eca5490df1e412e,SCR,2024-06-24_14h56.34.962,LearnStrategy,2023.2.3,Win32,60.24096386,5,1,14,0.412760417,0.264322917,1,0,0,1.1488,Diorite_12,3,12,5,7,1.149,3,12,0.1328125,-0.24609375,1,0,0,1.6863,Diorite_rect,3,1.686,1,13,0,13,0,1,,,,,,,,,,,,,
60e7639e8eca5490df1e412e,SCR,2024-06-24_14h56.34.962,LearnStrategy,2023.2.3,Win32,60.24096386,5,1,15,-0.58984375,0.389322917,1,0,0,1.2827,Basalt_05,2,05,6,1,1.283,2,05,-0.348958333,-0.380208333,1,0,0,2.5779,Obsidian_rect,5,2.578,0,14,0,14,0,1,,,,,,,,,,,,,
60e7639e8eca5490df1e412e,SCR,2024-06-24_14h56.34.962,LearnStrategy,2023.2.3,Win32,60.24096386,5,1,16,0.55078125,0.234375,1,0,0,1.0441,Andesite_04,1,04,5,8,1.044,1,04,-0.053385417,-0.252604167,1,0,0,2.2388,Basalt_rect,2,2.239,0,15,0,15,0,1,,,,,,,,,,,,,
60e7639e8eca5490df1e412e,SCR,2024-06-24_14h56.34.962,LearnStrategy,2023.2.3,Win32,60.24096386,5,2,1,,,,,,,,8,14,,,,,,,,,,,,,8,1.776,1,,,,,,0.375,-0.389322917,1,0,0,1.776,Pumice_rect,0,0,0,0,1,
60e7639e8eca5490df1e412e,SCR,2024-06-24_14h56.34.962,LearnStrategy,2023.2.3,Win32,60.24096386,5,2,2,,,,,,,,7,12,,,,,,,,,,,,,3,1.82,0,,,,,,0.10546875,-0.2421875,1,0,0,1.8201,Diorite_rect,1,0,1,0,1,
60e7639e8eca5490df1e412e,SCR,2024-06-24_14h56.34.962,LearnStrategy,2023.2.3,Win32,60.24096386,5,2,3,,,,,,,,1,16,,,,,,,,,,,,,7,3.978,0,,,,,,0.09375,-0.393229167,1,0,0,3.978,Peridotite_rect,2,0,2,0,1,
60e7639e8eca5490df1e412e,SCR,2024-06-24_14h56.34.962,LearnStrategy,2023.2.3,Win32,60.24096386,5,2,4,,,,,,,,5,14,,,,,,,,,,,,,5,1.929,1,,,,,,-0.446614583,-0.39453125,1,0,0,1.9292,Obsidian_rect,3,0,3,0,1,
60e7639e8eca5490df1e412e,SCR,2024-06-24_14h56.34.962,LearnStrategy,2023.2.3,Win32,60.24096386,5,2,5,,,,,,,,8,04,,,,,,,,,,,,,8,1.731,1,,,,,,0.434895833,-0.421875,1,0,0,1.7313,Pumice_rect,4,0,4,0,1,
60e7639e8eca5490df1e412e,SCR,2024-06-24_14h56.34.962,LearnStrategy,2023.2.3,Win32,60.24096386,5,2,6,,,,,,,,3,08,,,,,,,,,,,,,7,2.74,0,,,,,,0.126302083,-0.420572917,1,0,0,2.7401,Peridotite_rect,5,0,5,0,1,
60e7639e8eca5490df1e412e,SCR,2024-06-24_14h56.34.962,LearnStrategy,2023.2.3,Win32,60.24096386,5,2,7,,,,,,,,4,15,,,,,,,,,,,,,4,6.25,1,,,,,,0.444010417,-0.256510417,1,0,0,6.2503,Gabbro_rect,6,0,6,0,1,
60e7639e8eca5490df1e412e,SCR,2024-06-24_14h56.34.962,LearnStrategy,2023.2.3,Win32,60.24096386,5,2,8,,,,,,,,6,12,,,,,,,,,,,,,6,3.499,1,,,,,,-0.118489583,-0.416666667,1,0,0,3.4986,Pegmatite_rect,7,0,7,0,1,
60e7639e8eca5490df1e412e,SCR,2024-06-24_14h56.34.962,LearnStrategy,2023.2.3,Win32,60.24096386,5,2,9,,,,,,,,6,03,,,,,,,,,,,,,6,3.457,1,,,,,,-0.138020833,-0.39453125,1,0,0,3.4575,Pegmatite_rect,8,0,8,0,1,
60e7639e8eca5490df1e412e,SCR,2024-06-24_14h56.34.962,LearnStrategy,2023.2.3,Win32,60.24096386,5,2,10,,,,,,,,5,09,,,,,,,,,,,,,5,2.396,1,,,,,,-0.37890625,-0.39453125,1,0,0,2.3957,Obsidian_rect,9,0,9,0,1,
60e7639e8eca5490df1e412e,SCR,2024-06-24_14h56.34.962,LearnStrategy,2023.2.3,Win32,60.24096386,5,2,11,,,,,,,,2,04,,,,,,,,,,,,,2,2.575,1,,,,,,-0.162760417,-0.268229167,1,0,0,2.5748,Basalt_rect,10,0,10,0,1,
60e7639e8eca5490df1e412e,SCR,2024-06-24_14h56.34.962,LearnStrategy,2023.2.3,Win32,60.24096386,5,2,12,,,,,,,,7,15,,,,,,,,,,,,,3,3.406,0,,,,,,0.157552083,-0.243489583,1,0,0,3.4063,Diorite_rect,11,0,11,0,1,
60e7639e8eca5490df1e412e,SCR,2024-06-24_14h56.34.962,LearnStrategy,2023.2.3,Win32,60.24096386,5,2,13,,,,,,,,1,07,,,,,,,,,,,,,2,7.245,0,,,,,,-0.134114583,-0.2421875,1,0,0,7.2445,Basalt_rect,12,0,12,0,1,
60e7639e8eca5490df1e412e,SCR,2024-06-24_14h56.34.962,LearnStrategy,2023.2.3,Win32,60.24096386,5,2,14,,,,,,,,4,16,,,,,,,,,,,,,4,4.264,1,,,,,,0.44921875,-0.256510417,1,0,0,4.2643,Gabbro_rect,13,0,13,0,1,
60e7639e8eca5490df1e412e,SCR,2024-06-24_14h56.34.962,LearnStrategy,2023.2.3,Win32,60.24096386,5,2,15,,,,,,,,3,15,,,,,,,,,,,,,7,2.883,0,,,,,,0.13671875,-0.401041667,1,0,0,2.8832,Peridotite_rect,14,0,14,0,1,
60e7639e8eca5490df1e412e,SCR,2024-06-24_14h56.34.962,LearnStrategy,2023.2.3,Win32,60.24096386,5,2,16,,,,,,,,2,01,,,,,,,,,,,,,4,3.291,0,,,,,,0.46484375,-0.264322917,1,0,0,3.2913,Gabbro_rect,15,0,15,0,1,
60e7639e8eca5490df1e412e,SCR,2024-06-24_14h56.34.962,LearnStrategy,2023.2.3,Win32,60.24096386,6,1,1,-0.498697917,0.404947917,1,0,0,20.5996,Basalt_05,2,05,6,1,20.6,2,05,0.3828125,-0.233072917,1,0,0,1.3959,Gabbro_rect,4,1.396,0,0,0,0,0,1,,,,,,,,,,,,,
60e7639e8eca5490df1e412e,SCR,2024-06-24_14h56.34.962,LearnStrategy,2023.2.3,Win32,60.24096386,6,1,2,0.598958333,-0.126302083,1,0,0,2.783,Diorite_11,3,11,3,8,2.783,3,11,0.131510417,-0.259114583,1,0,0,3.1265,Diorite_rect,3,3.127,1,1,0,1,0,1,,,,,,,,,,,,,
60e7639e8eca5490df1e412e,SCR,2024-06-24_14h56.34.962,LearnStrategy,2023.2.3,Win32,60.24096386,6,1,3,0.544270833,0.399739583,1,0,0,1.1616,Andesite_01,1,01,6,8,1.162,1,01,0.395833333,-0.260416667,1,0,0,2.7505,Gabbro_rect,4,2.75,0,2,0,2,0,1,,,,,,,,,,,,,
60e7639e8eca5490df1e412e,SCR,2024-06-24_14h56.34.962,LearnStrategy,2023.2.3,Win32,60.24096386,6,1,4,-0.071614583,-0.282552083,1,0,0,0.9117,Gabbro_10,4,10,2,4,0.912,4,10,-0.404947917,-0.23828125,1,0,0,2.2447,Andesite_rect,1,2.245,0,3,0,3,0,1,,,,,,,,,,,,,
60e7639e8eca5490df1e412e,SCR,2024-06-24_14h56.34.962,LearnStrategy,2023.2.3,Win32,60.24096386,6,1,5,-0.19921875,0.397135417,1,0,0,1.586,Peridotite_08,7,08,6,3,1.586,7,08,0.140625,-0.2421875,1,0,0,1.2718,Diorite_rect,3,1.272,0,4,0,4,0,1,,,,,,,,,,,,,
60e7639e8eca5490df1e412e,SCR,2024-06-24_14h56.34.962,LearnStrategy,2023.2.3,Win32,60.24096386,6,1,6,-0.390625,-0.256510417,1,0,0,1.0713,Pegmatite_07,6,07,2,2,1.071,6,07,0.1484375,-0.395833333,1,0,0,1.1597,Peridotite_rect,7,1.16,0,5,0,5,0,1,,,,,,,,,,,,,
60e7639e8eca5490df1e412e,SCR,2024-06-24_14h56.34.962,LearnStrategy,2023.2.3,Win32,60.24096386,6,1,7,-0.04296875,-0.0625,1,0,0,0.9911,Basalt_02,2,02,3,4,0.991,2,02,-0.1328125,-0.244791667,1,0,0,1.1993,Basalt_rect,2,1.199,1,6,0,6,0,1,,,,,,,,,,,,,
60e7639e8eca5490df1e412e,SCR,2024-06-24_14h56.34.962,LearnStrategy,2023.2.3,Win32,60.24096386,6,1,8,0.40625,0.09765625,1,0,0,1.0616,Diorite_09,3,09,4,7,1.062,3,09,0.083333333,-0.2578125,1,0,0,1.3527,Diorite_rect,3,1.353,1,7,0,7,0,1,,,,,,,,,,,,,
60e7639e8eca5490df1e412e,SCR,2024-06-24_14h56.34.962,LearnStrategy,2023.2.3,Win32,60.24096386,6,1,9,-0.096354167,0.376302083,1,0,0,1.1682,Andesite_11,1,11,6,4,1.168,1,11,-0.080729167,-0.2578125,1,0,0,2.394,Basalt_rect,2,2.394,0,8,0,8,0,1,,,,,,,,,,,,,
60e7639e8eca5490df1e412e,SCR,2024-06-24_14h56.34.962,LearnStrategy,2023.2.3,Win32,60.24096386,6,1,10,0.546875,-0.1015625,1,0,0,1.1738,Diorite_11,3,11,3,8,1.174,3,11,0.143229167,-0.268229167,1,0,0,1.3467,Diorite_rect,3,1.347,1,9,0,9,0,1,,,,,,,,,,,,,
60e7639e8eca5490df1e412e,SCR,2024-06-24_14h56.34.962,LearnStrategy,2023.2.3,Win32,60.24096386,6,1,11,-0.076822917,-0.415364583,1,0,0,7.4569,Basalt_10,2,10,1,4,7.457,2,10,-0.110677083,-0.235677083,1,0,0,5.1899,Basalt_rect,2,5.19,1,10,0,10,0,1,,,,,,,,,,,,,
60e7639e8eca5490df1e412e,SCR,2024-06-24_14h56.34.962,LearnStrategy,2023.2.3,Win32,60.24096386,6,1,12,0.23046875,-0.397135417,1,0,0,0.9959,Peridotite_13,7,13,1,6,0.996,7,13,0.171875,-0.24609375,1,0,0,1.1752,Diorite_rect,3,1.175,0,11,0,11,0,1,,,,,,,,,,,,,
60e7639e8eca5490df1e412e,SCR,2024-06-24_14h56.34.962,LearnStrategy,2023.2.3,Win32,60.24096386,6,1,13,-0.09375,0.436197917,1,0,0,1.3611,Andesite_11,1,11,6,4,1.361,1,11,-0.15625,-0.25390625,1,0,0,3.3648,Basalt_rect,2,3.365,0,12,0,12,0,1,,,,,,,,,,,,,
60e7639e8eca5490df1e412e,SCR,2024-06-24_14h56.34.962,LearnStrategy,2023.2.3,Win32,60.24096386,6,1,14,-0.565104167,0.263020833,1,0,0,1.15,Pumice_16,8,16,5,1,1.15,8,16,0.401041667,-0.393229167,1,0,0,1.0965,Pumice_rect,8,1.097,1,13,0,13,0,1,,,,,,,,,,,,,
60e7639e8eca5490df1e412e,SCR,2024-06-24_14h56.34.962,LearnStrategy,2023.2.3,Win32,60.24096386,6,1,15,0.083333333,-0.2734375,1,0,0,1.2043,Peridotite_07,7,07,2,5,1.204,7,07,0.138020833,-0.2421875,1,0,0,1.1423,Diorite_rect,3,1.142,0,14,0,14,0,1,,,,,,,,,,,,,
60e7639e8eca5490df1e412e,SCR,2024-06-24_14h56.34.962,LearnStrategy,2023.2.3,Win32,60.24096386,6,1,16,0.264322917,0.421875,1,0,0,1.4021,Gabbro_09,4,09,6,6,1.402,4,09,-0.41796875,-0.391927083,1,0,0,2.8898,Obsidian_rect,5,2.89,0,15,0,15,0,1,,,,,,,,,,,,,
60e7639e8eca5490df1e412e,SCR,2024-06-24_14h56.34.962,LearnStrategy,2023.2.3,Win32,60.24096386,6,2,1,,,,,,,,4,03,,,,,,,,,,,,,2,24.75,0,,,,,,-0.18359375,-0.248697917,1,0,0,24.7498,Basalt_rect,0,0,0,0,1,
60e7639e8eca5490df1e412e,SCR,2024-06-24_14h56.34.962,LearnStrategy,2023.2.3,Win32,60.24096386,6,2,2,,,,,,,,6,11,,,,,,,,,,,,,7,1.741,0,,,,,,0.126302083,-0.384114583,1,0,0,1.7409,Peridotite_rect,1,0,1,0,1,
60e7639e8eca5490df1e412e,SCR,2024-06-24_14h56.34.962,LearnStrategy,2023.2.3,Win32,60.24096386,6,2,3,,,,,,,,1,14,,,,,,,,,,,,,6,1.508,0,,,,,,-0.114583333,-0.37890625,1,0,0,1.5079,Pegmatite_rect,2,0,2,0,1,
60e7639e8eca5490df1e412e,SCR,2024-06-24_14h56.34.962,LearnStrategy,2023.2.3,Win32,60.24096386,6,2,4,,,,,,,,4,05,,,,,,,,,,,,,3,1.644,0,,,,,,0.153645833,-0.264322917,1,0,0,1.6441,Diorite_rect,3,0,3,0,1,
60e7639e8eca5490df1e412e,SCR,2024-06-24_14h56.34.962,LearnStrategy,2023.2.3,Win32,60.24096386,6,2,5,,,,,,,,3,02,,,,,,,,,,,,,6,2.188,0,,,,,,-0.182291667,-0.399739583,1,0,0,2.1883,Pegmatite_rect,4,0,4,0,1,
60e7639e8eca5490df1e412e,SCR,2024-06-24_14h56.34.962,LearnStrategy,2023.2.3,Win32,60.24096386,6,2,6,,,,,,,,7,10,,,,,,,,,,,,,1,1.788,0,,,,,,-0.376302083,-0.23828125,1,0,0,1.7882,Andesite_rect,5,0,5,0,1,
60e7639e8eca5490df1e412e,SCR,2024-06-24_14h56.34.962,LearnStrategy,2023.2.3,Win32,60.24096386,6,2,7,,,,,,,,7,02,,,,,,,,,,,,,7,2.572,1,,,,,,0.173177083,-0.397135417,1,0,0,2.5723,Peridotite_rect,6,0,6,0,1,
60e7639e8eca5490df1e412e,SCR,2024-06-24_14h56.34.962,LearnStrategy,2023.2.3,Win32,60.24096386,6,2,8,,,,,,,,6,16,,,,,,,,,,,,,6,1.942,1,,,,,,-0.088541667,-0.390625,1,0,0,1.942,Pegmatite_rect,7,0,7,0,1,
60e7639e8eca5490df1e412e,SCR,2024-06-24_14h56.34.962,LearnStrategy,2023.2.3,Win32,60.24096386,6,2,9,,,,,,,,5,11,,,,,,,,,,,,,5,1.384,1,,,,,,-0.403645833,-0.407552083,1,0,0,1.3842,Obsidian_rect,8,0,8,0,1,
60e7639e8eca5490df1e412e,SCR,2024-06-24_14h56.34.962,LearnStrategy,2023.2.3,Win32,60.24096386,6,2,10,,,,,,,,8,03,,,,,,,,,,,,,8,1.982,1,,,,,,0.428385417,-0.41015625,1,0,0,1.9822,Pumice_rect,9,0,9,0,1,
60e7639e8eca5490df1e412e,SCR,2024-06-24_14h56.34.962,LearnStrategy,2023.2.3,Win32,60.24096386,6,2,11,,,,,,,,1,10,,,,,,,,,,,,,2,4.138,0,,,,,,-0.15234375,-0.244791667,1,0,0,4.138,Basalt_rect,10,0,10,0,1,
60e7639e8eca5490df1e412e,SCR,2024-06-24_14h56.34.962,LearnStrategy,2023.2.3,Win32,60.24096386,6,2,12,,,,,,,,2,11,,,,,,,,,,,,,2,1.905,1,,,,,,-0.088541667,-0.247395833,1,0,0,1.9053,Basalt_rect,11,0,11,0,1,
60e7639e8eca5490df1e412e,SCR,2024-06-24_14h56.34.962,LearnStrategy,2023.2.3,Win32,60.24096386,6,2,13,,,,,,,,5,08,,,,,,,,,,,,,5,1.4,1,,,,,,-0.359375,-0.393229167,1,0,0,1.3998,Obsidian_rect,12,0,12,0,1,
60e7639e8eca5490df1e412e,SCR,2024-06-24_14h56.34.962,LearnStrategy,2023.2.3,Win32,60.24096386,6,2,14,,,,,,,,2,08,,,,,,,,,,,,,4,3.687,0,,,,,,0.37109375,-0.247395833,1,0,0,3.6868,Gabbro_rect,13,0,13,0,1,
60e7639e8eca5490df1e412e,SCR,2024-06-24_14h56.34.962,LearnStrategy,2023.2.3,Win32,60.24096386,6,2,15,,,,,,,,3,16,,,,,,,,,,,,,3,2.06,1,,,,,,0.102864583,-0.251302083,1,0,0,2.0604,Diorite_rect,14,0,14,0,1,
60e7639e8eca5490df1e412e,SCR,2024-06-24_14h56.34.962,LearnStrategy,2023.2.3,Win32,60.24096386,6,2,16,,,,,,,,8,05,,,,,,,,,,,,,8,1.907,1,,,,,,0.393229167,-0.408854167,1,0,0,1.9073,Pumice_rect,15,0,15,0,1,
60e7639e8eca5490df1e412e,SCR,2024-06-24_14h56.34.962,LearnStrategy,2023.2.3,Win32,60.24096386,7,1,1,0.248697917,0.2421875,1,0,0,0.9787,Pegmatite_09,6,09,5,6,0.979,6,09,0.080729167,-0.397135417,1,0,0,1.871,Peridotite_rect,7,1.871,0,0,0,0,0,1,,,,,,,,,,,,,
60e7639e8eca5490df1e412e,SCR,2024-06-24_14h56.34.962,LearnStrategy,2023.2.3,Win32,60.24096386,7,1,2,-0.223958333,-0.37890625,1,0,0,1.0788,Andesite_05,1,05,1,3,1.079,1,05,0.10546875,-0.266927083,1,0,0,1.1409,Diorite_rect,3,1.141,0,1,0,1,0,1,,,,,,,,,,,,,
60e7639e8eca5490df1e412e,SCR,2024-06-24_14h56.34.962,LearnStrategy,2023.2.3,Win32,60.24096386,7,1,3,0.102864583,0.114583333,1,0,0,0.7881,Gabbro_13,4,13,4,5,0.788,4,13,-0.145833333,-0.403645833,1,0,0,1.8961,Pegmatite_rect,6,1.896,0,2,0,2,0,1,,,,,,,,,,,,,
60e7639e8eca5490df1e412e,SCR,2024-06-24_14h56.34.962,LearnStrategy,2023.2.3,Win32,60.24096386,7,1,4,0.091145833,-0.098958333,1,0,0,1.0078,Pumice_09,8,09,3,5,1.008,8,09,0.3828125,-0.397135417,1,0,0,4.8658,Pumice_rect,8,4.866,1,3,0,3,0,1,,,,,,,,,,,,,
60e7639e8eca5490df1e412e,SCR,2024-06-24_14h56.34.962,LearnStrategy,2023.2.3,Win32,60.24096386,7,1,5,0.2421875,-0.115885417,1,0,0,1.1333,Gabbro_12,4,12,3,6,1.133,4,12,0.131510417,-0.255208333,1,0,0,1.2113,Diorite_rect,3,1.211,0,4,0,4,0,1,,,,,,,,,,,,,
60e7639e8eca5490df1e412e,SCR,2024-06-24_14h56.34.962,LearnStrategy,2023.2.3,Win32,60.24096386,7,1,6,0.384114583,0.29296875,1,0,0,1.44,Diorite_12,3,12,5,7,1.44,3,12,0.033854167,-0.389322917,1,0,0,2.1514,Peridotite_rect,7,2.151,0,5,0,5,0,1,,,,,,,,,,,,,
60e7639e8eca5490df1e412e,SCR,2024-06-24_14h56.34.962,LearnStrategy,2023.2.3,Win32,60.24096386,7,1,7,0.4140625,-0.122395833,1,0,0,1.3139,Pegmatite_08,6,08,3,7,1.314,6,08,0.114583333,-0.41015625,1,0,0,1.6402,Peridotite_rect,7,1.64,0,6,0,6,0,1,,,,,,,,,,,,,
60e7639e8eca5490df1e412e,SCR,2024-06-24_14h56.34.962,LearnStrategy,2023.2.3,Win32,60.24096386,7,1,8,-0.416666667,-0.092447917,1,0,0,1.2568,Basalt_12,2,12,3,2,1.257,2,12,-0.091145833,-0.231770833,1,0,0,2.6144,Basalt_rect,2,2.614,1,7,0,7,0,1,,,,,,,,,,,,,
60e7639e8eca5490df1e412e,SCR,2024-06-24_14h56.34.962,LearnStrategy,2023.2.3,Win32,60.24096386,7,1,9,-0.080729167,-0.25,1,0,0,1.0796,Gabbro_10,4,10,2,4,1.08,4,10,0.364583333,-0.248697917,1,0,0,3.5514,Gabbro_rect,4,3.551,1,8,0,8,0,1,,,,,,,,,,,,,
60e7639e8eca5490df1e412e,SCR,2024-06-24_14h56.34.962,LearnStrategy,2023.2.3,Win32,60.24096386,7,1,10,-0.055989583,0.412760417,1,0,0,1.4018,Andesite_11,1,11,6,4,1.402,1,11,-0.361979167,-0.252604167,1,0,0,2.1685,Andesite_rect,1,2.168,1,9,0,9,0,1,,,,,,,,,,,,,
60e7639e8eca5490df1e412e,SCR,2024-06-24_14h56.34.962,LearnStrategy,2023.2.3,Win32,60.24096386,7,1,11,-0.563802083,0.421875,1,0,0,1.3394,Basalt_05,2,05,6,1,1.339,2,05,-0.436197917,-0.420572917,1,0,0,1.4524,Obsidian_rect,5,1.452,0,10,0,10,0,1,,,,,,,,,,,,,
60e7639e8eca5490df1e412e,SCR,2024-06-24_14h56.34.962,LearnStrategy,2023.2.3,Win32,60.24096386,7,1,12,0.220052083,-0.432291667,1,0,0,1.3586,Peridotite_13,7,13,1,6,1.359,7,13,0.203125,-0.251302083,1,0,0,2.3536,Diorite_rect,3,2.354,0,11,0,11,0,1,,,,,,,,,,,,,
60e7639e8eca5490df1e412e,SCR,2024-06-24_14h56.34.962,LearnStrategy,2023.2.3,Win32,60.24096386,7,1,13,0.067708333,-0.28515625,1,0,0,1.2695,Peridotite_07,7,07,2,5,1.269,7,07,-0.1015625,-0.389322917,1,0,0,4.3045,Pegmatite_rect,6,4.304,0,12,0,12,0,1,,,,,,,,,,,,,
60e7639e8eca5490df1e412e,SCR,2024-06-24_14h56.34.962,LearnStrategy,2023.2.3,Win32,60.24096386,7,1,14,-0.045572917,0.415364583,1,0,0,1.1997,Andesite_11,1,11,6,4,1.2,1,11,-0.334635417,-0.244791667,1,0,0,2.7797,Andesite_rect,1,2.78,1,13,0,13,0,1,,,,,,,,,,,,,
60e7639e8eca5490df1e412e,SCR,2024-06-24_14h56.34.962,LearnStrategy,2023.2.3,Win32,60.24096386,7,1,15,0.240885417,-0.3984375,1,0,0,1.403,Peridotite_13,7,13,1,6,1.403,7,13,0.173177083,-0.252604167,1,0,0,2.9724,Diorite_rect,3,2.972,0,14,0,14,0,1,,,,,,,,,,,,,
60e7639e8eca5490df1e412e,SCR,2024-06-24_14h56.34.962,LearnStrategy,2023.2.3,Win32,60.24096386,7,1,16,-0.28515625,-0.26953125,1,0,0,1.022,Diorite_07,3,07,2,3,1.022,3,07,0.21484375,-0.259114583,1,0,0,1.0165,Diorite_rect,3,1.016,1,15,0,15,0,1,,,,,,,,,,,,,
60e7639e8eca5490df1e412e,SCR,2024-06-24_14h56.34.962,LearnStrategy,2023.2.3,Win32,60.24096386,7,2,1,,,,,,,,1,14,,,,,,,,,,,,,7,2.88,0,,,,,,0.078125,-0.384114583,1,0,0,2.8803,Peridotite_rect,0,0,0,0,1,
60e7639e8eca5490df1e412e,SCR,2024-06-24_14h56.34.962,LearnStrategy,2023.2.3,Win32,60.24096386,7,2,2,,,,,,,,5,08,,,,,,,,,,,,,5,1.329,1,,,,,,-0.37109375,-0.390625,1,0,0,1.3294,Obsidian_rect,1,0,1,0,1,
60e7639e8eca5490df1e412e,SCR,2024-06-24_14h56.34.962,LearnStrategy,2023.2.3,Win32,60.24096386,7,2,3,,,,,,,,8,13,,,,,,,,,,,,,8,1.325,1,,,,,,0.37890625,-0.395833333,1,0,0,1.3249,Pumice_rect,2,0,2,0,1,
60e7639e8eca5490df1e412e,SCR,2024-06-24_14h56.34.962,LearnStrategy,2023.2.3,Win32,60.24096386,7,2,4,,,,,,,,7,02,,,,,,,,,,,,,1,3.399,0,,,,,,-0.315104167,-0.252604167,1,0,0,3.3994,Andesite_rect,3,0,3,0,1,
60e7639e8eca5490df1e412e,SCR,2024-06-24_14h56.34.962,LearnStrategy,2023.2.3,Win32,60.24096386,7,2,5,,,,,,,,3,02,,,,,,,,,,,,,3,2.117,1,,,,,,0.114583333,-0.24609375,1,0,0,2.1172,Diorite_rect,4,0,4,0,1,
60e7639e8eca5490df1e412e,SCR,2024-06-24_14h56.34.962,LearnStrategy,2023.2.3,Win32,60.24096386,7,2,6,,,,,,,,2,04,,,,,,,,,,,,,2,1.92,1,,,,,,-0.184895833,-0.252604167,1,0,0,1.9199,Basalt_rect,5,0,5,0,1,
60e7639e8eca5490df1e412e,SCR,2024-06-24_14h56.34.962,LearnStrategy,2023.2.3,Win32,60.24096386,7,2,7,,,,,,,,5,14,,,,,,,,,,,,,5,1.46,1,,,,,,-0.404947917,-0.403645833,1,0,0,1.4596,Obsidian_rect,6,0,6,0,1,
60e7639e8eca5490df1e412e,SCR,2024-06-24_14h56.34.962,LearnStrategy,2023.2.3,Win32,60.24096386,7,2,8,,,,,,,,6,16,,,,,,,,,,,,,7,2.96,0,,,,,,0.084635417,-0.403645833,1,0,0,2.9605,Peridotite_rect,7,0,7,0,1,
60e7639e8eca5490df1e412e,SCR,2024-06-24_14h56.34.962,LearnStrategy,2023.2.3,Win32,60.24096386,7,2,9,,,,,,,,1,02,,,,,,,,,,,,,8,4.6,0,,,,,,0.372395833,-0.381510417,1,0,0,4.6001,Pumice_rect,8,0,8,0,1,
60e7639e8eca5490df1e412e,SCR,2024-06-24_14h56.34.962,LearnStrategy,2023.2.3,Win32,60.24096386,7,2,10,,,,,,,,4,01,,,,,,,,,,,,,6,1.904,0,,,,,,-0.127604167,-0.381510417,1,0,0,1.9044,Pegmatite_rect,9,0,9,0,1,
60e7639e8eca5490df1e412e,SCR,2024-06-24_14h56.34.962,LearnStrategy,2023.2.3,Win32,60.24096386,7,2,11,,,,,,,,4,05,,,,,,,,,,,,,6,2.313,0,,,,,,-0.102864583,-0.403645833,1,0,0,2.3127,Pegmatite_rect,10,0,10,0,1,
60e7639e8eca5490df1e412e,SCR,2024-06-24_14h56.34.962,LearnStrategy,2023.2.3,Win32,60.24096386,7,2,12,,,,,,,,8,03,,,,,,,,,,,,,8,1.337,1,,,,,,0.40234375,-0.39453125,1,0,0,1.3371,Pumice_rect,11,0,11,0,1,
60e7639e8eca5490df1e412e,SCR,2024-06-24_14h56.34.962,LearnStrategy,2023.2.3,Win32,60.24096386,7,2,13,,,,,,,,3,06,,,,,,,,,,,,,3,2.632,1,,,,,,0.111979167,-0.243489583,1,0,0,2.6321,Diorite_rect,12,0,12,0,1,
60e7639e8eca5490df1e412e,SCR,2024-06-24_14h56.34.962,LearnStrategy,2023.2.3,Win32,60.24096386,7,2,14,,,,,,,,6,10,,,,,,,,,,,,,7,3.075,0,,,,,,0.127604167,-0.404947917,1,0,0,3.0751,Peridotite_rect,13,0,13,0,1,
60e7639e8eca5490df1e412e,SCR,2024-06-24_14h56.34.962,LearnStrategy,2023.2.3,Win32,60.24096386,7,2,15,,,,,,,,2,01,,,,,,,,,,,,,2,1.892,1,,,,,,-0.182291667,-0.247395833,1,0,0,1.892,Basalt_rect,14,0,14,0,1,
60e7639e8eca5490df1e412e,SCR,2024-06-24_14h56.34.962,LearnStrategy,2023.2.3,Win32,60.24096386,7,2,16,,,,,,,,7,14,,,,,,,,,,,,,1,3.845,0,,,,,,-0.453125,-0.2421875,1,0,0,3.8448,Andesite_rect,15,0,15,0,1,
60e7639e8eca5490df1e412e,SCR,2024-06-24_14h56.34.962,LearnStrategy,2023.2.3,Win32,60.24096386,8,1,1,-0.21875,-0.399739583,1,0,0,1.0059,Andesite_05,1,05,1,3,1.006,1,05,-0.360677083,-0.252604167,1,0,0,1.3479,Andesite_rect,1,1.348,1,0,0,0,0,1,,,,,,,,,,,,,
60e7639e8eca5490df1e412e,SCR,2024-06-24_14h56.34.962,LearnStrategy,2023.2.3,Win32,60.24096386,8,1,2,0.061197917,0.084635417,1,0,0,0.9063,Gabbro_13,4,13,4,5,0.906,4,13,-0.391927083,-0.252604167,1,0,0,2.2203,Andesite_rect,1,2.22,0,1,0,1,0,1,,,,,,,,,,,,,
60e7639e8eca5490df1e412e,SCR,2024-06-24_14h56.34.962,LearnStrategy,2023.2.3,Win32,60.24096386,8,1,3,0.231770833,0.1171875,1,0,0,0.9187,Andesite_09,1,09,4,6,0.919,1,09,-0.19921875,-0.260416667,1,0,0,1.9024,Basalt_rect,2,1.902,0,2,0,2,0,1,,,,,,,,,,,,,
60e7639e8eca5490df1e412e,SCR,2024-06-24_14h56.34.962,LearnStrategy,2023.2.3,Win32,60.24096386,8,1,4,0.212239583,0.2265625,1,0,0,1.9631,Pegmatite_09,6,09,5,6,1.963,6,09,0.151041667,-0.419270833,1,0,0,2.8756,Peridotite_rect,7,2.876,0,3,0,3,0,1,,,,,,,,,,,,,
60e7639e8eca5490df1e412e,SCR,2024-06-24_14h56.34.962,LearnStrategy,2023.2.3,Win32,60.24096386,8,1,5,-0.053385417,0.079427083,1,0,0,0.7866,Basalt_14,2,14,4,4,0.787,2,14,0.403645833,-0.233072917,1,0,0,4.3548,Gabbro_rect,4,4.355,0,4,0,4,0,1,,,,,,,,,,,,,
60e7639e8eca5490df1e412e,SCR,2024-06-24_14h56.34.962,LearnStrategy,2023.2.3,Win32,60.24096386,8,1,6,-0.602864583,0.096354167,1,0,0,1.2064,Andesite_03,1,03,4,1,1.206,1,03,-0.100260417,-0.24609375,1,0,0,1.4158,Basalt_rect,2,1.416,0,5,0,5,0,1,,,,,,,,,,,,,
60e7639e8eca5490df1e412e,SCR,2024-06-24_14h56.34.962,LearnStrategy,2023.2.3,Win32,60.24096386,8,1,7,0.342447917,0.069010417,1,0,0,0.8988,Diorite_09,3,09,4,7,0.899,3,09,0.15234375,-0.240885417,1,0,0,1.3576,Diorite_rect,3,1.358,1,6,0,6,0,1,,,,,,,,,,,,,
60e7639e8eca5490df1e412e,SCR,2024-06-24_14h56.34.962,LearnStrategy,2023.2.3,Win32,60.24096386,8,1,8,-0.260416667,-0.270833333,1,0,0,0.973,Diorite_07,3,07,2,3,0.973,3,07,0.188802083,-0.26171875,1,0,0,1.4812,Diorite_rect,3,1.481,1,7,0,7,0,1,,,,,,,,,,,,,
60e7639e8eca5490df1e412e,SCR,2024-06-24_14h56.34.962,LearnStrategy,2023.2.3,Win32,60.24096386,8,1,9,-0.06640625,0.084635417,1,0,0,0.8611,Basalt_14,2,14,4,4,0.861,2,14,-0.14453125,-0.248697917,1,0,0,1.7468,Basalt_rect,2,1.747,1,8,0,8,0,1,,,,,,,,,,,,,
60e7639e8eca5490df1e412e,SCR,2024-06-24_14h56.34.962,LearnStrategy,2023.2.3,Win32,60.24096386,8,1,10,0.23828125,-0.423177083,1,0,0,1.0729,Peridotite_13,7,13,1,6,1.073,7,13,-0.346354167,-0.2578125,1,0,0,4.092,Andesite_rect,1,4.092,0,9,0,9,0,1,,,,,,,,,,,,,
60e7639e8eca5490df1e412e,SCR,2024-06-24_14h56.34.962,LearnStrategy,2023.2.3,Win32,60.24096386,8,1,11,-0.205729167,0.364583333,1,0,0,1.4182,Peridotite_08,7,08,6,3,1.418,7,08,-0.0625,-0.252604167,1,0,0,3.2029,Basalt_rect,2,3.203,0,10,0,10,0,1,,,,,,,,,,,,,
60e7639e8eca5490df1e412e,SCR,2024-06-24_14h56.34.962,LearnStrategy,2023.2.3,Win32,60.24096386,8,1,12,0.225260417,0.09375,1,0,0,0.8495,Andesite_09,1,09,4,6,0.85,1,09,-0.145833333,-0.268229167,1,0,0,1.8712,Basalt_rect,2,1.871,0,11,0,11,0,1,,,,,,,,,,,,,
60e7639e8eca5490df1e412e,SCR,2024-06-24_14h56.34.962,LearnStrategy,2023.2.3,Win32,60.24096386,8,1,13,0.063802083,-0.255208333,1,0,0,1.2484,Peridotite_07,7,07,2,5,1.248,7,07,0.123697917,-0.40234375,1,0,0,3.3687,Peridotite_rect,7,3.369,1,12,0,12,0,1,,,,,,,,,,,,,
60e7639e8eca5490df1e412e,SCR,2024-06-24_14h56.34.962,LearnStrategy,2023.2.3,Win32,60.24096386,8,1,14,0.22265625,-0.075520833,1,0,0,0.9622,Gabbro_12,4,12,3,6,0.962,4,12,0.087239583,-0.393229167,1,0,0,3.1528,Peridotite_rect,7,3.153,0,13,0,13,0,1,,,,,,,,,,,,,
60e7639e8eca5490df1e412e,SCR,2024-06-24_14h56.34.962,LearnStrategy,2023.2.3,Win32,60.24096386,8,1,15,-0.21484375,0.255208333,1,0,0,1.0289,Gabbro_08,4,08,5,3,1.029,4,08,-0.348958333,-0.264322917,1,0,0,2.0288,Andesite_rect,1,2.029,0,14,0,14,0,1,,,,,,,,,,,,,
60e7639e8eca5490df1e412e,SCR,2024-06-24_14h56.34.962,LearnStrategy,2023.2.3,Win32,60.24096386,8,1,16,0.408854167,-0.266927083,1,0,0,1.0059,Pegmatite_15,6,15,2,7,1.006,6,15,-0.109375,-0.393229167,1,0,0,3.2701,Pegmatite_rect,6,3.27,1,15,0,15,0,1,,,,,,,,,,,,,
60e7639e8eca5490df1e412e,SCR,2024-06-24_14h56.34.962,LearnStrategy,2023.2.3,Win32,60.24096386,8,2,1,,,,,,,,8,04,,,,,,,,,,,,,8,1.618,1,,,,,,0.397135417,-0.389322917,1,0,0,1.6182,Pumice_rect,0,0,0,0,1,
60e7639e8eca5490df1e412e,SCR,2024-06-24_14h56.34.962,LearnStrategy,2023.2.3,Win32,60.24096386,8,2,2,,,,,,,,6,03,,,,,,,,,,,,,6,2.395,1,,,,,,-0.200520833,-0.41015625,1,0,0,2.3947,Pegmatite_rect,1,0,1,0,1,
60e7639e8eca5490df1e412e,SCR,2024-06-24_14h56.34.962,LearnStrategy,2023.2.3,Win32,60.24096386,8,2,3,,,,,,,,5,04,,,,,,,,,,,,,5,1.255,1,,,,,,-0.423177083,-0.412760417,1,0,0,1.2555,Obsidian_rect,2,0,2,0,1,
60e7639e8eca5490df1e412e,SCR,2024-06-24_14h56.34.962,LearnStrategy,2023.2.3,Win32,60.24096386,8,2,4,,,,,,,,7,12,,,,,,,,,,,,,7,2.257,1,,,,,,0.083333333,-0.41796875,1,0,0,2.2572,Peridotite_rect,3,0,3,0,1,
60e7639e8eca5490df1e412e,SCR,2024-06-24_14h56.34.962,LearnStrategy,2023.2.3,Win32,60.24096386,8,2,5,,,,,,,,4,16,,,,,,,,,,,,,2,3.684,0,,,,,,-0.10546875,-0.24609375,1,0,0,3.6837,Basalt_rect,4,0,4,0,1,
60e7639e8eca5490df1e412e,SCR,2024-06-24_14h56.34.962,LearnStrategy,2023.2.3,Win32,60.24096386,8,2,6,,,,,,,,1,07,,,,,,,,,,,,,3,2.581,0,,,,,,0.143229167,-0.256510417,1,0,0,2.5808,Diorite_rect,5,0,5,0,1,
60e7639e8eca5490df1e412e,SCR,2024-06-24_14h56.34.962,LearnStrategy,2023.2.3,Win32,60.24096386,8,2,7,,,,,,,,3,16,,,,,,,,,,,,,3,1.534,1,,,,,,0.1171875,-0.264322917,1,0,0,1.5343,Diorite_rect,6,0,6,0,1,
60e7639e8eca5490df1e412e,SCR,2024-06-24_14h56.34.962,LearnStrategy,2023.2.3,Win32,60.24096386,8,2,8,,,,,,,,6,11,,,,,,,,,,,,,7,3.413,0,,,,,,0.067708333,-0.395833333,1,0,0,3.413,Peridotite_rect,7,0,7,0,1,
60e7639e8eca5490df1e412e,SCR,2024-06-24_14h56.34.962,LearnStrategy,2023.2.3,Win32,60.24096386,8,2,9,,,,,,,,7,10,,,,,,,,,,,,,6,1.781,0,,,,,,-0.170572917,-0.397135417,1,0,0,1.7807,Pegmatite_rect,8,0,8,0,1,
60e7639e8eca5490df1e412e,SCR,2024-06-24_14h56.34.962,LearnStrategy,2023.2.3,Win32,60.24096386,8,2,10,,,,,,,,2,16,,,,,,,,,,,,,4,8.527,0,,,,,,0.388020833,-0.251302083,1,0,0,8.5271,Gabbro_rect,9,0,9,0,1,
60e7639e8eca5490df1e412e,SCR,2024-06-24_14h56.34.962,LearnStrategy,2023.2.3,Win32,60.24096386,8,2,11,,,,,,,,3,13,,,,,,,,,,,,,3,1.338,1,,,,,,0.09765625,-0.235677083,1,0,0,1.3384,Diorite_rect,10,0,10,0,1,
60e7639e8eca5490df1e412e,SCR,2024-06-24_14h56.34.962,LearnStrategy,2023.2.3,Win32,60.24096386,8,2,12,,,,,,,,1,16,,,,,,,,,,,,,3,3.251,0,,,,,,0.140625,-0.233072917,1,0,0,3.2507,Diorite_rect,11,0,11,0,1,
60e7639e8eca5490df1e412e,SCR,2024-06-24_14h56.34.962,LearnStrategy,2023.2.3,Win32,60.24096386,8,2,13,,,,,,,,4,11,,,,,,,,,,,,,1,4.514,0,,,,,,-0.330729167,-0.233072917,1,0,0,4.5145,Andesite_rect,12,0,12,0,1,
60e7639e8eca5490df1e412e,SCR,2024-06-24_14h56.34.962,LearnStrategy,2023.2.3,Win32,60.24096386,8,2,14,,,,,,,,2,08,,,,,,,,,,,,,2,1.88,1,,,,,,-0.088541667,-0.263020833,1,0,0,1.8805,Basalt_rect,13,0,13,0,1,
60e7639e8eca5490df1e412e,SCR,2024-06-24_14h56.34.962,LearnStrategy,2023.2.3,Win32,60.24096386,8,2,15,,,,,,,,8,05,,,,,,,,,,,,,8,2.921,1,,,,,,0.381510417,-0.407552083,1,0,0,2.921,Pumice_rect,14,0,14,0,1,
60e7639e8eca5490df1e412e,SCR,2024-06-24_14h56.34.962,LearnStrategy,2023.2.3,Win32,60.24096386,8,2,16,,,,,,,,5,06,,,,,,,,,,,,,5,1.237,1,,,,,,-0.361979167,-0.3984375,1,0,0,1.2368,Obsidian_rect,15,0,15,0,1,
60e7639e8eca5490df1e412e,SCR,2024-06-24_14h56.34.962,LearnStrategy,2023.2.3,Win32,60.24096386,9,1,1,-0.069010417,0.240885417,1,0,0,1.3473,Gabbro_14,4,14,5,4,1.347,4,14,-0.3359375,-0.244791667,1,0,0,3.6488,Andesite_rect,1,3.649,0,0,0,0,0,1,,,,,,,,,,,,,
60e7639e8eca5490df1e412e,SCR,2024-06-24_14h56.34.962,LearnStrategy,2023.2.3,Win32,60.24096386,9,1,2,-0.078125,-0.114583333,1,0,0,0.8152,Basalt_02,2,02,3,4,0.815,2,02,-0.069010417,-0.240885417,1,0,0,1.1881,Basalt_rect,2,1.188,1,1,0,1,0,1,,,,,,,,,,,,,
60e7639e8eca5490df1e412e,SCR,2024-06-24_14h56.34.962,LearnStrategy,2023.2.3,Win32,60.24096386,9,1,3,-0.08984375,0.404947917,1,0,0,1.1612,Andesite_11,1,11,6,4,1.161,1,11,-0.360677083,-0.263020833,1,0,0,5.221,Andesite_rect,1,5.221,1,2,0,2,0,1,,,,,,,,,,,,,
60e7639e8eca5490df1e412e,SCR,2024-06-24_14h56.34.962,LearnStrategy,2023.2.3,Win32,60.24096386,9,1,4,0.096354167,0.248697917,1,0,0,0.8167,Pumice_10,8,10,5,5,0.817,8,10,0.455729167,-0.395833333,1,0,0,1.5508,Pumice_rect,8,1.551,1,3,0,3,0,1,,,,,,,,,,,,,
60e7639e8eca5490df1e412e,SCR,2024-06-24_14h56.34.962,LearnStrategy,2023.2.3,Win32,60.24096386,9,1,5,0.221354167,-0.430989583,1,0,0,1.2664,Peridotite_13,7,13,1,6,1.266,7,13,-0.04296875,-0.41015625,1,0,0,3.0677,Pegmatite_rect,6,3.068,0,4,0,4,0,1,,,,,,,,,,,,,
60e7639e8eca5490df1e412e,SCR,2024-06-24_14h56.34.962,LearnStrategy,2023.2.3,Win32,60.24096386,9,1,6,0.41796875,-0.231770833,1,0,0,1.0169,Pegmatite_15,6,15,2,7,1.017,6,15,-0.157552083,-0.411458333,1,0,0,1.7715,Pegmatite_rect,6,1.772,1,5,0,5,0,1,,,,,,,,,,,,,
60e7639e8eca5490df1e412e,SCR,2024-06-24_14h56.34.962,LearnStrategy,2023.2.3,Win32,60.24096386,9,1,7,-0.513020833,0.385416667,1,0,0,1.162,Basalt_05,2,05,6,1,1.162,2,05,-0.09375,-0.26171875,1,0,0,1.5094,Basalt_rect,2,1.509,1,6,0,6,0,1,,,,,,,,,,,,,
60e7639e8eca5490df1e412e,SCR,2024-06-24_14h56.34.962,LearnStrategy,2023.2.3,Win32,60.24096386,9,1,8,0.096354167,-0.279947917,1,0,0,0.9616,Peridotite_07,7,07,2,5,0.962,7,07,-0.321614583,-0.264322917,1,0,0,2.498,Andesite_rect,1,2.498,0,7,0,7,0,1,,,,,,,,,,,,,
60e7639e8eca5490df1e412e,SCR,2024-06-24_14h56.34.962,LearnStrategy,2023.2.3,Win32,60.24096386,9,1,9,0.58203125,0.252604167,1,0,0,1.1013,Andesite_04,1,04,5,8,1.101,1,04,-0.329427083,-0.240885417,1,0,0,2.7408,Andesite_rect,1,2.741,1,8,0,8,0,1,,,,,,,,,,,,,
60e7639e8eca5490df1e412e,SCR,2024-06-24_14h56.34.962,LearnStrategy,2023.2.3,Win32,60.24096386,9,1,10,0.569010417,-0.415364583,1,0,0,1.1471,Peridotite_05,7,05,1,8,1.147,7,05,0.134114583,-0.243489583,1,0,0,2.2775,Diorite_rect,3,2.278,0,9,0,9,0,1,,,,,,,,,,,,,
60e7639e8eca5490df1e412e,SCR,2024-06-24_14h56.34.962,LearnStrategy,2023.2.3,Win32,60.24096386,9,1,11,-0.07421875,-0.287760417,1,0,0,1.096,Gabbro_10,4,10,2,4,1.096,4,10,0.446614583,-0.236979167,1,0,0,5.0403,Gabbro_rect,4,5.04,1,10,0,10,0,1,,,,,,,,,,,,,
60e7639e8eca5490df1e412e,SCR,2024-06-24_14h56.34.962,LearnStrategy,2023.2.3,Win32,60.24096386,9,1,12,0.235677083,0.076822917,1,0,0,1.2799,Andesite_09,1,09,4,6,1.28,1,09,-0.317708333,-0.25390625,1,0,0,2.2206,Andesite_rect,1,2.221,1,11,0,11,0,1,,,,,,,,,,,,,
60e7639e8eca5490df1e412e,SCR,2024-06-24_14h56.34.962,LearnStrategy,2023.2.3,Win32,60.24096386,9,1,13,0.270833333,-0.24609375,1,0,0,1.0338,Diorite_10,3,10,2,6,1.034,3,10,0.100260417,-0.256510417,1,0,0,1.2916,Diorite_rect,3,1.292,1,12,0,12,0,1,,,,,,,,,,,,,
60e7639e8eca5490df1e412e,SCR,2024-06-24_14h56.34.962,LearnStrategy,2023.2.3,Win32,60.24096386,9,1,14,-0.264322917,0.0703125,1,0,0,1.0559,Pegmatite_13,6,13,4,3,1.056,6,13,0.109375,-0.266927083,1,0,0,2.613,Diorite_rect,3,2.613,0,13,0,13,0,1,,,,,,,,,,,,,
60e7639e8eca5490df1e412e,SCR,2024-06-24_14h56.34.962,LearnStrategy,2023.2.3,Win32,60.24096386,9,1,15,0.243489583,-0.12890625,1,0,0,0.8895,Gabbro_12,4,12,3,6,0.889,4,12,-0.37109375,-0.240885417,1,0,0,3.8812,Andesite_rect,1,3.881,0,14,0,14,0,1,,,,,,,,,,,,,
60e7639e8eca5490df1e412e,SCR,2024-06-24_14h56.34.962,LearnStrategy,2023.2.3,Win32,60.24096386,9,1,16,-0.580729167,0.100260417,1,0,0,1.1883,Andesite_03,1,03,4,1,1.188,1,03,-0.149739583,-0.247395833,1,0,0,1.4969,Basalt_rect,2,1.497,0,15,0,15,0,1,,,,,,,,,,,,,
60e7639e8eca5490df1e412e,SCR,2024-06-24_14h56.34.962,LearnStrategy,2023.2.3,Win32,60.24096386,9,2,1,,,,,,,,3,15,,,,,,,,,,,,,3,1.793,1,,,,,,0.14453125,-0.264322917,1,0,0,1.7931,Diorite_rect,0,0,0,0,1,
60e7639e8eca5490df1e412e,SCR,2024-06-24_14h56.34.962,LearnStrategy,2023.2.3,Win32,60.24096386,9,2,2,,,,,,,,8,14,,,,,,,,,,,,,8,1.195,1,,,,,,0.399739583,-0.403645833,1,0,0,1.195,Pumice_rect,1,0,1,0,1,
60e7639e8eca5490df1e412e,SCR,2024-06-24_14h56.34.962,LearnStrategy,2023.2.3,Win32,60.24096386,9,2,3,,,,,,,,6,05,,,,,,,,,,,,,6,1.668,1,,,,,,-0.078125,-0.403645833,1,0,0,1.6685,Pegmatite_rect,2,0,2,0,1,
60e7639e8eca5490df1e412e,SCR,2024-06-24_14h56.34.962,LearnStrategy,2023.2.3,Win32,60.24096386,9,2,4,,,,,,,,4,15,,,,,,,,,,,,,4,6.383,1,,,,,,0.412760417,-0.252604167,1,0,0,6.3832,Gabbro_rect,3,0,3,0,1,
60e7639e8eca5490df1e412e,SCR,2024-06-24_14h56.34.962,LearnStrategy,2023.2.3,Win32,60.24096386,9,2,5,,,,,,,,2,06,,,,,,,,,,,,,2,5.402,1,,,,,,-0.16796875,-0.247395833,1,0,0,5.402,Basalt_rect,4,0,4,0,1,
60e7639e8eca5490df1e412e,SCR,2024-06-24_14h56.34.962,LearnStrategy,2023.2.3,Win32,60.24096386,9,2,6,,,,,,,,1,06,,,,,,,,,,,,,1,3.078,1,,,,,,-0.358072917,-0.24609375,1,0,0,3.0778,Andesite_rect,5,0,5,0,1,
60e7639e8eca5490df1e412e,SCR,2024-06-24_14h56.34.962,LearnStrategy,2023.2.3,Win32,60.24096386,9,2,7,,,,,,,,2,11,,,,,,,,,,,,,1,7.841,0,,,,,,-0.375,-0.260416667,1,0,0,7.8408,Andesite_rect,6,0,6,0,1,
60e7639e8eca5490df1e412e,SCR,2024-06-24_14h56.34.962,LearnStrategy,2023.2.3,Win32,60.24096386,9,2,8,,,,,,,,7,15,,,,,,,,,,,,,7,3.363,1,,,,,,0.1328125,-0.397135417,1,0,0,3.3626,Peridotite_rect,7,0,7,0,1,
60e7639e8eca5490df1e412e,SCR,2024-06-24_14h56.34.962,LearnStrategy,2023.2.3,Win32,60.24096386,9,2,9,,,,,,,,3,08,,,,,,,,,,,,,3,1.473,1,,,,,,0.108072917,-0.239583333,1,0,0,1.4729,Diorite_rect,8,0,8,0,1,
60e7639e8eca5490df1e412e,SCR,2024-06-24_14h56.34.962,LearnStrategy,2023.2.3,Win32,60.24096386,9,2,10,,,,,,,,5,11,,,,,,,,,,,,,5,1.572,1,,,,,,-0.41796875,-0.395833333,1,0,0,1.5723,Obsidian_rect,9,0,9,0,1,
60e7639e8eca5490df1e412e,SCR,2024-06-24_14h56.34.962,LearnStrategy,2023.2.3,Win32,60.24096386,9,2,11,,,,,,,,1,10,,,,,,,,,,,,,1,2.045,1,,,,,,-0.412760417,-0.24609375,1,0,0,2.0448,Andesite_rect,10,0,10,0,1,
60e7639e8eca5490df1e412e,SCR,2024-06-24_14h56.34.962,LearnStrategy,2023.2.3,Win32,60.24096386,9,2,12,,,,,,,,5,09,,,,,,,,,,,,,5,1.308,1,,,,,,-0.38671875,-0.421875,1,0,0,1.3083,Obsidian_rect,11,0,11,0,1,
60e7639e8eca5490df1e412e,SCR,2024-06-24_14h56.34.962,LearnStrategy,2023.2.3,Win32,60.24096386,9,2,13,,,,,,,,7,06,,,,,,,,,,,,,7,2.316,1,,,,,,0.162760417,-0.389322917,1,0,0,2.3164,Peridotite_rect,12,0,12,0,1,
60e7639e8eca5490df1e412e,SCR,2024-06-24_14h56.34.962,LearnStrategy,2023.2.3,Win32,60.24096386,9,2,14,,,,,,,,4,03,,,,,,,,,,,,,1,5.221,0,,,,,,-0.32421875,-0.26953125,1,0,0,5.2205,Andesite_rect,13,0,13,0,1,
60e7639e8eca5490df1e412e,SCR,2024-06-24_14h56.34.962,LearnStrategy,2023.2.3,Win32,60.24096386,9,2,15,,,,,,,,8,02,,,,,,,,,,,,,8,1.931,1,,,,,,0.46875,-0.3828125,1,0,0,1.9307,Pumice_rect,14,0,14,0,1,
60e7639e8eca5490df1e412e,SCR,2024-06-24_14h56.34.962,LearnStrategy,2023.2.3,Win32,60.24096386,9,2,16,,,,,,,,6,12,,,,,,,,,,,,,3,8.123,0,,,,,,0.109375,-0.2421875,1,0,0,8.1226,Diorite_rect,15,0,15,0,1,
60e7639e8eca5490df1e412e,SCR,2024-06-24_14h56.34.962,LearnStrategy,2023.2.3,Win32,60.24096386,,,,,,,,,,,,,,,,,,,,,,,,,,,,,,,,,,,,,,,,,,,,,0
60e7639e8eca5490df1e412e,SCR,2024-06-24_14h56.34.962,LearnStrategy,2023.2.3,Win32,60.24096386,,,,,,,,,,,,,,,,,,,,,,,,,,,,,,,,,,,,,,,,,,,,,
60e7639e8eca5490df1e412e,SCR,2024-06-24_14h56.34.962,LearnStrategy,2023.2.3,Win32,60.24096386,,,,,,,,,,,2,09,1,1,,,,,,,,,,,,,,,,,,,,,,,,,,,,,,,
60e7639e8eca5490df1e412e,SCR,2024-06-24_14h56.34.962,LearnStrategy,2023.2.3,Win32,60.24096386,,,,,,,,,,,8,08,1,2,,,,,,,,,,,,,,,,,,,,,,,,,,,,,,,
60e7639e8eca5490df1e412e,SCR,2024-06-24_14h56.34.962,LearnStrategy,2023.2.3,Win32,60.24096386,,,,,,,,,,,1,05,1,3,,,,,,,,,,,,,,,,,,,,,,,,,,,,,,,
60e7639e8eca5490df1e412e,SCR,2024-06-24_14h56.34.962,LearnStrategy,2023.2.3,Win32,60.24096386,,,,,,,,,,,2,10,1,4,,,,,,,,,,,,,,,,,,,,,,,,,,,,,,,
60e7639e8eca5490df1e412e,SCR,2024-06-24_14h56.34.962,LearnStrategy,2023.2.3,Win32,60.24096386,,,,,,,,,,,6,06,1,5,,,,,,,,,,,,,,,,,,,,,,,,,,,,,,,
60e7639e8eca5490df1e412e,SCR,2024-06-24_14h56.34.962,LearnStrategy,2023.2.3,Win32,60.24096386,,,,,,,,,,,7,13,1,6,,,,,,,,,,,,,,,,,,,,,,,,,,,,,,,
60e7639e8eca5490df1e412e,SCR,2024-06-24_14h56.34.962,LearnStrategy,2023.2.3,Win32,60.24096386,,,,,,,,,,,5,10,1,7,,,,,,,,,,,,,,,,,,,,,,,,,,,,,,,
60e7639e8eca5490df1e412e,SCR,2024-06-24_14h56.34.962,LearnStrategy,2023.2.3,Win32,60.24096386,,,,,,,,,,,7,05,1,8,,,,,,,,,,,,,,,,,,,,,,,,,,,,,,,
60e7639e8eca5490df1e412e,SCR,2024-06-24_14h56.34.962,LearnStrategy,2023.2.3,Win32,60.24096386,,,,,,,,,,,7,04,2,1,,,,,,,,,,,,,,,,,,,,,,,,,,,,,,,
60e7639e8eca5490df1e412e,SCR,2024-06-24_14h56.34.962,LearnStrategy,2023.2.3,Win32,60.24096386,,,,,,,,,,,6,07,2,2,,,,,,,,,,,,,,,,,,,,,,,,,,,,,,,
60e7639e8eca5490df1e412e,SCR,2024-06-24_14h56.34.962,LearnStrategy,2023.2.3,Win32,60.24096386,,,,,,,,,,,3,07,2,3,,,,,,,,,,,,,,,,,,,,,,,,,,,,,,,
60e7639e8eca5490df1e412e,SCR,2024-06-24_14h56.34.962,LearnStrategy,2023.2.3,Win32,60.24096386,,,,,,,,,,,4,10,2,4,,,,,,,,,,,,,,,,,,,,,,,,,,,,,,,
60e7639e8eca5490df1e412e,SCR,2024-06-24_14h56.34.962,LearnStrategy,2023.2.3,Win32,60.24096386,,,,,,,,,,,7,07,2,5,,,,,,,,,,,,,,,,,,,,,,,,,,,,,,,
60e7639e8eca5490df1e412e,SCR,2024-06-24_14h56.34.962,LearnStrategy,2023.2.3,Win32,60.24096386,,,,,,,,,,,3,10,2,6,,,,,,,,,,,,,,,,,,,,,,,,,,,,,,,
60e7639e8eca5490df1e412e,SCR,2024-06-24_14h56.34.962,LearnStrategy,2023.2.3,Win32,60.24096386,,,,,,,,,,,6,15,2,7,,,,,,,,,,,,,,,,,,,,,,,,,,,,,,,
60e7639e8eca5490df1e412e,SCR,2024-06-24_14h56.34.962,LearnStrategy,2023.2.3,Win32,60.24096386,,,,,,,,,,,5,02,2,8,,,,,,,,,,,,,,,,,,,,,,,,,,,,,,,
60e7639e8eca5490df1e412e,SCR,2024-06-24_14h56.34.962,LearnStrategy,2023.2.3,Win32,60.24096386,,,,,,,,,,,5,05,3,1,,,,,,,,,,,,,,,,,,,,,,,,,,,,,,,
60e7639e8eca5490df1e412e,SCR,2024-06-24_14h56.34.962,LearnStrategy,2023.2.3,Win32,60.24096386,,,,,,,,,,,2,12,3,2,,,,,,,,,,,,,,,,,,,,,,,,,,,,,,,
60e7639e8eca5490df1e412e,SCR,2024-06-24_14h56.34.962,LearnStrategy,2023.2.3,Win32,60.24096386,,,,,,,,,,,5,07,3,3,,,,,,,,,,,,,,,,,,,,,,,,,,,,,,,
60e7639e8eca5490df1e412e,SCR,2024-06-24_14h56.34.962,LearnStrategy,2023.2.3,Win32,60.24096386,,,,,,,,,,,2,02,3,4,,,,,,,,,,,,,,,,,,,,,,,,,,,,,,,
60e7639e8eca5490df1e412e,SCR,2024-06-24_14h56.34.962,LearnStrategy,2023.2.3,Win32,60.24096386,,,,,,,,,,,8,09,3,5,,,,,,,,,,,,,,,,,,,,,,,,,,,,,,,
60e7639e8eca5490df1e412e,SCR,2024-06-24_14h56.34.962,LearnStrategy,2023.2.3,Win32,60.24096386,,,,,,,,,,,4,12,3,6,,,,,,,,,,,,,,,,,,,,,,,,,,,,,,,
60e7639e8eca5490df1e412e,SCR,2024-06-24_14h56.34.962,LearnStrategy,2023.2.3,Win32,60.24096386,,,,,,,,,,,6,08,3,7,,,,,,,,,,,,,,,,,,,,,,,,,,,,,,,
60e7639e8eca5490df1e412e,SCR,2024-06-24_14h56.34.962,LearnStrategy,2023.2.3,Win32,60.24096386,,,,,,,,,,,3,11,3,8,,,,,,,,,,,,,,,,,,,,,,,,,,,,,,,
60e7639e8eca5490df1e412e,SCR,2024-06-24_14h56.34.962,LearnStrategy,2023.2.3,Win32,60.24096386,,,,,,,,,,,1,03,4,1,,,,,,,,,,,,,,,,,,,,,,,,,,,,,,,
60e7639e8eca5490df1e412e,SCR,2024-06-24_14h56.34.962,LearnStrategy,2023.2.3,Win32,60.24096386,,,,,,,,,,,7,16,4,2,,,,,,,,,,,,,,,,,,,,,,,,,,,,,,,
60e7639e8eca5490df1e412e,SCR,2024-06-24_14h56.34.962,LearnStrategy,2023.2.3,Win32,60.24096386,,,,,,,,,,,6,13,4,3,,,,,,,,,,,,,,,,,,,,,,,,,,,,,,,
60e7639e8eca5490df1e412e,SCR,2024-06-24_14h56.34.962,LearnStrategy,2023.2.3,Win32,60.24096386,,,,,,,,,,,2,14,4,4,,,,,,,,,,,,,,,,,,,,,,,,,,,,,,,
60e7639e8eca5490df1e412e,SCR,2024-06-24_14h56.34.962,LearnStrategy,2023.2.3,Win32,60.24096386,,,,,,,,,,,4,13,4,5,,,,,,,,,,,,,,,,,,,,,,,,,,,,,,,
60e7639e8eca5490df1e412e,SCR,2024-06-24_14h56.34.962,LearnStrategy,2023.2.3,Win32,60.24096386,,,,,,,,,,,1,09,4,6,,,,,,,,,,,,,,,,,,,,,,,,,,,,,,,
60e7639e8eca5490df1e412e,SCR,2024-06-24_14h56.34.962,LearnStrategy,2023.2.3,Win32,60.24096386,,,,,,,,,,,3,09,4,7,,,,,,,,,,,,,,,,,,,,,,,,,,,,,,,
60e7639e8eca5490df1e412e,SCR,2024-06-24_14h56.34.962,LearnStrategy,2023.2.3,Win32,60.24096386,,,,,,,,,,,8,06,4,8,,,,,,,,,,,,,,,,,,,,,,,,,,,,,,,
60e7639e8eca5490df1e412e,SCR,2024-06-24_14h56.34.962,LearnStrategy,2023.2.3,Win32,60.24096386,,,,,,,,,,,8,16,5,1,,,,,,,,,,,,,,,,,,,,,,,,,,,,,,,
60e7639e8eca5490df1e412e,SCR,2024-06-24_14h56.34.962,LearnStrategy,2023.2.3,Win32,60.24096386,,,,,,,,,,,5,12,5,2,,,,,,,,,,,,,,,,,,,,,,,,,,,,,,,
60e7639e8eca5490df1e412e,SCR,2024-06-24_14h56.34.962,LearnStrategy,2023.2.3,Win32,60.24096386,,,,,,,,,,,4,08,5,3,,,,,,,,,,,,,,,,,,,,,,,,,,,,,,,
60e7639e8eca5490df1e412e,SCR,2024-06-24_14h56.34.962,LearnStrategy,2023.2.3,Win32,60.24096386,,,,,,,,,,,4,14,5,4,,,,,,,,,,,,,,,,,,,,,,,,,,,,,,,
60e7639e8eca5490df1e412e,SCR,2024-06-24_14h56.34.962,LearnStrategy,2023.2.3,Win32,60.24096386,,,,,,,,,,,8,10,5,5,,,,,,,,,,,,,,,,,,,,,,,,,,,,,,,
60e7639e8eca5490df1e412e,SCR,2024-06-24_14h56.34.962,LearnStrategy,2023.2.3,Win32,60.24096386,,,,,,,,,,,6,09,5,6,,,,,,,,,,,,,,,,,,,,,,,,,,,,,,,
60e7639e8eca5490df1e412e,SCR,2024-06-24_14h56.34.962,LearnStrategy,2023.2.3,Win32,60.24096386,,,,,,,,,,,3,12,5,7,,,,,,,,,,,,,,,,,,,,,,,,,,,,,,,
60e7639e8eca5490df1e412e,SCR,2024-06-24_14h56.34.962,LearnStrategy,2023.2.3,Win32,60.24096386,,,,,,,,,,,1,04,5,8,,,,,,,,,,,,,,,,,,,,,,,,,,,,,,,
60e7639e8eca5490df1e412e,SCR,2024-06-24_14h56.34.962,LearnStrategy,2023.2.3,Win32,60.24096386,,,,,,,,,,,2,05,6,1,,,,,,,,,,,,,,,,,,,,,,,,,,,,,,,
60e7639e8eca5490df1e412e,SCR,2024-06-24_14h56.34.962,LearnStrategy,2023.2.3,Win32,60.24096386,,,,,,,,,,,3,14,6,2,,,,,,,,,,,,,,,,,,,,,,,,,,,,,,,
60e7639e8eca5490df1e412e,SCR,2024-06-24_14h56.34.962,LearnStrategy,2023.2.3,Win32,60.24096386,,,,,,,,,,,7,08,6,3,,,,,,,,,,,,,,,,,,,,,,,,,,,,,,,
60e7639e8eca5490df1e412e,SCR,2024-06-24_14h56.34.962,LearnStrategy,2023.2.3,Win32,60.24096386,,,,,,,,,,,1,11,6,4,,,,,,,,,,,,,,,,,,,,,,,,,,,,,,,
60e7639e8eca5490df1e412e,SCR,2024-06-24_14h56.34.962,LearnStrategy,2023.2.3,Win32,60.24096386,,,,,,,,,,,5,16,6,5,,,,,,,,,,,,,,,,,,,,,,,,,,,,,,,
60e7639e8eca5490df1e412e,SCR,2024-06-24_14h56.34.962,LearnStrategy,2023.2.3,Win32,60.24096386,,,,,,,,,,,4,09,6,6,,,,,,,,,,,,,,,,,,,,,,,,,,,,,,,
60e7639e8eca5490df1e412e,SCR,2024-06-24_14h56.34.962,LearnStrategy,2023.2.3,Win32,60.24096386,,,,,,,,,,,8,15,6,7,,,,,,,,,,,,,,,,,,,,,,,,,,,,,,,
60e7639e8eca5490df1e412e,SCR,2024-06-24_14h56.34.962,LearnStrategy,2023.2.3,Win32,60.24096386,,,,,,,,,,,1,01,6,8,,,,,,,,,,,,,,,,,,,,,,,,,,,,,,,