participant,condition,date,expName,psychopyVersion,OS,frameRate,block,phase,trial,learn_mouse_2.x,learn_mouse_2.y,learn_mouse_2.leftButton,learn_mouse_2.midButton,learn_mouse_2.rightButton,learn_mouse_2.time,learn_mouse_2.clicked_name,cat,token,row,col,t_select,cat_mouse_l.x,cat_mouse_l.y,cat_mouse_l.leftButton,cat_mouse_l.midButton,cat_mouse_l.rightButton,cat_mouse_l.time,cat_mouse_l.clicked_name,resp,t_resp,corr,train_trials.thisRepN,train_trials.thisTrialN,train_trials.thisN,train_trials.thisIndex,train_trials.ran,cat_mouse_t.x,cat_mouse_t.y,cat_mouse_t.leftButton,cat_mouse_t.midButton,cat_mouse_t.rightButton,cat_mouse_t.time,cat_mouse_t.clicked_name,test_trials.thisRepN,test_trials.thisTrialN,test_trials.thisN,test_trials.thisIndex,test_trials.ran,Bonus
60ed8f50e13ce18a6d406a09,TCN,2024-06-11_11h11.01.608,LearnStrategy,2023.2.3,Win32,59.88023952,,,,,,,,,,,,,,,,,,,,,,,,,,,,,,,,,,,,,,,,,,,
60ed8f50e13ce18a6d406a09,TCN,2024-06-11_11h11.01.608,LearnStrategy,2023.2.3,Win32,59.88023952,1,1,1,0.059895833,0.002604167,1,0,0,4.2298,rock_grid_rect_2,3,14,-1,-1,4.23,0.126302083,-0.24609375,1,0,0,15.71,Diorite_rect,3,15.71,1,0,0,0,0,1,,,,,,,,,,,,,
60ed8f50e13ce18a6d406a09,TCN,2024-06-11_11h11.01.608,LearnStrategy,2023.2.3,Win32,59.88023952,1,1,2,0.06640625,-0.001302083,1,0,0,1.711,rock_grid_rect_2,6,06,-1,-1,1.711,-0.3515625,-0.2578125,1,0,0,13.7257,Andesite_rect,1,13.726,0,1,0,1,0,1,,,,,,,,,,,,,
60ed8f50e13ce18a6d406a09,TCN,2024-06-11_11h11.01.608,LearnStrategy,2023.2.3,Win32,59.88023952,1,1,3,-0.03515625,-0.009114583,1,0,0,2.3602,rock_grid_rect_2,6,11,-1,-1,2.36,0.1015625,-0.401041667,1,0,0,6.0692,Peridotite_rect,7,6.069,0,2,0,2,0,1,,,,,,,,,,,,,
60ed8f50e13ce18a6d406a09,TCN,2024-06-11_11h11.01.608,LearnStrategy,2023.2.3,Win32,59.88023952,1,1,4,0.002604167,-0.005208333,1,0,0,1.3206,rock_grid_rect_2,2,09,-1,-1,1.321,-0.100260417,-0.270833333,1,0,0,1.8406,Basalt_rect,2,1.841,1,3,0,3,0,1,,,,,,,,,,,,,
60ed8f50e13ce18a6d406a09,TCN,2024-06-11_11h11.01.608,LearnStrategy,2023.2.3,Win32,59.88023952,1,1,5,-0.020833333,-0.00390625,1,0,0,1.2719,rock_grid_rect_2,5,05,-1,-1,1.272,-0.44140625,-0.40234375,1,0,0,5.8695,Obsidian_rect,5,5.87,1,4,0,4,0,1,,,,,,,,,,,,,
60ed8f50e13ce18a6d406a09,TCN,2024-06-11_11h11.01.608,LearnStrategy,2023.2.3,Win32,59.88023952,1,1,6,0.098958333,-0.010416667,1,0,0,1.4619,rock_grid_rect_2,4,08,-1,-1,1.462,0.338541667,-0.255208333,1,0,0,7.784,Gabbro_rect,4,7.784,1,5,0,5,0,1,,,,,,,,,,,,,
60ed8f50e13ce18a6d406a09,TCN,2024-06-11_11h11.01.608,LearnStrategy,2023.2.3,Win32,59.88023952,1,1,7,0.061197917,-0.009114583,1,0,0,1.8611,rock_grid_rect_2,5,16,-1,-1,1.861,-0.369791667,-0.411458333,1,0,0,2.1822,Obsidian_rect,5,2.182,1,6,0,6,0,1,,,,,,,,,,,,,
60ed8f50e13ce18a6d406a09,TCN,2024-06-11_11h11.01.608,LearnStrategy,2023.2.3,Win32,59.88023952,1,1,8,0.018229167,0.014322917,1,0,0,1.517,rock_grid_rect_2,1,03,-1,-1,1.517,0.079427083,-0.393229167,1,0,0,7.0295,Peridotite_rect,7,7.029,0,7,0,7,0,1,,,,,,,,,,,,,
60ed8f50e13ce18a6d406a09,TCN,2024-06-11_11h11.01.608,LearnStrategy,2023.2.3,Win32,59.88023952,1,1,9,-0.01953125,-0.020833333,1,0,0,1.5784,rock_grid_rect_2,7,16,-1,-1,1.578,-0.122395833,-0.401041667,1,0,0,6.4858,Pegmatite_rect,6,6.486,0,8,0,8,0,1,,,,,,,,,,,,,
60ed8f50e13ce18a6d406a09,TCN,2024-06-11_11h11.01.608,LearnStrategy,2023.2.3,Win32,59.88023952,1,1,10,-0.01171875,-0.010416667,1,0,0,1.4874,rock_grid_rect_2,1,05,-1,-1,1.487,0.115885417,-0.24609375,1,0,0,9.1328,Diorite_rect,3,9.133,0,9,0,9,0,1,,,,,,,,,,,,,
60ed8f50e13ce18a6d406a09,TCN,2024-06-11_11h11.01.608,LearnStrategy,2023.2.3,Win32,59.88023952,1,1,11,-0.022135417,-0.002604167,1,0,0,1.3118,rock_grid_rect_2,8,14,-1,-1,1.312,0.359375,-0.3984375,1,0,0,1.708,Pumice_rect,8,1.708,1,10,0,10,0,1,,,,,,,,,,,,,
60ed8f50e13ce18a6d406a09,TCN,2024-06-11_11h11.01.608,LearnStrategy,2023.2.3,Win32,59.88023952,1,1,12,0.026041667,-0.0078125,1,0,0,1.1796,rock_grid_rect_2,7,12,-1,-1,1.18,-0.07421875,-0.391927083,1,0,0,2.7577,Pegmatite_rect,6,2.758,0,11,0,11,0,1,,,,,,,,,,,,,
60ed8f50e13ce18a6d406a09,TCN,2024-06-11_11h11.01.608,LearnStrategy,2023.2.3,Win32,59.88023952,1,1,13,0.036458333,-0.010416667,1,0,0,1.1958,rock_grid_rect_2,2,11,-1,-1,1.196,-0.1015625,-0.24609375,1,0,0,2.2568,Basalt_rect,2,2.257,1,12,0,12,0,1,,,,,,,,,,,,,
60ed8f50e13ce18a6d406a09,TCN,2024-06-11_11h11.01.608,LearnStrategy,2023.2.3,Win32,59.88023952,1,1,14,-0.0234375,-0.0078125,1,0,0,1.3619,rock_grid_rect_2,3,10,-1,-1,1.362,0.100260417,-0.41015625,1,0,0,2.9896,Peridotite_rect,7,2.99,0,13,0,13,0,1,,,,,,,,,,,,,
60ed8f50e13ce18a6d406a09,TCN,2024-06-11_11h11.01.608,LearnStrategy,2023.2.3,Win32,59.88023952,1,1,15,-0.02734375,0.010416667,1,0,0,1.3281,rock_grid_rect_2,8,09,-1,-1,1.328,0.333333333,-0.385416667,1,0,0,4.3708,Pumice_rect,8,4.371,1,14,0,14,0,1,,,,,,,,,,,,,
60ed8f50e13ce18a6d406a09,TCN,2024-06-11_11h11.01.608,LearnStrategy,2023.2.3,Win32,59.88023952,1,1,16,0.049479167,0.001302083,1,0,0,1.1291,rock_grid_rect_2,4,03,-1,-1,1.129,0.102864583,-0.395833333,1,0,0,4.4437,Peridotite_rect,7,4.444,0,15,0,15,0,1,,,,,,,,,,,,,
60ed8f50e13ce18a6d406a09,TCN,2024-06-11_11h11.01.608,LearnStrategy,2023.2.3,Win32,59.88023952,1,2,1,,,,,,,,7,06,,,,,,,,,,,7,2.688,1,,,,,,0.16796875,-0.407552083,1,0,0,2.6883,Peridotite_rect,0,0,0,0,1,
60ed8f50e13ce18a6d406a09,TCN,2024-06-11_11h11.01.608,LearnStrategy,2023.2.3,Win32,59.88023952,1,2,2,,,,,,,,4,15,,,,,,,,,,,6,5.017,0,,,,,,-0.0859375,-0.3828125,1,0,0,5.0174,Pegmatite_rect,1,0,1,0,1,
60ed8f50e13ce18a6d406a09,TCN,2024-06-11_11h11.01.608,LearnStrategy,2023.2.3,Win32,59.88023952,1,2,3,,,,,,,,8,02,,,,,,,,,,,8,2.043,1,,,,,,0.348958333,-0.389322917,1,0,0,2.0433,Pumice_rect,2,0,2,0,1,
60ed8f50e13ce18a6d406a09,TCN,2024-06-11_11h11.01.608,LearnStrategy,2023.2.3,Win32,59.88023952,1,2,4,,,,,,,,6,13,,,,,,,,,,,3,4.688,0,,,,,,0.12890625,-0.25390625,1,0,0,4.6876,Diorite_rect,3,0,3,0,1,
60ed8f50e13ce18a6d406a09,TCN,2024-06-11_11h11.01.608,LearnStrategy,2023.2.3,Win32,59.88023952,1,2,5,,,,,,,,1,09,,,,,,,,,,,1,2.179,1,,,,,,-0.369791667,-0.255208333,1,0,0,2.1794,Andesite_rect,4,0,4,0,1,
60ed8f50e13ce18a6d406a09,TCN,2024-06-11_11h11.01.608,LearnStrategy,2023.2.3,Win32,59.88023952,1,2,6,,,,,,,,4,01,,,,,,,,,,,6,2.823,0,,,,,,-0.16796875,-0.393229167,1,0,0,2.823,Pegmatite_rect,5,0,5,0,1,
60ed8f50e13ce18a6d406a09,TCN,2024-06-11_11h11.01.608,LearnStrategy,2023.2.3,Win32,59.88023952,1,2,7,,,,,,,,3,06,,,,,,,,,,,4,5.869,0,,,,,,0.427083333,-0.256510417,1,0,0,5.8691,Gabbro_rect,6,0,6,0,1,
60ed8f50e13ce18a6d406a09,TCN,2024-06-11_11h11.01.608,LearnStrategy,2023.2.3,Win32,59.88023952,1,2,8,,,,,,,,3,11,,,,,,,,,,,1,7.6,0,,,,,,-0.35546875,-0.247395833,1,0,0,7.6002,Andesite_rect,7,0,7,0,1,
60ed8f50e13ce18a6d406a09,TCN,2024-06-11_11h11.01.608,LearnStrategy,2023.2.3,Win32,59.88023952,1,2,9,,,,,,,,6,15,,,,,,,,,,,6,3.672,1,,,,,,-0.110677083,-0.401041667,1,0,0,3.6718,Pegmatite_rect,8,0,8,0,1,
60ed8f50e13ce18a6d406a09,TCN,2024-06-11_11h11.01.608,LearnStrategy,2023.2.3,Win32,59.88023952,1,2,10,,,,,,,,5,10,,,,,,,,,,,5,2.257,1,,,,,,-0.3671875,-0.401041667,1,0,0,2.2566,Obsidian_rect,9,0,9,0,1,
60ed8f50e13ce18a6d406a09,TCN,2024-06-11_11h11.01.608,LearnStrategy,2023.2.3,Win32,59.88023952,1,2,11,,,,,,,,2,12,,,,,,,,,,,8,3.023,0,,,,,,0.401041667,-0.395833333,1,0,0,3.0227,Pumice_rect,10,0,10,0,1,
60ed8f50e13ce18a6d406a09,TCN,2024-06-11_11h11.01.608,LearnStrategy,2023.2.3,Win32,59.88023952,1,2,12,,,,,,,,7,13,,,,,,,,,,,2,6.434,0,,,,,,-0.098958333,-0.25390625,1,0,0,6.434,Basalt_rect,11,0,11,0,1,
60ed8f50e13ce18a6d406a09,TCN,2024-06-11_11h11.01.608,LearnStrategy,2023.2.3,Win32,59.88023952,1,2,13,,,,,,,,8,15,,,,,,,,,,,8,1.824,1,,,,,,0.34375,-0.3984375,1,0,0,1.8238,Pumice_rect,12,0,12,0,1,
60ed8f50e13ce18a6d406a09,TCN,2024-06-11_11h11.01.608,LearnStrategy,2023.2.3,Win32,59.88023952,1,2,14,,,,,,,,2,10,,,,,,,,,,,5,6.452,0,,,,,,-0.377604167,-0.38671875,1,0,0,6.452,Obsidian_rect,13,0,13,0,1,
60ed8f50e13ce18a6d406a09,TCN,2024-06-11_11h11.01.608,LearnStrategy,2023.2.3,Win32,59.88023952,1,2,15,,,,,,,,5,02,,,,,,,,,,,5,1.191,1,,,,,,-0.377604167,-0.38671875,1,0,0,1.1911,Obsidian_rect,14,0,14,0,1,
60ed8f50e13ce18a6d406a09,TCN,2024-06-11_11h11.01.608,LearnStrategy,2023.2.3,Win32,59.88023952,1,2,16,,,,,,,,1,04,,,,,,,,,,,1,4.088,1,,,,,,-0.307291667,-0.25390625,1,0,0,4.0882,Andesite_rect,15,0,15,0,1,
60ed8f50e13ce18a6d406a09,TCN,2024-06-11_11h11.01.608,LearnStrategy,2023.2.3,Win32,59.88023952,2,1,1,-0.016927083,-0.002604167,1,0,0,1.7456,rock_grid_rect_2,6,05,-1,-1,1.746,-0.065104167,-0.407552083,1,0,0,6.5179,Pegmatite_rect,6,6.518,1,0,0,0,0,1,,,,,,,,,,,,,
60ed8f50e13ce18a6d406a09,TCN,2024-06-11_11h11.01.608,LearnStrategy,2023.2.3,Win32,59.88023952,2,1,2,0.005208333,-0.018229167,1,0,0,1.2119,rock_grid_rect_2,8,16,-1,-1,1.212,0.350260417,-0.384114583,1,0,0,1.5079,Pumice_rect,8,1.508,1,1,0,1,0,1,,,,,,,,,,,,,
60ed8f50e13ce18a6d406a09,TCN,2024-06-11_11h11.01.608,LearnStrategy,2023.2.3,Win32,59.88023952,2,1,3,-0.002604167,0,1,0,0,1.9282,rock_grid_rect_2,8,13,-1,-1,1.928,0.380208333,-0.395833333,1,0,0,2.039,Pumice_rect,8,2.039,1,2,0,2,0,1,,,,,,,,,,,,,
60ed8f50e13ce18a6d406a09,TCN,2024-06-11_11h11.01.608,LearnStrategy,2023.2.3,Win32,59.88023952,2,1,4,0.061197917,-0.009114583,1,0,0,1.429,rock_grid_rect_2,3,13,-1,-1,1.429,0.10546875,-0.3984375,1,0,0,3.5558,Peridotite_rect,7,3.556,0,3,0,3,0,1,,,,,,,,,,,,,
60ed8f50e13ce18a6d406a09,TCN,2024-06-11_11h11.01.608,LearnStrategy,2023.2.3,Win32,59.88023952,2,1,5,0.0390625,-0.005208333,1,0,0,1.0451,rock_grid_rect_2,6,07,-1,-1,1.045,0.075520833,-0.401041667,1,0,0,2.2743,Peridotite_rect,7,2.274,0,4,0,4,0,1,,,,,,,,,,,,,
60ed8f50e13ce18a6d406a09,TCN,2024-06-11_11h11.01.608,LearnStrategy,2023.2.3,Win32,59.88023952,2,1,6,-0.061197917,-0.01171875,1,0,0,1.1293,rock_grid_rect_2,5,12,-1,-1,1.129,-0.352864583,-0.3984375,1,0,0,1.6412,Obsidian_rect,5,1.641,1,5,0,5,0,1,,,,,,,,,,,,,
60ed8f50e13ce18a6d406a09,TCN,2024-06-11_11h11.01.608,LearnStrategy,2023.2.3,Win32,59.88023952,2,1,7,-0.052083333,-0.009114583,1,0,0,1.1791,rock_grid_rect_2,2,05,-1,-1,1.179,-0.10546875,-0.2421875,1,0,0,1.4915,Basalt_rect,2,1.492,1,6,0,6,0,1,,,,,,,,,,,,,
60ed8f50e13ce18a6d406a09,TCN,2024-06-11_11h11.01.608,LearnStrategy,2023.2.3,Win32,59.88023952,2,1,8,0.016927083,0.00390625,1,0,0,1.2625,rock_grid_rect_2,3,02,-1,-1,1.263,-0.06640625,-0.411458333,1,0,0,2.4071,Pegmatite_rect,6,2.407,0,7,0,7,0,1,,,,,,,,,,,,,
60ed8f50e13ce18a6d406a09,TCN,2024-06-11_11h11.01.608,LearnStrategy,2023.2.3,Win32,59.88023952,2,1,9,0.061197917,-0.010416667,1,0,0,1.1451,rock_grid_rect_2,1,16,-1,-1,1.145,-0.078125,-0.385416667,1,0,0,2.0744,Pegmatite_rect,6,2.074,0,8,0,8,0,1,,,,,,,,,,,,,
60ed8f50e13ce18a6d406a09,TCN,2024-06-11_11h11.01.608,LearnStrategy,2023.2.3,Win32,59.88023952,2,1,10,0.010416667,-0.009114583,1,0,0,1.0458,rock_grid_rect_2,1,10,-1,-1,1.046,0.356770833,-0.4140625,1,0,0,1.8413,Pumice_rect,8,1.841,0,9,0,9,0,1,,,,,,,,,,,,,
60ed8f50e13ce18a6d406a09,TCN,2024-06-11_11h11.01.608,LearnStrategy,2023.2.3,Win32,59.88023952,2,1,11,-0.006510417,0.018229167,1,0,0,0.9797,rock_grid_rect_2,7,02,-1,-1,0.98,0.328125,-0.255208333,1,0,0,2.3574,Gabbro_rect,4,2.357,0,10,0,10,0,1,,,,,,,,,,,,,
60ed8f50e13ce18a6d406a09,TCN,2024-06-11_11h11.01.608,LearnStrategy,2023.2.3,Win32,59.88023952,2,1,12,-0.01953125,-0.024739583,1,0,0,1.1287,rock_grid_rect_2,4,13,-1,-1,1.129,-0.091145833,-0.380208333,1,0,0,2.5887,Pegmatite_rect,6,2.589,0,11,0,11,0,1,,,,,,,,,,,,,
60ed8f50e13ce18a6d406a09,TCN,2024-06-11_11h11.01.608,LearnStrategy,2023.2.3,Win32,59.88023952,2,1,13,0.158854167,0.009114583,1,0,0,0.9452,rock_grid_rect_2,5,14,-1,-1,0.945,-0.31640625,-0.399739583,1,0,0,1.8245,Obsidian_rect,5,1.825,1,12,0,12,0,1,,,,,,,,,,,,,
60ed8f50e13ce18a6d406a09,TCN,2024-06-11_11h11.01.608,LearnStrategy,2023.2.3,Win32,59.88023952,2,1,14,-0.06640625,0.001302083,1,0,0,1.0129,rock_grid_rect_2,2,08,-1,-1,1.013,-0.096354167,-0.252604167,1,0,0,1.3249,Basalt_rect,2,1.325,1,13,0,13,0,1,,,,,,,,,,,,,
60ed8f50e13ce18a6d406a09,TCN,2024-06-11_11h11.01.608,LearnStrategy,2023.2.3,Win32,59.88023952,2,1,15,-0.104166667,0,1,0,0,1.3288,rock_grid_rect_2,7,04,-1,-1,1.329,-0.104166667,-0.412760417,1,0,0,3.3729,Pegmatite_rect,6,3.373,0,14,0,14,0,1,,,,,,,,,,,,,
60ed8f50e13ce18a6d406a09,TCN,2024-06-11_11h11.01.608,LearnStrategy,2023.2.3,Win32,59.88023952,2,1,16,-0.013020833,-0.002604167,1,0,0,1.4284,rock_grid_rect_2,4,10,-1,-1,1.428,-0.322916667,-0.255208333,1,0,0,4.2058,Andesite_rect,1,4.206,0,15,0,15,0,1,,,,,,,,,,,,,
60ed8f50e13ce18a6d406a09,TCN,2024-06-11_11h11.01.608,LearnStrategy,2023.2.3,Win32,59.88023952,2,2,1,,,,,,,,4,05,,,,,,,,,,,3,3.888,0,,,,,,0.17578125,-0.244791667,1,0,0,3.8882,Diorite_rect,0,0,0,0,1,
60ed8f50e13ce18a6d406a09,TCN,2024-06-11_11h11.01.608,LearnStrategy,2023.2.3,Win32,59.88023952,2,2,2,,,,,,,,2,01,,,,,,,,,,,2,1.732,1,,,,,,-0.125,-0.247395833,1,0,0,1.7319,Basalt_rect,1,0,1,0,1,
60ed8f50e13ce18a6d406a09,TCN,2024-06-11_11h11.01.608,LearnStrategy,2023.2.3,Win32,59.88023952,2,2,3,,,,,,,,5,07,,,,,,,,,,,5,1.271,1,,,,,,-0.358072917,-0.401041667,1,0,0,1.2712,Obsidian_rect,2,0,2,0,1,
60ed8f50e13ce18a6d406a09,TCN,2024-06-11_11h11.01.608,LearnStrategy,2023.2.3,Win32,59.88023952,2,2,4,,,,,,,,2,06,,,,,,,,,,,2,1.532,1,,,,,,-0.174479167,-0.243489583,1,0,0,1.5322,Basalt_rect,3,0,3,0,1,
60ed8f50e13ce18a6d406a09,TCN,2024-06-11_11h11.01.608,LearnStrategy,2023.2.3,Win32,59.88023952,2,2,5,,,,,,,,6,12,,,,,,,,,,,6,4.23,1,,,,,,-0.087239583,-0.407552083,1,0,0,4.2304,Pegmatite_rect,4,0,4,0,1,
60ed8f50e13ce18a6d406a09,TCN,2024-06-11_11h11.01.608,LearnStrategy,2023.2.3,Win32,59.88023952,2,2,6,,,,,,,,6,03,,,,,,,,,,,3,2.23,0,,,,,,0.12109375,-0.26171875,1,0,0,2.2299,Diorite_rect,5,0,5,0,1,
60ed8f50e13ce18a6d406a09,TCN,2024-06-11_11h11.01.608,LearnStrategy,2023.2.3,Win32,59.88023952,2,2,7,,,,,,,,1,07,,,,,,,,,,,4,3.053,0,,,,,,0.328125,-0.2578125,1,0,0,3.0527,Gabbro_rect,6,0,6,0,1,
60ed8f50e13ce18a6d406a09,TCN,2024-06-11_11h11.01.608,LearnStrategy,2023.2.3,Win32,59.88023952,2,2,8,,,,,,,,3,07,,,,,,,,,,,1,2.705,0,,,,,,-0.33984375,-0.2578125,1,0,0,2.7047,Andesite_rect,7,0,7,0,1,
60ed8f50e13ce18a6d406a09,TCN,2024-06-11_11h11.01.608,LearnStrategy,2023.2.3,Win32,59.88023952,2,2,9,,,,,,,,3,08,,,,,,,,,,,1,1.59,0,,,,,,-0.352864583,-0.264322917,1,0,0,1.59,Andesite_rect,8,0,8,0,1,
60ed8f50e13ce18a6d406a09,TCN,2024-06-11_11h11.01.608,LearnStrategy,2023.2.3,Win32,59.88023952,2,2,10,,,,,,,,8,04,,,,,,,,,,,8,1.676,1,,,,,,0.328125,-0.412760417,1,0,0,1.6759,Pumice_rect,9,0,9,0,1,
60ed8f50e13ce18a6d406a09,TCN,2024-06-11_11h11.01.608,LearnStrategy,2023.2.3,Win32,59.88023952,2,2,11,,,,,,,,8,06,,,,,,,,,,,8,1.56,1,,,,,,0.38671875,-0.397135417,1,0,0,1.56,Pumice_rect,10,0,10,0,1,
60ed8f50e13ce18a6d406a09,TCN,2024-06-11_11h11.01.608,LearnStrategy,2023.2.3,Win32,59.88023952,2,2,12,,,,,,,,1,01,,,,,,,,,,,3,4.724,0,,,,,,0.102864583,-0.240885417,1,0,0,4.7236,Diorite_rect,11,0,11,0,1,
60ed8f50e13ce18a6d406a09,TCN,2024-06-11_11h11.01.608,LearnStrategy,2023.2.3,Win32,59.88023952,2,2,13,,,,,,,,4,09,,,,,,,,,,,7,1.757,0,,,,,,0.111979167,-0.39453125,1,0,0,1.7571,Peridotite_rect,12,0,12,0,1,
60ed8f50e13ce18a6d406a09,TCN,2024-06-11_11h11.01.608,LearnStrategy,2023.2.3,Win32,59.88023952,2,2,14,,,,,,,,7,07,,,,,,,,,,,1,1.691,0,,,,,,-0.358072917,-0.255208333,1,0,0,1.691,Andesite_rect,13,0,13,0,1,
60ed8f50e13ce18a6d406a09,TCN,2024-06-11_11h11.01.608,LearnStrategy,2023.2.3,Win32,59.88023952,2,2,15,,,,,,,,5,04,,,,,,,,,,,5,1.225,1,,,,,,-0.352864583,-0.403645833,1,0,0,1.225,Obsidian_rect,14,0,14,0,1,
60ed8f50e13ce18a6d406a09,TCN,2024-06-11_11h11.01.608,LearnStrategy,2023.2.3,Win32,59.88023952,2,2,16,,,,,,,,7,08,,,,,,,,,,,6,2.175,0,,,,,,-0.16796875,-0.403645833,1,0,0,2.1746,Pegmatite_rect,15,0,15,0,1,
60ed8f50e13ce18a6d406a09,TCN,2024-06-11_11h11.01.608,LearnStrategy,2023.2.3,Win32,59.88023952,3,1,1,0.08203125,0.002604167,1,0,0,1.1797,rock_grid_rect_2,1,06,-1,-1,1.18,-0.069010417,-0.389322917,1,0,0,5.8698,Pegmatite_rect,6,5.87,0,0,0,0,0,1,,,,,,,,,,,,,
60ed8f50e13ce18a6d406a09,TCN,2024-06-11_11h11.01.608,LearnStrategy,2023.2.3,Win32,59.88023952,3,1,2,-0.022135417,-0.00390625,1,0,0,1.096,rock_grid_rect_2,3,16,-1,-1,1.096,-0.356770833,-0.247395833,1,0,0,1.8913,Andesite_rect,1,1.891,0,1,0,1,0,1,,,,,,,,,,,,,
60ed8f50e13ce18a6d406a09,TCN,2024-06-11_11h11.01.608,LearnStrategy,2023.2.3,Win32,59.88023952,3,1,3,-0.032552083,0.006510417,1,0,0,1.063,rock_grid_rect_2,1,14,-1,-1,1.063,0.109375,-0.37890625,1,0,0,2.1083,Peridotite_rect,7,2.108,0,2,0,2,0,1,,,,,,,,,,,,,
60ed8f50e13ce18a6d406a09,TCN,2024-06-11_11h11.01.608,LearnStrategy,2023.2.3,Win32,59.88023952,3,1,4,-0.029947917,0.005208333,1,0,0,0.9466,rock_grid_rect_2,5,06,-1,-1,0.947,-0.361979167,-0.3828125,1,0,0,1.6583,Obsidian_rect,5,1.658,1,3,0,3,0,1,,,,,,,,,,,,,
60ed8f50e13ce18a6d406a09,TCN,2024-06-11_11h11.01.608,LearnStrategy,2023.2.3,Win32,59.88023952,3,1,5,-0.053385417,-0.006510417,1,0,0,0.9963,rock_grid_rect_2,2,16,-1,-1,0.996,-0.114583333,-0.259114583,1,0,0,1.3939,Basalt_rect,2,1.394,1,4,0,4,0,1,,,,,,,,,,,,,
60ed8f50e13ce18a6d406a09,TCN,2024-06-11_11h11.01.608,LearnStrategy,2023.2.3,Win32,59.88023952,3,1,6,-0.045572917,0.001302083,1,0,0,1.1961,rock_grid_rect_2,8,05,-1,-1,1.196,0.352864583,-0.393229167,1,0,0,1.7586,Pumice_rect,8,1.759,1,5,0,5,0,1,,,,,,,,,,,,,
60ed8f50e13ce18a6d406a09,TCN,2024-06-11_11h11.01.608,LearnStrategy,2023.2.3,Win32,59.88023952,3,1,7,-0.053385417,-0.010416667,1,0,0,0.9965,rock_grid_rect_2,7,10,-1,-1,0.996,0.375,-0.24609375,1,0,0,3.7891,Gabbro_rect,4,3.789,0,6,0,6,0,1,,,,,,,,,,,,,
60ed8f50e13ce18a6d406a09,TCN,2024-06-11_11h11.01.608,LearnStrategy,2023.2.3,Win32,59.88023952,3,1,8,-0.065104167,-0.00390625,1,0,0,0.9623,rock_grid_rect_2,7,15,-1,-1,0.962,0.106770833,-0.247395833,1,0,0,1.625,Diorite_rect,3,1.625,0,7,0,7,0,1,,,,,,,,,,,,,
60ed8f50e13ce18a6d406a09,TCN,2024-06-11_11h11.01.608,LearnStrategy,2023.2.3,Win32,59.88023952,3,1,9,-0.009114583,-0.006510417,1,0,0,0.9631,rock_grid_rect_2,4,11,-1,-1,0.963,-0.135416667,-0.404947917,1,0,0,2.7272,Pegmatite_rect,6,2.727,0,8,0,8,0,1,,,,,,,,,,,,,
60ed8f50e13ce18a6d406a09,TCN,2024-06-11_11h11.01.608,LearnStrategy,2023.2.3,Win32,59.88023952,3,1,10,-0.098958333,-0.01171875,1,0,0,1.1456,rock_grid_rect_2,6,09,-1,-1,1.146,0.08203125,-0.24609375,1,0,0,2.1107,Diorite_rect,3,2.111,0,9,0,9,0,1,,,,,,,,,,,,,
60ed8f50e13ce18a6d406a09,TCN,2024-06-11_11h11.01.608,LearnStrategy,2023.2.3,Win32,59.88023952,3,1,11,0.028645833,0,1,0,0,0.8796,rock_grid_rect_2,8,08,-1,-1,0.88,0.345052083,-0.390625,1,0,0,1.2754,Pumice_rect,8,1.275,1,10,0,10,0,1,,,,,,,,,,,,,
60ed8f50e13ce18a6d406a09,TCN,2024-06-11_11h11.01.608,LearnStrategy,2023.2.3,Win32,59.88023952,3,1,12,0.013020833,-0.0078125,1,0,0,0.9464,rock_grid_rect_2,3,15,-1,-1,0.946,-0.3828125,-0.24609375,1,0,0,2.7573,Andesite_rect,1,2.757,0,11,0,11,0,1,,,,,,,,,,,,,
60ed8f50e13ce18a6d406a09,TCN,2024-06-11_11h11.01.608,LearnStrategy,2023.2.3,Win32,59.88023952,3,1,13,-0.024739583,0.005208333,1,0,0,0.9788,rock_grid_rect_2,5,09,-1,-1,0.979,-0.33984375,-0.4140625,1,0,0,1.7246,Obsidian_rect,5,1.725,1,12,0,12,0,1,,,,,,,,,,,,,
60ed8f50e13ce18a6d406a09,TCN,2024-06-11_11h11.01.608,LearnStrategy,2023.2.3,Win32,59.88023952,3,1,14,0.080729167,0.006510417,1,0,0,1.1127,rock_grid_rect_2,4,14,-1,-1,1.113,0.342447917,-0.234375,1,0,0,1.8915,Gabbro_rect,4,1.891,1,13,0,13,0,1,,,,,,,,,,,,,
60ed8f50e13ce18a6d406a09,TCN,2024-06-11_11h11.01.608,LearnStrategy,2023.2.3,Win32,59.88023952,3,1,15,0.06640625,0.006510417,1,0,0,0.9965,rock_grid_rect_2,6,08,-1,-1,0.996,0.092447917,-0.255208333,1,0,0,1.4086,Diorite_rect,3,1.409,0,14,0,14,0,1,,,,,,,,,,,,,
60ed8f50e13ce18a6d406a09,TCN,2024-06-11_11h11.01.608,LearnStrategy,2023.2.3,Win32,59.88023952,3,1,16,-0.041666667,0.001302083,1,0,0,1.1627,rock_grid_rect_2,2,04,-1,-1,1.163,-0.084635417,-0.239583333,1,0,0,1.7416,Basalt_rect,2,1.742,1,15,0,15,0,1,,,,,,,,,,,,,
60ed8f50e13ce18a6d406a09,TCN,2024-06-11_11h11.01.608,LearnStrategy,2023.2.3,Win32,59.88023952,3,2,1,,,,,,,,3,09,,,,,,,,,,,1,3.156,0,,,,,,-0.3359375,-0.24609375,1,0,0,3.1561,Andesite_rect,0,0,0,0,1,
60ed8f50e13ce18a6d406a09,TCN,2024-06-11_11h11.01.608,LearnStrategy,2023.2.3,Win32,59.88023952,3,2,2,,,,,,,,7,14,,,,,,,,,,,6,1.591,0,,,,,,-0.111979167,-0.411458333,1,0,0,1.5909,Pegmatite_rect,1,0,1,0,1,
60ed8f50e13ce18a6d406a09,TCN,2024-06-11_11h11.01.608,LearnStrategy,2023.2.3,Win32,59.88023952,3,2,3,,,,,,,,7,05,,,,,,,,,,,7,3.324,1,,,,,,0.09765625,-0.381510417,1,0,0,3.3244,Peridotite_rect,2,0,2,0,1,
60ed8f50e13ce18a6d406a09,TCN,2024-06-11_11h11.01.608,LearnStrategy,2023.2.3,Win32,59.88023952,3,2,4,,,,,,,,1,02,,,,,,,,,,,3,2.881,0,,,,,,0.154947917,-0.239583333,1,0,0,2.8813,Diorite_rect,3,0,3,0,1,
60ed8f50e13ce18a6d406a09,TCN,2024-06-11_11h11.01.608,LearnStrategy,2023.2.3,Win32,59.88023952,3,2,5,,,,,,,,4,12,,,,,,,,,,,4,0.942,1,,,,,,0.360677083,-0.247395833,1,0,0,0.942,Gabbro_rect,4,0,4,0,1,
60ed8f50e13ce18a6d406a09,TCN,2024-06-11_11h11.01.608,LearnStrategy,2023.2.3,Win32,59.88023952,3,2,6,,,,,,,,8,10,,,,,,,,,,,8,1.183,1,,,,,,0.3203125,-0.3828125,1,0,0,1.1833,Pumice_rect,5,0,5,0,1,
60ed8f50e13ce18a6d406a09,TCN,2024-06-11_11h11.01.608,LearnStrategy,2023.2.3,Win32,59.88023952,3,2,7,,,,,,,,3,12,,,,,,,,,,,3,3.904,1,,,,,,0.044270833,-0.251302083,1,0,0,3.9037,Diorite_rect,6,0,6,0,1,
60ed8f50e13ce18a6d406a09,TCN,2024-06-11_11h11.01.608,LearnStrategy,2023.2.3,Win32,59.88023952,3,2,8,,,,,,,,6,16,,,,,,,,,,,3,1.625,0,,,,,,0.127604167,-0.252604167,1,0,0,1.6246,Diorite_rect,7,0,7,0,1,
60ed8f50e13ce18a6d406a09,TCN,2024-06-11_11h11.01.608,LearnStrategy,2023.2.3,Win32,59.88023952,3,2,9,,,,,,,,2,02,,,,,,,,,,,2,1.108,1,,,,,,-0.091145833,-0.251302083,1,0,0,1.108,Basalt_rect,8,0,8,0,1,
60ed8f50e13ce18a6d406a09,TCN,2024-06-11_11h11.01.608,LearnStrategy,2023.2.3,Win32,59.88023952,3,2,10,,,,,,,,6,10,,,,,,,,,,,7,3.872,0,,,,,,0.149739583,-0.390625,1,0,0,3.8722,Peridotite_rect,9,0,9,0,1,
60ed8f50e13ce18a6d406a09,TCN,2024-06-11_11h11.01.608,LearnStrategy,2023.2.3,Win32,59.88023952,3,2,11,,,,,,,,5,08,,,,,,,,,,,5,1.341,1,,,,,,-0.3515625,-0.404947917,1,0,0,1.3412,Obsidian_rect,10,0,10,0,1,
60ed8f50e13ce18a6d406a09,TCN,2024-06-11_11h11.01.608,LearnStrategy,2023.2.3,Win32,59.88023952,3,2,12,,,,,,,,1,11,,,,,,,,,,,1,4.376,1,,,,,,-0.34375,-0.248697917,1,0,0,4.3765,Andesite_rect,11,0,11,0,1,
60ed8f50e13ce18a6d406a09,TCN,2024-06-11_11h11.01.608,LearnStrategy,2023.2.3,Win32,59.88023952,3,2,13,,,,,,,,4,16,,,,,,,,,,,6,3.856,0,,,,,,-0.049479167,-0.403645833,1,0,0,3.8561,Pegmatite_rect,12,0,12,0,1,
60ed8f50e13ce18a6d406a09,TCN,2024-06-11_11h11.01.608,LearnStrategy,2023.2.3,Win32,59.88023952,3,2,14,,,,,,,,5,11,,,,,,,,,,,5,1.258,1,,,,,,-0.34765625,-0.404947917,1,0,0,1.2578,Obsidian_rect,13,0,13,0,1,
60ed8f50e13ce18a6d406a09,TCN,2024-06-11_11h11.01.608,LearnStrategy,2023.2.3,Win32,59.88023952,3,2,15,,,,,,,,2,14,,,,,,,,,,,8,1.991,0,,,,,,0.346354167,-0.403645833,1,0,0,1.9909,Pumice_rect,14,0,14,0,1,
60ed8f50e13ce18a6d406a09,TCN,2024-06-11_11h11.01.608,LearnStrategy,2023.2.3,Win32,59.88023952,3,2,16,,,,,,,,8,03,,,,,,,,,,,8,1.075,1,,,,,,0.395833333,-0.401041667,1,0,0,1.075,Pumice_rect,15,0,15,0,1,
60ed8f50e13ce18a6d406a09,TCN,2024-06-11_11h11.01.608,LearnStrategy,2023.2.3,Win32,59.88023952,4,1,1,0.01171875,-0.006510417,1,0,0,1.6791,rock_grid_rect_2,1,16,-1,-1,1.679,0.143229167,-0.252604167,1,0,0,4.6541,Diorite_rect,3,4.654,0,0,0,0,0,1,,,,,,,,,,,,,
60ed8f50e13ce18a6d406a09,TCN,2024-06-11_11h11.01.608,LearnStrategy,2023.2.3,Win32,59.88023952,4,1,2,0.033854167,0.010416667,1,0,0,1.0285,rock_grid_rect_2,7,12,-1,-1,1.029,0.075520833,-0.240885417,1,0,0,1.8579,Diorite_rect,3,1.858,0,1,0,1,0,1,,,,,,,,,,,,,
60ed8f50e13ce18a6d406a09,TCN,2024-06-11_11h11.01.608,LearnStrategy,2023.2.3,Win32,59.88023952,4,1,3,-0.05078125,-0.014322917,1,0,0,0.9132,rock_grid_rect_2,7,02,-1,-1,0.913,0.138020833,-0.388020833,1,0,0,1.2587,Peridotite_rect,7,1.259,1,2,0,2,0,1,,,,,,,,,,,,,
60ed8f50e13ce18a6d406a09,TCN,2024-06-11_11h11.01.608,LearnStrategy,2023.2.3,Win32,59.88023952,4,1,4,0.01171875,-0.010416667,1,0,0,1.0132,rock_grid_rect_2,4,08,-1,-1,1.013,-0.330729167,-0.251302083,1,0,0,3.1897,Andesite_rect,1,3.19,0,3,0,3,0,1,,,,,,,,,,,,,
60ed8f50e13ce18a6d406a09,TCN,2024-06-11_11h11.01.608,LearnStrategy,2023.2.3,Win32,59.88023952,4,1,5,0.0078125,-0.002604167,1,0,0,1.0451,rock_grid_rect_2,2,05,-1,-1,1.045,-0.111979167,-0.255208333,1,0,0,1.4331,Basalt_rect,2,1.433,1,4,0,4,0,1,,,,,,,,,,,,,
60ed8f50e13ce18a6d406a09,TCN,2024-06-11_11h11.01.608,LearnStrategy,2023.2.3,Win32,59.88023952,4,1,6,-0.03125,-0.01171875,1,0,0,1.063,rock_grid_rect_2,5,14,-1,-1,1.063,-0.348958333,-0.420572917,1,0,0,1.7247,Obsidian_rect,5,1.725,1,5,0,5,0,1,,,,,,,,,,,,,
60ed8f50e13ce18a6d406a09,TCN,2024-06-11_11h11.01.608,LearnStrategy,2023.2.3,Win32,59.88023952,4,1,7,0.015625,0,1,0,0,1.0453,rock_grid_rect_2,2,08,-1,-1,1.045,-0.11328125,-0.26171875,1,0,0,1.7914,Basalt_rect,2,1.791,1,6,0,6,0,1,,,,,,,,,,,,,
60ed8f50e13ce18a6d406a09,TCN,2024-06-11_11h11.01.608,LearnStrategy,2023.2.3,Win32,59.88023952,4,1,8,-0.037760417,-0.010416667,1,0,0,1.1626,rock_grid_rect_2,6,11,-1,-1,1.163,0.1171875,-0.247395833,1,0,0,1.8906,Diorite_rect,3,1.891,0,7,0,7,0,1,,,,,,,,,,,,,
60ed8f50e13ce18a6d406a09,TCN,2024-06-11_11h11.01.608,LearnStrategy,2023.2.3,Win32,59.88023952,4,1,9,0.002604167,-0.009114583,1,0,0,1.013,rock_grid_rect_2,5,09,-1,-1,1.013,-0.384114583,-0.407552083,1,0,0,2.5903,Obsidian_rect,5,2.59,1,8,0,8,0,1,,,,,,,,,,,,,
60ed8f50e13ce18a6d406a09,TCN,2024-06-11_11h11.01.608,LearnStrategy,2023.2.3,Win32,59.88023952,4,1,10,-0.020833333,0.005208333,1,0,0,1.1456,rock_grid_rect_2,1,03,-1,-1,1.146,0.109375,-0.24609375,1,0,0,2.0079,Diorite_rect,3,2.008,0,9,0,9,0,1,,,,,,,,,,,,,
60ed8f50e13ce18a6d406a09,TCN,2024-06-11_11h11.01.608,LearnStrategy,2023.2.3,Win32,59.88023952,4,1,11,-0.0859375,0.010416667,1,0,0,1.1797,rock_grid_rect_2,4,03,-1,-1,1.18,0.109375,-0.40625,1,0,0,2.4762,Peridotite_rect,7,2.476,0,10,0,10,0,1,,,,,,,,,,,,,
60ed8f50e13ce18a6d406a09,TCN,2024-06-11_11h11.01.608,LearnStrategy,2023.2.3,Win32,59.88023952,4,1,12,-0.020833333,-0.005208333,1,0,0,0.9126,rock_grid_rect_2,8,05,-1,-1,0.913,0.458333333,-0.393229167,1,0,0,1.4914,Pumice_rect,8,1.491,1,11,0,11,0,1,,,,,,,,,,,,,
60ed8f50e13ce18a6d406a09,TCN,2024-06-11_11h11.01.608,LearnStrategy,2023.2.3,Win32,59.88023952,4,1,13,0.0703125,-0.016927083,1,0,0,0.9461,rock_grid_rect_2,3,02,-1,-1,0.946,0.126302083,-0.247395833,1,0,0,1.5772,Diorite_rect,3,1.577,1,12,0,12,0,1,,,,,,,,,,,,,
60ed8f50e13ce18a6d406a09,TCN,2024-06-11_11h11.01.608,LearnStrategy,2023.2.3,Win32,59.88023952,4,1,14,0.036458333,0.00390625,1,0,0,1.1958,rock_grid_rect_2,8,09,-1,-1,1.196,0.333333333,-0.389322917,1,0,0,1.5085,Pumice_rect,8,1.509,1,13,0,13,0,1,,,,,,,,,,,,,
60ed8f50e13ce18a6d406a09,TCN,2024-06-11_11h11.01.608,LearnStrategy,2023.2.3,Win32,59.88023952,4,1,15,0.03515625,-0.0078125,1,0,0,0.7964,rock_grid_rect_2,6,08,-1,-1,0.796,-0.178385417,-0.393229167,1,0,0,4.571,Pegmatite_rect,6,4.571,1,14,0,14,0,1,,,,,,,,,,,,,
60ed8f50e13ce18a6d406a09,TCN,2024-06-11_11h11.01.608,LearnStrategy,2023.2.3,Win32,59.88023952,4,1,16,-0.024739583,-0.001302083,1,0,0,1.3613,rock_grid_rect_2,3,16,-1,-1,1.361,0.151041667,-0.397135417,1,0,0,1.9075,Peridotite_rect,7,1.908,0,15,0,15,0,1,,,,,,,,,,,,,
60ed8f50e13ce18a6d406a09,TCN,2024-06-11_11h11.01.608,LearnStrategy,2023.2.3,Win32,59.88023952,4,2,1,,,,,,,,4,15,,,,,,,,,,,3,1.142,0,,,,,,0.114583333,-0.251302083,1,0,0,1.1417,Diorite_rect,0,0,0,0,1,
60ed8f50e13ce18a6d406a09,TCN,2024-06-11_11h11.01.608,LearnStrategy,2023.2.3,Win32,59.88023952,4,2,2,,,,,,,,6,12,,,,,,,,,,,6,1.475,1,,,,,,-0.096354167,-0.38671875,1,0,0,1.4749,Pegmatite_rect,1,0,1,0,1,
60ed8f50e13ce18a6d406a09,TCN,2024-06-11_11h11.01.608,LearnStrategy,2023.2.3,Win32,59.88023952,4,2,3,,,,,,,,3,07,,,,,,,,,,,6,2.424,0,,,,,,-0.126302083,-0.40625,1,0,0,2.4242,Pegmatite_rect,2,0,2,0,1,
60ed8f50e13ce18a6d406a09,TCN,2024-06-11_11h11.01.608,LearnStrategy,2023.2.3,Win32,59.88023952,4,2,4,,,,,,,,2,01,,,,,,,,,,,2,1.159,1,,,,,,-0.13671875,-0.247395833,1,0,0,1.1585,Basalt_rect,3,0,3,0,1,
60ed8f50e13ce18a6d406a09,TCN,2024-06-11_11h11.01.608,LearnStrategy,2023.2.3,Win32,59.88023952,4,2,5,,,,,,,,6,16,,,,,,,,,,,6,1.724,1,,,,,,-0.118489583,-0.385416667,1,0,0,1.7244,Pegmatite_rect,4,0,4,0,1,
60ed8f50e13ce18a6d406a09,TCN,2024-06-11_11h11.01.608,LearnStrategy,2023.2.3,Win32,59.88023952,4,2,6,,,,,,,,7,14,,,,,,,,,,,7,2.309,1,,,,,,0.126302083,-0.401041667,1,0,0,2.3092,Peridotite_rect,5,0,5,0,1,
60ed8f50e13ce18a6d406a09,TCN,2024-06-11_11h11.01.608,LearnStrategy,2023.2.3,Win32,59.88023952,4,2,7,,,,,,,,8,03,,,,,,,,,,,8,3.863,1,,,,,,0.333333333,-0.381510417,1,0,0,3.8634,Pumice_rect,6,0,6,0,1,
60ed8f50e13ce18a6d406a09,TCN,2024-06-11_11h11.01.608,LearnStrategy,2023.2.3,Win32,59.88023952,4,2,8,,,,,,,,3,09,,,,,,,,,,,3,1.507,1,,,,,,0.069010417,-0.235677083,1,0,0,1.5072,Diorite_rect,7,0,7,0,1,
60ed8f50e13ce18a6d406a09,TCN,2024-06-11_11h11.01.608,LearnStrategy,2023.2.3,Win32,59.88023952,4,2,9,,,,,,,,1,09,,,,,,,,,,,1,1.89,1,,,,,,-0.342447917,-0.25390625,1,0,0,1.8898,Andesite_rect,8,0,8,0,1,
60ed8f50e13ce18a6d406a09,TCN,2024-06-11_11h11.01.608,LearnStrategy,2023.2.3,Win32,59.88023952,4,2,10,,,,,,,,2,14,,,,,,,,,,,8,6.219,0,,,,,,0.368489583,-0.393229167,1,0,0,6.2192,Pumice_rect,9,0,9,0,1,
60ed8f50e13ce18a6d406a09,TCN,2024-06-11_11h11.01.608,LearnStrategy,2023.2.3,Win32,59.88023952,4,2,11,,,,,,,,4,16,,,,,,,,,,,1,3.722,0,,,,,,-0.388020833,-0.259114583,1,0,0,3.7216,Andesite_rect,10,0,10,0,1,
60ed8f50e13ce18a6d406a09,TCN,2024-06-11_11h11.01.608,LearnStrategy,2023.2.3,Win32,59.88023952,4,2,12,,,,,,,,5,04,,,,,,,,,,,5,1.224,1,,,,,,-0.341145833,-0.3984375,1,0,0,1.2237,Obsidian_rect,11,0,11,0,1,
60ed8f50e13ce18a6d406a09,TCN,2024-06-11_11h11.01.608,LearnStrategy,2023.2.3,Win32,59.88023952,4,2,13,,,,,,,,5,11,,,,,,,,,,,5,0.925,1,,,,,,-0.341145833,-0.3984375,1,0,0,0.925,Obsidian_rect,12,0,12,0,1,
60ed8f50e13ce18a6d406a09,TCN,2024-06-11_11h11.01.608,LearnStrategy,2023.2.3,Win32,59.88023952,4,2,14,,,,,,,,1,04,,,,,,,,,,,6,2.311,0,,,,,,-0.102864583,-0.395833333,1,0,0,2.3114,Pegmatite_rect,13,0,13,0,1,
60ed8f50e13ce18a6d406a09,TCN,2024-06-11_11h11.01.608,LearnStrategy,2023.2.3,Win32,59.88023952,4,2,15,,,,,,,,7,05,,,,,,,,,,,4,4.088,0,,,,,,0.361979167,-0.243489583,1,0,0,4.0883,Gabbro_rect,14,0,14,0,1,
60ed8f50e13ce18a6d406a09,TCN,2024-06-11_11h11.01.608,LearnStrategy,2023.2.3,Win32,59.88023952,4,2,16,,,,,,,,8,06,,,,,,,,,,,8,1.142,1,,,,,,0.389322917,-0.3984375,1,0,0,1.1417,Pumice_rect,15,0,15,0,1,
60ed8f50e13ce18a6d406a09,TCN,2024-06-11_11h11.01.608,LearnStrategy,2023.2.3,Win32,59.88023952,5,1,1,0.028645833,-0.01953125,1,0,0,1.0967,rock_grid_rect_2,3,15,-1,-1,1.097,-0.361979167,-0.2421875,1,0,0,7.3178,Andesite_rect,1,7.318,0,0,0,0,0,1,,,,,,,,,,,,,
60ed8f50e13ce18a6d406a09,TCN,2024-06-11_11h11.01.608,LearnStrategy,2023.2.3,Win32,59.88023952,5,1,2,-0.069010417,-0.00390625,1,0,0,1.0953,rock_grid_rect_2,2,09,-1,-1,1.095,-0.08984375,-0.234375,1,0,0,1.7408,Basalt_rect,2,1.741,1,1,0,1,0,1,,,,,,,,,,,,,
60ed8f50e13ce18a6d406a09,TCN,2024-06-11_11h11.01.608,LearnStrategy,2023.2.3,Win32,59.88023952,5,1,3,-0.049479167,0.013020833,1,0,0,0.9961,rock_grid_rect_2,4,13,-1,-1,0.996,-0.356770833,-0.236979167,1,0,0,3.389,Andesite_rect,1,3.389,0,2,0,2,0,1,,,,,,,,,,,,,
60ed8f50e13ce18a6d406a09,TCN,2024-06-11_11h11.01.608,LearnStrategy,2023.2.3,Win32,59.88023952,5,1,4,-0.01171875,0,1,0,0,1.2451,rock_grid_rect_2,1,05,-1,-1,1.245,0.10546875,-0.39453125,1,0,0,2.2071,Peridotite_rect,7,2.207,0,3,0,3,0,1,,,,,,,,,,,,,
60ed8f50e13ce18a6d406a09,TCN,2024-06-11_11h11.01.608,LearnStrategy,2023.2.3,Win32,59.88023952,5,1,5,-0.001302083,-0.006510417,1,0,0,0.9959,rock_grid_rect_2,8,13,-1,-1,0.996,0.361979167,-0.39453125,1,0,0,5.0372,Pumice_rect,8,5.037,1,4,0,4,0,1,,,,,,,,,,,,,
60ed8f50e13ce18a6d406a09,TCN,2024-06-11_11h11.01.608,LearnStrategy,2023.2.3,Win32,59.88023952,5,1,6,-0.02734375,0.001302083,1,0,0,1.2288,rock_grid_rect_2,7,15,-1,-1,1.229,0.334635417,-0.24609375,1,0,0,3.4891,Gabbro_rect,4,3.489,0,5,0,5,0,1,,,,,,,,,,,,,
60ed8f50e13ce18a6d406a09,TCN,2024-06-11_11h11.01.608,LearnStrategy,2023.2.3,Win32,59.88023952,5,1,7,0.033854167,-0.001302083,1,0,0,0.8627,rock_grid_rect_2,7,10,-1,-1,0.863,0.088541667,-0.388020833,1,0,0,1.6583,Peridotite_rect,7,1.658,1,6,0,6,0,1,,,,,,,,,,,,,
60ed8f50e13ce18a6d406a09,TCN,2024-06-11_11h11.01.608,LearnStrategy,2023.2.3,Win32,59.88023952,5,1,8,0.0234375,0.005208333,1,0,0,1.1294,rock_grid_rect_2,6,06,-1,-1,1.129,-0.08984375,-0.395833333,1,0,0,2.2936,Pegmatite_rect,6,2.294,1,7,0,7,0,1,,,,,,,,,,,,,
60ed8f50e13ce18a6d406a09,TCN,2024-06-11_11h11.01.608,LearnStrategy,2023.2.3,Win32,59.88023952,5,1,9,0.02734375,-0.009114583,1,0,0,1.1117,rock_grid_rect_2,4,14,-1,-1,1.112,-0.376302083,-0.25,1,0,0,2.7065,Andesite_rect,1,2.707,0,8,0,8,0,1,,,,,,,,,,,,,
60ed8f50e13ce18a6d406a09,TCN,2024-06-11_11h11.01.608,LearnStrategy,2023.2.3,Win32,59.88023952,5,1,10,0.020833333,0.006510417,1,0,0,1.0622,rock_grid_rect_2,2,11,-1,-1,1.062,0.3515625,-0.388020833,1,0,0,1.7912,Pumice_rect,8,1.791,0,9,0,9,0,1,,,,,,,,,,,,,
60ed8f50e13ce18a6d406a09,TCN,2024-06-11_11h11.01.608,LearnStrategy,2023.2.3,Win32,59.88023952,5,1,11,0.045572917,-0.005208333,1,0,0,1.3626,rock_grid_rect_2,3,10,-1,-1,1.363,-0.111979167,-0.401041667,1,0,0,1.8075,Pegmatite_rect,6,1.808,0,10,0,10,0,1,,,,,,,,,,,,,
60ed8f50e13ce18a6d406a09,TCN,2024-06-11_11h11.01.608,LearnStrategy,2023.2.3,Win32,59.88023952,5,1,12,0.0390625,0.005208333,1,0,0,0.9962,rock_grid_rect_2,6,09,-1,-1,0.996,-0.10546875,-0.40625,1,0,0,2.8729,Pegmatite_rect,6,2.873,1,11,0,11,0,1,,,,,,,,,,,,,
60ed8f50e13ce18a6d406a09,TCN,2024-06-11_11h11.01.608,LearnStrategy,2023.2.3,Win32,59.88023952,5,1,13,0.036458333,-0.002604167,1,0,0,1.062,rock_grid_rect_2,1,10,-1,-1,1.062,0.08984375,-0.395833333,1,0,0,2.9898,Peridotite_rect,7,2.99,0,12,0,12,0,1,,,,,,,,,,,,,
60ed8f50e13ce18a6d406a09,TCN,2024-06-11_11h11.01.608,LearnStrategy,2023.2.3,Win32,59.88023952,5,1,14,-0.001302083,0.0078125,1,0,0,1.0623,rock_grid_rect_2,5,16,-1,-1,1.062,-0.319010417,-0.401041667,1,0,0,1.5004,Obsidian_rect,5,1.5,1,13,0,13,0,1,,,,,,,,,,,,,
60ed8f50e13ce18a6d406a09,TCN,2024-06-11_11h11.01.608,LearnStrategy,2023.2.3,Win32,59.88023952,5,1,15,0,0.00390625,1,0,0,1.1023,rock_grid_rect_2,5,12,-1,-1,1.102,-0.3515625,-0.37890625,1,0,0,1.2694,Obsidian_rect,5,1.269,1,14,0,14,0,1,,,,,,,,,,,,,
60ed8f50e13ce18a6d406a09,TCN,2024-06-11_11h11.01.608,LearnStrategy,2023.2.3,Win32,59.88023952,5,1,16,-0.067708333,0.002604167,1,0,0,1.0961,rock_grid_rect_2,8,16,-1,-1,1.096,0.34765625,-0.393229167,1,0,0,1.9914,Pumice_rect,8,1.991,1,15,0,15,0,1,,,,,,,,,,,,,
60ed8f50e13ce18a6d406a09,TCN,2024-06-11_11h11.01.608,LearnStrategy,2023.2.3,Win32,59.88023952,5,2,1,,,,,,,,1,07,,,,,,,,,,,7,3.54,0,,,,,,0.083333333,-0.385416667,1,0,0,3.5405,Peridotite_rect,0,0,0,0,1,
60ed8f50e13ce18a6d406a09,TCN,2024-06-11_11h11.01.608,LearnStrategy,2023.2.3,Win32,59.88023952,5,2,2,,,,,,,,5,07,,,,,,,,,,,5,1.707,1,,,,,,-0.3671875,-0.390625,1,0,0,1.7074,Obsidian_rect,1,0,1,0,1,
60ed8f50e13ce18a6d406a09,TCN,2024-06-11_11h11.01.608,LearnStrategy,2023.2.3,Win32,59.88023952,5,2,3,,,,,,,,1,01,,,,,,,,,,,1,2.267,1,,,,,,-0.34765625,-0.23828125,1,0,0,2.2668,Andesite_rect,2,0,2,0,1,
60ed8f50e13ce18a6d406a09,TCN,2024-06-11_11h11.01.608,LearnStrategy,2023.2.3,Win32,59.88023952,5,2,4,,,,,,,,8,02,,,,,,,,,,,8,1.691,1,,,,,,0.34765625,-0.411458333,1,0,0,1.6911,Pumice_rect,3,0,3,0,1,
60ed8f50e13ce18a6d406a09,TCN,2024-06-11_11h11.01.608,LearnStrategy,2023.2.3,Win32,59.88023952,5,2,5,,,,,,,,7,13,,,,,,,,,,,3,2.374,0,,,,,,0.08203125,-0.25,1,0,0,2.3742,Diorite_rect,4,0,4,0,1,
60ed8f50e13ce18a6d406a09,TCN,2024-06-11_11h11.01.608,LearnStrategy,2023.2.3,Win32,59.88023952,5,2,6,,,,,,,,5,08,,,,,,,,,,,5,2.29,1,,,,,,-0.3359375,-0.391927083,1,0,0,2.2905,Obsidian_rect,5,0,5,0,1,
60ed8f50e13ce18a6d406a09,TCN,2024-06-11_11h11.01.608,LearnStrategy,2023.2.3,Win32,59.88023952,5,2,7,,,,,,,,3,08,,,,,,,,,,,6,2.033,0,,,,,,-0.091145833,-0.395833333,1,0,0,2.033,Pegmatite_rect,6,0,6,0,1,
60ed8f50e13ce18a6d406a09,TCN,2024-06-11_11h11.01.608,LearnStrategy,2023.2.3,Win32,59.88023952,5,2,8,,,,,,,,7,07,,,,,,,,,,,4,2.124,0,,,,,,0.342447917,-0.247395833,1,0,0,2.1237,Gabbro_rect,7,0,7,0,1,
60ed8f50e13ce18a6d406a09,TCN,2024-06-11_11h11.01.608,LearnStrategy,2023.2.3,Win32,59.88023952,5,2,9,,,,,,,,2,02,,,,,,,,,,,2,1.391,1,,,,,,-0.10546875,-0.243489583,1,0,0,1.3909,Basalt_rect,8,0,8,0,1,
60ed8f50e13ce18a6d406a09,TCN,2024-06-11_11h11.01.608,LearnStrategy,2023.2.3,Win32,59.88023952,5,2,10,,,,,,,,4,01,,,,,,,,,,,7,3.789,0,,,,,,0.166666667,-0.397135417,1,0,0,3.7889,Peridotite_rect,9,0,9,0,1,
60ed8f50e13ce18a6d406a09,TCN,2024-06-11_11h11.01.608,LearnStrategy,2023.2.3,Win32,59.88023952,5,2,11,,,,,,,,2,10,,,,,,,,,,,5,4.871,0,,,,,,-0.359375,-0.408854167,1,0,0,4.8706,Obsidian_rect,10,0,10,0,1,
60ed8f50e13ce18a6d406a09,TCN,2024-06-11_11h11.01.608,LearnStrategy,2023.2.3,Win32,59.88023952,5,2,12,,,,,,,,3,11,,,,,,,,,,,6,2.523,0,,,,,,-0.1171875,-0.397135417,1,0,0,2.5232,Pegmatite_rect,11,0,11,0,1,
60ed8f50e13ce18a6d406a09,TCN,2024-06-11_11h11.01.608,LearnStrategy,2023.2.3,Win32,59.88023952,5,2,13,,,,,,,,8,04,,,,,,,,,,,8,1.474,1,,,,,,0.444010417,-0.389322917,1,0,0,1.4742,Pumice_rect,12,0,12,0,1,
60ed8f50e13ce18a6d406a09,TCN,2024-06-11_11h11.01.608,LearnStrategy,2023.2.3,Win32,59.88023952,5,2,14,,,,,,,,6,03,,,,,,,,,,,6,3.156,1,,,,,,-0.088541667,-0.388020833,1,0,0,3.156,Pegmatite_rect,13,0,13,0,1,
60ed8f50e13ce18a6d406a09,TCN,2024-06-11_11h11.01.608,LearnStrategy,2023.2.3,Win32,59.88023952,5,2,15,,,,,,,,4,05,,,,,,,,,,,4,1.424,1,,,,,,0.420572917,-0.264322917,1,0,0,1.4245,Gabbro_rect,14,0,14,0,1,
60ed8f50e13ce18a6d406a09,TCN,2024-06-11_11h11.01.608,LearnStrategy,2023.2.3,Win32,59.88023952,5,2,16,,,,,,,,6,13,,,,,,,,,,,3,2.34,0,,,,,,0.091145833,-0.243489583,1,0,0,2.34,Diorite_rect,15,0,15,0,1,
60ed8f50e13ce18a6d406a09,TCN,2024-06-11_11h11.01.608,LearnStrategy,2023.2.3,Win32,59.88023952,6,1,1,0.052083333,0.0078125,1,0,0,1.1127,rock_grid_rect_2,7,16,-1,-1,1.113,0.319010417,-0.259114583,1,0,0,2.981,Gabbro_rect,4,2.981,0,0,0,0,0,1,,,,,,,,,,,,,
60ed8f50e13ce18a6d406a09,TCN,2024-06-11_11h11.01.608,LearnStrategy,2023.2.3,Win32,59.88023952,6,1,2,0.078125,-0.002604167,1,0,0,1.6004,rock_grid_rect_2,5,06,-1,-1,1.6,-0.393229167,-0.401041667,1,0,0,3.5018,Obsidian_rect,5,3.502,1,1,0,1,0,1,,,,,,,,,,,,,
60ed8f50e13ce18a6d406a09,TCN,2024-06-11_11h11.01.608,LearnStrategy,2023.2.3,Win32,59.88023952,6,1,3,-0.016927083,-0.01171875,1,0,0,0.9508,rock_grid_rect_2,5,05,-1,-1,0.951,-0.3828125,-0.38671875,1,0,0,1.8523,Obsidian_rect,5,1.852,1,2,0,2,0,1,,,,,,,,,,,,,
60ed8f50e13ce18a6d406a09,TCN,2024-06-11_11h11.01.608,LearnStrategy,2023.2.3,Win32,59.88023952,6,1,4,-0.028645833,0.018229167,1,0,0,0.9298,rock_grid_rect_2,6,05,-1,-1,0.93,-0.078125,-0.397135417,1,0,0,2.3252,Pegmatite_rect,6,2.325,1,3,0,3,0,1,,,,,,,,,,,,,
60ed8f50e13ce18a6d406a09,TCN,2024-06-11_11h11.01.608,LearnStrategy,2023.2.3,Win32,59.88023952,6,1,5,0.010416667,0.006510417,1,0,0,1.1292,rock_grid_rect_2,2,04,-1,-1,1.129,-0.10546875,-0.231770833,1,0,0,1.2996,Basalt_rect,2,1.3,1,4,0,4,0,1,,,,,,,,,,,,,
60ed8f50e13ce18a6d406a09,TCN,2024-06-11_11h11.01.608,LearnStrategy,2023.2.3,Win32,59.88023952,6,1,6,-0.006510417,-0.01953125,1,0,0,1.0367,rock_grid_rect_2,8,14,-1,-1,1.037,0.393229167,-0.38671875,1,0,0,1.6189,Pumice_rect,8,1.619,1,5,0,5,0,1,,,,,,,,,,,,,
60ed8f50e13ce18a6d406a09,TCN,2024-06-11_11h11.01.608,LearnStrategy,2023.2.3,Win32,59.88023952,6,1,7,0.026041667,0.001302083,1,0,0,0.8966,rock_grid_rect_2,7,04,-1,-1,0.897,0.088541667,-0.388020833,1,0,0,3.6556,Peridotite_rect,7,3.656,1,6,0,6,0,1,,,,,,,,,,,,,
60ed8f50e13ce18a6d406a09,TCN,2024-06-11_11h11.01.608,LearnStrategy,2023.2.3,Win32,59.88023952,6,1,8,0.015625,-0.009114583,1,0,0,0.9621,rock_grid_rect_2,4,10,-1,-1,0.962,0.3671875,-0.24609375,1,0,0,1.9577,Gabbro_rect,4,1.958,1,7,0,7,0,1,,,,,,,,,,,,,
60ed8f50e13ce18a6d406a09,TCN,2024-06-11_11h11.01.608,LearnStrategy,2023.2.3,Win32,59.88023952,6,1,9,0.057291667,-0.005208333,1,0,0,1.113,rock_grid_rect_2,1,14,-1,-1,1.113,-0.334635417,-0.23828125,1,0,0,2.1573,Andesite_rect,1,2.157,1,8,0,8,0,1,,,,,,,,,,,,,
60ed8f50e13ce18a6d406a09,TCN,2024-06-11_11h11.01.608,LearnStrategy,2023.2.3,Win32,59.88023952,6,1,10,0,0.015625,1,0,0,0.8465,rock_grid_rect_2,3,13,-1,-1,0.847,-0.098958333,-0.395833333,1,0,0,2.1908,Pegmatite_rect,6,2.191,0,9,0,9,0,1,,,,,,,,,,,,,
60ed8f50e13ce18a6d406a09,TCN,2024-06-11_11h11.01.608,LearnStrategy,2023.2.3,Win32,59.88023952,6,1,11,0.037760417,-0.010416667,1,0,0,0.8966,rock_grid_rect_2,2,16,-1,-1,0.897,-0.13671875,-0.229166667,1,0,0,1.591,Basalt_rect,2,1.591,1,10,0,10,0,1,,,,,,,,,,,,,
60ed8f50e13ce18a6d406a09,TCN,2024-06-11_11h11.01.608,LearnStrategy,2023.2.3,Win32,59.88023952,6,1,12,-0.006510417,-0.005208333,1,0,0,0.9963,rock_grid_rect_2,6,07,-1,-1,0.996,-0.09375,-0.404947917,1,0,0,1.7076,Pegmatite_rect,6,1.708,1,11,0,11,0,1,,,,,,,,,,,,,
60ed8f50e13ce18a6d406a09,TCN,2024-06-11_11h11.01.608,LearnStrategy,2023.2.3,Win32,59.88023952,6,1,13,0.037760417,0.010416667,1,0,0,1.229,rock_grid_rect_2,1,06,-1,-1,1.229,0.098958333,-0.239583333,1,0,0,0.9753,Diorite_rect,3,0.975,0,12,0,12,0,1,,,,,,,,,,,,,
60ed8f50e13ce18a6d406a09,TCN,2024-06-11_11h11.01.608,LearnStrategy,2023.2.3,Win32,59.88023952,6,1,14,-0.009114583,0.001302083,1,0,0,0.9799,rock_grid_rect_2,4,11,-1,-1,0.98,0.359375,-0.23046875,1,0,0,2.8733,Gabbro_rect,4,2.873,1,13,0,13,0,1,,,,,,,,,,,,,
60ed8f50e13ce18a6d406a09,TCN,2024-06-11_11h11.01.608,LearnStrategy,2023.2.3,Win32,59.88023952,6,1,15,0.040364583,-0.015625,1,0,0,1.1784,rock_grid_rect_2,3,14,-1,-1,1.178,-0.061197917,-0.391927083,1,0,0,1.5751,Pegmatite_rect,6,1.575,0,14,0,14,0,1,,,,,,,,,,,,,
60ed8f50e13ce18a6d406a09,TCN,2024-06-11_11h11.01.608,LearnStrategy,2023.2.3,Win32,59.88023952,6,1,16,0.046875,0.010416667,1,0,0,1.2796,rock_grid_rect_2,8,08,-1,-1,1.28,0.377604167,-0.384114583,1,0,0,1.3751,Pumice_rect,8,1.375,1,15,0,15,0,1,,,,,,,,,,,,,
60ed8f50e13ce18a6d406a09,TCN,2024-06-11_11h11.01.608,LearnStrategy,2023.2.3,Win32,59.88023952,6,2,1,,,,,,,,2,12,,,,,,,,,,,2,2.273,1,,,,,,-0.115885417,-0.234375,1,0,0,2.2733,Basalt_rect,0,0,0,0,1,
60ed8f50e13ce18a6d406a09,TCN,2024-06-11_11h11.01.608,LearnStrategy,2023.2.3,Win32,59.88023952,6,2,2,,,,,,,,1,02,,,,,,,,,,,1,6.252,1,,,,,,-0.348958333,-0.26171875,1,0,0,6.2519,Andesite_rect,1,0,1,0,1,
60ed8f50e13ce18a6d406a09,TCN,2024-06-11_11h11.01.608,LearnStrategy,2023.2.3,Win32,59.88023952,6,2,3,,,,,,,,1,11,,,,,,,,,,,1,2.056,1,,,,,,-0.385416667,-0.2421875,1,0,0,2.0562,Andesite_rect,2,0,2,0,1,
60ed8f50e13ce18a6d406a09,TCN,2024-06-11_11h11.01.608,LearnStrategy,2023.2.3,Win32,59.88023952,6,2,4,,,,,,,,5,02,,,,,,,,,,,5,1.067,1,,,,,,-0.3359375,-0.40625,1,0,0,1.0668,Obsidian_rect,3,0,3,0,1,
60ed8f50e13ce18a6d406a09,TCN,2024-06-11_11h11.01.608,LearnStrategy,2023.2.3,Win32,59.88023952,6,2,5,,,,,,,,4,09,,,,,,,,,,,4,1.791,1,,,,,,0.462239583,-0.244791667,1,0,0,1.791,Gabbro_rect,4,0,4,0,1,
60ed8f50e13ce18a6d406a09,TCN,2024-06-11_11h11.01.608,LearnStrategy,2023.2.3,Win32,59.88023952,6,2,6,,,,,,,,6,10,,,,,,,,,,,3,2.191,0,,,,,,0.071614583,-0.243489583,1,0,0,2.1907,Diorite_rect,5,0,5,0,1,
60ed8f50e13ce18a6d406a09,TCN,2024-06-11_11h11.01.608,LearnStrategy,2023.2.3,Win32,59.88023952,6,2,7,,,,,,,,8,15,,,,,,,,,,,8,2.32,1,,,,,,0.345052083,-0.37890625,1,0,0,2.3201,Pumice_rect,6,0,6,0,1,
60ed8f50e13ce18a6d406a09,TCN,2024-06-11_11h11.01.608,LearnStrategy,2023.2.3,Win32,59.88023952,6,2,8,,,,,,,,4,12,,,,,,,,,,,4,1.848,1,,,,,,0.352864583,-0.252604167,1,0,0,1.8484,Gabbro_rect,7,0,7,0,1,
60ed8f50e13ce18a6d406a09,TCN,2024-06-11_11h11.01.608,LearnStrategy,2023.2.3,Win32,59.88023952,6,2,9,,,,,,,,7,06,,,,,,,,,,,6,2.553,0,,,,,,-0.091145833,-0.40625,1,0,0,2.5526,Pegmatite_rect,8,0,8,0,1,
60ed8f50e13ce18a6d406a09,TCN,2024-06-11_11h11.01.608,LearnStrategy,2023.2.3,Win32,59.88023952,6,2,10,,,,,,,,8,10,,,,,,,,,,,8,2.515,1,,,,,,0.313802083,-0.384114583,1,0,0,2.515,Pumice_rect,9,0,9,0,1,
60ed8f50e13ce18a6d406a09,TCN,2024-06-11_11h11.01.608,LearnStrategy,2023.2.3,Win32,59.88023952,6,2,11,,,,,,,,5,10,,,,,,,,,,,5,1.425,1,,,,,,-0.338541667,-0.397135417,1,0,0,1.4245,Obsidian_rect,10,0,10,0,1,
60ed8f50e13ce18a6d406a09,TCN,2024-06-11_11h11.01.608,LearnStrategy,2023.2.3,Win32,59.88023952,6,2,12,,,,,,,,7,08,,,,,,,,,,,4,4.488,0,,,,,,0.377604167,-0.259114583,1,0,0,4.4876,Gabbro_rect,11,0,11,0,1,
60ed8f50e13ce18a6d406a09,TCN,2024-06-11_11h11.01.608,LearnStrategy,2023.2.3,Win32,59.88023952,6,2,13,,,,,,,,6,15,,,,,,,,,,,6,1.541,1,,,,,,-0.100260417,-0.411458333,1,0,0,1.5409,Pegmatite_rect,12,0,12,0,1,
60ed8f50e13ce18a6d406a09,TCN,2024-06-11_11h11.01.608,LearnStrategy,2023.2.3,Win32,59.88023952,6,2,14,,,,,,,,3,12,,,,,,,,,,,3,2.04,1,,,,,,0.134114583,-0.248697917,1,0,0,2.0405,Diorite_rect,13,0,13,0,1,
60ed8f50e13ce18a6d406a09,TCN,2024-06-11_11h11.01.608,LearnStrategy,2023.2.3,Win32,59.88023952,6,2,15,,,,,,,,3,06,,,,,,,,,,,1,3.406,0,,,,,,-0.330729167,-0.243489583,1,0,0,3.4055,Andesite_rect,14,0,14,0,1,
60ed8f50e13ce18a6d406a09,TCN,2024-06-11_11h11.01.608,LearnStrategy,2023.2.3,Win32,59.88023952,6,2,16,,,,,,,,2,06,,,,,,,,,,,2,1.042,1,,,,,,-0.106770833,-0.251302083,1,0,0,1.0415,Basalt_rect,15,0,15,0,1,
60ed8f50e13ce18a6d406a09,TCN,2024-06-11_11h11.01.608,LearnStrategy,2023.2.3,Win32,59.88023952,7,1,1,0.052083333,-0.005208333,1,0,0,1.6291,rock_grid_rect_2,8,09,-1,-1,1.629,0.348958333,-0.397135417,1,0,0,1.6085,Pumice_rect,8,1.609,1,0,0,0,0,1,,,,,,,,,,,,,
60ed8f50e13ce18a6d406a09,TCN,2024-06-11_11h11.01.608,LearnStrategy,2023.2.3,Win32,59.88023952,7,1,2,-0.0234375,0.001302083,1,0,0,1.1958,rock_grid_rect_2,1,14,-1,-1,1.196,-0.330729167,-0.247395833,1,0,0,3.2537,Andesite_rect,1,3.254,1,1,0,1,0,1,,,,,,,,,,,,,
60ed8f50e13ce18a6d406a09,TCN,2024-06-11_11h11.01.608,LearnStrategy,2023.2.3,Win32,59.88023952,7,1,3,-0.108072917,0.013020833,1,0,0,1.3619,rock_grid_rect_2,3,13,-1,-1,1.362,0.071614583,-0.243489583,1,0,0,3.8722,Diorite_rect,3,3.872,1,2,0,2,0,1,,,,,,,,,,,,,
60ed8f50e13ce18a6d406a09,TCN,2024-06-11_11h11.01.608,LearnStrategy,2023.2.3,Win32,59.88023952,7,1,4,-0.002604167,-0.0078125,1,0,0,0.8625,rock_grid_rect_2,5,05,-1,-1,0.862,-0.329427083,-0.407552083,1,0,0,1.6085,Obsidian_rect,5,1.609,1,3,0,3,0,1,,,,,,,,,,,,,
60ed8f50e13ce18a6d406a09,TCN,2024-06-11_11h11.01.608,LearnStrategy,2023.2.3,Win32,59.88023952,7,1,5,-0.053385417,-0.001302083,1,0,0,1.3293,rock_grid_rect_2,7,16,-1,-1,1.329,-0.1015625,-0.399739583,1,0,0,2.4256,Pegmatite_rect,6,2.426,0,4,0,4,0,1,,,,,,,,,,,,,
60ed8f50e13ce18a6d406a09,TCN,2024-06-11_11h11.01.608,LearnStrategy,2023.2.3,Win32,59.88023952,7,1,6,0.015625,0,1,0,0,0.9955,rock_grid_rect_2,4,13,-1,-1,0.995,0.3671875,-0.256510417,1,0,0,4.4548,Gabbro_rect,4,4.455,1,5,0,5,0,1,,,,,,,,,,,,,
60ed8f50e13ce18a6d406a09,TCN,2024-06-11_11h11.01.608,LearnStrategy,2023.2.3,Win32,59.88023952,7,1,7,0.067708333,0.022135417,1,0,0,0.912,rock_grid_rect_2,6,05,-1,-1,0.912,-0.1171875,-0.395833333,1,0,0,1.3588,Pegmatite_rect,6,1.359,1,6,0,6,0,1,,,,,,,,,,,,,
60ed8f50e13ce18a6d406a09,TCN,2024-06-11_11h11.01.608,LearnStrategy,2023.2.3,Win32,59.88023952,7,1,8,0.0234375,-0.015625,1,0,0,0.8961,rock_grid_rect_2,3,15,-1,-1,0.896,0.10546875,-0.399739583,1,0,0,6.4027,Peridotite_rect,7,6.403,0,7,0,7,0,1,,,,,,,,,,,,,
60ed8f50e13ce18a6d406a09,TCN,2024-06-11_11h11.01.608,LearnStrategy,2023.2.3,Win32,59.88023952,7,1,9,0.055989583,-0.01171875,1,0,0,0.9128,rock_grid_rect_2,2,16,-1,-1,0.913,-0.108072917,-0.239583333,1,0,0,1.2587,Basalt_rect,2,1.259,1,8,0,8,0,1,,,,,,,,,,,,,
60ed8f50e13ce18a6d406a09,TCN,2024-06-11_11h11.01.608,LearnStrategy,2023.2.3,Win32,59.88023952,7,1,10,-0.009114583,-0.013020833,1,0,0,0.8297,rock_grid_rect_2,6,11,-1,-1,0.83,-0.109375,-0.403645833,1,0,0,1.5417,Pegmatite_rect,6,1.542,1,9,0,9,0,1,,,,,,,,,,,,,
60ed8f50e13ce18a6d406a09,TCN,2024-06-11_11h11.01.608,LearnStrategy,2023.2.3,Win32,59.88023952,7,1,11,0.028645833,0.001302083,1,0,0,1.1294,rock_grid_rect_2,4,03,-1,-1,1.129,0.071614583,-0.25,1,0,0,1.6568,Diorite_rect,3,1.657,0,10,0,10,0,1,,,,,,,,,,,,,
60ed8f50e13ce18a6d406a09,TCN,2024-06-11_11h11.01.608,LearnStrategy,2023.2.3,Win32,59.88023952,7,1,12,0.018229167,0.006510417,1,0,0,0.9464,rock_grid_rect_2,2,08,-1,-1,0.946,-0.108072917,-0.2421875,1,0,0,1.16,Basalt_rect,2,1.16,1,11,0,11,0,1,,,,,,,,,,,,,
60ed8f50e13ce18a6d406a09,TCN,2024-06-11_11h11.01.608,LearnStrategy,2023.2.3,Win32,59.88023952,7,1,13,-0.02734375,-0.00390625,1,0,0,0.8799,rock_grid_rect_2,5,14,-1,-1,0.88,-0.333333333,-0.403645833,1,0,0,1.4418,Obsidian_rect,5,1.442,1,12,0,12,0,1,,,,,,,,,,,,,
60ed8f50e13ce18a6d406a09,TCN,2024-06-11_11h11.01.608,LearnStrategy,2023.2.3,Win32,59.88023952,7,1,14,-0.044270833,0.006510417,1,0,0,0.9134,rock_grid_rect_2,1,06,-1,-1,0.913,-0.33203125,-0.251302083,1,0,0,2.0575,Andesite_rect,1,2.058,1,13,0,13,0,1,,,,,,,,,,,,,
60ed8f50e13ce18a6d406a09,TCN,2024-06-11_11h11.01.608,LearnStrategy,2023.2.3,Win32,59.88023952,7,1,15,-0.014322917,-0.005208333,1,0,0,0.9125,rock_grid_rect_2,8,13,-1,-1,0.913,-0.080729167,-0.244791667,1,0,0,3.4557,Basalt_rect,2,3.456,0,14,0,14,0,1,,,,,,,,,,,,,
60ed8f50e13ce18a6d406a09,TCN,2024-06-11_11h11.01.608,LearnStrategy,2023.2.3,Win32,59.88023952,7,1,16,-0.044270833,-0.00390625,1,0,0,0.8289,rock_grid_rect_2,7,04,-1,-1,0.829,0.1015625,-0.240885417,1,0,0,1.9743,Diorite_rect,3,1.974,0,15,0,15,0,1,,,,,,,,,,,,,
60ed8f50e13ce18a6d406a09,TCN,2024-06-11_11h11.01.608,LearnStrategy,2023.2.3,Win32,59.88023952,7,2,1,,,,,,,,4,01,,,,,,,,,,,4,2.79,1,,,,,,0.333333333,-0.255208333,1,0,0,2.7895,Gabbro_rect,0,0,0,0,1,
60ed8f50e13ce18a6d406a09,TCN,2024-06-11_11h11.01.608,LearnStrategy,2023.2.3,Win32,59.88023952,7,2,2,,,,,,,,1,11,,,,,,,,,,,1,2.706,1,,,,,,-0.390625,-0.259114583,1,0,0,2.7057,Andesite_rect,1,0,1,0,1,
60ed8f50e13ce18a6d406a09,TCN,2024-06-11_11h11.01.608,LearnStrategy,2023.2.3,Win32,59.88023952,7,2,3,,,,,,,,8,06,,,,,,,,,,,8,1.674,1,,,,,,0.350260417,-0.3984375,1,0,0,1.6742,Pumice_rect,2,0,2,0,1,
60ed8f50e13ce18a6d406a09,TCN,2024-06-11_11h11.01.608,LearnStrategy,2023.2.3,Win32,59.88023952,7,2,4,,,,,,,,8,15,,,,,,,,,,,8,2.872,1,,,,,,0.390625,-0.388020833,1,0,0,2.8724,Pumice_rect,3,0,3,0,1,
60ed8f50e13ce18a6d406a09,TCN,2024-06-11_11h11.01.608,LearnStrategy,2023.2.3,Win32,59.88023952,7,2,5,,,,,,,,6,12,,,,,,,,,,,6,1.431,1,,,,,,-0.0703125,-0.381510417,1,0,0,1.4312,Pegmatite_rect,4,0,4,0,1,
60ed8f50e13ce18a6d406a09,TCN,2024-06-11_11h11.01.608,LearnStrategy,2023.2.3,Win32,59.88023952,7,2,6,,,,,,,,1,02,,,,,,,,,,,1,2.491,1,,,,,,-0.356770833,-0.244791667,1,0,0,2.4905,Andesite_rect,5,0,5,0,1,
60ed8f50e13ce18a6d406a09,TCN,2024-06-11_11h11.01.608,LearnStrategy,2023.2.3,Win32,59.88023952,7,2,7,,,,,,,,5,07,,,,,,,,,,,5,1.22,1,,,,,,-0.373697917,-0.41015625,1,0,0,1.2196,Obsidian_rect,6,0,6,0,1,
60ed8f50e13ce18a6d406a09,TCN,2024-06-11_11h11.01.608,LearnStrategy,2023.2.3,Win32,59.88023952,7,2,8,,,,,,,,4,15,,,,,,,,,,,7,2.373,0,,,,,,0.13671875,-0.40625,1,0,0,2.373,Peridotite_rect,7,0,7,0,1,
60ed8f50e13ce18a6d406a09,TCN,2024-06-11_11h11.01.608,LearnStrategy,2023.2.3,Win32,59.88023952,7,2,9,,,,,,,,6,13,,,,,,,,,,,3,3.672,0,,,,,,0.091145833,-0.24609375,1,0,0,3.6719,Diorite_rect,8,0,8,0,1,
60ed8f50e13ce18a6d406a09,TCN,2024-06-11_11h11.01.608,LearnStrategy,2023.2.3,Win32,59.88023952,7,2,10,,,,,,,,7,07,,,,,,,,,,,4,1.707,0,,,,,,0.33984375,-0.256510417,1,0,0,1.7075,Gabbro_rect,9,0,9,0,1,
60ed8f50e13ce18a6d406a09,TCN,2024-06-11_11h11.01.608,LearnStrategy,2023.2.3,Win32,59.88023952,7,2,11,,,,,,,,2,14,,,,,,,,,,,8,5.686,0,,,,,,0.440104167,-0.411458333,1,0,0,5.6863,Pumice_rect,10,0,10,0,1,
60ed8f50e13ce18a6d406a09,TCN,2024-06-11_11h11.01.608,LearnStrategy,2023.2.3,Win32,59.88023952,7,2,12,,,,,,,,5,04,,,,,,,,,,,5,1.341,1,,,,,,-0.3671875,-0.404947917,1,0,0,1.341,Obsidian_rect,11,0,11,0,1,
60ed8f50e13ce18a6d406a09,TCN,2024-06-11_11h11.01.608,LearnStrategy,2023.2.3,Win32,59.88023952,7,2,13,,,,,,,,7,05,,,,,,,,,,,7,2.677,1,,,,,,0.072916667,-0.38671875,1,0,0,2.6771,Peridotite_rect,12,0,12,0,1,
60ed8f50e13ce18a6d406a09,TCN,2024-06-11_11h11.01.608,LearnStrategy,2023.2.3,Win32,59.88023952,7,2,14,,,,,,,,3,09,,,,,,,,,,,6,1.682,0,,,,,,-0.1171875,-0.3984375,1,0,0,1.6823,Pegmatite_rect,13,0,13,0,1,
60ed8f50e13ce18a6d406a09,TCN,2024-06-11_11h11.01.608,LearnStrategy,2023.2.3,Win32,59.88023952,7,2,15,,,,,,,,3,11,,,,,,,,,,,3,1.549,1,,,,,,0.1171875,-0.251302083,1,0,0,1.5494,Diorite_rect,14,0,14,0,1,
60ed8f50e13ce18a6d406a09,TCN,2024-06-11_11h11.01.608,LearnStrategy,2023.2.3,Win32,59.88023952,7,2,16,,,,,,,,2,01,,,,,,,,,,,2,1.088,1,,,,,,-0.091145833,-0.244791667,1,0,0,1.0878,Basalt_rect,15,0,15,0,1,
60ed8f50e13ce18a6d406a09,TCN,2024-06-11_11h11.01.608,LearnStrategy,2023.2.3,Win32,59.88023952,8,1,1,-0.02734375,0.0078125,1,0,0,0.787,rock_grid_rect_2,8,16,-1,-1,0.787,0.399739583,-0.403645833,1,0,0,1.5688,Pumice_rect,8,1.569,1,0,0,0,0,1,,,,,,,,,,,,,
60ed8f50e13ce18a6d406a09,TCN,2024-06-11_11h11.01.608,LearnStrategy,2023.2.3,Win32,59.88023952,8,1,2,0.03125,-0.022135417,1,0,0,1.5626,rock_grid_rect_2,1,10,-1,-1,1.563,-0.391927083,-0.256510417,1,0,0,2.1568,Andesite_rect,1,2.157,1,1,0,1,0,1,,,,,,,,,,,,,
60ed8f50e13ce18a6d406a09,TCN,2024-06-11_11h11.01.608,LearnStrategy,2023.2.3,Win32,59.88023952,8,1,3,-0.03515625,-0.010416667,1,0,0,1.0797,rock_grid_rect_2,6,09,-1,-1,1.08,0.091145833,-0.263020833,1,0,0,2.6568,Diorite_rect,3,2.657,0,2,0,2,0,1,,,,,,,,,,,,,
60ed8f50e13ce18a6d406a09,TCN,2024-06-11_11h11.01.608,LearnStrategy,2023.2.3,Win32,59.88023952,8,1,4,-0.016927083,-0.0078125,1,0,0,0.7789,rock_grid_rect_2,3,14,-1,-1,0.779,0.083333333,-0.391927083,1,0,0,1.5747,Peridotite_rect,7,1.575,0,3,0,3,0,1,,,,,,,,,,,,,
60ed8f50e13ce18a6d406a09,TCN,2024-06-11_11h11.01.608,LearnStrategy,2023.2.3,Win32,59.88023952,8,1,5,0.0234375,-0.009114583,1,0,0,0.8799,rock_grid_rect_2,1,16,-1,-1,0.88,0.32421875,-0.26171875,1,0,0,2.4902,Gabbro_rect,4,2.49,0,4,0,4,0,1,,,,,,,,,,,,,
60ed8f50e13ce18a6d406a09,TCN,2024-06-11_11h11.01.608,LearnStrategy,2023.2.3,Win32,59.88023952,8,1,6,0.009114583,-0.018229167,1,0,0,0.8459,rock_grid_rect_2,5,16,-1,-1,0.846,-0.35546875,-0.40234375,1,0,0,1.2423,Obsidian_rect,5,1.242,1,5,0,5,0,1,,,,,,,,,,,,,
60ed8f50e13ce18a6d406a09,TCN,2024-06-11_11h11.01.608,LearnStrategy,2023.2.3,Win32,59.88023952,8,1,7,-0.095052083,-0.006510417,1,0,0,1.0464,rock_grid_rect_2,7,10,-1,-1,1.046,0.3515625,-0.244791667,1,0,0,2.6954,Gabbro_rect,4,2.695,0,6,0,6,0,1,,,,,,,,,,,,,
60ed8f50e13ce18a6d406a09,TCN,2024-06-11_11h11.01.608,LearnStrategy,2023.2.3,Win32,59.88023952,8,1,8,-0.111979167,0.001302083,1,0,0,1.2619,rock_grid_rect_2,8,08,-1,-1,1.262,0.36328125,-0.401041667,1,0,0,2.557,Pumice_rect,8,2.557,1,7,0,7,0,1,,,,,,,,,,,,,
60ed8f50e13ce18a6d406a09,TCN,2024-06-11_11h11.01.608,LearnStrategy,2023.2.3,Win32,59.88023952,8,1,9,-0.029947917,-0.0078125,1,0,0,0.7961,rock_grid_rect_2,4,08,-1,-1,0.796,0.34765625,-0.243489583,1,0,0,3.2893,Gabbro_rect,4,3.289,1,8,0,8,0,1,,,,,,,,,,,,,
60ed8f50e13ce18a6d406a09,TCN,2024-06-11_11h11.01.608,LearnStrategy,2023.2.3,Win32,59.88023952,8,1,10,0.029947917,-0.015625,1,0,0,1.1787,rock_grid_rect_2,4,10,-1,-1,1.179,0.368489583,-0.235677083,1,0,0,2.0747,Gabbro_rect,4,2.075,1,9,0,9,0,1,,,,,,,,,,,,,
60ed8f50e13ce18a6d406a09,TCN,2024-06-11_11h11.01.608,LearnStrategy,2023.2.3,Win32,59.88023952,8,1,11,0.044270833,-0.01171875,1,0,0,0.9299,rock_grid_rect_2,5,12,-1,-1,0.93,-0.3515625,-0.41015625,1,0,0,1.411,Obsidian_rect,5,1.411,1,10,0,10,0,1,,,,,,,,,,,,,
60ed8f50e13ce18a6d406a09,TCN,2024-06-11_11h11.01.608,LearnStrategy,2023.2.3,Win32,59.88023952,8,1,12,-0.02734375,0,1,0,0,1.0131,rock_grid_rect_2,3,10,-1,-1,1.013,0.118489583,-0.40234375,1,0,0,6.0858,Peridotite_rect,7,6.086,0,11,0,11,0,1,,,,,,,,,,,,,
60ed8f50e13ce18a6d406a09,TCN,2024-06-11_11h11.01.608,LearnStrategy,2023.2.3,Win32,59.88023952,8,1,13,0.057291667,0.01171875,1,0,0,0.9456,rock_grid_rect_2,6,07,-1,-1,0.946,-0.114583333,-0.401041667,1,0,0,1.4087,Pegmatite_rect,6,1.409,1,12,0,12,0,1,,,,,,,,,,,,,
60ed8f50e13ce18a6d406a09,TCN,2024-06-11_11h11.01.608,LearnStrategy,2023.2.3,Win32,59.88023952,8,1,14,-0.002604167,0.024739583,1,0,0,0.8298,rock_grid_rect_2,2,11,-1,-1,0.83,0.341145833,-0.393229167,1,0,0,2.445,Pumice_rect,8,2.445,0,13,0,13,0,1,,,,,,,,,,,,,
60ed8f50e13ce18a6d406a09,TCN,2024-06-11_11h11.01.608,LearnStrategy,2023.2.3,Win32,59.88023952,8,1,15,0.001302083,0.016927083,1,0,0,0.7793,rock_grid_rect_2,7,15,-1,-1,0.779,-0.3671875,-0.2421875,1,0,0,1.9913,Andesite_rect,1,1.991,0,14,0,14,0,1,,,,,,,,,,,,,
60ed8f50e13ce18a6d406a09,TCN,2024-06-11_11h11.01.608,LearnStrategy,2023.2.3,Win32,59.88023952,8,1,16,0.028645833,-0.005208333,1,0,0,0.8467,rock_grid_rect_2,2,09,-1,-1,0.847,-0.091145833,-0.259114583,1,0,0,1.2256,Basalt_rect,2,1.226,1,15,0,15,0,1,,,,,,,,,,,,,
60ed8f50e13ce18a6d406a09,TCN,2024-06-11_11h11.01.608,LearnStrategy,2023.2.3,Win32,59.88023952,8,2,1,,,,,,,,3,12,,,,,,,,,,,6,1.941,0,,,,,,-0.078125,-0.385416667,1,0,0,1.9408,Pegmatite_rect,0,0,0,0,1,
60ed8f50e13ce18a6d406a09,TCN,2024-06-11_11h11.01.608,LearnStrategy,2023.2.3,Win32,59.88023952,8,2,2,,,,,,,,2,06,,,,,,,,,,,2,1.302,1,,,,,,-0.084635417,-0.243489583,1,0,0,1.3018,Basalt_rect,1,0,1,0,1,
60ed8f50e13ce18a6d406a09,TCN,2024-06-11_11h11.01.608,LearnStrategy,2023.2.3,Win32,59.88023952,8,2,3,,,,,,,,1,04,,,,,,,,,,,7,4.488,0,,,,,,0.09765625,-0.404947917,1,0,0,4.4876,Peridotite_rect,2,0,2,0,1,
60ed8f50e13ce18a6d406a09,TCN,2024-06-11_11h11.01.608,LearnStrategy,2023.2.3,Win32,59.88023952,8,2,4,,,,,,,,4,05,,,,,,,,,,,4,2.041,1,,,,,,0.338541667,-0.24609375,1,0,0,2.0408,Gabbro_rect,3,0,3,0,1,
60ed8f50e13ce18a6d406a09,TCN,2024-06-11_11h11.01.608,LearnStrategy,2023.2.3,Win32,59.88023952,8,2,5,,,,,,,,4,16,,,,,,,,,,,1,3.858,0,,,,,,-0.37109375,-0.260416667,1,0,0,3.8581,Andesite_rect,4,0,4,0,1,
60ed8f50e13ce18a6d406a09,TCN,2024-06-11_11h11.01.608,LearnStrategy,2023.2.3,Win32,59.88023952,8,2,6,,,,,,,,5,10,,,,,,,,,,,5,0.925,1,,,,,,-0.380208333,-0.397135417,1,0,0,0.9253,Obsidian_rect,5,0,5,0,1,
60ed8f50e13ce18a6d406a09,TCN,2024-06-11_11h11.01.608,LearnStrategy,2023.2.3,Win32,59.88023952,8,2,7,,,,,,,,6,15,,,,,,,,,,,6,1.142,1,,,,,,-0.16015625,-0.419270833,1,0,0,1.1416,Pegmatite_rect,6,0,6,0,1,
60ed8f50e13ce18a6d406a09,TCN,2024-06-11_11h11.01.608,LearnStrategy,2023.2.3,Win32,59.88023952,8,2,8,,,,,,,,3,07,,,,,,,,,,,3,2.789,1,,,,,,0.1328125,-0.247395833,1,0,0,2.7892,Diorite_rect,7,0,7,0,1,
60ed8f50e13ce18a6d406a09,TCN,2024-06-11_11h11.01.608,LearnStrategy,2023.2.3,Win32,59.88023952,8,2,9,,,,,,,,6,03,,,,,,,,,,,6,3.106,1,,,,,,-0.115885417,-0.404947917,1,0,0,3.1059,Pegmatite_rect,8,0,8,0,1,
60ed8f50e13ce18a6d406a09,TCN,2024-06-11_11h11.01.608,LearnStrategy,2023.2.3,Win32,59.88023952,8,2,10,,,,,,,,8,04,,,,,,,,,,,8,1.659,1,,,,,,0.346354167,-0.380208333,1,0,0,1.6588,Pumice_rect,9,0,9,0,1,
60ed8f50e13ce18a6d406a09,TCN,2024-06-11_11h11.01.608,LearnStrategy,2023.2.3,Win32,59.88023952,8,2,11,,,,,,,,7,13,,,,,,,,,,,3,1.983,0,,,,,,0.170572917,-0.263020833,1,0,0,1.9825,Diorite_rect,10,0,10,0,1,
60ed8f50e13ce18a6d406a09,TCN,2024-06-11_11h11.01.608,LearnStrategy,2023.2.3,Win32,59.88023952,8,2,12,,,,,,,,8,02,,,,,,,,,,,8,2.015,1,,,,,,0.34765625,-0.390625,1,0,0,2.0151,Pumice_rect,11,0,11,0,1,
60ed8f50e13ce18a6d406a09,TCN,2024-06-11_11h11.01.608,LearnStrategy,2023.2.3,Win32,59.88023952,8,2,13,,,,,,,,5,08,,,,,,,,,,,5,1.248,1,,,,,,-0.348958333,-0.393229167,1,0,0,1.2484,Obsidian_rect,12,0,12,0,1,
60ed8f50e13ce18a6d406a09,TCN,2024-06-11_11h11.01.608,LearnStrategy,2023.2.3,Win32,59.88023952,8,2,14,,,,,,,,7,08,,,,,,,,,,,4,2.923,0,,,,,,0.350260417,-0.247395833,1,0,0,2.9229,Gabbro_rect,13,0,13,0,1,
60ed8f50e13ce18a6d406a09,TCN,2024-06-11_11h11.01.608,LearnStrategy,2023.2.3,Win32,59.88023952,8,2,15,,,,,,,,2,10,,,,,,,,,,,2,1.391,1,,,,,,-0.16015625,-0.235677083,1,0,0,1.3913,Basalt_rect,14,0,14,0,1,
60ed8f50e13ce18a6d406a09,TCN,2024-06-11_11h11.01.608,LearnStrategy,2023.2.3,Win32,59.88023952,8,2,16,,,,,,,,1,01,,,,,,,,,,,7,4.055,0,,,,,,0.108072917,-0.408854167,1,0,0,4.0547,Peridotite_rect,15,0,15,0,1,
60ed8f50e13ce18a6d406a09,TCN,2024-06-11_11h11.01.608,LearnStrategy,2023.2.3,Win32,59.88023952,9,1,1,0.026041667,0.009114583,1,0,0,0.6141,rock_grid_rect_2,1,03,-1,-1,0.614,0.114583333,-0.247395833,1,0,0,3.3228,Diorite_rect,3,3.323,0,0,0,0,0,1,,,,,,,,,,,,,
60ed8f50e13ce18a6d406a09,TCN,2024-06-11_11h11.01.608,LearnStrategy,2023.2.3,Win32,59.88023952,9,1,2,-0.03515625,-0.01171875,1,0,0,1.0453,rock_grid_rect_2,2,04,-1,-1,1.045,-0.1015625,-0.248697917,1,0,0,1.6414,Basalt_rect,2,1.641,1,1,0,1,0,1,,,,,,,,,,,,,
60ed8f50e13ce18a6d406a09,TCN,2024-06-11_11h11.01.608,LearnStrategy,2023.2.3,Win32,59.88023952,9,1,3,-0.002604167,-0.002604167,1,0,0,0.8797,rock_grid_rect_2,3,16,-1,-1,0.88,0.106770833,-0.239583333,1,0,0,1.9077,Diorite_rect,3,1.908,1,2,0,2,0,1,,,,,,,,,,,,,
60ed8f50e13ce18a6d406a09,TCN,2024-06-11_11h11.01.608,LearnStrategy,2023.2.3,Win32,59.88023952,9,1,4,0.00390625,0,1,0,0,0.9296,rock_grid_rect_2,5,09,-1,-1,0.93,-0.329427083,-0.391927083,1,0,0,1.2586,Obsidian_rect,5,1.259,1,3,0,3,0,1,,,,,,,,,,,,,
60ed8f50e13ce18a6d406a09,TCN,2024-06-11_11h11.01.608,LearnStrategy,2023.2.3,Win32,59.88023952,9,1,5,0.01171875,-0.006510417,1,0,0,0.9131,rock_grid_rect_2,8,05,-1,-1,0.913,0.40234375,-0.390625,1,0,0,1.5914,Pumice_rect,8,1.591,1,4,0,4,0,1,,,,,,,,,,,,,
60ed8f50e13ce18a6d406a09,TCN,2024-06-11_11h11.01.608,LearnStrategy,2023.2.3,Win32,59.88023952,9,1,6,0.049479167,-0.009114583,1,0,0,1.3126,rock_grid_rect_2,3,02,-1,-1,1.313,0.115885417,-0.39453125,1,0,0,3.0065,Peridotite_rect,7,3.007,0,5,0,5,0,1,,,,,,,,,,,,,
60ed8f50e13ce18a6d406a09,TCN,2024-06-11_11h11.01.608,LearnStrategy,2023.2.3,Win32,59.88023952,9,1,7,0.04296875,-0.006510417,1,0,0,0.9957,rock_grid_rect_2,8,14,-1,-1,0.996,0.341145833,-0.415364583,1,0,0,1.6746,Pumice_rect,8,1.675,1,6,0,6,0,1,,,,,,,,,,,,,
60ed8f50e13ce18a6d406a09,TCN,2024-06-11_11h11.01.608,LearnStrategy,2023.2.3,Win32,59.88023952,9,1,8,0.040364583,0.002604167,1,0,0,0.9965,rock_grid_rect_2,4,11,-1,-1,0.997,0.401041667,-0.233072917,1,0,0,1.7094,Gabbro_rect,4,1.709,1,7,0,7,0,1,,,,,,,,,,,,,
60ed8f50e13ce18a6d406a09,TCN,2024-06-11_11h11.01.608,LearnStrategy,2023.2.3,Win32,59.88023952,9,1,9,0.020833333,-0.018229167,1,0,0,0.8964,rock_grid_rect_2,7,02,-1,-1,0.896,0.1328125,-0.395833333,1,0,0,1.8913,Peridotite_rect,7,1.891,1,8,0,8,0,1,,,,,,,,,,,,,
60ed8f50e13ce18a6d406a09,TCN,2024-06-11_11h11.01.608,LearnStrategy,2023.2.3,Win32,59.88023952,9,1,10,0.01953125,0.0078125,1,0,0,1.063,rock_grid_rect_2,4,14,-1,-1,1.063,-0.342447917,-0.243489583,1,0,0,2.715,Andesite_rect,1,2.715,0,9,0,9,0,1,,,,,,,,,,,,,
60ed8f50e13ce18a6d406a09,TCN,2024-06-11_11h11.01.608,LearnStrategy,2023.2.3,Win32,59.88023952,9,1,11,0.037760417,-0.00390625,1,0,0,0.9349,rock_grid_rect_2,6,08,-1,-1,0.935,-0.083333333,-0.389322917,1,0,0,1.3375,Pegmatite_rect,6,1.338,1,10,0,10,0,1,,,,,,,,,,,,,
60ed8f50e13ce18a6d406a09,TCN,2024-06-11_11h11.01.608,LearnStrategy,2023.2.3,Win32,59.88023952,9,1,12,0.037760417,-0.001302083,1,0,0,0.9631,rock_grid_rect_2,7,12,-1,-1,0.963,-0.313802083,-0.2578125,1,0,0,2.1565,Andesite_rect,1,2.157,0,11,0,11,0,1,,,,,,,,,,,,,
60ed8f50e13ce18a6d406a09,TCN,2024-06-11_11h11.01.608,LearnStrategy,2023.2.3,Win32,59.88023952,9,1,13,0,0.006510417,1,0,0,0.9465,rock_grid_rect_2,6,06,-1,-1,0.947,-0.0859375,-0.393229167,1,0,0,1.3584,Pegmatite_rect,6,1.358,1,12,0,12,0,1,,,,,,,,,,,,,
60ed8f50e13ce18a6d406a09,TCN,2024-06-11_11h11.01.608,LearnStrategy,2023.2.3,Win32,59.88023952,9,1,14,0.046875,-0.01171875,1,0,0,0.9299,rock_grid_rect_2,1,05,-1,-1,0.93,0.096354167,-0.415364583,1,0,0,2.3557,Peridotite_rect,7,2.356,0,13,0,13,0,1,,,,,,,,,,,,,
60ed8f50e13ce18a6d406a09,TCN,2024-06-11_11h11.01.608,LearnStrategy,2023.2.3,Win32,59.88023952,9,1,15,0.063802083,0.001302083,1,0,0,0.7289,rock_grid_rect_2,5,06,-1,-1,0.729,-0.40625,-0.404947917,1,0,0,1.2422,Obsidian_rect,5,1.242,1,14,0,14,0,1,,,,,,,,,,,,,
60ed8f50e13ce18a6d406a09,TCN,2024-06-11_11h11.01.608,LearnStrategy,2023.2.3,Win32,59.88023952,9,1,16,0.036458333,-0.016927083,1,0,0,0.83,rock_grid_rect_2,2,05,-1,-1,0.83,-0.115885417,-0.248697917,1,0,0,1.2335,Basalt_rect,2,1.234,1,15,0,15,0,1,,,,,,,,,,,,,
60ed8f50e13ce18a6d406a09,TCN,2024-06-11_11h11.01.608,LearnStrategy,2023.2.3,Win32,59.88023952,9,2,1,,,,,,,,7,14,,,,,,,,,,,1,3.713,0,,,,,,-0.33984375,-0.244791667,1,0,0,3.7134,Andesite_rect,0,0,0,0,1,
60ed8f50e13ce18a6d406a09,TCN,2024-06-11_11h11.01.608,LearnStrategy,2023.2.3,Win32,59.88023952,9,2,2,,,,,,,,3,06,,,,,,,,,,,3,2.706,1,,,,,,0.123697917,-0.247395833,1,0,0,2.7063,Diorite_rect,1,0,1,0,1,
60ed8f50e13ce18a6d406a09,TCN,2024-06-11_11h11.01.608,LearnStrategy,2023.2.3,Win32,59.88023952,9,2,3,,,,,,,,1,07,,,,,,,,,,,7,2.257,0,,,,,,0.106770833,-0.407552083,1,0,0,2.257,Peridotite_rect,2,0,2,0,1,
60ed8f50e13ce18a6d406a09,TCN,2024-06-11_11h11.01.608,LearnStrategy,2023.2.3,Win32,59.88023952,9,2,4,,,,,,,,2,02,,,,,,,,,,,2,1.158,1,,,,,,-0.072916667,-0.265625,1,0,0,1.1581,Basalt_rect,3,0,3,0,1,
60ed8f50e13ce18a6d406a09,TCN,2024-06-11_11h11.01.608,LearnStrategy,2023.2.3,Win32,59.88023952,9,2,5,,,,,,,,5,11,,,,,,,,,,,5,1.209,1,,,,,,-0.3046875,-0.393229167,1,0,0,1.2087,Obsidian_rect,4,0,4,0,1,
60ed8f50e13ce18a6d406a09,TCN,2024-06-11_11h11.01.608,LearnStrategy,2023.2.3,Win32,59.88023952,9,2,6,,,,,,,,3,08,,,,,,,,,,,6,1.491,0,,,,,,-0.173177083,-0.395833333,1,0,0,1.4912,Pegmatite_rect,5,0,5,0,1,
60ed8f50e13ce18a6d406a09,TCN,2024-06-11_11h11.01.608,LearnStrategy,2023.2.3,Win32,59.88023952,9,2,7,,,,,,,,4,12,,,,,,,,,,,4,2.714,1,,,,,,0.360677083,-0.266927083,1,0,0,2.7139,Gabbro_rect,6,0,6,0,1,
60ed8f50e13ce18a6d406a09,TCN,2024-06-11_11h11.01.608,LearnStrategy,2023.2.3,Win32,59.88023952,9,2,8,,,,,,,,8,10,,,,,,,,,,,8,2.149,1,,,,,,0.345052083,-0.39453125,1,0,0,2.1486,Pumice_rect,7,0,7,0,1,
60ed8f50e13ce18a6d406a09,TCN,2024-06-11_11h11.01.608,LearnStrategy,2023.2.3,Win32,59.88023952,9,2,9,,,,,,,,7,06,,,,,,,,,,,1,3.21,0,,,,,,-0.372395833,-0.252604167,1,0,0,3.2105,Andesite_rect,8,0,8,0,1,
60ed8f50e13ce18a6d406a09,TCN,2024-06-11_11h11.01.608,LearnStrategy,2023.2.3,Win32,59.88023952,9,2,10,,,,,,,,1,09,,,,,,,,,,,7,2.073,0,,,,,,0.100260417,-0.389322917,1,0,0,2.0733,Peridotite_rect,9,0,9,0,1,
60ed8f50e13ce18a6d406a09,TCN,2024-06-11_11h11.01.608,LearnStrategy,2023.2.3,Win32,59.88023952,9,2,11,,,,,,,,4,09,,,,,,,,,,,4,1.408,1,,,,,,0.330729167,-0.248697917,1,0,0,1.408,Gabbro_rect,10,0,10,0,1,
60ed8f50e13ce18a6d406a09,TCN,2024-06-11_11h11.01.608,LearnStrategy,2023.2.3,Win32,59.88023952,9,2,12,,,,,,,,5,02,,,,,,,,,,,5,1.415,1,,,,,,-0.35546875,-0.403645833,1,0,0,1.4152,Obsidian_rect,11,0,11,0,1,
60ed8f50e13ce18a6d406a09,TCN,2024-06-11_11h11.01.608,LearnStrategy,2023.2.3,Win32,59.88023952,9,2,13,,,,,,,,6,16,,,,,,,,,,,6,1.666,1,,,,,,-0.096354167,-0.407552083,1,0,0,1.6657,Pegmatite_rect,12,0,12,0,1,
60ed8f50e13ce18a6d406a09,TCN,2024-06-11_11h11.01.608,LearnStrategy,2023.2.3,Win32,59.88023952,9,2,14,,,,,,,,8,03,,,,,,,,,,,2,3.617,0,,,,,,-0.088541667,-0.247395833,1,0,0,3.6174,Basalt_rect,13,0,13,0,1,
60ed8f50e13ce18a6d406a09,TCN,2024-06-11_11h11.01.608,LearnStrategy,2023.2.3,Win32,59.88023952,9,2,15,,,,,,,,2,12,,,,,,,,,,,2,1.017,1,,,,,,-0.098958333,-0.248697917,1,0,0,1.0167,Basalt_rect,14,0,14,0,1,
60ed8f50e13ce18a6d406a09,TCN,2024-06-11_11h11.01.608,LearnStrategy,2023.2.3,Win32,59.88023952,9,2,16,,,,,,,,6,10,,,,,,,,,,,1,3.706,0,,,,,,-0.348958333,-0.233072917,1,0,0,3.7055,Andesite_rect,15,0,15,0,1,
60ed8f50e13ce18a6d406a09,TCN,2024-06-11_11h11.01.608,LearnStrategy,2023.2.3,Win32,59.88023952,,,,,,,,,,,,,,,,,,,,,,,,,,,,,,,,,,,,,,,,,,,0
60ed8f50e13ce18a6d406a09,TCN,2024-06-11_11h11.01.608,LearnStrategy,2023.2.3,Win32,59.88023952,,,,,,,,,,,,,,,,,,,,,,,,,,,,,,,,,,,,,,,,,,,
60ed8f50e13ce18a6d406a09,TCN,2024-06-11_11h11.01.608,LearnStrategy,2023.2.3,Win32,59.88023952,,,,,,,,,,,3,13,1,1,,,,,,,,,,,,,,,,,,,,,,,,,,,,,
60ed8f50e13ce18a6d406a09,TCN,2024-06-11_11h11.01.608,LearnStrategy,2023.2.3,Win32,59.88023952,,,,,,,,,,,5,12,1,2,,,,,,,,,,,,,,,,,,,,,,,,,,,,,
60ed8f50e13ce18a6d406a09,TCN,2024-06-11_11h11.01.608,LearnStrategy,2023.2.3,Win32,59.88023952,,,,,,,,,,,4,14,1,3,,,,,,,,,,,,,,,,,,,,,,,,,,,,,
60ed8f50e13ce18a6d406a09,TCN,2024-06-11_11h11.01.608,LearnStrategy,2023.2.3,Win32,59.88023952,,,,,,,,,,,3,02,1,4,,,,,,,,,,,,,,,,,,,,,,,,,,,,,
60ed8f50e13ce18a6d406a09,TCN,2024-06-11_11h11.01.608,LearnStrategy,2023.2.3,Win32,59.88023952,,,,,,,,,,,1,14,1,5,,,,,,,,,,,,,,,,,,,,,,,,,,,,,
60ed8f50e13ce18a6d406a09,TCN,2024-06-11_11h11.01.608,LearnStrategy,2023.2.3,Win32,59.88023952,,,,,,,,,,,3,15,1,6,,,,,,,,,,,,,,,,,,,,,,,,,,,,,
60ed8f50e13ce18a6d406a09,TCN,2024-06-11_11h11.01.608,LearnStrategy,2023.2.3,Win32,59.88023952,,,,,,,,,,,5,09,1,7,,,,,,,,,,,,,,,,,,,,,,,,,,,,,
60ed8f50e13ce18a6d406a09,TCN,2024-06-11_11h11.01.608,LearnStrategy,2023.2.3,Win32,59.88023952,,,,,,,,,,,7,04,1,8,,,,,,,,,,,,,,,,,,,,,,,,,,,,,
60ed8f50e13ce18a6d406a09,TCN,2024-06-11_11h11.01.608,LearnStrategy,2023.2.3,Win32,59.88023952,,,,,,,,,,,3,10,2,1,,,,,,,,,,,,,,,,,,,,,,,,,,,,,
60ed8f50e13ce18a6d406a09,TCN,2024-06-11_11h11.01.608,LearnStrategy,2023.2.3,Win32,59.88023952,,,,,,,,,,,4,03,2,2,,,,,,,,,,,,,,,,,,,,,,,,,,,,,
60ed8f50e13ce18a6d406a09,TCN,2024-06-11_11h11.01.608,LearnStrategy,2023.2.3,Win32,59.88023952,,,,,,,,,,,4,08,2,3,,,,,,,,,,,,,,,,,,,,,,,,,,,,,
60ed8f50e13ce18a6d406a09,TCN,2024-06-11_11h11.01.608,LearnStrategy,2023.2.3,Win32,59.88023952,,,,,,,,,,,8,16,2,4,,,,,,,,,,,,,,,,,,,,,,,,,,,,,
60ed8f50e13ce18a6d406a09,TCN,2024-06-11_11h11.01.608,LearnStrategy,2023.2.3,Win32,59.88023952,,,,,,,,,,,8,13,2,5,,,,,,,,,,,,,,,,,,,,,,,,,,,,,
60ed8f50e13ce18a6d406a09,TCN,2024-06-11_11h11.01.608,LearnStrategy,2023.2.3,Win32,59.88023952,,,,,,,,,,,3,14,2,6,,,,,,,,,,,,,,,,,,,,,,,,,,,,,
60ed8f50e13ce18a6d406a09,TCN,2024-06-11_11h11.01.608,LearnStrategy,2023.2.3,Win32,59.88023952,,,,,,,,,,,2,11,2,7,,,,,,,,,,,,,,,,,,,,,,,,,,,,,
60ed8f50e13ce18a6d406a09,TCN,2024-06-11_11h11.01.608,LearnStrategy,2023.2.3,Win32,59.88023952,,,,,,,,,,,1,03,2,8,,,,,,,,,,,,,,,,,,,,,,,,,,,,,
60ed8f50e13ce18a6d406a09,TCN,2024-06-11_11h11.01.608,LearnStrategy,2023.2.3,Win32,59.88023952,,,,,,,,,,,7,02,3,1,,,,,,,,,,,,,,,,,,,,,,,,,,,,,
60ed8f50e13ce18a6d406a09,TCN,2024-06-11_11h11.01.608,LearnStrategy,2023.2.3,Win32,59.88023952,,,,,,,,,,,6,09,3,2,,,,,,,,,,,,,,,,,,,,,,,,,,,,,
60ed8f50e13ce18a6d406a09,TCN,2024-06-11_11h11.01.608,LearnStrategy,2023.2.3,Win32,59.88023952,,,,,,,,,,,6,08,3,3,,,,,,,,,,,,,,,,,,,,,,,,,,,,,
60ed8f50e13ce18a6d406a09,TCN,2024-06-11_11h11.01.608,LearnStrategy,2023.2.3,Win32,59.88023952,,,,,,,,,,,2,09,3,4,,,,,,,,,,,,,,,,,,,,,,,,,,,,,
60ed8f50e13ce18a6d406a09,TCN,2024-06-11_11h11.01.608,LearnStrategy,2023.2.3,Win32,59.88023952,,,,,,,,,,,7,10,3,5,,,,,,,,,,,,,,,,,,,,,,,,,,,,,
60ed8f50e13ce18a6d406a09,TCN,2024-06-11_11h11.01.608,LearnStrategy,2023.2.3,Win32,59.88023952,,,,,,,,,,,5,05,3,6,,,,,,,,,,,,,,,,,,,,,,,,,,,,,
60ed8f50e13ce18a6d406a09,TCN,2024-06-11_11h11.01.608,LearnStrategy,2023.2.3,Win32,59.88023952,,,,,,,,,,,3,16,3,7,,,,,,,,,,,,,,,,,,,,,,,,,,,,,
60ed8f50e13ce18a6d406a09,TCN,2024-06-11_11h11.01.608,LearnStrategy,2023.2.3,Win32,59.88023952,,,,,,,,,,,6,07,3,8,,,,,,,,,,,,,,,,,,,,,,,,,,,,,
60ed8f50e13ce18a6d406a09,TCN,2024-06-11_11h11.01.608,LearnStrategy,2023.2.3,Win32,59.88023952,,,,,,,,,,,6,06,4,1,,,,,,,,,,,,,,,,,,,,,,,,,,,,,
60ed8f50e13ce18a6d406a09,TCN,2024-06-11_11h11.01.608,LearnStrategy,2023.2.3,Win32,59.88023952,,,,,,,,,,,2,16,4,2,,,,,,,,,,,,,,,,,,,,,,,,,,,,,
60ed8f50e13ce18a6d406a09,TCN,2024-06-11_11h11.01.608,LearnStrategy,2023.2.3,Win32,59.88023952,,,,,,,,,,,8,05,4,3,,,,,,,,,,,,,,,,,,,,,,,,,,,,,
60ed8f50e13ce18a6d406a09,TCN,2024-06-11_11h11.01.608,LearnStrategy,2023.2.3,Win32,59.88023952,,,,,,,,,,,1,10,4,4,,,,,,,,,,,,,,,,,,,,,,,,,,,,,
60ed8f50e13ce18a6d406a09,TCN,2024-06-11_11h11.01.608,LearnStrategy,2023.2.3,Win32,59.88023952,,,,,,,,,,,4,13,4,5,,,,,,,,,,,,,,,,,,,,,,,,,,,,,
60ed8f50e13ce18a6d406a09,TCN,2024-06-11_11h11.01.608,LearnStrategy,2023.2.3,Win32,59.88023952,,,,,,,,,,,8,08,4,6,,,,,,,,,,,,,,,,,,,,,,,,,,,,,
60ed8f50e13ce18a6d406a09,TCN,2024-06-11_11h11.01.608,LearnStrategy,2023.2.3,Win32,59.88023952,,,,,,,,,,,7,16,4,7,,,,,,,,,,,,,,,,,,,,,,,,,,,,,
60ed8f50e13ce18a6d406a09,TCN,2024-06-11_11h11.01.608,LearnStrategy,2023.2.3,Win32,59.88023952,,,,,,,,,,,8,14,4,8,,,,,,,,,,,,,,,,,,,,,,,,,,,,,
60ed8f50e13ce18a6d406a09,TCN,2024-06-11_11h11.01.608,LearnStrategy,2023.2.3,Win32,59.88023952,,,,,,,,,,,2,05,5,1,,,,,,,,,,,,,,,,,,,,,,,,,,,,,
60ed8f50e13ce18a6d406a09,TCN,2024-06-11_11h11.01.608,LearnStrategy,2023.2.3,Win32,59.88023952,,,,,,,,,,,7,15,5,2,,,,,,,,,,,,,,,,,,,,,,,,,,,,,
60ed8f50e13ce18a6d406a09,TCN,2024-06-11_11h11.01.608,LearnStrategy,2023.2.3,Win32,59.88023952,,,,,,,,,,,6,05,5,3,,,,,,,,,,,,,,,,,,,,,,,,,,,,,
60ed8f50e13ce18a6d406a09,TCN,2024-06-11_11h11.01.608,LearnStrategy,2023.2.3,Win32,59.88023952,,,,,,,,,,,4,10,5,4,,,,,,,,,,,,,,,,,,,,,,,,,,,,,
60ed8f50e13ce18a6d406a09,TCN,2024-06-11_11h11.01.608,LearnStrategy,2023.2.3,Win32,59.88023952,,,,,,,,,,,4,11,5,5,,,,,,,,,,,,,,,,,,,,,,,,,,,,,
60ed8f50e13ce18a6d406a09,TCN,2024-06-11_11h11.01.608,LearnStrategy,2023.2.3,Win32,59.88023952,,,,,,,,,,,1,06,5,6,,,,,,,,,,,,,,,,,,,,,,,,,,,,,
60ed8f50e13ce18a6d406a09,TCN,2024-06-11_11h11.01.608,LearnStrategy,2023.2.3,Win32,59.88023952,,,,,,,,,,,6,11,5,7,,,,,,,,,,,,,,,,,,,,,,,,,,,,,
60ed8f50e13ce18a6d406a09,TCN,2024-06-11_11h11.01.608,LearnStrategy,2023.2.3,Win32,59.88023952,,,,,,,,,,,5,16,5,8,,,,,,,,,,,,,,,,,,,,,,,,,,,,,
60ed8f50e13ce18a6d406a09,TCN,2024-06-11_11h11.01.608,LearnStrategy,2023.2.3,Win32,59.88023952,,,,,,,,,,,5,14,6,1,,,,,,,,,,,,,,,,,,,,,,,,,,,,,
60ed8f50e13ce18a6d406a09,TCN,2024-06-11_11h11.01.608,LearnStrategy,2023.2.3,Win32,59.88023952,,,,,,,,,,,5,06,6,2,,,,,,,,,,,,,,,,,,,,,,,,,,,,,
60ed8f50e13ce18a6d406a09,TCN,2024-06-11_11h11.01.608,LearnStrategy,2023.2.3,Win32,59.88023952,,,,,,,,,,,2,08,6,3,,,,,,,,,,,,,,,,,,,,,,,,,,,,,
60ed8f50e13ce18a6d406a09,TCN,2024-06-11_11h11.01.608,LearnStrategy,2023.2.3,Win32,59.88023952,,,,,,,,,,,7,12,6,4,,,,,,,,,,,,,,,,,,,,,,,,,,,,,
60ed8f50e13ce18a6d406a09,TCN,2024-06-11_11h11.01.608,LearnStrategy,2023.2.3,Win32,59.88023952,,,,,,,,,,,2,04,6,5,,,,,,,,,,,,,,,,,,,,,,,,,,,,,
60ed8f50e13ce18a6d406a09,TCN,2024-06-11_11h11.01.608,LearnStrategy,2023.2.3,Win32,59.88023952,,,,,,,,,,,8,09,6,6,,,,,,,,,,,,,,,,,,,,,,,,,,,,,
60ed8f50e13ce18a6d406a09,TCN,2024-06-11_11h11.01.608,LearnStrategy,2023.2.3,Win32,59.88023952,,,,,,,,,,,1,16,6,7,,,,,,,,,,,,,,,,,,,,,,,,,,,,,
60ed8f50e13ce18a6d406a09,TCN,2024-06-11_11h11.01.608,LearnStrategy,2023.2.3,Win32,59.88023952,,,,,,,,,,,1,05,6,8,,,,,,,,,,,,,,,,,,,,,,,,,,,,,