participant,condition,date,expName,psychopyVersion,OS,frameRate,block,phase,trial,learn_mouse_2.x,learn_mouse_2.y,learn_mouse_2.leftButton,learn_mouse_2.midButton,learn_mouse_2.rightButton,learn_mouse_2.time,learn_mouse_2.clicked_name,cat,token,row,col,t_select,cat_mouse_l.x,cat_mouse_l.y,cat_mouse_l.leftButton,cat_mouse_l.midButton,cat_mouse_l.rightButton,cat_mouse_l.time,cat_mouse_l.clicked_name,resp,t_resp,corr,train_trials.thisRepN,train_trials.thisTrialN,train_trials.thisN,train_trials.thisIndex,train_trials.ran,cat_mouse_t.x,cat_mouse_t.y,cat_mouse_t.leftButton,cat_mouse_t.midButton,cat_mouse_t.rightButton,cat_mouse_t.time,cat_mouse_t.clicked_name,test_trials.thisRepN,test_trials.thisTrialN,test_trials.thisN,test_trials.thisIndex,test_trials.ran,Bonus
60f99f9d7acea24790f070b9,TCN,2024-06-24_17h32.16.464,LearnStrategy,2023.2.3,Win32,60.24096386,,,,,,,,,,,,,,,,,,,,,,,,,,,,,,,,,,,,,,,,,,,
60f99f9d7acea24790f070b9,TCN,2024-06-24_17h32.16.464,LearnStrategy,2023.2.3,Win32,60.24096386,1,1,1,-0.015625,-0.00390625,1,0,0,4.1027,rock_grid_rect_2,6,13,-1,-1,4.103,-0.313802083,-0.25,1,0,0,3.2068,Andesite_rect,1,3.207,0,0,0,0,0,1,,,,,,,,,,,,,
60f99f9d7acea24790f070b9,TCN,2024-06-24_17h32.16.464,LearnStrategy,2023.2.3,Win32,60.24096386,1,1,2,-0.0078125,0.009114583,1,0,0,2.938,rock_grid_rect_2,2,16,-1,-1,2.938,-0.328125,-0.233072917,1,0,0,2.1328,Andesite_rect,1,2.133,0,1,0,1,0,1,,,,,,,,,,,,,
60f99f9d7acea24790f070b9,TCN,2024-06-24_17h32.16.464,LearnStrategy,2023.2.3,Win32,60.24096386,1,1,3,-0.010416667,-0.0234375,1,0,0,1.7354,rock_grid_rect_2,4,12,-1,-1,1.735,-0.345052083,-0.231770833,1,0,0,2.4279,Andesite_rect,1,2.428,0,2,0,2,0,1,,,,,,,,,,,,,
60f99f9d7acea24790f070b9,TCN,2024-06-24_17h32.16.464,LearnStrategy,2023.2.3,Win32,60.24096386,1,1,4,-0.013020833,-0.002604167,1,0,0,1.6688,rock_grid_rect_2,8,10,-1,-1,1.669,0.380208333,-0.404947917,1,0,0,4.592,Pumice_rect,8,4.592,1,3,0,3,0,1,,,,,,,,,,,,,
60f99f9d7acea24790f070b9,TCN,2024-06-24_17h32.16.464,LearnStrategy,2023.2.3,Win32,60.24096386,1,1,5,-0.010416667,-0.015625,1,0,0,2.2353,rock_grid_rect_2,1,07,-1,-1,2.235,-0.319010417,-0.256510417,1,0,0,3.5922,Andesite_rect,1,3.592,1,4,0,4,0,1,,,,,,,,,,,,,
60f99f9d7acea24790f070b9,TCN,2024-06-24_17h32.16.464,LearnStrategy,2023.2.3,Win32,60.24096386,1,1,6,-0.010416667,-0.002604167,1,0,0,1.5272,rock_grid_rect_2,2,01,-1,-1,1.527,-0.393229167,-0.395833333,1,0,0,4.3452,Obsidian_rect,5,4.345,0,5,0,5,0,1,,,,,,,,,,,,,
60f99f9d7acea24790f070b9,TCN,2024-06-24_17h32.16.464,LearnStrategy,2023.2.3,Win32,60.24096386,1,1,7,0.02734375,-0.00390625,1,0,0,1.3696,rock_grid_rect_2,1,06,-1,-1,1.37,0.138020833,-0.24609375,1,0,0,3.2682,Diorite_rect,3,3.268,0,6,0,6,0,1,,,,,,,,,,,,,
60f99f9d7acea24790f070b9,TCN,2024-06-24_17h32.16.464,LearnStrategy,2023.2.3,Win32,60.24096386,1,1,8,-0.016927083,-0.005208333,1,0,0,1.4966,rock_grid_rect_2,7,05,-1,-1,1.497,0.092447917,-0.401041667,1,0,0,2.2922,Peridotite_rect,7,2.292,1,7,0,7,0,1,,,,,,,,,,,,,
60f99f9d7acea24790f070b9,TCN,2024-06-24_17h32.16.464,LearnStrategy,2023.2.3,Win32,60.24096386,1,1,9,-0.005208333,-0.006510417,1,0,0,1.4207,rock_grid_rect_2,7,12,-1,-1,1.421,-0.098958333,-0.397135417,1,0,0,1.993,Pegmatite_rect,6,1.993,0,8,0,8,0,1,,,,,,,,,,,,,
60f99f9d7acea24790f070b9,TCN,2024-06-24_17h32.16.464,LearnStrategy,2023.2.3,Win32,60.24096386,1,1,10,-0.1015625,0,1,0,0,1.4468,rock_grid_rect_2,6,16,-1,-1,1.447,0.1015625,-0.23046875,1,0,0,3.1423,Diorite_rect,3,3.142,0,9,0,9,0,1,,,,,,,,,,,,,
60f99f9d7acea24790f070b9,TCN,2024-06-24_17h32.16.464,LearnStrategy,2023.2.3,Win32,60.24096386,1,1,11,-0.033854167,-0.002604167,1,0,0,1.5636,rock_grid_rect_2,5,14,-1,-1,1.564,-0.395833333,-0.390625,1,0,0,2.9729,Obsidian_rect,5,2.973,1,10,0,10,0,1,,,,,,,,,,,,,
60f99f9d7acea24790f070b9,TCN,2024-06-24_17h32.16.464,LearnStrategy,2023.2.3,Win32,60.24096386,1,1,12,0.014322917,0.005208333,1,0,0,1.5295,rock_grid_rect_2,4,13,-1,-1,1.529,0.309895833,-0.259114583,1,0,0,3.3085,Gabbro_rect,4,3.309,1,11,0,11,0,1,,,,,,,,,,,,,
60f99f9d7acea24790f070b9,TCN,2024-06-24_17h32.16.464,LearnStrategy,2023.2.3,Win32,60.24096386,1,1,13,0.006510417,0.00390625,1,0,0,1.4803,rock_grid_rect_2,5,05,-1,-1,1.48,-0.372395833,-0.407552083,1,0,0,2.8082,Obsidian_rect,5,2.808,1,12,0,12,0,1,,,,,,,,,,,,,
60f99f9d7acea24790f070b9,TCN,2024-06-24_17h32.16.464,LearnStrategy,2023.2.3,Win32,60.24096386,1,1,14,0.03515625,-0.0078125,1,0,0,1.4298,rock_grid_rect_2,3,09,-1,-1,1.43,-0.372395833,-0.244791667,1,0,0,2.9912,Andesite_rect,1,2.991,0,13,0,13,0,1,,,,,,,,,,,,,
60f99f9d7acea24790f070b9,TCN,2024-06-24_17h32.16.464,LearnStrategy,2023.2.3,Win32,60.24096386,1,1,15,-0.024739583,-0.01953125,1,0,0,1.3303,rock_grid_rect_2,8,13,-1,-1,1.33,-0.151041667,-0.23828125,1,0,0,1.993,Basalt_rect,2,1.993,0,14,0,14,0,1,,,,,,,,,,,,,
60f99f9d7acea24790f070b9,TCN,2024-06-24_17h32.16.464,LearnStrategy,2023.2.3,Win32,60.24096386,1,1,16,-0.01171875,-0.016927083,1,0,0,1.4309,rock_grid_rect_2,3,07,-1,-1,1.431,0.170572917,-0.236979167,1,0,0,2.3919,Diorite_rect,3,2.392,1,15,0,15,0,1,,,,,,,,,,,,,
60f99f9d7acea24790f070b9,TCN,2024-06-24_17h32.16.464,LearnStrategy,2023.2.3,Win32,60.24096386,1,2,1,,,,,,,,7,04,,,,,,,,,,,7,2.391,1,,,,,,0.140625,-0.4140625,1,0,0,2.391,Peridotite_rect,0,0,0,0,1,
60f99f9d7acea24790f070b9,TCN,2024-06-24_17h32.16.464,LearnStrategy,2023.2.3,Win32,60.24096386,1,2,2,,,,,,,,3,11,,,,,,,,,,,7,2.739,0,,,,,,0.177083333,-0.416666667,1,0,0,2.7393,Peridotite_rect,1,0,1,0,1,
60f99f9d7acea24790f070b9,TCN,2024-06-24_17h32.16.464,LearnStrategy,2023.2.3,Win32,60.24096386,1,2,3,,,,,,,,6,10,,,,,,,,,,,4,2.691,0,,,,,,0.361979167,-0.270833333,1,0,0,2.6912,Gabbro_rect,2,0,2,0,1,
60f99f9d7acea24790f070b9,TCN,2024-06-24_17h32.16.464,LearnStrategy,2023.2.3,Win32,60.24096386,1,2,4,,,,,,,,1,11,,,,,,,,,,,2,4.104,0,,,,,,-0.18359375,-0.252604167,1,0,0,4.1037,Basalt_rect,3,0,3,0,1,
60f99f9d7acea24790f070b9,TCN,2024-06-24_17h32.16.464,LearnStrategy,2023.2.3,Win32,60.24096386,1,2,5,,,,,,,,3,15,,,,,,,,,,,7,2.442,0,,,,,,0.083333333,-0.38671875,1,0,0,2.4416,Peridotite_rect,4,0,4,0,1,
60f99f9d7acea24790f070b9,TCN,2024-06-24_17h32.16.464,LearnStrategy,2023.2.3,Win32,60.24096386,1,2,6,,,,,,,,8,06,,,,,,,,,,,8,2.258,1,,,,,,0.40234375,-0.419270833,1,0,0,2.2583,Pumice_rect,5,0,5,0,1,
60f99f9d7acea24790f070b9,TCN,2024-06-24_17h32.16.464,LearnStrategy,2023.2.3,Win32,60.24096386,1,2,7,,,,,,,,4,01,,,,,,,,,,,6,3.475,0,,,,,,-0.111979167,-0.415364583,1,0,0,3.4748,Pegmatite_rect,6,0,6,0,1,
60f99f9d7acea24790f070b9,TCN,2024-06-24_17h32.16.464,LearnStrategy,2023.2.3,Win32,60.24096386,1,2,8,,,,,,,,5,09,,,,,,,,,,,5,1.425,1,,,,,,-0.329427083,-0.401041667,1,0,0,1.4251,Obsidian_rect,7,0,7,0,1,
60f99f9d7acea24790f070b9,TCN,2024-06-24_17h32.16.464,LearnStrategy,2023.2.3,Win32,60.24096386,1,2,9,,,,,,,,6,05,,,,,,,,,,,1,3.025,0,,,,,,-0.412760417,-0.231770833,1,0,0,3.0251,Andesite_rect,8,0,8,0,1,
60f99f9d7acea24790f070b9,TCN,2024-06-24_17h32.16.464,LearnStrategy,2023.2.3,Win32,60.24096386,1,2,10,,,,,,,,2,06,,,,,,,,,,,5,2.442,0,,,,,,-0.391927083,-0.41796875,1,0,0,2.4419,Obsidian_rect,9,0,9,0,1,
60f99f9d7acea24790f070b9,TCN,2024-06-24_17h32.16.464,LearnStrategy,2023.2.3,Win32,60.24096386,1,2,11,,,,,,,,5,08,,,,,,,,,,,5,1.677,1,,,,,,-0.37109375,-0.408854167,1,0,0,1.6769,Obsidian_rect,10,0,10,0,1,
60f99f9d7acea24790f070b9,TCN,2024-06-24_17h32.16.464,LearnStrategy,2023.2.3,Win32,60.24096386,1,2,12,,,,,,,,7,07,,,,,,,,,,,6,2.772,0,,,,,,-0.100260417,-0.421875,1,0,0,2.7723,Pegmatite_rect,11,0,11,0,1,
60f99f9d7acea24790f070b9,TCN,2024-06-24_17h32.16.464,LearnStrategy,2023.2.3,Win32,60.24096386,1,2,13,,,,,,,,2,10,,,,,,,,,,,5,3.874,0,,,,,,-0.348958333,-0.411458333,1,0,0,3.8739,Obsidian_rect,12,0,12,0,1,
60f99f9d7acea24790f070b9,TCN,2024-06-24_17h32.16.464,LearnStrategy,2023.2.3,Win32,60.24096386,1,2,14,,,,,,,,4,09,,,,,,,,,,,1,5.406,0,,,,,,-0.341145833,-0.2421875,1,0,0,5.4056,Andesite_rect,13,0,13,0,1,
60f99f9d7acea24790f070b9,TCN,2024-06-24_17h32.16.464,LearnStrategy,2023.2.3,Win32,60.24096386,1,2,15,,,,,,,,8,09,,,,,,,,,,,8,1.658,1,,,,,,0.428385417,-0.397135417,1,0,0,1.6581,Pumice_rect,14,0,14,0,1,
60f99f9d7acea24790f070b9,TCN,2024-06-24_17h32.16.464,LearnStrategy,2023.2.3,Win32,60.24096386,1,2,16,,,,,,,,1,16,,,,,,,,,,,1,2.222,1,,,,,,-0.384114583,-0.240885417,1,0,0,2.2221,Andesite_rect,15,0,15,0,1,
60f99f9d7acea24790f070b9,TCN,2024-06-24_17h32.16.464,LearnStrategy,2023.2.3,Win32,60.24096386,2,1,1,0.0078125,-0.006510417,1,0,0,1.3635,rock_grid_rect_2,7,16,-1,-1,1.363,-0.140625,-0.2421875,1,0,0,2.44,Basalt_rect,2,2.44,0,0,0,0,0,1,,,,,,,,,,,,,
60f99f9d7acea24790f070b9,TCN,2024-06-24_17h32.16.464,LearnStrategy,2023.2.3,Win32,60.24096386,2,1,2,0.014322917,-0.014322917,1,0,0,1.2803,rock_grid_rect_2,4,16,-1,-1,1.28,0.122395833,-0.231770833,1,0,0,2.6421,Diorite_rect,3,2.642,0,1,0,1,0,1,,,,,,,,,,,,,
60f99f9d7acea24790f070b9,TCN,2024-06-24_17h32.16.464,LearnStrategy,2023.2.3,Win32,60.24096386,2,1,3,0.015625,0.002604167,1,0,0,1.5636,rock_grid_rect_2,5,04,-1,-1,1.564,-0.356770833,-0.393229167,1,0,0,1.5172,Obsidian_rect,5,1.517,1,2,0,2,0,1,,,,,,,,,,,,,
60f99f9d7acea24790f070b9,TCN,2024-06-24_17h32.16.464,LearnStrategy,2023.2.3,Win32,60.24096386,2,1,4,0.00390625,-0.005208333,1,0,0,1.5354,rock_grid_rect_2,7,14,-1,-1,1.535,-0.17578125,-0.251302083,1,0,0,2.3773,Basalt_rect,2,2.377,0,3,0,3,0,1,,,,,,,,,,,,,
60f99f9d7acea24790f070b9,TCN,2024-06-24_17h32.16.464,LearnStrategy,2023.2.3,Win32,60.24096386,2,1,5,0.032552083,0.014322917,1,0,0,1.3439,rock_grid_rect_2,2,12,-1,-1,1.344,0.432291667,-0.401041667,1,0,0,1.9017,Pumice_rect,8,1.902,0,4,0,4,0,1,,,,,,,,,,,,,
60f99f9d7acea24790f070b9,TCN,2024-06-24_17h32.16.464,LearnStrategy,2023.2.3,Win32,60.24096386,2,1,6,-0.014322917,-0.013020833,1,0,0,1.4134,rock_grid_rect_2,8,14,-1,-1,1.413,0.377604167,-0.41015625,1,0,0,1.6186,Pumice_rect,8,1.619,1,5,0,5,0,1,,,,,,,,,,,,,
60f99f9d7acea24790f070b9,TCN,2024-06-24_17h32.16.464,LearnStrategy,2023.2.3,Win32,60.24096386,2,1,7,0.010416667,-0.001302083,1,0,0,1.3708,rock_grid_rect_2,1,10,-1,-1,1.371,-0.385416667,-0.244791667,1,0,0,1.7449,Andesite_rect,1,1.745,1,6,0,6,0,1,,,,,,,,,,,,,
60f99f9d7acea24790f070b9,TCN,2024-06-24_17h32.16.464,LearnStrategy,2023.2.3,Win32,60.24096386,2,1,8,0.048177083,-0.006510417,1,0,0,1.313,rock_grid_rect_2,2,02,-1,-1,1.313,-0.052083333,-0.231770833,1,0,0,1.8586,Basalt_rect,2,1.859,1,7,0,7,0,1,,,,,,,,,,,,,
60f99f9d7acea24790f070b9,TCN,2024-06-24_17h32.16.464,LearnStrategy,2023.2.3,Win32,60.24096386,2,1,9,0.1015625,0.005208333,1,0,0,1.3315,rock_grid_rect_2,3,13,-1,-1,1.332,-0.393229167,-0.247395833,1,0,0,2.0753,Andesite_rect,1,2.075,0,8,0,8,0,1,,,,,,,,,,,,,
60f99f9d7acea24790f070b9,TCN,2024-06-24_17h32.16.464,LearnStrategy,2023.2.3,Win32,60.24096386,2,1,10,0.09765625,-0.00390625,1,0,0,1.381,rock_grid_rect_2,8,08,-1,-1,1.381,0.399739583,-0.40234375,1,0,0,3.4937,Pumice_rect,8,3.494,1,9,0,9,0,1,,,,,,,,,,,,,
60f99f9d7acea24790f070b9,TCN,2024-06-24_17h32.16.464,LearnStrategy,2023.2.3,Win32,60.24096386,2,1,11,0.01953125,-0.014322917,1,0,0,1.4134,rock_grid_rect_2,3,02,-1,-1,1.413,0.119791667,-0.235677083,1,0,0,1.6259,Diorite_rect,3,1.626,1,10,0,10,0,1,,,,,,,,,,,,,
60f99f9d7acea24790f070b9,TCN,2024-06-24_17h32.16.464,LearnStrategy,2023.2.3,Win32,60.24096386,2,1,12,0.151041667,0.00390625,1,0,0,1.1814,rock_grid_rect_2,6,06,-1,-1,1.181,0.358072917,-0.395833333,1,0,0,2.6585,Pumice_rect,8,2.659,0,11,0,11,0,1,,,,,,,,,,,,,
60f99f9d7acea24790f070b9,TCN,2024-06-24_17h32.16.464,LearnStrategy,2023.2.3,Win32,60.24096386,2,1,13,0.055989583,-0.013020833,1,0,0,1.4136,rock_grid_rect_2,1,01,-1,-1,1.414,-0.313802083,-0.240885417,1,0,0,2.3421,Andesite_rect,1,2.342,1,12,0,12,0,1,,,,,,,,,,,,,
60f99f9d7acea24790f070b9,TCN,2024-06-24_17h32.16.464,LearnStrategy,2023.2.3,Win32,60.24096386,2,1,14,0.033854167,0.013020833,1,0,0,1.3962,rock_grid_rect_2,6,07,-1,-1,1.396,0.091145833,-0.236979167,1,0,0,1.7104,Diorite_rect,3,1.71,0,13,0,13,0,1,,,,,,,,,,,,,
60f99f9d7acea24790f070b9,TCN,2024-06-24_17h32.16.464,LearnStrategy,2023.2.3,Win32,60.24096386,2,1,15,0.03515625,-0.00390625,1,0,0,1.3477,rock_grid_rect_2,4,14,-1,-1,1.348,0.377604167,-0.265625,1,0,0,2.4756,Gabbro_rect,4,2.476,1,14,0,14,0,1,,,,,,,,,,,,,
60f99f9d7acea24790f070b9,TCN,2024-06-24_17h32.16.464,LearnStrategy,2023.2.3,Win32,60.24096386,2,1,16,-0.006510417,0.01953125,1,0,0,1.1965,rock_grid_rect_2,5,16,-1,-1,1.197,-0.36328125,-0.3984375,1,0,0,1.326,Obsidian_rect,5,1.326,1,15,0,15,0,1,,,,,,,,,,,,,
60f99f9d7acea24790f070b9,TCN,2024-06-24_17h32.16.464,LearnStrategy,2023.2.3,Win32,60.24096386,2,2,1,,,,,,,,1,03,,,,,,,,,,,1,1.828,1,,,,,,-0.352864583,-0.243489583,1,0,0,1.8279,Andesite_rect,0,0,0,0,1,
60f99f9d7acea24790f070b9,TCN,2024-06-24_17h32.16.464,LearnStrategy,2023.2.3,Win32,60.24096386,2,2,2,,,,,,,,6,15,,,,,,,,,,,6,2.053,1,,,,,,-0.110677083,-0.391927083,1,0,0,2.0532,Pegmatite_rect,1,0,1,0,1,
60f99f9d7acea24790f070b9,TCN,2024-06-24_17h32.16.464,LearnStrategy,2023.2.3,Win32,60.24096386,2,2,3,,,,,,,,5,07,,,,,,,,,,,5,1.368,1,,,,,,-0.341145833,-0.419270833,1,0,0,1.3685,Obsidian_rect,2,0,2,0,1,
60f99f9d7acea24790f070b9,TCN,2024-06-24_17h32.16.464,LearnStrategy,2023.2.3,Win32,60.24096386,2,2,4,,,,,,,,8,04,,,,,,,,,,,8,1.474,1,,,,,,0.384114583,-0.41015625,1,0,0,1.4741,Pumice_rect,3,0,3,0,1,
60f99f9d7acea24790f070b9,TCN,2024-06-24_17h32.16.464,LearnStrategy,2023.2.3,Win32,60.24096386,2,2,5,,,,,,,,5,06,,,,,,,,,,,5,1.342,1,,,,,,-0.391927083,-0.395833333,1,0,0,1.342,Obsidian_rect,4,0,4,0,1,
60f99f9d7acea24790f070b9,TCN,2024-06-24_17h32.16.464,LearnStrategy,2023.2.3,Win32,60.24096386,2,2,6,,,,,,,,8,15,,,,,,,,,,,7,4.406,0,,,,,,0.1015625,-0.393229167,1,0,0,4.4057,Peridotite_rect,5,0,5,0,1,
60f99f9d7acea24790f070b9,TCN,2024-06-24_17h32.16.464,LearnStrategy,2023.2.3,Win32,60.24096386,2,2,7,,,,,,,,2,14,,,,,,,,,,,7,2.442,0,,,,,,0.130208333,-0.401041667,1,0,0,2.4423,Peridotite_rect,6,0,6,0,1,
60f99f9d7acea24790f070b9,TCN,2024-06-24_17h32.16.464,LearnStrategy,2023.2.3,Win32,60.24096386,2,2,8,,,,,,,,1,14,,,,,,,,,,,1,1.493,1,,,,,,-0.390625,-0.239583333,1,0,0,1.4934,Andesite_rect,7,0,7,0,1,
60f99f9d7acea24790f070b9,TCN,2024-06-24_17h32.16.464,LearnStrategy,2023.2.3,Win32,60.24096386,2,2,9,,,,,,,,3,12,,,,,,,,,,,1,1.31,0,,,,,,-0.368489583,-0.243489583,1,0,0,1.3099,Andesite_rect,8,0,8,0,1,
60f99f9d7acea24790f070b9,TCN,2024-06-24_17h32.16.464,LearnStrategy,2023.2.3,Win32,60.24096386,2,2,10,,,,,,,,4,11,,,,,,,,,,,4,2.458,1,,,,,,0.326822917,-0.252604167,1,0,0,2.4584,Gabbro_rect,9,0,9,0,1,
60f99f9d7acea24790f070b9,TCN,2024-06-24_17h32.16.464,LearnStrategy,2023.2.3,Win32,60.24096386,2,2,11,,,,,,,,7,08,,,,,,,,,,,1,3.224,0,,,,,,-0.434895833,-0.234375,1,0,0,3.2244,Andesite_rect,10,0,10,0,1,
60f99f9d7acea24790f070b9,TCN,2024-06-24_17h32.16.464,LearnStrategy,2023.2.3,Win32,60.24096386,2,2,12,,,,,,,,4,05,,,,,,,,,,,1,1.61,0,,,,,,-0.412760417,-0.252604167,1,0,0,1.6099,Andesite_rect,11,0,11,0,1,
60f99f9d7acea24790f070b9,TCN,2024-06-24_17h32.16.464,LearnStrategy,2023.2.3,Win32,60.24096386,2,2,13,,,,,,,,3,10,,,,,,,,,,,1,1.194,0,,,,,,-0.412760417,-0.252604167,1,0,0,1.1935,Andesite_rect,12,0,12,0,1,
60f99f9d7acea24790f070b9,TCN,2024-06-24_17h32.16.464,LearnStrategy,2023.2.3,Win32,60.24096386,2,2,14,,,,,,,,6,11,,,,,,,,,,,4,2.559,0,,,,,,0.4453125,-0.244791667,1,0,0,2.5585,Gabbro_rect,13,0,13,0,1,
60f99f9d7acea24790f070b9,TCN,2024-06-24_17h32.16.464,LearnStrategy,2023.2.3,Win32,60.24096386,2,2,15,,,,,,,,2,11,,,,,,,,,,,2,2.075,1,,,,,,-0.10546875,-0.243489583,1,0,0,2.0754,Basalt_rect,14,0,14,0,1,
60f99f9d7acea24790f070b9,TCN,2024-06-24_17h32.16.464,LearnStrategy,2023.2.3,Win32,60.24096386,2,2,16,,,,,,,,7,06,,,,,,,,,,,2,1.793,0,,,,,,-0.10546875,-0.243489583,1,0,0,1.7927,Basalt_rect,15,0,15,0,1,
60f99f9d7acea24790f070b9,TCN,2024-06-24_17h32.16.464,LearnStrategy,2023.2.3,Win32,60.24096386,3,1,1,-0.05859375,0.002604167,1,0,0,1.148,rock_grid_rect_2,5,02,-1,-1,1.148,-0.337239583,-0.385416667,1,0,0,1.4434,Obsidian_rect,5,1.443,1,0,0,0,0,1,,,,,,,,,,,,,
60f99f9d7acea24790f070b9,TCN,2024-06-24_17h32.16.464,LearnStrategy,2023.2.3,Win32,60.24096386,3,1,2,-0.0078125,0.00390625,1,0,0,1.3795,rock_grid_rect_2,3,14,-1,-1,1.38,-0.428385417,-0.256510417,1,0,0,3.0247,Andesite_rect,1,3.025,0,1,0,1,0,1,,,,,,,,,,,,,
60f99f9d7acea24790f070b9,TCN,2024-06-24_17h32.16.464,LearnStrategy,2023.2.3,Win32,60.24096386,3,1,3,0.045572917,0.006510417,1,0,0,2.7955,rock_grid_rect_2,1,09,-1,-1,2.796,0.368489583,-0.25390625,1,0,0,2.6421,Gabbro_rect,4,2.642,0,2,0,2,0,1,,,,,,,,,,,,,
60f99f9d7acea24790f070b9,TCN,2024-06-24_17h32.16.464,LearnStrategy,2023.2.3,Win32,60.24096386,3,1,4,0.095052083,-0.022135417,1,0,0,1.6068,rock_grid_rect_2,7,13,-1,-1,1.607,-0.328125,-0.260416667,1,0,0,2.9492,Andesite_rect,1,2.949,0,3,0,3,0,1,,,,,,,,,,,,,
60f99f9d7acea24790f070b9,TCN,2024-06-24_17h32.16.464,LearnStrategy,2023.2.3,Win32,60.24096386,3,1,5,0.05859375,0.014322917,1,0,0,10.2485,rock_grid_rect_2,2,04,-1,-1,10.248,0.330729167,-0.256510417,1,0,0,3.1408,Gabbro_rect,4,3.141,0,4,0,4,0,1,,,,,,,,,,,,,
60f99f9d7acea24790f070b9,TCN,2024-06-24_17h32.16.464,LearnStrategy,2023.2.3,Win32,60.24096386,3,1,6,0.0234375,-0.0234375,1,0,0,1.4847,rock_grid_rect_2,3,16,-1,-1,1.485,-0.361979167,-0.231770833,1,0,0,3.5745,Andesite_rect,1,3.575,0,5,0,5,0,1,,,,,,,,,,,,,
60f99f9d7acea24790f070b9,TCN,2024-06-24_17h32.16.464,LearnStrategy,2023.2.3,Win32,60.24096386,3,1,7,0.013020833,-0.0078125,1,0,0,1.8725,rock_grid_rect_2,1,04,-1,-1,1.873,-0.319010417,-0.229166667,1,0,0,1.7096,Andesite_rect,1,1.71,1,6,0,6,0,1,,,,,,,,,,,,,
60f99f9d7acea24790f070b9,TCN,2024-06-24_17h32.16.464,LearnStrategy,2023.2.3,Win32,60.24096386,3,1,8,0.020833333,-0.013020833,1,0,0,2.689,rock_grid_rect_2,6,03,-1,-1,2.689,0.138020833,-0.240885417,1,0,0,5.2895,Diorite_rect,3,5.289,0,7,0,7,0,1,,,,,,,,,,,,,
60f99f9d7acea24790f070b9,TCN,2024-06-24_17h32.16.464,LearnStrategy,2023.2.3,Win32,60.24096386,3,1,9,-0.04296875,-0.006510417,1,0,0,1.7895,rock_grid_rect_2,4,10,-1,-1,1.79,-0.373697917,-0.248697917,1,0,0,2.7581,Andesite_rect,1,2.758,0,8,0,8,0,1,,,,,,,,,,,,,
60f99f9d7acea24790f070b9,TCN,2024-06-24_17h32.16.464,LearnStrategy,2023.2.3,Win32,60.24096386,3,1,10,0.080729167,0.009114583,1,0,0,3.2215,rock_grid_rect_2,6,09,-1,-1,3.222,-0.075520833,-0.412760417,1,0,0,3.6243,Pegmatite_rect,6,3.624,1,9,0,9,0,1,,,,,,,,,,,,,
60f99f9d7acea24790f070b9,TCN,2024-06-24_17h32.16.464,LearnStrategy,2023.2.3,Win32,60.24096386,3,1,11,0.063802083,-0.009114583,1,0,0,1.2465,rock_grid_rect_2,8,16,-1,-1,1.246,0.346354167,-0.391927083,1,0,0,1.8592,Pumice_rect,8,1.859,1,10,0,10,0,1,,,,,,,,,,,,,
60f99f9d7acea24790f070b9,TCN,2024-06-24_17h32.16.464,LearnStrategy,2023.2.3,Win32,60.24096386,3,1,12,0.006510417,-0.001302083,1,0,0,1.0807,rock_grid_rect_2,5,10,-1,-1,1.081,-0.346354167,-0.397135417,1,0,0,1.5434,Obsidian_rect,5,1.543,1,11,0,11,0,1,,,,,,,,,,,,,
60f99f9d7acea24790f070b9,TCN,2024-06-24_17h32.16.464,LearnStrategy,2023.2.3,Win32,60.24096386,3,1,13,0.018229167,0.001302083,1,0,0,1.1982,rock_grid_rect_2,4,08,-1,-1,1.198,-0.36328125,-0.251302083,1,0,0,2.6913,Andesite_rect,1,2.691,0,12,0,12,0,1,,,,,,,,,,,,,
60f99f9d7acea24790f070b9,TCN,2024-06-24_17h32.16.464,LearnStrategy,2023.2.3,Win32,60.24096386,3,1,14,0.009114583,-0.009114583,1,0,0,1.5396,rock_grid_rect_2,8,02,-1,-1,1.54,0.388020833,-0.404947917,1,0,0,2.4923,Pumice_rect,8,2.492,1,13,0,13,0,1,,,,,,,,,,,,,
60f99f9d7acea24790f070b9,TCN,2024-06-24_17h32.16.464,LearnStrategy,2023.2.3,Win32,60.24096386,3,1,15,0.032552083,-0.006510417,1,0,0,1.2135,rock_grid_rect_2,7,10,-1,-1,1.213,-0.360677083,-0.25390625,1,0,0,4.1575,Andesite_rect,1,4.158,0,14,0,14,0,1,,,,,,,,,,,,,
60f99f9d7acea24790f070b9,TCN,2024-06-24_17h32.16.464,LearnStrategy,2023.2.3,Win32,60.24096386,3,1,16,0.08203125,0.020833333,1,0,0,1.8228,rock_grid_rect_2,2,08,-1,-1,1.823,0.393229167,-0.23046875,1,0,0,1.277,Gabbro_rect,4,1.277,0,15,0,15,0,1,,,,,,,,,,,,,
60f99f9d7acea24790f070b9,TCN,2024-06-24_17h32.16.464,LearnStrategy,2023.2.3,Win32,60.24096386,3,2,1,,,,,,,,6,08,,,,,,,,,,,6,4.44,1,,,,,,-0.0546875,-0.391927083,1,0,0,4.44,Pegmatite_rect,0,0,0,0,1,
60f99f9d7acea24790f070b9,TCN,2024-06-24_17h32.16.464,LearnStrategy,2023.2.3,Win32,60.24096386,3,2,2,,,,,,,,5,11,,,,,,,,,,,5,1.476,1,,,,,,-0.33984375,-0.391927083,1,0,0,1.476,Obsidian_rect,1,0,1,0,1,
60f99f9d7acea24790f070b9,TCN,2024-06-24_17h32.16.464,LearnStrategy,2023.2.3,Win32,60.24096386,3,2,3,,,,,,,,2,09,,,,,,,,,,,2,3.758,1,,,,,,-0.17578125,-0.248697917,1,0,0,3.7577,Basalt_rect,2,0,2,0,1,
60f99f9d7acea24790f070b9,TCN,2024-06-24_17h32.16.464,LearnStrategy,2023.2.3,Win32,60.24096386,3,2,4,,,,,,,,6,12,,,,,,,,,,,3,3.558,0,,,,,,0.126302083,-0.244791667,1,0,0,3.5575,Diorite_rect,3,0,3,0,1,
60f99f9d7acea24790f070b9,TCN,2024-06-24_17h32.16.464,LearnStrategy,2023.2.3,Win32,60.24096386,3,2,5,,,,,,,,8,05,,,,,,,,,,,8,2.042,1,,,,,,0.358072917,-0.40234375,1,0,0,2.0416,Pumice_rect,4,0,4,0,1,
60f99f9d7acea24790f070b9,TCN,2024-06-24_17h32.16.464,LearnStrategy,2023.2.3,Win32,60.24096386,3,2,6,,,,,,,,3,08,,,,,,,,,,,3,3.374,1,,,,,,0.11328125,-0.240885417,1,0,0,3.3743,Diorite_rect,5,0,5,0,1,
60f99f9d7acea24790f070b9,TCN,2024-06-24_17h32.16.464,LearnStrategy,2023.2.3,Win32,60.24096386,3,2,7,,,,,,,,1,02,,,,,,,,,,,1,3.239,1,,,,,,-0.401041667,-0.2578125,1,0,0,3.2388,Andesite_rect,6,0,6,0,1,
60f99f9d7acea24790f070b9,TCN,2024-06-24_17h32.16.464,LearnStrategy,2023.2.3,Win32,60.24096386,3,2,8,,,,,,,,1,05,,,,,,,,,,,1,2.791,1,,,,,,-0.401041667,-0.2578125,1,0,0,2.7912,Andesite_rect,7,0,7,0,1,
60f99f9d7acea24790f070b9,TCN,2024-06-24_17h32.16.464,LearnStrategy,2023.2.3,Win32,60.24096386,3,2,9,,,,,,,,4,15,,,,,,,,,,,3,3.674,0,,,,,,0.149739583,-0.255208333,1,0,0,3.6739,Diorite_rect,8,0,8,0,1,
60f99f9d7acea24790f070b9,TCN,2024-06-24_17h32.16.464,LearnStrategy,2023.2.3,Win32,60.24096386,3,2,10,,,,,,,,4,03,,,,,,,,,,,1,3.203,0,,,,,,-0.356770833,-0.255208333,1,0,0,3.2029,Andesite_rect,9,0,9,0,1,
60f99f9d7acea24790f070b9,TCN,2024-06-24_17h32.16.464,LearnStrategy,2023.2.3,Win32,60.24096386,3,2,11,,,,,,,,7,02,,,,,,,,,,,3,3.925,0,,,,,,0.158854167,-0.240885417,1,0,0,3.9248,Diorite_rect,10,0,10,0,1,
60f99f9d7acea24790f070b9,TCN,2024-06-24_17h32.16.464,LearnStrategy,2023.2.3,Win32,60.24096386,3,2,12,,,,,,,,3,06,,,,,,,,,,,3,4.557,1,,,,,,0.158854167,-0.240885417,1,0,0,4.5567,Diorite_rect,11,0,11,0,1,
60f99f9d7acea24790f070b9,TCN,2024-06-24_17h32.16.464,LearnStrategy,2023.2.3,Win32,60.24096386,3,2,13,,,,,,,,7,15,,,,,,,,,,,3,4.706,0,,,,,,0.143229167,-0.264322917,1,0,0,4.7061,Diorite_rect,12,0,12,0,1,
60f99f9d7acea24790f070b9,TCN,2024-06-24_17h32.16.464,LearnStrategy,2023.2.3,Win32,60.24096386,3,2,14,,,,,,,,2,05,,,,,,,,,,,4,1.592,0,,,,,,0.395833333,-0.234375,1,0,0,1.5916,Gabbro_rect,13,0,13,0,1,
60f99f9d7acea24790f070b9,TCN,2024-06-24_17h32.16.464,LearnStrategy,2023.2.3,Win32,60.24096386,3,2,15,,,,,,,,5,12,,,,,,,,,,,5,1.626,1,,,,,,-0.411458333,-0.3984375,1,0,0,1.6257,Obsidian_rect,14,0,14,0,1,
60f99f9d7acea24790f070b9,TCN,2024-06-24_17h32.16.464,LearnStrategy,2023.2.3,Win32,60.24096386,3,2,16,,,,,,,,8,03,,,,,,,,,,,8,2.075,1,,,,,,0.403645833,-0.391927083,1,0,0,2.075,Pumice_rect,15,0,15,0,1,
60f99f9d7acea24790f070b9,TCN,2024-06-24_17h32.16.464,LearnStrategy,2023.2.3,Win32,60.24096386,4,1,1,0.037760417,-0.01171875,1,0,0,0.9815,rock_grid_rect_2,8,16,-1,-1,0.982,0.34765625,-0.38671875,1,0,0,2.0076,Pumice_rect,8,2.008,1,0,0,0,0,1,,,,,,,,,,,,,
60f99f9d7acea24790f070b9,TCN,2024-06-24_17h32.16.464,LearnStrategy,2023.2.3,Win32,60.24096386,4,1,2,0.033854167,-0.006510417,1,0,0,1.4138,rock_grid_rect_2,6,16,-1,-1,1.414,0.104166667,-0.251302083,1,0,0,3.4744,Diorite_rect,3,3.474,0,1,0,1,0,1,,,,,,,,,,,,,
60f99f9d7acea24790f070b9,TCN,2024-06-24_17h32.16.464,LearnStrategy,2023.2.3,Win32,60.24096386,4,1,3,0.033854167,-0.016927083,1,0,0,1.739,rock_grid_rect_2,7,05,-1,-1,1.739,0.346354167,-0.266927083,1,0,0,2.8918,Gabbro_rect,4,2.892,0,2,0,2,0,1,,,,,,,,,,,,,
60f99f9d7acea24790f070b9,TCN,2024-06-24_17h32.16.464,LearnStrategy,2023.2.3,Win32,60.24096386,4,1,4,0.037760417,0.022135417,1,0,0,12.6857,rock_grid_rect_2,7,16,-1,-1,12.686,0.110677083,-0.395833333,1,0,0,3.5409,Peridotite_rect,7,3.541,1,3,0,3,0,1,,,,,,,,,,,,,
60f99f9d7acea24790f070b9,TCN,2024-06-24_17h32.16.464,LearnStrategy,2023.2.3,Win32,60.24096386,4,1,5,0.065104167,0.002604167,1,0,0,1.3464,rock_grid_rect_2,5,14,-1,-1,1.346,-0.393229167,-0.420572917,1,0,0,1.5601,Obsidian_rect,5,1.56,1,4,0,4,0,1,,,,,,,,,,,,,
60f99f9d7acea24790f070b9,TCN,2024-06-24_17h32.16.464,LearnStrategy,2023.2.3,Win32,60.24096386,4,1,6,0.04296875,-0.005208333,1,0,0,1.2643,rock_grid_rect_2,5,04,-1,-1,1.264,-0.41015625,-0.421875,1,0,0,1.6435,Obsidian_rect,5,1.644,1,5,0,5,0,1,,,,,,,,,,,,,
60f99f9d7acea24790f070b9,TCN,2024-06-24_17h32.16.464,LearnStrategy,2023.2.3,Win32,60.24096386,4,1,7,0.037760417,-0.005208333,1,0,0,1.4621,rock_grid_rect_2,3,02,-1,-1,1.462,0.092447917,-0.240885417,1,0,0,3.3411,Diorite_rect,3,3.341,1,6,0,6,0,1,,,,,,,,,,,,,
60f99f9d7acea24790f070b9,TCN,2024-06-24_17h32.16.464,LearnStrategy,2023.2.3,Win32,60.24096386,4,1,8,0.049479167,-0.002604167,1,0,0,1.1299,rock_grid_rect_2,1,04,-1,-1,1.13,-0.365885417,-0.252604167,1,0,0,4.308,Andesite_rect,1,4.308,1,7,0,7,0,1,,,,,,,,,,,,,
60f99f9d7acea24790f070b9,TCN,2024-06-24_17h32.16.464,LearnStrategy,2023.2.3,Win32,60.24096386,4,1,9,0.100260417,-0.009114583,1,0,0,1.2472,rock_grid_rect_2,2,16,-1,-1,1.247,-0.153645833,-0.26171875,1,0,0,3.6744,Basalt_rect,2,3.674,1,8,0,8,0,1,,,,,,,,,,,,,
60f99f9d7acea24790f070b9,TCN,2024-06-24_17h32.16.464,LearnStrategy,2023.2.3,Win32,60.24096386,4,1,10,0.061197917,-0.006510417,1,0,0,1.3135,rock_grid_rect_2,3,07,-1,-1,1.313,0.143229167,-0.247395833,1,0,0,3.4072,Diorite_rect,3,3.407,1,9,0,9,0,1,,,,,,,,,,,,,
60f99f9d7acea24790f070b9,TCN,2024-06-24_17h32.16.464,LearnStrategy,2023.2.3,Win32,60.24096386,4,1,11,0.122395833,-0.014322917,1,0,0,1.3135,rock_grid_rect_2,6,07,-1,-1,1.313,-0.122395833,-0.3828125,1,0,0,6.0528,Pegmatite_rect,6,6.053,1,10,0,10,0,1,,,,,,,,,,,,,
60f99f9d7acea24790f070b9,TCN,2024-06-24_17h32.16.464,LearnStrategy,2023.2.3,Win32,60.24096386,4,1,12,-0.006510417,-0.018229167,1,0,0,1.063,rock_grid_rect_2,4,14,-1,-1,1.063,0.380208333,-0.25390625,1,0,0,3.4414,Gabbro_rect,4,3.441,1,11,0,11,0,1,,,,,,,,,,,,,
60f99f9d7acea24790f070b9,TCN,2024-06-24_17h32.16.464,LearnStrategy,2023.2.3,Win32,60.24096386,4,1,13,0.0390625,-0.0078125,1,0,0,1.247,rock_grid_rect_2,2,12,-1,-1,1.247,0.380208333,-0.395833333,1,0,0,2.7421,Pumice_rect,8,2.742,0,12,0,12,0,1,,,,,,,,,,,,,
60f99f9d7acea24790f070b9,TCN,2024-06-24_17h32.16.464,LearnStrategy,2023.2.3,Win32,60.24096386,4,1,14,0.045572917,-0.00390625,1,0,0,1.3146,rock_grid_rect_2,8,14,-1,-1,1.315,0.397135417,-0.3984375,1,0,0,2.4914,Pumice_rect,8,2.491,1,13,0,13,0,1,,,,,,,,,,,,,
60f99f9d7acea24790f070b9,TCN,2024-06-24_17h32.16.464,LearnStrategy,2023.2.3,Win32,60.24096386,4,1,15,0.028645833,-0.010416667,1,0,0,1.2301,rock_grid_rect_2,1,07,-1,-1,1.23,0.12109375,-0.25,1,0,0,3.5898,Diorite_rect,3,3.59,0,14,0,14,0,1,,,,,,,,,,,,,
60f99f9d7acea24790f070b9,TCN,2024-06-24_17h32.16.464,LearnStrategy,2023.2.3,Win32,60.24096386,4,1,16,0.036458333,-0.010416667,1,0,0,1.9399,rock_grid_rect_2,4,16,-1,-1,1.94,0.388020833,-0.23828125,1,0,0,1.4761,Gabbro_rect,4,1.476,1,15,0,15,0,1,,,,,,,,,,,,,
60f99f9d7acea24790f070b9,TCN,2024-06-24_17h32.16.464,LearnStrategy,2023.2.3,Win32,60.24096386,4,2,1,,,,,,,,7,08,,,,,,,,,,,1,4.623,0,,,,,,-0.385416667,-0.231770833,1,0,0,4.6229,Andesite_rect,0,0,0,0,1,
60f99f9d7acea24790f070b9,TCN,2024-06-24_17h32.16.464,LearnStrategy,2023.2.3,Win32,60.24096386,4,2,2,,,,,,,,1,11,,,,,,,,,,,1,5.623,1,,,,,,-0.368489583,-0.244791667,1,0,0,5.6228,Andesite_rect,1,0,1,0,1,
60f99f9d7acea24790f070b9,TCN,2024-06-24_17h32.16.464,LearnStrategy,2023.2.3,Win32,60.24096386,4,2,3,,,,,,,,2,05,,,,,,,,,,,4,2.958,0,,,,,,0.36328125,-0.247395833,1,0,0,2.9576,Gabbro_rect,2,0,2,0,1,
60f99f9d7acea24790f070b9,TCN,2024-06-24_17h32.16.464,LearnStrategy,2023.2.3,Win32,60.24096386,4,2,4,,,,,,,,1,03,,,,,,,,,,,3,5.041,0,,,,,,0.1484375,-0.266927083,1,0,0,5.0413,Diorite_rect,3,0,3,0,1,
60f99f9d7acea24790f070b9,TCN,2024-06-24_17h32.16.464,LearnStrategy,2023.2.3,Win32,60.24096386,4,2,5,,,,,,,,8,09,,,,,,,,,,,8,1.442,1,,,,,,0.35546875,-0.403645833,1,0,0,1.4423,Pumice_rect,4,0,4,0,1,
60f99f9d7acea24790f070b9,TCN,2024-06-24_17h32.16.464,LearnStrategy,2023.2.3,Win32,60.24096386,4,2,6,,,,,,,,3,15,,,,,,,,,,,7,3.774,0,,,,,,0.09375,-0.388020833,1,0,0,3.7738,Peridotite_rect,5,0,5,0,1,
60f99f9d7acea24790f070b9,TCN,2024-06-24_17h32.16.464,LearnStrategy,2023.2.3,Win32,60.24096386,4,2,7,,,,,,,,6,10,,,,,,,,,,,6,6.172,1,,,,,,-0.114583333,-0.404947917,1,0,0,6.1718,Pegmatite_rect,6,0,6,0,1,
60f99f9d7acea24790f070b9,TCN,2024-06-24_17h32.16.464,LearnStrategy,2023.2.3,Win32,60.24096386,4,2,8,,,,,,,,6,11,,,,,,,,,,,6,1.51,1,,,,,,-0.114583333,-0.403645833,1,0,0,1.5098,Pegmatite_rect,7,0,7,0,1,
60f99f9d7acea24790f070b9,TCN,2024-06-24_17h32.16.464,LearnStrategy,2023.2.3,Win32,60.24096386,4,2,9,,,,,,,,8,15,,,,,,,,,,,4,4.507,0,,,,,,0.360677083,-0.247395833,1,0,0,4.5075,Gabbro_rect,8,0,8,0,1,
60f99f9d7acea24790f070b9,TCN,2024-06-24_17h32.16.464,LearnStrategy,2023.2.3,Win32,60.24096386,4,2,10,,,,,,,,5,08,,,,,,,,,,,5,2.175,1,,,,,,-0.427083333,-0.408854167,1,0,0,2.1748,Obsidian_rect,9,0,9,0,1,
60f99f9d7acea24790f070b9,TCN,2024-06-24_17h32.16.464,LearnStrategy,2023.2.3,Win32,60.24096386,4,2,11,,,,,,,,4,15,,,,,,,,,,,3,4.89,0,,,,,,0.143229167,-0.264322917,1,0,0,4.8899,Diorite_rect,10,0,10,0,1,
60f99f9d7acea24790f070b9,TCN,2024-06-24_17h32.16.464,LearnStrategy,2023.2.3,Win32,60.24096386,4,2,12,,,,,,,,2,11,,,,,,,,,,,4,3.773,0,,,,,,0.338541667,-0.2421875,1,0,0,3.7734,Gabbro_rect,11,0,11,0,1,
60f99f9d7acea24790f070b9,TCN,2024-06-24_17h32.16.464,LearnStrategy,2023.2.3,Win32,60.24096386,4,2,13,,,,,,,,5,06,,,,,,,,,,,5,1.343,1,,,,,,-0.348958333,-0.41015625,1,0,0,1.343,Obsidian_rect,12,0,12,0,1,
60f99f9d7acea24790f070b9,TCN,2024-06-24_17h32.16.464,LearnStrategy,2023.2.3,Win32,60.24096386,4,2,14,,,,,,,,7,02,,,,,,,,,,,1,3.924,0,,,,,,-0.39453125,-0.251302083,1,0,0,3.9238,Andesite_rect,13,0,13,0,1,
60f99f9d7acea24790f070b9,TCN,2024-06-24_17h32.16.464,LearnStrategy,2023.2.3,Win32,60.24096386,4,2,15,,,,,,,,4,03,,,,,,,,,,,7,8.235,0,,,,,,0.127604167,-0.421875,1,0,0,8.2347,Peridotite_rect,14,0,14,0,1,
60f99f9d7acea24790f070b9,TCN,2024-06-24_17h32.16.464,LearnStrategy,2023.2.3,Win32,60.24096386,4,2,16,,,,,,,,3,06,,,,,,,,,,,7,10.417,0,,,,,,0.09375,-0.393229167,1,0,0,10.4173,Peridotite_rect,15,0,15,0,1,
60f99f9d7acea24790f070b9,TCN,2024-06-24_17h32.16.464,LearnStrategy,2023.2.3,Win32,60.24096386,5,1,1,0.001302083,-0.018229167,1,0,0,1.2641,rock_grid_rect_2,4,12,-1,-1,1.264,0.096354167,-0.407552083,1,0,0,4.9064,Peridotite_rect,7,4.906,0,0,0,0,0,1,,,,,,,,,,,,,
60f99f9d7acea24790f070b9,TCN,2024-06-24_17h32.16.464,LearnStrategy,2023.2.3,Win32,60.24096386,5,1,2,0.126302083,0.01171875,1,0,0,1.3463,rock_grid_rect_2,5,16,-1,-1,1.346,-0.330729167,-0.411458333,1,0,0,1.2764,Obsidian_rect,5,1.276,1,1,0,1,0,1,,,,,,,,,,,,,
60f99f9d7acea24790f070b9,TCN,2024-06-24_17h32.16.464,LearnStrategy,2023.2.3,Win32,60.24096386,5,1,3,-0.036458333,0.009114583,1,0,0,1.8474,rock_grid_rect_2,5,10,-1,-1,1.847,-0.354166667,-0.393229167,1,0,0,1.2272,Obsidian_rect,5,1.227,1,2,0,2,0,1,,,,,,,,,,,,,
60f99f9d7acea24790f070b9,TCN,2024-06-24_17h32.16.464,LearnStrategy,2023.2.3,Win32,60.24096386,5,1,4,0.140625,0,1,0,0,1.1314,rock_grid_rect_2,8,10,-1,-1,1.131,0.393229167,-0.255208333,1,0,0,2.4924,Gabbro_rect,4,2.492,0,3,0,3,0,1,,,,,,,,,,,,,
60f99f9d7acea24790f070b9,TCN,2024-06-24_17h32.16.464,LearnStrategy,2023.2.3,Win32,60.24096386,5,1,5,0.04296875,0.005208333,1,0,0,1.2633,rock_grid_rect_2,7,12,-1,-1,1.263,0.075520833,-0.268229167,1,0,0,3.1083,Diorite_rect,3,3.108,0,4,0,4,0,1,,,,,,,,,,,,,
60f99f9d7acea24790f070b9,TCN,2024-06-24_17h32.16.464,LearnStrategy,2023.2.3,Win32,60.24096386,5,1,6,0.029947917,0.006510417,1,0,0,1.673,rock_grid_rect_2,6,06,-1,-1,1.673,0.08984375,-0.39453125,1,0,0,4.84,Peridotite_rect,7,4.84,0,5,0,5,0,1,,,,,,,,,,,,,
60f99f9d7acea24790f070b9,TCN,2024-06-24_17h32.16.464,LearnStrategy,2023.2.3,Win32,60.24096386,5,1,7,0.063802083,-0.002604167,1,0,0,4.7925,rock_grid_rect_2,1,06,-1,-1,4.793,-0.358072917,-0.25390625,1,0,0,4.3885,Andesite_rect,1,4.389,1,6,0,6,0,1,,,,,,,,,,,,,
60f99f9d7acea24790f070b9,TCN,2024-06-24_17h32.16.464,LearnStrategy,2023.2.3,Win32,60.24096386,5,1,8,0.022135417,-0.016927083,1,0,0,2.3624,rock_grid_rect_2,7,10,-1,-1,2.362,0.157552083,-0.388020833,1,0,0,2.0425,Peridotite_rect,7,2.043,1,7,0,7,0,1,,,,,,,,,,,,,
60f99f9d7acea24790f070b9,TCN,2024-06-24_17h32.16.464,LearnStrategy,2023.2.3,Win32,60.24096386,5,1,9,0.041666667,-0.01171875,1,0,0,1.3139,rock_grid_rect_2,6,03,-1,-1,1.314,-0.157552083,-0.404947917,1,0,0,1.6257,Pegmatite_rect,6,1.626,1,8,0,8,0,1,,,,,,,,,,,,,
60f99f9d7acea24790f070b9,TCN,2024-06-24_17h32.16.464,LearnStrategy,2023.2.3,Win32,60.24096386,5,1,10,0.088541667,0.020833333,1,0,0,1.9139,rock_grid_rect_2,3,13,-1,-1,1.914,0.127604167,-0.412760417,1,0,0,1.1936,Peridotite_rect,7,1.194,0,9,0,9,0,1,,,,,,,,,,,,,
60f99f9d7acea24790f070b9,TCN,2024-06-24_17h32.16.464,LearnStrategy,2023.2.3,Win32,60.24096386,5,1,11,0.114583333,-0.006510417,1,0,0,1.3565,rock_grid_rect_2,1,09,-1,-1,1.356,-0.390625,-0.259114583,1,0,0,2.0093,Andesite_rect,1,2.009,1,10,0,10,0,1,,,,,,,,,,,,,
60f99f9d7acea24790f070b9,TCN,2024-06-24_17h32.16.464,LearnStrategy,2023.2.3,Win32,60.24096386,5,1,12,0.088541667,0.015625,1,0,0,1.1643,rock_grid_rect_2,4,13,-1,-1,1.164,0.442708333,-0.23828125,1,0,0,1.7759,Gabbro_rect,4,1.776,1,11,0,11,0,1,,,,,,,,,,,,,
60f99f9d7acea24790f070b9,TCN,2024-06-24_17h32.16.464,LearnStrategy,2023.2.3,Win32,60.24096386,5,1,13,0.0390625,-0.005208333,1,0,0,1.0097,rock_grid_rect_2,2,04,-1,-1,1.01,0.388020833,-0.247395833,1,0,0,1.8096,Gabbro_rect,4,1.81,0,12,0,12,0,1,,,,,,,,,,,,,
60f99f9d7acea24790f070b9,TCN,2024-06-24_17h32.16.464,LearnStrategy,2023.2.3,Win32,60.24096386,5,1,14,0.018229167,-0.001302083,1,0,0,1.0315,rock_grid_rect_2,8,02,-1,-1,1.032,0.368489583,-0.408854167,1,0,0,1.7772,Pumice_rect,8,1.777,1,13,0,13,0,1,,,,,,,,,,,,,
60f99f9d7acea24790f070b9,TCN,2024-06-24_17h32.16.464,LearnStrategy,2023.2.3,Win32,60.24096386,5,1,15,0.03125,0,1,0,0,1.1474,rock_grid_rect_2,3,14,-1,-1,1.147,0.080729167,-0.265625,1,0,0,4.3239,Diorite_rect,3,4.324,1,14,0,14,0,1,,,,,,,,,,,,,
60f99f9d7acea24790f070b9,TCN,2024-06-24_17h32.16.464,LearnStrategy,2023.2.3,Win32,60.24096386,5,1,16,-0.020833333,-0.005208333,1,0,0,1.9883,rock_grid_rect_2,2,01,-1,-1,1.988,-0.067708333,-0.2578125,1,0,0,5.9053,Basalt_rect,2,5.905,1,15,0,15,0,1,,,,,,,,,,,,,
60f99f9d7acea24790f070b9,TCN,2024-06-24_17h32.16.464,LearnStrategy,2023.2.3,Win32,60.24096386,5,2,1,,,,,,,,3,10,,,,,,,,,,,3,5.671,1,,,,,,0.046875,-0.233072917,1,0,0,5.6708,Diorite_rect,0,0,0,0,1,
60f99f9d7acea24790f070b9,TCN,2024-06-24_17h32.16.464,LearnStrategy,2023.2.3,Win32,60.24096386,5,2,2,,,,,,,,8,04,,,,,,,,,,,8,3.074,1,,,,,,0.377604167,-0.415364583,1,0,0,3.0741,Pumice_rect,1,0,1,0,1,
60f99f9d7acea24790f070b9,TCN,2024-06-24_17h32.16.464,LearnStrategy,2023.2.3,Win32,60.24096386,5,2,3,,,,,,,,5,11,,,,,,,,,,,5,1.292,1,,,,,,-0.368489583,-0.380208333,1,0,0,1.2923,Obsidian_rect,2,0,2,0,1,
60f99f9d7acea24790f070b9,TCN,2024-06-24_17h32.16.464,LearnStrategy,2023.2.3,Win32,60.24096386,5,2,4,,,,,,,,5,07,,,,,,,,,,,5,1.659,1,,,,,,-0.420572917,-0.388020833,1,0,0,1.6589,Obsidian_rect,3,0,3,0,1,
60f99f9d7acea24790f070b9,TCN,2024-06-24_17h32.16.464,LearnStrategy,2023.2.3,Win32,60.24096386,5,2,5,,,,,,,,1,16,,,,,,,,,,,1,6.818,1,,,,,,-0.41015625,-0.255208333,1,0,0,6.8185,Andesite_rect,4,0,4,0,1,
60f99f9d7acea24790f070b9,TCN,2024-06-24_17h32.16.464,LearnStrategy,2023.2.3,Win32,60.24096386,5,2,6,,,,,,,,7,04,,,,,,,,,,,1,8.385,0,,,,,,-0.401041667,-0.270833333,1,0,0,8.3852,Andesite_rect,5,0,5,0,1,
60f99f9d7acea24790f070b9,TCN,2024-06-24_17h32.16.464,LearnStrategy,2023.2.3,Win32,60.24096386,5,2,7,,,,,,,,4,11,,,,,,,,,,,2,7.271,0,,,,,,-0.09765625,-0.248697917,1,0,0,7.2709,Basalt_rect,6,0,6,0,1,
60f99f9d7acea24790f070b9,TCN,2024-06-24_17h32.16.464,LearnStrategy,2023.2.3,Win32,60.24096386,5,2,8,,,,,,,,8,05,,,,,,,,,,,8,1.326,1,,,,,,0.352864583,-0.388020833,1,0,0,1.3262,Pumice_rect,7,0,7,0,1,
60f99f9d7acea24790f070b9,TCN,2024-06-24_17h32.16.464,LearnStrategy,2023.2.3,Win32,60.24096386,5,2,9,,,,,,,,6,05,,,,,,,,,,,6,3.724,1,,,,,,-0.092447917,-0.38671875,1,0,0,3.7242,Pegmatite_rect,8,0,8,0,1,
60f99f9d7acea24790f070b9,TCN,2024-06-24_17h32.16.464,LearnStrategy,2023.2.3,Win32,60.24096386,5,2,10,,,,,,,,2,09,,,,,,,,,,,2,2.508,1,,,,,,-0.145833333,-0.263020833,1,0,0,2.5078,Basalt_rect,9,0,9,0,1,
60f99f9d7acea24790f070b9,TCN,2024-06-24_17h32.16.464,LearnStrategy,2023.2.3,Win32,60.24096386,5,2,11,,,,,,,,7,15,,,,,,,,,,,7,2.158,1,,,,,,0.096354167,-0.41015625,1,0,0,2.1578,Peridotite_rect,10,0,10,0,1,
60f99f9d7acea24790f070b9,TCN,2024-06-24_17h32.16.464,LearnStrategy,2023.2.3,Win32,60.24096386,5,2,12,,,,,,,,4,05,,,,,,,,,,,6,7.736,0,,,,,,-0.170572917,-0.41015625,1,0,0,7.7363,Pegmatite_rect,11,0,11,0,1,
60f99f9d7acea24790f070b9,TCN,2024-06-24_17h32.16.464,LearnStrategy,2023.2.3,Win32,60.24096386,5,2,13,,,,,,,,3,08,,,,,,,,,,,6,6.704,0,,,,,,-0.138020833,-0.388020833,1,0,0,6.704,Pegmatite_rect,12,0,12,0,1,
60f99f9d7acea24790f070b9,TCN,2024-06-24_17h32.16.464,LearnStrategy,2023.2.3,Win32,60.24096386,5,2,14,,,,,,,,1,02,,,,,,,,,,,1,4.67,1,,,,,,-0.36328125,-0.2578125,1,0,0,4.6697,Andesite_rect,13,0,13,0,1,
60f99f9d7acea24790f070b9,TCN,2024-06-24_17h32.16.464,LearnStrategy,2023.2.3,Win32,60.24096386,5,2,15,,,,,,,,6,08,,,,,,,,,,,6,1.811,1,,,,,,-0.104166667,-0.416666667,1,0,0,1.8113,Pegmatite_rect,14,0,14,0,1,
60f99f9d7acea24790f070b9,TCN,2024-06-24_17h32.16.464,LearnStrategy,2023.2.3,Win32,60.24096386,5,2,16,,,,,,,,2,14,,,,,,,,,,,4,2.642,0,,,,,,0.390625,-0.244791667,1,0,0,2.6418,Gabbro_rect,15,0,15,0,1,
60f99f9d7acea24790f070b9,TCN,2024-06-24_17h32.16.464,LearnStrategy,2023.2.3,Win32,60.24096386,6,1,1,0.006510417,-0.020833333,1,0,0,1.6132,rock_grid_rect_2,1,10,-1,-1,1.613,-0.377604167,-0.265625,1,0,0,3.2909,Andesite_rect,1,3.291,1,0,0,0,0,1,,,,,,,,,,,,,
60f99f9d7acea24790f070b9,TCN,2024-06-24_17h32.16.464,LearnStrategy,2023.2.3,Win32,60.24096386,6,1,2,-0.016927083,-0.00390625,1,0,0,1.8794,rock_grid_rect_2,4,10,-1,-1,1.879,-0.361979167,-0.264322917,1,0,0,4.722,Andesite_rect,1,4.722,0,1,0,1,0,1,,,,,,,,,,,,,
60f99f9d7acea24790f070b9,TCN,2024-06-24_17h32.16.464,LearnStrategy,2023.2.3,Win32,60.24096386,6,1,3,-0.057291667,0.00390625,1,0,0,2.6052,rock_grid_rect_2,3,09,-1,-1,2.605,-0.15625,-0.384114583,1,0,0,4.303,Pegmatite_rect,6,4.303,0,2,0,2,0,1,,,,,,,,,,,,,
60f99f9d7acea24790f070b9,TCN,2024-06-24_17h32.16.464,LearnStrategy,2023.2.3,Win32,60.24096386,6,1,4,0.022135417,-0.015625,1,0,0,1.2964,rock_grid_rect_2,5,02,-1,-1,1.296,-0.391927083,-0.419270833,1,0,0,1.2932,Obsidian_rect,5,1.293,1,3,0,3,0,1,,,,,,,,,,,,,
60f99f9d7acea24790f070b9,TCN,2024-06-24_17h32.16.464,LearnStrategy,2023.2.3,Win32,60.24096386,6,1,5,0.037760417,-0.016927083,1,0,0,1.2138,rock_grid_rect_2,6,09,-1,-1,1.214,-0.1640625,-0.407552083,1,0,0,1.5768,Pegmatite_rect,6,1.577,1,4,0,4,0,1,,,,,,,,,,,,,
60f99f9d7acea24790f070b9,TCN,2024-06-24_17h32.16.464,LearnStrategy,2023.2.3,Win32,60.24096386,6,1,6,0.037760417,-0.018229167,1,0,0,1.1141,rock_grid_rect_2,6,13,-1,-1,1.114,0.11328125,-0.397135417,1,0,0,2.4088,Peridotite_rect,7,2.409,0,5,0,5,0,1,,,,,,,,,,,,,
60f99f9d7acea24790f070b9,TCN,2024-06-24_17h32.16.464,LearnStrategy,2023.2.3,Win32,60.24096386,6,1,7,0.015625,0.002604167,1,0,0,1.279,rock_grid_rect_2,5,05,-1,-1,1.279,-0.365885417,-0.41015625,1,0,0,1.8258,Obsidian_rect,5,1.826,1,6,0,6,0,1,,,,,,,,,,,,,
60f99f9d7acea24790f070b9,TCN,2024-06-24_17h32.16.464,LearnStrategy,2023.2.3,Win32,60.24096386,6,1,8,0.141927083,0.014322917,1,0,0,1.5477,rock_grid_rect_2,3,16,-1,-1,1.548,0.115885417,-0.244791667,1,0,0,2.0066,Diorite_rect,3,2.007,1,7,0,7,0,1,,,,,,,,,,,,,
60f99f9d7acea24790f070b9,TCN,2024-06-24_17h32.16.464,LearnStrategy,2023.2.3,Win32,60.24096386,6,1,9,0.08203125,-0.024739583,1,0,0,1.2644,rock_grid_rect_2,7,14,-1,-1,1.264,0.100260417,-0.384114583,1,0,0,2.3582,Peridotite_rect,7,2.358,1,8,0,8,0,1,,,,,,,,,,,,,
60f99f9d7acea24790f070b9,TCN,2024-06-24_17h32.16.464,LearnStrategy,2023.2.3,Win32,60.24096386,6,1,10,0.1015625,0,1,0,0,1.0138,rock_grid_rect_2,7,13,-1,-1,1.014,0.126302083,-0.385416667,1,0,0,1.36,Peridotite_rect,7,1.36,1,9,0,9,0,1,,,,,,,,,,,,,
60f99f9d7acea24790f070b9,TCN,2024-06-24_17h32.16.464,LearnStrategy,2023.2.3,Win32,60.24096386,6,1,11,0.0390625,-0.016927083,1,0,0,1.2477,rock_grid_rect_2,8,08,-1,-1,1.248,0.37109375,-0.3984375,1,0,0,2.1257,Pumice_rect,8,2.126,1,10,0,10,0,1,,,,,,,,,,,,,
60f99f9d7acea24790f070b9,TCN,2024-06-24_17h32.16.464,LearnStrategy,2023.2.3,Win32,60.24096386,6,1,12,0.049479167,0.01953125,1,0,0,0.9978,rock_grid_rect_2,2,02,-1,-1,0.998,-0.169270833,-0.236979167,1,0,0,1.06,Basalt_rect,2,1.06,1,11,0,11,0,1,,,,,,,,,,,,,
60f99f9d7acea24790f070b9,TCN,2024-06-24_17h32.16.464,LearnStrategy,2023.2.3,Win32,60.24096386,6,1,13,0.055989583,-0.002604167,1,0,0,1.281,rock_grid_rect_2,8,13,-1,-1,1.281,0.111979167,-0.26171875,1,0,0,3.0586,Diorite_rect,3,3.059,0,12,0,12,0,1,,,,,,,,,,,,,
60f99f9d7acea24790f070b9,TCN,2024-06-24_17h32.16.464,LearnStrategy,2023.2.3,Win32,60.24096386,6,1,14,0.165364583,-0.013020833,1,0,0,1.1626,rock_grid_rect_2,2,08,-1,-1,1.163,-0.111979167,-0.256510417,1,0,0,1.2968,Basalt_rect,2,1.297,1,13,0,13,0,1,,,,,,,,,,,,,
60f99f9d7acea24790f070b9,TCN,2024-06-24_17h32.16.464,LearnStrategy,2023.2.3,Win32,60.24096386,6,1,15,0.024739583,0.009114583,1,0,0,1.2305,rock_grid_rect_2,1,01,-1,-1,1.231,0.384114583,-0.25390625,1,0,0,3.6789,Gabbro_rect,4,3.679,0,14,0,14,0,1,,,,,,,,,,,,,
60f99f9d7acea24790f070b9,TCN,2024-06-24_17h32.16.464,LearnStrategy,2023.2.3,Win32,60.24096386,6,1,16,0.0078125,-0.002604167,1,0,0,1.3955,rock_grid_rect_2,4,08,-1,-1,1.395,0.161458333,-0.419270833,1,0,0,3.1435,Peridotite_rect,7,3.144,0,15,0,15,0,1,,,,,,,,,,,,,
60f99f9d7acea24790f070b9,TCN,2024-06-24_17h32.16.464,LearnStrategy,2023.2.3,Win32,60.24096386,6,2,1,,,,,,,,2,10,,,,,,,,,,,2,1.308,1,,,,,,-0.126302083,-0.236979167,1,0,0,1.3079,Basalt_rect,0,0,0,0,1,
60f99f9d7acea24790f070b9,TCN,2024-06-24_17h32.16.464,LearnStrategy,2023.2.3,Win32,60.24096386,6,2,2,,,,,,,,6,15,,,,,,,,,,,6,2.208,1,,,,,,-0.122395833,-0.404947917,1,0,0,2.2078,Pegmatite_rect,1,0,1,0,1,
60f99f9d7acea24790f070b9,TCN,2024-06-24_17h32.16.464,LearnStrategy,2023.2.3,Win32,60.24096386,6,2,3,,,,,,,,7,06,,,,,,,,,,,7,2.426,1,,,,,,0.131510417,-0.3828125,1,0,0,2.426,Peridotite_rect,2,0,2,0,1,
60f99f9d7acea24790f070b9,TCN,2024-06-24_17h32.16.464,LearnStrategy,2023.2.3,Win32,60.24096386,6,2,4,,,,,,,,4,01,,,,,,,,,,,3,3.141,0,,,,,,0.102864583,-0.268229167,1,0,0,3.1407,Diorite_rect,3,0,3,0,1,
60f99f9d7acea24790f070b9,TCN,2024-06-24_17h32.16.464,LearnStrategy,2023.2.3,Win32,60.24096386,6,2,5,,,,,,,,1,14,,,,,,,,,,,6,1.997,0,,,,,,-0.071614583,-0.3828125,1,0,0,1.997,Pegmatite_rect,4,0,4,0,1,
60f99f9d7acea24790f070b9,TCN,2024-06-24_17h32.16.464,LearnStrategy,2023.2.3,Win32,60.24096386,6,2,6,,,,,,,,1,05,,,,,,,,,,,3,2.019,0,,,,,,0.11328125,-0.240885417,1,0,0,2.0194,Diorite_rect,5,0,5,0,1,
60f99f9d7acea24790f070b9,TCN,2024-06-24_17h32.16.464,LearnStrategy,2023.2.3,Win32,60.24096386,6,2,7,,,,,,,,4,09,,,,,,,,,,,4,4.606,1,,,,,,0.358072917,-0.235677083,1,0,0,4.6065,Gabbro_rect,6,0,6,0,1,
60f99f9d7acea24790f070b9,TCN,2024-06-24_17h32.16.464,LearnStrategy,2023.2.3,Win32,60.24096386,6,2,8,,,,,,,,8,06,,,,,,,,,,,8,1.591,1,,,,,,0.365885417,-0.393229167,1,0,0,1.5912,Pumice_rect,7,0,7,0,1,
60f99f9d7acea24790f070b9,TCN,2024-06-24_17h32.16.464,LearnStrategy,2023.2.3,Win32,60.24096386,6,2,9,,,,,,,,3,11,,,,,,,,,,,3,2.891,1,,,,,,0.08984375,-0.251302083,1,0,0,2.8913,Diorite_rect,8,0,8,0,1,
60f99f9d7acea24790f070b9,TCN,2024-06-24_17h32.16.464,LearnStrategy,2023.2.3,Win32,60.24096386,6,2,10,,,,,,,,3,12,,,,,,,,,,,3,1.268,1,,,,,,0.08984375,-0.251302083,1,0,0,1.2683,Diorite_rect,9,0,9,0,1,
60f99f9d7acea24790f070b9,TCN,2024-06-24_17h32.16.464,LearnStrategy,2023.2.3,Win32,60.24096386,6,2,11,,,,,,,,2,06,,,,,,,,,,,2,1.371,1,,,,,,-0.194010417,-0.2421875,1,0,0,1.371,Basalt_rect,10,0,10,0,1,
60f99f9d7acea24790f070b9,TCN,2024-06-24_17h32.16.464,LearnStrategy,2023.2.3,Win32,60.24096386,6,2,12,,,,,,,,6,12,,,,,,,,,,,6,1.375,1,,,,,,-0.1328125,-0.390625,1,0,0,1.3746,Pegmatite_rect,11,0,11,0,1,
60f99f9d7acea24790f070b9,TCN,2024-06-24_17h32.16.464,LearnStrategy,2023.2.3,Win32,60.24096386,6,2,13,,,,,,,,5,12,,,,,,,,,,,5,1.175,1,,,,,,-0.361979167,-0.40234375,1,0,0,1.1755,Obsidian_rect,12,0,12,0,1,
60f99f9d7acea24790f070b9,TCN,2024-06-24_17h32.16.464,LearnStrategy,2023.2.3,Win32,60.24096386,6,2,14,,,,,,,,7,07,,,,,,,,,,,7,2.254,1,,,,,,0.135416667,-0.407552083,1,0,0,2.2535,Peridotite_rect,13,0,13,0,1,
60f99f9d7acea24790f070b9,TCN,2024-06-24_17h32.16.464,LearnStrategy,2023.2.3,Win32,60.24096386,6,2,15,,,,,,,,5,09,,,,,,,,,,,5,1.309,1,,,,,,-0.368489583,-0.395833333,1,0,0,1.3089,Obsidian_rect,14,0,14,0,1,
60f99f9d7acea24790f070b9,TCN,2024-06-24_17h32.16.464,LearnStrategy,2023.2.3,Win32,60.24096386,6,2,16,,,,,,,,8,03,,,,,,,,,,,8,1.991,1,,,,,,0.40234375,-0.399739583,1,0,0,1.991,Pumice_rect,15,0,15,0,1,
60f99f9d7acea24790f070b9,TCN,2024-06-24_17h32.16.464,LearnStrategy,2023.2.3,Win32,60.24096386,7,1,1,0.033854167,0.010416667,1,0,0,0.7138,rock_grid_rect_2,5,02,-1,-1,0.714,-0.356770833,-0.393229167,1,0,0,1.5764,Obsidian_rect,5,1.576,1,0,0,0,0,1,,,,,,,,,,,,,
60f99f9d7acea24790f070b9,TCN,2024-06-24_17h32.16.464,LearnStrategy,2023.2.3,Win32,60.24096386,7,1,2,0.072916667,0.010416667,1,0,0,1.2307,rock_grid_rect_2,3,14,-1,-1,1.231,0.126302083,-0.248697917,1,0,0,2.0267,Diorite_rect,3,2.027,1,1,0,1,0,1,,,,,,,,,,,,,
60f99f9d7acea24790f070b9,TCN,2024-06-24_17h32.16.464,LearnStrategy,2023.2.3,Win32,60.24096386,7,1,3,0.055989583,0.0078125,1,0,0,1.0462,rock_grid_rect_2,3,16,-1,-1,1.046,0.15625,-0.247395833,1,0,0,1.4597,Diorite_rect,3,1.46,1,2,0,2,0,1,,,,,,,,,,,,,
60f99f9d7acea24790f070b9,TCN,2024-06-24_17h32.16.464,LearnStrategy,2023.2.3,Win32,60.24096386,7,1,4,0.080729167,-0.01171875,1,0,0,1.1478,rock_grid_rect_2,2,02,-1,-1,1.148,-0.161458333,-0.259114583,1,0,0,2.1094,Basalt_rect,2,2.109,1,3,0,3,0,1,,,,,,,,,,,,,
60f99f9d7acea24790f070b9,TCN,2024-06-24_17h32.16.464,LearnStrategy,2023.2.3,Win32,60.24096386,7,1,5,0.024739583,-0.015625,1,0,0,1.9134,rock_grid_rect_2,4,14,-1,-1,1.913,0.359375,-0.25,1,0,0,1.5431,Gabbro_rect,4,1.543,1,4,0,4,0,1,,,,,,,,,,,,,
60f99f9d7acea24790f070b9,TCN,2024-06-24_17h32.16.464,LearnStrategy,2023.2.3,Win32,60.24096386,7,1,6,0.018229167,-0.0234375,1,0,0,1.1479,rock_grid_rect_2,2,04,-1,-1,1.148,-0.092447917,-0.243489583,1,0,0,1.7103,Basalt_rect,2,1.71,1,5,0,5,0,1,,,,,,,,,,,,,
60f99f9d7acea24790f070b9,TCN,2024-06-24_17h32.16.464,LearnStrategy,2023.2.3,Win32,60.24096386,7,1,7,0.08984375,-0.005208333,1,0,0,0.9977,rock_grid_rect_2,4,08,-1,-1,0.998,0.140625,-0.256510417,1,0,0,1.4931,Diorite_rect,3,1.493,0,6,0,6,0,1,,,,,,,,,,,,,
60f99f9d7acea24790f070b9,TCN,2024-06-24_17h32.16.464,LearnStrategy,2023.2.3,Win32,60.24096386,7,1,8,0.0625,-0.015625,1,0,0,1.1311,rock_grid_rect_2,6,07,-1,-1,1.131,-0.03515625,-0.41015625,1,0,0,1.0434,Pegmatite_rect,6,1.043,1,7,0,7,0,1,,,,,,,,,,,,,
60f99f9d7acea24790f070b9,TCN,2024-06-24_17h32.16.464,LearnStrategy,2023.2.3,Win32,60.24096386,7,1,9,0.046875,0.01171875,1,0,0,0.9475,rock_grid_rect_2,8,14,-1,-1,0.947,0.419270833,-0.419270833,1,0,0,1.2975,Pumice_rect,8,1.297,1,8,0,8,0,1,,,,,,,,,,,,,
60f99f9d7acea24790f070b9,TCN,2024-06-24_17h32.16.464,LearnStrategy,2023.2.3,Win32,60.24096386,7,1,10,0.009114583,-0.001302083,1,0,0,1.047,rock_grid_rect_2,1,06,-1,-1,1.047,-0.330729167,-0.229166667,1,0,0,1.5766,Andesite_rect,1,1.577,1,9,0,9,0,1,,,,,,,,,,,,,
60f99f9d7acea24790f070b9,TCN,2024-06-24_17h32.16.464,LearnStrategy,2023.2.3,Win32,60.24096386,7,1,11,0.114583333,-0.022135417,1,0,0,1.1313,rock_grid_rect_2,7,12,-1,-1,1.131,0.145833333,-0.397135417,1,0,0,1.6258,Peridotite_rect,7,1.626,1,10,0,10,0,1,,,,,,,,,,,,,
60f99f9d7acea24790f070b9,TCN,2024-06-24_17h32.16.464,LearnStrategy,2023.2.3,Win32,60.24096386,7,1,12,0.106770833,0.009114583,1,0,0,0.8645,rock_grid_rect_2,8,16,-1,-1,0.864,0.356770833,-0.411458333,1,0,0,1.1937,Pumice_rect,8,1.194,1,11,0,11,0,1,,,,,,,,,,,,,
60f99f9d7acea24790f070b9,TCN,2024-06-24_17h32.16.464,LearnStrategy,2023.2.3,Win32,60.24096386,7,1,13,-0.001302083,-0.018229167,1,0,0,1.0314,rock_grid_rect_2,7,16,-1,-1,1.031,0.084635417,-0.266927083,1,0,0,3.9237,Diorite_rect,3,3.924,0,12,0,12,0,1,,,,,,,,,,,,,
60f99f9d7acea24790f070b9,TCN,2024-06-24_17h32.16.464,LearnStrategy,2023.2.3,Win32,60.24096386,7,1,14,0.015625,-0.020833333,1,0,0,1.4121,rock_grid_rect_2,6,13,-1,-1,1.412,-0.104166667,-0.41796875,1,0,0,2.0433,Pegmatite_rect,6,2.043,1,13,0,13,0,1,,,,,,,,,,,,,
60f99f9d7acea24790f070b9,TCN,2024-06-24_17h32.16.464,LearnStrategy,2023.2.3,Win32,60.24096386,7,1,15,0.048177083,0.00390625,1,0,0,1.0136,rock_grid_rect_2,5,04,-1,-1,1.014,-0.412760417,-0.411458333,1,0,0,1.5247,Obsidian_rect,5,1.525,1,14,0,14,0,1,,,,,,,,,,,,,
60f99f9d7acea24790f070b9,TCN,2024-06-24_17h32.16.464,LearnStrategy,2023.2.3,Win32,60.24096386,7,1,16,0.10546875,-0.00390625,1,0,0,1.1146,rock_grid_rect_2,1,09,-1,-1,1.115,-0.364583333,-0.256510417,1,0,0,3.1414,Andesite_rect,1,3.141,1,15,0,15,0,1,,,,,,,,,,,,,
60f99f9d7acea24790f070b9,TCN,2024-06-24_17h32.16.464,LearnStrategy,2023.2.3,Win32,60.24096386,7,2,1,,,,,,,,8,05,,,,,,,,,,,8,1.41,1,,,,,,0.36328125,-0.38671875,1,0,0,1.4098,Pumice_rect,0,0,0,0,1,
60f99f9d7acea24790f070b9,TCN,2024-06-24_17h32.16.464,LearnStrategy,2023.2.3,Win32,60.24096386,7,2,2,,,,,,,,8,03,,,,,,,,,,,8,1.526,1,,,,,,0.325520833,-0.40234375,1,0,0,1.5262,Pumice_rect,1,0,1,0,1,
60f99f9d7acea24790f070b9,TCN,2024-06-24_17h32.16.464,LearnStrategy,2023.2.3,Win32,60.24096386,7,2,3,,,,,,,,1,02,,,,,,,,,,,6,2.908,0,,,,,,-0.115885417,-0.416666667,1,0,0,2.9082,Pegmatite_rect,2,0,2,0,1,
60f99f9d7acea24790f070b9,TCN,2024-06-24_17h32.16.464,LearnStrategy,2023.2.3,Win32,60.24096386,7,2,4,,,,,,,,4,01,,,,,,,,,,,3,1.523,0,,,,,,0.166666667,-0.2578125,1,0,0,1.5231,Diorite_rect,3,0,3,0,1,
60f99f9d7acea24790f070b9,TCN,2024-06-24_17h32.16.464,LearnStrategy,2023.2.3,Win32,60.24096386,7,2,5,,,,,,,,5,06,,,,,,,,,,,5,1.341,1,,,,,,-0.375,-0.404947917,1,0,0,1.341,Obsidian_rect,4,0,4,0,1,
60f99f9d7acea24790f070b9,TCN,2024-06-24_17h32.16.464,LearnStrategy,2023.2.3,Win32,60.24096386,7,2,6,,,,,,,,5,07,,,,,,,,,,,5,1.941,1,,,,,,-0.368489583,-0.407552083,1,0,0,1.9408,Obsidian_rect,5,0,5,0,1,
60f99f9d7acea24790f070b9,TCN,2024-06-24_17h32.16.464,LearnStrategy,2023.2.3,Win32,60.24096386,7,2,7,,,,,,,,7,06,,,,,,,,,,,7,1.909,1,,,,,,0.15625,-0.403645833,1,0,0,1.9087,Peridotite_rect,6,0,6,0,1,
60f99f9d7acea24790f070b9,TCN,2024-06-24_17h32.16.464,LearnStrategy,2023.2.3,Win32,60.24096386,7,2,8,,,,,,,,2,06,,,,,,,,,,,2,1.126,1,,,,,,-0.091145833,-0.26171875,1,0,0,1.1256,Basalt_rect,7,0,7,0,1,
60f99f9d7acea24790f070b9,TCN,2024-06-24_17h32.16.464,LearnStrategy,2023.2.3,Win32,60.24096386,7,2,9,,,,,,,,3,08,,,,,,,,,,,7,1.893,0,,,,,,0.109375,-0.393229167,1,0,0,1.8931,Peridotite_rect,8,0,8,0,1,
60f99f9d7acea24790f070b9,TCN,2024-06-24_17h32.16.464,LearnStrategy,2023.2.3,Win32,60.24096386,7,2,10,,,,,,,,7,04,,,,,,,,,,,1,3.157,0,,,,,,-0.381510417,-0.236979167,1,0,0,3.1571,Andesite_rect,9,0,9,0,1,
60f99f9d7acea24790f070b9,TCN,2024-06-24_17h32.16.464,LearnStrategy,2023.2.3,Win32,60.24096386,7,2,11,,,,,,,,6,05,,,,,,,,,,,6,1.752,1,,,,,,-0.069010417,-0.381510417,1,0,0,1.7525,Pegmatite_rect,10,0,10,0,1,
60f99f9d7acea24790f070b9,TCN,2024-06-24_17h32.16.464,LearnStrategy,2023.2.3,Win32,60.24096386,7,2,12,,,,,,,,6,12,,,,,,,,,,,6,1.09,1,,,,,,-0.114583333,-0.404947917,1,0,0,1.0902,Pegmatite_rect,11,0,11,0,1,
60f99f9d7acea24790f070b9,TCN,2024-06-24_17h32.16.464,LearnStrategy,2023.2.3,Win32,60.24096386,7,2,13,,,,,,,,1,03,,,,,,,,,,,1,2.359,1,,,,,,-0.395833333,-0.252604167,1,0,0,2.3594,Andesite_rect,12,0,12,0,1,
60f99f9d7acea24790f070b9,TCN,2024-06-24_17h32.16.464,LearnStrategy,2023.2.3,Win32,60.24096386,7,2,14,,,,,,,,2,09,,,,,,,,,,,2,1.71,1,,,,,,-0.153645833,-0.264322917,1,0,0,1.7095,Basalt_rect,13,0,13,0,1,
60f99f9d7acea24790f070b9,TCN,2024-06-24_17h32.16.464,LearnStrategy,2023.2.3,Win32,60.24096386,7,2,15,,,,,,,,3,12,,,,,,,,,,,3,3.573,1,,,,,,0.126302083,-0.264322917,1,0,0,3.5735,Diorite_rect,14,0,14,0,1,
60f99f9d7acea24790f070b9,TCN,2024-06-24_17h32.16.464,LearnStrategy,2023.2.3,Win32,60.24096386,7,2,16,,,,,,,,4,03,,,,,,,,,,,3,1.295,0,,,,,,0.126302083,-0.264322917,1,0,0,1.2947,Diorite_rect,15,0,15,0,1,
60f99f9d7acea24790f070b9,TCN,2024-06-24_17h32.16.464,LearnStrategy,2023.2.3,Win32,60.24096386,8,1,1,0.01171875,0.001302083,1,0,0,0.5635,rock_grid_rect_2,8,02,-1,-1,0.563,0.40234375,-0.4140625,1,0,0,1.5405,Pumice_rect,8,1.541,1,0,0,0,0,1,,,,,,,,,,,,,
60f99f9d7acea24790f070b9,TCN,2024-06-24_17h32.16.464,LearnStrategy,2023.2.3,Win32,60.24096386,8,1,2,-0.022135417,-0.0078125,1,0,0,1.0301,rock_grid_rect_2,6,03,-1,-1,1.03,-0.09765625,-0.390625,1,0,0,1.1604,Pegmatite_rect,6,1.16,1,1,0,1,0,1,,,,,,,,,,,,,
60f99f9d7acea24790f070b9,TCN,2024-06-24_17h32.16.464,LearnStrategy,2023.2.3,Win32,60.24096386,8,1,3,0.00390625,-0.016927083,1,0,0,1.0643,rock_grid_rect_2,6,06,-1,-1,1.064,0.125,-0.247395833,1,0,0,2.2262,Diorite_rect,3,2.226,0,2,0,2,0,1,,,,,,,,,,,,,
60f99f9d7acea24790f070b9,TCN,2024-06-24_17h32.16.464,LearnStrategy,2023.2.3,Win32,60.24096386,8,1,4,0.016927083,0.001302083,1,0,0,1.2804,rock_grid_rect_2,5,14,-1,-1,1.28,-0.358072917,-0.3828125,1,0,0,2.5585,Obsidian_rect,5,2.559,1,3,0,3,0,1,,,,,,,,,,,,,
60f99f9d7acea24790f070b9,TCN,2024-06-24_17h32.16.464,LearnStrategy,2023.2.3,Win32,60.24096386,8,1,5,0.04296875,0.001302083,1,0,0,1.03,rock_grid_rect_2,1,04,-1,-1,1.03,0.109375,-0.244791667,1,0,0,1.36,Diorite_rect,3,1.36,0,4,0,4,0,1,,,,,,,,,,,,,
60f99f9d7acea24790f070b9,TCN,2024-06-24_17h32.16.464,LearnStrategy,2023.2.3,Win32,60.24096386,8,1,6,0.04296875,-0.014322917,1,0,0,0.9154,rock_grid_rect_2,7,10,-1,-1,0.915,0.140625,-0.401041667,1,0,0,1.8592,Peridotite_rect,7,1.859,1,5,0,5,0,1,,,,,,,,,,,,,
60f99f9d7acea24790f070b9,TCN,2024-06-24_17h32.16.464,LearnStrategy,2023.2.3,Win32,60.24096386,8,1,7,0.061197917,0.00390625,1,0,0,1.0813,rock_grid_rect_2,3,07,-1,-1,1.081,0.12109375,-0.2421875,1,0,0,1.2602,Diorite_rect,3,1.26,1,6,0,6,0,1,,,,,,,,,,,,,
60f99f9d7acea24790f070b9,TCN,2024-06-24_17h32.16.464,LearnStrategy,2023.2.3,Win32,60.24096386,8,1,8,0.041666667,-0.016927083,1,0,0,0.8983,rock_grid_rect_2,4,10,-1,-1,0.898,-0.391927083,-0.2421875,1,0,0,2.3595,Andesite_rect,1,2.359,0,7,0,7,0,1,,,,,,,,,,,,,
60f99f9d7acea24790f070b9,TCN,2024-06-24_17h32.16.464,LearnStrategy,2023.2.3,Win32,60.24096386,8,1,9,0.048177083,-0.010416667,1,0,0,1.0464,rock_grid_rect_2,4,12,-1,-1,1.046,-0.322916667,-0.24609375,1,0,0,2.1762,Andesite_rect,1,2.176,0,8,0,8,0,1,,,,,,,,,,,,,
60f99f9d7acea24790f070b9,TCN,2024-06-24_17h32.16.464,LearnStrategy,2023.2.3,Win32,60.24096386,8,1,10,0.005208333,-0.01953125,1,0,0,1.131,rock_grid_rect_2,2,16,-1,-1,1.131,0.352864583,-0.252604167,1,0,0,3.3104,Gabbro_rect,4,3.31,0,9,0,9,0,1,,,,,,,,,,,,,
60f99f9d7acea24790f070b9,TCN,2024-06-24_17h32.16.464,LearnStrategy,2023.2.3,Win32,60.24096386,8,1,11,-0.00390625,0.001302083,1,0,0,1.2131,rock_grid_rect_2,5,10,-1,-1,1.213,-0.345052083,-0.412760417,1,0,0,1.2605,Obsidian_rect,5,1.261,1,10,0,10,0,1,,,,,,,,,,,,,
60f99f9d7acea24790f070b9,TCN,2024-06-24_17h32.16.464,LearnStrategy,2023.2.3,Win32,60.24096386,8,1,12,0.0390625,-0.002604167,1,0,0,1.1467,rock_grid_rect_2,7,13,-1,-1,1.147,-0.055989583,-0.397135417,1,0,0,3.5912,Pegmatite_rect,6,3.591,0,11,0,11,0,1,,,,,,,,,,,,,
60f99f9d7acea24790f070b9,TCN,2024-06-24_17h32.16.464,LearnStrategy,2023.2.3,Win32,60.24096386,8,1,13,0.153645833,-0.020833333,1,0,0,1.147,rock_grid_rect_2,1,01,-1,-1,1.147,0.12109375,-0.26953125,1,0,0,3.4576,Diorite_rect,3,3.458,0,12,0,12,0,1,,,,,,,,,,,,,
60f99f9d7acea24790f070b9,TCN,2024-06-24_17h32.16.464,LearnStrategy,2023.2.3,Win32,60.24096386,8,1,14,0.037760417,0.00390625,1,0,0,1.2452,rock_grid_rect_2,8,10,-1,-1,1.245,0.420572917,-0.407552083,1,0,0,1.1599,Pumice_rect,8,1.16,1,13,0,13,0,1,,,,,,,,,,,,,
60f99f9d7acea24790f070b9,TCN,2024-06-24_17h32.16.464,LearnStrategy,2023.2.3,Win32,60.24096386,8,1,15,0.072916667,0.001302083,1,0,0,1.1481,rock_grid_rect_2,3,09,-1,-1,1.148,0.157552083,-0.251302083,1,0,0,1.879,Diorite_rect,3,1.879,1,14,0,14,0,1,,,,,,,,,,,,,
60f99f9d7acea24790f070b9,TCN,2024-06-24_17h32.16.464,LearnStrategy,2023.2.3,Win32,60.24096386,8,1,16,0.026041667,-0.010416667,1,0,0,1.3805,rock_grid_rect_2,2,12,-1,-1,1.38,0.38671875,-0.244791667,1,0,0,2.1931,Gabbro_rect,4,2.193,0,15,0,15,0,1,,,,,,,,,,,,,
60f99f9d7acea24790f070b9,TCN,2024-06-24_17h32.16.464,LearnStrategy,2023.2.3,Win32,60.24096386,8,2,1,,,,,,,,7,02,,,,,,,,,,,7,4.44,1,,,,,,0.162760417,-0.4140625,1,0,0,4.4402,Peridotite_rect,0,0,0,0,1,
60f99f9d7acea24790f070b9,TCN,2024-06-24_17h32.16.464,LearnStrategy,2023.2.3,Win32,60.24096386,8,2,2,,,,,,,,1,16,,,,,,,,,,,6,2.318,0,,,,,,-0.1328125,-0.41015625,1,0,0,2.3179,Pegmatite_rect,1,0,1,0,1,
60f99f9d7acea24790f070b9,TCN,2024-06-24_17h32.16.464,LearnStrategy,2023.2.3,Win32,60.24096386,8,2,3,,,,,,,,2,11,,,,,,,,,,,4,1.993,0,,,,,,0.358072917,-0.264322917,1,0,0,1.9928,Gabbro_rect,2,0,2,0,1,
60f99f9d7acea24790f070b9,TCN,2024-06-24_17h32.16.464,LearnStrategy,2023.2.3,Win32,60.24096386,8,2,4,,,,,,,,3,15,,,,,,,,,,,3,2.368,1,,,,,,0.100260417,-0.255208333,1,0,0,2.3681,Diorite_rect,3,0,3,0,1,
60f99f9d7acea24790f070b9,TCN,2024-06-24_17h32.16.464,LearnStrategy,2023.2.3,Win32,60.24096386,8,2,5,,,,,,,,6,15,,,,,,,,,,,6,1.193,1,,,,,,-0.076822917,-0.407552083,1,0,0,1.1931,Pegmatite_rect,4,0,4,0,1,
60f99f9d7acea24790f070b9,TCN,2024-06-24_17h32.16.464,LearnStrategy,2023.2.3,Win32,60.24096386,8,2,6,,,,,,,,8,06,,,,,,,,,,,8,1.75,1,,,,,,0.380208333,-0.404947917,1,0,0,1.7498,Pumice_rect,5,0,5,0,1,
60f99f9d7acea24790f070b9,TCN,2024-06-24_17h32.16.464,LearnStrategy,2023.2.3,Win32,60.24096386,8,2,7,,,,,,,,1,14,,,,,,,,,,,1,2.36,1,,,,,,-0.352864583,-0.265625,1,0,0,2.3595,Andesite_rect,6,0,6,0,1,
60f99f9d7acea24790f070b9,TCN,2024-06-24_17h32.16.464,LearnStrategy,2023.2.3,Win32,60.24096386,8,2,8,,,,,,,,4,09,,,,,,,,,,,4,4.764,1,,,,,,0.442708333,-0.243489583,1,0,0,4.7637,Gabbro_rect,7,0,7,0,1,
60f99f9d7acea24790f070b9,TCN,2024-06-24_17h32.16.464,LearnStrategy,2023.2.3,Win32,60.24096386,8,2,9,,,,,,,,5,12,,,,,,,,,,,5,2.119,1,,,,,,-0.3671875,-0.403645833,1,0,0,2.1187,Obsidian_rect,8,0,8,0,1,
60f99f9d7acea24790f070b9,TCN,2024-06-24_17h32.16.464,LearnStrategy,2023.2.3,Win32,60.24096386,8,2,10,,,,,,,,8,04,,,,,,,,,,,8,1.732,1,,,,,,0.428385417,-0.420572917,1,0,0,1.7323,Pumice_rect,9,0,9,0,1,
60f99f9d7acea24790f070b9,TCN,2024-06-24_17h32.16.464,LearnStrategy,2023.2.3,Win32,60.24096386,8,2,11,,,,,,,,2,14,,,,,,,,,,,4,2.958,0,,,,,,0.369791667,-0.260416667,1,0,0,2.9584,Gabbro_rect,10,0,10,0,1,
60f99f9d7acea24790f070b9,TCN,2024-06-24_17h32.16.464,LearnStrategy,2023.2.3,Win32,60.24096386,8,2,12,,,,,,,,3,11,,,,,,,,,,,3,1.719,1,,,,,,0.095052083,-0.248697917,1,0,0,1.7195,Diorite_rect,11,0,11,0,1,
60f99f9d7acea24790f070b9,TCN,2024-06-24_17h32.16.464,LearnStrategy,2023.2.3,Win32,60.24096386,8,2,13,,,,,,,,4,05,,,,,,,,,,,1,1.776,0,,,,,,-0.319010417,-0.247395833,1,0,0,1.7761,Andesite_rect,12,0,12,0,1,
60f99f9d7acea24790f070b9,TCN,2024-06-24_17h32.16.464,LearnStrategy,2023.2.3,Win32,60.24096386,8,2,14,,,,,,,,5,09,,,,,,,,,,,5,1.243,1,,,,,,-0.326822917,-0.37890625,1,0,0,1.2433,Obsidian_rect,13,0,13,0,1,
60f99f9d7acea24790f070b9,TCN,2024-06-24_17h32.16.464,LearnStrategy,2023.2.3,Win32,60.24096386,8,2,15,,,,,,,,7,08,,,,,,,,,,,3,1.343,0,,,,,,0.075520833,-0.247395833,1,0,0,1.3428,Diorite_rect,14,0,14,0,1,
60f99f9d7acea24790f070b9,TCN,2024-06-24_17h32.16.464,LearnStrategy,2023.2.3,Win32,60.24096386,8,2,16,,,,,,,,6,10,,,,,,,,,,,6,1.243,1,,,,,,-0.169270833,-0.412760417,1,0,0,1.243,Pegmatite_rect,15,0,15,0,1,
60f99f9d7acea24790f070b9,TCN,2024-06-24_17h32.16.464,LearnStrategy,2023.2.3,Win32,60.24096386,9,1,1,0.032552083,0.0078125,1,0,0,0.981,rock_grid_rect_2,6,09,-1,-1,0.981,-0.114583333,-0.389322917,1,0,0,1.3603,Pegmatite_rect,6,1.36,1,0,0,0,0,1,,,,,,,,,,,,,
60f99f9d7acea24790f070b9,TCN,2024-06-24_17h32.16.464,LearnStrategy,2023.2.3,Win32,60.24096386,9,1,2,0.036458333,-0.01953125,1,0,0,1.3311,rock_grid_rect_2,2,01,-1,-1,1.331,-0.13671875,-0.2578125,1,0,0,1.377,Basalt_rect,2,1.377,1,1,0,1,0,1,,,,,,,,,,,,,
60f99f9d7acea24790f070b9,TCN,2024-06-24_17h32.16.464,LearnStrategy,2023.2.3,Win32,60.24096386,9,1,3,0.0078125,-0.013020833,1,0,0,1.0477,rock_grid_rect_2,8,08,-1,-1,1.048,0.373697917,-0.40234375,1,0,0,2.0933,Pumice_rect,8,2.093,1,2,0,2,0,1,,,,,,,,,,,,,
60f99f9d7acea24790f070b9,TCN,2024-06-24_17h32.16.464,LearnStrategy,2023.2.3,Win32,60.24096386,9,1,4,-0.01953125,0.002604167,1,0,0,1.1139,rock_grid_rect_2,8,13,-1,-1,1.114,0.364583333,-0.411458333,1,0,0,1.7429,Pumice_rect,8,1.743,1,3,0,3,0,1,,,,,,,,,,,,,
60f99f9d7acea24790f070b9,TCN,2024-06-24_17h32.16.464,LearnStrategy,2023.2.3,Win32,60.24096386,9,1,5,0.076822917,0.00390625,1,0,0,1.0312,rock_grid_rect_2,5,16,-1,-1,1.031,-0.345052083,-0.38671875,1,0,0,1.2099,Obsidian_rect,5,1.21,1,4,0,4,0,1,,,,,,,,,,,,,
60f99f9d7acea24790f070b9,TCN,2024-06-24_17h32.16.464,LearnStrategy,2023.2.3,Win32,60.24096386,9,1,6,0.00390625,-0.002604167,1,0,0,1.0309,rock_grid_rect_2,7,05,-1,-1,1.031,0.180989583,-0.243489583,1,0,0,1.5093,Diorite_rect,3,1.509,0,5,0,5,0,1,,,,,,,,,,,,,
60f99f9d7acea24790f070b9,TCN,2024-06-24_17h32.16.464,LearnStrategy,2023.2.3,Win32,60.24096386,9,1,7,0.026041667,0.006510417,1,0,0,1.2313,rock_grid_rect_2,2,08,-1,-1,1.231,-0.141927083,-0.233072917,1,0,0,1.7595,Basalt_rect,2,1.759,1,6,0,6,0,1,,,,,,,,,,,,,
60f99f9d7acea24790f070b9,TCN,2024-06-24_17h32.16.464,LearnStrategy,2023.2.3,Win32,60.24096386,9,1,8,0.075520833,0.001302083,1,0,0,1.2645,rock_grid_rect_2,3,13,-1,-1,1.264,0.1171875,-0.243489583,1,0,0,1.3773,Diorite_rect,3,1.377,1,7,0,7,0,1,,,,,,,,,,,,,
60f99f9d7acea24790f070b9,TCN,2024-06-24_17h32.16.464,LearnStrategy,2023.2.3,Win32,60.24096386,9,1,9,0.08984375,0.006510417,1,0,0,0.9649,rock_grid_rect_2,5,05,-1,-1,0.965,-0.364583333,-0.4140625,1,0,0,1.3108,Obsidian_rect,5,1.311,1,8,0,8,0,1,,,,,,,,,,,,,
60f99f9d7acea24790f070b9,TCN,2024-06-24_17h32.16.464,LearnStrategy,2023.2.3,Win32,60.24096386,9,1,10,0.098958333,-0.009114583,1,0,0,1.1479,rock_grid_rect_2,7,14,-1,-1,1.148,0.131510417,-0.40625,1,0,0,3.5556,Peridotite_rect,7,3.556,1,9,0,9,0,1,,,,,,,,,,,,,
60f99f9d7acea24790f070b9,TCN,2024-06-24_17h32.16.464,LearnStrategy,2023.2.3,Win32,60.24096386,9,1,11,0.141927083,-0.014322917,1,0,0,1.0977,rock_grid_rect_2,1,07,-1,-1,1.098,-0.1015625,-0.38671875,1,0,0,2.292,Pegmatite_rect,6,2.292,0,10,0,10,0,1,,,,,,,,,,,,,
60f99f9d7acea24790f070b9,TCN,2024-06-24_17h32.16.464,LearnStrategy,2023.2.3,Win32,60.24096386,9,1,12,-0.002604167,-0.006510417,1,0,0,1.4643,rock_grid_rect_2,6,16,-1,-1,1.464,-0.12890625,-0.39453125,1,0,0,1.3602,Pegmatite_rect,6,1.36,1,11,0,11,0,1,,,,,,,,,,,,,
60f99f9d7acea24790f070b9,TCN,2024-06-24_17h32.16.464,LearnStrategy,2023.2.3,Win32,60.24096386,9,1,13,0.106770833,-0.002604167,1,0,0,1.3983,rock_grid_rect_2,3,02,-1,-1,1.398,0.127604167,-0.240885417,1,0,0,2.4264,Diorite_rect,3,2.426,1,12,0,12,0,1,,,,,,,,,,,,,
60f99f9d7acea24790f070b9,TCN,2024-06-24_17h32.16.464,LearnStrategy,2023.2.3,Win32,60.24096386,9,1,14,0.080729167,-0.002604167,1,0,0,0.9811,rock_grid_rect_2,4,16,-1,-1,0.981,0.420572917,-0.235677083,1,0,0,1.2257,Gabbro_rect,4,1.226,1,13,0,13,0,1,,,,,,,,,,,,,
60f99f9d7acea24790f070b9,TCN,2024-06-24_17h32.16.464,LearnStrategy,2023.2.3,Win32,60.24096386,9,1,15,0.020833333,-0.005208333,1,0,0,1.0315,rock_grid_rect_2,4,13,-1,-1,1.032,0.372395833,-0.236979167,1,0,0,2.9418,Gabbro_rect,4,2.942,1,14,0,14,0,1,,,,,,,,,,,,,
60f99f9d7acea24790f070b9,TCN,2024-06-24_17h32.16.464,LearnStrategy,2023.2.3,Win32,60.24096386,9,1,16,0.057291667,-0.005208333,1,0,0,1.1479,rock_grid_rect_2,1,10,-1,-1,1.148,-0.346354167,-0.26953125,1,0,0,4.0902,Andesite_rect,1,4.09,1,15,0,15,0,1,,,,,,,,,,,,,
60f99f9d7acea24790f070b9,TCN,2024-06-24_17h32.16.464,LearnStrategy,2023.2.3,Win32,60.24096386,9,2,1,,,,,,,,3,06,,,,,,,,,,,7,4.006,0,,,,,,0.169270833,-0.393229167,1,0,0,4.0057,Peridotite_rect,0,0,0,0,1,
60f99f9d7acea24790f070b9,TCN,2024-06-24_17h32.16.464,LearnStrategy,2023.2.3,Win32,60.24096386,9,2,2,,,,,,,,7,15,,,,,,,,,,,7,1.253,1,,,,,,0.171875,-0.3828125,1,0,0,1.2533,Peridotite_rect,1,0,1,0,1,
60f99f9d7acea24790f070b9,TCN,2024-06-24_17h32.16.464,LearnStrategy,2023.2.3,Win32,60.24096386,9,2,3,,,,,,,,4,11,,,,,,,,,,,2,2.009,0,,,,,,-0.102864583,-0.252604167,1,0,0,2.0086,Basalt_rect,2,0,2,0,1,
60f99f9d7acea24790f070b9,TCN,2024-06-24_17h32.16.464,LearnStrategy,2023.2.3,Win32,60.24096386,9,2,4,,,,,,,,1,05,,,,,,,,,,,3,2.124,0,,,,,,0.114583333,-0.248697917,1,0,0,2.1245,Diorite_rect,3,0,3,0,1,
60f99f9d7acea24790f070b9,TCN,2024-06-24_17h32.16.464,LearnStrategy,2023.2.3,Win32,60.24096386,9,2,5,,,,,,,,8,09,,,,,,,,,,,8,1.376,1,,,,,,0.342447917,-0.390625,1,0,0,1.3756,Pumice_rect,4,0,4,0,1,
60f99f9d7acea24790f070b9,TCN,2024-06-24_17h32.16.464,LearnStrategy,2023.2.3,Win32,60.24096386,9,2,6,,,,,,,,8,15,,,,,,,,,,,8,1.509,1,,,,,,0.337239583,-0.408854167,1,0,0,1.5092,Pumice_rect,5,0,5,0,1,
60f99f9d7acea24790f070b9,TCN,2024-06-24_17h32.16.464,LearnStrategy,2023.2.3,Win32,60.24096386,9,2,7,,,,,,,,6,08,,,,,,,,,,,6,1.26,1,,,,,,-0.108072917,-0.3828125,1,0,0,1.2597,Pegmatite_rect,6,0,6,0,1,
60f99f9d7acea24790f070b9,TCN,2024-06-24_17h32.16.464,LearnStrategy,2023.2.3,Win32,60.24096386,9,2,8,,,,,,,,2,10,,,,,,,,,,,2,1.24,1,,,,,,-0.104166667,-0.252604167,1,0,0,1.2397,Basalt_rect,7,0,7,0,1,
60f99f9d7acea24790f070b9,TCN,2024-06-24_17h32.16.464,LearnStrategy,2023.2.3,Win32,60.24096386,9,2,9,,,,,,,,5,11,,,,,,,,,,,5,1.359,1,,,,,,-0.3515625,-0.390625,1,0,0,1.3594,Obsidian_rect,8,0,8,0,1,
60f99f9d7acea24790f070b9,TCN,2024-06-24_17h32.16.464,LearnStrategy,2023.2.3,Win32,60.24096386,9,2,10,,,,,,,,4,15,,,,,,,,,,,3,1.558,0,,,,,,0.208333333,-0.25,1,0,0,1.5585,Diorite_rect,9,0,9,0,1,
60f99f9d7acea24790f070b9,TCN,2024-06-24_17h32.16.464,LearnStrategy,2023.2.3,Win32,60.24096386,9,2,11,,,,,,,,6,11,,,,,,,,,,,6,1.389,1,,,,,,-0.125,-0.408854167,1,0,0,1.3892,Pegmatite_rect,10,0,10,0,1,
60f99f9d7acea24790f070b9,TCN,2024-06-24_17h32.16.464,LearnStrategy,2023.2.3,Win32,60.24096386,9,2,12,,,,,,,,7,07,,,,,,,,,,,7,1.54,1,,,,,,0.118489583,-0.421875,1,0,0,1.5404,Peridotite_rect,11,0,11,0,1,
60f99f9d7acea24790f070b9,TCN,2024-06-24_17h32.16.464,LearnStrategy,2023.2.3,Win32,60.24096386,9,2,13,,,,,,,,3,10,,,,,,,,,,,1,2.725,0,,,,,,-0.34765625,-0.2578125,1,0,0,2.7246,Andesite_rect,12,0,12,0,1,
60f99f9d7acea24790f070b9,TCN,2024-06-24_17h32.16.464,LearnStrategy,2023.2.3,Win32,60.24096386,9,2,14,,,,,,,,2,05,,,,,,,,,,,2,1.189,1,,,,,,-0.1171875,-0.25,1,0,0,1.1887,Basalt_rect,13,0,13,0,1,
60f99f9d7acea24790f070b9,TCN,2024-06-24_17h32.16.464,LearnStrategy,2023.2.3,Win32,60.24096386,9,2,15,,,,,,,,1,11,,,,,,,,,,,1,2.924,1,,,,,,-0.338541667,-0.260416667,1,0,0,2.9239,Andesite_rect,14,0,14,0,1,
60f99f9d7acea24790f070b9,TCN,2024-06-24_17h32.16.464,LearnStrategy,2023.2.3,Win32,60.24096386,9,2,16,,,,,,,,5,08,,,,,,,,,,,5,1.276,1,,,,,,-0.345052083,-0.393229167,1,0,0,1.2759,Obsidian_rect,15,0,15,0,1,
60f99f9d7acea24790f070b9,TCN,2024-06-24_17h32.16.464,LearnStrategy,2023.2.3,Win32,60.24096386,,,,,,,,,,,,,,,,,,,,,,,,,,,,,,,,,,,,,,,,,,,1
60f99f9d7acea24790f070b9,TCN,2024-06-24_17h32.16.464,LearnStrategy,2023.2.3,Win32,60.24096386,,,,,,,,,,,,,,,,,,,,,,,,,,,,,,,,,,,,,,,,,,,
60f99f9d7acea24790f070b9,TCN,2024-06-24_17h32.16.464,LearnStrategy,2023.2.3,Win32,60.24096386,,,,,,,,,,,3,02,1,1,,,,,,,,,,,,,,,,,,,,,,,,,,,,,
60f99f9d7acea24790f070b9,TCN,2024-06-24_17h32.16.464,LearnStrategy,2023.2.3,Win32,60.24096386,,,,,,,,,,,2,02,1,2,,,,,,,,,,,,,,,,,,,,,,,,,,,,,
60f99f9d7acea24790f070b9,TCN,2024-06-24_17h32.16.464,LearnStrategy,2023.2.3,Win32,60.24096386,,,,,,,,,,,6,07,1,3,,,,,,,,,,,,,,,,,,,,,,,,,,,,,
60f99f9d7acea24790f070b9,TCN,2024-06-24_17h32.16.464,LearnStrategy,2023.2.3,Win32,60.24096386,,,,,,,,,,,2,01,1,4,,,,,,,,,,,,,,,,,,,,,,,,,,,,,
60f99f9d7acea24790f070b9,TCN,2024-06-24_17h32.16.464,LearnStrategy,2023.2.3,Win32,60.24096386,,,,,,,,,,,7,05,1,5,,,,,,,,,,,,,,,,,,,,,,,,,,,,,
60f99f9d7acea24790f070b9,TCN,2024-06-24_17h32.16.464,LearnStrategy,2023.2.3,Win32,60.24096386,,,,,,,,,,,5,16,1,6,,,,,,,,,,,,,,,,,,,,,,,,,,,,,
60f99f9d7acea24790f070b9,TCN,2024-06-24_17h32.16.464,LearnStrategy,2023.2.3,Win32,60.24096386,,,,,,,,,,,3,09,1,7,,,,,,,,,,,,,,,,,,,,,,,,,,,,,
60f99f9d7acea24790f070b9,TCN,2024-06-24_17h32.16.464,LearnStrategy,2023.2.3,Win32,60.24096386,,,,,,,,,,,5,04,1,8,,,,,,,,,,,,,,,,,,,,,,,,,,,,,
60f99f9d7acea24790f070b9,TCN,2024-06-24_17h32.16.464,LearnStrategy,2023.2.3,Win32,60.24096386,,,,,,,,,,,3,13,2,1,,,,,,,,,,,,,,,,,,,,,,,,,,,,,
60f99f9d7acea24790f070b9,TCN,2024-06-24_17h32.16.464,LearnStrategy,2023.2.3,Win32,60.24096386,,,,,,,,,,,4,14,2,2,,,,,,,,,,,,,,,,,,,,,,,,,,,,,
60f99f9d7acea24790f070b9,TCN,2024-06-24_17h32.16.464,LearnStrategy,2023.2.3,Win32,60.24096386,,,,,,,,,,,8,16,2,3,,,,,,,,,,,,,,,,,,,,,,,,,,,,,
60f99f9d7acea24790f070b9,TCN,2024-06-24_17h32.16.464,LearnStrategy,2023.2.3,Win32,60.24096386,,,,,,,,,,,4,16,2,4,,,,,,,,,,,,,,,,,,,,,,,,,,,,,
60f99f9d7acea24790f070b9,TCN,2024-06-24_17h32.16.464,LearnStrategy,2023.2.3,Win32,60.24096386,,,,,,,,,,,5,05,2,5,,,,,,,,,,,,,,,,,,,,,,,,,,,,,
60f99f9d7acea24790f070b9,TCN,2024-06-24_17h32.16.464,LearnStrategy,2023.2.3,Win32,60.24096386,,,,,,,,,,,8,10,2,6,,,,,,,,,,,,,,,,,,,,,,,,,,,,,
60f99f9d7acea24790f070b9,TCN,2024-06-24_17h32.16.464,LearnStrategy,2023.2.3,Win32,60.24096386,,,,,,,,,,,1,06,2,7,,,,,,,,,,,,,,,,,,,,,,,,,,,,,
60f99f9d7acea24790f070b9,TCN,2024-06-24_17h32.16.464,LearnStrategy,2023.2.3,Win32,60.24096386,,,,,,,,,,,2,04,2,8,,,,,,,,,,,,,,,,,,,,,,,,,,,,,
60f99f9d7acea24790f070b9,TCN,2024-06-24_17h32.16.464,LearnStrategy,2023.2.3,Win32,60.24096386,,,,,,,,,,,1,10,3,1,,,,,,,,,,,,,,,,,,,,,,,,,,,,,
60f99f9d7acea24790f070b9,TCN,2024-06-24_17h32.16.464,LearnStrategy,2023.2.3,Win32,60.24096386,,,,,,,,,,,1,04,3,2,,,,,,,,,,,,,,,,,,,,,,,,,,,,,
60f99f9d7acea24790f070b9,TCN,2024-06-24_17h32.16.464,LearnStrategy,2023.2.3,Win32,60.24096386,,,,,,,,,,,5,14,3,3,,,,,,,,,,,,,,,,,,,,,,,,,,,,,
60f99f9d7acea24790f070b9,TCN,2024-06-24_17h32.16.464,LearnStrategy,2023.2.3,Win32,60.24096386,,,,,,,,,,,6,16,3,4,,,,,,,,,,,,,,,,,,,,,,,,,,,,,
60f99f9d7acea24790f070b9,TCN,2024-06-24_17h32.16.464,LearnStrategy,2023.2.3,Win32,60.24096386,,,,,,,,,,,3,07,3,5,,,,,,,,,,,,,,,,,,,,,,,,,,,,,
60f99f9d7acea24790f070b9,TCN,2024-06-24_17h32.16.464,LearnStrategy,2023.2.3,Win32,60.24096386,,,,,,,,,,,7,10,3,6,,,,,,,,,,,,,,,,,,,,,,,,,,,,,
60f99f9d7acea24790f070b9,TCN,2024-06-24_17h32.16.464,LearnStrategy,2023.2.3,Win32,60.24096386,,,,,,,,,,,2,16,3,7,,,,,,,,,,,,,,,,,,,,,,,,,,,,,
60f99f9d7acea24790f070b9,TCN,2024-06-24_17h32.16.464,LearnStrategy,2023.2.3,Win32,60.24096386,,,,,,,,,,,7,14,3,8,,,,,,,,,,,,,,,,,,,,,,,,,,,,,
60f99f9d7acea24790f070b9,TCN,2024-06-24_17h32.16.464,LearnStrategy,2023.2.3,Win32,60.24096386,,,,,,,,,,,3,16,4,1,,,,,,,,,,,,,,,,,,,,,,,,,,,,,
60f99f9d7acea24790f070b9,TCN,2024-06-24_17h32.16.464,LearnStrategy,2023.2.3,Win32,60.24096386,,,,,,,,,,,2,12,4,2,,,,,,,,,,,,,,,,,,,,,,,,,,,,,
60f99f9d7acea24790f070b9,TCN,2024-06-24_17h32.16.464,LearnStrategy,2023.2.3,Win32,60.24096386,,,,,,,,,,,8,08,4,3,,,,,,,,,,,,,,,,,,,,,,,,,,,,,
60f99f9d7acea24790f070b9,TCN,2024-06-24_17h32.16.464,LearnStrategy,2023.2.3,Win32,60.24096386,,,,,,,,,,,7,12,4,4,,,,,,,,,,,,,,,,,,,,,,,,,,,,,
60f99f9d7acea24790f070b9,TCN,2024-06-24_17h32.16.464,LearnStrategy,2023.2.3,Win32,60.24096386,,,,,,,,,,,4,10,4,5,,,,,,,,,,,,,,,,,,,,,,,,,,,,,
60f99f9d7acea24790f070b9,TCN,2024-06-24_17h32.16.464,LearnStrategy,2023.2.3,Win32,60.24096386,,,,,,,,,,,4,13,4,6,,,,,,,,,,,,,,,,,,,,,,,,,,,,,
60f99f9d7acea24790f070b9,TCN,2024-06-24_17h32.16.464,LearnStrategy,2023.2.3,Win32,60.24096386,,,,,,,,,,,6,03,4,7,,,,,,,,,,,,,,,,,,,,,,,,,,,,,
60f99f9d7acea24790f070b9,TCN,2024-06-24_17h32.16.464,LearnStrategy,2023.2.3,Win32,60.24096386,,,,,,,,,,,4,08,4,8,,,,,,,,,,,,,,,,,,,,,,,,,,,,,
60f99f9d7acea24790f070b9,TCN,2024-06-24_17h32.16.464,LearnStrategy,2023.2.3,Win32,60.24096386,,,,,,,,,,,2,08,5,1,,,,,,,,,,,,,,,,,,,,,,,,,,,,,
60f99f9d7acea24790f070b9,TCN,2024-06-24_17h32.16.464,LearnStrategy,2023.2.3,Win32,60.24096386,,,,,,,,,,,6,06,5,2,,,,,,,,,,,,,,,,,,,,,,,,,,,,,
60f99f9d7acea24790f070b9,TCN,2024-06-24_17h32.16.464,LearnStrategy,2023.2.3,Win32,60.24096386,,,,,,,,,,,1,09,5,3,,,,,,,,,,,,,,,,,,,,,,,,,,,,,
60f99f9d7acea24790f070b9,TCN,2024-06-24_17h32.16.464,LearnStrategy,2023.2.3,Win32,60.24096386,,,,,,,,,,,3,14,5,4,,,,,,,,,,,,,,,,,,,,,,,,,,,,,
60f99f9d7acea24790f070b9,TCN,2024-06-24_17h32.16.464,LearnStrategy,2023.2.3,Win32,60.24096386,,,,,,,,,,,1,01,5,5,,,,,,,,,,,,,,,,,,,,,,,,,,,,,
60f99f9d7acea24790f070b9,TCN,2024-06-24_17h32.16.464,LearnStrategy,2023.2.3,Win32,60.24096386,,,,,,,,,,,6,09,5,6,,,,,,,,,,,,,,,,,,,,,,,,,,,,,
60f99f9d7acea24790f070b9,TCN,2024-06-24_17h32.16.464,LearnStrategy,2023.2.3,Win32,60.24096386,,,,,,,,,,,8,13,5,7,,,,,,,,,,,,,,,,,,,,,,,,,,,,,
60f99f9d7acea24790f070b9,TCN,2024-06-24_17h32.16.464,LearnStrategy,2023.2.3,Win32,60.24096386,,,,,,,,,,,5,10,5,8,,,,,,,,,,,,,,,,,,,,,,,,,,,,,
60f99f9d7acea24790f070b9,TCN,2024-06-24_17h32.16.464,LearnStrategy,2023.2.3,Win32,60.24096386,,,,,,,,,,,1,07,6,1,,,,,,,,,,,,,,,,,,,,,,,,,,,,,
60f99f9d7acea24790f070b9,TCN,2024-06-24_17h32.16.464,LearnStrategy,2023.2.3,Win32,60.24096386,,,,,,,,,,,5,02,6,2,,,,,,,,,,,,,,,,,,,,,,,,,,,,,
60f99f9d7acea24790f070b9,TCN,2024-06-24_17h32.16.464,LearnStrategy,2023.2.3,Win32,60.24096386,,,,,,,,,,,7,13,6,3,,,,,,,,,,,,,,,,,,,,,,,,,,,,,
60f99f9d7acea24790f070b9,TCN,2024-06-24_17h32.16.464,LearnStrategy,2023.2.3,Win32,60.24096386,,,,,,,,,,,7,16,6,4,,,,,,,,,,,,,,,,,,,,,,,,,,,,,
60f99f9d7acea24790f070b9,TCN,2024-06-24_17h32.16.464,LearnStrategy,2023.2.3,Win32,60.24096386,,,,,,,,,,,6,13,6,5,,,,,,,,,,,,,,,,,,,,,,,,,,,,,
60f99f9d7acea24790f070b9,TCN,2024-06-24_17h32.16.464,LearnStrategy,2023.2.3,Win32,60.24096386,,,,,,,,,,,8,02,6,6,,,,,,,,,,,,,,,,,,,,,,,,,,,,,
60f99f9d7acea24790f070b9,TCN,2024-06-24_17h32.16.464,LearnStrategy,2023.2.3,Win32,60.24096386,,,,,,,,,,,4,12,6,7,,,,,,,,,,,,,,,,,,,,,,,,,,,,,
60f99f9d7acea24790f070b9,TCN,2024-06-24_17h32.16.464,LearnStrategy,2023.2.3,Win32,60.24096386,,,,,,,,,,,8,14,6,8,,,,,,,,,,,,,,,,,,,,,,,,,,,,,