participant,condition,date,expName,psychopyVersion,OS,frameRate,block,phase,trial,learn_mouse_2.x,learn_mouse_2.y,learn_mouse_2.leftButton,learn_mouse_2.midButton,learn_mouse_2.rightButton,learn_mouse_2.time,learn_mouse_2.clicked_name,cat,token,row,col,t_select,cat_mouse_l.x,cat_mouse_l.y,cat_mouse_l.leftButton,cat_mouse_l.midButton,cat_mouse_l.rightButton,cat_mouse_l.time,cat_mouse_l.clicked_name,resp,t_resp,corr,train_trials.thisRepN,train_trials.thisTrialN,train_trials.thisN,train_trials.thisIndex,train_trials.ran,cat_mouse_t.x,cat_mouse_t.y,cat_mouse_t.leftButton,cat_mouse_t.midButton,cat_mouse_t.rightButton,cat_mouse_t.time,cat_mouse_t.clicked_name,test_trials.thisRepN,test_trials.thisTrialN,test_trials.thisN,test_trials.thisIndex,test_trials.ran,Bonus
60fc66d97941f40870f6e303,TCN,2024-06-24_13h47.10.568,LearnStrategy,2023.2.3,MacIntel,60.60606061,,,,,,,,,,,,,,,,,,,,,,,,,,,,,,,,,,,,,,,,,,,
60fc66d97941f40870f6e303,TCN,2024-06-24_13h47.10.568,LearnStrategy,2023.2.3,MacIntel,60.60606061,1,1,1,0.041131999,0.003115234,1,0,0,1.9572,rock_grid_rect_2,2,16,-1,-1,1.957,0.369405246,-0.408521661,1,0,0,8.0963,Pumice_rect,8,8.096,0,0,0,0,0,1,,,,,,,,,,,,,
60fc66d97941f40870f6e303,TCN,2024-06-24_13h47.10.568,LearnStrategy,2023.2.3,MacIntel,60.60606061,1,1,2,0.02346422,0.00442905,1,0,0,1.378,rock_grid_rect_2,4,10,-1,-1,1.378,-0.143328179,-0.408569743,1,0,0,5.0621,Pegmatite_rect,6,5.062,0,1,0,1,0,1,,,,,,,,,,,,,
60fc66d97941f40870f6e303,TCN,2024-06-24_13h47.10.568,LearnStrategy,2023.2.3,MacIntel,60.60606061,1,1,3,0.065865343,0.010867513,1,0,0,0.9799,rock_grid_rect_2,4,15,-1,-1,0.98,-0.380368585,-0.241193644,1,0,0,5.7662,Andesite_rect,1,5.766,0,2,0,2,0,1,,,,,,,,,,,,,
60fc66d97941f40870f6e303,TCN,2024-06-24_13h47.10.568,LearnStrategy,2023.2.3,MacIntel,60.60606061,1,1,4,0.041713732,-0.003717719,1,0,0,1.2138,rock_grid_rect_2,2,02,-1,-1,1.214,0.098660346,-0.394108548,1,0,0,3.7951,Peridotite_rect,7,3.795,0,3,0,3,0,1,,,,,,,,,,,,,
60fc66d97941f40870f6e303,TCN,2024-06-24_13h47.10.568,LearnStrategy,2023.2.3,MacIntel,60.60606061,1,1,5,0.074221056,0.006306085,1,0,0,1.2301,rock_grid_rect_2,5,11,-1,-1,1.23,-0.393730435,-0.410161472,1,0,0,1.6173,Obsidian_rect,5,1.617,1,4,0,4,0,1,,,,,,,,,,,,,
60fc66d97941f40870f6e303,TCN,2024-06-24_13h47.10.568,LearnStrategy,2023.2.3,MacIntel,60.60606061,1,1,6,0.060364448,-0.002735392,1,0,0,1.0651,rock_grid_rect_2,6,12,-1,-1,1.065,-0.104322713,-0.392270372,1,0,0,3.0981,Pegmatite_rect,6,3.098,1,5,0,5,0,1,,,,,,,,,,,,,
60fc66d97941f40870f6e303,TCN,2024-06-24_13h47.10.568,LearnStrategy,2023.2.3,MacIntel,60.60606061,1,1,7,0.052761298,0.003140903,1,0,0,1.328,rock_grid_rect_2,1,07,-1,-1,1.328,0.107775065,-0.255383436,1,0,0,2.7323,Diorite_rect,3,2.732,0,6,0,6,0,1,,,,,,,,,,,,,
60fc66d97941f40870f6e303,TCN,2024-06-24_13h47.10.568,LearnStrategy,2023.2.3,MacIntel,60.60606061,1,1,8,0.083825819,0.006496243,1,0,0,1.1301,rock_grid_rect_2,1,06,-1,-1,1.13,-0.33797031,-0.228659193,1,0,0,2.0326,Andesite_rect,1,2.033,1,7,0,7,0,1,,,,,,,,,,,,,
60fc66d97941f40870f6e303,TCN,2024-06-24_13h47.10.568,LearnStrategy,2023.2.3,MacIntel,60.60606061,1,1,9,0.052961155,0.014169786,1,0,0,0.9321,rock_grid_rect_2,7,12,-1,-1,0.932,0.109041206,-0.257487996,1,0,0,3.8786,Diorite_rect,3,3.879,0,8,0,8,0,1,,,,,,,,,,,,,
60fc66d97941f40870f6e303,TCN,2024-06-24_13h47.10.568,LearnStrategy,2023.2.3,MacIntel,60.60606061,1,1,10,0.094231703,0.006931559,1,0,0,1.0805,rock_grid_rect_2,6,09,-1,-1,1.08,-0.07466546,-0.401932644,1,0,0,3.5442,Pegmatite_rect,6,3.544,1,9,0,9,0,1,,,,,,,,,,,,,
60fc66d97941f40870f6e303,TCN,2024-06-24_13h47.10.568,LearnStrategy,2023.2.3,MacIntel,60.60606061,1,1,11,0.111437988,0.005152724,1,0,0,0.9814,rock_grid_rect_2,3,10,-1,-1,0.981,0.07367608,-0.413759494,1,0,0,4.5928,Peridotite_rect,7,4.593,0,10,0,10,0,1,,,,,,,,,,,,,
60fc66d97941f40870f6e303,TCN,2024-06-24_13h47.10.568,LearnStrategy,2023.2.3,MacIntel,60.60606061,1,1,12,0.055480008,-0.014215291,1,0,0,1.1636,rock_grid_rect_2,3,09,-1,-1,1.164,0.084704522,-0.39940389,1,0,0,1.9433,Peridotite_rect,7,1.943,0,11,0,11,0,1,,,,,,,,,,,,,
60fc66d97941f40870f6e303,TCN,2024-06-24_13h47.10.568,LearnStrategy,2023.2.3,MacIntel,60.60606061,1,1,13,0.108301053,0.004336717,1,0,0,1.2651,rock_grid_rect_2,8,03,-1,-1,1.265,0.335088908,-0.3829442,1,0,0,2.5257,Pumice_rect,8,2.526,1,12,0,12,0,1,,,,,,,,,,,,,
60fc66d97941f40870f6e303,TCN,2024-06-24_13h47.10.568,LearnStrategy,2023.2.3,MacIntel,60.60606061,1,1,14,0.03727946,0.011132406,1,0,0,0.9465,rock_grid_rect_2,8,09,-1,-1,0.947,0.357666287,-0.410593397,1,0,0,1.6949,Pumice_rect,8,1.695,1,13,0,13,0,1,,,,,,,,,,,,,
60fc66d97941f40870f6e303,TCN,2024-06-24_13h47.10.568,LearnStrategy,2023.2.3,MacIntel,60.60606061,1,1,15,0.089918688,-0.004726698,1,0,0,0.9325,rock_grid_rect_2,5,09,-1,-1,0.933,-0.401631165,-0.404973755,1,0,0,1.4116,Obsidian_rect,5,1.412,1,14,0,14,0,1,,,,,,,,,,,,,
60fc66d97941f40870f6e303,TCN,2024-06-24_13h47.10.568,LearnStrategy,2023.2.3,MacIntel,60.60606061,1,1,16,0.095465088,-0.000902846,1,0,0,0.8662,rock_grid_rect_2,7,06,-1,-1,0.866,-0.07911438,-0.41291626,1,0,0,4.2438,Pegmatite_rect,6,4.244,0,15,0,15,0,1,,,,,,,,,,,,,
60fc66d97941f40870f6e303,TCN,2024-06-24_13h47.10.568,LearnStrategy,2023.2.3,MacIntel,60.60606061,1,2,1,,,,,,,,6,06,,,,,,,,,,,6,2.371,1,,,,,,-0.075018378,-0.395555962,1,0,0,2.3707,Pegmatite_rect,0,0,0,0,1,
60fc66d97941f40870f6e303,TCN,2024-06-24_13h47.10.568,LearnStrategy,2023.2.3,MacIntel,60.60606061,1,2,2,,,,,,,,2,14,,,,,,,,,,,8,2.012,0,,,,,,0.309053006,-0.39374098,1,0,0,2.0119,Pumice_rect,1,0,1,0,1,
60fc66d97941f40870f6e303,TCN,2024-06-24_13h47.10.568,LearnStrategy,2023.2.3,MacIntel,60.60606061,1,2,3,,,,,,,,4,13,,,,,,,,,,,3,1.81,0,,,,,,0.092766045,-0.258456082,1,0,0,1.8103,Diorite_rect,2,0,2,0,1,
60fc66d97941f40870f6e303,TCN,2024-06-24_13h47.10.568,LearnStrategy,2023.2.3,MacIntel,60.60606061,1,2,4,,,,,,,,2,12,,,,,,,,,,,8,1.981,0,,,,,,0.382100559,-0.393407593,1,0,0,1.9811,Pumice_rect,3,0,3,0,1,
60fc66d97941f40870f6e303,TCN,2024-06-24_13h47.10.568,LearnStrategy,2023.2.3,MacIntel,60.60606061,1,2,5,,,,,,,,7,15,,,,,,,,,,,6,2.042,0,,,,,,-0.067153795,-0.411846856,1,0,0,2.0418,Pegmatite_rect,4,0,4,0,1,
60fc66d97941f40870f6e303,TCN,2024-06-24_13h47.10.568,LearnStrategy,2023.2.3,MacIntel,60.60606061,1,2,6,,,,,,,,3,07,,,,,,,,,,,3,4.262,1,,,,,,0.097054376,-0.257578261,1,0,0,4.2615,Diorite_rect,5,0,5,0,1,
60fc66d97941f40870f6e303,TCN,2024-06-24_13h47.10.568,LearnStrategy,2023.2.3,MacIntel,60.60606061,1,2,7,,,,,,,,3,15,,,,,,,,,,,7,1.626,0,,,,,,0.132358263,-0.40604187,1,0,0,1.6263,Peridotite_rect,6,0,6,0,1,
60fc66d97941f40870f6e303,TCN,2024-06-24_13h47.10.568,LearnStrategy,2023.2.3,MacIntel,60.60606061,1,2,8,,,,,,,,8,13,,,,,,,,,,,8,1.392,1,,,,,,0.371407199,-0.406403402,1,0,0,1.392,Pumice_rect,7,0,7,0,1,
60fc66d97941f40870f6e303,TCN,2024-06-24_13h47.10.568,LearnStrategy,2023.2.3,MacIntel,60.60606061,1,2,9,,,,,,,,4,14,,,,,,,,,,,4,1.427,1,,,,,,0.388654514,-0.249635145,1,0,0,1.4275,Gabbro_rect,8,0,8,0,1,
60fc66d97941f40870f6e303,TCN,2024-06-24_13h47.10.568,LearnStrategy,2023.2.3,MacIntel,60.60606061,1,2,10,,,,,,,,1,01,,,,,,,,,,,4,3.533,0,,,,,,0.398672146,-0.258098009,1,0,0,3.533,Gabbro_rect,9,0,9,0,1,
60fc66d97941f40870f6e303,TCN,2024-06-24_13h47.10.568,LearnStrategy,2023.2.3,MacIntel,60.60606061,1,2,11,,,,,,,,7,14,,,,,,,,,,,6,2.213,0,,,,,,-0.053390842,-0.393013238,1,0,0,2.2126,Pegmatite_rect,10,0,10,0,1,
60fc66d97941f40870f6e303,TCN,2024-06-24_13h47.10.568,LearnStrategy,2023.2.3,MacIntel,60.60606061,1,2,12,,,,,,,,5,04,,,,,,,,,,,5,1.129,1,,,,,,-0.376033088,-0.408098348,1,0,0,1.1292,Obsidian_rect,11,0,11,0,1,
60fc66d97941f40870f6e303,TCN,2024-06-24_13h47.10.568,LearnStrategy,2023.2.3,MacIntel,60.60606061,1,2,13,,,,,,,,8,06,,,,,,,,,,,8,2.181,1,,,,,,0.39696601,-0.407747803,1,0,0,2.1805,Pumice_rect,12,0,12,0,1,
60fc66d97941f40870f6e303,TCN,2024-06-24_13h47.10.568,LearnStrategy,2023.2.3,MacIntel,60.60606061,1,2,14,,,,,,,,1,14,,,,,,,,,,,3,3.836,0,,,,,,0.173935276,-0.241062826,1,0,0,3.8358,Diorite_rect,13,0,13,0,1,
60fc66d97941f40870f6e303,TCN,2024-06-24_13h47.10.568,LearnStrategy,2023.2.3,MacIntel,60.60606061,1,2,15,,,,,,,,5,14,,,,,,,,,,,5,1.278,1,,,,,,-0.377854004,-0.409318169,1,0,0,1.2784,Obsidian_rect,14,0,14,0,1,
60fc66d97941f40870f6e303,TCN,2024-06-24_13h47.10.568,LearnStrategy,2023.2.3,MacIntel,60.60606061,1,2,16,,,,,,,,6,03,,,,,,,,,,,6,1.661,1,,,,,,-0.11271247,-0.403819173,1,0,0,1.6612,Pegmatite_rect,15,0,15,0,1,
60fc66d97941f40870f6e303,TCN,2024-06-24_13h47.10.568,LearnStrategy,2023.2.3,MacIntel,60.60606061,2,1,1,0.109686686,-0.000696479,1,0,0,1.2318,rock_grid_rect_2,4,12,-1,-1,1.232,-0.10234809,-0.233938124,1,0,0,1.785,Basalt_rect,2,1.785,0,0,0,0,0,1,,,,,,,,,,,,,
60fc66d97941f40870f6e303,TCN,2024-06-24_13h47.10.568,LearnStrategy,2023.2.3,MacIntel,60.60606061,2,1,2,0.087688124,0.007273627,1,0,0,1.1312,rock_grid_rect_2,3,12,-1,-1,1.131,0.113935276,-0.41433492,1,0,0,3.6614,Peridotite_rect,7,3.661,0,1,0,1,0,1,,,,,,,,,,,,,
60fc66d97941f40870f6e303,TCN,2024-06-24_13h47.10.568,LearnStrategy,2023.2.3,MacIntel,60.60606061,2,1,3,0.126023763,0.005147434,1,0,0,0.9972,rock_grid_rect_2,5,05,-1,-1,0.997,-0.371094293,-0.404000515,1,0,0,2.9448,Obsidian_rect,5,2.945,1,2,0,2,0,1,,,,,,,,,,,,,
60fc66d97941f40870f6e303,TCN,2024-06-24_13h47.10.568,LearnStrategy,2023.2.3,MacIntel,60.60606061,2,1,4,0.065600586,-0.003462389,1,0,0,1.3452,rock_grid_rect_2,5,08,-1,-1,1.345,-0.382085232,-0.411701525,1,0,0,1.3125,Obsidian_rect,5,1.313,1,3,0,3,0,1,,,,,,,,,,,,,
60fc66d97941f40870f6e303,TCN,2024-06-24_13h47.10.568,LearnStrategy,2023.2.3,MacIntel,60.60606061,2,1,5,0.054122586,-0.004152493,1,0,0,1.0157,rock_grid_rect_2,1,16,-1,-1,1.016,0.091308119,-0.246596748,1,0,0,1.7455,Diorite_rect,3,1.745,0,4,0,4,0,1,,,,,,,,,,,,,
60fc66d97941f40870f6e303,TCN,2024-06-24_13h47.10.568,LearnStrategy,2023.2.3,MacIntel,60.60606061,2,1,6,0.127361654,-0.003163418,1,0,0,0.9979,rock_grid_rect_2,4,09,-1,-1,0.998,-0.113533732,-0.408802219,1,0,0,4.714,Pegmatite_rect,6,4.714,0,5,0,5,0,1,,,,,,,,,,,,,
60fc66d97941f40870f6e303,TCN,2024-06-24_13h47.10.568,LearnStrategy,2023.2.3,MacIntel,60.60606061,2,1,7,0.096702881,0.004407077,1,0,0,0.9139,rock_grid_rect_2,1,02,-1,-1,0.914,0.107632175,-0.248627658,1,0,0,2.3989,Diorite_rect,3,2.399,0,6,0,6,0,1,,,,,,,,,,,,,
60fc66d97941f40870f6e303,TCN,2024-06-24_13h47.10.568,LearnStrategy,2023.2.3,MacIntel,60.60606061,2,1,8,0.117539469,-0.005501099,1,0,0,0.9456,rock_grid_rect_2,8,14,-1,-1,0.946,0.323840332,-0.397691515,1,0,0,1.3787,Pumice_rect,8,1.379,1,7,0,7,0,1,,,,,,,,,,,,,
60fc66d97941f40870f6e303,TCN,2024-06-24_13h47.10.568,LearnStrategy,2023.2.3,MacIntel,60.60606061,2,1,9,0.102480537,-0.00641276,1,0,0,1.0307,rock_grid_rect_2,7,13,-1,-1,1.031,-0.081032104,-0.396060655,1,0,0,2.2819,Pegmatite_rect,6,2.282,0,8,0,8,0,1,,,,,,,,,,,,,
60fc66d97941f40870f6e303,TCN,2024-06-24_13h47.10.568,LearnStrategy,2023.2.3,MacIntel,60.60606061,2,1,10,0.132260742,0.007325507,1,0,0,0.9311,rock_grid_rect_2,3,13,-1,-1,0.931,0.093298272,-0.246361016,1,0,0,8.3287,Diorite_rect,3,8.329,1,9,0,9,0,1,,,,,,,,,,,,,
60fc66d97941f40870f6e303,TCN,2024-06-24_13h47.10.568,LearnStrategy,2023.2.3,MacIntel,60.60606061,2,1,11,0.117923855,-0.002888658,1,0,0,1.4974,rock_grid_rect_2,2,06,-1,-1,1.497,-0.113616672,-0.259822456,1,0,0,2.1795,Basalt_rect,2,2.18,1,10,0,10,0,1,,,,,,,,,,,,,
60fc66d97941f40870f6e303,TCN,2024-06-24_13h47.10.568,LearnStrategy,2023.2.3,MacIntel,60.60606061,2,1,12,0.030009291,-0.002813212,1,0,0,0.9154,rock_grid_rect_2,2,08,-1,-1,0.915,-0.089601101,-0.229428575,1,0,0,1.0457,Basalt_rect,2,1.046,1,11,0,11,0,1,,,,,,,,,,,,,
60fc66d97941f40870f6e303,TCN,2024-06-24_13h47.10.568,LearnStrategy,2023.2.3,MacIntel,60.60606061,2,1,13,0.084718967,0.011386447,1,0,0,7.3311,rock_grid_rect_2,7,08,-1,-1,7.331,-0.087655911,-0.404431966,1,0,0,2.3969,Pegmatite_rect,6,2.397,0,12,0,12,0,1,,,,,,,,,,,,,
60fc66d97941f40870f6e303,TCN,2024-06-24_13h47.10.568,LearnStrategy,2023.2.3,MacIntel,60.60606061,2,1,14,0.076339857,-0.020548164,1,0,0,1.0969,rock_grid_rect_2,6,13,-1,-1,1.097,0.063174032,-0.403287964,1,0,0,2.6372,Peridotite_rect,7,2.637,0,13,0,13,0,1,,,,,,,,,,,,,
60fc66d97941f40870f6e303,TCN,2024-06-24_13h47.10.568,LearnStrategy,2023.2.3,MacIntel,60.60606061,2,1,15,0.082042711,0.021655172,1,0,0,1.7633,rock_grid_rect_2,8,05,-1,-1,1.763,0.359281277,-0.393743015,1,0,0,1.1649,Pumice_rect,8,1.165,1,14,0,14,0,1,,,,,,,,,,,,,
60fc66d97941f40870f6e303,TCN,2024-06-24_13h47.10.568,LearnStrategy,2023.2.3,MacIntel,60.60606061,2,1,16,0.067520616,0.007545505,1,0,0,1.0477,rock_grid_rect_2,6,11,-1,-1,1.048,0.079718085,-0.421109348,1,0,0,3.1201,Peridotite_rect,7,3.12,0,15,0,15,0,1,,,,,,,,,,,,,
60fc66d97941f40870f6e303,TCN,2024-06-24_13h47.10.568,LearnStrategy,2023.2.3,MacIntel,60.60606061,2,2,1,,,,,,,,4,05,,,,,,,,,,,1,2.963,0,,,,,,-0.323394775,-0.230245361,1,0,0,2.9632,Andesite_rect,0,0,0,0,1,
60fc66d97941f40870f6e303,TCN,2024-06-24_13h47.10.568,LearnStrategy,2023.2.3,MacIntel,60.60606061,2,2,2,,,,,,,,2,04,,,,,,,,,,,2,1.712,1,,,,,,-0.071118028,-0.229817437,1,0,0,1.7117,Basalt_rect,1,0,1,0,1,
60fc66d97941f40870f6e303,TCN,2024-06-24_13h47.10.568,LearnStrategy,2023.2.3,MacIntel,60.60606061,2,2,3,,,,,,,,8,15,,,,,,,,,,,8,1.21,1,,,,,,0.34236735,-0.388027615,1,0,0,1.2096,Pumice_rect,2,0,2,0,1,
60fc66d97941f40870f6e303,TCN,2024-06-24_13h47.10.568,LearnStrategy,2023.2.3,MacIntel,60.60606061,2,2,4,,,,,,,,5,06,,,,,,,,,,,5,1.296,1,,,,,,-0.382752889,-0.405260959,1,0,0,1.2957,Obsidian_rect,3,0,3,0,1,
60fc66d97941f40870f6e303,TCN,2024-06-24_13h47.10.568,LearnStrategy,2023.2.3,MacIntel,60.60606061,2,2,5,,,,,,,,7,04,,,,,,,,,,,6,3.234,0,,,,,,-0.10415446,-0.401990831,1,0,0,3.2341,Pegmatite_rect,4,0,4,0,1,
60fc66d97941f40870f6e303,TCN,2024-06-24_13h47.10.568,LearnStrategy,2023.2.3,MacIntel,60.60606061,2,2,6,,,,,,,,2,01,,,,,,,,,,,2,2.164,1,,,,,,-0.137111003,-0.250380656,1,0,0,2.1641,Basalt_rect,5,0,5,0,1,
60fc66d97941f40870f6e303,TCN,2024-06-24_13h47.10.568,LearnStrategy,2023.2.3,MacIntel,60.60606061,2,2,7,,,,,,,,4,01,,,,,,,,,,,1,2.612,0,,,,,,-0.335116306,-0.244594794,1,0,0,2.6118,Andesite_rect,6,0,6,0,1,
60fc66d97941f40870f6e303,TCN,2024-06-24_13h47.10.568,LearnStrategy,2023.2.3,MacIntel,60.60606061,2,2,8,,,,,,,,5,12,,,,,,,,,,,5,1.373,1,,,,,,-0.366331448,-0.411364882,1,0,0,1.3727,Obsidian_rect,7,0,7,0,1,
60fc66d97941f40870f6e303,TCN,2024-06-24_13h47.10.568,LearnStrategy,2023.2.3,MacIntel,60.60606061,2,2,9,,,,,,,,1,04,,,,,,,,,,,1,2.596,1,,,,,,-0.384614902,-0.253358222,1,0,0,2.596,Andesite_rect,8,0,8,0,1,
60fc66d97941f40870f6e303,TCN,2024-06-24_13h47.10.568,LearnStrategy,2023.2.3,MacIntel,60.60606061,2,2,10,,,,,,,,7,07,,,,,,,,,,,6,1.665,0,,,,,,-0.077937147,-0.399780138,1,0,0,1.665,Pegmatite_rect,9,0,9,0,1,
60fc66d97941f40870f6e303,TCN,2024-06-24_13h47.10.568,LearnStrategy,2023.2.3,MacIntel,60.60606061,2,2,11,,,,,,,,3,02,,,,,,,,,,,7,2.478,0,,,,,,0.072717421,-0.395469157,1,0,0,2.4777,Peridotite_rect,10,0,10,0,1,
60fc66d97941f40870f6e303,TCN,2024-06-24_13h47.10.568,LearnStrategy,2023.2.3,MacIntel,60.60606061,2,2,12,,,,,,,,3,16,,,,,,,,,,,7,3.187,0,,,,,,0.082052341,-0.401461317,1,0,0,3.1872,Peridotite_rect,11,0,11,0,1,
60fc66d97941f40870f6e303,TCN,2024-06-24_13h47.10.568,LearnStrategy,2023.2.3,MacIntel,60.60606061,2,2,13,,,,,,,,1,10,,,,,,,,,,,6,2.832,0,,,,,,-0.115939535,-0.408024495,1,0,0,2.8323,Pegmatite_rect,12,0,12,0,1,
60fc66d97941f40870f6e303,TCN,2024-06-24_13h47.10.568,LearnStrategy,2023.2.3,MacIntel,60.60606061,2,2,14,,,,,,,,8,02,,,,,,,,,,,8,1.344,1,,,,,,0.346719699,-0.403328044,1,0,0,1.3444,Pumice_rect,13,0,13,0,1,
60fc66d97941f40870f6e303,TCN,2024-06-24_13h47.10.568,LearnStrategy,2023.2.3,MacIntel,60.60606061,2,2,15,,,,,,,,6,05,,,,,,,,,,,6,1.561,1,,,,,,-0.101022881,-0.401607869,1,0,0,1.561,Pegmatite_rect,14,0,14,0,1,
60fc66d97941f40870f6e303,TCN,2024-06-24_13h47.10.568,LearnStrategy,2023.2.3,MacIntel,60.60606061,2,2,16,,,,,,,,6,10,,,,,,,,,,,6,1.878,1,,,,,,-0.067871162,-0.402969971,1,0,0,1.8777,Pegmatite_rect,15,0,15,0,1,
60fc66d97941f40870f6e303,TCN,2024-06-24_13h47.10.568,LearnStrategy,2023.2.3,MacIntel,60.60606061,3,1,1,0.038701647,-0.001101752,1,0,0,0.748,rock_grid_rect_2,4,08,-1,-1,0.748,-0.351911146,-0.245421549,1,0,0,2.4949,Andesite_rect,1,2.495,0,0,0,0,0,1,,,,,,,,,,,,,
60fc66d97941f40870f6e303,TCN,2024-06-24_13h47.10.568,LearnStrategy,2023.2.3,MacIntel,60.60606061,3,1,2,0.03994005,-0.017743123,1,0,0,1.0219,rock_grid_rect_2,1,09,-1,-1,1.022,-0.41038954,-0.269397447,1,0,0,1.7097,Andesite_rect,1,1.71,1,1,0,1,0,1,,,,,,,,,,,,,
60fc66d97941f40870f6e303,TCN,2024-06-24_13h47.10.568,LearnStrategy,2023.2.3,MacIntel,60.60606061,3,1,3,0.059454617,0.015001695,1,0,0,0.914,rock_grid_rect_2,3,06,-1,-1,0.914,0.191556057,-0.260914035,1,0,0,2.7501,Diorite_rect,3,2.75,1,2,0,2,0,1,,,,,,,,,,,,,
60fc66d97941f40870f6e303,TCN,2024-06-24_13h47.10.568,LearnStrategy,2023.2.3,MacIntel,60.60606061,3,1,4,0.082899984,-0.013991767,1,0,0,0.9957,rock_grid_rect_2,2,11,-1,-1,0.996,-0.099098579,-0.255301446,1,0,0,2.3786,Basalt_rect,2,2.379,1,3,0,3,0,1,,,,,,,,,,,,,
60fc66d97941f40870f6e303,TCN,2024-06-24_13h47.10.568,LearnStrategy,2023.2.3,MacIntel,60.60606061,3,1,5,0.08146464,0.004120416,1,0,0,0.8136,rock_grid_rect_2,2,09,-1,-1,0.814,-0.081591797,-0.249056532,1,0,0,1.2112,Basalt_rect,2,1.211,1,4,0,4,0,1,,,,,,,,,,,,,
60fc66d97941f40870f6e303,TCN,2024-06-24_13h47.10.568,LearnStrategy,2023.2.3,MacIntel,60.60606061,3,1,6,0.080429552,0.012469279,1,0,0,0.9834,rock_grid_rect_2,5,16,-1,-1,0.983,-0.369853651,-0.404736532,1,0,0,1.1962,Obsidian_rect,5,1.196,1,5,0,5,0,1,,,,,,,,,,,,,
60fc66d97941f40870f6e303,TCN,2024-06-24_13h47.10.568,LearnStrategy,2023.2.3,MacIntel,60.60606061,3,1,7,0.061857029,-0.010071818,1,0,0,1.0319,rock_grid_rect_2,7,05,-1,-1,1.032,-0.126412557,-0.407317912,1,0,0,2.1777,Pegmatite_rect,6,2.178,0,6,0,6,0,1,,,,,,,,,,,,,
60fc66d97941f40870f6e303,TCN,2024-06-24_13h47.10.568,LearnStrategy,2023.2.3,MacIntel,60.60606061,3,1,8,0.073414781,0.004815233,1,0,0,0.9462,rock_grid_rect_2,5,02,-1,-1,0.946,-0.337543437,-0.406518826,1,0,0,1.426,Obsidian_rect,5,1.426,1,7,0,7,0,1,,,,,,,,,,,,,
60fc66d97941f40870f6e303,TCN,2024-06-24_13h47.10.568,LearnStrategy,2023.2.3,MacIntel,60.60606061,3,1,9,0.051716037,-0.001227553,1,0,0,0.8808,rock_grid_rect_2,1,05,-1,-1,0.881,0.134898614,-0.411792128,1,0,0,4.2182,Peridotite_rect,7,4.218,0,8,0,8,0,1,,,,,,,,,,,,,
60fc66d97941f40870f6e303,TCN,2024-06-24_13h47.10.568,LearnStrategy,2023.2.3,MacIntel,60.60606061,3,1,10,0.084198744,0.012147217,1,0,0,0.8971,rock_grid_rect_2,3,08,-1,-1,0.897,0.085802477,-0.382684191,1,0,0,1.7167,Peridotite_rect,7,1.717,0,9,0,9,0,1,,,,,,,,,,,,,
60fc66d97941f40870f6e303,TCN,2024-06-24_13h47.10.568,LearnStrategy,2023.2.3,MacIntel,60.60606061,3,1,11,0.096146444,0.01168535,1,0,0,1.2988,rock_grid_rect_2,6,15,-1,-1,1.299,-0.102447238,-0.40034139,1,0,0,1.6125,Pegmatite_rect,6,1.613,1,10,0,10,0,1,,,,,,,,,,,,,
60fc66d97941f40870f6e303,TCN,2024-06-24_13h47.10.568,LearnStrategy,2023.2.3,MacIntel,60.60606061,3,1,12,0.045706651,-0.002425503,1,0,0,0.931,rock_grid_rect_2,8,04,-1,-1,0.931,0.319398261,-0.410368856,1,0,0,1.512,Pumice_rect,8,1.512,1,11,0,11,0,1,,,,,,,,,,,,,
60fc66d97941f40870f6e303,TCN,2024-06-24_13h47.10.568,LearnStrategy,2023.2.3,MacIntel,60.60606061,3,1,13,0.048832058,-0.001952989,1,0,0,1.0985,rock_grid_rect_2,6,07,-1,-1,1.098,-0.105118679,-0.408898519,1,0,0,1.4785,Pegmatite_rect,6,1.478,1,12,0,12,0,1,,,,,,,,,,,,,
60fc66d97941f40870f6e303,TCN,2024-06-24_13h47.10.568,LearnStrategy,2023.2.3,MacIntel,60.60606061,3,1,14,0.022119751,-0.009052531,1,0,0,0.7328,rock_grid_rect_2,4,11,-1,-1,0.733,-0.386404961,-0.237421739,1,0,0,2.2112,Andesite_rect,1,2.211,0,13,0,13,0,1,,,,,,,,,,,,,
60fc66d97941f40870f6e303,TCN,2024-06-24_13h47.10.568,LearnStrategy,2023.2.3,MacIntel,60.60606061,3,1,15,0.045205349,-0.020146383,1,0,0,0.8997,rock_grid_rect_2,7,16,-1,-1,0.9,-0.078879937,-0.407539673,1,0,0,3.3598,Pegmatite_rect,6,3.36,0,14,0,14,0,1,,,,,,,,,,,,,
60fc66d97941f40870f6e303,TCN,2024-06-24_13h47.10.568,LearnStrategy,2023.2.3,MacIntel,60.60606061,3,1,16,0.052388984,0.014370456,1,0,0,1.0294,rock_grid_rect_2,8,08,-1,-1,1.029,0.354515516,-0.39447876,1,0,0,1.3136,Pumice_rect,8,1.314,1,15,0,15,0,1,,,,,,,,,,,,,
60fc66d97941f40870f6e303,TCN,2024-06-24_13h47.10.568,LearnStrategy,2023.2.3,MacIntel,60.60606061,3,2,1,,,,,,,,2,10,,,,,,,,,,,2,5.126,1,,,,,,-0.101196018,-0.240750054,1,0,0,5.126,Basalt_rect,0,0,0,0,1,
60fc66d97941f40870f6e303,TCN,2024-06-24_13h47.10.568,LearnStrategy,2023.2.3,MacIntel,60.60606061,3,2,2,,,,,,,,8,16,,,,,,,,,,,8,1.511,1,,,,,,0.397371148,-0.406937459,1,0,0,1.5105,Pumice_rect,1,0,1,0,1,
60fc66d97941f40870f6e303,TCN,2024-06-24_13h47.10.568,LearnStrategy,2023.2.3,MacIntel,60.60606061,3,2,3,,,,,,,,4,16,,,,,,,,,,,4,2.593,1,,,,,,0.385639377,-0.251912706,1,0,0,2.5933,Gabbro_rect,2,0,2,0,1,
60fc66d97941f40870f6e303,TCN,2024-06-24_13h47.10.568,LearnStrategy,2023.2.3,MacIntel,60.60606061,3,2,4,,,,,,,,1,11,,,,,,,,,,,7,6.014,0,,,,,,0.096038276,-0.394593438,1,0,0,6.0137,Peridotite_rect,3,0,3,0,1,
60fc66d97941f40870f6e303,TCN,2024-06-24_13h47.10.568,LearnStrategy,2023.2.3,MacIntel,60.60606061,3,2,5,,,,,,,,6,08,,,,,,,,,,,6,1.278,1,,,,,,-0.100127496,-0.40936815,1,0,0,1.2779,Pegmatite_rect,4,0,4,0,1,
60fc66d97941f40870f6e303,TCN,2024-06-24_13h47.10.568,LearnStrategy,2023.2.3,MacIntel,60.60606061,3,2,6,,,,,,,,7,10,,,,,,,,,,,7,3.311,1,,,,,,0.109172702,-0.391756727,1,0,0,3.3105,Peridotite_rect,5,0,5,0,1,
60fc66d97941f40870f6e303,TCN,2024-06-24_13h47.10.568,LearnStrategy,2023.2.3,MacIntel,60.60606061,3,2,7,,,,,,,,2,05,,,,,,,,,,,2,1.011,1,,,,,,-0.162203369,-0.253225708,1,0,0,1.0106,Basalt_rect,6,0,6,0,1,
60fc66d97941f40870f6e303,TCN,2024-06-24_13h47.10.568,LearnStrategy,2023.2.3,MacIntel,60.60606061,3,2,8,,,,,,,,8,10,,,,,,,,,,,8,1.779,1,,,,,,0.382993978,-0.408408678,1,0,0,1.7788,Pumice_rect,7,0,7,0,1,
60fc66d97941f40870f6e303,TCN,2024-06-24_13h47.10.568,LearnStrategy,2023.2.3,MacIntel,60.60606061,3,2,9,,,,,,,,5,07,,,,,,,,,,,5,1.346,1,,,,,,-0.38257114,-0.396856011,1,0,0,1.3455,Obsidian_rect,8,0,8,0,1,
60fc66d97941f40870f6e303,TCN,2024-06-24_13h47.10.568,LearnStrategy,2023.2.3,MacIntel,60.60606061,3,2,10,,,,,,,,7,02,,,,,,,,,,,7,2.302,1,,,,,,0.075667453,-0.40326572,1,0,0,2.3015,Peridotite_rect,9,0,9,0,1,
60fc66d97941f40870f6e303,TCN,2024-06-24_13h47.10.568,LearnStrategy,2023.2.3,MacIntel,60.60606061,3,2,11,,,,,,,,1,03,,,,,,,,,,,1,1.532,1,,,,,,-0.342490777,-0.249410333,1,0,0,1.5318,Andesite_rect,10,0,10,0,1,
60fc66d97941f40870f6e303,TCN,2024-06-24_13h47.10.568,LearnStrategy,2023.2.3,MacIntel,60.60606061,3,2,12,,,,,,,,4,03,,,,,,,,,,,7,2.792,0,,,,,,0.114180298,-0.405739882,1,0,0,2.7921,Peridotite_rect,11,0,11,0,1,
60fc66d97941f40870f6e303,TCN,2024-06-24_13h47.10.568,LearnStrategy,2023.2.3,MacIntel,60.60606061,3,2,13,,,,,,,,5,10,,,,,,,,,,,5,1.112,1,,,,,,-0.421696574,-0.417726034,1,0,0,1.1117,Obsidian_rect,12,0,12,0,1,
60fc66d97941f40870f6e303,TCN,2024-06-24_13h47.10.568,LearnStrategy,2023.2.3,MacIntel,60.60606061,3,2,14,,,,,,,,3,14,,,,,,,,,,,3,2.575,1,,,,,,0.144407484,-0.237931722,1,0,0,2.5754,Diorite_rect,13,0,13,0,1,
60fc66d97941f40870f6e303,TCN,2024-06-24_13h47.10.568,LearnStrategy,2023.2.3,MacIntel,60.60606061,3,2,15,,,,,,,,3,11,,,,,,,,,,,3,2.26,1,,,,,,0.091557075,-0.254805433,1,0,0,2.26,Diorite_rect,14,0,14,0,1,
60fc66d97941f40870f6e303,TCN,2024-06-24_13h47.10.568,LearnStrategy,2023.2.3,MacIntel,60.60606061,3,2,16,,,,,,,,6,16,,,,,,,,,,,6,3.038,1,,,,,,-0.075208333,-0.397655775,1,0,0,3.0375,Pegmatite_rect,15,0,15,0,1,
60fc66d97941f40870f6e303,TCN,2024-06-24_13h47.10.568,LearnStrategy,2023.2.3,MacIntel,60.60606061,4,1,1,0.136554972,-0.003916456,1,0,0,0.9809,rock_grid_rect_2,2,11,-1,-1,0.981,-0.109340413,-0.240033569,1,0,0,2.2116,Basalt_rect,2,2.212,1,0,0,0,0,1,,,,,,,,,,,,,
60fc66d97941f40870f6e303,TCN,2024-06-24_13h47.10.568,LearnStrategy,2023.2.3,MacIntel,60.60606061,4,1,2,0.068049384,-0.001126845,1,0,0,1.5133,rock_grid_rect_2,8,08,-1,-1,1.513,0.358962945,-0.405065308,1,0,0,1.6615,Pumice_rect,8,1.661,1,1,0,1,0,1,,,,,,,,,,,,,
60fc66d97941f40870f6e303,TCN,2024-06-24_13h47.10.568,LearnStrategy,2023.2.3,MacIntel,60.60606061,4,1,3,0.066032579,-0.000721063,1,0,0,1.0641,rock_grid_rect_2,6,09,-1,-1,1.064,-0.091935289,-0.402797987,1,0,0,1.8115,Pegmatite_rect,6,1.812,1,2,0,2,0,1,,,,,,,,,,,,,
60fc66d97941f40870f6e303,TCN,2024-06-24_13h47.10.568,LearnStrategy,2023.2.3,MacIntel,60.60606061,4,1,4,0.030272963,-0.014317559,1,0,0,0.6985,rock_grid_rect_2,8,03,-1,-1,0.698,0.365099148,-0.395595296,1,0,0,1.4598,Pumice_rect,8,1.46,1,3,0,3,0,1,,,,,,,,,,,,,
60fc66d97941f40870f6e303,TCN,2024-06-24_13h47.10.568,LearnStrategy,2023.2.3,MacIntel,60.60606061,4,1,5,0.076059163,-0.00360182,1,0,0,1.0148,rock_grid_rect_2,6,13,-1,-1,1.015,-0.067261963,-0.410701294,1,0,0,2.1612,Pegmatite_rect,6,2.161,1,4,0,4,0,1,,,,,,,,,,,,,
60fc66d97941f40870f6e303,TCN,2024-06-24_13h47.10.568,LearnStrategy,2023.2.3,MacIntel,60.60606061,4,1,6,0.096932102,0.007831624,1,0,0,0.816,rock_grid_rect_2,4,15,-1,-1,0.816,0.09606113,-0.242349108,1,0,0,2.1275,Diorite_rect,3,2.128,0,5,0,5,0,1,,,,,,,,,,,,,
60fc66d97941f40870f6e303,TCN,2024-06-24_13h47.10.568,LearnStrategy,2023.2.3,MacIntel,60.60606061,4,1,7,0.055700616,-0.014381375,1,0,0,0.9155,rock_grid_rect_2,7,08,-1,-1,0.915,0.108105876,-0.405737169,1,0,0,2.2481,Peridotite_rect,7,2.248,1,6,0,6,0,1,,,,,,,,,,,,,
60fc66d97941f40870f6e303,TCN,2024-06-24_13h47.10.568,LearnStrategy,2023.2.3,MacIntel,60.60606061,4,1,8,0.076128811,0.000838996,1,0,0,0.9986,rock_grid_rect_2,3,10,-1,-1,0.999,-0.371229248,-0.246097819,1,0,0,2.081,Andesite_rect,1,2.081,0,7,0,7,0,1,,,,,,,,,,,,,
60fc66d97941f40870f6e303,TCN,2024-06-24_13h47.10.568,LearnStrategy,2023.2.3,MacIntel,60.60606061,4,1,9,0.01159417,0.000610012,1,0,0,0.9824,rock_grid_rect_2,5,02,-1,-1,0.982,-0.363263109,-0.404359131,1,0,0,1.3675,Obsidian_rect,5,1.367,1,8,0,8,0,1,,,,,,,,,,,,,
60fc66d97941f40870f6e303,TCN,2024-06-24_13h47.10.568,LearnStrategy,2023.2.3,MacIntel,60.60606061,4,1,10,0.100150553,-0.016243761,1,0,0,0.8811,rock_grid_rect_2,1,02,-1,-1,0.881,0.109496867,-0.396240506,1,0,0,3.164,Peridotite_rect,7,3.164,0,9,0,9,0,1,,,,,,,,,,,,,
60fc66d97941f40870f6e303,TCN,2024-06-24_13h47.10.568,LearnStrategy,2023.2.3,MacIntel,60.60606061,4,1,11,0.082830607,-0.012200792,1,0,0,0.7462,rock_grid_rect_2,4,08,-1,-1,0.746,-0.337577922,-0.238137614,1,0,0,2.4966,Andesite_rect,1,2.497,0,10,0,10,0,1,,,,,,,,,,,,,
60fc66d97941f40870f6e303,TCN,2024-06-24_13h47.10.568,LearnStrategy,2023.2.3,MacIntel,60.60606061,4,1,12,0.046249864,-0.010583496,1,0,0,0.9802,rock_grid_rect_2,3,06,-1,-1,0.98,0.077396647,-0.270054186,1,0,0,3.6119,Diorite_rect,3,3.612,1,11,0,11,0,1,,,,,,,,,,,,,
60fc66d97941f40870f6e303,TCN,2024-06-24_13h47.10.568,LearnStrategy,2023.2.3,MacIntel,60.60606061,4,1,13,0.022653605,0.00219774,1,0,0,1.1136,rock_grid_rect_2,7,06,-1,-1,1.114,-0.096441786,-0.391603936,1,0,0,1.5942,Pegmatite_rect,6,1.594,0,12,0,12,0,1,,,,,,,,,,,,,
60fc66d97941f40870f6e303,TCN,2024-06-24_13h47.10.568,LearnStrategy,2023.2.3,MacIntel,60.60606061,4,1,14,0.081701931,0.006779785,1,0,0,0.9828,rock_grid_rect_2,5,05,-1,-1,0.983,-0.357524957,-0.394825372,1,0,0,1.2967,Obsidian_rect,5,1.297,1,13,0,13,0,1,,,,,,,,,,,,,
60fc66d97941f40870f6e303,TCN,2024-06-24_13h47.10.568,LearnStrategy,2023.2.3,MacIntel,60.60606061,4,1,15,0.054442139,0.002650892,1,0,0,0.9475,rock_grid_rect_2,2,06,-1,-1,0.947,-0.168625624,-0.247618408,1,0,0,1.2042,Basalt_rect,2,1.204,1,14,0,14,0,1,,,,,,,,,,,,,
60fc66d97941f40870f6e303,TCN,2024-06-24_13h47.10.568,LearnStrategy,2023.2.3,MacIntel,60.60606061,4,1,16,0.081644626,-0.017801514,1,0,0,0.9655,rock_grid_rect_2,1,05,-1,-1,0.966,0.114246826,-0.248713854,1,0,0,3.2141,Diorite_rect,3,3.214,0,15,0,15,0,1,,,,,,,,,,,,,
60fc66d97941f40870f6e303,TCN,2024-06-24_13h47.10.568,LearnStrategy,2023.2.3,MacIntel,60.60606061,4,2,1,,,,,,,,8,06,,,,,,,,,,,8,1.209,1,,,,,,0.371172146,-0.392026774,1,0,0,1.2085,Pumice_rect,0,0,0,0,1,
60fc66d97941f40870f6e303,TCN,2024-06-24_13h47.10.568,LearnStrategy,2023.2.3,MacIntel,60.60606061,4,2,2,,,,,,,,4,05,,,,,,,,,,,1,3.246,0,,,,,,-0.383629625,-0.271443821,1,0,0,3.2456,Andesite_rect,1,0,1,0,1,
60fc66d97941f40870f6e303,TCN,2024-06-24_13h47.10.568,LearnStrategy,2023.2.3,MacIntel,60.60606061,4,2,3,,,,,,,,8,10,,,,,,,,,,,8,1.396,1,,,,,,0.402181532,-0.400853068,1,0,0,1.3957,Pumice_rect,2,0,2,0,1,
60fc66d97941f40870f6e303,TCN,2024-06-24_13h47.10.568,LearnStrategy,2023.2.3,MacIntel,60.60606061,4,2,4,,,,,,,,5,06,,,,,,,,,,,5,1.315,1,,,,,,-0.364607849,-0.408755425,1,0,0,1.3148,Obsidian_rect,3,0,3,0,1,
60fc66d97941f40870f6e303,TCN,2024-06-24_13h47.10.568,LearnStrategy,2023.2.3,MacIntel,60.60606061,4,2,5,,,,,,,,4,03,,,,,,,,,,,1,2.866,0,,,,,,-0.392373284,-0.2663463,1,0,0,2.8665,Andesite_rect,4,0,4,0,1,
60fc66d97941f40870f6e303,TCN,2024-06-24_13h47.10.568,LearnStrategy,2023.2.3,MacIntel,60.60606061,4,2,6,,,,,,,,5,12,,,,,,,,,,,5,1.458,1,,,,,,-0.413953722,-0.39869222,1,0,0,1.4576,Obsidian_rect,5,0,5,0,1,
60fc66d97941f40870f6e303,TCN,2024-06-24_13h47.10.568,LearnStrategy,2023.2.3,MacIntel,60.60606061,4,2,7,,,,,,,,1,11,,,,,,,,,,,3,4.429,0,,,,,,0.122020128,-0.239488118,1,0,0,4.4291,Diorite_rect,6,0,6,0,1,
60fc66d97941f40870f6e303,TCN,2024-06-24_13h47.10.568,LearnStrategy,2023.2.3,MacIntel,60.60606061,4,2,8,,,,,,,,2,12,,,,,,,,,,,2,8.094,1,,,,,,-0.086252102,-0.254341363,1,0,0,8.0938,Basalt_rect,7,0,7,0,1,
60fc66d97941f40870f6e303,TCN,2024-06-24_13h47.10.568,LearnStrategy,2023.2.3,MacIntel,60.60606061,4,2,9,,,,,,,,3,16,,,,,,,,,,,3,2.692,1,,,,,,0.09044949,-0.228882446,1,0,0,2.6917,Diorite_rect,8,0,8,0,1,
60fc66d97941f40870f6e303,TCN,2024-06-24_13h47.10.568,LearnStrategy,2023.2.3,MacIntel,60.60606061,4,2,10,,,,,,,,6,03,,,,,,,,,,,6,2.129,1,,,,,,-0.120957709,-0.39772644,1,0,0,2.1286,Pegmatite_rect,9,0,9,0,1,
60fc66d97941f40870f6e303,TCN,2024-06-24_13h47.10.568,LearnStrategy,2023.2.3,MacIntel,60.60606061,4,2,11,,,,,,,,6,16,,,,,,,,,,,6,2.069,1,,,,,,-0.105176392,-0.391846246,1,0,0,2.0688,Pegmatite_rect,10,0,10,0,1,
60fc66d97941f40870f6e303,TCN,2024-06-24_13h47.10.568,LearnStrategy,2023.2.3,MacIntel,60.60606061,4,2,12,,,,,,,,1,14,,,,,,,,,,,7,2.543,0,,,,,,0.135539551,-0.396708171,1,0,0,2.5431,Peridotite_rect,11,0,11,0,1,
60fc66d97941f40870f6e303,TCN,2024-06-24_13h47.10.568,LearnStrategy,2023.2.3,MacIntel,60.60606061,4,2,13,,,,,,,,2,14,,,,,,,,,,,8,2.594,0,,,,,,0.345455729,-0.4059493,1,0,0,2.5941,Pumice_rect,12,0,12,0,1,
60fc66d97941f40870f6e303,TCN,2024-06-24_13h47.10.568,LearnStrategy,2023.2.3,MacIntel,60.60606061,4,2,14,,,,,,,,7,10,,,,,,,,,,,1,3.369,0,,,,,,-0.344416402,-0.244695095,1,0,0,3.3685,Andesite_rect,13,0,13,0,1,
60fc66d97941f40870f6e303,TCN,2024-06-24_13h47.10.568,LearnStrategy,2023.2.3,MacIntel,60.60606061,4,2,15,,,,,,,,3,02,,,,,,,,,,,3,2.611,1,,,,,,0.072318793,-0.242608303,1,0,0,2.6115,Diorite_rect,14,0,14,0,1,
60fc66d97941f40870f6e303,TCN,2024-06-24_13h47.10.568,LearnStrategy,2023.2.3,MacIntel,60.60606061,4,2,16,,,,,,,,7,14,,,,,,,,,,,4,4.395,0,,,,,,0.348659939,-0.241804131,1,0,0,4.3947,Gabbro_rect,15,0,15,0,1,
60fc66d97941f40870f6e303,TCN,2024-06-24_13h47.10.568,LearnStrategy,2023.2.3,MacIntel,60.60606061,5,1,1,0.004379883,-0.008270535,1,0,0,1.3159,rock_grid_rect_2,3,13,-1,-1,1.316,0.109626058,-0.253322211,1,0,0,4.412,Diorite_rect,3,4.412,1,0,0,0,0,1,,,,,,,,,,,,,
60fc66d97941f40870f6e303,TCN,2024-06-24_13h47.10.568,LearnStrategy,2023.2.3,MacIntel,60.60606061,5,1,2,0.06357137,-0.001777615,1,0,0,62.5643,rock_grid_rect_2,8,09,-1,-1,62.564,0.341311849,-0.379941203,1,0,0,2.7584,Pumice_rect,8,2.758,1,1,0,1,0,1,,,,,,,,,,,,,
60fc66d97941f40870f6e303,TCN,2024-06-24_13h47.10.568,LearnStrategy,2023.2.3,MacIntel,60.60606061,5,1,3,0.057929891,0.00480679,1,0,0,6.1982,rock_grid_rect_2,3,08,-1,-1,6.198,0.152839559,-0.242842543,1,0,0,2.1329,Diorite_rect,3,2.133,1,2,0,2,0,1,,,,,,,,,,,,,
60fc66d97941f40870f6e303,TCN,2024-06-24_13h47.10.568,LearnStrategy,2023.2.3,MacIntel,60.60606061,5,1,4,0.069754028,0.014207018,1,0,0,1.78,rock_grid_rect_2,4,09,-1,-1,1.78,0.366866048,-0.237515734,1,0,0,8.0799,Gabbro_rect,4,8.08,1,3,0,3,0,1,,,,,,,,,,,,,
60fc66d97941f40870f6e303,TCN,2024-06-24_13h47.10.568,LearnStrategy,2023.2.3,MacIntel,60.60606061,5,1,5,0.037218153,-0.000253126,1,0,0,1.6813,rock_grid_rect_2,1,06,-1,-1,1.681,-0.381275635,-0.262436388,1,0,0,1.5939,Andesite_rect,1,1.594,1,4,0,4,0,1,,,,,,,,,,,,,
60fc66d97941f40870f6e303,TCN,2024-06-24_13h47.10.568,LearnStrategy,2023.2.3,MacIntel,60.60606061,5,1,6,0.024412164,-0.011005046,1,0,0,0.8466,rock_grid_rect_2,6,15,-1,-1,0.847,-0.124036051,-0.402203234,1,0,0,2.499,Pegmatite_rect,6,2.499,1,5,0,5,0,1,,,,,,,,,,,,,
60fc66d97941f40870f6e303,TCN,2024-06-24_13h47.10.568,LearnStrategy,2023.2.3,MacIntel,60.60606061,5,1,7,0.030216336,0.003605279,1,0,0,0.882,rock_grid_rect_2,5,11,-1,-1,0.882,-0.336899177,-0.398030938,1,0,0,1.0627,Obsidian_rect,5,1.063,1,6,0,6,0,1,,,,,,,,,,,,,
60fc66d97941f40870f6e303,TCN,2024-06-24_13h47.10.568,LearnStrategy,2023.2.3,MacIntel,60.60606061,5,1,8,0.023686659,0.004885423,1,0,0,0.9158,rock_grid_rect_2,5,16,-1,-1,0.916,-0.375192735,-0.404956258,1,0,0,0.9945,Obsidian_rect,5,0.995,1,7,0,7,0,1,,,,,,,,,,,,,
60fc66d97941f40870f6e303,TCN,2024-06-24_13h47.10.568,LearnStrategy,2023.2.3,MacIntel,60.60606061,5,1,9,0.024565565,-0.008168945,1,0,0,0.7806,rock_grid_rect_2,2,08,-1,-1,0.781,-0.083858439,-0.251572062,1,0,0,1.4843,Basalt_rect,2,1.484,1,8,0,8,0,1,,,,,,,,,,,,,
60fc66d97941f40870f6e303,TCN,2024-06-24_13h47.10.568,LearnStrategy,2023.2.3,MacIntel,60.60606061,5,1,10,0.013302477,0.00834493,1,0,0,1.049,rock_grid_rect_2,6,12,-1,-1,1.049,-0.126627604,-0.413241916,1,0,0,2.7797,Pegmatite_rect,6,2.78,1,9,0,9,0,1,,,,,,,,,,,,,
60fc66d97941f40870f6e303,TCN,2024-06-24_13h47.10.568,LearnStrategy,2023.2.3,MacIntel,60.60606061,5,1,11,0.065658976,-0.011487359,1,0,0,1.0132,rock_grid_rect_2,8,04,-1,-1,1.013,0.373884277,-0.40461792,1,0,0,1.2418,Pumice_rect,8,1.242,1,10,0,10,0,1,,,,,,,,,,,,,
60fc66d97941f40870f6e303,TCN,2024-06-24_13h47.10.568,LearnStrategy,2023.2.3,MacIntel,60.60606061,5,1,12,0.019575331,-0.014702657,1,0,0,1.0632,rock_grid_rect_2,7,16,-1,-1,1.063,0.382847765,-0.269418403,1,0,0,2.444,Gabbro_rect,4,2.444,0,11,0,11,0,1,,,,,,,,,,,,,
60fc66d97941f40870f6e303,TCN,2024-06-24_13h47.10.568,LearnStrategy,2023.2.3,MacIntel,60.60606061,5,1,13,0.043080173,-0.010020142,1,0,0,1.0975,rock_grid_rect_2,7,13,-1,-1,1.097,0.100641412,-0.398030192,1,0,0,2.8812,Peridotite_rect,7,2.881,1,12,0,12,0,1,,,,,,,,,,,,,
60fc66d97941f40870f6e303,TCN,2024-06-24_13h47.10.568,LearnStrategy,2023.2.3,MacIntel,60.60606061,5,1,14,0.020700548,0.002586297,1,0,0,0.9147,rock_grid_rect_2,4,11,-1,-1,0.915,0.364749891,-0.244518365,1,0,0,2.2766,Gabbro_rect,4,2.277,1,13,0,13,0,1,,,,,,,,,,,,,
60fc66d97941f40870f6e303,TCN,2024-06-24_13h47.10.568,LearnStrategy,2023.2.3,MacIntel,60.60606061,5,1,15,0.054732598,0.01351749,1,0,0,0.8986,rock_grid_rect_2,2,09,-1,-1,0.899,-0.071609633,-0.242565918,1,0,0,1.229,Basalt_rect,2,1.229,1,14,0,14,0,1,,,,,,,,,,,,,
60fc66d97941f40870f6e303,TCN,2024-06-24_13h47.10.568,LearnStrategy,2023.2.3,MacIntel,60.60606061,5,1,16,0.101248305,0.013144226,1,0,0,0.8816,rock_grid_rect_2,1,16,-1,-1,0.882,-0.363816461,-0.256003554,1,0,0,2.7794,Andesite_rect,1,2.779,1,15,0,15,0,1,,,,,,,,,,,,,
60fc66d97941f40870f6e303,TCN,2024-06-24_13h47.10.568,LearnStrategy,2023.2.3,MacIntel,60.60606061,5,2,1,,,,,,,,6,10,,,,,,,,,,,6,1.994,1,,,,,,-0.077685683,-0.3957685,1,0,0,1.9938,Pegmatite_rect,0,0,0,0,1,
60fc66d97941f40870f6e303,TCN,2024-06-24_13h47.10.568,LearnStrategy,2023.2.3,MacIntel,60.60606061,5,2,2,,,,,,,,1,10,,,,,,,,,,,7,5.016,0,,,,,,0.108819105,-0.389947442,1,0,0,5.016,Peridotite_rect,1,0,1,0,1,
60fc66d97941f40870f6e303,TCN,2024-06-24_13h47.10.568,LearnStrategy,2023.2.3,MacIntel,60.60606061,5,2,3,,,,,,,,5,14,,,,,,,,,,,5,1.026,1,,,,,,-0.389647488,-0.407261353,1,0,0,1.0258,Obsidian_rect,2,0,2,0,1,
60fc66d97941f40870f6e303,TCN,2024-06-24_13h47.10.568,LearnStrategy,2023.2.3,MacIntel,60.60606061,5,2,4,,,,,,,,7,07,,,,,,,,,,,3,2.143,0,,,,,,0.080284424,-0.244636366,1,0,0,2.1432,Diorite_rect,3,0,3,0,1,
60fc66d97941f40870f6e303,TCN,2024-06-24_13h47.10.568,LearnStrategy,2023.2.3,MacIntel,60.60606061,5,2,5,,,,,,,,5,04,,,,,,,,,,,5,2.288,1,,,,,,-0.366192695,-0.388875393,1,0,0,2.2882,Obsidian_rect,4,0,4,0,1,
60fc66d97941f40870f6e303,TCN,2024-06-24_13h47.10.568,LearnStrategy,2023.2.3,MacIntel,60.60606061,5,2,6,,,,,,,,2,01,,,,,,,,,,,2,1.362,1,,,,,,-0.099072673,-0.240890571,1,0,0,1.3625,Basalt_rect,5,0,5,0,1,
60fc66d97941f40870f6e303,TCN,2024-06-24_13h47.10.568,LearnStrategy,2023.2.3,MacIntel,60.60606061,5,2,7,,,,,,,,6,06,,,,,,,,,,,7,3.195,0,,,,,,0.104226888,-0.398689982,1,0,0,3.1954,Peridotite_rect,6,0,6,0,1,
60fc66d97941f40870f6e303,TCN,2024-06-24_13h47.10.568,LearnStrategy,2023.2.3,MacIntel,60.60606061,5,2,8,,,,,,,,8,15,,,,,,,,,,,8,1.287,1,,,,,,0.323691474,-0.384183214,1,0,0,1.2873,Pumice_rect,7,0,7,0,1,
60fc66d97941f40870f6e303,TCN,2024-06-24_13h47.10.568,LearnStrategy,2023.2.3,MacIntel,60.60606061,5,2,9,,,,,,,,1,03,,,,,,,,,,,1,1.724,1,,,,,,-0.337096625,-0.228966132,1,0,0,1.7244,Andesite_rect,8,0,8,0,1,
60fc66d97941f40870f6e303,TCN,2024-06-24_13h47.10.568,LearnStrategy,2023.2.3,MacIntel,60.60606061,5,2,10,,,,,,,,7,02,,,,,,,,,,,7,1.829,1,,,,,,0.099146254,-0.390115492,1,0,0,1.8288,Peridotite_rect,9,0,9,0,1,
60fc66d97941f40870f6e303,TCN,2024-06-24_13h47.10.568,LearnStrategy,2023.2.3,MacIntel,60.60606061,5,2,11,,,,,,,,2,05,,,,,,,,,,,2,1.701,1,,,,,,-0.124847073,-0.249548543,1,0,0,1.7012,Basalt_rect,10,0,10,0,1,
60fc66d97941f40870f6e303,TCN,2024-06-24_13h47.10.568,LearnStrategy,2023.2.3,MacIntel,60.60606061,5,2,12,,,,,,,,8,16,,,,,,,,,,,8,1.203,1,,,,,,0.339514431,-0.386788805,1,0,0,1.2029,Pumice_rect,11,0,11,0,1,
60fc66d97941f40870f6e303,TCN,2024-06-24_13h47.10.568,LearnStrategy,2023.2.3,MacIntel,60.60606061,5,2,13,,,,,,,,4,14,,,,,,,,,,,4,1.6,1,,,,,,0.387421739,-0.253601413,1,0,0,1.6004,Gabbro_rect,12,0,12,0,1,
60fc66d97941f40870f6e303,TCN,2024-06-24_13h47.10.568,LearnStrategy,2023.2.3,MacIntel,60.60606061,5,2,14,,,,,,,,4,01,,,,,,,,,,,1,2.013,0,,,,,,-0.348558078,-0.239598185,1,0,0,2.0133,Andesite_rect,13,0,13,0,1,
60fc66d97941f40870f6e303,TCN,2024-06-24_13h47.10.568,LearnStrategy,2023.2.3,MacIntel,60.60606061,5,2,15,,,,,,,,3,15,,,,,,,,,,,3,2.4,1,,,,,,0.100740221,-0.239995795,1,0,0,2.3999,Diorite_rect,14,0,14,0,1,
60fc66d97941f40870f6e303,TCN,2024-06-24_13h47.10.568,LearnStrategy,2023.2.3,MacIntel,60.60606061,5,2,16,,,,,,,,3,14,,,,,,,,,,,3,1.221,1,,,,,,0.122194078,-0.244920451,1,0,0,1.2209,Diorite_rect,15,0,15,0,1,
60fc66d97941f40870f6e303,TCN,2024-06-24_13h47.10.568,LearnStrategy,2023.2.3,MacIntel,60.60606061,6,1,1,0.084376763,-0.009198439,1,0,0,0.9806,rock_grid_rect_2,2,16,-1,-1,0.981,0.412976888,-0.260926717,1,0,0,4.1944,Gabbro_rect,4,4.194,0,0,0,0,0,1,,,,,,,,,,,,,
60fc66d97941f40870f6e303,TCN,2024-06-24_13h47.10.568,LearnStrategy,2023.2.3,MacIntel,60.60606061,6,1,2,0.052491319,-0.008574863,1,0,0,1.1954,rock_grid_rect_2,3,12,-1,-1,1.195,0.093908556,-0.252060411,1,0,0,2.9767,Diorite_rect,3,2.977,1,1,0,1,0,1,,,,,,,,,,,,,
60fc66d97941f40870f6e303,TCN,2024-06-24_13h47.10.568,LearnStrategy,2023.2.3,MacIntel,60.60606061,6,1,3,0.050122138,-0.005997043,1,0,0,33.7796,rock_grid_rect_2,6,07,-1,-1,33.78,-0.096321208,-0.409213257,1,0,0,4.1828,Pegmatite_rect,6,4.183,1,2,0,2,0,1,,,,,,,,,,,,,
60fc66d97941f40870f6e303,TCN,2024-06-24_13h47.10.568,LearnStrategy,2023.2.3,MacIntel,60.60606061,6,1,4,0.006170044,0.001674194,1,0,0,1.0973,rock_grid_rect_2,7,12,-1,-1,1.097,0.135122342,-0.41322998,1,0,0,4.2502,Peridotite_rect,7,4.25,1,3,0,3,0,1,,,,,,,,,,,,,
60fc66d97941f40870f6e303,TCN,2024-06-24_13h47.10.568,LearnStrategy,2023.2.3,MacIntel,60.60606061,6,1,5,0.04499566,0.000546807,1,0,0,0.864,rock_grid_rect_2,5,08,-1,-1,0.864,-0.350738491,-0.388301527,1,0,0,1.182,Obsidian_rect,5,1.182,1,4,0,4,0,1,,,,,,,,,,,,,
60fc66d97941f40870f6e303,TCN,2024-06-24_13h47.10.568,LearnStrategy,2023.2.3,MacIntel,60.60606061,6,1,6,0.117222629,-0.008828735,1,0,0,2.399,rock_grid_rect_2,8,05,-1,-1,2.399,0.358742676,-0.401415744,1,0,0,2.4203,Pumice_rect,8,2.42,1,5,0,5,0,1,,,,,,,,,,,,,
60fc66d97941f40870f6e303,TCN,2024-06-24_13h47.10.568,LearnStrategy,2023.2.3,MacIntel,60.60606061,6,1,7,0.115535753,-0.006659139,1,0,0,0.9809,rock_grid_rect_2,4,10,-1,-1,0.981,0.365758599,-0.267843018,1,0,0,2.5647,Gabbro_rect,4,2.565,1,6,0,6,0,1,,,,,,,,,,,,,
60fc66d97941f40870f6e303,TCN,2024-06-24_13h47.10.568,LearnStrategy,2023.2.3,MacIntel,60.60606061,6,1,8,0.004408637,-0.010083042,1,0,0,0.9142,rock_grid_rect_2,2,02,-1,-1,0.914,-0.062262641,-0.237750515,1,0,0,1.3171,Basalt_rect,2,1.317,1,7,0,7,0,1,,,,,,,,,,,,,
60fc66d97941f40870f6e303,TCN,2024-06-24_13h47.10.568,LearnStrategy,2023.2.3,MacIntel,60.60606061,6,1,9,0.027926839,-0.004651896,1,0,0,0.9302,rock_grid_rect_2,3,09,-1,-1,0.93,0.114199354,-0.23551751,1,0,0,1.213,Diorite_rect,3,1.213,1,8,0,8,0,1,,,,,,,,,,,,,
60fc66d97941f40870f6e303,TCN,2024-06-24_13h47.10.568,LearnStrategy,2023.2.3,MacIntel,60.60606061,6,1,10,0.012697957,-0.008322957,1,0,0,0.8294,rock_grid_rect_2,5,09,-1,-1,0.829,-0.432341919,-0.394953613,1,0,0,1.4313,Obsidian_rect,5,1.431,1,9,0,9,0,1,,,,,,,,,,,,,
60fc66d97941f40870f6e303,TCN,2024-06-24_13h47.10.568,LearnStrategy,2023.2.3,MacIntel,60.60606061,6,1,11,-0.008629964,-0.009191657,1,0,0,0.7979,rock_grid_rect_2,1,07,-1,-1,0.798,-0.388226318,-0.244988539,1,0,0,2.7138,Andesite_rect,1,2.714,1,10,0,10,0,1,,,,,,,,,,,,,
60fc66d97941f40870f6e303,TCN,2024-06-24_13h47.10.568,LearnStrategy,2023.2.3,MacIntel,60.60606061,6,1,12,0.020391574,0.011255188,1,0,0,0.882,rock_grid_rect_2,1,09,-1,-1,0.882,-0.367257826,-0.251015625,1,0,0,3.7813,Andesite_rect,1,3.781,1,11,0,11,0,1,,,,,,,,,,,,,
60fc66d97941f40870f6e303,TCN,2024-06-24_13h47.10.568,LearnStrategy,2023.2.3,MacIntel,60.60606061,6,1,13,0.020237223,0.019443122,1,0,0,0.8453,rock_grid_rect_2,4,12,-1,-1,0.845,0.399903971,-0.253198853,1,0,0,2.2867,Gabbro_rect,4,2.287,1,12,0,12,0,1,,,,,,,,,,,,,
60fc66d97941f40870f6e303,TCN,2024-06-24_13h47.10.568,LearnStrategy,2023.2.3,MacIntel,60.60606061,6,1,14,0.063790215,0.001196662,1,0,0,1.0485,rock_grid_rect_2,7,05,-1,-1,1.049,0.11215705,-0.416390042,1,0,0,2.1665,Peridotite_rect,7,2.167,1,13,0,13,0,1,,,,,,,,,,,,,
60fc66d97941f40870f6e303,TCN,2024-06-24_13h47.10.568,LearnStrategy,2023.2.3,MacIntel,60.60606061,6,1,15,0.044204644,-0.005043335,1,0,0,0.9322,rock_grid_rect_2,8,14,-1,-1,0.932,0.3577771,-0.399569838,1,0,0,1.2466,Pumice_rect,8,1.247,1,14,0,14,0,1,,,,,,,,,,,,,
60fc66d97941f40870f6e303,TCN,2024-06-24_13h47.10.568,LearnStrategy,2023.2.3,MacIntel,60.60606061,6,1,16,0.087611423,0.004423794,1,0,0,0.716,rock_grid_rect_2,6,11,-1,-1,0.716,-0.125102675,-0.402858683,1,0,0,1.2161,Pegmatite_rect,6,1.216,1,15,0,15,0,1,,,,,,,,,,,,,
60fc66d97941f40870f6e303,TCN,2024-06-24_13h47.10.568,LearnStrategy,2023.2.3,MacIntel,60.60606061,6,2,1,,,,,,,,8,02,,,,,,,,,,,8,1.33,1,,,,,,0.367313775,-0.389374118,1,0,0,1.3302,Pumice_rect,0,0,0,0,1,
60fc66d97941f40870f6e303,TCN,2024-06-24_13h47.10.568,LearnStrategy,2023.2.3,MacIntel,60.60606061,6,2,2,,,,,,,,7,15,,,,,,,,,,,7,1.665,1,,,,,,0.13099311,-0.415429823,1,0,0,1.6652,Peridotite_rect,1,0,1,0,1,
60fc66d97941f40870f6e303,TCN,2024-06-24_13h47.10.568,LearnStrategy,2023.2.3,MacIntel,60.60606061,6,2,3,,,,,,,,4,16,,,,,,,,,,,4,3.537,1,,,,,,0.32576416,-0.264229194,1,0,0,3.5373,Gabbro_rect,2,0,2,0,1,
60fc66d97941f40870f6e303,TCN,2024-06-24_13h47.10.568,LearnStrategy,2023.2.3,MacIntel,60.60606061,6,2,4,,,,,,,,3,11,,,,,,,,,,,3,1.752,1,,,,,,0.129431695,-0.242228936,1,0,0,1.7524,Diorite_rect,3,0,3,0,1,
60fc66d97941f40870f6e303,TCN,2024-06-24_13h47.10.568,LearnStrategy,2023.2.3,MacIntel,60.60606061,6,2,5,,,,,,,,7,04,,,,,,,,,,,7,9.202,1,,,,,,0.091496175,-0.415862291,1,0,0,9.2025,Peridotite_rect,4,0,4,0,1,
60fc66d97941f40870f6e303,TCN,2024-06-24_13h47.10.568,LearnStrategy,2023.2.3,MacIntel,60.60606061,6,2,6,,,,,,,,4,13,,,,,,,,,,,3,3.033,0,,,,,,0.115798679,-0.239082845,1,0,0,3.0329,Diorite_rect,5,0,5,0,1,
60fc66d97941f40870f6e303,TCN,2024-06-24_13h47.10.568,LearnStrategy,2023.2.3,MacIntel,60.60606061,6,2,7,,,,,,,,2,04,,,,,,,,,,,2,1.597,1,,,,,,-0.161690877,-0.249483371,1,0,0,1.5968,Basalt_rect,6,0,6,0,1,
60fc66d97941f40870f6e303,TCN,2024-06-24_13h47.10.568,LearnStrategy,2023.2.3,MacIntel,60.60606061,6,2,8,,,,,,,,2,10,,,,,,,,,,,2,7.55,1,,,,,,-0.110185547,-0.255157878,1,0,0,7.5499,Basalt_rect,7,0,7,0,1,
60fc66d97941f40870f6e303,TCN,2024-06-24_13h47.10.568,LearnStrategy,2023.2.3,MacIntel,60.60606061,6,2,9,,,,,,,,6,05,,,,,,,,,,,7,3.367,0,,,,,,0.113175795,-0.409733073,1,0,0,3.367,Peridotite_rect,8,0,8,0,1,
60fc66d97941f40870f6e303,TCN,2024-06-24_13h47.10.568,LearnStrategy,2023.2.3,MacIntel,60.60606061,6,2,10,,,,,,,,1,04,,,,,,,,,,,1,1.156,1,,,,,,-0.397399495,-0.258768717,1,0,0,1.1564,Andesite_rect,9,0,9,0,1,
60fc66d97941f40870f6e303,TCN,2024-06-24_13h47.10.568,LearnStrategy,2023.2.3,MacIntel,60.60606061,6,2,11,,,,,,,,8,13,,,,,,,,,,,8,1.213,1,,,,,,0.361353082,-0.406920505,1,0,0,1.2126,Pumice_rect,10,0,10,0,1,
60fc66d97941f40870f6e303,TCN,2024-06-24_13h47.10.568,LearnStrategy,2023.2.3,MacIntel,60.60606061,6,2,12,,,,,,,,1,01,,,,,,,,,,,3,2.414,0,,,,,,0.108456082,-0.261491225,1,0,0,2.414,Diorite_rect,11,0,11,0,1,
60fc66d97941f40870f6e303,TCN,2024-06-24_13h47.10.568,LearnStrategy,2023.2.3,MacIntel,60.60606061,6,2,13,,,,,,,,5,07,,,,,,,,,,,5,1.079,1,,,,,,-0.378149685,-0.410098267,1,0,0,1.0788,Obsidian_rect,12,0,12,0,1,
60fc66d97941f40870f6e303,TCN,2024-06-24_13h47.10.568,LearnStrategy,2023.2.3,MacIntel,60.60606061,6,2,14,,,,,,,,3,07,,,,,,,,,,,7,2.285,0,,,,,,0.09786811,-0.413240017,1,0,0,2.2846,Peridotite_rect,13,0,13,0,1,
60fc66d97941f40870f6e303,TCN,2024-06-24_13h47.10.568,LearnStrategy,2023.2.3,MacIntel,60.60606061,6,2,15,,,,,,,,5,10,,,,,,,,,,,5,1.723,1,,,,,,-0.413255547,-0.417982652,1,0,0,1.723,Obsidian_rect,14,0,14,0,1,
60fc66d97941f40870f6e303,TCN,2024-06-24_13h47.10.568,LearnStrategy,2023.2.3,MacIntel,60.60606061,6,2,16,,,,,,,,6,08,,,,,,,,,,,6,1.619,1,,,,,,-0.08732761,-0.408344184,1,0,0,1.6186,Pegmatite_rect,15,0,15,0,1,
60fc66d97941f40870f6e303,TCN,2024-06-24_13h47.10.568,LearnStrategy,2023.2.3,MacIntel,60.60606061,7,1,1,0.096663276,-0.013838942,1,0,0,46.363,rock_grid_rect_2,7,12,-1,-1,46.363,0.110450779,-0.407647434,1,0,0,3.1461,Peridotite_rect,7,3.146,1,0,0,0,0,1,,,,,,,,,,,,,
60fc66d97941f40870f6e303,TCN,2024-06-24_13h47.10.568,LearnStrategy,2023.2.3,MacIntel,60.60606061,7,1,2,0.074479641,0.015447761,1,0,0,0.8978,rock_grid_rect_2,7,13,-1,-1,0.898,0.065354614,-0.388955892,1,0,0,1.147,Peridotite_rect,7,1.147,1,1,0,1,0,1,,,,,,,,,,,,,
60fc66d97941f40870f6e303,TCN,2024-06-24_13h47.10.568,LearnStrategy,2023.2.3,MacIntel,60.60606061,7,1,3,0.088516778,-0.006733975,1,0,0,0.8486,rock_grid_rect_2,8,03,-1,-1,0.849,0.337773098,-0.400221015,1,0,0,1.3001,Pumice_rect,8,1.3,1,2,0,2,0,1,,,,,,,,,,,,,
60fc66d97941f40870f6e303,TCN,2024-06-24_13h47.10.568,LearnStrategy,2023.2.3,MacIntel,60.60606061,7,1,4,0.038317329,-0.007442525,1,0,0,0.9159,rock_grid_rect_2,8,14,-1,-1,0.916,0.359886339,-0.41415663,1,0,0,1.1143,Pumice_rect,8,1.114,1,3,0,3,0,1,,,,,,,,,,,,,
60fc66d97941f40870f6e303,TCN,2024-06-24_13h47.10.568,LearnStrategy,2023.2.3,MacIntel,60.60606061,7,1,5,0.05449924,-0.011243795,1,0,0,1.0973,rock_grid_rect_2,4,11,-1,-1,1.097,0.354765761,-0.241424357,1,0,0,3.5199,Gabbro_rect,4,3.52,1,4,0,4,0,1,,,,,,,,,,,,,
60fc66d97941f40870f6e303,TCN,2024-06-24_13h47.10.568,LearnStrategy,2023.2.3,MacIntel,60.60606061,7,1,6,-0.040411241,-0.017768928,1,0,0,4.2628,rock_grid_rect_2,1,09,-1,-1,4.263,-0.428758002,-0.266541002,1,0,0,2.9345,Andesite_rect,1,2.935,1,5,0,5,0,1,,,,,,,,,,,,,
60fc66d97941f40870f6e303,TCN,2024-06-24_13h47.10.568,LearnStrategy,2023.2.3,MacIntel,60.60606061,7,1,7,0.110204536,-0.006144002,1,0,0,1.1155,rock_grid_rect_2,2,09,-1,-1,1.115,-0.093999973,-0.251257121,1,0,0,3.2173,Basalt_rect,2,3.217,1,6,0,6,0,1,,,,,,,,,,,,,
60fc66d97941f40870f6e303,TCN,2024-06-24_13h47.10.568,LearnStrategy,2023.2.3,MacIntel,60.60606061,7,1,8,0.047081434,-0.00646169,1,0,0,1.0316,rock_grid_rect_2,6,11,-1,-1,1.032,-0.166017117,-0.413957384,1,0,0,1.052,Pegmatite_rect,6,1.052,1,7,0,7,0,1,,,,,,,,,,,,,
60fc66d97941f40870f6e303,TCN,2024-06-24_13h47.10.568,LearnStrategy,2023.2.3,MacIntel,60.60606061,7,1,9,0.086278822,0.003989156,1,0,0,0.9479,rock_grid_rect_2,5,16,-1,-1,0.948,-0.444082303,-0.420149061,1,0,0,0.8486,Obsidian_rect,5,0.849,1,8,0,8,0,1,,,,,,,,,,,,,
60fc66d97941f40870f6e303,TCN,2024-06-24_13h47.10.568,LearnStrategy,2023.2.3,MacIntel,60.60606061,7,1,10,0.055527818,0.02174981,1,0,0,0.8653,rock_grid_rect_2,3,08,-1,-1,0.865,0.146707086,-0.259566989,1,0,0,5.3869,Diorite_rect,3,5.387,1,9,0,9,0,1,,,,,,,,,,,,,
60fc66d97941f40870f6e303,TCN,2024-06-24_13h47.10.568,LearnStrategy,2023.2.3,MacIntel,60.60606061,7,1,11,0.049544813,0.005433553,1,0,0,1.515,rock_grid_rect_2,1,02,-1,-1,1.515,0.119898682,-0.250394423,1,0,0,2.5014,Diorite_rect,3,2.501,0,10,0,10,0,1,,,,,,,,,,,,,
60fc66d97941f40870f6e303,TCN,2024-06-24_13h47.10.568,LearnStrategy,2023.2.3,MacIntel,60.60606061,7,1,12,0.0006132,0.000502387,1,0,0,0.7634,rock_grid_rect_2,3,10,-1,-1,0.763,-0.360511102,-0.256373698,1,0,0,2.2889,Andesite_rect,1,2.289,0,11,0,11,0,1,,,,,,,,,,,,,
60fc66d97941f40870f6e303,TCN,2024-06-24_13h47.10.568,LearnStrategy,2023.2.3,MacIntel,60.60606061,7,1,13,0.051289741,-0.002329373,1,0,0,0.8816,rock_grid_rect_2,5,09,-1,-1,0.882,-0.387300822,-0.405168728,1,0,0,1.1038,Obsidian_rect,5,1.104,1,12,0,12,0,1,,,,,,,,,,,,,
60fc66d97941f40870f6e303,TCN,2024-06-24_13h47.10.568,LearnStrategy,2023.2.3,MacIntel,60.60606061,7,1,14,0.082426147,0.008485243,1,0,0,1.2639,rock_grid_rect_2,2,16,-1,-1,1.264,-0.105341933,-0.248801134,1,0,0,2.0632,Basalt_rect,2,2.063,1,13,0,13,0,1,,,,,,,,,,,,,
60fc66d97941f40870f6e303,TCN,2024-06-24_13h47.10.568,LearnStrategy,2023.2.3,MacIntel,60.60606061,7,1,15,0.073743083,-0.010412564,1,0,0,0.8976,rock_grid_rect_2,4,12,-1,-1,0.898,0.381652561,-0.246727498,1,0,0,2.4001,Gabbro_rect,4,2.4,1,14,0,14,0,1,,,,,,,,,,,,,
60fc66d97941f40870f6e303,TCN,2024-06-24_13h47.10.568,LearnStrategy,2023.2.3,MacIntel,60.60606061,7,1,16,0.005406765,0.003550652,1,0,0,0.899,rock_grid_rect_2,6,13,-1,-1,0.899,-0.064028727,-0.397218899,1,0,0,3.7362,Pegmatite_rect,6,3.736,1,15,0,15,0,1,,,,,,,,,,,,,
60fc66d97941f40870f6e303,TCN,2024-06-24_13h47.10.568,LearnStrategy,2023.2.3,MacIntel,60.60606061,7,2,1,,,,,,,,1,10,,,,,,,,,,,1,9.287,1,,,,,,-0.34536126,-0.254522366,1,0,0,9.2869,Andesite_rect,0,0,0,0,1,
60fc66d97941f40870f6e303,TCN,2024-06-24_13h47.10.568,LearnStrategy,2023.2.3,MacIntel,60.60606061,7,2,2,,,,,,,,1,11,,,,,,,,,,,1,4.049,1,,,,,,-0.416130507,-0.247453342,1,0,0,4.0486,Andesite_rect,1,0,1,0,1,
60fc66d97941f40870f6e303,TCN,2024-06-24_13h47.10.568,LearnStrategy,2023.2.3,MacIntel,60.60606061,7,2,3,,,,,,,,4,05,,,,,,,,,,,4,4.488,1,,,,,,0.40907525,-0.248089328,1,0,0,4.4884,Gabbro_rect,2,0,2,0,1,
60fc66d97941f40870f6e303,TCN,2024-06-24_13h47.10.568,LearnStrategy,2023.2.3,MacIntel,60.60606061,7,2,4,,,,,,,,2,05,,,,,,,,,,,2,0.934,1,,,,,,-0.160073581,-0.235743951,1,0,0,0.9338,Basalt_rect,3,0,3,0,1,
60fc66d97941f40870f6e303,TCN,2024-06-24_13h47.10.568,LearnStrategy,2023.2.3,MacIntel,60.60606061,7,2,5,,,,,,,,6,05,,,,,,,,,,,6,1.165,1,,,,,,-0.096053738,-0.415122613,1,0,0,1.1649,Pegmatite_rect,4,0,4,0,1,
60fc66d97941f40870f6e303,TCN,2024-06-24_13h47.10.568,LearnStrategy,2023.2.3,MacIntel,60.60606061,7,2,6,,,,,,,,7,04,,,,,,,,,,,7,2.421,1,,,,,,0.100746121,-0.396111586,1,0,0,2.4206,Peridotite_rect,5,0,5,0,1,
60fc66d97941f40870f6e303,TCN,2024-06-24_13h47.10.568,LearnStrategy,2023.2.3,MacIntel,60.60606061,7,2,7,,,,,,,,3,02,,,,,,,,,,,3,1.629,1,,,,,,0.121501465,-0.250160726,1,0,0,1.6288,Diorite_rect,6,0,6,0,1,
60fc66d97941f40870f6e303,TCN,2024-06-24_13h47.10.568,LearnStrategy,2023.2.3,MacIntel,60.60606061,7,2,8,,,,,,,,4,01,,,,,,,,,,,1,4.561,0,,,,,,-0.391637166,-0.253206041,1,0,0,4.5613,Andesite_rect,7,0,7,0,1,
60fc66d97941f40870f6e303,TCN,2024-06-24_13h47.10.568,LearnStrategy,2023.2.3,MacIntel,60.60606061,7,2,9,,,,,,,,8,13,,,,,,,,,,,8,1.141,1,,,,,,0.370785862,-0.383680556,1,0,0,1.1406,Pumice_rect,8,0,8,0,1,
60fc66d97941f40870f6e303,TCN,2024-06-24_13h47.10.568,LearnStrategy,2023.2.3,MacIntel,60.60606061,7,2,10,,,,,,,,7,07,,,,,,,,,,,7,1.431,1,,,,,,0.116865709,-0.402731798,1,0,0,1.4315,Peridotite_rect,9,0,9,0,1,
60fc66d97941f40870f6e303,TCN,2024-06-24_13h47.10.568,LearnStrategy,2023.2.3,MacIntel,60.60606061,7,2,11,,,,,,,,2,12,,,,,,,,,,,2,7.115,1,,,,,,-0.086532254,-0.244760674,1,0,0,7.1148,Basalt_rect,10,0,10,0,1,
60fc66d97941f40870f6e303,TCN,2024-06-24_13h47.10.568,LearnStrategy,2023.2.3,MacIntel,60.60606061,7,2,12,,,,,,,,3,16,,,,,,,,,,,3,2.502,1,,,,,,0.142805447,-0.265246311,1,0,0,2.5024,Diorite_rect,11,0,11,0,1,
60fc66d97941f40870f6e303,TCN,2024-06-24_13h47.10.568,LearnStrategy,2023.2.3,MacIntel,60.60606061,7,2,13,,,,,,,,8,15,,,,,,,,,,,8,1.237,1,,,,,,0.344079861,-0.384225667,1,0,0,1.2374,Pumice_rect,12,0,12,0,1,
60fc66d97941f40870f6e303,TCN,2024-06-24_13h47.10.568,LearnStrategy,2023.2.3,MacIntel,60.60606061,7,2,14,,,,,,,,5,04,,,,,,,,,,,5,1.254,1,,,,,,-0.34197286,-0.413729248,1,0,0,1.2539,Obsidian_rect,13,0,13,0,1,
60fc66d97941f40870f6e303,TCN,2024-06-24_13h47.10.568,LearnStrategy,2023.2.3,MacIntel,60.60606061,7,2,15,,,,,,,,5,07,,,,,,,,,,,5,1.068,1,,,,,,-0.367616238,-0.408308784,1,0,0,1.0681,Obsidian_rect,14,0,14,0,1,
60fc66d97941f40870f6e303,TCN,2024-06-24_13h47.10.568,LearnStrategy,2023.2.3,MacIntel,60.60606061,7,2,16,,,,,,,,6,08,,,,,,,,,,,6,1.099,1,,,,,,-0.067510308,-0.403362427,1,0,0,1.0993,Pegmatite_rect,15,0,15,0,1,
60fc66d97941f40870f6e303,TCN,2024-06-24_13h47.10.568,LearnStrategy,2023.2.3,MacIntel,60.60606061,8,1,1,0.159376628,0.023492805,1,0,0,3.0306,rock_grid_rect_2,2,06,-1,-1,3.031,-0.100475396,-0.24109002,1,0,0,5.3852,Basalt_rect,2,5.385,1,0,0,0,0,1,,,,,,,,,,,,,
60fc66d97941f40870f6e303,TCN,2024-06-24_13h47.10.568,LearnStrategy,2023.2.3,MacIntel,60.60606061,8,1,2,-0.005333252,0.011989475,1,0,0,1.0975,rock_grid_rect_2,3,06,-1,-1,1.098,0.130766195,-0.407732476,1,0,0,3.5454,Peridotite_rect,7,3.545,0,1,0,1,0,1,,,,,,,,,,,,,
60fc66d97941f40870f6e303,TCN,2024-06-24_13h47.10.568,LearnStrategy,2023.2.3,MacIntel,60.60606061,8,1,3,0.083274672,-0.01422309,1,0,0,0.9496,rock_grid_rect_2,8,09,-1,-1,0.95,0.306396349,-0.386148953,1,0,0,1.3803,Pumice_rect,8,1.38,1,2,0,2,0,1,,,,,,,,,,,,,
60fc66d97941f40870f6e303,TCN,2024-06-24_13h47.10.568,LearnStrategy,2023.2.3,MacIntel,60.60606061,8,1,4,0.042902696,0.010850898,1,0,0,1.0472,rock_grid_rect_2,3,13,-1,-1,1.047,0.099992133,-0.256306898,1,0,0,1.5319,Diorite_rect,3,1.532,1,3,0,3,0,1,,,,,,,,,,,,,
60fc66d97941f40870f6e303,TCN,2024-06-24_13h47.10.568,LearnStrategy,2023.2.3,MacIntel,60.60606061,8,1,5,0.030653619,-0.008394402,1,0,0,0.8496,rock_grid_rect_2,7,16,-1,-1,0.85,0.103299289,-0.419789497,1,0,0,2.5993,Peridotite_rect,7,2.599,1,4,0,4,0,1,,,,,,,,,,,,,
60fc66d97941f40870f6e303,TCN,2024-06-24_13h47.10.568,LearnStrategy,2023.2.3,MacIntel,60.60606061,8,1,6,0.026298896,-0.000161743,1,0,0,0.8127,rock_grid_rect_2,7,05,-1,-1,0.813,0.092173258,-0.399150526,1,0,0,1.9369,Peridotite_rect,7,1.937,1,5,0,5,0,1,,,,,,,,,,,,,
60fc66d97941f40870f6e303,TCN,2024-06-24_13h47.10.568,LearnStrategy,2023.2.3,MacIntel,60.60606061,8,1,7,0.058917236,0.013072917,1,0,0,1.2492,rock_grid_rect_2,4,08,-1,-1,1.249,0.335983141,-0.249228177,1,0,0,1.5537,Gabbro_rect,4,1.554,1,6,0,6,0,1,,,,,,,,,,,,,
60fc66d97941f40870f6e303,TCN,2024-06-24_13h47.10.568,LearnStrategy,2023.2.3,MacIntel,60.60606061,8,1,8,0.070881144,-0.01985945,1,0,0,0.8486,rock_grid_rect_2,2,11,-1,-1,0.849,-0.100350138,-0.254100545,1,0,0,1.8605,Basalt_rect,2,1.861,1,7,0,7,0,1,,,,,,,,,,,,,
60fc66d97941f40870f6e303,TCN,2024-06-24_13h47.10.568,LearnStrategy,2023.2.3,MacIntel,60.60606061,8,1,9,0.043481377,-0.01006507,1,0,0,0.8831,rock_grid_rect_2,1,16,-1,-1,0.883,-0.409602661,-0.262187839,1,0,0,3.0494,Andesite_rect,1,3.049,1,8,0,8,0,1,,,,,,,,,,,,,
60fc66d97941f40870f6e303,TCN,2024-06-24_13h47.10.568,LearnStrategy,2023.2.3,MacIntel,60.60606061,8,1,10,0.047668864,0.004058499,1,0,0,0.6965,rock_grid_rect_2,6,09,-1,-1,0.697,-0.070825941,-0.38197503,1,0,0,1.1023,Pegmatite_rect,6,1.102,1,9,0,9,0,1,,,,,,,,,,,,,
60fc66d97941f40870f6e303,TCN,2024-06-24_13h47.10.568,LearnStrategy,2023.2.3,MacIntel,60.60606061,8,1,11,0.049935845,-0.014961819,1,0,0,0.6666,rock_grid_rect_2,4,09,-1,-1,0.667,0.357946506,-0.257704875,1,0,0,2.4325,Gabbro_rect,4,2.433,1,10,0,10,0,1,,,,,,,,,,,,,
60fc66d97941f40870f6e303,TCN,2024-06-24_13h47.10.568,LearnStrategy,2023.2.3,MacIntel,60.60606061,8,1,12,0.039881321,0.005893453,1,0,0,0.9334,rock_grid_rect_2,8,05,-1,-1,0.933,0.34717787,-0.40400194,1,0,0,1.3952,Pumice_rect,8,1.395,1,11,0,11,0,1,,,,,,,,,,,,,
60fc66d97941f40870f6e303,TCN,2024-06-24_13h47.10.568,LearnStrategy,2023.2.3,MacIntel,60.60606061,8,1,13,0.049703776,-0.011335551,1,0,0,0.7995,rock_grid_rect_2,6,07,-1,-1,0.8,-0.130021905,-0.397677884,1,0,0,1.1466,Pegmatite_rect,6,1.147,1,12,0,12,0,1,,,,,,,,,,,,,
60fc66d97941f40870f6e303,TCN,2024-06-24_13h47.10.568,LearnStrategy,2023.2.3,MacIntel,60.60606061,8,1,14,0.047611762,-0.006999953,1,0,0,0.8652,rock_grid_rect_2,5,02,-1,-1,0.865,-0.356719462,-0.399625854,1,0,0,1.0688,Obsidian_rect,5,1.069,1,13,0,13,0,1,,,,,,,,,,,,,
60fc66d97941f40870f6e303,TCN,2024-06-24_13h47.10.568,LearnStrategy,2023.2.3,MacIntel,60.60606061,8,1,15,0.093741048,-0.000276523,1,0,0,0.7659,rock_grid_rect_2,5,11,-1,-1,0.766,-0.429152866,-0.412820095,1,0,0,1.0861,Obsidian_rect,5,1.086,1,14,0,14,0,1,,,,,,,,,,,,,
60fc66d97941f40870f6e303,TCN,2024-06-24_13h47.10.568,LearnStrategy,2023.2.3,MacIntel,60.60606061,8,1,16,0.060496216,0.004889865,1,0,0,1.4805,rock_grid_rect_2,1,06,-1,-1,1.48,-0.335208333,-0.242847426,1,0,0,1.4722,Andesite_rect,1,1.472,1,15,0,15,0,1,,,,,,,,,,,,,
60fc66d97941f40870f6e303,TCN,2024-06-24_13h47.10.568,LearnStrategy,2023.2.3,MacIntel,60.60606061,8,2,1,,,,,,,,7,10,,,,,,,,,,,7,2.708,1,,,,,,0.133310479,-0.407514106,1,0,0,2.7078,Peridotite_rect,0,0,0,0,1,
60fc66d97941f40870f6e303,TCN,2024-06-24_13h47.10.568,LearnStrategy,2023.2.3,MacIntel,60.60606061,8,2,2,,,,,,,,3,11,,,,,,,,,,,3,1.434,1,,,,,,0.095183173,-0.255599094,1,0,0,1.4339,Diorite_rect,1,0,1,0,1,
60fc66d97941f40870f6e303,TCN,2024-06-24_13h47.10.568,LearnStrategy,2023.2.3,MacIntel,60.60606061,8,2,3,,,,,,,,2,04,,,,,,,,,,,2,1.629,1,,,,,,-0.080280897,-0.243767429,1,0,0,1.6291,Basalt_rect,2,0,2,0,1,
60fc66d97941f40870f6e303,TCN,2024-06-24_13h47.10.568,LearnStrategy,2023.2.3,MacIntel,60.60606061,8,2,4,,,,,,,,1,04,,,,,,,,,,,1,1.403,1,,,,,,-0.344996406,-0.239002686,1,0,0,1.403,Andesite_rect,3,0,3,0,1,
60fc66d97941f40870f6e303,TCN,2024-06-24_13h47.10.568,LearnStrategy,2023.2.3,MacIntel,60.60606061,8,2,5,,,,,,,,1,01,,,,,,,,,,,3,3.752,0,,,,,,0.111454264,-0.244265951,1,0,0,3.7519,Diorite_rect,4,0,4,0,1,
60fc66d97941f40870f6e303,TCN,2024-06-24_13h47.10.568,LearnStrategy,2023.2.3,MacIntel,60.60606061,8,2,6,,,,,,,,4,13,,,,,,,,,,,4,2.452,1,,,,,,0.315478787,-0.257091268,1,0,0,2.4523,Gabbro_rect,5,0,5,0,1,
60fc66d97941f40870f6e303,TCN,2024-06-24_13h47.10.568,LearnStrategy,2023.2.3,MacIntel,60.60606061,8,2,7,,,,,,,,5,10,,,,,,,,,,,5,1.24,1,,,,,,-0.42298584,-0.415894775,1,0,0,1.24,Obsidian_rect,6,0,6,0,1,
60fc66d97941f40870f6e303,TCN,2024-06-24_13h47.10.568,LearnStrategy,2023.2.3,MacIntel,60.60606061,8,2,8,,,,,,,,3,14,,,,,,,,,,,3,3.066,1,,,,,,0.074184842,-0.262680325,1,0,0,3.0665,Diorite_rect,7,0,7,0,1,
60fc66d97941f40870f6e303,TCN,2024-06-24_13h47.10.568,LearnStrategy,2023.2.3,MacIntel,60.60606061,8,2,9,,,,,,,,6,16,,,,,,,,,,,6,1.093,1,,,,,,-0.131738078,-0.394142863,1,0,0,1.093,Pegmatite_rect,8,0,8,0,1,
60fc66d97941f40870f6e303,TCN,2024-06-24_13h47.10.568,LearnStrategy,2023.2.3,MacIntel,60.60606061,8,2,10,,,,,,,,7,02,,,,,,,,,,,7,1.515,1,,,,,,0.091703966,-0.408417087,1,0,0,1.5147,Peridotite_rect,9,0,9,0,1,
60fc66d97941f40870f6e303,TCN,2024-06-24_13h47.10.568,LearnStrategy,2023.2.3,MacIntel,60.60606061,8,2,11,,,,,,,,4,16,,,,,,,,,,,4,4.156,1,,,,,,0.396509738,-0.253865085,1,0,0,4.1563,Gabbro_rect,10,0,10,0,1,
60fc66d97941f40870f6e303,TCN,2024-06-24_13h47.10.568,LearnStrategy,2023.2.3,MacIntel,60.60606061,8,2,12,,,,,,,,2,01,,,,,,,,,,,2,1.105,1,,,,,,-0.086594849,-0.254262967,1,0,0,1.1047,Basalt_rect,11,0,11,0,1,
60fc66d97941f40870f6e303,TCN,2024-06-24_13h47.10.568,LearnStrategy,2023.2.3,MacIntel,60.60606061,8,2,13,,,,,,,,8,06,,,,,,,,,,,8,1.363,1,,,,,,0.393291829,-0.404325968,1,0,0,1.3631,Pumice_rect,12,0,12,0,1,
60fc66d97941f40870f6e303,TCN,2024-06-24_13h47.10.568,LearnStrategy,2023.2.3,MacIntel,60.60606061,8,2,14,,,,,,,,5,06,,,,,,,,,,,5,1.097,1,,,,,,-0.385874363,-0.400805461,1,0,0,1.0968,Obsidian_rect,13,0,13,0,1,
60fc66d97941f40870f6e303,TCN,2024-06-24_13h47.10.568,LearnStrategy,2023.2.3,MacIntel,60.60606061,8,2,15,,,,,,,,8,16,,,,,,,,,,,8,1.468,1,,,,,,0.379909668,-0.397632785,1,0,0,1.4684,Pumice_rect,14,0,14,0,1,
60fc66d97941f40870f6e303,TCN,2024-06-24_13h47.10.568,LearnStrategy,2023.2.3,MacIntel,60.60606061,8,2,16,,,,,,,,6,03,,,,,,,,,,,6,1.652,1,,,,,,-0.064605781,-0.393446723,1,0,0,1.6518,Pegmatite_rect,15,0,15,0,1,
60fc66d97941f40870f6e303,TCN,2024-06-24_13h47.10.568,LearnStrategy,2023.2.3,MacIntel,60.60606061,9,1,1,-0.029667087,-0.001910299,1,0,0,0.9663,rock_grid_rect_2,6,15,-1,-1,0.966,-0.150450033,-0.400817329,1,0,0,2.8137,Pegmatite_rect,6,2.814,1,0,0,0,0,1,,,,,,,,,,,,,
60fc66d97941f40870f6e303,TCN,2024-06-24_13h47.10.568,LearnStrategy,2023.2.3,MacIntel,60.60606061,9,1,2,0.090231323,-0.00622996,1,0,0,1.1809,rock_grid_rect_2,6,12,-1,-1,1.181,-0.098064914,-0.385339084,1,0,0,1.1517,Pegmatite_rect,6,1.152,1,1,0,1,0,1,,,,,,,,,,,,,
60fc66d97941f40870f6e303,TCN,2024-06-24_13h47.10.568,LearnStrategy,2023.2.3,MacIntel,60.60606061,9,1,3,0.107849325,0.005524462,1,0,0,0.897,rock_grid_rect_2,7,06,-1,-1,0.897,0.114268392,-0.400704617,1,0,0,1.2345,Peridotite_rect,7,1.235,1,2,0,2,0,1,,,,,,,,,,,,,
60fc66d97941f40870f6e303,TCN,2024-06-24_13h47.10.568,LearnStrategy,2023.2.3,MacIntel,60.60606061,9,1,4,0.024322984,-0.004425659,1,0,0,0.8799,rock_grid_rect_2,8,08,-1,-1,0.88,0.343084852,-0.393789673,1,0,0,1.3159,Pumice_rect,8,1.316,1,3,0,3,0,1,,,,,,,,,,,,,
60fc66d97941f40870f6e303,TCN,2024-06-24_13h47.10.568,LearnStrategy,2023.2.3,MacIntel,60.60606061,9,1,5,0.022731391,-0.002437948,1,0,0,1.0481,rock_grid_rect_2,3,12,-1,-1,1.048,0.108199938,-0.241143663,1,0,0,1.5057,Diorite_rect,3,1.506,1,4,0,4,0,1,,,,,,,,,,,,,
60fc66d97941f40870f6e303,TCN,2024-06-24_13h47.10.568,LearnStrategy,2023.2.3,MacIntel,60.60606061,9,1,6,0.023097738,-0.012136976,1,0,0,0.981,rock_grid_rect_2,4,15,-1,-1,0.981,0.091361423,-0.239942017,1,0,0,2.0204,Diorite_rect,3,2.02,0,5,0,5,0,1,,,,,,,,,,,,,
60fc66d97941f40870f6e303,TCN,2024-06-24_13h47.10.568,LearnStrategy,2023.2.3,MacIntel,60.60606061,9,1,7,0.053210042,-0.009778137,1,0,0,0.9974,rock_grid_rect_2,8,04,-1,-1,0.997,0.361991781,-0.399406196,1,0,0,1.3848,Pumice_rect,8,1.385,1,6,0,6,0,1,,,,,,,,,,,,,
60fc66d97941f40870f6e303,TCN,2024-06-24_13h47.10.568,LearnStrategy,2023.2.3,MacIntel,60.60606061,9,1,8,0.056714478,-0.001115519,1,0,0,0.9142,rock_grid_rect_2,7,08,-1,-1,0.914,0.096627062,-0.396587253,1,0,0,1.323,Peridotite_rect,7,1.323,1,7,0,7,0,1,,,,,,,,,,,,,
60fc66d97941f40870f6e303,TCN,2024-06-24_13h47.10.568,LearnStrategy,2023.2.3,MacIntel,60.60606061,9,1,9,0.043420478,-0.007341241,1,0,0,0.6989,rock_grid_rect_2,4,10,-1,-1,0.699,0.370331896,-0.251173774,1,0,0,3.7002,Gabbro_rect,4,3.7,1,8,0,8,0,1,,,,,,,,,,,,,
60fc66d97941f40870f6e303,TCN,2024-06-24_13h47.10.568,LearnStrategy,2023.2.3,MacIntel,60.60606061,9,1,10,0.085042386,0.001394179,1,0,0,0.8654,rock_grid_rect_2,1,07,-1,-1,0.865,0.114438205,-0.247717963,1,0,0,2.2678,Diorite_rect,3,2.268,0,9,0,9,0,1,,,,,,,,,,,,,
60fc66d97941f40870f6e303,TCN,2024-06-24_13h47.10.568,LearnStrategy,2023.2.3,MacIntel,60.60606061,9,1,11,0.035238715,-0.014593777,1,0,0,0.9311,rock_grid_rect_2,2,08,-1,-1,0.931,-0.130917358,-0.246137288,1,0,0,1.7695,Basalt_rect,2,1.769,1,10,0,10,0,1,,,,,,,,,,,,,
60fc66d97941f40870f6e303,TCN,2024-06-24_13h47.10.568,LearnStrategy,2023.2.3,MacIntel,60.60606061,9,1,12,-0.016605767,-0.015318129,1,0,0,0.8318,rock_grid_rect_2,2,02,-1,-1,0.832,-0.107288479,-0.253045858,1,0,0,1.5696,Basalt_rect,2,1.57,1,11,0,11,0,1,,,,,,,,,,,,,
60fc66d97941f40870f6e303,TCN,2024-06-24_13h47.10.568,LearnStrategy,2023.2.3,MacIntel,60.60606061,9,1,13,0.036368747,-0.015192329,1,0,0,0.7487,rock_grid_rect_2,1,05,-1,-1,0.749,-0.401462809,-0.269671563,1,0,0,3.9279,Andesite_rect,1,3.928,1,12,0,12,0,1,,,,,,,,,,,,,
60fc66d97941f40870f6e303,TCN,2024-06-24_13h47.10.568,LearnStrategy,2023.2.3,MacIntel,60.60606061,9,1,14,0.035924072,-0.006604309,1,0,0,1.3488,rock_grid_rect_2,3,09,-1,-1,1.349,0.100953234,-0.233398709,1,0,0,1.5934,Diorite_rect,3,1.593,1,13,0,13,0,1,,,,,,,,,,,,,
60fc66d97941f40870f6e303,TCN,2024-06-24_13h47.10.568,LearnStrategy,2023.2.3,MacIntel,60.60606061,9,1,15,0.047616374,-0.001475627,1,0,0,1.2656,rock_grid_rect_2,5,08,-1,-1,1.266,-0.401832275,-0.40965115,1,0,0,1.0857,Obsidian_rect,5,1.086,1,14,0,14,0,1,,,,,,,,,,,,,
60fc66d97941f40870f6e303,TCN,2024-06-24_13h47.10.568,LearnStrategy,2023.2.3,MacIntel,60.60606061,9,1,16,-0.03126492,0.005211928,1,0,0,0.8321,rock_grid_rect_2,5,05,-1,-1,0.832,-0.36560201,-0.392928738,1,0,0,1.2657,Obsidian_rect,5,1.266,1,15,0,15,0,1,,,,,,,,,,,,,
60fc66d97941f40870f6e303,TCN,2024-06-24_13h47.10.568,LearnStrategy,2023.2.3,MacIntel,60.60606061,9,2,1,,,,,,,,1,03,,,,,,,,,,,1,6.216,1,,,,,,-0.385515951,-0.271664768,1,0,0,6.2159,Andesite_rect,0,0,0,0,1,
60fc66d97941f40870f6e303,TCN,2024-06-24_13h47.10.568,LearnStrategy,2023.2.3,MacIntel,60.60606061,9,2,2,,,,,,,,6,10,,,,,,,,,,,6,1.293,1,,,,,,-0.12389879,-0.399289551,1,0,0,1.2926,Pegmatite_rect,1,0,1,0,1,
60fc66d97941f40870f6e303,TCN,2024-06-24_13h47.10.568,LearnStrategy,2023.2.3,MacIntel,60.60606061,9,2,3,,,,,,,,5,12,,,,,,,,,,,5,1.102,1,,,,,,-0.343399523,-0.390805868,1,0,0,1.1018,Obsidian_rect,2,0,2,0,1,
60fc66d97941f40870f6e303,TCN,2024-06-24_13h47.10.568,LearnStrategy,2023.2.3,MacIntel,60.60606061,9,2,4,,,,,,,,4,03,,,,,,,,,,,1,5.788,0,,,,,,-0.425643955,-0.261810506,1,0,0,5.7877,Andesite_rect,3,0,3,0,1,
60fc66d97941f40870f6e303,TCN,2024-06-24_13h47.10.568,LearnStrategy,2023.2.3,MacIntel,60.60606061,9,2,5,,,,,,,,2,10,,,,,,,,,,,4,5.335,0,,,,,,0.359421522,-0.261763713,1,0,0,5.3347,Gabbro_rect,4,0,4,0,1,
60fc66d97941f40870f6e303,TCN,2024-06-24_13h47.10.568,LearnStrategy,2023.2.3,MacIntel,60.60606061,9,2,6,,,,,,,,2,14,,,,,,,,,,,8,3.758,0,,,,,,0.384080268,-0.408666517,1,0,0,3.7581,Pumice_rect,5,0,5,0,1,
60fc66d97941f40870f6e303,TCN,2024-06-24_13h47.10.568,LearnStrategy,2023.2.3,MacIntel,60.60606061,9,2,7,,,,,,,,6,06,,,,,,,,,,,6,3.992,1,,,,,,-0.062476128,-0.406065538,1,0,0,3.9916,Pegmatite_rect,6,0,6,0,1,
60fc66d97941f40870f6e303,TCN,2024-06-24_13h47.10.568,LearnStrategy,2023.2.3,MacIntel,60.60606061,9,2,8,,,,,,,,7,14,,,,,,,,,,,3,3.357,0,,,,,,0.089572618,-0.252180718,1,0,0,3.3567,Diorite_rect,7,0,7,0,1,
60fc66d97941f40870f6e303,TCN,2024-06-24_13h47.10.568,LearnStrategy,2023.2.3,MacIntel,60.60606061,9,2,9,,,,,,,,4,14,,,,,,,,,,,4,2.288,1,,,,,,0.369191759,-0.248654378,1,0,0,2.2882,Gabbro_rect,8,0,8,0,1,
60fc66d97941f40870f6e303,TCN,2024-06-24_13h47.10.568,LearnStrategy,2023.2.3,MacIntel,60.60606061,9,2,10,,,,,,,,8,10,,,,,,,,,,,8,1.215,1,,,,,,0.369673937,-0.408773465,1,0,0,1.2153,Pumice_rect,9,0,9,0,1,
60fc66d97941f40870f6e303,TCN,2024-06-24_13h47.10.568,LearnStrategy,2023.2.3,MacIntel,60.60606061,9,2,11,,,,,,,,7,15,,,,,,,,,,,7,2.651,1,,,,,,0.134735514,-0.402082926,1,0,0,2.6512,Peridotite_rect,10,0,10,0,1,
60fc66d97941f40870f6e303,TCN,2024-06-24_13h47.10.568,LearnStrategy,2023.2.3,MacIntel,60.60606061,9,2,12,,,,,,,,1,14,,,,,,,,,,,1,2.404,1,,,,,,-0.379004754,-0.267008599,1,0,0,2.4036,Andesite_rect,11,0,11,0,1,
60fc66d97941f40870f6e303,TCN,2024-06-24_13h47.10.568,LearnStrategy,2023.2.3,MacIntel,60.60606061,9,2,13,,,,,,,,3,15,,,,,,,,,,,3,1.301,1,,,,,,0.116346029,-0.257099067,1,0,0,1.3005,Diorite_rect,12,0,12,0,1,
60fc66d97941f40870f6e303,TCN,2024-06-24_13h47.10.568,LearnStrategy,2023.2.3,MacIntel,60.60606061,9,2,14,,,,,,,,3,07,,,,,,,,,,,3,3.684,1,,,,,,0.160733032,-0.241103651,1,0,0,3.6836,Diorite_rect,13,0,13,0,1,
60fc66d97941f40870f6e303,TCN,2024-06-24_13h47.10.568,LearnStrategy,2023.2.3,MacIntel,60.60606061,9,2,15,,,,,,,,5,14,,,,,,,,,,,5,1.139,1,,,,,,-0.404658542,-0.405601535,1,0,0,1.1388,Obsidian_rect,14,0,14,0,1,
60fc66d97941f40870f6e303,TCN,2024-06-24_13h47.10.568,LearnStrategy,2023.2.3,MacIntel,60.60606061,9,2,16,,,,,,,,8,02,,,,,,,,,,,8,1.869,1,,,,,,0.40981703,-0.382397054,1,0,0,1.8688,Pumice_rect,15,0,15,0,1,
60fc66d97941f40870f6e303,TCN,2024-06-24_13h47.10.568,LearnStrategy,2023.2.3,MacIntel,60.60606061,,,,,,,,,,,,,,,,,,,,,,,,,,,,,,,,,,,,,,,,,,,1
60fc66d97941f40870f6e303,TCN,2024-06-24_13h47.10.568,LearnStrategy,2023.2.3,MacIntel,60.60606061,,,,,,,,,,,,,,,,,,,,,,,,,,,,,,,,,,,,,,,,,,,
60fc66d97941f40870f6e303,TCN,2024-06-24_13h47.10.568,LearnStrategy,2023.2.3,MacIntel,60.60606061,,,,,,,,,,,1,05,1,1,,,,,,,,,,,,,,,,,,,,,,,,,,,,,
60fc66d97941f40870f6e303,TCN,2024-06-24_13h47.10.568,LearnStrategy,2023.2.3,MacIntel,60.60606061,,,,,,,,,,,3,06,1,2,,,,,,,,,,,,,,,,,,,,,,,,,,,,,
60fc66d97941f40870f6e303,TCN,2024-06-24_13h47.10.568,LearnStrategy,2023.2.3,MacIntel,60.60606061,,,,,,,,,,,6,15,1,3,,,,,,,,,,,,,,,,,,,,,,,,,,,,,
60fc66d97941f40870f6e303,TCN,2024-06-24_13h47.10.568,LearnStrategy,2023.2.3,MacIntel,60.60606061,,,,,,,,,,,2,06,1,4,,,,,,,,,,,,,,,,,,,,,,,,,,,,,
60fc66d97941f40870f6e303,TCN,2024-06-24_13h47.10.568,LearnStrategy,2023.2.3,MacIntel,60.60606061,,,,,,,,,,,1,16,1,5,,,,,,,,,,,,,,,,,,,,,,,,,,,,,
60fc66d97941f40870f6e303,TCN,2024-06-24_13h47.10.568,LearnStrategy,2023.2.3,MacIntel,60.60606061,,,,,,,,,,,2,02,1,6,,,,,,,,,,,,,,,,,,,,,,,,,,,,,
60fc66d97941f40870f6e303,TCN,2024-06-24_13h47.10.568,LearnStrategy,2023.2.3,MacIntel,60.60606061,,,,,,,,,,,8,05,1,7,,,,,,,,,,,,,,,,,,,,,,,,,,,,,
60fc66d97941f40870f6e303,TCN,2024-06-24_13h47.10.568,LearnStrategy,2023.2.3,MacIntel,60.60606061,,,,,,,,,,,7,05,1,8,,,,,,,,,,,,,,,,,,,,,,,,,,,,,
60fc66d97941f40870f6e303,TCN,2024-06-24_13h47.10.568,LearnStrategy,2023.2.3,MacIntel,60.60606061,,,,,,,,,,,7,16,2,1,,,,,,,,,,,,,,,,,,,,,,,,,,,,,
60fc66d97941f40870f6e303,TCN,2024-06-24_13h47.10.568,LearnStrategy,2023.2.3,MacIntel,60.60606061,,,,,,,,,,,2,08,2,2,,,,,,,,,,,,,,,,,,,,,,,,,,,,,
60fc66d97941f40870f6e303,TCN,2024-06-24_13h47.10.568,LearnStrategy,2023.2.3,MacIntel,60.60606061,,,,,,,,,,,5,08,2,3,,,,,,,,,,,,,,,,,,,,,,,,,,,,,
60fc66d97941f40870f6e303,TCN,2024-06-24_13h47.10.568,LearnStrategy,2023.2.3,MacIntel,60.60606061,,,,,,,,,,,4,10,2,4,,,,,,,,,,,,,,,,,,,,,,,,,,,,,
60fc66d97941f40870f6e303,TCN,2024-06-24_13h47.10.568,LearnStrategy,2023.2.3,MacIntel,60.60606061,,,,,,,,,,,4,09,2,5,,,,,,,,,,,,,,,,,,,,,,,,,,,,,
60fc66d97941f40870f6e303,TCN,2024-06-24_13h47.10.568,LearnStrategy,2023.2.3,MacIntel,60.60606061,,,,,,,,,,,6,09,2,6,,,,,,,,,,,,,,,,,,,,,,,,,,,,,
60fc66d97941f40870f6e303,TCN,2024-06-24_13h47.10.568,LearnStrategy,2023.2.3,MacIntel,60.60606061,,,,,,,,,,,7,13,2,7,,,,,,,,,,,,,,,,,,,,,,,,,,,,,
60fc66d97941f40870f6e303,TCN,2024-06-24_13h47.10.568,LearnStrategy,2023.2.3,MacIntel,60.60606061,,,,,,,,,,,3,10,2,8,,,,,,,,,,,,,,,,,,,,,,,,,,,,,
60fc66d97941f40870f6e303,TCN,2024-06-24_13h47.10.568,LearnStrategy,2023.2.3,MacIntel,60.60606061,,,,,,,,,,,1,02,3,1,,,,,,,,,,,,,,,,,,,,,,,,,,,,,
60fc66d97941f40870f6e303,TCN,2024-06-24_13h47.10.568,LearnStrategy,2023.2.3,MacIntel,60.60606061,,,,,,,,,,,2,11,3,2,,,,,,,,,,,,,,,,,,,,,,,,,,,,,
60fc66d97941f40870f6e303,TCN,2024-06-24_13h47.10.568,LearnStrategy,2023.2.3,MacIntel,60.60606061,,,,,,,,,,,3,08,3,3,,,,,,,,,,,,,,,,,,,,,,,,,,,,,
60fc66d97941f40870f6e303,TCN,2024-06-24_13h47.10.568,LearnStrategy,2023.2.3,MacIntel,60.60606061,,,,,,,,,,,7,08,3,4,,,,,,,,,,,,,,,,,,,,,,,,,,,,,
60fc66d97941f40870f6e303,TCN,2024-06-24_13h47.10.568,LearnStrategy,2023.2.3,MacIntel,60.60606061,,,,,,,,,,,5,09,3,5,,,,,,,,,,,,,,,,,,,,,,,,,,,,,
60fc66d97941f40870f6e303,TCN,2024-06-24_13h47.10.568,LearnStrategy,2023.2.3,MacIntel,60.60606061,,,,,,,,,,,8,04,3,6,,,,,,,,,,,,,,,,,,,,,,,,,,,,,
60fc66d97941f40870f6e303,TCN,2024-06-24_13h47.10.568,LearnStrategy,2023.2.3,MacIntel,60.60606061,,,,,,,,,,,5,16,3,7,,,,,,,,,,,,,,,,,,,,,,,,,,,,,
60fc66d97941f40870f6e303,TCN,2024-06-24_13h47.10.568,LearnStrategy,2023.2.3,MacIntel,60.60606061,,,,,,,,,,,4,15,3,8,,,,,,,,,,,,,,,,,,,,,,,,,,,,,
60fc66d97941f40870f6e303,TCN,2024-06-24_13h47.10.568,LearnStrategy,2023.2.3,MacIntel,60.60606061,,,,,,,,,,,8,03,4,1,,,,,,,,,,,,,,,,,,,,,,,,,,,,,
60fc66d97941f40870f6e303,TCN,2024-06-24_13h47.10.568,LearnStrategy,2023.2.3,MacIntel,60.60606061,,,,,,,,,,,2,09,4,2,,,,,,,,,,,,,,,,,,,,,,,,,,,,,
60fc66d97941f40870f6e303,TCN,2024-06-24_13h47.10.568,LearnStrategy,2023.2.3,MacIntel,60.60606061,,,,,,,,,,,1,06,4,3,,,,,,,,,,,,,,,,,,,,,,,,,,,,,
60fc66d97941f40870f6e303,TCN,2024-06-24_13h47.10.568,LearnStrategy,2023.2.3,MacIntel,60.60606061,,,,,,,,,,,8,14,4,4,,,,,,,,,,,,,,,,,,,,,,,,,,,,,
60fc66d97941f40870f6e303,TCN,2024-06-24_13h47.10.568,LearnStrategy,2023.2.3,MacIntel,60.60606061,,,,,,,,,,,3,13,4,5,,,,,,,,,,,,,,,,,,,,,,,,,,,,,
60fc66d97941f40870f6e303,TCN,2024-06-24_13h47.10.568,LearnStrategy,2023.2.3,MacIntel,60.60606061,,,,,,,,,,,6,12,4,6,,,,,,,,,,,,,,,,,,,,,,,,,,,,,
60fc66d97941f40870f6e303,TCN,2024-06-24_13h47.10.568,LearnStrategy,2023.2.3,MacIntel,60.60606061,,,,,,,,,,,5,02,4,7,,,,,,,,,,,,,,,,,,,,,,,,,,,,,
60fc66d97941f40870f6e303,TCN,2024-06-24_13h47.10.568,LearnStrategy,2023.2.3,MacIntel,60.60606061,,,,,,,,,,,6,11,4,8,,,,,,,,,,,,,,,,,,,,,,,,,,,,,
60fc66d97941f40870f6e303,TCN,2024-06-24_13h47.10.568,LearnStrategy,2023.2.3,MacIntel,60.60606061,,,,,,,,,,,5,05,5,1,,,,,,,,,,,,,,,,,,,,,,,,,,,,,
60fc66d97941f40870f6e303,TCN,2024-06-24_13h47.10.568,LearnStrategy,2023.2.3,MacIntel,60.60606061,,,,,,,,,,,7,06,5,2,,,,,,,,,,,,,,,,,,,,,,,,,,,,,
60fc66d97941f40870f6e303,TCN,2024-06-24_13h47.10.568,LearnStrategy,2023.2.3,MacIntel,60.60606061,,,,,,,,,,,8,08,5,3,,,,,,,,,,,,,,,,,,,,,,,,,,,,,
60fc66d97941f40870f6e303,TCN,2024-06-24_13h47.10.568,LearnStrategy,2023.2.3,MacIntel,60.60606061,,,,,,,,,,,4,12,5,4,,,,,,,,,,,,,,,,,,,,,,,,,,,,,
60fc66d97941f40870f6e303,TCN,2024-06-24_13h47.10.568,LearnStrategy,2023.2.3,MacIntel,60.60606061,,,,,,,,,,,3,12,5,5,,,,,,,,,,,,,,,,,,,,,,,,,,,,,
60fc66d97941f40870f6e303,TCN,2024-06-24_13h47.10.568,LearnStrategy,2023.2.3,MacIntel,60.60606061,,,,,,,,,,,3,09,5,6,,,,,,,,,,,,,,,,,,,,,,,,,,,,,
60fc66d97941f40870f6e303,TCN,2024-06-24_13h47.10.568,LearnStrategy,2023.2.3,MacIntel,60.60606061,,,,,,,,,,,1,09,5,7,,,,,,,,,,,,,,,,,,,,,,,,,,,,,
60fc66d97941f40870f6e303,TCN,2024-06-24_13h47.10.568,LearnStrategy,2023.2.3,MacIntel,60.60606061,,,,,,,,,,,4,08,5,8,,,,,,,,,,,,,,,,,,,,,,,,,,,,,
60fc66d97941f40870f6e303,TCN,2024-06-24_13h47.10.568,LearnStrategy,2023.2.3,MacIntel,60.60606061,,,,,,,,,,,1,07,6,1,,,,,,,,,,,,,,,,,,,,,,,,,,,,,
60fc66d97941f40870f6e303,TCN,2024-06-24_13h47.10.568,LearnStrategy,2023.2.3,MacIntel,60.60606061,,,,,,,,,,,4,11,6,2,,,,,,,,,,,,,,,,,,,,,,,,,,,,,
60fc66d97941f40870f6e303,TCN,2024-06-24_13h47.10.568,LearnStrategy,2023.2.3,MacIntel,60.60606061,,,,,,,,,,,2,16,6,3,,,,,,,,,,,,,,,,,,,,,,,,,,,,,
60fc66d97941f40870f6e303,TCN,2024-06-24_13h47.10.568,LearnStrategy,2023.2.3,MacIntel,60.60606061,,,,,,,,,,,8,09,6,4,,,,,,,,,,,,,,,,,,,,,,,,,,,,,
60fc66d97941f40870f6e303,TCN,2024-06-24_13h47.10.568,LearnStrategy,2023.2.3,MacIntel,60.60606061,,,,,,,,,,,6,07,6,5,,,,,,,,,,,,,,,,,,,,,,,,,,,,,
60fc66d97941f40870f6e303,TCN,2024-06-24_13h47.10.568,LearnStrategy,2023.2.3,MacIntel,60.60606061,,,,,,,,,,,6,13,6,6,,,,,,,,,,,,,,,,,,,,,,,,,,,,,
60fc66d97941f40870f6e303,TCN,2024-06-24_13h47.10.568,LearnStrategy,2023.2.3,MacIntel,60.60606061,,,,,,,,,,,7,12,6,7,,,,,,,,,,,,,,,,,,,,,,,,,,,,,
60fc66d97941f40870f6e303,TCN,2024-06-24_13h47.10.568,LearnStrategy,2023.2.3,MacIntel,60.60606061,,,,,,,,,,,5,11,6,8,,,,,,,,,,,,,,,,,,,,,,,,,,,,,