participant,condition,date,expName,psychopyVersion,OS,frameRate,block,phase,trial,learn_mouse.x,learn_mouse.y,learn_mouse.leftButton,learn_mouse.midButton,learn_mouse.rightButton,learn_mouse.time,learn_mouse.clicked_name,cat,token,row,col,t_select,cat_mouse_l.x,cat_mouse_l.y,cat_mouse_l.leftButton,cat_mouse_l.midButton,cat_mouse_l.rightButton,cat_mouse_l.time,cat_mouse_l.clicked_name,resp,t_resp,corr,train_trials.thisRepN,train_trials.thisTrialN,train_trials.thisN,train_trials.thisIndex,train_trials.ran,cat_mouse_t.x,cat_mouse_t.y,cat_mouse_t.leftButton,cat_mouse_t.midButton,cat_mouse_t.rightButton,cat_mouse_t.time,cat_mouse_t.clicked_name,test_trials.thisRepN,test_trials.thisTrialN,test_trials.thisN,test_trials.thisIndex,test_trials.ran,Bonus
60fda8f418c64ff072d22378,SCN,2024-06-25_09h57.41.558,LearnStrategy,2023.2.3,Win32,142.8571429,,,,,,,,,,,,,,,,,,,,,,,,,,,,,,,,,,,,,,,,,,,
60fda8f418c64ff072d22378,SCN,2024-06-25_09h57.41.558,LearnStrategy,2023.2.3,Win32,142.8571429,1,1,1,-0.557407407,0.075925926,1,0,0,3.6825,Peridotite_13,7,13,4,1,3.683,0.202777778,-0.257407407,1,0,0,5.4266,Diorite_rect,3,5.427,0,0,0,0,0,1,,,,,,,,,,,,,
60fda8f418c64ff072d22378,SCN,2024-06-25_09h57.41.558,LearnStrategy,2023.2.3,Win32,142.8571429,1,1,2,-0.205555556,-0.084259259,1,0,0,3.3619,Obsidian_12,5,12,3,3,3.362,-0.382407407,-0.410185185,1,0,0,1.6664,Obsidian_rect,5,1.666,1,1,0,1,0,1,,,,,,,,,,,,,
60fda8f418c64ff072d22378,SCN,2024-06-25_09h57.41.558,LearnStrategy,2023.2.3,Win32,142.8571429,1,1,3,0.233333333,0.251851852,1,0,0,6.3822,Diorite_16,3,16,5,6,6.382,-0.058333333,-0.22962963,1,0,0,1.7582,Basalt_rect,2,1.758,0,2,0,2,0,1,,,,,,,,,,,,,
60fda8f418c64ff072d22378,SCN,2024-06-25_09h57.41.558,LearnStrategy,2023.2.3,Win32,142.8571429,1,1,4,-0.069444444,-0.411111111,1,0,0,1.6665,Diorite_08,3,08,1,4,1.666,-0.422222222,-0.255555556,1,0,0,2.4786,Andesite_rect,1,2.479,0,3,0,3,0,1,,,,,,,,,,,,,
60fda8f418c64ff072d22378,SCN,2024-06-25_09h57.41.558,LearnStrategy,2023.2.3,Win32,142.8571429,1,1,5,-0.242592593,0.076851852,1,0,0,4.736,Pumice_06,8,06,4,3,4.736,0.385185185,-0.412037037,1,0,0,3.2567,Pumice_rect,8,3.257,1,4,0,4,0,1,,,,,,,,,,,,,
60fda8f418c64ff072d22378,SCN,2024-06-25_09h57.41.558,LearnStrategy,2023.2.3,Win32,142.8571429,1,1,6,0.398148148,-0.098148148,1,0,0,7.8958,Pumice_16,8,16,3,7,7.896,0.427777778,-0.243518519,1,0,0,1.2412,Gabbro_rect,4,1.241,0,5,0,5,0,1,,,,,,,,,,,,,
60fda8f418c64ff072d22378,SCN,2024-06-25_09h57.41.558,LearnStrategy,2023.2.3,Win32,142.8571429,1,1,7,0.064814815,0.416666667,1,0,0,4.1068,Basalt_11,2,11,6,5,4.107,-0.151851852,-0.259259259,1,0,0,1.0303,Basalt_rect,2,1.03,1,6,0,6,0,1,,,,,,,,,,,,,
60fda8f418c64ff072d22378,SCN,2024-06-25_09h57.41.558,LearnStrategy,2023.2.3,Win32,142.8571429,1,1,8,0.530555556,0.397222222,1,0,0,3.0843,Pumice_02,8,02,6,8,3.084,0.333333333,-0.247222222,1,0,0,1.3904,Gabbro_rect,4,1.39,0,7,0,7,0,1,,,,,,,,,,,,,
60fda8f418c64ff072d22378,SCN,2024-06-25_09h57.41.558,LearnStrategy,2023.2.3,Win32,142.8571429,1,1,9,0.077777778,-0.126851852,1,0,0,2.8299,Peridotite_14,7,14,3,5,2.83,-0.078703704,-0.412962963,1,0,0,1.5907,Pegmatite_rect,6,1.591,0,8,0,8,0,1,,,,,,,,,,,,,
60fda8f418c64ff072d22378,SCN,2024-06-25_09h57.41.558,LearnStrategy,2023.2.3,Win32,142.8571429,1,1,10,-0.361111111,0.236111111,1,0,0,6.2095,Diorite_15,3,15,5,2,6.21,-0.083333333,-0.250925926,1,0,0,1.0944,Basalt_rect,2,1.094,0,9,0,9,0,1,,,,,,,,,,,,,
60fda8f418c64ff072d22378,SCN,2024-06-25_09h57.41.558,LearnStrategy,2023.2.3,Win32,142.8571429,1,1,11,-0.391666667,-0.412962963,1,0,0,1.1699,Basalt_10,2,10,1,2,1.17,-0.10462963,-0.405555556,1,0,0,1.5053,Pegmatite_rect,6,1.505,0,10,0,10,0,1,,,,,,,,,,,,,
60fda8f418c64ff072d22378,SCN,2024-06-25_09h57.41.558,LearnStrategy,2023.2.3,Win32,142.8571429,1,1,12,-0.549074074,-0.097222222,1,0,0,2.698,Pegmatite_05,6,05,3,1,2.698,0.142592593,-0.257407407,1,0,0,0.9171,Diorite_rect,3,0.917,0,11,0,11,0,1,,,,,,,,,,,,,
60fda8f418c64ff072d22378,SCN,2024-06-25_09h57.41.558,LearnStrategy,2023.2.3,Win32,142.8571429,1,1,13,-0.223148148,0.440740741,1,0,0,3.837,Pegmatite_09,6,09,6,3,3.837,-0.199074074,-0.409259259,1,0,0,1.8472,Pegmatite_rect,6,1.847,1,12,0,12,0,1,,,,,,,,,,,,,
60fda8f418c64ff072d22378,SCN,2024-06-25_09h57.41.558,LearnStrategy,2023.2.3,Win32,142.8571429,1,1,14,0.074074074,0.098148148,1,0,0,1.1421,Pegmatite_16,6,16,4,5,1.142,-0.177777778,-0.399074074,1,0,0,1.0121,Pegmatite_rect,6,1.012,1,13,0,13,0,1,,,,,,,,,,,,,
60fda8f418c64ff072d22378,SCN,2024-06-25_09h57.41.558,LearnStrategy,2023.2.3,Win32,142.8571429,1,1,15,0.109259259,-0.272222222,1,0,0,4.8302,Pegmatite_06,6,06,2,5,4.83,-0.075925926,-0.410185185,1,0,0,1.8222,Pegmatite_rect,6,1.822,1,14,0,14,0,1,,,,,,,,,,,,,
60fda8f418c64ff072d22378,SCN,2024-06-25_09h57.41.558,LearnStrategy,2023.2.3,Win32,142.8571429,1,1,16,-0.410185185,0.407407407,1,0,0,2.93,Basalt_09,2,09,6,2,2.93,0.39537037,-0.40462963,1,0,0,1.8874,Pumice_rect,8,1.887,0,15,0,15,0,1,,,,,,,,,,,,,
60fda8f418c64ff072d22378,SCN,2024-06-25_09h57.41.558,LearnStrategy,2023.2.3,Win32,142.8571429,1,2,1,,,,,,,,7,16,,,,,,,,,,,7,2.728,1,,,,,,0.134259259,-0.400925926,1,0,0,2.7283,Peridotite_rect,0,0,0,0,1,
60fda8f418c64ff072d22378,SCN,2024-06-25_09h57.41.558,LearnStrategy,2023.2.3,Win32,142.8571429,1,2,2,,,,,,,,7,05,,,,,,,,,,,7,2.624,1,,,,,,0.130555556,-0.412962963,1,0,0,2.6241,Peridotite_rect,1,0,1,0,1,
60fda8f418c64ff072d22378,SCN,2024-06-25_09h57.41.558,LearnStrategy,2023.2.3,Win32,142.8571429,1,2,3,,,,,,,,5,09,,,,,,,,,,,5,3.088,1,,,,,,-0.375925926,-0.4,1,0,0,3.0879,Obsidian_rect,2,0,2,0,1,
60fda8f418c64ff072d22378,SCN,2024-06-25_09h57.41.558,LearnStrategy,2023.2.3,Win32,142.8571429,1,2,4,,,,,,,,1,16,,,,,,,,,,,3,2.861,0,,,,,,0.130555556,-0.251851852,1,0,0,2.8614,Diorite_rect,3,0,3,0,1,
60fda8f418c64ff072d22378,SCN,2024-06-25_09h57.41.558,LearnStrategy,2023.2.3,Win32,142.8571429,1,2,5,,,,,,,,6,10,,,,,,,,,,,7,2.046,0,,,,,,0.101851852,-0.402777778,1,0,0,2.0461,Peridotite_rect,4,0,4,0,1,
60fda8f418c64ff072d22378,SCN,2024-06-25_09h57.41.558,LearnStrategy,2023.2.3,Win32,142.8571429,1,2,6,,,,,,,,5,08,,,,,,,,,,,5,2.133,1,,,,,,-0.386111111,-0.410185185,1,0,0,2.1329,Obsidian_rect,5,0,5,0,1,
60fda8f418c64ff072d22378,SCN,2024-06-25_09h57.41.558,LearnStrategy,2023.2.3,Win32,142.8571429,1,2,7,,,,,,,,4,12,,,,,,,,,,,2,2.583,0,,,,,,-0.147222222,-0.255555556,1,0,0,2.5828,Basalt_rect,6,0,6,0,1,
60fda8f418c64ff072d22378,SCN,2024-06-25_09h57.41.558,LearnStrategy,2023.2.3,Win32,142.8571429,1,2,8,,,,,,,,3,02,,,,,,,,,,,3,5.152,1,,,,,,0.137037037,-0.255555556,1,0,0,5.1516,Diorite_rect,7,0,7,0,1,
60fda8f418c64ff072d22378,SCN,2024-06-25_09h57.41.558,LearnStrategy,2023.2.3,Win32,142.8571429,1,2,9,,,,,,,,8,08,,,,,,,,,,,8,4.458,1,,,,,,0.4,-0.411111111,1,0,0,4.4575,Pumice_rect,8,0,8,0,1,
60fda8f418c64ff072d22378,SCN,2024-06-25_09h57.41.558,LearnStrategy,2023.2.3,Win32,142.8571429,1,2,10,,,,,,,,2,02,,,,,,,,,,,2,1.422,1,,,,,,-0.091666667,-0.255555556,1,0,0,1.4221,Basalt_rect,9,0,9,0,1,
60fda8f418c64ff072d22378,SCN,2024-06-25_09h57.41.558,LearnStrategy,2023.2.3,Win32,142.8571429,1,2,11,,,,,,,,3,12,,,,,,,,,,,3,3.378,1,,,,,,0.099074074,-0.262037037,1,0,0,3.3776,Diorite_rect,10,0,10,0,1,
60fda8f418c64ff072d22378,SCN,2024-06-25_09h57.41.558,LearnStrategy,2023.2.3,Win32,142.8571429,1,2,12,,,,,,,,2,12,,,,,,,,,,,8,1.81,0,,,,,,0.402777778,-0.391666667,1,0,0,1.8097,Pumice_rect,11,0,11,0,1,
60fda8f418c64ff072d22378,SCN,2024-06-25_09h57.41.558,LearnStrategy,2023.2.3,Win32,142.8571429,1,2,13,,,,,,,,4,05,,,,,,,,,,,2,6.315,0,,,,,,-0.116666667,-0.267592593,1,0,0,6.3145,Basalt_rect,12,0,12,0,1,
60fda8f418c64ff072d22378,SCN,2024-06-25_09h57.41.558,LearnStrategy,2023.2.3,Win32,142.8571429,1,2,14,,,,,,,,6,12,,,,,,,,,,,6,5.206,1,,,,,,-0.102777778,-0.394444444,1,0,0,5.2061,Pegmatite_rect,13,0,13,0,1,
60fda8f418c64ff072d22378,SCN,2024-06-25_09h57.41.558,LearnStrategy,2023.2.3,Win32,142.8571429,1,2,15,,,,,,,,8,15,,,,,,,,,,,8,1.707,1,,,,,,0.44537037,-0.412962963,1,0,0,1.7068,Pumice_rect,14,0,14,0,1,
60fda8f418c64ff072d22378,SCN,2024-06-25_09h57.41.558,LearnStrategy,2023.2.3,Win32,142.8571429,1,2,16,,,,,,,,1,01,,,,,,,,,,,3,2.921,0,,,,,,0.137962963,-0.260185185,1,0,0,2.9207,Diorite_rect,15,0,15,0,1,
60fda8f418c64ff072d22378,SCN,2024-06-25_09h57.41.558,LearnStrategy,2023.2.3,Win32,142.8571429,2,1,1,-0.381481481,-0.385185185,1,0,0,11.015,Basalt_10,2,10,1,2,11.015,-0.082407407,-0.25,1,0,0,1.0471,Basalt_rect,2,1.047,1,0,0,0,0,1,,,,,,,,,,,,,
60fda8f418c64ff072d22378,SCN,2024-06-25_09h57.41.558,LearnStrategy,2023.2.3,Win32,142.8571429,2,1,2,0.244444444,-0.260185185,1,0,0,2.566,Andesite_03,1,03,2,6,2.566,-0.094444444,-0.248148148,1,0,0,0.8331,Basalt_rect,2,0.833,0,1,0,1,0,1,,,,,,,,,,,,,
60fda8f418c64ff072d22378,SCN,2024-06-25_09h57.41.558,LearnStrategy,2023.2.3,Win32,142.8571429,2,1,3,0.073148148,0.398148148,1,0,0,6.3447,Basalt_11,2,11,6,5,6.345,-0.337037037,-0.238888889,1,0,0,1.0566,Andesite_rect,1,1.057,0,2,0,2,0,1,,,,,,,,,,,,,
60fda8f418c64ff072d22378,SCN,2024-06-25_09h57.41.558,LearnStrategy,2023.2.3,Win32,142.8571429,2,1,4,0.57037037,-0.265740741,1,0,0,4.5718,Gabbro_11,4,11,2,8,4.572,-0.127777778,-0.264814815,1,0,0,1.1652,Basalt_rect,2,1.165,0,3,0,3,0,1,,,,,,,,,,,,,
60fda8f418c64ff072d22378,SCN,2024-06-25_09h57.41.558,LearnStrategy,2023.2.3,Win32,142.8571429,2,1,5,0.112962963,-0.409259259,1,0,0,3.8985,Pumice_09,8,09,1,5,3.899,0.407407407,-0.393518519,1,0,0,0.5151,Pumice_rect,8,0.515,1,4,0,4,0,1,,,,,,,,,,,,,
60fda8f418c64ff072d22378,SCN,2024-06-25_09h57.41.558,LearnStrategy,2023.2.3,Win32,142.8571429,2,1,6,0.083333333,-0.118518519,1,0,0,4.9833,Peridotite_14,7,14,3,5,4.983,0.1,-0.407407407,1,0,0,2.0051,Peridotite_rect,7,2.005,1,5,0,5,0,1,,,,,,,,,,,,,
60fda8f418c64ff072d22378,SCN,2024-06-25_09h57.41.558,LearnStrategy,2023.2.3,Win32,142.8571429,2,1,7,-0.265740741,0.239814815,1,0,0,2.8397,Andesite_09,1,09,5,3,2.84,-0.383333333,-0.262037037,1,0,0,3.6464,Andesite_rect,1,3.646,1,6,0,6,0,1,,,,,,,,,,,,,
60fda8f418c64ff072d22378,SCN,2024-06-25_09h57.41.558,LearnStrategy,2023.2.3,Win32,142.8571429,2,1,8,0.109259259,0.386111111,1,0,0,2.4783,Basalt_11,2,11,6,5,2.478,-0.143518519,-0.267592593,1,0,0,1.8961,Basalt_rect,2,1.896,1,7,0,7,0,1,,,,,,,,,,,,,
60fda8f418c64ff072d22378,SCN,2024-06-25_09h57.41.558,LearnStrategy,2023.2.3,Win32,142.8571429,2,1,9,-0.374074074,-0.080555556,1,0,0,2.6313,Basalt_01,2,01,3,2,2.631,-0.102777778,-0.247222222,1,0,0,1.0661,Basalt_rect,2,1.066,1,8,0,8,0,1,,,,,,,,,,,,,
60fda8f418c64ff072d22378,SCN,2024-06-25_09h57.41.558,LearnStrategy,2023.2.3,Win32,142.8571429,2,1,10,0.362962963,-0.115740741,1,0,0,2.1191,Pumice_16,8,16,3,7,2.119,0.387962963,-0.403703704,1,0,0,0.5891,Pumice_rect,8,0.589,1,9,0,9,0,1,,,,,,,,,,,,,
60fda8f418c64ff072d22378,SCN,2024-06-25_09h57.41.558,LearnStrategy,2023.2.3,Win32,142.8571429,2,1,11,0.388888889,0.37962963,1,0,0,2.1094,Basalt_05,2,05,6,7,2.109,0.475,-0.252777778,1,0,0,0.8164,Gabbro_rect,4,0.816,0,10,0,10,0,1,,,,,,,,,,,,,
60fda8f418c64ff072d22378,SCN,2024-06-25_09h57.41.558,LearnStrategy,2023.2.3,Win32,142.8571429,2,1,12,-0.363888889,-0.408333333,1,0,0,1.27,Basalt_10,2,10,1,2,1.27,0.409259259,-0.262962963,1,0,0,1.5652,Gabbro_rect,4,1.565,0,11,0,11,0,1,,,,,,,,,,,,,
60fda8f418c64ff072d22378,SCN,2024-06-25_09h57.41.558,LearnStrategy,2023.2.3,Win32,142.8571429,2,1,13,-0.57037037,-0.080555556,1,0,0,1.6522,Pegmatite_05,6,05,3,1,1.652,-0.092592593,-0.412037037,1,0,0,1.756,Pegmatite_rect,6,1.756,1,12,0,12,0,1,,,,,,,,,,,,,
60fda8f418c64ff072d22378,SCN,2024-06-25_09h57.41.558,LearnStrategy,2023.2.3,Win32,142.8571429,2,1,14,-0.410185185,0.221296296,1,0,0,1.5488,Diorite_15,3,15,5,2,1.549,-0.356481481,-0.25,1,0,0,3.3935,Andesite_rect,1,3.394,0,13,0,13,0,1,,,,,,,,,,,,,
60fda8f418c64ff072d22378,SCN,2024-06-25_09h57.41.558,LearnStrategy,2023.2.3,Win32,142.8571429,2,1,15,-0.369444444,0.244444444,1,0,0,5.739,Diorite_15,3,15,5,2,5.739,0.142592593,-0.249074074,1,0,0,1.3051,Diorite_rect,3,1.305,1,14,0,14,0,1,,,,,,,,,,,,,
60fda8f418c64ff072d22378,SCN,2024-06-25_09h57.41.558,LearnStrategy,2023.2.3,Win32,142.8571429,2,1,16,-0.122222222,0.25462963,1,0,0,1.7191,Andesite_11,1,11,5,4,1.719,-0.335185185,-0.241666667,1,0,0,1.8391,Andesite_rect,1,1.839,1,15,0,15,0,1,,,,,,,,,,,,,
60fda8f418c64ff072d22378,SCN,2024-06-25_09h57.41.558,LearnStrategy,2023.2.3,Win32,142.8571429,2,2,1,,,,,,,,5,05,,,,,,,,,,,5,2.529,1,,,,,,-0.380555556,-0.412037037,1,0,0,2.5292,Obsidian_rect,0,0,0,0,1,
60fda8f418c64ff072d22378,SCN,2024-06-25_09h57.41.558,LearnStrategy,2023.2.3,Win32,142.8571429,2,2,2,,,,,,,,4,10,,,,,,,,,,,2,2.546,0,,,,,,-0.126851852,-0.251851852,1,0,0,2.5457,Basalt_rect,1,0,1,0,1,
60fda8f418c64ff072d22378,SCN,2024-06-25_09h57.41.558,LearnStrategy,2023.2.3,Win32,142.8571429,2,2,3,,,,,,,,8,14,,,,,,,,,,,8,1.839,1,,,,,,0.450925926,-0.40462963,1,0,0,1.8391,Pumice_rect,2,0,2,0,1,
60fda8f418c64ff072d22378,SCN,2024-06-25_09h57.41.558,LearnStrategy,2023.2.3,Win32,142.8571429,2,2,4,,,,,,,,7,04,,,,,,,,,,,1,3.514,0,,,,,,-0.447222222,-0.232407407,1,0,0,3.5135,Andesite_rect,3,0,3,0,1,
60fda8f418c64ff072d22378,SCN,2024-06-25_09h57.41.558,LearnStrategy,2023.2.3,Win32,142.8571429,2,2,5,,,,,,,,8,04,,,,,,,,,,,8,1.805,1,,,,,,0.460185185,-0.418518519,1,0,0,1.8055,Pumice_rect,4,0,4,0,1,
60fda8f418c64ff072d22378,SCN,2024-06-25_09h57.41.558,LearnStrategy,2023.2.3,Win32,142.8571429,2,2,6,,,,,,,,4,15,,,,,,,,,,,3,4.829,0,,,,,,0.092592593,-0.263888889,1,0,0,4.8292,Diorite_rect,5,0,5,0,1,
60fda8f418c64ff072d22378,SCN,2024-06-25_09h57.41.558,LearnStrategy,2023.2.3,Win32,142.8571429,2,2,7,,,,,,,,6,15,,,,,,,,,,,6,1.69,1,,,,,,-0.090740741,-0.410185185,1,0,0,1.6897,Pegmatite_rect,6,0,6,0,1,
60fda8f418c64ff072d22378,SCN,2024-06-25_09h57.41.558,LearnStrategy,2023.2.3,Win32,142.8571429,2,2,8,,,,,,,,1,07,,,,,,,,,,,3,4.088,0,,,,,,0.12037037,-0.248148148,1,0,0,4.0884,Diorite_rect,7,0,7,0,1,
60fda8f418c64ff072d22378,SCN,2024-06-25_09h57.41.558,LearnStrategy,2023.2.3,Win32,142.8571429,2,2,9,,,,,,,,3,09,,,,,,,,,,,3,1.187,1,,,,,,0.137037037,-0.247222222,1,0,0,1.1872,Diorite_rect,8,0,8,0,1,
60fda8f418c64ff072d22378,SCN,2024-06-25_09h57.41.558,LearnStrategy,2023.2.3,Win32,142.8571429,2,2,10,,,,,,,,1,05,,,,,,,,,,,1,2.933,1,,,,,,-0.4,-0.260185185,1,0,0,2.9328,Andesite_rect,9,0,9,0,1,
60fda8f418c64ff072d22378,SCN,2024-06-25_09h57.41.558,LearnStrategy,2023.2.3,Win32,142.8571429,2,2,11,,,,,,,,5,02,,,,,,,,,,,5,1.671,1,,,,,,-0.388888889,-0.396296296,1,0,0,1.6711,Obsidian_rect,10,0,10,0,1,
60fda8f418c64ff072d22378,SCN,2024-06-25_09h57.41.558,LearnStrategy,2023.2.3,Win32,142.8571429,2,2,12,,,,,,,,7,07,,,,,,,,,,,3,1.876,0,,,,,,0.125925926,-0.260185185,1,0,0,1.8763,Diorite_rect,11,0,11,0,1,
60fda8f418c64ff072d22378,SCN,2024-06-25_09h57.41.558,LearnStrategy,2023.2.3,Win32,142.8571429,2,2,13,,,,,,,,6,07,,,,,,,,,,,6,1.179,1,,,,,,-0.112962963,-0.414814815,1,0,0,1.1787,Pegmatite_rect,12,0,12,0,1,
60fda8f418c64ff072d22378,SCN,2024-06-25_09h57.41.558,LearnStrategy,2023.2.3,Win32,142.8571429,2,2,14,,,,,,,,2,06,,,,,,,,,,,2,1.716,1,,,,,,-0.121296296,-0.24537037,1,0,0,1.7162,Basalt_rect,13,0,13,0,1,
60fda8f418c64ff072d22378,SCN,2024-06-25_09h57.41.558,LearnStrategy,2023.2.3,Win32,142.8571429,2,2,15,,,,,,,,2,14,,,,,,,,,,,4,4.964,0,,,,,,0.393518519,-0.253703704,1,0,0,4.9642,Gabbro_rect,14,0,14,0,1,
60fda8f418c64ff072d22378,SCN,2024-06-25_09h57.41.558,LearnStrategy,2023.2.3,Win32,142.8571429,2,2,16,,,,,,,,3,13,,,,,,,,,,,3,1.816,1,,,,,,0.114814815,-0.253703704,1,0,0,1.8161,Diorite_rect,15,0,15,0,1,
60fda8f418c64ff072d22378,SCN,2024-06-25_09h57.41.558,LearnStrategy,2023.2.3,Win32,142.8571429,3,1,1,0.069444444,-0.117592593,1,0,0,1.9699,Peridotite_14,7,14,3,5,1.97,0.162037037,-0.414814815,1,0,0,0.8632,Peridotite_rect,7,0.863,1,0,0,0,0,1,,,,,,,,,,,,,
60fda8f418c64ff072d22378,SCN,2024-06-25_09h57.41.558,LearnStrategy,2023.2.3,Win32,142.8571429,3,1,2,0.258333333,-0.425,1,0,0,0.8112,Peridotite_06,7,06,1,6,0.811,-0.137962963,-0.409259259,1,0,0,0.9169,Pegmatite_rect,6,0.917,0,1,0,1,0,1,,,,,,,,,,,,,
60fda8f418c64ff072d22378,SCN,2024-06-25_09h57.41.558,LearnStrategy,2023.2.3,Win32,142.8571429,3,1,3,0.526851852,0.381481481,1,0,0,1.8611,Pumice_02,8,02,6,8,1.861,0.412962963,-0.403703704,1,0,0,1.9399,Pumice_rect,8,1.94,1,2,0,2,0,1,,,,,,,,,,,,,
60fda8f418c64ff072d22378,SCN,2024-06-25_09h57.41.558,LearnStrategy,2023.2.3,Win32,142.8571429,3,1,4,0.555555556,0.084259259,1,0,0,1.2741,Pegmatite_03,6,03,4,8,1.274,0.097222222,-0.389814815,1,0,0,1.4928,Peridotite_rect,7,1.493,0,3,0,3,0,1,,,,,,,,,,,,,
60fda8f418c64ff072d22378,SCN,2024-06-25_09h57.41.558,LearnStrategy,2023.2.3,Win32,142.8571429,3,1,5,-0.058333333,0.087037037,1,0,0,1.2819,Gabbro_16,4,16,4,4,1.282,0.353703704,-0.257407407,1,0,0,1.6509,Gabbro_rect,4,1.651,1,4,0,4,0,1,,,,,,,,,,,,,
60fda8f418c64ff072d22378,SCN,2024-06-25_09h57.41.558,LearnStrategy,2023.2.3,Win32,142.8571429,3,1,6,0.078703704,-0.281481481,1,0,0,3.4336,Pegmatite_06,6,06,2,5,3.434,0.352777778,-0.237962963,1,0,0,1.1188,Gabbro_rect,4,1.119,0,5,0,5,0,1,,,,,,,,,,,,,
60fda8f418c64ff072d22378,SCN,2024-06-25_09h57.41.558,LearnStrategy,2023.2.3,Win32,142.8571429,3,1,7,-0.198148148,-0.405555556,1,0,0,2.5763,Gabbro_14,4,14,1,3,2.576,0.363888889,-0.257407407,1,0,0,0.8733,Gabbro_rect,4,0.873,1,6,0,6,0,1,,,,,,,,,,,,,
60fda8f418c64ff072d22378,SCN,2024-06-25_09h57.41.558,LearnStrategy,2023.2.3,Win32,142.8571429,3,1,8,-0.22962963,-0.275,1,0,0,0.8742,Basalt_16,2,16,2,3,0.874,0.399074074,-0.249074074,1,0,0,0.7334,Gabbro_rect,4,0.733,0,7,0,7,0,1,,,,,,,,,,,,,
60fda8f418c64ff072d22378,SCN,2024-06-25_09h57.41.558,LearnStrategy,2023.2.3,Win32,142.8571429,3,1,9,-0.37962963,-0.402777778,1,0,0,1.1271,Basalt_10,2,10,1,2,1.127,0.385185185,-0.259259259,1,0,0,0.8613,Gabbro_rect,4,0.861,0,8,0,8,0,1,,,,,,,,,,,,,
60fda8f418c64ff072d22378,SCN,2024-06-25_09h57.41.558,LearnStrategy,2023.2.3,Win32,142.8571429,3,1,10,0.391666667,0.106481481,1,0,0,2.6273,Obsidian_07,5,07,4,7,2.627,-0.326851852,-0.402777778,1,0,0,1.7014,Obsidian_rect,5,1.701,1,9,0,9,0,1,,,,,,,,,,,,,
60fda8f418c64ff072d22378,SCN,2024-06-25_09h57.41.558,LearnStrategy,2023.2.3,Win32,142.8571429,3,1,11,0.407407407,-0.424074074,1,0,0,1.2779,Pumice_10,8,10,1,7,1.278,0.396296296,-0.407407407,1,0,0,0.5078,Pumice_rect,8,0.508,1,10,0,10,0,1,,,,,,,,,,,,,
60fda8f418c64ff072d22378,SCN,2024-06-25_09h57.41.558,LearnStrategy,2023.2.3,Win32,142.8571429,3,1,12,-0.521296296,0.222222222,1,0,0,2.5202,Diorite_10,3,10,5,1,2.52,0.168518519,-0.259259259,1,0,0,0.856,Diorite_rect,3,0.856,1,11,0,11,0,1,,,,,,,,,,,,,
60fda8f418c64ff072d22378,SCN,2024-06-25_09h57.41.558,LearnStrategy,2023.2.3,Win32,142.8571429,3,1,13,-0.096296296,0.083333333,1,0,0,2.7337,Gabbro_16,4,16,4,4,2.734,0.452777778,-0.27037037,1,0,0,1.9117,Gabbro_rect,4,1.912,1,12,0,12,0,1,,,,,,,,,,,,,
60fda8f418c64ff072d22378,SCN,2024-06-25_09h57.41.558,LearnStrategy,2023.2.3,Win32,142.8571429,3,1,14,0.05462963,0.391666667,1,0,0,2.5205,Basalt_11,2,11,6,5,2.52,0.411111111,-0.42037037,1,0,0,1.4468,Pumice_rect,8,1.447,0,13,0,13,0,1,,,,,,,,,,,,,
60fda8f418c64ff072d22378,SCN,2024-06-25_09h57.41.558,LearnStrategy,2023.2.3,Win32,142.8571429,3,1,15,0.210185185,0.388888889,1,0,0,0.8461,Peridotite_15,7,15,6,6,0.846,0.17962963,-0.409259259,1,0,0,1.001,Peridotite_rect,7,1.001,1,14,0,14,0,1,,,,,,,,,,,,,
60fda8f418c64ff072d22378,SCN,2024-06-25_09h57.41.558,LearnStrategy,2023.2.3,Win32,142.8571429,3,1,16,0.428703704,0.417592593,1,0,0,0.9512,Basalt_05,2,05,6,7,0.951,-0.130555556,-0.252777778,1,0,0,0.9277,Basalt_rect,2,0.928,1,15,0,15,0,1,,,,,,,,,,,,,
60fda8f418c64ff072d22378,SCN,2024-06-25_09h57.41.558,LearnStrategy,2023.2.3,Win32,142.8571429,3,2,1,,,,,,,,3,11,,,,,,,,,,,3,1.087,1,,,,,,0.085185185,-0.252777778,1,0,0,1.0872,Diorite_rect,0,0,0,0,1,
60fda8f418c64ff072d22378,SCN,2024-06-25_09h57.41.558,LearnStrategy,2023.2.3,Win32,142.8571429,3,2,2,,,,,,,,8,13,,,,,,,,,,,8,2.858,1,,,,,,0.396296296,-0.415740741,1,0,0,2.8578,Pumice_rect,1,0,1,0,1,
60fda8f418c64ff072d22378,SCN,2024-06-25_09h57.41.558,LearnStrategy,2023.2.3,Win32,142.8571429,3,2,3,,,,,,,,6,08,,,,,,,,,,,6,1.677,1,,,,,,-0.126851852,-0.416666667,1,0,0,1.6768,Pegmatite_rect,2,0,2,0,1,
60fda8f418c64ff072d22378,SCN,2024-06-25_09h57.41.558,LearnStrategy,2023.2.3,Win32,142.8571429,3,2,4,,,,,,,,5,10,,,,,,,,,,,5,1.693,1,,,,,,-0.35462963,-0.401851852,1,0,0,1.6935,Obsidian_rect,3,0,3,0,1,
60fda8f418c64ff072d22378,SCN,2024-06-25_09h57.41.558,LearnStrategy,2023.2.3,Win32,142.8571429,3,2,5,,,,,,,,6,11,,,,,,,,,,,6,2.51,1,,,,,,-0.096296296,-0.416666667,1,0,0,2.51,Pegmatite_rect,4,0,4,0,1,
60fda8f418c64ff072d22378,SCN,2024-06-25_09h57.41.558,LearnStrategy,2023.2.3,Win32,142.8571429,3,2,6,,,,,,,,4,01,,,,,,,,,,,3,4.558,0,,,,,,0.10462963,-0.232407407,1,0,0,4.5576,Diorite_rect,5,0,5,0,1,
60fda8f418c64ff072d22378,SCN,2024-06-25_09h57.41.558,LearnStrategy,2023.2.3,Win32,142.8571429,3,2,7,,,,,,,,2,04,,,,,,,,,,,2,3.834,1,,,,,,-0.106481481,-0.264814815,1,0,0,3.8339,Basalt_rect,6,0,6,0,1,
60fda8f418c64ff072d22378,SCN,2024-06-25_09h57.41.558,LearnStrategy,2023.2.3,Win32,142.8571429,3,2,8,,,,,,,,3,06,,,,,,,,,,,3,1.432,1,,,,,,0.094444444,-0.257407407,1,0,0,1.4319,Diorite_rect,7,0,7,0,1,
60fda8f418c64ff072d22378,SCN,2024-06-25_09h57.41.558,LearnStrategy,2023.2.3,Win32,142.8571429,3,2,9,,,,,,,,7,08,,,,,,,,,,,7,1.398,1,,,,,,0.082407407,-0.405555556,1,0,0,1.3978,Peridotite_rect,8,0,8,0,1,
60fda8f418c64ff072d22378,SCN,2024-06-25_09h57.41.558,LearnStrategy,2023.2.3,Win32,142.8571429,3,2,10,,,,,,,,8,05,,,,,,,,,,,8,1.474,1,,,,,,0.355555556,-0.390740741,1,0,0,1.4741,Pumice_rect,9,0,9,0,1,
60fda8f418c64ff072d22378,SCN,2024-06-25_09h57.41.558,LearnStrategy,2023.2.3,Win32,142.8571429,3,2,11,,,,,,,,1,02,,,,,,,,,,,1,3.16,1,,,,,,-0.475,-0.252777778,1,0,0,3.1604,Andesite_rect,10,0,10,0,1,
60fda8f418c64ff072d22378,SCN,2024-06-25_09h57.41.558,LearnStrategy,2023.2.3,Win32,142.8571429,3,2,12,,,,,,,,2,08,,,,,,,,,,,2,1.978,1,,,,,,-0.12037037,-0.249074074,1,0,0,1.9782,Basalt_rect,11,0,11,0,1,
60fda8f418c64ff072d22378,SCN,2024-06-25_09h57.41.558,LearnStrategy,2023.2.3,Win32,142.8571429,3,2,13,,,,,,,,7,12,,,,,,,,,,,7,1.991,1,,,,,,0.124074074,-0.40462963,1,0,0,1.9909,Peridotite_rect,12,0,12,0,1,
60fda8f418c64ff072d22378,SCN,2024-06-25_09h57.41.558,LearnStrategy,2023.2.3,Win32,142.8571429,3,2,14,,,,,,,,5,06,,,,,,,,,,,5,1.577,1,,,,,,-0.4,-0.391666667,1,0,0,1.577,Obsidian_rect,13,0,13,0,1,
60fda8f418c64ff072d22378,SCN,2024-06-25_09h57.41.558,LearnStrategy,2023.2.3,Win32,142.8571429,3,2,15,,,,,,,,4,08,,,,,,,,,,,4,3.435,1,,,,,,0.42037037,-0.249074074,1,0,0,3.4352,Gabbro_rect,14,0,14,0,1,
60fda8f418c64ff072d22378,SCN,2024-06-25_09h57.41.558,LearnStrategy,2023.2.3,Win32,142.8571429,3,2,16,,,,,,,,1,06,,,,,,,,,,,3,1.256,0,,,,,,0.127777778,-0.24537037,1,0,0,1.2557,Diorite_rect,15,0,15,0,1,
60fda8f418c64ff072d22378,SCN,2024-06-25_09h57.41.558,LearnStrategy,2023.2.3,Win32,142.8571429,4,1,1,0.064814815,0.272222222,1,0,0,4.5621,Gabbro_03,4,03,5,5,4.562,0.144444444,-0.259259259,1,0,0,0.8568,Diorite_rect,3,0.857,0,0,0,0,0,1,,,,,,,,,,,,,
60fda8f418c64ff072d22378,SCN,2024-06-25_09h57.41.558,LearnStrategy,2023.2.3,Win32,142.8571429,4,1,2,0.22962963,0.240740741,1,0,0,1.9383,Diorite_16,3,16,5,6,1.938,0.382407407,-0.267592593,1,0,0,0.708,Gabbro_rect,4,0.708,0,1,0,1,0,1,,,,,,,,,,,,,
60fda8f418c64ff072d22378,SCN,2024-06-25_09h57.41.558,LearnStrategy,2023.2.3,Win32,142.8571429,4,1,3,0.551851852,-0.248148148,1,0,0,2.5459,Gabbro_11,4,11,2,8,2.546,0.407407407,-0.263888889,1,0,0,0.5478,Gabbro_rect,4,0.548,1,2,0,2,0,1,,,,,,,,,,,,,
60fda8f418c64ff072d22378,SCN,2024-06-25_09h57.41.558,LearnStrategy,2023.2.3,Win32,142.8571429,4,1,4,0.55462963,0.071296296,1,0,0,0.7211,Pegmatite_03,6,03,4,8,0.721,-0.127777778,-0.4,1,0,0,1.1534,Pegmatite_rect,6,1.153,1,3,0,3,0,1,,,,,,,,,,,,,
60fda8f418c64ff072d22378,SCN,2024-06-25_09h57.41.558,LearnStrategy,2023.2.3,Win32,142.8571429,4,1,5,-0.099074074,0.094444444,1,0,0,1.2423,Gabbro_16,4,16,4,4,1.242,0.333333333,-0.258333333,1,0,0,0.7674,Gabbro_rect,4,0.767,1,4,0,4,0,1,,,,,,,,,,,,,
60fda8f418c64ff072d22378,SCN,2024-06-25_09h57.41.558,LearnStrategy,2023.2.3,Win32,142.8571429,4,1,6,-0.415740741,0.203703704,1,0,0,2.2733,Diorite_15,3,15,5,2,2.273,0.098148148,-0.25,1,0,0,1.4379,Diorite_rect,3,1.438,1,5,0,5,0,1,,,,,,,,,,,,,
60fda8f418c64ff072d22378,SCN,2024-06-25_09h57.41.558,LearnStrategy,2023.2.3,Win32,142.8571429,4,1,7,-0.560185185,0.400925926,1,0,0,0.9643,Pegmatite_13,6,13,6,1,0.964,-0.202777778,-0.391666667,1,0,0,0.9529,Pegmatite_rect,6,0.953,1,6,0,6,0,1,,,,,,,,,,,,,
60fda8f418c64ff072d22378,SCN,2024-06-25_09h57.41.558,LearnStrategy,2023.2.3,Win32,142.8571429,4,1,8,-0.525925926,-0.124074074,1,0,0,1.4925,Pegmatite_05,6,05,3,1,1.493,-0.135185185,-0.402777778,1,0,0,0.7745,Pegmatite_rect,6,0.774,1,7,0,7,0,1,,,,,,,,,,,,,
60fda8f418c64ff072d22378,SCN,2024-06-25_09h57.41.558,LearnStrategy,2023.2.3,Win32,142.8571429,4,1,9,0.096296296,-0.27962963,1,0,0,1.4506,Pegmatite_06,6,06,2,5,1.451,-0.347222222,-0.261111111,1,0,0,1.364,Andesite_rect,1,1.364,0,8,0,8,0,1,,,,,,,,,,,,,
60fda8f418c64ff072d22378,SCN,2024-06-25_09h57.41.558,LearnStrategy,2023.2.3,Win32,142.8571429,4,1,10,0.232407407,-0.256481481,1,0,0,1.1978,Andesite_03,1,03,2,6,1.198,0.142592593,-0.240740741,1,0,0,0.9641,Diorite_rect,3,0.964,0,9,0,9,0,1,,,,,,,,,,,,,
60fda8f418c64ff072d22378,SCN,2024-06-25_09h57.41.558,LearnStrategy,2023.2.3,Win32,142.8571429,4,1,11,-0.246296296,0.263888889,1,0,0,2.2812,Andesite_09,1,09,5,3,2.281,-0.355555556,-0.253703704,1,0,0,0.8234,Andesite_rect,1,0.823,1,10,0,10,0,1,,,,,,,,,,,,,
60fda8f418c64ff072d22378,SCN,2024-06-25_09h57.41.558,LearnStrategy,2023.2.3,Win32,142.8571429,4,1,12,-0.387962963,0.407407407,1,0,0,2.1521,Basalt_09,2,09,6,2,2.152,-0.088888889,-0.25462963,1,0,0,0.9411,Basalt_rect,2,0.941,1,11,0,11,0,1,,,,,,,,,,,,,
60fda8f418c64ff072d22378,SCN,2024-06-25_09h57.41.558,LearnStrategy,2023.2.3,Win32,142.8571429,4,1,13,0.067592593,0.402777778,1,0,0,1.3169,Basalt_11,2,11,6,5,1.317,-0.114814815,-0.236111111,1,0,0,1.1783,Basalt_rect,2,1.178,1,12,0,12,0,1,,,,,,,,,,,,,
60fda8f418c64ff072d22378,SCN,2024-06-25_09h57.41.558,LearnStrategy,2023.2.3,Win32,142.8571429,4,1,14,0.410185185,0.42037037,1,0,0,1.0833,Basalt_05,2,05,6,7,1.083,-0.065740741,-0.244444444,1,0,0,0.7478,Basalt_rect,2,0.748,1,13,0,13,0,1,,,,,,,,,,,,,
60fda8f418c64ff072d22378,SCN,2024-06-25_09h57.41.558,LearnStrategy,2023.2.3,Win32,142.8571429,4,1,15,0.55462963,0.408333333,1,0,0,0.7769,Pumice_02,8,02,6,8,0.777,0.323148148,-0.412962963,1,0,0,1.1861,Pumice_rect,8,1.186,1,14,0,14,0,1,,,,,,,,,,,,,
60fda8f418c64ff072d22378,SCN,2024-06-25_09h57.41.558,LearnStrategy,2023.2.3,Win32,142.8571429,4,1,16,-0.067592593,-0.424074074,1,0,0,5.7223,Diorite_08,3,08,1,4,5.722,0.171296296,-0.237962963,1,0,0,0.8471,Diorite_rect,3,0.847,1,15,0,15,0,1,,,,,,,,,,,,,
60fda8f418c64ff072d22378,SCN,2024-06-25_09h57.41.558,LearnStrategy,2023.2.3,Win32,142.8571429,4,2,1,,,,,,,,1,02,,,,,,,,,,,3,2.902,0,,,,,,0.169444444,-0.247222222,1,0,0,2.9018,Diorite_rect,0,0,0,0,1,
60fda8f418c64ff072d22378,SCN,2024-06-25_09h57.41.558,LearnStrategy,2023.2.3,Win32,142.8571429,4,2,2,,,,,,,,8,04,,,,,,,,,,,8,1.072,1,,,,,,0.416666667,-0.396296296,1,0,0,1.0717,Pumice_rect,1,0,1,0,1,
60fda8f418c64ff072d22378,SCN,2024-06-25_09h57.41.558,LearnStrategy,2023.2.3,Win32,142.8571429,4,2,3,,,,,,,,4,08,,,,,,,,,,,4,3.448,1,,,,,,0.391666667,-0.243518519,1,0,0,3.4484,Gabbro_rect,2,0,2,0,1,
60fda8f418c64ff072d22378,SCN,2024-06-25_09h57.41.558,LearnStrategy,2023.2.3,Win32,142.8571429,4,2,4,,,,,,,,8,08,,,,,,,,,,,8,1.276,1,,,,,,0.356481481,-0.409259259,1,0,0,1.2759,Pumice_rect,3,0,3,0,1,
60fda8f418c64ff072d22378,SCN,2024-06-25_09h57.41.558,LearnStrategy,2023.2.3,Win32,142.8571429,4,2,5,,,,,,,,5,10,,,,,,,,,,,5,1.147,1,,,,,,-0.475925926,-0.408333333,1,0,0,1.1469,Obsidian_rect,4,0,4,0,1,
60fda8f418c64ff072d22378,SCN,2024-06-25_09h57.41.558,LearnStrategy,2023.2.3,Win32,142.8571429,4,2,6,,,,,,,,2,02,,,,,,,,,,,2,2.616,1,,,,,,-0.098148148,-0.251851852,1,0,0,2.6158,Basalt_rect,5,0,5,0,1,
60fda8f418c64ff072d22378,SCN,2024-06-25_09h57.41.558,LearnStrategy,2023.2.3,Win32,142.8571429,4,2,7,,,,,,,,6,08,,,,,,,,,,,6,1.09,1,,,,,,-0.096296296,-0.401851852,1,0,0,1.0901,Pegmatite_rect,6,0,6,0,1,
60fda8f418c64ff072d22378,SCN,2024-06-25_09h57.41.558,LearnStrategy,2023.2.3,Win32,142.8571429,4,2,8,,,,,,,,4,10,,,,,,,,,,,4,1.851,1,,,,,,0.450925926,-0.250925926,1,0,0,1.8513,Gabbro_rect,7,0,7,0,1,
60fda8f418c64ff072d22378,SCN,2024-06-25_09h57.41.558,LearnStrategy,2023.2.3,Win32,142.8571429,4,2,9,,,,,,,,5,05,,,,,,,,,,,5,1.122,1,,,,,,-0.401851852,-0.403703704,1,0,0,1.1216,Obsidian_rect,8,0,8,0,1,
60fda8f418c64ff072d22378,SCN,2024-06-25_09h57.41.558,LearnStrategy,2023.2.3,Win32,142.8571429,4,2,10,,,,,,,,7,16,,,,,,,,,,,7,1.309,1,,,,,,0.118518519,-0.399074074,1,0,0,1.3092,Peridotite_rect,9,0,9,0,1,
60fda8f418c64ff072d22378,SCN,2024-06-25_09h57.41.558,LearnStrategy,2023.2.3,Win32,142.8571429,4,2,11,,,,,,,,7,05,,,,,,,,,,,1,5.427,0,,,,,,-0.396296296,-0.261111111,1,0,0,5.4268,Andesite_rect,10,0,10,0,1,
60fda8f418c64ff072d22378,SCN,2024-06-25_09h57.41.558,LearnStrategy,2023.2.3,Win32,142.8571429,4,2,12,,,,,,,,3,06,,,,,,,,,,,3,3.039,1,,,,,,0.089814815,-0.255555556,1,0,0,3.039,Diorite_rect,11,0,11,0,1,
60fda8f418c64ff072d22378,SCN,2024-06-25_09h57.41.558,LearnStrategy,2023.2.3,Win32,142.8571429,4,2,13,,,,,,,,6,15,,,,,,,,,,,6,1.09,1,,,,,,-0.122222222,-0.401851852,1,0,0,1.0901,Pegmatite_rect,12,0,12,0,1,
60fda8f418c64ff072d22378,SCN,2024-06-25_09h57.41.558,LearnStrategy,2023.2.3,Win32,142.8571429,4,2,14,,,,,,,,1,05,,,,,,,,,,,7,1.082,0,,,,,,0.087037037,-0.393518519,1,0,0,1.0819,Peridotite_rect,13,0,13,0,1,
60fda8f418c64ff072d22378,SCN,2024-06-25_09h57.41.558,LearnStrategy,2023.2.3,Win32,142.8571429,4,2,15,,,,,,,,2,06,,,,,,,,,,,2,1.647,1,,,,,,-0.106481481,-0.228703704,1,0,0,1.6469,Basalt_rect,14,0,14,0,1,
60fda8f418c64ff072d22378,SCN,2024-06-25_09h57.41.558,LearnStrategy,2023.2.3,Win32,142.8571429,4,2,16,,,,,,,,3,13,,,,,,,,,,,3,1.24,1,,,,,,0.108333333,-0.255555556,1,0,0,1.2402,Diorite_rect,15,0,15,0,1,
60fda8f418c64ff072d22378,SCN,2024-06-25_09h57.41.558,LearnStrategy,2023.2.3,Win32,142.8571429,5,1,1,0.390740741,0.230555556,1,0,0,4.5556,Andesite_10,1,10,5,7,4.556,0.384259259,-0.264814815,1,0,0,2.0063,Gabbro_rect,4,2.006,0,0,0,0,0,1,,,,,,,,,,,,,
60fda8f418c64ff072d22378,SCN,2024-06-25_09h57.41.558,LearnStrategy,2023.2.3,Win32,142.8571429,5,1,2,-0.060185185,0.261111111,1,0,0,3.3417,Andesite_11,1,11,5,4,3.342,-0.385185185,-0.253703704,1,0,0,0.9478,Andesite_rect,1,0.948,1,1,0,1,0,1,,,,,,,,,,,,,
60fda8f418c64ff072d22378,SCN,2024-06-25_09h57.41.558,LearnStrategy,2023.2.3,Win32,142.8571429,5,1,3,0.187962963,-0.125,1,0,0,3.5275,Andesite_14,1,14,3,6,3.528,-0.405555556,-0.244444444,1,0,0,1.46,Andesite_rect,1,1.46,1,2,0,2,0,1,,,,,,,,,,,,,
60fda8f418c64ff072d22378,SCN,2024-06-25_09h57.41.558,LearnStrategy,2023.2.3,Win32,142.8571429,5,1,4,-0.102777778,-0.25,1,0,0,5.3718,Gabbro_09,4,09,2,4,5.372,0.42037037,-0.262037037,1,0,0,0.6908,Gabbro_rect,4,0.691,1,3,0,3,0,1,,,,,,,,,,,,,
60fda8f418c64ff072d22378,SCN,2024-06-25_09h57.41.558,LearnStrategy,2023.2.3,Win32,142.8571429,5,1,5,-0.217592593,-0.261111111,1,0,0,1.4228,Basalt_16,2,16,2,3,1.423,-0.099074074,-0.250925926,1,0,0,1.0555,Basalt_rect,2,1.055,1,4,0,4,0,1,,,,,,,,,,,,,
60fda8f418c64ff072d22378,SCN,2024-06-25_09h57.41.558,LearnStrategy,2023.2.3,Win32,142.8571429,5,1,6,-0.414814815,-0.272222222,1,0,0,1.8989,Andesite_04,1,04,2,2,1.899,0.37037037,-0.251851852,1,0,0,1.0754,Gabbro_rect,4,1.075,0,5,0,5,0,1,,,,,,,,,,,,,
60fda8f418c64ff072d22378,SCN,2024-06-25_09h57.41.558,LearnStrategy,2023.2.3,Win32,142.8571429,5,1,7,-0.375925926,0.077777778,1,0,0,5.7881,Peridotite_10,7,10,4,2,5.788,0.058333333,-0.248148148,1,0,0,1.1133,Diorite_rect,3,1.113,0,6,0,6,0,1,,,,,,,,,,,,,
60fda8f418c64ff072d22378,SCN,2024-06-25_09h57.41.558,LearnStrategy,2023.2.3,Win32,142.8571429,5,1,8,0.067592593,-0.076851852,1,0,0,1.5227,Peridotite_14,7,14,3,5,1.523,0.159259259,-0.412037037,1,0,0,0.7302,Peridotite_rect,7,0.73,1,7,0,7,0,1,,,,,,,,,,,,,
60fda8f418c64ff072d22378,SCN,2024-06-25_09h57.41.558,LearnStrategy,2023.2.3,Win32,142.8571429,5,1,9,-0.514814815,-0.101851852,1,0,0,1.6632,Pegmatite_05,6,05,3,1,1.663,-0.085185185,-0.419444444,1,0,0,0.8309,Pegmatite_rect,6,0.831,1,8,0,8,0,1,,,,,,,,,,,,,
60fda8f418c64ff072d22378,SCN,2024-06-25_09h57.41.558,LearnStrategy,2023.2.3,Win32,142.8571429,5,1,10,-0.412962963,0.251851852,1,0,0,1.5453,Diorite_15,3,15,5,2,1.545,0.089814815,-0.235185185,1,0,0,0.6768,Diorite_rect,3,0.677,1,9,0,9,0,1,,,,,,,,,,,,,
60fda8f418c64ff072d22378,SCN,2024-06-25_09h57.41.558,LearnStrategy,2023.2.3,Win32,142.8571429,5,1,11,-0.565740741,0.234259259,1,0,0,0.6937,Diorite_10,3,10,5,1,0.694,0.194444444,-0.258333333,1,0,0,0.7406,Diorite_rect,3,0.741,1,10,0,10,0,1,,,,,,,,,,,,,
60fda8f418c64ff072d22378,SCN,2024-06-25_09h57.41.558,LearnStrategy,2023.2.3,Win32,142.8571429,5,1,12,-0.088888889,0.263888889,1,0,0,5.0208,Andesite_11,1,11,5,4,5.021,-0.347222222,-0.244444444,1,0,0,0.7701,Andesite_rect,1,0.77,1,11,0,11,0,1,,,,,,,,,,,,,
60fda8f418c64ff072d22378,SCN,2024-06-25_09h57.41.558,LearnStrategy,2023.2.3,Win32,142.8571429,5,1,13,-0.076851852,0.407407407,1,0,0,3.1006,Diorite_14,3,14,6,4,3.101,0.189814815,-0.255555556,1,0,0,0.7837,Diorite_rect,3,0.784,1,12,0,12,0,1,,,,,,,,,,,,,
60fda8f418c64ff072d22378,SCN,2024-06-25_09h57.41.558,LearnStrategy,2023.2.3,Win32,142.8571429,5,1,14,0.541666667,0.397222222,1,0,0,3.2218,Pumice_02,8,02,6,8,3.222,0.348148148,-0.398148148,1,0,0,1.9971,Pumice_rect,8,1.997,1,13,0,13,0,1,,,,,,,,,,,,,
60fda8f418c64ff072d22378,SCN,2024-06-25_09h57.41.558,LearnStrategy,2023.2.3,Win32,142.8571429,5,1,15,0.539814815,0.234259259,1,0,0,0.8878,Peridotite_02,7,02,5,8,0.888,0.141666667,-0.410185185,1,0,0,0.9818,Peridotite_rect,7,0.982,1,14,0,14,0,1,,,,,,,,,,,,,
60fda8f418c64ff072d22378,SCN,2024-06-25_09h57.41.558,LearnStrategy,2023.2.3,Win32,142.8571429,5,1,16,0.428703704,0.241666667,1,0,0,0.6658,Andesite_10,1,10,5,7,0.666,-0.352777778,-0.242592593,1,0,0,1.4935,Andesite_rect,1,1.494,1,15,0,15,0,1,,,,,,,,,,,,,
60fda8f418c64ff072d22378,SCN,2024-06-25_09h57.41.558,LearnStrategy,2023.2.3,Win32,142.8571429,5,2,1,,,,,,,,6,11,,,,,,,,,,,6,1.31,1,,,,,,-0.112962963,-0.393518519,1,0,0,1.3095,Pegmatite_rect,0,0,0,0,1,
60fda8f418c64ff072d22378,SCN,2024-06-25_09h57.41.558,LearnStrategy,2023.2.3,Win32,142.8571429,5,2,2,,,,,,,,8,05,,,,,,,,,,,8,1.252,1,,,,,,0.362037037,-0.389814815,1,0,0,1.2517,Pumice_rect,1,0,1,0,1,
60fda8f418c64ff072d22378,SCN,2024-06-25_09h57.41.558,LearnStrategy,2023.2.3,Win32,142.8571429,5,2,3,,,,,,,,8,15,,,,,,,,,,,8,1.029,1,,,,,,0.357407407,-0.394444444,1,0,0,1.029,Pumice_rect,2,0,2,0,1,
60fda8f418c64ff072d22378,SCN,2024-06-25_09h57.41.558,LearnStrategy,2023.2.3,Win32,142.8571429,5,2,4,,,,,,,,7,12,,,,,,,,,,,7,3.522,1,,,,,,0.107407407,-0.39537037,1,0,0,3.5218,Peridotite_rect,3,0,3,0,1,
60fda8f418c64ff072d22378,SCN,2024-06-25_09h57.41.558,LearnStrategy,2023.2.3,Win32,142.8571429,5,2,5,,,,,,,,3,11,,,,,,,,,,,3,1.592,1,,,,,,0.101851852,-0.251851852,1,0,0,1.5919,Diorite_rect,4,0,4,0,1,
60fda8f418c64ff072d22378,SCN,2024-06-25_09h57.41.558,LearnStrategy,2023.2.3,Win32,142.8571429,5,2,6,,,,,,,,4,15,,,,,,,,,,,3,2.082,0,,,,,,0.071296296,-0.251851852,1,0,0,2.0822,Diorite_rect,5,0,5,0,1,
60fda8f418c64ff072d22378,SCN,2024-06-25_09h57.41.558,LearnStrategy,2023.2.3,Win32,142.8571429,5,2,7,,,,,,,,1,07,,,,,,,,,,,3,2.552,0,,,,,,0.068518519,-0.249074074,1,0,0,2.5524,Diorite_rect,6,0,6,0,1,
60fda8f418c64ff072d22378,SCN,2024-06-25_09h57.41.558,LearnStrategy,2023.2.3,Win32,142.8571429,5,2,8,,,,,,,,2,12,,,,,,,,,,,8,3.139,0,,,,,,0.45462963,-0.412962963,1,0,0,3.1389,Pumice_rect,7,0,7,0,1,
60fda8f418c64ff072d22378,SCN,2024-06-25_09h57.41.558,LearnStrategy,2023.2.3,Win32,142.8571429,5,2,9,,,,,,,,2,08,,,,,,,,,,,2,1.751,1,,,,,,-0.116666667,-0.255555556,1,0,0,1.7507,Basalt_rect,8,0,8,0,1,
60fda8f418c64ff072d22378,SCN,2024-06-25_09h57.41.558,LearnStrategy,2023.2.3,Win32,142.8571429,5,2,10,,,,,,,,3,09,,,,,,,,,,,3,1.139,1,,,,,,0.175925926,-0.248148148,1,0,0,1.1395,Diorite_rect,9,0,9,0,1,
60fda8f418c64ff072d22378,SCN,2024-06-25_09h57.41.558,LearnStrategy,2023.2.3,Win32,142.8571429,5,2,11,,,,,,,,6,07,,,,,,,,,,,6,1.006,1,,,,,,-0.062037037,-0.403703704,1,0,0,1.0057,Pegmatite_rect,10,0,10,0,1,
60fda8f418c64ff072d22378,SCN,2024-06-25_09h57.41.558,LearnStrategy,2023.2.3,Win32,142.8571429,5,2,12,,,,,,,,4,01,,,,,,,,,,,4,2.439,1,,,,,,0.389814815,-0.252777778,1,0,0,2.4389,Gabbro_rect,11,0,11,0,1,
60fda8f418c64ff072d22378,SCN,2024-06-25_09h57.41.558,LearnStrategy,2023.2.3,Win32,142.8571429,5,2,13,,,,,,,,7,04,,,,,,,,,,,1,1.054,0,,,,,,-0.405555556,-0.25,1,0,0,1.0544,Andesite_rect,12,0,12,0,1,
60fda8f418c64ff072d22378,SCN,2024-06-25_09h57.41.558,LearnStrategy,2023.2.3,Win32,142.8571429,5,2,14,,,,,,,,5,08,,,,,,,,,,,5,1.027,1,,,,,,-0.380555556,-0.391666667,1,0,0,1.0266,Obsidian_rect,13,0,13,0,1,
60fda8f418c64ff072d22378,SCN,2024-06-25_09h57.41.558,LearnStrategy,2023.2.3,Win32,142.8571429,5,2,15,,,,,,,,1,16,,,,,,,,,,,1,2.66,1,,,,,,-0.35462963,-0.258333333,1,0,0,2.6597,Andesite_rect,14,0,14,0,1,
60fda8f418c64ff072d22378,SCN,2024-06-25_09h57.41.558,LearnStrategy,2023.2.3,Win32,142.8571429,5,2,16,,,,,,,,5,09,,,,,,,,,,,5,0.889,1,,,,,,-0.34537037,-0.40462963,1,0,0,0.889,Obsidian_rect,15,0,15,0,1,
60fda8f418c64ff072d22378,SCN,2024-06-25_09h57.41.558,LearnStrategy,2023.2.3,Win32,142.8571429,6,1,1,0.565740741,0.242592593,1,0,0,5.6046,Peridotite_02,7,02,5,8,5.605,0.155555556,-0.405555556,1,0,0,0.8017,Peridotite_rect,7,0.802,1,0,0,0,0,1,,,,,,,,,,,,,
60fda8f418c64ff072d22378,SCN,2024-06-25_09h57.41.558,LearnStrategy,2023.2.3,Win32,142.8571429,6,1,2,0.241666667,0.080555556,1,0,0,2.4923,Gabbro_13,4,13,4,6,2.492,-0.375925926,-0.244444444,1,0,0,0.9676,Andesite_rect,1,0.968,0,1,0,1,0,1,,,,,,,,,,,,,
60fda8f418c64ff072d22378,SCN,2024-06-25_09h57.41.558,LearnStrategy,2023.2.3,Win32,142.8571429,6,1,3,0.098148148,0.262037037,1,0,0,2.7945,Gabbro_03,4,03,5,5,2.794,0.164814815,-0.248148148,1,0,0,0.7395,Diorite_rect,3,0.74,0,2,0,2,0,1,,,,,,,,,,,,,
60fda8f418c64ff072d22378,SCN,2024-06-25_09h57.41.558,LearnStrategy,2023.2.3,Win32,142.8571429,6,1,4,-0.223148148,0.237962963,1,0,0,3.2856,Andesite_09,1,09,5,3,3.286,-0.385185185,-0.240740741,1,0,0,1.3204,Andesite_rect,1,1.32,1,3,0,3,0,1,,,,,,,,,,,,,
60fda8f418c64ff072d22378,SCN,2024-06-25_09h57.41.558,LearnStrategy,2023.2.3,Win32,142.8571429,6,1,5,-0.077777778,0.085185185,1,0,0,2.5424,Gabbro_16,4,16,4,4,2.542,0.384259259,-0.253703704,1,0,0,0.7269,Gabbro_rect,4,0.727,1,4,0,4,0,1,,,,,,,,,,,,,
60fda8f418c64ff072d22378,SCN,2024-06-25_09h57.41.558,LearnStrategy,2023.2.3,Win32,142.8571429,6,1,6,-0.387962963,0.085185185,1,0,0,1.7353,Peridotite_10,7,10,4,2,1.735,0.131481481,-0.411111111,1,0,0,1.323,Peridotite_rect,7,1.323,1,5,0,5,0,1,,,,,,,,,,,,,
60fda8f418c64ff072d22378,SCN,2024-06-25_09h57.41.558,LearnStrategy,2023.2.3,Win32,142.8571429,6,1,7,-0.559259259,0.214814815,1,0,0,2.4061,Diorite_10,3,10,5,1,2.406,-0.37037037,-0.24537037,1,0,0,0.7577,Andesite_rect,1,0.758,0,6,0,6,0,1,,,,,,,,,,,,,
60fda8f418c64ff072d22378,SCN,2024-06-25_09h57.41.558,LearnStrategy,2023.2.3,Win32,142.8571429,6,1,8,-0.387962963,0.225,1,0,0,0.6947,Diorite_15,3,15,5,2,0.695,0.089814815,-0.238888889,1,0,0,1.0737,Diorite_rect,3,1.074,1,7,0,7,0,1,,,,,,,,,,,,,
60fda8f418c64ff072d22378,SCN,2024-06-25_09h57.41.558,LearnStrategy,2023.2.3,Win32,142.8571429,6,1,9,0.25462963,0.231481481,1,0,0,3.5637,Diorite_16,3,16,5,6,3.564,0.100925926,-0.234259259,1,0,0,0.9445,Diorite_rect,3,0.944,1,8,0,8,0,1,,,,,,,,,,,,,
60fda8f418c64ff072d22378,SCN,2024-06-25_09h57.41.558,LearnStrategy,2023.2.3,Win32,142.8571429,6,1,10,0.418518519,0.228703704,1,0,0,1.3324,Andesite_10,1,10,5,7,1.332,0.400925926,-0.25462963,1,0,0,1.1195,Gabbro_rect,4,1.12,0,9,0,9,0,1,,,,,,,,,,,,,
60fda8f418c64ff072d22378,SCN,2024-06-25_09h57.41.558,LearnStrategy,2023.2.3,Win32,142.8571429,6,1,11,-0.399074074,-0.083333333,1,0,0,7.028,Basalt_01,2,01,3,2,7.028,-0.141666667,-0.25462963,1,0,0,0.78,Basalt_rect,2,0.78,1,10,0,10,0,1,,,,,,,,,,,,,
60fda8f418c64ff072d22378,SCN,2024-06-25_09h57.41.558,LearnStrategy,2023.2.3,Win32,142.8571429,6,1,12,-0.084259259,-0.089814815,1,0,0,3.4208,Diorite_07,3,07,3,4,3.421,-0.092592593,-0.401851852,1,0,0,1.2601,Pegmatite_rect,6,1.26,0,11,0,11,0,1,,,,,,,,,,,,,
60fda8f418c64ff072d22378,SCN,2024-06-25_09h57.41.558,LearnStrategy,2023.2.3,Win32,142.8571429,6,1,13,0.084259259,-0.137037037,1,0,0,1.4592,Peridotite_14,7,14,3,5,1.459,0.148148148,-0.385185185,1,0,0,0.7223,Peridotite_rect,7,0.722,1,12,0,12,0,1,,,,,,,,,,,,,
60fda8f418c64ff072d22378,SCN,2024-06-25_09h57.41.558,LearnStrategy,2023.2.3,Win32,142.8571429,6,1,14,0.231481481,-0.091666667,1,0,0,1.2021,Andesite_14,1,14,3,6,1.202,-0.083333333,-0.381481481,1,0,0,1.4564,Pegmatite_rect,6,1.456,0,13,0,13,0,1,,,,,,,,,,,,,
60fda8f418c64ff072d22378,SCN,2024-06-25_09h57.41.558,LearnStrategy,2023.2.3,Win32,142.8571429,6,1,15,0.359259259,-0.108333333,1,0,0,1.1034,Pumice_16,8,16,3,7,1.103,0.357407407,-0.399074074,1,0,0,1.2989,Pumice_rect,8,1.299,1,14,0,14,0,1,,,,,,,,,,,,,
60fda8f418c64ff072d22378,SCN,2024-06-25_09h57.41.558,LearnStrategy,2023.2.3,Win32,142.8571429,6,1,16,-0.586111111,-0.265740741,1,0,0,1.8949,Obsidian_14,5,14,2,1,1.895,-0.35,-0.400925926,1,0,0,0.994,Obsidian_rect,5,0.994,1,15,0,15,0,1,,,,,,,,,,,,,
60fda8f418c64ff072d22378,SCN,2024-06-25_09h57.41.558,LearnStrategy,2023.2.3,Win32,142.8571429,6,2,1,,,,,,,,2,04,,,,,,,,,,,2,2.336,1,,,,,,-0.094444444,-0.248148148,1,0,0,2.3362,Basalt_rect,0,0,0,0,1,
60fda8f418c64ff072d22378,SCN,2024-06-25_09h57.41.558,LearnStrategy,2023.2.3,Win32,142.8571429,6,2,2,,,,,,,,5,02,,,,,,,,,,,5,1.168,1,,,,,,-0.397222222,-0.4,1,0,0,1.1681,Obsidian_rect,1,0,1,0,1,
60fda8f418c64ff072d22378,SCN,2024-06-25_09h57.41.558,LearnStrategy,2023.2.3,Win32,142.8571429,6,2,3,,,,,,,,1,01,,,,,,,,,,,3,1.421,0,,,,,,0.128703704,-0.252777778,1,0,0,1.4207,Diorite_rect,2,0,2,0,1,
60fda8f418c64ff072d22378,SCN,2024-06-25_09h57.41.558,LearnStrategy,2023.2.3,Win32,142.8571429,6,2,4,,,,,,,,2,14,,,,,,,,,,,4,3.327,0,,,,,,0.456481481,-0.249074074,1,0,0,3.327,Gabbro_rect,3,0,3,0,1,
60fda8f418c64ff072d22378,SCN,2024-06-25_09h57.41.558,LearnStrategy,2023.2.3,Win32,142.8571429,6,2,5,,,,,,,,4,05,,,,,,,,,,,1,4.71,0,,,,,,-0.39537037,-0.248148148,1,0,0,4.71,Andesite_rect,4,0,4,0,1,
60fda8f418c64ff072d22378,SCN,2024-06-25_09h57.41.558,LearnStrategy,2023.2.3,Win32,142.8571429,6,2,6,,,,,,,,4,12,,,,,,,,,,,1,2.568,0,,,,,,-0.396296296,-0.248148148,1,0,0,2.5682,Andesite_rect,5,0,5,0,1,
60fda8f418c64ff072d22378,SCN,2024-06-25_09h57.41.558,LearnStrategy,2023.2.3,Win32,142.8571429,6,2,7,,,,,,,,8,14,,,,,,,,,,,8,1.002,1,,,,,,0.446296296,-0.42037037,1,0,0,1.002,Pumice_rect,6,0,6,0,1,
60fda8f418c64ff072d22378,SCN,2024-06-25_09h57.41.558,LearnStrategy,2023.2.3,Win32,142.8571429,6,2,8,,,,,,,,5,06,,,,,,,,,,,5,1.022,1,,,,,,-0.42962963,-0.401851852,1,0,0,1.0217,Obsidian_rect,7,0,7,0,1,
60fda8f418c64ff072d22378,SCN,2024-06-25_09h57.41.558,LearnStrategy,2023.2.3,Win32,142.8571429,6,2,9,,,,,,,,6,10,,,,,,,,,,,7,0.866,0,,,,,,0.17962963,-0.402777778,1,0,0,0.8656,Peridotite_rect,8,0,8,0,1,
60fda8f418c64ff072d22378,SCN,2024-06-25_09h57.41.558,LearnStrategy,2023.2.3,Win32,142.8571429,6,2,10,,,,,,,,7,07,,,,,,,,,,,7,1.753,1,,,,,,0.130555556,-0.4,1,0,0,1.7527,Peridotite_rect,9,0,9,0,1,
60fda8f418c64ff072d22378,SCN,2024-06-25_09h57.41.558,LearnStrategy,2023.2.3,Win32,142.8571429,6,2,11,,,,,,,,8,13,,,,,,,,,,,8,1.595,1,,,,,,0.433333333,-0.415740741,1,0,0,1.5952,Pumice_rect,10,0,10,0,1,
60fda8f418c64ff072d22378,SCN,2024-06-25_09h57.41.558,LearnStrategy,2023.2.3,Win32,142.8571429,6,2,12,,,,,,,,1,06,,,,,,,,,,,3,1.406,0,,,,,,0.155555556,-0.256481481,1,0,0,1.4058,Diorite_rect,11,0,11,0,1,
60fda8f418c64ff072d22378,SCN,2024-06-25_09h57.41.558,LearnStrategy,2023.2.3,Win32,142.8571429,6,2,13,,,,,,,,3,12,,,,,,,,,,,3,2.054,1,,,,,,0.109259259,-0.262962963,1,0,0,2.0537,Diorite_rect,12,0,12,0,1,
60fda8f418c64ff072d22378,SCN,2024-06-25_09h57.41.558,LearnStrategy,2023.2.3,Win32,142.8571429,6,2,14,,,,,,,,7,08,,,,,,,,,,,7,2.038,1,,,,,,0.125925926,-0.390740741,1,0,0,2.0377,Peridotite_rect,13,0,13,0,1,
60fda8f418c64ff072d22378,SCN,2024-06-25_09h57.41.558,LearnStrategy,2023.2.3,Win32,142.8571429,6,2,15,,,,,,,,6,12,,,,,,,,,,,6,1.25,1,,,,,,-0.110185185,-0.397222222,1,0,0,1.2496,Pegmatite_rect,14,0,14,0,1,
60fda8f418c64ff072d22378,SCN,2024-06-25_09h57.41.558,LearnStrategy,2023.2.3,Win32,142.8571429,6,2,16,,,,,,,,3,02,,,,,,,,,,,3,1.413,1,,,,,,0.141666667,-0.239814815,1,0,0,1.4125,Diorite_rect,15,0,15,0,1,
60fda8f418c64ff072d22378,SCN,2024-06-25_09h57.41.558,LearnStrategy,2023.2.3,Win32,142.8571429,7,1,1,-0.387037037,-0.262962963,1,0,0,2.3187,Andesite_04,1,04,2,2,2.319,-0.383333333,-0.246296296,1,0,0,0.748,Andesite_rect,1,0.748,1,0,0,0,0,1,,,,,,,,,,,,,
60fda8f418c64ff072d22378,SCN,2024-06-25_09h57.41.558,LearnStrategy,2023.2.3,Win32,142.8571429,7,1,2,-0.261111111,-0.232407407,1,0,0,0.9721,Basalt_16,2,16,2,3,0.972,0.45,-0.253703704,1,0,0,1.6892,Gabbro_rect,4,1.689,0,1,0,1,0,1,,,,,,,,,,,,,
60fda8f418c64ff072d22378,SCN,2024-06-25_09h57.41.558,LearnStrategy,2023.2.3,Win32,142.8571429,7,1,3,-0.065740741,-0.253703704,1,0,0,1.7153,Gabbro_09,4,09,2,4,1.715,-0.367592593,-0.262962963,1,0,0,2.5157,Andesite_rect,1,2.516,0,2,0,2,0,1,,,,,,,,,,,,,
60fda8f418c64ff072d22378,SCN,2024-06-25_09h57.41.558,LearnStrategy,2023.2.3,Win32,142.8571429,7,1,4,0.076851852,-0.274074074,1,0,0,0.9824,Pegmatite_06,6,06,2,5,0.982,0.062037037,-0.42037037,1,0,0,1.517,Peridotite_rect,7,1.517,0,3,0,3,0,1,,,,,,,,,,,,,
60fda8f418c64ff072d22378,SCN,2024-06-25_09h57.41.558,LearnStrategy,2023.2.3,Win32,142.8571429,7,1,5,0.216666667,-0.255555556,1,0,0,1.0867,Andesite_03,1,03,2,6,1.087,-0.376851852,-0.246296296,1,0,0,0.8834,Andesite_rect,1,0.883,1,4,0,4,0,1,,,,,,,,,,,,,
60fda8f418c64ff072d22378,SCN,2024-06-25_09h57.41.558,LearnStrategy,2023.2.3,Win32,142.8571429,7,1,6,0.385185185,-0.281481481,1,0,0,0.6726,Pumice_03,8,03,2,7,0.673,0.396296296,-0.391666667,1,0,0,0.6924,Pumice_rect,8,0.692,1,5,0,5,0,1,,,,,,,,,,,,,
60fda8f418c64ff072d22378,SCN,2024-06-25_09h57.41.558,LearnStrategy,2023.2.3,Win32,142.8571429,7,1,7,0.574074074,-0.280555556,1,0,0,0.9658,Gabbro_11,4,11,2,8,0.966,0.37962963,-0.243518519,1,0,0,0.5067,Gabbro_rect,4,0.507,1,6,0,6,0,1,,,,,,,,,,,,,
60fda8f418c64ff072d22378,SCN,2024-06-25_09h57.41.558,LearnStrategy,2023.2.3,Win32,142.8571429,7,1,8,-0.391666667,-0.402777778,1,0,0,1.2424,Basalt_10,2,10,1,2,1.242,-0.098148148,-0.260185185,1,0,0,1.5473,Basalt_rect,2,1.547,1,7,0,7,0,1,,,,,,,,,,,,,
60fda8f418c64ff072d22378,SCN,2024-06-25_09h57.41.558,LearnStrategy,2023.2.3,Win32,142.8571429,7,1,9,-0.242592593,-0.437962963,1,0,0,0.8881,Gabbro_14,4,14,1,3,0.888,0.368518519,-0.228703704,1,0,0,1.0375,Gabbro_rect,4,1.038,1,8,0,8,0,1,,,,,,,,,,,,,
60fda8f418c64ff072d22378,SCN,2024-06-25_09h57.41.558,LearnStrategy,2023.2.3,Win32,142.8571429,7,1,10,-0.039814815,-0.407407407,1,0,0,1.3408,Diorite_08,3,08,1,4,1.341,0.151851852,-0.253703704,1,0,0,1.1148,Diorite_rect,3,1.115,1,9,0,9,0,1,,,,,,,,,,,,,
60fda8f418c64ff072d22378,SCN,2024-06-25_09h57.41.558,LearnStrategy,2023.2.3,Win32,142.8571429,7,1,11,-0.412037037,0.389814815,1,0,0,5.3821,Basalt_09,2,09,6,2,5.382,-0.080555556,-0.249074074,1,0,0,1.2047,Basalt_rect,2,1.205,1,10,0,10,0,1,,,,,,,,,,,,,
60fda8f418c64ff072d22378,SCN,2024-06-25_09h57.41.558,LearnStrategy,2023.2.3,Win32,142.8571429,7,1,12,0.099074074,0.399074074,1,0,0,2.4992,Basalt_11,2,11,6,5,2.499,-0.364814815,-0.251851852,1,0,0,1.0233,Andesite_rect,1,1.023,0,11,0,11,0,1,,,,,,,,,,,,,
60fda8f418c64ff072d22378,SCN,2024-06-25_09h57.41.558,LearnStrategy,2023.2.3,Win32,142.8571429,7,1,13,0.401851852,0.397222222,1,0,0,1.9548,Basalt_05,2,05,6,7,1.955,-0.096296296,-0.260185185,1,0,0,1.2764,Basalt_rect,2,1.276,1,12,0,12,0,1,,,,,,,,,,,,,
60fda8f418c64ff072d22378,SCN,2024-06-25_09h57.41.558,LearnStrategy,2023.2.3,Win32,142.8571429,7,1,14,0.561111111,0.437962963,1,0,0,1.1688,Pumice_02,8,02,6,8,1.169,0.409259259,-0.391666667,1,0,0,0.6993,Pumice_rect,8,0.699,1,13,0,13,0,1,,,,,,,,,,,,,
60fda8f418c64ff072d22378,SCN,2024-06-25_09h57.41.558,LearnStrategy,2023.2.3,Win32,142.8571429,7,1,15,-0.556481481,0.256481481,1,0,0,0.7503,Diorite_10,3,10,5,1,0.75,0.138888889,-0.259259259,1,0,0,0.8758,Diorite_rect,3,0.876,1,14,0,14,0,1,,,,,,,,,,,,,
60fda8f418c64ff072d22378,SCN,2024-06-25_09h57.41.558,LearnStrategy,2023.2.3,Win32,142.8571429,7,1,16,-0.378703704,0.237037037,1,0,0,0.8809,Diorite_15,3,15,5,2,0.881,0.158333333,-0.241666667,1,0,0,0.8076,Diorite_rect,3,0.808,1,15,0,15,0,1,,,,,,,,,,,,,
60fda8f418c64ff072d22378,SCN,2024-06-25_09h57.41.558,LearnStrategy,2023.2.3,Win32,142.8571429,7,2,1,,,,,,,,5,06,,,,,,,,,,,5,1.161,1,,,,,,-0.373148148,-0.408333333,1,0,0,1.1611,Obsidian_rect,0,0,0,0,1,
60fda8f418c64ff072d22378,SCN,2024-06-25_09h57.41.558,LearnStrategy,2023.2.3,Win32,142.8571429,7,2,2,,,,,,,,4,08,,,,,,,,,,,4,5.211,1,,,,,,0.39537037,-0.25462963,1,0,0,5.2112,Gabbro_rect,1,0,1,0,1,
60fda8f418c64ff072d22378,SCN,2024-06-25_09h57.41.558,LearnStrategy,2023.2.3,Win32,142.8571429,7,2,3,,,,,,,,7,16,,,,,,,,,,,7,1.485,1,,,,,,0.17037037,-0.415740741,1,0,0,1.4852,Peridotite_rect,2,0,2,0,1,
60fda8f418c64ff072d22378,SCN,2024-06-25_09h57.41.558,LearnStrategy,2023.2.3,Win32,142.8571429,7,2,4,,,,,,,,3,13,,,,,,,,,,,3,1.501,1,,,,,,0.149074074,-0.243518519,1,0,0,1.5012,Diorite_rect,3,0,3,0,1,
60fda8f418c64ff072d22378,SCN,2024-06-25_09h57.41.558,LearnStrategy,2023.2.3,Win32,142.8571429,7,2,5,,,,,,,,6,12,,,,,,,,,,,6,1.788,1,,,,,,-0.075,-0.402777778,1,0,0,1.7876,Pegmatite_rect,4,0,4,0,1,
60fda8f418c64ff072d22378,SCN,2024-06-25_09h57.41.558,LearnStrategy,2023.2.3,Win32,142.8571429,7,2,6,,,,,,,,1,07,,,,,,,,,,,3,1.871,0,,,,,,0.090740741,-0.24537037,1,0,0,1.871,Diorite_rect,5,0,5,0,1,
60fda8f418c64ff072d22378,SCN,2024-06-25_09h57.41.558,LearnStrategy,2023.2.3,Win32,142.8571429,7,2,7,,,,,,,,2,06,,,,,,,,,,,2,1.18,1,,,,,,-0.107407407,-0.260185185,1,0,0,1.1798,Basalt_rect,6,0,6,0,1,
60fda8f418c64ff072d22378,SCN,2024-06-25_09h57.41.558,LearnStrategy,2023.2.3,Win32,142.8571429,7,2,8,,,,,,,,2,02,,,,,,,,,,,2,1.797,1,,,,,,-0.103703704,-0.255555556,1,0,0,1.7974,Basalt_rect,7,0,7,0,1,
60fda8f418c64ff072d22378,SCN,2024-06-25_09h57.41.558,LearnStrategy,2023.2.3,Win32,142.8571429,7,2,9,,,,,,,,1,05,,,,,,,,,,,1,1.61,1,,,,,,-0.350925926,-0.266666667,1,0,0,1.6101,Andesite_rect,8,0,8,0,1,
60fda8f418c64ff072d22378,SCN,2024-06-25_09h57.41.558,LearnStrategy,2023.2.3,Win32,142.8571429,7,2,10,,,,,,,,7,12,,,,,,,,,,,3,1.252,0,,,,,,0.144444444,-0.269444444,1,0,0,1.2521,Diorite_rect,9,0,9,0,1,
60fda8f418c64ff072d22378,SCN,2024-06-25_09h57.41.558,LearnStrategy,2023.2.3,Win32,142.8571429,7,2,11,,,,,,,,8,14,,,,,,,,,,,8,0.955,1,,,,,,0.399074074,-0.4,1,0,0,0.955,Pumice_rect,10,0,10,0,1,
60fda8f418c64ff072d22378,SCN,2024-06-25_09h57.41.558,LearnStrategy,2023.2.3,Win32,142.8571429,7,2,12,,,,,,,,8,04,,,,,,,,,,,8,1.013,1,,,,,,0.390740741,-0.406481481,1,0,0,1.0132,Pumice_rect,11,0,11,0,1,
60fda8f418c64ff072d22378,SCN,2024-06-25_09h57.41.558,LearnStrategy,2023.2.3,Win32,142.8571429,7,2,13,,,,,,,,6,07,,,,,,,,,,,6,1.842,1,,,,,,-0.160185185,-0.407407407,1,0,0,1.8416,Pegmatite_rect,12,0,12,0,1,
60fda8f418c64ff072d22378,SCN,2024-06-25_09h57.41.558,LearnStrategy,2023.2.3,Win32,142.8571429,7,2,14,,,,,,,,5,05,,,,,,,,,,,5,1.331,1,,,,,,-0.310185185,-0.409259259,1,0,0,1.3305,Obsidian_rect,13,0,13,0,1,
60fda8f418c64ff072d22378,SCN,2024-06-25_09h57.41.558,LearnStrategy,2023.2.3,Win32,142.8571429,7,2,15,,,,,,,,4,15,,,,,,,,,,,4,1.84,1,,,,,,0.433333333,-0.264814815,1,0,0,1.8403,Gabbro_rect,14,0,14,0,1,
60fda8f418c64ff072d22378,SCN,2024-06-25_09h57.41.558,LearnStrategy,2023.2.3,Win32,142.8571429,7,2,16,,,,,,,,3,06,,,,,,,,,,,3,1.848,1,,,,,,0.193518519,-0.248148148,1,0,0,1.8482,Diorite_rect,15,0,15,0,1,
60fda8f418c64ff072d22378,SCN,2024-06-25_09h57.41.558,LearnStrategy,2023.2.3,Win32,142.8571429,8,1,1,0.087037037,0.219444444,1,0,0,5.3662,Gabbro_03,4,03,5,5,5.366,0.175,-0.244444444,1,0,0,0.8266,Diorite_rect,3,0.827,0,0,0,0,0,1,,,,,,,,,,,,,
60fda8f418c64ff072d22378,SCN,2024-06-25_09h57.41.558,LearnStrategy,2023.2.3,Win32,142.8571429,8,1,2,0.260185185,0.240740741,1,0,0,0.9894,Diorite_16,3,16,5,6,0.989,0.137037037,-0.263888889,1,0,0,0.8824,Diorite_rect,3,0.882,1,1,0,1,0,1,,,,,,,,,,,,,
60fda8f418c64ff072d22378,SCN,2024-06-25_09h57.41.558,LearnStrategy,2023.2.3,Win32,142.8571429,8,1,3,0.42037037,0.241666667,1,0,0,1.1657,Andesite_10,1,10,5,7,1.166,0.381481481,-0.258333333,1,0,0,2.1393,Gabbro_rect,4,2.139,0,2,0,2,0,1,,,,,,,,,,,,,
60fda8f418c64ff072d22378,SCN,2024-06-25_09h57.41.558,LearnStrategy,2023.2.3,Win32,142.8571429,8,1,4,0.547222222,0.260185185,1,0,0,0.6835,Peridotite_02,7,02,5,8,0.683,0.12037037,-0.406481481,1,0,0,1.1626,Peridotite_rect,7,1.163,1,3,0,3,0,1,,,,,,,,,,,,,
60fda8f418c64ff072d22378,SCN,2024-06-25_09h57.41.558,LearnStrategy,2023.2.3,Win32,142.8571429,8,1,5,-0.55462963,0.099074074,1,0,0,0.6309,Peridotite_13,7,13,4,1,0.631,0.185185185,-0.416666667,1,0,0,0.543,Peridotite_rect,7,0.543,1,4,0,4,0,1,,,,,,,,,,,,,
60fda8f418c64ff072d22378,SCN,2024-06-25_09h57.41.558,LearnStrategy,2023.2.3,Win32,142.8571429,8,1,6,-0.412037037,0.115740741,1,0,0,0.8118,Peridotite_10,7,10,4,2,0.812,0.161111111,-0.42037037,1,0,0,1.2,Peridotite_rect,7,1.2,1,5,0,5,0,1,,,,,,,,,,,,,
60fda8f418c64ff072d22378,SCN,2024-06-25_09h57.41.558,LearnStrategy,2023.2.3,Win32,142.8571429,8,1,7,-0.230555556,0.077777778,1,0,0,0.645,Pumice_06,8,06,4,3,0.645,0.332407407,-0.387037037,1,0,0,0.9788,Pumice_rect,8,0.979,1,6,0,6,0,1,,,,,,,,,,,,,
60fda8f418c64ff072d22378,SCN,2024-06-25_09h57.41.558,LearnStrategy,2023.2.3,Win32,142.8571429,8,1,8,-0.092592593,0.074074074,1,0,0,0.5545,Gabbro_16,4,16,4,4,0.554,0.355555556,-0.261111111,1,0,0,0.9599,Gabbro_rect,4,0.96,1,7,0,7,0,1,,,,,,,,,,,,,
60fda8f418c64ff072d22378,SCN,2024-06-25_09h57.41.558,LearnStrategy,2023.2.3,Win32,142.8571429,8,1,9,0.05462963,0.065740741,1,0,0,0.5965,Pegmatite_16,6,16,4,5,0.597,-0.115740741,-0.400925926,1,0,0,0.8214,Pegmatite_rect,6,0.821,1,8,0,8,0,1,,,,,,,,,,,,,
60fda8f418c64ff072d22378,SCN,2024-06-25_09h57.41.558,LearnStrategy,2023.2.3,Win32,142.8571429,8,1,10,0.246296296,0.081481481,1,0,0,0.569,Gabbro_13,4,13,4,6,0.569,0.387962963,-0.230555556,1,0,0,2.3723,Gabbro_rect,4,2.372,1,9,0,9,0,1,,,,,,,,,,,,,
60fda8f418c64ff072d22378,SCN,2024-06-25_09h57.41.558,LearnStrategy,2023.2.3,Win32,142.8571429,8,1,11,0.398148148,0.106481481,1,0,0,0.6379,Obsidian_07,5,07,4,7,0.638,-0.37962963,-0.385185185,1,0,0,0.6332,Obsidian_rect,5,0.633,1,10,0,10,0,1,,,,,,,,,,,,,
60fda8f418c64ff072d22378,SCN,2024-06-25_09h57.41.558,LearnStrategy,2023.2.3,Win32,142.8571429,8,1,12,-0.372222222,-0.093518519,1,0,0,2.4786,Basalt_01,2,01,3,2,2.479,-0.12037037,-0.258333333,1,0,0,1.4002,Basalt_rect,2,1.4,1,11,0,11,0,1,,,,,,,,,,,,,
60fda8f418c64ff072d22378,SCN,2024-06-25_09h57.41.558,LearnStrategy,2023.2.3,Win32,142.8571429,8,1,13,0.240740741,-0.114814815,1,0,0,2.4118,Andesite_14,1,14,3,6,2.412,-0.076851852,-0.408333333,1,0,0,0.9204,Pegmatite_rect,6,0.92,0,12,0,12,0,1,,,,,,,,,,,,,
60fda8f418c64ff072d22378,SCN,2024-06-25_09h57.41.558,LearnStrategy,2023.2.3,Win32,142.8571429,8,1,14,0.424074074,-0.099074074,1,0,0,1.1241,Pumice_16,8,16,3,7,1.124,0.386111111,-0.410185185,1,0,0,0.4812,Pumice_rect,8,0.481,1,13,0,13,0,1,,,,,,,,,,,,,
60fda8f418c64ff072d22378,SCN,2024-06-25_09h57.41.558,LearnStrategy,2023.2.3,Win32,142.8571429,8,1,15,-0.514814815,-0.262962963,1,0,0,1.8344,Obsidian_14,5,14,2,1,1.834,-0.396296296,-0.4,1,0,0,0.7801,Obsidian_rect,5,0.78,1,14,0,14,0,1,,,,,,,,,,,,,
60fda8f418c64ff072d22378,SCN,2024-06-25_09h57.41.558,LearnStrategy,2023.2.3,Win32,142.8571429,8,1,16,-0.374074074,-0.241666667,1,0,0,0.7365,Andesite_04,1,04,2,2,0.736,-0.389814815,-0.250925926,1,0,0,0.7817,Andesite_rect,1,0.782,1,15,0,15,0,1,,,,,,,,,,,,,
60fda8f418c64ff072d22378,SCN,2024-06-25_09h57.41.558,LearnStrategy,2023.2.3,Win32,142.8571429,8,2,1,,,,,,,,7,08,,,,,,,,,,,7,1.153,1,,,,,,0.163888889,-0.407407407,1,0,0,1.1526,Peridotite_rect,0,0,0,0,1,
60fda8f418c64ff072d22378,SCN,2024-06-25_09h57.41.558,LearnStrategy,2023.2.3,Win32,142.8571429,8,2,2,,,,,,,,3,11,,,,,,,,,,,3,2.835,1,,,,,,0.115740741,-0.248148148,1,0,0,2.8351,Diorite_rect,1,0,1,0,1,
60fda8f418c64ff072d22378,SCN,2024-06-25_09h57.41.558,LearnStrategy,2023.2.3,Win32,142.8571429,8,2,3,,,,,,,,1,16,,,,,,,,,,,1,2.987,1,,,,,,-0.384259259,-0.252777778,1,0,0,2.9872,Andesite_rect,2,0,2,0,1,
60fda8f418c64ff072d22378,SCN,2024-06-25_09h57.41.558,LearnStrategy,2023.2.3,Win32,142.8571429,8,2,4,,,,,,,,8,08,,,,,,,,,,,8,1.01,1,,,,,,0.486111111,-0.407407407,1,0,0,1.01,Pumice_rect,3,0,3,0,1,
60fda8f418c64ff072d22378,SCN,2024-06-25_09h57.41.558,LearnStrategy,2023.2.3,Win32,142.8571429,8,2,5,,,,,,,,8,05,,,,,,,,,,,8,0.84,1,,,,,,0.475,-0.410185185,1,0,0,0.8398,Pumice_rect,4,0,4,0,1,
60fda8f418c64ff072d22378,SCN,2024-06-25_09h57.41.558,LearnStrategy,2023.2.3,Win32,142.8571429,8,2,6,,,,,,,,6,08,,,,,,,,,,,6,1.444,1,,,,,,-0.162962963,-0.406481481,1,0,0,1.4438,Pegmatite_rect,5,0,5,0,1,
60fda8f418c64ff072d22378,SCN,2024-06-25_09h57.41.558,LearnStrategy,2023.2.3,Win32,142.8571429,8,2,7,,,,,,,,4,10,,,,,,,,,,,4,2.663,1,,,,,,0.372222222,-0.242592593,1,0,0,2.6626,Gabbro_rect,6,0,6,0,1,
60fda8f418c64ff072d22378,SCN,2024-06-25_09h57.41.558,LearnStrategy,2023.2.3,Win32,142.8571429,8,2,8,,,,,,,,5,09,,,,,,,,,,,5,1.014,1,,,,,,-0.447222222,-0.4,1,0,0,1.0141,Obsidian_rect,7,0,7,0,1,
60fda8f418c64ff072d22378,SCN,2024-06-25_09h57.41.558,LearnStrategy,2023.2.3,Win32,142.8571429,8,2,9,,,,,,,,1,01,,,,,,,,,,,1,3.029,1,,,,,,-0.412037037,-0.249074074,1,0,0,3.0287,Andesite_rect,8,0,8,0,1,
60fda8f418c64ff072d22378,SCN,2024-06-25_09h57.41.558,LearnStrategy,2023.2.3,Win32,142.8571429,8,2,10,,,,,,,,3,09,,,,,,,,,,,3,1.097,1,,,,,,0.137962963,-0.237962963,1,0,0,1.0972,Diorite_rect,9,0,9,0,1,
60fda8f418c64ff072d22378,SCN,2024-06-25_09h57.41.558,LearnStrategy,2023.2.3,Win32,142.8571429,8,2,11,,,,,,,,5,08,,,,,,,,,,,5,0.944,1,,,,,,-0.4,-0.403703704,1,0,0,0.9439,Obsidian_rect,10,0,10,0,1,
60fda8f418c64ff072d22378,SCN,2024-06-25_09h57.41.558,LearnStrategy,2023.2.3,Win32,142.8571429,8,2,12,,,,,,,,6,10,,,,,,,,,,,7,1.135,0,,,,,,0.140740741,-0.410185185,1,0,0,1.1349,Peridotite_rect,11,0,11,0,1,
60fda8f418c64ff072d22378,SCN,2024-06-25_09h57.41.558,LearnStrategy,2023.2.3,Win32,142.8571429,8,2,13,,,,,,,,2,04,,,,,,,,,,,2,1.214,1,,,,,,-0.068518519,-0.253703704,1,0,0,1.2142,Basalt_rect,12,0,12,0,1,
60fda8f418c64ff072d22378,SCN,2024-06-25_09h57.41.558,LearnStrategy,2023.2.3,Win32,142.8571429,8,2,14,,,,,,,,4,12,,,,,,,,,,,4,1.834,1,,,,,,0.376851852,-0.267592593,1,0,0,1.834,Gabbro_rect,13,0,13,0,1,
60fda8f418c64ff072d22378,SCN,2024-06-25_09h57.41.558,LearnStrategy,2023.2.3,Win32,142.8571429,8,2,15,,,,,,,,2,12,,,,,,,,,,,8,2.788,0,,,,,,0.343518519,-0.388888889,1,0,0,2.7883,Pumice_rect,14,0,14,0,1,
60fda8f418c64ff072d22378,SCN,2024-06-25_09h57.41.558,LearnStrategy,2023.2.3,Win32,142.8571429,8,2,16,,,,,,,,7,07,,,,,,,,,,,7,1.701,1,,,,,,0.116666667,-0.412037037,1,0,0,1.7007,Peridotite_rect,15,0,15,0,1,
60fda8f418c64ff072d22378,SCN,2024-06-25_09h57.41.558,LearnStrategy,2023.2.3,Win32,142.8571429,9,1,1,-0.412037037,-0.275925926,1,0,0,2.5644,Andesite_04,1,04,2,2,2.564,-0.339814815,-0.237037037,1,0,0,0.6367,Andesite_rect,1,0.637,1,0,0,0,0,1,,,,,,,,,,,,,
60fda8f418c64ff072d22378,SCN,2024-06-25_09h57.41.558,LearnStrategy,2023.2.3,Win32,142.8571429,9,1,2,-0.262962963,-0.238888889,1,0,0,0.6659,Basalt_16,2,16,2,3,0.666,0.32037037,-0.237962963,1,0,0,0.6653,Gabbro_rect,4,0.665,0,1,0,1,0,1,,,,,,,,,,,,,
60fda8f418c64ff072d22378,SCN,2024-06-25_09h57.41.558,LearnStrategy,2023.2.3,Win32,142.8571429,9,1,3,-0.103703704,-0.266666667,1,0,0,2.191,Gabbro_09,4,09,2,4,2.191,0.411111111,-0.25462963,1,0,0,1.6685,Gabbro_rect,4,1.668,1,2,0,2,0,1,,,,,,,,,,,,,
60fda8f418c64ff072d22378,SCN,2024-06-25_09h57.41.558,LearnStrategy,2023.2.3,Win32,142.8571429,9,1,4,0.087037037,-0.272222222,1,0,0,0.5934,Pegmatite_06,6,06,2,5,0.593,0.046296296,-0.409259259,1,0,0,1.2527,Peridotite_rect,7,1.253,0,3,0,3,0,1,,,,,,,,,,,,,
60fda8f418c64ff072d22378,SCN,2024-06-25_09h57.41.558,LearnStrategy,2023.2.3,Win32,142.8571429,9,1,5,0.218518519,-0.278703704,1,0,0,1.1863,Andesite_03,1,03,2,6,1.186,-0.360185185,-0.268518519,1,0,0,1.1006,Andesite_rect,1,1.101,1,4,0,4,0,1,,,,,,,,,,,,,
60fda8f418c64ff072d22378,SCN,2024-06-25_09h57.41.558,LearnStrategy,2023.2.3,Win32,142.8571429,9,1,6,0.417592593,-0.273148148,1,0,0,0.6063,Pumice_03,8,03,2,7,0.606,0.413888889,-0.405555556,1,0,0,0.5298,Pumice_rect,8,0.53,1,5,0,5,0,1,,,,,,,,,,,,,
60fda8f418c64ff072d22378,SCN,2024-06-25_09h57.41.558,LearnStrategy,2023.2.3,Win32,142.8571429,9,1,7,0.592592593,-0.296296296,1,0,0,0.8673,Gabbro_11,4,11,2,8,0.867,0.491666667,-0.255555556,1,0,0,0.5177,Gabbro_rect,4,0.518,1,6,0,6,0,1,,,,,,,,,,,,,
60fda8f418c64ff072d22378,SCN,2024-06-25_09h57.41.558,LearnStrategy,2023.2.3,Win32,142.8571429,9,1,8,-0.407407407,-0.426851852,1,0,0,1.2192,Basalt_10,2,10,1,2,1.219,0.346296296,-0.247222222,1,0,0,1.0239,Gabbro_rect,4,1.024,0,7,0,7,0,1,,,,,,,,,,,,,
60fda8f418c64ff072d22378,SCN,2024-06-25_09h57.41.558,LearnStrategy,2023.2.3,Win32,142.8571429,9,1,9,-0.230555556,-0.425925926,1,0,0,0.7212,Gabbro_14,4,14,1,3,0.721,0.34537037,-0.242592593,1,0,0,1.0211,Gabbro_rect,4,1.021,1,8,0,8,0,1,,,,,,,,,,,,,
60fda8f418c64ff072d22378,SCN,2024-06-25_09h57.41.558,LearnStrategy,2023.2.3,Win32,142.8571429,9,1,10,-0.075,-0.411111111,1,0,0,0.6867,Diorite_08,3,08,1,4,0.687,0.10462963,-0.259259259,1,0,0,0.5601,Diorite_rect,3,0.56,1,9,0,9,0,1,,,,,,,,,,,,,
60fda8f418c64ff072d22378,SCN,2024-06-25_09h57.41.558,LearnStrategy,2023.2.3,Win32,142.8571429,9,1,11,0.063888889,-0.436111111,1,0,0,0.6882,Pumice_09,8,09,1,5,0.688,0.337037037,-0.398148148,1,0,0,1.0732,Pumice_rect,8,1.073,1,10,0,10,0,1,,,,,,,,,,,,,
60fda8f418c64ff072d22378,SCN,2024-06-25_09h57.41.558,LearnStrategy,2023.2.3,Win32,142.8571429,9,1,12,0.257407407,-0.419444444,1,0,0,0.5063,Peridotite_06,7,06,1,6,0.506,0.132407407,-0.412962963,1,0,0,0.4971,Peridotite_rect,7,0.497,1,11,0,11,0,1,,,,,,,,,,,,,
60fda8f418c64ff072d22378,SCN,2024-06-25_09h57.41.558,LearnStrategy,2023.2.3,Win32,142.8571429,9,1,13,0.434259259,-0.438888889,1,0,0,0.6037,Pumice_10,8,10,1,7,0.604,0.40462963,-0.399074074,1,0,0,0.5394,Pumice_rect,8,0.539,1,12,0,12,0,1,,,,,,,,,,,,,
60fda8f418c64ff072d22378,SCN,2024-06-25_09h57.41.558,LearnStrategy,2023.2.3,Win32,142.8571429,9,1,14,0.566666667,-0.415740741,1,0,0,0.6452,Obsidian_04,5,04,1,8,0.645,-0.450925926,-0.37962963,1,0,0,1.1327,Obsidian_rect,5,1.133,1,13,0,13,0,1,,,,,,,,,,,,,
60fda8f418c64ff072d22378,SCN,2024-06-25_09h57.41.558,LearnStrategy,2023.2.3,Win32,142.8571429,9,1,15,-0.246296296,0.248148148,1,0,0,0.8692,Andesite_09,1,09,5,3,0.869,-0.387962963,-0.233333333,1,0,0,0.5895,Andesite_rect,1,0.59,1,14,0,14,0,1,,,,,,,,,,,,,
60fda8f418c64ff072d22378,SCN,2024-06-25_09h57.41.558,LearnStrategy,2023.2.3,Win32,142.8571429,9,1,16,0.071296296,0.213888889,1,0,0,0.8755,Gabbro_03,4,03,5,5,0.875,0.142592593,-0.268518519,1,0,0,0.7197,Diorite_rect,3,0.72,0,15,0,15,0,1,,,,,,,,,,,,,
60fda8f418c64ff072d22378,SCN,2024-06-25_09h57.41.558,LearnStrategy,2023.2.3,Win32,142.8571429,9,2,1,,,,,,,,7,04,,,,,,,,,,,1,1.813,0,,,,,,-0.387962963,-0.251851852,1,0,0,1.8126,Andesite_rect,0,0,0,0,1,
60fda8f418c64ff072d22378,SCN,2024-06-25_09h57.41.558,LearnStrategy,2023.2.3,Win32,142.8571429,9,2,2,,,,,,,,4,05,,,,,,,,,,,4,3.164,1,,,,,,0.402777778,-0.252777778,1,0,0,3.1639,Gabbro_rect,1,0,1,0,1,
60fda8f418c64ff072d22378,SCN,2024-06-25_09h57.41.558,LearnStrategy,2023.2.3,Win32,142.8571429,9,2,3,,,,,,,,2,14,,,,,,,,,,,4,1.946,0,,,,,,0.390740741,-0.251851852,1,0,0,1.9459,Gabbro_rect,2,0,2,0,1,
60fda8f418c64ff072d22378,SCN,2024-06-25_09h57.41.558,LearnStrategy,2023.2.3,Win32,142.8571429,9,2,4,,,,,,,,4,01,,,,,,,,,,,1,4.691,0,,,,,,-0.4,-0.255555556,1,0,0,4.6915,Andesite_rect,3,0,3,0,1,
60fda8f418c64ff072d22378,SCN,2024-06-25_09h57.41.558,LearnStrategy,2023.2.3,Win32,142.8571429,9,2,5,,,,,,,,1,02,,,,,,,,,,,1,3.622,1,,,,,,-0.433333333,-0.244444444,1,0,0,3.6222,Andesite_rect,4,0,4,0,1,
60fda8f418c64ff072d22378,SCN,2024-06-25_09h57.41.558,LearnStrategy,2023.2.3,Win32,142.8571429,9,2,6,,,,,,,,3,12,,,,,,,,,,,3,1.238,1,,,,,,0.109259259,-0.246296296,1,0,0,1.2376,Diorite_rect,5,0,5,0,1,
60fda8f418c64ff072d22378,SCN,2024-06-25_09h57.41.558,LearnStrategy,2023.2.3,Win32,142.8571429,9,2,7,,,,,,,,5,02,,,,,,,,,,,5,0.928,1,,,,,,-0.417592593,-0.400925926,1,0,0,0.9277,Obsidian_rect,6,0,6,0,1,
60fda8f418c64ff072d22378,SCN,2024-06-25_09h57.41.558,LearnStrategy,2023.2.3,Win32,142.8571429,9,2,8,,,,,,,,2,08,,,,,,,,,,,2,1.147,1,,,,,,-0.165740741,-0.250925926,1,0,0,1.1466,Basalt_rect,7,0,7,0,1,
60fda8f418c64ff072d22378,SCN,2024-06-25_09h57.41.558,LearnStrategy,2023.2.3,Win32,142.8571429,9,2,9,,,,,,,,1,06,,,,,,,,,,,1,1.846,1,,,,,,-0.357407407,-0.268518519,1,0,0,1.846,Andesite_rect,8,0,8,0,1,
60fda8f418c64ff072d22378,SCN,2024-06-25_09h57.41.558,LearnStrategy,2023.2.3,Win32,142.8571429,9,2,10,,,,,,,,6,15,,,,,,,,,,,6,1.346,1,,,,,,-0.103703704,-0.401851852,1,0,0,1.3457,Pegmatite_rect,9,0,9,0,1,
60fda8f418c64ff072d22378,SCN,2024-06-25_09h57.41.558,LearnStrategy,2023.2.3,Win32,142.8571429,9,2,11,,,,,,,,6,11,,,,,,,,,,,6,1.03,1,,,,,,-0.112962963,-0.401851852,1,0,0,1.0301,Pegmatite_rect,10,0,10,0,1,
60fda8f418c64ff072d22378,SCN,2024-06-25_09h57.41.558,LearnStrategy,2023.2.3,Win32,142.8571429,9,2,12,,,,,,,,8,15,,,,,,,,,,,8,2.444,1,,,,,,0.394444444,-0.406481481,1,0,0,2.4442,Pumice_rect,11,0,11,0,1,
60fda8f418c64ff072d22378,SCN,2024-06-25_09h57.41.558,LearnStrategy,2023.2.3,Win32,142.8571429,9,2,13,,,,,,,,7,05,,,,,,,,,,,7,2.268,1,,,,,,0.10462963,-0.402777778,1,0,0,2.2678,Peridotite_rect,12,0,12,0,1,
60fda8f418c64ff072d22378,SCN,2024-06-25_09h57.41.558,LearnStrategy,2023.2.3,Win32,142.8571429,9,2,14,,,,,,,,3,02,,,,,,,,,,,3,0.959,1,,,,,,0.135185185,-0.258333333,1,0,0,0.9594,Diorite_rect,13,0,13,0,1,
60fda8f418c64ff072d22378,SCN,2024-06-25_09h57.41.558,LearnStrategy,2023.2.3,Win32,142.8571429,9,2,15,,,,,,,,5,10,,,,,,,,,,,5,0.951,1,,,,,,-0.366666667,-0.391666667,1,0,0,0.9515,Obsidian_rect,14,0,14,0,1,
60fda8f418c64ff072d22378,SCN,2024-06-25_09h57.41.558,LearnStrategy,2023.2.3,Win32,142.8571429,9,2,16,,,,,,,,8,13,,,,,,,,,,,8,0.951,1,,,,,,0.447222222,-0.407407407,1,0,0,0.9508,Pumice_rect,15,0,15,0,1,
60fda8f418c64ff072d22378,SCN,2024-06-25_09h57.41.558,LearnStrategy,2023.2.3,Win32,142.8571429,,,,,,,,,,,,,,,,,,,,,,,,,,,,,,,,,,,,,,,,,,,1
60fda8f418c64ff072d22378,SCN,2024-06-25_09h57.41.558,LearnStrategy,2023.2.3,Win32,142.8571429,,,,,,,,,,,,,,,,,,,,,,,,,,,,,,,,,,,,,,,,,,,
60fda8f418c64ff072d22378,SCN,2024-06-25_09h57.41.558,LearnStrategy,2023.2.3,Win32,142.8571429,,,,,,,,,,,5,16,1,1,,,,,,,,,,,,,,,,,,,,,,,,,,,,,
60fda8f418c64ff072d22378,SCN,2024-06-25_09h57.41.558,LearnStrategy,2023.2.3,Win32,142.8571429,,,,,,,,,,,2,10,1,2,,,,,,,,,,,,,,,,,,,,,,,,,,,,,
60fda8f418c64ff072d22378,SCN,2024-06-25_09h57.41.558,LearnStrategy,2023.2.3,Win32,142.8571429,,,,,,,,,,,4,14,1,3,,,,,,,,,,,,,,,,,,,,,,,,,,,,,
60fda8f418c64ff072d22378,SCN,2024-06-25_09h57.41.558,LearnStrategy,2023.2.3,Win32,142.8571429,,,,,,,,,,,3,08,1,4,,,,,,,,,,,,,,,,,,,,,,,,,,,,,
60fda8f418c64ff072d22378,SCN,2024-06-25_09h57.41.558,LearnStrategy,2023.2.3,Win32,142.8571429,,,,,,,,,,,8,09,1,5,,,,,,,,,,,,,,,,,,,,,,,,,,,,,
60fda8f418c64ff072d22378,SCN,2024-06-25_09h57.41.558,LearnStrategy,2023.2.3,Win32,142.8571429,,,,,,,,,,,7,06,1,6,,,,,,,,,,,,,,,,,,,,,,,,,,,,,
60fda8f418c64ff072d22378,SCN,2024-06-25_09h57.41.558,LearnStrategy,2023.2.3,Win32,142.8571429,,,,,,,,,,,8,10,1,7,,,,,,,,,,,,,,,,,,,,,,,,,,,,,
60fda8f418c64ff072d22378,SCN,2024-06-25_09h57.41.558,LearnStrategy,2023.2.3,Win32,142.8571429,,,,,,,,,,,5,04,1,8,,,,,,,,,,,,,,,,,,,,,,,,,,,,,
60fda8f418c64ff072d22378,SCN,2024-06-25_09h57.41.558,LearnStrategy,2023.2.3,Win32,142.8571429,,,,,,,,,,,5,14,2,1,,,,,,,,,,,,,,,,,,,,,,,,,,,,,
60fda8f418c64ff072d22378,SCN,2024-06-25_09h57.41.558,LearnStrategy,2023.2.3,Win32,142.8571429,,,,,,,,,,,1,04,2,2,,,,,,,,,,,,,,,,,,,,,,,,,,,,,
60fda8f418c64ff072d22378,SCN,2024-06-25_09h57.41.558,LearnStrategy,2023.2.3,Win32,142.8571429,,,,,,,,,,,2,16,2,3,,,,,,,,,,,,,,,,,,,,,,,,,,,,,
60fda8f418c64ff072d22378,SCN,2024-06-25_09h57.41.558,LearnStrategy,2023.2.3,Win32,142.8571429,,,,,,,,,,,4,09,2,4,,,,,,,,,,,,,,,,,,,,,,,,,,,,,
60fda8f418c64ff072d22378,SCN,2024-06-25_09h57.41.558,LearnStrategy,2023.2.3,Win32,142.8571429,,,,,,,,,,,6,06,2,5,,,,,,,,,,,,,,,,,,,,,,,,,,,,,
60fda8f418c64ff072d22378,SCN,2024-06-25_09h57.41.558,LearnStrategy,2023.2.3,Win32,142.8571429,,,,,,,,,,,1,03,2,6,,,,,,,,,,,,,,,,,,,,,,,,,,,,,
60fda8f418c64ff072d22378,SCN,2024-06-25_09h57.41.558,LearnStrategy,2023.2.3,Win32,142.8571429,,,,,,,,,,,8,03,2,7,,,,,,,,,,,,,,,,,,,,,,,,,,,,,
60fda8f418c64ff072d22378,SCN,2024-06-25_09h57.41.558,LearnStrategy,2023.2.3,Win32,142.8571429,,,,,,,,,,,4,11,2,8,,,,,,,,,,,,,,,,,,,,,,,,,,,,,
60fda8f418c64ff072d22378,SCN,2024-06-25_09h57.41.558,LearnStrategy,2023.2.3,Win32,142.8571429,,,,,,,,,,,6,05,3,1,,,,,,,,,,,,,,,,,,,,,,,,,,,,,
60fda8f418c64ff072d22378,SCN,2024-06-25_09h57.41.558,LearnStrategy,2023.2.3,Win32,142.8571429,,,,,,,,,,,2,01,3,2,,,,,,,,,,,,,,,,,,,,,,,,,,,,,
60fda8f418c64ff072d22378,SCN,2024-06-25_09h57.41.558,LearnStrategy,2023.2.3,Win32,142.8571429,,,,,,,,,,,5,12,3,3,,,,,,,,,,,,,,,,,,,,,,,,,,,,,
60fda8f418c64ff072d22378,SCN,2024-06-25_09h57.41.558,LearnStrategy,2023.2.3,Win32,142.8571429,,,,,,,,,,,3,07,3,4,,,,,,,,,,,,,,,,,,,,,,,,,,,,,
60fda8f418c64ff072d22378,SCN,2024-06-25_09h57.41.558,LearnStrategy,2023.2.3,Win32,142.8571429,,,,,,,,,,,7,14,3,5,,,,,,,,,,,,,,,,,,,,,,,,,,,,,
60fda8f418c64ff072d22378,SCN,2024-06-25_09h57.41.558,LearnStrategy,2023.2.3,Win32,142.8571429,,,,,,,,,,,1,14,3,6,,,,,,,,,,,,,,,,,,,,,,,,,,,,,
60fda8f418c64ff072d22378,SCN,2024-06-25_09h57.41.558,LearnStrategy,2023.2.3,Win32,142.8571429,,,,,,,,,,,8,16,3,7,,,,,,,,,,,,,,,,,,,,,,,,,,,,,
60fda8f418c64ff072d22378,SCN,2024-06-25_09h57.41.558,LearnStrategy,2023.2.3,Win32,142.8571429,,,,,,,,,,,5,11,3,8,,,,,,,,,,,,,,,,,,,,,,,,,,,,,
60fda8f418c64ff072d22378,SCN,2024-06-25_09h57.41.558,LearnStrategy,2023.2.3,Win32,142.8571429,,,,,,,,,,,7,13,4,1,,,,,,,,,,,,,,,,,,,,,,,,,,,,,
60fda8f418c64ff072d22378,SCN,2024-06-25_09h57.41.558,LearnStrategy,2023.2.3,Win32,142.8571429,,,,,,,,,,,7,10,4,2,,,,,,,,,,,,,,,,,,,,,,,,,,,,,
60fda8f418c64ff072d22378,SCN,2024-06-25_09h57.41.558,LearnStrategy,2023.2.3,Win32,142.8571429,,,,,,,,,,,8,06,4,3,,,,,,,,,,,,,,,,,,,,,,,,,,,,,
60fda8f418c64ff072d22378,SCN,2024-06-25_09h57.41.558,LearnStrategy,2023.2.3,Win32,142.8571429,,,,,,,,,,,4,16,4,4,,,,,,,,,,,,,,,,,,,,,,,,,,,,,
60fda8f418c64ff072d22378,SCN,2024-06-25_09h57.41.558,LearnStrategy,2023.2.3,Win32,142.8571429,,,,,,,,,,,6,16,4,5,,,,,,,,,,,,,,,,,,,,,,,,,,,,,
60fda8f418c64ff072d22378,SCN,2024-06-25_09h57.41.558,LearnStrategy,2023.2.3,Win32,142.8571429,,,,,,,,,,,4,13,4,6,,,,,,,,,,,,,,,,,,,,,,,,,,,,,
60fda8f418c64ff072d22378,SCN,2024-06-25_09h57.41.558,LearnStrategy,2023.2.3,Win32,142.8571429,,,,,,,,,,,5,07,4,7,,,,,,,,,,,,,,,,,,,,,,,,,,,,,
60fda8f418c64ff072d22378,SCN,2024-06-25_09h57.41.558,LearnStrategy,2023.2.3,Win32,142.8571429,,,,,,,,,,,6,03,4,8,,,,,,,,,,,,,,,,,,,,,,,,,,,,,
60fda8f418c64ff072d22378,SCN,2024-06-25_09h57.41.558,LearnStrategy,2023.2.3,Win32,142.8571429,,,,,,,,,,,3,10,5,1,,,,,,,,,,,,,,,,,,,,,,,,,,,,,
60fda8f418c64ff072d22378,SCN,2024-06-25_09h57.41.558,LearnStrategy,2023.2.3,Win32,142.8571429,,,,,,,,,,,3,15,5,2,,,,,,,,,,,,,,,,,,,,,,,,,,,,,
60fda8f418c64ff072d22378,SCN,2024-06-25_09h57.41.558,LearnStrategy,2023.2.3,Win32,142.8571429,,,,,,,,,,,1,09,5,3,,,,,,,,,,,,,,,,,,,,,,,,,,,,,
60fda8f418c64ff072d22378,SCN,2024-06-25_09h57.41.558,LearnStrategy,2023.2.3,Win32,142.8571429,,,,,,,,,,,1,11,5,4,,,,,,,,,,,,,,,,,,,,,,,,,,,,,
60fda8f418c64ff072d22378,SCN,2024-06-25_09h57.41.558,LearnStrategy,2023.2.3,Win32,142.8571429,,,,,,,,,,,4,03,5,5,,,,,,,,,,,,,,,,,,,,,,,,,,,,,
60fda8f418c64ff072d22378,SCN,2024-06-25_09h57.41.558,LearnStrategy,2023.2.3,Win32,142.8571429,,,,,,,,,,,3,16,5,6,,,,,,,,,,,,,,,,,,,,,,,,,,,,,
60fda8f418c64ff072d22378,SCN,2024-06-25_09h57.41.558,LearnStrategy,2023.2.3,Win32,142.8571429,,,,,,,,,,,1,10,5,7,,,,,,,,,,,,,,,,,,,,,,,,,,,,,
60fda8f418c64ff072d22378,SCN,2024-06-25_09h57.41.558,LearnStrategy,2023.2.3,Win32,142.8571429,,,,,,,,,,,7,02,5,8,,,,,,,,,,,,,,,,,,,,,,,,,,,,,
60fda8f418c64ff072d22378,SCN,2024-06-25_09h57.41.558,LearnStrategy,2023.2.3,Win32,142.8571429,,,,,,,,,,,6,13,6,1,,,,,,,,,,,,,,,,,,,,,,,,,,,,,
60fda8f418c64ff072d22378,SCN,2024-06-25_09h57.41.558,LearnStrategy,2023.2.3,Win32,142.8571429,,,,,,,,,,,2,09,6,2,,,,,,,,,,,,,,,,,,,,,,,,,,,,,
60fda8f418c64ff072d22378,SCN,2024-06-25_09h57.41.558,LearnStrategy,2023.2.3,Win32,142.8571429,,,,,,,,,,,6,09,6,3,,,,,,,,,,,,,,,,,,,,,,,,,,,,,
60fda8f418c64ff072d22378,SCN,2024-06-25_09h57.41.558,LearnStrategy,2023.2.3,Win32,142.8571429,,,,,,,,,,,3,14,6,4,,,,,,,,,,,,,,,,,,,,,,,,,,,,,
60fda8f418c64ff072d22378,SCN,2024-06-25_09h57.41.558,LearnStrategy,2023.2.3,Win32,142.8571429,,,,,,,,,,,2,11,6,5,,,,,,,,,,,,,,,,,,,,,,,,,,,,,
60fda8f418c64ff072d22378,SCN,2024-06-25_09h57.41.558,LearnStrategy,2023.2.3,Win32,142.8571429,,,,,,,,,,,7,15,6,6,,,,,,,,,,,,,,,,,,,,,,,,,,,,,
60fda8f418c64ff072d22378,SCN,2024-06-25_09h57.41.558,LearnStrategy,2023.2.3,Win32,142.8571429,,,,,,,,,,,2,05,6,7,,,,,,,,,,,,,,,,,,,,,,,,,,,,,
60fda8f418c64ff072d22378,SCN,2024-06-25_09h57.41.558,LearnStrategy,2023.2.3,Win32,142.8571429,,,,,,,,,,,8,02,6,8,,,,,,,,,,,,,,,,,,,,,,,,,,,,,