participant,condition,date,expName,psychopyVersion,OS,frameRate,block,phase,trial,learn_mouse.x,learn_mouse.y,learn_mouse.leftButton,learn_mouse.midButton,learn_mouse.rightButton,learn_mouse.time,learn_mouse.clicked_name,cat,token,row,col,t_select,cat_mouse_l.x,cat_mouse_l.y,cat_mouse_l.leftButton,cat_mouse_l.midButton,cat_mouse_l.rightButton,cat_mouse_l.time,cat_mouse_l.clicked_name,resp,t_resp,corr,train_trials.thisRepN,train_trials.thisTrialN,train_trials.thisN,train_trials.thisIndex,train_trials.ran,cat_mouse_t.x,cat_mouse_t.y,cat_mouse_t.leftButton,cat_mouse_t.midButton,cat_mouse_t.rightButton,cat_mouse_t.time,cat_mouse_t.clicked_name,test_trials.thisRepN,test_trials.thisTrialN,test_trials.thisN,test_trials.thisIndex,test_trials.ran,Bonus
60fd6618f9a377f54dcdf318,SCN,2024-06-25_14h22.11.437,LearnStrategy,2023.2.3,MacIntel,58.82352941,,,,,,,,,,,,,,,,,,,,,,,,,,,,,,,,,,,,,,,,,,,
60fd6618f9a377f54dcdf318,SCN,2024-06-25_14h22.11.437,LearnStrategy,2023.2.3,MacIntel,58.82352941,1,1,1,0.367743056,0.224305556,1,0,0,3.2362,Pegmatite_10,6,10,5,7,3.236,0.12968316,-0.253368056,1,0,0,2.0688,Diorite_rect,3,2.069,0,0,0,0,0,1,,,,,,,,,,,,,
60fd6618f9a377f54dcdf318,SCN,2024-06-25_14h22.11.437,LearnStrategy,2023.2.3,MacIntel,58.82352941,1,1,2,-0.54891059,0.429110243,1,0,0,1.482,Gabbro_10,4,10,6,1,1.482,-0.348320313,-0.246501736,1,0,0,1.0763,Andesite_rect,1,1.076,0,1,0,1,0,1,,,,,,,,,,,,,
60fd6618f9a377f54dcdf318,SCN,2024-06-25_14h22.11.437,LearnStrategy,2023.2.3,MacIntel,58.82352941,1,1,3,-0.376006944,0.36030816,1,0,0,1.115,Pegmatite_13,6,13,6,2,1.115,-0.119053819,-0.255407986,1,0,0,2.077,Basalt_rect,2,2.077,0,2,0,2,0,1,,,,,,,,,,,,,
60fd6618f9a377f54dcdf318,SCN,2024-06-25_14h22.11.437,LearnStrategy,2023.2.3,MacIntel,58.82352941,1,1,4,0.056358507,0.062252604,1,0,0,0.6657,Gabbro_12,4,12,4,5,0.666,0.156744792,-0.265759549,1,0,0,0.775,Diorite_rect,3,0.775,0,3,0,3,0,1,,,,,,,,,,,,,
60fd6618f9a377f54dcdf318,SCN,2024-06-25_14h22.11.437,LearnStrategy,2023.2.3,MacIntel,58.82352941,1,1,5,0.41921875,0.373619792,1,0,0,1.6482,Pumice_04,8,04,6,7,1.648,0.384340278,-0.402543403,1,0,0,2.2103,Pumice_rect,8,2.21,1,4,0,4,0,1,,,,,,,,,,,,,
60fd6618f9a377f54dcdf318,SCN,2024-06-25_14h22.11.437,LearnStrategy,2023.2.3,MacIntel,58.82352941,1,1,6,-0.237443576,-0.285811632,1,0,0,1.3493,Diorite_08,3,08,2,3,1.349,-0.347269965,-0.406927083,1,0,0,2.3421,Obsidian_rect,5,2.342,0,5,0,5,0,1,,,,,,,,,,,,,
60fd6618f9a377f54dcdf318,SCN,2024-06-25_14h22.11.437,LearnStrategy,2023.2.3,MacIntel,58.82352941,1,1,7,0.545594618,-0.402855903,1,0,0,1.6162,Pumice_13,8,13,1,8,1.616,0.468168403,-0.396536458,1,0,0,1.5429,Pumice_rect,8,1.543,1,6,0,6,0,1,,,,,,,,,,,,,
60fd6618f9a377f54dcdf318,SCN,2024-06-25_14h22.11.437,LearnStrategy,2023.2.3,MacIntel,58.82352941,1,1,8,-0.370551215,-0.077131076,1,0,0,1.3656,Andesite_05,1,05,3,2,1.366,0.397690972,-0.255295139,1,0,0,1.9429,Gabbro_rect,4,1.943,0,7,0,7,0,1,,,,,,,,,,,,,
60fd6618f9a377f54dcdf318,SCN,2024-06-25_14h22.11.437,LearnStrategy,2023.2.3,MacIntel,58.82352941,1,1,9,0.577005208,-0.086059028,1,0,0,0.8821,Diorite_07,3,07,3,8,0.882,0.178298611,-0.228797743,1,0,0,1.4937,Diorite_rect,3,1.494,1,8,0,8,0,1,,,,,,,,,,,,,
60fd6618f9a377f54dcdf318,SCN,2024-06-25_14h22.11.437,LearnStrategy,2023.2.3,MacIntel,58.82352941,1,1,10,0.091371528,0.223467882,1,0,0,0.799,Andesite_01,1,01,5,5,0.799,0.123606771,-0.393342014,1,0,0,1.7437,Peridotite_rect,7,1.744,0,9,0,9,0,1,,,,,,,,,,,,,
60fd6618f9a377f54dcdf318,SCN,2024-06-25_14h22.11.437,LearnStrategy,2023.2.3,MacIntel,58.82352941,1,1,11,0.271840278,0.254618056,1,0,0,2.2655,Diorite_15,3,15,5,6,2.266,0.433927951,-0.406549479,1,0,0,1.9104,Pumice_rect,8,1.91,0,10,0,10,0,1,,,,,,,,,,,,,
60fd6618f9a377f54dcdf318,SCN,2024-06-25_14h22.11.437,LearnStrategy,2023.2.3,MacIntel,58.82352941,1,1,12,-0.538085938,-0.096766493,1,0,0,0.8825,Pumice_05,8,05,3,1,0.882,0.388949653,-0.380069444,1,0,0,0.776,Pumice_rect,8,0.776,1,11,0,11,0,1,,,,,,,,,,,,,
60fd6618f9a377f54dcdf318,SCN,2024-06-25_14h22.11.437,LearnStrategy,2023.2.3,MacIntel,58.82352941,1,1,13,-0.594735243,-0.423411458,1,0,0,0.7161,Pegmatite_15,6,15,1,1,0.716,0.168923611,-0.409205729,1,0,0,4.0599,Peridotite_rect,7,4.06,0,12,0,12,0,1,,,,,,,,,,,,,
60fd6618f9a377f54dcdf318,SCN,2024-06-25_14h22.11.437,LearnStrategy,2023.2.3,MacIntel,58.82352941,1,1,14,0.080711806,0.388854167,1,0,0,1.5985,Peridotite_13,7,13,6,5,1.599,0.134431424,-0.258090278,1,0,0,0.9103,Diorite_rect,3,0.91,0,13,0,13,0,1,,,,,,,,,,,,,
60fd6618f9a377f54dcdf318,SCN,2024-06-25_14h22.11.437,LearnStrategy,2023.2.3,MacIntel,58.82352941,1,1,15,0.575594618,0.393871528,1,0,0,1.4815,Obsidian_06,5,06,6,8,1.482,-0.088637153,-0.400381944,1,0,0,2.2279,Pegmatite_rect,6,2.228,0,14,0,14,0,1,,,,,,,,,,,,,
60fd6618f9a377f54dcdf318,SCN,2024-06-25_14h22.11.437,LearnStrategy,2023.2.3,MacIntel,58.82352941,1,1,16,-0.379448785,0.231970486,1,0,0,2.0824,Pumice_10,8,10,5,2,2.082,0.42921875,-0.41812934,1,0,0,2.2762,Pumice_rect,8,2.276,1,15,0,15,0,1,,,,,,,,,,,,,
60fd6618f9a377f54dcdf318,SCN,2024-06-25_14h22.11.437,LearnStrategy,2023.2.3,MacIntel,58.82352941,1,2,1,,,,,,,,8,08,,,,,,,,,,,8,1.257,1,,,,,,0.448923611,-0.393697917,1,0,0,1.2572,Pumice_rect,0,0,0,0,1,
60fd6618f9a377f54dcdf318,SCN,2024-06-25_14h22.11.437,LearnStrategy,2023.2.3,MacIntel,58.82352941,1,2,2,,,,,,,,8,09,,,,,,,,,,,8,0.974,1,,,,,,0.448923611,-0.3934375,1,0,0,0.9738,Pumice_rect,1,0,1,0,1,
60fd6618f9a377f54dcdf318,SCN,2024-06-25_14h22.11.437,LearnStrategy,2023.2.3,MacIntel,58.82352941,1,2,3,,,,,,,,3,09,,,,,,,,,,,1,1.857,0,,,,,,-0.388780382,-0.240203993,1,0,0,1.8573,Andesite_rect,2,0,2,0,1,
60fd6618f9a377f54dcdf318,SCN,2024-06-25_14h22.11.437,LearnStrategy,2023.2.3,MacIntel,58.82352941,1,2,4,,,,,,,,7,14,,,,,,,,,,,2,2.373,0,,,,,,-0.126150174,-0.245577257,1,0,0,2.3731,Basalt_rect,3,0,3,0,1,
60fd6618f9a377f54dcdf318,SCN,2024-06-25_14h22.11.437,LearnStrategy,2023.2.3,MacIntel,58.82352941,1,2,5,,,,,,,,1,07,,,,,,,,,,,3,9.492,0,,,,,,0.182764757,-0.257595486,1,0,0,9.4922,Diorite_rect,4,0,4,0,1,
60fd6618f9a377f54dcdf318,SCN,2024-06-25_14h22.11.437,LearnStrategy,2023.2.3,MacIntel,58.82352941,1,2,6,,,,,,,,2,06,,,,,,,,,,,1,3.94,0,,,,,,-0.397934028,-0.266419271,1,0,0,3.9404,Andesite_rect,5,0,5,0,1,
60fd6618f9a377f54dcdf318,SCN,2024-06-25_14h22.11.437,LearnStrategy,2023.2.3,MacIntel,58.82352941,1,2,7,,,,,,,,4,03,,,,,,,,,,,1,1.257,0,,,,,,-0.397934028,-0.266419271,1,0,0,1.2573,Andesite_rect,6,0,6,0,1,
60fd6618f9a377f54dcdf318,SCN,2024-06-25_14h22.11.437,LearnStrategy,2023.2.3,MacIntel,58.82352941,1,2,8,,,,,,,,5,02,,,,,,,,,,,5,2.308,1,,,,,,-0.349982639,-0.399266493,1,0,0,2.3081,Obsidian_rect,7,0,7,0,1,
60fd6618f9a377f54dcdf318,SCN,2024-06-25_14h22.11.437,LearnStrategy,2023.2.3,MacIntel,58.82352941,1,2,9,,,,,,,,5,08,,,,,,,,,,,5,0.874,1,,,,,,-0.349982639,-0.399266493,1,0,0,0.8741,Obsidian_rect,8,0,8,0,1,
60fd6618f9a377f54dcdf318,SCN,2024-06-25_14h22.11.437,LearnStrategy,2023.2.3,MacIntel,58.82352941,1,2,10,,,,,,,,2,12,,,,,,,,,,,8,1.257,0,,,,,,0.435108507,-0.420716146,1,0,0,1.2568,Pumice_rect,9,0,9,0,1,
60fd6618f9a377f54dcdf318,SCN,2024-06-25_14h22.11.437,LearnStrategy,2023.2.3,MacIntel,58.82352941,1,2,11,,,,,,,,4,16,,,,,,,,,,,4,1.29,1,,,,,,0.387144097,-0.249049479,1,0,0,1.2901,Gabbro_rect,10,0,10,0,1,
60fd6618f9a377f54dcdf318,SCN,2024-06-25_14h22.11.437,LearnStrategy,2023.2.3,MacIntel,58.82352941,1,2,12,,,,,,,,7,12,,,,,,,,,,,1,10.941,0,,,,,,-0.317296007,-0.257690972,1,0,0,10.9411,Andesite_rect,11,0,11,0,1,
60fd6618f9a377f54dcdf318,SCN,2024-06-25_14h22.11.437,LearnStrategy,2023.2.3,MacIntel,58.82352941,1,2,13,,,,,,,,1,04,,,,,,,,,,,2,1.657,0,,,,,,-0.190286458,-0.246440972,1,0,0,1.6573,Basalt_rect,12,0,12,0,1,
60fd6618f9a377f54dcdf318,SCN,2024-06-25_14h22.11.437,LearnStrategy,2023.2.3,MacIntel,58.82352941,1,2,14,,,,,,,,3,02,,,,,,,,,,,1,1.257,0,,,,,,-0.318771701,-0.246914063,1,0,0,1.2567,Andesite_rect,13,0,13,0,1,
60fd6618f9a377f54dcdf318,SCN,2024-06-25_14h22.11.437,LearnStrategy,2023.2.3,MacIntel,58.82352941,1,2,15,,,,,,,,6,16,,,,,,,,,,,6,3.657,1,,,,,,-0.087391493,-0.390186632,1,0,0,3.6572,Pegmatite_rect,14,0,14,0,1,
60fd6618f9a377f54dcdf318,SCN,2024-06-25_14h22.11.437,LearnStrategy,2023.2.3,MacIntel,58.82352941,1,2,16,,,,,,,,6,08,,,,,,,,,,,6,1.707,1,,,,,,-0.087391493,-0.390186632,1,0,0,1.7075,Pegmatite_rect,15,0,15,0,1,
60fd6618f9a377f54dcdf318,SCN,2024-06-25_14h22.11.437,LearnStrategy,2023.2.3,MacIntel,58.82352941,2,1,1,-0.562096354,-0.248524306,1,0,0,2.5481,Andesite_06,1,06,2,1,2.548,-0.435920139,-0.241232639,1,0,0,2.5092,Andesite_rect,1,2.509,1,0,0,0,0,1,,,,,,,,,,,,,
60fd6618f9a377f54dcdf318,SCN,2024-06-25_14h22.11.437,LearnStrategy,2023.2.3,MacIntel,58.82352941,2,1,2,-0.073185764,-0.130190972,1,0,0,1.016,Basalt_09,2,09,3,4,1.016,0.12312066,-0.258732639,1,0,0,1.0597,Diorite_rect,3,1.06,0,1,0,1,0,1,,,,,,,,,,,,,
60fd6618f9a377f54dcdf318,SCN,2024-06-25_14h22.11.437,LearnStrategy,2023.2.3,MacIntel,58.82352941,2,1,3,0.270377604,0.113016493,1,0,0,0.7488,Andesite_02,1,02,4,6,0.749,0.124418403,-0.245672743,1,0,0,0.6605,Diorite_rect,3,0.661,0,2,0,2,0,1,,,,,,,,,,,,,
60fd6618f9a377f54dcdf318,SCN,2024-06-25_14h22.11.437,LearnStrategy,2023.2.3,MacIntel,58.82352941,2,1,4,-0.127135417,-0.134913194,1,0,0,0.5327,Basalt_09,2,09,3,4,0.533,0.367447917,-0.255872396,1,0,0,1.5598,Gabbro_rect,4,1.56,0,3,0,3,0,1,,,,,,,,,,,,,
60fd6618f9a377f54dcdf318,SCN,2024-06-25_14h22.11.437,LearnStrategy,2023.2.3,MacIntel,58.82352941,2,1,5,0.551510417,0.103003472,1,0,0,0.8311,Pumice_03,8,03,4,8,0.831,0.389231771,-0.395794271,1,0,0,0.6775,Pumice_rect,8,0.678,1,4,0,4,0,1,,,,,,,,,,,,,
60fd6618f9a377f54dcdf318,SCN,2024-06-25_14h22.11.437,LearnStrategy,2023.2.3,MacIntel,58.82352941,2,1,6,0.521753472,-0.088168403,1,0,0,1.2657,Diorite_07,3,07,3,8,1.266,-0.36187066,-0.264804688,1,0,0,1.509,Andesite_rect,1,1.509,0,5,0,5,0,1,,,,,,,,,,,,,
60fd6618f9a377f54dcdf318,SCN,2024-06-25_14h22.11.437,LearnStrategy,2023.2.3,MacIntel,58.82352941,2,1,7,0.07358941,-0.405633681,1,0,0,0.7827,Peridotite_15,7,15,1,5,0.783,0.157421875,-0.249344618,1,0,0,1.6268,Diorite_rect,3,1.627,0,6,0,6,0,1,,,,,,,,,,,,,
60fd6618f9a377f54dcdf318,SCN,2024-06-25_14h22.11.437,LearnStrategy,2023.2.3,MacIntel,58.82352941,2,1,8,-0.237560764,0.219396701,1,0,0,1.5157,Obsidian_09,5,09,5,3,1.516,0.35141059,-0.381167535,1,0,0,0.994,Pumice_rect,8,0.994,0,7,0,7,0,1,,,,,,,,,,,,,
60fd6618f9a377f54dcdf318,SCN,2024-06-25_14h22.11.437,LearnStrategy,2023.2.3,MacIntel,58.82352941,2,1,9,-0.547747396,-0.24155816,1,0,0,0.749,Andesite_06,1,06,2,1,0.749,-0.346302083,-0.256206597,1,0,0,1.0772,Andesite_rect,1,1.077,1,8,0,8,0,1,,,,,,,,,,,,,
60fd6618f9a377f54dcdf318,SCN,2024-06-25_14h22.11.437,LearnStrategy,2023.2.3,MacIntel,58.82352941,2,1,10,-0.115082465,0.415368924,1,0,0,2.5323,Andesite_03,1,03,6,4,2.532,0.163116319,-0.231692708,1,0,0,0.9253,Diorite_rect,3,0.925,0,9,0,9,0,1,,,,,,,,,,,,,
60fd6618f9a377f54dcdf318,SCN,2024-06-25_14h22.11.437,LearnStrategy,2023.2.3,MacIntel,58.82352941,2,1,11,0.575646701,0.428142361,1,0,0,1.1823,Obsidian_06,5,06,6,8,1.182,-0.3875,-0.397018229,1,0,0,1.9084,Obsidian_rect,5,1.908,1,10,0,10,0,1,,,,,,,,,,,,,
60fd6618f9a377f54dcdf318,SCN,2024-06-25_14h22.11.437,LearnStrategy,2023.2.3,MacIntel,58.82352941,2,1,12,-0.544466146,-0.39671441,1,0,0,0.949,Pegmatite_15,6,15,1,1,0.949,0.147408854,-0.381575521,1,0,0,2.4416,Peridotite_rect,7,2.442,0,11,0,11,0,1,,,,,,,,,,,,,
60fd6618f9a377f54dcdf318,SCN,2024-06-25_14h22.11.437,LearnStrategy,2023.2.3,MacIntel,58.82352941,2,1,13,-0.065980903,0.229192708,1,0,0,1.6484,Basalt_10,2,10,5,4,1.648,0.153680556,-0.24218316,1,0,0,1.1772,Diorite_rect,3,1.177,0,12,0,12,0,1,,,,,,,,,,,,,
60fd6618f9a377f54dcdf318,SCN,2024-06-25_14h22.11.437,LearnStrategy,2023.2.3,MacIntel,58.82352941,2,1,14,0.515533854,0.425286458,1,0,0,1.3494,Obsidian_06,5,06,6,8,1.349,-0.447586806,-0.389427083,1,0,0,3.7262,Obsidian_rect,5,3.726,1,13,0,13,0,1,,,,,,,,,,,,,
60fd6618f9a377f54dcdf318,SCN,2024-06-25_14h22.11.437,LearnStrategy,2023.2.3,MacIntel,58.82352941,2,1,15,-0.604605035,-0.076818576,1,0,0,0.7988,Pumice_05,8,05,3,1,0.799,0.376414931,-0.413611111,1,0,0,0.8262,Pumice_rect,8,0.826,1,14,0,14,0,1,,,,,,,,,,,,,
60fd6618f9a377f54dcdf318,SCN,2024-06-25_14h22.11.437,LearnStrategy,2023.2.3,MacIntel,58.82352941,2,1,16,0.044487847,0.223081597,1,0,0,0.9657,Andesite_01,1,01,5,5,0.966,0.110095486,-0.267078993,1,0,0,1.1924,Diorite_rect,3,1.192,0,15,0,15,0,1,,,,,,,,,,,,,
60fd6618f9a377f54dcdf318,SCN,2024-06-25_14h22.11.437,LearnStrategy,2023.2.3,MacIntel,58.82352941,2,2,1,,,,,,,,4,01,,,,,,,,,,,1,3.507,0,,,,,,-0.421909722,-0.266649306,1,0,0,3.5066,Andesite_rect,0,0,0,0,1,
60fd6618f9a377f54dcdf318,SCN,2024-06-25_14h22.11.437,LearnStrategy,2023.2.3,MacIntel,58.82352941,2,2,2,,,,,,,,1,16,,,,,,,,,,,3,0.774,0,,,,,,0.126770833,-0.246024306,1,0,0,0.7735,Diorite_rect,1,0,1,0,1,
60fd6618f9a377f54dcdf318,SCN,2024-06-25_14h22.11.437,LearnStrategy,2023.2.3,MacIntel,58.82352941,2,2,3,,,,,,,,1,09,,,,,,,,,,,2,0.89,0,,,,,,-0.093450521,-0.250794271,1,0,0,0.8902,Basalt_rect,2,0,2,0,1,
60fd6618f9a377f54dcdf318,SCN,2024-06-25_14h22.11.437,LearnStrategy,2023.2.3,MacIntel,58.82352941,2,2,4,,,,,,,,3,06,,,,,,,,,,,6,1.175,0,,,,,,-0.113415799,-0.388710938,1,0,0,1.1749,Pegmatite_rect,3,0,3,0,1,
60fd6618f9a377f54dcdf318,SCN,2024-06-25_14h22.11.437,LearnStrategy,2023.2.3,MacIntel,58.82352941,2,2,5,,,,,,,,3,11,,,,,,,,,,,4,0.96,0,,,,,,0.353971354,-0.258025174,1,0,0,0.9598,Gabbro_rect,4,0,4,0,1,
60fd6618f9a377f54dcdf318,SCN,2024-06-25_14h22.11.437,LearnStrategy,2023.2.3,MacIntel,58.82352941,2,2,6,,,,,,,,7,02,,,,,,,,,,,3,0.511,0,,,,,,0.130885417,-0.260091146,1,0,0,0.5106,Diorite_rect,5,0,5,0,1,
60fd6618f9a377f54dcdf318,SCN,2024-06-25_14h22.11.437,LearnStrategy,2023.2.3,MacIntel,58.82352941,2,2,7,,,,,,,,2,08,,,,,,,,,,,2,2.842,1,,,,,,-0.155711806,-0.246332465,1,0,0,2.8416,Basalt_rect,6,0,6,0,1,
60fd6618f9a377f54dcdf318,SCN,2024-06-25_14h22.11.437,LearnStrategy,2023.2.3,MacIntel,58.82352941,2,2,8,,,,,,,,4,11,,,,,,,,,,,3,0.644,0,,,,,,0.093641493,-0.251041667,1,0,0,0.6442,Diorite_rect,7,0,7,0,1,
60fd6618f9a377f54dcdf318,SCN,2024-06-25_14h22.11.437,LearnStrategy,2023.2.3,MacIntel,58.82352941,2,2,9,,,,,,,,8,06,,,,,,,,,,,2,0.542,0,,,,,,-0.05515625,-0.228389757,1,0,0,0.5419,Basalt_rect,8,0,8,0,1,
60fd6618f9a377f54dcdf318,SCN,2024-06-25_14h22.11.437,LearnStrategy,2023.2.3,MacIntel,58.82352941,2,2,10,,,,,,,,5,14,,,,,,,,,,,5,1.926,1,,,,,,-0.389826389,-0.378693576,1,0,0,1.9264,Obsidian_rect,9,0,9,0,1,
60fd6618f9a377f54dcdf318,SCN,2024-06-25_14h22.11.437,LearnStrategy,2023.2.3,MacIntel,58.82352941,2,2,11,,,,,,,,5,16,,,,,,,,,,,5,1.042,1,,,,,,-0.358394097,-0.420533854,1,0,0,1.0425,Obsidian_rect,10,0,10,0,1,
60fd6618f9a377f54dcdf318,SCN,2024-06-25_14h22.11.437,LearnStrategy,2023.2.3,MacIntel,58.82352941,2,2,12,,,,,,,,8,14,,,,,,,,,,,8,0.993,1,,,,,,0.357304687,-0.405416667,1,0,0,0.9928,Pumice_rect,11,0,11,0,1,
60fd6618f9a377f54dcdf318,SCN,2024-06-25_14h22.11.437,LearnStrategy,2023.2.3,MacIntel,58.82352941,2,2,13,,,,,,,,6,03,,,,,,,,,,,7,2.107,0,,,,,,0.052586806,-0.379236111,1,0,0,2.1072,Peridotite_rect,12,0,12,0,1,
60fd6618f9a377f54dcdf318,SCN,2024-06-25_14h22.11.437,LearnStrategy,2023.2.3,MacIntel,58.82352941,2,2,14,,,,,,,,2,11,,,,,,,,,,,8,1.691,0,,,,,,0.359453125,-0.385585937,1,0,0,1.6907,Pumice_rect,13,0,13,0,1,
60fd6618f9a377f54dcdf318,SCN,2024-06-25_14h22.11.437,LearnStrategy,2023.2.3,MacIntel,58.82352941,2,2,15,,,,,,,,6,09,,,,,,,,,,,6,1.524,1,,,,,,-0.178320312,-0.405546875,1,0,0,1.5243,Pegmatite_rect,14,0,14,0,1,
60fd6618f9a377f54dcdf318,SCN,2024-06-25_14h22.11.437,LearnStrategy,2023.2.3,MacIntel,58.82352941,2,2,16,,,,,,,,7,06,,,,,,,,,,,7,1.027,1,,,,,,0.124930556,-0.404045139,1,0,0,1.0266,Peridotite_rect,15,0,15,0,1,
60fd6618f9a377f54dcdf318,SCN,2024-06-25_14h22.11.437,LearnStrategy,2023.2.3,MacIntel,58.82352941,3,1,1,-0.551037326,0.400251736,1,0,0,0.9148,Gabbro_10,4,10,6,1,0.915,0.372569444,-0.229388021,1,0,0,1.1924,Gabbro_rect,4,1.192,1,0,0,0,0,1,,,,,,,,,,,,,
60fd6618f9a377f54dcdf318,SCN,2024-06-25_14h22.11.437,LearnStrategy,2023.2.3,MacIntel,58.82352941,3,1,2,-0.366571181,0.396111111,1,0,0,0.9165,Pegmatite_13,6,13,6,2,0.916,-0.315655382,-0.386228299,1,0,0,1.9097,Obsidian_rect,5,1.91,0,1,0,1,0,1,,,,,,,,,,,,,
60fd6618f9a377f54dcdf318,SCN,2024-06-25_14h22.11.437,LearnStrategy,2023.2.3,MacIntel,58.82352941,3,1,3,-0.223164063,0.402230903,1,0,0,0.9989,Obsidian_11,5,11,6,3,0.999,-0.351527778,-0.394826389,1,0,0,3.5587,Obsidian_rect,5,3.559,1,2,0,2,0,1,,,,,,,,,,,,,
60fd6618f9a377f54dcdf318,SCN,2024-06-25_14h22.11.437,LearnStrategy,2023.2.3,MacIntel,58.82352941,3,1,4,-0.056801215,0.36906684,1,0,0,0.7825,Andesite_03,1,03,6,4,0.782,-0.099561632,-0.264053819,1,0,0,1.5926,Basalt_rect,2,1.593,0,3,0,3,0,1,,,,,,,,,,,,,
60fd6618f9a377f54dcdf318,SCN,2024-06-25_14h22.11.437,LearnStrategy,2023.2.3,MacIntel,58.82352941,3,1,5,0.077122396,0.402070313,1,0,0,1.0654,Peridotite_13,7,13,6,5,1.065,0.13234809,-0.259800347,1,0,0,0.7284,Diorite_rect,3,0.728,0,4,0,4,0,1,,,,,,,,,,,,,
60fd6618f9a377f54dcdf318,SCN,2024-06-25_14h22.11.437,LearnStrategy,2023.2.3,MacIntel,58.82352941,3,1,6,-0.096657986,-0.149865451,1,0,0,0.466,Basalt_09,2,09,3,4,0.466,-0.094565972,-0.246614583,1,0,0,1.0759,Basalt_rect,2,1.076,1,5,0,5,0,1,,,,,,,,,,,,,
60fd6618f9a377f54dcdf318,SCN,2024-06-25_14h22.11.437,LearnStrategy,2023.2.3,MacIntel,58.82352941,3,1,7,0.244361979,-0.099244792,1,0,0,0.5824,Basalt_02,2,02,3,6,0.582,-0.076818576,-0.262491319,1,0,0,1.1259,Basalt_rect,2,1.126,1,6,0,6,0,1,,,,,,,,,,,,,
60fd6618f9a377f54dcdf318,SCN,2024-06-25_14h22.11.437,LearnStrategy,2023.2.3,MacIntel,58.82352941,3,1,8,-0.073550347,-0.281019965,1,0,0,0.6485,Obsidian_12,5,12,2,4,0.649,-0.346358507,-0.386844618,1,0,0,0.745,Obsidian_rect,5,0.745,1,7,0,7,0,1,,,,,,,,,,,,,
60fd6618f9a377f54dcdf318,SCN,2024-06-25_14h22.11.437,LearnStrategy,2023.2.3,MacIntel,58.82352941,3,1,9,-0.051115451,-0.267048611,1,0,0,0.7338,Obsidian_12,5,12,2,4,0.734,-0.360303819,-0.398094618,1,0,0,0.8416,Obsidian_rect,5,0.842,1,8,0,8,0,1,,,,,,,,,,,,,
60fd6618f9a377f54dcdf318,SCN,2024-06-25_14h22.11.437,LearnStrategy,2023.2.3,MacIntel,58.82352941,3,1,10,0.561475694,-0.420490451,1,0,0,0.8826,Pumice_13,8,13,1,8,0.883,0.386801215,-0.393259549,1,0,0,0.76,Pumice_rect,8,0.76,1,9,0,9,0,1,,,,,,,,,,,,,
60fd6618f9a377f54dcdf318,SCN,2024-06-25_14h22.11.437,LearnStrategy,2023.2.3,MacIntel,58.82352941,3,1,11,0.250108507,0.094852431,1,0,0,1.4826,Andesite_02,1,02,4,6,1.483,-0.077643229,-0.262330729,1,0,0,3.4254,Basalt_rect,2,3.425,0,10,0,10,0,1,,,,,,,,,,,,,
60fd6618f9a377f54dcdf318,SCN,2024-06-25_14h22.11.437,LearnStrategy,2023.2.3,MacIntel,58.82352941,3,1,12,-0.258871528,0.070373264,1,0,0,0.7993,Pegmatite_12,6,12,4,3,0.799,0.139965278,-0.39046875,1,0,0,1.4101,Peridotite_rect,7,1.41,0,11,0,11,0,1,,,,,,,,,,,,,
60fd6618f9a377f54dcdf318,SCN,2024-06-25_14h22.11.437,LearnStrategy,2023.2.3,MacIntel,58.82352941,3,1,13,-0.567395833,0.108563368,1,0,0,0.9319,Diorite_12,3,12,4,1,0.932,0.052105035,-0.39187934,1,0,0,1.0274,Peridotite_rect,7,1.027,0,12,0,12,0,1,,,,,,,,,,,,,
60fd6618f9a377f54dcdf318,SCN,2024-06-25_14h22.11.437,LearnStrategy,2023.2.3,MacIntel,58.82352941,3,1,14,0.075967882,0.420329861,1,0,0,1.0818,Peridotite_13,7,13,6,5,1.082,-0.378372396,-0.249752604,1,0,0,1.3939,Andesite_rect,1,1.394,0,13,0,13,0,1,,,,,,,,,,,,,
60fd6618f9a377f54dcdf318,SCN,2024-06-25_14h22.11.437,LearnStrategy,2023.2.3,MacIntel,58.82352941,3,1,15,0.418103299,0.43702691,1,0,0,1.3661,Pumice_04,8,04,6,7,1.366,0.446614583,-0.381102431,1,0,0,0.8765,Pumice_rect,8,0.877,1,14,0,14,0,1,,,,,,,,,,,,,
60fd6618f9a377f54dcdf318,SCN,2024-06-25_14h22.11.437,LearnStrategy,2023.2.3,MacIntel,58.82352941,3,1,16,0.064631076,-0.103793403,1,0,0,0.8327,Obsidian_04,5,04,3,5,0.833,-0.335269097,-0.383550347,1,0,0,1.1926,Obsidian_rect,5,1.193,1,15,0,15,0,1,,,,,,,,,,,,,
60fd6618f9a377f54dcdf318,SCN,2024-06-25_14h22.11.437,LearnStrategy,2023.2.3,MacIntel,58.82352941,3,2,1,,,,,,,,5,07,,,,,,,,,,,5,2.442,1,,,,,,-0.373072917,-0.419644097,1,0,0,2.4416,Obsidian_rect,0,0,0,0,1,
60fd6618f9a377f54dcdf318,SCN,2024-06-25_14h22.11.437,LearnStrategy,2023.2.3,MacIntel,58.82352941,3,2,2,,,,,,,,1,11,,,,,,,,,,,2,1.258,0,,,,,,-0.067296007,-0.25969184,1,0,0,1.2577,Basalt_rect,1,0,1,0,1,
60fd6618f9a377f54dcdf318,SCN,2024-06-25_14h22.11.437,LearnStrategy,2023.2.3,MacIntel,58.82352941,3,2,3,,,,,,,,6,11,,,,,,,,,,,7,1.392,0,,,,,,0.125056424,-0.389396701,1,0,0,1.392,Peridotite_rect,2,0,2,0,1,
60fd6618f9a377f54dcdf318,SCN,2024-06-25_14h22.11.437,LearnStrategy,2023.2.3,MacIntel,58.82352941,3,2,4,,,,,,,,5,10,,,,,,,,,,,5,1.158,1,,,,,,-0.40796875,-0.383220486,1,0,0,1.158,Obsidian_rect,3,0,3,0,1,
60fd6618f9a377f54dcdf318,SCN,2024-06-25_14h22.11.437,LearnStrategy,2023.2.3,MacIntel,58.82352941,3,2,5,,,,,,,,7,05,,,,,,,,,,,6,1.224,0,,,,,,-0.075520833,-0.380221354,1,0,0,1.2239,Pegmatite_rect,4,0,4,0,1,
60fd6618f9a377f54dcdf318,SCN,2024-06-25_14h22.11.437,LearnStrategy,2023.2.3,MacIntel,58.82352941,3,2,6,,,,,,,,8,16,,,,,,,,,,,8,0.792,1,,,,,,0.318342014,-0.421080729,1,0,0,0.7923,Pumice_rect,5,0,5,0,1,
60fd6618f9a377f54dcdf318,SCN,2024-06-25_14h22.11.437,LearnStrategy,2023.2.3,MacIntel,58.82352941,3,2,7,,,,,,,,2,14,,,,,,,,,,,8,1.278,0,,,,,,0.395247396,-0.406584201,1,0,0,1.2776,Pumice_rect,6,0,6,0,1,
60fd6618f9a377f54dcdf318,SCN,2024-06-25_14h22.11.437,LearnStrategy,2023.2.3,MacIntel,58.82352941,3,2,8,,,,,,,,7,08,,,,,,,,,,,7,1.311,1,,,,,,0.095225694,-0.386319444,1,0,0,1.3112,Peridotite_rect,7,0,7,0,1,
60fd6618f9a377f54dcdf318,SCN,2024-06-25_14h22.11.437,LearnStrategy,2023.2.3,MacIntel,58.82352941,3,2,9,,,,,,,,3,14,,,,,,,,,,,3,1.443,1,,,,,,0.112647569,-0.255199653,1,0,0,1.443,Diorite_rect,8,0,8,0,1,
60fd6618f9a377f54dcdf318,SCN,2024-06-25_14h22.11.437,LearnStrategy,2023.2.3,MacIntel,58.82352941,3,2,10,,,,,,,,4,08,,,,,,,,,,,3,0.591,0,,,,,,0.112647569,-0.255199653,1,0,0,0.5912,Diorite_rect,9,0,9,0,1,
60fd6618f9a377f54dcdf318,SCN,2024-06-25_14h22.11.437,LearnStrategy,2023.2.3,MacIntel,58.82352941,3,2,11,,,,,,,,1,14,,,,,,,,,,,3,0.675,0,,,,,,0.112647569,-0.255199653,1,0,0,0.6749,Diorite_rect,10,0,10,0,1,
60fd6618f9a377f54dcdf318,SCN,2024-06-25_14h22.11.437,LearnStrategy,2023.2.3,MacIntel,58.82352941,3,2,12,,,,,,,,4,14,,,,,,,,,,,3,0.626,0,,,,,,0.112647569,-0.255199653,1,0,0,0.6256,Diorite_rect,11,0,11,0,1,
60fd6618f9a377f54dcdf318,SCN,2024-06-25_14h22.11.437,LearnStrategy,2023.2.3,MacIntel,58.82352941,3,2,13,,,,,,,,2,04,,,,,,,,,,,2,1.741,1,,,,,,-0.091601562,-0.250694444,1,0,0,1.7409,Basalt_rect,12,0,12,0,1,
60fd6618f9a377f54dcdf318,SCN,2024-06-25_14h22.11.437,LearnStrategy,2023.2.3,MacIntel,58.82352941,3,2,14,,,,,,,,8,15,,,,,,,,,,,8,1.058,1,,,,,,0.394071181,-0.418546007,1,0,0,1.0582,Pumice_rect,13,0,13,0,1,
60fd6618f9a377f54dcdf318,SCN,2024-06-25_14h22.11.437,LearnStrategy,2023.2.3,MacIntel,58.82352941,3,2,15,,,,,,,,3,10,,,,,,,,,,,1,1.807,0,,,,,,-0.36719184,-0.259088542,1,0,0,1.8071,Andesite_rect,14,0,14,0,1,
60fd6618f9a377f54dcdf318,SCN,2024-06-25_14h22.11.437,LearnStrategy,2023.2.3,MacIntel,58.82352941,3,2,16,,,,,,,,6,05,,,,,,,,,,,6,1.675,1,,,,,,-0.115108507,-0.411445312,1,0,0,1.6754,Pegmatite_rect,15,0,15,0,1,
60fd6618f9a377f54dcdf318,SCN,2024-06-25_14h22.11.437,LearnStrategy,2023.2.3,MacIntel,58.82352941,4,1,1,0.371701389,-0.083198785,1,0,0,0.5813,Basalt_01,2,01,3,7,0.581,0.379144965,-0.243671875,1,0,0,2.094,Gabbro_rect,4,2.094,0,0,0,0,0,1,,,,,,,,,,,,,
60fd6618f9a377f54dcdf318,SCN,2024-06-25_14h22.11.437,LearnStrategy,2023.2.3,MacIntel,58.82352941,4,1,2,0.071974826,0.121462674,1,0,0,0.7669,Gabbro_12,4,12,4,5,0.767,0.419570312,-0.250108507,1,0,0,1.0082,Gabbro_rect,4,1.008,1,1,0,1,0,1,,,,,,,,,,,,,
60fd6618f9a377f54dcdf318,SCN,2024-06-25_14h22.11.437,LearnStrategy,2023.2.3,MacIntel,58.82352941,4,1,3,-0.050815972,0.116184896,1,0,0,0.8825,Gabbro_15,4,15,4,4,0.882,0.138728299,-0.390711806,1,0,0,1.1602,Peridotite_rect,7,1.16,0,2,0,2,0,1,,,,,,,,,,,,,
60fd6618f9a377f54dcdf318,SCN,2024-06-25_14h22.11.437,LearnStrategy,2023.2.3,MacIntel,58.82352941,4,1,4,-0.244205729,0.107721354,1,0,0,0.9324,Pegmatite_12,6,12,4,3,0.932,-0.084539931,-0.38562066,1,0,0,1.5922,Pegmatite_rect,6,1.592,1,3,0,3,0,1,,,,,,,,,,,,,
60fd6618f9a377f54dcdf318,SCN,2024-06-25_14h22.11.437,LearnStrategy,2023.2.3,MacIntel,58.82352941,4,1,5,0.0975,0.291575521,1,0,0,0.899,Andesite_01,1,01,5,5,0.899,0.161549479,-0.255412326,1,0,0,1.294,Diorite_rect,3,1.294,0,4,0,4,0,1,,,,,,,,,,,,,
60fd6618f9a377f54dcdf318,SCN,2024-06-25_14h22.11.437,LearnStrategy,2023.2.3,MacIntel,58.82352941,4,1,6,-0.233372396,0.134791667,1,0,0,0.8324,Pegmatite_12,6,12,4,3,0.832,-0.179079861,-0.396076389,1,0,0,1.3273,Pegmatite_rect,6,1.327,1,5,0,5,0,1,,,,,,,,,,,,,
60fd6618f9a377f54dcdf318,SCN,2024-06-25_14h22.11.437,LearnStrategy,2023.2.3,MacIntel,58.82352941,4,1,7,-0.380169271,0.095954861,1,0,0,0.9987,Diorite_13,3,13,4,2,0.999,0.108155382,-0.412287326,1,0,0,1.2932,Peridotite_rect,7,1.293,0,6,0,6,0,1,,,,,,,,,,,,,
60fd6618f9a377f54dcdf318,SCN,2024-06-25_14h22.11.437,LearnStrategy,2023.2.3,MacIntel,58.82352941,4,1,8,0.561336806,0.239726562,1,0,0,1.2485,Basalt_05,2,05,5,8,1.248,-0.096310764,-0.245086806,1,0,0,1.2125,Basalt_rect,2,1.212,1,7,0,7,0,1,,,,,,,,,,,,,
60fd6618f9a377f54dcdf318,SCN,2024-06-25_14h22.11.437,LearnStrategy,2023.2.3,MacIntel,58.82352941,4,1,9,0.536514757,0.413524306,1,0,0,1.2821,Obsidian_06,5,06,6,8,1.282,-0.362929687,-0.404292535,1,0,0,1.5594,Obsidian_rect,5,1.559,1,8,0,8,0,1,,,,,,,,,,,,,
60fd6618f9a377f54dcdf318,SCN,2024-06-25_14h22.11.437,LearnStrategy,2023.2.3,MacIntel,58.82352941,4,1,10,-0.246536458,-0.407860243,1,0,0,1.1328,Pegmatite_07,6,07,1,3,1.133,0.126940104,-0.407582465,1,0,0,1.508,Peridotite_rect,7,1.508,0,9,0,9,0,1,,,,,,,,,,,,,
60fd6618f9a377f54dcdf318,SCN,2024-06-25_14h22.11.437,LearnStrategy,2023.2.3,MacIntel,58.82352941,4,1,11,-0.400993924,0.264960937,1,0,0,1.1994,Pumice_10,8,10,5,2,1.199,0.454748264,-0.400846354,1,0,0,0.7744,Pumice_rect,8,0.774,1,10,0,10,0,1,,,,,,,,,,,,,
60fd6618f9a377f54dcdf318,SCN,2024-06-25_14h22.11.437,LearnStrategy,2023.2.3,MacIntel,58.82352941,4,1,12,-0.032309028,-0.074322917,1,0,0,0.8321,Basalt_09,2,09,3,4,0.832,-0.139639757,-0.247309028,1,0,0,0.7605,Basalt_rect,2,0.76,1,11,0,11,0,1,,,,,,,,,,,,,
60fd6618f9a377f54dcdf318,SCN,2024-06-25_14h22.11.437,LearnStrategy,2023.2.3,MacIntel,58.82352941,4,1,13,-0.590733507,0.411258681,1,0,0,0.7657,Gabbro_10,4,10,6,1,0.766,0.080638021,-0.270390625,1,0,0,1.1911,Diorite_rect,3,1.191,0,12,0,12,0,1,,,,,,,,,,,,,
60fd6618f9a377f54dcdf318,SCN,2024-06-25_14h22.11.437,LearnStrategy,2023.2.3,MacIntel,58.82352941,4,1,14,-0.218628472,0.390716146,1,0,0,1.0315,Obsidian_11,5,11,6,3,1.032,-0.373324653,-0.405529514,1,0,0,0.944,Obsidian_rect,5,0.944,1,13,0,13,0,1,,,,,,,,,,,,,
60fd6618f9a377f54dcdf318,SCN,2024-06-25_14h22.11.437,LearnStrategy,2023.2.3,MacIntel,58.82352941,4,1,15,0.553415799,0.402608507,1,0,0,0.7824,Obsidian_06,5,06,6,8,0.782,-0.453689236,-0.395394965,1,0,0,0.6437,Obsidian_rect,5,0.644,1,14,0,14,0,1,,,,,,,,,,,,,
60fd6618f9a377f54dcdf318,SCN,2024-06-25_14h22.11.437,LearnStrategy,2023.2.3,MacIntel,58.82352941,4,1,16,0.06905816,0.104809028,1,0,0,0.6154,Gabbro_12,4,12,4,5,0.615,0.403155382,-0.253029514,1,0,0,2.0439,Gabbro_rect,4,2.044,1,15,0,15,0,1,,,,,,,,,,,,,
60fd6618f9a377f54dcdf318,SCN,2024-06-25_14h22.11.437,LearnStrategy,2023.2.3,MacIntel,58.82352941,4,2,1,,,,,,,,3,02,,,,,,,,,,,6,3.358,0,,,,,,-0.053454861,-0.411449653,1,0,0,3.3576,Pegmatite_rect,0,0,0,0,1,
60fd6618f9a377f54dcdf318,SCN,2024-06-25_14h22.11.437,LearnStrategy,2023.2.3,MacIntel,58.82352941,4,2,2,,,,,,,,4,14,,,,,,,,,,,7,1.574,0,,,,,,0.09828559,-0.421710069,1,0,0,1.5743,Peridotite_rect,1,0,1,0,1,
60fd6618f9a377f54dcdf318,SCN,2024-06-25_14h22.11.437,LearnStrategy,2023.2.3,MacIntel,58.82352941,4,2,3,,,,,,,,8,14,,,,,,,,,,,8,0.958,1,,,,,,0.408159722,-0.411397569,1,0,0,0.9579,Pumice_rect,2,0,2,0,1,
60fd6618f9a377f54dcdf318,SCN,2024-06-25_14h22.11.437,LearnStrategy,2023.2.3,MacIntel,58.82352941,4,2,4,,,,,,,,2,08,,,,,,,,,,,2,1.358,1,,,,,,-0.037747396,-0.247039931,1,0,0,1.3582,Basalt_rect,3,0,3,0,1,
60fd6618f9a377f54dcdf318,SCN,2024-06-25_14h22.11.437,LearnStrategy,2023.2.3,MacIntel,58.82352941,4,2,5,,,,,,,,6,11,,,,,,,,,,,6,2.225,1,,,,,,-0.048489583,-0.380390625,1,0,0,2.2247,Pegmatite_rect,4,0,4,0,1,
60fd6618f9a377f54dcdf318,SCN,2024-06-25_14h22.11.437,LearnStrategy,2023.2.3,MacIntel,58.82352941,4,2,6,,,,,,,,1,11,,,,,,,,,,,4,1.342,0,,,,,,0.395664063,-0.245698785,1,0,0,1.3416,Gabbro_rect,5,0,5,0,1,
60fd6618f9a377f54dcdf318,SCN,2024-06-25_14h22.11.437,LearnStrategy,2023.2.3,MacIntel,58.82352941,4,2,7,,,,,,,,5,02,,,,,,,,,,,5,0.941,1,,,,,,-0.400707465,-0.405694444,1,0,0,0.9413,Obsidian_rect,6,0,6,0,1,
60fd6618f9a377f54dcdf318,SCN,2024-06-25_14h22.11.437,LearnStrategy,2023.2.3,MacIntel,58.82352941,4,2,8,,,,,,,,3,09,,,,,,,,,,,3,1.098,1,,,,,,0.151193576,-0.251987847,1,0,0,1.0981,Diorite_rect,7,0,7,0,1,
60fd6618f9a377f54dcdf318,SCN,2024-06-25_14h22.11.437,LearnStrategy,2023.2.3,MacIntel,58.82352941,4,2,9,,,,,,,,8,16,,,,,,,,,,,8,1.176,1,,,,,,0.38953559,-0.402165799,1,0,0,1.1757,Pumice_rect,8,0,8,0,1,
60fd6618f9a377f54dcdf318,SCN,2024-06-25_14h22.11.437,LearnStrategy,2023.2.3,MacIntel,58.82352941,4,2,10,,,,,,,,2,11,,,,,,,,,,,8,0.924,0,,,,,,0.336115451,-0.382473958,1,0,0,0.9241,Pumice_rect,9,0,9,0,1,
60fd6618f9a377f54dcdf318,SCN,2024-06-25_14h22.11.437,LearnStrategy,2023.2.3,MacIntel,58.82352941,4,2,11,,,,,,,,1,14,,,,,,,,,,,7,1.424,0,,,,,,0.132734375,-0.416610243,1,0,0,1.4242,Peridotite_rect,10,0,10,0,1,
60fd6618f9a377f54dcdf318,SCN,2024-06-25_14h22.11.437,LearnStrategy,2023.2.3,MacIntel,58.82352941,4,2,12,,,,,,,,6,09,,,,,,,,,,,6,0.991,1,,,,,,-0.079830729,-0.40765625,1,0,0,0.9912,Pegmatite_rect,11,0,11,0,1,
60fd6618f9a377f54dcdf318,SCN,2024-06-25_14h22.11.437,LearnStrategy,2023.2.3,MacIntel,58.82352941,4,2,13,,,,,,,,7,08,,,,,,,,,,,3,1.591,0,,,,,,0.114674479,-0.269483507,1,0,0,1.5907,Diorite_rect,12,0,12,0,1,
60fd6618f9a377f54dcdf318,SCN,2024-06-25_14h22.11.437,LearnStrategy,2023.2.3,MacIntel,58.82352941,4,2,14,,,,,,,,4,08,,,,,,,,,,,7,1.708,0,,,,,,0.167296007,-0.395273437,1,0,0,1.708,Peridotite_rect,13,0,13,0,1,
60fd6618f9a377f54dcdf318,SCN,2024-06-25_14h22.11.437,LearnStrategy,2023.2.3,MacIntel,58.82352941,4,2,15,,,,,,,,7,12,,,,,,,,,,,3,1.225,0,,,,,,0.153480903,-0.263715278,1,0,0,1.2248,Diorite_rect,14,0,14,0,1,
60fd6618f9a377f54dcdf318,SCN,2024-06-25_14h22.11.437,LearnStrategy,2023.2.3,MacIntel,58.82352941,4,2,16,,,,,,,,5,08,,,,,,,,,,,5,1.124,1,,,,,,-0.406154514,-0.403133681,1,0,0,1.1242,Obsidian_rect,15,0,15,0,1,
60fd6618f9a377f54dcdf318,SCN,2024-06-25_14h22.11.437,LearnStrategy,2023.2.3,MacIntel,58.82352941,5,1,1,-0.195238715,0.130177951,1,0,0,0.6485,Pegmatite_12,6,12,4,3,0.649,-0.143654514,-0.386679687,1,0,0,1.1431,Pegmatite_rect,6,1.143,1,0,0,0,0,1,,,,,,,,,,,,,
60fd6618f9a377f54dcdf318,SCN,2024-06-25_14h22.11.437,LearnStrategy,2023.2.3,MacIntel,58.82352941,5,1,2,0.062803819,0.099422743,1,0,0,0.5159,Gabbro_12,4,12,4,5,0.516,0.135442708,-0.230381944,1,0,0,0.8591,Diorite_rect,3,0.859,0,1,0,1,0,1,,,,,,,,,,,,,
60fd6618f9a377f54dcdf318,SCN,2024-06-25_14h22.11.437,LearnStrategy,2023.2.3,MacIntel,58.82352941,5,1,3,-0.25656684,0.127061632,1,0,0,0.5825,Pegmatite_12,6,12,4,3,0.582,-0.091475694,-0.379874132,1,0,0,0.9271,Pegmatite_rect,6,0.927,1,2,0,2,0,1,,,,,,,,,,,,,
60fd6618f9a377f54dcdf318,SCN,2024-06-25_14h22.11.437,LearnStrategy,2023.2.3,MacIntel,58.82352941,5,1,4,-0.235607639,0.101966146,1,0,0,0.7495,Pegmatite_12,6,12,4,3,0.75,-0.156957465,-0.413710937,1,0,0,0.6932,Pegmatite_rect,6,0.693,1,3,0,3,0,1,,,,,,,,,,,,,
60fd6618f9a377f54dcdf318,SCN,2024-06-25_14h22.11.437,LearnStrategy,2023.2.3,MacIntel,58.82352941,5,1,5,-0.220616319,0.085659722,1,0,0,0.8478,Pegmatite_12,6,12,4,3,0.848,-0.094435764,-0.407773438,1,0,0,0.7438,Pegmatite_rect,6,0.744,1,4,0,4,0,1,,,,,,,,,,,,,
60fd6618f9a377f54dcdf318,SCN,2024-06-25_14h22.11.437,LearnStrategy,2023.2.3,MacIntel,58.82352941,5,1,6,-0.545225694,0.397890625,1,0,0,0.9323,Gabbro_10,4,10,6,1,0.932,0.109652778,-0.243046875,1,0,0,0.9768,Diorite_rect,3,0.977,0,5,0,5,0,1,,,,,,,,,,,,,
60fd6618f9a377f54dcdf318,SCN,2024-06-25_14h22.11.437,LearnStrategy,2023.2.3,MacIntel,58.82352941,5,1,7,-0.40702691,0.412009549,1,0,0,0.7326,Pegmatite_13,6,13,6,2,0.733,0.096080729,-0.399648438,1,0,0,2.3429,Peridotite_rect,7,2.343,0,6,0,6,0,1,,,,,,,,,,,,,
60fd6618f9a377f54dcdf318,SCN,2024-06-25_14h22.11.437,LearnStrategy,2023.2.3,MacIntel,58.82352941,5,1,8,-0.406124132,0.41453125,1,0,0,0.8332,Pegmatite_13,6,13,6,2,0.833,-0.132000868,-0.395499132,1,0,0,1.16,Pegmatite_rect,6,1.16,1,7,0,7,0,1,,,,,,,,,,,,,
60fd6618f9a377f54dcdf318,SCN,2024-06-25_14h22.11.437,LearnStrategy,2023.2.3,MacIntel,58.82352941,5,1,9,-0.219509549,0.464019097,1,0,0,0.6489,Obsidian_11,5,11,6,3,0.649,-0.399730903,-0.400659722,1,0,0,0.9435,Obsidian_rect,5,0.943,1,8,0,8,0,1,,,,,,,,,,,,,
60fd6618f9a377f54dcdf318,SCN,2024-06-25_14h22.11.437,LearnStrategy,2023.2.3,MacIntel,58.82352941,5,1,10,0.387955729,0.390325521,1,0,0,1.7156,Pumice_04,8,04,6,7,1.716,0.44733941,-0.411115451,1,0,0,0.7615,Pumice_rect,8,0.762,1,9,0,9,0,1,,,,,,,,,,,,,
60fd6618f9a377f54dcdf318,SCN,2024-06-25_14h22.11.437,LearnStrategy,2023.2.3,MacIntel,58.82352941,5,1,11,-0.066497396,0.429461806,1,0,0,0.8498,Andesite_03,1,03,6,4,0.85,0.100117187,-0.268862847,1,0,0,0.793,Diorite_rect,3,0.793,0,10,0,10,0,1,,,,,,,,,,,,,
60fd6618f9a377f54dcdf318,SCN,2024-06-25_14h22.11.437,LearnStrategy,2023.2.3,MacIntel,58.82352941,5,1,12,0.251002604,0.388125,1,0,0,0.8329,Peridotite_04,7,04,6,6,0.833,0.154713542,-0.418732639,1,0,0,1.4092,Peridotite_rect,7,1.409,1,11,0,11,0,1,,,,,,,,,,,,,
60fd6618f9a377f54dcdf318,SCN,2024-06-25_14h22.11.437,LearnStrategy,2023.2.3,MacIntel,58.82352941,5,1,13,0.224149306,-0.113250868,1,0,0,0.6826,Basalt_02,2,02,3,6,0.683,-0.096380208,-0.25280816,1,0,0,0.827,Basalt_rect,2,0.827,1,12,0,12,0,1,,,,,,,,,,,,,
60fd6618f9a377f54dcdf318,SCN,2024-06-25_14h22.11.437,LearnStrategy,2023.2.3,MacIntel,58.82352941,5,1,14,0.569769965,0.412300347,1,0,0,1.1009,Obsidian_06,5,06,6,8,1.101,-0.463407118,-0.383871528,1,0,0,0.9088,Obsidian_rect,5,0.909,1,13,0,13,0,1,,,,,,,,,,,,,
60fd6618f9a377f54dcdf318,SCN,2024-06-25_14h22.11.437,LearnStrategy,2023.2.3,MacIntel,58.82352941,5,1,15,-0.520442708,0.089826389,1,0,0,0.9314,Diorite_12,3,12,4,1,0.931,0.346536458,-0.398216146,1,0,0,1.211,Pumice_rect,8,1.211,0,14,0,14,0,1,,,,,,,,,,,,,
60fd6618f9a377f54dcdf318,SCN,2024-06-25_14h22.11.437,LearnStrategy,2023.2.3,MacIntel,58.82352941,5,1,16,-0.593671875,-0.446666667,1,0,0,1.0975,Pegmatite_15,6,15,1,1,1.098,-0.175659722,-0.417682292,1,0,0,0.5268,Pegmatite_rect,6,0.527,1,15,0,15,0,1,,,,,,,,,,,,,
60fd6618f9a377f54dcdf318,SCN,2024-06-25_14h22.11.437,LearnStrategy,2023.2.3,MacIntel,58.82352941,5,2,1,,,,,,,,7,06,,,,,,,,,,,7,1.557,1,,,,,,0.084292535,-0.404769965,1,0,0,1.5572,Peridotite_rect,0,0,0,0,1,
60fd6618f9a377f54dcdf318,SCN,2024-06-25_14h22.11.437,LearnStrategy,2023.2.3,MacIntel,58.82352941,5,2,2,,,,,,,,6,08,,,,,,,,,,,6,0.808,1,,,,,,-0.066002604,-0.39828559,1,0,0,0.8082,Pegmatite_rect,1,0,1,0,1,
60fd6618f9a377f54dcdf318,SCN,2024-06-25_14h22.11.437,LearnStrategy,2023.2.3,MacIntel,58.82352941,5,2,3,,,,,,,,8,15,,,,,,,,,,,8,0.942,1,,,,,,0.395269097,-0.400798611,1,0,0,0.9419,Pumice_rect,2,0,2,0,1,
60fd6618f9a377f54dcdf318,SCN,2024-06-25_14h22.11.437,LearnStrategy,2023.2.3,MacIntel,58.82352941,5,2,4,,,,,,,,6,16,,,,,,,,,,,6,1.358,1,,,,,,-0.032938368,-0.396653646,1,0,0,1.358,Pegmatite_rect,3,0,3,0,1,
60fd6618f9a377f54dcdf318,SCN,2024-06-25_14h22.11.437,LearnStrategy,2023.2.3,MacIntel,58.82352941,5,2,5,,,,,,,,2,06,,,,,,,,,,,2,1.192,1,,,,,,-0.067243924,-0.233789063,1,0,0,1.1915,Basalt_rect,4,0,4,0,1,
60fd6618f9a377f54dcdf318,SCN,2024-06-25_14h22.11.437,LearnStrategy,2023.2.3,MacIntel,58.82352941,5,2,6,,,,,,,,5,16,,,,,,,,,,,5,1.024,1,,,,,,-0.355516493,-0.410286458,1,0,0,1.0238,Obsidian_rect,5,0,5,0,1,
60fd6618f9a377f54dcdf318,SCN,2024-06-25_14h22.11.437,LearnStrategy,2023.2.3,MacIntel,58.82352941,5,2,7,,,,,,,,5,10,,,,,,,,,,,5,1.591,1,,,,,,-0.366944444,-0.413680556,1,0,0,1.5912,Obsidian_rect,6,0,6,0,1,
60fd6618f9a377f54dcdf318,SCN,2024-06-25_14h22.11.437,LearnStrategy,2023.2.3,MacIntel,58.82352941,5,2,8,,,,,,,,1,16,,,,,,,,,,,2,1.14,0,,,,,,-0.097452257,-0.269201389,1,0,0,1.1399,Basalt_rect,7,0,7,0,1,
60fd6618f9a377f54dcdf318,SCN,2024-06-25_14h22.11.437,LearnStrategy,2023.2.3,MacIntel,58.82352941,5,2,9,,,,,,,,3,06,,,,,,,,,,,2,1.457,0,,,,,,-0.047369792,-0.257899306,1,0,0,1.4575,Basalt_rect,8,0,8,0,1,
60fd6618f9a377f54dcdf318,SCN,2024-06-25_14h22.11.437,LearnStrategy,2023.2.3,MacIntel,58.82352941,5,2,10,,,,,,,,3,10,,,,,,,,,,,2,0.791,0,,,,,,-0.047712674,-0.247981771,1,0,0,0.7913,Basalt_rect,9,0,9,0,1,
60fd6618f9a377f54dcdf318,SCN,2024-06-25_14h22.11.437,LearnStrategy,2023.2.3,MacIntel,58.82352941,5,2,11,,,,,,,,7,05,,,,,,,,,,,2,0.808,0,,,,,,-0.047712674,-0.247981771,1,0,0,0.8079,Basalt_rect,10,0,10,0,1,
60fd6618f9a377f54dcdf318,SCN,2024-06-25_14h22.11.437,LearnStrategy,2023.2.3,MacIntel,58.82352941,5,2,12,,,,,,,,4,03,,,,,,,,,,,2,0.624,0,,,,,,-0.047712674,-0.247981771,1,0,0,0.6243,Basalt_rect,11,0,11,0,1,
60fd6618f9a377f54dcdf318,SCN,2024-06-25_14h22.11.437,LearnStrategy,2023.2.3,MacIntel,58.82352941,5,2,13,,,,,,,,8,08,,,,,,,,,,,8,1.275,1,,,,,,0.422521701,-0.404118924,1,0,0,1.2746,Pumice_rect,12,0,12,0,1,
60fd6618f9a377f54dcdf318,SCN,2024-06-25_14h22.11.437,LearnStrategy,2023.2.3,MacIntel,58.82352941,5,2,14,,,,,,,,4,01,,,,,,,,,,,3,0.71,0,,,,,,0.083402778,-0.263515625,1,0,0,0.7101,Diorite_rect,13,0,13,0,1,
60fd6618f9a377f54dcdf318,SCN,2024-06-25_14h22.11.437,LearnStrategy,2023.2.3,MacIntel,58.82352941,5,2,15,,,,,,,,1,09,,,,,,,,,,,3,0.606,0,,,,,,0.083550347,-0.263689236,1,0,0,0.6064,Diorite_rect,14,0,14,0,1,
60fd6618f9a377f54dcdf318,SCN,2024-06-25_14h22.11.437,LearnStrategy,2023.2.3,MacIntel,58.82352941,5,2,16,,,,,,,,2,04,,,,,,,,,,,2,1.407,1,,,,,,-0.088645833,-0.256319444,1,0,0,1.4074,Basalt_rect,15,0,15,0,1,
60fd6618f9a377f54dcdf318,SCN,2024-06-25_14h22.11.437,LearnStrategy,2023.2.3,MacIntel,58.82352941,6,1,1,-0.027586806,-0.112868924,1,0,0,0.7492,Basalt_09,2,09,3,4,0.749,-0.145542535,-0.244322917,1,0,0,0.9424,Basalt_rect,2,0.942,1,0,0,0,0,1,,,,,,,,,,,,,
60fd6618f9a377f54dcdf318,SCN,2024-06-25_14h22.11.437,LearnStrategy,2023.2.3,MacIntel,58.82352941,6,1,2,-0.049895833,-0.101861979,1,0,0,0.4998,Basalt_09,2,09,3,4,0.5,-0.074340278,-0.239244792,1,0,0,0.6275,Basalt_rect,2,0.627,1,1,0,1,0,1,,,,,,,,,,,,,
60fd6618f9a377f54dcdf318,SCN,2024-06-25_14h22.11.437,LearnStrategy,2023.2.3,MacIntel,58.82352941,6,1,3,-0.071462674,-0.086289062,1,0,0,0.4821,Basalt_09,2,09,3,4,0.482,-0.101341146,-0.239366319,1,0,0,0.4773,Basalt_rect,2,0.477,1,2,0,2,0,1,,,,,,,,,,,,,
60fd6618f9a377f54dcdf318,SCN,2024-06-25_14h22.11.437,LearnStrategy,2023.2.3,MacIntel,58.82352941,6,1,4,0.066822917,-0.091232639,1,0,0,0.5656,Obsidian_04,5,04,3,5,0.566,-0.352695313,-0.388563368,1,0,0,0.8602,Obsidian_rect,5,0.86,1,3,0,3,0,1,,,,,,,,,,,,,
60fd6618f9a377f54dcdf318,SCN,2024-06-25_14h22.11.437,LearnStrategy,2023.2.3,MacIntel,58.82352941,6,1,5,0.069769965,-0.08797309,1,0,0,0.5326,Obsidian_04,5,04,3,5,0.533,-0.414565972,-0.406553819,1,0,0,0.7439,Obsidian_rect,5,0.744,1,4,0,4,0,1,,,,,,,,,,,,,
60fd6618f9a377f54dcdf318,SCN,2024-06-25_14h22.11.437,LearnStrategy,2023.2.3,MacIntel,58.82352941,6,1,6,0.076636285,-0.088854167,1,0,0,0.482,Obsidian_04,5,04,3,5,0.482,-0.393971354,-0.409587674,1,0,0,0.6433,Obsidian_rect,5,0.643,1,5,0,5,0,1,,,,,,,,,,,,,
60fd6618f9a377f54dcdf318,SCN,2024-06-25_14h22.11.437,LearnStrategy,2023.2.3,MacIntel,58.82352941,6,1,7,0.544327257,-0.389097222,1,0,0,0.7659,Pumice_13,8,13,1,8,0.766,0.442213542,-0.391427951,1,0,0,0.5101,Pumice_rect,8,0.51,1,6,0,6,0,1,,,,,,,,,,,,,
60fd6618f9a377f54dcdf318,SCN,2024-06-25_14h22.11.437,LearnStrategy,2023.2.3,MacIntel,58.82352941,6,1,8,0.523064236,-0.375598958,1,0,0,0.7821,Pumice_13,8,13,1,8,0.782,0.413697917,-0.394622396,1,0,0,1.2436,Pumice_rect,8,1.244,1,7,0,7,0,1,,,,,,,,,,,,,
60fd6618f9a377f54dcdf318,SCN,2024-06-25_14h22.11.437,LearnStrategy,2023.2.3,MacIntel,58.82352941,6,1,9,0.540104167,-0.395928819,1,0,0,0.7487,Pumice_13,8,13,1,8,0.749,0.348046875,-0.396666667,1,0,0,0.8092,Pumice_rect,8,0.809,1,8,0,8,0,1,,,,,,,,,,,,,
60fd6618f9a377f54dcdf318,SCN,2024-06-25_14h22.11.437,LearnStrategy,2023.2.3,MacIntel,58.82352941,6,1,10,-0.530342882,0.419769965,1,0,0,0.9317,Gabbro_10,4,10,6,1,0.932,-0.086480035,-0.381037326,1,0,0,2.0779,Pegmatite_rect,6,2.078,0,9,0,9,0,1,,,,,,,,,,,,,
60fd6618f9a377f54dcdf318,SCN,2024-06-25_14h22.11.437,LearnStrategy,2023.2.3,MacIntel,58.82352941,6,1,11,-0.534375,0.411176215,1,0,0,0.9824,Gabbro_10,4,10,6,1,0.982,0.346775174,-0.257109375,1,0,0,1.6753,Gabbro_rect,4,1.675,1,10,0,10,0,1,,,,,,,,,,,,,
60fd6618f9a377f54dcdf318,SCN,2024-06-25_14h22.11.437,LearnStrategy,2023.2.3,MacIntel,58.82352941,6,1,12,-0.538142361,0.401440972,1,0,0,0.7824,Gabbro_10,4,10,6,1,0.782,0.351922743,-0.228654514,1,0,0,0.8601,Gabbro_rect,4,0.86,1,11,0,11,0,1,,,,,,,,,,,,,
60fd6618f9a377f54dcdf318,SCN,2024-06-25_14h22.11.437,LearnStrategy,2023.2.3,MacIntel,58.82352941,6,1,13,-0.560533854,0.411857639,1,0,0,0.8655,Gabbro_10,4,10,6,1,0.865,0.365073785,-0.245421007,1,0,0,0.9271,Gabbro_rect,4,0.927,1,12,0,12,0,1,,,,,,,,,,,,,
60fd6618f9a377f54dcdf318,SCN,2024-06-25_14h22.11.437,LearnStrategy,2023.2.3,MacIntel,58.82352941,6,1,14,-0.532855903,0.394366319,1,0,0,0.9656,Gabbro_10,4,10,6,1,0.966,0.367378472,-0.246931424,1,0,0,1.6913,Gabbro_rect,4,1.691,1,13,0,13,0,1,,,,,,,,,,,,,
60fd6618f9a377f54dcdf318,SCN,2024-06-25_14h22.11.437,LearnStrategy,2023.2.3,MacIntel,58.82352941,6,1,15,-0.206041667,0.400230035,1,0,0,0.9159,Obsidian_11,5,11,6,3,0.916,-0.402990451,-0.391523438,1,0,0,1.6915,Obsidian_rect,5,1.692,1,14,0,14,0,1,,,,,,,,,,,,,
60fd6618f9a377f54dcdf318,SCN,2024-06-25_14h22.11.437,LearnStrategy,2023.2.3,MacIntel,58.82352941,6,1,16,-0.231414931,0.390538194,1,0,0,0.7312,Obsidian_11,5,11,6,3,0.731,-0.343867188,-0.399969618,1,0,0,1.2768,Obsidian_rect,5,1.277,1,15,0,15,0,1,,,,,,,,,,,,,
60fd6618f9a377f54dcdf318,SCN,2024-06-25_14h22.11.437,LearnStrategy,2023.2.3,MacIntel,58.82352941,6,2,1,,,,,,,,8,06,,,,,,,,,,,8,2.143,1,,,,,,0.376684028,-0.40218316,1,0,0,2.1432,Pumice_rect,0,0,0,0,1,
60fd6618f9a377f54dcdf318,SCN,2024-06-25_14h22.11.437,LearnStrategy,2023.2.3,MacIntel,58.82352941,6,2,2,,,,,,,,3,14,,,,,,,,,,,3,1.99,1,,,,,,0.123090278,-0.269874132,1,0,0,1.9902,Diorite_rect,1,0,1,0,1,
60fd6618f9a377f54dcdf318,SCN,2024-06-25_14h22.11.437,LearnStrategy,2023.2.3,MacIntel,58.82352941,6,2,3,,,,,,,,1,07,,,,,,,,,,,3,0.941,0,,,,,,0.123090278,-0.269874132,1,0,0,0.9408,Diorite_rect,2,0,2,0,1,
60fd6618f9a377f54dcdf318,SCN,2024-06-25_14h22.11.437,LearnStrategy,2023.2.3,MacIntel,58.82352941,6,2,4,,,,,,,,4,16,,,,,,,,,,,2,1.708,0,,,,,,-0.087981771,-0.257899306,1,0,0,1.7078,Basalt_rect,3,0,3,0,1,
60fd6618f9a377f54dcdf318,SCN,2024-06-25_14h22.11.437,LearnStrategy,2023.2.3,MacIntel,58.82352941,6,2,5,,,,,,,,5,07,,,,,,,,,,,5,1.174,1,,,,,,-0.332473958,-0.405559896,1,0,0,1.174,Obsidian_rect,4,0,4,0,1,
60fd6618f9a377f54dcdf318,SCN,2024-06-25_14h22.11.437,LearnStrategy,2023.2.3,MacIntel,58.82352941,6,2,6,,,,,,,,3,11,,,,,,,,,,,6,1.008,0,,,,,,-0.116124132,-0.421644965,1,0,0,1.0082,Pegmatite_rect,5,0,5,0,1,
60fd6618f9a377f54dcdf318,SCN,2024-06-25_14h22.11.437,LearnStrategy,2023.2.3,MacIntel,58.82352941,6,2,7,,,,,,,,4,11,,,,,,,,,,,2,1.027,0,,,,,,-0.122235243,-0.256176215,1,0,0,1.0268,Basalt_rect,6,0,6,0,1,
60fd6618f9a377f54dcdf318,SCN,2024-06-25_14h22.11.437,LearnStrategy,2023.2.3,MacIntel,58.82352941,6,2,8,,,,,,,,2,14,,,,,,,,,,,8,1.109,0,,,,,,0.388185764,-0.379023438,1,0,0,1.1094,Pumice_rect,7,0,7,0,1,
60fd6618f9a377f54dcdf318,SCN,2024-06-25_14h22.11.437,LearnStrategy,2023.2.3,MacIntel,58.82352941,6,2,9,,,,,,,,7,14,,,,,,,,,,,7,1.041,1,,,,,,0.17733941,-0.403463542,1,0,0,1.0411,Peridotite_rect,8,0,8,0,1,
60fd6618f9a377f54dcdf318,SCN,2024-06-25_14h22.11.437,LearnStrategy,2023.2.3,MacIntel,58.82352941,6,2,10,,,,,,,,8,09,,,,,,,,,,,8,1.625,1,,,,,,0.400868056,-0.418758681,1,0,0,1.6254,Pumice_rect,9,0,9,0,1,
60fd6618f9a377f54dcdf318,SCN,2024-06-25_14h22.11.437,LearnStrategy,2023.2.3,MacIntel,58.82352941,6,2,11,,,,,,,,2,12,,,,,,,,,,,8,0.659,0,,,,,,0.395143229,-0.405789931,1,0,0,0.6589,Pumice_rect,10,0,10,0,1,
60fd6618f9a377f54dcdf318,SCN,2024-06-25_14h22.11.437,LearnStrategy,2023.2.3,MacIntel,58.82352941,6,2,12,,,,,,,,1,04,,,,,,,,,,,4,0.958,0,,,,,,0.386493056,-0.266223958,1,0,0,0.9577,Gabbro_rect,11,0,11,0,1,
60fd6618f9a377f54dcdf318,SCN,2024-06-25_14h22.11.437,LearnStrategy,2023.2.3,MacIntel,58.82352941,6,2,13,,,,,,,,6,03,,,,,,,,,,,6,2.108,1,,,,,,-0.09203125,-0.409045139,1,0,0,2.1075,Pegmatite_rect,12,0,12,0,1,
60fd6618f9a377f54dcdf318,SCN,2024-06-25_14h22.11.437,LearnStrategy,2023.2.3,MacIntel,58.82352941,6,2,14,,,,,,,,7,02,,,,,,,,,,,7,1.409,1,,,,,,0.140438368,-0.408528646,1,0,0,1.4091,Peridotite_rect,13,0,13,0,1,
60fd6618f9a377f54dcdf318,SCN,2024-06-25_14h22.11.437,LearnStrategy,2023.2.3,MacIntel,58.82352941,6,2,15,,,,,,,,6,05,,,,,,,,,,,6,0.876,1,,,,,,-0.111011285,-0.394570313,1,0,0,0.8758,Pegmatite_rect,14,0,14,0,1,
60fd6618f9a377f54dcdf318,SCN,2024-06-25_14h22.11.437,LearnStrategy,2023.2.3,MacIntel,58.82352941,6,2,16,,,,,,,,5,14,,,,,,,,,,,5,1.175,1,,,,,,-0.35374566,-0.40218316,1,0,0,1.1749,Obsidian_rect,15,0,15,0,1,
60fd6618f9a377f54dcdf318,SCN,2024-06-25_14h22.11.437,LearnStrategy,2023.2.3,MacIntel,58.82352941,7,1,1,0.077469618,0.274869792,1,0,0,0.6822,Andesite_01,1,01,5,5,0.682,0.173780382,-0.266197917,1,0,0,0.8098,Diorite_rect,3,0.81,0,0,0,0,0,1,,,,,,,,,,,,,
60fd6618f9a377f54dcdf318,SCN,2024-06-25_14h22.11.437,LearnStrategy,2023.2.3,MacIntel,58.82352941,7,1,2,0.096397569,0.237322049,1,0,0,0.7665,Andesite_01,1,01,5,5,0.767,-0.341536458,-0.230507812,1,0,0,0.81,Andesite_rect,1,0.81,1,1,0,1,0,1,,,,,,,,,,,,,
60fd6618f9a377f54dcdf318,SCN,2024-06-25_14h22.11.437,LearnStrategy,2023.2.3,MacIntel,58.82352941,7,1,3,0.086957465,0.249722222,1,0,0,0.6152,Andesite_01,1,01,5,5,0.615,-0.403841146,-0.269900174,1,0,0,1.1108,Andesite_rect,1,1.111,1,2,0,2,0,1,,,,,,,,,,,,,
60fd6618f9a377f54dcdf318,SCN,2024-06-25_14h22.11.437,LearnStrategy,2023.2.3,MacIntel,58.82352941,7,1,4,-0.093580729,0.078155382,1,0,0,0.7156,Gabbro_15,4,15,4,4,0.716,0.090928819,-0.239978299,1,0,0,0.7436,Diorite_rect,3,0.744,0,3,0,3,0,1,,,,,,,,,,,,,
60fd6618f9a377f54dcdf318,SCN,2024-06-25_14h22.11.437,LearnStrategy,2023.2.3,MacIntel,58.82352941,7,1,5,-0.055217014,0.10233941,1,0,0,1.2657,Gabbro_15,4,15,4,4,1.266,0.330455729,-0.244518229,1,0,0,1.111,Gabbro_rect,4,1.111,1,4,0,4,0,1,,,,,,,,,,,,,
60fd6618f9a377f54dcdf318,SCN,2024-06-25_14h22.11.437,LearnStrategy,2023.2.3,MacIntel,58.82352941,7,1,6,-0.101306424,0.230486111,1,0,0,0.9165,Basalt_10,2,10,5,4,0.917,-0.075078125,-0.228428819,1,0,0,0.7086,Basalt_rect,2,0.709,1,5,0,5,0,1,,,,,,,,,,,,,
60fd6618f9a377f54dcdf318,SCN,2024-06-25_14h22.11.437,LearnStrategy,2023.2.3,MacIntel,58.82352941,7,1,7,-0.076692708,0.14578559,1,0,0,0.7654,Gabbro_15,4,15,4,4,0.765,0.374240451,-0.246692708,1,0,0,1.1101,Gabbro_rect,4,1.11,1,6,0,6,0,1,,,,,,,,,,,,,
60fd6618f9a377f54dcdf318,SCN,2024-06-25_14h22.11.437,LearnStrategy,2023.2.3,MacIntel,58.82352941,7,1,8,-0.115507813,0.274053819,1,0,0,0.6654,Basalt_10,2,10,5,4,0.665,-0.072621528,-0.250373264,1,0,0,0.9077,Basalt_rect,2,0.908,1,7,0,7,0,1,,,,,,,,,,,,,
60fd6618f9a377f54dcdf318,SCN,2024-06-25_14h22.11.437,LearnStrategy,2023.2.3,MacIntel,58.82352941,7,1,9,-0.217304688,0.233806424,1,0,0,0.8653,Obsidian_09,5,09,5,3,0.865,-0.333328993,-0.401041667,1,0,0,0.7267,Obsidian_rect,5,0.727,1,8,0,8,0,1,,,,,,,,,,,,,
60fd6618f9a377f54dcdf318,SCN,2024-06-25_14h22.11.437,LearnStrategy,2023.2.3,MacIntel,58.82352941,7,1,10,-0.101671007,0.387413194,1,0,0,0.7326,Andesite_03,1,03,6,4,0.733,0.113355035,-0.244157986,1,0,0,1.6754,Diorite_rect,3,1.675,0,9,0,9,0,1,,,,,,,,,,,,,
60fd6618f9a377f54dcdf318,SCN,2024-06-25_14h22.11.437,LearnStrategy,2023.2.3,MacIntel,58.82352941,7,1,11,-0.069418403,0.425976562,1,0,0,0.6675,Andesite_03,1,03,6,4,0.667,-0.338255208,-0.236124132,1,0,0,0.9274,Andesite_rect,1,0.927,1,10,0,10,0,1,,,,,,,,,,,,,
60fd6618f9a377f54dcdf318,SCN,2024-06-25_14h22.11.437,LearnStrategy,2023.2.3,MacIntel,58.82352941,7,1,12,-0.079652778,0.385277778,1,0,0,0.7654,Andesite_03,1,03,6,4,0.765,-0.329639757,-0.261653646,1,0,0,2.4446,Andesite_rect,1,2.445,1,11,0,11,0,1,,,,,,,,,,,,,
60fd6618f9a377f54dcdf318,SCN,2024-06-25_14h22.11.437,LearnStrategy,2023.2.3,MacIntel,58.82352941,7,1,13,-0.068346354,-0.437426215,1,0,0,0.7487,Gabbro_05,4,05,1,4,0.749,0.110703125,-0.380412326,1,0,0,0.5426,Peridotite_rect,7,0.543,0,12,0,12,0,1,,,,,,,,,,,,,
60fd6618f9a377f54dcdf318,SCN,2024-06-25_14h22.11.437,LearnStrategy,2023.2.3,MacIntel,58.82352941,7,1,14,0.058550347,-0.373190104,1,0,0,0.8488,Peridotite_15,7,15,1,5,0.849,0.337947049,-0.243511285,1,0,0,0.7608,Gabbro_rect,4,0.761,0,13,0,13,0,1,,,,,,,,,,,,,
60fd6618f9a377f54dcdf318,SCN,2024-06-25_14h22.11.437,LearnStrategy,2023.2.3,MacIntel,58.82352941,7,1,15,0.051822917,-0.430503472,1,0,0,0.866,Peridotite_15,7,15,1,5,0.866,0.080993924,-0.395455729,1,0,0,0.8765,Peridotite_rect,7,0.877,1,14,0,14,0,1,,,,,,,,,,,,,
60fd6618f9a377f54dcdf318,SCN,2024-06-25_14h22.11.437,LearnStrategy,2023.2.3,MacIntel,58.82352941,7,1,16,-0.063355035,-0.078528646,1,0,0,0.8823,Basalt_09,2,09,3,4,0.882,-0.074401042,-0.257773437,1,0,0,0.6604,Basalt_rect,2,0.66,1,15,0,15,0,1,,,,,,,,,,,,,
60fd6618f9a377f54dcdf318,SCN,2024-06-25_14h22.11.437,LearnStrategy,2023.2.3,MacIntel,58.82352941,7,2,1,,,,,,,,7,06,,,,,,,,,,,7,1.076,1,,,,,,0.055772569,-0.391584201,1,0,0,1.0756,Peridotite_rect,0,0,0,0,1,
60fd6618f9a377f54dcdf318,SCN,2024-06-25_14h22.11.437,LearnStrategy,2023.2.3,MacIntel,58.82352941,7,2,2,,,,,,,,3,10,,,,,,,,,,,3,1.024,1,,,,,,0.089431424,-0.256111111,1,0,0,1.0236,Diorite_rect,1,0,1,0,1,
60fd6618f9a377f54dcdf318,SCN,2024-06-25_14h22.11.437,LearnStrategy,2023.2.3,MacIntel,58.82352941,7,2,3,,,,,,,,2,12,,,,,,,,,,,8,1.492,0,,,,,,0.393919271,-0.399392361,1,0,0,1.4921,Pumice_rect,2,0,2,0,1,
60fd6618f9a377f54dcdf318,SCN,2024-06-25_14h22.11.437,LearnStrategy,2023.2.3,MacIntel,58.82352941,7,2,4,,,,,,,,1,16,,,,,,,,,,,2,1.058,0,,,,,,-0.070512153,-0.255117188,1,0,0,1.0578,Basalt_rect,3,0,3,0,1,
60fd6618f9a377f54dcdf318,SCN,2024-06-25_14h22.11.437,LearnStrategy,2023.2.3,MacIntel,58.82352941,7,2,5,,,,,,,,4,03,,,,,,,,,,,3,0.926,0,,,,,,0.095646701,-0.238428819,1,0,0,0.9262,Diorite_rect,4,0,4,0,1,
60fd6618f9a377f54dcdf318,SCN,2024-06-25_14h22.11.437,LearnStrategy,2023.2.3,MacIntel,58.82352941,7,2,6,,,,,,,,6,16,,,,,,,,,,,6,1.224,1,,,,,,-0.066601563,-0.388728299,1,0,0,1.2243,Pegmatite_rect,5,0,5,0,1,
60fd6618f9a377f54dcdf318,SCN,2024-06-25_14h22.11.437,LearnStrategy,2023.2.3,MacIntel,58.82352941,7,2,7,,,,,,,,1,14,,,,,,,,,,,7,1.257,0,,,,,,0.113914931,-0.406493056,1,0,0,1.2574,Peridotite_rect,6,0,6,0,1,
60fd6618f9a377f54dcdf318,SCN,2024-06-25_14h22.11.437,LearnStrategy,2023.2.3,MacIntel,58.82352941,7,2,8,,,,,,,,6,05,,,,,,,,,,,7,0.907,0,,,,,,0.106289063,-0.383732639,1,0,0,0.9074,Peridotite_rect,7,0,7,0,1,
60fd6618f9a377f54dcdf318,SCN,2024-06-25_14h22.11.437,LearnStrategy,2023.2.3,MacIntel,58.82352941,7,2,9,,,,,,,,5,16,,,,,,,,,,,5,1.106,1,,,,,,-0.420885417,-0.400833333,1,0,0,1.1064,Obsidian_rect,8,0,8,0,1,
60fd6618f9a377f54dcdf318,SCN,2024-06-25_14h22.11.437,LearnStrategy,2023.2.3,MacIntel,58.82352941,7,2,10,,,,,,,,3,06,,,,,,,,,,,2,0.824,0,,,,,,-0.219492187,-0.261866319,1,0,0,0.8239,Basalt_rect,9,0,9,0,1,
60fd6618f9a377f54dcdf318,SCN,2024-06-25_14h22.11.437,LearnStrategy,2023.2.3,MacIntel,58.82352941,7,2,11,,,,,,,,5,07,,,,,,,,,,,5,0.991,1,,,,,,-0.349496528,-0.394144965,1,0,0,0.9914,Obsidian_rect,10,0,10,0,1,
60fd6618f9a377f54dcdf318,SCN,2024-06-25_14h22.11.437,LearnStrategy,2023.2.3,MacIntel,58.82352941,7,2,12,,,,,,,,2,14,,,,,,,,,,,8,2.091,0,,,,,,0.393111979,-0.406875,1,0,0,2.0911,Pumice_rect,11,0,11,0,1,
60fd6618f9a377f54dcdf318,SCN,2024-06-25_14h22.11.437,LearnStrategy,2023.2.3,MacIntel,58.82352941,7,2,13,,,,,,,,4,08,,,,,,,,,,,3,0.808,0,,,,,,0.173784722,-0.229418403,1,0,0,0.8082,Diorite_rect,12,0,12,0,1,
60fd6618f9a377f54dcdf318,SCN,2024-06-25_14h22.11.437,LearnStrategy,2023.2.3,MacIntel,58.82352941,7,2,14,,,,,,,,8,08,,,,,,,,,,,8,0.858,1,,,,,,0.374479167,-0.387044271,1,0,0,0.8581,Pumice_rect,13,0,13,0,1,
60fd6618f9a377f54dcdf318,SCN,2024-06-25_14h22.11.437,LearnStrategy,2023.2.3,MacIntel,58.82352941,7,2,15,,,,,,,,7,02,,,,,,,,,,,7,0.943,1,,,,,,0.101354167,-0.401380208,1,0,0,0.9427,Peridotite_rect,14,0,14,0,1,
60fd6618f9a377f54dcdf318,SCN,2024-06-25_14h22.11.437,LearnStrategy,2023.2.3,MacIntel,58.82352941,7,2,16,,,,,,,,8,15,,,,,,,,,,,8,0.892,1,,,,,,0.338697917,-0.404205729,1,0,0,0.8917,Pumice_rect,15,0,15,0,1,
60fd6618f9a377f54dcdf318,SCN,2024-06-25_14h22.11.437,LearnStrategy,2023.2.3,MacIntel,58.82352941,8,1,1,-0.573107639,0.437096354,1,0,0,2.2312,Gabbro_10,4,10,6,1,2.231,-0.086553819,-0.247595486,1,0,0,1.6768,Basalt_rect,2,1.677,0,0,0,0,0,1,,,,,,,,,,,,,
60fd6618f9a377f54dcdf318,SCN,2024-06-25_14h22.11.437,LearnStrategy,2023.2.3,MacIntel,58.82352941,8,1,2,-0.507100694,0.393619792,1,0,0,0.9159,Gabbro_10,4,10,6,1,0.916,0.404904514,-0.253767361,1,0,0,0.7099,Gabbro_rect,4,0.71,1,1,0,1,0,1,,,,,,,,,,,,,
60fd6618f9a377f54dcdf318,SCN,2024-06-25_14h22.11.437,LearnStrategy,2023.2.3,MacIntel,58.82352941,8,1,3,-0.249283854,0.402269965,1,0,0,1.3819,Obsidian_11,5,11,6,3,1.382,-0.334952257,-0.411545139,1,0,0,1.4272,Obsidian_rect,5,1.427,1,2,0,2,0,1,,,,,,,,,,,,,
60fd6618f9a377f54dcdf318,SCN,2024-06-25_14h22.11.437,LearnStrategy,2023.2.3,MacIntel,58.82352941,8,1,4,-0.212777778,0.414396701,1,0,0,1.0324,Obsidian_11,5,11,6,3,1.032,-0.425581597,-0.383650174,1,0,0,0.6426,Obsidian_rect,5,0.643,1,3,0,3,0,1,,,,,,,,,,,,,
60fd6618f9a377f54dcdf318,SCN,2024-06-25_14h22.11.437,LearnStrategy,2023.2.3,MacIntel,58.82352941,8,1,5,-0.071974826,0.426770833,1,0,0,0.7161,Andesite_03,1,03,6,4,0.716,0.118125,-0.24031684,1,0,0,0.7433,Diorite_rect,3,0.743,0,4,0,4,0,1,,,,,,,,,,,,,
60fd6618f9a377f54dcdf318,SCN,2024-06-25_14h22.11.437,LearnStrategy,2023.2.3,MacIntel,58.82352941,8,1,6,-0.100594618,0.442734375,1,0,0,0.866,Andesite_03,1,03,6,4,0.866,-0.387391493,-0.228802083,1,0,0,0.7434,Andesite_rect,1,0.743,1,5,0,5,0,1,,,,,,,,,,,,,
60fd6618f9a377f54dcdf318,SCN,2024-06-25_14h22.11.437,LearnStrategy,2023.2.3,MacIntel,58.82352941,8,1,7,0.088480903,0.391892361,1,0,0,0.8161,Peridotite_13,7,13,6,5,0.816,0.085243056,-0.418854167,1,0,0,0.7918,Peridotite_rect,7,0.792,1,6,0,6,0,1,,,,,,,,,,,,,
60fd6618f9a377f54dcdf318,SCN,2024-06-25_14h22.11.437,LearnStrategy,2023.2.3,MacIntel,58.82352941,8,1,8,0.081549479,0.385225694,1,0,0,0.6487,Peridotite_13,7,13,6,5,0.649,0.132669271,-0.409401042,1,0,0,0.6942,Peridotite_rect,7,0.694,1,7,0,7,0,1,,,,,,,,,,,,,
60fd6618f9a377f54dcdf318,SCN,2024-06-25_14h22.11.437,LearnStrategy,2023.2.3,MacIntel,58.82352941,8,1,9,-0.070256076,0.387508681,1,0,0,0.7336,Andesite_03,1,03,6,4,0.734,-0.398220486,-0.245638021,1,0,0,1.2258,Andesite_rect,1,1.226,1,8,0,8,0,1,,,,,,,,,,,,,
60fd6618f9a377f54dcdf318,SCN,2024-06-25_14h22.11.437,LearnStrategy,2023.2.3,MacIntel,58.82352941,8,1,10,0.393320312,0.427894965,1,0,0,1.0488,Pumice_04,8,04,6,7,1.049,0.421493056,-0.410572917,1,0,0,0.6768,Pumice_rect,8,0.677,1,9,0,9,0,1,,,,,,,,,,,,,
60fd6618f9a377f54dcdf318,SCN,2024-06-25_14h22.11.437,LearnStrategy,2023.2.3,MacIntel,58.82352941,8,1,11,0.570976562,-0.435217014,1,0,0,0.8488,Pumice_13,8,13,1,8,0.849,0.461970486,-0.379774306,1,0,0,0.5095,Pumice_rect,8,0.51,1,10,0,10,0,1,,,,,,,,,,,,,
60fd6618f9a377f54dcdf318,SCN,2024-06-25_14h22.11.437,LearnStrategy,2023.2.3,MacIntel,58.82352941,8,1,12,0.102677951,0.107677951,1,0,0,2.7148,Gabbro_12,4,12,4,5,2.715,0.172131076,-0.247300347,1,0,0,0.6785,Diorite_rect,3,0.678,0,11,0,11,0,1,,,,,,,,,,,,,
60fd6618f9a377f54dcdf318,SCN,2024-06-25_14h22.11.437,LearnStrategy,2023.2.3,MacIntel,58.82352941,8,1,13,0.098619792,0.087604167,1,0,0,0.4998,Gabbro_12,4,12,4,5,0.5,0.337304687,-0.256801215,1,0,0,1.2768,Gabbro_rect,4,1.277,1,12,0,12,0,1,,,,,,,,,,,,,
60fd6618f9a377f54dcdf318,SCN,2024-06-25_14h22.11.437,LearnStrategy,2023.2.3,MacIntel,58.82352941,8,1,14,0.036944444,-0.097417535,1,0,0,1.0476,Obsidian_04,5,04,3,5,1.048,-0.469327257,-0.398676215,1,0,0,0.8293,Obsidian_rect,5,0.829,1,13,0,13,0,1,,,,,,,,,,,,,
60fd6618f9a377f54dcdf318,SCN,2024-06-25_14h22.11.437,LearnStrategy,2023.2.3,MacIntel,58.82352941,8,1,15,0.561384549,-0.445546875,1,0,0,1.0988,Pumice_13,8,13,1,8,1.099,0.444644097,-0.392322049,1,0,0,0.4599,Pumice_rect,8,0.46,1,14,0,14,0,1,,,,,,,,,,,,,
60fd6618f9a377f54dcdf318,SCN,2024-06-25_14h22.11.437,LearnStrategy,2023.2.3,MacIntel,58.82352941,8,1,16,0.071202257,0.092842882,1,0,0,0.8491,Gabbro_12,4,12,4,5,0.849,0.386601562,-0.271184896,1,0,0,0.7748,Gabbro_rect,4,0.775,1,15,0,15,0,1,,,,,,,,,,,,,
60fd6618f9a377f54dcdf318,SCN,2024-06-25_14h22.11.437,LearnStrategy,2023.2.3,MacIntel,58.82352941,8,2,1,,,,,,,,3,14,,,,,,,,,,,6,1.274,0,,,,,,-0.110130208,-0.379353299,1,0,0,1.2738,Pegmatite_rect,0,0,0,0,1,
60fd6618f9a377f54dcdf318,SCN,2024-06-25_14h22.11.437,LearnStrategy,2023.2.3,MacIntel,58.82352941,8,2,2,,,,,,,,6,03,,,,,,,,,,,7,1.357,0,,,,,,0.093997396,-0.39749566,1,0,0,1.3575,Peridotite_rect,1,0,1,0,1,
60fd6618f9a377f54dcdf318,SCN,2024-06-25_14h22.11.437,LearnStrategy,2023.2.3,MacIntel,58.82352941,8,2,3,,,,,,,,7,05,,,,,,,,,,,7,1.024,1,,,,,,0.063302951,-0.395859375,1,0,0,1.0239,Peridotite_rect,2,0,2,0,1,
60fd6618f9a377f54dcdf318,SCN,2024-06-25_14h22.11.437,LearnStrategy,2023.2.3,MacIntel,58.82352941,8,2,4,,,,,,,,8,09,,,,,,,,,,,8,2.358,1,,,,,,0.340590278,-0.384348958,1,0,0,2.3577,Pumice_rect,3,0,3,0,1,
60fd6618f9a377f54dcdf318,SCN,2024-06-25_14h22.11.437,LearnStrategy,2023.2.3,MacIntel,58.82352941,8,2,5,,,,,,,,4,11,,,,,,,,,,,2,0.808,0,,,,,,-0.064322917,-0.260811632,1,0,0,0.8078,Basalt_rect,4,0,4,0,1,
60fd6618f9a377f54dcdf318,SCN,2024-06-25_14h22.11.437,LearnStrategy,2023.2.3,MacIntel,58.82352941,8,2,6,,,,,,,,5,08,,,,,,,,,,,5,1.258,1,,,,,,-0.43422309,-0.416692708,1,0,0,1.2579,Obsidian_rect,5,0,5,0,1,
60fd6618f9a377f54dcdf318,SCN,2024-06-25_14h22.11.437,LearnStrategy,2023.2.3,MacIntel,58.82352941,8,2,7,,,,,,,,1,07,,,,,,,,,,,2,1.025,0,,,,,,-0.232890625,-0.248389757,1,0,0,1.0253,Basalt_rect,6,0,6,0,1,
60fd6618f9a377f54dcdf318,SCN,2024-06-25_14h22.11.437,LearnStrategy,2023.2.3,MacIntel,58.82352941,8,2,8,,,,,,,,7,12,,,,,,,,,,,3,3.558,0,,,,,,0.168619792,-0.248420139,1,0,0,3.5576,Diorite_rect,7,0,7,0,1,
60fd6618f9a377f54dcdf318,SCN,2024-06-25_14h22.11.437,LearnStrategy,2023.2.3,MacIntel,58.82352941,8,2,9,,,,,,,,2,08,,,,,,,,,,,2,1.908,1,,,,,,-0.160034722,-0.258980035,1,0,0,1.9076,Basalt_rect,8,0,8,0,1,
60fd6618f9a377f54dcdf318,SCN,2024-06-25_14h22.11.437,LearnStrategy,2023.2.3,MacIntel,58.82352941,8,2,10,,,,,,,,6,11,,,,,,,,,,,6,1.341,1,,,,,,-0.081458333,-0.397673611,1,0,0,1.3406,Pegmatite_rect,9,0,9,0,1,
60fd6618f9a377f54dcdf318,SCN,2024-06-25_14h22.11.437,LearnStrategy,2023.2.3,MacIntel,58.82352941,8,2,11,,,,,,,,3,09,,,,,,,,,,,7,0.89,0,,,,,,0.081835937,-0.399079861,1,0,0,0.8905,Peridotite_rect,10,0,10,0,1,
60fd6618f9a377f54dcdf318,SCN,2024-06-25_14h22.11.437,LearnStrategy,2023.2.3,MacIntel,58.82352941,8,2,12,,,,,,,,5,02,,,,,,,,,,,5,1.974,1,,,,,,-0.398411458,-0.393459201,1,0,0,1.9743,Obsidian_rect,11,0,11,0,1,
60fd6618f9a377f54dcdf318,SCN,2024-06-25_14h22.11.437,LearnStrategy,2023.2.3,MacIntel,58.82352941,8,2,13,,,,,,,,1,09,,,,,,,,,,,4,1.593,0,,,,,,0.422326389,-0.247170139,1,0,0,1.5933,Gabbro_rect,12,0,12,0,1,
60fd6618f9a377f54dcdf318,SCN,2024-06-25_14h22.11.437,LearnStrategy,2023.2.3,MacIntel,58.82352941,8,2,14,,,,,,,,4,16,,,,,,,,,,,2,2.341,0,,,,,,-0.094926215,-0.24187066,1,0,0,2.3413,Basalt_rect,13,0,13,0,1,
60fd6618f9a377f54dcdf318,SCN,2024-06-25_14h22.11.437,LearnStrategy,2023.2.3,MacIntel,58.82352941,8,2,15,,,,,,,,8,06,,,,,,,,,,,8,1.106,1,,,,,,0.344166667,-0.386740451,1,0,0,1.1063,Pumice_rect,14,0,14,0,1,
60fd6618f9a377f54dcdf318,SCN,2024-06-25_14h22.11.437,LearnStrategy,2023.2.3,MacIntel,58.82352941,8,2,16,,,,,,,,2,11,,,,,,,,,,,8,0.758,0,,,,,,0.346349826,-0.387109375,1,0,0,0.7577,Pumice_rect,15,0,15,0,1,
60fd6618f9a377f54dcdf318,SCN,2024-06-25_14h22.11.437,LearnStrategy,2023.2.3,MacIntel,58.82352941,9,1,1,0.064435764,-0.098064236,1,0,0,0.8316,Obsidian_04,5,04,3,5,0.832,-0.437044271,-0.419557292,1,0,0,0.6771,Obsidian_rect,5,0.677,1,0,0,0,0,1,,,,,,,,,,,,,
60fd6618f9a377f54dcdf318,SCN,2024-06-25_14h22.11.437,LearnStrategy,2023.2.3,MacIntel,58.82352941,9,1,2,0.077777778,-0.091814236,1,0,0,0.4823,Obsidian_04,5,04,3,5,0.482,-0.34203125,-0.408003472,1,0,0,1.6941,Obsidian_rect,5,1.694,1,1,0,1,0,1,,,,,,,,,,,,,
60fd6618f9a377f54dcdf318,SCN,2024-06-25_14h22.11.437,LearnStrategy,2023.2.3,MacIntel,58.82352941,9,1,3,0.098159722,-0.0928125,1,0,0,0.5489,Obsidian_04,5,04,3,5,0.549,-0.33374566,-0.387894965,1,0,0,1.2933,Obsidian_rect,5,1.293,1,2,0,2,0,1,,,,,,,,,,,,,
60fd6618f9a377f54dcdf318,SCN,2024-06-25_14h22.11.437,LearnStrategy,2023.2.3,MacIntel,58.82352941,9,1,4,0.067925347,-0.089739583,1,0,0,0.5495,Obsidian_04,5,04,3,5,0.549,-0.371067708,-0.41515625,1,0,0,0.6276,Obsidian_rect,5,0.628,1,3,0,3,0,1,,,,,,,,,,,,,
60fd6618f9a377f54dcdf318,SCN,2024-06-25_14h22.11.437,LearnStrategy,2023.2.3,MacIntel,58.82352941,9,1,5,0.071493056,-0.075516493,1,0,0,0.4991,Obsidian_04,5,04,3,5,0.499,-0.393315972,-0.420833333,1,0,0,0.9435,Obsidian_rect,5,0.944,1,4,0,4,0,1,,,,,,,,,,,,,
60fd6618f9a377f54dcdf318,SCN,2024-06-25_14h22.11.437,LearnStrategy,2023.2.3,MacIntel,58.82352941,9,1,6,0.081193576,-0.086423611,1,0,0,0.6982,Obsidian_04,5,04,3,5,0.698,-0.310321181,-0.388953993,1,0,0,2.6278,Obsidian_rect,5,2.628,1,5,0,5,0,1,,,,,,,,,,,,,
60fd6618f9a377f54dcdf318,SCN,2024-06-25_14h22.11.437,LearnStrategy,2023.2.3,MacIntel,58.82352941,9,1,7,-0.072899306,-0.09203559,1,0,0,0.6653,Basalt_09,2,09,3,4,0.665,-0.104596354,-0.253355035,1,0,0,1.1931,Basalt_rect,2,1.193,1,6,0,6,0,1,,,,,,,,,,,,,
60fd6618f9a377f54dcdf318,SCN,2024-06-25_14h22.11.437,LearnStrategy,2023.2.3,MacIntel,58.82352941,9,1,8,-0.085447049,-0.129366319,1,0,0,0.4644,Basalt_09,2,09,3,4,0.464,-0.15078125,-0.253081597,1,0,0,0.9115,Basalt_rect,2,0.911,1,7,0,7,0,1,,,,,,,,,,,,,
60fd6618f9a377f54dcdf318,SCN,2024-06-25_14h22.11.437,LearnStrategy,2023.2.3,MacIntel,58.82352941,9,1,9,-0.077955729,-0.081992187,1,0,0,0.7667,Basalt_09,2,09,3,4,0.767,-0.091002604,-0.258884549,1,0,0,0.609,Basalt_rect,2,0.609,1,8,0,8,0,1,,,,,,,,,,,,,
60fd6618f9a377f54dcdf318,SCN,2024-06-25_14h22.11.437,LearnStrategy,2023.2.3,MacIntel,58.82352941,9,1,10,0.584856771,0.458511285,1,0,0,1.2993,Obsidian_06,5,06,6,8,1.299,-0.349509549,-0.408480903,1,0,0,0.8933,Obsidian_rect,5,0.893,1,9,0,9,0,1,,,,,,,,,,,,,
60fd6618f9a377f54dcdf318,SCN,2024-06-25_14h22.11.437,LearnStrategy,2023.2.3,MacIntel,58.82352941,9,1,11,0.545750868,0.375407986,1,0,0,0.8489,Obsidian_06,5,06,6,8,0.849,-0.354791667,-0.398311632,1,0,0,0.7952,Obsidian_rect,5,0.795,1,10,0,10,0,1,,,,,,,,,,,,,
60fd6618f9a377f54dcdf318,SCN,2024-06-25_14h22.11.437,LearnStrategy,2023.2.3,MacIntel,58.82352941,9,1,12,0.076953125,-0.085334201,1,0,0,0.6651,Obsidian_04,5,04,3,5,0.665,-0.374171007,-0.388216146,1,0,0,1.1126,Obsidian_rect,5,1.113,1,11,0,11,0,1,,,,,,,,,,,,,
60fd6618f9a377f54dcdf318,SCN,2024-06-25_14h22.11.437,LearnStrategy,2023.2.3,MacIntel,58.82352941,9,1,13,0.580290799,-0.429704861,1,0,0,0.7835,Pumice_13,8,13,1,8,0.784,0.441922743,-0.407994792,1,0,0,0.5754,Pumice_rect,8,0.575,1,12,0,12,0,1,,,,,,,,,,,,,
60fd6618f9a377f54dcdf318,SCN,2024-06-25_14h22.11.437,LearnStrategy,2023.2.3,MacIntel,58.82352941,9,1,14,0.024262153,0.10358941,1,0,0,0.7325,Gabbro_12,4,12,4,5,0.733,0.138116319,-0.24515625,1,0,0,0.8105,Diorite_rect,3,0.811,0,13,0,13,0,1,,,,,,,,,,,,,
60fd6618f9a377f54dcdf318,SCN,2024-06-25_14h22.11.437,LearnStrategy,2023.2.3,MacIntel,58.82352941,9,1,15,0.101996528,0.073185764,1,0,0,0.6157,Gabbro_12,4,12,4,5,0.616,0.385282118,-0.240256076,1,0,0,0.6774,Gabbro_rect,4,0.677,1,14,0,14,0,1,,,,,,,,,,,,,
60fd6618f9a377f54dcdf318,SCN,2024-06-25_14h22.11.437,LearnStrategy,2023.2.3,MacIntel,58.82352941,9,1,16,-0.38921441,0.098676215,1,0,0,1.2989,Diorite_13,3,13,4,2,1.299,0.067352431,-0.387890625,1,0,0,2.2931,Peridotite_rect,7,2.293,0,15,0,15,0,1,,,,,,,,,,,,,
60fd6618f9a377f54dcdf318,SCN,2024-06-25_14h22.11.437,LearnStrategy,2023.2.3,MacIntel,58.82352941,9,2,1,,,,,,,,6,09,,,,,,,,,,,3,2.226,0,,,,,,0.150143229,-0.270290799,1,0,0,2.2264,Diorite_rect,0,0,0,0,1,
60fd6618f9a377f54dcdf318,SCN,2024-06-25_14h22.11.437,LearnStrategy,2023.2.3,MacIntel,58.82352941,9,2,2,,,,,,,,5,14,,,,,,,,,,,5,1.041,1,,,,,,-0.350208333,-0.392734375,1,0,0,1.0412,Obsidian_rect,1,0,1,0,1,
60fd6618f9a377f54dcdf318,SCN,2024-06-25_14h22.11.437,LearnStrategy,2023.2.3,MacIntel,58.82352941,9,2,3,,,,,,,,4,01,,,,,,,,,,,6,1.858,0,,,,,,-0.139826389,-0.390616319,1,0,0,1.8576,Pegmatite_rect,2,0,2,0,1,
60fd6618f9a377f54dcdf318,SCN,2024-06-25_14h22.11.437,LearnStrategy,2023.2.3,MacIntel,58.82352941,9,2,4,,,,,,,,8,14,,,,,,,,,,,8,1.242,1,,,,,,0.326857639,-0.395177951,1,0,0,1.2416,Pumice_rect,3,0,3,0,1,
60fd6618f9a377f54dcdf318,SCN,2024-06-25_14h22.11.437,LearnStrategy,2023.2.3,MacIntel,58.82352941,9,2,5,,,,,,,,8,16,,,,,,,,,,,8,0.625,1,,,,,,0.330368924,-0.395338542,1,0,0,0.6247,Pumice_rect,4,0,4,0,1,
60fd6618f9a377f54dcdf318,SCN,2024-06-25_14h22.11.437,LearnStrategy,2023.2.3,MacIntel,58.82352941,9,2,6,,,,,,,,5,10,,,,,,,,,,,5,1.39,1,,,,,,-0.464236111,-0.388641493,1,0,0,1.3904,Obsidian_rect,5,0,5,0,1,
60fd6618f9a377f54dcdf318,SCN,2024-06-25_14h22.11.437,LearnStrategy,2023.2.3,MacIntel,58.82352941,9,2,7,,,,,,,,7,08,,,,,,,,,,,3,1.075,0,,,,,,0.187139757,-0.243159722,1,0,0,1.0749,Diorite_rect,6,0,6,0,1,
60fd6618f9a377f54dcdf318,SCN,2024-06-25_14h22.11.437,LearnStrategy,2023.2.3,MacIntel,58.82352941,9,2,8,,,,,,,,1,04,,,,,,,,,,,2,1.057,0,,,,,,-0.070811632,-0.238932292,1,0,0,1.0573,Basalt_rect,7,0,7,0,1,
60fd6618f9a377f54dcdf318,SCN,2024-06-25_14h22.11.437,LearnStrategy,2023.2.3,MacIntel,58.82352941,9,2,9,,,,,,,,2,04,,,,,,,,,,,2,0.674,1,,,,,,-0.070811632,-0.238932292,1,0,0,0.6742,Basalt_rect,8,0,8,0,1,
60fd6618f9a377f54dcdf318,SCN,2024-06-25_14h22.11.437,LearnStrategy,2023.2.3,MacIntel,58.82352941,9,2,10,,,,,,,,3,02,,,,,,,,,,,7,1.025,0,,,,,,0.096119792,-0.381032986,1,0,0,1.0248,Peridotite_rect,9,0,9,0,1,
60fd6618f9a377f54dcdf318,SCN,2024-06-25_14h22.11.437,LearnStrategy,2023.2.3,MacIntel,58.82352941,9,2,11,,,,,,,,1,11,,,,,,,,,,,3,1.19,0,,,,,,0.140625,-0.266241319,1,0,0,1.1903,Diorite_rect,10,0,10,0,1,
60fd6618f9a377f54dcdf318,SCN,2024-06-25_14h22.11.437,LearnStrategy,2023.2.3,MacIntel,58.82352941,9,2,12,,,,,,,,2,06,,,,,,,,,,,2,1.557,1,,,,,,-0.073719618,-0.241866319,1,0,0,1.5572,Basalt_rect,11,0,11,0,1,
60fd6618f9a377f54dcdf318,SCN,2024-06-25_14h22.11.437,LearnStrategy,2023.2.3,MacIntel,58.82352941,9,2,13,,,,,,,,6,08,,,,,,,,,,,6,1.308,1,,,,,,-0.105633681,-0.38672309,1,0,0,1.3079,Pegmatite_rect,12,0,12,0,1,
60fd6618f9a377f54dcdf318,SCN,2024-06-25_14h22.11.437,LearnStrategy,2023.2.3,MacIntel,58.82352941,9,2,14,,,,,,,,4,14,,,,,,,,,,,4,1.558,1,,,,,,0.331176215,-0.259296875,1,0,0,1.5581,Gabbro_rect,13,0,13,0,1,
60fd6618f9a377f54dcdf318,SCN,2024-06-25_14h22.11.437,LearnStrategy,2023.2.3,MacIntel,58.82352941,9,2,15,,,,,,,,3,11,,,,,,,,,,,3,0.792,1,,,,,,0.181132812,-0.256671007,1,0,0,0.7919,Diorite_rect,14,0,14,0,1,
60fd6618f9a377f54dcdf318,SCN,2024-06-25_14h22.11.437,LearnStrategy,2023.2.3,MacIntel,58.82352941,9,2,16,,,,,,,,7,14,,,,,,,,,,,7,1.009,1,,,,,,0.187990451,-0.395477431,1,0,0,1.0089,Peridotite_rect,15,0,15,0,1,
60fd6618f9a377f54dcdf318,SCN,2024-06-25_14h22.11.437,LearnStrategy,2023.2.3,MacIntel,58.82352941,,,,,,,,,,,,,,,,,,,,,,,,,,,,,,,,,,,,,,,,,,,0
60fd6618f9a377f54dcdf318,SCN,2024-06-25_14h22.11.437,LearnStrategy,2023.2.3,MacIntel,58.82352941,,,,,,,,,,,,,,,,,,,,,,,,,,,,,,,,,,,,,,,,,,,
60fd6618f9a377f54dcdf318,SCN,2024-06-25_14h22.11.437,LearnStrategy,2023.2.3,MacIntel,58.82352941,,,,,,,,,,,6,15,1,1,,,,,,,,,,,,,,,,,,,,,,,,,,,,,
60fd6618f9a377f54dcdf318,SCN,2024-06-25_14h22.11.437,LearnStrategy,2023.2.3,MacIntel,58.82352941,,,,,,,,,,,5,05,1,2,,,,,,,,,,,,,,,,,,,,,,,,,,,,,
60fd6618f9a377f54dcdf318,SCN,2024-06-25_14h22.11.437,LearnStrategy,2023.2.3,MacIntel,58.82352941,,,,,,,,,,,6,07,1,3,,,,,,,,,,,,,,,,,,,,,,,,,,,,,
60fd6618f9a377f54dcdf318,SCN,2024-06-25_14h22.11.437,LearnStrategy,2023.2.3,MacIntel,58.82352941,,,,,,,,,,,4,05,1,4,,,,,,,,,,,,,,,,,,,,,,,,,,,,,
60fd6618f9a377f54dcdf318,SCN,2024-06-25_14h22.11.437,LearnStrategy,2023.2.3,MacIntel,58.82352941,,,,,,,,,,,7,15,1,5,,,,,,,,,,,,,,,,,,,,,,,,,,,,,
60fd6618f9a377f54dcdf318,SCN,2024-06-25_14h22.11.437,LearnStrategy,2023.2.3,MacIntel,58.82352941,,,,,,,,,,,1,10,1,6,,,,,,,,,,,,,,,,,,,,,,,,,,,,,
60fd6618f9a377f54dcdf318,SCN,2024-06-25_14h22.11.437,LearnStrategy,2023.2.3,MacIntel,58.82352941,,,,,,,,,,,3,16,1,7,,,,,,,,,,,,,,,,,,,,,,,,,,,,,
60fd6618f9a377f54dcdf318,SCN,2024-06-25_14h22.11.437,LearnStrategy,2023.2.3,MacIntel,58.82352941,,,,,,,,,,,8,13,1,8,,,,,,,,,,,,,,,,,,,,,,,,,,,,,
60fd6618f9a377f54dcdf318,SCN,2024-06-25_14h22.11.437,LearnStrategy,2023.2.3,MacIntel,58.82352941,,,,,,,,,,,1,06,2,1,,,,,,,,,,,,,,,,,,,,,,,,,,,,,
60fd6618f9a377f54dcdf318,SCN,2024-06-25_14h22.11.437,LearnStrategy,2023.2.3,MacIntel,58.82352941,,,,,,,,,,,4,09,2,2,,,,,,,,,,,,,,,,,,,,,,,,,,,,,
60fd6618f9a377f54dcdf318,SCN,2024-06-25_14h22.11.437,LearnStrategy,2023.2.3,MacIntel,58.82352941,,,,,,,,,,,3,08,2,3,,,,,,,,,,,,,,,,,,,,,,,,,,,,,
60fd6618f9a377f54dcdf318,SCN,2024-06-25_14h22.11.437,LearnStrategy,2023.2.3,MacIntel,58.82352941,,,,,,,,,,,5,12,2,4,,,,,,,,,,,,,,,,,,,,,,,,,,,,,
60fd6618f9a377f54dcdf318,SCN,2024-06-25_14h22.11.437,LearnStrategy,2023.2.3,MacIntel,58.82352941,,,,,,,,,,,4,13,2,5,,,,,,,,,,,,,,,,,,,,,,,,,,,,,
60fd6618f9a377f54dcdf318,SCN,2024-06-25_14h22.11.437,LearnStrategy,2023.2.3,MacIntel,58.82352941,,,,,,,,,,,2,16,2,6,,,,,,,,,,,,,,,,,,,,,,,,,,,,,
60fd6618f9a377f54dcdf318,SCN,2024-06-25_14h22.11.437,LearnStrategy,2023.2.3,MacIntel,58.82352941,,,,,,,,,,,7,16,2,7,,,,,,,,,,,,,,,,,,,,,,,,,,,,,
60fd6618f9a377f54dcdf318,SCN,2024-06-25_14h22.11.437,LearnStrategy,2023.2.3,MacIntel,58.82352941,,,,,,,,,,,7,07,2,8,,,,,,,,,,,,,,,,,,,,,,,,,,,,,
60fd6618f9a377f54dcdf318,SCN,2024-06-25_14h22.11.437,LearnStrategy,2023.2.3,MacIntel,58.82352941,,,,,,,,,,,8,05,3,1,,,,,,,,,,,,,,,,,,,,,,,,,,,,,
60fd6618f9a377f54dcdf318,SCN,2024-06-25_14h22.11.437,LearnStrategy,2023.2.3,MacIntel,58.82352941,,,,,,,,,,,1,05,3,2,,,,,,,,,,,,,,,,,,,,,,,,,,,,,
60fd6618f9a377f54dcdf318,SCN,2024-06-25_14h22.11.437,LearnStrategy,2023.2.3,MacIntel,58.82352941,,,,,,,,,,,7,10,3,3,,,,,,,,,,,,,,,,,,,,,,,,,,,,,
60fd6618f9a377f54dcdf318,SCN,2024-06-25_14h22.11.437,LearnStrategy,2023.2.3,MacIntel,58.82352941,,,,,,,,,,,2,09,3,4,,,,,,,,,,,,,,,,,,,,,,,,,,,,,
60fd6618f9a377f54dcdf318,SCN,2024-06-25_14h22.11.437,LearnStrategy,2023.2.3,MacIntel,58.82352941,,,,,,,,,,,5,04,3,5,,,,,,,,,,,,,,,,,,,,,,,,,,,,,
60fd6618f9a377f54dcdf318,SCN,2024-06-25_14h22.11.437,LearnStrategy,2023.2.3,MacIntel,58.82352941,,,,,,,,,,,2,02,3,6,,,,,,,,,,,,,,,,,,,,,,,,,,,,,
60fd6618f9a377f54dcdf318,SCN,2024-06-25_14h22.11.437,LearnStrategy,2023.2.3,MacIntel,58.82352941,,,,,,,,,,,2,01,3,7,,,,,,,,,,,,,,,,,,,,,,,,,,,,,
60fd6618f9a377f54dcdf318,SCN,2024-06-25_14h22.11.437,LearnStrategy,2023.2.3,MacIntel,58.82352941,,,,,,,,,,,3,07,3,8,,,,,,,,,,,,,,,,,,,,,,,,,,,,,
60fd6618f9a377f54dcdf318,SCN,2024-06-25_14h22.11.437,LearnStrategy,2023.2.3,MacIntel,58.82352941,,,,,,,,,,,3,12,4,1,,,,,,,,,,,,,,,,,,,,,,,,,,,,,
60fd6618f9a377f54dcdf318,SCN,2024-06-25_14h22.11.437,LearnStrategy,2023.2.3,MacIntel,58.82352941,,,,,,,,,,,3,13,4,2,,,,,,,,,,,,,,,,,,,,,,,,,,,,,
60fd6618f9a377f54dcdf318,SCN,2024-06-25_14h22.11.437,LearnStrategy,2023.2.3,MacIntel,58.82352941,,,,,,,,,,,6,12,4,3,,,,,,,,,,,,,,,,,,,,,,,,,,,,,
60fd6618f9a377f54dcdf318,SCN,2024-06-25_14h22.11.437,LearnStrategy,2023.2.3,MacIntel,58.82352941,,,,,,,,,,,4,15,4,4,,,,,,,,,,,,,,,,,,,,,,,,,,,,,
60fd6618f9a377f54dcdf318,SCN,2024-06-25_14h22.11.437,LearnStrategy,2023.2.3,MacIntel,58.82352941,,,,,,,,,,,4,12,4,5,,,,,,,,,,,,,,,,,,,,,,,,,,,,,
60fd6618f9a377f54dcdf318,SCN,2024-06-25_14h22.11.437,LearnStrategy,2023.2.3,MacIntel,58.82352941,,,,,,,,,,,1,02,4,6,,,,,,,,,,,,,,,,,,,,,,,,,,,,,
60fd6618f9a377f54dcdf318,SCN,2024-06-25_14h22.11.437,LearnStrategy,2023.2.3,MacIntel,58.82352941,,,,,,,,,,,8,02,4,7,,,,,,,,,,,,,,,,,,,,,,,,,,,,,
60fd6618f9a377f54dcdf318,SCN,2024-06-25_14h22.11.437,LearnStrategy,2023.2.3,MacIntel,58.82352941,,,,,,,,,,,8,03,4,8,,,,,,,,,,,,,,,,,,,,,,,,,,,,,
60fd6618f9a377f54dcdf318,SCN,2024-06-25_14h22.11.437,LearnStrategy,2023.2.3,MacIntel,58.82352941,,,,,,,,,,,6,06,5,1,,,,,,,,,,,,,,,,,,,,,,,,,,,,,
60fd6618f9a377f54dcdf318,SCN,2024-06-25_14h22.11.437,LearnStrategy,2023.2.3,MacIntel,58.82352941,,,,,,,,,,,8,10,5,2,,,,,,,,,,,,,,,,,,,,,,,,,,,,,
60fd6618f9a377f54dcdf318,SCN,2024-06-25_14h22.11.437,LearnStrategy,2023.2.3,MacIntel,58.82352941,,,,,,,,,,,5,09,5,3,,,,,,,,,,,,,,,,,,,,,,,,,,,,,
60fd6618f9a377f54dcdf318,SCN,2024-06-25_14h22.11.437,LearnStrategy,2023.2.3,MacIntel,58.82352941,,,,,,,,,,,2,10,5,4,,,,,,,,,,,,,,,,,,,,,,,,,,,,,
60fd6618f9a377f54dcdf318,SCN,2024-06-25_14h22.11.437,LearnStrategy,2023.2.3,MacIntel,58.82352941,,,,,,,,,,,1,01,5,5,,,,,,,,,,,,,,,,,,,,,,,,,,,,,
60fd6618f9a377f54dcdf318,SCN,2024-06-25_14h22.11.437,LearnStrategy,2023.2.3,MacIntel,58.82352941,,,,,,,,,,,3,15,5,6,,,,,,,,,,,,,,,,,,,,,,,,,,,,,
60fd6618f9a377f54dcdf318,SCN,2024-06-25_14h22.11.437,LearnStrategy,2023.2.3,MacIntel,58.82352941,,,,,,,,,,,6,10,5,7,,,,,,,,,,,,,,,,,,,,,,,,,,,,,
60fd6618f9a377f54dcdf318,SCN,2024-06-25_14h22.11.437,LearnStrategy,2023.2.3,MacIntel,58.82352941,,,,,,,,,,,2,05,5,8,,,,,,,,,,,,,,,,,,,,,,,,,,,,,
60fd6618f9a377f54dcdf318,SCN,2024-06-25_14h22.11.437,LearnStrategy,2023.2.3,MacIntel,58.82352941,,,,,,,,,,,4,10,6,1,,,,,,,,,,,,,,,,,,,,,,,,,,,,,
60fd6618f9a377f54dcdf318,SCN,2024-06-25_14h22.11.437,LearnStrategy,2023.2.3,MacIntel,58.82352941,,,,,,,,,,,6,13,6,2,,,,,,,,,,,,,,,,,,,,,,,,,,,,,
60fd6618f9a377f54dcdf318,SCN,2024-06-25_14h22.11.437,LearnStrategy,2023.2.3,MacIntel,58.82352941,,,,,,,,,,,5,11,6,3,,,,,,,,,,,,,,,,,,,,,,,,,,,,,
60fd6618f9a377f54dcdf318,SCN,2024-06-25_14h22.11.437,LearnStrategy,2023.2.3,MacIntel,58.82352941,,,,,,,,,,,1,03,6,4,,,,,,,,,,,,,,,,,,,,,,,,,,,,,
60fd6618f9a377f54dcdf318,SCN,2024-06-25_14h22.11.437,LearnStrategy,2023.2.3,MacIntel,58.82352941,,,,,,,,,,,7,13,6,5,,,,,,,,,,,,,,,,,,,,,,,,,,,,,
60fd6618f9a377f54dcdf318,SCN,2024-06-25_14h22.11.437,LearnStrategy,2023.2.3,MacIntel,58.82352941,,,,,,,,,,,7,04,6,6,,,,,,,,,,,,,,,,,,,,,,,,,,,,,
60fd6618f9a377f54dcdf318,SCN,2024-06-25_14h22.11.437,LearnStrategy,2023.2.3,MacIntel,58.82352941,,,,,,,,,,,8,04,6,7,,,,,,,,,,,,,,,,,,,,,,,,,,,,,
60fd6618f9a377f54dcdf318,SCN,2024-06-25_14h22.11.437,LearnStrategy,2023.2.3,MacIntel,58.82352941,,,,,,,,,,,5,06,6,8,,,,,,,,,,,,,,,,,,,,,,,,,,,,,