participant,condition,date,expName,psychopyVersion,OS,frameRate,block,phase,trial,learn_mouse.x,learn_mouse.y,learn_mouse.leftButton,learn_mouse.midButton,learn_mouse.rightButton,learn_mouse.time,learn_mouse.clicked_name,cat,token,row,col,t_select,cat_rec,token_rec,cat_mouse_l.x,cat_mouse_l.y,cat_mouse_l.leftButton,cat_mouse_l.midButton,cat_mouse_l.rightButton,cat_mouse_l.time,cat_mouse_l.clicked_name,resp,t_resp,corr,train_trials.thisRepN,train_trials.thisTrialN,train_trials.thisN,train_trials.thisIndex,train_trials.ran,cat_mouse_t.x,cat_mouse_t.y,cat_mouse_t.leftButton,cat_mouse_t.midButton,cat_mouse_t.rightButton,cat_mouse_t.time,cat_mouse_t.clicked_name,test_trials.thisRepN,test_trials.thisTrialN,test_trials.thisN,test_trials.thisIndex,test_trials.ran,Bonus
60fd8f5cb18c520d817c21be,SCR,2024-06-25_14h22.43.723,LearnStrategy,2023.2.3,MacIntel,60.0024001,,,,,,,,,,,,,,,,,,,,,,,,,,,,,,,,,,,,,,,,,,,,,
60fd8f5cb18c520d817c21be,SCR,2024-06-25_14h22.43.723,LearnStrategy,2023.2.3,MacIntel,60.0024001,1,1,1,-0.22358941,0.244613715,1,0,0,6.4652,Peridotite_15,7,15,5,3,6.465,7,15,-0.156835937,-0.264032118,1,0,0,6.5539,Basalt_rect,2,6.554,0,0,0,0,0,1,,,,,,,,,,,,,
60fd8f5cb18c520d817c21be,SCR,2024-06-25_14h22.43.723,LearnStrategy,2023.2.3,MacIntel,60.0024001,1,1,2,-0.5496875,0.39016059,1,0,0,8.4618,Andesite_14,1,14,6,1,8.462,6,13,-0.133133681,-0.257552083,1,0,0,8.752,Basalt_rect,2,8.752,0,1,0,1,0,1,,,,,,,,,,,,,
60fd8f5cb18c520d817c21be,SCR,2024-06-25_14h22.43.723,LearnStrategy,2023.2.3,MacIntel,60.0024001,1,1,3,-0.532165799,0.229414062,1,0,0,8.2106,Pegmatite_13,6,13,5,1,8.211,2,10,-0.140590278,-0.252118056,1,0,0,6.0775,Basalt_rect,2,6.077,0,2,0,2,0,1,,,,,,,,,,,,,
60fd8f5cb18c520d817c21be,SCR,2024-06-25_14h22.43.723,LearnStrategy,2023.2.3,MacIntel,60.0024001,1,1,4,-0.348927951,0.401614583,1,0,0,5.2189,Gabbro_08,4,08,6,2,5.219,1,14,-0.359435764,-0.249192708,1,0,0,1.5436,Andesite_rect,1,1.544,0,3,0,3,0,1,,,,,,,,,,,,,
60fd8f5cb18c520d817c21be,SCR,2024-06-25_14h22.43.723,LearnStrategy,2023.2.3,MacIntel,60.0024001,1,1,5,-0.227695312,0.407851562,1,0,0,1.5668,Peridotite_08,7,08,6,3,1.567,3,06,0.071762153,-0.389084201,1,0,0,3.0083,Peridotite_rect,7,3.008,1,4,0,4,0,1,,,,,,,,,,,,,
60fd8f5cb18c520d817c21be,SCR,2024-06-25_14h22.43.723,LearnStrategy,2023.2.3,MacIntel,60.0024001,1,1,6,-0.070208333,0.416514757,1,0,0,1.989,Basalt_01,2,01,6,4,1.989,4,08,0.112174479,-0.259600694,1,0,0,6.1591,Diorite_rect,3,6.159,0,5,0,5,0,1,,,,,,,,,,,,,
60fd8f5cb18c520d817c21be,SCR,2024-06-25_14h22.43.723,LearnStrategy,2023.2.3,MacIntel,60.0024001,1,1,7,0.087061632,0.404704861,1,0,0,1.293,Pegmatite_12,6,12,6,5,1.293,7,14,0.117921007,-0.260685764,1,0,0,4.9267,Diorite_rect,3,4.927,0,6,0,6,0,1,,,,,,,,,,,,,
60fd8f5cb18c520d817c21be,SCR,2024-06-25_14h22.43.723,LearnStrategy,2023.2.3,MacIntel,60.0024001,1,1,8,-0.517413194,0.237482639,1,0,0,1.2626,Pegmatite_13,6,13,5,1,1.263,2,01,-0.1296875,-0.4121875,1,0,0,1.2616,Pegmatite_rect,6,1.262,1,7,0,7,0,1,,,,,,,,,,,,,
60fd8f5cb18c520d817c21be,SCR,2024-06-25_14h22.43.723,LearnStrategy,2023.2.3,MacIntel,60.0024001,1,1,9,0.259765625,0.380134549,1,0,0,1.5942,Pegmatite_08,6,08,6,6,1.594,5,07,-0.131514757,-0.398250868,1,0,0,2.5818,Pegmatite_rect,6,2.582,1,8,0,8,0,1,,,,,,,,,,,,,
60fd8f5cb18c520d817c21be,SCR,2024-06-25_14h22.43.723,LearnStrategy,2023.2.3,MacIntel,60.0024001,1,1,10,0.406475694,0.375377604,1,0,0,0.9777,Diorite_12,3,12,6,7,0.978,4,14,0.143064236,-0.388051215,1,0,0,2.7978,Peridotite_rect,7,2.798,0,9,0,9,0,1,,,,,,,,,,,,,
60fd8f5cb18c520d817c21be,SCR,2024-06-25_14h22.43.723,LearnStrategy,2023.2.3,MacIntel,60.0024001,1,1,11,0.569913194,0.432152778,1,0,0,1.2024,Andesite_01,1,01,6,8,1.202,8,05,-0.357265625,-0.386853299,1,0,0,3.0927,Obsidian_rect,5,3.093,0,10,0,10,0,1,,,,,,,,,,,,,
60fd8f5cb18c520d817c21be,SCR,2024-06-25_14h22.43.723,LearnStrategy,2023.2.3,MacIntel,60.0024001,1,1,12,0.431072049,0.251345486,1,0,0,3.9853,Gabbro_13,4,13,5,7,3.985,6,08,0.132404514,-0.245946181,1,0,0,4.069,Diorite_rect,3,4.069,0,11,0,11,0,1,,,,,,,,,,,,,
60fd8f5cb18c520d817c21be,SCR,2024-06-25_14h22.43.723,LearnStrategy,2023.2.3,MacIntel,60.0024001,1,1,13,0.547673611,0.208320312,1,0,0,1.0605,Pegmatite_06,6,06,5,8,1.06,1,02,0.171419271,-0.264361979,1,0,0,3.9641,Diorite_rect,3,3.964,0,12,0,12,0,1,,,,,,,,,,,,,
60fd8f5cb18c520d817c21be,SCR,2024-06-25_14h22.43.723,LearnStrategy,2023.2.3,MacIntel,60.0024001,1,1,14,-0.228229167,-0.088858507,1,0,0,1.3805,Obsidian_08,5,08,3,3,1.38,5,08,-0.385490451,-0.405360243,1,0,0,4.0937,Obsidian_rect,5,4.094,1,13,0,13,0,1,,,,,,,,,,,,,
60fd8f5cb18c520d817c21be,SCR,2024-06-25_14h22.43.723,LearnStrategy,2023.2.3,MacIntel,60.0024001,1,1,15,-0.215542535,0.081631944,1,0,0,1.6546,Pumice_02,8,02,4,3,1.655,8,02,0.365325521,-0.416158854,1,0,0,2.1249,Pumice_rect,8,2.125,1,14,0,14,0,1,,,,,,,,,,,,,
60fd8f5cb18c520d817c21be,SCR,2024-06-25_14h22.43.723,LearnStrategy,2023.2.3,MacIntel,60.0024001,1,1,16,-0.062690972,0.208159722,1,0,0,1.6739,Diorite_08,3,08,5,4,1.674,3,08,0.159565972,-0.251371528,1,0,0,12.607,Diorite_rect,3,12.607,1,15,0,15,0,1,,,,,,,,,,,,,
60fd8f5cb18c520d817c21be,SCR,2024-06-25_14h22.43.723,LearnStrategy,2023.2.3,MacIntel,60.0024001,1,2,1,,,,,,,,3,16,,,,,,,,,,,,,3,5.209,1,,,,,,0.164657118,-0.254375,1,0,0,5.2091,Diorite_rect,0,0,0,0,1,
60fd8f5cb18c520d817c21be,SCR,2024-06-25_14h22.43.723,LearnStrategy,2023.2.3,MacIntel,60.0024001,1,2,2,,,,,,,,1,07,,,,,,,,,,,,,3,7.513,0,,,,,,0.106914063,-0.239674479,1,0,0,7.5133,Diorite_rect,1,0,1,0,1,
60fd8f5cb18c520d817c21be,SCR,2024-06-25_14h22.43.723,LearnStrategy,2023.2.3,MacIntel,60.0024001,1,2,3,,,,,,,,7,06,,,,,,,,,,,,,7,2.274,1,,,,,,0.106601562,-0.407000868,1,0,0,2.2743,Peridotite_rect,2,0,2,0,1,
60fd8f5cb18c520d817c21be,SCR,2024-06-25_14h22.43.723,LearnStrategy,2023.2.3,MacIntel,60.0024001,1,2,4,,,,,,,,3,09,,,,,,,,,,,,,3,2.896,1,,,,,,0.175069444,-0.250177951,1,0,0,2.8961,Diorite_rect,3,0,3,0,1,
60fd8f5cb18c520d817c21be,SCR,2024-06-25_14h22.43.723,LearnStrategy,2023.2.3,MacIntel,60.0024001,1,2,5,,,,,,,,8,06,,,,,,,,,,,,,8,1.865,1,,,,,,0.388641493,-0.407222222,1,0,0,1.8645,Pumice_rect,4,0,4,0,1,
60fd8f5cb18c520d817c21be,SCR,2024-06-25_14h22.43.723,LearnStrategy,2023.2.3,MacIntel,60.0024001,1,2,6,,,,,,,,6,10,,,,,,,,,,,,,7,2.106,0,,,,,,0.170555556,-0.394600694,1,0,0,2.1064,Peridotite_rect,5,0,5,0,1,
60fd8f5cb18c520d817c21be,SCR,2024-06-25_14h22.43.723,LearnStrategy,2023.2.3,MacIntel,60.0024001,1,2,7,,,,,,,,4,10,,,,,,,,,,,,,6,9.308,0,,,,,,-0.114613715,-0.401610243,1,0,0,9.3079,Pegmatite_rect,6,0,6,0,1,
60fd8f5cb18c520d817c21be,SCR,2024-06-25_14h22.43.723,LearnStrategy,2023.2.3,MacIntel,60.0024001,1,2,8,,,,,,,,5,16,,,,,,,,,,,,,5,1.189,1,,,,,,-0.365512153,-0.409461806,1,0,0,1.1887,Obsidian_rect,7,0,7,0,1,
60fd8f5cb18c520d817c21be,SCR,2024-06-25_14h22.43.723,LearnStrategy,2023.2.3,MacIntel,60.0024001,1,2,9,,,,,,,,2,09,,,,,,,,,,,,,4,6.607,0,,,,,,0.414149306,-0.253272569,1,0,0,6.6067,Gabbro_rect,8,0,8,0,1,
60fd8f5cb18c520d817c21be,SCR,2024-06-25_14h22.43.723,LearnStrategy,2023.2.3,MacIntel,60.0024001,1,2,10,,,,,,,,1,05,,,,,,,,,,,,,3,3.78,0,,,,,,0.152547743,-0.247226562,1,0,0,3.7803,Diorite_rect,9,0,9,0,1,
60fd8f5cb18c520d817c21be,SCR,2024-06-25_14h22.43.723,LearnStrategy,2023.2.3,MacIntel,60.0024001,1,2,11,,,,,,,,8,08,,,,,,,,,,,,,8,2.607,1,,,,,,0.354648438,-0.421666667,1,0,0,2.6071,Pumice_rect,10,0,10,0,1,
60fd8f5cb18c520d817c21be,SCR,2024-06-25_14h22.43.723,LearnStrategy,2023.2.3,MacIntel,60.0024001,1,2,12,,,,,,,,4,11,,,,,,,,,,,,,4,5.964,1,,,,,,0.358181424,-0.268289931,1,0,0,5.9641,Gabbro_rect,11,0,11,0,1,
60fd8f5cb18c520d817c21be,SCR,2024-06-25_14h22.43.723,LearnStrategy,2023.2.3,MacIntel,60.0024001,1,2,13,,,,,,,,2,04,,,,,,,,,,,,,5,1.724,0,,,,,,-0.425915799,-0.405868056,1,0,0,1.724,Obsidian_rect,12,0,12,0,1,
60fd8f5cb18c520d817c21be,SCR,2024-06-25_14h22.43.723,LearnStrategy,2023.2.3,MacIntel,60.0024001,1,2,14,,,,,,,,7,12,,,,,,,,,,,,,7,1.904,1,,,,,,0.09046875,-0.39390191,1,0,0,1.9036,Peridotite_rect,13,0,13,0,1,
60fd8f5cb18c520d817c21be,SCR,2024-06-25_14h22.43.723,LearnStrategy,2023.2.3,MacIntel,60.0024001,1,2,15,,,,,,,,6,07,,,,,,,,,,,,,3,6.811,0,,,,,,0.142417535,-0.246488715,1,0,0,6.8108,Diorite_rect,14,0,14,0,1,
60fd8f5cb18c520d817c21be,SCR,2024-06-25_14h22.43.723,LearnStrategy,2023.2.3,MacIntel,60.0024001,1,2,16,,,,,,,,5,06,,,,,,,,,,,,,5,1.815,1,,,,,,-0.405047743,-0.408346354,1,0,0,1.8145,Obsidian_rect,15,0,15,0,1,
60fd8f5cb18c520d817c21be,SCR,2024-06-25_14h22.43.723,LearnStrategy,2023.2.3,MacIntel,60.0024001,2,1,1,-0.24219184,-0.269357639,1,0,0,1.2872,Gabbro_14,4,14,2,3,1.287,4,14,-0.348606771,-0.238055556,1,0,0,4.6142,Andesite_rect,1,4.614,0,0,0,0,0,1,,,,,,,,,,,,,
60fd8f5cb18c520d817c21be,SCR,2024-06-25_14h22.43.723,LearnStrategy,2023.2.3,MacIntel,60.0024001,2,1,2,0.566553819,0.392552083,1,0,0,2.0288,Andesite_01,1,01,6,8,2.029,1,01,-0.071788194,-0.411631944,1,0,0,6.5839,Pegmatite_rect,6,6.584,0,1,0,1,0,1,,,,,,,,,,,,,
60fd8f5cb18c520d817c21be,SCR,2024-06-25_14h22.43.723,LearnStrategy,2023.2.3,MacIntel,60.0024001,2,1,3,-0.422951389,-0.267855903,1,0,0,1.2178,Obsidian_14,5,14,2,2,1.218,5,14,-0.426909722,-0.409769965,1,0,0,1.894,Obsidian_rect,5,1.894,1,2,0,2,0,1,,,,,,,,,,,,,
60fd8f5cb18c520d817c21be,SCR,2024-06-25_14h22.43.723,LearnStrategy,2023.2.3,MacIntel,60.0024001,2,1,4,0.565716146,0.426414931,1,0,0,1.0778,Andesite_01,1,01,6,8,1.078,1,01,-0.349249132,-0.229513889,1,0,0,2.012,Andesite_rect,1,2.012,1,3,0,3,0,1,,,,,,,,,,,,,
60fd8f5cb18c520d817c21be,SCR,2024-06-25_14h22.43.723,LearnStrategy,2023.2.3,MacIntel,60.0024001,2,1,5,0.089609375,0.383871528,1,0,0,1.1853,Pegmatite_12,6,12,6,5,1.185,6,12,0.154032118,-0.256215278,1,0,0,4.292,Diorite_rect,3,4.292,0,4,0,4,0,1,,,,,,,,,,,,,
60fd8f5cb18c520d817c21be,SCR,2024-06-25_14h22.43.723,LearnStrategy,2023.2.3,MacIntel,60.0024001,2,1,6,0.243763021,-0.421909722,1,0,0,1.618,Pegmatite_15,6,15,1,6,1.618,6,15,0.184652778,-0.418641493,1,0,0,2.0885,Peridotite_rect,7,2.088,0,5,0,5,0,1,,,,,,,,,,,,,
60fd8f5cb18c520d817c21be,SCR,2024-06-25_14h22.43.723,LearnStrategy,2023.2.3,MacIntel,60.0024001,2,1,7,0.224049479,0.232296007,1,0,0,1.1,Basalt_11,2,11,5,6,1.1,2,11,0.393632812,-0.403611111,1,0,0,1.3122,Pumice_rect,8,1.312,0,6,0,6,0,1,,,,,,,,,,,,,
60fd8f5cb18c520d817c21be,SCR,2024-06-25_14h22.43.723,LearnStrategy,2023.2.3,MacIntel,60.0024001,2,1,8,0.597795139,0.412782118,1,0,0,1.08,Andesite_01,1,01,6,8,1.08,1,01,-0.353185764,-0.267773437,1,0,0,7.4998,Andesite_rect,1,7.5,1,7,0,7,0,1,,,,,,,,,,,,,
60fd8f5cb18c520d817c21be,SCR,2024-06-25_14h22.43.723,LearnStrategy,2023.2.3,MacIntel,60.0024001,2,1,9,0.548849826,0.240768229,1,0,0,1.3465,Pegmatite_06,6,06,5,8,1.346,6,06,-0.080221354,-0.400286458,1,0,0,17.8098,Pegmatite_rect,6,17.81,1,8,0,8,0,1,,,,,,,,,,,,,
60fd8f5cb18c520d817c21be,SCR,2024-06-25_14h22.43.723,LearnStrategy,2023.2.3,MacIntel,60.0024001,2,1,10,0.05280816,-0.09484375,1,0,0,0.9885,Basalt_10,2,10,3,5,0.988,2,10,0.379991319,-0.242851563,1,0,0,2.3384,Gabbro_rect,4,2.338,0,9,0,9,0,1,,,,,,,,,,,,,
60fd8f5cb18c520d817c21be,SCR,2024-06-25_14h22.43.723,LearnStrategy,2023.2.3,MacIntel,60.0024001,2,1,11,0.211640625,-0.239921875,1,0,0,1.1445,Diorite_07,3,07,2,6,1.144,3,07,0.146766493,-0.26828559,1,0,0,5.4903,Diorite_rect,3,5.49,1,10,0,10,0,1,,,,,,,,,,,,,
60fd8f5cb18c520d817c21be,SCR,2024-06-25_14h22.43.723,LearnStrategy,2023.2.3,MacIntel,60.0024001,2,1,12,0.219739583,0.22469184,1,0,0,1.219,Basalt_11,2,11,5,6,1.219,2,11,0.36171875,-0.398272569,1,0,0,3.0077,Pumice_rect,8,3.008,0,11,0,11,0,1,,,,,,,,,,,,,
60fd8f5cb18c520d817c21be,SCR,2024-06-25_14h22.43.723,LearnStrategy,2023.2.3,MacIntel,60.0024001,2,1,13,-0.565442708,-0.255789931,1,0,0,1.2455,Peridotite_16,7,16,2,1,1.245,7,16,0.095338542,-0.420412326,1,0,0,2.1048,Peridotite_rect,7,2.105,1,12,0,12,0,1,,,,,,,,,,,,,
60fd8f5cb18c520d817c21be,SCR,2024-06-25_14h22.43.723,LearnStrategy,2023.2.3,MacIntel,60.0024001,2,1,14,-0.36828559,-0.402682292,1,0,0,1.1637,Andesite_04,1,04,1,2,1.164,1,04,-0.382595486,-0.249006076,1,0,0,4.5793,Andesite_rect,1,4.579,1,13,0,13,0,1,,,,,,,,,,,,,
60fd8f5cb18c520d817c21be,SCR,2024-06-25_14h22.43.723,LearnStrategy,2023.2.3,MacIntel,60.0024001,2,1,15,0.522907986,-0.084613715,1,0,0,1.1441,Gabbro_01,4,01,3,8,1.144,4,01,-0.159835069,-0.402317708,1,0,0,6.3506,Pegmatite_rect,6,6.351,0,14,0,14,0,1,,,,,,,,,,,,,
60fd8f5cb18c520d817c21be,SCR,2024-06-25_14h22.43.723,LearnStrategy,2023.2.3,MacIntel,60.0024001,2,1,16,0.105907118,0.451883681,1,0,0,1.4198,Pegmatite_12,6,12,6,5,1.42,6,12,0.141896701,-0.267473958,1,0,0,4.0437,Diorite_rect,3,4.044,0,15,0,15,0,1,,,,,,,,,,,,,
60fd8f5cb18c520d817c21be,SCR,2024-06-25_14h22.43.723,LearnStrategy,2023.2.3,MacIntel,60.0024001,2,2,1,,,,,,,,4,12,,,,,,,,,,,,,2,2.542,0,,,,,,-0.082352431,-0.241006944,1,0,0,2.5417,Basalt_rect,0,0,0,0,1,
60fd8f5cb18c520d817c21be,SCR,2024-06-25_14h22.43.723,LearnStrategy,2023.2.3,MacIntel,60.0024001,2,2,2,,,,,,,,8,10,,,,,,,,,,,,,8,1.495,1,,,,,,0.373012153,-0.417274306,1,0,0,1.4948,Pumice_rect,1,0,1,0,1,
60fd8f5cb18c520d817c21be,SCR,2024-06-25_14h22.43.723,LearnStrategy,2023.2.3,MacIntel,60.0024001,2,2,3,,,,,,,,6,03,,,,,,,,,,,,,7,2.038,0,,,,,,0.189947917,-0.415112847,1,0,0,2.0376,Peridotite_rect,2,0,2,0,1,
60fd8f5cb18c520d817c21be,SCR,2024-06-25_14h22.43.723,LearnStrategy,2023.2.3,MacIntel,60.0024001,2,2,4,,,,,,,,3,11,,,,,,,,,,,,,6,8.974,0,,,,,,-0.068259549,-0.410577257,1,0,0,8.9736,Pegmatite_rect,3,0,3,0,1,
60fd8f5cb18c520d817c21be,SCR,2024-06-25_14h22.43.723,LearnStrategy,2023.2.3,MacIntel,60.0024001,2,2,5,,,,,,,,1,10,,,,,,,,,,,,,2,3.078,0,,,,,,-0.091888021,-0.2453125,1,0,0,3.0783,Basalt_rect,4,0,4,0,1,
60fd8f5cb18c520d817c21be,SCR,2024-06-25_14h22.43.723,LearnStrategy,2023.2.3,MacIntel,60.0024001,2,2,6,,,,,,,,2,16,,,,,,,,,,,,,2,2.125,1,,,,,,-0.093580729,-0.249023438,1,0,0,2.1251,Basalt_rect,5,0,5,0,1,
60fd8f5cb18c520d817c21be,SCR,2024-06-25_14h22.43.723,LearnStrategy,2023.2.3,MacIntel,60.0024001,2,2,7,,,,,,,,2,05,,,,,,,,,,,,,5,2.505,0,,,,,,-0.324830729,-0.394513889,1,0,0,2.5047,Obsidian_rect,6,0,6,0,1,
60fd8f5cb18c520d817c21be,SCR,2024-06-25_14h22.43.723,LearnStrategy,2023.2.3,MacIntel,60.0024001,2,2,8,,,,,,,,7,13,,,,,,,,,,,,,7,1.462,1,,,,,,0.141987847,-0.382291667,1,0,0,1.4622,Peridotite_rect,7,0,7,0,1,
60fd8f5cb18c520d817c21be,SCR,2024-06-25_14h22.43.723,LearnStrategy,2023.2.3,MacIntel,60.0024001,2,2,9,,,,,,,,4,05,,,,,,,,,,,,,2,12.391,0,,,,,,-0.088984375,-0.248246528,1,0,0,12.3908,Basalt_rect,8,0,8,0,1,
60fd8f5cb18c520d817c21be,SCR,2024-06-25_14h22.43.723,LearnStrategy,2023.2.3,MacIntel,60.0024001,2,2,10,,,,,,,,3,15,,,,,,,,,,,,,1,5.543,0,,,,,,-0.423407118,-0.238758681,1,0,0,5.5433,Andesite_rect,9,0,9,0,1,
60fd8f5cb18c520d817c21be,SCR,2024-06-25_14h22.43.723,LearnStrategy,2023.2.3,MacIntel,60.0024001,2,2,11,,,,,,,,5,10,,,,,,,,,,,,,5,1.425,1,,,,,,-0.427144097,-0.396037326,1,0,0,1.4251,Obsidian_rect,10,0,10,0,1,
60fd8f5cb18c520d817c21be,SCR,2024-06-25_14h22.43.723,LearnStrategy,2023.2.3,MacIntel,60.0024001,2,2,12,,,,,,,,6,05,,,,,,,,,,,,,6,2.088,1,,,,,,-0.15202691,-0.417074653,1,0,0,2.0884,Pegmatite_rect,11,0,11,0,1,
60fd8f5cb18c520d817c21be,SCR,2024-06-25_14h22.43.723,LearnStrategy,2023.2.3,MacIntel,60.0024001,2,2,13,,,,,,,,7,07,,,,,,,,,,,,,7,1.828,1,,,,,,0.102925347,-0.416848958,1,0,0,1.8283,Peridotite_rect,12,0,12,0,1,
60fd8f5cb18c520d817c21be,SCR,2024-06-25_14h22.43.723,LearnStrategy,2023.2.3,MacIntel,60.0024001,2,2,14,,,,,,,,8,15,,,,,,,,,,,,,8,2.06,1,,,,,,0.375603299,-0.405542535,1,0,0,2.06,Pumice_rect,13,0,13,0,1,
60fd8f5cb18c520d817c21be,SCR,2024-06-25_14h22.43.723,LearnStrategy,2023.2.3,MacIntel,60.0024001,2,2,15,,,,,,,,5,02,,,,,,,,,,,,,5,1.357,1,,,,,,-0.392664931,-0.386501736,1,0,0,1.3566,Obsidian_rect,14,0,14,0,1,
60fd8f5cb18c520d817c21be,SCR,2024-06-25_14h22.43.723,LearnStrategy,2023.2.3,MacIntel,60.0024001,2,2,16,,,,,,,,1,06,,,,,,,,,,,,,4,5.293,0,,,,,,0.37594184,-0.241909722,1,0,0,5.2931,Gabbro_rect,15,0,15,0,1,
60fd8f5cb18c520d817c21be,SCR,2024-06-25_14h22.43.723,LearnStrategy,2023.2.3,MacIntel,60.0024001,3,1,1,-0.209079861,-0.237061632,1,0,0,1.5071,Gabbro_14,4,14,2,3,1.507,4,14,0.386276042,-0.2509375,1,0,0,4.1933,Gabbro_rect,4,4.193,1,0,0,0,0,1,,,,,,,,,,,,,
60fd8f5cb18c520d817c21be,SCR,2024-06-25_14h22.43.723,LearnStrategy,2023.2.3,MacIntel,60.0024001,3,1,2,0.050434028,0.070742187,1,0,0,0.7236,Basalt_14,2,14,4,5,0.724,2,14,-0.154292535,-0.250086806,1,0,0,3.9912,Basalt_rect,2,3.991,1,1,0,1,0,1,,,,,,,,,,,,,
60fd8f5cb18c520d817c21be,SCR,2024-06-25_14h22.43.723,LearnStrategy,2023.2.3,MacIntel,60.0024001,3,1,3,0.41015625,0.405039062,1,0,0,1.3521,Diorite_12,3,12,6,7,1.352,3,12,0.108624132,-0.243038194,1,0,0,2.4594,Diorite_rect,3,2.459,1,2,0,2,0,1,,,,,,,,,,,,,
60fd8f5cb18c520d817c21be,SCR,2024-06-25_14h22.43.723,LearnStrategy,2023.2.3,MacIntel,60.0024001,3,1,4,-0.351067708,0.058224826,1,0,0,0.9878,Obsidian_07,5,07,4,2,0.988,5,07,-0.377452257,-0.392530382,1,0,0,2.0424,Obsidian_rect,5,2.042,1,3,0,3,0,1,,,,,,,,,,,,,
60fd8f5cb18c520d817c21be,SCR,2024-06-25_14h22.43.723,LearnStrategy,2023.2.3,MacIntel,60.0024001,3,1,5,0.251692708,0.419865451,1,0,0,0.9524,Pegmatite_08,6,08,6,6,0.952,6,08,-0.12312934,-0.404296875,1,0,0,2.1099,Pegmatite_rect,6,2.11,1,4,0,4,0,1,,,,,,,,,,,,,
60fd8f5cb18c520d817c21be,SCR,2024-06-25_14h22.43.723,LearnStrategy,2023.2.3,MacIntel,60.0024001,3,1,6,-0.048012153,0.082269965,1,0,0,0.8353,Diorite_02,3,02,4,4,0.835,3,02,0.093363715,-0.242439236,1,0,0,1.6119,Diorite_rect,3,1.612,1,5,0,5,0,1,,,,,,,,,,,,,
60fd8f5cb18c520d817c21be,SCR,2024-06-25_14h22.43.723,LearnStrategy,2023.2.3,MacIntel,60.0024001,3,1,7,-0.410125868,0.425208333,1,0,0,0.884,Gabbro_08,4,08,6,2,0.884,4,08,-0.068229167,-0.230750868,1,0,0,2.6562,Basalt_rect,2,2.656,0,6,0,6,0,1,,,,,,,,,,,,,
60fd8f5cb18c520d817c21be,SCR,2024-06-25_14h22.43.723,LearnStrategy,2023.2.3,MacIntel,60.0024001,3,1,8,-0.52937934,-0.45343316,1,0,0,1.2107,Andesite_09,1,09,1,1,1.211,1,09,-0.161393229,-0.244648438,1,0,0,5.33,Basalt_rect,2,5.33,0,7,0,7,0,1,,,,,,,,,,,,,
60fd8f5cb18c520d817c21be,SCR,2024-06-25_14h22.43.723,LearnStrategy,2023.2.3,MacIntel,60.0024001,3,1,9,-0.398511285,-0.416783854,1,0,0,1.0383,Andesite_04,1,04,1,2,1.038,1,04,-0.375737847,-0.25718316,1,0,0,1.0561,Andesite_rect,1,1.056,1,8,0,8,0,1,,,,,,,,,,,,,
60fd8f5cb18c520d817c21be,SCR,2024-06-25_14h22.43.723,LearnStrategy,2023.2.3,MacIntel,60.0024001,3,1,10,0.100182292,0.426480035,1,0,0,1.515,Pegmatite_12,6,12,6,5,1.515,6,12,-0.103697917,-0.409283854,1,0,0,1.2523,Pegmatite_rect,6,1.252,1,9,0,9,0,1,,,,,,,,,,,,,
60fd8f5cb18c520d817c21be,SCR,2024-06-25_14h22.43.723,LearnStrategy,2023.2.3,MacIntel,60.0024001,3,1,11,0.094874132,-0.26250434,1,0,0,1.1006,Peridotite_04,7,04,2,5,1.101,7,04,-0.067052951,-0.397478299,1,0,0,2.8597,Pegmatite_rect,6,2.86,0,10,0,10,0,1,,,,,,,,,,,,,
60fd8f5cb18c520d817c21be,SCR,2024-06-25_14h22.43.723,LearnStrategy,2023.2.3,MacIntel,60.0024001,3,1,12,0.225746528,0.367482639,1,0,0,1.0342,Pegmatite_08,6,08,6,6,1.034,6,08,-0.138177083,-0.402725694,1,0,0,1.5283,Pegmatite_rect,6,1.528,1,11,0,11,0,1,,,,,,,,,,,,,
60fd8f5cb18c520d817c21be,SCR,2024-06-25_14h22.43.723,LearnStrategy,2023.2.3,MacIntel,60.0024001,3,1,13,0.048611111,-0.102999132,1,0,0,1.8056,Basalt_10,2,10,3,5,1.806,2,10,-0.078051215,-0.238975694,1,0,0,2.1258,Basalt_rect,2,2.126,1,12,0,12,0,1,,,,,,,,,,,,,
60fd8f5cb18c520d817c21be,SCR,2024-06-25_14h22.43.723,LearnStrategy,2023.2.3,MacIntel,60.0024001,3,1,14,-0.24891059,-0.273880208,1,0,0,1.2828,Gabbro_14,4,14,2,3,1.283,4,08,0.347196181,-0.259908854,1,0,0,2.2796,Gabbro_rect,4,2.28,1,13,0,13,0,1,,,,,,,,,,,,,
60fd8f5cb18c520d817c21be,SCR,2024-06-25_14h22.43.723,LearnStrategy,2023.2.3,MacIntel,60.0024001,3,1,15,-0.057751736,-0.113224826,1,0,0,0.8174,Basalt_02,2,02,3,4,0.817,2,02,-0.062460938,-0.230364583,1,0,0,3.9605,Basalt_rect,2,3.961,1,14,0,14,0,1,,,,,,,,,,,,,
60fd8f5cb18c520d817c21be,SCR,2024-06-25_14h22.43.723,LearnStrategy,2023.2.3,MacIntel,60.0024001,3,1,16,0.532795139,-0.262278646,1,0,0,1.1561,Andesite_02,1,02,2,8,1.156,1,02,-0.33328125,-0.264605035,1,0,0,8.245,Andesite_rect,1,8.245,1,15,0,15,0,1,,,,,,,,,,,,,
60fd8f5cb18c520d817c21be,SCR,2024-06-25_14h22.43.723,LearnStrategy,2023.2.3,MacIntel,60.0024001,3,2,1,,,,,,,,1,03,,,,,,,,,,,,,4,9.724,0,,,,,,0.445998264,-0.249448785,1,0,0,9.7237,Gabbro_rect,0,0,0,0,1,
60fd8f5cb18c520d817c21be,SCR,2024-06-25_14h22.43.723,LearnStrategy,2023.2.3,MacIntel,60.0024001,3,2,2,,,,,,,,6,16,,,,,,,,,,,,,6,3.329,1,,,,,,-0.103229167,-0.386614583,1,0,0,3.3287,Pegmatite_rect,1,0,1,0,1,
60fd8f5cb18c520d817c21be,SCR,2024-06-25_14h22.43.723,LearnStrategy,2023.2.3,MacIntel,60.0024001,3,2,3,,,,,,,,5,12,,,,,,,,,,,,,5,2.008,1,,,,,,-0.42094184,-0.382855903,1,0,0,2.0077,Obsidian_rect,2,0,2,0,1,
60fd8f5cb18c520d817c21be,SCR,2024-06-25_14h22.43.723,LearnStrategy,2023.2.3,MacIntel,60.0024001,3,2,4,,,,,,,,2,08,,,,,,,,,,,,,2,2.509,1,,,,,,-0.098263889,-0.250451389,1,0,0,2.5087,Basalt_rect,3,0,3,0,1,
60fd8f5cb18c520d817c21be,SCR,2024-06-25_14h22.43.723,LearnStrategy,2023.2.3,MacIntel,60.0024001,3,2,5,,,,,,,,2,12,,,,,,,,,,,,,4,7.291,0,,,,,,0.353007813,-0.249657118,1,0,0,7.2914,Gabbro_rect,4,0,4,0,1,
60fd8f5cb18c520d817c21be,SCR,2024-06-25_14h22.43.723,LearnStrategy,2023.2.3,MacIntel,60.0024001,3,2,6,,,,,,,,4,15,,,,,,,,,,,,,1,7.68,0,,,,,,-0.360273438,-0.246688368,1,0,0,7.6804,Andesite_rect,5,0,5,0,1,
60fd8f5cb18c520d817c21be,SCR,2024-06-25_14h22.43.723,LearnStrategy,2023.2.3,MacIntel,60.0024001,3,2,7,,,,,,,,8,04,,,,,,,,,,,,,8,1.491,1,,,,,,0.402443576,-0.419227431,1,0,0,1.4914,Pumice_rect,6,0,6,0,1,
60fd8f5cb18c520d817c21be,SCR,2024-06-25_14h22.43.723,LearnStrategy,2023.2.3,MacIntel,60.0024001,3,2,8,,,,,,,,3,10,,,,,,,,,,,,,1,5.046,0,,,,,,-0.417708333,-0.252291667,1,0,0,5.0461,Andesite_rect,7,0,7,0,1,
60fd8f5cb18c520d817c21be,SCR,2024-06-25_14h22.43.723,LearnStrategy,2023.2.3,MacIntel,60.0024001,3,2,9,,,,,,,,1,11,,,,,,,,,,,,,4,4.726,0,,,,,,0.349952257,-0.239401042,1,0,0,4.726,Gabbro_rect,8,0,8,0,1,
60fd8f5cb18c520d817c21be,SCR,2024-06-25_14h22.43.723,LearnStrategy,2023.2.3,MacIntel,60.0024001,3,2,10,,,,,,,,6,11,,,,,,,,,,,,,5,2.61,0,,,,,,-0.468880208,-0.415112847,1,0,0,2.6098,Obsidian_rect,9,0,9,0,1,
60fd8f5cb18c520d817c21be,SCR,2024-06-25_14h22.43.723,LearnStrategy,2023.2.3,MacIntel,60.0024001,3,2,11,,,,,,,,5,05,,,,,,,,,,,,,5,1.191,1,,,,,,-0.466705729,-0.417039931,1,0,0,1.1911,Obsidian_rect,10,0,10,0,1,
60fd8f5cb18c520d817c21be,SCR,2024-06-25_14h22.43.723,LearnStrategy,2023.2.3,MacIntel,60.0024001,3,2,12,,,,,,,,4,16,,,,,,,,,,,,,2,2.006,0,,,,,,-0.146393229,-0.251861979,1,0,0,2.0056,Basalt_rect,11,0,11,0,1,
60fd8f5cb18c520d817c21be,SCR,2024-06-25_14h22.43.723,LearnStrategy,2023.2.3,MacIntel,60.0024001,3,2,13,,,,,,,,3,14,,,,,,,,,,,,,3,3.564,1,,,,,,0.10546875,-0.253845486,1,0,0,3.5639,Diorite_rect,12,0,12,0,1,
60fd8f5cb18c520d817c21be,SCR,2024-06-25_14h22.43.723,LearnStrategy,2023.2.3,MacIntel,60.0024001,3,2,14,,,,,,,,8,14,,,,,,,,,,,,,8,1.326,1,,,,,,0.435021701,-0.411124132,1,0,0,1.3262,Pumice_rect,13,0,13,0,1,
60fd8f5cb18c520d817c21be,SCR,2024-06-25_14h22.43.723,LearnStrategy,2023.2.3,MacIntel,60.0024001,3,2,15,,,,,,,,7,02,,,,,,,,,,,,,7,1.124,1,,,,,,0.179735243,-0.403046875,1,0,0,1.124,Peridotite_rect,14,0,14,0,1,
60fd8f5cb18c520d817c21be,SCR,2024-06-25_14h22.43.723,LearnStrategy,2023.2.3,MacIntel,60.0024001,3,2,16,,,,,,,,7,05,,,,,,,,,,,,,7,0.857,1,,,,,,0.180203993,-0.403046875,1,0,0,0.8574,Peridotite_rect,15,0,15,0,1,
60fd8f5cb18c520d817c21be,SCR,2024-06-25_14h22.43.723,LearnStrategy,2023.2.3,MacIntel,60.0024001,4,1,1,0.536497396,-0.108450521,1,0,0,1.0882,Gabbro_01,4,01,3,8,1.088,4,01,-0.376861979,-0.270946181,1,0,0,5.5284,Andesite_rect,1,5.528,0,0,0,0,0,1,,,,,,,,,,,,,
60fd8f5cb18c520d817c21be,SCR,2024-06-25_14h22.43.723,LearnStrategy,2023.2.3,MacIntel,60.0024001,4,1,2,0.257170139,0.463624132,1,0,0,0.9673,Pegmatite_08,6,08,6,6,0.967,6,08,-0.169409722,-0.392539062,1,0,0,1.0104,Pegmatite_rect,6,1.01,1,1,0,1,0,1,,,,,,,,,,,,,
60fd8f5cb18c520d817c21be,SCR,2024-06-25_14h22.43.723,LearnStrategy,2023.2.3,MacIntel,60.0024001,4,1,3,-0.044969618,0.227842882,1,0,0,0.6435,Diorite_08,3,08,5,4,0.644,3,08,0.107738715,-0.229496528,1,0,0,1.6202,Diorite_rect,3,1.62,1,2,0,2,0,1,,,,,,,,,,,,,
60fd8f5cb18c520d817c21be,SCR,2024-06-25_14h22.43.723,LearnStrategy,2023.2.3,MacIntel,60.0024001,4,1,4,-0.518450521,0.427157118,1,0,0,1.0674,Andesite_14,1,14,6,1,1.067,1,14,-0.398155382,-0.229722222,1,0,0,1.6426,Andesite_rect,1,1.643,1,3,0,3,0,1,,,,,,,,,,,,,
60fd8f5cb18c520d817c21be,SCR,2024-06-25_14h22.43.723,LearnStrategy,2023.2.3,MacIntel,60.0024001,4,1,5,0.435750868,0.244001736,1,0,0,1.1644,Gabbro_13,4,13,5,7,1.164,4,13,0.42891059,-0.24297309,1,0,0,2.6982,Gabbro_rect,4,2.698,1,4,0,4,0,1,,,,,,,,,,,,,
60fd8f5cb18c520d817c21be,SCR,2024-06-25_14h22.43.723,LearnStrategy,2023.2.3,MacIntel,60.0024001,4,1,6,0.400217014,-0.285672743,1,0,0,1.1713,Andesite_16,1,16,2,7,1.171,1,16,-0.397682292,-0.254939236,1,0,0,3.8786,Andesite_rect,1,3.879,1,5,0,5,0,1,,,,,,,,,,,,,
60fd8f5cb18c520d817c21be,SCR,2024-06-25_14h22.43.723,LearnStrategy,2023.2.3,MacIntel,60.0024001,4,1,7,0.220698785,0.232782118,1,0,0,1.2046,Basalt_11,2,11,5,6,1.205,2,11,-0.126197917,-0.240073785,1,0,0,3.0547,Basalt_rect,2,3.055,1,6,0,6,0,1,,,,,,,,,,,,,
60fd8f5cb18c520d817c21be,SCR,2024-06-25_14h22.43.723,LearnStrategy,2023.2.3,MacIntel,60.0024001,4,1,8,0.071293403,-0.101458333,1,0,0,0.8154,Basalt_10,2,10,3,5,0.815,2,10,-0.097135417,-0.250412326,1,0,0,2.7761,Basalt_rect,2,2.776,1,7,0,7,0,1,,,,,,,,,,,,,
60fd8f5cb18c520d817c21be,SCR,2024-06-25_14h22.43.723,LearnStrategy,2023.2.3,MacIntel,60.0024001,4,1,9,-0.372265625,0.384262153,1,0,0,1.5342,Gabbro_08,4,08,6,2,1.534,4,08,0.34531684,-0.240381944,1,0,0,2.2467,Gabbro_rect,4,2.247,1,8,0,8,0,1,,,,,,,,,,,,,
60fd8f5cb18c520d817c21be,SCR,2024-06-25_14h22.43.723,LearnStrategy,2023.2.3,MacIntel,60.0024001,4,1,10,0.035212674,0.085907118,1,0,0,0.7925,Basalt_14,2,14,4,5,0.793,2,14,0.406831597,-0.261805556,1,0,0,1.6052,Gabbro_rect,4,1.605,0,9,0,9,0,1,,,,,,,,,,,,,
60fd8f5cb18c520d817c21be,SCR,2024-06-25_14h22.43.723,LearnStrategy,2023.2.3,MacIntel,60.0024001,4,1,11,0.086423611,0.435555556,1,0,0,1.0656,Pegmatite_12,6,12,6,5,1.066,6,12,-0.147178819,-0.410190972,1,0,0,1.0169,Pegmatite_rect,6,1.017,1,10,0,10,0,1,,,,,,,,,,,,,
60fd8f5cb18c520d817c21be,SCR,2024-06-25_14h22.43.723,LearnStrategy,2023.2.3,MacIntel,60.0024001,4,1,12,0.372925347,-0.129118924,1,0,0,1.1836,Obsidian_04,5,04,3,7,1.184,5,04,-0.474635417,-0.39327691,1,0,0,0.8752,Obsidian_rect,5,0.875,1,11,0,11,0,1,,,,,,,,,,,,,
60fd8f5cb18c520d817c21be,SCR,2024-06-25_14h22.43.723,LearnStrategy,2023.2.3,MacIntel,60.0024001,4,1,13,-0.394500868,0.424913194,1,0,0,1.0399,Gabbro_08,4,08,6,2,1.04,4,08,0.36375,-0.248398438,1,0,0,3.8923,Gabbro_rect,4,3.892,1,12,0,12,0,1,,,,,,,,,,,,,
60fd8f5cb18c520d817c21be,SCR,2024-06-25_14h22.43.723,LearnStrategy,2023.2.3,MacIntel,60.0024001,4,1,14,0.426440972,-0.261132812,1,0,0,1.1738,Andesite_16,1,16,2,7,1.174,1,16,-0.420147569,-0.252230903,1,0,0,1.9641,Andesite_rect,1,1.964,1,13,0,13,0,1,,,,,,,,,,,,,
60fd8f5cb18c520d817c21be,SCR,2024-06-25_14h22.43.723,LearnStrategy,2023.2.3,MacIntel,60.0024001,4,1,15,0.51718316,-0.251987847,1,0,0,1.3747,Andesite_02,1,02,2,8,1.375,1,02,-0.332743056,-0.235855035,1,0,0,2.7695,Andesite_rect,1,2.769,1,14,0,14,0,1,,,,,,,,,,,,,
60fd8f5cb18c520d817c21be,SCR,2024-06-25_14h22.43.723,LearnStrategy,2023.2.3,MacIntel,60.0024001,4,1,16,-0.034192708,0.067039931,1,0,0,0.9057,Diorite_02,3,02,4,4,0.906,3,02,0.146132812,-0.260442708,1,0,0,1.2211,Diorite_rect,3,1.221,1,15,0,15,0,1,,,,,,,,,,,,,
60fd8f5cb18c520d817c21be,SCR,2024-06-25_14h22.43.723,LearnStrategy,2023.2.3,MacIntel,60.0024001,4,2,1,,,,,,,,6,07,,,,,,,,,,,,,7,6.014,0,,,,,,0.117669271,-0.390360243,1,0,0,6.0145,Peridotite_rect,0,0,0,0,1,
60fd8f5cb18c520d817c21be,SCR,2024-06-25_14h22.43.723,LearnStrategy,2023.2.3,MacIntel,60.0024001,4,2,2,,,,,,,,7,07,,,,,,,,,,,,,7,1.194,1,,,,,,0.118498264,-0.391189236,1,0,0,1.194,Peridotite_rect,1,0,1,0,1,
60fd8f5cb18c520d817c21be,SCR,2024-06-25_14h22.43.723,LearnStrategy,2023.2.3,MacIntel,60.0024001,4,2,3,,,,,,,,2,09,,,,,,,,,,,,,2,3.652,1,,,,,,-0.059361979,-0.243823785,1,0,0,3.6518,Basalt_rect,2,0,2,0,1,
60fd8f5cb18c520d817c21be,SCR,2024-06-25_14h22.43.723,LearnStrategy,2023.2.3,MacIntel,60.0024001,4,2,4,,,,,,,,3,15,,,,,,,,,,,,,3,2.276,1,,,,,,0.185755208,-0.244045139,1,0,0,2.2764,Diorite_rect,3,0,3,0,1,
60fd8f5cb18c520d817c21be,SCR,2024-06-25_14h22.43.723,LearnStrategy,2023.2.3,MacIntel,60.0024001,4,2,5,,,,,,,,4,15,,,,,,,,,,,,,4,2.764,1,,,,,,0.387899306,-0.270173611,1,0,0,2.7645,Gabbro_rect,4,0,4,0,1,
60fd8f5cb18c520d817c21be,SCR,2024-06-25_14h22.43.723,LearnStrategy,2023.2.3,MacIntel,60.0024001,4,2,6,,,,,,,,8,06,,,,,,,,,,,,,8,1.209,1,,,,,,0.375169271,-0.407847222,1,0,0,1.2095,Pumice_rect,5,0,5,0,1,
60fd8f5cb18c520d817c21be,SCR,2024-06-25_14h22.43.723,LearnStrategy,2023.2.3,MacIntel,60.0024001,4,2,7,,,,,,,,8,04,,,,,,,,,,,,,8,1.146,1,,,,,,0.375403646,-0.40578559,1,0,0,1.1463,Pumice_rect,6,0,6,0,1,
60fd8f5cb18c520d817c21be,SCR,2024-06-25_14h22.43.723,LearnStrategy,2023.2.3,MacIntel,60.0024001,4,2,8,,,,,,,,1,06,,,,,,,,,,,,,4,15.552,0,,,,,,0.384756944,-0.230924479,1,0,0,15.5522,Gabbro_rect,7,0,7,0,1,
60fd8f5cb18c520d817c21be,SCR,2024-06-25_14h22.43.723,LearnStrategy,2023.2.3,MacIntel,60.0024001,4,2,9,,,,,,,,6,16,,,,,,,,,,,,,6,2.523,1,,,,,,-0.138311632,-0.415750868,1,0,0,2.523,Pegmatite_rect,8,0,8,0,1,
60fd8f5cb18c520d817c21be,SCR,2024-06-25_14h22.43.723,LearnStrategy,2023.2.3,MacIntel,60.0024001,4,2,10,,,,,,,,5,05,,,,,,,,,,,,,5,1.39,1,,,,,,-0.396614583,-0.381423611,1,0,0,1.39,Obsidian_rect,9,0,9,0,1,
60fd8f5cb18c520d817c21be,SCR,2024-06-25_14h22.43.723,LearnStrategy,2023.2.3,MacIntel,60.0024001,4,2,11,,,,,,,,2,05,,,,,,,,,,,,,2,1.545,1,,,,,,-0.130894097,-0.239869792,1,0,0,1.5449,Basalt_rect,10,0,10,0,1,
60fd8f5cb18c520d817c21be,SCR,2024-06-25_14h22.43.723,LearnStrategy,2023.2.3,MacIntel,60.0024001,4,2,12,,,,,,,,1,11,,,,,,,,,,,,,4,5.178,0,,,,,,0.394006076,-0.228650174,1,0,0,5.1776,Gabbro_rect,11,0,11,0,1,
60fd8f5cb18c520d817c21be,SCR,2024-06-25_14h22.43.723,LearnStrategy,2023.2.3,MacIntel,60.0024001,4,2,13,,,,,,,,5,16,,,,,,,,,,,,,5,1.309,1,,,,,,-0.346171875,-0.386762153,1,0,0,1.3087,Obsidian_rect,12,0,12,0,1,
60fd8f5cb18c520d817c21be,SCR,2024-06-25_14h22.43.723,LearnStrategy,2023.2.3,MacIntel,60.0024001,4,2,14,,,,,,,,3,10,,,,,,,,,,,,,1,4.225,0,,,,,,-0.351432292,-0.248624132,1,0,0,4.2248,Andesite_rect,13,0,13,0,1,
60fd8f5cb18c520d817c21be,SCR,2024-06-25_14h22.43.723,LearnStrategy,2023.2.3,MacIntel,60.0024001,4,2,15,,,,,,,,4,10,,,,,,,,,,,,,4,4.197,1,,,,,,0.417447917,-0.257152778,1,0,0,4.1966,Gabbro_rect,14,0,14,0,1,
60fd8f5cb18c520d817c21be,SCR,2024-06-25_14h22.43.723,LearnStrategy,2023.2.3,MacIntel,60.0024001,4,2,16,,,,,,,,7,06,,,,,,,,,,,,,7,1.024,1,,,,,,0.140959201,-0.398637153,1,0,0,1.0244,Peridotite_rect,15,0,15,0,1,
60fd8f5cb18c520d817c21be,SCR,2024-06-25_14h22.43.723,LearnStrategy,2023.2.3,MacIntel,60.0024001,5,1,1,-0.055347222,-0.065872396,1,0,0,0.8445,Basalt_02,2,02,3,4,0.844,2,02,-0.128559028,-0.238554688,1,0,0,1.8401,Basalt_rect,2,1.84,1,0,0,0,0,1,,,,,,,,,,,,,
60fd8f5cb18c520d817c21be,SCR,2024-06-25_14h22.43.723,LearnStrategy,2023.2.3,MacIntel,60.0024001,5,1,2,-0.425125868,-0.099331597,1,0,0,0.7119,Obsidian_09,5,09,3,2,0.712,5,09,-0.431336806,-0.390390625,1,0,0,0.7205,Obsidian_rect,5,0.721,1,1,0,1,0,1,,,,,,,,,,,,,
60fd8f5cb18c520d817c21be,SCR,2024-06-25_14h22.43.723,LearnStrategy,2023.2.3,MacIntel,60.0024001,5,1,3,-0.560555556,0.450625,1,0,0,0.8881,Andesite_14,1,14,6,1,0.888,1,14,-0.420859375,-0.243307292,1,0,0,2.1111,Andesite_rect,1,2.111,1,2,0,2,0,1,,,,,,,,,,,,,
60fd8f5cb18c520d817c21be,SCR,2024-06-25_14h22.43.723,LearnStrategy,2023.2.3,MacIntel,60.0024001,5,1,4,-0.564409722,-0.463641493,1,0,0,0.8079,Andesite_09,1,09,1,1,0.808,4,14,-0.110585937,-0.237456597,1,0,0,2.9357,Basalt_rect,2,2.936,0,3,0,3,0,1,,,,,,,,,,,,,
60fd8f5cb18c520d817c21be,SCR,2024-06-25_14h22.43.723,LearnStrategy,2023.2.3,MacIntel,60.0024001,5,1,5,0.543454861,0.232877604,1,0,0,1.0412,Pegmatite_06,6,06,5,8,1.041,6,06,-0.13187934,-0.392361111,1,0,0,1.4382,Pegmatite_rect,6,1.438,1,4,0,4,0,1,,,,,,,,,,,,,
60fd8f5cb18c520d817c21be,SCR,2024-06-25_14h22.43.723,LearnStrategy,2023.2.3,MacIntel,60.0024001,5,1,6,0.527165799,-0.126189236,1,0,0,1.56,Gabbro_01,4,01,3,8,1.56,4,01,0.44406684,-0.246597222,1,0,0,2.0536,Gabbro_rect,4,2.054,1,5,0,5,0,1,,,,,,,,,,,,,
60fd8f5cb18c520d817c21be,SCR,2024-06-25_14h22.43.723,LearnStrategy,2023.2.3,MacIntel,60.0024001,5,1,7,0.445503472,-0.27203125,1,0,0,0.7493,Andesite_16,1,16,2,7,0.749,1,16,-0.3515625,-0.245646701,1,0,0,2.63,Andesite_rect,1,2.63,1,6,0,6,0,1,,,,,,,,,,,,,
60fd8f5cb18c520d817c21be,SCR,2024-06-25_14h22.43.723,LearnStrategy,2023.2.3,MacIntel,60.0024001,5,1,8,0.56484809,-0.245164931,1,0,0,1.0139,Andesite_02,1,02,2,8,1.014,1,02,-0.394752604,-0.26390191,1,0,0,2.4013,Andesite_rect,1,2.401,1,7,0,7,0,1,,,,,,,,,,,,,
60fd8f5cb18c520d817c21be,SCR,2024-06-25_14h22.43.723,LearnStrategy,2023.2.3,MacIntel,60.0024001,5,1,9,0.072222222,-0.250455729,1,0,0,0.8778,Peridotite_04,7,04,2,5,0.878,7,04,0.094123264,-0.400282118,1,0,0,1.2345,Peridotite_rect,7,1.235,1,8,0,8,0,1,,,,,,,,,,,,,
60fd8f5cb18c520d817c21be,SCR,2024-06-25_14h22.43.723,LearnStrategy,2023.2.3,MacIntel,60.0024001,5,1,10,0.527526042,0.22641059,1,0,0,1.5475,Pegmatite_06,6,06,5,8,1.548,6,06,-0.128962674,-0.417673611,1,0,0,1.1949,Pegmatite_rect,6,1.195,1,9,0,9,0,1,,,,,,,,,,,,,
60fd8f5cb18c520d817c21be,SCR,2024-06-25_14h22.43.723,LearnStrategy,2023.2.3,MacIntel,60.0024001,5,1,11,0.079405382,0.408346354,1,0,0,0.9527,Pegmatite_12,6,12,6,5,0.953,6,12,-0.112430556,-0.391419271,1,0,0,0.9771,Pegmatite_rect,6,0.977,1,10,0,10,0,1,,,,,,,,,,,,,
60fd8f5cb18c520d817c21be,SCR,2024-06-25_14h22.43.723,LearnStrategy,2023.2.3,MacIntel,60.0024001,5,1,12,0.386289063,0.441289062,1,0,0,0.9419,Diorite_12,3,12,6,7,0.942,3,12,-0.396414931,-0.248658854,1,0,0,1.1407,Andesite_rect,1,1.141,0,11,0,11,0,1,,,,,,,,,,,,,
60fd8f5cb18c520d817c21be,SCR,2024-06-25_14h22.43.723,LearnStrategy,2023.2.3,MacIntel,60.0024001,5,1,13,0.388081597,0.410598958,1,0,0,0.9126,Diorite_12,3,12,6,7,0.913,3,12,0.126853299,-0.241987847,1,0,0,0.9221,Diorite_rect,3,0.922,1,12,0,12,0,1,,,,,,,,,,,,,
60fd8f5cb18c520d817c21be,SCR,2024-06-25_14h22.43.723,LearnStrategy,2023.2.3,MacIntel,60.0024001,5,1,14,-0.056111111,-0.120872396,1,0,0,0.7041,Basalt_02,2,02,3,4,0.704,2,02,-0.10047309,-0.228628472,1,0,0,2.2932,Basalt_rect,2,2.293,1,13,0,13,0,1,,,,,,,,,,,,,
60fd8f5cb18c520d817c21be,SCR,2024-06-25_14h22.43.723,LearnStrategy,2023.2.3,MacIntel,60.0024001,5,1,15,0.540664062,-0.100546875,1,0,0,1.1497,Gabbro_01,4,01,3,8,1.15,4,01,0.44172309,-0.259657118,1,0,0,1.9575,Gabbro_rect,4,1.957,1,14,0,14,0,1,,,,,,,,,,,,,
60fd8f5cb18c520d817c21be,SCR,2024-06-25_14h22.43.723,LearnStrategy,2023.2.3,MacIntel,60.0024001,5,1,16,0.579032118,0.397300347,1,0,0,1.1704,Andesite_01,1,01,6,8,1.17,1,01,0.129665799,-0.241848958,1,0,0,3.5622,Diorite_rect,3,3.562,0,15,0,15,0,1,,,,,,,,,,,,,
60fd8f5cb18c520d817c21be,SCR,2024-06-25_14h22.43.723,LearnStrategy,2023.2.3,MacIntel,60.0024001,5,2,1,,,,,,,,2,12,,,,,,,,,,,,,4,4.925,0,,,,,,0.391697049,-0.235421007,1,0,0,4.925,Gabbro_rect,0,0,0,0,1,
60fd8f5cb18c520d817c21be,SCR,2024-06-25_14h22.43.723,LearnStrategy,2023.2.3,MacIntel,60.0024001,5,2,2,,,,,,,,3,09,,,,,,,,,,,,,3,2.048,1,,,,,,0.123710938,-0.265894097,1,0,0,2.0479,Diorite_rect,1,0,1,0,1,
60fd8f5cb18c520d817c21be,SCR,2024-06-25_14h22.43.723,LearnStrategy,2023.2.3,MacIntel,60.0024001,5,2,3,,,,,,,,8,10,,,,,,,,,,,,,8,1.274,1,,,,,,0.339969618,-0.394960937,1,0,0,1.2741,Pumice_rect,2,0,2,0,1,
60fd8f5cb18c520d817c21be,SCR,2024-06-25_14h22.43.723,LearnStrategy,2023.2.3,MacIntel,60.0024001,5,2,4,,,,,,,,1,05,,,,,,,,,,,,,1,4.491,1,,,,,,-0.447556424,-0.254800347,1,0,0,4.4909,Andesite_rect,3,0,3,0,1,
60fd8f5cb18c520d817c21be,SCR,2024-06-25_14h22.43.723,LearnStrategy,2023.2.3,MacIntel,60.0024001,5,2,5,,,,,,,,4,05,,,,,,,,,,,,,4,4.261,1,,,,,,0.349496528,-0.266189236,1,0,0,4.2612,Gabbro_rect,4,0,4,0,1,
60fd8f5cb18c520d817c21be,SCR,2024-06-25_14h22.43.723,LearnStrategy,2023.2.3,MacIntel,60.0024001,5,2,6,,,,,,,,6,11,,,,,,,,,,,,,5,9.193,0,,,,,,-0.440217014,-0.412165799,1,0,0,9.193,Obsidian_rect,5,0,5,0,1,
60fd8f5cb18c520d817c21be,SCR,2024-06-25_14h22.43.723,LearnStrategy,2023.2.3,MacIntel,60.0024001,5,2,7,,,,,,,,7,02,,,,,,,,,,,,,7,1.275,1,,,,,,0.122421875,-0.402951389,1,0,0,1.275,Peridotite_rect,6,0,6,0,1,
60fd8f5cb18c520d817c21be,SCR,2024-06-25_14h22.43.723,LearnStrategy,2023.2.3,MacIntel,60.0024001,5,2,8,,,,,,,,6,03,,,,,,,,,,,,,7,1.064,0,,,,,,0.122421875,-0.402951389,1,0,0,1.0644,Peridotite_rect,7,0,7,0,1,
60fd8f5cb18c520d817c21be,SCR,2024-06-25_14h22.43.723,LearnStrategy,2023.2.3,MacIntel,60.0024001,5,2,9,,,,,,,,7,12,,,,,,,,,,,,,7,0.742,1,,,,,,0.122421875,-0.402951389,1,0,0,0.7419,Peridotite_rect,8,0,8,0,1,
60fd8f5cb18c520d817c21be,SCR,2024-06-25_14h22.43.723,LearnStrategy,2023.2.3,MacIntel,60.0024001,5,2,10,,,,,,,,2,16,,,,,,,,,,,,,2,2.459,1,,,,,,-0.070130208,-0.252803819,1,0,0,2.4591,Basalt_rect,9,0,9,0,1,
60fd8f5cb18c520d817c21be,SCR,2024-06-25_14h22.43.723,LearnStrategy,2023.2.3,MacIntel,60.0024001,5,2,11,,,,,,,,5,06,,,,,,,,,,,,,5,2.207,1,,,,,,-0.364952257,-0.407803819,1,0,0,2.207,Obsidian_rect,10,0,10,0,1,
60fd8f5cb18c520d817c21be,SCR,2024-06-25_14h22.43.723,LearnStrategy,2023.2.3,MacIntel,60.0024001,5,2,12,,,,,,,,5,02,,,,,,,,,,,,,5,0.791,1,,,,,,-0.362873264,-0.403207465,1,0,0,0.7907,Obsidian_rect,11,0,11,0,1,
60fd8f5cb18c520d817c21be,SCR,2024-06-25_14h22.43.723,LearnStrategy,2023.2.3,MacIntel,60.0024001,5,2,13,,,,,,,,1,03,,,,,,,,,,,,,4,4.726,0,,,,,,0.468888889,-0.231345486,1,0,0,4.7262,Gabbro_rect,12,0,12,0,1,
60fd8f5cb18c520d817c21be,SCR,2024-06-25_14h22.43.723,LearnStrategy,2023.2.3,MacIntel,60.0024001,5,2,14,,,,,,,,3,16,,,,,,,,,,,,,3,3.096,1,,,,,,0.176883681,-0.264661458,1,0,0,3.0957,Diorite_rect,13,0,13,0,1,
60fd8f5cb18c520d817c21be,SCR,2024-06-25_14h22.43.723,LearnStrategy,2023.2.3,MacIntel,60.0024001,5,2,15,,,,,,,,8,08,,,,,,,,,,,,,8,1.624,1,,,,,,0.450347222,-0.418888889,1,0,0,1.6238,Pumice_rect,14,0,14,0,1,
60fd8f5cb18c520d817c21be,SCR,2024-06-25_14h22.43.723,LearnStrategy,2023.2.3,MacIntel,60.0024001,5,2,16,,,,,,,,4,16,,,,,,,,,,,,,4,3.509,1,,,,,,0.36937066,-0.261510417,1,0,0,3.5086,Gabbro_rect,15,0,15,0,1,
60fd8f5cb18c520d817c21be,SCR,2024-06-25_14h22.43.723,LearnStrategy,2023.2.3,MacIntel,60.0024001,6,1,1,0.265720486,0.385655382,1,0,0,1.0424,Pegmatite_08,6,08,6,6,1.042,6,08,-0.158068576,-0.416966146,1,0,0,1.8581,Pegmatite_rect,6,1.858,1,0,0,0,0,1,,,,,,,,,,,,,
60fd8f5cb18c520d817c21be,SCR,2024-06-25_14h22.43.723,LearnStrategy,2023.2.3,MacIntel,60.0024001,6,1,2,0.547916667,-0.251623264,1,0,0,1.1367,Andesite_02,1,02,2,8,1.137,1,02,-0.331449653,-0.261514757,1,0,0,2.2443,Andesite_rect,1,2.244,1,1,0,1,0,1,,,,,,,,,,,,,
60fd8f5cb18c520d817c21be,SCR,2024-06-25_14h22.43.723,LearnStrategy,2023.2.3,MacIntel,60.0024001,6,1,3,-0.084592014,-0.428046875,1,0,0,0.9113,Peridotite_10,7,10,1,4,0.911,6,13,0.102239583,-0.406506076,1,0,0,1.1172,Peridotite_rect,7,1.117,1,2,0,2,0,1,,,,,,,,,,,,,
60fd8f5cb18c520d817c21be,SCR,2024-06-25_14h22.43.723,LearnStrategy,2023.2.3,MacIntel,60.0024001,6,1,4,0.073975694,-0.429635417,1,0,0,0.8909,Pumice_03,8,03,1,5,0.891,3,08,0.376948785,-0.411171875,1,0,0,0.9747,Pumice_rect,8,0.975,1,3,0,3,0,1,,,,,,,,,,,,,
60fd8f5cb18c520d817c21be,SCR,2024-06-25_14h22.43.723,LearnStrategy,2023.2.3,MacIntel,60.0024001,6,1,5,-0.587695312,-0.360859375,1,0,0,0.9641,Andesite_09,1,09,1,1,0.964,1,09,-0.403884549,-0.26515191,1,0,0,3.2339,Andesite_rect,1,3.234,1,4,0,4,0,1,,,,,,,,,,,,,
60fd8f5cb18c520d817c21be,SCR,2024-06-25_14h22.43.723,LearnStrategy,2023.2.3,MacIntel,60.0024001,6,1,6,0.393489583,0.112044271,1,0,0,1.1169,Obsidian_11,5,11,4,7,1.117,5,11,-0.361575521,-0.382000868,1,0,0,1.1301,Obsidian_rect,5,1.13,1,5,0,5,0,1,,,,,,,,,,,,,
60fd8f5cb18c520d817c21be,SCR,2024-06-25_14h22.43.723,LearnStrategy,2023.2.3,MacIntel,60.0024001,6,1,7,0.540828993,0.276419271,1,0,0,0.9514,Pegmatite_06,6,06,5,8,0.951,6,06,-0.116137153,-0.394361979,1,0,0,2.4582,Pegmatite_rect,6,2.458,1,6,0,6,0,1,,,,,,,,,,,,,
60fd8f5cb18c520d817c21be,SCR,2024-06-25_14h22.43.723,LearnStrategy,2023.2.3,MacIntel,60.0024001,6,1,8,-0.354513889,0.25624566,1,0,0,1.4178,Pegmatite_09,6,09,5,2,1.418,6,09,0.100256076,-0.381150174,1,0,0,1.071,Peridotite_rect,7,1.071,0,7,0,7,0,1,,,,,,,,,,,,,
60fd8f5cb18c520d817c21be,SCR,2024-06-25_14h22.43.723,LearnStrategy,2023.2.3,MacIntel,60.0024001,6,1,9,0.567174479,0.075855035,1,0,0,1.0666,Basalt_06,2,06,4,8,1.067,2,06,0.37469184,-0.257578125,1,0,0,3.0607,Gabbro_rect,4,3.061,0,8,0,8,0,1,,,,,,,,,,,,,
60fd8f5cb18c520d817c21be,SCR,2024-06-25_14h22.43.723,LearnStrategy,2023.2.3,MacIntel,60.0024001,6,1,10,-0.381332465,0.411297743,1,0,0,1.1355,Gabbro_08,4,08,6,2,1.136,4,08,0.356992188,-0.231840278,1,0,0,1.4562,Gabbro_rect,4,1.456,1,9,0,9,0,1,,,,,,,,,,,,,
60fd8f5cb18c520d817c21be,SCR,2024-06-25_14h22.43.723,LearnStrategy,2023.2.3,MacIntel,60.0024001,6,1,11,0.573741319,0.091085069,1,0,0,1.2636,Basalt_06,2,06,4,8,1.264,1,09,-0.173064236,-0.269279514,1,0,0,0.9151,Basalt_rect,2,0.915,1,10,0,10,0,1,,,,,,,,,,,,,
60fd8f5cb18c520d817c21be,SCR,2024-06-25_14h22.43.723,LearnStrategy,2023.2.3,MacIntel,60.0024001,6,1,12,0.047864583,-0.233177083,1,0,0,0.9256,Peridotite_04,7,04,2,5,0.926,7,04,0.102352431,-0.391861979,1,0,0,1.4696,Peridotite_rect,7,1.47,1,11,0,11,0,1,,,,,,,,,,,,,
60fd8f5cb18c520d817c21be,SCR,2024-06-25_14h22.43.723,LearnStrategy,2023.2.3,MacIntel,60.0024001,6,1,13,0.081961806,-0.12108941,1,0,0,0.7729,Basalt_10,2,10,3,5,0.773,2,10,-0.116184896,-0.241961806,1,0,0,1.8568,Basalt_rect,2,1.857,1,12,0,12,0,1,,,,,,,,,,,,,
60fd8f5cb18c520d817c21be,SCR,2024-06-25_14h22.43.723,LearnStrategy,2023.2.3,MacIntel,60.0024001,6,1,14,0.263728299,-0.110542535,1,0,0,0.8496,Gabbro_03,4,03,3,6,0.85,4,03,0.379761285,-0.243715278,1,0,0,4.7401,Gabbro_rect,4,4.74,1,13,0,13,0,1,,,,,,,,,,,,,
60fd8f5cb18c520d817c21be,SCR,2024-06-25_14h22.43.723,LearnStrategy,2023.2.3,MacIntel,60.0024001,6,1,15,0.263259549,-0.220568576,1,0,0,0.9828,Diorite_07,3,07,2,6,0.983,3,07,0.174865451,-0.235169271,1,0,0,3.7123,Diorite_rect,3,3.712,1,14,0,14,0,1,,,,,,,,,,,,,
60fd8f5cb18c520d817c21be,SCR,2024-06-25_14h22.43.723,LearnStrategy,2023.2.3,MacIntel,60.0024001,6,1,16,0.386501736,-0.239778646,1,0,0,1.0109,Andesite_16,1,16,2,7,1.011,1,16,-0.342417535,-0.24547309,1,0,0,1.4849,Andesite_rect,1,1.485,1,15,0,15,0,1,,,,,,,,,,,,,
60fd8f5cb18c520d817c21be,SCR,2024-06-25_14h22.43.723,LearnStrategy,2023.2.3,MacIntel,60.0024001,6,2,1,,,,,,,,3,11,,,,,,,,,,,,,3,7.695,1,,,,,,0.123268229,-0.240633681,1,0,0,7.6954,Diorite_rect,0,0,0,0,1,
60fd8f5cb18c520d817c21be,SCR,2024-06-25_14h22.43.723,LearnStrategy,2023.2.3,MacIntel,60.0024001,6,2,2,,,,,,,,2,04,,,,,,,,,,,,,2,1.574,1,,,,,,-0.10281684,-0.259657118,1,0,0,1.5738,Basalt_rect,1,0,1,0,1,
60fd8f5cb18c520d817c21be,SCR,2024-06-25_14h22.43.723,LearnStrategy,2023.2.3,MacIntel,60.0024001,6,2,3,,,,,,,,1,07,,,,,,,,,,,,,1,3.208,1,,,,,,-0.343689236,-0.248203125,1,0,0,3.2083,Andesite_rect,2,0,2,0,1,
60fd8f5cb18c520d817c21be,SCR,2024-06-25_14h22.43.723,LearnStrategy,2023.2.3,MacIntel,60.0024001,6,2,4,,,,,,,,4,12,,,,,,,,,,,,,4,3.943,1,,,,,,0.361618924,-0.237178819,1,0,0,3.9434,Gabbro_rect,3,0,3,0,1,
60fd8f5cb18c520d817c21be,SCR,2024-06-25_14h22.43.723,LearnStrategy,2023.2.3,MacIntel,60.0024001,6,2,5,,,,,,,,8,15,,,,,,,,,,,,,8,1.258,1,,,,,,0.376896701,-0.403302951,1,0,0,1.2581,Pumice_rect,4,0,4,0,1,
60fd8f5cb18c520d817c21be,SCR,2024-06-25_14h22.43.723,LearnStrategy,2023.2.3,MacIntel,60.0024001,6,2,6,,,,,,,,2,08,,,,,,,,,,,,,2,2.06,1,,,,,,-0.073302951,-0.255590278,1,0,0,2.0601,Basalt_rect,5,0,5,0,1,
60fd8f5cb18c520d817c21be,SCR,2024-06-25_14h22.43.723,LearnStrategy,2023.2.3,MacIntel,60.0024001,6,2,7,,,,,,,,6,05,,,,,,,,,,,,,6,1.706,1,,,,,,-0.111614583,-0.406805556,1,0,0,1.7056,Pegmatite_rect,6,0,6,0,1,
60fd8f5cb18c520d817c21be,SCR,2024-06-25_14h22.43.723,LearnStrategy,2023.2.3,MacIntel,60.0024001,6,2,8,,,,,,,,6,10,,,,,,,,,,,,,7,1.56,0,,,,,,0.126540799,-0.411167535,1,0,0,1.5599,Peridotite_rect,7,0,7,0,1,
60fd8f5cb18c520d817c21be,SCR,2024-06-25_14h22.43.723,LearnStrategy,2023.2.3,MacIntel,60.0024001,6,2,9,,,,,,,,4,11,,,,,,,,,,,,,4,3.28,1,,,,,,0.398320312,-0.255256076,1,0,0,3.2799,Gabbro_rect,8,0,8,0,1,
60fd8f5cb18c520d817c21be,SCR,2024-06-25_14h22.43.723,LearnStrategy,2023.2.3,MacIntel,60.0024001,6,2,10,,,,,,,,8,14,,,,,,,,,,,,,8,0.975,1,,,,,,0.358502604,-0.404657118,1,0,0,0.9747,Pumice_rect,9,0,9,0,1,
60fd8f5cb18c520d817c21be,SCR,2024-06-25_14h22.43.723,LearnStrategy,2023.2.3,MacIntel,60.0024001,6,2,11,,,,,,,,3,14,,,,,,,,,,,,,3,2.393,1,,,,,,0.102013889,-0.256848958,1,0,0,2.3934,Diorite_rect,10,0,10,0,1,
60fd8f5cb18c520d817c21be,SCR,2024-06-25_14h22.43.723,LearnStrategy,2023.2.3,MacIntel,60.0024001,6,2,12,,,,,,,,1,10,,,,,,,,,,,,,4,2.176,0,,,,,,0.399817708,-0.270872396,1,0,0,2.1763,Gabbro_rect,11,0,11,0,1,
60fd8f5cb18c520d817c21be,SCR,2024-06-25_14h22.43.723,LearnStrategy,2023.2.3,MacIntel,60.0024001,6,2,13,,,,,,,,5,12,,,,,,,,,,,,,5,1.006,1,,,,,,-0.339470486,-0.404435764,1,0,0,1.0062,Obsidian_rect,12,0,12,0,1,
60fd8f5cb18c520d817c21be,SCR,2024-06-25_14h22.43.723,LearnStrategy,2023.2.3,MacIntel,60.0024001,6,2,14,,,,,,,,7,13,,,,,,,,,,,,,7,0.996,1,,,,,,0.156028646,-0.415772569,1,0,0,0.9961,Peridotite_rect,13,0,13,0,1,
60fd8f5cb18c520d817c21be,SCR,2024-06-25_14h22.43.723,LearnStrategy,2023.2.3,MacIntel,60.0024001,6,2,15,,,,,,,,5,10,,,,,,,,,,,,,5,1.154,1,,,,,,-0.357513021,-0.411471354,1,0,0,1.1544,Obsidian_rect,14,0,14,0,1,
60fd8f5cb18c520d817c21be,SCR,2024-06-25_14h22.43.723,LearnStrategy,2023.2.3,MacIntel,60.0024001,6,2,16,,,,,,,,7,05,,,,,,,,,,,,,7,1.363,1,,,,,,0.075047743,-0.419743924,1,0,0,1.3633,Peridotite_rect,15,0,15,0,1,
60fd8f5cb18c520d817c21be,SCR,2024-06-25_14h22.43.723,LearnStrategy,2023.2.3,MacIntel,60.0024001,7,1,1,0.397855903,-0.443958333,1,0,0,1.2317,Peridotite_14,7,14,1,7,1.232,7,14,0.213459201,-0.408975694,1,0,0,1.3782,Peridotite_rect,7,1.378,1,0,0,0,0,1,,,,,,,,,,,,,
60fd8f5cb18c520d817c21be,SCR,2024-06-25_14h22.43.723,LearnStrategy,2023.2.3,MacIntel,60.0024001,7,1,2,0.382569444,0.245039062,1,0,0,1.0208,Gabbro_13,4,13,5,7,1.021,4,13,0.417282986,-0.243845486,1,0,0,1.9077,Gabbro_rect,4,1.908,1,1,0,1,0,1,,,,,,,,,,,,,
60fd8f5cb18c520d817c21be,SCR,2024-06-25_14h22.43.723,LearnStrategy,2023.2.3,MacIntel,60.0024001,7,1,3,-0.417330729,-0.449036458,1,0,0,0.8793,Andesite_04,1,04,1,2,0.879,1,04,-0.37921441,-0.257378472,1,0,0,3.1174,Andesite_rect,1,3.117,1,2,0,2,0,1,,,,,,,,,,,,,
60fd8f5cb18c520d817c21be,SCR,2024-06-25_14h22.43.723,LearnStrategy,2023.2.3,MacIntel,60.0024001,7,1,4,-0.083454861,0.082335069,1,0,0,0.695,Diorite_02,3,02,4,4,0.695,3,02,0.138224826,-0.23733941,1,0,0,1.2335,Diorite_rect,3,1.234,1,3,0,3,0,1,,,,,,,,,,,,,
60fd8f5cb18c520d817c21be,SCR,2024-06-25_14h22.43.723,LearnStrategy,2023.2.3,MacIntel,60.0024001,7,1,5,0.516588542,0.391809896,1,0,0,0.8303,Andesite_01,1,01,6,8,0.83,1,01,0.14375434,-0.233758681,1,0,0,1.7622,Diorite_rect,3,1.762,0,4,0,4,0,1,,,,,,,,,,,,,
60fd8f5cb18c520d817c21be,SCR,2024-06-25_14h22.43.723,LearnStrategy,2023.2.3,MacIntel,60.0024001,7,1,6,0.514448785,-0.244730903,1,0,0,1.2894,Andesite_02,1,02,2,8,1.289,1,02,-0.457118056,-0.244201389,1,0,0,1.2708,Andesite_rect,1,1.271,1,5,0,5,0,1,,,,,,,,,,,,,
60fd8f5cb18c520d817c21be,SCR,2024-06-25_14h22.43.723,LearnStrategy,2023.2.3,MacIntel,60.0024001,7,1,7,0.53625434,0.404366319,1,0,0,1.0541,Andesite_01,1,01,6,8,1.054,4,03,-0.365681424,-0.25812066,1,0,0,0.8438,Andesite_rect,1,0.844,1,6,0,6,0,1,,,,,,,,,,,,,
60fd8f5cb18c520d817c21be,SCR,2024-06-25_14h22.43.723,LearnStrategy,2023.2.3,MacIntel,60.0024001,7,1,8,0.218385417,0.423927951,1,0,0,1.1003,Pegmatite_08,6,08,6,6,1.1,6,08,-0.143125,-0.407335069,1,0,0,1.7808,Pegmatite_rect,6,1.781,1,7,0,7,0,1,,,,,,,,,,,,,
60fd8f5cb18c520d817c21be,SCR,2024-06-25_14h22.43.723,LearnStrategy,2023.2.3,MacIntel,60.0024001,7,1,9,-0.381102431,-0.082907986,1,0,0,0.9548,Obsidian_09,5,09,3,2,0.955,5,09,-0.377938368,-0.40687066,1,0,0,3.6719,Obsidian_rect,5,3.672,1,8,0,8,0,1,,,,,,,,,,,,,
60fd8f5cb18c520d817c21be,SCR,2024-06-25_14h22.43.723,LearnStrategy,2023.2.3,MacIntel,60.0024001,7,1,10,0.05937934,0.263862847,1,0,0,1.0103,Pumice_09,8,09,5,5,1.01,8,09,0.421775174,-0.414505208,1,0,0,0.8661,Pumice_rect,8,0.866,1,9,0,9,0,1,,,,,,,,,,,,,
60fd8f5cb18c520d817c21be,SCR,2024-06-25_14h22.43.723,LearnStrategy,2023.2.3,MacIntel,60.0024001,7,1,11,0.043229167,0.106271701,1,0,0,0.7994,Basalt_14,2,14,4,5,0.799,2,14,0.387144097,-0.2509375,1,0,0,1.8016,Gabbro_rect,4,1.802,0,10,0,10,0,1,,,,,,,,,,,,,
60fd8f5cb18c520d817c21be,SCR,2024-06-25_14h22.43.723,LearnStrategy,2023.2.3,MacIntel,60.0024001,7,1,12,0.559114583,0.239861111,1,0,0,1.3268,Pegmatite_06,6,06,5,8,1.327,6,06,-0.14828125,-0.405603299,1,0,0,1.6975,Pegmatite_rect,6,1.697,1,11,0,11,0,1,,,,,,,,,,,,,
60fd8f5cb18c520d817c21be,SCR,2024-06-25_14h22.43.723,LearnStrategy,2023.2.3,MacIntel,60.0024001,7,1,13,0.256657986,-0.409774306,1,0,0,0.9835,Pegmatite_15,6,15,1,6,0.984,6,15,-0.099921875,-0.408888889,1,0,0,2.1965,Pegmatite_rect,6,2.196,1,12,0,12,0,1,,,,,,,,,,,,,
60fd8f5cb18c520d817c21be,SCR,2024-06-25_14h22.43.723,LearnStrategy,2023.2.3,MacIntel,60.0024001,7,1,14,-0.031046007,-0.09484809,1,0,0,2.3409,Basalt_02,2,02,3,4,2.341,2,02,0.396284722,-0.261610243,1,0,0,5.2388,Gabbro_rect,4,5.239,0,13,0,13,0,1,,,,,,,,,,,,,
60fd8f5cb18c520d817c21be,SCR,2024-06-25_14h22.43.723,LearnStrategy,2023.2.3,MacIntel,60.0024001,7,1,15,-0.538767361,-0.441757813,1,0,0,1.1238,Andesite_09,1,09,1,1,1.124,1,09,-0.401888021,-0.252790799,1,0,0,1.591,Andesite_rect,1,1.591,1,14,0,14,0,1,,,,,,,,,,,,,
60fd8f5cb18c520d817c21be,SCR,2024-06-25_14h22.43.723,LearnStrategy,2023.2.3,MacIntel,60.0024001,7,1,16,-0.079813368,-0.113407118,1,0,0,0.8994,Basalt_02,2,02,3,4,0.899,6,06,-0.108975694,-0.269262153,1,0,0,1.1677,Basalt_rect,2,1.168,1,15,0,15,0,1,,,,,,,,,,,,,
60fd8f5cb18c520d817c21be,SCR,2024-06-25_14h22.43.723,LearnStrategy,2023.2.3,MacIntel,60.0024001,7,2,1,,,,,,,,3,10,,,,,,,,,,,,,3,4.153,1,,,,,,0.104522569,-0.250303819,1,0,0,4.153,Diorite_rect,0,0,0,0,1,
60fd8f5cb18c520d817c21be,SCR,2024-06-25_14h22.43.723,LearnStrategy,2023.2.3,MacIntel,60.0024001,7,2,2,,,,,,,,3,11,,,,,,,,,,,,,7,3.388,0,,,,,,0.114079861,-0.405416667,1,0,0,3.3878,Peridotite_rect,1,0,1,0,1,
60fd8f5cb18c520d817c21be,SCR,2024-06-25_14h22.43.723,LearnStrategy,2023.2.3,MacIntel,60.0024001,7,2,3,,,,,,,,1,06,,,,,,,,,,,,,1,8.099,1,,,,,,-0.367643229,-0.250277778,1,0,0,8.0988,Andesite_rect,2,0,2,0,1,
60fd8f5cb18c520d817c21be,SCR,2024-06-25_14h22.43.723,LearnStrategy,2023.2.3,MacIntel,60.0024001,7,2,4,,,,,,,,1,07,,,,,,,,,,,,,1,2.284,1,,,,,,-0.350985243,-0.25499566,1,0,0,2.2843,Andesite_rect,3,0,3,0,1,
60fd8f5cb18c520d817c21be,SCR,2024-06-25_14h22.43.723,LearnStrategy,2023.2.3,MacIntel,60.0024001,7,2,5,,,,,,,,5,10,,,,,,,,,,,,,5,1.185,1,,,,,,-0.339049479,-0.403988715,1,0,0,1.1851,Obsidian_rect,4,0,4,0,1,
60fd8f5cb18c520d817c21be,SCR,2024-06-25_14h22.43.723,LearnStrategy,2023.2.3,MacIntel,60.0024001,7,2,6,,,,,,,,4,05,,,,,,,,,,,,,4,5.417,1,,,,,,0.416063368,-0.242135417,1,0,0,5.4167,Gabbro_rect,5,0,5,0,1,
60fd8f5cb18c520d817c21be,SCR,2024-06-25_14h22.43.723,LearnStrategy,2023.2.3,MacIntel,60.0024001,7,2,7,,,,,,,,8,14,,,,,,,,,,,,,8,1.146,1,,,,,,0.393472222,-0.42140191,1,0,0,1.1461,Pumice_rect,6,0,6,0,1,
60fd8f5cb18c520d817c21be,SCR,2024-06-25_14h22.43.723,LearnStrategy,2023.2.3,MacIntel,60.0024001,7,2,8,,,,,,,,7,07,,,,,,,,,,,,,7,1.073,1,,,,,,0.220499132,-0.3953125,1,0,0,1.0733,Peridotite_rect,7,0,7,0,1,
60fd8f5cb18c520d817c21be,SCR,2024-06-25_14h22.43.723,LearnStrategy,2023.2.3,MacIntel,60.0024001,7,2,9,,,,,,,,4,15,,,,,,,,,,,,,4,3.427,1,,,,,,0.424401042,-0.265091146,1,0,0,3.4268,Gabbro_rect,8,0,8,0,1,
60fd8f5cb18c520d817c21be,SCR,2024-06-25_14h22.43.723,LearnStrategy,2023.2.3,MacIntel,60.0024001,7,2,10,,,,,,,,8,04,,,,,,,,,,,,,8,1.529,1,,,,,,0.356349826,-0.413346354,1,0,0,1.5288,Pumice_rect,9,0,9,0,1,
60fd8f5cb18c520d817c21be,SCR,2024-06-25_14h22.43.723,LearnStrategy,2023.2.3,MacIntel,60.0024001,7,2,11,,,,,,,,5,02,,,,,,,,,,,,,5,1.073,1,,,,,,-0.358663194,-0.415859375,1,0,0,1.0728,Obsidian_rect,10,0,10,0,1,
60fd8f5cb18c520d817c21be,SCR,2024-06-25_14h22.43.723,LearnStrategy,2023.2.3,MacIntel,60.0024001,7,2,12,,,,,,,,7,02,,,,,,,,,,,,,7,0.912,1,,,,,,0.149791667,-0.397803819,1,0,0,0.9124,Peridotite_rect,11,0,11,0,1,
60fd8f5cb18c520d817c21be,SCR,2024-06-25_14h22.43.723,LearnStrategy,2023.2.3,MacIntel,60.0024001,7,2,13,,,,,,,,2,05,,,,,,,,,,,,,2,1.997,1,,,,,,-0.087777778,-0.241974826,1,0,0,1.9966,Basalt_rect,12,0,12,0,1,
60fd8f5cb18c520d817c21be,SCR,2024-06-25_14h22.43.723,LearnStrategy,2023.2.3,MacIntel,60.0024001,7,2,14,,,,,,,,6,16,,,,,,,,,,,,,6,0.964,1,,,,,,-0.111462674,-0.414296875,1,0,0,0.9636,Pegmatite_rect,13,0,13,0,1,
60fd8f5cb18c520d817c21be,SCR,2024-06-25_14h22.43.723,LearnStrategy,2023.2.3,MacIntel,60.0024001,7,2,15,,,,,,,,2,09,,,,,,,,,,,,,2,1.254,1,,,,,,-0.129375,-0.250959201,1,0,0,1.2541,Basalt_rect,14,0,14,0,1,
60fd8f5cb18c520d817c21be,SCR,2024-06-25_14h22.43.723,LearnStrategy,2023.2.3,MacIntel,60.0024001,7,2,16,,,,,,,,6,07,,,,,,,,,,,,,6,3.775,1,,,,,,-0.112886285,-0.392647569,1,0,0,3.775,Pegmatite_rect,15,0,15,0,1,
60fd8f5cb18c520d817c21be,SCR,2024-06-25_14h22.43.723,LearnStrategy,2023.2.3,MacIntel,60.0024001,8,1,1,0.401679687,0.398489583,1,0,0,0.8428,Diorite_12,3,12,6,7,0.843,3,12,-0.37953559,-0.254908854,1,0,0,7.9754,Andesite_rect,1,7.975,0,0,0,0,0,1,,,,,,,,,,,,,
60fd8f5cb18c520d817c21be,SCR,2024-06-25_14h22.43.723,LearnStrategy,2023.2.3,MacIntel,60.0024001,8,1,2,0.553342014,0.382643229,1,0,0,0.8324,Andesite_01,1,01,6,8,0.832,1,01,0.133645833,-0.232387153,1,0,0,1.6464,Diorite_rect,3,1.646,0,1,0,1,0,1,,,,,,,,,,,,,
60fd8f5cb18c520d817c21be,SCR,2024-06-25_14h22.43.723,LearnStrategy,2023.2.3,MacIntel,60.0024001,8,1,3,0.054357639,0.090477431,1,0,0,0.7984,Basalt_14,2,14,4,5,0.798,2,14,-0.086905382,-0.255711806,1,0,0,1.2753,Basalt_rect,2,1.275,1,2,0,2,0,1,,,,,,,,,,,,,
60fd8f5cb18c520d817c21be,SCR,2024-06-25_14h22.43.723,LearnStrategy,2023.2.3,MacIntel,60.0024001,8,1,4,-0.375386285,0.248893229,1,0,0,0.8712,Pegmatite_09,6,09,5,2,0.871,6,09,0.080720486,-0.393302951,1,0,0,1.1096,Peridotite_rect,7,1.11,0,3,0,3,0,1,,,,,,,,,,,,,
60fd8f5cb18c520d817c21be,SCR,2024-06-25_14h22.43.723,LearnStrategy,2023.2.3,MacIntel,60.0024001,8,1,5,-0.398177083,0.142421875,1,0,0,1.038,Obsidian_07,5,07,4,2,1.038,5,07,-0.356527778,-0.402521701,1,0,0,1.2901,Obsidian_rect,5,1.29,1,4,0,4,0,1,,,,,,,,,,,,,
60fd8f5cb18c520d817c21be,SCR,2024-06-25_14h22.43.723,LearnStrategy,2023.2.3,MacIntel,60.0024001,8,1,6,-0.397400174,0.26858941,1,0,0,1.2656,Pegmatite_09,6,09,5,2,1.266,6,09,0.119761285,-0.39202691,1,0,0,1.2122,Peridotite_rect,7,1.212,0,5,0,5,0,1,,,,,,,,,,,,,
60fd8f5cb18c520d817c21be,SCR,2024-06-25_14h22.43.723,LearnStrategy,2023.2.3,MacIntel,60.0024001,8,1,7,-0.386705729,0.243111979,1,0,0,0.7004,Pegmatite_09,6,09,5,2,0.7,1,09,-0.128055556,-0.380659722,1,0,0,1.4262,Pegmatite_rect,6,1.426,1,6,0,6,0,1,,,,,,,,,,,,,
60fd8f5cb18c520d817c21be,SCR,2024-06-25_14h22.43.723,LearnStrategy,2023.2.3,MacIntel,60.0024001,8,1,8,-0.520559896,-0.409279514,1,0,0,1.2535,Andesite_09,1,09,1,1,1.254,4,01,-0.383111979,-0.27046441,1,0,0,3.9734,Andesite_rect,1,3.973,1,7,0,7,0,1,,,,,,,,,,,,,
60fd8f5cb18c520d817c21be,SCR,2024-06-25_14h22.43.723,LearnStrategy,2023.2.3,MacIntel,60.0024001,8,1,9,0.033537326,0.378385417,1,0,0,0.9533,Pegmatite_12,6,12,6,5,0.953,6,12,-0.099674479,-0.406132812,1,0,0,1.2274,Pegmatite_rect,6,1.227,1,8,0,8,0,1,,,,,,,,,,,,,
60fd8f5cb18c520d817c21be,SCR,2024-06-25_14h22.43.723,LearnStrategy,2023.2.3,MacIntel,60.0024001,8,1,10,-0.086128472,0.289162326,1,0,0,2.1557,Diorite_08,3,08,5,4,2.156,3,08,0.139735243,-0.23312066,1,0,0,0.7726,Diorite_rect,3,0.773,1,9,0,9,0,1,,,,,,,,,,,,,
60fd8f5cb18c520d817c21be,SCR,2024-06-25_14h22.43.723,LearnStrategy,2023.2.3,MacIntel,60.0024001,8,1,11,0.08766059,0.065412326,1,0,0,1.2992,Basalt_14,2,14,4,5,1.299,2,14,-0.100794271,-0.261388889,1,0,0,1.6989,Basalt_rect,2,1.699,1,10,0,10,0,1,,,,,,,,,,,,,
60fd8f5cb18c520d817c21be,SCR,2024-06-25_14h22.43.723,LearnStrategy,2023.2.3,MacIntel,60.0024001,8,1,12,0.555273438,-0.109010417,1,0,0,1.3331,Gabbro_01,4,01,3,8,1.333,8,03,0.36953125,-0.244835069,1,0,0,1.6123,Gabbro_rect,4,1.612,1,11,0,11,0,1,,,,,,,,,,,,,
60fd8f5cb18c520d817c21be,SCR,2024-06-25_14h22.43.723,LearnStrategy,2023.2.3,MacIntel,60.0024001,8,1,13,0.08469184,-0.254761285,1,0,0,0.9803,Peridotite_04,7,04,2,5,0.98,7,04,-0.092126736,-0.403511285,1,0,0,1.8327,Pegmatite_rect,6,1.833,0,12,0,12,0,1,,,,,,,,,,,,,
60fd8f5cb18c520d817c21be,SCR,2024-06-25_14h22.43.723,LearnStrategy,2023.2.3,MacIntel,60.0024001,8,1,14,-0.068693576,-0.273033854,1,0,0,1.0477,Diorite_06,3,06,2,4,1.048,3,06,-0.386210938,-0.253081597,1,0,0,3.6993,Andesite_rect,1,3.699,0,13,0,13,0,1,,,,,,,,,,,,,
60fd8f5cb18c520d817c21be,SCR,2024-06-25_14h22.43.723,LearnStrategy,2023.2.3,MacIntel,60.0024001,8,1,15,-0.554049479,0.064118924,1,0,0,0.8404,Gabbro_09,4,09,4,1,0.84,4,09,-0.408849826,-0.390512153,1,0,0,2.2171,Obsidian_rect,5,2.217,0,14,0,14,0,1,,,,,,,,,,,,,
60fd8f5cb18c520d817c21be,SCR,2024-06-25_14h22.43.723,LearnStrategy,2023.2.3,MacIntel,60.0024001,8,1,16,-0.571297743,0.076115451,1,0,0,0.9231,Gabbro_09,4,09,4,1,0.923,1,16,0.365264757,-0.237821181,1,0,0,0.9598,Gabbro_rect,4,0.96,1,15,0,15,0,1,,,,,,,,,,,,,
60fd8f5cb18c520d817c21be,SCR,2024-06-25_14h22.43.723,LearnStrategy,2023.2.3,MacIntel,60.0024001,8,2,1,,,,,,,,4,16,,,,,,,,,,,,,2,6.575,0,,,,,,-0.105347222,-0.255351563,1,0,0,6.5747,Basalt_rect,0,0,0,0,1,
60fd8f5cb18c520d817c21be,SCR,2024-06-25_14h22.43.723,LearnStrategy,2023.2.3,MacIntel,60.0024001,8,2,2,,,,,,,,1,03,,,,,,,,,,,,,1,2.401,1,,,,,,-0.353923611,-0.254778646,1,0,0,2.4013,Andesite_rect,1,0,1,0,1,
60fd8f5cb18c520d817c21be,SCR,2024-06-25_14h22.43.723,LearnStrategy,2023.2.3,MacIntel,60.0024001,8,2,3,,,,,,,,3,14,,,,,,,,,,,,,3,1.088,1,,,,,,0.223619792,-0.253398438,1,0,0,1.0884,Diorite_rect,2,0,2,0,1,
60fd8f5cb18c520d817c21be,SCR,2024-06-25_14h22.43.723,LearnStrategy,2023.2.3,MacIntel,60.0024001,8,2,4,,,,,,,,8,08,,,,,,,,,,,,,8,1.147,1,,,,,,0.350060764,-0.392222222,1,0,0,1.1466,Pumice_rect,3,0,3,0,1,
60fd8f5cb18c520d817c21be,SCR,2024-06-25_14h22.43.723,LearnStrategy,2023.2.3,MacIntel,60.0024001,8,2,5,,,,,,,,5,06,,,,,,,,,,,,,5,1.077,1,,,,,,-0.366115451,-0.379500868,1,0,0,1.0769,Obsidian_rect,4,0,4,0,1,
60fd8f5cb18c520d817c21be,SCR,2024-06-25_14h22.43.723,LearnStrategy,2023.2.3,MacIntel,60.0024001,8,2,6,,,,,,,,3,09,,,,,,,,,,,,,3,1.394,1,,,,,,0.087929688,-0.259023438,1,0,0,1.3945,Diorite_rect,5,0,5,0,1,
60fd8f5cb18c520d817c21be,SCR,2024-06-25_14h22.43.723,LearnStrategy,2023.2.3,MacIntel,60.0024001,8,2,7,,,,,,,,7,12,,,,,,,,,,,,,7,1.156,1,,,,,,0.102152778,-0.408420139,1,0,0,1.1559,Peridotite_rect,6,0,6,0,1,
60fd8f5cb18c520d817c21be,SCR,2024-06-25_14h22.43.723,LearnStrategy,2023.2.3,MacIntel,60.0024001,8,2,8,,,,,,,,1,11,,,,,,,,,,,,,4,3.408,0,,,,,,0.36719184,-0.249973958,1,0,0,3.4078,Gabbro_rect,7,0,7,0,1,
60fd8f5cb18c520d817c21be,SCR,2024-06-25_14h22.43.723,LearnStrategy,2023.2.3,MacIntel,60.0024001,8,2,9,,,,,,,,8,10,,,,,,,,,,,,,8,1.068,1,,,,,,0.355125868,-0.416740451,1,0,0,1.0677,Pumice_rect,8,0,8,0,1,
60fd8f5cb18c520d817c21be,SCR,2024-06-25_14h22.43.723,LearnStrategy,2023.2.3,MacIntel,60.0024001,8,2,10,,,,,,,,2,04,,,,,,,,,,,,,2,1.31,1,,,,,,-0.074279514,-0.266783854,1,0,0,1.3104,Basalt_rect,9,0,9,0,1,
60fd8f5cb18c520d817c21be,SCR,2024-06-25_14h22.43.723,LearnStrategy,2023.2.3,MacIntel,60.0024001,8,2,11,,,,,,,,6,11,,,,,,,,,,,,,5,1.607,0,,,,,,-0.336701389,-0.392439236,1,0,0,1.6072,Obsidian_rect,10,0,10,0,1,
60fd8f5cb18c520d817c21be,SCR,2024-06-25_14h22.43.723,LearnStrategy,2023.2.3,MacIntel,60.0024001,8,2,12,,,,,,,,5,12,,,,,,,,,,,,,5,1.544,1,,,,,,-0.348927951,-0.404049479,1,0,0,1.5442,Obsidian_rect,11,0,11,0,1,
60fd8f5cb18c520d817c21be,SCR,2024-06-25_14h22.43.723,LearnStrategy,2023.2.3,MacIntel,60.0024001,8,2,13,,,,,,,,6,05,,,,,,,,,,,,,5,4.294,0,,,,,,-0.354882812,-0.404392361,1,0,0,4.2936,Obsidian_rect,12,0,12,0,1,
60fd8f5cb18c520d817c21be,SCR,2024-06-25_14h22.43.723,LearnStrategy,2023.2.3,MacIntel,60.0024001,8,2,14,,,,,,,,7,05,,,,,,,,,,,,,7,1.291,1,,,,,,0.174418403,-0.404796007,1,0,0,1.2911,Peridotite_rect,13,0,13,0,1,
60fd8f5cb18c520d817c21be,SCR,2024-06-25_14h22.43.723,LearnStrategy,2023.2.3,MacIntel,60.0024001,8,2,15,,,,,,,,4,11,,,,,,,,,,,,,2,1.889,0,,,,,,-0.087230903,-0.260277778,1,0,0,1.8891,Basalt_rect,14,0,14,0,1,
60fd8f5cb18c520d817c21be,SCR,2024-06-25_14h22.43.723,LearnStrategy,2023.2.3,MacIntel,60.0024001,8,2,16,,,,,,,,2,08,,,,,,,,,,,,,2,4.098,1,,,,,,-0.166367188,-0.26671441,1,0,0,4.0977,Basalt_rect,15,0,15,0,1,
60fd8f5cb18c520d817c21be,SCR,2024-06-25_14h22.43.723,LearnStrategy,2023.2.3,MacIntel,60.0024001,9,1,1,0.044049479,-0.401019965,1,0,0,1.2739,Pumice_03,8,03,1,5,1.274,8,03,0.410208333,-0.406263021,1,0,0,1.5171,Pumice_rect,8,1.517,1,0,0,0,0,1,,,,,,,,,,,,,
60fd8f5cb18c520d817c21be,SCR,2024-06-25_14h22.43.723,LearnStrategy,2023.2.3,MacIntel,60.0024001,9,1,2,-0.403671875,-0.414639757,1,0,0,1.088,Andesite_04,1,04,1,2,1.088,1,04,-0.40469184,-0.249887153,1,0,0,7.954,Andesite_rect,1,7.954,1,1,0,1,0,1,,,,,,,,,,,,,
60fd8f5cb18c520d817c21be,SCR,2024-06-25_14h22.43.723,LearnStrategy,2023.2.3,MacIntel,60.0024001,9,1,3,0.405013021,0.261471354,1,0,0,0.9905,Gabbro_13,4,13,5,7,0.99,4,13,0.443385417,-0.266701389,1,0,0,3.4969,Gabbro_rect,4,3.497,1,2,0,2,0,1,,,,,,,,,,,,,
60fd8f5cb18c520d817c21be,SCR,2024-06-25_14h22.43.723,LearnStrategy,2023.2.3,MacIntel,60.0024001,9,1,4,-0.536111111,-0.431974826,1,0,0,0.9946,Andesite_09,1,09,1,1,0.995,1,09,-0.419027778,-0.244791667,1,0,0,1.3957,Andesite_rect,1,1.396,1,3,0,3,0,1,,,,,,,,,,,,,
60fd8f5cb18c520d817c21be,SCR,2024-06-25_14h22.43.723,LearnStrategy,2023.2.3,MacIntel,60.0024001,9,1,5,-0.521206597,0.258489583,1,0,0,1.0089,Pegmatite_13,6,13,5,1,1.009,6,13,-0.136453993,-0.410759549,1,0,0,2.2861,Pegmatite_rect,6,2.286,1,4,0,4,0,1,,,,,,,,,,,,,
60fd8f5cb18c520d817c21be,SCR,2024-06-25_14h22.43.723,LearnStrategy,2023.2.3,MacIntel,60.0024001,9,1,6,0.523723958,-0.242717014,1,0,0,1.0308,Andesite_02,1,02,2,8,1.031,1,02,-0.334878472,-0.255199653,1,0,0,1.5441,Andesite_rect,1,1.544,1,5,0,5,0,1,,,,,,,,,,,,,
60fd8f5cb18c520d817c21be,SCR,2024-06-25_14h22.43.723,LearnStrategy,2023.2.3,MacIntel,60.0024001,9,1,7,0.195039062,0.451918403,1,0,0,0.9924,Pegmatite_08,6,08,6,6,0.992,6,08,-0.127174479,-0.389019097,1,0,0,1.199,Pegmatite_rect,6,1.199,1,6,0,6,0,1,,,,,,,,,,,,,
60fd8f5cb18c520d817c21be,SCR,2024-06-25_14h22.43.723,LearnStrategy,2023.2.3,MacIntel,60.0024001,9,1,8,0.226223958,0.072209201,1,0,0,0.7635,Diorite_13,3,13,4,6,0.763,3,13,0.166380208,-0.247217882,1,0,0,0.9277,Diorite_rect,3,0.928,1,7,0,7,0,1,,,,,,,,,,,,,
60fd8f5cb18c520d817c21be,SCR,2024-06-25_14h22.43.723,LearnStrategy,2023.2.3,MacIntel,60.0024001,9,1,9,-0.542304688,-0.264548611,1,0,0,0.8989,Peridotite_16,7,16,2,1,0.899,7,16,0.107222222,-0.382916667,1,0,0,0.8609,Peridotite_rect,7,0.861,1,8,0,8,0,1,,,,,,,,,,,,,
60fd8f5cb18c520d817c21be,SCR,2024-06-25_14h22.43.723,LearnStrategy,2023.2.3,MacIntel,60.0024001,9,1,10,-0.050959201,-0.260546875,1,0,0,0.8316,Diorite_06,3,06,2,4,0.832,3,06,0.207387153,-0.24202691,1,0,0,1.2629,Diorite_rect,3,1.263,1,9,0,9,0,1,,,,,,,,,,,,,
60fd8f5cb18c520d817c21be,SCR,2024-06-25_14h22.43.723,LearnStrategy,2023.2.3,MacIntel,60.0024001,9,1,11,-0.398567708,0.392521701,1,0,0,1.0441,Gabbro_08,4,08,6,2,1.044,4,08,0.411575521,-0.250959201,1,0,0,1.4857,Gabbro_rect,4,1.486,1,10,0,10,0,1,,,,,,,,,,,,,
60fd8f5cb18c520d817c21be,SCR,2024-06-25_14h22.43.723,LearnStrategy,2023.2.3,MacIntel,60.0024001,9,1,12,0.037547743,0.370946181,1,0,0,0.9476,Pegmatite_12,6,12,6,5,0.948,6,12,-0.135247396,-0.41703559,1,0,0,2.0159,Pegmatite_rect,6,2.016,1,11,0,11,0,1,,,,,,,,,,,,,
60fd8f5cb18c520d817c21be,SCR,2024-06-25_14h22.43.723,LearnStrategy,2023.2.3,MacIntel,60.0024001,9,1,13,0.128146701,-0.106736111,1,0,0,0.6671,Basalt_10,2,10,3,5,0.667,2,10,-0.073498264,-0.268984375,1,0,0,1.0619,Basalt_rect,2,1.062,1,12,0,12,0,1,,,,,,,,,,,,,
60fd8f5cb18c520d817c21be,SCR,2024-06-25_14h22.43.723,LearnStrategy,2023.2.3,MacIntel,60.0024001,9,1,14,0.232400174,-0.40390191,1,0,0,1.1153,Pegmatite_15,6,15,1,6,1.115,6,15,-0.079071181,-0.40030816,1,0,0,2.5418,Pegmatite_rect,6,2.542,1,13,0,13,0,1,,,,,,,,,,,,,
60fd8f5cb18c520d817c21be,SCR,2024-06-25_14h22.43.723,LearnStrategy,2023.2.3,MacIntel,60.0024001,9,1,15,-0.54203125,0.099075521,1,0,0,0.8202,Gabbro_09,4,09,4,1,0.82,4,09,0.370755208,-0.243710938,1,0,0,2.5953,Gabbro_rect,4,2.595,1,14,0,14,0,1,,,,,,,,,,,,,
60fd8f5cb18c520d817c21be,SCR,2024-06-25_14h22.43.723,LearnStrategy,2023.2.3,MacIntel,60.0024001,9,1,16,-0.237907986,-0.115338542,1,0,0,0.8526,Obsidian_08,5,08,3,3,0.853,5,08,-0.352131076,-0.402404514,1,0,0,1.4434,Obsidian_rect,5,1.443,1,15,0,15,0,1,,,,,,,,,,,,,
60fd8f5cb18c520d817c21be,SCR,2024-06-25_14h22.43.723,LearnStrategy,2023.2.3,MacIntel,60.0024001,9,2,1,,,,,,,,4,12,,,,,,,,,,,,,2,7.492,0,,,,,,-0.115225694,-0.256462674,1,0,0,7.4922,Basalt_rect,0,0,0,0,1,
60fd8f5cb18c520d817c21be,SCR,2024-06-25_14h22.43.723,LearnStrategy,2023.2.3,MacIntel,60.0024001,9,2,2,,,,,,,,7,06,,,,,,,,,,,,,7,1.282,1,,,,,,0.156992187,-0.403823785,1,0,0,1.2819,Peridotite_rect,1,0,1,0,1,
60fd8f5cb18c520d817c21be,SCR,2024-06-25_14h22.43.723,LearnStrategy,2023.2.3,MacIntel,60.0024001,9,2,3,,,,,,,,5,16,,,,,,,,,,,,,5,1.165,1,,,,,,-0.394696181,-0.39203125,1,0,0,1.1654,Obsidian_rect,2,0,2,0,1,
60fd8f5cb18c520d817c21be,SCR,2024-06-25_14h22.43.723,LearnStrategy,2023.2.3,MacIntel,60.0024001,9,2,4,,,,,,,,6,10,,,,,,,,,,,,,7,1.175,0,,,,,,0.123945313,-0.412013889,1,0,0,1.1745,Peridotite_rect,3,0,3,0,1,
60fd8f5cb18c520d817c21be,SCR,2024-06-25_14h22.43.723,LearnStrategy,2023.2.3,MacIntel,60.0024001,9,2,5,,,,,,,,1,05,,,,,,,,,,,,,1,2.268,1,,,,,,-0.337855903,-0.257703993,1,0,0,2.268,Andesite_rect,4,0,4,0,1,
60fd8f5cb18c520d817c21be,SCR,2024-06-25_14h22.43.723,LearnStrategy,2023.2.3,MacIntel,60.0024001,9,2,6,,,,,,,,8,06,,,,,,,,,,,,,8,1.306,1,,,,,,0.387999132,-0.414934896,1,0,0,1.3058,Pumice_rect,5,0,5,0,1,
60fd8f5cb18c520d817c21be,SCR,2024-06-25_14h22.43.723,LearnStrategy,2023.2.3,MacIntel,60.0024001,9,2,7,,,,,,,,4,10,,,,,,,,,,,,,4,1.907,1,,,,,,0.391345486,-0.237482639,1,0,0,1.9066,Gabbro_rect,6,0,6,0,1,
60fd8f5cb18c520d817c21be,SCR,2024-06-25_14h22.43.723,LearnStrategy,2023.2.3,MacIntel,60.0024001,9,2,8,,,,,,,,7,13,,,,,,,,,,,,,7,1.076,1,,,,,,0.197391493,-0.414631076,1,0,0,1.0757,Peridotite_rect,7,0,7,0,1,
60fd8f5cb18c520d817c21be,SCR,2024-06-25_14h22.43.723,LearnStrategy,2023.2.3,MacIntel,60.0024001,9,2,9,,,,,,,,2,12,,,,,,,,,,,,,2,3.957,1,,,,,,-0.081666667,-0.256232639,1,0,0,3.9574,Basalt_rect,8,0,8,0,1,
60fd8f5cb18c520d817c21be,SCR,2024-06-25_14h22.43.723,LearnStrategy,2023.2.3,MacIntel,60.0024001,9,2,10,,,,,,,,2,16,,,,,,,,,,,,,2,2.581,1,,,,,,-0.062751736,-0.25859375,1,0,0,2.581,Basalt_rect,9,0,9,0,1,
60fd8f5cb18c520d817c21be,SCR,2024-06-25_14h22.43.723,LearnStrategy,2023.2.3,MacIntel,60.0024001,9,2,11,,,,,,,,8,15,,,,,,,,,,,,,8,1.503,1,,,,,,0.469444444,-0.393932292,1,0,0,1.5033,Pumice_rect,10,0,10,0,1,
60fd8f5cb18c520d817c21be,SCR,2024-06-25_14h22.43.723,LearnStrategy,2023.2.3,MacIntel,60.0024001,9,2,12,,,,,,,,6,03,,,,,,,,,,,,,7,1.258,0,,,,,,0.208936632,-0.411184896,1,0,0,1.2579,Peridotite_rect,11,0,11,0,1,
60fd8f5cb18c520d817c21be,SCR,2024-06-25_14h22.43.723,LearnStrategy,2023.2.3,MacIntel,60.0024001,9,2,13,,,,,,,,1,10,,,,,,,,,,,,,1,1.438,1,,,,,,-0.422912326,-0.268888889,1,0,0,1.4376,Andesite_rect,12,0,12,0,1,
60fd8f5cb18c520d817c21be,SCR,2024-06-25_14h22.43.723,LearnStrategy,2023.2.3,MacIntel,60.0024001,9,2,14,,,,,,,,5,05,,,,,,,,,,,,,5,1.405,1,,,,,,-0.353337674,-0.397517361,1,0,0,1.4053,Obsidian_rect,13,0,13,0,1,
60fd8f5cb18c520d817c21be,SCR,2024-06-25_14h22.43.723,LearnStrategy,2023.2.3,MacIntel,60.0024001,9,2,15,,,,,,,,3,15,,,,,,,,,,,,,3,1.226,1,,,,,,0.125681424,-0.235959201,1,0,0,1.2265,Diorite_rect,14,0,14,0,1,
60fd8f5cb18c520d817c21be,SCR,2024-06-25_14h22.43.723,LearnStrategy,2023.2.3,MacIntel,60.0024001,9,2,16,,,,,,,,3,16,,,,,,,,,,,,,3,0.674,1,,,,,,0.125681424,-0.235959201,1,0,0,0.6738,Diorite_rect,15,0,15,0,1,
60fd8f5cb18c520d817c21be,SCR,2024-06-25_14h22.43.723,LearnStrategy,2023.2.3,MacIntel,60.0024001,,,,,,,,,,,,,,,,,,,,,,,,,,,,,,,,,,,,,,,,,,,,,1
60fd8f5cb18c520d817c21be,SCR,2024-06-25_14h22.43.723,LearnStrategy,2023.2.3,MacIntel,60.0024001,,,,,,,,,,,,,,,,,,,,,,,,,,,,,,,,,,,,,,,,,,,,,
60fd8f5cb18c520d817c21be,SCR,2024-06-25_14h22.43.723,LearnStrategy,2023.2.3,MacIntel,60.0024001,,,,,,,,,,,1,09,1,1,,,,,,,,,,,,,,,,,,,,,,,,,,,,,,,
60fd8f5cb18c520d817c21be,SCR,2024-06-25_14h22.43.723,LearnStrategy,2023.2.3,MacIntel,60.0024001,,,,,,,,,,,1,04,1,2,,,,,,,,,,,,,,,,,,,,,,,,,,,,,,,
60fd8f5cb18c520d817c21be,SCR,2024-06-25_14h22.43.723,LearnStrategy,2023.2.3,MacIntel,60.0024001,,,,,,,,,,,8,16,1,3,,,,,,,,,,,,,,,,,,,,,,,,,,,,,,,
60fd8f5cb18c520d817c21be,SCR,2024-06-25_14h22.43.723,LearnStrategy,2023.2.3,MacIntel,60.0024001,,,,,,,,,,,7,10,1,4,,,,,,,,,,,,,,,,,,,,,,,,,,,,,,,
60fd8f5cb18c520d817c21be,SCR,2024-06-25_14h22.43.723,LearnStrategy,2023.2.3,MacIntel,60.0024001,,,,,,,,,,,8,03,1,5,,,,,,,,,,,,,,,,,,,,,,,,,,,,,,,
60fd8f5cb18c520d817c21be,SCR,2024-06-25_14h22.43.723,LearnStrategy,2023.2.3,MacIntel,60.0024001,,,,,,,,,,,6,15,1,6,,,,,,,,,,,,,,,,,,,,,,,,,,,,,,,
60fd8f5cb18c520d817c21be,SCR,2024-06-25_14h22.43.723,LearnStrategy,2023.2.3,MacIntel,60.0024001,,,,,,,,,,,7,14,1,7,,,,,,,,,,,,,,,,,,,,,,,,,,,,,,,
60fd8f5cb18c520d817c21be,SCR,2024-06-25_14h22.43.723,LearnStrategy,2023.2.3,MacIntel,60.0024001,,,,,,,,,,,8,13,1,8,,,,,,,,,,,,,,,,,,,,,,,,,,,,,,,
60fd8f5cb18c520d817c21be,SCR,2024-06-25_14h22.43.723,LearnStrategy,2023.2.3,MacIntel,60.0024001,,,,,,,,,,,7,16,2,1,,,,,,,,,,,,,,,,,,,,,,,,,,,,,,,
60fd8f5cb18c520d817c21be,SCR,2024-06-25_14h22.43.723,LearnStrategy,2023.2.3,MacIntel,60.0024001,,,,,,,,,,,5,14,2,2,,,,,,,,,,,,,,,,,,,,,,,,,,,,,,,
60fd8f5cb18c520d817c21be,SCR,2024-06-25_14h22.43.723,LearnStrategy,2023.2.3,MacIntel,60.0024001,,,,,,,,,,,4,14,2,3,,,,,,,,,,,,,,,,,,,,,,,,,,,,,,,
60fd8f5cb18c520d817c21be,SCR,2024-06-25_14h22.43.723,LearnStrategy,2023.2.3,MacIntel,60.0024001,,,,,,,,,,,3,06,2,4,,,,,,,,,,,,,,,,,,,,,,,,,,,,,,,
60fd8f5cb18c520d817c21be,SCR,2024-06-25_14h22.43.723,LearnStrategy,2023.2.3,MacIntel,60.0024001,,,,,,,,,,,7,04,2,5,,,,,,,,,,,,,,,,,,,,,,,,,,,,,,,
60fd8f5cb18c520d817c21be,SCR,2024-06-25_14h22.43.723,LearnStrategy,2023.2.3,MacIntel,60.0024001,,,,,,,,,,,3,07,2,6,,,,,,,,,,,,,,,,,,,,,,,,,,,,,,,
60fd8f5cb18c520d817c21be,SCR,2024-06-25_14h22.43.723,LearnStrategy,2023.2.3,MacIntel,60.0024001,,,,,,,,,,,1,16,2,7,,,,,,,,,,,,,,,,,,,,,,,,,,,,,,,
60fd8f5cb18c520d817c21be,SCR,2024-06-25_14h22.43.723,LearnStrategy,2023.2.3,MacIntel,60.0024001,,,,,,,,,,,1,02,2,8,,,,,,,,,,,,,,,,,,,,,,,,,,,,,,,
60fd8f5cb18c520d817c21be,SCR,2024-06-25_14h22.43.723,LearnStrategy,2023.2.3,MacIntel,60.0024001,,,,,,,,,,,8,05,3,1,,,,,,,,,,,,,,,,,,,,,,,,,,,,,,,
60fd8f5cb18c520d817c21be,SCR,2024-06-25_14h22.43.723,LearnStrategy,2023.2.3,MacIntel,60.0024001,,,,,,,,,,,5,09,3,2,,,,,,,,,,,,,,,,,,,,,,,,,,,,,,,
60fd8f5cb18c520d817c21be,SCR,2024-06-25_14h22.43.723,LearnStrategy,2023.2.3,MacIntel,60.0024001,,,,,,,,,,,5,08,3,3,,,,,,,,,,,,,,,,,,,,,,,,,,,,,,,
60fd8f5cb18c520d817c21be,SCR,2024-06-25_14h22.43.723,LearnStrategy,2023.2.3,MacIntel,60.0024001,,,,,,,,,,,2,02,3,4,,,,,,,,,,,,,,,,,,,,,,,,,,,,,,,
60fd8f5cb18c520d817c21be,SCR,2024-06-25_14h22.43.723,LearnStrategy,2023.2.3,MacIntel,60.0024001,,,,,,,,,,,2,10,3,5,,,,,,,,,,,,,,,,,,,,,,,,,,,,,,,
60fd8f5cb18c520d817c21be,SCR,2024-06-25_14h22.43.723,LearnStrategy,2023.2.3,MacIntel,60.0024001,,,,,,,,,,,4,03,3,6,,,,,,,,,,,,,,,,,,,,,,,,,,,,,,,
60fd8f5cb18c520d817c21be,SCR,2024-06-25_14h22.43.723,LearnStrategy,2023.2.3,MacIntel,60.0024001,,,,,,,,,,,5,04,3,7,,,,,,,,,,,,,,,,,,,,,,,,,,,,,,,
60fd8f5cb18c520d817c21be,SCR,2024-06-25_14h22.43.723,LearnStrategy,2023.2.3,MacIntel,60.0024001,,,,,,,,,,,4,01,3,8,,,,,,,,,,,,,,,,,,,,,,,,,,,,,,,
60fd8f5cb18c520d817c21be,SCR,2024-06-25_14h22.43.723,LearnStrategy,2023.2.3,MacIntel,60.0024001,,,,,,,,,,,4,09,4,1,,,,,,,,,,,,,,,,,,,,,,,,,,,,,,,
60fd8f5cb18c520d817c21be,SCR,2024-06-25_14h22.43.723,LearnStrategy,2023.2.3,MacIntel,60.0024001,,,,,,,,,,,5,07,4,2,,,,,,,,,,,,,,,,,,,,,,,,,,,,,,,
60fd8f5cb18c520d817c21be,SCR,2024-06-25_14h22.43.723,LearnStrategy,2023.2.3,MacIntel,60.0024001,,,,,,,,,,,8,02,4,3,,,,,,,,,,,,,,,,,,,,,,,,,,,,,,,
60fd8f5cb18c520d817c21be,SCR,2024-06-25_14h22.43.723,LearnStrategy,2023.2.3,MacIntel,60.0024001,,,,,,,,,,,3,02,4,4,,,,,,,,,,,,,,,,,,,,,,,,,,,,,,,
60fd8f5cb18c520d817c21be,SCR,2024-06-25_14h22.43.723,LearnStrategy,2023.2.3,MacIntel,60.0024001,,,,,,,,,,,2,14,4,5,,,,,,,,,,,,,,,,,,,,,,,,,,,,,,,
60fd8f5cb18c520d817c21be,SCR,2024-06-25_14h22.43.723,LearnStrategy,2023.2.3,MacIntel,60.0024001,,,,,,,,,,,3,13,4,6,,,,,,,,,,,,,,,,,,,,,,,,,,,,,,,
60fd8f5cb18c520d817c21be,SCR,2024-06-25_14h22.43.723,LearnStrategy,2023.2.3,MacIntel,60.0024001,,,,,,,,,,,5,11,4,7,,,,,,,,,,,,,,,,,,,,,,,,,,,,,,,
60fd8f5cb18c520d817c21be,SCR,2024-06-25_14h22.43.723,LearnStrategy,2023.2.3,MacIntel,60.0024001,,,,,,,,,,,2,06,4,8,,,,,,,,,,,,,,,,,,,,,,,,,,,,,,,
60fd8f5cb18c520d817c21be,SCR,2024-06-25_14h22.43.723,LearnStrategy,2023.2.3,MacIntel,60.0024001,,,,,,,,,,,6,13,5,1,,,,,,,,,,,,,,,,,,,,,,,,,,,,,,,
60fd8f5cb18c520d817c21be,SCR,2024-06-25_14h22.43.723,LearnStrategy,2023.2.3,MacIntel,60.0024001,,,,,,,,,,,6,09,5,2,,,,,,,,,,,,,,,,,,,,,,,,,,,,,,,
60fd8f5cb18c520d817c21be,SCR,2024-06-25_14h22.43.723,LearnStrategy,2023.2.3,MacIntel,60.0024001,,,,,,,,,,,7,15,5,3,,,,,,,,,,,,,,,,,,,,,,,,,,,,,,,
60fd8f5cb18c520d817c21be,SCR,2024-06-25_14h22.43.723,LearnStrategy,2023.2.3,MacIntel,60.0024001,,,,,,,,,,,3,08,5,4,,,,,,,,,,,,,,,,,,,,,,,,,,,,,,,
60fd8f5cb18c520d817c21be,SCR,2024-06-25_14h22.43.723,LearnStrategy,2023.2.3,MacIntel,60.0024001,,,,,,,,,,,8,09,5,5,,,,,,,,,,,,,,,,,,,,,,,,,,,,,,,
60fd8f5cb18c520d817c21be,SCR,2024-06-25_14h22.43.723,LearnStrategy,2023.2.3,MacIntel,60.0024001,,,,,,,,,,,2,11,5,6,,,,,,,,,,,,,,,,,,,,,,,,,,,,,,,
60fd8f5cb18c520d817c21be,SCR,2024-06-25_14h22.43.723,LearnStrategy,2023.2.3,MacIntel,60.0024001,,,,,,,,,,,4,13,5,7,,,,,,,,,,,,,,,,,,,,,,,,,,,,,,,
60fd8f5cb18c520d817c21be,SCR,2024-06-25_14h22.43.723,LearnStrategy,2023.2.3,MacIntel,60.0024001,,,,,,,,,,,6,06,5,8,,,,,,,,,,,,,,,,,,,,,,,,,,,,,,,
60fd8f5cb18c520d817c21be,SCR,2024-06-25_14h22.43.723,LearnStrategy,2023.2.3,MacIntel,60.0024001,,,,,,,,,,,1,14,6,1,,,,,,,,,,,,,,,,,,,,,,,,,,,,,,,
60fd8f5cb18c520d817c21be,SCR,2024-06-25_14h22.43.723,LearnStrategy,2023.2.3,MacIntel,60.0024001,,,,,,,,,,,4,08,6,2,,,,,,,,,,,,,,,,,,,,,,,,,,,,,,,
60fd8f5cb18c520d817c21be,SCR,2024-06-25_14h22.43.723,LearnStrategy,2023.2.3,MacIntel,60.0024001,,,,,,,,,,,7,08,6,3,,,,,,,,,,,,,,,,,,,,,,,,,,,,,,,
60fd8f5cb18c520d817c21be,SCR,2024-06-25_14h22.43.723,LearnStrategy,2023.2.3,MacIntel,60.0024001,,,,,,,,,,,2,01,6,4,,,,,,,,,,,,,,,,,,,,,,,,,,,,,,,
60fd8f5cb18c520d817c21be,SCR,2024-06-25_14h22.43.723,LearnStrategy,2023.2.3,MacIntel,60.0024001,,,,,,,,,,,6,12,6,5,,,,,,,,,,,,,,,,,,,,,,,,,,,,,,,
60fd8f5cb18c520d817c21be,SCR,2024-06-25_14h22.43.723,LearnStrategy,2023.2.3,MacIntel,60.0024001,,,,,,,,,,,6,08,6,6,,,,,,,,,,,,,,,,,,,,,,,,,,,,,,,
60fd8f5cb18c520d817c21be,SCR,2024-06-25_14h22.43.723,LearnStrategy,2023.2.3,MacIntel,60.0024001,,,,,,,,,,,3,12,6,7,,,,,,,,,,,,,,,,,,,,,,,,,,,,,,,
60fd8f5cb18c520d817c21be,SCR,2024-06-25_14h22.43.723,LearnStrategy,2023.2.3,MacIntel,60.0024001,,,,,,,,,,,1,01,6,8,,,,,,,,,,,,,,,,,,,,,,,,,,,,,,,