participant,condition,date,expName,psychopyVersion,OS,frameRate,block,phase,trial,learn_mouse.x,learn_mouse.y,learn_mouse.leftButton,learn_mouse.midButton,learn_mouse.rightButton,learn_mouse.time,learn_mouse.clicked_name,cat,token,row,col,t_select,cat_mouse_l.x,cat_mouse_l.y,cat_mouse_l.leftButton,cat_mouse_l.midButton,cat_mouse_l.rightButton,cat_mouse_l.time,cat_mouse_l.clicked_name,resp,t_resp,corr,train_trials.thisRepN,train_trials.thisTrialN,train_trials.thisN,train_trials.thisIndex,train_trials.ran,cat_mouse_t.x,cat_mouse_t.y,cat_mouse_t.leftButton,cat_mouse_t.midButton,cat_mouse_t.rightButton,cat_mouse_t.time,cat_mouse_t.clicked_name,test_trials.thisRepN,test_trials.thisTrialN,test_trials.thisN,test_trials.thisIndex,test_trials.ran,Bonus
6101bcb1b6f73b8138d66252,SCN,2024-06-25_13h25.41.534,LearnStrategy,2023.2.3,Win32,29.97601918,,,,,,,,,,,,,,,,,,,,,,,,,,,,,,,,,,,,,,,,,,,
6101bcb1b6f73b8138d66252,SCN,2024-06-25_13h25.41.534,LearnStrategy,2023.2.3,Win32,29.97601918,1,1,1,-0.547222222,0.397222222,1,0,0,6.629,Gabbro_01,4,01,6,1,6.629,0.086111111,-0.255555556,1,0,0,5.163,Diorite_rect,3,5.163,0,0,0,0,0,1,,,,,,,,,,,,,
6101bcb1b6f73b8138d66252,SCN,2024-06-25_13h25.41.534,LearnStrategy,2023.2.3,Win32,29.97601918,1,1,2,-0.222222222,0.405555556,1,0,0,3.469,Obsidian_04,5,04,6,3,3.469,0.123148148,-0.411111111,1,0,0,5.089,Peridotite_rect,7,5.089,0,1,0,1,0,1,,,,,,,,,,,,,
6101bcb1b6f73b8138d66252,SCN,2024-06-25_13h25.41.534,LearnStrategy,2023.2.3,Win32,29.97601918,1,1,3,-0.059259259,0.408333333,1,0,0,5.533,Diorite_14,3,14,6,4,5.533,-0.192592593,-0.247222222,1,0,0,5.026,Basalt_rect,2,5.026,0,2,0,2,0,1,,,,,,,,,,,,,
6101bcb1b6f73b8138d66252,SCN,2024-06-25_13h25.41.534,LearnStrategy,2023.2.3,Win32,29.97601918,1,1,4,0.075,0.082407407,1,0,0,4.926,Pegmatite_15,6,15,4,5,4.926,-0.102777778,-0.412037037,1,0,0,6.682,Pegmatite_rect,6,6.682,1,3,0,3,0,1,,,,,,,,,,,,,
6101bcb1b6f73b8138d66252,SCN,2024-06-25_13h25.41.534,LearnStrategy,2023.2.3,Win32,29.97601918,1,1,5,0.428703704,0.083333333,1,0,0,4.288,Pegmatite_08,6,08,4,7,4.288,-0.135185185,-0.398148148,1,0,0,4.343,Pegmatite_rect,6,4.343,1,4,0,4,0,1,,,,,,,,,,,,,
6101bcb1b6f73b8138d66252,SCN,2024-06-25_13h25.41.534,LearnStrategy,2023.2.3,Win32,29.97601918,1,1,6,-0.408333333,0.386111111,1,0,0,4.852,Pegmatite_06,6,06,6,2,4.852,-0.425,-0.248148148,1,0,0,5.186,Andesite_rect,1,5.186,0,5,0,5,0,1,,,,,,,,,,,,,
6101bcb1b6f73b8138d66252,SCN,2024-06-25_13h25.41.534,LearnStrategy,2023.2.3,Win32,29.97601918,1,1,7,-0.07962963,0.247222222,1,0,0,3.898,Andesite_09,1,09,5,4,3.898,0.386111111,-0.255555556,1,0,0,3.815,Gabbro_rect,4,3.815,0,6,0,6,0,1,,,,,,,,,,,,,
6101bcb1b6f73b8138d66252,SCN,2024-06-25_13h25.41.534,LearnStrategy,2023.2.3,Win32,29.97601918,1,1,8,-0.046296296,0.085185185,1,0,0,3.361,Peridotite_08,7,08,4,4,3.361,-0.362037037,-0.257407407,1,0,0,1.122,Andesite_rect,1,1.122,0,7,0,7,0,1,,,,,,,,,,,,,
6101bcb1b6f73b8138d66252,SCN,2024-06-25_13h25.41.534,LearnStrategy,2023.2.3,Win32,29.97601918,1,1,9,-0.258333333,-0.125925926,1,0,0,2.635,Pumice_04,8,04,3,3,2.635,-0.34537037,-0.27037037,1,0,0,1.084,Andesite_rect,1,1.084,0,8,0,8,0,1,,,,,,,,,,,,,
6101bcb1b6f73b8138d66252,SCN,2024-06-25_13h25.41.534,LearnStrategy,2023.2.3,Win32,29.97601918,1,1,10,-0.411111111,-0.432407407,1,0,0,4.054,Pumice_08,8,08,1,2,4.054,0.351851852,-0.403703704,1,0,0,1.996,Pumice_rect,8,1.996,1,9,0,9,0,1,,,,,,,,,,,,,
6101bcb1b6f73b8138d66252,SCN,2024-06-25_13h25.41.534,LearnStrategy,2023.2.3,Win32,29.97601918,1,1,11,-0.548148148,-0.396296296,1,0,0,3.879,Obsidian_05,5,05,1,1,3.879,0.108333333,-0.400925926,1,0,0,4.862,Peridotite_rect,7,4.862,0,10,0,10,0,1,,,,,,,,,,,,,
6101bcb1b6f73b8138d66252,SCN,2024-06-25_13h25.41.534,LearnStrategy,2023.2.3,Win32,29.97601918,1,1,12,-0.578703704,-0.118518519,1,0,0,4.952,Obsidian_02,5,02,3,1,4.952,-0.37037037,-0.393518519,1,0,0,4.866,Obsidian_rect,5,4.866,1,11,0,11,0,1,,,,,,,,,,,,,
6101bcb1b6f73b8138d66252,SCN,2024-06-25_13h25.41.534,LearnStrategy,2023.2.3,Win32,29.97601918,1,1,13,0.536111111,0.076851852,1,0,0,6.12,Peridotite_13,7,13,4,8,6.12,-0.119444444,-0.248148148,1,0,0,2.044,Basalt_rect,2,2.044,0,12,0,12,0,1,,,,,,,,,,,,,
6101bcb1b6f73b8138d66252,SCN,2024-06-25_13h25.41.534,LearnStrategy,2023.2.3,Win32,29.97601918,1,1,14,-0.387962963,0.062962963,1,0,0,3.134,Peridotite_16,7,16,4,2,3.134,0.125,-0.397222222,1,0,0,2.111,Peridotite_rect,7,2.111,1,13,0,13,0,1,,,,,,,,,,,,,
6101bcb1b6f73b8138d66252,SCN,2024-06-25_13h25.41.534,LearnStrategy,2023.2.3,Win32,29.97601918,1,1,15,-0.548148148,0.081481481,1,0,0,3.317,Pumice_06,8,06,4,1,3.317,0.362962963,-0.415740741,1,0,0,5.779,Pumice_rect,8,5.779,1,14,0,14,0,1,,,,,,,,,,,,,
6101bcb1b6f73b8138d66252,SCN,2024-06-25_13h25.41.534,LearnStrategy,2023.2.3,Win32,29.97601918,1,1,16,-0.072222222,-0.406481481,1,0,0,5.135,Andesite_07,1,07,1,4,5.135,-0.408333333,-0.401851852,1,0,0,6.037,Obsidian_rect,5,6.037,0,15,0,15,0,1,,,,,,,,,,,,,
6101bcb1b6f73b8138d66252,SCN,2024-06-25_13h25.41.534,LearnStrategy,2023.2.3,Win32,29.97601918,1,2,1,,,,,,,,8,10,,,,,,,,,,,1,11.621,0,,,,,,-0.391666667,-0.268518519,1,0,0,11.621,Andesite_rect,0,0,0,0,1,
6101bcb1b6f73b8138d66252,SCN,2024-06-25_13h25.41.534,LearnStrategy,2023.2.3,Win32,29.97601918,1,2,2,,,,,,,,5,11,,,,,,,,,,,5,10.357,1,,,,,,-0.375,-0.393518519,1,0,0,10.357,Obsidian_rect,1,0,1,0,1,
6101bcb1b6f73b8138d66252,SCN,2024-06-25_13h25.41.534,LearnStrategy,2023.2.3,Win32,29.97601918,1,2,3,,,,,,,,4,03,,,,,,,,,,,1,12.48,0,,,,,,-0.408333333,-0.240740741,1,0,0,12.48,Andesite_rect,2,0,2,0,1,
6101bcb1b6f73b8138d66252,SCN,2024-06-25_13h25.41.534,LearnStrategy,2023.2.3,Win32,29.97601918,1,2,4,,,,,,,,3,16,,,,,,,,,,,1,18.269,0,,,,,,-0.4,-0.238888889,1,0,0,18.269,Andesite_rect,3,0,3,0,1,
6101bcb1b6f73b8138d66252,SCN,2024-06-25_13h25.41.534,LearnStrategy,2023.2.3,Win32,29.97601918,1,2,5,,,,,,,,8,15,,,,,,,,,,,7,21.159,0,,,,,,0.112037037,-0.394444444,1,0,0,21.159,Peridotite_rect,4,0,4,0,1,
6101bcb1b6f73b8138d66252,SCN,2024-06-25_13h25.41.534,LearnStrategy,2023.2.3,Win32,29.97601918,1,2,6,,,,,,,,2,06,,,,,,,,,,,1,11.899,0,,,,,,-0.350925926,-0.257407407,1,0,0,11.899,Andesite_rect,5,0,5,0,1,
6101bcb1b6f73b8138d66252,SCN,2024-06-25_13h25.41.534,LearnStrategy,2023.2.3,Win32,29.97601918,1,2,7,,,,,,,,6,12,,,,,,,,,,,6,13.132,1,,,,,,-0.131481481,-0.419444444,1,0,0,13.132,Pegmatite_rect,6,0,6,0,1,
6101bcb1b6f73b8138d66252,SCN,2024-06-25_13h25.41.534,LearnStrategy,2023.2.3,Win32,29.97601918,1,2,8,,,,,,,,6,16,,,,,,,,,,,3,4.282,0,,,,,,0.099074074,-0.247222222,1,0,0,4.282,Diorite_rect,7,0,7,0,1,
6101bcb1b6f73b8138d66252,SCN,2024-06-25_13h25.41.534,LearnStrategy,2023.2.3,Win32,29.97601918,1,2,9,,,,,,,,7,05,,,,,,,,,,,7,9.651,1,,,,,,0.107407407,-0.388888889,1,0,0,9.651,Peridotite_rect,8,0,8,0,1,
6101bcb1b6f73b8138d66252,SCN,2024-06-25_13h25.41.534,LearnStrategy,2023.2.3,Win32,29.97601918,1,2,10,,,,,,,,2,10,,,,,,,,,,,2,3.765,1,,,,,,-0.130555556,-0.244444444,1,0,0,3.765,Basalt_rect,9,0,9,0,1,
6101bcb1b6f73b8138d66252,SCN,2024-06-25_13h25.41.534,LearnStrategy,2023.2.3,Win32,29.97601918,1,2,11,,,,,,,,7,02,,,,,,,,,,,7,1.74,1,,,,,,0.12962963,-0.412962963,1,0,0,1.74,Peridotite_rect,10,0,10,0,1,
6101bcb1b6f73b8138d66252,SCN,2024-06-25_13h25.41.534,LearnStrategy,2023.2.3,Win32,29.97601918,1,2,12,,,,,,,,5,12,,,,,,,,,,,5,4.797,1,,,,,,-0.352777778,-0.410185185,1,0,0,4.797,Obsidian_rect,11,0,11,0,1,
6101bcb1b6f73b8138d66252,SCN,2024-06-25_13h25.41.534,LearnStrategy,2023.2.3,Win32,29.97601918,1,2,13,,,,,,,,3,06,,,,,,,,,,,3,10.453,1,,,,,,0.123148148,-0.25,1,0,0,10.453,Diorite_rect,12,0,12,0,1,
6101bcb1b6f73b8138d66252,SCN,2024-06-25_13h25.41.534,LearnStrategy,2023.2.3,Win32,29.97601918,1,2,14,,,,,,,,1,02,,,,,,,,,,,4,8.004,0,,,,,,0.338888889,-0.263888889,1,0,0,8.004,Gabbro_rect,13,0,13,0,1,
6101bcb1b6f73b8138d66252,SCN,2024-06-25_13h25.41.534,LearnStrategy,2023.2.3,Win32,29.97601918,1,2,15,,,,,,,,1,10,,,,,,,,,,,4,1.722,0,,,,,,0.338888889,-0.263888889,1,0,0,1.722,Gabbro_rect,14,0,14,0,1,
6101bcb1b6f73b8138d66252,SCN,2024-06-25_13h25.41.534,LearnStrategy,2023.2.3,Win32,29.97601918,1,2,16,,,,,,,,4,08,,,,,,,,,,,2,6.125,0,,,,,,-0.144444444,-0.25462963,1,0,0,6.125,Basalt_rect,15,0,15,0,1,
6101bcb1b6f73b8138d66252,SCN,2024-06-25_13h25.41.534,LearnStrategy,2023.2.3,Win32,29.97601918,2,1,1,-0.237037037,0.090740741,1,0,0,11.089,Obsidian_14,5,14,4,3,11.089,-0.435185185,-0.402777778,1,0,0,1.957,Obsidian_rect,5,1.957,1,0,0,0,0,1,,,,,,,,,,,,,
6101bcb1b6f73b8138d66252,SCN,2024-06-25_13h25.41.534,LearnStrategy,2023.2.3,Win32,29.97601918,2,1,2,-0.402777778,0.275,1,0,0,1.452,Gabbro_15,4,15,5,2,1.452,-0.133333333,-0.261111111,1,0,0,7.649,Basalt_rect,2,7.649,0,1,0,1,0,1,,,,,,,,,,,,,
6101bcb1b6f73b8138d66252,SCN,2024-06-25_13h25.41.534,LearnStrategy,2023.2.3,Win32,29.97601918,2,1,3,-0.525925926,-0.265740741,1,0,0,11.923,Peridotite_12,7,12,2,1,11.923,0.350925926,-0.247222222,1,0,0,1.627,Gabbro_rect,4,1.627,0,2,0,2,0,1,,,,,,,,,,,,,
6101bcb1b6f73b8138d66252,SCN,2024-06-25_13h25.41.534,LearnStrategy,2023.2.3,Win32,29.97601918,2,1,4,0.399074074,0.252777778,1,0,0,2.817,Peridotite_15,7,15,5,7,2.817,0.162962963,-0.405555556,1,0,0,1.216,Peridotite_rect,7,1.216,1,3,0,3,0,1,,,,,,,,,,,,,
6101bcb1b6f73b8138d66252,SCN,2024-06-25_13h25.41.534,LearnStrategy,2023.2.3,Win32,29.97601918,2,1,5,0.285185185,-0.4,1,0,0,6.613,Pegmatite_05,6,05,1,6,6.613,-0.178703704,-0.263888889,1,0,0,2.99,Basalt_rect,2,2.99,0,4,0,4,0,1,,,,,,,,,,,,,
6101bcb1b6f73b8138d66252,SCN,2024-06-25_13h25.41.534,LearnStrategy,2023.2.3,Win32,29.97601918,2,1,6,-0.544444444,0.256481481,1,0,0,5.568,Pumice_09,8,09,5,1,5.568,-0.146296296,-0.241666667,1,0,0,2.591,Basalt_rect,2,2.591,0,5,0,5,0,1,,,,,,,,,,,,,
6101bcb1b6f73b8138d66252,SCN,2024-06-25_13h25.41.534,LearnStrategy,2023.2.3,Win32,29.97601918,2,1,7,-0.550925926,0.083333333,1,0,0,2.795,Pumice_06,8,06,4,1,2.795,-0.107407407,-0.236111111,1,0,0,1.09,Basalt_rect,2,1.09,0,6,0,6,0,1,,,,,,,,,,,,,
6101bcb1b6f73b8138d66252,SCN,2024-06-25_13h25.41.534,LearnStrategy,2023.2.3,Win32,29.97601918,2,1,8,0.560185185,-0.107407407,1,0,0,2.88,Obsidian_07,5,07,3,8,2.88,-0.196296296,-0.251851852,1,0,0,4.735,Basalt_rect,2,4.735,0,7,0,7,0,1,,,,,,,,,,,,,
6101bcb1b6f73b8138d66252,SCN,2024-06-25_13h25.41.534,LearnStrategy,2023.2.3,Win32,29.97601918,2,1,9,-0.087037037,-0.268518519,1,0,0,2.235,Basalt_16,2,16,2,4,2.235,-0.087037037,-0.268518519,1,0,0,1.799,Basalt_rect,2,1.799,1,8,0,8,0,1,,,,,,,,,,,,,
6101bcb1b6f73b8138d66252,SCN,2024-06-25_13h25.41.534,LearnStrategy,2023.2.3,Win32,29.97601918,2,1,10,0.546296296,0.25462963,1,0,0,10.399,Pegmatite_09,6,09,5,8,10.399,0.117592593,-0.416666667,1,0,0,2.116,Peridotite_rect,7,2.116,0,9,0,9,0,1,,,,,,,,,,,,,
6101bcb1b6f73b8138d66252,SCN,2024-06-25_13h25.41.534,LearnStrategy,2023.2.3,Win32,29.97601918,2,1,11,0.543518519,-0.27037037,1,0,0,2.769,Diorite_08,3,08,2,8,2.769,-0.092592593,-0.408333333,1,0,0,2.832,Pegmatite_rect,6,2.832,0,10,0,10,0,1,,,,,,,,,,,,,
6101bcb1b6f73b8138d66252,SCN,2024-06-25_13h25.41.534,LearnStrategy,2023.2.3,Win32,29.97601918,2,1,12,0.376851852,-0.259259259,1,0,0,2.292,Diorite_02,3,02,2,7,2.292,0.092592593,-0.267592593,1,0,0,1.428,Diorite_rect,3,1.428,1,11,0,11,0,1,,,,,,,,,,,,,
6101bcb1b6f73b8138d66252,SCN,2024-06-25_13h25.41.534,LearnStrategy,2023.2.3,Win32,29.97601918,2,1,13,-0.096296296,-0.426851852,1,0,0,7.855,Andesite_07,1,07,1,4,7.855,0.100925926,-0.241666667,1,0,0,1.656,Diorite_rect,3,1.656,0,12,0,12,0,1,,,,,,,,,,,,,
6101bcb1b6f73b8138d66252,SCN,2024-06-25_13h25.41.534,LearnStrategy,2023.2.3,Win32,29.97601918,2,1,14,-0.541666667,-0.277777778,1,0,0,2.176,Peridotite_12,7,12,2,1,2.176,-0.158333333,-0.402777778,1,0,0,3.322,Pegmatite_rect,6,3.322,0,13,0,13,0,1,,,,,,,,,,,,,
6101bcb1b6f73b8138d66252,SCN,2024-06-25_13h25.41.534,LearnStrategy,2023.2.3,Win32,29.97601918,2,1,15,-0.362037037,-0.098148148,1,0,0,2.729,Peridotite_10,7,10,3,2,2.729,0.103703704,-0.40462963,1,0,0,4.045,Peridotite_rect,7,4.045,1,14,0,14,0,1,,,,,,,,,,,,,
6101bcb1b6f73b8138d66252,SCN,2024-06-25_13h25.41.534,LearnStrategy,2023.2.3,Win32,29.97601918,2,1,16,-0.101851852,0.394444444,1,0,0,3.23,Diorite_14,3,14,6,4,3.23,0.125,-0.258333333,1,0,0,3.704,Diorite_rect,3,3.704,1,15,0,15,0,1,,,,,,,,,,,,,
6101bcb1b6f73b8138d66252,SCN,2024-06-25_13h25.41.534,LearnStrategy,2023.2.3,Win32,29.97601918,2,2,1,,,,,,,,3,13,,,,,,,,,,,3,5.19,1,,,,,,0.160185185,-0.25462963,1,0,0,5.19,Diorite_rect,0,0,0,0,1,
6101bcb1b6f73b8138d66252,SCN,2024-06-25_13h25.41.534,LearnStrategy,2023.2.3,Win32,29.97601918,2,2,2,,,,,,,,3,09,,,,,,,,,,,3,1.192,1,,,,,,0.160185185,-0.25462963,1,0,0,1.192,Diorite_rect,1,0,1,0,1,
6101bcb1b6f73b8138d66252,SCN,2024-06-25_13h25.41.534,LearnStrategy,2023.2.3,Win32,29.97601918,2,2,3,,,,,,,,1,14,,,,,,,,,,,7,5.032,0,,,,,,0.124074074,-0.407407407,1,0,0,5.032,Peridotite_rect,2,0,2,0,1,
6101bcb1b6f73b8138d66252,SCN,2024-06-25_13h25.41.534,LearnStrategy,2023.2.3,Win32,29.97601918,2,2,4,,,,,,,,7,07,,,,,,,,,,,6,3.788,0,,,,,,-0.127777778,-0.398148148,1,0,0,3.788,Pegmatite_rect,3,0,3,0,1,
6101bcb1b6f73b8138d66252,SCN,2024-06-25_13h25.41.534,LearnStrategy,2023.2.3,Win32,29.97601918,2,2,5,,,,,,,,2,02,,,,,,,,,,,1,19.577,0,,,,,,-0.432407407,-0.262037037,1,0,0,19.577,Andesite_rect,4,0,4,0,1,
6101bcb1b6f73b8138d66252,SCN,2024-06-25_13h25.41.534,LearnStrategy,2023.2.3,Win32,29.97601918,2,2,6,,,,,,,,5,09,,,,,,,,,,,5,1.779,1,,,,,,-0.364814815,-0.406481481,1,0,0,1.779,Obsidian_rect,5,0,5,0,1,
6101bcb1b6f73b8138d66252,SCN,2024-06-25_13h25.41.534,LearnStrategy,2023.2.3,Win32,29.97601918,2,2,7,,,,,,,,7,06,,,,,,,,,,,7,5.757,1,,,,,,0.138888889,-0.398148148,1,0,0,5.757,Peridotite_rect,6,0,6,0,1,
6101bcb1b6f73b8138d66252,SCN,2024-06-25_13h25.41.534,LearnStrategy,2023.2.3,Win32,29.97601918,2,2,8,,,,,,,,6,10,,,,,,,,,,,7,1.466,0,,,,,,0.138888889,-0.398148148,1,0,0,1.466,Peridotite_rect,7,0,7,0,1,
6101bcb1b6f73b8138d66252,SCN,2024-06-25_13h25.41.534,LearnStrategy,2023.2.3,Win32,29.97601918,2,2,9,,,,,,,,4,16,,,,,,,,,,,2,2.426,0,,,,,,-0.119444444,-0.243518519,1,0,0,2.426,Basalt_rect,8,0,8,0,1,
6101bcb1b6f73b8138d66252,SCN,2024-06-25_13h25.41.534,LearnStrategy,2023.2.3,Win32,29.97601918,2,2,10,,,,,,,,8,16,,,,,,,,,,,8,8.662,1,,,,,,0.417592593,-0.399074074,1,0,0,8.662,Pumice_rect,9,0,9,0,1,
6101bcb1b6f73b8138d66252,SCN,2024-06-25_13h25.41.534,LearnStrategy,2023.2.3,Win32,29.97601918,2,2,11,,,,,,,,1,03,,,,,,,,,,,1,2.154,1,,,,,,-0.396296296,-0.259259259,1,0,0,2.154,Andesite_rect,10,0,10,0,1,
6101bcb1b6f73b8138d66252,SCN,2024-06-25_13h25.41.534,LearnStrategy,2023.2.3,Win32,29.97601918,2,2,12,,,,,,,,2,05,,,,,,,,,,,4,9.839,0,,,,,,0.381481481,-0.237037037,1,0,0,9.839,Gabbro_rect,11,0,11,0,1,
6101bcb1b6f73b8138d66252,SCN,2024-06-25_13h25.41.534,LearnStrategy,2023.2.3,Win32,29.97601918,2,2,13,,,,,,,,5,08,,,,,,,,,,,5,1.36,1,,,,,,-0.378703704,-0.40462963,1,0,0,1.36,Obsidian_rect,12,0,12,0,1,
6101bcb1b6f73b8138d66252,SCN,2024-06-25_13h25.41.534,LearnStrategy,2023.2.3,Win32,29.97601918,2,2,14,,,,,,,,6,07,,,,,,,,,,,6,5.823,1,,,,,,-0.146296296,-0.421296296,1,0,0,5.823,Pegmatite_rect,13,0,13,0,1,
6101bcb1b6f73b8138d66252,SCN,2024-06-25_13h25.41.534,LearnStrategy,2023.2.3,Win32,29.97601918,2,2,15,,,,,,,,8,13,,,,,,,,,,,8,1.377,1,,,,,,0.332407407,-0.392592593,1,0,0,1.377,Pumice_rect,14,0,14,0,1,
6101bcb1b6f73b8138d66252,SCN,2024-06-25_13h25.41.534,LearnStrategy,2023.2.3,Win32,29.97601918,2,2,16,,,,,,,,4,14,,,,,,,,,,,2,1.276,0,,,,,,-0.141666667,-0.248148148,1,0,0,1.276,Basalt_rect,15,0,15,0,1,
6101bcb1b6f73b8138d66252,SCN,2024-06-25_13h25.41.534,LearnStrategy,2023.2.3,Win32,29.97601918,3,1,1,-0.063888889,-0.255555556,1,0,0,11.476,Basalt_16,2,16,2,4,11.476,0.367592593,-0.247222222,1,0,0,3.327,Gabbro_rect,4,3.327,0,0,0,0,0,1,,,,,,,,,,,,,
6101bcb1b6f73b8138d66252,SCN,2024-06-25_13h25.41.534,LearnStrategy,2023.2.3,Win32,29.97601918,3,1,2,-0.531481481,0.416666667,1,0,0,14.151,Gabbro_01,4,01,6,1,14.151,0.385185185,-0.240740741,1,0,0,2.457,Gabbro_rect,4,2.457,1,1,0,1,0,1,,,,,,,,,,,,,
6101bcb1b6f73b8138d66252,SCN,2024-06-25_13h25.41.534,LearnStrategy,2023.2.3,Win32,29.97601918,3,1,3,0.516666667,0.234259259,1,0,0,5.82,Pegmatite_09,6,09,5,8,5.82,-0.164814815,-0.402777778,1,0,0,1.714,Pegmatite_rect,6,1.714,1,2,0,2,0,1,,,,,,,,,,,,,
6101bcb1b6f73b8138d66252,SCN,2024-06-25_13h25.41.534,LearnStrategy,2023.2.3,Win32,29.97601918,3,1,4,-0.081481481,0.078703704,1,0,0,3.987,Peridotite_08,7,08,4,4,3.987,0.374074074,-0.250925926,1,0,0,0.997,Gabbro_rect,4,0.997,0,3,0,3,0,1,,,,,,,,,,,,,
6101bcb1b6f73b8138d66252,SCN,2024-06-25_13h25.41.534,LearnStrategy,2023.2.3,Win32,29.97601918,3,1,5,-0.117592593,-0.1,1,0,0,7.183,Gabbro_09,4,09,3,4,7.183,0.373148148,-0.251851852,1,0,0,3.811,Gabbro_rect,4,3.811,1,4,0,4,0,1,,,,,,,,,,,,,
6101bcb1b6f73b8138d66252,SCN,2024-06-25_13h25.41.534,LearnStrategy,2023.2.3,Win32,29.97601918,3,1,6,-0.234259259,-0.442592593,1,0,0,11.161,Gabbro_10,4,10,1,3,11.161,0.369444444,-0.261111111,1,0,0,1.392,Gabbro_rect,4,1.392,1,5,0,5,0,1,,,,,,,,,,,,,
6101bcb1b6f73b8138d66252,SCN,2024-06-25_13h25.41.534,LearnStrategy,2023.2.3,Win32,29.97601918,3,1,7,-0.39537037,-0.253703704,1,0,0,5.972,Gabbro_11,4,11,2,2,5.972,-0.362962963,-0.257407407,1,0,0,2.529,Andesite_rect,1,2.529,0,6,0,6,0,1,,,,,,,,,,,,,
6101bcb1b6f73b8138d66252,SCN,2024-06-25_13h25.41.534,LearnStrategy,2023.2.3,Win32,29.97601918,3,1,8,-0.388888889,0.236111111,1,0,0,9.842,Gabbro_15,4,15,5,2,9.842,-0.110185185,-0.258333333,1,0,0,1.188,Basalt_rect,2,1.188,0,7,0,7,0,1,,,,,,,,,,,,,
6101bcb1b6f73b8138d66252,SCN,2024-06-25_13h25.41.534,LearnStrategy,2023.2.3,Win32,29.97601918,3,1,9,-0.210185185,0.091666667,1,0,0,4.488,Obsidian_14,5,14,4,3,4.488,-0.084259259,-0.258333333,1,0,0,1.969,Basalt_rect,2,1.969,0,8,0,8,0,1,,,,,,,,,,,,,
6101bcb1b6f73b8138d66252,SCN,2024-06-25_13h25.41.534,LearnStrategy,2023.2.3,Win32,29.97601918,3,1,10,0.410185185,-0.12037037,1,0,0,4.377,Diorite_15,3,15,3,7,4.377,-0.142592593,-0.265740741,1,0,0,1.177,Basalt_rect,2,1.177,0,9,0,9,0,1,,,,,,,,,,,,,
6101bcb1b6f73b8138d66252,SCN,2024-06-25_13h25.41.534,LearnStrategy,2023.2.3,Win32,29.97601918,3,1,11,-0.102777778,-0.255555556,1,0,0,1.95,Basalt_16,2,16,2,4,1.95,-0.1,-0.250925926,1,0,0,0.636,Basalt_rect,2,0.636,1,10,0,10,0,1,,,,,,,,,,,,,
6101bcb1b6f73b8138d66252,SCN,2024-06-25_13h25.41.534,LearnStrategy,2023.2.3,Win32,29.97601918,3,1,12,-0.383333333,0.411111111,1,0,0,14.507,Pegmatite_06,6,06,6,2,14.507,-0.086111111,-0.401851852,1,0,0,2.214,Pegmatite_rect,6,2.214,1,11,0,11,0,1,,,,,,,,,,,,,
6101bcb1b6f73b8138d66252,SCN,2024-06-25_13h25.41.534,LearnStrategy,2023.2.3,Win32,29.97601918,3,1,13,0.109259259,0.244444444,1,0,0,4.069,Diorite_11,3,11,5,5,4.069,0.062037037,-0.263888889,1,0,0,1.916,Diorite_rect,3,1.916,1,12,0,12,0,1,,,,,,,,,,,,,
6101bcb1b6f73b8138d66252,SCN,2024-06-25_13h25.41.534,LearnStrategy,2023.2.3,Win32,29.97601918,3,1,14,0.256481481,0.098148148,1,0,0,1.746,Andesite_04,1,04,4,6,1.746,0.039814815,-0.402777778,1,0,0,2.853,Peridotite_rect,7,2.853,0,13,0,13,0,1,,,,,,,,,,,,,
6101bcb1b6f73b8138d66252,SCN,2024-06-25_13h25.41.534,LearnStrategy,2023.2.3,Win32,29.97601918,3,1,15,-0.366666667,-0.116666667,1,0,0,7.29,Peridotite_10,7,10,3,2,7.29,0.090740741,-0.402777778,1,0,0,1.477,Peridotite_rect,7,1.477,1,14,0,14,0,1,,,,,,,,,,,,,
6101bcb1b6f73b8138d66252,SCN,2024-06-25_13h25.41.534,LearnStrategy,2023.2.3,Win32,29.97601918,3,1,16,-0.225,-0.272222222,1,0,0,1.581,Andesite_16,1,16,2,3,1.581,0.07037037,-0.244444444,1,0,0,1.812,Diorite_rect,3,1.812,0,15,0,15,0,1,,,,,,,,,,,,,
6101bcb1b6f73b8138d66252,SCN,2024-06-25_13h25.41.534,LearnStrategy,2023.2.3,Win32,29.97601918,3,2,1,,,,,,,,7,14,,,,,,,,,,,7,8.326,1,,,,,,0.112037037,-0.410185185,1,0,0,8.326,Peridotite_rect,0,0,0,0,1,
6101bcb1b6f73b8138d66252,SCN,2024-06-25_13h25.41.534,LearnStrategy,2023.2.3,Win32,29.97601918,3,2,2,,,,,,,,6,03,,,,,,,,,,,6,14.359,1,,,,,,-0.121296296,-0.414814815,1,0,0,14.359,Pegmatite_rect,1,0,1,0,1,
6101bcb1b6f73b8138d66252,SCN,2024-06-25_13h25.41.534,LearnStrategy,2023.2.3,Win32,29.97601918,3,2,3,,,,,,,,4,13,,,,,,,,,,,2,4.1,0,,,,,,-0.149074074,-0.257407407,1,0,0,4.1,Basalt_rect,2,0,2,0,1,
6101bcb1b6f73b8138d66252,SCN,2024-06-25_13h25.41.534,LearnStrategy,2023.2.3,Win32,29.97601918,3,2,4,,,,,,,,8,03,,,,,,,,,,,8,1.789,1,,,,,,0.375925926,-0.414814815,1,0,0,1.789,Pumice_rect,3,0,3,0,1,
6101bcb1b6f73b8138d66252,SCN,2024-06-25_13h25.41.534,LearnStrategy,2023.2.3,Win32,29.97601918,3,2,5,,,,,,,,6,11,,,,,,,,,,,6,5.522,1,,,,,,-0.146296296,-0.394444444,1,0,0,5.522,Pegmatite_rect,4,0,4,0,1,
6101bcb1b6f73b8138d66252,SCN,2024-06-25_13h25.41.534,LearnStrategy,2023.2.3,Win32,29.97601918,3,2,6,,,,,,,,4,05,,,,,,,,,,,4,15.669,1,,,,,,0.359259259,-0.258333333,1,0,0,15.669,Gabbro_rect,5,0,5,0,1,
6101bcb1b6f73b8138d66252,SCN,2024-06-25_13h25.41.534,LearnStrategy,2023.2.3,Win32,29.97601918,3,2,7,,,,,,,,8,02,,,,,,,,,,,8,2.003,1,,,,,,0.35462963,-0.407407407,1,0,0,2.003,Pumice_rect,6,0,6,0,1,
6101bcb1b6f73b8138d66252,SCN,2024-06-25_13h25.41.534,LearnStrategy,2023.2.3,Win32,29.97601918,3,2,8,,,,,,,,2,12,,,,,,,,,,,1,2.937,0,,,,,,-0.406481481,-0.25462963,1,0,0,2.937,Andesite_rect,7,0,7,0,1,
6101bcb1b6f73b8138d66252,SCN,2024-06-25_13h25.41.534,LearnStrategy,2023.2.3,Win32,29.97601918,3,2,9,,,,,,,,3,10,,,,,,,,,,,3,2.878,1,,,,,,0.062037037,-0.266666667,1,0,0,2.878,Diorite_rect,8,0,8,0,1,
6101bcb1b6f73b8138d66252,SCN,2024-06-25_13h25.41.534,LearnStrategy,2023.2.3,Win32,29.97601918,3,2,10,,,,,,,,5,16,,,,,,,,,,,5,1.27,1,,,,,,-0.437037037,-0.415740741,1,0,0,1.27,Obsidian_rect,9,0,9,0,1,
6101bcb1b6f73b8138d66252,SCN,2024-06-25_13h25.41.534,LearnStrategy,2023.2.3,Win32,29.97601918,3,2,11,,,,,,,,5,06,,,,,,,,,,,5,0.99,1,,,,,,-0.435185185,-0.416666667,1,0,0,0.99,Obsidian_rect,10,0,10,0,1,
6101bcb1b6f73b8138d66252,SCN,2024-06-25_13h25.41.534,LearnStrategy,2023.2.3,Win32,29.97601918,3,2,12,,,,,,,,3,07,,,,,,,,,,,3,4.03,1,,,,,,0.108333333,-0.246296296,1,0,0,4.03,Diorite_rect,11,0,11,0,1,
6101bcb1b6f73b8138d66252,SCN,2024-06-25_13h25.41.534,LearnStrategy,2023.2.3,Win32,29.97601918,3,2,13,,,,,,,,1,11,,,,,,,,,,,1,2.601,1,,,,,,-0.351851852,-0.244444444,1,0,0,2.601,Andesite_rect,12,0,12,0,1,
6101bcb1b6f73b8138d66252,SCN,2024-06-25_13h25.41.534,LearnStrategy,2023.2.3,Win32,29.97601918,3,2,14,,,,,,,,1,01,,,,,,,,,,,2,2.126,0,,,,,,-0.119444444,-0.255555556,1,0,0,2.126,Basalt_rect,13,0,13,0,1,
6101bcb1b6f73b8138d66252,SCN,2024-06-25_13h25.41.534,LearnStrategy,2023.2.3,Win32,29.97601918,3,2,15,,,,,,,,2,14,,,,,,,,,,,2,2.539,1,,,,,,-0.119444444,-0.255555556,1,0,0,2.539,Basalt_rect,14,0,14,0,1,
6101bcb1b6f73b8138d66252,SCN,2024-06-25_13h25.41.534,LearnStrategy,2023.2.3,Win32,29.97601918,3,2,16,,,,,,,,7,04,,,,,,,,,,,6,3.034,0,,,,,,-0.073148148,-0.414814815,1,0,0,3.034,Pegmatite_rect,15,0,15,0,1,
6101bcb1b6f73b8138d66252,SCN,2024-06-25_13h25.41.534,LearnStrategy,2023.2.3,Win32,29.97601918,4,1,1,0.390740741,-0.091666667,1,0,0,9.017,Diorite_15,3,15,3,7,9.017,0.132407407,-0.262037037,1,0,0,1.936,Diorite_rect,3,1.936,1,0,0,0,0,1,,,,,,,,,,,,,
6101bcb1b6f73b8138d66252,SCN,2024-06-25_13h25.41.534,LearnStrategy,2023.2.3,Win32,29.97601918,4,1,2,-0.561111111,-0.42962963,1,0,0,3.513,Obsidian_05,5,05,1,1,3.513,-0.412037037,-0.396296296,1,0,0,1.594,Obsidian_rect,5,1.594,1,1,0,1,0,1,,,,,,,,,,,,,
6101bcb1b6f73b8138d66252,SCN,2024-06-25_13h25.41.534,LearnStrategy,2023.2.3,Win32,29.97601918,4,1,3,-0.363888889,-0.406481481,1,0,0,1.048,Pumice_08,8,08,1,2,1.048,0.428703704,-0.418518519,1,0,0,0.963,Pumice_rect,8,0.963,1,2,0,2,0,1,,,,,,,,,,,,,
6101bcb1b6f73b8138d66252,SCN,2024-06-25_13h25.41.534,LearnStrategy,2023.2.3,Win32,29.97601918,4,1,4,-0.218518519,-0.425925926,1,0,0,0.892,Gabbro_10,4,10,1,3,0.892,-0.328703704,-0.264814815,1,0,0,1.639,Andesite_rect,1,1.639,0,3,0,3,0,1,,,,,,,,,,,,,
6101bcb1b6f73b8138d66252,SCN,2024-06-25_13h25.41.534,LearnStrategy,2023.2.3,Win32,29.97601918,4,1,5,-0.105555556,-0.444444444,1,0,0,1.506,Andesite_07,1,07,1,4,1.506,0.115740741,-0.24537037,1,0,0,1.659,Diorite_rect,3,1.659,0,4,0,4,0,1,,,,,,,,,,,,,
6101bcb1b6f73b8138d66252,SCN,2024-06-25_13h25.41.534,LearnStrategy,2023.2.3,Win32,29.97601918,4,1,6,0.086111111,-0.405555556,1,0,0,0.858,Gabbro_12,4,12,1,5,0.858,-0.346296296,-0.262962963,1,0,0,3.739,Andesite_rect,1,3.739,0,5,0,5,0,1,,,,,,,,,,,,,
6101bcb1b6f73b8138d66252,SCN,2024-06-25_13h25.41.534,LearnStrategy,2023.2.3,Win32,29.97601918,4,1,7,0.256481481,-0.416666667,1,0,0,1.427,Pegmatite_05,6,05,1,6,1.427,0.102777778,-0.22962963,1,0,0,1.339,Diorite_rect,3,1.339,0,6,0,6,0,1,,,,,,,,,,,,,
6101bcb1b6f73b8138d66252,SCN,2024-06-25_13h25.41.534,LearnStrategy,2023.2.3,Win32,29.97601918,4,1,8,0.401851852,-0.416666667,1,0,0,1.087,Pegmatite_13,6,13,1,7,1.087,-0.093518519,-0.403703704,1,0,0,1.795,Pegmatite_rect,6,1.795,1,7,0,7,0,1,,,,,,,,,,,,,
6101bcb1b6f73b8138d66252,SCN,2024-06-25_13h25.41.534,LearnStrategy,2023.2.3,Win32,29.97601918,4,1,9,0.587037037,-0.410185185,1,0,0,1.014,Pumice_14,8,14,1,8,1.014,0.388888889,-0.400925926,1,0,0,1.101,Pumice_rect,8,1.101,1,8,0,8,0,1,,,,,,,,,,,,,
6101bcb1b6f73b8138d66252,SCN,2024-06-25_13h25.41.534,LearnStrategy,2023.2.3,Win32,29.97601918,4,1,10,-0.55,-0.274074074,1,0,0,0.818,Peridotite_12,7,12,2,1,0.818,0.098148148,-0.396296296,1,0,0,3.175,Peridotite_rect,7,3.175,1,9,0,9,0,1,,,,,,,,,,,,,
6101bcb1b6f73b8138d66252,SCN,2024-06-25_13h25.41.534,LearnStrategy,2023.2.3,Win32,29.97601918,4,1,11,-0.384259259,-0.273148148,1,0,0,0.849,Gabbro_11,4,11,2,2,0.849,-0.391666667,-0.249074074,1,0,0,0.74,Andesite_rect,1,0.74,0,10,0,10,0,1,,,,,,,,,,,,,
6101bcb1b6f73b8138d66252,SCN,2024-06-25_13h25.41.534,LearnStrategy,2023.2.3,Win32,29.97601918,4,1,12,-0.216666667,-0.286111111,1,0,0,0.833,Andesite_16,1,16,2,3,0.833,-0.365740741,-0.259259259,1,0,0,1.767,Andesite_rect,1,1.767,1,11,0,11,0,1,,,,,,,,,,,,,
6101bcb1b6f73b8138d66252,SCN,2024-06-25_13h25.41.534,LearnStrategy,2023.2.3,Win32,29.97601918,4,1,13,-0.088888889,-0.262962963,1,0,0,1.415,Basalt_16,2,16,2,4,1.415,-0.087037037,-0.264814815,1,0,0,1.061,Basalt_rect,2,1.061,1,12,0,12,0,1,,,,,,,,,,,,,
6101bcb1b6f73b8138d66252,SCN,2024-06-25_13h25.41.534,LearnStrategy,2023.2.3,Win32,29.97601918,4,1,14,0.102777778,-0.256481481,1,0,0,0.734,Andesite_05,1,05,2,5,0.734,0.105555556,-0.394444444,1,0,0,2.398,Peridotite_rect,7,2.398,0,13,0,13,0,1,,,,,,,,,,,,,
6101bcb1b6f73b8138d66252,SCN,2024-06-25_13h25.41.534,LearnStrategy,2023.2.3,Win32,29.97601918,4,1,15,0.239814815,-0.272222222,1,0,0,1.051,Pumice_05,8,05,2,6,1.051,0.352777778,-0.419444444,1,0,0,1.917,Pumice_rect,8,1.917,1,14,0,14,0,1,,,,,,,,,,,,,
6101bcb1b6f73b8138d66252,SCN,2024-06-25_13h25.41.534,LearnStrategy,2023.2.3,Win32,29.97601918,4,1,16,0.397222222,-0.257407407,1,0,0,1.081,Diorite_02,3,02,2,7,1.081,0.078703704,-0.253703704,1,0,0,3.383,Diorite_rect,3,3.383,1,15,0,15,0,1,,,,,,,,,,,,,
6101bcb1b6f73b8138d66252,SCN,2024-06-25_13h25.41.534,LearnStrategy,2023.2.3,Win32,29.97601918,4,2,1,,,,,,,,6,12,,,,,,,,,,,6,10.191,1,,,,,,-0.134259259,-0.401851852,1,0,0,10.191,Pegmatite_rect,0,0,0,0,1,
6101bcb1b6f73b8138d66252,SCN,2024-06-25_13h25.41.534,LearnStrategy,2023.2.3,Win32,29.97601918,4,2,2,,,,,,,,3,16,,,,,,,,,,,3,4.063,1,,,,,,0.118518519,-0.24537037,1,0,0,4.063,Diorite_rect,1,0,1,0,1,
6101bcb1b6f73b8138d66252,SCN,2024-06-25_13h25.41.534,LearnStrategy,2023.2.3,Win32,29.97601918,4,2,3,,,,,,,,2,02,,,,,,,,,,,4,2.616,0,,,,,,0.452777778,-0.244444444,1,0,0,2.616,Gabbro_rect,2,0,2,0,1,
6101bcb1b6f73b8138d66252,SCN,2024-06-25_13h25.41.534,LearnStrategy,2023.2.3,Win32,29.97601918,4,2,4,,,,,,,,7,07,,,,,,,,,,,1,17.769,0,,,,,,-0.386111111,-0.246296296,1,0,0,17.769,Andesite_rect,3,0,3,0,1,
6101bcb1b6f73b8138d66252,SCN,2024-06-25_13h25.41.534,LearnStrategy,2023.2.3,Win32,29.97601918,4,2,5,,,,,,,,3,06,,,,,,,,,,,3,1.596,1,,,,,,0.144444444,-0.260185185,1,0,0,1.596,Diorite_rect,4,0,4,0,1,
6101bcb1b6f73b8138d66252,SCN,2024-06-25_13h25.41.534,LearnStrategy,2023.2.3,Win32,29.97601918,4,2,6,,,,,,,,1,01,,,,,,,,,,,2,7.411,0,,,,,,-0.146296296,-0.255555556,1,0,0,7.411,Basalt_rect,5,0,5,0,1,
6101bcb1b6f73b8138d66252,SCN,2024-06-25_13h25.41.534,LearnStrategy,2023.2.3,Win32,29.97601918,4,2,7,,,,,,,,5,08,,,,,,,,,,,5,1.19,1,,,,,,-0.322222222,-0.394444444,1,0,0,1.19,Obsidian_rect,6,0,6,0,1,
6101bcb1b6f73b8138d66252,SCN,2024-06-25_13h25.41.534,LearnStrategy,2023.2.3,Win32,29.97601918,4,2,8,,,,,,,,8,02,,,,,,,,,,,8,2.176,1,,,,,,0.334259259,-0.392592593,1,0,0,2.176,Pumice_rect,7,0,7,0,1,
6101bcb1b6f73b8138d66252,SCN,2024-06-25_13h25.41.534,LearnStrategy,2023.2.3,Win32,29.97601918,4,2,9,,,,,,,,7,06,,,,,,,,,,,7,4.758,1,,,,,,0.056481481,-0.39537037,1,0,0,4.758,Peridotite_rect,8,0,8,0,1,
6101bcb1b6f73b8138d66252,SCN,2024-06-25_13h25.41.534,LearnStrategy,2023.2.3,Win32,29.97601918,4,2,10,,,,,,,,8,13,,,,,,,,,,,8,1.259,1,,,,,,0.364814815,-0.403703704,1,0,0,1.259,Pumice_rect,9,0,9,0,1,
6101bcb1b6f73b8138d66252,SCN,2024-06-25_13h25.41.534,LearnStrategy,2023.2.3,Win32,29.97601918,4,2,11,,,,,,,,2,06,,,,,,,,,,,4,2.979,0,,,,,,0.386111111,-0.248148148,1,0,0,2.979,Gabbro_rect,10,0,10,0,1,
6101bcb1b6f73b8138d66252,SCN,2024-06-25_13h25.41.534,LearnStrategy,2023.2.3,Win32,29.97601918,4,2,12,,,,,,,,6,10,,,,,,,,,,,7,6.778,0,,,,,,0.087037037,-0.415740741,1,0,0,6.778,Peridotite_rect,11,0,11,0,1,
6101bcb1b6f73b8138d66252,SCN,2024-06-25_13h25.41.534,LearnStrategy,2023.2.3,Win32,29.97601918,4,2,13,,,,,,,,5,09,,,,,,,,,,,5,1.183,1,,,,,,-0.482407407,-0.386111111,1,0,0,1.183,Obsidian_rect,12,0,12,0,1,
6101bcb1b6f73b8138d66252,SCN,2024-06-25_13h25.41.534,LearnStrategy,2023.2.3,Win32,29.97601918,4,2,14,,,,,,,,4,14,,,,,,,,,,,2,1.855,0,,,,,,-0.166666667,-0.247222222,1,0,0,1.855,Basalt_rect,13,0,13,0,1,
6101bcb1b6f73b8138d66252,SCN,2024-06-25_13h25.41.534,LearnStrategy,2023.2.3,Win32,29.97601918,4,2,15,,,,,,,,1,02,,,,,,,,,,,1,12.547,1,,,,,,-0.362037037,-0.252777778,1,0,0,12.547,Andesite_rect,14,0,14,0,1,
6101bcb1b6f73b8138d66252,SCN,2024-06-25_13h25.41.534,LearnStrategy,2023.2.3,Win32,29.97601918,4,2,16,,,,,,,,4,03,,,,,,,,,,,1,3.323,0,,,,,,-0.410185185,-0.257407407,1,0,0,3.323,Andesite_rect,15,0,15,0,1,
6101bcb1b6f73b8138d66252,SCN,2024-06-25_13h25.41.534,LearnStrategy,2023.2.3,Win32,29.97601918,5,1,1,0.093518519,-0.257407407,1,0,0,2.568,Andesite_05,1,05,2,5,2.568,-0.455555556,-0.261111111,1,0,0,2.641,Andesite_rect,1,2.641,1,0,0,0,0,1,,,,,,,,,,,,,
6101bcb1b6f73b8138d66252,SCN,2024-06-25_13h25.41.534,LearnStrategy,2023.2.3,Win32,29.97601918,5,1,2,0.255555556,-0.266666667,1,0,0,1.1,Pumice_05,8,05,2,6,1.1,0.373148148,-0.412037037,1,0,0,1.012,Pumice_rect,8,1.012,1,1,0,1,0,1,,,,,,,,,,,,,
6101bcb1b6f73b8138d66252,SCN,2024-06-25_13h25.41.534,LearnStrategy,2023.2.3,Win32,29.97601918,5,1,3,0.397222222,-0.266666667,1,0,0,1.111,Diorite_02,3,02,2,7,1.111,0.181481481,-0.257407407,1,0,0,0.777,Diorite_rect,3,0.777,1,2,0,2,0,1,,,,,,,,,,,,,
6101bcb1b6f73b8138d66252,SCN,2024-06-25_13h25.41.534,LearnStrategy,2023.2.3,Win32,29.97601918,5,1,4,0.563888889,-0.283333333,1,0,0,0.915,Diorite_08,3,08,2,8,0.915,0.126851852,-0.244444444,1,0,0,1.672,Diorite_rect,3,1.672,1,3,0,3,0,1,,,,,,,,,,,,,
6101bcb1b6f73b8138d66252,SCN,2024-06-25_13h25.41.534,LearnStrategy,2023.2.3,Win32,29.97601918,5,1,5,-0.567592593,-0.105555556,1,0,0,1.002,Obsidian_02,5,02,3,1,1.002,-0.437962963,-0.412962963,1,0,0,1.017,Obsidian_rect,5,1.017,1,4,0,4,0,1,,,,,,,,,,,,,
6101bcb1b6f73b8138d66252,SCN,2024-06-25_13h25.41.534,LearnStrategy,2023.2.3,Win32,29.97601918,5,1,6,-0.4,-0.092592593,1,0,0,0.784,Peridotite_10,7,10,3,2,0.784,-0.375925926,-0.260185185,1,0,0,1.808,Andesite_rect,1,1.808,0,5,0,5,0,1,,,,,,,,,,,,,
6101bcb1b6f73b8138d66252,SCN,2024-06-25_13h25.41.534,LearnStrategy,2023.2.3,Win32,29.97601918,5,1,7,-0.212962963,-0.100925926,1,0,0,1.562,Pumice_04,8,04,3,3,1.562,0.45462963,-0.408333333,1,0,0,1.19,Pumice_rect,8,1.19,1,6,0,6,0,1,,,,,,,,,,,,,
6101bcb1b6f73b8138d66252,SCN,2024-06-25_13h25.41.534,LearnStrategy,2023.2.3,Win32,29.97601918,5,1,8,-0.086111111,-0.10462963,1,0,0,0.586,Gabbro_09,4,09,3,4,0.586,-0.078703704,-0.261111111,1,0,0,6.278,Basalt_rect,2,6.278,0,7,0,7,0,1,,,,,,,,,,,,,
6101bcb1b6f73b8138d66252,SCN,2024-06-25_13h25.41.534,LearnStrategy,2023.2.3,Win32,29.97601918,5,1,9,0.065740741,-0.119444444,1,0,0,0.704,Basalt_01,2,01,3,5,0.704,0.442592593,-0.242592593,1,0,0,2.378,Gabbro_rect,4,2.378,0,8,0,8,0,1,,,,,,,,,,,,,
6101bcb1b6f73b8138d66252,SCN,2024-06-25_13h25.41.534,LearnStrategy,2023.2.3,Win32,29.97601918,5,1,10,0.412037037,-0.114814815,1,0,0,2.232,Diorite_15,3,15,3,7,2.232,-0.338888889,-0.241666667,1,0,0,4.516,Andesite_rect,1,4.516,0,9,0,9,0,1,,,,,,,,,,,,,
6101bcb1b6f73b8138d66252,SCN,2024-06-25_13h25.41.534,LearnStrategy,2023.2.3,Win32,29.97601918,5,1,11,0.550925926,-0.088888889,1,0,0,1.077,Obsidian_07,5,07,3,8,1.077,-0.411111111,-0.399074074,1,0,0,1.731,Obsidian_rect,5,1.731,1,10,0,10,0,1,,,,,,,,,,,,,
6101bcb1b6f73b8138d66252,SCN,2024-06-25_13h25.41.534,LearnStrategy,2023.2.3,Win32,29.97601918,5,1,12,-0.536111111,0.103703704,1,0,0,1.174,Pumice_06,8,06,4,1,1.174,0.432407407,-0.417592593,1,0,0,2.644,Pumice_rect,8,2.644,1,11,0,11,0,1,,,,,,,,,,,,,
6101bcb1b6f73b8138d66252,SCN,2024-06-25_13h25.41.534,LearnStrategy,2023.2.3,Win32,29.97601918,5,1,13,-0.409259259,0.097222222,1,0,0,0.903,Peridotite_16,7,16,4,2,0.903,-0.077777778,-0.407407407,1,0,0,5.522,Pegmatite_rect,6,5.522,0,12,0,12,0,1,,,,,,,,,,,,,
6101bcb1b6f73b8138d66252,SCN,2024-06-25_13h25.41.534,LearnStrategy,2023.2.3,Win32,29.97601918,5,1,14,-0.243518519,0.105555556,1,0,0,0.838,Obsidian_14,5,14,4,3,0.838,-0.346296296,-0.382407407,1,0,0,1.531,Obsidian_rect,5,1.531,1,13,0,13,0,1,,,,,,,,,,,,,
6101bcb1b6f73b8138d66252,SCN,2024-06-25_13h25.41.534,LearnStrategy,2023.2.3,Win32,29.97601918,5,1,15,-0.069444444,0.073148148,1,0,0,1.163,Peridotite_08,7,08,4,4,1.163,0.080555556,-0.405555556,1,0,0,8.743,Peridotite_rect,7,8.743,1,14,0,14,0,1,,,,,,,,,,,,,
6101bcb1b6f73b8138d66252,SCN,2024-06-25_13h25.41.534,LearnStrategy,2023.2.3,Win32,29.97601918,5,1,16,0.075,0.086111111,1,0,0,1.777,Pegmatite_15,6,15,4,5,1.777,-0.136111111,-0.416666667,1,0,0,1.154,Pegmatite_rect,6,1.154,1,15,0,15,0,1,,,,,,,,,,,,,
6101bcb1b6f73b8138d66252,SCN,2024-06-25_13h25.41.534,LearnStrategy,2023.2.3,Win32,29.97601918,5,2,1,,,,,,,,7,02,,,,,,,,,,,7,2.696,1,,,,,,0.132407407,-0.394444444,1,0,0,2.696,Peridotite_rect,0,0,0,0,1,
6101bcb1b6f73b8138d66252,SCN,2024-06-25_13h25.41.534,LearnStrategy,2023.2.3,Win32,29.97601918,5,2,2,,,,,,,,3,07,,,,,,,,,,,3,1.28,1,,,,,,0.126851852,-0.231481481,1,0,0,1.28,Diorite_rect,1,0,1,0,1,
6101bcb1b6f73b8138d66252,SCN,2024-06-25_13h25.41.534,LearnStrategy,2023.2.3,Win32,29.97601918,5,2,3,,,,,,,,6,16,,,,,,,,,,,6,2.231,1,,,,,,-0.2,-0.411111111,1,0,0,2.231,Pegmatite_rect,2,0,2,0,1,
6101bcb1b6f73b8138d66252,SCN,2024-06-25_13h25.41.534,LearnStrategy,2023.2.3,Win32,29.97601918,5,2,4,,,,,,,,4,05,,,,,,,,,,,4,10.027,1,,,,,,0.37962963,-0.259259259,1,0,0,10.027,Gabbro_rect,3,0,3,0,1,
6101bcb1b6f73b8138d66252,SCN,2024-06-25_13h25.41.534,LearnStrategy,2023.2.3,Win32,29.97601918,5,2,5,,,,,,,,6,07,,,,,,,,,,,6,2.257,1,,,,,,-0.130555556,-0.416666667,1,0,0,2.257,Pegmatite_rect,4,0,4,0,1,
6101bcb1b6f73b8138d66252,SCN,2024-06-25_13h25.41.534,LearnStrategy,2023.2.3,Win32,29.97601918,5,2,6,,,,,,,,5,06,,,,,,,,,,,5,1.137,1,,,,,,-0.311111111,-0.380555556,1,0,0,1.137,Obsidian_rect,5,0,5,0,1,
6101bcb1b6f73b8138d66252,SCN,2024-06-25_13h25.41.534,LearnStrategy,2023.2.3,Win32,29.97601918,5,2,7,,,,,,,,1,10,,,,,,,,,,,1,7.871,1,,,,,,-0.387037037,-0.258333333,1,0,0,7.871,Andesite_rect,6,0,6,0,1,
6101bcb1b6f73b8138d66252,SCN,2024-06-25_13h25.41.534,LearnStrategy,2023.2.3,Win32,29.97601918,5,2,8,,,,,,,,8,03,,,,,,,,,,,8,2.241,1,,,,,,0.409259259,-0.411111111,1,0,0,2.241,Pumice_rect,7,0,7,0,1,
6101bcb1b6f73b8138d66252,SCN,2024-06-25_13h25.41.534,LearnStrategy,2023.2.3,Win32,29.97601918,5,2,9,,,,,,,,5,12,,,,,,,,,,,5,1.25,1,,,,,,-0.341666667,-0.390740741,1,0,0,1.25,Obsidian_rect,8,0,8,0,1,
6101bcb1b6f73b8138d66252,SCN,2024-06-25_13h25.41.534,LearnStrategy,2023.2.3,Win32,29.97601918,5,2,10,,,,,,,,1,03,,,,,,,,,,,4,2.591,0,,,,,,0.325,-0.232407407,1,0,0,2.591,Gabbro_rect,9,0,9,0,1,
6101bcb1b6f73b8138d66252,SCN,2024-06-25_13h25.41.534,LearnStrategy,2023.2.3,Win32,29.97601918,5,2,11,,,,,,,,7,04,,,,,,,,,,,6,4.326,0,,,,,,-0.10462963,-0.419444444,1,0,0,4.326,Pegmatite_rect,10,0,10,0,1,
6101bcb1b6f73b8138d66252,SCN,2024-06-25_13h25.41.534,LearnStrategy,2023.2.3,Win32,29.97601918,5,2,12,,,,,,,,2,12,,,,,,,,,,,8,10.419,0,,,,,,0.387962963,-0.387962963,1,0,0,10.419,Pumice_rect,11,0,11,0,1,
6101bcb1b6f73b8138d66252,SCN,2024-06-25_13h25.41.534,LearnStrategy,2023.2.3,Win32,29.97601918,5,2,13,,,,,,,,8,16,,,,,,,,,,,2,2.189,0,,,,,,-0.165740741,-0.238888889,1,0,0,2.189,Basalt_rect,12,0,12,0,1,
6101bcb1b6f73b8138d66252,SCN,2024-06-25_13h25.41.534,LearnStrategy,2023.2.3,Win32,29.97601918,5,2,14,,,,,,,,3,10,,,,,,,,,,,3,9.004,1,,,,,,0.066666667,-0.268518519,1,0,0,9.004,Diorite_rect,13,0,13,0,1,
6101bcb1b6f73b8138d66252,SCN,2024-06-25_13h25.41.534,LearnStrategy,2023.2.3,Win32,29.97601918,5,2,15,,,,,,,,2,05,,,,,,,,,,,4,8.706,0,,,,,,0.42037037,-0.25462963,1,0,0,8.706,Gabbro_rect,14,0,14,0,1,
6101bcb1b6f73b8138d66252,SCN,2024-06-25_13h25.41.534,LearnStrategy,2023.2.3,Win32,29.97601918,5,2,16,,,,,,,,4,16,,,,,,,,,,,2,1.582,0,,,,,,-0.109259259,-0.244444444,1,0,0,1.582,Basalt_rect,15,0,15,0,1,
6101bcb1b6f73b8138d66252,SCN,2024-06-25_13h25.41.534,LearnStrategy,2023.2.3,Win32,29.97601918,6,1,1,0.094444444,0.085185185,1,0,0,4.256,Pegmatite_15,6,15,4,5,4.256,-0.118518519,-0.402777778,1,0,0,2.148,Pegmatite_rect,6,2.148,1,0,0,0,0,1,,,,,,,,,,,,,
6101bcb1b6f73b8138d66252,SCN,2024-06-25_13h25.41.534,LearnStrategy,2023.2.3,Win32,29.97601918,6,1,2,0.225925926,0.090740741,1,0,0,0.996,Andesite_04,1,04,4,6,0.996,-0.35,-0.265740741,1,0,0,6.002,Andesite_rect,1,6.002,1,1,0,1,0,1,,,,,,,,,,,,,
6101bcb1b6f73b8138d66252,SCN,2024-06-25_13h25.41.534,LearnStrategy,2023.2.3,Win32,29.97601918,6,1,3,0.421296296,0.112962963,1,0,0,1.103,Pegmatite_08,6,08,4,7,1.103,-0.089814815,-0.415740741,1,0,0,1.203,Pegmatite_rect,6,1.203,1,2,0,2,0,1,,,,,,,,,,,,,
6101bcb1b6f73b8138d66252,SCN,2024-06-25_13h25.41.534,LearnStrategy,2023.2.3,Win32,29.97601918,6,1,4,0.547222222,0.085185185,1,0,0,1.006,Peridotite_13,7,13,4,8,1.006,0.1,-0.421296296,1,0,0,0.95,Peridotite_rect,7,0.95,1,3,0,3,0,1,,,,,,,,,,,,,
6101bcb1b6f73b8138d66252,SCN,2024-06-25_13h25.41.534,LearnStrategy,2023.2.3,Win32,29.97601918,6,1,5,-0.542592593,0.253703704,1,0,0,1.387,Pumice_09,8,09,5,1,1.387,0.357407407,-0.401851852,1,0,0,1.128,Pumice_rect,8,1.128,1,4,0,4,0,1,,,,,,,,,,,,,
6101bcb1b6f73b8138d66252,SCN,2024-06-25_13h25.41.534,LearnStrategy,2023.2.3,Win32,29.97601918,6,1,6,-0.352777778,0.213888889,1,0,0,1.119,Gabbro_15,4,15,5,2,1.119,-0.334259259,-0.25,1,0,0,9.203,Andesite_rect,1,9.203,0,5,0,5,0,1,,,,,,,,,,,,,
6101bcb1b6f73b8138d66252,SCN,2024-06-25_13h25.41.534,LearnStrategy,2023.2.3,Win32,29.97601918,6,1,7,-0.225,0.237037037,1,0,0,1.006,Basalt_08,2,08,5,3,1.006,0.371296296,-0.262962963,1,0,0,1.98,Gabbro_rect,4,1.98,0,6,0,6,0,1,,,,,,,,,,,,,
6101bcb1b6f73b8138d66252,SCN,2024-06-25_13h25.41.534,LearnStrategy,2023.2.3,Win32,29.97601918,6,1,8,-0.099074074,0.251851852,1,0,0,0.864,Andesite_09,1,09,5,4,0.864,0.365740741,-0.258333333,1,0,0,4.687,Gabbro_rect,4,4.687,0,7,0,7,0,1,,,,,,,,,,,,,
6101bcb1b6f73b8138d66252,SCN,2024-06-25_13h25.41.534,LearnStrategy,2023.2.3,Win32,29.97601918,6,1,9,-0.359259259,0.233333333,1,0,0,2.623,Gabbro_15,4,15,5,2,2.623,0.346296296,-0.24537037,1,0,0,2.08,Gabbro_rect,4,2.08,1,8,0,8,0,1,,,,,,,,,,,,,
6101bcb1b6f73b8138d66252,SCN,2024-06-25_13h25.41.534,LearnStrategy,2023.2.3,Win32,29.97601918,6,1,10,-0.234259259,0.277777778,1,0,0,1.025,Basalt_08,2,08,5,3,1.025,-0.112037037,-0.24537037,1,0,0,3.635,Basalt_rect,2,3.635,1,9,0,9,0,1,,,,,,,,,,,,,
6101bcb1b6f73b8138d66252,SCN,2024-06-25_13h25.41.534,LearnStrategy,2023.2.3,Win32,29.97601918,6,1,11,-0.082407407,0.237962963,1,0,0,0.772,Andesite_09,1,09,5,4,0.772,-0.344444444,-0.255555556,1,0,0,1.82,Andesite_rect,1,1.82,1,10,0,10,0,1,,,,,,,,,,,,,
6101bcb1b6f73b8138d66252,SCN,2024-06-25_13h25.41.534,LearnStrategy,2023.2.3,Win32,29.97601918,6,1,12,0.060185185,0.253703704,1,0,0,1.251,Diorite_11,3,11,5,5,1.251,0.102777778,-0.253703704,1,0,0,1.33,Diorite_rect,3,1.33,1,11,0,11,0,1,,,,,,,,,,,,,
6101bcb1b6f73b8138d66252,SCN,2024-06-25_13h25.41.534,LearnStrategy,2023.2.3,Win32,29.97601918,6,1,13,0.258333333,0.25,1,0,0,0.899,Basalt_04,2,04,5,6,0.899,0.366666667,-0.255555556,1,0,0,2.714,Gabbro_rect,4,2.714,0,12,0,12,0,1,,,,,,,,,,,,,
6101bcb1b6f73b8138d66252,SCN,2024-06-25_13h25.41.534,LearnStrategy,2023.2.3,Win32,29.97601918,6,1,14,-0.22962963,0.25462963,1,0,0,1.45,Basalt_08,2,08,5,3,1.45,-0.102777778,-0.256481481,1,0,0,1.114,Basalt_rect,2,1.114,1,13,0,13,0,1,,,,,,,,,,,,,
6101bcb1b6f73b8138d66252,SCN,2024-06-25_13h25.41.534,LearnStrategy,2023.2.3,Win32,29.97601918,6,1,15,0.211111111,0.219444444,1,0,0,0.942,Basalt_04,2,04,5,6,0.942,-0.115740741,-0.233333333,1,0,0,0.996,Basalt_rect,2,0.996,1,14,0,14,0,1,,,,,,,,,,,,,
6101bcb1b6f73b8138d66252,SCN,2024-06-25_13h25.41.534,LearnStrategy,2023.2.3,Win32,29.97601918,6,1,16,0.435185185,0.262037037,1,0,0,1.037,Peridotite_15,7,15,5,7,1.037,0.116666667,-0.418518519,1,0,0,1.083,Peridotite_rect,7,1.083,1,15,0,15,0,1,,,,,,,,,,,,,
6101bcb1b6f73b8138d66252,SCN,2024-06-25_13h25.41.534,LearnStrategy,2023.2.3,Win32,29.97601918,6,2,1,,,,,,,,1,14,,,,,,,,,,,3,5.476,0,,,,,,0.136111111,-0.25462963,1,0,0,5.476,Diorite_rect,0,0,0,0,1,
6101bcb1b6f73b8138d66252,SCN,2024-06-25_13h25.41.534,LearnStrategy,2023.2.3,Win32,29.97601918,6,2,2,,,,,,,,7,05,,,,,,,,,,,7,1.455,1,,,,,,0.126851852,-0.40462963,1,0,0,1.455,Peridotite_rect,1,0,1,0,1,
6101bcb1b6f73b8138d66252,SCN,2024-06-25_13h25.41.534,LearnStrategy,2023.2.3,Win32,29.97601918,6,2,3,,,,,,,,8,15,,,,,,,,,,,8,4.743,1,,,,,,0.403703704,-0.4,1,0,0,4.743,Pumice_rect,2,0,2,0,1,
6101bcb1b6f73b8138d66252,SCN,2024-06-25_13h25.41.534,LearnStrategy,2023.2.3,Win32,29.97601918,6,2,4,,,,,,,,1,11,,,,,,,,,,,1,7.845,1,,,,,,-0.352777778,-0.235185185,1,0,0,7.845,Andesite_rect,3,0,3,0,1,
6101bcb1b6f73b8138d66252,SCN,2024-06-25_13h25.41.534,LearnStrategy,2023.2.3,Win32,29.97601918,6,2,5,,,,,,,,5,16,,,,,,,,,,,5,2.239,1,,,,,,-0.364814815,-0.412037037,1,0,0,2.239,Obsidian_rect,4,0,4,0,1,
6101bcb1b6f73b8138d66252,SCN,2024-06-25_13h25.41.534,LearnStrategy,2023.2.3,Win32,29.97601918,6,2,6,,,,,,,,7,14,,,,,,,,,,,3,15.036,0,,,,,,0.065740741,-0.242592593,1,0,0,15.036,Diorite_rect,5,0,5,0,1,
6101bcb1b6f73b8138d66252,SCN,2024-06-25_13h25.41.534,LearnStrategy,2023.2.3,Win32,29.97601918,6,2,7,,,,,,,,6,11,,,,,,,,,,,6,1.306,1,,,,,,-0.137962963,-0.409259259,1,0,0,1.306,Pegmatite_rect,6,0,6,0,1,
6101bcb1b6f73b8138d66252,SCN,2024-06-25_13h25.41.534,LearnStrategy,2023.2.3,Win32,29.97601918,6,2,8,,,,,,,,4,08,,,,,,,,,,,4,4.405,1,,,,,,0.398148148,-0.258333333,1,0,0,4.405,Gabbro_rect,7,0,7,0,1,
6101bcb1b6f73b8138d66252,SCN,2024-06-25_13h25.41.534,LearnStrategy,2023.2.3,Win32,29.97601918,6,2,9,,,,,,,,3,09,,,,,,,,,,,3,2.2,1,,,,,,0.109259259,-0.250925926,1,0,0,2.2,Diorite_rect,8,0,8,0,1,
6101bcb1b6f73b8138d66252,SCN,2024-06-25_13h25.41.534,LearnStrategy,2023.2.3,Win32,29.97601918,6,2,10,,,,,,,,8,10,,,,,,,,,,,8,4.506,1,,,,,,0.352777778,-0.399074074,1,0,0,4.506,Pumice_rect,9,0,9,0,1,
6101bcb1b6f73b8138d66252,SCN,2024-06-25_13h25.41.534,LearnStrategy,2023.2.3,Win32,29.97601918,6,2,11,,,,,,,,2,14,,,,,,,,,,,2,3.026,1,,,,,,-0.112962963,-0.246296296,1,0,0,3.026,Basalt_rect,10,0,10,0,1,
6101bcb1b6f73b8138d66252,SCN,2024-06-25_13h25.41.534,LearnStrategy,2023.2.3,Win32,29.97601918,6,2,12,,,,,,,,4,13,,,,,,,,,,,4,5.6,1,,,,,,0.4,-0.260185185,1,0,0,5.6,Gabbro_rect,11,0,11,0,1,
6101bcb1b6f73b8138d66252,SCN,2024-06-25_13h25.41.534,LearnStrategy,2023.2.3,Win32,29.97601918,6,2,13,,,,,,,,6,03,,,,,,,,,,,6,1.287,1,,,,,,-0.105555556,-0.403703704,1,0,0,1.287,Pegmatite_rect,12,0,12,0,1,
6101bcb1b6f73b8138d66252,SCN,2024-06-25_13h25.41.534,LearnStrategy,2023.2.3,Win32,29.97601918,6,2,14,,,,,,,,5,11,,,,,,,,,,,5,2.137,1,,,,,,-0.368518519,-0.400925926,1,0,0,2.137,Obsidian_rect,13,0,13,0,1,
6101bcb1b6f73b8138d66252,SCN,2024-06-25_13h25.41.534,LearnStrategy,2023.2.3,Win32,29.97601918,6,2,15,,,,,,,,2,10,,,,,,,,,,,2,1.358,1,,,,,,-0.140740741,-0.262037037,1,0,0,1.358,Basalt_rect,14,0,14,0,1,
6101bcb1b6f73b8138d66252,SCN,2024-06-25_13h25.41.534,LearnStrategy,2023.2.3,Win32,29.97601918,6,2,16,,,,,,,,3,13,,,,,,,,,,,3,1.135,1,,,,,,0.100925926,-0.257407407,1,0,0,1.135,Diorite_rect,15,0,15,0,1,
6101bcb1b6f73b8138d66252,SCN,2024-06-25_13h25.41.534,LearnStrategy,2023.2.3,Win32,29.97601918,7,1,1,-0.530555556,0.393518519,1,0,0,3.354,Gabbro_01,4,01,6,1,3.354,-0.342592593,-0.248148148,1,0,0,6.115,Andesite_rect,1,6.115,0,0,0,0,0,1,,,,,,,,,,,,,
6101bcb1b6f73b8138d66252,SCN,2024-06-25_13h25.41.534,LearnStrategy,2023.2.3,Win32,29.97601918,7,1,2,-0.087037037,0.258333333,1,0,0,2.62,Andesite_09,1,09,5,4,2.62,-0.335185185,-0.263888889,1,0,0,4.036,Andesite_rect,1,4.036,1,1,0,1,0,1,,,,,,,,,,,,,
6101bcb1b6f73b8138d66252,SCN,2024-06-25_13h25.41.534,LearnStrategy,2023.2.3,Win32,29.97601918,7,1,3,-0.086111111,0.235185185,1,0,0,4.319,Andesite_09,1,09,5,4,4.319,-0.366666667,-0.231481481,1,0,0,1.547,Andesite_rect,1,1.547,1,2,0,2,0,1,,,,,,,,,,,,,
6101bcb1b6f73b8138d66252,SCN,2024-06-25_13h25.41.534,LearnStrategy,2023.2.3,Win32,29.97601918,7,1,4,-0.246296296,0.255555556,1,0,0,1.647,Basalt_08,2,08,5,3,1.647,-0.112962963,-0.271296296,1,0,0,1.162,Basalt_rect,2,1.162,1,3,0,3,0,1,,,,,,,,,,,,,
6101bcb1b6f73b8138d66252,SCN,2024-06-25_13h25.41.534,LearnStrategy,2023.2.3,Win32,29.97601918,7,1,5,0.244444444,0.240740741,1,0,0,1.362,Basalt_04,2,04,5,6,1.362,-0.087037037,-0.240740741,1,0,0,0.882,Basalt_rect,2,0.882,1,4,0,4,0,1,,,,,,,,,,,,,
6101bcb1b6f73b8138d66252,SCN,2024-06-25_13h25.41.534,LearnStrategy,2023.2.3,Win32,29.97601918,7,1,6,-0.075925926,-0.265740741,1,0,0,2.897,Basalt_16,2,16,2,4,2.897,-0.075925926,-0.264814815,1,0,0,1.057,Basalt_rect,2,1.057,1,5,0,5,0,1,,,,,,,,,,,,,
6101bcb1b6f73b8138d66252,SCN,2024-06-25_13h25.41.534,LearnStrategy,2023.2.3,Win32,29.97601918,7,1,7,0.22037037,0.074074074,1,0,0,4.993,Andesite_04,1,04,4,6,4.993,0.347222222,-0.24537037,1,0,0,1.574,Gabbro_rect,4,1.574,0,6,0,6,0,1,,,,,,,,,,,,,
6101bcb1b6f73b8138d66252,SCN,2024-06-25_13h25.41.534,LearnStrategy,2023.2.3,Win32,29.97601918,7,1,8,-0.541666667,0.392592593,1,0,0,2.611,Gabbro_01,4,01,6,1,2.611,-0.427777778,-0.242592593,1,0,0,0.854,Andesite_rect,1,0.854,0,7,0,7,0,1,,,,,,,,,,,,,
6101bcb1b6f73b8138d66252,SCN,2024-06-25_13h25.41.534,LearnStrategy,2023.2.3,Win32,29.97601918,7,1,9,-0.393518519,0.252777778,1,0,0,2.462,Gabbro_15,4,15,5,2,2.462,0.377777778,-0.258333333,1,0,0,1.412,Gabbro_rect,4,1.412,1,8,0,8,0,1,,,,,,,,,,,,,
6101bcb1b6f73b8138d66252,SCN,2024-06-25_13h25.41.534,LearnStrategy,2023.2.3,Win32,29.97601918,7,1,10,0.555555556,0.073148148,1,0,0,1.953,Peridotite_13,7,13,4,8,1.953,0.147222222,-0.397222222,1,0,0,1.191,Peridotite_rect,7,1.191,1,9,0,9,0,1,,,,,,,,,,,,,
6101bcb1b6f73b8138d66252,SCN,2024-06-25_13h25.41.534,LearnStrategy,2023.2.3,Win32,29.97601918,7,1,11,-0.541666667,0.110185185,1,0,0,1.421,Pumice_06,8,06,4,1,1.421,0.362037037,-0.408333333,1,0,0,1.081,Pumice_rect,8,1.081,1,10,0,10,0,1,,,,,,,,,,,,,
6101bcb1b6f73b8138d66252,SCN,2024-06-25_13h25.41.534,LearnStrategy,2023.2.3,Win32,29.97601918,7,1,12,-0.062962963,-0.258333333,1,0,0,0.822,Basalt_16,2,16,2,4,0.822,-0.107407407,-0.247222222,1,0,0,1.59,Basalt_rect,2,1.59,1,11,0,11,0,1,,,,,,,,,,,,,
6101bcb1b6f73b8138d66252,SCN,2024-06-25_13h25.41.534,LearnStrategy,2023.2.3,Win32,29.97601918,7,1,13,0.261111111,-0.112962963,1,0,0,1.205,Basalt_11,2,11,3,6,1.205,0.423148148,-0.248148148,1,0,0,3.339,Gabbro_rect,4,3.339,0,12,0,12,0,1,,,,,,,,,,,,,
6101bcb1b6f73b8138d66252,SCN,2024-06-25_13h25.41.534,LearnStrategy,2023.2.3,Win32,29.97601918,7,1,14,0.377777778,-0.436111111,1,0,0,3.317,Pegmatite_13,6,13,1,7,3.317,-0.082407407,-0.396296296,1,0,0,1.389,Pegmatite_rect,6,1.389,1,13,0,13,0,1,,,,,,,,,,,,,
6101bcb1b6f73b8138d66252,SCN,2024-06-25_13h25.41.534,LearnStrategy,2023.2.3,Win32,29.97601918,7,1,15,-0.382407407,-0.081481481,1,0,0,1.332,Peridotite_10,7,10,3,2,1.332,0.059259259,-0.409259259,1,0,0,1.583,Peridotite_rect,7,1.583,1,14,0,14,0,1,,,,,,,,,,,,,
6101bcb1b6f73b8138d66252,SCN,2024-06-25_13h25.41.534,LearnStrategy,2023.2.3,Win32,29.97601918,7,1,16,-0.551851852,-0.275925926,1,0,0,1.452,Peridotite_12,7,12,2,1,1.452,0.069444444,-0.4,1,0,0,1.714,Peridotite_rect,7,1.714,1,15,0,15,0,1,,,,,,,,,,,,,
6101bcb1b6f73b8138d66252,SCN,2024-06-25_13h25.41.534,LearnStrategy,2023.2.3,Win32,29.97601918,7,2,1,,,,,,,,2,14,,,,,,,,,,,2,2.284,1,,,,,,-0.184259259,-0.242592593,1,0,0,2.284,Basalt_rect,0,0,0,0,1,
6101bcb1b6f73b8138d66252,SCN,2024-06-25_13h25.41.534,LearnStrategy,2023.2.3,Win32,29.97601918,7,2,2,,,,,,,,7,05,,,,,,,,,,,7,2.15,1,,,,,,0.073148148,-0.398148148,1,0,0,2.15,Peridotite_rect,1,0,1,0,1,
6101bcb1b6f73b8138d66252,SCN,2024-06-25_13h25.41.534,LearnStrategy,2023.2.3,Win32,29.97601918,7,2,3,,,,,,,,1,10,,,,,,,,,,,1,5.024,1,,,,,,-0.358333333,-0.25,1,0,0,5.024,Andesite_rect,2,0,2,0,1,
6101bcb1b6f73b8138d66252,SCN,2024-06-25_13h25.41.534,LearnStrategy,2023.2.3,Win32,29.97601918,7,2,4,,,,,,,,6,11,,,,,,,,,,,6,1.294,1,,,,,,-0.125925926,-0.39537037,1,0,0,1.294,Pegmatite_rect,3,0,3,0,1,
6101bcb1b6f73b8138d66252,SCN,2024-06-25_13h25.41.534,LearnStrategy,2023.2.3,Win32,29.97601918,7,2,5,,,,,,,,5,11,,,,,,,,,,,5,1.034,1,,,,,,-0.322222222,-0.386111111,1,0,0,1.034,Obsidian_rect,4,0,4,0,1,
6101bcb1b6f73b8138d66252,SCN,2024-06-25_13h25.41.534,LearnStrategy,2023.2.3,Win32,29.97601918,7,2,6,,,,,,,,2,06,,,,,,,,,,,2,17.724,1,,,,,,-0.14537037,-0.244444444,1,0,0,17.724,Basalt_rect,5,0,5,0,1,
6101bcb1b6f73b8138d66252,SCN,2024-06-25_13h25.41.534,LearnStrategy,2023.2.3,Win32,29.97601918,7,2,7,,,,,,,,4,14,,,,,,,,,,,2,1.95,0,,,,,,-0.089814815,-0.258333333,1,0,0,1.95,Basalt_rect,6,0,6,0,1,
6101bcb1b6f73b8138d66252,SCN,2024-06-25_13h25.41.534,LearnStrategy,2023.2.3,Win32,29.97601918,7,2,8,,,,,,,,8,02,,,,,,,,,,,8,1.371,1,,,,,,0.506481481,-0.400925926,1,0,0,1.371,Pumice_rect,7,0,7,0,1,
6101bcb1b6f73b8138d66252,SCN,2024-06-25_13h25.41.534,LearnStrategy,2023.2.3,Win32,29.97601918,7,2,9,,,,,,,,8,10,,,,,,,,,,,8,1.621,1,,,,,,0.443518519,-0.406481481,1,0,0,1.621,Pumice_rect,8,0,8,0,1,
6101bcb1b6f73b8138d66252,SCN,2024-06-25_13h25.41.534,LearnStrategy,2023.2.3,Win32,29.97601918,7,2,10,,,,,,,,1,02,,,,,,,,,,,1,2.609,1,,,,,,-0.340740741,-0.268518519,1,0,0,2.609,Andesite_rect,9,0,9,0,1,
6101bcb1b6f73b8138d66252,SCN,2024-06-25_13h25.41.534,LearnStrategy,2023.2.3,Win32,29.97601918,7,2,11,,,,,,,,3,10,,,,,,,,,,,3,1.918,1,,,,,,0.146296296,-0.258333333,1,0,0,1.918,Diorite_rect,10,0,10,0,1,
6101bcb1b6f73b8138d66252,SCN,2024-06-25_13h25.41.534,LearnStrategy,2023.2.3,Win32,29.97601918,7,2,12,,,,,,,,4,08,,,,,,,,,,,4,3.407,1,,,,,,0.349074074,-0.262962963,1,0,0,3.407,Gabbro_rect,11,0,11,0,1,
6101bcb1b6f73b8138d66252,SCN,2024-06-25_13h25.41.534,LearnStrategy,2023.2.3,Win32,29.97601918,7,2,13,,,,,,,,3,06,,,,,,,,,,,3,1.742,1,,,,,,0.136111111,-0.256481481,1,0,0,1.742,Diorite_rect,12,0,12,0,1,
6101bcb1b6f73b8138d66252,SCN,2024-06-25_13h25.41.534,LearnStrategy,2023.2.3,Win32,29.97601918,7,2,14,,,,,,,,5,08,,,,,,,,,,,5,1.102,1,,,,,,-0.367592593,-0.394444444,1,0,0,1.102,Obsidian_rect,13,0,13,0,1,
6101bcb1b6f73b8138d66252,SCN,2024-06-25_13h25.41.534,LearnStrategy,2023.2.3,Win32,29.97601918,7,2,15,,,,,,,,7,02,,,,,,,,,,,7,2.137,1,,,,,,0.190740741,-0.40462963,1,0,0,2.137,Peridotite_rect,14,0,14,0,1,
6101bcb1b6f73b8138d66252,SCN,2024-06-25_13h25.41.534,LearnStrategy,2023.2.3,Win32,29.97601918,7,2,16,,,,,,,,6,10,,,,,,,,,,,7,1.007,0,,,,,,0.190740741,-0.405555556,1,0,0,1.007,Peridotite_rect,15,0,15,0,1,
6101bcb1b6f73b8138d66252,SCN,2024-06-25_13h25.41.534,LearnStrategy,2023.2.3,Win32,29.97601918,8,1,1,-0.367592593,0.403703704,1,0,0,2.123,Pegmatite_06,6,06,6,2,2.123,-0.134259259,-0.410185185,1,0,0,2.204,Pegmatite_rect,6,2.204,1,0,0,0,0,1,,,,,,,,,,,,,
6101bcb1b6f73b8138d66252,SCN,2024-06-25_13h25.41.534,LearnStrategy,2023.2.3,Win32,29.97601918,8,1,2,-0.07962963,-0.232407407,1,0,0,3.462,Basalt_16,2,16,2,4,3.462,-0.07962963,-0.241666667,1,0,0,1.067,Basalt_rect,2,1.067,1,1,0,1,0,1,,,,,,,,,,,,,
6101bcb1b6f73b8138d66252,SCN,2024-06-25_13h25.41.534,LearnStrategy,2023.2.3,Win32,29.97601918,8,1,3,0.25,-0.088888889,1,0,0,1.405,Basalt_11,2,11,3,6,1.405,0.353703704,-0.247222222,1,0,0,3.117,Gabbro_rect,4,3.117,0,2,0,2,0,1,,,,,,,,,,,,,
6101bcb1b6f73b8138d66252,SCN,2024-06-25_13h25.41.534,LearnStrategy,2023.2.3,Win32,29.97601918,8,1,4,0.239814815,-0.278703704,1,0,0,1.923,Pumice_05,8,05,2,6,1.923,0.353703704,-0.387037037,1,0,0,2.024,Pumice_rect,8,2.024,1,3,0,3,0,1,,,,,,,,,,,,,
6101bcb1b6f73b8138d66252,SCN,2024-06-25_13h25.41.534,LearnStrategy,2023.2.3,Win32,29.97601918,8,1,5,0.075,0.241666667,1,0,0,1.502,Diorite_11,3,11,5,5,1.502,0.125,-0.250925926,1,0,0,1.387,Diorite_rect,3,1.387,1,4,0,4,0,1,,,,,,,,,,,,,
6101bcb1b6f73b8138d66252,SCN,2024-06-25_13h25.41.534,LearnStrategy,2023.2.3,Win32,29.97601918,8,1,6,-0.281481481,-0.292592593,1,0,0,1.644,Andesite_16,1,16,2,3,1.644,-0.348148148,-0.27037037,1,0,0,2.393,Andesite_rect,1,2.393,1,5,0,5,0,1,,,,,,,,,,,,,
6101bcb1b6f73b8138d66252,SCN,2024-06-25_13h25.41.534,LearnStrategy,2023.2.3,Win32,29.97601918,8,1,7,0.210185185,0.238888889,1,0,0,1.143,Basalt_04,2,04,5,6,1.143,-0.115740741,-0.256481481,1,0,0,1.568,Basalt_rect,2,1.568,1,6,0,6,0,1,,,,,,,,,,,,,
6101bcb1b6f73b8138d66252,SCN,2024-06-25_13h25.41.534,LearnStrategy,2023.2.3,Win32,29.97601918,8,1,8,-0.228703704,0.274074074,1,0,0,1.524,Basalt_08,2,08,5,3,1.524,-0.171296296,-0.239814815,1,0,0,0.872,Basalt_rect,2,0.872,1,7,0,7,0,1,,,,,,,,,,,,,
6101bcb1b6f73b8138d66252,SCN,2024-06-25_13h25.41.534,LearnStrategy,2023.2.3,Win32,29.97601918,8,1,9,0.439814815,0.112037037,1,0,0,1.159,Pegmatite_08,6,08,4,7,1.159,-0.108333333,-0.406481481,1,0,0,0.952,Pegmatite_rect,6,0.952,1,8,0,8,0,1,,,,,,,,,,,,,
6101bcb1b6f73b8138d66252,SCN,2024-06-25_13h25.41.534,LearnStrategy,2023.2.3,Win32,29.97601918,8,1,10,-0.437037037,-0.117592593,1,0,0,0.975,Peridotite_10,7,10,3,2,0.975,0.128703704,-0.400925926,1,0,0,1.549,Peridotite_rect,7,1.549,1,9,0,9,0,1,,,,,,,,,,,,,
6101bcb1b6f73b8138d66252,SCN,2024-06-25_13h25.41.534,LearnStrategy,2023.2.3,Win32,29.97601918,8,1,11,-0.093518519,-0.426851852,1,0,0,0.751,Andesite_07,1,07,1,4,0.751,0.086111111,-0.230555556,1,0,0,1.89,Diorite_rect,3,1.89,0,10,0,10,0,1,,,,,,,,,,,,,
6101bcb1b6f73b8138d66252,SCN,2024-06-25_13h25.41.534,LearnStrategy,2023.2.3,Win32,29.97601918,8,1,12,-0.552777778,-0.252777778,1,0,0,1.277,Peridotite_12,7,12,2,1,1.277,0.117592593,-0.396296296,1,0,0,1.423,Peridotite_rect,7,1.423,1,11,0,11,0,1,,,,,,,,,,,,,
6101bcb1b6f73b8138d66252,SCN,2024-06-25_13h25.41.534,LearnStrategy,2023.2.3,Win32,29.97601918,8,1,13,-0.266666667,-0.402777778,1,0,0,1.82,Gabbro_10,4,10,1,3,1.82,-0.118518519,-0.263888889,1,0,0,1.412,Basalt_rect,2,1.412,0,12,0,12,0,1,,,,,,,,,,,,,
6101bcb1b6f73b8138d66252,SCN,2024-06-25_13h25.41.534,LearnStrategy,2023.2.3,Win32,29.97601918,8,1,14,-0.076851852,-0.107407407,1,0,0,1.278,Gabbro_09,4,09,3,4,1.278,0.333333333,-0.233333333,1,0,0,1.072,Gabbro_rect,4,1.072,1,13,0,13,0,1,,,,,,,,,,,,,
6101bcb1b6f73b8138d66252,SCN,2024-06-25_13h25.41.534,LearnStrategy,2023.2.3,Win32,29.97601918,8,1,15,0.231481481,0.228703704,1,0,0,1.105,Basalt_04,2,04,5,6,1.105,-0.116666667,-0.257407407,1,0,0,1.852,Basalt_rect,2,1.852,1,14,0,14,0,1,,,,,,,,,,,,,
6101bcb1b6f73b8138d66252,SCN,2024-06-25_13h25.41.534,LearnStrategy,2023.2.3,Win32,29.97601918,8,1,16,0.39537037,-0.096296296,1,0,0,0.784,Diorite_15,3,15,3,7,0.784,0.130555556,-0.25462963,1,0,0,1.273,Diorite_rect,3,1.273,1,15,0,15,0,1,,,,,,,,,,,,,
6101bcb1b6f73b8138d66252,SCN,2024-06-25_13h25.41.534,LearnStrategy,2023.2.3,Win32,29.97601918,8,2,1,,,,,,,,7,06,,,,,,,,,,,7,1.301,1,,,,,,0.130555556,-0.416666667,1,0,0,1.301,Peridotite_rect,0,0,0,0,1,
6101bcb1b6f73b8138d66252,SCN,2024-06-25_13h25.41.534,LearnStrategy,2023.2.3,Win32,29.97601918,8,2,2,,,,,,,,4,16,,,,,,,,,,,2,1.371,0,,,,,,-0.157407407,-0.242592593,1,0,0,1.371,Basalt_rect,1,0,1,0,1,
6101bcb1b6f73b8138d66252,SCN,2024-06-25_13h25.41.534,LearnStrategy,2023.2.3,Win32,29.97601918,8,2,3,,,,,,,,1,03,,,,,,,,,,,1,2.508,1,,,,,,-0.35,-0.262037037,1,0,0,2.508,Andesite_rect,2,0,2,0,1,
6101bcb1b6f73b8138d66252,SCN,2024-06-25_13h25.41.534,LearnStrategy,2023.2.3,Win32,29.97601918,8,2,4,,,,,,,,8,16,,,,,,,,,,,8,5.191,1,,,,,,0.361111111,-0.406481481,1,0,0,5.191,Pumice_rect,3,0,3,0,1,
6101bcb1b6f73b8138d66252,SCN,2024-06-25_13h25.41.534,LearnStrategy,2023.2.3,Win32,29.97601918,8,2,5,,,,,,,,3,13,,,,,,,,,,,3,0.944,1,,,,,,0.137037037,-0.255555556,1,0,0,0.944,Diorite_rect,4,0,4,0,1,
6101bcb1b6f73b8138d66252,SCN,2024-06-25_13h25.41.534,LearnStrategy,2023.2.3,Win32,29.97601918,8,2,6,,,,,,,,6,03,,,,,,,,,,,6,1.123,1,,,,,,-0.162962963,-0.37962963,1,0,0,1.123,Pegmatite_rect,5,0,5,0,1,
6101bcb1b6f73b8138d66252,SCN,2024-06-25_13h25.41.534,LearnStrategy,2023.2.3,Win32,29.97601918,8,2,7,,,,,,,,8,15,,,,,,,,,,,8,1.114,1,,,,,,0.451851852,-0.382407407,1,0,0,1.114,Pumice_rect,6,0,6,0,1,
6101bcb1b6f73b8138d66252,SCN,2024-06-25_13h25.41.534,LearnStrategy,2023.2.3,Win32,29.97601918,8,2,8,,,,,,,,7,07,,,,,,,,,,,7,2.241,1,,,,,,0.12962963,-0.411111111,1,0,0,2.241,Peridotite_rect,7,0,7,0,1,
6101bcb1b6f73b8138d66252,SCN,2024-06-25_13h25.41.534,LearnStrategy,2023.2.3,Win32,29.97601918,8,2,9,,,,,,,,2,10,,,,,,,,,,,4,4.191,0,,,,,,0.436111111,-0.259259259,1,0,0,4.191,Gabbro_rect,8,0,8,0,1,
6101bcb1b6f73b8138d66252,SCN,2024-06-25_13h25.41.534,LearnStrategy,2023.2.3,Win32,29.97601918,8,2,10,,,,,,,,1,01,,,,,,,,,,,4,1.7,0,,,,,,0.427777778,-0.256481481,1,0,0,1.7,Gabbro_rect,9,0,9,0,1,
6101bcb1b6f73b8138d66252,SCN,2024-06-25_13h25.41.534,LearnStrategy,2023.2.3,Win32,29.97601918,8,2,11,,,,,,,,2,12,,,,,,,,,,,2,5.362,1,,,,,,-0.096296296,-0.253703704,1,0,0,5.362,Basalt_rect,10,0,10,0,1,
6101bcb1b6f73b8138d66252,SCN,2024-06-25_13h25.41.534,LearnStrategy,2023.2.3,Win32,29.97601918,8,2,12,,,,,,,,5,06,,,,,,,,,,,5,1.099,1,,,,,,-0.387037037,-0.388888889,1,0,0,1.099,Obsidian_rect,11,0,11,0,1,
6101bcb1b6f73b8138d66252,SCN,2024-06-25_13h25.41.534,LearnStrategy,2023.2.3,Win32,29.97601918,8,2,13,,,,,,,,6,07,,,,,,,,,,,6,1.2,1,,,,,,-0.194444444,-0.393518519,1,0,0,1.2,Pegmatite_rect,12,0,12,0,1,
6101bcb1b6f73b8138d66252,SCN,2024-06-25_13h25.41.534,LearnStrategy,2023.2.3,Win32,29.97601918,8,2,14,,,,,,,,4,05,,,,,,,,,,,4,5.406,1,,,,,,0.376851852,-0.257407407,1,0,0,5.406,Gabbro_rect,13,0,13,0,1,
6101bcb1b6f73b8138d66252,SCN,2024-06-25_13h25.41.534,LearnStrategy,2023.2.3,Win32,29.97601918,8,2,15,,,,,,,,5,12,,,,,,,,,,,5,1.305,1,,,,,,-0.371296296,-0.407407407,1,0,0,1.305,Obsidian_rect,14,0,14,0,1,
6101bcb1b6f73b8138d66252,SCN,2024-06-25_13h25.41.534,LearnStrategy,2023.2.3,Win32,29.97601918,8,2,16,,,,,,,,3,16,,,,,,,,,,,3,3.164,1,,,,,,0.096296296,-0.239814815,1,0,0,3.164,Diorite_rect,15,0,15,0,1,
6101bcb1b6f73b8138d66252,SCN,2024-06-25_13h25.41.534,LearnStrategy,2023.2.3,Win32,29.97601918,9,1,1,-0.126851852,0.125925926,1,0,0,0.866,Peridotite_08,7,08,4,4,0.866,0.109259259,-0.409259259,1,0,0,3.688,Peridotite_rect,7,3.688,1,0,0,0,0,1,,,,,,,,,,,,,
6101bcb1b6f73b8138d66252,SCN,2024-06-25_13h25.41.534,LearnStrategy,2023.2.3,Win32,29.97601918,9,1,2,0.239814815,0.113888889,1,0,0,1.365,Andesite_04,1,04,4,6,1.365,-0.351851852,-0.250925926,1,0,0,1.616,Andesite_rect,1,1.616,1,1,0,1,0,1,,,,,,,,,,,,,
6101bcb1b6f73b8138d66252,SCN,2024-06-25_13h25.41.534,LearnStrategy,2023.2.3,Win32,29.97601918,9,1,3,0.064814815,0.358333333,1,0,0,0.765,Andesite_06,1,06,6,5,0.765,-0.399074074,-0.248148148,1,0,0,2.116,Andesite_rect,1,2.116,1,2,0,2,0,1,,,,,,,,,,,,,
6101bcb1b6f73b8138d66252,SCN,2024-06-25_13h25.41.534,LearnStrategy,2023.2.3,Win32,29.97601918,9,1,4,-0.401851852,-0.112037037,1,0,0,0.851,Peridotite_10,7,10,3,2,0.851,0.219444444,-0.405555556,1,0,0,1.037,Peridotite_rect,7,1.037,1,3,0,3,0,1,,,,,,,,,,,,,
6101bcb1b6f73b8138d66252,SCN,2024-06-25_13h25.41.534,LearnStrategy,2023.2.3,Win32,29.97601918,9,1,5,-0.112037037,-0.424074074,1,0,0,1.317,Andesite_07,1,07,1,4,1.317,0.075925926,-0.248148148,1,0,0,1.192,Diorite_rect,3,1.192,0,4,0,4,0,1,,,,,,,,,,,,,
6101bcb1b6f73b8138d66252,SCN,2024-06-25_13h25.41.534,LearnStrategy,2023.2.3,Win32,29.97601918,9,1,6,-0.390740741,-0.397222222,1,0,0,1.399,Pumice_08,8,08,1,2,1.399,0.333333333,-0.398148148,1,0,0,1.034,Pumice_rect,8,1.034,1,5,0,5,0,1,,,,,,,,,,,,,
6101bcb1b6f73b8138d66252,SCN,2024-06-25_13h25.41.534,LearnStrategy,2023.2.3,Win32,29.97601918,9,1,7,0.22962963,0.110185185,1,0,0,0.645,Andesite_04,1,04,4,6,0.645,-0.349074074,-0.262962963,1,0,0,1.106,Andesite_rect,1,1.106,1,6,0,6,0,1,,,,,,,,,,,,,
6101bcb1b6f73b8138d66252,SCN,2024-06-25_13h25.41.534,LearnStrategy,2023.2.3,Win32,29.97601918,9,1,8,0.383333333,0.37962963,1,0,0,1.478,Diorite_12,3,12,6,7,1.478,0.125925926,-0.262037037,1,0,0,1.267,Diorite_rect,3,1.267,1,7,0,7,0,1,,,,,,,,,,,,,
6101bcb1b6f73b8138d66252,SCN,2024-06-25_13h25.41.534,LearnStrategy,2023.2.3,Win32,29.97601918,9,1,9,0.587037037,0.096296296,1,0,0,1.256,Peridotite_13,7,13,4,8,1.256,0.123148148,-0.42037037,1,0,0,0.865,Peridotite_rect,7,0.865,1,8,0,8,0,1,,,,,,,,,,,,,
6101bcb1b6f73b8138d66252,SCN,2024-06-25_13h25.41.534,LearnStrategy,2023.2.3,Win32,29.97601918,9,1,10,-0.373148148,-0.256481481,1,0,0,0.744,Gabbro_11,4,11,2,2,0.744,-0.105555556,-0.256481481,1,0,0,0.99,Basalt_rect,2,0.99,0,9,0,9,0,1,,,,,,,,,,,,,
6101bcb1b6f73b8138d66252,SCN,2024-06-25_13h25.41.534,LearnStrategy,2023.2.3,Win32,29.97601918,9,1,11,0.063888889,-0.112962963,1,0,0,0.874,Basalt_01,2,01,3,5,0.874,0.418518519,-0.252777778,1,0,0,1.602,Gabbro_rect,4,1.602,0,10,0,10,0,1,,,,,,,,,,,,,
6101bcb1b6f73b8138d66252,SCN,2024-06-25_13h25.41.534,LearnStrategy,2023.2.3,Win32,29.97601918,9,1,12,-0.384259259,-0.248148148,1,0,0,1.295,Gabbro_11,4,11,2,2,1.295,0.336111111,-0.234259259,1,0,0,1.327,Gabbro_rect,4,1.327,1,11,0,11,0,1,,,,,,,,,,,,,
6101bcb1b6f73b8138d66252,SCN,2024-06-25_13h25.41.534,LearnStrategy,2023.2.3,Win32,29.97601918,9,1,13,0.066666667,-0.092592593,1,0,0,0.834,Basalt_01,2,01,3,5,0.834,-0.092592593,-0.249074074,1,0,0,1.074,Basalt_rect,2,1.074,1,12,0,12,0,1,,,,,,,,,,,,,
6101bcb1b6f73b8138d66252,SCN,2024-06-25_13h25.41.534,LearnStrategy,2023.2.3,Win32,29.97601918,9,1,14,-0.062037037,0.262037037,1,0,0,0.977,Andesite_09,1,09,5,4,0.977,-0.130555556,-0.24537037,1,0,0,1.374,Basalt_rect,2,1.374,0,13,0,13,0,1,,,,,,,,,,,,,
6101bcb1b6f73b8138d66252,SCN,2024-06-25_13h25.41.534,LearnStrategy,2023.2.3,Win32,29.97601918,9,1,15,-0.517592593,0.244444444,1,0,0,1.423,Pumice_09,8,09,5,1,1.423,0.349074074,-0.392592593,1,0,0,3.341,Pumice_rect,8,3.341,1,14,0,14,0,1,,,,,,,,,,,,,
6101bcb1b6f73b8138d66252,SCN,2024-06-25_13h25.41.534,LearnStrategy,2023.2.3,Win32,29.97601918,9,1,16,-0.375925926,0.25,1,0,0,0.912,Gabbro_15,4,15,5,2,0.912,-0.115740741,-0.24537037,1,0,0,2.011,Basalt_rect,2,2.011,0,15,0,15,0,1,,,,,,,,,,,,,
6101bcb1b6f73b8138d66252,SCN,2024-06-25_13h25.41.534,LearnStrategy,2023.2.3,Win32,29.97601918,9,2,1,,,,,,,,7,14,,,,,,,,,,,7,4.325,1,,,,,,0.052777778,-0.413888889,1,0,0,4.325,Peridotite_rect,0,0,0,0,1,
6101bcb1b6f73b8138d66252,SCN,2024-06-25_13h25.41.534,LearnStrategy,2023.2.3,Win32,29.97601918,9,2,2,,,,,,,,7,04,,,,,,,,,,,6,1.661,0,,,,,,-0.149074074,-0.405555556,1,0,0,1.661,Pegmatite_rect,1,0,1,0,1,
6101bcb1b6f73b8138d66252,SCN,2024-06-25_13h25.41.534,LearnStrategy,2023.2.3,Win32,29.97601918,9,2,3,,,,,,,,4,03,,,,,,,,,,,4,5.093,1,,,,,,0.350925926,-0.237037037,1,0,0,5.093,Gabbro_rect,2,0,2,0,1,
6101bcb1b6f73b8138d66252,SCN,2024-06-25_13h25.41.534,LearnStrategy,2023.2.3,Win32,29.97601918,9,2,4,,,,,,,,2,02,,,,,,,,,,,2,1.735,1,,,,,,-0.135185185,-0.251851852,1,0,0,1.735,Basalt_rect,3,0,3,0,1,
6101bcb1b6f73b8138d66252,SCN,2024-06-25_13h25.41.534,LearnStrategy,2023.2.3,Win32,29.97601918,9,2,5,,,,,,,,3,07,,,,,,,,,,,3,1.217,1,,,,,,0.117592593,-0.25,1,0,0,1.217,Diorite_rect,4,0,4,0,1,
6101bcb1b6f73b8138d66252,SCN,2024-06-25_13h25.41.534,LearnStrategy,2023.2.3,Win32,29.97601918,9,2,6,,,,,,,,5,09,,,,,,,,,,,5,2.075,1,,,,,,-0.400925926,-0.389814815,1,0,0,2.075,Obsidian_rect,5,0,5,0,1,
6101bcb1b6f73b8138d66252,SCN,2024-06-25_13h25.41.534,LearnStrategy,2023.2.3,Win32,29.97601918,9,2,7,,,,,,,,5,16,,,,,,,,,,,5,0.89,1,,,,,,-0.394444444,-0.385185185,1,0,0,0.89,Obsidian_rect,6,0,6,0,1,
6101bcb1b6f73b8138d66252,SCN,2024-06-25_13h25.41.534,LearnStrategy,2023.2.3,Win32,29.97601918,9,2,8,,,,,,,,8,13,,,,,,,,,,,8,1.882,1,,,,,,0.372222222,-0.394444444,1,0,0,1.882,Pumice_rect,7,0,7,0,1,
6101bcb1b6f73b8138d66252,SCN,2024-06-25_13h25.41.534,LearnStrategy,2023.2.3,Win32,29.97601918,9,2,9,,,,,,,,6,12,,,,,,,,,,,6,1.191,1,,,,,,-0.186111111,-0.400925926,1,0,0,1.191,Pegmatite_rect,8,0,8,0,1,
6101bcb1b6f73b8138d66252,SCN,2024-06-25_13h25.41.534,LearnStrategy,2023.2.3,Win32,29.97601918,9,2,10,,,,,,,,3,09,,,,,,,,,,,3,4.392,1,,,,,,0.092592593,-0.252777778,1,0,0,4.392,Diorite_rect,9,0,9,0,1,
6101bcb1b6f73b8138d66252,SCN,2024-06-25_13h25.41.534,LearnStrategy,2023.2.3,Win32,29.97601918,9,2,11,,,,,,,,4,13,,,,,,,,,,,4,4.114,1,,,,,,0.427777778,-0.248148148,1,0,0,4.114,Gabbro_rect,10,0,10,0,1,
6101bcb1b6f73b8138d66252,SCN,2024-06-25_13h25.41.534,LearnStrategy,2023.2.3,Win32,29.97601918,9,2,12,,,,,,,,6,16,,,,,,,,,,,3,2.889,0,,,,,,0.085185185,-0.251851852,1,0,0,2.889,Diorite_rect,11,0,11,0,1,
6101bcb1b6f73b8138d66252,SCN,2024-06-25_13h25.41.534,LearnStrategy,2023.2.3,Win32,29.97601918,9,2,13,,,,,,,,8,03,,,,,,,,,,,8,1.174,1,,,,,,0.348148148,-0.400925926,1,0,0,1.174,Pumice_rect,12,0,12,0,1,
6101bcb1b6f73b8138d66252,SCN,2024-06-25_13h25.41.534,LearnStrategy,2023.2.3,Win32,29.97601918,9,2,14,,,,,,,,2,05,,,,,,,,,,,2,1.156,1,,,,,,-0.103703704,-0.243518519,1,0,0,1.156,Basalt_rect,13,0,13,0,1,
6101bcb1b6f73b8138d66252,SCN,2024-06-25_13h25.41.534,LearnStrategy,2023.2.3,Win32,29.97601918,9,2,15,,,,,,,,1,14,,,,,,,,,,,1,5.034,1,,,,,,-0.357407407,-0.257407407,1,0,0,5.034,Andesite_rect,14,0,14,0,1,
6101bcb1b6f73b8138d66252,SCN,2024-06-25_13h25.41.534,LearnStrategy,2023.2.3,Win32,29.97601918,9,2,16,,,,,,,,1,11,,,,,,,,,,,1,1.213,1,,,,,,-0.357407407,-0.257407407,1,0,0,1.213,Andesite_rect,15,0,15,0,1,
6101bcb1b6f73b8138d66252,SCN,2024-06-25_13h25.41.534,LearnStrategy,2023.2.3,Win32,29.97601918,,,,,,,,,,,,,,,,,,,,,,,,,,,,,,,,,,,,,,,,,,,1
6101bcb1b6f73b8138d66252,SCN,2024-06-25_13h25.41.534,LearnStrategy,2023.2.3,Win32,29.97601918,,,,,,,,,,,,,,,,,,,,,,,,,,,,,,,,,,,,,,,,,,,
6101bcb1b6f73b8138d66252,SCN,2024-06-25_13h25.41.534,LearnStrategy,2023.2.3,Win32,29.97601918,,,,,,,,,,,5,05,1,1,,,,,,,,,,,,,,,,,,,,,,,,,,,,,
6101bcb1b6f73b8138d66252,SCN,2024-06-25_13h25.41.534,LearnStrategy,2023.2.3,Win32,29.97601918,,,,,,,,,,,8,08,1,2,,,,,,,,,,,,,,,,,,,,,,,,,,,,,
6101bcb1b6f73b8138d66252,SCN,2024-06-25_13h25.41.534,LearnStrategy,2023.2.3,Win32,29.97601918,,,,,,,,,,,4,10,1,3,,,,,,,,,,,,,,,,,,,,,,,,,,,,,
6101bcb1b6f73b8138d66252,SCN,2024-06-25_13h25.41.534,LearnStrategy,2023.2.3,Win32,29.97601918,,,,,,,,,,,1,07,1,4,,,,,,,,,,,,,,,,,,,,,,,,,,,,,
6101bcb1b6f73b8138d66252,SCN,2024-06-25_13h25.41.534,LearnStrategy,2023.2.3,Win32,29.97601918,,,,,,,,,,,4,12,1,5,,,,,,,,,,,,,,,,,,,,,,,,,,,,,
6101bcb1b6f73b8138d66252,SCN,2024-06-25_13h25.41.534,LearnStrategy,2023.2.3,Win32,29.97601918,,,,,,,,,,,6,05,1,6,,,,,,,,,,,,,,,,,,,,,,,,,,,,,
6101bcb1b6f73b8138d66252,SCN,2024-06-25_13h25.41.534,LearnStrategy,2023.2.3,Win32,29.97601918,,,,,,,,,,,6,13,1,7,,,,,,,,,,,,,,,,,,,,,,,,,,,,,
6101bcb1b6f73b8138d66252,SCN,2024-06-25_13h25.41.534,LearnStrategy,2023.2.3,Win32,29.97601918,,,,,,,,,,,8,14,1,8,,,,,,,,,,,,,,,,,,,,,,,,,,,,,
6101bcb1b6f73b8138d66252,SCN,2024-06-25_13h25.41.534,LearnStrategy,2023.2.3,Win32,29.97601918,,,,,,,,,,,7,12,2,1,,,,,,,,,,,,,,,,,,,,,,,,,,,,,
6101bcb1b6f73b8138d66252,SCN,2024-06-25_13h25.41.534,LearnStrategy,2023.2.3,Win32,29.97601918,,,,,,,,,,,4,11,2,2,,,,,,,,,,,,,,,,,,,,,,,,,,,,,
6101bcb1b6f73b8138d66252,SCN,2024-06-25_13h25.41.534,LearnStrategy,2023.2.3,Win32,29.97601918,,,,,,,,,,,1,16,2,3,,,,,,,,,,,,,,,,,,,,,,,,,,,,,
6101bcb1b6f73b8138d66252,SCN,2024-06-25_13h25.41.534,LearnStrategy,2023.2.3,Win32,29.97601918,,,,,,,,,,,2,16,2,4,,,,,,,,,,,,,,,,,,,,,,,,,,,,,
6101bcb1b6f73b8138d66252,SCN,2024-06-25_13h25.41.534,LearnStrategy,2023.2.3,Win32,29.97601918,,,,,,,,,,,1,05,2,5,,,,,,,,,,,,,,,,,,,,,,,,,,,,,
6101bcb1b6f73b8138d66252,SCN,2024-06-25_13h25.41.534,LearnStrategy,2023.2.3,Win32,29.97601918,,,,,,,,,,,8,05,2,6,,,,,,,,,,,,,,,,,,,,,,,,,,,,,
6101bcb1b6f73b8138d66252,SCN,2024-06-25_13h25.41.534,LearnStrategy,2023.2.3,Win32,29.97601918,,,,,,,,,,,3,02,2,7,,,,,,,,,,,,,,,,,,,,,,,,,,,,,
6101bcb1b6f73b8138d66252,SCN,2024-06-25_13h25.41.534,LearnStrategy,2023.2.3,Win32,29.97601918,,,,,,,,,,,3,08,2,8,,,,,,,,,,,,,,,,,,,,,,,,,,,,,
6101bcb1b6f73b8138d66252,SCN,2024-06-25_13h25.41.534,LearnStrategy,2023.2.3,Win32,29.97601918,,,,,,,,,,,5,02,3,1,,,,,,,,,,,,,,,,,,,,,,,,,,,,,
6101bcb1b6f73b8138d66252,SCN,2024-06-25_13h25.41.534,LearnStrategy,2023.2.3,Win32,29.97601918,,,,,,,,,,,7,10,3,2,,,,,,,,,,,,,,,,,,,,,,,,,,,,,
6101bcb1b6f73b8138d66252,SCN,2024-06-25_13h25.41.534,LearnStrategy,2023.2.3,Win32,29.97601918,,,,,,,,,,,8,04,3,3,,,,,,,,,,,,,,,,,,,,,,,,,,,,,
6101bcb1b6f73b8138d66252,SCN,2024-06-25_13h25.41.534,LearnStrategy,2023.2.3,Win32,29.97601918,,,,,,,,,,,4,09,3,4,,,,,,,,,,,,,,,,,,,,,,,,,,,,,
6101bcb1b6f73b8138d66252,SCN,2024-06-25_13h25.41.534,LearnStrategy,2023.2.3,Win32,29.97601918,,,,,,,,,,,2,01,3,5,,,,,,,,,,,,,,,,,,,,,,,,,,,,,
6101bcb1b6f73b8138d66252,SCN,2024-06-25_13h25.41.534,LearnStrategy,2023.2.3,Win32,29.97601918,,,,,,,,,,,2,11,3,6,,,,,,,,,,,,,,,,,,,,,,,,,,,,,
6101bcb1b6f73b8138d66252,SCN,2024-06-25_13h25.41.534,LearnStrategy,2023.2.3,Win32,29.97601918,,,,,,,,,,,3,15,3,7,,,,,,,,,,,,,,,,,,,,,,,,,,,,,
6101bcb1b6f73b8138d66252,SCN,2024-06-25_13h25.41.534,LearnStrategy,2023.2.3,Win32,29.97601918,,,,,,,,,,,5,07,3,8,,,,,,,,,,,,,,,,,,,,,,,,,,,,,
6101bcb1b6f73b8138d66252,SCN,2024-06-25_13h25.41.534,LearnStrategy,2023.2.3,Win32,29.97601918,,,,,,,,,,,8,06,4,1,,,,,,,,,,,,,,,,,,,,,,,,,,,,,
6101bcb1b6f73b8138d66252,SCN,2024-06-25_13h25.41.534,LearnStrategy,2023.2.3,Win32,29.97601918,,,,,,,,,,,7,16,4,2,,,,,,,,,,,,,,,,,,,,,,,,,,,,,
6101bcb1b6f73b8138d66252,SCN,2024-06-25_13h25.41.534,LearnStrategy,2023.2.3,Win32,29.97601918,,,,,,,,,,,5,14,4,3,,,,,,,,,,,,,,,,,,,,,,,,,,,,,
6101bcb1b6f73b8138d66252,SCN,2024-06-25_13h25.41.534,LearnStrategy,2023.2.3,Win32,29.97601918,,,,,,,,,,,7,08,4,4,,,,,,,,,,,,,,,,,,,,,,,,,,,,,
6101bcb1b6f73b8138d66252,SCN,2024-06-25_13h25.41.534,LearnStrategy,2023.2.3,Win32,29.97601918,,,,,,,,,,,6,15,4,5,,,,,,,,,,,,,,,,,,,,,,,,,,,,,
6101bcb1b6f73b8138d66252,SCN,2024-06-25_13h25.41.534,LearnStrategy,2023.2.3,Win32,29.97601918,,,,,,,,,,,1,04,4,6,,,,,,,,,,,,,,,,,,,,,,,,,,,,,
6101bcb1b6f73b8138d66252,SCN,2024-06-25_13h25.41.534,LearnStrategy,2023.2.3,Win32,29.97601918,,,,,,,,,,,6,08,4,7,,,,,,,,,,,,,,,,,,,,,,,,,,,,,
6101bcb1b6f73b8138d66252,SCN,2024-06-25_13h25.41.534,LearnStrategy,2023.2.3,Win32,29.97601918,,,,,,,,,,,7,13,4,8,,,,,,,,,,,,,,,,,,,,,,,,,,,,,
6101bcb1b6f73b8138d66252,SCN,2024-06-25_13h25.41.534,LearnStrategy,2023.2.3,Win32,29.97601918,,,,,,,,,,,8,09,5,1,,,,,,,,,,,,,,,,,,,,,,,,,,,,,
6101bcb1b6f73b8138d66252,SCN,2024-06-25_13h25.41.534,LearnStrategy,2023.2.3,Win32,29.97601918,,,,,,,,,,,4,15,5,2,,,,,,,,,,,,,,,,,,,,,,,,,,,,,
6101bcb1b6f73b8138d66252,SCN,2024-06-25_13h25.41.534,LearnStrategy,2023.2.3,Win32,29.97601918,,,,,,,,,,,2,08,5,3,,,,,,,,,,,,,,,,,,,,,,,,,,,,,
6101bcb1b6f73b8138d66252,SCN,2024-06-25_13h25.41.534,LearnStrategy,2023.2.3,Win32,29.97601918,,,,,,,,,,,1,09,5,4,,,,,,,,,,,,,,,,,,,,,,,,,,,,,
6101bcb1b6f73b8138d66252,SCN,2024-06-25_13h25.41.534,LearnStrategy,2023.2.3,Win32,29.97601918,,,,,,,,,,,3,11,5,5,,,,,,,,,,,,,,,,,,,,,,,,,,,,,
6101bcb1b6f73b8138d66252,SCN,2024-06-25_13h25.41.534,LearnStrategy,2023.2.3,Win32,29.97601918,,,,,,,,,,,2,04,5,6,,,,,,,,,,,,,,,,,,,,,,,,,,,,,
6101bcb1b6f73b8138d66252,SCN,2024-06-25_13h25.41.534,LearnStrategy,2023.2.3,Win32,29.97601918,,,,,,,,,,,7,15,5,7,,,,,,,,,,,,,,,,,,,,,,,,,,,,,
6101bcb1b6f73b8138d66252,SCN,2024-06-25_13h25.41.534,LearnStrategy,2023.2.3,Win32,29.97601918,,,,,,,,,,,6,09,5,8,,,,,,,,,,,,,,,,,,,,,,,,,,,,,
6101bcb1b6f73b8138d66252,SCN,2024-06-25_13h25.41.534,LearnStrategy,2023.2.3,Win32,29.97601918,,,,,,,,,,,4,01,6,1,,,,,,,,,,,,,,,,,,,,,,,,,,,,,
6101bcb1b6f73b8138d66252,SCN,2024-06-25_13h25.41.534,LearnStrategy,2023.2.3,Win32,29.97601918,,,,,,,,,,,6,06,6,2,,,,,,,,,,,,,,,,,,,,,,,,,,,,,
6101bcb1b6f73b8138d66252,SCN,2024-06-25_13h25.41.534,LearnStrategy,2023.2.3,Win32,29.97601918,,,,,,,,,,,5,04,6,3,,,,,,,,,,,,,,,,,,,,,,,,,,,,,
6101bcb1b6f73b8138d66252,SCN,2024-06-25_13h25.41.534,LearnStrategy,2023.2.3,Win32,29.97601918,,,,,,,,,,,3,14,6,4,,,,,,,,,,,,,,,,,,,,,,,,,,,,,
6101bcb1b6f73b8138d66252,SCN,2024-06-25_13h25.41.534,LearnStrategy,2023.2.3,Win32,29.97601918,,,,,,,,,,,1,06,6,5,,,,,,,,,,,,,,,,,,,,,,,,,,,,,
6101bcb1b6f73b8138d66252,SCN,2024-06-25_13h25.41.534,LearnStrategy,2023.2.3,Win32,29.97601918,,,,,,,,,,,5,10,6,6,,,,,,,,,,,,,,,,,,,,,,,,,,,,,
6101bcb1b6f73b8138d66252,SCN,2024-06-25_13h25.41.534,LearnStrategy,2023.2.3,Win32,29.97601918,,,,,,,,,,,3,12,6,7,,,,,,,,,,,,,,,,,,,,,,,,,,,,,
6101bcb1b6f73b8138d66252,SCN,2024-06-25_13h25.41.534,LearnStrategy,2023.2.3,Win32,29.97601918,,,,,,,,,,,2,09,6,8,,,,,,,,,,,,,,,,,,,,,,,,,,,,,