participant,condition,date,expName,psychopyVersion,OS,frameRate,block,phase,trial,learn_mouse_2.x,learn_mouse_2.y,learn_mouse_2.leftButton,learn_mouse_2.midButton,learn_mouse_2.rightButton,learn_mouse_2.time,learn_mouse_2.clicked_name,cat,token,row,col,t_select,cat_mouse_l.x,cat_mouse_l.y,cat_mouse_l.leftButton,cat_mouse_l.midButton,cat_mouse_l.rightButton,cat_mouse_l.time,cat_mouse_l.clicked_name,resp,t_resp,corr,train_trials.thisRepN,train_trials.thisTrialN,train_trials.thisN,train_trials.thisIndex,train_trials.ran,cat_mouse_t.x,cat_mouse_t.y,cat_mouse_t.leftButton,cat_mouse_t.midButton,cat_mouse_t.rightButton,cat_mouse_t.time,cat_mouse_t.clicked_name,test_trials.thisRepN,test_trials.thisTrialN,test_trials.thisN,test_trials.thisIndex,test_trials.ran,Bonus
6109f02b5f6b3477fa8ddd8a,TCR,2024-06-20_15h27.48.905,LearnStrategy,2023.2.3,Win32,60.24096386,,,,,,,,,,,,,,,,,,,,,,,,,,,,,,,,,,,,,,,,,,,
6109f02b5f6b3477fa8ddd8a,TCR,2024-06-20_15h27.48.905,LearnStrategy,2023.2.3,Win32,60.24096386,1,1,1,-0.052083333,0.024739583,1,0,0,11.6224,rock_grid_rect_2,4,12,-1,-1,11.622,-0.20703125,-0.26171875,1,0,0,6.5253,Basalt_rect,2,6.525,0,0,0,0,0,1,,,,,,,,,,,,,
6109f02b5f6b3477fa8ddd8a,TCR,2024-06-20_15h27.48.905,LearnStrategy,2023.2.3,Win32,60.24096386,1,1,2,-0.055989583,-0.014322917,1,0,0,3.1336,rock_grid_rect_2,3,16,-1,-1,3.134,0.145833333,-0.41796875,1,0,0,4.605,Peridotite_rect,7,4.605,0,1,0,1,0,1,,,,,,,,,,,,,
6109f02b5f6b3477fa8ddd8a,TCR,2024-06-20_15h27.48.905,LearnStrategy,2023.2.3,Win32,60.24096386,1,1,3,0.059895833,-0.009114583,1,0,0,10.4784,rock_grid_rect_2,8,13,-1,-1,10.478,0.38671875,-0.408854167,1,0,0,3.405,Pumice_rect,8,3.405,1,2,0,2,0,1,,,,,,,,,,,,,
6109f02b5f6b3477fa8ddd8a,TCR,2024-06-20_15h27.48.905,LearnStrategy,2023.2.3,Win32,60.24096386,1,1,4,0.015625,-0.002604167,1,0,0,9.1081,rock_grid_rect_2,7,16,-1,-1,9.108,-0.1640625,-0.23046875,1,0,0,7.1158,Basalt_rect,2,7.116,0,3,0,3,0,1,,,,,,,,,,,,,
6109f02b5f6b3477fa8ddd8a,TCR,2024-06-20_15h27.48.905,LearnStrategy,2023.2.3,Win32,60.24096386,1,1,5,0.109375,0.010416667,1,0,0,5.6401,rock_grid_rect_2,3,10,-1,-1,5.64,0.162760417,-0.244791667,1,0,0,8.6748,Diorite_rect,3,8.675,1,4,0,4,0,1,,,,,,,,,,,,,
6109f02b5f6b3477fa8ddd8a,TCR,2024-06-20_15h27.48.905,LearnStrategy,2023.2.3,Win32,60.24096386,1,1,6,-0.029947917,-0.0078125,1,0,0,4.4302,rock_grid_rect_2,5,14,-1,-1,4.43,-0.352864583,-0.391927083,1,0,0,2.2156,Obsidian_rect,5,2.216,1,5,0,5,0,1,,,,,,,,,,,,,
6109f02b5f6b3477fa8ddd8a,TCR,2024-06-20_15h27.48.905,LearnStrategy,2023.2.3,Win32,60.24096386,1,1,7,0.053385417,-0.01171875,1,0,0,1.8406,rock_grid_rect_2,2,09,-1,-1,1.841,0.411458333,-0.259114583,1,0,0,5.2691,Gabbro_rect,4,5.269,0,6,0,6,0,1,,,,,,,,,,,,,
6109f02b5f6b3477fa8ddd8a,TCR,2024-06-20_15h27.48.905,LearnStrategy,2023.2.3,Win32,60.24096386,1,1,8,-0.03125,0.010416667,1,0,0,2.1429,rock_grid_rect_2,1,14,-1,-1,2.143,-0.149739583,-0.404947917,1,0,0,6.0745,Pegmatite_rect,6,6.075,0,7,0,7,0,1,,,,,,,,,,,,,
6109f02b5f6b3477fa8ddd8a,TCR,2024-06-20_15h27.48.905,LearnStrategy,2023.2.3,Win32,60.24096386,1,1,9,-0.110677083,-0.014322917,1,0,0,1.8744,rock_grid_rect_2,6,16,-1,-1,1.874,-0.154947917,-0.397135417,1,0,0,4.3002,Pegmatite_rect,6,4.3,1,8,0,8,0,1,,,,,,,,,,,,,
6109f02b5f6b3477fa8ddd8a,TCR,2024-06-20_15h27.48.905,LearnStrategy,2023.2.3,Win32,60.24096386,1,1,10,-0.080729167,-0.014322917,1,0,0,1.5878,rock_grid_rect_2,8,08,-1,-1,1.588,0.368489583,-0.248697917,1,0,0,9.0102,Gabbro_rect,4,9.01,0,9,0,9,0,1,,,,,,,,,,,,,
6109f02b5f6b3477fa8ddd8a,TCR,2024-06-20_15h27.48.905,LearnStrategy,2023.2.3,Win32,60.24096386,1,1,11,-0.015625,0,1,0,0,1.918,rock_grid_rect_2,6,10,-1,-1,1.918,-0.173177083,-0.38671875,1,0,0,4.9029,Pegmatite_rect,6,4.903,1,10,0,10,0,1,,,,,,,,,,,,,
6109f02b5f6b3477fa8ddd8a,TCR,2024-06-20_15h27.48.905,LearnStrategy,2023.2.3,Win32,60.24096386,1,1,12,0.0703125,-0.006510417,1,0,0,1.8173,rock_grid_rect_2,1,07,-1,-1,1.817,0.138020833,-0.251302083,1,0,0,5.9306,Diorite_rect,3,5.931,0,11,0,11,0,1,,,,,,,,,,,,,
6109f02b5f6b3477fa8ddd8a,TCR,2024-06-20_15h27.48.905,LearnStrategy,2023.2.3,Win32,60.24096386,1,1,13,-0.0234375,0.01171875,1,0,0,1.6221,rock_grid_rect_2,5,12,-1,-1,1.622,-0.385416667,-0.397135417,1,0,0,2.3028,Obsidian_rect,5,2.303,1,12,0,12,0,1,,,,,,,,,,,,,
6109f02b5f6b3477fa8ddd8a,TCR,2024-06-20_15h27.48.905,LearnStrategy,2023.2.3,Win32,60.24096386,1,1,14,-0.0234375,-0.002604167,1,0,0,1.5564,rock_grid_rect_2,2,12,-1,-1,1.556,0.345052083,-0.265625,1,0,0,6.8964,Gabbro_rect,4,6.896,0,13,0,13,0,1,,,,,,,,,,,,,
6109f02b5f6b3477fa8ddd8a,TCR,2024-06-20_15h27.48.905,LearnStrategy,2023.2.3,Win32,60.24096386,1,1,15,-0.033854167,0.009114583,1,0,0,1.6598,rock_grid_rect_2,7,02,-1,-1,1.66,-0.115885417,-0.40625,1,0,0,2.3449,Pegmatite_rect,6,2.345,0,14,0,14,0,1,,,,,,,,,,,,,
6109f02b5f6b3477fa8ddd8a,TCR,2024-06-20_15h27.48.905,LearnStrategy,2023.2.3,Win32,60.24096386,1,1,16,0.08203125,-0.006510417,1,0,0,1.9687,rock_grid_rect_2,4,11,-1,-1,1.969,0.33984375,-0.244791667,1,0,0,5.0981,Gabbro_rect,4,5.098,1,15,0,15,0,1,,,,,,,,,,,,,
6109f02b5f6b3477fa8ddd8a,TCR,2024-06-20_15h27.48.905,LearnStrategy,2023.2.3,Win32,60.24096386,1,2,1,,,,,,,,5,04,,,,,,,,,,,5,2.609,1,,,,,,-0.376302083,-0.390625,1,0,0,2.6091,Obsidian_rect,0,0,0,0,1,
6109f02b5f6b3477fa8ddd8a,TCR,2024-06-20_15h27.48.905,LearnStrategy,2023.2.3,Win32,60.24096386,1,2,2,,,,,,,,1,02,,,,,,,,,,,2,6.168,0,,,,,,-0.091145833,-0.270833333,1,0,0,6.1682,Basalt_rect,1,0,1,0,1,
6109f02b5f6b3477fa8ddd8a,TCR,2024-06-20_15h27.48.905,LearnStrategy,2023.2.3,Win32,60.24096386,1,2,3,,,,,,,,3,13,,,,,,,,,,,6,4.825,0,,,,,,-0.119791667,-0.408854167,1,0,0,4.8252,Pegmatite_rect,2,0,2,0,1,
6109f02b5f6b3477fa8ddd8a,TCR,2024-06-20_15h27.48.905,LearnStrategy,2023.2.3,Win32,60.24096386,1,2,4,,,,,,,,2,02,,,,,,,,,,,4,8.571,0,,,,,,0.35546875,-0.25,1,0,0,8.5712,Gabbro_rect,3,0,3,0,1,
6109f02b5f6b3477fa8ddd8a,TCR,2024-06-20_15h27.48.905,LearnStrategy,2023.2.3,Win32,60.24096386,1,2,5,,,,,,,,1,04,,,,,,,,,,,8,13.783,0,,,,,,0.428385417,-0.407552083,1,0,0,13.7827,Pumice_rect,4,0,4,0,1,
6109f02b5f6b3477fa8ddd8a,TCR,2024-06-20_15h27.48.905,LearnStrategy,2023.2.3,Win32,60.24096386,1,2,6,,,,,,,,8,05,,,,,,,,,,,8,2.999,1,,,,,,0.428385417,-0.407552083,1,0,0,2.9993,Pumice_rect,5,0,5,0,1,
6109f02b5f6b3477fa8ddd8a,TCR,2024-06-20_15h27.48.905,LearnStrategy,2023.2.3,Win32,60.24096386,1,2,7,,,,,,,,3,07,,,,,,,,,,,3,5.195,1,,,,,,0.11328125,-0.252604167,1,0,0,5.1949,Diorite_rect,6,0,6,0,1,
6109f02b5f6b3477fa8ddd8a,TCR,2024-06-20_15h27.48.905,LearnStrategy,2023.2.3,Win32,60.24096386,1,2,8,,,,,,,,7,05,,,,,,,,,,,7,4.463,1,,,,,,0.069010417,-0.412760417,1,0,0,4.4625,Peridotite_rect,7,0,7,0,1,
6109f02b5f6b3477fa8ddd8a,TCR,2024-06-20_15h27.48.905,LearnStrategy,2023.2.3,Win32,60.24096386,1,2,9,,,,,,,,8,09,,,,,,,,,,,8,3.4,1,,,,,,0.37890625,-0.40234375,1,0,0,3.3997,Pumice_rect,8,0,8,0,1,
6109f02b5f6b3477fa8ddd8a,TCR,2024-06-20_15h27.48.905,LearnStrategy,2023.2.3,Win32,60.24096386,1,2,10,,,,,,,,6,11,,,,,,,,,,,6,4.989,1,,,,,,-0.16796875,-0.415364583,1,0,0,4.9893,Pegmatite_rect,9,0,9,0,1,
6109f02b5f6b3477fa8ddd8a,TCR,2024-06-20_15h27.48.905,LearnStrategy,2023.2.3,Win32,60.24096386,1,2,11,,,,,,,,4,01,,,,,,,,,,,1,14.676,0,,,,,,-0.41015625,-0.24609375,1,0,0,14.6755,Andesite_rect,10,0,10,0,1,
6109f02b5f6b3477fa8ddd8a,TCR,2024-06-20_15h27.48.905,LearnStrategy,2023.2.3,Win32,60.24096386,1,2,12,,,,,,,,2,08,,,,,,,,,,,4,14.395,0,,,,,,0.352864583,-0.264322917,1,0,0,14.3952,Gabbro_rect,11,0,11,0,1,
6109f02b5f6b3477fa8ddd8a,TCR,2024-06-20_15h27.48.905,LearnStrategy,2023.2.3,Win32,60.24096386,1,2,13,,,,,,,,5,10,,,,,,,,,,,5,1.559,1,,,,,,-0.3515625,-0.385416667,1,0,0,1.559,Obsidian_rect,12,0,12,0,1,
6109f02b5f6b3477fa8ddd8a,TCR,2024-06-20_15h27.48.905,LearnStrategy,2023.2.3,Win32,60.24096386,1,2,14,,,,,,,,6,06,,,,,,,,,,,6,10.934,1,,,,,,-0.151041667,-0.391927083,1,0,0,10.9342,Pegmatite_rect,13,0,13,0,1,
6109f02b5f6b3477fa8ddd8a,TCR,2024-06-20_15h27.48.905,LearnStrategy,2023.2.3,Win32,60.24096386,1,2,15,,,,,,,,7,04,,,,,,,,,,,7,8.011,1,,,,,,0.1640625,-0.388020833,1,0,0,8.0112,Peridotite_rect,14,0,14,0,1,
6109f02b5f6b3477fa8ddd8a,TCR,2024-06-20_15h27.48.905,LearnStrategy,2023.2.3,Win32,60.24096386,1,2,16,,,,,,,,4,05,,,,,,,,,,,1,9.881,0,,,,,,-0.330729167,-0.2421875,1,0,0,9.8811,Andesite_rect,15,0,15,0,1,
6109f02b5f6b3477fa8ddd8a,TCR,2024-06-20_15h27.48.905,LearnStrategy,2023.2.3,Win32,60.24096386,2,1,1,0.11328125,0.015625,1,0,0,9.9544,rock_grid_rect_2,4,10,-1,-1,9.954,0.364583333,-0.239583333,1,0,0,27.3406,Gabbro_rect,4,27.341,1,0,0,0,0,1,,,,,,,,,,,,,
6109f02b5f6b3477fa8ddd8a,TCR,2024-06-20_15h27.48.905,LearnStrategy,2023.2.3,Win32,60.24096386,2,1,2,-0.088541667,0.001302083,1,0,0,1.5025,rock_grid_rect_2,4,11,-1,-1,1.503,0.352864583,-0.251302083,1,0,0,4.3925,Gabbro_rect,4,4.393,1,1,0,1,0,1,,,,,,,,,,,,,
6109f02b5f6b3477fa8ddd8a,TCR,2024-06-20_15h27.48.905,LearnStrategy,2023.2.3,Win32,60.24096386,2,1,3,-0.046875,0.006510417,1,0,0,2.748,rock_grid_rect_2,4,14,-1,-1,2.748,0.1171875,-0.243489583,1,0,0,3.0933,Diorite_rect,3,3.093,0,2,0,2,0,1,,,,,,,,,,,,,
6109f02b5f6b3477fa8ddd8a,TCR,2024-06-20_15h27.48.905,LearnStrategy,2023.2.3,Win32,60.24096386,2,1,4,0.036458333,-0.013020833,1,0,0,1.7512,rock_grid_rect_2,1,16,-1,-1,1.751,-0.395833333,-0.233072917,1,0,0,6.8963,Andesite_rect,1,6.896,1,3,0,3,0,1,,,,,,,,,,,,,
6109f02b5f6b3477fa8ddd8a,TCR,2024-06-20_15h27.48.905,LearnStrategy,2023.2.3,Win32,60.24096386,2,1,5,0.018229167,0.001302083,1,0,0,1.5271,rock_grid_rect_2,2,01,-1,-1,1.527,0.37890625,-0.263020833,1,0,0,3.9271,Gabbro_rect,4,3.927,0,4,0,4,0,1,,,,,,,,,,,,,
6109f02b5f6b3477fa8ddd8a,TCR,2024-06-20_15h27.48.905,LearnStrategy,2023.2.3,Win32,60.24096386,2,1,6,-0.05078125,0.016927083,1,0,0,1.9281,rock_grid_rect_2,1,16,-1,-1,1.928,-0.3515625,-0.2578125,1,0,0,3.3605,Andesite_rect,1,3.361,1,5,0,5,0,1,,,,,,,,,,,,,
6109f02b5f6b3477fa8ddd8a,TCR,2024-06-20_15h27.48.905,LearnStrategy,2023.2.3,Win32,60.24096386,2,1,7,-0.041666667,-0.001302083,1,0,0,1.839,rock_grid_rect_2,6,05,-1,-1,1.839,-0.100260417,-0.412760417,1,0,0,2.2015,Pegmatite_rect,6,2.202,1,6,0,6,0,1,,,,,,,,,,,,,
6109f02b5f6b3477fa8ddd8a,TCR,2024-06-20_15h27.48.905,LearnStrategy,2023.2.3,Win32,60.24096386,2,1,8,-0.006510417,-0.0078125,1,0,0,1.4581,rock_grid_rect_2,1,06,-1,-1,1.458,-0.0546875,-0.231770833,1,0,0,6.5834,Basalt_rect,2,6.583,0,7,0,7,0,1,,,,,,,,,,,,,
6109f02b5f6b3477fa8ddd8a,TCR,2024-06-20_15h27.48.905,LearnStrategy,2023.2.3,Win32,60.24096386,2,1,9,-0.06640625,0.006510417,1,0,0,1.8732,rock_grid_rect_2,8,15,-1,-1,1.873,0.475260417,-0.403645833,1,0,0,1.686,Pumice_rect,8,1.686,1,8,0,8,0,1,,,,,,,,,,,,,
6109f02b5f6b3477fa8ddd8a,TCR,2024-06-20_15h27.48.905,LearnStrategy,2023.2.3,Win32,60.24096386,2,1,10,0.065104167,-0.022135417,1,0,0,1.658,rock_grid_rect_2,3,16,-1,-1,1.658,0.1484375,-0.236979167,1,0,0,1.7233,Diorite_rect,3,1.723,1,9,0,9,0,1,,,,,,,,,,,,,
6109f02b5f6b3477fa8ddd8a,TCR,2024-06-20_15h27.48.905,LearnStrategy,2023.2.3,Win32,60.24096386,2,1,11,0.01953125,-0.010416667,1,0,0,1.4419,rock_grid_rect_2,4,14,-1,-1,1.442,0.38671875,-0.236979167,1,0,0,2.6432,Gabbro_rect,4,2.643,1,10,0,10,0,1,,,,,,,,,,,,,
6109f02b5f6b3477fa8ddd8a,TCR,2024-06-20_15h27.48.905,LearnStrategy,2023.2.3,Win32,60.24096386,2,1,12,0.029947917,-0.006510417,1,0,0,1.4266,rock_grid_rect_2,3,10,-1,-1,1.427,0.141927083,-0.25,1,0,0,2.1622,Diorite_rect,3,2.162,1,11,0,11,0,1,,,,,,,,,,,,,
6109f02b5f6b3477fa8ddd8a,TCR,2024-06-20_15h27.48.905,LearnStrategy,2023.2.3,Win32,60.24096386,2,1,13,-0.01171875,-0.016927083,1,0,0,1.64,rock_grid_rect_2,1,01,-1,-1,1.64,0.341145833,-0.40234375,1,0,0,7.5122,Pumice_rect,8,7.512,0,12,0,12,0,1,,,,,,,,,,,,,
6109f02b5f6b3477fa8ddd8a,TCR,2024-06-20_15h27.48.905,LearnStrategy,2023.2.3,Win32,60.24096386,2,1,14,-0.03125,0.0078125,1,0,0,1.3227,rock_grid_rect_2,2,10,-1,-1,1.323,0.444010417,-0.25,1,0,0,3.31,Gabbro_rect,4,3.31,0,13,0,13,0,1,,,,,,,,,,,,,
6109f02b5f6b3477fa8ddd8a,TCR,2024-06-20_15h27.48.905,LearnStrategy,2023.2.3,Win32,60.24096386,2,1,15,0.010416667,-0.010416667,1,0,0,1.4561,rock_grid_rect_2,2,10,-1,-1,1.456,-0.13671875,-0.231770833,1,0,0,2.145,Basalt_rect,2,2.145,1,14,0,14,0,1,,,,,,,,,,,,,
6109f02b5f6b3477fa8ddd8a,TCR,2024-06-20_15h27.48.905,LearnStrategy,2023.2.3,Win32,60.24096386,2,1,16,-0.080729167,-0.00390625,1,0,0,1.641,rock_grid_rect_2,2,12,-1,-1,1.641,-0.125,-0.251302083,1,0,0,10.1404,Basalt_rect,2,10.14,1,15,0,15,0,1,,,,,,,,,,,,,
6109f02b5f6b3477fa8ddd8a,TCR,2024-06-20_15h27.48.905,LearnStrategy,2023.2.3,Win32,60.24096386,2,2,1,,,,,,,,7,10,,,,,,,,,,,7,4.166,1,,,,,,0.119791667,-0.408854167,1,0,0,4.1659,Peridotite_rect,0,0,0,0,1,
6109f02b5f6b3477fa8ddd8a,TCR,2024-06-20_15h27.48.905,LearnStrategy,2023.2.3,Win32,60.24096386,2,2,2,,,,,,,,8,03,,,,,,,,,,,8,3.127,1,,,,,,0.420572917,-0.412760417,1,0,0,3.127,Pumice_rect,1,0,1,0,1,
6109f02b5f6b3477fa8ddd8a,TCR,2024-06-20_15h27.48.905,LearnStrategy,2023.2.3,Win32,60.24096386,2,2,3,,,,,,,,8,06,,,,,,,,,,,8,3.553,1,,,,,,0.393229167,-0.397135417,1,0,0,3.5529,Pumice_rect,2,0,2,0,1,
6109f02b5f6b3477fa8ddd8a,TCR,2024-06-20_15h27.48.905,LearnStrategy,2023.2.3,Win32,60.24096386,2,2,4,,,,,,,,6,07,,,,,,,,,,,6,7.197,1,,,,,,-0.143229167,-0.403645833,1,0,0,7.1971,Pegmatite_rect,3,0,3,0,1,
6109f02b5f6b3477fa8ddd8a,TCR,2024-06-20_15h27.48.905,LearnStrategy,2023.2.3,Win32,60.24096386,2,2,5,,,,,,,,2,05,,,,,,,,,,,4,4.004,0,,,,,,0.354166667,-0.26171875,1,0,0,4.0037,Gabbro_rect,4,0,4,0,1,
6109f02b5f6b3477fa8ddd8a,TCR,2024-06-20_15h27.48.905,LearnStrategy,2023.2.3,Win32,60.24096386,2,2,6,,,,,,,,5,07,,,,,,,,,,,5,3.042,1,,,,,,-0.408854167,-0.41015625,1,0,0,3.0422,Obsidian_rect,5,0,5,0,1,
6109f02b5f6b3477fa8ddd8a,TCR,2024-06-20_15h27.48.905,LearnStrategy,2023.2.3,Win32,60.24096386,2,2,7,,,,,,,,7,15,,,,,,,,,,,7,1.919,1,,,,,,0.09765625,-0.39453125,1,0,0,1.9187,Peridotite_rect,6,0,6,0,1,
6109f02b5f6b3477fa8ddd8a,TCR,2024-06-20_15h27.48.905,LearnStrategy,2023.2.3,Win32,60.24096386,2,2,8,,,,,,,,6,03,,,,,,,,,,,6,4.397,1,,,,,,-0.123697917,-0.391927083,1,0,0,4.3971,Pegmatite_rect,7,0,7,0,1,
6109f02b5f6b3477fa8ddd8a,TCR,2024-06-20_15h27.48.905,LearnStrategy,2023.2.3,Win32,60.24096386,2,2,9,,,,,,,,2,06,,,,,,,,,,,2,8.019,1,,,,,,-0.102864583,-0.2421875,1,0,0,8.0194,Basalt_rect,8,0,8,0,1,
6109f02b5f6b3477fa8ddd8a,TCR,2024-06-20_15h27.48.905,LearnStrategy,2023.2.3,Win32,60.24096386,2,2,10,,,,,,,,4,09,,,,,,,,,,,5,2.225,0,,,,,,-0.369791667,-0.412760417,1,0,0,2.2254,Obsidian_rect,9,0,9,0,1,
6109f02b5f6b3477fa8ddd8a,TCR,2024-06-20_15h27.48.905,LearnStrategy,2023.2.3,Win32,60.24096386,2,2,11,,,,,,,,4,03,,,,,,,,,,,1,1.974,0,,,,,,-0.3671875,-0.244791667,1,0,0,1.9736,Andesite_rect,10,0,10,0,1,
6109f02b5f6b3477fa8ddd8a,TCR,2024-06-20_15h27.48.905,LearnStrategy,2023.2.3,Win32,60.24096386,2,2,12,,,,,,,,1,11,,,,,,,,,,,1,3.137,1,,,,,,-0.3671875,-0.244791667,1,0,0,3.1374,Andesite_rect,11,0,11,0,1,
6109f02b5f6b3477fa8ddd8a,TCR,2024-06-20_15h27.48.905,LearnStrategy,2023.2.3,Win32,60.24096386,2,2,13,,,,,,,,3,06,,,,,,,,,,,3,4.054,1,,,,,,0.1171875,-0.256510417,1,0,0,4.0536,Diorite_rect,12,0,12,0,1,
6109f02b5f6b3477fa8ddd8a,TCR,2024-06-20_15h27.48.905,LearnStrategy,2023.2.3,Win32,60.24096386,2,2,14,,,,,,,,3,02,,,,,,,,,,,3,5.341,1,,,,,,0.1171875,-0.256510417,1,0,0,5.3414,Diorite_rect,13,0,13,0,1,
6109f02b5f6b3477fa8ddd8a,TCR,2024-06-20_15h27.48.905,LearnStrategy,2023.2.3,Win32,60.24096386,2,2,15,,,,,,,,5,05,,,,,,,,,,,5,4.434,1,,,,,,-0.350260417,-0.415364583,1,0,0,4.434,Obsidian_rect,14,0,14,0,1,
6109f02b5f6b3477fa8ddd8a,TCR,2024-06-20_15h27.48.905,LearnStrategy,2023.2.3,Win32,60.24096386,2,2,16,,,,,,,,1,05,,,,,,,,,,,1,3.212,1,,,,,,-0.330729167,-0.239583333,1,0,0,3.2125,Andesite_rect,15,0,15,0,1,
6109f02b5f6b3477fa8ddd8a,TCR,2024-06-20_15h27.48.905,LearnStrategy,2023.2.3,Win32,60.24096386,3,1,1,-0.069010417,0.005208333,1,0,0,1.8926,rock_grid_rect_2,6,12,-1,-1,1.893,-0.08984375,-0.393229167,1,0,0,5.7256,Pegmatite_rect,6,5.726,1,0,0,0,0,1,,,,,,,,,,,,,
6109f02b5f6b3477fa8ddd8a,TCR,2024-06-20_15h27.48.905,LearnStrategy,2023.2.3,Win32,60.24096386,3,1,2,0.015625,-0.0078125,1,0,0,1.5429,rock_grid_rect_2,8,04,-1,-1,1.543,0.36328125,-0.391927083,1,0,0,1.6299,Pumice_rect,8,1.63,1,1,0,1,0,1,,,,,,,,,,,,,
6109f02b5f6b3477fa8ddd8a,TCR,2024-06-20_15h27.48.905,LearnStrategy,2023.2.3,Win32,60.24096386,3,1,3,-0.005208333,0.006510417,1,0,0,1.3587,rock_grid_rect_2,4,14,-1,-1,1.359,-0.115885417,-0.23046875,1,0,0,2.5257,Basalt_rect,2,2.526,0,2,0,2,0,1,,,,,,,,,,,,,
6109f02b5f6b3477fa8ddd8a,TCR,2024-06-20_15h27.48.905,LearnStrategy,2023.2.3,Win32,60.24096386,3,1,4,-0.049479167,-0.022135417,1,0,0,1.4601,rock_grid_rect_2,1,16,-1,-1,1.46,-0.36328125,-0.234375,1,0,0,4.6499,Andesite_rect,1,4.65,1,3,0,3,0,1,,,,,,,,,,,,,
6109f02b5f6b3477fa8ddd8a,TCR,2024-06-20_15h27.48.905,LearnStrategy,2023.2.3,Win32,60.24096386,3,1,5,-0.010416667,0.002604167,1,0,0,8.1883,rock_grid_rect_2,2,10,-1,-1,8.188,0.44140625,-0.270833333,1,0,0,3.0435,Gabbro_rect,4,3.043,0,4,0,4,0,1,,,,,,,,,,,,,
6109f02b5f6b3477fa8ddd8a,TCR,2024-06-20_15h27.48.905,LearnStrategy,2023.2.3,Win32,60.24096386,3,1,6,0.02734375,0.015625,1,0,0,1.8564,rock_grid_rect_2,2,09,-1,-1,1.856,0.4375,-0.255208333,1,0,0,1.6587,Gabbro_rect,4,1.659,0,5,0,5,0,1,,,,,,,,,,,,,
6109f02b5f6b3477fa8ddd8a,TCR,2024-06-20_15h27.48.905,LearnStrategy,2023.2.3,Win32,60.24096386,3,1,7,0.083333333,-0.01171875,1,0,0,1.4607,rock_grid_rect_2,4,11,-1,-1,1.461,0.350260417,-0.231770833,1,0,0,1.4668,Gabbro_rect,4,1.467,1,6,0,6,0,1,,,,,,,,,,,,,
6109f02b5f6b3477fa8ddd8a,TCR,2024-06-20_15h27.48.905,LearnStrategy,2023.2.3,Win32,60.24096386,3,1,8,0.052083333,0.001302083,1,0,0,1.4465,rock_grid_rect_2,1,09,-1,-1,1.447,-0.399739583,-0.26171875,1,0,0,1.6098,Andesite_rect,1,1.61,1,7,0,7,0,1,,,,,,,,,,,,,
6109f02b5f6b3477fa8ddd8a,TCR,2024-06-20_15h27.48.905,LearnStrategy,2023.2.3,Win32,60.24096386,3,1,9,0.040364583,0.001302083,1,0,0,1.4077,rock_grid_rect_2,2,01,-1,-1,1.408,-0.134114583,-0.26953125,1,0,0,2.7455,Basalt_rect,2,2.745,1,8,0,8,0,1,,,,,,,,,,,,,
6109f02b5f6b3477fa8ddd8a,TCR,2024-06-20_15h27.48.905,LearnStrategy,2023.2.3,Win32,60.24096386,3,1,10,0.006510417,0.015625,1,0,0,1.4389,rock_grid_rect_2,4,11,-1,-1,1.439,0.373697917,-0.236979167,1,0,0,1.3903,Gabbro_rect,4,1.39,1,9,0,9,0,1,,,,,,,,,,,,,
6109f02b5f6b3477fa8ddd8a,TCR,2024-06-20_15h27.48.905,LearnStrategy,2023.2.3,Win32,60.24096386,3,1,11,0.044270833,0.009114583,1,0,0,1.4256,rock_grid_rect_2,3,10,-1,-1,1.426,0.143229167,-0.235677083,1,0,0,1.4144,Diorite_rect,3,1.414,1,10,0,10,0,1,,,,,,,,,,,,,
6109f02b5f6b3477fa8ddd8a,TCR,2024-06-20_15h27.48.905,LearnStrategy,2023.2.3,Win32,60.24096386,3,1,12,0.03515625,0.014322917,1,0,0,2.4787,rock_grid_rect_2,1,07,-1,-1,2.479,-0.40234375,-0.26171875,1,0,0,3.7267,Andesite_rect,1,3.727,1,11,0,11,0,1,,,,,,,,,,,,,
6109f02b5f6b3477fa8ddd8a,TCR,2024-06-20_15h27.48.905,LearnStrategy,2023.2.3,Win32,60.24096386,3,1,13,0.028645833,-0.001302083,1,0,0,1.3411,rock_grid_rect_2,4,12,-1,-1,1.341,0.384114583,-0.252604167,1,0,0,3.7157,Gabbro_rect,4,3.716,1,12,0,12,0,1,,,,,,,,,,,,,
6109f02b5f6b3477fa8ddd8a,TCR,2024-06-20_15h27.48.905,LearnStrategy,2023.2.3,Win32,60.24096386,3,1,14,0.091145833,-0.013020833,1,0,0,1.7574,rock_grid_rect_2,4,12,-1,-1,1.757,0.401041667,-0.235677083,1,0,0,2.5867,Gabbro_rect,4,2.587,1,13,0,13,0,1,,,,,,,,,,,,,
6109f02b5f6b3477fa8ddd8a,TCR,2024-06-20_15h27.48.905,LearnStrategy,2023.2.3,Win32,60.24096386,3,1,15,0.102864583,-0.016927083,1,0,0,1.5279,rock_grid_rect_2,5,02,-1,-1,1.528,-0.41796875,-0.391927083,1,0,0,1.6473,Obsidian_rect,5,1.647,1,14,0,14,0,1,,,,,,,,,,,,,
6109f02b5f6b3477fa8ddd8a,TCR,2024-06-20_15h27.48.905,LearnStrategy,2023.2.3,Win32,60.24096386,3,1,16,0.063802083,-0.002604167,1,0,0,1.5958,rock_grid_rect_2,2,16,-1,-1,1.596,0.376302083,-0.239583333,1,0,0,6.0032,Gabbro_rect,4,6.003,0,15,0,15,0,1,,,,,,,,,,,,,
6109f02b5f6b3477fa8ddd8a,TCR,2024-06-20_15h27.48.905,LearnStrategy,2023.2.3,Win32,60.24096386,3,2,1,,,,,,,,8,10,,,,,,,,,,,8,4.12,1,,,,,,0.369791667,-0.403645833,1,0,0,4.1202,Pumice_rect,0,0,0,0,1,
6109f02b5f6b3477fa8ddd8a,TCR,2024-06-20_15h27.48.905,LearnStrategy,2023.2.3,Win32,60.24096386,3,2,2,,,,,,,,6,15,,,,,,,,,,,6,6.539,1,,,,,,-0.091145833,-0.388020833,1,0,0,6.5389,Pegmatite_rect,1,0,1,0,1,
6109f02b5f6b3477fa8ddd8a,TCR,2024-06-20_15h27.48.905,LearnStrategy,2023.2.3,Win32,60.24096386,3,2,3,,,,,,,,6,09,,,,,,,,,,,7,4.81,0,,,,,,0.147135417,-0.393229167,1,0,0,4.8102,Peridotite_rect,2,0,2,0,1,
6109f02b5f6b3477fa8ddd8a,TCR,2024-06-20_15h27.48.905,LearnStrategy,2023.2.3,Win32,60.24096386,3,2,4,,,,,,,,3,12,,,,,,,,,,,3,2.274,1,,,,,,0.1640625,-0.244791667,1,0,0,2.2736,Diorite_rect,3,0,3,0,1,
6109f02b5f6b3477fa8ddd8a,TCR,2024-06-20_15h27.48.905,LearnStrategy,2023.2.3,Win32,60.24096386,3,2,5,,,,,,,,2,14,,,,,,,,,,,8,3.138,0,,,,,,0.385416667,-0.419270833,1,0,0,3.1375,Pumice_rect,4,0,4,0,1,
6109f02b5f6b3477fa8ddd8a,TCR,2024-06-20_15h27.48.905,LearnStrategy,2023.2.3,Win32,60.24096386,3,2,6,,,,,,,,4,08,,,,,,,,,,,4,5.112,1,,,,,,0.381510417,-0.248697917,1,0,0,5.1125,Gabbro_rect,5,0,5,0,1,
6109f02b5f6b3477fa8ddd8a,TCR,2024-06-20_15h27.48.905,LearnStrategy,2023.2.3,Win32,60.24096386,3,2,7,,,,,,,,5,16,,,,,,,,,,,5,1.54,1,,,,,,-0.377604167,-0.39453125,1,0,0,1.5402,Obsidian_rect,6,0,6,0,1,
6109f02b5f6b3477fa8ddd8a,TCR,2024-06-20_15h27.48.905,LearnStrategy,2023.2.3,Win32,60.24096386,3,2,8,,,,,,,,1,10,,,,,,,,,,,1,4.884,1,,,,,,-0.377604167,-0.24609375,1,0,0,4.8835,Andesite_rect,7,0,7,0,1,
6109f02b5f6b3477fa8ddd8a,TCR,2024-06-20_15h27.48.905,LearnStrategy,2023.2.3,Win32,60.24096386,3,2,9,,,,,,,,1,03,,,,,,,,,,,1,1.905,1,,,,,,-0.377604167,-0.24609375,1,0,0,1.9051,Andesite_rect,8,0,8,0,1,
6109f02b5f6b3477fa8ddd8a,TCR,2024-06-20_15h27.48.905,LearnStrategy,2023.2.3,Win32,60.24096386,3,2,10,,,,,,,,7,06,,,,,,,,,,,7,1.98,1,,,,,,0.131510417,-0.40625,1,0,0,1.9796,Peridotite_rect,9,0,9,0,1,
6109f02b5f6b3477fa8ddd8a,TCR,2024-06-20_15h27.48.905,LearnStrategy,2023.2.3,Win32,60.24096386,3,2,11,,,,,,,,4,15,,,,,,,,,,,3,7.048,0,,,,,,0.088541667,-0.255208333,1,0,0,7.0475,Diorite_rect,10,0,10,0,1,
6109f02b5f6b3477fa8ddd8a,TCR,2024-06-20_15h27.48.905,LearnStrategy,2023.2.3,Win32,60.24096386,3,2,12,,,,,,,,5,11,,,,,,,,,,,5,1.61,1,,,,,,-0.40625,-0.41796875,1,0,0,1.6104,Obsidian_rect,11,0,11,0,1,
6109f02b5f6b3477fa8ddd8a,TCR,2024-06-20_15h27.48.905,LearnStrategy,2023.2.3,Win32,60.24096386,3,2,13,,,,,,,,3,11,,,,,,,,,,,3,2.176,1,,,,,,0.09375,-0.233072917,1,0,0,2.1764,Diorite_rect,12,0,12,0,1,
6109f02b5f6b3477fa8ddd8a,TCR,2024-06-20_15h27.48.905,LearnStrategy,2023.2.3,Win32,60.24096386,3,2,14,,,,,,,,7,08,,,,,,,,,,,7,1.859,1,,,,,,0.177083333,-0.38671875,1,0,0,1.8593,Peridotite_rect,13,0,13,0,1,
6109f02b5f6b3477fa8ddd8a,TCR,2024-06-20_15h27.48.905,LearnStrategy,2023.2.3,Win32,60.24096386,3,2,15,,,,,,,,2,11,,,,,,,,,,,4,5.005,0,,,,,,0.3359375,-0.260416667,1,0,0,5.0045,Gabbro_rect,14,0,14,0,1,
6109f02b5f6b3477fa8ddd8a,TCR,2024-06-20_15h27.48.905,LearnStrategy,2023.2.3,Win32,60.24096386,3,2,16,,,,,,,,8,16,,,,,,,,,,,8,2.31,1,,,,,,0.372395833,-0.3984375,1,0,0,2.3103,Pumice_rect,15,0,15,0,1,
6109f02b5f6b3477fa8ddd8a,TCR,2024-06-20_15h27.48.905,LearnStrategy,2023.2.3,Win32,60.24096386,4,1,1,0.065104167,-0.001302083,1,0,0,1.6411,rock_grid_rect_2,6,12,-1,-1,1.641,0.114583333,-0.239583333,1,0,0,2.7969,Diorite_rect,3,2.797,0,0,0,0,0,1,,,,,,,,,,,,,
6109f02b5f6b3477fa8ddd8a,TCR,2024-06-20_15h27.48.905,LearnStrategy,2023.2.3,Win32,60.24096386,4,1,2,0.080729167,-0.009114583,1,0,0,1.5154,rock_grid_rect_2,1,16,-1,-1,1.515,-0.42578125,-0.256510417,1,0,0,1.8908,Andesite_rect,1,1.891,1,1,0,1,0,1,,,,,,,,,,,,,
6109f02b5f6b3477fa8ddd8a,TCR,2024-06-20_15h27.48.905,LearnStrategy,2023.2.3,Win32,60.24096386,4,1,3,0.040364583,0.014322917,1,0,0,1.5415,rock_grid_rect_2,7,16,-1,-1,1.541,0.141927083,-0.401041667,1,0,0,1.5818,Peridotite_rect,7,1.582,1,2,0,2,0,1,,,,,,,,,,,,,
6109f02b5f6b3477fa8ddd8a,TCR,2024-06-20_15h27.48.905,LearnStrategy,2023.2.3,Win32,60.24096386,4,1,4,0.096354167,0.0078125,1,0,0,1.243,rock_grid_rect_2,2,12,-1,-1,1.243,0.389322917,-0.260416667,1,0,0,2.4923,Gabbro_rect,4,2.492,0,3,0,3,0,1,,,,,,,,,,,,,
6109f02b5f6b3477fa8ddd8a,TCR,2024-06-20_15h27.48.905,LearnStrategy,2023.2.3,Win32,60.24096386,4,1,5,0.102864583,-0.010416667,1,0,0,1.7091,rock_grid_rect_2,3,08,-1,-1,1.709,0.12890625,-0.24609375,1,0,0,3.0334,Diorite_rect,3,3.033,1,4,0,4,0,1,,,,,,,,,,,,,
6109f02b5f6b3477fa8ddd8a,TCR,2024-06-20_15h27.48.905,LearnStrategy,2023.2.3,Win32,60.24096386,4,1,6,0.067708333,-0.009114583,1,0,0,1.5385,rock_grid_rect_2,1,09,-1,-1,1.538,-0.373697917,-0.255208333,1,0,0,1.6266,Andesite_rect,1,1.627,1,5,0,5,0,1,,,,,,,,,,,,,
6109f02b5f6b3477fa8ddd8a,TCR,2024-06-20_15h27.48.905,LearnStrategy,2023.2.3,Win32,60.24096386,4,1,7,0.001302083,0.015625,1,0,0,1.2762,rock_grid_rect_2,4,14,-1,-1,1.276,-0.1171875,-0.243489583,1,0,0,1.542,Basalt_rect,2,1.542,0,6,0,6,0,1,,,,,,,,,,,,,
6109f02b5f6b3477fa8ddd8a,TCR,2024-06-20_15h27.48.905,LearnStrategy,2023.2.3,Win32,60.24096386,4,1,8,0.037760417,-0.020833333,1,0,0,1.5468,rock_grid_rect_2,2,16,-1,-1,1.547,-0.12109375,-0.248697917,1,0,0,3.0847,Basalt_rect,2,3.085,1,7,0,7,0,1,,,,,,,,,,,,,
6109f02b5f6b3477fa8ddd8a,TCR,2024-06-20_15h27.48.905,LearnStrategy,2023.2.3,Win32,60.24096386,4,1,9,0.044270833,-0.022135417,1,0,0,1.3081,rock_grid_rect_2,4,10,-1,-1,1.308,-0.354166667,-0.40234375,1,0,0,4.7093,Obsidian_rect,5,4.709,0,8,0,8,0,1,,,,,,,,,,,,,
6109f02b5f6b3477fa8ddd8a,TCR,2024-06-20_15h27.48.905,LearnStrategy,2023.2.3,Win32,60.24096386,4,1,10,0.03125,-0.014322917,1,0,0,1.3394,rock_grid_rect_2,2,01,-1,-1,1.339,-0.173177083,-0.233072917,1,0,0,3.9144,Basalt_rect,2,3.914,1,9,0,9,0,1,,,,,,,,,,,,,
6109f02b5f6b3477fa8ddd8a,TCR,2024-06-20_15h27.48.905,LearnStrategy,2023.2.3,Win32,60.24096386,4,1,11,0.014322917,0.001302083,1,0,0,1.2073,rock_grid_rect_2,8,04,-1,-1,1.207,0.40234375,-0.390625,1,0,0,1.4534,Pumice_rect,8,1.453,1,10,0,10,0,1,,,,,,,,,,,,,
6109f02b5f6b3477fa8ddd8a,TCR,2024-06-20_15h27.48.905,LearnStrategy,2023.2.3,Win32,60.24096386,4,1,12,0.0078125,0.016927083,1,0,0,1.4929,rock_grid_rect_2,5,14,-1,-1,1.493,-0.440104167,-0.37890625,1,0,0,1.6176,Obsidian_rect,5,1.618,1,11,0,11,0,1,,,,,,,,,,,,,
6109f02b5f6b3477fa8ddd8a,TCR,2024-06-20_15h27.48.905,LearnStrategy,2023.2.3,Win32,60.24096386,4,1,13,0.045572917,-0.002604167,1,0,0,1.8579,rock_grid_rect_2,4,14,-1,-1,1.858,0.432291667,-0.235677083,1,0,0,3.502,Gabbro_rect,4,3.502,1,12,0,12,0,1,,,,,,,,,,,,,
6109f02b5f6b3477fa8ddd8a,TCR,2024-06-20_15h27.48.905,LearnStrategy,2023.2.3,Win32,60.24096386,4,1,14,0.091145833,-0.022135417,1,0,0,1.4864,rock_grid_rect_2,2,10,-1,-1,1.486,-0.126302083,-0.247395833,1,0,0,2.5362,Basalt_rect,2,2.536,1,13,0,13,0,1,,,,,,,,,,,,,
6109f02b5f6b3477fa8ddd8a,TCR,2024-06-20_15h27.48.905,LearnStrategy,2023.2.3,Win32,60.24096386,4,1,15,0.115885417,0.009114583,1,0,0,1.2578,rock_grid_rect_2,6,12,-1,-1,1.258,-0.09765625,-0.412760417,1,0,0,4.2955,Pegmatite_rect,6,4.295,1,14,0,14,0,1,,,,,,,,,,,,,
6109f02b5f6b3477fa8ddd8a,TCR,2024-06-20_15h27.48.905,LearnStrategy,2023.2.3,Win32,60.24096386,4,1,16,0.09765625,0.001302083,1,0,0,3.2198,rock_grid_rect_2,4,11,-1,-1,3.22,0.404947917,-0.248697917,1,0,0,1.8397,Gabbro_rect,4,1.84,1,15,0,15,0,1,,,,,,,,,,,,,
6109f02b5f6b3477fa8ddd8a,TCR,2024-06-20_15h27.48.905,LearnStrategy,2023.2.3,Win32,60.24096386,4,2,1,,,,,,,,4,01,,,,,,,,,,,4,8.363,1,,,,,,0.390625,-0.240885417,1,0,0,8.3633,Gabbro_rect,0,0,0,0,1,
6109f02b5f6b3477fa8ddd8a,TCR,2024-06-20_15h27.48.905,LearnStrategy,2023.2.3,Win32,60.24096386,4,2,2,,,,,,,,4,08,,,,,,,,,,,4,6.98,1,,,,,,0.32421875,-0.235677083,1,0,0,6.9796,Gabbro_rect,1,0,1,0,1,
6109f02b5f6b3477fa8ddd8a,TCR,2024-06-20_15h27.48.905,LearnStrategy,2023.2.3,Win32,60.24096386,4,2,3,,,,,,,,8,06,,,,,,,,,,,8,1.657,1,,,,,,0.3359375,-0.401041667,1,0,0,1.6571,Pumice_rect,2,0,2,0,1,
6109f02b5f6b3477fa8ddd8a,TCR,2024-06-20_15h27.48.905,LearnStrategy,2023.2.3,Win32,60.24096386,4,2,4,,,,,,,,3,02,,,,,,,,,,,3,3.917,1,,,,,,0.125,-0.24609375,1,0,0,3.9169,Diorite_rect,3,0,3,0,1,
6109f02b5f6b3477fa8ddd8a,TCR,2024-06-20_15h27.48.905,LearnStrategy,2023.2.3,Win32,60.24096386,4,2,5,,,,,,,,6,09,,,,,,,,,,,7,3.118,0,,,,,,0.165364583,-0.40625,1,0,0,3.1182,Peridotite_rect,4,0,4,0,1,
6109f02b5f6b3477fa8ddd8a,TCR,2024-06-20_15h27.48.905,LearnStrategy,2023.2.3,Win32,60.24096386,4,2,6,,,,,,,,2,11,,,,,,,,,,,2,5.606,1,,,,,,-0.05859375,-0.2421875,1,0,0,5.6064,Basalt_rect,5,0,5,0,1,
6109f02b5f6b3477fa8ddd8a,TCR,2024-06-20_15h27.48.905,LearnStrategy,2023.2.3,Win32,60.24096386,4,2,7,,,,,,,,8,10,,,,,,,,,,,8,2.204,1,,,,,,0.412760417,-0.403645833,1,0,0,2.2041,Pumice_rect,6,0,6,0,1,
6109f02b5f6b3477fa8ddd8a,TCR,2024-06-20_15h27.48.905,LearnStrategy,2023.2.3,Win32,60.24096386,4,2,8,,,,,,,,7,15,,,,,,,,,,,7,1.855,1,,,,,,0.170572917,-0.412760417,1,0,0,1.8553,Peridotite_rect,7,0,7,0,1,
6109f02b5f6b3477fa8ddd8a,TCR,2024-06-20_15h27.48.905,LearnStrategy,2023.2.3,Win32,60.24096386,4,2,9,,,,,,,,3,06,,,,,,,,,,,6,10.532,0,,,,,,-0.0859375,-0.389322917,1,0,0,10.5324,Pegmatite_rect,8,0,8,0,1,
6109f02b5f6b3477fa8ddd8a,TCR,2024-06-20_15h27.48.905,LearnStrategy,2023.2.3,Win32,60.24096386,4,2,10,,,,,,,,6,06,,,,,,,,,,,6,2.446,1,,,,,,-0.143229167,-0.393229167,1,0,0,2.4464,Pegmatite_rect,9,0,9,0,1,
6109f02b5f6b3477fa8ddd8a,TCR,2024-06-20_15h27.48.905,LearnStrategy,2023.2.3,Win32,60.24096386,4,2,11,,,,,,,,1,05,,,,,,,,,,,1,1.913,1,,,,,,-0.328125,-0.247395833,1,0,0,1.9126,Andesite_rect,10,0,10,0,1,
6109f02b5f6b3477fa8ddd8a,TCR,2024-06-20_15h27.48.905,LearnStrategy,2023.2.3,Win32,60.24096386,4,2,12,,,,,,,,7,04,,,,,,,,,,,7,4.664,1,,,,,,0.1640625,-0.399739583,1,0,0,4.664,Peridotite_rect,11,0,11,0,1,
6109f02b5f6b3477fa8ddd8a,TCR,2024-06-20_15h27.48.905,LearnStrategy,2023.2.3,Win32,60.24096386,4,2,13,,,,,,,,5,05,,,,,,,,,,,5,2.528,1,,,,,,-0.38671875,-0.408854167,1,0,0,2.528,Obsidian_rect,12,0,12,0,1,
6109f02b5f6b3477fa8ddd8a,TCR,2024-06-20_15h27.48.905,LearnStrategy,2023.2.3,Win32,60.24096386,4,2,14,,,,,,,,2,14,,,,,,,,,,,8,14.07,0,,,,,,0.403645833,-0.408854167,1,0,0,14.0696,Pumice_rect,13,0,13,0,1,
6109f02b5f6b3477fa8ddd8a,TCR,2024-06-20_15h27.48.905,LearnStrategy,2023.2.3,Win32,60.24096386,4,2,15,,,,,,,,1,11,,,,,,,,,,,1,2.219,1,,,,,,-0.45703125,-0.270833333,1,0,0,2.2194,Andesite_rect,14,0,14,0,1,
6109f02b5f6b3477fa8ddd8a,TCR,2024-06-20_15h27.48.905,LearnStrategy,2023.2.3,Win32,60.24096386,4,2,16,,,,,,,,5,04,,,,,,,,,,,5,2.124,1,,,,,,-0.354166667,-0.415364583,1,0,0,2.1235,Obsidian_rect,15,0,15,0,1,
6109f02b5f6b3477fa8ddd8a,TCR,2024-06-20_15h27.48.905,LearnStrategy,2023.2.3,Win32,60.24096386,5,1,1,0.033854167,0.016927083,1,0,0,5.0724,rock_grid_rect_2,8,08,-1,-1,5.072,0.404947917,-0.37890625,1,0,0,4.2673,Pumice_rect,8,4.267,1,0,0,0,0,1,,,,,,,,,,,,,
6109f02b5f6b3477fa8ddd8a,TCR,2024-06-20_15h27.48.905,LearnStrategy,2023.2.3,Win32,60.24096386,5,1,2,0.09765625,-0.013020833,1,0,0,1.4727,rock_grid_rect_2,5,09,-1,-1,1.473,-0.384114583,-0.37890625,1,0,0,1.4897,Obsidian_rect,5,1.49,1,1,0,1,0,1,,,,,,,,,,,,,
6109f02b5f6b3477fa8ddd8a,TCR,2024-06-20_15h27.48.905,LearnStrategy,2023.2.3,Win32,60.24096386,5,1,3,0.095052083,-0.015625,1,0,0,6.1547,rock_grid_rect_2,3,09,-1,-1,6.155,0.102864583,-0.263020833,1,0,0,2.6536,Diorite_rect,3,2.654,1,2,0,2,0,1,,,,,,,,,,,,,
6109f02b5f6b3477fa8ddd8a,TCR,2024-06-20_15h27.48.905,LearnStrategy,2023.2.3,Win32,60.24096386,5,1,4,-0.028645833,-0.018229167,1,0,0,1.5404,rock_grid_rect_2,2,12,-1,-1,1.54,0.322916667,-0.25,1,0,0,2.9532,Gabbro_rect,4,2.953,0,3,0,3,0,1,,,,,,,,,,,,,
6109f02b5f6b3477fa8ddd8a,TCR,2024-06-20_15h27.48.905,LearnStrategy,2023.2.3,Win32,60.24096386,5,1,5,0.041666667,-0.010416667,1,0,0,1.5954,rock_grid_rect_2,2,01,-1,-1,1.595,-0.200520833,-0.260416667,1,0,0,2.5346,Basalt_rect,2,2.535,1,4,0,4,0,1,,,,,,,,,,,,,
6109f02b5f6b3477fa8ddd8a,TCR,2024-06-20_15h27.48.905,LearnStrategy,2023.2.3,Win32,60.24096386,5,1,6,0,0,1,0,0,1.9393,rock_grid_rect_2,2,16,-1,-1,1.939,-0.078125,-0.235677083,1,0,0,2.7748,Basalt_rect,2,2.775,1,5,0,5,0,1,,,,,,,,,,,,,
6109f02b5f6b3477fa8ddd8a,TCR,2024-06-20_15h27.48.905,LearnStrategy,2023.2.3,Win32,60.24096386,5,1,7,-0.024739583,0.010416667,1,0,0,1.4575,rock_grid_rect_2,4,11,-1,-1,1.457,0.416666667,-0.2421875,1,0,0,2.3974,Gabbro_rect,4,2.397,1,6,0,6,0,1,,,,,,,,,,,,,
6109f02b5f6b3477fa8ddd8a,TCR,2024-06-20_15h27.48.905,LearnStrategy,2023.2.3,Win32,60.24096386,5,1,8,-0.016927083,0.00390625,1,0,0,1.5592,rock_grid_rect_2,2,09,-1,-1,1.559,0.354166667,-0.2578125,1,0,0,2.714,Gabbro_rect,4,2.714,0,7,0,7,0,1,,,,,,,,,,,,,
6109f02b5f6b3477fa8ddd8a,TCR,2024-06-20_15h27.48.905,LearnStrategy,2023.2.3,Win32,60.24096386,5,1,9,0.079427083,-0.018229167,1,0,0,1.3886,rock_grid_rect_2,6,08,-1,-1,1.389,-0.12109375,-0.3984375,1,0,0,2.7267,Pegmatite_rect,6,2.727,1,8,0,8,0,1,,,,,,,,,,,,,
6109f02b5f6b3477fa8ddd8a,TCR,2024-06-20_15h27.48.905,LearnStrategy,2023.2.3,Win32,60.24096386,5,1,10,-0.001302083,0.006510417,1,0,0,1.4943,rock_grid_rect_2,7,14,-1,-1,1.494,-0.092447917,-0.256510417,1,0,0,10.1969,Basalt_rect,2,10.197,0,9,0,9,0,1,,,,,,,,,,,,,
6109f02b5f6b3477fa8ddd8a,TCR,2024-06-20_15h27.48.905,LearnStrategy,2023.2.3,Win32,60.24096386,5,1,11,0.045572917,0.013020833,1,0,0,1.541,rock_grid_rect_2,6,16,-1,-1,1.541,-0.122395833,-0.388020833,1,0,0,2.1489,Pegmatite_rect,6,2.149,1,10,0,10,0,1,,,,,,,,,,,,,
6109f02b5f6b3477fa8ddd8a,TCR,2024-06-20_15h27.48.905,LearnStrategy,2023.2.3,Win32,60.24096386,5,1,12,0.046875,0.006510417,1,0,0,1.475,rock_grid_rect_2,3,14,-1,-1,1.475,0.118489583,-0.239583333,1,0,0,2.0248,Diorite_rect,3,2.025,1,11,0,11,0,1,,,,,,,,,,,,,
6109f02b5f6b3477fa8ddd8a,TCR,2024-06-20_15h27.48.905,LearnStrategy,2023.2.3,Win32,60.24096386,5,1,13,0.095052083,0,1,0,0,1.3425,rock_grid_rect_2,1,16,-1,-1,1.342,-0.428385417,-0.25,1,0,0,2.0584,Andesite_rect,1,2.058,1,12,0,12,0,1,,,,,,,,,,,,,
6109f02b5f6b3477fa8ddd8a,TCR,2024-06-20_15h27.48.905,LearnStrategy,2023.2.3,Win32,60.24096386,5,1,14,-0.0546875,-0.013020833,1,0,0,2.5074,rock_grid_rect_2,6,13,-1,-1,2.507,-0.09375,-0.419270833,1,0,0,2.8822,Pegmatite_rect,6,2.882,1,13,0,13,0,1,,,,,,,,,,,,,
6109f02b5f6b3477fa8ddd8a,TCR,2024-06-20_15h27.48.905,LearnStrategy,2023.2.3,Win32,60.24096386,5,1,15,0.00390625,-0.005208333,1,0,0,1.4943,rock_grid_rect_2,4,11,-1,-1,1.494,0.3984375,-0.25,1,0,0,1.5795,Gabbro_rect,4,1.58,1,14,0,14,0,1,,,,,,,,,,,,,
6109f02b5f6b3477fa8ddd8a,TCR,2024-06-20_15h27.48.905,LearnStrategy,2023.2.3,Win32,60.24096386,5,1,16,0.069010417,0.005208333,1,0,0,1.3253,rock_grid_rect_2,4,12,-1,-1,1.325,0.361979167,-0.231770833,1,0,0,3.4458,Gabbro_rect,4,3.446,1,15,0,15,0,1,,,,,,,,,,,,,
6109f02b5f6b3477fa8ddd8a,TCR,2024-06-20_15h27.48.905,LearnStrategy,2023.2.3,Win32,60.24096386,5,2,1,,,,,,,,7,05,,,,,,,,,,,7,2.349,1,,,,,,0.126302083,-0.408854167,1,0,0,2.3492,Peridotite_rect,0,0,0,0,1,
6109f02b5f6b3477fa8ddd8a,TCR,2024-06-20_15h27.48.905,LearnStrategy,2023.2.3,Win32,60.24096386,5,2,2,,,,,,,,5,16,,,,,,,,,,,5,2.277,1,,,,,,-0.390625,-0.3828125,1,0,0,2.2767,Obsidian_rect,1,0,1,0,1,
6109f02b5f6b3477fa8ddd8a,TCR,2024-06-20_15h27.48.905,LearnStrategy,2023.2.3,Win32,60.24096386,5,2,3,,,,,,,,2,05,,,,,,,,,,,2,2.544,1,,,,,,-0.151041667,-0.24609375,1,0,0,2.5438,Basalt_rect,2,0,2,0,1,
6109f02b5f6b3477fa8ddd8a,TCR,2024-06-20_15h27.48.905,LearnStrategy,2023.2.3,Win32,60.24096386,5,2,4,,,,,,,,1,02,,,,,,,,,,,4,16.561,0,,,,,,0.397135417,-0.256510417,1,0,0,16.5614,Gabbro_rect,3,0,3,0,1,
6109f02b5f6b3477fa8ddd8a,TCR,2024-06-20_15h27.48.905,LearnStrategy,2023.2.3,Win32,60.24096386,5,2,5,,,,,,,,2,02,,,,,,,,,,,2,4.457,1,,,,,,-0.174479167,-0.229166667,1,0,0,4.4565,Basalt_rect,4,0,4,0,1,
6109f02b5f6b3477fa8ddd8a,TCR,2024-06-20_15h27.48.905,LearnStrategy,2023.2.3,Win32,60.24096386,5,2,6,,,,,,,,3,12,,,,,,,,,,,3,2.179,1,,,,,,0.118489583,-0.247395833,1,0,0,2.1788,Diorite_rect,5,0,5,0,1,
6109f02b5f6b3477fa8ddd8a,TCR,2024-06-20_15h27.48.905,LearnStrategy,2023.2.3,Win32,60.24096386,5,2,7,,,,,,,,1,04,,,,,,,,,,,1,2.216,1,,,,,,-0.47265625,-0.244791667,1,0,0,2.216,Andesite_rect,6,0,6,0,1,
6109f02b5f6b3477fa8ddd8a,TCR,2024-06-20_15h27.48.905,LearnStrategy,2023.2.3,Win32,60.24096386,5,2,8,,,,,,,,6,07,,,,,,,,,,,7,2.47,0,,,,,,0.11328125,-0.404947917,1,0,0,2.4698,Peridotite_rect,7,0,7,0,1,
6109f02b5f6b3477fa8ddd8a,TCR,2024-06-20_15h27.48.905,LearnStrategy,2023.2.3,Win32,60.24096386,5,2,9,,,,,,,,4,05,,,,,,,,,,,7,5.638,0,,,,,,0.14453125,-0.407552083,1,0,0,5.6383,Peridotite_rect,8,0,8,0,1,
6109f02b5f6b3477fa8ddd8a,TCR,2024-06-20_15h27.48.905,LearnStrategy,2023.2.3,Win32,60.24096386,5,2,10,,,,,,,,3,13,,,,,,,,,,,6,5.972,0,,,,,,-0.102864583,-0.404947917,1,0,0,5.9722,Pegmatite_rect,9,0,9,0,1,
6109f02b5f6b3477fa8ddd8a,TCR,2024-06-20_15h27.48.905,LearnStrategy,2023.2.3,Win32,60.24096386,5,2,11,,,,,,,,8,16,,,,,,,,,,,8,2.213,1,,,,,,0.345052083,-0.38671875,1,0,0,2.2132,Pumice_rect,10,0,10,0,1,
6109f02b5f6b3477fa8ddd8a,TCR,2024-06-20_15h27.48.905,LearnStrategy,2023.2.3,Win32,60.24096386,5,2,12,,,,,,,,4,03,,,,,,,,,,,1,4.322,0,,,,,,-0.35546875,-0.231770833,1,0,0,4.322,Andesite_rect,11,0,11,0,1,
6109f02b5f6b3477fa8ddd8a,TCR,2024-06-20_15h27.48.905,LearnStrategy,2023.2.3,Win32,60.24096386,5,2,13,,,,,,,,8,05,,,,,,,,,,,8,1.664,1,,,,,,0.440104167,-0.403645833,1,0,0,1.6638,Pumice_rect,12,0,12,0,1,
6109f02b5f6b3477fa8ddd8a,TCR,2024-06-20_15h27.48.905,LearnStrategy,2023.2.3,Win32,60.24096386,5,2,14,,,,,,,,6,03,,,,,,,,,,,7,2.32,0,,,,,,0.151041667,-0.39453125,1,0,0,2.3204,Peridotite_rect,13,0,13,0,1,
6109f02b5f6b3477fa8ddd8a,TCR,2024-06-20_15h27.48.905,LearnStrategy,2023.2.3,Win32,60.24096386,5,2,15,,,,,,,,7,08,,,,,,,,,,,7,2.525,1,,,,,,0.158854167,-0.41015625,1,0,0,2.5248,Peridotite_rect,14,0,14,0,1,
6109f02b5f6b3477fa8ddd8a,TCR,2024-06-20_15h27.48.905,LearnStrategy,2023.2.3,Win32,60.24096386,5,2,16,,,,,,,,5,10,,,,,,,,,,,5,1.968,1,,,,,,-0.376302083,-0.384114583,1,0,0,1.9676,Obsidian_rect,15,0,15,0,1,
6109f02b5f6b3477fa8ddd8a,TCR,2024-06-20_15h27.48.905,LearnStrategy,2023.2.3,Win32,60.24096386,6,1,1,0.040364583,0.002604167,1,0,0,3.8082,rock_grid_rect_2,5,02,-1,-1,3.808,-0.390625,-0.397135417,1,0,0,1.7451,Obsidian_rect,5,1.745,1,0,0,0,0,1,,,,,,,,,,,,,
6109f02b5f6b3477fa8ddd8a,TCR,2024-06-20_15h27.48.905,LearnStrategy,2023.2.3,Win32,60.24096386,6,1,2,0.002604167,-0.01953125,1,0,0,1.8755,rock_grid_rect_2,2,01,-1,-1,1.875,-0.108072917,-0.231770833,1,0,0,1.6683,Basalt_rect,2,1.668,1,1,0,1,0,1,,,,,,,,,,,,,
6109f02b5f6b3477fa8ddd8a,TCR,2024-06-20_15h27.48.905,LearnStrategy,2023.2.3,Win32,60.24096386,6,1,3,0.028645833,-0.006510417,1,0,0,1.4252,rock_grid_rect_2,3,10,-1,-1,1.425,0.131510417,-0.2421875,1,0,0,1.6943,Diorite_rect,3,1.694,1,2,0,2,0,1,,,,,,,,,,,,,
6109f02b5f6b3477fa8ddd8a,TCR,2024-06-20_15h27.48.905,LearnStrategy,2023.2.3,Win32,60.24096386,6,1,4,0.016927083,0.01171875,1,0,0,2.3245,rock_grid_rect_2,2,12,-1,-1,2.324,-0.12890625,-0.235677083,1,0,0,3.4041,Basalt_rect,2,3.404,1,3,0,3,0,1,,,,,,,,,,,,,
6109f02b5f6b3477fa8ddd8a,TCR,2024-06-20_15h27.48.905,LearnStrategy,2023.2.3,Win32,60.24096386,6,1,5,0.040364583,-0.022135417,1,0,0,1.8108,rock_grid_rect_2,3,14,-1,-1,1.811,0.131510417,-0.243489583,1,0,0,1.9815,Diorite_rect,3,1.981,1,4,0,4,0,1,,,,,,,,,,,,,
6109f02b5f6b3477fa8ddd8a,TCR,2024-06-20_15h27.48.905,LearnStrategy,2023.2.3,Win32,60.24096386,6,1,6,0.015625,0.009114583,1,0,0,1.143,rock_grid_rect_2,1,01,-1,-1,1.143,0.369791667,-0.26171875,1,0,0,5.1529,Gabbro_rect,4,5.153,0,5,0,5,0,1,,,,,,,,,,,,,
6109f02b5f6b3477fa8ddd8a,TCR,2024-06-20_15h27.48.905,LearnStrategy,2023.2.3,Win32,60.24096386,6,1,7,0.046875,-0.002604167,1,0,0,1.3406,rock_grid_rect_2,1,14,-1,-1,1.341,-0.4296875,-0.231770833,1,0,0,3.0293,Andesite_rect,1,3.029,1,6,0,6,0,1,,,,,,,,,,,,,
6109f02b5f6b3477fa8ddd8a,TCR,2024-06-20_15h27.48.905,LearnStrategy,2023.2.3,Win32,60.24096386,6,1,8,-0.03125,0.002604167,1,0,0,1.4123,rock_grid_rect_2,6,13,-1,-1,1.412,-0.098958333,-0.381510417,1,0,0,2.8845,Pegmatite_rect,6,2.884,1,7,0,7,0,1,,,,,,,,,,,,,
6109f02b5f6b3477fa8ddd8a,TCR,2024-06-20_15h27.48.905,LearnStrategy,2023.2.3,Win32,60.24096386,6,1,9,-0.080729167,-0.0078125,1,0,0,1.2073,rock_grid_rect_2,7,14,-1,-1,1.207,-0.10546875,-0.248697917,1,0,0,5.9604,Basalt_rect,2,5.96,0,8,0,8,0,1,,,,,,,,,,,,,
6109f02b5f6b3477fa8ddd8a,TCR,2024-06-20_15h27.48.905,LearnStrategy,2023.2.3,Win32,60.24096386,6,1,10,-0.046875,-0.002604167,1,0,0,1.7401,rock_grid_rect_2,4,12,-1,-1,1.74,-0.087239583,-0.234375,1,0,0,2.3129,Basalt_rect,2,2.313,0,9,0,9,0,1,,,,,,,,,,,,,
6109f02b5f6b3477fa8ddd8a,TCR,2024-06-20_15h27.48.905,LearnStrategy,2023.2.3,Win32,60.24096386,6,1,11,-0.01171875,0.010416667,1,0,0,1.3758,rock_grid_rect_2,4,12,-1,-1,1.376,0.377604167,-0.25390625,1,0,0,1.4817,Gabbro_rect,4,1.482,1,10,0,10,0,1,,,,,,,,,,,,,
6109f02b5f6b3477fa8ddd8a,TCR,2024-06-20_15h27.48.905,LearnStrategy,2023.2.3,Win32,60.24096386,6,1,12,0.01171875,0.0078125,1,0,0,1.2267,rock_grid_rect_2,8,08,-1,-1,1.227,0.369791667,-0.403645833,1,0,0,1.6293,Pumice_rect,8,1.629,1,11,0,11,0,1,,,,,,,,,,,,,
6109f02b5f6b3477fa8ddd8a,TCR,2024-06-20_15h27.48.905,LearnStrategy,2023.2.3,Win32,60.24096386,6,1,13,-0.03515625,0.010416667,1,0,0,1.4578,rock_grid_rect_2,4,13,-1,-1,1.458,0.420572917,-0.234375,1,0,0,3.5572,Gabbro_rect,4,3.557,1,12,0,12,0,1,,,,,,,,,,,,,
6109f02b5f6b3477fa8ddd8a,TCR,2024-06-20_15h27.48.905,LearnStrategy,2023.2.3,Win32,60.24096386,6,1,14,-0.06640625,0.014322917,1,0,0,4.5366,rock_grid_rect_2,6,12,-1,-1,4.537,-0.119791667,-0.40625,1,0,0,2.6313,Pegmatite_rect,6,2.631,1,13,0,13,0,1,,,,,,,,,,,,,
6109f02b5f6b3477fa8ddd8a,TCR,2024-06-20_15h27.48.905,LearnStrategy,2023.2.3,Win32,60.24096386,6,1,15,-0.015625,-0.006510417,1,0,0,1.5965,rock_grid_rect_2,4,11,-1,-1,1.597,0.397135417,-0.244791667,1,0,0,4.1721,Gabbro_rect,4,4.172,1,14,0,14,0,1,,,,,,,,,,,,,
6109f02b5f6b3477fa8ddd8a,TCR,2024-06-20_15h27.48.905,LearnStrategy,2023.2.3,Win32,60.24096386,6,1,16,-0.076822917,-0.005208333,1,0,0,2.3226,rock_grid_rect_2,6,16,-1,-1,2.323,-0.165364583,-0.391927083,1,0,0,2.9477,Pegmatite_rect,6,2.948,1,15,0,15,0,1,,,,,,,,,,,,,
6109f02b5f6b3477fa8ddd8a,TCR,2024-06-20_15h27.48.905,LearnStrategy,2023.2.3,Win32,60.24096386,6,2,1,,,,,,,,2,06,,,,,,,,,,,2,4.889,1,,,,,,-0.06640625,-0.255208333,1,0,0,4.8888,Basalt_rect,0,0,0,0,1,
6109f02b5f6b3477fa8ddd8a,TCR,2024-06-20_15h27.48.905,LearnStrategy,2023.2.3,Win32,60.24096386,6,2,2,,,,,,,,3,07,,,,,,,,,,,6,5.092,0,,,,,,-0.109375,-0.41015625,1,0,0,5.0919,Pegmatite_rect,1,0,1,0,1,
6109f02b5f6b3477fa8ddd8a,TCR,2024-06-20_15h27.48.905,LearnStrategy,2023.2.3,Win32,60.24096386,6,2,3,,,,,,,,4,09,,,,,,,,,,,5,1.824,0,,,,,,-0.33984375,-0.401041667,1,0,0,1.8235,Obsidian_rect,2,0,2,0,1,
6109f02b5f6b3477fa8ddd8a,TCR,2024-06-20_15h27.48.905,LearnStrategy,2023.2.3,Win32,60.24096386,6,2,4,,,,,,,,5,07,,,,,,,,,,,5,1.277,1,,,,,,-0.33984375,-0.401041667,1,0,0,1.2765,Obsidian_rect,3,0,3,0,1,
6109f02b5f6b3477fa8ddd8a,TCR,2024-06-20_15h27.48.905,LearnStrategy,2023.2.3,Win32,60.24096386,6,2,5,,,,,,,,6,11,,,,,,,,,,,6,5.918,1,,,,,,-0.098958333,-0.397135417,1,0,0,5.9185,Pegmatite_rect,4,0,4,0,1,
6109f02b5f6b3477fa8ddd8a,TCR,2024-06-20_15h27.48.905,LearnStrategy,2023.2.3,Win32,60.24096386,6,2,6,,,,,,,,3,11,,,,,,,,,,,3,2.478,1,,,,,,0.157552083,-0.233072917,1,0,0,2.4783,Diorite_rect,5,0,5,0,1,
6109f02b5f6b3477fa8ddd8a,TCR,2024-06-20_15h27.48.905,LearnStrategy,2023.2.3,Win32,60.24096386,6,2,7,,,,,,,,8,09,,,,,,,,,,,8,2.06,1,,,,,,0.365885417,-0.3828125,1,0,0,2.0599,Pumice_rect,6,0,6,0,1,
6109f02b5f6b3477fa8ddd8a,TCR,2024-06-20_15h27.48.905,LearnStrategy,2023.2.3,Win32,60.24096386,6,2,8,,,,,,,,1,10,,,,,,,,,,,1,3.883,1,,,,,,-0.348958333,-0.247395833,1,0,0,3.8832,Andesite_rect,7,0,7,0,1,
6109f02b5f6b3477fa8ddd8a,TCR,2024-06-20_15h27.48.905,LearnStrategy,2023.2.3,Win32,60.24096386,6,2,9,,,,,,,,8,03,,,,,,,,,,,8,1.96,1,,,,,,0.4453125,-0.411458333,1,0,0,1.9602,Pumice_rect,8,0,8,0,1,
6109f02b5f6b3477fa8ddd8a,TCR,2024-06-20_15h27.48.905,LearnStrategy,2023.2.3,Win32,60.24096386,6,2,10,,,,,,,,7,06,,,,,,,,,,,7,1.659,1,,,,,,0.188802083,-0.41796875,1,0,0,1.6595,Peridotite_rect,9,0,9,0,1,
6109f02b5f6b3477fa8ddd8a,TCR,2024-06-20_15h27.48.905,LearnStrategy,2023.2.3,Win32,60.24096386,6,2,11,,,,,,,,6,15,,,,,,,,,,,7,6.824,0,,,,,,0.067708333,-0.384114583,1,0,0,6.8237,Peridotite_rect,10,0,10,0,1,
6109f02b5f6b3477fa8ddd8a,TCR,2024-06-20_15h27.48.905,LearnStrategy,2023.2.3,Win32,60.24096386,6,2,12,,,,,,,,4,15,,,,,,,,,,,4,2.729,1,,,,,,0.389322917,-0.234375,1,0,0,2.7293,Gabbro_rect,11,0,11,0,1,
6109f02b5f6b3477fa8ddd8a,TCR,2024-06-20_15h27.48.905,LearnStrategy,2023.2.3,Win32,60.24096386,6,2,13,,,,,,,,5,11,,,,,,,,,,,5,1.982,1,,,,,,-0.365885417,-0.391927083,1,0,0,1.9817,Obsidian_rect,12,0,12,0,1,
6109f02b5f6b3477fa8ddd8a,TCR,2024-06-20_15h27.48.905,LearnStrategy,2023.2.3,Win32,60.24096386,6,2,14,,,,,,,,1,03,,,,,,,,,,,1,1.633,1,,,,,,-0.354166667,-0.263020833,1,0,0,1.6334,Andesite_rect,13,0,13,0,1,
6109f02b5f6b3477fa8ddd8a,TCR,2024-06-20_15h27.48.905,LearnStrategy,2023.2.3,Win32,60.24096386,6,2,15,,,,,,,,2,08,,,,,,,,,,,2,1.985,1,,,,,,-0.127604167,-0.23828125,1,0,0,1.9854,Basalt_rect,14,0,14,0,1,
6109f02b5f6b3477fa8ddd8a,TCR,2024-06-20_15h27.48.905,LearnStrategy,2023.2.3,Win32,60.24096386,6,2,16,,,,,,,,7,10,,,,,,,,,,,7,1.951,1,,,,,,0.084635417,-0.411458333,1,0,0,1.9511,Peridotite_rect,15,0,15,0,1,
6109f02b5f6b3477fa8ddd8a,TCR,2024-06-20_15h27.48.905,LearnStrategy,2023.2.3,Win32,60.24096386,7,1,1,-0.092447917,0.001302083,1,0,0,1.5753,rock_grid_rect_2,6,08,-1,-1,1.575,0.092447917,-0.395833333,1,0,0,1.9762,Peridotite_rect,7,1.976,0,0,0,0,0,1,,,,,,,,,,,,,
6109f02b5f6b3477fa8ddd8a,TCR,2024-06-20_15h27.48.905,LearnStrategy,2023.2.3,Win32,60.24096386,7,1,2,-0.076822917,0.00390625,1,0,0,2.0088,rock_grid_rect_2,4,11,-1,-1,2.009,0.368489583,-0.265625,1,0,0,2.8343,Gabbro_rect,4,2.834,1,1,0,1,0,1,,,,,,,,,,,,,
6109f02b5f6b3477fa8ddd8a,TCR,2024-06-20_15h27.48.905,LearnStrategy,2023.2.3,Win32,60.24096386,7,1,3,0.0546875,0.009114583,1,0,0,1.3544,rock_grid_rect_2,3,08,-1,-1,1.354,0.119791667,-0.234375,1,0,0,1.9707,Diorite_rect,3,1.971,1,2,0,2,0,1,,,,,,,,,,,,,
6109f02b5f6b3477fa8ddd8a,TCR,2024-06-20_15h27.48.905,LearnStrategy,2023.2.3,Win32,60.24096386,7,1,4,-0.018229167,0.001302083,1,0,0,1.2419,rock_grid_rect_2,2,01,-1,-1,1.242,-0.11328125,-0.255208333,1,0,0,1.6832,Basalt_rect,2,1.683,1,3,0,3,0,1,,,,,,,,,,,,,
6109f02b5f6b3477fa8ddd8a,TCR,2024-06-20_15h27.48.905,LearnStrategy,2023.2.3,Win32,60.24096386,7,1,5,0.05078125,0.005208333,1,0,0,1.1917,rock_grid_rect_2,2,16,-1,-1,1.192,0.376302083,-0.243489583,1,0,0,2.522,Gabbro_rect,4,2.522,0,4,0,4,0,1,,,,,,,,,,,,,
6109f02b5f6b3477fa8ddd8a,TCR,2024-06-20_15h27.48.905,LearnStrategy,2023.2.3,Win32,60.24096386,7,1,6,0.013020833,-0.015625,1,0,0,1.391,rock_grid_rect_2,3,15,-1,-1,1.391,0.140625,-0.234375,1,0,0,1.9327,Diorite_rect,3,1.933,1,5,0,5,0,1,,,,,,,,,,,,,
6109f02b5f6b3477fa8ddd8a,TCR,2024-06-20_15h27.48.905,LearnStrategy,2023.2.3,Win32,60.24096386,7,1,7,0.006510417,-0.006510417,1,0,0,1.7752,rock_grid_rect_2,6,05,-1,-1,1.775,-0.134114583,-0.390625,1,0,0,2.5752,Pegmatite_rect,6,2.575,1,6,0,6,0,1,,,,,,,,,,,,,
6109f02b5f6b3477fa8ddd8a,TCR,2024-06-20_15h27.48.905,LearnStrategy,2023.2.3,Win32,60.24096386,7,1,8,-0.005208333,0.001302083,1,0,0,1.5833,rock_grid_rect_2,6,05,-1,-1,1.583,-0.162760417,-0.388020833,1,0,0,1.6725,Pegmatite_rect,6,1.672,1,7,0,7,0,1,,,,,,,,,,,,,
6109f02b5f6b3477fa8ddd8a,TCR,2024-06-20_15h27.48.905,LearnStrategy,2023.2.3,Win32,60.24096386,7,1,9,-0.045572917,0.00390625,1,0,0,1.5428,rock_grid_rect_2,3,10,-1,-1,1.543,0.151041667,-0.248697917,1,0,0,1.5989,Diorite_rect,3,1.599,1,8,0,8,0,1,,,,,,,,,,,,,
6109f02b5f6b3477fa8ddd8a,TCR,2024-06-20_15h27.48.905,LearnStrategy,2023.2.3,Win32,60.24096386,7,1,10,0.072916667,-0.013020833,1,0,0,1.1771,rock_grid_rect_2,1,14,-1,-1,1.177,-0.438802083,-0.259114583,1,0,0,2.129,Andesite_rect,1,2.129,1,9,0,9,0,1,,,,,,,,,,,,,
6109f02b5f6b3477fa8ddd8a,TCR,2024-06-20_15h27.48.905,LearnStrategy,2023.2.3,Win32,60.24096386,7,1,11,-0.067708333,-0.024739583,1,0,0,1.3085,rock_grid_rect_2,7,13,-1,-1,1.309,0.098958333,-0.39453125,1,0,0,2.9758,Peridotite_rect,7,2.976,1,10,0,10,0,1,,,,,,,,,,,,,
6109f02b5f6b3477fa8ddd8a,TCR,2024-06-20_15h27.48.905,LearnStrategy,2023.2.3,Win32,60.24096386,7,1,12,-0.010416667,0.013020833,1,0,0,1.7278,rock_grid_rect_2,4,11,-1,-1,1.728,0.384114583,-0.229166667,1,0,0,1.701,Gabbro_rect,4,1.701,1,11,0,11,0,1,,,,,,,,,,,,,
6109f02b5f6b3477fa8ddd8a,TCR,2024-06-20_15h27.48.905,LearnStrategy,2023.2.3,Win32,60.24096386,7,1,13,-0.029947917,0,1,0,0,1.8259,rock_grid_rect_2,8,02,-1,-1,1.826,0.381510417,-0.40234375,1,0,0,2.2817,Pumice_rect,8,2.282,1,12,0,12,0,1,,,,,,,,,,,,,
6109f02b5f6b3477fa8ddd8a,TCR,2024-06-20_15h27.48.905,LearnStrategy,2023.2.3,Win32,60.24096386,7,1,14,0.013020833,0.010416667,1,0,0,1.3256,rock_grid_rect_2,6,08,-1,-1,1.326,-0.11328125,-0.401041667,1,0,0,2.5268,Pegmatite_rect,6,2.527,1,13,0,13,0,1,,,,,,,,,,,,,
6109f02b5f6b3477fa8ddd8a,TCR,2024-06-20_15h27.48.905,LearnStrategy,2023.2.3,Win32,60.24096386,7,1,15,-0.010416667,0.009114583,1,0,0,1.4293,rock_grid_rect_2,4,13,-1,-1,1.429,0.3984375,-0.236979167,1,0,0,1.5444,Gabbro_rect,4,1.544,1,14,0,14,0,1,,,,,,,,,,,,,
6109f02b5f6b3477fa8ddd8a,TCR,2024-06-20_15h27.48.905,LearnStrategy,2023.2.3,Win32,60.24096386,7,1,16,-0.005208333,0.001302083,1,0,0,1.3187,rock_grid_rect_2,5,14,-1,-1,1.319,-0.434895833,-0.40234375,1,0,0,1.638,Obsidian_rect,5,1.638,1,15,0,15,0,1,,,,,,,,,,,,,
6109f02b5f6b3477fa8ddd8a,TCR,2024-06-20_15h27.48.905,LearnStrategy,2023.2.3,Win32,60.24096386,7,2,1,,,,,,,,7,06,,,,,,,,,,,7,1.801,1,,,,,,0.091145833,-0.380208333,1,0,0,1.8009,Peridotite_rect,0,0,0,0,1,
6109f02b5f6b3477fa8ddd8a,TCR,2024-06-20_15h27.48.905,LearnStrategy,2023.2.3,Win32,60.24096386,7,2,2,,,,,,,,8,10,,,,,,,,,,,8,5.196,1,,,,,,0.381510417,-0.390625,1,0,0,5.1962,Pumice_rect,1,0,1,0,1,
6109f02b5f6b3477fa8ddd8a,TCR,2024-06-20_15h27.48.905,LearnStrategy,2023.2.3,Win32,60.24096386,7,2,3,,,,,,,,6,06,,,,,,,,,,,6,5.845,1,,,,,,-0.111979167,-0.393229167,1,0,0,5.8451,Pegmatite_rect,2,0,2,0,1,
6109f02b5f6b3477fa8ddd8a,TCR,2024-06-20_15h27.48.905,LearnStrategy,2023.2.3,Win32,60.24096386,7,2,4,,,,,,,,1,03,,,,,,,,,,,1,1.858,1,,,,,,-0.377604167,-0.24609375,1,0,0,1.8576,Andesite_rect,3,0,3,0,1,
6109f02b5f6b3477fa8ddd8a,TCR,2024-06-20_15h27.48.905,LearnStrategy,2023.2.3,Win32,60.24096386,7,2,5,,,,,,,,5,05,,,,,,,,,,,5,2.387,1,,,,,,-0.412760417,-0.393229167,1,0,0,2.3869,Obsidian_rect,4,0,4,0,1,
6109f02b5f6b3477fa8ddd8a,TCR,2024-06-20_15h27.48.905,LearnStrategy,2023.2.3,Win32,60.24096386,7,2,6,,,,,,,,2,06,,,,,,,,,,,2,2.251,1,,,,,,-0.15625,-0.231770833,1,0,0,2.2505,Basalt_rect,5,0,5,0,1,
6109f02b5f6b3477fa8ddd8a,TCR,2024-06-20_15h27.48.905,LearnStrategy,2023.2.3,Win32,60.24096386,7,2,7,,,,,,,,7,15,,,,,,,,,,,7,1.764,1,,,,,,0.0703125,-0.397135417,1,0,0,1.7643,Peridotite_rect,6,0,6,0,1,
6109f02b5f6b3477fa8ddd8a,TCR,2024-06-20_15h27.48.905,LearnStrategy,2023.2.3,Win32,60.24096386,7,2,8,,,,,,,,2,05,,,,,,,,,,,2,2.118,1,,,,,,-0.125,-0.243489583,1,0,0,2.1179,Basalt_rect,7,0,7,0,1,
6109f02b5f6b3477fa8ddd8a,TCR,2024-06-20_15h27.48.905,LearnStrategy,2023.2.3,Win32,60.24096386,7,2,9,,,,,,,,6,07,,,,,,,,,,,6,5.025,1,,,,,,-0.088541667,-0.381510417,1,0,0,5.0247,Pegmatite_rect,8,0,8,0,1,
6109f02b5f6b3477fa8ddd8a,TCR,2024-06-20_15h27.48.905,LearnStrategy,2023.2.3,Win32,60.24096386,7,2,10,,,,,,,,3,12,,,,,,,,,,,3,1.907,1,,,,,,0.110677083,-0.239583333,1,0,0,1.9067,Diorite_rect,9,0,9,0,1,
6109f02b5f6b3477fa8ddd8a,TCR,2024-06-20_15h27.48.905,LearnStrategy,2023.2.3,Win32,60.24096386,7,2,11,,,,,,,,1,10,,,,,,,,,,,8,8.638,0,,,,,,0.404947917,-0.388020833,1,0,0,8.6379,Pumice_rect,10,0,10,0,1,
6109f02b5f6b3477fa8ddd8a,TCR,2024-06-20_15h27.48.905,LearnStrategy,2023.2.3,Win32,60.24096386,7,2,12,,,,,,,,5,11,,,,,,,,,,,5,1.591,1,,,,,,-0.35546875,-0.40625,1,0,0,1.5909,Obsidian_rect,11,0,11,0,1,
6109f02b5f6b3477fa8ddd8a,TCR,2024-06-20_15h27.48.905,LearnStrategy,2023.2.3,Win32,60.24096386,7,2,13,,,,,,,,4,09,,,,,,,,,,,5,3.041,0,,,,,,-0.3984375,-0.388020833,1,0,0,3.0413,Obsidian_rect,12,0,12,0,1,
6109f02b5f6b3477fa8ddd8a,TCR,2024-06-20_15h27.48.905,LearnStrategy,2023.2.3,Win32,60.24096386,7,2,14,,,,,,,,3,13,,,,,,,,,,,3,7.865,1,,,,,,0.0703125,-0.247395833,1,0,0,7.8652,Diorite_rect,13,0,13,0,1,
6109f02b5f6b3477fa8ddd8a,TCR,2024-06-20_15h27.48.905,LearnStrategy,2023.2.3,Win32,60.24096386,7,2,15,,,,,,,,4,15,,,,,,,,,,,4,5.432,1,,,,,,0.391927083,-0.2421875,1,0,0,5.4319,Gabbro_rect,14,0,14,0,1,
6109f02b5f6b3477fa8ddd8a,TCR,2024-06-20_15h27.48.905,LearnStrategy,2023.2.3,Win32,60.24096386,7,2,16,,,,,,,,8,16,,,,,,,,,,,8,1.57,1,,,,,,0.393229167,-0.388020833,1,0,0,1.5704,Pumice_rect,15,0,15,0,1,
6109f02b5f6b3477fa8ddd8a,TCR,2024-06-20_15h27.48.905,LearnStrategy,2023.2.3,Win32,60.24096386,8,1,1,0.096354167,-0.006510417,1,0,0,2.2086,rock_grid_rect_2,3,16,-1,-1,2.209,0.14453125,-0.234375,1,0,0,1.6781,Diorite_rect,3,1.678,1,0,0,0,0,1,,,,,,,,,,,,,
6109f02b5f6b3477fa8ddd8a,TCR,2024-06-20_15h27.48.905,LearnStrategy,2023.2.3,Win32,60.24096386,8,1,2,0.033854167,-0.0234375,1,0,0,1.3259,rock_grid_rect_2,6,16,-1,-1,1.326,-0.131510417,-0.399739583,1,0,0,1.451,Pegmatite_rect,6,1.451,1,1,0,1,0,1,,,,,,,,,,,,,
6109f02b5f6b3477fa8ddd8a,TCR,2024-06-20_15h27.48.905,LearnStrategy,2023.2.3,Win32,60.24096386,8,1,3,0.111979167,0.00390625,1,0,0,1.9294,rock_grid_rect_2,5,08,-1,-1,1.929,-0.381510417,-0.3984375,1,0,0,2.372,Obsidian_rect,5,2.372,1,2,0,2,0,1,,,,,,,,,,,,,
6109f02b5f6b3477fa8ddd8a,TCR,2024-06-20_15h27.48.905,LearnStrategy,2023.2.3,Win32,60.24096386,8,1,4,0.0390625,0.005208333,1,0,0,1.5754,rock_grid_rect_2,4,13,-1,-1,1.575,0.3828125,-0.234375,1,0,0,1.7312,Gabbro_rect,4,1.731,1,3,0,3,0,1,,,,,,,,,,,,,
6109f02b5f6b3477fa8ddd8a,TCR,2024-06-20_15h27.48.905,LearnStrategy,2023.2.3,Win32,60.24096386,8,1,5,0.11328125,0.016927083,1,0,0,1.459,rock_grid_rect_2,8,13,-1,-1,1.459,0.39453125,-0.416666667,1,0,0,2.1324,Pumice_rect,8,2.132,1,4,0,4,0,1,,,,,,,,,,,,,
6109f02b5f6b3477fa8ddd8a,TCR,2024-06-20_15h27.48.905,LearnStrategy,2023.2.3,Win32,60.24096386,8,1,6,0.040364583,0.0078125,1,0,0,1.3336,rock_grid_rect_2,6,16,-1,-1,1.334,-0.119791667,-0.41796875,1,0,0,1.4785,Pegmatite_rect,6,1.478,1,5,0,5,0,1,,,,,,,,,,,,,
6109f02b5f6b3477fa8ddd8a,TCR,2024-06-20_15h27.48.905,LearnStrategy,2023.2.3,Win32,60.24096386,8,1,7,0.041666667,-0.01953125,1,0,0,1.5924,rock_grid_rect_2,2,09,-1,-1,1.592,-0.125,-0.248697917,1,0,0,2.1841,Basalt_rect,2,2.184,1,6,0,6,0,1,,,,,,,,,,,,,
6109f02b5f6b3477fa8ddd8a,TCR,2024-06-20_15h27.48.905,LearnStrategy,2023.2.3,Win32,60.24096386,8,1,8,0.080729167,0.01171875,1,0,0,2.3788,rock_grid_rect_2,4,11,-1,-1,2.379,0.373697917,-0.23828125,1,0,0,2.5415,Gabbro_rect,4,2.542,1,7,0,7,0,1,,,,,,,,,,,,,
6109f02b5f6b3477fa8ddd8a,TCR,2024-06-20_15h27.48.905,LearnStrategy,2023.2.3,Win32,60.24096386,8,1,9,0.01953125,-0.015625,1,0,0,1.2757,rock_grid_rect_2,3,09,-1,-1,1.276,0.119791667,-0.23828125,1,0,0,2.2203,Diorite_rect,3,2.22,1,8,0,8,0,1,,,,,,,,,,,,,
6109f02b5f6b3477fa8ddd8a,TCR,2024-06-20_15h27.48.905,LearnStrategy,2023.2.3,Win32,60.24096386,8,1,10,0.036458333,0.0078125,1,0,0,1.4268,rock_grid_rect_2,1,09,-1,-1,1.427,-0.356770833,-0.234375,1,0,0,2.0301,Andesite_rect,1,2.03,1,9,0,9,0,1,,,,,,,,,,,,,
6109f02b5f6b3477fa8ddd8a,TCR,2024-06-20_15h27.48.905,LearnStrategy,2023.2.3,Win32,60.24096386,8,1,11,0.061197917,-0.014322917,1,0,0,1.2599,rock_grid_rect_2,1,01,-1,-1,1.26,-0.393229167,-0.25,1,0,0,3.857,Andesite_rect,1,3.857,1,10,0,10,0,1,,,,,,,,,,,,,
6109f02b5f6b3477fa8ddd8a,TCR,2024-06-20_15h27.48.905,LearnStrategy,2023.2.3,Win32,60.24096386,8,1,12,0.084635417,-0.0078125,1,0,0,1.6253,rock_grid_rect_2,2,09,-1,-1,1.625,0.48046875,-0.265625,1,0,0,3.97,Gabbro_rect,4,3.97,0,11,0,11,0,1,,,,,,,,,,,,,
6109f02b5f6b3477fa8ddd8a,TCR,2024-06-20_15h27.48.905,LearnStrategy,2023.2.3,Win32,60.24096386,8,1,13,0.065104167,-0.010416667,1,0,0,1.2084,rock_grid_rect_2,4,16,-1,-1,1.208,0.427083333,-0.259114583,1,0,0,1.7828,Gabbro_rect,4,1.783,1,12,0,12,0,1,,,,,,,,,,,,,
6109f02b5f6b3477fa8ddd8a,TCR,2024-06-20_15h27.48.905,LearnStrategy,2023.2.3,Win32,60.24096386,8,1,14,0.069010417,-0.010416667,1,0,0,1.2761,rock_grid_rect_2,6,10,-1,-1,1.276,0.12890625,-0.40234375,1,0,0,2.8317,Peridotite_rect,7,2.832,0,13,0,13,0,1,,,,,,,,,,,,,
6109f02b5f6b3477fa8ddd8a,TCR,2024-06-20_15h27.48.905,LearnStrategy,2023.2.3,Win32,60.24096386,8,1,15,0.037760417,0,1,0,0,1.3991,rock_grid_rect_2,7,02,-1,-1,1.399,0.119791667,-0.41015625,1,0,0,1.8787,Peridotite_rect,7,1.879,1,14,0,14,0,1,,,,,,,,,,,,,
6109f02b5f6b3477fa8ddd8a,TCR,2024-06-20_15h27.48.905,LearnStrategy,2023.2.3,Win32,60.24096386,8,1,16,0.069010417,0.015625,1,0,0,3.0939,rock_grid_rect_2,4,13,-1,-1,3.094,0.369791667,-0.247395833,1,0,0,2.9568,Gabbro_rect,4,2.957,1,15,0,15,0,1,,,,,,,,,,,,,
6109f02b5f6b3477fa8ddd8a,TCR,2024-06-20_15h27.48.905,LearnStrategy,2023.2.3,Win32,60.24096386,8,2,1,,,,,,,,6,11,,,,,,,,,,,6,2.915,1,,,,,,-0.174479167,-0.408854167,1,0,0,2.9152,Pegmatite_rect,0,0,0,0,1,
6109f02b5f6b3477fa8ddd8a,TCR,2024-06-20_15h27.48.905,LearnStrategy,2023.2.3,Win32,60.24096386,8,2,2,,,,,,,,5,16,,,,,,,,,,,5,2.928,1,,,,,,-0.389322917,-0.404947917,1,0,0,2.9277,Obsidian_rect,1,0,1,0,1,
6109f02b5f6b3477fa8ddd8a,TCR,2024-06-20_15h27.48.905,LearnStrategy,2023.2.3,Win32,60.24096386,8,2,3,,,,,,,,8,03,,,,,,,,,,,8,1.873,1,,,,,,0.470052083,-0.408854167,1,0,0,1.8735,Pumice_rect,2,0,2,0,1,
6109f02b5f6b3477fa8ddd8a,TCR,2024-06-20_15h27.48.905,LearnStrategy,2023.2.3,Win32,60.24096386,8,2,4,,,,,,,,8,05,,,,,,,,,,,8,1.539,1,,,,,,0.470052083,-0.408854167,1,0,0,1.5391,Pumice_rect,3,0,3,0,1,
6109f02b5f6b3477fa8ddd8a,TCR,2024-06-20_15h27.48.905,LearnStrategy,2023.2.3,Win32,60.24096386,8,2,5,,,,,,,,1,04,,,,,,,,,,,1,1.907,1,,,,,,-0.345052083,-0.244791667,1,0,0,1.9071,Andesite_rect,4,0,4,0,1,
6109f02b5f6b3477fa8ddd8a,TCR,2024-06-20_15h27.48.905,LearnStrategy,2023.2.3,Win32,60.24096386,8,2,6,,,,,,,,3,11,,,,,,,,,,,3,1.898,1,,,,,,0.123697917,-0.25390625,1,0,0,1.8976,Diorite_rect,5,0,5,0,1,
6109f02b5f6b3477fa8ddd8a,TCR,2024-06-20_15h27.48.905,LearnStrategy,2023.2.3,Win32,60.24096386,8,2,7,,,,,,,,4,01,,,,,,,,,,,1,14.165,0,,,,,,-0.375,-0.235677083,1,0,0,14.1653,Andesite_rect,6,0,6,0,1,
6109f02b5f6b3477fa8ddd8a,TCR,2024-06-20_15h27.48.905,LearnStrategy,2023.2.3,Win32,60.24096386,8,2,8,,,,,,,,7,05,,,,,,,,,,,7,2.311,1,,,,,,0.10546875,-0.384114583,1,0,0,2.3112,Peridotite_rect,7,0,7,0,1,
6109f02b5f6b3477fa8ddd8a,TCR,2024-06-20_15h27.48.905,LearnStrategy,2023.2.3,Win32,60.24096386,8,2,9,,,,,,,,2,08,,,,,,,,,,,2,2.024,1,,,,,,-0.118489583,-0.235677083,1,0,0,2.024,Basalt_rect,8,0,8,0,1,
6109f02b5f6b3477fa8ddd8a,TCR,2024-06-20_15h27.48.905,LearnStrategy,2023.2.3,Win32,60.24096386,8,2,10,,,,,,,,7,08,,,,,,,,,,,7,2.258,1,,,,,,0.098958333,-0.390625,1,0,0,2.2576,Peridotite_rect,9,0,9,0,1,
6109f02b5f6b3477fa8ddd8a,TCR,2024-06-20_15h27.48.905,LearnStrategy,2023.2.3,Win32,60.24096386,8,2,11,,,,,,,,2,11,,,,,,,,,,,4,7.101,0,,,,,,0.451822917,-0.247395833,1,0,0,7.1006,Gabbro_rect,10,0,10,0,1,
6109f02b5f6b3477fa8ddd8a,TCR,2024-06-20_15h27.48.905,LearnStrategy,2023.2.3,Win32,60.24096386,8,2,12,,,,,,,,4,08,,,,,,,,,,,4,4.623,1,,,,,,0.360677083,-0.252604167,1,0,0,4.6229,Gabbro_rect,11,0,11,0,1,
6109f02b5f6b3477fa8ddd8a,TCR,2024-06-20_15h27.48.905,LearnStrategy,2023.2.3,Win32,60.24096386,8,2,13,,,,,,,,6,15,,,,,,,,,,,6,3.489,1,,,,,,-0.059895833,-0.389322917,1,0,0,3.489,Pegmatite_rect,12,0,12,0,1,
6109f02b5f6b3477fa8ddd8a,TCR,2024-06-20_15h27.48.905,LearnStrategy,2023.2.3,Win32,60.24096386,8,2,14,,,,,,,,1,02,,,,,,,,,,,2,8.945,0,,,,,,-0.088541667,-0.255208333,1,0,0,8.9446,Basalt_rect,13,0,13,0,1,
6109f02b5f6b3477fa8ddd8a,TCR,2024-06-20_15h27.48.905,LearnStrategy,2023.2.3,Win32,60.24096386,8,2,15,,,,,,,,5,04,,,,,,,,,,,5,1.386,1,,,,,,-0.365885417,-0.3984375,1,0,0,1.3863,Obsidian_rect,14,0,14,0,1,
6109f02b5f6b3477fa8ddd8a,TCR,2024-06-20_15h27.48.905,LearnStrategy,2023.2.3,Win32,60.24096386,8,2,16,,,,,,,,3,06,,,,,,,,,,,3,3.821,1,,,,,,0.115885417,-0.23828125,1,0,0,3.8208,Diorite_rect,15,0,15,0,1,
6109f02b5f6b3477fa8ddd8a,TCR,2024-06-20_15h27.48.905,LearnStrategy,2023.2.3,Win32,60.24096386,9,1,1,-0.01953125,0.005208333,1,0,0,3.4085,rock_grid_rect_2,6,13,-1,-1,3.409,-0.092447917,-0.419270833,1,0,0,2.9001,Pegmatite_rect,6,2.9,1,0,0,0,0,1,,,,,,,,,,,,,
6109f02b5f6b3477fa8ddd8a,TCR,2024-06-20_15h27.48.905,LearnStrategy,2023.2.3,Win32,60.24096386,9,1,2,0.001302083,-0.022135417,1,0,0,1.4252,rock_grid_rect_2,4,12,-1,-1,1.425,-0.12109375,-0.264322917,1,0,0,1.7121,Basalt_rect,2,1.712,0,1,0,1,0,1,,,,,,,,,,,,,
6109f02b5f6b3477fa8ddd8a,TCR,2024-06-20_15h27.48.905,LearnStrategy,2023.2.3,Win32,60.24096386,9,1,3,-0.01171875,0.01171875,1,0,0,2.66,rock_grid_rect_2,7,14,-1,-1,2.66,0.100260417,-0.384114583,1,0,0,2.0611,Peridotite_rect,7,2.061,1,2,0,2,0,1,,,,,,,,,,,,,
6109f02b5f6b3477fa8ddd8a,TCR,2024-06-20_15h27.48.905,LearnStrategy,2023.2.3,Win32,60.24096386,9,1,4,-0.045572917,0.002604167,1,0,0,2.7637,rock_grid_rect_2,4,13,-1,-1,2.764,0.381510417,-0.235677083,1,0,0,1.9965,Gabbro_rect,4,1.996,1,3,0,3,0,1,,,,,,,,,,,,,
6109f02b5f6b3477fa8ddd8a,TCR,2024-06-20_15h27.48.905,LearnStrategy,2023.2.3,Win32,60.24096386,9,1,5,0.07421875,0.014322917,1,0,0,1.4413,rock_grid_rect_2,1,14,-1,-1,1.441,-0.3671875,-0.243489583,1,0,0,3.1654,Andesite_rect,1,3.165,1,4,0,4,0,1,,,,,,,,,,,,,
6109f02b5f6b3477fa8ddd8a,TCR,2024-06-20_15h27.48.905,LearnStrategy,2023.2.3,Win32,60.24096386,9,1,6,0.046875,0.00390625,1,0,0,1.4141,rock_grid_rect_2,2,16,-1,-1,1.414,-0.125,-0.240885417,1,0,0,3.1655,Basalt_rect,2,3.165,1,5,0,5,0,1,,,,,,,,,,,,,
6109f02b5f6b3477fa8ddd8a,TCR,2024-06-20_15h27.48.905,LearnStrategy,2023.2.3,Win32,60.24096386,9,1,7,0.0390625,-0.0234375,1,0,0,1.1764,rock_grid_rect_2,5,12,-1,-1,1.176,-0.40234375,-0.41796875,1,0,0,1.5316,Obsidian_rect,5,1.532,1,6,0,6,0,1,,,,,,,,,,,,,
6109f02b5f6b3477fa8ddd8a,TCR,2024-06-20_15h27.48.905,LearnStrategy,2023.2.3,Win32,60.24096386,9,1,8,0.045572917,-0.014322917,1,0,0,1.2762,rock_grid_rect_2,4,11,-1,-1,1.276,0.373697917,-0.236979167,1,0,0,1.7365,Gabbro_rect,4,1.736,1,7,0,7,0,1,,,,,,,,,,,,,
6109f02b5f6b3477fa8ddd8a,TCR,2024-06-20_15h27.48.905,LearnStrategy,2023.2.3,Win32,60.24096386,9,1,9,0.057291667,-0.001302083,1,0,0,1.2095,rock_grid_rect_2,2,09,-1,-1,1.21,0.346354167,-0.248697917,1,0,0,1.7332,Gabbro_rect,4,1.733,0,8,0,8,0,1,,,,,,,,,,,,,
6109f02b5f6b3477fa8ddd8a,TCR,2024-06-20_15h27.48.905,LearnStrategy,2023.2.3,Win32,60.24096386,9,1,10,0.14453125,0.0078125,1,0,0,2.1594,rock_grid_rect_2,1,07,-1,-1,2.159,-0.359375,-0.233072917,1,0,0,1.5832,Andesite_rect,1,1.583,1,9,0,9,0,1,,,,,,,,,,,,,
6109f02b5f6b3477fa8ddd8a,TCR,2024-06-20_15h27.48.905,LearnStrategy,2023.2.3,Win32,60.24096386,9,1,11,-0.005208333,-0.006510417,1,0,0,1.159,rock_grid_rect_2,4,10,-1,-1,1.159,-0.114583333,-0.248697917,1,0,0,5.4773,Basalt_rect,2,5.477,0,10,0,10,0,1,,,,,,,,,,,,,
6109f02b5f6b3477fa8ddd8a,TCR,2024-06-20_15h27.48.905,LearnStrategy,2023.2.3,Win32,60.24096386,9,1,12,0.005208333,0.006510417,1,0,0,1.2253,rock_grid_rect_2,1,06,-1,-1,1.225,-0.381510417,-0.248697917,1,0,0,2.3549,Andesite_rect,1,2.355,1,11,0,11,0,1,,,,,,,,,,,,,
6109f02b5f6b3477fa8ddd8a,TCR,2024-06-20_15h27.48.905,LearnStrategy,2023.2.3,Win32,60.24096386,9,1,13,0.041666667,-0.01171875,1,0,0,1.7588,rock_grid_rect_2,6,12,-1,-1,1.759,-0.11328125,-0.40625,1,0,0,1.7687,Pegmatite_rect,6,1.769,1,12,0,12,0,1,,,,,,,,,,,,,
6109f02b5f6b3477fa8ddd8a,TCR,2024-06-20_15h27.48.905,LearnStrategy,2023.2.3,Win32,60.24096386,9,1,14,0.057291667,-0.013020833,1,0,0,1.8752,rock_grid_rect_2,3,16,-1,-1,1.875,0.147135417,-0.23828125,1,0,0,1.6205,Diorite_rect,3,1.62,1,13,0,13,0,1,,,,,,,,,,,,,
6109f02b5f6b3477fa8ddd8a,TCR,2024-06-20_15h27.48.905,LearnStrategy,2023.2.3,Win32,60.24096386,9,1,15,0.1171875,-0.018229167,1,0,0,1.2093,rock_grid_rect_2,8,13,-1,-1,1.209,0.364583333,-0.389322917,1,0,0,1.6574,Pumice_rect,8,1.657,1,14,0,14,0,1,,,,,,,,,,,,,
6109f02b5f6b3477fa8ddd8a,TCR,2024-06-20_15h27.48.905,LearnStrategy,2023.2.3,Win32,60.24096386,9,1,16,0.084635417,0.009114583,1,0,0,4.5739,rock_grid_rect_2,3,14,-1,-1,4.574,0.138020833,-0.233072917,1,0,0,4.0259,Diorite_rect,3,4.026,1,15,0,15,0,1,,,,,,,,,,,,,
6109f02b5f6b3477fa8ddd8a,TCR,2024-06-20_15h27.48.905,LearnStrategy,2023.2.3,Win32,60.24096386,9,2,1,,,,,,,,5,10,,,,,,,,,,,5,1.923,1,,,,,,-0.388020833,-0.385416667,1,0,0,1.9232,Obsidian_rect,0,0,0,0,1,
6109f02b5f6b3477fa8ddd8a,TCR,2024-06-20_15h27.48.905,LearnStrategy,2023.2.3,Win32,60.24096386,9,2,2,,,,,,,,8,06,,,,,,,,,,,8,1.383,1,,,,,,0.427083333,-0.385416667,1,0,0,1.3832,Pumice_rect,1,0,1,0,1,
6109f02b5f6b3477fa8ddd8a,TCR,2024-06-20_15h27.48.905,LearnStrategy,2023.2.3,Win32,60.24096386,9,2,3,,,,,,,,1,11,,,,,,,,,,,1,3.662,1,,,,,,-0.446614583,-0.256510417,1,0,0,3.6619,Andesite_rect,2,0,2,0,1,
6109f02b5f6b3477fa8ddd8a,TCR,2024-06-20_15h27.48.905,LearnStrategy,2023.2.3,Win32,60.24096386,9,2,4,,,,,,,,1,05,,,,,,,,,,,1,2.891,1,,,,,,-0.412760417,-0.2421875,1,0,0,2.8907,Andesite_rect,3,0,3,0,1,
6109f02b5f6b3477fa8ddd8a,TCR,2024-06-20_15h27.48.905,LearnStrategy,2023.2.3,Win32,60.24096386,9,2,5,,,,,,,,2,14,,,,,,,,,,,8,6.668,0,,,,,,0.421875,-0.389322917,1,0,0,6.6676,Pumice_rect,4,0,4,0,1,
6109f02b5f6b3477fa8ddd8a,TCR,2024-06-20_15h27.48.905,LearnStrategy,2023.2.3,Win32,60.24096386,9,2,6,,,,,,,,4,03,,,,,,,,,,,1,3.517,0,,,,,,-0.385416667,-0.235677083,1,0,0,3.5167,Andesite_rect,5,0,5,0,1,
6109f02b5f6b3477fa8ddd8a,TCR,2024-06-20_15h27.48.905,LearnStrategy,2023.2.3,Win32,60.24096386,9,2,7,,,,,,,,8,09,,,,,,,,,,,8,1.818,1,,,,,,0.391927083,-0.40625,1,0,0,1.8181,Pumice_rect,6,0,6,0,1,
6109f02b5f6b3477fa8ddd8a,TCR,2024-06-20_15h27.48.905,LearnStrategy,2023.2.3,Win32,60.24096386,9,2,8,,,,,,,,6,09,,,,,,,,,,,7,7.768,0,,,,,,0.161458333,-0.404947917,1,0,0,7.7676,Peridotite_rect,7,0,7,0,1,
6109f02b5f6b3477fa8ddd8a,TCR,2024-06-20_15h27.48.905,LearnStrategy,2023.2.3,Win32,60.24096386,9,2,9,,,,,,,,3,07,,,,,,,,,,,3,1.521,1,,,,,,0.125,-0.244791667,1,0,0,1.5205,Diorite_rect,8,0,8,0,1,
6109f02b5f6b3477fa8ddd8a,TCR,2024-06-20_15h27.48.905,LearnStrategy,2023.2.3,Win32,60.24096386,9,2,10,,,,,,,,4,05,,,,,,,,,,,7,7.938,0,,,,,,0.12890625,-0.38671875,1,0,0,7.9383,Peridotite_rect,9,0,9,0,1,
6109f02b5f6b3477fa8ddd8a,TCR,2024-06-20_15h27.48.905,LearnStrategy,2023.2.3,Win32,60.24096386,9,2,11,,,,,,,,7,10,,,,,,,,,,,7,1.325,1,,,,,,0.134114583,-0.39453125,1,0,0,1.3251,Peridotite_rect,10,0,10,0,1,
6109f02b5f6b3477fa8ddd8a,TCR,2024-06-20_15h27.48.905,LearnStrategy,2023.2.3,Win32,60.24096386,9,2,12,,,,,,,,2,02,,,,,,,,,,,2,1.447,1,,,,,,-0.11328125,-0.256510417,1,0,0,1.447,Basalt_rect,11,0,11,0,1,
6109f02b5f6b3477fa8ddd8a,TCR,2024-06-20_15h27.48.905,LearnStrategy,2023.2.3,Win32,60.24096386,9,2,13,,,,,,,,6,03,,,,,,,,,,,7,1.893,0,,,,,,0.102864583,-0.40625,1,0,0,1.8926,Peridotite_rect,12,0,12,0,1,
6109f02b5f6b3477fa8ddd8a,TCR,2024-06-20_15h27.48.905,LearnStrategy,2023.2.3,Win32,60.24096386,9,2,14,,,,,,,,7,04,,,,,,,,,,,7,2.402,1,,,,,,0.102864583,-0.40625,1,0,0,2.4025,Peridotite_rect,13,0,13,0,1,
6109f02b5f6b3477fa8ddd8a,TCR,2024-06-20_15h27.48.905,LearnStrategy,2023.2.3,Win32,60.24096386,9,2,15,,,,,,,,5,07,,,,,,,,,,,5,1.756,1,,,,,,-0.385416667,-0.389322917,1,0,0,1.7558,Obsidian_rect,14,0,14,0,1,
6109f02b5f6b3477fa8ddd8a,TCR,2024-06-20_15h27.48.905,LearnStrategy,2023.2.3,Win32,60.24096386,9,2,16,,,,,,,,3,02,,,,,,,,,,,3,2.117,1,,,,,,0.115885417,-0.25,1,0,0,2.117,Diorite_rect,15,0,15,0,1,
6109f02b5f6b3477fa8ddd8a,TCR,2024-06-20_15h27.48.905,LearnStrategy,2023.2.3,Win32,60.24096386,,,,,,,,,,,,,,,,,,,,,,,,,,,,,,,,,,,,,,,,,,,1
6109f02b5f6b3477fa8ddd8a,TCR,2024-06-20_15h27.48.905,LearnStrategy,2023.2.3,Win32,60.24096386,,,,,,,,,,,,,,,,,,,,,,,,,,,,,,,,,,,,,,,,,,,
6109f02b5f6b3477fa8ddd8a,TCR,2024-06-20_15h27.48.905,LearnStrategy,2023.2.3,Win32,60.24096386,,,,,,,,,,,3,10,1,1,,,,,,,,,,,,,,,,,,,,,,,,,,,,,
6109f02b5f6b3477fa8ddd8a,TCR,2024-06-20_15h27.48.905,LearnStrategy,2023.2.3,Win32,60.24096386,,,,,,,,,,,3,14,1,2,,,,,,,,,,,,,,,,,,,,,,,,,,,,,
6109f02b5f6b3477fa8ddd8a,TCR,2024-06-20_15h27.48.905,LearnStrategy,2023.2.3,Win32,60.24096386,,,,,,,,,,,5,09,1,3,,,,,,,,,,,,,,,,,,,,,,,,,,,,,
6109f02b5f6b3477fa8ddd8a,TCR,2024-06-20_15h27.48.905,LearnStrategy,2023.2.3,Win32,60.24096386,,,,,,,,,,,3,08,1,4,,,,,,,,,,,,,,,,,,,,,,,,,,,,,
6109f02b5f6b3477fa8ddd8a,TCR,2024-06-20_15h27.48.905,LearnStrategy,2023.2.3,Win32,60.24096386,,,,,,,,,,,2,09,1,5,,,,,,,,,,,,,,,,,,,,,,,,,,,,,
6109f02b5f6b3477fa8ddd8a,TCR,2024-06-20_15h27.48.905,LearnStrategy,2023.2.3,Win32,60.24096386,,,,,,,,,,,5,06,1,6,,,,,,,,,,,,,,,,,,,,,,,,,,,,,
6109f02b5f6b3477fa8ddd8a,TCR,2024-06-20_15h27.48.905,LearnStrategy,2023.2.3,Win32,60.24096386,,,,,,,,,,,4,12,1,7,,,,,,,,,,,,,,,,,,,,,,,,,,,,,
6109f02b5f6b3477fa8ddd8a,TCR,2024-06-20_15h27.48.905,LearnStrategy,2023.2.3,Win32,60.24096386,,,,,,,,,,,3,16,1,8,,,,,,,,,,,,,,,,,,,,,,,,,,,,,
6109f02b5f6b3477fa8ddd8a,TCR,2024-06-20_15h27.48.905,LearnStrategy,2023.2.3,Win32,60.24096386,,,,,,,,,,,8,08,2,1,,,,,,,,,,,,,,,,,,,,,,,,,,,,,
6109f02b5f6b3477fa8ddd8a,TCR,2024-06-20_15h27.48.905,LearnStrategy,2023.2.3,Win32,60.24096386,,,,,,,,,,,1,09,2,2,,,,,,,,,,,,,,,,,,,,,,,,,,,,,
6109f02b5f6b3477fa8ddd8a,TCR,2024-06-20_15h27.48.905,LearnStrategy,2023.2.3,Win32,60.24096386,,,,,,,,,,,5,12,2,3,,,,,,,,,,,,,,,,,,,,,,,,,,,,,
6109f02b5f6b3477fa8ddd8a,TCR,2024-06-20_15h27.48.905,LearnStrategy,2023.2.3,Win32,60.24096386,,,,,,,,,,,8,14,2,4,,,,,,,,,,,,,,,,,,,,,,,,,,,,,
6109f02b5f6b3477fa8ddd8a,TCR,2024-06-20_15h27.48.905,LearnStrategy,2023.2.3,Win32,60.24096386,,,,,,,,,,,7,02,2,5,,,,,,,,,,,,,,,,,,,,,,,,,,,,,
6109f02b5f6b3477fa8ddd8a,TCR,2024-06-20_15h27.48.905,LearnStrategy,2023.2.3,Win32,60.24096386,,,,,,,,,,,1,14,2,6,,,,,,,,,,,,,,,,,,,,,,,,,,,,,
6109f02b5f6b3477fa8ddd8a,TCR,2024-06-20_15h27.48.905,LearnStrategy,2023.2.3,Win32,60.24096386,,,,,,,,,,,4,16,2,7,,,,,,,,,,,,,,,,,,,,,,,,,,,,,
6109f02b5f6b3477fa8ddd8a,TCR,2024-06-20_15h27.48.905,LearnStrategy,2023.2.3,Win32,60.24096386,,,,,,,,,,,8,02,2,8,,,,,,,,,,,,,,,,,,,,,,,,,,,,,
6109f02b5f6b3477fa8ddd8a,TCR,2024-06-20_15h27.48.905,LearnStrategy,2023.2.3,Win32,60.24096386,,,,,,,,,,,3,15,3,1,,,,,,,,,,,,,,,,,,,,,,,,,,,,,
6109f02b5f6b3477fa8ddd8a,TCR,2024-06-20_15h27.48.905,LearnStrategy,2023.2.3,Win32,60.24096386,,,,,,,,,,,6,16,3,2,,,,,,,,,,,,,,,,,,,,,,,,,,,,,
6109f02b5f6b3477fa8ddd8a,TCR,2024-06-20_15h27.48.905,LearnStrategy,2023.2.3,Win32,60.24096386,,,,,,,,,,,6,12,3,3,,,,,,,,,,,,,,,,,,,,,,,,,,,,,
6109f02b5f6b3477fa8ddd8a,TCR,2024-06-20_15h27.48.905,LearnStrategy,2023.2.3,Win32,60.24096386,,,,,,,,,,,7,12,3,4,,,,,,,,,,,,,,,,,,,,,,,,,,,,,
6109f02b5f6b3477fa8ddd8a,TCR,2024-06-20_15h27.48.905,LearnStrategy,2023.2.3,Win32,60.24096386,,,,,,,,,,,2,01,3,5,,,,,,,,,,,,,,,,,,,,,,,,,,,,,
6109f02b5f6b3477fa8ddd8a,TCR,2024-06-20_15h27.48.905,LearnStrategy,2023.2.3,Win32,60.24096386,,,,,,,,,,,6,13,3,6,,,,,,,,,,,,,,,,,,,,,,,,,,,,,
6109f02b5f6b3477fa8ddd8a,TCR,2024-06-20_15h27.48.905,LearnStrategy,2023.2.3,Win32,60.24096386,,,,,,,,,,,2,04,3,7,,,,,,,,,,,,,,,,,,,,,,,,,,,,,
6109f02b5f6b3477fa8ddd8a,TCR,2024-06-20_15h27.48.905,LearnStrategy,2023.2.3,Win32,60.24096386,,,,,,,,,,,2,12,3,8,,,,,,,,,,,,,,,,,,,,,,,,,,,,,
6109f02b5f6b3477fa8ddd8a,TCR,2024-06-20_15h27.48.905,LearnStrategy,2023.2.3,Win32,60.24096386,,,,,,,,,,,1,07,4,1,,,,,,,,,,,,,,,,,,,,,,,,,,,,,
6109f02b5f6b3477fa8ddd8a,TCR,2024-06-20_15h27.48.905,LearnStrategy,2023.2.3,Win32,60.24096386,,,,,,,,,,,2,16,4,2,,,,,,,,,,,,,,,,,,,,,,,,,,,,,
6109f02b5f6b3477fa8ddd8a,TCR,2024-06-20_15h27.48.905,LearnStrategy,2023.2.3,Win32,60.24096386,,,,,,,,,,,1,16,4,3,,,,,,,,,,,,,,,,,,,,,,,,,,,,,
6109f02b5f6b3477fa8ddd8a,TCR,2024-06-20_15h27.48.905,LearnStrategy,2023.2.3,Win32,60.24096386,,,,,,,,,,,4,14,4,4,,,,,,,,,,,,,,,,,,,,,,,,,,,,,
6109f02b5f6b3477fa8ddd8a,TCR,2024-06-20_15h27.48.905,LearnStrategy,2023.2.3,Win32,60.24096386,,,,,,,,,,,2,10,4,5,,,,,,,,,,,,,,,,,,,,,,,,,,,,,
6109f02b5f6b3477fa8ddd8a,TCR,2024-06-20_15h27.48.905,LearnStrategy,2023.2.3,Win32,60.24096386,,,,,,,,,,,6,05,4,6,,,,,,,,,,,,,,,,,,,,,,,,,,,,,
6109f02b5f6b3477fa8ddd8a,TCR,2024-06-20_15h27.48.905,LearnStrategy,2023.2.3,Win32,60.24096386,,,,,,,,,,,8,13,4,7,,,,,,,,,,,,,,,,,,,,,,,,,,,,,
6109f02b5f6b3477fa8ddd8a,TCR,2024-06-20_15h27.48.905,LearnStrategy,2023.2.3,Win32,60.24096386,,,,,,,,,,,4,13,4,8,,,,,,,,,,,,,,,,,,,,,,,,,,,,,
6109f02b5f6b3477fa8ddd8a,TCR,2024-06-20_15h27.48.905,LearnStrategy,2023.2.3,Win32,60.24096386,,,,,,,,,,,1,01,5,1,,,,,,,,,,,,,,,,,,,,,,,,,,,,,
6109f02b5f6b3477fa8ddd8a,TCR,2024-06-20_15h27.48.905,LearnStrategy,2023.2.3,Win32,60.24096386,,,,,,,,,,,7,14,5,2,,,,,,,,,,,,,,,,,,,,,,,,,,,,,
6109f02b5f6b3477fa8ddd8a,TCR,2024-06-20_15h27.48.905,LearnStrategy,2023.2.3,Win32,60.24096386,,,,,,,,,,,7,16,5,3,,,,,,,,,,,,,,,,,,,,,,,,,,,,,
6109f02b5f6b3477fa8ddd8a,TCR,2024-06-20_15h27.48.905,LearnStrategy,2023.2.3,Win32,60.24096386,,,,,,,,,,,4,11,5,4,,,,,,,,,,,,,,,,,,,,,,,,,,,,,
6109f02b5f6b3477fa8ddd8a,TCR,2024-06-20_15h27.48.905,LearnStrategy,2023.2.3,Win32,60.24096386,,,,,,,,,,,1,06,5,5,,,,,,,,,,,,,,,,,,,,,,,,,,,,,
6109f02b5f6b3477fa8ddd8a,TCR,2024-06-20_15h27.48.905,LearnStrategy,2023.2.3,Win32,60.24096386,,,,,,,,,,,3,09,5,6,,,,,,,,,,,,,,,,,,,,,,,,,,,,,
6109f02b5f6b3477fa8ddd8a,TCR,2024-06-20_15h27.48.905,LearnStrategy,2023.2.3,Win32,60.24096386,,,,,,,,,,,5,02,5,7,,,,,,,,,,,,,,,,,,,,,,,,,,,,,
6109f02b5f6b3477fa8ddd8a,TCR,2024-06-20_15h27.48.905,LearnStrategy,2023.2.3,Win32,60.24096386,,,,,,,,,,,8,15,5,8,,,,,,,,,,,,,,,,,,,,,,,,,,,,,
6109f02b5f6b3477fa8ddd8a,TCR,2024-06-20_15h27.48.905,LearnStrategy,2023.2.3,Win32,60.24096386,,,,,,,,,,,5,08,6,1,,,,,,,,,,,,,,,,,,,,,,,,,,,,,
6109f02b5f6b3477fa8ddd8a,TCR,2024-06-20_15h27.48.905,LearnStrategy,2023.2.3,Win32,60.24096386,,,,,,,,,,,4,10,6,2,,,,,,,,,,,,,,,,,,,,,,,,,,,,,
6109f02b5f6b3477fa8ddd8a,TCR,2024-06-20_15h27.48.905,LearnStrategy,2023.2.3,Win32,60.24096386,,,,,,,,,,,8,04,6,3,,,,,,,,,,,,,,,,,,,,,,,,,,,,,
6109f02b5f6b3477fa8ddd8a,TCR,2024-06-20_15h27.48.905,LearnStrategy,2023.2.3,Win32,60.24096386,,,,,,,,,,,6,08,6,4,,,,,,,,,,,,,,,,,,,,,,,,,,,,,
6109f02b5f6b3477fa8ddd8a,TCR,2024-06-20_15h27.48.905,LearnStrategy,2023.2.3,Win32,60.24096386,,,,,,,,,,,6,10,6,5,,,,,,,,,,,,,,,,,,,,,,,,,,,,,
6109f02b5f6b3477fa8ddd8a,TCR,2024-06-20_15h27.48.905,LearnStrategy,2023.2.3,Win32,60.24096386,,,,,,,,,,,7,13,6,6,,,,,,,,,,,,,,,,,,,,,,,,,,,,,
6109f02b5f6b3477fa8ddd8a,TCR,2024-06-20_15h27.48.905,LearnStrategy,2023.2.3,Win32,60.24096386,,,,,,,,,,,7,07,6,7,,,,,,,,,,,,,,,,,,,,,,,,,,,,,
6109f02b5f6b3477fa8ddd8a,TCR,2024-06-20_15h27.48.905,LearnStrategy,2023.2.3,Win32,60.24096386,,,,,,,,,,,5,14,6,8,,,,,,,,,,,,,,,,,,,,,,,,,,,,,