participant,condition,date,expName,psychopyVersion,OS,frameRate,block,phase,trial,learn_mouse.x,learn_mouse.y,learn_mouse.leftButton,learn_mouse.midButton,learn_mouse.rightButton,learn_mouse.time,learn_mouse.clicked_name,cat,token,row,col,t_select,cat_mouse_l.x,cat_mouse_l.y,cat_mouse_l.leftButton,cat_mouse_l.midButton,cat_mouse_l.rightButton,cat_mouse_l.time,cat_mouse_l.clicked_name,resp,t_resp,corr,train_trials.thisRepN,train_trials.thisTrialN,train_trials.thisN,train_trials.thisIndex,train_trials.ran,cat_mouse_t.x,cat_mouse_t.y,cat_mouse_t.leftButton,cat_mouse_t.midButton,cat_mouse_t.rightButton,cat_mouse_t.time,cat_mouse_t.clicked_name,test_trials.thisRepN,test_trials.thisTrialN,test_trials.thisN,test_trials.thisIndex,test_trials.ran,Bonus
610cd5f2b38b2d1bffe55477,SCN,2024-06-24_16h15.45.834,LearnStrategy,2023.2.3,Win32,58.82352941,,,,,,,,,,,,,,,,,,,,,,,,,,,,,,,,,,,,,,,,,,,
610cd5f2b38b2d1bffe55477,SCN,2024-06-24_16h15.45.834,LearnStrategy,2023.2.3,Win32,58.82352941,1,1,1,0.052777778,-0.123148148,1,0,0,2.657,Obsidian_10,5,10,3,5,2.657,-0.388888889,-0.387037037,1,0,0,4.742,Obsidian_rect,5,4.742,1,0,0,0,0,1,,,,,,,,,,,,,
610cd5f2b38b2d1bffe55477,SCN,2024-06-24_16h15.45.834,LearnStrategy,2023.2.3,Win32,58.82352941,1,1,2,-0.414814815,0.115740741,1,0,0,2.565,Obsidian_12,5,12,4,2,2.565,-0.482407407,-0.384259259,1,0,0,3.013,Obsidian_rect,5,3.013,1,1,0,1,0,1,,,,,,,,,,,,,
610cd5f2b38b2d1bffe55477,SCN,2024-06-24_16h15.45.834,LearnStrategy,2023.2.3,Win32,58.82352941,1,1,3,0.541666667,-0.111111111,1,0,0,2.099,Obsidian_02,5,02,3,8,2.099,-0.349074074,-0.381481481,1,0,0,1.442,Obsidian_rect,5,1.442,1,2,0,2,0,1,,,,,,,,,,,,,
610cd5f2b38b2d1bffe55477,SCN,2024-06-24_16h15.45.834,LearnStrategy,2023.2.3,Win32,58.82352941,1,1,4,0.557407407,-0.258333333,1,0,0,1.967,Obsidian_16,5,16,2,8,1.967,-0.352777778,-0.392592593,1,0,0,1.23,Obsidian_rect,5,1.23,1,3,0,3,0,1,,,,,,,,,,,,,
610cd5f2b38b2d1bffe55477,SCN,2024-06-24_16h15.45.834,LearnStrategy,2023.2.3,Win32,58.82352941,1,1,5,-0.090740741,-0.076851852,1,0,0,3.3,Obsidian_14,5,14,3,4,3.3,0.068518519,-0.234259259,1,0,0,5.125,Diorite_rect,3,5.125,0,4,0,4,0,1,,,,,,,,,,,,,
610cd5f2b38b2d1bffe55477,SCN,2024-06-24_16h15.45.834,LearnStrategy,2023.2.3,Win32,58.82352941,1,1,6,-0.05,-0.114814815,1,0,0,1.299,Obsidian_14,5,14,3,4,1.299,-0.355555556,-0.396296296,1,0,0,0.71,Obsidian_rect,5,0.71,1,5,0,5,0,1,,,,,,,,,,,,,
610cd5f2b38b2d1bffe55477,SCN,2024-06-24_16h15.45.834,LearnStrategy,2023.2.3,Win32,58.82352941,1,1,7,0.092592593,0.206481481,1,0,0,6.166,Obsidian_06,5,06,5,5,6.166,-0.34537037,-0.267592593,1,0,0,4.152,Andesite_rect,1,4.152,0,6,0,6,0,1,,,,,,,,,,,,,
610cd5f2b38b2d1bffe55477,SCN,2024-06-24_16h15.45.834,LearnStrategy,2023.2.3,Win32,58.82352941,1,1,8,0.083333333,0.226851852,1,0,0,1.184,Obsidian_06,5,06,5,5,1.184,-0.392592593,-0.405555556,1,0,0,1.109,Obsidian_rect,5,1.109,1,7,0,7,0,1,,,,,,,,,,,,,
610cd5f2b38b2d1bffe55477,SCN,2024-06-24_16h15.45.834,LearnStrategy,2023.2.3,Win32,58.82352941,1,1,9,0.085185185,0.057407407,1,0,0,5.483,Pegmatite_11,6,11,4,5,5.483,-0.186111111,-0.40462963,1,0,0,1.987,Pegmatite_rect,6,1.987,1,8,0,8,0,1,,,,,,,,,,,,,
610cd5f2b38b2d1bffe55477,SCN,2024-06-24_16h15.45.834,LearnStrategy,2023.2.3,Win32,58.82352941,1,1,10,-0.239814815,0.383333333,1,0,0,5.132,Pegmatite_08,6,08,6,3,5.132,-0.175925926,-0.411111111,1,0,0,1.638,Pegmatite_rect,6,1.638,1,9,0,9,0,1,,,,,,,,,,,,,
610cd5f2b38b2d1bffe55477,SCN,2024-06-24_16h15.45.834,LearnStrategy,2023.2.3,Win32,58.82352941,1,1,11,0.42037037,-0.274074074,1,0,0,2.949,Pegmatite_13,6,13,2,7,2.949,-0.042592593,-0.398148148,1,0,0,1.624,Pegmatite_rect,6,1.624,1,10,0,10,0,1,,,,,,,,,,,,,
610cd5f2b38b2d1bffe55477,SCN,2024-06-24_16h15.45.834,LearnStrategy,2023.2.3,Win32,58.82352941,1,1,12,-0.564814815,-0.073148148,1,0,0,4.198,Gabbro_03,4,03,3,1,4.198,-0.064814815,-0.383333333,1,0,0,3,Pegmatite_rect,6,3,0,11,0,11,0,1,,,,,,,,,,,,,
610cd5f2b38b2d1bffe55477,SCN,2024-06-24_16h15.45.834,LearnStrategy,2023.2.3,Win32,58.82352941,1,1,13,-0.587962963,-0.113888889,1,0,0,1.349,Gabbro_03,4,03,3,1,1.349,0.414814815,-0.241666667,1,0,0,2.124,Gabbro_rect,4,2.124,1,12,0,12,0,1,,,,,,,,,,,,,
610cd5f2b38b2d1bffe55477,SCN,2024-06-24_16h15.45.834,LearnStrategy,2023.2.3,Win32,58.82352941,1,1,14,-0.425,-0.221296296,1,0,0,1.149,Andesite_16,1,16,2,2,1.149,0.4,-0.253703704,1,0,0,0.876,Gabbro_rect,4,0.876,0,13,0,13,0,1,,,,,,,,,,,,,
610cd5f2b38b2d1bffe55477,SCN,2024-06-24_16h15.45.834,LearnStrategy,2023.2.3,Win32,58.82352941,1,1,15,0.537962963,0.390740741,1,0,0,6.2,Andesite_06,1,06,6,8,6.2,0.349074074,-0.260185185,1,0,0,2.288,Gabbro_rect,4,2.288,0,14,0,14,0,1,,,,,,,,,,,,,
610cd5f2b38b2d1bffe55477,SCN,2024-06-24_16h15.45.834,LearnStrategy,2023.2.3,Win32,58.82352941,1,1,16,-0.374074074,-0.268518519,1,0,0,0.916,Andesite_16,1,16,2,2,0.916,-0.349074074,-0.265740741,1,0,0,0.992,Andesite_rect,1,0.992,1,15,0,15,0,1,,,,,,,,,,,,,
610cd5f2b38b2d1bffe55477,SCN,2024-06-24_16h15.45.834,LearnStrategy,2023.2.3,Win32,58.82352941,1,2,1,,,,,,,,3,02,,,,,,,,,,,2,5.561,0,,,,,,-0.149074074,-0.258333333,1,0,0,5.561,Basalt_rect,0,0,0,0,1,
610cd5f2b38b2d1bffe55477,SCN,2024-06-24_16h15.45.834,LearnStrategy,2023.2.3,Win32,58.82352941,1,2,2,,,,,,,,5,07,,,,,,,,,,,5,1.594,1,,,,,,-0.374074074,-0.393518519,1,0,0,1.594,Obsidian_rect,1,0,1,0,1,
610cd5f2b38b2d1bffe55477,SCN,2024-06-24_16h15.45.834,LearnStrategy,2023.2.3,Win32,58.82352941,1,2,3,,,,,,,,1,11,,,,,,,,,,,7,1.859,0,,,,,,0.121296296,-0.409259259,1,0,0,1.859,Peridotite_rect,2,0,2,0,1,
610cd5f2b38b2d1bffe55477,SCN,2024-06-24_16h15.45.834,LearnStrategy,2023.2.3,Win32,58.82352941,1,2,4,,,,,,,,8,15,,,,,,,,,,,2,1.943,0,,,,,,-0.103703704,-0.268518519,1,0,0,1.943,Basalt_rect,3,0,3,0,1,
610cd5f2b38b2d1bffe55477,SCN,2024-06-24_16h15.45.834,LearnStrategy,2023.2.3,Win32,58.82352941,1,2,5,,,,,,,,5,09,,,,,,,,,,,5,1.126,1,,,,,,-0.413888889,-0.386111111,1,0,0,1.126,Obsidian_rect,4,0,4,0,1,
610cd5f2b38b2d1bffe55477,SCN,2024-06-24_16h15.45.834,LearnStrategy,2023.2.3,Win32,58.82352941,1,2,6,,,,,,,,7,08,,,,,,,,,,,6,3.444,0,,,,,,-0.134259259,-0.40462963,1,0,0,3.444,Pegmatite_rect,5,0,5,0,1,
610cd5f2b38b2d1bffe55477,SCN,2024-06-24_16h15.45.834,LearnStrategy,2023.2.3,Win32,58.82352941,1,2,7,,,,,,,,6,03,,,,,,,,,,,6,6.393,1,,,,,,-0.134259259,-0.40462963,1,0,0,6.393,Pegmatite_rect,6,0,6,0,1,
610cd5f2b38b2d1bffe55477,SCN,2024-06-24_16h15.45.834,LearnStrategy,2023.2.3,Win32,58.82352941,1,2,8,,,,,,,,8,16,,,,,,,,,,,2,1.443,0,,,,,,-0.140740741,-0.250925926,1,0,0,1.443,Basalt_rect,7,0,7,0,1,
610cd5f2b38b2d1bffe55477,SCN,2024-06-24_16h15.45.834,LearnStrategy,2023.2.3,Win32,58.82352941,1,2,9,,,,,,,,7,13,,,,,,,,,,,7,2.528,1,,,,,,0.086111111,-0.388888889,1,0,0,2.528,Peridotite_rect,8,0,8,0,1,
610cd5f2b38b2d1bffe55477,SCN,2024-06-24_16h15.45.834,LearnStrategy,2023.2.3,Win32,58.82352941,1,2,10,,,,,,,,4,12,,,,,,,,,,,4,3.292,1,,,,,,0.40462963,-0.257407407,1,0,0,3.292,Gabbro_rect,9,0,9,0,1,
610cd5f2b38b2d1bffe55477,SCN,2024-06-24_16h15.45.834,LearnStrategy,2023.2.3,Win32,58.82352941,1,2,11,,,,,,,,4,01,,,,,,,,,,,1,1.738,0,,,,,,-0.372222222,-0.233333333,1,0,0,1.738,Andesite_rect,10,0,10,0,1,
610cd5f2b38b2d1bffe55477,SCN,2024-06-24_16h15.45.834,LearnStrategy,2023.2.3,Win32,58.82352941,1,2,12,,,,,,,,3,15,,,,,,,,,,,4,2.477,0,,,,,,0.378703704,-0.263888889,1,0,0,2.477,Gabbro_rect,11,0,11,0,1,
610cd5f2b38b2d1bffe55477,SCN,2024-06-24_16h15.45.834,LearnStrategy,2023.2.3,Win32,58.82352941,1,2,13,,,,,,,,6,07,,,,,,,,,,,6,2.504,1,,,,,,-0.159259259,-0.406481481,1,0,0,2.504,Pegmatite_rect,12,0,12,0,1,
610cd5f2b38b2d1bffe55477,SCN,2024-06-24_16h15.45.834,LearnStrategy,2023.2.3,Win32,58.82352941,1,2,14,,,,,,,,1,03,,,,,,,,,,,3,1.627,0,,,,,,0.065740741,-0.268518519,1,0,0,1.627,Diorite_rect,13,0,13,0,1,
610cd5f2b38b2d1bffe55477,SCN,2024-06-24_16h15.45.834,LearnStrategy,2023.2.3,Win32,58.82352941,1,2,15,,,,,,,,2,04,,,,,,,,,,,7,2.1,0,,,,,,0.108333333,-0.393518519,1,0,0,2.1,Peridotite_rect,14,0,14,0,1,
610cd5f2b38b2d1bffe55477,SCN,2024-06-24_16h15.45.834,LearnStrategy,2023.2.3,Win32,58.82352941,1,2,16,,,,,,,,2,10,,,,,,,,,,,7,2.399,0,,,,,,0.108333333,-0.393518519,1,0,0,2.399,Peridotite_rect,15,0,15,0,1,
610cd5f2b38b2d1bffe55477,SCN,2024-06-24_16h15.45.834,LearnStrategy,2023.2.3,Win32,58.82352941,2,1,1,-0.071296296,-0.105555556,1,0,0,2.284,Obsidian_14,5,14,3,4,2.284,-0.380555556,-0.399074074,1,0,0,0.729,Obsidian_rect,5,0.729,1,0,0,0,0,1,,,,,,,,,,,,,
610cd5f2b38b2d1bffe55477,SCN,2024-06-24_16h15.45.834,LearnStrategy,2023.2.3,Win32,58.82352941,2,1,2,-0.230555556,0.382407407,1,0,0,2.983,Pegmatite_08,6,08,6,3,2.983,-0.20462963,-0.398148148,1,0,0,0.576,Pegmatite_rect,6,0.576,1,1,0,1,0,1,,,,,,,,,,,,,
610cd5f2b38b2d1bffe55477,SCN,2024-06-24_16h15.45.834,LearnStrategy,2023.2.3,Win32,58.82352941,2,1,3,0.075,0.087037037,1,0,0,0.983,Pegmatite_11,6,11,4,5,0.983,-0.212962963,-0.387962963,1,0,0,1.043,Pegmatite_rect,6,1.043,1,2,0,2,0,1,,,,,,,,,,,,,
610cd5f2b38b2d1bffe55477,SCN,2024-06-24_16h15.45.834,LearnStrategy,2023.2.3,Win32,58.82352941,2,1,4,-0.567592593,-0.140740741,1,0,0,4.383,Gabbro_03,4,03,3,1,4.383,0.427777778,-0.27037037,1,0,0,2.188,Gabbro_rect,4,2.188,1,3,0,3,0,1,,,,,,,,,,,,,
610cd5f2b38b2d1bffe55477,SCN,2024-06-24_16h15.45.834,LearnStrategy,2023.2.3,Win32,58.82352941,2,1,5,0.550925926,0.42037037,1,0,0,1.983,Andesite_06,1,06,6,8,1.983,0.369444444,-0.238888889,1,0,0,1.26,Gabbro_rect,4,1.26,0,4,0,4,0,1,,,,,,,,,,,,,
610cd5f2b38b2d1bffe55477,SCN,2024-06-24_16h15.45.834,LearnStrategy,2023.2.3,Win32,58.82352941,2,1,6,0.403703704,0.382407407,1,0,0,1.716,Peridotite_12,7,12,6,7,1.716,0.141666667,-0.414814815,1,0,0,1.541,Peridotite_rect,7,1.541,1,5,0,5,0,1,,,,,,,,,,,,,
610cd5f2b38b2d1bffe55477,SCN,2024-06-24_16h15.45.834,LearnStrategy,2023.2.3,Win32,58.82352941,2,1,7,-0.380555556,0.236111111,1,0,0,2.751,Peridotite_05,7,05,5,2,2.751,0.088888889,-0.398148148,1,0,0,1.771,Peridotite_rect,7,1.771,1,6,0,6,0,1,,,,,,,,,,,,,
610cd5f2b38b2d1bffe55477,SCN,2024-06-24_16h15.45.834,LearnStrategy,2023.2.3,Win32,58.82352941,2,1,8,0.063888889,-0.286111111,1,0,0,5,Peridotite_16,7,16,2,5,5,0.130555556,-0.400925926,1,0,0,0.922,Peridotite_rect,7,0.922,1,7,0,7,0,1,,,,,,,,,,,,,
610cd5f2b38b2d1bffe55477,SCN,2024-06-24_16h15.45.834,LearnStrategy,2023.2.3,Win32,58.82352941,2,1,9,0.246296296,0.234259259,1,0,0,2.049,Peridotite_15,7,15,5,6,2.049,0.086111111,-0.389814815,1,0,0,0.983,Peridotite_rect,7,0.983,1,8,0,8,0,1,,,,,,,,,,,,,
610cd5f2b38b2d1bffe55477,SCN,2024-06-24_16h15.45.834,LearnStrategy,2023.2.3,Win32,58.82352941,2,1,10,0.537962963,0.248148148,1,0,0,3.8,Peridotite_14,7,14,5,8,3.8,0.101851852,-0.392592593,1,0,0,0.784,Peridotite_rect,7,0.784,1,9,0,9,0,1,,,,,,,,,,,,,
610cd5f2b38b2d1bffe55477,SCN,2024-06-24_16h15.45.834,LearnStrategy,2023.2.3,Win32,58.82352941,2,1,11,0.422222222,-0.261111111,1,0,0,2.067,Pegmatite_13,6,13,2,7,2.067,-0.117592593,-0.396296296,1,0,0,1.936,Pegmatite_rect,6,1.936,1,10,0,10,0,1,,,,,,,,,,,,,
610cd5f2b38b2d1bffe55477,SCN,2024-06-24_16h15.45.834,LearnStrategy,2023.2.3,Win32,58.82352941,2,1,12,-0.39537037,-0.051851852,1,0,0,4.317,Pegmatite_16,6,16,3,2,4.317,-0.197222222,-0.243518519,1,0,0,1.704,Basalt_rect,2,1.704,0,11,0,11,0,1,,,,,,,,,,,,,
610cd5f2b38b2d1bffe55477,SCN,2024-06-24_16h15.45.834,LearnStrategy,2023.2.3,Win32,58.82352941,2,1,13,0.247222222,0.25,1,0,0,5.734,Peridotite_15,7,15,5,6,5.734,0.098148148,-0.414814815,1,0,0,1.854,Peridotite_rect,7,1.854,1,12,0,12,0,1,,,,,,,,,,,,,
610cd5f2b38b2d1bffe55477,SCN,2024-06-24_16h15.45.834,LearnStrategy,2023.2.3,Win32,58.82352941,2,1,14,0.087037037,-0.288888889,1,0,0,1.567,Peridotite_16,7,16,2,5,1.567,0.089814815,-0.392592593,1,0,0,0.693,Peridotite_rect,7,0.693,1,13,0,13,0,1,,,,,,,,,,,,,
610cd5f2b38b2d1bffe55477,SCN,2024-06-24_16h15.45.834,LearnStrategy,2023.2.3,Win32,58.82352941,2,1,15,-0.55,-0.265740741,1,0,0,1.332,Diorite_12,3,12,2,1,1.332,-0.210185185,-0.266666667,1,0,0,1.071,Basalt_rect,2,1.071,0,14,0,14,0,1,,,,,,,,,,,,,
610cd5f2b38b2d1bffe55477,SCN,2024-06-24_16h15.45.834,LearnStrategy,2023.2.3,Win32,58.82352941,2,1,16,-0.098148148,-0.405555556,1,0,0,1.549,Pegmatite_09,6,09,1,4,1.549,-0.098148148,-0.405555556,1,0,0,0.827,Pegmatite_rect,6,0.827,1,15,0,15,0,1,,,,,,,,,,,,,
610cd5f2b38b2d1bffe55477,SCN,2024-06-24_16h15.45.834,LearnStrategy,2023.2.3,Win32,58.82352941,2,2,1,,,,,,,,8,03,,,,,,,,,,,2,1.792,0,,,,,,-0.144444444,-0.262962963,1,0,0,1.792,Basalt_rect,0,0,0,0,1,
610cd5f2b38b2d1bffe55477,SCN,2024-06-24_16h15.45.834,LearnStrategy,2023.2.3,Win32,58.82352941,2,2,2,,,,,,,,3,08,,,,,,,,,,,8,4.643,0,,,,,,0.322222222,-0.410185185,1,0,0,4.643,Pumice_rect,1,0,1,0,1,
610cd5f2b38b2d1bffe55477,SCN,2024-06-24_16h15.45.834,LearnStrategy,2023.2.3,Win32,58.82352941,2,2,3,,,,,,,,4,15,,,,,,,,,,,2,4.489,0,,,,,,-0.092592593,-0.237037037,1,0,0,4.489,Basalt_rect,2,0,2,0,1,
610cd5f2b38b2d1bffe55477,SCN,2024-06-24_16h15.45.834,LearnStrategy,2023.2.3,Win32,58.82352941,2,2,4,,,,,,,,3,13,,,,,,,,,,,6,2.103,0,,,,,,-0.159259259,-0.403703704,1,0,0,2.103,Pegmatite_rect,3,0,3,0,1,
610cd5f2b38b2d1bffe55477,SCN,2024-06-24_16h15.45.834,LearnStrategy,2023.2.3,Win32,58.82352941,2,2,5,,,,,,,,7,02,,,,,,,,,,,7,1.726,1,,,,,,0.087037037,-0.406481481,1,0,0,1.726,Peridotite_rect,4,0,4,0,1,
610cd5f2b38b2d1bffe55477,SCN,2024-06-24_16h15.45.834,LearnStrategy,2023.2.3,Win32,58.82352941,2,2,6,,,,,,,,1,02,,,,,,,,,,,6,2.543,0,,,,,,-0.078703704,-0.398148148,1,0,0,2.543,Pegmatite_rect,5,0,5,0,1,
610cd5f2b38b2d1bffe55477,SCN,2024-06-24_16h15.45.834,LearnStrategy,2023.2.3,Win32,58.82352941,2,2,7,,,,,,,,2,14,,,,,,,,,,,2,2.061,1,,,,,,-0.103703704,-0.25462963,1,0,0,2.061,Basalt_rect,6,0,6,0,1,
610cd5f2b38b2d1bffe55477,SCN,2024-06-24_16h15.45.834,LearnStrategy,2023.2.3,Win32,58.82352941,2,2,8,,,,,,,,5,05,,,,,,,,,,,5,1.842,1,,,,,,-0.346296296,-0.412962963,1,0,0,1.842,Obsidian_rect,7,0,7,0,1,
610cd5f2b38b2d1bffe55477,SCN,2024-06-24_16h15.45.834,LearnStrategy,2023.2.3,Win32,58.82352941,2,2,9,,,,,,,,1,14,,,,,,,,,,,4,3.639,0,,,,,,0.386111111,-0.265740741,1,0,0,3.639,Gabbro_rect,8,0,8,0,1,
610cd5f2b38b2d1bffe55477,SCN,2024-06-24_16h15.45.834,LearnStrategy,2023.2.3,Win32,58.82352941,2,2,10,,,,,,,,5,08,,,,,,,,,,,5,1.088,1,,,,,,-0.388888889,-0.398148148,1,0,0,1.088,Obsidian_rect,9,0,9,0,1,
610cd5f2b38b2d1bffe55477,SCN,2024-06-24_16h15.45.834,LearnStrategy,2023.2.3,Win32,58.82352941,2,2,11,,,,,,,,6,06,,,,,,,,,,,6,2.36,1,,,,,,-0.14537037,-0.411111111,1,0,0,2.36,Pegmatite_rect,10,0,10,0,1,
610cd5f2b38b2d1bffe55477,SCN,2024-06-24_16h15.45.834,LearnStrategy,2023.2.3,Win32,58.82352941,2,2,12,,,,,,,,4,13,,,,,,,,,,,2,1.803,0,,,,,,-0.090740741,-0.253703704,1,0,0,1.803,Basalt_rect,11,0,11,0,1,
610cd5f2b38b2d1bffe55477,SCN,2024-06-24_16h15.45.834,LearnStrategy,2023.2.3,Win32,58.82352941,2,2,13,,,,,,,,8,04,,,,,,,,,,,3,1.244,0,,,,,,0.090740741,-0.241666667,1,0,0,1.244,Diorite_rect,12,0,12,0,1,
610cd5f2b38b2d1bffe55477,SCN,2024-06-24_16h15.45.834,LearnStrategy,2023.2.3,Win32,58.82352941,2,2,14,,,,,,,,6,05,,,,,,,,,,,6,1.559,1,,,,,,-0.134259259,-0.403703704,1,0,0,1.559,Pegmatite_rect,13,0,13,0,1,
610cd5f2b38b2d1bffe55477,SCN,2024-06-24_16h15.45.834,LearnStrategy,2023.2.3,Win32,58.82352941,2,2,15,,,,,,,,7,06,,,,,,,,,,,7,1.36,1,,,,,,0.113888889,-0.383333333,1,0,0,1.36,Peridotite_rect,14,0,14,0,1,
610cd5f2b38b2d1bffe55477,SCN,2024-06-24_16h15.45.834,LearnStrategy,2023.2.3,Win32,58.82352941,2,2,16,,,,,,,,2,12,,,,,,,,,,,8,5.559,0,,,,,,0.332407407,-0.386111111,1,0,0,5.559,Pumice_rect,15,0,15,0,1,
610cd5f2b38b2d1bffe55477,SCN,2024-06-24_16h15.45.834,LearnStrategy,2023.2.3,Win32,58.82352941,3,1,1,0.250925926,0.231481481,1,0,0,1.817,Peridotite_15,7,15,5,6,1.817,0.063888889,-0.405555556,1,0,0,1.626,Peridotite_rect,7,1.626,1,0,0,0,0,1,,,,,,,,,,,,,
610cd5f2b38b2d1bffe55477,SCN,2024-06-24_16h15.45.834,LearnStrategy,2023.2.3,Win32,58.82352941,3,1,2,0.363888889,-0.252777778,1,0,0,1.201,Pegmatite_13,6,13,2,7,1.201,-0.210185185,-0.389814815,1,0,0,0.589,Pegmatite_rect,6,0.589,1,1,0,1,0,1,,,,,,,,,,,,,
610cd5f2b38b2d1bffe55477,SCN,2024-06-24_16h15.45.834,LearnStrategy,2023.2.3,Win32,58.82352941,3,1,3,-0.361111111,-0.108333333,1,0,0,1.417,Pegmatite_16,6,16,3,2,1.417,-0.185185185,-0.398148148,1,0,0,0.473,Pegmatite_rect,6,0.473,1,2,0,2,0,1,,,,,,,,,,,,,
610cd5f2b38b2d1bffe55477,SCN,2024-06-24_16h15.45.834,LearnStrategy,2023.2.3,Win32,58.82352941,3,1,4,-0.056481481,0.074074074,1,0,0,0.983,Pegmatite_12,6,12,4,4,0.983,0.375,-0.380555556,1,0,0,2.243,Pumice_rect,8,2.243,0,3,0,3,0,1,,,,,,,,,,,,,
610cd5f2b38b2d1bffe55477,SCN,2024-06-24_16h15.45.834,LearnStrategy,2023.2.3,Win32,58.82352941,3,1,5,-0.227777778,0.085185185,1,0,0,1.117,Diorite_14,3,14,4,3,1.117,-0.210185185,-0.378703704,1,0,0,1.138,Pegmatite_rect,6,1.138,0,4,0,4,0,1,,,,,,,,,,,,,
610cd5f2b38b2d1bffe55477,SCN,2024-06-24_16h15.45.834,LearnStrategy,2023.2.3,Win32,58.82352941,3,1,6,-0.514814815,0.087037037,1,0,0,2.183,Pumice_02,8,02,4,1,2.183,-0.087037037,-0.237962963,1,0,0,1.477,Basalt_rect,2,1.477,0,5,0,5,0,1,,,,,,,,,,,,,
610cd5f2b38b2d1bffe55477,SCN,2024-06-24_16h15.45.834,LearnStrategy,2023.2.3,Win32,58.82352941,3,1,7,-0.560185185,0.227777778,1,0,0,0.75,Diorite_09,3,09,5,1,0.75,0.29537037,-0.394444444,1,0,0,1.898,Pumice_rect,8,1.898,0,6,0,6,0,1,,,,,,,,,,,,,
610cd5f2b38b2d1bffe55477,SCN,2024-06-24_16h15.45.834,LearnStrategy,2023.2.3,Win32,58.82352941,3,1,8,-0.242592593,0.097222222,1,0,0,0.732,Diorite_14,3,14,4,3,0.732,0.118518519,-0.234259259,1,0,0,1.975,Diorite_rect,3,1.975,1,7,0,7,0,1,,,,,,,,,,,,,
610cd5f2b38b2d1bffe55477,SCN,2024-06-24_16h15.45.834,LearnStrategy,2023.2.3,Win32,58.82352941,3,1,9,-0.517592593,0.25,1,0,0,0.716,Diorite_09,3,09,5,1,0.716,0.140740741,-0.267592593,1,0,0,0.895,Diorite_rect,3,0.895,1,8,0,8,0,1,,,,,,,,,,,,,
610cd5f2b38b2d1bffe55477,SCN,2024-06-24_16h15.45.834,LearnStrategy,2023.2.3,Win32,58.82352941,3,1,10,-0.376851852,0.227777778,1,0,0,0.9,Peridotite_05,7,05,5,2,0.9,0.068518519,-0.415740741,1,0,0,1.06,Peridotite_rect,7,1.06,1,9,0,9,0,1,,,,,,,,,,,,,
610cd5f2b38b2d1bffe55477,SCN,2024-06-24_16h15.45.834,LearnStrategy,2023.2.3,Win32,58.82352941,3,1,11,-0.237037037,0.243518519,1,0,0,0.649,Pumice_10,8,10,5,3,0.649,-0.153703704,-0.256481481,1,0,0,0.977,Basalt_rect,2,0.977,0,10,0,10,0,1,,,,,,,,,,,,,
610cd5f2b38b2d1bffe55477,SCN,2024-06-24_16h15.45.834,LearnStrategy,2023.2.3,Win32,58.82352941,3,1,12,-0.571296296,0.271296296,1,0,0,0.684,Diorite_09,3,09,5,1,0.684,0.364814815,-0.415740741,1,0,0,1.91,Pumice_rect,8,1.91,0,11,0,11,0,1,,,,,,,,,,,,,
610cd5f2b38b2d1bffe55477,SCN,2024-06-24_16h15.45.834,LearnStrategy,2023.2.3,Win32,58.82352941,3,1,13,-0.246296296,0.233333333,1,0,0,0.532,Pumice_10,8,10,5,3,0.532,0.158333333,-0.258333333,1,0,0,0.975,Diorite_rect,3,0.975,0,12,0,12,0,1,,,,,,,,,,,,,
610cd5f2b38b2d1bffe55477,SCN,2024-06-24_16h15.45.834,LearnStrategy,2023.2.3,Win32,58.82352941,3,1,14,-0.562962963,0.266666667,1,0,0,0.716,Diorite_09,3,09,5,1,0.716,0.148148148,-0.243518519,1,0,0,1.661,Diorite_rect,3,1.661,1,13,0,13,0,1,,,,,,,,,,,,,
610cd5f2b38b2d1bffe55477,SCN,2024-06-24_16h15.45.834,LearnStrategy,2023.2.3,Win32,58.82352941,3,1,15,-0.058333333,0.236111111,1,0,0,0.849,Pumice_13,8,13,5,4,0.849,-0.037962963,-0.262037037,1,0,0,0.726,Basalt_rect,2,0.726,0,14,0,14,0,1,,,,,,,,,,,,,
610cd5f2b38b2d1bffe55477,SCN,2024-06-24_16h15.45.834,LearnStrategy,2023.2.3,Win32,58.82352941,3,1,16,-0.393518519,0.27962963,1,0,0,0.582,Peridotite_05,7,05,5,2,0.582,0.081481481,-0.387037037,1,0,0,1.043,Peridotite_rect,7,1.043,1,15,0,15,0,1,,,,,,,,,,,,,
610cd5f2b38b2d1bffe55477,SCN,2024-06-24_16h15.45.834,LearnStrategy,2023.2.3,Win32,58.82352941,3,2,1,,,,,,,,5,04,,,,,,,,,,,5,1.009,1,,,,,,-0.392592593,-0.409259259,1,0,0,1.009,Obsidian_rect,0,0,0,0,1,
610cd5f2b38b2d1bffe55477,SCN,2024-06-24_16h15.45.834,LearnStrategy,2023.2.3,Win32,58.82352941,3,2,2,,,,,,,,3,07,,,,,,,,,,,3,5.96,1,,,,,,0.100925926,-0.257407407,1,0,0,5.96,Diorite_rect,1,0,1,0,1,
610cd5f2b38b2d1bffe55477,SCN,2024-06-24_16h15.45.834,LearnStrategy,2023.2.3,Win32,58.82352941,3,2,3,,,,,,,,7,07,,,,,,,,,,,7,1.27,1,,,,,,0.055555556,-0.389814815,1,0,0,1.27,Peridotite_rect,2,0,2,0,1,
610cd5f2b38b2d1bffe55477,SCN,2024-06-24_16h15.45.834,LearnStrategy,2023.2.3,Win32,58.82352941,3,2,4,,,,,,,,4,16,,,,,,,,,,,2,4.127,0,,,,,,-0.146296296,-0.252777778,1,0,0,4.127,Basalt_rect,3,0,3,0,1,
610cd5f2b38b2d1bffe55477,SCN,2024-06-24_16h15.45.834,LearnStrategy,2023.2.3,Win32,58.82352941,3,2,5,,,,,,,,1,09,,,,,,,,,,,4,2.77,0,,,,,,0.357407407,-0.237037037,1,0,0,2.77,Gabbro_rect,4,0,4,0,1,
610cd5f2b38b2d1bffe55477,SCN,2024-06-24_16h15.45.834,LearnStrategy,2023.2.3,Win32,58.82352941,3,2,6,,,,,,,,4,09,,,,,,,,,,,5,1.61,0,,,,,,-0.425,-0.406481481,1,0,0,1.61,Obsidian_rect,5,0,5,0,1,
610cd5f2b38b2d1bffe55477,SCN,2024-06-24_16h15.45.834,LearnStrategy,2023.2.3,Win32,58.82352941,3,2,7,,,,,,,,8,06,,,,,,,,,,,8,2.194,1,,,,,,0.357407407,-0.405555556,1,0,0,2.194,Pumice_rect,6,0,6,0,1,
610cd5f2b38b2d1bffe55477,SCN,2024-06-24_16h15.45.834,LearnStrategy,2023.2.3,Win32,58.82352941,3,2,8,,,,,,,,8,09,,,,,,,,,,,8,1.121,1,,,,,,0.363888889,-0.403703704,1,0,0,1.121,Pumice_rect,7,0,7,0,1,
610cd5f2b38b2d1bffe55477,SCN,2024-06-24_16h15.45.834,LearnStrategy,2023.2.3,Win32,58.82352941,3,2,9,,,,,,,,2,09,,,,,,,,,,,1,1.757,0,,,,,,-0.366666667,-0.231481481,1,0,0,1.757,Andesite_rect,8,0,8,0,1,
610cd5f2b38b2d1bffe55477,SCN,2024-06-24_16h15.45.834,LearnStrategy,2023.2.3,Win32,58.82352941,3,2,10,,,,,,,,1,10,,,,,,,,,,,6,2.761,0,,,,,,-0.199074074,-0.399074074,1,0,0,2.761,Pegmatite_rect,9,0,9,0,1,
610cd5f2b38b2d1bffe55477,SCN,2024-06-24_16h15.45.834,LearnStrategy,2023.2.3,Win32,58.82352941,3,2,11,,,,,,,,6,10,,,,,,,,,,,7,3.294,0,,,,,,0.096296296,-0.382407407,1,0,0,3.294,Peridotite_rect,10,0,10,0,1,
610cd5f2b38b2d1bffe55477,SCN,2024-06-24_16h15.45.834,LearnStrategy,2023.2.3,Win32,58.82352941,3,2,12,,,,,,,,3,16,,,,,,,,,,,3,2.038,1,,,,,,0.109259259,-0.253703704,1,0,0,2.038,Diorite_rect,11,0,11,0,1,
610cd5f2b38b2d1bffe55477,SCN,2024-06-24_16h15.45.834,LearnStrategy,2023.2.3,Win32,58.82352941,3,2,13,,,,,,,,5,11,,,,,,,,,,,5,1.244,1,,,,,,-0.335185185,-0.386111111,1,0,0,1.244,Obsidian_rect,12,0,12,0,1,
610cd5f2b38b2d1bffe55477,SCN,2024-06-24_16h15.45.834,LearnStrategy,2023.2.3,Win32,58.82352941,3,2,14,,,,,,,,7,10,,,,,,,,,,,7,1.045,1,,,,,,0.092592593,-0.390740741,1,0,0,1.045,Peridotite_rect,13,0,13,0,1,
610cd5f2b38b2d1bffe55477,SCN,2024-06-24_16h15.45.834,LearnStrategy,2023.2.3,Win32,58.82352941,3,2,15,,,,,,,,6,15,,,,,,,,,,,6,1.211,1,,,,,,-0.121296296,-0.400925926,1,0,0,1.211,Pegmatite_rect,14,0,14,0,1,
610cd5f2b38b2d1bffe55477,SCN,2024-06-24_16h15.45.834,LearnStrategy,2023.2.3,Win32,58.82352941,3,2,16,,,,,,,,2,06,,,,,,,,,,,4,3.093,0,,,,,,0.327777778,-0.262037037,1,0,0,3.093,Gabbro_rect,15,0,15,0,1,
610cd5f2b38b2d1bffe55477,SCN,2024-06-24_16h15.45.834,LearnStrategy,2023.2.3,Win32,58.82352941,4,1,1,-0.224074074,0.216666667,1,0,0,0.949,Pumice_10,8,10,5,3,0.949,0.339814815,-0.398148148,1,0,0,1.926,Pumice_rect,8,1.926,1,0,0,0,0,1,,,,,,,,,,,,,
610cd5f2b38b2d1bffe55477,SCN,2024-06-24_16h15.45.834,LearnStrategy,2023.2.3,Win32,58.82352941,4,1,2,-0.557407407,0.25,1,0,0,0.982,Diorite_09,3,09,5,1,0.982,0.150925926,-0.230555556,1,0,0,0.81,Diorite_rect,3,0.81,1,1,0,1,0,1,,,,,,,,,,,,,
610cd5f2b38b2d1bffe55477,SCN,2024-06-24_16h15.45.834,LearnStrategy,2023.2.3,Win32,58.82352941,4,1,3,-0.112962963,0.241666667,1,0,0,1.35,Pumice_13,8,13,5,4,1.35,0.149074074,-0.261111111,1,0,0,1.626,Diorite_rect,3,1.626,0,2,0,2,0,1,,,,,,,,,,,,,
610cd5f2b38b2d1bffe55477,SCN,2024-06-24_16h15.45.834,LearnStrategy,2023.2.3,Win32,58.82352941,4,1,4,-0.233333333,0.255555556,1,0,0,0.549,Pumice_10,8,10,5,3,0.549,0.416666667,-0.389814815,1,0,0,0.525,Pumice_rect,8,0.525,1,3,0,3,0,1,,,,,,,,,,,,,
610cd5f2b38b2d1bffe55477,SCN,2024-06-24_16h15.45.834,LearnStrategy,2023.2.3,Win32,58.82352941,4,1,5,-0.078703704,0.22037037,1,0,0,0.483,Pumice_13,8,13,5,4,0.483,0.340740741,-0.380555556,1,0,0,1.31,Pumice_rect,8,1.31,1,4,0,4,0,1,,,,,,,,,,,,,
610cd5f2b38b2d1bffe55477,SCN,2024-06-24_16h15.45.834,LearnStrategy,2023.2.3,Win32,58.82352941,4,1,6,-0.211111111,0.080555556,1,0,0,3.3,Diorite_14,3,14,4,3,3.3,0.144444444,-0.267592593,1,0,0,1.121,Diorite_rect,3,1.121,1,5,0,5,0,1,,,,,,,,,,,,,
610cd5f2b38b2d1bffe55477,SCN,2024-06-24_16h15.45.834,LearnStrategy,2023.2.3,Win32,58.82352941,4,1,7,-0.55,0.086111111,1,0,0,1.442,Pumice_02,8,02,4,1,1.442,0.302777778,-0.385185185,1,0,0,2.176,Pumice_rect,8,2.176,1,6,0,6,0,1,,,,,,,,,,,,,
610cd5f2b38b2d1bffe55477,SCN,2024-06-24_16h15.45.834,LearnStrategy,2023.2.3,Win32,58.82352941,4,1,8,0.207407407,0.233333333,1,0,0,2.266,Peridotite_15,7,15,5,6,2.266,0.094444444,-0.412037037,1,0,0,0.681,Peridotite_rect,7,0.681,1,7,0,7,0,1,,,,,,,,,,,,,
610cd5f2b38b2d1bffe55477,SCN,2024-06-24_16h15.45.834,LearnStrategy,2023.2.3,Win32,58.82352941,4,1,9,0.350925926,0.218518519,1,0,0,0.666,Andesite_04,1,04,5,7,0.666,-0.231481481,-0.244444444,1,0,0,1.377,Basalt_rect,2,1.377,0,8,0,8,0,1,,,,,,,,,,,,,
610cd5f2b38b2d1bffe55477,SCN,2024-06-24_16h15.45.834,LearnStrategy,2023.2.3,Win32,58.82352941,4,1,10,0.513888889,0.237037037,1,0,0,1.4,Peridotite_14,7,14,5,8,1.4,0.093518519,-0.400925926,1,0,0,0.91,Peridotite_rect,7,0.91,1,9,0,9,0,1,,,,,,,,,,,,,
610cd5f2b38b2d1bffe55477,SCN,2024-06-24_16h15.45.834,LearnStrategy,2023.2.3,Win32,58.82352941,4,1,11,0.525,0.084259259,1,0,0,2.883,Diorite_10,3,10,4,8,2.883,0.313888889,-0.231481481,1,0,0,1.722,Gabbro_rect,4,1.722,0,10,0,10,0,1,,,,,,,,,,,,,
610cd5f2b38b2d1bffe55477,SCN,2024-06-24_16h15.45.834,LearnStrategy,2023.2.3,Win32,58.82352941,4,1,12,0.352777778,0.258333333,1,0,0,1.166,Andesite_04,1,04,5,7,1.166,0.09537037,-0.232407407,1,0,0,1.06,Diorite_rect,3,1.06,0,11,0,11,0,1,,,,,,,,,,,,,
610cd5f2b38b2d1bffe55477,SCN,2024-06-24_16h15.45.834,LearnStrategy,2023.2.3,Win32,58.82352941,4,1,13,0.398148148,0.057407407,1,0,0,1.6,Gabbro_11,4,11,4,7,1.6,0.296296296,-0.240740741,1,0,0,0.777,Gabbro_rect,4,0.777,1,12,0,12,0,1,,,,,,,,,,,,,
610cd5f2b38b2d1bffe55477,SCN,2024-06-24_16h15.45.834,LearnStrategy,2023.2.3,Win32,58.82352941,4,1,14,0.544444444,0.408333333,1,0,0,0.816,Andesite_06,1,06,6,8,0.816,0.318518519,-0.24537037,1,0,0,1.192,Gabbro_rect,4,1.192,0,13,0,13,0,1,,,,,,,,,,,,,
610cd5f2b38b2d1bffe55477,SCN,2024-06-24_16h15.45.834,LearnStrategy,2023.2.3,Win32,58.82352941,4,1,15,0.224074074,0.114814815,1,0,0,0.899,Andesite_05,1,05,4,6,0.899,-0.316666667,-0.242592593,1,0,0,1.366,Andesite_rect,1,1.366,1,14,0,14,0,1,,,,,,,,,,,,,
610cd5f2b38b2d1bffe55477,SCN,2024-06-24_16h15.45.834,LearnStrategy,2023.2.3,Win32,58.82352941,4,1,16,0.267592593,0.383333333,1,0,0,2.787,Pumice_05,8,05,6,6,2.787,0.362962963,-0.399074074,1,0,0,1.175,Pumice_rect,8,1.175,1,15,0,15,0,1,,,,,,,,,,,,,
610cd5f2b38b2d1bffe55477,SCN,2024-06-24_16h15.45.834,LearnStrategy,2023.2.3,Win32,58.82352941,4,2,1,,,,,,,,7,02,,,,,,,,,,,7,1.11,1,,,,,,0.082407407,-0.387037037,1,0,0,1.11,Peridotite_rect,0,0,0,0,1,
610cd5f2b38b2d1bffe55477,SCN,2024-06-24_16h15.45.834,LearnStrategy,2023.2.3,Win32,58.82352941,4,2,2,,,,,,,,1,03,,,,,,,,,,,3,3.211,0,,,,,,0.092592593,-0.238888889,1,0,0,3.211,Diorite_rect,1,0,1,0,1,
610cd5f2b38b2d1bffe55477,SCN,2024-06-24_16h15.45.834,LearnStrategy,2023.2.3,Win32,58.82352941,4,2,3,,,,,,,,3,15,,,,,,,,,,,3,3.598,1,,,,,,0.092592593,-0.260185185,1,0,0,3.598,Diorite_rect,2,0,2,0,1,
610cd5f2b38b2d1bffe55477,SCN,2024-06-24_16h15.45.834,LearnStrategy,2023.2.3,Win32,58.82352941,4,2,4,,,,,,,,8,16,,,,,,,,,,,3,6.738,0,,,,,,0.087962963,-0.262037037,1,0,0,6.738,Diorite_rect,3,0,3,0,1,
610cd5f2b38b2d1bffe55477,SCN,2024-06-24_16h15.45.834,LearnStrategy,2023.2.3,Win32,58.82352941,4,2,5,,,,,,,,5,08,,,,,,,,,,,5,0.938,1,,,,,,-0.331481481,-0.408333333,1,0,0,0.938,Obsidian_rect,4,0,4,0,1,
610cd5f2b38b2d1bffe55477,SCN,2024-06-24_16h15.45.834,LearnStrategy,2023.2.3,Win32,58.82352941,4,2,6,,,,,,,,4,12,,,,,,,,,,,4,3.563,1,,,,,,0.336111111,-0.261111111,1,0,0,3.563,Gabbro_rect,5,0,5,0,1,
610cd5f2b38b2d1bffe55477,SCN,2024-06-24_16h15.45.834,LearnStrategy,2023.2.3,Win32,58.82352941,4,2,7,,,,,,,,2,09,,,,,,,,,,,4,0.939,0,,,,,,0.336111111,-0.261111111,1,0,0,0.939,Gabbro_rect,6,0,6,0,1,
610cd5f2b38b2d1bffe55477,SCN,2024-06-24_16h15.45.834,LearnStrategy,2023.2.3,Win32,58.82352941,4,2,8,,,,,,,,2,14,,,,,,,,,,,3,2.076,0,,,,,,0.117592593,-0.260185185,1,0,0,2.076,Diorite_rect,7,0,7,0,1,
610cd5f2b38b2d1bffe55477,SCN,2024-06-24_16h15.45.834,LearnStrategy,2023.2.3,Win32,58.82352941,4,2,9,,,,,,,,4,13,,,,,,,,,,,8,2.227,0,,,,,,0.394444444,-0.403703704,1,0,0,2.227,Pumice_rect,8,0,8,0,1,
610cd5f2b38b2d1bffe55477,SCN,2024-06-24_16h15.45.834,LearnStrategy,2023.2.3,Win32,58.82352941,4,2,10,,,,,,,,8,03,,,,,,,,,,,8,3.105,1,,,,,,0.35,-0.385185185,1,0,0,3.105,Pumice_rect,9,0,9,0,1,
610cd5f2b38b2d1bffe55477,SCN,2024-06-24_16h15.45.834,LearnStrategy,2023.2.3,Win32,58.82352941,4,2,11,,,,,,,,1,10,,,,,,,,,,,3,4.953,0,,,,,,0.112962963,-0.258333333,1,0,0,4.953,Diorite_rect,10,0,10,0,1,
610cd5f2b38b2d1bffe55477,SCN,2024-06-24_16h15.45.834,LearnStrategy,2023.2.3,Win32,58.82352941,4,2,12,,,,,,,,6,10,,,,,,,,,,,7,1.422,0,,,,,,0.066666667,-0.387962963,1,0,0,1.422,Peridotite_rect,11,0,11,0,1,
610cd5f2b38b2d1bffe55477,SCN,2024-06-24_16h15.45.834,LearnStrategy,2023.2.3,Win32,58.82352941,4,2,13,,,,,,,,6,03,,,,,,,,,,,6,3.076,1,,,,,,-0.139814815,-0.406481481,1,0,0,3.076,Pegmatite_rect,12,0,12,0,1,
610cd5f2b38b2d1bffe55477,SCN,2024-06-24_16h15.45.834,LearnStrategy,2023.2.3,Win32,58.82352941,4,2,14,,,,,,,,7,13,,,,,,,,,,,7,1.171,1,,,,,,0.134259259,-0.406481481,1,0,0,1.171,Peridotite_rect,13,0,13,0,1,
610cd5f2b38b2d1bffe55477,SCN,2024-06-24_16h15.45.834,LearnStrategy,2023.2.3,Win32,58.82352941,4,2,15,,,,,,,,3,02,,,,,,,,,,,3,4.36,1,,,,,,0.192592593,-0.25,1,0,0,4.36,Diorite_rect,14,0,14,0,1,
610cd5f2b38b2d1bffe55477,SCN,2024-06-24_16h15.45.834,LearnStrategy,2023.2.3,Win32,58.82352941,4,2,16,,,,,,,,5,05,,,,,,,,,,,5,1.437,1,,,,,,-0.444444444,-0.399074074,1,0,0,1.437,Obsidian_rect,15,0,15,0,1,
610cd5f2b38b2d1bffe55477,SCN,2024-06-24_16h15.45.834,LearnStrategy,2023.2.3,Win32,58.82352941,5,1,1,-0.196296296,0.081481481,1,0,0,1.2,Diorite_14,3,14,4,3,1.2,0.113888889,-0.253703704,1,0,0,1.61,Diorite_rect,3,1.61,1,0,0,0,0,1,,,,,,,,,,,,,
610cd5f2b38b2d1bffe55477,SCN,2024-06-24_16h15.45.834,LearnStrategy,2023.2.3,Win32,58.82352941,5,1,2,0.257407407,0.361111111,1,0,0,3.399,Pumice_05,8,05,6,6,3.399,0.325,-0.381481481,1,0,0,0.888,Pumice_rect,8,0.888,1,1,0,1,0,1,,,,,,,,,,,,,
610cd5f2b38b2d1bffe55477,SCN,2024-06-24_16h15.45.834,LearnStrategy,2023.2.3,Win32,58.82352941,5,1,3,-0.096296296,0.221296296,1,0,0,0.881,Pumice_13,8,13,5,4,0.881,0.419444444,-0.408333333,1,0,0,0.582,Pumice_rect,8,0.582,1,2,0,2,0,1,,,,,,,,,,,,,
610cd5f2b38b2d1bffe55477,SCN,2024-06-24_16h15.45.834,LearnStrategy,2023.2.3,Win32,58.82352941,5,1,4,-0.226851852,0.221296296,1,0,0,0.583,Pumice_10,8,10,5,3,0.583,0.456481481,-0.40462963,1,0,0,0.644,Pumice_rect,8,0.644,1,3,0,3,0,1,,,,,,,,,,,,,
610cd5f2b38b2d1bffe55477,SCN,2024-06-24_16h15.45.834,LearnStrategy,2023.2.3,Win32,58.82352941,5,1,5,0.55462963,0.072222222,1,0,0,1.499,Diorite_10,3,10,4,8,1.499,0.143518519,-0.249074074,1,0,0,3.627,Diorite_rect,3,3.627,1,4,0,4,0,1,,,,,,,,,,,,,
610cd5f2b38b2d1bffe55477,SCN,2024-06-24_16h15.45.834,LearnStrategy,2023.2.3,Win32,58.82352941,5,1,6,0.076851852,0.357407407,1,0,0,1.716,Diorite_06,3,06,6,5,1.716,0.161111111,-0.265740741,1,0,0,1.31,Diorite_rect,3,1.31,1,5,0,5,0,1,,,,,,,,,,,,,
610cd5f2b38b2d1bffe55477,SCN,2024-06-24_16h15.45.834,LearnStrategy,2023.2.3,Win32,58.82352941,5,1,7,0.377777778,0.405555556,1,0,0,1.065,Peridotite_12,7,12,6,7,1.065,0.061111111,-0.407407407,1,0,0,0.893,Peridotite_rect,7,0.893,1,6,0,6,0,1,,,,,,,,,,,,,
610cd5f2b38b2d1bffe55477,SCN,2024-06-24_16h15.45.834,LearnStrategy,2023.2.3,Win32,58.82352941,5,1,8,0.500925926,0.412037037,1,0,0,0.715,Andesite_06,1,06,6,8,0.715,0.372222222,-0.228703704,1,0,0,1.027,Gabbro_rect,4,1.027,0,7,0,7,0,1,,,,,,,,,,,,,
610cd5f2b38b2d1bffe55477,SCN,2024-06-24_16h15.45.834,LearnStrategy,2023.2.3,Win32,58.82352941,5,1,9,0.560185185,0.075,1,0,0,2.383,Diorite_10,3,10,4,8,2.383,0.197222222,-0.250925926,1,0,0,1.992,Diorite_rect,3,1.992,1,8,0,8,0,1,,,,,,,,,,,,,
610cd5f2b38b2d1bffe55477,SCN,2024-06-24_16h15.45.834,LearnStrategy,2023.2.3,Win32,58.82352941,5,1,10,0.390740741,0.066666667,1,0,0,1.166,Gabbro_11,4,11,4,7,1.166,-0.340740741,-0.231481481,1,0,0,1.839,Andesite_rect,1,1.839,0,9,0,9,0,1,,,,,,,,,,,,,
610cd5f2b38b2d1bffe55477,SCN,2024-06-24_16h15.45.834,LearnStrategy,2023.2.3,Win32,58.82352941,5,1,11,0.040740741,0.389814815,1,0,0,1.315,Diorite_06,3,06,6,5,1.315,0.061111111,-0.246296296,1,0,0,1.244,Diorite_rect,3,1.244,1,10,0,10,0,1,,,,,,,,,,,,,
610cd5f2b38b2d1bffe55477,SCN,2024-06-24_16h15.45.834,LearnStrategy,2023.2.3,Win32,58.82352941,5,1,12,-0.068518519,0.390740741,1,0,0,0.8,Gabbro_05,4,05,6,4,0.8,0.066666667,-0.392592593,1,0,0,1.721,Peridotite_rect,7,1.721,0,11,0,11,0,1,,,,,,,,,,,,,
610cd5f2b38b2d1bffe55477,SCN,2024-06-24_16h15.45.834,LearnStrategy,2023.2.3,Win32,58.82352941,5,1,13,-0.253703704,0.380555556,1,0,0,1.232,Pegmatite_08,6,08,6,3,1.232,-0.211111111,-0.393518519,1,0,0,0.957,Pegmatite_rect,6,0.957,1,12,0,12,0,1,,,,,,,,,,,,,
610cd5f2b38b2d1bffe55477,SCN,2024-06-24_16h15.45.834,LearnStrategy,2023.2.3,Win32,58.82352941,5,1,14,-0.407407407,0.377777778,1,0,0,0.716,Basalt_08,2,08,6,2,0.716,0.39537037,-0.255555556,1,0,0,1.143,Gabbro_rect,4,1.143,0,13,0,13,0,1,,,,,,,,,,,,,
610cd5f2b38b2d1bffe55477,SCN,2024-06-24_16h15.45.834,LearnStrategy,2023.2.3,Win32,58.82352941,5,1,15,-0.57037037,0.377777778,1,0,0,0.866,Andesite_01,1,01,6,1,0.866,0.058333333,-0.231481481,1,0,0,1.558,Diorite_rect,3,1.558,0,14,0,14,0,1,,,,,,,,,,,,,
610cd5f2b38b2d1bffe55477,SCN,2024-06-24_16h15.45.834,LearnStrategy,2023.2.3,Win32,58.82352941,5,1,16,0.385185185,-0.115740741,1,0,0,1.267,Gabbro_08,4,08,3,7,1.267,-0.333333333,-0.271296296,1,0,0,1.592,Andesite_rect,1,1.592,0,15,0,15,0,1,,,,,,,,,,,,,
610cd5f2b38b2d1bffe55477,SCN,2024-06-24_16h15.45.834,LearnStrategy,2023.2.3,Win32,58.82352941,5,2,1,,,,,,,,8,09,,,,,,,,,,,8,4.494,1,,,,,,0.431481481,-0.4,1,0,0,4.494,Pumice_rect,0,0,0,0,1,
610cd5f2b38b2d1bffe55477,SCN,2024-06-24_16h15.45.834,LearnStrategy,2023.2.3,Win32,58.82352941,5,2,2,,,,,,,,1,14,,,,,,,,,,,3,1.987,0,,,,,,0.119444444,-0.237962963,1,0,0,1.987,Diorite_rect,1,0,1,0,1,
610cd5f2b38b2d1bffe55477,SCN,2024-06-24_16h15.45.834,LearnStrategy,2023.2.3,Win32,58.82352941,5,2,3,,,,,,,,6,07,,,,,,,,,,,6,1.61,1,,,,,,-0.091666667,-0.401851852,1,0,0,1.61,Pegmatite_rect,2,0,2,0,1,
610cd5f2b38b2d1bffe55477,SCN,2024-06-24_16h15.45.834,LearnStrategy,2023.2.3,Win32,58.82352941,5,2,4,,,,,,,,3,13,,,,,,,,,,,3,2.626,1,,,,,,0.100925926,-0.253703704,1,0,0,2.626,Diorite_rect,3,0,3,0,1,
610cd5f2b38b2d1bffe55477,SCN,2024-06-24_16h15.45.834,LearnStrategy,2023.2.3,Win32,58.82352941,5,2,5,,,,,,,,4,15,,,,,,,,,,,1,8.838,0,,,,,,-0.428703704,-0.235185185,1,0,0,8.838,Andesite_rect,4,0,4,0,1,
610cd5f2b38b2d1bffe55477,SCN,2024-06-24_16h15.45.834,LearnStrategy,2023.2.3,Win32,58.82352941,5,2,6,,,,,,,,7,06,,,,,,,,,,,7,1.837,1,,,,,,0.094444444,-0.39537037,1,0,0,1.837,Peridotite_rect,5,0,5,0,1,
610cd5f2b38b2d1bffe55477,SCN,2024-06-24_16h15.45.834,LearnStrategy,2023.2.3,Win32,58.82352941,5,2,7,,,,,,,,7,08,,,,,,,,,,,7,1.146,1,,,,,,0.094444444,-0.39537037,1,0,0,1.146,Peridotite_rect,6,0,6,0,1,
610cd5f2b38b2d1bffe55477,SCN,2024-06-24_16h15.45.834,LearnStrategy,2023.2.3,Win32,58.82352941,5,2,8,,,,,,,,8,15,,,,,,,,,,,8,1.294,1,,,,,,0.328703704,-0.399074074,1,0,0,1.294,Pumice_rect,7,0,7,0,1,
610cd5f2b38b2d1bffe55477,SCN,2024-06-24_16h15.45.834,LearnStrategy,2023.2.3,Win32,58.82352941,5,2,9,,,,,,,,2,04,,,,,,,,,,,2,1.744,1,,,,,,-0.148148148,-0.256481481,1,0,0,1.744,Basalt_rect,8,0,8,0,1,
610cd5f2b38b2d1bffe55477,SCN,2024-06-24_16h15.45.834,LearnStrategy,2023.2.3,Win32,58.82352941,5,2,10,,,,,,,,5,04,,,,,,,,,,,5,2.411,1,,,,,,-0.391666667,-0.403703704,1,0,0,2.411,Obsidian_rect,9,0,9,0,1,
610cd5f2b38b2d1bffe55477,SCN,2024-06-24_16h15.45.834,LearnStrategy,2023.2.3,Win32,58.82352941,5,2,11,,,,,,,,2,12,,,,,,,,,,,8,1.951,0,,,,,,0.368518519,-0.398148148,1,0,0,1.951,Pumice_rect,10,0,10,0,1,
610cd5f2b38b2d1bffe55477,SCN,2024-06-24_16h15.45.834,LearnStrategy,2023.2.3,Win32,58.82352941,5,2,12,,,,,,,,5,09,,,,,,,,,,,5,1.144,1,,,,,,-0.32037037,-0.383333333,1,0,0,1.144,Obsidian_rect,11,0,11,0,1,
610cd5f2b38b2d1bffe55477,SCN,2024-06-24_16h15.45.834,LearnStrategy,2023.2.3,Win32,58.82352941,5,2,13,,,,,,,,6,05,,,,,,,,,,,6,6.061,1,,,,,,-0.151851852,-0.410185185,1,0,0,6.061,Pegmatite_rect,12,0,12,0,1,
610cd5f2b38b2d1bffe55477,SCN,2024-06-24_16h15.45.834,LearnStrategy,2023.2.3,Win32,58.82352941,5,2,14,,,,,,,,3,07,,,,,,,,,,,3,2.885,1,,,,,,0.072222222,-0.259259259,1,0,0,2.885,Diorite_rect,13,0,13,0,1,
610cd5f2b38b2d1bffe55477,SCN,2024-06-24_16h15.45.834,LearnStrategy,2023.2.3,Win32,58.82352941,5,2,15,,,,,,,,4,01,,,,,,,,,,,7,1.837,0,,,,,,0.083333333,-0.401851852,1,0,0,1.837,Peridotite_rect,14,0,14,0,1,
610cd5f2b38b2d1bffe55477,SCN,2024-06-24_16h15.45.834,LearnStrategy,2023.2.3,Win32,58.82352941,5,2,16,,,,,,,,1,09,,,,,,,,,,,4,3.41,0,,,,,,0.406481481,-0.238888889,1,0,0,3.41,Gabbro_rect,15,0,15,0,1,
610cd5f2b38b2d1bffe55477,SCN,2024-06-24_16h15.45.834,LearnStrategy,2023.2.3,Win32,58.82352941,6,1,1,0.236111111,-0.117592593,1,0,0,1.7,Gabbro_14,4,14,3,6,1.7,0.352777778,-0.249074074,1,0,0,2.457,Gabbro_rect,4,2.457,1,0,0,0,0,1,,,,,,,,,,,,,
610cd5f2b38b2d1bffe55477,SCN,2024-06-24_16h15.45.834,LearnStrategy,2023.2.3,Win32,58.82352941,6,1,2,-0.240740741,-0.113888889,1,0,0,1.732,Basalt_02,2,02,3,3,1.732,-0.19537037,-0.236111111,1,0,0,0.711,Basalt_rect,2,0.711,1,1,0,1,0,1,,,,,,,,,,,,,
610cd5f2b38b2d1bffe55477,SCN,2024-06-24_16h15.45.834,LearnStrategy,2023.2.3,Win32,58.82352941,6,1,3,-0.566666667,-0.134259259,1,0,0,0.849,Gabbro_03,4,03,3,1,0.849,0.32962963,-0.264814815,1,0,0,2.99,Gabbro_rect,4,2.99,1,2,0,2,0,1,,,,,,,,,,,,,
610cd5f2b38b2d1bffe55477,SCN,2024-06-24_16h15.45.834,LearnStrategy,2023.2.3,Win32,58.82352941,6,1,4,0.376851852,-0.128703704,1,0,0,1.048,Gabbro_08,4,08,3,7,1.048,0.380555556,-0.246296296,1,0,0,0.56,Gabbro_rect,4,0.56,1,3,0,3,0,1,,,,,,,,,,,,,
610cd5f2b38b2d1bffe55477,SCN,2024-06-24_16h15.45.834,LearnStrategy,2023.2.3,Win32,58.82352941,6,1,5,0.524074074,0.394444444,1,0,0,0.817,Andesite_06,1,06,6,8,0.817,0.340740741,-0.243518519,1,0,0,0.691,Gabbro_rect,4,0.691,0,4,0,4,0,1,,,,,,,,,,,,,
610cd5f2b38b2d1bffe55477,SCN,2024-06-24_16h15.45.834,LearnStrategy,2023.2.3,Win32,58.82352941,6,1,6,-0.567592593,-0.236111111,1,0,0,1.716,Diorite_12,3,12,2,1,1.716,-0.42037037,-0.264814815,1,0,0,1.477,Andesite_rect,1,1.477,0,5,0,5,0,1,,,,,,,,,,,,,
610cd5f2b38b2d1bffe55477,SCN,2024-06-24_16h15.45.834,LearnStrategy,2023.2.3,Win32,58.82352941,6,1,7,-0.413888889,-0.261111111,1,0,0,1.266,Andesite_16,1,16,2,2,1.266,0.461111111,-0.258333333,1,0,0,3.291,Gabbro_rect,4,3.291,0,6,0,6,0,1,,,,,,,,,,,,,
610cd5f2b38b2d1bffe55477,SCN,2024-06-24_16h15.45.834,LearnStrategy,2023.2.3,Win32,58.82352941,6,1,8,-0.553703704,-0.262962963,1,0,0,1.084,Diorite_12,3,12,2,1,1.084,0.062037037,-0.25462963,1,0,0,1.006,Diorite_rect,3,1.006,1,7,0,7,0,1,,,,,,,,,,,,,
610cd5f2b38b2d1bffe55477,SCN,2024-06-24_16h15.45.834,LearnStrategy,2023.2.3,Win32,58.82352941,6,1,9,-0.248148148,-0.282407407,1,0,0,0.899,Gabbro_10,4,10,2,3,0.899,-0.367592593,-0.266666667,1,0,0,1.558,Andesite_rect,1,1.558,0,8,0,8,0,1,,,,,,,,,,,,,
610cd5f2b38b2d1bffe55477,SCN,2024-06-24_16h15.45.834,LearnStrategy,2023.2.3,Win32,58.82352941,6,1,10,-0.362962963,-0.287962963,1,0,0,0.899,Andesite_16,1,16,2,2,0.899,0.349074074,-0.260185185,1,0,0,0.925,Gabbro_rect,4,0.925,0,9,0,9,0,1,,,,,,,,,,,,,
610cd5f2b38b2d1bffe55477,SCN,2024-06-24_16h15.45.834,LearnStrategy,2023.2.3,Win32,58.82352941,6,1,11,-0.22962963,-0.273148148,1,0,0,1.049,Gabbro_10,4,10,2,3,1.049,0.359259259,-0.257407407,1,0,0,0.793,Gabbro_rect,4,0.793,1,10,0,10,0,1,,,,,,,,,,,,,
610cd5f2b38b2d1bffe55477,SCN,2024-06-24_16h15.45.834,LearnStrategy,2023.2.3,Win32,58.82352941,6,1,12,-0.086111111,-0.243518519,1,0,0,0.701,Andesite_07,1,07,2,4,0.701,-0.435185185,-0.268518519,1,0,0,1.442,Andesite_rect,1,1.442,1,11,0,11,0,1,,,,,,,,,,,,,
610cd5f2b38b2d1bffe55477,SCN,2024-06-24_16h15.45.834,LearnStrategy,2023.2.3,Win32,58.82352941,6,1,13,-0.250925926,-0.27037037,1,0,0,2.249,Gabbro_10,4,10,2,3,2.249,0.335185185,-0.253703704,1,0,0,0.89,Gabbro_rect,4,0.89,1,12,0,12,0,1,,,,,,,,,,,,,
610cd5f2b38b2d1bffe55477,SCN,2024-06-24_16h15.45.834,LearnStrategy,2023.2.3,Win32,58.82352941,6,1,14,0.500925926,0.407407407,1,0,0,1.467,Andesite_06,1,06,6,8,1.467,-0.387037037,-0.22962963,1,0,0,1.006,Andesite_rect,1,1.006,1,13,0,13,0,1,,,,,,,,,,,,,
610cd5f2b38b2d1bffe55477,SCN,2024-06-24_16h15.45.834,LearnStrategy,2023.2.3,Win32,58.82352941,6,1,15,0.056481481,-0.275,1,0,0,1.432,Peridotite_16,7,16,2,5,1.432,0.071296296,-0.37962963,1,0,0,0.91,Peridotite_rect,7,0.91,1,14,0,14,0,1,,,,,,,,,,,,,
610cd5f2b38b2d1bffe55477,SCN,2024-06-24_16h15.45.834,LearnStrategy,2023.2.3,Win32,58.82352941,6,1,16,0.208333333,-0.249074074,1,0,0,0.749,Basalt_16,2,16,2,6,0.749,-0.161111111,-0.27037037,1,0,0,1.042,Basalt_rect,2,1.042,1,15,0,15,0,1,,,,,,,,,,,,,
610cd5f2b38b2d1bffe55477,SCN,2024-06-24_16h15.45.834,LearnStrategy,2023.2.3,Win32,58.82352941,6,2,1,,,,,,,,5,11,,,,,,,,,,,5,1.793,1,,,,,,-0.37962963,-0.415740741,1,0,0,1.793,Obsidian_rect,0,0,0,0,1,
610cd5f2b38b2d1bffe55477,SCN,2024-06-24_16h15.45.834,LearnStrategy,2023.2.3,Win32,58.82352941,6,2,2,,,,,,,,1,02,,,,,,,,,,,4,6.611,0,,,,,,0.352777778,-0.252777778,1,0,0,6.611,Gabbro_rect,1,0,1,0,1,
610cd5f2b38b2d1bffe55477,SCN,2024-06-24_16h15.45.834,LearnStrategy,2023.2.3,Win32,58.82352941,6,2,3,,,,,,,,6,06,,,,,,,,,,,6,2.086,1,,,,,,-0.185185185,-0.397222222,1,0,0,2.086,Pegmatite_rect,2,0,2,0,1,
610cd5f2b38b2d1bffe55477,SCN,2024-06-24_16h15.45.834,LearnStrategy,2023.2.3,Win32,58.82352941,6,2,4,,,,,,,,1,11,,,,,,,,,,,4,6.161,0,,,,,,0.40462963,-0.258333333,1,0,0,6.161,Gabbro_rect,3,0,3,0,1,
610cd5f2b38b2d1bffe55477,SCN,2024-06-24_16h15.45.834,LearnStrategy,2023.2.3,Win32,58.82352941,6,2,5,,,,,,,,4,16,,,,,,,,,,,2,3.488,0,,,,,,-0.126851852,-0.269444444,1,0,0,3.488,Basalt_rect,4,0,4,0,1,
610cd5f2b38b2d1bffe55477,SCN,2024-06-24_16h15.45.834,LearnStrategy,2023.2.3,Win32,58.82352941,6,2,6,,,,,,,,7,07,,,,,,,,,,,7,1.188,1,,,,,,0.068518519,-0.406481481,1,0,0,1.188,Peridotite_rect,5,0,5,0,1,
610cd5f2b38b2d1bffe55477,SCN,2024-06-24_16h15.45.834,LearnStrategy,2023.2.3,Win32,58.82352941,6,2,7,,,,,,,,8,04,,,,,,,,,,,8,1.06,1,,,,,,0.32962963,-0.405555556,1,0,0,1.06,Pumice_rect,6,0,6,0,1,
610cd5f2b38b2d1bffe55477,SCN,2024-06-24_16h15.45.834,LearnStrategy,2023.2.3,Win32,58.82352941,6,2,8,,,,,,,,2,10,,,,,,,,,,,2,1.543,1,,,,,,-0.152777778,-0.249074074,1,0,0,1.543,Basalt_rect,7,0,7,0,1,
610cd5f2b38b2d1bffe55477,SCN,2024-06-24_16h15.45.834,LearnStrategy,2023.2.3,Win32,58.82352941,6,2,9,,,,,,,,5,07,,,,,,,,,,,5,1.111,1,,,,,,-0.436111111,-0.391666667,1,0,0,1.111,Obsidian_rect,8,0,8,0,1,
610cd5f2b38b2d1bffe55477,SCN,2024-06-24_16h15.45.834,LearnStrategy,2023.2.3,Win32,58.82352941,6,2,10,,,,,,,,6,15,,,,,,,,,,,6,1.177,1,,,,,,-0.198148148,-0.410185185,1,0,0,1.177,Pegmatite_rect,9,0,9,0,1,
610cd5f2b38b2d1bffe55477,SCN,2024-06-24_16h15.45.834,LearnStrategy,2023.2.3,Win32,58.82352941,6,2,11,,,,,,,,2,06,,,,,,,,,,,2,1.194,1,,,,,,-0.187037037,-0.263888889,1,0,0,1.194,Basalt_rect,10,0,10,0,1,
610cd5f2b38b2d1bffe55477,SCN,2024-06-24_16h15.45.834,LearnStrategy,2023.2.3,Win32,58.82352941,6,2,12,,,,,,,,3,16,,,,,,,,,,,3,3.108,1,,,,,,0.143518519,-0.250925926,1,0,0,3.108,Diorite_rect,11,0,11,0,1,
610cd5f2b38b2d1bffe55477,SCN,2024-06-24_16h15.45.834,LearnStrategy,2023.2.3,Win32,58.82352941,6,2,13,,,,,,,,4,09,,,,,,,,,,,4,2.21,1,,,,,,0.339814815,-0.258333333,1,0,0,2.21,Gabbro_rect,12,0,12,0,1,
610cd5f2b38b2d1bffe55477,SCN,2024-06-24_16h15.45.834,LearnStrategy,2023.2.3,Win32,58.82352941,6,2,14,,,,,,,,7,10,,,,,,,,,,,7,0.971,1,,,,,,0.069444444,-0.393518519,1,0,0,0.971,Peridotite_rect,13,0,13,0,1,
610cd5f2b38b2d1bffe55477,SCN,2024-06-24_16h15.45.834,LearnStrategy,2023.2.3,Win32,58.82352941,6,2,15,,,,,,,,8,06,,,,,,,,,,,8,1.094,1,,,,,,0.336111111,-0.384259259,1,0,0,1.094,Pumice_rect,14,0,14,0,1,
610cd5f2b38b2d1bffe55477,SCN,2024-06-24_16h15.45.834,LearnStrategy,2023.2.3,Win32,58.82352941,6,2,16,,,,,,,,3,08,,,,,,,,,,,3,2.545,1,,,,,,0.105555556,-0.265740741,1,0,0,2.545,Diorite_rect,15,0,15,0,1,
610cd5f2b38b2d1bffe55477,SCN,2024-06-24_16h15.45.834,LearnStrategy,2023.2.3,Win32,58.82352941,7,1,1,-0.531481481,-0.271296296,1,0,0,1.116,Diorite_12,3,12,2,1,1.116,-0.487037037,-0.249074074,1,0,0,1.827,Andesite_rect,1,1.827,0,0,0,0,0,1,,,,,,,,,,,,,
610cd5f2b38b2d1bffe55477,SCN,2024-06-24_16h15.45.834,LearnStrategy,2023.2.3,Win32,58.82352941,7,1,2,-0.413888889,-0.255555556,1,0,0,1.599,Andesite_16,1,16,2,2,1.599,-0.413888889,-0.255555556,1,0,0,1.442,Andesite_rect,1,1.442,1,1,0,1,0,1,,,,,,,,,,,,,
610cd5f2b38b2d1bffe55477,SCN,2024-06-24_16h15.45.834,LearnStrategy,2023.2.3,Win32,58.82352941,7,1,3,-0.199074074,-0.284259259,1,0,0,0.899,Gabbro_10,4,10,2,3,0.899,0.333333333,-0.241666667,1,0,0,0.775,Gabbro_rect,4,0.775,1,2,0,2,0,1,,,,,,,,,,,,,
610cd5f2b38b2d1bffe55477,SCN,2024-06-24_16h15.45.834,LearnStrategy,2023.2.3,Win32,58.82352941,7,1,4,-0.036111111,-0.249074074,1,0,0,0.9,Andesite_07,1,07,2,4,0.9,-0.344444444,-0.258333333,1,0,0,1.406,Andesite_rect,1,1.406,1,3,0,3,0,1,,,,,,,,,,,,,
610cd5f2b38b2d1bffe55477,SCN,2024-06-24_16h15.45.834,LearnStrategy,2023.2.3,Win32,58.82352941,7,1,5,0.067592593,-0.277777778,1,0,0,1.683,Peridotite_16,7,16,2,5,1.683,0.131481481,-0.380555556,1,0,0,0.61,Peridotite_rect,7,0.61,1,4,0,4,0,1,,,,,,,,,,,,,
610cd5f2b38b2d1bffe55477,SCN,2024-06-24_16h15.45.834,LearnStrategy,2023.2.3,Win32,58.82352941,7,1,6,0.226851852,-0.267592593,1,0,0,1.299,Basalt_16,2,16,2,6,1.299,-0.132407407,-0.269444444,1,0,0,1.66,Basalt_rect,2,1.66,1,5,0,5,0,1,,,,,,,,,,,,,
610cd5f2b38b2d1bffe55477,SCN,2024-06-24_16h15.45.834,LearnStrategy,2023.2.3,Win32,58.82352941,7,1,7,0.39537037,-0.274074074,1,0,0,0.965,Pegmatite_13,6,13,2,7,0.965,-0.198148148,-0.410185185,1,0,0,0.626,Pegmatite_rect,6,0.626,1,6,0,6,0,1,,,,,,,,,,,,,
610cd5f2b38b2d1bffe55477,SCN,2024-06-24_16h15.45.834,LearnStrategy,2023.2.3,Win32,58.82352941,7,1,8,0.531481481,-0.435185185,1,0,0,1.417,Basalt_01,2,01,1,8,1.417,-0.093518519,-0.253703704,1,0,0,2.027,Basalt_rect,2,2.027,1,7,0,7,0,1,,,,,,,,,,,,,
610cd5f2b38b2d1bffe55477,SCN,2024-06-24_16h15.45.834,LearnStrategy,2023.2.3,Win32,58.82352941,7,1,9,0.367592593,-0.394444444,1,0,0,0.684,Diorite_11,3,11,1,7,0.684,-0.375925926,-0.246296296,1,0,0,0.868,Andesite_rect,1,0.868,0,8,0,8,0,1,,,,,,,,,,,,,
610cd5f2b38b2d1bffe55477,SCN,2024-06-24_16h15.45.834,LearnStrategy,2023.2.3,Win32,58.82352941,7,1,10,0.236111111,-0.427777778,1,0,0,2.65,Basalt_05,2,05,1,6,2.65,-0.109259259,-0.265740741,1,0,0,0.792,Basalt_rect,2,0.792,1,9,0,9,0,1,,,,,,,,,,,,,
610cd5f2b38b2d1bffe55477,SCN,2024-06-24_16h15.45.834,LearnStrategy,2023.2.3,Win32,58.82352941,7,1,11,0.041666667,-0.419444444,1,0,0,0.833,Pumice_08,8,08,1,5,0.833,0.374074074,-0.394444444,1,0,0,1.427,Pumice_rect,8,1.427,1,10,0,10,0,1,,,,,,,,,,,,,
610cd5f2b38b2d1bffe55477,SCN,2024-06-24_16h15.45.834,LearnStrategy,2023.2.3,Win32,58.82352941,7,1,12,-0.075,-0.415740741,1,0,0,1.532,Pegmatite_09,6,09,1,4,1.532,-0.137962963,-0.421296296,1,0,0,0.943,Pegmatite_rect,6,0.943,1,11,0,11,0,1,,,,,,,,,,,,,
610cd5f2b38b2d1bffe55477,SCN,2024-06-24_16h15.45.834,LearnStrategy,2023.2.3,Win32,58.82352941,7,1,13,-0.242592593,-0.415740741,1,0,0,0.583,Basalt_11,2,11,1,3,0.583,0.374074074,-0.397222222,1,0,0,3.293,Pumice_rect,8,3.293,0,12,0,12,0,1,,,,,,,,,,,,,
610cd5f2b38b2d1bffe55477,SCN,2024-06-24_16h15.45.834,LearnStrategy,2023.2.3,Win32,58.82352941,7,1,14,-0.387962963,-0.421296296,1,0,0,0.799,Peridotite_04,7,04,1,2,0.799,0.309259259,-0.253703704,1,0,0,5.326,Gabbro_rect,4,5.326,0,13,0,13,0,1,,,,,,,,,,,,,
610cd5f2b38b2d1bffe55477,SCN,2024-06-24_16h15.45.834,LearnStrategy,2023.2.3,Win32,58.82352941,7,1,15,-0.553703704,-0.422222222,1,0,0,2.051,Pumice_14,8,14,1,1,2.051,0.339814815,-0.402777778,1,0,0,3.76,Pumice_rect,8,3.76,1,14,0,14,0,1,,,,,,,,,,,,,
610cd5f2b38b2d1bffe55477,SCN,2024-06-24_16h15.45.834,LearnStrategy,2023.2.3,Win32,58.82352941,7,1,16,-0.546296296,0.375925926,1,0,0,2.283,Andesite_01,1,01,6,1,2.283,-0.369444444,-0.252777778,1,0,0,5.01,Andesite_rect,1,5.01,1,15,0,15,0,1,,,,,,,,,,,,,
610cd5f2b38b2d1bffe55477,SCN,2024-06-24_16h15.45.834,LearnStrategy,2023.2.3,Win32,58.82352941,7,2,1,,,,,,,,6,05,,,,,,,,,,,3,4.978,0,,,,,,0.084259259,-0.248148148,1,0,0,4.978,Diorite_rect,0,0,0,0,1,
610cd5f2b38b2d1bffe55477,SCN,2024-06-24_16h15.45.834,LearnStrategy,2023.2.3,Win32,58.82352941,7,2,2,,,,,,,,7,06,,,,,,,,,,,7,0.971,1,,,,,,0.076851852,-0.382407407,1,0,0,0.971,Peridotite_rect,1,0,1,0,1,
610cd5f2b38b2d1bffe55477,SCN,2024-06-24_16h15.45.834,LearnStrategy,2023.2.3,Win32,58.82352941,7,2,3,,,,,,,,8,16,,,,,,,,,,,8,0.893,1,,,,,,0.35462963,-0.405555556,1,0,0,0.893,Pumice_rect,2,0,2,0,1,
610cd5f2b38b2d1bffe55477,SCN,2024-06-24_16h15.45.834,LearnStrategy,2023.2.3,Win32,58.82352941,7,2,4,,,,,,,,1,09,,,,,,,,,,,4,4.461,0,,,,,,0.369444444,-0.264814815,1,0,0,4.461,Gabbro_rect,3,0,3,0,1,
610cd5f2b38b2d1bffe55477,SCN,2024-06-24_16h15.45.834,LearnStrategy,2023.2.3,Win32,58.82352941,7,2,5,,,,,,,,1,11,,,,,,,,,,,4,1.82,0,,,,,,0.337962963,-0.264814815,1,0,0,1.82,Gabbro_rect,4,0,4,0,1,
610cd5f2b38b2d1bffe55477,SCN,2024-06-24_16h15.45.834,LearnStrategy,2023.2.3,Win32,58.82352941,7,2,6,,,,,,,,8,03,,,,,,,,,,,8,1.639,1,,,,,,0.350925926,-0.378703704,1,0,0,1.639,Pumice_rect,5,0,5,0,1,
610cd5f2b38b2d1bffe55477,SCN,2024-06-24_16h15.45.834,LearnStrategy,2023.2.3,Win32,58.82352941,7,2,7,,,,,,,,4,01,,,,,,,,,,,7,1.462,0,,,,,,0.166666667,-0.386111111,1,0,0,1.462,Peridotite_rect,6,0,6,0,1,
610cd5f2b38b2d1bffe55477,SCN,2024-06-24_16h15.45.834,LearnStrategy,2023.2.3,Win32,58.82352941,7,2,8,,,,,,,,4,12,,,,,,,,,,,4,3.411,1,,,,,,0.341666667,-0.25462963,1,0,0,3.411,Gabbro_rect,7,0,7,0,1,
610cd5f2b38b2d1bffe55477,SCN,2024-06-24_16h15.45.834,LearnStrategy,2023.2.3,Win32,58.82352941,7,2,9,,,,,,,,6,06,,,,,,,,,,,6,1.489,1,,,,,,-0.122222222,-0.389814815,1,0,0,1.489,Pegmatite_rect,8,0,8,0,1,
610cd5f2b38b2d1bffe55477,SCN,2024-06-24_16h15.45.834,LearnStrategy,2023.2.3,Win32,58.82352941,7,2,10,,,,,,,,5,09,,,,,,,,,,,5,0.943,1,,,,,,-0.347222222,-0.418518519,1,0,0,0.943,Obsidian_rect,9,0,9,0,1,
610cd5f2b38b2d1bffe55477,SCN,2024-06-24_16h15.45.834,LearnStrategy,2023.2.3,Win32,58.82352941,7,2,11,,,,,,,,7,07,,,,,,,,,,,7,1.077,1,,,,,,0.069444444,-0.390740741,1,0,0,1.077,Peridotite_rect,10,0,10,0,1,
610cd5f2b38b2d1bffe55477,SCN,2024-06-24_16h15.45.834,LearnStrategy,2023.2.3,Win32,58.82352941,7,2,12,,,,,,,,3,07,,,,,,,,,,,3,2.594,1,,,,,,0.101851852,-0.261111111,1,0,0,2.594,Diorite_rect,11,0,11,0,1,
610cd5f2b38b2d1bffe55477,SCN,2024-06-24_16h15.45.834,LearnStrategy,2023.2.3,Win32,58.82352941,7,2,13,,,,,,,,5,11,,,,,,,,,,,5,1.904,1,,,,,,-0.32962963,-0.390740741,1,0,0,1.904,Obsidian_rect,12,0,12,0,1,
610cd5f2b38b2d1bffe55477,SCN,2024-06-24_16h15.45.834,LearnStrategy,2023.2.3,Win32,58.82352941,7,2,14,,,,,,,,2,12,,,,,,,,,,,8,1.296,0,,,,,,0.341666667,-0.389814815,1,0,0,1.296,Pumice_rect,13,0,13,0,1,
610cd5f2b38b2d1bffe55477,SCN,2024-06-24_16h15.45.834,LearnStrategy,2023.2.3,Win32,58.82352941,7,2,15,,,,,,,,2,06,,,,,,,,,,,2,1.408,1,,,,,,-0.130555556,-0.267592593,1,0,0,1.408,Basalt_rect,14,0,14,0,1,
610cd5f2b38b2d1bffe55477,SCN,2024-06-24_16h15.45.834,LearnStrategy,2023.2.3,Win32,58.82352941,7,2,16,,,,,,,,3,16,,,,,,,,,,,3,1.96,1,,,,,,0.133333333,-0.265740741,1,0,0,1.96,Diorite_rect,15,0,15,0,1,
610cd5f2b38b2d1bffe55477,SCN,2024-06-24_16h15.45.834,LearnStrategy,2023.2.3,Win32,58.82352941,8,1,1,-0.076851852,0.424074074,1,0,0,3.2,Gabbro_05,4,05,6,4,3.2,0.063888889,-0.406481481,1,0,0,1.058,Peridotite_rect,7,1.058,0,0,0,0,0,1,,,,,,,,,,,,,
610cd5f2b38b2d1bffe55477,SCN,2024-06-24_16h15.45.834,LearnStrategy,2023.2.3,Win32,58.82352941,8,1,2,-0.092592593,0.410185185,1,0,0,0.949,Gabbro_05,4,05,6,4,0.949,0.425,-0.267592593,1,0,0,1.842,Gabbro_rect,4,1.842,1,1,0,1,0,1,,,,,,,,,,,,,
610cd5f2b38b2d1bffe55477,SCN,2024-06-24_16h15.45.834,LearnStrategy,2023.2.3,Win32,58.82352941,8,1,3,0.074074074,0.376851852,1,0,0,0.616,Diorite_06,3,06,6,5,0.616,0.09537037,-0.261111111,1,0,0,2.358,Diorite_rect,3,2.358,1,2,0,2,0,1,,,,,,,,,,,,,
610cd5f2b38b2d1bffe55477,SCN,2024-06-24_16h15.45.834,LearnStrategy,2023.2.3,Win32,58.82352941,8,1,4,0.225925926,0.386111111,1,0,0,0.8,Pumice_05,8,05,6,6,0.8,0.361111111,-0.384259259,1,0,0,0.875,Pumice_rect,8,0.875,1,3,0,3,0,1,,,,,,,,,,,,,
610cd5f2b38b2d1bffe55477,SCN,2024-06-24_16h15.45.834,LearnStrategy,2023.2.3,Win32,58.82352941,8,1,5,0.37962963,0.384259259,1,0,0,0.75,Peridotite_12,7,12,6,7,0.75,0.1,-0.40462963,1,0,0,0.733,Peridotite_rect,7,0.733,1,4,0,4,0,1,,,,,,,,,,,,,
610cd5f2b38b2d1bffe55477,SCN,2024-06-24_16h15.45.834,LearnStrategy,2023.2.3,Win32,58.82352941,8,1,6,0.577777778,0.383333333,1,0,0,0.615,Andesite_06,1,06,6,8,0.615,-0.365740741,-0.256481481,1,0,0,2.743,Andesite_rect,1,2.743,1,5,0,5,0,1,,,,,,,,,,,,,
610cd5f2b38b2d1bffe55477,SCN,2024-06-24_16h15.45.834,LearnStrategy,2023.2.3,Win32,58.82352941,8,1,7,0.555555556,0.259259259,1,0,0,1.133,Peridotite_14,7,14,5,8,1.133,0.151851852,-0.399074074,1,0,0,0.958,Peridotite_rect,7,0.958,1,6,0,6,0,1,,,,,,,,,,,,,
610cd5f2b38b2d1bffe55477,SCN,2024-06-24_16h15.45.834,LearnStrategy,2023.2.3,Win32,58.82352941,8,1,8,0.382407407,0.225925926,1,0,0,0.532,Andesite_04,1,04,5,7,0.532,0.468518519,-0.237962963,1,0,0,1.293,Gabbro_rect,4,1.293,0,7,0,7,0,1,,,,,,,,,,,,,
610cd5f2b38b2d1bffe55477,SCN,2024-06-24_16h15.45.834,LearnStrategy,2023.2.3,Win32,58.82352941,8,1,9,0.243518519,0.223148148,1,0,0,0.933,Peridotite_15,7,15,5,6,0.933,0.080555556,-0.39537037,1,0,0,1.21,Peridotite_rect,7,1.21,1,8,0,8,0,1,,,,,,,,,,,,,
610cd5f2b38b2d1bffe55477,SCN,2024-06-24_16h15.45.834,LearnStrategy,2023.2.3,Win32,58.82352941,8,1,10,0.234259259,0.244444444,1,0,0,0.615,Peridotite_15,7,15,5,6,0.615,0.094444444,-0.407407407,1,0,0,0.692,Peridotite_rect,7,0.692,1,9,0,9,0,1,,,,,,,,,,,,,
610cd5f2b38b2d1bffe55477,SCN,2024-06-24_16h15.45.834,LearnStrategy,2023.2.3,Win32,58.82352941,8,1,11,-0.086111111,0.251851852,1,0,0,1.299,Pumice_13,8,13,5,4,1.299,0.381481481,-0.406481481,1,0,0,0.576,Pumice_rect,8,0.576,1,10,0,10,0,1,,,,,,,,,,,,,
610cd5f2b38b2d1bffe55477,SCN,2024-06-24_16h15.45.834,LearnStrategy,2023.2.3,Win32,58.82352941,8,1,12,-0.278703704,0.230555556,1,0,0,0.732,Pumice_10,8,10,5,3,0.732,0.34537037,-0.397222222,1,0,0,2.543,Pumice_rect,8,2.543,1,11,0,11,0,1,,,,,,,,,,,,,
610cd5f2b38b2d1bffe55477,SCN,2024-06-24_16h15.45.834,LearnStrategy,2023.2.3,Win32,58.82352941,8,1,13,-0.365740741,0.264814815,1,0,0,0.616,Peridotite_05,7,05,5,2,0.616,0.141666667,-0.409259259,1,0,0,0.96,Peridotite_rect,7,0.96,1,12,0,12,0,1,,,,,,,,,,,,,
610cd5f2b38b2d1bffe55477,SCN,2024-06-24_16h15.45.834,LearnStrategy,2023.2.3,Win32,58.82352941,8,1,14,-0.586111111,0.264814815,1,0,0,0.533,Diorite_09,3,09,5,1,0.533,0.144444444,-0.244444444,1,0,0,0.893,Diorite_rect,3,0.893,1,13,0,13,0,1,,,,,,,,,,,,,
610cd5f2b38b2d1bffe55477,SCN,2024-06-24_16h15.45.834,LearnStrategy,2023.2.3,Win32,58.82352941,8,1,15,-0.544444444,0.092592593,1,0,0,0.9,Pumice_02,8,02,4,1,0.9,0.059259259,-0.252777778,1,0,0,2.776,Diorite_rect,3,2.776,0,14,0,14,0,1,,,,,,,,,,,,,
610cd5f2b38b2d1bffe55477,SCN,2024-06-24_16h15.45.834,LearnStrategy,2023.2.3,Win32,58.82352941,8,1,16,-0.247222222,0.076851852,1,0,0,1.132,Diorite_14,3,14,4,3,1.132,0.05,-0.232407407,1,0,0,0.606,Diorite_rect,3,0.606,1,15,0,15,0,1,,,,,,,,,,,,,
610cd5f2b38b2d1bffe55477,SCN,2024-06-24_16h15.45.834,LearnStrategy,2023.2.3,Win32,58.82352941,8,2,1,,,,,,,,4,09,,,,,,,,,,,4,5.758,1,,,,,,0.384259259,-0.24537037,1,0,0,5.758,Gabbro_rect,0,0,0,0,1,
610cd5f2b38b2d1bffe55477,SCN,2024-06-24_16h15.45.834,LearnStrategy,2023.2.3,Win32,58.82352941,8,2,2,,,,,,,,3,02,,,,,,,,,,,3,1.302,1,,,,,,0.098148148,-0.25462963,1,0,0,1.302,Diorite_rect,1,0,1,0,1,
610cd5f2b38b2d1bffe55477,SCN,2024-06-24_16h15.45.834,LearnStrategy,2023.2.3,Win32,58.82352941,8,2,3,,,,,,,,2,14,,,,,,,,,,,8,1.543,0,,,,,,0.325,-0.391666667,1,0,0,1.543,Pumice_rect,2,0,2,0,1,
610cd5f2b38b2d1bffe55477,SCN,2024-06-24_16h15.45.834,LearnStrategy,2023.2.3,Win32,58.82352941,8,2,4,,,,,,,,1,03,,,,,,,,,,,2,2.177,0,,,,,,-0.14537037,-0.240740741,1,0,0,2.177,Basalt_rect,3,0,3,0,1,
610cd5f2b38b2d1bffe55477,SCN,2024-06-24_16h15.45.834,LearnStrategy,2023.2.3,Win32,58.82352941,8,2,5,,,,,,,,5,05,,,,,,,,,,,5,1.188,1,,,,,,-0.450925926,-0.403703704,1,0,0,1.188,Obsidian_rect,4,0,4,0,1,
610cd5f2b38b2d1bffe55477,SCN,2024-06-24_16h15.45.834,LearnStrategy,2023.2.3,Win32,58.82352941,8,2,6,,,,,,,,6,10,,,,,,,,,,,7,1.31,0,,,,,,0.072222222,-0.39537037,1,0,0,1.31,Peridotite_rect,5,0,5,0,1,
610cd5f2b38b2d1bffe55477,SCN,2024-06-24_16h15.45.834,LearnStrategy,2023.2.3,Win32,58.82352941,8,2,7,,,,,,,,3,08,,,,,,,,,,,3,0.99,1,,,,,,0.075,-0.267592593,1,0,0,0.99,Diorite_rect,6,0,6,0,1,
610cd5f2b38b2d1bffe55477,SCN,2024-06-24_16h15.45.834,LearnStrategy,2023.2.3,Win32,58.82352941,8,2,8,,,,,,,,7,08,,,,,,,,,,,7,0.959,1,,,,,,0.087037037,-0.384259259,1,0,0,0.959,Peridotite_rect,7,0,7,0,1,
610cd5f2b38b2d1bffe55477,SCN,2024-06-24_16h15.45.834,LearnStrategy,2023.2.3,Win32,58.82352941,8,2,9,,,,,,,,7,13,,,,,,,,,,,7,0.927,1,,,,,,0.087037037,-0.384259259,1,0,0,0.927,Peridotite_rect,8,0,8,0,1,
610cd5f2b38b2d1bffe55477,SCN,2024-06-24_16h15.45.834,LearnStrategy,2023.2.3,Win32,58.82352941,8,2,10,,,,,,,,1,14,,,,,,,,,,,1,2.307,1,,,,,,-0.416666667,-0.25,1,0,0,2.307,Andesite_rect,9,0,9,0,1,
610cd5f2b38b2d1bffe55477,SCN,2024-06-24_16h15.45.834,LearnStrategy,2023.2.3,Win32,58.82352941,8,2,11,,,,,,,,6,03,,,,,,,,,,,6,1.937,1,,,,,,-0.182407407,-0.393518519,1,0,0,1.937,Pegmatite_rect,10,0,10,0,1,
610cd5f2b38b2d1bffe55477,SCN,2024-06-24_16h15.45.834,LearnStrategy,2023.2.3,Win32,58.82352941,8,2,12,,,,,,,,8,15,,,,,,,,,,,8,1.06,1,,,,,,0.35,-0.411111111,1,0,0,1.06,Pumice_rect,11,0,11,0,1,
610cd5f2b38b2d1bffe55477,SCN,2024-06-24_16h15.45.834,LearnStrategy,2023.2.3,Win32,58.82352941,8,2,13,,,,,,,,8,09,,,,,,,,,,,8,0.844,1,,,,,,0.35,-0.411111111,1,0,0,0.844,Pumice_rect,12,0,12,0,1,
610cd5f2b38b2d1bffe55477,SCN,2024-06-24_16h15.45.834,LearnStrategy,2023.2.3,Win32,58.82352941,8,2,14,,,,,,,,2,04,,,,,,,,,,,2,1.239,1,,,,,,-0.188888889,-0.251851852,1,0,0,1.239,Basalt_rect,13,0,13,0,1,
610cd5f2b38b2d1bffe55477,SCN,2024-06-24_16h15.45.834,LearnStrategy,2023.2.3,Win32,58.82352941,8,2,15,,,,,,,,4,13,,,,,,,,,,,1,4.377,0,,,,,,-0.444444444,-0.249074074,1,0,0,4.377,Andesite_rect,14,0,14,0,1,
610cd5f2b38b2d1bffe55477,SCN,2024-06-24_16h15.45.834,LearnStrategy,2023.2.3,Win32,58.82352941,8,2,16,,,,,,,,5,07,,,,,,,,,,,5,1.136,1,,,,,,-0.449074074,-0.382407407,1,0,0,1.136,Obsidian_rect,15,0,15,0,1,
610cd5f2b38b2d1bffe55477,SCN,2024-06-24_16h15.45.834,LearnStrategy,2023.2.3,Win32,58.82352941,9,1,1,-0.563888889,-0.137037037,1,0,0,1.483,Gabbro_03,4,03,3,1,1.483,-0.409259259,-0.243518519,1,0,0,1.959,Andesite_rect,1,1.959,0,0,0,0,0,1,,,,,,,,,,,,,
610cd5f2b38b2d1bffe55477,SCN,2024-06-24_16h15.45.834,LearnStrategy,2023.2.3,Win32,58.82352941,9,1,2,-0.368518519,-0.113888889,1,0,0,0.649,Pegmatite_16,6,16,3,2,0.649,-0.161111111,-0.396296296,1,0,0,2.16,Pegmatite_rect,6,2.16,1,1,0,1,0,1,,,,,,,,,,,,,
610cd5f2b38b2d1bffe55477,SCN,2024-06-24_16h15.45.834,LearnStrategy,2023.2.3,Win32,58.82352941,9,1,3,-0.2,-0.093518519,1,0,0,0.566,Basalt_02,2,02,3,3,0.566,-0.155555556,-0.233333333,1,0,0,0.607,Basalt_rect,2,0.607,1,2,0,2,0,1,,,,,,,,,,,,,
610cd5f2b38b2d1bffe55477,SCN,2024-06-24_16h15.45.834,LearnStrategy,2023.2.3,Win32,58.82352941,9,1,4,-0.059259259,-0.111111111,1,0,0,0.515,Obsidian_14,5,14,3,4,0.515,-0.358333333,-0.39537037,1,0,0,1.094,Obsidian_rect,5,1.094,1,3,0,3,0,1,,,,,,,,,,,,,
610cd5f2b38b2d1bffe55477,SCN,2024-06-24_16h15.45.834,LearnStrategy,2023.2.3,Win32,58.82352941,9,1,5,0.24537037,-0.108333333,1,0,0,0.85,Gabbro_14,4,14,3,6,0.85,0.346296296,-0.232407407,1,0,0,1.661,Gabbro_rect,4,1.661,1,4,0,4,0,1,,,,,,,,,,,,,
610cd5f2b38b2d1bffe55477,SCN,2024-06-24_16h15.45.834,LearnStrategy,2023.2.3,Win32,58.82352941,9,1,6,-0.221296296,-0.138888889,1,0,0,1.666,Basalt_02,2,02,3,3,1.666,-0.119444444,-0.268518519,1,0,0,1.643,Basalt_rect,2,1.643,1,5,0,5,0,1,,,,,,,,,,,,,
610cd5f2b38b2d1bffe55477,SCN,2024-06-24_16h15.45.834,LearnStrategy,2023.2.3,Win32,58.82352941,9,1,7,-0.531481481,-0.119444444,1,0,0,1.899,Gabbro_03,4,03,3,1,1.899,0.355555556,-0.237962963,1,0,0,1.076,Gabbro_rect,4,1.076,1,6,0,6,0,1,,,,,,,,,,,,,
610cd5f2b38b2d1bffe55477,SCN,2024-06-24_16h15.45.834,LearnStrategy,2023.2.3,Win32,58.82352941,9,1,8,-0.54537037,-0.25,1,0,0,0.853,Diorite_12,3,12,2,1,0.853,-0.375925926,-0.271296296,1,0,0,1.19,Andesite_rect,1,1.19,0,7,0,7,0,1,,,,,,,,,,,,,
610cd5f2b38b2d1bffe55477,SCN,2024-06-24_16h15.45.834,LearnStrategy,2023.2.3,Win32,58.82352941,9,1,9,-0.362962963,-0.271296296,1,0,0,1.15,Andesite_16,1,16,2,2,1.15,-0.355555556,-0.252777778,1,0,0,4.139,Andesite_rect,1,4.139,1,8,0,8,0,1,,,,,,,,,,,,,
610cd5f2b38b2d1bffe55477,SCN,2024-06-24_16h15.45.834,LearnStrategy,2023.2.3,Win32,58.82352941,9,1,10,-0.532407407,-0.251851852,1,0,0,0.765,Diorite_12,3,12,2,1,0.765,0.083333333,-0.253703704,1,0,0,0.69,Diorite_rect,3,0.69,1,9,0,9,0,1,,,,,,,,,,,,,
610cd5f2b38b2d1bffe55477,SCN,2024-06-24_16h15.45.834,LearnStrategy,2023.2.3,Win32,58.82352941,9,1,11,-0.498148148,-0.062037037,1,0,0,0.865,Gabbro_03,4,03,3,1,0.865,0.361111111,-0.241666667,1,0,0,1.01,Gabbro_rect,4,1.01,1,10,0,10,0,1,,,,,,,,,,,,,
610cd5f2b38b2d1bffe55477,SCN,2024-06-24_16h15.45.834,LearnStrategy,2023.2.3,Win32,58.82352941,9,1,12,-0.202777778,-0.281481481,1,0,0,1.996,Gabbro_10,4,10,2,3,1.996,0.4,-0.257407407,1,0,0,2.758,Gabbro_rect,4,2.758,1,11,0,11,0,1,,,,,,,,,,,,,
610cd5f2b38b2d1bffe55477,SCN,2024-06-24_16h15.45.834,LearnStrategy,2023.2.3,Win32,58.82352941,9,1,13,-0.107407407,-0.287037037,1,0,0,0.665,Andesite_07,1,07,2,4,0.665,-0.359259259,-0.25462963,1,0,0,0.86,Andesite_rect,1,0.86,1,12,0,12,0,1,,,,,,,,,,,,,
610cd5f2b38b2d1bffe55477,SCN,2024-06-24_16h15.45.834,LearnStrategy,2023.2.3,Win32,58.82352941,9,1,14,0.043518519,-0.261111111,1,0,0,0.7,Peridotite_16,7,16,2,5,0.7,0.1,-0.4,1,0,0,0.894,Peridotite_rect,7,0.894,1,13,0,13,0,1,,,,,,,,,,,,,
610cd5f2b38b2d1bffe55477,SCN,2024-06-24_16h15.45.834,LearnStrategy,2023.2.3,Win32,58.82352941,9,1,15,0.25462963,-0.234259259,1,0,0,0.8,Basalt_16,2,16,2,6,0.8,-0.130555556,-0.250925926,1,0,0,1.342,Basalt_rect,2,1.342,1,14,0,14,0,1,,,,,,,,,,,,,
610cd5f2b38b2d1bffe55477,SCN,2024-06-24_16h15.45.834,LearnStrategy,2023.2.3,Win32,58.82352941,9,1,16,0.433333333,-0.285185185,1,0,0,2.717,Pegmatite_13,6,13,2,7,2.717,-0.075925926,-0.39537037,1,0,0,0.693,Pegmatite_rect,6,0.693,1,15,0,15,0,1,,,,,,,,,,,,,
610cd5f2b38b2d1bffe55477,SCN,2024-06-24_16h15.45.834,LearnStrategy,2023.2.3,Win32,58.82352941,9,2,1,,,,,,,,1,02,,,,,,,,,,,1,9.344,1,,,,,,-0.35462963,-0.251851852,1,0,0,9.344,Andesite_rect,0,0,0,0,1,
610cd5f2b38b2d1bffe55477,SCN,2024-06-24_16h15.45.834,LearnStrategy,2023.2.3,Win32,58.82352941,9,2,2,,,,,,,,3,13,,,,,,,,,,,3,1.571,1,,,,,,0.114814815,-0.255555556,1,0,0,1.571,Diorite_rect,1,0,1,0,1,
610cd5f2b38b2d1bffe55477,SCN,2024-06-24_16h15.45.834,LearnStrategy,2023.2.3,Win32,58.82352941,9,2,3,,,,,,,,8,04,,,,,,,,,,,8,0.976,1,,,,,,0.360185185,-0.4,1,0,0,0.976,Pumice_rect,2,0,2,0,1,
610cd5f2b38b2d1bffe55477,SCN,2024-06-24_16h15.45.834,LearnStrategy,2023.2.3,Win32,58.82352941,9,2,4,,,,,,,,1,10,,,,,,,,,,,1,4.844,1,,,,,,-0.392592593,-0.248148148,1,0,0,4.844,Andesite_rect,3,0,3,0,1,
610cd5f2b38b2d1bffe55477,SCN,2024-06-24_16h15.45.834,LearnStrategy,2023.2.3,Win32,58.82352941,9,2,5,,,,,,,,5,04,,,,,,,,,,,5,0.955,1,,,,,,-0.393518519,-0.391666667,1,0,0,0.955,Obsidian_rect,4,0,4,0,1,
610cd5f2b38b2d1bffe55477,SCN,2024-06-24_16h15.45.834,LearnStrategy,2023.2.3,Win32,58.82352941,9,2,6,,,,,,,,3,15,,,,,,,,,,,3,3.33,1,,,,,,0.05462963,-0.244444444,1,0,0,3.33,Diorite_rect,5,0,5,0,1,
610cd5f2b38b2d1bffe55477,SCN,2024-06-24_16h15.45.834,LearnStrategy,2023.2.3,Win32,58.82352941,9,2,7,,,,,,,,5,08,,,,,,,,,,,5,0.905,1,,,,,,-0.387962963,-0.402777778,1,0,0,0.905,Obsidian_rect,6,0,6,0,1,
610cd5f2b38b2d1bffe55477,SCN,2024-06-24_16h15.45.834,LearnStrategy,2023.2.3,Win32,58.82352941,9,2,8,,,,,,,,4,15,,,,,,,,,,,3,4.194,0,,,,,,0.065740741,-0.237037037,1,0,0,4.194,Diorite_rect,7,0,7,0,1,
610cd5f2b38b2d1bffe55477,SCN,2024-06-24_16h15.45.834,LearnStrategy,2023.2.3,Win32,58.82352941,9,2,9,,,,,,,,8,06,,,,,,,,,,,8,1.223,1,,,,,,0.321296296,-0.387962963,1,0,0,1.223,Pumice_rect,8,0,8,0,1,
610cd5f2b38b2d1bffe55477,SCN,2024-06-24_16h15.45.834,LearnStrategy,2023.2.3,Win32,58.82352941,9,2,10,,,,,,,,2,09,,,,,,,,,,,2,1.376,1,,,,,,-0.15462963,-0.260185185,1,0,0,1.376,Basalt_rect,9,0,9,0,1,
610cd5f2b38b2d1bffe55477,SCN,2024-06-24_16h15.45.834,LearnStrategy,2023.2.3,Win32,58.82352941,9,2,11,,,,,,,,7,02,,,,,,,,,,,7,0.894,1,,,,,,0.100925926,-0.409259259,1,0,0,0.894,Peridotite_rect,10,0,10,0,1,
610cd5f2b38b2d1bffe55477,SCN,2024-06-24_16h15.45.834,LearnStrategy,2023.2.3,Win32,58.82352941,9,2,12,,,,,,,,4,16,,,,,,,,,,,4,2.16,1,,,,,,0.371296296,-0.251851852,1,0,0,2.16,Gabbro_rect,11,0,11,0,1,
610cd5f2b38b2d1bffe55477,SCN,2024-06-24_16h15.45.834,LearnStrategy,2023.2.3,Win32,58.82352941,9,2,13,,,,,,,,6,15,,,,,,,,,,,6,0.944,1,,,,,,-0.156481481,-0.393518519,1,0,0,0.944,Pegmatite_rect,12,0,12,0,1,
610cd5f2b38b2d1bffe55477,SCN,2024-06-24_16h15.45.834,LearnStrategy,2023.2.3,Win32,58.82352941,9,2,14,,,,,,,,7,10,,,,,,,,,,,7,0.877,1,,,,,,0.080555556,-0.387037037,1,0,0,0.877,Peridotite_rect,13,0,13,0,1,
610cd5f2b38b2d1bffe55477,SCN,2024-06-24_16h15.45.834,LearnStrategy,2023.2.3,Win32,58.82352941,9,2,15,,,,,,,,6,07,,,,,,,,,,,6,1.137,1,,,,,,-0.108333333,-0.390740741,1,0,0,1.137,Pegmatite_rect,14,0,14,0,1,
610cd5f2b38b2d1bffe55477,SCN,2024-06-24_16h15.45.834,LearnStrategy,2023.2.3,Win32,58.82352941,9,2,16,,,,,,,,2,10,,,,,,,,,,,2,0.961,1,,,,,,-0.144444444,-0.262037037,1,0,0,0.961,Basalt_rect,15,0,15,0,1,
610cd5f2b38b2d1bffe55477,SCN,2024-06-24_16h15.45.834,LearnStrategy,2023.2.3,Win32,58.82352941,,,,,,,,,,,,,,,,,,,,,,,,,,,,,,,,,,,,,,,,,,,1
610cd5f2b38b2d1bffe55477,SCN,2024-06-24_16h15.45.834,LearnStrategy,2023.2.3,Win32,58.82352941,,,,,,,,,,,,,,,,,,,,,,,,,,,,,,,,,,,,,,,,,,,
610cd5f2b38b2d1bffe55477,SCN,2024-06-24_16h15.45.834,LearnStrategy,2023.2.3,Win32,58.82352941,,,,,,,,,,,8,14,1,1,,,,,,,,,,,,,,,,,,,,,,,,,,,,,
610cd5f2b38b2d1bffe55477,SCN,2024-06-24_16h15.45.834,LearnStrategy,2023.2.3,Win32,58.82352941,,,,,,,,,,,7,04,1,2,,,,,,,,,,,,,,,,,,,,,,,,,,,,,
610cd5f2b38b2d1bffe55477,SCN,2024-06-24_16h15.45.834,LearnStrategy,2023.2.3,Win32,58.82352941,,,,,,,,,,,2,11,1,3,,,,,,,,,,,,,,,,,,,,,,,,,,,,,
610cd5f2b38b2d1bffe55477,SCN,2024-06-24_16h15.45.834,LearnStrategy,2023.2.3,Win32,58.82352941,,,,,,,,,,,6,09,1,4,,,,,,,,,,,,,,,,,,,,,,,,,,,,,
610cd5f2b38b2d1bffe55477,SCN,2024-06-24_16h15.45.834,LearnStrategy,2023.2.3,Win32,58.82352941,,,,,,,,,,,8,08,1,5,,,,,,,,,,,,,,,,,,,,,,,,,,,,,
610cd5f2b38b2d1bffe55477,SCN,2024-06-24_16h15.45.834,LearnStrategy,2023.2.3,Win32,58.82352941,,,,,,,,,,,2,05,1,6,,,,,,,,,,,,,,,,,,,,,,,,,,,,,
610cd5f2b38b2d1bffe55477,SCN,2024-06-24_16h15.45.834,LearnStrategy,2023.2.3,Win32,58.82352941,,,,,,,,,,,3,11,1,7,,,,,,,,,,,,,,,,,,,,,,,,,,,,,
610cd5f2b38b2d1bffe55477,SCN,2024-06-24_16h15.45.834,LearnStrategy,2023.2.3,Win32,58.82352941,,,,,,,,,,,2,01,1,8,,,,,,,,,,,,,,,,,,,,,,,,,,,,,
610cd5f2b38b2d1bffe55477,SCN,2024-06-24_16h15.45.834,LearnStrategy,2023.2.3,Win32,58.82352941,,,,,,,,,,,3,12,2,1,,,,,,,,,,,,,,,,,,,,,,,,,,,,,
610cd5f2b38b2d1bffe55477,SCN,2024-06-24_16h15.45.834,LearnStrategy,2023.2.3,Win32,58.82352941,,,,,,,,,,,1,16,2,2,,,,,,,,,,,,,,,,,,,,,,,,,,,,,
610cd5f2b38b2d1bffe55477,SCN,2024-06-24_16h15.45.834,LearnStrategy,2023.2.3,Win32,58.82352941,,,,,,,,,,,4,10,2,3,,,,,,,,,,,,,,,,,,,,,,,,,,,,,
610cd5f2b38b2d1bffe55477,SCN,2024-06-24_16h15.45.834,LearnStrategy,2023.2.3,Win32,58.82352941,,,,,,,,,,,1,07,2,4,,,,,,,,,,,,,,,,,,,,,,,,,,,,,
610cd5f2b38b2d1bffe55477,SCN,2024-06-24_16h15.45.834,LearnStrategy,2023.2.3,Win32,58.82352941,,,,,,,,,,,7,16,2,5,,,,,,,,,,,,,,,,,,,,,,,,,,,,,
610cd5f2b38b2d1bffe55477,SCN,2024-06-24_16h15.45.834,LearnStrategy,2023.2.3,Win32,58.82352941,,,,,,,,,,,2,16,2,6,,,,,,,,,,,,,,,,,,,,,,,,,,,,,
610cd5f2b38b2d1bffe55477,SCN,2024-06-24_16h15.45.834,LearnStrategy,2023.2.3,Win32,58.82352941,,,,,,,,,,,6,13,2,7,,,,,,,,,,,,,,,,,,,,,,,,,,,,,
610cd5f2b38b2d1bffe55477,SCN,2024-06-24_16h15.45.834,LearnStrategy,2023.2.3,Win32,58.82352941,,,,,,,,,,,5,16,2,8,,,,,,,,,,,,,,,,,,,,,,,,,,,,,
610cd5f2b38b2d1bffe55477,SCN,2024-06-24_16h15.45.834,LearnStrategy,2023.2.3,Win32,58.82352941,,,,,,,,,,,4,03,3,1,,,,,,,,,,,,,,,,,,,,,,,,,,,,,
610cd5f2b38b2d1bffe55477,SCN,2024-06-24_16h15.45.834,LearnStrategy,2023.2.3,Win32,58.82352941,,,,,,,,,,,6,16,3,2,,,,,,,,,,,,,,,,,,,,,,,,,,,,,
610cd5f2b38b2d1bffe55477,SCN,2024-06-24_16h15.45.834,LearnStrategy,2023.2.3,Win32,58.82352941,,,,,,,,,,,2,02,3,3,,,,,,,,,,,,,,,,,,,,,,,,,,,,,
610cd5f2b38b2d1bffe55477,SCN,2024-06-24_16h15.45.834,LearnStrategy,2023.2.3,Win32,58.82352941,,,,,,,,,,,5,14,3,4,,,,,,,,,,,,,,,,,,,,,,,,,,,,,
610cd5f2b38b2d1bffe55477,SCN,2024-06-24_16h15.45.834,LearnStrategy,2023.2.3,Win32,58.82352941,,,,,,,,,,,5,10,3,5,,,,,,,,,,,,,,,,,,,,,,,,,,,,,
610cd5f2b38b2d1bffe55477,SCN,2024-06-24_16h15.45.834,LearnStrategy,2023.2.3,Win32,58.82352941,,,,,,,,,,,4,14,3,6,,,,,,,,,,,,,,,,,,,,,,,,,,,,,
610cd5f2b38b2d1bffe55477,SCN,2024-06-24_16h15.45.834,LearnStrategy,2023.2.3,Win32,58.82352941,,,,,,,,,,,4,08,3,7,,,,,,,,,,,,,,,,,,,,,,,,,,,,,
610cd5f2b38b2d1bffe55477,SCN,2024-06-24_16h15.45.834,LearnStrategy,2023.2.3,Win32,58.82352941,,,,,,,,,,,5,02,3,8,,,,,,,,,,,,,,,,,,,,,,,,,,,,,
610cd5f2b38b2d1bffe55477,SCN,2024-06-24_16h15.45.834,LearnStrategy,2023.2.3,Win32,58.82352941,,,,,,,,,,,8,02,4,1,,,,,,,,,,,,,,,,,,,,,,,,,,,,,
610cd5f2b38b2d1bffe55477,SCN,2024-06-24_16h15.45.834,LearnStrategy,2023.2.3,Win32,58.82352941,,,,,,,,,,,5,12,4,2,,,,,,,,,,,,,,,,,,,,,,,,,,,,,
610cd5f2b38b2d1bffe55477,SCN,2024-06-24_16h15.45.834,LearnStrategy,2023.2.3,Win32,58.82352941,,,,,,,,,,,3,14,4,3,,,,,,,,,,,,,,,,,,,,,,,,,,,,,
610cd5f2b38b2d1bffe55477,SCN,2024-06-24_16h15.45.834,LearnStrategy,2023.2.3,Win32,58.82352941,,,,,,,,,,,6,12,4,4,,,,,,,,,,,,,,,,,,,,,,,,,,,,,
610cd5f2b38b2d1bffe55477,SCN,2024-06-24_16h15.45.834,LearnStrategy,2023.2.3,Win32,58.82352941,,,,,,,,,,,6,11,4,5,,,,,,,,,,,,,,,,,,,,,,,,,,,,,
610cd5f2b38b2d1bffe55477,SCN,2024-06-24_16h15.45.834,LearnStrategy,2023.2.3,Win32,58.82352941,,,,,,,,,,,1,05,4,6,,,,,,,,,,,,,,,,,,,,,,,,,,,,,
610cd5f2b38b2d1bffe55477,SCN,2024-06-24_16h15.45.834,LearnStrategy,2023.2.3,Win32,58.82352941,,,,,,,,,,,4,11,4,7,,,,,,,,,,,,,,,,,,,,,,,,,,,,,
610cd5f2b38b2d1bffe55477,SCN,2024-06-24_16h15.45.834,LearnStrategy,2023.2.3,Win32,58.82352941,,,,,,,,,,,3,10,4,8,,,,,,,,,,,,,,,,,,,,,,,,,,,,,
610cd5f2b38b2d1bffe55477,SCN,2024-06-24_16h15.45.834,LearnStrategy,2023.2.3,Win32,58.82352941,,,,,,,,,,,3,09,5,1,,,,,,,,,,,,,,,,,,,,,,,,,,,,,
610cd5f2b38b2d1bffe55477,SCN,2024-06-24_16h15.45.834,LearnStrategy,2023.2.3,Win32,58.82352941,,,,,,,,,,,7,05,5,2,,,,,,,,,,,,,,,,,,,,,,,,,,,,,
610cd5f2b38b2d1bffe55477,SCN,2024-06-24_16h15.45.834,LearnStrategy,2023.2.3,Win32,58.82352941,,,,,,,,,,,8,10,5,3,,,,,,,,,,,,,,,,,,,,,,,,,,,,,
610cd5f2b38b2d1bffe55477,SCN,2024-06-24_16h15.45.834,LearnStrategy,2023.2.3,Win32,58.82352941,,,,,,,,,,,8,13,5,4,,,,,,,,,,,,,,,,,,,,,,,,,,,,,
610cd5f2b38b2d1bffe55477,SCN,2024-06-24_16h15.45.834,LearnStrategy,2023.2.3,Win32,58.82352941,,,,,,,,,,,5,06,5,5,,,,,,,,,,,,,,,,,,,,,,,,,,,,,
610cd5f2b38b2d1bffe55477,SCN,2024-06-24_16h15.45.834,LearnStrategy,2023.2.3,Win32,58.82352941,,,,,,,,,,,7,15,5,6,,,,,,,,,,,,,,,,,,,,,,,,,,,,,
610cd5f2b38b2d1bffe55477,SCN,2024-06-24_16h15.45.834,LearnStrategy,2023.2.3,Win32,58.82352941,,,,,,,,,,,1,04,5,7,,,,,,,,,,,,,,,,,,,,,,,,,,,,,
610cd5f2b38b2d1bffe55477,SCN,2024-06-24_16h15.45.834,LearnStrategy,2023.2.3,Win32,58.82352941,,,,,,,,,,,7,14,5,8,,,,,,,,,,,,,,,,,,,,,,,,,,,,,
610cd5f2b38b2d1bffe55477,SCN,2024-06-24_16h15.45.834,LearnStrategy,2023.2.3,Win32,58.82352941,,,,,,,,,,,1,01,6,1,,,,,,,,,,,,,,,,,,,,,,,,,,,,,
610cd5f2b38b2d1bffe55477,SCN,2024-06-24_16h15.45.834,LearnStrategy,2023.2.3,Win32,58.82352941,,,,,,,,,,,2,08,6,2,,,,,,,,,,,,,,,,,,,,,,,,,,,,,
610cd5f2b38b2d1bffe55477,SCN,2024-06-24_16h15.45.834,LearnStrategy,2023.2.3,Win32,58.82352941,,,,,,,,,,,6,08,6,3,,,,,,,,,,,,,,,,,,,,,,,,,,,,,
610cd5f2b38b2d1bffe55477,SCN,2024-06-24_16h15.45.834,LearnStrategy,2023.2.3,Win32,58.82352941,,,,,,,,,,,4,05,6,4,,,,,,,,,,,,,,,,,,,,,,,,,,,,,
610cd5f2b38b2d1bffe55477,SCN,2024-06-24_16h15.45.834,LearnStrategy,2023.2.3,Win32,58.82352941,,,,,,,,,,,3,06,6,5,,,,,,,,,,,,,,,,,,,,,,,,,,,,,
610cd5f2b38b2d1bffe55477,SCN,2024-06-24_16h15.45.834,LearnStrategy,2023.2.3,Win32,58.82352941,,,,,,,,,,,8,05,6,6,,,,,,,,,,,,,,,,,,,,,,,,,,,,,
610cd5f2b38b2d1bffe55477,SCN,2024-06-24_16h15.45.834,LearnStrategy,2023.2.3,Win32,58.82352941,,,,,,,,,,,7,12,6,7,,,,,,,,,,,,,,,,,,,,,,,,,,,,,
610cd5f2b38b2d1bffe55477,SCN,2024-06-24_16h15.45.834,LearnStrategy,2023.2.3,Win32,58.82352941,,,,,,,,,,,1,06,6,8,,,,,,,,,,,,,,,,,,,,,,,,,,,,,