participant,condition,date,expName,psychopyVersion,OS,frameRate,block,phase,trial,learn_mouse_2.x,learn_mouse_2.y,learn_mouse_2.leftButton,learn_mouse_2.midButton,learn_mouse_2.rightButton,learn_mouse_2.time,learn_mouse_2.clicked_name,cat,token,row,col,t_select,cat_mouse_l.x,cat_mouse_l.y,cat_mouse_l.leftButton,cat_mouse_l.midButton,cat_mouse_l.rightButton,cat_mouse_l.time,cat_mouse_l.clicked_name,resp,t_resp,corr,train_trials.thisRepN,train_trials.thisTrialN,train_trials.thisN,train_trials.thisIndex,train_trials.ran,cat_mouse_t.x,cat_mouse_t.y,cat_mouse_t.leftButton,cat_mouse_t.midButton,cat_mouse_t.rightButton,cat_mouse_t.time,cat_mouse_t.clicked_name,test_trials.thisRepN,test_trials.thisTrialN,test_trials.thisN,test_trials.thisIndex,test_trials.ran,Bonus
611830fe665c7b68723910b3,TCR,2024-06-26_11h16.13.910,LearnStrategy,2023.2.3,Win32,59.52380952,,,,,,,,,,,,,,,,,,,,,,,,,,,,,,,,,,,,,,,,,,,
611830fe665c7b68723910b3,TCR,2024-06-26_11h16.13.910,LearnStrategy,2023.2.3,Win32,59.52380952,1,1,1,0.007638931,0.011111101,1,0,0,2.9846,rock_grid_rect_2,7,07,-1,-1,2.985,-0.125,-0.256250011,1,0,0,2.7888,Basalt_rect,2,2.789,0,0,0,0,0,1,,,,,,,,,,,,,
611830fe665c7b68723910b3,TCR,2024-06-26_11h16.13.910,LearnStrategy,2023.2.3,Win32,59.52380952,1,1,2,0.048611111,-0.006250011,1,0,0,2.4172,rock_grid_rect_2,3,06,-1,-1,2.417,-0.341666645,-0.265972243,1,0,0,5.5506,Andesite_rect,1,5.551,0,1,0,1,0,1,,,,,,,,,,,,,
611830fe665c7b68723910b3,TCR,2024-06-26_11h16.13.910,LearnStrategy,2023.2.3,Win32,59.52380952,1,1,3,0.022916688,0.003472222,1,0,0,1.7334,rock_grid_rect_2,6,10,-1,-1,1.733,-0.082638899,-0.40138891,1,0,0,3.9164,Pegmatite_rect,6,3.916,1,2,0,2,0,1,,,,,,,,,,,,,
611830fe665c7b68723910b3,TCR,2024-06-26_11h16.13.910,LearnStrategy,2023.2.3,Win32,59.52380952,1,1,4,0.093055619,-0.008333365,1,0,0,1.4165,rock_grid_rect_2,2,09,-1,-1,1.417,-0.310416645,-0.397222201,1,0,0,5.8847,Obsidian_rect,5,5.885,0,3,0,3,0,1,,,,,,,,,,,,,
611830fe665c7b68723910b3,TCR,2024-06-26_11h16.13.910,LearnStrategy,2023.2.3,Win32,59.52380952,1,1,5,0.090277778,-0.002777788,1,0,0,2.0505,rock_grid_rect_2,1,05,-1,-1,2.05,0.135416667,-0.397916688,1,0,0,4.5334,Peridotite_rect,7,4.533,0,4,0,4,0,1,,,,,,,,,,,,,
611830fe665c7b68723910b3,TCR,2024-06-26_11h16.13.910,LearnStrategy,2023.2.3,Win32,59.52380952,1,1,6,0.080555598,-0.009722233,1,0,0,1.8502,rock_grid_rect_2,7,05,-1,-1,1.85,-0.074305534,-0.418055534,1,0,0,4.7839,Pegmatite_rect,6,4.784,0,5,0,5,0,1,,,,,,,,,,,,,
611830fe665c7b68723910b3,TCR,2024-06-26_11h16.13.910,LearnStrategy,2023.2.3,Win32,59.52380952,1,1,7,0.039583312,0.003472222,1,0,0,1.8999,rock_grid_rect_2,8,09,-1,-1,1.9,0.399305556,-0.392361111,1,0,0,2.0646,Pumice_rect,8,2.065,1,6,0,6,0,1,,,,,,,,,,,,,
611830fe665c7b68723910b3,TCR,2024-06-26_11h16.13.910,LearnStrategy,2023.2.3,Win32,59.52380952,1,1,8,0.040277799,-0.016666677,1,0,0,1.5336,rock_grid_rect_2,5,14,-1,-1,1.534,-0.361111111,-0.413194444,1,0,0,1.8477,Obsidian_rect,5,1.848,1,7,0,7,0,1,,,,,,,,,,,,,
611830fe665c7b68723910b3,TCR,2024-06-26_11h16.13.910,LearnStrategy,2023.2.3,Win32,59.52380952,1,1,9,0.02638891,0.001388868,1,0,0,1.5338,rock_grid_rect_2,6,05,-1,-1,1.534,-0.34375,-0.407638868,1,0,0,3.7664,Obsidian_rect,5,3.766,0,8,0,8,0,1,,,,,,,,,,,,,
611830fe665c7b68723910b3,TCR,2024-06-26_11h16.13.910,LearnStrategy,2023.2.3,Win32,59.52380952,1,1,10,0.072916667,0.009722233,1,0,0,1.4335,rock_grid_rect_2,2,02,-1,-1,1.434,-0.361111111,-0.229166667,1,0,0,4.2834,Andesite_rect,1,4.283,0,9,0,9,0,1,,,,,,,,,,,,,
611830fe665c7b68723910b3,TCR,2024-06-26_11h16.13.910,LearnStrategy,2023.2.3,Win32,59.52380952,1,1,11,0.042361153,-0.000694434,1,0,0,1.8005,rock_grid_rect_2,8,15,-1,-1,1.8,0.34861109,-0.404861132,1,0,0,6.1013,Pumice_rect,8,6.101,1,10,0,10,0,1,,,,,,,,,,,,,
611830fe665c7b68723910b3,TCR,2024-06-26_11h16.13.910,LearnStrategy,2023.2.3,Win32,59.52380952,1,1,12,0.03611109,0.021527767,1,0,0,1.4835,rock_grid_rect_2,3,14,-1,-1,1.483,0.122222265,-0.261111101,1,0,0,1.9644,Diorite_rect,3,1.964,1,11,0,11,0,1,,,,,,,,,,,,,
611830fe665c7b68723910b3,TCR,2024-06-26_11h16.13.910,LearnStrategy,2023.2.3,Win32,59.52380952,1,1,13,0.020138952,0.000694434,1,0,0,1.3783,rock_grid_rect_2,4,13,-1,-1,1.378,0.075694508,-0.397222201,1,0,0,4.2997,Peridotite_rect,7,4.3,0,12,0,12,0,1,,,,,,,,,,,,,
611830fe665c7b68723910b3,TCR,2024-06-26_11h16.13.910,LearnStrategy,2023.2.3,Win32,59.52380952,1,1,14,0.02152782,0.004166656,1,0,0,1.8338,rock_grid_rect_2,1,09,-1,-1,1.834,-0.34375,-0.243749989,1,0,0,3.9164,Andesite_rect,1,3.916,1,13,0,13,0,1,,,,,,,,,,,,,
611830fe665c7b68723910b3,TCR,2024-06-26_11h16.13.910,LearnStrategy,2023.2.3,Win32,59.52380952,1,1,15,-0.020833333,-0.005555577,1,0,0,1.1662,rock_grid_rect_2,5,09,-1,-1,1.166,-0.428472201,-0.394444466,1,0,0,2.1816,Obsidian_rect,5,2.182,1,14,0,14,0,1,,,,,,,,,,,,,
611830fe665c7b68723910b3,TCR,2024-06-26_11h16.13.910,LearnStrategy,2023.2.3,Win32,59.52380952,1,1,16,0.138888889,-0.013194455,1,0,0,3.1682,rock_grid_rect_2,4,15,-1,-1,3.168,0.103472286,-0.403472265,1,0,0,6.4179,Peridotite_rect,7,6.418,0,15,0,15,0,1,,,,,,,,,,,,,
611830fe665c7b68723910b3,TCR,2024-06-26_11h16.13.910,LearnStrategy,2023.2.3,Win32,59.52380952,1,2,1,,,,,,,,6,15,,,,,,,,,,,4,7.685,0,,,,,,0.315972222,-0.241666688,1,0,0,7.6854,Gabbro_rect,0,0,0,0,1,
611830fe665c7b68723910b3,TCR,2024-06-26_11h16.13.910,LearnStrategy,2023.2.3,Win32,59.52380952,1,2,2,,,,,,,,4,09,,,,,,,,,,,2,6.652,0,,,,,,-0.076388889,-0.259027799,1,0,0,6.6517,Basalt_rect,1,0,1,0,1,
611830fe665c7b68723910b3,TCR,2024-06-26_11h16.13.910,LearnStrategy,2023.2.3,Win32,59.52380952,1,2,3,,,,,,,,3,09,,,,,,,,,,,1,6.318,0,,,,,,-0.42222219,-0.259027799,1,0,0,6.318,Andesite_rect,2,0,2,0,1,
611830fe665c7b68723910b3,TCR,2024-06-26_11h16.13.910,LearnStrategy,2023.2.3,Win32,59.52380952,1,2,4,,,,,,,,4,14,,,,,,,,,,,6,8.753,0,,,,,,-0.114583333,-0.388888889,1,0,0,8.7534,Pegmatite_rect,3,0,3,0,1,
611830fe665c7b68723910b3,TCR,2024-06-26_11h16.13.910,LearnStrategy,2023.2.3,Win32,59.52380952,1,2,5,,,,,,,,7,13,,,,,,,,,,,3,3.499,0,,,,,,0.11527782,-0.261805587,1,0,0,3.499,Diorite_rect,4,0,4,0,1,
611830fe665c7b68723910b3,TCR,2024-06-26_11h16.13.910,LearnStrategy,2023.2.3,Win32,59.52380952,1,2,6,,,,,,,,2,04,,,,,,,,,,,2,3.316,1,,,,,,-0.095138868,-0.266666677,1,0,0,3.3155,Basalt_rect,5,0,5,0,1,
611830fe665c7b68723910b3,TCR,2024-06-26_11h16.13.910,LearnStrategy,2023.2.3,Win32,59.52380952,1,2,7,,,,,,,,2,01,,,,,,,,,,,2,2.999,1,,,,,,-0.101388878,-0.256944444,1,0,0,2.9986,Basalt_rect,6,0,6,0,1,
611830fe665c7b68723910b3,TCR,2024-06-26_11h16.13.910,LearnStrategy,2023.2.3,Win32,59.52380952,1,2,8,,,,,,,,7,04,,,,,,,,,,,4,3.582,0,,,,,,0.404166645,-0.246527778,1,0,0,3.5824,Gabbro_rect,7,0,7,0,1,
611830fe665c7b68723910b3,TCR,2024-06-26_11h16.13.910,LearnStrategy,2023.2.3,Win32,59.52380952,1,2,9,,,,,,,,5,11,,,,,,,,,,,5,1.564,1,,,,,,-0.441666656,-0.413194444,1,0,0,1.5635,Obsidian_rect,8,0,8,0,1,
611830fe665c7b68723910b3,TCR,2024-06-26_11h16.13.910,LearnStrategy,2023.2.3,Win32,59.52380952,1,2,10,,,,,,,,1,01,,,,,,,,,,,7,6.168,0,,,,,,0.109722243,-0.399305556,1,0,0,6.1681,Peridotite_rect,9,0,9,0,1,
611830fe665c7b68723910b3,TCR,2024-06-26_11h16.13.910,LearnStrategy,2023.2.3,Win32,59.52380952,1,2,11,,,,,,,,6,09,,,,,,,,,,,1,3.432,0,,,,,,-0.450694429,-0.236805545,1,0,0,3.4322,Andesite_rect,10,0,10,0,1,
611830fe665c7b68723910b3,TCR,2024-06-26_11h16.13.910,LearnStrategy,2023.2.3,Win32,59.52380952,1,2,12,,,,,,,,3,07,,,,,,,,,,,3,2.598,1,,,,,,0.129166709,-0.248611132,1,0,0,2.5982,Diorite_rect,11,0,11,0,1,
611830fe665c7b68723910b3,TCR,2024-06-26_11h16.13.910,LearnStrategy,2023.2.3,Win32,59.52380952,1,2,13,,,,,,,,5,06,,,,,,,,,,,5,2.715,1,,,,,,-0.395138899,-0.381250011,1,0,0,2.7149,Obsidian_rect,12,0,12,0,1,
611830fe665c7b68723910b3,TCR,2024-06-26_11h16.13.910,LearnStrategy,2023.2.3,Win32,59.52380952,1,2,14,,,,,,,,1,06,,,,,,,,,,,6,2.749,0,,,,,,-0.129166656,-0.415277799,1,0,0,2.7485,Pegmatite_rect,13,0,13,0,1,
611830fe665c7b68723910b3,TCR,2024-06-26_11h16.13.910,LearnStrategy,2023.2.3,Win32,59.52380952,1,2,15,,,,,,,,8,04,,,,,,,,,,,8,1.697,1,,,,,,0.404166645,-0.40625,1,0,0,1.6974,Pumice_rect,14,0,14,0,1,
611830fe665c7b68723910b3,TCR,2024-06-26_11h16.13.910,LearnStrategy,2023.2.3,Win32,59.52380952,1,2,16,,,,,,,,8,02,,,,,,,,,,,8,1.648,1,,,,,,0.443055577,-0.393055598,1,0,0,1.6475,Pumice_rect,15,0,15,0,1,
611830fe665c7b68723910b3,TCR,2024-06-26_11h16.13.910,LearnStrategy,2023.2.3,Win32,59.52380952,2,1,1,-0.002083302,0.006250011,1,0,0,1.6627,rock_grid_rect_2,1,02,-1,-1,1.663,0.121527778,-0.260416667,1,0,0,2.9061,Diorite_rect,3,2.906,0,0,0,0,0,1,,,,,,,,,,,,,
611830fe665c7b68723910b3,TCR,2024-06-26_11h16.13.910,LearnStrategy,2023.2.3,Win32,59.52380952,2,1,2,0.025694423,-0.008333365,1,0,0,1.5836,rock_grid_rect_2,7,02,-1,-1,1.584,0.144444466,-0.409027841,1,0,0,3.59,Peridotite_rect,7,3.59,1,1,0,1,0,1,,,,,,,,,,,,,
611830fe665c7b68723910b3,TCR,2024-06-26_11h16.13.910,LearnStrategy,2023.2.3,Win32,59.52380952,2,1,3,-0.021527767,0.010416667,1,0,0,1.8961,rock_grid_rect_2,7,05,-1,-1,1.896,0.075000021,-0.239583333,1,0,0,2.6893,Diorite_rect,3,2.689,0,2,0,2,0,1,,,,,,,,,,,,,
611830fe665c7b68723910b3,TCR,2024-06-26_11h16.13.910,LearnStrategy,2023.2.3,Win32,59.52380952,2,1,4,-0.00486109,0.005555524,1,0,0,1.817,rock_grid_rect_2,6,10,-1,-1,1.817,-0.403472212,-0.25,1,0,0,3.1234,Andesite_rect,1,3.123,0,3,0,3,0,1,,,,,,,,,,,,,
611830fe665c7b68723910b3,TCR,2024-06-26_11h16.13.910,LearnStrategy,2023.2.3,Win32,59.52380952,2,1,5,0.011805534,-0.017361111,1,0,0,1.1743,rock_grid_rect_2,2,10,-1,-1,1.174,-0.105555534,-0.262500021,1,0,0,2.2314,Basalt_rect,2,2.231,1,4,0,4,0,1,,,,,,,,,,,,,
611830fe665c7b68723910b3,TCR,2024-06-26_11h16.13.910,LearnStrategy,2023.2.3,Win32,59.52380952,2,1,6,0.009027799,0.011805534,1,0,0,1.324,rock_grid_rect_2,1,02,-1,-1,1.324,0.107638889,-0.230555587,1,0,0,1.8646,Diorite_rect,3,1.865,0,5,0,5,0,1,,,,,,,,,,,,,
611830fe665c7b68723910b3,TCR,2024-06-26_11h16.13.910,LearnStrategy,2023.2.3,Win32,59.52380952,2,1,7,0.094444487,-0.011111101,1,0,0,1.3404,rock_grid_rect_2,1,05,-1,-1,1.34,0.372222265,-0.259027799,1,0,0,3.1501,Gabbro_rect,4,3.15,0,6,0,6,0,1,,,,,,,,,,,,,
611830fe665c7b68723910b3,TCR,2024-06-26_11h16.13.910,LearnStrategy,2023.2.3,Win32,59.52380952,2,1,8,0.015972243,0.010416667,1,0,0,1.25,rock_grid_rect_2,4,12,-1,-1,1.25,0.093055619,-0.409027841,1,0,0,3.19,Peridotite_rect,7,3.19,0,7,0,7,0,1,,,,,,,,,,,,,
611830fe665c7b68723910b3,TCR,2024-06-26_11h16.13.910,LearnStrategy,2023.2.3,Win32,59.52380952,2,1,9,0.031944487,0.005555524,1,0,0,1.6337,rock_grid_rect_2,7,12,-1,-1,1.634,0.092361132,-0.239583333,1,0,0,1.7051,Diorite_rect,3,1.705,0,8,0,8,0,1,,,,,,,,,,,,,
611830fe665c7b68723910b3,TCR,2024-06-26_11h16.13.910,LearnStrategy,2023.2.3,Win32,59.52380952,2,1,10,0.038888931,0.003472222,1,0,0,1.4002,rock_grid_rect_2,3,15,-1,-1,1.4,-0.095138868,-0.419444508,1,0,0,2.4893,Pegmatite_rect,6,2.489,0,9,0,9,0,1,,,,,,,,,,,,,
611830fe665c7b68723910b3,TCR,2024-06-26_11h16.13.910,LearnStrategy,2023.2.3,Win32,59.52380952,2,1,11,0.092361132,0,1,0,0,1.6167,rock_grid_rect_2,6,05,-1,-1,1.617,-0.443055524,-0.420138889,1,0,0,2.3558,Obsidian_rect,5,2.356,0,10,0,10,0,1,,,,,,,,,,,,,
611830fe665c7b68723910b3,TCR,2024-06-26_11h16.13.910,LearnStrategy,2023.2.3,Win32,59.52380952,2,1,12,0.109027757,0.008333312,1,0,0,1.5241,rock_grid_rect_2,8,15,-1,-1,1.524,0.36527782,-0.395138952,1,0,0,1.8145,Pumice_rect,8,1.815,1,11,0,11,0,1,,,,,,,,,,,,,
611830fe665c7b68723910b3,TCR,2024-06-26_11h16.13.910,LearnStrategy,2023.2.3,Win32,59.52380952,2,1,13,0.08402782,0.000694434,1,0,0,2.8014,rock_grid_rect_2,3,11,-1,-1,2.801,0.385416667,-0.254861143,1,0,0,2.7395,Gabbro_rect,4,2.739,0,12,0,12,0,1,,,,,,,,,,,,,
611830fe665c7b68723910b3,TCR,2024-06-26_11h16.13.910,LearnStrategy,2023.2.3,Win32,59.52380952,2,1,14,0.070138931,0.014583323,1,0,0,1.4578,rock_grid_rect_2,4,13,-1,-1,1.458,0.115972201,-0.413194444,1,0,0,5.334,Peridotite_rect,7,5.334,0,13,0,13,0,1,,,,,,,,,,,,,
611830fe665c7b68723910b3,TCR,2024-06-26_11h16.13.910,LearnStrategy,2023.2.3,Win32,59.52380952,2,1,15,0.036805577,-0.003472222,1,0,0,1.3833,rock_grid_rect_2,4,08,-1,-1,1.383,0.102083312,-0.254861143,1,0,0,3.2733,Diorite_rect,3,3.273,0,14,0,14,0,1,,,,,,,,,,,,,
611830fe665c7b68723910b3,TCR,2024-06-26_11h16.13.910,LearnStrategy,2023.2.3,Win32,59.52380952,2,1,16,0.013194508,-0.013888889,1,0,0,1.5336,rock_grid_rect_2,6,12,-1,-1,1.534,-0.124305566,-0.399305556,1,0,0,2.8397,Pegmatite_rect,6,2.84,1,15,0,15,0,1,,,,,,,,,,,,,
611830fe665c7b68723910b3,TCR,2024-06-26_11h16.13.910,LearnStrategy,2023.2.3,Win32,59.52380952,2,2,1,,,,,,,,8,16,,,,,,,,,,,8,4.274,1,,,,,,0.350000064,-0.415972286,1,0,0,4.2739,Pumice_rect,0,0,0,0,1,
611830fe665c7b68723910b3,TCR,2024-06-26_11h16.13.910,LearnStrategy,2023.2.3,Win32,59.52380952,2,2,2,,,,,,,,4,01,,,,,,,,,,,3,1.952,0,,,,,,0.097916709,-0.259722233,1,0,0,1.9524,Diorite_rect,1,0,1,0,1,
611830fe665c7b68723910b3,TCR,2024-06-26_11h16.13.910,LearnStrategy,2023.2.3,Win32,59.52380952,2,2,3,,,,,,,,5,10,,,,,,,,,,,1,5.482,0,,,,,,-0.422916677,-0.233333323,1,0,0,5.4822,Andesite_rect,2,0,2,0,1,
611830fe665c7b68723910b3,TCR,2024-06-26_11h16.13.910,LearnStrategy,2023.2.3,Win32,59.52380952,2,2,4,,,,,,,,8,06,,,,,,,,,,,8,1.384,1,,,,,,0.483333376,-0.382638878,1,0,0,1.3835,Pumice_rect,3,0,3,0,1,
611830fe665c7b68723910b3,TCR,2024-06-26_11h16.13.910,LearnStrategy,2023.2.3,Win32,59.52380952,2,2,5,,,,,,,,7,14,,,,,,,,,,,4,5.954,0,,,,,,0.405555619,-0.256250011,1,0,0,5.9543,Gabbro_rect,4,0,4,0,1,
611830fe665c7b68723910b3,TCR,2024-06-26_11h16.13.910,LearnStrategy,2023.2.3,Win32,59.52380952,2,2,6,,,,,,,,6,16,,,,,,,,,,,7,4.236,0,,,,,,0.097916709,-0.390972243,1,0,0,4.2365,Peridotite_rect,5,0,5,0,1,
611830fe665c7b68723910b3,TCR,2024-06-26_11h16.13.910,LearnStrategy,2023.2.3,Win32,59.52380952,2,2,7,,,,,,,,2,06,,,,,,,,,,,2,1.851,1,,,,,,-0.166666667,-0.229861101,1,0,0,1.8507,Basalt_rect,6,0,6,0,1,
611830fe665c7b68723910b3,TCR,2024-06-26_11h16.13.910,LearnStrategy,2023.2.3,Win32,59.52380952,2,2,8,,,,,,,,3,12,,,,,,,,,,,3,1.767,1,,,,,,0.114583333,-0.263888889,1,0,0,1.7674,Diorite_rect,7,0,7,0,1,
611830fe665c7b68723910b3,TCR,2024-06-26_11h16.13.910,LearnStrategy,2023.2.3,Win32,59.52380952,2,2,9,,,,,,,,5,02,,,,,,,,,,,5,1.401,1,,,,,,-0.372916645,-0.41111109,1,0,0,1.4011,Obsidian_rect,8,0,8,0,1,
611830fe665c7b68723910b3,TCR,2024-06-26_11h16.13.910,LearnStrategy,2023.2.3,Win32,59.52380952,2,2,10,,,,,,,,6,08,,,,,,,,,,,1,4.053,0,,,,,,-0.340277778,-0.244444476,1,0,0,4.0526,Andesite_rect,9,0,9,0,1,
611830fe665c7b68723910b3,TCR,2024-06-26_11h16.13.910,LearnStrategy,2023.2.3,Win32,59.52380952,2,2,11,,,,,,,,4,05,,,,,,,,,,,2,2.118,0,,,,,,-0.155555566,-0.243055556,1,0,0,2.1177,Basalt_rect,10,0,10,0,1,
611830fe665c7b68723910b3,TCR,2024-06-26_11h16.13.910,LearnStrategy,2023.2.3,Win32,59.52380952,2,2,12,,,,,,,,3,02,,,,,,,,,,,3,5.583,1,,,,,,0.107638889,-0.241666688,1,0,0,5.5826,Diorite_rect,11,0,11,0,1,
611830fe665c7b68723910b3,TCR,2024-06-26_11h16.13.910,LearnStrategy,2023.2.3,Win32,59.52380952,2,2,13,,,,,,,,1,07,,,,,,,,,,,4,1.968,0,,,,,,0.369444423,-0.258333365,1,0,0,1.9675,Gabbro_rect,12,0,12,0,1,
611830fe665c7b68723910b3,TCR,2024-06-26_11h16.13.910,LearnStrategy,2023.2.3,Win32,59.52380952,2,2,14,,,,,,,,1,11,,,,,,,,,,,6,2.368,0,,,,,,-0.151388857,-0.392361111,1,0,0,2.3683,Pegmatite_rect,13,0,13,0,1,
611830fe665c7b68723910b3,TCR,2024-06-26_11h16.13.910,LearnStrategy,2023.2.3,Win32,59.52380952,2,2,15,,,,,,,,7,15,,,,,,,,,,,3,3.703,0,,,,,,0.169444508,-0.259027799,1,0,0,3.7025,Diorite_rect,14,0,14,0,1,
611830fe665c7b68723910b3,TCR,2024-06-26_11h16.13.910,LearnStrategy,2023.2.3,Win32,59.52380952,2,2,16,,,,,,,,2,08,,,,,,,,,,,2,1.334,1,,,,,,-0.111111111,-0.230555587,1,0,0,1.3337,Basalt_rect,15,0,15,0,1,
611830fe665c7b68723910b3,TCR,2024-06-26_11h16.13.910,LearnStrategy,2023.2.3,Win32,59.52380952,3,1,1,0.029861132,0.011805534,1,0,0,1.7965,rock_grid_rect_2,8,03,-1,-1,1.796,0.347222222,-0.408333355,1,0,0,2.1143,Pumice_rect,8,2.114,1,0,0,0,0,1,,,,,,,,,,,,,
611830fe665c7b68723910b3,TCR,2024-06-26_11h16.13.910,LearnStrategy,2023.2.3,Win32,59.52380952,3,1,2,0.053472201,0.00486109,1,0,0,1.3169,rock_grid_rect_2,1,03,-1,-1,1.317,-0.101388878,-0.231250021,1,0,0,1.898,Basalt_rect,2,1.898,0,1,0,1,0,1,,,,,,,,,,,,,
611830fe665c7b68723910b3,TCR,2024-06-26_11h16.13.910,LearnStrategy,2023.2.3,Win32,59.52380952,3,1,3,0.02638891,0.004166656,1,0,0,1.6672,rock_grid_rect_2,2,09,-1,-1,1.667,-0.090972212,-0.249305566,1,0,0,2.0816,Basalt_rect,2,2.082,1,2,0,2,0,1,,,,,,,,,,,,,
611830fe665c7b68723910b3,TCR,2024-06-26_11h16.13.910,LearnStrategy,2023.2.3,Win32,59.52380952,3,1,4,0.019444466,0.006944444,1,0,0,1.4336,rock_grid_rect_2,6,03,-1,-1,1.434,0.126388868,-0.261805587,1,0,0,1.8477,Diorite_rect,3,1.848,0,3,0,3,0,1,,,,,,,,,,,,,
611830fe665c7b68723910b3,TCR,2024-06-26_11h16.13.910,LearnStrategy,2023.2.3,Win32,59.52380952,3,1,5,0.02638891,-0.005555577,1,0,0,1.5505,rock_grid_rect_2,4,08,-1,-1,1.55,0.109722243,-0.40138891,1,0,0,2.8991,Peridotite_rect,7,2.899,0,4,0,4,0,1,,,,,,,,,,,,,
611830fe665c7b68723910b3,TCR,2024-06-26_11h16.13.910,LearnStrategy,2023.2.3,Win32,59.52380952,3,1,6,0.071527799,0.00486109,1,0,0,1.1999,rock_grid_rect_2,5,12,-1,-1,1.2,-0.429861122,-0.418055534,1,0,0,1.6478,Obsidian_rect,5,1.648,1,5,0,5,0,1,,,,,,,,,,,,,
611830fe665c7b68723910b3,TCR,2024-06-26_11h16.13.910,LearnStrategy,2023.2.3,Win32,59.52380952,3,1,7,0.090277778,0.007638878,1,0,0,1.4671,rock_grid_rect_2,1,09,-1,-1,1.467,-0.347916656,-0.234722243,1,0,0,3.016,Andesite_rect,1,3.016,1,6,0,6,0,1,,,,,,,,,,,,,
611830fe665c7b68723910b3,TCR,2024-06-26_11h16.13.910,LearnStrategy,2023.2.3,Win32,59.52380952,3,1,8,-0.00486109,-0.004861143,1,0,0,1.4335,rock_grid_rect_2,7,05,-1,-1,1.434,-0.092361079,-0.410416709,1,0,0,3.3991,Pegmatite_rect,6,3.399,0,7,0,7,0,1,,,,,,,,,,,,,
611830fe665c7b68723910b3,TCR,2024-06-26_11h16.13.910,LearnStrategy,2023.2.3,Win32,59.52380952,3,1,9,0.139583376,0,1,0,0,1.4166,rock_grid_rect_2,4,12,-1,-1,1.417,-0.367361122,-0.236111111,1,0,0,2.0646,Andesite_rect,1,2.065,0,8,0,8,0,1,,,,,,,,,,,,,
611830fe665c7b68723910b3,TCR,2024-06-26_11h16.13.910,LearnStrategy,2023.2.3,Win32,59.52380952,3,1,10,0.081249979,-0.020138899,1,0,0,1.4169,rock_grid_rect_2,3,11,-1,-1,1.417,0.108333376,-0.25,1,0,0,1.9312,Diorite_rect,3,1.931,1,9,0,9,0,1,,,,,,,,,,,,,
611830fe665c7b68723910b3,TCR,2024-06-26_11h16.13.910,LearnStrategy,2023.2.3,Win32,59.52380952,3,1,11,0.09861109,0,1,0,0,1.612,rock_grid_rect_2,7,02,-1,-1,1.612,-0.102777746,-0.406944487,1,0,0,2.7652,Pegmatite_rect,6,2.765,0,10,0,10,0,1,,,,,,,,,,,,,
611830fe665c7b68723910b3,TCR,2024-06-26_11h16.13.910,LearnStrategy,2023.2.3,Win32,59.52380952,3,1,12,0.043055534,0.007638878,1,0,0,1.5336,rock_grid_rect_2,6,12,-1,-1,1.534,0.383333312,-0.240277767,1,0,0,3.2325,Gabbro_rect,4,3.232,0,11,0,11,0,1,,,,,,,,,,,,,
611830fe665c7b68723910b3,TCR,2024-06-26_11h16.13.910,LearnStrategy,2023.2.3,Win32,59.52380952,3,1,13,0.006250064,-0.007638878,1,0,0,1.5171,rock_grid_rect_2,1,14,-1,-1,1.517,0.337500042,-0.261111101,1,0,0,3.0823,Gabbro_rect,4,3.082,0,12,0,12,0,1,,,,,,,,,,,,,
611830fe665c7b68723910b3,TCR,2024-06-26_11h16.13.910,LearnStrategy,2023.2.3,Win32,59.52380952,3,1,14,0.023611175,-0.011805587,1,0,0,2.0672,rock_grid_rect_2,4,11,-1,-1,2.067,0.134027799,-0.261111101,1,0,0,2.0813,Diorite_rect,3,2.081,0,13,0,13,0,1,,,,,,,,,,,,,
611830fe665c7b68723910b3,TCR,2024-06-26_11h16.13.910,LearnStrategy,2023.2.3,Win32,59.52380952,3,1,15,0.024305556,-0.008333365,1,0,0,1.4835,rock_grid_rect_2,7,05,-1,-1,1.484,0.149305556,-0.413888931,1,0,0,4.884,Peridotite_rect,7,4.884,1,14,0,14,0,1,,,,,,,,,,,,,
611830fe665c7b68723910b3,TCR,2024-06-26_11h16.13.910,LearnStrategy,2023.2.3,Win32,59.52380952,3,1,16,0.000694487,0.011805534,1,0,0,1.2329,rock_grid_rect_2,6,03,-1,-1,1.233,-0.083333333,-0.386805587,1,0,0,2.5654,Pegmatite_rect,6,2.565,1,15,0,15,0,1,,,,,,,,,,,,,
611830fe665c7b68723910b3,TCR,2024-06-26_11h16.13.910,LearnStrategy,2023.2.3,Win32,59.52380952,3,2,1,,,,,,,,4,16,,,,,,,,,,,4,4.967,1,,,,,,0.45416673,-0.229861101,1,0,0,4.9671,Gabbro_rect,0,0,0,0,1,
611830fe665c7b68723910b3,TCR,2024-06-26_11h16.13.910,LearnStrategy,2023.2.3,Win32,59.52380952,3,2,2,,,,,,,,8,13,,,,,,,,,,,8,1.631,1,,,,,,0.39166673,-0.384722233,1,0,0,1.6308,Pumice_rect,1,0,1,0,1,
611830fe665c7b68723910b3,TCR,2024-06-26_11h16.13.910,LearnStrategy,2023.2.3,Win32,59.52380952,3,2,3,,,,,,,,5,16,,,,,,,,,,,5,2.398,1,,,,,,-0.399999989,-0.395833333,1,0,0,2.3983,Obsidian_rect,2,0,2,0,1,
611830fe665c7b68723910b3,TCR,2024-06-26_11h16.13.910,LearnStrategy,2023.2.3,Win32,59.52380952,3,2,4,,,,,,,,8,08,,,,,,,,,,,8,1.497,1,,,,,,0.394444466,-0.386805587,1,0,0,1.4975,Pumice_rect,3,0,3,0,1,
611830fe665c7b68723910b3,TCR,2024-06-26_11h16.13.910,LearnStrategy,2023.2.3,Win32,59.52380952,3,2,5,,,,,,,,7,16,,,,,,,,,,,1,5.084,0,,,,,,-0.360416677,-0.244444476,1,0,0,5.084,Andesite_rect,4,0,4,0,1,
611830fe665c7b68723910b3,TCR,2024-06-26_11h16.13.910,LearnStrategy,2023.2.3,Win32,59.52380952,3,2,6,,,,,,,,6,07,,,,,,,,,,,3,3.482,0,,,,,,0.124305619,-0.254166656,1,0,0,3.4823,Diorite_rect,5,0,5,0,1,
611830fe665c7b68723910b3,TCR,2024-06-26_11h16.13.910,LearnStrategy,2023.2.3,Win32,59.52380952,3,2,7,,,,,,,,2,16,,,,,,,,,,,2,2.749,1,,,,,,-0.160416656,-0.26527781,1,0,0,2.7486,Basalt_rect,6,0,6,0,1,
611830fe665c7b68723910b3,TCR,2024-06-26_11h16.13.910,LearnStrategy,2023.2.3,Win32,59.52380952,3,2,8,,,,,,,,4,03,,,,,,,,,,,1,3.683,0,,,,,,-0.440972222,-0.231250021,1,0,0,3.6827,Andesite_rect,7,0,7,0,1,
611830fe665c7b68723910b3,TCR,2024-06-26_11h16.13.910,LearnStrategy,2023.2.3,Win32,59.52380952,3,2,9,,,,,,,,7,10,,,,,,,,,,,7,2.498,1,,,,,,0.084722201,-0.413194444,1,0,0,2.4983,Peridotite_rect,8,0,8,0,1,
611830fe665c7b68723910b3,TCR,2024-06-26_11h16.13.910,LearnStrategy,2023.2.3,Win32,59.52380952,3,2,10,,,,,,,,1,16,,,,,,,,,,,3,4.7,0,,,,,,0.150694423,-0.247222212,1,0,0,4.7003,Diorite_rect,9,0,9,0,1,
611830fe665c7b68723910b3,TCR,2024-06-26_11h16.13.910,LearnStrategy,2023.2.3,Win32,59.52380952,3,2,11,,,,,,,,2,12,,,,,,,,,,,8,1.698,0,,,,,,0.402777778,-0.412500064,1,0,0,1.6977,Pumice_rect,10,0,10,0,1,
611830fe665c7b68723910b3,TCR,2024-06-26_11h16.13.910,LearnStrategy,2023.2.3,Win32,59.52380952,3,2,12,,,,,,,,5,07,,,,,,,,,,,5,2.632,1,,,,,,-0.398611122,-0.413194444,1,0,0,2.6318,Obsidian_rect,11,0,11,0,1,
611830fe665c7b68723910b3,TCR,2024-06-26_11h16.13.910,LearnStrategy,2023.2.3,Win32,59.52380952,3,2,13,,,,,,,,6,13,,,,,,,,,,,4,4.95,0,,,,,,0.393749979,-0.258333365,1,0,0,4.9504,Gabbro_rect,12,0,12,0,1,
611830fe665c7b68723910b3,TCR,2024-06-26_11h16.13.910,LearnStrategy,2023.2.3,Win32,59.52380952,3,2,14,,,,,,,,3,16,,,,,,,,,,,3,3.115,1,,,,,,0.095138868,-0.232638889,1,0,0,3.1155,Diorite_rect,13,0,13,0,1,
611830fe665c7b68723910b3,TCR,2024-06-26_11h16.13.910,LearnStrategy,2023.2.3,Win32,59.52380952,3,2,15,,,,,,,,3,08,,,,,,,,,,,4,4.066,0,,,,,,0.355555534,-0.244444476,1,0,0,4.066,Gabbro_rect,14,0,14,0,1,
611830fe665c7b68723910b3,TCR,2024-06-26_11h16.13.910,LearnStrategy,2023.2.3,Win32,59.52380952,3,2,16,,,,,,,,1,10,,,,,,,,,,,2,2.565,0,,,,,,-0.117361122,-0.249305566,1,0,0,2.5649,Basalt_rect,15,0,15,0,1,
611830fe665c7b68723910b3,TCR,2024-06-26_11h16.13.910,LearnStrategy,2023.2.3,Win32,59.52380952,4,1,1,0.06736109,-0.001388921,1,0,0,2.151,rock_grid_rect_2,7,02,-1,-1,2.151,-0.127777788,-0.404166645,1,0,0,3.0657,Pegmatite_rect,6,3.066,0,0,0,0,0,1,,,,,,,,,,,,,
611830fe665c7b68723910b3,TCR,2024-06-26_11h16.13.910,LearnStrategy,2023.2.3,Win32,59.52380952,4,1,2,0.084722201,-0.009722233,1,0,0,1.5337,rock_grid_rect_2,6,12,-1,-1,1.534,0.200000021,-0.245833344,1,0,0,2.515,Diorite_rect,3,2.515,0,1,0,1,0,1,,,,,,,,,,,,,
611830fe665c7b68723910b3,TCR,2024-06-26_11h16.13.910,LearnStrategy,2023.2.3,Win32,59.52380952,4,1,3,0.054166688,-0.002777788,1,0,0,1.3999,rock_grid_rect_2,3,10,-1,-1,1.4,-0.388194455,-0.267361111,1,0,0,3.3658,Andesite_rect,1,3.366,0,2,0,2,0,1,,,,,,,,,,,,,
611830fe665c7b68723910b3,TCR,2024-06-26_11h16.13.910,LearnStrategy,2023.2.3,Win32,59.52380952,4,1,4,0.094444487,-0.000694434,1,0,0,1.5503,rock_grid_rect_2,1,14,-1,-1,1.55,0.394444466,-0.238194466,1,0,0,2.2816,Gabbro_rect,4,2.282,0,3,0,3,0,1,,,,,,,,,,,,,
611830fe665c7b68723910b3,TCR,2024-06-26_11h16.13.910,LearnStrategy,2023.2.3,Win32,59.52380952,4,1,5,0.020833333,-0.016666677,1,0,0,1.9673,rock_grid_rect_2,6,12,-1,-1,1.967,-0.051388899,-0.409722222,1,0,0,4.2999,Pegmatite_rect,6,4.3,1,4,0,4,0,1,,,,,,,,,,,,,
611830fe665c7b68723910b3,TCR,2024-06-26_11h16.13.910,LearnStrategy,2023.2.3,Win32,59.52380952,4,1,6,-0.026388857,-0.009722233,1,0,0,1.5836,rock_grid_rect_2,6,10,-1,-1,1.584,0.118055556,-0.381944444,1,0,0,4.4001,Peridotite_rect,7,4.4,0,5,0,5,0,1,,,,,,,,,,,,,
611830fe665c7b68723910b3,TCR,2024-06-26_11h16.13.910,LearnStrategy,2023.2.3,Win32,59.52380952,4,1,7,-0.017361111,-0.013194455,1,0,0,1.5335,rock_grid_rect_2,4,08,-1,-1,1.534,0.117361175,-0.24513891,1,0,0,2.4986,Diorite_rect,3,2.499,0,6,0,6,0,1,,,,,,,,,,,,,
611830fe665c7b68723910b3,TCR,2024-06-26_11h16.13.910,LearnStrategy,2023.2.3,Win32,59.52380952,4,1,8,0.002083355,-0.002777788,1,0,0,1.2333,rock_grid_rect_2,1,09,-1,-1,1.233,-0.125694434,-0.261111101,1,0,0,1.4475,Basalt_rect,2,1.447,0,7,0,7,0,1,,,,,,,,,,,,,
611830fe665c7b68723910b3,TCR,2024-06-26_11h16.13.910,LearnStrategy,2023.2.3,Win32,59.52380952,4,1,9,0,-0.006250011,1,0,0,1.2169,rock_grid_rect_2,1,04,-1,-1,1.217,-0.42222219,-0.249305566,1,0,0,2.3154,Andesite_rect,1,2.315,1,8,0,8,0,1,,,,,,,,,,,,,
611830fe665c7b68723910b3,TCR,2024-06-26_11h16.13.910,LearnStrategy,2023.2.3,Win32,59.52380952,4,1,10,0.023611175,0.002777788,1,0,0,1.5003,rock_grid_rect_2,7,08,-1,-1,1.5,0.142361111,-0.406944487,1,0,0,2.2478,Peridotite_rect,7,2.248,1,9,0,9,0,1,,,,,,,,,,,,,
611830fe665c7b68723910b3,TCR,2024-06-26_11h16.13.910,LearnStrategy,2023.2.3,Win32,59.52380952,4,1,11,-0.011805534,-0.000694434,1,0,0,2.3843,rock_grid_rect_2,3,14,-1,-1,2.384,0.154166645,-0.253472222,1,0,0,3.0989,Diorite_rect,3,3.099,1,10,0,10,0,1,,,,,,,,,,,,,
611830fe665c7b68723910b3,TCR,2024-06-26_11h16.13.910,LearnStrategy,2023.2.3,Win32,59.52380952,4,1,12,0.094444487,0.020138899,1,0,0,1.5286,rock_grid_rect_2,5,08,-1,-1,1.529,-0.427083333,-0.404166645,1,0,0,1.7197,Obsidian_rect,5,1.72,1,11,0,11,0,1,,,,,,,,,,,,,
611830fe665c7b68723910b3,TCR,2024-06-26_11h16.13.910,LearnStrategy,2023.2.3,Win32,59.52380952,4,1,13,0.145138952,0.006250011,1,0,0,1.2886,rock_grid_rect_2,7,05,-1,-1,1.289,-0.042361101,-0.382638878,1,0,0,2.0814,Pegmatite_rect,6,2.081,0,12,0,12,0,1,,,,,,,,,,,,,
611830fe665c7b68723910b3,TCR,2024-06-26_11h16.13.910,LearnStrategy,2023.2.3,Win32,59.52380952,4,1,14,0.131250064,-0.003472222,1,0,0,1.9376,rock_grid_rect_2,2,10,-1,-1,1.938,-0.143055545,-0.256944444,1,0,0,1.969,Basalt_rect,2,1.969,1,13,0,13,0,1,,,,,,,,,,,,,
611830fe665c7b68723910b3,TCR,2024-06-26_11h16.13.910,LearnStrategy,2023.2.3,Win32,59.52380952,4,1,15,0.060416645,-0.009027799,1,0,0,1.4736,rock_grid_rect_2,4,08,-1,-1,1.474,0.12013891,-0.231250021,1,0,0,4.4173,Diorite_rect,3,4.417,0,14,0,14,0,1,,,,,,,,,,,,,
611830fe665c7b68723910b3,TCR,2024-06-26_11h16.13.910,LearnStrategy,2023.2.3,Win32,59.52380952,4,1,16,0.014583376,-0.004166656,1,0,0,1.8671,rock_grid_rect_2,4,11,-1,-1,1.867,-0.452083323,-0.237500032,1,0,0,2.6896,Andesite_rect,1,2.69,0,15,0,15,0,1,,,,,,,,,,,,,
611830fe665c7b68723910b3,TCR,2024-06-26_11h16.13.910,LearnStrategy,2023.2.3,Win32,59.52380952,4,2,1,,,,,,,,4,05,,,,,,,,,,,3,5.975,0,,,,,,0.134722286,-0.261111101,1,0,0,5.9753,Diorite_rect,0,0,0,0,1,
611830fe665c7b68723910b3,TCR,2024-06-26_11h16.13.910,LearnStrategy,2023.2.3,Win32,59.52380952,4,2,2,,,,,,,,5,02,,,,,,,,,,,5,1.35,1,,,,,,-0.34861109,-0.40625,1,0,0,1.3501,Obsidian_rect,1,0,1,0,1,
611830fe665c7b68723910b3,TCR,2024-06-26_11h16.13.910,LearnStrategy,2023.2.3,Win32,59.52380952,4,2,3,,,,,,,,3,16,,,,,,,,,,,1,4.703,0,,,,,,-0.393749979,-0.249305566,1,0,0,4.7031,Andesite_rect,2,0,2,0,1,
611830fe665c7b68723910b3,TCR,2024-06-26_11h16.13.910,LearnStrategy,2023.2.3,Win32,59.52380952,4,2,4,,,,,,,,5,16,,,,,,,,,,,5,1.467,1,,,,,,-0.323611101,-0.413888931,1,0,0,1.4668,Obsidian_rect,3,0,3,0,1,
611830fe665c7b68723910b3,TCR,2024-06-26_11h16.13.910,LearnStrategy,2023.2.3,Win32,59.52380952,4,2,5,,,,,,,,1,11,,,,,,,,,,,6,3.853,0,,,,,,-0.091666645,-0.418750021,1,0,0,3.8531,Pegmatite_rect,4,0,4,0,1,
611830fe665c7b68723910b3,TCR,2024-06-26_11h16.13.910,LearnStrategy,2023.2.3,Win32,59.52380952,4,2,6,,,,,,,,6,07,,,,,,,,,,,4,5.437,0,,,,,,0.450000021,-0.25,1,0,0,5.4374,Gabbro_rect,5,0,5,0,1,
611830fe665c7b68723910b3,TCR,2024-06-26_11h16.13.910,LearnStrategy,2023.2.3,Win32,59.52380952,4,2,7,,,,,,,,6,15,,,,,,,,,,,7,2.601,0,,,,,,0.112499979,-0.41111109,1,0,0,2.6012,Peridotite_rect,6,0,6,0,1,
611830fe665c7b68723910b3,TCR,2024-06-26_11h16.13.910,LearnStrategy,2023.2.3,Win32,59.52380952,4,2,8,,,,,,,,2,16,,,,,,,,,,,2,1.555,1,,,,,,-0.139583323,-0.259722233,1,0,0,1.555,Basalt_rect,7,0,7,0,1,
611830fe665c7b68723910b3,TCR,2024-06-26_11h16.13.910,LearnStrategy,2023.2.3,Win32,59.52380952,4,2,9,,,,,,,,1,01,,,,,,,,,,,3,2.651,0,,,,,,0.075694508,-0.261805587,1,0,0,2.6514,Diorite_rect,8,0,8,0,1,
611830fe665c7b68723910b3,TCR,2024-06-26_11h16.13.910,LearnStrategy,2023.2.3,Win32,59.52380952,4,2,10,,,,,,,,3,09,,,,,,,,,,,1,1.617,0,,,,,,-0.402777778,-0.239583333,1,0,0,1.6171,Andesite_rect,9,0,9,0,1,
611830fe665c7b68723910b3,TCR,2024-06-26_11h16.13.910,LearnStrategy,2023.2.3,Win32,59.52380952,4,2,11,,,,,,,,4,01,,,,,,,,,,,1,6.042,0,,,,,,-0.405555566,-0.241666688,1,0,0,6.0421,Andesite_rect,10,0,10,0,1,
611830fe665c7b68723910b3,TCR,2024-06-26_11h16.13.910,LearnStrategy,2023.2.3,Win32,59.52380952,4,2,12,,,,,,,,8,08,,,,,,,,,,,8,4.486,1,,,,,,0.408333355,-0.383333365,1,0,0,4.4863,Pumice_rect,11,0,11,0,1,
611830fe665c7b68723910b3,TCR,2024-06-26_11h16.13.910,LearnStrategy,2023.2.3,Win32,59.52380952,4,2,13,,,,,,,,2,12,,,,,,,,,,,8,1.951,0,,,,,,0.43263891,-0.40138891,1,0,0,1.9506,Pumice_rect,12,0,12,0,1,
611830fe665c7b68723910b3,TCR,2024-06-26_11h16.13.910,LearnStrategy,2023.2.3,Win32,59.52380952,4,2,14,,,,,,,,7,04,,,,,,,,,,,7,3.323,1,,,,,,0.140277757,-0.400694423,1,0,0,3.3232,Peridotite_rect,13,0,13,0,1,
611830fe665c7b68723910b3,TCR,2024-06-26_11h16.13.910,LearnStrategy,2023.2.3,Win32,59.52380952,4,2,15,,,,,,,,8,06,,,,,,,,,,,8,4.503,1,,,,,,0.40138891,-0.386805587,1,0,0,4.503,Pumice_rect,14,0,14,0,1,
611830fe665c7b68723910b3,TCR,2024-06-26_11h16.13.910,LearnStrategy,2023.2.3,Win32,59.52380952,4,2,16,,,,,,,,7,15,,,,,,,,,,,6,5.308,0,,,,,,-0.153472212,-0.384027799,1,0,0,5.3075,Pegmatite_rect,15,0,15,0,1,
611830fe665c7b68723910b3,TCR,2024-06-26_11h16.13.910,LearnStrategy,2023.2.3,Win32,59.52380952,5,1,1,-0.014583323,-0.004861143,1,0,0,2.9811,rock_grid_rect_2,1,09,-1,-1,2.981,-0.340972212,-0.248611132,1,0,0,2.7651,Andesite_rect,1,2.765,1,0,0,0,0,1,,,,,,,,,,,,,
611830fe665c7b68723910b3,TCR,2024-06-26_11h16.13.910,LearnStrategy,2023.2.3,Win32,59.52380952,5,1,2,0.036805577,-0.019444466,1,0,0,1.4667,rock_grid_rect_2,6,12,-1,-1,1.467,0.136111153,-0.388194455,1,0,0,2.8655,Peridotite_rect,7,2.865,0,1,0,1,0,1,,,,,,,,,,,,,
611830fe665c7b68723910b3,TCR,2024-06-26_11h16.13.910,LearnStrategy,2023.2.3,Win32,59.52380952,5,1,3,0.053472201,0.011805534,1,0,0,1.4838,rock_grid_rect_2,7,02,-1,-1,1.484,-0.134722233,-0.387500021,1,0,0,2.5319,Pegmatite_rect,6,2.532,0,2,0,2,0,1,,,,,,,,,,,,,
611830fe665c7b68723910b3,TCR,2024-06-26_11h16.13.910,LearnStrategy,2023.2.3,Win32,59.52380952,5,1,4,0.05763891,-0.014583323,1,0,0,1.3669,rock_grid_rect_2,4,08,-1,-1,1.367,0.16111109,-0.245833344,1,0,0,2.0816,Diorite_rect,3,2.082,0,3,0,3,0,1,,,,,,,,,,,,,
611830fe665c7b68723910b3,TCR,2024-06-26_11h16.13.910,LearnStrategy,2023.2.3,Win32,59.52380952,5,1,5,0.068750064,-0.002777788,1,0,0,1.9338,rock_grid_rect_2,1,03,-1,-1,1.934,0.322222286,-0.238888899,1,0,0,1.9815,Gabbro_rect,4,1.981,0,4,0,4,0,1,,,,,,,,,,,,,
611830fe665c7b68723910b3,TCR,2024-06-26_11h16.13.910,LearnStrategy,2023.2.3,Win32,59.52380952,5,1,6,0.073611153,0.002777788,1,0,0,1.3506,rock_grid_rect_2,4,11,-1,-1,1.351,0.118750042,-0.243055556,1,0,0,1.7646,Diorite_rect,3,1.765,0,5,0,5,0,1,,,,,,,,,,,,,
611830fe665c7b68723910b3,TCR,2024-06-26_11h16.13.910,LearnStrategy,2023.2.3,Win32,59.52380952,5,1,7,0.058333397,-0.011111101,1,0,0,1.7673,rock_grid_rect_2,3,14,-1,-1,1.767,-0.391666677,-0.236805545,1,0,0,1.4474,Andesite_rect,1,1.447,0,6,0,6,0,1,,,,,,,,,,,,,
611830fe665c7b68723910b3,TCR,2024-06-26_11h16.13.910,LearnStrategy,2023.2.3,Win32,59.52380952,5,1,8,0.025000042,-0.005555577,1,0,0,2.6681,rock_grid_rect_2,3,13,-1,-1,2.668,0.133333312,-0.381944444,1,0,0,3.1494,Peridotite_rect,7,3.149,0,7,0,7,0,1,,,,,,,,,,,,,
611830fe665c7b68723910b3,TCR,2024-06-26_11h16.13.910,LearnStrategy,2023.2.3,Win32,59.52380952,5,1,9,0.004166709,0.008333312,1,0,0,1.7002,rock_grid_rect_2,5,05,-1,-1,1.7,-0.421527757,-0.404861132,1,0,0,5.3844,Obsidian_rect,5,5.384,1,8,0,8,0,1,,,,,,,,,,,,,
611830fe665c7b68723910b3,TCR,2024-06-26_11h16.13.910,LearnStrategy,2023.2.3,Win32,59.52380952,5,1,10,0.036805577,0.021527767,1,0,0,1.5836,rock_grid_rect_2,8,09,-1,-1,1.584,0.433333397,-0.420138889,1,0,0,2.1645,Pumice_rect,8,2.164,1,9,0,9,0,1,,,,,,,,,,,,,
611830fe665c7b68723910b3,TCR,2024-06-26_11h16.13.910,LearnStrategy,2023.2.3,Win32,59.52380952,5,1,11,0.040277799,0.003472222,1,0,0,1.3166,rock_grid_rect_2,7,08,-1,-1,1.317,-0.088888857,-0.398611175,1,0,0,2.899,Pegmatite_rect,6,2.899,0,10,0,10,0,1,,,,,,,,,,,,,
611830fe665c7b68723910b3,TCR,2024-06-26_11h16.13.910,LearnStrategy,2023.2.3,Win32,59.52380952,5,1,12,0.059027778,-0.006944444,1,0,0,1.2835,rock_grid_rect_2,4,13,-1,-1,1.284,0.386805534,-0.248611132,1,0,0,1.9481,Gabbro_rect,4,1.948,1,11,0,11,0,1,,,,,,,,,,,,,
611830fe665c7b68723910b3,TCR,2024-06-26_11h16.13.910,LearnStrategy,2023.2.3,Win32,59.52380952,5,1,13,-0.043055534,-0.023611122,1,0,0,1.779,rock_grid_rect_2,6,05,-1,-1,1.779,-0.393055545,-0.228472233,1,0,0,2.9316,Andesite_rect,1,2.932,0,12,0,12,0,1,,,,,,,,,,,,,
611830fe665c7b68723910b3,TCR,2024-06-26_11h16.13.910,LearnStrategy,2023.2.3,Win32,59.52380952,5,1,14,0.009027799,0.006250011,1,0,0,1.7334,rock_grid_rect_2,1,14,-1,-1,1.733,0.152777778,-0.244444476,1,0,0,3.983,Diorite_rect,3,3.983,0,13,0,13,0,1,,,,,,,,,,,,,
611830fe665c7b68723910b3,TCR,2024-06-26_11h16.13.910,LearnStrategy,2023.2.3,Win32,59.52380952,5,1,15,0.012500021,-0.001388921,1,0,0,1.4835,rock_grid_rect_2,2,11,-1,-1,1.484,-0.146527767,-0.243055556,1,0,0,2.4318,Basalt_rect,2,2.432,1,14,0,14,0,1,,,,,,,,,,,,,
611830fe665c7b68723910b3,TCR,2024-06-26_11h16.13.910,LearnStrategy,2023.2.3,Win32,59.52380952,5,1,16,0.166666667,-0.016666677,1,0,0,3.6763,rock_grid_rect_2,6,05,-1,-1,3.676,0.166666667,-0.263888889,1,0,0,3.9164,Diorite_rect,3,3.916,0,15,0,15,0,1,,,,,,,,,,,,,
611830fe665c7b68723910b3,TCR,2024-06-26_11h16.13.910,LearnStrategy,2023.2.3,Win32,59.52380952,5,2,1,,,,,,,,3,07,,,,,,,,,,,1,2.306,0,,,,,,-0.469444434,-0.230555587,1,0,0,2.3058,Andesite_rect,0,0,0,0,1,
611830fe665c7b68723910b3,TCR,2024-06-26_11h16.13.910,LearnStrategy,2023.2.3,Win32,59.52380952,5,2,2,,,,,,,,7,14,,,,,,,,,,,7,3.435,1,,,,,,0.12013891,-0.400694423,1,0,0,3.435,Peridotite_rect,1,0,1,0,1,
611830fe665c7b68723910b3,TCR,2024-06-26_11h16.13.910,LearnStrategy,2023.2.3,Win32,59.52380952,5,2,3,,,,,,,,7,13,,,,,,,,,,,6,1.751,0,,,,,,-0.072916667,-0.393749979,1,0,0,1.7507,Pegmatite_rect,2,0,2,0,1,
611830fe665c7b68723910b3,TCR,2024-06-26_11h16.13.910,LearnStrategy,2023.2.3,Win32,59.52380952,5,2,4,,,,,,,,5,06,,,,,,,,,,,5,2.806,1,,,,,,-0.353472233,-0.392361111,1,0,0,2.8062,Obsidian_rect,3,0,3,0,1,
611830fe665c7b68723910b3,TCR,2024-06-26_11h16.13.910,LearnStrategy,2023.2.3,Win32,59.52380952,5,2,5,,,,,,,,3,12,,,,,,,,,,,6,3.069,0,,,,,,-0.104166667,-0.404861132,1,0,0,3.0686,Pegmatite_rect,4,0,4,0,1,
611830fe665c7b68723910b3,TCR,2024-06-26_11h16.13.910,LearnStrategy,2023.2.3,Win32,59.52380952,5,2,6,,,,,,,,5,11,,,,,,,,,,,5,1.905,1,,,,,,-0.40625,-0.384722233,1,0,0,1.9051,Obsidian_rect,5,0,5,0,1,
611830fe665c7b68723910b3,TCR,2024-06-26_11h16.13.910,LearnStrategy,2023.2.3,Win32,59.52380952,5,2,7,,,,,,,,6,08,,,,,,,,,,,7,1.901,0,,,,,,0.119444423,-0.408333355,1,0,0,1.9008,Peridotite_rect,6,0,6,0,1,
611830fe665c7b68723910b3,TCR,2024-06-26_11h16.13.910,LearnStrategy,2023.2.3,Win32,59.52380952,5,2,8,,,,,,,,4,14,,,,,,,,,,,1,4.565,0,,,,,,-0.386111101,-0.246527778,1,0,0,4.5648,Andesite_rect,7,0,7,0,1,
611830fe665c7b68723910b3,TCR,2024-06-26_11h16.13.910,LearnStrategy,2023.2.3,Win32,59.52380952,5,2,9,,,,,,,,6,09,,,,,,,,,,,7,4.553,0,,,,,,0.097916709,-0.397222201,1,0,0,4.5533,Peridotite_rect,8,0,8,0,1,
611830fe665c7b68723910b3,TCR,2024-06-26_11h16.13.910,LearnStrategy,2023.2.3,Win32,59.52380952,5,2,10,,,,,,,,2,06,,,,,,,,,,,2,1.134,1,,,,,,-0.096527788,-0.250694434,1,0,0,1.1337,Basalt_rect,9,0,9,0,1,
611830fe665c7b68723910b3,TCR,2024-06-26_11h16.13.910,LearnStrategy,2023.2.3,Win32,59.52380952,5,2,11,,,,,,,,1,16,,,,,,,,,,,1,3.786,1,,,,,,-0.464583317,-0.240972254,1,0,0,3.7859,Andesite_rect,10,0,10,0,1,
611830fe665c7b68723910b3,TCR,2024-06-26_11h16.13.910,LearnStrategy,2023.2.3,Win32,59.52380952,5,2,12,,,,,,,,8,16,,,,,,,,,,,8,3.476,1,,,,,,0.34375,-0.402777778,1,0,0,3.4757,Pumice_rect,11,0,11,0,1,
611830fe665c7b68723910b3,TCR,2024-06-26_11h16.13.910,LearnStrategy,2023.2.3,Win32,59.52380952,5,2,13,,,,,,,,1,06,,,,,,,,,,,1,1.617,1,,,,,,-0.392361111,-0.240277767,1,0,0,1.617,Andesite_rect,12,0,12,0,1,
611830fe665c7b68723910b3,TCR,2024-06-26_11h16.13.910,LearnStrategy,2023.2.3,Win32,59.52380952,5,2,14,,,,,,,,8,02,,,,,,,,,,,8,1.922,1,,,,,,0.368750042,-0.386111101,1,0,0,1.922,Pumice_rect,13,0,13,0,1,
611830fe665c7b68723910b3,TCR,2024-06-26_11h16.13.910,LearnStrategy,2023.2.3,Win32,59.52380952,5,2,15,,,,,,,,4,03,,,,,,,,,,,4,4.248,1,,,,,,0.374305619,-0.261111101,1,0,0,4.248,Gabbro_rect,14,0,14,0,1,
611830fe665c7b68723910b3,TCR,2024-06-26_11h16.13.910,LearnStrategy,2023.2.3,Win32,59.52380952,5,2,16,,,,,,,,2,04,,,,,,,,,,,2,2.034,1,,,,,,-0.129166656,-0.243055556,1,0,0,2.0345,Basalt_rect,15,0,15,0,1,
611830fe665c7b68723910b3,TCR,2024-06-26_11h16.13.910,LearnStrategy,2023.2.3,Win32,59.52380952,6,1,1,0.101388931,-0.005555577,1,0,0,1.7826,rock_grid_rect_2,3,11,-1,-1,1.783,-0.344444434,-0.263194455,1,0,0,2.2525,Andesite_rect,1,2.253,0,0,0,0,0,1,,,,,,,,,,,,,
611830fe665c7b68723910b3,TCR,2024-06-26_11h16.13.910,LearnStrategy,2023.2.3,Win32,59.52380952,6,1,2,0.068055577,-0.013888889,1,0,0,1.3623,rock_grid_rect_2,4,08,-1,-1,1.362,0.313194487,-0.241666688,1,0,0,4.6244,Gabbro_rect,4,4.624,1,1,0,1,0,1,,,,,,,,,,,,,
611830fe665c7b68723910b3,TCR,2024-06-26_11h16.13.910,LearnStrategy,2023.2.3,Win32,59.52380952,6,1,3,0.104861153,-0.009027799,1,0,0,1.5075,rock_grid_rect_2,7,07,-1,-1,1.508,-0.130555524,-0.41111109,1,0,0,2.6486,Pegmatite_rect,6,2.649,0,2,0,2,0,1,,,,,,,,,,,,,
611830fe665c7b68723910b3,TCR,2024-06-26_11h16.13.910,LearnStrategy,2023.2.3,Win32,59.52380952,6,1,4,0.050694466,0.007638878,1,0,0,1.3001,rock_grid_rect_2,6,12,-1,-1,1.3,-0.443055524,-0.258333365,1,0,0,1.8722,Andesite_rect,1,1.872,0,3,0,3,0,1,,,,,,,,,,,,,
611830fe665c7b68723910b3,TCR,2024-06-26_11h16.13.910,LearnStrategy,2023.2.3,Win32,59.52380952,6,1,5,0.077777757,0.007638878,1,0,0,1.3802,rock_grid_rect_2,1,14,-1,-1,1.38,-0.367361122,-0.259722233,1,0,0,1.6551,Andesite_rect,1,1.655,1,4,0,4,0,1,,,,,,,,,,,,,
611830fe665c7b68723910b3,TCR,2024-06-26_11h16.13.910,LearnStrategy,2023.2.3,Win32,59.52380952,6,1,6,0.05277782,0.000694434,1,0,0,1.6022,rock_grid_rect_2,6,05,-1,-1,1.602,0.30763891,-0.255555577,1,0,0,2.8497,Gabbro_rect,4,2.85,0,5,0,5,0,1,,,,,,,,,,,,,
611830fe665c7b68723910b3,TCR,2024-06-26_11h16.13.910,LearnStrategy,2023.2.3,Win32,59.52380952,6,1,7,0.081249979,-0.021527767,1,0,0,1.946,rock_grid_rect_2,3,15,-1,-1,1.946,0.087500042,-0.250694434,1,0,0,1.8221,Diorite_rect,3,1.822,1,6,0,6,0,1,,,,,,,,,,,,,
611830fe665c7b68723910b3,TCR,2024-06-26_11h16.13.910,LearnStrategy,2023.2.3,Win32,59.52380952,6,1,8,0.056944423,0.00486109,1,0,0,1.3786,rock_grid_rect_2,4,12,-1,-1,1.379,0.440972222,-0.261111101,1,0,0,4.0409,Gabbro_rect,4,4.041,1,7,0,7,0,1,,,,,,,,,,,,,
611830fe665c7b68723910b3,TCR,2024-06-26_11h16.13.910,LearnStrategy,2023.2.3,Win32,59.52380952,6,1,9,0.009027799,-0.009027799,1,0,0,1.5537,rock_grid_rect_2,3,13,-1,-1,1.554,-0.085416635,-0.402777778,1,0,0,2.7695,Pegmatite_rect,6,2.769,0,8,0,8,0,1,,,,,,,,,,,,,
611830fe665c7b68723910b3,TCR,2024-06-26_11h16.13.910,LearnStrategy,2023.2.3,Win32,59.52380952,6,1,10,0.072916667,0.009722233,1,0,0,1.6003,rock_grid_rect_2,6,11,-1,-1,1.6,0.145138952,-0.415972286,1,0,0,2.0725,Peridotite_rect,7,2.072,0,9,0,9,0,1,,,,,,,,,,,,,
611830fe665c7b68723910b3,TCR,2024-06-26_11h16.13.910,LearnStrategy,2023.2.3,Win32,59.52380952,6,1,11,0.032638868,0.002083302,1,0,0,1.5169,rock_grid_rect_2,2,02,-1,-1,1.517,-0.113888899,-0.24513891,1,0,0,2.1223,Basalt_rect,2,2.122,1,10,0,10,0,1,,,,,,,,,,,,,
611830fe665c7b68723910b3,TCR,2024-06-26_11h16.13.910,LearnStrategy,2023.2.3,Win32,59.52380952,6,1,12,0.018055598,-0.002777788,1,0,0,1.362,rock_grid_rect_2,4,13,-1,-1,1.362,-0.375,-0.256250011,1,0,0,4.7912,Andesite_rect,1,4.791,0,11,0,11,0,1,,,,,,,,,,,,,
611830fe665c7b68723910b3,TCR,2024-06-26_11h16.13.910,LearnStrategy,2023.2.3,Win32,59.52380952,6,1,13,0.077777757,-0.002777788,1,0,0,1.3405,rock_grid_rect_2,1,09,-1,-1,1.341,0.156944487,-0.246527778,1,0,0,3.8668,Diorite_rect,3,3.867,0,12,0,12,0,1,,,,,,,,,,,,,
611830fe665c7b68723910b3,TCR,2024-06-26_11h16.13.910,LearnStrategy,2023.2.3,Win32,59.52380952,6,1,14,0.065277841,0.007638878,1,0,0,1.408,rock_grid_rect_2,1,05,-1,-1,1.408,0.163194444,-0.257638878,1,0,0,1.5308,Diorite_rect,3,1.531,0,13,0,13,0,1,,,,,,,,,,,,,
611830fe665c7b68723910b3,TCR,2024-06-26_11h16.13.910,LearnStrategy,2023.2.3,Win32,59.52380952,6,1,15,0.029166645,0.007638878,1,0,0,1.2825,rock_grid_rect_2,6,10,-1,-1,1.283,-0.077083323,-0.395138952,1,0,0,1.7329,Pegmatite_rect,6,1.733,1,14,0,14,0,1,,,,,,,,,,,,,
611830fe665c7b68723910b3,TCR,2024-06-26_11h16.13.910,LearnStrategy,2023.2.3,Win32,59.52380952,6,1,16,-0.008333312,0.001388868,1,0,0,1.5708,rock_grid_rect_2,7,02,-1,-1,1.571,0.172222243,-0.406944487,1,0,0,1.6686,Peridotite_rect,7,1.669,1,15,0,15,0,1,,,,,,,,,,,,,
611830fe665c7b68723910b3,TCR,2024-06-26_11h16.13.910,LearnStrategy,2023.2.3,Win32,59.52380952,6,2,1,,,,,,,,6,16,,,,,,,,,,,7,3.273,0,,,,,,0.155555619,-0.416666667,1,0,0,3.2732,Peridotite_rect,0,0,0,0,1,
611830fe665c7b68723910b3,TCR,2024-06-26_11h16.13.910,LearnStrategy,2023.2.3,Win32,59.52380952,6,2,2,,,,,,,,5,10,,,,,,,,,,,5,1.867,1,,,,,,-0.399999989,-0.409722222,1,0,0,1.8674,Obsidian_rect,1,0,1,0,1,
611830fe665c7b68723910b3,TCR,2024-06-26_11h16.13.910,LearnStrategy,2023.2.3,Win32,59.52380952,6,2,3,,,,,,,,1,07,,,,,,,,,,,1,1.701,1,,,,,,-0.388888889,-0.243055556,1,0,0,1.701,Andesite_rect,2,0,2,0,1,
611830fe665c7b68723910b3,TCR,2024-06-26_11h16.13.910,LearnStrategy,2023.2.3,Win32,59.52380952,6,2,4,,,,,,,,5,07,,,,,,,,,,,5,1.851,1,,,,,,-0.363888899,-0.418750021,1,0,0,1.8507,Obsidian_rect,3,0,3,0,1,
611830fe665c7b68723910b3,TCR,2024-06-26_11h16.13.910,LearnStrategy,2023.2.3,Win32,59.52380952,6,2,5,,,,,,,,4,09,,,,,,,,,,,3,6.038,0,,,,,,0.174999979,-0.24513891,1,0,0,6.0376,Diorite_rect,4,0,4,0,1,
611830fe665c7b68723910b3,TCR,2024-06-26_11h16.13.910,LearnStrategy,2023.2.3,Win32,59.52380952,6,2,6,,,,,,,,2,01,,,,,,,,,,,2,1.2,1,,,,,,-0.132638878,-0.247222212,1,0,0,1.2004,Basalt_rect,5,0,5,0,1,
611830fe665c7b68723910b3,TCR,2024-06-26_11h16.13.910,LearnStrategy,2023.2.3,Win32,59.52380952,6,2,7,,,,,,,,8,13,,,,,,,,,,,8,1.55,1,,,,,,0.370833397,-0.397222201,1,0,0,1.5505,Pumice_rect,6,0,6,0,1,
611830fe665c7b68723910b3,TCR,2024-06-26_11h16.13.910,LearnStrategy,2023.2.3,Win32,59.52380952,6,2,8,,,,,,,,7,10,,,,,,,,,,,7,6.405,1,,,,,,0.075000021,-0.392361111,1,0,0,6.4049,Peridotite_rect,7,0,7,0,1,
611830fe665c7b68723910b3,TCR,2024-06-26_11h16.13.910,LearnStrategy,2023.2.3,Win32,59.52380952,6,2,9,,,,,,,,3,02,,,,,,,,,,,3,4.086,1,,,,,,0.196527799,-0.269444466,1,0,0,4.0861,Diorite_rect,8,0,8,0,1,
611830fe665c7b68723910b3,TCR,2024-06-26_11h16.13.910,LearnStrategy,2023.2.3,Win32,59.52380952,6,2,10,,,,,,,,1,10,,,,,,,,,,,1,6.071,1,,,,,,-0.340972212,-0.255555577,1,0,0,6.0712,Andesite_rect,9,0,9,0,1,
611830fe665c7b68723910b3,TCR,2024-06-26_11h16.13.910,LearnStrategy,2023.2.3,Win32,59.52380952,6,2,11,,,,,,,,6,13,,,,,,,,,,,4,3.069,0,,,,,,0.387500021,-0.238888899,1,0,0,3.0686,Gabbro_rect,10,0,10,0,1,
611830fe665c7b68723910b3,TCR,2024-06-26_11h16.13.910,LearnStrategy,2023.2.3,Win32,59.52380952,6,2,12,,,,,,,,3,08,,,,,,,,,,,3,5.888,1,,,,,,0.173611111,-0.253472222,1,0,0,5.8876,Diorite_rect,11,0,11,0,1,
611830fe665c7b68723910b3,TCR,2024-06-26_11h16.13.910,LearnStrategy,2023.2.3,Win32,59.52380952,6,2,13,,,,,,,,2,08,,,,,,,,,,,2,2.718,1,,,,,,-0.092361079,-0.236805545,1,0,0,2.7179,Basalt_rect,12,0,12,0,1,
611830fe665c7b68723910b3,TCR,2024-06-26_11h16.13.910,LearnStrategy,2023.2.3,Win32,59.52380952,6,2,14,,,,,,,,8,04,,,,,,,,,,,8,1.65,1,,,,,,0.481250021,-0.395833333,1,0,0,1.6503,Pumice_rect,13,0,13,0,1,
611830fe665c7b68723910b3,TCR,2024-06-26_11h16.13.910,LearnStrategy,2023.2.3,Win32,59.52380952,6,2,15,,,,,,,,4,16,,,,,,,,,,,4,5.22,1,,,,,,0.37013891,-0.251388921,1,0,0,5.2198,Gabbro_rect,14,0,14,0,1,
611830fe665c7b68723910b3,TCR,2024-06-26_11h16.13.910,LearnStrategy,2023.2.3,Win32,59.52380952,6,2,16,,,,,,,,7,16,,,,,,,,,,,6,2.818,0,,,,,,-0.079861111,-0.395138952,1,0,0,2.8181,Pegmatite_rect,15,0,15,0,1,
611830fe665c7b68723910b3,TCR,2024-06-26_11h16.13.910,LearnStrategy,2023.2.3,Win32,59.52380952,7,1,1,0.009722286,-0.002777788,1,0,0,1.3294,rock_grid_rect_2,6,10,-1,-1,1.329,-0.100000011,-0.388888889,1,0,0,1.5643,Pegmatite_rect,6,1.564,1,0,0,0,0,1,,,,,,,,,,,,,
611830fe665c7b68723910b3,TCR,2024-06-26_11h16.13.910,LearnStrategy,2023.2.3,Win32,59.52380952,7,1,2,-0.022222201,0.011111101,1,0,0,1.5503,rock_grid_rect_2,5,08,-1,-1,1.55,-0.393055545,-0.400000042,1,0,0,1.681,Obsidian_rect,5,1.681,1,1,0,1,0,1,,,,,,,,,,,,,
611830fe665c7b68723910b3,TCR,2024-06-26_11h16.13.910,LearnStrategy,2023.2.3,Win32,59.52380952,7,1,3,0.001388868,0.011805534,1,0,0,1.3171,rock_grid_rect_2,6,03,-1,-1,1.317,0.157638868,-0.408333355,1,0,0,4.4837,Peridotite_rect,7,4.484,0,2,0,2,0,1,,,,,,,,,,,,,
611830fe665c7b68723910b3,TCR,2024-06-26_11h16.13.910,LearnStrategy,2023.2.3,Win32,59.52380952,7,1,4,0.046527757,-0.009027799,1,0,0,2.1341,rock_grid_rect_2,6,03,-1,-1,2.134,-0.113194413,-0.388888889,1,0,0,1.2977,Pegmatite_rect,6,1.298,1,3,0,3,0,1,,,,,,,,,,,,,
611830fe665c7b68723910b3,TCR,2024-06-26_11h16.13.910,LearnStrategy,2023.2.3,Win32,59.52380952,7,1,5,0.004166709,0.001388868,1,0,0,1.5171,rock_grid_rect_2,3,14,-1,-1,1.517,-0.379166656,-0.252777788,1,0,0,2.6824,Andesite_rect,1,2.682,0,4,0,4,0,1,,,,,,,,,,,,,
611830fe665c7b68723910b3,TCR,2024-06-26_11h16.13.910,LearnStrategy,2023.2.3,Win32,59.52380952,7,1,6,0.004166709,-0.011111101,1,0,0,1.7506,rock_grid_rect_2,1,14,-1,-1,1.751,0.386805534,-0.253472222,1,0,0,2.2651,Gabbro_rect,4,2.265,0,5,0,5,0,1,,,,,,,,,,,,,
611830fe665c7b68723910b3,TCR,2024-06-26_11h16.13.910,LearnStrategy,2023.2.3,Win32,59.52380952,7,1,7,0.014583376,-0.006944444,1,0,0,1.4332,rock_grid_rect_2,7,05,-1,-1,1.433,-0.122222212,-0.394444466,1,0,0,2.7318,Pegmatite_rect,6,2.732,0,6,0,6,0,1,,,,,,,,,,,,,
611830fe665c7b68723910b3,TCR,2024-06-26_11h16.13.910,LearnStrategy,2023.2.3,Win32,59.52380952,7,1,8,0.002083355,-0.012500021,1,0,0,1.4669,rock_grid_rect_2,4,11,-1,-1,1.467,0.112499979,-0.243055556,1,0,0,2.8655,Diorite_rect,3,2.865,0,7,0,7,0,1,,,,,,,,,,,,,
611830fe665c7b68723910b3,TCR,2024-06-26_11h16.13.910,LearnStrategy,2023.2.3,Win32,59.52380952,7,1,9,-0.009722233,-0.004861143,1,0,0,1.417,rock_grid_rect_2,7,07,-1,-1,1.417,0.147222201,-0.247916698,1,0,0,1.6812,Diorite_rect,3,1.681,0,8,0,8,0,1,,,,,,,,,,,,,
611830fe665c7b68723910b3,TCR,2024-06-26_11h16.13.910,LearnStrategy,2023.2.3,Win32,59.52380952,7,1,10,0.025000042,0.002777788,1,0,0,2.5512,rock_grid_rect_2,4,12,-1,-1,2.551,0.326388889,-0.232638889,1,0,0,4.0166,Gabbro_rect,4,4.017,1,9,0,9,0,1,,,,,,,,,,,,,
611830fe665c7b68723910b3,TCR,2024-06-26_11h16.13.910,LearnStrategy,2023.2.3,Win32,59.52380952,7,1,11,-0.038888878,0.017361111,1,0,0,1.5836,rock_grid_rect_2,3,15,-1,-1,1.584,0.14652782,-0.258333365,1,0,0,2.4484,Diorite_rect,3,2.448,1,10,0,10,0,1,,,,,,,,,,,,,
611830fe665c7b68723910b3,TCR,2024-06-26_11h16.13.910,LearnStrategy,2023.2.3,Win32,59.52380952,7,1,12,-0.044444455,0.002083302,1,0,0,1.4835,rock_grid_rect_2,6,05,-1,-1,1.484,0.118750042,-0.390972243,1,0,0,3.8831,Peridotite_rect,7,3.883,0,11,0,11,0,1,,,,,,,,,,,,,
611830fe665c7b68723910b3,TCR,2024-06-26_11h16.13.910,LearnStrategy,2023.2.3,Win32,59.52380952,7,1,13,-0.002777788,-0.002777788,1,0,0,2.2172,rock_grid_rect_2,1,14,-1,-1,2.217,-0.336111122,-0.240277767,1,0,0,1.7143,Andesite_rect,1,1.714,1,12,0,12,0,1,,,,,,,,,,,,,
611830fe665c7b68723910b3,TCR,2024-06-26_11h16.13.910,LearnStrategy,2023.2.3,Win32,59.52380952,7,1,14,0.002083355,0.005555524,1,0,0,3.0302,rock_grid_rect_2,7,02,-1,-1,3.03,0.159722222,-0.386805587,1,0,0,3.6996,Peridotite_rect,7,3.7,1,13,0,13,0,1,,,,,,,,,,,,,
611830fe665c7b68723910b3,TCR,2024-06-26_11h16.13.910,LearnStrategy,2023.2.3,Win32,59.52380952,7,1,15,0.007638931,-0.009722233,1,0,0,1.4171,rock_grid_rect_2,4,15,-1,-1,1.417,0.103472286,-0.25,1,0,0,2.1984,Diorite_rect,3,2.198,0,14,0,14,0,1,,,,,,,,,,,,,
611830fe665c7b68723910b3,TCR,2024-06-26_11h16.13.910,LearnStrategy,2023.2.3,Win32,59.52380952,7,1,16,0.030555619,0.001388868,1,0,0,1.3502,rock_grid_rect_2,2,02,-1,-1,1.35,-0.111111111,-0.266666677,1,0,0,1.3644,Basalt_rect,2,1.364,1,15,0,15,0,1,,,,,,,,,,,,,
611830fe665c7b68723910b3,TCR,2024-06-26_11h16.13.910,LearnStrategy,2023.2.3,Win32,59.52380952,7,2,1,,,,,,,,5,11,,,,,,,,,,,5,1.464,1,,,,,,-0.463888884,-0.395833333,1,0,0,1.4638,Obsidian_rect,0,0,0,0,1,
611830fe665c7b68723910b3,TCR,2024-06-26_11h16.13.910,LearnStrategy,2023.2.3,Win32,59.52380952,7,2,2,,,,,,,,6,07,,,,,,,,,,,6,4.1,1,,,,,,-0.079861111,-0.382638878,1,0,0,4.0997,Pegmatite_rect,1,0,1,0,1,
611830fe665c7b68723910b3,TCR,2024-06-26_11h16.13.910,LearnStrategy,2023.2.3,Win32,59.52380952,7,2,3,,,,,,,,4,14,,,,,,,,,,,4,4.85,1,,,,,,0.306250042,-0.255555577,1,0,0,4.8504,Gabbro_rect,2,0,2,0,1,
611830fe665c7b68723910b3,TCR,2024-06-26_11h16.13.910,LearnStrategy,2023.2.3,Win32,59.52380952,7,2,4,,,,,,,,4,05,,,,,,,,,,,3,4.617,0,,,,,,0.093055619,-0.255555577,1,0,0,4.6168,Diorite_rect,3,0,3,0,1,
611830fe665c7b68723910b3,TCR,2024-06-26_11h16.13.910,LearnStrategy,2023.2.3,Win32,59.52380952,7,2,5,,,,,,,,8,06,,,,,,,,,,,8,1.431,1,,,,,,0.37013891,-0.388888889,1,0,0,1.4307,Pumice_rect,4,0,4,0,1,
611830fe665c7b68723910b3,TCR,2024-06-26_11h16.13.910,LearnStrategy,2023.2.3,Win32,59.52380952,7,2,6,,,,,,,,1,07,,,,,,,,,,,1,1.731,1,,,,,,-0.372222212,-0.261111101,1,0,0,1.7309,Andesite_rect,5,0,5,0,1,
611830fe665c7b68723910b3,TCR,2024-06-26_11h16.13.910,LearnStrategy,2023.2.3,Win32,59.52380952,7,2,7,,,,,,,,2,16,,,,,,,,,,,2,1.447,1,,,,,,-0.158333302,-0.265972243,1,0,0,1.4474,Basalt_rect,6,0,6,0,1,
611830fe665c7b68723910b3,TCR,2024-06-26_11h16.13.910,LearnStrategy,2023.2.3,Win32,59.52380952,7,2,8,,,,,,,,7,15,,,,,,,,,,,7,2.899,1,,,,,,0.116666688,-0.395833333,1,0,0,2.899,Peridotite_rect,7,0,7,0,1,
611830fe665c7b68723910b3,TCR,2024-06-26_11h16.13.910,LearnStrategy,2023.2.3,Win32,59.52380952,7,2,9,,,,,,,,7,10,,,,,,,,,,,3,6.201,0,,,,,,0.130555577,-0.240972254,1,0,0,6.2013,Diorite_rect,8,0,8,0,1,
611830fe665c7b68723910b3,TCR,2024-06-26_11h16.13.910,LearnStrategy,2023.2.3,Win32,59.52380952,7,2,10,,,,,,,,1,01,,,,,,,,,,,1,3.733,1,,,,,,-0.369444423,-0.234722243,1,0,0,3.7329,Andesite_rect,9,0,9,0,1,
611830fe665c7b68723910b3,TCR,2024-06-26_11h16.13.910,LearnStrategy,2023.2.3,Win32,59.52380952,7,2,11,,,,,,,,6,15,,,,,,,,,,,6,2.465,1,,,,,,-0.131250011,-0.400694423,1,0,0,2.4649,Pegmatite_rect,10,0,10,0,1,
611830fe665c7b68723910b3,TCR,2024-06-26_11h16.13.910,LearnStrategy,2023.2.3,Win32,59.52380952,7,2,12,,,,,,,,2,04,,,,,,,,,,,2,1.848,1,,,,,,-0.106249968,-0.251388921,1,0,0,1.8476,Basalt_rect,11,0,11,0,1,
611830fe665c7b68723910b3,TCR,2024-06-26_11h16.13.910,LearnStrategy,2023.2.3,Win32,59.52380952,7,2,13,,,,,,,,3,09,,,,,,,,,,,1,6.802,0,,,,,,-0.403472212,-0.247222212,1,0,0,6.8017,Andesite_rect,12,0,12,0,1,
611830fe665c7b68723910b3,TCR,2024-06-26_11h16.13.910,LearnStrategy,2023.2.3,Win32,59.52380952,7,2,14,,,,,,,,8,16,,,,,,,,,,,8,1.681,1,,,,,,0.327083376,-0.397916688,1,0,0,1.6809,Pumice_rect,13,0,13,0,1,
611830fe665c7b68723910b3,TCR,2024-06-26_11h16.13.910,LearnStrategy,2023.2.3,Win32,59.52380952,7,2,15,,,,,,,,3,02,,,,,,,,,,,4,3.449,0,,,,,,0.372222265,-0.238888899,1,0,0,3.4492,Gabbro_rect,14,0,14,0,1,
611830fe665c7b68723910b3,TCR,2024-06-26_11h16.13.910,LearnStrategy,2023.2.3,Win32,59.52380952,7,2,16,,,,,,,,5,10,,,,,,,,,,,5,2.131,1,,,,,,-0.408333302,-0.39652782,1,0,0,2.1312,Obsidian_rect,15,0,15,0,1,
611830fe665c7b68723910b3,TCR,2024-06-26_11h16.13.910,LearnStrategy,2023.2.3,Win32,59.52380952,8,1,1,0.029166645,0.00486109,1,0,0,1.5004,rock_grid_rect_2,2,14,-1,-1,1.5,0.152777778,-0.252777788,1,0,0,2.1981,Diorite_rect,3,2.198,0,0,0,0,0,1,,,,,,,,,,,,,
611830fe665c7b68723910b3,TCR,2024-06-26_11h16.13.910,LearnStrategy,2023.2.3,Win32,59.52380952,8,1,2,0.073611153,-0.013194455,1,0,0,1.5169,rock_grid_rect_2,7,05,-1,-1,1.517,0.156944487,-0.40625,1,0,0,1.8147,Peridotite_rect,7,1.815,1,1,0,1,0,1,,,,,,,,,,,,,
611830fe665c7b68723910b3,TCR,2024-06-26_11h16.13.910,LearnStrategy,2023.2.3,Win32,59.52380952,8,1,3,0.090277778,-0.018055545,1,0,0,1.1998,rock_grid_rect_2,6,10,-1,-1,1.2,-0.070833312,-0.418055534,1,0,0,1.5643,Pegmatite_rect,6,1.564,1,2,0,2,0,1,,,,,,,,,,,,,
611830fe665c7b68723910b3,TCR,2024-06-26_11h16.13.910,LearnStrategy,2023.2.3,Win32,59.52380952,8,1,4,0.056250042,0.009027746,1,0,0,1.3168,rock_grid_rect_2,3,15,-1,-1,1.317,0.404166645,-0.254861143,1,0,0,1.9814,Gabbro_rect,4,1.981,0,3,0,3,0,1,,,,,,,,,,,,,
611830fe665c7b68723910b3,TCR,2024-06-26_11h16.13.910,LearnStrategy,2023.2.3,Win32,59.52380952,8,1,5,0.061111132,-0.000694434,1,0,0,1.4334,rock_grid_rect_2,1,04,-1,-1,1.433,-0.333333333,-0.26527781,1,0,0,1.531,Andesite_rect,1,1.531,1,4,0,4,0,1,,,,,,,,,,,,,
611830fe665c7b68723910b3,TCR,2024-06-26_11h16.13.910,LearnStrategy,2023.2.3,Win32,59.52380952,8,1,6,0.03611109,-0.013888889,1,0,0,0.9999,rock_grid_rect_2,1,05,-1,-1,1,0.156944487,-0.258333365,1,0,0,3.0995,Diorite_rect,3,3.1,0,5,0,5,0,1,,,,,,,,,,,,,
611830fe665c7b68723910b3,TCR,2024-06-26_11h16.13.910,LearnStrategy,2023.2.3,Win32,59.52380952,8,1,7,0.02152782,-0.008333365,1,0,0,1.0667,rock_grid_rect_2,6,05,-1,-1,1.067,0.132638931,-0.379166656,1,0,0,3.4993,Peridotite_rect,7,3.499,0,6,0,6,0,1,,,,,,,,,,,,,
611830fe665c7b68723910b3,TCR,2024-06-26_11h16.13.910,LearnStrategy,2023.2.3,Win32,59.52380952,8,1,8,0.035416709,0.002777788,1,0,0,1.467,rock_grid_rect_2,7,02,-1,-1,1.467,0.134722286,-0.397916688,1,0,0,1.4977,Peridotite_rect,7,1.498,1,7,0,7,0,1,,,,,,,,,,,,,
611830fe665c7b68723910b3,TCR,2024-06-26_11h16.13.910,LearnStrategy,2023.2.3,Win32,59.52380952,8,1,9,0.039583312,0.013194455,1,0,0,1.2502,rock_grid_rect_2,7,12,-1,-1,1.25,0.103472286,-0.402777778,1,0,0,4.5838,Peridotite_rect,7,4.584,1,8,0,8,0,1,,,,,,,,,,,,,
611830fe665c7b68723910b3,TCR,2024-06-26_11h16.13.910,LearnStrategy,2023.2.3,Win32,59.52380952,8,1,10,0.128472222,-0.006250011,1,0,0,1.4669,rock_grid_rect_2,3,14,-1,-1,1.467,-0.329166677,-0.255555577,1,0,0,1.5477,Andesite_rect,1,1.548,0,9,0,9,0,1,,,,,,,,,,,,,
611830fe665c7b68723910b3,TCR,2024-06-26_11h16.13.910,LearnStrategy,2023.2.3,Win32,59.52380952,8,1,11,0.023611175,-0.011805587,1,0,0,1.6507,rock_grid_rect_2,3,10,-1,-1,1.651,0.374305619,-0.256250011,1,0,0,2.3151,Gabbro_rect,4,2.315,0,10,0,10,0,1,,,,,,,,,,,,,
611830fe665c7b68723910b3,TCR,2024-06-26_11h16.13.910,LearnStrategy,2023.2.3,Win32,59.52380952,8,1,12,0.071527799,-0.014583323,1,0,0,1.5002,rock_grid_rect_2,4,08,-1,-1,1.5,0.135416667,-0.242361122,1,0,0,4.4,Diorite_rect,3,4.4,0,11,0,11,0,1,,,,,,,,,,,,,
611830fe665c7b68723910b3,TCR,2024-06-26_11h16.13.910,LearnStrategy,2023.2.3,Win32,59.52380952,8,1,13,0.080555598,-0.022222254,1,0,0,1.2167,rock_grid_rect_2,6,05,-1,-1,1.217,0.131250064,-0.247222212,1,0,0,2.1649,Diorite_rect,3,2.165,0,12,0,12,0,1,,,,,,,,,,,,,
611830fe665c7b68723910b3,TCR,2024-06-26_11h16.13.910,LearnStrategy,2023.2.3,Win32,59.52380952,8,1,14,0.043055534,-0.004166656,1,0,0,1.2667,rock_grid_rect_2,4,15,-1,-1,1.267,-0.341666645,-0.230555587,1,0,0,4.717,Andesite_rect,1,4.717,0,13,0,13,0,1,,,,,,,,,,,,,
611830fe665c7b68723910b3,TCR,2024-06-26_11h16.13.910,LearnStrategy,2023.2.3,Win32,59.52380952,8,1,15,0.050694466,-0.008333365,1,0,0,1.6671,rock_grid_rect_2,3,06,-1,-1,1.667,0.157638868,-0.233333323,1,0,0,2.7322,Diorite_rect,3,2.732,1,14,0,14,0,1,,,,,,,,,,,,,
611830fe665c7b68723910b3,TCR,2024-06-26_11h16.13.910,LearnStrategy,2023.2.3,Win32,59.52380952,8,1,16,0.077777757,-0.01527781,1,0,0,1.1,rock_grid_rect_2,4,13,-1,-1,1.1,0.361805598,-0.243055556,1,0,0,3.0155,Gabbro_rect,4,3.015,1,15,0,15,0,1,,,,,,,,,,,,,
611830fe665c7b68723910b3,TCR,2024-06-26_11h16.13.910,LearnStrategy,2023.2.3,Win32,59.52380952,8,2,1,,,,,,,,7,13,,,,,,,,,,,7,4.007,1,,,,,,0.109027757,-0.397916688,1,0,0,4.0071,Peridotite_rect,0,0,0,0,1,
611830fe665c7b68723910b3,TCR,2024-06-26_11h16.13.910,LearnStrategy,2023.2.3,Win32,59.52380952,8,2,2,,,,,,,,8,13,,,,,,,,,,,8,1.55,1,,,,,,0.373611132,-0.392361111,1,0,0,1.5502,Pumice_rect,1,0,1,0,1,
611830fe665c7b68723910b3,TCR,2024-06-26_11h16.13.910,LearnStrategy,2023.2.3,Win32,59.52380952,8,2,3,,,,,,,,5,07,,,,,,,,,,,5,1.584,1,,,,,,-0.436805566,-0.404166645,1,0,0,1.5838,Obsidian_rect,2,0,2,0,1,
611830fe665c7b68723910b3,TCR,2024-06-26_11h16.13.910,LearnStrategy,2023.2.3,Win32,59.52380952,8,2,4,,,,,,,,2,08,,,,,,,,,,,2,1.651,1,,,,,,-0.193750011,-0.23402781,1,0,0,1.6509,Basalt_rect,3,0,3,0,1,
611830fe665c7b68723910b3,TCR,2024-06-26_11h16.13.910,LearnStrategy,2023.2.3,Win32,59.52380952,8,2,5,,,,,,,,4,03,,,,,,,,,,,4,3.907,1,,,,,,0.388194508,-0.254861143,1,0,0,3.9072,Gabbro_rect,4,0,4,0,1,
611830fe665c7b68723910b3,TCR,2024-06-26_11h16.13.910,LearnStrategy,2023.2.3,Win32,59.52380952,8,2,6,,,,,,,,6,16,,,,,,,,,,,6,2.985,1,,,,,,-0.118055556,-0.419444508,1,0,0,2.9849,Pegmatite_rect,5,0,5,0,1,
611830fe665c7b68723910b3,TCR,2024-06-26_11h16.13.910,LearnStrategy,2023.2.3,Win32,59.52380952,8,2,7,,,,,,,,8,08,,,,,,,,,,,8,1.434,1,,,,,,0.342361132,-0.402777778,1,0,0,1.4335,Pumice_rect,6,0,6,0,1,
611830fe665c7b68723910b3,TCR,2024-06-26_11h16.13.910,LearnStrategy,2023.2.3,Win32,59.52380952,8,2,8,,,,,,,,2,06,,,,,,,,,,,2,1.45,1,,,,,,-0.159027788,-0.255555577,1,0,0,1.4501,Basalt_rect,7,0,7,0,1,
611830fe665c7b68723910b3,TCR,2024-06-26_11h16.13.910,LearnStrategy,2023.2.3,Win32,59.52380952,8,2,9,,,,,,,,3,12,,,,,,,,,,,7,3.039,0,,,,,,0.165277799,-0.388194455,1,0,0,3.0395,Peridotite_rect,8,0,8,0,1,
611830fe665c7b68723910b3,TCR,2024-06-26_11h16.13.910,LearnStrategy,2023.2.3,Win32,59.52380952,8,2,10,,,,,,,,7,04,,,,,,,,,,,3,2.418,0,,,,,,0.116666688,-0.267361111,1,0,0,2.4179,Diorite_rect,9,0,9,0,1,
611830fe665c7b68723910b3,TCR,2024-06-26_11h16.13.910,LearnStrategy,2023.2.3,Win32,59.52380952,8,2,11,,,,,,,,3,16,,,,,,,,,,,4,3.402,0,,,,,,0.356250021,-0.234722243,1,0,0,3.4018,Gabbro_rect,10,0,10,0,1,
611830fe665c7b68723910b3,TCR,2024-06-26_11h16.13.910,LearnStrategy,2023.2.3,Win32,59.52380952,8,2,12,,,,,,,,1,10,,,,,,,,,,,4,4.019,0,,,,,,0.413194444,-0.247916698,1,0,0,4.0192,Gabbro_rect,11,0,11,0,1,
611830fe665c7b68723910b3,TCR,2024-06-26_11h16.13.910,LearnStrategy,2023.2.3,Win32,59.52380952,8,2,13,,,,,,,,6,13,,,,,,,,,,,6,3.035,1,,,,,,-0.121527778,-0.395833333,1,0,0,3.0352,Pegmatite_rect,12,0,12,0,1,
611830fe665c7b68723910b3,TCR,2024-06-26_11h16.13.910,LearnStrategy,2023.2.3,Win32,59.52380952,8,2,14,,,,,,,,1,06,,,,,,,,,,,1,1.701,1,,,,,,-0.384722233,-0.240277767,1,0,0,1.7006,Andesite_rect,13,0,13,0,1,
611830fe665c7b68723910b3,TCR,2024-06-26_11h16.13.910,LearnStrategy,2023.2.3,Win32,59.52380952,8,2,15,,,,,,,,4,16,,,,,,,,,,,2,1.867,0,,,,,,-0.138888889,-0.255555577,1,0,0,1.8673,Basalt_rect,14,0,14,0,1,
611830fe665c7b68723910b3,TCR,2024-06-26_11h16.13.910,LearnStrategy,2023.2.3,Win32,59.52380952,8,2,16,,,,,,,,5,06,,,,,,,,,,,5,1.484,1,,,,,,-0.326388889,-0.382638878,1,0,0,1.4839,Obsidian_rect,15,0,15,0,1,
611830fe665c7b68723910b3,TCR,2024-06-26_11h16.13.910,LearnStrategy,2023.2.3,Win32,59.52380952,9,1,1,0.172222243,-0.022222254,1,0,0,1.7623,rock_grid_rect_2,7,05,-1,-1,1.762,0.144444466,-0.400000042,1,0,0,2.0391,Peridotite_rect,7,2.039,1,0,0,0,0,1,,,,,,,,,,,,,
611830fe665c7b68723910b3,TCR,2024-06-26_11h16.13.910,LearnStrategy,2023.2.3,Win32,59.52380952,9,1,2,0.072222286,0.003472222,1,0,0,1.4245,rock_grid_rect_2,2,02,-1,-1,1.425,-0.138888889,-0.23402781,1,0,0,1.3141,Basalt_rect,2,1.314,1,1,0,1,0,1,,,,,,,,,,,,,
611830fe665c7b68723910b3,TCR,2024-06-26_11h16.13.910,LearnStrategy,2023.2.3,Win32,59.52380952,9,1,3,0.037500064,-0.012500021,1,0,0,1.971,rock_grid_rect_2,7,02,-1,-1,1.971,0.145833333,-0.404861132,1,0,0,1.7853,Peridotite_rect,7,1.785,1,2,0,2,0,1,,,,,,,,,,,,,
611830fe665c7b68723910b3,TCR,2024-06-26_11h16.13.910,LearnStrategy,2023.2.3,Win32,59.52380952,9,1,4,0.061805619,-0.007638878,1,0,0,1.3169,rock_grid_rect_2,5,08,-1,-1,1.317,-0.321527746,-0.39166673,1,0,0,1.4884,Obsidian_rect,5,1.488,1,3,0,3,0,1,,,,,,,,,,,,,
611830fe665c7b68723910b3,TCR,2024-06-26_11h16.13.910,LearnStrategy,2023.2.3,Win32,59.52380952,9,1,5,0.05763891,-0.007638878,1,0,0,1.6505,rock_grid_rect_2,6,12,-1,-1,1.65,0.144444466,-0.388194455,1,0,0,3.2398,Peridotite_rect,7,3.24,0,4,0,4,0,1,,,,,,,,,,,,,
611830fe665c7b68723910b3,TCR,2024-06-26_11h16.13.910,LearnStrategy,2023.2.3,Win32,59.52380952,9,1,6,0.038194444,-0.004861143,1,0,0,1.057,rock_grid_rect_2,3,15,-1,-1,1.057,0.12013891,-0.248611132,1,0,0,1.6978,Diorite_rect,3,1.698,1,5,0,5,0,1,,,,,,,,,,,,,
611830fe665c7b68723910b3,TCR,2024-06-26_11h16.13.910,LearnStrategy,2023.2.3,Win32,59.52380952,9,1,7,0.093055619,-0.012500021,1,0,0,1.2992,rock_grid_rect_2,1,04,-1,-1,1.299,-0.366666635,-0.257638878,1,0,0,4.1374,Andesite_rect,1,4.137,1,6,0,6,0,1,,,,,,,,,,,,,
611830fe665c7b68723910b3,TCR,2024-06-26_11h16.13.910,LearnStrategy,2023.2.3,Win32,59.52380952,9,1,8,0.012500021,-0.010416667,1,0,0,1.4697,rock_grid_rect_2,3,11,-1,-1,1.47,0.117361175,-0.247222212,1,0,0,1.9315,Diorite_rect,3,1.932,1,7,0,7,0,1,,,,,,,,,,,,,
611830fe665c7b68723910b3,TCR,2024-06-26_11h16.13.910,LearnStrategy,2023.2.3,Win32,59.52380952,9,1,9,0.068750064,-0.007638878,1,0,0,1.1001,rock_grid_rect_2,4,15,-1,-1,1.1,-0.356249968,-0.231944455,1,0,0,5.3918,Andesite_rect,1,5.392,0,8,0,8,0,1,,,,,,,,,,,,,
611830fe665c7b68723910b3,TCR,2024-06-26_11h16.13.910,LearnStrategy,2023.2.3,Win32,59.52380952,9,1,10,0.023611175,-0.003472222,1,0,0,1.4165,rock_grid_rect_2,7,06,-1,-1,1.416,-0.120833344,-0.39652782,1,0,0,2.1226,Pegmatite_rect,6,2.123,0,9,0,9,0,1,,,,,,,,,,,,,
611830fe665c7b68723910b3,TCR,2024-06-26_11h16.13.910,LearnStrategy,2023.2.3,Win32,59.52380952,9,1,11,0.018055598,-0.017361111,1,0,0,1.1335,rock_grid_rect_2,4,11,-1,-1,1.133,0.406944487,-0.258333365,1,0,0,2.7395,Gabbro_rect,4,2.739,1,10,0,10,0,1,,,,,,,,,,,,,
611830fe665c7b68723910b3,TCR,2024-06-26_11h16.13.910,LearnStrategy,2023.2.3,Win32,59.52380952,9,1,12,-0.000694434,0.000694434,1,0,0,1.5408,rock_grid_rect_2,3,14,-1,-1,1.541,0.152777778,-0.247222212,1,0,0,3.6826,Diorite_rect,3,3.683,1,11,0,11,0,1,,,,,,,,,,,,,
611830fe665c7b68723910b3,TCR,2024-06-26_11h16.13.910,LearnStrategy,2023.2.3,Win32,59.52380952,9,1,13,0.17777782,0.002777788,1,0,0,2.9345,rock_grid_rect_2,6,05,-1,-1,2.935,0.16111109,-0.387500021,1,0,0,4.2666,Peridotite_rect,7,4.267,0,12,0,12,0,1,,,,,,,,,,,,,
611830fe665c7b68723910b3,TCR,2024-06-26_11h16.13.910,LearnStrategy,2023.2.3,Win32,59.52380952,9,1,14,0.05277782,-0.002777788,1,0,0,1.1499,rock_grid_rect_2,4,12,-1,-1,1.15,0.424999979,-0.24513891,1,0,0,1.8812,Gabbro_rect,4,1.881,1,13,0,13,0,1,,,,,,,,,,,,,
611830fe665c7b68723910b3,TCR,2024-06-26_11h16.13.910,LearnStrategy,2023.2.3,Win32,59.52380952,9,1,15,0.050694466,0,1,0,0,1.1285,rock_grid_rect_2,1,14,-1,-1,1.129,0.086111175,-0.420138889,1,0,0,3.4823,Peridotite_rect,7,3.482,0,14,0,14,0,1,,,,,,,,,,,,,
611830fe665c7b68723910b3,TCR,2024-06-26_11h16.13.910,LearnStrategy,2023.2.3,Win32,59.52380952,9,1,16,0.02638891,0.006944444,1,0,0,1.2999,rock_grid_rect_2,3,15,-1,-1,1.3,0.152083397,-0.269444466,1,0,0,3.0822,Diorite_rect,3,3.082,1,15,0,15,0,1,,,,,,,,,,,,,
611830fe665c7b68723910b3,TCR,2024-06-26_11h16.13.910,LearnStrategy,2023.2.3,Win32,59.52380952,9,2,1,,,,,,,,1,16,,,,,,,,,,,1,4.817,1,,,,,,-0.383333312,-0.247222212,1,0,0,4.8167,Andesite_rect,0,0,0,0,1,
611830fe665c7b68723910b3,TCR,2024-06-26_11h16.13.910,LearnStrategy,2023.2.3,Win32,59.52380952,9,2,2,,,,,,,,6,08,,,,,,,,,,,6,2.899,1,,,,,,-0.087499989,-0.386111101,1,0,0,2.899,Pegmatite_rect,1,0,1,0,1,
611830fe665c7b68723910b3,TCR,2024-06-26_11h16.13.910,LearnStrategy,2023.2.3,Win32,59.52380952,9,2,3,,,,,,,,5,02,,,,,,,,,,,5,1.314,1,,,,,,-0.382638878,-0.381250011,1,0,0,1.3139,Obsidian_rect,2,0,2,0,1,
611830fe665c7b68723910b3,TCR,2024-06-26_11h16.13.910,LearnStrategy,2023.2.3,Win32,59.52380952,9,2,4,,,,,,,,2,12,,,,,,,,,,,8,1.948,0,,,,,,0.413888931,-0.381250011,1,0,0,1.9479,Pumice_rect,3,0,3,0,1,
611830fe665c7b68723910b3,TCR,2024-06-26_11h16.13.910,LearnStrategy,2023.2.3,Win32,59.52380952,9,2,5,,,,,,,,3,07,,,,,,,,,,,3,3.599,1,,,,,,0.12986109,-0.252083355,1,0,0,3.5993,Diorite_rect,4,0,4,0,1,
611830fe665c7b68723910b3,TCR,2024-06-26_11h16.13.910,LearnStrategy,2023.2.3,Win32,59.52380952,9,2,6,,,,,,,,7,14,,,,,,,,,,,6,2.715,0,,,,,,-0.073611101,-0.390277757,1,0,0,2.715,Pegmatite_rect,5,0,5,0,1,
611830fe665c7b68723910b3,TCR,2024-06-26_11h16.13.910,LearnStrategy,2023.2.3,Win32,59.52380952,9,2,7,,,,,,,,4,01,,,,,,,,,,,4,5.534,1,,,,,,0.325694508,-0.237500032,1,0,0,5.5342,Gabbro_rect,6,0,6,0,1,
611830fe665c7b68723910b3,TCR,2024-06-26_11h16.13.910,LearnStrategy,2023.2.3,Win32,59.52380952,9,2,8,,,,,,,,8,02,,,,,,,,,,,8,1.547,1,,,,,,0.383333312,-0.397222201,1,0,0,1.5474,Pumice_rect,7,0,7,0,1,
611830fe665c7b68723910b3,TCR,2024-06-26_11h16.13.910,LearnStrategy,2023.2.3,Win32,59.52380952,9,2,9,,,,,,,,6,09,,,,,,,,,,,6,2.431,1,,,,,,-0.113194413,-0.397916688,1,0,0,2.4314,Pegmatite_rect,8,0,8,0,1,
611830fe665c7b68723910b3,TCR,2024-06-26_11h16.13.910,LearnStrategy,2023.2.3,Win32,59.52380952,9,2,10,,,,,,,,2,01,,,,,,,,,,,2,1.147,1,,,,,,-0.115277767,-0.25,1,0,0,1.1472,Basalt_rect,9,0,9,0,1,
611830fe665c7b68723910b3,TCR,2024-06-26_11h16.13.910,LearnStrategy,2023.2.3,Win32,59.52380952,9,2,11,,,,,,,,3,08,,,,,,,,,,,3,4.85,1,,,,,,0.114583333,-0.26527781,1,0,0,4.8504,Diorite_rect,10,0,10,0,1,
611830fe665c7b68723910b3,TCR,2024-06-26_11h16.13.910,LearnStrategy,2023.2.3,Win32,59.52380952,9,2,12,,,,,,,,7,16,,,,,,,,,,,7,3.883,1,,,,,,0.102083312,-0.40138891,1,0,0,3.8829,Peridotite_rect,11,0,11,0,1,
611830fe665c7b68723910b3,TCR,2024-06-26_11h16.13.910,LearnStrategy,2023.2.3,Win32,59.52380952,9,2,13,,,,,,,,5,16,,,,,,,,,,,5,1.564,1,,,,,,-0.369444423,-0.387500021,1,0,0,1.5643,Obsidian_rect,12,0,12,0,1,
611830fe665c7b68723910b3,TCR,2024-06-26_11h16.13.910,LearnStrategy,2023.2.3,Win32,59.52380952,9,2,14,,,,,,,,8,04,,,,,,,,,,,8,1.381,1,,,,,,0.36527782,-0.397222201,1,0,0,1.3807,Pumice_rect,13,0,13,0,1,
611830fe665c7b68723910b3,TCR,2024-06-26_11h16.13.910,LearnStrategy,2023.2.3,Win32,59.52380952,9,2,15,,,,,,,,4,09,,,,,,,,,,,4,5.701,1,,,,,,0.463194423,-0.259027799,1,0,0,5.7011,Gabbro_rect,14,0,14,0,1,
611830fe665c7b68723910b3,TCR,2024-06-26_11h16.13.910,LearnStrategy,2023.2.3,Win32,59.52380952,9,2,16,,,,,,,,1,11,,,,,,,,,,,1,3.115,1,,,,,,-0.381944444,-0.263888889,1,0,0,3.1154,Andesite_rect,15,0,15,0,1,
611830fe665c7b68723910b3,TCR,2024-06-26_11h16.13.910,LearnStrategy,2023.2.3,Win32,59.52380952,,,,,,,,,,,,,,,,,,,,,,,,,,,,,,,,,,,,,,,,,,,1
611830fe665c7b68723910b3,TCR,2024-06-26_11h16.13.910,LearnStrategy,2023.2.3,Win32,59.52380952,,,,,,,,,,,,,,,,,,,,,,,,,,,,,,,,,,,,,,,,,,,
611830fe665c7b68723910b3,TCR,2024-06-26_11h16.13.910,LearnStrategy,2023.2.3,Win32,59.52380952,,,,,,,,,,,6,03,1,1,,,,,,,,,,,,,,,,,,,,,,,,,,,,,
611830fe665c7b68723910b3,TCR,2024-06-26_11h16.13.910,LearnStrategy,2023.2.3,Win32,59.52380952,,,,,,,,,,,7,07,1,2,,,,,,,,,,,,,,,,,,,,,,,,,,,,,
611830fe665c7b68723910b3,TCR,2024-06-26_11h16.13.910,LearnStrategy,2023.2.3,Win32,59.52380952,,,,,,,,,,,8,03,1,3,,,,,,,,,,,,,,,,,,,,,,,,,,,,,
611830fe665c7b68723910b3,TCR,2024-06-26_11h16.13.910,LearnStrategy,2023.2.3,Win32,59.52380952,,,,,,,,,,,6,11,1,4,,,,,,,,,,,,,,,,,,,,,,,,,,,,,
611830fe665c7b68723910b3,TCR,2024-06-26_11h16.13.910,LearnStrategy,2023.2.3,Win32,59.52380952,,,,,,,,,,,2,09,1,5,,,,,,,,,,,,,,,,,,,,,,,,,,,,,
611830fe665c7b68723910b3,TCR,2024-06-26_11h16.13.910,LearnStrategy,2023.2.3,Win32,59.52380952,,,,,,,,,,,1,03,1,6,,,,,,,,,,,,,,,,,,,,,,,,,,,,,
611830fe665c7b68723910b3,TCR,2024-06-26_11h16.13.910,LearnStrategy,2023.2.3,Win32,59.52380952,,,,,,,,,,,7,06,1,7,,,,,,,,,,,,,,,,,,,,,,,,,,,,,
611830fe665c7b68723910b3,TCR,2024-06-26_11h16.13.910,LearnStrategy,2023.2.3,Win32,59.52380952,,,,,,,,,,,4,15,1,8,,,,,,,,,,,,,,,,,,,,,,,,,,,,,
611830fe665c7b68723910b3,TCR,2024-06-26_11h16.13.910,LearnStrategy,2023.2.3,Win32,59.52380952,,,,,,,,,,,6,10,2,1,,,,,,,,,,,,,,,,,,,,,,,,,,,,,
611830fe665c7b68723910b3,TCR,2024-06-26_11h16.13.910,LearnStrategy,2023.2.3,Win32,59.52380952,,,,,,,,,,,4,12,2,2,,,,,,,,,,,,,,,,,,,,,,,,,,,,,
611830fe665c7b68723910b3,TCR,2024-06-26_11h16.13.910,LearnStrategy,2023.2.3,Win32,59.52380952,,,,,,,,,,,8,09,2,3,,,,,,,,,,,,,,,,,,,,,,,,,,,,,
611830fe665c7b68723910b3,TCR,2024-06-26_11h16.13.910,LearnStrategy,2023.2.3,Win32,59.52380952,,,,,,,,,,,3,15,2,4,,,,,,,,,,,,,,,,,,,,,,,,,,,,,
611830fe665c7b68723910b3,TCR,2024-06-26_11h16.13.910,LearnStrategy,2023.2.3,Win32,59.52380952,,,,,,,,,,,7,08,2,5,,,,,,,,,,,,,,,,,,,,,,,,,,,,,
611830fe665c7b68723910b3,TCR,2024-06-26_11h16.13.910,LearnStrategy,2023.2.3,Win32,59.52380952,,,,,,,,,,,5,09,2,6,,,,,,,,,,,,,,,,,,,,,,,,,,,,,
611830fe665c7b68723910b3,TCR,2024-06-26_11h16.13.910,LearnStrategy,2023.2.3,Win32,59.52380952,,,,,,,,,,,5,05,2,7,,,,,,,,,,,,,,,,,,,,,,,,,,,,,
611830fe665c7b68723910b3,TCR,2024-06-26_11h16.13.910,LearnStrategy,2023.2.3,Win32,59.52380952,,,,,,,,,,,5,14,2,8,,,,,,,,,,,,,,,,,,,,,,,,,,,,,
611830fe665c7b68723910b3,TCR,2024-06-26_11h16.13.910,LearnStrategy,2023.2.3,Win32,59.52380952,,,,,,,,,,,4,08,3,1,,,,,,,,,,,,,,,,,,,,,,,,,,,,,
611830fe665c7b68723910b3,TCR,2024-06-26_11h16.13.910,LearnStrategy,2023.2.3,Win32,59.52380952,,,,,,,,,,,3,11,3,2,,,,,,,,,,,,,,,,,,,,,,,,,,,,,
611830fe665c7b68723910b3,TCR,2024-06-26_11h16.13.910,LearnStrategy,2023.2.3,Win32,59.52380952,,,,,,,,,,,1,14,3,3,,,,,,,,,,,,,,,,,,,,,,,,,,,,,
611830fe665c7b68723910b3,TCR,2024-06-26_11h16.13.910,LearnStrategy,2023.2.3,Win32,59.52380952,,,,,,,,,,,6,05,3,4,,,,,,,,,,,,,,,,,,,,,,,,,,,,,
611830fe665c7b68723910b3,TCR,2024-06-26_11h16.13.910,LearnStrategy,2023.2.3,Win32,59.52380952,,,,,,,,,,,1,02,3,5,,,,,,,,,,,,,,,,,,,,,,,,,,,,,
611830fe665c7b68723910b3,TCR,2024-06-26_11h16.13.910,LearnStrategy,2023.2.3,Win32,59.52380952,,,,,,,,,,,2,11,3,6,,,,,,,,,,,,,,,,,,,,,,,,,,,,,
611830fe665c7b68723910b3,TCR,2024-06-26_11h16.13.910,LearnStrategy,2023.2.3,Win32,59.52380952,,,,,,,,,,,3,10,3,7,,,,,,,,,,,,,,,,,,,,,,,,,,,,,
611830fe665c7b68723910b3,TCR,2024-06-26_11h16.13.910,LearnStrategy,2023.2.3,Win32,59.52380952,,,,,,,,,,,3,14,3,8,,,,,,,,,,,,,,,,,,,,,,,,,,,,,
611830fe665c7b68723910b3,TCR,2024-06-26_11h16.13.910,LearnStrategy,2023.2.3,Win32,59.52380952,,,,,,,,,,,5,04,4,1,,,,,,,,,,,,,,,,,,,,,,,,,,,,,
611830fe665c7b68723910b3,TCR,2024-06-26_11h16.13.910,LearnStrategy,2023.2.3,Win32,59.52380952,,,,,,,,,,,1,04,4,2,,,,,,,,,,,,,,,,,,,,,,,,,,,,,
611830fe665c7b68723910b3,TCR,2024-06-26_11h16.13.910,LearnStrategy,2023.2.3,Win32,59.52380952,,,,,,,,,,,3,13,4,3,,,,,,,,,,,,,,,,,,,,,,,,,,,,,
611830fe665c7b68723910b3,TCR,2024-06-26_11h16.13.910,LearnStrategy,2023.2.3,Win32,59.52380952,,,,,,,,,,,6,06,4,4,,,,,,,,,,,,,,,,,,,,,,,,,,,,,
611830fe665c7b68723910b3,TCR,2024-06-26_11h16.13.910,LearnStrategy,2023.2.3,Win32,59.52380952,,,,,,,,,,,2,10,4,5,,,,,,,,,,,,,,,,,,,,,,,,,,,,,
611830fe665c7b68723910b3,TCR,2024-06-26_11h16.13.910,LearnStrategy,2023.2.3,Win32,59.52380952,,,,,,,,,,,4,10,4,6,,,,,,,,,,,,,,,,,,,,,,,,,,,,,
611830fe665c7b68723910b3,TCR,2024-06-26_11h16.13.910,LearnStrategy,2023.2.3,Win32,59.52380952,,,,,,,,,,,5,08,4,7,,,,,,,,,,,,,,,,,,,,,,,,,,,,,
611830fe665c7b68723910b3,TCR,2024-06-26_11h16.13.910,LearnStrategy,2023.2.3,Win32,59.52380952,,,,,,,,,,,4,13,4,8,,,,,,,,,,,,,,,,,,,,,,,,,,,,,
611830fe665c7b68723910b3,TCR,2024-06-26_11h16.13.910,LearnStrategy,2023.2.3,Win32,59.52380952,,,,,,,,,,,4,11,5,1,,,,,,,,,,,,,,,,,,,,,,,,,,,,,
611830fe665c7b68723910b3,TCR,2024-06-26_11h16.13.910,LearnStrategy,2023.2.3,Win32,59.52380952,,,,,,,,,,,2,14,5,2,,,,,,,,,,,,,,,,,,,,,,,,,,,,,
611830fe665c7b68723910b3,TCR,2024-06-26_11h16.13.910,LearnStrategy,2023.2.3,Win32,59.52380952,,,,,,,,,,,7,05,5,3,,,,,,,,,,,,,,,,,,,,,,,,,,,,,
611830fe665c7b68723910b3,TCR,2024-06-26_11h16.13.910,LearnStrategy,2023.2.3,Win32,59.52380952,,,,,,,,,,,8,10,5,4,,,,,,,,,,,,,,,,,,,,,,,,,,,,,
611830fe665c7b68723910b3,TCR,2024-06-26_11h16.13.910,LearnStrategy,2023.2.3,Win32,59.52380952,,,,,,,,,,,8,15,5,5,,,,,,,,,,,,,,,,,,,,,,,,,,,,,
611830fe665c7b68723910b3,TCR,2024-06-26_11h16.13.910,LearnStrategy,2023.2.3,Win32,59.52380952,,,,,,,,,,,2,02,5,6,,,,,,,,,,,,,,,,,,,,,,,,,,,,,
611830fe665c7b68723910b3,TCR,2024-06-26_11h16.13.910,LearnStrategy,2023.2.3,Win32,59.52380952,,,,,,,,,,,3,06,5,7,,,,,,,,,,,,,,,,,,,,,,,,,,,,,
611830fe665c7b68723910b3,TCR,2024-06-26_11h16.13.910,LearnStrategy,2023.2.3,Win32,59.52380952,,,,,,,,,,,8,14,5,8,,,,,,,,,,,,,,,,,,,,,,,,,,,,,
611830fe665c7b68723910b3,TCR,2024-06-26_11h16.13.910,LearnStrategy,2023.2.3,Win32,59.52380952,,,,,,,,,,,1,05,6,1,,,,,,,,,,,,,,,,,,,,,,,,,,,,,
611830fe665c7b68723910b3,TCR,2024-06-26_11h16.13.910,LearnStrategy,2023.2.3,Win32,59.52380952,,,,,,,,,,,8,05,6,2,,,,,,,,,,,,,,,,,,,,,,,,,,,,,
611830fe665c7b68723910b3,TCR,2024-06-26_11h16.13.910,LearnStrategy,2023.2.3,Win32,59.52380952,,,,,,,,,,,2,05,6,3,,,,,,,,,,,,,,,,,,,,,,,,,,,,,
611830fe665c7b68723910b3,TCR,2024-06-26_11h16.13.910,LearnStrategy,2023.2.3,Win32,59.52380952,,,,,,,,,,,1,09,6,4,,,,,,,,,,,,,,,,,,,,,,,,,,,,,
611830fe665c7b68723910b3,TCR,2024-06-26_11h16.13.910,LearnStrategy,2023.2.3,Win32,59.52380952,,,,,,,,,,,7,12,6,5,,,,,,,,,,,,,,,,,,,,,,,,,,,,,
611830fe665c7b68723910b3,TCR,2024-06-26_11h16.13.910,LearnStrategy,2023.2.3,Win32,59.52380952,,,,,,,,,,,5,12,6,6,,,,,,,,,,,,,,,,,,,,,,,,,,,,,
611830fe665c7b68723910b3,TCR,2024-06-26_11h16.13.910,LearnStrategy,2023.2.3,Win32,59.52380952,,,,,,,,,,,7,02,6,7,,,,,,,,,,,,,,,,,,,,,,,,,,,,,
611830fe665c7b68723910b3,TCR,2024-06-26_11h16.13.910,LearnStrategy,2023.2.3,Win32,59.52380952,,,,,,,,,,,6,12,6,8,,,,,,,,,,,,,,,,,,,,,,,,,,,,,