participant,condition,date,expName,psychopyVersion,OS,frameRate,block,phase,trial,learn_mouse.x,learn_mouse.y,learn_mouse.leftButton,learn_mouse.midButton,learn_mouse.rightButton,learn_mouse.time,learn_mouse.clicked_name,cat,token,row,col,t_select,cat_mouse_l.x,cat_mouse_l.y,cat_mouse_l.leftButton,cat_mouse_l.midButton,cat_mouse_l.rightButton,cat_mouse_l.time,cat_mouse_l.clicked_name,resp,t_resp,corr,train_trials.thisRepN,train_trials.thisTrialN,train_trials.thisN,train_trials.thisIndex,train_trials.ran,cat_mouse_t.x,cat_mouse_t.y,cat_mouse_t.leftButton,cat_mouse_t.midButton,cat_mouse_t.rightButton,cat_mouse_t.time,cat_mouse_t.clicked_name,test_trials.thisRepN,test_trials.thisTrialN,test_trials.thisN,test_trials.thisIndex,test_trials.ran,Bonus
61230b14a3bcb65c585dfdaa,SCN,2024-06-12_12h40.10.988,LearnStrategy,2023.2.3,Win32,59.88023952,,,,,,,,,,,,,,,,,,,,,,,,,,,,,,,,,,,,,,,,,,,
61230b14a3bcb65c585dfdaa,SCN,2024-06-12_12h40.10.988,LearnStrategy,2023.2.3,Win32,59.88023952,1,1,1,0.405208333,-0.12109375,1,0,0,16.6541,Obsidian_06,5,06,3,7,16.654,-0.38125,-0.399739583,1,0,0,128.4062,Obsidian_rect,5,128.406,1,0,0,0,0,1,,,,,,,,,,,,,
61230b14a3bcb65c585dfdaa,SCN,2024-06-12_12h40.10.988,LearnStrategy,2023.2.3,Win32,59.88023952,1,1,2,0.393489583,0.412760417,1,0,0,2.4721,Diorite_14,3,14,6,7,2.472,0.4,-0.259114583,1,0,0,37.8702,Gabbro_rect,4,37.87,0,1,0,1,0,1,,,,,,,,,,,,,
61230b14a3bcb65c585dfdaa,SCN,2024-06-12_12h40.10.988,LearnStrategy,2023.2.3,Win32,59.88023952,1,1,3,-0.55703125,-0.1015625,1,0,0,6.5689,Obsidian_02,5,02,3,1,6.569,-0.395572917,-0.395833333,1,0,0,3.9741,Obsidian_rect,5,3.974,1,2,0,2,0,1,,,,,,,,,,,,,
61230b14a3bcb65c585dfdaa,SCN,2024-06-12_12h40.10.988,LearnStrategy,2023.2.3,Win32,59.88023952,1,1,4,-0.55703125,0.395833333,1,0,0,5.8615,Obsidian_14,5,14,6,1,5.861,-0.356510417,-0.393229167,1,0,0,2.0806,Obsidian_rect,5,2.081,1,3,0,3,0,1,,,,,,,,,,,,,
61230b14a3bcb65c585dfdaa,SCN,2024-06-12_12h40.10.988,LearnStrategy,2023.2.3,Win32,59.88023952,1,1,5,-0.391666667,0.4140625,1,0,0,1.4693,Pegmatite_11,6,11,6,2,1.469,-0.11953125,-0.260416667,1,0,0,3.5188,Basalt_rect,2,3.519,0,4,0,4,0,1,,,,,,,,,,,,,
61230b14a3bcb65c585dfdaa,SCN,2024-06-12_12h40.10.988,LearnStrategy,2023.2.3,Win32,59.88023952,1,1,6,-0.226302083,0.412760417,1,0,0,1.4602,Pegmatite_08,6,08,6,3,1.46,-0.16640625,-0.248697917,1,0,0,2.8883,Basalt_rect,2,2.888,0,5,0,5,0,1,,,,,,,,,,,,,
61230b14a3bcb65c585dfdaa,SCN,2024-06-12_12h40.10.988,LearnStrategy,2023.2.3,Win32,59.88023952,1,1,7,-0.0765625,0.415364583,1,0,0,1.5637,Andesite_14,1,14,6,4,1.564,0.136979167,-0.2421875,1,0,0,2.9674,Diorite_rect,3,2.967,0,6,0,6,0,1,,,,,,,,,,,,,
61230b14a3bcb65c585dfdaa,SCN,2024-06-12_12h40.10.988,LearnStrategy,2023.2.3,Win32,59.88023952,1,1,8,0.082291667,0.411458333,1,0,0,4.0154,Peridotite_16,7,16,6,5,4.015,0.159114583,-0.3984375,1,0,0,3.5987,Peridotite_rect,7,3.599,1,7,0,7,0,1,,,,,,,,,,,,,
61230b14a3bcb65c585dfdaa,SCN,2024-06-12_12h40.10.988,LearnStrategy,2023.2.3,Win32,59.88023952,1,1,9,0.2359375,0.408854167,1,0,0,2.9973,Basalt_11,2,11,6,6,2.997,0.43125,-0.3984375,1,0,0,2.2459,Pumice_rect,8,2.246,0,8,0,8,0,1,,,,,,,,,,,,,
61230b14a3bcb65c585dfdaa,SCN,2024-06-12_12h40.10.988,LearnStrategy,2023.2.3,Win32,59.88023952,1,1,10,0.5640625,0.403645833,1,0,0,2.364,Andesite_16,1,16,6,8,2.364,0.385677083,-0.420572917,1,0,0,1.6524,Pumice_rect,8,1.652,0,9,0,9,0,1,,,,,,,,,,,,,
61230b14a3bcb65c585dfdaa,SCN,2024-06-12_12h40.10.988,LearnStrategy,2023.2.3,Win32,59.88023952,1,1,11,-0.54921875,0.252604167,1,0,0,1.6023,Basalt_01,2,01,5,1,1.602,-0.155989583,-0.247395833,1,0,0,27.0472,Basalt_rect,2,27.047,1,10,0,10,0,1,,,,,,,,,,,,,
61230b14a3bcb65c585dfdaa,SCN,2024-06-12_12h40.10.988,LearnStrategy,2023.2.3,Win32,59.88023952,1,1,12,-0.378645833,0.236979167,1,0,0,26.4662,Basalt_16,2,16,5,2,26.466,-0.106510417,-0.395833333,1,0,0,5.893,Pegmatite_rect,6,5.893,0,11,0,11,0,1,,,,,,,,,,,,,
61230b14a3bcb65c585dfdaa,SCN,2024-06-12_12h40.10.988,LearnStrategy,2023.2.3,Win32,59.88023952,1,1,13,-0.23671875,0.264322917,1,0,0,1.2096,Pegmatite_15,6,15,5,3,1.21,0.155208333,-0.264322917,1,0,0,1.662,Diorite_rect,3,1.662,0,12,0,12,0,1,,,,,,,,,,,,,
61230b14a3bcb65c585dfdaa,SCN,2024-06-12_12h40.10.988,LearnStrategy,2023.2.3,Win32,59.88023952,1,1,14,-0.0765625,0.2421875,1,0,0,2.6829,Obsidian_12,5,12,5,4,2.683,-0.368229167,-0.408854167,1,0,0,2.412,Obsidian_rect,5,2.412,1,13,0,13,0,1,,,,,,,,,,,,,
61230b14a3bcb65c585dfdaa,SCN,2024-06-12_12h40.10.988,LearnStrategy,2023.2.3,Win32,59.88023952,1,1,15,0.09140625,0.240885417,1,0,0,2.7441,Gabbro_08,4,08,5,5,2.744,0.379166667,-0.407552083,1,0,0,1.8799,Pumice_rect,8,1.88,0,14,0,14,0,1,,,,,,,,,,,,,
61230b14a3bcb65c585dfdaa,SCN,2024-06-12_12h40.10.988,LearnStrategy,2023.2.3,Win32,59.88023952,1,1,16,0.246354167,0.2578125,1,0,0,1.4289,Andesite_09,1,09,5,6,1.429,0.401302083,-0.39453125,1,0,0,1.8655,Pumice_rect,8,1.865,0,15,0,15,0,1,,,,,,,,,,,,,
61230b14a3bcb65c585dfdaa,SCN,2024-06-12_12h40.10.988,LearnStrategy,2023.2.3,Win32,59.88023952,1,2,1,,,,,,,,5,07,,,,,,,,,,,5,21.641,1,,,,,,-0.396875,-0.397135417,1,0,0,21.6407,Obsidian_rect,0,0,0,0,1,
61230b14a3bcb65c585dfdaa,SCN,2024-06-12_12h40.10.988,LearnStrategy,2023.2.3,Win32,59.88023952,1,2,2,,,,,,,,7,04,,,,,,,,,,,1,36.37,0,,,,,,-0.429427083,-0.247395833,1,0,0,36.3697,Andesite_rect,1,0,1,0,1,
61230b14a3bcb65c585dfdaa,SCN,2024-06-12_12h40.10.988,LearnStrategy,2023.2.3,Win32,59.88023952,1,2,3,,,,,,,,8,10,,,,,,,,,,,8,4.15,1,,,,,,0.429947917,-0.403645833,1,0,0,4.1497,Pumice_rect,2,0,2,0,1,
61230b14a3bcb65c585dfdaa,SCN,2024-06-12_12h40.10.988,LearnStrategy,2023.2.3,Win32,59.88023952,1,2,4,,,,,,,,2,08,,,,,,,,,,,2,8.86,1,,,,,,-0.110416667,-0.229166667,1,0,0,8.8599,Basalt_rect,3,0,3,0,1,
61230b14a3bcb65c585dfdaa,SCN,2024-06-12_12h40.10.988,LearnStrategy,2023.2.3,Win32,59.88023952,1,2,5,,,,,,,,4,05,,,,,,,,,,,7,8.376,0,,,,,,0.176041667,-0.415364583,1,0,0,8.376,Peridotite_rect,4,0,4,0,1,
61230b14a3bcb65c585dfdaa,SCN,2024-06-12_12h40.10.988,LearnStrategy,2023.2.3,Win32,59.88023952,1,2,6,,,,,,,,1,11,,,,,,,,,,,1,17.919,1,,,,,,-0.344791667,-0.248697917,1,0,0,17.9189,Andesite_rect,5,0,5,0,1,
61230b14a3bcb65c585dfdaa,SCN,2024-06-12_12h40.10.988,LearnStrategy,2023.2.3,Win32,59.88023952,1,2,7,,,,,,,,7,12,,,,,,,,,,,1,3.891,0,,,,,,-0.344791667,-0.248697917,1,0,0,3.8914,Andesite_rect,6,0,6,0,1,
61230b14a3bcb65c585dfdaa,SCN,2024-06-12_12h40.10.988,LearnStrategy,2023.2.3,Win32,59.88023952,1,2,8,,,,,,,,8,06,,,,,,,,,,,8,83.167,1,,,,,,0.34140625,-0.412760417,1,0,0,83.1671,Pumice_rect,7,0,7,0,1,
61230b14a3bcb65c585dfdaa,SCN,2024-06-12_12h40.10.988,LearnStrategy,2023.2.3,Win32,59.88023952,1,2,9,,,,,,,,3,02,,,,,,,,,,,3,14.977,1,,,,,,0.190364583,-0.2578125,1,0,0,14.9775,Diorite_rect,8,0,8,0,1,
61230b14a3bcb65c585dfdaa,SCN,2024-06-12_12h40.10.988,LearnStrategy,2023.2.3,Win32,59.88023952,1,2,10,,,,,,,,6,13,,,,,,,,,,,4,6.64,0,,,,,,0.39609375,-0.26171875,1,0,0,6.6401,Gabbro_rect,9,0,9,0,1,
61230b14a3bcb65c585dfdaa,SCN,2024-06-12_12h40.10.988,LearnStrategy,2023.2.3,Win32,59.88023952,1,2,11,,,,,,,,4,16,,,,,,,,,,,4,96.31,1,,,,,,0.39609375,-0.26171875,1,0,0,96.3096,Gabbro_rect,10,0,10,0,1,
61230b14a3bcb65c585dfdaa,SCN,2024-06-12_12h40.10.988,LearnStrategy,2023.2.3,Win32,59.88023952,1,2,12,,,,,,,,1,04,,,,,,,,,,,2,8.674,0,,,,,,-0.1234375,-0.231770833,1,0,0,8.6743,Basalt_rect,11,0,11,0,1,
61230b14a3bcb65c585dfdaa,SCN,2024-06-12_12h40.10.988,LearnStrategy,2023.2.3,Win32,59.88023952,1,2,13,,,,,,,,5,04,,,,,,,,,,,5,14.439,1,,,,,,-0.398177083,-0.40234375,1,0,0,14.4389,Obsidian_rect,12,0,12,0,1,
61230b14a3bcb65c585dfdaa,SCN,2024-06-12_12h40.10.988,LearnStrategy,2023.2.3,Win32,59.88023952,1,2,14,,,,,,,,2,05,,,,,,,,,,,2,14.024,1,,,,,,-0.116927083,-0.25,1,0,0,14.0236,Basalt_rect,13,0,13,0,1,
61230b14a3bcb65c585dfdaa,SCN,2024-06-12_12h40.10.988,LearnStrategy,2023.2.3,Win32,59.88023952,1,2,15,,,,,,,,3,13,,,,,,,,,,,4,9.74,0,,,,,,0.43125,-0.251302083,1,0,0,9.7397,Gabbro_rect,14,0,14,0,1,
61230b14a3bcb65c585dfdaa,SCN,2024-06-12_12h40.10.988,LearnStrategy,2023.2.3,Win32,59.88023952,1,2,16,,,,,,,,6,07,,,,,,,,,,,3,17.932,0,,,,,,0.129166667,-0.255208333,1,0,0,17.9317,Diorite_rect,15,0,15,0,1,
61230b14a3bcb65c585dfdaa,SCN,2024-06-12_12h40.10.988,LearnStrategy,2023.2.3,Win32,59.88023952,2,1,1,0.554947917,-0.412760417,1,0,0,7.1773,Diorite_12,3,12,1,8,7.177,0.140885417,-0.23046875,1,0,0,18.662,Diorite_rect,3,18.662,1,0,0,0,0,1,,,,,,,,,,,,,
61230b14a3bcb65c585dfdaa,SCN,2024-06-12_12h40.10.988,LearnStrategy,2023.2.3,Win32,59.88023952,2,1,2,0.422135417,-0.424479167,1,0,0,3.8958,Pumice_13,8,13,1,7,3.896,-0.35390625,-0.256510417,1,0,0,60.4728,Andesite_rect,1,60.473,0,1,0,1,0,1,,,,,,,,,,,,,
61230b14a3bcb65c585dfdaa,SCN,2024-06-12_12h40.10.988,LearnStrategy,2023.2.3,Win32,59.88023952,2,1,3,0.2828125,-0.423177083,1,0,0,1.2039,Obsidian_16,5,16,1,6,1.204,-0.43984375,-0.388020833,1,0,0,15.794,Obsidian_rect,5,15.794,1,2,0,2,0,1,,,,,,,,,,,,,
61230b14a3bcb65c585dfdaa,SCN,2024-06-12_12h40.10.988,LearnStrategy,2023.2.3,Win32,59.88023952,2,1,4,0.082291667,-0.432291667,1,0,0,3.6367,Diorite_16,3,16,1,5,3.637,0.088802083,-0.233072917,1,0,0,6.0865,Diorite_rect,3,6.087,1,3,0,3,0,1,,,,,,,,,,,,,
61230b14a3bcb65c585dfdaa,SCN,2024-06-12_12h40.10.988,LearnStrategy,2023.2.3,Win32,59.88023952,2,1,5,-0.081770833,-0.403645833,1,0,0,4.627,Basalt_04,2,04,1,4,4.627,-0.14296875,-0.25,1,0,0,11.7248,Basalt_rect,2,11.725,1,4,0,4,0,1,,,,,,,,,,,,,
61230b14a3bcb65c585dfdaa,SCN,2024-06-12_12h40.10.988,LearnStrategy,2023.2.3,Win32,59.88023952,2,1,6,-0.2484375,-0.427083333,1,0,0,1.8053,Pumice_02,8,02,1,3,1.805,0.42734375,-0.399739583,1,0,0,2.4091,Pumice_rect,8,2.409,1,5,0,5,0,1,,,,,,,,,,,,,
61230b14a3bcb65c585dfdaa,SCN,2024-06-12_12h40.10.988,LearnStrategy,2023.2.3,Win32,59.88023952,2,1,7,-0.399479167,-0.38671875,1,0,0,3.6037,Gabbro_03,4,03,1,2,3.604,-0.430729167,-0.25390625,1,0,0,8.3801,Andesite_rect,1,8.38,0,6,0,6,0,1,,,,,,,,,,,,,
61230b14a3bcb65c585dfdaa,SCN,2024-06-12_12h40.10.988,LearnStrategy,2023.2.3,Win32,59.88023952,2,1,8,-0.590885417,-0.412760417,1,0,0,1.6988,Peridotite_10,7,10,1,1,1.699,-0.38125,-0.239583333,1,0,0,10.2886,Andesite_rect,1,10.289,0,7,0,7,0,1,,,,,,,,,,,,,
61230b14a3bcb65c585dfdaa,SCN,2024-06-12_12h40.10.988,LearnStrategy,2023.2.3,Win32,59.88023952,2,1,9,0.24765625,-0.109375,1,0,0,5.8233,Peridotite_13,7,13,3,6,5.823,0.147395833,-0.3984375,1,0,0,23.8391,Peridotite_rect,7,23.839,1,8,0,8,0,1,,,,,,,,,,,,,
61230b14a3bcb65c585dfdaa,SCN,2024-06-12_12h40.10.988,LearnStrategy,2023.2.3,Win32,59.88023952,2,1,10,0.3921875,0.072916667,1,0,0,13.0826,Gabbro_13,4,13,4,7,13.083,-0.152083333,-0.256510417,1,0,0,2.4706,Basalt_rect,2,2.471,0,9,0,9,0,1,,,,,,,,,,,,,
61230b14a3bcb65c585dfdaa,SCN,2024-06-12_12h40.10.988,LearnStrategy,2023.2.3,Win32,59.88023952,2,1,11,-0.05703125,0.12890625,1,0,0,2.3342,Pegmatite_10,6,10,4,4,2.334,0.362239583,-0.263020833,1,0,0,3.6041,Gabbro_rect,4,3.604,0,10,0,10,0,1,,,,,,,,,,,,,
61230b14a3bcb65c585dfdaa,SCN,2024-06-12_12h40.10.988,LearnStrategy,2023.2.3,Win32,59.88023952,2,1,12,0.574479167,-0.119791667,1,0,0,3.7043,Pegmatite_05,6,05,3,8,3.704,-0.15859375,-0.389322917,1,0,0,10.285,Pegmatite_rect,6,10.285,1,11,0,11,0,1,,,,,,,,,,,,,
61230b14a3bcb65c585dfdaa,SCN,2024-06-12_12h40.10.988,LearnStrategy,2023.2.3,Win32,59.88023952,2,1,13,0.069270833,-0.100260417,1,0,0,8.6629,Obsidian_09,5,09,3,5,8.663,-0.426822917,-0.399739583,1,0,0,6.6369,Obsidian_rect,5,6.637,1,12,0,12,0,1,,,,,,,,,,,,,
61230b14a3bcb65c585dfdaa,SCN,2024-06-12_12h40.10.988,LearnStrategy,2023.2.3,Win32,59.88023952,2,1,14,0.553645833,0.255208333,1,0,0,3.4583,Pumice_16,8,16,5,8,3.458,0.42734375,-0.397135417,1,0,0,11.1006,Pumice_rect,8,11.101,1,13,0,13,0,1,,,,,,,,,,,,,
61230b14a3bcb65c585dfdaa,SCN,2024-06-12_12h40.10.988,LearnStrategy,2023.2.3,Win32,59.88023952,2,1,15,0.09921875,0.10546875,1,0,0,6.1441,Diorite_15,3,15,4,5,6.144,-0.101302083,-0.236979167,1,0,0,2.3957,Basalt_rect,2,2.396,0,14,0,14,0,1,,,,,,,,,,,,,
61230b14a3bcb65c585dfdaa,SCN,2024-06-12_12h40.10.988,LearnStrategy,2023.2.3,Win32,59.88023952,2,1,16,-0.094791667,-0.108072917,1,0,0,10.3935,Diorite_11,3,11,3,4,10.394,-0.118229167,-0.395833333,1,0,0,5.3036,Pegmatite_rect,6,5.304,0,15,0,15,0,1,,,,,,,,,,,,,
61230b14a3bcb65c585dfdaa,SCN,2024-06-12_12h40.10.988,LearnStrategy,2023.2.3,Win32,59.88023952,2,2,1,,,,,,,,4,12,,,,,,,,,,,4,11.625,1,,,,,,0.354427083,-0.23046875,1,0,0,11.6253,Gabbro_rect,0,0,0,0,1,
61230b14a3bcb65c585dfdaa,SCN,2024-06-12_12h40.10.988,LearnStrategy,2023.2.3,Win32,59.88023952,2,2,2,,,,,,,,4,15,,,,,,,,,,,4,17.243,1,,,,,,0.428645833,-0.240885417,1,0,0,17.2427,Gabbro_rect,1,0,1,0,1,
61230b14a3bcb65c585dfdaa,SCN,2024-06-12_12h40.10.988,LearnStrategy,2023.2.3,Win32,59.88023952,2,2,3,,,,,,,,8,05,,,,,,,,,,,8,26.099,1,,,,,,0.424739583,-0.393229167,1,0,0,26.0989,Pumice_rect,2,0,2,0,1,
61230b14a3bcb65c585dfdaa,SCN,2024-06-12_12h40.10.988,LearnStrategy,2023.2.3,Win32,59.88023952,2,2,4,,,,,,,,1,03,,,,,,,,,,,1,12.293,1,,,,,,-0.355208333,-0.2578125,1,0,0,12.2934,Andesite_rect,3,0,3,0,1,
61230b14a3bcb65c585dfdaa,SCN,2024-06-12_12h40.10.988,LearnStrategy,2023.2.3,Win32,59.88023952,2,2,5,,,,,,,,2,12,,,,,,,,,,,2,9.712,1,,,,,,-0.126041667,-0.229166667,1,0,0,9.7121,Basalt_rect,4,0,4,0,1,
61230b14a3bcb65c585dfdaa,SCN,2024-06-12_12h40.10.988,LearnStrategy,2023.2.3,Win32,59.88023952,2,2,6,,,,,,,,2,10,,,,,,,,,,,2,7.592,1,,,,,,-0.133854167,-0.243489583,1,0,0,7.5918,Basalt_rect,5,0,5,0,1,
61230b14a3bcb65c585dfdaa,SCN,2024-06-12_12h40.10.988,LearnStrategy,2023.2.3,Win32,59.88023952,2,2,7,,,,,,,,6,06,,,,,,,,,,,6,28.398,1,,,,,,-0.102604167,-0.384114583,1,0,0,28.3975,Pegmatite_rect,6,0,6,0,1,
61230b14a3bcb65c585dfdaa,SCN,2024-06-12_12h40.10.988,LearnStrategy,2023.2.3,Win32,59.88023952,2,2,8,,,,,,,,3,09,,,,,,,,,,,3,8.985,1,,,,,,0.16953125,-0.24609375,1,0,0,8.9854,Diorite_rect,7,0,7,0,1,
61230b14a3bcb65c585dfdaa,SCN,2024-06-12_12h40.10.988,LearnStrategy,2023.2.3,Win32,59.88023952,2,2,9,,,,,,,,5,08,,,,,,,,,,,5,3.137,1,,,,,,-0.370833333,-0.391927083,1,0,0,3.1372,Obsidian_rect,8,0,8,0,1,
61230b14a3bcb65c585dfdaa,SCN,2024-06-12_12h40.10.988,LearnStrategy,2023.2.3,Win32,59.88023952,2,2,10,,,,,,,,7,14,,,,,,,,,,,6,32.689,0,,,,,,-0.1234375,-0.395833333,1,0,0,32.6895,Pegmatite_rect,9,0,9,0,1,
61230b14a3bcb65c585dfdaa,SCN,2024-06-12_12h40.10.988,LearnStrategy,2023.2.3,Win32,59.88023952,2,2,11,,,,,,,,1,05,,,,,,,,,,,8,1.909,0,,,,,,0.437760417,-0.41015625,1,0,0,1.909,Pumice_rect,10,0,10,0,1,
61230b14a3bcb65c585dfdaa,SCN,2024-06-12_12h40.10.988,LearnStrategy,2023.2.3,Win32,59.88023952,2,2,12,,,,,,,,6,09,,,,,,,,,,,6,3.943,1,,,,,,-0.126041667,-0.4140625,1,0,0,3.9427,Pegmatite_rect,11,0,11,0,1,
61230b14a3bcb65c585dfdaa,SCN,2024-06-12_12h40.10.988,LearnStrategy,2023.2.3,Win32,59.88023952,2,2,13,,,,,,,,7,05,,,,,,,,,,,7,10.254,1,,,,,,0.156510417,-0.404947917,1,0,0,10.2541,Peridotite_rect,12,0,12,0,1,
61230b14a3bcb65c585dfdaa,SCN,2024-06-12_12h40.10.988,LearnStrategy,2023.2.3,Win32,59.88023952,2,2,14,,,,,,,,5,10,,,,,,,,,,,5,1.781,1,,,,,,-0.382552083,-0.416666667,1,0,0,1.7807,Obsidian_rect,13,0,13,0,1,
61230b14a3bcb65c585dfdaa,SCN,2024-06-12_12h40.10.988,LearnStrategy,2023.2.3,Win32,59.88023952,2,2,15,,,,,,,,8,14,,,,,,,,,,,8,2.792,1,,,,,,0.381770833,-0.3984375,1,0,0,2.7921,Pumice_rect,14,0,14,0,1,
61230b14a3bcb65c585dfdaa,SCN,2024-06-12_12h40.10.988,LearnStrategy,2023.2.3,Win32,59.88023952,2,2,16,,,,,,,,3,08,,,,,,,,,,,3,9.937,1,,,,,,0.187760417,-0.26171875,1,0,0,9.9374,Diorite_rect,15,0,15,0,1,
61230b14a3bcb65c585dfdaa,SCN,2024-06-12_12h40.10.988,LearnStrategy,2023.2.3,Win32,59.88023952,3,1,1,-0.3890625,0.390625,1,0,0,3.7902,Pegmatite_11,6,11,6,2,3.79,-0.18203125,-0.41015625,1,0,0,6.9837,Pegmatite_rect,6,6.984,1,0,0,0,0,1,,,,,,,,,,,,,
61230b14a3bcb65c585dfdaa,SCN,2024-06-12_12h40.10.988,LearnStrategy,2023.2.3,Win32,59.88023952,3,1,2,0.41171875,0.411458333,1,0,0,3.089,Diorite_14,3,14,6,7,3.089,0.13828125,-0.259114583,1,0,0,1.5774,Diorite_rect,3,1.577,1,1,0,1,0,1,,,,,,,,,,,,,
61230b14a3bcb65c585dfdaa,SCN,2024-06-12_12h40.10.988,LearnStrategy,2023.2.3,Win32,59.88023952,3,1,3,0.56015625,-0.3984375,1,0,0,2.819,Diorite_12,3,12,1,8,2.819,0.129166667,-0.235677083,1,0,0,1.8141,Diorite_rect,3,1.814,1,2,0,2,0,1,,,,,,,,,,,,,
61230b14a3bcb65c585dfdaa,SCN,2024-06-12_12h40.10.988,LearnStrategy,2023.2.3,Win32,59.88023952,3,1,4,0.096614583,-0.411458333,1,0,0,1.5201,Diorite_16,3,16,1,5,1.52,0.113541667,-0.229166667,1,0,0,1.1686,Diorite_rect,3,1.169,1,3,0,3,0,1,,,,,,,,,,,,,
61230b14a3bcb65c585dfdaa,SCN,2024-06-12_12h40.10.988,LearnStrategy,2023.2.3,Win32,59.88023952,3,1,5,-0.070052083,0.1171875,1,0,0,2.461,Pegmatite_10,6,10,4,4,2.461,-0.157291667,-0.412760417,1,0,0,4.8944,Pegmatite_rect,6,4.894,1,4,0,4,0,1,,,,,,,,,,,,,
61230b14a3bcb65c585dfdaa,SCN,2024-06-12_12h40.10.988,LearnStrategy,2023.2.3,Win32,59.88023952,3,1,6,0.415625,-0.108072917,1,0,0,1.8725,Obsidian_06,5,06,3,7,1.872,-0.421614583,-0.385416667,1,0,0,1.39,Obsidian_rect,5,1.39,1,5,0,5,0,1,,,,,,,,,,,,,
61230b14a3bcb65c585dfdaa,SCN,2024-06-12_12h40.10.988,LearnStrategy,2023.2.3,Win32,59.88023952,3,1,7,-0.553125,-0.108072917,1,0,0,2.0234,Obsidian_02,5,02,3,1,2.023,-0.378645833,-0.397135417,1,0,0,2.5329,Obsidian_rect,5,2.533,1,6,0,6,0,1,,,,,,,,,,,,,
61230b14a3bcb65c585dfdaa,SCN,2024-06-12_12h40.10.988,LearnStrategy,2023.2.3,Win32,59.88023952,3,1,8,0.228125,-0.421875,1,0,0,3.159,Obsidian_16,5,16,1,6,3.159,-0.39296875,-0.397135417,1,0,0,3.245,Obsidian_rect,5,3.245,1,7,0,7,0,1,,,,,,,,,,,,,
61230b14a3bcb65c585dfdaa,SCN,2024-06-12_12h40.10.988,LearnStrategy,2023.2.3,Win32,59.88023952,3,1,9,0.094010417,0.251302083,1,0,0,6.0486,Gabbro_08,4,08,5,5,6.049,0.45078125,-0.248697917,1,0,0,8.435,Gabbro_rect,4,8.435,1,8,0,8,0,1,,,,,,,,,,,,,
61230b14a3bcb65c585dfdaa,SCN,2024-06-12_12h40.10.988,LearnStrategy,2023.2.3,Win32,59.88023952,3,1,10,-0.226302083,-0.424479167,1,0,0,2.1112,Pumice_02,8,02,1,3,2.111,0.440364583,-0.3984375,1,0,0,2.4684,Pumice_rect,8,2.468,1,9,0,9,0,1,,,,,,,,,,,,,
61230b14a3bcb65c585dfdaa,SCN,2024-06-12_12h40.10.988,LearnStrategy,2023.2.3,Win32,59.88023952,3,1,11,-0.243229167,0.23046875,1,0,0,3.5846,Pegmatite_15,6,15,5,3,3.585,-0.085677083,-0.40625,1,0,0,5.3901,Pegmatite_rect,6,5.39,1,10,0,10,0,1,,,,,,,,,,,,,
61230b14a3bcb65c585dfdaa,SCN,2024-06-12_12h40.10.988,LearnStrategy,2023.2.3,Win32,59.88023952,3,1,12,0.55234375,0.25,1,0,0,4.2564,Pumice_16,8,16,5,8,4.256,0.446875,-0.391927083,1,0,0,5.3295,Pumice_rect,8,5.33,1,11,0,11,0,1,,,,,,,,,,,,,
61230b14a3bcb65c585dfdaa,SCN,2024-06-12_12h40.10.988,LearnStrategy,2023.2.3,Win32,59.88023952,3,1,13,0.393489583,0.251302083,1,0,0,5.0134,Andesite_01,1,01,5,7,5.013,-0.356510417,-0.2421875,1,0,0,8.7549,Andesite_rect,1,8.755,1,12,0,12,0,1,,,,,,,,,,,,,
61230b14a3bcb65c585dfdaa,SCN,2024-06-12_12h40.10.988,LearnStrategy,2023.2.3,Win32,59.88023952,3,1,14,-0.534895833,0.1015625,1,0,0,2.7899,Peridotite_15,7,15,4,1,2.79,0.148697917,-0.397135417,1,0,0,9.8447,Peridotite_rect,7,9.845,1,13,0,13,0,1,,,,,,,,,,,,,
61230b14a3bcb65c585dfdaa,SCN,2024-06-12_12h40.10.988,LearnStrategy,2023.2.3,Win32,59.88023952,3,1,15,0.080989583,0.095052083,1,0,0,1.9094,Diorite_15,3,15,4,5,1.909,0.134375,-0.23828125,1,0,0,6.7741,Diorite_rect,3,6.774,1,14,0,14,0,1,,,,,,,,,,,,,
61230b14a3bcb65c585dfdaa,SCN,2024-06-12_12h40.10.988,LearnStrategy,2023.2.3,Win32,59.88023952,3,1,16,0.570572917,-0.09375,1,0,0,1.8246,Pegmatite_05,6,05,3,8,1.825,-0.085677083,-0.411458333,1,0,0,5.4107,Pegmatite_rect,6,5.411,1,15,0,15,0,1,,,,,,,,,,,,,
61230b14a3bcb65c585dfdaa,SCN,2024-06-12_12h40.10.988,LearnStrategy,2023.2.3,Win32,59.88023952,3,2,1,,,,,,,,3,10,,,,,,,,,,,3,16.908,1,,,,,,0.14609375,-0.236979167,1,0,0,16.9081,Diorite_rect,0,0,0,0,1,
61230b14a3bcb65c585dfdaa,SCN,2024-06-12_12h40.10.988,LearnStrategy,2023.2.3,Win32,59.88023952,3,2,2,,,,,,,,8,08,,,,,,,,,,,8,3.168,1,,,,,,0.3921875,-0.407552083,1,0,0,3.1685,Pumice_rect,1,0,1,0,1,
61230b14a3bcb65c585dfdaa,SCN,2024-06-12_12h40.10.988,LearnStrategy,2023.2.3,Win32,59.88023952,3,2,3,,,,,,,,4,09,,,,,,,,,,,7,9.143,0,,,,,,0.139583333,-0.393229167,1,0,0,9.1428,Peridotite_rect,2,0,2,0,1,
61230b14a3bcb65c585dfdaa,SCN,2024-06-12_12h40.10.988,LearnStrategy,2023.2.3,Win32,59.88023952,3,2,4,,,,,,,,6,16,,,,,,,,,,,6,6.042,1,,,,,,-0.094791667,-0.403645833,1,0,0,6.0416,Pegmatite_rect,3,0,3,0,1,
61230b14a3bcb65c585dfdaa,SCN,2024-06-12_12h40.10.988,LearnStrategy,2023.2.3,Win32,59.88023952,3,2,5,,,,,,,,2,14,,,,,,,,,,,8,6.777,0,,,,,,0.377864583,-0.408854167,1,0,0,6.7774,Pumice_rect,4,0,4,0,1,
61230b14a3bcb65c585dfdaa,SCN,2024-06-12_12h40.10.988,LearnStrategy,2023.2.3,Win32,59.88023952,3,2,6,,,,,,,,5,11,,,,,,,,,,,5,3.09,1,,,,,,-0.403385417,-0.412760417,1,0,0,3.0902,Obsidian_rect,5,0,5,0,1,
61230b14a3bcb65c585dfdaa,SCN,2024-06-12_12h40.10.988,LearnStrategy,2023.2.3,Win32,59.88023952,3,2,7,,,,,,,,3,07,,,,,,,,,,,3,1.881,1,,,,,,0.155208333,-0.243489583,1,0,0,1.8809,Diorite_rect,6,0,6,0,1,
61230b14a3bcb65c585dfdaa,SCN,2024-06-12_12h40.10.988,LearnStrategy,2023.2.3,Win32,59.88023952,3,2,8,,,,,,,,5,05,,,,,,,,,,,5,2.954,1,,,,,,-0.4046875,-0.40234375,1,0,0,2.9543,Obsidian_rect,7,0,7,0,1,
61230b14a3bcb65c585dfdaa,SCN,2024-06-12_12h40.10.988,LearnStrategy,2023.2.3,Win32,59.88023952,3,2,9,,,,,,,,2,06,,,,,,,,,,,2,10.929,1,,,,,,-0.196354167,-0.251302083,1,0,0,10.9285,Basalt_rect,8,0,8,0,1,
61230b14a3bcb65c585dfdaa,SCN,2024-06-12_12h40.10.988,LearnStrategy,2023.2.3,Win32,59.88023952,3,2,10,,,,,,,,8,09,,,,,,,,,,,8,1.852,1,,,,,,0.414322917,-0.399739583,1,0,0,1.8525,Pumice_rect,9,0,9,0,1,
61230b14a3bcb65c585dfdaa,SCN,2024-06-12_12h40.10.988,LearnStrategy,2023.2.3,Win32,59.88023952,3,2,11,,,,,,,,1,02,,,,,,,,,,,1,22.353,1,,,,,,-0.366927083,-0.234375,1,0,0,22.3534,Andesite_rect,10,0,10,0,1,
61230b14a3bcb65c585dfdaa,SCN,2024-06-12_12h40.10.988,LearnStrategy,2023.2.3,Win32,59.88023952,3,2,12,,,,,,,,7,02,,,,,,,,,,,7,10.037,1,,,,,,0.090104167,-0.390625,1,0,0,10.0375,Peridotite_rect,11,0,11,0,1,
61230b14a3bcb65c585dfdaa,SCN,2024-06-12_12h40.10.988,LearnStrategy,2023.2.3,Win32,59.88023952,3,2,13,,,,,,,,4,10,,,,,,,,,,,1,13.32,0,,,,,,-0.38125,-0.251302083,1,0,0,13.3195,Andesite_rect,12,0,12,0,1,
61230b14a3bcb65c585dfdaa,SCN,2024-06-12_12h40.10.988,LearnStrategy,2023.2.3,Win32,59.88023952,3,2,14,,,,,,,,1,07,,,,,,,,,,,4,20.636,0,,,,,,0.40390625,-0.25390625,1,0,0,20.6356,Gabbro_rect,13,0,13,0,1,
61230b14a3bcb65c585dfdaa,SCN,2024-06-12_12h40.10.988,LearnStrategy,2023.2.3,Win32,59.88023952,3,2,15,,,,,,,,7,07,,,,,,,,,,,7,7.929,1,,,,,,0.20859375,-0.401041667,1,0,0,7.929,Peridotite_rect,14,0,14,0,1,
61230b14a3bcb65c585dfdaa,SCN,2024-06-12_12h40.10.988,LearnStrategy,2023.2.3,Win32,59.88023952,3,2,16,,,,,,,,6,03,,,,,,,,,,,3,7.433,0,,,,,,0.183854167,-0.234375,1,0,0,7.4331,Diorite_rect,15,0,15,0,1,
61230b14a3bcb65c585dfdaa,SCN,2024-06-12_12h40.10.988,LearnStrategy,2023.2.3,Win32,59.88023952,4,1,1,-0.553125,0.411458333,1,0,0,9.8402,Obsidian_14,5,14,6,1,9.84,-0.454166667,-0.3828125,1,0,0,1.4579,Obsidian_rect,5,1.458,1,0,0,0,0,1,,,,,,,,,,,,,
61230b14a3bcb65c585dfdaa,SCN,2024-06-12_12h40.10.988,LearnStrategy,2023.2.3,Win32,59.88023952,4,1,2,-0.386458333,0.423177083,1,0,0,1.0001,Pegmatite_11,6,11,6,2,1,0.166927083,-0.2578125,1,0,0,3.0349,Diorite_rect,3,3.035,0,1,0,1,0,1,,,,,,,,,,,,,
61230b14a3bcb65c585dfdaa,SCN,2024-06-12_12h40.10.988,LearnStrategy,2023.2.3,Win32,59.88023952,4,1,3,-0.247135417,0.403645833,1,0,0,1.1735,Pegmatite_08,6,08,6,3,1.173,0.39609375,-0.23828125,1,0,0,2.7023,Gabbro_rect,4,2.702,0,2,0,2,0,1,,,,,,,,,,,,,
61230b14a3bcb65c585dfdaa,SCN,2024-06-12_12h40.10.988,LearnStrategy,2023.2.3,Win32,59.88023952,4,1,4,-0.067447917,0.283854167,1,0,0,1.9995,Obsidian_12,5,12,5,4,1.999,-0.39296875,-0.407552083,1,0,0,1.9358,Obsidian_rect,5,1.936,1,3,0,3,0,1,,,,,,,,,,,,,
61230b14a3bcb65c585dfdaa,SCN,2024-06-12_12h40.10.988,LearnStrategy,2023.2.3,Win32,59.88023952,4,1,5,0.549739583,-0.423177083,1,0,0,1.6026,Diorite_12,3,12,1,8,1.603,0.143489583,-0.248697917,1,0,0,1.544,Diorite_rect,3,1.544,1,4,0,4,0,1,,,,,,,,,,,,,
61230b14a3bcb65c585dfdaa,SCN,2024-06-12_12h40.10.988,LearnStrategy,2023.2.3,Win32,59.88023952,4,1,6,0.3765625,-0.430989583,1,0,0,1.8165,Pumice_13,8,13,1,7,1.816,0.409114583,-0.389322917,1,0,0,0.8656,Pumice_rect,8,0.866,1,5,0,5,0,1,,,,,,,,,,,,,
61230b14a3bcb65c585dfdaa,SCN,2024-06-12_12h40.10.988,LearnStrategy,2023.2.3,Win32,59.88023952,4,1,7,0.413020833,0.389322917,1,0,0,29.1689,Diorite_14,3,14,6,7,29.169,0.133072917,-0.23828125,1,0,0,4.112,Diorite_rect,3,4.112,1,6,0,6,0,1,,,,,,,,,,,,,
61230b14a3bcb65c585dfdaa,SCN,2024-06-12_12h40.10.988,LearnStrategy,2023.2.3,Win32,59.88023952,4,1,8,-0.06484375,-0.264322917,1,0,0,1.1398,Pegmatite_12,6,12,2,4,1.14,-0.126041667,-0.391927083,1,0,0,8.1115,Pegmatite_rect,6,8.112,1,7,0,7,0,1,,,,,,,,,,,,,
61230b14a3bcb65c585dfdaa,SCN,2024-06-12_12h40.10.988,LearnStrategy,2023.2.3,Win32,59.88023952,4,1,9,0.393489583,-0.100260417,1,0,0,2.6371,Obsidian_06,5,06,3,7,2.637,-0.433333333,-0.3984375,1,0,0,1.6654,Obsidian_rect,5,1.665,1,8,0,8,0,1,,,,,,,,,,,,,
61230b14a3bcb65c585dfdaa,SCN,2024-06-12_12h40.10.988,LearnStrategy,2023.2.3,Win32,59.88023952,4,1,10,-0.383854167,-0.114583333,1,0,0,3.9712,Pumice_15,8,15,3,2,3.971,0.379166667,-0.390625,1,0,0,1.6553,Pumice_rect,8,1.655,1,9,0,9,0,1,,,,,,,,,,,,,
61230b14a3bcb65c585dfdaa,SCN,2024-06-12_12h40.10.988,LearnStrategy,2023.2.3,Win32,59.88023952,4,1,11,0.103125,0.088541667,1,0,0,1.2621,Diorite_15,3,15,4,5,1.262,0.182552083,-0.243489583,1,0,0,1.1048,Diorite_rect,3,1.105,1,10,0,10,0,1,,,,,,,,,,,,,
61230b14a3bcb65c585dfdaa,SCN,2024-06-12_12h40.10.988,LearnStrategy,2023.2.3,Win32,59.88023952,4,1,12,-0.077864583,-0.095052083,1,0,0,1.4728,Diorite_11,3,11,3,4,1.473,0.12265625,-0.252604167,1,0,0,1.3686,Diorite_rect,3,1.369,1,11,0,11,0,1,,,,,,,,,,,,,
61230b14a3bcb65c585dfdaa,SCN,2024-06-12_12h40.10.988,LearnStrategy,2023.2.3,Win32,59.88023952,4,1,13,0.225520833,-0.108072917,1,0,0,6.2818,Peridotite_13,7,13,3,6,6.282,0.139583333,-0.384114583,1,0,0,4.2185,Peridotite_rect,7,4.218,1,12,0,12,0,1,,,,,,,,,,,,,
61230b14a3bcb65c585dfdaa,SCN,2024-06-12_12h40.10.988,LearnStrategy,2023.2.3,Win32,59.88023952,4,1,14,0.082291667,-0.10546875,1,0,0,1.6085,Obsidian_09,5,09,3,5,1.608,-0.437239583,-0.421875,1,0,0,1.2713,Obsidian_rect,5,1.271,1,13,0,13,0,1,,,,,,,,,,,,,
61230b14a3bcb65c585dfdaa,SCN,2024-06-12_12h40.10.988,LearnStrategy,2023.2.3,Win32,59.88023952,4,1,15,0.571875,0.115885417,1,0,0,1.4442,Gabbro_14,4,14,4,8,1.444,-0.120833333,-0.256510417,1,0,0,8.8324,Basalt_rect,2,8.832,0,14,0,14,0,1,,,,,,,,,,,,,
61230b14a3bcb65c585dfdaa,SCN,2024-06-12_12h40.10.988,LearnStrategy,2023.2.3,Win32,59.88023952,4,1,16,0.385677083,0.248697917,1,0,0,2.8983,Andesite_01,1,01,5,7,2.898,0.424739583,-0.23046875,1,0,0,8.6972,Gabbro_rect,4,8.697,0,15,0,15,0,1,,,,,,,,,,,,,
61230b14a3bcb65c585dfdaa,SCN,2024-06-12_12h40.10.988,LearnStrategy,2023.2.3,Win32,59.88023952,4,2,1,,,,,,,,4,09,,,,,,,,,,,7,7.905,0,,,,,,0.183854167,-0.41015625,1,0,0,7.905,Peridotite_rect,0,0,0,0,1,
61230b14a3bcb65c585dfdaa,SCN,2024-06-12_12h40.10.988,LearnStrategy,2023.2.3,Win32,59.88023952,4,2,2,,,,,,,,3,10,,,,,,,,,,,1,17.615,0,,,,,,-0.391666667,-0.251302083,1,0,0,17.6151,Andesite_rect,1,0,1,0,1,
61230b14a3bcb65c585dfdaa,SCN,2024-06-12_12h40.10.988,LearnStrategy,2023.2.3,Win32,59.88023952,4,2,3,,,,,,,,1,07,,,,,,,,,,,3,8.672,0,,,,,,0.18515625,-0.26171875,1,0,0,8.6723,Diorite_rect,2,0,2,0,1,
61230b14a3bcb65c585dfdaa,SCN,2024-06-12_12h40.10.988,LearnStrategy,2023.2.3,Win32,59.88023952,4,2,4,,,,,,,,1,02,,,,,,,,,,,3,2.122,0,,,,,,0.131770833,-0.260416667,1,0,0,2.122,Diorite_rect,3,0,3,0,1,
61230b14a3bcb65c585dfdaa,SCN,2024-06-12_12h40.10.988,LearnStrategy,2023.2.3,Win32,59.88023952,4,2,5,,,,,,,,6,07,,,,,,,,,,,6,7.7,1,,,,,,-0.0921875,-0.41796875,1,0,0,7.6996,Pegmatite_rect,4,0,4,0,1,
61230b14a3bcb65c585dfdaa,SCN,2024-06-12_12h40.10.988,LearnStrategy,2023.2.3,Win32,59.88023952,4,2,6,,,,,,,,2,12,,,,,,,,,,,8,2.003,0,,,,,,0.449479167,-0.403645833,1,0,0,2.0026,Pumice_rect,5,0,5,0,1,
61230b14a3bcb65c585dfdaa,SCN,2024-06-12_12h40.10.988,LearnStrategy,2023.2.3,Win32,59.88023952,4,2,7,,,,,,,,4,05,,,,,,,,,,,1,8.941,0,,,,,,-0.360416667,-0.259114583,1,0,0,8.9408,Andesite_rect,6,0,6,0,1,
61230b14a3bcb65c585dfdaa,SCN,2024-06-12_12h40.10.988,LearnStrategy,2023.2.3,Win32,59.88023952,4,2,8,,,,,,,,7,14,,,,,,,,,,,4,3.449,0,,,,,,0.440364583,-0.236979167,1,0,0,3.4489,Gabbro_rect,7,0,7,0,1,
61230b14a3bcb65c585dfdaa,SCN,2024-06-12_12h40.10.988,LearnStrategy,2023.2.3,Win32,59.88023952,4,2,9,,,,,,,,8,10,,,,,,,,,,,8,1.381,1,,,,,,0.415625,-0.411458333,1,0,0,1.3813,Pumice_rect,8,0,8,0,1,
61230b14a3bcb65c585dfdaa,SCN,2024-06-12_12h40.10.988,LearnStrategy,2023.2.3,Win32,59.88023952,4,2,10,,,,,,,,8,08,,,,,,,,,,,8,1.48,1,,,,,,0.409114583,-0.395833333,1,0,0,1.4795,Pumice_rect,9,0,9,0,1,
61230b14a3bcb65c585dfdaa,SCN,2024-06-12_12h40.10.988,LearnStrategy,2023.2.3,Win32,59.88023952,4,2,11,,,,,,,,2,06,,,,,,,,,,,4,7.091,0,,,,,,0.452083333,-0.235677083,1,0,0,7.0906,Gabbro_rect,10,0,10,0,1,
61230b14a3bcb65c585dfdaa,SCN,2024-06-12_12h40.10.988,LearnStrategy,2023.2.3,Win32,59.88023952,4,2,12,,,,,,,,6,16,,,,,,,,,,,6,6.13,1,,,,,,-0.11953125,-0.412760417,1,0,0,6.1297,Pegmatite_rect,11,0,11,0,1,
61230b14a3bcb65c585dfdaa,SCN,2024-06-12_12h40.10.988,LearnStrategy,2023.2.3,Win32,59.88023952,4,2,13,,,,,,,,5,11,,,,,,,,,,,5,1.491,1,,,,,,-0.386458333,-0.415364583,1,0,0,1.4906,Obsidian_rect,12,0,12,0,1,
61230b14a3bcb65c585dfdaa,SCN,2024-06-12_12h40.10.988,LearnStrategy,2023.2.3,Win32,59.88023952,4,2,14,,,,,,,,3,09,,,,,,,,,,,3,5.224,1,,,,,,0.1109375,-0.234375,1,0,0,5.2243,Diorite_rect,13,0,13,0,1,
61230b14a3bcb65c585dfdaa,SCN,2024-06-12_12h40.10.988,LearnStrategy,2023.2.3,Win32,59.88023952,4,2,15,,,,,,,,5,05,,,,,,,,,,,5,2.671,1,,,,,,-0.376041667,-0.41796875,1,0,0,2.6707,Obsidian_rect,14,0,14,0,1,
61230b14a3bcb65c585dfdaa,SCN,2024-06-12_12h40.10.988,LearnStrategy,2023.2.3,Win32,59.88023952,4,2,16,,,,,,,,7,07,,,,,,,,,,,7,5.828,1,,,,,,0.148697917,-0.40625,1,0,0,5.8283,Peridotite_rect,15,0,15,0,1,
61230b14a3bcb65c585dfdaa,SCN,2024-06-12_12h40.10.988,LearnStrategy,2023.2.3,Win32,59.88023952,5,1,1,0.55625,-0.416666667,1,0,0,3.626,Diorite_12,3,12,1,8,3.626,0.13046875,-0.248697917,1,0,0,1.9873,Diorite_rect,3,1.987,1,0,0,0,0,1,,,,,,,,,,,,,
61230b14a3bcb65c585dfdaa,SCN,2024-06-12_12h40.10.988,LearnStrategy,2023.2.3,Win32,59.88023952,5,1,2,0.547135417,-0.260416667,1,0,0,1.1485,Gabbro_01,4,01,2,8,1.148,0.1109375,-0.395833333,1,0,0,4.7574,Peridotite_rect,7,4.757,0,1,0,1,0,1,,,,,,,,,,,,,
61230b14a3bcb65c585dfdaa,SCN,2024-06-12_12h40.10.988,LearnStrategy,2023.2.3,Win32,59.88023952,5,1,3,0.527604167,-0.091145833,1,0,0,1.3292,Pegmatite_05,6,05,3,8,1.329,-0.133854167,-0.404947917,1,0,0,8.1992,Pegmatite_rect,6,8.199,1,2,0,2,0,1,,,,,,,,,,,,,
61230b14a3bcb65c585dfdaa,SCN,2024-06-12_12h40.10.988,LearnStrategy,2023.2.3,Win32,59.88023952,5,1,4,0.558854167,0.104166667,1,0,0,3.0635,Gabbro_14,4,14,4,8,3.063,0.41953125,-0.23828125,1,0,0,6.127,Gabbro_rect,4,6.127,1,3,0,3,0,1,,,,,,,,,,,,,
61230b14a3bcb65c585dfdaa,SCN,2024-06-12_12h40.10.988,LearnStrategy,2023.2.3,Win32,59.88023952,5,1,5,0.543229167,0.2421875,1,0,0,1.6427,Pumice_16,8,16,5,8,1.643,0.38828125,-0.407552083,1,0,0,4.9932,Pumice_rect,8,4.993,1,4,0,4,0,1,,,,,,,,,,,,,
61230b14a3bcb65c585dfdaa,SCN,2024-06-12_12h40.10.988,LearnStrategy,2023.2.3,Win32,59.88023952,5,1,6,0.549739583,0.380208333,1,0,0,1.553,Andesite_16,1,16,6,8,1.553,0.1421875,-0.415364583,1,0,0,6.5286,Peridotite_rect,7,6.529,0,5,0,5,0,1,,,,,,,,,,,,,
61230b14a3bcb65c585dfdaa,SCN,2024-06-12_12h40.10.988,LearnStrategy,2023.2.3,Win32,59.88023952,5,1,7,0.248958333,-0.126302083,1,0,0,1.588,Peridotite_13,7,13,3,6,1.588,0.147395833,-0.408854167,1,0,0,5.7107,Peridotite_rect,7,5.711,1,6,0,6,0,1,,,,,,,,,,,,,
61230b14a3bcb65c585dfdaa,SCN,2024-06-12_12h40.10.988,LearnStrategy,2023.2.3,Win32,59.88023952,5,1,8,-0.071354167,0.1015625,1,0,0,1.4017,Pegmatite_10,6,10,4,4,1.402,-0.083072917,-0.393229167,1,0,0,4.9212,Pegmatite_rect,6,4.921,1,7,0,7,0,1,,,,,,,,,,,,,
61230b14a3bcb65c585dfdaa,SCN,2024-06-12_12h40.10.988,LearnStrategy,2023.2.3,Win32,59.88023952,5,1,9,-0.071354167,0.263020833,1,0,0,1.5893,Obsidian_12,5,12,5,4,1.589,-0.40078125,-0.420572917,1,0,0,1.3596,Obsidian_rect,5,1.36,1,8,0,8,0,1,,,,,,,,,,,,,
61230b14a3bcb65c585dfdaa,SCN,2024-06-12_12h40.10.988,LearnStrategy,2023.2.3,Win32,59.88023952,5,1,10,0.1109375,0.088541667,1,0,0,1.1024,Diorite_15,3,15,4,5,1.102,0.13046875,-0.248697917,1,0,0,4.7454,Diorite_rect,3,4.745,1,9,0,9,0,1,,,,,,,,,,,,,
61230b14a3bcb65c585dfdaa,SCN,2024-06-12_12h40.10.988,LearnStrategy,2023.2.3,Win32,59.88023952,5,1,11,-0.067447917,0.260416667,1,0,0,1.6986,Obsidian_12,5,12,5,4,1.699,-0.394270833,-0.39453125,1,0,0,1.4569,Obsidian_rect,5,1.457,1,10,0,10,0,1,,,,,,,,,,,,,
61230b14a3bcb65c585dfdaa,SCN,2024-06-12_12h40.10.988,LearnStrategy,2023.2.3,Win32,59.88023952,5,1,12,-0.5765625,-0.098958333,1,0,0,1.277,Obsidian_02,5,02,3,1,1.277,-0.4359375,-0.420572917,1,0,0,1.1125,Obsidian_rect,5,1.112,1,11,0,11,0,1,,,,,,,,,,,,,
61230b14a3bcb65c585dfdaa,SCN,2024-06-12_12h40.10.988,LearnStrategy,2023.2.3,Win32,59.88023952,5,1,13,0.090104167,-0.108072917,1,0,0,1.5616,Obsidian_09,5,09,3,5,1.562,-0.44375,-0.397135417,1,0,0,1.3474,Obsidian_rect,5,1.347,1,12,0,12,0,1,,,,,,,,,,,,,
61230b14a3bcb65c585dfdaa,SCN,2024-06-12_12h40.10.988,LearnStrategy,2023.2.3,Win32,59.88023952,5,1,14,0.25546875,-0.438802083,1,0,0,1.5166,Obsidian_16,5,16,1,6,1.517,-0.43203125,-0.393229167,1,0,0,1.5635,Obsidian_rect,5,1.563,1,13,0,13,0,1,,,,,,,,,,,,,
61230b14a3bcb65c585dfdaa,SCN,2024-06-12_12h40.10.988,LearnStrategy,2023.2.3,Win32,59.88023952,5,1,15,-0.544010417,0.407552083,1,0,0,1.5883,Obsidian_14,5,14,6,1,1.588,-0.40078125,-0.415364583,1,0,0,1.6266,Obsidian_rect,5,1.627,1,14,0,14,0,1,,,,,,,,,,,,,
61230b14a3bcb65c585dfdaa,SCN,2024-06-12_12h40.10.988,LearnStrategy,2023.2.3,Win32,59.88023952,5,1,16,-0.053125,0.109375,1,0,0,1.195,Pegmatite_10,6,10,4,4,1.195,-0.062239583,-0.404947917,1,0,0,5.6301,Pegmatite_rect,6,5.63,1,15,0,15,0,1,,,,,,,,,,,,,
61230b14a3bcb65c585dfdaa,SCN,2024-06-12_12h40.10.988,LearnStrategy,2023.2.3,Win32,59.88023952,5,2,1,,,,,,,,8,14,,,,,,,,,,,8,7.434,1,,,,,,0.381770833,-0.393229167,1,0,0,7.4344,Pumice_rect,0,0,0,0,1,
61230b14a3bcb65c585dfdaa,SCN,2024-06-12_12h40.10.988,LearnStrategy,2023.2.3,Win32,59.88023952,5,2,2,,,,,,,,4,10,,,,,,,,,,,7,7.609,0,,,,,,0.116145833,-0.40625,1,0,0,7.609,Peridotite_rect,1,0,1,0,1,
61230b14a3bcb65c585dfdaa,SCN,2024-06-12_12h40.10.988,LearnStrategy,2023.2.3,Win32,59.88023952,5,2,3,,,,,,,,1,03,,,,,,,,,,,1,7.226,1,,,,,,-0.403385417,-0.256510417,1,0,0,7.2264,Andesite_rect,2,0,2,0,1,
61230b14a3bcb65c585dfdaa,SCN,2024-06-12_12h40.10.988,LearnStrategy,2023.2.3,Win32,59.88023952,5,2,4,,,,,,,,3,02,,,,,,,,,,,3,1.613,1,,,,,,0.2046875,-0.24609375,1,0,0,1.6128,Diorite_rect,3,0,3,0,1,
61230b14a3bcb65c585dfdaa,SCN,2024-06-12_12h40.10.988,LearnStrategy,2023.2.3,Win32,59.88023952,5,2,5,,,,,,,,7,04,,,,,,,,,,,1,6.14,0,,,,,,-0.411197917,-0.268229167,1,0,0,6.1405,Andesite_rect,4,0,4,0,1,
61230b14a3bcb65c585dfdaa,SCN,2024-06-12_12h40.10.988,LearnStrategy,2023.2.3,Win32,59.88023952,5,2,6,,,,,,,,5,07,,,,,,,,,,,5,1.485,1,,,,,,-0.394270833,-0.404947917,1,0,0,1.4855,Obsidian_rect,5,0,5,0,1,
61230b14a3bcb65c585dfdaa,SCN,2024-06-12_12h40.10.988,LearnStrategy,2023.2.3,Win32,59.88023952,5,2,7,,,,,,,,2,08,,,,,,,,,,,7,28.175,0,,,,,,0.135677083,-0.401041667,1,0,0,28.1753,Peridotite_rect,6,0,6,0,1,
61230b14a3bcb65c585dfdaa,SCN,2024-06-12_12h40.10.988,LearnStrategy,2023.2.3,Win32,59.88023952,5,2,8,,,,,,,,7,02,,,,,,,,,,,7,23.473,1,,,,,,0.16171875,-0.408854167,1,0,0,23.4726,Peridotite_rect,7,0,7,0,1,
61230b14a3bcb65c585dfdaa,SCN,2024-06-12_12h40.10.988,LearnStrategy,2023.2.3,Win32,59.88023952,5,2,9,,,,,,,,3,13,,,,,,,,,,,3,2.692,1,,,,,,0.127864583,-0.256510417,1,0,0,2.6923,Diorite_rect,8,0,8,0,1,
61230b14a3bcb65c585dfdaa,SCN,2024-06-12_12h40.10.988,LearnStrategy,2023.2.3,Win32,59.88023952,5,2,10,,,,,,,,1,04,,,,,,,,,,,8,6.026,0,,,,,,0.409114583,-0.388020833,1,0,0,6.0257,Pumice_rect,9,0,9,0,1,
61230b14a3bcb65c585dfdaa,SCN,2024-06-12_12h40.10.988,LearnStrategy,2023.2.3,Win32,59.88023952,5,2,11,,,,,,,,6,06,,,,,,,,,,,6,13.169,1,,,,,,-0.1,-0.412760417,1,0,0,13.1686,Pegmatite_rect,10,0,10,0,1,
61230b14a3bcb65c585dfdaa,SCN,2024-06-12_12h40.10.988,LearnStrategy,2023.2.3,Win32,59.88023952,5,2,12,,,,,,,,2,05,,,,,,,,,,,1,4.085,0,,,,,,-0.43203125,-0.2421875,1,0,0,4.0854,Andesite_rect,11,0,11,0,1,
61230b14a3bcb65c585dfdaa,SCN,2024-06-12_12h40.10.988,LearnStrategy,2023.2.3,Win32,59.88023952,5,2,13,,,,,,,,8,09,,,,,,,,,,,8,1.594,1,,,,,,0.453385417,-0.421875,1,0,0,1.5938,Pumice_rect,12,0,12,0,1,
61230b14a3bcb65c585dfdaa,SCN,2024-06-12_12h40.10.988,LearnStrategy,2023.2.3,Win32,59.88023952,5,2,14,,,,,,,,5,04,,,,,,,,,,,5,1.384,1,,,,,,-0.411197917,-0.404947917,1,0,0,1.3839,Obsidian_rect,13,0,13,0,1,
61230b14a3bcb65c585dfdaa,SCN,2024-06-12_12h40.10.988,LearnStrategy,2023.2.3,Win32,59.88023952,5,2,15,,,,,,,,6,09,,,,,,,,,,,6,6.98,1,,,,,,-0.110416667,-0.397135417,1,0,0,6.98,Pegmatite_rect,14,0,14,0,1,
61230b14a3bcb65c585dfdaa,SCN,2024-06-12_12h40.10.988,LearnStrategy,2023.2.3,Win32,59.88023952,5,2,16,,,,,,,,4,15,,,,,,,,,,,3,12.561,0,,,,,,0.174739583,-0.235677083,1,0,0,12.5612,Diorite_rect,15,0,15,0,1,
61230b14a3bcb65c585dfdaa,SCN,2024-06-12_12h40.10.988,LearnStrategy,2023.2.3,Win32,59.88023952,6,1,1,0.394791667,-0.09765625,1,0,0,3.2209,Obsidian_06,5,06,3,7,3.221,-0.41640625,-0.397135417,1,0,0,1.258,Obsidian_rect,5,1.258,1,0,0,0,0,1,,,,,,,,,,,,,
61230b14a3bcb65c585dfdaa,SCN,2024-06-12_12h40.10.988,LearnStrategy,2023.2.3,Win32,59.88023952,6,1,2,0.092708333,-0.114583333,1,0,0,1.3725,Obsidian_09,5,09,3,5,1.372,-0.348697917,-0.412760417,1,0,0,1.1732,Obsidian_rect,5,1.173,1,1,0,1,0,1,,,,,,,,,,,,,
61230b14a3bcb65c585dfdaa,SCN,2024-06-12_12h40.10.988,LearnStrategy,2023.2.3,Win32,59.88023952,6,1,3,0.241145833,-0.4140625,1,0,0,1.7703,Obsidian_16,5,16,1,6,1.77,-0.419010417,-0.40234375,1,0,0,1.0992,Obsidian_rect,5,1.099,1,2,0,2,0,1,,,,,,,,,,,,,
61230b14a3bcb65c585dfdaa,SCN,2024-06-12_12h40.10.988,LearnStrategy,2023.2.3,Win32,59.88023952,6,1,4,-0.241927083,0.247395833,1,0,0,1.5755,Pegmatite_15,6,15,5,3,1.575,-0.1078125,-0.393229167,1,0,0,4.6746,Pegmatite_rect,6,4.675,1,3,0,3,0,1,,,,,,,,,,,,,
61230b14a3bcb65c585dfdaa,SCN,2024-06-12_12h40.10.988,LearnStrategy,2023.2.3,Win32,59.88023952,6,1,5,-0.0453125,0.227864583,1,0,0,5.4058,Obsidian_12,5,12,5,4,5.406,-0.390364583,-0.388020833,1,0,0,1.9385,Obsidian_rect,5,1.938,1,4,0,4,0,1,,,,,,,,,,,,,
61230b14a3bcb65c585dfdaa,SCN,2024-06-12_12h40.10.988,LearnStrategy,2023.2.3,Win32,59.88023952,6,1,6,0.41953125,-0.11328125,1,0,0,1.5933,Obsidian_06,5,06,3,7,1.593,-0.391666667,-0.393229167,1,0,0,1.1146,Obsidian_rect,5,1.115,1,5,0,5,0,1,,,,,,,,,,,,,
61230b14a3bcb65c585dfdaa,SCN,2024-06-12_12h40.10.988,LearnStrategy,2023.2.3,Win32,59.88023952,6,1,7,0.5640625,0.26171875,1,0,0,1.5181,Pumice_16,8,16,5,8,1.518,0.428645833,-0.397135417,1,0,0,1.4058,Pumice_rect,8,1.406,1,6,0,6,0,1,,,,,,,,,,,,,
61230b14a3bcb65c585dfdaa,SCN,2024-06-12_12h40.10.988,LearnStrategy,2023.2.3,Win32,59.88023952,6,1,8,0.554947917,-0.38671875,1,0,0,4.5244,Diorite_12,3,12,1,8,4.524,0.13046875,-0.251302083,1,0,0,1.1526,Diorite_rect,3,1.153,1,7,0,7,0,1,,,,,,,,,,,,,
61230b14a3bcb65c585dfdaa,SCN,2024-06-12_12h40.10.988,LearnStrategy,2023.2.3,Win32,59.88023952,6,1,9,-0.241927083,0.255208333,1,0,0,1.924,Pegmatite_15,6,15,5,3,1.924,-0.120833333,-0.40625,1,0,0,3.6427,Pegmatite_rect,6,3.643,1,8,0,8,0,1,,,,,,,,,,,,,
61230b14a3bcb65c585dfdaa,SCN,2024-06-12_12h40.10.988,LearnStrategy,2023.2.3,Win32,59.88023952,6,1,10,-0.364322917,0.390625,1,0,0,8.436,Pegmatite_11,6,11,6,2,8.436,-0.137760417,-0.40625,1,0,0,6.4465,Pegmatite_rect,6,6.447,1,9,0,9,0,1,,,,,,,,,,,,,
61230b14a3bcb65c585dfdaa,SCN,2024-06-12_12h40.10.988,LearnStrategy,2023.2.3,Win32,59.88023952,6,1,11,0.24375,0.092447917,1,0,0,1.6392,Gabbro_11,4,11,4,6,1.639,0.120052083,-0.391927083,1,0,0,9.7021,Peridotite_rect,7,9.702,0,10,0,10,0,1,,,,,,,,,,,,,
61230b14a3bcb65c585dfdaa,SCN,2024-06-12_12h40.10.988,LearnStrategy,2023.2.3,Win32,59.88023952,6,1,12,-0.073958333,-0.123697917,1,0,0,1.6676,Diorite_11,3,11,3,4,1.668,0.143489583,-0.25390625,1,0,0,0.9833,Diorite_rect,3,0.983,1,11,0,11,0,1,,,,,,,,,,,,,
61230b14a3bcb65c585dfdaa,SCN,2024-06-12_12h40.10.988,LearnStrategy,2023.2.3,Win32,59.88023952,6,1,13,-0.241927083,-0.421875,1,0,0,1.2679,Pumice_02,8,02,1,3,1.268,0.4234375,-0.395833333,1,0,0,1.3608,Pumice_rect,8,1.361,1,12,0,12,0,1,,,,,,,,,,,,,
61230b14a3bcb65c585dfdaa,SCN,2024-06-12_12h40.10.988,LearnStrategy,2023.2.3,Win32,59.88023952,6,1,14,0.5640625,0.108072917,1,0,0,1.3843,Gabbro_14,4,14,4,8,1.384,-0.128645833,-0.255208333,1,0,0,8.788,Basalt_rect,2,8.788,0,13,0,13,0,1,,,,,,,,,,,,,
61230b14a3bcb65c585dfdaa,SCN,2024-06-12_12h40.10.988,LearnStrategy,2023.2.3,Win32,59.88023952,6,1,15,0.397395833,-0.102864583,1,0,0,1.5818,Obsidian_06,5,06,3,7,1.582,-0.454166667,-0.40234375,1,0,0,1.0371,Obsidian_rect,5,1.037,1,14,0,14,0,1,,,,,,,,,,,,,
61230b14a3bcb65c585dfdaa,SCN,2024-06-12_12h40.10.988,LearnStrategy,2023.2.3,Win32,59.88023952,6,1,16,0.4234375,0.23828125,1,0,0,2.8084,Andesite_01,1,01,5,7,2.808,0.129166667,-0.384114583,1,0,0,2.057,Peridotite_rect,7,2.057,0,15,0,15,0,1,,,,,,,,,,,,,
61230b14a3bcb65c585dfdaa,SCN,2024-06-12_12h40.10.988,LearnStrategy,2023.2.3,Win32,59.88023952,6,2,1,,,,,,,,4,16,,,,,,,,,,,2,10.459,0,,,,,,-0.109114583,-0.25390625,1,0,0,10.4595,Basalt_rect,0,0,0,0,1,
61230b14a3bcb65c585dfdaa,SCN,2024-06-12_12h40.10.988,LearnStrategy,2023.2.3,Win32,59.88023952,6,2,2,,,,,,,,1,05,,,,,,,,,,,1,6.79,1,,,,,,-0.407291667,-0.243489583,1,0,0,6.7899,Andesite_rect,1,0,1,0,1,
61230b14a3bcb65c585dfdaa,SCN,2024-06-12_12h40.10.988,LearnStrategy,2023.2.3,Win32,59.88023952,6,2,3,,,,,,,,8,05,,,,,,,,,,,8,2.292,1,,,,,,0.401302083,-0.415364583,1,0,0,2.292,Pumice_rect,2,0,2,0,1,
61230b14a3bcb65c585dfdaa,SCN,2024-06-12_12h40.10.988,LearnStrategy,2023.2.3,Win32,59.88023952,6,2,4,,,,,,,,6,13,,,,,,,,,,,3,15.906,0,,,,,,0.12265625,-0.259114583,1,0,0,15.9057,Diorite_rect,3,0,3,0,1,
61230b14a3bcb65c585dfdaa,SCN,2024-06-12_12h40.10.988,LearnStrategy,2023.2.3,Win32,59.88023952,6,2,5,,,,,,,,3,08,,,,,,,,,,,3,1.51,1,,,,,,0.12265625,-0.259114583,1,0,0,1.5104,Diorite_rect,4,0,4,0,1,
61230b14a3bcb65c585dfdaa,SCN,2024-06-12_12h40.10.988,LearnStrategy,2023.2.3,Win32,59.88023952,6,2,6,,,,,,,,1,11,,,,,,,,,,,3,1.234,0,,,,,,0.12265625,-0.259114583,1,0,0,1.2344,Diorite_rect,5,0,5,0,1,
61230b14a3bcb65c585dfdaa,SCN,2024-06-12_12h40.10.988,LearnStrategy,2023.2.3,Win32,59.88023952,6,2,7,,,,,,,,6,03,,,,,,,,,,,6,4.967,1,,,,,,-0.13515625,-0.407552083,1,0,0,4.9675,Pegmatite_rect,6,0,6,0,1,
61230b14a3bcb65c585dfdaa,SCN,2024-06-12_12h40.10.988,LearnStrategy,2023.2.3,Win32,59.88023952,6,2,8,,,,,,,,8,06,,,,,,,,,,,8,1.658,1,,,,,,0.436458333,-0.401041667,1,0,0,1.6583,Pumice_rect,7,0,7,0,1,
61230b14a3bcb65c585dfdaa,SCN,2024-06-12_12h40.10.988,LearnStrategy,2023.2.3,Win32,59.88023952,6,2,9,,,,,,,,5,10,,,,,,,,,,,5,1.723,1,,,,,,-0.421614583,-0.38671875,1,0,0,1.7228,Obsidian_rect,8,0,8,0,1,
61230b14a3bcb65c585dfdaa,SCN,2024-06-12_12h40.10.988,LearnStrategy,2023.2.3,Win32,59.88023952,6,2,10,,,,,,,,7,05,,,,,,,,,,,7,12.996,1,,,,,,0.139583333,-0.395833333,1,0,0,12.9956,Peridotite_rect,9,0,9,0,1,
61230b14a3bcb65c585dfdaa,SCN,2024-06-12_12h40.10.988,LearnStrategy,2023.2.3,Win32,59.88023952,6,2,11,,,,,,,,4,12,,,,,,,,,,,4,5.596,1,,,,,,0.426041667,-0.23046875,1,0,0,5.5961,Gabbro_rect,10,0,10,0,1,
61230b14a3bcb65c585dfdaa,SCN,2024-06-12_12h40.10.988,LearnStrategy,2023.2.3,Win32,59.88023952,6,2,12,,,,,,,,7,12,,,,,,,,,,,4,1.227,0,,,,,,0.426041667,-0.23046875,1,0,0,1.2272,Gabbro_rect,11,0,11,0,1,
61230b14a3bcb65c585dfdaa,SCN,2024-06-12_12h40.10.988,LearnStrategy,2023.2.3,Win32,59.88023952,6,2,13,,,,,,,,5,08,,,,,,,,,,,5,1.753,1,,,,,,-0.4125,-0.38671875,1,0,0,1.7528,Obsidian_rect,12,0,12,0,1,
61230b14a3bcb65c585dfdaa,SCN,2024-06-12_12h40.10.988,LearnStrategy,2023.2.3,Win32,59.88023952,6,2,14,,,,,,,,3,07,,,,,,,,,,,3,1.64,1,,,,,,0.123958333,-0.239583333,1,0,0,1.6404,Diorite_rect,13,0,13,0,1,
61230b14a3bcb65c585dfdaa,SCN,2024-06-12_12h40.10.988,LearnStrategy,2023.2.3,Win32,59.88023952,6,2,15,,,,,,,,2,10,,,,,,,,,,,2,12.069,1,,,,,,-0.129947917,-0.266927083,1,0,0,12.0691,Basalt_rect,14,0,14,0,1,
61230b14a3bcb65c585dfdaa,SCN,2024-06-12_12h40.10.988,LearnStrategy,2023.2.3,Win32,59.88023952,6,2,16,,,,,,,,2,14,,,,,,,,,,,8,5.631,0,,,,,,0.41953125,-0.389322917,1,0,0,5.6312,Pumice_rect,15,0,15,0,1,
61230b14a3bcb65c585dfdaa,SCN,2024-06-12_12h40.10.988,LearnStrategy,2023.2.3,Win32,59.88023952,7,1,1,-0.079166667,-0.381510417,1,0,0,2.4457,Basalt_04,2,04,1,4,2.446,0.143489583,-0.240885417,1,0,0,4.7399,Diorite_rect,3,4.74,0,0,0,0,0,1,,,,,,,,,,,,,
61230b14a3bcb65c585dfdaa,SCN,2024-06-12_12h40.10.988,LearnStrategy,2023.2.3,Win32,59.88023952,7,1,2,0.061458333,0.411458333,1,0,0,6.9906,Peridotite_16,7,16,6,5,6.991,0.373958333,-0.2578125,1,0,0,5.233,Gabbro_rect,4,5.233,0,1,0,1,0,1,,,,,,,,,,,,,
61230b14a3bcb65c585dfdaa,SCN,2024-06-12_12h40.10.988,LearnStrategy,2023.2.3,Win32,59.88023952,7,1,3,-0.081770833,-0.106770833,1,0,0,0.9532,Diorite_11,3,11,3,4,0.953,0.113541667,-0.2421875,1,0,0,1.0332,Diorite_rect,3,1.033,1,2,0,2,0,1,,,,,,,,,,,,,
61230b14a3bcb65c585dfdaa,SCN,2024-06-12_12h40.10.988,LearnStrategy,2023.2.3,Win32,59.88023952,7,1,4,0.088802083,-0.43359375,1,0,0,1.2793,Diorite_16,3,16,1,5,1.279,0.123958333,-0.2421875,1,0,0,1.0737,Diorite_rect,3,1.074,1,3,0,3,0,1,,,,,,,,,,,,,
61230b14a3bcb65c585dfdaa,SCN,2024-06-12_12h40.10.988,LearnStrategy,2023.2.3,Win32,59.88023952,7,1,5,0.54453125,-0.41015625,1,0,0,1.1845,Diorite_12,3,12,1,8,1.185,0.116145833,-0.235677083,1,0,0,1.6801,Diorite_rect,3,1.68,1,4,0,4,0,1,,,,,,,,,,,,,
61230b14a3bcb65c585dfdaa,SCN,2024-06-12_12h40.10.988,LearnStrategy,2023.2.3,Win32,59.88023952,7,1,6,-0.209375,0.240885417,1,0,0,1.6177,Pegmatite_15,6,15,5,3,1.618,-0.153385417,-0.41015625,1,0,0,8.125,Pegmatite_rect,6,8.125,1,5,0,5,0,1,,,,,,,,,,,,,
61230b14a3bcb65c585dfdaa,SCN,2024-06-12_12h40.10.988,LearnStrategy,2023.2.3,Win32,59.88023952,7,1,7,-0.10390625,0.227864583,1,0,0,2.674,Obsidian_12,5,12,5,4,2.674,-0.437239583,-0.407552083,1,0,0,0.9865,Obsidian_rect,5,0.987,1,6,0,6,0,1,,,,,,,,,,,,,
61230b14a3bcb65c585dfdaa,SCN,2024-06-12_12h40.10.988,LearnStrategy,2023.2.3,Win32,59.88023952,7,1,8,-0.558333333,-0.08984375,1,0,0,1.0641,Obsidian_02,5,02,3,1,1.064,-0.398177083,-0.3984375,1,0,0,2.6074,Obsidian_rect,5,2.607,1,7,0,7,0,1,,,,,,,,,,,,,
61230b14a3bcb65c585dfdaa,SCN,2024-06-12_12h40.10.988,LearnStrategy,2023.2.3,Win32,59.88023952,7,1,9,0.101822917,-0.104166667,1,0,0,2.5142,Obsidian_09,5,09,3,5,2.514,-0.39296875,-0.401041667,1,0,0,1.7898,Obsidian_rect,5,1.79,1,8,0,8,0,1,,,,,,,,,,,,,
61230b14a3bcb65c585dfdaa,SCN,2024-06-12_12h40.10.988,LearnStrategy,2023.2.3,Win32,59.88023952,7,1,10,-0.554427083,0.40625,1,0,0,2.9207,Obsidian_14,5,14,6,1,2.921,-0.44375,-0.419270833,1,0,0,1.6971,Obsidian_rect,5,1.697,1,9,0,9,0,1,,,,,,,,,,,,,
61230b14a3bcb65c585dfdaa,SCN,2024-06-12_12h40.10.988,LearnStrategy,2023.2.3,Win32,59.88023952,7,1,11,0.2515625,-0.427083333,1,0,0,1.2892,Obsidian_16,5,16,1,6,1.289,-0.4515625,-0.397135417,1,0,0,1.1301,Obsidian_rect,5,1.13,1,10,0,10,0,1,,,,,,,,,,,,,
61230b14a3bcb65c585dfdaa,SCN,2024-06-12_12h40.10.988,LearnStrategy,2023.2.3,Win32,59.88023952,7,1,12,0.41171875,-0.1015625,1,0,0,2.0398,Obsidian_06,5,06,3,7,2.04,-0.399479167,-0.40625,1,0,0,2.235,Obsidian_rect,5,2.235,1,11,0,11,0,1,,,,,,,,,,,,,
61230b14a3bcb65c585dfdaa,SCN,2024-06-12_12h40.10.988,LearnStrategy,2023.2.3,Win32,59.88023952,7,1,13,0.553645833,-0.4140625,1,0,0,2.2758,Diorite_12,3,12,1,8,2.276,0.176041667,-0.2421875,1,0,0,1.7901,Diorite_rect,3,1.79,1,12,0,12,0,1,,,,,,,,,,,,,
61230b14a3bcb65c585dfdaa,SCN,2024-06-12_12h40.10.988,LearnStrategy,2023.2.3,Win32,59.88023952,7,1,14,-0.062239583,0.096354167,1,0,0,2.5984,Pegmatite_10,6,10,4,4,2.598,-0.10390625,-0.397135417,1,0,0,5.2822,Pegmatite_rect,6,5.282,1,13,0,13,0,1,,,,,,,,,,,,,
61230b14a3bcb65c585dfdaa,SCN,2024-06-12_12h40.10.988,LearnStrategy,2023.2.3,Win32,59.88023952,7,1,15,-0.234114583,0.24609375,1,0,0,3.7743,Pegmatite_15,6,15,5,3,3.774,-0.066145833,-0.420572917,1,0,0,4.5844,Pegmatite_rect,6,4.584,1,14,0,14,0,1,,,,,,,,,,,,,
61230b14a3bcb65c585dfdaa,SCN,2024-06-12_12h40.10.988,LearnStrategy,2023.2.3,Win32,59.88023952,7,1,16,0.073177083,0.087239583,1,0,0,1.2459,Diorite_15,3,15,4,5,1.246,0.140885417,-0.24609375,1,0,0,1.9118,Diorite_rect,3,1.912,1,15,0,15,0,1,,,,,,,,,,,,,
61230b14a3bcb65c585dfdaa,SCN,2024-06-12_12h40.10.988,LearnStrategy,2023.2.3,Win32,59.88023952,7,2,1,,,,,,,,3,10,,,,,,,,,,,3,5.229,1,,,,,,0.144791667,-0.23046875,1,0,0,5.2292,Diorite_rect,0,0,0,0,1,
61230b14a3bcb65c585dfdaa,SCN,2024-06-12_12h40.10.988,LearnStrategy,2023.2.3,Win32,59.88023952,7,2,2,,,,,,,,8,09,,,,,,,,,,,8,1.503,1,,,,,,0.381770833,-0.40234375,1,0,0,1.5025,Pumice_rect,1,0,1,0,1,
61230b14a3bcb65c585dfdaa,SCN,2024-06-12_12h40.10.988,LearnStrategy,2023.2.3,Win32,59.88023952,7,2,3,,,,,,,,4,16,,,,,,,,,,,4,6.656,1,,,,,,0.406510417,-0.25,1,0,0,6.6558,Gabbro_rect,2,0,2,0,1,
61230b14a3bcb65c585dfdaa,SCN,2024-06-12_12h40.10.988,LearnStrategy,2023.2.3,Win32,59.88023952,7,2,4,,,,,,,,6,07,,,,,,,,,,,6,10.964,1,,,,,,-0.11171875,-0.393229167,1,0,0,10.9639,Pegmatite_rect,3,0,3,0,1,
61230b14a3bcb65c585dfdaa,SCN,2024-06-12_12h40.10.988,LearnStrategy,2023.2.3,Win32,59.88023952,7,2,5,,,,,,,,4,12,,,,,,,,,,,4,6.684,1,,,,,,0.4078125,-0.243489583,1,0,0,6.6839,Gabbro_rect,4,0,4,0,1,
61230b14a3bcb65c585dfdaa,SCN,2024-06-12_12h40.10.988,LearnStrategy,2023.2.3,Win32,59.88023952,7,2,6,,,,,,,,3,13,,,,,,,,,,,3,1.789,1,,,,,,0.112239583,-0.243489583,1,0,0,1.7889,Diorite_rect,5,0,5,0,1,
61230b14a3bcb65c585dfdaa,SCN,2024-06-12_12h40.10.988,LearnStrategy,2023.2.3,Win32,59.88023952,7,2,7,,,,,,,,1,03,,,,,,,,,,,3,1.201,0,,,,,,0.112239583,-0.243489583,1,0,0,1.2012,Diorite_rect,6,0,6,0,1,
61230b14a3bcb65c585dfdaa,SCN,2024-06-12_12h40.10.988,LearnStrategy,2023.2.3,Win32,59.88023952,7,2,8,,,,,,,,1,05,,,,,,,,,,,3,0.884,0,,,,,,0.112239583,-0.243489583,1,0,0,0.8844,Diorite_rect,7,0,7,0,1,
61230b14a3bcb65c585dfdaa,SCN,2024-06-12_12h40.10.988,LearnStrategy,2023.2.3,Win32,59.88023952,7,2,9,,,,,,,,7,14,,,,,,,,,,,6,2.572,0,,,,,,-0.120833333,-0.401041667,1,0,0,2.5718,Pegmatite_rect,8,0,8,0,1,
61230b14a3bcb65c585dfdaa,SCN,2024-06-12_12h40.10.988,LearnStrategy,2023.2.3,Win32,59.88023952,7,2,10,,,,,,,,5,08,,,,,,,,,,,5,1.278,1,,,,,,-0.40078125,-0.401041667,1,0,0,1.2778,Obsidian_rect,9,0,9,0,1,
61230b14a3bcb65c585dfdaa,SCN,2024-06-12_12h40.10.988,LearnStrategy,2023.2.3,Win32,59.88023952,7,2,11,,,,,,,,6,13,,,,,,,,,,,4,1.774,0,,,,,,0.386979167,-0.240885417,1,0,0,1.774,Gabbro_rect,10,0,10,0,1,
61230b14a3bcb65c585dfdaa,SCN,2024-06-12_12h40.10.988,LearnStrategy,2023.2.3,Win32,59.88023952,7,2,12,,,,,,,,2,08,,,,,,,,,,,2,6.57,1,,,,,,-0.136458333,-0.252604167,1,0,0,6.5704,Basalt_rect,11,0,11,0,1,
61230b14a3bcb65c585dfdaa,SCN,2024-06-12_12h40.10.988,LearnStrategy,2023.2.3,Win32,59.88023952,7,2,13,,,,,,,,5,04,,,,,,,,,,,5,1.533,1,,,,,,-0.40078125,-0.388020833,1,0,0,1.533,Obsidian_rect,12,0,12,0,1,
61230b14a3bcb65c585dfdaa,SCN,2024-06-12_12h40.10.988,LearnStrategy,2023.2.3,Win32,59.88023952,7,2,14,,,,,,,,2,06,,,,,,,,,,,2,4.666,1,,,,,,-0.090885417,-0.255208333,1,0,0,4.666,Basalt_rect,13,0,13,0,1,
61230b14a3bcb65c585dfdaa,SCN,2024-06-12_12h40.10.988,LearnStrategy,2023.2.3,Win32,59.88023952,7,2,15,,,,,,,,8,08,,,,,,,,,,,8,1.57,1,,,,,,0.465104167,-0.3984375,1,0,0,1.5704,Pumice_rect,14,0,14,0,1,
61230b14a3bcb65c585dfdaa,SCN,2024-06-12_12h40.10.988,LearnStrategy,2023.2.3,Win32,59.88023952,7,2,16,,,,,,,,7,07,,,,,,,,,,,4,1.946,0,,,,,,0.414322917,-0.259114583,1,0,0,1.9459,Gabbro_rect,15,0,15,0,1,
61230b14a3bcb65c585dfdaa,SCN,2024-06-12_12h40.10.988,LearnStrategy,2023.2.3,Win32,59.88023952,8,1,1,-0.54921875,0.420572917,1,0,0,1.7171,Obsidian_14,5,14,6,1,1.717,-0.425520833,-0.404947917,1,0,0,1.3793,Obsidian_rect,5,1.379,1,0,0,0,0,1,,,,,,,,,,,,,
61230b14a3bcb65c585dfdaa,SCN,2024-06-12_12h40.10.988,LearnStrategy,2023.2.3,Win32,59.88023952,8,1,2,-0.553125,-0.08203125,1,0,0,1.4284,Obsidian_02,5,02,3,1,1.428,-0.399479167,-0.39453125,1,0,0,2.1051,Obsidian_rect,5,2.105,1,1,0,1,0,1,,,,,,,,,,,,,
61230b14a3bcb65c585dfdaa,SCN,2024-06-12_12h40.10.988,LearnStrategy,2023.2.3,Win32,59.88023952,8,1,3,0.245052083,-0.412760417,1,0,0,1.3875,Obsidian_16,5,16,1,6,1.387,-0.438541667,-0.40625,1,0,0,1.8789,Obsidian_rect,5,1.879,1,2,0,2,0,1,,,,,,,,,,,,,
61230b14a3bcb65c585dfdaa,SCN,2024-06-12_12h40.10.988,LearnStrategy,2023.2.3,Win32,59.88023952,8,1,4,0.094010417,-0.080729167,1,0,0,1.1885,Obsidian_09,5,09,3,5,1.189,-0.4359375,-0.395833333,1,0,0,1.457,Obsidian_rect,5,1.457,1,3,0,3,0,1,,,,,,,,,,,,,
61230b14a3bcb65c585dfdaa,SCN,2024-06-12_12h40.10.988,LearnStrategy,2023.2.3,Win32,59.88023952,8,1,5,0.384375,-0.102864583,1,0,0,0.9716,Obsidian_06,5,06,3,7,0.972,-0.399479167,-0.412760417,1,0,0,1.1349,Obsidian_rect,5,1.135,1,4,0,4,0,1,,,,,,,,,,,,,
61230b14a3bcb65c585dfdaa,SCN,2024-06-12_12h40.10.988,LearnStrategy,2023.2.3,Win32,59.88023952,8,1,6,0.398697917,-0.087239583,1,0,0,1.7362,Obsidian_06,5,06,3,7,1.736,-0.395572917,-0.412760417,1,0,0,1.1803,Obsidian_rect,5,1.18,1,5,0,5,0,1,,,,,,,,,,,,,
61230b14a3bcb65c585dfdaa,SCN,2024-06-12_12h40.10.988,LearnStrategy,2023.2.3,Win32,59.88023952,8,1,7,0.53671875,0.403645833,1,0,0,2.5933,Andesite_16,1,16,6,8,2.593,0.38046875,-0.239583333,1,0,0,1.4148,Gabbro_rect,4,1.415,0,6,0,6,0,1,,,,,,,,,,,,,
61230b14a3bcb65c585dfdaa,SCN,2024-06-12_12h40.10.988,LearnStrategy,2023.2.3,Win32,59.88023952,8,1,8,0.088802083,-0.091145833,1,0,0,0.9469,Obsidian_09,5,09,3,5,0.947,-0.452864583,-0.404947917,1,0,0,1.0677,Obsidian_rect,5,1.068,1,7,0,7,0,1,,,,,,,,,,,,,
61230b14a3bcb65c585dfdaa,SCN,2024-06-12_12h40.10.988,LearnStrategy,2023.2.3,Win32,59.88023952,8,1,9,-0.05703125,0.087239583,1,0,0,0.8914,Pegmatite_10,6,10,4,4,0.891,-0.1078125,-0.381510417,1,0,0,5.9786,Pegmatite_rect,6,5.979,1,8,0,8,0,1,,,,,,,,,,,,,
61230b14a3bcb65c585dfdaa,SCN,2024-06-12_12h40.10.988,LearnStrategy,2023.2.3,Win32,59.88023952,8,1,10,0.261979167,-0.09765625,1,0,0,2.2078,Peridotite_13,7,13,3,6,2.208,-0.102604167,-0.40234375,1,0,0,1.904,Pegmatite_rect,6,1.904,0,9,0,9,0,1,,,,,,,,,,,,,
61230b14a3bcb65c585dfdaa,SCN,2024-06-12_12h40.10.988,LearnStrategy,2023.2.3,Win32,59.88023952,8,1,11,-0.239322917,-0.08984375,1,0,0,1.5037,Diorite_06,3,06,3,3,1.504,0.13828125,-0.263020833,1,0,0,1.2479,Diorite_rect,3,1.248,1,10,0,10,0,1,,,,,,,,,,,,,
61230b14a3bcb65c585dfdaa,SCN,2024-06-12_12h40.10.988,LearnStrategy,2023.2.3,Win32,59.88023952,8,1,12,0.086197917,-0.2734375,1,0,0,1.9487,Andesite_06,1,06,2,5,1.949,0.14609375,-0.395833333,1,0,0,1.6506,Peridotite_rect,7,1.651,0,11,0,11,0,1,,,,,,,,,,,,,
61230b14a3bcb65c585dfdaa,SCN,2024-06-12_12h40.10.988,LearnStrategy,2023.2.3,Win32,59.88023952,8,1,13,0.092708333,0.095052083,1,0,0,1.2368,Diorite_15,3,15,4,5,1.237,0.166927083,-0.248697917,1,0,0,1.0266,Diorite_rect,3,1.027,1,12,0,12,0,1,,,,,,,,,,,,,
61230b14a3bcb65c585dfdaa,SCN,2024-06-12_12h40.10.988,LearnStrategy,2023.2.3,Win32,59.88023952,8,1,14,-0.07265625,0.428385417,1,0,0,1.2369,Andesite_14,1,14,6,4,1.237,0.198177083,-0.265625,1,0,0,1.962,Diorite_rect,3,1.962,0,13,0,13,0,1,,,,,,,,,,,,,
61230b14a3bcb65c585dfdaa,SCN,2024-06-12_12h40.10.988,LearnStrategy,2023.2.3,Win32,59.88023952,8,1,15,-0.395572917,0.087239583,1,0,0,1.4918,Basalt_02,2,02,4,2,1.492,-0.122135417,-0.244791667,1,0,0,8.8213,Basalt_rect,2,8.821,1,14,0,14,0,1,,,,,,,,,,,,,
61230b14a3bcb65c585dfdaa,SCN,2024-06-12_12h40.10.988,LearnStrategy,2023.2.3,Win32,59.88023952,8,1,16,-0.046614583,0.259114583,1,0,0,4.1438,Obsidian_12,5,12,5,4,4.144,-0.34609375,-0.407552083,1,0,0,1.4014,Obsidian_rect,5,1.401,1,15,0,15,0,1,,,,,,,,,,,,,
61230b14a3bcb65c585dfdaa,SCN,2024-06-12_12h40.10.988,LearnStrategy,2023.2.3,Win32,59.88023952,8,2,1,,,,,,,,8,05,,,,,,,,,,,8,1.398,1,,,,,,0.410416667,-0.412760417,1,0,0,1.3979,Pumice_rect,0,0,0,0,1,
61230b14a3bcb65c585dfdaa,SCN,2024-06-12_12h40.10.988,LearnStrategy,2023.2.3,Win32,59.88023952,8,2,2,,,,,,,,3,02,,,,,,,,,,,3,1.74,1,,,,,,0.159114583,-0.233072917,1,0,0,1.74,Diorite_rect,1,0,1,0,1,
61230b14a3bcb65c585dfdaa,SCN,2024-06-12_12h40.10.988,LearnStrategy,2023.2.3,Win32,59.88023952,8,2,3,,,,,,,,6,09,,,,,,,,,,,5,2.165,0,,,,,,-0.3734375,-0.389322917,1,0,0,2.165,Obsidian_rect,2,0,2,0,1,
61230b14a3bcb65c585dfdaa,SCN,2024-06-12_12h40.10.988,LearnStrategy,2023.2.3,Win32,59.88023952,8,2,4,,,,,,,,8,10,,,,,,,,,,,8,1.601,1,,,,,,0.401302083,-0.397135417,1,0,0,1.6005,Pumice_rect,3,0,3,0,1,
61230b14a3bcb65c585dfdaa,SCN,2024-06-12_12h40.10.988,LearnStrategy,2023.2.3,Win32,59.88023952,8,2,5,,,,,,,,1,11,,,,,,,,,,,1,19.726,1,,,,,,-0.42421875,-0.243489583,1,0,0,19.7265,Andesite_rect,4,0,4,0,1,
61230b14a3bcb65c585dfdaa,SCN,2024-06-12_12h40.10.988,LearnStrategy,2023.2.3,Win32,59.88023952,8,2,6,,,,,,,,7,04,,,,,,,,,,,1,1.115,0,,,,,,-0.42421875,-0.243489583,1,0,0,1.1147,Andesite_rect,5,0,5,0,1,
61230b14a3bcb65c585dfdaa,SCN,2024-06-12_12h40.10.988,LearnStrategy,2023.2.3,Win32,59.88023952,8,2,7,,,,,,,,4,10,,,,,,,,,,,1,16.165,0,,,,,,-0.413802083,-0.24609375,1,0,0,16.1647,Andesite_rect,6,0,6,0,1,
61230b14a3bcb65c585dfdaa,SCN,2024-06-12_12h40.10.988,LearnStrategy,2023.2.3,Win32,59.88023952,8,2,8,,,,,,,,5,10,,,,,,,,,,,5,1.366,1,,,,,,-0.405989583,-0.420572917,1,0,0,1.3657,Obsidian_rect,7,0,7,0,1,
61230b14a3bcb65c585dfdaa,SCN,2024-06-12_12h40.10.988,LearnStrategy,2023.2.3,Win32,59.88023952,8,2,9,,,,,,,,7,05,,,,,,,,,,,7,7.734,1,,,,,,0.09140625,-0.40625,1,0,0,7.7337,Peridotite_rect,8,0,8,0,1,
61230b14a3bcb65c585dfdaa,SCN,2024-06-12_12h40.10.988,LearnStrategy,2023.2.3,Win32,59.88023952,8,2,10,,,,,,,,6,03,,,,,,,,,,,6,13.621,1,,,,,,-0.171614583,-0.3984375,1,0,0,13.6211,Pegmatite_rect,9,0,9,0,1,
61230b14a3bcb65c585dfdaa,SCN,2024-06-12_12h40.10.988,LearnStrategy,2023.2.3,Win32,59.88023952,8,2,11,,,,,,,,2,12,,,,,,,,,,,8,1.767,0,,,,,,0.38828125,-0.408854167,1,0,0,1.7672,Pumice_rect,10,0,10,0,1,
61230b14a3bcb65c585dfdaa,SCN,2024-06-12_12h40.10.988,LearnStrategy,2023.2.3,Win32,59.88023952,8,2,12,,,,,,,,5,11,,,,,,,,,,,5,1.269,1,,,,,,-0.452864583,-0.3984375,1,0,0,1.2689,Obsidian_rect,11,0,11,0,1,
61230b14a3bcb65c585dfdaa,SCN,2024-06-12_12h40.10.988,LearnStrategy,2023.2.3,Win32,59.88023952,8,2,13,,,,,,,,2,14,,,,,,,,,,,8,1.999,0,,,,,,0.38828125,-0.397135417,1,0,0,1.9991,Pumice_rect,12,0,12,0,1,
61230b14a3bcb65c585dfdaa,SCN,2024-06-12_12h40.10.988,LearnStrategy,2023.2.3,Win32,59.88023952,8,2,14,,,,,,,,3,09,,,,,,,,,,,3,1.713,1,,,,,,0.13828125,-0.243489583,1,0,0,1.7128,Diorite_rect,13,0,13,0,1,
61230b14a3bcb65c585dfdaa,SCN,2024-06-12_12h40.10.988,LearnStrategy,2023.2.3,Win32,59.88023952,8,2,15,,,,,,,,1,07,,,,,,,,,,,3,10.261,0,,,,,,0.194270833,-0.244791667,1,0,0,10.2609,Diorite_rect,14,0,14,0,1,
61230b14a3bcb65c585dfdaa,SCN,2024-06-12_12h40.10.988,LearnStrategy,2023.2.3,Win32,59.88023952,8,2,16,,,,,,,,4,05,,,,,,,,,,,4,12.109,1,,,,,,0.414322917,-0.23046875,1,0,0,12.1093,Gabbro_rect,15,0,15,0,1,
61230b14a3bcb65c585dfdaa,SCN,2024-06-12_12h40.10.988,LearnStrategy,2023.2.3,Win32,59.88023952,9,1,1,-0.07265625,-0.118489583,1,0,0,1.3352,Diorite_11,3,11,3,4,1.335,0.160416667,-0.256510417,1,0,0,1.108,Diorite_rect,3,1.108,1,0,0,0,0,1,,,,,,,,,,,,,
61230b14a3bcb65c585dfdaa,SCN,2024-06-12_12h40.10.988,LearnStrategy,2023.2.3,Win32,59.88023952,9,1,2,0.101822917,-0.423177083,1,0,0,2.2591,Diorite_16,3,16,1,5,2.259,0.125260417,-0.259114583,1,0,0,1.1274,Diorite_rect,3,1.127,1,1,0,1,0,1,,,,,,,,,,,,,
61230b14a3bcb65c585dfdaa,SCN,2024-06-12_12h40.10.988,LearnStrategy,2023.2.3,Win32,59.88023952,9,1,3,0.5796875,-0.4140625,1,0,0,2.1638,Diorite_12,3,12,1,8,2.164,0.183854167,-0.247395833,1,0,0,1.2726,Diorite_rect,3,1.273,1,2,0,2,0,1,,,,,,,,,,,,,
61230b14a3bcb65c585dfdaa,SCN,2024-06-12_12h40.10.988,LearnStrategy,2023.2.3,Win32,59.88023952,9,1,4,0.38046875,0.427083333,1,0,0,3.423,Diorite_14,3,14,6,7,3.423,0.13828125,-0.2578125,1,0,0,1.2859,Diorite_rect,3,1.286,1,3,0,3,0,1,,,,,,,,,,,,,
61230b14a3bcb65c585dfdaa,SCN,2024-06-12_12h40.10.988,LearnStrategy,2023.2.3,Win32,59.88023952,9,1,5,0.084895833,-0.10546875,1,0,0,1.5392,Obsidian_09,5,09,3,5,1.539,-0.458072917,-0.403645833,1,0,0,1.5759,Obsidian_rect,5,1.576,1,4,0,4,0,1,,,,,,,,,,,,,
61230b14a3bcb65c585dfdaa,SCN,2024-06-12_12h40.10.988,LearnStrategy,2023.2.3,Win32,59.88023952,9,1,6,0.226822917,-0.403645833,1,0,0,1.3172,Obsidian_16,5,16,1,6,1.317,-0.40078125,-0.388020833,1,0,0,2.229,Obsidian_rect,5,2.229,1,5,0,5,0,1,,,,,,,,,,,,,
61230b14a3bcb65c585dfdaa,SCN,2024-06-12_12h40.10.988,LearnStrategy,2023.2.3,Win32,59.88023952,9,1,7,0.401302083,-0.0859375,1,0,0,1.7319,Obsidian_06,5,06,3,7,1.732,-0.4125,-0.397135417,1,0,0,1.9131,Obsidian_rect,5,1.913,1,6,0,6,0,1,,,,,,,,,,,,,
61230b14a3bcb65c585dfdaa,SCN,2024-06-12_12h40.10.988,LearnStrategy,2023.2.3,Win32,59.88023952,9,1,8,-0.081770833,0.2578125,1,0,0,1.4343,Obsidian_12,5,12,5,4,1.434,-0.383854167,-0.397135417,1,0,0,1.4328,Obsidian_rect,5,1.433,1,7,0,7,0,1,,,,,,,,,,,,,
61230b14a3bcb65c585dfdaa,SCN,2024-06-12_12h40.10.988,LearnStrategy,2023.2.3,Win32,59.88023952,9,1,9,-0.540104167,0.399739583,1,0,0,1.9098,Obsidian_14,5,14,6,1,1.91,-0.365625,-0.3984375,1,0,0,1.3161,Obsidian_rect,5,1.316,1,8,0,8,0,1,,,,,,,,,,,,,
61230b14a3bcb65c585dfdaa,SCN,2024-06-12_12h40.10.988,LearnStrategy,2023.2.3,Win32,59.88023952,9,1,10,-0.062239583,0.24609375,1,0,0,1.5239,Obsidian_12,5,12,5,4,1.524,-0.376041667,-0.40625,1,0,0,1.4197,Obsidian_rect,5,1.42,1,9,0,9,0,1,,,,,,,,,,,,,
61230b14a3bcb65c585dfdaa,SCN,2024-06-12_12h40.10.988,LearnStrategy,2023.2.3,Win32,59.88023952,9,1,11,0.1109375,-0.114583333,1,0,0,1.2184,Obsidian_09,5,09,3,5,1.218,-0.409895833,-0.39453125,1,0,0,1.2122,Obsidian_rect,5,1.212,1,10,0,10,0,1,,,,,,,,,,,,,
61230b14a3bcb65c585dfdaa,SCN,2024-06-12_12h40.10.988,LearnStrategy,2023.2.3,Win32,59.88023952,9,1,12,0.389583333,-0.080729167,1,0,0,1.7181,Obsidian_06,5,06,3,7,1.718,-0.40078125,-0.38671875,1,0,0,1.1902,Obsidian_rect,5,1.19,1,11,0,11,0,1,,,,,,,,,,,,,
61230b14a3bcb65c585dfdaa,SCN,2024-06-12_12h40.10.988,LearnStrategy,2023.2.3,Win32,59.88023952,9,1,13,0.234635417,-0.40234375,1,0,0,1.6051,Obsidian_16,5,16,1,6,1.605,-0.413802083,-0.40625,1,0,0,1.2566,Obsidian_rect,5,1.257,1,12,0,12,0,1,,,,,,,,,,,,,
61230b14a3bcb65c585dfdaa,SCN,2024-06-12_12h40.10.988,LearnStrategy,2023.2.3,Win32,59.88023952,9,1,14,-0.553125,0.40625,1,0,0,2.2446,Obsidian_14,5,14,6,1,2.245,-0.36953125,-0.39453125,1,0,0,1.8501,Obsidian_rect,5,1.85,1,13,0,13,0,1,,,,,,,,,,,,,
61230b14a3bcb65c585dfdaa,SCN,2024-06-12_12h40.10.988,LearnStrategy,2023.2.3,Win32,59.88023952,9,1,15,-0.553125,-0.109375,1,0,0,1.4679,Obsidian_02,5,02,3,1,1.468,-0.43203125,-0.395833333,1,0,0,1.8418,Obsidian_rect,5,1.842,1,14,0,14,0,1,,,,,,,,,,,,,
61230b14a3bcb65c585dfdaa,SCN,2024-06-12_12h40.10.988,LearnStrategy,2023.2.3,Win32,59.88023952,9,1,16,0.557552083,0.256510417,1,0,0,1.5508,Pumice_16,8,16,5,8,1.551,0.401302083,-0.385416667,1,0,0,1.161,Pumice_rect,8,1.161,1,15,0,15,0,1,,,,,,,,,,,,,
61230b14a3bcb65c585dfdaa,SCN,2024-06-12_12h40.10.988,LearnStrategy,2023.2.3,Win32,59.88023952,9,2,1,,,,,,,,6,16,,,,,,,,,,,6,5.819,1,,,,,,-0.124739583,-0.389322917,1,0,0,5.8192,Pegmatite_rect,0,0,0,0,1,
61230b14a3bcb65c585dfdaa,SCN,2024-06-12_12h40.10.988,LearnStrategy,2023.2.3,Win32,59.88023952,9,2,2,,,,,,,,8,06,,,,,,,,,,,8,1.687,1,,,,,,0.43515625,-0.3828125,1,0,0,1.6871,Pumice_rect,1,0,1,0,1,
61230b14a3bcb65c585dfdaa,SCN,2024-06-12_12h40.10.988,LearnStrategy,2023.2.3,Win32,59.88023952,9,2,3,,,,,,,,1,02,,,,,,,,,,,7,44.864,0,,,,,,0.178645833,-0.390625,1,0,0,44.8642,Peridotite_rect,2,0,2,0,1,
61230b14a3bcb65c585dfdaa,SCN,2024-06-12_12h40.10.988,LearnStrategy,2023.2.3,Win32,59.88023952,9,2,4,,,,,,,,6,06,,,,,,,,,,,6,7.402,1,,,,,,-0.149479167,-0.393229167,1,0,0,7.4018,Pegmatite_rect,3,0,3,0,1,
61230b14a3bcb65c585dfdaa,SCN,2024-06-12_12h40.10.988,LearnStrategy,2023.2.3,Win32,59.88023952,9,2,5,,,,,,,,1,04,,,,,,,,,,,1,13.279,1,,,,,,-0.4046875,-0.243489583,1,0,0,13.2789,Andesite_rect,4,0,4,0,1,
61230b14a3bcb65c585dfdaa,SCN,2024-06-12_12h40.10.988,LearnStrategy,2023.2.3,Win32,59.88023952,9,2,6,,,,,,,,5,07,,,,,,,,,,,5,3.985,1,,,,,,-0.403385417,-0.403645833,1,0,0,3.9852,Obsidian_rect,5,0,5,0,1,
61230b14a3bcb65c585dfdaa,SCN,2024-06-12_12h40.10.988,LearnStrategy,2023.2.3,Win32,59.88023952,9,2,7,,,,,,,,7,02,,,,,,,,,,,7,6.869,1,,,,,,0.147395833,-0.39453125,1,0,0,6.8685,Peridotite_rect,6,0,6,0,1,
61230b14a3bcb65c585dfdaa,SCN,2024-06-12_12h40.10.988,LearnStrategy,2023.2.3,Win32,59.88023952,9,2,8,,,,,,,,5,05,,,,,,,,,,,5,1.537,1,,,,,,-0.398177083,-0.416666667,1,0,0,1.5372,Obsidian_rect,7,0,7,0,1,
61230b14a3bcb65c585dfdaa,SCN,2024-06-12_12h40.10.988,LearnStrategy,2023.2.3,Win32,59.88023952,9,2,9,,,,,,,,4,09,,,,,,,,,,,4,9.033,1,,,,,,0.394791667,-0.229166667,1,0,0,9.033,Gabbro_rect,8,0,8,0,1,
61230b14a3bcb65c585dfdaa,SCN,2024-06-12_12h40.10.988,LearnStrategy,2023.2.3,Win32,59.88023952,9,2,10,,,,,,,,3,08,,,,,,,,,,,3,7.491,1,,,,,,0.121354167,-0.244791667,1,0,0,7.4907,Diorite_rect,9,0,9,0,1,
61230b14a3bcb65c585dfdaa,SCN,2024-06-12_12h40.10.988,LearnStrategy,2023.2.3,Win32,59.88023952,9,2,11,,,,,,,,7,12,,,,,,,,,,,3,1.143,0,,,,,,0.121354167,-0.244791667,1,0,0,1.1431,Diorite_rect,10,0,10,0,1,
61230b14a3bcb65c585dfdaa,SCN,2024-06-12_12h40.10.988,LearnStrategy,2023.2.3,Win32,59.88023952,9,2,12,,,,,,,,8,14,,,,,,,,,,,8,1.387,1,,,,,,0.409114583,-0.419270833,1,0,0,1.3866,Pumice_rect,11,0,11,0,1,
61230b14a3bcb65c585dfdaa,SCN,2024-06-12_12h40.10.988,LearnStrategy,2023.2.3,Win32,59.88023952,9,2,13,,,,,,,,2,05,,,,,,,,,,,2,7.139,1,,,,,,-0.163802083,-0.263020833,1,0,0,7.1392,Basalt_rect,12,0,12,0,1,
61230b14a3bcb65c585dfdaa,SCN,2024-06-12_12h40.10.988,LearnStrategy,2023.2.3,Win32,59.88023952,9,2,14,,,,,,,,4,15,,,,,,,,,,,3,1.717,0,,,,,,0.164322917,-0.255208333,1,0,0,1.7166,Diorite_rect,13,0,13,0,1,
61230b14a3bcb65c585dfdaa,SCN,2024-06-12_12h40.10.988,LearnStrategy,2023.2.3,Win32,59.88023952,9,2,15,,,,,,,,2,10,,,,,,,,,,,2,1.637,1,,,,,,-0.1078125,-0.260416667,1,0,0,1.6374,Basalt_rect,14,0,14,0,1,
61230b14a3bcb65c585dfdaa,SCN,2024-06-12_12h40.10.988,LearnStrategy,2023.2.3,Win32,59.88023952,9,2,16,,,,,,,,3,07,,,,,,,,,,,3,1.296,1,,,,,,0.139583333,-0.256510417,1,0,0,1.2957,Diorite_rect,15,0,15,0,1,
61230b14a3bcb65c585dfdaa,SCN,2024-06-12_12h40.10.988,LearnStrategy,2023.2.3,Win32,59.88023952,,,,,,,,,,,,,,,,,,,,,,,,,,,,,,,,,,,,,,,,,,,1
61230b14a3bcb65c585dfdaa,SCN,2024-06-12_12h40.10.988,LearnStrategy,2023.2.3,Win32,59.88023952,,,,,,,,,,,,,,,,,,,,,,,,,,,,,,,,,,,,,,,,,,,
61230b14a3bcb65c585dfdaa,SCN,2024-06-12_12h40.10.988,LearnStrategy,2023.2.3,Win32,59.88023952,,,,,,,,,,,7,10,1,1,,,,,,,,,,,,,,,,,,,,,,,,,,,,,
61230b14a3bcb65c585dfdaa,SCN,2024-06-12_12h40.10.988,LearnStrategy,2023.2.3,Win32,59.88023952,,,,,,,,,,,4,03,1,2,,,,,,,,,,,,,,,,,,,,,,,,,,,,,
61230b14a3bcb65c585dfdaa,SCN,2024-06-12_12h40.10.988,LearnStrategy,2023.2.3,Win32,59.88023952,,,,,,,,,,,8,02,1,3,,,,,,,,,,,,,,,,,,,,,,,,,,,,,
61230b14a3bcb65c585dfdaa,SCN,2024-06-12_12h40.10.988,LearnStrategy,2023.2.3,Win32,59.88023952,,,,,,,,,,,2,04,1,4,,,,,,,,,,,,,,,,,,,,,,,,,,,,,
61230b14a3bcb65c585dfdaa,SCN,2024-06-12_12h40.10.988,LearnStrategy,2023.2.3,Win32,59.88023952,,,,,,,,,,,3,16,1,5,,,,,,,,,,,,,,,,,,,,,,,,,,,,,
61230b14a3bcb65c585dfdaa,SCN,2024-06-12_12h40.10.988,LearnStrategy,2023.2.3,Win32,59.88023952,,,,,,,,,,,5,16,1,6,,,,,,,,,,,,,,,,,,,,,,,,,,,,,
61230b14a3bcb65c585dfdaa,SCN,2024-06-12_12h40.10.988,LearnStrategy,2023.2.3,Win32,59.88023952,,,,,,,,,,,8,13,1,7,,,,,,,,,,,,,,,,,,,,,,,,,,,,,
61230b14a3bcb65c585dfdaa,SCN,2024-06-12_12h40.10.988,LearnStrategy,2023.2.3,Win32,59.88023952,,,,,,,,,,,3,12,1,8,,,,,,,,,,,,,,,,,,,,,,,,,,,,,
61230b14a3bcb65c585dfdaa,SCN,2024-06-12_12h40.10.988,LearnStrategy,2023.2.3,Win32,59.88023952,,,,,,,,,,,7,08,2,1,,,,,,,,,,,,,,,,,,,,,,,,,,,,,
61230b14a3bcb65c585dfdaa,SCN,2024-06-12_12h40.10.988,LearnStrategy,2023.2.3,Win32,59.88023952,,,,,,,,,,,2,09,2,2,,,,,,,,,,,,,,,,,,,,,,,,,,,,,
61230b14a3bcb65c585dfdaa,SCN,2024-06-12_12h40.10.988,LearnStrategy,2023.2.3,Win32,59.88023952,,,,,,,,,,,8,04,2,3,,,,,,,,,,,,,,,,,,,,,,,,,,,,,
61230b14a3bcb65c585dfdaa,SCN,2024-06-12_12h40.10.988,LearnStrategy,2023.2.3,Win32,59.88023952,,,,,,,,,,,6,12,2,4,,,,,,,,,,,,,,,,,,,,,,,,,,,,,
61230b14a3bcb65c585dfdaa,SCN,2024-06-12_12h40.10.988,LearnStrategy,2023.2.3,Win32,59.88023952,,,,,,,,,,,1,06,2,5,,,,,,,,,,,,,,,,,,,,,,,,,,,,,
61230b14a3bcb65c585dfdaa,SCN,2024-06-12_12h40.10.988,LearnStrategy,2023.2.3,Win32,59.88023952,,,,,,,,,,,8,03,2,6,,,,,,,,,,,,,,,,,,,,,,,,,,,,,
61230b14a3bcb65c585dfdaa,SCN,2024-06-12_12h40.10.988,LearnStrategy,2023.2.3,Win32,59.88023952,,,,,,,,,,,1,10,2,7,,,,,,,,,,,,,,,,,,,,,,,,,,,,,
61230b14a3bcb65c585dfdaa,SCN,2024-06-12_12h40.10.988,LearnStrategy,2023.2.3,Win32,59.88023952,,,,,,,,,,,4,01,2,8,,,,,,,,,,,,,,,,,,,,,,,,,,,,,
61230b14a3bcb65c585dfdaa,SCN,2024-06-12_12h40.10.988,LearnStrategy,2023.2.3,Win32,59.88023952,,,,,,,,,,,5,02,3,1,,,,,,,,,,,,,,,,,,,,,,,,,,,,,
61230b14a3bcb65c585dfdaa,SCN,2024-06-12_12h40.10.988,LearnStrategy,2023.2.3,Win32,59.88023952,,,,,,,,,,,8,15,3,2,,,,,,,,,,,,,,,,,,,,,,,,,,,,,
61230b14a3bcb65c585dfdaa,SCN,2024-06-12_12h40.10.988,LearnStrategy,2023.2.3,Win32,59.88023952,,,,,,,,,,,3,06,3,3,,,,,,,,,,,,,,,,,,,,,,,,,,,,,
61230b14a3bcb65c585dfdaa,SCN,2024-06-12_12h40.10.988,LearnStrategy,2023.2.3,Win32,59.88023952,,,,,,,,,,,3,11,3,4,,,,,,,,,,,,,,,,,,,,,,,,,,,,,
61230b14a3bcb65c585dfdaa,SCN,2024-06-12_12h40.10.988,LearnStrategy,2023.2.3,Win32,59.88023952,,,,,,,,,,,5,09,3,5,,,,,,,,,,,,,,,,,,,,,,,,,,,,,
61230b14a3bcb65c585dfdaa,SCN,2024-06-12_12h40.10.988,LearnStrategy,2023.2.3,Win32,59.88023952,,,,,,,,,,,7,13,3,6,,,,,,,,,,,,,,,,,,,,,,,,,,,,,
61230b14a3bcb65c585dfdaa,SCN,2024-06-12_12h40.10.988,LearnStrategy,2023.2.3,Win32,59.88023952,,,,,,,,,,,5,06,3,7,,,,,,,,,,,,,,,,,,,,,,,,,,,,,
61230b14a3bcb65c585dfdaa,SCN,2024-06-12_12h40.10.988,LearnStrategy,2023.2.3,Win32,59.88023952,,,,,,,,,,,6,05,3,8,,,,,,,,,,,,,,,,,,,,,,,,,,,,,
61230b14a3bcb65c585dfdaa,SCN,2024-06-12_12h40.10.988,LearnStrategy,2023.2.3,Win32,59.88023952,,,,,,,,,,,7,15,4,1,,,,,,,,,,,,,,,,,,,,,,,,,,,,,
61230b14a3bcb65c585dfdaa,SCN,2024-06-12_12h40.10.988,LearnStrategy,2023.2.3,Win32,59.88023952,,,,,,,,,,,2,02,4,2,,,,,,,,,,,,,,,,,,,,,,,,,,,,,
61230b14a3bcb65c585dfdaa,SCN,2024-06-12_12h40.10.988,LearnStrategy,2023.2.3,Win32,59.88023952,,,,,,,,,,,7,06,4,3,,,,,,,,,,,,,,,,,,,,,,,,,,,,,
61230b14a3bcb65c585dfdaa,SCN,2024-06-12_12h40.10.988,LearnStrategy,2023.2.3,Win32,59.88023952,,,,,,,,,,,6,10,4,4,,,,,,,,,,,,,,,,,,,,,,,,,,,,,
61230b14a3bcb65c585dfdaa,SCN,2024-06-12_12h40.10.988,LearnStrategy,2023.2.3,Win32,59.88023952,,,,,,,,,,,3,15,4,5,,,,,,,,,,,,,,,,,,,,,,,,,,,,,
61230b14a3bcb65c585dfdaa,SCN,2024-06-12_12h40.10.988,LearnStrategy,2023.2.3,Win32,59.88023952,,,,,,,,,,,4,11,4,6,,,,,,,,,,,,,,,,,,,,,,,,,,,,,
61230b14a3bcb65c585dfdaa,SCN,2024-06-12_12h40.10.988,LearnStrategy,2023.2.3,Win32,59.88023952,,,,,,,,,,,4,13,4,7,,,,,,,,,,,,,,,,,,,,,,,,,,,,,
61230b14a3bcb65c585dfdaa,SCN,2024-06-12_12h40.10.988,LearnStrategy,2023.2.3,Win32,59.88023952,,,,,,,,,,,4,14,4,8,,,,,,,,,,,,,,,,,,,,,,,,,,,,,
61230b14a3bcb65c585dfdaa,SCN,2024-06-12_12h40.10.988,LearnStrategy,2023.2.3,Win32,59.88023952,,,,,,,,,,,2,01,5,1,,,,,,,,,,,,,,,,,,,,,,,,,,,,,
61230b14a3bcb65c585dfdaa,SCN,2024-06-12_12h40.10.988,LearnStrategy,2023.2.3,Win32,59.88023952,,,,,,,,,,,2,16,5,2,,,,,,,,,,,,,,,,,,,,,,,,,,,,,
61230b14a3bcb65c585dfdaa,SCN,2024-06-12_12h40.10.988,LearnStrategy,2023.2.3,Win32,59.88023952,,,,,,,,,,,6,15,5,3,,,,,,,,,,,,,,,,,,,,,,,,,,,,,
61230b14a3bcb65c585dfdaa,SCN,2024-06-12_12h40.10.988,LearnStrategy,2023.2.3,Win32,59.88023952,,,,,,,,,,,5,12,5,4,,,,,,,,,,,,,,,,,,,,,,,,,,,,,
61230b14a3bcb65c585dfdaa,SCN,2024-06-12_12h40.10.988,LearnStrategy,2023.2.3,Win32,59.88023952,,,,,,,,,,,4,08,5,5,,,,,,,,,,,,,,,,,,,,,,,,,,,,,
61230b14a3bcb65c585dfdaa,SCN,2024-06-12_12h40.10.988,LearnStrategy,2023.2.3,Win32,59.88023952,,,,,,,,,,,1,09,5,6,,,,,,,,,,,,,,,,,,,,,,,,,,,,,
61230b14a3bcb65c585dfdaa,SCN,2024-06-12_12h40.10.988,LearnStrategy,2023.2.3,Win32,59.88023952,,,,,,,,,,,1,01,5,7,,,,,,,,,,,,,,,,,,,,,,,,,,,,,
61230b14a3bcb65c585dfdaa,SCN,2024-06-12_12h40.10.988,LearnStrategy,2023.2.3,Win32,59.88023952,,,,,,,,,,,8,16,5,8,,,,,,,,,,,,,,,,,,,,,,,,,,,,,
61230b14a3bcb65c585dfdaa,SCN,2024-06-12_12h40.10.988,LearnStrategy,2023.2.3,Win32,59.88023952,,,,,,,,,,,5,14,6,1,,,,,,,,,,,,,,,,,,,,,,,,,,,,,
61230b14a3bcb65c585dfdaa,SCN,2024-06-12_12h40.10.988,LearnStrategy,2023.2.3,Win32,59.88023952,,,,,,,,,,,6,11,6,2,,,,,,,,,,,,,,,,,,,,,,,,,,,,,
61230b14a3bcb65c585dfdaa,SCN,2024-06-12_12h40.10.988,LearnStrategy,2023.2.3,Win32,59.88023952,,,,,,,,,,,6,08,6,3,,,,,,,,,,,,,,,,,,,,,,,,,,,,,
61230b14a3bcb65c585dfdaa,SCN,2024-06-12_12h40.10.988,LearnStrategy,2023.2.3,Win32,59.88023952,,,,,,,,,,,1,14,6,4,,,,,,,,,,,,,,,,,,,,,,,,,,,,,
61230b14a3bcb65c585dfdaa,SCN,2024-06-12_12h40.10.988,LearnStrategy,2023.2.3,Win32,59.88023952,,,,,,,,,,,7,16,6,5,,,,,,,,,,,,,,,,,,,,,,,,,,,,,
61230b14a3bcb65c585dfdaa,SCN,2024-06-12_12h40.10.988,LearnStrategy,2023.2.3,Win32,59.88023952,,,,,,,,,,,2,11,6,6,,,,,,,,,,,,,,,,,,,,,,,,,,,,,
61230b14a3bcb65c585dfdaa,SCN,2024-06-12_12h40.10.988,LearnStrategy,2023.2.3,Win32,59.88023952,,,,,,,,,,,3,14,6,7,,,,,,,,,,,,,,,,,,,,,,,,,,,,,
61230b14a3bcb65c585dfdaa,SCN,2024-06-12_12h40.10.988,LearnStrategy,2023.2.3,Win32,59.88023952,,,,,,,,,,,1,16,6,8,,,,,,,,,,,,,,,,,,,,,,,,,,,,,