participant,condition,date,expName,psychopyVersion,OS,frameRate,block,phase,trial,learn_mouse_2.x,learn_mouse_2.y,learn_mouse_2.leftButton,learn_mouse_2.midButton,learn_mouse_2.rightButton,learn_mouse_2.time,learn_mouse_2.clicked_name,cat,token,row,col,t_select,cat_mouse_l.x,cat_mouse_l.y,cat_mouse_l.leftButton,cat_mouse_l.midButton,cat_mouse_l.rightButton,cat_mouse_l.time,cat_mouse_l.clicked_name,resp,t_resp,corr,train_trials.thisRepN,train_trials.thisTrialN,train_trials.thisN,train_trials.thisIndex,train_trials.ran,cat_mouse_t.x,cat_mouse_t.y,cat_mouse_t.leftButton,cat_mouse_t.midButton,cat_mouse_t.rightButton,cat_mouse_t.time,cat_mouse_t.clicked_name,test_trials.thisRepN,test_trials.thisTrialN,test_trials.thisN,test_trials.thisIndex,test_trials.ran,Bonus
614662c1c31697525616534f,TCR,2024-06-20_15h27.35.790,LearnStrategy,2023.2.3,MacIntel,58.82352941,,,,,,,,,,,,,,,,,,,,,,,,,,,,,,,,,,,,,,,,,,,
614662c1c31697525616534f,TCR,2024-06-20_15h27.35.790,LearnStrategy,2023.2.3,MacIntel,58.82352941,1,1,1,0.088888889,0.008641975,1,0,0,5.474,rock_grid_rect_2,1,02,-1,-1,5.474,0.14691358,-0.402469136,1,0,0,16.094,Peridotite_rect,7,16.094,0,0,0,0,0,1,,,,,,,,,,,,,
614662c1c31697525616534f,TCR,2024-06-20_15h27.35.790,LearnStrategy,2023.2.3,MacIntel,58.82352941,1,1,2,0.072839506,0.007407407,1,0,0,1.908,rock_grid_rect_2,7,14,-1,-1,1.908,-0.104938272,-0.241975309,1,0,0,11.943,Basalt_rect,2,11.943,0,1,0,1,0,1,,,,,,,,,,,,,
614662c1c31697525616534f,TCR,2024-06-20_15h27.35.790,LearnStrategy,2023.2.3,MacIntel,58.82352941,1,1,3,0.107407407,0.003703704,1,0,0,1.246,rock_grid_rect_2,6,06,-1,-1,1.246,-0.365432099,-0.392592593,1,0,0,8.909,Obsidian_rect,5,8.909,0,2,0,2,0,1,,,,,,,,,,,,,
614662c1c31697525616534f,TCR,2024-06-20_15h27.35.790,LearnStrategy,2023.2.3,MacIntel,58.82352941,1,1,4,0.058024691,0.012345679,1,0,0,2.127,rock_grid_rect_2,2,02,-1,-1,2.127,-0.072839506,-0.248148148,1,0,0,9.356,Basalt_rect,2,9.356,1,3,0,3,0,1,,,,,,,,,,,,,
614662c1c31697525616534f,TCR,2024-06-20_15h27.35.790,LearnStrategy,2023.2.3,MacIntel,58.82352941,1,1,5,0.128395062,0.019753086,1,0,0,1.048,rock_grid_rect_2,5,02,-1,-1,1.048,-0.356790123,-0.397530864,1,0,0,3.477,Obsidian_rect,5,3.477,1,4,0,4,0,1,,,,,,,,,,,,,
614662c1c31697525616534f,TCR,2024-06-20_15h27.35.790,LearnStrategy,2023.2.3,MacIntel,58.82352941,1,1,6,0.117283951,0.002469136,1,0,0,1.108,rock_grid_rect_2,2,08,-1,-1,1.108,0.459259259,-0.238271605,1,0,0,12.719,Gabbro_rect,4,12.719,0,5,0,5,0,1,,,,,,,,,,,,,
614662c1c31697525616534f,TCR,2024-06-20_15h27.35.790,LearnStrategy,2023.2.3,MacIntel,58.82352941,1,1,7,0.079012346,-0.008641975,1,0,0,1.401,rock_grid_rect_2,7,12,-1,-1,1.401,-0.358024691,-0.24691358,1,0,0,7.332,Andesite_rect,1,7.332,0,6,0,6,0,1,,,,,,,,,,,,,
614662c1c31697525616534f,TCR,2024-06-20_15h27.35.790,LearnStrategy,2023.2.3,MacIntel,58.82352941,1,1,8,0.133333333,0.020987654,1,0,0,0.83,rock_grid_rect_2,3,07,-1,-1,0.83,-0.413580247,-0.250617284,1,0,0,5.428,Andesite_rect,1,5.428,0,7,0,7,0,1,,,,,,,,,,,,,
614662c1c31697525616534f,TCR,2024-06-20_15h27.35.790,LearnStrategy,2023.2.3,MacIntel,58.82352941,1,1,9,0.114814815,0.004938272,1,0,0,1.172,rock_grid_rect_2,4,01,-1,-1,1.172,0.437037037,-0.254320988,1,0,0,4.403,Gabbro_rect,4,4.403,1,8,0,8,0,1,,,,,,,,,,,,,
614662c1c31697525616534f,TCR,2024-06-20_15h27.35.790,LearnStrategy,2023.2.3,MacIntel,58.82352941,1,1,10,0.092592593,0.013580247,1,0,0,1.228,rock_grid_rect_2,1,14,-1,-1,1.228,-0.102469136,-0.240740741,1,0,0,3.279,Basalt_rect,2,3.279,0,9,0,9,0,1,,,,,,,,,,,,,
614662c1c31697525616534f,TCR,2024-06-20_15h27.35.790,LearnStrategy,2023.2.3,MacIntel,58.82352941,1,1,11,0.15308642,0.009876543,1,0,0,0.768,rock_grid_rect_2,8,16,-1,-1,0.768,0.420987654,-0.39382716,1,0,0,6.071,Pumice_rect,8,6.071,1,10,0,10,0,1,,,,,,,,,,,,,
614662c1c31697525616534f,TCR,2024-06-20_15h27.35.790,LearnStrategy,2023.2.3,MacIntel,58.82352941,1,1,12,0.091358025,-0.007407407,1,0,0,1.079,rock_grid_rect_2,6,10,-1,-1,1.079,0.138271605,-0.390123457,1,0,0,6.794,Peridotite_rect,7,6.794,0,11,0,11,0,1,,,,,,,,,,,,,
614662c1c31697525616534f,TCR,2024-06-20_15h27.35.790,LearnStrategy,2023.2.3,MacIntel,58.82352941,1,1,13,0.139506173,0.016049383,1,0,0,1.085,rock_grid_rect_2,5,08,-1,-1,1.085,-0.340740741,-0.419753086,1,0,0,2.81,Obsidian_rect,5,2.81,1,12,0,12,0,1,,,,,,,,,,,,,
614662c1c31697525616534f,TCR,2024-06-20_15h27.35.790,LearnStrategy,2023.2.3,MacIntel,58.82352941,1,1,14,0.103703704,0.004938272,1,0,0,1.522,rock_grid_rect_2,4,05,-1,-1,1.522,-0.340740741,-0.248148148,1,0,0,7.408,Andesite_rect,1,7.408,0,13,0,13,0,1,,,,,,,,,,,,,
614662c1c31697525616534f,TCR,2024-06-20_15h27.35.790,LearnStrategy,2023.2.3,MacIntel,58.82352941,1,1,15,0.085185185,-0.00617284,1,0,0,1.98,rock_grid_rect_2,3,14,-1,-1,1.98,0.156790123,-0.381481481,1,0,0,7.825,Peridotite_rect,7,7.825,0,14,0,14,0,1,,,,,,,,,,,,,
614662c1c31697525616534f,TCR,2024-06-20_15h27.35.790,LearnStrategy,2023.2.3,MacIntel,58.82352941,1,1,16,0.135802469,-0.007407407,1,0,0,0.745,rock_grid_rect_2,8,02,-1,-1,0.745,0.414814815,-0.412345679,1,0,0,6.091,Pumice_rect,8,6.091,1,15,0,15,0,1,,,,,,,,,,,,,
614662c1c31697525616534f,TCR,2024-06-20_15h27.35.790,LearnStrategy,2023.2.3,MacIntel,58.82352941,1,2,1,,,,,,,,4,15,,,,,,,,,,,4,27.112,1,,,,,,0.418518519,-0.250617284,1,0,0,27.112,Gabbro_rect,0,0,0,0,1,
614662c1c31697525616534f,TCR,2024-06-20_15h27.35.790,LearnStrategy,2023.2.3,MacIntel,58.82352941,1,2,2,,,,,,,,1,01,,,,,,,,,,,3,23.967,0,,,,,,0.140740741,-0.260493827,1,0,0,23.967,Diorite_rect,1,0,1,0,1,
614662c1c31697525616534f,TCR,2024-06-20_15h27.35.790,LearnStrategy,2023.2.3,MacIntel,58.82352941,1,2,3,,,,,,,,3,15,,,,,,,,,,,4,29.815,0,,,,,,0.433333333,-0.232098765,1,0,0,29.815,Gabbro_rect,2,0,2,0,1,
614662c1c31697525616534f,TCR,2024-06-20_15h27.35.790,LearnStrategy,2023.2.3,MacIntel,58.82352941,1,2,4,,,,,,,,5,06,,,,,,,,,,,5,3.268,1,,,,,,-0.372839506,-0.388888889,1,0,0,3.268,Obsidian_rect,3,0,3,0,1,
614662c1c31697525616534f,TCR,2024-06-20_15h27.35.790,LearnStrategy,2023.2.3,MacIntel,58.82352941,1,2,5,,,,,,,,3,08,,,,,,,,,,,4,16.423,0,,,,,,0.459259259,-0.235802469,1,0,0,16.423,Gabbro_rect,4,0,4,0,1,
614662c1c31697525616534f,TCR,2024-06-20_15h27.35.790,LearnStrategy,2023.2.3,MacIntel,58.82352941,1,2,6,,,,,,,,1,07,,,,,,,,,,,6,19.118,0,,,,,,-0.104938272,-0.398765432,1,0,0,19.118,Pegmatite_rect,5,0,5,0,1,
614662c1c31697525616534f,TCR,2024-06-20_15h27.35.790,LearnStrategy,2023.2.3,MacIntel,58.82352941,1,2,7,,,,,,,,8,08,,,,,,,,,,,8,12.073,1,,,,,,0.434567901,-0.403703704,1,0,0,12.073,Pumice_rect,6,0,6,0,1,
614662c1c31697525616534f,TCR,2024-06-20_15h27.35.790,LearnStrategy,2023.2.3,MacIntel,58.82352941,1,2,8,,,,,,,,6,08,,,,,,,,,,,5,3.646,0,,,,,,-0.351851852,-0.387654321,1,0,0,3.646,Obsidian_rect,7,0,7,0,1,
614662c1c31697525616534f,TCR,2024-06-20_15h27.35.790,LearnStrategy,2023.2.3,MacIntel,58.82352941,1,2,9,,,,,,,,5,10,,,,,,,,,,,5,3.55,1,,,,,,-0.366666667,-0.387654321,1,0,0,3.55,Obsidian_rect,8,0,8,0,1,
614662c1c31697525616534f,TCR,2024-06-20_15h27.35.790,LearnStrategy,2023.2.3,MacIntel,58.82352941,1,2,10,,,,,,,,6,05,,,,,,,,,,,3,24.353,0,,,,,,0.175308642,-0.234567901,1,0,0,24.353,Diorite_rect,9,0,9,0,1,
614662c1c31697525616534f,TCR,2024-06-20_15h27.35.790,LearnStrategy,2023.2.3,MacIntel,58.82352941,1,2,11,,,,,,,,7,07,,,,,,,,,,,3,28.697,0,,,,,,0.185185185,-0.238271605,1,0,0,28.697,Diorite_rect,10,0,10,0,1,
614662c1c31697525616534f,TCR,2024-06-20_15h27.35.790,LearnStrategy,2023.2.3,MacIntel,58.82352941,1,2,12,,,,,,,,8,04,,,,,,,,,,,8,5.426,1,,,,,,0.401234568,-0.39382716,1,0,0,5.426,Pumice_rect,11,0,11,0,1,
614662c1c31697525616534f,TCR,2024-06-20_15h27.35.790,LearnStrategy,2023.2.3,MacIntel,58.82352941,1,2,13,,,,,,,,7,06,,,,,,,,,,,7,26.107,1,,,,,,0.15308642,-0.412345679,1,0,0,26.107,Peridotite_rect,12,0,12,0,1,
614662c1c31697525616534f,TCR,2024-06-20_15h27.35.790,LearnStrategy,2023.2.3,MacIntel,58.82352941,1,2,14,,,,,,,,2,16,,,,,,,,,,,1,14.118,0,,,,,,-0.325925926,-0.255555556,1,0,0,14.118,Andesite_rect,13,0,13,0,1,
614662c1c31697525616534f,TCR,2024-06-20_15h27.35.790,LearnStrategy,2023.2.3,MacIntel,58.82352941,1,2,15,,,,,,,,4,09,,,,,,,,,,,4,20.029,1,,,,,,0.419753086,-0.249382716,1,0,0,20.029,Gabbro_rect,14,0,14,0,1,
614662c1c31697525616534f,TCR,2024-06-20_15h27.35.790,LearnStrategy,2023.2.3,MacIntel,58.82352941,1,2,16,,,,,,,,2,01,,,,,,,,,,,6,8.803,0,,,,,,-0.091358025,-0.395061728,1,0,0,8.803,Pegmatite_rect,15,0,15,0,1,
614662c1c31697525616534f,TCR,2024-06-20_15h27.35.790,LearnStrategy,2023.2.3,MacIntel,58.82352941,2,1,1,0.060493827,-0.00617284,1,0,0,4.978,rock_grid_rect_2,5,04,-1,-1,4.978,-0.385185185,-0.397530864,1,0,0,3.423,Obsidian_rect,5,3.423,1,0,0,0,0,1,,,,,,,,,,,,,
614662c1c31697525616534f,TCR,2024-06-20_15h27.35.790,LearnStrategy,2023.2.3,MacIntel,58.82352941,2,1,2,0.1,-0.009876543,1,0,0,1.214,rock_grid_rect_2,7,16,-1,-1,1.214,0.432098765,-0.230864198,1,0,0,25.739,Gabbro_rect,4,25.739,0,1,0,1,0,1,,,,,,,,,,,,,
614662c1c31697525616534f,TCR,2024-06-20_15h27.35.790,LearnStrategy,2023.2.3,MacIntel,58.82352941,2,1,3,0.132098765,0.011111111,1,0,0,1.998,rock_grid_rect_2,6,06,-1,-1,1.998,0.388888889,-0.241975309,1,0,0,13.553,Gabbro_rect,4,13.553,0,2,0,2,0,1,,,,,,,,,,,,,
614662c1c31697525616534f,TCR,2024-06-20_15h27.35.790,LearnStrategy,2023.2.3,MacIntel,58.82352941,2,1,4,0.139506173,-0.003703704,1,0,0,2.123,rock_grid_rect_2,1,16,-1,-1,2.123,-0.382716049,-0.237037037,1,0,0,9.872,Andesite_rect,1,9.872,1,3,0,3,0,1,,,,,,,,,,,,,
614662c1c31697525616534f,TCR,2024-06-20_15h27.35.790,LearnStrategy,2023.2.3,MacIntel,58.82352941,2,1,5,0.124691358,0.016049383,1,0,0,1.034,rock_grid_rect_2,1,16,-1,-1,1.034,-0.117283951,-0.380246914,1,0,0,9.566,Pegmatite_rect,6,9.566,0,4,0,4,0,1,,,,,,,,,,,,,
614662c1c31697525616534f,TCR,2024-06-20_15h27.35.790,LearnStrategy,2023.2.3,MacIntel,58.82352941,2,1,6,0.12962963,-0.007407407,1,0,0,1.835,rock_grid_rect_2,7,16,-1,-1,1.835,0.432098765,-0.232098765,1,0,0,12.368,Gabbro_rect,4,12.368,0,5,0,5,0,1,,,,,,,,,,,,,
614662c1c31697525616534f,TCR,2024-06-20_15h27.35.790,LearnStrategy,2023.2.3,MacIntel,58.82352941,2,1,7,0.137037037,-0.001234568,1,0,0,1.512,rock_grid_rect_2,3,10,-1,-1,1.512,-0.114814815,-0.401234568,1,0,0,9.609,Pegmatite_rect,6,9.609,0,6,0,6,0,1,,,,,,,,,,,,,
614662c1c31697525616534f,TCR,2024-06-20_15h27.35.790,LearnStrategy,2023.2.3,MacIntel,58.82352941,2,1,8,0.124691358,-0.003703704,1,0,0,1.396,rock_grid_rect_2,4,12,-1,-1,1.396,0.434567901,-0.256790123,1,0,0,13.883,Gabbro_rect,4,13.883,1,7,0,7,0,1,,,,,,,,,,,,,
614662c1c31697525616534f,TCR,2024-06-20_15h27.35.790,LearnStrategy,2023.2.3,MacIntel,58.82352941,2,1,9,0.138271605,0.004938272,1,0,0,1.234,rock_grid_rect_2,3,11,-1,-1,1.234,-0.358024691,-0.243209877,1,0,0,26.863,Andesite_rect,1,26.863,0,8,0,8,0,1,,,,,,,,,,,,,
614662c1c31697525616534f,TCR,2024-06-20_15h27.35.790,LearnStrategy,2023.2.3,MacIntel,58.82352941,2,1,10,0.15308642,0.00617284,1,0,0,3.182,rock_grid_rect_2,2,02,-1,-1,3.182,-0.091358025,-0.258024691,1,0,0,6.6,Basalt_rect,2,6.6,1,9,0,9,0,1,,,,,,,,,,,,,
614662c1c31697525616534f,TCR,2024-06-20_15h27.35.790,LearnStrategy,2023.2.3,MacIntel,58.82352941,2,1,11,0.137037037,-0.003703704,1,0,0,1.056,rock_grid_rect_2,2,08,-1,-1,1.056,-0.1,-0.245679012,1,0,0,7.225,Basalt_rect,2,7.225,1,10,0,10,0,1,,,,,,,,,,,,,
614662c1c31697525616534f,TCR,2024-06-20_15h27.35.790,LearnStrategy,2023.2.3,MacIntel,58.82352941,2,1,12,0.101234568,-0.003703704,1,0,0,0.938,rock_grid_rect_2,3,14,-1,-1,0.938,0.188888889,-0.248148148,1,0,0,10.084,Diorite_rect,3,10.084,1,11,0,11,0,1,,,,,,,,,,,,,
614662c1c31697525616534f,TCR,2024-06-20_15h27.35.790,LearnStrategy,2023.2.3,MacIntel,58.82352941,2,1,13,0.133333333,-0.002469136,1,0,0,1.084,rock_grid_rect_2,2,10,-1,-1,1.084,-0.051851852,-0.250617284,1,0,0,12.884,Basalt_rect,2,12.884,1,12,0,12,0,1,,,,,,,,,,,,,
614662c1c31697525616534f,TCR,2024-06-20_15h27.35.790,LearnStrategy,2023.2.3,MacIntel,58.82352941,2,1,14,0.118518519,-0.001234568,1,0,0,0.932,rock_grid_rect_2,6,13,-1,-1,0.932,0.204938272,-0.248148148,1,0,0,11.236,Diorite_rect,3,11.236,0,13,0,13,0,1,,,,,,,,,,,,,
614662c1c31697525616534f,TCR,2024-06-20_15h27.35.790,LearnStrategy,2023.2.3,MacIntel,58.82352941,2,1,15,0.109876543,0.002469136,1,0,0,2.054,rock_grid_rect_2,1,02,-1,-1,2.054,-0.35308642,-0.250617284,1,0,0,14.974,Andesite_rect,1,14.974,1,14,0,14,0,1,,,,,,,,,,,,,
614662c1c31697525616534f,TCR,2024-06-20_15h27.35.790,LearnStrategy,2023.2.3,MacIntel,58.82352941,2,1,16,0.102469136,0.002469136,1,0,0,1.014,rock_grid_rect_2,6,11,-1,-1,1.014,-0.361728395,-0.382716049,1,0,0,6.625,Obsidian_rect,5,6.625,0,15,0,15,0,1,,,,,,,,,,,,,
614662c1c31697525616534f,TCR,2024-06-20_15h27.35.790,LearnStrategy,2023.2.3,MacIntel,58.82352941,2,2,1,,,,,,,,3,02,,,,,,,,,,,3,12.961,1,,,,,,0.171604938,-0.255555556,1,0,0,12.961,Diorite_rect,0,0,0,0,1,
614662c1c31697525616534f,TCR,2024-06-20_15h27.35.790,LearnStrategy,2023.2.3,MacIntel,58.82352941,2,2,2,,,,,,,,1,09,,,,,,,,,,,1,10.108,1,,,,,,-0.35308642,-0.256790123,1,0,0,10.108,Andesite_rect,1,0,1,0,1,
614662c1c31697525616534f,TCR,2024-06-20_15h27.35.790,LearnStrategy,2023.2.3,MacIntel,58.82352941,2,2,3,,,,,,,,8,09,,,,,,,,,,,8,3.19,1,,,,,,0.425925926,-0.409876543,1,0,0,3.19,Pumice_rect,2,0,2,0,1,
614662c1c31697525616534f,TCR,2024-06-20_15h27.35.790,LearnStrategy,2023.2.3,MacIntel,58.82352941,2,2,4,,,,,,,,6,15,,,,,,,,,,,7,6.786,0,,,,,,0.17037037,-0.392592593,1,0,0,6.786,Peridotite_rect,3,0,3,0,1,
614662c1c31697525616534f,TCR,2024-06-20_15h27.35.790,LearnStrategy,2023.2.3,MacIntel,58.82352941,2,2,5,,,,,,,,1,05,,,,,,,,,,,4,4.522,0,,,,,,0.433333333,-0.235802469,1,0,0,4.522,Gabbro_rect,4,0,4,0,1,
614662c1c31697525616534f,TCR,2024-06-20_15h27.35.790,LearnStrategy,2023.2.3,MacIntel,58.82352941,2,2,6,,,,,,,,4,10,,,,,,,,,,,8,5.824,0,,,,,,0.411111111,-0.388888889,1,0,0,5.824,Pumice_rect,5,0,5,0,1,
614662c1c31697525616534f,TCR,2024-06-20_15h27.35.790,LearnStrategy,2023.2.3,MacIntel,58.82352941,2,2,7,,,,,,,,5,07,,,,,,,,,,,5,2.439,1,,,,,,-0.355555556,-0.403703704,1,0,0,2.439,Obsidian_rect,6,0,6,0,1,
614662c1c31697525616534f,TCR,2024-06-20_15h27.35.790,LearnStrategy,2023.2.3,MacIntel,58.82352941,2,2,8,,,,,,,,7,04,,,,,,,,,,,3,9.319,0,,,,,,0.190123457,-0.24691358,1,0,0,9.319,Diorite_rect,7,0,7,0,1,
614662c1c31697525616534f,TCR,2024-06-20_15h27.35.790,LearnStrategy,2023.2.3,MacIntel,58.82352941,2,2,9,,,,,,,,7,05,,,,,,,,,,,1,6.106,0,,,,,,-0.35308642,-0.258024691,1,0,0,6.106,Andesite_rect,8,0,8,0,1,
614662c1c31697525616534f,TCR,2024-06-20_15h27.35.790,LearnStrategy,2023.2.3,MacIntel,58.82352941,2,2,10,,,,,,,,2,04,,,,,,,,,,,2,3.39,1,,,,,,-0.077777778,-0.250617284,1,0,0,3.39,Basalt_rect,9,0,9,0,1,
614662c1c31697525616534f,TCR,2024-06-20_15h27.35.790,LearnStrategy,2023.2.3,MacIntel,58.82352941,2,2,11,,,,,,,,2,06,,,,,,,,,,,2,3.519,1,,,,,,-0.086419753,-0.237037037,1,0,0,3.519,Basalt_rect,10,0,10,0,1,
614662c1c31697525616534f,TCR,2024-06-20_15h27.35.790,LearnStrategy,2023.2.3,MacIntel,58.82352941,2,2,12,,,,,,,,5,11,,,,,,,,,,,5,1.526,1,,,,,,-0.371604938,-0.392592593,1,0,0,1.526,Obsidian_rect,11,0,11,0,1,
614662c1c31697525616534f,TCR,2024-06-20_15h27.35.790,LearnStrategy,2023.2.3,MacIntel,58.82352941,2,2,13,,,,,,,,6,09,,,,,,,,,,,7,6.321,0,,,,,,0.140740741,-0.392592593,1,0,0,6.321,Peridotite_rect,12,0,12,0,1,
614662c1c31697525616534f,TCR,2024-06-20_15h27.35.790,LearnStrategy,2023.2.3,MacIntel,58.82352941,2,2,14,,,,,,,,8,13,,,,,,,,,,,3,8.492,0,,,,,,0.183950617,-0.250617284,1,0,0,8.492,Diorite_rect,13,0,13,0,1,
614662c1c31697525616534f,TCR,2024-06-20_15h27.35.790,LearnStrategy,2023.2.3,MacIntel,58.82352941,2,2,15,,,,,,,,3,16,,,,,,,,,,,3,13.172,1,,,,,,0.164197531,-0.25308642,1,0,0,13.172,Diorite_rect,14,0,14,0,1,
614662c1c31697525616534f,TCR,2024-06-20_15h27.35.790,LearnStrategy,2023.2.3,MacIntel,58.82352941,2,2,16,,,,,,,,4,11,,,,,,,,,,,2,5.391,0,,,,,,-0.102469136,-0.261728395,1,0,0,5.391,Basalt_rect,15,0,15,0,1,
614662c1c31697525616534f,TCR,2024-06-20_15h27.35.790,LearnStrategy,2023.2.3,MacIntel,58.82352941,3,1,1,0.056790123,0.004938272,1,0,0,3.412,rock_grid_rect_2,1,14,-1,-1,3.412,0.197530864,-0.241975309,1,0,0,8.39,Diorite_rect,3,8.39,0,0,0,0,0,1,,,,,,,,,,,,,
614662c1c31697525616534f,TCR,2024-06-20_15h27.35.790,LearnStrategy,2023.2.3,MacIntel,58.82352941,3,1,2,0.117283951,0.002469136,1,0,0,1.193,rock_grid_rect_2,3,06,-1,-1,1.193,0.45308642,-0.250617284,1,0,0,1.657,Gabbro_rect,4,1.657,0,1,0,1,0,1,,,,,,,,,,,,,
614662c1c31697525616534f,TCR,2024-06-20_15h27.35.790,LearnStrategy,2023.2.3,MacIntel,58.82352941,3,1,3,0.150617284,-0.002469136,1,0,0,1.473,rock_grid_rect_2,4,08,-1,-1,1.473,-0.324691358,-0.25308642,1,0,0,5.153,Andesite_rect,1,5.153,0,2,0,2,0,1,,,,,,,,,,,,,
614662c1c31697525616534f,TCR,2024-06-20_15h27.35.790,LearnStrategy,2023.2.3,MacIntel,58.82352941,3,1,4,0.132098765,0.003703704,1,0,0,1.534,rock_grid_rect_2,1,02,-1,-1,1.534,-0.07654321,-0.235802469,1,0,0,3.969,Basalt_rect,2,3.969,0,3,0,3,0,1,,,,,,,,,,,,,
614662c1c31697525616534f,TCR,2024-06-20_15h27.35.790,LearnStrategy,2023.2.3,MacIntel,58.82352941,3,1,5,0.167901235,-0.014814815,1,0,0,1.384,rock_grid_rect_2,6,16,-1,-1,1.384,0.190123457,-0.392592593,1,0,0,5.588,Peridotite_rect,7,5.588,0,4,0,4,0,1,,,,,,,,,,,,,
614662c1c31697525616534f,TCR,2024-06-20_15h27.35.790,LearnStrategy,2023.2.3,MacIntel,58.82352941,3,1,6,0.150617284,0.00617284,1,0,0,1.458,rock_grid_rect_2,7,14,-1,-1,1.458,0.428395062,-0.391358025,1,0,0,3.338,Pumice_rect,8,3.338,0,5,0,5,0,1,,,,,,,,,,,,,
614662c1c31697525616534f,TCR,2024-06-20_15h27.35.790,LearnStrategy,2023.2.3,MacIntel,58.82352941,3,1,7,0.138271605,0.004938272,1,0,0,1.82,rock_grid_rect_2,4,01,-1,-1,1.82,-0.058024691,-0.232098765,1,0,0,4.812,Basalt_rect,2,4.812,0,6,0,6,0,1,,,,,,,,,,,,,
614662c1c31697525616534f,TCR,2024-06-20_15h27.35.790,LearnStrategy,2023.2.3,MacIntel,58.82352941,3,1,8,0.151851852,-0.001234568,1,0,0,1.183,rock_grid_rect_2,6,13,-1,-1,1.183,-0.34691358,-0.240740741,1,0,0,2.423,Andesite_rect,1,2.423,0,7,0,7,0,1,,,,,,,,,,,,,
614662c1c31697525616534f,TCR,2024-06-20_15h27.35.790,LearnStrategy,2023.2.3,MacIntel,58.82352941,3,1,9,0.144444444,0.002469136,1,0,0,3.048,rock_grid_rect_2,2,14,-1,-1,3.048,0.186419753,-0.261728395,1,0,0,2.464,Diorite_rect,3,2.464,0,8,0,8,0,1,,,,,,,,,,,,,
614662c1c31697525616534f,TCR,2024-06-20_15h27.35.790,LearnStrategy,2023.2.3,MacIntel,58.82352941,3,1,10,0.133333333,0.001234568,1,0,0,1.185,rock_grid_rect_2,3,14,-1,-1,1.185,-0.334567901,-0.239506173,1,0,0,9.736,Andesite_rect,1,9.736,0,9,0,9,0,1,,,,,,,,,,,,,
614662c1c31697525616534f,TCR,2024-06-20_15h27.35.790,LearnStrategy,2023.2.3,MacIntel,58.82352941,3,1,11,0.128395062,-0.004938272,1,0,0,1.634,rock_grid_rect_2,7,12,-1,-1,1.634,0.197530864,-0.245679012,1,0,0,4.255,Diorite_rect,3,4.255,0,10,0,10,0,1,,,,,,,,,,,,,
614662c1c31697525616534f,TCR,2024-06-20_15h27.35.790,LearnStrategy,2023.2.3,MacIntel,58.82352941,3,1,12,0.158024691,0.002469136,1,0,0,1.19,rock_grid_rect_2,6,11,-1,-1,1.19,0.220987654,-0.408641975,1,0,0,9.93,Peridotite_rect,7,9.93,0,11,0,11,0,1,,,,,,,,,,,,,
614662c1c31697525616534f,TCR,2024-06-20_15h27.35.790,LearnStrategy,2023.2.3,MacIntel,58.82352941,3,1,13,0.169135802,-0.009876543,1,0,0,1.033,rock_grid_rect_2,7,10,-1,-1,1.033,0.397530864,-0.397530864,1,0,0,2.373,Pumice_rect,8,2.373,0,12,0,12,0,1,,,,,,,,,,,,,
614662c1c31697525616534f,TCR,2024-06-20_15h27.35.790,LearnStrategy,2023.2.3,MacIntel,58.82352941,3,1,14,0.150617284,-0.001234568,1,0,0,1.012,rock_grid_rect_2,1,16,-1,-1,1.012,0.439506173,-0.234567901,1,0,0,1.745,Gabbro_rect,4,1.745,0,13,0,13,0,1,,,,,,,,,,,,,
614662c1c31697525616534f,TCR,2024-06-20_15h27.35.790,LearnStrategy,2023.2.3,MacIntel,58.82352941,3,1,15,0.14691358,0.00617284,1,0,0,1.054,rock_grid_rect_2,8,03,-1,-1,1.054,0.413580247,-0.40617284,1,0,0,3.919,Pumice_rect,8,3.919,1,14,0,14,0,1,,,,,,,,,,,,,
614662c1c31697525616534f,TCR,2024-06-20_15h27.35.790,LearnStrategy,2023.2.3,MacIntel,58.82352941,3,1,16,0.15308642,0.001234568,1,0,0,1.04,rock_grid_rect_2,2,05,-1,-1,1.04,-0.072839506,-0.241975309,1,0,0,4.158,Basalt_rect,2,4.158,1,15,0,15,0,1,,,,,,,,,,,,,
614662c1c31697525616534f,TCR,2024-06-20_15h27.35.790,LearnStrategy,2023.2.3,MacIntel,58.82352941,3,2,1,,,,,,,,5,05,,,,,,,,,,,5,3.541,1,,,,,,-0.380246914,-0.395061728,1,0,0,3.541,Obsidian_rect,0,0,0,0,1,
614662c1c31697525616534f,TCR,2024-06-20_15h27.35.790,LearnStrategy,2023.2.3,MacIntel,58.82352941,3,2,2,,,,,,,,7,15,,,,,,,,,,,7,4.499,1,,,,,,0.167901235,-0.395061728,1,0,0,4.499,Peridotite_rect,1,0,1,0,1,
614662c1c31697525616534f,TCR,2024-06-20_15h27.35.790,LearnStrategy,2023.2.3,MacIntel,58.82352941,3,2,3,,,,,,,,3,13,,,,,,,,,,,3,3.594,1,,,,,,0.166666667,-0.25308642,1,0,0,3.594,Diorite_rect,2,0,2,0,1,
614662c1c31697525616534f,TCR,2024-06-20_15h27.35.790,LearnStrategy,2023.2.3,MacIntel,58.82352941,3,2,4,,,,,,,,4,13,,,,,,,,,,,1,8.793,0,,,,,,-0.348148148,-0.25308642,1,0,0,8.793,Andesite_rect,3,0,3,0,1,
614662c1c31697525616534f,TCR,2024-06-20_15h27.35.790,LearnStrategy,2023.2.3,MacIntel,58.82352941,3,2,5,,,,,,,,2,11,,,,,,,,,,,8,3.024,0,,,,,,0.380246914,-0.40617284,1,0,0,3.024,Pumice_rect,4,0,4,0,1,
614662c1c31697525616534f,TCR,2024-06-20_15h27.35.790,LearnStrategy,2023.2.3,MacIntel,58.82352941,3,2,6,,,,,,,,6,03,,,,,,,,,,,7,3.228,0,,,,,,0.17654321,-0.413580247,1,0,0,3.228,Peridotite_rect,5,0,5,0,1,
614662c1c31697525616534f,TCR,2024-06-20_15h27.35.790,LearnStrategy,2023.2.3,MacIntel,58.82352941,3,2,7,,,,,,,,5,16,,,,,,,,,,,5,1.323,1,,,,,,-0.371604938,-0.391358025,1,0,0,1.323,Obsidian_rect,6,0,6,0,1,
614662c1c31697525616534f,TCR,2024-06-20_15h27.35.790,LearnStrategy,2023.2.3,MacIntel,58.82352941,3,2,8,,,,,,,,1,03,,,,,,,,,,,4,6.962,0,,,,,,0.441975309,-0.251851852,1,0,0,6.962,Gabbro_rect,7,0,7,0,1,
614662c1c31697525616534f,TCR,2024-06-20_15h27.35.790,LearnStrategy,2023.2.3,MacIntel,58.82352941,3,2,9,,,,,,,,2,12,,,,,,,,,,,8,3.493,0,,,,,,0.369135802,-0.408641975,1,0,0,3.493,Pumice_rect,8,0,8,0,1,
614662c1c31697525616534f,TCR,2024-06-20_15h27.35.790,LearnStrategy,2023.2.3,MacIntel,58.82352941,3,2,10,,,,,,,,8,05,,,,,,,,,,,8,2.36,1,,,,,,0.380246914,-0.398765432,1,0,0,2.36,Pumice_rect,9,0,9,0,1,
614662c1c31697525616534f,TCR,2024-06-20_15h27.35.790,LearnStrategy,2023.2.3,MacIntel,58.82352941,3,2,11,,,,,,,,6,07,,,,,,,,,,,6,7.177,1,,,,,,-0.090123457,-0.401234568,1,0,0,7.177,Pegmatite_rect,10,0,10,0,1,
614662c1c31697525616534f,TCR,2024-06-20_15h27.35.790,LearnStrategy,2023.2.3,MacIntel,58.82352941,3,2,12,,,,,,,,4,03,,,,,,,,,,,4,6.45,1,,,,,,0.403703704,-0.251851852,1,0,0,6.45,Gabbro_rect,11,0,11,0,1,
614662c1c31697525616534f,TCR,2024-06-20_15h27.35.790,LearnStrategy,2023.2.3,MacIntel,58.82352941,3,2,13,,,,,,,,1,06,,,,,,,,,,,4,6.39,0,,,,,,0.397530864,-0.238271605,1,0,0,6.39,Gabbro_rect,12,0,12,0,1,
614662c1c31697525616534f,TCR,2024-06-20_15h27.35.790,LearnStrategy,2023.2.3,MacIntel,58.82352941,3,2,14,,,,,,,,3,12,,,,,,,,,,,4,5.411,0,,,,,,0.402469136,-0.235802469,1,0,0,5.411,Gabbro_rect,13,0,13,0,1,
614662c1c31697525616534f,TCR,2024-06-20_15h27.35.790,LearnStrategy,2023.2.3,MacIntel,58.82352941,3,2,15,,,,,,,,7,13,,,,,,,,,,,7,1.31,1,,,,,,0.17654321,-0.418518519,1,0,0,1.31,Peridotite_rect,14,0,14,0,1,
614662c1c31697525616534f,TCR,2024-06-20_15h27.35.790,LearnStrategy,2023.2.3,MacIntel,58.82352941,3,2,16,,,,,,,,8,10,,,,,,,,,,,8,1.872,1,,,,,,0.40617284,-0.388888889,1,0,0,1.872,Pumice_rect,15,0,15,0,1,
614662c1c31697525616534f,TCR,2024-06-20_15h27.35.790,LearnStrategy,2023.2.3,MacIntel,58.82352941,4,1,1,0.138271605,0.012345679,1,0,0,1.359,rock_grid_rect_2,7,02,-1,-1,1.359,0.197530864,-0.411111111,1,0,0,3.59,Peridotite_rect,7,3.59,1,0,0,0,0,1,,,,,,,,,,,,,
614662c1c31697525616534f,TCR,2024-06-20_15h27.35.790,LearnStrategy,2023.2.3,MacIntel,58.82352941,4,1,2,0.138271605,-0.007407407,1,0,0,1.123,rock_grid_rect_2,4,08,-1,-1,1.123,-0.334567901,-0.260493827,1,0,0,8.744,Andesite_rect,1,8.744,0,1,0,1,0,1,,,,,,,,,,,,,
614662c1c31697525616534f,TCR,2024-06-20_15h27.35.790,LearnStrategy,2023.2.3,MacIntel,58.82352941,4,1,3,0.155555556,-0.008641975,1,0,0,1.181,rock_grid_rect_2,4,08,-1,-1,1.181,-0.312345679,-0.230864198,1,0,0,3.092,Andesite_rect,1,3.092,0,2,0,2,0,1,,,,,,,,,,,,,
614662c1c31697525616534f,TCR,2024-06-20_15h27.35.790,LearnStrategy,2023.2.3,MacIntel,58.82352941,4,1,4,0.159259259,0.011111111,1,0,0,1.242,rock_grid_rect_2,8,14,-1,-1,1.242,0.4,-0.40617284,1,0,0,2.478,Pumice_rect,8,2.478,1,3,0,3,0,1,,,,,,,,,,,,,
614662c1c31697525616534f,TCR,2024-06-20_15h27.35.790,LearnStrategy,2023.2.3,MacIntel,58.82352941,4,1,5,0.171604938,0.003703704,1,0,0,1.974,rock_grid_rect_2,7,08,-1,-1,1.974,0.197530864,-0.414814815,1,0,0,2.292,Peridotite_rect,7,2.292,1,4,0,4,0,1,,,,,,,,,,,,,
614662c1c31697525616534f,TCR,2024-06-20_15h27.35.790,LearnStrategy,2023.2.3,MacIntel,58.82352941,4,1,6,0.151851852,-0.012345679,1,0,0,1.189,rock_grid_rect_2,6,11,-1,-1,1.189,-0.098765432,-0.412345679,1,0,0,5.844,Pegmatite_rect,6,5.844,1,5,0,5,0,1,,,,,,,,,,,,,
614662c1c31697525616534f,TCR,2024-06-20_15h27.35.790,LearnStrategy,2023.2.3,MacIntel,58.82352941,4,1,7,0.117283951,-0.009876543,1,0,0,1.236,rock_grid_rect_2,3,14,-1,-1,1.236,0.182716049,-0.238271605,1,0,0,3.474,Diorite_rect,3,3.474,1,6,0,6,0,1,,,,,,,,,,,,,
614662c1c31697525616534f,TCR,2024-06-20_15h27.35.790,LearnStrategy,2023.2.3,MacIntel,58.82352941,4,1,8,0.158024691,-0.007407407,1,0,0,1.099,rock_grid_rect_2,1,10,-1,-1,1.099,0.462962963,-0.249382716,1,0,0,7.051,Gabbro_rect,4,7.051,0,7,0,7,0,1,,,,,,,,,,,,,
614662c1c31697525616534f,TCR,2024-06-20_15h27.35.790,LearnStrategy,2023.2.3,MacIntel,58.82352941,4,1,9,0.159259259,-0.007407407,1,0,0,1.02,rock_grid_rect_2,4,05,-1,-1,1.02,-0.339506173,-0.256790123,1,0,0,6.043,Andesite_rect,1,6.043,0,8,0,8,0,1,,,,,,,,,,,,,
614662c1c31697525616534f,TCR,2024-06-20_15h27.35.790,LearnStrategy,2023.2.3,MacIntel,58.82352941,4,1,10,0.143209877,-0.004938272,1,0,0,1.029,rock_grid_rect_2,6,10,-1,-1,1.029,0.233333333,-0.4,1,0,0,1.574,Peridotite_rect,7,1.574,0,9,0,9,0,1,,,,,,,,,,,,,
614662c1c31697525616534f,TCR,2024-06-20_15h27.35.790,LearnStrategy,2023.2.3,MacIntel,58.82352941,4,1,11,0.135802469,-0.013580247,1,0,0,1.63,rock_grid_rect_2,1,02,-1,-1,1.63,0.408641975,-0.267901235,1,0,0,7.008,Gabbro_rect,4,7.008,0,10,0,10,0,1,,,,,,,,,,,,,
614662c1c31697525616534f,TCR,2024-06-20_15h27.35.790,LearnStrategy,2023.2.3,MacIntel,58.82352941,4,1,12,0.134567901,0.012345679,1,0,0,0.983,rock_grid_rect_2,2,09,-1,-1,0.983,-0.071604938,-0.251851852,1,0,0,4.189,Basalt_rect,2,4.189,1,11,0,11,0,1,,,,,,,,,,,,,
614662c1c31697525616534f,TCR,2024-06-20_15h27.35.790,LearnStrategy,2023.2.3,MacIntel,58.82352941,4,1,13,0.149382716,0.004938272,1,0,0,1.543,rock_grid_rect_2,2,05,-1,-1,1.543,-0.071604938,-0.266666667,1,0,0,3.97,Basalt_rect,2,3.97,1,12,0,12,0,1,,,,,,,,,,,,,
614662c1c31697525616534f,TCR,2024-06-20_15h27.35.790,LearnStrategy,2023.2.3,MacIntel,58.82352941,4,1,14,0.149382716,0.004938272,1,0,0,1.122,rock_grid_rect_2,6,16,-1,-1,1.122,-0.072839506,-0.398765432,1,0,0,5.258,Pegmatite_rect,6,5.258,1,13,0,13,0,1,,,,,,,,,,,,,
614662c1c31697525616534f,TCR,2024-06-20_15h27.35.790,LearnStrategy,2023.2.3,MacIntel,58.82352941,4,1,15,0.148148148,-0.003703704,1,0,0,1.215,rock_grid_rect_2,3,06,-1,-1,1.215,0.202469136,-0.240740741,1,0,0,9.572,Diorite_rect,3,9.572,1,14,0,14,0,1,,,,,,,,,,,,,
614662c1c31697525616534f,TCR,2024-06-20_15h27.35.790,LearnStrategy,2023.2.3,MacIntel,58.82352941,4,1,16,0.158024691,0.00617284,1,0,0,1.805,rock_grid_rect_2,1,04,-1,-1,1.805,0.454320988,-0.250617284,1,0,0,2.309,Gabbro_rect,4,2.309,0,15,0,15,0,1,,,,,,,,,,,,,
614662c1c31697525616534f,TCR,2024-06-20_15h27.35.790,LearnStrategy,2023.2.3,MacIntel,58.82352941,4,2,1,,,,,,,,5,07,,,,,,,,,,,5,1.412,1,,,,,,-0.35308642,-0.388888889,1,0,0,1.412,Obsidian_rect,0,0,0,0,1,
614662c1c31697525616534f,TCR,2024-06-20_15h27.35.790,LearnStrategy,2023.2.3,MacIntel,58.82352941,4,2,2,,,,,,,,8,10,,,,,,,,,,,8,8.623,1,,,,,,0.414814815,-0.398765432,1,0,0,8.623,Pumice_rect,1,0,1,0,1,
614662c1c31697525616534f,TCR,2024-06-20_15h27.35.790,LearnStrategy,2023.2.3,MacIntel,58.82352941,4,2,3,,,,,,,,8,05,,,,,,,,,,,8,4.006,1,,,,,,0.413580247,-0.387654321,1,0,0,4.006,Pumice_rect,2,0,2,0,1,
614662c1c31697525616534f,TCR,2024-06-20_15h27.35.790,LearnStrategy,2023.2.3,MacIntel,58.82352941,4,2,4,,,,,,,,2,16,,,,,,,,,,,1,2.627,0,,,,,,-0.361728395,-0.262962963,1,0,0,2.627,Andesite_rect,3,0,3,0,1,
614662c1c31697525616534f,TCR,2024-06-20_15h27.35.790,LearnStrategy,2023.2.3,MacIntel,58.82352941,4,2,5,,,,,,,,7,06,,,,,,,,,,,6,2.192,0,,,,,,-0.138271605,-0.40617284,1,0,0,2.192,Pegmatite_rect,4,0,4,0,1,
614662c1c31697525616534f,TCR,2024-06-20_15h27.35.790,LearnStrategy,2023.2.3,MacIntel,58.82352941,4,2,6,,,,,,,,3,15,,,,,,,,,,,4,1.293,0,,,,,,0.40617284,-0.256790123,1,0,0,1.293,Gabbro_rect,5,0,5,0,1,
614662c1c31697525616534f,TCR,2024-06-20_15h27.35.790,LearnStrategy,2023.2.3,MacIntel,58.82352941,4,2,7,,,,,,,,1,03,,,,,,,,,,,7,2.709,0,,,,,,0.155555556,-0.419753086,1,0,0,2.709,Peridotite_rect,6,0,6,0,1,
614662c1c31697525616534f,TCR,2024-06-20_15h27.35.790,LearnStrategy,2023.2.3,MacIntel,58.82352941,4,2,8,,,,,,,,4,09,,,,,,,,,,,3,2.143,0,,,,,,0.17654321,-0.259259259,1,0,0,2.143,Diorite_rect,7,0,7,0,1,
614662c1c31697525616534f,TCR,2024-06-20_15h27.35.790,LearnStrategy,2023.2.3,MacIntel,58.82352941,4,2,9,,,,,,,,5,10,,,,,,,,,,,5,1.325,1,,,,,,-0.37037037,-0.402469136,1,0,0,1.325,Obsidian_rect,8,0,8,0,1,
614662c1c31697525616534f,TCR,2024-06-20_15h27.35.790,LearnStrategy,2023.2.3,MacIntel,58.82352941,4,2,10,,,,,,,,7,04,,,,,,,,,,,4,7.253,0,,,,,,0.439506173,-0.249382716,1,0,0,7.253,Gabbro_rect,9,0,9,0,1,
614662c1c31697525616534f,TCR,2024-06-20_15h27.35.790,LearnStrategy,2023.2.3,MacIntel,58.82352941,4,2,11,,,,,,,,6,15,,,,,,,,,,,6,3.976,1,,,,,,-0.087654321,-0.4,1,0,0,3.976,Pegmatite_rect,10,0,10,0,1,
614662c1c31697525616534f,TCR,2024-06-20_15h27.35.790,LearnStrategy,2023.2.3,MacIntel,58.82352941,4,2,12,,,,,,,,1,06,,,,,,,,,,,3,4.081,0,,,,,,0.177777778,-0.240740741,1,0,0,4.081,Diorite_rect,11,0,11,0,1,
614662c1c31697525616534f,TCR,2024-06-20_15h27.35.790,LearnStrategy,2023.2.3,MacIntel,58.82352941,4,2,13,,,,,,,,2,06,,,,,,,,,,,2,4.156,1,,,,,,-0.051851852,-0.259259259,1,0,0,4.156,Basalt_rect,12,0,12,0,1,
614662c1c31697525616534f,TCR,2024-06-20_15h27.35.790,LearnStrategy,2023.2.3,MacIntel,58.82352941,4,2,14,,,,,,,,6,05,,,,,,,,,,,6,4.659,1,,,,,,-0.065432099,-0.4,1,0,0,4.659,Pegmatite_rect,13,0,13,0,1,
614662c1c31697525616534f,TCR,2024-06-20_15h27.35.790,LearnStrategy,2023.2.3,MacIntel,58.82352941,4,2,15,,,,,,,,4,03,,,,,,,,,,,4,9.728,1,,,,,,0.39382716,-0.259259259,1,0,0,9.728,Gabbro_rect,14,0,14,0,1,
614662c1c31697525616534f,TCR,2024-06-20_15h27.35.790,LearnStrategy,2023.2.3,MacIntel,58.82352941,4,2,16,,,,,,,,3,13,,,,,,,,,,,1,3.97,0,,,,,,-0.324691358,-0.254320988,1,0,0,3.97,Andesite_rect,15,0,15,0,1,
614662c1c31697525616534f,TCR,2024-06-20_15h27.35.790,LearnStrategy,2023.2.3,MacIntel,58.82352941,5,1,1,0.137037037,0.003703704,1,0,0,1.5,rock_grid_rect_2,1,11,-1,-1,1.5,-0.32962963,-0.250617284,1,0,0,4.521,Andesite_rect,1,4.521,1,0,0,0,0,1,,,,,,,,,,,,,
614662c1c31697525616534f,TCR,2024-06-20_15h27.35.790,LearnStrategy,2023.2.3,MacIntel,58.82352941,5,1,2,0.102469136,0.002469136,1,0,0,1.097,rock_grid_rect_2,4,12,-1,-1,1.097,0.459259259,-0.248148148,1,0,0,7.968,Gabbro_rect,4,7.968,1,1,0,1,0,1,,,,,,,,,,,,,
614662c1c31697525616534f,TCR,2024-06-20_15h27.35.790,LearnStrategy,2023.2.3,MacIntel,58.82352941,5,1,3,0.151851852,0.008641975,1,0,0,0.946,rock_grid_rect_2,3,10,-1,-1,0.946,0.197530864,-0.395061728,1,0,0,3.543,Peridotite_rect,7,3.543,0,2,0,2,0,1,,,,,,,,,,,,,
614662c1c31697525616534f,TCR,2024-06-20_15h27.35.790,LearnStrategy,2023.2.3,MacIntel,58.82352941,5,1,4,0.154320988,0.002469136,1,0,0,0.956,rock_grid_rect_2,1,16,-1,-1,0.956,-0.072839506,-0.256790123,1,0,0,4.49,Basalt_rect,2,4.49,0,3,0,3,0,1,,,,,,,,,,,,,
614662c1c31697525616534f,TCR,2024-06-20_15h27.35.790,LearnStrategy,2023.2.3,MacIntel,58.82352941,5,1,5,0.135802469,-0.004938272,1,0,0,1.131,rock_grid_rect_2,2,09,-1,-1,1.131,-0.32345679,-0.255555556,1,0,0,2.125,Andesite_rect,1,2.125,0,4,0,4,0,1,,,,,,,,,,,,,
614662c1c31697525616534f,TCR,2024-06-20_15h27.35.790,LearnStrategy,2023.2.3,MacIntel,58.82352941,5,1,6,0.135802469,-0.018518519,1,0,0,1.726,rock_grid_rect_2,3,07,-1,-1,1.726,-0.080246914,-0.407407407,1,0,0,1.757,Pegmatite_rect,6,1.757,0,5,0,5,0,1,,,,,,,,,,,,,
614662c1c31697525616534f,TCR,2024-06-20_15h27.35.790,LearnStrategy,2023.2.3,MacIntel,58.82352941,5,1,7,0.17037037,0.003703704,1,0,0,1.047,rock_grid_rect_2,3,14,-1,-1,1.047,0.42962963,-0.259259259,1,0,0,1.861,Gabbro_rect,4,1.861,0,6,0,6,0,1,,,,,,,,,,,,,
614662c1c31697525616534f,TCR,2024-06-20_15h27.35.790,LearnStrategy,2023.2.3,MacIntel,58.82352941,5,1,8,0.145679012,0.003703704,1,0,0,1.039,rock_grid_rect_2,8,06,-1,-1,1.039,0.171604938,-0.240740741,1,0,0,1.014,Diorite_rect,3,1.014,0,7,0,7,0,1,,,,,,,,,,,,,
614662c1c31697525616534f,TCR,2024-06-20_15h27.35.790,LearnStrategy,2023.2.3,MacIntel,58.82352941,5,1,9,0.143209877,0.00617284,1,0,0,1.547,rock_grid_rect_2,4,01,-1,-1,1.547,-0.335802469,-0.250617284,1,0,0,2.445,Andesite_rect,1,2.445,0,8,0,8,0,1,,,,,,,,,,,,,
614662c1c31697525616534f,TCR,2024-06-20_15h27.35.790,LearnStrategy,2023.2.3,MacIntel,58.82352941,5,1,10,0.14691358,0.00617284,1,0,0,1.013,rock_grid_rect_2,7,12,-1,-1,1.013,0.17037037,-0.271604938,1,0,0,1.274,Diorite_rect,3,1.274,0,9,0,9,0,1,,,,,,,,,,,,,
614662c1c31697525616534f,TCR,2024-06-20_15h27.35.790,LearnStrategy,2023.2.3,MacIntel,58.82352941,5,1,11,0.09382716,-0.024691358,1,0,0,0.964,rock_grid_rect_2,1,10,-1,-1,0.964,0.422222222,-0.403703704,1,0,0,2.929,Pumice_rect,8,2.929,0,10,0,10,0,1,,,,,,,,,,,,,
614662c1c31697525616534f,TCR,2024-06-20_15h27.35.790,LearnStrategy,2023.2.3,MacIntel,58.82352941,5,1,12,0.125925926,-0.008641975,1,0,0,0.98,rock_grid_rect_2,7,16,-1,-1,0.98,0.183950617,-0.397530864,1,0,0,3.915,Peridotite_rect,7,3.915,1,11,0,11,0,1,,,,,,,,,,,,,
614662c1c31697525616534f,TCR,2024-06-20_15h27.35.790,LearnStrategy,2023.2.3,MacIntel,58.82352941,5,1,13,0.138271605,0.011111111,1,0,0,1.79,rock_grid_rect_2,6,12,-1,-1,1.79,0.144444444,-0.254320988,1,0,0,2.183,Diorite_rect,3,2.183,0,12,0,12,0,1,,,,,,,,,,,,,
614662c1c31697525616534f,TCR,2024-06-20_15h27.35.790,LearnStrategy,2023.2.3,MacIntel,58.82352941,5,1,14,0.161728395,-0.013580247,1,0,0,0.948,rock_grid_rect_2,2,08,-1,-1,0.948,0.488888889,-0.239506173,1,0,0,2.793,Gabbro_rect,4,2.793,0,13,0,13,0,1,,,,,,,,,,,,,
614662c1c31697525616534f,TCR,2024-06-20_15h27.35.790,LearnStrategy,2023.2.3,MacIntel,58.82352941,5,1,15,0.141975309,0.02345679,1,0,0,2.795,rock_grid_rect_2,7,10,-1,-1,2.795,-0.091358025,-0.414814815,1,0,0,2.029,Pegmatite_rect,6,2.029,0,14,0,14,0,1,,,,,,,,,,,,,
614662c1c31697525616534f,TCR,2024-06-20_15h27.35.790,LearnStrategy,2023.2.3,MacIntel,58.82352941,5,1,16,0.14691358,-0.016049383,1,0,0,1.28,rock_grid_rect_2,6,06,-1,-1,1.28,-0.32962963,-0.251851852,1,0,0,3.509,Andesite_rect,1,3.509,0,15,0,15,0,1,,,,,,,,,,,,,
614662c1c31697525616534f,TCR,2024-06-20_15h27.35.790,LearnStrategy,2023.2.3,MacIntel,58.82352941,5,2,1,,,,,,,,5,11,,,,,,,,,,,5,3.241,1,,,,,,-0.366666667,-0.40617284,1,0,0,3.241,Obsidian_rect,0,0,0,0,1,
614662c1c31697525616534f,TCR,2024-06-20_15h27.35.790,LearnStrategy,2023.2.3,MacIntel,58.82352941,5,2,2,,,,,,,,1,01,,,,,,,,,,,4,3.795,0,,,,,,0.432098765,-0.265432099,1,0,0,3.795,Gabbro_rect,1,0,1,0,1,
614662c1c31697525616534f,TCR,2024-06-20_15h27.35.790,LearnStrategy,2023.2.3,MacIntel,58.82352941,5,2,3,,,,,,,,7,07,,,,,,,,,,,7,6.159,1,,,,,,0.186419753,-0.402469136,1,0,0,6.159,Peridotite_rect,2,0,2,0,1,
614662c1c31697525616534f,TCR,2024-06-20_15h27.35.790,LearnStrategy,2023.2.3,MacIntel,58.82352941,5,2,4,,,,,,,,8,13,,,,,,,,,,,8,7.875,1,,,,,,0.42962963,-0.408641975,1,0,0,7.875,Pumice_rect,3,0,3,0,1,
614662c1c31697525616534f,TCR,2024-06-20_15h27.35.790,LearnStrategy,2023.2.3,MacIntel,58.82352941,5,2,5,,,,,,,,4,11,,,,,,,,,,,2,2.361,0,,,,,,-0.086419753,-0.267901235,1,0,0,2.361,Basalt_rect,4,0,4,0,1,
614662c1c31697525616534f,TCR,2024-06-20_15h27.35.790,LearnStrategy,2023.2.3,MacIntel,58.82352941,5,2,6,,,,,,,,3,16,,,,,,,,,,,3,3.812,1,,,,,,0.186419753,-0.255555556,1,0,0,3.812,Diorite_rect,5,0,5,0,1,
614662c1c31697525616534f,TCR,2024-06-20_15h27.35.790,LearnStrategy,2023.2.3,MacIntel,58.82352941,5,2,7,,,,,,,,6,09,,,,,,,,,,,6,6.857,1,,,,,,-0.102469136,-0.414814815,1,0,0,6.857,Pegmatite_rect,6,0,6,0,1,
614662c1c31697525616534f,TCR,2024-06-20_15h27.35.790,LearnStrategy,2023.2.3,MacIntel,58.82352941,5,2,8,,,,,,,,6,07,,,,,,,,,,,6,1.68,1,,,,,,-0.107407407,-0.409876543,1,0,0,1.68,Pegmatite_rect,7,0,7,0,1,
614662c1c31697525616534f,TCR,2024-06-20_15h27.35.790,LearnStrategy,2023.2.3,MacIntel,58.82352941,5,2,9,,,,,,,,2,11,,,,,,,,,,,1,2.96,0,,,,,,-0.348148148,-0.261728395,1,0,0,2.96,Andesite_rect,8,0,8,0,1,
614662c1c31697525616534f,TCR,2024-06-20_15h27.35.790,LearnStrategy,2023.2.3,MacIntel,58.82352941,5,2,10,,,,,,,,7,13,,,,,,,,,,,7,2.762,1,,,,,,0.190123457,-0.416049383,1,0,0,2.762,Peridotite_rect,9,0,9,0,1,
614662c1c31697525616534f,TCR,2024-06-20_15h27.35.790,LearnStrategy,2023.2.3,MacIntel,58.82352941,5,2,11,,,,,,,,3,02,,,,,,,,,,,4,2.742,0,,,,,,0.419753086,-0.234567901,1,0,0,2.742,Gabbro_rect,10,0,10,0,1,
614662c1c31697525616534f,TCR,2024-06-20_15h27.35.790,LearnStrategy,2023.2.3,MacIntel,58.82352941,5,2,12,,,,,,,,5,06,,,,,,,,,,,5,2.305,1,,,,,,-0.34691358,-0.418518519,1,0,0,2.305,Obsidian_rect,11,0,11,0,1,
614662c1c31697525616534f,TCR,2024-06-20_15h27.35.790,LearnStrategy,2023.2.3,MacIntel,58.82352941,5,2,13,,,,,,,,4,13,,,,,,,,,,,3,3.71,0,,,,,,0.180246914,-0.269135802,1,0,0,3.71,Diorite_rect,12,0,12,0,1,
614662c1c31697525616534f,TCR,2024-06-20_15h27.35.790,LearnStrategy,2023.2.3,MacIntel,58.82352941,5,2,14,,,,,,,,2,12,,,,,,,,,,,2,3.949,1,,,,,,-0.132098765,-0.250617284,1,0,0,3.949,Basalt_rect,13,0,13,0,1,
614662c1c31697525616534f,TCR,2024-06-20_15h27.35.790,LearnStrategy,2023.2.3,MacIntel,58.82352941,5,2,15,,,,,,,,1,09,,,,,,,,,,,4,2.705,0,,,,,,0.427160494,-0.250617284,1,0,0,2.705,Gabbro_rect,14,0,14,0,1,
614662c1c31697525616534f,TCR,2024-06-20_15h27.35.790,LearnStrategy,2023.2.3,MacIntel,58.82352941,5,2,16,,,,,,,,8,04,,,,,,,,,,,2,4.187,0,,,,,,-0.088888889,-0.265432099,1,0,0,4.187,Basalt_rect,15,0,15,0,1,
614662c1c31697525616534f,TCR,2024-06-20_15h27.35.790,LearnStrategy,2023.2.3,MacIntel,58.82352941,6,1,1,0.148148148,0.011111111,1,0,0,1.247,rock_grid_rect_2,7,12,-1,-1,1.247,0.195061728,-0.413580247,1,0,0,6.893,Peridotite_rect,7,6.893,1,0,0,0,0,1,,,,,,,,,,,,,
614662c1c31697525616534f,TCR,2024-06-20_15h27.35.790,LearnStrategy,2023.2.3,MacIntel,58.82352941,6,1,2,0.154320988,-0.012345679,1,0,0,2.086,rock_grid_rect_2,3,06,-1,-1,2.086,-0.341975309,-0.264197531,1,0,0,7.518,Andesite_rect,1,7.518,0,1,0,1,0,1,,,,,,,,,,,,,
614662c1c31697525616534f,TCR,2024-06-20_15h27.35.790,LearnStrategy,2023.2.3,MacIntel,58.82352941,6,1,3,0.186419753,0.001234568,1,0,0,1.095,rock_grid_rect_2,4,14,-1,-1,1.095,0.44691358,-0.258024691,1,0,0,1.486,Gabbro_rect,4,1.486,1,2,0,2,0,1,,,,,,,,,,,,,
614662c1c31697525616534f,TCR,2024-06-20_15h27.35.790,LearnStrategy,2023.2.3,MacIntel,58.82352941,6,1,4,0.144444444,-0.002469136,1,0,0,1.198,rock_grid_rect_2,1,14,-1,-1,1.198,-0.064197531,-0.401234568,1,0,0,4.416,Pegmatite_rect,6,4.416,0,3,0,3,0,1,,,,,,,,,,,,,
614662c1c31697525616534f,TCR,2024-06-20_15h27.35.790,LearnStrategy,2023.2.3,MacIntel,58.82352941,6,1,5,0.171604938,-0.011111111,1,0,0,1.008,rock_grid_rect_2,8,14,-1,-1,1.008,0.398765432,-0.398765432,1,0,0,2.407,Pumice_rect,8,2.407,1,4,0,4,0,1,,,,,,,,,,,,,
614662c1c31697525616534f,TCR,2024-06-20_15h27.35.790,LearnStrategy,2023.2.3,MacIntel,58.82352941,6,1,6,0.177777778,-0.00617284,1,0,0,1.073,rock_grid_rect_2,4,05,-1,-1,1.073,0.419753086,-0.228395062,1,0,0,6.883,Gabbro_rect,4,6.883,1,5,0,5,0,1,,,,,,,,,,,,,
614662c1c31697525616534f,TCR,2024-06-20_15h27.35.790,LearnStrategy,2023.2.3,MacIntel,58.82352941,6,1,7,0.15308642,-0.017283951,1,0,0,1.083,rock_grid_rect_2,6,13,-1,-1,1.083,-0.096296296,-0.407407407,1,0,0,1.298,Pegmatite_rect,6,1.298,1,6,0,6,0,1,,,,,,,,,,,,,
614662c1c31697525616534f,TCR,2024-06-20_15h27.35.790,LearnStrategy,2023.2.3,MacIntel,58.82352941,6,1,8,0.144444444,-0.013580247,1,0,0,1.047,rock_grid_rect_2,3,14,-1,-1,1.047,0.179012346,-0.238271605,1,0,0,7.225,Diorite_rect,3,7.225,1,7,0,7,0,1,,,,,,,,,,,,,
614662c1c31697525616534f,TCR,2024-06-20_15h27.35.790,LearnStrategy,2023.2.3,MacIntel,58.82352941,6,1,9,0.162962963,-0.00617284,1,0,0,1.664,rock_grid_rect_2,7,16,-1,-1,1.664,0.196296296,-0.40617284,1,0,0,3.89,Peridotite_rect,7,3.89,1,8,0,8,0,1,,,,,,,,,,,,,
614662c1c31697525616534f,TCR,2024-06-20_15h27.35.790,LearnStrategy,2023.2.3,MacIntel,58.82352941,6,1,10,0.159259259,0.018518519,1,0,0,1.317,rock_grid_rect_2,4,08,-1,-1,1.317,-0.330864198,-0.258024691,1,0,0,5.888,Andesite_rect,1,5.888,0,9,0,9,0,1,,,,,,,,,,,,,
614662c1c31697525616534f,TCR,2024-06-20_15h27.35.790,LearnStrategy,2023.2.3,MacIntel,58.82352941,6,1,11,0.144444444,0.00617284,1,0,0,1.175,rock_grid_rect_2,1,16,-1,-1,1.175,-0.328395062,-0.265432099,1,0,0,2.466,Andesite_rect,1,2.466,1,10,0,10,0,1,,,,,,,,,,,,,
614662c1c31697525616534f,TCR,2024-06-20_15h27.35.790,LearnStrategy,2023.2.3,MacIntel,58.82352941,6,1,12,0.155555556,0.008641975,1,0,0,1.004,rock_grid_rect_2,1,04,-1,-1,1.004,0.204938272,-0.238271605,1,0,0,3.922,Diorite_rect,3,3.922,0,11,0,11,0,1,,,,,,,,,,,,,
614662c1c31697525616534f,TCR,2024-06-20_15h27.35.790,LearnStrategy,2023.2.3,MacIntel,58.82352941,6,1,13,0.162962963,-0.00617284,1,0,0,0.895,rock_grid_rect_2,2,14,-1,-1,0.895,0.40617284,-0.387654321,1,0,0,3.829,Pumice_rect,8,3.829,0,12,0,12,0,1,,,,,,,,,,,,,
614662c1c31697525616534f,TCR,2024-06-20_15h27.35.790,LearnStrategy,2023.2.3,MacIntel,58.82352941,6,1,14,0.139506173,-0.003703704,1,0,0,1.014,rock_grid_rect_2,2,08,-1,-1,1.014,-0.075308642,-0.251851852,1,0,0,2.81,Basalt_rect,2,2.81,1,13,0,13,0,1,,,,,,,,,,,,,
614662c1c31697525616534f,TCR,2024-06-20_15h27.35.790,LearnStrategy,2023.2.3,MacIntel,58.82352941,6,1,15,0.160493827,-0.003703704,1,0,0,2.455,rock_grid_rect_2,1,04,-1,-1,2.455,-0.350617284,-0.265432099,1,0,0,2.062,Andesite_rect,1,2.062,1,14,0,14,0,1,,,,,,,,,,,,,
614662c1c31697525616534f,TCR,2024-06-20_15h27.35.790,LearnStrategy,2023.2.3,MacIntel,58.82352941,6,1,16,0.161728395,0.003703704,1,0,0,0.87,rock_grid_rect_2,3,14,-1,-1,0.87,0.203703704,-0.240740741,1,0,0,4.61,Diorite_rect,3,4.61,1,15,0,15,0,1,,,,,,,,,,,,,
614662c1c31697525616534f,TCR,2024-06-20_15h27.35.790,LearnStrategy,2023.2.3,MacIntel,58.82352941,6,2,1,,,,,,,,1,07,,,,,,,,,,,4,5.864,0,,,,,,0.45308642,-0.25308642,1,0,0,5.864,Gabbro_rect,0,0,0,0,1,
614662c1c31697525616534f,TCR,2024-06-20_15h27.35.790,LearnStrategy,2023.2.3,MacIntel,58.82352941,6,2,2,,,,,,,,2,04,,,,,,,,,,,2,2.591,1,,,,,,-0.055555556,-0.27037037,1,0,0,2.591,Basalt_rect,1,0,1,0,1,
614662c1c31697525616534f,TCR,2024-06-20_15h27.35.790,LearnStrategy,2023.2.3,MacIntel,58.82352941,6,2,3,,,,,,,,1,05,,,,,,,,,,,1,4.384,1,,,,,,-0.350617284,-0.265432099,1,0,0,4.384,Andesite_rect,2,0,2,0,1,
614662c1c31697525616534f,TCR,2024-06-20_15h27.35.790,LearnStrategy,2023.2.3,MacIntel,58.82352941,6,2,4,,,,,,,,5,16,,,,,,,,,,,5,1.24,1,,,,,,-0.355555556,-0.419753086,1,0,0,1.24,Obsidian_rect,3,0,3,0,1,
614662c1c31697525616534f,TCR,2024-06-20_15h27.35.790,LearnStrategy,2023.2.3,MacIntel,58.82352941,6,2,5,,,,,,,,5,05,,,,,,,,,,,5,3.744,1,,,,,,-0.382716049,-0.409876543,1,0,0,3.744,Obsidian_rect,4,0,4,0,1,
614662c1c31697525616534f,TCR,2024-06-20_15h27.35.790,LearnStrategy,2023.2.3,MacIntel,58.82352941,6,2,6,,,,,,,,4,10,,,,,,,,,,,4,9.542,1,,,,,,0.440740741,-0.22962963,1,0,0,9.542,Gabbro_rect,5,0,5,0,1,
614662c1c31697525616534f,TCR,2024-06-20_15h27.35.790,LearnStrategy,2023.2.3,MacIntel,58.82352941,6,2,7,,,,,,,,3,08,,,,,,,,,,,3,4.024,1,,,,,,0.141975309,-0.239506173,1,0,0,4.024,Diorite_rect,6,0,6,0,1,
614662c1c31697525616534f,TCR,2024-06-20_15h27.35.790,LearnStrategy,2023.2.3,MacIntel,58.82352941,6,2,8,,,,,,,,8,08,,,,,,,,,,,1,1.593,0,,,,,,-0.349382716,-0.260493827,1,0,0,1.593,Andesite_rect,7,0,7,0,1,
614662c1c31697525616534f,TCR,2024-06-20_15h27.35.790,LearnStrategy,2023.2.3,MacIntel,58.82352941,6,2,9,,,,,,,,4,15,,,,,,,,,,,4,5.792,1,,,,,,0.413580247,-0.250617284,1,0,0,5.792,Gabbro_rect,8,0,8,0,1,
614662c1c31697525616534f,TCR,2024-06-20_15h27.35.790,LearnStrategy,2023.2.3,MacIntel,58.82352941,6,2,10,,,,,,,,6,03,,,,,,,,,,,7,2.736,0,,,,,,0.171604938,-0.416049383,1,0,0,2.736,Peridotite_rect,9,0,9,0,1,
614662c1c31697525616534f,TCR,2024-06-20_15h27.35.790,LearnStrategy,2023.2.3,MacIntel,58.82352941,6,2,11,,,,,,,,8,09,,,,,,,,,,,8,4.193,1,,,,,,0.444444444,-0.402469136,1,0,0,4.193,Pumice_rect,10,0,10,0,1,
614662c1c31697525616534f,TCR,2024-06-20_15h27.35.790,LearnStrategy,2023.2.3,MacIntel,58.82352941,6,2,12,,,,,,,,6,08,,,,,,,,,,,6,2.372,1,,,,,,-0.090123457,-0.412345679,1,0,0,2.372,Pegmatite_rect,11,0,11,0,1,
614662c1c31697525616534f,TCR,2024-06-20_15h27.35.790,LearnStrategy,2023.2.3,MacIntel,58.82352941,6,2,13,,,,,,,,3,12,,,,,,,,,,,4,3.202,0,,,,,,0.395061728,-0.255555556,1,0,0,3.202,Gabbro_rect,12,0,12,0,1,
614662c1c31697525616534f,TCR,2024-06-20_15h27.35.790,LearnStrategy,2023.2.3,MacIntel,58.82352941,6,2,14,,,,,,,,2,01,,,,,,,,,,,1,2.526,0,,,,,,-0.345679012,-0.259259259,1,0,0,2.526,Andesite_rect,13,0,13,0,1,
614662c1c31697525616534f,TCR,2024-06-20_15h27.35.790,LearnStrategy,2023.2.3,MacIntel,58.82352941,6,2,15,,,,,,,,7,05,,,,,,,,,,,7,5.692,1,,,,,,0.144444444,-0.402469136,1,0,0,5.692,Peridotite_rect,14,0,14,0,1,
614662c1c31697525616534f,TCR,2024-06-20_15h27.35.790,LearnStrategy,2023.2.3,MacIntel,58.82352941,6,2,16,,,,,,,,7,15,,,,,,,,,,,7,2.074,1,,,,,,0.162962963,-0.419753086,1,0,0,2.074,Peridotite_rect,15,0,15,0,1,
614662c1c31697525616534f,TCR,2024-06-20_15h27.35.790,LearnStrategy,2023.2.3,MacIntel,58.82352941,7,1,1,0.148148148,0.012345679,1,0,0,1.386,rock_grid_rect_2,2,05,-1,-1,1.386,-0.075308642,-0.260493827,1,0,0,2.949,Basalt_rect,2,2.949,1,0,0,0,0,1,,,,,,,,,,,,,
614662c1c31697525616534f,TCR,2024-06-20_15h27.35.790,LearnStrategy,2023.2.3,MacIntel,58.82352941,7,1,2,0.14691358,0.004938272,1,0,0,1.749,rock_grid_rect_2,4,05,-1,-1,1.749,0.212345679,-0.255555556,1,0,0,1.658,Diorite_rect,3,1.658,0,1,0,1,0,1,,,,,,,,,,,,,
614662c1c31697525616534f,TCR,2024-06-20_15h27.35.790,LearnStrategy,2023.2.3,MacIntel,58.82352941,7,1,3,0.155555556,0,1,0,0,1.115,rock_grid_rect_2,1,10,-1,-1,1.115,-0.358024691,-0.258024691,1,0,0,3.36,Andesite_rect,1,3.36,1,2,0,2,0,1,,,,,,,,,,,,,
614662c1c31697525616534f,TCR,2024-06-20_15h27.35.790,LearnStrategy,2023.2.3,MacIntel,58.82352941,7,1,4,0.138271605,-0.011111111,1,0,0,1.047,rock_grid_rect_2,6,16,-1,-1,1.047,-0.10617284,-0.390123457,1,0,0,1.179,Pegmatite_rect,6,1.179,1,3,0,3,0,1,,,,,,,,,,,,,
614662c1c31697525616534f,TCR,2024-06-20_15h27.35.790,LearnStrategy,2023.2.3,MacIntel,58.82352941,7,1,5,0.159259259,-0.00617284,1,0,0,1.641,rock_grid_rect_2,1,16,-1,-1,1.641,0.461728395,-0.261728395,1,0,0,1.774,Gabbro_rect,4,1.774,0,4,0,4,0,1,,,,,,,,,,,,,
614662c1c31697525616534f,TCR,2024-06-20_15h27.35.790,LearnStrategy,2023.2.3,MacIntel,58.82352941,7,1,6,0.164197531,-0.004938272,1,0,0,0.965,rock_grid_rect_2,1,14,-1,-1,0.965,-0.096296296,-0.403703704,1,0,0,6.281,Pegmatite_rect,6,6.281,0,5,0,5,0,1,,,,,,,,,,,,,
614662c1c31697525616534f,TCR,2024-06-20_15h27.35.790,LearnStrategy,2023.2.3,MacIntel,58.82352941,7,1,7,0.140740741,0.007407407,1,0,0,1.043,rock_grid_rect_2,7,02,-1,-1,1.043,-0.080246914,-0.408641975,1,0,0,1.81,Pegmatite_rect,6,1.81,0,6,0,6,0,1,,,,,,,,,,,,,
614662c1c31697525616534f,TCR,2024-06-20_15h27.35.790,LearnStrategy,2023.2.3,MacIntel,58.82352941,7,1,8,0.161728395,-0.003703704,1,0,0,1.344,rock_grid_rect_2,3,10,-1,-1,1.344,0.166666667,-0.240740741,1,0,0,2.777,Diorite_rect,3,2.777,1,7,0,7,0,1,,,,,,,,,,,,,
614662c1c31697525616534f,TCR,2024-06-20_15h27.35.790,LearnStrategy,2023.2.3,MacIntel,58.82352941,7,1,9,0.164197531,-0.008641975,1,0,0,1.047,rock_grid_rect_2,2,09,-1,-1,1.047,-0.062962963,-0.25308642,1,0,0,1.444,Basalt_rect,2,1.444,1,8,0,8,0,1,,,,,,,,,,,,,
614662c1c31697525616534f,TCR,2024-06-20_15h27.35.790,LearnStrategy,2023.2.3,MacIntel,58.82352941,7,1,10,0.155555556,-0.003703704,1,0,0,1.053,rock_grid_rect_2,8,06,-1,-1,1.053,0.42962963,-0.403703704,1,0,0,1.876,Pumice_rect,8,1.876,1,9,0,9,0,1,,,,,,,,,,,,,
614662c1c31697525616534f,TCR,2024-06-20_15h27.35.790,LearnStrategy,2023.2.3,MacIntel,58.82352941,7,1,11,0.186419753,-0.00617284,1,0,0,1.095,rock_grid_rect_2,4,14,-1,-1,1.095,0.435802469,-0.245679012,1,0,0,1.713,Gabbro_rect,4,1.713,1,10,0,10,0,1,,,,,,,,,,,,,
614662c1c31697525616534f,TCR,2024-06-20_15h27.35.790,LearnStrategy,2023.2.3,MacIntel,58.82352941,7,1,12,0.174074074,0.012345679,1,0,0,1.199,rock_grid_rect_2,3,14,-1,-1,1.199,0.171604938,-0.261728395,1,0,0,1.728,Diorite_rect,3,1.728,1,11,0,11,0,1,,,,,,,,,,,,,
614662c1c31697525616534f,TCR,2024-06-20_15h27.35.790,LearnStrategy,2023.2.3,MacIntel,58.82352941,7,1,13,0.154320988,0.014814815,1,0,0,1.046,rock_grid_rect_2,3,10,-1,-1,1.046,-0.374074074,-0.265432099,1,0,0,3.077,Andesite_rect,1,3.077,0,12,0,12,0,1,,,,,,,,,,,,,
614662c1c31697525616534f,TCR,2024-06-20_15h27.35.790,LearnStrategy,2023.2.3,MacIntel,58.82352941,7,1,14,0.17037037,0,1,0,0,1.385,rock_grid_rect_2,8,16,-1,-1,1.385,-0.055555556,-0.271604938,1,0,0,3.705,Basalt_rect,2,3.705,0,13,0,13,0,1,,,,,,,,,,,,,
614662c1c31697525616534f,TCR,2024-06-20_15h27.35.790,LearnStrategy,2023.2.3,MacIntel,58.82352941,7,1,15,0.17037037,-0.013580247,1,0,0,1.418,rock_grid_rect_2,6,10,-1,-1,1.418,0.161728395,-0.4,1,0,0,2.893,Peridotite_rect,7,2.893,0,14,0,14,0,1,,,,,,,,,,,,,
614662c1c31697525616534f,TCR,2024-06-20_15h27.35.790,LearnStrategy,2023.2.3,MacIntel,58.82352941,7,1,16,0.164197531,-0.02345679,1,0,0,1.83,rock_grid_rect_2,4,01,-1,-1,1.83,0.419753086,-0.269135802,1,0,0,2.33,Gabbro_rect,4,2.33,1,15,0,15,0,1,,,,,,,,,,,,,
614662c1c31697525616534f,TCR,2024-06-20_15h27.35.790,LearnStrategy,2023.2.3,MacIntel,58.82352941,7,2,1,,,,,,,,6,03,,,,,,,,,,,7,4.558,0,,,,,,0.166666667,-0.412345679,1,0,0,4.558,Peridotite_rect,0,0,0,0,1,
614662c1c31697525616534f,TCR,2024-06-20_15h27.35.790,LearnStrategy,2023.2.3,MacIntel,58.82352941,7,2,2,,,,,,,,1,09,,,,,,,,,,,1,4.547,1,,,,,,-0.351851852,-0.251851852,1,0,0,4.547,Andesite_rect,1,0,1,0,1,
614662c1c31697525616534f,TCR,2024-06-20_15h27.35.790,LearnStrategy,2023.2.3,MacIntel,58.82352941,7,2,3,,,,,,,,2,11,,,,,,,,,,,3,3.658,0,,,,,,0.164197531,-0.240740741,1,0,0,3.658,Diorite_rect,2,0,2,0,1,
614662c1c31697525616534f,TCR,2024-06-20_15h27.35.790,LearnStrategy,2023.2.3,MacIntel,58.82352941,7,2,4,,,,,,,,3,02,,,,,,,,,,,3,6.383,1,,,,,,0.208641975,-0.258024691,1,0,0,6.383,Diorite_rect,3,0,3,0,1,
614662c1c31697525616534f,TCR,2024-06-20_15h27.35.790,LearnStrategy,2023.2.3,MacIntel,58.82352941,7,2,5,,,,,,,,6,09,,,,,,,,,,,6,2.42,1,,,,,,-0.082716049,-0.409876543,1,0,0,2.42,Pegmatite_rect,4,0,4,0,1,
614662c1c31697525616534f,TCR,2024-06-20_15h27.35.790,LearnStrategy,2023.2.3,MacIntel,58.82352941,7,2,6,,,,,,,,5,06,,,,,,,,,,,5,1.16,1,,,,,,-0.349382716,-0.414814815,1,0,0,1.16,Obsidian_rect,5,0,5,0,1,
614662c1c31697525616534f,TCR,2024-06-20_15h27.35.790,LearnStrategy,2023.2.3,MacIntel,58.82352941,7,2,7,,,,,,,,5,07,,,,,,,,,,,5,1.14,1,,,,,,-0.355555556,-0.412345679,1,0,0,1.14,Obsidian_rect,6,0,6,0,1,
614662c1c31697525616534f,TCR,2024-06-20_15h27.35.790,LearnStrategy,2023.2.3,MacIntel,58.82352941,7,2,8,,,,,,,,4,03,,,,,,,,,,,3,3.037,0,,,,,,0.195061728,-0.259259259,1,0,0,3.037,Diorite_rect,7,0,7,0,1,
614662c1c31697525616534f,TCR,2024-06-20_15h27.35.790,LearnStrategy,2023.2.3,MacIntel,58.82352941,7,2,9,,,,,,,,8,10,,,,,,,,,,,4,1.841,0,,,,,,0.456790123,-0.251851852,1,0,0,1.841,Gabbro_rect,8,0,8,0,1,
614662c1c31697525616534f,TCR,2024-06-20_15h27.35.790,LearnStrategy,2023.2.3,MacIntel,58.82352941,7,2,10,,,,,,,,4,11,,,,,,,,,,,2,3.172,0,,,,,,-0.064197531,-0.259259259,1,0,0,3.172,Basalt_rect,9,0,9,0,1,
614662c1c31697525616534f,TCR,2024-06-20_15h27.35.790,LearnStrategy,2023.2.3,MacIntel,58.82352941,7,2,11,,,,,,,,3,12,,,,,,,,,,,4,2.843,0,,,,,,0.390123457,-0.251851852,1,0,0,2.843,Gabbro_rect,10,0,10,0,1,
614662c1c31697525616534f,TCR,2024-06-20_15h27.35.790,LearnStrategy,2023.2.3,MacIntel,58.82352941,7,2,12,,,,,,,,2,16,,,,,,,,,,,1,3.793,0,,,,,,-0.343209877,-0.259259259,1,0,0,3.793,Andesite_rect,11,0,11,0,1,
614662c1c31697525616534f,TCR,2024-06-20_15h27.35.790,LearnStrategy,2023.2.3,MacIntel,58.82352941,7,2,13,,,,,,,,1,05,,,,,,,,,,,3,1.253,0,,,,,,0.192592593,-0.251851852,1,0,0,1.253,Diorite_rect,12,0,12,0,1,
614662c1c31697525616534f,TCR,2024-06-20_15h27.35.790,LearnStrategy,2023.2.3,MacIntel,58.82352941,7,2,14,,,,,,,,8,08,,,,,,,,,,,2,5.062,0,,,,,,-0.061728395,-0.264197531,1,0,0,5.062,Basalt_rect,13,0,13,0,1,
614662c1c31697525616534f,TCR,2024-06-20_15h27.35.790,LearnStrategy,2023.2.3,MacIntel,58.82352941,7,2,15,,,,,,,,7,05,,,,,,,,,,,7,3.673,1,,,,,,0.169135802,-0.409876543,1,0,0,3.673,Peridotite_rect,14,0,14,0,1,
614662c1c31697525616534f,TCR,2024-06-20_15h27.35.790,LearnStrategy,2023.2.3,MacIntel,58.82352941,7,2,16,,,,,,,,7,15,,,,,,,,,,,7,3.533,1,,,,,,0.177777778,-0.408641975,1,0,0,3.533,Peridotite_rect,15,0,15,0,1,
614662c1c31697525616534f,TCR,2024-06-20_15h27.35.790,LearnStrategy,2023.2.3,MacIntel,58.82352941,8,1,1,0.138271605,0.00617284,1,0,0,1.452,rock_grid_rect_2,4,05,-1,-1,1.452,0.42962963,-0.24691358,1,0,0,2.41,Gabbro_rect,4,2.41,1,0,0,0,0,1,,,,,,,,,,,,,
614662c1c31697525616534f,TCR,2024-06-20_15h27.35.790,LearnStrategy,2023.2.3,MacIntel,58.82352941,8,1,2,0.158024691,0.003703704,1,0,0,1.132,rock_grid_rect_2,3,11,-1,-1,1.132,-0.322222222,-0.261728395,1,0,0,2.428,Andesite_rect,1,2.428,0,1,0,1,0,1,,,,,,,,,,,,,
614662c1c31697525616534f,TCR,2024-06-20_15h27.35.790,LearnStrategy,2023.2.3,MacIntel,58.82352941,8,1,3,0.156790123,-0.00617284,1,0,0,1.027,rock_grid_rect_2,6,16,-1,-1,1.027,-0.104938272,-0.416049383,1,0,0,2.493,Pegmatite_rect,6,2.493,1,2,0,2,0,1,,,,,,,,,,,,,
614662c1c31697525616534f,TCR,2024-06-20_15h27.35.790,LearnStrategy,2023.2.3,MacIntel,58.82352941,8,1,4,0.167901235,0.019753086,1,0,0,1.281,rock_grid_rect_2,1,11,-1,-1,1.281,0.198765432,-0.258024691,1,0,0,1.393,Diorite_rect,3,1.393,0,3,0,3,0,1,,,,,,,,,,,,,
614662c1c31697525616534f,TCR,2024-06-20_15h27.35.790,LearnStrategy,2023.2.3,MacIntel,58.82352941,8,1,5,0.167901235,-0.008641975,1,0,0,0.94,rock_grid_rect_2,8,16,-1,-1,0.94,0.413580247,-0.243209877,1,0,0,3.176,Gabbro_rect,4,3.176,0,4,0,4,0,1,,,,,,,,,,,,,
614662c1c31697525616534f,TCR,2024-06-20_15h27.35.790,LearnStrategy,2023.2.3,MacIntel,58.82352941,8,1,6,0.156790123,0.002469136,1,0,0,0.924,rock_grid_rect_2,2,05,-1,-1,0.924,-0.325925926,-0.250617284,1,0,0,3.321,Andesite_rect,1,3.321,0,5,0,5,0,1,,,,,,,,,,,,,
614662c1c31697525616534f,TCR,2024-06-20_15h27.35.790,LearnStrategy,2023.2.3,MacIntel,58.82352941,8,1,7,0.161728395,-0.00617284,1,0,0,0.981,rock_grid_rect_2,1,16,-1,-1,0.981,0.435802469,-0.261728395,1,0,0,2.546,Gabbro_rect,4,2.546,0,6,0,6,0,1,,,,,,,,,,,,,
614662c1c31697525616534f,TCR,2024-06-20_15h27.35.790,LearnStrategy,2023.2.3,MacIntel,58.82352941,8,1,8,0.17037037,-0.002469136,1,0,0,0.874,rock_grid_rect_2,4,16,-1,-1,0.874,-0.079012346,-0.256790123,1,0,0,1.573,Basalt_rect,2,1.573,0,7,0,7,0,1,,,,,,,,,,,,,
614662c1c31697525616534f,TCR,2024-06-20_15h27.35.790,LearnStrategy,2023.2.3,MacIntel,58.82352941,8,1,9,0.156790123,-0.004938272,1,0,0,5.999,rock_grid_rect_2,1,04,-1,-1,5.999,0.387654321,-0.255555556,1,0,0,2.609,Gabbro_rect,4,2.609,0,8,0,8,0,1,,,,,,,,,,,,,
614662c1c31697525616534f,TCR,2024-06-20_15h27.35.790,LearnStrategy,2023.2.3,MacIntel,58.82352941,8,1,10,0.161728395,-0.012345679,1,0,0,1.03,rock_grid_rect_2,3,07,-1,-1,1.03,0.159259259,-0.258024691,1,0,0,1.135,Diorite_rect,3,1.135,1,9,0,9,0,1,,,,,,,,,,,,,
614662c1c31697525616534f,TCR,2024-06-20_15h27.35.790,LearnStrategy,2023.2.3,MacIntel,58.82352941,8,1,11,0.165432099,0.004938272,1,0,0,1.464,rock_grid_rect_2,8,15,-1,-1,1.464,0.171604938,-0.256790123,1,0,0,2.785,Diorite_rect,3,2.785,0,10,0,10,0,1,,,,,,,,,,,,,
614662c1c31697525616534f,TCR,2024-06-20_15h27.35.790,LearnStrategy,2023.2.3,MacIntel,58.82352941,8,1,12,0.159259259,-0.007407407,1,0,0,3.199,rock_grid_rect_2,2,08,-1,-1,3.199,-0.340740741,-0.269135802,1,0,0,3.488,Andesite_rect,1,3.488,0,11,0,11,0,1,,,,,,,,,,,,,
614662c1c31697525616534f,TCR,2024-06-20_15h27.35.790,LearnStrategy,2023.2.3,MacIntel,58.82352941,8,1,13,0.155555556,0.002469136,1,0,0,1.013,rock_grid_rect_2,4,08,-1,-1,1.013,0.177777778,-0.259259259,1,0,0,1.079,Diorite_rect,3,1.079,0,12,0,12,0,1,,,,,,,,,,,,,
614662c1c31697525616534f,TCR,2024-06-20_15h27.35.790,LearnStrategy,2023.2.3,MacIntel,58.82352941,8,1,14,0.159259259,0.004938272,1,0,0,1.162,rock_grid_rect_2,6,10,-1,-1,1.162,0.187654321,-0.412345679,1,0,0,6.515,Peridotite_rect,7,6.515,0,13,0,13,0,1,,,,,,,,,,,,,
614662c1c31697525616534f,TCR,2024-06-20_15h27.35.790,LearnStrategy,2023.2.3,MacIntel,58.82352941,8,1,15,0.159259259,-0.009876543,1,0,0,1.131,rock_grid_rect_2,7,10,-1,-1,1.131,-0.074074074,-0.40617284,1,0,0,2.3,Pegmatite_rect,6,2.3,0,14,0,14,0,1,,,,,,,,,,,,,
614662c1c31697525616534f,TCR,2024-06-20_15h27.35.790,LearnStrategy,2023.2.3,MacIntel,58.82352941,8,1,16,0.160493827,-0.008641975,1,0,0,1.218,rock_grid_rect_2,2,14,-1,-1,1.218,0.414814815,-0.254320988,1,0,0,1.644,Gabbro_rect,4,1.644,0,15,0,15,0,1,,,,,,,,,,,,,
614662c1c31697525616534f,TCR,2024-06-20_15h27.35.790,LearnStrategy,2023.2.3,MacIntel,58.82352941,8,2,1,,,,,,,,4,10,,,,,,,,,,,4,4.744,1,,,,,,0.448148148,-0.256790123,1,0,0,4.744,Gabbro_rect,0,0,0,0,1,
614662c1c31697525616534f,TCR,2024-06-20_15h27.35.790,LearnStrategy,2023.2.3,MacIntel,58.82352941,8,2,2,,,,,,,,7,04,,,,,,,,,,,1,5.374,0,,,,,,-0.339506173,-0.24691358,1,0,0,5.374,Andesite_rect,1,0,1,0,1,
614662c1c31697525616534f,TCR,2024-06-20_15h27.35.790,LearnStrategy,2023.2.3,MacIntel,58.82352941,8,2,3,,,,,,,,2,06,,,,,,,,,,,4,2.89,0,,,,,,0.380246914,-0.235802469,1,0,0,2.89,Gabbro_rect,2,0,2,0,1,
614662c1c31697525616534f,TCR,2024-06-20_15h27.35.790,LearnStrategy,2023.2.3,MacIntel,58.82352941,8,2,4,,,,,,,,6,08,,,,,,,,,,,6,3.256,1,,,,,,-0.061728395,-0.411111111,1,0,0,3.256,Pegmatite_rect,3,0,3,0,1,
614662c1c31697525616534f,TCR,2024-06-20_15h27.35.790,LearnStrategy,2023.2.3,MacIntel,58.82352941,8,2,5,,,,,,,,6,15,,,,,,,,,,,6,1.175,1,,,,,,-0.087654321,-0.413580247,1,0,0,1.175,Pegmatite_rect,4,0,4,0,1,
614662c1c31697525616534f,TCR,2024-06-20_15h27.35.790,LearnStrategy,2023.2.3,MacIntel,58.82352941,8,2,6,,,,,,,,3,08,,,,,,,,,,,3,1.452,1,,,,,,0.125925926,-0.249382716,1,0,0,1.452,Diorite_rect,5,0,5,0,1,
614662c1c31697525616534f,TCR,2024-06-20_15h27.35.790,LearnStrategy,2023.2.3,MacIntel,58.82352941,8,2,7,,,,,,,,4,15,,,,,,,,,,,4,3.164,1,,,,,,0.383950617,-0.233333333,1,0,0,3.164,Gabbro_rect,6,0,6,0,1,
614662c1c31697525616534f,TCR,2024-06-20_15h27.35.790,LearnStrategy,2023.2.3,MacIntel,58.82352941,8,2,8,,,,,,,,1,03,,,,,,,,,,,2,1.051,0,,,,,,-0.102469136,-0.258024691,1,0,0,1.051,Basalt_rect,7,0,7,0,1,
614662c1c31697525616534f,TCR,2024-06-20_15h27.35.790,LearnStrategy,2023.2.3,MacIntel,58.82352941,8,2,9,,,,,,,,7,13,,,,,,,,,,,7,2.26,1,,,,,,0.144444444,-0.401234568,1,0,0,2.26,Peridotite_rect,8,0,8,0,1,
614662c1c31697525616534f,TCR,2024-06-20_15h27.35.790,LearnStrategy,2023.2.3,MacIntel,58.82352941,8,2,10,,,,,,,,5,10,,,,,,,,,,,5,1.264,1,,,,,,-0.34691358,-0.416049383,1,0,0,1.264,Obsidian_rect,9,0,9,0,1,
614662c1c31697525616534f,TCR,2024-06-20_15h27.35.790,LearnStrategy,2023.2.3,MacIntel,58.82352941,8,2,11,,,,,,,,3,16,,,,,,,,,,,1,1.633,0,,,,,,-0.337037037,-0.255555556,1,0,0,1.633,Andesite_rect,10,0,10,0,1,
614662c1c31697525616534f,TCR,2024-06-20_15h27.35.790,LearnStrategy,2023.2.3,MacIntel,58.82352941,8,2,12,,,,,,,,5,05,,,,,,,,,,,5,2.573,1,,,,,,-0.335802469,-0.39382716,1,0,0,2.573,Obsidian_rect,11,0,11,0,1,
614662c1c31697525616534f,TCR,2024-06-20_15h27.35.790,LearnStrategy,2023.2.3,MacIntel,58.82352941,8,2,13,,,,,,,,8,09,,,,,,,,,,,8,3.243,1,,,,,,0.443209877,-0.40617284,1,0,0,3.243,Pumice_rect,12,0,12,0,1,
614662c1c31697525616534f,TCR,2024-06-20_15h27.35.790,LearnStrategy,2023.2.3,MacIntel,58.82352941,8,2,14,,,,,,,,1,07,,,,,,,,,,,4,1.356,0,,,,,,0.385185185,-0.24691358,1,0,0,1.356,Gabbro_rect,13,0,13,0,1,
614662c1c31697525616534f,TCR,2024-06-20_15h27.35.790,LearnStrategy,2023.2.3,MacIntel,58.82352941,8,2,15,,,,,,,,8,04,,,,,,,,,,,2,1.391,0,,,,,,-0.09382716,-0.259259259,1,0,0,1.391,Basalt_rect,14,0,14,0,1,
614662c1c31697525616534f,TCR,2024-06-20_15h27.35.790,LearnStrategy,2023.2.3,MacIntel,58.82352941,8,2,16,,,,,,,,2,04,,,,,,,,,,,1,1.418,0,,,,,,-0.34691358,-0.244444444,1,0,0,1.418,Andesite_rect,15,0,15,0,1,
614662c1c31697525616534f,TCR,2024-06-20_15h27.35.790,LearnStrategy,2023.2.3,MacIntel,58.82352941,9,1,1,0.135802469,-0.001234568,1,0,0,1.275,rock_grid_rect_2,5,12,-1,-1,1.275,-0.314814815,-0.409876543,1,0,0,1.359,Obsidian_rect,5,1.359,1,0,0,0,0,1,,,,,,,,,,,,,
614662c1c31697525616534f,TCR,2024-06-20_15h27.35.790,LearnStrategy,2023.2.3,MacIntel,58.82352941,9,1,2,0.15308642,0.001234568,1,0,0,1.087,rock_grid_rect_2,8,06,-1,-1,1.087,-0.075308642,-0.260493827,1,0,0,2.99,Basalt_rect,2,2.99,0,1,0,1,0,1,,,,,,,,,,,,,
614662c1c31697525616534f,TCR,2024-06-20_15h27.35.790,LearnStrategy,2023.2.3,MacIntel,58.82352941,9,1,3,0.197530864,0,1,0,0,1.176,rock_grid_rect_2,7,10,-1,-1,1.176,0.213580247,-0.403703704,1,0,0,2.017,Peridotite_rect,7,2.017,1,2,0,2,0,1,,,,,,,,,,,,,
614662c1c31697525616534f,TCR,2024-06-20_15h27.35.790,LearnStrategy,2023.2.3,MacIntel,58.82352941,9,1,4,0.15308642,-0.009876543,1,0,0,0.897,rock_grid_rect_2,3,10,-1,-1,0.897,0.424691358,-0.235802469,1,0,0,2.339,Gabbro_rect,4,2.339,0,3,0,3,0,1,,,,,,,,,,,,,
614662c1c31697525616534f,TCR,2024-06-20_15h27.35.790,LearnStrategy,2023.2.3,MacIntel,58.82352941,9,1,5,0.160493827,-0.008641975,1,0,0,0.923,rock_grid_rect_2,4,08,-1,-1,0.923,-0.308641975,-0.244444444,1,0,0,3.619,Andesite_rect,1,3.619,0,4,0,4,0,1,,,,,,,,,,,,,
614662c1c31697525616534f,TCR,2024-06-20_15h27.35.790,LearnStrategy,2023.2.3,MacIntel,58.82352941,9,1,6,0.169135802,-0.014814815,1,0,0,0.827,rock_grid_rect_2,2,05,-1,-1,0.827,-0.07037037,-0.27037037,1,0,0,2.766,Basalt_rect,2,2.766,1,5,0,5,0,1,,,,,,,,,,,,,
614662c1c31697525616534f,TCR,2024-06-20_15h27.35.790,LearnStrategy,2023.2.3,MacIntel,58.82352941,9,1,7,0.158024691,0.002469136,1,0,0,3.007,rock_grid_rect_2,2,08,-1,-1,3.007,-0.051851852,-0.255555556,1,0,0,1.757,Basalt_rect,2,1.757,1,6,0,6,0,1,,,,,,,,,,,,,
614662c1c31697525616534f,TCR,2024-06-20_15h27.35.790,LearnStrategy,2023.2.3,MacIntel,58.82352941,9,1,8,0.172839506,-0.013580247,1,0,0,1.081,rock_grid_rect_2,1,11,-1,-1,1.081,0.427160494,-0.271604938,1,0,0,2.545,Gabbro_rect,4,2.545,0,7,0,7,0,1,,,,,,,,,,,,,
614662c1c31697525616534f,TCR,2024-06-20_15h27.35.790,LearnStrategy,2023.2.3,MacIntel,58.82352941,9,1,9,0.154320988,0.003703704,1,0,0,0.731,rock_grid_rect_2,1,04,-1,-1,0.731,-0.348148148,-0.256790123,1,0,0,8.578,Andesite_rect,1,8.578,1,8,0,8,0,1,,,,,,,,,,,,,
614662c1c31697525616534f,TCR,2024-06-20_15h27.35.790,LearnStrategy,2023.2.3,MacIntel,58.82352941,9,1,10,0.154320988,0.003703704,1,0,0,1.13,rock_grid_rect_2,2,09,-1,-1,1.13,-0.058024691,-0.251851852,1,0,0,2.461,Basalt_rect,2,2.461,1,9,0,9,0,1,,,,,,,,,,,,,
614662c1c31697525616534f,TCR,2024-06-20_15h27.35.790,LearnStrategy,2023.2.3,MacIntel,58.82352941,9,1,11,0.162962963,0.018518519,1,0,0,1.047,rock_grid_rect_2,3,06,-1,-1,1.047,0.458024691,-0.266666667,1,0,0,4.028,Gabbro_rect,4,4.028,0,10,0,10,0,1,,,,,,,,,,,,,
614662c1c31697525616534f,TCR,2024-06-20_15h27.35.790,LearnStrategy,2023.2.3,MacIntel,58.82352941,9,1,12,0.154320988,-0.009876543,1,0,0,0.984,rock_grid_rect_2,4,14,-1,-1,0.984,-0.348148148,-0.234567901,1,0,0,6.906,Andesite_rect,1,6.906,0,11,0,11,0,1,,,,,,,,,,,,,
614662c1c31697525616534f,TCR,2024-06-20_15h27.35.790,LearnStrategy,2023.2.3,MacIntel,58.82352941,9,1,13,0.17037037,-0.002469136,1,0,0,1.055,rock_grid_rect_2,1,16,-1,-1,1.055,0.437037037,-0.265432099,1,0,0,3.852,Gabbro_rect,4,3.852,0,12,0,12,0,1,,,,,,,,,,,,,
614662c1c31697525616534f,TCR,2024-06-20_15h27.35.790,LearnStrategy,2023.2.3,MacIntel,58.82352941,9,1,14,0.172839506,-0.017283951,1,0,0,0.797,rock_grid_rect_2,7,16,-1,-1,0.797,0.207407407,-0.40617284,1,0,0,2.977,Peridotite_rect,7,2.977,1,13,0,13,0,1,,,,,,,,,,,,,
614662c1c31697525616534f,TCR,2024-06-20_15h27.35.790,LearnStrategy,2023.2.3,MacIntel,58.82352941,9,1,15,0.149382716,-0.001234568,1,0,0,1.131,rock_grid_rect_2,6,12,-1,-1,1.131,-0.072839506,-0.408641975,1,0,0,1.728,Pegmatite_rect,6,1.728,1,14,0,14,0,1,,,,,,,,,,,,,
614662c1c31697525616534f,TCR,2024-06-20_15h27.35.790,LearnStrategy,2023.2.3,MacIntel,58.82352941,9,1,16,0.155555556,-0.009876543,1,0,0,1.011,rock_grid_rect_2,8,02,-1,-1,1.011,0.443209877,-0.420987654,1,0,0,2.762,Pumice_rect,8,2.762,1,15,0,15,0,1,,,,,,,,,,,,,
614662c1c31697525616534f,TCR,2024-06-20_15h27.35.790,LearnStrategy,2023.2.3,MacIntel,58.82352941,9,2,1,,,,,,,,3,13,,,,,,,,,,,3,6.89,1,,,,,,0.164197531,-0.24691358,1,0,0,6.89,Diorite_rect,0,0,0,0,1,
614662c1c31697525616534f,TCR,2024-06-20_15h27.35.790,LearnStrategy,2023.2.3,MacIntel,58.82352941,9,2,2,,,,,,,,4,13,,,,,,,,,,,4,1.559,1,,,,,,0.456790123,-0.22962963,1,0,0,1.559,Gabbro_rect,1,0,1,0,1,
614662c1c31697525616534f,TCR,2024-06-20_15h27.35.790,LearnStrategy,2023.2.3,MacIntel,58.82352941,9,2,3,,,,,,,,7,06,,,,,,,,,,,7,4.007,1,,,,,,0.188888889,-0.417283951,1,0,0,4.007,Peridotite_rect,2,0,2,0,1,
614662c1c31697525616534f,TCR,2024-06-20_15h27.35.790,LearnStrategy,2023.2.3,MacIntel,58.82352941,9,2,4,,,,,,,,2,01,,,,,,,,,,,1,1.609,0,,,,,,-0.334567901,-0.254320988,1,0,0,1.609,Andesite_rect,3,0,3,0,1,
614662c1c31697525616534f,TCR,2024-06-20_15h27.35.790,LearnStrategy,2023.2.3,MacIntel,58.82352941,9,2,5,,,,,,,,3,15,,,,,,,,,,,3,3.374,1,,,,,,0.171604938,-0.259259259,1,0,0,3.374,Diorite_rect,4,0,4,0,1,
614662c1c31697525616534f,TCR,2024-06-20_15h27.35.790,LearnStrategy,2023.2.3,MacIntel,58.82352941,9,2,6,,,,,,,,5,16,,,,,,,,,,,5,1.171,1,,,,,,-0.37037037,-0.404938272,1,0,0,1.171,Obsidian_rect,5,0,5,0,1,
614662c1c31697525616534f,TCR,2024-06-20_15h27.35.790,LearnStrategy,2023.2.3,MacIntel,58.82352941,9,2,7,,,,,,,,6,05,,,,,,,,,,,6,2.377,1,,,,,,-0.102469136,-0.40617284,1,0,0,2.377,Pegmatite_rect,6,0,6,0,1,
614662c1c31697525616534f,TCR,2024-06-20_15h27.35.790,LearnStrategy,2023.2.3,MacIntel,58.82352941,9,2,8,,,,,,,,1,06,,,,,,,,,,,4,1.726,0,,,,,,0.430864198,-0.255555556,1,0,0,1.726,Gabbro_rect,7,0,7,0,1,
614662c1c31697525616534f,TCR,2024-06-20_15h27.35.790,LearnStrategy,2023.2.3,MacIntel,58.82352941,9,2,9,,,,,,,,2,12,,,,,,,,,,,8,3.505,0,,,,,,0.418518519,-0.40617284,1,0,0,3.505,Pumice_rect,8,0,8,0,1,
614662c1c31697525616534f,TCR,2024-06-20_15h27.35.790,LearnStrategy,2023.2.3,MacIntel,58.82352941,9,2,10,,,,,,,,4,09,,,,,,,,,,,1,3.549,0,,,,,,-0.366666667,-0.250617284,1,0,0,3.549,Andesite_rect,9,0,9,0,1,
614662c1c31697525616534f,TCR,2024-06-20_15h27.35.790,LearnStrategy,2023.2.3,MacIntel,58.82352941,9,2,11,,,,,,,,8,05,,,,,,,,,,,8,2.917,1,,,,,,0.414814815,-0.392592593,1,0,0,2.917,Pumice_rect,10,0,10,0,1,
614662c1c31697525616534f,TCR,2024-06-20_15h27.35.790,LearnStrategy,2023.2.3,MacIntel,58.82352941,9,2,12,,,,,,,,8,13,,,,,,,,,,,2,1.713,0,,,,,,-0.077777778,-0.250617284,1,0,0,1.713,Basalt_rect,11,0,11,0,1,
614662c1c31697525616534f,TCR,2024-06-20_15h27.35.790,LearnStrategy,2023.2.3,MacIntel,58.82352941,9,2,13,,,,,,,,7,07,,,,,,,,,,,7,4.11,1,,,,,,0.186419753,-0.395061728,1,0,0,4.11,Peridotite_rect,12,0,12,0,1,
614662c1c31697525616534f,TCR,2024-06-20_15h27.35.790,LearnStrategy,2023.2.3,MacIntel,58.82352941,9,2,14,,,,,,,,1,01,,,,,,,,,,,4,1.507,0,,,,,,0.427160494,-0.24691358,1,0,0,1.507,Gabbro_rect,13,0,13,0,1,
614662c1c31697525616534f,TCR,2024-06-20_15h27.35.790,LearnStrategy,2023.2.3,MacIntel,58.82352941,9,2,15,,,,,,,,5,11,,,,,,,,,,,5,1.21,1,,,,,,-0.361728395,-0.397530864,1,0,0,1.21,Obsidian_rect,14,0,14,0,1,
614662c1c31697525616534f,TCR,2024-06-20_15h27.35.790,LearnStrategy,2023.2.3,MacIntel,58.82352941,9,2,16,,,,,,,,6,07,,,,,,,,,,,6,1.262,1,,,,,,-0.097530864,-0.409876543,1,0,0,1.262,Pegmatite_rect,15,0,15,0,1,
614662c1c31697525616534f,TCR,2024-06-20_15h27.35.790,LearnStrategy,2023.2.3,MacIntel,58.82352941,,,,,,,,,,,,,,,,,,,,,,,,,,,,,,,,,,,,,,,,,,,0
614662c1c31697525616534f,TCR,2024-06-20_15h27.35.790,LearnStrategy,2023.2.3,MacIntel,58.82352941,,,,,,,,,,,,,,,,,,,,,,,,,,,,,,,,,,,,,,,,,,,
614662c1c31697525616534f,TCR,2024-06-20_15h27.35.790,LearnStrategy,2023.2.3,MacIntel,58.82352941,,,,,,,,,,,8,06,1,1,,,,,,,,,,,,,,,,,,,,,,,,,,,,,
614662c1c31697525616534f,TCR,2024-06-20_15h27.35.790,LearnStrategy,2023.2.3,MacIntel,58.82352941,,,,,,,,,,,2,02,1,2,,,,,,,,,,,,,,,,,,,,,,,,,,,,,
614662c1c31697525616534f,TCR,2024-06-20_15h27.35.790,LearnStrategy,2023.2.3,MacIntel,58.82352941,,,,,,,,,,,5,12,1,3,,,,,,,,,,,,,,,,,,,,,,,,,,,,,
614662c1c31697525616534f,TCR,2024-06-20_15h27.35.790,LearnStrategy,2023.2.3,MacIntel,58.82352941,,,,,,,,,,,2,14,1,4,,,,,,,,,,,,,,,,,,,,,,,,,,,,,
614662c1c31697525616534f,TCR,2024-06-20_15h27.35.790,LearnStrategy,2023.2.3,MacIntel,58.82352941,,,,,,,,,,,1,10,1,5,,,,,,,,,,,,,,,,,,,,,,,,,,,,,
614662c1c31697525616534f,TCR,2024-06-20_15h27.35.790,LearnStrategy,2023.2.3,MacIntel,58.82352941,,,,,,,,,,,7,16,1,6,,,,,,,,,,,,,,,,,,,,,,,,,,,,,
614662c1c31697525616534f,TCR,2024-06-20_15h27.35.790,LearnStrategy,2023.2.3,MacIntel,58.82352941,,,,,,,,,,,2,09,1,7,,,,,,,,,,,,,,,,,,,,,,,,,,,,,
614662c1c31697525616534f,TCR,2024-06-20_15h27.35.790,LearnStrategy,2023.2.3,MacIntel,58.82352941,,,,,,,,,,,6,06,1,8,,,,,,,,,,,,,,,,,,,,,,,,,,,,,
614662c1c31697525616534f,TCR,2024-06-20_15h27.35.790,LearnStrategy,2023.2.3,MacIntel,58.82352941,,,,,,,,,,,5,04,2,1,,,,,,,,,,,,,,,,,,,,,,,,,,,,,
614662c1c31697525616534f,TCR,2024-06-20_15h27.35.790,LearnStrategy,2023.2.3,MacIntel,58.82352941,,,,,,,,,,,8,02,2,2,,,,,,,,,,,,,,,,,,,,,,,,,,,,,
614662c1c31697525616534f,TCR,2024-06-20_15h27.35.790,LearnStrategy,2023.2.3,MacIntel,58.82352941,,,,,,,,,,,6,13,2,3,,,,,,,,,,,,,,,,,,,,,,,,,,,,,
614662c1c31697525616534f,TCR,2024-06-20_15h27.35.790,LearnStrategy,2023.2.3,MacIntel,58.82352941,,,,,,,,,,,2,10,2,4,,,,,,,,,,,,,,,,,,,,,,,,,,,,,
614662c1c31697525616534f,TCR,2024-06-20_15h27.35.790,LearnStrategy,2023.2.3,MacIntel,58.82352941,,,,,,,,,,,1,11,2,5,,,,,,,,,,,,,,,,,,,,,,,,,,,,,
614662c1c31697525616534f,TCR,2024-06-20_15h27.35.790,LearnStrategy,2023.2.3,MacIntel,58.82352941,,,,,,,,,,,1,16,2,6,,,,,,,,,,,,,,,,,,,,,,,,,,,,,
614662c1c31697525616534f,TCR,2024-06-20_15h27.35.790,LearnStrategy,2023.2.3,MacIntel,58.82352941,,,,,,,,,,,2,05,2,7,,,,,,,,,,,,,,,,,,,,,,,,,,,,,
614662c1c31697525616534f,TCR,2024-06-20_15h27.35.790,LearnStrategy,2023.2.3,MacIntel,58.82352941,,,,,,,,,,,3,10,2,8,,,,,,,,,,,,,,,,,,,,,,,,,,,,,
614662c1c31697525616534f,TCR,2024-06-20_15h27.35.790,LearnStrategy,2023.2.3,MacIntel,58.82352941,,,,,,,,,,,6,11,3,1,,,,,,,,,,,,,,,,,,,,,,,,,,,,,
614662c1c31697525616534f,TCR,2024-06-20_15h27.35.790,LearnStrategy,2023.2.3,MacIntel,58.82352941,,,,,,,,,,,7,14,3,2,,,,,,,,,,,,,,,,,,,,,,,,,,,,,
614662c1c31697525616534f,TCR,2024-06-20_15h27.35.790,LearnStrategy,2023.2.3,MacIntel,58.82352941,,,,,,,,,,,6,12,3,3,,,,,,,,,,,,,,,,,,,,,,,,,,,,,
614662c1c31697525616534f,TCR,2024-06-20_15h27.35.790,LearnStrategy,2023.2.3,MacIntel,58.82352941,,,,,,,,,,,5,08,3,4,,,,,,,,,,,,,,,,,,,,,,,,,,,,,
614662c1c31697525616534f,TCR,2024-06-20_15h27.35.790,LearnStrategy,2023.2.3,MacIntel,58.82352941,,,,,,,,,,,4,01,3,5,,,,,,,,,,,,,,,,,,,,,,,,,,,,,
614662c1c31697525616534f,TCR,2024-06-20_15h27.35.790,LearnStrategy,2023.2.3,MacIntel,58.82352941,,,,,,,,,,,4,16,3,6,,,,,,,,,,,,,,,,,,,,,,,,,,,,,
614662c1c31697525616534f,TCR,2024-06-20_15h27.35.790,LearnStrategy,2023.2.3,MacIntel,58.82352941,,,,,,,,,,,4,08,3,7,,,,,,,,,,,,,,,,,,,,,,,,,,,,,
614662c1c31697525616534f,TCR,2024-06-20_15h27.35.790,LearnStrategy,2023.2.3,MacIntel,58.82352941,,,,,,,,,,,7,12,3,8,,,,,,,,,,,,,,,,,,,,,,,,,,,,,
614662c1c31697525616534f,TCR,2024-06-20_15h27.35.790,LearnStrategy,2023.2.3,MacIntel,58.82352941,,,,,,,,,,,5,09,4,1,,,,,,,,,,,,,,,,,,,,,,,,,,,,,
614662c1c31697525616534f,TCR,2024-06-20_15h27.35.790,LearnStrategy,2023.2.3,MacIntel,58.82352941,,,,,,,,,,,7,10,4,2,,,,,,,,,,,,,,,,,,,,,,,,,,,,,
614662c1c31697525616534f,TCR,2024-06-20_15h27.35.790,LearnStrategy,2023.2.3,MacIntel,58.82352941,,,,,,,,,,,3,14,4,3,,,,,,,,,,,,,,,,,,,,,,,,,,,,,
614662c1c31697525616534f,TCR,2024-06-20_15h27.35.790,LearnStrategy,2023.2.3,MacIntel,58.82352941,,,,,,,,,,,1,04,4,4,,,,,,,,,,,,,,,,,,,,,,,,,,,,,
614662c1c31697525616534f,TCR,2024-06-20_15h27.35.790,LearnStrategy,2023.2.3,MacIntel,58.82352941,,,,,,,,,,,3,11,4,5,,,,,,,,,,,,,,,,,,,,,,,,,,,,,
614662c1c31697525616534f,TCR,2024-06-20_15h27.35.790,LearnStrategy,2023.2.3,MacIntel,58.82352941,,,,,,,,,,,5,14,4,6,,,,,,,,,,,,,,,,,,,,,,,,,,,,,
614662c1c31697525616534f,TCR,2024-06-20_15h27.35.790,LearnStrategy,2023.2.3,MacIntel,58.82352941,,,,,,,,,,,8,16,4,7,,,,,,,,,,,,,,,,,,,,,,,,,,,,,
614662c1c31697525616534f,TCR,2024-06-20_15h27.35.790,LearnStrategy,2023.2.3,MacIntel,58.82352941,,,,,,,,,,,4,12,4,8,,,,,,,,,,,,,,,,,,,,,,,,,,,,,
614662c1c31697525616534f,TCR,2024-06-20_15h27.35.790,LearnStrategy,2023.2.3,MacIntel,58.82352941,,,,,,,,,,,1,14,5,1,,,,,,,,,,,,,,,,,,,,,,,,,,,,,
614662c1c31697525616534f,TCR,2024-06-20_15h27.35.790,LearnStrategy,2023.2.3,MacIntel,58.82352941,,,,,,,,,,,8,03,5,2,,,,,,,,,,,,,,,,,,,,,,,,,,,,,
614662c1c31697525616534f,TCR,2024-06-20_15h27.35.790,LearnStrategy,2023.2.3,MacIntel,58.82352941,,,,,,,,,,,8,15,5,3,,,,,,,,,,,,,,,,,,,,,,,,,,,,,
614662c1c31697525616534f,TCR,2024-06-20_15h27.35.790,LearnStrategy,2023.2.3,MacIntel,58.82352941,,,,,,,,,,,4,14,5,4,,,,,,,,,,,,,,,,,,,,,,,,,,,,,
614662c1c31697525616534f,TCR,2024-06-20_15h27.35.790,LearnStrategy,2023.2.3,MacIntel,58.82352941,,,,,,,,,,,3,07,5,5,,,,,,,,,,,,,,,,,,,,,,,,,,,,,
614662c1c31697525616534f,TCR,2024-06-20_15h27.35.790,LearnStrategy,2023.2.3,MacIntel,58.82352941,,,,,,,,,,,2,08,5,6,,,,,,,,,,,,,,,,,,,,,,,,,,,,,
614662c1c31697525616534f,TCR,2024-06-20_15h27.35.790,LearnStrategy,2023.2.3,MacIntel,58.82352941,,,,,,,,,,,8,14,5,7,,,,,,,,,,,,,,,,,,,,,,,,,,,,,
614662c1c31697525616534f,TCR,2024-06-20_15h27.35.790,LearnStrategy,2023.2.3,MacIntel,58.82352941,,,,,,,,,,,4,05,5,8,,,,,,,,,,,,,,,,,,,,,,,,,,,,,
614662c1c31697525616534f,TCR,2024-06-20_15h27.35.790,LearnStrategy,2023.2.3,MacIntel,58.82352941,,,,,,,,,,,7,08,6,1,,,,,,,,,,,,,,,,,,,,,,,,,,,,,
614662c1c31697525616534f,TCR,2024-06-20_15h27.35.790,LearnStrategy,2023.2.3,MacIntel,58.82352941,,,,,,,,,,,3,06,6,2,,,,,,,,,,,,,,,,,,,,,,,,,,,,,
614662c1c31697525616534f,TCR,2024-06-20_15h27.35.790,LearnStrategy,2023.2.3,MacIntel,58.82352941,,,,,,,,,,,7,02,6,3,,,,,,,,,,,,,,,,,,,,,,,,,,,,,
614662c1c31697525616534f,TCR,2024-06-20_15h27.35.790,LearnStrategy,2023.2.3,MacIntel,58.82352941,,,,,,,,,,,6,10,6,4,,,,,,,,,,,,,,,,,,,,,,,,,,,,,
614662c1c31697525616534f,TCR,2024-06-20_15h27.35.790,LearnStrategy,2023.2.3,MacIntel,58.82352941,,,,,,,,,,,6,16,6,5,,,,,,,,,,,,,,,,,,,,,,,,,,,,,
614662c1c31697525616534f,TCR,2024-06-20_15h27.35.790,LearnStrategy,2023.2.3,MacIntel,58.82352941,,,,,,,,,,,5,02,6,6,,,,,,,,,,,,,,,,,,,,,,,,,,,,,
614662c1c31697525616534f,TCR,2024-06-20_15h27.35.790,LearnStrategy,2023.2.3,MacIntel,58.82352941,,,,,,,,,,,1,02,6,7,,,,,,,,,,,,,,,,,,,,,,,,,,,,,
614662c1c31697525616534f,TCR,2024-06-20_15h27.35.790,LearnStrategy,2023.2.3,MacIntel,58.82352941,,,,,,,,,,,3,09,6,8,,,,,,,,,,,,,,,,,,,,,,,,,,,,,