participant,condition,date,expName,psychopyVersion,OS,frameRate,block,phase,trial,learn_mouse_2.x,learn_mouse_2.y,learn_mouse_2.leftButton,learn_mouse_2.midButton,learn_mouse_2.rightButton,learn_mouse_2.time,learn_mouse_2.clicked_name,cat,token,row,col,t_select,cat_mouse_l.x,cat_mouse_l.y,cat_mouse_l.leftButton,cat_mouse_l.midButton,cat_mouse_l.rightButton,cat_mouse_l.time,cat_mouse_l.clicked_name,resp,t_resp,corr,train_trials.thisRepN,train_trials.thisTrialN,train_trials.thisN,train_trials.thisIndex,train_trials.ran,cat_mouse_t.x,cat_mouse_t.y,cat_mouse_t.leftButton,cat_mouse_t.midButton,cat_mouse_t.rightButton,cat_mouse_t.time,cat_mouse_t.clicked_name,test_trials.thisRepN,test_trials.thisTrialN,test_trials.thisN,test_trials.thisIndex,test_trials.ran
61464fe94ab78bd0f17d0dc0,TCR,2024-06-10_13h57.33.072,LearnStrategy,2023.2.3,Linux x86_64,59.88023952,,,,,,,,,,,,,,,,,,,,,,,,,,,,,,,,,,,,,,,,,,
61464fe94ab78bd0f17d0dc0,TCR,2024-06-10_13h57.33.072,LearnStrategy,2023.2.3,Linux x86_64,59.88023952,1,1,1,0.081364806,-0.003193242,1,0,0,3.2597,rock_grid_rect_2,7,05,-1,-1,3.26,0.332361642,-0.399410552,1,0,0,8.6083,Pumice_rect,8,8.608,0,0,0,0,0,1,,,,,,,,,,,,
61464fe94ab78bd0f17d0dc0,TCR,2024-06-10_13h57.33.072,LearnStrategy,2023.2.3,Linux x86_64,59.88023952,1,1,2,0.098966787,0.003267458,1,0,0,1.5812,rock_grid_rect_2,8,15,-1,-1,1.581,-0.141972287,-0.382355166,1,0,0,3.63,Pegmatite_rect,6,3.63,0,1,0,1,0,1,,,,,,,,,,,,
61464fe94ab78bd0f17d0dc0,TCR,2024-06-10_13h57.33.072,LearnStrategy,2023.2.3,Linux x86_64,59.88023952,1,1,3,0.005536218,0.018719812,1,0,0,2.1484,rock_grid_rect_2,6,03,-1,-1,2.148,-0.189971709,-0.236001028,1,0,0,8.244,Basalt_rect,2,8.244,0,2,0,2,0,1,,,,,,,,,,,,
61464fe94ab78bd0f17d0dc0,TCR,2024-06-10_13h57.33.072,LearnStrategy,2023.2.3,Linux x86_64,59.88023952,1,1,4,0.064632935,0.00896024,1,0,0,1.3397,rock_grid_rect_2,2,01,-1,-1,1.34,-0.430250714,-0.405059814,1,0,0,2.117,Obsidian_rect,5,2.117,0,3,0,3,0,1,,,,,,,,,,,,
61464fe94ab78bd0f17d0dc0,TCR,2024-06-10_13h57.33.072,LearnStrategy,2023.2.3,Linux x86_64,59.88023952,1,1,5,-0.020750377,-0.00746359,1,0,0,1.2721,rock_grid_rect_2,8,02,-1,-1,1.272,0.32370339,-0.421773346,1,0,0,2.7592,Pumice_rect,8,2.759,1,4,0,4,0,1,,,,,,,,,,,,
61464fe94ab78bd0f17d0dc0,TCR,2024-06-10_13h57.33.072,LearnStrategy,2023.2.3,Linux x86_64,59.88023952,1,1,6,0.058445102,-0.017375427,1,0,0,1.8546,rock_grid_rect_2,3,07,-1,-1,1.855,-0.109970881,-0.401224127,1,0,0,4.4744,Pegmatite_rect,6,4.474,0,5,0,5,0,1,,,,,,,,,,,,
61464fe94ab78bd0f17d0dc0,TCR,2024-06-10_13h57.33.072,LearnStrategy,2023.2.3,Linux x86_64,59.88023952,1,1,7,0.03677798,0.01004168,1,0,0,1.6368,rock_grid_rect_2,6,11,-1,-1,1.637,-0.108850828,-0.402280351,1,0,0,4.456,Pegmatite_rect,6,4.456,1,6,0,6,0,1,,,,,,,,,,,,
61464fe94ab78bd0f17d0dc0,TCR,2024-06-10_13h57.33.072,LearnStrategy,2023.2.3,Linux x86_64,59.88023952,1,1,8,-0.038525147,0.001777327,1,0,0,1.4432,rock_grid_rect_2,7,06,-1,-1,1.443,0.098150262,-0.254530284,1,0,0,5.7319,Diorite_rect,3,5.732,0,7,0,7,0,1,,,,,,,,,,,,
61464fe94ab78bd0f17d0dc0,TCR,2024-06-10_13h57.33.072,LearnStrategy,2023.2.3,Linux x86_64,59.88023952,1,1,9,0.006328529,-0.023058144,1,0,0,1.4183,rock_grid_rect_2,5,14,-1,-1,1.418,-0.341783085,-0.408911405,1,0,0,2.7693,Obsidian_rect,5,2.769,1,8,0,8,0,1,,,,,,,,,,,,
61464fe94ab78bd0f17d0dc0,TCR,2024-06-10_13h57.33.072,LearnStrategy,2023.2.3,Linux x86_64,59.88023952,1,1,10,-0.022978877,0.001209886,1,0,0,1.2065,rock_grid_rect_2,1,09,-1,-1,1.207,-0.361985148,-0.239653108,1,0,0,1.9315,Andesite_rect,1,1.932,1,9,0,9,0,1,,,,,,,,,,,,
61464fe94ab78bd0f17d0dc0,TCR,2024-06-10_13h57.33.072,LearnStrategy,2023.2.3,Linux x86_64,59.88023952,1,1,11,-0.026900744,0.000697248,1,0,0,1.1063,rock_grid_rect_2,2,09,-1,-1,1.106,-0.353795047,-0.389972812,1,0,0,5.1367,Obsidian_rect,5,5.137,0,10,0,10,0,1,,,,,,,,,,,,
61464fe94ab78bd0f17d0dc0,TCR,2024-06-10_13h57.33.072,LearnStrategy,2023.2.3,Linux x86_64,59.88023952,1,1,12,0.019983139,0.015376346,1,0,0,1.3084,rock_grid_rect_2,4,08,-1,-1,1.308,-0.119034028,-0.259761542,1,0,0,4.7692,Basalt_rect,2,4.769,0,11,0,11,0,1,,,,,,,,,,,,
61464fe94ab78bd0f17d0dc0,TCR,2024-06-10_13h57.33.072,LearnStrategy,2023.2.3,Linux x86_64,59.88023952,1,1,13,-0.01064254,-0.013422827,1,0,0,1.6894,rock_grid_rect_2,3,16,-1,-1,1.689,0.331975516,-0.243200669,1,0,0,5.7423,Gabbro_rect,4,5.742,0,12,0,12,0,1,,,,,,,,,,,,
61464fe94ab78bd0f17d0dc0,TCR,2024-06-10_13h57.33.072,LearnStrategy,2023.2.3,Linux x86_64,59.88023952,1,1,14,-0.015323478,-0.016703324,1,0,0,2.1168,rock_grid_rect_2,4,01,-1,-1,2.117,0.13774947,-0.403018002,1,0,0,4.8672,Peridotite_rect,7,4.867,0,13,0,13,0,1,,,,,,,,,,,,
61464fe94ab78bd0f17d0dc0,TCR,2024-06-10_13h57.33.072,LearnStrategy,2023.2.3,Linux x86_64,59.88023952,1,1,15,-0.03854628,-0.000242063,1,0,0,1.9064,rock_grid_rect_2,5,07,-1,-1,1.906,-0.374867542,-0.401437536,1,0,0,1.8581,Obsidian_rect,5,1.858,1,14,0,14,0,1,,,,,,,,,,,,
61464fe94ab78bd0f17d0dc0,TCR,2024-06-10_13h57.33.072,LearnStrategy,2023.2.3,Linux x86_64,59.88023952,1,1,16,-0.008264748,-0.008060509,1,0,0,1.1424,rock_grid_rect_2,1,03,-1,-1,1.142,-0.401473462,-0.234901249,1,0,0,7.3434,Andesite_rect,1,7.343,1,15,0,15,0,1,,,,,,,,,,,,
61464fe94ab78bd0f17d0dc0,TCR,2024-06-10_13h57.33.072,LearnStrategy,2023.2.3,Linux x86_64,59.88023952,1,2,1,,,,,,,,5,09,,,,,,,,,,,5,1.786,1,,,,,,-0.355220562,-0.388580179,1,0,0,1.7861,Obsidian_rect,0,0,0,0,1
61464fe94ab78bd0f17d0dc0,TCR,2024-06-10_13h57.33.072,LearnStrategy,2023.2.3,Linux x86_64,59.88023952,1,2,2,,,,,,,,7,12,,,,,,,,,,,4,69.124,0,,,,,,0.342551361,-0.253028046,1,0,0,69.1244,Gabbro_rect,1,0,1,0,1
61464fe94ab78bd0f17d0dc0,TCR,2024-06-10_13h57.33.072,LearnStrategy,2023.2.3,Linux x86_64,59.88023952,1,2,3,,,,,,,,1,04,,,,,,,,,,,4,10.713,0,,,,,,0.382061166,-0.252796585,1,0,0,10.7126,Gabbro_rect,2,0,2,0,1
61464fe94ab78bd0f17d0dc0,TCR,2024-06-10_13h57.33.072,LearnStrategy,2023.2.3,Linux x86_64,59.88023952,1,2,4,,,,,,,,3,06,,,,,,,,,,,3,6.829,1,,,,,,0.194699713,-0.258030851,1,0,0,6.8293,Diorite_rect,3,0,3,0,1
61464fe94ab78bd0f17d0dc0,TCR,2024-06-10_13h57.33.072,LearnStrategy,2023.2.3,Linux x86_64,59.88023952,1,2,5,,,,,,,,6,15,,,,,,,,,,,6,70.729,1,,,,,,-0.132044044,-0.401084792,1,0,0,70.7289,Pegmatite_rect,4,0,4,0,1
61464fe94ab78bd0f17d0dc0,TCR,2024-06-10_13h57.33.072,LearnStrategy,2023.2.3,Linux x86_64,59.88023952,1,2,6,,,,,,,,4,09,,,,,,,,,,,2,3.66,0,,,,,,-0.057030118,-0.240927826,1,0,0,3.6596,Basalt_rect,5,0,5,0,1
61464fe94ab78bd0f17d0dc0,TCR,2024-06-10_13h57.33.072,LearnStrategy,2023.2.3,Linux x86_64,59.88023952,1,2,7,,,,,,,,5,12,,,,,,,,,,,5,1.768,1,,,,,,-0.436639634,-0.402328491,1,0,0,1.7678,Obsidian_rect,6,0,6,0,1
61464fe94ab78bd0f17d0dc0,TCR,2024-06-10_13h57.33.072,LearnStrategy,2023.2.3,Linux x86_64,59.88023952,1,2,8,,,,,,,,8,09,,,,,,,,,,,8,1.786,1,,,,,,0.337677575,-0.403921065,1,0,0,1.7856,Pumice_rect,7,0,7,0,1
61464fe94ab78bd0f17d0dc0,TCR,2024-06-10_13h57.33.072,LearnStrategy,2023.2.3,Linux x86_64,59.88023952,1,2,9,,,,,,,,3,02,,,,,,,,,,,4,3.802,0,,,,,,0.3998138,-0.243456344,1,0,0,3.8016,Gabbro_rect,8,0,8,0,1
61464fe94ab78bd0f17d0dc0,TCR,2024-06-10_13h57.33.072,LearnStrategy,2023.2.3,Linux x86_64,59.88023952,1,2,10,,,,,,,,8,13,,,,,,,,,,,8,4.47,1,,,,,,0.394694297,-0.395051696,1,0,0,4.4696,Pumice_rect,9,0,9,0,1
61464fe94ab78bd0f17d0dc0,TCR,2024-06-10_13h57.33.072,LearnStrategy,2023.2.3,Linux x86_64,59.88023952,1,2,11,,,,,,,,7,02,,,,,,,,,,,1,4.613,0,,,,,,-0.394444712,-0.23995549,1,0,0,4.6126,Andesite_rect,10,0,10,0,1
61464fe94ab78bd0f17d0dc0,TCR,2024-06-10_13h57.33.072,LearnStrategy,2023.2.3,Linux x86_64,59.88023952,1,2,12,,,,,,,,2,08,,,,,,,,,,,5,2.704,0,,,,,,-0.363518299,-0.391877152,1,0,0,2.7035,Obsidian_rect,11,0,11,0,1
61464fe94ab78bd0f17d0dc0,TCR,2024-06-10_13h57.33.072,LearnStrategy,2023.2.3,Linux x86_64,59.88023952,1,2,13,,,,,,,,2,16,,,,,,,,,,,7,4.811,0,,,,,,0.08570869,-0.393517723,1,0,0,4.8111,Peridotite_rect,12,0,12,0,1
61464fe94ab78bd0f17d0dc0,TCR,2024-06-10_13h57.33.072,LearnStrategy,2023.2.3,Linux x86_64,59.88023952,1,2,14,,,,,,,,6,16,,,,,,,,,,,8,2.784,0,,,,,,0.349635594,-0.392277821,1,0,0,2.7839,Pumice_rect,13,0,13,0,1
61464fe94ab78bd0f17d0dc0,TCR,2024-06-10_13h57.33.072,LearnStrategy,2023.2.3,Linux x86_64,59.88023952,1,2,15,,,,,,,,4,15,,,,,,,,,,,4,3.145,1,,,,,,0.439047943,-0.243054027,1,0,0,3.1447,Gabbro_rect,14,0,14,0,1
61464fe94ab78bd0f17d0dc0,TCR,2024-06-10_13h57.33.072,LearnStrategy,2023.2.3,Linux x86_64,59.88023952,1,2,16,,,,,,,,1,05,,,,,,,,,,,1,3.219,1,,,,,,-0.349133738,-0.230436083,1,0,0,3.2192,Andesite_rect,15,0,15,0,1
61464fe94ab78bd0f17d0dc0,TCR,2024-06-10_13h57.33.072,LearnStrategy,2023.2.3,Linux x86_64,59.88023952,2,1,1,0.095185831,-0.011693247,1,0,0,2.4074,rock_grid_rect_2,7,13,-1,-1,2.407,0.144224212,-0.391377337,1,0,0,38.15,Peridotite_rect,7,38.15,1,0,0,0,0,1,,,,,,,,,,,,
61464fe94ab78bd0f17d0dc0,TCR,2024-06-10_13h57.33.072,LearnStrategy,2023.2.3,Linux x86_64,59.88023952,2,1,2,0.000971691,0.005445239,1,0,0,1.6907,rock_grid_rect_2,4,03,-1,-1,1.691,-0.379843591,-0.26595224,1,0,0,28.5899,Andesite_rect,1,28.59,0,1,0,1,0,1,,,,,,,,,,,,
61464fe94ab78bd0f17d0dc0,TCR,2024-06-10_13h57.33.072,LearnStrategy,2023.2.3,Linux x86_64,59.88023952,2,1,3,-0.018284542,-0.016429095,1,0,0,1.8883,rock_grid_rect_2,4,01,-1,-1,1.888,0.361179549,-0.249588586,1,0,0,2.441,Gabbro_rect,4,2.441,1,2,0,2,0,1,,,,,,,,,,,,
61464fe94ab78bd0f17d0dc0,TCR,2024-06-10_13h57.33.072,LearnStrategy,2023.2.3,Linux x86_64,59.88023952,2,1,4,0.074737119,-0.003120924,1,0,0,1.322,rock_grid_rect_2,3,07,-1,-1,1.322,0.372901164,-0.383929973,1,0,0,3.9925,Pumice_rect,8,3.993,0,3,0,3,0,1,,,,,,,,,,,,
61464fe94ab78bd0f17d0dc0,TCR,2024-06-10_13h57.33.072,LearnStrategy,2023.2.3,Linux x86_64,59.88023952,2,1,5,-0.021155416,-0.012514034,1,0,0,1.7449,rock_grid_rect_2,8,08,-1,-1,1.745,0.407795651,-0.390932038,1,0,0,2.5896,Pumice_rect,8,2.59,1,4,0,4,0,1,,,,,,,,,,,,
61464fe94ab78bd0f17d0dc0,TCR,2024-06-10_13h57.33.072,LearnStrategy,2023.2.3,Linux x86_64,59.88023952,2,1,6,-0.065517945,-0.007478132,1,0,0,1.5389,rock_grid_rect_2,7,13,-1,-1,1.539,0.128398125,-0.407520276,1,0,0,5.275,Peridotite_rect,7,5.275,1,5,0,5,0,1,,,,,,,,,,,,
61464fe94ab78bd0f17d0dc0,TCR,2024-06-10_13h57.33.072,LearnStrategy,2023.2.3,Linux x86_64,59.88023952,2,1,7,-0.009512601,0.007934355,1,0,0,1.6347,rock_grid_rect_2,2,09,-1,-1,1.635,-0.127901319,-0.230703649,1,0,0,3.4506,Basalt_rect,2,3.451,1,6,0,6,0,1,,,,,,,,,,,,
61464fe94ab78bd0f17d0dc0,TCR,2024-06-10_13h57.33.072,LearnStrategy,2023.2.3,Linux x86_64,59.88023952,2,1,8,-0.050155998,0.009890418,1,0,0,1.6844,rock_grid_rect_2,6,11,-1,-1,1.684,-0.367080223,-0.407166315,1,0,0,3.6889,Obsidian_rect,5,3.689,0,7,0,7,0,1,,,,,,,,,,,,
61464fe94ab78bd0f17d0dc0,TCR,2024-06-10_13h57.33.072,LearnStrategy,2023.2.3,Linux x86_64,59.88023952,2,1,9,0.069496334,-0.000505904,1,0,0,1.389,rock_grid_rect_2,6,08,-1,-1,1.389,-0.112674552,-0.383495205,1,0,0,3.5218,Pegmatite_rect,6,3.522,1,8,0,8,0,1,,,,,,,,,,,,
61464fe94ab78bd0f17d0dc0,TCR,2024-06-10_13h57.33.072,LearnStrategy,2023.2.3,Linux x86_64,59.88023952,2,1,10,-0.024285115,-0.004662312,1,0,0,1.3224,rock_grid_rect_2,1,06,-1,-1,1.322,0.377651161,-0.231698408,1,0,0,3.481,Gabbro_rect,4,3.481,0,9,0,9,0,1,,,,,,,,,,,,
61464fe94ab78bd0f17d0dc0,TCR,2024-06-10_13h57.33.072,LearnStrategy,2023.2.3,Linux x86_64,59.88023952,2,1,11,0.042594516,-0.002523933,1,0,0,1.3562,rock_grid_rect_2,3,15,-1,-1,1.356,0.369557269,-0.230660094,1,0,0,2.4268,Gabbro_rect,4,2.427,0,10,0,10,0,1,,,,,,,,,,,,
61464fe94ab78bd0f17d0dc0,TCR,2024-06-10_13h57.33.072,LearnStrategy,2023.2.3,Linux x86_64,59.88023952,2,1,12,-0.047381764,0.009163906,1,0,0,2.3349,rock_grid_rect_2,1,09,-1,-1,2.335,-0.132692292,-0.231507207,1,0,0,2.2553,Basalt_rect,2,2.255,0,11,0,11,0,1,,,,,,,,,,,,
61464fe94ab78bd0f17d0dc0,TCR,2024-06-10_13h57.33.072,LearnStrategy,2023.2.3,Linux x86_64,59.88023952,2,1,13,-0.033118091,-0.022296888,1,0,0,1.6392,rock_grid_rect_2,2,11,-1,-1,1.639,-0.36609707,-0.23302363,1,0,0,4.016,Andesite_rect,1,4.016,0,12,0,12,0,1,,,,,,,,,,,,
61464fe94ab78bd0f17d0dc0,TCR,2024-06-10_13h57.33.072,LearnStrategy,2023.2.3,Linux x86_64,59.88023952,2,1,14,0.000141341,-0.018036426,1,0,0,1.5062,rock_grid_rect_2,7,06,-1,-1,1.506,0.378807677,-0.236715469,1,0,0,3.0462,Gabbro_rect,4,3.046,0,13,0,13,0,1,,,,,,,,,,,,
61464fe94ab78bd0f17d0dc0,TCR,2024-06-10_13h57.33.072,LearnStrategy,2023.2.3,Linux x86_64,59.88023952,2,1,15,0.037173347,0.006924302,1,0,0,1.1981,rock_grid_rect_2,5,05,-1,-1,1.198,-0.348651904,-0.386454551,1,0,0,2.9292,Obsidian_rect,5,2.929,1,14,0,14,0,1,,,,,,,,,,,,
61464fe94ab78bd0f17d0dc0,TCR,2024-06-10_13h57.33.072,LearnStrategy,2023.2.3,Linux x86_64,59.88023952,2,1,16,-0.020714702,-0.012651757,1,0,0,1.412,rock_grid_rect_2,2,12,-1,-1,1.412,0.376460402,-0.396474561,1,0,0,2.5092,Pumice_rect,8,2.509,0,15,0,15,0,1,,,,,,,,,,,,
61464fe94ab78bd0f17d0dc0,TCR,2024-06-10_13h57.33.072,LearnStrategy,2023.2.3,Linux x86_64,59.88023952,2,2,1,,,,,,,,2,06,,,,,,,,,,,2,4.361,1,,,,,,-0.138566353,-0.242816334,1,0,0,4.3614,Basalt_rect,0,0,0,0,1
61464fe94ab78bd0f17d0dc0,TCR,2024-06-10_13h57.33.072,LearnStrategy,2023.2.3,Linux x86_64,59.88023952,2,2,2,,,,,,,,2,10,,,,,,,,,,,1,4.585,0,,,,,,-0.410678917,-0.248006257,1,0,0,4.5855,Andesite_rect,1,0,1,0,1
61464fe94ab78bd0f17d0dc0,TCR,2024-06-10_13h57.33.072,LearnStrategy,2023.2.3,Linux x86_64,59.88023952,2,2,3,,,,,,,,8,14,,,,,,,,,,,8,1.599,1,,,,,,0.353346417,-0.396027399,1,0,0,1.5988,Pumice_rect,2,0,2,0,1
61464fe94ab78bd0f17d0dc0,TCR,2024-06-10_13h57.33.072,LearnStrategy,2023.2.3,Linux x86_64,59.88023952,2,2,4,,,,,,,,1,01,,,,,,,,,,,4,6.206,0,,,,,,0.377450862,-0.270360311,1,0,0,6.2062,Gabbro_rect,3,0,3,0,1
61464fe94ab78bd0f17d0dc0,TCR,2024-06-10_13h57.33.072,LearnStrategy,2023.2.3,Linux x86_64,59.88023952,2,2,5,,,,,,,,1,11,,,,,,,,,,,3,2.046,0,,,,,,0.207871558,-0.232254172,1,0,0,2.0461,Diorite_rect,4,0,4,0,1
61464fe94ab78bd0f17d0dc0,TCR,2024-06-10_13h57.33.072,LearnStrategy,2023.2.3,Linux x86_64,59.88023952,2,2,6,,,,,,,,7,15,,,,,,,,,,,6,4.315,0,,,,,,-0.104462386,-0.380654492,1,0,0,4.3155,Pegmatite_rect,5,0,5,0,1
61464fe94ab78bd0f17d0dc0,TCR,2024-06-10_13h57.33.072,LearnStrategy,2023.2.3,Linux x86_64,59.88023952,2,2,7,,,,,,,,6,06,,,,,,,,,,,7,2.913,0,,,,,,0.108952554,-0.395789205,1,0,0,2.9133,Peridotite_rect,6,0,6,0,1
61464fe94ab78bd0f17d0dc0,TCR,2024-06-10_13h57.33.072,LearnStrategy,2023.2.3,Linux x86_64,59.88023952,2,2,8,,,,,,,,3,08,,,,,,,,,,,4,1.861,0,,,,,,0.402902379,-0.23769984,1,0,0,1.8614,Gabbro_rect,7,0,7,0,1
61464fe94ab78bd0f17d0dc0,TCR,2024-06-10_13h57.33.072,LearnStrategy,2023.2.3,Linux x86_64,59.88023952,2,2,9,,,,,,,,4,16,,,,,,,,,,,2,2.295,0,,,,,,-0.197764437,-0.271470191,1,0,0,2.2948,Basalt_rect,8,0,8,0,1
61464fe94ab78bd0f17d0dc0,TCR,2024-06-10_13h57.33.072,LearnStrategy,2023.2.3,Linux x86_64,59.88023952,2,2,10,,,,,,,,6,09,,,,,,,,,,,4,2.3,0,,,,,,0.386967046,-0.249564802,1,0,0,2.2997,Gabbro_rect,9,0,9,0,1
61464fe94ab78bd0f17d0dc0,TCR,2024-06-10_13h57.33.072,LearnStrategy,2023.2.3,Linux x86_64,59.88023952,2,2,11,,,,,,,,5,11,,,,,,,,,,,5,1.803,1,,,,,,-0.413520598,-0.397143727,1,0,0,1.8028,Obsidian_rect,10,0,10,0,1
61464fe94ab78bd0f17d0dc0,TCR,2024-06-10_13h57.33.072,LearnStrategy,2023.2.3,Linux x86_64,59.88023952,2,2,12,,,,,,,,8,16,,,,,,,,,,,8,1.562,1,,,,,,0.400727035,-0.405069056,1,0,0,1.5621,Pumice_rect,11,0,11,0,1
61464fe94ab78bd0f17d0dc0,TCR,2024-06-10_13h57.33.072,LearnStrategy,2023.2.3,Linux x86_64,59.88023952,2,2,13,,,,,,,,7,08,,,,,,,,,,,4,16.031,0,,,,,,0.375912805,-0.240706323,1,0,0,16.0306,Gabbro_rect,12,0,12,0,1
61464fe94ab78bd0f17d0dc0,TCR,2024-06-10_13h57.33.072,LearnStrategy,2023.2.3,Linux x86_64,59.88023952,2,2,14,,,,,,,,3,14,,,,,,,,,,,3,3.193,1,,,,,,0.193614046,-0.22940479,1,0,0,3.1931,Diorite_rect,13,0,13,0,1
61464fe94ab78bd0f17d0dc0,TCR,2024-06-10_13h57.33.072,LearnStrategy,2023.2.3,Linux x86_64,59.88023952,2,2,15,,,,,,,,5,08,,,,,,,,,,,5,1.509,1,,,,,,-0.318748295,-0.408443039,1,0,0,1.5093,Obsidian_rect,14,0,14,0,1
61464fe94ab78bd0f17d0dc0,TCR,2024-06-10_13h57.33.072,LearnStrategy,2023.2.3,Linux x86_64,59.88023952,2,2,16,,,,,,,,4,12,,,,,,,,,,,1,6.162,0,,,,,,-0.434719713,-0.254875792,1,0,0,6.1619,Andesite_rect,15,0,15,0,1
61464fe94ab78bd0f17d0dc0,TCR,2024-06-10_13h57.33.072,LearnStrategy,2023.2.3,Linux x86_64,59.88023952,3,1,1,0.033995579,0.01610404,1,0,0,1.3542,rock_grid_rect_2,7,14,-1,-1,1.354,0.403907597,-0.236632728,1,0,0,2.4452,Gabbro_rect,4,2.445,0,0,0,0,0,1,,,,,,,,,,,,
61464fe94ab78bd0f17d0dc0,TCR,2024-06-10_13h57.33.072,LearnStrategy,2023.2.3,Linux x86_64,59.88023952,3,1,2,-0.06905039,0.015417753,1,0,0,1.3731,rock_grid_rect_2,1,09,-1,-1,1.373,-0.410248161,-0.230120377,1,0,0,1.9369,Andesite_rect,1,1.937,1,1,0,1,0,1,,,,,,,,,,,,
61464fe94ab78bd0f17d0dc0,TCR,2024-06-10_13h57.33.072,LearnStrategy,2023.2.3,Linux x86_64,59.88023952,3,1,3,0.112675125,0.012106201,1,0,0,1.5414,rock_grid_rect_2,3,15,-1,-1,1.541,0.108448942,-0.258813706,1,0,0,3.0394,Diorite_rect,3,3.039,1,2,0,2,0,1,,,,,,,,,,,,
61464fe94ab78bd0f17d0dc0,TCR,2024-06-10_13h57.33.072,LearnStrategy,2023.2.3,Linux x86_64,59.88023952,3,1,4,0.000699684,0.015061643,1,0,0,1.4549,rock_grid_rect_2,4,03,-1,-1,1.455,0.140432295,-0.258751238,1,0,0,1.61,Diorite_rect,3,1.61,0,3,0,3,0,1,,,,,,,,,,,,
61464fe94ab78bd0f17d0dc0,TCR,2024-06-10_13h57.33.072,LearnStrategy,2023.2.3,Linux x86_64,59.88023952,3,1,5,0.027514032,0.01097483,1,0,0,0.9918,rock_grid_rect_2,2,01,-1,-1,0.992,-0.14261466,-0.247540613,1,0,0,3.0224,Basalt_rect,2,3.022,1,4,0,4,0,1,,,,,,,,,,,,
61464fe94ab78bd0f17d0dc0,TCR,2024-06-10_13h57.33.072,LearnStrategy,2023.2.3,Linux x86_64,59.88023952,3,1,6,-0.01335581,-0.020708469,1,0,0,1.5682,rock_grid_rect_2,4,05,-1,-1,1.568,-0.094381341,-0.378949591,1,0,0,4.0305,Pegmatite_rect,6,4.031,0,5,0,5,0,1,,,,,,,,,,,,
61464fe94ab78bd0f17d0dc0,TCR,2024-06-10_13h57.33.072,LearnStrategy,2023.2.3,Linux x86_64,59.88023952,3,1,7,0.061707618,0.020142354,1,0,0,1.756,rock_grid_rect_2,6,10,-1,-1,1.756,0.152499275,-0.233338907,1,0,0,2.3227,Diorite_rect,3,2.323,0,6,0,6,0,1,,,,,,,,,,,,
61464fe94ab78bd0f17d0dc0,TCR,2024-06-10_13h57.33.072,LearnStrategy,2023.2.3,Linux x86_64,59.88023952,3,1,8,-0.03240494,0.013052963,1,0,0,1.3082,rock_grid_rect_2,1,06,-1,-1,1.308,0.338957021,-0.238430757,1,0,0,4.3315,Gabbro_rect,4,4.332,0,7,0,7,0,1,,,,,,,,,,,,
61464fe94ab78bd0f17d0dc0,TCR,2024-06-10_13h57.33.072,LearnStrategy,2023.2.3,Linux x86_64,59.88023952,3,1,9,-0.071943614,-0.012641799,1,0,0,1.3242,rock_grid_rect_2,2,14,-1,-1,1.324,0.175212448,-0.22985102,1,0,0,5.6765,Diorite_rect,3,5.677,0,8,0,8,0,1,,,,,,,,,,,,
61464fe94ab78bd0f17d0dc0,TCR,2024-06-10_13h57.33.072,LearnStrategy,2023.2.3,Linux x86_64,59.88023952,3,1,10,0.088565379,-0.015884364,1,0,0,1.323,rock_grid_rect_2,1,14,-1,-1,1.323,-0.431110722,-0.242540171,1,0,0,1.4081,Andesite_rect,1,1.408,1,9,0,9,0,1,,,,,,,,,,,,
61464fe94ab78bd0f17d0dc0,TCR,2024-06-10_13h57.33.072,LearnStrategy,2023.2.3,Linux x86_64,59.88023952,3,1,11,0.105922001,-0.011156682,1,0,0,1.5864,rock_grid_rect_2,7,05,-1,-1,1.586,-0.113491721,-0.39989518,1,0,0,4.0584,Pegmatite_rect,6,4.058,0,10,0,10,0,1,,,,,,,,,,,,
61464fe94ab78bd0f17d0dc0,TCR,2024-06-10_13h57.33.072,LearnStrategy,2023.2.3,Linux x86_64,59.88023952,3,1,12,-0.004734738,-0.012317568,1,0,0,1.7243,rock_grid_rect_2,6,11,-1,-1,1.724,0.361294742,-0.259814195,1,0,0,2.3811,Gabbro_rect,4,2.381,0,11,0,11,0,1,,,,,,,,,,,,
61464fe94ab78bd0f17d0dc0,TCR,2024-06-10_13h57.33.072,LearnStrategy,2023.2.3,Linux x86_64,59.88023952,3,1,13,-0.005734654,0.006129054,1,0,0,1.4685,rock_grid_rect_2,7,14,-1,-1,1.468,0.345176159,-0.241314382,1,0,0,1.7223,Gabbro_rect,4,1.722,0,12,0,12,0,1,,,,,,,,,,,,
61464fe94ab78bd0f17d0dc0,TCR,2024-06-10_13h57.33.072,LearnStrategy,2023.2.3,Linux x86_64,59.88023952,3,1,14,0.047426824,0.014284626,1,0,0,1.2082,rock_grid_rect_2,3,12,-1,-1,1.208,0.332731865,-0.241864343,1,0,0,2.4706,Gabbro_rect,4,2.471,0,13,0,13,0,1,,,,,,,,,,,,
61464fe94ab78bd0f17d0dc0,TCR,2024-06-10_13h57.33.072,LearnStrategy,2023.2.3,Linux x86_64,59.88023952,3,1,15,0.012409336,0.008906763,1,0,0,1.3072,rock_grid_rect_2,4,08,-1,-1,1.307,-0.053606275,-0.259846719,1,0,0,3.5244,Basalt_rect,2,3.524,0,14,0,14,0,1,,,,,,,,,,,,
61464fe94ab78bd0f17d0dc0,TCR,2024-06-10_13h57.33.072,LearnStrategy,2023.2.3,Linux x86_64,59.88023952,3,1,16,0.038739272,-0.006418577,1,0,0,1.2406,rock_grid_rect_2,2,12,-1,-1,1.241,0.358823534,-0.393046992,1,0,0,1.3946,Pumice_rect,8,1.395,0,15,0,15,0,1,,,,,,,,,,,,
61464fe94ab78bd0f17d0dc0,TCR,2024-06-10_13h57.33.072,LearnStrategy,2023.2.3,Linux x86_64,59.88023952,3,2,1,,,,,,,,3,11,,,,,,,,,,,1,3.992,0,,,,,,-0.402913841,-0.264443196,1,0,0,3.9917,Andesite_rect,0,0,0,0,1
61464fe94ab78bd0f17d0dc0,TCR,2024-06-10_13h57.33.072,LearnStrategy,2023.2.3,Linux x86_64,59.88023952,3,2,2,,,,,,,,3,09,,,,,,,,,,,4,1.356,0,,,,,,0.384013431,-0.241634745,1,0,0,1.3556,Gabbro_rect,1,0,1,0,1
61464fe94ab78bd0f17d0dc0,TCR,2024-06-10_13h57.33.072,LearnStrategy,2023.2.3,Linux x86_64,59.88023952,3,2,3,,,,,,,,2,04,,,,,,,,,,,2,1.998,1,,,,,,-0.19786036,-0.242244882,1,0,0,1.9985,Basalt_rect,2,0,2,0,1
61464fe94ab78bd0f17d0dc0,TCR,2024-06-10_13h57.33.072,LearnStrategy,2023.2.3,Linux x86_64,59.88023952,3,2,4,,,,,,,,6,13,,,,,,,,,,,3,1.867,0,,,,,,0.159430132,-0.237806508,1,0,0,1.867,Diorite_rect,3,0,3,0,1
61464fe94ab78bd0f17d0dc0,TCR,2024-06-10_13h57.33.072,LearnStrategy,2023.2.3,Linux x86_64,59.88023952,3,2,5,,,,,,,,5,06,,,,,,,,,,,5,1.685,1,,,,,,-0.353795584,-0.418464123,1,0,0,1.6854,Obsidian_rect,4,0,4,0,1
61464fe94ab78bd0f17d0dc0,TCR,2024-06-10_13h57.33.072,LearnStrategy,2023.2.3,Linux x86_64,59.88023952,3,2,6,,,,,,,,4,11,,,,,,,,,,,1,2.5,0,,,,,,-0.393431041,-0.261420523,1,0,0,2.4997,Andesite_rect,5,0,5,0,1
61464fe94ab78bd0f17d0dc0,TCR,2024-06-10_13h57.33.072,LearnStrategy,2023.2.3,Linux x86_64,59.88023952,3,2,7,,,,,,,,6,05,,,,,,,,,,,7,3.29,0,,,,,,0.135032546,-0.3937206,1,0,0,3.2899,Peridotite_rect,6,0,6,0,1
61464fe94ab78bd0f17d0dc0,TCR,2024-06-10_13h57.33.072,LearnStrategy,2023.2.3,Linux x86_64,59.88023952,3,2,8,,,,,,,,8,06,,,,,,,,,,,8,1.667,1,,,,,,0.345414283,-0.393831853,1,0,0,1.6665,Pumice_rect,7,0,7,0,1
61464fe94ab78bd0f17d0dc0,TCR,2024-06-10_13h57.33.072,LearnStrategy,2023.2.3,Linux x86_64,59.88023952,3,2,9,,,,,,,,1,16,,,,,,,,,,,1,1.774,1,,,,,,-0.318796758,-0.229466899,1,0,0,1.7736,Andesite_rect,8,0,8,0,1
61464fe94ab78bd0f17d0dc0,TCR,2024-06-10_13h57.33.072,LearnStrategy,2023.2.3,Linux x86_64,59.88023952,3,2,10,,,,,,,,7,07,,,,,,,,,,,6,3.645,0,,,,,,-0.084022415,-0.402893281,1,0,0,3.6447,Pegmatite_rect,9,0,9,0,1
61464fe94ab78bd0f17d0dc0,TCR,2024-06-10_13h57.33.072,LearnStrategy,2023.2.3,Linux x86_64,59.88023952,3,2,11,,,,,,,,5,02,,,,,,,,,,,5,1.399,1,,,,,,-0.355135994,-0.400982279,1,0,0,1.3995,Obsidian_rect,10,0,10,0,1
61464fe94ab78bd0f17d0dc0,TCR,2024-06-10_13h57.33.072,LearnStrategy,2023.2.3,Linux x86_64,59.88023952,3,2,12,,,,,,,,2,05,,,,,,,,,,,2,4.001,1,,,,,,-0.104618699,-0.231778499,1,0,0,4.001,Basalt_rect,11,0,11,0,1
61464fe94ab78bd0f17d0dc0,TCR,2024-06-10_13h57.33.072,LearnStrategy,2023.2.3,Linux x86_64,59.88023952,3,2,13,,,,,,,,7,16,,,,,,,,,,,4,4.07,0,,,,,,0.362138488,-0.242077322,1,0,0,4.0695,Gabbro_rect,12,0,12,0,1
61464fe94ab78bd0f17d0dc0,TCR,2024-06-10_13h57.33.072,LearnStrategy,2023.2.3,Linux x86_64,59.88023952,3,2,14,,,,,,,,4,13,,,,,,,,,,,3,2.156,0,,,,,,0.063543329,-0.246549508,1,0,0,2.1562,Diorite_rect,13,0,13,0,1
61464fe94ab78bd0f17d0dc0,TCR,2024-06-10_13h57.33.072,LearnStrategy,2023.2.3,Linux x86_64,59.88023952,3,2,15,,,,,,,,8,04,,,,,,,,,,,8,2.356,1,,,,,,0.355378773,-0.397943416,1,0,0,2.3557,Pumice_rect,14,0,14,0,1
61464fe94ab78bd0f17d0dc0,TCR,2024-06-10_13h57.33.072,LearnStrategy,2023.2.3,Linux x86_64,59.88023952,3,2,16,,,,,,,,1,07,,,,,,,,,,,1,1.271,1,,,,,,-0.406062811,-0.243246231,1,0,0,1.2712,Andesite_rect,15,0,15,0,1
61464fe94ab78bd0f17d0dc0,TCR,2024-06-10_13h57.33.072,LearnStrategy,2023.2.3,Linux x86_64,59.88023952,4,1,1,0.059545096,-0.008856509,1,0,0,1.8756,rock_grid_rect_2,4,10,-1,-1,1.876,-0.432351842,-0.25514257,1,0,0,3.6217,Andesite_rect,1,3.622,0,0,0,0,0,1,,,,,,,,,,,,
61464fe94ab78bd0f17d0dc0,TCR,2024-06-10_13h57.33.072,LearnStrategy,2023.2.3,Linux x86_64,59.88023952,4,1,2,0.018282752,0.001895851,1,0,0,1.2356,rock_grid_rect_2,7,13,-1,-1,1.236,0.156670154,-0.386479767,1,0,0,1.8536,Peridotite_rect,7,1.854,1,1,0,1,0,1,,,,,,,,,,,,
61464fe94ab78bd0f17d0dc0,TCR,2024-06-10_13h57.33.072,LearnStrategy,2023.2.3,Linux x86_64,59.88023952,4,1,3,-0.017639877,0.017159081,1,0,0,1.1419,rock_grid_rect_2,3,10,-1,-1,1.142,-0.118875065,-0.402958901,1,0,0,3.049,Pegmatite_rect,6,3.049,0,2,0,2,0,1,,,,,,,,,,,,
61464fe94ab78bd0f17d0dc0,TCR,2024-06-10_13h57.33.072,LearnStrategy,2023.2.3,Linux x86_64,59.88023952,4,1,4,0.021790984,0.004811569,1,0,0,1.3091,rock_grid_rect_2,6,12,-1,-1,1.309,-0.078917526,-0.400341482,1,0,0,2.6024,Pegmatite_rect,6,2.602,1,3,0,3,0,1,,,,,,,,,,,,
61464fe94ab78bd0f17d0dc0,TCR,2024-06-10_13h57.33.072,LearnStrategy,2023.2.3,Linux x86_64,59.88023952,4,1,5,0.004885177,0.015453679,1,0,0,1.692,rock_grid_rect_2,4,01,-1,-1,1.692,0.085656968,-0.263487982,1,0,0,2.8424,Diorite_rect,3,2.842,0,4,0,4,0,1,,,,,,,,,,,,
61464fe94ab78bd0f17d0dc0,TCR,2024-06-10_13h57.33.072,LearnStrategy,2023.2.3,Linux x86_64,59.88023952,4,1,6,0.002286813,0.007613348,1,0,0,2.7864,rock_grid_rect_2,2,02,-1,-1,2.786,-0.202222367,-0.258157578,1,0,0,1.6583,Basalt_rect,2,1.658,1,5,0,5,0,1,,,,,,,,,,,,
61464fe94ab78bd0f17d0dc0,TCR,2024-06-10_13h57.33.072,LearnStrategy,2023.2.3,Linux x86_64,59.88023952,4,1,7,-0.006750832,-0.010461834,1,0,0,1.5901,rock_grid_rect_2,3,15,-1,-1,1.59,0.367920208,-0.249271518,1,0,0,2.4591,Gabbro_rect,4,2.459,0,6,0,6,0,1,,,,,,,,,,,,
61464fe94ab78bd0f17d0dc0,TCR,2024-06-10_13h57.33.072,LearnStrategy,2023.2.3,Linux x86_64,59.88023952,4,1,8,-0.017095575,0.005073726,1,0,0,1.7101,rock_grid_rect_2,2,11,-1,-1,1.71,0.35790815,-0.401866501,1,0,0,5.5445,Pumice_rect,8,5.544,0,7,0,7,0,1,,,,,,,,,,,,
61464fe94ab78bd0f17d0dc0,TCR,2024-06-10_13h57.33.072,LearnStrategy,2023.2.3,Linux x86_64,59.88023952,4,1,9,0.045116371,-0.009253811,1,0,0,1.3038,rock_grid_rect_2,6,11,-1,-1,1.304,0.086437028,-0.398746974,1,0,0,4.4979,Peridotite_rect,7,4.498,0,8,0,8,0,1,,,,,,,,,,,,
61464fe94ab78bd0f17d0dc0,TCR,2024-06-10_13h57.33.072,LearnStrategy,2023.2.3,Linux x86_64,59.88023952,4,1,10,-0.060647024,0.020651016,1,0,0,1.3395,rock_grid_rect_2,7,04,-1,-1,1.34,0.128068091,-0.39746631,1,0,0,1.642,Peridotite_rect,7,1.642,1,9,0,9,0,1,,,,,,,,,,,,
61464fe94ab78bd0f17d0dc0,TCR,2024-06-10_13h57.33.072,LearnStrategy,2023.2.3,Linux x86_64,59.88023952,4,1,11,-0.011669893,-0.008620392,1,0,0,1.0566,rock_grid_rect_2,7,14,-1,-1,1.057,0.372377208,-0.238771179,1,0,0,3.0634,Gabbro_rect,4,3.063,0,10,0,10,0,1,,,,,,,,,,,,
61464fe94ab78bd0f17d0dc0,TCR,2024-06-10_13h57.33.072,LearnStrategy,2023.2.3,Linux x86_64,59.88023952,4,1,12,0.003143955,-0.011296662,1,0,0,1.3407,rock_grid_rect_2,6,08,-1,-1,1.341,-0.107185041,-0.405050788,1,0,0,24.2875,Pegmatite_rect,6,24.288,1,11,0,11,0,1,,,,,,,,,,,,
61464fe94ab78bd0f17d0dc0,TCR,2024-06-10_13h57.33.072,LearnStrategy,2023.2.3,Linux x86_64,59.88023952,4,1,13,-0.025358603,0.001586628,1,0,0,1.8223,rock_grid_rect_2,3,15,-1,-1,1.822,0.192009939,-0.252931478,1,0,0,2.7914,Diorite_rect,3,2.791,1,12,0,12,0,1,,,,,,,,,,,,
61464fe94ab78bd0f17d0dc0,TCR,2024-06-10_13h57.33.072,LearnStrategy,2023.2.3,Linux x86_64,59.88023952,4,1,14,0.000356612,-0.00412564,1,0,0,1.4062,rock_grid_rect_2,1,10,-1,-1,1.406,-0.080997234,-0.269091969,1,0,0,2.9399,Basalt_rect,2,2.94,0,13,0,13,0,1,,,,,,,,,,,,
61464fe94ab78bd0f17d0dc0,TCR,2024-06-10_13h57.33.072,LearnStrategy,2023.2.3,Linux x86_64,59.88023952,4,1,15,-0.0730017,0.010569219,1,0,0,1.6229,rock_grid_rect_2,4,01,-1,-1,1.623,-0.389889892,-0.252275136,1,0,0,2.7565,Andesite_rect,1,2.756,0,14,0,14,0,1,,,,,,,,,,,,
61464fe94ab78bd0f17d0dc0,TCR,2024-06-10_13h57.33.072,LearnStrategy,2023.2.3,Linux x86_64,59.88023952,4,1,16,-0.002949245,-0.002392979,1,0,0,1.245,rock_grid_rect_2,1,02,-1,-1,1.245,-0.365694467,-0.25719828,1,0,0,2.6019,Andesite_rect,1,2.602,1,15,0,15,0,1,,,,,,,,,,,,
61464fe94ab78bd0f17d0dc0,TCR,2024-06-10_13h57.33.072,LearnStrategy,2023.2.3,Linux x86_64,59.88023952,4,2,1,,,,,,,,6,15,,,,,,,,,,,6,2.55,1,,,,,,-0.13932349,-0.39969789,1,0,0,2.5504,Pegmatite_rect,0,0,0,0,1
61464fe94ab78bd0f17d0dc0,TCR,2024-06-10_13h57.33.072,LearnStrategy,2023.2.3,Linux x86_64,59.88023952,4,2,2,,,,,,,,6,09,,,,,,,,,,,7,3.184,0,,,,,,0.097482314,-0.396832891,1,0,0,3.1838,Peridotite_rect,1,0,1,0,1
61464fe94ab78bd0f17d0dc0,TCR,2024-06-10_13h57.33.072,LearnStrategy,2023.2.3,Linux x86_64,59.88023952,4,2,3,,,,,,,,1,05,,,,,,,,,,,1,1.643,1,,,,,,-0.332442234,-0.247962271,1,0,0,1.6427,Andesite_rect,2,0,2,0,1
61464fe94ab78bd0f17d0dc0,TCR,2024-06-10_13h57.33.072,LearnStrategy,2023.2.3,Linux x86_64,59.88023952,4,2,4,,,,,,,,8,13,,,,,,,,,,,8,2.757,1,,,,,,0.392257332,-0.40323535,1,0,0,2.7568,Pumice_rect,3,0,3,0,1
61464fe94ab78bd0f17d0dc0,TCR,2024-06-10_13h57.33.072,LearnStrategy,2023.2.3,Linux x86_64,59.88023952,4,2,5,,,,,,,,3,08,,,,,,,,,,,3,4.332,1,,,,,,0.134620201,-0.233717224,1,0,0,4.3319,Diorite_rect,4,0,4,0,1
61464fe94ab78bd0f17d0dc0,TCR,2024-06-10_13h57.33.072,LearnStrategy,2023.2.3,Linux x86_64,59.88023952,4,2,6,,,,,,,,2,16,,,,,,,,,,,2,1.859,1,,,,,,-0.17875435,-0.244233252,1,0,0,1.8587,Basalt_rect,5,0,5,0,1
61464fe94ab78bd0f17d0dc0,TCR,2024-06-10_13h57.33.072,LearnStrategy,2023.2.3,Linux x86_64,59.88023952,4,2,7,,,,,,,,8,16,,,,,,,,,,,8,1.928,1,,,,,,0.37644851,-0.408260578,1,0,0,1.9284,Pumice_rect,6,0,6,0,1
61464fe94ab78bd0f17d0dc0,TCR,2024-06-10_13h57.33.072,LearnStrategy,2023.2.3,Linux x86_64,59.88023952,4,2,8,,,,,,,,4,15,,,,,,,,,,,1,1.832,0,,,,,,-0.334446007,-0.243450541,1,0,0,1.8318,Andesite_rect,7,0,7,0,1
61464fe94ab78bd0f17d0dc0,TCR,2024-06-10_13h57.33.072,LearnStrategy,2023.2.3,Linux x86_64,59.88023952,4,2,9,,,,,,,,7,07,,,,,,,,,,,4,2.929,0,,,,,,0.455699222,-0.256294286,1,0,0,2.9287,Gabbro_rect,8,0,8,0,1
61464fe94ab78bd0f17d0dc0,TCR,2024-06-10_13h57.33.072,LearnStrategy,2023.2.3,Linux x86_64,59.88023952,4,2,10,,,,,,,,5,08,,,,,,,,,,,5,1.463,1,,,,,,-0.409293125,-0.40461645,1,0,0,1.4633,Obsidian_rect,9,0,9,0,1
61464fe94ab78bd0f17d0dc0,TCR,2024-06-10_13h57.33.072,LearnStrategy,2023.2.3,Linux x86_64,59.88023952,4,2,11,,,,,,,,5,12,,,,,,,,,,,5,1.124,1,,,,,,-0.400834276,-0.399879778,1,0,0,1.1241,Obsidian_rect,10,0,10,0,1
61464fe94ab78bd0f17d0dc0,TCR,2024-06-10_13h57.33.072,LearnStrategy,2023.2.3,Linux x86_64,59.88023952,4,2,12,,,,,,,,7,15,,,,,,,,,,,4,2.922,0,,,,,,0.370189971,-0.258810196,1,0,0,2.9224,Gabbro_rect,11,0,11,0,1
61464fe94ab78bd0f17d0dc0,TCR,2024-06-10_13h57.33.072,LearnStrategy,2023.2.3,Linux x86_64,59.88023952,4,2,13,,,,,,,,3,06,,,,,,,,,,,3,4.311,1,,,,,,0.064097158,-0.267165708,1,0,0,4.3111,Diorite_rect,12,0,12,0,1
61464fe94ab78bd0f17d0dc0,TCR,2024-06-10_13h57.33.072,LearnStrategy,2023.2.3,Linux x86_64,59.88023952,4,2,14,,,,,,,,2,04,,,,,,,,,,,2,3.582,1,,,,,,-0.122639043,-0.243602126,1,0,0,3.5815,Basalt_rect,13,0,13,0,1
61464fe94ab78bd0f17d0dc0,TCR,2024-06-10_13h57.33.072,LearnStrategy,2023.2.3,Linux x86_64,59.88023952,4,2,15,,,,,,,,1,04,,,,,,,,,,,3,4.048,0,,,,,,0.090070984,-0.254686526,1,0,0,4.0481,Diorite_rect,14,0,14,0,1
61464fe94ab78bd0f17d0dc0,TCR,2024-06-10_13h57.33.072,LearnStrategy,2023.2.3,Linux x86_64,59.88023952,4,2,16,,,,,,,,4,12,,,,,,,,,,,1,2.216,0,,,,,,-0.377214494,-0.228068535,1,0,0,2.2163,Andesite_rect,15,0,15,0,1
61464fe94ab78bd0f17d0dc0,TCR,2024-06-10_13h57.33.072,LearnStrategy,2023.2.3,Linux x86_64,59.88023952,5,1,1,-0.053985524,0.009875696,1,0,0,1.177,rock_grid_rect_2,1,02,-1,-1,1.177,-0.357837408,-0.241879387,1,0,0,3.783,Andesite_rect,1,3.783,1,0,0,0,0,1,,,,,,,,,,,,
61464fe94ab78bd0f17d0dc0,TCR,2024-06-10_13h57.33.072,LearnStrategy,2023.2.3,Linux x86_64,59.88023952,5,1,2,-0.029080028,-0.014735549,1,0,0,3.6241,rock_grid_rect_2,3,10,-1,-1,3.624,0.1431427,-0.232625326,1,0,0,9.7085,Diorite_rect,3,9.708,1,1,0,1,0,1,,,,,,,,,,,,
61464fe94ab78bd0f17d0dc0,TCR,2024-06-10_13h57.33.072,LearnStrategy,2023.2.3,Linux x86_64,59.88023952,5,1,3,0.120475948,-0.010076389,1,0,0,1.1894,rock_grid_rect_2,4,08,-1,-1,1.189,0.355729654,-0.256327383,1,0,0,6.1865,Gabbro_rect,4,6.187,1,2,0,2,0,1,,,,,,,,,,,,
61464fe94ab78bd0f17d0dc0,TCR,2024-06-10_13h57.33.072,LearnStrategy,2023.2.3,Linux x86_64,59.88023952,5,1,4,0.025455027,-0.004967237,1,0,0,1.6559,rock_grid_rect_2,7,05,-1,-1,1.656,0.05637528,-0.382399796,1,0,0,2.0312,Peridotite_rect,7,2.031,1,3,0,3,0,1,,,,,,,,,,,,
61464fe94ab78bd0f17d0dc0,TCR,2024-06-10_13h57.33.072,LearnStrategy,2023.2.3,Linux x86_64,59.88023952,5,1,5,0.010674705,0.015079158,1,0,0,1.2736,rock_grid_rect_2,6,11,-1,-1,1.274,-0.116351848,-0.391481283,1,0,0,3.441,Pegmatite_rect,6,3.441,1,4,0,4,0,1,,,,,,,,,,,,
61464fe94ab78bd0f17d0dc0,TCR,2024-06-10_13h57.33.072,LearnStrategy,2023.2.3,Linux x86_64,59.88023952,5,1,6,-0.06214697,0.01379853,1,0,0,1.6914,rock_grid_rect_2,4,14,-1,-1,1.691,-0.135022589,-0.231080463,1,0,0,9.9668,Basalt_rect,2,9.967,0,5,0,5,0,1,,,,,,,,,,,,
61464fe94ab78bd0f17d0dc0,TCR,2024-06-10_13h57.33.072,LearnStrategy,2023.2.3,Linux x86_64,59.88023952,5,1,7,-0.00018898,-0.022058263,1,0,0,1.3235,rock_grid_rect_2,7,10,-1,-1,1.323,0.139123836,-0.385071517,1,0,0,2.869,Peridotite_rect,7,2.869,1,6,0,6,0,1,,,,,,,,,,,,
61464fe94ab78bd0f17d0dc0,TCR,2024-06-10_13h57.33.072,LearnStrategy,2023.2.3,Linux x86_64,59.88023952,5,1,8,-0.069560449,0.006209575,1,0,0,1.2514,rock_grid_rect_2,7,10,-1,-1,1.251,0.165086343,-0.402902164,1,0,0,1.7062,Peridotite_rect,7,1.706,1,7,0,7,0,1,,,,,,,,,,,,
61464fe94ab78bd0f17d0dc0,TCR,2024-06-10_13h57.33.072,LearnStrategy,2023.2.3,Linux x86_64,59.88023952,5,1,9,-0.020962281,-0.005785947,1,0,0,1.9965,rock_grid_rect_2,7,13,-1,-1,1.996,0.081210427,-0.392421239,1,0,0,1.6569,Peridotite_rect,7,1.657,1,8,0,8,0,1,,,,,,,,,,,,
61464fe94ab78bd0f17d0dc0,TCR,2024-06-10_13h57.33.072,LearnStrategy,2023.2.3,Linux x86_64,59.88023952,5,1,10,-0.016513807,-0.018319036,1,0,0,1.6734,rock_grid_rect_2,1,06,-1,-1,1.673,0.133821299,-0.258984991,1,0,0,6.5421,Diorite_rect,3,6.542,0,9,0,9,0,1,,,,,,,,,,,,
61464fe94ab78bd0f17d0dc0,TCR,2024-06-10_13h57.33.072,LearnStrategy,2023.2.3,Linux x86_64,59.88023952,5,1,11,0.052578349,0.000941388,1,0,0,1.14,rock_grid_rect_2,4,14,-1,-1,1.14,0.401105997,-0.249783941,1,0,0,3.7829,Gabbro_rect,4,3.783,1,10,0,10,0,1,,,,,,,,,,,,
61464fe94ab78bd0f17d0dc0,TCR,2024-06-10_13h57.33.072,LearnStrategy,2023.2.3,Linux x86_64,59.88023952,5,1,12,-0.076782943,0.016767153,1,0,0,1.4071,rock_grid_rect_2,6,08,-1,-1,1.407,-0.123539096,-0.387098644,1,0,0,1.775,Pegmatite_rect,6,1.775,1,11,0,11,0,1,,,,,,,,,,,,
61464fe94ab78bd0f17d0dc0,TCR,2024-06-10_13h57.33.072,LearnStrategy,2023.2.3,Linux x86_64,59.88023952,5,1,13,0.077347518,-0.00718757,1,0,0,1.1568,rock_grid_rect_2,6,08,-1,-1,1.157,-0.109865574,-0.387855781,1,0,0,1.2646,Pegmatite_rect,6,1.265,1,12,0,12,0,1,,,,,,,,,,,,
61464fe94ab78bd0f17d0dc0,TCR,2024-06-10_13h57.33.072,LearnStrategy,2023.2.3,Linux x86_64,59.88023952,5,1,14,0.088220659,-0.007088639,1,0,0,1.4225,rock_grid_rect_2,3,13,-1,-1,1.422,0.371952827,-0.252407235,1,0,0,3.9129,Gabbro_rect,4,3.913,0,13,0,13,0,1,,,,,,,,,,,,
61464fe94ab78bd0f17d0dc0,TCR,2024-06-10_13h57.33.072,LearnStrategy,2023.2.3,Linux x86_64,59.88023952,5,1,15,-0.028150603,-0.000640511,1,0,0,2.0872,rock_grid_rect_2,2,12,-1,-1,2.087,0.339248442,-0.405353743,1,0,0,6.6728,Pumice_rect,8,6.673,0,14,0,14,0,1,,,,,,,,,,,,
61464fe94ab78bd0f17d0dc0,TCR,2024-06-10_13h57.33.072,LearnStrategy,2023.2.3,Linux x86_64,59.88023952,5,1,16,-0.076597115,0.015659601,1,0,0,1.7739,rock_grid_rect_2,4,10,-1,-1,1.774,-0.364743622,-0.249998925,1,0,0,8.4426,Andesite_rect,1,8.443,0,15,0,15,0,1,,,,,,,,,,,,
61464fe94ab78bd0f17d0dc0,TCR,2024-06-10_13h57.33.072,LearnStrategy,2023.2.3,Linux x86_64,59.88023952,5,2,1,,,,,,,,8,14,,,,,,,,,,,8,2.181,1,,,,,,0.390218815,-0.384704948,1,0,0,2.1813,Pumice_rect,0,0,0,0,1
61464fe94ab78bd0f17d0dc0,TCR,2024-06-10_13h57.33.072,LearnStrategy,2023.2.3,Linux x86_64,59.88023952,5,2,2,,,,,,,,6,16,,,,,,,,,,,6,3.632,1,,,,,,-0.131425813,-0.380690884,1,0,0,3.6318,Pegmatite_rect,1,0,1,0,1
61464fe94ab78bd0f17d0dc0,TCR,2024-06-10_13h57.33.072,LearnStrategy,2023.2.3,Linux x86_64,59.88023952,5,2,3,,,,,,,,2,05,,,,,,,,,,,2,1.955,1,,,,,,-0.128470909,-0.254361077,1,0,0,1.9555,Basalt_rect,2,0,2,0,1
61464fe94ab78bd0f17d0dc0,TCR,2024-06-10_13h57.33.072,LearnStrategy,2023.2.3,Linux x86_64,59.88023952,5,2,4,,,,,,,,7,12,,,,,,,,,,,4,4.694,0,,,,,,0.377980837,-0.257642289,1,0,0,4.6935,Gabbro_rect,3,0,3,0,1
61464fe94ab78bd0f17d0dc0,TCR,2024-06-10_13h57.33.072,LearnStrategy,2023.2.3,Linux x86_64,59.88023952,5,2,5,,,,,,,,3,14,,,,,,,,,,,4,1.593,0,,,,,,0.377980837,-0.257642289,1,0,0,1.5935,Gabbro_rect,4,0,4,0,1
61464fe94ab78bd0f17d0dc0,TCR,2024-06-10_13h57.33.072,LearnStrategy,2023.2.3,Linux x86_64,59.88023952,5,2,6,,,,,,,,5,11,,,,,,,,,,,5,1.859,1,,,,,,-0.410933481,-0.394102356,1,0,0,1.8593,Obsidian_rect,5,0,5,0,1
61464fe94ab78bd0f17d0dc0,TCR,2024-06-10_13h57.33.072,LearnStrategy,2023.2.3,Linux x86_64,59.88023952,5,2,7,,,,,,,,6,06,,,,,,,,,,,6,2.601,1,,,,,,-0.177675704,-0.393647601,1,0,0,2.6008,Pegmatite_rect,6,0,6,0,1
61464fe94ab78bd0f17d0dc0,TCR,2024-06-10_13h57.33.072,LearnStrategy,2023.2.3,Linux x86_64,59.88023952,5,2,8,,,,,,,,5,09,,,,,,,,,,,5,3.294,1,,,,,,-0.443580556,-0.380161196,1,0,0,3.2943,Obsidian_rect,7,0,7,0,1
61464fe94ab78bd0f17d0dc0,TCR,2024-06-10_13h57.33.072,LearnStrategy,2023.2.3,Linux x86_64,59.88023952,5,2,9,,,,,,,,3,09,,,,,,,,,,,4,2.571,0,,,,,,0.38719471,-0.240989864,1,0,0,2.5708,Gabbro_rect,8,0,8,0,1
61464fe94ab78bd0f17d0dc0,TCR,2024-06-10_13h57.33.072,LearnStrategy,2023.2.3,Linux x86_64,59.88023952,5,2,10,,,,,,,,4,13,,,,,,,,,,,3,7.753,0,,,,,,0.109608467,-0.230112138,1,0,0,7.753,Diorite_rect,9,0,9,0,1
61464fe94ab78bd0f17d0dc0,TCR,2024-06-10_13h57.33.072,LearnStrategy,2023.2.3,Linux x86_64,59.88023952,5,2,11,,,,,,,,1,07,,,,,,,,,,,4,3.337,0,,,,,,0.353223631,-0.259653082,1,0,0,3.3373,Gabbro_rect,10,0,10,0,1
61464fe94ab78bd0f17d0dc0,TCR,2024-06-10_13h57.33.072,LearnStrategy,2023.2.3,Linux x86_64,59.88023952,5,2,12,,,,,,,,2,10,,,,,,,,,,,2,3.386,1,,,,,,-0.149658776,-0.237483351,1,0,0,3.3859,Basalt_rect,11,0,11,0,1
61464fe94ab78bd0f17d0dc0,TCR,2024-06-10_13h57.33.072,LearnStrategy,2023.2.3,Linux x86_64,59.88023952,5,2,13,,,,,,,,8,09,,,,,,,,,,,8,1.992,1,,,,,,0.39524261,-0.387783498,1,0,0,1.9922,Pumice_rect,12,0,12,0,1
61464fe94ab78bd0f17d0dc0,TCR,2024-06-10_13h57.33.072,LearnStrategy,2023.2.3,Linux x86_64,59.88023952,5,2,14,,,,,,,,4,16,,,,,,,,,,,1,2.576,0,,,,,,-0.338192577,-0.240988431,1,0,0,2.5755,Andesite_rect,13,0,13,0,1
61464fe94ab78bd0f17d0dc0,TCR,2024-06-10_13h57.33.072,LearnStrategy,2023.2.3,Linux x86_64,59.88023952,5,2,15,,,,,,,,1,16,,,,,,,,,,,4,1.55,0,,,,,,0.399517794,-0.251361399,1,0,0,1.5502,Gabbro_rect,14,0,14,0,1
61464fe94ab78bd0f17d0dc0,TCR,2024-06-10_13h57.33.072,LearnStrategy,2023.2.3,Linux x86_64,59.88023952,5,2,16,,,,,,,,7,16,,,,,,,,,,,7,4.684,1,,,,,,0.137274729,-0.389745363,1,0,0,4.6845,Peridotite_rect,15,0,15,0,1
61464fe94ab78bd0f17d0dc0,TCR,2024-06-10_13h57.33.072,LearnStrategy,2023.2.3,Linux x86_64,59.88023952,6,1,1,0.021139584,-0.019960359,1,0,0,2.4566,rock_grid_rect_2,3,07,-1,-1,2.457,0.388400512,-0.249865823,1,0,0,3.7426,Gabbro_rect,4,3.743,0,0,0,0,0,1,,,,,,,,,,,,
61464fe94ab78bd0f17d0dc0,TCR,2024-06-10_13h57.33.072,LearnStrategy,2023.2.3,Linux x86_64,59.88023952,6,1,2,-0.036342925,0.004549985,1,0,0,2.1834,rock_grid_rect_2,2,14,-1,-1,2.183,0.350519458,-0.260686883,1,0,0,9.3088,Gabbro_rect,4,9.309,0,1,0,1,0,1,,,,,,,,,,,,
61464fe94ab78bd0f17d0dc0,TCR,2024-06-10_13h57.33.072,LearnStrategy,2023.2.3,Linux x86_64,59.88023952,6,1,3,-0.080105634,-0.005784872,1,0,0,3.4958,rock_grid_rect_2,7,06,-1,-1,3.496,0.099139218,-0.380558139,1,0,0,4.254,Peridotite_rect,7,4.254,1,2,0,2,0,1,,,,,,,,,,,,
61464fe94ab78bd0f17d0dc0,TCR,2024-06-10_13h57.33.072,LearnStrategy,2023.2.3,Linux x86_64,59.88023952,6,1,4,-0.098721142,0.019063493,1,0,0,1.2314,rock_grid_rect_2,1,02,-1,-1,1.231,-0.384049966,-0.239315982,1,0,0,11.9685,Andesite_rect,1,11.968,1,3,0,3,0,1,,,,,,,,,,,,
61464fe94ab78bd0f17d0dc0,TCR,2024-06-10_13h57.33.072,LearnStrategy,2023.2.3,Linux x86_64,59.88023952,6,1,5,0.006305892,0.012511419,1,0,0,1.6905,rock_grid_rect_2,6,11,-1,-1,1.691,-0.123170593,-0.397154974,1,0,0,2.2679,Pegmatite_rect,6,2.268,1,4,0,4,0,1,,,,,,,,,,,,
61464fe94ab78bd0f17d0dc0,TCR,2024-06-10_13h57.33.072,LearnStrategy,2023.2.3,Linux x86_64,59.88023952,6,1,6,0.003475709,-0.013683803,1,0,0,2.001,rock_grid_rect_2,4,03,-1,-1,2.001,0.413785406,-0.239763502,1,0,0,7.0808,Gabbro_rect,4,7.081,1,5,0,5,0,1,,,,,,,,,,,,
61464fe94ab78bd0f17d0dc0,TCR,2024-06-10_13h57.33.072,LearnStrategy,2023.2.3,Linux x86_64,59.88023952,6,1,7,0.040536872,0.023297055,1,0,0,1.989,rock_grid_rect_2,3,15,-1,-1,1.989,0.136158187,-0.232616944,1,0,0,2.0117,Diorite_rect,3,2.012,1,6,0,6,0,1,,,,,,,,,,,,
61464fe94ab78bd0f17d0dc0,TCR,2024-06-10_13h57.33.072,LearnStrategy,2023.2.3,Linux x86_64,59.88023952,6,1,8,0.02333427,0.000512638,1,0,0,1.4722,rock_grid_rect_2,7,13,-1,-1,1.472,0.074875952,-0.413892433,1,0,0,2.3285,Peridotite_rect,7,2.329,1,7,0,7,0,1,,,,,,,,,,,,
61464fe94ab78bd0f17d0dc0,TCR,2024-06-10_13h57.33.072,LearnStrategy,2023.2.3,Linux x86_64,59.88023952,6,1,9,-0.055592998,0.000447412,1,0,0,1.2746,rock_grid_rect_2,3,16,-1,-1,1.275,0.344784446,-0.235558093,1,0,0,4.9526,Gabbro_rect,4,4.953,0,8,0,8,0,1,,,,,,,,,,,,
61464fe94ab78bd0f17d0dc0,TCR,2024-06-10_13h57.33.072,LearnStrategy,2023.2.3,Linux x86_64,59.88023952,6,1,10,-0.002474718,-0.006215987,1,0,0,1.9891,rock_grid_rect_2,6,07,-1,-1,1.989,-0.142868687,-0.384749936,1,0,0,1.6987,Pegmatite_rect,6,1.699,1,9,0,9,0,1,,,,,,,,,,,,
61464fe94ab78bd0f17d0dc0,TCR,2024-06-10_13h57.33.072,LearnStrategy,2023.2.3,Linux x86_64,59.88023952,6,1,11,-0.029583926,-0.007197599,1,0,0,2.002,rock_grid_rect_2,1,03,-1,-1,2.002,-0.172744751,-0.250825049,1,0,0,4.4232,Basalt_rect,2,4.423,0,10,0,10,0,1,,,,,,,,,,,,
61464fe94ab78bd0f17d0dc0,TCR,2024-06-10_13h57.33.072,LearnStrategy,2023.2.3,Linux x86_64,59.88023952,6,1,12,0.0032623,-0.012960586,1,0,0,1.4402,rock_grid_rect_2,4,10,-1,-1,1.44,-0.433492634,-0.236196097,1,0,0,11.2193,Andesite_rect,1,11.219,0,11,0,11,0,1,,,,,,,,,,,,
61464fe94ab78bd0f17d0dc0,TCR,2024-06-10_13h57.33.072,LearnStrategy,2023.2.3,Linux x86_64,59.88023952,6,1,13,0.026862633,0.01371432,1,0,0,1.2406,rock_grid_rect_2,7,04,-1,-1,1.241,0.117631724,-0.391858383,1,0,0,2.4392,Peridotite_rect,7,2.439,1,12,0,12,0,1,,,,,,,,,,,,
61464fe94ab78bd0f17d0dc0,TCR,2024-06-10_13h57.33.072,LearnStrategy,2023.2.3,Linux x86_64,59.88023952,6,1,14,-0.099835535,0.002711121,1,0,0,1.3706,rock_grid_rect_2,4,14,-1,-1,1.371,0.418167043,-0.255477475,1,0,0,2.0784,Gabbro_rect,4,2.078,1,13,0,13,0,1,,,,,,,,,,,,
61464fe94ab78bd0f17d0dc0,TCR,2024-06-10_13h57.33.072,LearnStrategy,2023.2.3,Linux x86_64,59.88023952,6,1,15,-0.011640092,-0.003785935,1,0,0,1.3415,rock_grid_rect_2,4,01,-1,-1,1.341,-0.340206236,-0.236879447,1,0,0,3.2457,Andesite_rect,1,3.246,0,14,0,14,0,1,,,,,,,,,,,,
61464fe94ab78bd0f17d0dc0,TCR,2024-06-10_13h57.33.072,LearnStrategy,2023.2.3,Linux x86_64,59.88023952,6,1,16,0.008049405,0.01610755,1,0,0,1.1914,rock_grid_rect_2,1,14,-1,-1,1.191,0.148093353,-0.253553722,1,0,0,2.9532,Diorite_rect,3,2.953,0,15,0,15,0,1,,,,,,,,,,,,
61464fe94ab78bd0f17d0dc0,TCR,2024-06-10_13h57.33.072,LearnStrategy,2023.2.3,Linux x86_64,59.88023952,6,2,1,,,,,,,,8,06,,,,,,,,,,,8,2.414,1,,,,,,0.401767784,-0.39705855,1,0,0,2.4143,Pumice_rect,0,0,0,0,1
61464fe94ab78bd0f17d0dc0,TCR,2024-06-10_13h57.33.072,LearnStrategy,2023.2.3,Linux x86_64,59.88023952,6,2,2,,,,,,,,2,06,,,,,,,,,,,2,1.644,1,,,,,,-0.129270312,-0.248938619,1,0,0,1.6439,Basalt_rect,1,0,1,0,1
61464fe94ab78bd0f17d0dc0,TCR,2024-06-10_13h57.33.072,LearnStrategy,2023.2.3,Linux x86_64,59.88023952,6,2,3,,,,,,,,3,11,,,,,,,,,,,3,3.982,1,,,,,,0.183261997,-0.244388348,1,0,0,3.9818,Diorite_rect,2,0,2,0,1
61464fe94ab78bd0f17d0dc0,TCR,2024-06-10_13h57.33.072,LearnStrategy,2023.2.3,Linux x86_64,59.88023952,6,2,4,,,,,,,,6,05,,,,,,,,,,,6,2.47,1,,,,,,-0.108398867,-0.385872711,1,0,0,2.4698,Pegmatite_rect,3,0,3,0,1
61464fe94ab78bd0f17d0dc0,TCR,2024-06-10_13h57.33.072,LearnStrategy,2023.2.3,Linux x86_64,59.88023952,6,2,5,,,,,,,,5,02,,,,,,,,,,,5,1.504,1,,,,,,-0.342666913,-0.384397337,1,0,0,1.5043,Obsidian_rect,4,0,4,0,1
61464fe94ab78bd0f17d0dc0,TCR,2024-06-10_13h57.33.072,LearnStrategy,2023.2.3,Linux x86_64,59.88023952,6,2,6,,,,,,,,8,04,,,,,,,,,,,8,2.127,1,,,,,,0.424770731,-0.400154938,1,0,0,2.1274,Pumice_rect,5,0,5,0,1
61464fe94ab78bd0f17d0dc0,TCR,2024-06-10_13h57.33.072,LearnStrategy,2023.2.3,Linux x86_64,59.88023952,6,2,7,,,,,,,,2,08,,,,,,,,,,,2,1.7,1,,,,,,-0.184369226,-0.248990054,1,0,0,1.6996,Basalt_rect,6,0,6,0,1
61464fe94ab78bd0f17d0dc0,TCR,2024-06-10_13h57.33.072,LearnStrategy,2023.2.3,Linux x86_64,59.88023952,6,2,8,,,,,,,,7,08,,,,,,,,,,,7,3.136,1,,,,,,0.119413062,-0.404343654,1,0,0,3.1364,Peridotite_rect,7,0,7,0,1
61464fe94ab78bd0f17d0dc0,TCR,2024-06-10_13h57.33.072,LearnStrategy,2023.2.3,Linux x86_64,59.88023952,6,2,9,,,,,,,,4,09,,,,,,,,,,,1,2.837,0,,,,,,-0.332895951,-0.242841479,1,0,0,2.837,Andesite_rect,8,0,8,0,1
61464fe94ab78bd0f17d0dc0,TCR,2024-06-10_13h57.33.072,LearnStrategy,2023.2.3,Linux x86_64,59.88023952,6,2,10,,,,,,,,5,06,,,,,,,,,,,5,1.749,1,,,,,,-0.366357866,-0.378259507,1,0,0,1.749,Obsidian_rect,9,0,9,0,1
61464fe94ab78bd0f17d0dc0,TCR,2024-06-10_13h57.33.072,LearnStrategy,2023.2.3,Linux x86_64,59.88023952,6,2,11,,,,,,,,1,11,,,,,,,,,,,4,4.882,0,,,,,,0.353554596,-0.234536757,1,0,0,4.8822,Gabbro_rect,10,0,10,0,1
61464fe94ab78bd0f17d0dc0,TCR,2024-06-10_13h57.33.072,LearnStrategy,2023.2.3,Linux x86_64,59.88023952,6,2,12,,,,,,,,1,01,,,,,,,,,,,3,1.308,0,,,,,,0.129606507,-0.241627151,1,0,0,1.3078,Diorite_rect,11,0,11,0,1
61464fe94ab78bd0f17d0dc0,TCR,2024-06-10_13h57.33.072,LearnStrategy,2023.2.3,Linux x86_64,59.88023952,6,2,13,,,,,,,,4,11,,,,,,,,,,,2,2.555,0,,,,,,-0.102153366,-0.230467031,1,0,0,2.5546,Basalt_rect,12,0,12,0,1
61464fe94ab78bd0f17d0dc0,TCR,2024-06-10_13h57.33.072,LearnStrategy,2023.2.3,Linux x86_64,59.88023952,6,2,14,,,,,,,,6,13,,,,,,,,,,,1,3.983,0,,,,,,-0.439928583,-0.252485535,1,0,0,3.9827,Andesite_rect,13,0,13,0,1
61464fe94ab78bd0f17d0dc0,TCR,2024-06-10_13h57.33.072,LearnStrategy,2023.2.3,Linux x86_64,59.88023952,6,2,15,,,,,,,,3,02,,,,,,,,,,,3,1.542,1,,,,,,0.1050256,-0.265316672,1,0,0,1.5419,Diorite_rect,14,0,14,0,1
61464fe94ab78bd0f17d0dc0,TCR,2024-06-10_13h57.33.072,LearnStrategy,2023.2.3,Linux x86_64,59.88023952,6,2,16,,,,,,,,7,02,,,,,,,,,,,7,3.177,1,,,,,,0.079555386,-0.403847636,1,0,0,3.1767,Peridotite_rect,15,0,15,0,1
61464fe94ab78bd0f17d0dc0,TCR,2024-06-10_13h57.33.072,LearnStrategy,2023.2.3,Linux x86_64,59.88023952,7,1,1,-0.043798957,0.007361434,1,0,0,1.8739,rock_grid_rect_2,1,10,-1,-1,1.874,0.427865328,-0.242550631,1,0,0,10.5245,Gabbro_rect,4,10.524,0,0,0,0,0,1,,,,,,,,,,,,
61464fe94ab78bd0f17d0dc0,TCR,2024-06-10_13h57.33.072,LearnStrategy,2023.2.3,Linux x86_64,59.88023952,7,1,2,-0.123396896,0.003236153,1,0,0,1.336,rock_grid_rect_2,4,14,-1,-1,1.336,0.447127651,-0.254648343,1,0,0,8.9813,Gabbro_rect,4,8.981,1,1,0,1,0,1,,,,,,,,,,,,
61464fe94ab78bd0f17d0dc0,TCR,2024-06-10_13h57.33.072,LearnStrategy,2023.2.3,Linux x86_64,59.88023952,7,1,3,0.026165886,-0.003453286,1,0,0,1.4561,rock_grid_rect_2,1,02,-1,-1,1.456,-0.412207554,-0.235900163,1,0,0,3.7688,Andesite_rect,1,3.769,1,2,0,2,0,1,,,,,,,,,,,,
61464fe94ab78bd0f17d0dc0,TCR,2024-06-10_13h57.33.072,LearnStrategy,2023.2.3,Linux x86_64,59.88023952,7,1,4,0.104862052,-0.001662671,1,0,0,2.4391,rock_grid_rect_2,4,05,-1,-1,2.439,0.445115354,-0.241403786,1,0,0,5.4778,Gabbro_rect,4,5.478,1,3,0,3,0,1,,,,,,,,,,,,
61464fe94ab78bd0f17d0dc0,TCR,2024-06-10_13h57.33.072,LearnStrategy,2023.2.3,Linux x86_64,59.88023952,7,1,5,0.056160654,0.001701104,1,0,0,2.5373,rock_grid_rect_2,1,14,-1,-1,2.537,-0.356622938,-0.248979309,1,0,0,4.5321,Andesite_rect,1,4.532,1,4,0,4,0,1,,,,,,,,,,,,
61464fe94ab78bd0f17d0dc0,TCR,2024-06-10_13h57.33.072,LearnStrategy,2023.2.3,Linux x86_64,59.88023952,7,1,6,-0.108792587,-0.015629979,1,0,0,1.9062,rock_grid_rect_2,4,10,-1,-1,1.906,0.376503671,-0.236451915,1,0,0,13.7343,Gabbro_rect,4,13.734,1,5,0,5,0,1,,,,,,,,,,,,
61464fe94ab78bd0f17d0dc0,TCR,2024-06-10_13h57.33.072,LearnStrategy,2023.2.3,Linux x86_64,59.88023952,7,1,7,-0.092161367,-0.003472843,1,0,0,2.3218,rock_grid_rect_2,6,10,-1,-1,2.322,0.120808346,-0.419745145,1,0,0,1.9257,Peridotite_rect,7,1.926,0,6,0,6,0,1,,,,,,,,,,,,
61464fe94ab78bd0f17d0dc0,TCR,2024-06-10_13h57.33.072,LearnStrategy,2023.2.3,Linux x86_64,59.88023952,7,1,8,0.002011796,0.002944051,1,0,0,1.3395,rock_grid_rect_2,1,06,-1,-1,1.34,0.115057359,-0.228222269,1,0,0,2.344,Diorite_rect,3,2.344,0,7,0,7,0,1,,,,,,,,,,,,
61464fe94ab78bd0f17d0dc0,TCR,2024-06-10_13h57.33.072,LearnStrategy,2023.2.3,Linux x86_64,59.88023952,7,1,9,0.042578827,-0.010991414,1,0,0,1.1397,rock_grid_rect_2,3,15,-1,-1,1.14,0.09261519,-0.228093752,1,0,0,1.446,Diorite_rect,3,1.446,1,8,0,8,0,1,,,,,,,,,,,,
61464fe94ab78bd0f17d0dc0,TCR,2024-06-10_13h57.33.072,LearnStrategy,2023.2.3,Linux x86_64,59.88023952,7,1,10,0.011755858,0.016622302,1,0,0,1.2906,rock_grid_rect_2,3,12,-1,-1,1.291,0.112081107,-0.231389793,1,0,0,2.7663,Diorite_rect,3,2.766,1,9,0,9,0,1,,,,,,,,,,,,
61464fe94ab78bd0f17d0dc0,TCR,2024-06-10_13h57.33.072,LearnStrategy,2023.2.3,Linux x86_64,59.88023952,7,1,11,-0.007642576,-0.007690645,1,0,0,1.5148,rock_grid_rect_2,7,06,-1,-1,1.515,0.187204065,-0.396454789,1,0,0,3.7611,Peridotite_rect,7,3.761,1,10,0,10,0,1,,,,,,,,,,,,
61464fe94ab78bd0f17d0dc0,TCR,2024-06-10_13h57.33.072,LearnStrategy,2023.2.3,Linux x86_64,59.88023952,7,1,12,0.038575723,0.001070658,1,0,0,1.1257,rock_grid_rect_2,7,14,-1,-1,1.126,0.097250424,-0.390667338,1,0,0,2.2118,Peridotite_rect,7,2.212,1,11,0,11,0,1,,,,,,,,,,,,
61464fe94ab78bd0f17d0dc0,TCR,2024-06-10_13h57.33.072,LearnStrategy,2023.2.3,Linux x86_64,59.88023952,7,1,13,0.053489578,-0.002006101,1,0,0,1.2589,rock_grid_rect_2,2,14,-1,-1,1.259,0.438808244,-0.243735587,1,0,0,9.007,Gabbro_rect,4,9.007,0,12,0,12,0,1,,,,,,,,,,,,
61464fe94ab78bd0f17d0dc0,TCR,2024-06-10_13h57.33.072,LearnStrategy,2023.2.3,Linux x86_64,59.88023952,7,1,14,-0.015180919,0.022825357,1,0,0,1.9559,rock_grid_rect_2,4,05,-1,-1,1.956,-0.405914951,-0.233946751,1,0,0,3.2261,Andesite_rect,1,3.226,0,13,0,13,0,1,,,,,,,,,,,,
61464fe94ab78bd0f17d0dc0,TCR,2024-06-10_13h57.33.072,LearnStrategy,2023.2.3,Linux x86_64,59.88023952,7,1,15,0.011077809,-0.012226875,1,0,0,1.153,rock_grid_rect_2,6,07,-1,-1,1.153,-0.101635355,-0.391655434,1,0,0,2.0253,Pegmatite_rect,6,2.025,1,14,0,14,0,1,,,,,,,,,,,,
61464fe94ab78bd0f17d0dc0,TCR,2024-06-10_13h57.33.072,LearnStrategy,2023.2.3,Linux x86_64,59.88023952,7,1,16,-0.089292571,0.021776799,1,0,0,1.29,rock_grid_rect_2,3,16,-1,-1,1.29,0.14313919,-0.234525367,1,0,0,1.6362,Diorite_rect,3,1.636,1,15,0,15,0,1,,,,,,,,,,,,
61464fe94ab78bd0f17d0dc0,TCR,2024-06-10_13h57.33.072,LearnStrategy,2023.2.3,Linux x86_64,59.88023952,7,2,1,,,,,,,,1,11,,,,,,,,,,,1,1.928,1,,,,,,-0.351213375,-0.246860343,1,0,0,1.9285,Andesite_rect,0,0,0,0,1
61464fe94ab78bd0f17d0dc0,TCR,2024-06-10_13h57.33.072,LearnStrategy,2023.2.3,Linux x86_64,59.88023952,7,2,2,,,,,,,,2,16,,,,,,,,,,,2,1.483,1,,,,,,-0.176462666,-0.256110751,1,0,0,1.4829,Basalt_rect,1,0,1,0,1
61464fe94ab78bd0f17d0dc0,TCR,2024-06-10_13h57.33.072,LearnStrategy,2023.2.3,Linux x86_64,59.88023952,7,2,3,,,,,,,,5,11,,,,,,,,,,,5,1.562,1,,,,,,-0.39084353,-0.386486573,1,0,0,1.5615,Obsidian_rect,2,0,2,0,1
61464fe94ab78bd0f17d0dc0,TCR,2024-06-10_13h57.33.072,LearnStrategy,2023.2.3,Linux x86_64,59.88023952,7,2,4,,,,,,,,4,16,,,,,,,,,,,2,1.774,0,,,,,,-0.169350638,-0.2577294,1,0,0,1.7743,Basalt_rect,3,0,3,0,1
61464fe94ab78bd0f17d0dc0,TCR,2024-06-10_13h57.33.072,LearnStrategy,2023.2.3,Linux x86_64,59.88023952,7,2,5,,,,,,,,3,09,,,,,,,,,,,3,1.65,1,,,,,,0.079418773,-0.266708661,1,0,0,1.6496,Diorite_rect,4,0,4,0,1
61464fe94ab78bd0f17d0dc0,TCR,2024-06-10_13h57.33.072,LearnStrategy,2023.2.3,Linux x86_64,59.88023952,7,2,6,,,,,,,,7,12,,,,,,,,,,,3,0.972,0,,,,,,0.079418773,-0.266708661,1,0,0,0.9717,Diorite_rect,5,0,5,0,1
61464fe94ab78bd0f17d0dc0,TCR,2024-06-10_13h57.33.072,LearnStrategy,2023.2.3,Linux x86_64,59.88023952,7,2,7,,,,,,,,1,07,,,,,,,,,,,3,1.039,0,,,,,,0.079418773,-0.266708661,1,0,0,1.0395,Diorite_rect,6,0,6,0,1
61464fe94ab78bd0f17d0dc0,TCR,2024-06-10_13h57.33.072,LearnStrategy,2023.2.3,Linux x86_64,59.88023952,7,2,8,,,,,,,,3,14,,,,,,,,,,,3,1.447,1,,,,,,0.079418773,-0.266708661,1,0,0,1.4473,Diorite_rect,7,0,7,0,1
61464fe94ab78bd0f17d0dc0,TCR,2024-06-10_13h57.33.072,LearnStrategy,2023.2.3,Linux x86_64,59.88023952,7,2,9,,,,,,,,6,16,,,,,,,,,,,6,1.547,1,,,,,,-0.221697095,-0.400870453,1,0,0,1.5471,Pegmatite_rect,8,0,8,0,1
61464fe94ab78bd0f17d0dc0,TCR,2024-06-10_13h57.33.072,LearnStrategy,2023.2.3,Linux x86_64,59.88023952,7,2,10,,,,,,,,5,02,,,,,,,,,,,5,1.468,1,,,,,,-0.317730971,-0.398459923,1,0,0,1.4685,Obsidian_rect,9,0,9,0,1
61464fe94ab78bd0f17d0dc0,TCR,2024-06-10_13h57.33.072,LearnStrategy,2023.2.3,Linux x86_64,59.88023952,7,2,11,,,,,,,,7,08,,,,,,,,,,,7,1.913,1,,,,,,0.115460248,-0.397440163,1,0,0,1.9127,Peridotite_rect,10,0,10,0,1
61464fe94ab78bd0f17d0dc0,TCR,2024-06-10_13h57.33.072,LearnStrategy,2023.2.3,Linux x86_64,59.88023952,7,2,12,,,,,,,,8,13,,,,,,,,,,,8,1.992,1,,,,,,0.440584998,-0.416200378,1,0,0,1.9916,Pumice_rect,11,0,11,0,1
61464fe94ab78bd0f17d0dc0,TCR,2024-06-10_13h57.33.072,LearnStrategy,2023.2.3,Linux x86_64,59.88023952,7,2,13,,,,,,,,2,05,,,,,,,,,,,2,3.176,1,,,,,,-0.1556966,-0.247318107,1,0,0,3.1755,Basalt_rect,12,0,12,0,1
61464fe94ab78bd0f17d0dc0,TCR,2024-06-10_13h57.33.072,LearnStrategy,2023.2.3,Linux x86_64,59.88023952,7,2,14,,,,,,,,4,12,,,,,,,,,,,1,2.064,0,,,,,,-0.397554675,-0.258318476,1,0,0,2.064,Andesite_rect,13,0,13,0,1
61464fe94ab78bd0f17d0dc0,TCR,2024-06-10_13h57.33.072,LearnStrategy,2023.2.3,Linux x86_64,59.88023952,7,2,15,,,,,,,,6,09,,,,,,,,,,,6,3.052,1,,,,,,-0.158171676,-0.39548188,1,0,0,3.0522,Pegmatite_rect,14,0,14,0,1
61464fe94ab78bd0f17d0dc0,TCR,2024-06-10_13h57.33.072,LearnStrategy,2023.2.3,Linux x86_64,59.88023952,7,2,16,,,,,,,,8,09,,,,,,,,,,,8,3.662,1,,,,,,0.394887288,-0.393083098,1,0,0,3.6621,Pumice_rect,15,0,15,0,1
61464fe94ab78bd0f17d0dc0,TCR,2024-06-10_13h57.33.072,LearnStrategy,2023.2.3,Linux x86_64,59.88023952,8,1,1,0.011456055,-0.011230827,1,0,0,1.259,rock_grid_rect_2,4,05,-1,-1,1.259,0.333524032,-0.262195426,1,0,0,4.9888,Gabbro_rect,4,4.989,1,0,0,0,0,1,,,,,,,,,,,,
61464fe94ab78bd0f17d0dc0,TCR,2024-06-10_13h57.33.072,LearnStrategy,2023.2.3,Linux x86_64,59.88023952,8,1,2,-0.004220022,0.008681427,1,0,0,1.5893,rock_grid_rect_2,6,11,-1,-1,1.589,-0.105408503,-0.395789778,1,0,0,1.6179,Pegmatite_rect,6,1.618,1,1,0,1,0,1,,,,,,,,,,,,
61464fe94ab78bd0f17d0dc0,TCR,2024-06-10_13h57.33.072,LearnStrategy,2023.2.3,Linux x86_64,59.88023952,8,1,3,-0.015382507,0.007691576,1,0,0,1.3062,rock_grid_rect_2,7,13,-1,-1,1.306,0.110780743,-0.401911633,1,0,0,2.9101,Peridotite_rect,7,2.91,1,2,0,2,0,1,,,,,,,,,,,,
61464fe94ab78bd0f17d0dc0,TCR,2024-06-10_13h57.33.072,LearnStrategy,2023.2.3,Linux x86_64,59.88023952,8,1,4,-0.019303801,0.015977671,1,0,0,1.6731,rock_grid_rect_2,4,14,-1,-1,1.673,0.348756889,-0.248078252,1,0,0,6.1082,Gabbro_rect,4,6.108,1,3,0,3,0,1,,,,,,,,,,,,
61464fe94ab78bd0f17d0dc0,TCR,2024-06-10_13h57.33.072,LearnStrategy,2023.2.3,Linux x86_64,59.88023952,8,1,5,-0.03811624,0.015193885,1,0,0,1.4233,rock_grid_rect_2,1,14,-1,-1,1.423,-0.39239176,-0.256223795,1,0,0,3.4286,Andesite_rect,1,3.429,1,4,0,4,0,1,,,,,,,,,,,,
61464fe94ab78bd0f17d0dc0,TCR,2024-06-10_13h57.33.072,LearnStrategy,2023.2.3,Linux x86_64,59.88023952,8,1,6,0.035550758,0.014043423,1,0,0,1.3388,rock_grid_rect_2,1,02,-1,-1,1.339,-0.36386377,-0.236076964,1,0,0,2.4036,Andesite_rect,1,2.404,1,5,0,5,0,1,,,,,,,,,,,,
61464fe94ab78bd0f17d0dc0,TCR,2024-06-10_13h57.33.072,LearnStrategy,2023.2.3,Linux x86_64,59.88023952,8,1,7,0.052547186,-0.01982919,1,0,0,1.157,rock_grid_rect_2,2,11,-1,-1,1.157,-0.157916862,-0.237610007,1,0,0,7.9008,Basalt_rect,2,7.901,1,6,0,6,0,1,,,,,,,,,,,,
61464fe94ab78bd0f17d0dc0,TCR,2024-06-10_13h57.33.072,LearnStrategy,2023.2.3,Linux x86_64,59.88023952,8,1,8,-0.008618923,0.006764658,1,0,0,1.308,rock_grid_rect_2,6,08,-1,-1,1.308,-0.151891861,-0.390232355,1,0,0,3.0001,Pegmatite_rect,6,3,1,7,0,7,0,1,,,,,,,,,,,,
61464fe94ab78bd0f17d0dc0,TCR,2024-06-10_13h57.33.072,LearnStrategy,2023.2.3,Linux x86_64,59.88023952,8,1,9,-0.029088338,-0.015981719,1,0,0,1.59,rock_grid_rect_2,1,06,-1,-1,1.59,-0.429738685,-0.254964193,1,0,0,6.1083,Andesite_rect,1,6.108,1,8,0,8,0,1,,,,,,,,,,,,
61464fe94ab78bd0f17d0dc0,TCR,2024-06-10_13h57.33.072,LearnStrategy,2023.2.3,Linux x86_64,59.88023952,8,1,10,-0.015585743,-0.015167201,1,0,0,1.0595,rock_grid_rect_2,3,12,-1,-1,1.059,0.152887479,-0.236681155,1,0,0,2.3609,Diorite_rect,3,2.361,1,9,0,9,0,1,,,,,,,,,,,,
61464fe94ab78bd0f17d0dc0,TCR,2024-06-10_13h57.33.072,LearnStrategy,2023.2.3,Linux x86_64,59.88023952,8,1,11,-0.050919654,0.00505768,1,0,0,1.3071,rock_grid_rect_2,3,13,-1,-1,1.307,0.105110849,-0.244570737,1,0,0,1.9687,Diorite_rect,3,1.969,1,10,0,10,0,1,,,,,,,,,,,,
61464fe94ab78bd0f17d0dc0,TCR,2024-06-10_13h57.33.072,LearnStrategy,2023.2.3,Linux x86_64,59.88023952,8,1,12,-0.055836781,0.014788453,1,0,0,1.3891,rock_grid_rect_2,4,03,-1,-1,1.389,0.133693641,-0.241455436,1,0,0,4.5463,Diorite_rect,3,4.546,0,11,0,11,0,1,,,,,,,,,,,,
61464fe94ab78bd0f17d0dc0,TCR,2024-06-10_13h57.33.072,LearnStrategy,2023.2.3,Linux x86_64,59.88023952,8,1,13,-8.39592E-05,0.019244091,1,0,0,1.1058,rock_grid_rect_2,1,03,-1,-1,1.106,-0.120145054,-0.230124747,1,0,0,2.2666,Basalt_rect,2,2.267,0,12,0,12,0,1,,,,,,,,,,,,
61464fe94ab78bd0f17d0dc0,TCR,2024-06-10_13h57.33.072,LearnStrategy,2023.2.3,Linux x86_64,59.88023952,8,1,14,-0.05210289,0.012236689,1,0,0,1.057,rock_grid_rect_2,4,08,-1,-1,1.057,0.36377211,-0.230502205,1,0,0,2.5135,Gabbro_rect,4,2.514,1,13,0,13,0,1,,,,,,,,,,,,
61464fe94ab78bd0f17d0dc0,TCR,2024-06-10_13h57.33.072,LearnStrategy,2023.2.3,Linux x86_64,59.88023952,8,1,15,-0.024809788,-0.00013407,1,0,0,1.3035,rock_grid_rect_2,4,10,-1,-1,1.303,0.374600549,-0.23588519,1,0,0,1.8907,Gabbro_rect,4,1.891,1,14,0,14,0,1,,,,,,,,,,,,
61464fe94ab78bd0f17d0dc0,TCR,2024-06-10_13h57.33.072,LearnStrategy,2023.2.3,Linux x86_64,59.88023952,8,1,16,-0.046389871,0.001681798,1,0,0,1.5238,rock_grid_rect_2,7,10,-1,-1,1.524,0.115990437,-0.416961383,1,0,0,3.2008,Peridotite_rect,7,3.201,1,15,0,15,0,1,,,,,,,,,,,,
61464fe94ab78bd0f17d0dc0,TCR,2024-06-10_13h57.33.072,LearnStrategy,2023.2.3,Linux x86_64,59.88023952,8,2,1,,,,,,,,3,02,,,,,,,,,,,3,3.889,1,,,,,,0.145935059,-0.252392836,1,0,0,3.8888,Diorite_rect,0,0,0,0,1
61464fe94ab78bd0f17d0dc0,TCR,2024-06-10_13h57.33.072,LearnStrategy,2023.2.3,Linux x86_64,59.88023952,8,2,2,,,,,,,,1,16,,,,,,,,,,,1,1.466,1,,,,,,-0.371744935,-0.26720253,1,0,0,1.4664,Andesite_rect,1,0,1,0,1
61464fe94ab78bd0f17d0dc0,TCR,2024-06-10_13h57.33.072,LearnStrategy,2023.2.3,Linux x86_64,59.88023952,8,2,3,,,,,,,,2,08,,,,,,,,,,,2,5.797,1,,,,,,-0.110242387,-0.258665703,1,0,0,5.797,Basalt_rect,2,0,2,0,1
61464fe94ab78bd0f17d0dc0,TCR,2024-06-10_13h57.33.072,LearnStrategy,2023.2.3,Linux x86_64,59.88023952,8,2,4,,,,,,,,4,09,,,,,,,,,,,4,2.679,1,,,,,,0.352411404,-0.255793683,1,0,0,2.6789,Gabbro_rect,3,0,3,0,1
61464fe94ab78bd0f17d0dc0,TCR,2024-06-10_13h57.33.072,LearnStrategy,2023.2.3,Linux x86_64,59.88023952,8,2,5,,,,,,,,5,06,,,,,,,,,,,5,1.908,1,,,,,,-0.423430214,-0.381674753,1,0,0,1.9084,Obsidian_rect,4,0,4,0,1
61464fe94ab78bd0f17d0dc0,TCR,2024-06-10_13h57.33.072,LearnStrategy,2023.2.3,Linux x86_64,59.88023952,8,2,6,,,,,,,,4,13,,,,,,,,,,,4,3.117,1,,,,,,0.441959292,-0.246029706,1,0,0,3.117,Gabbro_rect,5,0,5,0,1
61464fe94ab78bd0f17d0dc0,TCR,2024-06-10_13h57.33.072,LearnStrategy,2023.2.3,Linux x86_64,59.88023952,8,2,7,,,,,,,,1,05,,,,,,,,,,,1,2.737,1,,,,,,-0.488072176,-0.244278527,1,0,0,2.7368,Andesite_rect,6,0,6,0,1
61464fe94ab78bd0f17d0dc0,TCR,2024-06-10_13h57.33.072,LearnStrategy,2023.2.3,Linux x86_64,59.88023952,8,2,8,,,,,,,,5,12,,,,,,,,,,,5,1.428,1,,,,,,-0.406865223,-0.402260006,1,0,0,1.4279,Obsidian_rect,7,0,7,0,1
61464fe94ab78bd0f17d0dc0,TCR,2024-06-10_13h57.33.072,LearnStrategy,2023.2.3,Linux x86_64,59.88023952,8,2,9,,,,,,,,2,10,,,,,,,,,,,2,3.111,1,,,,,,-0.113112902,-0.242316376,1,0,0,3.1106,Basalt_rect,8,0,8,0,1
61464fe94ab78bd0f17d0dc0,TCR,2024-06-10_13h57.33.072,LearnStrategy,2023.2.3,Linux x86_64,59.88023952,8,2,10,,,,,,,,8,14,,,,,,,,,,,8,2.148,1,,,,,,0.407292899,-0.388863577,1,0,0,2.148,Pumice_rect,9,0,9,0,1
61464fe94ab78bd0f17d0dc0,TCR,2024-06-10_13h57.33.072,LearnStrategy,2023.2.3,Linux x86_64,59.88023952,8,2,11,,,,,,,,8,04,,,,,,,,,,,8,3.183,1,,,,,,0.402485592,-0.385941698,1,0,0,3.183,Pumice_rect,10,0,10,0,1
61464fe94ab78bd0f17d0dc0,TCR,2024-06-10_13h57.33.072,LearnStrategy,2023.2.3,Linux x86_64,59.88023952,8,2,12,,,,,,,,6,15,,,,,,,,,,,6,2.001,1,,,,,,-0.134479505,-0.396724289,1,0,0,2.0008,Pegmatite_rect,11,0,11,0,1
61464fe94ab78bd0f17d0dc0,TCR,2024-06-10_13h57.33.072,LearnStrategy,2023.2.3,Linux x86_64,59.88023952,8,2,13,,,,,,,,6,13,,,,,,,,,,,4,4.144,0,,,,,,0.379716327,-0.249585219,1,0,0,4.1437,Gabbro_rect,12,0,12,0,1
61464fe94ab78bd0f17d0dc0,TCR,2024-06-10_13h57.33.072,LearnStrategy,2023.2.3,Linux x86_64,59.88023952,8,2,14,,,,,,,,3,08,,,,,,,,,,,3,1.791,1,,,,,,0.101807429,-0.255135478,1,0,0,1.7911,Diorite_rect,13,0,13,0,1
61464fe94ab78bd0f17d0dc0,TCR,2024-06-10_13h57.33.072,LearnStrategy,2023.2.3,Linux x86_64,59.88023952,8,2,15,,,,,,,,7,16,,,,,,,,,,,7,2.325,1,,,,,,0.146616045,-0.401637333,1,0,0,2.3245,Peridotite_rect,14,0,14,0,1
61464fe94ab78bd0f17d0dc0,TCR,2024-06-10_13h57.33.072,LearnStrategy,2023.2.3,Linux x86_64,59.88023952,8,2,16,,,,,,,,7,02,,,,,,,,,,,7,1.172,1,,,,,,0.146616045,-0.401637333,1,0,0,1.1721,Peridotite_rect,15,0,15,0,1
61464fe94ab78bd0f17d0dc0,TCR,2024-06-10_13h57.33.072,LearnStrategy,2023.2.3,Linux x86_64,59.88023952,9,1,1,-0.070319162,0.018435519,1,0,0,2.2707,rock_grid_rect_2,8,10,-1,-1,2.271,0.376219557,-0.418008939,1,0,0,20.2086,Pumice_rect,8,20.209,1,0,0,0,0,1,,,,,,,,,,,,
61464fe94ab78bd0f17d0dc0,TCR,2024-06-10_13h57.33.072,LearnStrategy,2023.2.3,Linux x86_64,59.88023952,9,1,2,-0.046975293,0.006181672,1,0,0,1.6233,rock_grid_rect_2,4,05,-1,-1,1.623,0.396942568,-0.245616931,1,0,0,5.6138,Gabbro_rect,4,5.614,1,1,0,1,0,1,,,,,,,,,,,,
61464fe94ab78bd0f17d0dc0,TCR,2024-06-10_13h57.33.072,LearnStrategy,2023.2.3,Linux x86_64,59.88023952,9,1,3,-0.096641433,-0.005732612,1,0,0,1.2742,rock_grid_rect_2,7,05,-1,-1,1.274,0.376048487,-0.242468032,1,0,0,7.1306,Gabbro_rect,4,7.131,0,2,0,2,0,1,,,,,,,,,,,,
61464fe94ab78bd0f17d0dc0,TCR,2024-06-10_13h57.33.072,LearnStrategy,2023.2.3,Linux x86_64,59.88023952,9,1,4,-0.05249575,0.008481415,1,0,0,1.3395,rock_grid_rect_2,4,08,-1,-1,1.34,0.375504042,-0.243795834,1,0,0,2.608,Gabbro_rect,4,2.608,1,3,0,3,0,1,,,,,,,,,,,,
61464fe94ab78bd0f17d0dc0,TCR,2024-06-10_13h57.33.072,LearnStrategy,2023.2.3,Linux x86_64,59.88023952,9,1,5,-0.053925062,-0.014376143,1,0,0,1.4938,rock_grid_rect_2,6,03,-1,-1,1.494,-0.153780225,-0.393823758,1,0,0,2.4367,Pegmatite_rect,6,2.437,1,4,0,4,0,1,,,,,,,,,,,,
61464fe94ab78bd0f17d0dc0,TCR,2024-06-10_13h57.33.072,LearnStrategy,2023.2.3,Linux x86_64,59.88023952,9,1,6,0.083439643,-0.009739979,1,0,0,1.209,rock_grid_rect_2,1,02,-1,-1,1.209,-0.34192679,-0.247745783,1,0,0,2.4388,Andesite_rect,1,2.439,1,5,0,5,0,1,,,,,,,,,,,,
61464fe94ab78bd0f17d0dc0,TCR,2024-06-10_13h57.33.072,LearnStrategy,2023.2.3,Linux x86_64,59.88023952,9,1,7,0.000730058,0.003773756,1,0,0,1.2234,rock_grid_rect_2,3,15,-1,-1,1.223,0.083921907,-0.253005981,1,0,0,2.2155,Diorite_rect,3,2.216,1,6,0,6,0,1,,,,,,,,,,,,
61464fe94ab78bd0f17d0dc0,TCR,2024-06-10_13h57.33.072,LearnStrategy,2023.2.3,Linux x86_64,59.88023952,9,1,8,0.01183645,0.00583183,1,0,0,1.2247,rock_grid_rect_2,2,02,-1,-1,1.225,-0.144216976,-0.242583369,1,0,0,1.5031,Basalt_rect,2,1.503,1,7,0,7,0,1,,,,,,,,,,,,
61464fe94ab78bd0f17d0dc0,TCR,2024-06-10_13h57.33.072,LearnStrategy,2023.2.3,Linux x86_64,59.88023952,9,1,9,-0.036406325,0.007177039,1,0,0,1.7226,rock_grid_rect_2,4,14,-1,-1,1.723,0.338594105,-0.235396479,1,0,0,1.7876,Gabbro_rect,4,1.788,1,8,0,8,0,1,,,,,,,,,,,,
61464fe94ab78bd0f17d0dc0,TCR,2024-06-10_13h57.33.072,LearnStrategy,2023.2.3,Linux x86_64,59.88023952,9,1,10,-0.008864855,0.014055171,1,0,0,1.2725,rock_grid_rect_2,6,10,-1,-1,1.273,-0.11445761,-0.401733398,1,0,0,3.1376,Pegmatite_rect,6,3.138,1,9,0,9,0,1,,,,,,,,,,,,
61464fe94ab78bd0f17d0dc0,TCR,2024-06-10_13h57.33.072,LearnStrategy,2023.2.3,Linux x86_64,59.88023952,9,1,11,-0.026840783,0.007918667,1,0,0,1.5897,rock_grid_rect_2,1,14,-1,-1,1.59,-0.437666127,-0.243680927,1,0,0,1.5705,Andesite_rect,1,1.571,1,10,0,10,0,1,,,,,,,,,,,,
61464fe94ab78bd0f17d0dc0,TCR,2024-06-10_13h57.33.072,LearnStrategy,2023.2.3,Linux x86_64,59.88023952,9,1,12,-0.006634564,0.005353543,1,0,0,1.1233,rock_grid_rect_2,3,07,-1,-1,1.123,0.123309068,-0.245536195,1,0,0,2.9904,Diorite_rect,3,2.99,1,11,0,11,0,1,,,,,,,,,,,,
61464fe94ab78bd0f17d0dc0,TCR,2024-06-10_13h57.33.072,LearnStrategy,2023.2.3,Linux x86_64,59.88023952,9,1,13,-0.023252675,-0.008302895,1,0,0,1.7229,rock_grid_rect_2,7,10,-1,-1,1.723,0.11104222,-0.407088445,1,0,0,2.7957,Peridotite_rect,7,2.796,1,12,0,12,0,1,,,,,,,,,,,,
61464fe94ab78bd0f17d0dc0,TCR,2024-06-10_13h57.33.072,LearnStrategy,2023.2.3,Linux x86_64,59.88023952,9,1,14,0.017031244,-0.000337162,1,0,0,1.3073,rock_grid_rect_2,4,03,-1,-1,1.307,-0.107377675,-0.243010758,1,0,0,4.47,Basalt_rect,2,4.47,0,13,0,13,0,1,,,,,,,,,,,,
61464fe94ab78bd0f17d0dc0,TCR,2024-06-10_13h57.33.072,LearnStrategy,2023.2.3,Linux x86_64,59.88023952,9,1,15,0.00735402,-0.001501594,1,0,0,1.2401,rock_grid_rect_2,5,14,-1,-1,1.24,-0.355202223,-0.383230576,1,0,0,3.3949,Obsidian_rect,5,3.395,1,14,0,14,0,1,,,,,,,,,,,,
61464fe94ab78bd0f17d0dc0,TCR,2024-06-10_13h57.33.072,LearnStrategy,2023.2.3,Linux x86_64,59.88023952,9,1,16,-0.02249561,-0.015602971,1,0,0,1.2409,rock_grid_rect_2,6,11,-1,-1,1.241,-0.15716302,-0.402836616,1,0,0,3.3195,Pegmatite_rect,6,3.32,1,15,0,15,0,1,,,,,,,,,,,,
61464fe94ab78bd0f17d0dc0,TCR,2024-06-10_13h57.33.072,LearnStrategy,2023.2.3,Linux x86_64,59.88023952,9,2,1,,,,,,,,5,08,,,,,,,,,,,5,1.68,1,,,,,,-0.461910158,-0.413831039,1,0,0,1.6804,Obsidian_rect,0,0,0,0,1
61464fe94ab78bd0f17d0dc0,TCR,2024-06-10_13h57.33.072,LearnStrategy,2023.2.3,Linux x86_64,59.88023952,9,2,2,,,,,,,,8,16,,,,,,,,,,,8,2.035,1,,,,,,0.449127627,-0.387140623,1,0,0,2.0348,Pumice_rect,1,0,1,0,1
61464fe94ab78bd0f17d0dc0,TCR,2024-06-10_13h57.33.072,LearnStrategy,2023.2.3,Linux x86_64,59.88023952,9,2,3,,,,,,,,2,06,,,,,,,,,,,2,1.528,1,,,,,,-0.172659861,-0.263423579,1,0,0,1.5277,Basalt_rect,2,0,2,0,1
61464fe94ab78bd0f17d0dc0,TCR,2024-06-10_13h57.33.072,LearnStrategy,2023.2.3,Linux x86_64,59.88023952,9,2,4,,,,,,,,6,06,,,,,,,,,,,4,6.443,0,,,,,,0.335105072,-0.233842303,1,0,0,6.4428,Gabbro_rect,3,0,3,0,1
61464fe94ab78bd0f17d0dc0,TCR,2024-06-10_13h57.33.072,LearnStrategy,2023.2.3,Linux x86_64,59.88023952,9,2,5,,,,,,,,2,04,,,,,,,,,,,2,1.653,1,,,,,,-0.173821105,-0.260177541,1,0,0,1.6526,Basalt_rect,4,0,4,0,1
61464fe94ab78bd0f17d0dc0,TCR,2024-06-10_13h57.33.072,LearnStrategy,2023.2.3,Linux x86_64,59.88023952,9,2,6,,,,,,,,3,11,,,,,,,,,,,3,1.754,1,,,,,,0.104372768,-0.244742452,1,0,0,1.7542,Diorite_rect,5,0,5,0,1
61464fe94ab78bd0f17d0dc0,TCR,2024-06-10_13h57.33.072,LearnStrategy,2023.2.3,Linux x86_64,59.88023952,9,2,7,,,,,,,,4,15,,,,,,,,,,,4,2.531,1,,,,,,0.352336615,-0.246054206,1,0,0,2.5306,Gabbro_rect,6,0,6,0,1
61464fe94ab78bd0f17d0dc0,TCR,2024-06-10_13h57.33.072,LearnStrategy,2023.2.3,Linux x86_64,59.88023952,9,2,8,,,,,,,,8,06,,,,,,,,,,,8,1.858,1,,,,,,0.354115661,-0.380615306,1,0,0,1.8583,Pumice_rect,7,0,7,0,1
61464fe94ab78bd0f17d0dc0,TCR,2024-06-10_13h57.33.072,LearnStrategy,2023.2.3,Linux x86_64,59.88023952,9,2,9,,,,,,,,7,15,,,,,,,,,,,7,1.883,1,,,,,,0.085387252,-0.379689391,1,0,0,1.8834,Peridotite_rect,8,0,8,0,1
61464fe94ab78bd0f17d0dc0,TCR,2024-06-10_13h57.33.072,LearnStrategy,2023.2.3,Linux x86_64,59.88023952,9,2,10,,,,,,,,7,07,,,,,,,,,,,7,1.54,1,,,,,,0.085387252,-0.379689391,1,0,0,1.5398,Peridotite_rect,9,0,9,0,1
61464fe94ab78bd0f17d0dc0,TCR,2024-06-10_13h57.33.072,LearnStrategy,2023.2.3,Linux x86_64,59.88023952,9,2,11,,,,,,,,5,09,,,,,,,,,,,5,2.786,1,,,,,,-0.436804651,-0.389468986,1,0,0,2.7863,Obsidian_rect,10,0,10,0,1
61464fe94ab78bd0f17d0dc0,TCR,2024-06-10_13h57.33.072,LearnStrategy,2023.2.3,Linux x86_64,59.88023952,9,2,12,,,,,,,,6,05,,,,,,,,,,,6,8.22,1,,,,,,-0.112087626,-0.418043826,1,0,0,8.2198,Pegmatite_rect,11,0,11,0,1
61464fe94ab78bd0f17d0dc0,TCR,2024-06-10_13h57.33.072,LearnStrategy,2023.2.3,Linux x86_64,59.88023952,9,2,13,,,,,,,,1,01,,,,,,,,,,,3,6.04,0,,,,,,0.160850919,-0.229001972,1,0,0,6.0396,Diorite_rect,12,0,12,0,1
61464fe94ab78bd0f17d0dc0,TCR,2024-06-10_13h57.33.072,LearnStrategy,2023.2.3,Linux x86_64,59.88023952,9,2,14,,,,,,,,1,04,,,,,,,,,,,1,2.118,1,,,,,,-0.431134542,-0.249310346,1,0,0,2.1183,Andesite_rect,13,0,13,0,1
61464fe94ab78bd0f17d0dc0,TCR,2024-06-10_13h57.33.072,LearnStrategy,2023.2.3,Linux x86_64,59.88023952,9,2,15,,,,,,,,3,06,,,,,,,,,,,4,5.082,0,,,,,,0.309645317,-0.234077704,1,0,0,5.0816,Gabbro_rect,14,0,14,0,1
61464fe94ab78bd0f17d0dc0,TCR,2024-06-10_13h57.33.072,LearnStrategy,2023.2.3,Linux x86_64,59.88023952,9,2,16,,,,,,,,4,11,,,,,,,,,,,2,1.748,0,,,,,,-0.123447758,-0.236138501,1,0,0,1.7483,Basalt_rect,15,0,15,0,1
61464fe94ab78bd0f17d0dc0,TCR,2024-06-10_13h57.33.072,LearnStrategy,2023.2.3,Linux x86_64,59.88023952,,,,,,,,,,,,,,,,,,,,,,,,,,,,,,,,,,,,,,,,,,
61464fe94ab78bd0f17d0dc0,TCR,2024-06-10_13h57.33.072,LearnStrategy,2023.2.3,Linux x86_64,59.88023952,,,,,,,,,,,,,,,,,,,,,,,,,,,,,,,,,,,,,,,,,,
61464fe94ab78bd0f17d0dc0,TCR,2024-06-10_13h57.33.072,LearnStrategy,2023.2.3,Linux x86_64,59.88023952,,,,,,,,,,,1,03,1,1,,,,,,,,,,,,,,,,,,,,,,,,,,,,
61464fe94ab78bd0f17d0dc0,TCR,2024-06-10_13h57.33.072,LearnStrategy,2023.2.3,Linux x86_64,59.88023952,,,,,,,,,,,4,03,1,2,,,,,,,,,,,,,,,,,,,,,,,,,,,,
61464fe94ab78bd0f17d0dc0,TCR,2024-06-10_13h57.33.072,LearnStrategy,2023.2.3,Linux x86_64,59.88023952,,,,,,,,,,,8,08,1,3,,,,,,,,,,,,,,,,,,,,,,,,,,,,
61464fe94ab78bd0f17d0dc0,TCR,2024-06-10_13h57.33.072,LearnStrategy,2023.2.3,Linux x86_64,59.88023952,,,,,,,,,,,4,05,1,4,,,,,,,,,,,,,,,,,,,,,,,,,,,,
61464fe94ab78bd0f17d0dc0,TCR,2024-06-10_13h57.33.072,LearnStrategy,2023.2.3,Linux x86_64,59.88023952,,,,,,,,,,,6,10,1,5,,,,,,,,,,,,,,,,,,,,,,,,,,,,
61464fe94ab78bd0f17d0dc0,TCR,2024-06-10_13h57.33.072,LearnStrategy,2023.2.3,Linux x86_64,59.88023952,,,,,,,,,,,5,10,1,6,,,,,,,,,,,,,,,,,,,,,,,,,,,,
61464fe94ab78bd0f17d0dc0,TCR,2024-06-10_13h57.33.072,LearnStrategy,2023.2.3,Linux x86_64,59.88023952,,,,,,,,,,,8,03,1,7,,,,,,,,,,,,,,,,,,,,,,,,,,,,
61464fe94ab78bd0f17d0dc0,TCR,2024-06-10_13h57.33.072,LearnStrategy,2023.2.3,Linux x86_64,59.88023952,,,,,,,,,,,2,09,1,8,,,,,,,,,,,,,,,,,,,,,,,,,,,,
61464fe94ab78bd0f17d0dc0,TCR,2024-06-10_13h57.33.072,LearnStrategy,2023.2.3,Linux x86_64,59.88023952,,,,,,,,,,,5,04,2,1,,,,,,,,,,,,,,,,,,,,,,,,,,,,
61464fe94ab78bd0f17d0dc0,TCR,2024-06-10_13h57.33.072,LearnStrategy,2023.2.3,Linux x86_64,59.88023952,,,,,,,,,,,5,07,2,2,,,,,,,,,,,,,,,,,,,,,,,,,,,,
61464fe94ab78bd0f17d0dc0,TCR,2024-06-10_13h57.33.072,LearnStrategy,2023.2.3,Linux x86_64,59.88023952,,,,,,,,,,,2,01,2,3,,,,,,,,,,,,,,,,,,,,,,,,,,,,
61464fe94ab78bd0f17d0dc0,TCR,2024-06-10_13h57.33.072,LearnStrategy,2023.2.3,Linux x86_64,59.88023952,,,,,,,,,,,3,12,2,4,,,,,,,,,,,,,,,,,,,,,,,,,,,,
61464fe94ab78bd0f17d0dc0,TCR,2024-06-10_13h57.33.072,LearnStrategy,2023.2.3,Linux x86_64,59.88023952,,,,,,,,,,,5,14,2,5,,,,,,,,,,,,,,,,,,,,,,,,,,,,
61464fe94ab78bd0f17d0dc0,TCR,2024-06-10_13h57.33.072,LearnStrategy,2023.2.3,Linux x86_64,59.88023952,,,,,,,,,,,7,13,2,6,,,,,,,,,,,,,,,,,,,,,,,,,,,,
61464fe94ab78bd0f17d0dc0,TCR,2024-06-10_13h57.33.072,LearnStrategy,2023.2.3,Linux x86_64,59.88023952,,,,,,,,,,,4,14,2,7,,,,,,,,,,,,,,,,,,,,,,,,,,,,
61464fe94ab78bd0f17d0dc0,TCR,2024-06-10_13h57.33.072,LearnStrategy,2023.2.3,Linux x86_64,59.88023952,,,,,,,,,,,8,05,2,8,,,,,,,,,,,,,,,,,,,,,,,,,,,,
61464fe94ab78bd0f17d0dc0,TCR,2024-06-10_13h57.33.072,LearnStrategy,2023.2.3,Linux x86_64,59.88023952,,,,,,,,,,,6,07,3,1,,,,,,,,,,,,,,,,,,,,,,,,,,,,
61464fe94ab78bd0f17d0dc0,TCR,2024-06-10_13h57.33.072,LearnStrategy,2023.2.3,Linux x86_64,59.88023952,,,,,,,,,,,3,10,3,2,,,,,,,,,,,,,,,,,,,,,,,,,,,,
61464fe94ab78bd0f17d0dc0,TCR,2024-06-10_13h57.33.072,LearnStrategy,2023.2.3,Linux x86_64,59.88023952,,,,,,,,,,,3,07,3,3,,,,,,,,,,,,,,,,,,,,,,,,,,,,
61464fe94ab78bd0f17d0dc0,TCR,2024-06-10_13h57.33.072,LearnStrategy,2023.2.3,Linux x86_64,59.88023952,,,,,,,,,,,7,05,3,4,,,,,,,,,,,,,,,,,,,,,,,,,,,,
61464fe94ab78bd0f17d0dc0,TCR,2024-06-10_13h57.33.072,LearnStrategy,2023.2.3,Linux x86_64,59.88023952,,,,,,,,,,,5,16,3,5,,,,,,,,,,,,,,,,,,,,,,,,,,,,
61464fe94ab78bd0f17d0dc0,TCR,2024-06-10_13h57.33.072,LearnStrategy,2023.2.3,Linux x86_64,59.88023952,,,,,,,,,,,1,14,3,6,,,,,,,,,,,,,,,,,,,,,,,,,,,,
61464fe94ab78bd0f17d0dc0,TCR,2024-06-10_13h57.33.072,LearnStrategy,2023.2.3,Linux x86_64,59.88023952,,,,,,,,,,,6,03,3,7,,,,,,,,,,,,,,,,,,,,,,,,,,,,
61464fe94ab78bd0f17d0dc0,TCR,2024-06-10_13h57.33.072,LearnStrategy,2023.2.3,Linux x86_64,59.88023952,,,,,,,,,,,6,12,3,8,,,,,,,,,,,,,,,,,,,,,,,,,,,,
61464fe94ab78bd0f17d0dc0,TCR,2024-06-10_13h57.33.072,LearnStrategy,2023.2.3,Linux x86_64,59.88023952,,,,,,,,,,,6,11,4,1,,,,,,,,,,,,,,,,,,,,,,,,,,,,
61464fe94ab78bd0f17d0dc0,TCR,2024-06-10_13h57.33.072,LearnStrategy,2023.2.3,Linux x86_64,59.88023952,,,,,,,,,,,1,10,4,2,,,,,,,,,,,,,,,,,,,,,,,,,,,,
61464fe94ab78bd0f17d0dc0,TCR,2024-06-10_13h57.33.072,LearnStrategy,2023.2.3,Linux x86_64,59.88023952,,,,,,,,,,,4,08,4,3,,,,,,,,,,,,,,,,,,,,,,,,,,,,
61464fe94ab78bd0f17d0dc0,TCR,2024-06-10_13h57.33.072,LearnStrategy,2023.2.3,Linux x86_64,59.88023952,,,,,,,,,,,5,05,4,4,,,,,,,,,,,,,,,,,,,,,,,,,,,,
61464fe94ab78bd0f17d0dc0,TCR,2024-06-10_13h57.33.072,LearnStrategy,2023.2.3,Linux x86_64,59.88023952,,,,,,,,,,,7,06,4,5,,,,,,,,,,,,,,,,,,,,,,,,,,,,
61464fe94ab78bd0f17d0dc0,TCR,2024-06-10_13h57.33.072,LearnStrategy,2023.2.3,Linux x86_64,59.88023952,,,,,,,,,,,7,14,4,6,,,,,,,,,,,,,,,,,,,,,,,,,,,,
61464fe94ab78bd0f17d0dc0,TCR,2024-06-10_13h57.33.072,LearnStrategy,2023.2.3,Linux x86_64,59.88023952,,,,,,,,,,,1,09,4,7,,,,,,,,,,,,,,,,,,,,,,,,,,,,
61464fe94ab78bd0f17d0dc0,TCR,2024-06-10_13h57.33.072,LearnStrategy,2023.2.3,Linux x86_64,59.88023952,,,,,,,,,,,3,13,4,8,,,,,,,,,,,,,,,,,,,,,,,,,,,,
61464fe94ab78bd0f17d0dc0,TCR,2024-06-10_13h57.33.072,LearnStrategy,2023.2.3,Linux x86_64,59.88023952,,,,,,,,,,,3,15,5,1,,,,,,,,,,,,,,,,,,,,,,,,,,,,
61464fe94ab78bd0f17d0dc0,TCR,2024-06-10_13h57.33.072,LearnStrategy,2023.2.3,Linux x86_64,59.88023952,,,,,,,,,,,2,12,5,2,,,,,,,,,,,,,,,,,,,,,,,,,,,,
61464fe94ab78bd0f17d0dc0,TCR,2024-06-10_13h57.33.072,LearnStrategy,2023.2.3,Linux x86_64,59.88023952,,,,,,,,,,,8,15,5,3,,,,,,,,,,,,,,,,,,,,,,,,,,,,
61464fe94ab78bd0f17d0dc0,TCR,2024-06-10_13h57.33.072,LearnStrategy,2023.2.3,Linux x86_64,59.88023952,,,,,,,,,,,2,02,5,4,,,,,,,,,,,,,,,,,,,,,,,,,,,,
61464fe94ab78bd0f17d0dc0,TCR,2024-06-10_13h57.33.072,LearnStrategy,2023.2.3,Linux x86_64,59.88023952,,,,,,,,,,,8,02,5,5,,,,,,,,,,,,,,,,,,,,,,,,,,,,
61464fe94ab78bd0f17d0dc0,TCR,2024-06-10_13h57.33.072,LearnStrategy,2023.2.3,Linux x86_64,59.88023952,,,,,,,,,,,4,01,5,6,,,,,,,,,,,,,,,,,,,,,,,,,,,,
61464fe94ab78bd0f17d0dc0,TCR,2024-06-10_13h57.33.072,LearnStrategy,2023.2.3,Linux x86_64,59.88023952,,,,,,,,,,,7,04,5,7,,,,,,,,,,,,,,,,,,,,,,,,,,,,
61464fe94ab78bd0f17d0dc0,TCR,2024-06-10_13h57.33.072,LearnStrategy,2023.2.3,Linux x86_64,59.88023952,,,,,,,,,,,7,10,5,8,,,,,,,,,,,,,,,,,,,,,,,,,,,,
61464fe94ab78bd0f17d0dc0,TCR,2024-06-10_13h57.33.072,LearnStrategy,2023.2.3,Linux x86_64,59.88023952,,,,,,,,,,,3,16,6,1,,,,,,,,,,,,,,,,,,,,,,,,,,,,
61464fe94ab78bd0f17d0dc0,TCR,2024-06-10_13h57.33.072,LearnStrategy,2023.2.3,Linux x86_64,59.88023952,,,,,,,,,,,6,08,6,2,,,,,,,,,,,,,,,,,,,,,,,,,,,,
61464fe94ab78bd0f17d0dc0,TCR,2024-06-10_13h57.33.072,LearnStrategy,2023.2.3,Linux x86_64,59.88023952,,,,,,,,,,,1,06,6,3,,,,,,,,,,,,,,,,,,,,,,,,,,,,
61464fe94ab78bd0f17d0dc0,TCR,2024-06-10_13h57.33.072,LearnStrategy,2023.2.3,Linux x86_64,59.88023952,,,,,,,,,,,2,11,6,4,,,,,,,,,,,,,,,,,,,,,,,,,,,,
61464fe94ab78bd0f17d0dc0,TCR,2024-06-10_13h57.33.072,LearnStrategy,2023.2.3,Linux x86_64,59.88023952,,,,,,,,,,,1,02,6,5,,,,,,,,,,,,,,,,,,,,,,,,,,,,
61464fe94ab78bd0f17d0dc0,TCR,2024-06-10_13h57.33.072,LearnStrategy,2023.2.3,Linux x86_64,59.88023952,,,,,,,,,,,2,14,6,6,,,,,,,,,,,,,,,,,,,,,,,,,,,,
61464fe94ab78bd0f17d0dc0,TCR,2024-06-10_13h57.33.072,LearnStrategy,2023.2.3,Linux x86_64,59.88023952,,,,,,,,,,,8,10,6,7,,,,,,,,,,,,,,,,,,,,,,,,,,,,
61464fe94ab78bd0f17d0dc0,TCR,2024-06-10_13h57.33.072,LearnStrategy,2023.2.3,Linux x86_64,59.88023952,,,,,,,,,,,4,10,6,8,,,,,,,,,,,,,,,,,,,,,,,,,,,,