participant,condition,date,expName,psychopyVersion,OS,frameRate,block,phase,trial,learn_mouse_2.x,learn_mouse_2.y,learn_mouse_2.leftButton,learn_mouse_2.midButton,learn_mouse_2.rightButton,learn_mouse_2.time,learn_mouse_2.clicked_name,cat,token,row,col,t_select,cat_mouse_l.x,cat_mouse_l.y,cat_mouse_l.leftButton,cat_mouse_l.midButton,cat_mouse_l.rightButton,cat_mouse_l.time,cat_mouse_l.clicked_name,resp,t_resp,corr,train_trials.thisRepN,train_trials.thisTrialN,train_trials.thisN,train_trials.thisIndex,train_trials.ran,cat_mouse_t.x,cat_mouse_t.y,cat_mouse_t.leftButton,cat_mouse_t.midButton,cat_mouse_t.rightButton,cat_mouse_t.time,cat_mouse_t.clicked_name,test_trials.thisRepN,test_trials.thisTrialN,test_trials.thisN,test_trials.thisIndex,test_trials.ran,Bonus
614de6895ac2892842f52ec7,TCR,2024-06-25_12h45.37.963,LearnStrategy,2023.2.3,Win32,59.52380952,,,,,,,,,,,,,,,,,,,,,,,,,,,,,,,,,,,,,,,,,,,
614de6895ac2892842f52ec7,TCR,2024-06-25_12h45.37.963,LearnStrategy,2023.2.3,Win32,59.52380952,1,1,1,0.099074116,-0.002777771,1,0,0,10.0545,rock_grid_rect_2,6,13,-1,-1,10.055,-0.312962956,-0.382407436,1,0,0,47.4466,Obsidian_rect,5,47.447,0,0,0,0,0,1,,,,,,,,,,,,,
614de6895ac2892842f52ec7,TCR,2024-06-25_12h45.37.963,LearnStrategy,2023.2.3,Win32,59.52380952,1,1,2,0.049074102,-0.003703718,1,0,0,11.1765,rock_grid_rect_2,2,10,-1,-1,11.176,0.359259288,-0.237963005,1,0,0,36.3987,Gabbro_rect,4,36.399,0,1,0,1,0,1,,,,,,,,,,,,,
614de6895ac2892842f52ec7,TCR,2024-06-25_12h45.37.963,LearnStrategy,2023.2.3,Win32,59.52380952,1,1,3,-0.108333305,0.005555541,1,0,0,8.1087,rock_grid_rect_2,8,09,-1,-1,8.109,0.321296268,-0.385185171,1,0,0,9.2284,Pumice_rect,8,9.228,1,2,0,2,0,1,,,,,,,,,,,,,
614de6895ac2892842f52ec7,TCR,2024-06-25_12h45.37.963,LearnStrategy,2023.2.3,Win32,59.52380952,1,1,4,0.012962977,0.000925912,1,0,0,2.1087,rock_grid_rect_2,7,07,-1,-1,2.109,0.094444487,-0.382407436,1,0,0,11.0129,Peridotite_rect,7,11.013,1,3,0,3,0,1,,,,,,,,,,,,,
614de6895ac2892842f52ec7,TCR,2024-06-25_12h45.37.963,LearnStrategy,2023.2.3,Win32,59.52380952,1,1,5,-0.010185171,0.014814801,1,0,0,1.8584,rock_grid_rect_2,5,08,-1,-1,1.858,-0.335185192,-0.408333319,1,0,0,3.7283,Obsidian_rect,5,3.728,1,4,0,4,0,1,,,,,,,,,,,,,
614de6895ac2892842f52ec7,TCR,2024-06-25_12h45.37.963,LearnStrategy,2023.2.3,Win32,59.52380952,1,1,6,-0.046296296,0.013888889,1,0,0,1.8143,rock_grid_rect_2,5,04,-1,-1,1.814,-0.373148141,-0.385185171,1,0,0,5.161,Obsidian_rect,5,5.161,1,5,0,5,0,1,,,,,,,,,,,,,
614de6895ac2892842f52ec7,TCR,2024-06-25_12h45.37.963,LearnStrategy,2023.2.3,Win32,59.52380952,1,1,7,-0.018518519,-0.000925947,1,0,0,1.3472,rock_grid_rect_2,4,15,-1,-1,1.347,0.075925968,-0.244444459,1,0,0,7.1128,Diorite_rect,3,7.113,0,6,0,6,0,1,,,,,,,,,,,,,
614de6895ac2892842f52ec7,TCR,2024-06-25_12h45.37.963,LearnStrategy,2023.2.3,Win32,59.52380952,1,1,8,-0.007407365,0.010185171,1,0,0,1.3753,rock_grid_rect_2,2,08,-1,-1,1.375,-0.082407422,-0.236111111,1,0,0,7.6625,Basalt_rect,2,7.663,1,7,0,7,0,1,,,,,,,,,,,,,
614de6895ac2892842f52ec7,TCR,2024-06-25_12h45.37.963,LearnStrategy,2023.2.3,Win32,59.52380952,1,1,9,-0.010185171,0.008333312,1,0,0,1.2638,rock_grid_rect_2,4,16,-1,-1,1.264,0.32685188,-0.246296282,1,0,0,9.5797,Gabbro_rect,4,9.58,1,8,0,8,0,1,,,,,,,,,,,,,
614de6895ac2892842f52ec7,TCR,2024-06-25_12h45.37.963,LearnStrategy,2023.2.3,Win32,59.52380952,1,1,10,-0.000925912,0.002777771,1,0,0,1.2253,rock_grid_rect_2,6,06,-1,-1,1.225,-0.377777771,-0.247222265,1,0,0,10.8124,Andesite_rect,1,10.812,0,9,0,9,0,1,,,,,,,,,,,,,
614de6895ac2892842f52ec7,TCR,2024-06-25_12h45.37.963,LearnStrategy,2023.2.3,Win32,59.52380952,1,1,11,-0.042592578,0,1,0,0,1.3418,rock_grid_rect_2,1,03,-1,-1,1.342,0.156481496,-0.380555541,1,0,0,9.3457,Peridotite_rect,7,9.346,0,10,0,10,0,1,,,,,,,,,,,,,
614de6895ac2892842f52ec7,TCR,2024-06-25_12h45.37.963,LearnStrategy,2023.2.3,Win32,59.52380952,1,1,12,-0.04351849,-0.018518519,1,0,0,1.3581,rock_grid_rect_2,1,09,-1,-1,1.358,-0.400925919,-0.239814829,1,0,0,3.6447,Andesite_rect,1,3.645,1,11,0,11,0,1,,,,,,,,,,,,,
614de6895ac2892842f52ec7,TCR,2024-06-25_12h45.37.963,LearnStrategy,2023.2.3,Win32,59.52380952,1,1,13,-0.04351849,-0.008333347,1,0,0,1.1639,rock_grid_rect_2,7,04,-1,-1,1.164,0.098148134,-0.401851866,1,0,0,4.7957,Peridotite_rect,7,4.796,1,12,0,12,0,1,,,,,,,,,,,,,
614de6895ac2892842f52ec7,TCR,2024-06-25_12h45.37.963,LearnStrategy,2023.2.3,Win32,59.52380952,1,1,14,-0.037962949,-0.002777771,1,0,0,1.4255,rock_grid_rect_2,3,15,-1,-1,1.426,0.173148191,-0.246296282,1,0,0,21.2477,Diorite_rect,3,21.248,1,13,0,13,0,1,,,,,,,,,,,,,
614de6895ac2892842f52ec7,TCR,2024-06-25_12h45.37.963,LearnStrategy,2023.2.3,Win32,59.52380952,1,1,15,-0.02870369,-0.01203703,1,0,0,1.4589,rock_grid_rect_2,8,03,-1,-1,1.459,0.375,-0.392592607,1,0,0,2.1107,Pumice_rect,8,2.111,1,14,0,14,0,1,,,,,,,,,,,,,
614de6895ac2892842f52ec7,TCR,2024-06-25_12h45.37.963,LearnStrategy,2023.2.3,Win32,59.52380952,1,1,16,-0.011111083,0.023148148,1,0,0,1.1146,rock_grid_rect_2,3,14,-1,-1,1.115,-0.417592578,-0.237037023,1,0,0,10.8632,Andesite_rect,1,10.863,0,15,0,15,0,1,,,,,,,,,,,,,
614de6895ac2892842f52ec7,TCR,2024-06-25_12h45.37.963,LearnStrategy,2023.2.3,Win32,59.52380952,1,2,1,,,,,,,,2,04,,,,,,,,,,,2,6.477,1,,,,,,-0.115740741,-0.24537037,1,0,0,6.4775,Basalt_rect,0,0,0,0,1,
614de6895ac2892842f52ec7,TCR,2024-06-25_12h45.37.963,LearnStrategy,2023.2.3,Win32,59.52380952,1,2,2,,,,,,,,5,07,,,,,,,,,,,5,14.869,1,,,,,,-0.349999993,-0.413888931,1,0,0,14.8694,Obsidian_rect,1,0,1,0,1,
614de6895ac2892842f52ec7,TCR,2024-06-25_12h45.37.963,LearnStrategy,2023.2.3,Win32,59.52380952,1,2,3,,,,,,,,4,13,,,,,,,,,,,4,2.945,1,,,,,,0.352777834,-0.231481481,1,0,0,2.9455,Gabbro_rect,2,0,2,0,1,
614de6895ac2892842f52ec7,TCR,2024-06-25_12h45.37.963,LearnStrategy,2023.2.3,Win32,59.52380952,1,2,4,,,,,,,,6,10,,,,,,,,,,,7,12.396,0,,,,,,0.116666653,-0.391666695,1,0,0,12.3958,Peridotite_rect,3,0,3,0,1,
614de6895ac2892842f52ec7,TCR,2024-06-25_12h45.37.963,LearnStrategy,2023.2.3,Win32,59.52380952,1,2,5,,,,,,,,5,12,,,,,,,,,,,5,1.967,1,,,,,,-0.393518519,-0.400000042,1,0,0,1.9675,Obsidian_rect,4,0,4,0,1,
614de6895ac2892842f52ec7,TCR,2024-06-25_12h45.37.963,LearnStrategy,2023.2.3,Win32,59.52380952,1,2,6,,,,,,,,8,02,,,,,,,,,,,8,1.611,1,,,,,,0.381481453,-0.387962977,1,0,0,1.6115,Pumice_rect,5,0,5,0,1,
614de6895ac2892842f52ec7,TCR,2024-06-25_12h45.37.963,LearnStrategy,2023.2.3,Win32,59.52380952,1,2,7,,,,,,,,2,14,,,,,,,,,,,4,10.12,0,,,,,,0.359259288,-0.246296282,1,0,0,10.1203,Gabbro_rect,6,0,6,0,1,
614de6895ac2892842f52ec7,TCR,2024-06-25_12h45.37.963,LearnStrategy,2023.2.3,Win32,59.52380952,1,2,8,,,,,,,,3,13,,,,,,,,,,,6,13.396,0,,,,,,-0.099074046,-0.406481496,1,0,0,13.3956,Pegmatite_rect,7,0,7,0,1,
614de6895ac2892842f52ec7,TCR,2024-06-25_12h45.37.963,LearnStrategy,2023.2.3,Win32,59.52380952,1,2,9,,,,,,,,1,10,,,,,,,,,,,3,6.762,0,,,,,,0.10555557,-0.256481524,1,0,0,6.7618,Diorite_rect,8,0,8,0,1,
614de6895ac2892842f52ec7,TCR,2024-06-25_12h45.37.963,LearnStrategy,2023.2.3,Win32,59.52380952,1,2,10,,,,,,,,3,02,,,,,,,,,,,1,3.081,0,,,,,,-0.397222201,-0.262962977,1,0,0,3.0806,Andesite_rect,9,0,9,0,1,
614de6895ac2892842f52ec7,TCR,2024-06-25_12h45.37.963,LearnStrategy,2023.2.3,Win32,59.52380952,1,2,11,,,,,,,,8,16,,,,,,,,,,,4,1.877,0,,,,,,0.353703675,-0.249074088,1,0,0,1.877,Gabbro_rect,10,0,10,0,1,
614de6895ac2892842f52ec7,TCR,2024-06-25_12h45.37.963,LearnStrategy,2023.2.3,Win32,59.52380952,1,2,12,,,,,,,,6,05,,,,,,,,,,,6,7.022,1,,,,,,-0.083333333,-0.402777778,1,0,0,7.0222,Pegmatite_rect,11,0,11,0,1,
614de6895ac2892842f52ec7,TCR,2024-06-25_12h45.37.963,LearnStrategy,2023.2.3,Win32,59.52380952,1,2,13,,,,,,,,7,13,,,,,,,,,,,1,8.344,0,,,,,,-0.337962963,-0.260185171,1,0,0,8.3444,Andesite_rect,12,0,12,0,1,
614de6895ac2892842f52ec7,TCR,2024-06-25_12h45.37.963,LearnStrategy,2023.2.3,Win32,59.52380952,1,2,14,,,,,,,,1,05,,,,,,,,,,,7,5.978,0,,,,,,0.155555584,-0.387962977,1,0,0,5.9776,Peridotite_rect,13,0,13,0,1,
614de6895ac2892842f52ec7,TCR,2024-06-25_12h45.37.963,LearnStrategy,2023.2.3,Win32,59.52380952,1,2,15,,,,,,,,4,03,,,,,,,,,,,6,11.516,0,,,,,,-0.066666638,-0.396296325,1,0,0,11.5163,Pegmatite_rect,14,0,14,0,1,
614de6895ac2892842f52ec7,TCR,2024-06-25_12h45.37.963,LearnStrategy,2023.2.3,Win32,59.52380952,1,2,16,,,,,,,,7,16,,,,,,,,,,,1,3.303,0,,,,,,-0.393518519,-0.250925912,1,0,0,3.3034,Andesite_rect,15,0,15,0,1,
614de6895ac2892842f52ec7,TCR,2024-06-25_12h45.37.963,LearnStrategy,2023.2.3,Win32,59.52380952,2,1,1,-0.012962977,-0.005555577,1,0,0,2.0812,rock_grid_rect_2,8,03,-1,-1,2.081,0.365740741,-0.415740755,1,0,0,2.2357,Pumice_rect,8,2.236,1,0,0,0,0,1,,,,,,,,,,,,,
614de6895ac2892842f52ec7,TCR,2024-06-25_12h45.37.963,LearnStrategy,2023.2.3,Win32,59.52380952,2,1,2,-0.016666624,-0.0074074,1,0,0,1.0973,rock_grid_rect_2,7,12,-1,-1,1.097,-0.384259259,-0.234259288,1,0,0,4.02,Andesite_rect,1,4.02,0,1,0,1,0,1,,,,,,,,,,,,,
614de6895ac2892842f52ec7,TCR,2024-06-25_12h45.37.963,LearnStrategy,2023.2.3,Win32,59.52380952,2,1,3,-0.066666638,0.006481489,1,0,0,1.0967,rock_grid_rect_2,1,03,-1,-1,1.097,-0.376851859,-0.237037023,1,0,0,8.1068,Andesite_rect,1,8.107,1,2,0,2,0,1,,,,,,,,,,,,,
614de6895ac2892842f52ec7,TCR,2024-06-25_12h45.37.963,LearnStrategy,2023.2.3,Win32,59.52380952,2,1,4,-0.036111125,-0.005555577,1,0,0,1.1428,rock_grid_rect_2,8,13,-1,-1,1.143,0.346296381,-0.401851866,1,0,0,2.8118,Pumice_rect,8,2.812,1,3,0,3,0,1,,,,,,,,,,,,,
614de6895ac2892842f52ec7,TCR,2024-06-25_12h45.37.963,LearnStrategy,2023.2.3,Win32,59.52380952,2,1,5,-0.033333319,0.009259259,1,0,0,0.9639,rock_grid_rect_2,1,16,-1,-1,0.964,0.102777764,-0.229629658,1,0,0,5.6358,Diorite_rect,3,5.636,0,4,0,4,0,1,,,,,,,,,,,,,
614de6895ac2892842f52ec7,TCR,2024-06-25_12h45.37.963,LearnStrategy,2023.2.3,Win32,59.52380952,2,1,6,-0.007407365,0.00462963,1,0,0,1.7638,rock_grid_rect_2,7,04,-1,-1,1.764,0.133333347,-0.251851894,1,0,0,6.4571,Diorite_rect,3,6.457,0,5,0,5,0,1,,,,,,,,,,,,,
614de6895ac2892842f52ec7,TCR,2024-06-25_12h45.37.963,LearnStrategy,2023.2.3,Win32,59.52380952,2,1,7,-0.040740755,0.023148148,1,0,0,1.159,rock_grid_rect_2,7,14,-1,-1,1.159,-0.087962963,-0.387962977,1,0,0,10.1464,Pegmatite_rect,6,10.146,0,6,0,6,0,1,,,,,,,,,,,,,
614de6895ac2892842f52ec7,TCR,2024-06-25_12h45.37.963,LearnStrategy,2023.2.3,Win32,59.52380952,2,1,8,-0.035185143,-0.00462963,1,0,0,1.193,rock_grid_rect_2,1,16,-1,-1,1.193,0.09629631,-0.232407393,1,0,0,5.1953,Diorite_rect,3,5.195,0,7,0,7,0,1,,,,,,,,,,,,,
614de6895ac2892842f52ec7,TCR,2024-06-25_12h45.37.963,LearnStrategy,2023.2.3,Win32,59.52380952,2,1,9,-0.000925912,0,1,0,0,1.7807,rock_grid_rect_2,6,09,-1,-1,1.781,-0.101851852,-0.396296325,1,0,0,13.1467,Pegmatite_rect,6,13.147,1,8,0,8,0,1,,,,,,,,,,,,,
614de6895ac2892842f52ec7,TCR,2024-06-25_12h45.37.963,LearnStrategy,2023.2.3,Win32,59.52380952,2,1,10,-0.038888861,-0.022222236,1,0,0,1.2594,rock_grid_rect_2,2,09,-1,-1,1.259,-0.108333305,-0.232407393,1,0,0,2.5115,Basalt_rect,2,2.511,1,9,0,9,0,1,,,,,,,,,,,,,
614de6895ac2892842f52ec7,TCR,2024-06-25_12h45.37.963,LearnStrategy,2023.2.3,Win32,59.52380952,2,1,11,-0.034259231,-0.001851859,1,0,0,1.1142,rock_grid_rect_2,3,07,-1,-1,1.114,0.128703718,-0.248148176,1,0,0,10.629,Diorite_rect,3,10.629,1,10,0,10,0,1,,,,,,,,,,,,,
614de6895ac2892842f52ec7,TCR,2024-06-25_12h45.37.963,LearnStrategy,2023.2.3,Win32,59.52380952,2,1,12,0.002777806,-0.013888889,1,0,0,1.2143,rock_grid_rect_2,4,15,-1,-1,1.214,0.357407464,-0.231481481,1,0,0,1.7547,Gabbro_rect,4,1.755,1,11,0,11,0,1,,,,,,,,,,,,,
614de6895ac2892842f52ec7,TCR,2024-06-25_12h45.37.963,LearnStrategy,2023.2.3,Win32,59.52380952,2,1,13,-0.01944443,0.011111118,1,0,0,1.4647,rock_grid_rect_2,6,06,-1,-1,1.465,-0.099999958,-0.390740783,1,0,0,7.2794,Pegmatite_rect,6,7.279,1,12,0,12,0,1,,,,,,,,,,,,,
614de6895ac2892842f52ec7,TCR,2024-06-25_12h45.37.963,LearnStrategy,2023.2.3,Win32,59.52380952,2,1,14,-0.025925884,0.002777771,1,0,0,1.064,rock_grid_rect_2,3,10,-1,-1,1.064,-0.351851852,-0.244444459,1,0,0,8.4327,Andesite_rect,1,8.433,0,13,0,13,0,1,,,,,,,,,,,,,
614de6895ac2892842f52ec7,TCR,2024-06-25_12h45.37.963,LearnStrategy,2023.2.3,Win32,59.52380952,2,1,15,-0.062962921,-0.008333347,1,0,0,1.2308,rock_grid_rect_2,4,15,-1,-1,1.231,0.3648149,-0.237037023,1,0,0,2.595,Gabbro_rect,4,2.595,1,14,0,14,0,1,,,,,,,,,,,,,
614de6895ac2892842f52ec7,TCR,2024-06-25_12h45.37.963,LearnStrategy,2023.2.3,Win32,59.52380952,2,1,16,-0.021296254,0.021296289,1,0,0,1.1807,rock_grid_rect_2,3,16,-1,-1,1.181,-0.10555557,-0.378703718,1,0,0,7.5448,Pegmatite_rect,6,7.545,0,15,0,15,0,1,,,,,,,,,,,,,
614de6895ac2892842f52ec7,TCR,2024-06-25_12h45.37.963,LearnStrategy,2023.2.3,Win32,59.52380952,2,2,1,,,,,,,,1,02,,,,,,,,,,,3,10.162,0,,,,,,0.117592635,-0.23055557,1,0,0,10.1615,Diorite_rect,0,0,0,0,1,
614de6895ac2892842f52ec7,TCR,2024-06-25_12h45.37.963,LearnStrategy,2023.2.3,Win32,59.52380952,2,2,2,,,,,,,,1,06,,,,,,,,,,,3,4.553,0,,,,,,0.117592635,-0.23055557,1,0,0,4.5527,Diorite_rect,1,0,1,0,1,
614de6895ac2892842f52ec7,TCR,2024-06-25_12h45.37.963,LearnStrategy,2023.2.3,Win32,59.52380952,2,2,3,,,,,,,,8,08,,,,,,,,,,,8,1.494,1,,,,,,0.361111111,-0.396296325,1,0,0,1.4939,Pumice_rect,2,0,2,0,1,
614de6895ac2892842f52ec7,TCR,2024-06-25_12h45.37.963,LearnStrategy,2023.2.3,Win32,59.52380952,2,2,4,,,,,,,,2,05,,,,,,,,,,,2,2.094,1,,,,,,-0.137962977,-0.237963005,1,0,0,2.0936,Basalt_rect,3,0,3,0,1,
614de6895ac2892842f52ec7,TCR,2024-06-25_12h45.37.963,LearnStrategy,2023.2.3,Win32,59.52380952,2,2,5,,,,,,,,5,05,,,,,,,,,,,5,2.587,1,,,,,,-0.384259259,-0.391666695,1,0,0,2.5868,Obsidian_rect,4,0,4,0,1,
614de6895ac2892842f52ec7,TCR,2024-06-25_12h45.37.963,LearnStrategy,2023.2.3,Win32,59.52380952,2,2,6,,,,,,,,8,10,,,,,,,,,,,8,1.627,1,,,,,,0.406481566,-0.392592607,1,0,0,1.6266,Pumice_rect,5,0,5,0,1,
614de6895ac2892842f52ec7,TCR,2024-06-25_12h45.37.963,LearnStrategy,2023.2.3,Win32,59.52380952,2,2,7,,,,,,,,6,12,,,,,,,,,,,1,3.562,0,,,,,,-0.365740741,-0.253703718,1,0,0,3.5622,Andesite_rect,6,0,6,0,1,
614de6895ac2892842f52ec7,TCR,2024-06-25_12h45.37.963,LearnStrategy,2023.2.3,Win32,59.52380952,2,2,8,,,,,,,,5,10,,,,,,,,,,,5,1.577,1,,,,,,-0.39444443,-0.395370413,1,0,0,1.5768,Obsidian_rect,7,0,7,0,1,
614de6895ac2892842f52ec7,TCR,2024-06-25_12h45.37.963,LearnStrategy,2023.2.3,Win32,59.52380952,2,2,9,,,,,,,,6,11,,,,,,,,,,,6,5.545,1,,,,,,-0.101851852,-0.393518519,1,0,0,5.5455,Pegmatite_rect,8,0,8,0,1,
614de6895ac2892842f52ec7,TCR,2024-06-25_12h45.37.963,LearnStrategy,2023.2.3,Win32,59.52380952,2,2,10,,,,,,,,7,10,,,,,,,,,,,7,3.045,1,,,,,,0.098148134,-0.390740783,1,0,0,3.0449,Peridotite_rect,9,0,9,0,1,
614de6895ac2892842f52ec7,TCR,2024-06-25_12h45.37.963,LearnStrategy,2023.2.3,Win32,59.52380952,2,2,11,,,,,,,,4,14,,,,,,,,,,,4,1.577,1,,,,,,0.334259316,-0.249074088,1,0,0,1.5767,Gabbro_rect,10,0,10,0,1,
614de6895ac2892842f52ec7,TCR,2024-06-25_12h45.37.963,LearnStrategy,2023.2.3,Win32,59.52380952,2,2,12,,,,,,,,3,09,,,,,,,,,,,1,6.711,0,,,,,,-0.384259259,-0.243518547,1,0,0,6.7112,Andesite_rect,11,0,11,0,1,
614de6895ac2892842f52ec7,TCR,2024-06-25_12h45.37.963,LearnStrategy,2023.2.3,Win32,59.52380952,2,2,13,,,,,,,,2,01,,,,,,,,,,,2,1.377,1,,,,,,-0.185185185,-0.249074088,1,0,0,1.3769,Basalt_rect,12,0,12,0,1,
614de6895ac2892842f52ec7,TCR,2024-06-25_12h45.37.963,LearnStrategy,2023.2.3,Win32,59.52380952,2,2,14,,,,,,,,7,15,,,,,,,,,,,7,2.111,1,,,,,,0.062037079,-0.398148148,1,0,0,2.1108,Peridotite_rect,13,0,13,0,1,
614de6895ac2892842f52ec7,TCR,2024-06-25_12h45.37.963,LearnStrategy,2023.2.3,Win32,59.52380952,2,2,15,,,,,,,,3,06,,,,,,,,,,,6,9.57,0,,,,,,-0.094444416,-0.392592607,1,0,0,9.5696,Pegmatite_rect,14,0,14,0,1,
614de6895ac2892842f52ec7,TCR,2024-06-25_12h45.37.963,LearnStrategy,2023.2.3,Win32,59.52380952,2,2,16,,,,,,,,4,11,,,,,,,,,,,2,3.167,0,,,,,,-0.123148106,-0.241666653,1,0,0,3.1667,Basalt_rect,15,0,15,0,1,
614de6895ac2892842f52ec7,TCR,2024-06-25_12h45.37.963,LearnStrategy,2023.2.3,Win32,59.52380952,3,1,1,-0.04814812,0,1,0,0,2.0475,rock_grid_rect_2,6,06,-1,-1,2.047,-0.176851838,-0.410185213,1,0,0,4.1524,Pegmatite_rect,6,4.152,1,0,0,0,0,1,,,,,,,,,,,,,
614de6895ac2892842f52ec7,TCR,2024-06-25_12h45.37.963,LearnStrategy,2023.2.3,Win32,59.52380952,3,1,2,-0.011111083,-0.001851859,1,0,0,1.0879,rock_grid_rect_2,3,16,-1,-1,1.088,0.05277782,-0.265740783,1,0,0,5.639,Diorite_rect,3,5.639,1,1,0,1,0,1,,,,,,,,,,,,,
614de6895ac2892842f52ec7,TCR,2024-06-25_12h45.37.963,LearnStrategy,2023.2.3,Win32,59.52380952,3,1,3,-0.029629601,-0.0074074,1,0,0,1.1975,rock_grid_rect_2,4,16,-1,-1,1.197,0.40833339,-0.229629658,1,0,0,3.8614,Gabbro_rect,4,3.861,1,2,0,2,0,1,,,,,,,,,,,,,
614de6895ac2892842f52ec7,TCR,2024-06-25_12h45.37.963,LearnStrategy,2023.2.3,Win32,59.52380952,3,1,4,-0.006481453,0.002777771,1,0,0,1.0799,rock_grid_rect_2,4,09,-1,-1,1.08,-0.154629601,-0.243518547,1,0,0,5.4338,Basalt_rect,2,5.434,0,3,0,3,0,1,,,,,,,,,,,,,
614de6895ac2892842f52ec7,TCR,2024-06-25_12h45.37.963,LearnStrategy,2023.2.3,Win32,59.52380952,3,1,5,-0.003703718,-0.01203703,1,0,0,0.9511,rock_grid_rect_2,7,12,-1,-1,0.951,0.125925912,-0.397222236,1,0,0,1.8755,Peridotite_rect,7,1.875,1,4,0,4,0,1,,,,,,,,,,,,,
614de6895ac2892842f52ec7,TCR,2024-06-25_12h45.37.963,LearnStrategy,2023.2.3,Win32,59.52380952,3,1,6,-0.000925912,-0.020370377,1,0,0,0.9309,rock_grid_rect_2,3,07,-1,-1,0.931,-0.350925905,-0.244444459,1,0,0,5.37,Andesite_rect,1,5.37,0,5,0,5,0,1,,,,,,,,,,,,,
614de6895ac2892842f52ec7,TCR,2024-06-25_12h45.37.963,LearnStrategy,2023.2.3,Win32,59.52380952,3,1,7,-0.064814815,-0.001851859,1,0,0,1.0144,rock_grid_rect_2,1,09,-1,-1,1.014,0.061111097,-0.25,1,0,0,3.4781,Diorite_rect,3,3.478,0,6,0,6,0,1,,,,,,,,,,,,,
614de6895ac2892842f52ec7,TCR,2024-06-25_12h45.37.963,LearnStrategy,2023.2.3,Win32,59.52380952,3,1,8,-0.012036995,-0.022222236,1,0,0,1.0306,rock_grid_rect_2,1,16,-1,-1,1.031,-0.356481481,-0.233333376,1,0,0,2.4026,Andesite_rect,1,2.403,1,7,0,7,0,1,,,,,,,,,,,,,
614de6895ac2892842f52ec7,TCR,2024-06-25_12h45.37.963,LearnStrategy,2023.2.3,Win32,59.52380952,3,1,9,0.015740783,0.006481489,1,0,0,1.0362,rock_grid_rect_2,7,14,-1,-1,1.036,0.114814829,-0.39444443,1,0,0,4.931,Peridotite_rect,7,4.931,1,8,0,8,0,1,,,,,,,,,,,,,
614de6895ac2892842f52ec7,TCR,2024-06-25_12h45.37.963,LearnStrategy,2023.2.3,Win32,59.52380952,3,1,10,-0.077777792,-0.005555577,1,0,0,0.904,rock_grid_rect_2,3,10,-1,-1,0.904,0.130555541,-0.238888917,1,0,0,2.5719,Diorite_rect,3,2.572,1,9,0,9,0,1,,,,,,,,,,,,,
614de6895ac2892842f52ec7,TCR,2024-06-25_12h45.37.963,LearnStrategy,2023.2.3,Win32,59.52380952,3,1,11,0.005555541,-0.0074074,1,0,0,1.0477,rock_grid_rect_2,8,14,-1,-1,1.048,0.378703788,-0.401851866,1,0,0,1.576,Pumice_rect,8,1.576,1,10,0,10,0,1,,,,,,,,,,,,,
614de6895ac2892842f52ec7,TCR,2024-06-25_12h45.37.963,LearnStrategy,2023.2.3,Win32,59.52380952,3,1,12,0.006481524,0.005555541,1,0,0,0.8977,rock_grid_rect_2,3,08,-1,-1,0.898,-0.103703675,-0.392592607,1,0,0,5.8783,Pegmatite_rect,6,5.878,0,11,0,11,0,1,,,,,,,,,,,,,
614de6895ac2892842f52ec7,TCR,2024-06-25_12h45.37.963,LearnStrategy,2023.2.3,Win32,59.52380952,3,1,13,-0.001851824,-0.009259259,1,0,0,1.2259,rock_grid_rect_2,2,12,-1,-1,1.226,-0.123148106,-0.236111111,1,0,0,4.8171,Basalt_rect,2,4.817,1,12,0,12,0,1,,,,,,,,,,,,,
614de6895ac2892842f52ec7,TCR,2024-06-25_12h45.37.963,LearnStrategy,2023.2.3,Win32,59.52380952,3,1,14,0.048148191,0.01666666,1,0,0,1.0976,rock_grid_rect_2,1,07,-1,-1,1.098,0.12962963,-0.408333319,1,0,0,4.2282,Peridotite_rect,7,4.228,0,13,0,13,0,1,,,,,,,,,,,,,
614de6895ac2892842f52ec7,TCR,2024-06-25_12h45.37.963,LearnStrategy,2023.2.3,Win32,59.52380952,3,1,15,-0.011111083,-0.019444466,1,0,0,1.076,rock_grid_rect_2,6,09,-1,-1,1.076,-0.110185199,-0.397222236,1,0,0,3.3447,Pegmatite_rect,6,3.345,1,14,0,14,0,1,,,,,,,,,,,,,
614de6895ac2892842f52ec7,TCR,2024-06-25_12h45.37.963,LearnStrategy,2023.2.3,Win32,59.52380952,3,1,16,-0.039814772,-0.008333347,1,0,0,1.0296,rock_grid_rect_2,1,09,-1,-1,1.03,0.080555598,-0.242592635,1,0,0,2.9121,Diorite_rect,3,2.912,0,15,0,15,0,1,,,,,,,,,,,,,
614de6895ac2892842f52ec7,TCR,2024-06-25_12h45.37.963,LearnStrategy,2023.2.3,Win32,59.52380952,3,2,1,,,,,,,,3,11,,,,,,,,,,,1,15.839,0,,,,,,-0.374074053,-0.25,1,0,0,15.8392,Andesite_rect,0,0,0,0,1,
614de6895ac2892842f52ec7,TCR,2024-06-25_12h45.37.963,LearnStrategy,2023.2.3,Win32,59.52380952,3,2,2,,,,,,,,3,12,,,,,,,,,,,1,5.458,0,,,,,,-0.377777771,-0.241666653,1,0,0,5.4576,Andesite_rect,1,0,1,0,1,
614de6895ac2892842f52ec7,TCR,2024-06-25_12h45.37.963,LearnStrategy,2023.2.3,Win32,59.52380952,3,2,3,,,,,,,,8,15,,,,,,,,,,,8,1.697,1,,,,,,0.362037094,-0.385185171,1,0,0,1.6971,Pumice_rect,2,0,2,0,1,
614de6895ac2892842f52ec7,TCR,2024-06-25_12h45.37.963,LearnStrategy,2023.2.3,Win32,59.52380952,3,2,4,,,,,,,,2,06,,,,,,,,,,,5,1.911,0,,,,,,-0.375,-0.400000042,1,0,0,1.911,Obsidian_rect,3,0,3,0,1,
614de6895ac2892842f52ec7,TCR,2024-06-25_12h45.37.963,LearnStrategy,2023.2.3,Win32,59.52380952,3,2,5,,,,,,,,6,15,,,,,,,,,,,6,1.761,1,,,,,,-0.132407365,-0.383333347,1,0,0,1.7612,Pegmatite_rect,4,0,4,0,1,
614de6895ac2892842f52ec7,TCR,2024-06-25_12h45.37.963,LearnStrategy,2023.2.3,Win32,59.52380952,3,2,6,,,,,,,,4,01,,,,,,,,,,,3,4.062,0,,,,,,0.112037023,-0.250925912,1,0,0,4.0621,Diorite_rect,5,0,5,0,1,
614de6895ac2892842f52ec7,TCR,2024-06-25_12h45.37.963,LearnStrategy,2023.2.3,Win32,59.52380952,3,2,7,,,,,,,,6,03,,,,,,,,,,,6,2.544,1,,,,,,-0.133333347,-0.389814801,1,0,0,2.544,Pegmatite_rect,6,0,6,0,1,
614de6895ac2892842f52ec7,TCR,2024-06-25_12h45.37.963,LearnStrategy,2023.2.3,Win32,59.52380952,3,2,8,,,,,,,,2,11,,,,,,,,,,,2,2.018,1,,,,,,-0.136111083,-0.248148176,1,0,0,2.0183,Basalt_rect,7,0,7,0,1,
614de6895ac2892842f52ec7,TCR,2024-06-25_12h45.37.963,LearnStrategy,2023.2.3,Win32,59.52380952,3,2,9,,,,,,,,1,11,,,,,,,,,,,3,2.425,0,,,,,,0.125,-0.249074088,1,0,0,2.425,Diorite_rect,8,0,8,0,1,
614de6895ac2892842f52ec7,TCR,2024-06-25_12h45.37.963,LearnStrategy,2023.2.3,Win32,59.52380952,3,2,10,,,,,,,,8,04,,,,,,,,,,,8,1.374,1,,,,,,0.356481481,-0.402777778,1,0,0,1.3739,Pumice_rect,9,0,9,0,1,
614de6895ac2892842f52ec7,TCR,2024-06-25_12h45.37.963,LearnStrategy,2023.2.3,Win32,59.52380952,3,2,11,,,,,,,,7,02,,,,,,,,,,,7,7.279,1,,,,,,0.133333347,-0.410185213,1,0,0,7.2786,Peridotite_rect,10,0,10,0,1,
614de6895ac2892842f52ec7,TCR,2024-06-25_12h45.37.963,LearnStrategy,2023.2.3,Win32,59.52380952,3,2,12,,,,,,,,5,14,,,,,,,,,,,5,1.577,1,,,,,,-0.438888868,-0.405555584,1,0,0,1.5773,Obsidian_rect,11,0,11,0,1,
614de6895ac2892842f52ec7,TCR,2024-06-25_12h45.37.963,LearnStrategy,2023.2.3,Win32,59.52380952,3,2,13,,,,,,,,1,14,,,,,,,,,,,1,7.962,1,,,,,,-0.35833334,-0.25462963,1,0,0,7.9622,Andesite_rect,12,0,12,0,1,
614de6895ac2892842f52ec7,TCR,2024-06-25_12h45.37.963,LearnStrategy,2023.2.3,Win32,59.52380952,3,2,14,,,,,,,,7,05,,,,,,,,,,,7,3.278,1,,,,,,0.101851852,-0.404629672,1,0,0,3.2778,Peridotite_rect,13,0,13,0,1,
614de6895ac2892842f52ec7,TCR,2024-06-25_12h45.37.963,LearnStrategy,2023.2.3,Win32,59.52380952,3,2,15,,,,,,,,4,05,,,,,,,,,,,4,5.743,1,,,,,,0.371296353,-0.242592635,1,0,0,5.7426,Gabbro_rect,14,0,14,0,1,
614de6895ac2892842f52ec7,TCR,2024-06-25_12h45.37.963,LearnStrategy,2023.2.3,Win32,59.52380952,3,2,16,,,,,,,,5,09,,,,,,,,,,,5,1.627,1,,,,,,-0.371296282,-0.39907406,1,0,0,1.627,Obsidian_rect,15,0,15,0,1,
614de6895ac2892842f52ec7,TCR,2024-06-25_12h45.37.963,LearnStrategy,2023.2.3,Win32,59.52380952,4,1,1,-0.026851866,-0.010185206,1,0,0,1.7807,rock_grid_rect_2,6,13,-1,-1,1.781,-0.374074053,-0.250925912,1,0,0,8.4464,Andesite_rect,1,8.446,0,0,0,0,0,1,,,,,,,,,,,,,
614de6895ac2892842f52ec7,TCR,2024-06-25_12h45.37.963,LearnStrategy,2023.2.3,Win32,59.52380952,4,1,2,-0.046296296,0.012962942,1,0,0,1.193,rock_grid_rect_2,7,04,-1,-1,1.193,0.112037023,-0.408333319,1,0,0,4.4762,Peridotite_rect,7,4.476,1,1,0,1,0,1,,,,,,,,,,,,,
614de6895ac2892842f52ec7,TCR,2024-06-25_12h45.37.963,LearnStrategy,2023.2.3,Win32,59.52380952,4,1,3,-0.037962949,0.010185171,1,0,0,1.1637,rock_grid_rect_2,1,01,-1,-1,1.164,-0.381481489,-0.234259288,1,0,0,4.6776,Andesite_rect,1,4.678,1,2,0,2,0,1,,,,,,,,,,,,,
614de6895ac2892842f52ec7,TCR,2024-06-25_12h45.37.963,LearnStrategy,2023.2.3,Win32,59.52380952,4,1,4,-0.029629601,-0.00462963,1,0,0,1.1095,rock_grid_rect_2,1,04,-1,-1,1.11,0.142592607,-0.240740741,1,0,0,2.2957,Diorite_rect,3,2.296,0,3,0,3,0,1,,,,,,,,,,,,,
614de6895ac2892842f52ec7,TCR,2024-06-25_12h45.37.963,LearnStrategy,2023.2.3,Win32,59.52380952,4,1,5,-0.031481496,-0.022222236,1,0,0,1.1307,rock_grid_rect_2,4,09,-1,-1,1.131,0.107407393,-0.246296282,1,0,0,2.7953,Diorite_rect,3,2.795,0,4,0,4,0,1,,,,,,,,,,,,,
614de6895ac2892842f52ec7,TCR,2024-06-25_12h45.37.963,LearnStrategy,2023.2.3,Win32,59.52380952,4,1,6,-0.001851824,0.018518519,1,0,0,1.1093,rock_grid_rect_2,3,16,-1,-1,1.109,0.079629616,-0.400925954,1,0,0,10.5625,Peridotite_rect,7,10.563,0,5,0,5,0,1,,,,,,,,,,,,,
614de6895ac2892842f52ec7,TCR,2024-06-25_12h45.37.963,LearnStrategy,2023.2.3,Win32,59.52380952,4,1,7,-0.006481453,-0.008333347,1,0,0,1.1596,rock_grid_rect_2,3,10,-1,-1,1.16,0.118518547,-0.24537037,1,0,0,4.6781,Diorite_rect,3,4.678,1,6,0,6,0,1,,,,,,,,,,,,,
614de6895ac2892842f52ec7,TCR,2024-06-25_12h45.37.963,LearnStrategy,2023.2.3,Win32,59.52380952,4,1,8,-0.010185171,0.014814801,1,0,0,1.0806,rock_grid_rect_2,2,02,-1,-1,1.081,-0.09629631,-0.240740741,1,0,0,1.5612,Basalt_rect,2,1.561,1,7,0,7,0,1,,,,,,,,,,,,,
614de6895ac2892842f52ec7,TCR,2024-06-25_12h45.37.963,LearnStrategy,2023.2.3,Win32,59.52380952,4,1,9,0.061111097,0.012962942,1,0,0,1.1645,rock_grid_rect_2,3,07,-1,-1,1.164,-0.392592571,-0.241666653,1,0,0,3.5593,Andesite_rect,1,3.559,0,8,0,8,0,1,,,,,,,,,,,,,
614de6895ac2892842f52ec7,TCR,2024-06-25_12h45.37.963,LearnStrategy,2023.2.3,Win32,59.52380952,4,1,10,0.017592607,0.010185171,1,0,0,1.004,rock_grid_rect_2,1,03,-1,-1,1.004,-0.360185164,-0.239814829,1,0,0,2.9691,Andesite_rect,1,2.969,1,9,0,9,0,1,,,,,,,,,,,,,
614de6895ac2892842f52ec7,TCR,2024-06-25_12h45.37.963,LearnStrategy,2023.2.3,Win32,59.52380952,4,1,11,-0.036111125,-0.009259259,1,0,0,0.9144,rock_grid_rect_2,2,16,-1,-1,0.914,0.361111111,-0.234259288,1,0,0,1.7092,Gabbro_rect,4,1.709,0,10,0,10,0,1,,,,,,,,,,,,,
614de6895ac2892842f52ec7,TCR,2024-06-25_12h45.37.963,LearnStrategy,2023.2.3,Win32,59.52380952,4,1,12,0.02407406,0.005555541,1,0,0,1.0765,rock_grid_rect_2,4,08,-1,-1,1.076,0.108333376,-0.231481481,1,0,0,2.8447,Diorite_rect,3,2.845,0,11,0,11,0,1,,,,,,,,,,,,,
614de6895ac2892842f52ec7,TCR,2024-06-25_12h45.37.963,LearnStrategy,2023.2.3,Win32,59.52380952,4,1,13,0.023148148,-0.003703718,1,0,0,1.0476,rock_grid_rect_2,5,08,-1,-1,1.048,-0.378703683,-0.402777778,1,0,0,1.5274,Obsidian_rect,5,1.527,1,12,0,12,0,1,,,,,,,,,,,,,
614de6895ac2892842f52ec7,TCR,2024-06-25_12h45.37.963,LearnStrategy,2023.2.3,Win32,59.52380952,4,1,14,0.001851894,0.013888889,1,0,0,0.9135,rock_grid_rect_2,8,06,-1,-1,0.914,0.391666695,-0.400000042,1,0,0,2.4615,Pumice_rect,8,2.461,1,13,0,13,0,1,,,,,,,,,,,,,
614de6895ac2892842f52ec7,TCR,2024-06-25_12h45.37.963,LearnStrategy,2023.2.3,Win32,59.52380952,4,1,15,-0.022222236,-0.010185206,1,0,0,1.4475,rock_grid_rect_2,1,09,-1,-1,1.447,0.109259288,-0.241666653,1,0,0,3.6116,Diorite_rect,3,3.612,0,14,0,14,0,1,,,,,,,,,,,,,
614de6895ac2892842f52ec7,TCR,2024-06-25_12h45.37.963,LearnStrategy,2023.2.3,Win32,59.52380952,4,1,16,-0.04814812,0.01666666,1,0,0,0.881,rock_grid_rect_2,3,08,-1,-1,0.881,0.116666653,-0.395370413,1,0,0,7.7932,Peridotite_rect,7,7.793,0,15,0,15,0,1,,,,,,,,,,,,,
614de6895ac2892842f52ec7,TCR,2024-06-25_12h45.37.963,LearnStrategy,2023.2.3,Win32,59.52380952,4,2,1,,,,,,,,3,02,,,,,,,,,,,3,2.877,1,,,,,,0.134259259,-0.24537037,1,0,0,2.8773,Diorite_rect,0,0,0,0,1,
614de6895ac2892842f52ec7,TCR,2024-06-25_12h45.37.963,LearnStrategy,2023.2.3,Win32,59.52380952,4,2,2,,,,,,,,8,15,,,,,,,,,,,8,1.428,1,,,,,,0.371296353,-0.391666695,1,0,0,1.4276,Pumice_rect,1,0,1,0,1,
614de6895ac2892842f52ec7,TCR,2024-06-25_12h45.37.963,LearnStrategy,2023.2.3,Win32,59.52380952,4,2,3,,,,,,,,1,02,,,,,,,,,,,1,4.131,1,,,,,,-0.384259259,-0.242592635,1,0,0,4.131,Andesite_rect,2,0,2,0,1,
614de6895ac2892842f52ec7,TCR,2024-06-25_12h45.37.963,LearnStrategy,2023.2.3,Win32,59.52380952,4,2,4,,,,,,,,2,04,,,,,,,,,,,2,1.244,1,,,,,,-0.135185171,-0.258333347,1,0,0,1.2439,Basalt_rect,3,0,3,0,1,
614de6895ac2892842f52ec7,TCR,2024-06-25_12h45.37.963,LearnStrategy,2023.2.3,Win32,59.52380952,4,2,5,,,,,,,,8,10,,,,,,,,,,,8,2.678,1,,,,,,0.358333305,-0.412962949,1,0,0,2.678,Pumice_rect,4,0,4,0,1,
614de6895ac2892842f52ec7,TCR,2024-06-25_12h45.37.963,LearnStrategy,2023.2.3,Win32,59.52380952,4,2,6,,,,,,,,5,10,,,,,,,,,,,5,1.593,1,,,,,,-0.424074067,-0.390740783,1,0,0,1.5935,Obsidian_rect,5,0,5,0,1,
614de6895ac2892842f52ec7,TCR,2024-06-25_12h45.37.963,LearnStrategy,2023.2.3,Win32,59.52380952,4,2,7,,,,,,,,4,13,,,,,,,,,,,4,1.761,1,,,,,,0.387963048,-0.240740741,1,0,0,1.761,Gabbro_rect,6,0,6,0,1,
614de6895ac2892842f52ec7,TCR,2024-06-25_12h45.37.963,LearnStrategy,2023.2.3,Win32,59.52380952,4,2,8,,,,,,,,4,14,,,,,,,,,,,4,0.977,1,,,,,,0.387963048,-0.240740741,1,0,0,0.9772,Gabbro_rect,7,0,7,0,1,
614de6895ac2892842f52ec7,TCR,2024-06-25_12h45.37.963,LearnStrategy,2023.2.3,Win32,59.52380952,4,2,9,,,,,,,,2,06,,,,,,,,,,,2,7.079,1,,,,,,-0.191666638,-0.239814829,1,0,0,7.0789,Basalt_rect,8,0,8,0,1,
614de6895ac2892842f52ec7,TCR,2024-06-25_12h45.37.963,LearnStrategy,2023.2.3,Win32,59.52380952,4,2,10,,,,,,,,6,03,,,,,,,,,,,6,2.02,1,,,,,,-0.142592607,-0.400000042,1,0,0,2.0198,Pegmatite_rect,9,0,9,0,1,
614de6895ac2892842f52ec7,TCR,2024-06-25_12h45.37.963,LearnStrategy,2023.2.3,Win32,59.52380952,4,2,11,,,,,,,,6,05,,,,,,,,,,,6,4.09,1,,,,,,-0.118518476,-0.392592607,1,0,0,4.0901,Pegmatite_rect,10,0,10,0,1,
614de6895ac2892842f52ec7,TCR,2024-06-25_12h45.37.963,LearnStrategy,2023.2.3,Win32,59.52380952,4,2,12,,,,,,,,7,02,,,,,,,,,,,7,1.935,1,,,,,,0.130555541,-0.409259302,1,0,0,1.9348,Peridotite_rect,11,0,11,0,1,
614de6895ac2892842f52ec7,TCR,2024-06-25_12h45.37.963,LearnStrategy,2023.2.3,Win32,59.52380952,4,2,13,,,,,,,,1,14,,,,,,,,,,,3,4.162,0,,,,,,0.09629631,-0.258333347,1,0,0,4.1623,Diorite_rect,12,0,12,0,1,
614de6895ac2892842f52ec7,TCR,2024-06-25_12h45.37.963,LearnStrategy,2023.2.3,Win32,59.52380952,4,2,14,,,,,,,,3,12,,,,,,,,,,,3,2.267,1,,,,,,0.09629631,-0.258333347,1,0,0,2.2672,Diorite_rect,13,0,13,0,1,
614de6895ac2892842f52ec7,TCR,2024-06-25_12h45.37.963,LearnStrategy,2023.2.3,Win32,59.52380952,4,2,15,,,,,,,,7,10,,,,,,,,,,,7,1.65,1,,,,,,0.111111111,-0.400000042,1,0,0,1.6503,Peridotite_rect,14,0,14,0,1,
614de6895ac2892842f52ec7,TCR,2024-06-25_12h45.37.963,LearnStrategy,2023.2.3,Win32,59.52380952,4,2,16,,,,,,,,5,07,,,,,,,,,,,5,2.144,1,,,,,,-0.396296289,-0.407407407,1,0,0,2.1437,Obsidian_rect,15,0,15,0,1,
614de6895ac2892842f52ec7,TCR,2024-06-25_12h45.37.963,LearnStrategy,2023.2.3,Win32,59.52380952,5,1,1,-0.021296254,0.002777771,1,0,0,1.281,rock_grid_rect_2,1,03,-1,-1,1.281,-0.378703683,-0.246296282,1,0,0,2.3435,Andesite_rect,1,2.343,1,0,0,0,0,1,,,,,,,,,,,,,
614de6895ac2892842f52ec7,TCR,2024-06-25_12h45.37.963,LearnStrategy,2023.2.3,Win32,59.52380952,5,1,2,-0.029629601,0,1,0,0,0.9638,rock_grid_rect_2,1,09,-1,-1,0.964,-0.35833334,-0.252777806,1,0,0,2.0444,Andesite_rect,1,2.044,1,1,0,1,0,1,,,,,,,,,,,,,
614de6895ac2892842f52ec7,TCR,2024-06-25_12h45.37.963,LearnStrategy,2023.2.3,Win32,59.52380952,5,1,3,0.013888889,-0.01666666,1,0,0,1.0313,rock_grid_rect_2,6,16,-1,-1,1.031,-0.137962977,-0.411111125,1,0,0,2.0104,Pegmatite_rect,6,2.01,1,2,0,2,0,1,,,,,,,,,,,,,
614de6895ac2892842f52ec7,TCR,2024-06-25_12h45.37.963,LearnStrategy,2023.2.3,Win32,59.52380952,5,1,4,-0.031481496,0.00462963,1,0,0,0.8803,rock_grid_rect_2,3,14,-1,-1,0.88,-0.099999958,-0.387037065,1,0,0,2.8615,Pegmatite_rect,6,2.861,0,3,0,3,0,1,,,,,,,,,,,,,
614de6895ac2892842f52ec7,TCR,2024-06-25_12h45.37.963,LearnStrategy,2023.2.3,Win32,59.52380952,5,1,5,-0.00462963,-0.002777771,1,0,0,0.9638,rock_grid_rect_2,1,01,-1,-1,0.964,0.125,-0.255555541,1,0,0,6.2117,Diorite_rect,3,6.212,0,4,0,4,0,1,,,,,,,,,,,,,
614de6895ac2892842f52ec7,TCR,2024-06-25_12h45.37.963,LearnStrategy,2023.2.3,Win32,59.52380952,5,1,6,0.003703718,-0.01666666,1,0,0,0.9974,rock_grid_rect_2,1,03,-1,-1,0.997,-0.376851859,-0.241666653,1,0,0,1.3112,Andesite_rect,1,1.311,1,5,0,5,0,1,,,,,,,,,,,,,
614de6895ac2892842f52ec7,TCR,2024-06-25_12h45.37.963,LearnStrategy,2023.2.3,Win32,59.52380952,5,1,7,0.008333347,-0.006481489,1,0,0,0.8816,rock_grid_rect_2,5,06,-1,-1,0.882,-0.39166666,-0.381481524,1,0,0,1.8114,Obsidian_rect,5,1.811,1,6,0,6,0,1,,,,,,,,,,,,,
614de6895ac2892842f52ec7,TCR,2024-06-25_12h45.37.963,LearnStrategy,2023.2.3,Win32,59.52380952,5,1,8,-0.002777735,0,1,0,0,1.2974,rock_grid_rect_2,3,10,-1,-1,1.297,0.124074088,-0.250925912,1,0,0,1.878,Diorite_rect,3,1.878,1,7,0,7,0,1,,,,,,,,,,,,,
614de6895ac2892842f52ec7,TCR,2024-06-25_12h45.37.963,LearnStrategy,2023.2.3,Win32,59.52380952,5,1,9,-0.029629601,-0.002777771,1,0,0,1.0979,rock_grid_rect_2,3,14,-1,-1,1.098,0.141666695,-0.252777806,1,0,0,1.5614,Diorite_rect,3,1.561,1,8,0,8,0,1,,,,,,,,,,,,,
614de6895ac2892842f52ec7,TCR,2024-06-25_12h45.37.963,LearnStrategy,2023.2.3,Win32,59.52380952,5,1,10,0,-0.005555577,1,0,0,0.8978,rock_grid_rect_2,2,12,-1,-1,0.898,-0.133333347,-0.233333376,1,0,0,4.3785,Basalt_rect,2,4.379,1,9,0,9,0,1,,,,,,,,,,,,,
614de6895ac2892842f52ec7,TCR,2024-06-25_12h45.37.963,LearnStrategy,2023.2.3,Win32,59.52380952,5,1,11,0.030555584,-0.00462963,1,0,0,0.9642,rock_grid_rect_2,4,08,-1,-1,0.964,0.386111083,-0.250925912,1,0,0,7.7442,Gabbro_rect,4,7.744,1,10,0,10,0,1,,,,,,,,,,,,,
614de6895ac2892842f52ec7,TCR,2024-06-25_12h45.37.963,LearnStrategy,2023.2.3,Win32,59.52380952,5,1,12,0.012037065,-0.019444466,1,0,0,1.03,rock_grid_rect_2,8,03,-1,-1,1.03,0.399074131,-0.39444443,1,0,0,1.8649,Pumice_rect,8,1.865,1,11,0,11,0,1,,,,,,,,,,,,,
614de6895ac2892842f52ec7,TCR,2024-06-25_12h45.37.963,LearnStrategy,2023.2.3,Win32,59.52380952,5,1,13,-0.01944443,0.014814801,1,0,0,0.964,rock_grid_rect_2,2,12,-1,-1,0.964,-0.162037037,-0.233333376,1,0,0,1.4316,Basalt_rect,2,1.432,1,12,0,12,0,1,,,,,,,,,,,,,
614de6895ac2892842f52ec7,TCR,2024-06-25_12h45.37.963,LearnStrategy,2023.2.3,Win32,59.52380952,5,1,14,0.015740783,0.02407406,1,0,0,0.9312,rock_grid_rect_2,7,07,-1,-1,0.931,0.137962977,-0.40370369,1,0,0,5.0078,Peridotite_rect,7,5.008,1,13,0,13,0,1,,,,,,,,,,,,,
614de6895ac2892842f52ec7,TCR,2024-06-25_12h45.37.963,LearnStrategy,2023.2.3,Win32,59.52380952,5,1,15,-0.000925912,-0.013888889,1,0,0,1.0135,rock_grid_rect_2,4,12,-1,-1,1.014,0.167592578,-0.236111111,1,0,0,4.6953,Diorite_rect,3,4.695,0,14,0,14,0,1,,,,,,,,,,,,,
614de6895ac2892842f52ec7,TCR,2024-06-25_12h45.37.963,LearnStrategy,2023.2.3,Win32,59.52380952,5,1,16,0.074999986,-0.005555577,1,0,0,0.8969,rock_grid_rect_2,3,07,-1,-1,0.897,-0.3675926,-0.25,1,0,0,2.6615,Andesite_rect,1,2.662,0,15,0,15,0,1,,,,,,,,,,,,,
614de6895ac2892842f52ec7,TCR,2024-06-25_12h45.37.963,LearnStrategy,2023.2.3,Win32,59.52380952,5,2,1,,,,,,,,5,12,,,,,,,,,,,5,1.301,1,,,,,,-0.37037037,-0.398148148,1,0,0,1.3008,Obsidian_rect,0,0,0,0,1,
614de6895ac2892842f52ec7,TCR,2024-06-25_12h45.37.963,LearnStrategy,2023.2.3,Win32,59.52380952,5,2,2,,,,,,,,3,11,,,,,,,,,,,3,4.887,1,,,,,,0.140740783,-0.237037023,1,0,0,4.8868,Diorite_rect,1,0,1,0,1,
614de6895ac2892842f52ec7,TCR,2024-06-25_12h45.37.963,LearnStrategy,2023.2.3,Win32,59.52380952,5,2,3,,,,,,,,2,01,,,,,,,,,,,2,1.21,1,,,,,,-0.141666624,-0.237963005,1,0,0,1.2102,Basalt_rect,2,0,2,0,1,
614de6895ac2892842f52ec7,TCR,2024-06-25_12h45.37.963,LearnStrategy,2023.2.3,Win32,59.52380952,5,2,4,,,,,,,,6,10,,,,,,,,,,,6,2.144,1,,,,,,-0.138888889,-0.414814843,1,0,0,2.144,Pegmatite_rect,3,0,3,0,1,
614de6895ac2892842f52ec7,TCR,2024-06-25_12h45.37.963,LearnStrategy,2023.2.3,Win32,59.52380952,5,2,5,,,,,,,,2,11,,,,,,,,,,,2,1.978,1,,,,,,-0.12962963,-0.25,1,0,0,1.9784,Basalt_rect,4,0,4,0,1,
614de6895ac2892842f52ec7,TCR,2024-06-25_12h45.37.963,LearnStrategy,2023.2.3,Win32,59.52380952,5,2,6,,,,,,,,4,01,,,,,,,,,,,3,3.663,0,,,,,,0.124074088,-0.256481524,1,0,0,3.663,Diorite_rect,5,0,5,0,1,
614de6895ac2892842f52ec7,TCR,2024-06-25_12h45.37.963,LearnStrategy,2023.2.3,Win32,59.52380952,5,2,7,,,,,,,,5,14,,,,,,,,,,,5,1.428,1,,,,,,-0.450925933,-0.400925954,1,0,0,1.4275,Obsidian_rect,6,0,6,0,1,
614de6895ac2892842f52ec7,TCR,2024-06-25_12h45.37.963,LearnStrategy,2023.2.3,Win32,59.52380952,5,2,8,,,,,,,,8,02,,,,,,,,,,,8,1.669,1,,,,,,0.405555584,-0.385185171,1,0,0,1.6689,Pumice_rect,7,0,7,0,1,
614de6895ac2892842f52ec7,TCR,2024-06-25_12h45.37.963,LearnStrategy,2023.2.3,Win32,59.52380952,5,2,9,,,,,,,,7,13,,,,,,,,,,,7,1.603,1,,,,,,0.121296282,-0.387037065,1,0,0,1.6031,Peridotite_rect,8,0,8,0,1,
614de6895ac2892842f52ec7,TCR,2024-06-25_12h45.37.963,LearnStrategy,2023.2.3,Win32,59.52380952,5,2,10,,,,,,,,3,06,,,,,,,,,,,6,4.32,0,,,,,,-0.133333347,-0.40370369,1,0,0,4.3201,Pegmatite_rect,9,0,9,0,1,
614de6895ac2892842f52ec7,TCR,2024-06-25_12h45.37.963,LearnStrategy,2023.2.3,Win32,59.52380952,5,2,11,,,,,,,,6,15,,,,,,,,,,,6,0.852,1,,,,,,-0.133333347,-0.40370369,1,0,0,0.852,Pegmatite_rect,10,0,10,0,1,
614de6895ac2892842f52ec7,TCR,2024-06-25_12h45.37.963,LearnStrategy,2023.2.3,Win32,59.52380952,5,2,12,,,,,,,,4,11,,,,,,,,,,,4,3.595,1,,,,,,0.356481481,-0.252777806,1,0,0,3.5954,Gabbro_rect,11,0,11,0,1,
614de6895ac2892842f52ec7,TCR,2024-06-25_12h45.37.963,LearnStrategy,2023.2.3,Win32,59.52380952,5,2,13,,,,,,,,1,11,,,,,,,,,,,1,3.478,1,,,,,,-0.363888882,-0.260185171,1,0,0,3.4783,Andesite_rect,12,0,12,0,1,
614de6895ac2892842f52ec7,TCR,2024-06-25_12h45.37.963,LearnStrategy,2023.2.3,Win32,59.52380952,5,2,14,,,,,,,,8,16,,,,,,,,,,,8,2.561,1,,,,,,0.367592564,-0.397222236,1,0,0,2.5612,Pumice_rect,13,0,13,0,1,
614de6895ac2892842f52ec7,TCR,2024-06-25_12h45.37.963,LearnStrategy,2023.2.3,Win32,59.52380952,5,2,15,,,,,,,,1,10,,,,,,,,,,,3,5.287,0,,,,,,0.125,-0.25,1,0,0,5.2868,Diorite_rect,14,0,14,0,1,
614de6895ac2892842f52ec7,TCR,2024-06-25_12h45.37.963,LearnStrategy,2023.2.3,Win32,59.52380952,5,2,16,,,,,,,,7,15,,,,,,,,,,,7,1.572,1,,,,,,0.112037023,-0.382407436,1,0,0,1.5722,Peridotite_rect,15,0,15,0,1,
614de6895ac2892842f52ec7,TCR,2024-06-25_12h45.37.963,LearnStrategy,2023.2.3,Win32,59.52380952,6,1,1,-0.008333347,0.003703683,1,0,0,0.9353,rock_grid_rect_2,1,07,-1,-1,0.935,-0.400925919,-0.241666653,1,0,0,1.9821,Andesite_rect,1,1.982,1,0,0,0,0,1,,,,,,,,,,,,,
614de6895ac2892842f52ec7,TCR,2024-06-25_12h45.37.963,LearnStrategy,2023.2.3,Win32,59.52380952,6,1,2,-0.025925884,0.001851859,1,0,0,0.9211,rock_grid_rect_2,5,16,-1,-1,0.921,-0.383333312,-0.392592607,1,0,0,1.5228,Obsidian_rect,5,1.523,1,1,0,1,0,1,,,,,,,,,,,,,
614de6895ac2892842f52ec7,TCR,2024-06-25_12h45.37.963,LearnStrategy,2023.2.3,Win32,59.52380952,6,1,3,-0.029629601,-0.001851859,1,0,0,0.814,rock_grid_rect_2,7,04,-1,-1,0.814,0.116666653,-0.395370413,1,0,0,3.3489,Peridotite_rect,7,3.349,1,2,0,2,0,1,,,,,,,,,,,,,
614de6895ac2892842f52ec7,TCR,2024-06-25_12h45.37.963,LearnStrategy,2023.2.3,Win32,59.52380952,6,1,4,-0.009259259,0,1,0,0,0.9305,rock_grid_rect_2,4,15,-1,-1,0.931,0.396296325,-0.23055557,1,0,0,7.0785,Gabbro_rect,4,7.078,1,3,0,3,0,1,,,,,,,,,,,,,
614de6895ac2892842f52ec7,TCR,2024-06-25_12h45.37.963,LearnStrategy,2023.2.3,Win32,59.52380952,6,1,5,-0.016666624,-0.011111118,1,0,0,1.0306,rock_grid_rect_2,3,15,-1,-1,1.031,0.37037037,-0.242592635,1,0,0,4.4943,Gabbro_rect,4,4.494,0,4,0,4,0,1,,,,,,,,,,,,,
614de6895ac2892842f52ec7,TCR,2024-06-25_12h45.37.963,LearnStrategy,2023.2.3,Win32,59.52380952,6,1,6,-0.000925912,-0.009259259,1,0,0,0.9968,rock_grid_rect_2,3,14,-1,-1,0.997,0.157407407,-0.244444459,1,0,0,12.7794,Diorite_rect,3,12.779,1,5,0,5,0,1,,,,,,,,,,,,,
614de6895ac2892842f52ec7,TCR,2024-06-25_12h45.37.963,LearnStrategy,2023.2.3,Win32,59.52380952,6,1,7,0.010185171,0.012962942,1,0,0,1.0757,rock_grid_rect_2,2,08,-1,-1,1.076,-0.136111083,-0.235185199,1,0,0,1.6698,Basalt_rect,2,1.67,1,6,0,6,0,1,,,,,,,,,,,,,
614de6895ac2892842f52ec7,TCR,2024-06-25_12h45.37.963,LearnStrategy,2023.2.3,Win32,59.52380952,6,1,8,0.014814801,-0.006481489,1,0,0,0.9221,rock_grid_rect_2,6,09,-1,-1,0.922,-0.137962977,-0.39444443,1,0,0,1.7803,Pegmatite_rect,6,1.78,1,7,0,7,0,1,,,,,,,,,,,,,
614de6895ac2892842f52ec7,TCR,2024-06-25_12h45.37.963,LearnStrategy,2023.2.3,Win32,59.52380952,6,1,9,-0.014814801,-0.011111118,1,0,0,0.9389,rock_grid_rect_2,4,16,-1,-1,0.939,0.334259316,-0.242592635,1,0,0,3.3779,Gabbro_rect,4,3.378,1,8,0,8,0,1,,,,,,,,,,,,,
614de6895ac2892842f52ec7,TCR,2024-06-25_12h45.37.963,LearnStrategy,2023.2.3,Win32,59.52380952,6,1,10,-0.009259259,-0.010185206,1,0,0,0.8376,rock_grid_rect_2,3,15,-1,-1,0.838,0.130555541,-0.241666653,1,0,0,4.2146,Diorite_rect,3,4.215,1,9,0,9,0,1,,,,,,,,,,,,,
614de6895ac2892842f52ec7,TCR,2024-06-25_12h45.37.963,LearnStrategy,2023.2.3,Win32,59.52380952,6,1,11,0.025000042,0.000925912,1,0,0,0.9372,rock_grid_rect_2,1,16,-1,-1,0.937,-0.3824074,-0.229629658,1,0,0,2.1143,Andesite_rect,1,2.114,1,10,0,10,0,1,,,,,,,,,,,,,
614de6895ac2892842f52ec7,TCR,2024-06-25_12h45.37.963,LearnStrategy,2023.2.3,Win32,59.52380952,6,1,12,0.002777806,-0.01666666,1,0,0,0.9545,rock_grid_rect_2,1,01,-1,-1,0.954,-0.395370377,-0.248148176,1,0,0,6.9391,Andesite_rect,1,6.939,1,11,0,11,0,1,,,,,,,,,,,,,
614de6895ac2892842f52ec7,TCR,2024-06-25_12h45.37.963,LearnStrategy,2023.2.3,Win32,59.52380952,6,1,13,-0.011111083,0,1,0,0,1.314,rock_grid_rect_2,1,01,-1,-1,1.314,-0.37962963,-0.238888917,1,0,0,1.878,Andesite_rect,1,1.878,1,12,0,12,0,1,,,,,,,,,,,,,
614de6895ac2892842f52ec7,TCR,2024-06-25_12h45.37.963,LearnStrategy,2023.2.3,Win32,59.52380952,6,1,14,-0.008333347,-0.01666666,1,0,0,1.0976,rock_grid_rect_2,4,09,-1,-1,1.098,-0.113888847,-0.237037023,1,0,0,5.9607,Basalt_rect,2,5.961,0,13,0,13,0,1,,,,,,,,,,,,,
614de6895ac2892842f52ec7,TCR,2024-06-25_12h45.37.963,LearnStrategy,2023.2.3,Win32,59.52380952,6,1,15,0.02407406,-0.000925947,1,0,0,1.009,rock_grid_rect_2,3,07,-1,-1,1.009,0.094444487,-0.231481481,1,0,0,10.7349,Diorite_rect,3,10.735,1,14,0,14,0,1,,,,,,,,,,,,,
614de6895ac2892842f52ec7,TCR,2024-06-25_12h45.37.963,LearnStrategy,2023.2.3,Win32,59.52380952,6,1,16,0.031481496,0.005555541,1,0,0,0.9702,rock_grid_rect_2,8,13,-1,-1,0.97,0.375925982,-0.412962949,1,0,0,1.7381,Pumice_rect,8,1.738,1,15,0,15,0,1,,,,,,,,,,,,,
614de6895ac2892842f52ec7,TCR,2024-06-25_12h45.37.963,LearnStrategy,2023.2.3,Win32,59.52380952,6,2,1,,,,,,,,3,09,,,,,,,,,,,3,2.515,1,,,,,,0.107407393,-0.235185199,1,0,0,2.5151,Diorite_rect,0,0,0,0,1,
614de6895ac2892842f52ec7,TCR,2024-06-25_12h45.37.963,LearnStrategy,2023.2.3,Win32,59.52380952,6,2,2,,,,,,,,5,05,,,,,,,,,,,5,1.59,1,,,,,,-0.39166666,-0.406481496,1,0,0,1.5896,Obsidian_rect,1,0,1,0,1,
614de6895ac2892842f52ec7,TCR,2024-06-25_12h45.37.963,LearnStrategy,2023.2.3,Win32,59.52380952,6,2,3,,,,,,,,8,04,,,,,,,,,,,8,1.561,1,,,,,,0.416666667,-0.389814801,1,0,0,1.5614,Pumice_rect,2,0,2,0,1,
614de6895ac2892842f52ec7,TCR,2024-06-25_12h45.37.963,LearnStrategy,2023.2.3,Win32,59.52380952,6,2,4,,,,,,,,1,06,,,,,,,,,,,1,3.194,1,,,,,,-0.381481489,-0.242592635,1,0,0,3.1942,Andesite_rect,3,0,3,0,1,
614de6895ac2892842f52ec7,TCR,2024-06-25_12h45.37.963,LearnStrategy,2023.2.3,Win32,59.52380952,6,2,5,,,,,,,,2,14,,,,,,,,,,,8,9.262,0,,,,,,0.351851852,-0.389814801,1,0,0,9.2618,Pumice_rect,4,0,4,0,1,
614de6895ac2892842f52ec7,TCR,2024-06-25_12h45.37.963,LearnStrategy,2023.2.3,Win32,59.52380952,6,2,6,,,,,,,,1,05,,,,,,,,,,,7,6.495,0,,,,,,0.078703704,-0.412037037,1,0,0,6.4948,Peridotite_rect,5,0,5,0,1,
614de6895ac2892842f52ec7,TCR,2024-06-25_12h45.37.963,LearnStrategy,2023.2.3,Win32,59.52380952,6,2,7,,,,,,,,2,05,,,,,,,,,,,2,1.428,1,,,,,,-0.140740712,-0.262962977,1,0,0,1.4279,Basalt_rect,6,0,6,0,1,
614de6895ac2892842f52ec7,TCR,2024-06-25_12h45.37.963,LearnStrategy,2023.2.3,Win32,59.52380952,6,2,8,,,,,,,,6,11,,,,,,,,,,,6,1.627,1,,,,,,-0.138888889,-0.39907406,1,0,0,1.6272,Pegmatite_rect,7,0,7,0,1,
614de6895ac2892842f52ec7,TCR,2024-06-25_12h45.37.963,LearnStrategy,2023.2.3,Win32,59.52380952,6,2,9,,,,,,,,7,05,,,,,,,,,,,7,2.662,1,,,,,,0.114814829,-0.389814801,1,0,0,2.6617,Peridotite_rect,8,0,8,0,1,
614de6895ac2892842f52ec7,TCR,2024-06-25_12h45.37.963,LearnStrategy,2023.2.3,Win32,59.52380952,6,2,10,,,,,,,,3,13,,,,,,,,,,,1,3.894,0,,,,,,-0.378703683,-0.256481524,1,0,0,3.8944,Andesite_rect,9,0,9,0,1,
614de6895ac2892842f52ec7,TCR,2024-06-25_12h45.37.963,LearnStrategy,2023.2.3,Win32,59.52380952,6,2,11,,,,,,,,8,08,,,,,,,,,,,8,1.484,1,,,,,,0.382407436,-0.40370369,1,0,0,1.4838,Pumice_rect,10,0,10,0,1,
614de6895ac2892842f52ec7,TCR,2024-06-25_12h45.37.963,LearnStrategy,2023.2.3,Win32,59.52380952,6,2,12,,,,,,,,6,12,,,,,,,,,,,3,3.612,0,,,,,,0.10555557,-0.24537037,1,0,0,3.6121,Diorite_rect,11,0,11,0,1,
614de6895ac2892842f52ec7,TCR,2024-06-25_12h45.37.963,LearnStrategy,2023.2.3,Win32,59.52380952,6,2,13,,,,,,,,7,16,,,,,,,,,,,4,4.286,0,,,,,,0.387963048,-0.24537037,1,0,0,4.2856,Gabbro_rect,12,0,12,0,1,
614de6895ac2892842f52ec7,TCR,2024-06-25_12h45.37.963,LearnStrategy,2023.2.3,Win32,59.52380952,6,2,14,,,,,,,,5,09,,,,,,,,,,,5,1.594,1,,,,,,-0.385185171,-0.390740783,1,0,0,1.5943,Obsidian_rect,13,0,13,0,1,
614de6895ac2892842f52ec7,TCR,2024-06-25_12h45.37.963,LearnStrategy,2023.2.3,Win32,59.52380952,6,2,15,,,,,,,,4,05,,,,,,,,,,,4,2.711,1,,,,,,0.375925982,-0.242592635,1,0,0,2.711,Gabbro_rect,14,0,14,0,1,
614de6895ac2892842f52ec7,TCR,2024-06-25_12h45.37.963,LearnStrategy,2023.2.3,Win32,59.52380952,6,2,16,,,,,,,,4,03,,,,,,,,,,,3,5.911,0,,,,,,0.123148176,-0.258333347,1,0,0,5.9115,Diorite_rect,15,0,15,0,1,
614de6895ac2892842f52ec7,TCR,2024-06-25_12h45.37.963,LearnStrategy,2023.2.3,Win32,59.52380952,7,1,1,-0.031481496,-0.001851859,1,0,0,1.7056,rock_grid_rect_2,6,07,-1,-1,1.706,-0.118518476,-0.395370413,1,0,0,1.518,Pegmatite_rect,6,1.518,1,0,0,0,0,1,,,,,,,,,,,,,
614de6895ac2892842f52ec7,TCR,2024-06-25_12h45.37.963,LearnStrategy,2023.2.3,Win32,59.52380952,7,1,2,-0.011111083,0.0074074,1,0,0,0.9312,rock_grid_rect_2,3,15,-1,-1,0.931,0.12962963,-0.263888889,1,0,0,2.0288,Diorite_rect,3,2.029,1,1,0,1,0,1,,,,,,,,,,,,,
614de6895ac2892842f52ec7,TCR,2024-06-25_12h45.37.963,LearnStrategy,2023.2.3,Win32,59.52380952,7,1,3,0.058333362,0.011111118,1,0,0,1.2475,rock_grid_rect_2,4,12,-1,-1,1.247,0.10555557,-0.26944443,1,0,0,5.9285,Diorite_rect,3,5.928,0,2,0,2,0,1,,,,,,,,,,,,,
614de6895ac2892842f52ec7,TCR,2024-06-25_12h45.37.963,LearnStrategy,2023.2.3,Win32,59.52380952,7,1,4,0.049074102,-0.001851859,1,0,0,0.9258,rock_grid_rect_2,2,16,-1,-1,0.926,0.411111196,-0.26944443,1,0,0,2.0115,Gabbro_rect,4,2.012,0,3,0,3,0,1,,,,,,,,,,,,,
614de6895ac2892842f52ec7,TCR,2024-06-25_12h45.37.963,LearnStrategy,2023.2.3,Win32,59.52380952,7,1,5,0.007407436,-0.006481489,1,0,0,1.0138,rock_grid_rect_2,8,13,-1,-1,1.014,0.393518519,-0.387962977,1,0,0,1.528,Pumice_rect,8,1.528,1,4,0,4,0,1,,,,,,,,,,,,,
614de6895ac2892842f52ec7,TCR,2024-06-25_12h45.37.963,LearnStrategy,2023.2.3,Win32,59.52380952,7,1,6,-0.013888889,0.00462963,1,0,0,0.881,rock_grid_rect_2,1,04,-1,-1,0.881,-0.396296289,-0.253703718,1,0,0,1.9613,Andesite_rect,1,1.961,1,5,0,5,0,1,,,,,,,,,,,,,
614de6895ac2892842f52ec7,TCR,2024-06-25_12h45.37.963,LearnStrategy,2023.2.3,Win32,59.52380952,7,1,7,0.000925912,-0.01203703,1,0,0,0.8812,rock_grid_rect_2,3,07,-1,-1,0.881,0.082407422,-0.249074088,1,0,0,3.3617,Diorite_rect,3,3.362,1,6,0,6,0,1,,,,,,,,,,,,,
614de6895ac2892842f52ec7,TCR,2024-06-25_12h45.37.963,LearnStrategy,2023.2.3,Win32,59.52380952,7,1,8,-0.013888889,0.01944443,1,0,0,1.6478,rock_grid_rect_2,2,02,-1,-1,1.648,-0.147222236,-0.26944443,1,0,0,1.9447,Basalt_rect,2,1.945,1,7,0,7,0,1,,,,,,,,,,,,,
614de6895ac2892842f52ec7,TCR,2024-06-25_12h45.37.963,LearnStrategy,2023.2.3,Win32,59.52380952,7,1,9,0.041666667,0.00462963,1,0,0,1.2477,rock_grid_rect_2,3,08,-1,-1,1.248,0.110185199,-0.236111111,1,0,0,1.7443,Diorite_rect,3,1.744,1,8,0,8,0,1,,,,,,,,,,,,,
614de6895ac2892842f52ec7,TCR,2024-06-25_12h45.37.963,LearnStrategy,2023.2.3,Win32,59.52380952,7,1,10,0.068518533,-0.002777771,1,0,0,0.948,rock_grid_rect_2,4,15,-1,-1,0.948,0.383333418,-0.232407393,1,0,0,2.4445,Gabbro_rect,4,2.444,1,9,0,9,0,1,,,,,,,,,,,,,
614de6895ac2892842f52ec7,TCR,2024-06-25_12h45.37.963,LearnStrategy,2023.2.3,Win32,59.52380952,7,1,11,-0.033333319,-0.017592607,1,0,0,1.0807,rock_grid_rect_2,7,06,-1,-1,1.081,-0.155555513,-0.404629672,1,0,0,3.2615,Pegmatite_rect,6,3.262,0,10,0,10,0,1,,,,,,,,,,,,,
614de6895ac2892842f52ec7,TCR,2024-06-25_12h45.37.963,LearnStrategy,2023.2.3,Win32,59.52380952,7,1,12,-0.021296254,0,1,0,0,0.8805,rock_grid_rect_2,7,04,-1,-1,0.88,0.123148176,-0.393518519,1,0,0,1.3778,Peridotite_rect,7,1.378,1,11,0,11,0,1,,,,,,,,,,,,,
614de6895ac2892842f52ec7,TCR,2024-06-25_12h45.37.963,LearnStrategy,2023.2.3,Win32,59.52380952,7,1,13,-0.057407379,-0.011111118,1,0,0,1.0209,rock_grid_rect_2,1,16,-1,-1,1.021,-0.369444423,-0.239814829,1,0,0,1.7553,Andesite_rect,1,1.755,1,12,0,12,0,1,,,,,,,,,,,,,
614de6895ac2892842f52ec7,TCR,2024-06-25_12h45.37.963,LearnStrategy,2023.2.3,Win32,59.52380952,7,1,14,-0.014814801,-0.021296289,1,0,0,1.148,rock_grid_rect_2,1,09,-1,-1,1.148,-0.386111118,-0.238888917,1,0,0,2.4613,Andesite_rect,1,2.461,1,13,0,13,0,1,,,,,,,,,,,,,
614de6895ac2892842f52ec7,TCR,2024-06-25_12h45.37.963,LearnStrategy,2023.2.3,Win32,59.52380952,7,1,15,-0.010185171,0.002777771,1,0,0,1.131,rock_grid_rect_2,4,08,-1,-1,1.131,0.375925982,-0.237963005,1,0,0,4.0443,Gabbro_rect,4,4.044,1,14,0,14,0,1,,,,,,,,,,,,,
614de6895ac2892842f52ec7,TCR,2024-06-25_12h45.37.963,LearnStrategy,2023.2.3,Win32,59.52380952,7,1,16,0.009259259,-0.005555577,1,0,0,0.9973,rock_grid_rect_2,6,06,-1,-1,0.997,-0.126851824,-0.385185171,1,0,0,2.3948,Pegmatite_rect,6,2.395,1,15,0,15,0,1,,,,,,,,,,,,,
614de6895ac2892842f52ec7,TCR,2024-06-25_12h45.37.963,LearnStrategy,2023.2.3,Win32,59.52380952,7,2,1,,,,,,,,1,14,,,,,,,,,,,1,7.343,1,,,,,,-0.368518511,-0.233333376,1,0,0,7.343,Andesite_rect,0,0,0,0,1,
614de6895ac2892842f52ec7,TCR,2024-06-25_12h45.37.963,LearnStrategy,2023.2.3,Win32,59.52380952,7,2,2,,,,,,,,1,11,,,,,,,,,,,1,2.379,1,,,,,,-0.365740741,-0.249074088,1,0,0,2.3789,Andesite_rect,1,0,1,0,1,
614de6895ac2892842f52ec7,TCR,2024-06-25_12h45.37.963,LearnStrategy,2023.2.3,Win32,59.52380952,7,2,3,,,,,,,,6,11,,,,,,,,,,,6,1.528,1,,,,,,-0.110185199,-0.384259259,1,0,0,1.5275,Pegmatite_rect,2,0,2,0,1,
614de6895ac2892842f52ec7,TCR,2024-06-25_12h45.37.963,LearnStrategy,2023.2.3,Win32,59.52380952,7,2,4,,,,,,,,8,15,,,,,,,,,,,8,1.461,1,,,,,,0.392592677,-0.408333319,1,0,0,1.4607,Pumice_rect,3,0,3,0,1,
614de6895ac2892842f52ec7,TCR,2024-06-25_12h45.37.963,LearnStrategy,2023.2.3,Win32,59.52380952,7,2,5,,,,,,,,4,05,,,,,,,,,,,4,9.529,1,,,,,,0.372222194,-0.248148176,1,0,0,9.5295,Gabbro_rect,4,0,4,0,1,
614de6895ac2892842f52ec7,TCR,2024-06-25_12h45.37.963,LearnStrategy,2023.2.3,Win32,59.52380952,7,2,6,,,,,,,,8,08,,,,,,,,,,,8,1.261,1,,,,,,0.398148148,-0.387037065,0,0,1,1.2609,Pumice_rect,5,0,5,0,1,
614de6895ac2892842f52ec7,TCR,2024-06-25_12h45.37.963,LearnStrategy,2023.2.3,Win32,59.52380952,7,2,7,,,,,,,,2,04,,,,,,,,,,,2,1.31,1,,,,,,-0.097222222,-0.237037023,1,0,0,1.3103,Basalt_rect,6,0,6,0,1,
614de6895ac2892842f52ec7,TCR,2024-06-25_12h45.37.963,LearnStrategy,2023.2.3,Win32,59.52380952,7,2,8,,,,,,,,5,09,,,,,,,,,,,5,2.464,1,,,,,,-0.375925912,-0.402777778,1,0,0,2.4638,Obsidian_rect,7,0,7,0,1,
614de6895ac2892842f52ec7,TCR,2024-06-25_12h45.37.963,LearnStrategy,2023.2.3,Win32,59.52380952,7,2,9,,,,,,,,3,12,,,,,,,,,,,3,4.731,1,,,,,,0.12962963,-0.24537037,1,0,0,4.7307,Diorite_rect,8,0,8,0,1,
614de6895ac2892842f52ec7,TCR,2024-06-25_12h45.37.963,LearnStrategy,2023.2.3,Win32,59.52380952,7,2,10,,,,,,,,7,15,,,,,,,,,,,7,1.794,1,,,,,,0.123148176,-0.397222236,1,0,0,1.7936,Peridotite_rect,9,0,9,0,1,
614de6895ac2892842f52ec7,TCR,2024-06-25_12h45.37.963,LearnStrategy,2023.2.3,Win32,59.52380952,7,2,11,,,,,,,,2,14,,,,,,,,,,,8,4.294,0,,,,,,0.387963048,-0.39444443,1,0,0,4.294,Pumice_rect,10,0,10,0,1,
614de6895ac2892842f52ec7,TCR,2024-06-25_12h45.37.963,LearnStrategy,2023.2.3,Win32,59.52380952,7,2,12,,,,,,,,3,02,,,,,,,,,,,3,3.478,1,,,,,,0.137962977,-0.256481524,1,0,0,3.4778,Diorite_rect,11,0,11,0,1,
614de6895ac2892842f52ec7,TCR,2024-06-25_12h45.37.963,LearnStrategy,2023.2.3,Win32,59.52380952,7,2,13,,,,,,,,4,11,,,,,,,,,,,4,4.361,1,,,,,,0.378703788,-0.258333347,1,0,0,4.3615,Gabbro_rect,12,0,12,0,1,
614de6895ac2892842f52ec7,TCR,2024-06-25_12h45.37.963,LearnStrategy,2023.2.3,Win32,59.52380952,7,2,14,,,,,,,,7,16,,,,,,,,,,,7,2.916,1,,,,,,0.14444443,-0.386111153,1,0,0,2.9157,Peridotite_rect,13,0,13,0,1,
614de6895ac2892842f52ec7,TCR,2024-06-25_12h45.37.963,LearnStrategy,2023.2.3,Win32,59.52380952,7,2,15,,,,,,,,6,12,,,,,,,,,,,3,2.277,0,,,,,,0.082407422,-0.25462963,1,0,0,2.2769,Diorite_rect,14,0,14,0,1,
614de6895ac2892842f52ec7,TCR,2024-06-25_12h45.37.963,LearnStrategy,2023.2.3,Win32,59.52380952,7,2,16,,,,,,,,5,12,,,,,,,,,,,5,1.343,1,,,,,,-0.40648146,-0.387962977,1,0,0,1.3432,Obsidian_rect,15,0,15,0,1,
614de6895ac2892842f52ec7,TCR,2024-06-25_12h45.37.963,LearnStrategy,2023.2.3,Win32,59.52380952,8,1,1,-0.04351849,-0.013888889,1,0,0,1.3479,rock_grid_rect_2,3,08,-1,-1,1.348,0.110185199,-0.24537037,1,0,0,1.5775,Diorite_rect,3,1.578,1,0,0,0,0,1,,,,,,,,,,,,,
614de6895ac2892842f52ec7,TCR,2024-06-25_12h45.37.963,LearnStrategy,2023.2.3,Win32,59.52380952,8,1,2,-0.002777735,0.013888889,1,0,0,1.6045,rock_grid_rect_2,3,08,-1,-1,1.605,0.101851852,-0.232407393,1,0,0,1.2305,Diorite_rect,3,1.23,1,1,0,1,0,1,,,,,,,,,,,,,
614de6895ac2892842f52ec7,TCR,2024-06-25_12h45.37.963,LearnStrategy,2023.2.3,Win32,59.52380952,8,1,3,0.021296325,-0.011111118,1,0,0,0.9729,rock_grid_rect_2,5,06,-1,-1,0.973,-0.381481489,-0.378703718,1,0,0,1.6371,Obsidian_rect,5,1.637,1,2,0,2,0,1,,,,,,,,,,,,,
614de6895ac2892842f52ec7,TCR,2024-06-25_12h45.37.963,LearnStrategy,2023.2.3,Win32,59.52380952,8,1,4,0.01944443,-0.010185206,1,0,0,0.9643,rock_grid_rect_2,3,07,-1,-1,0.964,0.121296282,-0.237963005,1,0,0,1.4783,Diorite_rect,3,1.478,1,3,0,3,0,1,,,,,,,,,,,,,
614de6895ac2892842f52ec7,TCR,2024-06-25_12h45.37.963,LearnStrategy,2023.2.3,Win32,59.52380952,8,1,5,0.058333362,0.000925912,1,0,0,0.9984,rock_grid_rect_2,6,08,-1,-1,0.998,-0.116666653,-0.397222236,1,0,0,5.6197,Pegmatite_rect,6,5.62,1,4,0,4,0,1,,,,,,,,,,,,,
614de6895ac2892842f52ec7,TCR,2024-06-25_12h45.37.963,LearnStrategy,2023.2.3,Win32,59.52380952,8,1,6,0.017592607,0.0074074,1,0,0,1.0702,rock_grid_rect_2,8,06,-1,-1,1.07,0.402777778,-0.393518519,1,0,0,1.6304,Pumice_rect,8,1.63,1,5,0,5,0,1,,,,,,,,,,,,,
614de6895ac2892842f52ec7,TCR,2024-06-25_12h45.37.963,LearnStrategy,2023.2.3,Win32,59.52380952,8,1,7,-0.097222222,0.009259259,1,0,0,1.5383,rock_grid_rect_2,4,16,-1,-1,1.538,0.391666695,-0.250925912,1,0,0,3.4484,Gabbro_rect,4,3.448,1,6,0,6,0,1,,,,,,,,,,,,,
614de6895ac2892842f52ec7,TCR,2024-06-25_12h45.37.963,LearnStrategy,2023.2.3,Win32,59.52380952,8,1,8,-0.042592578,-0.000925947,1,0,0,1.2375,rock_grid_rect_2,7,12,-1,-1,1.237,0.110185199,-0.400925954,1,0,0,5.8139,Peridotite_rect,7,5.814,1,7,0,7,0,1,,,,,,,,,,,,,
614de6895ac2892842f52ec7,TCR,2024-06-25_12h45.37.963,LearnStrategy,2023.2.3,Win32,59.52380952,8,1,9,-0.017592607,-0.002777771,1,0,0,1.3469,rock_grid_rect_2,4,10,-1,-1,1.347,0.359259288,-0.236111111,1,0,0,3.3614,Gabbro_rect,4,3.361,1,8,0,8,0,1,,,,,,,,,,,,,
614de6895ac2892842f52ec7,TCR,2024-06-25_12h45.37.963,LearnStrategy,2023.2.3,Win32,59.52380952,8,1,10,-0.026851866,-0.00462963,1,0,0,0.9968,rock_grid_rect_2,6,09,-1,-1,0.997,-0.149999972,-0.40370369,1,0,0,1.5112,Pegmatite_rect,6,1.511,1,9,0,9,0,1,,,,,,,,,,,,,
614de6895ac2892842f52ec7,TCR,2024-06-25_12h45.37.963,LearnStrategy,2023.2.3,Win32,59.52380952,8,1,11,0.030555584,0.006481489,1,0,0,0.8803,rock_grid_rect_2,1,07,-1,-1,0.88,-0.401851831,-0.239814829,1,0,0,1.7953,Andesite_rect,1,1.795,1,10,0,10,0,1,,,,,,,,,,,,,
614de6895ac2892842f52ec7,TCR,2024-06-25_12h45.37.963,LearnStrategy,2023.2.3,Win32,59.52380952,8,1,12,-0.024999972,-0.014814836,1,0,0,0.9813,rock_grid_rect_2,2,02,-1,-1,0.981,-0.111111111,-0.238888917,1,0,0,1.3781,Basalt_rect,2,1.378,1,11,0,11,0,1,,,,,,,,,,,,,
614de6895ac2892842f52ec7,TCR,2024-06-25_12h45.37.963,LearnStrategy,2023.2.3,Win32,59.52380952,8,1,13,-0.025925884,0.000925912,1,0,0,0.9978,rock_grid_rect_2,1,03,-1,-1,0.998,-0.350925905,-0.248148176,1,0,0,1.9438,Andesite_rect,1,1.944,1,12,0,12,0,1,,,,,,,,,,,,,
614de6895ac2892842f52ec7,TCR,2024-06-25_12h45.37.963,LearnStrategy,2023.2.3,Win32,59.52380952,8,1,14,-0.023148148,0.01666666,1,0,0,0.9311,rock_grid_rect_2,2,09,-1,-1,0.931,-0.115740741,-0.242592635,1,0,0,2.1805,Basalt_rect,2,2.181,1,13,0,13,0,1,,,,,,,,,,,,,
614de6895ac2892842f52ec7,TCR,2024-06-25_12h45.37.963,LearnStrategy,2023.2.3,Win32,59.52380952,8,1,15,-0.090740698,-0.011111118,1,0,0,0.9974,rock_grid_rect_2,6,13,-1,-1,0.997,0.135185171,-0.247222265,1,0,0,4.6139,Diorite_rect,3,4.614,0,14,0,14,0,1,,,,,,,,,,,,,
614de6895ac2892842f52ec7,TCR,2024-06-25_12h45.37.963,LearnStrategy,2023.2.3,Win32,59.52380952,8,1,16,-0.02407406,-0.000925947,1,0,0,1.1926,rock_grid_rect_2,2,12,-1,-1,1.193,-0.132407365,-0.262962977,1,0,0,5.0027,Basalt_rect,2,5.003,1,15,0,15,0,1,,,,,,,,,,,,,
614de6895ac2892842f52ec7,TCR,2024-06-25_12h45.37.963,LearnStrategy,2023.2.3,Win32,59.52380952,8,2,1,,,,,,,,4,01,,,,,,,,,,,3,2.218,0,,,,,,0.119444459,-0.241666653,1,0,0,2.2179,Diorite_rect,0,0,0,0,1,
614de6895ac2892842f52ec7,TCR,2024-06-25_12h45.37.963,LearnStrategy,2023.2.3,Win32,59.52380952,8,2,2,,,,,,,,1,10,,,,,,,,,,,1,5.595,1,,,,,,-0.369444423,-0.251851894,1,0,0,5.5947,Andesite_rect,1,0,1,0,1,
614de6895ac2892842f52ec7,TCR,2024-06-25_12h45.37.963,LearnStrategy,2023.2.3,Win32,59.52380952,8,2,3,,,,,,,,6,05,,,,,,,,,,,3,9.029,0,,,,,,0.174074102,-0.237963005,1,0,0,9.0294,Diorite_rect,2,0,2,0,1,
614de6895ac2892842f52ec7,TCR,2024-06-25_12h45.37.963,LearnStrategy,2023.2.3,Win32,59.52380952,8,2,4,,,,,,,,8,10,,,,,,,,,,,8,1.678,1,,,,,,0.372222194,-0.387037065,1,0,0,1.6779,Pumice_rect,3,0,3,0,1,
614de6895ac2892842f52ec7,TCR,2024-06-25_12h45.37.963,LearnStrategy,2023.2.3,Win32,59.52380952,8,2,5,,,,,,,,6,10,,,,,,,,,,,6,1.448,1,,,,,,-0.101851852,-0.402777778,1,0,0,1.4481,Pegmatite_rect,4,0,4,0,1,
614de6895ac2892842f52ec7,TCR,2024-06-25_12h45.37.963,LearnStrategy,2023.2.3,Win32,59.52380952,8,2,6,,,,,,,,7,05,,,,,,,,,,,7,1.911,1,,,,,,0.126851894,-0.389814801,1,0,0,1.9109,Peridotite_rect,5,0,5,0,1,
614de6895ac2892842f52ec7,TCR,2024-06-25_12h45.37.963,LearnStrategy,2023.2.3,Win32,59.52380952,8,2,7,,,,,,,,8,02,,,,,,,,,,,8,1.396,1,,,,,,0.327777863,-0.382407436,1,0,0,1.3957,Pumice_rect,6,0,6,0,1,
614de6895ac2892842f52ec7,TCR,2024-06-25_12h45.37.963,LearnStrategy,2023.2.3,Win32,59.52380952,8,2,8,,,,,,,,3,09,,,,,,,,,,,3,1.528,1,,,,,,0.137037065,-0.252777806,1,0,0,1.528,Diorite_rect,7,0,7,0,1,
614de6895ac2892842f52ec7,TCR,2024-06-25_12h45.37.963,LearnStrategy,2023.2.3,Win32,59.52380952,8,2,9,,,,,,,,4,03,,,,,,,,,,,3,9.103,0,,,,,,0.137037065,-0.252777806,1,0,0,9.1033,Diorite_rect,8,0,8,0,1,
614de6895ac2892842f52ec7,TCR,2024-06-25_12h45.37.963,LearnStrategy,2023.2.3,Win32,59.52380952,8,2,10,,,,,,,,7,10,,,,,,,,,,,7,1.865,1,,,,,,0.136111153,-0.385185171,1,0,0,1.865,Peridotite_rect,9,0,9,0,1,
614de6895ac2892842f52ec7,TCR,2024-06-25_12h45.37.963,LearnStrategy,2023.2.3,Win32,59.52380952,8,2,11,,,,,,,,2,05,,,,,,,,,,,2,1.294,1,,,,,,-0.085185157,-0.24537037,1,0,0,1.2943,Basalt_rect,10,0,10,0,1,
614de6895ac2892842f52ec7,TCR,2024-06-25_12h45.37.963,LearnStrategy,2023.2.3,Win32,59.52380952,8,2,12,,,,,,,,3,13,,,,,,,,,,,7,5.729,0,,,,,,0.095370399,-0.395370413,1,0,0,5.7288,Peridotite_rect,11,0,11,0,1,
614de6895ac2892842f52ec7,TCR,2024-06-25_12h45.37.963,LearnStrategy,2023.2.3,Win32,59.52380952,8,2,13,,,,,,,,5,05,,,,,,,,,,,5,2.093,1,,,,,,-0.372222229,-0.397222236,1,0,0,2.0932,Obsidian_rect,12,0,12,0,1,
614de6895ac2892842f52ec7,TCR,2024-06-25_12h45.37.963,LearnStrategy,2023.2.3,Win32,59.52380952,8,2,14,,,,,,,,2,11,,,,,,,,,,,2,1.669,1,,,,,,-0.122222194,-0.243518547,1,0,0,1.6689,Basalt_rect,13,0,13,0,1,
614de6895ac2892842f52ec7,TCR,2024-06-25_12h45.37.963,LearnStrategy,2023.2.3,Win32,59.52380952,8,2,15,,,,,,,,1,06,,,,,,,,,,,1,2.438,1,,,,,,-0.402777778,-0.248148176,1,0,0,2.438,Andesite_rect,14,0,14,0,1,
614de6895ac2892842f52ec7,TCR,2024-06-25_12h45.37.963,LearnStrategy,2023.2.3,Win32,59.52380952,8,2,16,,,,,,,,5,10,,,,,,,,,,,5,1.407,1,,,,,,-0.40648146,-0.389814801,1,0,0,1.4068,Obsidian_rect,15,0,15,0,1,
614de6895ac2892842f52ec7,TCR,2024-06-25_12h45.37.963,LearnStrategy,2023.2.3,Win32,59.52380952,9,1,1,-0.023148148,0.005555541,1,0,0,1.1983,rock_grid_rect_2,6,16,-1,-1,1.198,-0.12037037,-0.402777778,1,0,0,5.5788,Pegmatite_rect,6,5.579,1,0,0,0,0,1,,,,,,,,,,,,,
614de6895ac2892842f52ec7,TCR,2024-06-25_12h45.37.963,LearnStrategy,2023.2.3,Win32,59.52380952,9,1,2,-0.022222236,-0.008333347,1,0,0,1.0969,rock_grid_rect_2,4,12,-1,-1,1.097,0.35555564,-0.248148176,1,0,0,2.345,Gabbro_rect,4,2.345,1,1,0,1,0,1,,,,,,,,,,,,,
614de6895ac2892842f52ec7,TCR,2024-06-25_12h45.37.963,LearnStrategy,2023.2.3,Win32,59.52380952,9,1,3,-0.054629644,0.014814801,1,0,0,0.8972,rock_grid_rect_2,6,06,-1,-1,0.897,-0.125925912,-0.385185171,1,0,0,1.7526,Pegmatite_rect,6,1.753,1,2,0,2,0,1,,,,,,,,,,,,,
614de6895ac2892842f52ec7,TCR,2024-06-25_12h45.37.963,LearnStrategy,2023.2.3,Win32,59.52380952,9,1,4,0.007407436,0.01944443,1,0,0,0.9478,rock_grid_rect_2,6,09,-1,-1,0.948,-0.110185199,-0.39444443,1,0,0,2.3028,Pegmatite_rect,6,2.303,1,3,0,3,0,1,,,,,,,,,,,,,
614de6895ac2892842f52ec7,TCR,2024-06-25_12h45.37.963,LearnStrategy,2023.2.3,Win32,59.52380952,9,1,5,-0.002777735,-0.001851859,1,0,0,0.9341,rock_grid_rect_2,8,14,-1,-1,0.934,0.396296325,-0.391666695,1,0,0,1.6305,Pumice_rect,8,1.631,1,4,0,4,0,1,,,,,,,,,,,,,
614de6895ac2892842f52ec7,TCR,2024-06-25_12h45.37.963,LearnStrategy,2023.2.3,Win32,59.52380952,9,1,6,-0.013888889,0.006481489,1,0,0,0.8386,rock_grid_rect_2,1,09,-1,-1,0.839,-0.416666667,-0.250925912,1,0,0,2.7978,Andesite_rect,1,2.798,1,5,0,5,0,1,,,,,,,,,,,,,
614de6895ac2892842f52ec7,TCR,2024-06-25_12h45.37.963,LearnStrategy,2023.2.3,Win32,59.52380952,9,1,7,-0.005555541,-0.00462963,1,0,0,0.8636,rock_grid_rect_2,1,16,-1,-1,0.864,-0.383333312,-0.236111111,1,0,0,2.6375,Andesite_rect,1,2.638,1,6,0,6,0,1,,,,,,,,,,,,,
614de6895ac2892842f52ec7,TCR,2024-06-25_12h45.37.963,LearnStrategy,2023.2.3,Win32,59.52380952,9,1,8,-0.009259259,0.022222201,1,0,0,4.3542,rock_grid_rect_2,3,08,-1,-1,4.354,0.148148148,-0.246296282,1,0,0,1.8479,Diorite_rect,3,1.848,1,7,0,7,0,1,,,,,,,,,,,,,
614de6895ac2892842f52ec7,TCR,2024-06-25_12h45.37.963,LearnStrategy,2023.2.3,Win32,59.52380952,9,1,9,-0.031481496,-0.003703718,1,0,0,1.6851,rock_grid_rect_2,7,14,-1,-1,1.685,0.134259259,-0.404629672,1,0,0,2.8725,Peridotite_rect,7,2.872,1,8,0,8,0,1,,,,,,,,,,,,,
614de6895ac2892842f52ec7,TCR,2024-06-25_12h45.37.963,LearnStrategy,2023.2.3,Win32,59.52380952,9,1,10,-0.009259259,-0.005555577,1,0,0,0.9299,rock_grid_rect_2,5,08,-1,-1,0.93,-0.377777771,-0.39444443,1,0,0,1.4146,Obsidian_rect,5,1.415,1,9,0,9,0,1,,,,,,,,,,,,,
614de6895ac2892842f52ec7,TCR,2024-06-25_12h45.37.963,LearnStrategy,2023.2.3,Win32,59.52380952,9,1,11,-0.012036995,-0.008333347,1,0,0,1.1976,rock_grid_rect_2,4,12,-1,-1,1.198,0.396296325,-0.240740741,1,0,0,1.7447,Gabbro_rect,4,1.745,1,10,0,10,0,1,,,,,,,,,,,,,
614de6895ac2892842f52ec7,TCR,2024-06-25_12h45.37.963,LearnStrategy,2023.2.3,Win32,59.52380952,9,1,12,-0.055555556,-0.010185206,1,0,0,1.6645,rock_grid_rect_2,4,10,-1,-1,1.664,0.388888889,-0.232407393,1,0,0,2.3276,Gabbro_rect,4,2.328,1,11,0,11,0,1,,,,,,,,,,,,,
614de6895ac2892842f52ec7,TCR,2024-06-25_12h45.37.963,LearnStrategy,2023.2.3,Win32,59.52380952,9,1,13,0.00462963,-0.010185206,1,0,0,0.997,rock_grid_rect_2,3,10,-1,-1,0.997,0.127777806,-0.262962977,1,0,0,2.661,Diorite_rect,3,2.661,1,12,0,12,0,1,,,,,,,,,,,,,
614de6895ac2892842f52ec7,TCR,2024-06-25_12h45.37.963,LearnStrategy,2023.2.3,Win32,59.52380952,9,1,14,-0.021296254,-0.013888889,1,0,0,1.1968,rock_grid_rect_2,2,10,-1,-1,1.197,-0.125,-0.249074088,1,0,0,1.4284,Basalt_rect,2,1.428,1,13,0,13,0,1,,,,,,,,,,,,,
614de6895ac2892842f52ec7,TCR,2024-06-25_12h45.37.963,LearnStrategy,2023.2.3,Win32,59.52380952,9,1,15,0.030555584,-0.006481489,1,0,0,1.0814,rock_grid_rect_2,3,16,-1,-1,1.081,0.124074088,-0.23055557,1,0,0,2.728,Diorite_rect,3,2.728,1,14,0,14,0,1,,,,,,,,,,,,,
614de6895ac2892842f52ec7,TCR,2024-06-25_12h45.37.963,LearnStrategy,2023.2.3,Win32,59.52380952,9,1,16,-0.001851824,0.0074074,1,0,0,0.83,rock_grid_rect_2,2,09,-1,-1,0.83,-0.133333347,-0.235185199,1,0,0,1.3614,Basalt_rect,2,1.361,1,15,0,15,0,1,,,,,,,,,,,,,
614de6895ac2892842f52ec7,TCR,2024-06-25_12h45.37.963,LearnStrategy,2023.2.3,Win32,59.52380952,9,2,1,,,,,,,,4,14,,,,,,,,,,,4,2.628,1,,,,,,0.397222307,-0.253703718,1,0,0,2.6282,Gabbro_rect,0,0,0,0,1,
614de6895ac2892842f52ec7,TCR,2024-06-25_12h45.37.963,LearnStrategy,2023.2.3,Win32,59.52380952,9,2,2,,,,,,,,7,13,,,,,,,,,,,7,1.608,1,,,,,,0.117592635,-0.40370369,1,0,0,1.6081,Peridotite_rect,1,0,1,0,1,
614de6895ac2892842f52ec7,TCR,2024-06-25_12h45.37.963,LearnStrategy,2023.2.3,Win32,59.52380952,9,2,3,,,,,,,,3,06,,,,,,,,,,,3,3.019,1,,,,,,0.111111111,-0.241666653,1,0,0,3.0186,Diorite_rect,2,0,2,0,1,
614de6895ac2892842f52ec7,TCR,2024-06-25_12h45.37.963,LearnStrategy,2023.2.3,Win32,59.52380952,9,2,4,,,,,,,,6,03,,,,,,,,,,,6,1.887,1,,,,,,-0.135185171,-0.412037037,1,0,0,1.8874,Pegmatite_rect,3,0,3,0,1,
614de6895ac2892842f52ec7,TCR,2024-06-25_12h45.37.963,LearnStrategy,2023.2.3,Win32,59.52380952,9,2,5,,,,,,,,2,06,,,,,,,,,,,2,7.057,1,,,,,,-0.14444443,-0.252777806,1,0,0,7.0573,Basalt_rect,4,0,4,0,1,
614de6895ac2892842f52ec7,TCR,2024-06-25_12h45.37.963,LearnStrategy,2023.2.3,Win32,59.52380952,9,2,6,,,,,,,,5,14,,,,,,,,,,,5,1.473,1,,,,,,-0.405555548,-0.393518519,1,0,0,1.4731,Obsidian_rect,5,0,5,0,1,
614de6895ac2892842f52ec7,TCR,2024-06-25_12h45.37.963,LearnStrategy,2023.2.3,Win32,59.52380952,9,2,7,,,,,,,,7,02,,,,,,,,,,,7,1.66,1,,,,,,0.150000042,-0.396296325,1,0,0,1.6605,Peridotite_rect,6,0,6,0,1,
614de6895ac2892842f52ec7,TCR,2024-06-25_12h45.37.963,LearnStrategy,2023.2.3,Win32,59.52380952,9,2,8,,,,,,,,8,16,,,,,,,,,,,8,2.645,1,,,,,,0.363888917,-0.386111153,1,0,0,2.6449,Pumice_rect,7,0,7,0,1,
614de6895ac2892842f52ec7,TCR,2024-06-25_12h45.37.963,LearnStrategy,2023.2.3,Win32,59.52380952,9,2,9,,,,,,,,1,02,,,,,,,,,,,1,2.276,1,,,,,,-0.3675926,-0.244444459,1,0,0,2.2763,Andesite_rect,8,0,8,0,1,
614de6895ac2892842f52ec7,TCR,2024-06-25_12h45.37.963,LearnStrategy,2023.2.3,Win32,59.52380952,9,2,10,,,,,,,,6,15,,,,,,,,,,,6,1.627,1,,,,,,-0.111111111,-0.385185171,1,0,0,1.627,Pegmatite_rect,9,0,9,0,1,
614de6895ac2892842f52ec7,TCR,2024-06-25_12h45.37.963,LearnStrategy,2023.2.3,Win32,59.52380952,9,2,11,,,,,,,,5,07,,,,,,,,,,,5,1.552,1,,,,,,-0.350925905,-0.397222236,1,0,0,1.5516,Obsidian_rect,10,0,10,0,1,
614de6895ac2892842f52ec7,TCR,2024-06-25_12h45.37.963,LearnStrategy,2023.2.3,Win32,59.52380952,9,2,12,,,,,,,,3,11,,,,,,,,,,,3,2.002,1,,,,,,0.137037065,-0.232407393,1,0,0,2.0023,Diorite_rect,11,0,11,0,1,
614de6895ac2892842f52ec7,TCR,2024-06-25_12h45.37.963,LearnStrategy,2023.2.3,Win32,59.52380952,9,2,13,,,,,,,,4,13,,,,,,,,,,,4,1.856,1,,,,,,0.369444529,-0.248148176,1,0,0,1.856,Gabbro_rect,12,0,12,0,1,
614de6895ac2892842f52ec7,TCR,2024-06-25_12h45.37.963,LearnStrategy,2023.2.3,Win32,59.52380952,9,2,14,,,,,,,,8,04,,,,,,,,,,,8,1.311,1,,,,,,0.350000028,-0.408333319,1,0,0,1.3106,Pumice_rect,13,0,13,0,1,
614de6895ac2892842f52ec7,TCR,2024-06-25_12h45.37.963,LearnStrategy,2023.2.3,Win32,59.52380952,9,2,15,,,,,,,,2,01,,,,,,,,,,,2,1.861,1,,,,,,-0.125925912,-0.238888917,1,0,0,1.8608,Basalt_rect,14,0,14,0,1,
614de6895ac2892842f52ec7,TCR,2024-06-25_12h45.37.963,LearnStrategy,2023.2.3,Win32,59.52380952,9,2,16,,,,,,,,1,05,,,,,,,,,,,1,4.942,1,,,,,,-0.383333312,-0.242592635,1,0,0,4.942,Andesite_rect,15,0,15,0,1,
614de6895ac2892842f52ec7,TCR,2024-06-25_12h45.37.963,LearnStrategy,2023.2.3,Win32,59.52380952,,,,,,,,,,,,,,,,,,,,,,,,,,,,,,,,,,,,,,,,,,,1
614de6895ac2892842f52ec7,TCR,2024-06-25_12h45.37.963,LearnStrategy,2023.2.3,Win32,59.52380952,,,,,,,,,,,,,,,,,,,,,,,,,,,,,,,,,,,,,,,,,,,
614de6895ac2892842f52ec7,TCR,2024-06-25_12h45.37.963,LearnStrategy,2023.2.3,Win32,59.52380952,,,,,,,,,,,3,07,1,1,,,,,,,,,,,,,,,,,,,,,,,,,,,,,
614de6895ac2892842f52ec7,TCR,2024-06-25_12h45.37.963,LearnStrategy,2023.2.3,Win32,59.52380952,,,,,,,,,,,4,12,1,2,,,,,,,,,,,,,,,,,,,,,,,,,,,,,
614de6895ac2892842f52ec7,TCR,2024-06-25_12h45.37.963,LearnStrategy,2023.2.3,Win32,59.52380952,,,,,,,,,,,2,02,1,3,,,,,,,,,,,,,,,,,,,,,,,,,,,,,
614de6895ac2892842f52ec7,TCR,2024-06-25_12h45.37.963,LearnStrategy,2023.2.3,Win32,59.52380952,,,,,,,,,,,5,11,1,4,,,,,,,,,,,,,,,,,,,,,,,,,,,,,
614de6895ac2892842f52ec7,TCR,2024-06-25_12h45.37.963,LearnStrategy,2023.2.3,Win32,59.52380952,,,,,,,,,,,4,15,1,5,,,,,,,,,,,,,,,,,,,,,,,,,,,,,
614de6895ac2892842f52ec7,TCR,2024-06-25_12h45.37.963,LearnStrategy,2023.2.3,Win32,59.52380952,,,,,,,,,,,4,08,1,6,,,,,,,,,,,,,,,,,,,,,,,,,,,,,
614de6895ac2892842f52ec7,TCR,2024-06-25_12h45.37.963,LearnStrategy,2023.2.3,Win32,59.52380952,,,,,,,,,,,8,13,1,7,,,,,,,,,,,,,,,,,,,,,,,,,,,,,
614de6895ac2892842f52ec7,TCR,2024-06-25_12h45.37.963,LearnStrategy,2023.2.3,Win32,59.52380952,,,,,,,,,,,7,07,1,8,,,,,,,,,,,,,,,,,,,,,,,,,,,,,
614de6895ac2892842f52ec7,TCR,2024-06-25_12h45.37.963,LearnStrategy,2023.2.3,Win32,59.52380952,,,,,,,,,,,3,16,2,1,,,,,,,,,,,,,,,,,,,,,,,,,,,,,
614de6895ac2892842f52ec7,TCR,2024-06-25_12h45.37.963,LearnStrategy,2023.2.3,Win32,59.52380952,,,,,,,,,,,2,12,2,2,,,,,,,,,,,,,,,,,,,,,,,,,,,,,
614de6895ac2892842f52ec7,TCR,2024-06-25_12h45.37.963,LearnStrategy,2023.2.3,Win32,59.52380952,,,,,,,,,,,6,07,2,3,,,,,,,,,,,,,,,,,,,,,,,,,,,,,
614de6895ac2892842f52ec7,TCR,2024-06-25_12h45.37.963,LearnStrategy,2023.2.3,Win32,59.52380952,,,,,,,,,,,3,08,2,4,,,,,,,,,,,,,,,,,,,,,,,,,,,,,
614de6895ac2892842f52ec7,TCR,2024-06-25_12h45.37.963,LearnStrategy,2023.2.3,Win32,59.52380952,,,,,,,,,,,6,16,2,5,,,,,,,,,,,,,,,,,,,,,,,,,,,,,
614de6895ac2892842f52ec7,TCR,2024-06-25_12h45.37.963,LearnStrategy,2023.2.3,Win32,59.52380952,,,,,,,,,,,5,06,2,6,,,,,,,,,,,,,,,,,,,,,,,,,,,,,
614de6895ac2892842f52ec7,TCR,2024-06-25_12h45.37.963,LearnStrategy,2023.2.3,Win32,59.52380952,,,,,,,,,,,8,06,2,7,,,,,,,,,,,,,,,,,,,,,,,,,,,,,
614de6895ac2892842f52ec7,TCR,2024-06-25_12h45.37.963,LearnStrategy,2023.2.3,Win32,59.52380952,,,,,,,,,,,6,06,2,8,,,,,,,,,,,,,,,,,,,,,,,,,,,,,
614de6895ac2892842f52ec7,TCR,2024-06-25_12h45.37.963,LearnStrategy,2023.2.3,Win32,59.52380952,,,,,,,,,,,3,10,3,1,,,,,,,,,,,,,,,,,,,,,,,,,,,,,
614de6895ac2892842f52ec7,TCR,2024-06-25_12h45.37.963,LearnStrategy,2023.2.3,Win32,59.52380952,,,,,,,,,,,2,08,3,2,,,,,,,,,,,,,,,,,,,,,,,,,,,,,
614de6895ac2892842f52ec7,TCR,2024-06-25_12h45.37.963,LearnStrategy,2023.2.3,Win32,59.52380952,,,,,,,,,,,1,01,3,3,,,,,,,,,,,,,,,,,,,,,,,,,,,,,
614de6895ac2892842f52ec7,TCR,2024-06-25_12h45.37.963,LearnStrategy,2023.2.3,Win32,59.52380952,,,,,,,,,,,7,06,3,4,,,,,,,,,,,,,,,,,,,,,,,,,,,,,
614de6895ac2892842f52ec7,TCR,2024-06-25_12h45.37.963,LearnStrategy,2023.2.3,Win32,59.52380952,,,,,,,,,,,2,09,3,5,,,,,,,,,,,,,,,,,,,,,,,,,,,,,
614de6895ac2892842f52ec7,TCR,2024-06-25_12h45.37.963,LearnStrategy,2023.2.3,Win32,59.52380952,,,,,,,,,,,3,14,3,6,,,,,,,,,,,,,,,,,,,,,,,,,,,,,
614de6895ac2892842f52ec7,TCR,2024-06-25_12h45.37.963,LearnStrategy,2023.2.3,Win32,59.52380952,,,,,,,,,,,4,09,3,7,,,,,,,,,,,,,,,,,,,,,,,,,,,,,
614de6895ac2892842f52ec7,TCR,2024-06-25_12h45.37.963,LearnStrategy,2023.2.3,Win32,59.52380952,,,,,,,,,,,1,07,3,8,,,,,,,,,,,,,,,,,,,,,,,,,,,,,
614de6895ac2892842f52ec7,TCR,2024-06-25_12h45.37.963,LearnStrategy,2023.2.3,Win32,59.52380952,,,,,,,,,,,6,08,4,1,,,,,,,,,,,,,,,,,,,,,,,,,,,,,
614de6895ac2892842f52ec7,TCR,2024-06-25_12h45.37.963,LearnStrategy,2023.2.3,Win32,59.52380952,,,,,,,,,,,6,13,4,2,,,,,,,,,,,,,,,,,,,,,,,,,,,,,
614de6895ac2892842f52ec7,TCR,2024-06-25_12h45.37.963,LearnStrategy,2023.2.3,Win32,59.52380952,,,,,,,,,,,8,05,4,3,,,,,,,,,,,,,,,,,,,,,,,,,,,,,
614de6895ac2892842f52ec7,TCR,2024-06-25_12h45.37.963,LearnStrategy,2023.2.3,Win32,59.52380952,,,,,,,,,,,7,08,4,4,,,,,,,,,,,,,,,,,,,,,,,,,,,,,
614de6895ac2892842f52ec7,TCR,2024-06-25_12h45.37.963,LearnStrategy,2023.2.3,Win32,59.52380952,,,,,,,,,,,2,10,4,5,,,,,,,,,,,,,,,,,,,,,,,,,,,,,
614de6895ac2892842f52ec7,TCR,2024-06-25_12h45.37.963,LearnStrategy,2023.2.3,Win32,59.52380952,,,,,,,,,,,4,10,4,6,,,,,,,,,,,,,,,,,,,,,,,,,,,,,
614de6895ac2892842f52ec7,TCR,2024-06-25_12h45.37.963,LearnStrategy,2023.2.3,Win32,59.52380952,,,,,,,,,,,1,03,4,7,,,,,,,,,,,,,,,,,,,,,,,,,,,,,
614de6895ac2892842f52ec7,TCR,2024-06-25_12h45.37.963,LearnStrategy,2023.2.3,Win32,59.52380952,,,,,,,,,,,1,16,4,8,,,,,,,,,,,,,,,,,,,,,,,,,,,,,
614de6895ac2892842f52ec7,TCR,2024-06-25_12h45.37.963,LearnStrategy,2023.2.3,Win32,59.52380952,,,,,,,,,,,2,16,5,1,,,,,,,,,,,,,,,,,,,,,,,,,,,,,
614de6895ac2892842f52ec7,TCR,2024-06-25_12h45.37.963,LearnStrategy,2023.2.3,Win32,59.52380952,,,,,,,,,,,6,09,5,2,,,,,,,,,,,,,,,,,,,,,,,,,,,,,
614de6895ac2892842f52ec7,TCR,2024-06-25_12h45.37.963,LearnStrategy,2023.2.3,Win32,59.52380952,,,,,,,,,,,7,12,5,3,,,,,,,,,,,,,,,,,,,,,,,,,,,,,
614de6895ac2892842f52ec7,TCR,2024-06-25_12h45.37.963,LearnStrategy,2023.2.3,Win32,59.52380952,,,,,,,,,,,1,09,5,4,,,,,,,,,,,,,,,,,,,,,,,,,,,,,
614de6895ac2892842f52ec7,TCR,2024-06-25_12h45.37.963,LearnStrategy,2023.2.3,Win32,59.52380952,,,,,,,,,,,5,02,5,5,,,,,,,,,,,,,,,,,,,,,,,,,,,,,
614de6895ac2892842f52ec7,TCR,2024-06-25_12h45.37.963,LearnStrategy,2023.2.3,Win32,59.52380952,,,,,,,,,,,3,15,5,6,,,,,,,,,,,,,,,,,,,,,,,,,,,,,
614de6895ac2892842f52ec7,TCR,2024-06-25_12h45.37.963,LearnStrategy,2023.2.3,Win32,59.52380952,,,,,,,,,,,8,09,5,7,,,,,,,,,,,,,,,,,,,,,,,,,,,,,
614de6895ac2892842f52ec7,TCR,2024-06-25_12h45.37.963,LearnStrategy,2023.2.3,Win32,59.52380952,,,,,,,,,,,7,14,5,8,,,,,,,,,,,,,,,,,,,,,,,,,,,,,
614de6895ac2892842f52ec7,TCR,2024-06-25_12h45.37.963,LearnStrategy,2023.2.3,Win32,59.52380952,,,,,,,,,,,8,03,6,1,,,,,,,,,,,,,,,,,,,,,,,,,,,,,
614de6895ac2892842f52ec7,TCR,2024-06-25_12h45.37.963,LearnStrategy,2023.2.3,Win32,59.52380952,,,,,,,,,,,4,16,6,2,,,,,,,,,,,,,,,,,,,,,,,,,,,,,
614de6895ac2892842f52ec7,TCR,2024-06-25_12h45.37.963,LearnStrategy,2023.2.3,Win32,59.52380952,,,,,,,,,,,8,14,6,3,,,,,,,,,,,,,,,,,,,,,,,,,,,,,
614de6895ac2892842f52ec7,TCR,2024-06-25_12h45.37.963,LearnStrategy,2023.2.3,Win32,59.52380952,,,,,,,,,,,7,04,6,4,,,,,,,,,,,,,,,,,,,,,,,,,,,,,
614de6895ac2892842f52ec7,TCR,2024-06-25_12h45.37.963,LearnStrategy,2023.2.3,Win32,59.52380952,,,,,,,,,,,5,08,6,5,,,,,,,,,,,,,,,,,,,,,,,,,,,,,
614de6895ac2892842f52ec7,TCR,2024-06-25_12h45.37.963,LearnStrategy,2023.2.3,Win32,59.52380952,,,,,,,,,,,5,04,6,6,,,,,,,,,,,,,,,,,,,,,,,,,,,,,
614de6895ac2892842f52ec7,TCR,2024-06-25_12h45.37.963,LearnStrategy,2023.2.3,Win32,59.52380952,,,,,,,,,,,5,16,6,7,,,,,,,,,,,,,,,,,,,,,,,,,,,,,
614de6895ac2892842f52ec7,TCR,2024-06-25_12h45.37.963,LearnStrategy,2023.2.3,Win32,59.52380952,,,,,,,,,,,1,04,6,8,,,,,,,,,,,,,,,,,,,,,,,,,,,,,