participant,condition,date,expName,psychopyVersion,OS,frameRate,block,phase,trial,learn_mouse_2.x,learn_mouse_2.y,learn_mouse_2.leftButton,learn_mouse_2.midButton,learn_mouse_2.rightButton,learn_mouse_2.time,learn_mouse_2.clicked_name,cat,token,row,col,t_select,cat_mouse_l.x,cat_mouse_l.y,cat_mouse_l.leftButton,cat_mouse_l.midButton,cat_mouse_l.rightButton,cat_mouse_l.time,cat_mouse_l.clicked_name,resp,t_resp,corr,train_trials.thisRepN,train_trials.thisTrialN,train_trials.thisN,train_trials.thisIndex,train_trials.ran,cat_mouse_t.x,cat_mouse_t.y,cat_mouse_t.leftButton,cat_mouse_t.midButton,cat_mouse_t.rightButton,cat_mouse_t.time,cat_mouse_t.clicked_name,test_trials.thisRepN,test_trials.thisTrialN,test_trials.thisN,test_trials.thisIndex,test_trials.ran,Bonus
61bb392e40db417c1a138dcb,TCR,2024-06-24_14h44.56.337,LearnStrategy,2023.2.3,Linux x86_64,60.06006006,,,,,,,,,,,,,,,,,,,,,,,,,,,,,,,,,,,,,,,,,,,
61bb392e40db417c1a138dcb,TCR,2024-06-24_14h44.56.337,LearnStrategy,2023.2.3,Linux x86_64,60.06006006,1,1,1,0.160245816,-0.008403063,1,0,0,7.6501,rock_grid_rect_2,8,03,-1,-1,7.65,-0.128536383,-0.22913297,1,0,0,7.0494,Basalt_rect,2,7.049,0,0,0,0,0,1,,,,,,,,,,,,,
61bb392e40db417c1a138dcb,TCR,2024-06-24_14h44.56.337,LearnStrategy,2023.2.3,Linux x86_64,60.06006006,1,1,2,-0.016677618,0.001667817,1,0,0,7.291,rock_grid_rect_2,5,11,-1,-1,7.291,-0.367176255,-0.382376989,1,0,0,6.518,Obsidian_rect,5,6.518,1,1,0,1,0,1,,,,,,,,,,,,,
61bb392e40db417c1a138dcb,TCR,2024-06-24_14h44.56.337,LearnStrategy,2023.2.3,Linux x86_64,60.06006006,1,1,3,-0.163983345,-0.005792896,1,0,0,12.5786,rock_grid_rect_2,6,11,-1,-1,12.579,-0.225232402,-0.245737076,1,0,0,10.2267,Basalt_rect,2,10.227,0,2,0,2,0,1,,,,,,,,,,,,,
61bb392e40db417c1a138dcb,TCR,2024-06-24_14h44.56.337,LearnStrategy,2023.2.3,Linux x86_64,60.06006006,1,1,4,0.020079931,0.010370135,1,0,0,1.6285,rock_grid_rect_2,1,07,-1,-1,1.629,0.137626727,-0.262480418,1,0,0,15.6945,Diorite_rect,3,15.694,0,3,0,3,0,1,,,,,,,,,,,,,
61bb392e40db417c1a138dcb,TCR,2024-06-24_14h44.56.337,LearnStrategy,2023.2.3,Linux x86_64,60.06006006,1,1,5,0.078436852,-0.007979631,1,0,0,1.547599999,rock_grid_rect_2,5,07,-1,-1,1.548,-0.089611769,-0.393465281,1,0,0,4.338900001,Pegmatite_rect,6,4.339,0,4,0,4,0,1,,,,,,,,,,,,,
61bb392e40db417c1a138dcb,TCR,2024-06-24_14h44.56.337,LearnStrategy,2023.2.3,Linux x86_64,60.06006006,1,1,6,0.009892782,-0.01027894,1,0,0,1.8704,rock_grid_rect_2,6,13,-1,-1,1.87,-0.133241336,-0.25128897,1,0,0,7.644099999,Basalt_rect,2,7.644,0,5,0,5,0,1,,,,,,,,,,,,,
61bb392e40db417c1a138dcb,TCR,2024-06-24_14h44.56.337,LearnStrategy,2023.2.3,Linux x86_64,60.06006006,1,1,7,0.025179545,-0.01031963,1,0,0,3.6922,rock_grid_rect_2,4,08,-1,-1,3.692,-0.129512231,-0.257720073,1,0,0,27.7878,Basalt_rect,2,27.788,0,6,0,6,0,1,,,,,,,,,,,,,
61bb392e40db417c1a138dcb,TCR,2024-06-24_14h44.56.337,LearnStrategy,2023.2.3,Linux x86_64,60.06006006,1,1,8,0.040516059,0.002275983,1,0,0,3.438200001,rock_grid_rect_2,3,13,-1,-1,3.438,-0.411502202,-0.229715506,1,0,0,12.6758,Andesite_rect,1,12.676,0,7,0,7,0,1,,,,,,,,,,,,,
61bb392e40db417c1a138dcb,TCR,2024-06-24_14h44.56.337,LearnStrategy,2023.2.3,Linux x86_64,60.06006006,1,1,9,0.094145219,-0.007303397,1,0,0,2.3009,rock_grid_rect_2,1,03,-1,-1,2.301,0.124788284,-0.250333071,1,0,0,3.589900001,Diorite_rect,3,3.59,0,8,0,8,0,1,,,,,,,,,,,,,
61bb392e40db417c1a138dcb,TCR,2024-06-24_14h44.56.337,LearnStrategy,2023.2.3,Linux x86_64,60.06006006,1,1,10,0.061150471,-0.007975976,1,0,0,3.1133,rock_grid_rect_2,3,09,-1,-1,3.113,-0.1165874,-0.397774378,1,0,0,17.7334,Pegmatite_rect,6,17.733,0,9,0,9,0,1,,,,,,,,,,,,,
61bb392e40db417c1a138dcb,TCR,2024-06-24_14h44.56.337,LearnStrategy,2023.2.3,Linux x86_64,60.06006006,1,1,11,0.04083252,0.007541021,1,0,0,1.369099999,rock_grid_rect_2,2,09,-1,-1,1.369,0.405453046,-0.240956783,1,0,0,4.6329,Gabbro_rect,4,4.633,0,10,0,10,0,1,,,,,,,,,,,,,
61bb392e40db417c1a138dcb,TCR,2024-06-24_14h44.56.337,LearnStrategy,2023.2.3,Linux x86_64,60.06006006,1,1,12,0.025269032,0.003343145,1,0,0,2.007400001,rock_grid_rect_2,7,04,-1,-1,2.007,0.088367939,-0.25074323,1,0,0,7.213400001,Diorite_rect,3,7.213,0,11,0,11,0,1,,,,,,,,,,,,,
61bb392e40db417c1a138dcb,TCR,2024-06-24_14h44.56.337,LearnStrategy,2023.2.3,Linux x86_64,60.06006006,1,1,13,-0.083649079,0.007076581,1,0,0,12.3868,rock_grid_rect_2,8,06,-1,-1,12.387,0.317868392,-0.407835166,1,0,0,4.7157,Pumice_rect,8,4.716,1,12,0,12,0,1,,,,,,,,,,,,,
61bb392e40db417c1a138dcb,TCR,2024-06-24_14h44.56.337,LearnStrategy,2023.2.3,Linux x86_64,60.06006006,1,1,14,0.022661527,0.002484997,1,0,0,3.649900001,rock_grid_rect_2,4,14,-1,-1,3.65,-0.127822081,-0.406727076,1,0,0,3.8309,Pegmatite_rect,6,3.831,0,13,0,13,0,1,,,,,,,,,,,,,
61bb392e40db417c1a138dcb,TCR,2024-06-24_14h44.56.337,LearnStrategy,2023.2.3,Linux x86_64,60.06006006,1,1,15,0.090904713,0.01204141,1,0,0,1.2604,rock_grid_rect_2,7,02,-1,-1,1.26,0.076644023,-0.400373379,1,0,0,5.422900001,Peridotite_rect,7,5.423,1,14,0,14,0,1,,,,,,,,,,,,,
61bb392e40db417c1a138dcb,TCR,2024-06-24_14h44.56.337,LearnStrategy,2023.2.3,Linux x86_64,60.06006006,1,1,16,0.054197788,0.011820753,1,0,0,1.6617,rock_grid_rect_2,2,14,-1,-1,1.662,0.385503292,-0.244006872,1,0,0,3.0648,Gabbro_rect,4,3.065,0,15,0,15,0,1,,,,,,,,,,,,,
61bb392e40db417c1a138dcb,TCR,2024-06-24_14h44.56.337,LearnStrategy,2023.2.3,Linux x86_64,60.06006006,1,2,1,,,,,,,,2,02,,,,,,,,,,,2,28.994,1,,,,,,-0.120337248,-0.246493896,1,0,0,28.994,Basalt_rect,0,0,0,0,1,
61bb392e40db417c1a138dcb,TCR,2024-06-24_14h44.56.337,LearnStrategy,2023.2.3,Linux x86_64,60.06006006,1,2,2,,,,,,,,1,11,,,,,,,,,,,1,12.917,1,,,,,,-0.458542784,-0.251485825,1,0,0,12.9167,Andesite_rect,1,0,1,0,1,
61bb392e40db417c1a138dcb,TCR,2024-06-24_14h44.56.337,LearnStrategy,2023.2.3,Linux x86_64,60.06006006,1,2,3,,,,,,,,6,12,,,,,,,,,,,3,26.473,0,,,,,,0.138568878,-0.239625374,1,0,0,26.4731,Diorite_rect,2,0,2,0,1,
61bb392e40db417c1a138dcb,TCR,2024-06-24_14h44.56.337,LearnStrategy,2023.2.3,Linux x86_64,60.06006006,1,2,4,,,,,,,,1,14,,,,,,,,,,,1,16.227,1,,,,,,-0.424362739,-0.248842398,1,0,0,16.2274,Andesite_rect,3,0,3,0,1,
61bb392e40db417c1a138dcb,TCR,2024-06-24_14h44.56.337,LearnStrategy,2023.2.3,Linux x86_64,60.06006006,1,2,5,,,,,,,,5,04,,,,,,,,,,,5,5.247,1,,,,,,-0.393615603,-0.383421501,1,0,0,5.2474,Obsidian_rect,4,0,4,0,1,
61bb392e40db417c1a138dcb,TCR,2024-06-24_14h44.56.337,LearnStrategy,2023.2.3,Linux x86_64,60.06006006,1,2,6,,,,,,,,2,11,,,,,,,,,,,4,8.931,0,,,,,,0.41481781,-0.240083853,1,0,0,8.931,Gabbro_rect,5,0,5,0,1,
61bb392e40db417c1a138dcb,TCR,2024-06-24_14h44.56.337,LearnStrategy,2023.2.3,Linux x86_64,60.06006006,1,2,7,,,,,,,,8,13,,,,,,,,,,,8,15.461,1,,,,,,0.426784833,-0.399864753,1,0,0,15.4605,Pumice_rect,6,0,6,0,1,
61bb392e40db417c1a138dcb,TCR,2024-06-24_14h44.56.337,LearnStrategy,2023.2.3,Linux x86_64,60.06006006,1,2,8,,,,,,,,5,08,,,,,,,,,,,5,6.111,1,,,,,,-0.433049122,-0.394706726,1,0,0,6.1114,Obsidian_rect,7,0,7,0,1,
61bb392e40db417c1a138dcb,TCR,2024-06-24_14h44.56.337,LearnStrategy,2023.2.3,Linux x86_64,60.06006006,1,2,9,,,,,,,,7,06,,,,,,,,,,,7,2.652,1,,,,,,0.161685864,-0.406350215,1,0,0,2.6523,Peridotite_rect,8,0,8,0,1,
61bb392e40db417c1a138dcb,TCR,2024-06-24_14h44.56.337,LearnStrategy,2023.2.3,Linux x86_64,60.06006006,1,2,10,,,,,,,,3,08,,,,,,,,,,,3,23.555,1,,,,,,0.131634474,-0.255432844,1,0,0,23.555,Diorite_rect,9,0,9,0,1,
61bb392e40db417c1a138dcb,TCR,2024-06-24_14h44.56.337,LearnStrategy,2023.2.3,Linux x86_64,60.06006006,1,2,11,,,,,,,,4,03,,,,,,,,,,,2,17.981,0,,,,,,-0.143646797,-0.237952391,1,0,0,17.9812,Basalt_rect,10,0,10,0,1,
61bb392e40db417c1a138dcb,TCR,2024-06-24_14h44.56.337,LearnStrategy,2023.2.3,Linux x86_64,60.06006006,1,2,12,,,,,,,,4,15,,,,,,,,,,,4,27.463,1,,,,,,0.416106701,-0.229888678,1,0,0,27.4628,Gabbro_rect,11,0,11,0,1,
61bb392e40db417c1a138dcb,TCR,2024-06-24_14h44.56.337,LearnStrategy,2023.2.3,Linux x86_64,60.06006006,1,2,13,,,,,,,,8,09,,,,,,,,,,,8,2.239,1,,,,,,0.375543594,-0.390925328,1,0,0,2.238900001,Pumice_rect,12,0,12,0,1,
61bb392e40db417c1a138dcb,TCR,2024-06-24_14h44.56.337,LearnStrategy,2023.2.3,Linux x86_64,60.06006006,1,2,14,,,,,,,,7,07,,,,,,,,,,,7,4.473,1,,,,,,0.1199224,-0.395683289,1,0,0,4.4733,Peridotite_rect,13,0,13,0,1,
61bb392e40db417c1a138dcb,TCR,2024-06-24_14h44.56.337,LearnStrategy,2023.2.3,Linux x86_64,60.06006006,1,2,15,,,,,,,,3,12,,,,,,,,,,,3,12.585,1,,,,,,0.142783086,-0.246018012,1,0,0,12.5847,Diorite_rect,14,0,14,0,1,
61bb392e40db417c1a138dcb,TCR,2024-06-24_14h44.56.337,LearnStrategy,2023.2.3,Linux x86_64,60.06006006,1,2,16,,,,,,,,6,10,,,,,,,,,,,7,7.168,0,,,,,,0.135436853,-0.402870655,1,0,0,7.168,Peridotite_rect,15,0,15,0,1,
61bb392e40db417c1a138dcb,TCR,2024-06-24_14h44.56.337,LearnStrategy,2023.2.3,Linux x86_64,60.06006006,2,1,1,-0.036671559,-0.002991954,1,0,0,4.2753,rock_grid_rect_2,6,11,-1,-1,4.275,-0.138517698,-0.390697241,1,0,0,8.6039,Pegmatite_rect,6,8.604,1,0,0,0,0,1,,,,,,,,,,,,,
61bb392e40db417c1a138dcb,TCR,2024-06-24_14h44.56.337,LearnStrategy,2023.2.3,Linux x86_64,60.06006006,2,1,2,0.05731678,-0.006996751,1,0,0,1.239,rock_grid_rect_2,6,05,-1,-1,1.239,-0.387824059,-0.379093806,1,0,0,68.2868,Obsidian_rect,5,68.287,0,1,0,1,0,1,,,,,,,,,,,,,
61bb392e40db417c1a138dcb,TCR,2024-06-24_14h44.56.337,LearnStrategy,2023.2.3,Linux x86_64,60.06006006,2,1,3,0.016377052,-0.009894768,1,0,0,1.8803,rock_grid_rect_2,5,05,-1,-1,1.88,-0.391191403,-0.396847169,1,0,0,3.3246,Obsidian_rect,5,3.325,1,2,0,2,0,1,,,,,,,,,,,,,
61bb392e40db417c1a138dcb,TCR,2024-06-24_14h44.56.337,LearnStrategy,2023.2.3,Linux x86_64,60.06006006,2,1,4,0.107837598,0.011389017,1,0,0,2.193900001,rock_grid_rect_2,6,16,-1,-1,2.194,-0.153353214,-0.39480861,1,0,0,4.811099999,Pegmatite_rect,6,4.811,1,3,0,3,0,1,,,,,,,,,,,,,
61bb392e40db417c1a138dcb,TCR,2024-06-24_14h44.56.337,LearnStrategy,2023.2.3,Linux x86_64,60.06006006,2,1,5,-0.006880204,0.004458904,1,0,0,2.4914,rock_grid_rect_2,1,02,-1,-1,2.491,0.400812944,-0.241271655,1,0,0,39.3918,Gabbro_rect,4,39.392,0,4,0,4,0,1,,,,,,,,,,,,,
61bb392e40db417c1a138dcb,TCR,2024-06-24_14h44.56.337,LearnStrategy,2023.2.3,Linux x86_64,60.06006006,2,1,6,0.031559229,0.000231345,1,0,0,3.703799999,rock_grid_rect_2,2,06,-1,-1,3.704,-0.136541287,-0.243497054,1,0,0,8.3561,Basalt_rect,2,8.356,1,5,0,5,0,1,,,,,,,,,,,,,
61bb392e40db417c1a138dcb,TCR,2024-06-24_14h44.56.337,LearnStrategy,2023.2.3,Linux x86_64,60.06006006,2,1,7,0.024501324,-0.010421991,1,0,0,3.1412,rock_grid_rect_2,4,09,-1,-1,3.141,0.38329498,-0.2509981,1,0,0,28.032,Gabbro_rect,4,28.032,1,6,0,6,0,1,,,,,,,,,,,,,
61bb392e40db417c1a138dcb,TCR,2024-06-24_14h44.56.337,LearnStrategy,2023.2.3,Linux x86_64,60.06006006,2,1,8,-0.004004478,0.008890271,1,0,0,2.376599999,rock_grid_rect_2,6,05,-1,-1,2.377,-0.143029531,-0.402935743,1,0,0,5.4445,Pegmatite_rect,6,5.444,1,7,0,7,0,1,,,,,,,,,,,,,
61bb392e40db417c1a138dcb,TCR,2024-06-24_14h44.56.337,LearnStrategy,2023.2.3,Linux x86_64,60.06006006,2,1,9,0.132886012,0.002446969,1,0,0,1.5588,rock_grid_rect_2,2,09,-1,-1,1.559,-0.126730283,-0.247192462,1,0,0,4.1975,Basalt_rect,2,4.197,1,8,0,8,0,1,,,,,,,,,,,,,
61bb392e40db417c1a138dcb,TCR,2024-06-24_14h44.56.337,LearnStrategy,2023.2.3,Linux x86_64,60.06006006,2,1,10,0.007274389,-0.006042123,1,0,0,1.558099999,rock_grid_rect_2,2,08,-1,-1,1.558,-0.146183809,-0.24817578,1,0,0,3.512599999,Basalt_rect,2,3.513,1,9,0,9,0,1,,,,,,,,,,,,,
61bb392e40db417c1a138dcb,TCR,2024-06-24_14h44.56.337,LearnStrategy,2023.2.3,Linux x86_64,60.06006006,2,1,11,0.006722927,-0.010582487,1,0,0,2.2432,rock_grid_rect_2,3,07,-1,-1,2.243,-0.418417891,-0.250454744,1,0,0,8.337400001,Andesite_rect,1,8.337,0,10,0,10,0,1,,,,,,,,,,,,,
61bb392e40db417c1a138dcb,TCR,2024-06-24_14h44.56.337,LearnStrategy,2023.2.3,Linux x86_64,60.06006006,2,1,12,-0.003340801,0.012811621,1,0,0,3.478599999,rock_grid_rect_2,4,12,-1,-1,3.479,-0.12408789,-0.241344055,1,0,0,18.5099,Basalt_rect,2,18.51,0,11,0,11,0,1,,,,,,,,,,,,,
61bb392e40db417c1a138dcb,TCR,2024-06-24_14h44.56.337,LearnStrategy,2023.2.3,Linux x86_64,60.06006006,2,1,13,-0.028997342,-0.002060453,1,0,0,1.555700001,rock_grid_rect_2,6,09,-1,-1,1.556,0.131485303,-0.389124314,1,0,0,3.1168,Peridotite_rect,7,3.117,0,12,0,12,0,1,,,,,,,,,,,,,
61bb392e40db417c1a138dcb,TCR,2024-06-24_14h44.56.337,LearnStrategy,2023.2.3,Linux x86_64,60.06006006,2,1,14,0.043187698,-0.001981934,1,0,0,1.450099999,rock_grid_rect_2,7,10,-1,-1,1.45,0.114111741,-0.395816088,1,0,0,4.3682,Peridotite_rect,7,4.368,1,13,0,13,0,1,,,,,,,,,,,,,
61bb392e40db417c1a138dcb,TCR,2024-06-24_14h44.56.337,LearnStrategy,2023.2.3,Linux x86_64,60.06006006,2,1,15,-0.004849672,-0.023384412,1,0,0,1.526099999,rock_grid_rect_2,4,16,-1,-1,1.526,-0.138716221,-0.246487061,1,0,0,11.7872,Basalt_rect,2,11.787,0,14,0,14,0,1,,,,,,,,,,,,,
61bb392e40db417c1a138dcb,TCR,2024-06-24_14h44.56.337,LearnStrategy,2023.2.3,Linux x86_64,60.06006006,2,1,16,0.02686437,0.008443832,1,0,0,1.5387,rock_grid_rect_2,8,06,-1,-1,1.539,0.347946723,-0.379701773,1,0,0,2.057,Pumice_rect,8,2.057,1,15,0,15,0,1,,,,,,,,,,,,,
61bb392e40db417c1a138dcb,TCR,2024-06-24_14h44.56.337,LearnStrategy,2023.2.3,Linux x86_64,60.06006006,2,2,1,,,,,,,,7,15,,,,,,,,,,,7,2.442,1,,,,,,0.133875847,-0.404092232,1,0,0,2.4418,Peridotite_rect,0,0,0,0,1,
61bb392e40db417c1a138dcb,TCR,2024-06-24_14h44.56.337,LearnStrategy,2023.2.3,Linux x86_64,60.06006006,2,2,2,,,,,,,,7,05,,,,,,,,,,,7,20.589,1,,,,,,0.133125146,-0.395646095,1,0,0,20.5886,Peridotite_rect,1,0,1,0,1,
61bb392e40db417c1a138dcb,TCR,2024-06-24_14h44.56.337,LearnStrategy,2023.2.3,Linux x86_64,60.06006006,2,2,3,,,,,,,,1,10,,,,,,,,,,,4,62.164,0,,,,,,0.385319948,-0.247731527,1,0,0,62.1642,Gabbro_rect,2,0,2,0,1,
61bb392e40db417c1a138dcb,TCR,2024-06-24_14h44.56.337,LearnStrategy,2023.2.3,Linux x86_64,60.06006006,2,2,4,,,,,,,,3,15,,,,,,,,,,,3,8.259,1,,,,,,0.122567018,-0.234028657,1,0,0,8.2586,Diorite_rect,3,0,3,0,1,
61bb392e40db417c1a138dcb,TCR,2024-06-24_14h44.56.337,LearnStrategy,2023.2.3,Linux x86_64,60.06006006,2,2,5,,,,,,,,3,16,,,,,,,,,,,3,32.395,1,,,,,,0.122004032,-0.240785122,1,0,0,32.3953,Diorite_rect,4,0,4,0,1,
61bb392e40db417c1a138dcb,TCR,2024-06-24_14h44.56.337,LearnStrategy,2023.2.3,Linux x86_64,60.06006006,2,2,6,,,,,,,,2,05,,,,,,,,,,,2,10.338,1,,,,,,-0.133208831,-0.250942151,1,0,0,10.3384,Basalt_rect,5,0,5,0,1,
61bb392e40db417c1a138dcb,TCR,2024-06-24_14h44.56.337,LearnStrategy,2023.2.3,Linux x86_64,60.06006006,2,2,7,,,,,,,,1,04,,,,,,,,,,,3,43.1,0,,,,,,0.146561305,-0.251171748,1,0,0,43.0995,Diorite_rect,6,0,6,0,1,
61bb392e40db417c1a138dcb,TCR,2024-06-24_14h44.56.337,LearnStrategy,2023.2.3,Linux x86_64,60.06006006,2,2,8,,,,,,,,4,01,,,,,,,,,,,4,6.805,1,,,,,,0.399070501,-0.242720048,1,0,0,6.8051,Gabbro_rect,7,0,7,0,1,
61bb392e40db417c1a138dcb,TCR,2024-06-24_14h44.56.337,LearnStrategy,2023.2.3,Linux x86_64,60.06006006,2,2,9,,,,,,,,8,10,,,,,,,,,,,8,2.214,1,,,,,,0.377031088,-0.401745955,1,0,0,2.214299999,Pumice_rect,8,0,8,0,1,
61bb392e40db417c1a138dcb,TCR,2024-06-24_14h44.56.337,LearnStrategy,2023.2.3,Linux x86_64,60.06006006,2,2,10,,,,,,,,4,11,,,,,,,,,,,2,2.772,0,,,,,,-0.15184323,-0.252182007,1,0,0,2.7719,Basalt_rect,9,0,9,0,1,
61bb392e40db417c1a138dcb,TCR,2024-06-24_14h44.56.337,LearnStrategy,2023.2.3,Linux x86_64,60.06006006,2,2,11,,,,,,,,5,10,,,,,,,,,,,5,12.479,1,,,,,,-0.404301683,-0.397528013,1,0,0,12.4793,Obsidian_rect,10,0,10,0,1,
61bb392e40db417c1a138dcb,TCR,2024-06-24_14h44.56.337,LearnStrategy,2023.2.3,Linux x86_64,60.06006006,2,2,12,,,,,,,,6,15,,,,,,,,,,,6,11.417,1,,,,,,-0.12861077,-0.394117673,1,0,0,11.4168,Pegmatite_rect,11,0,11,0,1,
61bb392e40db417c1a138dcb,TCR,2024-06-24_14h44.56.337,LearnStrategy,2023.2.3,Linux x86_64,60.06006006,2,2,13,,,,,,,,6,06,,,,,,,,,,,3,51.599,0,,,,,,0.118362506,-0.258941332,1,0,0,51.5991,Diorite_rect,12,0,12,0,1,
61bb392e40db417c1a138dcb,TCR,2024-06-24_14h44.56.337,LearnStrategy,2023.2.3,Linux x86_64,60.06006006,2,2,14,,,,,,,,5,06,,,,,,,,,,,5,4.957,1,,,,,,-0.409101605,-0.391569455,1,0,0,4.9573,Obsidian_rect,13,0,13,0,1,
61bb392e40db417c1a138dcb,TCR,2024-06-24_14h44.56.337,LearnStrategy,2023.2.3,Linux x86_64,60.06006006,2,2,15,,,,,,,,2,01,,,,,,,,,,,2,1.517,1,,,,,,-0.134785334,-0.244589726,1,0,0,1.5175,Basalt_rect,14,0,14,0,1,
61bb392e40db417c1a138dcb,TCR,2024-06-24_14h44.56.337,LearnStrategy,2023.2.3,Linux x86_64,60.06006006,2,2,16,,,,,,,,8,16,,,,,,,,,,,8,2.416,1,,,,,,0.417936246,-0.408143918,1,0,0,2.4156,Pumice_rect,15,0,15,0,1,
61bb392e40db417c1a138dcb,TCR,2024-06-24_14h44.56.337,LearnStrategy,2023.2.3,Linux x86_64,60.06006006,3,1,1,0.010254304,0.007707874,1,0,0,2.0477,rock_grid_rect_2,2,08,-1,-1,2.048,-0.130325635,-0.252239227,1,0,0,1.8305,Basalt_rect,2,1.83,1,0,0,0,0,1,,,,,,,,,,,,,
61bb392e40db417c1a138dcb,TCR,2024-06-24_14h44.56.337,LearnStrategy,2023.2.3,Linux x86_64,60.06006006,3,1,2,-0.026987712,0.000915289,1,0,0,1.6435,rock_grid_rect_2,7,04,-1,-1,1.644,-0.136721134,-0.399713834,1,0,0,4.0668,Pegmatite_rect,6,4.067,0,1,0,1,0,1,,,,,,,,,,,,,
61bb392e40db417c1a138dcb,TCR,2024-06-24_14h44.56.337,LearnStrategy,2023.2.3,Linux x86_64,60.06006006,3,1,3,-0.010164022,0.00958395,1,0,0,1.4981,rock_grid_rect_2,4,09,-1,-1,1.498,0.376539866,-0.24473532,1,0,0,17.2558,Gabbro_rect,4,17.256,1,2,0,2,0,1,,,,,,,,,,,,,
61bb392e40db417c1a138dcb,TCR,2024-06-24_14h44.56.337,LearnStrategy,2023.2.3,Linux x86_64,60.06006006,3,1,4,-0.000197172,0.010271788,1,0,0,1.6147,rock_grid_rect_2,8,02,-1,-1,1.615,0.37038811,-0.398457766,1,0,0,1.8819,Pumice_rect,8,1.882,1,3,0,3,0,1,,,,,,,,,,,,,
61bb392e40db417c1a138dcb,TCR,2024-06-24_14h44.56.337,LearnStrategy,2023.2.3,Linux x86_64,60.06006006,3,1,5,0.056327184,-0.012263139,1,0,0,1.3097,rock_grid_rect_2,1,05,-1,-1,1.31,0.412117879,-0.245588382,1,0,0,24.727,Gabbro_rect,4,24.727,0,4,0,4,0,1,,,,,,,,,,,,,
61bb392e40db417c1a138dcb,TCR,2024-06-24_14h44.56.337,LearnStrategy,2023.2.3,Linux x86_64,60.06006006,3,1,6,0.021450202,-0.004750331,1,0,0,1.5635,rock_grid_rect_2,4,13,-1,-1,1.563,0.41163826,-0.249854724,1,0,0,16.0528,Gabbro_rect,4,16.053,1,5,0,5,0,1,,,,,,,,,,,,,
61bb392e40db417c1a138dcb,TCR,2024-06-24_14h44.56.337,LearnStrategy,2023.2.3,Linux x86_64,60.06006006,3,1,7,0.021403472,-0.00548931,1,0,0,1.640700001,rock_grid_rect_2,6,05,-1,-1,1.641,-0.389569084,-0.405133963,1,0,0,2.5423,Obsidian_rect,5,2.542,0,6,0,6,0,1,,,,,,,,,,,,,
61bb392e40db417c1a138dcb,TCR,2024-06-24_14h44.56.337,LearnStrategy,2023.2.3,Linux x86_64,60.06006006,3,1,8,-0.006581863,0.005996148,1,0,0,2.7923,rock_grid_rect_2,1,01,-1,-1,2.792,-0.13723286,-0.248111566,1,0,0,14.4471,Basalt_rect,2,14.447,0,7,0,7,0,1,,,,,,,,,,,,,
61bb392e40db417c1a138dcb,TCR,2024-06-24_14h44.56.337,LearnStrategy,2023.2.3,Linux x86_64,60.06006006,3,1,9,0.013369163,0.006858071,1,0,0,2.492599999,rock_grid_rect_2,6,09,-1,-1,2.493,0.128002564,-0.39819026,1,0,0,5.3667,Peridotite_rect,7,5.367,0,8,0,8,0,1,,,,,,,,,,,,,
61bb392e40db417c1a138dcb,TCR,2024-06-24_14h44.56.337,LearnStrategy,2023.2.3,Linux x86_64,60.06006006,3,1,10,-0.003833373,-0.003266374,1,0,0,5.0097,rock_grid_rect_2,4,12,-1,-1,5.01,-0.131633123,-0.244532744,1,0,0,18.1636,Basalt_rect,2,18.164,0,9,0,9,0,1,,,,,,,,,,,,,
61bb392e40db417c1a138dcb,TCR,2024-06-24_14h44.56.337,LearnStrategy,2023.2.3,Linux x86_64,60.06006006,3,1,11,0.02400438,-0.003214916,1,0,0,2.397700001,rock_grid_rect_2,3,06,-1,-1,2.398,0.123943408,-0.243701379,1,0,0,13.9234,Diorite_rect,3,13.923,1,10,0,10,0,1,,,,,,,,,,,,,
61bb392e40db417c1a138dcb,TCR,2024-06-24_14h44.56.337,LearnStrategy,2023.2.3,Linux x86_64,60.06006006,3,1,12,-0.014692863,0.001912117,1,0,0,2.9306,rock_grid_rect_2,2,14,-1,-1,2.931,-0.162463665,-0.245384614,1,0,0,11.4359,Basalt_rect,2,11.436,1,11,0,11,0,1,,,,,,,,,,,,,
61bb392e40db417c1a138dcb,TCR,2024-06-24_14h44.56.337,LearnStrategy,2023.2.3,Linux x86_64,60.06006006,3,1,13,-0.005693436,8.08636E-05,1,0,0,2.2405,rock_grid_rect_2,6,07,-1,-1,2.24,-0.137023211,-0.395062764,1,0,0,30.8283,Pegmatite_rect,6,30.828,1,12,0,12,0,1,,,,,,,,,,,,,
61bb392e40db417c1a138dcb,TCR,2024-06-24_14h44.56.337,LearnStrategy,2023.2.3,Linux x86_64,60.06006006,3,1,14,-0.029451529,-0.005173723,1,0,0,2.291,rock_grid_rect_2,1,09,-1,-1,2.291,-0.151769082,-0.250722885,1,0,0,7.258900001,Basalt_rect,2,7.259,0,13,0,13,0,1,,,,,,,,,,,,,
61bb392e40db417c1a138dcb,TCR,2024-06-24_14h44.56.337,LearnStrategy,2023.2.3,Linux x86_64,60.06006006,3,1,15,0.009352048,0.014955918,1,0,0,2.1968,rock_grid_rect_2,6,09,-1,-1,2.197,-0.148013751,-0.395003875,1,0,0,12.0469,Pegmatite_rect,6,12.047,1,14,0,14,0,1,,,,,,,,,,,,,
61bb392e40db417c1a138dcb,TCR,2024-06-24_14h44.56.337,LearnStrategy,2023.2.3,Linux x86_64,60.06006006,3,1,16,-0.00651137,-0.000551065,1,0,0,1.8136,rock_grid_rect_2,1,05,-1,-1,1.814,-0.40266184,-0.24141717,1,0,0,13.984,Andesite_rect,1,13.984,1,15,0,15,0,1,,,,,,,,,,,,,
61bb392e40db417c1a138dcb,TCR,2024-06-24_14h44.56.337,LearnStrategy,2023.2.3,Linux x86_64,60.06006006,3,2,1,,,,,,,,7,16,,,,,,,,,,,7,17.926,1,,,,,,0.138828119,-0.4072752,1,0,0,17.926,Peridotite_rect,0,0,0,0,1,
61bb392e40db417c1a138dcb,TCR,2024-06-24_14h44.56.337,LearnStrategy,2023.2.3,Linux x86_64,60.06006006,3,2,2,,,,,,,,1,16,,,,,,,,,,,4,10.675,0,,,,,,0.386158943,-0.250952721,1,0,0,10.6752,Gabbro_rect,1,0,1,0,1,
61bb392e40db417c1a138dcb,TCR,2024-06-24_14h44.56.337,LearnStrategy,2023.2.3,Linux x86_64,60.06006006,3,2,3,,,,,,,,3,11,,,,,,,,,,,3,10.574,1,,,,,,0.120819966,-0.246897141,1,0,0,10.5742,Diorite_rect,2,0,2,0,1,
61bb392e40db417c1a138dcb,TCR,2024-06-24_14h44.56.337,LearnStrategy,2023.2.3,Linux x86_64,60.06006006,3,2,4,,,,,,,,4,05,,,,,,,,,,,7,31.134,0,,,,,,0.139147758,-0.397524754,1,0,0,31.1335,Peridotite_rect,3,0,3,0,1,
61bb392e40db417c1a138dcb,TCR,2024-06-24_14h44.56.337,LearnStrategy,2023.2.3,Linux x86_64,60.06006006,3,2,5,,,,,,,,5,14,,,,,,,,,,,5,1.54,1,,,,,,-0.418172081,-0.392456532,1,0,0,1.5397,Obsidian_rect,4,0,4,0,1,
61bb392e40db417c1a138dcb,TCR,2024-06-24_14h44.56.337,LearnStrategy,2023.2.3,Linux x86_64,60.06006006,3,2,6,,,,,,,,8,04,,,,,,,,,,,8,1.536,1,,,,,,0.386819998,-0.398393075,1,0,0,1.5359,Pumice_rect,5,0,5,0,1,
61bb392e40db417c1a138dcb,TCR,2024-06-24_14h44.56.337,LearnStrategy,2023.2.3,Linux x86_64,60.06006006,3,2,7,,,,,,,,8,15,,,,,,,,,,,8,1.495,1,,,,,,0.398313204,-0.412473917,1,0,0,1.4955,Pumice_rect,6,0,6,0,1,
61bb392e40db417c1a138dcb,TCR,2024-06-24_14h44.56.337,LearnStrategy,2023.2.3,Linux x86_64,60.06006006,3,2,8,,,,,,,,1,06,,,,,,,,,,,1,26.322,1,,,,,,-0.394889315,-0.240193685,1,0,0,26.3221,Andesite_rect,7,0,7,0,1,
61bb392e40db417c1a138dcb,TCR,2024-06-24_14h44.56.337,LearnStrategy,2023.2.3,Linux x86_64,60.06006006,3,2,9,,,,,,,,6,03,,,,,,,,,,,6,7.242,1,,,,,,-0.13691624,-0.397810141,1,0,0,7.2415,Pegmatite_rect,8,0,8,0,1,
61bb392e40db417c1a138dcb,TCR,2024-06-24_14h44.56.337,LearnStrategy,2023.2.3,Linux x86_64,60.06006006,3,2,10,,,,,,,,3,14,,,,,,,,,,,1,11.623,0,,,,,,-0.404710174,-0.237287601,1,0,0,11.623,Andesite_rect,9,0,9,0,1,
61bb392e40db417c1a138dcb,TCR,2024-06-24_14h44.56.337,LearnStrategy,2023.2.3,Linux x86_64,60.06006006,3,2,11,,,,,,,,7,13,,,,,,,,,,,7,11.549,1,,,,,,0.13297828,-0.404530923,1,0,0,11.5487,Peridotite_rect,10,0,10,0,1,
61bb392e40db417c1a138dcb,TCR,2024-06-24_14h44.56.337,LearnStrategy,2023.2.3,Linux x86_64,60.06006006,3,2,12,,,,,,,,5,16,,,,,,,,,,,5,7.107,1,,,,,,-0.429655035,-0.404639641,1,0,0,7.107,Obsidian_rect,11,0,11,0,1,
61bb392e40db417c1a138dcb,TCR,2024-06-24_14h44.56.337,LearnStrategy,2023.2.3,Linux x86_64,60.06006006,3,2,13,,,,,,,,4,10,,,,,,,,,,,1,9.729,0,,,,,,-0.387283842,-0.245704015,1,0,0,9.7294,Andesite_rect,12,0,12,0,1,
61bb392e40db417c1a138dcb,TCR,2024-06-24_14h44.56.337,LearnStrategy,2023.2.3,Linux x86_64,60.06006006,3,2,14,,,,,,,,2,16,,,,,,,,,,,4,11.114,0,,,,,,0.379699071,-0.24284331,1,0,0,11.1143,Gabbro_rect,13,0,13,0,1,
61bb392e40db417c1a138dcb,TCR,2024-06-24_14h44.56.337,LearnStrategy,2023.2.3,Linux x86_64,60.06006006,3,2,15,,,,,,,,6,08,,,,,,,,,,,6,7.907,1,,,,,,-0.125629743,-0.403556824,1,0,0,7.9072,Pegmatite_rect,14,0,14,0,1,
61bb392e40db417c1a138dcb,TCR,2024-06-24_14h44.56.337,LearnStrategy,2023.2.3,Linux x86_64,60.06006006,3,2,16,,,,,,,,2,12,,,,,,,,,,,8,2.255,0,,,,,,0.391197125,-0.396679958,1,0,0,2.2547,Pumice_rect,15,0,15,0,1,
61bb392e40db417c1a138dcb,TCR,2024-06-24_14h44.56.337,LearnStrategy,2023.2.3,Linux x86_64,60.06006006,4,1,1,-0.011652867,-0.002405485,1,0,0,1.3953,rock_grid_rect_2,3,13,-1,-1,1.395,0.127604008,-0.242233276,1,0,0,7.105,Diorite_rect,3,7.105,1,0,0,0,0,1,,,,,,,,,,,,,
61bb392e40db417c1a138dcb,TCR,2024-06-24_14h44.56.337,LearnStrategy,2023.2.3,Linux x86_64,60.06006006,4,1,2,0.013697465,-0.000948071,1,0,0,1.3232,rock_grid_rect_2,1,03,-1,-1,1.323,-0.409373641,-0.245241165,1,0,0,10.5567,Andesite_rect,1,10.557,1,1,0,1,0,1,,,,,,,,,,,,,
61bb392e40db417c1a138dcb,TCR,2024-06-24_14h44.56.337,LearnStrategy,2023.2.3,Linux x86_64,60.06006006,4,1,3,0.013847113,0.008019845,1,0,0,1.4241,rock_grid_rect_2,6,09,-1,-1,1.424,-0.130471309,-0.394943635,1,0,0,7.235799999,Pegmatite_rect,6,7.236,1,2,0,2,0,1,,,,,,,,,,,,,
61bb392e40db417c1a138dcb,TCR,2024-06-24_14h44.56.337,LearnStrategy,2023.2.3,Linux x86_64,60.06006006,4,1,4,0.009908835,0.00317355,1,0,0,1.2238,rock_grid_rect_2,2,10,-1,-1,1.224,-0.131596168,-0.245664199,1,0,0,10.6433,Basalt_rect,2,10.643,1,3,0,3,0,1,,,,,,,,,,,,,
61bb392e40db417c1a138dcb,TCR,2024-06-24_14h44.56.337,LearnStrategy,2023.2.3,Linux x86_64,60.06006006,4,1,5,0.026884556,-0.002654155,1,0,0,1.4421,rock_grid_rect_2,7,08,-1,-1,1.442,-0.406720996,-0.244650284,1,0,0,29.7889,Andesite_rect,1,29.789,0,4,0,4,0,1,,,,,,,,,,,,,
61bb392e40db417c1a138dcb,TCR,2024-06-24_14h44.56.337,LearnStrategy,2023.2.3,Linux x86_64,60.06006006,4,1,6,0.006359657,-0.002817273,1,0,0,1.3824,rock_grid_rect_2,1,02,-1,-1,1.382,0.126006444,-0.251855373,1,0,0,14.5537,Diorite_rect,3,14.554,0,5,0,5,0,1,,,,,,,,,,,,,
61bb392e40db417c1a138dcb,TCR,2024-06-24_14h44.56.337,LearnStrategy,2023.2.3,Linux x86_64,60.06006006,4,1,7,0.022113403,-0.010253668,1,0,0,1.48,rock_grid_rect_2,2,09,-1,-1,1.48,-0.13912185,-0.256664673,1,0,0,2.684400001,Basalt_rect,2,2.684,1,6,0,6,0,1,,,,,,,,,,,,,
61bb392e40db417c1a138dcb,TCR,2024-06-24_14h44.56.337,LearnStrategy,2023.2.3,Linux x86_64,60.06006006,4,1,8,-0.029067198,0.012333512,1,0,0,1.727,rock_grid_rect_2,6,07,-1,-1,1.727,-0.133679628,-0.395847003,1,0,0,4.660099999,Pegmatite_rect,6,4.66,1,7,0,7,0,1,,,,,,,,,,,,,
61bb392e40db417c1a138dcb,TCR,2024-06-24_14h44.56.337,LearnStrategy,2023.2.3,Linux x86_64,60.06006006,4,1,9,-0.030553579,0.009079059,1,0,0,1.3596,rock_grid_rect_2,2,06,-1,-1,1.36,-0.145163457,-0.247867584,1,0,0,1.960799999,Basalt_rect,2,1.961,1,8,0,8,0,1,,,,,,,,,,,,,
61bb392e40db417c1a138dcb,TCR,2024-06-24_14h44.56.337,LearnStrategy,2023.2.3,Linux x86_64,60.06006006,4,1,10,0.027176936,-0.002481898,1,0,0,1.066099999,rock_grid_rect_2,8,02,-1,-1,1.066,0.42355744,-0.408134937,1,0,0,3.0333,Pumice_rect,8,3.033,1,9,0,9,0,1,,,,,,,,,,,,,
61bb392e40db417c1a138dcb,TCR,2024-06-24_14h44.56.337,LearnStrategy,2023.2.3,Linux x86_64,60.06006006,4,1,11,-0.028718472,0.00907441,1,0,0,1.4433,rock_grid_rect_2,4,08,-1,-1,1.443,0.408226331,-0.257403056,1,0,0,17.9607,Gabbro_rect,4,17.961,1,10,0,10,0,1,,,,,,,,,,,,,
61bb392e40db417c1a138dcb,TCR,2024-06-24_14h44.56.337,LearnStrategy,2023.2.3,Linux x86_64,60.06006006,4,1,12,0.016741355,-0.001955152,1,0,0,1.507099999,rock_grid_rect_2,4,16,-1,-1,1.507,-0.134489616,-0.23845919,1,0,0,12.4868,Basalt_rect,2,12.487,0,11,0,11,0,1,,,,,,,,,,,,,
61bb392e40db417c1a138dcb,TCR,2024-06-24_14h44.56.337,LearnStrategy,2023.2.3,Linux x86_64,60.06006006,4,1,13,-0.00566562,0.005373478,1,0,0,6.083099999,rock_grid_rect_2,3,09,-1,-1,6.083,0.142682234,-0.248053551,1,0,0,7.891299999,Diorite_rect,3,7.891,1,12,0,12,0,1,,,,,,,,,,,,,
61bb392e40db417c1a138dcb,TCR,2024-06-24_14h44.56.337,LearnStrategy,2023.2.3,Linux x86_64,60.06006006,4,1,14,-0.002650738,-0.003147324,1,0,0,1.7416,rock_grid_rect_2,4,14,-1,-1,1.742,0.405957143,-0.254100641,1,0,0,7.0963,Gabbro_rect,4,7.096,1,13,0,13,0,1,,,,,,,,,,,,,
61bb392e40db417c1a138dcb,TCR,2024-06-24_14h44.56.337,LearnStrategy,2023.2.3,Linux x86_64,60.06006006,4,1,15,0.019758383,0.007962823,1,0,0,2.446,rock_grid_rect_2,1,07,-1,-1,2.446,-0.394311746,-0.251121442,1,0,0,8.874,Andesite_rect,1,8.874,1,14,0,14,0,1,,,,,,,,,,,,,
61bb392e40db417c1a138dcb,TCR,2024-06-24_14h44.56.337,LearnStrategy,2023.2.3,Linux x86_64,60.06006006,4,1,16,0.005019665,0.013567805,1,0,0,1.5094,rock_grid_rect_2,4,16,-1,-1,1.509,0.393299341,-0.248387655,1,0,0,5.0977,Gabbro_rect,4,5.098,1,15,0,15,0,1,,,,,,,,,,,,,
61bb392e40db417c1a138dcb,TCR,2024-06-24_14h44.56.337,LearnStrategy,2023.2.3,Linux x86_64,60.06006006,4,2,1,,,,,,,,3,15,,,,,,,,,,,3,14.721,1,,,,,,0.132417679,-0.251766364,1,0,0,14.7213,Diorite_rect,0,0,0,0,1,
61bb392e40db417c1a138dcb,TCR,2024-06-24_14h44.56.337,LearnStrategy,2023.2.3,Linux x86_64,60.06006006,4,2,2,,,,,,,,7,07,,,,,,,,,,,7,3.885,1,,,,,,0.131424189,-0.402863741,1,0,0,3.885299999,Peridotite_rect,1,0,1,0,1,
61bb392e40db417c1a138dcb,TCR,2024-06-24_14h44.56.337,LearnStrategy,2023.2.3,Linux x86_64,60.06006006,4,2,3,,,,,,,,5,14,,,,,,,,,,,5,3.332,1,,,,,,-0.411421935,-0.398200909,1,0,0,3.3325,Obsidian_rect,2,0,2,0,1,
61bb392e40db417c1a138dcb,TCR,2024-06-24_14h44.56.337,LearnStrategy,2023.2.3,Linux x86_64,60.06006006,4,2,4,,,,,,,,3,16,,,,,,,,,,,1,10.01,0,,,,,,-0.410571615,-0.239615997,1,0,0,10.0098,Andesite_rect,3,0,3,0,1,
61bb392e40db417c1a138dcb,TCR,2024-06-24_14h44.56.337,LearnStrategy,2023.2.3,Linux x86_64,60.06006006,4,2,5,,,,,,,,7,13,,,,,,,,,,,7,7.461,1,,,,,,0.123862902,-0.397243102,1,0,0,7.4606,Peridotite_rect,4,0,4,0,1,
61bb392e40db417c1a138dcb,TCR,2024-06-24_14h44.56.337,LearnStrategy,2023.2.3,Linux x86_64,60.06006006,4,2,6,,,,,,,,1,04,,,,,,,,,,,1,20.9,1,,,,,,-0.398475687,-0.250436703,1,0,0,20.8998,Andesite_rect,5,0,5,0,1,
61bb392e40db417c1a138dcb,TCR,2024-06-24_14h44.56.337,LearnStrategy,2023.2.3,Linux x86_64,60.06006006,4,2,7,,,,,,,,4,01,,,,,,,,,,,4,13.485,1,,,,,,0.388403972,-0.242050091,1,0,0,13.4848,Gabbro_rect,6,0,6,0,1,
61bb392e40db417c1a138dcb,TCR,2024-06-24_14h44.56.337,LearnStrategy,2023.2.3,Linux x86_64,60.06006006,4,2,8,,,,,,,,5,06,,,,,,,,,,,5,1.638,1,,,,,,-0.417378068,-0.392644485,1,0,0,1.638,Obsidian_rect,7,0,7,0,1,
61bb392e40db417c1a138dcb,TCR,2024-06-24_14h44.56.337,LearnStrategy,2023.2.3,Linux x86_64,60.06006006,4,2,9,,,,,,,,8,16,,,,,,,,,,,8,1.684,1,,,,,,0.380502939,-0.405382792,1,0,0,1.683900001,Pumice_rect,8,0,8,0,1,
61bb392e40db417c1a138dcb,TCR,2024-06-24_14h44.56.337,LearnStrategy,2023.2.3,Linux x86_64,60.06006006,4,2,10,,,,,,,,4,03,,,,,,,,,,,4,7.559,1,,,,,,0.424154043,-0.247975429,1,0,0,7.5585,Gabbro_rect,9,0,9,0,1,
61bb392e40db417c1a138dcb,TCR,2024-06-24_14h44.56.337,LearnStrategy,2023.2.3,Linux x86_64,60.06006006,4,2,11,,,,,,,,2,12,,,,,,,,,,,8,2.516,0,,,,,,0.396145741,-0.39948384,1,0,0,2.5163,Pumice_rect,10,0,10,0,1,
61bb392e40db417c1a138dcb,TCR,2024-06-24_14h44.56.337,LearnStrategy,2023.2.3,Linux x86_64,60.06006006,4,2,12,,,,,,,,8,04,,,,,,,,,,,8,1.39,1,,,,,,0.387622039,-0.385715564,1,0,0,1.390400001,Pumice_rect,11,0,11,0,1,
61bb392e40db417c1a138dcb,TCR,2024-06-24_14h44.56.337,LearnStrategy,2023.2.3,Linux x86_64,60.06006006,4,2,13,,,,,,,,6,03,,,,,,,,,,,6,12.791,1,,,,,,-0.140521208,-0.389583588,1,0,0,12.7913,Pegmatite_rect,12,0,12,0,1,
61bb392e40db417c1a138dcb,TCR,2024-06-24_14h44.56.337,LearnStrategy,2023.2.3,Linux x86_64,60.06006006,4,2,14,,,,,,,,1,11,,,,,,,,,,,1,14.572,1,,,,,,-0.40615952,-0.238804261,1,0,0,14.5721,Andesite_rect,13,0,13,0,1,
61bb392e40db417c1a138dcb,TCR,2024-06-24_14h44.56.337,LearnStrategy,2023.2.3,Linux x86_64,60.06006006,4,2,15,,,,,,,,6,06,,,,,,,,,,,3,42.202,0,,,,,,0.128853242,-0.24291722,1,0,0,42.2021,Diorite_rect,14,0,14,0,1,
61bb392e40db417c1a138dcb,TCR,2024-06-24_14h44.56.337,LearnStrategy,2023.2.3,Linux x86_64,60.06006006,4,2,16,,,,,,,,2,01,,,,,,,,,,,2,3.583,1,,,,,,-0.133274476,-0.243824959,1,0,0,3.5829,Basalt_rect,15,0,15,0,1,
61bb392e40db417c1a138dcb,TCR,2024-06-24_14h44.56.337,LearnStrategy,2023.2.3,Linux x86_64,60.06006006,5,1,1,-0.020016591,0.000639796,1,0,0,1.795400001,rock_grid_rect_2,3,13,-1,-1,1.795,0.138151964,-0.242889722,1,0,0,7.1451,Diorite_rect,3,7.145,1,0,0,0,0,1,,,,,,,,,,,,,
61bb392e40db417c1a138dcb,TCR,2024-06-24_14h44.56.337,LearnStrategy,2023.2.3,Linux x86_64,60.06006006,5,1,2,-0.007243792,0.004255136,1,0,0,1.3081,rock_grid_rect_2,3,10,-1,-1,1.308,0.123874664,-0.386283954,1,0,0,20.3387,Peridotite_rect,7,20.339,0,1,0,1,0,1,,,,,,,,,,,,,
61bb392e40db417c1a138dcb,TCR,2024-06-24_14h44.56.337,LearnStrategy,2023.2.3,Linux x86_64,60.06006006,5,1,3,0.018690348,0.009782394,1,0,0,2.5644,rock_grid_rect_2,2,14,-1,-1,2.564,-0.134495179,-0.24740998,1,0,0,10.0427,Basalt_rect,2,10.043,1,2,0,2,0,1,,,,,,,,,,,,,
61bb392e40db417c1a138dcb,TCR,2024-06-24_14h44.56.337,LearnStrategy,2023.2.3,Linux x86_64,60.06006006,5,1,4,-0.017422915,0.00331831,1,0,0,1.586599999,rock_grid_rect_2,3,09,-1,-1,1.587,0.132038593,-0.244250218,1,0,0,6.4885,Diorite_rect,3,6.488,1,3,0,3,0,1,,,,,,,,,,,,,
61bb392e40db417c1a138dcb,TCR,2024-06-24_14h44.56.337,LearnStrategy,2023.2.3,Linux x86_64,60.06006006,5,1,5,0.042912801,0.010956327,1,0,0,1.760599999,rock_grid_rect_2,8,06,-1,-1,1.761,0.40905714,-0.406454881,1,0,0,10.8717,Pumice_rect,8,10.872,1,4,0,4,0,1,,,,,,,,,,,,,
61bb392e40db417c1a138dcb,TCR,2024-06-24_14h44.56.337,LearnStrategy,2023.2.3,Linux x86_64,60.06006006,5,1,6,0.014262915,0.00333933,1,0,0,3.1903,rock_grid_rect_2,1,02,-1,-1,3.19,-0.41523234,-0.255725304,1,0,0,5.231400001,Andesite_rect,1,5.231,1,5,0,5,0,1,,,,,,,,,,,,,
61bb392e40db417c1a138dcb,TCR,2024-06-24_14h44.56.337,LearnStrategy,2023.2.3,Linux x86_64,60.06006006,5,1,7,0.011165857,0.000707507,1,0,0,1.874799999,rock_grid_rect_2,2,06,-1,-1,1.875,-0.135435263,-0.236024141,1,0,0,2.2814,Basalt_rect,2,2.281,1,6,0,6,0,1,,,,,,,,,,,,,
61bb392e40db417c1a138dcb,TCR,2024-06-24_14h44.56.337,LearnStrategy,2023.2.3,Linux x86_64,60.06006006,5,1,8,-0.015070279,0.008069237,1,0,0,2.5912,rock_grid_rect_2,6,07,-1,-1,2.591,-0.153201103,-0.403914769,1,0,0,19.8264,Pegmatite_rect,6,19.826,1,7,0,7,0,1,,,,,,,,,,,,,
61bb392e40db417c1a138dcb,TCR,2024-06-24_14h44.56.337,LearnStrategy,2023.2.3,Linux x86_64,60.06006006,5,1,9,-0.000325441,0.011674643,1,0,0,2.022,rock_grid_rect_2,6,07,-1,-1,2.022,-0.124527295,-0.394376834,1,0,0,3.5144,Pegmatite_rect,6,3.514,1,8,0,8,0,1,,,,,,,,,,,,,
61bb392e40db417c1a138dcb,TCR,2024-06-24_14h44.56.337,LearnStrategy,2023.2.3,Linux x86_64,60.06006006,5,1,10,-0.021596988,5.59886E-05,1,0,0,1.1282,rock_grid_rect_2,1,07,-1,-1,1.128,-0.404821873,-0.243389606,1,0,0,8.1873,Andesite_rect,1,8.187,1,9,0,9,0,1,,,,,,,,,,,,,
61bb392e40db417c1a138dcb,TCR,2024-06-24_14h44.56.337,LearnStrategy,2023.2.3,Linux x86_64,60.06006006,5,1,11,-0.006652514,0.008794626,1,0,0,2.8074,rock_grid_rect_2,4,13,-1,-1,2.807,0.383771817,-0.247377316,1,0,0,10.9521,Gabbro_rect,4,10.952,1,10,0,10,0,1,,,,,,,,,,,,,
61bb392e40db417c1a138dcb,TCR,2024-06-24_14h44.56.337,LearnStrategy,2023.2.3,Linux x86_64,60.06006006,5,1,12,-0.179076989,0.001763225,1,0,0,2.3815,rock_grid_rect_2,4,12,-1,-1,2.381,0.385179599,-0.235516389,1,0,0,8.502,Gabbro_rect,4,8.502,1,11,0,11,0,1,,,,,,,,,,,,,
61bb392e40db417c1a138dcb,TCR,2024-06-24_14h44.56.337,LearnStrategy,2023.2.3,Linux x86_64,60.06006006,5,1,13,-0.006651322,0.002760688,1,0,0,2.541,rock_grid_rect_2,5,02,-1,-1,2.541,-0.392869552,-0.400434573,1,0,0,2.927400001,Obsidian_rect,5,2.927,1,12,0,12,0,1,,,,,,,,,,,,,
61bb392e40db417c1a138dcb,TCR,2024-06-24_14h44.56.337,LearnStrategy,2023.2.3,Linux x86_64,60.06006006,5,1,14,0.052138249,0.011743863,1,0,0,1.4127,rock_grid_rect_2,2,10,-1,-1,1.413,0.387931426,-0.244751294,1,0,0,10.0352,Gabbro_rect,4,10.035,0,13,0,13,0,1,,,,,,,,,,,,,
61bb392e40db417c1a138dcb,TCR,2024-06-24_14h44.56.337,LearnStrategy,2023.2.3,Linux x86_64,60.06006006,5,1,15,-0.023623308,-0.00140655,1,0,0,3.3583,rock_grid_rect_2,4,14,-1,-1,3.358,0.400206089,-0.251431704,1,0,0,5.7579,Gabbro_rect,4,5.758,1,14,0,14,0,1,,,,,,,,,,,,,
61bb392e40db417c1a138dcb,TCR,2024-06-24_14h44.56.337,LearnStrategy,2023.2.3,Linux x86_64,60.06006006,5,1,16,-0.029908816,0.009160558,1,0,0,1.9078,rock_grid_rect_2,7,02,-1,-1,1.908,0.127481461,-0.400008996,1,0,0,7.8086,Peridotite_rect,7,7.809,1,15,0,15,0,1,,,,,,,,,,,,,
61bb392e40db417c1a138dcb,TCR,2024-06-24_14h44.56.337,LearnStrategy,2023.2.3,Linux x86_64,60.06006006,5,2,1,,,,,,,,5,04,,,,,,,,,,,5,1.604,1,,,,,,-0.396000147,-0.3983078,1,0,0,1.6042,Obsidian_rect,0,0,0,0,1,
61bb392e40db417c1a138dcb,TCR,2024-06-24_14h44.56.337,LearnStrategy,2023.2.3,Linux x86_64,60.06006006,5,2,2,,,,,,,,4,11,,,,,,,,,,,2,12.274,0,,,,,,-0.122424603,-0.240278085,1,0,0,12.2738,Basalt_rect,1,0,1,0,1,
61bb392e40db417c1a138dcb,TCR,2024-06-24_14h44.56.337,LearnStrategy,2023.2.3,Linux x86_64,60.06006006,5,2,3,,,,,,,,1,06,,,,,,,,,,,1,39.814,1,,,,,,-0.409558614,-0.244779746,1,0,0,39.8141,Andesite_rect,2,0,2,0,1,
61bb392e40db417c1a138dcb,TCR,2024-06-24_14h44.56.337,LearnStrategy,2023.2.3,Linux x86_64,60.06006006,5,2,4,,,,,,,,6,10,,,,,,,,,,,6,7.292,1,,,,,,-0.114062786,-0.391463598,1,0,0,7.2921,Pegmatite_rect,3,0,3,0,1,
61bb392e40db417c1a138dcb,TCR,2024-06-24_14h44.56.337,LearnStrategy,2023.2.3,Linux x86_64,60.06006006,5,2,5,,,,,,,,8,13,,,,,,,,,,,8,2.557,1,,,,,,0.388741096,-0.408025344,1,0,0,2.557200001,Pumice_rect,4,0,4,0,1,
61bb392e40db417c1a138dcb,TCR,2024-06-24_14h44.56.337,LearnStrategy,2023.2.3,Linux x86_64,60.06006006,5,2,6,,,,,,,,5,08,,,,,,,,,,,5,1.818,1,,,,,,-0.405545632,-0.390377124,1,0,0,1.8181,Obsidian_rect,5,0,5,0,1,
61bb392e40db417c1a138dcb,TCR,2024-06-24_14h44.56.337,LearnStrategy,2023.2.3,Linux x86_64,60.06006006,5,2,7,,,,,,,,3,08,,,,,,,,,,,3,7.316,1,,,,,,0.121347268,-0.237384081,1,0,0,7.316,Diorite_rect,6,0,6,0,1,
61bb392e40db417c1a138dcb,TCR,2024-06-24_14h44.56.337,LearnStrategy,2023.2.3,Linux x86_64,60.06006006,5,2,8,,,,,,,,4,15,,,,,,,,,,,4,18.664,1,,,,,,0.415436904,-0.256850481,1,0,0,18.6644,Gabbro_rect,7,0,7,0,1,
61bb392e40db417c1a138dcb,TCR,2024-06-24_14h44.56.337,LearnStrategy,2023.2.3,Linux x86_64,60.06006006,5,2,9,,,,,,,,8,15,,,,,,,,,,,8,2.373,1,,,,,,0.380960941,-0.40633901,1,0,0,2.3732,Pumice_rect,8,0,8,0,1,
61bb392e40db417c1a138dcb,TCR,2024-06-24_14h44.56.337,LearnStrategy,2023.2.3,Linux x86_64,60.06006006,5,2,10,,,,,,,,3,14,,,,,,,,,,,1,2.774,0,,,,,,-0.406063914,-0.236433427,1,0,0,2.7745,Andesite_rect,9,0,9,0,1,
61bb392e40db417c1a138dcb,TCR,2024-06-24_14h44.56.337,LearnStrategy,2023.2.3,Linux x86_64,60.06006006,5,2,11,,,,,,,,7,06,,,,,,,,,,,7,3.53,1,,,,,,0.128570159,-0.397536675,1,0,0,3.5298,Peridotite_rect,10,0,10,0,1,
61bb392e40db417c1a138dcb,TCR,2024-06-24_14h44.56.337,LearnStrategy,2023.2.3,Linux x86_64,60.06006006,5,2,12,,,,,,,,6,15,,,,,,,,,,,6,3.776,1,,,,,,-0.121663014,-0.389819145,1,0,0,3.775599999,Pegmatite_rect,11,0,11,0,1,
61bb392e40db417c1a138dcb,TCR,2024-06-24_14h44.56.337,LearnStrategy,2023.2.3,Linux x86_64,60.06006006,5,2,13,,,,,,,,1,14,,,,,,,,,,,4,13.45,0,,,,,,0.401134491,-0.24328653,1,0,0,13.45,Gabbro_rect,12,0,12,0,1,
61bb392e40db417c1a138dcb,TCR,2024-06-24_14h44.56.337,LearnStrategy,2023.2.3,Linux x86_64,60.06006006,5,2,14,,,,,,,,2,02,,,,,,,,,,,2,1.775,1,,,,,,-0.120515347,-0.243993123,1,0,0,1.7747,Basalt_rect,13,0,13,0,1,
61bb392e40db417c1a138dcb,TCR,2024-06-24_14h44.56.337,LearnStrategy,2023.2.3,Linux x86_64,60.06006006,5,2,15,,,,,,,,2,05,,,,,,,,,,,2,2.932,1,,,,,,-0.13684241,-0.247183641,1,0,0,2.9318,Basalt_rect,14,0,14,0,1,
61bb392e40db417c1a138dcb,TCR,2024-06-24_14h44.56.337,LearnStrategy,2023.2.3,Linux x86_64,60.06006006,5,2,16,,,,,,,,7,16,,,,,,,,,,,7,10.09,1,,,,,,0.137892882,-0.398091873,1,0,0,10.0895,Peridotite_rect,15,0,15,0,1,
61bb392e40db417c1a138dcb,TCR,2024-06-24_14h44.56.337,LearnStrategy,2023.2.3,Linux x86_64,60.06006006,6,1,1,-0.017958403,0.00506254,1,0,0,3.3105,rock_grid_rect_2,2,08,-1,-1,3.311,-0.123666445,-0.250254472,1,0,0,1.7956,Basalt_rect,2,1.796,1,0,0,0,0,1,,,,,,,,,,,,,
61bb392e40db417c1a138dcb,TCR,2024-06-24_14h44.56.337,LearnStrategy,2023.2.3,Linux x86_64,60.06006006,6,1,2,-0.023700953,0.00589776,1,0,0,1.694099999,rock_grid_rect_2,3,09,-1,-1,1.694,-0.402398149,-0.243412971,1,0,0,2.9391,Andesite_rect,1,2.939,0,1,0,1,0,1,,,,,,,,,,,,,
61bb392e40db417c1a138dcb,TCR,2024-06-24_14h44.56.337,LearnStrategy,2023.2.3,Linux x86_64,60.06006006,6,1,3,-0.003551722,0.008830349,1,0,0,2.2139,rock_grid_rect_2,4,13,-1,-1,2.214,0.411952734,-0.241561731,1,0,0,16.1222,Gabbro_rect,4,16.122,1,2,0,2,0,1,,,,,,,,,,,,,
61bb392e40db417c1a138dcb,TCR,2024-06-24_14h44.56.337,LearnStrategy,2023.2.3,Linux x86_64,60.06006006,6,1,4,0.018420219,0.007530769,1,0,0,2.7126,rock_grid_rect_2,1,09,-1,-1,2.713,-0.414508541,-0.247146447,1,0,0,7.0764,Andesite_rect,1,7.076,1,3,0,3,0,1,,,,,,,,,,,,,
61bb392e40db417c1a138dcb,TCR,2024-06-24_14h44.56.337,LearnStrategy,2023.2.3,Linux x86_64,60.06006006,6,1,5,-0.008365154,0.005948583,1,0,0,1.437,rock_grid_rect_2,8,14,-1,-1,1.437,0.415003379,-0.395136833,1,0,0,3.321900001,Pumice_rect,8,3.322,1,4,0,4,0,1,,,,,,,,,,,,,
61bb392e40db417c1a138dcb,TCR,2024-06-24_14h44.56.337,LearnStrategy,2023.2.3,Linux x86_64,60.06006006,6,1,6,-0.043807666,0.009729226,1,0,0,1.378400001,rock_grid_rect_2,4,13,-1,-1,1.378,0.404875199,-0.239788691,1,0,0,7.372200001,Gabbro_rect,4,7.372,1,5,0,5,0,1,,,,,,,,,,,,,
61bb392e40db417c1a138dcb,TCR,2024-06-24_14h44.56.337,LearnStrategy,2023.2.3,Linux x86_64,60.06006006,6,1,7,-0.041561604,0.001694282,1,0,0,1.395799999,rock_grid_rect_2,6,16,-1,-1,1.396,-0.133228938,-0.397936742,1,0,0,9.6389,Pegmatite_rect,6,9.639,1,6,0,6,0,1,,,,,,,,,,,,,
61bb392e40db417c1a138dcb,TCR,2024-06-24_14h44.56.337,LearnStrategy,2023.2.3,Linux x86_64,60.06006006,6,1,8,-0.012707154,-0.001316706,1,0,0,1.657,rock_grid_rect_2,5,09,-1,-1,1.657,-0.407034477,-0.399722099,1,0,0,3.3648,Obsidian_rect,5,3.365,1,7,0,7,0,1,,,,,,,,,,,,,
61bb392e40db417c1a138dcb,TCR,2024-06-24_14h44.56.337,LearnStrategy,2023.2.3,Linux x86_64,60.06006006,6,1,9,0.01265796,0.001332243,1,0,0,1.4108,rock_grid_rect_2,4,16,-1,-1,1.411,0.401151419,-0.249708335,1,0,0,6.174599999,Gabbro_rect,4,6.175,1,8,0,8,0,1,,,,,,,,,,,,,
61bb392e40db417c1a138dcb,TCR,2024-06-24_14h44.56.337,LearnStrategy,2023.2.3,Linux x86_64,60.06006006,6,1,10,-0.004123052,0.008818706,1,0,0,1.6252,rock_grid_rect_2,3,06,-1,-1,1.625,-0.404311419,-0.241612514,1,0,0,12.2751,Andesite_rect,1,12.275,0,9,0,9,0,1,,,,,,,,,,,,,
61bb392e40db417c1a138dcb,TCR,2024-06-24_14h44.56.337,LearnStrategy,2023.2.3,Linux x86_64,60.06006006,6,1,11,-0.001732985,0.007220348,1,0,0,1.791,rock_grid_rect_2,1,02,-1,-1,1.791,-0.408896645,-0.246917725,1,0,0,5.822299999,Andesite_rect,1,5.822,1,10,0,10,0,1,,,,,,,,,,,,,
61bb392e40db417c1a138dcb,TCR,2024-06-24_14h44.56.337,LearnStrategy,2023.2.3,Linux x86_64,60.06006006,6,1,12,-0.017384291,0.00361975,1,0,0,1.3908,rock_grid_rect_2,6,05,-1,-1,1.391,-0.152791023,-0.401479483,1,0,0,2.1601,Pegmatite_rect,6,2.16,1,11,0,11,0,1,,,,,,,,,,,,,
61bb392e40db417c1a138dcb,TCR,2024-06-24_14h44.56.337,LearnStrategy,2023.2.3,Linux x86_64,60.06006006,6,1,13,0.046354373,-0.003311793,1,0,0,1.2126,rock_grid_rect_2,2,14,-1,-1,1.213,-0.124102672,-0.240375042,1,0,0,4.912,Basalt_rect,2,4.912,1,12,0,12,0,1,,,,,,,,,,,,,
61bb392e40db417c1a138dcb,TCR,2024-06-24_14h44.56.337,LearnStrategy,2023.2.3,Linux x86_64,60.06006006,6,1,14,-0.010320505,0.005372882,1,0,0,1.610099999,rock_grid_rect_2,7,02,-1,-1,1.61,0.114474138,-0.393949747,1,0,0,6.3524,Peridotite_rect,7,6.352,1,13,0,13,0,1,,,,,,,,,,,,,
61bb392e40db417c1a138dcb,TCR,2024-06-24_14h44.56.337,LearnStrategy,2023.2.3,Linux x86_64,60.06006006,6,1,15,-0.035584609,-0.009939512,1,0,0,2.1428,rock_grid_rect_2,1,01,-1,-1,2.143,-0.418273767,-0.243957678,1,0,0,7.014,Andesite_rect,1,7.014,1,14,0,14,0,1,,,,,,,,,,,,,
61bb392e40db417c1a138dcb,TCR,2024-06-24_14h44.56.337,LearnStrategy,2023.2.3,Linux x86_64,60.06006006,6,1,16,-0.007986148,0.000773033,1,0,0,2.226,rock_grid_rect_2,3,09,-1,-1,2.226,0.136032979,-0.255253394,1,0,0,6.996,Diorite_rect,3,6.996,1,15,0,15,0,1,,,,,,,,,,,,,
61bb392e40db417c1a138dcb,TCR,2024-06-24_14h44.56.337,LearnStrategy,2023.2.3,Linux x86_64,60.06006006,6,2,1,,,,,,,,3,11,,,,,,,,,,,3,12.115,1,,,,,,0.125718276,-0.248538335,1,0,0,12.1151,Diorite_rect,0,0,0,0,1,
61bb392e40db417c1a138dcb,TCR,2024-06-24_14h44.56.337,LearnStrategy,2023.2.3,Linux x86_64,60.06006006,6,2,2,,,,,,,,4,10,,,,,,,,,,,1,8.934,0,,,,,,-0.398336331,-0.239163001,1,0,0,8.933599999,Andesite_rect,1,0,1,0,1,
61bb392e40db417c1a138dcb,TCR,2024-06-24_14h44.56.337,LearnStrategy,2023.2.3,Linux x86_64,60.06006006,6,2,3,,,,,,,,3,12,,,,,,,,,,,1,5.876,0,,,,,,-0.370478749,-0.232292414,1,0,0,5.8761,Andesite_rect,2,0,2,0,1,
61bb392e40db417c1a138dcb,TCR,2024-06-24_14h44.56.337,LearnStrategy,2023.2.3,Linux x86_64,60.06006006,6,2,4,,,,,,,,1,10,,,,,,,,,,,1,11.337,1,,,,,,-0.409207424,-0.242344141,1,0,0,11.3371,Andesite_rect,3,0,3,0,1,
61bb392e40db417c1a138dcb,TCR,2024-06-24_14h44.56.337,LearnStrategy,2023.2.3,Linux x86_64,60.06006006,6,2,5,,,,,,,,2,11,,,,,,,,,,,1,7.552,0,,,,,,-0.396744569,-0.237081766,1,0,0,7.5519,Andesite_rect,4,0,4,0,1,
61bb392e40db417c1a138dcb,TCR,2024-06-24_14h44.56.337,LearnStrategy,2023.2.3,Linux x86_64,60.06006006,6,2,6,,,,,,,,6,12,,,,,,,,,,,6,1.677,1,,,,,,-0.148792744,-0.400177717,1,0,0,1.6768,Pegmatite_rect,5,0,5,0,1,
61bb392e40db417c1a138dcb,TCR,2024-06-24_14h44.56.337,LearnStrategy,2023.2.3,Linux x86_64,60.06006006,6,2,7,,,,,,,,5,16,,,,,,,,,,,5,1.37,1,,,,,,-0.408789555,-0.389884154,1,0,0,1.3699,Obsidian_rect,6,0,6,0,1,
61bb392e40db417c1a138dcb,TCR,2024-06-24_14h44.56.337,LearnStrategy,2023.2.3,Linux x86_64,60.06006006,6,2,8,,,,,,,,8,10,,,,,,,,,,,8,1.739,1,,,,,,0.426677545,-0.401622852,1,0,0,1.739200001,Pumice_rect,7,0,7,0,1,
61bb392e40db417c1a138dcb,TCR,2024-06-24_14h44.56.337,LearnStrategy,2023.2.3,Linux x86_64,60.06006006,6,2,9,,,,,,,,7,05,,,,,,,,,,,7,2.825,1,,,,,,0.138456424,-0.396792173,1,0,0,2.825099999,Peridotite_rect,8,0,8,0,1,
61bb392e40db417c1a138dcb,TCR,2024-06-24_14h44.56.337,LearnStrategy,2023.2.3,Linux x86_64,60.06006006,6,2,10,,,,,,,,8,09,,,,,,,,,,,8,1.561,1,,,,,,0.407939752,-0.40824604,1,0,0,1.5606,Pumice_rect,9,0,9,0,1,
61bb392e40db417c1a138dcb,TCR,2024-06-24_14h44.56.337,LearnStrategy,2023.2.3,Linux x86_64,60.06006006,6,2,11,,,,,,,,1,16,,,,,,,,,,,1,3.949,1,,,,,,-0.411121686,-0.244840384,1,0,0,3.948900001,Andesite_rect,10,0,10,0,1,
61bb392e40db417c1a138dcb,TCR,2024-06-24_14h44.56.337,LearnStrategy,2023.2.3,Linux x86_64,60.06006006,6,2,12,,,,,,,,6,08,,,,,,,,,,,6,2.459,1,,,,,,-0.133600871,-0.40254132,1,0,0,2.4595,Pegmatite_rect,11,0,11,0,1,
61bb392e40db417c1a138dcb,TCR,2024-06-24_14h44.56.337,LearnStrategy,2023.2.3,Linux x86_64,60.06006006,6,2,13,,,,,,,,4,05,,,,,,,,,,,7,1.995,0,,,,,,0.134438674,-0.391046842,1,0,0,1.9946,Peridotite_rect,12,0,12,0,1,
61bb392e40db417c1a138dcb,TCR,2024-06-24_14h44.56.337,LearnStrategy,2023.2.3,Linux x86_64,60.06006006,6,2,14,,,,,,,,5,10,,,,,,,,,,,5,1.383,1,,,,,,-0.401891112,-0.391504129,1,0,0,1.3833,Obsidian_rect,13,0,13,0,1,
61bb392e40db417c1a138dcb,TCR,2024-06-24_14h44.56.337,LearnStrategy,2023.2.3,Linux x86_64,60.06006006,6,2,15,,,,,,,,2,16,,,,,,,,,,,2,1.987,1,,,,,,-0.118230899,-0.245382865,1,0,0,1.9871,Basalt_rect,14,0,14,0,1,
61bb392e40db417c1a138dcb,TCR,2024-06-24_14h44.56.337,LearnStrategy,2023.2.3,Linux x86_64,60.06006006,6,2,16,,,,,,,,7,15,,,,,,,,,,,7,1.816,1,,,,,,0.127318303,-0.398144881,1,0,0,1.8161,Peridotite_rect,15,0,15,0,1,
61bb392e40db417c1a138dcb,TCR,2024-06-24_14h44.56.337,LearnStrategy,2023.2.3,Linux x86_64,60.06006006,7,1,1,-0.058596373,-0.000586351,1,0,0,1.7275,rock_grid_rect_2,3,09,-1,-1,1.727,-0.393131773,-0.241830985,1,0,0,1.909700001,Andesite_rect,1,1.91,0,0,0,0,0,1,,,,,,,,,,,,,
61bb392e40db417c1a138dcb,TCR,2024-06-24_14h44.56.337,LearnStrategy,2023.2.3,Linux x86_64,60.06006006,7,1,2,-0.015831868,0.004134377,1,0,0,2.3487,rock_grid_rect_2,1,07,-1,-1,2.349,-0.444751978,-0.237796068,1,0,0,5.7197,Andesite_rect,1,5.72,1,1,0,1,0,1,,,,,,,,,,,,,
61bb392e40db417c1a138dcb,TCR,2024-06-24_14h44.56.337,LearnStrategy,2023.2.3,Linux x86_64,60.06006006,7,1,3,-0.008758465,0.00367713,1,0,0,1.5441,rock_grid_rect_2,8,03,-1,-1,1.544,0.383111477,-0.386918068,1,0,0,2.4153,Pumice_rect,8,2.415,1,2,0,2,0,1,,,,,,,,,,,,,
61bb392e40db417c1a138dcb,TCR,2024-06-24_14h44.56.337,LearnStrategy,2023.2.3,Linux x86_64,60.06006006,7,1,4,0.013272683,0.004398108,1,0,0,1.2569,rock_grid_rect_2,4,09,-1,-1,1.257,-0.408779263,-0.242976665,1,0,0,8.4807,Andesite_rect,1,8.481,0,3,0,3,0,1,,,,,,,,,,,,,
61bb392e40db417c1a138dcb,TCR,2024-06-24_14h44.56.337,LearnStrategy,2023.2.3,Linux x86_64,60.06006006,7,1,5,-0.055244287,-0.008912206,1,0,0,3.48,rock_grid_rect_2,4,14,-1,-1,3.48,0.387748241,-0.240700245,1,0,0,4.9847,Gabbro_rect,4,4.985,1,4,0,4,0,1,,,,,,,,,,,,,
61bb392e40db417c1a138dcb,TCR,2024-06-24_14h44.56.337,LearnStrategy,2023.2.3,Linux x86_64,60.06006006,7,1,6,-0.018695354,0.011370579,1,0,0,1.4601,rock_grid_rect_2,2,06,-1,-1,1.46,-0.118501902,-0.245656967,1,0,0,2.6785,Basalt_rect,2,2.678,1,5,0,5,0,1,,,,,,,,,,,,,
61bb392e40db417c1a138dcb,TCR,2024-06-24_14h44.56.337,LearnStrategy,2023.2.3,Linux x86_64,60.06006006,7,1,7,-0.001330137,-0.002043923,1,0,0,1.181299999,rock_grid_rect_2,1,05,-1,-1,1.181,-0.408793092,-0.24336942,1,0,0,4.7239,Andesite_rect,1,4.724,1,6,0,6,0,1,,,,,,,,,,,,,
61bb392e40db417c1a138dcb,TCR,2024-06-24_14h44.56.337,LearnStrategy,2023.2.3,Linux x86_64,60.06006006,7,1,8,0.034612894,0.008267005,1,0,0,1.227,rock_grid_rect_2,4,12,-1,-1,1.227,0.383398136,-0.239126285,1,0,0,8.1504,Gabbro_rect,4,8.15,1,7,0,7,0,1,,,,,,,,,,,,,
61bb392e40db417c1a138dcb,TCR,2024-06-24_14h44.56.337,LearnStrategy,2023.2.3,Linux x86_64,60.06006006,7,1,9,-0.017533382,0.006779273,1,0,0,1.6084,rock_grid_rect_2,4,08,-1,-1,1.608,0.404208501,-0.244121393,1,0,0,8.7341,Gabbro_rect,4,8.734,1,8,0,8,0,1,,,,,,,,,,,,,
61bb392e40db417c1a138dcb,TCR,2024-06-24_14h44.56.337,LearnStrategy,2023.2.3,Linux x86_64,60.06006006,7,1,10,-0.01365908,-0.000360171,1,0,0,1.3933,rock_grid_rect_2,7,08,-1,-1,1.393,0.108124018,-0.391318878,1,0,0,4.9308,Peridotite_rect,7,4.931,1,9,0,9,0,1,,,,,,,,,,,,,
61bb392e40db417c1a138dcb,TCR,2024-06-24_14h44.56.337,LearnStrategy,2023.2.3,Linux x86_64,60.06006006,7,1,11,0.011367718,0.008013089,1,0,0,1.091200001,rock_grid_rect_2,2,10,-1,-1,1.091,-0.139140288,-0.237375021,1,0,0,6.277900001,Basalt_rect,2,6.278,1,10,0,10,0,1,,,,,,,,,,,,,
61bb392e40db417c1a138dcb,TCR,2024-06-24_14h44.56.337,LearnStrategy,2023.2.3,Linux x86_64,60.06006006,7,1,12,-0.029380083,0.010301669,1,0,0,1.2965,rock_grid_rect_2,6,09,-1,-1,1.296,-0.136944056,-0.39598314,1,0,0,6.1083,Pegmatite_rect,6,6.108,1,11,0,11,0,1,,,,,,,,,,,,,
61bb392e40db417c1a138dcb,TCR,2024-06-24_14h44.56.337,LearnStrategy,2023.2.3,Linux x86_64,60.06006006,7,1,13,-0.017521381,0.000996629,1,0,0,1.346400001,rock_grid_rect_2,3,13,-1,-1,1.346,0.141887744,-0.238864581,1,0,0,5.6278,Diorite_rect,3,5.628,1,12,0,12,0,1,,,,,,,,,,,,,
61bb392e40db417c1a138dcb,TCR,2024-06-24_14h44.56.337,LearnStrategy,2023.2.3,Linux x86_64,60.06006006,7,1,14,-0.000329971,0.006637653,1,0,0,1.524299999,rock_grid_rect_2,5,02,-1,-1,1.524,-0.404350797,-0.391455491,1,0,0,4.3134,Obsidian_rect,5,4.313,1,13,0,13,0,1,,,,,,,,,,,,,
61bb392e40db417c1a138dcb,TCR,2024-06-24_14h44.56.337,LearnStrategy,2023.2.3,Linux x86_64,60.06006006,7,1,15,-0.009872913,-0.006163041,1,0,0,1.5915,rock_grid_rect_2,3,07,-1,-1,1.591,0.113959869,-0.244845549,1,0,0,8.7572,Diorite_rect,3,8.757,1,14,0,14,0,1,,,,,,,,,,,,,
61bb392e40db417c1a138dcb,TCR,2024-06-24_14h44.56.337,LearnStrategy,2023.2.3,Linux x86_64,60.06006006,7,1,16,-0.036339045,-0.002830942,1,0,0,1.7942,rock_grid_rect_2,2,06,-1,-1,1.794,-0.126470963,-0.250772079,1,0,0,1.991599999,Basalt_rect,2,1.992,1,15,0,15,0,1,,,,,,,,,,,,,
61bb392e40db417c1a138dcb,TCR,2024-06-24_14h44.56.337,LearnStrategy,2023.2.3,Linux x86_64,60.06006006,7,2,1,,,,,,,,4,10,,,,,,,,,,,4,8.073,1,,,,,,0.381725629,-0.243651152,1,0,0,8.0727,Gabbro_rect,0,0,0,0,1,
61bb392e40db417c1a138dcb,TCR,2024-06-24_14h44.56.337,LearnStrategy,2023.2.3,Linux x86_64,60.06006006,7,2,2,,,,,,,,1,14,,,,,,,,,,,3,2.658,0,,,,,,0.139367342,-0.243922551,1,0,0,2.6578,Diorite_rect,1,0,1,0,1,
61bb392e40db417c1a138dcb,TCR,2024-06-24_14h44.56.337,LearnStrategy,2023.2.3,Linux x86_64,60.06006006,7,2,3,,,,,,,,6,10,,,,,,,,,,,6,2.486,1,,,,,,-0.152066867,-0.396891276,1,0,0,2.4859,Pegmatite_rect,2,0,2,0,1,
61bb392e40db417c1a138dcb,TCR,2024-06-24_14h44.56.337,LearnStrategy,2023.2.3,Linux x86_64,60.06006006,7,2,4,,,,,,,,1,16,,,,,,,,,,,4,14.869,0,,,,,,0.404563268,-0.253149112,1,0,0,14.8691,Gabbro_rect,3,0,3,0,1,
61bb392e40db417c1a138dcb,TCR,2024-06-24_14h44.56.337,LearnStrategy,2023.2.3,Linux x86_64,60.06006006,7,2,5,,,,,,,,8,13,,,,,,,,,,,8,1.576,1,,,,,,0.389111042,-0.396337191,1,0,0,1.5757,Pumice_rect,4,0,4,0,1,
61bb392e40db417c1a138dcb,TCR,2024-06-24_14h44.56.337,LearnStrategy,2023.2.3,Linux x86_64,60.06006006,7,2,6,,,,,,,,3,08,,,,,,,,,,,3,2.527,1,,,,,,0.1476113,-0.237659454,1,0,0,2.527,Diorite_rect,5,0,5,0,1,
61bb392e40db417c1a138dcb,TCR,2024-06-24_14h44.56.337,LearnStrategy,2023.2.3,Linux x86_64,60.06006006,7,2,7,,,,,,,,7,06,,,,,,,,,,,7,3.357,1,,,,,,0.122504234,-0.391379436,1,0,0,3.3573,Peridotite_rect,6,0,6,0,1,
61bb392e40db417c1a138dcb,TCR,2024-06-24_14h44.56.337,LearnStrategy,2023.2.3,Linux x86_64,60.06006006,7,2,8,,,,,,,,3,14,,,,,,,,,,,3,1.719,1,,,,,,0.124530156,-0.249061823,1,0,0,1.7191,Diorite_rect,7,0,7,0,1,
61bb392e40db417c1a138dcb,TCR,2024-06-24_14h44.56.337,LearnStrategy,2023.2.3,Linux x86_64,60.06006006,7,2,9,,,,,,,,2,02,,,,,,,,,,,2,1.235,1,,,,,,-0.136514107,-0.243027528,1,0,0,1.2354,Basalt_rect,8,0,8,0,1,
61bb392e40db417c1a138dcb,TCR,2024-06-24_14h44.56.337,LearnStrategy,2023.2.3,Linux x86_64,60.06006006,7,2,10,,,,,,,,2,01,,,,,,,,,,,2,0.913,1,,,,,,-0.136514107,-0.242089113,1,0,0,0.912700001,Basalt_rect,9,0,9,0,1,
61bb392e40db417c1a138dcb,TCR,2024-06-24_14h44.56.337,LearnStrategy,2023.2.3,Linux x86_64,60.06006006,7,2,11,,,,,,,,8,09,,,,,,,,,,,8,1.767,1,,,,,,0.42269357,-0.399657488,1,0,0,1.7668,Pumice_rect,10,0,10,0,1,
61bb392e40db417c1a138dcb,TCR,2024-06-24_14h44.56.337,LearnStrategy,2023.2.3,Linux x86_64,60.06006006,7,2,12,,,,,,,,5,16,,,,,,,,,,,5,2.615,1,,,,,,-0.39182361,-0.395178795,1,0,0,2.615,Obsidian_rect,11,0,11,0,1,
61bb392e40db417c1a138dcb,TCR,2024-06-24_14h44.56.337,LearnStrategy,2023.2.3,Linux x86_64,60.06006006,7,2,13,,,,,,,,5,10,,,,,,,,,,,5,0.926,1,,,,,,-0.39182361,-0.395178795,1,0,0,0.9264,Obsidian_rect,12,0,12,0,1,
61bb392e40db417c1a138dcb,TCR,2024-06-24_14h44.56.337,LearnStrategy,2023.2.3,Linux x86_64,60.06006006,7,2,14,,,,,,,,4,05,,,,,,,,,,,7,3.222,0,,,,,,0.122001886,-0.393063784,1,0,0,3.2216,Peridotite_rect,13,0,13,0,1,
61bb392e40db417c1a138dcb,TCR,2024-06-24_14h44.56.337,LearnStrategy,2023.2.3,Linux x86_64,60.06006006,7,2,15,,,,,,,,7,15,,,,,,,,,,,7,8.81,1,,,,,,0.124066512,-0.392688513,1,0,0,8.809599999,Peridotite_rect,14,0,14,0,1,
61bb392e40db417c1a138dcb,TCR,2024-06-24_14h44.56.337,LearnStrategy,2023.2.3,Linux x86_64,60.06006006,7,2,16,,,,,,,,6,06,,,,,,,,,,,1,32.466,0,,,,,,-0.401152174,-0.261981964,1,0,0,32.4664,Andesite_rect,15,0,15,0,1,
61bb392e40db417c1a138dcb,TCR,2024-06-24_14h44.56.337,LearnStrategy,2023.2.3,Linux x86_64,60.06006006,8,1,1,-0.002024015,0.004622142,1,0,0,1.4108,rock_grid_rect_2,4,09,-1,-1,1.411,0.429619392,-0.251341502,1,0,0,2.0615,Gabbro_rect,4,2.061,1,0,0,0,0,1,,,,,,,,,,,,,
61bb392e40db417c1a138dcb,TCR,2024-06-24_14h44.56.337,LearnStrategy,2023.2.3,Linux x86_64,60.06006006,8,1,2,-0.014096419,0.000262181,1,0,0,1.6258,rock_grid_rect_2,1,03,-1,-1,1.626,-0.407963117,-0.257802566,1,0,0,6.9369,Andesite_rect,1,6.937,1,1,0,1,0,1,,,,,,,,,,,,,
61bb392e40db417c1a138dcb,TCR,2024-06-24_14h44.56.337,LearnStrategy,2023.2.3,Linux x86_64,60.06006006,8,1,3,-0.029903015,0.007362366,1,0,0,1.5083,rock_grid_rect_2,1,09,-1,-1,1.508,-0.385679642,-0.242939472,1,0,0,8.2711,Andesite_rect,1,8.271,1,2,0,2,0,1,,,,,,,,,,,,,
61bb392e40db417c1a138dcb,TCR,2024-06-24_14h44.56.337,LearnStrategy,2023.2.3,Linux x86_64,60.06006006,8,1,4,-0.035904169,0.003059387,1,0,0,2.0276,rock_grid_rect_2,2,08,-1,-1,2.028,-0.140689373,-0.247185628,1,0,0,2.5277,Basalt_rect,2,2.528,1,3,0,3,0,1,,,,,,,,,,,,,
61bb392e40db417c1a138dcb,TCR,2024-06-24_14h44.56.337,LearnStrategy,2023.2.3,Linux x86_64,60.06006006,8,1,5,0.000275135,0.009962281,1,0,0,1.327099999,rock_grid_rect_2,3,13,-1,-1,1.327,0.1166598,-0.248388608,1,0,0,5.8648,Diorite_rect,3,5.865,1,4,0,4,0,1,,,,,,,,,,,,,
61bb392e40db417c1a138dcb,TCR,2024-06-24_14h44.56.337,LearnStrategy,2023.2.3,Linux x86_64,60.06006006,8,1,6,-0.024734497,-0.005824486,1,0,0,2.2745,rock_grid_rect_2,4,08,-1,-1,2.274,0.367535114,-0.242387931,1,0,0,4.1532,Gabbro_rect,4,4.153,1,5,0,5,0,1,,,,,,,,,,,,,
61bb392e40db417c1a138dcb,TCR,2024-06-24_14h44.56.337,LearnStrategy,2023.2.3,Linux x86_64,60.06006006,8,1,7,-0.021317244,0.00831449,1,0,0,1.4833,rock_grid_rect_2,6,09,-1,-1,1.483,-0.141592662,-0.389627218,1,0,0,2.0364,Pegmatite_rect,6,2.036,1,6,0,6,0,1,,,,,,,,,,,,,
61bb392e40db417c1a138dcb,TCR,2024-06-24_14h44.56.337,LearnStrategy,2023.2.3,Linux x86_64,60.06006006,8,1,8,-0.005540848,0.007501046,1,0,0,1.1279,rock_grid_rect_2,6,13,-1,-1,1.128,-0.125989596,-0.391437531,1,0,0,4.8815,Pegmatite_rect,6,4.881,1,7,0,7,0,1,,,,,,,,,,,,,
61bb392e40db417c1a138dcb,TCR,2024-06-24_14h44.56.337,LearnStrategy,2023.2.3,Linux x86_64,60.06006006,8,1,9,0.038888295,0.009178599,1,0,0,1.1095,rock_grid_rect_2,1,05,-1,-1,1.11,-0.391555071,-0.251023213,1,0,0,5.4589,Andesite_rect,1,5.459,1,8,0,8,0,1,,,,,,,,,,,,,
61bb392e40db417c1a138dcb,TCR,2024-06-24_14h44.56.337,LearnStrategy,2023.2.3,Linux x86_64,60.06006006,8,1,10,0.003306866,-0.005933483,1,0,0,1.4432,rock_grid_rect_2,3,09,-1,-1,1.443,0.138495207,-0.244684299,1,0,0,8.0148,Diorite_rect,3,8.015,1,9,0,9,0,1,,,,,,,,,,,,,
61bb392e40db417c1a138dcb,TCR,2024-06-24_14h44.56.337,LearnStrategy,2023.2.3,Linux x86_64,60.06006006,8,1,11,0.012149413,-0.000615199,1,0,0,1.5096,rock_grid_rect_2,4,16,-1,-1,1.51,0.390842438,-0.232540687,1,0,0,6.34,Gabbro_rect,4,6.34,1,10,0,10,0,1,,,,,,,,,,,,,
61bb392e40db417c1a138dcb,TCR,2024-06-24_14h44.56.337,LearnStrategy,2023.2.3,Linux x86_64,60.06006006,8,1,12,-0.019528627,-0.000529408,1,0,0,1.5768,rock_grid_rect_2,7,04,-1,-1,1.577,0.108410279,-0.396831036,1,0,0,9.4045,Peridotite_rect,7,9.404,1,11,0,11,0,1,,,,,,,,,,,,,
61bb392e40db417c1a138dcb,TCR,2024-06-24_14h44.56.337,LearnStrategy,2023.2.3,Linux x86_64,60.06006006,8,1,13,-0.008119186,-0.00711,1,0,0,1.3614,rock_grid_rect_2,2,09,-1,-1,1.361,-0.147346497,-0.241435607,1,0,0,10.097,Basalt_rect,2,10.097,1,12,0,12,0,1,,,,,,,,,,,,,
61bb392e40db417c1a138dcb,TCR,2024-06-24_14h44.56.337,LearnStrategy,2023.2.3,Linux x86_64,60.06006006,8,1,14,0.006573121,0.004795472,1,0,0,1.992,rock_grid_rect_2,8,06,-1,-1,1.992,0.366579374,-0.398073435,1,0,0,1.7937,Pumice_rect,8,1.794,1,13,0,13,0,1,,,,,,,,,,,,,
61bb392e40db417c1a138dcb,TCR,2024-06-24_14h44.56.337,LearnStrategy,2023.2.3,Linux x86_64,60.06006006,8,1,15,-0.006067753,-0.00088048,1,0,0,1.344200001,rock_grid_rect_2,4,12,-1,-1,1.344,0.390457789,-0.248615185,1,0,0,5.7325,Gabbro_rect,4,5.732,1,14,0,14,0,1,,,,,,,,,,,,,
61bb392e40db417c1a138dcb,TCR,2024-06-24_14h44.56.337,LearnStrategy,2023.2.3,Linux x86_64,60.06006006,8,1,16,-0.031642675,0.001037717,1,0,0,1.9917,rock_grid_rect_2,1,05,-1,-1,1.992,-0.41695567,-0.24983263,1,0,0,4.904700001,Andesite_rect,1,4.905,1,15,0,15,0,1,,,,,,,,,,,,,
61bb392e40db417c1a138dcb,TCR,2024-06-24_14h44.56.337,LearnStrategy,2023.2.3,Linux x86_64,60.06006006,8,2,1,,,,,,,,7,07,,,,,,,,,,,1,15.587,0,,,,,,-0.443233331,-0.247603814,1,0,0,15.5866,Andesite_rect,0,0,0,0,1,
61bb392e40db417c1a138dcb,TCR,2024-06-24_14h44.56.337,LearnStrategy,2023.2.3,Linux x86_64,60.06006006,8,2,2,,,,,,,,3,11,,,,,,,,,,,3,11.095,1,,,,,,0.113991578,-0.249876897,1,0,0,11.0954,Diorite_rect,1,0,1,0,1,
61bb392e40db417c1a138dcb,TCR,2024-06-24_14h44.56.337,LearnStrategy,2023.2.3,Linux x86_64,60.06006006,8,2,3,,,,,,,,6,12,,,,,,,,,,,6,1.67,1,,,,,,-0.128518025,-0.403291702,1,0,0,1.6705,Pegmatite_rect,2,0,2,0,1,
61bb392e40db417c1a138dcb,TCR,2024-06-24_14h44.56.337,LearnStrategy,2023.2.3,Linux x86_64,60.06006006,8,2,4,,,,,,,,4,03,,,,,,,,,,,4,6.208,1,,,,,,0.389711221,-0.243052165,1,0,0,6.207599999,Gabbro_rect,3,0,3,0,1,
61bb392e40db417c1a138dcb,TCR,2024-06-24_14h44.56.337,LearnStrategy,2023.2.3,Linux x86_64,60.06006006,8,2,5,,,,,,,,1,10,,,,,,,,,,,1,20.249,1,,,,,,-0.398527741,-0.243746201,1,0,0,20.2486,Andesite_rect,4,0,4,0,1,
61bb392e40db417c1a138dcb,TCR,2024-06-24_14h44.56.337,LearnStrategy,2023.2.3,Linux x86_64,60.06006006,8,2,6,,,,,,,,3,12,,,,,,,,,,,3,7.269,1,,,,,,0.12835892,-0.254206101,1,0,0,7.269,Diorite_rect,5,0,5,0,1,
61bb392e40db417c1a138dcb,TCR,2024-06-24_14h44.56.337,LearnStrategy,2023.2.3,Linux x86_64,60.06006006,8,2,7,,,,,,,,2,11,,,,,,,,,,,4,7.195,0,,,,,,0.376988014,-0.238355319,1,0,0,7.195,Gabbro_rect,6,0,6,0,1,
61bb392e40db417c1a138dcb,TCR,2024-06-24_14h44.56.337,LearnStrategy,2023.2.3,Linux x86_64,60.06006006,8,2,8,,,,,,,,1,04,,,,,,,,,,,1,20.95,1,,,,,,-0.384865483,-0.238864263,1,0,0,20.9502,Andesite_rect,7,0,7,0,1,
61bb392e40db417c1a138dcb,TCR,2024-06-24_14h44.56.337,LearnStrategy,2023.2.3,Linux x86_64,60.06006006,8,2,9,,,,,,,,4,11,,,,,,,,,,,4,9.183,1,,,,,,0.379321416,-0.235575994,1,0,0,9.183099999,Gabbro_rect,8,0,8,0,1,
61bb392e40db417c1a138dcb,TCR,2024-06-24_14h44.56.337,LearnStrategy,2023.2.3,Linux x86_64,60.06006006,8,2,10,,,,,,,,2,12,,,,,,,,,,,8,2.107,0,,,,,,0.395790259,-0.397280773,1,0,0,2.1068,Pumice_rect,9,0,9,0,1,
61bb392e40db417c1a138dcb,TCR,2024-06-24_14h44.56.337,LearnStrategy,2023.2.3,Linux x86_64,60.06006006,8,2,11,,,,,,,,5,06,,,,,,,,,,,5,1.37,1,,,,,,-0.403305133,-0.398971399,1,0,0,1.3695,Obsidian_rect,10,0,10,0,1,
61bb392e40db417c1a138dcb,TCR,2024-06-24_14h44.56.337,LearnStrategy,2023.2.3,Linux x86_64,60.06006006,8,2,12,,,,,,,,6,08,,,,,,,,,,,6,1.936,1,,,,,,-0.156387806,-0.40714407,1,0,0,1.9361,Pegmatite_rect,11,0,11,0,1,
61bb392e40db417c1a138dcb,TCR,2024-06-24_14h44.56.337,LearnStrategy,2023.2.3,Linux x86_64,60.06006006,8,2,13,,,,,,,,5,08,,,,,,,,,,,5,2.01,1,,,,,,-0.394522349,-0.386181355,1,0,0,2.01,Obsidian_rect,12,0,12,0,1,
61bb392e40db417c1a138dcb,TCR,2024-06-24_14h44.56.337,LearnStrategy,2023.2.3,Linux x86_64,60.06006006,8,2,14,,,,,,,,8,15,,,,,,,,,,,8,1.579,1,,,,,,0.369597991,-0.394564549,1,0,0,1.5788,Pumice_rect,13,0,13,0,1,
61bb392e40db417c1a138dcb,TCR,2024-06-24_14h44.56.337,LearnStrategy,2023.2.3,Linux x86_64,60.06006006,8,2,15,,,,,,,,8,16,,,,,,,,,,,8,0.917,1,,,,,,0.371380647,-0.394752185,1,0,0,0.917400001,Pumice_rect,14,0,14,0,1,
61bb392e40db417c1a138dcb,TCR,2024-06-24_14h44.56.337,LearnStrategy,2023.2.3,Linux x86_64,60.06006006,8,2,16,,,,,,,,7,16,,,,,,,,,,,7,1.609,1,,,,,,0.161954244,-0.393288294,1,0,0,1.608900001,Peridotite_rect,15,0,15,0,1,
61bb392e40db417c1a138dcb,TCR,2024-06-24_14h44.56.337,LearnStrategy,2023.2.3,Linux x86_64,60.06006006,9,1,1,-0.004514297,0.006572564,1,0,0,1.794099999,rock_grid_rect_2,2,08,-1,-1,1.794,-0.15259409,-0.251786153,1,0,0,2.397,Basalt_rect,2,2.397,1,0,0,0,0,1,,,,,,,,,,,,,
61bb392e40db417c1a138dcb,TCR,2024-06-24_14h44.56.337,LearnStrategy,2023.2.3,Linux x86_64,60.06006006,9,1,2,0.020001252,0.009185791,1,0,0,1.2588,rock_grid_rect_2,4,14,-1,-1,1.259,0.375482321,-0.256347815,1,0,0,24.8169,Gabbro_rect,4,24.817,1,1,0,1,0,1,,,,,,,,,,,,,
61bb392e40db417c1a138dcb,TCR,2024-06-24_14h44.56.337,LearnStrategy,2023.2.3,Linux x86_64,60.06006006,9,1,3,-0.054648081,0.002353748,1,0,0,1.5134,rock_grid_rect_2,7,04,-1,-1,1.513,0.073179007,-0.397993167,1,0,0,8.087,Peridotite_rect,7,8.087,1,2,0,2,0,1,,,,,,,,,,,,,
61bb392e40db417c1a138dcb,TCR,2024-06-24_14h44.56.337,LearnStrategy,2023.2.3,Linux x86_64,60.06006006,9,1,4,-0.008735816,0.006413976,1,0,0,2.360400001,rock_grid_rect_2,1,02,-1,-1,2.36,-0.406454961,-0.246400595,1,0,0,4.943,Andesite_rect,1,4.943,1,3,0,3,0,1,,,,,,,,,,,,,
61bb392e40db417c1a138dcb,TCR,2024-06-24_14h44.56.337,LearnStrategy,2023.2.3,Linux x86_64,60.06006006,9,1,5,-0.041075548,0.007863561,1,0,0,1.5596,rock_grid_rect_2,3,02,-1,-1,1.56,-0.436784625,-0.248839935,1,0,0,12.8291,Andesite_rect,1,12.829,0,4,0,4,0,1,,,,,,,,,,,,,
61bb392e40db417c1a138dcb,TCR,2024-06-24_14h44.56.337,LearnStrategy,2023.2.3,Linux x86_64,60.06006006,9,1,6,-0.023753802,0.003041585,1,0,0,1.7632,rock_grid_rect_2,4,13,-1,-1,1.763,0.389409304,-0.240771294,1,0,0,5.228,Gabbro_rect,4,5.228,1,5,0,5,0,1,,,,,,,,,,,,,
61bb392e40db417c1a138dcb,TCR,2024-06-24_14h44.56.337,LearnStrategy,2023.2.3,Linux x86_64,60.06006006,9,1,7,-0.011921167,-0.00398612,1,0,0,2.5581,rock_grid_rect_2,2,09,-1,-1,2.558,-0.129165014,-0.247433027,1,0,0,4.2317,Basalt_rect,2,4.232,1,6,0,6,0,1,,,,,,,,,,,,,
61bb392e40db417c1a138dcb,TCR,2024-06-24_14h44.56.337,LearnStrategy,2023.2.3,Linux x86_64,60.06006006,9,1,8,0.00483648,-0.005193233,1,0,0,1.7753,rock_grid_rect_2,6,07,-1,-1,1.775,-0.123279492,-0.399245183,1,0,0,4.0038,Pegmatite_rect,6,4.004,1,7,0,7,0,1,,,,,,,,,,,,,
61bb392e40db417c1a138dcb,TCR,2024-06-24_14h44.56.337,LearnStrategy,2023.2.3,Linux x86_64,60.06006006,9,1,9,-0.041068792,0.001385967,1,0,0,1.375,rock_grid_rect_2,5,05,-1,-1,1.375,-0.402115862,-0.395586173,1,0,0,3.884099999,Obsidian_rect,5,3.884,1,8,0,8,0,1,,,,,,,,,,,,,
61bb392e40db417c1a138dcb,TCR,2024-06-24_14h44.56.337,LearnStrategy,2023.2.3,Linux x86_64,60.06006006,9,1,10,-0.013397694,-0.002957662,1,0,0,2.61,rock_grid_rect_2,7,10,-1,-1,2.61,0.12384216,-0.389986595,1,0,0,6.3266,Peridotite_rect,7,6.327,1,9,0,9,0,1,,,,,,,,,,,,,
61bb392e40db417c1a138dcb,TCR,2024-06-24_14h44.56.337,LearnStrategy,2023.2.3,Linux x86_64,60.06006006,9,1,11,-0.01733621,0.006375432,1,0,0,1.7597,rock_grid_rect_2,2,08,-1,-1,1.76,-0.115348021,-0.248135964,1,0,0,1.5168,Basalt_rect,2,1.517,1,10,0,10,0,1,,,,,,,,,,,,,
61bb392e40db417c1a138dcb,TCR,2024-06-24_14h44.56.337,LearnStrategy,2023.2.3,Linux x86_64,60.06006006,9,1,12,0.007790407,-0.004820029,1,0,0,1.415700001,rock_grid_rect_2,1,05,-1,-1,1.416,-0.391867956,-0.2337207,1,0,0,3.716099999,Andesite_rect,1,3.716,1,11,0,11,0,1,,,,,,,,,,,,,
61bb392e40db417c1a138dcb,TCR,2024-06-24_14h44.56.337,LearnStrategy,2023.2.3,Linux x86_64,60.06006006,9,1,13,-0.013159355,0.013003985,1,0,0,2.161,rock_grid_rect_2,1,02,-1,-1,2.161,-0.397518675,-0.238935788,1,0,0,7.2002,Andesite_rect,1,7.2,1,12,0,12,0,1,,,,,,,,,,,,,
61bb392e40db417c1a138dcb,TCR,2024-06-24_14h44.56.337,LearnStrategy,2023.2.3,Linux x86_64,60.06006006,9,1,14,0.002634446,0.008795142,1,0,0,1.244,rock_grid_rect_2,4,16,-1,-1,1.244,0.381424665,-0.236805916,1,0,0,5.0988,Gabbro_rect,4,5.099,1,13,0,13,0,1,,,,,,,,,,,,,
61bb392e40db417c1a138dcb,TCR,2024-06-24_14h44.56.337,LearnStrategy,2023.2.3,Linux x86_64,60.06006006,9,1,15,0.019443353,0.001890779,1,0,0,2.0074,rock_grid_rect_2,3,06,-1,-1,2.007,0.119870822,-0.243072987,1,0,0,6.001,Diorite_rect,3,6.001,1,14,0,14,0,1,,,,,,,,,,,,,
61bb392e40db417c1a138dcb,TCR,2024-06-24_14h44.56.337,LearnStrategy,2023.2.3,Linux x86_64,60.06006006,9,1,16,-0.038324594,-0.007134954,1,0,0,1.5104,rock_grid_rect_2,8,05,-1,-1,1.51,0.353351355,-0.398231983,1,0,0,1.8509,Pumice_rect,8,1.851,1,15,0,15,0,1,,,,,,,,,,,,,
61bb392e40db417c1a138dcb,TCR,2024-06-24_14h44.56.337,LearnStrategy,2023.2.3,Linux x86_64,60.06006006,9,2,1,,,,,,,,7,13,,,,,,,,,,,7,9.447,1,,,,,,0.068604231,-0.39619271,1,0,0,9.446599999,Peridotite_rect,0,0,0,0,1,
61bb392e40db417c1a138dcb,TCR,2024-06-24_14h44.56.337,LearnStrategy,2023.2.3,Linux x86_64,60.06006006,9,2,2,,,,,,,,3,15,,,,,,,,,,,1,15.49,0,,,,,,-0.395039082,-0.248078823,1,0,0,15.4901,Andesite_rect,1,0,1,0,1,
61bb392e40db417c1a138dcb,TCR,2024-06-24_14h44.56.337,LearnStrategy,2023.2.3,Linux x86_64,60.06006006,9,2,3,,,,,,,,2,05,,,,,,,,,,,2,1.534,1,,,,,,-0.154769103,-0.259599527,1,0,0,1.5339,Basalt_rect,2,0,2,0,1,
61bb392e40db417c1a138dcb,TCR,2024-06-24_14h44.56.337,LearnStrategy,2023.2.3,Linux x86_64,60.06006006,9,2,4,,,,,,,,8,10,,,,,,,,,,,8,1.827,1,,,,,,0.444500128,-0.400338332,1,0,0,1.8271,Pumice_rect,3,0,3,0,1,
61bb392e40db417c1a138dcb,TCR,2024-06-24_14h44.56.337,LearnStrategy,2023.2.3,Linux x86_64,60.06006006,9,2,5,,,,,,,,6,03,,,,,,,,,,,6,1.853,1,,,,,,-0.113014221,-0.395913998,1,0,0,1.8529,Pegmatite_rect,4,0,4,0,1,
61bb392e40db417c1a138dcb,TCR,2024-06-24_14h44.56.337,LearnStrategy,2023.2.3,Linux x86_64,60.06006006,9,2,6,,,,,,,,8,04,,,,,,,,,,,8,1.865,1,,,,,,0.377493302,-0.40343825,1,0,0,1.865099999,Pumice_rect,5,0,5,0,1,
61bb392e40db417c1a138dcb,TCR,2024-06-24_14h44.56.337,LearnStrategy,2023.2.3,Linux x86_64,60.06006006,9,2,7,,,,,,,,4,15,,,,,,,,,,,4,1.734,1,,,,,,0.390403668,-0.241071463,1,0,0,1.7335,Gabbro_rect,6,0,6,0,1,
61bb392e40db417c1a138dcb,TCR,2024-06-24_14h44.56.337,LearnStrategy,2023.2.3,Linux x86_64,60.06006006,9,2,8,,,,,,,,2,16,,,,,,,,,,,2,2.179,1,,,,,,-0.094373862,-0.246772289,1,0,0,2.179,Basalt_rect,7,0,7,0,1,
61bb392e40db417c1a138dcb,TCR,2024-06-24_14h44.56.337,LearnStrategy,2023.2.3,Linux x86_64,60.06006006,9,2,9,,,,,,,,4,01,,,,,,,,,,,3,3.732,0,,,,,,0.13845547,-0.233009338,1,0,0,3.732,Diorite_rect,8,0,8,0,1,
61bb392e40db417c1a138dcb,TCR,2024-06-24_14h44.56.337,LearnStrategy,2023.2.3,Linux x86_64,60.06006006,9,2,10,,,,,,,,3,16,,,,,,,,,,,3,6.005,1,,,,,,0.138830821,-0.23375996,1,0,0,6.004599999,Diorite_rect,9,0,9,0,1,
61bb392e40db417c1a138dcb,TCR,2024-06-24_14h44.56.337,LearnStrategy,2023.2.3,Linux x86_64,60.06006006,9,2,11,,,,,,,,5,04,,,,,,,,,,,5,2.692,1,,,,,,-0.422623674,-0.403652986,1,0,0,2.6917,Obsidian_rect,10,0,10,0,1,
61bb392e40db417c1a138dcb,TCR,2024-06-24_14h44.56.337,LearnStrategy,2023.2.3,Linux x86_64,60.06006006,9,2,12,,,,,,,,6,15,,,,,,,,,,,6,1.572,1,,,,,,-0.123755852,-0.383275986,1,0,0,1.572,Pegmatite_rect,11,0,11,0,1,
61bb392e40db417c1a138dcb,TCR,2024-06-24_14h44.56.337,LearnStrategy,2023.2.3,Linux x86_64,60.06006006,9,2,13,,,,,,,,1,06,,,,,,,,,,,1,8.012,1,,,,,,-0.417463978,-0.235087713,1,0,0,8.0122,Andesite_rect,12,0,12,0,1,
61bb392e40db417c1a138dcb,TCR,2024-06-24_14h44.56.337,LearnStrategy,2023.2.3,Linux x86_64,60.06006006,9,2,14,,,,,,,,1,11,,,,,,,,,,,1,7.957,1,,,,,,-0.417463978,-0.235087713,1,0,0,7.9567,Andesite_rect,13,0,13,0,1,
61bb392e40db417c1a138dcb,TCR,2024-06-24_14h44.56.337,LearnStrategy,2023.2.3,Linux x86_64,60.06006006,9,2,15,,,,,,,,5,14,,,,,,,,,,,5,2.021,1,,,,,,-0.411800265,-0.396831433,1,0,0,2.0205,Obsidian_rect,14,0,14,0,1,
61bb392e40db417c1a138dcb,TCR,2024-06-24_14h44.56.337,LearnStrategy,2023.2.3,Linux x86_64,60.06006006,9,2,16,,,,,,,,7,05,,,,,,,,,,,7,1.668,1,,,,,,0.101605415,-0.393717845,1,0,0,1.6676,Peridotite_rect,15,0,15,0,1,
61bb392e40db417c1a138dcb,TCR,2024-06-24_14h44.56.337,LearnStrategy,2023.2.3,Linux x86_64,60.06006006,,,,,,,,,,,,,,,,,,,,,,,,,,,,,,,,,,,,,,,,,,,1
61bb392e40db417c1a138dcb,TCR,2024-06-24_14h44.56.337,LearnStrategy,2023.2.3,Linux x86_64,60.06006006,,,,,,,,,,,,,,,,,,,,,,,,,,,,,,,,,,,,,,,,,,,
61bb392e40db417c1a138dcb,TCR,2024-06-24_14h44.56.337,LearnStrategy,2023.2.3,Linux x86_64,60.06006006,,,,,,,,,,,8,14,1,1,,,,,,,,,,,,,,,,,,,,,,,,,,,,,
61bb392e40db417c1a138dcb,TCR,2024-06-24_14h44.56.337,LearnStrategy,2023.2.3,Linux x86_64,60.06006006,,,,,,,,,,,2,08,1,2,,,,,,,,,,,,,,,,,,,,,,,,,,,,,
61bb392e40db417c1a138dcb,TCR,2024-06-24_14h44.56.337,LearnStrategy,2023.2.3,Linux x86_64,60.06006006,,,,,,,,,,,7,10,1,3,,,,,,,,,,,,,,,,,,,,,,,,,,,,,
61bb392e40db417c1a138dcb,TCR,2024-06-24_14h44.56.337,LearnStrategy,2023.2.3,Linux x86_64,60.06006006,,,,,,,,,,,5,12,1,4,,,,,,,,,,,,,,,,,,,,,,,,,,,,,
61bb392e40db417c1a138dcb,TCR,2024-06-24_14h44.56.337,LearnStrategy,2023.2.3,Linux x86_64,60.06006006,,,,,,,,,,,4,16,1,5,,,,,,,,,,,,,,,,,,,,,,,,,,,,,
61bb392e40db417c1a138dcb,TCR,2024-06-24_14h44.56.337,LearnStrategy,2023.2.3,Linux x86_64,60.06006006,,,,,,,,,,,6,11,1,6,,,,,,,,,,,,,,,,,,,,,,,,,,,,,
61bb392e40db417c1a138dcb,TCR,2024-06-24_14h44.56.337,LearnStrategy,2023.2.3,Linux x86_64,60.06006006,,,,,,,,,,,3,02,1,7,,,,,,,,,,,,,,,,,,,,,,,,,,,,,
61bb392e40db417c1a138dcb,TCR,2024-06-24_14h44.56.337,LearnStrategy,2023.2.3,Linux x86_64,60.06006006,,,,,,,,,,,6,09,1,8,,,,,,,,,,,,,,,,,,,,,,,,,,,,,
61bb392e40db417c1a138dcb,TCR,2024-06-24_14h44.56.337,LearnStrategy,2023.2.3,Linux x86_64,60.06006006,,,,,,,,,,,4,12,2,1,,,,,,,,,,,,,,,,,,,,,,,,,,,,,
61bb392e40db417c1a138dcb,TCR,2024-06-24_14h44.56.337,LearnStrategy,2023.2.3,Linux x86_64,60.06006006,,,,,,,,,,,7,04,2,2,,,,,,,,,,,,,,,,,,,,,,,,,,,,,
61bb392e40db417c1a138dcb,TCR,2024-06-24_14h44.56.337,LearnStrategy,2023.2.3,Linux x86_64,60.06006006,,,,,,,,,,,1,09,2,3,,,,,,,,,,,,,,,,,,,,,,,,,,,,,
61bb392e40db417c1a138dcb,TCR,2024-06-24_14h44.56.337,LearnStrategy,2023.2.3,Linux x86_64,60.06006006,,,,,,,,,,,3,06,2,4,,,,,,,,,,,,,,,,,,,,,,,,,,,,,
61bb392e40db417c1a138dcb,TCR,2024-06-24_14h44.56.337,LearnStrategy,2023.2.3,Linux x86_64,60.06006006,,,,,,,,,,,5,11,2,5,,,,,,,,,,,,,,,,,,,,,,,,,,,,,
61bb392e40db417c1a138dcb,TCR,2024-06-24_14h44.56.337,LearnStrategy,2023.2.3,Linux x86_64,60.06006006,,,,,,,,,,,6,05,2,6,,,,,,,,,,,,,,,,,,,,,,,,,,,,,
61bb392e40db417c1a138dcb,TCR,2024-06-24_14h44.56.337,LearnStrategy,2023.2.3,Linux x86_64,60.06006006,,,,,,,,,,,3,13,2,7,,,,,,,,,,,,,,,,,,,,,,,,,,,,,
61bb392e40db417c1a138dcb,TCR,2024-06-24_14h44.56.337,LearnStrategy,2023.2.3,Linux x86_64,60.06006006,,,,,,,,,,,3,10,2,8,,,,,,,,,,,,,,,,,,,,,,,,,,,,,
61bb392e40db417c1a138dcb,TCR,2024-06-24_14h44.56.337,LearnStrategy,2023.2.3,Linux x86_64,60.06006006,,,,,,,,,,,2,06,3,1,,,,,,,,,,,,,,,,,,,,,,,,,,,,,
61bb392e40db417c1a138dcb,TCR,2024-06-24_14h44.56.337,LearnStrategy,2023.2.3,Linux x86_64,60.06006006,,,,,,,,,,,7,14,3,2,,,,,,,,,,,,,,,,,,,,,,,,,,,,,
61bb392e40db417c1a138dcb,TCR,2024-06-24_14h44.56.337,LearnStrategy,2023.2.3,Linux x86_64,60.06006006,,,,,,,,,,,8,03,3,3,,,,,,,,,,,,,,,,,,,,,,,,,,,,,
61bb392e40db417c1a138dcb,TCR,2024-06-24_14h44.56.337,LearnStrategy,2023.2.3,Linux x86_64,60.06006006,,,,,,,,,,,2,04,3,4,,,,,,,,,,,,,,,,,,,,,,,,,,,,,
61bb392e40db417c1a138dcb,TCR,2024-06-24_14h44.56.337,LearnStrategy,2023.2.3,Linux x86_64,60.06006006,,,,,,,,,,,5,02,3,5,,,,,,,,,,,,,,,,,,,,,,,,,,,,,
61bb392e40db417c1a138dcb,TCR,2024-06-24_14h44.56.337,LearnStrategy,2023.2.3,Linux x86_64,60.06006006,,,,,,,,,,,2,14,3,6,,,,,,,,,,,,,,,,,,,,,,,,,,,,,
61bb392e40db417c1a138dcb,TCR,2024-06-24_14h44.56.337,LearnStrategy,2023.2.3,Linux x86_64,60.06006006,,,,,,,,,,,8,08,3,7,,,,,,,,,,,,,,,,,,,,,,,,,,,,,
61bb392e40db417c1a138dcb,TCR,2024-06-24_14h44.56.337,LearnStrategy,2023.2.3,Linux x86_64,60.06006006,,,,,,,,,,,7,02,3,8,,,,,,,,,,,,,,,,,,,,,,,,,,,,,
61bb392e40db417c1a138dcb,TCR,2024-06-24_14h44.56.337,LearnStrategy,2023.2.3,Linux x86_64,60.06006006,,,,,,,,,,,7,08,4,1,,,,,,,,,,,,,,,,,,,,,,,,,,,,,
61bb392e40db417c1a138dcb,TCR,2024-06-24_14h44.56.337,LearnStrategy,2023.2.3,Linux x86_64,60.06006006,,,,,,,,,,,8,06,4,2,,,,,,,,,,,,,,,,,,,,,,,,,,,,,
61bb392e40db417c1a138dcb,TCR,2024-06-24_14h44.56.337,LearnStrategy,2023.2.3,Linux x86_64,60.06006006,,,,,,,,,,,5,05,4,3,,,,,,,,,,,,,,,,,,,,,,,,,,,,,
61bb392e40db417c1a138dcb,TCR,2024-06-24_14h44.56.337,LearnStrategy,2023.2.3,Linux x86_64,60.06006006,,,,,,,,,,,1,02,4,4,,,,,,,,,,,,,,,,,,,,,,,,,,,,,
61bb392e40db417c1a138dcb,TCR,2024-06-24_14h44.56.337,LearnStrategy,2023.2.3,Linux x86_64,60.06006006,,,,,,,,,,,8,05,4,5,,,,,,,,,,,,,,,,,,,,,,,,,,,,,
61bb392e40db417c1a138dcb,TCR,2024-06-24_14h44.56.337,LearnStrategy,2023.2.3,Linux x86_64,60.06006006,,,,,,,,,,,3,09,4,6,,,,,,,,,,,,,,,,,,,,,,,,,,,,,
61bb392e40db417c1a138dcb,TCR,2024-06-24_14h44.56.337,LearnStrategy,2023.2.3,Linux x86_64,60.06006006,,,,,,,,,,,6,13,4,7,,,,,,,,,,,,,,,,,,,,,,,,,,,,,
61bb392e40db417c1a138dcb,TCR,2024-06-24_14h44.56.337,LearnStrategy,2023.2.3,Linux x86_64,60.06006006,,,,,,,,,,,2,10,4,8,,,,,,,,,,,,,,,,,,,,,,,,,,,,,
61bb392e40db417c1a138dcb,TCR,2024-06-24_14h44.56.337,LearnStrategy,2023.2.3,Linux x86_64,60.06006006,,,,,,,,,,,6,16,5,1,,,,,,,,,,,,,,,,,,,,,,,,,,,,,
61bb392e40db417c1a138dcb,TCR,2024-06-24_14h44.56.337,LearnStrategy,2023.2.3,Linux x86_64,60.06006006,,,,,,,,,,,2,09,5,2,,,,,,,,,,,,,,,,,,,,,,,,,,,,,
61bb392e40db417c1a138dcb,TCR,2024-06-24_14h44.56.337,LearnStrategy,2023.2.3,Linux x86_64,60.06006006,,,,,,,,,,,7,12,5,3,,,,,,,,,,,,,,,,,,,,,,,,,,,,,
61bb392e40db417c1a138dcb,TCR,2024-06-24_14h44.56.337,LearnStrategy,2023.2.3,Linux x86_64,60.06006006,,,,,,,,,,,1,03,5,4,,,,,,,,,,,,,,,,,,,,,,,,,,,,,
61bb392e40db417c1a138dcb,TCR,2024-06-24_14h44.56.337,LearnStrategy,2023.2.3,Linux x86_64,60.06006006,,,,,,,,,,,4,13,5,5,,,,,,,,,,,,,,,,,,,,,,,,,,,,,
61bb392e40db417c1a138dcb,TCR,2024-06-24_14h44.56.337,LearnStrategy,2023.2.3,Linux x86_64,60.06006006,,,,,,,,,,,3,07,5,6,,,,,,,,,,,,,,,,,,,,,,,,,,,,,
61bb392e40db417c1a138dcb,TCR,2024-06-24_14h44.56.337,LearnStrategy,2023.2.3,Linux x86_64,60.06006006,,,,,,,,,,,6,07,5,7,,,,,,,,,,,,,,,,,,,,,,,,,,,,,
61bb392e40db417c1a138dcb,TCR,2024-06-24_14h44.56.337,LearnStrategy,2023.2.3,Linux x86_64,60.06006006,,,,,,,,,,,1,01,5,8,,,,,,,,,,,,,,,,,,,,,,,,,,,,,
61bb392e40db417c1a138dcb,TCR,2024-06-24_14h44.56.337,LearnStrategy,2023.2.3,Linux x86_64,60.06006006,,,,,,,,,,,1,05,6,1,,,,,,,,,,,,,,,,,,,,,,,,,,,,,
61bb392e40db417c1a138dcb,TCR,2024-06-24_14h44.56.337,LearnStrategy,2023.2.3,Linux x86_64,60.06006006,,,,,,,,,,,4,08,6,2,,,,,,,,,,,,,,,,,,,,,,,,,,,,,
61bb392e40db417c1a138dcb,TCR,2024-06-24_14h44.56.337,LearnStrategy,2023.2.3,Linux x86_64,60.06006006,,,,,,,,,,,8,02,6,3,,,,,,,,,,,,,,,,,,,,,,,,,,,,,
61bb392e40db417c1a138dcb,TCR,2024-06-24_14h44.56.337,LearnStrategy,2023.2.3,Linux x86_64,60.06006006,,,,,,,,,,,4,14,6,4,,,,,,,,,,,,,,,,,,,,,,,,,,,,,
61bb392e40db417c1a138dcb,TCR,2024-06-24_14h44.56.337,LearnStrategy,2023.2.3,Linux x86_64,60.06006006,,,,,,,,,,,5,09,6,5,,,,,,,,,,,,,,,,,,,,,,,,,,,,,
61bb392e40db417c1a138dcb,TCR,2024-06-24_14h44.56.337,LearnStrategy,2023.2.3,Linux x86_64,60.06006006,,,,,,,,,,,1,07,6,6,,,,,,,,,,,,,,,,,,,,,,,,,,,,,
61bb392e40db417c1a138dcb,TCR,2024-06-24_14h44.56.337,LearnStrategy,2023.2.3,Linux x86_64,60.06006006,,,,,,,,,,,4,09,6,7,,,,,,,,,,,,,,,,,,,,,,,,,,,,,
61bb392e40db417c1a138dcb,TCR,2024-06-24_14h44.56.337,LearnStrategy,2023.2.3,Linux x86_64,60.06006006,,,,,,,,,,,5,07,6,8,,,,,,,,,,,,,,,,,,,,,,,,,,,,,