participant,condition,date,expName,psychopyVersion,OS,frameRate,block,phase,trial,learn_mouse_2.x,learn_mouse_2.y,learn_mouse_2.leftButton,learn_mouse_2.midButton,learn_mouse_2.rightButton,learn_mouse_2.time,learn_mouse_2.clicked_name,cat,token,row,col,t_select,cat_mouse_l.x,cat_mouse_l.y,cat_mouse_l.leftButton,cat_mouse_l.midButton,cat_mouse_l.rightButton,cat_mouse_l.time,cat_mouse_l.clicked_name,resp,t_resp,corr,train_trials.thisRepN,train_trials.thisTrialN,train_trials.thisN,train_trials.thisIndex,train_trials.ran,cat_mouse_t.x,cat_mouse_t.y,cat_mouse_t.leftButton,cat_mouse_t.midButton,cat_mouse_t.rightButton,cat_mouse_t.time,cat_mouse_t.clicked_name,test_trials.thisRepN,test_trials.thisTrialN,test_trials.thisN,test_trials.thisIndex,test_trials.ran,Bonus
626976d0dfd20d6832fc92aa,TCN,2024-06-20_16h29.45.990,LearnStrategy,2023.2.3,Win32,59.88023952,,,,,,,,,,,,,,,,,,,,,,,,,,,,,,,,,,,,,,,,,,,
626976d0dfd20d6832fc92aa,TCN,2024-06-20_16h29.45.990,LearnStrategy,2023.2.3,Win32,59.88023952,1,1,1,-0.004166667,0,1,0,0,3.0793,rock_grid_rect_2,2,11,-1,-1,3.079,-0.38,-0.2425,1,0,0,5.4862,Andesite_rect,1,5.486,0,0,0,0,0,1,,,,,,,,,,,,,
626976d0dfd20d6832fc92aa,TCN,2024-06-20_16h29.45.990,LearnStrategy,2023.2.3,Win32,59.88023952,1,1,2,0.028333333,-0.003333333,1,0,0,1.6419,rock_grid_rect_2,5,06,-1,-1,1.642,-0.374166667,-0.248333333,1,0,0,3.3277,Andesite_rect,1,3.328,0,1,0,1,0,1,,,,,,,,,,,,,
626976d0dfd20d6832fc92aa,TCN,2024-06-20_16h29.45.990,LearnStrategy,2023.2.3,Win32,59.88023952,1,1,3,0.015833333,-0.02,1,0,0,1.0923,rock_grid_rect_2,3,14,-1,-1,1.092,-0.369166667,-0.256666667,1,0,0,3.5279,Andesite_rect,1,3.528,0,2,0,2,0,1,,,,,,,,,,,,,
626976d0dfd20d6832fc92aa,TCN,2024-06-20_16h29.45.990,LearnStrategy,2023.2.3,Win32,59.88023952,1,1,4,0.011666667,-0.0025,1,0,0,1.5081,rock_grid_rect_2,1,10,-1,-1,1.508,-0.385833333,-0.2475,1,0,0,2.978,Andesite_rect,1,2.978,1,3,0,3,0,1,,,,,,,,,,,,,
626976d0dfd20d6832fc92aa,TCN,2024-06-20_16h29.45.990,LearnStrategy,2023.2.3,Win32,59.88023952,1,1,5,0.0025,-0.005833333,1,0,0,1.1747,rock_grid_rect_2,6,10,-1,-1,1.175,0.339166667,-0.239166667,1,0,0,5.1282,Gabbro_rect,4,5.128,0,4,0,4,0,1,,,,,,,,,,,,,
626976d0dfd20d6832fc92aa,TCN,2024-06-20_16h29.45.990,LearnStrategy,2023.2.3,Win32,59.88023952,1,1,6,0.010833333,-0.006666667,1,0,0,2.0417,rock_grid_rect_2,8,03,-1,-1,2.042,0.341666667,-0.415,1,0,0,6.2283,Pumice_rect,8,6.228,1,5,0,5,0,1,,,,,,,,,,,,,
626976d0dfd20d6832fc92aa,TCN,2024-06-20_16h29.45.990,LearnStrategy,2023.2.3,Win32,59.88023952,1,1,7,0.040833333,-0.001666667,1,0,0,0.9482,rock_grid_rect_2,3,16,-1,-1,0.948,0.110833333,-0.246666667,1,0,0,6.8113,Diorite_rect,3,6.811,1,6,0,6,0,1,,,,,,,,,,,,,
626976d0dfd20d6832fc92aa,TCN,2024-06-20_16h29.45.990,LearnStrategy,2023.2.3,Win32,59.88023952,1,1,8,0.083333333,-0.020833333,1,0,0,1.3414,rock_grid_rect_2,5,05,-1,-1,1.341,0.0975,-0.415833333,1,0,0,5.3612,Peridotite_rect,7,5.361,0,7,0,7,0,1,,,,,,,,,,,,,
626976d0dfd20d6832fc92aa,TCN,2024-06-20_16h29.45.990,LearnStrategy,2023.2.3,Win32,59.88023952,1,1,9,0.03,-0.014166667,1,0,0,1.6582,rock_grid_rect_2,8,16,-1,-1,1.658,0.3375,-0.385833333,1,0,0,2.378,Pumice_rect,8,2.378,1,8,0,8,0,1,,,,,,,,,,,,,
626976d0dfd20d6832fc92aa,TCN,2024-06-20_16h29.45.990,LearnStrategy,2023.2.3,Win32,59.88023952,1,1,10,0.0125,-0.011666667,1,0,0,0.9985,rock_grid_rect_2,7,12,-1,-1,0.998,-0.359166667,-0.25,1,0,0,4.9945,Andesite_rect,1,4.995,0,9,0,9,0,1,,,,,,,,,,,,,
626976d0dfd20d6832fc92aa,TCN,2024-06-20_16h29.45.990,LearnStrategy,2023.2.3,Win32,59.88023952,1,1,11,-0.013333333,-0.005833333,1,0,0,2.7751,rock_grid_rect_2,6,11,-1,-1,2.775,0.3225,-0.256666667,1,0,0,7.6451,Gabbro_rect,4,7.645,0,10,0,10,0,1,,,,,,,,,,,,,
626976d0dfd20d6832fc92aa,TCN,2024-06-20_16h29.45.990,LearnStrategy,2023.2.3,Win32,59.88023952,1,1,12,0.003333333,0.003333333,1,0,0,1.0745,rock_grid_rect_2,4,11,-1,-1,1.075,-0.13,-0.2575,1,0,0,3.3283,Basalt_rect,2,3.328,0,11,0,11,0,1,,,,,,,,,,,,,
626976d0dfd20d6832fc92aa,TCN,2024-06-20_16h29.45.990,LearnStrategy,2023.2.3,Win32,59.88023952,1,1,13,0.035,0.0075,1,0,0,1.442,rock_grid_rect_2,7,07,-1,-1,1.442,-0.37,-0.270833333,1,0,0,8.6952,Andesite_rect,1,8.695,0,12,0,12,0,1,,,,,,,,,,,,,
626976d0dfd20d6832fc92aa,TCN,2024-06-20_16h29.45.990,LearnStrategy,2023.2.3,Win32,59.88023952,1,1,14,0.035833333,-0.001666667,1,0,0,1.092,rock_grid_rect_2,4,15,-1,-1,1.092,-0.359166667,-0.27,1,0,0,5.1118,Andesite_rect,1,5.112,0,13,0,13,0,1,,,,,,,,,,,,,
626976d0dfd20d6832fc92aa,TCN,2024-06-20_16h29.45.990,LearnStrategy,2023.2.3,Win32,59.88023952,1,1,15,0.005833333,0.008333333,1,0,0,0.6814,rock_grid_rect_2,2,16,-1,-1,0.681,0.423333333,-0.404166667,1,0,0,2.5449,Pumice_rect,8,2.545,0,14,0,14,0,1,,,,,,,,,,,,,
626976d0dfd20d6832fc92aa,TCN,2024-06-20_16h29.45.990,LearnStrategy,2023.2.3,Win32,59.88023952,1,1,16,-0.033333333,-0.0075,1,0,0,0.9816,rock_grid_rect_2,1,07,-1,-1,0.982,-0.3675,-0.255,1,0,0,3.1449,Andesite_rect,1,3.145,1,15,0,15,0,1,,,,,,,,,,,,,
626976d0dfd20d6832fc92aa,TCN,2024-06-20_16h29.45.990,LearnStrategy,2023.2.3,Win32,59.88023952,1,2,1,,,,,,,,1,03,,,,,,,,,,,7,13.627,0,,,,,,0.140833333,-0.388333333,1,0,0,13.6266,Peridotite_rect,0,0,0,0,1,
626976d0dfd20d6832fc92aa,TCN,2024-06-20_16h29.45.990,LearnStrategy,2023.2.3,Win32,59.88023952,1,2,2,,,,,,,,6,12,,,,,,,,,,,3,5.944,0,,,,,,0.139166667,-0.259166667,1,0,0,5.944,Diorite_rect,1,0,1,0,1,
626976d0dfd20d6832fc92aa,TCN,2024-06-20_16h29.45.990,LearnStrategy,2023.2.3,Win32,59.88023952,1,2,3,,,,,,,,2,12,,,,,,,,,,,8,4.111,0,,,,,,0.3675,-0.409166667,1,0,0,4.1109,Pumice_rect,2,0,2,0,1,
626976d0dfd20d6832fc92aa,TCN,2024-06-20_16h29.45.990,LearnStrategy,2023.2.3,Win32,59.88023952,1,2,4,,,,,,,,3,10,,,,,,,,,,,1,3.544,0,,,,,,-0.393333333,-0.2375,1,0,0,3.5439,Andesite_rect,3,0,3,0,1,
626976d0dfd20d6832fc92aa,TCN,2024-06-20_16h29.45.990,LearnStrategy,2023.2.3,Win32,59.88023952,1,2,5,,,,,,,,4,09,,,,,,,,,,,5,6.527,0,,,,,,-0.361666667,-0.385833333,1,0,0,6.5274,Obsidian_rect,4,0,4,0,1,
626976d0dfd20d6832fc92aa,TCN,2024-06-20_16h29.45.990,LearnStrategy,2023.2.3,Win32,59.88023952,1,2,6,,,,,,,,1,11,,,,,,,,,,,1,3.361,1,,,,,,-0.363333333,-0.2425,1,0,0,3.3607,Andesite_rect,5,0,5,0,1,
626976d0dfd20d6832fc92aa,TCN,2024-06-20_16h29.45.990,LearnStrategy,2023.2.3,Win32,59.88023952,1,2,7,,,,,,,,5,04,,,,,,,,,,,5,2.427,1,,,,,,-0.365833333,-0.396666667,1,0,0,2.4268,Obsidian_rect,6,0,6,0,1,
626976d0dfd20d6832fc92aa,TCN,2024-06-20_16h29.45.990,LearnStrategy,2023.2.3,Win32,59.88023952,1,2,8,,,,,,,,7,14,,,,,,,,,,,7,10.528,1,,,,,,0.070833333,-0.41,1,0,0,10.5278,Peridotite_rect,7,0,7,0,1,
626976d0dfd20d6832fc92aa,TCN,2024-06-20_16h29.45.990,LearnStrategy,2023.2.3,Win32,59.88023952,1,2,9,,,,,,,,2,02,,,,,,,,,,,3,4.811,0,,,,,,0.215,-0.246666667,1,0,0,4.8112,Diorite_rect,8,0,8,0,1,
626976d0dfd20d6832fc92aa,TCN,2024-06-20_16h29.45.990,LearnStrategy,2023.2.3,Win32,59.88023952,1,2,10,,,,,,,,3,02,,,,,,,,,,,1,2.711,0,,,,,,-0.38,-0.2475,1,0,0,2.7106,Andesite_rect,9,0,9,0,1,
626976d0dfd20d6832fc92aa,TCN,2024-06-20_16h29.45.990,LearnStrategy,2023.2.3,Win32,59.88023952,1,2,11,,,,,,,,4,01,,,,,,,,,,,7,6.777,0,,,,,,0.063333333,-0.396666667,1,0,0,6.7774,Peridotite_rect,10,0,10,0,1,
626976d0dfd20d6832fc92aa,TCN,2024-06-20_16h29.45.990,LearnStrategy,2023.2.3,Win32,59.88023952,1,2,12,,,,,,,,8,06,,,,,,,,,,,8,2.244,1,,,,,,0.419166667,-0.405833333,1,0,0,2.2438,Pumice_rect,11,0,11,0,1,
626976d0dfd20d6832fc92aa,TCN,2024-06-20_16h29.45.990,LearnStrategy,2023.2.3,Win32,59.88023952,1,2,13,,,,,,,,8,09,,,,,,,,,,,8,1.909,1,,,,,,0.381666667,-0.389166667,1,0,0,1.9093,Pumice_rect,12,0,12,0,1,
626976d0dfd20d6832fc92aa,TCN,2024-06-20_16h29.45.990,LearnStrategy,2023.2.3,Win32,59.88023952,1,2,14,,,,,,,,5,14,,,,,,,,,,,5,1.511,1,,,,,,-0.38,-0.4025,1,0,0,1.5106,Obsidian_rect,13,0,13,0,1,
626976d0dfd20d6832fc92aa,TCN,2024-06-20_16h29.45.990,LearnStrategy,2023.2.3,Win32,59.88023952,1,2,15,,,,,,,,7,13,,,,,,,,,,,7,8.445,1,,,,,,0.1125,-0.415833333,1,0,0,8.4451,Peridotite_rect,14,0,14,0,1,
626976d0dfd20d6832fc92aa,TCN,2024-06-20_16h29.45.990,LearnStrategy,2023.2.3,Win32,59.88023952,1,2,16,,,,,,,,6,08,,,,,,,,,,,6,2.077,1,,,,,,-0.128333333,-0.405,1,0,0,2.0774,Pegmatite_rect,15,0,15,0,1,
626976d0dfd20d6832fc92aa,TCN,2024-06-20_16h29.45.990,LearnStrategy,2023.2.3,Win32,59.88023952,2,1,1,-0.02,-0.003333333,1,0,0,1.765,rock_grid_rect_2,4,05,-1,-1,1.765,-0.175,-0.240833333,1,0,0,6.6784,Basalt_rect,2,6.678,0,0,0,0,0,1,,,,,,,,,,,,,
626976d0dfd20d6832fc92aa,TCN,2024-06-20_16h29.45.990,LearnStrategy,2023.2.3,Win32,59.88023952,2,1,2,-0.013333333,0.001666667,1,0,0,0.9586,rock_grid_rect_2,5,08,-1,-1,0.959,-0.39,-0.388333333,1,0,0,1.4608,Obsidian_rect,5,1.461,1,1,0,1,0,1,,,,,,,,,,,,,
626976d0dfd20d6832fc92aa,TCN,2024-06-20_16h29.45.990,LearnStrategy,2023.2.3,Win32,59.88023952,2,1,3,-0.018333333,-0.001666667,1,0,0,1.0988,rock_grid_rect_2,8,05,-1,-1,1.099,0.378333333,-0.4,1,0,0,1.2278,Pumice_rect,8,1.228,1,2,0,2,0,1,,,,,,,,,,,,,
626976d0dfd20d6832fc92aa,TCN,2024-06-20_16h29.45.990,LearnStrategy,2023.2.3,Win32,59.88023952,2,1,4,-0.0475,-0.013333333,1,0,0,1.0486,rock_grid_rect_2,8,10,-1,-1,1.049,0.3525,-0.3875,1,0,0,5.094,Pumice_rect,8,5.094,1,3,0,3,0,1,,,,,,,,,,,,,
626976d0dfd20d6832fc92aa,TCN,2024-06-20_16h29.45.990,LearnStrategy,2023.2.3,Win32,59.88023952,2,1,5,-0.0175,-0.015833333,1,0,0,1.0479,rock_grid_rect_2,1,02,-1,-1,1.048,-0.403333333,-0.258333333,1,0,0,4.161,Andesite_rect,1,4.161,1,4,0,4,0,1,,,,,,,,,,,,,
626976d0dfd20d6832fc92aa,TCN,2024-06-20_16h29.45.990,LearnStrategy,2023.2.3,Win32,59.88023952,2,1,6,-0.015833333,-0.0025,1,0,0,0.9756,rock_grid_rect_2,7,06,-1,-1,0.976,0.043333333,-0.394166667,1,0,0,4.0777,Peridotite_rect,7,4.078,1,5,0,5,0,1,,,,,,,,,,,,,
626976d0dfd20d6832fc92aa,TCN,2024-06-20_16h29.45.990,LearnStrategy,2023.2.3,Win32,59.88023952,2,1,7,0.001666667,-0.015833333,1,0,0,0.9316,rock_grid_rect_2,6,05,-1,-1,0.932,-0.136666667,-0.4025,1,0,0,3.5112,Pegmatite_rect,6,3.511,1,6,0,6,0,1,,,,,,,,,,,,,
626976d0dfd20d6832fc92aa,TCN,2024-06-20_16h29.45.990,LearnStrategy,2023.2.3,Win32,59.88023952,2,1,8,-0.0275,-0.013333333,1,0,0,1.2148,rock_grid_rect_2,5,09,-1,-1,1.215,-0.38,-0.400833333,1,0,0,2.0607,Obsidian_rect,5,2.061,1,7,0,7,0,1,,,,,,,,,,,,,
626976d0dfd20d6832fc92aa,TCN,2024-06-20_16h29.45.990,LearnStrategy,2023.2.3,Win32,59.88023952,2,1,9,-0.005,0.001666667,1,0,0,1.2149,rock_grid_rect_2,3,06,-1,-1,1.215,-0.123333333,-0.25,1,0,0,5.3783,Basalt_rect,2,5.378,0,8,0,8,0,1,,,,,,,,,,,,,
626976d0dfd20d6832fc92aa,TCN,2024-06-20_16h29.45.990,LearnStrategy,2023.2.3,Win32,59.88023952,2,1,10,0.083333333,-0.0075,1,0,0,1.3255,rock_grid_rect_2,2,04,-1,-1,1.325,-0.138333333,-0.260833333,1,0,0,4.3114,Basalt_rect,2,4.311,1,9,0,9,0,1,,,,,,,,,,,,,
626976d0dfd20d6832fc92aa,TCN,2024-06-20_16h29.45.990,LearnStrategy,2023.2.3,Win32,59.88023952,2,1,11,0.015,-0.015,1,0,0,1.3311,rock_grid_rect_2,6,03,-1,-1,1.331,-0.1575,-0.4025,1,0,0,2.4946,Pegmatite_rect,6,2.495,1,10,0,10,0,1,,,,,,,,,,,,,
626976d0dfd20d6832fc92aa,TCN,2024-06-20_16h29.45.990,LearnStrategy,2023.2.3,Win32,59.88023952,2,1,12,-0.02,-0.008333333,1,0,0,0.9146,rock_grid_rect_2,1,05,-1,-1,0.915,0.099166667,-0.39,1,0,0,7.3281,Peridotite_rect,7,7.328,0,11,0,11,0,1,,,,,,,,,,,,,
626976d0dfd20d6832fc92aa,TCN,2024-06-20_16h29.45.990,LearnStrategy,2023.2.3,Win32,59.88023952,2,1,13,-0.021666667,-0.016666667,1,0,0,1.3479,rock_grid_rect_2,7,04,-1,-1,1.348,-0.146666667,-0.400833333,1,0,0,3.3109,Pegmatite_rect,6,3.311,0,12,0,12,0,1,,,,,,,,,,,,,
626976d0dfd20d6832fc92aa,TCN,2024-06-20_16h29.45.990,LearnStrategy,2023.2.3,Win32,59.88023952,2,1,14,0.025,-0.013333333,1,0,0,0.7255,rock_grid_rect_2,2,05,-1,-1,0.726,-0.123333333,-0.265,1,0,0,1.7614,Basalt_rect,2,1.761,1,13,0,13,0,1,,,,,,,,,,,,,
626976d0dfd20d6832fc92aa,TCN,2024-06-20_16h29.45.990,LearnStrategy,2023.2.3,Win32,59.88023952,2,1,15,0.009166667,-0.01,1,0,0,1.0321,rock_grid_rect_2,3,09,-1,-1,1.032,-0.386666667,-0.255833333,1,0,0,1.9778,Andesite_rect,1,1.978,0,14,0,14,0,1,,,,,,,,,,,,,
626976d0dfd20d6832fc92aa,TCN,2024-06-20_16h29.45.990,LearnStrategy,2023.2.3,Win32,59.88023952,2,1,16,-0.021666667,-0.013333333,1,0,0,1.0084,rock_grid_rect_2,4,03,-1,-1,1.008,-0.148333333,-0.251666667,1,0,0,4.6781,Basalt_rect,2,4.678,0,15,0,15,0,1,,,,,,,,,,,,,
626976d0dfd20d6832fc92aa,TCN,2024-06-20_16h29.45.990,LearnStrategy,2023.2.3,Win32,59.88023952,2,2,1,,,,,,,,4,12,,,,,,,,,,,4,8.162,1,,,,,,0.320833333,-0.251666667,1,0,0,8.1617,Gabbro_rect,0,0,0,0,1,
626976d0dfd20d6832fc92aa,TCN,2024-06-20_16h29.45.990,LearnStrategy,2023.2.3,Win32,59.88023952,2,2,2,,,,,,,,7,05,,,,,,,,,,,7,4.728,1,,,,,,0.128333333,-0.408333333,1,0,0,4.7277,Peridotite_rect,1,0,1,0,1,
626976d0dfd20d6832fc92aa,TCN,2024-06-20_16h29.45.990,LearnStrategy,2023.2.3,Win32,59.88023952,2,2,3,,,,,,,,6,07,,,,,,,,,,,6,1.428,1,,,,,,-0.075833333,-0.4,1,0,0,1.4275,Pegmatite_rect,2,0,2,0,1,
626976d0dfd20d6832fc92aa,TCN,2024-06-20_16h29.45.990,LearnStrategy,2023.2.3,Win32,59.88023952,2,2,4,,,,,,,,2,14,,,,,,,,,,,8,4.228,0,,,,,,0.365833333,-0.409166667,1,0,0,4.2277,Pumice_rect,3,0,3,0,1,
626976d0dfd20d6832fc92aa,TCN,2024-06-20_16h29.45.990,LearnStrategy,2023.2.3,Win32,59.88023952,2,2,5,,,,,,,,2,01,,,,,,,,,,,2,1.427,1,,,,,,-0.0825,-0.2475,1,0,0,1.4268,Basalt_rect,4,0,4,0,1,
626976d0dfd20d6832fc92aa,TCN,2024-06-20_16h29.45.990,LearnStrategy,2023.2.3,Win32,59.88023952,2,2,6,,,,,,,,5,02,,,,,,,,,,,5,1.244,1,,,,,,-0.3475,-0.399166667,1,0,0,1.244,Obsidian_rect,5,0,5,0,1,
626976d0dfd20d6832fc92aa,TCN,2024-06-20_16h29.45.990,LearnStrategy,2023.2.3,Win32,59.88023952,2,2,7,,,,,,,,3,11,,,,,,,,,,,3,5.078,1,,,,,,0.156666667,-0.255833333,1,0,0,5.0781,Diorite_rect,6,0,6,0,1,
626976d0dfd20d6832fc92aa,TCN,2024-06-20_16h29.45.990,LearnStrategy,2023.2.3,Win32,59.88023952,2,2,8,,,,,,,,8,08,,,,,,,,,,,8,1.594,1,,,,,,0.4225,-0.4075,1,0,0,1.5941,Pumice_rect,7,0,7,0,1,
626976d0dfd20d6832fc92aa,TCN,2024-06-20_16h29.45.990,LearnStrategy,2023.2.3,Win32,59.88023952,2,2,9,,,,,,,,6,09,,,,,,,,,,,6,1.628,1,,,,,,-0.105,-0.398333333,1,0,0,1.6276,Pegmatite_rect,8,0,8,0,1,
626976d0dfd20d6832fc92aa,TCN,2024-06-20_16h29.45.990,LearnStrategy,2023.2.3,Win32,59.88023952,2,2,10,,,,,,,,5,11,,,,,,,,,,,5,1.277,1,,,,,,-0.358333333,-0.389166667,1,0,0,1.2771,Obsidian_rect,9,0,9,0,1,
626976d0dfd20d6832fc92aa,TCN,2024-06-20_16h29.45.990,LearnStrategy,2023.2.3,Win32,59.88023952,2,2,11,,,,,,,,8,02,,,,,,,,,,,8,1.378,1,,,,,,0.364166667,-0.396666667,1,0,0,1.3775,Pumice_rect,10,0,10,0,1,
626976d0dfd20d6832fc92aa,TCN,2024-06-20_16h29.45.990,LearnStrategy,2023.2.3,Win32,59.88023952,2,2,12,,,,,,,,1,04,,,,,,,,,,,1,7.928,1,,,,,,-0.404166667,-0.235833333,1,0,0,7.9279,Andesite_rect,11,0,11,0,1,
626976d0dfd20d6832fc92aa,TCN,2024-06-20_16h29.45.990,LearnStrategy,2023.2.3,Win32,59.88023952,2,2,13,,,,,,,,3,07,,,,,,,,,,,3,6.911,1,,,,,,0.081666667,-0.266666667,1,0,0,6.9107,Diorite_rect,12,0,12,0,1,
626976d0dfd20d6832fc92aa,TCN,2024-06-20_16h29.45.990,LearnStrategy,2023.2.3,Win32,59.88023952,2,2,14,,,,,,,,4,10,,,,,,,,,,,8,4.678,0,,,,,,0.42,-0.410833333,1,0,0,4.6775,Pumice_rect,13,0,13,0,1,
626976d0dfd20d6832fc92aa,TCN,2024-06-20_16h29.45.990,LearnStrategy,2023.2.3,Win32,59.88023952,2,2,15,,,,,,,,1,09,,,,,,,,,,,3,4.944,0,,,,,,0.160833333,-0.243333333,1,0,0,4.9443,Diorite_rect,14,0,14,0,1,
626976d0dfd20d6832fc92aa,TCN,2024-06-20_16h29.45.990,LearnStrategy,2023.2.3,Win32,59.88023952,2,2,16,,,,,,,,7,16,,,,,,,,,,,7,2.194,1,,,,,,0.120833333,-0.4,1,0,0,2.1939,Peridotite_rect,15,0,15,0,1,
626976d0dfd20d6832fc92aa,TCN,2024-06-20_16h29.45.990,LearnStrategy,2023.2.3,Win32,59.88023952,3,1,1,0.044166667,-0.015,1,0,0,1.5987,rock_grid_rect_2,7,08,-1,-1,1.599,0.086666667,-0.385,1,0,0,2.2115,Peridotite_rect,7,2.212,1,0,0,0,0,1,,,,,,,,,,,,,
626976d0dfd20d6832fc92aa,TCN,2024-06-20_16h29.45.990,LearnStrategy,2023.2.3,Win32,59.88023952,3,1,2,0.008333333,0.003333333,1,0,0,2.275,rock_grid_rect_2,8,04,-1,-1,2.275,0.411666667,-0.405833333,1,0,0,1.461,Pumice_rect,8,1.461,1,1,0,1,0,1,,,,,,,,,,,,,
626976d0dfd20d6832fc92aa,TCN,2024-06-20_16h29.45.990,LearnStrategy,2023.2.3,Win32,59.88023952,3,1,3,0.0725,-0.010833333,1,0,0,0.899,rock_grid_rect_2,3,13,-1,-1,0.899,0.118333333,-0.245833333,1,0,0,4.5277,Diorite_rect,3,4.528,1,2,0,2,0,1,,,,,,,,,,,,,
626976d0dfd20d6832fc92aa,TCN,2024-06-20_16h29.45.990,LearnStrategy,2023.2.3,Win32,59.88023952,3,1,4,-0.011666667,0,1,0,0,1.515,rock_grid_rect_2,6,06,-1,-1,1.515,-0.144166667,-0.405,1,0,0,2.7949,Pegmatite_rect,6,2.795,1,3,0,3,0,1,,,,,,,,,,,,,
626976d0dfd20d6832fc92aa,TCN,2024-06-20_16h29.45.990,LearnStrategy,2023.2.3,Win32,59.88023952,3,1,5,0.011666667,-0.023333333,1,0,0,0.9643,rock_grid_rect_2,4,08,-1,-1,0.964,-0.104166667,-0.238333333,1,0,0,4.1281,Basalt_rect,2,4.128,0,4,0,4,0,1,,,,,,,,,,,,,
626976d0dfd20d6832fc92aa,TCN,2024-06-20_16h29.45.990,LearnStrategy,2023.2.3,Win32,59.88023952,3,1,6,-0.0125,-0.010833333,1,0,0,1.515,rock_grid_rect_2,4,13,-1,-1,1.515,-0.360833333,-0.235833333,1,0,0,5.6279,Andesite_rect,1,5.628,0,5,0,5,0,1,,,,,,,,,,,,,
626976d0dfd20d6832fc92aa,TCN,2024-06-20_16h29.45.990,LearnStrategy,2023.2.3,Win32,59.88023952,3,1,7,0.02,0.005833333,1,0,0,1.2146,rock_grid_rect_2,5,10,-1,-1,1.215,-0.355,-0.395833333,1,0,0,1.3109,Obsidian_rect,5,1.311,1,6,0,6,0,1,,,,,,,,,,,,,
626976d0dfd20d6832fc92aa,TCN,2024-06-20_16h29.45.990,LearnStrategy,2023.2.3,Win32,59.88023952,3,1,8,0.055833333,0.0125,1,0,0,2.2655,rock_grid_rect_2,6,16,-1,-1,2.265,-0.1325,-0.410833333,1,0,0,1.8446,Pegmatite_rect,6,1.845,1,7,0,7,0,1,,,,,,,,,,,,,
626976d0dfd20d6832fc92aa,TCN,2024-06-20_16h29.45.990,LearnStrategy,2023.2.3,Win32,59.88023952,3,1,9,0.0125,-0.0075,1,0,0,2.4985,rock_grid_rect_2,1,06,-1,-1,2.498,0.1025,-0.2325,1,0,0,6.0277,Diorite_rect,3,6.028,0,8,0,8,0,1,,,,,,,,,,,,,
626976d0dfd20d6832fc92aa,TCN,2024-06-20_16h29.45.990,LearnStrategy,2023.2.3,Win32,59.88023952,3,1,10,0.068333333,-0.001666667,1,0,0,1.0647,rock_grid_rect_2,2,08,-1,-1,1.065,-0.111666667,-0.228333333,1,0,0,2.0108,Basalt_rect,2,2.011,1,9,0,9,0,1,,,,,,,,,,,,,
626976d0dfd20d6832fc92aa,TCN,2024-06-20_16h29.45.990,LearnStrategy,2023.2.3,Win32,59.88023952,3,1,11,0.04,-0.005833333,1,0,0,1.2148,rock_grid_rect_2,1,14,-1,-1,1.215,-0.370833333,-0.240833333,1,0,0,4.8281,Andesite_rect,1,4.828,1,10,0,10,0,1,,,,,,,,,,,,,
626976d0dfd20d6832fc92aa,TCN,2024-06-20_16h29.45.990,LearnStrategy,2023.2.3,Win32,59.88023952,3,1,12,-0.005,-0.010833333,1,0,0,0.9981,rock_grid_rect_2,2,10,-1,-1,0.998,-0.136666667,-0.24,1,0,0,1.6946,Basalt_rect,2,1.695,1,11,0,11,0,1,,,,,,,,,,,,,
626976d0dfd20d6832fc92aa,TCN,2024-06-20_16h29.45.990,LearnStrategy,2023.2.3,Win32,59.88023952,3,1,13,0.0175,-0.0025,1,0,0,0.8484,rock_grid_rect_2,8,15,-1,-1,0.848,0.3775,-0.399166667,1,0,0,1.4108,Pumice_rect,8,1.411,1,12,0,12,0,1,,,,,,,,,,,,,
626976d0dfd20d6832fc92aa,TCN,2024-06-20_16h29.45.990,LearnStrategy,2023.2.3,Win32,59.88023952,3,1,14,0.014166667,-0.006666667,1,0,0,1.1154,rock_grid_rect_2,7,10,-1,-1,1.115,0.071666667,-0.4,1,0,0,2.6448,Peridotite_rect,7,2.645,1,13,0,13,0,1,,,,,,,,,,,,,
626976d0dfd20d6832fc92aa,TCN,2024-06-20_16h29.45.990,LearnStrategy,2023.2.3,Win32,59.88023952,3,1,15,0.063333333,-0.0175,1,0,0,0.9148,rock_grid_rect_2,3,15,-1,-1,0.915,-0.354166667,-0.236666667,1,0,0,4.7615,Andesite_rect,1,4.761,0,14,0,14,0,1,,,,,,,,,,,,,
626976d0dfd20d6832fc92aa,TCN,2024-06-20_16h29.45.990,LearnStrategy,2023.2.3,Win32,59.88023952,3,1,16,0.0675,0.0025,1,0,0,0.8311,rock_grid_rect_2,5,07,-1,-1,0.831,-0.38,-0.415,1,0,0,1.178,Obsidian_rect,5,1.178,1,15,0,15,0,1,,,,,,,,,,,,,
626976d0dfd20d6832fc92aa,TCN,2024-06-20_16h29.45.990,LearnStrategy,2023.2.3,Win32,59.88023952,3,2,1,,,,,,,,2,09,,,,,,,,,,,2,1.778,1,,,,,,-0.056666667,-0.245833333,1,0,0,1.7778,Basalt_rect,0,0,0,0,1,
626976d0dfd20d6832fc92aa,TCN,2024-06-20_16h29.45.990,LearnStrategy,2023.2.3,Win32,59.88023952,3,2,2,,,,,,,,5,16,,,,,,,,,,,5,2.244,1,,,,,,-0.389166667,-0.393333333,1,0,0,2.2436,Obsidian_rect,1,0,1,0,1,
626976d0dfd20d6832fc92aa,TCN,2024-06-20_16h29.45.990,LearnStrategy,2023.2.3,Win32,59.88023952,3,2,3,,,,,,,,7,15,,,,,,,,,,,7,1.777,1,,,,,,0.073333333,-0.395833333,1,0,0,1.7772,Peridotite_rect,2,0,2,0,1,
626976d0dfd20d6832fc92aa,TCN,2024-06-20_16h29.45.990,LearnStrategy,2023.2.3,Win32,59.88023952,3,2,4,,,,,,,,4,16,,,,,,,,,,,2,4.044,0,,,,,,-0.1225,-0.25,1,0,0,4.0445,Basalt_rect,3,0,3,0,1,
626976d0dfd20d6832fc92aa,TCN,2024-06-20_16h29.45.990,LearnStrategy,2023.2.3,Win32,59.88023952,3,2,5,,,,,,,,4,14,,,,,,,,,,,4,3.128,1,,,,,,0.3575,-0.248333333,1,0,0,3.1277,Gabbro_rect,4,0,4,0,1,
626976d0dfd20d6832fc92aa,TCN,2024-06-20_16h29.45.990,LearnStrategy,2023.2.3,Win32,59.88023952,3,2,6,,,,,,,,5,12,,,,,,,,,,,5,1.344,1,,,,,,-0.343333333,-0.405833333,1,0,0,1.3439,Obsidian_rect,5,0,5,0,1,
626976d0dfd20d6832fc92aa,TCN,2024-06-20_16h29.45.990,LearnStrategy,2023.2.3,Win32,59.88023952,3,2,7,,,,,,,,6,13,,,,,,,,,,,6,3.044,1,,,,,,-0.134166667,-0.403333333,1,0,0,3.0443,Pegmatite_rect,6,0,6,0,1,
626976d0dfd20d6832fc92aa,TCN,2024-06-20_16h29.45.990,LearnStrategy,2023.2.3,Win32,59.88023952,3,2,8,,,,,,,,8,13,,,,,,,,,,,8,1.678,1,,,,,,0.375,-0.39,1,0,0,1.6781,Pumice_rect,7,0,7,0,1,
626976d0dfd20d6832fc92aa,TCN,2024-06-20_16h29.45.990,LearnStrategy,2023.2.3,Win32,59.88023952,3,2,9,,,,,,,,2,06,,,,,,,,,,,2,1.444,1,,,,,,-0.0975,-0.243333333,1,0,0,1.4437,Basalt_rect,8,0,8,0,1,
626976d0dfd20d6832fc92aa,TCN,2024-06-20_16h29.45.990,LearnStrategy,2023.2.3,Win32,59.88023952,3,2,10,,,,,,,,3,08,,,,,,,,,,,3,2.411,1,,,,,,0.1075,-0.2475,1,0,0,2.4108,Diorite_rect,9,0,9,0,1,
626976d0dfd20d6832fc92aa,TCN,2024-06-20_16h29.45.990,LearnStrategy,2023.2.3,Win32,59.88023952,3,2,11,,,,,,,,6,15,,,,,,,,,,,6,1.611,1,,,,,,-0.141666667,-0.413333333,1,0,0,1.6108,Pegmatite_rect,10,0,10,0,1,
626976d0dfd20d6832fc92aa,TCN,2024-06-20_16h29.45.990,LearnStrategy,2023.2.3,Win32,59.88023952,3,2,12,,,,,,,,8,14,,,,,,,,,,,8,1.195,1,,,,,,0.335833333,-0.408333333,1,0,0,1.1946,Pumice_rect,11,0,11,0,1,
626976d0dfd20d6832fc92aa,TCN,2024-06-20_16h29.45.990,LearnStrategy,2023.2.3,Win32,59.88023952,3,2,13,,,,,,,,1,01,,,,,,,,,,,1,4.478,1,,,,,,-0.343333333,-0.258333333,1,0,0,4.478,Andesite_rect,12,0,12,0,1,
626976d0dfd20d6832fc92aa,TCN,2024-06-20_16h29.45.990,LearnStrategy,2023.2.3,Win32,59.88023952,3,2,14,,,,,,,,7,02,,,,,,,,,,,7,1.427,1,,,,,,0.121666667,-0.384166667,1,0,0,1.4273,Peridotite_rect,13,0,13,0,1,
626976d0dfd20d6832fc92aa,TCN,2024-06-20_16h29.45.990,LearnStrategy,2023.2.3,Win32,59.88023952,3,2,15,,,,,,,,3,12,,,,,,,,,,,3,2.777,1,,,,,,0.0925,-0.254166667,1,0,0,2.7773,Diorite_rect,14,0,14,0,1,
626976d0dfd20d6832fc92aa,TCN,2024-06-20_16h29.45.990,LearnStrategy,2023.2.3,Win32,59.88023952,3,2,16,,,,,,,,1,16,,,,,,,,,,,4,1.744,0,,,,,,0.3725,-0.263333333,1,0,0,1.7443,Gabbro_rect,15,0,15,0,1,
626976d0dfd20d6832fc92aa,TCN,2024-06-20_16h29.45.990,LearnStrategy,2023.2.3,Win32,59.88023952,4,1,1,-0.019166667,-0.004166667,1,0,0,1.6325,rock_grid_rect_2,8,15,-1,-1,1.633,0.400833333,-0.4,1,0,0,1.244,Pumice_rect,8,1.244,1,0,0,0,0,1,,,,,,,,,,,,,
626976d0dfd20d6832fc92aa,TCN,2024-06-20_16h29.45.990,LearnStrategy,2023.2.3,Win32,59.88023952,4,1,2,0.021666667,-0.013333333,1,0,0,1.4317,rock_grid_rect_2,7,10,-1,-1,1.432,0.1225,-0.394166667,1,0,0,2.9782,Peridotite_rect,7,2.978,1,1,0,1,0,1,,,,,,,,,,,,,
626976d0dfd20d6832fc92aa,TCN,2024-06-20_16h29.45.990,LearnStrategy,2023.2.3,Win32,59.88023952,4,1,3,0.035,-0.018333333,1,0,0,1.1145,rock_grid_rect_2,1,07,-1,-1,1.114,0.096666667,-0.255833333,1,0,0,5.1778,Diorite_rect,3,5.178,0,2,0,2,0,1,,,,,,,,,,,,,
626976d0dfd20d6832fc92aa,TCN,2024-06-20_16h29.45.990,LearnStrategy,2023.2.3,Win32,59.88023952,4,1,4,0.049166667,-0.0075,1,0,0,1.0144,rock_grid_rect_2,3,15,-1,-1,1.014,0.085833333,-0.2525,1,0,0,3.5117,Diorite_rect,3,3.512,1,3,0,3,0,1,,,,,,,,,,,,,
626976d0dfd20d6832fc92aa,TCN,2024-06-20_16h29.45.990,LearnStrategy,2023.2.3,Win32,59.88023952,4,1,5,0.054166667,-0.013333333,1,0,0,0.9651,rock_grid_rect_2,6,16,-1,-1,0.965,-0.113333333,-0.391666667,1,0,0,1.4608,Pegmatite_rect,6,1.461,1,4,0,4,0,1,,,,,,,,,,,,,
626976d0dfd20d6832fc92aa,TCN,2024-06-20_16h29.45.990,LearnStrategy,2023.2.3,Win32,59.88023952,4,1,6,0.083333333,-0.011666667,1,0,0,0.7485,rock_grid_rect_2,7,04,-1,-1,0.749,-0.1225,-0.396666667,1,0,0,2.478,Pegmatite_rect,6,2.478,0,5,0,5,0,1,,,,,,,,,,,,,
626976d0dfd20d6832fc92aa,TCN,2024-06-20_16h29.45.990,LearnStrategy,2023.2.3,Win32,59.88023952,4,1,7,0.023333333,0.006666667,1,0,0,1.142,rock_grid_rect_2,3,16,-1,-1,1.142,0.063333333,-0.245,1,0,0,4.6108,Diorite_rect,3,4.611,1,6,0,6,0,1,,,,,,,,,,,,,
626976d0dfd20d6832fc92aa,TCN,2024-06-20_16h29.45.990,LearnStrategy,2023.2.3,Win32,59.88023952,4,1,8,0.0425,-0.001666667,1,0,0,0.9645,rock_grid_rect_2,6,11,-1,-1,0.965,-0.1375,-0.405,1,0,0,1.2112,Pegmatite_rect,6,1.211,1,7,0,7,0,1,,,,,,,,,,,,,
626976d0dfd20d6832fc92aa,TCN,2024-06-20_16h29.45.990,LearnStrategy,2023.2.3,Win32,59.88023952,4,1,9,0.015,0,1,0,0,0.8484,rock_grid_rect_2,5,05,-1,-1,0.848,-0.3425,-0.408333333,1,0,0,1.5947,Obsidian_rect,5,1.595,1,8,0,8,0,1,,,,,,,,,,,,,
626976d0dfd20d6832fc92aa,TCN,2024-06-20_16h29.45.990,LearnStrategy,2023.2.3,Win32,59.88023952,4,1,10,0.021666667,-0.008333333,1,0,0,0.9311,rock_grid_rect_2,4,05,-1,-1,0.931,0.1,-0.391666667,1,0,0,3.3947,Peridotite_rect,7,3.395,0,9,0,9,0,1,,,,,,,,,,,,,
626976d0dfd20d6832fc92aa,TCN,2024-06-20_16h29.45.990,LearnStrategy,2023.2.3,Win32,59.88023952,4,1,11,0.069166667,0.0075,1,0,0,0.915,rock_grid_rect_2,5,07,-1,-1,0.915,-0.381666667,-0.401666667,1,0,0,1.1777,Obsidian_rect,5,1.178,1,10,0,10,0,1,,,,,,,,,,,,,
626976d0dfd20d6832fc92aa,TCN,2024-06-20_16h29.45.990,LearnStrategy,2023.2.3,Win32,59.88023952,4,1,12,0.004166667,0.005833333,1,0,0,1.0485,rock_grid_rect_2,8,04,-1,-1,1.048,0.379166667,-0.3825,1,0,0,1.1949,Pumice_rect,8,1.195,1,11,0,11,0,1,,,,,,,,,,,,,
626976d0dfd20d6832fc92aa,TCN,2024-06-20_16h29.45.990,LearnStrategy,2023.2.3,Win32,59.88023952,4,1,13,0.051666667,-0.011666667,1,0,0,1.0484,rock_grid_rect_2,2,04,-1,-1,1.048,-0.1325,-0.238333333,1,0,0,1.2612,Basalt_rect,2,1.261,1,12,0,12,0,1,,,,,,,,,,,,,
626976d0dfd20d6832fc92aa,TCN,2024-06-20_16h29.45.990,LearnStrategy,2023.2.3,Win32,59.88023952,4,1,14,0.055,-0.003333333,1,0,0,0.7319,rock_grid_rect_2,4,11,-1,-1,0.732,0.348333333,-0.245833333,1,0,0,4.2782,Gabbro_rect,4,4.278,1,13,0,13,0,1,,,,,,,,,,,,,
626976d0dfd20d6832fc92aa,TCN,2024-06-20_16h29.45.990,LearnStrategy,2023.2.3,Win32,59.88023952,4,1,15,0.065833333,-0.023333333,1,0,0,0.9483,rock_grid_rect_2,2,11,-1,-1,0.948,0.353333333,-0.386666667,1,0,0,1.4113,Pumice_rect,8,1.411,0,14,0,14,0,1,,,,,,,,,,,,,
626976d0dfd20d6832fc92aa,TCN,2024-06-20_16h29.45.990,LearnStrategy,2023.2.3,Win32,59.88023952,4,1,16,0.075833333,-0.019166667,1,0,0,0.7987,rock_grid_rect_2,1,05,-1,-1,0.799,0.1175,-0.404166667,1,0,0,3.0945,Peridotite_rect,7,3.095,0,15,0,15,0,1,,,,,,,,,,,,,
626976d0dfd20d6832fc92aa,TCN,2024-06-20_16h29.45.990,LearnStrategy,2023.2.3,Win32,59.88023952,4,2,1,,,,,,,,5,16,,,,,,,,,,,5,1.461,1,,,,,,-0.395833333,-0.41,1,0,0,1.4609,Obsidian_rect,0,0,0,0,1,
626976d0dfd20d6832fc92aa,TCN,2024-06-20_16h29.45.990,LearnStrategy,2023.2.3,Win32,59.88023952,4,2,2,,,,,,,,1,09,,,,,,,,,,,4,4.311,0,,,,,,0.360833333,-0.265833333,1,0,0,4.311,Gabbro_rect,1,0,1,0,1,
626976d0dfd20d6832fc92aa,TCN,2024-06-20_16h29.45.990,LearnStrategy,2023.2.3,Win32,59.88023952,4,2,3,,,,,,,,3,11,,,,,,,,,,,3,4.595,1,,,,,,0.186666667,-0.244166667,1,0,0,4.5947,Diorite_rect,2,0,2,0,1,
626976d0dfd20d6832fc92aa,TCN,2024-06-20_16h29.45.990,LearnStrategy,2023.2.3,Win32,59.88023952,4,2,4,,,,,,,,4,01,,,,,,,,,,,7,4.577,0,,,,,,0.116666667,-0.42,1,0,0,4.5774,Peridotite_rect,3,0,3,0,1,
626976d0dfd20d6832fc92aa,TCN,2024-06-20_16h29.45.990,LearnStrategy,2023.2.3,Win32,59.88023952,4,2,5,,,,,,,,5,02,,,,,,,,,,,5,1.644,1,,,,,,-0.3875,-0.408333333,1,0,0,1.6442,Obsidian_rect,4,0,4,0,1,
626976d0dfd20d6832fc92aa,TCN,2024-06-20_16h29.45.990,LearnStrategy,2023.2.3,Win32,59.88023952,4,2,6,,,,,,,,1,03,,,,,,,,,,,1,1.594,1,,,,,,-0.379166667,-0.259166667,1,0,0,1.594,Andesite_rect,5,0,5,0,1,
626976d0dfd20d6832fc92aa,TCN,2024-06-20_16h29.45.990,LearnStrategy,2023.2.3,Win32,59.88023952,4,2,7,,,,,,,,2,01,,,,,,,,,,,2,1.044,1,,,,,,-0.1425,-0.245,1,0,0,1.044,Basalt_rect,6,0,6,0,1,
626976d0dfd20d6832fc92aa,TCN,2024-06-20_16h29.45.990,LearnStrategy,2023.2.3,Win32,59.88023952,4,2,8,,,,,,,,6,13,,,,,,,,,,,6,1.394,1,,,,,,-0.14,-0.395,1,0,0,1.3943,Pegmatite_rect,7,0,7,0,1,
626976d0dfd20d6832fc92aa,TCN,2024-06-20_16h29.45.990,LearnStrategy,2023.2.3,Win32,59.88023952,4,2,9,,,,,,,,6,12,,,,,,,,,,,6,4.845,1,,,,,,-0.139166667,-0.404166667,1,0,0,4.8446,Pegmatite_rect,8,0,8,0,1,
626976d0dfd20d6832fc92aa,TCN,2024-06-20_16h29.45.990,LearnStrategy,2023.2.3,Win32,59.88023952,4,2,10,,,,,,,,8,13,,,,,,,,,,,8,1.277,1,,,,,,0.409166667,-0.42,1,0,0,1.2774,Pumice_rect,9,0,9,0,1,
626976d0dfd20d6832fc92aa,TCN,2024-06-20_16h29.45.990,LearnStrategy,2023.2.3,Win32,59.88023952,4,2,11,,,,,,,,7,13,,,,,,,,,,,7,1.31,1,,,,,,0.14,-0.4025,1,0,0,1.3105,Peridotite_rect,10,0,10,0,1,
626976d0dfd20d6832fc92aa,TCN,2024-06-20_16h29.45.990,LearnStrategy,2023.2.3,Win32,59.88023952,4,2,12,,,,,,,,7,15,,,,,,,,,,,7,1.327,1,,,,,,0.14,-0.4025,1,0,0,1.3273,Peridotite_rect,11,0,11,0,1,
626976d0dfd20d6832fc92aa,TCN,2024-06-20_16h29.45.990,LearnStrategy,2023.2.3,Win32,59.88023952,4,2,13,,,,,,,,8,08,,,,,,,,,,,8,1.244,1,,,,,,0.395833333,-0.4125,1,0,0,1.2441,Pumice_rect,12,0,12,0,1,
626976d0dfd20d6832fc92aa,TCN,2024-06-20_16h29.45.990,LearnStrategy,2023.2.3,Win32,59.88023952,4,2,14,,,,,,,,4,10,,,,,,,,,,,4,2.528,1,,,,,,0.358333333,-0.261666667,1,0,0,2.5279,Gabbro_rect,13,0,13,0,1,
626976d0dfd20d6832fc92aa,TCN,2024-06-20_16h29.45.990,LearnStrategy,2023.2.3,Win32,59.88023952,4,2,15,,,,,,,,3,10,,,,,,,,,,,1,3.578,0,,,,,,-0.335,-0.253333333,1,0,0,3.5781,Andesite_rect,14,0,14,0,1,
626976d0dfd20d6832fc92aa,TCN,2024-06-20_16h29.45.990,LearnStrategy,2023.2.3,Win32,59.88023952,4,2,16,,,,,,,,2,02,,,,,,,,,,,2,1.461,1,,,,,,-0.12,-0.260833333,1,0,0,1.4607,Basalt_rect,15,0,15,0,1,
626976d0dfd20d6832fc92aa,TCN,2024-06-20_16h29.45.990,LearnStrategy,2023.2.3,Win32,59.88023952,5,1,1,0.021666667,-0.004166667,1,0,0,1.0491,rock_grid_rect_2,8,10,-1,-1,1.049,0.324166667,-0.250833333,1,0,0,4.4449,Gabbro_rect,4,4.445,0,0,0,0,0,1,,,,,,,,,,,,,
626976d0dfd20d6832fc92aa,TCN,2024-06-20_16h29.45.990,LearnStrategy,2023.2.3,Win32,59.88023952,5,1,2,0.053333333,-0.02,1,0,0,1.2816,rock_grid_rect_2,2,16,-1,-1,1.282,-0.143333333,-0.250833333,1,0,0,1.4448,Basalt_rect,2,1.445,1,1,0,1,0,1,,,,,,,,,,,,,
626976d0dfd20d6832fc92aa,TCN,2024-06-20_16h29.45.990,LearnStrategy,2023.2.3,Win32,59.88023952,5,1,3,-0.008333333,-0.015,1,0,0,1.049,rock_grid_rect_2,1,10,-1,-1,1.049,-0.36,-0.2575,1,0,0,3.4446,Andesite_rect,1,3.445,1,2,0,2,0,1,,,,,,,,,,,,,
626976d0dfd20d6832fc92aa,TCN,2024-06-20_16h29.45.990,LearnStrategy,2023.2.3,Win32,59.88023952,5,1,4,0.021666667,-0.011666667,1,0,0,1.1651,rock_grid_rect_2,3,13,-1,-1,1.165,0.125833333,-0.234166667,1,0,0,3.2277,Diorite_rect,3,3.228,1,3,0,3,0,1,,,,,,,,,,,,,
626976d0dfd20d6832fc92aa,TCN,2024-06-20_16h29.45.990,LearnStrategy,2023.2.3,Win32,59.88023952,5,1,5,0.055,0,1,0,0,1.2815,rock_grid_rect_2,6,10,-1,-1,1.282,-0.146666667,-0.404166667,1,0,0,2.6115,Pegmatite_rect,6,2.611,1,4,0,4,0,1,,,,,,,,,,,,,
626976d0dfd20d6832fc92aa,TCN,2024-06-20_16h29.45.990,LearnStrategy,2023.2.3,Win32,59.88023952,5,1,6,0.02,0.0125,1,0,0,0.8481,rock_grid_rect_2,2,08,-1,-1,0.848,-0.136666667,-0.2425,1,0,0,1.644,Basalt_rect,2,1.644,1,5,0,5,0,1,,,,,,,,,,,,,
626976d0dfd20d6832fc92aa,TCN,2024-06-20_16h29.45.990,LearnStrategy,2023.2.3,Win32,59.88023952,5,1,7,-0.0225,-0.0075,1,0,0,0.6984,rock_grid_rect_2,7,07,-1,-1,0.698,0.099166667,-0.391666667,1,0,0,1.8115,Peridotite_rect,7,1.812,1,6,0,6,0,1,,,,,,,,,,,,,
626976d0dfd20d6832fc92aa,TCN,2024-06-20_16h29.45.990,LearnStrategy,2023.2.3,Win32,59.88023952,5,1,8,0.026666667,-0.004166667,1,0,0,0.8319,rock_grid_rect_2,4,03,-1,-1,0.832,0.106666667,-0.23,1,0,0,4.1946,Diorite_rect,3,4.195,0,7,0,7,0,1,,,,,,,,,,,,,
626976d0dfd20d6832fc92aa,TCN,2024-06-20_16h29.45.990,LearnStrategy,2023.2.3,Win32,59.88023952,5,1,9,0.003333333,-0.005,1,0,0,0.8649,rock_grid_rect_2,4,15,-1,-1,0.865,0.394166667,-0.240833333,1,0,0,1.8276,Gabbro_rect,4,1.828,1,8,0,8,0,1,,,,,,,,,,,,,
626976d0dfd20d6832fc92aa,TCN,2024-06-20_16h29.45.990,LearnStrategy,2023.2.3,Win32,59.88023952,5,1,10,0.055,-0.015833333,1,0,0,0.9814,rock_grid_rect_2,8,05,-1,-1,0.981,0.366666667,-0.4,1,0,0,1.2782,Pumice_rect,8,1.278,1,9,0,9,0,1,,,,,,,,,,,,,
626976d0dfd20d6832fc92aa,TCN,2024-06-20_16h29.45.990,LearnStrategy,2023.2.3,Win32,59.88023952,5,1,11,0.054166667,-0.000833333,1,0,0,0.6985,rock_grid_rect_2,5,06,-1,-1,0.699,-0.385,-0.3925,1,0,0,1.3105,Obsidian_rect,5,1.31,1,10,0,10,0,1,,,,,,,,,,,,,
626976d0dfd20d6832fc92aa,TCN,2024-06-20_16h29.45.990,LearnStrategy,2023.2.3,Win32,59.88023952,5,1,12,0.045,0.011666667,1,0,0,0.6823,rock_grid_rect_2,1,14,-1,-1,0.682,-0.344166667,-0.2375,1,0,0,6.4112,Andesite_rect,1,6.411,1,11,0,11,0,1,,,,,,,,,,,,,
626976d0dfd20d6832fc92aa,TCN,2024-06-20_16h29.45.990,LearnStrategy,2023.2.3,Win32,59.88023952,5,1,13,0.05,-0.014166667,1,0,0,0.8812,rock_grid_rect_2,5,09,-1,-1,0.881,-0.426666667,-0.414166667,1,0,0,1.1279,Obsidian_rect,5,1.128,1,12,0,12,0,1,,,,,,,,,,,,,
626976d0dfd20d6832fc92aa,TCN,2024-06-20_16h29.45.990,LearnStrategy,2023.2.3,Win32,59.88023952,5,1,14,0.040833333,0.020833333,1,0,0,0.9653,rock_grid_rect_2,7,06,-1,-1,0.965,0.08,-0.39,1,0,0,2.3614,Peridotite_rect,7,2.361,1,13,0,13,0,1,,,,,,,,,,,,,
626976d0dfd20d6832fc92aa,TCN,2024-06-20_16h29.45.990,LearnStrategy,2023.2.3,Win32,59.88023952,5,1,15,0.03,0.005,1,0,0,3.1483,rock_grid_rect_2,6,06,-1,-1,3.148,-0.1625,-0.381666667,1,0,0,1.8779,Pegmatite_rect,6,1.878,1,14,0,14,0,1,,,,,,,,,,,,,
626976d0dfd20d6832fc92aa,TCN,2024-06-20_16h29.45.990,LearnStrategy,2023.2.3,Win32,59.88023952,5,1,16,0.055833333,-0.0125,1,0,0,0.7318,rock_grid_rect_2,3,14,-1,-1,0.732,0.090833333,-0.234166667,1,0,0,2.2615,Diorite_rect,3,2.262,1,15,0,15,0,1,,,,,,,,,,,,,
626976d0dfd20d6832fc92aa,TCN,2024-06-20_16h29.45.990,LearnStrategy,2023.2.3,Win32,59.88023952,5,2,1,,,,,,,,3,07,,,,,,,,,,,3,3.111,1,,,,,,0.156666667,-0.253333333,1,0,0,3.1109,Diorite_rect,0,0,0,0,1,
626976d0dfd20d6832fc92aa,TCN,2024-06-20_16h29.45.990,LearnStrategy,2023.2.3,Win32,59.88023952,5,2,2,,,,,,,,6,09,,,,,,,,,,,7,1.294,0,,,,,,0.100833333,-0.394166667,1,0,0,1.2942,Peridotite_rect,1,0,1,0,1,
626976d0dfd20d6832fc92aa,TCN,2024-06-20_16h29.45.990,LearnStrategy,2023.2.3,Win32,59.88023952,5,2,3,,,,,,,,4,09,,,,,,,,,,,4,3.528,1,,,,,,0.341666667,-0.244166667,1,0,0,3.5276,Gabbro_rect,2,0,2,0,1,
626976d0dfd20d6832fc92aa,TCN,2024-06-20_16h29.45.990,LearnStrategy,2023.2.3,Win32,59.88023952,5,2,4,,,,,,,,2,06,,,,,,,,,,,2,1.128,1,,,,,,-0.046666667,-0.246666667,1,0,0,1.1275,Basalt_rect,3,0,3,0,1,
626976d0dfd20d6832fc92aa,TCN,2024-06-20_16h29.45.990,LearnStrategy,2023.2.3,Win32,59.88023952,5,2,5,,,,,,,,8,02,,,,,,,,,,,8,1.394,1,,,,,,0.390833333,-0.3925,1,0,0,1.3938,Pumice_rect,4,0,4,0,1,
626976d0dfd20d6832fc92aa,TCN,2024-06-20_16h29.45.990,LearnStrategy,2023.2.3,Win32,59.88023952,5,2,6,,,,,,,,2,09,,,,,,,,,,,2,1.361,1,,,,,,-0.149166667,-0.244166667,1,0,0,1.3607,Basalt_rect,5,0,5,0,1,
626976d0dfd20d6832fc92aa,TCN,2024-06-20_16h29.45.990,LearnStrategy,2023.2.3,Win32,59.88023952,5,2,7,,,,,,,,1,01,,,,,,,,,,,1,4.661,1,,,,,,-0.385,-0.25,1,0,0,4.6611,Andesite_rect,6,0,6,0,1,
626976d0dfd20d6832fc92aa,TCN,2024-06-20_16h29.45.990,LearnStrategy,2023.2.3,Win32,59.88023952,5,2,8,,,,,,,,7,02,,,,,,,,,,,7,1.26,1,,,,,,0.144166667,-0.385,1,0,0,1.2605,Peridotite_rect,7,0,7,0,1,
626976d0dfd20d6832fc92aa,TCN,2024-06-20_16h29.45.990,LearnStrategy,2023.2.3,Win32,59.88023952,5,2,9,,,,,,,,4,16,,,,,,,,,,,4,2.545,1,,,,,,0.355833333,-0.235833333,1,0,0,2.5449,Gabbro_rect,8,0,8,0,1,
626976d0dfd20d6832fc92aa,TCN,2024-06-20_16h29.45.990,LearnStrategy,2023.2.3,Win32,59.88023952,5,2,10,,,,,,,,6,15,,,,,,,,,,,6,1.461,1,,,,,,-0.1225,-0.413333333,1,0,0,1.4609,Pegmatite_rect,9,0,9,0,1,
626976d0dfd20d6832fc92aa,TCN,2024-06-20_16h29.45.990,LearnStrategy,2023.2.3,Win32,59.88023952,5,2,11,,,,,,,,5,12,,,,,,,,,,,5,1.044,1,,,,,,-0.349166667,-0.385,1,0,0,1.0443,Obsidian_rect,10,0,10,0,1,
626976d0dfd20d6832fc92aa,TCN,2024-06-20_16h29.45.990,LearnStrategy,2023.2.3,Win32,59.88023952,5,2,12,,,,,,,,5,04,,,,,,,,,,,5,1.044,1,,,,,,-0.354166667,-0.3925,1,0,0,1.044,Obsidian_rect,11,0,11,0,1,
626976d0dfd20d6832fc92aa,TCN,2024-06-20_16h29.45.990,LearnStrategy,2023.2.3,Win32,59.88023952,5,2,13,,,,,,,,3,02,,,,,,,,,,,3,4.128,1,,,,,,0.1175,-0.233333333,1,0,0,4.1282,Diorite_rect,12,0,12,0,1,
626976d0dfd20d6832fc92aa,TCN,2024-06-20_16h29.45.990,LearnStrategy,2023.2.3,Win32,59.88023952,5,2,14,,,,,,,,1,04,,,,,,,,,,,4,4.078,0,,,,,,0.373333333,-0.250833333,1,0,0,4.078,Gabbro_rect,13,0,13,0,1,
626976d0dfd20d6832fc92aa,TCN,2024-06-20_16h29.45.990,LearnStrategy,2023.2.3,Win32,59.88023952,5,2,15,,,,,,,,7,14,,,,,,,,,,,7,1.228,1,,,,,,0.1425,-0.408333333,1,0,0,1.2276,Peridotite_rect,14,0,14,0,1,
626976d0dfd20d6832fc92aa,TCN,2024-06-20_16h29.45.990,LearnStrategy,2023.2.3,Win32,59.88023952,5,2,16,,,,,,,,8,14,,,,,,,,,,,8,1.211,1,,,,,,0.428333333,-0.395,1,0,0,1.2109,Pumice_rect,15,0,15,0,1,
626976d0dfd20d6832fc92aa,TCN,2024-06-20_16h29.45.990,LearnStrategy,2023.2.3,Win32,59.88023952,6,1,1,0.030833333,-0.010833333,1,0,0,3.6323,rock_grid_rect_2,5,10,-1,-1,3.632,-0.37,-0.413333333,1,0,0,1.2612,Obsidian_rect,5,1.261,1,0,0,0,0,1,,,,,,,,,,,,,
626976d0dfd20d6832fc92aa,TCN,2024-06-20_16h29.45.990,LearnStrategy,2023.2.3,Win32,59.88023952,6,1,2,0.008333333,-0.005,1,0,0,1.0322,rock_grid_rect_2,7,08,-1,-1,1.032,0.120833333,-0.420833333,1,0,0,2.6948,Peridotite_rect,7,2.695,1,1,0,1,0,1,,,,,,,,,,,,,
626976d0dfd20d6832fc92aa,TCN,2024-06-20_16h29.45.990,LearnStrategy,2023.2.3,Win32,59.88023952,6,1,3,0.059166667,-0.011666667,1,0,0,1.2817,rock_grid_rect_2,3,06,-1,-1,1.282,0.073333333,-0.2375,1,0,0,2.4278,Diorite_rect,3,2.428,1,2,0,2,0,1,,,,,,,,,,,,,
626976d0dfd20d6832fc92aa,TCN,2024-06-20_16h29.45.990,LearnStrategy,2023.2.3,Win32,59.88023952,6,1,4,0.114166667,0.000833333,1,0,0,0.9152,rock_grid_rect_2,1,06,-1,-1,0.915,-0.331666667,-0.2675,1,0,0,3.6113,Andesite_rect,1,3.611,1,3,0,3,0,1,,,,,,,,,,,,,
626976d0dfd20d6832fc92aa,TCN,2024-06-20_16h29.45.990,LearnStrategy,2023.2.3,Win32,59.88023952,6,1,5,0.033333333,-0.008333333,1,0,0,1.0485,rock_grid_rect_2,2,10,-1,-1,1.049,-0.148333333,-0.249166667,1,0,0,1.8117,Basalt_rect,2,1.812,1,4,0,4,0,1,,,,,,,,,,,,,
626976d0dfd20d6832fc92aa,TCN,2024-06-20_16h29.45.990,LearnStrategy,2023.2.3,Win32,59.88023952,6,1,6,0.051666667,-0.0075,1,0,0,0.8483,rock_grid_rect_2,5,08,-1,-1,0.848,-0.3575,-0.393333333,1,0,0,1.278,Obsidian_rect,5,1.278,1,5,0,5,0,1,,,,,,,,,,,,,
626976d0dfd20d6832fc92aa,TCN,2024-06-20_16h29.45.990,LearnStrategy,2023.2.3,Win32,59.88023952,6,1,7,0.0325,0.004166667,1,0,0,1.2321,rock_grid_rect_2,8,16,-1,-1,1.232,0.374166667,-0.386666667,1,0,0,1.4116,Pumice_rect,8,1.412,1,6,0,6,0,1,,,,,,,,,,,,,
626976d0dfd20d6832fc92aa,TCN,2024-06-20_16h29.45.990,LearnStrategy,2023.2.3,Win32,59.88023952,6,1,8,0.005833333,-0.015,1,0,0,0.9153,rock_grid_rect_2,4,08,-1,-1,0.915,0.3725,-0.261666667,1,0,0,2.2282,Gabbro_rect,4,2.228,1,7,0,7,0,1,,,,,,,,,,,,,
626976d0dfd20d6832fc92aa,TCN,2024-06-20_16h29.45.990,LearnStrategy,2023.2.3,Win32,59.88023952,6,1,9,0.024166667,-0.010833333,1,0,0,0.8484,rock_grid_rect_2,3,09,-1,-1,0.848,0.088333333,-0.255833333,1,0,0,1.7279,Diorite_rect,3,1.728,1,8,0,8,0,1,,,,,,,,,,,,,
626976d0dfd20d6832fc92aa,TCN,2024-06-20_16h29.45.990,LearnStrategy,2023.2.3,Win32,59.88023952,6,1,10,0.068333333,-0.011666667,1,0,0,0.932,rock_grid_rect_2,6,03,-1,-1,0.932,-0.134166667,-0.395,1,0,0,1.7449,Pegmatite_rect,6,1.745,1,9,0,9,0,1,,,,,,,,,,,,,
626976d0dfd20d6832fc92aa,TCN,2024-06-20_16h29.45.990,LearnStrategy,2023.2.3,Win32,59.88023952,6,1,11,0.055833333,-0.018333333,1,0,0,0.7649,rock_grid_rect_2,8,03,-1,-1,0.765,0.363333333,-0.39,1,0,0,1.3118,Pumice_rect,8,1.312,1,10,0,10,0,1,,,,,,,,,,,,,
626976d0dfd20d6832fc92aa,TCN,2024-06-20_16h29.45.990,LearnStrategy,2023.2.3,Win32,59.88023952,6,1,12,0.0475,0.013333333,1,0,0,1.1322,rock_grid_rect_2,2,05,-1,-1,1.132,-0.1325,-0.23,1,0,0,1.7279,Basalt_rect,2,1.728,1,11,0,11,0,1,,,,,,,,,,,,,
626976d0dfd20d6832fc92aa,TCN,2024-06-20_16h29.45.990,LearnStrategy,2023.2.3,Win32,59.88023952,6,1,13,0.0525,-0.005833333,1,0,0,0.7654,rock_grid_rect_2,7,12,-1,-1,0.765,0.1175,-0.394166667,1,0,0,3.8113,Peridotite_rect,7,3.811,1,12,0,12,0,1,,,,,,,,,,,,,
626976d0dfd20d6832fc92aa,TCN,2024-06-20_16h29.45.990,LearnStrategy,2023.2.3,Win32,59.88023952,6,1,14,0.065,-0.010833333,1,0,0,0.9816,rock_grid_rect_2,1,02,-1,-1,0.982,-0.35,-0.241666667,1,0,0,3.3781,Andesite_rect,1,3.378,1,13,0,13,0,1,,,,,,,,,,,,,
626976d0dfd20d6832fc92aa,TCN,2024-06-20_16h29.45.990,LearnStrategy,2023.2.3,Win32,59.88023952,6,1,15,0.073333333,-0.019166667,1,0,0,0.7485,rock_grid_rect_2,4,13,-1,-1,0.749,0.373333333,-0.254166667,1,0,0,2.8448,Gabbro_rect,4,2.845,1,14,0,14,0,1,,,,,,,,,,,,,
626976d0dfd20d6832fc92aa,TCN,2024-06-20_16h29.45.990,LearnStrategy,2023.2.3,Win32,59.88023952,6,1,16,0.098333333,-0.015,1,0,0,0.7982,rock_grid_rect_2,6,05,-1,-1,0.798,0.1075,-0.231666667,1,0,0,4.8943,Diorite_rect,3,4.894,0,15,0,15,0,1,,,,,,,,,,,,,
626976d0dfd20d6832fc92aa,TCN,2024-06-20_16h29.45.990,LearnStrategy,2023.2.3,Win32,59.88023952,6,2,1,,,,,,,,3,12,,,,,,,,,,,1,4.011,0,,,,,,-0.316666667,-0.255,1,0,0,4.0106,Andesite_rect,0,0,0,0,1,
626976d0dfd20d6832fc92aa,TCN,2024-06-20_16h29.45.990,LearnStrategy,2023.2.3,Win32,59.88023952,6,2,2,,,,,,,,6,07,,,,,,,,,,,6,1.794,1,,,,,,-0.180833333,-0.396666667,1,0,0,1.7943,Pegmatite_rect,1,0,1,0,1,
626976d0dfd20d6832fc92aa,TCN,2024-06-20_16h29.45.990,LearnStrategy,2023.2.3,Win32,59.88023952,6,2,3,,,,,,,,5,14,,,,,,,,,,,5,1.644,1,,,,,,-0.389166667,-0.383333333,1,0,0,1.6445,Obsidian_rect,2,0,2,0,1,
626976d0dfd20d6832fc92aa,TCN,2024-06-20_16h29.45.990,LearnStrategy,2023.2.3,Win32,59.88023952,6,2,4,,,,,,,,3,08,,,,,,,,,,,3,1.728,1,,,,,,0.1525,-0.256666667,1,0,0,1.7278,Diorite_rect,3,0,3,0,1,
626976d0dfd20d6832fc92aa,TCN,2024-06-20_16h29.45.990,LearnStrategy,2023.2.3,Win32,59.88023952,6,2,5,,,,,,,,4,12,,,,,,,,,,,4,2.777,1,,,,,,0.369166667,-0.25,1,0,0,2.7774,Gabbro_rect,4,0,4,0,1,
626976d0dfd20d6832fc92aa,TCN,2024-06-20_16h29.45.990,LearnStrategy,2023.2.3,Win32,59.88023952,6,2,6,,,,,,,,6,08,,,,,,,,,,,6,2.23,1,,,,,,-0.094166667,-0.398333333,1,0,0,2.2301,Pegmatite_rect,5,0,5,0,1,
626976d0dfd20d6832fc92aa,TCN,2024-06-20_16h29.45.990,LearnStrategy,2023.2.3,Win32,59.88023952,6,2,7,,,,,,,,1,16,,,,,,,,,,,1,2.311,1,,,,,,-0.35,-0.254166667,1,0,0,2.3107,Andesite_rect,6,0,6,0,1,
626976d0dfd20d6832fc92aa,TCN,2024-06-20_16h29.45.990,LearnStrategy,2023.2.3,Win32,59.88023952,6,2,8,,,,,,,,2,12,,,,,,,,,,,8,7.843,0,,,,,,0.3975,-0.398333333,1,0,0,7.8434,Pumice_rect,7,0,7,0,1,
626976d0dfd20d6832fc92aa,TCN,2024-06-20_16h29.45.990,LearnStrategy,2023.2.3,Win32,59.88023952,6,2,9,,,,,,,,2,14,,,,,,,,,,,4,1.644,0,,,,,,0.37,-0.259166667,1,0,0,1.6436,Gabbro_rect,8,0,8,0,1,
626976d0dfd20d6832fc92aa,TCN,2024-06-20_16h29.45.990,LearnStrategy,2023.2.3,Win32,59.88023952,6,2,10,,,,,,,,7,05,,,,,,,,,,,7,1.761,1,,,,,,0.19,-0.403333333,1,0,0,1.7609,Peridotite_rect,9,0,9,0,1,
626976d0dfd20d6832fc92aa,TCN,2024-06-20_16h29.45.990,LearnStrategy,2023.2.3,Win32,59.88023952,6,2,11,,,,,,,,7,16,,,,,,,,,,,7,1.945,1,,,,,,0.133333333,-0.405833333,1,0,0,1.9445,Peridotite_rect,10,0,10,0,1,
626976d0dfd20d6832fc92aa,TCN,2024-06-20_16h29.45.990,LearnStrategy,2023.2.3,Win32,59.88023952,6,2,12,,,,,,,,8,09,,,,,,,,,,,8,1.077,1,,,,,,0.359166667,-0.405,1,0,0,1.0772,Pumice_rect,11,0,11,0,1,
626976d0dfd20d6832fc92aa,TCN,2024-06-20_16h29.45.990,LearnStrategy,2023.2.3,Win32,59.88023952,6,2,13,,,,,,,,8,06,,,,,,,,,,,8,0.845,1,,,,,,0.350833333,-0.4,1,0,0,0.8445,Pumice_rect,12,0,12,0,1,
626976d0dfd20d6832fc92aa,TCN,2024-06-20_16h29.45.990,LearnStrategy,2023.2.3,Win32,59.88023952,6,2,14,,,,,,,,5,11,,,,,,,,,,,5,1.345,1,,,,,,-0.4125,-0.400833333,1,0,0,1.3445,Obsidian_rect,13,0,13,0,1,
626976d0dfd20d6832fc92aa,TCN,2024-06-20_16h29.45.990,LearnStrategy,2023.2.3,Win32,59.88023952,6,2,15,,,,,,,,4,14,,,,,,,,,,,4,1.727,1,,,,,,0.341666667,-0.258333333,1,0,0,1.7274,Gabbro_rect,14,0,14,0,1,
626976d0dfd20d6832fc92aa,TCN,2024-06-20_16h29.45.990,LearnStrategy,2023.2.3,Win32,59.88023952,6,2,16,,,,,,,,1,11,,,,,,,,,,,6,11.246,0,,,,,,-0.1825,-0.405833333,1,0,0,11.2462,Pegmatite_rect,15,0,15,0,1,
626976d0dfd20d6832fc92aa,TCN,2024-06-20_16h29.45.990,LearnStrategy,2023.2.3,Win32,59.88023952,7,1,1,0.016666667,-0.005833333,1,0,0,34.3162,rock_grid_rect_2,4,11,-1,-1,34.316,0.409166667,-0.2575,1,0,0,6.7277,Gabbro_rect,4,6.728,1,0,0,0,0,1,,,,,,,,,,,,,
626976d0dfd20d6832fc92aa,TCN,2024-06-20_16h29.45.990,LearnStrategy,2023.2.3,Win32,59.88023952,7,1,2,0.024166667,-0.005,1,0,0,2.0647,rock_grid_rect_2,7,04,-1,-1,2.065,-0.099166667,-0.408333333,1,0,0,3.4448,Pegmatite_rect,6,3.445,0,1,0,1,0,1,,,,,,,,,,,,,
626976d0dfd20d6832fc92aa,TCN,2024-06-20_16h29.45.990,LearnStrategy,2023.2.3,Win32,59.88023952,7,1,3,0.0575,-0.016666667,1,0,0,2.0512,rock_grid_rect_2,1,10,-1,-1,2.051,-0.408333333,-0.230833333,1,0,0,5.4918,Andesite_rect,1,5.492,1,2,0,2,0,1,,,,,,,,,,,,,
626976d0dfd20d6832fc92aa,TCN,2024-06-20_16h29.45.990,LearnStrategy,2023.2.3,Win32,59.88023952,7,1,4,0.085833333,-0.014166667,1,0,0,1.1815,rock_grid_rect_2,8,16,-1,-1,1.182,0.378333333,-0.390833333,1,0,0,1.2447,Pumice_rect,8,1.245,1,3,0,3,0,1,,,,,,,,,,,,,
626976d0dfd20d6832fc92aa,TCN,2024-06-20_16h29.45.990,LearnStrategy,2023.2.3,Win32,59.88023952,7,1,5,0.0425,-0.0175,1,0,0,0.832,rock_grid_rect_2,2,05,-1,-1,0.832,-0.103333333,-0.235833333,1,0,0,1.1285,Basalt_rect,2,1.129,1,4,0,4,0,1,,,,,,,,,,,,,
626976d0dfd20d6832fc92aa,TCN,2024-06-20_16h29.45.990,LearnStrategy,2023.2.3,Win32,59.88023952,7,1,6,0.100833333,-0.024166667,1,0,0,0.6322,rock_grid_rect_2,8,15,-1,-1,0.632,0.358333333,-0.390833333,1,0,0,1.5107,Pumice_rect,8,1.511,1,5,0,5,0,1,,,,,,,,,,,,,
626976d0dfd20d6832fc92aa,TCN,2024-06-20_16h29.45.990,LearnStrategy,2023.2.3,Win32,59.88023952,7,1,7,0.065833333,-0.013333333,1,0,0,0.8813,rock_grid_rect_2,3,16,-1,-1,0.881,0.14,-0.241666667,1,0,0,1.6438,Diorite_rect,3,1.644,1,6,0,6,0,1,,,,,,,,,,,,,
626976d0dfd20d6832fc92aa,TCN,2024-06-20_16h29.45.990,LearnStrategy,2023.2.3,Win32,59.88023952,7,1,8,0.0925,-0.024166667,1,0,0,0.7648,rock_grid_rect_2,6,11,-1,-1,0.765,-0.150833333,-0.409166667,1,0,0,1.2945,Pegmatite_rect,6,1.294,1,7,0,7,0,1,,,,,,,,,,,,,
626976d0dfd20d6832fc92aa,TCN,2024-06-20_16h29.45.990,LearnStrategy,2023.2.3,Win32,59.88023952,7,1,9,0.056666667,-0.010833333,1,0,0,0.7485,rock_grid_rect_2,7,06,-1,-1,0.748,0.084166667,-0.38,1,0,0,2.028,Peridotite_rect,7,2.028,1,8,0,8,0,1,,,,,,,,,,,,,
626976d0dfd20d6832fc92aa,TCN,2024-06-20_16h29.45.990,LearnStrategy,2023.2.3,Win32,59.88023952,7,1,10,0.064166667,-0.025,1,0,0,0.7813,rock_grid_rect_2,4,08,-1,-1,0.781,0.380833333,-0.253333333,1,0,0,5.4279,Gabbro_rect,4,5.428,1,9,0,9,0,1,,,,,,,,,,,,,
626976d0dfd20d6832fc92aa,TCN,2024-06-20_16h29.45.990,LearnStrategy,2023.2.3,Win32,59.88023952,7,1,11,0.046666667,0.009166667,1,0,0,0.7815,rock_grid_rect_2,1,06,-1,-1,0.781,0.070833333,-0.236666667,1,0,0,3.2115,Diorite_rect,3,3.211,0,10,0,10,0,1,,,,,,,,,,,,,
626976d0dfd20d6832fc92aa,TCN,2024-06-20_16h29.45.990,LearnStrategy,2023.2.3,Win32,59.88023952,7,1,12,0.010833333,-0.013333333,1,0,0,0.7818,rock_grid_rect_2,2,11,-1,-1,0.782,0.395,-0.420833333,1,0,0,1.7105,Pumice_rect,8,1.71,0,11,0,11,0,1,,,,,,,,,,,,,
626976d0dfd20d6832fc92aa,TCN,2024-06-20_16h29.45.990,LearnStrategy,2023.2.3,Win32,59.88023952,7,1,13,0.025833333,-0.008333333,1,0,0,0.9816,rock_grid_rect_2,3,14,-1,-1,0.982,0.123333333,-0.25,1,0,0,1.3613,Diorite_rect,3,1.361,1,12,0,12,0,1,,,,,,,,,,,,,
626976d0dfd20d6832fc92aa,TCN,2024-06-20_16h29.45.990,LearnStrategy,2023.2.3,Win32,59.88023952,7,1,14,0.046666667,0.009166667,1,0,0,0.9488,rock_grid_rect_2,5,05,-1,-1,0.949,-0.3725,-0.404166667,1,0,0,1.3612,Obsidian_rect,5,1.361,1,13,0,13,0,1,,,,,,,,,,,,,
626976d0dfd20d6832fc92aa,TCN,2024-06-20_16h29.45.990,LearnStrategy,2023.2.3,Win32,59.88023952,7,1,15,0.0775,0.004166667,1,0,0,0.6818,rock_grid_rect_2,6,06,-1,-1,0.682,-0.175833333,-0.399166667,1,0,0,1.4947,Pegmatite_rect,6,1.495,1,14,0,14,0,1,,,,,,,,,,,,,
626976d0dfd20d6832fc92aa,TCN,2024-06-20_16h29.45.990,LearnStrategy,2023.2.3,Win32,59.88023952,7,1,16,0.060833333,-0.009166667,1,0,0,0.7489,rock_grid_rect_2,5,06,-1,-1,0.749,-0.35,-0.4025,1,0,0,1.2275,Obsidian_rect,5,1.228,1,15,0,15,0,1,,,,,,,,,,,,,
626976d0dfd20d6832fc92aa,TCN,2024-06-20_16h29.45.990,LearnStrategy,2023.2.3,Win32,59.88023952,7,2,1,,,,,,,,5,02,,,,,,,,,,,5,1.127,1,,,,,,-0.330833333,-0.396666667,1,0,0,1.1268,Obsidian_rect,0,0,0,0,1,
626976d0dfd20d6832fc92aa,TCN,2024-06-20_16h29.45.990,LearnStrategy,2023.2.3,Win32,59.88023952,7,2,2,,,,,,,,1,01,,,,,,,,,,,1,4.163,1,,,,,,-0.366666667,-0.261666667,1,0,0,4.1627,Andesite_rect,1,0,1,0,1,
626976d0dfd20d6832fc92aa,TCN,2024-06-20_16h29.45.990,LearnStrategy,2023.2.3,Win32,59.88023952,7,2,3,,,,,,,,7,13,,,,,,,,,,,7,1.161,1,,,,,,0.163333333,-0.4,1,0,0,1.1607,Peridotite_rect,2,0,2,0,1,
626976d0dfd20d6832fc92aa,TCN,2024-06-20_16h29.45.990,LearnStrategy,2023.2.3,Win32,59.88023952,7,2,4,,,,,,,,6,08,,,,,,,,,,,6,1.077,1,,,,,,-0.170833333,-0.3925,1,0,0,1.0773,Pegmatite_rect,3,0,3,0,1,
626976d0dfd20d6832fc92aa,TCN,2024-06-20_16h29.45.990,LearnStrategy,2023.2.3,Win32,59.88023952,7,2,5,,,,,,,,1,04,,,,,,,,,,,1,3.494,1,,,,,,-0.321666667,-0.26,1,0,0,3.4943,Andesite_rect,4,0,4,0,1,
626976d0dfd20d6832fc92aa,TCN,2024-06-20_16h29.45.990,LearnStrategy,2023.2.3,Win32,59.88023952,7,2,6,,,,,,,,2,12,,,,,,,,,,,4,4.178,0,,,,,,0.435833333,-0.249166667,1,0,0,4.1776,Gabbro_rect,5,0,5,0,1,
626976d0dfd20d6832fc92aa,TCN,2024-06-20_16h29.45.990,LearnStrategy,2023.2.3,Win32,59.88023952,7,2,7,,,,,,,,4,14,,,,,,,,,,,4,1.478,1,,,,,,0.4225,-0.24,1,0,0,1.4776,Gabbro_rect,6,0,6,0,1,
626976d0dfd20d6832fc92aa,TCN,2024-06-20_16h29.45.990,LearnStrategy,2023.2.3,Win32,59.88023952,7,2,8,,,,,,,,3,07,,,,,,,,,,,3,1.344,1,,,,,,0.1875,-0.243333333,1,0,0,1.3443,Diorite_rect,7,0,7,0,1,
626976d0dfd20d6832fc92aa,TCN,2024-06-20_16h29.45.990,LearnStrategy,2023.2.3,Win32,59.88023952,7,2,9,,,,,,,,4,12,,,,,,,,,,,2,1.895,0,,,,,,-0.066666667,-0.256666667,1,0,0,1.8945,Basalt_rect,8,0,8,0,1,
626976d0dfd20d6832fc92aa,TCN,2024-06-20_16h29.45.990,LearnStrategy,2023.2.3,Win32,59.88023952,7,2,10,,,,,,,,3,08,,,,,,,,,,,3,1.178,1,,,,,,0.124166667,-0.266666667,1,0,0,1.1775,Diorite_rect,9,0,9,0,1,
626976d0dfd20d6832fc92aa,TCN,2024-06-20_16h29.45.990,LearnStrategy,2023.2.3,Win32,59.88023952,7,2,11,,,,,,,,8,14,,,,,,,,,,,8,1.061,1,,,,,,0.441666667,-0.41,1,0,0,1.0609,Pumice_rect,10,0,10,0,1,
626976d0dfd20d6832fc92aa,TCN,2024-06-20_16h29.45.990,LearnStrategy,2023.2.3,Win32,59.88023952,7,2,12,,,,,,,,8,06,,,,,,,,,,,8,0.811,1,,,,,,0.425,-0.401666667,1,0,0,0.8108,Pumice_rect,11,0,11,0,1,
626976d0dfd20d6832fc92aa,TCN,2024-06-20_16h29.45.990,LearnStrategy,2023.2.3,Win32,59.88023952,7,2,13,,,,,,,,2,02,,,,,,,,,,,2,1.344,1,,,,,,-0.119166667,-0.25,1,0,0,1.3439,Basalt_rect,12,0,12,0,1,
626976d0dfd20d6832fc92aa,TCN,2024-06-20_16h29.45.990,LearnStrategy,2023.2.3,Win32,59.88023952,7,2,14,,,,,,,,7,15,,,,,,,,,,,7,1.128,1,,,,,,0.164166667,-0.419166667,1,0,0,1.1275,Peridotite_rect,13,0,13,0,1,
626976d0dfd20d6832fc92aa,TCN,2024-06-20_16h29.45.990,LearnStrategy,2023.2.3,Win32,59.88023952,7,2,15,,,,,,,,6,13,,,,,,,,,,,6,1.227,1,,,,,,-0.1025,-0.393333333,1,0,0,1.2273,Pegmatite_rect,14,0,14,0,1,
626976d0dfd20d6832fc92aa,TCN,2024-06-20_16h29.45.990,LearnStrategy,2023.2.3,Win32,59.88023952,7,2,16,,,,,,,,5,16,,,,,,,,,,,5,1.011,1,,,,,,-0.325833333,-0.390833333,1,0,0,1.0108,Obsidian_rect,15,0,15,0,1,
626976d0dfd20d6832fc92aa,TCN,2024-06-20_16h29.45.990,LearnStrategy,2023.2.3,Win32,59.88023952,8,1,1,0.059166667,0.004166667,1,0,0,1.6821,rock_grid_rect_2,3,06,-1,-1,1.682,0.1025,-0.228333333,1,0,0,3.1779,Diorite_rect,3,3.178,1,0,0,0,0,1,,,,,,,,,,,,,
626976d0dfd20d6832fc92aa,TCN,2024-06-20_16h29.45.990,LearnStrategy,2023.2.3,Win32,59.88023952,8,1,2,0.090833333,-0.0125,1,0,0,1.2311,rock_grid_rect_2,4,03,-1,-1,1.231,0.443333333,-0.2375,1,0,0,2.2448,Gabbro_rect,4,2.245,1,1,0,1,0,1,,,,,,,,,,,,,
626976d0dfd20d6832fc92aa,TCN,2024-06-20_16h29.45.990,LearnStrategy,2023.2.3,Win32,59.88023952,8,1,3,0.105833333,-0.015833333,1,0,0,0.8148,rock_grid_rect_2,7,07,-1,-1,0.815,0.12,-0.395,1,0,0,1.6611,Peridotite_rect,7,1.661,1,2,0,2,0,1,,,,,,,,,,,,,
626976d0dfd20d6832fc92aa,TCN,2024-06-20_16h29.45.990,LearnStrategy,2023.2.3,Win32,59.88023952,8,1,4,0.0875,0.018333333,1,0,0,0.6988,rock_grid_rect_2,8,03,-1,-1,0.699,0.3575,-0.395,1,0,0,1.2277,Pumice_rect,8,1.228,1,3,0,3,0,1,,,,,,,,,,,,,
626976d0dfd20d6832fc92aa,TCN,2024-06-20_16h29.45.990,LearnStrategy,2023.2.3,Win32,59.88023952,8,1,5,0.059166667,-0.006666667,1,0,0,0.682,rock_grid_rect_2,2,08,-1,-1,0.682,-0.14,-0.245,1,0,0,1.2947,Basalt_rect,2,1.295,1,4,0,4,0,1,,,,,,,,,,,,,
626976d0dfd20d6832fc92aa,TCN,2024-06-20_16h29.45.990,LearnStrategy,2023.2.3,Win32,59.88023952,8,1,6,0.091666667,-0.02,1,0,0,0.6987,rock_grid_rect_2,3,09,-1,-1,0.699,0.076666667,-0.245,1,0,0,1.3611,Diorite_rect,3,1.361,1,5,0,5,0,1,,,,,,,,,,,,,
626976d0dfd20d6832fc92aa,TCN,2024-06-20_16h29.45.990,LearnStrategy,2023.2.3,Win32,59.88023952,8,1,7,0.089166667,-0.013333333,1,0,0,1.2985,rock_grid_rect_2,6,10,-1,-1,1.298,-0.131666667,-0.411666667,1,0,0,1.4442,Pegmatite_rect,6,1.444,1,6,0,6,0,1,,,,,,,,,,,,,
626976d0dfd20d6832fc92aa,TCN,2024-06-20_16h29.45.990,LearnStrategy,2023.2.3,Win32,59.88023952,8,1,8,0.071666667,-0.004166667,1,0,0,0.6651,rock_grid_rect_2,2,16,-1,-1,0.665,-0.0975,-0.2525,1,0,0,1.561,Basalt_rect,2,1.561,1,7,0,7,0,1,,,,,,,,,,,,,
626976d0dfd20d6832fc92aa,TCN,2024-06-20_16h29.45.990,LearnStrategy,2023.2.3,Win32,59.88023952,8,1,9,0.075833333,-0.015,1,0,0,0.7658,rock_grid_rect_2,1,02,-1,-1,0.766,-0.3275,-0.235,1,0,0,2.6286,Andesite_rect,1,2.629,1,8,0,8,0,1,,,,,,,,,,,,,
626976d0dfd20d6832fc92aa,TCN,2024-06-20_16h29.45.990,LearnStrategy,2023.2.3,Win32,59.88023952,8,1,10,0.061666667,-0.0125,1,0,0,0.8313,rock_grid_rect_2,5,08,-1,-1,0.831,-0.345,-0.395,1,0,0,1.2117,Obsidian_rect,5,1.212,1,9,0,9,0,1,,,,,,,,,,,,,
626976d0dfd20d6832fc92aa,TCN,2024-06-20_16h29.45.990,LearnStrategy,2023.2.3,Win32,59.88023952,8,1,11,0.055,-0.003333333,1,0,0,0.9655,rock_grid_rect_2,1,14,-1,-1,0.966,-0.155,-0.411666667,1,0,0,3.5114,Pegmatite_rect,6,3.511,0,10,0,10,0,1,,,,,,,,,,,,,
626976d0dfd20d6832fc92aa,TCN,2024-06-20_16h29.45.990,LearnStrategy,2023.2.3,Win32,59.88023952,8,1,12,0.021666667,0.005833333,1,0,0,0.8813,rock_grid_rect_2,8,05,-1,-1,0.881,0.365,-0.380833333,1,0,0,1.1945,Pumice_rect,8,1.195,1,11,0,11,0,1,,,,,,,,,,,,,
626976d0dfd20d6832fc92aa,TCN,2024-06-20_16h29.45.990,LearnStrategy,2023.2.3,Win32,59.88023952,8,1,13,0.054166667,-0.0075,1,0,0,0.5988,rock_grid_rect_2,4,15,-1,-1,0.599,0.385,-0.260833333,1,0,0,3.5616,Gabbro_rect,4,3.562,1,12,0,12,0,1,,,,,,,,,,,,,
626976d0dfd20d6832fc92aa,TCN,2024-06-20_16h29.45.990,LearnStrategy,2023.2.3,Win32,59.88023952,8,1,14,0.031666667,-0.005833333,1,0,0,0.848,rock_grid_rect_2,5,10,-1,-1,0.848,-0.384166667,-0.4125,1,0,0,1.1777,Obsidian_rect,5,1.178,1,13,0,13,0,1,,,,,,,,,,,,,
626976d0dfd20d6832fc92aa,TCN,2024-06-20_16h29.45.990,LearnStrategy,2023.2.3,Win32,59.88023952,8,1,15,0.020833333,-0.008333333,1,0,0,0.9986,rock_grid_rect_2,7,08,-1,-1,0.999,0.106666667,-0.384166667,1,0,0,1.9114,Peridotite_rect,7,1.911,1,14,0,14,0,1,,,,,,,,,,,,,
626976d0dfd20d6832fc92aa,TCN,2024-06-20_16h29.45.990,LearnStrategy,2023.2.3,Win32,59.88023952,8,1,16,0.099166667,-0.013333333,1,0,0,0.7649,rock_grid_rect_2,6,05,-1,-1,0.765,-0.119166667,-0.379166667,1,0,0,1.911,Pegmatite_rect,6,1.911,1,15,0,15,0,1,,,,,,,,,,,,,
626976d0dfd20d6832fc92aa,TCN,2024-06-20_16h29.45.990,LearnStrategy,2023.2.3,Win32,59.88023952,8,2,1,,,,,,,,8,08,,,,,,,,,,,8,1.177,1,,,,,,0.363333333,-0.388333333,1,0,0,1.1773,Pumice_rect,0,0,0,0,1,
626976d0dfd20d6832fc92aa,TCN,2024-06-20_16h29.45.990,LearnStrategy,2023.2.3,Win32,59.88023952,8,2,2,,,,,,,,4,01,,,,,,,,,,,4,3.594,1,,,,,,0.395,-0.254166667,1,0,0,3.5938,Gabbro_rect,1,0,1,0,1,
626976d0dfd20d6832fc92aa,TCN,2024-06-20_16h29.45.990,LearnStrategy,2023.2.3,Win32,59.88023952,8,2,3,,,,,,,,5,04,,,,,,,,,,,5,1.244,1,,,,,,-0.358333333,-0.389166667,1,0,0,1.2443,Obsidian_rect,2,0,2,0,1,
626976d0dfd20d6832fc92aa,TCN,2024-06-20_16h29.45.990,LearnStrategy,2023.2.3,Win32,59.88023952,8,2,4,,,,,,,,5,14,,,,,,,,,,,5,1.011,1,,,,,,-0.351666667,-0.410833333,1,0,0,1.0108,Obsidian_rect,3,0,3,0,1,
626976d0dfd20d6832fc92aa,TCN,2024-06-20_16h29.45.990,LearnStrategy,2023.2.3,Win32,59.88023952,8,2,5,,,,,,,,2,14,,,,,,,,,,,4,2.344,0,,,,,,0.349166667,-0.246666667,1,0,0,2.3442,Gabbro_rect,4,0,4,0,1,
626976d0dfd20d6832fc92aa,TCN,2024-06-20_16h29.45.990,LearnStrategy,2023.2.3,Win32,59.88023952,8,2,6,,,,,,,,2,01,,,,,,,,,,,2,1.127,1,,,,,,-0.151666667,-0.245833333,1,0,0,1.1272,Basalt_rect,5,0,5,0,1,
626976d0dfd20d6832fc92aa,TCN,2024-06-20_16h29.45.990,LearnStrategy,2023.2.3,Win32,59.88023952,8,2,7,,,,,,,,1,11,,,,,,,,,,,1,4.761,1,,,,,,-0.350833333,-0.256666667,1,0,0,4.7611,Andesite_rect,6,0,6,0,1,
626976d0dfd20d6832fc92aa,TCN,2024-06-20_16h29.45.990,LearnStrategy,2023.2.3,Win32,59.88023952,8,2,8,,,,,,,,7,16,,,,,,,,,,,7,1.361,1,,,,,,0.166666667,-0.399166667,1,0,0,1.3606,Peridotite_rect,7,0,7,0,1,
626976d0dfd20d6832fc92aa,TCN,2024-06-20_16h29.45.990,LearnStrategy,2023.2.3,Win32,59.88023952,8,2,9,,,,,,,,6,15,,,,,,,,,,,6,1.078,1,,,,,,-0.143333333,-0.406666667,1,0,0,1.0777,Pegmatite_rect,8,0,8,0,1,
626976d0dfd20d6832fc92aa,TCN,2024-06-20_16h29.45.990,LearnStrategy,2023.2.3,Win32,59.88023952,8,2,10,,,,,,,,3,10,,,,,,,,,,,3,3.277,1,,,,,,0.084166667,-0.253333333,1,0,0,3.2775,Diorite_rect,9,0,9,0,1,
626976d0dfd20d6832fc92aa,TCN,2024-06-20_16h29.45.990,LearnStrategy,2023.2.3,Win32,59.88023952,8,2,11,,,,,,,,8,09,,,,,,,,,,,8,1.011,1,,,,,,0.3925,-0.3825,1,0,0,1.011,Pumice_rect,10,0,10,0,1,
626976d0dfd20d6832fc92aa,TCN,2024-06-20_16h29.45.990,LearnStrategy,2023.2.3,Win32,59.88023952,8,2,12,,,,,,,,3,12,,,,,,,,,,,3,1.561,1,,,,,,0.099166667,-0.2475,1,0,0,1.5607,Diorite_rect,11,0,11,0,1,
626976d0dfd20d6832fc92aa,TCN,2024-06-20_16h29.45.990,LearnStrategy,2023.2.3,Win32,59.88023952,8,2,13,,,,,,,,6,07,,,,,,,,,,,6,1.194,1,,,,,,-0.098333333,-0.419166667,1,0,0,1.1941,Pegmatite_rect,12,0,12,0,1,
626976d0dfd20d6832fc92aa,TCN,2024-06-20_16h29.45.990,LearnStrategy,2023.2.3,Win32,59.88023952,8,2,14,,,,,,,,4,10,,,,,,,,,,,4,3.778,1,,,,,,0.401666667,-0.241666667,1,0,0,3.7779,Gabbro_rect,13,0,13,0,1,
626976d0dfd20d6832fc92aa,TCN,2024-06-20_16h29.45.990,LearnStrategy,2023.2.3,Win32,59.88023952,8,2,15,,,,,,,,7,05,,,,,,,,,,,7,1.277,1,,,,,,0.16,-0.394166667,1,0,0,1.2767,Peridotite_rect,14,0,14,0,1,
626976d0dfd20d6832fc92aa,TCN,2024-06-20_16h29.45.990,LearnStrategy,2023.2.3,Win32,59.88023952,8,2,16,,,,,,,,1,09,,,,,,,,,,,1,4.844,1,,,,,,-0.351666667,-0.2325,1,0,0,4.844,Andesite_rect,15,0,15,0,1,
626976d0dfd20d6832fc92aa,TCN,2024-06-20_16h29.45.990,LearnStrategy,2023.2.3,Win32,59.88023952,9,1,1,0.023333333,-0.0075,1,0,0,0.9488,rock_grid_rect_2,7,12,-1,-1,0.949,0.108333333,-0.389166667,1,0,0,1.4789,Peridotite_rect,7,1.479,1,0,0,0,0,1,,,,,,,,,,,,,
626976d0dfd20d6832fc92aa,TCN,2024-06-20_16h29.45.990,LearnStrategy,2023.2.3,Win32,59.88023952,9,1,2,0.005833333,-0.0225,1,0,0,0.7653,rock_grid_rect_2,1,07,-1,-1,0.765,-0.363333333,-0.239166667,1,0,0,2.6945,Andesite_rect,1,2.695,1,1,0,1,0,1,,,,,,,,,,,,,
626976d0dfd20d6832fc92aa,TCN,2024-06-20_16h29.45.990,LearnStrategy,2023.2.3,Win32,59.88023952,9,1,3,0.025833333,-0.004166667,1,0,0,0.8316,rock_grid_rect_2,8,04,-1,-1,0.832,0.389166667,-0.405833333,1,0,0,1.3446,Pumice_rect,8,1.345,1,2,0,2,0,1,,,,,,,,,,,,,
626976d0dfd20d6832fc92aa,TCN,2024-06-20_16h29.45.990,LearnStrategy,2023.2.3,Win32,59.88023952,9,1,4,0.015833333,-0.0225,1,0,0,0.9486,rock_grid_rect_2,3,15,-1,-1,0.949,-0.3425,-0.251666667,1,0,0,3.2277,Andesite_rect,1,3.228,0,3,0,3,0,1,,,,,,,,,,,,,
626976d0dfd20d6832fc92aa,TCN,2024-06-20_16h29.45.990,LearnStrategy,2023.2.3,Win32,59.88023952,9,1,5,0.133333333,0.015833333,1,0,0,0.815,rock_grid_rect_2,3,13,-1,-1,0.815,0.116666667,-0.2475,1,0,0,1.4445,Diorite_rect,3,1.445,1,4,0,4,0,1,,,,,,,,,,,,,
626976d0dfd20d6832fc92aa,TCN,2024-06-20_16h29.45.990,LearnStrategy,2023.2.3,Win32,59.88023952,9,1,6,0.069166667,-0.020833333,1,0,0,0.8151,rock_grid_rect_2,2,04,-1,-1,0.815,-0.114166667,-0.261666667,1,0,0,1.0936,Basalt_rect,2,1.094,1,5,0,5,0,1,,,,,,,,,,,,,
626976d0dfd20d6832fc92aa,TCN,2024-06-20_16h29.45.990,LearnStrategy,2023.2.3,Win32,59.88023952,9,1,7,0.048333333,-0.021666667,1,0,0,0.7491,rock_grid_rect_2,1,05,-1,-1,0.749,0.185,-0.2625,1,0,0,4.0944,Diorite_rect,3,4.094,0,6,0,6,0,1,,,,,,,,,,,,,
626976d0dfd20d6832fc92aa,TCN,2024-06-20_16h29.45.990,LearnStrategy,2023.2.3,Win32,59.88023952,9,1,8,0.043333333,-0.0125,1,0,0,0.8321,rock_grid_rect_2,5,09,-1,-1,0.832,-0.330833333,-0.385,1,0,0,1.0943,Obsidian_rect,5,1.094,1,7,0,7,0,1,,,,,,,,,,,,,
626976d0dfd20d6832fc92aa,TCN,2024-06-20_16h29.45.990,LearnStrategy,2023.2.3,Win32,59.88023952,9,1,9,0.056666667,0.001666667,1,0,0,0.7153,rock_grid_rect_2,4,05,-1,-1,0.715,0.126666667,-0.386666667,1,0,0,2.8443,Peridotite_rect,7,2.844,0,8,0,8,0,1,,,,,,,,,,,,,
626976d0dfd20d6832fc92aa,TCN,2024-06-20_16h29.45.990,LearnStrategy,2023.2.3,Win32,59.88023952,9,1,10,0.068333333,-0.019166667,1,0,0,0.6979,rock_grid_rect_2,7,10,-1,-1,0.698,0.084166667,-0.398333333,1,0,0,1.2781,Peridotite_rect,7,1.278,1,9,0,9,0,1,,,,,,,,,,,,,
626976d0dfd20d6832fc92aa,TCN,2024-06-20_16h29.45.990,LearnStrategy,2023.2.3,Win32,59.88023952,9,1,11,0.073333333,-0.009166667,1,0,0,0.6987,rock_grid_rect_2,6,16,-1,-1,0.699,-0.169166667,-0.408333333,1,0,0,1.1943,Pegmatite_rect,6,1.194,1,10,0,10,0,1,,,,,,,,,,,,,
626976d0dfd20d6832fc92aa,TCN,2024-06-20_16h29.45.990,LearnStrategy,2023.2.3,Win32,59.88023952,9,1,12,0.066666667,-0.0075,1,0,0,0.6656,rock_grid_rect_2,4,13,-1,-1,0.666,0.398333333,-0.229166667,1,0,0,1.3444,Gabbro_rect,4,1.344,1,11,0,11,0,1,,,,,,,,,,,,,
626976d0dfd20d6832fc92aa,TCN,2024-06-20_16h29.45.990,LearnStrategy,2023.2.3,Win32,59.88023952,9,1,13,0.085,-0.014166667,1,0,0,0.8159,rock_grid_rect_2,5,07,-1,-1,0.816,-0.343333333,-0.401666667,1,0,0,1.2112,Obsidian_rect,5,1.211,1,12,0,12,0,1,,,,,,,,,,,,,
626976d0dfd20d6832fc92aa,TCN,2024-06-20_16h29.45.990,LearnStrategy,2023.2.3,Win32,59.88023952,9,1,14,0.065833333,-0.006666667,1,0,0,1.0651,rock_grid_rect_2,6,03,-1,-1,1.065,-0.1725,-0.3975,1,0,0,1.2447,Pegmatite_rect,6,1.245,1,13,0,13,0,1,,,,,,,,,,,,,
626976d0dfd20d6832fc92aa,TCN,2024-06-20_16h29.45.990,LearnStrategy,2023.2.3,Win32,59.88023952,9,1,15,-0.006666667,-0.016666667,1,0,0,0.7656,rock_grid_rect_2,8,10,-1,-1,0.766,0.3475,-0.401666667,1,0,0,2.0945,Pumice_rect,8,2.095,1,14,0,14,0,1,,,,,,,,,,,,,
626976d0dfd20d6832fc92aa,TCN,2024-06-20_16h29.45.990,LearnStrategy,2023.2.3,Win32,59.88023952,9,1,16,0.038333333,-0.01,1,0,0,0.8482,rock_grid_rect_2,2,10,-1,-1,0.848,-0.18,-0.2675,1,0,0,1.1279,Basalt_rect,2,1.128,1,15,0,15,0,1,,,,,,,,,,,,,
626976d0dfd20d6832fc92aa,TCN,2024-06-20_16h29.45.990,LearnStrategy,2023.2.3,Win32,59.88023952,9,2,1,,,,,,,,4,09,,,,,,,,,,,2,2.861,0,,,,,,-0.1225,-0.259166667,1,0,0,2.8605,Basalt_rect,0,0,0,0,1,
626976d0dfd20d6832fc92aa,TCN,2024-06-20_16h29.45.990,LearnStrategy,2023.2.3,Win32,59.88023952,9,2,2,,,,,,,,6,12,,,,,,,,,,,6,1.577,1,,,,,,-0.144166667,-0.395,1,0,0,1.577,Pegmatite_rect,1,0,1,0,1,
626976d0dfd20d6832fc92aa,TCN,2024-06-20_16h29.45.990,LearnStrategy,2023.2.3,Win32,59.88023952,9,2,3,,,,,,,,1,03,,,,,,,,,,,1,1.377,1,,,,,,-0.3625,-0.246666667,1,0,0,1.3767,Andesite_rect,2,0,2,0,1,
626976d0dfd20d6832fc92aa,TCN,2024-06-20_16h29.45.990,LearnStrategy,2023.2.3,Win32,59.88023952,9,2,4,,,,,,,,2,06,,,,,,,,,,,2,2.261,1,,,,,,-0.130833333,-0.248333333,1,0,0,2.2609,Basalt_rect,3,0,3,0,1,
626976d0dfd20d6832fc92aa,TCN,2024-06-20_16h29.45.990,LearnStrategy,2023.2.3,Win32,59.88023952,9,2,5,,,,,,,,3,11,,,,,,,,,,,3,1.893,1,,,,,,0.046666667,-0.238333333,1,0,0,1.8931,Diorite_rect,4,0,4,0,1,
626976d0dfd20d6832fc92aa,TCN,2024-06-20_16h29.45.990,LearnStrategy,2023.2.3,Win32,59.88023952,9,2,6,,,,,,,,5,11,,,,,,,,,,,5,1.077,1,,,,,,-0.409166667,-0.3875,1,0,0,1.0772,Obsidian_rect,5,0,5,0,1,
626976d0dfd20d6832fc92aa,TCN,2024-06-20_16h29.45.990,LearnStrategy,2023.2.3,Win32,59.88023952,9,2,7,,,,,,,,1,16,,,,,,,,,,,1,2.044,1,,,,,,-0.361666667,-0.25,1,0,0,2.0443,Andesite_rect,6,0,6,0,1,
626976d0dfd20d6832fc92aa,TCN,2024-06-20_16h29.45.990,LearnStrategy,2023.2.3,Win32,59.88023952,9,2,8,,,,,,,,7,14,,,,,,,,,,,7,1.178,1,,,,,,0.105833333,-0.4025,1,0,0,1.1776,Peridotite_rect,7,0,7,0,1,
626976d0dfd20d6832fc92aa,TCN,2024-06-20_16h29.45.990,LearnStrategy,2023.2.3,Win32,59.88023952,9,2,9,,,,,,,,8,02,,,,,,,,,,,8,1.061,1,,,,,,0.3125,-0.398333333,1,0,0,1.0608,Pumice_rect,8,0,8,0,1,
626976d0dfd20d6832fc92aa,TCN,2024-06-20_16h29.45.990,LearnStrategy,2023.2.3,Win32,59.88023952,9,2,10,,,,,,,,7,02,,,,,,,,,,,7,1.044,1,,,,,,0.116666667,-0.409166667,1,0,0,1.0444,Peridotite_rect,9,0,9,0,1,
626976d0dfd20d6832fc92aa,TCN,2024-06-20_16h29.45.990,LearnStrategy,2023.2.3,Win32,59.88023952,9,2,11,,,,,,,,2,09,,,,,,,,,,,2,0.978,1,,,,,,-0.096666667,-0.251666667,1,0,0,0.9778,Basalt_rect,10,0,10,0,1,
626976d0dfd20d6832fc92aa,TCN,2024-06-20_16h29.45.990,LearnStrategy,2023.2.3,Win32,59.88023952,9,2,12,,,,,,,,5,12,,,,,,,,,,,5,1.644,1,,,,,,-0.371666667,-0.401666667,1,0,0,1.6442,Obsidian_rect,11,0,11,0,1,
626976d0dfd20d6832fc92aa,TCN,2024-06-20_16h29.45.990,LearnStrategy,2023.2.3,Win32,59.88023952,9,2,13,,,,,,,,4,16,,,,,,,,,,,2,2.561,0,,,,,,-0.108333333,-0.2625,1,0,0,2.5611,Basalt_rect,12,0,12,0,1,
626976d0dfd20d6832fc92aa,TCN,2024-06-20_16h29.45.990,LearnStrategy,2023.2.3,Win32,59.88023952,9,2,14,,,,,,,,8,13,,,,,,,,,,,8,1.144,1,,,,,,0.416666667,-0.405833333,1,0,0,1.1443,Pumice_rect,13,0,13,0,1,
626976d0dfd20d6832fc92aa,TCN,2024-06-20_16h29.45.990,LearnStrategy,2023.2.3,Win32,59.88023952,9,2,15,,,,,,,,6,09,,,,,,,,,,,6,1.211,1,,,,,,-0.17,-0.421666667,1,0,0,1.211,Pegmatite_rect,14,0,14,0,1,
626976d0dfd20d6832fc92aa,TCN,2024-06-20_16h29.45.990,LearnStrategy,2023.2.3,Win32,59.88023952,9,2,16,,,,,,,,3,02,,,,,,,,,,,3,1.445,1,,,,,,0.14,-0.23,1,0,0,1.4445,Diorite_rect,15,0,15,0,1,
626976d0dfd20d6832fc92aa,TCN,2024-06-20_16h29.45.990,LearnStrategy,2023.2.3,Win32,59.88023952,,,,,,,,,,,,,,,,,,,,,,,,,,,,,,,,,,,,,,,,,,,1
626976d0dfd20d6832fc92aa,TCN,2024-06-20_16h29.45.990,LearnStrategy,2023.2.3,Win32,59.88023952,,,,,,,,,,,,,,,,,,,,,,,,,,,,,,,,,,,,,,,,,,,
626976d0dfd20d6832fc92aa,TCN,2024-06-20_16h29.45.990,LearnStrategy,2023.2.3,Win32,59.88023952,,,,,,,,,,,1,14,1,1,,,,,,,,,,,,,,,,,,,,,,,,,,,,,
626976d0dfd20d6832fc92aa,TCN,2024-06-20_16h29.45.990,LearnStrategy,2023.2.3,Win32,59.88023952,,,,,,,,,,,2,04,1,2,,,,,,,,,,,,,,,,,,,,,,,,,,,,,
626976d0dfd20d6832fc92aa,TCN,2024-06-20_16h29.45.990,LearnStrategy,2023.2.3,Win32,59.88023952,,,,,,,,,,,5,08,1,3,,,,,,,,,,,,,,,,,,,,,,,,,,,,,
626976d0dfd20d6832fc92aa,TCN,2024-06-20_16h29.45.990,LearnStrategy,2023.2.3,Win32,59.88023952,,,,,,,,,,,7,12,1,4,,,,,,,,,,,,,,,,,,,,,,,,,,,,,
626976d0dfd20d6832fc92aa,TCN,2024-06-20_16h29.45.990,LearnStrategy,2023.2.3,Win32,59.88023952,,,,,,,,,,,5,06,1,5,,,,,,,,,,,,,,,,,,,,,,,,,,,,,
626976d0dfd20d6832fc92aa,TCN,2024-06-20_16h29.45.990,LearnStrategy,2023.2.3,Win32,59.88023952,,,,,,,,,,,1,07,1,6,,,,,,,,,,,,,,,,,,,,,,,,,,,,,
626976d0dfd20d6832fc92aa,TCN,2024-06-20_16h29.45.990,LearnStrategy,2023.2.3,Win32,59.88023952,,,,,,,,,,,6,06,1,7,,,,,,,,,,,,,,,,,,,,,,,,,,,,,
626976d0dfd20d6832fc92aa,TCN,2024-06-20_16h29.45.990,LearnStrategy,2023.2.3,Win32,59.88023952,,,,,,,,,,,3,06,1,8,,,,,,,,,,,,,,,,,,,,,,,,,,,,,
626976d0dfd20d6832fc92aa,TCN,2024-06-20_16h29.45.990,LearnStrategy,2023.2.3,Win32,59.88023952,,,,,,,,,,,7,06,2,1,,,,,,,,,,,,,,,,,,,,,,,,,,,,,
626976d0dfd20d6832fc92aa,TCN,2024-06-20_16h29.45.990,LearnStrategy,2023.2.3,Win32,59.88023952,,,,,,,,,,,8,10,2,2,,,,,,,,,,,,,,,,,,,,,,,,,,,,,
626976d0dfd20d6832fc92aa,TCN,2024-06-20_16h29.45.990,LearnStrategy,2023.2.3,Win32,59.88023952,,,,,,,,,,,8,05,2,3,,,,,,,,,,,,,,,,,,,,,,,,,,,,,
626976d0dfd20d6832fc92aa,TCN,2024-06-20_16h29.45.990,LearnStrategy,2023.2.3,Win32,59.88023952,,,,,,,,,,,2,11,2,4,,,,,,,,,,,,,,,,,,,,,,,,,,,,,
626976d0dfd20d6832fc92aa,TCN,2024-06-20_16h29.45.990,LearnStrategy,2023.2.3,Win32,59.88023952,,,,,,,,,,,8,16,2,5,,,,,,,,,,,,,,,,,,,,,,,,,,,,,
626976d0dfd20d6832fc92aa,TCN,2024-06-20_16h29.45.990,LearnStrategy,2023.2.3,Win32,59.88023952,,,,,,,,,,,2,10,2,6,,,,,,,,,,,,,,,,,,,,,,,,,,,,,
626976d0dfd20d6832fc92aa,TCN,2024-06-20_16h29.45.990,LearnStrategy,2023.2.3,Win32,59.88023952,,,,,,,,,,,2,16,2,7,,,,,,,,,,,,,,,,,,,,,,,,,,,,,
626976d0dfd20d6832fc92aa,TCN,2024-06-20_16h29.45.990,LearnStrategy,2023.2.3,Win32,59.88023952,,,,,,,,,,,6,03,2,8,,,,,,,,,,,,,,,,,,,,,,,,,,,,,
626976d0dfd20d6832fc92aa,TCN,2024-06-20_16h29.45.990,LearnStrategy,2023.2.3,Win32,59.88023952,,,,,,,,,,,5,10,3,1,,,,,,,,,,,,,,,,,,,,,,,,,,,,,
626976d0dfd20d6832fc92aa,TCN,2024-06-20_16h29.45.990,LearnStrategy,2023.2.3,Win32,59.88023952,,,,,,,,,,,7,04,3,2,,,,,,,,,,,,,,,,,,,,,,,,,,,,,
626976d0dfd20d6832fc92aa,TCN,2024-06-20_16h29.45.990,LearnStrategy,2023.2.3,Win32,59.88023952,,,,,,,,,,,4,03,3,3,,,,,,,,,,,,,,,,,,,,,,,,,,,,,
626976d0dfd20d6832fc92aa,TCN,2024-06-20_16h29.45.990,LearnStrategy,2023.2.3,Win32,59.88023952,,,,,,,,,,,3,13,3,4,,,,,,,,,,,,,,,,,,,,,,,,,,,,,
626976d0dfd20d6832fc92aa,TCN,2024-06-20_16h29.45.990,LearnStrategy,2023.2.3,Win32,59.88023952,,,,,,,,,,,4,11,3,5,,,,,,,,,,,,,,,,,,,,,,,,,,,,,
626976d0dfd20d6832fc92aa,TCN,2024-06-20_16h29.45.990,LearnStrategy,2023.2.3,Win32,59.88023952,,,,,,,,,,,5,05,3,6,,,,,,,,,,,,,,,,,,,,,,,,,,,,,
626976d0dfd20d6832fc92aa,TCN,2024-06-20_16h29.45.990,LearnStrategy,2023.2.3,Win32,59.88023952,,,,,,,,,,,4,13,3,7,,,,,,,,,,,,,,,,,,,,,,,,,,,,,
626976d0dfd20d6832fc92aa,TCN,2024-06-20_16h29.45.990,LearnStrategy,2023.2.3,Win32,59.88023952,,,,,,,,,,,8,04,3,8,,,,,,,,,,,,,,,,,,,,,,,,,,,,,
626976d0dfd20d6832fc92aa,TCN,2024-06-20_16h29.45.990,LearnStrategy,2023.2.3,Win32,59.88023952,,,,,,,,,,,6,11,4,1,,,,,,,,,,,,,,,,,,,,,,,,,,,,,
626976d0dfd20d6832fc92aa,TCN,2024-06-20_16h29.45.990,LearnStrategy,2023.2.3,Win32,59.88023952,,,,,,,,,,,6,10,4,2,,,,,,,,,,,,,,,,,,,,,,,,,,,,,
626976d0dfd20d6832fc92aa,TCN,2024-06-20_16h29.45.990,LearnStrategy,2023.2.3,Win32,59.88023952,,,,,,,,,,,1,02,4,3,,,,,,,,,,,,,,,,,,,,,,,,,,,,,
626976d0dfd20d6832fc92aa,TCN,2024-06-20_16h29.45.990,LearnStrategy,2023.2.3,Win32,59.88023952,,,,,,,,,,,6,05,4,4,,,,,,,,,,,,,,,,,,,,,,,,,,,,,
626976d0dfd20d6832fc92aa,TCN,2024-06-20_16h29.45.990,LearnStrategy,2023.2.3,Win32,59.88023952,,,,,,,,,,,2,05,4,5,,,,,,,,,,,,,,,,,,,,,,,,,,,,,
626976d0dfd20d6832fc92aa,TCN,2024-06-20_16h29.45.990,LearnStrategy,2023.2.3,Win32,59.88023952,,,,,,,,,,,7,08,4,6,,,,,,,,,,,,,,,,,,,,,,,,,,,,,
626976d0dfd20d6832fc92aa,TCN,2024-06-20_16h29.45.990,LearnStrategy,2023.2.3,Win32,59.88023952,,,,,,,,,,,3,15,4,7,,,,,,,,,,,,,,,,,,,,,,,,,,,,,
626976d0dfd20d6832fc92aa,TCN,2024-06-20_16h29.45.990,LearnStrategy,2023.2.3,Win32,59.88023952,,,,,,,,,,,2,08,4,8,,,,,,,,,,,,,,,,,,,,,,,,,,,,,
626976d0dfd20d6832fc92aa,TCN,2024-06-20_16h29.45.990,LearnStrategy,2023.2.3,Win32,59.88023952,,,,,,,,,,,3,09,5,1,,,,,,,,,,,,,,,,,,,,,,,,,,,,,
626976d0dfd20d6832fc92aa,TCN,2024-06-20_16h29.45.990,LearnStrategy,2023.2.3,Win32,59.88023952,,,,,,,,,,,3,14,5,2,,,,,,,,,,,,,,,,,,,,,,,,,,,,,
626976d0dfd20d6832fc92aa,TCN,2024-06-20_16h29.45.990,LearnStrategy,2023.2.3,Win32,59.88023952,,,,,,,,,,,7,10,5,3,,,,,,,,,,,,,,,,,,,,,,,,,,,,,
626976d0dfd20d6832fc92aa,TCN,2024-06-20_16h29.45.990,LearnStrategy,2023.2.3,Win32,59.88023952,,,,,,,,,,,4,15,5,4,,,,,,,,,,,,,,,,,,,,,,,,,,,,,
626976d0dfd20d6832fc92aa,TCN,2024-06-20_16h29.45.990,LearnStrategy,2023.2.3,Win32,59.88023952,,,,,,,,,,,8,15,5,5,,,,,,,,,,,,,,,,,,,,,,,,,,,,,
626976d0dfd20d6832fc92aa,TCN,2024-06-20_16h29.45.990,LearnStrategy,2023.2.3,Win32,59.88023952,,,,,,,,,,,1,10,5,6,,,,,,,,,,,,,,,,,,,,,,,,,,,,,
626976d0dfd20d6832fc92aa,TCN,2024-06-20_16h29.45.990,LearnStrategy,2023.2.3,Win32,59.88023952,,,,,,,,,,,5,07,5,7,,,,,,,,,,,,,,,,,,,,,,,,,,,,,
626976d0dfd20d6832fc92aa,TCN,2024-06-20_16h29.45.990,LearnStrategy,2023.2.3,Win32,59.88023952,,,,,,,,,,,1,06,5,8,,,,,,,,,,,,,,,,,,,,,,,,,,,,,
626976d0dfd20d6832fc92aa,TCN,2024-06-20_16h29.45.990,LearnStrategy,2023.2.3,Win32,59.88023952,,,,,,,,,,,1,05,6,1,,,,,,,,,,,,,,,,,,,,,,,,,,,,,
626976d0dfd20d6832fc92aa,TCN,2024-06-20_16h29.45.990,LearnStrategy,2023.2.3,Win32,59.88023952,,,,,,,,,,,8,03,6,2,,,,,,,,,,,,,,,,,,,,,,,,,,,,,
626976d0dfd20d6832fc92aa,TCN,2024-06-20_16h29.45.990,LearnStrategy,2023.2.3,Win32,59.88023952,,,,,,,,,,,6,16,6,3,,,,,,,,,,,,,,,,,,,,,,,,,,,,,
626976d0dfd20d6832fc92aa,TCN,2024-06-20_16h29.45.990,LearnStrategy,2023.2.3,Win32,59.88023952,,,,,,,,,,,3,16,6,4,,,,,,,,,,,,,,,,,,,,,,,,,,,,,
626976d0dfd20d6832fc92aa,TCN,2024-06-20_16h29.45.990,LearnStrategy,2023.2.3,Win32,59.88023952,,,,,,,,,,,4,08,6,5,,,,,,,,,,,,,,,,,,,,,,,,,,,,,
626976d0dfd20d6832fc92aa,TCN,2024-06-20_16h29.45.990,LearnStrategy,2023.2.3,Win32,59.88023952,,,,,,,,,,,4,05,6,6,,,,,,,,,,,,,,,,,,,,,,,,,,,,,
626976d0dfd20d6832fc92aa,TCN,2024-06-20_16h29.45.990,LearnStrategy,2023.2.3,Win32,59.88023952,,,,,,,,,,,7,07,6,7,,,,,,,,,,,,,,,,,,,,,,,,,,,,,
626976d0dfd20d6832fc92aa,TCN,2024-06-20_16h29.45.990,LearnStrategy,2023.2.3,Win32,59.88023952,,,,,,,,,,,5,09,6,8,,,,,,,,,,,,,,,,,,,,,,,,,,,,,