participant,condition,date,expName,psychopyVersion,OS,frameRate,block,phase,trial,learn_mouse_2.x,learn_mouse_2.y,learn_mouse_2.leftButton,learn_mouse_2.midButton,learn_mouse_2.rightButton,learn_mouse_2.time,learn_mouse_2.clicked_name,cat,token,row,col,t_select,cat_mouse_l.x,cat_mouse_l.y,cat_mouse_l.leftButton,cat_mouse_l.midButton,cat_mouse_l.rightButton,cat_mouse_l.time,cat_mouse_l.clicked_name,resp,t_resp,corr,train_trials.thisRepN,train_trials.thisTrialN,train_trials.thisN,train_trials.thisIndex,train_trials.ran,cat_mouse_t.x,cat_mouse_t.y,cat_mouse_t.leftButton,cat_mouse_t.midButton,cat_mouse_t.rightButton,cat_mouse_t.time,cat_mouse_t.clicked_name,test_trials.thisRepN,test_trials.thisTrialN,test_trials.thisN,test_trials.thisIndex,test_trials.ran,Bonus
62734ce38db73cd5bd81a36f,TCN,2024-06-25_11h57.52.334,LearnStrategy,2023.2.3,Win32,60.0240096,,,,,,,,,,,,,,,,,,,,,,,,,,,,,,,,,,,,,,,,,,,
62734ce38db73cd5bd81a36f,TCN,2024-06-25_11h57.52.334,LearnStrategy,2023.2.3,Win32,60.0240096,1,1,1,0.009837963,0.005208333,1,0,0,3.305,rock_grid_rect_2,1,02,-1,-1,3.305,-0.098958333,-0.408564815,1,0,0,9.711,Pegmatite_rect,6,9.711,0,0,0,0,0,1,,,,,,,,,,,,,
62734ce38db73cd5bd81a36f,TCN,2024-06-25_11h57.52.334,LearnStrategy,2023.2.3,Win32,60.0240096,1,1,2,-0.01099537,-0.009837963,1,0,0,3.463,rock_grid_rect_2,7,16,-1,-1,3.463,0.126157407,-0.416087963,1,0,0,2.867,Peridotite_rect,7,2.867,1,1,0,1,0,1,,,,,,,,,,,,,
62734ce38db73cd5bd81a36f,TCN,2024-06-25_11h57.52.334,LearnStrategy,2023.2.3,Win32,60.0240096,1,1,3,0.008101852,-0.015046296,1,0,0,1.797,rock_grid_rect_2,5,14,-1,-1,1.797,-0.33275463,-0.380787037,1,0,0,2.966,Obsidian_rect,5,2.966,1,2,0,2,0,1,,,,,,,,,,,,,
62734ce38db73cd5bd81a36f,TCN,2024-06-25_11h57.52.334,LearnStrategy,2023.2.3,Win32,60.0240096,1,1,4,-0.005208333,-0.016203704,1,0,0,1.065,rock_grid_rect_2,6,07,-1,-1,1.065,-0.115740741,-0.403935185,1,0,0,23.351,Pegmatite_rect,6,23.351,1,3,0,3,0,1,,,,,,,,,,,,,
62734ce38db73cd5bd81a36f,TCN,2024-06-25_11h57.52.334,LearnStrategy,2023.2.3,Win32,60.0240096,1,1,5,0.032986111,0.009259259,1,0,0,1.397,rock_grid_rect_2,7,06,-1,-1,1.397,0.444444444,-0.25462963,1,0,0,3.5,Gabbro_rect,4,3.5,0,4,0,4,0,1,,,,,,,,,,,,,
62734ce38db73cd5bd81a36f,TCN,2024-06-25_11h57.52.334,LearnStrategy,2023.2.3,Win32,60.0240096,1,1,6,0.017939815,-0.005208333,1,0,0,1.113,rock_grid_rect_2,3,15,-1,-1,1.113,0.405671296,-0.39525463,1,0,0,3.321,Pumice_rect,8,3.321,0,5,0,5,0,1,,,,,,,,,,,,,
62734ce38db73cd5bd81a36f,TCN,2024-06-25_11h57.52.334,LearnStrategy,2023.2.3,Win32,60.0240096,1,1,7,0.036458333,0.006944444,1,0,0,1.664,rock_grid_rect_2,4,14,-1,-1,1.664,-0.163194444,-0.254050926,1,0,0,7.451,Basalt_rect,2,7.451,0,6,0,6,0,1,,,,,,,,,,,,,
62734ce38db73cd5bd81a36f,TCN,2024-06-25_11h57.52.334,LearnStrategy,2023.2.3,Win32,60.0240096,1,1,8,0.027199074,-0.008101852,1,0,0,1.663,rock_grid_rect_2,6,16,-1,-1,1.663,-0.153935185,-0.271412037,1,0,0,3.981,Basalt_rect,2,3.981,0,7,0,7,0,1,,,,,,,,,,,,,
62734ce38db73cd5bd81a36f,TCN,2024-06-25_11h57.52.334,LearnStrategy,2023.2.3,Win32,60.0240096,1,1,9,0.043402778,0.02025463,1,0,0,1.151,rock_grid_rect_2,2,11,-1,-1,1.151,0.407407407,-0.407986111,1,0,0,2.095,Pumice_rect,8,2.095,0,8,0,8,0,1,,,,,,,,,,,,,
62734ce38db73cd5bd81a36f,TCN,2024-06-25_11h57.52.334,LearnStrategy,2023.2.3,Win32,60.0240096,1,1,10,0.016782407,-0.002314815,1,0,0,1.099,rock_grid_rect_2,3,13,-1,-1,1.099,0.125578704,-0.239583333,1,0,0,10.702,Diorite_rect,3,10.702,1,9,0,9,0,1,,,,,,,,,,,,,
62734ce38db73cd5bd81a36f,TCN,2024-06-25_11h57.52.334,LearnStrategy,2023.2.3,Win32,60.0240096,1,1,11,0.010416667,-0.00462963,1,0,0,1.059,rock_grid_rect_2,8,03,-1,-1,1.059,-0.13599537,-0.247106481,1,0,0,2.693,Basalt_rect,2,2.693,0,10,0,10,0,1,,,,,,,,,,,,,
62734ce38db73cd5bd81a36f,TCN,2024-06-25_11h57.52.334,LearnStrategy,2023.2.3,Win32,60.0240096,1,1,12,-0.03587963,-0.008101852,1,0,0,1.314,rock_grid_rect_2,4,16,-1,-1,1.314,0.416087963,-0.25,1,0,0,4.41,Gabbro_rect,4,4.41,1,11,0,11,0,1,,,,,,,,,,,,,
62734ce38db73cd5bd81a36f,TCN,2024-06-25_11h57.52.334,LearnStrategy,2023.2.3,Win32,60.0240096,1,1,13,0.102430556,-0.015046296,1,0,0,1.399,rock_grid_rect_2,1,06,-1,-1,1.399,0.107638889,-0.240162037,1,0,0,14.418,Diorite_rect,3,14.418,0,12,0,12,0,1,,,,,,,,,,,,,
62734ce38db73cd5bd81a36f,TCN,2024-06-25_11h57.52.334,LearnStrategy,2023.2.3,Win32,60.0240096,1,1,14,0.042824074,-0.00462963,1,0,0,0.943,rock_grid_rect_2,2,08,-1,-1,0.943,-0.368634259,-0.416666667,1,0,0,3.071,Obsidian_rect,5,3.071,0,13,0,13,0,1,,,,,,,,,,,,,
62734ce38db73cd5bd81a36f,TCN,2024-06-25_11h57.52.334,LearnStrategy,2023.2.3,Win32,60.0240096,1,1,15,-0.02025463,0.001736111,1,0,0,1.946,rock_grid_rect_2,5,16,-1,-1,1.946,-0.365162037,-0.398148148,1,0,0,1.675,Obsidian_rect,5,1.675,1,14,0,14,0,1,,,,,,,,,,,,,
62734ce38db73cd5bd81a36f,TCN,2024-06-25_11h57.52.334,LearnStrategy,2023.2.3,Win32,60.0240096,1,1,16,0.115740741,-0.012152778,1,0,0,1.516,rock_grid_rect_2,8,15,-1,-1,1.516,0.417824074,-0.399305556,1,0,0,1.893,Pumice_rect,8,1.893,1,15,0,15,0,1,,,,,,,,,,,,,
62734ce38db73cd5bd81a36f,TCN,2024-06-25_11h57.52.334,LearnStrategy,2023.2.3,Win32,60.0240096,1,2,1,,,,,,,,3,06,,,,,,,,,,,3,4.181,1,,,,,,0.123842593,-0.263888889,1,0,0,4.181,Diorite_rect,0,0,0,0,1,
62734ce38db73cd5bd81a36f,TCN,2024-06-25_11h57.52.334,LearnStrategy,2023.2.3,Win32,60.0240096,1,2,2,,,,,,,,1,01,,,,,,,,,,,1,7.33,1,,,,,,-0.415509259,-0.257523148,1,0,0,7.33,Andesite_rect,1,0,1,0,1,
62734ce38db73cd5bd81a36f,TCN,2024-06-25_11h57.52.334,LearnStrategy,2023.2.3,Win32,60.0240096,1,2,3,,,,,,,,8,08,,,,,,,,,,,8,5.554,1,,,,,,0.392939815,-0.394675926,1,0,0,5.554,Pumice_rect,2,0,2,0,1,
62734ce38db73cd5bd81a36f,TCN,2024-06-25_11h57.52.334,LearnStrategy,2023.2.3,Win32,60.0240096,1,2,4,,,,,,,,6,06,,,,,,,,,,,6,5.67,1,,,,,,-0.119791667,-0.385416667,1,0,0,5.67,Pegmatite_rect,3,0,3,0,1,
62734ce38db73cd5bd81a36f,TCN,2024-06-25_11h57.52.334,LearnStrategy,2023.2.3,Win32,60.0240096,1,2,5,,,,,,,,3,16,,,,,,,,,,,1,8.7,0,,,,,,-0.358217593,-0.237847222,1,0,0,8.7,Andesite_rect,4,0,4,0,1,
62734ce38db73cd5bd81a36f,TCN,2024-06-25_11h57.52.334,LearnStrategy,2023.2.3,Win32,60.0240096,1,2,6,,,,,,,,2,10,,,,,,,,,,,4,4.045,0,,,,,,0.433449074,-0.232638889,1,0,0,4.045,Gabbro_rect,5,0,5,0,1,
62734ce38db73cd5bd81a36f,TCN,2024-06-25_11h57.52.334,LearnStrategy,2023.2.3,Win32,60.0240096,1,2,7,,,,,,,,2,04,,,,,,,,,,,2,4.949,1,,,,,,-0.080439815,-0.26099537,1,0,0,4.949,Basalt_rect,6,0,6,0,1,
62734ce38db73cd5bd81a36f,TCN,2024-06-25_11h57.52.334,LearnStrategy,2023.2.3,Win32,60.0240096,1,2,8,,,,,,,,4,15,,,,,,,,,,,4,4.131,1,,,,,,0.365162037,-0.243055556,1,0,0,4.131,Gabbro_rect,7,0,7,0,1,
62734ce38db73cd5bd81a36f,TCN,2024-06-25_11h57.52.334,LearnStrategy,2023.2.3,Win32,60.0240096,1,2,9,,,,,,,,5,02,,,,,,,,,,,5,1.869,1,,,,,,-0.331597222,-0.400462963,1,0,0,1.869,Obsidian_rect,8,0,8,0,1,
62734ce38db73cd5bd81a36f,TCN,2024-06-25_11h57.52.334,LearnStrategy,2023.2.3,Win32,60.0240096,1,2,10,,,,,,,,6,12,,,,,,,,,,,6,17.339,1,,,,,,-0.140046296,-0.391203704,1,0,0,17.339,Pegmatite_rect,9,0,9,0,1,
62734ce38db73cd5bd81a36f,TCN,2024-06-25_11h57.52.334,LearnStrategy,2023.2.3,Win32,60.0240096,1,2,11,,,,,,,,7,12,,,,,,,,,,,7,3.232,1,,,,,,0.160300926,-0.413194444,1,0,0,3.232,Peridotite_rect,10,0,10,0,1,
62734ce38db73cd5bd81a36f,TCN,2024-06-25_11h57.52.334,LearnStrategy,2023.2.3,Win32,60.0240096,1,2,12,,,,,,,,5,12,,,,,,,,,,,5,1.289,1,,,,,,-0.385416667,-0.407986111,1,0,0,1.289,Obsidian_rect,11,0,11,0,1,
62734ce38db73cd5bd81a36f,TCN,2024-06-25_11h57.52.334,LearnStrategy,2023.2.3,Win32,60.0240096,1,2,13,,,,,,,,4,12,,,,,,,,,,,7,7.365,0,,,,,,0.150462963,-0.394097222,1,0,0,7.365,Peridotite_rect,12,0,12,0,1,
62734ce38db73cd5bd81a36f,TCN,2024-06-25_11h57.52.334,LearnStrategy,2023.2.3,Win32,60.0240096,1,2,14,,,,,,,,1,03,,,,,,,,,,,1,6.146,1,,,,,,-0.361111111,-0.266203704,1,0,0,6.146,Andesite_rect,13,0,13,0,1,
62734ce38db73cd5bd81a36f,TCN,2024-06-25_11h57.52.334,LearnStrategy,2023.2.3,Win32,60.0240096,1,2,15,,,,,,,,8,05,,,,,,,,,,,8,1.402,1,,,,,,0.412037037,-0.41724537,1,0,0,1.402,Pumice_rect,14,0,14,0,1,
62734ce38db73cd5bd81a36f,TCN,2024-06-25_11h57.52.334,LearnStrategy,2023.2.3,Win32,60.0240096,1,2,16,,,,,,,,7,04,,,,,,,,,,,6,4.074,0,,,,,,-0.189814815,-0.41087963,1,0,0,4.074,Pegmatite_rect,15,0,15,0,1,
62734ce38db73cd5bd81a36f,TCN,2024-06-25_11h57.52.334,LearnStrategy,2023.2.3,Win32,60.0240096,2,1,1,-0.048611111,0.003472222,1,0,0,0.948,rock_grid_rect_2,1,05,-1,-1,0.948,-0.164930556,-0.409722222,1,0,0,3.802,Pegmatite_rect,6,3.802,0,0,0,0,0,1,,,,,,,,,,,,,
62734ce38db73cd5bd81a36f,TCN,2024-06-25_11h57.52.334,LearnStrategy,2023.2.3,Win32,60.0240096,2,1,2,-0.032986111,-0.009259259,1,0,0,1.199,rock_grid_rect_2,2,16,-1,-1,1.199,0.374421296,-0.263888889,1,0,0,1.685,Gabbro_rect,4,1.685,0,1,0,1,0,1,,,,,,,,,,,,,
62734ce38db73cd5bd81a36f,TCN,2024-06-25_11h57.52.334,LearnStrategy,2023.2.3,Win32,60.0240096,2,1,3,-0.021990741,-0.010416667,1,0,0,16.25,rock_grid_rect_2,6,13,-1,-1,16.25,-0.131944444,-0.405092593,1,0,0,9.518,Pegmatite_rect,6,9.518,1,2,0,2,0,1,,,,,,,,,,,,,
62734ce38db73cd5bd81a36f,TCN,2024-06-25_11h57.52.334,LearnStrategy,2023.2.3,Win32,60.0240096,2,1,4,0.005787037,-0.012731481,1,0,0,1.224,rock_grid_rect_2,2,06,-1,-1,1.224,-0.122106481,-0.246527778,1,0,0,2.704,Basalt_rect,2,2.704,1,3,0,3,0,1,,,,,,,,,,,,,
62734ce38db73cd5bd81a36f,TCN,2024-06-25_11h57.52.334,LearnStrategy,2023.2.3,Win32,60.0240096,2,1,5,0.048032407,-0.010416667,1,0,0,1.233,rock_grid_rect_2,3,08,-1,-1,1.233,0.103009259,-0.241898148,1,0,0,3.088,Diorite_rect,3,3.088,1,4,0,4,0,1,,,,,,,,,,,,,
62734ce38db73cd5bd81a36f,TCN,2024-06-25_11h57.52.334,LearnStrategy,2023.2.3,Win32,60.0240096,2,1,6,0.012731481,-0.001157407,1,0,0,0.965,rock_grid_rect_2,8,02,-1,-1,0.965,0.377314815,-0.392939815,1,0,0,2.34,Pumice_rect,8,2.34,1,5,0,5,0,1,,,,,,,,,,,,,
62734ce38db73cd5bd81a36f,TCN,2024-06-25_11h57.52.334,LearnStrategy,2023.2.3,Win32,60.0240096,2,1,7,0.061342593,0.001157407,1,0,0,1.257,rock_grid_rect_2,4,01,-1,-1,1.257,-0.112268519,-0.390046296,1,0,0,3.952,Pegmatite_rect,6,3.952,0,6,0,6,0,1,,,,,,,,,,,,,
62734ce38db73cd5bd81a36f,TCN,2024-06-25_11h57.52.334,LearnStrategy,2023.2.3,Win32,60.0240096,2,1,8,0.066550926,-0.000578704,1,0,0,1.499,rock_grid_rect_2,8,14,-1,-1,1.499,0.387731481,-0.405671296,1,0,0,1.27,Pumice_rect,8,1.27,1,7,0,7,0,1,,,,,,,,,,,,,
62734ce38db73cd5bd81a36f,TCN,2024-06-25_11h57.52.334,LearnStrategy,2023.2.3,Win32,60.0240096,2,1,9,0.026041667,0.005787037,1,0,0,0.849,rock_grid_rect_2,6,15,-1,-1,0.849,-0.174768519,-0.385416667,1,0,0,1.785,Pegmatite_rect,6,1.785,1,8,0,8,0,1,,,,,,,,,,,,,
62734ce38db73cd5bd81a36f,TCN,2024-06-25_11h57.52.334,LearnStrategy,2023.2.3,Win32,60.0240096,2,1,10,0.06712963,-0.005787037,1,0,0,1.198,rock_grid_rect_2,7,08,-1,-1,1.198,0.112268519,-0.398148148,1,0,0,1.977,Peridotite_rect,7,1.977,1,9,0,9,0,1,,,,,,,,,,,,,
62734ce38db73cd5bd81a36f,TCN,2024-06-25_11h57.52.334,LearnStrategy,2023.2.3,Win32,60.0240096,2,1,11,0.037615741,-0.012731481,1,0,0,0.914,rock_grid_rect_2,7,07,-1,-1,0.914,0.104166667,-0.398726852,1,0,0,1.124,Peridotite_rect,7,1.124,1,10,0,10,0,1,,,,,,,,,,,,,
62734ce38db73cd5bd81a36f,TCN,2024-06-25_11h57.52.334,LearnStrategy,2023.2.3,Win32,60.0240096,2,1,12,0.021990741,-0.006944444,1,0,0,0.9,rock_grid_rect_2,1,14,-1,-1,0.9,-0.082175926,-0.399305556,1,0,0,7.284,Pegmatite_rect,6,7.284,0,11,0,11,0,1,,,,,,,,,,,,,
62734ce38db73cd5bd81a36f,TCN,2024-06-25_11h57.52.334,LearnStrategy,2023.2.3,Win32,60.0240096,2,1,13,0.009837963,0.012731481,1,0,0,1.314,rock_grid_rect_2,5,06,-1,-1,1.314,-0.390625,-0.391782407,1,0,0,1.418,Obsidian_rect,5,1.418,1,12,0,12,0,1,,,,,,,,,,,,,
62734ce38db73cd5bd81a36f,TCN,2024-06-25_11h57.52.334,LearnStrategy,2023.2.3,Win32,60.0240096,2,1,14,0.036458333,-0.016782407,1,0,0,0.831,rock_grid_rect_2,4,13,-1,-1,0.831,0.318287037,-0.232638889,1,0,0,1.184,Gabbro_rect,4,1.184,1,13,0,13,0,1,,,,,,,,,,,,,
62734ce38db73cd5bd81a36f,TCN,2024-06-25_11h57.52.334,LearnStrategy,2023.2.3,Win32,60.0240096,2,1,15,0.004050926,0.019675926,1,0,0,0.847,rock_grid_rect_2,3,11,-1,-1,0.847,0.385416667,-0.233217593,1,0,0,5.131,Gabbro_rect,4,5.131,0,14,0,14,0,1,,,,,,,,,,,,,
62734ce38db73cd5bd81a36f,TCN,2024-06-25_11h57.52.334,LearnStrategy,2023.2.3,Win32,60.0240096,2,1,16,-0.071759259,0.017939815,1,0,0,1.132,rock_grid_rect_2,5,11,-1,-1,1.132,-0.421296296,-0.414351852,1,0,0,1.551,Obsidian_rect,5,1.551,1,15,0,15,0,1,,,,,,,,,,,,,
62734ce38db73cd5bd81a36f,TCN,2024-06-25_11h57.52.334,LearnStrategy,2023.2.3,Win32,60.0240096,2,2,1,,,,,,,,1,09,,,,,,,,,,,1,5.624,1,,,,,,-0.37962963,-0.232638889,1,0,0,5.624,Andesite_rect,0,0,0,0,1,
62734ce38db73cd5bd81a36f,TCN,2024-06-25_11h57.52.334,LearnStrategy,2023.2.3,Win32,60.0240096,2,2,2,,,,,,,,5,10,,,,,,,,,,,5,1.198,1,,,,,,-0.340277778,-0.399305556,1,0,0,1.198,Obsidian_rect,1,0,1,0,1,
62734ce38db73cd5bd81a36f,TCN,2024-06-25_11h57.52.334,LearnStrategy,2023.2.3,Win32,60.0240096,2,2,3,,,,,,,,6,05,,,,,,,,,,,6,12.599,1,,,,,,-0.128472222,-0.405092593,1,0,0,12.599,Pegmatite_rect,2,0,2,0,1,
62734ce38db73cd5bd81a36f,TCN,2024-06-25_11h57.52.334,LearnStrategy,2023.2.3,Win32,60.0240096,2,2,4,,,,,,,,4,11,,,,,,,,,,,1,23.655,0,,,,,,-0.440393519,-0.233217593,1,0,0,23.655,Andesite_rect,3,0,3,0,1,
62734ce38db73cd5bd81a36f,TCN,2024-06-25_11h57.52.334,LearnStrategy,2023.2.3,Win32,60.0240096,2,2,5,,,,,,,,6,08,,,,,,,,,,,6,4.474,1,,,,,,-0.090856481,-0.405092593,1,0,0,4.474,Pegmatite_rect,4,0,4,0,1,
62734ce38db73cd5bd81a36f,TCN,2024-06-25_11h57.52.334,LearnStrategy,2023.2.3,Win32,60.0240096,2,2,6,,,,,,,,8,16,,,,,,,,,,,2,4.099,0,,,,,,-0.119212963,-0.252314815,1,0,0,4.099,Basalt_rect,5,0,5,0,1,
62734ce38db73cd5bd81a36f,TCN,2024-06-25_11h57.52.334,LearnStrategy,2023.2.3,Win32,60.0240096,2,2,7,,,,,,,,7,05,,,,,,,,,,,7,1.341,1,,,,,,0.119791667,-0.413773148,1,0,0,1.341,Peridotite_rect,6,0,6,0,1,
62734ce38db73cd5bd81a36f,TCN,2024-06-25_11h57.52.334,LearnStrategy,2023.2.3,Win32,60.0240096,2,2,8,,,,,,,,5,05,,,,,,,,,,,5,1.709,1,,,,,,-0.407986111,-0.401041667,1,0,0,1.709,Obsidian_rect,7,0,7,0,1,
62734ce38db73cd5bd81a36f,TCN,2024-06-25_11h57.52.334,LearnStrategy,2023.2.3,Win32,60.0240096,2,2,9,,,,,,,,3,02,,,,,,,,,,,3,3.723,1,,,,,,0.175925926,-0.262152778,1,0,0,3.723,Diorite_rect,8,0,8,0,1,
62734ce38db73cd5bd81a36f,TCN,2024-06-25_11h57.52.334,LearnStrategy,2023.2.3,Win32,60.0240096,2,2,10,,,,,,,,7,13,,,,,,,,,,,7,1.224,1,,,,,,0.090856481,-0.38599537,1,0,0,1.224,Peridotite_rect,9,0,9,0,1,
62734ce38db73cd5bd81a36f,TCN,2024-06-25_11h57.52.334,LearnStrategy,2023.2.3,Win32,60.0240096,2,2,11,,,,,,,,1,07,,,,,,,,,,,1,8.209,1,,,,,,-0.381365741,-0.244212963,1,0,0,8.209,Andesite_rect,10,0,10,0,1,
62734ce38db73cd5bd81a36f,TCN,2024-06-25_11h57.52.334,LearnStrategy,2023.2.3,Win32,60.0240096,2,2,12,,,,,,,,2,05,,,,,,,,,,,2,4.917,1,,,,,,-0.125578704,-0.258101852,1,0,0,4.917,Basalt_rect,11,0,11,0,1,
62734ce38db73cd5bd81a36f,TCN,2024-06-25_11h57.52.334,LearnStrategy,2023.2.3,Win32,60.0240096,2,2,13,,,,,,,,2,14,,,,,,,,,,,2,2.468,1,,,,,,-0.108217593,-0.242476852,1,0,0,2.468,Basalt_rect,12,0,12,0,1,
62734ce38db73cd5bd81a36f,TCN,2024-06-25_11h57.52.334,LearnStrategy,2023.2.3,Win32,60.0240096,2,2,14,,,,,,,,3,10,,,,,,,,,,,3,4.779,1,,,,,,0.142361111,-0.26099537,1,0,0,4.779,Diorite_rect,13,0,13,0,1,
62734ce38db73cd5bd81a36f,TCN,2024-06-25_11h57.52.334,LearnStrategy,2023.2.3,Win32,60.0240096,2,2,15,,,,,,,,8,06,,,,,,,,,,,8,1.325,1,,,,,,0.394675926,-0.396990741,1,0,0,1.325,Pumice_rect,14,0,14,0,1,
62734ce38db73cd5bd81a36f,TCN,2024-06-25_11h57.52.334,LearnStrategy,2023.2.3,Win32,60.0240096,2,2,16,,,,,,,,4,05,,,,,,,,,,,7,1.435,0,,,,,,0.135416667,-0.394675926,1,0,0,1.435,Peridotite_rect,15,0,15,0,1,
62734ce38db73cd5bd81a36f,TCN,2024-06-25_11h57.52.334,LearnStrategy,2023.2.3,Win32,60.0240096,3,1,1,-0.054398148,0.004050926,1,0,0,0.783,rock_grid_rect_2,8,13,-1,-1,0.783,0.376157407,-0.420138889,1,0,0,2.7,Pumice_rect,8,2.7,1,0,0,0,0,1,,,,,,,,,,,,,
62734ce38db73cd5bd81a36f,TCN,2024-06-25_11h57.52.334,LearnStrategy,2023.2.3,Win32,60.0240096,3,1,2,0.071759259,-0.001157407,1,0,0,0.881,rock_grid_rect_2,2,09,-1,-1,0.881,-0.122685185,-0.253472222,1,0,0,1.769,Basalt_rect,2,1.769,1,1,0,1,0,1,,,,,,,,,,,,,
62734ce38db73cd5bd81a36f,TCN,2024-06-25_11h57.52.334,LearnStrategy,2023.2.3,Win32,60.0240096,3,1,3,0.021990741,-0.015625,1,0,0,0.849,rock_grid_rect_2,4,09,-1,-1,0.849,-0.331597222,-0.392361111,1,0,0,1.185,Obsidian_rect,5,1.185,0,2,0,2,0,1,,,,,,,,,,,,,
62734ce38db73cd5bd81a36f,TCN,2024-06-25_11h57.52.334,LearnStrategy,2023.2.3,Win32,60.0240096,3,1,4,0.040509259,0.001736111,1,0,0,7.259,rock_grid_rect_2,3,07,-1,-1,7.259,-0.37962963,-0.255208333,1,0,0,2.987,Andesite_rect,1,2.987,0,3,0,3,0,1,,,,,,,,,,,,,
62734ce38db73cd5bd81a36f,TCN,2024-06-25_11h57.52.334,LearnStrategy,2023.2.3,Win32,60.0240096,3,1,5,0.009259259,-0.005787037,1,0,0,0.808,rock_grid_rect_2,7,10,-1,-1,0.808,0.138310185,-0.383101852,1,0,0,1.123,Peridotite_rect,7,1.123,1,4,0,4,0,1,,,,,,,,,,,,,
62734ce38db73cd5bd81a36f,TCN,2024-06-25_11h57.52.334,LearnStrategy,2023.2.3,Win32,60.0240096,3,1,6,0.046296296,-0.004050926,1,0,0,0.949,rock_grid_rect_2,6,10,-1,-1,0.949,0.168402778,-0.390625,1,0,0,1.13,Peridotite_rect,7,1.13,0,5,0,5,0,1,,,,,,,,,,,,,
62734ce38db73cd5bd81a36f,TCN,2024-06-25_11h57.52.334,LearnStrategy,2023.2.3,Win32,60.0240096,3,1,7,0.027777778,-0.017361111,1,0,0,1.015,rock_grid_rect_2,6,03,-1,-1,1.015,-0.077546296,-0.403935185,1,0,0,2.403,Pegmatite_rect,6,2.403,1,6,0,6,0,1,,,,,,,,,,,,,
62734ce38db73cd5bd81a36f,TCN,2024-06-25_11h57.52.334,LearnStrategy,2023.2.3,Win32,60.0240096,3,1,8,0.015625,0.001157407,1,0,0,0.961,rock_grid_rect_2,2,02,-1,-1,0.961,-0.135416667,-0.250578704,1,0,0,1.753,Basalt_rect,2,1.753,1,7,0,7,0,1,,,,,,,,,,,,,
62734ce38db73cd5bd81a36f,TCN,2024-06-25_11h57.52.334,LearnStrategy,2023.2.3,Win32,60.0240096,3,1,9,0.061921296,-0.015046296,1,0,0,0.762,rock_grid_rect_2,3,14,-1,-1,0.762,0.165509259,-0.243055556,1,0,0,1.09,Diorite_rect,3,1.09,1,8,0,8,0,1,,,,,,,,,,,,,
62734ce38db73cd5bd81a36f,TCN,2024-06-25_11h57.52.334,LearnStrategy,2023.2.3,Win32,60.0240096,3,1,10,-0.006944444,-0.017361111,1,0,0,0.848,rock_grid_rect_2,4,03,-1,-1,0.848,0.119791667,-0.240162037,1,0,0,1.145,Diorite_rect,3,1.145,0,9,0,9,0,1,,,,,,,,,,,,,
62734ce38db73cd5bd81a36f,TCN,2024-06-25_11h57.52.334,LearnStrategy,2023.2.3,Win32,60.0240096,3,1,11,-0.009259259,-0.019675926,1,0,0,0.98,rock_grid_rect_2,5,04,-1,-1,0.98,-0.423032407,-0.404513889,1,0,0,4.089,Obsidian_rect,5,4.089,1,10,0,10,0,1,,,,,,,,,,,,,
62734ce38db73cd5bd81a36f,TCN,2024-06-25_11h57.52.334,LearnStrategy,2023.2.3,Win32,60.0240096,3,1,12,0.074074074,-0.017361111,1,0,0,0.749,rock_grid_rect_2,7,15,-1,-1,0.749,0.107638889,-0.385416667,1,0,0,1.056,Peridotite_rect,7,1.056,1,11,0,11,0,1,,,,,,,,,,,,,
62734ce38db73cd5bd81a36f,TCN,2024-06-25_11h57.52.334,LearnStrategy,2023.2.3,Win32,60.0240096,3,1,13,0.039351852,-0.012152778,1,0,0,0.898,rock_grid_rect_2,8,09,-1,-1,0.898,0.368055556,-0.418402778,1,0,0,1.368,Pumice_rect,8,1.368,1,12,0,12,0,1,,,,,,,,,,,,,
62734ce38db73cd5bd81a36f,TCN,2024-06-25_11h57.52.334,LearnStrategy,2023.2.3,Win32,60.0240096,3,1,14,-0.016782407,-0.012731481,1,0,0,1,rock_grid_rect_2,5,08,-1,-1,1,-0.427083333,-0.40625,1,0,0,2.654,Obsidian_rect,5,2.654,1,13,0,13,0,1,,,,,,,,,,,,,
62734ce38db73cd5bd81a36f,TCN,2024-06-25_11h57.52.334,LearnStrategy,2023.2.3,Win32,60.0240096,3,1,15,0.086226852,0.008101852,1,0,0,0.714,rock_grid_rect_2,1,10,-1,-1,0.714,-0.09375,-0.401041667,1,0,0,8.699,Pegmatite_rect,6,8.699,0,14,0,14,0,1,,,,,,,,,,,,,
62734ce38db73cd5bd81a36f,TCN,2024-06-25_11h57.52.334,LearnStrategy,2023.2.3,Win32,60.0240096,3,1,16,0.008101852,-0.001157407,1,0,0,0.766,rock_grid_rect_2,1,11,-1,-1,0.766,-0.104166667,-0.397569444,1,0,0,2.109,Pegmatite_rect,6,2.109,0,15,0,15,0,1,,,,,,,,,,,,,
62734ce38db73cd5bd81a36f,TCN,2024-06-25_11h57.52.334,LearnStrategy,2023.2.3,Win32,60.0240096,3,2,1,,,,,,,,8,10,,,,,,,,,,,8,1.216,1,,,,,,0.379050926,-0.415509259,1,0,0,1.216,Pumice_rect,0,0,0,0,1,
62734ce38db73cd5bd81a36f,TCN,2024-06-25_11h57.52.334,LearnStrategy,2023.2.3,Win32,60.0240096,3,2,2,,,,,,,,1,16,,,,,,,,,,,1,4.339,1,,,,,,-0.35474537,-0.250578704,1,0,0,4.339,Andesite_rect,1,0,1,0,1,
62734ce38db73cd5bd81a36f,TCN,2024-06-25_11h57.52.334,LearnStrategy,2023.2.3,Win32,60.0240096,3,2,3,,,,,,,,5,09,,,,,,,,,,,5,1.084,1,,,,,,-0.373263889,-0.40625,1,0,0,1.084,Obsidian_rect,2,0,2,0,1,
62734ce38db73cd5bd81a36f,TCN,2024-06-25_11h57.52.334,LearnStrategy,2023.2.3,Win32,60.0240096,3,2,4,,,,,,,,7,02,,,,,,,,,,,7,1.108,1,,,,,,0.153935185,-0.394097222,1,0,0,1.108,Peridotite_rect,3,0,3,0,1,
62734ce38db73cd5bd81a36f,TCN,2024-06-25_11h57.52.334,LearnStrategy,2023.2.3,Win32,60.0240096,3,2,5,,,,,,,,4,08,,,,,,,,,,,4,3.435,1,,,,,,0.429398148,-0.260416667,1,0,0,3.435,Gabbro_rect,4,0,4,0,1,
62734ce38db73cd5bd81a36f,TCN,2024-06-25_11h57.52.334,LearnStrategy,2023.2.3,Win32,60.0240096,3,2,6,,,,,,,,6,09,,,,,,,,,,,6,1.764,1,,,,,,-0.157986111,-0.408564815,1,0,0,1.764,Pegmatite_rect,5,0,5,0,1,
62734ce38db73cd5bd81a36f,TCN,2024-06-25_11h57.52.334,LearnStrategy,2023.2.3,Win32,60.0240096,3,2,7,,,,,,,,7,14,,,,,,,,,,,7,1.484,1,,,,,,0.152777778,-0.387731481,1,0,0,1.484,Peridotite_rect,6,0,6,0,1,
62734ce38db73cd5bd81a36f,TCN,2024-06-25_11h57.52.334,LearnStrategy,2023.2.3,Win32,60.0240096,3,2,8,,,,,,,,1,04,,,,,,,,,,,4,2.504,0,,,,,,0.363425926,-0.245949074,1,0,0,2.504,Gabbro_rect,7,0,7,0,1,
62734ce38db73cd5bd81a36f,TCN,2024-06-25_11h57.52.334,LearnStrategy,2023.2.3,Win32,60.0240096,3,2,9,,,,,,,,4,10,,,,,,,,,,,4,2.235,1,,,,,,0.41087963,-0.260416667,1,0,0,2.235,Gabbro_rect,8,0,8,0,1,
62734ce38db73cd5bd81a36f,TCN,2024-06-25_11h57.52.334,LearnStrategy,2023.2.3,Win32,60.0240096,3,2,10,,,,,,,,5,07,,,,,,,,,,,5,1.494,1,,,,,,-0.361111111,-0.388888889,1,0,0,1.494,Obsidian_rect,9,0,9,0,1,
62734ce38db73cd5bd81a36f,TCN,2024-06-25_11h57.52.334,LearnStrategy,2023.2.3,Win32,60.0240096,3,2,11,,,,,,,,6,11,,,,,,,,,,,6,2.563,1,,,,,,-0.114583333,-0.396990741,1,0,0,2.563,Pegmatite_rect,10,0,10,0,1,
62734ce38db73cd5bd81a36f,TCN,2024-06-25_11h57.52.334,LearnStrategy,2023.2.3,Win32,60.0240096,3,2,12,,,,,,,,3,12,,,,,,,,,,,3,1.201,1,,,,,,0.145833333,-0.255208333,1,0,0,1.201,Diorite_rect,11,0,11,0,1,
62734ce38db73cd5bd81a36f,TCN,2024-06-25_11h57.52.334,LearnStrategy,2023.2.3,Win32,60.0240096,3,2,13,,,,,,,,8,04,,,,,,,,,,,8,1.663,1,,,,,,0.38599537,-0.398726852,1,0,0,1.663,Pumice_rect,12,0,12,0,1,
62734ce38db73cd5bd81a36f,TCN,2024-06-25_11h57.52.334,LearnStrategy,2023.2.3,Win32,60.0240096,3,2,14,,,,,,,,3,09,,,,,,,,,,,3,1.219,1,,,,,,0.195023148,-0.269675926,1,0,0,1.219,Diorite_rect,13,0,13,0,1,
62734ce38db73cd5bd81a36f,TCN,2024-06-25_11h57.52.334,LearnStrategy,2023.2.3,Win32,60.0240096,3,2,15,,,,,,,,2,01,,,,,,,,,,,2,2.889,1,,,,,,-0.136574074,-0.256365741,1,0,0,2.889,Basalt_rect,14,0,14,0,1,
62734ce38db73cd5bd81a36f,TCN,2024-06-25_11h57.52.334,LearnStrategy,2023.2.3,Win32,60.0240096,3,2,16,,,,,,,,2,12,,,,,,,,,,,2,2.486,1,,,,,,-0.096643519,-0.248263889,1,0,0,2.486,Basalt_rect,15,0,15,0,1,
62734ce38db73cd5bd81a36f,TCN,2024-06-25_11h57.52.334,LearnStrategy,2023.2.3,Win32,60.0240096,4,1,1,-0.038194444,-0.010416667,1,0,0,1.075,rock_grid_rect_2,8,15,-1,-1,1.075,0.360532407,-0.402199074,1,0,0,1.232,Pumice_rect,8,1.232,1,0,0,0,0,1,,,,,,,,,,,,,
62734ce38db73cd5bd81a36f,TCN,2024-06-25_11h57.52.334,LearnStrategy,2023.2.3,Win32,60.0240096,4,1,2,0.043981481,-0.011574074,1,0,0,0.866,rock_grid_rect_2,2,06,-1,-1,0.866,-0.117476852,-0.263888889,1,0,0,1.218,Basalt_rect,2,1.218,1,1,0,1,0,1,,,,,,,,,,,,,
62734ce38db73cd5bd81a36f,TCN,2024-06-25_11h57.52.334,LearnStrategy,2023.2.3,Win32,60.0240096,4,1,3,0.013888889,-0.024305556,1,0,0,0.665,rock_grid_rect_2,3,11,-1,-1,0.665,0.165509259,-0.255208333,1,0,0,1.452,Diorite_rect,3,1.452,1,2,0,2,0,1,,,,,,,,,,,,,
62734ce38db73cd5bd81a36f,TCN,2024-06-25_11h57.52.334,LearnStrategy,2023.2.3,Win32,60.0240096,4,1,4,0.008680556,-0.019097222,1,0,0,0.848,rock_grid_rect_2,4,13,-1,-1,0.848,0.368055556,-0.234953704,1,0,0,1.525,Gabbro_rect,4,1.525,1,3,0,3,0,1,,,,,,,,,,,,,
62734ce38db73cd5bd81a36f,TCN,2024-06-25_11h57.52.334,LearnStrategy,2023.2.3,Win32,60.0240096,4,1,5,0.009259259,-0.003472222,1,0,0,0.794,rock_grid_rect_2,5,08,-1,-1,0.794,-0.384837963,-0.384837963,1,0,0,1.184,Obsidian_rect,5,1.184,1,4,0,4,0,1,,,,,,,,,,,,,
62734ce38db73cd5bd81a36f,TCN,2024-06-25_11h57.52.334,LearnStrategy,2023.2.3,Win32,60.0240096,4,1,6,0.065972222,-0.002314815,1,0,0,0.665,rock_grid_rect_2,7,16,-1,-1,0.665,0.115740741,-0.390046296,1,0,0,1.235,Peridotite_rect,7,1.235,1,5,0,5,0,1,,,,,,,,,,,,,
62734ce38db73cd5bd81a36f,TCN,2024-06-25_11h57.52.334,LearnStrategy,2023.2.3,Win32,60.0240096,4,1,7,0.059606481,-0.006944444,1,0,0,0.733,rock_grid_rect_2,2,09,-1,-1,0.733,-0.107060185,-0.256365741,1,0,0,1.051,Basalt_rect,2,1.051,1,6,0,6,0,1,,,,,,,,,,,,,
62734ce38db73cd5bd81a36f,TCN,2024-06-25_11h57.52.334,LearnStrategy,2023.2.3,Win32,60.0240096,4,1,8,0.022569444,-0.01099537,1,0,0,0.716,rock_grid_rect_2,7,10,-1,-1,0.716,0.121527778,-0.380787037,1,0,0,1.151,Peridotite_rect,7,1.151,1,7,0,7,0,1,,,,,,,,,,,,,
62734ce38db73cd5bd81a36f,TCN,2024-06-25_11h57.52.334,LearnStrategy,2023.2.3,Win32,60.0240096,4,1,9,0.029513889,-0.001157407,1,0,0,0.882,rock_grid_rect_2,6,03,-1,-1,0.882,-0.121527778,-0.412615741,1,0,0,1.319,Pegmatite_rect,6,1.319,1,8,0,8,0,1,,,,,,,,,,,,,
62734ce38db73cd5bd81a36f,TCN,2024-06-25_11h57.52.334,LearnStrategy,2023.2.3,Win32,60.0240096,4,1,10,0.027777778,-0.008680556,1,0,0,0.682,rock_grid_rect_2,8,03,-1,-1,0.682,0.42650463,-0.41087963,1,0,0,1.163,Pumice_rect,8,1.163,1,9,0,9,0,1,,,,,,,,,,,,,
62734ce38db73cd5bd81a36f,TCN,2024-06-25_11h57.52.334,LearnStrategy,2023.2.3,Win32,60.0240096,4,1,11,0.015625,-0.012152778,1,0,0,0.764,rock_grid_rect_2,1,05,-1,-1,0.764,-0.394097222,-0.247685185,1,0,0,1.687,Andesite_rect,1,1.687,1,10,0,10,0,1,,,,,,,,,,,,,
62734ce38db73cd5bd81a36f,TCN,2024-06-25_11h57.52.334,LearnStrategy,2023.2.3,Win32,60.0240096,4,1,12,-0.001157407,-0.008101852,1,0,0,0.782,rock_grid_rect_2,1,02,-1,-1,0.782,-0.332175926,-0.249421296,1,0,0,2.253,Andesite_rect,1,2.253,1,11,0,11,0,1,,,,,,,,,,,,,
62734ce38db73cd5bd81a36f,TCN,2024-06-25_11h57.52.334,LearnStrategy,2023.2.3,Win32,60.0240096,4,1,13,0.008101852,-0.013310185,1,0,0,0.783,rock_grid_rect_2,5,06,-1,-1,0.783,-0.389467593,-0.402777778,1,0,0,2.356,Obsidian_rect,5,2.356,1,12,0,12,0,1,,,,,,,,,,,,,
62734ce38db73cd5bd81a36f,TCN,2024-06-25_11h57.52.334,LearnStrategy,2023.2.3,Win32,60.0240096,4,1,14,0.000578704,-0.012152778,1,0,0,0.816,rock_grid_rect_2,4,01,-1,-1,0.816,-0.375578704,-0.245949074,1,0,0,5.057,Andesite_rect,1,5.057,0,13,0,13,0,1,,,,,,,,,,,,,
62734ce38db73cd5bd81a36f,TCN,2024-06-25_11h57.52.334,LearnStrategy,2023.2.3,Win32,60.0240096,4,1,15,0.101273148,-0.011574074,1,0,0,1.248,rock_grid_rect_2,6,10,-1,-1,1.248,-0.111111111,-0.390625,1,0,0,1.184,Pegmatite_rect,6,1.184,1,14,0,14,0,1,,,,,,,,,,,,,
62734ce38db73cd5bd81a36f,TCN,2024-06-25_11h57.52.334,LearnStrategy,2023.2.3,Win32,60.0240096,4,1,16,-0.005208333,-0.000578704,1,0,0,1.049,rock_grid_rect_2,3,13,-1,-1,1.049,0.185763889,-0.244791667,1,0,0,1.203,Diorite_rect,3,1.203,1,15,0,15,0,1,,,,,,,,,,,,,
62734ce38db73cd5bd81a36f,TCN,2024-06-25_11h57.52.334,LearnStrategy,2023.2.3,Win32,60.0240096,4,2,1,,,,,,,,8,05,,,,,,,,,,,8,1.511,1,,,,,,0.369212963,-0.392361111,1,0,0,1.511,Pumice_rect,0,0,0,0,1,
62734ce38db73cd5bd81a36f,TCN,2024-06-25_11h57.52.334,LearnStrategy,2023.2.3,Win32,60.0240096,4,2,2,,,,,,,,6,11,,,,,,,,,,,6,1.301,1,,,,,,-0.123263889,-0.378472222,1,0,0,1.301,Pegmatite_rect,1,0,1,0,1,
62734ce38db73cd5bd81a36f,TCN,2024-06-25_11h57.52.334,LearnStrategy,2023.2.3,Win32,60.0240096,4,2,3,,,,,,,,7,13,,,,,,,,,,,7,1.127,1,,,,,,0.115162037,-0.389467593,1,0,0,1.127,Peridotite_rect,2,0,2,0,1,
62734ce38db73cd5bd81a36f,TCN,2024-06-25_11h57.52.334,LearnStrategy,2023.2.3,Win32,60.0240096,4,2,4,,,,,,,,1,07,,,,,,,,,,,1,7.067,1,,,,,,-0.338541667,-0.255787037,1,0,0,7.067,Andesite_rect,3,0,3,0,1,
62734ce38db73cd5bd81a36f,TCN,2024-06-25_11h57.52.334,LearnStrategy,2023.2.3,Win32,60.0240096,4,2,5,,,,,,,,4,05,,,,,,,,,,,7,4.924,0,,,,,,0.114583333,-0.404513889,1,0,0,4.924,Peridotite_rect,4,0,4,0,1,
62734ce38db73cd5bd81a36f,TCN,2024-06-25_11h57.52.334,LearnStrategy,2023.2.3,Win32,60.0240096,4,2,6,,,,,,,,6,08,,,,,,,,,,,6,1.285,1,,,,,,-0.111111111,-0.396412037,1,0,0,1.285,Pegmatite_rect,5,0,5,0,1,
62734ce38db73cd5bd81a36f,TCN,2024-06-25_11h57.52.334,LearnStrategy,2023.2.3,Win32,60.0240096,4,2,7,,,,,,,,4,15,,,,,,,,,,,4,2.864,1,,,,,,0.385416667,-0.254050926,1,0,0,2.864,Gabbro_rect,6,0,6,0,1,
62734ce38db73cd5bd81a36f,TCN,2024-06-25_11h57.52.334,LearnStrategy,2023.2.3,Win32,60.0240096,4,2,8,,,,,,,,3,06,,,,,,,,,,,3,1.243,1,,,,,,0.135416667,-0.240162037,1,0,0,1.243,Diorite_rect,7,0,7,0,1,
62734ce38db73cd5bd81a36f,TCN,2024-06-25_11h57.52.334,LearnStrategy,2023.2.3,Win32,60.0240096,4,2,9,,,,,,,,5,10,,,,,,,,,,,5,1.453,1,,,,,,-0.373842593,-0.392361111,1,0,0,1.453,Obsidian_rect,8,0,8,0,1,
62734ce38db73cd5bd81a36f,TCN,2024-06-25_11h57.52.334,LearnStrategy,2023.2.3,Win32,60.0240096,4,2,10,,,,,,,,2,12,,,,,,,,,,,2,2.062,1,,,,,,-0.124421296,-0.253472222,1,0,0,2.062,Basalt_rect,9,0,9,0,1,
62734ce38db73cd5bd81a36f,TCN,2024-06-25_11h57.52.334,LearnStrategy,2023.2.3,Win32,60.0240096,4,2,11,,,,,,,,1,03,,,,,,,,,,,1,5.383,1,,,,,,-0.333333333,-0.240162037,1,0,0,5.383,Andesite_rect,10,0,10,0,1,
62734ce38db73cd5bd81a36f,TCN,2024-06-25_11h57.52.334,LearnStrategy,2023.2.3,Win32,60.0240096,4,2,12,,,,,,,,7,12,,,,,,,,,,,7,1.244,1,,,,,,0.126157407,-0.409143519,1,0,0,1.244,Peridotite_rect,11,0,11,0,1,
62734ce38db73cd5bd81a36f,TCN,2024-06-25_11h57.52.334,LearnStrategy,2023.2.3,Win32,60.0240096,4,2,13,,,,,,,,5,07,,,,,,,,,,,5,1.148,1,,,,,,-0.351273148,-0.421296296,1,0,0,1.148,Obsidian_rect,12,0,12,0,1,
62734ce38db73cd5bd81a36f,TCN,2024-06-25_11h57.52.334,LearnStrategy,2023.2.3,Win32,60.0240096,4,2,14,,,,,,,,8,06,,,,,,,,,,,8,1.37,1,,,,,,0.429976852,-0.404513889,1,0,0,1.37,Pumice_rect,13,0,13,0,1,
62734ce38db73cd5bd81a36f,TCN,2024-06-25_11h57.52.334,LearnStrategy,2023.2.3,Win32,60.0240096,4,2,15,,,,,,,,3,10,,,,,,,,,,,3,1.17,1,,,,,,0.149884259,-0.258680556,1,0,0,1.17,Diorite_rect,14,0,14,0,1,
62734ce38db73cd5bd81a36f,TCN,2024-06-25_11h57.52.334,LearnStrategy,2023.2.3,Win32,60.0240096,4,2,16,,,,,,,,2,10,,,,,,,,,,,4,2.588,0,,,,,,0.349537037,-0.230902778,1,0,0,2.588,Gabbro_rect,15,0,15,0,1,
62734ce38db73cd5bd81a36f,TCN,2024-06-25_11h57.52.334,LearnStrategy,2023.2.3,Win32,60.0240096,5,1,1,0.019097222,-0.005208333,1,0,0,0.91,rock_grid_rect_2,3,08,-1,-1,0.91,0.12037037,-0.241898148,1,0,0,1.103,Diorite_rect,3,1.103,1,0,0,0,0,1,,,,,,,,,,,,,
62734ce38db73cd5bd81a36f,TCN,2024-06-25_11h57.52.334,LearnStrategy,2023.2.3,Win32,60.0240096,5,1,2,0.05787037,-0.02025463,1,0,0,0.915,rock_grid_rect_2,6,13,-1,-1,0.915,-0.446759259,-0.251157407,1,0,0,2.05,Andesite_rect,1,2.05,0,1,0,1,0,1,,,,,,,,,,,,,
62734ce38db73cd5bd81a36f,TCN,2024-06-25_11h57.52.334,LearnStrategy,2023.2.3,Win32,60.0240096,5,1,3,-0.016782407,0.005787037,1,0,0,1.815,rock_grid_rect_2,3,07,-1,-1,1.815,0.175347222,-0.238425926,1,0,0,1.251,Diorite_rect,3,1.251,1,2,0,2,0,1,,,,,,,,,,,,,
62734ce38db73cd5bd81a36f,TCN,2024-06-25_11h57.52.334,LearnStrategy,2023.2.3,Win32,60.0240096,5,1,4,0.031828704,0.008101852,1,0,0,0.832,rock_grid_rect_2,2,02,-1,-1,0.832,-0.186342593,-0.237268519,1,0,0,1.015,Basalt_rect,2,1.015,1,3,0,3,0,1,,,,,,,,,,,,,
62734ce38db73cd5bd81a36f,TCN,2024-06-25_11h57.52.334,LearnStrategy,2023.2.3,Win32,60.0240096,5,1,5,-0.013310185,0.004050926,1,0,0,48.434,rock_grid_rect_2,5,16,-1,-1,48.434,-0.407986111,-0.391782407,1,0,0,1.363,Obsidian_rect,5,1.363,1,4,0,4,0,1,,,,,,,,,,,,,
62734ce38db73cd5bd81a36f,TCN,2024-06-25_11h57.52.334,LearnStrategy,2023.2.3,Win32,60.0240096,5,1,6,-0.045717593,-0.011574074,1,0,0,0.931,rock_grid_rect_2,1,11,-1,-1,0.931,-0.394675926,-0.239583333,1,0,0,6.258,Andesite_rect,1,6.258,1,5,0,5,0,1,,,,,,,,,,,,,
62734ce38db73cd5bd81a36f,TCN,2024-06-25_11h57.52.334,LearnStrategy,2023.2.3,Win32,60.0240096,5,1,7,0.03587963,0.003472222,1,0,0,0.932,rock_grid_rect_2,8,09,-1,-1,0.932,0.380208333,-0.420138889,1,0,0,1.569,Pumice_rect,8,1.569,1,6,0,6,0,1,,,,,,,,,,,,,
62734ce38db73cd5bd81a36f,TCN,2024-06-25_11h57.52.334,LearnStrategy,2023.2.3,Win32,60.0240096,5,1,8,0.045138889,-0.016203704,1,0,0,0.86,rock_grid_rect_2,7,06,-1,-1,0.86,0.117476852,-0.390046296,1,0,0,1.408,Peridotite_rect,7,1.408,1,7,0,7,0,1,,,,,,,,,,,,,
62734ce38db73cd5bd81a36f,TCN,2024-06-25_11h57.52.334,LearnStrategy,2023.2.3,Win32,60.0240096,5,1,9,0.007523148,-0.019097222,1,0,0,0.698,rock_grid_rect_2,2,16,-1,-1,0.698,-0.116898148,-0.255787037,1,0,0,4.658,Basalt_rect,2,4.658,1,8,0,8,0,1,,,,,,,,,,,,,
62734ce38db73cd5bd81a36f,TCN,2024-06-25_11h57.52.334,LearnStrategy,2023.2.3,Win32,60.0240096,5,1,10,0.014467593,0.008680556,1,0,0,0.963,rock_grid_rect_2,6,15,-1,-1,0.963,-0.126157407,-0.417824074,1,0,0,1.235,Pegmatite_rect,6,1.235,1,9,0,9,0,1,,,,,,,,,,,,,
62734ce38db73cd5bd81a36f,TCN,2024-06-25_11h57.52.334,LearnStrategy,2023.2.3,Win32,60.0240096,5,1,11,-0.019675926,-0.020833333,1,0,0,0.758,rock_grid_rect_2,4,14,-1,-1,0.758,0.402777778,-0.248842593,1,0,0,1.468,Gabbro_rect,4,1.468,1,10,0,10,0,1,,,,,,,,,,,,,
62734ce38db73cd5bd81a36f,TCN,2024-06-25_11h57.52.334,LearnStrategy,2023.2.3,Win32,60.0240096,5,1,12,-0.068287037,-0.003472222,1,0,0,1.026,rock_grid_rect_2,8,02,-1,-1,1.026,0.381365741,-0.404513889,1,0,0,1.433,Pumice_rect,8,1.433,1,11,0,11,0,1,,,,,,,,,,,,,
62734ce38db73cd5bd81a36f,TCN,2024-06-25_11h57.52.334,LearnStrategy,2023.2.3,Win32,60.0240096,5,1,13,-0.061342593,-0.014467593,1,0,0,0.666,rock_grid_rect_2,7,07,-1,-1,0.666,0.131944444,-0.390046296,1,0,0,1.142,Peridotite_rect,7,1.142,1,12,0,12,0,1,,,,,,,,,,,,,
62734ce38db73cd5bd81a36f,TCN,2024-06-25_11h57.52.334,LearnStrategy,2023.2.3,Win32,60.0240096,5,1,14,0.013310185,-0.005787037,1,0,0,0.95,rock_grid_rect_2,5,14,-1,-1,0.95,-0.395833333,-0.420138889,1,0,0,1.308,Obsidian_rect,5,1.308,1,13,0,13,0,1,,,,,,,,,,,,,
62734ce38db73cd5bd81a36f,TCN,2024-06-25_11h57.52.334,LearnStrategy,2023.2.3,Win32,60.0240096,5,1,15,0.03125,0.005787037,1,0,0,0.832,rock_grid_rect_2,4,16,-1,-1,0.832,0.423611111,-0.230902778,1,0,0,1.538,Gabbro_rect,4,1.538,1,14,0,14,0,1,,,,,,,,,,,,,
62734ce38db73cd5bd81a36f,TCN,2024-06-25_11h57.52.334,LearnStrategy,2023.2.3,Win32,60.0240096,5,1,16,0.023148148,-0.024884259,1,0,0,0.771,rock_grid_rect_2,1,06,-1,-1,0.771,0.141203704,-0.255208333,1,0,0,1.448,Diorite_rect,3,1.448,0,15,0,15,0,1,,,,,,,,,,,,,
62734ce38db73cd5bd81a36f,TCN,2024-06-25_11h57.52.334,LearnStrategy,2023.2.3,Win32,60.0240096,5,2,1,,,,,,,,3,02,,,,,,,,,,,3,1.031,1,,,,,,0.118055556,-0.252314815,1,0,0,1.031,Diorite_rect,0,0,0,0,1,
62734ce38db73cd5bd81a36f,TCN,2024-06-25_11h57.52.334,LearnStrategy,2023.2.3,Win32,60.0240096,5,2,2,,,,,,,,4,10,,,,,,,,,,,4,3.07,1,,,,,,0.446180556,-0.255208333,1,0,0,3.07,Gabbro_rect,1,0,1,0,1,
62734ce38db73cd5bd81a36f,TCN,2024-06-25_11h57.52.334,LearnStrategy,2023.2.3,Win32,60.0240096,5,2,3,,,,,,,,7,04,,,,,,,,,,,6,1.937,0,,,,,,-0.118055556,-0.388310185,1,0,0,1.937,Pegmatite_rect,2,0,2,0,1,
62734ce38db73cd5bd81a36f,TCN,2024-06-25_11h57.52.334,LearnStrategy,2023.2.3,Win32,60.0240096,5,2,4,,,,,,,,7,02,,,,,,,,,,,7,1.69,1,,,,,,0.134837963,-0.390625,1,0,0,1.69,Peridotite_rect,3,0,3,0,1,
62734ce38db73cd5bd81a36f,TCN,2024-06-25_11h57.52.334,LearnStrategy,2023.2.3,Win32,60.0240096,5,2,5,,,,,,,,1,04,,,,,,,,,,,1,2.918,1,,,,,,-0.366898148,-0.247106481,1,0,0,2.918,Andesite_rect,4,0,4,0,1,
62734ce38db73cd5bd81a36f,TCN,2024-06-25_11h57.52.334,LearnStrategy,2023.2.3,Win32,60.0240096,5,2,6,,,,,,,,3,12,,,,,,,,,,,3,1.307,1,,,,,,0.137731481,-0.267361111,1,0,0,1.307,Diorite_rect,5,0,5,0,1,
62734ce38db73cd5bd81a36f,TCN,2024-06-25_11h57.52.334,LearnStrategy,2023.2.3,Win32,60.0240096,5,2,7,,,,,,,,6,05,,,,,,,,,,,6,4.121,1,,,,,,-0.087962963,-0.381944444,1,0,0,4.121,Pegmatite_rect,6,0,6,0,1,
62734ce38db73cd5bd81a36f,TCN,2024-06-25_11h57.52.334,LearnStrategy,2023.2.3,Win32,60.0240096,5,2,8,,,,,,,,2,01,,,,,,,,,,,2,4.984,1,,,,,,-0.159143519,-0.260416667,1,0,0,4.984,Basalt_rect,7,0,7,0,1,
62734ce38db73cd5bd81a36f,TCN,2024-06-25_11h57.52.334,LearnStrategy,2023.2.3,Win32,60.0240096,5,2,9,,,,,,,,4,08,,,,,,,,,,,7,4.039,0,,,,,,0.171296296,-0.408564815,1,0,0,4.039,Peridotite_rect,8,0,8,0,1,
62734ce38db73cd5bd81a36f,TCN,2024-06-25_11h57.52.334,LearnStrategy,2023.2.3,Win32,60.0240096,5,2,10,,,,,,,,1,01,,,,,,,,,,,1,4.422,1,,,,,,-0.474537037,-0.258101852,1,0,0,4.422,Andesite_rect,9,0,9,0,1,
62734ce38db73cd5bd81a36f,TCN,2024-06-25_11h57.52.334,LearnStrategy,2023.2.3,Win32,60.0240096,5,2,11,,,,,,,,5,12,,,,,,,,,,,5,1.112,1,,,,,,-0.376157407,-0.390046296,1,0,0,1.112,Obsidian_rect,10,0,10,0,1,
62734ce38db73cd5bd81a36f,TCN,2024-06-25_11h57.52.334,LearnStrategy,2023.2.3,Win32,60.0240096,5,2,12,,,,,,,,8,10,,,,,,,,,,,8,1.196,1,,,,,,0.402777778,-0.396412037,1,0,0,1.196,Pumice_rect,11,0,11,0,1,
62734ce38db73cd5bd81a36f,TCN,2024-06-25_11h57.52.334,LearnStrategy,2023.2.3,Win32,60.0240096,5,2,13,,,,,,,,2,04,,,,,,,,,,,2,1.077,1,,,,,,-0.116319444,-0.258680556,1,0,0,1.077,Basalt_rect,12,0,12,0,1,
62734ce38db73cd5bd81a36f,TCN,2024-06-25_11h57.52.334,LearnStrategy,2023.2.3,Win32,60.0240096,5,2,14,,,,,,,,8,16,,,,,,,,,,,2,5.217,0,,,,,,-0.081018519,-0.258680556,1,0,0,5.217,Basalt_rect,13,0,13,0,1,
62734ce38db73cd5bd81a36f,TCN,2024-06-25_11h57.52.334,LearnStrategy,2023.2.3,Win32,60.0240096,5,2,15,,,,,,,,6,06,,,,,,,,,,,6,2.665,1,,,,,,-0.090277778,-0.401041667,1,0,0,2.665,Pegmatite_rect,14,0,14,0,1,
62734ce38db73cd5bd81a36f,TCN,2024-06-25_11h57.52.334,LearnStrategy,2023.2.3,Win32,60.0240096,5,2,16,,,,,,,,5,09,,,,,,,,,,,5,1.102,1,,,,,,-0.366319444,-0.41087963,1,0,0,1.102,Obsidian_rect,15,0,15,0,1,
62734ce38db73cd5bd81a36f,TCN,2024-06-25_11h57.52.334,LearnStrategy,2023.2.3,Win32,60.0240096,6,1,1,0.037037037,-0.007523148,1,0,0,0.549,rock_grid_rect_2,8,14,-1,-1,0.549,0.373842593,-0.403935185,1,0,0,1.09,Pumice_rect,8,1.09,1,0,0,0,0,1,,,,,,,,,,,,,
62734ce38db73cd5bd81a36f,TCN,2024-06-25_11h57.52.334,LearnStrategy,2023.2.3,Win32,60.0240096,6,1,2,0.012731481,-0.022569444,1,0,0,0.845,rock_grid_rect_2,3,15,-1,-1,0.845,0.153935185,-0.244791667,1,0,0,1.401,Diorite_rect,3,1.401,1,1,0,1,0,1,,,,,,,,,,,,,
62734ce38db73cd5bd81a36f,TCN,2024-06-25_11h57.52.334,LearnStrategy,2023.2.3,Win32,60.0240096,6,1,3,0.056712963,-0.017939815,1,0,0,0.948,rock_grid_rect_2,4,09,-1,-1,0.948,-0.375,-0.384837963,1,0,0,1.838,Obsidian_rect,5,1.838,0,2,0,2,0,1,,,,,,,,,,,,,
62734ce38db73cd5bd81a36f,TCN,2024-06-25_11h57.52.334,LearnStrategy,2023.2.3,Win32,60.0240096,6,1,4,0.072916667,-0.013310185,1,0,0,1.215,rock_grid_rect_2,8,13,-1,-1,1.215,0.324074074,-0.410300926,1,0,0,1.602,Pumice_rect,8,1.602,1,3,0,3,0,1,,,,,,,,,,,,,
62734ce38db73cd5bd81a36f,TCN,2024-06-25_11h57.52.334,LearnStrategy,2023.2.3,Win32,60.0240096,6,1,5,-0.005787037,-0.019097222,1,0,0,0.582,rock_grid_rect_2,4,03,-1,-1,0.582,0.123263889,-0.245949074,1,0,0,1.046,Diorite_rect,3,1.046,0,4,0,4,0,1,,,,,,,,,,,,,
62734ce38db73cd5bd81a36f,TCN,2024-06-25_11h57.52.334,LearnStrategy,2023.2.3,Win32,60.0240096,6,1,6,0.017361111,-0.010416667,1,0,0,0.815,rock_grid_rect_2,7,15,-1,-1,0.815,0.141203704,-0.40162037,1,0,0,1.221,Peridotite_rect,7,1.221,1,5,0,5,0,1,,,,,,,,,,,,,
62734ce38db73cd5bd81a36f,TCN,2024-06-25_11h57.52.334,LearnStrategy,2023.2.3,Win32,60.0240096,6,1,7,0.004050926,-0.005787037,1,0,0,0.623,rock_grid_rect_2,7,08,-1,-1,0.623,0.085069444,-0.395833333,1,0,0,1.021,Peridotite_rect,7,1.021,1,6,0,6,0,1,,,,,,,,,,,,,
62734ce38db73cd5bd81a36f,TCN,2024-06-25_11h57.52.334,LearnStrategy,2023.2.3,Win32,60.0240096,6,1,8,0.047453704,-0.008680556,1,0,0,0.999,rock_grid_rect_2,6,07,-1,-1,0.999,-0.128472222,-0.396412037,1,0,0,1.351,Pegmatite_rect,6,1.351,1,7,0,7,0,1,,,,,,,,,,,,,
62734ce38db73cd5bd81a36f,TCN,2024-06-25_11h57.52.334,LearnStrategy,2023.2.3,Win32,60.0240096,6,1,9,-0.011574074,-0.005787037,1,0,0,0.715,rock_grid_rect_2,1,14,-1,-1,0.715,-0.342592593,-0.245949074,1,0,0,1.619,Andesite_rect,1,1.619,1,8,0,8,0,1,,,,,,,,,,,,,
62734ce38db73cd5bd81a36f,TCN,2024-06-25_11h57.52.334,LearnStrategy,2023.2.3,Win32,60.0240096,6,1,10,-0.015046296,0.013310185,1,0,0,0.865,rock_grid_rect_2,1,10,-1,-1,0.865,-0.380787037,-0.262731481,1,0,0,1.286,Andesite_rect,1,1.286,1,9,0,9,0,1,,,,,,,,,,,,,
62734ce38db73cd5bd81a36f,TCN,2024-06-25_11h57.52.334,LearnStrategy,2023.2.3,Win32,60.0240096,6,1,11,0.019675926,-0.012152778,1,0,0,0.866,rock_grid_rect_2,2,11,-1,-1,0.866,-0.126157407,-0.230324074,1,0,0,1.371,Basalt_rect,2,1.371,1,10,0,10,0,1,,,,,,,,,,,,,
62734ce38db73cd5bd81a36f,TCN,2024-06-25_11h57.52.334,LearnStrategy,2023.2.3,Win32,60.0240096,6,1,12,0.008101852,0.015625,1,0,0,0.664,rock_grid_rect_2,5,11,-1,-1,0.664,-0.411458333,-0.389467593,1,0,0,1.286,Obsidian_rect,5,1.286,1,11,0,11,0,1,,,,,,,,,,,,,
62734ce38db73cd5bd81a36f,TCN,2024-06-25_11h57.52.334,LearnStrategy,2023.2.3,Win32,60.0240096,6,1,13,0.005787037,-0.012731481,1,0,0,0.748,rock_grid_rect_2,6,16,-1,-1,0.748,-0.140046296,-0.382523148,1,0,0,1.335,Pegmatite_rect,6,1.335,1,12,0,12,0,1,,,,,,,,,,,,,
62734ce38db73cd5bd81a36f,TCN,2024-06-25_11h57.52.334,LearnStrategy,2023.2.3,Win32,60.0240096,6,1,14,-0.052083333,-0.010416667,1,0,0,0.911,rock_grid_rect_2,3,14,-1,-1,0.911,0.144675926,-0.237268519,1,0,0,1.098,Diorite_rect,3,1.098,1,13,0,13,0,1,,,,,,,,,,,,,
62734ce38db73cd5bd81a36f,TCN,2024-06-25_11h57.52.334,LearnStrategy,2023.2.3,Win32,60.0240096,6,1,15,-0.054398148,-0.021990741,1,0,0,0.728,rock_grid_rect_2,5,04,-1,-1,0.728,-0.336805556,-0.392361111,1,0,0,1.023,Obsidian_rect,5,1.023,1,14,0,14,0,1,,,,,,,,,,,,,
62734ce38db73cd5bd81a36f,TCN,2024-06-25_11h57.52.334,LearnStrategy,2023.2.3,Win32,60.0240096,6,1,16,0.037037037,-0.004050926,1,0,0,0.899,rock_grid_rect_2,2,08,-1,-1,0.899,-0.081018519,-0.267361111,1,0,0,1.831,Basalt_rect,2,1.831,1,15,0,15,0,1,,,,,,,,,,,,,
62734ce38db73cd5bd81a36f,TCN,2024-06-25_11h57.52.334,LearnStrategy,2023.2.3,Win32,60.0240096,6,2,1,,,,,,,,2,05,,,,,,,,,,,2,4.648,1,,,,,,-0.126157407,-0.250578704,1,0,0,4.648,Basalt_rect,0,0,0,0,1,
62734ce38db73cd5bd81a36f,TCN,2024-06-25_11h57.52.334,LearnStrategy,2023.2.3,Win32,60.0240096,6,2,2,,,,,,,,6,09,,,,,,,,,,,6,6.171,1,,,,,,-0.153356481,-0.410300926,1,0,0,6.171,Pegmatite_rect,1,0,1,0,1,
62734ce38db73cd5bd81a36f,TCN,2024-06-25_11h57.52.334,LearnStrategy,2023.2.3,Win32,60.0240096,6,2,3,,,,,,,,3,16,,,,,,,,,,,3,1.545,1,,,,,,0.139467593,-0.265046296,1,0,0,1.545,Diorite_rect,2,0,2,0,1,
62734ce38db73cd5bd81a36f,TCN,2024-06-25_11h57.52.334,LearnStrategy,2023.2.3,Win32,60.0240096,6,2,4,,,,,,,,4,12,,,,,,,,,,,4,2.644,1,,,,,,0.396990741,-0.253472222,1,0,0,2.644,Gabbro_rect,3,0,3,0,1,
62734ce38db73cd5bd81a36f,TCN,2024-06-25_11h57.52.334,LearnStrategy,2023.2.3,Win32,60.0240096,6,2,5,,,,,,,,7,14,,,,,,,,,,,7,1.368,1,,,,,,0.163194444,-0.406828704,1,0,0,1.368,Peridotite_rect,4,0,4,0,1,
62734ce38db73cd5bd81a36f,TCN,2024-06-25_11h57.52.334,LearnStrategy,2023.2.3,Win32,60.0240096,6,2,6,,,,,,,,8,08,,,,,,,,,,,8,1.184,1,,,,,,0.36400463,-0.39525463,1,0,0,1.184,Pumice_rect,5,0,5,0,1,
62734ce38db73cd5bd81a36f,TCN,2024-06-25_11h57.52.334,LearnStrategy,2023.2.3,Win32,60.0240096,6,2,7,,,,,,,,7,05,,,,,,,,,,,7,1.085,1,,,,,,0.086805556,-0.407407407,1,0,0,1.085,Peridotite_rect,6,0,6,0,1,
62734ce38db73cd5bd81a36f,TCN,2024-06-25_11h57.52.334,LearnStrategy,2023.2.3,Win32,60.0240096,6,2,8,,,,,,,,6,12,,,,,,,,,,,6,9.15,1,,,,,,-0.15625,-0.379050926,1,0,0,9.15,Pegmatite_rect,7,0,7,0,1,
62734ce38db73cd5bd81a36f,TCN,2024-06-25_11h57.52.334,LearnStrategy,2023.2.3,Win32,60.0240096,6,2,9,,,,,,,,5,02,,,,,,,,,,,5,1.166,1,,,,,,-0.392361111,-0.415509259,1,0,0,1.166,Obsidian_rect,8,0,8,0,1,
62734ce38db73cd5bd81a36f,TCN,2024-06-25_11h57.52.334,LearnStrategy,2023.2.3,Win32,60.0240096,6,2,10,,,,,,,,3,09,,,,,,,,,,,3,1.414,1,,,,,,0.10474537,-0.258101852,1,0,0,1.414,Diorite_rect,9,0,9,0,1,
62734ce38db73cd5bd81a36f,TCN,2024-06-25_11h57.52.334,LearnStrategy,2023.2.3,Win32,60.0240096,6,2,11,,,,,,,,2,14,,,,,,,,,,,2,3.082,1,,,,,,-0.103009259,-0.258101852,1,0,0,3.082,Basalt_rect,10,0,10,0,1,
62734ce38db73cd5bd81a36f,TCN,2024-06-25_11h57.52.334,LearnStrategy,2023.2.3,Win32,60.0240096,6,2,12,,,,,,,,5,05,,,,,,,,,,,5,1.468,1,,,,,,-0.364583333,-0.387731481,1,0,0,1.468,Obsidian_rect,11,0,11,0,1,
62734ce38db73cd5bd81a36f,TCN,2024-06-25_11h57.52.334,LearnStrategy,2023.2.3,Win32,60.0240096,6,2,13,,,,,,,,1,16,,,,,,,,,,,1,4.116,1,,,,,,-0.356481481,-0.244212963,1,0,0,4.116,Andesite_rect,12,0,12,0,1,
62734ce38db73cd5bd81a36f,TCN,2024-06-25_11h57.52.334,LearnStrategy,2023.2.3,Win32,60.0240096,6,2,14,,,,,,,,4,11,,,,,,,,,,,4,3.851,1,,,,,,0.386574074,-0.248842593,1,0,0,3.851,Gabbro_rect,13,0,13,0,1,
62734ce38db73cd5bd81a36f,TCN,2024-06-25_11h57.52.334,LearnStrategy,2023.2.3,Win32,60.0240096,6,2,15,,,,,,,,1,09,,,,,,,,,,,1,3.588,1,,,,,,-0.315972222,-0.254050926,1,0,0,3.588,Andesite_rect,14,0,14,0,1,
62734ce38db73cd5bd81a36f,TCN,2024-06-25_11h57.52.334,LearnStrategy,2023.2.3,Win32,60.0240096,6,2,16,,,,,,,,8,04,,,,,,,,,,,8,2.571,1,,,,,,0.341435185,-0.412615741,1,0,0,2.571,Pumice_rect,15,0,15,0,1,
62734ce38db73cd5bd81a36f,TCN,2024-06-25_11h57.52.334,LearnStrategy,2023.2.3,Win32,60.0240096,7,1,1,0.087384259,0.001736111,1,0,0,21.72,rock_grid_rect_2,4,03,-1,-1,21.72,0.351851852,-0.246527778,1,0,0,2.218,Gabbro_rect,4,2.218,1,0,0,0,0,1,,,,,,,,,,,,,
62734ce38db73cd5bd81a36f,TCN,2024-06-25_11h57.52.334,LearnStrategy,2023.2.3,Win32,60.0240096,7,1,2,0.013310185,-0.010416667,1,0,0,0.932,rock_grid_rect_2,1,02,-1,-1,0.932,-0.357060185,-0.254050926,1,0,0,1.101,Andesite_rect,1,1.101,1,1,0,1,0,1,,,,,,,,,,,,,
62734ce38db73cd5bd81a36f,TCN,2024-06-25_11h57.52.334,LearnStrategy,2023.2.3,Win32,60.0240096,7,1,3,0.002314815,-0.009837963,1,0,0,0.816,rock_grid_rect_2,1,06,-1,-1,0.816,-0.414351852,-0.234953704,1,0,0,2.004,Andesite_rect,1,2.004,1,2,0,2,0,1,,,,,,,,,,,,,
62734ce38db73cd5bd81a36f,TCN,2024-06-25_11h57.52.334,LearnStrategy,2023.2.3,Win32,60.0240096,7,1,4,0.02662037,0.002314815,1,0,0,0.814,rock_grid_rect_2,5,06,-1,-1,0.814,-0.327546296,-0.416666667,1,0,0,1.926,Obsidian_rect,5,1.926,1,3,0,3,0,1,,,,,,,,,,,,,
62734ce38db73cd5bd81a36f,TCN,2024-06-25_11h57.52.334,LearnStrategy,2023.2.3,Win32,60.0240096,7,1,5,0.015625,-0.010416667,1,0,0,0.792,rock_grid_rect_2,6,16,-1,-1,0.792,-0.141203704,-0.383680556,1,0,0,1.209,Pegmatite_rect,6,1.209,1,4,0,4,0,1,,,,,,,,,,,,,
62734ce38db73cd5bd81a36f,TCN,2024-06-25_11h57.52.334,LearnStrategy,2023.2.3,Win32,60.0240096,7,1,6,-0.08912037,-0.008680556,1,0,0,0.811,rock_grid_rect_2,2,09,-1,-1,0.811,-0.143518519,-0.237847222,1,0,0,1.383,Basalt_rect,2,1.383,1,5,0,5,0,1,,,,,,,,,,,,,
62734ce38db73cd5bd81a36f,TCN,2024-06-25_11h57.52.334,LearnStrategy,2023.2.3,Win32,60.0240096,7,1,7,-0.038194444,-0.000578704,1,0,0,0.666,rock_grid_rect_2,3,08,-1,-1,0.666,0.10474537,-0.233796296,1,0,0,1.057,Diorite_rect,3,1.057,1,6,0,6,0,1,,,,,,,,,,,,,
62734ce38db73cd5bd81a36f,TCN,2024-06-25_11h57.52.334,LearnStrategy,2023.2.3,Win32,60.0240096,7,1,8,-0.072916667,0.003472222,1,0,0,0.781,rock_grid_rect_2,3,15,-1,-1,0.781,0.149884259,-0.240162037,1,0,0,2.151,Diorite_rect,3,2.151,1,7,0,7,0,1,,,,,,,,,,,,,
62734ce38db73cd5bd81a36f,TCN,2024-06-25_11h57.52.334,LearnStrategy,2023.2.3,Win32,60.0240096,7,1,9,-0.018518519,0.001736111,1,0,0,0.642,rock_grid_rect_2,5,16,-1,-1,0.642,-0.396990741,-0.413773148,1,0,0,1.092,Obsidian_rect,5,1.092,1,8,0,8,0,1,,,,,,,,,,,,,
62734ce38db73cd5bd81a36f,TCN,2024-06-25_11h57.52.334,LearnStrategy,2023.2.3,Win32,60.0240096,7,1,10,0.070601852,-0.024884259,1,0,0,0.815,rock_grid_rect_2,7,16,-1,-1,0.815,0.108796296,-0.385416667,1,0,0,1.086,Peridotite_rect,7,1.086,1,9,0,9,0,1,,,,,,,,,,,,,
62734ce38db73cd5bd81a36f,TCN,2024-06-25_11h57.52.334,LearnStrategy,2023.2.3,Win32,60.0240096,7,1,11,-0.045717593,0.02025463,1,0,0,0.62,rock_grid_rect_2,8,13,-1,-1,0.62,0.370949074,-0.380787037,1,0,0,0.94,Pumice_rect,8,0.94,1,10,0,10,0,1,,,,,,,,,,,,,
62734ce38db73cd5bd81a36f,TCN,2024-06-25_11h57.52.334,LearnStrategy,2023.2.3,Win32,60.0240096,7,1,12,0.023726852,-0.003472222,1,0,0,1.148,rock_grid_rect_2,7,15,-1,-1,1.148,0.127893519,-0.391203704,1,0,0,1.053,Peridotite_rect,7,1.053,1,11,0,11,0,1,,,,,,,,,,,,,
62734ce38db73cd5bd81a36f,TCN,2024-06-25_11h57.52.334,LearnStrategy,2023.2.3,Win32,60.0240096,7,1,13,0.028935185,0.005787037,1,0,0,0.712,rock_grid_rect_2,8,02,-1,-1,0.712,0.461805556,-0.384259259,1,0,0,1.754,Pumice_rect,8,1.754,1,12,0,12,0,1,,,,,,,,,,,,,
62734ce38db73cd5bd81a36f,TCN,2024-06-25_11h57.52.334,LearnStrategy,2023.2.3,Win32,60.0240096,7,1,14,0.012731481,-0.007523148,1,0,0,0.641,rock_grid_rect_2,2,02,-1,-1,0.641,-0.100694444,-0.243634259,1,0,0,1.034,Basalt_rect,2,1.034,1,13,0,13,0,1,,,,,,,,,,,,,
62734ce38db73cd5bd81a36f,TCN,2024-06-25_11h57.52.334,LearnStrategy,2023.2.3,Win32,60.0240096,7,1,15,0.038194444,-0.005208333,1,0,0,1.144,rock_grid_rect_2,4,16,-1,-1,1.144,0.454861111,-0.265046296,1,0,0,0.925,Gabbro_rect,4,0.925,1,14,0,14,0,1,,,,,,,,,,,,,
62734ce38db73cd5bd81a36f,TCN,2024-06-25_11h57.52.334,LearnStrategy,2023.2.3,Win32,60.0240096,7,1,16,-0.016203704,0.008101852,1,0,0,0.715,rock_grid_rect_2,6,10,-1,-1,0.715,-0.079861111,-0.408564815,1,0,0,1.451,Pegmatite_rect,6,1.451,1,15,0,15,0,1,,,,,,,,,,,,,
62734ce38db73cd5bd81a36f,TCN,2024-06-25_11h57.52.334,LearnStrategy,2023.2.3,Win32,60.0240096,7,2,1,,,,,,,,3,06,,,,,,,,,,,3,1.043,1,,,,,,0.09375,-0.251736111,1,0,0,1.043,Diorite_rect,0,0,0,0,1,
62734ce38db73cd5bd81a36f,TCN,2024-06-25_11h57.52.334,LearnStrategy,2023.2.3,Win32,60.0240096,7,2,2,,,,,,,,4,10,,,,,,,,,,,4,2.02,1,,,,,,0.396990741,-0.242476852,1,0,0,2.02,Gabbro_rect,1,0,1,0,1,
62734ce38db73cd5bd81a36f,TCN,2024-06-25_11h57.52.334,LearnStrategy,2023.2.3,Win32,60.0240096,7,2,3,,,,,,,,8,16,,,,,,,,,,,2,1.312,0,,,,,,-0.153356481,-0.24537037,1,0,0,1.312,Basalt_rect,2,0,2,0,1,
62734ce38db73cd5bd81a36f,TCN,2024-06-25_11h57.52.334,LearnStrategy,2023.2.3,Win32,60.0240096,7,2,4,,,,,,,,8,10,,,,,,,,,,,8,1.346,1,,,,,,0.359953704,-0.40625,1,0,0,1.346,Pumice_rect,3,0,3,0,1,
62734ce38db73cd5bd81a36f,TCN,2024-06-25_11h57.52.334,LearnStrategy,2023.2.3,Win32,60.0240096,7,2,5,,,,,,,,4,08,,,,,,,,,,,7,4.916,0,,,,,,0.105324074,-0.385416667,1,0,0,4.916,Peridotite_rect,4,0,4,0,1,
62734ce38db73cd5bd81a36f,TCN,2024-06-25_11h57.52.334,LearnStrategy,2023.2.3,Win32,60.0240096,7,2,6,,,,,,,,2,12,,,,,,,,,,,2,1.347,1,,,,,,-0.163194444,-0.233217593,1,0,0,1.347,Basalt_rect,5,0,5,0,1,
62734ce38db73cd5bd81a36f,TCN,2024-06-25_11h57.52.334,LearnStrategy,2023.2.3,Win32,60.0240096,7,2,7,,,,,,,,5,05,,,,,,,,,,,5,1.219,1,,,,,,-0.407986111,-0.413773148,1,0,0,1.219,Obsidian_rect,6,0,6,0,1,
62734ce38db73cd5bd81a36f,TCN,2024-06-25_11h57.52.334,LearnStrategy,2023.2.3,Win32,60.0240096,7,2,8,,,,,,,,6,06,,,,,,,,,,,6,1.602,1,,,,,,-0.177083333,-0.409143519,1,0,0,1.602,Pegmatite_rect,7,0,7,0,1,
62734ce38db73cd5bd81a36f,TCN,2024-06-25_11h57.52.334,LearnStrategy,2023.2.3,Win32,60.0240096,7,2,9,,,,,,,,7,02,,,,,,,,,,,7,0.935,1,,,,,,0.109375,-0.398148148,1,0,0,0.935,Peridotite_rect,8,0,8,0,1,
62734ce38db73cd5bd81a36f,TCN,2024-06-25_11h57.52.334,LearnStrategy,2023.2.3,Win32,60.0240096,7,2,10,,,,,,,,6,09,,,,,,,,,,,6,1.085,1,,,,,,-0.143518519,-0.417824074,1,0,0,1.085,Pegmatite_rect,9,0,9,0,1,
62734ce38db73cd5bd81a36f,TCN,2024-06-25_11h57.52.334,LearnStrategy,2023.2.3,Win32,60.0240096,7,2,11,,,,,,,,3,10,,,,,,,,,,,3,1.253,1,,,,,,0.149884259,-0.230324074,1,0,0,1.253,Diorite_rect,10,0,10,0,1,
62734ce38db73cd5bd81a36f,TCN,2024-06-25_11h57.52.334,LearnStrategy,2023.2.3,Win32,60.0240096,7,2,12,,,,,,,,1,03,,,,,,,,,,,2,0.994,0,,,,,,-0.146412037,-0.242476852,1,0,0,0.994,Basalt_rect,11,0,11,0,1,
62734ce38db73cd5bd81a36f,TCN,2024-06-25_11h57.52.334,LearnStrategy,2023.2.3,Win32,60.0240096,7,2,13,,,,,,,,5,07,,,,,,,,,,,5,2.368,1,,,,,,-0.359953704,-0.392939815,1,0,0,2.368,Obsidian_rect,12,0,12,0,1,
62734ce38db73cd5bd81a36f,TCN,2024-06-25_11h57.52.334,LearnStrategy,2023.2.3,Win32,60.0240096,7,2,14,,,,,,,,7,05,,,,,,,,,,,7,1.018,1,,,,,,0.107060185,-0.413194444,1,0,0,1.018,Peridotite_rect,13,0,13,0,1,
62734ce38db73cd5bd81a36f,TCN,2024-06-25_11h57.52.334,LearnStrategy,2023.2.3,Win32,60.0240096,7,2,15,,,,,,,,1,07,,,,,,,,,,,1,9.502,1,,,,,,-0.370949074,-0.246527778,1,0,0,9.502,Andesite_rect,14,0,14,0,1,
62734ce38db73cd5bd81a36f,TCN,2024-06-25_11h57.52.334,LearnStrategy,2023.2.3,Win32,60.0240096,7,2,16,,,,,,,,2,10,,,,,,,,,,,2,6.618,1,,,,,,-0.158564815,-0.258101852,1,0,0,6.618,Basalt_rect,15,0,15,0,1,
62734ce38db73cd5bd81a36f,TCN,2024-06-25_11h57.52.334,LearnStrategy,2023.2.3,Win32,60.0240096,8,1,1,0.003472222,0.008680556,1,0,0,1.898,rock_grid_rect_2,5,11,-1,-1,1.898,-0.355324074,-0.388310185,1,0,0,1.098,Obsidian_rect,5,1.098,1,0,0,0,0,1,,,,,,,,,,,,,
62734ce38db73cd5bd81a36f,TCN,2024-06-25_11h57.52.334,LearnStrategy,2023.2.3,Win32,60.0240096,8,1,2,0.004050926,-0.017361111,1,0,0,0.845,rock_grid_rect_2,4,14,-1,-1,0.845,0.375578704,-0.232060185,1,0,0,1.466,Gabbro_rect,4,1.466,1,1,0,1,0,1,,,,,,,,,,,,,
62734ce38db73cd5bd81a36f,TCN,2024-06-25_11h57.52.334,LearnStrategy,2023.2.3,Win32,60.0240096,8,1,3,0.03587963,-0.017361111,1,0,0,0.714,rock_grid_rect_2,4,01,-1,-1,0.714,0.149305556,-0.244212963,1,0,0,1.273,Diorite_rect,3,1.273,0,2,0,2,0,1,,,,,,,,,,,,,
62734ce38db73cd5bd81a36f,TCN,2024-06-25_11h57.52.334,LearnStrategy,2023.2.3,Win32,60.0240096,8,1,4,0.063657407,-0.005787037,1,0,0,0.915,rock_grid_rect_2,3,11,-1,-1,0.915,0.166087963,-0.246527778,1,0,0,1.151,Diorite_rect,3,1.151,1,3,0,3,0,1,,,,,,,,,,,,,
62734ce38db73cd5bd81a36f,TCN,2024-06-25_11h57.52.334,LearnStrategy,2023.2.3,Win32,60.0240096,8,1,5,0.119212963,-0.022569444,1,0,0,0.793,rock_grid_rect_2,8,09,-1,-1,0.793,0.476851852,-0.394097222,1,0,0,1.387,Pumice_rect,8,1.387,1,4,0,4,0,1,,,,,,,,,,,,,
62734ce38db73cd5bd81a36f,TCN,2024-06-25_11h57.52.334,LearnStrategy,2023.2.3,Win32,60.0240096,8,1,6,0.030092593,-0.008101852,1,0,0,0.853,rock_grid_rect_2,6,13,-1,-1,0.853,-0.135416667,-0.408564815,1,0,0,1.332,Pegmatite_rect,6,1.332,1,5,0,5,0,1,,,,,,,,,,,,,
62734ce38db73cd5bd81a36f,TCN,2024-06-25_11h57.52.334,LearnStrategy,2023.2.3,Win32,60.0240096,8,1,7,-0.02662037,0.012731481,1,0,0,0.583,rock_grid_rect_2,5,08,-1,-1,0.583,-0.383101852,-0.418402778,1,0,0,1.017,Obsidian_rect,5,1.017,1,6,0,6,0,1,,,,,,,,,,,,,
62734ce38db73cd5bd81a36f,TCN,2024-06-25_11h57.52.334,LearnStrategy,2023.2.3,Win32,60.0240096,8,1,8,0.126157407,-0.01099537,1,0,0,0.743,rock_grid_rect_2,1,14,-1,-1,0.743,-0.341435185,-0.235532407,1,0,0,1.453,Andesite_rect,1,1.453,1,7,0,7,0,1,,,,,,,,,,,,,
62734ce38db73cd5bd81a36f,TCN,2024-06-25_11h57.52.334,LearnStrategy,2023.2.3,Win32,60.0240096,8,1,9,0.02662037,0.001736111,1,0,0,0.632,rock_grid_rect_2,2,16,-1,-1,0.632,-0.158564815,-0.268518519,1,0,0,2.905,Basalt_rect,2,2.905,1,8,0,8,0,1,,,,,,,,,,,,,
62734ce38db73cd5bd81a36f,TCN,2024-06-25_11h57.52.334,LearnStrategy,2023.2.3,Win32,60.0240096,8,1,10,0.048611111,-0.017361111,1,0,0,0.959,rock_grid_rect_2,6,15,-1,-1,0.959,-0.128472222,-0.388888889,1,0,0,1.353,Pegmatite_rect,6,1.353,1,9,0,9,0,1,,,,,,,,,,,,,
62734ce38db73cd5bd81a36f,TCN,2024-06-25_11h57.52.334,LearnStrategy,2023.2.3,Win32,60.0240096,8,1,11,-0.001157407,0.008680556,1,0,0,0.682,rock_grid_rect_2,1,05,-1,-1,0.682,-0.321759259,-0.251736111,1,0,0,1.819,Andesite_rect,1,1.819,1,10,0,10,0,1,,,,,,,,,,,,,
62734ce38db73cd5bd81a36f,TCN,2024-06-25_11h57.52.334,LearnStrategy,2023.2.3,Win32,60.0240096,8,1,12,0.09375,-0.015046296,1,0,0,0.932,rock_grid_rect_2,8,03,-1,-1,0.932,0.40162037,-0.380787037,1,0,0,1.102,Pumice_rect,8,1.102,1,11,0,11,0,1,,,,,,,,,,,,,
62734ce38db73cd5bd81a36f,TCN,2024-06-25_11h57.52.334,LearnStrategy,2023.2.3,Win32,60.0240096,8,1,13,-0.060185185,0.002893519,1,0,0,0.696,rock_grid_rect_2,7,06,-1,-1,0.696,0.175347222,-0.396412037,1,0,0,2.239,Peridotite_rect,7,2.239,1,12,0,12,0,1,,,,,,,,,,,,,
62734ce38db73cd5bd81a36f,TCN,2024-06-25_11h57.52.334,LearnStrategy,2023.2.3,Win32,60.0240096,8,1,14,-0.045138889,-0.008101852,1,0,0,0.748,rock_grid_rect_2,2,06,-1,-1,0.748,-0.15162037,-0.244791667,1,0,0,1.27,Basalt_rect,2,1.27,1,13,0,13,0,1,,,,,,,,,,,,,
62734ce38db73cd5bd81a36f,TCN,2024-06-25_11h57.52.334,LearnStrategy,2023.2.3,Win32,60.0240096,8,1,15,-0.012152778,0.021990741,1,0,0,0.648,rock_grid_rect_2,3,14,-1,-1,0.648,0.164351852,-0.250578704,1,0,0,0.932,Diorite_rect,3,0.932,1,14,0,14,0,1,,,,,,,,,,,,,
62734ce38db73cd5bd81a36f,TCN,2024-06-25_11h57.52.334,LearnStrategy,2023.2.3,Win32,60.0240096,8,1,16,0.054398148,0.004050926,1,0,0,0.733,rock_grid_rect_2,7,07,-1,-1,0.733,0.138888889,-0.397569444,1,0,0,1.638,Peridotite_rect,7,1.638,1,15,0,15,0,1,,,,,,,,,,,,,
62734ce38db73cd5bd81a36f,TCN,2024-06-25_11h57.52.334,LearnStrategy,2023.2.3,Win32,60.0240096,8,2,1,,,,,,,,4,05,,,,,,,,,,,7,7.718,0,,,,,,0.157407407,-0.396412037,1,0,0,7.718,Peridotite_rect,0,0,0,0,1,
62734ce38db73cd5bd81a36f,TCN,2024-06-25_11h57.52.334,LearnStrategy,2023.2.3,Win32,60.0240096,8,2,2,,,,,,,,8,06,,,,,,,,,,,8,1.132,1,,,,,,0.461805556,-0.405671296,1,0,0,1.132,Pumice_rect,1,0,1,0,1,
62734ce38db73cd5bd81a36f,TCN,2024-06-25_11h57.52.334,LearnStrategy,2023.2.3,Win32,60.0240096,8,2,3,,,,,,,,8,08,,,,,,,,,,,8,2.947,1,,,,,,0.445601852,-0.417824074,1,0,0,2.947,Pumice_rect,2,0,2,0,1,
62734ce38db73cd5bd81a36f,TCN,2024-06-25_11h57.52.334,LearnStrategy,2023.2.3,Win32,60.0240096,8,2,4,,,,,,,,4,15,,,,,,,,,,,4,6.482,1,,,,,,0.465277778,-0.263888889,1,0,0,6.482,Gabbro_rect,3,0,3,0,1,
62734ce38db73cd5bd81a36f,TCN,2024-06-25_11h57.52.334,LearnStrategy,2023.2.3,Win32,60.0240096,8,2,5,,,,,,,,5,02,,,,,,,,,,,5,1.354,1,,,,,,-0.326967593,-0.414351852,1,0,0,1.354,Obsidian_rect,4,0,4,0,1,
62734ce38db73cd5bd81a36f,TCN,2024-06-25_11h57.52.334,LearnStrategy,2023.2.3,Win32,60.0240096,8,2,6,,,,,,,,7,12,,,,,,,,,,,7,1.11,1,,,,,,0.186921296,-0.396412037,1,0,0,1.11,Peridotite_rect,5,0,5,0,1,
62734ce38db73cd5bd81a36f,TCN,2024-06-25_11h57.52.334,LearnStrategy,2023.2.3,Win32,60.0240096,8,2,7,,,,,,,,5,09,,,,,,,,,,,5,1.134,1,,,,,,-0.303240741,-0.405671296,1,0,0,1.134,Obsidian_rect,6,0,6,0,1,
62734ce38db73cd5bd81a36f,TCN,2024-06-25_11h57.52.334,LearnStrategy,2023.2.3,Win32,60.0240096,8,2,8,,,,,,,,3,09,,,,,,,,,,,3,1.001,1,,,,,,0.162037037,-0.251157407,1,0,0,1.001,Diorite_rect,7,0,7,0,1,
62734ce38db73cd5bd81a36f,TCN,2024-06-25_11h57.52.334,LearnStrategy,2023.2.3,Win32,60.0240096,8,2,9,,,,,,,,1,09,,,,,,,,,,,1,1.862,1,,,,,,-0.385416667,-0.234953704,1,0,0,1.862,Andesite_rect,8,0,8,0,1,
62734ce38db73cd5bd81a36f,TCN,2024-06-25_11h57.52.334,LearnStrategy,2023.2.3,Win32,60.0240096,8,2,10,,,,,,,,6,11,,,,,,,,,,,6,1.019,1,,,,,,-0.165509259,-0.398726852,1,0,0,1.019,Pegmatite_rect,9,0,9,0,1,
62734ce38db73cd5bd81a36f,TCN,2024-06-25_11h57.52.334,LearnStrategy,2023.2.3,Win32,60.0240096,8,2,11,,,,,,,,2,05,,,,,,,,,,,2,1.066,1,,,,,,-0.164351852,-0.266782407,1,0,0,1.066,Basalt_rect,10,0,10,0,1,
62734ce38db73cd5bd81a36f,TCN,2024-06-25_11h57.52.334,LearnStrategy,2023.2.3,Win32,60.0240096,8,2,12,,,,,,,,1,16,,,,,,,,,,,1,1.87,1,,,,,,-0.384837963,-0.267361111,1,0,0,1.87,Andesite_rect,11,0,11,0,1,
62734ce38db73cd5bd81a36f,TCN,2024-06-25_11h57.52.334,LearnStrategy,2023.2.3,Win32,60.0240096,8,2,13,,,,,,,,3,02,,,,,,,,,,,3,1.336,1,,,,,,0.061342593,-0.259837963,1,0,0,1.336,Diorite_rect,12,0,12,0,1,
62734ce38db73cd5bd81a36f,TCN,2024-06-25_11h57.52.334,LearnStrategy,2023.2.3,Win32,60.0240096,8,2,14,,,,,,,,2,01,,,,,,,,,,,2,1.211,1,,,,,,-0.104166667,-0.261574074,1,0,0,1.211,Basalt_rect,13,0,13,0,1,
62734ce38db73cd5bd81a36f,TCN,2024-06-25_11h57.52.334,LearnStrategy,2023.2.3,Win32,60.0240096,8,2,15,,,,,,,,6,08,,,,,,,,,,,6,0.945,1,,,,,,-0.130208333,-0.401041667,1,0,0,0.945,Pegmatite_rect,14,0,14,0,1,
62734ce38db73cd5bd81a36f,TCN,2024-06-25_11h57.52.334,LearnStrategy,2023.2.3,Win32,60.0240096,8,2,16,,,,,,,,7,13,,,,,,,,,,,7,0.902,1,,,,,,0.100694444,-0.398148148,1,0,0,0.902,Peridotite_rect,15,0,15,0,1,
62734ce38db73cd5bd81a36f,TCN,2024-06-25_11h57.52.334,LearnStrategy,2023.2.3,Win32,60.0240096,9,1,1,0.030671296,0.019675926,1,0,0,0.849,rock_grid_rect_2,1,10,-1,-1,0.849,-0.315972222,-0.258101852,1,0,0,1.603,Andesite_rect,1,1.603,1,0,0,0,0,1,,,,,,,,,,,,,
62734ce38db73cd5bd81a36f,TCN,2024-06-25_11h57.52.334,LearnStrategy,2023.2.3,Win32,60.0240096,9,1,2,0.076388889,0.017939815,1,0,0,0.764,rock_grid_rect_2,2,11,-1,-1,0.764,-0.063657407,-0.243634259,1,0,0,1.151,Basalt_rect,2,1.151,1,1,0,1,0,1,,,,,,,,,,,,,
62734ce38db73cd5bd81a36f,TCN,2024-06-25_11h57.52.334,LearnStrategy,2023.2.3,Win32,60.0240096,9,1,3,0.063078704,-0.010416667,1,0,0,0.648,rock_grid_rect_2,4,09,-1,-1,0.648,0.391782407,-0.241898148,1,0,0,1.955,Gabbro_rect,4,1.955,1,2,0,2,0,1,,,,,,,,,,,,,
62734ce38db73cd5bd81a36f,TCN,2024-06-25_11h57.52.334,LearnStrategy,2023.2.3,Win32,60.0240096,9,1,4,0.056712963,-0.012731481,1,0,0,0.73,rock_grid_rect_2,7,08,-1,-1,0.73,0.115740741,-0.407986111,1,0,0,0.982,Peridotite_rect,7,0.982,1,3,0,3,0,1,,,,,,,,,,,,,
62734ce38db73cd5bd81a36f,TCN,2024-06-25_11h57.52.334,LearnStrategy,2023.2.3,Win32,60.0240096,9,1,5,0.025462963,0.002314815,1,0,0,0.765,rock_grid_rect_2,3,13,-1,-1,0.765,0.142361111,-0.245949074,1,0,0,0.908,Diorite_rect,3,0.908,1,4,0,4,0,1,,,,,,,,,,,,,
62734ce38db73cd5bd81a36f,TCN,2024-06-25_11h57.52.334,LearnStrategy,2023.2.3,Win32,60.0240096,9,1,6,0.025462963,-0.003472222,1,0,0,0.648,rock_grid_rect_2,6,07,-1,-1,0.648,-0.150462963,-0.382523148,1,0,0,0.951,Pegmatite_rect,6,0.951,1,5,0,5,0,1,,,,,,,,,,,,,
62734ce38db73cd5bd81a36f,TCN,2024-06-25_11h57.52.334,LearnStrategy,2023.2.3,Win32,60.0240096,9,1,7,0.104166667,-0.007523148,1,0,0,0.682,rock_grid_rect_2,4,13,-1,-1,0.682,0.362268519,-0.264467593,1,0,0,0.971,Gabbro_rect,4,0.971,1,6,0,6,0,1,,,,,,,,,,,,,
62734ce38db73cd5bd81a36f,TCN,2024-06-25_11h57.52.334,LearnStrategy,2023.2.3,Win32,60.0240096,9,1,8,0.035300926,-0.008101852,1,0,0,0.766,rock_grid_rect_2,3,07,-1,-1,0.766,0.152777778,-0.271990741,1,0,0,1.058,Diorite_rect,3,1.058,1,7,0,7,0,1,,,,,,,,,,,,,
62734ce38db73cd5bd81a36f,TCN,2024-06-25_11h57.52.334,LearnStrategy,2023.2.3,Win32,60.0240096,9,1,9,0.06712963,-0.014467593,1,0,0,0.727,rock_grid_rect_2,5,04,-1,-1,0.727,-0.33912037,-0.383101852,1,0,0,1.101,Obsidian_rect,5,1.101,1,8,0,8,0,1,,,,,,,,,,,,,
62734ce38db73cd5bd81a36f,TCN,2024-06-25_11h57.52.334,LearnStrategy,2023.2.3,Win32,60.0240096,9,1,10,0.086805556,0.004050926,1,0,0,0.832,rock_grid_rect_2,2,08,-1,-1,0.832,-0.083912037,-0.251736111,1,0,0,1.016,Basalt_rect,2,1.016,1,9,0,9,0,1,,,,,,,,,,,,,
62734ce38db73cd5bd81a36f,TCN,2024-06-25_11h57.52.334,LearnStrategy,2023.2.3,Win32,60.0240096,9,1,11,0.012731481,-0.012152778,1,0,0,0.61,rock_grid_rect_2,6,03,-1,-1,0.61,-0.081597222,-0.410300926,1,0,0,1.049,Pegmatite_rect,6,1.049,1,10,0,10,0,1,,,,,,,,,,,,,
62734ce38db73cd5bd81a36f,TCN,2024-06-25_11h57.52.334,LearnStrategy,2023.2.3,Win32,60.0240096,9,1,12,0.023148148,0.004050926,1,0,0,0.666,rock_grid_rect_2,1,11,-1,-1,0.666,-0.36400463,-0.255787037,1,0,0,1.235,Andesite_rect,1,1.235,1,11,0,11,0,1,,,,,,,,,,,,,
62734ce38db73cd5bd81a36f,TCN,2024-06-25_11h57.52.334,LearnStrategy,2023.2.3,Win32,60.0240096,9,1,13,0.050347222,0.024305556,1,0,0,0.666,rock_grid_rect_2,5,14,-1,-1,0.666,-0.341435185,-0.412615741,1,0,0,1.325,Obsidian_rect,5,1.325,1,12,0,12,0,1,,,,,,,,,,,,,
62734ce38db73cd5bd81a36f,TCN,2024-06-25_11h57.52.334,LearnStrategy,2023.2.3,Win32,60.0240096,9,1,14,0.008101852,-0.004050926,1,0,0,0.999,rock_grid_rect_2,7,10,-1,-1,0.999,0.108217593,-0.393518519,1,0,0,1.302,Peridotite_rect,7,1.302,1,13,0,13,0,1,,,,,,,,,,,,,
62734ce38db73cd5bd81a36f,TCN,2024-06-25_11h57.52.334,LearnStrategy,2023.2.3,Win32,60.0240096,9,1,15,-0.00462963,-0.002893519,1,0,0,0.959,rock_grid_rect_2,8,14,-1,-1,0.959,0.331597222,-0.386574074,1,0,0,3.621,Pumice_rect,8,3.621,1,14,0,14,0,1,,,,,,,,,,,,,
62734ce38db73cd5bd81a36f,TCN,2024-06-25_11h57.52.334,LearnStrategy,2023.2.3,Win32,60.0240096,9,1,16,0.082175926,-0.003472222,1,0,0,0.729,rock_grid_rect_2,8,15,-1,-1,0.729,0.43287037,-0.396412037,1,0,0,1.248,Pumice_rect,8,1.248,1,15,0,15,0,1,,,,,,,,,,,,,
62734ce38db73cd5bd81a36f,TCN,2024-06-25_11h57.52.334,LearnStrategy,2023.2.3,Win32,60.0240096,9,2,1,,,,,,,,7,14,,,,,,,,,,,7,1.254,1,,,,,,0.104166667,-0.389467593,1,0,0,1.254,Peridotite_rect,0,0,0,0,1,
62734ce38db73cd5bd81a36f,TCN,2024-06-25_11h57.52.334,LearnStrategy,2023.2.3,Win32,60.0240096,9,2,2,,,,,,,,1,04,,,,,,,,,,,1,1.666,1,,,,,,-0.399305556,-0.240162037,1,0,0,1.666,Andesite_rect,1,0,1,0,1,
62734ce38db73cd5bd81a36f,TCN,2024-06-25_11h57.52.334,LearnStrategy,2023.2.3,Win32,60.0240096,9,2,3,,,,,,,,8,04,,,,,,,,,,,8,1.067,1,,,,,,0.408564815,-0.403356481,1,0,0,1.067,Pumice_rect,2,0,2,0,1,
62734ce38db73cd5bd81a36f,TCN,2024-06-25_11h57.52.334,LearnStrategy,2023.2.3,Win32,60.0240096,9,2,4,,,,,,,,8,05,,,,,,,,,,,8,1.76,1,,,,,,0.421296296,-0.412615741,1,0,0,1.76,Pumice_rect,3,0,3,0,1,
62734ce38db73cd5bd81a36f,TCN,2024-06-25_11h57.52.334,LearnStrategy,2023.2.3,Win32,60.0240096,9,2,5,,,,,,,,4,12,,,,,,,,,,,4,1.564,1,,,,,,0.387731481,-0.25,1,0,0,1.564,Gabbro_rect,4,0,4,0,1,
62734ce38db73cd5bd81a36f,TCN,2024-06-25_11h57.52.334,LearnStrategy,2023.2.3,Win32,60.0240096,9,2,6,,,,,,,,1,01,,,,,,,,,,,1,20.471,1,,,,,,-0.392361111,-0.244212963,1,0,0,20.471,Andesite_rect,5,0,5,0,1,
62734ce38db73cd5bd81a36f,TCN,2024-06-25_11h57.52.334,LearnStrategy,2023.2.3,Win32,60.0240096,9,2,7,,,,,,,,6,12,,,,,,,,,,,6,3.526,1,,,,,,-0.158564815,-0.396412037,1,0,0,3.526,Pegmatite_rect,6,0,6,0,1,
62734ce38db73cd5bd81a36f,TCN,2024-06-25_11h57.52.334,LearnStrategy,2023.2.3,Win32,60.0240096,9,2,8,,,,,,,,2,14,,,,,,,,,,,2,6.263,1,,,,,,-0.069444444,-0.271412037,1,0,0,6.263,Basalt_rect,7,0,7,0,1,
62734ce38db73cd5bd81a36f,TCN,2024-06-25_11h57.52.334,LearnStrategy,2023.2.3,Win32,60.0240096,9,2,9,,,,,,,,2,04,,,,,,,,,,,2,0.895,1,,,,,,-0.077546296,-0.263888889,1,0,0,0.895,Basalt_rect,8,0,8,0,1,
62734ce38db73cd5bd81a36f,TCN,2024-06-25_11h57.52.334,LearnStrategy,2023.2.3,Win32,60.0240096,9,2,10,,,,,,,,3,16,,,,,,,,,,,3,0.828,1,,,,,,0.091435185,-0.240740741,1,0,0,0.828,Diorite_rect,9,0,9,0,1,
62734ce38db73cd5bd81a36f,TCN,2024-06-25_11h57.52.334,LearnStrategy,2023.2.3,Win32,60.0240096,9,2,11,,,,,,,,5,10,,,,,,,,,,,5,1.319,1,,,,,,-0.336805556,-0.383680556,1,0,0,1.319,Obsidian_rect,10,0,10,0,1,
62734ce38db73cd5bd81a36f,TCN,2024-06-25_11h57.52.334,LearnStrategy,2023.2.3,Win32,60.0240096,9,2,12,,,,,,,,5,12,,,,,,,,,,,5,1.011,1,,,,,,-0.355324074,-0.392939815,1,0,0,1.011,Obsidian_rect,11,0,11,0,1,
62734ce38db73cd5bd81a36f,TCN,2024-06-25_11h57.52.334,LearnStrategy,2023.2.3,Win32,60.0240096,9,2,13,,,,,,,,6,05,,,,,,,,,,,6,2.295,1,,,,,,-0.104166667,-0.396990741,1,0,0,2.295,Pegmatite_rect,12,0,12,0,1,
62734ce38db73cd5bd81a36f,TCN,2024-06-25_11h57.52.334,LearnStrategy,2023.2.3,Win32,60.0240096,9,2,14,,,,,,,,3,12,,,,,,,,,,,3,1.145,1,,,,,,0.127893519,-0.251157407,1,0,0,1.145,Diorite_rect,13,0,13,0,1,
62734ce38db73cd5bd81a36f,TCN,2024-06-25_11h57.52.334,LearnStrategy,2023.2.3,Win32,60.0240096,9,2,15,,,,,,,,7,04,,,,,,,,,,,6,1.045,0,,,,,,-0.100694444,-0.401041667,1,0,0,1.045,Pegmatite_rect,14,0,14,0,1,
62734ce38db73cd5bd81a36f,TCN,2024-06-25_11h57.52.334,LearnStrategy,2023.2.3,Win32,60.0240096,9,2,16,,,,,,,,4,11,,,,,,,,,,,4,1.519,1,,,,,,0.350115741,-0.254050926,1,0,0,1.519,Gabbro_rect,15,0,15,0,1,
62734ce38db73cd5bd81a36f,TCN,2024-06-25_11h57.52.334,LearnStrategy,2023.2.3,Win32,60.0240096,,,,,,,,,,,,,,,,,,,,,,,,,,,,,,,,,,,,,,,,,,,1
62734ce38db73cd5bd81a36f,TCN,2024-06-25_11h57.52.334,LearnStrategy,2023.2.3,Win32,60.0240096,,,,,,,,,,,,,,,,,,,,,,,,,,,,,,,,,,,,,,,,,,,
62734ce38db73cd5bd81a36f,TCN,2024-06-25_11h57.52.334,LearnStrategy,2023.2.3,Win32,60.0240096,,,,,,,,,,,6,16,1,1,,,,,,,,,,,,,,,,,,,,,,,,,,,,,
62734ce38db73cd5bd81a36f,TCN,2024-06-25_11h57.52.334,LearnStrategy,2023.2.3,Win32,60.0240096,,,,,,,,,,,3,07,1,2,,,,,,,,,,,,,,,,,,,,,,,,,,,,,
62734ce38db73cd5bd81a36f,TCN,2024-06-25_11h57.52.334,LearnStrategy,2023.2.3,Win32,60.0240096,,,,,,,,,,,2,11,1,3,,,,,,,,,,,,,,,,,,,,,,,,,,,,,
62734ce38db73cd5bd81a36f,TCN,2024-06-25_11h57.52.334,LearnStrategy,2023.2.3,Win32,60.0240096,,,,,,,,,,,5,06,1,4,,,,,,,,,,,,,,,,,,,,,,,,,,,,,
62734ce38db73cd5bd81a36f,TCN,2024-06-25_11h57.52.334,LearnStrategy,2023.2.3,Win32,60.0240096,,,,,,,,,,,1,10,1,5,,,,,,,,,,,,,,,,,,,,,,,,,,,,,
62734ce38db73cd5bd81a36f,TCN,2024-06-25_11h57.52.334,LearnStrategy,2023.2.3,Win32,60.0240096,,,,,,,,,,,4,13,1,6,,,,,,,,,,,,,,,,,,,,,,,,,,,,,
62734ce38db73cd5bd81a36f,TCN,2024-06-25_11h57.52.334,LearnStrategy,2023.2.3,Win32,60.0240096,,,,,,,,,,,4,09,1,7,,,,,,,,,,,,,,,,,,,,,,,,,,,,,
62734ce38db73cd5bd81a36f,TCN,2024-06-25_11h57.52.334,LearnStrategy,2023.2.3,Win32,60.0240096,,,,,,,,,,,5,11,1,8,,,,,,,,,,,,,,,,,,,,,,,,,,,,,
62734ce38db73cd5bd81a36f,TCN,2024-06-25_11h57.52.334,LearnStrategy,2023.2.3,Win32,60.0240096,,,,,,,,,,,7,16,2,1,,,,,,,,,,,,,,,,,,,,,,,,,,,,,
62734ce38db73cd5bd81a36f,TCN,2024-06-25_11h57.52.334,LearnStrategy,2023.2.3,Win32,60.0240096,,,,,,,,,,,7,08,2,2,,,,,,,,,,,,,,,,,,,,,,,,,,,,,
62734ce38db73cd5bd81a36f,TCN,2024-06-25_11h57.52.334,LearnStrategy,2023.2.3,Win32,60.0240096,,,,,,,,,,,8,02,2,3,,,,,,,,,,,,,,,,,,,,,,,,,,,,,
62734ce38db73cd5bd81a36f,TCN,2024-06-25_11h57.52.334,LearnStrategy,2023.2.3,Win32,60.0240096,,,,,,,,,,,4,14,2,4,,,,,,,,,,,,,,,,,,,,,,,,,,,,,
62734ce38db73cd5bd81a36f,TCN,2024-06-25_11h57.52.334,LearnStrategy,2023.2.3,Win32,60.0240096,,,,,,,,,,,3,11,2,5,,,,,,,,,,,,,,,,,,,,,,,,,,,,,
62734ce38db73cd5bd81a36f,TCN,2024-06-25_11h57.52.334,LearnStrategy,2023.2.3,Win32,60.0240096,,,,,,,,,,,8,09,2,6,,,,,,,,,,,,,,,,,,,,,,,,,,,,,
62734ce38db73cd5bd81a36f,TCN,2024-06-25_11h57.52.334,LearnStrategy,2023.2.3,Win32,60.0240096,,,,,,,,,,,6,03,2,7,,,,,,,,,,,,,,,,,,,,,,,,,,,,,
62734ce38db73cd5bd81a36f,TCN,2024-06-25_11h57.52.334,LearnStrategy,2023.2.3,Win32,60.0240096,,,,,,,,,,,2,06,2,8,,,,,,,,,,,,,,,,,,,,,,,,,,,,,
62734ce38db73cd5bd81a36f,TCN,2024-06-25_11h57.52.334,LearnStrategy,2023.2.3,Win32,60.0240096,,,,,,,,,,,5,14,3,1,,,,,,,,,,,,,,,,,,,,,,,,,,,,,
62734ce38db73cd5bd81a36f,TCN,2024-06-25_11h57.52.334,LearnStrategy,2023.2.3,Win32,60.0240096,,,,,,,,,,,4,03,3,2,,,,,,,,,,,,,,,,,,,,,,,,,,,,,
62734ce38db73cd5bd81a36f,TCN,2024-06-25_11h57.52.334,LearnStrategy,2023.2.3,Win32,60.0240096,,,,,,,,,,,5,08,3,3,,,,,,,,,,,,,,,,,,,,,,,,,,,,,
62734ce38db73cd5bd81a36f,TCN,2024-06-25_11h57.52.334,LearnStrategy,2023.2.3,Win32,60.0240096,,,,,,,,,,,7,07,3,4,,,,,,,,,,,,,,,,,,,,,,,,,,,,,
62734ce38db73cd5bd81a36f,TCN,2024-06-25_11h57.52.334,LearnStrategy,2023.2.3,Win32,60.0240096,,,,,,,,,,,2,09,3,5,,,,,,,,,,,,,,,,,,,,,,,,,,,,,
62734ce38db73cd5bd81a36f,TCN,2024-06-25_11h57.52.334,LearnStrategy,2023.2.3,Win32,60.0240096,,,,,,,,,,,2,16,3,6,,,,,,,,,,,,,,,,,,,,,,,,,,,,,
62734ce38db73cd5bd81a36f,TCN,2024-06-25_11h57.52.334,LearnStrategy,2023.2.3,Win32,60.0240096,,,,,,,,,,,1,02,3,7,,,,,,,,,,,,,,,,,,,,,,,,,,,,,
62734ce38db73cd5bd81a36f,TCN,2024-06-25_11h57.52.334,LearnStrategy,2023.2.3,Win32,60.0240096,,,,,,,,,,,6,10,3,8,,,,,,,,,,,,,,,,,,,,,,,,,,,,,
62734ce38db73cd5bd81a36f,TCN,2024-06-25_11h57.52.334,LearnStrategy,2023.2.3,Win32,60.0240096,,,,,,,,,,,5,04,4,1,,,,,,,,,,,,,,,,,,,,,,,,,,,,,
62734ce38db73cd5bd81a36f,TCN,2024-06-25_11h57.52.334,LearnStrategy,2023.2.3,Win32,60.0240096,,,,,,,,,,,1,05,4,2,,,,,,,,,,,,,,,,,,,,,,,,,,,,,
62734ce38db73cd5bd81a36f,TCN,2024-06-25_11h57.52.334,LearnStrategy,2023.2.3,Win32,60.0240096,,,,,,,,,,,7,06,4,3,,,,,,,,,,,,,,,,,,,,,,,,,,,,,
62734ce38db73cd5bd81a36f,TCN,2024-06-25_11h57.52.334,LearnStrategy,2023.2.3,Win32,60.0240096,,,,,,,,,,,3,08,4,4,,,,,,,,,,,,,,,,,,,,,,,,,,,,,
62734ce38db73cd5bd81a36f,TCN,2024-06-25_11h57.52.334,LearnStrategy,2023.2.3,Win32,60.0240096,,,,,,,,,,,1,11,4,5,,,,,,,,,,,,,,,,,,,,,,,,,,,,,
62734ce38db73cd5bd81a36f,TCN,2024-06-25_11h57.52.334,LearnStrategy,2023.2.3,Win32,60.0240096,,,,,,,,,,,6,13,4,6,,,,,,,,,,,,,,,,,,,,,,,,,,,,,
62734ce38db73cd5bd81a36f,TCN,2024-06-25_11h57.52.334,LearnStrategy,2023.2.3,Win32,60.0240096,,,,,,,,,,,2,02,4,7,,,,,,,,,,,,,,,,,,,,,,,,,,,,,
62734ce38db73cd5bd81a36f,TCN,2024-06-25_11h57.52.334,LearnStrategy,2023.2.3,Win32,60.0240096,,,,,,,,,,,6,07,4,8,,,,,,,,,,,,,,,,,,,,,,,,,,,,,
62734ce38db73cd5bd81a36f,TCN,2024-06-25_11h57.52.334,LearnStrategy,2023.2.3,Win32,60.0240096,,,,,,,,,,,8,13,5,1,,,,,,,,,,,,,,,,,,,,,,,,,,,,,
62734ce38db73cd5bd81a36f,TCN,2024-06-25_11h57.52.334,LearnStrategy,2023.2.3,Win32,60.0240096,,,,,,,,,,,6,15,5,2,,,,,,,,,,,,,,,,,,,,,,,,,,,,,
62734ce38db73cd5bd81a36f,TCN,2024-06-25_11h57.52.334,LearnStrategy,2023.2.3,Win32,60.0240096,,,,,,,,,,,3,15,5,3,,,,,,,,,,,,,,,,,,,,,,,,,,,,,
62734ce38db73cd5bd81a36f,TCN,2024-06-25_11h57.52.334,LearnStrategy,2023.2.3,Win32,60.0240096,,,,,,,,,,,3,13,5,4,,,,,,,,,,,,,,,,,,,,,,,,,,,,,
62734ce38db73cd5bd81a36f,TCN,2024-06-25_11h57.52.334,LearnStrategy,2023.2.3,Win32,60.0240096,,,,,,,,,,,7,10,5,5,,,,,,,,,,,,,,,,,,,,,,,,,,,,,
62734ce38db73cd5bd81a36f,TCN,2024-06-25_11h57.52.334,LearnStrategy,2023.2.3,Win32,60.0240096,,,,,,,,,,,2,08,5,6,,,,,,,,,,,,,,,,,,,,,,,,,,,,,
62734ce38db73cd5bd81a36f,TCN,2024-06-25_11h57.52.334,LearnStrategy,2023.2.3,Win32,60.0240096,,,,,,,,,,,1,06,5,7,,,,,,,,,,,,,,,,,,,,,,,,,,,,,
62734ce38db73cd5bd81a36f,TCN,2024-06-25_11h57.52.334,LearnStrategy,2023.2.3,Win32,60.0240096,,,,,,,,,,,5,16,5,8,,,,,,,,,,,,,,,,,,,,,,,,,,,,,
62734ce38db73cd5bd81a36f,TCN,2024-06-25_11h57.52.334,LearnStrategy,2023.2.3,Win32,60.0240096,,,,,,,,,,,3,14,6,1,,,,,,,,,,,,,,,,,,,,,,,,,,,,,
62734ce38db73cd5bd81a36f,TCN,2024-06-25_11h57.52.334,LearnStrategy,2023.2.3,Win32,60.0240096,,,,,,,,,,,8,15,6,2,,,,,,,,,,,,,,,,,,,,,,,,,,,,,
62734ce38db73cd5bd81a36f,TCN,2024-06-25_11h57.52.334,LearnStrategy,2023.2.3,Win32,60.0240096,,,,,,,,,,,8,14,6,3,,,,,,,,,,,,,,,,,,,,,,,,,,,,,
62734ce38db73cd5bd81a36f,TCN,2024-06-25_11h57.52.334,LearnStrategy,2023.2.3,Win32,60.0240096,,,,,,,,,,,4,16,6,4,,,,,,,,,,,,,,,,,,,,,,,,,,,,,
62734ce38db73cd5bd81a36f,TCN,2024-06-25_11h57.52.334,LearnStrategy,2023.2.3,Win32,60.0240096,,,,,,,,,,,1,14,6,5,,,,,,,,,,,,,,,,,,,,,,,,,,,,,
62734ce38db73cd5bd81a36f,TCN,2024-06-25_11h57.52.334,LearnStrategy,2023.2.3,Win32,60.0240096,,,,,,,,,,,4,01,6,6,,,,,,,,,,,,,,,,,,,,,,,,,,,,,
62734ce38db73cd5bd81a36f,TCN,2024-06-25_11h57.52.334,LearnStrategy,2023.2.3,Win32,60.0240096,,,,,,,,,,,8,03,6,7,,,,,,,,,,,,,,,,,,,,,,,,,,,,,
62734ce38db73cd5bd81a36f,TCN,2024-06-25_11h57.52.334,LearnStrategy,2023.2.3,Win32,60.0240096,,,,,,,,,,,7,15,6,8,,,,,,,,,,,,,,,,,,,,,,,,,,,,,