participant,condition,date,expName,psychopyVersion,OS,frameRate,block,phase,trial,learn_mouse.x,learn_mouse.y,learn_mouse.leftButton,learn_mouse.midButton,learn_mouse.rightButton,learn_mouse.time,learn_mouse.clicked_name,cat,token,row,col,t_select,cat_rec,token_rec,cat_mouse_l.x,cat_mouse_l.y,cat_mouse_l.leftButton,cat_mouse_l.midButton,cat_mouse_l.rightButton,cat_mouse_l.time,cat_mouse_l.clicked_name,resp,t_resp,corr,train_trials.thisRepN,train_trials.thisTrialN,train_trials.thisN,train_trials.thisIndex,train_trials.ran,cat_mouse_t.x,cat_mouse_t.y,cat_mouse_t.leftButton,cat_mouse_t.midButton,cat_mouse_t.rightButton,cat_mouse_t.time,cat_mouse_t.clicked_name,test_trials.thisRepN,test_trials.thisTrialN,test_trials.thisN,test_trials.thisIndex,test_trials.ran,Bonus
629082739390703f993b12bd,SCR,2024-06-11_12h20.14.563,LearnStrategy,2023.2.3,Win32,163.9344262,,,,,,,,,,,,,,,,,,,,,,,,,,,,,,,,,,,,,,,,,,,,,
629082739390703f993b12bd,SCR,2024-06-11_12h20.14.563,LearnStrategy,2023.2.3,Win32,163.9344262,1,1,1,0.209982793,0.386805554,1,0,0,2.5671,Obsidian_04,5,04,6,6,2.567,5,04,-0.162239552,-0.401389043,1,0,0,4.0732,Pegmatite_rect,6,4.073,0,0,0,0,0,1,,,,,,,,,,,,,
629082739390703f993b12bd,SCR,2024-06-11_12h20.14.563,LearnStrategy,2023.2.3,Win32,163.9344262,1,1,2,-0.548350692,0.240277767,1,0,0,1.5107,Pumice_08,8,08,5,1,1.511,8,08,0.147482793,-0.233333349,1,0,0,3.7422,Diorite_rect,3,3.742,0,1,0,1,0,1,,,,,,,,,,,,,
629082739390703f993b12bd,SCR,2024-06-11_12h20.14.563,LearnStrategy,2023.2.3,Win32,163.9344262,1,1,3,0.090538343,-0.109027863,1,0,0,1.9648,Diorite_11,3,11,3,5,1.965,3,11,-0.170572917,-0.254861116,1,0,0,3.6309,Basalt_rect,2,3.631,0,2,0,2,0,1,,,,,,,,,,,,,
629082739390703f993b12bd,SCR,2024-06-11_12h20.14.563,LearnStrategy,2023.2.3,Win32,163.9344262,1,1,4,0.378732681,-0.254166683,1,0,0,2.1298,Andesite_05,1,05,2,7,2.13,1,05,-0.402517279,-0.234027783,1,0,0,2.2475,Andesite_rect,1,2.248,1,3,0,3,0,1,,,,,,,,,,,,,
629082739390703f993b12bd,SCR,2024-06-11_12h20.14.563,LearnStrategy,2023.2.3,Win32,163.9344262,1,1,5,0.508594036,-0.077777863,1,0,0,1.7522,Basalt_05,2,05,3,8,1.752,2,05,0.156510433,-0.243750016,1,0,0,3.0252,Diorite_rect,3,3.025,0,4,0,4,0,1,,,,,,,,,,,,,
629082739390703f993b12bd,SCR,2024-06-11_12h20.14.563,LearnStrategy,2023.2.3,Win32,163.9344262,1,1,6,0.10651056,-0.418055693,1,0,0,1.0801,Peridotite_07,7,07,1,5,1.08,7,07,-0.369184017,-0.236805598,1,0,0,2.8505,Andesite_rect,1,2.851,0,5,0,5,0,1,,,,,,,,,,,,,
629082739390703f993b12bd,SCR,2024-06-11_12h20.14.563,LearnStrategy,2023.2.3,Win32,163.9344262,1,1,7,0.062760433,0.081249992,1,0,0,0.8977,Pegmatite_05,6,05,4,5,0.898,6,05,-0.382378459,-0.410416683,1,0,0,7.0588,Obsidian_rect,5,7.059,0,6,0,6,0,1,,,,,,,,,,,,,
629082739390703f993b12bd,SCR,2024-06-11_12h20.14.563,LearnStrategy,2023.2.3,Win32,163.9344262,1,1,8,-0.078211784,0.262499968,1,0,0,1.2028,Andesite_09,1,09,5,4,1.203,1,09,0.357899348,-0.393055598,1,0,0,4.732,Pumice_rect,8,4.732,0,7,0,7,0,1,,,,,,,,,,,,,
629082739390703f993b12bd,SCR,2024-06-11_12h20.14.563,LearnStrategy,2023.2.3,Win32,163.9344262,1,1,9,-0.271961729,-0.125694513,1,0,0,0.9958,Basalt_06,2,06,3,3,0.996,2,06,0.331510544,-0.228472233,1,0,0,2.6913,Gabbro_rect,4,2.691,0,8,0,8,0,1,,,,,,,,,,,,,
629082739390703f993b12bd,SCR,2024-06-11_12h20.14.563,LearnStrategy,2023.2.3,Win32,163.9344262,1,1,10,-0.396267295,-0.101389011,1,0,0,1.0322,Peridotite_08,7,08,3,2,1.032,7,08,-0.417100628,-0.241666794,1,0,0,1.7141,Andesite_rect,1,1.714,0,9,0,9,0,1,,,,,,,,,,,,,
629082739390703f993b12bd,SCR,2024-06-11_12h20.14.563,LearnStrategy,2023.2.3,Win32,163.9344262,1,1,11,-0.249739567,0.20763886,1,0,0,0.9254,Gabbro_16,4,16,5,3,0.925,4,16,0.109982808,-0.247222265,1,0,0,2.4601,Diorite_rect,3,2.46,0,10,0,10,0,1,,,,,,,,,,,,,
629082739390703f993b12bd,SCR,2024-06-11_12h20.14.563,LearnStrategy,2023.2.3,Win32,163.9344262,1,1,12,0.359982808,-0.37152791,1,0,0,1.0468,Gabbro_08,4,08,1,7,1.047,4,08,-0.147656123,-0.388194482,1,0,0,5.2427,Pegmatite_rect,6,5.243,0,11,0,11,0,1,,,,,,,,,,,,,
629082739390703f993b12bd,SCR,2024-06-11_12h20.14.563,LearnStrategy,2023.2.3,Win32,163.9344262,1,1,13,-0.245572845,-0.245833476,1,0,0,0.8605,Pegmatite_13,6,13,2,3,0.861,6,13,0.075954994,-0.255555709,1,0,0,2.9558,Diorite_rect,3,2.956,0,12,0,12,0,1,,,,,,,,,,,,,
629082739390703f993b12bd,SCR,2024-06-11_12h20.14.563,LearnStrategy,2023.2.3,Win32,163.9344262,1,1,14,-0.572656214,-0.402083476,1,0,0,0.8197,Obsidian_08,5,08,1,1,0.82,5,08,-0.414322853,-0.40277791,1,0,0,1.1291,Obsidian_rect,5,1.129,1,13,0,13,0,1,,,,,,,,,,,,,
629082739390703f993b12bd,SCR,2024-06-11_12h20.14.563,LearnStrategy,2023.2.3,Win32,163.9344262,1,1,15,-0.237933914,0.085416595,1,0,0,0.7829,Diorite_08,3,08,4,3,0.783,3,08,-0.140017351,-0.24652791,1,0,0,3.7639,Basalt_rect,2,3.764,0,14,0,14,0,1,,,,,,,,,,,,,
629082739390703f993b12bd,SCR,2024-06-11_12h20.14.563,LearnStrategy,2023.2.3,Win32,163.9344262,1,1,16,0.562760671,0.084722201,1,0,0,0.9708,Pumice_10,8,10,4,8,0.971,8,10,0.375260592,-0.400000016,1,0,0,1.8606,Pumice_rect,8,1.861,1,15,0,15,0,1,,,,,,,,,,,,,
629082739390703f993b12bd,SCR,2024-06-11_12h20.14.563,LearnStrategy,2023.2.3,Win32,163.9344262,1,2,1,,,,,,,,2,01,,,,,,,,,,,,,6,7.957,0,,,,,,-0.111545006,-0.403472265,1,0,0,7.9567,Pegmatite_rect,0,0,0,0,1,
629082739390703f993b12bd,SCR,2024-06-11_12h20.14.563,LearnStrategy,2023.2.3,Win32,163.9344262,1,2,2,,,,,,,,7,15,,,,,,,,,,,,,7,3.761,1,,,,,,0.08637166,-0.416666826,1,0,0,3.7609,Peridotite_rect,1,0,1,0,1,
629082739390703f993b12bd,SCR,2024-06-11_12h20.14.563,LearnStrategy,2023.2.3,Win32,163.9344262,1,2,3,,,,,,,,2,09,,,,,,,,,,,,,2,8.821,1,,,,,,-0.152517319,-0.249305566,1,0,0,8.8206,Basalt_rect,2,0,2,0,1,
629082739390703f993b12bd,SCR,2024-06-11_12h20.14.563,LearnStrategy,2023.2.3,Win32,163.9344262,1,2,4,,,,,,,,7,14,,,,,,,,,,,,,4,4.745,0,,,,,,0.366232793,-0.247916698,1,0,0,4.7446,Gabbro_rect,3,0,3,0,1,
629082739390703f993b12bd,SCR,2024-06-11_12h20.14.563,LearnStrategy,2023.2.3,Win32,163.9344262,1,2,5,,,,,,,,6,12,,,,,,,,,,,,,2,9.858,0,,,,,,-0.16015625,-0.243750016,1,0,0,9.8583,Basalt_rect,4,0,4,0,1,
629082739390703f993b12bd,SCR,2024-06-11_12h20.14.563,LearnStrategy,2023.2.3,Win32,163.9344262,1,2,6,,,,,,,,3,06,,,,,,,,,,,,,4,3.674,0,,,,,,0.362760544,-0.25208346,1,0,0,3.6742,Gabbro_rect,5,0,5,0,1,
629082739390703f993b12bd,SCR,2024-06-11_12h20.14.563,LearnStrategy,2023.2.3,Win32,163.9344262,1,2,7,,,,,,,,8,06,,,,,,,,,,,,,8,2.798,1,,,,,,0.388455073,-0.406944593,1,0,0,2.798,Pumice_rect,6,0,6,0,1,
629082739390703f993b12bd,SCR,2024-06-11_12h20.14.563,LearnStrategy,2023.2.3,Win32,163.9344262,1,2,8,,,,,,,,8,05,,,,,,,,,,,,,8,1.324,1,,,,,,0.388455073,-0.406944593,1,0,0,1.3236,Pumice_rect,7,0,7,0,1,
629082739390703f993b12bd,SCR,2024-06-11_12h20.14.563,LearnStrategy,2023.2.3,Win32,163.9344262,1,2,9,,,,,,,,4,15,,,,,,,,,,,,,2,7.533,0,,,,,,-0.146267335,-0.24097236,1,0,0,7.5333,Basalt_rect,8,0,8,0,1,
629082739390703f993b12bd,SCR,2024-06-11_12h20.14.563,LearnStrategy,2023.2.3,Win32,163.9344262,1,2,10,,,,,,,,1,06,,,,,,,,,,,,,6,3.343,0,,,,,,-0.0719618,-0.407639027,1,0,0,3.3427,Pegmatite_rect,9,0,9,0,1,
629082739390703f993b12bd,SCR,2024-06-11_12h20.14.563,LearnStrategy,2023.2.3,Win32,163.9344262,1,2,11,,,,,,,,3,15,,,,,,,,,,,,,7,1.86,0,,,,,,0.116232793,-0.386111259,1,0,0,1.8595,Peridotite_rect,10,0,10,0,1,
629082739390703f993b12bd,SCR,2024-06-11_12h20.14.563,LearnStrategy,2023.2.3,Win32,163.9344262,1,2,12,,,,,,,,6,10,,,,,,,,,,,,,3,3.227,0,,,,,,0.155121565,-0.259027799,1,0,0,3.2266,Diorite_rect,11,0,11,0,1,
629082739390703f993b12bd,SCR,2024-06-11_12h20.14.563,LearnStrategy,2023.2.3,Win32,163.9344262,1,2,13,,,,,,,,5,06,,,,,,,,,,,,,5,1.497,1,,,,,,-0.378211737,-0.412500143,1,0,0,1.497,Obsidian_rect,12,0,12,0,1,
629082739390703f993b12bd,SCR,2024-06-11_12h20.14.563,LearnStrategy,2023.2.3,Win32,163.9344262,1,2,14,,,,,,,,1,07,,,,,,,,,,,,,1,3.324,1,,,,,,-0.379600684,-0.255555709,1,0,0,3.3236,Andesite_rect,13,0,13,0,1,
629082739390703f993b12bd,SCR,2024-06-11_12h20.14.563,LearnStrategy,2023.2.3,Win32,163.9344262,1,2,15,,,,,,,,4,11,,,,,,,,,,,,,4,3.384,1,,,,,,0.391232808,-0.256250143,1,0,0,3.3843,Gabbro_rect,14,0,14,0,1,
629082739390703f993b12bd,SCR,2024-06-11_12h20.14.563,LearnStrategy,2023.2.3,Win32,163.9344262,1,2,16,,,,,,,,5,11,,,,,,,,,,,,,5,1.227,1,,,,,,-0.454600612,-0.413888931,1,0,0,1.2266,Obsidian_rect,15,0,15,0,1,
629082739390703f993b12bd,SCR,2024-06-11_12h20.14.563,LearnStrategy,2023.2.3,Win32,163.9344262,2,1,1,0.408593893,-0.265277783,1,0,0,1.4588,Andesite_05,1,05,2,7,1.459,1,05,-0.099739552,-0.412500143,1,0,0,3.0216,Pegmatite_rect,6,3.022,0,0,0,0,0,1,,,,,,,,,,,,,
629082739390703f993b12bd,SCR,2024-06-11_12h20.14.563,LearnStrategy,2023.2.3,Win32,163.9344262,2,1,2,-0.237933914,0.098611037,1,0,0,0.9886,Diorite_08,3,08,4,3,0.989,3,08,0.09192721,-0.393750032,1,0,0,2.2606,Peridotite_rect,7,2.261,0,1,0,1,0,1,,,,,,,,,,,,,
629082739390703f993b12bd,SCR,2024-06-11_12h20.14.563,LearnStrategy,2023.2.3,Win32,163.9344262,2,1,3,0.38776056,0.356249978,1,0,0,1.3349,Gabbro_14,4,14,6,7,1.335,4,14,-0.096961657,-0.253472249,1,0,0,2.967,Basalt_rect,2,2.967,0,2,0,2,0,1,,,,,,,,,,,,,
629082739390703f993b12bd,SCR,2024-06-11_12h20.14.563,LearnStrategy,2023.2.3,Win32,163.9344262,2,1,4,0.221093893,-0.262500127,1,0,0,0.8866,Andesite_04,1,04,2,6,0.887,1,04,-0.361545126,-0.238194466,1,0,0,2.4585,Andesite_rect,1,2.459,1,3,0,3,0,1,,,,,,,,,,,,,
629082739390703f993b12bd,SCR,2024-06-11_12h20.14.563,LearnStrategy,2023.2.3,Win32,163.9344262,2,1,5,-0.221961657,-0.086805662,1,0,0,0.7881,Basalt_06,2,06,3,3,0.788,2,06,-0.135850668,-0.261111259,1,0,0,1.9564,Basalt_rect,2,1.956,1,4,0,4,0,1,,,,,,,,,,,,,
629082739390703f993b12bd,SCR,2024-06-11_12h20.14.563,LearnStrategy,2023.2.3,Win32,163.9344262,2,1,6,-0.224739512,0.232638836,1,0,0,0.8738,Gabbro_16,4,16,5,3,0.874,4,16,0.320399443,-0.24652791,1,0,0,2.8608,Gabbro_rect,4,2.861,1,5,0,5,0,1,,,,,,,,,,,,,
629082739390703f993b12bd,SCR,2024-06-11_12h20.14.563,LearnStrategy,2023.2.3,Win32,163.9344262,2,1,7,-0.537239512,0.429861108,1,0,0,0.9472,Peridotite_10,7,10,6,1,0.947,7,10,0.059288343,-0.40833346,1,0,0,4.6487,Peridotite_rect,7,4.649,1,6,0,6,0,1,,,,,,,,,,,,,
629082739390703f993b12bd,SCR,2024-06-11_12h20.14.563,LearnStrategy,2023.2.3,Win32,163.9344262,2,1,8,-0.06432279,-0.100694458,1,0,0,0.7004,Pegmatite_09,6,09,3,4,0.7,6,09,-0.358767351,-0.383333365,1,0,0,3.9895,Obsidian_rect,5,3.99,0,7,0,7,0,1,,,,,,,,,,,,,
629082739390703f993b12bd,SCR,2024-06-11_12h20.14.563,LearnStrategy,2023.2.3,Win32,163.9344262,2,1,9,0.051649332,0.063888868,1,0,0,0.7863,Pegmatite_05,6,05,4,5,0.786,6,05,-0.440711737,-0.379166683,1,0,0,1.5672,Obsidian_rect,5,1.567,0,8,0,8,0,1,,,,,,,,,,,,,
629082739390703f993b12bd,SCR,2024-06-11_12h20.14.563,LearnStrategy,2023.2.3,Win32,163.9344262,2,1,10,0.58289957,-0.064583421,1,0,0,1.1427,Basalt_05,2,05,3,8,1.143,2,05,-0.209461689,-0.252777815,1,0,0,2.7121,Basalt_rect,2,2.712,1,9,0,9,0,1,,,,,,,,,,,,,
629082739390703f993b12bd,SCR,2024-06-11_12h20.14.563,LearnStrategy,2023.2.3,Win32,163.9344262,2,1,11,-0.511545062,0.081944426,1,0,0,0.9732,Peridotite_06,7,06,4,1,0.973,7,06,0.105121692,-0.228472233,1,0,0,2.9613,Diorite_rect,3,2.961,0,10,0,10,0,1,,,,,,,,,,,,,
629082739390703f993b12bd,SCR,2024-06-11_12h20.14.563,LearnStrategy,2023.2.3,Win32,163.9344262,2,1,12,0.059982777,-0.121527791,1,0,0,0.7089,Diorite_11,3,11,3,5,0.709,3,11,-0.072656234,-0.414583365,1,0,0,4.0484,Pegmatite_rect,6,4.048,0,11,0,11,0,1,,,,,,,,,,,,,
629082739390703f993b12bd,SCR,2024-06-11_12h20.14.563,LearnStrategy,2023.2.3,Win32,163.9344262,2,1,13,0.069010576,-0.096527855,1,0,0,0.6588,Diorite_11,3,11,3,5,0.659,3,11,0.082899332,-0.24097236,1,0,0,1.3631,Diorite_rect,3,1.363,1,12,0,12,0,1,,,,,,,,,,,,,
629082739390703f993b12bd,SCR,2024-06-11_12h20.14.563,LearnStrategy,2023.2.3,Win32,163.9344262,2,1,14,0.066232681,-0.24444445,1,0,0,0.7866,Basalt_12,2,12,2,5,0.787,2,12,0.307205121,-0.379166683,1,0,0,1.6387,Pumice_rect,8,1.639,0,13,0,13,0,1,,,,,,,,,,,,,
629082739390703f993b12bd,SCR,2024-06-11_12h20.14.563,LearnStrategy,2023.2.3,Win32,163.9344262,2,1,15,-0.226822853,-0.261805693,1,0,0,0.7931,Pegmatite_13,6,13,2,3,0.793,6,13,0.389149348,-0.236111244,1,0,0,2.7048,Gabbro_rect,4,2.705,0,14,0,14,0,1,,,,,,,,,,,,,
629082739390703f993b12bd,SCR,2024-06-11_12h20.14.563,LearnStrategy,2023.2.3,Win32,163.9344262,2,1,16,-0.247656186,-0.25208346,1,0,0,0.8236,Pegmatite_13,6,13,2,3,0.824,6,13,-0.121961673,-0.399305582,1,0,0,1.6008,Pegmatite_rect,6,1.601,1,15,0,15,0,1,,,,,,,,,,,,,
629082739390703f993b12bd,SCR,2024-06-11_12h20.14.563,LearnStrategy,2023.2.3,Win32,163.9344262,2,2,1,,,,,,,,3,13,,,,,,,,,,,,,3,6.523,1,,,,,,0.104427099,-0.245833476,1,0,0,6.5226,Diorite_rect,0,0,0,0,1,
629082739390703f993b12bd,SCR,2024-06-11_12h20.14.563,LearnStrategy,2023.2.3,Win32,163.9344262,2,2,2,,,,,,,,1,11,,,,,,,,,,,,,4,6.565,0,,,,,,0.369705121,-0.239583333,1,0,0,6.5647,Gabbro_rect,1,0,1,0,1,
629082739390703f993b12bd,SCR,2024-06-11_12h20.14.563,LearnStrategy,2023.2.3,Win32,163.9344262,2,2,3,,,,,,,,5,10,,,,,,,,,,,,,5,1.916,1,,,,,,-0.399739504,-0.405555566,1,0,0,1.9157,Obsidian_rect,2,0,2,0,1,
629082739390703f993b12bd,SCR,2024-06-11_12h20.14.563,LearnStrategy,2023.2.3,Win32,163.9344262,2,2,4,,,,,,,,6,11,,,,,,,,,,,,,6,3.827,1,,,,,,-0.14348944,-0.409027815,1,0,0,3.8272,Pegmatite_rect,3,0,3,0,1,
629082739390703f993b12bd,SCR,2024-06-11_12h20.14.563,LearnStrategy,2023.2.3,Win32,163.9344262,2,2,5,,,,,,,,2,11,,,,,,,,,,,,,2,12.068,1,,,,,,-0.159461657,-0.242361148,1,0,0,12.0677,Basalt_rect,4,0,4,0,1,
629082739390703f993b12bd,SCR,2024-06-11_12h20.14.563,LearnStrategy,2023.2.3,Win32,163.9344262,2,2,6,,,,,,,,4,13,,,,,,,,,,,,,7,7.919,0,,,,,,0.069705009,-0.409027815,1,0,0,7.9192,Peridotite_rect,5,0,5,0,1,
629082739390703f993b12bd,SCR,2024-06-11_12h20.14.563,LearnStrategy,2023.2.3,Win32,163.9344262,2,2,7,,,,,,,,6,15,,,,,,,,,,,,,4,3.462,0,,,,,,0.403732777,-0.241666794,1,0,0,3.4622,Gabbro_rect,6,0,6,0,1,
629082739390703f993b12bd,SCR,2024-06-11_12h20.14.563,LearnStrategy,2023.2.3,Win32,163.9344262,2,2,8,,,,,,,,8,03,,,,,,,,,,,,,8,2.23,1,,,,,,0.391927242,-0.395833492,1,0,0,2.2303,Pumice_rect,7,0,7,0,1,
629082739390703f993b12bd,SCR,2024-06-11_12h20.14.563,LearnStrategy,2023.2.3,Win32,163.9344262,2,2,9,,,,,,,,3,09,,,,,,,,,,,,,3,2.072,1,,,,,,0.17456611,-0.25,1,0,0,2.0721,Diorite_rect,8,0,8,0,1,
629082739390703f993b12bd,SCR,2024-06-11_12h20.14.563,LearnStrategy,2023.2.3,Win32,163.9344262,2,2,10,,,,,,,,4,09,,,,,,,,,,,,,6,5.51,0,,,,,,-0.151128451,-0.405555566,1,0,0,5.5101,Pegmatite_rect,9,0,9,0,1,
629082739390703f993b12bd,SCR,2024-06-11_12h20.14.563,LearnStrategy,2023.2.3,Win32,163.9344262,2,2,11,,,,,,,,7,05,,,,,,,,,,,,,7,3.246,1,,,,,,0.041232665,-0.388888915,1,0,0,3.2458,Peridotite_rect,10,0,10,0,1,
629082739390703f993b12bd,SCR,2024-06-11_12h20.14.563,LearnStrategy,2023.2.3,Win32,163.9344262,2,2,12,,,,,,,,7,13,,,,,,,,,,,,,7,1.559,1,,,,,,0.041232665,-0.388888915,1,0,0,1.5586,Peridotite_rect,11,0,11,0,1,
629082739390703f993b12bd,SCR,2024-06-11_12h20.14.563,LearnStrategy,2023.2.3,Win32,163.9344262,2,2,13,,,,,,,,2,14,,,,,,,,,,,,,1,3.69,0,,,,,,-0.360156178,-0.242361148,1,0,0,3.6903,Andesite_rect,12,0,12,0,1,
629082739390703f993b12bd,SCR,2024-06-11_12h20.14.563,LearnStrategy,2023.2.3,Win32,163.9344262,2,2,14,,,,,,,,1,16,,,,,,,,,,,,,3,2.672,0,,,,,,0.10651056,-0.261111259,1,0,0,2.6716,Diorite_rect,13,0,13,0,1,
629082739390703f993b12bd,SCR,2024-06-11_12h20.14.563,LearnStrategy,2023.2.3,Win32,163.9344262,2,2,15,,,,,,,,8,13,,,,,,,,,,,,,2,2.995,0,,,,,,-0.125434001,-0.245139043,1,0,0,2.9947,Basalt_rect,14,0,14,0,1,
629082739390703f993b12bd,SCR,2024-06-11_12h20.14.563,LearnStrategy,2023.2.3,Win32,163.9344262,2,2,16,,,,,,,,5,14,,,,,,,,,,,,,5,1.087,1,,,,,,-0.374045054,-0.392361244,1,0,0,1.0867,Obsidian_rect,15,0,15,0,1,
629082739390703f993b12bd,SCR,2024-06-11_12h20.14.563,LearnStrategy,2023.2.3,Win32,163.9344262,3,1,1,-0.065017223,-0.11041673,1,0,0,0.9762,Pegmatite_09,6,09,3,4,0.976,6,09,-0.131683985,-0.387500127,1,0,0,3.8758,Pegmatite_rect,6,3.876,1,0,0,0,0,1,,,,,,,,,,,,,
629082739390703f993b12bd,SCR,2024-06-11_12h20.14.563,LearnStrategy,2023.2.3,Win32,163.9344262,3,1,2,0.050954898,-0.090277791,1,0,0,0.8121,Diorite_11,3,11,3,5,0.812,3,11,0.107899348,-0.255555709,1,0,0,1.0431,Diorite_rect,3,1.043,1,1,0,1,0,1,,,,,,,,,,,,,
629082739390703f993b12bd,SCR,2024-06-11_12h20.14.563,LearnStrategy,2023.2.3,Win32,163.9344262,3,1,3,-0.091406107,-0.245833476,1,0,0,0.7692,Pumice_15,8,15,2,4,0.769,8,15,-0.354600588,-0.254861116,1,0,0,4.0303,Andesite_rect,1,4.03,0,2,0,2,0,1,,,,,,,,,,,,,
629082739390703f993b12bd,SCR,2024-06-11_12h20.14.563,LearnStrategy,2023.2.3,Win32,163.9344262,3,1,4,0.368316015,0.055555542,1,0,0,1.1249,Diorite_02,3,02,4,7,1.125,3,02,0.11206611,-0.253472249,1,0,0,2.2263,Diorite_rect,3,2.226,1,3,0,3,0,1,,,,,,,,,,,,,
629082739390703f993b12bd,SCR,2024-06-11_12h20.14.563,LearnStrategy,2023.2.3,Win32,163.9344262,3,1,5,-0.394878387,0.106249928,1,0,0,0.7756,Andesite_02,1,02,4,2,0.776,1,02,-0.125434001,-0.396527926,1,0,0,2.3228,Pegmatite_rect,6,2.323,0,4,0,4,0,1,,,,,,,,,,,,,
629082739390703f993b12bd,SCR,2024-06-11_12h20.14.563,LearnStrategy,2023.2.3,Win32,163.9344262,3,1,6,0.390538454,-0.068750064,1,0,0,0.8249,Basalt_10,2,10,3,7,0.825,2,10,0.382899443,-0.234027783,1,0,0,3.3302,Gabbro_rect,4,3.33,0,5,0,5,0,1,,,,,,,,,,,,,
629082739390703f993b12bd,SCR,2024-06-11_12h20.14.563,LearnStrategy,2023.2.3,Win32,163.9344262,3,1,7,0.371788422,-0.258333365,1,0,0,0.8302,Andesite_05,1,05,2,7,0.83,1,05,-0.387934009,-0.229861259,1,0,0,2.1918,Andesite_rect,1,2.192,1,6,0,6,0,1,,,,,,,,,,,,,
629082739390703f993b12bd,SCR,2024-06-11_12h20.14.563,LearnStrategy,2023.2.3,Win32,163.9344262,3,1,8,-0.246267239,0.229166627,1,0,0,0.9807,Gabbro_16,4,16,5,3,0.981,4,16,0.34192721,-0.239583333,1,0,0,4.4163,Gabbro_rect,4,4.416,1,7,0,7,0,1,,,,,,,,,,,,,
629082739390703f993b12bd,SCR,2024-06-11_12h20.14.563,LearnStrategy,2023.2.3,Win32,163.9344262,3,1,9,-0.342795054,0.073611101,1,0,0,0.7653,Andesite_02,1,02,4,2,0.765,1,02,-0.183767319,-0.40833346,1,0,0,3.577,Pegmatite_rect,6,3.577,0,8,0,8,0,1,,,,,,,,,,,,,
629082739390703f993b12bd,SCR,2024-06-11_12h20.14.563,LearnStrategy,2023.2.3,Win32,163.9344262,3,1,10,0.209982793,-0.125000079,1,0,0,1.1714,Andesite_10,1,10,3,6,1.171,1,10,-0.099045118,-0.251389027,1,0,0,1.5113,Basalt_rect,2,1.511,0,9,0,9,0,1,,,,,,,,,,,,,
629082739390703f993b12bd,SCR,2024-06-11_12h20.14.563,LearnStrategy,2023.2.3,Win32,163.9344262,3,1,11,-0.543489575,0.413888882,1,0,0,1.1921,Peridotite_10,7,10,6,1,1.192,7,10,0.088454882,-0.250694593,1,0,0,3.0757,Diorite_rect,3,3.076,0,10,0,10,0,1,,,,,,,,,,,,,
629082739390703f993b12bd,SCR,2024-06-11_12h20.14.563,LearnStrategy,2023.2.3,Win32,163.9344262,3,1,12,0.064149459,0.084722201,1,0,0,0.7934,Pegmatite_05,6,05,4,5,0.793,6,05,-0.174045006,-0.388888915,1,0,0,4.1576,Pegmatite_rect,6,4.158,1,11,0,11,0,1,,,,,,,,,,,,,
629082739390703f993b12bd,SCR,2024-06-11_12h20.14.563,LearnStrategy,2023.2.3,Win32,163.9344262,3,1,13,-0.228906234,-0.395833492,1,0,0,0.8927,Gabbro_01,4,01,1,3,0.893,4,01,-0.083072901,-0.258333365,1,0,0,4.8245,Basalt_rect,2,4.824,0,12,0,12,0,1,,,,,,,,,,,,,
629082739390703f993b12bd,SCR,2024-06-11_12h20.14.563,LearnStrategy,2023.2.3,Win32,163.9344262,3,1,14,0.034982681,-0.229861259,1,0,0,0.7235,Basalt_12,2,12,2,5,0.723,2,12,-0.16362834,-0.253472249,1,0,0,2.8863,Basalt_rect,2,2.886,1,13,0,13,0,1,,,,,,,,,,,,,
629082739390703f993b12bd,SCR,2024-06-11_12h20.14.563,LearnStrategy,2023.2.3,Win32,163.9344262,3,1,15,-0.058767319,0.424305548,1,0,0,1.0316,Pegmatite_16,6,16,6,4,1.032,6,16,0.130121549,-0.388888915,1,0,0,3.8639,Peridotite_rect,7,3.864,0,14,0,14,0,1,,,,,,,,,,,,,
629082739390703f993b12bd,SCR,2024-06-11_12h20.14.563,LearnStrategy,2023.2.3,Win32,163.9344262,3,1,16,-0.073350668,-0.388888915,1,0,0,0.7579,Gabbro_05,4,05,1,4,0.758,4,05,0.358593782,-0.24652791,1,0,0,2.4242,Gabbro_rect,4,2.424,1,15,0,15,0,1,,,,,,,,,,,,,
629082739390703f993b12bd,SCR,2024-06-11_12h20.14.563,LearnStrategy,2023.2.3,Win32,163.9344262,3,2,1,,,,,,,,3,07,,,,,,,,,,,,,3,3.173,1,,,,,,0.098177115,-0.237500032,1,0,0,3.1728,Diorite_rect,0,0,0,0,1,
629082739390703f993b12bd,SCR,2024-06-11_12h20.14.563,LearnStrategy,2023.2.3,Win32,163.9344262,3,2,2,,,,,,,,4,12,,,,,,,,,,,,,1,3.603,0,,,,,,-0.374739567,-0.234027783,1,0,0,3.6035,Andesite_rect,1,0,1,0,1,
629082739390703f993b12bd,SCR,2024-06-11_12h20.14.563,LearnStrategy,2023.2.3,Win32,163.9344262,3,2,3,,,,,,,,5,02,,,,,,,,,,,,,5,1.1,1,,,,,,-0.339322845,-0.405555566,1,0,0,1.1003,Obsidian_rect,2,0,2,0,1,
629082739390703f993b12bd,SCR,2024-06-11_12h20.14.563,LearnStrategy,2023.2.3,Win32,163.9344262,3,2,4,,,,,,,,1,03,,,,,,,,,,,,,1,2.387,1,,,,,,-0.342100581,-0.263194482,1,0,0,2.3869,Andesite_rect,3,0,3,0,1,
629082739390703f993b12bd,SCR,2024-06-11_12h20.14.563,LearnStrategy,2023.2.3,Win32,163.9344262,3,2,5,,,,,,,,4,10,,,,,,,,,,,,,7,5.345,0,,,,,,0.169704994,-0.393055598,1,0,0,5.345,Peridotite_rect,4,0,4,0,1,
629082739390703f993b12bd,SCR,2024-06-11_12h20.14.563,LearnStrategy,2023.2.3,Win32,163.9344262,3,2,6,,,,,,,,7,04,,,,,,,,,,,,,4,3.878,0,,,,,,0.383593877,-0.236111244,1,0,0,3.878,Gabbro_rect,5,0,5,0,1,
629082739390703f993b12bd,SCR,2024-06-11_12h20.14.563,LearnStrategy,2023.2.3,Win32,163.9344262,3,2,7,,,,,,,,6,03,,,,,,,,,,,,,6,1.842,1,,,,,,-0.104600668,-0.390972376,1,0,0,1.8423,Pegmatite_rect,6,0,6,0,1,
629082739390703f993b12bd,SCR,2024-06-11_12h20.14.563,LearnStrategy,2023.2.3,Win32,163.9344262,3,2,8,,,,,,,,1,01,,,,,,,,,,,,,2,2.88,0,,,,,,-0.1032118,-0.23541681,1,0,0,2.88,Basalt_rect,7,0,7,0,1,
629082739390703f993b12bd,SCR,2024-06-11_12h20.14.563,LearnStrategy,2023.2.3,Win32,163.9344262,3,2,9,,,,,,,,5,16,,,,,,,,,,,,,5,2.014,1,,,,,,-0.371961792,-0.392361244,1,0,0,2.014,Obsidian_rect,8,0,8,0,1,
629082739390703f993b12bd,SCR,2024-06-11_12h20.14.563,LearnStrategy,2023.2.3,Win32,163.9344262,3,2,10,,,,,,,,8,02,,,,,,,,,,,,,8,1.854,1,,,,,,0.350260576,-0.386111259,1,0,0,1.8544,Pumice_rect,9,0,9,0,1,
629082739390703f993b12bd,SCR,2024-06-11_12h20.14.563,LearnStrategy,2023.2.3,Win32,163.9344262,3,2,11,,,,,,,,2,08,,,,,,,,,,,,,1,3.139,0,,,,,,-0.381683946,-0.243750016,1,0,0,3.1392,Andesite_rect,10,0,10,0,1,
629082739390703f993b12bd,SCR,2024-06-11_12h20.14.563,LearnStrategy,2023.2.3,Win32,163.9344262,3,2,12,,,,,,,,8,16,,,,,,,,,,,,,8,2.044,1,,,,,,0.369705121,-0.386805693,1,0,0,2.0442,Pumice_rect,11,0,11,0,1,
629082739390703f993b12bd,SCR,2024-06-11_12h20.14.563,LearnStrategy,2023.2.3,Win32,163.9344262,3,2,13,,,,,,,,3,14,,,,,,,,,,,,,3,1.55,1,,,,,,0.103038232,-0.264583349,1,0,0,1.55,Diorite_rect,12,0,12,0,1,
629082739390703f993b12bd,SCR,2024-06-11_12h20.14.563,LearnStrategy,2023.2.3,Win32,163.9344262,3,2,14,,,,,,,,6,08,,,,,,,,,,,,,6,2.593,1,,,,,,-0.127517223,-0.401389043,1,0,0,2.5932,Pegmatite_rect,13,0,13,0,1,
629082739390703f993b12bd,SCR,2024-06-11_12h20.14.563,LearnStrategy,2023.2.3,Win32,163.9344262,3,2,15,,,,,,,,2,02,,,,,,,,,,,,,1,1.355,0,,,,,,-0.382378459,-0.256250143,1,0,0,1.3547,Andesite_rect,14,0,14,0,1,
629082739390703f993b12bd,SCR,2024-06-11_12h20.14.563,LearnStrategy,2023.2.3,Win32,163.9344262,3,2,16,,,,,,,,7,02,,,,,,,,,,,,,4,2.333,0,,,,,,0.368316015,-0.236805598,1,0,0,2.3333,Gabbro_rect,15,0,15,0,1,
629082739390703f993b12bd,SCR,2024-06-11_12h20.14.563,LearnStrategy,2023.2.3,Win32,163.9344262,4,1,1,0.255121787,-0.376389027,1,0,0,1.4543,Andesite_14,1,14,1,6,1.454,1,14,0.116232793,-0.407639027,1,0,0,4.6778,Peridotite_rect,7,4.678,0,0,0,0,0,1,,,,,,,,,,,,,
629082739390703f993b12bd,SCR,2024-06-11_12h20.14.563,LearnStrategy,2023.2.3,Win32,163.9344262,4,1,2,-0.526128451,0.404861093,1,0,0,0.9979,Peridotite_10,7,10,6,1,0.998,7,10,0.064149459,-0.406944593,1,0,0,4.1145,Peridotite_rect,7,4.115,1,1,0,1,0,1,,,,,,,,,,,,,
629082739390703f993b12bd,SCR,2024-06-11_12h20.14.563,LearnStrategy,2023.2.3,Win32,163.9344262,4,1,3,0.394704978,-0.377777815,1,0,0,0.8946,Gabbro_08,4,08,1,7,0.895,4,08,-0.103906234,-0.243055582,1,0,0,2.8541,Basalt_rect,2,2.854,0,2,0,2,0,1,,,,,,,,,,,,,
629082739390703f993b12bd,SCR,2024-06-11_12h20.14.563,LearnStrategy,2023.2.3,Win32,163.9344262,4,1,4,-0.254600565,-0.256944577,1,0,0,0.8632,Pegmatite_13,6,13,2,3,0.863,6,13,-0.148350557,-0.412500143,1,0,0,4.6611,Pegmatite_rect,6,4.661,1,3,0,3,0,1,,,,,,,,,,,,,
629082739390703f993b12bd,SCR,2024-06-11_12h20.14.563,LearnStrategy,2023.2.3,Win32,163.9344262,4,1,5,0.235677242,-0.105555614,1,0,0,0.9532,Andesite_10,1,10,3,6,0.953,1,10,-0.402517279,-0.240277926,1,0,0,2.406,Andesite_rect,1,2.406,1,4,0,4,0,1,,,,,,,,,,,,,
629082739390703f993b12bd,SCR,2024-06-11_12h20.14.563,LearnStrategy,2023.2.3,Win32,163.9344262,4,1,6,-0.380295118,0.091666659,1,0,0,0.7993,Andesite_02,1,02,4,2,0.799,1,02,0.118316015,-0.409027815,1,0,0,6.2116,Peridotite_rect,7,6.212,0,5,0,5,0,1,,,,,,,,,,,,,
629082739390703f993b12bd,SCR,2024-06-11_12h20.14.563,LearnStrategy,2023.2.3,Win32,163.9344262,4,1,7,0.542621613,-0.290277799,1,0,0,0.988,Pumice_14,8,14,2,8,0.988,8,14,0.371093909,-0.404861132,1,0,0,2.7244,Pumice_rect,8,2.724,1,6,0,6,0,1,,,,,,,,,,,,,
629082739390703f993b12bd,SCR,2024-06-11_12h20.14.563,LearnStrategy,2023.2.3,Win32,163.9344262,4,1,8,0.35651056,-0.393750032,1,0,0,1.0024,Gabbro_08,4,08,1,7,1.002,4,08,0.096093893,-0.395833492,1,0,0,36.1791,Peridotite_rect,7,36.179,0,7,0,7,0,1,,,,,,,,,,,,,
629082739390703f993b12bd,SCR,2024-06-11_12h20.14.563,LearnStrategy,2023.2.3,Win32,163.9344262,4,1,9,0.050260544,0.410416663,1,0,0,1.0509,Gabbro_03,4,03,6,5,1.051,4,03,0.32526056,-0.260416667,1,0,0,3.114,Gabbro_rect,4,3.114,1,8,0,8,0,1,,,,,,,,,,,,,
629082739390703f993b12bd,SCR,2024-06-11_12h20.14.563,LearnStrategy,2023.2.3,Win32,163.9344262,4,1,10,-0.535850684,-0.22083346,1,0,0,0.9334,Diorite_16,3,16,2,1,0.933,3,16,0.115538359,-0.260416667,1,0,0,1.896,Diorite_rect,3,1.896,1,9,0,9,0,1,,,,,,,,,,,,,
629082739390703f993b12bd,SCR,2024-06-11_12h20.14.563,LearnStrategy,2023.2.3,Win32,163.9344262,4,1,11,-0.245572845,0.253472189,1,0,0,0.7957,Gabbro_16,4,16,5,3,0.796,4,16,-0.154600541,-0.245833476,1,0,0,3.0383,Basalt_rect,2,3.038,0,10,0,10,0,1,,,,,,,,,,,,,
629082739390703f993b12bd,SCR,2024-06-11_12h20.14.563,LearnStrategy,2023.2.3,Win32,163.9344262,4,1,12,-0.238628387,-0.090277791,1,0,0,0.6104,Basalt_06,2,06,3,3,0.61,2,06,-0.337933898,-0.237500032,1,0,0,1.4209,Andesite_rect,1,1.421,0,11,0,11,0,1,,,,,,,,,,,,,
629082739390703f993b12bd,SCR,2024-06-11_12h20.14.563,LearnStrategy,2023.2.3,Win32,163.9344262,4,1,13,0.046093782,-0.298611244,1,0,0,0.6697,Basalt_12,2,12,2,5,0.67,2,12,-0.428906242,-0.256944577,1,0,0,1.8038,Andesite_rect,1,1.804,0,12,0,12,0,1,,,,,,,,,,,,,
629082739390703f993b12bd,SCR,2024-06-11_12h20.14.563,LearnStrategy,2023.2.3,Win32,163.9344262,4,1,14,0.54053847,0.388194442,1,0,0,1.1715,Pegmatite_07,6,07,6,8,1.172,6,07,-0.170572917,-0.405555566,1,0,0,5.4665,Pegmatite_rect,6,5.466,1,13,0,13,0,1,,,,,,,,,,,,,
629082739390703f993b12bd,SCR,2024-06-11_12h20.14.563,LearnStrategy,2023.2.3,Win32,163.9344262,4,1,15,0.038455009,0.249305546,1,0,0,0.7644,Basalt_04,2,04,5,5,0.764,2,04,-0.165017207,-0.238194466,1,0,0,2.2011,Basalt_rect,2,2.201,1,14,0,14,0,1,,,,,,,,,,,,,
629082739390703f993b12bd,SCR,2024-06-11_12h20.14.563,LearnStrategy,2023.2.3,Win32,163.9344262,4,1,16,0.043316126,-0.411111275,1,0,0,0.9184,Peridotite_07,7,07,1,5,0.918,7,07,0.113454898,-0.396527926,1,0,0,4.2395,Peridotite_rect,7,4.24,1,15,0,15,0,1,,,,,,,,,,,,,
629082739390703f993b12bd,SCR,2024-06-11_12h20.14.563,LearnStrategy,2023.2.3,Win32,163.9344262,4,2,1,,,,,,,,5,06,,,,,,,,,,,,,5,1.328,1,,,,,,-0.372656186,-0.404861132,1,0,0,1.3281,Obsidian_rect,0,0,0,0,1,
629082739390703f993b12bd,SCR,2024-06-11_12h20.14.563,LearnStrategy,2023.2.3,Win32,163.9344262,4,2,2,,,,,,,,3,14,,,,,,,,,,,,,3,1.96,1,,,,,,0.090538343,-0.243055582,1,0,0,1.9596,Diorite_rect,1,0,1,0,1,
629082739390703f993b12bd,SCR,2024-06-11_12h20.14.563,LearnStrategy,2023.2.3,Win32,163.9344262,4,2,3,,,,,,,,1,03,,,,,,,,,,,,,1,2.334,1,,,,,,-0.350433906,-0.241666794,1,0,0,2.3342,Andesite_rect,2,0,2,0,1,
629082739390703f993b12bd,SCR,2024-06-11_12h20.14.563,LearnStrategy,2023.2.3,Win32,163.9344262,4,2,4,,,,,,,,4,11,,,,,,,,,,,,,2,4.62,0,,,,,,-0.151128451,-0.236805598,1,0,0,4.6203,Basalt_rect,3,0,3,0,1,
629082739390703f993b12bd,SCR,2024-06-11_12h20.14.563,LearnStrategy,2023.2.3,Win32,163.9344262,4,2,5,,,,,,,,6,10,,,,,,,,,,,,,6,2.103,1,,,,,,-0.108072758,-0.404861132,1,0,0,2.1034,Pegmatite_rect,4,0,4,0,1,
629082739390703f993b12bd,SCR,2024-06-11_12h20.14.563,LearnStrategy,2023.2.3,Win32,163.9344262,4,2,6,,,,,,,,4,12,,,,,,,,,,,,,1,2.605,0,,,,,,-0.319183906,-0.253472249,1,0,0,2.6048,Andesite_rect,5,0,5,0,1,
629082739390703f993b12bd,SCR,2024-06-11_12h20.14.563,LearnStrategy,2023.2.3,Win32,163.9344262,4,2,7,,,,,,,,8,02,,,,,,,,,,,,,8,2.077,1,,,,,,0.37317721,-0.393055598,1,0,0,2.0766,Pumice_rect,6,0,6,0,1,
629082739390703f993b12bd,SCR,2024-06-11_12h20.14.563,LearnStrategy,2023.2.3,Win32,163.9344262,4,2,8,,,,,,,,3,07,,,,,,,,,,,,,3,2.065,1,,,,,,0.128038327,-0.243750016,1,0,0,2.065,Diorite_rect,7,0,7,0,1,
629082739390703f993b12bd,SCR,2024-06-11_12h20.14.563,LearnStrategy,2023.2.3,Win32,163.9344262,4,2,9,,,,,,,,1,01,,,,,,,,,,,,,2,4.327,0,,,,,,-0.080295006,-0.253472249,1,0,0,4.3271,Basalt_rect,8,0,8,0,1,
629082739390703f993b12bd,SCR,2024-06-11_12h20.14.563,LearnStrategy,2023.2.3,Win32,163.9344262,4,2,10,,,,,,,,7,13,,,,,,,,,,,,,7,2.88,1,,,,,,0.130121549,-0.400000016,1,0,0,2.8799,Peridotite_rect,9,0,9,0,1,
629082739390703f993b12bd,SCR,2024-06-11_12h20.14.563,LearnStrategy,2023.2.3,Win32,163.9344262,4,2,11,,,,,,,,7,04,,,,,,,,,,,,,7,3.665,1,,,,,,0.077343782,-0.415972233,1,0,0,3.6652,Peridotite_rect,10,0,10,0,1,
629082739390703f993b12bd,SCR,2024-06-11_12h20.14.563,LearnStrategy,2023.2.3,Win32,163.9344262,4,2,12,,,,,,,,2,09,,,,,,,,,,,,,2,2.889,1,,,,,,-0.200433969,-0.238194466,1,0,0,2.8894,Basalt_rect,11,0,11,0,1,
629082739390703f993b12bd,SCR,2024-06-11_12h20.14.563,LearnStrategy,2023.2.3,Win32,163.9344262,4,2,13,,,,,,,,5,02,,,,,,,,,,,,,5,1.106,1,,,,,,-0.410156171,-0.397916794,1,0,0,1.1058,Obsidian_rect,12,0,12,0,1,
629082739390703f993b12bd,SCR,2024-06-11_12h20.14.563,LearnStrategy,2023.2.3,Win32,163.9344262,4,2,14,,,,,,,,6,11,,,,,,,,,,,,,6,2.782,1,,,,,,-0.155295134,-0.406944593,1,0,0,2.7825,Pegmatite_rect,13,0,13,0,1,
629082739390703f993b12bd,SCR,2024-06-11_12h20.14.563,LearnStrategy,2023.2.3,Win32,163.9344262,4,2,15,,,,,,,,2,01,,,,,,,,,,,,,2,2.267,1,,,,,,-0.178906202,-0.261805693,1,0,0,2.2671,Basalt_rect,14,0,14,0,1,
629082739390703f993b12bd,SCR,2024-06-11_12h20.14.563,LearnStrategy,2023.2.3,Win32,163.9344262,4,2,16,,,,,,,,8,05,,,,,,,,,,,,,8,1.646,1,,,,,,0.381510576,-0.409722249,1,0,0,1.6457,Pumice_rect,15,0,15,0,1,
629082739390703f993b12bd,SCR,2024-06-11_12h20.14.563,LearnStrategy,2023.2.3,Win32,163.9344262,5,1,1,0.094705025,-0.128472328,1,0,0,1.1165,Diorite_11,3,11,3,5,1.116,3,11,0.144010544,-0.399305582,1,0,0,3.0593,Peridotite_rect,7,3.059,0,0,0,0,0,1,,,,,,,,,,,,,
629082739390703f993b12bd,SCR,2024-06-11_12h20.14.563,LearnStrategy,2023.2.3,Win32,163.9344262,5,1,2,-0.387934009,-0.084027847,1,0,0,1.2844,Peridotite_08,7,08,3,2,1.284,7,08,0.090538343,-0.415972233,1,0,0,4.6117,Peridotite_rect,7,4.612,1,1,0,1,0,1,,,,,,,,,,,,,
629082739390703f993b12bd,SCR,2024-06-11_12h20.14.563,LearnStrategy,2023.2.3,Win32,163.9344262,5,1,3,-0.244878451,0.280555546,1,0,0,1.2759,Gabbro_16,4,16,5,3,1.276,4,16,0.384288311,-0.261111259,1,0,0,3.2289,Gabbro_rect,4,3.229,1,2,0,2,0,1,,,,,,,,,,,,,
629082739390703f993b12bd,SCR,2024-06-11_12h20.14.563,LearnStrategy,2023.2.3,Win32,163.9344262,5,1,4,-0.241406163,-0.424305598,1,0,0,0.8799,Gabbro_01,4,01,1,3,0.88,4,01,0.112760544,-0.261111259,1,0,0,4.5803,Diorite_rect,3,4.58,0,3,0,3,0,1,,,,,,,,,,,,,
629082739390703f993b12bd,SCR,2024-06-11_12h20.14.563,LearnStrategy,2023.2.3,Win32,163.9344262,5,1,5,0.343315999,-0.393055598,1,0,0,0.9467,Gabbro_08,4,08,1,7,0.947,4,08,0.098871549,-0.234027783,1,0,0,4.8851,Diorite_rect,3,4.885,0,4,0,4,0,1,,,,,,,,,,,,,
629082739390703f993b12bd,SCR,2024-06-11_12h20.14.563,LearnStrategy,2023.2.3,Win32,163.9344262,5,1,6,-0.411545118,-0.265972376,1,0,0,0.8446,Peridotite_12,7,12,2,2,0.845,7,12,0.073871692,-0.412500143,1,0,0,5.0209,Peridotite_rect,7,5.021,1,5,0,5,0,1,,,,,,,,,,,,,
629082739390703f993b12bd,SCR,2024-06-11_12h20.14.563,LearnStrategy,2023.2.3,Win32,163.9344262,5,1,7,0.20026056,-0.228472233,1,0,0,1.1997,Andesite_04,1,04,2,6,1.2,1,04,-0.340017239,-0.245833476,1,0,0,2.886,Andesite_rect,1,2.886,1,6,0,6,0,1,,,,,,,,,,,,,
629082739390703f993b12bd,SCR,2024-06-11_12h20.14.563,LearnStrategy,2023.2.3,Win32,163.9344262,5,1,8,-0.070572774,0.220833302,1,0,0,0.8426,Andesite_09,1,09,5,4,0.843,1,09,-0.396267295,-0.245833476,1,0,0,1.1382,Andesite_rect,1,1.138,1,7,0,7,0,1,,,,,,,,,,,,,
629082739390703f993b12bd,SCR,2024-06-11_12h20.14.563,LearnStrategy,2023.2.3,Win32,163.9344262,5,1,9,0.525260448,0.138888876,1,0,0,0.9425,Pumice_10,8,10,4,8,0.942,8,10,0.362760544,-0.392361244,1,0,0,1.5139,Pumice_rect,8,1.514,1,8,0,8,0,1,,,,,,,,,,,,,
629082739390703f993b12bd,SCR,2024-06-11_12h20.14.563,LearnStrategy,2023.2.3,Win32,163.9344262,5,1,10,0.357205073,-0.388194482,1,0,0,1.5488,Gabbro_08,4,08,1,7,1.549,4,08,-0.153211673,-0.243750016,1,0,0,4.8336,Basalt_rect,2,4.834,0,9,0,9,0,1,,,,,,,,,,,,,
629082739390703f993b12bd,SCR,2024-06-11_12h20.14.563,LearnStrategy,2023.2.3,Win32,163.9344262,5,1,11,-0.390711784,0.382638872,1,0,0,1.0607,Basalt_16,2,16,6,2,1.061,2,16,0.365538438,-0.254166683,1,0,0,2.6449,Gabbro_rect,4,2.645,0,10,0,10,0,1,,,,,,,,,,,,,
629082739390703f993b12bd,SCR,2024-06-11_12h20.14.563,LearnStrategy,2023.2.3,Win32,163.9344262,5,1,12,0.08637166,-0.306250016,1,0,0,0.7382,Basalt_12,2,12,2,5,0.738,2,12,-0.142100652,-0.231944482,1,0,0,2.6569,Basalt_rect,2,2.657,1,11,0,11,0,1,,,,,,,,,,,,,
629082739390703f993b12bd,SCR,2024-06-11_12h20.14.563,LearnStrategy,2023.2.3,Win32,163.9344262,5,1,13,0.069705009,-0.269444466,1,0,0,0.6068,Basalt_12,2,12,2,5,0.607,2,12,-0.161545118,-0.242361148,1,0,0,1.0556,Basalt_rect,2,1.056,1,12,0,12,0,1,,,,,,,,,,,,,
629082739390703f993b12bd,SCR,2024-06-11_12h20.14.563,LearnStrategy,2023.2.3,Win32,163.9344262,5,1,14,0.050260544,0.370833317,1,0,0,1.1431,Gabbro_03,4,03,6,5,1.143,4,03,0.064149459,-0.420138915,1,0,0,3.164,Peridotite_rect,7,3.164,0,13,0,13,0,1,,,,,,,,,,,,,
629082739390703f993b12bd,SCR,2024-06-11_12h20.14.563,LearnStrategy,2023.2.3,Win32,163.9344262,5,1,15,-0.246961713,-0.288194577,1,0,0,0.8942,Pegmatite_13,6,13,2,3,0.894,6,13,-0.13237834,-0.415972233,1,0,0,2.1938,Pegmatite_rect,6,2.194,1,14,0,14,0,1,,,,,,,,,,,,,
629082739390703f993b12bd,SCR,2024-06-11_12h20.14.563,LearnStrategy,2023.2.3,Win32,163.9344262,5,1,16,-0.080295006,0.288194438,1,0,0,0.749,Andesite_09,1,09,5,4,0.749,1,09,-0.387934009,-0.247916698,1,0,0,1.3868,Andesite_rect,1,1.387,1,15,0,15,0,1,,,,,,,,,,,,,
629082739390703f993b12bd,SCR,2024-06-11_12h20.14.563,LearnStrategy,2023.2.3,Win32,163.9344262,5,2,1,,,,,,,,6,08,,,,,,,,,,,,,6,4.242,1,,,,,,-0.127517223,-0.385416826,1,0,0,4.242,Pegmatite_rect,0,0,0,0,1,
629082739390703f993b12bd,SCR,2024-06-11_12h20.14.563,LearnStrategy,2023.2.3,Win32,163.9344262,5,2,2,,,,,,,,2,14,,,,,,,,,,,,,4,2.5,0,,,,,,0.330121756,-0.247916698,1,0,0,2.5002,Gabbro_rect,1,0,1,0,1,
629082739390703f993b12bd,SCR,2024-06-11_12h20.14.563,LearnStrategy,2023.2.3,Win32,163.9344262,5,2,3,,,,,,,,5,11,,,,,,,,,,,,,5,1.169,1,,,,,,-0.403906186,-0.411111275,1,0,0,1.1691,Obsidian_rect,2,0,2,0,1,
629082739390703f993b12bd,SCR,2024-06-11_12h20.14.563,LearnStrategy,2023.2.3,Win32,163.9344262,5,2,4,,,,,,,,7,05,,,,,,,,,,,,,7,6.061,1,,,,,,0.071788232,-0.381250143,1,0,0,6.0612,Peridotite_rect,3,0,3,0,1,
629082739390703f993b12bd,SCR,2024-06-11_12h20.14.563,LearnStrategy,2023.2.3,Win32,163.9344262,5,2,5,,,,,,,,1,07,,,,,,,,,,,,,7,2.374,0,,,,,,0.107204994,-0.39166681,1,0,0,2.374,Peridotite_rect,4,0,4,0,1,
629082739390703f993b12bd,SCR,2024-06-11_12h20.14.563,LearnStrategy,2023.2.3,Win32,163.9344262,5,2,6,,,,,,,,4,10,,,,,,,,,,,,,2,2.909,0,,,,,,-0.120572885,-0.245833476,1,0,0,2.9095,Basalt_rect,5,0,5,0,1,
629082739390703f993b12bd,SCR,2024-06-11_12h20.14.563,LearnStrategy,2023.2.3,Win32,163.9344262,5,2,7,,,,,,,,4,15,,,,,,,,,,,,,3,3.859,0,,,,,,0.070399443,-0.262500127,1,0,0,3.8587,Diorite_rect,6,0,6,0,1,
629082739390703f993b12bd,SCR,2024-06-11_12h20.14.563,LearnStrategy,2023.2.3,Win32,163.9344262,5,2,8,,,,,,,,3,13,,,,,,,,,,,,,6,3.929,0,,,,,,-0.162933985,-0.39722236,1,0,0,3.929,Pegmatite_rect,7,0,7,0,1,
629082739390703f993b12bd,SCR,2024-06-11_12h20.14.563,LearnStrategy,2023.2.3,Win32,163.9344262,5,2,9,,,,,,,,6,12,,,,,,,,,,,,,3,3.932,0,,,,,,0.113454898,-0.250694593,1,0,0,3.9323,Diorite_rect,8,0,8,0,1,
629082739390703f993b12bd,SCR,2024-06-11_12h20.14.563,LearnStrategy,2023.2.3,Win32,163.9344262,5,2,10,,,,,,,,1,06,,,,,,,,,,,,,1,1.596,1,,,,,,-0.381683946,-0.261111259,1,0,0,1.596,Andesite_rect,9,0,9,0,1,
629082739390703f993b12bd,SCR,2024-06-11_12h20.14.563,LearnStrategy,2023.2.3,Win32,163.9344262,5,2,11,,,,,,,,2,11,,,,,,,,,,,,,2,1.394,1,,,,,,-0.1657118,-0.229861259,1,0,0,1.3937,Basalt_rect,10,0,10,0,1,
629082739390703f993b12bd,SCR,2024-06-11_12h20.14.563,LearnStrategy,2023.2.3,Win32,163.9344262,5,2,12,,,,,,,,8,16,,,,,,,,,,,,,4,1.858,0,,,,,,0.364843925,-0.239583333,1,0,0,1.8578,Gabbro_rect,11,0,11,0,1,
629082739390703f993b12bd,SCR,2024-06-11_12h20.14.563,LearnStrategy,2023.2.3,Win32,163.9344262,5,2,13,,,,,,,,5,14,,,,,,,,,,,,,5,1.167,1,,,,,,-0.403211792,-0.409027815,1,0,0,1.1669,Obsidian_rect,12,0,12,0,1,
629082739390703f993b12bd,SCR,2024-06-11_12h20.14.563,LearnStrategy,2023.2.3,Win32,163.9344262,5,2,14,,,,,,,,8,13,,,,,,,,,,,,,8,2.6,1,,,,,,0.345399459,-0.395138899,1,0,0,2.5999,Pumice_rect,13,0,13,0,1,
629082739390703f993b12bd,SCR,2024-06-11_12h20.14.563,LearnStrategy,2023.2.3,Win32,163.9344262,5,2,15,,,,,,,,3,15,,,,,,,,,,,,,7,2.477,0,,,,,,0.111371676,-0.407639027,1,0,0,2.4771,Peridotite_rect,14,0,14,0,1,
629082739390703f993b12bd,SCR,2024-06-11_12h20.14.563,LearnStrategy,2023.2.3,Win32,163.9344262,5,2,16,,,,,,,,7,02,,,,,,,,,,,,,7,1.349,1,,,,,,0.105121692,-0.409722249,1,0,0,1.3485,Peridotite_rect,15,0,15,0,1,
629082739390703f993b12bd,SCR,2024-06-11_12h20.14.563,LearnStrategy,2023.2.3,Win32,163.9344262,6,1,1,-0.060850541,-0.409722249,1,0,0,1.3715,Gabbro_05,4,05,1,4,1.371,4,05,0.084288359,-0.400694609,1,0,0,5.6589,Peridotite_rect,7,5.659,0,0,0,0,0,1,,,,,,,,,,,,,
629082739390703f993b12bd,SCR,2024-06-11_12h20.14.563,LearnStrategy,2023.2.3,Win32,163.9344262,6,1,2,0.369010448,0.218055526,1,0,0,1.0844,Pegmatite_06,6,06,5,7,1.084,6,06,-0.144878467,-0.411805709,1,0,0,3.1545,Pegmatite_rect,6,3.155,1,1,0,1,0,1,,,,,,,,,,,,,
629082739390703f993b12bd,SCR,2024-06-11_12h20.14.563,LearnStrategy,2023.2.3,Win32,163.9344262,6,1,3,0.241232793,-0.398611148,1,0,0,0.839,Andesite_14,1,14,1,6,0.839,1,14,0.065538327,-0.393055598,1,0,0,6.0351,Peridotite_rect,7,6.035,0,2,0,2,0,1,,,,,,,,,,,,,
629082739390703f993b12bd,SCR,2024-06-11_12h20.14.563,LearnStrategy,2023.2.3,Win32,163.9344262,6,1,4,-0.224045118,0.248611073,1,0,0,0.7226,Gabbro_16,4,16,5,3,0.723,4,16,0.389149348,-0.267361244,1,0,0,1.5517,Gabbro_rect,4,1.552,1,3,0,3,0,1,,,,,,,,,,,,,
629082739390703f993b12bd,SCR,2024-06-11_12h20.14.563,LearnStrategy,2023.2.3,Win32,163.9344262,6,1,5,0.280121644,-0.124305685,1,0,0,0.7828,Andesite_10,1,10,3,6,0.783,1,10,-0.180294991,-0.261111259,1,0,0,2.393,Basalt_rect,2,2.393,0,4,0,4,0,1,,,,,,,,,,,,,
629082739390703f993b12bd,SCR,2024-06-11_12h20.14.563,LearnStrategy,2023.2.3,Win32,163.9344262,6,1,6,-0.372656186,-0.245139043,1,0,0,0.8138,Peridotite_12,7,12,2,2,0.814,7,12,0.071788232,-0.418750127,1,0,0,1.7815,Peridotite_rect,7,1.782,1,5,0,5,0,1,,,,,,,,,,,,,
629082739390703f993b12bd,SCR,2024-06-11_12h20.14.563,LearnStrategy,2023.2.3,Win32,163.9344262,6,1,7,0.518316269,-0.121527791,1,0,0,0.8332,Basalt_05,2,05,3,8,0.833,2,05,-0.108767351,-0.254861116,1,0,0,1.6635,Basalt_rect,2,1.663,1,6,0,6,0,1,,,,,,,,,,,,,
629082739390703f993b12bd,SCR,2024-06-11_12h20.14.563,LearnStrategy,2023.2.3,Win32,163.9344262,6,1,8,0.379427115,-0.091666738,1,0,0,0.7562,Basalt_10,2,10,3,7,0.756,2,10,-0.135850668,-0.249305566,1,0,0,3.3238,Basalt_rect,2,3.324,1,7,0,7,0,1,,,,,,,,,,,,,
629082739390703f993b12bd,SCR,2024-06-11_12h20.14.563,LearnStrategy,2023.2.3,Win32,163.9344262,6,1,9,-0.376822909,0.442361102,1,0,0,0.8588,Basalt_16,2,16,6,2,0.859,2,16,0.384288311,-0.254861116,1,0,0,1.2396,Gabbro_rect,4,1.24,0,8,0,8,0,1,,,,,,,,,,,,,
629082739390703f993b12bd,SCR,2024-06-11_12h20.14.563,LearnStrategy,2023.2.3,Win32,163.9344262,6,1,10,-0.227517247,0.276388884,1,0,0,0.7994,Gabbro_16,4,16,5,3,0.799,4,16,-0.147656123,-0.270138899,1,0,0,3.2512,Basalt_rect,2,3.251,0,9,0,9,0,1,,,,,,,,,,,,,
629082739390703f993b12bd,SCR,2024-06-11_12h20.14.563,LearnStrategy,2023.2.3,Win32,163.9344262,6,1,11,-0.591406206,0.217361073,1,0,0,0.9683,Pumice_08,8,08,5,1,0.968,8,08,0.36206611,-0.388888915,1,0,0,1.6508,Pumice_rect,8,1.651,1,10,0,10,0,1,,,,,,,,,,,,,
629082739390703f993b12bd,SCR,2024-06-11_12h20.14.563,LearnStrategy,2023.2.3,Win32,163.9344262,6,1,12,0.243316015,-0.370139043,1,0,0,0.7739,Andesite_14,1,14,1,6,0.774,1,14,-0.155295134,-0.412500143,1,0,0,7.8566,Pegmatite_rect,6,7.857,0,11,0,11,0,1,,,,,,,,,,,,,
629082739390703f993b12bd,SCR,2024-06-11_12h20.14.563,LearnStrategy,2023.2.3,Win32,163.9344262,6,1,13,-0.098350684,0.129861037,1,0,0,0.5452,Diorite_12,3,12,4,4,0.545,3,12,0.098177115,-0.403472265,1,0,0,3.1815,Peridotite_rect,7,3.182,0,12,0,12,0,1,,,,,,,,,,,,,
629082739390703f993b12bd,SCR,2024-06-11_12h20.14.563,LearnStrategy,2023.2.3,Win32,163.9344262,6,1,14,-0.239322901,-0.273611148,1,0,0,0.8024,Pegmatite_13,6,13,2,3,0.802,6,13,-0.146267335,-0.39722236,1,0,0,1.6226,Pegmatite_rect,6,1.623,1,13,0,13,0,1,,,,,,,,,,,,,
629082739390703f993b12bd,SCR,2024-06-11_12h20.14.563,LearnStrategy,2023.2.3,Win32,163.9344262,6,1,15,0.053732793,-0.088889003,1,0,0,0.6498,Diorite_11,3,11,3,5,0.65,3,11,0.12317721,-0.394444466,1,0,0,2.6314,Peridotite_rect,7,2.631,0,14,0,14,0,1,,,,,,,,,,,,,
629082739390703f993b12bd,SCR,2024-06-11_12h20.14.563,LearnStrategy,2023.2.3,Win32,163.9344262,6,1,16,0.378038406,-0.404166698,1,0,0,0.8449,Gabbro_08,4,08,1,7,0.845,4,08,-0.131683985,-0.253472249,1,0,0,3.5775,Basalt_rect,2,3.578,0,15,0,15,0,1,,,,,,,,,,,,,
629082739390703f993b12bd,SCR,2024-06-11_12h20.14.563,LearnStrategy,2023.2.3,Win32,163.9344262,6,2,1,,,,,,,,2,02,,,,,,,,,,,,,2,3.647,1,,,,,,-0.15807279,-0.247916698,1,0,0,3.6468,Basalt_rect,0,0,0,0,1,
629082739390703f993b12bd,SCR,2024-06-11_12h20.14.563,LearnStrategy,2023.2.3,Win32,163.9344262,6,2,2,,,,,,,,3,06,,,,,,,,,,,,,3,2.205,1,,,,,,0.129427115,-0.252777815,1,0,0,2.205,Diorite_rect,1,0,1,0,1,
629082739390703f993b12bd,SCR,2024-06-11_12h20.14.563,LearnStrategy,2023.2.3,Win32,163.9344262,6,2,3,,,,,,,,6,15,,,,,,,,,,,,,6,1.75,1,,,,,,-0.162239552,-0.411111275,1,0,0,1.7499,Pegmatite_rect,2,0,2,0,1,
629082739390703f993b12bd,SCR,2024-06-11_12h20.14.563,LearnStrategy,2023.2.3,Win32,163.9344262,6,2,4,,,,,,,,5,10,,,,,,,,,,,,,5,1.092,1,,,,,,-0.358767351,-0.415972233,1,0,0,1.0925,Obsidian_rect,3,0,3,0,1,
629082739390703f993b12bd,SCR,2024-06-11_12h20.14.563,LearnStrategy,2023.2.3,Win32,163.9344262,6,2,5,,,,,,,,7,14,,,,,,,,,,,,,4,5.1,0,,,,,,0.346788406,-0.26666681,1,0,0,5.1,Gabbro_rect,4,0,4,0,1,
629082739390703f993b12bd,SCR,2024-06-11_12h20.14.563,LearnStrategy,2023.2.3,Win32,163.9344262,6,2,6,,,,,,,,8,06,,,,,,,,,,,,,8,1.193,1,,,,,,0.334288438,-0.395138899,1,0,0,1.1925,Pumice_rect,5,0,5,0,1,
629082739390703f993b12bd,SCR,2024-06-11_12h20.14.563,LearnStrategy,2023.2.3,Win32,163.9344262,6,2,7,,,,,,,,1,11,,,,,,,,,,,,,1,1.524,1,,,,,,-0.380989512,-0.250694593,1,0,0,1.5236,Andesite_rect,6,0,6,0,1,
629082739390703f993b12bd,SCR,2024-06-11_12h20.14.563,LearnStrategy,2023.2.3,Win32,163.9344262,6,2,8,,,,,,,,6,03,,,,,,,,,,,,,6,1.61,1,,,,,,-0.119184017,-0.406250159,1,0,0,1.6104,Pegmatite_rect,7,0,7,0,1,
629082739390703f993b12bd,SCR,2024-06-11_12h20.14.563,LearnStrategy,2023.2.3,Win32,163.9344262,6,2,9,,,,,,,,2,08,,,,,,,,,,,,,2,1.45,1,,,,,,-0.154600541,-0.247916698,1,0,0,1.4497,Basalt_rect,8,0,8,0,1,
629082739390703f993b12bd,SCR,2024-06-11_12h20.14.563,LearnStrategy,2023.2.3,Win32,163.9344262,6,2,10,,,,,,,,4,13,,,,,,,,,,,,,4,2.424,1,,,,,,0.366232793,-0.255555709,1,0,0,2.4243,Gabbro_rect,9,0,9,0,1,
629082739390703f993b12bd,SCR,2024-06-11_12h20.14.563,LearnStrategy,2023.2.3,Win32,163.9344262,6,2,11,,,,,,,,1,16,,,,,,,,,,,,,7,10.89,0,,,,,,0.061371565,-0.397916794,1,0,0,10.8896,Peridotite_rect,10,0,10,0,1,
629082739390703f993b12bd,SCR,2024-06-11_12h20.14.563,LearnStrategy,2023.2.3,Win32,163.9344262,6,2,12,,,,,,,,5,16,,,,,,,,,,,,,5,1.295,1,,,,,,-0.365017295,-0.403472265,1,0,0,1.2947,Obsidian_rect,11,0,11,0,1,
629082739390703f993b12bd,SCR,2024-06-11_12h20.14.563,LearnStrategy,2023.2.3,Win32,163.9344262,6,2,13,,,,,,,,8,03,,,,,,,,,,,,,8,1.532,1,,,,,,0.346093893,-0.39166681,1,0,0,1.5315,Pumice_rect,12,0,12,0,1,
629082739390703f993b12bd,SCR,2024-06-11_12h20.14.563,LearnStrategy,2023.2.3,Win32,163.9344262,6,2,14,,,,,,,,7,15,,,,,,,,,,,,,7,3.595,1,,,,,,0.167621692,-0.393750032,1,0,0,3.5948,Peridotite_rect,13,0,13,0,1,
629082739390703f993b12bd,SCR,2024-06-11_12h20.14.563,LearnStrategy,2023.2.3,Win32,163.9344262,6,2,15,,,,,,,,4,09,,,,,,,,,,,,,2,1.704,0,,,,,,-0.13237834,-0.247916698,1,0,0,1.7038,Basalt_rect,14,0,14,0,1,
629082739390703f993b12bd,SCR,2024-06-11_12h20.14.563,LearnStrategy,2023.2.3,Win32,163.9344262,6,2,16,,,,,,,,3,09,,,,,,,,,,,,,3,1.199,1,,,,,,0.085677226,-0.243750016,1,0,0,1.1986,Diorite_rect,15,0,15,0,1,
629082739390703f993b12bd,SCR,2024-06-11_12h20.14.563,LearnStrategy,2023.2.3,Win32,163.9344262,7,1,1,0.073177099,-0.437500159,1,0,0,1.4186,Peridotite_07,7,07,1,5,1.419,7,07,0.073177099,-0.39166681,1,0,0,3.5753,Peridotite_rect,7,3.575,1,0,0,0,0,1,,,,,,,,,,,,,
629082739390703f993b12bd,SCR,2024-06-11_12h20.14.563,LearnStrategy,2023.2.3,Win32,163.9344262,7,1,2,0.05512166,-0.089583397,1,0,0,0.7071,Diorite_11,3,11,3,5,0.707,3,11,0.122482777,-0.24097236,1,0,0,1.1272,Diorite_rect,3,1.127,1,1,0,1,0,1,,,,,,,,,,,,,
629082739390703f993b12bd,SCR,2024-06-11_12h20.14.563,LearnStrategy,2023.2.3,Win32,163.9344262,7,1,3,0.046093782,0.406944444,1,0,0,0.9712,Gabbro_03,4,03,6,5,0.971,4,03,-0.43029507,-0.24652791,1,0,0,1.4487,Andesite_rect,1,1.449,0,2,0,2,0,1,,,,,,,,,,,,,
629082739390703f993b12bd,SCR,2024-06-11_12h20.14.563,LearnStrategy,2023.2.3,Win32,163.9344262,7,1,4,-0.062239567,0.234027743,1,0,0,0.7207,Andesite_09,1,09,5,4,0.721,1,09,-0.401128451,-0.238194466,1,0,0,2.8244,Andesite_rect,1,2.824,1,3,0,3,0,1,,,,,,,,,,,,,
629082739390703f993b12bd,SCR,2024-06-11_12h20.14.563,LearnStrategy,2023.2.3,Win32,163.9344262,7,1,5,-0.267100573,0.24999996,1,0,0,0.7423,Gabbro_16,4,16,5,3,0.742,4,16,0.332204978,-0.236111244,1,0,0,1.3379,Gabbro_rect,4,1.338,1,4,0,4,0,1,,,,,,,,,,,,,
629082739390703f993b12bd,SCR,2024-06-11_12h20.14.563,LearnStrategy,2023.2.3,Win32,163.9344262,7,1,6,0.078038216,-0.127777855,1,0,0,0.6728,Diorite_11,3,11,3,5,0.673,3,11,0.114843766,-0.241666794,1,0,0,1.4522,Diorite_rect,3,1.452,1,5,0,5,0,1,,,,,,,,,,,,,
629082739390703f993b12bd,SCR,2024-06-11_12h20.14.563,LearnStrategy,2023.2.3,Win32,163.9344262,7,1,7,0.521093845,-0.229861259,1,0,0,0.8876,Pumice_14,8,14,2,8,0.888,8,14,0.389843782,-0.395138899,1,0,0,3.2382,Pumice_rect,8,3.238,1,6,0,6,0,1,,,,,,,,,,,,,
629082739390703f993b12bd,SCR,2024-06-11_12h20.14.563,LearnStrategy,2023.2.3,Win32,163.9344262,7,1,8,0.385677258,-0.123611132,1,0,0,1.0642,Basalt_10,2,10,3,7,1.064,2,10,-0.10668389,-0.259722233,1,0,0,8.8666,Basalt_rect,2,8.867,1,7,0,7,0,1,,,,,,,,,,,,,
629082739390703f993b12bd,SCR,2024-06-11_12h20.14.563,LearnStrategy,2023.2.3,Win32,163.9344262,7,1,9,0.553038279,0.443749999,1,0,0,1.1855,Pegmatite_07,6,07,6,8,1.186,6,07,-0.155989567,-0.400000016,1,0,0,8.7162,Pegmatite_rect,6,8.716,1,8,0,8,0,1,,,,,,,,,,,,,
629082739390703f993b12bd,SCR,2024-06-11_12h20.14.563,LearnStrategy,2023.2.3,Win32,163.9344262,7,1,10,0.386371771,-0.385416826,1,0,0,0.9527,Gabbro_08,4,08,1,7,0.953,4,08,0.369010448,-0.248611132,1,0,0,9.4768,Gabbro_rect,4,9.477,1,9,0,9,0,1,,,,,,,,,,,,,
629082739390703f993b12bd,SCR,2024-06-11_12h20.14.563,LearnStrategy,2023.2.3,Win32,163.9344262,7,1,11,-0.503211737,0.397222221,1,0,0,0.9986,Peridotite_10,7,10,6,1,0.999,7,10,0.11206611,-0.379166683,1,0,0,2.8019,Peridotite_rect,7,2.802,1,10,0,10,0,1,,,,,,,,,,,,,
629082739390703f993b12bd,SCR,2024-06-11_12h20.14.563,LearnStrategy,2023.2.3,Win32,163.9344262,7,1,12,0.206510544,-0.231250127,1,0,0,0.7497,Andesite_04,1,04,2,6,0.75,1,04,-0.337239504,-0.241666794,1,0,0,1.2048,Andesite_rect,1,1.205,1,11,0,11,0,1,,,,,,,,,,,,,
629082739390703f993b12bd,SCR,2024-06-11_12h20.14.563,LearnStrategy,2023.2.3,Win32,163.9344262,7,1,13,-0.203906139,-0.36597236,1,0,0,0.9043,Gabbro_01,4,01,1,3,0.904,4,01,0.353732665,-0.254861116,1,0,0,2.3232,Gabbro_rect,4,2.323,1,12,0,12,0,1,,,,,,,,,,,,,
629082739390703f993b12bd,SCR,2024-06-11_12h20.14.563,LearnStrategy,2023.2.3,Win32,163.9344262,7,1,14,0.214149475,0.102777759,1,0,0,0.8896,Obsidian_05,5,05,4,6,0.89,5,05,-0.402517279,-0.388194482,1,0,0,1.6515,Obsidian_rect,5,1.651,1,13,0,13,0,1,,,,,,,,,,,,,
629082739390703f993b12bd,SCR,2024-06-11_12h20.14.563,LearnStrategy,2023.2.3,Win32,163.9344262,7,1,15,0.208593925,-0.068750064,1,0,0,0.9612,Andesite_10,1,10,3,6,0.961,1,10,-0.379600684,-0.265972376,1,0,0,1.621,Andesite_rect,1,1.621,1,14,0,14,0,1,,,,,,,,,,,,,
629082739390703f993b12bd,SCR,2024-06-11_12h20.14.563,LearnStrategy,2023.2.3,Win32,163.9344262,7,1,16,-0.39904507,0.397916665,1,0,0,0.8731,Basalt_16,2,16,6,2,0.873,2,16,0.344010592,-0.245833476,1,0,0,1.4786,Gabbro_rect,4,1.479,0,15,0,15,0,1,,,,,,,,,,,,,
629082739390703f993b12bd,SCR,2024-06-11_12h20.14.563,LearnStrategy,2023.2.3,Win32,163.9344262,7,2,1,,,,,,,,3,13,,,,,,,,,,,,,3,4.392,1,,,,,,0.094705025,-0.263194482,1,0,0,4.392,Diorite_rect,0,0,0,0,1,
629082739390703f993b12bd,SCR,2024-06-11_12h20.14.563,LearnStrategy,2023.2.3,Win32,163.9344262,7,2,2,,,,,,,,7,13,,,,,,,,,,,,,7,6.191,1,,,,,,0.119010448,-0.389583349,1,0,0,6.1906,Peridotite_rect,1,0,1,0,1,
629082739390703f993b12bd,SCR,2024-06-11_12h20.14.563,LearnStrategy,2023.2.3,Win32,163.9344262,7,2,3,,,,,,,,4,12,,,,,,,,,,,,,1,1.522,0,,,,,,-0.370572845,-0.243055582,1,0,0,1.5224,Andesite_rect,2,0,2,0,1,
629082739390703f993b12bd,SCR,2024-06-11_12h20.14.563,LearnStrategy,2023.2.3,Win32,163.9344262,7,2,4,,,,,,,,5,11,,,,,,,,,,,,,5,0.945,1,,,,,,-0.390711784,-0.406944593,1,0,0,0.9446,Obsidian_rect,3,0,3,0,1,
629082739390703f993b12bd,SCR,2024-06-11_12h20.14.563,LearnStrategy,2023.2.3,Win32,163.9344262,7,2,5,,,,,,,,1,16,,,,,,,,,,,,,1,8.972,1,,,,,,-0.349045118,-0.233333349,1,0,0,8.9719,Andesite_rect,4,0,4,0,1,
629082739390703f993b12bd,SCR,2024-06-11_12h20.14.563,LearnStrategy,2023.2.3,Win32,163.9344262,7,2,6,,,,,,,,4,10,,,,,,,,,,,,,2,1.67,0,,,,,,-0.138628324,-0.236805598,1,0,0,1.67,Basalt_rect,5,0,5,0,1,
629082739390703f993b12bd,SCR,2024-06-11_12h20.14.563,LearnStrategy,2023.2.3,Win32,163.9344262,7,2,7,,,,,,,,8,06,,,,,,,,,,,,,8,0.942,1,,,,,,0.348871787,-0.40833346,1,0,0,0.9417,Pumice_rect,6,0,6,0,1,
629082739390703f993b12bd,SCR,2024-06-11_12h20.14.563,LearnStrategy,2023.2.3,Win32,163.9344262,7,2,8,,,,,,,,5,10,,,,,,,,,,,,,5,0.923,1,,,,,,-0.374045054,-0.394444466,1,0,0,0.9228,Obsidian_rect,7,0,7,0,1,
629082739390703f993b12bd,SCR,2024-06-11_12h20.14.563,LearnStrategy,2023.2.3,Win32,163.9344262,7,2,9,,,,,,,,6,11,,,,,,,,,,,,,6,1.172,1,,,,,,-0.117794991,-0.388888915,1,0,0,1.1717,Pegmatite_rect,8,0,8,0,1,
629082739390703f993b12bd,SCR,2024-06-11_12h20.14.563,LearnStrategy,2023.2.3,Win32,163.9344262,7,2,10,,,,,,,,3,09,,,,,,,,,,,,,3,1.131,1,,,,,,0.094705025,-0.239583333,1,0,0,1.1314,Diorite_rect,9,0,9,0,1,
629082739390703f993b12bd,SCR,2024-06-11_12h20.14.563,LearnStrategy,2023.2.3,Win32,163.9344262,7,2,11,,,,,,,,2,02,,,,,,,,,,,,,2,1.703,1,,,,,,-0.147656123,-0.24444445,1,0,0,1.703,Basalt_rect,10,0,10,0,1,
629082739390703f993b12bd,SCR,2024-06-11_12h20.14.563,LearnStrategy,2023.2.3,Win32,163.9344262,7,2,12,,,,,,,,2,09,,,,,,,,,,,,,2,0.843,1,,,,,,-0.147656123,-0.24444445,1,0,0,0.8426,Basalt_rect,11,0,11,0,1,
629082739390703f993b12bd,SCR,2024-06-11_12h20.14.563,LearnStrategy,2023.2.3,Win32,163.9344262,7,2,13,,,,,,,,7,02,,,,,,,,,,,,,7,1.678,1,,,,,,0.089149475,-0.413194577,1,0,0,1.6785,Peridotite_rect,12,0,12,0,1,
629082739390703f993b12bd,SCR,2024-06-11_12h20.14.563,LearnStrategy,2023.2.3,Win32,163.9344262,7,2,14,,,,,,,,8,13,,,,,,,,,,,,,8,1.808,1,,,,,,0.375260592,-0.395138899,1,0,0,1.8082,Pumice_rect,13,0,13,0,1,
629082739390703f993b12bd,SCR,2024-06-11_12h20.14.563,LearnStrategy,2023.2.3,Win32,163.9344262,7,2,15,,,,,,,,6,03,,,,,,,,,,,,,6,1.896,1,,,,,,-0.135850668,-0.386805693,1,0,0,1.8955,Pegmatite_rect,14,0,14,0,1,
629082739390703f993b12bd,SCR,2024-06-11_12h20.14.563,LearnStrategy,2023.2.3,Win32,163.9344262,7,2,16,,,,,,,,1,01,,,,,,,,,,,,,4,4.512,0,,,,,,0.400955121,-0.231944482,1,0,0,4.512,Gabbro_rect,15,0,15,0,1,
629082739390703f993b12bd,SCR,2024-06-11_12h20.14.563,LearnStrategy,2023.2.3,Win32,163.9344262,8,1,1,0.248871644,0.075694442,1,0,0,1.2129,Obsidian_05,5,05,4,6,1.213,5,05,-0.448350628,-0.415277799,1,0,0,1.1298,Obsidian_rect,5,1.13,1,0,0,0,0,1,,,,,,,,,,,,,
629082739390703f993b12bd,SCR,2024-06-11_12h20.14.563,LearnStrategy,2023.2.3,Win32,163.9344262,8,1,2,0.076649348,0.396527777,1,0,0,0.9683,Gabbro_03,4,03,6,5,0.968,4,03,0.139843782,-0.388194482,1,0,0,6.8138,Peridotite_rect,7,6.814,0,1,0,1,0,1,,,,,,,,,,,,,
629082739390703f993b12bd,SCR,2024-06-11_12h20.14.563,LearnStrategy,2023.2.3,Win32,163.9344262,8,1,3,-0.383767287,-0.377777815,1,0,0,0.9503,Pumice_09,8,09,1,2,0.95,8,09,0.323177258,-0.404861132,1,0,0,2.5058,Pumice_rect,8,2.506,1,2,0,2,0,1,,,,,,,,,,,,,
629082739390703f993b12bd,SCR,2024-06-11_12h20.14.563,LearnStrategy,2023.2.3,Win32,163.9344262,8,1,4,-0.437239567,0.292361101,1,0,0,0.778,Diorite_10,3,10,5,2,0.778,3,10,0.07526056,-0.23541681,1,0,0,1.4808,Diorite_rect,3,1.481,1,3,0,3,0,1,,,,,,,,,,,,,
629082739390703f993b12bd,SCR,2024-06-11_12h20.14.563,LearnStrategy,2023.2.3,Win32,163.9344262,8,1,5,0.354427258,-0.090277791,1,0,0,0.8024,Basalt_10,2,10,3,7,0.802,2,10,0.317621787,-0.243750016,1,0,0,5.1034,Gabbro_rect,4,5.103,0,4,0,4,0,1,,,,,,,,,,,,,
629082739390703f993b12bd,SCR,2024-06-11_12h20.14.563,LearnStrategy,2023.2.3,Win32,163.9344262,8,1,6,0.348177115,0.361111085,1,0,0,0.9263,Gabbro_14,4,14,6,7,0.926,4,14,0.337066015,-0.26666681,1,0,0,1.8619,Gabbro_rect,4,1.862,1,5,0,5,0,1,,,,,,,,,,,,,
629082739390703f993b12bd,SCR,2024-06-11_12h20.14.563,LearnStrategy,2023.2.3,Win32,163.9344262,8,1,7,0.068315983,0.361111085,1,0,0,0.7866,Gabbro_03,4,03,6,5,0.787,4,03,0.108593782,-0.393750032,1,0,0,5.3487,Peridotite_rect,7,5.349,0,6,0,6,0,1,,,,,,,,,,,,,
629082739390703f993b12bd,SCR,2024-06-11_12h20.14.563,LearnStrategy,2023.2.3,Win32,163.9344262,8,1,8,0.058593909,-0.223611116,1,0,0,0.8599,Basalt_12,2,12,2,5,0.86,2,12,-0.381683946,-0.25,1,0,0,4.5002,Andesite_rect,1,4.5,0,7,0,7,0,1,,,,,,,,,,,,,
629082739390703f993b12bd,SCR,2024-06-11_12h20.14.563,LearnStrategy,2023.2.3,Win32,163.9344262,8,1,9,-0.383767287,0.08819437,1,0,0,1.1824,Andesite_02,1,02,4,2,1.182,1,02,0.141927242,-0.383333365,1,0,0,7.516,Peridotite_rect,7,7.516,0,8,0,8,0,1,,,,,,,,,,,,,
629082739390703f993b12bd,SCR,2024-06-11_12h20.14.563,LearnStrategy,2023.2.3,Win32,163.9344262,8,1,10,0.205121756,-0.403472265,1,0,0,0.7234,Andesite_14,1,14,1,6,0.723,1,14,-0.157378435,-0.402083476,1,0,0,1.4608,Pegmatite_rect,6,1.461,0,9,0,9,0,1,,,,,,,,,,,,,
629082739390703f993b12bd,SCR,2024-06-11_12h20.14.563,LearnStrategy,2023.2.3,Win32,163.9344262,8,1,11,-0.243489504,-0.384722233,1,0,0,0.7784,Gabbro_01,4,01,1,3,0.778,4,01,0.116927226,-0.409027815,1,0,0,3.1098,Peridotite_rect,7,3.11,0,10,0,10,0,1,,,,,,,,,,,,,
629082739390703f993b12bd,SCR,2024-06-11_12h20.14.563,LearnStrategy,2023.2.3,Win32,163.9344262,8,1,12,0.075954994,-0.101389011,1,0,0,0.5241,Diorite_11,3,11,3,5,0.524,3,11,0.121093909,-0.24444445,1,0,0,1.8134,Diorite_rect,3,1.813,1,11,0,11,0,1,,,,,,,,,,,,,
629082739390703f993b12bd,SCR,2024-06-11_12h20.14.563,LearnStrategy,2023.2.3,Win32,163.9344262,8,1,13,0.048871676,-0.441666683,1,0,0,0.6863,Peridotite_07,7,07,1,5,0.686,7,07,0.092621565,-0.381944577,1,0,0,1.4537,Peridotite_rect,7,1.454,1,12,0,12,0,1,,,,,,,,,,,,,
629082739390703f993b12bd,SCR,2024-06-11_12h20.14.563,LearnStrategy,2023.2.3,Win32,163.9344262,8,1,14,-0.501128395,0.129861037,1,0,0,0.8978,Peridotite_06,7,06,4,1,0.898,7,06,-0.119184017,-0.379166683,1,0,0,1.1706,Pegmatite_rect,6,1.171,0,13,0,13,0,1,,,,,,,,,,,,,
629082739390703f993b12bd,SCR,2024-06-11_12h20.14.563,LearnStrategy,2023.2.3,Win32,163.9344262,8,1,15,0.371788422,-0.393750032,1,0,0,0.8277,Gabbro_08,4,08,1,7,0.828,4,08,0.369010448,-0.269444466,1,0,0,3.8694,Gabbro_rect,4,3.869,1,14,0,14,0,1,,,,,,,,,,,,,
629082739390703f993b12bd,SCR,2024-06-11_12h20.14.563,LearnStrategy,2023.2.3,Win32,163.9344262,8,1,16,-0.077517351,-0.103472352,1,0,0,0.554,Pegmatite_09,6,09,3,4,0.554,6,09,-0.124045134,-0.404861132,1,0,0,1.3508,Pegmatite_rect,6,1.351,1,15,0,15,0,1,,,,,,,,,,,,,
629082739390703f993b12bd,SCR,2024-06-11_12h20.14.563,LearnStrategy,2023.2.3,Win32,163.9344262,8,2,1,,,,,,,,1,03,,,,,,,,,,,,,1,3.417,1,,,,,,-0.390711784,-0.25208346,1,0,0,3.4174,Andesite_rect,0,0,0,0,1,
629082739390703f993b12bd,SCR,2024-06-11_12h20.14.563,LearnStrategy,2023.2.3,Win32,163.9344262,8,2,2,,,,,,,,3,15,,,,,,,,,,,,,7,1.36,0,,,,,,0.107899348,-0.40833346,1,0,0,1.36,Peridotite_rect,1,0,1,0,1,
629082739390703f993b12bd,SCR,2024-06-11_12h20.14.563,LearnStrategy,2023.2.3,Win32,163.9344262,8,2,3,,,,,,,,8,02,,,,,,,,,,,,,8,1.539,1,,,,,,0.37317721,-0.406250159,1,0,0,1.5392,Pumice_rect,2,0,2,0,1,
629082739390703f993b12bd,SCR,2024-06-11_12h20.14.563,LearnStrategy,2023.2.3,Win32,163.9344262,8,2,4,,,,,,,,1,07,,,,,,,,,,,,,4,6.166,0,,,,,,0.384288311,-0.249305566,1,0,0,6.1664,Gabbro_rect,3,0,3,0,1,
629082739390703f993b12bd,SCR,2024-06-11_12h20.14.563,LearnStrategy,2023.2.3,Win32,163.9344262,8,2,5,,,,,,,,2,01,,,,,,,,,,,,,2,1.28,1,,,,,,-0.117794991,-0.239583333,1,0,0,1.2803,Basalt_rect,4,0,4,0,1,
629082739390703f993b12bd,SCR,2024-06-11_12h20.14.563,LearnStrategy,2023.2.3,Win32,163.9344262,8,2,6,,,,,,,,8,03,,,,,,,,,,,,,8,1.6,1,,,,,,0.346093893,-0.404166698,1,0,0,1.6003,Pumice_rect,5,0,5,0,1,
629082739390703f993b12bd,SCR,2024-06-11_12h20.14.563,LearnStrategy,2023.2.3,Win32,163.9344262,8,2,7,,,,,,,,6,15,,,,,,,,,,,,,6,1.146,1,,,,,,-0.118489424,-0.389583349,1,0,0,1.1462,Pegmatite_rect,6,0,6,0,1,
629082739390703f993b12bd,SCR,2024-06-11_12h20.14.563,LearnStrategy,2023.2.3,Win32,163.9344262,8,2,8,,,,,,,,5,14,,,,,,,,,,,,,5,0.967,1,,,,,,-0.346267303,-0.395138899,1,0,0,0.9673,Obsidian_rect,7,0,7,0,1,
629082739390703f993b12bd,SCR,2024-06-11_12h20.14.563,LearnStrategy,2023.2.3,Win32,163.9344262,8,2,9,,,,,,,,2,14,,,,,,,,,,,,,2,6.206,1,,,,,,-0.135156234,-0.247916698,1,0,0,6.2055,Basalt_rect,8,0,8,0,1,
629082739390703f993b12bd,SCR,2024-06-11_12h20.14.563,LearnStrategy,2023.2.3,Win32,163.9344262,8,2,10,,,,,,,,7,05,,,,,,,,,,,,,7,2.394,1,,,,,,0.123871565,-0.395833492,1,0,0,2.394,Peridotite_rect,9,0,9,0,1,
629082739390703f993b12bd,SCR,2024-06-11_12h20.14.563,LearnStrategy,2023.2.3,Win32,163.9344262,8,2,11,,,,,,,,3,06,,,,,,,,,,,,,3,1.52,1,,,,,,0.094010433,-0.231944482,1,0,0,1.5199,Diorite_rect,10,0,10,0,1,
629082739390703f993b12bd,SCR,2024-06-11_12h20.14.563,LearnStrategy,2023.2.3,Win32,163.9344262,8,2,12,,,,,,,,7,04,,,,,,,,,,,,,4,3.59,0,,,,,,0.344705105,-0.253472249,1,0,0,3.5901,Gabbro_rect,11,0,11,0,1,
629082739390703f993b12bd,SCR,2024-06-11_12h20.14.563,LearnStrategy,2023.2.3,Win32,163.9344262,8,2,13,,,,,,,,6,12,,,,,,,,,,,,,6,5.776,1,,,,,,-0.127517223,-0.393055598,1,0,0,5.7765,Pegmatite_rect,12,0,12,0,1,
629082739390703f993b12bd,SCR,2024-06-11_12h20.14.563,LearnStrategy,2023.2.3,Win32,163.9344262,8,2,14,,,,,,,,5,06,,,,,,,,,,,,,5,1.175,1,,,,,,-0.347656171,-0.392361244,1,0,0,1.1748,Obsidian_rect,13,0,13,0,1,
629082739390703f993b12bd,SCR,2024-06-11_12h20.14.563,LearnStrategy,2023.2.3,Win32,163.9344262,8,2,15,,,,,,,,4,13,,,,,,,,,,,,,2,2.949,0,,,,,,-0.135850668,-0.261805693,1,0,0,2.9486,Basalt_rect,14,0,14,0,1,
629082739390703f993b12bd,SCR,2024-06-11_12h20.14.563,LearnStrategy,2023.2.3,Win32,163.9344262,8,2,16,,,,,,,,4,09,,,,,,,,,,,,,2,1.246,0,,,,,,-0.135850668,-0.261805693,1,0,0,1.2458,Basalt_rect,15,0,15,0,1,
629082739390703f993b12bd,SCR,2024-06-11_12h20.14.563,LearnStrategy,2023.2.3,Win32,163.9344262,9,1,1,0.498871644,-0.390972376,1,0,0,1.7206,Pumice_04,8,04,1,8,1.721,8,04,0.413455089,-0.398611148,1,0,0,1.2076,Pumice_rect,8,1.208,1,0,0,0,0,1,,,,,,,,,,,,,
629082739390703f993b12bd,SCR,2024-06-11_12h20.14.563,LearnStrategy,2023.2.3,Win32,163.9344262,9,1,2,0.395399491,-0.106944521,1,0,0,0.7748,Basalt_10,2,10,3,7,0.775,2,10,0.352343877,-0.248611132,1,0,0,2.0816,Gabbro_rect,4,2.082,0,1,0,1,0,1,,,,,,,,,,,,,
629082739390703f993b12bd,SCR,2024-06-11_12h20.14.563,LearnStrategy,2023.2.3,Win32,163.9344262,9,1,3,0.377343893,-0.251389027,1,0,0,0.6756,Andesite_05,1,05,2,7,0.676,1,05,-0.396961729,-0.261805693,1,0,0,1.3,Andesite_rect,1,1.3,1,2,0,2,0,1,,,,,,,,,,,,,
629082739390703f993b12bd,SCR,2024-06-11_12h20.14.563,LearnStrategy,2023.2.3,Win32,163.9344262,9,1,4,-0.244878451,-0.418055693,1,0,0,1.4978,Gabbro_01,4,01,1,3,1.498,4,01,0.389149348,-0.234027783,1,0,0,3.6699,Gabbro_rect,4,3.67,1,3,0,3,0,1,,,,,,,,,,,,,
629082739390703f993b12bd,SCR,2024-06-11_12h20.14.563,LearnStrategy,2023.2.3,Win32,163.9344262,9,1,5,0.531510512,0.265972217,1,0,0,1.0621,Peridotite_16,7,16,5,8,1.062,7,16,0.364843925,-0.259027799,1,0,0,3.3175,Gabbro_rect,4,3.317,0,4,0,4,0,1,,,,,,,,,,,,,
629082739390703f993b12bd,SCR,2024-06-11_12h20.14.563,LearnStrategy,2023.2.3,Win32,163.9344262,9,1,6,0.226649443,0.377083331,1,0,0,0.9459,Obsidian_04,5,04,6,6,0.946,5,04,-0.403906186,-0.417361259,1,0,0,1.0342,Obsidian_rect,5,1.034,1,5,0,5,0,1,,,,,,,,,,,,,
629082739390703f993b12bd,SCR,2024-06-11_12h20.14.563,LearnStrategy,2023.2.3,Win32,163.9344262,9,1,7,-0.105989456,0.300694406,1,0,0,0.6202,Andesite_09,1,09,5,4,0.62,1,09,-0.374045054,-0.238888899,1,0,0,0.8545,Andesite_rect,1,0.854,1,6,0,6,0,1,,,,,,,,,,,,,
629082739390703f993b12bd,SCR,2024-06-11_12h20.14.563,LearnStrategy,2023.2.3,Win32,163.9344262,9,1,8,-0.560156206,-0.282639027,1,0,0,0.7321,Diorite_16,3,16,2,1,0.732,3,16,0.096788327,-0.255555709,1,0,0,1.0618,Diorite_rect,3,1.062,1,7,0,7,0,1,,,,,,,,,,,,,
629082739390703f993b12bd,SCR,2024-06-11_12h20.14.563,LearnStrategy,2023.2.3,Win32,163.9344262,9,1,9,-0.394183954,-0.281250159,1,0,0,0.694,Peridotite_12,7,12,2,2,0.694,7,12,0.089149475,-0.411111275,1,0,0,1.3443,Peridotite_rect,7,1.344,1,8,0,8,0,1,,,,,,,,,,,,,
629082739390703f993b12bd,SCR,2024-06-11_12h20.14.563,LearnStrategy,2023.2.3,Win32,163.9344262,9,1,10,-0.11223944,0.434027776,1,0,0,0.6955,Pegmatite_16,6,16,6,4,0.696,6,16,-0.13793389,-0.411111275,1,0,0,1.1861,Pegmatite_rect,6,1.186,1,9,0,9,0,1,,,,,,,,,,,,,
629082739390703f993b12bd,SCR,2024-06-11_12h20.14.563,LearnStrategy,2023.2.3,Win32,163.9344262,9,1,11,-0.09557279,-0.457638899,1,0,0,0.7158,Gabbro_05,4,05,1,4,0.716,4,05,0.342621644,-0.258333365,1,0,0,1.8887,Gabbro_rect,4,1.889,1,10,0,10,0,1,,,,,,,,,,,,,
629082739390703f993b12bd,SCR,2024-06-11_12h20.14.563,LearnStrategy,2023.2.3,Win32,163.9344262,9,1,12,0.035677115,0.420833324,1,0,0,0.7706,Gabbro_03,4,03,6,5,0.771,4,03,0.348871787,-0.24652791,1,0,0,2.6631,Gabbro_rect,4,2.663,1,11,0,11,0,1,,,,,,,,,,,,,
629082739390703f993b12bd,SCR,2024-06-11_12h20.14.563,LearnStrategy,2023.2.3,Win32,163.9344262,9,1,13,0.375955105,-0.381250143,1,0,0,0.896,Gabbro_08,4,08,1,7,0.896,4,08,-0.152517319,-0.238888899,1,0,0,1.5021,Basalt_rect,2,1.502,0,12,0,12,0,1,,,,,,,,,,,,,
629082739390703f993b12bd,SCR,2024-06-11_12h20.14.563,LearnStrategy,2023.2.3,Win32,163.9344262,9,1,14,0.233593782,-0.107638995,1,0,0,0.6844,Andesite_10,1,10,3,6,0.684,1,10,-0.381683946,-0.24097236,1,0,0,1.1051,Andesite_rect,1,1.105,1,13,0,13,0,1,,,,,,,,,,,,,
629082739390703f993b12bd,SCR,2024-06-11_12h20.14.563,LearnStrategy,2023.2.3,Win32,163.9344262,9,1,15,0.359288454,0.365972201,1,0,0,0.9397,Gabbro_14,4,14,6,7,0.94,4,14,-0.103906234,-0.261111259,1,0,0,2.8605,Basalt_rect,2,2.861,0,14,0,14,0,1,,,,,,,,,,,,,
629082739390703f993b12bd,SCR,2024-06-11_12h20.14.563,LearnStrategy,2023.2.3,Win32,163.9344262,9,1,16,-0.363628387,0.241666635,1,0,0,0.7862,Diorite_10,3,10,5,2,0.786,3,10,0.135677099,-0.403472265,1,0,0,2.1221,Peridotite_rect,7,2.122,0,15,0,15,0,1,,,,,,,,,,,,,
629082739390703f993b12bd,SCR,2024-06-11_12h20.14.563,LearnStrategy,2023.2.3,Win32,163.9344262,9,2,1,,,,,,,,7,14,,,,,,,,,,,,,2,7.158,0,,,,,,-0.0719618,-0.252777815,1,0,0,7.1584,Basalt_rect,0,0,0,0,1,
629082739390703f993b12bd,SCR,2024-06-11_12h20.14.563,LearnStrategy,2023.2.3,Win32,163.9344262,9,2,2,,,,,,,,8,05,,,,,,,,,,,,,8,1.5,1,,,,,,0.334288438,-0.409722249,1,0,0,1.4996,Pumice_rect,1,0,1,0,1,
629082739390703f993b12bd,SCR,2024-06-11_12h20.14.563,LearnStrategy,2023.2.3,Win32,163.9344262,9,2,3,,,,,,,,6,08,,,,,,,,,,,,,6,1.932,1,,,,,,-0.138628324,-0.395138899,1,0,0,1.9324,Pegmatite_rect,2,0,2,0,1,
629082739390703f993b12bd,SCR,2024-06-11_12h20.14.563,LearnStrategy,2023.2.3,Win32,163.9344262,9,2,4,,,,,,,,5,16,,,,,,,,,,,,,5,1.005,1,,,,,,-0.378906171,-0.417361259,1,0,0,1.0046,Obsidian_rect,3,0,3,0,1,
629082739390703f993b12bd,SCR,2024-06-11_12h20.14.563,LearnStrategy,2023.2.3,Win32,163.9344262,9,2,5,,,,,,,,1,11,,,,,,,,,,,,,1,1.251,1,,,,,,-0.37335062,-0.231944482,1,0,0,1.2506,Andesite_rect,4,0,4,0,1,
629082739390703f993b12bd,SCR,2024-06-11_12h20.14.563,LearnStrategy,2023.2.3,Win32,163.9344262,9,2,6,,,,,,,,4,11,,,,,,,,,,,,,4,2.846,1,,,,,,0.409982681,-0.24097236,1,0,0,2.8462,Gabbro_rect,5,0,5,0,1,
629082739390703f993b12bd,SCR,2024-06-11_12h20.14.563,LearnStrategy,2023.2.3,Win32,163.9344262,9,2,7,,,,,,,,6,10,,,,,,,,,,,,,7,4.6,0,,,,,,0.101649443,-0.402083476,1,0,0,4.5998,Peridotite_rect,6,0,6,0,1,
629082739390703f993b12bd,SCR,2024-06-11_12h20.14.563,LearnStrategy,2023.2.3,Win32,163.9344262,9,2,8,,,,,,,,3,14,,,,,,,,,,,,,3,1.251,1,,,,,,0.100955009,-0.245833476,1,0,0,1.2515,Diorite_rect,7,0,7,0,1,
629082739390703f993b12bd,SCR,2024-06-11_12h20.14.563,LearnStrategy,2023.2.3,Win32,163.9344262,9,2,9,,,,,,,,1,06,,,,,,,,,,,,,1,1.607,1,,,,,,-0.388628403,-0.230555693,1,0,0,1.6071,Andesite_rect,8,0,8,0,1,
629082739390703f993b12bd,SCR,2024-06-11_12h20.14.563,LearnStrategy,2023.2.3,Win32,163.9344262,9,2,10,,,,,,,,7,15,,,,,,,,,,,,,7,1.269,1,,,,,,0.099566142,-0.409722249,1,0,0,1.269,Peridotite_rect,9,0,9,0,1,
629082739390703f993b12bd,SCR,2024-06-11_12h20.14.563,LearnStrategy,2023.2.3,Win32,163.9344262,9,2,11,,,,,,,,2,11,,,,,,,,,,,,,2,4.194,1,,,,,,-0.138628324,-0.247222265,1,0,0,4.1938,Basalt_rect,10,0,10,0,1,
629082739390703f993b12bd,SCR,2024-06-11_12h20.14.563,LearnStrategy,2023.2.3,Win32,163.9344262,9,2,12,,,,,,,,2,08,,,,,,,,,,,,,2,0.856,1,,,,,,-0.138628324,-0.247222265,1,0,0,0.8563,Basalt_rect,11,0,11,0,1,
629082739390703f993b12bd,SCR,2024-06-11_12h20.14.563,LearnStrategy,2023.2.3,Win32,163.9344262,9,2,13,,,,,,,,4,15,,,,,,,,,,,,,7,2.626,0,,,,,,0.132205009,-0.409722249,1,0,0,2.6262,Peridotite_rect,12,0,12,0,1,
629082739390703f993b12bd,SCR,2024-06-11_12h20.14.563,LearnStrategy,2023.2.3,Win32,163.9344262,9,2,14,,,,,,,,3,07,,,,,,,,,,,,,3,3.065,1,,,,,,0.11206611,-0.245139043,1,0,0,3.0651,Diorite_rect,13,0,13,0,1,
629082739390703f993b12bd,SCR,2024-06-11_12h20.14.563,LearnStrategy,2023.2.3,Win32,163.9344262,9,2,15,,,,,,,,5,02,,,,,,,,,,,,,5,1,1,,,,,,-0.384461721,-0.400694609,1,0,0,1.0003,Obsidian_rect,14,0,14,0,1,
629082739390703f993b12bd,SCR,2024-06-11_12h20.14.563,LearnStrategy,2023.2.3,Win32,163.9344262,9,2,16,,,,,,,,8,16,,,,,,,,,,,,,4,2.925,0,,,,,,0.349566142,-0.24444445,1,0,0,2.9246,Gabbro_rect,15,0,15,0,1,
629082739390703f993b12bd,SCR,2024-06-11_12h20.14.563,LearnStrategy,2023.2.3,Win32,163.9344262,,,,,,,,,,,,,,,,,,,,,,,,,,,,,,,,,,,,,,,,,,,,,1
629082739390703f993b12bd,SCR,2024-06-11_12h20.14.563,LearnStrategy,2023.2.3,Win32,163.9344262,,,,,,,,,,,,,,,,,,,,,,,,,,,,,,,,,,,,,,,,,,,,,
629082739390703f993b12bd,SCR,2024-06-11_12h20.14.563,LearnStrategy,2023.2.3,Win32,163.9344262,,,,,,,,,,,5,08,1,1,,,,,,,,,,,,,,,,,,,,,,,,,,,,,,,
629082739390703f993b12bd,SCR,2024-06-11_12h20.14.563,LearnStrategy,2023.2.3,Win32,163.9344262,,,,,,,,,,,8,09,1,2,,,,,,,,,,,,,,,,,,,,,,,,,,,,,,,
629082739390703f993b12bd,SCR,2024-06-11_12h20.14.563,LearnStrategy,2023.2.3,Win32,163.9344262,,,,,,,,,,,4,01,1,3,,,,,,,,,,,,,,,,,,,,,,,,,,,,,,,
629082739390703f993b12bd,SCR,2024-06-11_12h20.14.563,LearnStrategy,2023.2.3,Win32,163.9344262,,,,,,,,,,,4,05,1,4,,,,,,,,,,,,,,,,,,,,,,,,,,,,,,,
629082739390703f993b12bd,SCR,2024-06-11_12h20.14.563,LearnStrategy,2023.2.3,Win32,163.9344262,,,,,,,,,,,7,07,1,5,,,,,,,,,,,,,,,,,,,,,,,,,,,,,,,
629082739390703f993b12bd,SCR,2024-06-11_12h20.14.563,LearnStrategy,2023.2.3,Win32,163.9344262,,,,,,,,,,,1,14,1,6,,,,,,,,,,,,,,,,,,,,,,,,,,,,,,,
629082739390703f993b12bd,SCR,2024-06-11_12h20.14.563,LearnStrategy,2023.2.3,Win32,163.9344262,,,,,,,,,,,4,08,1,7,,,,,,,,,,,,,,,,,,,,,,,,,,,,,,,
629082739390703f993b12bd,SCR,2024-06-11_12h20.14.563,LearnStrategy,2023.2.3,Win32,163.9344262,,,,,,,,,,,8,04,1,8,,,,,,,,,,,,,,,,,,,,,,,,,,,,,,,
629082739390703f993b12bd,SCR,2024-06-11_12h20.14.563,LearnStrategy,2023.2.3,Win32,163.9344262,,,,,,,,,,,3,16,2,1,,,,,,,,,,,,,,,,,,,,,,,,,,,,,,,
629082739390703f993b12bd,SCR,2024-06-11_12h20.14.563,LearnStrategy,2023.2.3,Win32,163.9344262,,,,,,,,,,,7,12,2,2,,,,,,,,,,,,,,,,,,,,,,,,,,,,,,,
629082739390703f993b12bd,SCR,2024-06-11_12h20.14.563,LearnStrategy,2023.2.3,Win32,163.9344262,,,,,,,,,,,6,13,2,3,,,,,,,,,,,,,,,,,,,,,,,,,,,,,,,
629082739390703f993b12bd,SCR,2024-06-11_12h20.14.563,LearnStrategy,2023.2.3,Win32,163.9344262,,,,,,,,,,,8,15,2,4,,,,,,,,,,,,,,,,,,,,,,,,,,,,,,,
629082739390703f993b12bd,SCR,2024-06-11_12h20.14.563,LearnStrategy,2023.2.3,Win32,163.9344262,,,,,,,,,,,2,12,2,5,,,,,,,,,,,,,,,,,,,,,,,,,,,,,,,
629082739390703f993b12bd,SCR,2024-06-11_12h20.14.563,LearnStrategy,2023.2.3,Win32,163.9344262,,,,,,,,,,,1,04,2,6,,,,,,,,,,,,,,,,,,,,,,,,,,,,,,,
629082739390703f993b12bd,SCR,2024-06-11_12h20.14.563,LearnStrategy,2023.2.3,Win32,163.9344262,,,,,,,,,,,1,05,2,7,,,,,,,,,,,,,,,,,,,,,,,,,,,,,,,
629082739390703f993b12bd,SCR,2024-06-11_12h20.14.563,LearnStrategy,2023.2.3,Win32,163.9344262,,,,,,,,,,,8,14,2,8,,,,,,,,,,,,,,,,,,,,,,,,,,,,,,,
629082739390703f993b12bd,SCR,2024-06-11_12h20.14.563,LearnStrategy,2023.2.3,Win32,163.9344262,,,,,,,,,,,5,12,3,1,,,,,,,,,,,,,,,,,,,,,,,,,,,,,,,
629082739390703f993b12bd,SCR,2024-06-11_12h20.14.563,LearnStrategy,2023.2.3,Win32,163.9344262,,,,,,,,,,,7,08,3,2,,,,,,,,,,,,,,,,,,,,,,,,,,,,,,,
629082739390703f993b12bd,SCR,2024-06-11_12h20.14.563,LearnStrategy,2023.2.3,Win32,163.9344262,,,,,,,,,,,2,06,3,3,,,,,,,,,,,,,,,,,,,,,,,,,,,,,,,
629082739390703f993b12bd,SCR,2024-06-11_12h20.14.563,LearnStrategy,2023.2.3,Win32,163.9344262,,,,,,,,,,,6,09,3,4,,,,,,,,,,,,,,,,,,,,,,,,,,,,,,,
629082739390703f993b12bd,SCR,2024-06-11_12h20.14.563,LearnStrategy,2023.2.3,Win32,163.9344262,,,,,,,,,,,3,11,3,5,,,,,,,,,,,,,,,,,,,,,,,,,,,,,,,
629082739390703f993b12bd,SCR,2024-06-11_12h20.14.563,LearnStrategy,2023.2.3,Win32,163.9344262,,,,,,,,,,,1,10,3,6,,,,,,,,,,,,,,,,,,,,,,,,,,,,,,,
629082739390703f993b12bd,SCR,2024-06-11_12h20.14.563,LearnStrategy,2023.2.3,Win32,163.9344262,,,,,,,,,,,2,10,3,7,,,,,,,,,,,,,,,,,,,,,,,,,,,,,,,
629082739390703f993b12bd,SCR,2024-06-11_12h20.14.563,LearnStrategy,2023.2.3,Win32,163.9344262,,,,,,,,,,,2,05,3,8,,,,,,,,,,,,,,,,,,,,,,,,,,,,,,,
629082739390703f993b12bd,SCR,2024-06-11_12h20.14.563,LearnStrategy,2023.2.3,Win32,163.9344262,,,,,,,,,,,7,06,4,1,,,,,,,,,,,,,,,,,,,,,,,,,,,,,,,
629082739390703f993b12bd,SCR,2024-06-11_12h20.14.563,LearnStrategy,2023.2.3,Win32,163.9344262,,,,,,,,,,,1,02,4,2,,,,,,,,,,,,,,,,,,,,,,,,,,,,,,,
629082739390703f993b12bd,SCR,2024-06-11_12h20.14.563,LearnStrategy,2023.2.3,Win32,163.9344262,,,,,,,,,,,3,08,4,3,,,,,,,,,,,,,,,,,,,,,,,,,,,,,,,
629082739390703f993b12bd,SCR,2024-06-11_12h20.14.563,LearnStrategy,2023.2.3,Win32,163.9344262,,,,,,,,,,,3,12,4,4,,,,,,,,,,,,,,,,,,,,,,,,,,,,,,,
629082739390703f993b12bd,SCR,2024-06-11_12h20.14.563,LearnStrategy,2023.2.3,Win32,163.9344262,,,,,,,,,,,6,05,4,5,,,,,,,,,,,,,,,,,,,,,,,,,,,,,,,
629082739390703f993b12bd,SCR,2024-06-11_12h20.14.563,LearnStrategy,2023.2.3,Win32,163.9344262,,,,,,,,,,,5,05,4,6,,,,,,,,,,,,,,,,,,,,,,,,,,,,,,,
629082739390703f993b12bd,SCR,2024-06-11_12h20.14.563,LearnStrategy,2023.2.3,Win32,163.9344262,,,,,,,,,,,3,02,4,7,,,,,,,,,,,,,,,,,,,,,,,,,,,,,,,
629082739390703f993b12bd,SCR,2024-06-11_12h20.14.563,LearnStrategy,2023.2.3,Win32,163.9344262,,,,,,,,,,,8,10,4,8,,,,,,,,,,,,,,,,,,,,,,,,,,,,,,,
629082739390703f993b12bd,SCR,2024-06-11_12h20.14.563,LearnStrategy,2023.2.3,Win32,163.9344262,,,,,,,,,,,8,08,5,1,,,,,,,,,,,,,,,,,,,,,,,,,,,,,,,
629082739390703f993b12bd,SCR,2024-06-11_12h20.14.563,LearnStrategy,2023.2.3,Win32,163.9344262,,,,,,,,,,,3,10,5,2,,,,,,,,,,,,,,,,,,,,,,,,,,,,,,,
629082739390703f993b12bd,SCR,2024-06-11_12h20.14.563,LearnStrategy,2023.2.3,Win32,163.9344262,,,,,,,,,,,4,16,5,3,,,,,,,,,,,,,,,,,,,,,,,,,,,,,,,
629082739390703f993b12bd,SCR,2024-06-11_12h20.14.563,LearnStrategy,2023.2.3,Win32,163.9344262,,,,,,,,,,,1,09,5,4,,,,,,,,,,,,,,,,,,,,,,,,,,,,,,,
629082739390703f993b12bd,SCR,2024-06-11_12h20.14.563,LearnStrategy,2023.2.3,Win32,163.9344262,,,,,,,,,,,2,04,5,5,,,,,,,,,,,,,,,,,,,,,,,,,,,,,,,
629082739390703f993b12bd,SCR,2024-06-11_12h20.14.563,LearnStrategy,2023.2.3,Win32,163.9344262,,,,,,,,,,,5,09,5,6,,,,,,,,,,,,,,,,,,,,,,,,,,,,,,,
629082739390703f993b12bd,SCR,2024-06-11_12h20.14.563,LearnStrategy,2023.2.3,Win32,163.9344262,,,,,,,,,,,6,06,5,7,,,,,,,,,,,,,,,,,,,,,,,,,,,,,,,
629082739390703f993b12bd,SCR,2024-06-11_12h20.14.563,LearnStrategy,2023.2.3,Win32,163.9344262,,,,,,,,,,,7,16,5,8,,,,,,,,,,,,,,,,,,,,,,,,,,,,,,,
629082739390703f993b12bd,SCR,2024-06-11_12h20.14.563,LearnStrategy,2023.2.3,Win32,163.9344262,,,,,,,,,,,7,10,6,1,,,,,,,,,,,,,,,,,,,,,,,,,,,,,,,
629082739390703f993b12bd,SCR,2024-06-11_12h20.14.563,LearnStrategy,2023.2.3,Win32,163.9344262,,,,,,,,,,,2,16,6,2,,,,,,,,,,,,,,,,,,,,,,,,,,,,,,,
629082739390703f993b12bd,SCR,2024-06-11_12h20.14.563,LearnStrategy,2023.2.3,Win32,163.9344262,,,,,,,,,,,5,07,6,3,,,,,,,,,,,,,,,,,,,,,,,,,,,,,,,
629082739390703f993b12bd,SCR,2024-06-11_12h20.14.563,LearnStrategy,2023.2.3,Win32,163.9344262,,,,,,,,,,,6,16,6,4,,,,,,,,,,,,,,,,,,,,,,,,,,,,,,,
629082739390703f993b12bd,SCR,2024-06-11_12h20.14.563,LearnStrategy,2023.2.3,Win32,163.9344262,,,,,,,,,,,4,03,6,5,,,,,,,,,,,,,,,,,,,,,,,,,,,,,,,
629082739390703f993b12bd,SCR,2024-06-11_12h20.14.563,LearnStrategy,2023.2.3,Win32,163.9344262,,,,,,,,,,,5,04,6,6,,,,,,,,,,,,,,,,,,,,,,,,,,,,,,,
629082739390703f993b12bd,SCR,2024-06-11_12h20.14.563,LearnStrategy,2023.2.3,Win32,163.9344262,,,,,,,,,,,4,14,6,7,,,,,,,,,,,,,,,,,,,,,,,,,,,,,,,
629082739390703f993b12bd,SCR,2024-06-11_12h20.14.563,LearnStrategy,2023.2.3,Win32,163.9344262,,,,,,,,,,,6,07,6,8,,,,,,,,,,,,,,,,,,,,,,,,,,,,,,,