participant,condition,date,expName,psychopyVersion,OS,frameRate,block,phase,trial,learn_mouse_2.x,learn_mouse_2.y,learn_mouse_2.leftButton,learn_mouse_2.midButton,learn_mouse_2.rightButton,learn_mouse_2.time,learn_mouse_2.clicked_name,cat,token,row,col,t_select,cat_mouse_l.x,cat_mouse_l.y,cat_mouse_l.leftButton,cat_mouse_l.midButton,cat_mouse_l.rightButton,cat_mouse_l.time,cat_mouse_l.clicked_name,resp,t_resp,corr,train_trials.thisRepN,train_trials.thisTrialN,train_trials.thisN,train_trials.thisIndex,train_trials.ran,cat_mouse_t.x,cat_mouse_t.y,cat_mouse_t.leftButton,cat_mouse_t.midButton,cat_mouse_t.rightButton,cat_mouse_t.time,cat_mouse_t.clicked_name,test_trials.thisRepN,test_trials.thisTrialN,test_trials.thisN,test_trials.thisIndex,test_trials.ran,Bonus
62b0ff84054c6ca32f481c65,TCN,2024-06-20_13h48.35.894,LearnStrategy,2023.2.3,Win32,59.52380952,,,,,,,,,,,,,,,,,,,,,,,,,,,,,,,,,,,,,,,,,,,
62b0ff84054c6ca32f481c65,TCN,2024-06-20_13h48.35.894,LearnStrategy,2023.2.3,Win32,59.52380952,1,1,1,0.041922522,0.015460322,1,0,0,1.2088,rock_grid_rect_2,3,11,-1,-1,1.209,-0.076664666,-0.39218299,1,0,0,2.3885,Pegmatite_rect,6,2.389,0,0,0,0,0,1,,,,,,,,,,,,,
62b0ff84054c6ca32f481c65,TCN,2024-06-20_13h48.35.894,LearnStrategy,2023.2.3,Win32,59.52380952,1,1,2,0.0067169,-0.01789232,1,0,0,1.5304,rock_grid_rect_2,8,03,-1,-1,1.53,0.37266939,-0.40793286,1,0,0,3.695,Pumice_rect,8,3.695,1,1,0,1,0,1,,,,,,,,,,,,,
62b0ff84054c6ca32f481c65,TCN,2024-06-20_13h48.35.894,LearnStrategy,2023.2.3,Win32,59.52380952,1,1,3,0.036363658,-0.008627689,1,0,0,1.6628,rock_grid_rect_2,6,15,-1,-1,1.663,-0.370353203,-0.390330165,1,0,0,3.1773,Obsidian_rect,5,3.177,0,2,0,2,0,1,,,,,,,,,,,,,
62b0ff84054c6ca32f481c65,TCN,2024-06-20_13h48.35.894,LearnStrategy,2023.2.3,Win32,59.52380952,1,1,4,0.12530401,0.000636943,1,0,0,1.3808,rock_grid_rect_2,5,04,-1,-1,1.381,-0.452808278,-0.397741777,1,0,0,2.394,Obsidian_rect,5,2.394,1,3,0,3,0,1,,,,,,,,,,,,,
62b0ff84054c6ca32f481c65,TCN,2024-06-20_13h48.35.894,LearnStrategy,2023.2.3,Win32,59.52380952,1,1,5,0.091024955,0.000636943,1,0,0,1.1295,rock_grid_rect_2,8,10,-1,-1,1.13,0.429183668,-0.407006369,1,0,0,2.8107,Pumice_rect,8,2.811,1,4,0,4,0,1,,,,,,,,,,,,,
62b0ff84054c6ca32f481c65,TCN,2024-06-20_13h48.35.894,LearnStrategy,2023.2.3,Win32,59.52380952,1,1,6,0.031731439,-0.016039378,1,0,0,1.2139,rock_grid_rect_2,3,09,-1,-1,1.214,0.146612665,-0.39959468,1,0,0,2.4281,Peridotite_rect,7,2.428,0,5,0,5,0,1,,,,,,,,,,,,,
62b0ff84054c6ca32f481c65,TCN,2024-06-20_13h48.35.894,LearnStrategy,2023.2.3,Win32,59.52380952,1,1,7,-0.084076433,0.013607341,1,0,0,1.312,rock_grid_rect_2,2,11,-1,-1,1.312,0.392125221,-0.247655006,1,0,0,3.8103,Gabbro_rect,4,3.81,0,6,0,6,0,1,,,,,,,,,,,,,
62b0ff84054c6ca32f481c65,TCN,2024-06-20_13h48.35.894,LearnStrategy,2023.2.3,Win32,59.52380952,1,1,8,-0.035900412,-0.007701237,1,0,0,1.1109,rock_grid_rect_2,5,12,-1,-1,1.111,-0.421308617,-0.419050433,1,0,0,1.3939,Obsidian_rect,5,1.394,1,7,0,7,0,1,,,,,,,,,,,,,
62b0ff84054c6ca32f481c65,TCN,2024-06-20_13h48.35.894,LearnStrategy,2023.2.3,Win32,59.52380952,1,1,9,0.054892998,0.017313264,1,0,0,1.4149,rock_grid_rect_2,4,11,-1,-1,1.415,-0.177649081,-0.410712331,1,0,0,2.3937,Pegmatite_rect,6,2.394,0,8,0,8,0,1,,,,,,,,,,,,,
62b0ff84054c6ca32f481c65,TCN,2024-06-20_13h48.35.894,LearnStrategy,2023.2.3,Win32,59.52380952,1,1,10,0.059525216,0.008975084,1,0,0,1.1307,rock_grid_rect_2,6,07,-1,-1,1.131,-0.091488123,-0.39218299,1,0,0,1.3921,Pegmatite_rect,6,1.392,1,9,0,9,0,1,,,,,,,,,,,,,
62b0ff84054c6ca32f481c65,TCN,2024-06-20_13h48.35.894,LearnStrategy,2023.2.3,Win32,59.52380952,1,1,11,0.077127989,-0.008627689,1,0,0,0.8477,rock_grid_rect_2,1,14,-1,-1,0.848,0.162362535,-0.401447661,1,0,0,2.5583,Peridotite_rect,7,2.558,0,10,0,10,0,1,,,,,,,,,,,,,
62b0ff84054c6ca32f481c65,TCN,2024-06-20_13h48.35.894,LearnStrategy,2023.2.3,Win32,59.52380952,1,1,12,-0.012738854,0.016386773,1,0,0,1.2985,rock_grid_rect_2,4,14,-1,-1,1.299,-0.385176582,-0.23375804,1,0,0,1.4083,Andesite_rect,1,1.408,0,11,0,11,0,1,,,,,,,,,,,,,
62b0ff84054c6ca32f481c65,TCN,2024-06-20_13h48.35.894,LearnStrategy,2023.2.3,Win32,59.52380952,1,1,13,0.10955414,0.015460322,1,0,0,1.0969,rock_grid_rect_2,7,04,-1,-1,1.097,0.431036494,-0.263404798,1,0,0,0.7921,Gabbro_rect,4,0.792,0,12,0,12,0,1,,,,,,,,,,,,,
62b0ff84054c6ca32f481c65,TCN,2024-06-20_13h48.35.894,LearnStrategy,2023.2.3,Win32,59.52380952,1,1,14,0.005790409,-0.006774825,1,0,0,1.6311,rock_grid_rect_2,2,05,-1,-1,1.631,-0.4,-0.256919676,1,0,0,1.3594,Andesite_rect,1,1.359,0,13,0,13,0,1,,,,,,,,,,,,,
62b0ff84054c6ca32f481c65,TCN,2024-06-20_13h48.35.894,LearnStrategy,2023.2.3,Win32,59.52380952,1,1,15,0.063231178,-0.021598165,1,0,0,0.8478,rock_grid_rect_2,1,09,-1,-1,0.848,-0.223045631,-0.249507831,1,0,0,0.8947,Basalt_rect,2,0.895,0,14,0,14,0,1,,,,,,,,,,,,,
62b0ff84054c6ca32f481c65,TCN,2024-06-20_13h48.35.894,LearnStrategy,2023.2.3,Win32,59.52380952,1,1,16,0.026172575,0.008048632,1,0,0,1.6978,rock_grid_rect_2,7,05,-1,-1,1.698,0.386566356,-0.240243239,1,0,0,1.3932,Gabbro_rect,4,1.393,0,15,0,15,0,1,,,,,,,,,,,,,
62b0ff84054c6ca32f481c65,TCN,2024-06-20_13h48.35.894,LearnStrategy,2023.2.3,Win32,59.52380952,1,2,1,,,,,,,,5,08,,,,,,,,,,,5,2.307,1,,,,,,-0.370353203,-0.39959468,1,0,0,2.3068,Obsidian_rect,0,0,0,0,1,
62b0ff84054c6ca32f481c65,TCN,2024-06-20_13h48.35.894,LearnStrategy,2023.2.3,Win32,59.52380952,1,2,2,,,,,,,,3,07,,,,,,,,,,,3,2.543,1,,,,,,0.148465568,-0.231905059,1,0,0,2.5433,Diorite_rect,1,0,1,0,1,
62b0ff84054c6ca32f481c65,TCN,2024-06-20_13h48.35.894,LearnStrategy,2023.2.3,Win32,59.52380952,1,2,3,,,,,,,,3,08,,,,,,,,,,,3,1.485,1,,,,,,0.164215438,-0.243949045,1,0,0,1.4853,Diorite_rect,2,0,2,0,1,
62b0ff84054c6ca32f481c65,TCN,2024-06-20_13h48.35.894,LearnStrategy,2023.2.3,Win32,59.52380952,1,2,4,,,,,,,,2,06,,,,,,,,,,,1,3.89,0,,,,,,-0.406485238,-0.263404798,1,0,0,3.89,Andesite_rect,3,0,3,0,1,
62b0ff84054c6ca32f481c65,TCN,2024-06-20_13h48.35.894,LearnStrategy,2023.2.3,Win32,59.52380952,1,2,5,,,,,,,,7,08,,,,,,,,,,,3,1.354,0,,,,,,0.168847734,-0.231905059,1,0,0,1.3544,Diorite_rect,4,0,4,0,1,
62b0ff84054c6ca32f481c65,TCN,2024-06-20_13h48.35.894,LearnStrategy,2023.2.3,Win32,59.52380952,1,2,6,,,,,,,,8,06,,,,,,,,,,,8,1.057,1,,,,,,0.378228177,-0.419976846,1,0,0,1.0569,Pumice_rect,5,0,5,0,1,
62b0ff84054c6ca32f481c65,TCN,2024-06-20_13h48.35.894,LearnStrategy,2023.2.3,Win32,59.52380952,1,2,7,,,,,,,,7,14,,,,,,,,,,,2,3.154,0,,,,,,-0.143369949,-0.239316748,1,0,0,3.154,Basalt_rect,6,0,6,0,1,
62b0ff84054c6ca32f481c65,TCN,2024-06-20_13h48.35.894,LearnStrategy,2023.2.3,Win32,59.52380952,1,2,8,,,,,,,,5,16,,,,,,,,,,,5,1.645,1,,,,,,-0.354603334,-0.381992063,1,0,0,1.6446,Obsidian_rect,7,0,7,0,1,
62b0ff84054c6ca32f481c65,TCN,2024-06-20_13h48.35.894,LearnStrategy,2023.2.3,Win32,59.52380952,1,2,9,,,,,,,,6,16,,,,,,,,,,,6,1.732,1,,,,,,-0.096120419,-0.406079957,1,0,0,1.7317,Pegmatite_rect,8,0,8,0,1,
62b0ff84054c6ca32f481c65,TCN,2024-06-20_13h48.35.894,LearnStrategy,2023.2.3,Win32,59.52380952,1,2,10,,,,,,,,4,03,,,,,,,,,,,7,1.198,0,,,,,,0.17348003,-0.378286102,1,0,0,1.1975,Peridotite_rect,9,0,9,0,1,
62b0ff84054c6ca32f481c65,TCN,2024-06-20_13h48.35.894,LearnStrategy,2023.2.3,Win32,59.52380952,1,2,11,,,,,,,,1,02,,,,,,,,,,,2,0.647,0,,,,,,-0.168384489,-0.235610942,1,0,0,0.6469,Basalt_rect,10,0,10,0,1,
62b0ff84054c6ca32f481c65,TCN,2024-06-20_13h48.35.894,LearnStrategy,2023.2.3,Win32,59.52380952,1,2,12,,,,,,,,8,09,,,,,,,,,,,8,2.482,1,,,,,,0.426404197,-0.418123943,1,0,0,2.4822,Pumice_rect,11,0,11,0,1,
62b0ff84054c6ca32f481c65,TCN,2024-06-20_13h48.35.894,LearnStrategy,2023.2.3,Win32,59.52380952,1,2,13,,,,,,,,1,06,,,,,,,,,,,1,1.33,1,,,,,,-0.349044586,-0.241169651,1,0,0,1.3301,Andesite_rect,12,0,12,0,1,
62b0ff84054c6ca32f481c65,TCN,2024-06-20_13h48.35.894,LearnStrategy,2023.2.3,Win32,59.52380952,1,2,14,,,,,,,,4,01,,,,,,,,,,,1,0.809,0,,,,,,-0.349044586,-0.241169651,1,0,0,0.809,Andesite_rect,13,0,13,0,1,
62b0ff84054c6ca32f481c65,TCN,2024-06-20_13h48.35.894,LearnStrategy,2023.2.3,Win32,59.52380952,1,2,15,,,,,,,,6,06,,,,,,,,,,,7,1.471,0,,,,,,0.104921844,-0.409785918,1,0,0,1.4708,Peridotite_rect,14,0,14,0,1,
62b0ff84054c6ca32f481c65,TCN,2024-06-20_13h48.35.894,LearnStrategy,2023.2.3,Win32,59.52380952,1,2,16,,,,,,,,2,02,,,,,,,,,,,3,0.849,0,,,,,,0.140127389,-0.248581341,1,0,0,0.8494,Diorite_rect,15,0,15,0,1,
62b0ff84054c6ca32f481c65,TCN,2024-06-20_13h48.35.894,LearnStrategy,2023.2.3,Win32,59.52380952,2,1,1,0.008569802,-0.004921844,1,0,0,1.4317,rock_grid_rect_2,7,13,-1,-1,1.432,-0.146149343,-0.397741777,1,0,0,2.7851,Pegmatite_rect,6,2.785,0,0,0,0,0,1,,,,,,,,,,,,,
62b0ff84054c6ca32f481c65,TCN,2024-06-20_13h48.35.894,LearnStrategy,2023.2.3,Win32,59.52380952,2,1,2,0.100289548,0.010828025,1,0,0,2.0384,rock_grid_rect_2,4,05,-1,-1,2.038,0.174406521,-0.253213715,1,0,0,3.7271,Diorite_rect,3,3.727,0,1,0,1,0,1,,,,,,,,,,,,,
62b0ff84054c6ca32f481c65,TCN,2024-06-20_13h48.35.894,LearnStrategy,2023.2.3,Win32,59.52380952,2,1,3,0.013202099,-0.008627689,1,0,0,1.4232,rock_grid_rect_2,5,07,-1,-1,1.423,-0.421308617,-0.389403597,1,0,0,4.6025,Obsidian_rect,5,4.602,1,2,0,2,0,1,,,,,,,,,,,,,
62b0ff84054c6ca32f481c65,TCN,2024-06-20_13h48.35.894,LearnStrategy,2023.2.3,Win32,59.52380952,2,1,4,0.015981647,-0.004921844,1,0,0,1.7141,rock_grid_rect_2,6,09,-1,-1,1.714,-0.106311502,-0.388477185,1,0,0,3.6033,Pegmatite_rect,6,3.603,1,3,0,3,0,1,,,,,,,,,,,,,
62b0ff84054c6ca32f481c65,TCN,2024-06-20_13h48.35.894,LearnStrategy,2023.2.3,Win32,59.52380952,2,1,5,0.044701915,-0.005848295,1,0,0,1.1895,rock_grid_rect_2,4,10,-1,-1,1.19,-0.164678527,-0.243949045,1,0,0,4.7111,Basalt_rect,2,4.711,0,4,0,4,0,1,,,,,,,,,,,,,
62b0ff84054c6ca32f481c65,TCN,2024-06-20_13h48.35.894,LearnStrategy,2023.2.3,Win32,59.52380952,2,1,6,0.016907982,-0.01789232,1,0,0,1.3714,rock_grid_rect_2,8,13,-1,-1,1.371,-0.427793855,-0.255066618,1,0,0,5.7962,Andesite_rect,1,5.796,0,5,0,5,0,1,,,,,,,,,,,,,
62b0ff84054c6ca32f481c65,TCN,2024-06-20_13h48.35.894,LearnStrategy,2023.2.3,Win32,59.52380952,2,1,7,0.087319072,0.008048632,1,0,0,1.564,rock_grid_rect_2,1,05,-1,-1,1.564,0.445859873,-0.256919676,1,0,0,1.3047,Gabbro_rect,4,1.305,0,6,0,6,0,1,,,,,,,,,,,,,
62b0ff84054c6ca32f481c65,TCN,2024-06-20_13h48.35.894,LearnStrategy,2023.2.3,Win32,59.52380952,2,1,8,-0.061841287,0.007122181,1,0,0,1.1068,rock_grid_rect_2,6,13,-1,-1,1.107,-0.049797223,-0.420903414,1,0,0,1.4157,Pegmatite_rect,6,1.416,1,7,0,7,0,1,,,,,,,,,,,,,
62b0ff84054c6ca32f481c65,TCN,2024-06-20_13h48.35.894,LearnStrategy,2023.2.3,Win32,59.52380952,2,1,9,0.089171975,0.011754477,1,0,0,1.2632,rock_grid_rect_2,3,13,-1,-1,1.263,0.115112927,-0.383844811,1,0,0,1.3113,Peridotite_rect,7,1.311,0,8,0,8,0,1,,,,,,,,,,,,,
62b0ff84054c6ca32f481c65,TCN,2024-06-20_13h48.35.894,LearnStrategy,2023.2.3,Win32,59.52380952,2,1,10,0.009496293,0.013607341,1,0,0,0.8973,rock_grid_rect_2,5,10,-1,-1,0.897,-0.432426112,-0.393109558,1,0,0,1.8265,Obsidian_rect,5,1.827,1,9,0,9,0,1,,,,,,,,,,,,,
62b0ff84054c6ca32f481c65,TCN,2024-06-20_13h48.35.894,LearnStrategy,2023.2.3,Win32,59.52380952,2,1,11,0.146612665,-0.004921844,1,0,0,2.5479,rock_grid_rect_2,1,01,-1,-1,2.548,0.093804426,-0.244875535,1,0,0,3.0106,Diorite_rect,3,3.011,0,10,0,10,0,1,,,,,,,,,,,,,
62b0ff84054c6ca32f481c65,TCN,2024-06-20_13h48.35.894,LearnStrategy,2023.2.3,Win32,59.52380952,2,1,12,-0.052576694,-0.016965907,1,0,0,1.1806,rock_grid_rect_2,2,04,-1,-1,1.181,0.166994831,-0.230978568,1,0,0,6.4944,Diorite_rect,3,6.494,0,11,0,11,0,1,,,,,,,,,,,,,
62b0ff84054c6ca32f481c65,TCN,2024-06-20_13h48.35.894,LearnStrategy,2023.2.3,Win32,59.52380952,2,1,13,0.073422261,0.000636943,1,0,0,1.513,rock_grid_rect_2,2,10,-1,-1,1.513,-0.096120419,-0.267110603,1,0,0,4.6096,Basalt_rect,2,4.61,1,12,0,12,0,1,,,,,,,,,,,,,
62b0ff84054c6ca32f481c65,TCN,2024-06-20_13h48.35.894,LearnStrategy,2023.2.3,Win32,59.52380952,2,1,14,0.081760285,0.009901535,1,0,0,1.4479,rock_grid_rect_2,8,02,-1,-1,1.448,0.413433721,-0.383844811,1,0,0,2.0097,Pumice_rect,8,2.01,1,13,0,13,0,1,,,,,,,,,,,,,
62b0ff84054c6ca32f481c65,TCN,2024-06-20_13h48.35.894,LearnStrategy,2023.2.3,Win32,59.52380952,2,1,15,-0.12854657,-0.002142451,1,0,0,1.1974,rock_grid_rect_2,3,16,-1,-1,1.197,0.078980892,-0.389403597,1,0,0,1.5786,Peridotite_rect,7,1.579,0,14,0,14,0,1,,,,,,,,,,,,,
62b0ff84054c6ca32f481c65,TCN,2024-06-20_13h48.35.894,LearnStrategy,2023.2.3,Win32,59.52380952,2,1,16,-0.007179911,0.021019108,1,0,0,1.3634,rock_grid_rect_2,7,02,-1,-1,1.363,0.1262305,-0.240243239,1,0,0,1.5097,Diorite_rect,3,1.51,0,15,0,15,0,1,,,,,,,,,,,,,
62b0ff84054c6ca32f481c65,TCN,2024-06-20_13h48.35.894,LearnStrategy,2023.2.3,Win32,59.52380952,2,2,1,,,,,,,,2,12,,,,,,,,,,,4,2.423,0,,,,,,0.377301686,-0.254140127,1,0,0,2.4234,Gabbro_rect,0,0,0,0,1,
62b0ff84054c6ca32f481c65,TCN,2024-06-20_13h48.35.894,LearnStrategy,2023.2.3,Win32,59.52380952,2,2,2,,,,,,,,6,08,,,,,,,,,,,6,1.618,1,,,,,,-0.103532108,-0.396815287,1,0,0,1.618,Pegmatite_rect,1,0,1,0,1,
62b0ff84054c6ca32f481c65,TCN,2024-06-20_13h48.35.894,LearnStrategy,2023.2.3,Win32,59.52380952,2,2,3,,,,,,,,5,06,,,,,,,,,,,5,2.275,1,,,,,,-0.408338141,-0.397741777,1,0,0,2.2749,Obsidian_rect,2,0,2,0,1,
62b0ff84054c6ca32f481c65,TCN,2024-06-20_13h48.35.894,LearnStrategy,2023.2.3,Win32,59.52380952,2,2,4,,,,,,,,5,11,,,,,,,,,,,5,0.941,1,,,,,,-0.408338141,-0.397741777,1,0,0,0.9413,Obsidian_rect,3,0,3,0,1,
62b0ff84054c6ca32f481c65,TCN,2024-06-20_13h48.35.894,LearnStrategy,2023.2.3,Win32,59.52380952,2,2,5,,,,,,,,8,15,,,,,,,,,,,8,1.58,1,,,,,,0.415286624,-0.404226976,1,0,0,1.5796,Pumice_rect,4,0,4,0,1,
62b0ff84054c6ca32f481c65,TCN,2024-06-20_13h48.35.894,LearnStrategy,2023.2.3,Win32,59.52380952,2,2,6,,,,,,,,7,16,,,,,,,,,,,6,1.84,0,,,,,,-0.081296884,-0.391256578,1,0,0,1.8401,Pegmatite_rect,5,0,5,0,1,
62b0ff84054c6ca32f481c65,TCN,2024-06-20_13h48.35.894,LearnStrategy,2023.2.3,Win32,59.52380952,2,2,7,,,,,,,,8,16,,,,,,,,,,,8,1.559,1,,,,,,0.46716884,-0.41627104,1,0,0,1.5587,Pumice_rect,6,0,6,0,1,
62b0ff84054c6ca32f481c65,TCN,2024-06-20_13h48.35.894,LearnStrategy,2023.2.3,Win32,59.52380952,2,2,8,,,,,,,,3,06,,,,,,,,,,,4,1.872,0,,,,,,0.363404798,-0.234684452,1,0,0,1.8724,Gabbro_rect,7,0,7,0,1,
62b0ff84054c6ca32f481c65,TCN,2024-06-20_13h48.35.894,LearnStrategy,2023.2.3,Win32,59.52380952,2,2,9,,,,,,,,3,02,,,,,,,,,,,4,0.891,0,,,,,,0.363404798,-0.234684452,1,0,0,0.8912,Gabbro_rect,8,0,8,0,1,
62b0ff84054c6ca32f481c65,TCN,2024-06-20_13h48.35.894,LearnStrategy,2023.2.3,Win32,59.52380952,2,2,10,,,,,,,,1,11,,,,,,,,,,,6,1.506,0,,,,,,-0.080370472,-0.420903414,1,0,0,1.5064,Pegmatite_rect,9,0,9,0,1,
62b0ff84054c6ca32f481c65,TCN,2024-06-20_13h48.35.894,LearnStrategy,2023.2.3,Win32,59.52380952,2,2,11,,,,,,,,1,07,,,,,,,,,,,7,1.29,0,,,,,,0.192935783,-0.397741777,1,0,0,1.29,Peridotite_rect,10,0,10,0,1,
62b0ff84054c6ca32f481c65,TCN,2024-06-20_13h48.35.894,LearnStrategy,2023.2.3,Win32,59.52380952,2,2,12,,,,,,,,4,13,,,,,,,,,,,2,2.14,0,,,,,,-0.097046909,-0.256919676,1,0,0,2.1396,Basalt_rect,11,0,11,0,1,
62b0ff84054c6ca32f481c65,TCN,2024-06-20_13h48.35.894,LearnStrategy,2023.2.3,Win32,59.52380952,2,2,13,,,,,,,,6,12,,,,,,,,,,,2,1.858,0,,,,,,-0.113723113,-0.246728438,1,0,0,1.8575,Basalt_rect,12,0,12,0,1,
62b0ff84054c6ca32f481c65,TCN,2024-06-20_13h48.35.894,LearnStrategy,2023.2.3,Win32,59.52380952,2,2,14,,,,,,,,4,09,,,,,,,,,,,2,1.673,0,,,,,,-0.113723113,-0.246728438,1,0,0,1.6727,Basalt_rect,13,0,13,0,1,
62b0ff84054c6ca32f481c65,TCN,2024-06-20_13h48.35.894,LearnStrategy,2023.2.3,Win32,59.52380952,2,2,15,,,,,,,,2,16,,,,,,,,,,,1,1.19,0,,,,,,-0.359235669,-0.242096142,1,0,0,1.19,Andesite_rect,14,0,14,0,1,
62b0ff84054c6ca32f481c65,TCN,2024-06-20_13h48.35.894,LearnStrategy,2023.2.3,Win32,59.52380952,2,2,16,,,,,,,,7,15,,,,,,,,,,,7,2.091,1,,,,,,0.164215438,-0.396815287,1,0,0,2.0908,Peridotite_rect,15,0,15,0,1,
62b0ff84054c6ca32f481c65,TCN,2024-06-20_13h48.35.894,LearnStrategy,2023.2.3,Win32,59.52380952,3,1,1,-0.010885873,-0.01789232,1,0,0,1.6145,rock_grid_rect_2,4,12,-1,-1,1.615,-0.136884672,-0.23375804,1,0,0,7.4769,Basalt_rect,2,7.477,0,0,0,0,0,1,,,,,,,,,,,,,
62b0ff84054c6ca32f481c65,TCN,2024-06-20_13h48.35.894,LearnStrategy,2023.2.3,Win32,59.52380952,3,1,2,0.031731439,0.003416258,1,0,0,1.28,rock_grid_rect_2,1,04,-1,-1,1.28,0.107701237,-0.403300641,1,0,0,3.2938,Peridotite_rect,7,3.294,0,1,0,1,0,1,,,,,,,,,,,,,
62b0ff84054c6ca32f481c65,TCN,2024-06-20_13h48.35.894,LearnStrategy,2023.2.3,Win32,59.52380952,3,1,3,0.036363658,0.004342787,1,0,0,1.798,rock_grid_rect_2,6,11,-1,-1,1.798,-0.131325886,-0.397741777,1,0,0,2.5434,Pegmatite_rect,6,2.543,1,2,0,2,0,1,,,,,,,,,,,,,
62b0ff84054c6ca32f481c65,TCN,2024-06-20_13h48.35.894,LearnStrategy,2023.2.3,Win32,59.52380952,3,1,4,-0.066473661,0.001563394,1,0,0,1.6489,rock_grid_rect_2,2,14,-1,-1,1.649,-0.103532108,-0.241169651,1,0,0,2.1601,Basalt_rect,2,2.16,1,3,0,3,0,1,,,,,,,,,,,,,
62b0ff84054c6ca32f481c65,TCN,2024-06-20_13h48.35.894,LearnStrategy,2023.2.3,Win32,59.52380952,3,1,5,0.028025478,-0.003068902,1,0,0,1.2482,rock_grid_rect_2,3,14,-1,-1,1.248,0.135495092,-0.421829826,1,0,0,2.4263,Peridotite_rect,7,2.426,0,4,0,4,0,1,,,,,,,,,,,,,
62b0ff84054c6ca32f481c65,TCN,2024-06-20_13h48.35.894,LearnStrategy,2023.2.3,Win32,59.52380952,3,1,6,0.031731439,0.01453387,1,0,0,1.0137,rock_grid_rect_2,7,06,-1,-1,1.014,0.111407121,-0.406079957,1,0,0,1.578,Peridotite_rect,7,1.578,1,5,0,5,0,1,,,,,,,,,,,,,
62b0ff84054c6ca32f481c65,TCN,2024-06-20_13h48.35.894,LearnStrategy,2023.2.3,Win32,59.52380952,3,1,7,0.050260624,0.002489846,1,0,0,2.0636,rock_grid_rect_2,5,05,-1,-1,2.064,-0.434279015,-0.414418137,1,0,0,1.3775,Obsidian_rect,5,1.377,1,6,0,6,0,1,,,,,,,,,,,,,
62b0ff84054c6ca32f481c65,TCN,2024-06-20_13h48.35.894,LearnStrategy,2023.2.3,Win32,59.52380952,3,1,8,0.000231623,-0.01789232,1,0,0,1.4654,rock_grid_rect_2,3,12,-1,-1,1.465,0.165142006,-0.243949045,1,0,0,6.4251,Diorite_rect,3,6.425,1,7,0,7,0,1,,,,,,,,,,,,,
62b0ff84054c6ca32f481c65,TCN,2024-06-20_13h48.35.894,LearnStrategy,2023.2.3,Win32,59.52380952,3,1,9,0.001158191,-0.020671713,1,0,0,1.4817,rock_grid_rect_2,5,02,-1,-1,1.482,-0.467631735,-0.414418137,1,0,0,1.3265,Obsidian_rect,5,1.326,1,8,0,8,0,1,,,,,,,,,,,,,
62b0ff84054c6ca32f481c65,TCN,2024-06-20_13h48.35.894,LearnStrategy,2023.2.3,Win32,59.52380952,3,1,10,0.038216561,0.020092618,1,0,0,2.0976,rock_grid_rect_2,6,03,-1,-1,2.098,0.145686175,-0.39959468,1,0,0,2.3455,Peridotite_rect,7,2.346,0,9,0,9,0,1,,,,,,,,,,,,,
62b0ff84054c6ca32f481c65,TCN,2024-06-20_13h48.35.894,LearnStrategy,2023.2.3,Win32,59.52380952,3,1,11,0.031731439,0.015460322,1,0,0,2.1639,rock_grid_rect_2,4,08,-1,-1,2.164,-0.102605618,-0.250434322,1,0,0,2.3265,Basalt_rect,2,2.327,0,10,0,10,0,1,,,,,,,,,,,,,
62b0ff84054c6ca32f481c65,TCN,2024-06-20_13h48.35.894,LearnStrategy,2023.2.3,Win32,59.52380952,3,1,12,0.002084603,0.004342787,1,0,0,4.0811,rock_grid_rect_2,8,14,-1,-1,4.081,0.413433721,-0.407006369,1,0,0,2.0448,Pumice_rect,8,2.045,1,11,0,11,0,1,,,,,,,,,,,,,
62b0ff84054c6ca32f481c65,TCN,2024-06-20_13h48.35.894,LearnStrategy,2023.2.3,Win32,59.52380952,3,1,13,0.000231623,-0.021598165,1,0,0,1.4968,rock_grid_rect_2,7,12,-1,-1,1.497,0.411580896,-0.253213715,1,0,0,3.0288,Gabbro_rect,4,3.029,0,12,0,12,0,1,,,,,,,,,,,,,
62b0ff84054c6ca32f481c65,TCN,2024-06-20_13h48.35.894,LearnStrategy,2023.2.3,Win32,59.52380952,3,1,14,0.033584264,-0.005848295,1,0,0,1.9894,rock_grid_rect_2,1,03,-1,-1,1.989,-0.136884672,-0.245802025,1,0,0,5.1753,Basalt_rect,2,5.175,0,13,0,13,0,1,,,,,,,,,,,,,
62b0ff84054c6ca32f481c65,TCN,2024-06-20_13h48.35.894,LearnStrategy,2023.2.3,Win32,59.52380952,3,1,15,0.051187037,0.015460322,1,0,0,1.164,rock_grid_rect_2,2,08,-1,-1,1.164,-0.394441213,-0.240243239,1,0,0,2.0088,Andesite_rect,1,2.009,0,14,0,14,0,1,,,,,,,,,,,,,
62b0ff84054c6ca32f481c65,TCN,2024-06-20_13h48.35.894,LearnStrategy,2023.2.3,Win32,59.52380952,3,1,16,0.003937584,-0.003068902,1,0,0,1.3133,rock_grid_rect_2,8,08,-1,-1,1.313,0.408801425,-0.401447661,1,0,0,1.3432,Pumice_rect,8,1.343,1,15,0,15,0,1,,,,,,,,,,,,,
62b0ff84054c6ca32f481c65,TCN,2024-06-20_13h48.35.894,LearnStrategy,2023.2.3,Win32,59.52380952,3,2,1,,,,,,,,4,15,,,,,,,,,,,3,2.44,0,,,,,,0.168847734,-0.236537355,1,0,0,2.4401,Diorite_rect,0,0,0,0,1,
62b0ff84054c6ca32f481c65,TCN,2024-06-20_13h48.35.894,LearnStrategy,2023.2.3,Win32,59.52380952,3,2,2,,,,,,,,1,16,,,,,,,,,,,4,3.342,0,,,,,,0.41991892,-0.244875535,1,0,0,3.3423,Gabbro_rect,1,0,1,0,1,
62b0ff84054c6ca32f481c65,TCN,2024-06-20_13h48.35.894,LearnStrategy,2023.2.3,Win32,59.52380952,3,2,3,,,,,,,,8,05,,,,,,,,,,,8,1.353,1,,,,,,0.431036494,-0.39959468,1,0,0,1.3526,Pumice_rect,2,0,2,0,1,
62b0ff84054c6ca32f481c65,TCN,2024-06-20_13h48.35.894,LearnStrategy,2023.2.3,Win32,59.52380952,3,2,4,,,,,,,,3,15,,,,,,,,,,,7,2.224,0,,,,,,0.14475984,-0.401447661,1,0,0,2.2242,Peridotite_rect,3,0,3,0,1,
62b0ff84054c6ca32f481c65,TCN,2024-06-20_13h48.35.894,LearnStrategy,2023.2.3,Win32,59.52380952,3,2,5,,,,,,,,6,10,,,,,,,,,,,6,1.259,1,,,,,,-0.198031247,-0.396815287,1,0,0,1.259,Pegmatite_rect,4,0,4,0,1,
62b0ff84054c6ca32f481c65,TCN,2024-06-20_13h48.35.894,LearnStrategy,2023.2.3,Win32,59.52380952,3,2,6,,,,,,,,5,09,,,,,,,,,,,5,1.623,1,,,,,,-0.413896928,-0.39959468,1,0,0,1.6231,Obsidian_rect,5,0,5,0,1,
62b0ff84054c6ca32f481c65,TCN,2024-06-20_13h48.35.894,LearnStrategy,2023.2.3,Win32,59.52380952,3,2,7,,,,,,,,2,01,,,,,,,,,,,1,1.974,0,,,,,,-0.38239715,-0.235610942,1,0,0,1.9735,Andesite_rect,6,0,6,0,1,
62b0ff84054c6ca32f481c65,TCN,2024-06-20_13h48.35.894,LearnStrategy,2023.2.3,Win32,59.52380952,3,2,8,,,,,,,,6,05,,,,,,,,,,,6,3.575,1,,,,,,-0.102605618,-0.39959468,1,0,0,3.5745,Pegmatite_rect,7,0,7,0,1,
62b0ff84054c6ca32f481c65,TCN,2024-06-20_13h48.35.894,LearnStrategy,2023.2.3,Win32,59.52380952,3,2,9,,,,,,,,7,10,,,,,,,,,,,4,1.482,0,,,,,,0.472727315,-0.230052156,1,0,0,1.4823,Gabbro_rect,8,0,8,0,1,
62b0ff84054c6ca32f481c65,TCN,2024-06-20_13h48.35.894,LearnStrategy,2023.2.3,Win32,59.52380952,3,2,10,,,,,,,,1,10,,,,,,,,,,,2,3.075,0,,,,,,-0.115576094,-0.247655006,1,0,0,3.0752,Basalt_rect,9,0,9,0,1,
62b0ff84054c6ca32f481c65,TCN,2024-06-20_13h48.35.894,LearnStrategy,2023.2.3,Win32,59.52380952,3,2,11,,,,,,,,2,09,,,,,,,,,,,1,2.252,0,,,,,,-0.394441213,-0.250434322,1,0,0,2.2523,Andesite_rect,10,0,10,0,1,
62b0ff84054c6ca32f481c65,TCN,2024-06-20_13h48.35.894,LearnStrategy,2023.2.3,Win32,59.52380952,3,2,12,,,,,,,,3,10,,,,,,,,,,,1,0.952,0,,,,,,-0.394441213,-0.250434322,1,0,0,0.9519,Andesite_rect,11,0,11,0,1,
62b0ff84054c6ca32f481c65,TCN,2024-06-20_13h48.35.894,LearnStrategy,2023.2.3,Win32,59.52380952,3,2,13,,,,,,,,7,07,,,,,,,,,,,4,1.81,0,,,,,,0.388419337,-0.246728438,1,0,0,1.8098,Gabbro_rect,12,0,12,0,1,
62b0ff84054c6ca32f481c65,TCN,2024-06-20_13h48.35.894,LearnStrategy,2023.2.3,Win32,59.52380952,3,2,14,,,,,,,,4,16,,,,,,,,,,,2,1.507,0,,,,,,-0.100752637,-0.234684452,1,0,0,1.507,Basalt_rect,13,0,13,0,1,
62b0ff84054c6ca32f481c65,TCN,2024-06-20_13h48.35.894,LearnStrategy,2023.2.3,Win32,59.52380952,3,2,15,,,,,,,,8,04,,,,,,,,,,,8,1.623,1,,,,,,0.4069486,-0.381992063,1,0,0,1.6229,Pumice_rect,14,0,14,0,1,
62b0ff84054c6ca32f481c65,TCN,2024-06-20_13h48.35.894,LearnStrategy,2023.2.3,Win32,59.52380952,3,2,16,,,,,,,,5,14,,,,,,,,,,,5,1.524,1,,,,,,-0.386103072,-0.380139082,1,0,0,1.524,Obsidian_rect,15,0,15,0,1,
62b0ff84054c6ca32f481c65,TCN,2024-06-20_13h48.35.894,LearnStrategy,2023.2.3,Win32,59.52380952,4,1,1,-0.040532709,0.011754477,1,0,0,2.3471,rock_grid_rect_2,5,05,-1,-1,2.347,-0.38239715,-0.385697791,1,0,0,1.4282,Obsidian_rect,5,1.428,1,0,0,0,0,1,,,,,,,,,,,,,
62b0ff84054c6ca32f481c65,TCN,2024-06-20_13h48.35.894,LearnStrategy,2023.2.3,Win32,59.52380952,4,1,2,-0.004400674,0.000636943,1,0,0,1.2142,rock_grid_rect_2,8,13,-1,-1,1.214,0.414360212,-0.398668267,1,0,0,2.5935,Pumice_rect,8,2.594,1,1,0,1,0,1,,,,,,,,,,,,,
62b0ff84054c6ca32f481c65,TCN,2024-06-20_13h48.35.894,LearnStrategy,2023.2.3,Win32,59.52380952,4,1,3,0.018760885,0.005269239,1,0,0,1.3475,rock_grid_rect_2,7,05,-1,-1,1.348,0.121598204,-0.240243239,1,0,0,3.0268,Diorite_rect,3,3.027,0,2,0,2,0,1,,,,,,,,,,,,,
62b0ff84054c6ca32f481c65,TCN,2024-06-20_13h48.35.894,LearnStrategy,2023.2.3,Win32,59.52380952,4,1,4,-0.00069479,0.017313264,1,0,0,1.2985,rock_grid_rect_2,5,07,-1,-1,1.298,-0.402779316,-0.403300641,1,0,0,1.1952,Obsidian_rect,5,1.195,1,3,0,3,0,1,,,,,,,,,,,,,
62b0ff84054c6ca32f481c65,TCN,2024-06-20_13h48.35.894,LearnStrategy,2023.2.3,Win32,59.52380952,4,1,5,-0.013665266,-0.006774825,1,0,0,1.2634,rock_grid_rect_2,3,12,-1,-1,1.263,0.177185914,-0.239316748,1,0,0,1.8782,Diorite_rect,3,1.878,1,4,0,4,0,1,,,,,,,,,,,,,
62b0ff84054c6ca32f481c65,TCN,2024-06-20_13h48.35.894,LearnStrategy,2023.2.3,Win32,59.52380952,4,1,6,-0.021076956,-0.021598165,1,0,0,1.3639,rock_grid_rect_2,6,11,-1,-1,1.364,0.146612665,-0.41627104,1,0,0,1.9427,Peridotite_rect,7,1.943,0,5,0,5,0,1,,,,,,,,,,,,,
62b0ff84054c6ca32f481c65,TCN,2024-06-20_13h48.35.894,LearnStrategy,2023.2.3,Win32,59.52380952,4,1,7,0.029878458,0.007122181,1,0,0,1.2308,rock_grid_rect_2,3,16,-1,-1,1.231,-0.11094372,-0.394035893,1,0,0,1.9933,Pegmatite_rect,6,1.993,0,6,0,6,0,1,,,,,,,,,,,,,
62b0ff84054c6ca32f481c65,TCN,2024-06-20_13h48.35.894,LearnStrategy,2023.2.3,Win32,59.52380952,4,1,8,-0.037753315,-0.006774825,1,0,0,4.9826,rock_grid_rect_2,4,08,-1,-1,4.983,-0.143369949,-0.250434322,1,0,0,2.6593,Basalt_rect,2,2.659,0,7,0,7,0,1,,,,,,,,,,,,,
62b0ff84054c6ca32f481c65,TCN,2024-06-20_13h48.35.894,LearnStrategy,2023.2.3,Win32,59.52380952,4,1,9,0.0067169,-0.003068902,1,0,0,1.3815,rock_grid_rect_2,1,04,-1,-1,1.382,-0.120208468,-0.245802025,1,0,0,1.7752,Basalt_rect,2,1.775,0,8,0,8,0,1,,,,,,,,,,,,,
62b0ff84054c6ca32f481c65,TCN,2024-06-20_13h48.35.894,LearnStrategy,2023.2.3,Win32,59.52380952,4,1,10,-0.022929936,0.005269239,1,0,0,1.0977,rock_grid_rect_2,1,03,-1,-1,1.098,-0.416676321,-0.259698914,1,0,0,2.0104,Andesite_rect,1,2.01,1,9,0,9,0,1,,,,,,,,,,,,,
62b0ff84054c6ca32f481c65,TCN,2024-06-20_13h48.35.894,LearnStrategy,2023.2.3,Win32,59.52380952,4,1,11,0.010422705,-0.006774825,1,0,0,1.3485,rock_grid_rect_2,6,03,-1,-1,1.349,-0.126693667,-0.396815287,1,0,0,3.3086,Pegmatite_rect,6,3.309,1,10,0,10,0,1,,,,,,,,,,,,,
62b0ff84054c6ca32f481c65,TCN,2024-06-20_13h48.35.894,LearnStrategy,2023.2.3,Win32,59.52380952,4,1,12,0.02431975,-0.018818771,1,0,0,1.1962,rock_grid_rect_2,4,14,-1,-1,1.196,-0.146149343,-0.247655006,1,0,0,3.8928,Basalt_rect,2,3.893,0,11,0,11,0,1,,,,,,,,,,,,,
62b0ff84054c6ca32f481c65,TCN,2024-06-20_13h48.35.894,LearnStrategy,2023.2.3,Win32,59.52380952,4,1,13,-0.00810648,0.010828025,1,0,0,1.1469,rock_grid_rect_2,7,12,-1,-1,1.147,0.374522448,-0.250434322,1,0,0,2.2276,Gabbro_rect,4,2.228,0,12,0,12,0,1,,,,,,,,,,,,,
62b0ff84054c6ca32f481c65,TCN,2024-06-20_13h48.35.894,LearnStrategy,2023.2.3,Win32,59.52380952,4,1,14,-0.00162128,-0.016965907,1,0,0,1.869,rock_grid_rect_2,2,10,-1,-1,1.869,-0.421308617,-0.245802025,1,0,0,2.2929,Andesite_rect,1,2.293,0,13,0,13,0,1,,,,,,,,,,,,,
62b0ff84054c6ca32f481c65,TCN,2024-06-20_13h48.35.894,LearnStrategy,2023.2.3,Win32,59.52380952,4,1,15,0.036363658,-0.004921844,1,0,0,1.5143,rock_grid_rect_2,8,02,-1,-1,1.514,0.363404798,-0.397741777,1,0,0,1.3266,Pumice_rect,8,1.327,1,14,0,14,0,1,,,,,,,,,,,,,
62b0ff84054c6ca32f481c65,TCN,2024-06-20_13h48.35.894,LearnStrategy,2023.2.3,Win32,59.52380952,4,1,16,0.010422705,-0.014186475,1,0,0,1.0458,rock_grid_rect_2,2,04,-1,-1,1.046,-0.402779316,-0.230978568,1,0,0,2.3114,Andesite_rect,1,2.311,0,15,0,15,0,1,,,,,,,,,,,,,
62b0ff84054c6ca32f481c65,TCN,2024-06-20_13h48.35.894,LearnStrategy,2023.2.3,Win32,59.52380952,4,2,1,,,,,,,,2,06,,,,,,,,,,,2,1.607,1,,,,,,-0.18413428,-0.26433121,1,0,0,1.6068,Basalt_rect,0,0,0,0,1,
62b0ff84054c6ca32f481c65,TCN,2024-06-20_13h48.35.894,LearnStrategy,2023.2.3,Win32,59.52380952,4,2,2,,,,,,,,4,16,,,,,,,,,,,1,2.656,0,,,,,,-0.366647358,-0.266184191,1,0,0,2.6564,Andesite_rect,1,0,1,0,1,
62b0ff84054c6ca32f481c65,TCN,2024-06-20_13h48.35.894,LearnStrategy,2023.2.3,Win32,59.52380952,4,2,3,,,,,,,,3,06,,,,,,,,,,,6,2.169,0,,,,,,-0.185060771,-0.39218299,1,0,0,2.1688,Pegmatite_rect,2,0,2,0,1,
62b0ff84054c6ca32f481c65,TCN,2024-06-20_13h48.35.894,LearnStrategy,2023.2.3,Win32,59.52380952,4,2,4,,,,,,,,3,07,,,,,,,,,,,7,1.924,0,,,,,,0.210538556,-0.413491724,1,0,0,1.924,Peridotite_rect,3,0,3,0,1,
62b0ff84054c6ca32f481c65,TCN,2024-06-20_13h48.35.894,LearnStrategy,2023.2.3,Win32,59.52380952,4,2,5,,,,,,,,1,16,,,,,,,,,,,1,4.024,1,,,,,,-0.376838441,-0.246728438,1,0,0,4.0236,Andesite_rect,4,0,4,0,1,
62b0ff84054c6ca32f481c65,TCN,2024-06-20_13h48.35.894,LearnStrategy,2023.2.3,Win32,59.52380952,4,2,6,,,,,,,,1,02,,,,,,,,,,,7,1.893,0,,,,,,0.18181821,-0.407006369,1,0,0,1.8932,Peridotite_rect,5,0,5,0,1,
62b0ff84054c6ca32f481c65,TCN,2024-06-20_13h48.35.894,LearnStrategy,2023.2.3,Win32,59.52380952,4,2,7,,,,,,,,5,14,,,,,,,,,,,5,1.398,1,,,,,,-0.433352603,-0.39959468,1,0,0,1.3984,Obsidian_rect,6,0,6,0,1,
62b0ff84054c6ca32f481c65,TCN,2024-06-20_13h48.35.894,LearnStrategy,2023.2.3,Win32,59.52380952,4,2,8,,,,,,,,7,10,,,,,,,,,,,4,2.35,0,,,,,,0.425477863,-0.260625404,1,0,0,2.35,Gabbro_rect,7,0,7,0,1,
62b0ff84054c6ca32f481c65,TCN,2024-06-20_13h48.35.894,LearnStrategy,2023.2.3,Win32,59.52380952,4,2,9,,,,,,,,6,16,,,,,,,,,,,3,2.082,0,,,,,,0.116039417,-0.248581341,1,0,0,2.0824,Diorite_rect,8,0,8,0,1,
62b0ff84054c6ca32f481c65,TCN,2024-06-20_13h48.35.894,LearnStrategy,2023.2.3,Win32,59.52380952,4,2,10,,,,,,,,4,15,,,,,,,,,,,7,1.327,0,,,,,,0.142906782,-0.417197452,1,0,0,1.3266,Peridotite_rect,9,0,9,0,1,
62b0ff84054c6ca32f481c65,TCN,2024-06-20_13h48.35.894,LearnStrategy,2023.2.3,Win32,59.52380952,4,2,11,,,,,,,,7,15,,,,,,,,,,,6,1.668,0,,,,,,-0.113723113,-0.40885935,1,0,0,1.6682,Pegmatite_rect,10,0,10,0,1,
62b0ff84054c6ca32f481c65,TCN,2024-06-20_13h48.35.894,LearnStrategy,2023.2.3,Win32,59.52380952,4,2,12,,,,,,,,6,12,,,,,,,,,,,7,2.498,0,,,,,,0.212391458,-0.391256578,1,0,0,2.4983,Peridotite_rect,11,0,11,0,1,
62b0ff84054c6ca32f481c65,TCN,2024-06-20_13h48.35.894,LearnStrategy,2023.2.3,Win32,59.52380952,4,2,13,,,,,,,,8,09,,,,,,,,,,,8,1.466,1,,,,,,0.406022032,-0.39218299,1,0,0,1.4659,Pumice_rect,12,0,12,0,1,
62b0ff84054c6ca32f481c65,TCN,2024-06-20_13h48.35.894,LearnStrategy,2023.2.3,Win32,59.52380952,4,2,14,,,,,,,,8,06,,,,,,,,,,,8,2.151,1,,,,,,0.393051789,-0.396815287,1,0,0,2.1506,Pumice_rect,13,0,13,0,1,
62b0ff84054c6ca32f481c65,TCN,2024-06-20_13h48.35.894,LearnStrategy,2023.2.3,Win32,59.52380952,4,2,15,,,,,,,,5,06,,,,,,,,,,,5,1.399,1,,,,,,-0.427793855,-0.380139082,1,0,0,1.3991,Obsidian_rect,14,0,14,0,1,
62b0ff84054c6ca32f481c65,TCN,2024-06-20_13h48.35.894,LearnStrategy,2023.2.3,Win32,59.52380952,4,2,16,,,,,,,,2,01,,,,,,,,,,,1,2.444,0,,,,,,-0.383323679,-0.244875535,1,0,0,2.4442,Andesite_rect,15,0,15,0,1,
62b0ff84054c6ca32f481c65,TCN,2024-06-20_13h48.35.894,LearnStrategy,2023.2.3,Win32,59.52380952,5,1,1,-0.005327164,-0.003068902,1,0,0,2.0862,rock_grid_rect_2,5,04,-1,-1,2.086,-0.379617834,-0.393109558,1,0,0,1.413,Obsidian_rect,5,1.413,1,0,0,0,0,1,,,,,,,,,,,,,
62b0ff84054c6ca32f481c65,TCN,2024-06-20_13h48.35.894,LearnStrategy,2023.2.3,Win32,59.52380952,5,1,2,0.004863919,-0.001215999,1,0,0,2.249,rock_grid_rect_2,4,10,-1,-1,2.249,-0.421308617,-0.242096142,1,0,0,4.7766,Andesite_rect,1,4.777,0,1,0,1,0,1,,,,,,,,,,,,,
62b0ff84054c6ca32f481c65,TCN,2024-06-20_13h48.35.894,LearnStrategy,2023.2.3,Win32,59.52380952,5,1,3,0.031731439,-0.014186475,1,0,0,5.0867,rock_grid_rect_2,5,10,-1,-1,5.087,-0.395367665,-0.400521248,1,0,0,1.3948,Obsidian_rect,5,1.395,1,2,0,2,0,1,,,,,,,,,,,,,
62b0ff84054c6ca32f481c65,TCN,2024-06-20_13h48.35.894,LearnStrategy,2023.2.3,Win32,59.52380952,5,1,4,-0.00810648,-0.001215999,1,0,0,1.5474,rock_grid_rect_2,1,01,-1,-1,1.547,0.146612665,-0.384771301,1,0,0,2.7606,Peridotite_rect,7,2.761,0,3,0,3,0,1,,,,,,,,,,,,,
62b0ff84054c6ca32f481c65,TCN,2024-06-20_13h48.35.894,LearnStrategy,2023.2.3,Win32,59.52380952,5,1,5,0.013202099,-0.006774825,1,0,0,2.4488,rock_grid_rect_2,6,07,-1,-1,2.449,-0.134105357,-0.405153622,1,0,0,3.5493,Pegmatite_rect,6,3.549,1,4,0,4,0,1,,,,,,,,,,,,,
62b0ff84054c6ca32f481c65,TCN,2024-06-20_13h48.35.894,LearnStrategy,2023.2.3,Win32,59.52380952,5,1,6,-0.016444582,0.009901535,1,0,0,1.2632,rock_grid_rect_2,4,11,-1,-1,1.263,-0.363867965,-0.235610942,1,0,0,4.0594,Andesite_rect,1,4.059,0,5,0,5,0,1,,,,,,,,,,,,,
62b0ff84054c6ca32f481c65,TCN,2024-06-20_13h48.35.894,LearnStrategy,2023.2.3,Win32,59.52380952,5,1,7,-0.011812285,0.002489846,1,0,0,1.4994,rock_grid_rect_2,7,02,-1,-1,1.499,0.183671113,-0.385697791,1,0,0,1.6091,Peridotite_rect,7,1.609,1,6,0,6,0,1,,,,,,,,,,,,,
62b0ff84054c6ca32f481c65,TCN,2024-06-20_13h48.35.894,LearnStrategy,2023.2.3,Win32,59.52380952,5,1,8,-0.084076433,-0.01789232,1,0,0,1.1139,rock_grid_rect_2,7,06,-1,-1,1.114,0.175333089,-0.385697791,1,0,0,1.4605,Peridotite_rect,7,1.461,1,7,0,7,0,1,,,,,,,,,,,,,
62b0ff84054c6ca32f481c65,TCN,2024-06-20_13h48.35.894,LearnStrategy,2023.2.3,Win32,59.52380952,5,1,9,0.019687376,0.012680928,1,0,0,1.4636,rock_grid_rect_2,3,09,-1,-1,1.464,0.140127389,-0.230978568,1,0,0,2.7098,Diorite_rect,3,2.71,1,8,0,8,0,1,,,,,,,,,,,,,
62b0ff84054c6ca32f481c65,TCN,2024-06-20_13h48.35.894,LearnStrategy,2023.2.3,Win32,59.52380952,5,1,10,-0.018297562,0.00619569,1,0,0,1.1975,rock_grid_rect_2,1,14,-1,-1,1.197,-0.104458521,-0.401447661,1,0,0,2.7766,Pegmatite_rect,6,2.777,0,9,0,9,0,1,,,,,,,,,,,,,
62b0ff84054c6ca32f481c65,TCN,2024-06-20_13h48.35.894,LearnStrategy,2023.2.3,Win32,59.52380952,5,1,11,-0.016444582,-0.005848295,1,0,0,1.2632,rock_grid_rect_2,6,15,-1,-1,1.263,-0.076664666,-0.418123943,1,0,0,1.6945,Pegmatite_rect,6,1.694,1,10,0,10,0,1,,,,,,,,,,,,,
62b0ff84054c6ca32f481c65,TCN,2024-06-20_13h48.35.894,LearnStrategy,2023.2.3,Win32,59.52380952,5,1,12,0.012275686,-0.020671713,1,0,0,1.1306,rock_grid_rect_2,2,11,-1,-1,1.131,-0.111870288,-0.248581341,1,0,0,2.7438,Basalt_rect,2,2.744,1,11,0,11,0,1,,,,,,,,,,,,,
62b0ff84054c6ca32f481c65,TCN,2024-06-20_13h48.35.894,LearnStrategy,2023.2.3,Win32,59.52380952,5,1,13,-0.051650204,-0.007701237,1,0,0,2.2454,rock_grid_rect_2,8,03,-1,-1,2.245,0.405095541,-0.391256578,1,0,0,1.3434,Pumice_rect,8,1.343,1,12,0,12,0,1,,,,,,,,,,,,,
62b0ff84054c6ca32f481c65,TCN,2024-06-20_13h48.35.894,LearnStrategy,2023.2.3,Win32,59.52380952,5,1,14,0.003937584,-0.003068902,1,0,0,1.3978,rock_grid_rect_2,3,11,-1,-1,1.398,0.111407121,-0.248581341,1,0,0,1.6951,Diorite_rect,3,1.695,1,13,0,13,0,1,,,,,,,,,,,,,
62b0ff84054c6ca32f481c65,TCN,2024-06-20_13h48.35.894,LearnStrategy,2023.2.3,Win32,59.52380952,5,1,15,-0.00995946,0.000636943,1,0,0,1.1966,rock_grid_rect_2,8,08,-1,-1,1.197,0.39953691,-0.394962384,1,0,0,1.6423,Pumice_rect,8,1.642,1,14,0,14,0,1,,,,,,,,,,,,,
62b0ff84054c6ca32f481c65,TCN,2024-06-20_13h48.35.894,LearnStrategy,2023.2.3,Win32,59.52380952,5,1,16,0.003011016,0.009901535,1,0,0,1.1152,rock_grid_rect_2,2,08,-1,-1,1.115,-0.117429075,-0.241169651,1,0,0,1.6613,Basalt_rect,2,1.661,1,15,0,15,0,1,,,,,,,,,,,,,
62b0ff84054c6ca32f481c65,TCN,2024-06-20_13h48.35.894,LearnStrategy,2023.2.3,Win32,59.52380952,5,2,1,,,,,,,,1,07,,,,,,,,,,,3,3.308,0,,,,,,0.123451107,-0.261551895,1,0,0,3.3084,Diorite_rect,0,0,0,0,1,
62b0ff84054c6ca32f481c65,TCN,2024-06-20_13h48.35.894,LearnStrategy,2023.2.3,Win32,59.52380952,5,2,2,,,,,,,,7,07,,,,,,,,,,,4,2.193,0,,,,,,0.360625482,-0.252287302,1,0,0,2.1932,Gabbro_rect,1,0,1,0,1,
62b0ff84054c6ca32f481c65,TCN,2024-06-20_13h48.35.894,LearnStrategy,2023.2.3,Win32,59.52380952,5,2,3,,,,,,,,3,02,,,,,,,,,,,6,2.066,0,,,,,,-0.152634619,-0.391256578,1,0,0,2.0661,Pegmatite_rect,2,0,2,0,1,
62b0ff84054c6ca32f481c65,TCN,2024-06-20_13h48.35.894,LearnStrategy,2023.2.3,Win32,59.52380952,5,2,4,,,,,,,,3,15,,,,,,,,,,,6,2.362,0,,,,,,-0.101679205,-0.382918476,1,0,0,2.362,Pegmatite_rect,3,0,3,0,1,
62b0ff84054c6ca32f481c65,TCN,2024-06-20_13h48.35.894,LearnStrategy,2023.2.3,Win32,59.52380952,5,2,5,,,,,,,,2,12,,,,,,,,,,,2,1.601,1,,,,,,-0.122987784,-0.249507831,1,0,0,1.6009,Basalt_rect,4,0,4,0,1,
62b0ff84054c6ca32f481c65,TCN,2024-06-20_13h48.35.894,LearnStrategy,2023.2.3,Win32,59.52380952,5,2,6,,,,,,,,5,11,,,,,,,,,,,5,1.331,1,,,,,,-0.324030085,-0.398668267,1,0,0,1.3312,Obsidian_rect,5,0,5,0,1,
62b0ff84054c6ca32f481c65,TCN,2024-06-20_13h48.35.894,LearnStrategy,2023.2.3,Win32,59.52380952,5,2,7,,,,,,,,8,04,,,,,,,,,,,8,1.916,1,,,,,,0.368037094,-0.386624282,1,0,0,1.9157,Pumice_rect,6,0,6,0,1,
62b0ff84054c6ca32f481c65,TCN,2024-06-20_13h48.35.894,LearnStrategy,2023.2.3,Win32,59.52380952,5,2,8,,,,,,,,4,03,,,,,,,,,,,7,4.445,0,,,,,,0.10955414,-0.401447661,1,0,0,4.4454,Peridotite_rect,7,0,7,0,1,
62b0ff84054c6ca32f481c65,TCN,2024-06-20_13h48.35.894,LearnStrategy,2023.2.3,Win32,59.52380952,5,2,9,,,,,,,,6,06,,,,,,,,,,,3,1.294,0,,,,,,0.1262305,-0.242096142,1,0,0,1.2938,Diorite_rect,8,0,8,0,1,
62b0ff84054c6ca32f481c65,TCN,2024-06-20_13h48.35.894,LearnStrategy,2023.2.3,Win32,59.52380952,5,2,10,,,,,,,,2,02,,,,,,,,,,,1,2.048,0,,,,,,-0.392588233,-0.243949045,1,0,0,2.0476,Andesite_rect,9,0,9,0,1,
62b0ff84054c6ca32f481c65,TCN,2024-06-20_13h48.35.894,LearnStrategy,2023.2.3,Win32,59.52380952,5,2,11,,,,,,,,8,16,,,,,,,,,,,2,1.81,0,,,,,,-0.123914274,-0.246728438,1,0,0,1.8103,Basalt_rect,10,0,10,0,1,
62b0ff84054c6ca32f481c65,TCN,2024-06-20_13h48.35.894,LearnStrategy,2023.2.3,Win32,59.52380952,5,2,12,,,,,,,,4,09,,,,,,,,,,,7,3.218,0,,,,,,0.137347995,-0.383844811,1,0,0,3.2181,Peridotite_rect,11,0,11,0,1,
62b0ff84054c6ca32f481c65,TCN,2024-06-20_13h48.35.894,LearnStrategy,2023.2.3,Win32,59.52380952,5,2,13,,,,,,,,6,08,,,,,,,,,,,7,3.394,0,,,,,,0.139200976,-0.409785918,1,0,0,3.3938,Peridotite_rect,12,0,12,0,1,
62b0ff84054c6ca32f481c65,TCN,2024-06-20_13h48.35.894,LearnStrategy,2023.2.3,Win32,59.52380952,5,2,14,,,,,,,,1,10,,,,,,,,,,,2,4.91,0,,,,,,-0.099826225,-0.259698914,1,0,0,4.9103,Basalt_rect,13,0,13,0,1,
62b0ff84054c6ca32f481c65,TCN,2024-06-20_13h48.35.894,LearnStrategy,2023.2.3,Win32,59.52380952,5,2,15,,,,,,,,5,16,,,,,,,,,,,5,1.344,1,,,,,,-0.421308617,-0.419976846,1,0,0,1.3438,Obsidian_rect,14,0,14,0,1,
62b0ff84054c6ca32f481c65,TCN,2024-06-20_13h48.35.894,LearnStrategy,2023.2.3,Win32,59.52380952,5,2,16,,,,,,,,7,16,,,,,,,,,,,7,2.318,1,,,,,,0.116039417,-0.393109558,1,0,0,2.3178,Peridotite_rect,15,0,15,0,1,
62b0ff84054c6ca32f481c65,TCN,2024-06-20_13h48.35.894,LearnStrategy,2023.2.3,Win32,59.52380952,6,1,1,0.015981647,0.016386773,1,0,0,1.4331,rock_grid_rect_2,5,12,-1,-1,1.433,-0.373132596,-0.380139082,1,0,0,2.1774,Obsidian_rect,5,2.177,1,0,0,0,0,1,,,,,,,,,,,,,
62b0ff84054c6ca32f481c65,TCN,2024-06-20_13h48.35.894,LearnStrategy,2023.2.3,Win32,59.52380952,6,1,2,-0.027562233,-0.022524616,1,0,0,1.7978,rock_grid_rect_2,6,13,-1,-1,1.798,0.123451107,-0.239316748,1,0,0,2.7801,Diorite_rect,3,2.78,0,1,0,1,0,1,,,,,,,,,,,,,
62b0ff84054c6ca32f481c65,TCN,2024-06-20_13h48.35.894,LearnStrategy,2023.2.3,Win32,59.52380952,6,1,3,-0.010885873,-0.020671713,1,0,0,1.2982,rock_grid_rect_2,1,09,-1,-1,1.298,-0.401852903,-0.244875535,1,0,0,2.7439,Andesite_rect,1,2.744,1,2,0,2,0,1,,,,,,,,,,,,,
62b0ff84054c6ca32f481c65,TCN,2024-06-20_13h48.35.894,LearnStrategy,2023.2.3,Win32,59.52380952,6,1,4,0.022466769,0.003416258,1,0,0,1.4307,rock_grid_rect_2,8,14,-1,-1,1.431,0.418066095,-0.389403597,1,0,0,2.4931,Pumice_rect,8,2.493,1,3,0,3,0,1,,,,,,,,,,,,,
62b0ff84054c6ca32f481c65,TCN,2024-06-20_13h48.35.894,LearnStrategy,2023.2.3,Win32,59.52380952,6,1,5,0.013202099,-0.004921844,1,0,0,1.5303,rock_grid_rect_2,3,13,-1,-1,1.53,0.157730161,-0.260625404,1,0,0,1.9773,Diorite_rect,3,1.977,1,4,0,4,0,1,,,,,,,,,,,,,
62b0ff84054c6ca32f481c65,TCN,2024-06-20_13h48.35.894,LearnStrategy,2023.2.3,Win32,59.52380952,6,1,6,0.016907982,-0.00955414,1,0,0,1.0637,rock_grid_rect_2,4,12,-1,-1,1.064,0.405095541,-0.265257701,1,0,0,4.6267,Gabbro_rect,4,4.627,1,5,0,5,0,1,,,,,,,,,,,,,
62b0ff84054c6ca32f481c65,TCN,2024-06-20_13h48.35.894,LearnStrategy,2023.2.3,Win32,59.52380952,6,1,7,0.029878458,-0.003068902,1,0,0,1.2468,rock_grid_rect_2,7,04,-1,-1,1.247,0.101216038,-0.393109558,1,0,0,2.4267,Peridotite_rect,7,2.427,1,6,0,6,0,1,,,,,,,,,,,,,
62b0ff84054c6ca32f481c65,TCN,2024-06-20_13h48.35.894,LearnStrategy,2023.2.3,Win32,59.52380952,6,1,8,0.036363658,-0.007701237,1,0,0,1.1639,rock_grid_rect_2,3,14,-1,-1,1.164,0.154024355,-0.262478307,1,0,0,1.3444,Diorite_rect,3,1.344,1,7,0,7,0,1,,,,,,,,,,,,,
62b0ff84054c6ca32f481c65,TCN,2024-06-20_13h48.35.894,LearnStrategy,2023.2.3,Win32,59.52380952,6,1,9,0.004863919,-0.016965907,1,0,0,1.1319,rock_grid_rect_2,2,05,-1,-1,1.132,-0.373132596,-0.257846089,1,0,0,5.7272,Andesite_rect,1,5.727,0,8,0,8,0,1,,,,,,,,,,,,,
62b0ff84054c6ca32f481c65,TCN,2024-06-20_13h48.35.894,LearnStrategy,2023.2.3,Win32,59.52380952,6,1,10,-0.024782839,-0.005848295,1,0,0,1.1157,rock_grid_rect_2,6,09,-1,-1,1.116,0.123451107,-0.419050433,1,0,0,1.661,Peridotite_rect,7,1.661,0,9,0,9,0,1,,,,,,,,,,,,,
62b0ff84054c6ca32f481c65,TCN,2024-06-20_13h48.35.894,LearnStrategy,2023.2.3,Win32,59.52380952,6,1,11,0.012275686,0.005269239,1,0,0,1.149,rock_grid_rect_2,2,14,-1,-1,1.149,-0.129473061,-0.256919676,1,0,0,2.5097,Basalt_rect,2,2.51,1,10,0,10,0,1,,,,,,,,,,,,,
62b0ff84054c6ca32f481c65,TCN,2024-06-20_13h48.35.894,LearnStrategy,2023.2.3,Win32,59.52380952,6,1,12,0.027099065,-0.021598165,1,0,0,1.2144,rock_grid_rect_2,8,10,-1,-1,1.214,0.390272162,-0.390330165,1,0,0,1.4452,Pumice_rect,8,1.445,1,11,0,11,0,1,,,,,,,,,,,,,
62b0ff84054c6ca32f481c65,TCN,2024-06-20_13h48.35.894,LearnStrategy,2023.2.3,Win32,59.52380952,6,1,13,0.027099065,-0.007701237,1,0,0,1.0135,rock_grid_rect_2,5,02,-1,-1,1.014,-0.36757381,-0.419050433,1,0,0,1.2271,Obsidian_rect,5,1.227,1,12,0,12,0,1,,,,,,,,,,,,,
62b0ff84054c6ca32f481c65,TCN,2024-06-20_13h48.35.894,LearnStrategy,2023.2.3,Win32,59.52380952,6,1,14,0.054892998,0.015460322,1,0,0,1.0002,rock_grid_rect_2,7,13,-1,-1,1,0.132715699,-0.269889997,1,0,0,2.1244,Diorite_rect,3,2.124,0,13,0,13,0,1,,,,,,,,,,,,,
62b0ff84054c6ca32f481c65,TCN,2024-06-20_13h48.35.894,LearnStrategy,2023.2.3,Win32,59.52380952,6,1,15,-0.039606141,-0.001215999,1,0,0,2.8312,rock_grid_rect_2,1,05,-1,-1,2.831,0.405095541,-0.243949045,1,0,0,2.3286,Gabbro_rect,4,2.329,0,14,0,14,0,1,,,,,,,,,,,,,
62b0ff84054c6ca32f481c65,TCN,2024-06-20_13h48.35.894,LearnStrategy,2023.2.3,Win32,59.52380952,6,1,16,-0.010885873,0.015460322,1,0,0,1.1286,rock_grid_rect_2,4,05,-1,-1,1.129,-0.364794416,-0.251360734,1,0,0,2.0109,Andesite_rect,1,2.011,0,15,0,15,0,1,,,,,,,,,,,,,
62b0ff84054c6ca32f481c65,TCN,2024-06-20_13h48.35.894,LearnStrategy,2023.2.3,Win32,59.52380952,6,2,1,,,,,,,,5,08,,,,,,,,,,,5,1.889,1,,,,,,-0.418529185,-0.404226976,1,0,0,1.8893,Obsidian_rect,0,0,0,0,1,
62b0ff84054c6ca32f481c65,TCN,2024-06-20_13h48.35.894,LearnStrategy,2023.2.3,Win32,59.52380952,6,2,2,,,,,,,,3,08,,,,,,,,,,,3,2.036,1,,,,,,0.133642189,-0.254140127,1,0,0,2.0359,Diorite_rect,1,0,1,0,1,
62b0ff84054c6ca32f481c65,TCN,2024-06-20_13h48.35.894,LearnStrategy,2023.2.3,Win32,59.52380952,6,2,3,,,,,,,,4,13,,,,,,,,,,,7,3.991,0,,,,,,0.11696583,-0.402374073,1,0,0,3.9911,Peridotite_rect,2,0,2,0,1,
62b0ff84054c6ca32f481c65,TCN,2024-06-20_13h48.35.894,LearnStrategy,2023.2.3,Win32,59.52380952,6,2,4,,,,,,,,6,10,,,,,,,,,,,7,0.052,0,,,,,,0.11696583,-0.402374073,1,0,0,0.0524,Peridotite_rect,3,0,3,0,1,
62b0ff84054c6ca32f481c65,TCN,2024-06-20_13h48.35.894,LearnStrategy,2023.2.3,Win32,59.52380952,6,2,5,,,,,,,,8,05,,,,,,,,,,,8,1.493,1,,,,,,0.396757439,-0.407006369,1,0,0,1.4926,Pumice_rect,4,0,4,0,1,
62b0ff84054c6ca32f481c65,TCN,2024-06-20_13h48.35.894,LearnStrategy,2023.2.3,Win32,59.52380952,6,2,6,,,,,,,,5,09,,,,,,,,,,,5,1.558,1,,,,,,-0.394441213,-0.395888874,1,0,0,1.5582,Obsidian_rect,5,0,5,0,1,
62b0ff84054c6ca32f481c65,TCN,2024-06-20_13h48.35.894,LearnStrategy,2023.2.3,Win32,59.52380952,6,2,7,,,,,,,,1,11,,,,,,,,,,,2,6.409,0,,,,,,-0.179501984,-0.255993108,1,0,0,6.4088,Basalt_rect,6,0,6,0,1,
62b0ff84054c6ca32f481c65,TCN,2024-06-20_13h48.35.894,LearnStrategy,2023.2.3,Win32,59.52380952,6,2,8,,,,,,,,2,09,,,,,,,,,,,2,1.585,1,,,,,,-0.176722591,-0.263404798,1,0,0,1.5854,Basalt_rect,7,0,7,0,1,
62b0ff84054c6ca32f481c65,TCN,2024-06-20_13h48.35.894,LearnStrategy,2023.2.3,Win32,59.52380952,6,2,9,,,,,,,,7,08,,,,,,,,,,,4,1.879,0,,,,,,0.36433121,-0.23375804,1,0,0,1.8791,Gabbro_rect,8,0,8,0,1,
62b0ff84054c6ca32f481c65,TCN,2024-06-20_13h48.35.894,LearnStrategy,2023.2.3,Win32,59.52380952,6,2,10,,,,,,,,8,15,,,,,,,,,,,8,1.257,1,,,,,,0.328199331,-0.400521248,1,0,0,1.2567,Pumice_rect,9,0,9,0,1,
62b0ff84054c6ca32f481c65,TCN,2024-06-20_13h48.35.894,LearnStrategy,2023.2.3,Win32,59.52380952,6,2,11,,,,,,,,2,16,,,,,,,,,,,2,1.663,1,,,,,,-0.13595826,-0.243022632,1,0,0,1.6626,Basalt_rect,10,0,10,0,1,
62b0ff84054c6ca32f481c65,TCN,2024-06-20_13h48.35.894,LearnStrategy,2023.2.3,Win32,59.52380952,6,2,12,,,,,,,,3,10,,,,,,,,,,,3,1.974,1,,,,,,0.153097865,-0.230052156,1,0,0,1.974,Diorite_rect,11,0,11,0,1,
62b0ff84054c6ca32f481c65,TCN,2024-06-20_13h48.35.894,LearnStrategy,2023.2.3,Win32,59.52380952,6,2,13,,,,,,,,4,01,,,,,,,,,,,4,3.459,1,,,,,,0.425477863,-0.243949045,1,0,0,3.4589,Gabbro_rect,12,0,12,0,1,
62b0ff84054c6ca32f481c65,TCN,2024-06-20_13h48.35.894,LearnStrategy,2023.2.3,Win32,59.52380952,6,2,14,,,,,,,,1,06,,,,,,,,,,,4,3.687,0,,,,,,0.425477863,-0.243949045,1,0,0,3.6867,Gabbro_rect,13,0,13,0,1,
62b0ff84054c6ca32f481c65,TCN,2024-06-20_13h48.35.894,LearnStrategy,2023.2.3,Win32,59.52380952,6,2,15,,,,,,,,6,05,,,,,,,,,,,6,3.801,1,,,,,,-0.102605618,-0.39218299,1,0,0,3.8007,Pegmatite_rect,14,0,14,0,1,
62b0ff84054c6ca32f481c65,TCN,2024-06-20_13h48.35.894,LearnStrategy,2023.2.3,Win32,59.52380952,6,2,16,,,,,,,,7,14,,,,,,,,,,,7,2.602,1,,,,,,0.160509554,-0.403300641,1,0,0,2.6023,Peridotite_rect,15,0,15,0,1,
62b0ff84054c6ca32f481c65,TCN,2024-06-20_13h48.35.894,LearnStrategy,2023.2.3,Win32,59.52380952,7,1,1,0.029878458,-0.013259985,1,0,0,2.0142,rock_grid_rect_2,2,08,-1,-1,2.014,-0.42408801,-0.257846089,1,0,0,2.4937,Andesite_rect,1,2.494,0,0,0,0,0,1,,,,,,,,,,,,,
62b0ff84054c6ca32f481c65,TCN,2024-06-20_13h48.35.894,LearnStrategy,2023.2.3,Win32,59.52380952,7,1,2,-0.020150543,-0.003068902,1,0,0,1.1618,rock_grid_rect_2,3,12,-1,-1,1.162,-0.157266916,-0.395888874,1,0,0,3.2093,Pegmatite_rect,6,3.209,0,1,0,1,0,1,,,,,,,,,,,,,
62b0ff84054c6ca32f481c65,TCN,2024-06-20_13h48.35.894,LearnStrategy,2023.2.3,Win32,59.52380952,7,1,3,0.040069541,-0.01048063,1,0,0,1.231,rock_grid_rect_2,7,06,-1,-1,1.231,-0.168384489,-0.390330165,1,0,0,1.5948,Pegmatite_rect,6,1.595,0,2,0,2,0,1,,,,,,,,,,,,,
62b0ff84054c6ca32f481c65,TCN,2024-06-20_13h48.35.894,LearnStrategy,2023.2.3,Win32,59.52380952,7,1,4,0.000231623,0.010828025,1,0,0,1.2141,rock_grid_rect_2,7,02,-1,-1,1.214,-0.120208468,-0.388477185,1,0,0,1.6427,Pegmatite_rect,6,1.643,0,3,0,3,0,1,,,,,,,,,,,,,
62b0ff84054c6ca32f481c65,TCN,2024-06-20_13h48.35.894,LearnStrategy,2023.2.3,Win32,59.52380952,7,1,5,0.008569802,-0.007701237,1,0,0,2.1304,rock_grid_rect_2,1,01,-1,-1,2.13,0.123451107,-0.394962384,1,0,0,4.06,Peridotite_rect,7,4.06,0,4,0,4,0,1,,,,,,,,,,,,,
62b0ff84054c6ca32f481c65,TCN,2024-06-20_13h48.35.894,LearnStrategy,2023.2.3,Win32,59.52380952,7,1,6,-0.003474183,-0.001215999,1,0,0,1.2131,rock_grid_rect_2,6,11,-1,-1,1.213,0.12530401,-0.255993108,1,0,0,2.8279,Diorite_rect,3,2.828,0,5,0,5,0,1,,,,,,,,,,,,,
62b0ff84054c6ca32f481c65,TCN,2024-06-20_13h48.35.894,LearnStrategy,2023.2.3,Win32,59.52380952,7,1,7,0.008569802,0.001563394,1,0,0,1.8814,rock_grid_rect_2,6,09,-1,-1,1.881,0.085466169,-0.388477185,1,0,0,2.1603,Peridotite_rect,7,2.16,0,6,0,6,0,1,,,,,,,,,,,,,
62b0ff84054c6ca32f481c65,TCN,2024-06-20_13h48.35.894,LearnStrategy,2023.2.3,Win32,59.52380952,7,1,8,0.028025478,0.003416258,1,0,0,1.0144,rock_grid_rect_2,5,07,-1,-1,1.014,-0.437984938,-0.394035893,1,0,0,1.9273,Obsidian_rect,5,1.927,1,7,0,7,0,1,,,,,,,,,,,,,
62b0ff84054c6ca32f481c65,TCN,2024-06-20_13h48.35.894,LearnStrategy,2023.2.3,Win32,59.52380952,7,1,9,-0.018297562,-0.019745223,1,0,0,1.4309,rock_grid_rect_2,8,02,-1,-1,1.431,0.424551217,-0.39218299,1,0,0,2.6265,Pumice_rect,8,2.626,1,8,0,8,0,1,,,,,,,,,,,,,
62b0ff84054c6ca32f481c65,TCN,2024-06-20_13h48.35.894,LearnStrategy,2023.2.3,Win32,59.52380952,7,1,10,0.007643312,-0.023451068,1,0,0,1.9959,rock_grid_rect_2,2,11,-1,-1,1.996,0.420845722,-0.257846089,1,0,0,2.7919,Gabbro_rect,4,2.792,0,9,0,9,0,1,,,,,,,,,,,,,
62b0ff84054c6ca32f481c65,TCN,2024-06-20_13h48.35.894,LearnStrategy,2023.2.3,Win32,59.52380952,7,1,11,0.019687376,-0.004921844,1,0,0,1.0808,rock_grid_rect_2,4,12,-1,-1,1.081,-0.162825702,-0.255993108,1,0,0,1.3601,Basalt_rect,2,1.36,0,10,0,10,0,1,,,,,,,,,,,,,
62b0ff84054c6ca32f481c65,TCN,2024-06-20_13h48.35.894,LearnStrategy,2023.2.3,Win32,59.52380952,7,1,12,0.023393181,-0.014186475,1,0,0,1.1145,rock_grid_rect_2,3,13,-1,-1,1.115,0.139200976,-0.401447661,1,0,0,2.1442,Peridotite_rect,7,2.144,0,11,0,11,0,1,,,,,,,,,,,,,
62b0ff84054c6ca32f481c65,TCN,2024-06-20_13h48.35.894,LearnStrategy,2023.2.3,Win32,59.52380952,7,1,13,0.038216561,-0.013259985,1,0,0,1.1652,rock_grid_rect_2,1,04,-1,-1,1.165,0.398610342,-0.257846089,1,0,0,1.5603,Gabbro_rect,4,1.56,0,12,0,12,0,1,,,,,,,,,,,,,
62b0ff84054c6ca32f481c65,TCN,2024-06-20_13h48.35.894,LearnStrategy,2023.2.3,Win32,59.52380952,7,1,14,-0.031268038,-0.004921844,1,0,0,0.8645,rock_grid_rect_2,4,08,-1,-1,0.865,0.393978046,-0.268037172,1,0,0,1.7586,Gabbro_rect,4,1.759,1,13,0,13,0,1,,,,,,,,,,,,,
62b0ff84054c6ca32f481c65,TCN,2024-06-20_13h48.35.894,LearnStrategy,2023.2.3,Win32,59.52380952,7,1,15,-0.038679728,0.00619569,1,0,0,1.2152,rock_grid_rect_2,8,03,-1,-1,1.215,0.333757962,-0.404226976,1,0,0,1.492,Pumice_rect,8,1.492,1,14,0,14,0,1,,,,,,,,,,,,,
62b0ff84054c6ca32f481c65,TCN,2024-06-20_13h48.35.894,LearnStrategy,2023.2.3,Win32,59.52380952,7,1,16,-0.023856349,-0.003995392,1,0,0,1.0155,rock_grid_rect_2,5,12,-1,-1,1.015,-0.36016212,-0.387550694,1,0,0,1.1762,Obsidian_rect,5,1.176,1,15,0,15,0,1,,,,,,,,,,,,,
62b0ff84054c6ca32f481c65,TCN,2024-06-20_13h48.35.894,LearnStrategy,2023.2.3,Win32,59.52380952,7,2,1,,,,,,,,5,09,,,,,,,,,,,5,1.242,1,,,,,,-0.39907351,-0.402374073,1,0,0,1.2422,Obsidian_rect,0,0,0,0,1,
62b0ff84054c6ca32f481c65,TCN,2024-06-20_13h48.35.894,LearnStrategy,2023.2.3,Win32,59.52380952,7,2,2,,,,,,,,4,01,,,,,,,,,,,1,2.843,0,,,,,,-0.4,-0.251360734,1,0,0,2.8429,Andesite_rect,1,0,1,0,1,
62b0ff84054c6ca32f481c65,TCN,2024-06-20_13h48.35.894,LearnStrategy,2023.2.3,Win32,59.52380952,7,2,3,,,,,,,,7,10,,,,,,,,,,,4,1.303,0,,,,,,0.37359588,-0.265257701,1,0,0,1.3029,Gabbro_rect,2,0,2,0,1,
62b0ff84054c6ca32f481c65,TCN,2024-06-20_13h48.35.894,LearnStrategy,2023.2.3,Win32,59.52380952,7,2,4,,,,,,,,2,02,,,,,,,,,,,1,1.872,0,,,,,,-0.387029524,-0.263404798,1,0,0,1.8724,Andesite_rect,3,0,3,0,1,
62b0ff84054c6ca32f481c65,TCN,2024-06-20_13h48.35.894,LearnStrategy,2023.2.3,Win32,59.52380952,7,2,5,,,,,,,,7,15,,,,,,,,,,,3,1.407,0,,,,,,0.148465568,-0.254140127,1,0,0,1.4069,Diorite_rect,4,0,4,0,1,
62b0ff84054c6ca32f481c65,TCN,2024-06-20_13h48.35.894,LearnStrategy,2023.2.3,Win32,59.52380952,7,2,6,,,,,,,,1,11,,,,,,,,,,,7,4.091,0,,,,,,0.176259424,-0.385697791,1,0,0,4.0909,Peridotite_rect,5,0,5,0,1,
62b0ff84054c6ca32f481c65,TCN,2024-06-20_13h48.35.894,LearnStrategy,2023.2.3,Win32,59.52380952,7,2,7,,,,,,,,6,06,,,,,,,,,,,3,2.669,0,,,,,,0.103068941,-0.257846089,1,0,0,2.6695,Diorite_rect,6,0,6,0,1,
62b0ff84054c6ca32f481c65,TCN,2024-06-20_13h48.35.894,LearnStrategy,2023.2.3,Win32,59.52380952,7,2,8,,,,,,,,4,15,,,,,,,,,,,6,1.536,0,,,,,,-0.131325886,-0.406079957,1,0,0,1.5361,Pegmatite_rect,7,0,7,0,1,
62b0ff84054c6ca32f481c65,TCN,2024-06-20_13h48.35.894,LearnStrategy,2023.2.3,Win32,59.52380952,7,2,9,,,,,,,,2,16,,,,,,,,,,,2,1.124,1,,,,,,-0.122061371,-0.235610942,1,0,0,1.1235,Basalt_rect,8,0,8,0,1,
62b0ff84054c6ca32f481c65,TCN,2024-06-20_13h48.35.894,LearnStrategy,2023.2.3,Win32,59.52380952,7,2,10,,,,,,,,3,06,,,,,,,,,,,4,1.407,0,,,,,,0.449565834,-0.238390336,1,0,0,1.4071,Gabbro_rect,9,0,9,0,1,
62b0ff84054c6ca32f481c65,TCN,2024-06-20_13h48.35.894,LearnStrategy,2023.2.3,Win32,59.52380952,7,2,11,,,,,,,,6,16,,,,,,,,,,,3,2.041,0,,,,,,0.11048063,-0.261551895,1,0,0,2.041,Diorite_rect,10,0,10,0,1,
62b0ff84054c6ca32f481c65,TCN,2024-06-20_13h48.35.894,LearnStrategy,2023.2.3,Win32,59.52380952,7,2,12,,,,,,,,8,04,,,,,,,,,,,8,1.325,1,,,,,,0.402316304,-0.411638743,1,0,0,1.3252,Pumice_rect,11,0,11,0,1,
62b0ff84054c6ca32f481c65,TCN,2024-06-20_13h48.35.894,LearnStrategy,2023.2.3,Win32,59.52380952,7,2,13,,,,,,,,5,16,,,,,,,,,,,5,1.222,1,,,,,,-0.353676882,-0.412565156,1,0,0,1.2225,Obsidian_rect,12,0,12,0,1,
62b0ff84054c6ca32f481c65,TCN,2024-06-20_13h48.35.894,LearnStrategy,2023.2.3,Win32,59.52380952,7,2,14,,,,,,,,1,02,,,,,,,,,,,1,1.908,1,,,,,,-0.389808917,-0.26433121,1,0,0,1.9076,Andesite_rect,13,0,13,0,1,
62b0ff84054c6ca32f481c65,TCN,2024-06-20_13h48.35.894,LearnStrategy,2023.2.3,Win32,59.52380952,7,2,15,,,,,,,,8,05,,,,,,,,,,,8,1.343,1,,,,,,0.360625482,-0.384771301,1,0,0,1.3434,Pumice_rect,14,0,14,0,1,
62b0ff84054c6ca32f481c65,TCN,2024-06-20_13h48.35.894,LearnStrategy,2023.2.3,Win32,59.52380952,7,2,16,,,,,,,,3,07,,,,,,,,,,,3,1.207,1,,,,,,0.129936306,-0.248581341,1,0,0,1.2072,Diorite_rect,15,0,15,0,1,
62b0ff84054c6ca32f481c65,TCN,2024-06-20_13h48.35.894,LearnStrategy,2023.2.3,Win32,59.52380952,8,1,1,0.047481231,0.00619569,1,0,0,1.4135,rock_grid_rect_2,1,05,-1,-1,1.413,0.363404798,-0.23375804,1,0,0,1.4287,Gabbro_rect,4,1.429,0,0,0,0,0,1,,,,,,,,,,,,,
62b0ff84054c6ca32f481c65,TCN,2024-06-20_13h48.35.894,LearnStrategy,2023.2.3,Win32,59.52380952,8,1,2,-0.005327164,-0.007701237,1,0,0,1.1485,rock_grid_rect_2,2,10,-1,-1,1.149,-0.143369949,-0.269889997,1,0,0,1.2099,Basalt_rect,2,1.21,1,1,0,1,0,1,,,,,,,,,,,,,
62b0ff84054c6ca32f481c65,TCN,2024-06-20_13h48.35.894,LearnStrategy,2023.2.3,Win32,59.52380952,8,1,3,-0.00069479,0.010828025,1,0,0,1.2644,rock_grid_rect_2,5,05,-1,-1,1.264,-0.344412251,-0.396815287,1,0,0,1.3761,Obsidian_rect,5,1.376,1,2,0,2,0,1,,,,,,,,,,,,,
62b0ff84054c6ca32f481c65,TCN,2024-06-20_13h48.35.894,LearnStrategy,2023.2.3,Win32,59.52380952,8,1,4,0.027099065,-0.000289548,1,0,0,1.0478,rock_grid_rect_2,6,03,-1,-1,1.048,0.1892299,-0.395888874,1,0,0,1.5433,Peridotite_rect,7,1.543,0,3,0,3,0,1,,,,,,,,,,,,,
62b0ff84054c6ca32f481c65,TCN,2024-06-20_13h48.35.894,LearnStrategy,2023.2.3,Win32,59.52380952,8,1,5,-0.101679205,-0.01048063,1,0,0,1.4153,rock_grid_rect_2,4,14,-1,-1,1.415,-0.136884672,-0.243022632,1,0,0,1.7091,Basalt_rect,2,1.709,0,4,0,4,0,1,,,,,,,,,,,,,
62b0ff84054c6ca32f481c65,TCN,2024-06-20_13h48.35.894,LearnStrategy,2023.2.3,Win32,59.52380952,8,1,6,0.028951968,-0.003068902,1,0,0,1.1552,rock_grid_rect_2,8,10,-1,-1,1.155,0.398610342,-0.385697791,1,0,0,1.3446,Pumice_rect,8,1.345,1,5,0,5,0,1,,,,,,,,,,,,,
62b0ff84054c6ca32f481c65,TCN,2024-06-20_13h48.35.894,LearnStrategy,2023.2.3,Win32,59.52380952,8,1,7,-0.007179911,-0.006774825,1,0,0,1.182,rock_grid_rect_2,7,05,-1,-1,1.182,0.124377675,-0.253213715,1,0,0,1.7915,Diorite_rect,3,1.792,0,6,0,6,0,1,,,,,,,,,,,,,
62b0ff84054c6ca32f481c65,TCN,2024-06-20_13h48.35.894,LearnStrategy,2023.2.3,Win32,59.52380952,8,1,8,-0.010885873,-0.01789232,1,0,0,1.198,rock_grid_rect_2,1,03,-1,-1,1.198,-0.410191083,-0.252287302,1,0,0,1.9432,Andesite_rect,1,1.943,1,7,0,7,0,1,,,,,,,,,,,,,
62b0ff84054c6ca32f481c65,TCN,2024-06-20_13h48.35.894,LearnStrategy,2023.2.3,Win32,59.52380952,8,1,9,0.065084003,0.010828025,1,0,0,1.0649,rock_grid_rect_2,4,05,-1,-1,1.065,0.445859873,-0.243022632,1,0,0,1.6449,Gabbro_rect,4,1.645,1,8,0,8,0,1,,,,,,,,,,,,,
62b0ff84054c6ca32f481c65,TCN,2024-06-20_13h48.35.894,LearnStrategy,2023.2.3,Win32,59.52380952,8,1,10,0.028025478,-0.000289548,1,0,0,1.1465,rock_grid_rect_2,3,16,-1,-1,1.147,0.132715699,-0.403300641,1,0,0,2.3617,Peridotite_rect,7,2.362,0,9,0,9,0,1,,,,,,,,,,,,,
62b0ff84054c6ca32f481c65,TCN,2024-06-20_13h48.35.894,LearnStrategy,2023.2.3,Win32,59.52380952,8,1,11,0.028025478,-0.00955414,1,0,0,1.0304,rock_grid_rect_2,5,04,-1,-1,1.03,-0.462999361,-0.421829826,1,0,0,1.2291,Obsidian_rect,5,1.229,1,10,0,10,0,1,,,,,,,,,,,,,
62b0ff84054c6ca32f481c65,TCN,2024-06-20_13h48.35.894,LearnStrategy,2023.2.3,Win32,59.52380952,8,1,12,0.054892998,-0.002142451,1,0,0,1.1645,rock_grid_rect_2,6,15,-1,-1,1.165,0.137347995,-0.244875535,1,0,0,2.7406,Diorite_rect,3,2.741,0,11,0,11,0,1,,,,,,,,,,,,,
62b0ff84054c6ca32f481c65,TCN,2024-06-20_13h48.35.894,LearnStrategy,2023.2.3,Win32,59.52380952,8,1,13,0.039143129,0.000636943,1,0,0,1.3961,rock_grid_rect_2,8,14,-1,-1,1.396,0.393978046,-0.397741777,1,0,0,1.8765,Pumice_rect,8,1.876,1,12,0,12,0,1,,,,,,,,,,,,,
62b0ff84054c6ca32f481c65,TCN,2024-06-20_13h48.35.894,LearnStrategy,2023.2.3,Win32,59.52380952,8,1,14,0.020613944,0.018239715,1,0,0,0.9985,rock_grid_rect_2,7,04,-1,-1,0.999,0.103068941,-0.240243239,1,0,0,1.878,Diorite_rect,3,1.878,0,13,0,13,0,1,,,,,,,,,,,,,
62b0ff84054c6ca32f481c65,TCN,2024-06-20_13h48.35.894,LearnStrategy,2023.2.3,Win32,59.52380952,8,1,15,0.068789809,0.022872011,1,0,0,1.1973,rock_grid_rect_2,2,14,-1,-1,1.197,-0.147075833,-0.258772424,1,0,0,1.2939,Basalt_rect,2,1.294,1,14,0,14,0,1,,,,,,,,,,,,,
62b0ff84054c6ca32f481c65,TCN,2024-06-20_13h48.35.894,LearnStrategy,2023.2.3,Win32,59.52380952,8,1,16,0.047481231,-0.001215999,1,0,0,1.4979,rock_grid_rect_2,3,09,-1,-1,1.498,0.179965307,-0.254140127,1,0,0,1.4071,Diorite_rect,3,1.407,1,15,0,15,0,1,,,,,,,,,,,,,
62b0ff84054c6ca32f481c65,TCN,2024-06-20_13h48.35.894,LearnStrategy,2023.2.3,Win32,59.52380952,8,2,1,,,,,,,,3,10,,,,,,,,,,,1,4.776,0,,,,,,-0.403705845,-0.253213715,1,0,0,4.7762,Andesite_rect,0,0,0,0,1,
62b0ff84054c6ca32f481c65,TCN,2024-06-20_13h48.35.894,LearnStrategy,2023.2.3,Win32,59.52380952,8,2,2,,,,,,,,5,08,,,,,,,,,,,5,1.331,1,,,,,,-0.414823379,-0.382918476,1,0,0,1.3313,Obsidian_rect,1,0,1,0,1,
62b0ff84054c6ca32f481c65,TCN,2024-06-20_13h48.35.894,LearnStrategy,2023.2.3,Win32,59.52380952,8,2,3,,,,,,,,1,10,,,,,,,,,,,2,3.657,0,,,,,,-0.095193929,-0.255066618,1,0,0,3.6573,Basalt_rect,2,0,2,0,1,
62b0ff84054c6ca32f481c65,TCN,2024-06-20_13h48.35.894,LearnStrategy,2023.2.3,Win32,59.52380952,8,2,4,,,,,,,,2,09,,,,,,,,,,,1,3.053,0,,,,,,-0.38239715,-0.258772424,1,0,0,3.0533,Andesite_rect,3,0,3,0,1,
62b0ff84054c6ca32f481c65,TCN,2024-06-20_13h48.35.894,LearnStrategy,2023.2.3,Win32,59.52380952,8,2,5,,,,,,,,4,03,,,,,,,,,,,6,2.952,0,,,,,,-0.119281978,-0.411638743,1,0,0,2.9522,Pegmatite_rect,4,0,4,0,1,
62b0ff84054c6ca32f481c65,TCN,2024-06-20_13h48.35.894,LearnStrategy,2023.2.3,Win32,59.52380952,8,2,6,,,,,,,,1,06,,,,,,,,,,,6,1.968,0,,,,,,-0.097973322,-0.394962384,1,0,0,1.9685,Pegmatite_rect,5,0,5,0,1,
62b0ff84054c6ca32f481c65,TCN,2024-06-20_13h48.35.894,LearnStrategy,2023.2.3,Win32,59.52380952,8,2,7,,,,,,,,5,11,,,,,,,,,,,5,1.207,1,,,,,,-0.371279655,-0.387550694,1,0,0,1.2067,Obsidian_rect,6,0,6,0,1,
62b0ff84054c6ca32f481c65,TCN,2024-06-20_13h48.35.894,LearnStrategy,2023.2.3,Win32,59.52380952,8,2,8,,,,,,,,8,06,,,,,,,,,,,8,1.312,1,,,,,,0.41991892,-0.41627104,1,0,0,1.3118,Pumice_rect,7,0,7,0,1,
62b0ff84054c6ca32f481c65,TCN,2024-06-20_13h48.35.894,LearnStrategy,2023.2.3,Win32,59.52380952,8,2,9,,,,,,,,7,14,,,,,,,,,,,3,2.358,0,,,,,,0.156803748,-0.244875535,1,0,0,2.3577,Diorite_rect,8,0,8,0,1,
62b0ff84054c6ca32f481c65,TCN,2024-06-20_13h48.35.894,LearnStrategy,2023.2.3,Win32,59.52380952,8,2,10,,,,,,,,3,15,,,,,,,,,,,6,1.858,0,,,,,,-0.090561555,-0.414418137,1,0,0,1.8582,Pegmatite_rect,9,0,9,0,1,
62b0ff84054c6ca32f481c65,TCN,2024-06-20_13h48.35.894,LearnStrategy,2023.2.3,Win32,59.52380952,8,2,11,,,,,,,,7,16,,,,,,,,,,,3,4.191,0,,,,,,0.085466169,-0.265257701,1,0,0,4.1911,Diorite_rect,10,0,10,0,1,
62b0ff84054c6ca32f481c65,TCN,2024-06-20_13h48.35.894,LearnStrategy,2023.2.3,Win32,59.52380952,8,2,12,,,,,,,,6,05,,,,,,,,,,,6,1.949,1,,,,,,-0.153561032,-0.415344549,1,0,0,1.9493,Pegmatite_rect,11,0,11,0,1,
62b0ff84054c6ca32f481c65,TCN,2024-06-20_13h48.35.894,LearnStrategy,2023.2.3,Win32,59.52380952,8,2,13,,,,,,,,8,09,,,,,,,,,,,8,1.292,1,,,,,,0.394904459,-0.411638743,1,0,0,1.2919,Pumice_rect,12,0,12,0,1,
62b0ff84054c6ca32f481c65,TCN,2024-06-20_13h48.35.894,LearnStrategy,2023.2.3,Win32,59.52380952,8,2,14,,,,,,,,6,10,,,,,,,,,,,6,1.343,1,,,,,,-0.205442936,-0.409785918,1,0,0,1.3433,Pegmatite_rect,13,0,13,0,1,
62b0ff84054c6ca32f481c65,TCN,2024-06-20_13h48.35.894,LearnStrategy,2023.2.3,Win32,59.52380952,8,2,15,,,,,,,,4,13,,,,,,,,,,,1,2.259,0,,,,,,-0.397220607,-0.267110603,1,0,0,2.2588,Andesite_rect,14,0,14,0,1,
62b0ff84054c6ca32f481c65,TCN,2024-06-20_13h48.35.894,LearnStrategy,2023.2.3,Win32,59.52380952,8,2,16,,,,,,,,2,06,,,,,,,,,,,1,0.99,0,,,,,,-0.397220607,-0.267110603,1,0,0,0.9902,Andesite_rect,15,0,15,0,1,
62b0ff84054c6ca32f481c65,TCN,2024-06-20_13h48.35.894,LearnStrategy,2023.2.3,Win32,59.52380952,9,1,1,0.020613944,0.021019108,1,0,0,1.5474,rock_grid_rect_2,8,08,-1,-1,1.547,0.398610342,-0.391256578,1,0,0,1.5771,Pumice_rect,8,1.577,1,0,0,0,0,1,,,,,,,,,,,,,
62b0ff84054c6ca32f481c65,TCN,2024-06-20_13h48.35.894,LearnStrategy,2023.2.3,Win32,59.52380952,9,1,2,0.015055002,-0.00955414,1,0,0,1.6977,rock_grid_rect_2,4,11,-1,-1,1.698,-0.413896928,-0.257846089,1,0,0,5.178,Andesite_rect,1,5.178,0,1,0,1,0,1,,,,,,,,,,,,,
62b0ff84054c6ca32f481c65,TCN,2024-06-20_13h48.35.894,LearnStrategy,2023.2.3,Win32,59.52380952,9,1,3,0.039143129,-0.006774825,1,0,0,1.2321,rock_grid_rect_2,3,14,-1,-1,1.232,0.141980369,-0.234684452,1,0,0,1.4765,Diorite_rect,3,1.476,1,2,0,2,0,1,,,,,,,,,,,,,
62b0ff84054c6ca32f481c65,TCN,2024-06-20_13h48.35.894,LearnStrategy,2023.2.3,Win32,59.52380952,9,1,4,-0.022003446,-0.004921844,1,0,0,1.2149,rock_grid_rect_2,5,02,-1,-1,1.215,-0.390735369,-0.420903414,1,0,0,2.9592,Obsidian_rect,5,2.959,1,3,0,3,0,1,,,,,,,,,,,,,
62b0ff84054c6ca32f481c65,TCN,2024-06-20_13h48.35.894,LearnStrategy,2023.2.3,Win32,59.52380952,9,1,5,0.023393181,-0.016965907,1,0,0,1.0482,rock_grid_rect_2,8,13,-1,-1,1.048,0.416213426,-0.415344549,1,0,0,1.3596,Pumice_rect,8,1.36,1,4,0,4,0,1,,,,,,,,,,,,,
62b0ff84054c6ca32f481c65,TCN,2024-06-20_13h48.35.894,LearnStrategy,2023.2.3,Win32,59.52380952,9,1,6,0.005790409,-0.005848295,1,0,0,1.3651,rock_grid_rect_2,6,13,-1,-1,1.365,0.146612665,-0.241169651,1,0,0,1.3108,Diorite_rect,3,1.311,0,5,0,5,0,1,,,,,,,,,,,,,
62b0ff84054c6ca32f481c65,TCN,2024-06-20_13h48.35.894,LearnStrategy,2023.2.3,Win32,59.52380952,9,1,7,0.021540356,-0.015112927,1,0,0,1.233,rock_grid_rect_2,7,12,-1,-1,1.233,0.414360212,-0.253213715,1,0,0,1.3254,Gabbro_rect,4,1.325,0,6,0,6,0,1,,,,,,,,,,,,,
62b0ff84054c6ca32f481c65,TCN,2024-06-20_13h48.35.894,LearnStrategy,2023.2.3,Win32,59.52380952,9,1,8,0.016907982,-0.01789232,1,0,0,1.2327,rock_grid_rect_2,1,14,-1,-1,1.233,-0.150781639,-0.394035893,1,0,0,2.1932,Pegmatite_rect,6,2.193,0,7,0,7,0,1,,,,,,,,,,,,,
62b0ff84054c6ca32f481c65,TCN,2024-06-20_13h48.35.894,LearnStrategy,2023.2.3,Win32,59.52380952,9,1,9,0.018760885,-0.003068902,1,0,0,1.0816,rock_grid_rect_2,6,07,-1,-1,1.082,-0.363867965,-0.249507831,1,0,0,1.341,Andesite_rect,1,1.341,0,8,0,8,0,1,,,,,,,,,,,,,
62b0ff84054c6ca32f481c65,TCN,2024-06-20_13h48.35.894,LearnStrategy,2023.2.3,Win32,59.52380952,9,1,10,-0.00810648,-0.004921844,1,0,0,1.3134,rock_grid_rect_2,4,10,-1,-1,1.313,-0.13595826,-0.403300641,1,0,0,1.2104,Pegmatite_rect,6,1.21,0,9,0,9,0,1,,,,,,,,,,,,,
62b0ff84054c6ca32f481c65,TCN,2024-06-20_13h48.35.894,LearnStrategy,2023.2.3,Win32,59.52380952,9,1,11,0.055819333,0.018239715,1,0,0,1.1985,rock_grid_rect_2,1,09,-1,-1,1.198,-0.326809479,-0.241169651,1,0,0,1.4086,Andesite_rect,1,1.409,1,10,0,10,0,1,,,,,,,,,,,,,
62b0ff84054c6ca32f481c65,TCN,2024-06-20_13h48.35.894,LearnStrategy,2023.2.3,Win32,59.52380952,9,1,12,0.053040017,-0.013259985,1,0,0,1.0369,rock_grid_rect_2,2,04,-1,-1,1.037,-0.139664143,-0.241169651,1,0,0,1.7976,Basalt_rect,2,1.798,1,11,0,11,0,1,,,,,,,,,,,,,
62b0ff84054c6ca32f481c65,TCN,2024-06-20_13h48.35.894,LearnStrategy,2023.2.3,Win32,59.52380952,9,1,13,0.032657852,0.012680928,1,0,0,0.8736,rock_grid_rect_2,7,13,-1,-1,0.874,0.1892299,-0.39959468,1,0,0,1.9343,Peridotite_rect,7,1.934,1,12,0,12,0,1,,,,,,,,,,,,,
62b0ff84054c6ca32f481c65,TCN,2024-06-20_13h48.35.894,LearnStrategy,2023.2.3,Win32,59.52380952,9,1,14,0.004863919,-0.003995392,1,0,0,0.9641,rock_grid_rect_2,3,11,-1,-1,0.964,0.112333533,-0.251360734,1,0,0,2.2956,Diorite_rect,3,2.296,1,13,0,13,0,1,,,,,,,,,,,,,
62b0ff84054c6ca32f481c65,TCN,2024-06-20_13h48.35.894,LearnStrategy,2023.2.3,Win32,59.52380952,9,1,15,0.007643312,-0.002142451,1,0,0,1.3484,rock_grid_rect_2,2,05,-1,-1,1.348,-0.151708051,-0.250434322,1,0,0,1.2267,Basalt_rect,2,1.227,1,14,0,14,0,1,,,,,,,,,,,,,
62b0ff84054c6ca32f481c65,TCN,2024-06-20_13h48.35.894,LearnStrategy,2023.2.3,Win32,59.52380952,9,1,16,0.031731439,0.011754477,1,0,0,1.5643,rock_grid_rect_2,5,10,-1,-1,1.564,-0.380544286,-0.395888874,1,0,0,1.9935,Obsidian_rect,5,1.993,1,15,0,15,0,1,,,,,,,,,,,,,
62b0ff84054c6ca32f481c65,TCN,2024-06-20_13h48.35.894,LearnStrategy,2023.2.3,Win32,59.52380952,9,2,1,,,,,,,,2,12,,,,,,,,,,,4,2.495,0,,,,,,0.348581496,-0.240243239,1,0,0,2.4951,Gabbro_rect,0,0,0,0,1,
62b0ff84054c6ca32f481c65,TCN,2024-06-20_13h48.35.894,LearnStrategy,2023.2.3,Win32,59.52380952,9,2,2,,,,,,,,4,09,,,,,,,,,,,7,3.577,0,,,,,,0.069716299,-0.405153622,1,0,0,3.5766,Peridotite_rect,1,0,1,0,1,
62b0ff84054c6ca32f481c65,TCN,2024-06-20_13h48.35.894,LearnStrategy,2023.2.3,Win32,59.52380952,9,2,3,,,,,,,,3,08,,,,,,,,,,,3,1.58,1,,,,,,0.088245562,-0.270816487,1,0,0,1.5799,Diorite_rect,2,0,2,0,1,
62b0ff84054c6ca32f481c65,TCN,2024-06-20_13h48.35.894,LearnStrategy,2023.2.3,Win32,59.52380952,9,2,4,,,,,,,,7,08,,,,,,,,,,,6,3.801,0,,,,,,-0.052576694,-0.40885935,1,0,0,3.8007,Pegmatite_rect,3,0,3,0,1,
62b0ff84054c6ca32f481c65,TCN,2024-06-20_13h48.35.894,LearnStrategy,2023.2.3,Win32,59.52380952,9,2,5,,,,,,,,7,07,,,,,,,,,,,2,2.711,0,,,,,,-0.163752115,-0.268037172,1,0,0,2.7106,Basalt_rect,4,0,4,0,1,
62b0ff84054c6ca32f481c65,TCN,2024-06-20_13h48.35.894,LearnStrategy,2023.2.3,Win32,59.52380952,9,2,6,,,,,,,,1,07,,,,,,,,,,,7,2.963,0,,,,,,0.142906782,-0.400521248,1,0,0,2.9628,Peridotite_rect,5,0,5,0,1,
62b0ff84054c6ca32f481c65,TCN,2024-06-20_13h48.35.894,LearnStrategy,2023.2.3,Win32,59.52380952,9,2,7,,,,,,,,8,15,,,,,,,,,,,8,1.258,1,,,,,,0.37266939,-0.388477185,1,0,0,1.2583,Pumice_rect,6,0,6,0,1,
62b0ff84054c6ca32f481c65,TCN,2024-06-20_13h48.35.894,LearnStrategy,2023.2.3,Win32,59.52380952,9,2,8,,,,,,,,8,16,,,,,,,,,,,2,1.259,0,,,,,,-0.131325886,-0.235610942,1,0,0,1.2587,Basalt_rect,7,0,7,0,1,
62b0ff84054c6ca32f481c65,TCN,2024-06-20_13h48.35.894,LearnStrategy,2023.2.3,Win32,59.52380952,9,2,9,,,,,,,,4,16,,,,,,,,,,,2,2.675,0,,,,,,-0.131325886,-0.235610942,1,0,0,2.6745,Basalt_rect,8,0,8,0,1,
62b0ff84054c6ca32f481c65,TCN,2024-06-20_13h48.35.894,LearnStrategy,2023.2.3,Win32,59.52380952,9,2,10,,,,,,,,6,12,,,,,,,,,,,6,3.134,1,,,,,,-0.118355487,-0.400521248,1,0,0,3.1343,Pegmatite_rect,9,0,9,0,1,
62b0ff84054c6ca32f481c65,TCN,2024-06-20_13h48.35.894,LearnStrategy,2023.2.3,Win32,59.52380952,9,2,11,,,,,,,,5,14,,,,,,,,,,,5,1.257,1,,,,,,-0.379617834,-0.404226976,1,0,0,1.257,Obsidian_rect,10,0,10,0,1,
62b0ff84054c6ca32f481c65,TCN,2024-06-20_13h48.35.894,LearnStrategy,2023.2.3,Win32,59.52380952,9,2,12,,,,,,,,1,16,,,,,,,,,,,4,1.36,0,,,,,,0.361551972,-0.257846089,1,0,0,1.3597,Gabbro_rect,11,0,11,0,1,
62b0ff84054c6ca32f481c65,TCN,2024-06-20_13h48.35.894,LearnStrategy,2023.2.3,Win32,59.52380952,9,2,13,,,,,,,,3,02,,,,,,,,,,,3,1.278,1,,,,,,0.153097865,-0.256919676,1,0,0,1.2781,Diorite_rect,12,0,12,0,1,
62b0ff84054c6ca32f481c65,TCN,2024-06-20_13h48.35.894,LearnStrategy,2023.2.3,Win32,59.52380952,9,2,14,,,,,,,,6,08,,,,,,,,,,,7,2.058,0,,,,,,0.112333533,-0.417197452,1,0,0,2.0583,Peridotite_rect,13,0,13,0,1,
62b0ff84054c6ca32f481c65,TCN,2024-06-20_13h48.35.894,LearnStrategy,2023.2.3,Win32,59.52380952,9,2,15,,,,,,,,2,01,,,,,,,,,,,1,2.907,0,,,,,,-0.36016212,-0.246728438,1,0,0,2.9073,Andesite_rect,14,0,14,0,1,
62b0ff84054c6ca32f481c65,TCN,2024-06-20_13h48.35.894,LearnStrategy,2023.2.3,Win32,59.52380952,9,2,16,,,,,,,,5,06,,,,,,,,,,,5,1.327,1,,,,,,-0.428720268,-0.397741777,1,0,0,1.3269,Obsidian_rect,15,0,15,0,1,
62b0ff84054c6ca32f481c65,TCN,2024-06-20_13h48.35.894,LearnStrategy,2023.2.3,Win32,59.52380952,,,,,,,,,,,,,,,,,,,,,,,,,,,,,,,,,,,,,,,,,,,0
62b0ff84054c6ca32f481c65,TCN,2024-06-20_13h48.35.894,LearnStrategy,2023.2.3,Win32,59.52380952,,,,,,,,,,,,,,,,,,,,,,,,,,,,,,,,,,,,,,,,,,,
62b0ff84054c6ca32f481c65,TCN,2024-06-20_13h48.35.894,LearnStrategy,2023.2.3,Win32,59.52380952,,,,,,,,,,,4,12,1,1,,,,,,,,,,,,,,,,,,,,,,,,,,,,,
62b0ff84054c6ca32f481c65,TCN,2024-06-20_13h48.35.894,LearnStrategy,2023.2.3,Win32,59.52380952,,,,,,,,,,,3,09,1,2,,,,,,,,,,,,,,,,,,,,,,,,,,,,,
62b0ff84054c6ca32f481c65,TCN,2024-06-20_13h48.35.894,LearnStrategy,2023.2.3,Win32,59.52380952,,,,,,,,,,,5,07,1,3,,,,,,,,,,,,,,,,,,,,,,,,,,,,,
62b0ff84054c6ca32f481c65,TCN,2024-06-20_13h48.35.894,LearnStrategy,2023.2.3,Win32,59.52380952,,,,,,,,,,,2,11,1,4,,,,,,,,,,,,,,,,,,,,,,,,,,,,,
62b0ff84054c6ca32f481c65,TCN,2024-06-20_13h48.35.894,LearnStrategy,2023.2.3,Win32,59.52380952,,,,,,,,,,,8,02,1,5,,,,,,,,,,,,,,,,,,,,,,,,,,,,,
62b0ff84054c6ca32f481c65,TCN,2024-06-20_13h48.35.894,LearnStrategy,2023.2.3,Win32,59.52380952,,,,,,,,,,,6,15,1,6,,,,,,,,,,,,,,,,,,,,,,,,,,,,,
62b0ff84054c6ca32f481c65,TCN,2024-06-20_13h48.35.894,LearnStrategy,2023.2.3,Win32,59.52380952,,,,,,,,,,,2,05,1,7,,,,,,,,,,,,,,,,,,,,,,,,,,,,,
62b0ff84054c6ca32f481c65,TCN,2024-06-20_13h48.35.894,LearnStrategy,2023.2.3,Win32,59.52380952,,,,,,,,,,,5,12,1,8,,,,,,,,,,,,,,,,,,,,,,,,,,,,,
62b0ff84054c6ca32f481c65,TCN,2024-06-20_13h48.35.894,LearnStrategy,2023.2.3,Win32,59.52380952,,,,,,,,,,,4,10,2,1,,,,,,,,,,,,,,,,,,,,,,,,,,,,,
62b0ff84054c6ca32f481c65,TCN,2024-06-20_13h48.35.894,LearnStrategy,2023.2.3,Win32,59.52380952,,,,,,,,,,,7,06,2,2,,,,,,,,,,,,,,,,,,,,,,,,,,,,,
62b0ff84054c6ca32f481c65,TCN,2024-06-20_13h48.35.894,LearnStrategy,2023.2.3,Win32,59.52380952,,,,,,,,,,,8,10,2,3,,,,,,,,,,,,,,,,,,,,,,,,,,,,,
62b0ff84054c6ca32f481c65,TCN,2024-06-20_13h48.35.894,LearnStrategy,2023.2.3,Win32,59.52380952,,,,,,,,,,,5,02,2,4,,,,,,,,,,,,,,,,,,,,,,,,,,,,,
62b0ff84054c6ca32f481c65,TCN,2024-06-20_13h48.35.894,LearnStrategy,2023.2.3,Win32,59.52380952,,,,,,,,,,,6,13,2,5,,,,,,,,,,,,,,,,,,,,,,,,,,,,,
62b0ff84054c6ca32f481c65,TCN,2024-06-20_13h48.35.894,LearnStrategy,2023.2.3,Win32,59.52380952,,,,,,,,,,,3,16,2,6,,,,,,,,,,,,,,,,,,,,,,,,,,,,,
62b0ff84054c6ca32f481c65,TCN,2024-06-20_13h48.35.894,LearnStrategy,2023.2.3,Win32,59.52380952,,,,,,,,,,,8,13,2,7,,,,,,,,,,,,,,,,,,,,,,,,,,,,,
62b0ff84054c6ca32f481c65,TCN,2024-06-20_13h48.35.894,LearnStrategy,2023.2.3,Win32,59.52380952,,,,,,,,,,,5,10,2,8,,,,,,,,,,,,,,,,,,,,,,,,,,,,,
62b0ff84054c6ca32f481c65,TCN,2024-06-20_13h48.35.894,LearnStrategy,2023.2.3,Win32,59.52380952,,,,,,,,,,,5,04,3,1,,,,,,,,,,,,,,,,,,,,,,,,,,,,,
62b0ff84054c6ca32f481c65,TCN,2024-06-20_13h48.35.894,LearnStrategy,2023.2.3,Win32,59.52380952,,,,,,,,,,,1,03,3,2,,,,,,,,,,,,,,,,,,,,,,,,,,,,,
62b0ff84054c6ca32f481c65,TCN,2024-06-20_13h48.35.894,LearnStrategy,2023.2.3,Win32,59.52380952,,,,,,,,,,,4,14,3,3,,,,,,,,,,,,,,,,,,,,,,,,,,,,,
62b0ff84054c6ca32f481c65,TCN,2024-06-20_13h48.35.894,LearnStrategy,2023.2.3,Win32,59.52380952,,,,,,,,,,,2,14,3,4,,,,,,,,,,,,,,,,,,,,,,,,,,,,,
62b0ff84054c6ca32f481c65,TCN,2024-06-20_13h48.35.894,LearnStrategy,2023.2.3,Win32,59.52380952,,,,,,,,,,,7,04,3,5,,,,,,,,,,,,,,,,,,,,,,,,,,,,,
62b0ff84054c6ca32f481c65,TCN,2024-06-20_13h48.35.894,LearnStrategy,2023.2.3,Win32,59.52380952,,,,,,,,,,,2,04,3,6,,,,,,,,,,,,,,,,,,,,,,,,,,,,,
62b0ff84054c6ca32f481c65,TCN,2024-06-20_13h48.35.894,LearnStrategy,2023.2.3,Win32,59.52380952,,,,,,,,,,,1,05,3,7,,,,,,,,,,,,,,,,,,,,,,,,,,,,,
62b0ff84054c6ca32f481c65,TCN,2024-06-20_13h48.35.894,LearnStrategy,2023.2.3,Win32,59.52380952,,,,,,,,,,,1,01,3,8,,,,,,,,,,,,,,,,,,,,,,,,,,,,,
62b0ff84054c6ca32f481c65,TCN,2024-06-20_13h48.35.894,LearnStrategy,2023.2.3,Win32,59.52380952,,,,,,,,,,,1,04,4,1,,,,,,,,,,,,,,,,,,,,,,,,,,,,,
62b0ff84054c6ca32f481c65,TCN,2024-06-20_13h48.35.894,LearnStrategy,2023.2.3,Win32,59.52380952,,,,,,,,,,,4,11,4,2,,,,,,,,,,,,,,,,,,,,,,,,,,,,,
62b0ff84054c6ca32f481c65,TCN,2024-06-20_13h48.35.894,LearnStrategy,2023.2.3,Win32,59.52380952,,,,,,,,,,,7,13,4,3,,,,,,,,,,,,,,,,,,,,,,,,,,,,,
62b0ff84054c6ca32f481c65,TCN,2024-06-20_13h48.35.894,LearnStrategy,2023.2.3,Win32,59.52380952,,,,,,,,,,,7,05,4,4,,,,,,,,,,,,,,,,,,,,,,,,,,,,,
62b0ff84054c6ca32f481c65,TCN,2024-06-20_13h48.35.894,LearnStrategy,2023.2.3,Win32,59.52380952,,,,,,,,,,,5,05,4,5,,,,,,,,,,,,,,,,,,,,,,,,,,,,,
62b0ff84054c6ca32f481c65,TCN,2024-06-20_13h48.35.894,LearnStrategy,2023.2.3,Win32,59.52380952,,,,,,,,,,,4,08,4,6,,,,,,,,,,,,,,,,,,,,,,,,,,,,,
62b0ff84054c6ca32f481c65,TCN,2024-06-20_13h48.35.894,LearnStrategy,2023.2.3,Win32,59.52380952,,,,,,,,,,,7,02,4,7,,,,,,,,,,,,,,,,,,,,,,,,,,,,,
62b0ff84054c6ca32f481c65,TCN,2024-06-20_13h48.35.894,LearnStrategy,2023.2.3,Win32,59.52380952,,,,,,,,,,,8,03,4,8,,,,,,,,,,,,,,,,,,,,,,,,,,,,,
62b0ff84054c6ca32f481c65,TCN,2024-06-20_13h48.35.894,LearnStrategy,2023.2.3,Win32,59.52380952,,,,,,,,,,,6,09,5,1,,,,,,,,,,,,,,,,,,,,,,,,,,,,,
62b0ff84054c6ca32f481c65,TCN,2024-06-20_13h48.35.894,LearnStrategy,2023.2.3,Win32,59.52380952,,,,,,,,,,,3,12,5,2,,,,,,,,,,,,,,,,,,,,,,,,,,,,,
62b0ff84054c6ca32f481c65,TCN,2024-06-20_13h48.35.894,LearnStrategy,2023.2.3,Win32,59.52380952,,,,,,,,,,,7,12,5,3,,,,,,,,,,,,,,,,,,,,,,,,,,,,,
62b0ff84054c6ca32f481c65,TCN,2024-06-20_13h48.35.894,LearnStrategy,2023.2.3,Win32,59.52380952,,,,,,,,,,,1,14,5,4,,,,,,,,,,,,,,,,,,,,,,,,,,,,,
62b0ff84054c6ca32f481c65,TCN,2024-06-20_13h48.35.894,LearnStrategy,2023.2.3,Win32,59.52380952,,,,,,,,,,,1,09,5,5,,,,,,,,,,,,,,,,,,,,,,,,,,,,,
62b0ff84054c6ca32f481c65,TCN,2024-06-20_13h48.35.894,LearnStrategy,2023.2.3,Win32,59.52380952,,,,,,,,,,,4,05,5,6,,,,,,,,,,,,,,,,,,,,,,,,,,,,,
62b0ff84054c6ca32f481c65,TCN,2024-06-20_13h48.35.894,LearnStrategy,2023.2.3,Win32,59.52380952,,,,,,,,,,,6,03,5,7,,,,,,,,,,,,,,,,,,,,,,,,,,,,,
62b0ff84054c6ca32f481c65,TCN,2024-06-20_13h48.35.894,LearnStrategy,2023.2.3,Win32,59.52380952,,,,,,,,,,,3,13,5,8,,,,,,,,,,,,,,,,,,,,,,,,,,,,,
62b0ff84054c6ca32f481c65,TCN,2024-06-20_13h48.35.894,LearnStrategy,2023.2.3,Win32,59.52380952,,,,,,,,,,,3,11,6,1,,,,,,,,,,,,,,,,,,,,,,,,,,,,,
62b0ff84054c6ca32f481c65,TCN,2024-06-20_13h48.35.894,LearnStrategy,2023.2.3,Win32,59.52380952,,,,,,,,,,,8,08,6,2,,,,,,,,,,,,,,,,,,,,,,,,,,,,,
62b0ff84054c6ca32f481c65,TCN,2024-06-20_13h48.35.894,LearnStrategy,2023.2.3,Win32,59.52380952,,,,,,,,,,,6,07,6,3,,,,,,,,,,,,,,,,,,,,,,,,,,,,,
62b0ff84054c6ca32f481c65,TCN,2024-06-20_13h48.35.894,LearnStrategy,2023.2.3,Win32,59.52380952,,,,,,,,,,,3,14,6,4,,,,,,,,,,,,,,,,,,,,,,,,,,,,,
62b0ff84054c6ca32f481c65,TCN,2024-06-20_13h48.35.894,LearnStrategy,2023.2.3,Win32,59.52380952,,,,,,,,,,,2,08,6,5,,,,,,,,,,,,,,,,,,,,,,,,,,,,,
62b0ff84054c6ca32f481c65,TCN,2024-06-20_13h48.35.894,LearnStrategy,2023.2.3,Win32,59.52380952,,,,,,,,,,,2,10,6,6,,,,,,,,,,,,,,,,,,,,,,,,,,,,,
62b0ff84054c6ca32f481c65,TCN,2024-06-20_13h48.35.894,LearnStrategy,2023.2.3,Win32,59.52380952,,,,,,,,,,,6,11,6,7,,,,,,,,,,,,,,,,,,,,,,,,,,,,,
62b0ff84054c6ca32f481c65,TCN,2024-06-20_13h48.35.894,LearnStrategy,2023.2.3,Win32,59.52380952,,,,,,,,,,,8,14,6,8,,,,,,,,,,,,,,,,,,,,,,,,,,,,,