participant,condition,date,expName,psychopyVersion,OS,frameRate,block,phase,trial,learn_mouse.x,learn_mouse.y,learn_mouse.leftButton,learn_mouse.midButton,learn_mouse.rightButton,learn_mouse.time,learn_mouse.clicked_name,cat,token,row,col,t_select,cat_mouse_l.x,cat_mouse_l.y,cat_mouse_l.leftButton,cat_mouse_l.midButton,cat_mouse_l.rightButton,cat_mouse_l.time,cat_mouse_l.clicked_name,resp,t_resp,corr,train_trials.thisRepN,train_trials.thisTrialN,train_trials.thisN,train_trials.thisIndex,train_trials.ran,cat_mouse_t.x,cat_mouse_t.y,cat_mouse_t.leftButton,cat_mouse_t.midButton,cat_mouse_t.rightButton,cat_mouse_t.time,cat_mouse_t.clicked_name,test_trials.thisRepN,test_trials.thisTrialN,test_trials.thisN,test_trials.thisIndex,test_trials.ran,Bonus
62c5fbbb796500bb5406d772,SCN,2024-06-20_16h27.23.036,LearnStrategy,2023.2.3,MacIntel,62.11180124,,,,,,,,,,,,,,,,,,,,,,,,,,,,,,,,,,,,,,,,,,,
62c5fbbb796500bb5406d772,SCN,2024-06-20_16h27.23.036,LearnStrategy,2023.2.3,MacIntel,62.11180124,1,1,1,-0.540916522,0.408803457,1,0,0,3.4422,Basalt_14,2,14,6,1,3.442,-0.101614674,-0.255930176,1,0,0,1.4309,Basalt_rect,2,1.431,1,0,0,0,0,1,,,,,,,,,,,,,
62c5fbbb796500bb5406d772,SCN,2024-06-20_16h27.23.036,LearnStrategy,2023.2.3,MacIntel,62.11180124,1,1,2,-0.233824192,0.258734221,1,0,0,2.979,Diorite_14,3,14,5,3,2.979,-0.104119059,-0.402568179,1,0,0,4.6232,Pegmatite_rect,6,4.623,0,1,0,1,0,1,,,,,,,,,,,,,
62c5fbbb796500bb5406d772,SCN,2024-06-20_16h27.23.036,LearnStrategy,2023.2.3,MacIntel,62.11180124,1,1,3,-0.071555447,0.089011321,1,0,0,0.9938,Diorite_15,3,15,4,4,0.994,-0.379932545,-0.252905138,1,0,0,2.3346,Andesite_rect,1,2.335,0,2,0,2,0,1,,,,,,,,,,,,,
62c5fbbb796500bb5406d772,SCN,2024-06-20_16h27.23.036,LearnStrategy,2023.2.3,MacIntel,62.11180124,1,1,4,0.371799407,0.087181939,1,0,0,1.5047,Peridotite_06,7,06,4,7,1.505,0.344041703,-0.24169949,1,0,0,1.7419,Gabbro_rect,4,1.742,0,3,0,3,0,1,,,,,,,,,,,,,
62c5fbbb796500bb5406d772,SCN,2024-06-20_16h27.23.036,LearnStrategy,2023.2.3,MacIntel,62.11180124,1,1,5,-0.213459066,0.220582501,1,0,0,2.244,Diorite_14,3,14,5,3,2.244,0.091623626,-0.408120569,1,0,0,2.0177,Peridotite_rect,7,2.018,0,4,0,4,0,1,,,,,,,,,,,,,
62c5fbbb796500bb5406d772,SCN,2024-06-20_16h27.23.036,LearnStrategy,2023.2.3,MacIntel,62.11180124,1,1,6,-0.2155896,0.241382424,1,0,0,0.8631,Diorite_14,3,14,5,3,0.863,0.156601924,-0.238218452,1,0,0,0.8984,Diorite_rect,3,0.898,1,5,0,5,0,1,,,,,,,,,,,,,
62c5fbbb796500bb5406d772,SCN,2024-06-20_16h27.23.036,LearnStrategy,2023.2.3,MacIntel,62.11180124,1,1,7,-0.075058458,0.393515195,1,0,0,1.8466,Gabbro_15,4,15,6,4,1.847,-0.115890706,-0.238578423,1,0,0,1.1498,Basalt_rect,2,1.15,0,6,0,6,0,1,,,,,,,,,,,,,
62c5fbbb796500bb5406d772,SCN,2024-06-20_16h27.23.036,LearnStrategy,2023.2.3,MacIntel,62.11180124,1,1,8,-0.071636963,0.392060796,1,0,0,1.1297,Gabbro_15,4,15,6,4,1.13,0.346975911,-0.2478479,1,0,0,1.8631,Gabbro_rect,4,1.863,1,7,0,7,0,1,,,,,,,,,,,,,
62c5fbbb796500bb5406d772,SCN,2024-06-20_16h27.23.036,LearnStrategy,2023.2.3,MacIntel,62.11180124,1,1,9,-0.227024559,0.278736889,1,0,0,0.7654,Diorite_14,3,14,5,3,0.765,0.145358615,-0.2373919,1,0,0,0.8791,Diorite_rect,3,0.879,1,8,0,8,0,1,,,,,,,,,,,,,
62c5fbbb796500bb5406d772,SCN,2024-06-20_16h27.23.036,LearnStrategy,2023.2.3,MacIntel,62.11180124,1,1,10,-0.239525734,0.0831571,1,0,0,1.6677,Pumice_16,8,16,4,3,1.668,-0.122362196,-0.25627672,1,0,0,1.1603,Basalt_rect,2,1.16,0,9,0,9,0,1,,,,,,,,,,,,,
62c5fbbb796500bb5406d772,SCN,2024-06-20_16h27.23.036,LearnStrategy,2023.2.3,MacIntel,62.11180124,1,1,11,-0.22352634,0.086423611,1,0,0,0.7969,Pumice_16,8,16,4,3,0.797,0.41848235,-0.414416052,1,0,0,1.3046,Pumice_rect,8,1.305,1,10,0,10,0,1,,,,,,,,,,,,,
62c5fbbb796500bb5406d772,SCN,2024-06-20_16h27.23.036,LearnStrategy,2023.2.3,MacIntel,62.11180124,1,1,12,0.537028266,-0.260313947,1,0,0,3.398,Obsidian_06,5,06,2,8,3.398,-0.386373065,-0.387949038,1,0,0,2.3629,Obsidian_rect,5,2.363,1,11,0,11,0,1,,,,,,,,,,,,,
62c5fbbb796500bb5406d772,SCN,2024-06-20_16h27.23.036,LearnStrategy,2023.2.3,MacIntel,62.11180124,1,1,13,-0.076789415,-0.256681496,1,0,0,0.9778,Peridotite_14,7,14,2,4,0.978,-0.388715549,-0.249328478,1,0,0,7.2342,Andesite_rect,1,7.234,0,12,0,12,0,1,,,,,,,,,,,,,
62c5fbbb796500bb5406d772,SCN,2024-06-20_16h27.23.036,LearnStrategy,2023.2.3,MacIntel,62.11180124,1,1,14,-0.214823134,0.275968922,1,0,0,1.5336,Diorite_14,3,14,5,3,1.534,0.13995298,-0.241315647,1,0,0,1.4111,Diorite_rect,3,1.411,1,13,0,13,0,1,,,,,,,,,,,,,
62c5fbbb796500bb5406d772,SCN,2024-06-20_16h27.23.036,LearnStrategy,2023.2.3,MacIntel,62.11180124,1,1,15,-0.062996555,-0.088006727,1,0,0,0.7446,Obsidian_09,5,09,3,4,0.745,-0.348096607,-0.3988869,1,0,0,1.6513,Obsidian_rect,5,1.651,1,14,0,14,0,1,,,,,,,,,,,,,
62c5fbbb796500bb5406d772,SCN,2024-06-20_16h27.23.036,LearnStrategy,2023.2.3,MacIntel,62.11180124,1,1,16,-0.407583189,-0.096818169,1,0,0,1.2297,Pumice_15,8,15,3,2,1.23,-0.349217303,-0.233329129,1,0,0,1.3975,Andesite_rect,1,1.398,0,15,0,15,0,1,,,,,,,,,,,,,
62c5fbbb796500bb5406d772,SCN,2024-06-20_16h27.23.036,LearnStrategy,2023.2.3,MacIntel,62.11180124,1,2,1,,,,,,,,8,08,,,,,,,,,,,6,5.943,0,,,,,,-0.13711792,-0.391743164,1,0,0,5.9431,Pegmatite_rect,0,0,0,0,1,
62c5fbbb796500bb5406d772,SCN,2024-06-20_16h27.23.036,LearnStrategy,2023.2.3,MacIntel,62.11180124,1,2,2,,,,,,,,1,06,,,,,,,,,,,3,2.485,0,,,,,,0.106038773,-0.2647989,1,0,0,2.4849,Diorite_rect,1,0,1,0,1,
62c5fbbb796500bb5406d772,SCN,2024-06-20_16h27.23.036,LearnStrategy,2023.2.3,MacIntel,62.11180124,1,2,3,,,,,,,,7,05,,,,,,,,,,,1,5.904,0,,,,,,-0.344720233,-0.247998318,1,0,0,5.9039,Andesite_rect,2,0,2,0,1,
62c5fbbb796500bb5406d772,SCN,2024-06-20_16h27.23.036,LearnStrategy,2023.2.3,MacIntel,62.11180124,1,2,4,,,,,,,,4,03,,,,,,,,,,,3,1.639,0,,,,,,0.095461335,-0.258050808,1,0,0,1.6388,Diorite_rect,3,0,3,0,1,
62c5fbbb796500bb5406d772,SCN,2024-06-20_16h27.23.036,LearnStrategy,2023.2.3,MacIntel,62.11180124,1,2,5,,,,,,,,5,07,,,,,,,,,,,5,2.079,1,,,,,,-0.346709527,-0.386215007,1,0,0,2.0793,Obsidian_rect,4,0,4,0,1,
62c5fbbb796500bb5406d772,SCN,2024-06-20_16h27.23.036,LearnStrategy,2023.2.3,MacIntel,62.11180124,1,2,6,,,,,,,,3,02,,,,,,,,,,,3,2.296,1,,,,,,0.123383247,-0.250816379,1,0,0,2.2964,Diorite_rect,5,0,5,0,1,
62c5fbbb796500bb5406d772,SCN,2024-06-20_16h27.23.036,LearnStrategy,2023.2.3,MacIntel,62.11180124,1,2,7,,,,,,,,3,11,,,,,,,,,,,6,4.851,0,,,,,,-0.153050808,-0.386653375,1,0,0,4.8511,Pegmatite_rect,6,0,6,0,1,
62c5fbbb796500bb5406d772,SCN,2024-06-20_16h27.23.036,LearnStrategy,2023.2.3,MacIntel,62.11180124,1,2,8,,,,,,,,5,08,,,,,,,,,,,5,1.37,1,,,,,,-0.353269586,-0.385403646,1,0,0,1.3703,Obsidian_rect,7,0,7,0,1,
62c5fbbb796500bb5406d772,SCN,2024-06-20_16h27.23.036,LearnStrategy,2023.2.3,MacIntel,62.11180124,1,2,9,,,,,,,,1,03,,,,,,,,,,,7,6.58,0,,,,,,0.191089048,-0.382337782,1,0,0,6.5801,Peridotite_rect,8,0,8,0,1,
62c5fbbb796500bb5406d772,SCN,2024-06-20_16h27.23.036,LearnStrategy,2023.2.3,MacIntel,62.11180124,1,2,10,,,,,,,,7,02,,,,,,,,,,,1,2.887,0,,,,,,-0.353277814,-0.250717412,1,0,0,2.8873,Andesite_rect,9,0,9,0,1,
62c5fbbb796500bb5406d772,SCN,2024-06-20_16h27.23.036,LearnStrategy,2023.2.3,MacIntel,62.11180124,1,2,11,,,,,,,,6,11,,,,,,,,,,,5,1.211,0,,,,,,-0.373957881,-0.383364077,1,0,0,1.211,Obsidian_rect,10,0,10,0,1,
62c5fbbb796500bb5406d772,SCN,2024-06-20_16h27.23.036,LearnStrategy,2023.2.3,MacIntel,62.11180124,1,2,12,,,,,,,,8,04,,,,,,,,,,,8,4.078,1,,,,,,0.320768229,-0.397988462,1,0,0,4.0777,Pumice_rect,11,0,11,0,1,
62c5fbbb796500bb5406d772,SCN,2024-06-20_16h27.23.036,LearnStrategy,2023.2.3,MacIntel,62.11180124,1,2,13,,,,,,,,2,04,,,,,,,,,,,5,4.203,0,,,,,,-0.361102566,-0.407222403,1,0,0,4.2031,Obsidian_rect,12,0,12,0,1,
62c5fbbb796500bb5406d772,SCN,2024-06-20_16h27.23.036,LearnStrategy,2023.2.3,MacIntel,62.11180124,1,2,14,,,,,,,,4,01,,,,,,,,,,,3,1.469,0,,,,,,0.121017614,-0.25408488,1,0,0,1.4691,Diorite_rect,13,0,13,0,1,
62c5fbbb796500bb5406d772,SCN,2024-06-20_16h27.23.036,LearnStrategy,2023.2.3,MacIntel,62.11180124,1,2,15,,,,,,,,6,10,,,,,,,,,,,6,1.779,1,,,,,,-0.099612721,-0.387177915,1,0,0,1.779,Pegmatite_rect,14,0,14,0,1,
62c5fbbb796500bb5406d772,SCN,2024-06-20_16h27.23.036,LearnStrategy,2023.2.3,MacIntel,62.11180124,1,2,16,,,,,,,,2,09,,,,,,,,,,,5,3.446,0,,,,,,-0.35282109,-0.391209129,1,0,0,3.4459,Obsidian_rect,15,0,15,0,1,
62c5fbbb796500bb5406d772,SCN,2024-06-20_16h27.23.036,LearnStrategy,2023.2.3,MacIntel,62.11180124,2,1,1,-0.526041056,-0.08220025,1,0,0,3.945,Peridotite_13,7,13,3,1,3.945,-0.372784288,-0.234579264,1,0,0,3.3059,Andesite_rect,1,3.306,0,0,0,0,0,1,,,,,,,,,,,,,
62c5fbbb796500bb5406d772,SCN,2024-06-20_16h27.23.036,LearnStrategy,2023.2.3,MacIntel,62.11180124,2,1,2,0.226775354,-0.398696199,1,0,0,3.5836,Pumice_02,8,02,1,6,3.584,0.383397172,-0.395395327,1,0,0,2.1764,Pumice_rect,8,2.176,1,1,0,1,0,1,,,,,,,,,,,,,
62c5fbbb796500bb5406d772,SCN,2024-06-20_16h27.23.036,LearnStrategy,2023.2.3,MacIntel,62.11180124,2,1,3,0.407097801,0.12121738,1,0,0,2.1977,Peridotite_06,7,06,4,7,2.198,-0.152261692,-0.395054977,1,0,0,1.5642,Pegmatite_rect,6,1.564,0,2,0,2,0,1,,,,,,,,,,,,,
62c5fbbb796500bb5406d772,SCN,2024-06-20_16h27.23.036,LearnStrategy,2023.2.3,MacIntel,62.11180124,2,1,4,-0.531567948,-0.101689091,1,0,0,2.0452,Peridotite_13,7,13,3,1,2.045,0.110149378,-0.402431641,1,0,0,1.3663,Peridotite_rect,7,1.366,1,3,0,3,0,1,,,,,,,,,,,,,
62c5fbbb796500bb5406d772,SCN,2024-06-20_16h27.23.036,LearnStrategy,2023.2.3,MacIntel,62.11180124,2,1,5,0.533137297,0.380321678,1,0,0,4.7969,Pegmatite_13,6,13,6,8,4.797,-0.11570109,-0.245622016,1,0,0,2.3738,Basalt_rect,2,2.374,0,4,0,4,0,1,,,,,,,,,,,,,
62c5fbbb796500bb5406d772,SCN,2024-06-20_16h27.23.036,LearnStrategy,2023.2.3,MacIntel,62.11180124,2,1,6,-0.412263093,-0.097609592,1,0,0,3.4179,Pumice_15,8,15,3,2,3.418,-0.111343587,-0.400211408,1,0,0,3.9846,Pegmatite_rect,6,3.985,0,5,0,5,0,1,,,,,,,,,,,,,
62c5fbbb796500bb5406d772,SCN,2024-06-20_16h27.23.036,LearnStrategy,2023.2.3,MacIntel,62.11180124,2,1,7,0.241713053,-0.270916703,1,0,0,5.2,Basalt_06,2,06,2,6,5.2,-0.348646195,-0.418384332,1,0,0,1.3706,Obsidian_rect,5,1.371,0,6,0,6,0,1,,,,,,,,,,,,,
62c5fbbb796500bb5406d772,SCN,2024-06-20_16h27.23.036,LearnStrategy,2023.2.3,MacIntel,62.11180124,2,1,8,-0.24445629,-0.238826678,1,0,0,1.7114,Basalt_05,2,05,2,3,1.711,-0.083851454,-0.241110704,1,0,0,0.8664,Basalt_rect,2,0.866,1,7,0,7,0,1,,,,,,,,,,,,,
62c5fbbb796500bb5406d772,SCN,2024-06-20_16h27.23.036,LearnStrategy,2023.2.3,MacIntel,62.11180124,2,1,9,-0.048825005,0.068554507,1,0,0,2.0734,Diorite_15,3,15,4,4,2.073,0.107324761,-0.26590974,1,0,0,1.4524,Diorite_rect,3,1.452,1,8,0,8,0,1,,,,,,,,,,,,,
62c5fbbb796500bb5406d772,SCN,2024-06-20_16h27.23.036,LearnStrategy,2023.2.3,MacIntel,62.11180124,2,1,10,-0.238160536,0.289528334,1,0,0,1.2988,Diorite_14,3,14,5,3,1.299,0.11311216,-0.233493019,1,0,0,1.5808,Diorite_rect,3,1.581,1,9,0,9,0,1,,,,,,,,,,,,,
62c5fbbb796500bb5406d772,SCN,2024-06-20_16h27.23.036,LearnStrategy,2023.2.3,MacIntel,62.11180124,2,1,11,-0.404179235,-0.426052698,1,0,0,9.0611,Peridotite_04,7,04,1,2,9.061,-0.373521774,-0.234125615,1,0,0,2.1596,Andesite_rect,1,2.16,0,10,0,10,0,1,,,,,,,,,,,,,
62c5fbbb796500bb5406d772,SCN,2024-06-20_16h27.23.036,LearnStrategy,2023.2.3,MacIntel,62.11180124,2,1,12,-0.51123135,-0.113225369,1,0,0,1.8631,Peridotite_13,7,13,3,1,1.863,0.105968696,-0.4088784,1,0,0,1.0815,Peridotite_rect,7,1.081,1,11,0,11,0,1,,,,,,,,,,,,,
62c5fbbb796500bb5406d772,SCN,2024-06-20_16h27.23.036,LearnStrategy,2023.2.3,MacIntel,62.11180124,2,1,13,0.548911947,-0.067690068,1,0,0,4.0967,Obsidian_05,5,05,3,8,4.097,-0.353816008,-0.414802246,1,0,0,1.439,Obsidian_rect,5,1.439,1,12,0,12,0,1,,,,,,,,,,,,,
62c5fbbb796500bb5406d772,SCN,2024-06-20_16h27.23.036,LearnStrategy,2023.2.3,MacIntel,62.11180124,2,1,14,0.064992133,0.232108652,1,0,0,2.8,Pumice_09,8,09,5,5,2.8,0.354970974,-0.379465242,1,0,0,1.1707,Pumice_rect,8,1.171,1,13,0,13,0,1,,,,,,,,,,,,,
62c5fbbb796500bb5406d772,SCN,2024-06-20_16h27.23.036,LearnStrategy,2023.2.3,MacIntel,62.11180124,2,1,15,-0.089545627,-0.25479031,1,0,0,5.913,Peridotite_14,7,14,2,4,5.913,0.11889124,-0.387807617,1,0,0,2.357,Peridotite_rect,7,2.357,1,14,0,14,0,1,,,,,,,,,,,,,
62c5fbbb796500bb5406d772,SCN,2024-06-20_16h27.23.036,LearnStrategy,2023.2.3,MacIntel,62.11180124,2,1,16,-0.534812871,-0.39380986,1,0,0,4.7341,Peridotite_08,7,08,1,1,4.734,0.117785283,-0.246378581,1,0,0,3.5178,Diorite_rect,3,3.518,0,15,0,15,0,1,,,,,,,,,,,,,
62c5fbbb796500bb5406d772,SCN,2024-06-20_16h27.23.036,LearnStrategy,2023.2.3,MacIntel,62.11180124,2,2,1,,,,,,,,2,16,,,,,,,,,,,2,4.065,1,,,,,,-0.113806559,-0.248496772,1,0,0,4.0655,Basalt_rect,0,0,0,0,1,
62c5fbbb796500bb5406d772,SCN,2024-06-20_16h27.23.036,LearnStrategy,2023.2.3,MacIntel,62.11180124,2,2,2,,,,,,,,8,13,,,,,,,,,,,2,3.32,0,,,,,,-0.113806559,-0.248496772,1,0,0,3.3203,Basalt_rect,1,0,1,0,1,
62c5fbbb796500bb5406d772,SCN,2024-06-20_16h27.23.036,LearnStrategy,2023.2.3,MacIntel,62.11180124,2,2,3,,,,,,,,6,05,,,,,,,,,,,5,2.019,0,,,,,,-0.323560927,-0.398697917,1,0,0,2.0188,Obsidian_rect,2,0,2,0,1,
62c5fbbb796500bb5406d772,SCN,2024-06-20_16h27.23.036,LearnStrategy,2023.2.3,MacIntel,62.11180124,2,2,4,,,,,,,,3,09,,,,,,,,,,,3,1.229,1,,,,,,0.111819842,-0.268061343,1,0,0,1.2289,Diorite_rect,3,0,3,0,1,
62c5fbbb796500bb5406d772,SCN,2024-06-20_16h27.23.036,LearnStrategy,2023.2.3,MacIntel,62.11180124,2,2,5,,,,,,,,4,16,,,,,,,,,,,2,4.163,0,,,,,,-0.079333767,-0.240705024,1,0,0,4.1629,Basalt_rect,4,0,4,0,1,
62c5fbbb796500bb5406d772,SCN,2024-06-20_16h27.23.036,LearnStrategy,2023.2.3,MacIntel,62.11180124,2,2,6,,,,,,,,2,12,,,,,,,,,,,8,1.47,0,,,,,,0.399437663,-0.384205367,1,0,0,1.47,Pumice_rect,5,0,5,0,1,
62c5fbbb796500bb5406d772,SCN,2024-06-20_16h27.23.036,LearnStrategy,2023.2.3,MacIntel,62.11180124,2,2,7,,,,,,,,5,16,,,,,,,,,,,5,1.995,1,,,,,,-0.408037742,-0.394142976,1,0,0,1.9948,Obsidian_rect,6,0,6,0,1,
62c5fbbb796500bb5406d772,SCN,2024-06-20_16h27.23.036,LearnStrategy,2023.2.3,MacIntel,62.11180124,2,2,8,,,,,,,,7,15,,,,,,,,,,,7,3.672,1,,,,,,0.146162471,-0.400906214,1,0,0,3.6723,Peridotite_rect,7,0,7,0,1,
62c5fbbb796500bb5406d772,SCN,2024-06-20_16h27.23.036,LearnStrategy,2023.2.3,MacIntel,62.11180124,2,2,9,,,,,,,,1,07,,,,,,,,,,,3,1.154,0,,,,,,0.150695349,-0.262798756,1,0,0,1.1537,Diorite_rect,8,0,8,0,1,
62c5fbbb796500bb5406d772,SCN,2024-06-20_16h27.23.036,LearnStrategy,2023.2.3,MacIntel,62.11180124,2,2,10,,,,,,,,4,10,,,,,,,,,,,8,3.363,0,,,,,,0.397758066,-0.405773926,1,0,0,3.3627,Pumice_rect,9,0,9,0,1,
62c5fbbb796500bb5406d772,SCN,2024-06-20_16h27.23.036,LearnStrategy,2023.2.3,MacIntel,62.11180124,2,2,11,,,,,,,,1,05,,,,,,,,,,,4,4.196,0,,,,,,0.326250271,-0.251641891,1,0,0,4.1964,Gabbro_rect,10,0,10,0,1,
62c5fbbb796500bb5406d772,SCN,2024-06-20_16h27.23.036,LearnStrategy,2023.2.3,MacIntel,62.11180124,2,2,12,,,,,,,,5,04,,,,,,,,,,,5,1.072,1,,,,,,-0.351785482,-0.378215965,1,0,0,1.072,Obsidian_rect,11,0,11,0,1,
62c5fbbb796500bb5406d772,SCN,2024-06-20_16h27.23.036,LearnStrategy,2023.2.3,MacIntel,62.11180124,2,2,13,,,,,,,,6,16,,,,,,,,,,,6,3.896,1,,,,,,-0.168798692,-0.403563187,1,0,0,3.8958,Pegmatite_rect,12,0,12,0,1,
62c5fbbb796500bb5406d772,SCN,2024-06-20_16h27.23.036,LearnStrategy,2023.2.3,MacIntel,62.11180124,2,2,14,,,,,,,,3,06,,,,,,,,,,,3,1.372,1,,,,,,0.149273908,-0.265476707,1,0,0,1.3718,Diorite_rect,13,0,13,0,1,
62c5fbbb796500bb5406d772,SCN,2024-06-20_16h27.23.036,LearnStrategy,2023.2.3,MacIntel,62.11180124,2,2,15,,,,,,,,8,06,,,,,,,,,,,8,1.862,1,,,,,,0.38693495,-0.398963759,1,0,0,1.8619,Pumice_rect,14,0,14,0,1,
62c5fbbb796500bb5406d772,SCN,2024-06-20_16h27.23.036,LearnStrategy,2023.2.3,MacIntel,62.11180124,2,2,16,,,,,,,,7,16,,,,,,,,,,,7,5.061,1,,,,,,0.125901964,-0.402248806,1,0,0,5.0615,Peridotite_rect,15,0,15,0,1,
62c5fbbb796500bb5406d772,SCN,2024-06-20_16h27.23.036,LearnStrategy,2023.2.3,MacIntel,62.11180124,3,1,1,0.078483254,-0.083496229,1,0,0,8.101,Andesite_11,1,11,3,5,8.101,0.371494141,-0.257972186,1,0,0,1.6709,Gabbro_rect,4,1.671,0,0,0,0,0,1,,,,,,,,,,,,,
62c5fbbb796500bb5406d772,SCN,2024-06-20_16h27.23.036,LearnStrategy,2023.2.3,MacIntel,62.11180124,3,1,2,-0.078310818,0.260655947,1,0,0,2.4667,Andesite_09,1,09,5,4,2.467,-0.355705295,-0.22913945,1,0,0,0.9459,Andesite_rect,1,0.946,1,1,0,1,0,1,,,,,,,,,,,,,
62c5fbbb796500bb5406d772,SCN,2024-06-20_16h27.23.036,LearnStrategy,2023.2.3,MacIntel,62.11180124,3,1,3,0.398722873,-0.402810692,1,0,0,3.2275,Gabbro_11,4,11,1,7,3.227,-0.096813694,-0.25301039,1,0,0,2.1832,Basalt_rect,2,2.183,0,2,0,2,0,1,,,,,,,,,,,,,
62c5fbbb796500bb5406d772,SCN,2024-06-20_16h27.23.036,LearnStrategy,2023.2.3,MacIntel,62.11180124,3,1,4,0.071517108,-0.396211118,1,0,0,2.1971,Basalt_01,2,01,1,5,2.197,0.359814724,-0.249822456,1,0,0,1.1649,Gabbro_rect,4,1.165,0,3,0,3,0,1,,,,,,,,,,,,,
62c5fbbb796500bb5406d772,SCN,2024-06-20_16h27.23.036,LearnStrategy,2023.2.3,MacIntel,62.11180124,3,1,5,0.388713469,0.267900684,1,0,0,2.4762,Gabbro_12,4,12,5,7,2.476,0.392521701,-0.254484321,1,0,0,1.7197,Gabbro_rect,4,1.72,1,4,0,4,0,1,,,,,,,,,,,,,
62c5fbbb796500bb5406d772,SCN,2024-06-20_16h27.23.036,LearnStrategy,2023.2.3,MacIntel,62.11180124,3,1,6,-0.522229863,-0.091679552,1,0,0,2.9287,Peridotite_13,7,13,3,1,2.929,0.136893627,-0.401369538,1,0,0,0.7376,Peridotite_rect,7,0.738,1,5,0,5,0,1,,,,,,,,,,,,,
62c5fbbb796500bb5406d772,SCN,2024-06-20_16h27.23.036,LearnStrategy,2023.2.3,MacIntel,62.11180124,3,1,7,-0.581869394,-0.397393663,1,0,0,1.0296,Peridotite_08,7,08,1,1,1.03,0.080281395,-0.396958731,1,0,0,1.0527,Peridotite_rect,7,1.053,1,6,0,6,0,1,,,,,,,,,,,,,
62c5fbbb796500bb5406d772,SCN,2024-06-20_16h27.23.036,LearnStrategy,2023.2.3,MacIntel,62.11180124,3,1,8,0.580012297,-0.086986627,1,0,0,4.8664,Obsidian_05,5,05,3,8,4.866,0.09545591,-0.234860478,1,0,0,0.6712,Diorite_rect,3,0.671,0,7,0,7,0,1,,,,,,,,,,,,,
62c5fbbb796500bb5406d772,SCN,2024-06-20_16h27.23.036,LearnStrategy,2023.2.3,MacIntel,62.11180124,3,1,9,-0.072329373,-0.412141294,1,0,0,2.4471,Andesite_04,1,04,1,4,2.447,-0.369664081,-0.246424154,1,0,0,3.2151,Andesite_rect,1,3.215,1,8,0,8,0,1,,,,,,,,,,,,,
62c5fbbb796500bb5406d772,SCN,2024-06-20_16h27.23.036,LearnStrategy,2023.2.3,MacIntel,62.11180124,3,1,10,0.407354601,-0.408432075,1,0,0,1.5282,Gabbro_11,4,11,1,7,1.528,-0.103101807,-0.265255805,1,0,0,2.1314,Basalt_rect,2,2.131,0,9,0,9,0,1,,,,,,,,,,,,,
62c5fbbb796500bb5406d772,SCN,2024-06-20_16h27.23.036,LearnStrategy,2023.2.3,MacIntel,62.11180124,3,1,11,0.359136556,-0.09871582,1,0,0,1.6519,Gabbro_08,4,08,3,7,1.652,0.371041938,-0.264350405,1,0,0,1.0453,Gabbro_rect,4,1.045,1,10,0,10,0,1,,,,,,,,,,,,,
62c5fbbb796500bb5406d772,SCN,2024-06-20_16h27.23.036,LearnStrategy,2023.2.3,MacIntel,62.11180124,3,1,12,-0.08111952,0.251395422,1,0,0,1.6623,Andesite_09,1,09,5,4,1.662,0.393365162,-0.244410265,1,0,0,1.2827,Gabbro_rect,4,1.283,0,11,0,11,0,1,,,,,,,,,,,,,
62c5fbbb796500bb5406d772,SCN,2024-06-20_16h27.23.036,LearnStrategy,2023.2.3,MacIntel,62.11180124,3,1,13,-0.267236238,0.09046866,1,0,0,2.6125,Pumice_16,8,16,4,3,2.612,0.40139133,-0.385407082,1,0,0,1.8008,Pumice_rect,8,1.801,1,12,0,12,0,1,,,,,,,,,,,,,
62c5fbbb796500bb5406d772,SCN,2024-06-20_16h27.23.036,LearnStrategy,2023.2.3,MacIntel,62.11180124,3,1,14,-0.071520589,-0.277040111,1,0,0,5.9834,Peridotite_14,7,14,2,4,5.983,0.160044217,-0.392836914,1,0,0,0.6538,Peridotite_rect,7,0.654,1,13,0,13,0,1,,,,,,,,,,,,,
62c5fbbb796500bb5406d772,SCN,2024-06-20_16h27.23.036,LearnStrategy,2023.2.3,MacIntel,62.11180124,3,1,15,-0.233911042,-0.430647606,1,0,0,1.1337,Andesite_10,1,10,1,3,1.134,0.42645128,-0.383713288,1,0,0,2.7291,Pumice_rect,8,2.729,0,14,0,14,0,1,,,,,,,,,,,,,
62c5fbbb796500bb5406d772,SCN,2024-06-20_16h27.23.036,LearnStrategy,2023.2.3,MacIntel,62.11180124,3,1,16,-0.240738751,-0.411276765,1,0,0,1.3962,Andesite_10,1,10,1,3,1.396,-0.348577474,-0.265410337,1,0,0,0.8995,Andesite_rect,1,0.899,1,15,0,15,0,1,,,,,,,,,,,,,
62c5fbbb796500bb5406d772,SCN,2024-06-20_16h27.23.036,LearnStrategy,2023.2.3,MacIntel,62.11180124,3,2,1,,,,,,,,3,08,,,,,,,,,,,3,1.33,1,,,,,,0.104663809,-0.253904803,1,0,0,1.3303,Diorite_rect,0,0,0,0,1,
62c5fbbb796500bb5406d772,SCN,2024-06-20_16h27.23.036,LearnStrategy,2023.2.3,MacIntel,62.11180124,3,2,2,,,,,,,,8,05,,,,,,,,,,,1,7.797,0,,,,,,-0.353495687,-0.238056821,1,0,0,7.7969,Andesite_rect,1,0,1,0,1,
62c5fbbb796500bb5406d772,SCN,2024-06-20_16h27.23.036,LearnStrategy,2023.2.3,MacIntel,62.11180124,3,2,3,,,,,,,,1,14,,,,,,,,,,,1,4.987,1,,,,,,-0.392429244,-0.263665545,1,0,0,4.9866,Andesite_rect,2,0,2,0,1,
62c5fbbb796500bb5406d772,SCN,2024-06-20_16h27.23.036,LearnStrategy,2023.2.3,MacIntel,62.11180124,3,2,4,,,,,,,,6,07,,,,,,,,,,,5,1.337,0,,,,,,-0.393025264,-0.412078631,1,0,0,1.3371,Obsidian_rect,3,0,3,0,1,
62c5fbbb796500bb5406d772,SCN,2024-06-20_16h27.23.036,LearnStrategy,2023.2.3,MacIntel,62.11180124,3,2,5,,,,,,,,4,14,,,,,,,,,,,2,2.879,0,,,,,,-0.135493526,-0.251272154,1,0,0,2.8793,Basalt_rect,4,0,4,0,1,
62c5fbbb796500bb5406d772,SCN,2024-06-20_16h27.23.036,LearnStrategy,2023.2.3,MacIntel,62.11180124,3,2,6,,,,,,,,2,10,,,,,,,,,,,2,3.07,1,,,,,,-0.078480225,-0.251634567,1,0,0,3.0698,Basalt_rect,5,0,5,0,1,
62c5fbbb796500bb5406d772,SCN,2024-06-20_16h27.23.036,LearnStrategy,2023.2.3,MacIntel,62.11180124,3,2,7,,,,,,,,4,13,,,,,,,,,,,3,1.569,0,,,,,,0.09483742,-0.253809272,1,0,0,1.5692,Diorite_rect,6,0,6,0,1,
62c5fbbb796500bb5406d772,SCN,2024-06-20_16h27.23.036,LearnStrategy,2023.2.3,MacIntel,62.11180124,3,2,8,,,,,,,,8,10,,,,,,,,,,,8,2.38,1,,,,,,0.317207212,-0.389099844,1,0,0,2.3799,Pumice_rect,7,0,7,0,1,
62c5fbbb796500bb5406d772,SCN,2024-06-20_16h27.23.036,LearnStrategy,2023.2.3,MacIntel,62.11180124,3,2,9,,,,,,,,7,10,,,,,,,,,,,7,4.48,1,,,,,,0.151779423,-0.408297707,1,0,0,4.4798,Peridotite_rect,8,0,8,0,1,
62c5fbbb796500bb5406d772,SCN,2024-06-20_16h27.23.036,LearnStrategy,2023.2.3,MacIntel,62.11180124,3,2,10,,,,,,,,6,06,,,,,,,,,,,6,2.189,1,,,,,,-0.078063241,-0.410509621,1,0,0,2.1893,Pegmatite_rect,9,0,9,0,1,
62c5fbbb796500bb5406d772,SCN,2024-06-20_16h27.23.036,LearnStrategy,2023.2.3,MacIntel,62.11180124,3,2,11,,,,,,,,3,10,,,,,,,,,,,3,2.605,1,,,,,,0.171676071,-0.242440457,1,0,0,2.6053,Diorite_rect,10,0,10,0,1,
62c5fbbb796500bb5406d772,SCN,2024-06-20_16h27.23.036,LearnStrategy,2023.2.3,MacIntel,62.11180124,3,2,12,,,,,,,,5,14,,,,,,,,,,,5,1.115,1,,,,,,-0.36713605,-0.386933955,1,0,0,1.1145,Obsidian_rect,11,0,11,0,1,
62c5fbbb796500bb5406d772,SCN,2024-06-20_16h27.23.036,LearnStrategy,2023.2.3,MacIntel,62.11180124,3,2,13,,,,,,,,2,11,,,,,,,,,,,8,4.832,0,,,,,,0.401992459,-0.392748481,1,0,0,4.8316,Pumice_rect,12,0,12,0,1,
62c5fbbb796500bb5406d772,SCN,2024-06-20_16h27.23.036,LearnStrategy,2023.2.3,MacIntel,62.11180124,3,2,14,,,,,,,,5,10,,,,,,,,,,,5,1.149,1,,,,,,-0.388503328,-0.395641457,1,0,0,1.1489,Obsidian_rect,13,0,13,0,1,
62c5fbbb796500bb5406d772,SCN,2024-06-20_16h27.23.036,LearnStrategy,2023.2.3,MacIntel,62.11180124,3,2,15,,,,,,,,1,01,,,,,,,,,,,4,2.847,0,,,,,,0.412844238,-0.249331507,1,0,0,2.8466,Gabbro_rect,14,0,14,0,1,
62c5fbbb796500bb5406d772,SCN,2024-06-20_16h27.23.036,LearnStrategy,2023.2.3,MacIntel,62.11180124,3,2,16,,,,,,,,7,12,,,,,,,,,,,7,4.48,1,,,,,,0.150148655,-0.408928856,1,0,0,4.4803,Peridotite_rect,15,0,15,0,1,
62c5fbbb796500bb5406d772,SCN,2024-06-20_16h27.23.036,LearnStrategy,2023.2.3,MacIntel,62.11180124,4,1,1,-0.36804787,-0.068922119,1,0,0,2.4467,Pumice_15,8,15,3,2,2.447,-0.148581362,-0.236450602,1,0,0,1.064,Basalt_rect,2,1.064,0,0,0,0,0,1,,,,,,,,,,,,,
62c5fbbb796500bb5406d772,SCN,2024-06-20_16h27.23.036,LearnStrategy,2023.2.3,MacIntel,62.11180124,4,1,2,0.530117459,-0.383166594,1,0,0,1.4634,Pegmatite_08,6,08,1,8,1.463,-0.349379385,-0.403891602,1,0,0,1.5191,Obsidian_rect,5,1.519,0,1,0,1,0,1,,,,,,,,,,,,,
62c5fbbb796500bb5406d772,SCN,2024-06-20_16h27.23.036,LearnStrategy,2023.2.3,MacIntel,62.11180124,4,1,3,0.269000561,-0.412109918,1,0,0,1.3456,Pumice_02,8,02,1,6,1.346,0.455933702,-0.387890444,1,0,0,1.615,Pumice_rect,8,1.615,1,2,0,2,0,1,,,,,,,,,,,,,
62c5fbbb796500bb5406d772,SCN,2024-06-20_16h27.23.036,LearnStrategy,2023.2.3,MacIntel,62.11180124,4,1,4,-0.122240759,0.242933304,1,0,0,0.9631,Andesite_09,1,09,5,4,0.963,-0.221049669,-0.254137505,1,0,0,2.1151,Basalt_rect,2,2.115,0,3,0,3,0,1,,,,,,,,,,,,,
62c5fbbb796500bb5406d772,SCN,2024-06-20_16h27.23.036,LearnStrategy,2023.2.3,MacIntel,62.11180124,4,1,5,-0.227720947,0.265333455,1,0,0,0.7462,Diorite_14,3,14,5,3,0.746,0.095931713,-0.254187283,1,0,0,0.8028,Diorite_rect,3,0.803,1,4,0,4,0,1,,,,,,,,,,,,,
62c5fbbb796500bb5406d772,SCN,2024-06-20_16h27.23.036,LearnStrategy,2023.2.3,MacIntel,62.11180124,4,1,6,-0.396554543,-0.098851635,1,0,0,2.0158,Pumice_15,8,15,3,2,2.016,0.433963759,-0.396419813,1,0,0,3.1472,Pumice_rect,8,3.147,1,5,0,5,0,1,,,,,,,,,,,,,
62c5fbbb796500bb5406d772,SCN,2024-06-20_16h27.23.036,LearnStrategy,2023.2.3,MacIntel,62.11180124,4,1,7,0.367000054,0.118424389,1,0,0,0.8458,Peridotite_06,7,06,4,7,0.846,0.076900137,-0.38388274,1,0,0,1.0294,Peridotite_rect,7,1.029,1,6,0,6,0,1,,,,,,,,,,,,,
62c5fbbb796500bb5406d772,SCN,2024-06-20_16h27.23.036,LearnStrategy,2023.2.3,MacIntel,62.11180124,4,1,8,-0.546314426,0.424668562,1,0,0,2.6135,Basalt_14,2,14,6,1,2.614,0.382576226,-0.419656756,1,0,0,2.466,Pumice_rect,8,2.466,0,7,0,7,0,1,,,,,,,,,,,,,
62c5fbbb796500bb5406d772,SCN,2024-06-20_16h27.23.036,LearnStrategy,2023.2.3,MacIntel,62.11180124,4,1,9,0.534488209,0.395043267,1,0,0,0.9781,Pegmatite_13,6,13,6,8,0.978,0.174712457,-0.258238525,1,0,0,3.0706,Diorite_rect,3,3.071,0,8,0,8,0,1,,,,,,,,,,,,,
62c5fbbb796500bb5406d772,SCN,2024-06-20_16h27.23.036,LearnStrategy,2023.2.3,MacIntel,62.11180124,4,1,10,-0.39361509,-0.114712863,1,0,0,1.2624,Pumice_15,8,15,3,2,1.262,0.414769965,-0.406733037,1,0,0,2.2658,Pumice_rect,8,2.266,1,9,0,9,0,1,,,,,,,,,,,,,
62c5fbbb796500bb5406d772,SCN,2024-06-20_16h27.23.036,LearnStrategy,2023.2.3,MacIntel,62.11180124,4,1,11,0.121604818,-0.09931505,1,0,0,1.813,Andesite_11,1,11,3,5,1.813,-0.348273926,-0.271452185,1,0,0,2.5942,Andesite_rect,1,2.594,1,10,0,10,0,1,,,,,,,,,,,,,
62c5fbbb796500bb5406d772,SCN,2024-06-20_16h27.23.036,LearnStrategy,2023.2.3,MacIntel,62.11180124,4,1,12,0.526749403,0.252390634,1,0,0,1.6019,Andesite_16,1,16,5,8,1.602,0.079815719,-0.245301242,1,0,0,1.1641,Diorite_rect,3,1.164,0,11,0,11,0,1,,,,,,,,,,,,,
62c5fbbb796500bb5406d772,SCN,2024-06-20_16h27.23.036,LearnStrategy,2023.2.3,MacIntel,62.11180124,4,1,13,0.131395309,0.246663005,1,0,0,1.4129,Pumice_09,8,09,5,5,1.413,0.340231934,-0.384475279,1,0,0,1.2139,Pumice_rect,8,1.214,1,12,0,12,0,1,,,,,,,,,,,,,
62c5fbbb796500bb5406d772,SCN,2024-06-20_16h27.23.036,LearnStrategy,2023.2.3,MacIntel,62.11180124,4,1,14,-0.249886475,-0.11438463,1,0,0,1.0622,Diorite_16,3,16,3,3,1.062,0.124632704,-0.266999602,1,0,0,1.1121,Diorite_rect,3,1.112,1,13,0,13,0,1,,,,,,,,,,,,,
62c5fbbb796500bb5406d772,SCN,2024-06-20_16h27.23.036,LearnStrategy,2023.2.3,MacIntel,62.11180124,4,1,15,-0.394836742,-0.284876121,1,0,0,1.7969,Gabbro_09,4,09,2,2,1.797,-0.343066587,-0.262431821,1,0,0,8.3161,Andesite_rect,1,8.316,0,14,0,14,0,1,,,,,,,,,,,,,
62c5fbbb796500bb5406d772,SCN,2024-06-20_16h27.23.036,LearnStrategy,2023.2.3,MacIntel,62.11180124,4,1,16,-0.569977146,-0.272725061,1,0,0,0.9984,Gabbro_05,4,05,2,1,0.998,0.143256474,-0.401513853,1,0,0,1.8977,Peridotite_rect,7,1.898,0,15,0,15,0,1,,,,,,,,,,,,,
62c5fbbb796500bb5406d772,SCN,2024-06-20_16h27.23.036,LearnStrategy,2023.2.3,MacIntel,62.11180124,4,2,1,,,,,,,,2,10,,,,,,,,,,,2,2.581,1,,,,,,-0.163861627,-0.261721191,1,0,0,2.581,Basalt_rect,0,0,0,0,1,
62c5fbbb796500bb5406d772,SCN,2024-06-20_16h27.23.036,LearnStrategy,2023.2.3,MacIntel,62.11180124,4,2,2,,,,,,,,4,16,,,,,,,,,,,4,3.724,1,,,,,,0.409619954,-0.246523844,1,0,0,3.7244,Gabbro_rect,1,0,1,0,1,
62c5fbbb796500bb5406d772,SCN,2024-06-20_16h27.23.036,LearnStrategy,2023.2.3,MacIntel,62.11180124,4,2,3,,,,,,,,7,10,,,,,,,,,,,7,3.152,1,,,,,,0.134200666,-0.396212203,1,0,0,3.1523,Peridotite_rect,2,0,2,0,1,
62c5fbbb796500bb5406d772,SCN,2024-06-20_16h27.23.036,LearnStrategy,2023.2.3,MacIntel,62.11180124,4,2,4,,,,,,,,8,05,,,,,,,,,,,8,1.271,1,,,,,,0.398152398,-0.40760055,1,0,0,1.2715,Pumice_rect,3,0,3,0,1,
62c5fbbb796500bb5406d772,SCN,2024-06-20_16h27.23.036,LearnStrategy,2023.2.3,MacIntel,62.11180124,4,2,5,,,,,,,,7,16,,,,,,,,,,,1,3.449,0,,,,,,-0.350202185,-0.262207755,1,0,0,3.449,Andesite_rect,4,0,4,0,1,
62c5fbbb796500bb5406d772,SCN,2024-06-20_16h27.23.036,LearnStrategy,2023.2.3,MacIntel,62.11180124,4,2,6,,,,,,,,3,08,,,,,,,,,,,3,1.135,1,,,,,,0.10186867,-0.252203505,1,0,0,1.1348,Diorite_rect,5,0,5,0,1,
62c5fbbb796500bb5406d772,SCN,2024-06-20_16h27.23.036,LearnStrategy,2023.2.3,MacIntel,62.11180124,4,2,7,,,,,,,,4,14,,,,,,,,,,,4,4.812,1,,,,,,0.405467936,-0.247611355,1,0,0,4.8118,Gabbro_rect,6,0,6,0,1,
62c5fbbb796500bb5406d772,SCN,2024-06-20_16h27.23.036,LearnStrategy,2023.2.3,MacIntel,62.11180124,4,2,8,,,,,,,,2,09,,,,,,,,,,,2,3.153,1,,,,,,-0.049875624,-0.265434842,1,0,0,3.1527,Basalt_rect,7,0,7,0,1,
62c5fbbb796500bb5406d772,SCN,2024-06-20_16h27.23.036,LearnStrategy,2023.2.3,MacIntel,62.11180124,4,2,9,,,,,,,,6,10,,,,,,,,,,,7,1.634,0,,,,,,0.135978009,-0.402063983,1,0,0,1.634,Peridotite_rect,8,0,8,0,1,
62c5fbbb796500bb5406d772,SCN,2024-06-20_16h27.23.036,LearnStrategy,2023.2.3,MacIntel,62.11180124,4,2,10,,,,,,,,5,14,,,,,,,,,,,5,1.128,1,,,,,,-0.452453274,-0.409578089,1,0,0,1.1283,Obsidian_rect,9,0,9,0,1,
62c5fbbb796500bb5406d772,SCN,2024-06-20_16h27.23.036,LearnStrategy,2023.2.3,MacIntel,62.11180124,4,2,11,,,,,,,,1,05,,,,,,,,,,,3,4.247,0,,,,,,0.155628436,-0.24109158,1,0,0,4.2468,Diorite_rect,10,0,10,0,1,
62c5fbbb796500bb5406d772,SCN,2024-06-20_16h27.23.036,LearnStrategy,2023.2.3,MacIntel,62.11180124,4,2,12,,,,,,,,5,07,,,,,,,,,,,5,1.855,1,,,,,,-0.388521502,-0.400319734,1,0,0,1.8548,Obsidian_rect,11,0,11,0,1,
62c5fbbb796500bb5406d772,SCN,2024-06-20_16h27.23.036,LearnStrategy,2023.2.3,MacIntel,62.11180124,4,2,13,,,,,,,,1,01,,,,,,,,,,,4,2.395,0,,,,,,0.367882306,-0.247144549,1,0,0,2.3953,Gabbro_rect,12,0,12,0,1,
62c5fbbb796500bb5406d772,SCN,2024-06-20_16h27.23.036,LearnStrategy,2023.2.3,MacIntel,62.11180124,4,2,14,,,,,,,,6,06,,,,,,,,,,,6,2.75,1,,,,,,-0.140960151,-0.406681315,1,0,0,2.7498,Pegmatite_rect,13,0,13,0,1,
62c5fbbb796500bb5406d772,SCN,2024-06-20_16h27.23.036,LearnStrategy,2023.2.3,MacIntel,62.11180124,4,2,15,,,,,,,,3,02,,,,,,,,,,,3,1.099,1,,,,,,0.145483398,-0.258099365,1,0,0,1.0993,Diorite_rect,14,0,14,0,1,
62c5fbbb796500bb5406d772,SCN,2024-06-20_16h27.23.036,LearnStrategy,2023.2.3,MacIntel,62.11180124,4,2,16,,,,,,,,8,08,,,,,,,,,,,8,1.177,1,,,,,,0.40685583,-0.401728335,1,0,0,1.1773,Pumice_rect,15,0,15,0,1,
62c5fbbb796500bb5406d772,SCN,2024-06-20_16h27.23.036,LearnStrategy,2023.2.3,MacIntel,62.11180124,5,1,1,-0.210987504,-0.394363878,1,0,0,2.8003,Andesite_10,1,10,1,3,2.8,-0.379805908,-0.235031331,1,0,0,0.9248,Andesite_rect,1,0.925,1,0,0,0,0,1,,,,,,,,,,,,,
62c5fbbb796500bb5406d772,SCN,2024-06-20_16h27.23.036,LearnStrategy,2023.2.3,MacIntel,62.11180124,5,1,2,0.354083478,-0.211179064,1,0,0,1.1928,Basalt_02,2,02,2,7,1.193,-0.103858869,-0.258564272,1,0,0,1.0236,Basalt_rect,2,1.024,1,1,0,1,0,1,,,,,,,,,,,,,
62c5fbbb796500bb5406d772,SCN,2024-06-20_16h27.23.036,LearnStrategy,2023.2.3,MacIntel,62.11180124,5,1,3,0.196862341,0.081067075,1,0,0,0.758,Basalt_08,2,08,4,6,0.758,-0.156141357,-0.256974691,1,0,0,0.7652,Basalt_rect,2,0.765,1,2,0,2,0,1,,,,,,,,,,,,,
62c5fbbb796500bb5406d772,SCN,2024-06-20_16h27.23.036,LearnStrategy,2023.2.3,MacIntel,62.11180124,5,1,4,-0.051837927,0.234940186,1,0,0,0.6803,Andesite_09,1,09,5,4,0.68,-0.418356481,-0.244452989,1,0,0,3.0506,Andesite_rect,1,3.051,1,3,0,3,0,1,,,,,,,,,,,,,
62c5fbbb796500bb5406d772,SCN,2024-06-20_16h27.23.036,LearnStrategy,2023.2.3,MacIntel,62.11180124,5,1,5,-0.230320502,0.283537688,1,0,0,1.0329,Diorite_14,3,14,5,3,1.033,0.120946181,-0.243245081,1,0,0,0.8756,Diorite_rect,3,0.876,1,4,0,4,0,1,,,,,,,,,,,,,
62c5fbbb796500bb5406d772,SCN,2024-06-20_16h27.23.036,LearnStrategy,2023.2.3,MacIntel,62.11180124,5,1,6,0.533524577,-0.097051459,1,0,0,0.9472,Obsidian_05,5,05,3,8,0.947,-0.398512731,-0.406259042,1,0,0,1.4816,Obsidian_rect,5,1.482,1,5,0,5,0,1,,,,,,,,,,,,,
62c5fbbb796500bb5406d772,SCN,2024-06-20_16h27.23.036,LearnStrategy,2023.2.3,MacIntel,62.11180124,5,1,7,0.50552228,0.406556837,1,0,0,0.9429,Pegmatite_13,6,13,6,8,0.943,0.402707791,-0.234217032,1,0,0,1.0477,Gabbro_rect,4,1.048,0,6,0,6,0,1,,,,,,,,,,,,,
62c5fbbb796500bb5406d772,SCN,2024-06-20_16h27.23.036,LearnStrategy,2023.2.3,MacIntel,62.11180124,5,1,8,0.382042914,0.39289266,1,0,0,1.1951,Andesite_02,1,02,6,7,1.195,0.41831977,-0.400456453,1,0,0,1.2197,Pumice_rect,8,1.22,0,7,0,7,0,1,,,,,,,,,,,,,
62c5fbbb796500bb5406d772,SCN,2024-06-20_16h27.23.036,LearnStrategy,2023.2.3,MacIntel,62.11180124,5,1,9,0.036501465,0.279778917,1,0,0,1.0233,Pumice_09,8,09,5,5,1.023,0.420200467,-0.403814742,1,0,0,1.2856,Pumice_rect,8,1.286,1,8,0,8,0,1,,,,,,,,,,,,,
62c5fbbb796500bb5406d772,SCN,2024-06-20_16h27.23.036,LearnStrategy,2023.2.3,MacIntel,62.11180124,5,1,10,0.199157444,-0.407477033,1,0,0,0.9983,Pumice_02,8,02,1,6,0.998,0.379082574,-0.411294126,1,0,0,1.9582,Pumice_rect,8,1.958,1,9,0,9,0,1,,,,,,,,,,,,,
62c5fbbb796500bb5406d772,SCN,2024-06-20_16h27.23.036,LearnStrategy,2023.2.3,MacIntel,62.11180124,5,1,11,-0.347796314,-0.405747794,1,0,0,1.3446,Peridotite_04,7,04,1,2,1.345,-0.141730279,-0.389911205,1,0,0,2.1969,Pegmatite_rect,6,2.197,0,10,0,10,0,1,,,,,,,,,,,,,
62c5fbbb796500bb5406d772,SCN,2024-06-20_16h27.23.036,LearnStrategy,2023.2.3,MacIntel,62.11180124,5,1,12,-0.240192464,-0.106173367,1,0,0,1.0064,Diorite_16,3,16,3,3,1.006,0.162525318,-0.268966291,1,0,0,1.0197,Diorite_rect,3,1.02,1,11,0,11,0,1,,,,,,,,,,,,,
62c5fbbb796500bb5406d772,SCN,2024-06-20_16h27.23.036,LearnStrategy,2023.2.3,MacIntel,62.11180124,5,1,13,-0.422229207,-0.128717855,1,0,0,0.6651,Pumice_15,8,15,3,2,0.665,0.417087945,-0.389766168,1,0,0,3.474,Pumice_rect,8,3.474,1,12,0,12,0,1,,,,,,,,,,,,,
62c5fbbb796500bb5406d772,SCN,2024-06-20_16h27.23.036,LearnStrategy,2023.2.3,MacIntel,62.11180124,5,1,14,-0.544108367,-0.092767877,1,0,0,0.9988,Peridotite_13,7,13,3,1,0.999,0.120797978,-0.405538014,1,0,0,0.9464,Peridotite_rect,7,0.946,1,13,0,13,0,1,,,,,,,,,,,,,
62c5fbbb796500bb5406d772,SCN,2024-06-20_16h27.23.036,LearnStrategy,2023.2.3,MacIntel,62.11180124,5,1,15,-0.247250886,0.141398044,1,0,0,0.7499,Pumice_16,8,16,4,3,0.75,0.391166721,-0.386430845,1,0,0,1.2466,Pumice_rect,8,1.247,1,14,0,14,0,1,,,,,,,,,,,,,
62c5fbbb796500bb5406d772,SCN,2024-06-20_16h27.23.036,LearnStrategy,2023.2.3,MacIntel,62.11180124,5,1,16,0.218567618,0.062215079,1,0,0,0.9491,Basalt_08,2,08,4,6,0.949,-0.113321533,-0.268430357,1,0,0,1.1331,Basalt_rect,2,1.133,1,15,0,15,0,1,,,,,,,,,,,,,
62c5fbbb796500bb5406d772,SCN,2024-06-20_16h27.23.036,LearnStrategy,2023.2.3,MacIntel,62.11180124,5,2,1,,,,,,,,5,04,,,,,,,,,,,5,1.278,1,,,,,,-0.378519061,-0.396289786,1,0,0,1.2776,Obsidian_rect,0,0,0,0,1,
62c5fbbb796500bb5406d772,SCN,2024-06-20_16h27.23.036,LearnStrategy,2023.2.3,MacIntel,62.11180124,5,2,2,,,,,,,,3,11,,,,,,,,,,,3,1.347,1,,,,,,0.145170085,-0.245902371,1,0,0,1.3475,Diorite_rect,1,0,1,0,1,
62c5fbbb796500bb5406d772,SCN,2024-06-20_16h27.23.036,LearnStrategy,2023.2.3,MacIntel,62.11180124,5,2,3,,,,,,,,8,13,,,,,,,,,,,1,1.759,0,,,,,,-0.346819571,-0.255831344,1,0,0,1.7592,Andesite_rect,2,0,2,0,1,
62c5fbbb796500bb5406d772,SCN,2024-06-20_16h27.23.036,LearnStrategy,2023.2.3,MacIntel,62.11180124,5,2,4,,,,,,,,1,06,,,,,,,,,,,4,5.596,0,,,,,,0.424274631,-0.266398835,1,0,0,5.5956,Gabbro_rect,3,0,3,0,1,
62c5fbbb796500bb5406d772,SCN,2024-06-20_16h27.23.036,LearnStrategy,2023.2.3,MacIntel,62.11180124,5,2,5,,,,,,,,2,04,,,,,,,,,,,2,1.203,1,,,,,,-0.117958261,-0.256592746,1,0,0,1.2028,Basalt_rect,4,0,4,0,1,
62c5fbbb796500bb5406d772,SCN,2024-06-20_16h27.23.036,LearnStrategy,2023.2.3,MacIntel,62.11180124,5,2,6,,,,,,,,2,11,,,,,,,,,,,8,2.648,0,,,,,,0.391213469,-0.402272135,1,0,0,2.6482,Pumice_rect,5,0,5,0,1,
62c5fbbb796500bb5406d772,SCN,2024-06-20_16h27.23.036,LearnStrategy,2023.2.3,MacIntel,62.11180124,5,2,7,,,,,,,,6,16,,,,,,,,,,,6,1.348,1,,,,,,-0.084050429,-0.417693052,1,0,0,1.3482,Pegmatite_rect,6,0,6,0,1,
62c5fbbb796500bb5406d772,SCN,2024-06-20_16h27.23.036,LearnStrategy,2023.2.3,MacIntel,62.11180124,5,2,8,,,,,,,,7,05,,,,,,,,,,,7,1.562,1,,,,,,0.100952329,-0.389343895,1,0,0,1.5617,Peridotite_rect,7,0,7,0,1,
62c5fbbb796500bb5406d772,SCN,2024-06-20_16h27.23.036,LearnStrategy,2023.2.3,MacIntel,62.11180124,5,2,9,,,,,,,,7,12,,,,,,,,,,,7,0.827,1,,,,,,0.100952329,-0.389343895,1,0,0,0.8269,Peridotite_rect,8,0,8,0,1,
62c5fbbb796500bb5406d772,SCN,2024-06-20_16h27.23.036,LearnStrategy,2023.2.3,MacIntel,62.11180124,5,2,10,,,,,,,,3,06,,,,,,,,,,,3,2.695,1,,,,,,0.106626881,-0.261558341,1,0,0,2.6954,Diorite_rect,9,0,9,0,1,
62c5fbbb796500bb5406d772,SCN,2024-06-20_16h27.23.036,LearnStrategy,2023.2.3,MacIntel,62.11180124,5,2,11,,,,,,,,6,07,,,,,,,,,,,6,6.211,1,,,,,,-0.165585259,-0.413720522,1,0,0,6.2111,Pegmatite_rect,10,0,10,0,1,
62c5fbbb796500bb5406d772,SCN,2024-06-20_16h27.23.036,LearnStrategy,2023.2.3,MacIntel,62.11180124,5,2,12,,,,,,,,1,14,,,,,,,,,,,1,3.035,1,,,,,,-0.363918547,-0.260036259,1,0,0,3.0352,Andesite_rect,11,0,11,0,1,
62c5fbbb796500bb5406d772,SCN,2024-06-20_16h27.23.036,LearnStrategy,2023.2.3,MacIntel,62.11180124,5,2,13,,,,,,,,4,03,,,,,,,,,,,3,1.232,0,,,,,,0.142250072,-0.250023329,1,0,0,1.2316,Diorite_rect,12,0,12,0,1,
62c5fbbb796500bb5406d772,SCN,2024-06-20_16h27.23.036,LearnStrategy,2023.2.3,MacIntel,62.11180124,5,2,14,,,,,,,,5,10,,,,,,,,,,,5,1.066,1,,,,,,-0.370071524,-0.404676378,1,0,0,1.066,Obsidian_rect,13,0,13,0,1,
62c5fbbb796500bb5406d772,SCN,2024-06-20_16h27.23.036,LearnStrategy,2023.2.3,MacIntel,62.11180124,5,2,15,,,,,,,,4,01,,,,,,,,,,,3,3.463,0,,,,,,0.108695927,-0.257282579,1,0,0,3.4626,Diorite_rect,14,0,14,0,1,
62c5fbbb796500bb5406d772,SCN,2024-06-20_16h27.23.036,LearnStrategy,2023.2.3,MacIntel,62.11180124,5,2,16,,,,,,,,8,04,,,,,,,,,,,8,1.949,1,,,,,,0.429016113,-0.395418113,1,0,0,1.9486,Pumice_rect,15,0,15,0,1,
62c5fbbb796500bb5406d772,SCN,2024-06-20_16h27.23.036,LearnStrategy,2023.2.3,MacIntel,62.11180124,6,1,1,0.557227919,0.097546522,1,0,0,1.7176,Diorite_13,3,13,4,8,1.718,0.392666829,-0.265824291,1,0,0,1.2284,Gabbro_rect,4,1.228,0,0,0,0,0,1,,,,,,,,,,,,,
62c5fbbb796500bb5406d772,SCN,2024-06-20_16h27.23.036,LearnStrategy,2023.2.3,MacIntel,62.11180124,6,1,2,0.253496998,-0.13382912,1,0,0,0.8788,Diorite_07,3,07,3,6,0.879,0.135786314,-0.25713831,1,0,0,1.1864,Diorite_rect,3,1.186,1,1,0,1,0,1,,,,,,,,,,,,,
62c5fbbb796500bb5406d772,SCN,2024-06-20_16h27.23.036,LearnStrategy,2023.2.3,MacIntel,62.11180124,6,1,3,-0.245624638,0.405182665,1,0,0,0.8166,Peridotite_07,7,07,6,3,0.817,-0.373324562,-0.239159252,1,0,0,1.0144,Andesite_rect,1,1.014,0,2,0,2,0,1,,,,,,,,,,,,,
62c5fbbb796500bb5406d772,SCN,2024-06-20_16h27.23.036,LearnStrategy,2023.2.3,MacIntel,62.11180124,6,1,4,-0.268443649,0.429095493,1,0,0,0.995,Peridotite_07,7,07,6,3,0.995,0.123763835,-0.388536513,1,0,0,0.9321,Peridotite_rect,7,0.932,1,3,0,3,0,1,,,,,,,,,,,,,
62c5fbbb796500bb5406d772,SCN,2024-06-20_16h27.23.036,LearnStrategy,2023.2.3,MacIntel,62.11180124,6,1,5,-0.086129964,0.25239077,1,0,0,1.2157,Andesite_09,1,09,5,4,1.216,-0.12416409,-0.248376329,1,0,0,0.7332,Basalt_rect,2,0.733,0,4,0,4,0,1,,,,,,,,,,,,,
62c5fbbb796500bb5406d772,SCN,2024-06-20_16h27.23.036,LearnStrategy,2023.2.3,MacIntel,62.11180124,6,1,6,-0.274810565,-0.240664741,1,0,0,1.079,Basalt_05,2,05,2,3,1.079,-0.176530355,-0.240744629,1,0,0,0.6153,Basalt_rect,2,0.615,1,5,0,5,0,1,,,,,,,,,,,,,
62c5fbbb796500bb5406d772,SCN,2024-06-20_16h27.23.036,LearnStrategy,2023.2.3,MacIntel,62.11180124,6,1,7,0.074008608,-0.049738317,1,0,0,0.9167,Andesite_11,1,11,3,5,0.917,-0.410156069,-0.251697184,1,0,0,0.6793,Andesite_rect,1,0.679,1,6,0,6,0,1,,,,,,,,,,,,,
62c5fbbb796500bb5406d772,SCN,2024-06-20_16h27.23.036,LearnStrategy,2023.2.3,MacIntel,62.11180124,6,1,8,0.373819716,-0.106276313,1,0,0,0.9835,Gabbro_08,4,08,3,7,0.983,0.356988751,-0.23930325,1,0,0,1.0412,Gabbro_rect,4,1.041,1,7,0,7,0,1,,,,,,,,,,,,,
62c5fbbb796500bb5406d772,SCN,2024-06-20_16h27.23.036,LearnStrategy,2023.2.3,MacIntel,62.11180124,6,1,9,0.370725731,0.089725206,1,0,0,1.3501,Peridotite_06,7,06,4,7,1.35,-0.153751989,-0.410038972,1,0,0,2.3378,Pegmatite_rect,6,2.338,0,8,0,8,0,1,,,,,,,,,,,,,
62c5fbbb796500bb5406d772,SCN,2024-06-20_16h27.23.036,LearnStrategy,2023.2.3,MacIntel,62.11180124,6,1,10,-0.224962972,-0.091442464,1,0,0,0.7666,Diorite_16,3,16,3,3,0.767,0.123414352,-0.244501817,1,0,0,1.7921,Diorite_rect,3,1.792,1,9,0,9,0,1,,,,,,,,,,,,,
62c5fbbb796500bb5406d772,SCN,2024-06-20_16h27.23.036,LearnStrategy,2023.2.3,MacIntel,62.11180124,6,1,11,-0.096579861,0.098775047,1,0,0,1.5991,Diorite_15,3,15,4,4,1.599,-0.417621166,-0.24432468,1,0,0,1.7314,Andesite_rect,1,1.731,0,10,0,10,0,1,,,,,,,,,,,,,
62c5fbbb796500bb5406d772,SCN,2024-06-20_16h27.23.036,LearnStrategy,2023.2.3,MacIntel,62.11180124,6,1,12,-0.566317952,0.100355767,1,0,0,1.0926,Pegmatite_09,6,09,4,1,1.093,-0.109392361,-0.421701027,1,0,0,1.5618,Pegmatite_rect,6,1.562,1,11,0,11,0,1,,,,,,,,,,,,,
62c5fbbb796500bb5406d772,SCN,2024-06-20_16h27.23.036,LearnStrategy,2023.2.3,MacIntel,62.11180124,6,1,13,-0.593457076,-0.436090676,1,0,0,1.0146,Peridotite_08,7,08,1,1,1.015,0.116974736,-0.402714572,1,0,0,3.6426,Peridotite_rect,7,3.643,1,12,0,12,0,1,,,,,,,,,,,,,
62c5fbbb796500bb5406d772,SCN,2024-06-20_16h27.23.036,LearnStrategy,2023.2.3,MacIntel,62.11180124,6,1,14,0.098324291,-0.081313612,1,0,0,1.3323,Andesite_11,1,11,3,5,1.332,0.440908474,-0.267289135,1,0,0,1.8742,Gabbro_rect,4,1.874,0,13,0,13,0,1,,,,,,,,,,,,,
62c5fbbb796500bb5406d772,SCN,2024-06-20_16h27.23.036,LearnStrategy,2023.2.3,MacIntel,62.11180124,6,1,15,0.05635923,-0.088455313,1,0,0,0.8469,Andesite_11,1,11,3,5,0.847,-0.430140449,-0.254126519,1,0,0,0.5827,Andesite_rect,1,0.583,1,14,0,14,0,1,,,,,,,,,,,,,
62c5fbbb796500bb5406d772,SCN,2024-06-20_16h27.23.036,LearnStrategy,2023.2.3,MacIntel,62.11180124,6,1,16,0.087077004,-0.142613254,1,0,0,0.5816,Andesite_11,1,11,3,5,0.582,-0.431728177,-0.233971354,1,0,0,0.6148,Andesite_rect,1,0.615,1,15,0,15,0,1,,,,,,,,,,,,,
62c5fbbb796500bb5406d772,SCN,2024-06-20_16h27.23.036,LearnStrategy,2023.2.3,MacIntel,62.11180124,6,2,1,,,,,,,,8,06,,,,,,,,,,,8,1.531,1,,,,,,0.370753852,-0.403772063,1,0,0,1.5307,Pumice_rect,0,0,0,0,1,
62c5fbbb796500bb5406d772,SCN,2024-06-20_16h27.23.036,LearnStrategy,2023.2.3,MacIntel,62.11180124,6,2,2,,,,,,,,2,16,,,,,,,,,,,4,6.244,0,,,,,,0.414316768,-0.257880995,1,0,0,6.2439,Gabbro_rect,1,0,1,0,1,
62c5fbbb796500bb5406d772,SCN,2024-06-20_16h27.23.036,LearnStrategy,2023.2.3,MacIntel,62.11180124,6,2,3,,,,,,,,6,11,,,,,,,,,,,5,5.45,0,,,,,,-0.33251293,-0.397991898,1,0,0,5.4504,Obsidian_rect,2,0,2,0,1,
62c5fbbb796500bb5406d772,SCN,2024-06-20_16h27.23.036,LearnStrategy,2023.2.3,MacIntel,62.11180124,6,2,4,,,,,,,,5,16,,,,,,,,,,,5,0.78,1,,,,,,-0.33251293,-0.397991898,1,0,0,0.7805,Obsidian_rect,3,0,3,0,1,
62c5fbbb796500bb5406d772,SCN,2024-06-20_16h27.23.036,LearnStrategy,2023.2.3,MacIntel,62.11180124,6,2,5,,,,,,,,7,02,,,,,,,,,,,7,1.28,1,,,,,,0.146528049,-0.385385742,1,0,0,1.2801,Peridotite_rect,4,0,4,0,1,
62c5fbbb796500bb5406d772,SCN,2024-06-20_16h27.23.036,LearnStrategy,2023.2.3,MacIntel,62.11180124,6,2,6,,,,,,,,1,03,,,,,,,,,,,1,1.499,1,,,,,,-0.348739014,-0.252865804,1,0,0,1.4987,Andesite_rect,5,0,5,0,1,
62c5fbbb796500bb5406d772,SCN,2024-06-20_16h27.23.036,LearnStrategy,2023.2.3,MacIntel,62.11180124,6,2,7,,,,,,,,1,07,,,,,,,,,,,3,1.144,0,,,,,,0.061940375,-0.253825548,1,0,0,1.144,Diorite_rect,6,0,6,0,1,
62c5fbbb796500bb5406d772,SCN,2024-06-20_16h27.23.036,LearnStrategy,2023.2.3,MacIntel,62.11180124,6,2,8,,,,,,,,4,13,,,,,,,,,,,4,3.265,1,,,,,,0.45888916,-0.246427816,1,0,0,3.2648,Gabbro_rect,7,0,7,0,1,
62c5fbbb796500bb5406d772,SCN,2024-06-20_16h27.23.036,LearnStrategy,2023.2.3,MacIntel,62.11180124,6,2,9,,,,,,,,6,05,,,,,,,,,,,6,3.861,1,,,,,,-0.130201642,-0.40517343,1,0,0,3.8614,Pegmatite_rect,8,0,8,0,1,
62c5fbbb796500bb5406d772,SCN,2024-06-20_16h27.23.036,LearnStrategy,2023.2.3,MacIntel,62.11180124,6,2,10,,,,,,,,3,09,,,,,,,,,,,3,1.12,1,,,,,,0.147542499,-0.230885688,1,0,0,1.1195,Diorite_rect,9,0,9,0,1,
62c5fbbb796500bb5406d772,SCN,2024-06-20_16h27.23.036,LearnStrategy,2023.2.3,MacIntel,62.11180124,6,2,11,,,,,,,,3,10,,,,,,,,,,,1,3.346,0,,,,,,-0.421512225,-0.237871772,1,0,0,3.3461,Andesite_rect,10,0,10,0,1,
62c5fbbb796500bb5406d772,SCN,2024-06-20_16h27.23.036,LearnStrategy,2023.2.3,MacIntel,62.11180124,6,2,12,,,,,,,,4,10,,,,,,,,,,,2,2.13,0,,,,,,-0.141624213,-0.257369656,1,0,0,2.1302,Basalt_rect,11,0,11,0,1,
62c5fbbb796500bb5406d772,SCN,2024-06-20_16h27.23.036,LearnStrategy,2023.2.3,MacIntel,62.11180124,6,2,13,,,,,,,,2,12,,,,,,,,,,,8,1.884,0,,,,,,0.383573134,-0.408407932,1,0,0,1.884,Pumice_rect,12,0,12,0,1,
62c5fbbb796500bb5406d772,SCN,2024-06-20_16h27.23.036,LearnStrategy,2023.2.3,MacIntel,62.11180124,6,2,14,,,,,,,,5,08,,,,,,,,,,,5,2.032,1,,,,,,-0.385315665,-0.403347078,1,0,0,2.032,Obsidian_rect,13,0,13,0,1,
62c5fbbb796500bb5406d772,SCN,2024-06-20_16h27.23.036,LearnStrategy,2023.2.3,MacIntel,62.11180124,6,2,15,,,,,,,,7,15,,,,,,,,,,,7,1.194,1,,,,,,0.116137695,-0.406660156,1,0,0,1.1943,Peridotite_rect,14,0,14,0,1,
62c5fbbb796500bb5406d772,SCN,2024-06-20_16h27.23.036,LearnStrategy,2023.2.3,MacIntel,62.11180124,6,2,16,,,,,,,,8,10,,,,,,,,,,,8,2.263,1,,,,,,0.368779839,-0.41168014,1,0,0,2.2633,Pumice_rect,15,0,15,0,1,
62c5fbbb796500bb5406d772,SCN,2024-06-20_16h27.23.036,LearnStrategy,2023.2.3,MacIntel,62.11180124,7,1,1,-0.042563205,-0.08524943,1,0,0,0.8984,Obsidian_09,5,09,3,4,0.898,-0.395076497,-0.382222222,1,0,0,1.3626,Obsidian_rect,5,1.363,1,0,0,0,0,1,,,,,,,,,,,,,
62c5fbbb796500bb5406d772,SCN,2024-06-20_16h27.23.036,LearnStrategy,2023.2.3,MacIntel,62.11180124,7,1,2,-0.40933336,-0.122899306,1,0,0,0.9167,Pumice_15,8,15,3,2,0.917,0.403629015,-0.413831199,1,0,0,1.0615,Pumice_rect,8,1.062,1,1,0,1,0,1,,,,,,,,,,,,,
62c5fbbb796500bb5406d772,SCN,2024-06-20_16h27.23.036,LearnStrategy,2023.2.3,MacIntel,62.11180124,7,1,3,0.277092737,0.13019043,1,0,0,0.5673,Basalt_08,2,08,4,6,0.567,-0.123715142,-0.257913547,1,0,0,0.7289,Basalt_rect,2,0.729,1,2,0,2,0,1,,,,,,,,,,,,,
62c5fbbb796500bb5406d772,SCN,2024-06-20_16h27.23.036,LearnStrategy,2023.2.3,MacIntel,62.11180124,7,1,4,0.116666848,0.296547626,1,0,0,0.7291,Pumice_09,8,09,5,5,0.729,0.346721463,-0.396535012,1,0,0,0.933,Pumice_rect,8,0.933,1,3,0,3,0,1,,,,,,,,,,,,,
62c5fbbb796500bb5406d772,SCN,2024-06-20_16h27.23.036,LearnStrategy,2023.2.3,MacIntel,62.11180124,7,1,5,-0.227441271,0.231301134,1,0,0,0.7951,Diorite_14,3,14,5,3,0.795,0.128055556,-0.246926676,1,0,0,1.0334,Diorite_rect,3,1.033,1,4,0,4,0,1,,,,,,,,,,,,,
62c5fbbb796500bb5406d772,SCN,2024-06-20_16h27.23.036,LearnStrategy,2023.2.3,MacIntel,62.11180124,7,1,6,-0.077973226,-0.261024486,1,0,0,1.052,Peridotite_14,7,14,2,4,1.052,-0.401122097,-0.266622541,1,0,0,2.0577,Andesite_rect,1,2.058,0,5,0,5,0,1,,,,,,,,,,,,,
62c5fbbb796500bb5406d772,SCN,2024-06-20_16h27.23.036,LearnStrategy,2023.2.3,MacIntel,62.11180124,7,1,7,-0.094018645,-0.269283131,1,0,0,0.7228,Peridotite_14,7,14,2,4,0.723,0.148096969,-0.405949797,1,0,0,1.07,Peridotite_rect,7,1.07,1,6,0,6,0,1,,,,,,,,,,,,,
62c5fbbb796500bb5406d772,SCN,2024-06-20_16h27.23.036,LearnStrategy,2023.2.3,MacIntel,62.11180124,7,1,8,-0.387236961,-0.070827094,1,0,0,0.7607,Pumice_15,8,15,3,2,0.761,0.416570909,-0.421201353,1,0,0,0.9829,Pumice_rect,8,0.983,1,7,0,7,0,1,,,,,,,,,,,,,
62c5fbbb796500bb5406d772,SCN,2024-06-20_16h27.23.036,LearnStrategy,2023.2.3,MacIntel,62.11180124,7,1,9,0.425665419,0.101649486,1,0,0,0.9991,Peridotite_06,7,06,4,7,0.999,0.065395146,-0.395858652,1,0,0,1.1747,Peridotite_rect,7,1.175,1,8,0,8,0,1,,,,,,,,,,,,,
62c5fbbb796500bb5406d772,SCN,2024-06-20_16h27.23.036,LearnStrategy,2023.2.3,MacIntel,62.11180124,7,1,10,-0.082321642,0.087736364,1,0,0,0.6947,Diorite_15,3,15,4,4,0.695,-0.076362169,-0.383172201,1,0,0,1.0345,Pegmatite_rect,6,1.034,0,9,0,9,0,1,,,,,,,,,,,,,
62c5fbbb796500bb5406d772,SCN,2024-06-20_16h27.23.036,LearnStrategy,2023.2.3,MacIntel,62.11180124,7,1,11,-0.395410201,0.105017949,1,0,0,0.849,Pegmatite_15,6,15,4,2,0.849,-0.405865433,-0.415052897,1,0,0,1.4293,Obsidian_rect,5,1.429,0,10,0,10,0,1,,,,,,,,,,,,,
62c5fbbb796500bb5406d772,SCN,2024-06-20_16h27.23.036,LearnStrategy,2023.2.3,MacIntel,62.11180124,7,1,12,-0.411873237,0.110191876,1,0,0,1.2656,Pegmatite_15,6,15,4,2,1.266,-0.114521304,-0.391538267,1,0,0,0.6056,Pegmatite_rect,6,0.606,1,11,0,11,0,1,,,,,,,,,,,,,
62c5fbbb796500bb5406d772,SCN,2024-06-20_16h27.23.036,LearnStrategy,2023.2.3,MacIntel,62.11180124,7,1,13,-0.561292928,-0.425966706,1,0,0,1.0223,Peridotite_08,7,08,1,1,1.022,0.155091327,-0.261253436,1,0,0,6.0688,Diorite_rect,3,6.069,0,12,0,12,0,1,,,,,,,,,,,,,
62c5fbbb796500bb5406d772,SCN,2024-06-20_16h27.23.036,LearnStrategy,2023.2.3,MacIntel,62.11180124,7,1,14,-0.586813513,-0.426649577,1,0,0,1.4641,Peridotite_08,7,08,1,1,1.464,0.175421821,-0.411852123,1,0,0,1.0171,Peridotite_rect,7,1.017,1,13,0,13,0,1,,,,,,,,,,,,,
62c5fbbb796500bb5406d772,SCN,2024-06-20_16h27.23.036,LearnStrategy,2023.2.3,MacIntel,62.11180124,7,1,15,0.249979022,-0.101334635,1,0,0,1.2318,Diorite_07,3,07,3,6,1.232,0.139292173,-0.236973877,1,0,0,0.531,Diorite_rect,3,0.531,1,14,0,14,0,1,,,,,,,,,,,,,
62c5fbbb796500bb5406d772,SCN,2024-06-20_16h27.23.036,LearnStrategy,2023.2.3,MacIntel,62.11180124,7,1,16,-0.549442636,-0.246573215,1,0,0,1.6008,Gabbro_05,4,05,2,1,1.601,0.133372396,-0.412549099,1,0,0,4.5877,Peridotite_rect,7,4.588,0,15,0,15,0,1,,,,,,,,,,,,,
62c5fbbb796500bb5406d772,SCN,2024-06-20_16h27.23.036,LearnStrategy,2023.2.3,MacIntel,62.11180124,7,2,1,,,,,,,,1,14,,,,,,,,,,,1,2.079,1,,,,,,-0.427615899,-0.254348416,1,0,0,2.0792,Andesite_rect,0,0,0,0,1,
62c5fbbb796500bb5406d772,SCN,2024-06-20_16h27.23.036,LearnStrategy,2023.2.3,MacIntel,62.11180124,7,2,2,,,,,,,,2,12,,,,,,,,,,,4,13.465,0,,,,,,0.377998951,-0.242557418,1,0,0,13.4648,Gabbro_rect,1,0,1,0,1,
62c5fbbb796500bb5406d772,SCN,2024-06-20_16h27.23.036,LearnStrategy,2023.2.3,MacIntel,62.11180124,7,2,3,,,,,,,,5,04,,,,,,,,,,,5,1.315,1,,,,,,-0.385681243,-0.390213397,1,0,0,1.3151,Obsidian_rect,2,0,2,0,1,
62c5fbbb796500bb5406d772,SCN,2024-06-20_16h27.23.036,LearnStrategy,2023.2.3,MacIntel,62.11180124,7,2,4,,,,,,,,5,08,,,,,,,,,,,5,0.61,1,,,,,,-0.385681243,-0.390213397,1,0,0,0.61,Obsidian_rect,3,0,3,0,1,
62c5fbbb796500bb5406d772,SCN,2024-06-20_16h27.23.036,LearnStrategy,2023.2.3,MacIntel,62.11180124,7,2,5,,,,,,,,8,05,,,,,,,,,,,8,1.777,1,,,,,,0.32307156,-0.411056677,1,0,0,1.7767,Pumice_rect,4,0,4,0,1,
62c5fbbb796500bb5406d772,SCN,2024-06-20_16h27.23.036,LearnStrategy,2023.2.3,MacIntel,62.11180124,7,2,6,,,,,,,,7,16,,,,,,,,,,,7,2.776,1,,,,,,0.158728299,-0.40448206,1,0,0,2.7757,Peridotite_rect,5,0,5,0,1,
62c5fbbb796500bb5406d772,SCN,2024-06-20_16h27.23.036,LearnStrategy,2023.2.3,MacIntel,62.11180124,7,2,7,,,,,,,,1,06,,,,,,,,,,,1,1.184,1,,,,,,-0.355009087,-0.257579346,1,0,0,1.1841,Andesite_rect,6,0,6,0,1,
62c5fbbb796500bb5406d772,SCN,2024-06-20_16h27.23.036,LearnStrategy,2023.2.3,MacIntel,62.11180124,7,2,8,,,,,,,,3,10,,,,,,,,,,,3,2.059,1,,,,,,0.13266692,-0.24930976,1,0,0,2.0593,Diorite_rect,7,0,7,0,1,
62c5fbbb796500bb5406d772,SCN,2024-06-20_16h27.23.036,LearnStrategy,2023.2.3,MacIntel,62.11180124,7,2,9,,,,,,,,6,16,,,,,,,,,,,6,1.145,1,,,,,,-0.09669203,-0.407971644,1,0,0,1.1448,Pegmatite_rect,8,0,8,0,1,
62c5fbbb796500bb5406d772,SCN,2024-06-20_16h27.23.036,LearnStrategy,2023.2.3,MacIntel,62.11180124,7,2,10,,,,,,,,8,06,,,,,,,,,,,8,1.166,1,,,,,,0.451532118,-0.395189616,1,0,0,1.166,Pumice_rect,9,0,9,0,1,
62c5fbbb796500bb5406d772,SCN,2024-06-20_16h27.23.036,LearnStrategy,2023.2.3,MacIntel,62.11180124,7,2,11,,,,,,,,6,11,,,,,,,,,,,5,1.65,0,,,,,,-0.404054,-0.406674443,1,0,0,1.6504,Obsidian_rect,10,0,10,0,1,
62c5fbbb796500bb5406d772,SCN,2024-06-20_16h27.23.036,LearnStrategy,2023.2.3,MacIntel,62.11180124,7,2,12,,,,,,,,3,11,,,,,,,,,,,3,1.553,1,,,,,,0.072434715,-0.254443766,1,0,0,1.5527,Diorite_rect,11,0,11,0,1,
62c5fbbb796500bb5406d772,SCN,2024-06-20_16h27.23.036,LearnStrategy,2023.2.3,MacIntel,62.11180124,7,2,13,,,,,,,,2,04,,,,,,,,,,,2,1.082,1,,,,,,-0.13676039,-0.264556026,1,0,0,1.0817,Basalt_rect,12,0,12,0,1,
62c5fbbb796500bb5406d772,SCN,2024-06-20_16h27.23.036,LearnStrategy,2023.2.3,MacIntel,62.11180124,7,2,14,,,,,,,,7,12,,,,,,,,,,,7,2.095,1,,,,,,0.127096083,-0.387429109,1,0,0,2.0955,Peridotite_rect,13,0,13,0,1,
62c5fbbb796500bb5406d772,SCN,2024-06-20_16h27.23.036,LearnStrategy,2023.2.3,MacIntel,62.11180124,7,2,15,,,,,,,,4,01,,,,,,,,,,,4,3.055,1,,,,,,0.436867676,-0.241412941,1,0,0,3.0549,Gabbro_rect,14,0,14,0,1,
62c5fbbb796500bb5406d772,SCN,2024-06-20_16h27.23.036,LearnStrategy,2023.2.3,MacIntel,62.11180124,7,2,16,,,,,,,,4,03,,,,,,,,,,,3,1.582,0,,,,,,0.124296152,-0.245758916,1,0,0,1.5818,Diorite_rect,15,0,15,0,1,
62c5fbbb796500bb5406d772,SCN,2024-06-20_16h27.23.036,LearnStrategy,2023.2.3,MacIntel,62.11180124,8,1,1,0.235070801,-0.401380389,1,0,0,1.4826,Pumice_02,8,02,1,6,1.483,0.434523474,-0.416283456,1,0,0,1.7794,Pumice_rect,8,1.779,1,0,0,0,0,1,,,,,,,,,,,,,
62c5fbbb796500bb5406d772,SCN,2024-06-20_16h27.23.036,LearnStrategy,2023.2.3,MacIntel,62.11180124,8,1,2,0.572743417,-0.443297978,1,0,0,0.882,Pegmatite_08,6,08,1,8,0.882,-0.136985541,-0.407185511,1,0,0,1.2917,Pegmatite_rect,6,1.292,1,1,0,1,0,1,,,,,,,,,,,,,
62c5fbbb796500bb5406d772,SCN,2024-06-20_16h27.23.036,LearnStrategy,2023.2.3,MacIntel,62.11180124,8,1,3,0.537509042,0.400693744,1,0,0,0.8766,Pegmatite_13,6,13,6,8,0.877,-0.112884115,-0.38989294,1,0,0,1.3188,Pegmatite_rect,6,1.319,1,2,0,2,0,1,,,,,,,,,,,,,
62c5fbbb796500bb5406d772,SCN,2024-06-20_16h27.23.036,LearnStrategy,2023.2.3,MacIntel,62.11180124,8,1,4,-0.244472023,0.403800354,1,0,0,0.9754,Peridotite_07,7,07,6,3,0.975,0.155339898,-0.241024712,1,0,0,1.1669,Diorite_rect,3,1.167,0,3,0,3,0,1,,,,,,,,,,,,,
62c5fbbb796500bb5406d772,SCN,2024-06-20_16h27.23.036,LearnStrategy,2023.2.3,MacIntel,62.11180124,8,1,5,-0.405312681,0.406411641,1,0,0,1.0824,Diorite_12,3,12,6,2,1.082,0.10252134,-0.234081217,1,0,0,0.8334,Diorite_rect,3,0.833,1,4,0,4,0,1,,,,,,,,,,,,,
62c5fbbb796500bb5406d772,SCN,2024-06-20_16h27.23.036,LearnStrategy,2023.2.3,MacIntel,62.11180124,8,1,6,-0.390768591,-0.438325014,1,0,0,0.9793,Peridotite_04,7,04,1,2,0.979,0.100031829,-0.385492622,1,0,0,1.0683,Peridotite_rect,7,1.068,1,5,0,5,0,1,,,,,,,,,,,,,
62c5fbbb796500bb5406d772,SCN,2024-06-20_16h27.23.036,LearnStrategy,2023.2.3,MacIntel,62.11180124,8,1,7,0.254374638,-0.269765987,1,0,0,1.0669,Basalt_06,2,06,2,6,1.067,-0.119674298,-0.233401331,1,0,0,0.597,Basalt_rect,2,0.597,1,6,0,6,0,1,,,,,,,,,,,,,
62c5fbbb796500bb5406d772,SCN,2024-06-20_16h27.23.036,LearnStrategy,2023.2.3,MacIntel,62.11180124,8,1,8,0.398378635,-0.247909614,1,0,0,0.7831,Basalt_02,2,02,2,7,0.783,-0.089390553,-0.255877957,1,0,0,1.2721,Basalt_rect,2,1.272,1,7,0,7,0,1,,,,,,,,,,,,,
62c5fbbb796500bb5406d772,SCN,2024-06-20_16h27.23.036,LearnStrategy,2023.2.3,MacIntel,62.11180124,8,1,9,-0.053529324,0.09166739,1,0,0,0.8287,Diorite_15,3,15,4,4,0.829,0.106721915,-0.259632614,1,0,0,2.0002,Diorite_rect,3,2,1,8,0,8,0,1,,,,,,,,,,,,,
62c5fbbb796500bb5406d772,SCN,2024-06-20_16h27.23.036,LearnStrategy,2023.2.3,MacIntel,62.11180124,8,1,10,-0.241162019,0.077608688,1,0,0,1.0583,Pumice_16,8,16,4,3,1.058,0.435585124,-0.411793258,1,0,0,0.7861,Pumice_rect,8,0.786,1,9,0,9,0,1,,,,,,,,,,,,,
62c5fbbb796500bb5406d772,SCN,2024-06-20_16h27.23.036,LearnStrategy,2023.2.3,MacIntel,62.11180124,8,1,11,0.355885145,0.076451054,1,0,0,0.8821,Peridotite_06,7,06,4,7,0.882,0.13026964,-0.403288484,1,0,0,2.1631,Peridotite_rect,7,2.163,1,10,0,10,0,1,,,,,,,,,,,,,
62c5fbbb796500bb5406d772,SCN,2024-06-20_16h27.23.036,LearnStrategy,2023.2.3,MacIntel,62.11180124,8,1,12,-0.091082086,0.076890327,1,0,0,0.6129,Diorite_15,3,15,4,4,0.613,0.113074725,-0.248938395,1,0,0,0.9138,Diorite_rect,3,0.914,1,11,0,11,0,1,,,,,,,,,,,,,
62c5fbbb796500bb5406d772,SCN,2024-06-20_16h27.23.036,LearnStrategy,2023.2.3,MacIntel,62.11180124,8,1,13,-0.542467199,0.269231952,1,0,0,1.7318,Pegmatite_12,6,12,5,1,1.732,-0.11633884,-0.395806478,1,0,0,3.5936,Pegmatite_rect,6,3.594,1,12,0,12,0,1,,,,,,,,,,,,,
62c5fbbb796500bb5406d772,SCN,2024-06-20_16h27.23.036,LearnStrategy,2023.2.3,MacIntel,62.11180124,8,1,14,0.238059534,-0.432179,1,0,0,2.5583,Pumice_02,8,02,1,6,2.558,0.387549642,-0.3978767,1,0,0,1.1033,Pumice_rect,8,1.103,1,13,0,13,0,1,,,,,,,,,,,,,
62c5fbbb796500bb5406d772,SCN,2024-06-20_16h27.23.036,LearnStrategy,2023.2.3,MacIntel,62.11180124,8,1,15,-0.085925157,-0.110597738,1,0,0,0.6505,Obsidian_09,5,09,3,4,0.65,-0.360608091,-0.398192003,1,0,0,0.768,Obsidian_rect,5,0.768,1,14,0,14,0,1,,,,,,,,,,,,,
62c5fbbb796500bb5406d772,SCN,2024-06-20_16h27.23.036,LearnStrategy,2023.2.3,MacIntel,62.11180124,8,1,16,-0.379680357,-0.104303792,1,0,0,1.0815,Pumice_15,8,15,3,2,1.082,0.379771322,-0.399442726,1,0,0,1.1633,Pumice_rect,8,1.163,1,15,0,15,0,1,,,,,,,,,,,,,
62c5fbbb796500bb5406d772,SCN,2024-06-20_16h27.23.036,LearnStrategy,2023.2.3,MacIntel,62.11180124,8,2,1,,,,,,,,1,07,,,,,,,,,,,3,0.981,0,,,,,,0.187528483,-0.257766249,1,0,0,0.9807,Diorite_rect,0,0,0,0,1,
62c5fbbb796500bb5406d772,SCN,2024-06-20_16h27.23.036,LearnStrategy,2023.2.3,MacIntel,62.11180124,8,2,2,,,,,,,,3,06,,,,,,,,,,,3,2.406,1,,,,,,0.133055556,-0.259005986,1,0,0,2.4058,Diorite_rect,1,0,1,0,1,
62c5fbbb796500bb5406d772,SCN,2024-06-20_16h27.23.036,LearnStrategy,2023.2.3,MacIntel,62.11180124,8,2,3,,,,,,,,4,16,,,,,,,,,,,2,2.264,0,,,,,,-0.115983706,-0.233274333,1,0,0,2.264,Basalt_rect,2,0,2,0,1,
62c5fbbb796500bb5406d772,SCN,2024-06-20_16h27.23.036,LearnStrategy,2023.2.3,MacIntel,62.11180124,8,2,4,,,,,,,,6,05,,,,,,,,,,,6,1.349,1,,,,,,-0.091699626,-0.391135525,1,0,0,1.3491,Pegmatite_rect,3,0,3,0,1,
62c5fbbb796500bb5406d772,SCN,2024-06-20_16h27.23.036,LearnStrategy,2023.2.3,MacIntel,62.11180124,8,2,5,,,,,,,,2,11,,,,,,,,,,,8,1.298,0,,,,,,0.400664334,-0.393830114,1,0,0,1.2976,Pumice_rect,4,0,4,0,1,
62c5fbbb796500bb5406d772,SCN,2024-06-20_16h27.23.036,LearnStrategy,2023.2.3,MacIntel,62.11180124,8,2,6,,,,,,,,7,05,,,,,,,,,,,4,6.313,0,,,,,,0.363093804,-0.264915545,1,0,0,6.3131,Gabbro_rect,5,0,5,0,1,
62c5fbbb796500bb5406d772,SCN,2024-06-20_16h27.23.036,LearnStrategy,2023.2.3,MacIntel,62.11180124,8,2,7,,,,,,,,6,06,,,,,,,,,,,6,1.268,1,,,,,,-0.097793376,-0.393825593,1,0,0,1.2675,Pegmatite_rect,6,0,6,0,1,
62c5fbbb796500bb5406d772,SCN,2024-06-20_16h27.23.036,LearnStrategy,2023.2.3,MacIntel,62.11180124,8,2,8,,,,,,,,8,04,,,,,,,,,,,8,1.177,1,,,,,,0.483434516,-0.403545736,1,0,0,1.1771,Pumice_rect,7,0,7,0,1,
62c5fbbb796500bb5406d772,SCN,2024-06-20_16h27.23.036,LearnStrategy,2023.2.3,MacIntel,62.11180124,8,2,9,,,,,,,,4,10,,,,,,,,,,,1,3.012,0,,,,,,-0.406088777,-0.24595884,1,0,0,3.0125,Andesite_rect,8,0,8,0,1,
62c5fbbb796500bb5406d772,SCN,2024-06-20_16h27.23.036,LearnStrategy,2023.2.3,MacIntel,62.11180124,8,2,10,,,,,,,,2,09,,,,,,,,,,,2,0.954,1,,,,,,-0.191494548,-0.25429484,1,0,0,0.9538,Basalt_rect,9,0,9,0,1,
62c5fbbb796500bb5406d772,SCN,2024-06-20_16h27.23.036,LearnStrategy,2023.2.3,MacIntel,62.11180124,8,2,11,,,,,,,,8,08,,,,,,,,,,,8,1.385,1,,,,,,0.368683539,-0.382544669,1,0,0,1.3851,Pumice_rect,10,0,10,0,1,
62c5fbbb796500bb5406d772,SCN,2024-06-20_16h27.23.036,LearnStrategy,2023.2.3,MacIntel,62.11180124,8,2,12,,,,,,,,1,01,,,,,,,,,,,3,1.497,0,,,,,,0.128158275,-0.24770657,1,0,0,1.4967,Diorite_rect,11,0,11,0,1,
62c5fbbb796500bb5406d772,SCN,2024-06-20_16h27.23.036,LearnStrategy,2023.2.3,MacIntel,62.11180124,8,2,13,,,,,,,,7,10,,,,,,,,,,,7,1.087,1,,,,,,0.140898799,-0.420870949,1,0,0,1.0873,Peridotite_rect,12,0,12,0,1,
62c5fbbb796500bb5406d772,SCN,2024-06-20_16h27.23.036,LearnStrategy,2023.2.3,MacIntel,62.11180124,8,2,14,,,,,,,,5,07,,,,,,,,,,,5,1.168,1,,,,,,-0.405840477,-0.395168728,1,0,0,1.1681,Obsidian_rect,13,0,13,0,1,
62c5fbbb796500bb5406d772,SCN,2024-06-20_16h27.23.036,LearnStrategy,2023.2.3,MacIntel,62.11180124,8,2,15,,,,,,,,3,02,,,,,,,,,,,3,1.598,1,,,,,,0.109934896,-0.265238896,1,0,0,1.5976,Diorite_rect,14,0,14,0,1,
62c5fbbb796500bb5406d772,SCN,2024-06-20_16h27.23.036,LearnStrategy,2023.2.3,MacIntel,62.11180124,8,2,16,,,,,,,,5,16,,,,,,,,,,,5,1.099,1,,,,,,-0.423350966,-0.408881293,1,0,0,1.0993,Obsidian_rect,15,0,15,0,1,
62c5fbbb796500bb5406d772,SCN,2024-06-20_16h27.23.036,LearnStrategy,2023.2.3,MacIntel,62.11180124,9,1,1,0.403220215,0.08863218,1,0,0,0.9648,Peridotite_06,7,06,4,7,0.965,0.157083152,-0.406833134,1,0,0,1.9779,Peridotite_rect,7,1.978,1,0,0,0,0,1,,,,,,,,,,,,,
62c5fbbb796500bb5406d772,SCN,2024-06-20_16h27.23.036,LearnStrategy,2023.2.3,MacIntel,62.11180124,9,1,2,0.557490506,0.205315145,1,0,0,0.9169,Andesite_16,1,16,5,8,0.917,0.407715658,-0.257462294,1,0,0,1.0415,Gabbro_rect,4,1.042,0,1,0,1,0,1,,,,,,,,,,,,,
62c5fbbb796500bb5406d772,SCN,2024-06-20_16h27.23.036,LearnStrategy,2023.2.3,MacIntel,62.11180124,9,1,3,-0.071848823,0.249620678,1,0,0,1.5995,Andesite_09,1,09,5,4,1.6,-0.400200647,-0.24918769,1,0,0,1.2371,Andesite_rect,1,1.237,1,2,0,2,0,1,,,,,,,,,,,,,
62c5fbbb796500bb5406d772,SCN,2024-06-20_16h27.23.036,LearnStrategy,2023.2.3,MacIntel,62.11180124,9,1,4,0.36160753,-0.282152959,1,0,0,0.8493,Basalt_02,2,02,2,7,0.849,-0.163899061,-0.237208794,1,0,0,0.8532,Basalt_rect,2,0.853,1,3,0,3,0,1,,,,,,,,,,,,,
62c5fbbb796500bb5406d772,SCN,2024-06-20_16h27.23.036,LearnStrategy,2023.2.3,MacIntel,62.11180124,9,1,5,-0.229419623,-0.424584057,1,0,0,1.1518,Andesite_10,1,10,1,3,1.152,-0.395459165,-0.25449915,1,0,0,1.5717,Andesite_rect,1,1.572,1,4,0,4,0,1,,,,,,,,,,,,,
62c5fbbb796500bb5406d772,SCN,2024-06-20_16h27.23.036,LearnStrategy,2023.2.3,MacIntel,62.11180124,9,1,6,0.082510489,-0.097406865,1,0,0,1.3578,Andesite_11,1,11,3,5,1.358,0.414031937,-0.245344916,1,0,0,0.6809,Gabbro_rect,4,0.681,0,5,0,5,0,1,,,,,,,,,,,,,
62c5fbbb796500bb5406d772,SCN,2024-06-20_16h27.23.036,LearnStrategy,2023.2.3,MacIntel,62.11180124,9,1,7,-0.553513952,-0.094799127,1,0,0,1.0166,Peridotite_13,7,13,3,1,1.017,0.099455114,-0.379029857,1,0,0,1.7765,Peridotite_rect,7,1.776,1,6,0,6,0,1,,,,,,,,,,,,,
62c5fbbb796500bb5406d772,SCN,2024-06-20_16h27.23.036,LearnStrategy,2023.2.3,MacIntel,62.11180124,9,1,8,0.546016439,0.393833189,1,0,0,0.9825,Pegmatite_13,6,13,6,8,0.982,-0.094285572,-0.396658167,1,0,0,1.7152,Pegmatite_rect,6,1.715,1,7,0,7,0,1,,,,,,,,,,,,,
62c5fbbb796500bb5406d772,SCN,2024-06-20_16h27.23.036,LearnStrategy,2023.2.3,MacIntel,62.11180124,9,1,9,0.4117315,0.378715526,1,0,0,1.7838,Andesite_02,1,02,6,7,1.784,0.41597819,-0.242301568,1,0,0,0.7605,Gabbro_rect,4,0.761,0,8,0,8,0,1,,,,,,,,,,,,,
62c5fbbb796500bb5406d772,SCN,2024-06-20_16h27.23.036,LearnStrategy,2023.2.3,MacIntel,62.11180124,9,1,10,-0.07194675,0.388635231,1,0,0,1.1834,Gabbro_15,4,15,6,4,1.183,0.421179199,-0.254256863,1,0,0,0.8989,Gabbro_rect,4,0.899,1,9,0,9,0,1,,,,,,,,,,,,,
62c5fbbb796500bb5406d772,SCN,2024-06-20_16h27.23.036,LearnStrategy,2023.2.3,MacIntel,62.11180124,9,1,11,-0.407132071,-0.41952058,1,0,0,1.9875,Peridotite_04,7,04,1,2,1.988,0.160540545,-0.390472819,1,0,0,1.6907,Peridotite_rect,7,1.691,1,10,0,10,0,1,,,,,,,,,,,,,
62c5fbbb796500bb5406d772,SCN,2024-06-20_16h27.23.036,LearnStrategy,2023.2.3,MacIntel,62.11180124,9,1,12,-0.565341006,-0.392390408,1,0,0,1.1303,Peridotite_08,7,08,1,1,1.13,0.420476345,-0.231430302,1,0,0,1.1348,Gabbro_rect,4,1.135,0,11,0,11,0,1,,,,,,,,,,,,,
62c5fbbb796500bb5406d772,SCN,2024-06-20_16h27.23.036,LearnStrategy,2023.2.3,MacIntel,62.11180124,9,1,13,0.388335232,-0.279255552,1,0,0,0.9697,Basalt_02,2,02,2,7,0.97,-0.076143754,-0.265952962,1,0,0,0.7747,Basalt_rect,2,0.775,1,12,0,12,0,1,,,,,,,,,,,,,
62c5fbbb796500bb5406d772,SCN,2024-06-20_16h27.23.036,LearnStrategy,2023.2.3,MacIntel,62.11180124,9,1,14,-0.076217312,-0.083478868,1,0,0,0.5509,Obsidian_09,5,09,3,4,0.551,-0.356369674,-0.403078161,1,0,0,0.7239,Obsidian_rect,5,0.724,1,13,0,13,0,1,,,,,,,,,,,,,
62c5fbbb796500bb5406d772,SCN,2024-06-20_16h27.23.036,LearnStrategy,2023.2.3,MacIntel,62.11180124,9,1,15,-0.240400571,0.091582664,1,0,0,1.4327,Pumice_16,8,16,4,3,1.433,0.400297128,-0.381092665,1,0,0,0.7623,Pumice_rect,8,0.762,1,14,0,14,0,1,,,,,,,,,,,,,
62c5fbbb796500bb5406d772,SCN,2024-06-20_16h27.23.036,LearnStrategy,2023.2.3,MacIntel,62.11180124,9,1,16,0.099422924,0.092920645,1,0,0,1.2616,Pumice_03,8,03,4,5,1.262,0.345051902,-0.403721607,1,0,0,1.2511,Pumice_rect,8,1.251,1,15,0,15,0,1,,,,,,,,,,,,,
62c5fbbb796500bb5406d772,SCN,2024-06-20_16h27.23.036,LearnStrategy,2023.2.3,MacIntel,62.11180124,9,2,1,,,,,,,,8,13,,,,,,,,,,,8,4.513,1,,,,,,0.412777507,-0.40512632,1,0,0,4.5125,Pumice_rect,0,0,0,0,1,
62c5fbbb796500bb5406d772,SCN,2024-06-20_16h27.23.036,LearnStrategy,2023.2.3,MacIntel,62.11180124,9,2,2,,,,,,,,1,05,,,,,,,,,,,4,2.005,0,,,,,,0.429490922,-0.250167236,1,0,0,2.0049,Gabbro_rect,1,0,1,0,1,
62c5fbbb796500bb5406d772,SCN,2024-06-20_16h27.23.036,LearnStrategy,2023.2.3,MacIntel,62.11180124,9,2,3,,,,,,,,7,15,,,,,,,,,,,7,1.265,1,,,,,,0.145580874,-0.391914062,1,0,0,1.2651,Peridotite_rect,2,0,2,0,1,
62c5fbbb796500bb5406d772,SCN,2024-06-20_16h27.23.036,LearnStrategy,2023.2.3,MacIntel,62.11180124,9,2,4,,,,,,,,4,14,,,,,,,,,,,3,4.416,0,,,,,,0.127916848,-0.263995135,1,0,0,4.4164,Diorite_rect,3,0,3,0,1,
62c5fbbb796500bb5406d772,SCN,2024-06-20_16h27.23.036,LearnStrategy,2023.2.3,MacIntel,62.11180124,9,2,5,,,,,,,,2,16,,,,,,,,,,,2,3.383,1,,,,,,-0.124292128,-0.246569734,1,0,0,3.3828,Basalt_rect,4,0,4,0,1,
62c5fbbb796500bb5406d772,SCN,2024-06-20_16h27.23.036,LearnStrategy,2023.2.3,MacIntel,62.11180124,9,2,6,,,,,,,,8,10,,,,,,,,,,,8,1.186,1,,,,,,0.358363987,-0.382720631,1,0,0,1.1862,Pumice_rect,5,0,5,0,1,
62c5fbbb796500bb5406d772,SCN,2024-06-20_16h27.23.036,LearnStrategy,2023.2.3,MacIntel,62.11180124,9,2,7,,,,,,,,4,13,,,,,,,,,,,4,1.412,1,,,,,,0.399739312,-0.247009549,1,0,0,1.4119,Gabbro_rect,6,0,6,0,1,
62c5fbbb796500bb5406d772,SCN,2024-06-20_16h27.23.036,LearnStrategy,2023.2.3,MacIntel,62.11180124,9,2,8,,,,,,,,6,10,,,,,,,,,,,6,1.115,1,,,,,,-0.148988037,-0.401533203,1,0,0,1.1145,Pegmatite_rect,7,0,7,0,1,
62c5fbbb796500bb5406d772,SCN,2024-06-20_16h27.23.036,LearnStrategy,2023.2.3,MacIntel,62.11180124,9,2,9,,,,,,,,7,02,,,,,,,,,,,7,1.231,1,,,,,,0.087266439,-0.399937789,1,0,0,1.2306,Peridotite_rect,8,0,8,0,1,
62c5fbbb796500bb5406d772,SCN,2024-06-20_16h27.23.036,LearnStrategy,2023.2.3,MacIntel,62.11180124,9,2,10,,,,,,,,5,10,,,,,,,,,,,5,1.06,1,,,,,,-0.36500217,-0.405022696,1,0,0,1.0601,Obsidian_rect,9,0,9,0,1,
62c5fbbb796500bb5406d772,SCN,2024-06-20_16h27.23.036,LearnStrategy,2023.2.3,MacIntel,62.11180124,9,2,11,,,,,,,,5,14,,,,,,,,,,,5,0.731,1,,,,,,-0.36500217,-0.405022696,1,0,0,0.7307,Obsidian_rect,10,0,10,0,1,
62c5fbbb796500bb5406d772,SCN,2024-06-20_16h27.23.036,LearnStrategy,2023.2.3,MacIntel,62.11180124,9,2,12,,,,,,,,1,03,,,,,,,,,,,2,1.181,0,,,,,,-0.103902724,-0.258337267,1,0,0,1.1807,Basalt_rect,11,0,11,0,1,
62c5fbbb796500bb5406d772,SCN,2024-06-20_16h27.23.036,LearnStrategy,2023.2.3,MacIntel,62.11180124,9,2,13,,,,,,,,2,10,,,,,,,,,,,2,1.042,1,,,,,,-0.103902724,-0.257781711,1,0,0,1.042,Basalt_rect,12,0,12,0,1,
62c5fbbb796500bb5406d772,SCN,2024-06-20_16h27.23.036,LearnStrategy,2023.2.3,MacIntel,62.11180124,9,2,14,,,,,,,,3,09,,,,,,,,,,,3,1.023,1,,,,,,0.134375362,-0.267730216,1,0,0,1.0225,Diorite_rect,13,0,13,0,1,
62c5fbbb796500bb5406d772,SCN,2024-06-20_16h27.23.036,LearnStrategy,2023.2.3,MacIntel,62.11180124,9,2,15,,,,,,,,6,07,,,,,,,,,,,6,4.296,1,,,,,,-0.169034921,-0.390240072,1,0,0,4.2962,Pegmatite_rect,14,0,14,0,1,
62c5fbbb796500bb5406d772,SCN,2024-06-20_16h27.23.036,LearnStrategy,2023.2.3,MacIntel,62.11180124,9,2,16,,,,,,,,3,08,,,,,,,,,,,3,1.684,1,,,,,,0.211677698,-0.238569065,1,0,0,1.6837,Diorite_rect,15,0,15,0,1,
62c5fbbb796500bb5406d772,SCN,2024-06-20_16h27.23.036,LearnStrategy,2023.2.3,MacIntel,62.11180124,,,,,,,,,,,,,,,,,,,,,,,,,,,,,,,,,,,,,,,,,,,1
62c5fbbb796500bb5406d772,SCN,2024-06-20_16h27.23.036,LearnStrategy,2023.2.3,MacIntel,62.11180124,,,,,,,,,,,,,,,,,,,,,,,,,,,,,,,,,,,,,,,,,,,
62c5fbbb796500bb5406d772,SCN,2024-06-20_16h27.23.036,LearnStrategy,2023.2.3,MacIntel,62.11180124,,,,,,,,,,,7,08,1,1,,,,,,,,,,,,,,,,,,,,,,,,,,,,,
62c5fbbb796500bb5406d772,SCN,2024-06-20_16h27.23.036,LearnStrategy,2023.2.3,MacIntel,62.11180124,,,,,,,,,,,7,04,1,2,,,,,,,,,,,,,,,,,,,,,,,,,,,,,
62c5fbbb796500bb5406d772,SCN,2024-06-20_16h27.23.036,LearnStrategy,2023.2.3,MacIntel,62.11180124,,,,,,,,,,,1,10,1,3,,,,,,,,,,,,,,,,,,,,,,,,,,,,,
62c5fbbb796500bb5406d772,SCN,2024-06-20_16h27.23.036,LearnStrategy,2023.2.3,MacIntel,62.11180124,,,,,,,,,,,1,04,1,4,,,,,,,,,,,,,,,,,,,,,,,,,,,,,
62c5fbbb796500bb5406d772,SCN,2024-06-20_16h27.23.036,LearnStrategy,2023.2.3,MacIntel,62.11180124,,,,,,,,,,,2,01,1,5,,,,,,,,,,,,,,,,,,,,,,,,,,,,,
62c5fbbb796500bb5406d772,SCN,2024-06-20_16h27.23.036,LearnStrategy,2023.2.3,MacIntel,62.11180124,,,,,,,,,,,8,02,1,6,,,,,,,,,,,,,,,,,,,,,,,,,,,,,
62c5fbbb796500bb5406d772,SCN,2024-06-20_16h27.23.036,LearnStrategy,2023.2.3,MacIntel,62.11180124,,,,,,,,,,,4,11,1,7,,,,,,,,,,,,,,,,,,,,,,,,,,,,,
62c5fbbb796500bb5406d772,SCN,2024-06-20_16h27.23.036,LearnStrategy,2023.2.3,MacIntel,62.11180124,,,,,,,,,,,6,08,1,8,,,,,,,,,,,,,,,,,,,,,,,,,,,,,
62c5fbbb796500bb5406d772,SCN,2024-06-20_16h27.23.036,LearnStrategy,2023.2.3,MacIntel,62.11180124,,,,,,,,,,,4,05,2,1,,,,,,,,,,,,,,,,,,,,,,,,,,,,,
62c5fbbb796500bb5406d772,SCN,2024-06-20_16h27.23.036,LearnStrategy,2023.2.3,MacIntel,62.11180124,,,,,,,,,,,4,09,2,2,,,,,,,,,,,,,,,,,,,,,,,,,,,,,
62c5fbbb796500bb5406d772,SCN,2024-06-20_16h27.23.036,LearnStrategy,2023.2.3,MacIntel,62.11180124,,,,,,,,,,,2,05,2,3,,,,,,,,,,,,,,,,,,,,,,,,,,,,,
62c5fbbb796500bb5406d772,SCN,2024-06-20_16h27.23.036,LearnStrategy,2023.2.3,MacIntel,62.11180124,,,,,,,,,,,7,14,2,4,,,,,,,,,,,,,,,,,,,,,,,,,,,,,
62c5fbbb796500bb5406d772,SCN,2024-06-20_16h27.23.036,LearnStrategy,2023.2.3,MacIntel,62.11180124,,,,,,,,,,,5,02,2,5,,,,,,,,,,,,,,,,,,,,,,,,,,,,,
62c5fbbb796500bb5406d772,SCN,2024-06-20_16h27.23.036,LearnStrategy,2023.2.3,MacIntel,62.11180124,,,,,,,,,,,2,06,2,6,,,,,,,,,,,,,,,,,,,,,,,,,,,,,
62c5fbbb796500bb5406d772,SCN,2024-06-20_16h27.23.036,LearnStrategy,2023.2.3,MacIntel,62.11180124,,,,,,,,,,,2,02,2,7,,,,,,,,,,,,,,,,,,,,,,,,,,,,,
62c5fbbb796500bb5406d772,SCN,2024-06-20_16h27.23.036,LearnStrategy,2023.2.3,MacIntel,62.11180124,,,,,,,,,,,5,06,2,8,,,,,,,,,,,,,,,,,,,,,,,,,,,,,
62c5fbbb796500bb5406d772,SCN,2024-06-20_16h27.23.036,LearnStrategy,2023.2.3,MacIntel,62.11180124,,,,,,,,,,,7,13,3,1,,,,,,,,,,,,,,,,,,,,,,,,,,,,,
62c5fbbb796500bb5406d772,SCN,2024-06-20_16h27.23.036,LearnStrategy,2023.2.3,MacIntel,62.11180124,,,,,,,,,,,8,15,3,2,,,,,,,,,,,,,,,,,,,,,,,,,,,,,
62c5fbbb796500bb5406d772,SCN,2024-06-20_16h27.23.036,LearnStrategy,2023.2.3,MacIntel,62.11180124,,,,,,,,,,,3,16,3,3,,,,,,,,,,,,,,,,,,,,,,,,,,,,,
62c5fbbb796500bb5406d772,SCN,2024-06-20_16h27.23.036,LearnStrategy,2023.2.3,MacIntel,62.11180124,,,,,,,,,,,5,09,3,4,,,,,,,,,,,,,,,,,,,,,,,,,,,,,
62c5fbbb796500bb5406d772,SCN,2024-06-20_16h27.23.036,LearnStrategy,2023.2.3,MacIntel,62.11180124,,,,,,,,,,,1,11,3,5,,,,,,,,,,,,,,,,,,,,,,,,,,,,,
62c5fbbb796500bb5406d772,SCN,2024-06-20_16h27.23.036,LearnStrategy,2023.2.3,MacIntel,62.11180124,,,,,,,,,,,3,07,3,6,,,,,,,,,,,,,,,,,,,,,,,,,,,,,
62c5fbbb796500bb5406d772,SCN,2024-06-20_16h27.23.036,LearnStrategy,2023.2.3,MacIntel,62.11180124,,,,,,,,,,,4,08,3,7,,,,,,,,,,,,,,,,,,,,,,,,,,,,,
62c5fbbb796500bb5406d772,SCN,2024-06-20_16h27.23.036,LearnStrategy,2023.2.3,MacIntel,62.11180124,,,,,,,,,,,5,05,3,8,,,,,,,,,,,,,,,,,,,,,,,,,,,,,
62c5fbbb796500bb5406d772,SCN,2024-06-20_16h27.23.036,LearnStrategy,2023.2.3,MacIntel,62.11180124,,,,,,,,,,,6,09,4,1,,,,,,,,,,,,,,,,,,,,,,,,,,,,,
62c5fbbb796500bb5406d772,SCN,2024-06-20_16h27.23.036,LearnStrategy,2023.2.3,MacIntel,62.11180124,,,,,,,,,,,6,15,4,2,,,,,,,,,,,,,,,,,,,,,,,,,,,,,
62c5fbbb796500bb5406d772,SCN,2024-06-20_16h27.23.036,LearnStrategy,2023.2.3,MacIntel,62.11180124,,,,,,,,,,,8,16,4,3,,,,,,,,,,,,,,,,,,,,,,,,,,,,,
62c5fbbb796500bb5406d772,SCN,2024-06-20_16h27.23.036,LearnStrategy,2023.2.3,MacIntel,62.11180124,,,,,,,,,,,3,15,4,4,,,,,,,,,,,,,,,,,,,,,,,,,,,,,
62c5fbbb796500bb5406d772,SCN,2024-06-20_16h27.23.036,LearnStrategy,2023.2.3,MacIntel,62.11180124,,,,,,,,,,,8,03,4,5,,,,,,,,,,,,,,,,,,,,,,,,,,,,,
62c5fbbb796500bb5406d772,SCN,2024-06-20_16h27.23.036,LearnStrategy,2023.2.3,MacIntel,62.11180124,,,,,,,,,,,2,08,4,6,,,,,,,,,,,,,,,,,,,,,,,,,,,,,
62c5fbbb796500bb5406d772,SCN,2024-06-20_16h27.23.036,LearnStrategy,2023.2.3,MacIntel,62.11180124,,,,,,,,,,,7,06,4,7,,,,,,,,,,,,,,,,,,,,,,,,,,,,,
62c5fbbb796500bb5406d772,SCN,2024-06-20_16h27.23.036,LearnStrategy,2023.2.3,MacIntel,62.11180124,,,,,,,,,,,3,13,4,8,,,,,,,,,,,,,,,,,,,,,,,,,,,,,
62c5fbbb796500bb5406d772,SCN,2024-06-20_16h27.23.036,LearnStrategy,2023.2.3,MacIntel,62.11180124,,,,,,,,,,,6,12,5,1,,,,,,,,,,,,,,,,,,,,,,,,,,,,,
62c5fbbb796500bb5406d772,SCN,2024-06-20_16h27.23.036,LearnStrategy,2023.2.3,MacIntel,62.11180124,,,,,,,,,,,8,14,5,2,,,,,,,,,,,,,,,,,,,,,,,,,,,,,
62c5fbbb796500bb5406d772,SCN,2024-06-20_16h27.23.036,LearnStrategy,2023.2.3,MacIntel,62.11180124,,,,,,,,,,,3,14,5,3,,,,,,,,,,,,,,,,,,,,,,,,,,,,,
62c5fbbb796500bb5406d772,SCN,2024-06-20_16h27.23.036,LearnStrategy,2023.2.3,MacIntel,62.11180124,,,,,,,,,,,1,09,5,4,,,,,,,,,,,,,,,,,,,,,,,,,,,,,
62c5fbbb796500bb5406d772,SCN,2024-06-20_16h27.23.036,LearnStrategy,2023.2.3,MacIntel,62.11180124,,,,,,,,,,,8,09,5,5,,,,,,,,,,,,,,,,,,,,,,,,,,,,,
62c5fbbb796500bb5406d772,SCN,2024-06-20_16h27.23.036,LearnStrategy,2023.2.3,MacIntel,62.11180124,,,,,,,,,,,5,12,5,6,,,,,,,,,,,,,,,,,,,,,,,,,,,,,
62c5fbbb796500bb5406d772,SCN,2024-06-20_16h27.23.036,LearnStrategy,2023.2.3,MacIntel,62.11180124,,,,,,,,,,,4,12,5,7,,,,,,,,,,,,,,,,,,,,,,,,,,,,,
62c5fbbb796500bb5406d772,SCN,2024-06-20_16h27.23.036,LearnStrategy,2023.2.3,MacIntel,62.11180124,,,,,,,,,,,1,16,5,8,,,,,,,,,,,,,,,,,,,,,,,,,,,,,
62c5fbbb796500bb5406d772,SCN,2024-06-20_16h27.23.036,LearnStrategy,2023.2.3,MacIntel,62.11180124,,,,,,,,,,,2,14,6,1,,,,,,,,,,,,,,,,,,,,,,,,,,,,,
62c5fbbb796500bb5406d772,SCN,2024-06-20_16h27.23.036,LearnStrategy,2023.2.3,MacIntel,62.11180124,,,,,,,,,,,3,12,6,2,,,,,,,,,,,,,,,,,,,,,,,,,,,,,
62c5fbbb796500bb5406d772,SCN,2024-06-20_16h27.23.036,LearnStrategy,2023.2.3,MacIntel,62.11180124,,,,,,,,,,,7,07,6,3,,,,,,,,,,,,,,,,,,,,,,,,,,,,,
62c5fbbb796500bb5406d772,SCN,2024-06-20_16h27.23.036,LearnStrategy,2023.2.3,MacIntel,62.11180124,,,,,,,,,,,4,15,6,4,,,,,,,,,,,,,,,,,,,,,,,,,,,,,
62c5fbbb796500bb5406d772,SCN,2024-06-20_16h27.23.036,LearnStrategy,2023.2.3,MacIntel,62.11180124,,,,,,,,,,,5,11,6,5,,,,,,,,,,,,,,,,,,,,,,,,,,,,,
62c5fbbb796500bb5406d772,SCN,2024-06-20_16h27.23.036,LearnStrategy,2023.2.3,MacIntel,62.11180124,,,,,,,,,,,6,03,6,6,,,,,,,,,,,,,,,,,,,,,,,,,,,,,
62c5fbbb796500bb5406d772,SCN,2024-06-20_16h27.23.036,LearnStrategy,2023.2.3,MacIntel,62.11180124,,,,,,,,,,,1,02,6,7,,,,,,,,,,,,,,,,,,,,,,,,,,,,,
62c5fbbb796500bb5406d772,SCN,2024-06-20_16h27.23.036,LearnStrategy,2023.2.3,MacIntel,62.11180124,,,,,,,,,,,6,13,6,8,,,,,,,,,,,,,,,,,,,,,,,,,,,,,