participant,condition,date,expName,psychopyVersion,OS,frameRate,block,phase,trial,learn_mouse_2.x,learn_mouse_2.y,learn_mouse_2.leftButton,learn_mouse_2.midButton,learn_mouse_2.rightButton,learn_mouse_2.time,learn_mouse_2.clicked_name,cat,token,row,col,t_select,cat_mouse_l.x,cat_mouse_l.y,cat_mouse_l.leftButton,cat_mouse_l.midButton,cat_mouse_l.rightButton,cat_mouse_l.time,cat_mouse_l.clicked_name,resp,t_resp,corr,train_trials.thisRepN,train_trials.thisTrialN,train_trials.thisN,train_trials.thisIndex,train_trials.ran,cat_mouse_t.x,cat_mouse_t.y,cat_mouse_t.leftButton,cat_mouse_t.midButton,cat_mouse_t.rightButton,cat_mouse_t.time,cat_mouse_t.clicked_name,test_trials.thisRepN,test_trials.thisTrialN,test_trials.thisN,test_trials.thisIndex,test_trials.ran,Bonus
62c63362e7342ad8be294866,TCN,2024-06-11_12h27.39.919,LearnStrategy,2023.2.3,Win32,144.9275362,,,,,,,,,,,,,,,,,,,,,,,,,,,,,,,,,,,,,,,,,,,
62c63362e7342ad8be294866,TCN,2024-06-11_12h27.39.919,LearnStrategy,2023.2.3,Win32,144.9275362,1,1,1,-0.012037037,-0.012962963,1,0,0,1.9476,rock_grid_rect_2,2,02,-1,-1,1.948,0.368518519,-0.394444444,1,0,0,7.8468,Pumice_rect,8,7.847,0,0,0,0,0,1,,,,,,,,,,,,,
62c63362e7342ad8be294866,TCN,2024-06-11_12h27.39.919,LearnStrategy,2023.2.3,Win32,144.9275362,1,1,2,-0.049074074,0.007407407,1,0,0,1.6885,rock_grid_rect_2,8,06,-1,-1,1.689,0.366666667,-0.4,1,0,0,4.579,Pumice_rect,8,4.579,1,1,0,1,0,1,,,,,,,,,,,,,
62c63362e7342ad8be294866,TCN,2024-06-11_12h27.39.919,LearnStrategy,2023.2.3,Win32,144.9275362,1,1,3,0.00462963,-0.014814815,1,0,0,1.7611,rock_grid_rect_2,3,12,-1,-1,1.761,-0.113888889,-0.392592593,1,0,0,4.9976,Pegmatite_rect,6,4.998,0,2,0,2,0,1,,,,,,,,,,,,,
62c63362e7342ad8be294866,TCN,2024-06-11_12h27.39.919,LearnStrategy,2023.2.3,Win32,144.9275362,1,1,4,-0.067592593,-0.007407407,1,0,0,1.7205,rock_grid_rect_2,7,07,-1,-1,1.721,0.374074074,-0.250925926,1,0,0,4.7673,Gabbro_rect,4,4.767,0,3,0,3,0,1,,,,,,,,,,,,,
62c63362e7342ad8be294866,TCN,2024-06-11_12h27.39.919,LearnStrategy,2023.2.3,Win32,144.9275362,1,1,5,0.00462963,-0.011111111,1,0,0,1.551,rock_grid_rect_2,8,15,-1,-1,1.551,-0.373148148,-0.250925926,1,0,0,4.7443,Andesite_rect,1,4.744,0,4,0,4,0,1,,,,,,,,,,,,,
62c63362e7342ad8be294866,TCN,2024-06-11_12h27.39.919,LearnStrategy,2023.2.3,Win32,144.9275362,1,1,6,-0.035185185,-0.005555556,1,0,0,1.9503,rock_grid_rect_2,1,02,-1,-1,1.95,-0.373148148,-0.259259259,1,0,0,2.4038,Andesite_rect,1,2.404,1,5,0,5,0,1,,,,,,,,,,,,,
62c63362e7342ad8be294866,TCN,2024-06-11_12h27.39.919,LearnStrategy,2023.2.3,Win32,144.9275362,1,1,7,0.022222222,-0.00462963,1,0,0,2.2994,rock_grid_rect_2,3,08,-1,-1,2.299,0.17037037,-0.394444444,1,0,0,5.1043,Peridotite_rect,7,5.104,0,6,0,6,0,1,,,,,,,,,,,,,
62c63362e7342ad8be294866,TCN,2024-06-11_12h27.39.919,LearnStrategy,2023.2.3,Win32,144.9275362,1,1,8,0.059259259,-0.017592593,1,0,0,1.6937,rock_grid_rect_2,6,03,-1,-1,1.694,0.385185185,-0.249074074,1,0,0,2.4255,Gabbro_rect,4,2.425,0,7,0,7,0,1,,,,,,,,,,,,,
62c63362e7342ad8be294866,TCN,2024-06-11_12h27.39.919,LearnStrategy,2023.2.3,Win32,144.9275362,1,1,9,-0.024074074,0.011111111,1,0,0,1.3348,rock_grid_rect_2,7,10,-1,-1,1.335,0.142592593,-0.266666667,1,0,0,1.818,Diorite_rect,3,1.818,0,8,0,8,0,1,,,,,,,,,,,,,
62c63362e7342ad8be294866,TCN,2024-06-11_12h27.39.919,LearnStrategy,2023.2.3,Win32,144.9275362,1,1,10,-0.014814815,-0.003703704,1,0,0,1.3794,rock_grid_rect_2,5,16,-1,-1,1.379,-0.340740741,-0.382407407,1,0,0,1.7045,Obsidian_rect,5,1.704,1,9,0,9,0,1,,,,,,,,,,,,,
62c63362e7342ad8be294866,TCN,2024-06-11_12h27.39.919,LearnStrategy,2023.2.3,Win32,144.9275362,1,1,11,-0.006481481,-0.005555556,1,0,0,1.3955,rock_grid_rect_2,5,04,-1,-1,1.395,-0.342592593,-0.389814815,1,0,0,2.7582,Obsidian_rect,5,2.758,1,10,0,10,0,1,,,,,,,,,,,,,
62c63362e7342ad8be294866,TCN,2024-06-11_12h27.39.919,LearnStrategy,2023.2.3,Win32,144.9275362,1,1,12,-0.02962963,-0.007407407,1,0,0,1.3462,rock_grid_rect_2,2,05,-1,-1,1.346,0.40462963,-0.237037037,1,0,0,5.3447,Gabbro_rect,4,5.345,0,11,0,11,0,1,,,,,,,,,,,,,
62c63362e7342ad8be294866,TCN,2024-06-11_12h27.39.919,LearnStrategy,2023.2.3,Win32,144.9275362,1,1,13,-0.030555556,-0.002777778,1,0,0,1.6142,rock_grid_rect_2,4,10,-1,-1,1.614,0.350925926,-0.413888889,1,0,0,4.3878,Pumice_rect,8,4.388,0,12,0,12,0,1,,,,,,,,,,,,,
62c63362e7342ad8be294866,TCN,2024-06-11_12h27.39.919,LearnStrategy,2023.2.3,Win32,144.9275362,1,1,14,-0.006481481,0.012037037,1,0,0,1.5375,rock_grid_rect_2,1,06,-1,-1,1.537,0.092592593,-0.259259259,1,0,0,2.0849,Diorite_rect,3,2.085,0,13,0,13,0,1,,,,,,,,,,,,,
62c63362e7342ad8be294866,TCN,2024-06-11_12h27.39.919,LearnStrategy,2023.2.3,Win32,144.9275362,1,1,15,-0.030555556,-0.017592593,1,0,0,1.3611,rock_grid_rect_2,6,12,-1,-1,1.361,0.112037037,-0.394444444,1,0,0,3.3401,Peridotite_rect,7,3.34,0,14,0,14,0,1,,,,,,,,,,,,,
62c63362e7342ad8be294866,TCN,2024-06-11_12h27.39.919,LearnStrategy,2023.2.3,Win32,144.9275362,1,1,16,-0.040740741,0.012962963,1,0,0,1.3521,rock_grid_rect_2,4,05,-1,-1,1.352,0.356481481,-0.241666667,1,0,0,6.3326,Gabbro_rect,4,6.333,1,15,0,15,0,1,,,,,,,,,,,,,
62c63362e7342ad8be294866,TCN,2024-06-11_12h27.39.919,LearnStrategy,2023.2.3,Win32,144.9275362,1,2,1,,,,,,,,4,01,,,,,,,,,,,3,2.302,0,,,,,,0.144444444,-0.248148148,1,0,0,2.3017,Diorite_rect,0,0,0,0,1,
62c63362e7342ad8be294866,TCN,2024-06-11_12h27.39.919,LearnStrategy,2023.2.3,Win32,144.9275362,1,2,2,,,,,,,,8,16,,,,,,,,,,,8,1.819,1,,,,,,0.355555556,-0.390740741,1,0,0,1.8187,Pumice_rect,1,0,1,0,1,
62c63362e7342ad8be294866,TCN,2024-06-11_12h27.39.919,LearnStrategy,2023.2.3,Win32,144.9275362,1,2,3,,,,,,,,3,07,,,,,,,,,,,7,4.47,0,,,,,,0.056481481,-0.411111111,1,0,0,4.4697,Peridotite_rect,2,0,2,0,1,
62c63362e7342ad8be294866,TCN,2024-06-11_12h27.39.919,LearnStrategy,2023.2.3,Win32,144.9275362,1,2,4,,,,,,,,4,16,,,,,,,,,,,2,7.173,0,,,,,,-0.147222222,-0.266666667,1,0,0,7.1727,Basalt_rect,3,0,3,0,1,
62c63362e7342ad8be294866,TCN,2024-06-11_12h27.39.919,LearnStrategy,2023.2.3,Win32,144.9275362,1,2,5,,,,,,,,5,08,,,,,,,,,,,5,1.272,1,,,,,,-0.392592593,-0.387037037,1,0,0,1.2722,Obsidian_rect,4,0,4,0,1,
62c63362e7342ad8be294866,TCN,2024-06-11_12h27.39.919,LearnStrategy,2023.2.3,Win32,144.9275362,1,2,6,,,,,,,,1,16,,,,,,,,,,,3,2.002,0,,,,,,0.12962963,-0.258333333,1,0,0,2.0024,Diorite_rect,5,0,5,0,1,
62c63362e7342ad8be294866,TCN,2024-06-11_12h27.39.919,LearnStrategy,2023.2.3,Win32,144.9275362,1,2,7,,,,,,,,5,14,,,,,,,,,,,5,1.242,1,,,,,,-0.37037037,-0.418518519,1,0,0,1.2417,Obsidian_rect,6,0,6,0,1,
62c63362e7342ad8be294866,TCN,2024-06-11_12h27.39.919,LearnStrategy,2023.2.3,Win32,144.9275362,1,2,8,,,,,,,,8,03,,,,,,,,,,,8,1.474,1,,,,,,0.388888889,-0.391666667,1,0,0,1.4735,Pumice_rect,7,0,7,0,1,
62c63362e7342ad8be294866,TCN,2024-06-11_12h27.39.919,LearnStrategy,2023.2.3,Win32,144.9275362,1,2,9,,,,,,,,2,01,,,,,,,,,,,2,3.054,1,,,,,,-0.12962963,-0.251851852,1,0,0,3.0543,Basalt_rect,8,0,8,0,1,
62c63362e7342ad8be294866,TCN,2024-06-11_12h27.39.919,LearnStrategy,2023.2.3,Win32,144.9275362,1,2,10,,,,,,,,1,14,,,,,,,,,,,6,3.852,0,,,,,,-0.087037037,-0.387962963,1,0,0,3.8517,Pegmatite_rect,9,0,9,0,1,
62c63362e7342ad8be294866,TCN,2024-06-11_12h27.39.919,LearnStrategy,2023.2.3,Win32,144.9275362,1,2,11,,,,,,,,7,04,,,,,,,,,,,7,2.554,1,,,,,,0.112037037,-0.410185185,1,0,0,2.5535,Peridotite_rect,10,0,10,0,1,
62c63362e7342ad8be294866,TCN,2024-06-11_12h27.39.919,LearnStrategy,2023.2.3,Win32,144.9275362,1,2,12,,,,,,,,6,06,,,,,,,,,,,1,2.707,0,,,,,,-0.39537037,-0.25,1,0,0,2.7069,Andesite_rect,11,0,11,0,1,
62c63362e7342ad8be294866,TCN,2024-06-11_12h27.39.919,LearnStrategy,2023.2.3,Win32,144.9275362,1,2,13,,,,,,,,7,15,,,,,,,,,,,3,1.586,0,,,,,,0.118518519,-0.249074074,1,0,0,1.5865,Diorite_rect,12,0,12,0,1,
62c63362e7342ad8be294866,TCN,2024-06-11_12h27.39.919,LearnStrategy,2023.2.3,Win32,144.9275362,1,2,14,,,,,,,,3,15,,,,,,,,,,,4,3.382,0,,,,,,0.398148148,-0.241666667,1,0,0,3.3824,Gabbro_rect,13,0,13,0,1,
62c63362e7342ad8be294866,TCN,2024-06-11_12h27.39.919,LearnStrategy,2023.2.3,Win32,144.9275362,1,2,15,,,,,,,,6,09,,,,,,,,,,,7,3.886,0,,,,,,0.106481481,-0.385185185,1,0,0,3.8857,Peridotite_rect,14,0,14,0,1,
62c63362e7342ad8be294866,TCN,2024-06-11_12h27.39.919,LearnStrategy,2023.2.3,Win32,144.9275362,1,2,16,,,,,,,,2,12,,,,,,,,,,,1,3.907,0,,,,,,-0.340740741,-0.252777778,1,0,0,3.9069,Andesite_rect,15,0,15,0,1,
62c63362e7342ad8be294866,TCN,2024-06-11_12h27.39.919,LearnStrategy,2023.2.3,Win32,144.9275362,2,1,1,-0.013888889,0.000925926,1,0,0,1.552,rock_grid_rect_2,2,09,-1,-1,1.552,-0.166666667,-0.244444444,1,0,0,2.1291,Basalt_rect,2,2.129,1,0,0,0,0,1,,,,,,,,,,,,,
62c63362e7342ad8be294866,TCN,2024-06-11_12h27.39.919,LearnStrategy,2023.2.3,Win32,144.9275362,2,1,2,-0.019444444,0.007407407,1,0,0,1.4835,rock_grid_rect_2,6,11,-1,-1,1.483,-0.066666667,-0.403703704,1,0,0,4.1797,Pegmatite_rect,6,4.18,1,1,0,1,0,1,,,,,,,,,,,,,
62c63362e7342ad8be294866,TCN,2024-06-11_12h27.39.919,LearnStrategy,2023.2.3,Win32,144.9275362,2,1,3,-0.019444444,0.005555556,1,0,0,1.3114,rock_grid_rect_2,4,12,-1,-1,1.311,-0.15,-0.25,1,0,0,3.6329,Basalt_rect,2,3.633,0,2,0,2,0,1,,,,,,,,,,,,,
62c63362e7342ad8be294866,TCN,2024-06-11_12h27.39.919,LearnStrategy,2023.2.3,Win32,144.9275362,2,1,4,0.019444444,-0.015740741,1,0,0,1.5189,rock_grid_rect_2,3,16,-1,-1,1.519,0.107407407,-0.416666667,1,0,0,4.6731,Peridotite_rect,7,4.673,0,3,0,3,0,1,,,,,,,,,,,,,
62c63362e7342ad8be294866,TCN,2024-06-11_12h27.39.919,LearnStrategy,2023.2.3,Win32,144.9275362,2,1,5,-0.000925926,-0.016666667,1,0,0,1.4586,rock_grid_rect_2,1,03,-1,-1,1.459,-0.108333333,-0.252777778,1,0,0,2.4372,Basalt_rect,2,2.437,0,4,0,4,0,1,,,,,,,,,,,,,
62c63362e7342ad8be294866,TCN,2024-06-11_12h27.39.919,LearnStrategy,2023.2.3,Win32,144.9275362,2,1,6,-0.040740741,-0.012962963,1,0,0,1.3798,rock_grid_rect_2,1,05,-1,-1,1.38,-0.099074074,-0.406481481,1,0,0,3.8397,Pegmatite_rect,6,3.84,0,5,0,5,0,1,,,,,,,,,,,,,
62c63362e7342ad8be294866,TCN,2024-06-11_12h27.39.919,LearnStrategy,2023.2.3,Win32,144.9275362,2,1,7,-0.077777778,-0.019444444,1,0,0,1.4025,rock_grid_rect_2,3,14,-1,-1,1.403,-0.392592593,-0.243518519,1,0,0,1.4641,Andesite_rect,1,1.464,0,6,0,6,0,1,,,,,,,,,,,,,
62c63362e7342ad8be294866,TCN,2024-06-11_12h27.39.919,LearnStrategy,2023.2.3,Win32,144.9275362,2,1,8,-0.001851852,-0.017592593,1,0,0,1.5704,rock_grid_rect_2,5,07,-1,-1,1.57,-0.35,-0.408333333,1,0,0,2.8421,Obsidian_rect,5,2.842,1,7,0,7,0,1,,,,,,,,,,,,,
62c63362e7342ad8be294866,TCN,2024-06-11_12h27.39.919,LearnStrategy,2023.2.3,Win32,144.9275362,2,1,9,0.006481481,-0.007407407,1,0,0,1.3174,rock_grid_rect_2,7,12,-1,-1,1.317,0.136111111,-0.247222222,1,0,0,2.3371,Diorite_rect,3,2.337,0,8,0,8,0,1,,,,,,,,,,,,,
62c63362e7342ad8be294866,TCN,2024-06-11_12h27.39.919,LearnStrategy,2023.2.3,Win32,144.9275362,2,1,10,0.014814815,-0.015740741,1,0,0,1.5462,rock_grid_rect_2,8,05,-1,-1,1.546,0.447222222,-0.397222222,1,0,0,1.844,Pumice_rect,8,1.844,1,9,0,9,0,1,,,,,,,,,,,,,
62c63362e7342ad8be294866,TCN,2024-06-11_12h27.39.919,LearnStrategy,2023.2.3,Win32,144.9275362,2,1,11,-0.019444444,-0.013888889,1,0,0,1.4798,rock_grid_rect_2,2,14,-1,-1,1.48,0.32037037,-0.25462963,1,0,0,4.9741,Gabbro_rect,4,4.974,0,10,0,10,0,1,,,,,,,,,,,,,
62c63362e7342ad8be294866,TCN,2024-06-11_12h27.39.919,LearnStrategy,2023.2.3,Win32,144.9275362,2,1,12,-0.001851852,-0.017592593,1,0,0,1.4922,rock_grid_rect_2,5,02,-1,-1,1.492,-0.368518519,-0.389814815,1,0,0,1.3271,Obsidian_rect,5,1.327,1,11,0,11,0,1,,,,,,,,,,,,,
62c63362e7342ad8be294866,TCN,2024-06-11_12h27.39.919,LearnStrategy,2023.2.3,Win32,144.9275362,2,1,13,-0.07037037,-0.018518519,1,0,0,1.5514,rock_grid_rect_2,8,04,-1,-1,1.551,0.425,-0.401851852,1,0,0,1.5398,Pumice_rect,8,1.54,1,12,0,12,0,1,,,,,,,,,,,,,
62c63362e7342ad8be294866,TCN,2024-06-11_12h27.39.919,LearnStrategy,2023.2.3,Win32,144.9275362,2,1,14,-0.069444444,-0.001851852,1,0,0,1.3385,rock_grid_rect_2,6,05,-1,-1,1.339,-0.376851852,-0.238888889,1,0,0,5.0354,Andesite_rect,1,5.035,0,13,0,13,0,1,,,,,,,,,,,,,
62c63362e7342ad8be294866,TCN,2024-06-11_12h27.39.919,LearnStrategy,2023.2.3,Win32,144.9275362,2,1,15,0.012962963,0.010185185,1,0,0,1.53,rock_grid_rect_2,4,15,-1,-1,1.53,0.10462963,-0.39537037,1,0,0,1.9932,Peridotite_rect,7,1.993,0,14,0,14,0,1,,,,,,,,,,,,,
62c63362e7342ad8be294866,TCN,2024-06-11_12h27.39.919,LearnStrategy,2023.2.3,Win32,144.9275362,2,1,16,-0.010185185,0.005555556,1,0,0,1.213,rock_grid_rect_2,7,02,-1,-1,1.213,0.063888889,-0.263888889,1,0,0,2.6725,Diorite_rect,3,2.673,0,15,0,15,0,1,,,,,,,,,,,,,
62c63362e7342ad8be294866,TCN,2024-06-11_12h27.39.919,LearnStrategy,2023.2.3,Win32,144.9275362,2,2,1,,,,,,,,6,16,,,,,,,,,,,4,2.867,0,,,,,,0.409259259,-0.249074074,1,0,0,2.8673,Gabbro_rect,0,0,0,0,1,
62c63362e7342ad8be294866,TCN,2024-06-11_12h27.39.919,LearnStrategy,2023.2.3,Win32,144.9275362,2,2,2,,,,,,,,4,11,,,,,,,,,,,2,2.337,0,,,,,,-0.12037037,-0.233333333,1,0,0,2.3367,Basalt_rect,1,0,1,0,1,
62c63362e7342ad8be294866,TCN,2024-06-11_12h27.39.919,LearnStrategy,2023.2.3,Win32,144.9275362,2,2,3,,,,,,,,5,12,,,,,,,,,,,5,1.153,1,,,,,,-0.399074074,-0.396296296,1,0,0,1.1525,Obsidian_rect,2,0,2,0,1,
62c63362e7342ad8be294866,TCN,2024-06-11_12h27.39.919,LearnStrategy,2023.2.3,Win32,144.9275362,2,2,4,,,,,,,,2,06,,,,,,,,,,,1,2.429,0,,,,,,-0.414814815,-0.244444444,1,0,0,2.4292,Andesite_rect,3,0,3,0,1,
62c63362e7342ad8be294866,TCN,2024-06-11_12h27.39.919,LearnStrategy,2023.2.3,Win32,144.9275362,2,2,5,,,,,,,,3,06,,,,,,,,,,,3,3.493,1,,,,,,0.112037037,-0.262962963,1,0,0,3.4926,Diorite_rect,4,0,4,0,1,
62c63362e7342ad8be294866,TCN,2024-06-11_12h27.39.919,LearnStrategy,2023.2.3,Win32,144.9275362,2,2,6,,,,,,,,1,10,,,,,,,,,,,7,3.971,0,,,,,,0.062037037,-0.384259259,1,0,0,3.9711,Peridotite_rect,5,0,5,0,1,
62c63362e7342ad8be294866,TCN,2024-06-11_12h27.39.919,LearnStrategy,2023.2.3,Win32,144.9275362,2,2,7,,,,,,,,3,10,,,,,,,,,,,3,2.848,1,,,,,,0.136111111,-0.232407407,1,0,0,2.8476,Diorite_rect,6,0,6,0,1,
62c63362e7342ad8be294866,TCN,2024-06-11_12h27.39.919,LearnStrategy,2023.2.3,Win32,144.9275362,2,2,8,,,,,,,,8,08,,,,,,,,,,,2,4.995,0,,,,,,-0.113888889,-0.252777778,1,0,0,4.9952,Basalt_rect,7,0,7,0,1,
62c63362e7342ad8be294866,TCN,2024-06-11_12h27.39.919,LearnStrategy,2023.2.3,Win32,144.9275362,2,2,9,,,,,,,,6,15,,,,,,,,,,,1,4.176,0,,,,,,-0.392592593,-0.246296296,1,0,0,4.1762,Andesite_rect,8,0,8,0,1,
62c63362e7342ad8be294866,TCN,2024-06-11_12h27.39.919,LearnStrategy,2023.2.3,Win32,144.9275362,2,2,10,,,,,,,,1,07,,,,,,,,,,,3,1.898,0,,,,,,0.171296296,-0.237962963,1,0,0,1.8983,Diorite_rect,9,0,9,0,1,
62c63362e7342ad8be294866,TCN,2024-06-11_12h27.39.919,LearnStrategy,2023.2.3,Win32,144.9275362,2,2,11,,,,,,,,4,14,,,,,,,,,,,2,3.258,0,,,,,,-0.162962963,-0.257407407,1,0,0,3.2579,Basalt_rect,10,0,10,0,1,
62c63362e7342ad8be294866,TCN,2024-06-11_12h27.39.919,LearnStrategy,2023.2.3,Win32,144.9275362,2,2,12,,,,,,,,2,16,,,,,,,,,,,4,5.288,0,,,,,,0.338888889,-0.249074074,1,0,0,5.2883,Gabbro_rect,11,0,11,0,1,
62c63362e7342ad8be294866,TCN,2024-06-11_12h27.39.919,LearnStrategy,2023.2.3,Win32,144.9275362,2,2,13,,,,,,,,7,14,,,,,,,,,,,7,4.092,1,,,,,,0.087962963,-0.401851852,1,0,0,4.092,Peridotite_rect,12,0,12,0,1,
62c63362e7342ad8be294866,TCN,2024-06-11_12h27.39.919,LearnStrategy,2023.2.3,Win32,144.9275362,2,2,14,,,,,,,,8,14,,,,,,,,,,,8,1.182,1,,,,,,0.352777778,-0.389814815,1,0,0,1.1817,Pumice_rect,13,0,13,0,1,
62c63362e7342ad8be294866,TCN,2024-06-11_12h27.39.919,LearnStrategy,2023.2.3,Win32,144.9275362,2,2,15,,,,,,,,7,13,,,,,,,,,,,6,5.152,0,,,,,,-0.123148148,-0.418518519,1,0,0,5.1522,Pegmatite_rect,14,0,14,0,1,
62c63362e7342ad8be294866,TCN,2024-06-11_12h27.39.919,LearnStrategy,2023.2.3,Win32,144.9275362,2,2,16,,,,,,,,5,11,,,,,,,,,,,5,1.493,1,,,,,,-0.385185185,-0.388888889,1,0,0,1.493,Obsidian_rect,15,0,15,0,1,
62c63362e7342ad8be294866,TCN,2024-06-11_12h27.39.919,LearnStrategy,2023.2.3,Win32,144.9275362,3,1,1,0.018518519,-0.010185185,1,0,0,1.5102,rock_grid_rect_2,8,13,-1,-1,1.51,-0.358333333,-0.250925926,1,0,0,5.0588,Andesite_rect,1,5.059,0,0,0,0,0,1,,,,,,,,,,,,,
62c63362e7342ad8be294866,TCN,2024-06-11_12h27.39.919,LearnStrategy,2023.2.3,Win32,144.9275362,3,1,2,-0.016666667,-0.011111111,1,0,0,1.4107,rock_grid_rect_2,6,07,-1,-1,1.411,0.353703704,-0.253703704,1,0,0,2.0514,Gabbro_rect,4,2.051,0,1,0,1,0,1,,,,,,,,,,,,,
62c63362e7342ad8be294866,TCN,2024-06-11_12h27.39.919,LearnStrategy,2023.2.3,Win32,144.9275362,3,1,3,0.016666667,-0.010185185,1,0,0,1.4491,rock_grid_rect_2,4,08,-1,-1,1.449,-0.112962963,-0.239814815,1,0,0,2.6067,Basalt_rect,2,2.607,0,2,0,2,0,1,,,,,,,,,,,,,
62c63362e7342ad8be294866,TCN,2024-06-11_12h27.39.919,LearnStrategy,2023.2.3,Win32,144.9275362,3,1,4,0.001851852,0.009259259,1,0,0,2.0115,rock_grid_rect_2,3,11,-1,-1,2.011,0.143518519,-0.243518519,1,0,0,1.4017,Diorite_rect,3,1.402,1,3,0,3,0,1,,,,,,,,,,,,,
62c63362e7342ad8be294866,TCN,2024-06-11_12h27.39.919,LearnStrategy,2023.2.3,Win32,144.9275362,3,1,5,-0.012962963,-0.007407407,1,0,0,1.4505,rock_grid_rect_2,6,10,-1,-1,1.451,0.089814815,-0.393518519,1,0,0,2.4477,Peridotite_rect,7,2.448,0,4,0,4,0,1,,,,,,,,,,,,,
62c63362e7342ad8be294866,TCN,2024-06-11_12h27.39.919,LearnStrategy,2023.2.3,Win32,144.9275362,3,1,6,-0.008333333,-0.00462963,1,0,0,1.3195,rock_grid_rect_2,4,09,-1,-1,1.319,-0.330555556,-0.392592593,1,0,0,2.7109,Obsidian_rect,5,2.711,0,5,0,5,0,1,,,,,,,,,,,,,
62c63362e7342ad8be294866,TCN,2024-06-11_12h27.39.919,LearnStrategy,2023.2.3,Win32,144.9275362,3,1,7,-0.010185185,0.009259259,1,0,0,1.3234,rock_grid_rect_2,3,13,-1,-1,1.323,0.089814815,-0.408333333,1,0,0,4.6208,Peridotite_rect,7,4.621,0,6,0,6,0,1,,,,,,,,,,,,,
62c63362e7342ad8be294866,TCN,2024-06-11_12h27.39.919,LearnStrategy,2023.2.3,Win32,144.9275362,3,1,8,-0.042592593,0.001851852,1,0,0,1.3102,rock_grid_rect_2,2,08,-1,-1,1.31,-0.15,-0.255555556,1,0,0,1.737,Basalt_rect,2,1.737,1,7,0,7,0,1,,,,,,,,,,,,,
62c63362e7342ad8be294866,TCN,2024-06-11_12h27.39.919,LearnStrategy,2023.2.3,Win32,144.9275362,3,1,9,-0.034259259,0.011111111,1,0,0,1.4299,rock_grid_rect_2,8,10,-1,-1,1.43,0.367592593,-0.407407407,1,0,0,1.5082,Pumice_rect,8,1.508,1,8,0,8,0,1,,,,,,,,,,,,,
62c63362e7342ad8be294866,TCN,2024-06-11_12h27.39.919,LearnStrategy,2023.2.3,Win32,144.9275362,3,1,10,0.008333333,-0.016666667,1,0,0,1.2093,rock_grid_rect_2,7,06,-1,-1,1.209,-0.085185185,-0.409259259,1,0,0,4.7362,Pegmatite_rect,6,4.736,0,9,0,9,0,1,,,,,,,,,,,,,
62c63362e7342ad8be294866,TCN,2024-06-11_12h27.39.919,LearnStrategy,2023.2.3,Win32,144.9275362,3,1,11,-0.007407407,-0.002777778,1,0,0,1.3602,rock_grid_rect_2,7,05,-1,-1,1.36,0.12037037,-0.39537037,1,0,0,2.1861,Peridotite_rect,7,2.186,1,10,0,10,0,1,,,,,,,,,,,,,
62c63362e7342ad8be294866,TCN,2024-06-11_12h27.39.919,LearnStrategy,2023.2.3,Win32,144.9275362,3,1,12,0.026851852,-0.002777778,1,0,0,1.3375,rock_grid_rect_2,1,01,-1,-1,1.337,-0.369444444,-0.236111111,1,0,0,2.8348,Andesite_rect,1,2.835,1,11,0,11,0,1,,,,,,,,,,,,,
62c63362e7342ad8be294866,TCN,2024-06-11_12h27.39.919,LearnStrategy,2023.2.3,Win32,144.9275362,3,1,13,-0.057407407,-0.013888889,1,0,0,1.3753,rock_grid_rect_2,5,09,-1,-1,1.375,-0.350925926,-0.384259259,1,0,0,1.3448,Obsidian_rect,5,1.345,1,12,0,12,0,1,,,,,,,,,,,,,
62c63362e7342ad8be294866,TCN,2024-06-11_12h27.39.919,LearnStrategy,2023.2.3,Win32,144.9275362,3,1,14,-0.022222222,-0.006481481,1,0,0,1.2644,rock_grid_rect_2,5,06,-1,-1,1.264,-0.348148148,-0.386111111,1,0,0,1.3685,Obsidian_rect,5,1.369,1,13,0,13,0,1,,,,,,,,,,,,,
62c63362e7342ad8be294866,TCN,2024-06-11_12h27.39.919,LearnStrategy,2023.2.3,Win32,144.9275362,3,1,15,0.024074074,0.001851852,1,0,0,1.6504,rock_grid_rect_2,1,04,-1,-1,1.65,0.315740741,-0.24537037,1,0,0,2.9402,Gabbro_rect,4,2.94,0,14,0,14,0,1,,,,,,,,,,,,,
62c63362e7342ad8be294866,TCN,2024-06-11_12h27.39.919,LearnStrategy,2023.2.3,Win32,144.9275362,3,1,16,-0.021296296,-0.02037037,1,0,0,1.2899,rock_grid_rect_2,2,11,-1,-1,1.29,0.369444444,-0.399074074,1,0,0,2.2133,Pumice_rect,8,2.213,0,15,0,15,0,1,,,,,,,,,,,,,
62c63362e7342ad8be294866,TCN,2024-06-11_12h27.39.919,LearnStrategy,2023.2.3,Win32,144.9275362,3,2,1,,,,,,,,2,04,,,,,,,,,,,2,1.416,1,,,,,,-0.113888889,-0.236111111,1,0,0,1.4161,Basalt_rect,0,0,0,0,1,
62c63362e7342ad8be294866,TCN,2024-06-11_12h27.39.919,LearnStrategy,2023.2.3,Win32,144.9275362,3,2,2,,,,,,,,4,13,,,,,,,,,,,4,2.675,1,,,,,,0.349074074,-0.249074074,1,0,0,2.6753,Gabbro_rect,1,0,1,0,1,
62c63362e7342ad8be294866,TCN,2024-06-11_12h27.39.919,LearnStrategy,2023.2.3,Win32,144.9275362,3,2,3,,,,,,,,1,09,,,,,,,,,,,6,2.701,0,,,,,,-0.110185185,-0.413888889,1,0,0,2.7007,Pegmatite_rect,2,0,2,0,1,
62c63362e7342ad8be294866,TCN,2024-06-11_12h27.39.919,LearnStrategy,2023.2.3,Win32,144.9275362,3,2,4,,,,,,,,7,16,,,,,,,,,,,7,1.471,1,,,,,,0.133333333,-0.384259259,1,0,0,1.4715,Peridotite_rect,3,0,3,0,1,
62c63362e7342ad8be294866,TCN,2024-06-11_12h27.39.919,LearnStrategy,2023.2.3,Win32,144.9275362,3,2,5,,,,,,,,6,13,,,,,,,,,,,3,4.651,0,,,,,,0.094444444,-0.240740741,1,0,0,4.6512,Diorite_rect,4,0,4,0,1,
62c63362e7342ad8be294866,TCN,2024-06-11_12h27.39.919,LearnStrategy,2023.2.3,Win32,144.9275362,3,2,6,,,,,,,,6,08,,,,,,,,,,,1,4.457,0,,,,,,-0.335185185,-0.249074074,1,0,0,4.4569,Andesite_rect,5,0,5,0,1,
62c63362e7342ad8be294866,TCN,2024-06-11_12h27.39.919,LearnStrategy,2023.2.3,Win32,144.9275362,3,2,7,,,,,,,,5,10,,,,,,,,,,,5,1.334,1,,,,,,-0.351851852,-0.408333333,1,0,0,1.3341,Obsidian_rect,6,0,6,0,1,
62c63362e7342ad8be294866,TCN,2024-06-11_12h27.39.919,LearnStrategy,2023.2.3,Win32,144.9275362,3,2,8,,,,,,,,5,05,,,,,,,,,,,5,1.996,1,,,,,,-0.362037037,-0.401851852,1,0,0,1.9963,Obsidian_rect,7,0,7,0,1,
62c63362e7342ad8be294866,TCN,2024-06-11_12h27.39.919,LearnStrategy,2023.2.3,Win32,144.9275362,3,2,9,,,,,,,,3,02,,,,,,,,,,,3,2.54,1,,,,,,0.198148148,-0.251851852,1,0,0,2.5402,Diorite_rect,8,0,8,0,1,
62c63362e7342ad8be294866,TCN,2024-06-11_12h27.39.919,LearnStrategy,2023.2.3,Win32,144.9275362,3,2,10,,,,,,,,1,11,,,,,,,,,,,4,4.282,0,,,,,,0.435185185,-0.228703704,1,0,0,4.2824,Gabbro_rect,9,0,9,0,1,
62c63362e7342ad8be294866,TCN,2024-06-11_12h27.39.919,LearnStrategy,2023.2.3,Win32,144.9275362,3,2,11,,,,,,,,4,03,,,,,,,,,,,7,2.181,0,,,,,,0.149074074,-0.393518519,1,0,0,2.1809,Peridotite_rect,10,0,10,0,1,
62c63362e7342ad8be294866,TCN,2024-06-11_12h27.39.919,LearnStrategy,2023.2.3,Win32,144.9275362,3,2,12,,,,,,,,8,02,,,,,,,,,,,8,1.288,1,,,,,,0.367592593,-0.393518519,1,0,0,1.2881,Pumice_rect,11,0,11,0,1,
62c63362e7342ad8be294866,TCN,2024-06-11_12h27.39.919,LearnStrategy,2023.2.3,Win32,144.9275362,3,2,13,,,,,,,,7,08,,,,,,,,,,,6,2.637,0,,,,,,-0.138888889,-0.403703704,1,0,0,2.6371,Pegmatite_rect,12,0,12,0,1,
62c63362e7342ad8be294866,TCN,2024-06-11_12h27.39.919,LearnStrategy,2023.2.3,Win32,144.9275362,3,2,14,,,,,,,,8,09,,,,,,,,,,,8,1.854,1,,,,,,0.365740741,-0.381481481,1,0,0,1.8537,Pumice_rect,13,0,13,0,1,
62c63362e7342ad8be294866,TCN,2024-06-11_12h27.39.919,LearnStrategy,2023.2.3,Win32,144.9275362,3,2,15,,,,,,,,3,09,,,,,,,,,,,3,2.453,1,,,,,,0.115740741,-0.248148148,1,0,0,2.4526,Diorite_rect,14,0,14,0,1,
62c63362e7342ad8be294866,TCN,2024-06-11_12h27.39.919,LearnStrategy,2023.2.3,Win32,144.9275362,3,2,16,,,,,,,,2,10,,,,,,,,,,,2,2.916,1,,,,,,-0.137037037,-0.237037037,1,0,0,2.916,Basalt_rect,15,0,15,0,1,
62c63362e7342ad8be294866,TCN,2024-06-11_12h27.39.919,LearnStrategy,2023.2.3,Win32,144.9275362,4,1,1,0.041666667,0.001851852,1,0,0,1.4444,rock_grid_rect_2,2,02,-1,-1,1.444,-0.096296296,-0.238888889,1,0,0,2.1683,Basalt_rect,2,2.168,1,0,0,0,0,1,,,,,,,,,,,,,
62c63362e7342ad8be294866,TCN,2024-06-11_12h27.39.919,LearnStrategy,2023.2.3,Win32,144.9275362,4,1,2,-0.025,-0.022222222,1,0,0,1.5183,rock_grid_rect_2,8,13,-1,-1,1.518,0.32962963,-0.417592593,1,0,0,2.7683,Pumice_rect,8,2.768,1,1,0,1,0,1,,,,,,,,,,,,,
62c63362e7342ad8be294866,TCN,2024-06-11_12h27.39.919,LearnStrategy,2023.2.3,Win32,144.9275362,4,1,3,-0.005555556,-0.009259259,1,0,0,1.8825,rock_grid_rect_2,5,02,-1,-1,1.882,-0.375925926,-0.412037037,1,0,0,1.1843,Obsidian_rect,5,1.184,1,2,0,2,0,1,,,,,,,,,,,,,
62c63362e7342ad8be294866,TCN,2024-06-11_12h27.39.919,LearnStrategy,2023.2.3,Win32,144.9275362,4,1,4,-0.04537037,-0.017592593,1,0,0,1.5157,rock_grid_rect_2,3,14,-1,-1,1.516,0.106481481,-0.266666667,1,0,0,3.3532,Diorite_rect,3,3.353,1,3,0,3,0,1,,,,,,,,,,,,,
62c63362e7342ad8be294866,TCN,2024-06-11_12h27.39.919,LearnStrategy,2023.2.3,Win32,144.9275362,4,1,5,0.000925926,0.001851852,1,0,0,1.3962,rock_grid_rect_2,7,07,-1,-1,1.396,-0.147222222,-0.402777778,1,0,0,3.827,Pegmatite_rect,6,3.827,0,4,0,4,0,1,,,,,,,,,,,,,
62c63362e7342ad8be294866,TCN,2024-06-11_12h27.39.919,LearnStrategy,2023.2.3,Win32,144.9275362,4,1,6,0.012037037,0.014814815,1,0,0,1.2507,rock_grid_rect_2,7,05,-1,-1,1.251,-0.355555556,-0.25,1,0,0,3.389,Andesite_rect,1,3.389,0,5,0,5,0,1,,,,,,,,,,,,,
62c63362e7342ad8be294866,TCN,2024-06-11_12h27.39.919,LearnStrategy,2023.2.3,Win32,144.9275362,4,1,7,0.014814815,0.011111111,1,0,0,1.2269,rock_grid_rect_2,3,13,-1,-1,1.227,0.115740741,-0.232407407,1,0,0,1.5491,Diorite_rect,3,1.549,1,6,0,6,0,1,,,,,,,,,,,,,
62c63362e7342ad8be294866,TCN,2024-06-11_12h27.39.919,LearnStrategy,2023.2.3,Win32,144.9275362,4,1,8,0.006481481,-0.012037037,1,0,0,1.369,rock_grid_rect_2,8,05,-1,-1,1.369,0.359259259,-0.410185185,1,0,0,1.4554,Pumice_rect,8,1.455,1,7,0,7,0,1,,,,,,,,,,,,,
62c63362e7342ad8be294866,TCN,2024-06-11_12h27.39.919,LearnStrategy,2023.2.3,Win32,144.9275362,4,1,9,-0.040740741,-0.011111111,1,0,0,1.3783,rock_grid_rect_2,1,06,-1,-1,1.378,-0.325925926,-0.237962963,1,0,0,2.2501,Andesite_rect,1,2.25,1,8,0,8,0,1,,,,,,,,,,,,,
62c63362e7342ad8be294866,TCN,2024-06-11_12h27.39.919,LearnStrategy,2023.2.3,Win32,144.9275362,4,1,10,-0.05,-0.011111111,1,0,0,1.236,rock_grid_rect_2,2,05,-1,-1,1.236,-0.085185185,-0.237962963,1,0,0,2.5432,Basalt_rect,2,2.543,1,9,0,9,0,1,,,,,,,,,,,,,
62c63362e7342ad8be294866,TCN,2024-06-11_12h27.39.919,LearnStrategy,2023.2.3,Win32,144.9275362,4,1,11,-0.028703704,0.003703704,1,0,0,1.2894,rock_grid_rect_2,5,06,-1,-1,1.289,-0.368518519,-0.39537037,1,0,0,1.9926,Obsidian_rect,5,1.993,1,10,0,10,0,1,,,,,,,,,,,,,
62c63362e7342ad8be294866,TCN,2024-06-11_12h27.39.919,LearnStrategy,2023.2.3,Win32,144.9275362,4,1,12,-0.024074074,-0.012962963,1,0,0,1.3529,rock_grid_rect_2,6,10,-1,-1,1.353,0.163888889,-0.394444444,1,0,0,3.9447,Peridotite_rect,7,3.945,0,11,0,11,0,1,,,,,,,,,,,,,
62c63362e7342ad8be294866,TCN,2024-06-11_12h27.39.919,LearnStrategy,2023.2.3,Win32,144.9275362,4,1,13,-0.012962963,0,1,0,0,1.3439,rock_grid_rect_2,6,07,-1,-1,1.344,-0.135185185,-0.397222222,1,0,0,2.4393,Pegmatite_rect,6,2.439,1,12,0,12,0,1,,,,,,,,,,,,,
62c63362e7342ad8be294866,TCN,2024-06-11_12h27.39.919,LearnStrategy,2023.2.3,Win32,144.9275362,4,1,14,-0.000925926,0.012037037,1,0,0,1.2889,rock_grid_rect_2,4,15,-1,-1,1.289,-0.34537037,-0.24537037,1,0,0,3.2577,Andesite_rect,1,3.258,0,13,0,13,0,1,,,,,,,,,,,,,
62c63362e7342ad8be294866,TCN,2024-06-11_12h27.39.919,LearnStrategy,2023.2.3,Win32,144.9275362,4,1,15,-0.035185185,-0.019444444,1,0,0,1.4444,rock_grid_rect_2,1,01,-1,-1,1.444,-0.174074074,-0.257407407,1,0,0,2.2609,Basalt_rect,2,2.261,0,14,0,14,0,1,,,,,,,,,,,,,
62c63362e7342ad8be294866,TCN,2024-06-11_12h27.39.919,LearnStrategy,2023.2.3,Win32,144.9275362,4,1,16,-0.040740741,0.001851852,1,0,0,1.3454,rock_grid_rect_2,4,12,-1,-1,1.345,-0.190740741,-0.260185185,1,0,0,2.852,Basalt_rect,2,2.852,0,15,0,15,0,1,,,,,,,,,,,,,
62c63362e7342ad8be294866,TCN,2024-06-11_12h27.39.919,LearnStrategy,2023.2.3,Win32,144.9275362,4,2,1,,,,,,,,5,14,,,,,,,,,,,5,1.828,1,,,,,,-0.34537037,-0.39537037,1,0,0,1.8276,Obsidian_rect,0,0,0,0,1,
62c63362e7342ad8be294866,TCN,2024-06-11_12h27.39.919,LearnStrategy,2023.2.3,Win32,144.9275362,4,2,2,,,,,,,,8,16,,,,,,,,,,,8,2.428,1,,,,,,0.383333333,-0.387962963,1,0,0,2.4281,Pumice_rect,1,0,1,0,1,
62c63362e7342ad8be294866,TCN,2024-06-11_12h27.39.919,LearnStrategy,2023.2.3,Win32,144.9275362,4,2,3,,,,,,,,5,11,,,,,,,,,,,5,1.46,1,,,,,,-0.359259259,-0.407407407,1,0,0,1.4603,Obsidian_rect,2,0,2,0,1,
62c63362e7342ad8be294866,TCN,2024-06-11_12h27.39.919,LearnStrategy,2023.2.3,Win32,144.9275362,4,2,4,,,,,,,,6,15,,,,,,,,,,,3,1.501,0,,,,,,0.162037037,-0.237037037,1,0,0,1.5007,Diorite_rect,3,0,3,0,1,
62c63362e7342ad8be294866,TCN,2024-06-11_12h27.39.919,LearnStrategy,2023.2.3,Win32,144.9275362,4,2,5,,,,,,,,7,04,,,,,,,,,,,7,4.135,1,,,,,,0.138888889,-0.417592593,1,0,0,4.1352,Peridotite_rect,4,0,4,0,1,
62c63362e7342ad8be294866,TCN,2024-06-11_12h27.39.919,LearnStrategy,2023.2.3,Win32,144.9275362,4,2,6,,,,,,,,3,15,,,,,,,,,,,3,2.114,1,,,,,,0.107407407,-0.240740741,1,0,0,2.1137,Diorite_rect,5,0,5,0,1,
62c63362e7342ad8be294866,TCN,2024-06-11_12h27.39.919,LearnStrategy,2023.2.3,Win32,144.9275362,4,2,7,,,,,,,,4,16,,,,,,,,,,,1,3.049,0,,,,,,-0.363888889,-0.243518519,1,0,0,3.0487,Andesite_rect,6,0,6,0,1,
62c63362e7342ad8be294866,TCN,2024-06-11_12h27.39.919,LearnStrategy,2023.2.3,Win32,144.9275362,4,2,8,,,,,,,,7,14,,,,,,,,,,,4,2.045,0,,,,,,0.359259259,-0.265740741,1,0,0,2.0454,Gabbro_rect,7,0,7,0,1,
62c63362e7342ad8be294866,TCN,2024-06-11_12h27.39.919,LearnStrategy,2023.2.3,Win32,144.9275362,4,2,9,,,,,,,,6,06,,,,,,,,,,,6,2.486,1,,,,,,-0.163888889,-0.396296296,1,0,0,2.4865,Pegmatite_rect,8,0,8,0,1,
62c63362e7342ad8be294866,TCN,2024-06-11_12h27.39.919,LearnStrategy,2023.2.3,Win32,144.9275362,4,2,10,,,,,,,,4,13,,,,,,,,,,,7,1.847,0,,,,,,0.088888889,-0.402777778,1,0,0,1.847,Peridotite_rect,9,0,9,0,1,
62c63362e7342ad8be294866,TCN,2024-06-11_12h27.39.919,LearnStrategy,2023.2.3,Win32,144.9275362,4,2,11,,,,,,,,1,09,,,,,,,,,,,1,1.861,1,,,,,,-0.358333333,-0.241666667,1,0,0,1.8615,Andesite_rect,10,0,10,0,1,
62c63362e7342ad8be294866,TCN,2024-06-11_12h27.39.919,LearnStrategy,2023.2.3,Win32,144.9275362,4,2,12,,,,,,,,8,14,,,,,,,,,,,8,1.334,1,,,,,,0.389814815,-0.406481481,1,0,0,1.3342,Pumice_rect,11,0,11,0,1,
62c63362e7342ad8be294866,TCN,2024-06-11_12h27.39.919,LearnStrategy,2023.2.3,Win32,144.9275362,4,2,13,,,,,,,,3,10,,,,,,,,,,,3,1.528,1,,,,,,0.090740741,-0.237037037,1,0,0,1.5277,Diorite_rect,12,0,12,0,1,
62c63362e7342ad8be294866,TCN,2024-06-11_12h27.39.919,LearnStrategy,2023.2.3,Win32,144.9275362,4,2,14,,,,,,,,2,10,,,,,,,,,,,2,2.409,1,,,,,,-0.178703704,-0.259259259,1,0,0,2.4085,Basalt_rect,13,0,13,0,1,
62c63362e7342ad8be294866,TCN,2024-06-11_12h27.39.919,LearnStrategy,2023.2.3,Win32,144.9275362,4,2,15,,,,,,,,2,01,,,,,,,,,,,2,2.42,1,,,,,,-0.164814815,-0.237962963,1,0,0,2.4195,Basalt_rect,14,0,14,0,1,
62c63362e7342ad8be294866,TCN,2024-06-11_12h27.39.919,LearnStrategy,2023.2.3,Win32,144.9275362,4,2,16,,,,,,,,1,07,,,,,,,,,,,3,1.282,0,,,,,,0.158333333,-0.260185185,1,0,0,1.2818,Diorite_rect,15,0,15,0,1,
62c63362e7342ad8be294866,TCN,2024-06-11_12h27.39.919,LearnStrategy,2023.2.3,Win32,144.9275362,5,1,1,-0.057407407,0.005555556,1,0,0,1.17,rock_grid_rect_2,2,08,-1,-1,1.17,-0.141666667,-0.257407407,1,0,0,2.3632,Basalt_rect,2,2.363,1,0,0,0,0,1,,,,,,,,,,,,,
62c63362e7342ad8be294866,TCN,2024-06-11_12h27.39.919,LearnStrategy,2023.2.3,Win32,144.9275362,5,1,2,-0.019444444,0.006481481,1,0,0,1.3055,rock_grid_rect_2,8,15,-1,-1,1.305,0.361111111,-0.384259259,1,0,0,1.3137,Pumice_rect,8,1.314,1,1,0,1,0,1,,,,,,,,,,,,,
62c63362e7342ad8be294866,TCN,2024-06-11_12h27.39.919,LearnStrategy,2023.2.3,Win32,144.9275362,5,1,3,-0.021296296,-0.015740741,1,0,0,1.5965,rock_grid_rect_2,1,04,-1,-1,1.596,0.302777778,-0.239814815,1,0,0,2.2542,Gabbro_rect,4,2.254,0,2,0,2,0,1,,,,,,,,,,,,,
62c63362e7342ad8be294866,TCN,2024-06-11_12h27.39.919,LearnStrategy,2023.2.3,Win32,144.9275362,5,1,4,-0.057407407,-0.00462963,1,0,0,1.3691,rock_grid_rect_2,1,03,-1,-1,1.369,-0.365740741,-0.234259259,1,0,0,1.5909,Andesite_rect,1,1.591,1,3,0,3,0,1,,,,,,,,,,,,,
62c63362e7342ad8be294866,TCN,2024-06-11_12h27.39.919,LearnStrategy,2023.2.3,Win32,144.9275362,5,1,5,-0.112037037,0.012037037,1,0,0,1.3339,rock_grid_rect_2,3,16,-1,-1,1.334,0.15,-0.259259259,1,0,0,2.7029,Diorite_rect,3,2.703,1,4,0,4,0,1,,,,,,,,,,,,,
62c63362e7342ad8be294866,TCN,2024-06-11_12h27.39.919,LearnStrategy,2023.2.3,Win32,144.9275362,5,1,6,-0.028703704,-0.006481481,1,0,0,1.2652,rock_grid_rect_2,7,10,-1,-1,1.265,0.05,-0.403703704,1,0,0,4.3548,Peridotite_rect,7,4.355,1,5,0,5,0,1,,,,,,,,,,,,,
62c63362e7342ad8be294866,TCN,2024-06-11_12h27.39.919,LearnStrategy,2023.2.3,Win32,144.9275362,5,1,7,-0.025925926,0.019444444,1,0,0,1.2383,rock_grid_rect_2,6,12,-1,-1,1.238,0.362962963,-0.265740741,1,0,0,3.3474,Gabbro_rect,4,3.347,0,6,0,6,0,1,,,,,,,,,,,,,
62c63362e7342ad8be294866,TCN,2024-06-11_12h27.39.919,LearnStrategy,2023.2.3,Win32,144.9275362,5,1,8,0.04537037,-0.010185185,1,0,0,1.241,rock_grid_rect_2,2,14,-1,-1,1.241,-0.378703704,-0.239814815,1,0,0,5.3262,Andesite_rect,1,5.326,0,7,0,7,0,1,,,,,,,,,,,,,
62c63362e7342ad8be294866,TCN,2024-06-11_12h27.39.919,LearnStrategy,2023.2.3,Win32,144.9275362,5,1,9,-0.003703704,0.019444444,1,0,0,1.2252,rock_grid_rect_2,5,07,-1,-1,1.225,-0.362037037,-0.412037037,1,0,0,1.1872,Obsidian_rect,5,1.187,1,8,0,8,0,1,,,,,,,,,,,,,
62c63362e7342ad8be294866,TCN,2024-06-11_12h27.39.919,LearnStrategy,2023.2.3,Win32,144.9275362,5,1,10,-0.062962963,0,1,0,0,1.1765,rock_grid_rect_2,6,05,-1,-1,1.177,-0.341666667,-0.249074074,1,0,0,3.3991,Andesite_rect,1,3.399,0,9,0,9,0,1,,,,,,,,,,,,,
62c63362e7342ad8be294866,TCN,2024-06-11_12h27.39.919,LearnStrategy,2023.2.3,Win32,144.9275362,5,1,11,0.018518519,0.017592593,1,0,0,1.3581,rock_grid_rect_2,4,08,-1,-1,1.358,-0.367592593,-0.262037037,1,0,0,2.2087,Andesite_rect,1,2.209,0,10,0,10,0,1,,,,,,,,,,,,,
62c63362e7342ad8be294866,TCN,2024-06-11_12h27.39.919,LearnStrategy,2023.2.3,Win32,144.9275362,5,1,12,-0.023148148,0.011111111,1,0,0,1.3413,rock_grid_rect_2,7,06,-1,-1,1.341,0.137037037,-0.249074074,1,0,0,2.9002,Diorite_rect,3,2.9,0,11,0,11,0,1,,,,,,,,,,,,,
62c63362e7342ad8be294866,TCN,2024-06-11_12h27.39.919,LearnStrategy,2023.2.3,Win32,144.9275362,5,1,13,-0.010185185,0.012037037,1,0,0,1.194,rock_grid_rect_2,3,08,-1,-1,1.194,0.108333333,-0.228703704,1,0,0,2.2718,Diorite_rect,3,2.272,1,12,0,12,0,1,,,,,,,,,,,,,
62c63362e7342ad8be294866,TCN,2024-06-11_12h27.39.919,LearnStrategy,2023.2.3,Win32,144.9275362,5,1,14,-0.055555556,-0.001851852,1,0,0,1.2251,rock_grid_rect_2,8,06,-1,-1,1.225,0.348148148,-0.40462963,1,0,0,1.5079,Pumice_rect,8,1.508,1,13,0,13,0,1,,,,,,,,,,,,,
62c63362e7342ad8be294866,TCN,2024-06-11_12h27.39.919,LearnStrategy,2023.2.3,Win32,144.9275362,5,1,15,-0.028703704,0.022222222,1,0,0,1.1489,rock_grid_rect_2,5,16,-1,-1,1.149,-0.415740741,-0.400925926,1,0,0,1.1551,Obsidian_rect,5,1.155,1,14,0,14,0,1,,,,,,,,,,,,,
62c63362e7342ad8be294866,TCN,2024-06-11_12h27.39.919,LearnStrategy,2023.2.3,Win32,144.9275362,5,1,16,-0.022222222,-0.012037037,1,0,0,1.4408,rock_grid_rect_2,4,05,-1,-1,1.441,0.294444444,-0.251851852,1,0,0,5.1475,Gabbro_rect,4,5.148,1,15,0,15,0,1,,,,,,,,,,,,,
62c63362e7342ad8be294866,TCN,2024-06-11_12h27.39.919,LearnStrategy,2023.2.3,Win32,144.9275362,5,2,1,,,,,,,,7,13,,,,,,,,,,,7,3.246,1,,,,,,0.122222222,-0.398148148,1,0,0,3.2465,Peridotite_rect,0,0,0,0,1,
62c63362e7342ad8be294866,TCN,2024-06-11_12h27.39.919,LearnStrategy,2023.2.3,Win32,144.9275362,5,2,2,,,,,,,,8,09,,,,,,,,,,,8,2.271,1,,,,,,0.37037037,-0.396296296,1,0,0,2.2712,Pumice_rect,1,0,1,0,1,
62c63362e7342ad8be294866,TCN,2024-06-11_12h27.39.919,LearnStrategy,2023.2.3,Win32,144.9275362,5,2,3,,,,,,,,3,02,,,,,,,,,,,3,2.316,1,,,,,,0.097222222,-0.235185185,1,0,0,2.3155,Diorite_rect,2,0,2,0,1,
62c63362e7342ad8be294866,TCN,2024-06-11_12h27.39.919,LearnStrategy,2023.2.3,Win32,144.9275362,5,2,4,,,,,,,,4,03,,,,,,,,,,,1,1.971,0,,,,,,-0.37037037,-0.246296296,1,0,0,1.971,Andesite_rect,3,0,3,0,1,
62c63362e7342ad8be294866,TCN,2024-06-11_12h27.39.919,LearnStrategy,2023.2.3,Win32,144.9275362,5,2,5,,,,,,,,3,07,,,,,,,,,,,3,1.655,1,,,,,,0.112962963,-0.249074074,1,0,0,1.6555,Diorite_rect,4,0,4,0,1,
62c63362e7342ad8be294866,TCN,2024-06-11_12h27.39.919,LearnStrategy,2023.2.3,Win32,144.9275362,5,2,6,,,,,,,,1,10,,,,,,,,,,,6,3.148,0,,,,,,-0.140740741,-0.405555556,1,0,0,3.1483,Pegmatite_rect,5,0,5,0,1,
62c63362e7342ad8be294866,TCN,2024-06-11_12h27.39.919,LearnStrategy,2023.2.3,Win32,144.9275362,5,2,7,,,,,,,,1,16,,,,,,,,,,,7,1.872,0,,,,,,0.102777778,-0.392592593,1,0,0,1.8724,Peridotite_rect,6,0,6,0,1,
62c63362e7342ad8be294866,TCN,2024-06-11_12h27.39.919,LearnStrategy,2023.2.3,Win32,144.9275362,5,2,8,,,,,,,,6,09,,,,,,,,,,,6,2.018,1,,,,,,-0.109259259,-0.392592593,1,0,0,2.0176,Pegmatite_rect,7,0,7,0,1,
62c63362e7342ad8be294866,TCN,2024-06-11_12h27.39.919,LearnStrategy,2023.2.3,Win32,144.9275362,5,2,9,,,,,,,,7,15,,,,,,,,,,,3,2.924,0,,,,,,0.146296296,-0.233333333,1,0,0,2.9236,Diorite_rect,8,0,8,0,1,
62c63362e7342ad8be294866,TCN,2024-06-11_12h27.39.919,LearnStrategy,2023.2.3,Win32,144.9275362,5,2,10,,,,,,,,2,12,,,,,,,,,,,2,1.771,1,,,,,,-0.111111111,-0.249074074,1,0,0,1.7713,Basalt_rect,9,0,9,0,1,
62c63362e7342ad8be294866,TCN,2024-06-11_12h27.39.919,LearnStrategy,2023.2.3,Win32,144.9275362,5,2,11,,,,,,,,6,16,,,,,,,,,,,1,1.983,0,,,,,,-0.39537037,-0.250925926,1,0,0,1.9826,Andesite_rect,10,0,10,0,1,
62c63362e7342ad8be294866,TCN,2024-06-11_12h27.39.919,LearnStrategy,2023.2.3,Win32,144.9275362,5,2,12,,,,,,,,8,08,,,,,,,,,,,8,2.029,1,,,,,,0.353703704,-0.384259259,1,0,0,2.0294,Pumice_rect,11,0,11,0,1,
62c63362e7342ad8be294866,TCN,2024-06-11_12h27.39.919,LearnStrategy,2023.2.3,Win32,144.9275362,5,2,13,,,,,,,,5,05,,,,,,,,,,,5,1.739,1,,,,,,-0.336111111,-0.414814815,1,0,0,1.739,Obsidian_rect,12,0,12,0,1,
62c63362e7342ad8be294866,TCN,2024-06-11_12h27.39.919,LearnStrategy,2023.2.3,Win32,144.9275362,5,2,14,,,,,,,,4,11,,,,,,,,,,,2,2.778,0,,,,,,-0.106481481,-0.248148148,1,0,0,2.7784,Basalt_rect,13,0,13,0,1,
62c63362e7342ad8be294866,TCN,2024-06-11_12h27.39.919,LearnStrategy,2023.2.3,Win32,144.9275362,5,2,15,,,,,,,,2,04,,,,,,,,,,,2,2.225,1,,,,,,-0.176851852,-0.247222222,1,0,0,2.2246,Basalt_rect,14,0,14,0,1,
62c63362e7342ad8be294866,TCN,2024-06-11_12h27.39.919,LearnStrategy,2023.2.3,Win32,144.9275362,5,2,16,,,,,,,,5,12,,,,,,,,,,,5,2.261,1,,,,,,-0.384259259,-0.397222222,1,0,0,2.2608,Obsidian_rect,15,0,15,0,1,
62c63362e7342ad8be294866,TCN,2024-06-11_12h27.39.919,LearnStrategy,2023.2.3,Win32,144.9275362,6,1,1,0.010185185,-0.007407407,1,0,0,1.3308,rock_grid_rect_2,7,02,-1,-1,1.331,0.1,-0.242592593,1,0,0,1.6975,Diorite_rect,3,1.697,0,0,0,0,0,1,,,,,,,,,,,,,
62c63362e7342ad8be294866,TCN,2024-06-11_12h27.39.919,LearnStrategy,2023.2.3,Win32,144.9275362,6,1,2,-0.060185185,0.007407407,1,0,0,1.2051,rock_grid_rect_2,4,09,-1,-1,1.205,-0.088888889,-0.412962963,1,0,0,4.5215,Pegmatite_rect,6,4.521,0,1,0,1,0,1,,,,,,,,,,,,,
62c63362e7342ad8be294866,TCN,2024-06-11_12h27.39.919,LearnStrategy,2023.2.3,Win32,144.9275362,6,1,3,-0.025925926,0.011111111,1,0,0,1.2078,rock_grid_rect_2,6,11,-1,-1,1.208,-0.353703704,-0.22962963,1,0,0,1.7367,Andesite_rect,1,1.737,0,2,0,2,0,1,,,,,,,,,,,,,
62c63362e7342ad8be294866,TCN,2024-06-11_12h27.39.919,LearnStrategy,2023.2.3,Win32,144.9275362,6,1,4,-0.085185185,-0.025,1,0,0,1.6703,rock_grid_rect_2,5,04,-1,-1,1.67,-0.353703704,-0.4,1,0,0,1.2845,Obsidian_rect,5,1.285,1,3,0,3,0,1,,,,,,,,,,,,,
62c63362e7342ad8be294866,TCN,2024-06-11_12h27.39.919,LearnStrategy,2023.2.3,Win32,144.9275362,6,1,5,-0.044444444,-0.005555556,1,0,0,1.2853,rock_grid_rect_2,8,10,-1,-1,1.285,0.385185185,-0.387962963,1,0,0,2.2736,Pumice_rect,8,2.274,1,4,0,4,0,1,,,,,,,,,,,,,
62c63362e7342ad8be294866,TCN,2024-06-11_12h27.39.919,LearnStrategy,2023.2.3,Win32,144.9275362,6,1,6,-0.038888889,0.003703704,1,0,0,1.1958,rock_grid_rect_2,8,04,-1,-1,1.196,0.342592593,-0.396296296,1,0,0,1.749,Pumice_rect,8,1.749,1,5,0,5,0,1,,,,,,,,,,,,,
62c63362e7342ad8be294866,TCN,2024-06-11_12h27.39.919,LearnStrategy,2023.2.3,Win32,144.9275362,6,1,7,-0.078703704,0,1,0,0,1.353,rock_grid_rect_2,2,09,-1,-1,1.353,-0.223148148,-0.231481481,1,0,0,1.9243,Basalt_rect,2,1.924,1,6,0,6,0,1,,,,,,,,,,,,,
62c63362e7342ad8be294866,TCN,2024-06-11_12h27.39.919,LearnStrategy,2023.2.3,Win32,144.9275362,6,1,8,-0.007407407,-0.005555556,1,0,0,1.776,rock_grid_rect_2,1,02,-1,-1,1.776,-0.122222222,-0.410185185,1,0,0,17.566,Pegmatite_rect,6,17.566,0,7,0,7,0,1,,,,,,,,,,,,,
62c63362e7342ad8be294866,TCN,2024-06-11_12h27.39.919,LearnStrategy,2023.2.3,Win32,144.9275362,6,1,9,-0.028703704,-0.015740741,1,0,0,1.4253,rock_grid_rect_2,1,05,-1,-1,1.425,0.121296296,-0.412037037,1,0,0,2.8244,Peridotite_rect,7,2.824,0,8,0,8,0,1,,,,,,,,,,,,,
62c63362e7342ad8be294866,TCN,2024-06-11_12h27.39.919,LearnStrategy,2023.2.3,Win32,144.9275362,6,1,10,-0.018518519,-0.012037037,1,0,0,1.2061,rock_grid_rect_2,3,12,-1,-1,1.206,0.151851852,-0.256481481,1,0,0,1.3907,Diorite_rect,3,1.391,1,9,0,9,0,1,,,,,,,,,,,,,
62c63362e7342ad8be294866,TCN,2024-06-11_12h27.39.919,LearnStrategy,2023.2.3,Win32,144.9275362,6,1,11,-0.021296296,-0.008333333,1,0,0,1.3422,rock_grid_rect_2,6,03,-1,-1,1.342,-0.388888889,-0.25,1,0,0,1.733,Andesite_rect,1,1.733,0,10,0,10,0,1,,,,,,,,,,,,,
62c63362e7342ad8be294866,TCN,2024-06-11_12h27.39.919,LearnStrategy,2023.2.3,Win32,144.9275362,6,1,12,-0.023148148,-0.023148148,1,0,0,1.3016,rock_grid_rect_2,7,12,-1,-1,1.302,-0.066666667,-0.390740741,1,0,0,1.93,Pegmatite_rect,6,1.93,0,11,0,11,0,1,,,,,,,,,,,,,
62c63362e7342ad8be294866,TCN,2024-06-11_12h27.39.919,LearnStrategy,2023.2.3,Win32,144.9275362,6,1,13,-0.065740741,-0.002777778,1,0,0,1.2077,rock_grid_rect_2,5,09,-1,-1,1.208,-0.343518519,-0.397222222,1,0,0,1.2846,Obsidian_rect,5,1.285,1,12,0,12,0,1,,,,,,,,,,,,,
62c63362e7342ad8be294866,TCN,2024-06-11_12h27.39.919,LearnStrategy,2023.2.3,Win32,144.9275362,6,1,14,-0.037037037,-0.006481481,1,0,0,1.4457,rock_grid_rect_2,3,11,-1,-1,1.446,0.072222222,-0.239814815,1,0,0,1.7031,Diorite_rect,3,1.703,1,13,0,13,0,1,,,,,,,,,,,,,
62c63362e7342ad8be294866,TCN,2024-06-11_12h27.39.919,LearnStrategy,2023.2.3,Win32,144.9275362,6,1,15,-0.07037037,0.02037037,1,0,0,1.233,rock_grid_rect_2,4,10,-1,-1,1.233,-0.142592593,-0.25462963,1,0,0,3.6667,Basalt_rect,2,3.667,0,14,0,14,0,1,,,,,,,,,,,,,
62c63362e7342ad8be294866,TCN,2024-06-11_12h27.39.919,LearnStrategy,2023.2.3,Win32,144.9275362,6,1,16,-0.044444444,-0.008333333,1,0,0,1.3577,rock_grid_rect_2,2,11,-1,-1,1.358,0.351851852,-0.416666667,1,0,0,2.7354,Pumice_rect,8,2.735,0,15,0,15,0,1,,,,,,,,,,,,,
62c63362e7342ad8be294866,TCN,2024-06-11_12h27.39.919,LearnStrategy,2023.2.3,Win32,144.9275362,6,2,1,,,,,,,,5,10,,,,,,,,,,,5,1.351,1,,,,,,-0.380555556,-0.391666667,1,0,0,1.3515,Obsidian_rect,0,0,0,0,1,
62c63362e7342ad8be294866,TCN,2024-06-11_12h27.39.919,LearnStrategy,2023.2.3,Win32,144.9275362,6,2,2,,,,,,,,1,14,,,,,,,,,,,1,3.229,1,,,,,,-0.360185185,-0.244444444,1,0,0,3.2289,Andesite_rect,1,0,1,0,1,
62c63362e7342ad8be294866,TCN,2024-06-11_12h27.39.919,LearnStrategy,2023.2.3,Win32,144.9275362,6,2,3,,,,,,,,6,13,,,,,,,,,,,7,2.26,0,,,,,,0.101851852,-0.401851852,1,0,0,2.2597,Peridotite_rect,2,0,2,0,1,
62c63362e7342ad8be294866,TCN,2024-06-11_12h27.39.919,LearnStrategy,2023.2.3,Win32,144.9275362,6,2,4,,,,,,,,2,06,,,,,,,,,,,2,2.772,1,,,,,,-0.137037037,-0.238888889,1,0,0,2.7722,Basalt_rect,3,0,3,0,1,
62c63362e7342ad8be294866,TCN,2024-06-11_12h27.39.919,LearnStrategy,2023.2.3,Win32,144.9275362,6,2,5,,,,,,,,3,09,,,,,,,,,,,3,1.525,1,,,,,,0.124074074,-0.237962963,1,0,0,1.5255,Diorite_rect,4,0,4,0,1,
62c63362e7342ad8be294866,TCN,2024-06-11_12h27.39.919,LearnStrategy,2023.2.3,Win32,144.9275362,6,2,6,,,,,,,,1,11,,,,,,,,,,,4,4.044,0,,,,,,0.47962963,-0.242592593,1,0,0,4.0439,Gabbro_rect,5,0,5,0,1,
62c63362e7342ad8be294866,TCN,2024-06-11_12h27.39.919,LearnStrategy,2023.2.3,Win32,144.9275362,6,2,7,,,,,,,,7,16,,,,,,,,,,,7,5.799,1,,,,,,0.075925926,-0.396296296,1,0,0,5.7989,Peridotite_rect,6,0,6,0,1,
62c63362e7342ad8be294866,TCN,2024-06-11_12h27.39.919,LearnStrategy,2023.2.3,Win32,144.9275362,6,2,8,,,,,,,,5,08,,,,,,,,,,,5,2.071,1,,,,,,-0.417592593,-0.382407407,1,0,0,2.0713,Obsidian_rect,7,0,7,0,1,
62c63362e7342ad8be294866,TCN,2024-06-11_12h27.39.919,LearnStrategy,2023.2.3,Win32,144.9275362,6,2,9,,,,,,,,8,03,,,,,,,,,,,8,1.448,1,,,,,,0.401851852,-0.4,1,0,0,1.448,Pumice_rect,8,0,8,0,1,
62c63362e7342ad8be294866,TCN,2024-06-11_12h27.39.919,LearnStrategy,2023.2.3,Win32,144.9275362,6,2,10,,,,,,,,7,08,,,,,,,,,,,4,3.893,0,,,,,,0.40462963,-0.231481481,1,0,0,3.8934,Gabbro_rect,9,0,9,0,1,
62c63362e7342ad8be294866,TCN,2024-06-11_12h27.39.919,LearnStrategy,2023.2.3,Win32,144.9275362,6,2,11,,,,,,,,8,02,,,,,,,,,,,8,1.316,1,,,,,,0.355555556,-0.382407407,1,0,0,1.3164,Pumice_rect,10,0,10,0,1,
62c63362e7342ad8be294866,TCN,2024-06-11_12h27.39.919,LearnStrategy,2023.2.3,Win32,144.9275362,6,2,12,,,,,,,,4,14,,,,,,,,,,,1,2.139,0,,,,,,-0.356481481,-0.237037037,1,0,0,2.139,Andesite_rect,11,0,11,0,1,
62c63362e7342ad8be294866,TCN,2024-06-11_12h27.39.919,LearnStrategy,2023.2.3,Win32,144.9275362,6,2,13,,,,,,,,4,01,,,,,,,,,,,6,3.821,0,,,,,,-0.121296296,-0.396296296,1,0,0,3.8209,Pegmatite_rect,12,0,12,0,1,
62c63362e7342ad8be294866,TCN,2024-06-11_12h27.39.919,LearnStrategy,2023.2.3,Win32,144.9275362,6,2,14,,,,,,,,2,16,,,,,,,,,,,2,2.415,1,,,,,,-0.134259259,-0.253703704,1,0,0,2.4147,Basalt_rect,13,0,13,0,1,
62c63362e7342ad8be294866,TCN,2024-06-11_12h27.39.919,LearnStrategy,2023.2.3,Win32,144.9275362,6,2,15,,,,,,,,6,08,,,,,,,,,,,7,2.798,0,,,,,,0.10462963,-0.421296296,1,0,0,2.7983,Peridotite_rect,14,0,14,0,1,
62c63362e7342ad8be294866,TCN,2024-06-11_12h27.39.919,LearnStrategy,2023.2.3,Win32,144.9275362,6,2,16,,,,,,,,3,06,,,,,,,,,,,3,1.437,1,,,,,,0.137962963,-0.250925926,1,0,0,1.437,Diorite_rect,15,0,15,0,1,
62c63362e7342ad8be294866,TCN,2024-06-11_12h27.39.919,LearnStrategy,2023.2.3,Win32,144.9275362,7,1,1,-0.001851852,-0.002777778,1,0,0,1.0666,rock_grid_rect_2,3,08,-1,-1,1.067,0.139814815,-0.241666667,1,0,0,1.3847,Diorite_rect,3,1.385,1,0,0,0,0,1,,,,,,,,,,,,,
62c63362e7342ad8be294866,TCN,2024-06-11_12h27.39.919,LearnStrategy,2023.2.3,Win32,144.9275362,7,1,2,-0.093518519,-0.011111111,1,0,0,1.5561,rock_grid_rect_2,5,02,-1,-1,1.556,-0.373148148,-0.409259259,1,0,0,1.3061,Obsidian_rect,5,1.306,1,1,0,1,0,1,,,,,,,,,,,,,
62c63362e7342ad8be294866,TCN,2024-06-11_12h27.39.919,LearnStrategy,2023.2.3,Win32,144.9275362,7,1,3,-0.022222222,-0.016666667,1,0,0,1.3125,rock_grid_rect_2,1,05,-1,-1,1.313,-0.362962963,-0.236111111,1,0,0,3.0515,Andesite_rect,1,3.052,1,2,0,2,0,1,,,,,,,,,,,,,
62c63362e7342ad8be294866,TCN,2024-06-11_12h27.39.919,LearnStrategy,2023.2.3,Win32,144.9275362,7,1,4,-0.003703704,-0.002777778,1,0,0,1.5145,rock_grid_rect_2,2,11,-1,-1,1.514,-0.109259259,-0.24537037,1,0,0,2.8793,Basalt_rect,2,2.879,1,3,0,3,0,1,,,,,,,,,,,,,
62c63362e7342ad8be294866,TCN,2024-06-11_12h27.39.919,LearnStrategy,2023.2.3,Win32,144.9275362,7,1,5,-0.038888889,-0.016666667,1,0,0,1.3171,rock_grid_rect_2,7,02,-1,-1,1.317,0.369444444,-0.255555556,1,0,0,1.6339,Gabbro_rect,4,1.634,0,4,0,4,0,1,,,,,,,,,,,,,
62c63362e7342ad8be294866,TCN,2024-06-11_12h27.39.919,LearnStrategy,2023.2.3,Win32,144.9275362,7,1,6,0,-0.001851852,1,0,0,1.1975,rock_grid_rect_2,6,07,-1,-1,1.197,-0.108333333,-0.396296296,1,0,0,1.8909,Pegmatite_rect,6,1.891,1,5,0,5,0,1,,,,,,,,,,,,,
62c63362e7342ad8be294866,TCN,2024-06-11_12h27.39.919,LearnStrategy,2023.2.3,Win32,144.9275362,7,1,7,-0.060185185,0.018518519,1,0,0,1.306,rock_grid_rect_2,3,13,-1,-1,1.306,-0.099074074,-0.397222222,1,0,0,1.4863,Pegmatite_rect,6,1.486,0,6,0,6,0,1,,,,,,,,,,,,,
62c63362e7342ad8be294866,TCN,2024-06-11_12h27.39.919,LearnStrategy,2023.2.3,Win32,144.9275362,7,1,8,-0.006481481,-0.001851852,1,0,0,1.3525,rock_grid_rect_2,5,16,-1,-1,1.352,-0.340740741,-0.386111111,1,0,0,1.3633,Obsidian_rect,5,1.363,1,7,0,7,0,1,,,,,,,,,,,,,
62c63362e7342ad8be294866,TCN,2024-06-11_12h27.39.919,LearnStrategy,2023.2.3,Win32,144.9275362,7,1,9,0.010185185,-0.013888889,1,0,0,1.1877,rock_grid_rect_2,4,09,-1,-1,1.188,-0.322222222,-0.248148148,1,0,0,2.6677,Andesite_rect,1,2.668,0,8,0,8,0,1,,,,,,,,,,,,,
62c63362e7342ad8be294866,TCN,2024-06-11_12h27.39.919,LearnStrategy,2023.2.3,Win32,144.9275362,7,1,10,0.040740741,-0.00462963,1,0,0,1.3004,rock_grid_rect_2,8,15,-1,-1,1.3,0.351851852,-0.388888889,1,0,0,3.3091,Pumice_rect,8,3.309,1,9,0,9,0,1,,,,,,,,,,,,,
62c63362e7342ad8be294866,TCN,2024-06-11_12h27.39.919,LearnStrategy,2023.2.3,Win32,144.9275362,7,1,11,-0.016666667,-0.003703704,1,0,0,1.1737,rock_grid_rect_2,6,10,-1,-1,1.174,0.097222222,-0.381481481,1,0,0,3.4748,Peridotite_rect,7,3.475,0,10,0,10,0,1,,,,,,,,,,,,,
62c63362e7342ad8be294866,TCN,2024-06-11_12h27.39.919,LearnStrategy,2023.2.3,Win32,144.9275362,7,1,12,0.028703704,-0.003703704,1,0,0,1.4742,rock_grid_rect_2,8,10,-1,-1,1.474,0.32037037,-0.384259259,1,0,0,1.5644,Pumice_rect,8,1.564,1,11,0,11,0,1,,,,,,,,,,,,,
62c63362e7342ad8be294866,TCN,2024-06-11_12h27.39.919,LearnStrategy,2023.2.3,Win32,144.9275362,7,1,13,-0.05462963,0.002777778,1,0,0,1.1948,rock_grid_rect_2,1,03,-1,-1,1.195,-0.387037037,-0.238888889,1,0,0,2.6489,Andesite_rect,1,2.649,1,12,0,12,0,1,,,,,,,,,,,,,
62c63362e7342ad8be294866,TCN,2024-06-11_12h27.39.919,LearnStrategy,2023.2.3,Win32,144.9275362,7,1,14,-0.007407407,-0.011111111,1,0,0,1.2053,rock_grid_rect_2,7,10,-1,-1,1.205,0.055555556,-0.403703704,1,0,0,3.5605,Peridotite_rect,7,3.561,1,13,0,13,0,1,,,,,,,,,,,,,
62c63362e7342ad8be294866,TCN,2024-06-11_12h27.39.919,LearnStrategy,2023.2.3,Win32,144.9275362,7,1,15,0.013888889,-0.00462963,1,0,0,1.4376,rock_grid_rect_2,4,05,-1,-1,1.438,-0.141666667,-0.388888889,1,0,0,1.7556,Pegmatite_rect,6,1.756,0,14,0,14,0,1,,,,,,,,,,,,,
62c63362e7342ad8be294866,TCN,2024-06-11_12h27.39.919,LearnStrategy,2023.2.3,Win32,144.9275362,7,1,16,-0.05462963,-0.005555556,1,0,0,1.2966,rock_grid_rect_2,2,09,-1,-1,1.297,-0.156481481,-0.234259259,1,0,0,1.6744,Basalt_rect,2,1.674,1,15,0,15,0,1,,,,,,,,,,,,,
62c63362e7342ad8be294866,TCN,2024-06-11_12h27.39.919,LearnStrategy,2023.2.3,Win32,144.9275362,7,2,1,,,,,,,,8,14,,,,,,,,,,,8,1.517,1,,,,,,0.362037037,-0.387962963,1,0,0,1.5171,Pumice_rect,0,0,0,0,1,
62c63362e7342ad8be294866,TCN,2024-06-11_12h27.39.919,LearnStrategy,2023.2.3,Win32,144.9275362,7,2,2,,,,,,,,5,08,,,,,,,,,,,5,1.924,1,,,,,,-0.362037037,-0.398148148,1,0,0,1.9236,Obsidian_rect,1,0,1,0,1,
62c63362e7342ad8be294866,TCN,2024-06-11_12h27.39.919,LearnStrategy,2023.2.3,Win32,144.9275362,7,2,3,,,,,,,,2,16,,,,,,,,,,,2,2.105,1,,,,,,-0.19537037,-0.249074074,1,0,0,2.1047,Basalt_rect,2,0,2,0,1,
62c63362e7342ad8be294866,TCN,2024-06-11_12h27.39.919,LearnStrategy,2023.2.3,Win32,144.9275362,7,2,4,,,,,,,,7,14,,,,,,,,,,,3,2.032,0,,,,,,0.075925926,-0.260185185,1,0,0,2.0317,Diorite_rect,3,0,3,0,1,
62c63362e7342ad8be294866,TCN,2024-06-11_12h27.39.919,LearnStrategy,2023.2.3,Win32,144.9275362,7,2,5,,,,,,,,4,01,,,,,,,,,,,6,1.975,0,,,,,,-0.102777778,-0.384259259,1,0,0,1.9752,Pegmatite_rect,4,0,4,0,1,
62c63362e7342ad8be294866,TCN,2024-06-11_12h27.39.919,LearnStrategy,2023.2.3,Win32,144.9275362,7,2,6,,,,,,,,3,06,,,,,,,,,,,3,1.424,1,,,,,,0.076851852,-0.237037037,1,0,0,1.4245,Diorite_rect,5,0,5,0,1,
62c63362e7342ad8be294866,TCN,2024-06-11_12h27.39.919,LearnStrategy,2023.2.3,Win32,144.9275362,7,2,7,,,,,,,,4,13,,,,,,,,,,,4,3.602,1,,,,,,0.319444444,-0.262037037,1,0,0,3.6023,Gabbro_rect,6,0,6,0,1,
62c63362e7342ad8be294866,TCN,2024-06-11_12h27.39.919,LearnStrategy,2023.2.3,Win32,144.9275362,7,2,8,,,,,,,,8,08,,,,,,,,,,,8,1.729,1,,,,,,0.32037037,-0.394444444,1,0,0,1.7289,Pumice_rect,7,0,7,0,1,
62c63362e7342ad8be294866,TCN,2024-06-11_12h27.39.919,LearnStrategy,2023.2.3,Win32,144.9275362,7,2,9,,,,,,,,2,01,,,,,,,,,,,2,1.515,1,,,,,,-0.180555556,-0.255555556,1,0,0,1.5154,Basalt_rect,8,0,8,0,1,
62c63362e7342ad8be294866,TCN,2024-06-11_12h27.39.919,LearnStrategy,2023.2.3,Win32,144.9275362,7,2,10,,,,,,,,5,10,,,,,,,,,,,5,2.423,1,,,,,,-0.359259259,-0.389814815,1,0,0,2.4229,Obsidian_rect,9,0,9,0,1,
62c63362e7342ad8be294866,TCN,2024-06-11_12h27.39.919,LearnStrategy,2023.2.3,Win32,144.9275362,7,2,11,,,,,,,,6,06,,,,,,,,,,,6,2.198,1,,,,,,-0.112962963,-0.402777778,1,0,0,2.198,Pegmatite_rect,10,0,10,0,1,
62c63362e7342ad8be294866,TCN,2024-06-11_12h27.39.919,LearnStrategy,2023.2.3,Win32,144.9275362,7,2,12,,,,,,,,1,10,,,,,,,,,,,1,2.296,1,,,,,,-0.389814815,-0.249074074,1,0,0,2.2964,Andesite_rect,11,0,11,0,1,
62c63362e7342ad8be294866,TCN,2024-06-11_12h27.39.919,LearnStrategy,2023.2.3,Win32,144.9275362,7,2,13,,,,,,,,6,09,,,,,,,,,,,7,3.43,0,,,,,,0.077777778,-0.402777778,1,0,0,3.4298,Peridotite_rect,12,0,12,0,1,
62c63362e7342ad8be294866,TCN,2024-06-11_12h27.39.919,LearnStrategy,2023.2.3,Win32,144.9275362,7,2,14,,,,,,,,7,15,,,,,,,,,,,4,2.664,0,,,,,,0.378703704,-0.244444444,1,0,0,2.6642,Gabbro_rect,13,0,13,0,1,
62c63362e7342ad8be294866,TCN,2024-06-11_12h27.39.919,LearnStrategy,2023.2.3,Win32,144.9275362,7,2,15,,,,,,,,3,02,,,,,,,,,,,3,1.459,1,,,,,,0.084259259,-0.261111111,1,0,0,1.459,Diorite_rect,14,0,14,0,1,
62c63362e7342ad8be294866,TCN,2024-06-11_12h27.39.919,LearnStrategy,2023.2.3,Win32,144.9275362,7,2,16,,,,,,,,1,16,,,,,,,,,,,6,2.958,0,,,,,,-0.107407407,-0.387962963,1,0,0,2.958,Pegmatite_rect,15,0,15,0,1,
62c63362e7342ad8be294866,TCN,2024-06-11_12h27.39.919,LearnStrategy,2023.2.3,Win32,144.9275362,8,1,1,-0.075,0.003703704,1,0,0,1.018,rock_grid_rect_2,5,06,-1,-1,1.018,-0.34537037,-0.380555556,1,0,0,1.9933,Obsidian_rect,5,1.993,1,0,0,0,0,1,,,,,,,,,,,,,
62c63362e7342ad8be294866,TCN,2024-06-11_12h27.39.919,LearnStrategy,2023.2.3,Win32,144.9275362,8,1,2,-0.021296296,0.000925926,1,0,0,1.2549,rock_grid_rect_2,1,06,-1,-1,1.255,-0.362037037,-0.241666667,1,0,0,1.7434,Andesite_rect,1,1.743,1,1,0,1,0,1,,,,,,,,,,,,,
62c63362e7342ad8be294866,TCN,2024-06-11_12h27.39.919,LearnStrategy,2023.2.3,Win32,144.9275362,8,1,3,-0.058333333,-0.014814815,1,0,0,1.3759,rock_grid_rect_2,1,02,-1,-1,1.376,-0.364814815,-0.231481481,1,0,0,2.0676,Andesite_rect,1,2.068,1,2,0,2,0,1,,,,,,,,,,,,,
62c63362e7342ad8be294866,TCN,2024-06-11_12h27.39.919,LearnStrategy,2023.2.3,Win32,144.9275362,8,1,4,-0.066666667,-0.003703704,1,0,0,1.5607,rock_grid_rect_2,7,07,-1,-1,1.561,0.097222222,-0.396296296,1,0,0,2.5695,Peridotite_rect,7,2.57,1,3,0,3,0,1,,,,,,,,,,,,,
62c63362e7342ad8be294866,TCN,2024-06-11_12h27.39.919,LearnStrategy,2023.2.3,Win32,144.9275362,8,1,5,-0.031481481,-0.025,1,0,0,1.369,rock_grid_rect_2,2,14,-1,-1,1.369,-0.103703704,-0.399074074,1,0,0,3.2226,Pegmatite_rect,6,3.223,0,4,0,4,0,1,,,,,,,,,,,,,
62c63362e7342ad8be294866,TCN,2024-06-11_12h27.39.919,LearnStrategy,2023.2.3,Win32,144.9275362,8,1,6,-0.099074074,0.013888889,1,0,0,1.2367,rock_grid_rect_2,6,05,-1,-1,1.237,-0.136111111,-0.384259259,1,0,0,2.433,Pegmatite_rect,6,2.433,1,5,0,5,0,1,,,,,,,,,,,,,
62c63362e7342ad8be294866,TCN,2024-06-11_12h27.39.919,LearnStrategy,2023.2.3,Win32,144.9275362,8,1,7,-0.083333333,-0.022222222,1,0,0,1.3156,rock_grid_rect_2,3,16,-1,-1,1.316,0.137962963,-0.25462963,1,0,0,1.587,Diorite_rect,3,1.587,1,6,0,6,0,1,,,,,,,,,,,,,
62c63362e7342ad8be294866,TCN,2024-06-11_12h27.39.919,LearnStrategy,2023.2.3,Win32,144.9275362,8,1,8,0.015740741,-0.016666667,1,0,0,1.3211,rock_grid_rect_2,6,11,-1,-1,1.321,-0.147222222,-0.415740741,1,0,0,1.4301,Pegmatite_rect,6,1.43,1,7,0,7,0,1,,,,,,,,,,,,,
62c63362e7342ad8be294866,TCN,2024-06-11_12h27.39.919,LearnStrategy,2023.2.3,Win32,144.9275362,8,1,9,-0.063888889,0.003703704,1,0,0,1.1716,rock_grid_rect_2,4,10,-1,-1,1.172,-0.159259259,-0.24537037,1,0,0,1.973,Basalt_rect,2,1.973,0,8,0,8,0,1,,,,,,,,,,,,,
62c63362e7342ad8be294866,TCN,2024-06-11_12h27.39.919,LearnStrategy,2023.2.3,Win32,144.9275362,8,1,10,-0.087962963,-0.002777778,1,0,0,1.1965,rock_grid_rect_2,3,11,-1,-1,1.197,0.143518519,-0.24537037,1,0,0,1.2939,Diorite_rect,3,1.294,1,9,0,9,0,1,,,,,,,,,,,,,
62c63362e7342ad8be294866,TCN,2024-06-11_12h27.39.919,LearnStrategy,2023.2.3,Win32,144.9275362,8,1,11,-0.022222222,-0.012962963,1,0,0,1.6283,rock_grid_rect_2,5,09,-1,-1,1.628,-0.334259259,-0.397222222,1,0,0,1.237,Obsidian_rect,5,1.237,1,10,0,10,0,1,,,,,,,,,,,,,
62c63362e7342ad8be294866,TCN,2024-06-11_12h27.39.919,LearnStrategy,2023.2.3,Win32,144.9275362,8,1,12,-0.063888889,-0.001851852,1,0,0,1.2335,rock_grid_rect_2,2,08,-1,-1,1.234,-0.174074074,-0.232407407,1,0,0,1.8419,Basalt_rect,2,1.842,1,11,0,11,0,1,,,,,,,,,,,,,
62c63362e7342ad8be294866,TCN,2024-06-11_12h27.39.919,LearnStrategy,2023.2.3,Win32,144.9275362,8,1,13,-0.037037037,-0.009259259,1,0,0,1.2602,rock_grid_rect_2,8,04,-1,-1,1.26,0.371296296,-0.415740741,1,0,0,1.5138,Pumice_rect,8,1.514,1,12,0,12,0,1,,,,,,,,,,,,,
62c63362e7342ad8be294866,TCN,2024-06-11_12h27.39.919,LearnStrategy,2023.2.3,Win32,144.9275362,8,1,14,-0.073148148,-0.007407407,1,0,0,1.1913,rock_grid_rect_2,4,12,-1,-1,1.191,-0.314814815,-0.238888889,1,0,0,3.1381,Andesite_rect,1,3.138,0,13,0,13,0,1,,,,,,,,,,,,,
62c63362e7342ad8be294866,TCN,2024-06-11_12h27.39.919,LearnStrategy,2023.2.3,Win32,144.9275362,8,1,15,-0.053703704,-0.009259259,1,0,0,1.3521,rock_grid_rect_2,7,05,-1,-1,1.352,0.050925926,-0.412037037,1,0,0,2.7457,Peridotite_rect,7,2.746,1,14,0,14,0,1,,,,,,,,,,,,,
62c63362e7342ad8be294866,TCN,2024-06-11_12h27.39.919,LearnStrategy,2023.2.3,Win32,144.9275362,8,1,16,-0.038888889,-0.012037037,1,0,0,1.4103,rock_grid_rect_2,8,05,-1,-1,1.41,0.338888889,-0.383333333,1,0,0,2.0142,Pumice_rect,8,2.014,1,15,0,15,0,1,,,,,,,,,,,,,
62c63362e7342ad8be294866,TCN,2024-06-11_12h27.39.919,LearnStrategy,2023.2.3,Win32,144.9275362,8,2,1,,,,,,,,8,16,,,,,,,,,,,8,1.64,1,,,,,,0.334259259,-0.385185185,1,0,0,1.6399,Pumice_rect,0,0,0,0,1,
62c63362e7342ad8be294866,TCN,2024-06-11_12h27.39.919,LearnStrategy,2023.2.3,Win32,144.9275362,8,2,2,,,,,,,,2,04,,,,,,,,,,,2,2.065,1,,,,,,-0.135185185,-0.258333333,1,0,0,2.0646,Basalt_rect,1,0,1,0,1,
62c63362e7342ad8be294866,TCN,2024-06-11_12h27.39.919,LearnStrategy,2023.2.3,Win32,144.9275362,8,2,3,,,,,,,,3,07,,,,,,,,,,,4,3.759,0,,,,,,0.385185185,-0.25,1,0,0,3.7589,Gabbro_rect,2,0,2,0,1,
62c63362e7342ad8be294866,TCN,2024-06-11_12h27.39.919,LearnStrategy,2023.2.3,Win32,144.9275362,8,2,4,,,,,,,,8,02,,,,,,,,,,,8,2.052,1,,,,,,0.401851852,-0.415740741,1,0,0,2.0521,Pumice_rect,3,0,3,0,1,
62c63362e7342ad8be294866,TCN,2024-06-11_12h27.39.919,LearnStrategy,2023.2.3,Win32,144.9275362,8,2,5,,,,,,,,5,14,,,,,,,,,,,5,2.176,1,,,,,,-0.397222222,-0.407407407,1,0,0,2.1759,Obsidian_rect,4,0,4,0,1,
62c63362e7342ad8be294866,TCN,2024-06-11_12h27.39.919,LearnStrategy,2023.2.3,Win32,144.9275362,8,2,6,,,,,,,,6,13,,,,,,,,,,,6,2.215,1,,,,,,-0.143518519,-0.391666667,1,0,0,2.2149,Pegmatite_rect,5,0,5,0,1,
62c63362e7342ad8be294866,TCN,2024-06-11_12h27.39.919,LearnStrategy,2023.2.3,Win32,144.9275362,8,2,7,,,,,,,,7,13,,,,,,,,,,,7,2.506,1,,,,,,0.126851852,-0.399074074,1,0,0,2.5065,Peridotite_rect,6,0,6,0,1,
62c63362e7342ad8be294866,TCN,2024-06-11_12h27.39.919,LearnStrategy,2023.2.3,Win32,144.9275362,8,2,8,,,,,,,,1,14,,,,,,,,,,,6,1.594,0,,,,,,-0.101851852,-0.381481481,1,0,0,1.5944,Pegmatite_rect,7,0,7,0,1,
62c63362e7342ad8be294866,TCN,2024-06-11_12h27.39.919,LearnStrategy,2023.2.3,Win32,144.9275362,8,2,9,,,,,,,,2,12,,,,,,,,,,,1,1.802,0,,,,,,-0.37962963,-0.256481481,1,0,0,1.8015,Andesite_rect,8,0,8,0,1,
62c63362e7342ad8be294866,TCN,2024-06-11_12h27.39.919,LearnStrategy,2023.2.3,Win32,144.9275362,8,2,10,,,,,,,,3,15,,,,,,,,,,,3,1.728,1,,,,,,0.137962963,-0.259259259,1,0,0,1.7276,Diorite_rect,9,0,9,0,1,
62c63362e7342ad8be294866,TCN,2024-06-11_12h27.39.919,LearnStrategy,2023.2.3,Win32,144.9275362,8,2,11,,,,,,,,6,16,,,,,,,,,,,6,1.364,1,,,,,,-0.1,-0.384259259,1,0,0,1.3644,Pegmatite_rect,10,0,10,0,1,
62c63362e7342ad8be294866,TCN,2024-06-11_12h27.39.919,LearnStrategy,2023.2.3,Win32,144.9275362,8,2,12,,,,,,,,4,11,,,,,,,,,,,2,2.296,0,,,,,,-0.144444444,-0.250925926,1,0,0,2.2962,Basalt_rect,11,0,11,0,1,
62c63362e7342ad8be294866,TCN,2024-06-11_12h27.39.919,LearnStrategy,2023.2.3,Win32,144.9275362,8,2,13,,,,,,,,7,04,,,,,,,,,,,6,1.728,0,,,,,,-0.086111111,-0.409259259,1,0,0,1.7279,Pegmatite_rect,12,0,12,0,1,
62c63362e7342ad8be294866,TCN,2024-06-11_12h27.39.919,LearnStrategy,2023.2.3,Win32,144.9275362,8,2,14,,,,,,,,4,03,,,,,,,,,,,4,3.278,1,,,,,,0.346296296,-0.271296296,1,0,0,3.2781,Gabbro_rect,13,0,13,0,1,
62c63362e7342ad8be294866,TCN,2024-06-11_12h27.39.919,LearnStrategy,2023.2.3,Win32,144.9275362,8,2,15,,,,,,,,5,11,,,,,,,,,,,5,1.313,1,,,,,,-0.437962963,-0.418518519,1,0,0,1.3127,Obsidian_rect,14,0,14,0,1,
62c63362e7342ad8be294866,TCN,2024-06-11_12h27.39.919,LearnStrategy,2023.2.3,Win32,144.9275362,8,2,16,,,,,,,,1,09,,,,,,,,,,,1,2.568,1,,,,,,-0.387962963,-0.269444444,1,0,0,2.5683,Andesite_rect,15,0,15,0,1,
62c63362e7342ad8be294866,TCN,2024-06-11_12h27.39.919,LearnStrategy,2023.2.3,Win32,144.9275362,9,1,1,-0.083333333,0.009259259,1,0,0,1.2507,rock_grid_rect_2,3,12,-1,-1,1.251,0.136111111,-0.255555556,1,0,0,1.3543,Diorite_rect,3,1.354,1,0,0,0,0,1,,,,,,,,,,,,,
62c63362e7342ad8be294866,TCN,2024-06-11_12h27.39.919,LearnStrategy,2023.2.3,Win32,144.9275362,9,1,2,-0.024074074,-0.007407407,1,0,0,1.9308,rock_grid_rect_2,2,05,-1,-1,1.931,-0.186111111,-0.239814815,1,0,0,2.3184,Basalt_rect,2,2.318,1,1,0,1,0,1,,,,,,,,,,,,,
62c63362e7342ad8be294866,TCN,2024-06-11_12h27.39.919,LearnStrategy,2023.2.3,Win32,144.9275362,9,1,3,-0.052777778,0.002777778,1,0,0,1.4782,rock_grid_rect_2,7,12,-1,-1,1.478,0.091666667,-0.406481481,1,0,0,2.2664,Peridotite_rect,7,2.266,1,2,0,2,0,1,,,,,,,,,,,,,
62c63362e7342ad8be294866,TCN,2024-06-11_12h27.39.919,LearnStrategy,2023.2.3,Win32,144.9275362,9,1,4,-0.068518519,-0.012037037,1,0,0,1.3235,rock_grid_rect_2,1,04,-1,-1,1.324,-0.346296296,-0.25462963,1,0,0,4.5648,Andesite_rect,1,4.565,1,3,0,3,0,1,,,,,,,,,,,,,
62c63362e7342ad8be294866,TCN,2024-06-11_12h27.39.919,LearnStrategy,2023.2.3,Win32,144.9275362,9,1,5,-0.044444444,-0.008333333,1,0,0,1.763,rock_grid_rect_2,8,06,-1,-1,1.763,0.383333333,-0.412037037,1,0,0,1.3204,Pumice_rect,8,1.32,1,4,0,4,0,1,,,,,,,,,,,,,
62c63362e7342ad8be294866,TCN,2024-06-11_12h27.39.919,LearnStrategy,2023.2.3,Win32,144.9275362,9,1,6,-0.044444444,0.011111111,1,0,0,1.7292,rock_grid_rect_2,4,15,-1,-1,1.729,0.352777778,-0.256481481,1,0,0,4.4031,Gabbro_rect,4,4.403,1,5,0,5,0,1,,,,,,,,,,,,,
62c63362e7342ad8be294866,TCN,2024-06-11_12h27.39.919,LearnStrategy,2023.2.3,Win32,144.9275362,9,1,7,-0.031481481,-0.009259259,1,0,0,1.2515,rock_grid_rect_2,2,02,-1,-1,1.251,-0.3,-0.260185185,1,0,0,3.8147,Andesite_rect,1,3.815,0,6,0,6,0,1,,,,,,,,,,,,,
62c63362e7342ad8be294866,TCN,2024-06-11_12h27.39.919,LearnStrategy,2023.2.3,Win32,144.9275362,9,1,8,-0.05,0.006481481,1,0,0,1.705,rock_grid_rect_2,6,03,-1,-1,1.705,-0.103703704,-0.408333333,1,0,0,1.4695,Pegmatite_rect,6,1.47,1,7,0,7,0,1,,,,,,,,,,,,,
62c63362e7342ad8be294866,TCN,2024-06-11_12h27.39.919,LearnStrategy,2023.2.3,Win32,144.9275362,9,1,9,-0.017592593,0.007407407,1,0,0,1.3187,rock_grid_rect_2,5,07,-1,-1,1.319,-0.364814815,-0.42037037,1,0,0,1.2375,Obsidian_rect,5,1.237,1,8,0,8,0,1,,,,,,,,,,,,,
62c63362e7342ad8be294866,TCN,2024-06-11_12h27.39.919,LearnStrategy,2023.2.3,Win32,144.9275362,9,1,10,-0.067592593,-0.006481481,1,0,0,1.185,rock_grid_rect_2,8,13,-1,-1,1.185,0.342592593,-0.396296296,1,0,0,1.554,Pumice_rect,8,1.554,1,9,0,9,0,1,,,,,,,,,,,,,
62c63362e7342ad8be294866,TCN,2024-06-11_12h27.39.919,LearnStrategy,2023.2.3,Win32,144.9275362,9,1,11,-0.074074074,0.012037037,1,0,0,1.1904,rock_grid_rect_2,5,04,-1,-1,1.19,-0.359259259,-0.385185185,1,0,0,1.1815,Obsidian_rect,5,1.181,1,10,0,10,0,1,,,,,,,,,,,,,
62c63362e7342ad8be294866,TCN,2024-06-11_12h27.39.919,LearnStrategy,2023.2.3,Win32,144.9275362,9,1,12,-0.057407407,0.008333333,1,0,0,1.1444,rock_grid_rect_2,1,01,-1,-1,1.144,-0.338888889,-0.234259259,1,0,0,2.3728,Andesite_rect,1,2.373,1,11,0,11,0,1,,,,,,,,,,,,,
62c63362e7342ad8be294866,TCN,2024-06-11_12h27.39.919,LearnStrategy,2023.2.3,Win32,144.9275362,9,1,13,-0.087962963,0.012037037,1,0,0,1.3125,rock_grid_rect_2,4,08,-1,-1,1.313,-0.127777778,-0.247222222,1,0,0,3.7362,Basalt_rect,2,3.736,0,12,0,12,0,1,,,,,,,,,,,,,
62c63362e7342ad8be294866,TCN,2024-06-11_12h27.39.919,LearnStrategy,2023.2.3,Win32,144.9275362,9,1,14,-0.012962963,-0.007407407,1,0,0,1.7493,rock_grid_rect_2,7,06,-1,-1,1.749,-0.108333333,-0.412037037,1,0,0,2.3121,Pegmatite_rect,6,2.312,0,13,0,13,0,1,,,,,,,,,,,,,
62c63362e7342ad8be294866,TCN,2024-06-11_12h27.39.919,LearnStrategy,2023.2.3,Win32,144.9275362,9,1,15,-0.021296296,-0.003703704,1,0,0,1.4227,rock_grid_rect_2,6,12,-1,-1,1.423,-0.111111111,-0.389814815,1,0,0,1.348,Pegmatite_rect,6,1.348,1,14,0,14,0,1,,,,,,,,,,,,,
62c63362e7342ad8be294866,TCN,2024-06-11_12h27.39.919,LearnStrategy,2023.2.3,Win32,144.9275362,9,1,16,-0.062037037,0.000925926,1,0,0,1.2102,rock_grid_rect_2,3,14,-1,-1,1.21,-0.122222222,-0.390740741,1,0,0,2.4036,Pegmatite_rect,6,2.404,0,15,0,15,0,1,,,,,,,,,,,,,
62c63362e7342ad8be294866,TCN,2024-06-11_12h27.39.919,LearnStrategy,2023.2.3,Win32,144.9275362,9,2,1,,,,,,,,4,16,,,,,,,,,,,2,3.239,0,,,,,,-0.182407407,-0.242592593,1,0,0,3.239,Basalt_rect,0,0,0,0,1,
62c63362e7342ad8be294866,TCN,2024-06-11_12h27.39.919,LearnStrategy,2023.2.3,Win32,144.9275362,9,2,2,,,,,,,,5,05,,,,,,,,,,,5,1.665,1,,,,,,-0.351851852,-0.390740741,1,0,0,1.6653,Obsidian_rect,1,0,1,0,1,
62c63362e7342ad8be294866,TCN,2024-06-11_12h27.39.919,LearnStrategy,2023.2.3,Win32,144.9275362,9,2,3,,,,,,,,1,11,,,,,,,,,,,1,1.535,1,,,,,,-0.355555556,-0.230555556,1,0,0,1.5347,Andesite_rect,2,0,2,0,1,
62c63362e7342ad8be294866,TCN,2024-06-11_12h27.39.919,LearnStrategy,2023.2.3,Win32,144.9275362,9,2,4,,,,,,,,2,06,,,,,,,,,,,2,1.686,1,,,,,,-0.135185185,-0.246296296,1,0,0,1.6862,Basalt_rect,3,0,3,0,1,
62c63362e7342ad8be294866,TCN,2024-06-11_12h27.39.919,LearnStrategy,2023.2.3,Win32,144.9275362,9,2,5,,,,,,,,1,07,,,,,,,,,,,3,1.482,0,,,,,,0.109259259,-0.228703704,1,0,0,1.482,Diorite_rect,4,0,4,0,1,
62c63362e7342ad8be294866,TCN,2024-06-11_12h27.39.919,LearnStrategy,2023.2.3,Win32,144.9275362,9,2,6,,,,,,,,8,09,,,,,,,,,,,8,1.3,1,,,,,,0.37962963,-0.392592593,1,0,0,1.3003,Pumice_rect,5,0,5,0,1,
62c63362e7342ad8be294866,TCN,2024-06-11_12h27.39.919,LearnStrategy,2023.2.3,Win32,144.9275362,9,2,7,,,,,,,,8,03,,,,,,,,,,,8,1.811,1,,,,,,0.380555556,-0.382407407,1,0,0,1.8112,Pumice_rect,6,0,6,0,1,
62c63362e7342ad8be294866,TCN,2024-06-11_12h27.39.919,LearnStrategy,2023.2.3,Win32,144.9275362,9,2,8,,,,,,,,3,09,,,,,,,,,,,3,1.786,1,,,,,,0.163888889,-0.237037037,1,0,0,1.7865,Diorite_rect,7,0,7,0,1,
62c63362e7342ad8be294866,TCN,2024-06-11_12h27.39.919,LearnStrategy,2023.2.3,Win32,144.9275362,9,2,9,,,,,,,,5,12,,,,,,,,,,,5,1.182,1,,,,,,-0.423148148,-0.415740741,1,0,0,1.1818,Obsidian_rect,8,0,8,0,1,
62c63362e7342ad8be294866,TCN,2024-06-11_12h27.39.919,LearnStrategy,2023.2.3,Win32,144.9275362,9,2,10,,,,,,,,6,15,,,,,,,,,,,6,1.578,1,,,,,,-0.136111111,-0.4,1,0,0,1.5776,Pegmatite_rect,9,0,9,0,1,
62c63362e7342ad8be294866,TCN,2024-06-11_12h27.39.919,LearnStrategy,2023.2.3,Win32,144.9275362,9,2,11,,,,,,,,3,10,,,,,,,,,,,7,1.337,0,,,,,,0.097222222,-0.37962963,1,0,0,1.3371,Peridotite_rect,10,0,10,0,1,
62c63362e7342ad8be294866,TCN,2024-06-11_12h27.39.919,LearnStrategy,2023.2.3,Win32,144.9275362,9,2,12,,,,,,,,4,14,,,,,,,,,,,1,2.327,0,,,,,,-0.372222222,-0.252777778,1,0,0,2.3271,Andesite_rect,11,0,11,0,1,
62c63362e7342ad8be294866,TCN,2024-06-11_12h27.39.919,LearnStrategy,2023.2.3,Win32,144.9275362,9,2,13,,,,,,,,7,08,,,,,,,,,,,7,2.515,1,,,,,,0.140740741,-0.4,1,0,0,2.515,Peridotite_rect,12,0,12,0,1,
62c63362e7342ad8be294866,TCN,2024-06-11_12h27.39.919,LearnStrategy,2023.2.3,Win32,144.9275362,9,2,14,,,,,,,,6,08,,,,,,,,,,,6,1.158,1,,,,,,-0.067592593,-0.410185185,1,0,0,1.1578,Pegmatite_rect,13,0,13,0,1,
62c63362e7342ad8be294866,TCN,2024-06-11_12h27.39.919,LearnStrategy,2023.2.3,Win32,144.9275362,9,2,15,,,,,,,,7,16,,,,,,,,,,,7,1.546,1,,,,,,0.12962963,-0.384259259,1,0,0,1.546,Peridotite_rect,14,0,14,0,1,
62c63362e7342ad8be294866,TCN,2024-06-11_12h27.39.919,LearnStrategy,2023.2.3,Win32,144.9275362,9,2,16,,,,,,,,2,10,,,,,,,,,,,2,2.021,1,,,,,,-0.124074074,-0.231481481,1,0,0,2.0208,Basalt_rect,15,0,15,0,1,
62c63362e7342ad8be294866,TCN,2024-06-11_12h27.39.919,LearnStrategy,2023.2.3,Win32,144.9275362,,,,,,,,,,,,,,,,,,,,,,,,,,,,,,,,,,,,,,,,,,,1
62c63362e7342ad8be294866,TCN,2024-06-11_12h27.39.919,LearnStrategy,2023.2.3,Win32,144.9275362,,,,,,,,,,,,,,,,,,,,,,,,,,,,,,,,,,,,,,,,,,,
62c63362e7342ad8be294866,TCN,2024-06-11_12h27.39.919,LearnStrategy,2023.2.3,Win32,144.9275362,,,,,,,,,,,2,08,1,1,,,,,,,,,,,,,,,,,,,,,,,,,,,,,
62c63362e7342ad8be294866,TCN,2024-06-11_12h27.39.919,LearnStrategy,2023.2.3,Win32,144.9275362,,,,,,,,,,,8,06,1,2,,,,,,,,,,,,,,,,,,,,,,,,,,,,,
62c63362e7342ad8be294866,TCN,2024-06-11_12h27.39.919,LearnStrategy,2023.2.3,Win32,144.9275362,,,,,,,,,,,8,15,1,3,,,,,,,,,,,,,,,,,,,,,,,,,,,,,
62c63362e7342ad8be294866,TCN,2024-06-11_12h27.39.919,LearnStrategy,2023.2.3,Win32,144.9275362,,,,,,,,,,,7,06,1,4,,,,,,,,,,,,,,,,,,,,,,,,,,,,,
62c63362e7342ad8be294866,TCN,2024-06-11_12h27.39.919,LearnStrategy,2023.2.3,Win32,144.9275362,,,,,,,,,,,3,11,1,5,,,,,,,,,,,,,,,,,,,,,,,,,,,,,
62c63362e7342ad8be294866,TCN,2024-06-11_12h27.39.919,LearnStrategy,2023.2.3,Win32,144.9275362,,,,,,,,,,,5,06,1,6,,,,,,,,,,,,,,,,,,,,,,,,,,,,,
62c63362e7342ad8be294866,TCN,2024-06-11_12h27.39.919,LearnStrategy,2023.2.3,Win32,144.9275362,,,,,,,,,,,2,09,1,7,,,,,,,,,,,,,,,,,,,,,,,,,,,,,
62c63362e7342ad8be294866,TCN,2024-06-11_12h27.39.919,LearnStrategy,2023.2.3,Win32,144.9275362,,,,,,,,,,,8,05,1,8,,,,,,,,,,,,,,,,,,,,,,,,,,,,,
62c63362e7342ad8be294866,TCN,2024-06-11_12h27.39.919,LearnStrategy,2023.2.3,Win32,144.9275362,,,,,,,,,,,7,05,2,1,,,,,,,,,,,,,,,,,,,,,,,,,,,,,
62c63362e7342ad8be294866,TCN,2024-06-11_12h27.39.919,LearnStrategy,2023.2.3,Win32,144.9275362,,,,,,,,,,,1,01,2,2,,,,,,,,,,,,,,,,,,,,,,,,,,,,,
62c63362e7342ad8be294866,TCN,2024-06-11_12h27.39.919,LearnStrategy,2023.2.3,Win32,144.9275362,,,,,,,,,,,4,10,2,3,,,,,,,,,,,,,,,,,,,,,,,,,,,,,
62c63362e7342ad8be294866,TCN,2024-06-11_12h27.39.919,LearnStrategy,2023.2.3,Win32,144.9275362,,,,,,,,,,,6,07,2,4,,,,,,,,,,,,,,,,,,,,,,,,,,,,,
62c63362e7342ad8be294866,TCN,2024-06-11_12h27.39.919,LearnStrategy,2023.2.3,Win32,144.9275362,,,,,,,,,,,1,06,2,5,,,,,,,,,,,,,,,,,,,,,,,,,,,,,
62c63362e7342ad8be294866,TCN,2024-06-11_12h27.39.919,LearnStrategy,2023.2.3,Win32,144.9275362,,,,,,,,,,,6,12,2,6,,,,,,,,,,,,,,,,,,,,,,,,,,,,,
62c63362e7342ad8be294866,TCN,2024-06-11_12h27.39.919,LearnStrategy,2023.2.3,Win32,144.9275362,,,,,,,,,,,5,04,2,7,,,,,,,,,,,,,,,,,,,,,,,,,,,,,
62c63362e7342ad8be294866,TCN,2024-06-11_12h27.39.919,LearnStrategy,2023.2.3,Win32,144.9275362,,,,,,,,,,,7,07,2,8,,,,,,,,,,,,,,,,,,,,,,,,,,,,,
62c63362e7342ad8be294866,TCN,2024-06-11_12h27.39.919,LearnStrategy,2023.2.3,Win32,144.9275362,,,,,,,,,,,3,08,3,1,,,,,,,,,,,,,,,,,,,,,,,,,,,,,
62c63362e7342ad8be294866,TCN,2024-06-11_12h27.39.919,LearnStrategy,2023.2.3,Win32,144.9275362,,,,,,,,,,,2,02,3,2,,,,,,,,,,,,,,,,,,,,,,,,,,,,,
62c63362e7342ad8be294866,TCN,2024-06-11_12h27.39.919,LearnStrategy,2023.2.3,Win32,144.9275362,,,,,,,,,,,3,12,3,3,,,,,,,,,,,,,,,,,,,,,,,,,,,,,
62c63362e7342ad8be294866,TCN,2024-06-11_12h27.39.919,LearnStrategy,2023.2.3,Win32,144.9275362,,,,,,,,,,,5,02,3,4,,,,,,,,,,,,,,,,,,,,,,,,,,,,,
62c63362e7342ad8be294866,TCN,2024-06-11_12h27.39.919,LearnStrategy,2023.2.3,Win32,144.9275362,,,,,,,,,,,3,13,3,5,,,,,,,,,,,,,,,,,,,,,,,,,,,,,
62c63362e7342ad8be294866,TCN,2024-06-11_12h27.39.919,LearnStrategy,2023.2.3,Win32,144.9275362,,,,,,,,,,,4,08,3,6,,,,,,,,,,,,,,,,,,,,,,,,,,,,,
62c63362e7342ad8be294866,TCN,2024-06-11_12h27.39.919,LearnStrategy,2023.2.3,Win32,144.9275362,,,,,,,,,,,5,07,3,7,,,,,,,,,,,,,,,,,,,,,,,,,,,,,
62c63362e7342ad8be294866,TCN,2024-06-11_12h27.39.919,LearnStrategy,2023.2.3,Win32,144.9275362,,,,,,,,,,,8,13,3,8,,,,,,,,,,,,,,,,,,,,,,,,,,,,,
62c63362e7342ad8be294866,TCN,2024-06-11_12h27.39.919,LearnStrategy,2023.2.3,Win32,144.9275362,,,,,,,,,,,7,10,4,1,,,,,,,,,,,,,,,,,,,,,,,,,,,,,
62c63362e7342ad8be294866,TCN,2024-06-11_12h27.39.919,LearnStrategy,2023.2.3,Win32,144.9275362,,,,,,,,,,,4,05,4,2,,,,,,,,,,,,,,,,,,,,,,,,,,,,,
62c63362e7342ad8be294866,TCN,2024-06-11_12h27.39.919,LearnStrategy,2023.2.3,Win32,144.9275362,,,,,,,,,,,8,10,4,3,,,,,,,,,,,,,,,,,,,,,,,,,,,,,
62c63362e7342ad8be294866,TCN,2024-06-11_12h27.39.919,LearnStrategy,2023.2.3,Win32,144.9275362,,,,,,,,,,,6,05,4,4,,,,,,,,,,,,,,,,,,,,,,,,,,,,,
62c63362e7342ad8be294866,TCN,2024-06-11_12h27.39.919,LearnStrategy,2023.2.3,Win32,144.9275362,,,,,,,,,,,5,16,4,5,,,,,,,,,,,,,,,,,,,,,,,,,,,,,
62c63362e7342ad8be294866,TCN,2024-06-11_12h27.39.919,LearnStrategy,2023.2.3,Win32,144.9275362,,,,,,,,,,,1,05,4,6,,,,,,,,,,,,,,,,,,,,,,,,,,,,,
62c63362e7342ad8be294866,TCN,2024-06-11_12h27.39.919,LearnStrategy,2023.2.3,Win32,144.9275362,,,,,,,,,,,6,03,4,7,,,,,,,,,,,,,,,,,,,,,,,,,,,,,
62c63362e7342ad8be294866,TCN,2024-06-11_12h27.39.919,LearnStrategy,2023.2.3,Win32,144.9275362,,,,,,,,,,,1,02,4,8,,,,,,,,,,,,,,,,,,,,,,,,,,,,,
62c63362e7342ad8be294866,TCN,2024-06-11_12h27.39.919,LearnStrategy,2023.2.3,Win32,144.9275362,,,,,,,,,,,1,04,5,1,,,,,,,,,,,,,,,,,,,,,,,,,,,,,
62c63362e7342ad8be294866,TCN,2024-06-11_12h27.39.919,LearnStrategy,2023.2.3,Win32,144.9275362,,,,,,,,,,,7,12,5,2,,,,,,,,,,,,,,,,,,,,,,,,,,,,,
62c63362e7342ad8be294866,TCN,2024-06-11_12h27.39.919,LearnStrategy,2023.2.3,Win32,144.9275362,,,,,,,,,,,6,11,5,3,,,,,,,,,,,,,,,,,,,,,,,,,,,,,
62c63362e7342ad8be294866,TCN,2024-06-11_12h27.39.919,LearnStrategy,2023.2.3,Win32,144.9275362,,,,,,,,,,,1,03,5,4,,,,,,,,,,,,,,,,,,,,,,,,,,,,,
62c63362e7342ad8be294866,TCN,2024-06-11_12h27.39.919,LearnStrategy,2023.2.3,Win32,144.9275362,,,,,,,,,,,2,14,5,5,,,,,,,,,,,,,,,,,,,,,,,,,,,,,
62c63362e7342ad8be294866,TCN,2024-06-11_12h27.39.919,LearnStrategy,2023.2.3,Win32,144.9275362,,,,,,,,,,,8,04,5,6,,,,,,,,,,,,,,,,,,,,,,,,,,,,,
62c63362e7342ad8be294866,TCN,2024-06-11_12h27.39.919,LearnStrategy,2023.2.3,Win32,144.9275362,,,,,,,,,,,5,09,5,7,,,,,,,,,,,,,,,,,,,,,,,,,,,,,
62c63362e7342ad8be294866,TCN,2024-06-11_12h27.39.919,LearnStrategy,2023.2.3,Win32,144.9275362,,,,,,,,,,,4,12,5,8,,,,,,,,,,,,,,,,,,,,,,,,,,,,,
62c63362e7342ad8be294866,TCN,2024-06-11_12h27.39.919,LearnStrategy,2023.2.3,Win32,144.9275362,,,,,,,,,,,3,16,6,1,,,,,,,,,,,,,,,,,,,,,,,,,,,,,
62c63362e7342ad8be294866,TCN,2024-06-11_12h27.39.919,LearnStrategy,2023.2.3,Win32,144.9275362,,,,,,,,,,,2,05,6,2,,,,,,,,,,,,,,,,,,,,,,,,,,,,,
62c63362e7342ad8be294866,TCN,2024-06-11_12h27.39.919,LearnStrategy,2023.2.3,Win32,144.9275362,,,,,,,,,,,7,02,6,3,,,,,,,,,,,,,,,,,,,,,,,,,,,,,
62c63362e7342ad8be294866,TCN,2024-06-11_12h27.39.919,LearnStrategy,2023.2.3,Win32,144.9275362,,,,,,,,,,,6,10,6,4,,,,,,,,,,,,,,,,,,,,,,,,,,,,,
62c63362e7342ad8be294866,TCN,2024-06-11_12h27.39.919,LearnStrategy,2023.2.3,Win32,144.9275362,,,,,,,,,,,2,11,6,5,,,,,,,,,,,,,,,,,,,,,,,,,,,,,
62c63362e7342ad8be294866,TCN,2024-06-11_12h27.39.919,LearnStrategy,2023.2.3,Win32,144.9275362,,,,,,,,,,,3,14,6,6,,,,,,,,,,,,,,,,,,,,,,,,,,,,,
62c63362e7342ad8be294866,TCN,2024-06-11_12h27.39.919,LearnStrategy,2023.2.3,Win32,144.9275362,,,,,,,,,,,4,09,6,7,,,,,,,,,,,,,,,,,,,,,,,,,,,,,
62c63362e7342ad8be294866,TCN,2024-06-11_12h27.39.919,LearnStrategy,2023.2.3,Win32,144.9275362,,,,,,,,,,,4,15,6,8,,,,,,,,,,,,,,,,,,,,,,,,,,,,,