participant,condition,date,expName,psychopyVersion,OS,frameRate,block,phase,trial,learn_mouse.x,learn_mouse.y,learn_mouse.leftButton,learn_mouse.midButton,learn_mouse.rightButton,learn_mouse.time,learn_mouse.clicked_name,cat,token,row,col,t_select,cat_mouse_l.x,cat_mouse_l.y,cat_mouse_l.leftButton,cat_mouse_l.midButton,cat_mouse_l.rightButton,cat_mouse_l.time,cat_mouse_l.clicked_name,resp,t_resp,corr,train_trials.thisRepN,train_trials.thisTrialN,train_trials.thisN,train_trials.thisIndex,train_trials.ran,cat_mouse_t.x,cat_mouse_t.y,cat_mouse_t.leftButton,cat_mouse_t.midButton,cat_mouse_t.rightButton,cat_mouse_t.time,cat_mouse_t.clicked_name,test_trials.thisRepN,test_trials.thisTrialN,test_trials.thisN,test_trials.thisIndex,test_trials.ran,Bonus
62c71e41af2bc57590b548e8,SCN,2024-06-25_12h42.51.979,LearnStrategy,2023.2.3,Win32,59.88023952,,,,,,,,,,,,,,,,,,,,,,,,,,,,,,,,,,,,,,,,,,,
62c71e41af2bc57590b548e8,SCN,2024-06-25_12h42.51.979,LearnStrategy,2023.2.3,Win32,59.88023952,1,1,1,-0.539814815,0.393518519,1,0,0,6.0294,Basalt_06,2,06,6,1,6.029,0.375925926,-0.39537037,1,0,0,5.9377,Pumice_rect,8,5.938,0,0,0,0,0,1,,,,,,,,,,,,,
62c71e41af2bc57590b548e8,SCN,2024-06-25_12h42.51.979,LearnStrategy,2023.2.3,Win32,59.88023952,1,1,2,-0.388888889,0.393518519,1,0,0,1.7382,Diorite_02,3,02,6,2,1.738,-0.341666667,-0.252777778,1,0,0,2.0769,Andesite_rect,1,2.077,0,1,0,1,0,1,,,,,,,,,,,,,
62c71e41af2bc57590b548e8,SCN,2024-06-25_12h42.51.979,LearnStrategy,2023.2.3,Win32,59.88023952,1,1,3,-0.255555556,0.390740741,1,0,0,1.1983,Basalt_10,2,10,6,3,1.198,0.349074074,-0.260185185,1,0,0,3.2554,Gabbro_rect,4,3.255,0,2,0,2,0,1,,,,,,,,,,,,,
62c71e41af2bc57590b548e8,SCN,2024-06-25_12h42.51.979,LearnStrategy,2023.2.3,Win32,59.88023952,1,1,4,-0.072222222,0.391666667,1,0,0,1.6033,Pegmatite_06,6,06,6,4,1.603,-0.356481481,-0.406481481,1,0,0,2.5438,Obsidian_rect,5,2.544,0,3,0,3,0,1,,,,,,,,,,,,,
62c71e41af2bc57590b548e8,SCN,2024-06-25_12h42.51.979,LearnStrategy,2023.2.3,Win32,59.88023952,1,1,5,0.216666667,0.392592593,1,0,0,1.7342,Pumice_06,8,06,6,6,1.734,0.340740741,-0.412962963,1,0,0,3.1127,Pumice_rect,8,3.113,1,4,0,4,0,1,,,,,,,,,,,,,
62c71e41af2bc57590b548e8,SCN,2024-06-25_12h42.51.979,LearnStrategy,2023.2.3,Win32,59.88023952,1,1,6,0.400925926,0.410185185,1,0,0,1.3807,Diorite_08,3,08,6,7,1.381,0.118518519,-0.39537037,1,0,0,2.5256,Peridotite_rect,7,2.526,0,5,0,5,0,1,,,,,,,,,,,,,
62c71e41af2bc57590b548e8,SCN,2024-06-25_12h42.51.979,LearnStrategy,2023.2.3,Win32,59.88023952,1,1,7,0.544444444,0.422222222,1,0,0,1.3251,Pumice_05,8,05,6,8,1.325,0.360185185,-0.392592593,1,0,0,1.5124,Pumice_rect,8,1.512,1,6,0,6,0,1,,,,,,,,,,,,,
62c71e41af2bc57590b548e8,SCN,2024-06-25_12h42.51.979,LearnStrategy,2023.2.3,Win32,59.88023952,1,1,8,-0.549074074,0.233333333,1,0,0,2.3894,Basalt_11,2,11,5,1,2.389,0.375,-0.257407407,1,0,0,3.9511,Gabbro_rect,4,3.951,0,7,0,7,0,1,,,,,,,,,,,,,
62c71e41af2bc57590b548e8,SCN,2024-06-25_12h42.51.979,LearnStrategy,2023.2.3,Win32,59.88023952,1,1,9,-0.249074074,0.237037037,1,0,0,1.0733,Pegmatite_07,6,07,5,3,1.073,-0.37962963,-0.403703704,1,0,0,2.1952,Obsidian_rect,5,2.195,0,8,0,8,0,1,,,,,,,,,,,,,
62c71e41af2bc57590b548e8,SCN,2024-06-25_12h42.51.979,LearnStrategy,2023.2.3,Win32,59.88023952,1,1,10,-0.271296296,-0.411111111,1,0,0,1.5848,Pumice_08,8,08,1,3,1.585,0.375925926,-0.4,1,0,0,1.3705,Pumice_rect,8,1.37,1,9,0,9,0,1,,,,,,,,,,,,,
62c71e41af2bc57590b548e8,SCN,2024-06-25_12h42.51.979,LearnStrategy,2023.2.3,Win32,59.88023952,1,1,11,0.523148148,-0.103703704,1,0,0,1.4335,Gabbro_03,4,03,3,8,1.433,-0.402777778,-0.380555556,1,0,0,2.8505,Obsidian_rect,5,2.851,0,10,0,10,0,1,,,,,,,,,,,,,
62c71e41af2bc57590b548e8,SCN,2024-06-25_12h42.51.979,LearnStrategy,2023.2.3,Win32,59.88023952,1,1,12,-0.235185185,-0.092592593,1,0,0,0.8064,Peridotite_08,7,08,3,3,0.806,0.103703704,-0.249074074,1,0,0,2.3883,Diorite_rect,3,2.388,0,11,0,11,0,1,,,,,,,,,,,,,
62c71e41af2bc57590b548e8,SCN,2024-06-25_12h42.51.979,LearnStrategy,2023.2.3,Win32,59.88023952,1,1,13,-0.387962963,0.081481481,1,0,0,1.3932,Basalt_12,2,12,4,2,1.393,-0.105555556,-0.407407407,1,0,0,2.2691,Pegmatite_rect,6,2.269,0,12,0,12,0,1,,,,,,,,,,,,,
62c71e41af2bc57590b548e8,SCN,2024-06-25_12h42.51.979,LearnStrategy,2023.2.3,Win32,59.88023952,1,1,14,-0.568518519,0.078703704,1,0,0,1.3212,Diorite_16,3,16,4,1,1.321,-0.387962963,-0.234259259,1,0,0,1.1211,Andesite_rect,1,1.121,0,13,0,13,0,1,,,,,,,,,,,,,
62c71e41af2bc57590b548e8,SCN,2024-06-25_12h42.51.979,LearnStrategy,2023.2.3,Win32,59.88023952,1,1,15,0.540740741,0.081481481,1,0,0,1.2495,Pumice_15,8,15,4,8,1.25,0.377777778,-0.25462963,1,0,0,1.954,Gabbro_rect,4,1.954,0,14,0,14,0,1,,,,,,,,,,,,,
62c71e41af2bc57590b548e8,SCN,2024-06-25_12h42.51.979,LearnStrategy,2023.2.3,Win32,59.88023952,1,1,16,-0.066666667,-0.39537037,1,0,0,1.5864,Obsidian_09,5,09,1,4,1.586,-0.367592593,-0.398148148,1,0,0,1.2352,Obsidian_rect,5,1.235,1,15,0,15,0,1,,,,,,,,,,,,,
62c71e41af2bc57590b548e8,SCN,2024-06-25_12h42.51.979,LearnStrategy,2023.2.3,Win32,59.88023952,1,2,1,,,,,,,,2,14,,,,,,,,,,,3,2.178,0,,,,,,0.099074074,-0.25,1,0,0,2.1775,Diorite_rect,0,0,0,0,1,
62c71e41af2bc57590b548e8,SCN,2024-06-25_12h42.51.979,LearnStrategy,2023.2.3,Win32,59.88023952,1,2,2,,,,,,,,3,07,,,,,,,,,,,2,1.426,0,,,,,,-0.153703704,-0.251851852,1,0,0,1.4264,Basalt_rect,1,0,1,0,1,
62c71e41af2bc57590b548e8,SCN,2024-06-25_12h42.51.979,LearnStrategy,2023.2.3,Win32,59.88023952,1,2,3,,,,,,,,4,10,,,,,,,,,,,1,1.359,0,,,,,,-0.327777778,-0.258333333,1,0,0,1.3589,Andesite_rect,2,0,2,0,1,
62c71e41af2bc57590b548e8,SCN,2024-06-25_12h42.51.979,LearnStrategy,2023.2.3,Win32,59.88023952,1,2,4,,,,,,,,8,04,,,,,,,,,,,8,1.923,1,,,,,,0.363888889,-0.39537037,1,0,0,1.9231,Pumice_rect,3,0,3,0,1,
62c71e41af2bc57590b548e8,SCN,2024-06-25_12h42.51.979,LearnStrategy,2023.2.3,Win32,59.88023952,1,2,5,,,,,,,,6,11,,,,,,,,,,,6,1.682,1,,,,,,-0.150925926,-0.399074074,1,0,0,1.682,Pegmatite_rect,4,0,4,0,1,
62c71e41af2bc57590b548e8,SCN,2024-06-25_12h42.51.979,LearnStrategy,2023.2.3,Win32,59.88023952,1,2,6,,,,,,,,5,07,,,,,,,,,,,5,1.236,1,,,,,,-0.384259259,-0.411111111,1,0,0,1.2355,Obsidian_rect,5,0,5,0,1,
62c71e41af2bc57590b548e8,SCN,2024-06-25_12h42.51.979,LearnStrategy,2023.2.3,Win32,59.88023952,1,2,7,,,,,,,,4,01,,,,,,,,,,,7,1.367,0,,,,,,0.112962963,-0.396296296,1,0,0,1.3669,Peridotite_rect,6,0,6,0,1,
62c71e41af2bc57590b548e8,SCN,2024-06-25_12h42.51.979,LearnStrategy,2023.2.3,Win32,59.88023952,1,2,8,,,,,,,,5,05,,,,,,,,,,,5,1.944,1,,,,,,-0.412962963,-0.394444444,1,0,0,1.9445,Obsidian_rect,7,0,7,0,1,
62c71e41af2bc57590b548e8,SCN,2024-06-25_12h42.51.979,LearnStrategy,2023.2.3,Win32,59.88023952,1,2,9,,,,,,,,1,05,,,,,,,,,,,2,2.39,0,,,,,,-0.111111111,-0.261111111,1,0,0,2.3897,Basalt_rect,8,0,8,0,1,
62c71e41af2bc57590b548e8,SCN,2024-06-25_12h42.51.979,LearnStrategy,2023.2.3,Win32,59.88023952,1,2,10,,,,,,,,1,09,,,,,,,,,,,8,1.979,0,,,,,,0.363888889,-0.391666667,1,0,0,1.9787,Pumice_rect,9,0,9,0,1,
62c71e41af2bc57590b548e8,SCN,2024-06-25_12h42.51.979,LearnStrategy,2023.2.3,Win32,59.88023952,1,2,11,,,,,,,,6,05,,,,,,,,,,,3,2.101,0,,,,,,0.22962963,-0.239814815,1,0,0,2.1006,Diorite_rect,10,0,10,0,1,
62c71e41af2bc57590b548e8,SCN,2024-06-25_12h42.51.979,LearnStrategy,2023.2.3,Win32,59.88023952,1,2,12,,,,,,,,3,10,,,,,,,,,,,1,1.873,0,,,,,,-0.372222222,-0.260185185,1,0,0,1.8727,Andesite_rect,11,0,11,0,1,
62c71e41af2bc57590b548e8,SCN,2024-06-25_12h42.51.979,LearnStrategy,2023.2.3,Win32,59.88023952,1,2,13,,,,,,,,7,05,,,,,,,,,,,5,2.339,0,,,,,,-0.353703704,-0.39537037,1,0,0,2.3386,Obsidian_rect,12,0,12,0,1,
62c71e41af2bc57590b548e8,SCN,2024-06-25_12h42.51.979,LearnStrategy,2023.2.3,Win32,59.88023952,1,2,14,,,,,,,,8,13,,,,,,,,,,,8,1.416,1,,,,,,0.330555556,-0.397222222,1,0,0,1.4165,Pumice_rect,13,0,13,0,1,
62c71e41af2bc57590b548e8,SCN,2024-06-25_12h42.51.979,LearnStrategy,2023.2.3,Win32,59.88023952,1,2,15,,,,,,,,7,16,,,,,,,,,,,6,1.971,0,,,,,,-0.093518519,-0.4,1,0,0,1.9709,Pegmatite_rect,14,0,14,0,1,
62c71e41af2bc57590b548e8,SCN,2024-06-25_12h42.51.979,LearnStrategy,2023.2.3,Win32,59.88023952,1,2,16,,,,,,,,2,09,,,,,,,,,,,2,1.892,1,,,,,,-0.100925926,-0.27037037,1,0,0,1.892,Basalt_rect,15,0,15,0,1,
62c71e41af2bc57590b548e8,SCN,2024-06-25_12h42.51.979,LearnStrategy,2023.2.3,Win32,59.88023952,2,1,1,0.37962963,-0.10462963,1,0,0,2.1171,Obsidian_04,5,04,3,7,2.117,-0.378703704,-0.394444444,1,0,0,1.0377,Obsidian_rect,5,1.038,1,0,0,0,0,1,,,,,,,,,,,,,
62c71e41af2bc57590b548e8,SCN,2024-06-25_12h42.51.979,LearnStrategy,2023.2.3,Win32,59.88023952,2,1,2,-0.40462963,-0.403703704,1,0,0,1.972,Pumice_03,8,03,1,2,1.972,0.343518519,-0.386111111,1,0,0,2.6254,Pumice_rect,8,2.625,1,1,0,1,0,1,,,,,,,,,,,,,
62c71e41af2bc57590b548e8,SCN,2024-06-25_12h42.51.979,LearnStrategy,2023.2.3,Win32,59.88023952,2,1,3,-0.369444444,-0.266666667,1,0,0,3.8512,Obsidian_14,5,14,2,2,3.851,-0.423148148,-0.396296296,1,0,0,1.349,Obsidian_rect,5,1.349,1,2,0,2,0,1,,,,,,,,,,,,,
62c71e41af2bc57590b548e8,SCN,2024-06-25_12h42.51.979,LearnStrategy,2023.2.3,Win32,59.88023952,2,1,4,-0.228703704,0.240740741,1,0,0,1.5238,Pegmatite_07,6,07,5,3,1.524,-0.369444444,-0.240740741,1,0,0,1.5748,Andesite_rect,1,1.575,0,3,0,3,0,1,,,,,,,,,,,,,
62c71e41af2bc57590b548e8,SCN,2024-06-25_12h42.51.979,LearnStrategy,2023.2.3,Win32,59.88023952,2,1,5,0.086111111,0.418518519,1,0,0,3.631,Pegmatite_15,6,15,6,5,3.631,-0.102777778,-0.4,1,0,0,1.6718,Pegmatite_rect,6,1.672,1,4,0,4,0,1,,,,,,,,,,,,,
62c71e41af2bc57590b548e8,SCN,2024-06-25_12h42.51.979,LearnStrategy,2023.2.3,Win32,59.88023952,2,1,6,-0.399074074,0.362037037,1,0,0,1.4046,Diorite_02,3,02,6,2,1.405,-0.37962963,-0.263888889,1,0,0,1.6711,Andesite_rect,1,1.671,0,5,0,5,0,1,,,,,,,,,,,,,
62c71e41af2bc57590b548e8,SCN,2024-06-25_12h42.51.979,LearnStrategy,2023.2.3,Win32,59.88023952,2,1,7,0.071296296,-0.410185185,1,0,0,3.4715,Andesite_14,1,14,1,5,3.471,-0.062962963,-0.262962963,1,0,0,1.2331,Basalt_rect,2,1.233,0,6,0,6,0,1,,,,,,,,,,,,,
62c71e41af2bc57590b548e8,SCN,2024-06-25_12h42.51.979,LearnStrategy,2023.2.3,Win32,59.88023952,2,1,8,-0.05,0.383333333,1,0,0,3.0032,Pegmatite_06,6,06,6,4,3.003,-0.353703704,-0.252777778,1,0,0,1.478,Andesite_rect,1,1.478,0,7,0,7,0,1,,,,,,,,,,,,,
62c71e41af2bc57590b548e8,SCN,2024-06-25_12h42.51.979,LearnStrategy,2023.2.3,Win32,59.88023952,2,1,9,-0.539814815,0.251851852,1,0,0,1.876,Basalt_11,2,11,5,1,1.876,0.353703704,-0.4,1,0,0,1.7102,Pumice_rect,8,1.71,0,8,0,8,0,1,,,,,,,,,,,,,
62c71e41af2bc57590b548e8,SCN,2024-06-25_12h42.51.979,LearnStrategy,2023.2.3,Win32,59.88023952,2,1,10,-0.105555556,-0.097222222,1,0,0,1.0674,Gabbro_05,4,05,3,4,1.067,0.10462963,-0.252777778,1,0,0,1.7071,Diorite_rect,3,1.707,0,9,0,9,0,1,,,,,,,,,,,,,
62c71e41af2bc57590b548e8,SCN,2024-06-25_12h42.51.979,LearnStrategy,2023.2.3,Win32,59.88023952,2,1,11,-0.084259259,-0.263888889,1,0,0,1.1572,Andesite_03,1,03,2,4,1.157,-0.10462963,-0.253703704,1,0,0,1.4272,Basalt_rect,2,1.427,0,10,0,10,0,1,,,,,,,,,,,,,
62c71e41af2bc57590b548e8,SCN,2024-06-25_12h42.51.979,LearnStrategy,2023.2.3,Win32,59.88023952,2,1,12,-0.225925926,-0.398148148,1,0,0,1.3499,Pumice_08,8,08,1,3,1.35,0.346296296,-0.402777778,1,0,0,1.1703,Pumice_rect,8,1.17,1,11,0,11,0,1,,,,,,,,,,,,,
62c71e41af2bc57590b548e8,SCN,2024-06-25_12h42.51.979,LearnStrategy,2023.2.3,Win32,59.88023952,2,1,13,0.549074074,-0.277777778,1,0,0,2.003,Diorite_14,3,14,2,8,2.003,0.140740741,-0.256481481,1,0,0,1.4224,Diorite_rect,3,1.422,1,12,0,12,0,1,,,,,,,,,,,,,
62c71e41af2bc57590b548e8,SCN,2024-06-25_12h42.51.979,LearnStrategy,2023.2.3,Win32,59.88023952,2,1,14,0.093518519,-0.422222222,1,0,0,1.7729,Andesite_14,1,14,1,5,1.773,-0.099074074,-0.269444444,1,0,0,1.842,Basalt_rect,2,1.842,0,13,0,13,0,1,,,,,,,,,,,,,
62c71e41af2bc57590b548e8,SCN,2024-06-25_12h42.51.979,LearnStrategy,2023.2.3,Win32,59.88023952,2,1,15,-0.246296296,0.096296296,1,0,0,1.3897,Gabbro_11,4,11,4,3,1.39,-0.128703704,-0.237037037,1,0,0,1.5879,Basalt_rect,2,1.588,0,14,0,14,0,1,,,,,,,,,,,,,
62c71e41af2bc57590b548e8,SCN,2024-06-25_12h42.51.979,LearnStrategy,2023.2.3,Win32,59.88023952,2,1,16,-0.553703704,-0.111111111,1,0,0,2.1612,Pumice_02,8,02,3,1,2.161,0.381481481,-0.393518519,1,0,0,1.7356,Pumice_rect,8,1.736,1,15,0,15,0,1,,,,,,,,,,,,,
62c71e41af2bc57590b548e8,SCN,2024-06-25_12h42.51.979,LearnStrategy,2023.2.3,Win32,59.88023952,2,2,1,,,,,,,,8,10,,,,,,,,,,,2,3.881,0,,,,,,-0.074074074,-0.260185185,1,0,0,3.8809,Basalt_rect,0,0,0,0,1,
62c71e41af2bc57590b548e8,SCN,2024-06-25_12h42.51.979,LearnStrategy,2023.2.3,Win32,59.88023952,2,2,2,,,,,,,,1,06,,,,,,,,,,,1,4.349,1,,,,,,-0.339814815,-0.251851852,1,0,0,4.3489,Andesite_rect,1,0,1,0,1,
62c71e41af2bc57590b548e8,SCN,2024-06-25_12h42.51.979,LearnStrategy,2023.2.3,Win32,59.88023952,2,2,3,,,,,,,,2,04,,,,,,,,,,,3,2.956,0,,,,,,0.15462963,-0.248148148,1,0,0,2.9559,Diorite_rect,2,0,2,0,1,
62c71e41af2bc57590b548e8,SCN,2024-06-25_12h42.51.979,LearnStrategy,2023.2.3,Win32,59.88023952,2,2,4,,,,,,,,6,16,,,,,,,,,,,6,2.426,1,,,,,,-0.105555556,-0.4,1,0,0,2.4259,Pegmatite_rect,3,0,3,0,1,
62c71e41af2bc57590b548e8,SCN,2024-06-25_12h42.51.979,LearnStrategy,2023.2.3,Win32,59.88023952,2,2,5,,,,,,,,4,12,,,,,,,,,,,3,4.256,0,,,,,,0.092592593,-0.248148148,1,0,0,4.2563,Diorite_rect,4,0,4,0,1,
62c71e41af2bc57590b548e8,SCN,2024-06-25_12h42.51.979,LearnStrategy,2023.2.3,Win32,59.88023952,2,2,6,,,,,,,,2,02,,,,,,,,,,,2,1.281,1,,,,,,-0.122222222,-0.25,1,0,0,1.2809,Basalt_rect,5,0,5,0,1,
62c71e41af2bc57590b548e8,SCN,2024-06-25_12h42.51.979,LearnStrategy,2023.2.3,Win32,59.88023952,2,2,7,,,,,,,,3,11,,,,,,,,,,,6,3.341,0,,,,,,-0.082407407,-0.415740741,1,0,0,3.3405,Pegmatite_rect,6,0,6,0,1,
62c71e41af2bc57590b548e8,SCN,2024-06-25_12h42.51.979,LearnStrategy,2023.2.3,Win32,59.88023952,2,2,8,,,,,,,,1,02,,,,,,,,,,,6,1.661,0,,,,,,-0.094444444,-0.408333333,1,0,0,1.6608,Pegmatite_rect,7,0,7,0,1,
62c71e41af2bc57590b548e8,SCN,2024-06-25_12h42.51.979,LearnStrategy,2023.2.3,Win32,59.88023952,2,2,9,,,,,,,,5,16,,,,,,,,,,,5,1.21,1,,,,,,-0.374074074,-0.399074074,1,0,0,1.2099,Obsidian_rect,8,0,8,0,1,
62c71e41af2bc57590b548e8,SCN,2024-06-25_12h42.51.979,LearnStrategy,2023.2.3,Win32,59.88023952,2,2,10,,,,,,,,8,14,,,,,,,,,,,8,1.218,1,,,,,,0.386111111,-0.405555556,1,0,0,1.2179,Pumice_rect,9,0,9,0,1,
62c71e41af2bc57590b548e8,SCN,2024-06-25_12h42.51.979,LearnStrategy,2023.2.3,Win32,59.88023952,2,2,11,,,,,,,,4,09,,,,,,,,,,,1,1.917,0,,,,,,-0.334259259,-0.252777778,1,0,0,1.9167,Andesite_rect,10,0,10,0,1,
62c71e41af2bc57590b548e8,SCN,2024-06-25_12h42.51.979,LearnStrategy,2023.2.3,Win32,59.88023952,2,2,12,,,,,,,,5,11,,,,,,,,,,,5,1.126,1,,,,,,-0.394444444,-0.383333333,1,0,0,1.1263,Obsidian_rect,11,0,11,0,1,
62c71e41af2bc57590b548e8,SCN,2024-06-25_12h42.51.979,LearnStrategy,2023.2.3,Win32,59.88023952,2,2,13,,,,,,,,7,04,,,,,,,,,,,6,1.684,0,,,,,,-0.17037037,-0.413888889,1,0,0,1.6837,Pegmatite_rect,12,0,12,0,1,
62c71e41af2bc57590b548e8,SCN,2024-06-25_12h42.51.979,LearnStrategy,2023.2.3,Win32,59.88023952,2,2,14,,,,,,,,3,13,,,,,,,,,,,6,1.291,0,,,,,,-0.113888889,-0.408333333,1,0,0,1.2914,Pegmatite_rect,13,0,13,0,1,
62c71e41af2bc57590b548e8,SCN,2024-06-25_12h42.51.979,LearnStrategy,2023.2.3,Win32,59.88023952,2,2,15,,,,,,,,6,08,,,,,,,,,,,6,1.128,1,,,,,,-0.138888889,-0.378703704,1,0,0,1.1277,Pegmatite_rect,14,0,14,0,1,
62c71e41af2bc57590b548e8,SCN,2024-06-25_12h42.51.979,LearnStrategy,2023.2.3,Win32,59.88023952,2,2,16,,,,,,,,7,13,,,,,,,,,,,4,1.548,0,,,,,,0.359259259,-0.241666667,1,0,0,1.5476,Gabbro_rect,15,0,15,0,1,
62c71e41af2bc57590b548e8,SCN,2024-06-25_12h42.51.979,LearnStrategy,2023.2.3,Win32,59.88023952,3,1,1,-0.089814815,0.085185185,1,0,0,0.9408,Gabbro_13,4,13,4,4,0.941,-0.137962963,-0.238888889,1,0,0,0.7963,Basalt_rect,2,0.796,0,0,0,0,0,1,,,,,,,,,,,,,
62c71e41af2bc57590b548e8,SCN,2024-06-25_12h42.51.979,LearnStrategy,2023.2.3,Win32,59.88023952,3,1,2,0.407407407,-0.398148148,1,0,0,2.2226,Peridotite_14,7,14,1,7,2.223,-0.122222222,-0.268518519,1,0,0,1.1516,Basalt_rect,2,1.152,0,1,0,1,0,1,,,,,,,,,,,,,
62c71e41af2bc57590b548e8,SCN,2024-06-25_12h42.51.979,LearnStrategy,2023.2.3,Win32,59.88023952,3,1,3,-0.54537037,0.066666667,1,0,0,1.3045,Diorite_16,3,16,4,1,1.304,-0.162962963,-0.398148148,1,0,0,1.2936,Pegmatite_rect,6,1.294,0,2,0,2,0,1,,,,,,,,,,,,,
62c71e41af2bc57590b548e8,SCN,2024-06-25_12h42.51.979,LearnStrategy,2023.2.3,Win32,59.88023952,3,1,4,-0.247222222,0.226851852,1,0,0,1.1989,Pegmatite_07,6,07,5,3,1.199,-0.149074074,-0.384259259,1,0,0,1.3937,Pegmatite_rect,6,1.394,1,3,0,3,0,1,,,,,,,,,,,,,
62c71e41af2bc57590b548e8,SCN,2024-06-25_12h42.51.979,LearnStrategy,2023.2.3,Win32,59.88023952,3,1,5,0.212037037,0.25462963,1,0,0,3.9152,Peridotite_06,7,06,5,6,3.915,-0.348148148,-0.259259259,1,0,0,1.6482,Andesite_rect,1,1.648,0,4,0,4,0,1,,,,,,,,,,,,,
62c71e41af2bc57590b548e8,SCN,2024-06-25_12h42.51.979,LearnStrategy,2023.2.3,Win32,59.88023952,3,1,6,-0.249074074,0.391666667,1,0,0,1.3916,Basalt_10,2,10,6,3,1.392,-0.149074074,-0.256481481,1,0,0,0.8889,Basalt_rect,2,0.889,1,5,0,5,0,1,,,,,,,,,,,,,
62c71e41af2bc57590b548e8,SCN,2024-06-25_12h42.51.979,LearnStrategy,2023.2.3,Win32,59.88023952,3,1,7,-0.228703704,-0.108333333,1,0,0,2.7233,Peridotite_08,7,08,3,3,2.723,-0.12962963,-0.401851852,1,0,0,1.9148,Pegmatite_rect,6,1.915,0,6,0,6,0,1,,,,,,,,,,,,,
62c71e41af2bc57590b548e8,SCN,2024-06-25_12h42.51.979,LearnStrategy,2023.2.3,Win32,59.88023952,3,1,8,0.083333333,-0.126851852,1,0,0,1.2407,Gabbro_14,4,14,3,5,1.241,0.092592593,-0.237962963,1,0,0,1.469,Diorite_rect,3,1.469,0,7,0,7,0,1,,,,,,,,,,,,,
62c71e41af2bc57590b548e8,SCN,2024-06-25_12h42.51.979,LearnStrategy,2023.2.3,Win32,59.88023952,3,1,9,-0.077777778,-0.076851852,1,0,0,0.8351,Gabbro_05,4,05,3,4,0.835,0.109259259,-0.384259259,1,0,0,2.5354,Peridotite_rect,7,2.535,0,8,0,8,0,1,,,,,,,,,,,,,
62c71e41af2bc57590b548e8,SCN,2024-06-25_12h42.51.979,LearnStrategy,2023.2.3,Win32,59.88023952,3,1,10,0.532407407,-0.231481481,1,0,0,1.323,Diorite_14,3,14,2,8,1.323,-0.186111111,-0.405555556,1,0,0,1.7746,Pegmatite_rect,6,1.775,0,9,0,9,0,1,,,,,,,,,,,,,
62c71e41af2bc57590b548e8,SCN,2024-06-25_12h42.51.979,LearnStrategy,2023.2.3,Win32,59.88023952,3,1,11,-0.25,0.099074074,1,0,0,1.3752,Gabbro_11,4,11,4,3,1.375,-0.163888889,-0.250925926,1,0,0,1.2766,Basalt_rect,2,1.277,0,10,0,10,0,1,,,,,,,,,,,,,
62c71e41af2bc57590b548e8,SCN,2024-06-25_12h42.51.979,LearnStrategy,2023.2.3,Win32,59.88023952,3,1,12,-0.528703704,-0.410185185,1,0,0,2.1264,Basalt_16,2,16,1,1,2.126,-0.182407407,-0.257407407,1,0,0,2.1376,Basalt_rect,2,2.138,1,11,0,11,0,1,,,,,,,,,,,,,
62c71e41af2bc57590b548e8,SCN,2024-06-25_12h42.51.979,LearnStrategy,2023.2.3,Win32,59.88023952,3,1,13,0.212962963,-0.102777778,1,0,0,1.2557,Pegmatite_09,6,09,3,6,1.256,-0.137037037,-0.39537037,1,0,0,1.3068,Pegmatite_rect,6,1.307,1,12,0,12,0,1,,,,,,,,,,,,,
62c71e41af2bc57590b548e8,SCN,2024-06-25_12h42.51.979,LearnStrategy,2023.2.3,Win32,59.88023952,3,1,14,0.538888889,-0.4,1,0,0,5.5702,Pegmatite_03,6,03,1,8,5.57,0.098148148,-0.253703704,1,0,0,2.6288,Diorite_rect,3,2.629,0,13,0,13,0,1,,,,,,,,,,,,,
62c71e41af2bc57590b548e8,SCN,2024-06-25_12h42.51.979,LearnStrategy,2023.2.3,Win32,59.88023952,3,1,15,0.063888889,0.130555556,1,0,0,0.756,Diorite_09,3,09,4,5,0.756,0.107407407,-0.249074074,1,0,0,2.2895,Diorite_rect,3,2.289,1,14,0,14,0,1,,,,,,,,,,,,,
62c71e41af2bc57590b548e8,SCN,2024-06-25_12h42.51.979,LearnStrategy,2023.2.3,Win32,59.88023952,3,1,16,0.060185185,-0.102777778,1,0,0,0.8975,Gabbro_14,4,14,3,5,0.898,-0.14537037,-0.268518519,1,0,0,1.3181,Basalt_rect,2,1.318,0,15,0,15,0,1,,,,,,,,,,,,,
62c71e41af2bc57590b548e8,SCN,2024-06-25_12h42.51.979,LearnStrategy,2023.2.3,Win32,59.88023952,3,2,1,,,,,,,,6,13,,,,,,,,,,,6,7.238,1,,,,,,-0.103703704,-0.402777778,1,0,0,7.2381,Pegmatite_rect,0,0,0,0,1,
62c71e41af2bc57590b548e8,SCN,2024-06-25_12h42.51.979,LearnStrategy,2023.2.3,Win32,59.88023952,3,2,2,,,,,,,,1,07,,,,,,,,,,,3,1.589,0,,,,,,0.10462963,-0.255555556,1,0,0,1.5889,Diorite_rect,1,0,1,0,1,
62c71e41af2bc57590b548e8,SCN,2024-06-25_12h42.51.979,LearnStrategy,2023.2.3,Win32,59.88023952,3,2,3,,,,,,,,4,16,,,,,,,,,,,2,1.526,0,,,,,,-0.199074074,-0.249074074,1,0,0,1.5257,Basalt_rect,2,0,2,0,1,
62c71e41af2bc57590b548e8,SCN,2024-06-25_12h42.51.979,LearnStrategy,2023.2.3,Win32,59.88023952,3,2,4,,,,,,,,7,02,,,,,,,,,,,6,1.688,0,,,,,,-0.125,-0.381481481,1,0,0,1.688,Pegmatite_rect,3,0,3,0,1,
62c71e41af2bc57590b548e8,SCN,2024-06-25_12h42.51.979,LearnStrategy,2023.2.3,Win32,59.88023952,3,2,5,,,,,,,,8,09,,,,,,,,,,,8,1.929,1,,,,,,0.383333333,-0.398148148,1,0,0,1.9292,Pumice_rect,4,0,4,0,1,
62c71e41af2bc57590b548e8,SCN,2024-06-25_12h42.51.979,LearnStrategy,2023.2.3,Win32,59.88023952,3,2,6,,,,,,,,2,01,,,,,,,,,,,2,1.918,1,,,,,,-0.189814815,-0.239814815,1,0,0,1.9184,Basalt_rect,5,0,5,0,1,
62c71e41af2bc57590b548e8,SCN,2024-06-25_12h42.51.979,LearnStrategy,2023.2.3,Win32,59.88023952,3,2,7,,,,,,,,4,15,,,,,,,,,,,7,1.824,0,,,,,,0.100925926,-0.401851852,1,0,0,1.8241,Peridotite_rect,6,0,6,0,1,
62c71e41af2bc57590b548e8,SCN,2024-06-25_12h42.51.979,LearnStrategy,2023.2.3,Win32,59.88023952,3,2,8,,,,,,,,1,01,,,,,,,,,,,1,2.911,1,,,,,,-0.341666667,-0.265740741,1,0,0,2.9109,Andesite_rect,7,0,7,0,1,
62c71e41af2bc57590b548e8,SCN,2024-06-25_12h42.51.979,LearnStrategy,2023.2.3,Win32,59.88023952,3,2,9,,,,,,,,5,12,,,,,,,,,,,5,0.866,1,,,,,,-0.361111111,-0.386111111,1,0,0,0.8658,Obsidian_rect,8,0,8,0,1,
62c71e41af2bc57590b548e8,SCN,2024-06-25_12h42.51.979,LearnStrategy,2023.2.3,Win32,59.88023952,3,2,10,,,,,,,,6,10,,,,,,,,,,,6,1.259,1,,,,,,-0.148148148,-0.397222222,1,0,0,1.2591,Pegmatite_rect,9,0,9,0,1,
62c71e41af2bc57590b548e8,SCN,2024-06-25_12h42.51.979,LearnStrategy,2023.2.3,Win32,59.88023952,3,2,11,,,,,,,,5,06,,,,,,,,,,,5,1.309,1,,,,,,-0.375925926,-0.397222222,1,0,0,1.3092,Obsidian_rect,10,0,10,0,1,
62c71e41af2bc57590b548e8,SCN,2024-06-25_12h42.51.979,LearnStrategy,2023.2.3,Win32,59.88023952,3,2,12,,,,,,,,7,15,,,,,,,,,,,3,4.846,0,,,,,,0.080555556,-0.236111111,1,0,0,4.8458,Diorite_rect,11,0,11,0,1,
62c71e41af2bc57590b548e8,SCN,2024-06-25_12h42.51.979,LearnStrategy,2023.2.3,Win32,59.88023952,3,2,13,,,,,,,,3,06,,,,,,,,,,,4,2.958,0,,,,,,0.335185185,-0.244444444,1,0,0,2.9584,Gabbro_rect,12,0,12,0,1,
62c71e41af2bc57590b548e8,SCN,2024-06-25_12h42.51.979,LearnStrategy,2023.2.3,Win32,59.88023952,3,2,14,,,,,,,,8,16,,,,,,,,,,,8,2.522,1,,,,,,0.351851852,-0.37962963,1,0,0,2.5217,Pumice_rect,13,0,13,0,1,
62c71e41af2bc57590b548e8,SCN,2024-06-25_12h42.51.979,LearnStrategy,2023.2.3,Win32,59.88023952,3,2,15,,,,,,,,3,12,,,,,,,,,,,7,2.452,0,,,,,,0.087962963,-0.398148148,1,0,0,2.4518,Peridotite_rect,14,0,14,0,1,
62c71e41af2bc57590b548e8,SCN,2024-06-25_12h42.51.979,LearnStrategy,2023.2.3,Win32,59.88023952,3,2,16,,,,,,,,2,05,,,,,,,,,,,2,2.471,1,,,,,,-0.146296296,-0.262037037,1,0,0,2.4709,Basalt_rect,15,0,15,0,1,
62c71e41af2bc57590b548e8,SCN,2024-06-25_12h42.51.979,LearnStrategy,2023.2.3,Win32,59.88023952,4,1,1,0.064814815,-0.086111111,1,0,0,0.8914,Gabbro_14,4,14,3,5,0.891,0.119444444,-0.25,1,0,0,0.8665,Diorite_rect,3,0.867,0,0,0,0,0,1,,,,,,,,,,,,,
62c71e41af2bc57590b548e8,SCN,2024-06-25_12h42.51.979,LearnStrategy,2023.2.3,Win32,59.88023952,4,1,2,-0.057407407,0.07962963,1,0,0,0.7212,Gabbro_13,4,13,4,4,0.721,0.361111111,-0.238888889,1,0,0,1.7496,Gabbro_rect,4,1.75,1,1,0,1,0,1,,,,,,,,,,,,,
62c71e41af2bc57590b548e8,SCN,2024-06-25_12h42.51.979,LearnStrategy,2023.2.3,Win32,59.88023952,4,1,3,0.4,0.4,1,0,0,2.9993,Diorite_08,3,08,6,7,2.999,0.159259259,-0.393518519,1,0,0,1.5142,Peridotite_rect,7,1.514,0,2,0,2,0,1,,,,,,,,,,,,,
62c71e41af2bc57590b548e8,SCN,2024-06-25_12h42.51.979,LearnStrategy,2023.2.3,Win32,59.88023952,4,1,4,-0.373148148,0.448148148,1,0,0,1.06,Diorite_02,3,02,6,2,1.06,0.100925926,-0.241666667,1,0,0,1.1868,Diorite_rect,3,1.187,1,3,0,3,0,1,,,,,,,,,,,,,
62c71e41af2bc57590b548e8,SCN,2024-06-25_12h42.51.979,LearnStrategy,2023.2.3,Win32,59.88023952,4,1,5,-0.555555556,0.073148148,1,0,0,1.5171,Diorite_16,3,16,4,1,1.517,0.135185185,-0.385185185,1,0,0,1.6498,Peridotite_rect,7,1.65,0,4,0,4,0,1,,,,,,,,,,,,,
62c71e41af2bc57590b548e8,SCN,2024-06-25_12h42.51.979,LearnStrategy,2023.2.3,Win32,59.88023952,4,1,6,-0.228703704,-0.109259259,1,0,0,1.7179,Peridotite_08,7,08,3,3,1.718,0.121296296,-0.415740741,1,0,0,1.8941,Peridotite_rect,7,1.894,1,5,0,5,0,1,,,,,,,,,,,,,
62c71e41af2bc57590b548e8,SCN,2024-06-25_12h42.51.979,LearnStrategy,2023.2.3,Win32,59.88023952,4,1,7,-0.247222222,-0.265740741,1,0,0,1.1385,Peridotite_12,7,12,2,3,1.139,0.137962963,-0.421296296,1,0,0,1.2495,Peridotite_rect,7,1.25,1,6,0,6,0,1,,,,,,,,,,,,,
62c71e41af2bc57590b548e8,SCN,2024-06-25_12h42.51.979,LearnStrategy,2023.2.3,Win32,59.88023952,4,1,8,0.255555556,-0.082407407,1,0,0,1.2415,Pegmatite_09,6,09,3,6,1.242,-0.096296296,-0.405555556,1,0,0,1.2499,Pegmatite_rect,6,1.25,1,7,0,7,0,1,,,,,,,,,,,,,
62c71e41af2bc57590b548e8,SCN,2024-06-25_12h42.51.979,LearnStrategy,2023.2.3,Win32,59.88023952,4,1,9,0.4,0.09537037,1,0,0,1.3379,Peridotite_07,7,07,4,7,1.338,0.098148148,-0.256481481,1,0,0,1.4226,Diorite_rect,3,1.423,0,8,0,8,0,1,,,,,,,,,,,,,
62c71e41af2bc57590b548e8,SCN,2024-06-25_12h42.51.979,LearnStrategy,2023.2.3,Win32,59.88023952,4,1,10,0.078703704,0.075925926,1,0,0,1.2368,Diorite_09,3,09,4,5,1.237,0.112037037,-0.235185185,1,0,0,2.5198,Diorite_rect,3,2.52,1,9,0,9,0,1,,,,,,,,,,,,,
62c71e41af2bc57590b548e8,SCN,2024-06-25_12h42.51.979,LearnStrategy,2023.2.3,Win32,59.88023952,4,1,11,0.373148148,-0.442592593,1,0,0,1.3538,Peridotite_14,7,14,1,7,1.354,-0.137962963,-0.241666667,1,0,0,1.3116,Basalt_rect,2,1.312,0,10,0,10,0,1,,,,,,,,,,,,,
62c71e41af2bc57590b548e8,SCN,2024-06-25_12h42.51.979,LearnStrategy,2023.2.3,Win32,59.88023952,4,1,12,-0.112037037,-0.094444444,1,0,0,0.6228,Gabbro_05,4,05,3,4,0.623,-0.35,-0.255555556,1,0,0,3.5059,Andesite_rect,1,3.506,0,11,0,11,0,1,,,,,,,,,,,,,
62c71e41af2bc57590b548e8,SCN,2024-06-25_12h42.51.979,LearnStrategy,2023.2.3,Win32,59.88023952,4,1,13,0.539814815,-0.112037037,1,0,0,1.2524,Gabbro_03,4,03,3,8,1.252,0.34537037,-0.259259259,1,0,0,0.9504,Gabbro_rect,4,0.95,1,12,0,12,0,1,,,,,,,,,,,,,
62c71e41af2bc57590b548e8,SCN,2024-06-25_12h42.51.979,LearnStrategy,2023.2.3,Win32,59.88023952,4,1,14,-0.086111111,0.088888889,1,0,0,1.6431,Gabbro_13,4,13,4,4,1.643,0.07037037,-0.39537037,1,0,0,2.269,Peridotite_rect,7,2.269,0,13,0,13,0,1,,,,,,,,,,,,,
62c71e41af2bc57590b548e8,SCN,2024-06-25_12h42.51.979,LearnStrategy,2023.2.3,Win32,59.88023952,4,1,15,-0.54537037,0.233333333,1,0,0,1.1903,Basalt_11,2,11,5,1,1.19,-0.172222222,-0.262037037,1,0,0,1.3896,Basalt_rect,2,1.39,1,14,0,14,0,1,,,,,,,,,,,,,
62c71e41af2bc57590b548e8,SCN,2024-06-25_12h42.51.979,LearnStrategy,2023.2.3,Win32,59.88023952,4,1,16,-0.397222222,0.086111111,1,0,0,1.0834,Basalt_12,2,12,4,2,1.083,0.362037037,-0.394444444,1,0,0,1.1648,Pumice_rect,8,1.165,0,15,0,15,0,1,,,,,,,,,,,,,
62c71e41af2bc57590b548e8,SCN,2024-06-25_12h42.51.979,LearnStrategy,2023.2.3,Win32,59.88023952,4,2,1,,,,,,,,1,09,,,,,,,,,,,7,2.001,0,,,,,,0.135185185,-0.39537037,1,0,0,2.0011,Peridotite_rect,0,0,0,0,1,
62c71e41af2bc57590b548e8,SCN,2024-06-25_12h42.51.979,LearnStrategy,2023.2.3,Win32,59.88023952,4,2,2,,,,,,,,2,05,,,,,,,,,,,4,3.004,0,,,,,,0.398148148,-0.246296296,1,0,0,3.004,Gabbro_rect,1,0,1,0,1,
62c71e41af2bc57590b548e8,SCN,2024-06-25_12h42.51.979,LearnStrategy,2023.2.3,Win32,59.88023952,4,2,3,,,,,,,,2,04,,,,,,,,,,,4,1.263,0,,,,,,0.350925926,-0.25462963,1,0,0,1.2632,Gabbro_rect,2,0,2,0,1,
62c71e41af2bc57590b548e8,SCN,2024-06-25_12h42.51.979,LearnStrategy,2023.2.3,Win32,59.88023952,4,2,4,,,,,,,,8,13,,,,,,,,,,,3,2.111,0,,,,,,0.085185185,-0.248148148,1,0,0,2.1108,Diorite_rect,3,0,3,0,1,
62c71e41af2bc57590b548e8,SCN,2024-06-25_12h42.51.979,LearnStrategy,2023.2.3,Win32,59.88023952,4,2,5,,,,,,,,7,05,,,,,,,,,,,3,2.367,0,,,,,,0.086111111,-0.263888889,1,0,0,2.3666,Diorite_rect,4,0,4,0,1,
62c71e41af2bc57590b548e8,SCN,2024-06-25_12h42.51.979,LearnStrategy,2023.2.3,Win32,59.88023952,4,2,6,,,,,,,,3,07,,,,,,,,,,,3,1.519,1,,,,,,0.085185185,-0.258333333,1,0,0,1.5191,Diorite_rect,5,0,5,0,1,
62c71e41af2bc57590b548e8,SCN,2024-06-25_12h42.51.979,LearnStrategy,2023.2.3,Win32,59.88023952,4,2,7,,,,,,,,6,16,,,,,,,,,,,6,2.261,1,,,,,,-0.12037037,-0.394444444,1,0,0,2.2607,Pegmatite_rect,6,0,6,0,1,
62c71e41af2bc57590b548e8,SCN,2024-06-25_12h42.51.979,LearnStrategy,2023.2.3,Win32,59.88023952,4,2,8,,,,,,,,3,12,,,,,,,,,,,7,1.641,0,,,,,,0.099074074,-0.380555556,1,0,0,1.6414,Peridotite_rect,7,0,7,0,1,
62c71e41af2bc57590b548e8,SCN,2024-06-25_12h42.51.979,LearnStrategy,2023.2.3,Win32,59.88023952,4,2,9,,,,,,,,7,15,,,,,,,,,,,3,1.527,0,,,,,,0.090740741,-0.248148148,1,0,0,1.5272,Diorite_rect,8,0,8,0,1,
62c71e41af2bc57590b548e8,SCN,2024-06-25_12h42.51.979,LearnStrategy,2023.2.3,Win32,59.88023952,4,2,10,,,,,,,,4,09,,,,,,,,,,,1,2.313,0,,,,,,-0.348148148,-0.256481481,1,0,0,2.3131,Andesite_rect,9,0,9,0,1,
62c71e41af2bc57590b548e8,SCN,2024-06-25_12h42.51.979,LearnStrategy,2023.2.3,Win32,59.88023952,4,2,11,,,,,,,,5,12,,,,,,,,,,,5,0.947,1,,,,,,-0.339814815,-0.389814815,1,0,0,0.9468,Obsidian_rect,10,0,10,0,1,
62c71e41af2bc57590b548e8,SCN,2024-06-25_12h42.51.979,LearnStrategy,2023.2.3,Win32,59.88023952,4,2,12,,,,,,,,8,16,,,,,,,,,,,8,1.979,1,,,,,,0.364814815,-0.396296296,1,0,0,1.979,Pumice_rect,11,0,11,0,1,
62c71e41af2bc57590b548e8,SCN,2024-06-25_12h42.51.979,LearnStrategy,2023.2.3,Win32,59.88023952,4,2,13,,,,,,,,5,16,,,,,,,,,,,5,1.691,1,,,,,,-0.414814815,-0.389814815,1,0,0,1.6907,Obsidian_rect,12,0,12,0,1,
62c71e41af2bc57590b548e8,SCN,2024-06-25_12h42.51.979,LearnStrategy,2023.2.3,Win32,59.88023952,4,2,14,,,,,,,,4,12,,,,,,,,,,,3,3.37,0,,,,,,0.089814815,-0.252777778,1,0,0,3.37,Diorite_rect,13,0,13,0,1,
62c71e41af2bc57590b548e8,SCN,2024-06-25_12h42.51.979,LearnStrategy,2023.2.3,Win32,59.88023952,4,2,15,,,,,,,,1,07,,,,,,,,,,,7,1.588,0,,,,,,0.114814815,-0.394444444,1,0,0,1.5885,Peridotite_rect,14,0,14,0,1,
62c71e41af2bc57590b548e8,SCN,2024-06-25_12h42.51.979,LearnStrategy,2023.2.3,Win32,59.88023952,4,2,16,,,,,,,,6,08,,,,,,,,,,,6,1.17,1,,,,,,-0.109259259,-0.402777778,1,0,0,1.1704,Pegmatite_rect,15,0,15,0,1,
62c71e41af2bc57590b548e8,SCN,2024-06-25_12h42.51.979,LearnStrategy,2023.2.3,Win32,59.88023952,5,1,1,-0.237037037,0.094444444,1,0,0,1.0419,Gabbro_11,4,11,4,3,1.042,0.121296296,-0.25462963,1,0,0,1.4711,Diorite_rect,3,1.471,0,0,0,0,0,1,,,,,,,,,,,,,
62c71e41af2bc57590b548e8,SCN,2024-06-25_12h42.51.979,LearnStrategy,2023.2.3,Win32,59.88023952,5,1,2,-0.078703704,0.24537037,1,0,0,1.155,Diorite_15,3,15,5,4,1.155,0.139814815,-0.384259259,1,0,0,1.3315,Peridotite_rect,7,1.332,0,1,0,1,0,1,,,,,,,,,,,,,
62c71e41af2bc57590b548e8,SCN,2024-06-25_12h42.51.979,LearnStrategy,2023.2.3,Win32,59.88023952,5,1,3,0.213888889,0.406481481,1,0,0,2.2901,Pumice_06,8,06,6,6,2.29,-0.112962963,-0.243518519,1,0,0,1.2801,Basalt_rect,2,1.28,0,2,0,2,0,1,,,,,,,,,,,,,
62c71e41af2bc57590b548e8,SCN,2024-06-25_12h42.51.979,LearnStrategy,2023.2.3,Win32,59.88023952,5,1,4,0.094444444,0.089814815,1,0,0,1.5643,Diorite_09,3,09,4,5,1.564,0.12037037,-0.258333333,1,0,0,0.9789,Diorite_rect,3,0.979,1,3,0,3,0,1,,,,,,,,,,,,,
62c71e41af2bc57590b548e8,SCN,2024-06-25_12h42.51.979,LearnStrategy,2023.2.3,Win32,59.88023952,5,1,5,-0.413888889,-0.099074074,1,0,0,1.0939,Basalt_08,2,08,3,2,1.094,-0.165740741,-0.247222222,1,0,0,1.0416,Basalt_rect,2,1.042,1,4,0,4,0,1,,,,,,,,,,,,,
62c71e41af2bc57590b548e8,SCN,2024-06-25_12h42.51.979,LearnStrategy,2023.2.3,Win32,59.88023952,5,1,6,0.391666667,-0.256481481,1,0,0,2.1706,Pegmatite_12,6,12,2,7,2.171,0.140740741,-0.397222222,1,0,0,0.8703,Peridotite_rect,7,0.87,0,5,0,5,0,1,,,,,,,,,,,,,
62c71e41af2bc57590b548e8,SCN,2024-06-25_12h42.51.979,LearnStrategy,2023.2.3,Win32,59.88023952,5,1,7,0.55,-0.421296296,1,0,0,2.1037,Pegmatite_03,6,03,1,8,2.104,-0.110185185,-0.398148148,1,0,0,1.7374,Pegmatite_rect,6,1.737,1,6,0,6,0,1,,,,,,,,,,,,,
62c71e41af2bc57590b548e8,SCN,2024-06-25_12h42.51.979,LearnStrategy,2023.2.3,Win32,59.88023952,5,1,8,-0.54537037,-0.416666667,1,0,0,2.4435,Basalt_16,2,16,1,1,2.444,0.353703704,-0.251851852,1,0,0,2.2152,Gabbro_rect,4,2.215,0,7,0,7,0,1,,,,,,,,,,,,,
62c71e41af2bc57590b548e8,SCN,2024-06-25_12h42.51.979,LearnStrategy,2023.2.3,Win32,59.88023952,5,1,9,-0.544444444,0.07962963,1,0,0,1.7271,Diorite_16,3,16,4,1,1.727,0.089814815,-0.24537037,1,0,0,1.2006,Diorite_rect,3,1.201,1,8,0,8,0,1,,,,,,,,,,,,,
62c71e41af2bc57590b548e8,SCN,2024-06-25_12h42.51.979,LearnStrategy,2023.2.3,Win32,59.88023952,5,1,10,-0.213888889,0.22037037,1,0,0,1.8016,Pegmatite_07,6,07,5,3,1.802,-0.161111111,-0.398148148,1,0,0,1.1305,Pegmatite_rect,6,1.13,1,9,0,9,0,1,,,,,,,,,,,,,
62c71e41af2bc57590b548e8,SCN,2024-06-25_12h42.51.979,LearnStrategy,2023.2.3,Win32,59.88023952,5,1,11,-0.527777778,0.257407407,1,0,0,1.1319,Basalt_11,2,11,5,1,1.132,-0.12037037,-0.234259259,1,0,0,2.1106,Basalt_rect,2,2.111,1,10,0,10,0,1,,,,,,,,,,,,,
62c71e41af2bc57590b548e8,SCN,2024-06-25_12h42.51.979,LearnStrategy,2023.2.3,Win32,59.88023952,5,1,12,-0.527777778,0.451851852,1,0,0,1.2388,Basalt_06,2,06,6,1,1.239,0.372222222,-0.243518519,1,0,0,2.7916,Gabbro_rect,4,2.792,0,11,0,11,0,1,,,,,,,,,,,,,
62c71e41af2bc57590b548e8,SCN,2024-06-25_12h42.51.979,LearnStrategy,2023.2.3,Win32,59.88023952,5,1,13,0.206481481,0.101851852,1,0,0,1.1559,Gabbro_08,4,08,4,6,1.156,0.114814815,-0.25,1,0,0,1.4613,Diorite_rect,3,1.461,0,12,0,12,0,1,,,,,,,,,,,,,
62c71e41af2bc57590b548e8,SCN,2024-06-25_12h42.51.979,LearnStrategy,2023.2.3,Win32,59.88023952,5,1,14,0.066666667,0.24537037,1,0,0,0.7247,Andesite_16,1,16,5,5,0.725,0.087962963,-0.236111111,1,0,0,1.114,Diorite_rect,3,1.114,0,13,0,13,0,1,,,,,,,,,,,,,
62c71e41af2bc57590b548e8,SCN,2024-06-25_12h42.51.979,LearnStrategy,2023.2.3,Win32,59.88023952,5,1,15,-0.084259259,0.288888889,1,0,0,0.7932,Diorite_15,3,15,5,4,0.793,-0.062962963,-0.391666667,1,0,0,1.8711,Pegmatite_rect,6,1.871,0,14,0,14,0,1,,,,,,,,,,,,,
62c71e41af2bc57590b548e8,SCN,2024-06-25_12h42.51.979,LearnStrategy,2023.2.3,Win32,59.88023952,5,1,16,0.251851852,-0.260185185,1,0,0,0.9644,Obsidian_08,5,08,2,6,0.964,-0.361111111,-0.410185185,1,0,0,0.9146,Obsidian_rect,5,0.915,1,15,0,15,0,1,,,,,,,,,,,,,
62c71e41af2bc57590b548e8,SCN,2024-06-25_12h42.51.979,LearnStrategy,2023.2.3,Win32,59.88023952,5,2,1,,,,,,,,1,02,,,,,,,,,,,3,2.946,0,,,,,,0.107407407,-0.234259259,1,0,0,2.9455,Diorite_rect,0,0,0,0,1,
62c71e41af2bc57590b548e8,SCN,2024-06-25_12h42.51.979,LearnStrategy,2023.2.3,Win32,59.88023952,5,2,2,,,,,,,,6,11,,,,,,,,,,,6,0.968,1,,,,,,-0.14537037,-0.396296296,1,0,0,0.9683,Pegmatite_rect,1,0,1,0,1,
62c71e41af2bc57590b548e8,SCN,2024-06-25_12h42.51.979,LearnStrategy,2023.2.3,Win32,59.88023952,5,2,3,,,,,,,,7,02,,,,,,,,,,,7,1.273,1,,,,,,0.111111111,-0.396296296,1,0,0,1.2728,Peridotite_rect,2,0,2,0,1,
62c71e41af2bc57590b548e8,SCN,2024-06-25_12h42.51.979,LearnStrategy,2023.2.3,Win32,59.88023952,5,2,4,,,,,,,,5,05,,,,,,,,,,,5,1.179,1,,,,,,-0.300925926,-0.378703704,1,0,0,1.1785,Obsidian_rect,3,0,3,0,1,
62c71e41af2bc57590b548e8,SCN,2024-06-25_12h42.51.979,LearnStrategy,2023.2.3,Win32,59.88023952,5,2,5,,,,,,,,8,04,,,,,,,,,,,8,1.82,1,,,,,,0.352777778,-0.39537037,1,0,0,1.8205,Pumice_rect,4,0,4,0,1,
62c71e41af2bc57590b548e8,SCN,2024-06-25_12h42.51.979,LearnStrategy,2023.2.3,Win32,59.88023952,5,2,6,,,,,,,,5,06,,,,,,,,,,,5,1.153,1,,,,,,-0.343518519,-0.402777778,1,0,0,1.1526,Obsidian_rect,5,0,5,0,1,
62c71e41af2bc57590b548e8,SCN,2024-06-25_12h42.51.979,LearnStrategy,2023.2.3,Win32,59.88023952,5,2,7,,,,,,,,2,01,,,,,,,,,,,2,1.259,1,,,,,,-0.149074074,-0.24537037,1,0,0,1.2587,Basalt_rect,6,0,6,0,1,
62c71e41af2bc57590b548e8,SCN,2024-06-25_12h42.51.979,LearnStrategy,2023.2.3,Win32,59.88023952,5,2,8,,,,,,,,8,14,,,,,,,,,,,8,1.192,1,,,,,,0.377777778,-0.397222222,1,0,0,1.1918,Pumice_rect,7,0,7,0,1,
62c71e41af2bc57590b548e8,SCN,2024-06-25_12h42.51.979,LearnStrategy,2023.2.3,Win32,59.88023952,5,2,9,,,,,,,,7,16,,,,,,,,,,,3,1.344,0,,,,,,0.163888889,-0.247222222,1,0,0,1.3439,Diorite_rect,8,0,8,0,1,
62c71e41af2bc57590b548e8,SCN,2024-06-25_12h42.51.979,LearnStrategy,2023.2.3,Win32,59.88023952,5,2,10,,,,,,,,4,16,,,,,,,,,,,4,1.467,1,,,,,,0.333333333,-0.231481481,1,0,0,1.4669,Gabbro_rect,9,0,9,0,1,
62c71e41af2bc57590b548e8,SCN,2024-06-25_12h42.51.979,LearnStrategy,2023.2.3,Win32,59.88023952,5,2,11,,,,,,,,3,06,,,,,,,,,,,7,1.068,0,,,,,,0.1,-0.394444444,1,0,0,1.0679,Peridotite_rect,10,0,10,0,1,
62c71e41af2bc57590b548e8,SCN,2024-06-25_12h42.51.979,LearnStrategy,2023.2.3,Win32,59.88023952,5,2,12,,,,,,,,3,10,,,,,,,,,,,7,0.698,0,,,,,,0.123148148,-0.393518519,1,0,0,0.6985,Peridotite_rect,11,0,11,0,1,
62c71e41af2bc57590b548e8,SCN,2024-06-25_12h42.51.979,LearnStrategy,2023.2.3,Win32,59.88023952,5,2,13,,,,,,,,2,14,,,,,,,,,,,8,1.949,0,,,,,,0.357407407,-0.39537037,1,0,0,1.9488,Pumice_rect,12,0,12,0,1,
62c71e41af2bc57590b548e8,SCN,2024-06-25_12h42.51.979,LearnStrategy,2023.2.3,Win32,59.88023952,5,2,14,,,,,,,,6,05,,,,,,,,,,,6,2.796,1,,,,,,-0.084259259,-0.382407407,1,0,0,2.796,Pegmatite_rect,13,0,13,0,1,
62c71e41af2bc57590b548e8,SCN,2024-06-25_12h42.51.979,LearnStrategy,2023.2.3,Win32,59.88023952,5,2,15,,,,,,,,4,10,,,,,,,,,,,2,2.259,0,,,,,,-0.12962963,-0.251851852,1,0,0,2.259,Basalt_rect,14,0,14,0,1,
62c71e41af2bc57590b548e8,SCN,2024-06-25_12h42.51.979,LearnStrategy,2023.2.3,Win32,59.88023952,5,2,16,,,,,,,,1,01,,,,,,,,,,,4,1.651,0,,,,,,0.337037037,-0.260185185,1,0,0,1.6509,Gabbro_rect,15,0,15,0,1,
62c71e41af2bc57590b548e8,SCN,2024-06-25_12h42.51.979,LearnStrategy,2023.2.3,Win32,59.88023952,6,1,1,-0.086111111,-0.089814815,1,0,0,0.6185,Gabbro_05,4,05,3,4,0.619,-0.174074074,-0.257407407,1,0,0,0.8415,Basalt_rect,2,0.841,0,0,0,0,0,1,,,,,,,,,,,,,
62c71e41af2bc57590b548e8,SCN,2024-06-25_12h42.51.979,LearnStrategy,2023.2.3,Win32,59.88023952,6,1,2,-0.424074074,-0.101851852,1,0,0,0.866,Basalt_08,2,08,3,2,0.866,-0.182407407,-0.266666667,1,0,0,0.6088,Basalt_rect,2,0.609,1,1,0,1,0,1,,,,,,,,,,,,,
62c71e41af2bc57590b548e8,SCN,2024-06-25_12h42.51.979,LearnStrategy,2023.2.3,Win32,59.88023952,6,1,3,-0.553703704,0.391666667,1,0,0,1.2153,Basalt_06,2,06,6,1,1.215,-0.14537037,-0.255555556,1,0,0,1.8775,Basalt_rect,2,1.878,1,2,0,2,0,1,,,,,,,,,,,,,
62c71e41af2bc57590b548e8,SCN,2024-06-25_12h42.51.979,LearnStrategy,2023.2.3,Win32,59.88023952,6,1,4,-0.373148148,0.376851852,1,0,0,0.8817,Diorite_02,3,02,6,2,0.882,0.093518519,-0.244444444,1,0,0,1.1356,Diorite_rect,3,1.136,1,3,0,3,0,1,,,,,,,,,,,,,
62c71e41af2bc57590b548e8,SCN,2024-06-25_12h42.51.979,LearnStrategy,2023.2.3,Win32,59.88023952,6,1,5,-0.234259259,0.384259259,1,0,0,0.8388,Basalt_10,2,10,6,3,0.839,0.37962963,-0.238888889,1,0,0,1.4833,Gabbro_rect,4,1.483,0,4,0,4,0,1,,,,,,,,,,,,,
62c71e41af2bc57590b548e8,SCN,2024-06-25_12h42.51.979,LearnStrategy,2023.2.3,Win32,59.88023952,6,1,6,-0.043518519,0.431481481,1,0,0,0.8313,Pegmatite_06,6,06,6,4,0.831,-0.137037037,-0.39537037,1,0,0,1.3512,Pegmatite_rect,6,1.351,1,5,0,5,0,1,,,,,,,,,,,,,
62c71e41af2bc57590b548e8,SCN,2024-06-25_12h42.51.979,LearnStrategy,2023.2.3,Win32,59.88023952,6,1,7,0.060185185,0.413888889,1,0,0,1.091,Pegmatite_15,6,15,6,5,1.091,-0.098148148,-0.387962963,1,0,0,1.3015,Pegmatite_rect,6,1.301,1,6,0,6,0,1,,,,,,,,,,,,,
62c71e41af2bc57590b548e8,SCN,2024-06-25_12h42.51.979,LearnStrategy,2023.2.3,Win32,59.88023952,6,1,8,0.244444444,0.401851852,1,0,0,1.1215,Pumice_06,8,06,6,6,1.121,0.366666667,-0.415740741,1,0,0,1.1906,Pumice_rect,8,1.191,1,7,0,7,0,1,,,,,,,,,,,,,
62c71e41af2bc57590b548e8,SCN,2024-06-25_12h42.51.979,LearnStrategy,2023.2.3,Win32,59.88023952,6,1,9,0.42037037,0.443518519,1,0,0,1.0544,Diorite_08,3,08,6,7,1.054,0.162962963,-0.243518519,1,0,0,1.0393,Diorite_rect,3,1.039,1,8,0,8,0,1,,,,,,,,,,,,,
62c71e41af2bc57590b548e8,SCN,2024-06-25_12h42.51.979,LearnStrategy,2023.2.3,Win32,59.88023952,6,1,10,0.550925926,0.417592593,1,0,0,1.0478,Pumice_05,8,05,6,8,1.048,0.366666667,-0.394444444,1,0,0,1.1216,Pumice_rect,8,1.122,1,9,0,9,0,1,,,,,,,,,,,,,
62c71e41af2bc57590b548e8,SCN,2024-06-25_12h42.51.979,LearnStrategy,2023.2.3,Win32,59.88023952,6,1,11,-0.564814815,0.246296296,1,0,0,1.0918,Basalt_11,2,11,5,1,1.092,-0.106481481,-0.239814815,1,0,0,1.232,Basalt_rect,2,1.232,1,10,0,10,0,1,,,,,,,,,,,,,
62c71e41af2bc57590b548e8,SCN,2024-06-25_12h42.51.979,LearnStrategy,2023.2.3,Win32,59.88023952,6,1,12,-0.407407407,0.25462963,1,0,0,0.9406,Andesite_04,1,04,5,2,0.941,0.098148148,-0.233333333,1,0,0,1.4904,Diorite_rect,3,1.49,0,11,0,11,0,1,,,,,,,,,,,,,
62c71e41af2bc57590b548e8,SCN,2024-06-25_12h42.51.979,LearnStrategy,2023.2.3,Win32,59.88023952,6,1,13,-0.219444444,0.246296296,1,0,0,0.9677,Pegmatite_07,6,07,5,3,0.968,-0.168518519,-0.417592593,1,0,0,1.0069,Pegmatite_rect,6,1.007,1,12,0,12,0,1,,,,,,,,,,,,,
62c71e41af2bc57590b548e8,SCN,2024-06-25_12h42.51.979,LearnStrategy,2023.2.3,Win32,59.88023952,6,1,14,-0.061111111,0.251851852,1,0,0,1.2542,Diorite_15,3,15,5,4,1.254,0.101851852,-0.247222222,1,0,0,1.0018,Diorite_rect,3,1.002,1,13,0,13,0,1,,,,,,,,,,,,,
62c71e41af2bc57590b548e8,SCN,2024-06-25_12h42.51.979,LearnStrategy,2023.2.3,Win32,59.88023952,6,1,15,0.073148148,0.240740741,1,0,0,1.6567,Andesite_16,1,16,5,5,1.657,0.135185185,-0.4,1,0,0,2.5558,Peridotite_rect,7,2.556,0,14,0,14,0,1,,,,,,,,,,,,,
62c71e41af2bc57590b548e8,SCN,2024-06-25_12h42.51.979,LearnStrategy,2023.2.3,Win32,59.88023952,6,1,16,0.243518519,0.255555556,1,0,0,0.8875,Peridotite_06,7,06,5,6,0.888,-0.128703704,-0.394444444,1,0,0,1.4828,Pegmatite_rect,6,1.483,0,15,0,15,0,1,,,,,,,,,,,,,
62c71e41af2bc57590b548e8,SCN,2024-06-25_12h42.51.979,LearnStrategy,2023.2.3,Win32,59.88023952,6,2,1,,,,,,,,8,10,,,,,,,,,,,8,1.49,1,,,,,,0.336111111,-0.389814815,1,0,0,1.4905,Pumice_rect,0,0,0,0,1,
62c71e41af2bc57590b548e8,SCN,2024-06-25_12h42.51.979,LearnStrategy,2023.2.3,Win32,59.88023952,6,2,2,,,,,,,,7,04,,,,,,,,,,,6,2.185,0,,,,,,-0.119444444,-0.40462963,1,0,0,2.185,Pegmatite_rect,1,0,1,0,1,
62c71e41af2bc57590b548e8,SCN,2024-06-25_12h42.51.979,LearnStrategy,2023.2.3,Win32,59.88023952,6,2,3,,,,,,,,7,13,,,,,,,,,,,3,1.858,0,,,,,,0.097222222,-0.265740741,1,0,0,1.8579,Diorite_rect,2,0,2,0,1,
62c71e41af2bc57590b548e8,SCN,2024-06-25_12h42.51.979,LearnStrategy,2023.2.3,Win32,59.88023952,6,2,4,,,,,,,,4,01,,,,,,,,,,,7,1.311,0,,,,,,0.085185185,-0.40462963,1,0,0,1.3112,Peridotite_rect,3,0,3,0,1,
62c71e41af2bc57590b548e8,SCN,2024-06-25_12h42.51.979,LearnStrategy,2023.2.3,Win32,59.88023952,6,2,5,,,,,,,,6,13,,,,,,,,,,,6,2.05,1,,,,,,-0.142592593,-0.385185185,1,0,0,2.0496,Pegmatite_rect,4,0,4,0,1,
62c71e41af2bc57590b548e8,SCN,2024-06-25_12h42.51.979,LearnStrategy,2023.2.3,Win32,59.88023952,6,2,6,,,,,,,,3,13,,,,,,,,,,,7,1.754,0,,,,,,0.131481481,-0.399074074,1,0,0,1.7537,Peridotite_rect,5,0,5,0,1,
62c71e41af2bc57590b548e8,SCN,2024-06-25_12h42.51.979,LearnStrategy,2023.2.3,Win32,59.88023952,6,2,7,,,,,,,,1,06,,,,,,,,,,,1,1.214,1,,,,,,-0.37962963,-0.258333333,1,0,0,1.214,Andesite_rect,6,0,6,0,1,
62c71e41af2bc57590b548e8,SCN,2024-06-25_12h42.51.979,LearnStrategy,2023.2.3,Win32,59.88023952,6,2,8,,,,,,,,1,05,,,,,,,,,,,1,0.864,1,,,,,,-0.396296296,-0.246296296,1,0,0,0.8638,Andesite_rect,7,0,7,0,1,
62c71e41af2bc57590b548e8,SCN,2024-06-25_12h42.51.979,LearnStrategy,2023.2.3,Win32,59.88023952,6,2,9,,,,,,,,2,09,,,,,,,,,,,2,1.137,1,,,,,,-0.190740741,-0.263888889,1,0,0,1.1373,Basalt_rect,8,0,8,0,1,
62c71e41af2bc57590b548e8,SCN,2024-06-25_12h42.51.979,LearnStrategy,2023.2.3,Win32,59.88023952,6,2,10,,,,,,,,5,11,,,,,,,,,,,5,1.051,1,,,,,,-0.328703704,-0.399074074,1,0,0,1.0506,Obsidian_rect,9,0,9,0,1,
62c71e41af2bc57590b548e8,SCN,2024-06-25_12h42.51.979,LearnStrategy,2023.2.3,Win32,59.88023952,6,2,11,,,,,,,,3,11,,,,,,,,,,,7,1.448,0,,,,,,0.078703704,-0.391666667,1,0,0,1.4477,Peridotite_rect,10,0,10,0,1,
62c71e41af2bc57590b548e8,SCN,2024-06-25_12h42.51.979,LearnStrategy,2023.2.3,Win32,59.88023952,6,2,12,,,,,,,,8,09,,,,,,,,,,,8,1.043,1,,,,,,0.314814815,-0.398148148,1,0,0,1.0434,Pumice_rect,11,0,11,0,1,
62c71e41af2bc57590b548e8,SCN,2024-06-25_12h42.51.979,LearnStrategy,2023.2.3,Win32,59.88023952,6,2,13,,,,,,,,2,02,,,,,,,,,,,2,1.202,1,,,,,,-0.090740741,-0.262962963,1,0,0,1.2016,Basalt_rect,12,0,12,0,1,
62c71e41af2bc57590b548e8,SCN,2024-06-25_12h42.51.979,LearnStrategy,2023.2.3,Win32,59.88023952,6,2,14,,,,,,,,5,07,,,,,,,,,,,5,1.099,1,,,,,,-0.35,-0.397222222,1,0,0,1.0989,Obsidian_rect,13,0,13,0,1,
62c71e41af2bc57590b548e8,SCN,2024-06-25_12h42.51.979,LearnStrategy,2023.2.3,Win32,59.88023952,6,2,15,,,,,,,,4,15,,,,,,,,,,,4,2.434,1,,,,,,0.324074074,-0.261111111,1,0,0,2.4344,Gabbro_rect,14,0,14,0,1,
62c71e41af2bc57590b548e8,SCN,2024-06-25_12h42.51.979,LearnStrategy,2023.2.3,Win32,59.88023952,6,2,16,,,,,,,,6,10,,,,,,,,,,,6,1.2,1,,,,,,-0.112962963,-0.413888889,1,0,0,1.1997,Pegmatite_rect,15,0,15,0,1,
62c71e41af2bc57590b548e8,SCN,2024-06-25_12h42.51.979,LearnStrategy,2023.2.3,Win32,59.88023952,7,1,1,0.575925926,-0.427777778,1,0,0,1.1823,Pegmatite_03,6,03,1,8,1.182,-0.080555556,-0.419444444,1,0,0,2.2982,Pegmatite_rect,6,2.298,1,0,0,0,0,1,,,,,,,,,,,,,
62c71e41af2bc57590b548e8,SCN,2024-06-25_12h42.51.979,LearnStrategy,2023.2.3,Win32,59.88023952,7,1,2,0.367592593,-0.4,1,0,0,2.1151,Peridotite_14,7,14,1,7,2.115,0.103703704,-0.25,1,0,0,2.5311,Diorite_rect,3,2.531,0,1,0,1,0,1,,,,,,,,,,,,,
62c71e41af2bc57590b548e8,SCN,2024-06-25_12h42.51.979,LearnStrategy,2023.2.3,Win32,59.88023952,7,1,3,0.22037037,-0.433333333,1,0,0,0.8174,Peridotite_10,7,10,1,6,0.817,0.096296296,-0.387962963,1,0,0,1.5117,Peridotite_rect,7,1.512,1,2,0,2,0,1,,,,,,,,,,,,,
62c71e41af2bc57590b548e8,SCN,2024-06-25_12h42.51.979,LearnStrategy,2023.2.3,Win32,59.88023952,7,1,4,0.064814815,-0.401851852,1,0,0,0.9038,Andesite_14,1,14,1,5,0.904,-0.075,-0.399074074,1,0,0,1.953,Pegmatite_rect,6,1.953,0,3,0,3,0,1,,,,,,,,,,,,,
62c71e41af2bc57590b548e8,SCN,2024-06-25_12h42.51.979,LearnStrategy,2023.2.3,Win32,59.88023952,7,1,5,-0.110185185,-0.410185185,1,0,0,1.3632,Obsidian_09,5,09,1,4,1.363,-0.359259259,-0.413888889,1,0,0,0.6507,Obsidian_rect,5,0.651,1,4,0,4,0,1,,,,,,,,,,,,,
62c71e41af2bc57590b548e8,SCN,2024-06-25_12h42.51.979,LearnStrategy,2023.2.3,Win32,59.88023952,7,1,6,-0.267592593,-0.417592593,1,0,0,0.97,Pumice_08,8,08,1,3,0.97,0.375925926,-0.390740741,1,0,0,1.1087,Pumice_rect,8,1.109,1,5,0,5,0,1,,,,,,,,,,,,,
62c71e41af2bc57590b548e8,SCN,2024-06-25_12h42.51.979,LearnStrategy,2023.2.3,Win32,59.88023952,7,1,7,-0.418518519,-0.40462963,1,0,0,1.3073,Pumice_03,8,03,1,2,1.307,0.394444444,-0.407407407,1,0,0,1.3787,Pumice_rect,8,1.379,1,6,0,6,0,1,,,,,,,,,,,,,
62c71e41af2bc57590b548e8,SCN,2024-06-25_12h42.51.979,LearnStrategy,2023.2.3,Win32,59.88023952,7,1,8,-0.57037037,-0.409259259,1,0,0,1.0957,Basalt_16,2,16,1,1,1.096,0.332407407,-0.242592593,1,0,0,1.4278,Gabbro_rect,4,1.428,0,7,0,7,0,1,,,,,,,,,,,,,
62c71e41af2bc57590b548e8,SCN,2024-06-25_12h42.51.979,LearnStrategy,2023.2.3,Win32,59.88023952,7,1,9,-0.52962963,-0.266666667,1,0,0,1.1175,Andesite_10,1,10,2,1,1.118,-0.321296296,-0.271296296,1,0,0,1.5174,Andesite_rect,1,1.517,1,8,0,8,0,1,,,,,,,,,,,,,
62c71e41af2bc57590b548e8,SCN,2024-06-25_12h42.51.979,LearnStrategy,2023.2.3,Win32,59.88023952,7,1,10,-0.42962963,-0.262962963,1,0,0,1.4271,Obsidian_14,5,14,2,2,1.427,-0.435185185,-0.385185185,1,0,0,0.6542,Obsidian_rect,5,0.654,1,9,0,9,0,1,,,,,,,,,,,,,
62c71e41af2bc57590b548e8,SCN,2024-06-25_12h42.51.979,LearnStrategy,2023.2.3,Win32,59.88023952,7,1,11,-0.24537037,-0.246296296,1,0,0,1.192,Peridotite_12,7,12,2,3,1.192,0.125,-0.399074074,1,0,0,1.1053,Peridotite_rect,7,1.105,1,10,0,10,0,1,,,,,,,,,,,,,
62c71e41af2bc57590b548e8,SCN,2024-06-25_12h42.51.979,LearnStrategy,2023.2.3,Win32,59.88023952,7,1,12,-0.090740741,-0.262037037,1,0,0,1.0248,Andesite_03,1,03,2,4,1.025,-0.392592593,-0.247222222,1,0,0,1.3886,Andesite_rect,1,1.389,1,11,0,11,0,1,,,,,,,,,,,,,
62c71e41af2bc57590b548e8,SCN,2024-06-25_12h42.51.979,LearnStrategy,2023.2.3,Win32,59.88023952,7,1,13,0.072222222,-0.242592593,1,0,0,1.7209,Andesite_11,1,11,2,5,1.721,-0.333333333,-0.24537037,1,0,0,1.4289,Andesite_rect,1,1.429,1,12,0,12,0,1,,,,,,,,,,,,,
62c71e41af2bc57590b548e8,SCN,2024-06-25_12h42.51.979,LearnStrategy,2023.2.3,Win32,59.88023952,7,1,14,0.387962963,-0.272222222,1,0,0,1.5235,Pegmatite_12,6,12,2,7,1.524,0.102777778,-0.403703704,1,0,0,2.5,Peridotite_rect,7,2.5,0,13,0,13,0,1,,,,,,,,,,,,,
62c71e41af2bc57590b548e8,SCN,2024-06-25_12h42.51.979,LearnStrategy,2023.2.3,Win32,59.88023952,7,1,15,0.375925926,-0.151851852,1,0,0,0.6134,Obsidian_04,5,04,3,7,0.613,0.187037037,-0.406481481,1,0,0,1.8808,Peridotite_rect,7,1.881,0,14,0,14,0,1,,,,,,,,,,,,,
62c71e41af2bc57590b548e8,SCN,2024-06-25_12h42.51.979,LearnStrategy,2023.2.3,Win32,59.88023952,7,1,16,-0.064814815,-0.089814815,1,0,0,1.1918,Gabbro_05,4,05,3,4,1.192,-0.313888889,-0.247222222,1,0,0,2.4755,Andesite_rect,1,2.476,0,15,0,15,0,1,,,,,,,,,,,,,
62c71e41af2bc57590b548e8,SCN,2024-06-25_12h42.51.979,LearnStrategy,2023.2.3,Win32,59.88023952,7,2,1,,,,,,,,5,07,,,,,,,,,,,5,1.465,1,,,,,,-0.357407407,-0.398148148,1,0,0,1.4649,Obsidian_rect,0,0,0,0,1,
62c71e41af2bc57590b548e8,SCN,2024-06-25_12h42.51.979,LearnStrategy,2023.2.3,Win32,59.88023952,7,2,2,,,,,,,,8,10,,,,,,,,,,,8,1.208,1,,,,,,0.306481481,-0.388888889,1,0,0,1.2078,Pumice_rect,1,0,1,0,1,
62c71e41af2bc57590b548e8,SCN,2024-06-25_12h42.51.979,LearnStrategy,2023.2.3,Win32,59.88023952,7,2,3,,,,,,,,6,16,,,,,,,,,,,6,1.622,1,,,,,,-0.124074074,-0.396296296,1,0,0,1.6225,Pegmatite_rect,2,0,2,0,1,
62c71e41af2bc57590b548e8,SCN,2024-06-25_12h42.51.979,LearnStrategy,2023.2.3,Win32,59.88023952,7,2,4,,,,,,,,2,01,,,,,,,,,,,2,1.917,1,,,,,,-0.138888889,-0.252777778,1,0,0,1.917,Basalt_rect,3,0,3,0,1,
62c71e41af2bc57590b548e8,SCN,2024-06-25_12h42.51.979,LearnStrategy,2023.2.3,Win32,59.88023952,7,2,5,,,,,,,,1,01,,,,,,,,,,,4,4.35,0,,,,,,0.358333333,-0.25,1,0,0,4.3496,Gabbro_rect,4,0,4,0,1,
62c71e41af2bc57590b548e8,SCN,2024-06-25_12h42.51.979,LearnStrategy,2023.2.3,Win32,59.88023952,7,2,6,,,,,,,,3,06,,,,,,,,,,,3,1.11,1,,,,,,0.1,-0.25462963,1,0,0,1.1103,Diorite_rect,5,0,5,0,1,
62c71e41af2bc57590b548e8,SCN,2024-06-25_12h42.51.979,LearnStrategy,2023.2.3,Win32,59.88023952,7,2,7,,,,,,,,2,04,,,,,,,,,,,2,1.424,1,,,,,,-0.074074074,-0.256481481,1,0,0,1.4242,Basalt_rect,6,0,6,0,1,
62c71e41af2bc57590b548e8,SCN,2024-06-25_12h42.51.979,LearnStrategy,2023.2.3,Win32,59.88023952,7,2,8,,,,,,,,3,10,,,,,,,,,,,7,2.414,0,,,,,,0.085185185,-0.401851852,1,0,0,2.4135,Peridotite_rect,7,0,7,0,1,
62c71e41af2bc57590b548e8,SCN,2024-06-25_12h42.51.979,LearnStrategy,2023.2.3,Win32,59.88023952,7,2,9,,,,,,,,5,16,,,,,,,,,,,5,1,1,,,,,,-0.384259259,-0.388888889,1,0,0,1.0001,Obsidian_rect,8,0,8,0,1,
62c71e41af2bc57590b548e8,SCN,2024-06-25_12h42.51.979,LearnStrategy,2023.2.3,Win32,59.88023952,7,2,10,,,,,,,,8,13,,,,,,,,,,,8,1.516,1,,,,,,0.331481481,-0.403703704,1,0,0,1.5159,Pumice_rect,9,0,9,0,1,
62c71e41af2bc57590b548e8,SCN,2024-06-25_12h42.51.979,LearnStrategy,2023.2.3,Win32,59.88023952,7,2,11,,,,,,,,4,09,,,,,,,,,,,2,2.312,0,,,,,,-0.178703704,-0.250925926,1,0,0,2.3121,Basalt_rect,10,0,10,0,1,
62c71e41af2bc57590b548e8,SCN,2024-06-25_12h42.51.979,LearnStrategy,2023.2.3,Win32,59.88023952,7,2,12,,,,,,,,7,05,,,,,,,,,,,7,1.637,1,,,,,,0.110185185,-0.394444444,1,0,0,1.6367,Peridotite_rect,11,0,11,0,1,
62c71e41af2bc57590b548e8,SCN,2024-06-25_12h42.51.979,LearnStrategy,2023.2.3,Win32,59.88023952,7,2,13,,,,,,,,7,04,,,,,,,,,,,3,1.47,0,,,,,,0.067592593,-0.247222222,1,0,0,1.4695,Diorite_rect,12,0,12,0,1,
62c71e41af2bc57590b548e8,SCN,2024-06-25_12h42.51.979,LearnStrategy,2023.2.3,Win32,59.88023952,7,2,14,,,,,,,,1,02,,,,,,,,,,,7,1.488,0,,,,,,0.073148148,-0.387962963,1,0,0,1.4878,Peridotite_rect,13,0,13,0,1,
62c71e41af2bc57590b548e8,SCN,2024-06-25_12h42.51.979,LearnStrategy,2023.2.3,Win32,59.88023952,7,2,15,,,,,,,,6,10,,,,,,,,,,,6,1.038,1,,,,,,-0.146296296,-0.378703704,1,0,0,1.038,Pegmatite_rect,14,0,14,0,1,
62c71e41af2bc57590b548e8,SCN,2024-06-25_12h42.51.979,LearnStrategy,2023.2.3,Win32,59.88023952,7,2,16,,,,,,,,4,10,,,,,,,,,,,2,1.4,0,,,,,,-0.168518519,-0.244444444,1,0,0,1.4002,Basalt_rect,15,0,15,0,1,
62c71e41af2bc57590b548e8,SCN,2024-06-25_12h42.51.979,LearnStrategy,2023.2.3,Win32,59.88023952,8,1,1,-0.526851852,0.068518519,1,0,0,2.2748,Diorite_16,3,16,4,1,2.275,0.075,-0.383333333,1,0,0,1.5088,Peridotite_rect,7,1.509,0,0,0,0,0,1,,,,,,,,,,,,,
62c71e41af2bc57590b548e8,SCN,2024-06-25_12h42.51.979,LearnStrategy,2023.2.3,Win32,59.88023952,8,1,2,-0.421296296,0.098148148,1,0,0,0.8312,Basalt_12,2,12,4,2,0.831,0.394444444,-0.382407407,1,0,0,1.45,Pumice_rect,8,1.45,0,1,0,1,0,1,,,,,,,,,,,,,
62c71e41af2bc57590b548e8,SCN,2024-06-25_12h42.51.979,LearnStrategy,2023.2.3,Win32,59.88023952,8,1,3,-0.231481481,0.097222222,1,0,0,0.9716,Gabbro_11,4,11,4,3,0.972,0.109259259,-0.25462963,1,0,0,1.4821,Diorite_rect,3,1.482,0,2,0,2,0,1,,,,,,,,,,,,,
62c71e41af2bc57590b548e8,SCN,2024-06-25_12h42.51.979,LearnStrategy,2023.2.3,Win32,59.88023952,8,1,4,-0.07037037,0.090740741,1,0,0,0.8789,Gabbro_13,4,13,4,4,0.879,-0.362037037,-0.250925926,1,0,0,1.5896,Andesite_rect,1,1.59,0,3,0,3,0,1,,,,,,,,,,,,,
62c71e41af2bc57590b548e8,SCN,2024-06-25_12h42.51.979,LearnStrategy,2023.2.3,Win32,59.88023952,8,1,5,0.067592593,0.078703704,1,0,0,0.7924,Diorite_09,3,09,4,5,0.792,0.09537037,-0.407407407,1,0,0,1.3108,Peridotite_rect,7,1.311,0,4,0,4,0,1,,,,,,,,,,,,,
62c71e41af2bc57590b548e8,SCN,2024-06-25_12h42.51.979,LearnStrategy,2023.2.3,Win32,59.88023952,8,1,6,0.230555556,-0.091666667,1,0,0,1.2169,Pegmatite_09,6,09,3,6,1.217,-0.143518519,-0.39537037,1,0,0,1.0517,Pegmatite_rect,6,1.052,1,5,0,5,0,1,,,,,,,,,,,,,
62c71e41af2bc57590b548e8,SCN,2024-06-25_12h42.51.979,LearnStrategy,2023.2.3,Win32,59.88023952,8,1,7,0.37037037,-0.093518519,1,0,0,1.3218,Obsidian_04,5,04,3,7,1.322,-0.371296296,-0.391666667,1,0,0,1.2815,Obsidian_rect,5,1.282,1,6,0,6,0,1,,,,,,,,,,,,,
62c71e41af2bc57590b548e8,SCN,2024-06-25_12h42.51.979,LearnStrategy,2023.2.3,Win32,59.88023952,8,1,8,0.55,-0.063888889,1,0,0,1.0271,Gabbro_03,4,03,3,8,1.027,-0.125925926,-0.232407407,1,0,0,1.3792,Basalt_rect,2,1.379,0,7,0,7,0,1,,,,,,,,,,,,,
62c71e41af2bc57590b548e8,SCN,2024-06-25_12h42.51.979,LearnStrategy,2023.2.3,Win32,59.88023952,8,1,9,0.537037037,0.09537037,1,0,0,1.4375,Pumice_15,8,15,4,8,1.438,0.340740741,-0.386111111,1,0,0,2.2497,Pumice_rect,8,2.25,1,8,0,8,0,1,,,,,,,,,,,,,
62c71e41af2bc57590b548e8,SCN,2024-06-25_12h42.51.979,LearnStrategy,2023.2.3,Win32,59.88023952,8,1,10,0.385185185,0.113888889,1,0,0,0.9316,Peridotite_07,7,07,4,7,0.932,0.092592593,-0.386111111,1,0,0,1.9714,Peridotite_rect,7,1.971,1,9,0,9,0,1,,,,,,,,,,,,,
62c71e41af2bc57590b548e8,SCN,2024-06-25_12h42.51.979,LearnStrategy,2023.2.3,Win32,59.88023952,8,1,11,0.230555556,0.10462963,1,0,0,1.0909,Gabbro_08,4,08,4,6,1.091,-0.097222222,-0.259259259,1,0,0,1.2711,Basalt_rect,2,1.271,0,10,0,10,0,1,,,,,,,,,,,,,
62c71e41af2bc57590b548e8,SCN,2024-06-25_12h42.51.979,LearnStrategy,2023.2.3,Win32,59.88023952,8,1,12,0.080555556,0.101851852,1,0,0,0.9868,Diorite_09,3,09,4,5,0.987,0.067592593,-0.37962963,1,0,0,1.3498,Peridotite_rect,7,1.35,0,11,0,11,0,1,,,,,,,,,,,,,
62c71e41af2bc57590b548e8,SCN,2024-06-25_12h42.51.979,LearnStrategy,2023.2.3,Win32,59.88023952,8,1,13,-0.259259259,0.24537037,1,0,0,1.2438,Pegmatite_07,6,07,5,3,1.244,-0.141666667,-0.385185185,1,0,0,1.1524,Pegmatite_rect,6,1.152,1,12,0,12,0,1,,,,,,,,,,,,,
62c71e41af2bc57590b548e8,SCN,2024-06-25_12h42.51.979,LearnStrategy,2023.2.3,Win32,59.88023952,8,1,14,-0.102777778,0.241666667,1,0,0,1.6972,Diorite_15,3,15,5,4,1.697,-0.35462963,-0.237962963,1,0,0,1.2494,Andesite_rect,1,1.249,0,13,0,13,0,1,,,,,,,,,,,,,
62c71e41af2bc57590b548e8,SCN,2024-06-25_12h42.51.979,LearnStrategy,2023.2.3,Win32,59.88023952,8,1,15,0.057407407,0.378703704,1,0,0,1.2125,Pegmatite_15,6,15,6,5,1.212,-0.144444444,-0.386111111,1,0,0,1.4458,Pegmatite_rect,6,1.446,1,14,0,14,0,1,,,,,,,,,,,,,
62c71e41af2bc57590b548e8,SCN,2024-06-25_12h42.51.979,LearnStrategy,2023.2.3,Win32,59.88023952,8,1,16,0.381481481,-0.133333333,1,0,0,1.8036,Obsidian_04,5,04,3,7,1.804,-0.368518519,-0.402777778,1,0,0,1.1538,Obsidian_rect,5,1.154,1,15,0,15,0,1,,,,,,,,,,,,,
62c71e41af2bc57590b548e8,SCN,2024-06-25_12h42.51.979,LearnStrategy,2023.2.3,Win32,59.88023952,8,2,1,,,,,,,,5,12,,,,,,,,,,,5,1.657,1,,,,,,-0.394444444,-0.4,1,0,0,1.6569,Obsidian_rect,0,0,0,0,1,
62c71e41af2bc57590b548e8,SCN,2024-06-25_12h42.51.979,LearnStrategy,2023.2.3,Win32,59.88023952,8,2,2,,,,,,,,8,09,,,,,,,,,,,8,1.298,1,,,,,,0.364814815,-0.4,1,0,0,1.2975,Pumice_rect,1,0,1,0,1,
62c71e41af2bc57590b548e8,SCN,2024-06-25_12h42.51.979,LearnStrategy,2023.2.3,Win32,59.88023952,8,2,3,,,,,,,,5,11,,,,,,,,,,,5,1.506,1,,,,,,-0.324074074,-0.402777778,1,0,0,1.5063,Obsidian_rect,2,0,2,0,1,
62c71e41af2bc57590b548e8,SCN,2024-06-25_12h42.51.979,LearnStrategy,2023.2.3,Win32,59.88023952,8,2,4,,,,,,,,7,16,,,,,,,,,,,7,1.616,1,,,,,,0.116666667,-0.397222222,1,0,0,1.6164,Peridotite_rect,3,0,3,0,1,
62c71e41af2bc57590b548e8,SCN,2024-06-25_12h42.51.979,LearnStrategy,2023.2.3,Win32,59.88023952,8,2,5,,,,,,,,2,14,,,,,,,,,,,4,1.702,0,,,,,,0.341666667,-0.242592593,1,0,0,1.7016,Gabbro_rect,4,0,4,0,1,
62c71e41af2bc57590b548e8,SCN,2024-06-25_12h42.51.979,LearnStrategy,2023.2.3,Win32,59.88023952,8,2,6,,,,,,,,3,11,,,,,,,,,,,3,1.272,1,,,,,,0.10462963,-0.258333333,1,0,0,1.2718,Diorite_rect,5,0,5,0,1,
62c71e41af2bc57590b548e8,SCN,2024-06-25_12h42.51.979,LearnStrategy,2023.2.3,Win32,59.88023952,8,2,7,,,,,,,,7,02,,,,,,,,,,,7,2.233,1,,,,,,0.083333333,-0.399074074,1,0,0,2.2325,Peridotite_rect,6,0,6,0,1,
62c71e41af2bc57590b548e8,SCN,2024-06-25_12h42.51.979,LearnStrategy,2023.2.3,Win32,59.88023952,8,2,8,,,,,,,,6,08,,,,,,,,,,,6,1.001,1,,,,,,-0.136111111,-0.410185185,1,0,0,1.0005,Pegmatite_rect,7,0,7,0,1,
62c71e41af2bc57590b548e8,SCN,2024-06-25_12h42.51.979,LearnStrategy,2023.2.3,Win32,59.88023952,8,2,9,,,,,,,,2,05,,,,,,,,,,,2,1.271,1,,,,,,-0.1,-0.237962963,1,0,0,1.271,Basalt_rect,8,0,8,0,1,
62c71e41af2bc57590b548e8,SCN,2024-06-25_12h42.51.979,LearnStrategy,2023.2.3,Win32,59.88023952,8,2,10,,,,,,,,6,13,,,,,,,,,,,3,1.34,0,,,,,,0.109259259,-0.266666667,1,0,0,1.3399,Diorite_rect,9,0,9,0,1,
62c71e41af2bc57590b548e8,SCN,2024-06-25_12h42.51.979,LearnStrategy,2023.2.3,Win32,59.88023952,8,2,11,,,,,,,,1,07,,,,,,,,,,,1,1.458,1,,,,,,-0.369444444,-0.25,1,0,0,1.4578,Andesite_rect,10,0,10,0,1,
62c71e41af2bc57590b548e8,SCN,2024-06-25_12h42.51.979,LearnStrategy,2023.2.3,Win32,59.88023952,8,2,12,,,,,,,,8,04,,,,,,,,,,,8,1.289,1,,,,,,0.326851852,-0.402777778,1,0,0,1.289,Pumice_rect,11,0,11,0,1,
62c71e41af2bc57590b548e8,SCN,2024-06-25_12h42.51.979,LearnStrategy,2023.2.3,Win32,59.88023952,8,2,13,,,,,,,,4,12,,,,,,,,,,,2,1.356,0,,,,,,-0.094444444,-0.25,1,0,0,1.3557,Basalt_rect,12,0,12,0,1,
62c71e41af2bc57590b548e8,SCN,2024-06-25_12h42.51.979,LearnStrategy,2023.2.3,Win32,59.88023952,8,2,14,,,,,,,,4,16,,,,,,,,,,,4,1.133,1,,,,,,0.347222222,-0.260185185,1,0,0,1.1334,Gabbro_rect,13,0,13,0,1,
62c71e41af2bc57590b548e8,SCN,2024-06-25_12h42.51.979,LearnStrategy,2023.2.3,Win32,59.88023952,8,2,15,,,,,,,,1,05,,,,,,,,,,,1,1.262,1,,,,,,-0.348148148,-0.240740741,1,0,0,1.2618,Andesite_rect,14,0,14,0,1,
62c71e41af2bc57590b548e8,SCN,2024-06-25_12h42.51.979,LearnStrategy,2023.2.3,Win32,59.88023952,8,2,16,,,,,,,,3,07,,,,,,,,,,,3,2.205,1,,,,,,0.105555556,-0.27037037,1,0,0,2.2052,Diorite_rect,15,0,15,0,1,
62c71e41af2bc57590b548e8,SCN,2024-06-25_12h42.51.979,LearnStrategy,2023.2.3,Win32,59.88023952,9,1,1,0.071296296,0.091666667,1,0,0,0.7275,Diorite_09,3,09,4,5,0.727,0.131481481,-0.267592593,1,0,0,0.9378,Diorite_rect,3,0.938,1,0,0,0,0,1,,,,,,,,,,,,,
62c71e41af2bc57590b548e8,SCN,2024-06-25_12h42.51.979,LearnStrategy,2023.2.3,Win32,59.88023952,9,1,2,-0.219444444,0.233333333,1,0,0,1.1819,Pegmatite_07,6,07,5,3,1.182,-0.148148148,-0.421296296,1,0,0,0.9384,Pegmatite_rect,6,0.938,1,1,0,1,0,1,,,,,,,,,,,,,
62c71e41af2bc57590b548e8,SCN,2024-06-25_12h42.51.979,LearnStrategy,2023.2.3,Win32,59.88023952,9,1,3,-0.083333333,0.066666667,1,0,0,0.5598,Gabbro_13,4,13,4,4,0.56,0.344444444,-0.256481481,1,0,0,1.2471,Gabbro_rect,4,1.247,1,2,0,2,0,1,,,,,,,,,,,,,
62c71e41af2bc57590b548e8,SCN,2024-06-25_12h42.51.979,LearnStrategy,2023.2.3,Win32,59.88023952,9,1,4,0.247222222,0.102777778,1,0,0,0.9718,Gabbro_08,4,08,4,6,0.972,-0.37962963,-0.247222222,1,0,0,2.6697,Andesite_rect,1,2.67,0,3,0,3,0,1,,,,,,,,,,,,,
62c71e41af2bc57590b548e8,SCN,2024-06-25_12h42.51.979,LearnStrategy,2023.2.3,Win32,59.88023952,9,1,5,0.087037037,0.246296296,1,0,0,0.9889,Andesite_16,1,16,5,5,0.989,-0.358333333,-0.228703704,1,0,0,1.3661,Andesite_rect,1,1.366,1,4,0,4,0,1,,,,,,,,,,,,,
62c71e41af2bc57590b548e8,SCN,2024-06-25_12h42.51.979,LearnStrategy,2023.2.3,Win32,59.88023952,9,1,6,0.043518519,-0.118518519,1,0,0,0.8952,Gabbro_14,4,14,3,5,0.895,0.337037037,-0.234259259,1,0,0,1.1889,Gabbro_rect,4,1.189,1,5,0,5,0,1,,,,,,,,,,,,,
62c71e41af2bc57590b548e8,SCN,2024-06-25_12h42.51.979,LearnStrategy,2023.2.3,Win32,59.88023952,9,1,7,-0.230555556,-0.251851852,1,0,0,1.2275,Peridotite_12,7,12,2,3,1.227,0.125925926,-0.386111111,1,0,0,1.6747,Peridotite_rect,7,1.675,1,6,0,6,0,1,,,,,,,,,,,,,
62c71e41af2bc57590b548e8,SCN,2024-06-25_12h42.51.979,LearnStrategy,2023.2.3,Win32,59.88023952,9,1,8,0.22962963,-0.257407407,1,0,0,1.2295,Obsidian_08,5,08,2,6,1.229,-0.35,-0.400925926,1,0,0,0.9929,Obsidian_rect,5,0.993,1,7,0,7,0,1,,,,,,,,,,,,,
62c71e41af2bc57590b548e8,SCN,2024-06-25_12h42.51.979,LearnStrategy,2023.2.3,Win32,59.88023952,9,1,9,-0.067592593,-0.366666667,1,0,0,1.0078,Obsidian_09,5,09,1,4,1.008,-0.335185185,-0.381481481,1,0,0,1.0234,Obsidian_rect,5,1.023,1,8,0,8,0,1,,,,,,,,,,,,,
62c71e41af2bc57590b548e8,SCN,2024-06-25_12h42.51.979,LearnStrategy,2023.2.3,Win32,59.88023952,9,1,10,-0.219444444,-0.405555556,1,0,0,0.9951,Pumice_08,8,08,1,3,0.995,0.353703704,-0.382407407,1,0,0,0.9732,Pumice_rect,8,0.973,1,9,0,9,0,1,,,,,,,,,,,,,
62c71e41af2bc57590b548e8,SCN,2024-06-25_12h42.51.979,LearnStrategy,2023.2.3,Win32,59.88023952,9,1,11,-0.559259259,-0.411111111,1,0,0,1.4916,Basalt_16,2,16,1,1,1.492,0.365740741,-0.244444444,1,0,0,1.1368,Gabbro_rect,4,1.137,0,10,0,10,0,1,,,,,,,,,,,,,
62c71e41af2bc57590b548e8,SCN,2024-06-25_12h42.51.979,LearnStrategy,2023.2.3,Win32,59.88023952,9,1,12,0.544444444,-0.094444444,1,0,0,1.3675,Gabbro_03,4,03,3,8,1.368,0.098148148,-0.261111111,1,0,0,1.7961,Diorite_rect,3,1.796,0,11,0,11,0,1,,,,,,,,,,,,,
62c71e41af2bc57590b548e8,SCN,2024-06-25_12h42.51.979,LearnStrategy,2023.2.3,Win32,59.88023952,9,1,13,-0.526851852,0.071296296,1,0,0,1.4378,Diorite_16,3,16,4,1,1.438,0.137962963,-0.396296296,1,0,0,1.3189,Peridotite_rect,7,1.319,0,12,0,12,0,1,,,,,,,,,,,,,
62c71e41af2bc57590b548e8,SCN,2024-06-25_12h42.51.979,LearnStrategy,2023.2.3,Win32,59.88023952,9,1,14,0.244444444,0.077777778,1,0,0,1.0554,Gabbro_08,4,08,4,6,1.055,-0.393518519,-0.244444444,1,0,0,2.5003,Andesite_rect,1,2.5,0,13,0,13,0,1,,,,,,,,,,,,,
62c71e41af2bc57590b548e8,SCN,2024-06-25_12h42.51.979,LearnStrategy,2023.2.3,Win32,59.88023952,9,1,15,-0.076851852,-0.244444444,1,0,0,1.8047,Andesite_03,1,03,2,4,1.805,-0.353703704,-0.256481481,1,0,0,1.9739,Andesite_rect,1,1.974,1,14,0,14,0,1,,,,,,,,,,,,,
62c71e41af2bc57590b548e8,SCN,2024-06-25_12h42.51.979,LearnStrategy,2023.2.3,Win32,59.88023952,9,1,16,-0.189814815,-0.251851852,1,0,0,1.4107,Peridotite_12,7,12,2,3,1.411,0.096296296,-0.266666667,1,0,0,1.1548,Diorite_rect,3,1.155,0,15,0,15,0,1,,,,,,,,,,,,,
62c71e41af2bc57590b548e8,SCN,2024-06-25_12h42.51.979,LearnStrategy,2023.2.3,Win32,59.88023952,9,2,1,,,,,,,,1,09,,,,,,,,,,,1,1.481,1,,,,,,-0.380555556,-0.244444444,1,0,0,1.4809,Andesite_rect,0,0,0,0,1,
62c71e41af2bc57590b548e8,SCN,2024-06-25_12h42.51.979,LearnStrategy,2023.2.3,Win32,59.88023952,9,2,2,,,,,,,,2,09,,,,,,,,,,,4,1.657,0,,,,,,0.367592593,-0.257407407,1,0,0,1.6571,Gabbro_rect,1,0,1,0,1,
62c71e41af2bc57590b548e8,SCN,2024-06-25_12h42.51.979,LearnStrategy,2023.2.3,Win32,59.88023952,9,2,3,,,,,,,,4,01,,,,,,,,,,,7,2.043,0,,,,,,0.084259259,-0.398148148,1,0,0,2.0427,Peridotite_rect,2,0,2,0,1,
62c71e41af2bc57590b548e8,SCN,2024-06-25_12h42.51.979,LearnStrategy,2023.2.3,Win32,59.88023952,9,2,4,,,,,,,,7,15,,,,,,,,,,,7,1.498,1,,,,,,0.078703704,-0.4,1,0,0,1.4979,Peridotite_rect,3,0,3,0,1,
62c71e41af2bc57590b548e8,SCN,2024-06-25_12h42.51.979,LearnStrategy,2023.2.3,Win32,59.88023952,9,2,5,,,,,,,,5,06,,,,,,,,,,,5,1.202,1,,,,,,-0.412037037,-0.398148148,1,0,0,1.2015,Obsidian_rect,4,0,4,0,1,
62c71e41af2bc57590b548e8,SCN,2024-06-25_12h42.51.979,LearnStrategy,2023.2.3,Win32,59.88023952,9,2,6,,,,,,,,2,02,,,,,,,,,,,2,1.903,1,,,,,,-0.123148148,-0.244444444,1,0,0,1.9027,Basalt_rect,5,0,5,0,1,
62c71e41af2bc57590b548e8,SCN,2024-06-25_12h42.51.979,LearnStrategy,2023.2.3,Win32,59.88023952,9,2,7,,,,,,,,1,06,,,,,,,,,,,1,1.208,1,,,,,,-0.313888889,-0.243518519,1,0,0,1.2084,Andesite_rect,6,0,6,0,1,
62c71e41af2bc57590b548e8,SCN,2024-06-25_12h42.51.979,LearnStrategy,2023.2.3,Win32,59.88023952,9,2,8,,,,,,,,5,05,,,,,,,,,,,5,0.96,1,,,,,,-0.360185185,-0.412037037,1,0,0,0.9597,Obsidian_rect,7,0,7,0,1,
62c71e41af2bc57590b548e8,SCN,2024-06-25_12h42.51.979,LearnStrategy,2023.2.3,Win32,59.88023952,9,2,9,,,,,,,,7,13,,,,,,,,,,,6,2.515,0,,,,,,-0.050925926,-0.409259259,1,0,0,2.5148,Pegmatite_rect,8,0,8,0,1,
62c71e41af2bc57590b548e8,SCN,2024-06-25_12h42.51.979,LearnStrategy,2023.2.3,Win32,59.88023952,9,2,10,,,,,,,,8,14,,,,,,,,,,,8,1.174,1,,,,,,0.356481481,-0.398148148,1,0,0,1.1745,Pumice_rect,9,0,9,0,1,
62c71e41af2bc57590b548e8,SCN,2024-06-25_12h42.51.979,LearnStrategy,2023.2.3,Win32,59.88023952,9,2,11,,,,,,,,8,16,,,,,,,,,,,4,2.891,0,,,,,,0.34537037,-0.255555556,1,0,0,2.8915,Gabbro_rect,10,0,10,0,1,
62c71e41af2bc57590b548e8,SCN,2024-06-25_12h42.51.979,LearnStrategy,2023.2.3,Win32,59.88023952,9,2,12,,,,,,,,3,13,,,,,,,,,,,3,1.425,1,,,,,,0.1,-0.256481481,1,0,0,1.4251,Diorite_rect,11,0,11,0,1,
62c71e41af2bc57590b548e8,SCN,2024-06-25_12h42.51.979,LearnStrategy,2023.2.3,Win32,59.88023952,9,2,13,,,,,,,,6,11,,,,,,,,,,,6,1.322,1,,,,,,-0.15462963,-0.410185185,1,0,0,1.3221,Pegmatite_rect,12,0,12,0,1,
62c71e41af2bc57590b548e8,SCN,2024-06-25_12h42.51.979,LearnStrategy,2023.2.3,Win32,59.88023952,9,2,14,,,,,,,,6,05,,,,,,,,,,,6,2.343,1,,,,,,-0.171296296,-0.398148148,1,0,0,2.3431,Pegmatite_rect,13,0,13,0,1,
62c71e41af2bc57590b548e8,SCN,2024-06-25_12h42.51.979,LearnStrategy,2023.2.3,Win32,59.88023952,9,2,15,,,,,,,,4,15,,,,,,,,,,,4,2.098,1,,,,,,0.347222222,-0.240740741,1,0,0,2.0984,Gabbro_rect,14,0,14,0,1,
62c71e41af2bc57590b548e8,SCN,2024-06-25_12h42.51.979,LearnStrategy,2023.2.3,Win32,59.88023952,9,2,16,,,,,,,,3,12,,,,,,,,,,,3,1.353,1,,,,,,0.127777778,-0.249074074,1,0,0,1.353,Diorite_rect,15,0,15,0,1,
62c71e41af2bc57590b548e8,SCN,2024-06-25_12h42.51.979,LearnStrategy,2023.2.3,Win32,59.88023952,,,,,,,,,,,,,,,,,,,,,,,,,,,,,,,,,,,,,,,,,,,1
62c71e41af2bc57590b548e8,SCN,2024-06-25_12h42.51.979,LearnStrategy,2023.2.3,Win32,59.88023952,,,,,,,,,,,,,,,,,,,,,,,,,,,,,,,,,,,,,,,,,,,
62c71e41af2bc57590b548e8,SCN,2024-06-25_12h42.51.979,LearnStrategy,2023.2.3,Win32,59.88023952,,,,,,,,,,,2,16,1,1,,,,,,,,,,,,,,,,,,,,,,,,,,,,,
62c71e41af2bc57590b548e8,SCN,2024-06-25_12h42.51.979,LearnStrategy,2023.2.3,Win32,59.88023952,,,,,,,,,,,8,03,1,2,,,,,,,,,,,,,,,,,,,,,,,,,,,,,
62c71e41af2bc57590b548e8,SCN,2024-06-25_12h42.51.979,LearnStrategy,2023.2.3,Win32,59.88023952,,,,,,,,,,,8,08,1,3,,,,,,,,,,,,,,,,,,,,,,,,,,,,,
62c71e41af2bc57590b548e8,SCN,2024-06-25_12h42.51.979,LearnStrategy,2023.2.3,Win32,59.88023952,,,,,,,,,,,5,09,1,4,,,,,,,,,,,,,,,,,,,,,,,,,,,,,
62c71e41af2bc57590b548e8,SCN,2024-06-25_12h42.51.979,LearnStrategy,2023.2.3,Win32,59.88023952,,,,,,,,,,,1,14,1,5,,,,,,,,,,,,,,,,,,,,,,,,,,,,,
62c71e41af2bc57590b548e8,SCN,2024-06-25_12h42.51.979,LearnStrategy,2023.2.3,Win32,59.88023952,,,,,,,,,,,7,10,1,6,,,,,,,,,,,,,,,,,,,,,,,,,,,,,
62c71e41af2bc57590b548e8,SCN,2024-06-25_12h42.51.979,LearnStrategy,2023.2.3,Win32,59.88023952,,,,,,,,,,,7,14,1,7,,,,,,,,,,,,,,,,,,,,,,,,,,,,,
62c71e41af2bc57590b548e8,SCN,2024-06-25_12h42.51.979,LearnStrategy,2023.2.3,Win32,59.88023952,,,,,,,,,,,6,03,1,8,,,,,,,,,,,,,,,,,,,,,,,,,,,,,
62c71e41af2bc57590b548e8,SCN,2024-06-25_12h42.51.979,LearnStrategy,2023.2.3,Win32,59.88023952,,,,,,,,,,,1,10,2,1,,,,,,,,,,,,,,,,,,,,,,,,,,,,,
62c71e41af2bc57590b548e8,SCN,2024-06-25_12h42.51.979,LearnStrategy,2023.2.3,Win32,59.88023952,,,,,,,,,,,5,14,2,2,,,,,,,,,,,,,,,,,,,,,,,,,,,,,
62c71e41af2bc57590b548e8,SCN,2024-06-25_12h42.51.979,LearnStrategy,2023.2.3,Win32,59.88023952,,,,,,,,,,,7,12,2,3,,,,,,,,,,,,,,,,,,,,,,,,,,,,,
62c71e41af2bc57590b548e8,SCN,2024-06-25_12h42.51.979,LearnStrategy,2023.2.3,Win32,59.88023952,,,,,,,,,,,1,03,2,4,,,,,,,,,,,,,,,,,,,,,,,,,,,,,
62c71e41af2bc57590b548e8,SCN,2024-06-25_12h42.51.979,LearnStrategy,2023.2.3,Win32,59.88023952,,,,,,,,,,,1,11,2,5,,,,,,,,,,,,,,,,,,,,,,,,,,,,,
62c71e41af2bc57590b548e8,SCN,2024-06-25_12h42.51.979,LearnStrategy,2023.2.3,Win32,59.88023952,,,,,,,,,,,5,08,2,6,,,,,,,,,,,,,,,,,,,,,,,,,,,,,
62c71e41af2bc57590b548e8,SCN,2024-06-25_12h42.51.979,LearnStrategy,2023.2.3,Win32,59.88023952,,,,,,,,,,,6,12,2,7,,,,,,,,,,,,,,,,,,,,,,,,,,,,,
62c71e41af2bc57590b548e8,SCN,2024-06-25_12h42.51.979,LearnStrategy,2023.2.3,Win32,59.88023952,,,,,,,,,,,3,14,2,8,,,,,,,,,,,,,,,,,,,,,,,,,,,,,
62c71e41af2bc57590b548e8,SCN,2024-06-25_12h42.51.979,LearnStrategy,2023.2.3,Win32,59.88023952,,,,,,,,,,,8,02,3,1,,,,,,,,,,,,,,,,,,,,,,,,,,,,,
62c71e41af2bc57590b548e8,SCN,2024-06-25_12h42.51.979,LearnStrategy,2023.2.3,Win32,59.88023952,,,,,,,,,,,2,08,3,2,,,,,,,,,,,,,,,,,,,,,,,,,,,,,
62c71e41af2bc57590b548e8,SCN,2024-06-25_12h42.51.979,LearnStrategy,2023.2.3,Win32,59.88023952,,,,,,,,,,,7,08,3,3,,,,,,,,,,,,,,,,,,,,,,,,,,,,,
62c71e41af2bc57590b548e8,SCN,2024-06-25_12h42.51.979,LearnStrategy,2023.2.3,Win32,59.88023952,,,,,,,,,,,4,05,3,4,,,,,,,,,,,,,,,,,,,,,,,,,,,,,
62c71e41af2bc57590b548e8,SCN,2024-06-25_12h42.51.979,LearnStrategy,2023.2.3,Win32,59.88023952,,,,,,,,,,,4,14,3,5,,,,,,,,,,,,,,,,,,,,,,,,,,,,,
62c71e41af2bc57590b548e8,SCN,2024-06-25_12h42.51.979,LearnStrategy,2023.2.3,Win32,59.88023952,,,,,,,,,,,6,09,3,6,,,,,,,,,,,,,,,,,,,,,,,,,,,,,
62c71e41af2bc57590b548e8,SCN,2024-06-25_12h42.51.979,LearnStrategy,2023.2.3,Win32,59.88023952,,,,,,,,,,,5,04,3,7,,,,,,,,,,,,,,,,,,,,,,,,,,,,,
62c71e41af2bc57590b548e8,SCN,2024-06-25_12h42.51.979,LearnStrategy,2023.2.3,Win32,59.88023952,,,,,,,,,,,4,03,3,8,,,,,,,,,,,,,,,,,,,,,,,,,,,,,
62c71e41af2bc57590b548e8,SCN,2024-06-25_12h42.51.979,LearnStrategy,2023.2.3,Win32,59.88023952,,,,,,,,,,,3,16,4,1,,,,,,,,,,,,,,,,,,,,,,,,,,,,,
62c71e41af2bc57590b548e8,SCN,2024-06-25_12h42.51.979,LearnStrategy,2023.2.3,Win32,59.88023952,,,,,,,,,,,2,12,4,2,,,,,,,,,,,,,,,,,,,,,,,,,,,,,
62c71e41af2bc57590b548e8,SCN,2024-06-25_12h42.51.979,LearnStrategy,2023.2.3,Win32,59.88023952,,,,,,,,,,,4,11,4,3,,,,,,,,,,,,,,,,,,,,,,,,,,,,,
62c71e41af2bc57590b548e8,SCN,2024-06-25_12h42.51.979,LearnStrategy,2023.2.3,Win32,59.88023952,,,,,,,,,,,4,13,4,4,,,,,,,,,,,,,,,,,,,,,,,,,,,,,
62c71e41af2bc57590b548e8,SCN,2024-06-25_12h42.51.979,LearnStrategy,2023.2.3,Win32,59.88023952,,,,,,,,,,,3,09,4,5,,,,,,,,,,,,,,,,,,,,,,,,,,,,,
62c71e41af2bc57590b548e8,SCN,2024-06-25_12h42.51.979,LearnStrategy,2023.2.3,Win32,59.88023952,,,,,,,,,,,4,08,4,6,,,,,,,,,,,,,,,,,,,,,,,,,,,,,
62c71e41af2bc57590b548e8,SCN,2024-06-25_12h42.51.979,LearnStrategy,2023.2.3,Win32,59.88023952,,,,,,,,,,,7,07,4,7,,,,,,,,,,,,,,,,,,,,,,,,,,,,,
62c71e41af2bc57590b548e8,SCN,2024-06-25_12h42.51.979,LearnStrategy,2023.2.3,Win32,59.88023952,,,,,,,,,,,8,15,4,8,,,,,,,,,,,,,,,,,,,,,,,,,,,,,
62c71e41af2bc57590b548e8,SCN,2024-06-25_12h42.51.979,LearnStrategy,2023.2.3,Win32,59.88023952,,,,,,,,,,,2,11,5,1,,,,,,,,,,,,,,,,,,,,,,,,,,,,,
62c71e41af2bc57590b548e8,SCN,2024-06-25_12h42.51.979,LearnStrategy,2023.2.3,Win32,59.88023952,,,,,,,,,,,1,04,5,2,,,,,,,,,,,,,,,,,,,,,,,,,,,,,
62c71e41af2bc57590b548e8,SCN,2024-06-25_12h42.51.979,LearnStrategy,2023.2.3,Win32,59.88023952,,,,,,,,,,,6,07,5,3,,,,,,,,,,,,,,,,,,,,,,,,,,,,,
62c71e41af2bc57590b548e8,SCN,2024-06-25_12h42.51.979,LearnStrategy,2023.2.3,Win32,59.88023952,,,,,,,,,,,3,15,5,4,,,,,,,,,,,,,,,,,,,,,,,,,,,,,
62c71e41af2bc57590b548e8,SCN,2024-06-25_12h42.51.979,LearnStrategy,2023.2.3,Win32,59.88023952,,,,,,,,,,,1,16,5,5,,,,,,,,,,,,,,,,,,,,,,,,,,,,,
62c71e41af2bc57590b548e8,SCN,2024-06-25_12h42.51.979,LearnStrategy,2023.2.3,Win32,59.88023952,,,,,,,,,,,7,06,5,6,,,,,,,,,,,,,,,,,,,,,,,,,,,,,
62c71e41af2bc57590b548e8,SCN,2024-06-25_12h42.51.979,LearnStrategy,2023.2.3,Win32,59.88023952,,,,,,,,,,,5,02,5,7,,,,,,,,,,,,,,,,,,,,,,,,,,,,,
62c71e41af2bc57590b548e8,SCN,2024-06-25_12h42.51.979,LearnStrategy,2023.2.3,Win32,59.88023952,,,,,,,,,,,5,10,5,8,,,,,,,,,,,,,,,,,,,,,,,,,,,,,
62c71e41af2bc57590b548e8,SCN,2024-06-25_12h42.51.979,LearnStrategy,2023.2.3,Win32,59.88023952,,,,,,,,,,,2,06,6,1,,,,,,,,,,,,,,,,,,,,,,,,,,,,,
62c71e41af2bc57590b548e8,SCN,2024-06-25_12h42.51.979,LearnStrategy,2023.2.3,Win32,59.88023952,,,,,,,,,,,3,02,6,2,,,,,,,,,,,,,,,,,,,,,,,,,,,,,
62c71e41af2bc57590b548e8,SCN,2024-06-25_12h42.51.979,LearnStrategy,2023.2.3,Win32,59.88023952,,,,,,,,,,,2,10,6,3,,,,,,,,,,,,,,,,,,,,,,,,,,,,,
62c71e41af2bc57590b548e8,SCN,2024-06-25_12h42.51.979,LearnStrategy,2023.2.3,Win32,59.88023952,,,,,,,,,,,6,06,6,4,,,,,,,,,,,,,,,,,,,,,,,,,,,,,
62c71e41af2bc57590b548e8,SCN,2024-06-25_12h42.51.979,LearnStrategy,2023.2.3,Win32,59.88023952,,,,,,,,,,,6,15,6,5,,,,,,,,,,,,,,,,,,,,,,,,,,,,,
62c71e41af2bc57590b548e8,SCN,2024-06-25_12h42.51.979,LearnStrategy,2023.2.3,Win32,59.88023952,,,,,,,,,,,8,06,6,6,,,,,,,,,,,,,,,,,,,,,,,,,,,,,
62c71e41af2bc57590b548e8,SCN,2024-06-25_12h42.51.979,LearnStrategy,2023.2.3,Win32,59.88023952,,,,,,,,,,,3,08,6,7,,,,,,,,,,,,,,,,,,,,,,,,,,,,,
62c71e41af2bc57590b548e8,SCN,2024-06-25_12h42.51.979,LearnStrategy,2023.2.3,Win32,59.88023952,,,,,,,,,,,8,05,6,8,,,,,,,,,,,,,,,,,,,,,,,,,,,,,