participant,condition,date,expName,psychopyVersion,OS,frameRate,block,phase,trial,learn_mouse.x,learn_mouse.y,learn_mouse.leftButton,learn_mouse.midButton,learn_mouse.rightButton,learn_mouse.time,learn_mouse.clicked_name,cat,token,row,col,t_select,cat_mouse_l.x,cat_mouse_l.y,cat_mouse_l.leftButton,cat_mouse_l.midButton,cat_mouse_l.rightButton,cat_mouse_l.time,cat_mouse_l.clicked_name,resp,t_resp,corr,train_trials.thisRepN,train_trials.thisTrialN,train_trials.thisN,train_trials.thisIndex,train_trials.ran,cat_mouse_t.x,cat_mouse_t.y,cat_mouse_t.leftButton,cat_mouse_t.midButton,cat_mouse_t.rightButton,cat_mouse_t.time,cat_mouse_t.clicked_name,test_trials.thisRepN,test_trials.thisTrialN,test_trials.thisN,test_trials.thisIndex,test_trials.ran,Bonus
62cd43d66c2dd7ae9ab53ae7,SCN,2024-06-25_09h39.22.557,LearnStrategy,2023.2.3,Win32,59.88023952,,,,,,,,,,,,,,,,,,,,,,,,,,,,,,,,,,,,,,,,,,,
62cd43d66c2dd7ae9ab53ae7,SCN,2024-06-25_09h39.22.557,LearnStrategy,2023.2.3,Win32,59.88023952,1,1,1,-0.536190469,0.417142857,1,0,0,2.6015,Diorite_02,3,02,6,1,2.602,-0.136190447,-0.253333391,1,0,0,6.2809,Basalt_rect,2,6.281,0,0,0,0,0,1,,,,,,,,,,,,,
62cd43d66c2dd7ae9ab53ae7,SCN,2024-06-25_09h39.22.557,LearnStrategy,2023.2.3,Win32,59.88023952,1,1,2,-0.384761876,0.38380952,1,0,0,1.3147,Basalt_04,2,04,6,2,1.315,0.336190534,-0.399047677,1,0,0,3.1422,Pumice_rect,8,3.142,0,1,0,1,0,1,,,,,,,,,,,,,
62cd43d66c2dd7ae9ab53ae7,SCN,2024-06-25_09h39.22.557,LearnStrategy,2023.2.3,Win32,59.88023952,1,1,3,-0.262857143,0.405714286,1,0,0,2.0979,Pumice_08,8,08,6,3,2.098,-0.150476161,-0.40095241,1,0,0,2.359,Pegmatite_rect,6,2.359,0,2,0,2,0,1,,,,,,,,,,,,,
62cd43d66c2dd7ae9ab53ae7,SCN,2024-06-25_09h39.22.557,LearnStrategy,2023.2.3,Win32,59.88023952,1,1,4,-0.061904733,0.384761897,1,0,0,1.1978,Pumice_09,8,09,6,4,1.198,-0.132380938,-0.405714286,1,0,0,3.9258,Pegmatite_rect,6,3.926,0,3,0,3,0,1,,,,,,,,,,,,,
62cd43d66c2dd7ae9ab53ae7,SCN,2024-06-25_09h39.22.557,LearnStrategy,2023.2.3,Win32,59.88023952,1,1,5,0.058095267,0.449523806,1,0,0,1.4148,Peridotite_04,7,04,6,5,1.415,0.083809553,-0.399047677,1,0,0,2.0253,Peridotite_rect,7,2.025,1,4,0,4,0,1,,,,,,,,,,,,,
62cd43d66c2dd7ae9ab53ae7,SCN,2024-06-25_09h39.22.557,LearnStrategy,2023.2.3,Win32,59.88023952,1,1,6,0.22190482,0.399047612,1,0,0,1.9141,Pegmatite_15,6,15,6,6,1.914,-0.113333304,-0.402857143,1,0,0,4.1258,Pegmatite_rect,6,4.126,1,5,0,5,0,1,,,,,,,,,,,,,
62cd43d66c2dd7ae9ab53ae7,SCN,2024-06-25_09h39.22.557,LearnStrategy,2023.2.3,Win32,59.88023952,1,1,7,0.367619106,0.399047612,1,0,0,1.4981,Basalt_16,2,16,6,7,1.498,-0.357142857,-0.250476249,1,0,0,1.3928,Andesite_rect,1,1.393,0,6,0,6,0,1,,,,,,,,,,,,,
62cd43d66c2dd7ae9ab53ae7,SCN,2024-06-25_09h39.22.557,LearnStrategy,2023.2.3,Win32,59.88023952,1,1,8,0.544761963,0.38,1,0,0,1.3974,Peridotite_08,7,08,6,8,1.397,0.333333391,-0.26,1,0,0,2.2431,Gabbro_rect,4,2.243,0,7,0,7,0,1,,,,,,,,,,,,,
62cd43d66c2dd7ae9ab53ae7,SCN,2024-06-25_09h39.22.557,LearnStrategy,2023.2.3,Win32,59.88023952,1,1,9,-0.532380938,0.268571429,1,0,0,1.7148,Andesite_04,1,04,5,1,1.715,-0.400952366,-0.24095241,1,0,0,1.3087,Andesite_rect,1,1.309,1,8,0,8,0,1,,,,,,,,,,,,,
62cd43d66c2dd7ae9ab53ae7,SCN,2024-06-25_09h39.22.557,LearnStrategy,2023.2.3,Win32,59.88023952,1,1,10,-0.381904733,0.258095224,1,0,0,1.4308,Andesite_07,1,07,5,2,1.431,-0.150476161,-0.232380981,1,0,0,5.5091,Basalt_rect,2,5.509,0,9,0,9,0,1,,,,,,,,,,,,,
62cd43d66c2dd7ae9ab53ae7,SCN,2024-06-25_09h39.22.557,LearnStrategy,2023.2.3,Win32,59.88023952,1,1,11,-0.222857143,0.269523795,1,0,0,1.6643,Gabbro_11,4,11,5,3,1.664,-0.122857143,-0.253333391,1,0,0,2.7089,Basalt_rect,2,2.709,0,10,0,10,0,1,,,,,,,,,,,,,
62cd43d66c2dd7ae9ab53ae7,SCN,2024-06-25_09h39.22.557,LearnStrategy,2023.2.3,Win32,59.88023952,1,1,12,-0.07904759,0.24,1,0,0,1.2981,Obsidian_06,5,06,5,4,1.298,-0.357142857,-0.38190482,1,0,0,5.0589,Obsidian_rect,5,5.059,1,11,0,11,0,1,,,,,,,,,,,,,
62cd43d66c2dd7ae9ab53ae7,SCN,2024-06-25_09h39.22.557,LearnStrategy,2023.2.3,Win32,59.88023952,1,1,13,0.064761963,0.255238081,1,0,0,1.1636,Gabbro_05,4,05,5,5,1.164,-0.092380938,-0.228571429,1,0,0,1.2761,Basalt_rect,2,1.276,0,12,0,12,0,1,,,,,,,,,,,,,
62cd43d66c2dd7ae9ab53ae7,SCN,2024-06-25_09h39.22.557,LearnStrategy,2023.2.3,Win32,59.88023952,1,1,14,0.242857143,0.254285714,1,0,0,1.0149,Basalt_06,2,06,5,6,1.015,-0.372380938,-0.26190482,1,0,0,3.9428,Andesite_rect,1,3.943,0,13,0,13,0,1,,,,,,,,,,,,,
62cd43d66c2dd7ae9ab53ae7,SCN,2024-06-25_09h39.22.557,LearnStrategy,2023.2.3,Win32,59.88023952,1,1,15,0.062857143,0.09904759,1,0,0,1.1645,Obsidian_07,5,07,4,5,1.164,-0.346666652,-0.407619106,1,0,0,1.7092,Obsidian_rect,5,1.709,1,14,0,14,0,1,,,,,,,,,,,,,
62cd43d66c2dd7ae9ab53ae7,SCN,2024-06-25_09h39.22.557,LearnStrategy,2023.2.3,Win32,59.88023952,1,1,16,0.087619106,0.086666652,1,0,0,1.9827,Obsidian_07,5,07,4,5,1.983,-0.349523795,-0.387619106,1,0,0,1.6094,Obsidian_rect,5,1.609,1,15,0,15,0,1,,,,,,,,,,,,,
62cd43d66c2dd7ae9ab53ae7,SCN,2024-06-25_09h39.22.557,LearnStrategy,2023.2.3,Win32,59.88023952,1,2,1,,,,,,,,5,02,,,,,,,,,,,5,2.042,1,,,,,,-0.37904759,-0.399047677,1,0,0,2.0421,Obsidian_rect,0,0,0,0,1,
62cd43d66c2dd7ae9ab53ae7,SCN,2024-06-25_09h39.22.557,LearnStrategy,2023.2.3,Win32,59.88023952,1,2,2,,,,,,,,1,03,,,,,,,,,,,2,1.992,0,,,,,,-0.167619019,-0.257142857,1,0,0,1.9923,Basalt_rect,1,0,1,0,1,
62cd43d66c2dd7ae9ab53ae7,SCN,2024-06-25_09h39.22.557,LearnStrategy,2023.2.3,Win32,59.88023952,1,2,3,,,,,,,,3,06,,,,,,,,,,,4,3.975,0,,,,,,0.410476249,-0.262857143,1,0,0,3.9747,Gabbro_rect,2,0,2,0,1,
62cd43d66c2dd7ae9ab53ae7,SCN,2024-06-25_09h39.22.557,LearnStrategy,2023.2.3,Win32,59.88023952,1,2,4,,,,,,,,2,10,,,,,,,,,,,7,3.025,0,,,,,,0.069523839,-0.40095241,1,0,0,3.0253,Peridotite_rect,3,0,3,0,1,
62cd43d66c2dd7ae9ab53ae7,SCN,2024-06-25_09h39.22.557,LearnStrategy,2023.2.3,Win32,59.88023952,1,2,5,,,,,,,,4,03,,,,,,,,,,,3,5.276,0,,,,,,0.048571429,-0.246666696,1,0,0,5.2758,Diorite_rect,4,0,4,0,1,
62cd43d66c2dd7ae9ab53ae7,SCN,2024-06-25_09h39.22.557,LearnStrategy,2023.2.3,Win32,59.88023952,1,2,6,,,,,,,,8,13,,,,,,,,,,,2,1.827,0,,,,,,-0.189523795,-0.239047677,1,0,0,1.8267,Basalt_rect,5,0,5,0,1,
62cd43d66c2dd7ae9ab53ae7,SCN,2024-06-25_09h39.22.557,LearnStrategy,2023.2.3,Win32,59.88023952,1,2,7,,,,,,,,6,09,,,,,,,,,,,7,7.009,0,,,,,,0.109523839,-0.399047677,1,0,0,7.0086,Peridotite_rect,6,0,6,0,1,
62cd43d66c2dd7ae9ab53ae7,SCN,2024-06-25_09h39.22.557,LearnStrategy,2023.2.3,Win32,59.88023952,1,2,8,,,,,,,,3,14,,,,,,,,,,,2,3.193,0,,,,,,-0.106666652,-0.255238124,1,0,0,3.1929,Basalt_rect,7,0,7,0,1,
62cd43d66c2dd7ae9ab53ae7,SCN,2024-06-25_09h39.22.557,LearnStrategy,2023.2.3,Win32,59.88023952,1,2,9,,,,,,,,5,08,,,,,,,,,,,5,1.826,1,,,,,,-0.361904733,-0.4,1,0,0,1.8256,Obsidian_rect,8,0,8,0,1,
62cd43d66c2dd7ae9ab53ae7,SCN,2024-06-25_09h39.22.557,LearnStrategy,2023.2.3,Win32,59.88023952,1,2,10,,,,,,,,2,14,,,,,,,,,,,1,1.586,0,,,,,,-0.343809509,-0.266666696,1,0,0,1.5855,Andesite_rect,9,0,9,0,1,
62cd43d66c2dd7ae9ab53ae7,SCN,2024-06-25_09h39.22.557,LearnStrategy,2023.2.3,Win32,59.88023952,1,2,11,,,,,,,,6,13,,,,,,,,,,,7,3.71,0,,,,,,0.176190534,-0.389523839,1,0,0,3.7104,Peridotite_rect,10,0,10,0,1,
62cd43d66c2dd7ae9ab53ae7,SCN,2024-06-25_09h39.22.557,LearnStrategy,2023.2.3,Win32,59.88023952,1,2,12,,,,,,,,8,10,,,,,,,,,,,8,1.875,1,,,,,,0.347619106,-0.399047677,1,0,0,1.8753,Pumice_rect,11,0,11,0,1,
62cd43d66c2dd7ae9ab53ae7,SCN,2024-06-25_09h39.22.557,LearnStrategy,2023.2.3,Win32,59.88023952,1,2,13,,,,,,,,4,01,,,,,,,,,,,4,2.077,1,,,,,,0.324761963,-0.253333391,1,0,0,2.0769,Gabbro_rect,12,0,12,0,1,
62cd43d66c2dd7ae9ab53ae7,SCN,2024-06-25_09h39.22.557,LearnStrategy,2023.2.3,Win32,59.88023952,1,2,14,,,,,,,,7,12,,,,,,,,,,,3,1.293,0,,,,,,0.067619106,-0.239047677,1,0,0,1.293,Diorite_rect,13,0,13,0,1,
62cd43d66c2dd7ae9ab53ae7,SCN,2024-06-25_09h39.22.557,LearnStrategy,2023.2.3,Win32,59.88023952,1,2,15,,,,,,,,1,10,,,,,,,,,,,8,3.861,0,,,,,,0.362857143,-0.405714286,1,0,0,3.8611,Pumice_rect,14,0,14,0,1,
62cd43d66c2dd7ae9ab53ae7,SCN,2024-06-25_09h39.22.557,LearnStrategy,2023.2.3,Win32,59.88023952,1,2,16,,,,,,,,7,13,,,,,,,,,,,7,2.143,1,,,,,,0.14095241,-0.393333391,1,0,0,2.1426,Peridotite_rect,15,0,15,0,1,
62cd43d66c2dd7ae9ab53ae7,SCN,2024-06-25_09h39.22.557,LearnStrategy,2023.2.3,Win32,59.88023952,2,1,1,-0.396190447,-0.229523839,1,0,0,4.5979,Peridotite_10,7,10,2,2,4.598,-0.377142857,-0.242857143,1,0,0,0.9369,Andesite_rect,1,0.937,0,0,0,0,0,1,,,,,,,,,,,,,
62cd43d66c2dd7ae9ab53ae7,SCN,2024-06-25_09h39.22.557,LearnStrategy,2023.2.3,Win32,59.88023952,2,1,2,-0.104761876,-0.242857143,1,0,0,1.1483,Diorite_07,3,07,2,4,1.148,0.148571429,-0.38190482,1,0,0,2.826,Peridotite_rect,7,2.826,0,1,0,1,0,1,,,,,,,,,,,,,
62cd43d66c2dd7ae9ab53ae7,SCN,2024-06-25_09h39.22.557,LearnStrategy,2023.2.3,Win32,59.88023952,2,1,3,0.564761963,-0.109523839,1,0,0,1.1805,Pegmatite_11,6,11,3,8,1.18,-0.347619019,-0.410476249,1,0,0,1.7754,Obsidian_rect,5,1.775,0,2,0,2,0,1,,,,,,,,,,,,,
62cd43d66c2dd7ae9ab53ae7,SCN,2024-06-25_09h39.22.557,LearnStrategy,2023.2.3,Win32,59.88023952,2,1,4,0.246666696,-0.423809553,1,0,0,2.0813,Obsidian_04,5,04,1,6,2.081,-0.333333304,-0.390476249,1,0,0,1.3928,Obsidian_rect,5,1.393,1,3,0,3,0,1,,,,,,,,,,,,,
62cd43d66c2dd7ae9ab53ae7,SCN,2024-06-25_09h39.22.557,LearnStrategy,2023.2.3,Win32,59.88023952,2,1,5,0.42190482,-0.252380981,1,0,0,1.5486,Pegmatite_10,6,10,2,7,1.549,0.133333391,-0.384761963,1,0,0,1.4918,Peridotite_rect,7,1.492,0,4,0,4,0,1,,,,,,,,,,,,,
62cd43d66c2dd7ae9ab53ae7,SCN,2024-06-25_09h39.22.557,LearnStrategy,2023.2.3,Win32,59.88023952,2,1,6,-0.425714286,-0.232380981,1,0,0,1.6978,Peridotite_10,7,10,2,2,1.698,-0.096190447,-0.384761963,1,0,0,3.159,Pegmatite_rect,6,3.159,0,5,0,5,0,1,,,,,,,,,,,,,
62cd43d66c2dd7ae9ab53ae7,SCN,2024-06-25_09h39.22.557,LearnStrategy,2023.2.3,Win32,59.88023952,2,1,7,0.062857143,-0.277142857,1,0,0,1.531,Pegmatite_03,6,03,2,5,1.531,-0.072380938,-0.38,1,0,0,1.4763,Pegmatite_rect,6,1.476,1,6,0,6,0,1,,,,,,,,,,,,,
62cd43d66c2dd7ae9ab53ae7,SCN,2024-06-25_09h39.22.557,LearnStrategy,2023.2.3,Win32,59.88023952,2,1,8,0.548571429,-0.274285714,1,0,0,2.8137,Peridotite_15,7,15,2,8,2.814,-0.093333304,-0.405714286,1,0,0,2.0538,Pegmatite_rect,6,2.054,0,7,0,7,0,1,,,,,,,,,,,,,
62cd43d66c2dd7ae9ab53ae7,SCN,2024-06-25_09h39.22.557,LearnStrategy,2023.2.3,Win32,59.88023952,2,1,9,0.399047677,-0.40095241,1,0,0,1.7139,Pumice_05,8,05,1,7,1.714,0.399047677,-0.40095241,1,0,0,1.1262,Pumice_rect,8,1.126,1,8,0,8,0,1,,,,,,,,,,,,,
62cd43d66c2dd7ae9ab53ae7,SCN,2024-06-25_09h39.22.557,LearnStrategy,2023.2.3,Win32,59.88023952,2,1,10,-0.229523795,-0.223809553,1,0,0,2.2802,Pumice_06,8,06,2,3,2.28,0.315238124,-0.409523839,1,0,0,1.9593,Pumice_rect,8,1.959,1,9,0,9,0,1,,,,,,,,,,,,,
62cd43d66c2dd7ae9ab53ae7,SCN,2024-06-25_09h39.22.557,LearnStrategy,2023.2.3,Win32,59.88023952,2,1,11,-0.082857143,-0.103809553,1,0,0,1.6131,Pegmatite_06,6,06,3,4,1.613,-0.112380938,-0.404761963,1,0,0,1.7925,Pegmatite_rect,6,1.793,1,10,0,10,0,1,,,,,,,,,,,,,
62cd43d66c2dd7ae9ab53ae7,SCN,2024-06-25_09h39.22.557,LearnStrategy,2023.2.3,Win32,59.88023952,2,1,12,-0.255238081,0.077142857,1,0,0,3.1324,Pegmatite_07,6,07,4,3,3.132,-0.147619019,-0.406666696,1,0,0,1.0709,Pegmatite_rect,6,1.071,1,11,0,11,0,1,,,,,,,,,,,,,
62cd43d66c2dd7ae9ab53ae7,SCN,2024-06-25_09h39.22.557,LearnStrategy,2023.2.3,Win32,59.88023952,2,1,13,0.546666696,-0.385714286,1,0,0,2.3822,Gabbro_13,4,13,1,8,2.382,0.107619106,-0.246666696,1,0,0,2.5254,Diorite_rect,3,2.525,0,12,0,12,0,1,,,,,,,,,,,,,
62cd43d66c2dd7ae9ab53ae7,SCN,2024-06-25_09h39.22.557,LearnStrategy,2023.2.3,Win32,59.88023952,2,1,14,-0.517142857,-0.272380981,1,0,0,1.3799,Andesite_06,1,06,2,1,1.38,0.176190534,-0.390476249,1,0,0,4.292,Peridotite_rect,7,4.292,0,13,0,13,0,1,,,,,,,,,,,,,
62cd43d66c2dd7ae9ab53ae7,SCN,2024-06-25_09h39.22.557,LearnStrategy,2023.2.3,Win32,59.88023952,2,1,15,-0.537142857,-0.104761919,1,0,0,1.3809,Diorite_11,3,11,3,1,1.381,0.154285714,-0.245714286,1,0,0,1.4594,Diorite_rect,3,1.459,1,14,0,14,0,1,,,,,,,,,,,,,
62cd43d66c2dd7ae9ab53ae7,SCN,2024-06-25_09h39.22.557,LearnStrategy,2023.2.3,Win32,59.88023952,2,1,16,0.254285714,0.068571429,1,0,0,1.2812,Basalt_12,2,12,4,6,1.281,0.12,-0.24095241,1,0,0,0.8761,Diorite_rect,3,0.876,0,15,0,15,0,1,,,,,,,,,,,,,
62cd43d66c2dd7ae9ab53ae7,SCN,2024-06-25_09h39.22.557,LearnStrategy,2023.2.3,Win32,59.88023952,2,2,1,,,,,,,,7,16,,,,,,,,,,,2,4.01,0,,,,,,-0.101904733,-0.247619106,1,0,0,4.0099,Basalt_rect,0,0,0,0,1,
62cd43d66c2dd7ae9ab53ae7,SCN,2024-06-25_09h39.22.557,LearnStrategy,2023.2.3,Win32,59.88023952,2,2,2,,,,,,,,4,16,,,,,,,,,,,2,0.177,0,,,,,,-0.101904733,-0.242857143,1,0,0,0.1769,Basalt_rect,1,0,1,0,1,
62cd43d66c2dd7ae9ab53ae7,SCN,2024-06-25_09h39.22.557,LearnStrategy,2023.2.3,Win32,59.88023952,2,2,3,,,,,,,,4,08,,,,,,,,,,,7,5.193,0,,,,,,0.087619106,-0.40190482,1,0,0,5.1926,Peridotite_rect,2,0,2,0,1,
62cd43d66c2dd7ae9ab53ae7,SCN,2024-06-25_09h39.22.557,LearnStrategy,2023.2.3,Win32,59.88023952,2,2,4,,,,,,,,2,08,,,,,,,,,,,4,2.042,0,,,,,,0.356190534,-0.259047677,1,0,0,2.0423,Gabbro_rect,3,0,3,0,1,
62cd43d66c2dd7ae9ab53ae7,SCN,2024-06-25_09h39.22.557,LearnStrategy,2023.2.3,Win32,59.88023952,2,2,5,,,,,,,,7,06,,,,,,,,,,,6,5.193,0,,,,,,-0.107619019,-0.405714286,1,0,0,5.1931,Pegmatite_rect,4,0,4,0,1,
62cd43d66c2dd7ae9ab53ae7,SCN,2024-06-25_09h39.22.557,LearnStrategy,2023.2.3,Win32,59.88023952,2,2,6,,,,,,,,8,04,,,,,,,,,,,8,1.792,1,,,,,,0.406666696,-0.403809553,1,0,0,1.7923,Pumice_rect,5,0,5,0,1,
62cd43d66c2dd7ae9ab53ae7,SCN,2024-06-25_09h39.22.557,LearnStrategy,2023.2.3,Win32,59.88023952,2,2,7,,,,,,,,6,16,,,,,,,,,,,6,2.276,1,,,,,,-0.107619019,-0.40190482,1,0,0,2.2764,Pegmatite_rect,6,0,6,0,1,
62cd43d66c2dd7ae9ab53ae7,SCN,2024-06-25_09h39.22.557,LearnStrategy,2023.2.3,Win32,59.88023952,2,2,8,,,,,,,,5,12,,,,,,,,,,,5,1.393,1,,,,,,-0.355238081,-0.383809553,1,0,0,1.3932,Obsidian_rect,7,0,7,0,1,
62cd43d66c2dd7ae9ab53ae7,SCN,2024-06-25_09h39.22.557,LearnStrategy,2023.2.3,Win32,59.88023952,2,2,9,,,,,,,,8,02,,,,,,,,,,,8,1.943,1,,,,,,0.353333391,-0.389523839,1,0,0,1.9433,Pumice_rect,8,0,8,0,1,
62cd43d66c2dd7ae9ab53ae7,SCN,2024-06-25_09h39.22.557,LearnStrategy,2023.2.3,Win32,59.88023952,2,2,10,,,,,,,,2,05,,,,,,,,,,,1,3.226,0,,,,,,-0.33904759,-0.26095241,1,0,0,3.2265,Andesite_rect,9,0,9,0,1,
62cd43d66c2dd7ae9ab53ae7,SCN,2024-06-25_09h39.22.557,LearnStrategy,2023.2.3,Win32,59.88023952,2,2,11,,,,,,,,3,13,,,,,,,,,,,3,4.193,1,,,,,,0.124761963,-0.259047677,1,0,0,4.193,Diorite_rect,10,0,10,0,1,
62cd43d66c2dd7ae9ab53ae7,SCN,2024-06-25_09h39.22.557,LearnStrategy,2023.2.3,Win32,59.88023952,2,2,12,,,,,,,,6,05,,,,,,,,,,,7,2.159,0,,,,,,0.162857143,-0.399047677,1,0,0,2.1586,Peridotite_rect,11,0,11,0,1,
62cd43d66c2dd7ae9ab53ae7,SCN,2024-06-25_09h39.22.557,LearnStrategy,2023.2.3,Win32,59.88023952,2,2,13,,,,,,,,3,09,,,,,,,,,,,4,1.177,0,,,,,,0.356190534,-0.270476249,1,0,0,1.1767,Gabbro_rect,12,0,12,0,1,
62cd43d66c2dd7ae9ab53ae7,SCN,2024-06-25_09h39.22.557,LearnStrategy,2023.2.3,Win32,59.88023952,2,2,14,,,,,,,,5,10,,,,,,,,,,,5,1.627,1,,,,,,-0.355238081,-0.393333391,1,0,0,1.6267,Obsidian_rect,13,0,13,0,1,
62cd43d66c2dd7ae9ab53ae7,SCN,2024-06-25_09h39.22.557,LearnStrategy,2023.2.3,Win32,59.88023952,2,2,15,,,,,,,,1,14,,,,,,,,,,,1,1.509,1,,,,,,-0.361904733,-0.255238124,1,0,0,1.5092,Andesite_rect,14,0,14,0,1,
62cd43d66c2dd7ae9ab53ae7,SCN,2024-06-25_09h39.22.557,LearnStrategy,2023.2.3,Win32,59.88023952,2,2,16,,,,,,,,1,09,,,,,,,,,,,2,2.142,0,,,,,,-0.145714286,-0.265714286,1,0,0,2.1424,Basalt_rect,15,0,15,0,1,
62cd43d66c2dd7ae9ab53ae7,SCN,2024-06-25_09h39.22.557,LearnStrategy,2023.2.3,Win32,59.88023952,3,1,1,-0.409523795,-0.082857143,1,0,0,1.1315,Pumice_16,8,16,3,2,1.132,0.379047677,-0.386666696,1,0,0,2.226,Pumice_rect,8,2.226,1,0,0,0,0,1,,,,,,,,,,,,,
62cd43d66c2dd7ae9ab53ae7,SCN,2024-06-25_09h39.22.557,LearnStrategy,2023.2.3,Win32,59.88023952,3,1,2,0.379047677,0.091428571,1,0,0,1.1464,Diorite_15,3,15,4,7,1.146,0.170476249,-0.258095267,1,0,0,2.2434,Diorite_rect,3,2.243,1,1,0,1,0,1,,,,,,,,,,,,,
62cd43d66c2dd7ae9ab53ae7,SCN,2024-06-25_09h39.22.557,LearnStrategy,2023.2.3,Win32,59.88023952,3,1,3,0.547619106,0.24,1,0,0,1.4636,Diorite_08,3,08,5,8,1.464,0.14095241,-0.246666696,1,0,0,1.7424,Diorite_rect,3,1.742,1,2,0,2,0,1,,,,,,,,,,,,,
62cd43d66c2dd7ae9ab53ae7,SCN,2024-06-25_09h39.22.557,LearnStrategy,2023.2.3,Win32,59.88023952,3,1,4,-0.073333304,-0.252380981,1,0,0,3.248,Diorite_07,3,07,2,4,3.248,0.116190534,-0.230476205,1,0,0,1.4757,Diorite_rect,3,1.476,1,3,0,3,0,1,,,,,,,,,,,,,
62cd43d66c2dd7ae9ab53ae7,SCN,2024-06-25_09h39.22.557,LearnStrategy,2023.2.3,Win32,59.88023952,3,1,5,0.256190534,-0.24095241,1,0,0,1.5649,Andesite_05,1,05,2,6,1.565,0.145714286,-0.229523839,1,0,0,1.3097,Diorite_rect,3,1.31,0,4,0,4,0,1,,,,,,,,,,,,,
62cd43d66c2dd7ae9ab53ae7,SCN,2024-06-25_09h39.22.557,LearnStrategy,2023.2.3,Win32,59.88023952,3,1,6,-0.243809509,0.074285714,1,0,0,4.4818,Pegmatite_07,6,07,4,3,4.482,-0.380952366,-0.255238124,1,0,0,1.421,Andesite_rect,1,1.421,0,5,0,5,0,1,,,,,,,,,,,,,
62cd43d66c2dd7ae9ab53ae7,SCN,2024-06-25_09h39.22.557,LearnStrategy,2023.2.3,Win32,59.88023952,3,1,7,0.511428571,0.408571429,1,0,0,3.9815,Peridotite_08,7,08,6,8,3.981,0.109523839,-0.265714286,1,0,0,1.9869,Diorite_rect,3,1.987,0,6,0,6,0,1,,,,,,,,,,,,,
62cd43d66c2dd7ae9ab53ae7,SCN,2024-06-25_09h39.22.557,LearnStrategy,2023.2.3,Win32,59.88023952,3,1,8,-0.223809509,0.252380938,1,0,0,2.8812,Gabbro_11,4,11,5,3,2.881,0.14,-0.269523839,1,0,0,1.487,Diorite_rect,3,1.487,0,7,0,7,0,1,,,,,,,,,,,,,
62cd43d66c2dd7ae9ab53ae7,SCN,2024-06-25_09h39.22.557,LearnStrategy,2023.2.3,Win32,59.88023952,3,1,9,0.556190534,-0.28,1,0,0,1.1982,Peridotite_15,7,15,2,8,1.198,0.082857143,-0.269523839,1,0,0,3.0908,Diorite_rect,3,3.091,0,8,0,8,0,1,,,,,,,,,,,,,
62cd43d66c2dd7ae9ab53ae7,SCN,2024-06-25_09h39.22.557,LearnStrategy,2023.2.3,Win32,59.88023952,3,1,10,0.10095241,-0.399047677,1,0,0,2.0136,Basalt_11,2,11,1,5,2.014,0.377142857,-0.42,1,0,0,1.6422,Pumice_rect,8,1.642,0,9,0,9,0,1,,,,,,,,,,,,,
62cd43d66c2dd7ae9ab53ae7,SCN,2024-06-25_09h39.22.557,LearnStrategy,2023.2.3,Win32,59.88023952,3,1,11,-0.377142857,-0.264761963,1,0,0,1.7815,Peridotite_10,7,10,2,2,1.782,-0.114285714,-0.251428571,1,0,0,2.0098,Basalt_rect,2,2.01,0,10,0,10,0,1,,,,,,,,,,,,,
62cd43d66c2dd7ae9ab53ae7,SCN,2024-06-25_09h39.22.557,LearnStrategy,2023.2.3,Win32,59.88023952,3,1,12,0.548571429,-0.402857143,1,0,0,1.315,Gabbro_13,4,13,1,8,1.315,0.114285714,-0.404761963,1,0,0,2.359,Peridotite_rect,7,2.359,0,11,0,11,0,1,,,,,,,,,,,,,
62cd43d66c2dd7ae9ab53ae7,SCN,2024-06-25_09h39.22.557,LearnStrategy,2023.2.3,Win32,59.88023952,3,1,13,0.387619106,-0.42095241,1,0,0,1.1311,Pumice_05,8,05,1,7,1.131,0.387619106,-0.42095241,1,0,0,0.7764,Pumice_rect,8,0.776,1,12,0,12,0,1,,,,,,,,,,,,,
62cd43d66c2dd7ae9ab53ae7,SCN,2024-06-25_09h39.22.557,LearnStrategy,2023.2.3,Win32,59.88023952,3,1,14,0.404761963,-0.258095267,1,0,0,1.8482,Pegmatite_10,6,10,2,7,1.848,-0.071428571,-0.40095241,1,0,0,3.6426,Pegmatite_rect,6,3.643,1,13,0,13,0,1,,,,,,,,,,,,,
62cd43d66c2dd7ae9ab53ae7,SCN,2024-06-25_09h39.22.557,LearnStrategy,2023.2.3,Win32,59.88023952,3,1,15,0.531428571,0.408571429,1,0,0,2.8637,Peridotite_08,7,08,6,8,2.864,0.117142857,-0.258095267,1,0,0,3.6869,Diorite_rect,3,3.687,0,14,0,14,0,1,,,,,,,,,,,,,
62cd43d66c2dd7ae9ab53ae7,SCN,2024-06-25_09h39.22.557,LearnStrategy,2023.2.3,Win32,59.88023952,3,1,16,-0.407619019,0.091428571,1,0,0,2.1307,Gabbro_10,4,10,4,2,2.131,-0.083809509,-0.255238124,1,0,0,2.4221,Basalt_rect,2,2.422,0,15,0,15,0,1,,,,,,,,,,,,,
62cd43d66c2dd7ae9ab53ae7,SCN,2024-06-25_09h39.22.557,LearnStrategy,2023.2.3,Win32,59.88023952,3,2,1,,,,,,,,6,12,,,,,,,,,,,7,9.542,0,,,,,,0.119047677,-0.409523839,1,0,0,9.5418,Peridotite_rect,0,0,0,0,1,
62cd43d66c2dd7ae9ab53ae7,SCN,2024-06-25_09h39.22.557,LearnStrategy,2023.2.3,Win32,59.88023952,3,2,2,,,,,,,,6,08,,,,,,,,,,,3,2.476,0,,,,,,0.104761963,-0.26190482,1,0,0,2.4764,Diorite_rect,1,0,1,0,1,
62cd43d66c2dd7ae9ab53ae7,SCN,2024-06-25_09h39.22.557,LearnStrategy,2023.2.3,Win32,59.88023952,3,2,3,,,,,,,,2,01,,,,,,,,,,,4,2.943,0,,,,,,0.343809553,-0.242857143,1,0,0,2.9434,Gabbro_rect,2,0,2,0,1,
62cd43d66c2dd7ae9ab53ae7,SCN,2024-06-25_09h39.22.557,LearnStrategy,2023.2.3,Win32,59.88023952,3,2,4,,,,,,,,4,09,,,,,,,,,,,5,2.394,0,,,,,,-0.4,-0.393333391,1,0,0,2.3937,Obsidian_rect,3,0,3,0,1,
62cd43d66c2dd7ae9ab53ae7,SCN,2024-06-25_09h39.22.557,LearnStrategy,2023.2.3,Win32,59.88023952,3,2,5,,,,,,,,2,09,,,,,,,,,,,4,4.376,0,,,,,,0.357142857,-0.232380981,1,0,0,4.3764,Gabbro_rect,4,0,4,0,1,
62cd43d66c2dd7ae9ab53ae7,SCN,2024-06-25_09h39.22.557,LearnStrategy,2023.2.3,Win32,59.88023952,3,2,6,,,,,,,,3,16,,,,,,,,,,,3,2.794,1,,,,,,0.074285714,-0.252380981,1,0,0,2.794,Diorite_rect,5,0,5,0,1,
62cd43d66c2dd7ae9ab53ae7,SCN,2024-06-25_09h39.22.557,LearnStrategy,2023.2.3,Win32,59.88023952,3,2,7,,,,,,,,3,10,,,,,,,,,,,7,2.49,0,,,,,,0.1,-0.399047677,1,0,0,2.4899,Peridotite_rect,6,0,6,0,1,
62cd43d66c2dd7ae9ab53ae7,SCN,2024-06-25_09h39.22.557,LearnStrategy,2023.2.3,Win32,59.88023952,3,2,8,,,,,,,,5,11,,,,,,,,,,,5,1.376,1,,,,,,-0.373333304,-0.398095267,1,0,0,1.3763,Obsidian_rect,7,0,7,0,1,
62cd43d66c2dd7ae9ab53ae7,SCN,2024-06-25_09h39.22.557,LearnStrategy,2023.2.3,Win32,59.88023952,3,2,9,,,,,,,,7,05,,,,,,,,,,,1,4.61,0,,,,,,-0.372380938,-0.254285714,1,0,0,4.6101,Andesite_rect,8,0,8,0,1,
62cd43d66c2dd7ae9ab53ae7,SCN,2024-06-25_09h39.22.557,LearnStrategy,2023.2.3,Win32,59.88023952,3,2,10,,,,,,,,7,02,,,,,,,,,,,6,2.86,0,,,,,,-0.062857143,-0.405714286,1,0,0,2.86,Pegmatite_rect,9,0,9,0,1,
62cd43d66c2dd7ae9ab53ae7,SCN,2024-06-25_09h39.22.557,LearnStrategy,2023.2.3,Win32,59.88023952,3,2,11,,,,,,,,8,15,,,,,,,,,,,8,1.526,1,,,,,,0.42,-0.40190482,1,0,0,1.526,Pumice_rect,10,0,10,0,1,
62cd43d66c2dd7ae9ab53ae7,SCN,2024-06-25_09h39.22.557,LearnStrategy,2023.2.3,Win32,59.88023952,3,2,12,,,,,,,,1,01,,,,,,,,,,,1,6.277,1,,,,,,-0.342857143,-0.239047677,1,0,0,6.2766,Andesite_rect,11,0,11,0,1,
62cd43d66c2dd7ae9ab53ae7,SCN,2024-06-25_09h39.22.557,LearnStrategy,2023.2.3,Win32,59.88023952,3,2,13,,,,,,,,1,11,,,,,,,,,,,3,5.977,0,,,,,,0.104761963,-0.253333391,1,0,0,5.9768,Diorite_rect,12,0,12,0,1,
62cd43d66c2dd7ae9ab53ae7,SCN,2024-06-25_09h39.22.557,LearnStrategy,2023.2.3,Win32,59.88023952,3,2,14,,,,,,,,8,14,,,,,,,,,,,8,1.427,1,,,,,,0.328571429,-0.395238124,1,0,0,1.4268,Pumice_rect,13,0,13,0,1,
62cd43d66c2dd7ae9ab53ae7,SCN,2024-06-25_09h39.22.557,LearnStrategy,2023.2.3,Win32,59.88023952,3,2,15,,,,,,,,5,05,,,,,,,,,,,3,4.127,0,,,,,,0.079047677,-0.243809553,1,0,0,4.1267,Diorite_rect,14,0,14,0,1,
62cd43d66c2dd7ae9ab53ae7,SCN,2024-06-25_09h39.22.557,LearnStrategy,2023.2.3,Win32,59.88023952,3,2,16,,,,,,,,4,15,,,,,,,,,,,7,1.61,0,,,,,,0.08095241,-0.403809553,1,0,0,1.6096,Peridotite_rect,15,0,15,0,1,
62cd43d66c2dd7ae9ab53ae7,SCN,2024-06-25_09h39.22.557,LearnStrategy,2023.2.3,Win32,59.88023952,4,1,1,0.063809553,0.26,1,0,0,0.7977,Gabbro_05,4,05,5,5,0.798,-0.094285714,-0.259047677,1,0,0,0.9263,Basalt_rect,2,0.926,0,0,0,0,0,1,,,,,,,,,,,,,
62cd43d66c2dd7ae9ab53ae7,SCN,2024-06-25_09h39.22.557,LearnStrategy,2023.2.3,Win32,59.88023952,4,1,2,0.054285714,-0.132380981,1,0,0,0.6814,Andesite_16,1,16,3,5,0.681,0.111428571,-0.389523839,1,0,0,1.0595,Peridotite_rect,7,1.059,0,1,0,1,0,1,,,,,,,,,,,,,
62cd43d66c2dd7ae9ab53ae7,SCN,2024-06-25_09h39.22.557,LearnStrategy,2023.2.3,Win32,59.88023952,4,1,3,0.086666696,-0.119047634,1,0,0,0.9488,Andesite_16,1,16,3,5,0.949,-0.353333304,-0.24,1,0,0,3.2254,Andesite_rect,1,3.225,1,2,0,2,0,1,,,,,,,,,,,,,
62cd43d66c2dd7ae9ab53ae7,SCN,2024-06-25_09h39.22.557,LearnStrategy,2023.2.3,Win32,59.88023952,4,1,4,0.222857143,-0.228571429,1,0,0,1.2637,Andesite_05,1,05,2,6,1.264,-0.36,-0.232380981,1,0,0,2.626,Andesite_rect,1,2.626,1,3,0,3,0,1,,,,,,,,,,,,,
62cd43d66c2dd7ae9ab53ae7,SCN,2024-06-25_09h39.22.557,LearnStrategy,2023.2.3,Win32,59.88023952,4,1,5,-0.377142857,-0.249523839,1,0,0,1.5144,Peridotite_10,7,10,2,2,1.514,-0.091428571,-0.402857143,1,0,0,1.8427,Pegmatite_rect,6,1.843,0,4,0,4,0,1,,,,,,,,,,,,,
62cd43d66c2dd7ae9ab53ae7,SCN,2024-06-25_09h39.22.557,LearnStrategy,2023.2.3,Win32,59.88023952,4,1,6,-0.268571429,-0.274285714,1,0,0,1.6968,Pumice_06,8,06,2,3,1.697,0.34095241,-0.402857143,1,0,0,1.6928,Pumice_rect,8,1.693,1,5,0,5,0,1,,,,,,,,,,,,,
62cd43d66c2dd7ae9ab53ae7,SCN,2024-06-25_09h39.22.557,LearnStrategy,2023.2.3,Win32,59.88023952,4,1,7,0.411428571,-0.131428571,1,0,0,1.148,Obsidian_16,5,16,3,7,1.148,-0.309523795,-0.397142857,1,0,0,1.0931,Obsidian_rect,5,1.093,1,6,0,6,0,1,,,,,,,,,,,,,
62cd43d66c2dd7ae9ab53ae7,SCN,2024-06-25_09h39.22.557,LearnStrategy,2023.2.3,Win32,59.88023952,4,1,8,0.56190482,-0.26190482,1,0,0,1.5818,Peridotite_15,7,15,2,8,1.582,0.191428571,-0.40095241,1,0,0,1.8427,Peridotite_rect,7,1.843,1,7,0,7,0,1,,,,,,,,,,,,,
62cd43d66c2dd7ae9ab53ae7,SCN,2024-06-25_09h39.22.557,LearnStrategy,2023.2.3,Win32,59.88023952,4,1,9,-0.256190447,-0.391428571,1,0,0,3.099,Peridotite_07,7,07,1,3,3.099,-0.380952366,-0.254285714,1,0,0,2.3031,Andesite_rect,1,2.303,0,8,0,8,0,1,,,,,,,,,,,,,
62cd43d66c2dd7ae9ab53ae7,SCN,2024-06-25_09h39.22.557,LearnStrategy,2023.2.3,Win32,59.88023952,4,1,10,-0.561904755,-0.273333391,1,0,0,1.5975,Andesite_06,1,06,2,1,1.597,0.108571429,-0.407619106,1,0,0,2.3425,Peridotite_rect,7,2.342,0,9,0,9,0,1,,,,,,,,,,,,,
62cd43d66c2dd7ae9ab53ae7,SCN,2024-06-25_09h39.22.557,LearnStrategy,2023.2.3,Win32,59.88023952,4,1,11,0.095238124,-0.106666696,1,0,0,1.3638,Andesite_16,1,16,3,5,1.364,-0.406666652,-0.251428571,1,0,0,1.6427,Andesite_rect,1,1.643,1,10,0,10,0,1,,,,,,,,,,,,,
62cd43d66c2dd7ae9ab53ae7,SCN,2024-06-25_09h39.22.557,LearnStrategy,2023.2.3,Win32,59.88023952,4,1,12,0.236190534,-0.26,1,0,0,1.2466,Andesite_05,1,05,2,6,1.247,-0.397142857,-0.263809553,1,0,0,1.06,Andesite_rect,1,1.06,1,11,0,11,0,1,,,,,,,,,,,,,
62cd43d66c2dd7ae9ab53ae7,SCN,2024-06-25_09h39.22.557,LearnStrategy,2023.2.3,Win32,59.88023952,4,1,13,0.06190482,0.243809509,1,0,0,1.4978,Gabbro_05,4,05,5,5,1.498,0.137142857,-0.399047677,1,0,0,1.6261,Peridotite_rect,7,1.626,0,12,0,12,0,1,,,,,,,,,,,,,
62cd43d66c2dd7ae9ab53ae7,SCN,2024-06-25_09h39.22.557,LearnStrategy,2023.2.3,Win32,59.88023952,4,1,14,-0.262857143,0.083809509,1,0,0,1.3488,Pegmatite_07,6,07,4,3,1.349,-0.362857143,-0.242857143,1,0,0,1.8263,Andesite_rect,1,1.826,0,13,0,13,0,1,,,,,,,,,,,,,
62cd43d66c2dd7ae9ab53ae7,SCN,2024-06-25_09h39.22.557,LearnStrategy,2023.2.3,Win32,59.88023952,4,1,15,0.556190534,-0.109523839,1,0,0,1.7637,Pegmatite_11,6,11,3,8,1.764,-0.111428571,-0.410476249,1,0,0,1.7442,Pegmatite_rect,6,1.744,1,14,0,14,0,1,,,,,,,,,,,,,
62cd43d66c2dd7ae9ab53ae7,SCN,2024-06-25_09h39.22.557,LearnStrategy,2023.2.3,Win32,59.88023952,4,1,16,0.385714286,0.094285714,1,0,0,1.7472,Diorite_15,3,15,4,7,1.747,0.304761963,-0.26,1,0,0,2.626,Gabbro_rect,4,2.626,0,15,0,15,0,1,,,,,,,,,,,,,
62cd43d66c2dd7ae9ab53ae7,SCN,2024-06-25_09h39.22.557,LearnStrategy,2023.2.3,Win32,59.88023952,4,2,1,,,,,,,,2,14,,,,,,,,,,,4,6.842,0,,,,,,0.338095267,-0.238095267,1,0,0,6.8424,Gabbro_rect,0,0,0,0,1,
62cd43d66c2dd7ae9ab53ae7,SCN,2024-06-25_09h39.22.557,LearnStrategy,2023.2.3,Win32,59.88023952,4,2,2,,,,,,,,7,16,,,,,,,,,,,7,2.927,1,,,,,,0.104761963,-0.416190534,1,0,0,2.9269,Peridotite_rect,1,0,1,0,1,
62cd43d66c2dd7ae9ab53ae7,SCN,2024-06-25_09h39.22.557,LearnStrategy,2023.2.3,Win32,59.88023952,4,2,3,,,,,,,,8,10,,,,,,,,,,,8,1.343,1,,,,,,0.34,-0.396190534,1,0,0,1.3429,Pumice_rect,2,0,2,0,1,
62cd43d66c2dd7ae9ab53ae7,SCN,2024-06-25_09h39.22.557,LearnStrategy,2023.2.3,Win32,59.88023952,4,2,4,,,,,,,,7,12,,,,,,,,,,,3,5.844,0,,,,,,0.129523839,-0.255238124,1,0,0,5.8436,Diorite_rect,3,0,3,0,1,
62cd43d66c2dd7ae9ab53ae7,SCN,2024-06-25_09h39.22.557,LearnStrategy,2023.2.3,Win32,59.88023952,4,2,5,,,,,,,,3,10,,,,,,,,,,,4,5.313,0,,,,,,0.356190534,-0.253333391,1,0,0,5.3134,Gabbro_rect,4,0,4,0,1,
62cd43d66c2dd7ae9ab53ae7,SCN,2024-06-25_09h39.22.557,LearnStrategy,2023.2.3,Win32,59.88023952,4,2,6,,,,,,,,1,10,,,,,,,,,,,4,8.159,0,,,,,,0.382857143,-0.270476249,1,0,0,8.1592,Gabbro_rect,5,0,5,0,1,
62cd43d66c2dd7ae9ab53ae7,SCN,2024-06-25_09h39.22.557,LearnStrategy,2023.2.3,Win32,59.88023952,4,2,7,,,,,,,,3,06,,,,,,,,,,,2,3.027,0,,,,,,-0.182857143,-0.268571429,1,0,0,3.0267,Basalt_rect,6,0,6,0,1,
62cd43d66c2dd7ae9ab53ae7,SCN,2024-06-25_09h39.22.557,LearnStrategy,2023.2.3,Win32,59.88023952,4,2,8,,,,,,,,6,09,,,,,,,,,,,6,2.193,1,,,,,,-0.123809509,-0.409523839,1,0,0,2.1928,Pegmatite_rect,7,0,7,0,1,
62cd43d66c2dd7ae9ab53ae7,SCN,2024-06-25_09h39.22.557,LearnStrategy,2023.2.3,Win32,59.88023952,4,2,9,,,,,,,,5,10,,,,,,,,,,,5,1.21,1,,,,,,-0.322857143,-0.387619106,1,0,0,1.2099,Obsidian_rect,8,0,8,0,1,
62cd43d66c2dd7ae9ab53ae7,SCN,2024-06-25_09h39.22.557,LearnStrategy,2023.2.3,Win32,59.88023952,4,2,10,,,,,,,,4,01,,,,,,,,,,,7,7.459,0,,,,,,0.117142857,-0.396190534,1,0,0,7.4586,Peridotite_rect,9,0,9,0,1,
62cd43d66c2dd7ae9ab53ae7,SCN,2024-06-25_09h39.22.557,LearnStrategy,2023.2.3,Win32,59.88023952,4,2,11,,,,,,,,2,05,,,,,,,,,,,4,3.677,0,,,,,,0.394285714,-0.262857143,1,0,0,3.6769,Gabbro_rect,10,0,10,0,1,
62cd43d66c2dd7ae9ab53ae7,SCN,2024-06-25_09h39.22.557,LearnStrategy,2023.2.3,Win32,59.88023952,4,2,12,,,,,,,,8,15,,,,,,,,,,,8,1.443,1,,,,,,0.402857143,-0.398095267,1,0,0,1.4431,Pumice_rect,11,0,11,0,1,
62cd43d66c2dd7ae9ab53ae7,SCN,2024-06-25_09h39.22.557,LearnStrategy,2023.2.3,Win32,59.88023952,4,2,13,,,,,,,,6,16,,,,,,,,,,,6,3.277,1,,,,,,-0.105714286,-0.396190534,1,0,0,3.2774,Pegmatite_rect,12,0,12,0,1,
62cd43d66c2dd7ae9ab53ae7,SCN,2024-06-25_09h39.22.557,LearnStrategy,2023.2.3,Win32,59.88023952,4,2,14,,,,,,,,4,16,,,,,,,,,,,4,2.36,1,,,,,,0.347619106,-0.26190482,1,0,0,2.3597,Gabbro_rect,13,0,13,0,1,
62cd43d66c2dd7ae9ab53ae7,SCN,2024-06-25_09h39.22.557,LearnStrategy,2023.2.3,Win32,59.88023952,4,2,15,,,,,,,,1,11,,,,,,,,,,,3,6.943,0,,,,,,0.104761963,-0.230476205,1,0,0,6.9434,Diorite_rect,14,0,14,0,1,
62cd43d66c2dd7ae9ab53ae7,SCN,2024-06-25_09h39.22.557,LearnStrategy,2023.2.3,Win32,59.88023952,4,2,16,,,,,,,,5,08,,,,,,,,,,,5,1.16,1,,,,,,-0.37904759,-0.38,1,0,0,1.1598,Obsidian_rect,15,0,15,0,1,
62cd43d66c2dd7ae9ab53ae7,SCN,2024-06-25_09h39.22.557,LearnStrategy,2023.2.3,Win32,59.88023952,5,1,1,0.377142857,0.422857143,1,0,0,0.9477,Basalt_16,2,16,6,7,0.948,0.366666696,-0.248571429,1,0,0,2.2422,Gabbro_rect,4,2.242,0,0,0,0,0,1,,,,,,,,,,,,,
62cd43d66c2dd7ae9ab53ae7,SCN,2024-06-25_09h39.22.557,LearnStrategy,2023.2.3,Win32,59.88023952,5,1,2,-0.062857143,0.096190447,1,0,0,0.6644,Basalt_02,2,02,4,4,0.664,0.387619106,-0.243809553,1,0,0,2.8237,Gabbro_rect,4,2.824,0,1,0,1,0,1,,,,,,,,,,,,,
62cd43d66c2dd7ae9ab53ae7,SCN,2024-06-25_09h39.22.557,LearnStrategy,2023.2.3,Win32,59.88023952,5,1,3,-0.569523795,-0.094285714,1,0,0,1.7803,Diorite_11,3,11,3,1,1.78,-0.382857143,-0.235238124,1,0,0,2.0226,Andesite_rect,1,2.023,0,2,0,2,0,1,,,,,,,,,,,,,
62cd43d66c2dd7ae9ab53ae7,SCN,2024-06-25_09h39.22.557,LearnStrategy,2023.2.3,Win32,59.88023952,5,1,4,-0.364761876,0.246666652,1,0,0,1.4662,Andesite_07,1,07,5,2,1.466,-0.1,-0.409523839,1,0,0,3.4911,Pegmatite_rect,6,3.491,0,3,0,3,0,1,,,,,,,,,,,,,
62cd43d66c2dd7ae9ab53ae7,SCN,2024-06-25_09h39.22.557,LearnStrategy,2023.2.3,Win32,59.88023952,5,1,5,-0.066666609,0.382857143,1,0,0,1.2475,Pumice_09,8,09,6,4,1.248,0.362857143,-0.414285714,1,0,0,1.1786,Pumice_rect,8,1.179,1,4,0,4,0,1,,,,,,,,,,,,,
62cd43d66c2dd7ae9ab53ae7,SCN,2024-06-25_09h39.22.557,LearnStrategy,2023.2.3,Win32,59.88023952,5,1,6,0.527619106,0.406666663,1,0,0,1.4971,Peridotite_08,7,08,6,8,1.497,-0.303809509,-0.255238124,1,0,0,1.676,Andesite_rect,1,1.676,0,5,0,5,0,1,,,,,,,,,,,,,
62cd43d66c2dd7ae9ab53ae7,SCN,2024-06-25_09h39.22.557,LearnStrategy,2023.2.3,Win32,59.88023952,5,1,7,0.064761963,-0.244761963,1,0,0,3.0305,Pegmatite_03,6,03,2,5,3.03,-0.11904759,-0.390476249,1,0,0,2.0263,Pegmatite_rect,6,2.026,1,6,0,6,0,1,,,,,,,,,,,,,
62cd43d66c2dd7ae9ab53ae7,SCN,2024-06-25_09h39.22.557,LearnStrategy,2023.2.3,Win32,59.88023952,5,1,8,-0.19904759,-0.104761919,1,0,0,1.4479,Andesite_02,1,02,3,3,1.448,0.099047677,-0.250476249,1,0,0,2.36,Diorite_rect,3,2.36,0,7,0,7,0,1,,,,,,,,,,,,,
62cd43d66c2dd7ae9ab53ae7,SCN,2024-06-25_09h39.22.557,LearnStrategy,2023.2.3,Win32,59.88023952,5,1,9,0.396190534,-0.44,1,0,0,1.2458,Pumice_05,8,05,1,7,1.246,0.36,-0.387619106,1,0,0,1.1262,Pumice_rect,8,1.126,1,8,0,8,0,1,,,,,,,,,,,,,
62cd43d66c2dd7ae9ab53ae7,SCN,2024-06-25_09h39.22.557,LearnStrategy,2023.2.3,Win32,59.88023952,5,1,10,-0.375238081,-0.396190534,1,0,0,1.3477,Gabbro_14,4,14,1,2,1.348,-0.375238081,-0.259047677,1,0,0,1.36,Andesite_rect,1,1.36,0,9,0,9,0,1,,,,,,,,,,,,,
62cd43d66c2dd7ae9ab53ae7,SCN,2024-06-25_09h39.22.557,LearnStrategy,2023.2.3,Win32,59.88023952,5,1,11,-0.522857143,-0.270476249,1,0,0,1.0977,Andesite_06,1,06,2,1,1.098,-0.361904733,-0.254285714,1,0,0,1.3762,Andesite_rect,1,1.376,1,10,0,10,0,1,,,,,,,,,,,,,
62cd43d66c2dd7ae9ab53ae7,SCN,2024-06-25_09h39.22.557,LearnStrategy,2023.2.3,Win32,59.88023952,5,1,12,-0.075238081,-0.127619062,1,0,0,2.1652,Pegmatite_06,6,06,3,4,2.165,-0.108571429,-0.415238124,1,0,0,0.7758,Pegmatite_rect,6,0.776,1,11,0,11,0,1,,,,,,,,,,,,,
62cd43d66c2dd7ae9ab53ae7,SCN,2024-06-25_09h39.22.557,LearnStrategy,2023.2.3,Win32,59.88023952,5,1,13,0.219047677,-0.255238124,1,0,0,1.0477,Andesite_05,1,05,2,6,1.048,-0.347619019,-0.245714286,1,0,0,1.9427,Andesite_rect,1,1.943,1,12,0,12,0,1,,,,,,,,,,,,,
62cd43d66c2dd7ae9ab53ae7,SCN,2024-06-25_09h39.22.557,LearnStrategy,2023.2.3,Win32,59.88023952,5,1,14,0.547619106,-0.419047677,1,0,0,3.6827,Gabbro_13,4,13,1,8,3.683,-0.391428571,-0.237142857,1,0,0,1.3033,Andesite_rect,1,1.303,0,13,0,13,0,1,,,,,,,,,,,,,
62cd43d66c2dd7ae9ab53ae7,SCN,2024-06-25_09h39.22.557,LearnStrategy,2023.2.3,Win32,59.88023952,5,1,15,-0.374285714,-0.238095267,1,0,0,1.2646,Peridotite_10,7,10,2,2,1.265,-0.340952366,-0.246666696,1,0,0,1.2926,Andesite_rect,1,1.293,0,14,0,14,0,1,,,,,,,,,,,,,
62cd43d66c2dd7ae9ab53ae7,SCN,2024-06-25_09h39.22.557,LearnStrategy,2023.2.3,Win32,59.88023952,5,1,16,-0.534285714,-0.088571429,1,0,0,1.4817,Diorite_11,3,11,3,1,1.482,-0.301904733,-0.263809553,1,0,0,1.5265,Andesite_rect,1,1.526,0,15,0,15,0,1,,,,,,,,,,,,,
62cd43d66c2dd7ae9ab53ae7,SCN,2024-06-25_09h39.22.557,LearnStrategy,2023.2.3,Win32,59.88023952,5,2,1,,,,,,,,8,14,,,,,,,,,,,8,1.993,1,,,,,,0.368571429,-0.407619106,1,0,0,1.9934,Pumice_rect,0,0,0,0,1,
62cd43d66c2dd7ae9ab53ae7,SCN,2024-06-25_09h39.22.557,LearnStrategy,2023.2.3,Win32,59.88023952,5,2,2,,,,,,,,5,02,,,,,,,,,,,5,1.254,1,,,,,,-0.375238081,-0.38,1,0,0,1.254,Obsidian_rect,1,0,1,0,1,
62cd43d66c2dd7ae9ab53ae7,SCN,2024-06-25_09h39.22.557,LearnStrategy,2023.2.3,Win32,59.88023952,5,2,3,,,,,,,,4,08,,,,,,,,,,,7,3.592,0,,,,,,0.111428571,-0.412380981,1,0,0,3.5924,Peridotite_rect,2,0,2,0,1,
62cd43d66c2dd7ae9ab53ae7,SCN,2024-06-25_09h39.22.557,LearnStrategy,2023.2.3,Win32,59.88023952,5,2,4,,,,,,,,1,01,,,,,,,,,,,1,3.137,1,,,,,,-0.368571429,-0.236190534,1,0,0,3.1374,Andesite_rect,3,0,3,0,1,
62cd43d66c2dd7ae9ab53ae7,SCN,2024-06-25_09h39.22.557,LearnStrategy,2023.2.3,Win32,59.88023952,5,2,5,,,,,,,,4,09,,,,,,,,,,,4,3.337,1,,,,,,0.38095241,-0.266666696,1,0,0,3.3374,Gabbro_rect,4,0,4,0,1,
62cd43d66c2dd7ae9ab53ae7,SCN,2024-06-25_09h39.22.557,LearnStrategy,2023.2.3,Win32,59.88023952,5,2,6,,,,,,,,8,04,,,,,,,,,,,8,1.304,1,,,,,,0.353333391,-0.386666696,1,0,0,1.3043,Pumice_rect,5,0,5,0,1,
62cd43d66c2dd7ae9ab53ae7,SCN,2024-06-25_09h39.22.557,LearnStrategy,2023.2.3,Win32,59.88023952,5,2,7,,,,,,,,3,09,,,,,,,,,,,1,2.477,0,,,,,,-0.348571429,-0.246666696,1,0,0,2.4769,Andesite_rect,6,0,6,0,1,
62cd43d66c2dd7ae9ab53ae7,SCN,2024-06-25_09h39.22.557,LearnStrategy,2023.2.3,Win32,59.88023952,5,2,8,,,,,,,,6,13,,,,,,,,,,,6,1.737,1,,,,,,-0.107619019,-0.412380981,1,0,0,1.737,Pegmatite_rect,7,0,7,0,1,
62cd43d66c2dd7ae9ab53ae7,SCN,2024-06-25_09h39.22.557,LearnStrategy,2023.2.3,Win32,59.88023952,5,2,9,,,,,,,,7,02,,,,,,,,,,,7,2.279,1,,,,,,0.094285714,-0.40190482,1,0,0,2.279,Peridotite_rect,8,0,8,0,1,
62cd43d66c2dd7ae9ab53ae7,SCN,2024-06-25_09h39.22.557,LearnStrategy,2023.2.3,Win32,59.88023952,5,2,10,,,,,,,,3,16,,,,,,,,,,,1,1.726,0,,,,,,-0.370476161,-0.24095241,1,0,0,1.7265,Andesite_rect,9,0,9,0,1,
62cd43d66c2dd7ae9ab53ae7,SCN,2024-06-25_09h39.22.557,LearnStrategy,2023.2.3,Win32,59.88023952,5,2,11,,,,,,,,6,05,,,,,,,,,,,6,3.111,1,,,,,,-0.115238081,-0.402857143,1,0,0,3.1105,Pegmatite_rect,10,0,10,0,1,
62cd43d66c2dd7ae9ab53ae7,SCN,2024-06-25_09h39.22.557,LearnStrategy,2023.2.3,Win32,59.88023952,5,2,12,,,,,,,,2,10,,,,,,,,,,,2,2.753,1,,,,,,-0.06,-0.252380981,1,0,0,2.7534,Basalt_rect,11,0,11,0,1,
62cd43d66c2dd7ae9ab53ae7,SCN,2024-06-25_09h39.22.557,LearnStrategy,2023.2.3,Win32,59.88023952,5,2,13,,,,,,,,1,09,,,,,,,,,,,4,3.804,0,,,,,,0.363809553,-0.26095241,1,0,0,3.8043,Gabbro_rect,12,0,12,0,1,
62cd43d66c2dd7ae9ab53ae7,SCN,2024-06-25_09h39.22.557,LearnStrategy,2023.2.3,Win32,59.88023952,5,2,14,,,,,,,,7,13,,,,,,,,,,,7,2.855,1,,,,,,0.134285714,-0.399047677,1,0,0,2.8545,Peridotite_rect,13,0,13,0,1,
62cd43d66c2dd7ae9ab53ae7,SCN,2024-06-25_09h39.22.557,LearnStrategy,2023.2.3,Win32,59.88023952,5,2,15,,,,,,,,5,11,,,,,,,,,,,5,1.976,1,,,,,,-0.388571429,-0.387619106,1,0,0,1.9765,Obsidian_rect,14,0,14,0,1,
62cd43d66c2dd7ae9ab53ae7,SCN,2024-06-25_09h39.22.557,LearnStrategy,2023.2.3,Win32,59.88023952,5,2,16,,,,,,,,2,01,,,,,,,,,,,4,3.138,0,,,,,,0.40190482,-0.270476249,1,0,0,3.1375,Gabbro_rect,15,0,15,0,1,
62cd43d66c2dd7ae9ab53ae7,SCN,2024-06-25_09h39.22.557,LearnStrategy,2023.2.3,Win32,59.88023952,6,1,1,-0.349523795,0.230476183,1,0,0,1.498,Andesite_07,1,07,5,2,1.498,-0.354285714,-0.24095241,1,0,0,0.8763,Andesite_rect,1,0.876,1,0,0,0,0,1,,,,,,,,,,,,,
62cd43d66c2dd7ae9ab53ae7,SCN,2024-06-25_09h39.22.557,LearnStrategy,2023.2.3,Win32,59.88023952,6,1,2,0.092380981,0.097142857,1,0,0,0.8476,Obsidian_07,5,07,4,5,0.848,-0.341904733,-0.40190482,1,0,0,1.0596,Obsidian_rect,5,1.06,1,1,0,1,0,1,,,,,,,,,,,,,
62cd43d66c2dd7ae9ab53ae7,SCN,2024-06-25_09h39.22.557,LearnStrategy,2023.2.3,Win32,59.88023952,6,1,3,0.264761963,-0.26,1,0,0,0.6979,Andesite_05,1,05,2,6,0.698,-0.318095224,-0.254285714,1,0,0,1.193,Andesite_rect,1,1.193,1,2,0,2,0,1,,,,,,,,,,,,,
62cd43d66c2dd7ae9ab53ae7,SCN,2024-06-25_09h39.22.557,LearnStrategy,2023.2.3,Win32,59.88023952,6,1,4,-0.1,0.106666652,1,0,0,1.1479,Basalt_02,2,02,4,4,1.148,0.336190534,-0.230476205,1,0,0,0.9261,Gabbro_rect,4,0.926,0,3,0,3,0,1,,,,,,,,,,,,,
62cd43d66c2dd7ae9ab53ae7,SCN,2024-06-25_09h39.22.557,LearnStrategy,2023.2.3,Win32,59.88023952,6,1,5,0.536190534,0.234285714,1,0,0,1.5487,Diorite_08,3,08,5,8,1.549,-0.393333304,-0.258095267,1,0,0,1.3962,Andesite_rect,1,1.396,0,4,0,4,0,1,,,,,,,,,,,,,
62cd43d66c2dd7ae9ab53ae7,SCN,2024-06-25_09h39.22.557,LearnStrategy,2023.2.3,Win32,59.88023952,6,1,6,0.065714286,0.255238081,1,0,0,1.1815,Gabbro_05,4,05,5,5,1.181,0.092380981,-0.254285714,1,0,0,1.8928,Diorite_rect,3,1.893,0,5,0,5,0,1,,,,,,,,,,,,,
62cd43d66c2dd7ae9ab53ae7,SCN,2024-06-25_09h39.22.557,LearnStrategy,2023.2.3,Win32,59.88023952,6,1,7,0.062857143,-0.419047677,1,0,0,3.1486,Basalt_11,2,11,1,5,3.149,-0.094285714,-0.253333391,1,0,0,2.385,Basalt_rect,2,2.385,1,6,0,6,0,1,,,,,,,,,,,,,
62cd43d66c2dd7ae9ab53ae7,SCN,2024-06-25_09h39.22.557,LearnStrategy,2023.2.3,Win32,59.88023952,6,1,8,-0.396190447,-0.242857143,1,0,0,1.3643,Peridotite_10,7,10,2,2,1.364,0.112380981,-0.264761963,1,0,0,2.3427,Diorite_rect,3,2.343,0,7,0,7,0,1,,,,,,,,,,,,,
62cd43d66c2dd7ae9ab53ae7,SCN,2024-06-25_09h39.22.557,LearnStrategy,2023.2.3,Win32,59.88023952,6,1,9,-0.408571429,-0.272380981,1,0,0,1.614,Peridotite_10,7,10,2,2,1.614,0.099047677,-0.395238124,1,0,0,0.9757,Peridotite_rect,7,0.976,1,8,0,8,0,1,,,,,,,,,,,,,
62cd43d66c2dd7ae9ab53ae7,SCN,2024-06-25_09h39.22.557,LearnStrategy,2023.2.3,Win32,59.88023952,6,1,10,-0.516190469,0.12,1,0,0,1.1153,Gabbro_12,4,12,4,1,1.115,0.325714286,-0.229523839,1,0,0,1.3428,Gabbro_rect,4,1.343,1,9,0,9,0,1,,,,,,,,,,,,,
62cd43d66c2dd7ae9ab53ae7,SCN,2024-06-25_09h39.22.557,LearnStrategy,2023.2.3,Win32,59.88023952,6,1,11,-0.4,0.246666652,1,0,0,3.2136,Andesite_07,1,07,5,2,3.214,-0.358095224,-0.26190482,1,0,0,1.3482,Andesite_rect,1,1.348,1,10,0,10,0,1,,,,,,,,,,,,,
62cd43d66c2dd7ae9ab53ae7,SCN,2024-06-25_09h39.22.557,LearnStrategy,2023.2.3,Win32,59.88023952,6,1,12,-0.096190447,0.36761904,1,0,0,1.6161,Pumice_09,8,09,6,4,1.616,0.376190534,-0.38,1,0,0,1.1763,Pumice_rect,8,1.176,1,11,0,11,0,1,,,,,,,,,,,,,
62cd43d66c2dd7ae9ab53ae7,SCN,2024-06-25_09h39.22.557,LearnStrategy,2023.2.3,Win32,59.88023952,6,1,13,0.423809553,0.098095224,1,0,0,1.1151,Diorite_15,3,15,4,7,1.115,0.070476249,-0.394285714,1,0,0,2.5429,Peridotite_rect,7,2.543,0,12,0,12,0,1,,,,,,,,,,,,,
62cd43d66c2dd7ae9ab53ae7,SCN,2024-06-25_09h39.22.557,LearnStrategy,2023.2.3,Win32,59.88023952,6,1,14,0.550476249,-0.102857143,1,0,0,1.2462,Pegmatite_11,6,11,3,8,1.246,-0.13904759,-0.392380981,1,0,0,0.9763,Pegmatite_rect,6,0.976,1,13,0,13,0,1,,,,,,,,,,,,,
62cd43d66c2dd7ae9ab53ae7,SCN,2024-06-25_09h39.22.557,LearnStrategy,2023.2.3,Win32,59.88023952,6,1,15,-0.081904733,-0.114285714,1,0,0,0.8319,Pegmatite_06,6,06,3,4,0.832,-0.172380938,-0.379047677,1,0,0,0.86,Pegmatite_rect,6,0.86,1,14,0,14,0,1,,,,,,,,,,,,,
62cd43d66c2dd7ae9ab53ae7,SCN,2024-06-25_09h39.22.557,LearnStrategy,2023.2.3,Win32,59.88023952,6,1,16,0.08190482,-0.269523839,1,0,0,1.5483,Pegmatite_03,6,03,2,5,1.548,-0.104761876,-0.395238124,1,0,0,0.6591,Pegmatite_rect,6,0.659,1,15,0,15,0,1,,,,,,,,,,,,,
62cd43d66c2dd7ae9ab53ae7,SCN,2024-06-25_09h39.22.557,LearnStrategy,2023.2.3,Win32,59.88023952,6,2,1,,,,,,,,3,13,,,,,,,,,,,3,5.76,1,,,,,,0.133333391,-0.266666696,1,0,0,5.76,Diorite_rect,0,0,0,0,1,
62cd43d66c2dd7ae9ab53ae7,SCN,2024-06-25_09h39.22.557,LearnStrategy,2023.2.3,Win32,59.88023952,6,2,2,,,,,,,,8,13,,,,,,,,,,,8,2.304,1,,,,,,0.34095241,-0.38190482,1,0,0,2.3045,Pumice_rect,1,0,1,0,1,
62cd43d66c2dd7ae9ab53ae7,SCN,2024-06-25_09h39.22.557,LearnStrategy,2023.2.3,Win32,59.88023952,6,2,3,,,,,,,,2,08,,,,,,,,,,,2,4.326,1,,,,,,-0.067619019,-0.243809553,1,0,0,4.3262,Basalt_rect,2,0,2,0,1,
62cd43d66c2dd7ae9ab53ae7,SCN,2024-06-25_09h39.22.557,LearnStrategy,2023.2.3,Win32,59.88023952,6,2,4,,,,,,,,5,05,,,,,,,,,,,3,4.371,0,,,,,,0.114285714,-0.236190534,1,0,0,4.3715,Diorite_rect,3,0,3,0,1,
62cd43d66c2dd7ae9ab53ae7,SCN,2024-06-25_09h39.22.557,LearnStrategy,2023.2.3,Win32,59.88023952,6,2,5,,,,,,,,4,15,,,,,,,,,,,7,5.421,0,,,,,,0.111428571,-0.419047677,1,0,0,5.421,Peridotite_rect,4,0,4,0,1,
62cd43d66c2dd7ae9ab53ae7,SCN,2024-06-25_09h39.22.557,LearnStrategy,2023.2.3,Win32,59.88023952,6,2,6,,,,,,,,6,08,,,,,,,,,,,6,1.172,1,,,,,,-0.092380938,-0.404761963,1,0,0,1.1718,Pegmatite_rect,5,0,5,0,1,
62cd43d66c2dd7ae9ab53ae7,SCN,2024-06-25_09h39.22.557,LearnStrategy,2023.2.3,Win32,59.88023952,6,2,7,,,,,,,,7,05,,,,,,,,,,,6,1.643,0,,,,,,-0.102857143,-0.402857143,1,0,0,1.6426,Pegmatite_rect,6,0,6,0,1,
62cd43d66c2dd7ae9ab53ae7,SCN,2024-06-25_09h39.22.557,LearnStrategy,2023.2.3,Win32,59.88023952,6,2,8,,,,,,,,1,14,,,,,,,,,,,7,5.692,0,,,,,,0.106666696,-0.385714286,1,0,0,5.6922,Peridotite_rect,7,0,7,0,1,
62cd43d66c2dd7ae9ab53ae7,SCN,2024-06-25_09h39.22.557,LearnStrategy,2023.2.3,Win32,59.88023952,6,2,9,,,,,,,,3,14,,,,,,,,,,,3,1.737,1,,,,,,0.12095241,-0.256190534,1,0,0,1.7371,Diorite_rect,8,0,8,0,1,
62cd43d66c2dd7ae9ab53ae7,SCN,2024-06-25_09h39.22.557,LearnStrategy,2023.2.3,Win32,59.88023952,6,2,10,,,,,,,,7,06,,,,,,,,,,,4,3.788,0,,,,,,0.350476249,-0.253333391,1,0,0,3.7879,Gabbro_rect,9,0,9,0,1,
62cd43d66c2dd7ae9ab53ae7,SCN,2024-06-25_09h39.22.557,LearnStrategy,2023.2.3,Win32,59.88023952,6,2,11,,,,,,,,6,12,,,,,,,,,,,7,2.054,0,,,,,,0.117142857,-0.402857143,1,0,0,2.0538,Peridotite_rect,10,0,10,0,1,
62cd43d66c2dd7ae9ab53ae7,SCN,2024-06-25_09h39.22.557,LearnStrategy,2023.2.3,Win32,59.88023952,6,2,12,,,,,,,,5,12,,,,,,,,,,,5,1.36,1,,,,,,-0.334285714,-0.404761963,1,0,0,1.3598,Obsidian_rect,11,0,11,0,1,
62cd43d66c2dd7ae9ab53ae7,SCN,2024-06-25_09h39.22.557,LearnStrategy,2023.2.3,Win32,59.88023952,6,2,13,,,,,,,,2,09,,,,,,,,,,,2,3.827,1,,,,,,-0.123809509,-0.244761963,1,0,0,3.8266,Basalt_rect,12,0,12,0,1,
62cd43d66c2dd7ae9ab53ae7,SCN,2024-06-25_09h39.22.557,LearnStrategy,2023.2.3,Win32,59.88023952,6,2,14,,,,,,,,4,03,,,,,,,,,,,7,6.558,0,,,,,,0.108571429,-0.393333391,1,0,0,6.5576,Peridotite_rect,13,0,13,0,1,
62cd43d66c2dd7ae9ab53ae7,SCN,2024-06-25_09h39.22.557,LearnStrategy,2023.2.3,Win32,59.88023952,6,2,15,,,,,,,,1,03,,,,,,,,,,,3,1.337,0,,,,,,0.058095267,-0.235238124,1,0,0,1.3372,Diorite_rect,14,0,14,0,1,
62cd43d66c2dd7ae9ab53ae7,SCN,2024-06-25_09h39.22.557,LearnStrategy,2023.2.3,Win32,59.88023952,6,2,16,,,,,,,,8,02,,,,,,,,,,,8,1.293,1,,,,,,0.398095267,-0.415238124,1,0,0,1.2931,Pumice_rect,15,0,15,0,1,
62cd43d66c2dd7ae9ab53ae7,SCN,2024-06-25_09h39.22.557,LearnStrategy,2023.2.3,Win32,59.88023952,7,1,1,-0.5,0.101904733,1,0,0,1.6142,Gabbro_12,4,12,4,1,1.614,-0.127619019,-0.231428571,1,0,0,0.926,Basalt_rect,2,0.926,0,0,0,0,0,1,,,,,,,,,,,,,
62cd43d66c2dd7ae9ab53ae7,SCN,2024-06-25_09h39.22.557,LearnStrategy,2023.2.3,Win32,59.88023952,7,1,2,0.059047677,0.078095224,1,0,0,0.9317,Obsidian_07,5,07,4,5,0.932,-0.332380938,-0.4,1,0,0,1.043,Obsidian_rect,5,1.043,1,1,0,1,0,1,,,,,,,,,,,,,
62cd43d66c2dd7ae9ab53ae7,SCN,2024-06-25_09h39.22.557,LearnStrategy,2023.2.3,Win32,59.88023952,7,1,3,0.204761963,-0.257142857,1,0,0,1.148,Andesite_05,1,05,2,6,1.148,-0.316190447,-0.237142857,1,0,0,1.6931,Andesite_rect,1,1.693,1,2,0,2,0,1,,,,,,,,,,,,,
62cd43d66c2dd7ae9ab53ae7,SCN,2024-06-25_09h39.22.557,LearnStrategy,2023.2.3,Win32,59.88023952,7,1,4,-0.243809509,-0.254285714,1,0,0,1.848,Pumice_06,8,06,2,3,1.848,0.354285714,-0.407619106,1,0,0,1.576,Pumice_rect,8,1.576,1,3,0,3,0,1,,,,,,,,,,,,,
62cd43d66c2dd7ae9ab53ae7,SCN,2024-06-25_09h39.22.557,LearnStrategy,2023.2.3,Win32,59.88023952,7,1,5,0.376190534,-0.302857143,1,0,0,1.2316,Pegmatite_10,6,10,2,7,1.232,-0.126666652,-0.405714286,1,0,0,3.1424,Pegmatite_rect,6,3.142,1,4,0,4,0,1,,,,,,,,,,,,,
62cd43d66c2dd7ae9ab53ae7,SCN,2024-06-25_09h39.22.557,LearnStrategy,2023.2.3,Win32,59.88023952,7,1,6,0.547619106,0.246666652,1,0,0,1.6968,Diorite_08,3,08,5,8,1.697,0.179047677,-0.24095241,1,0,0,1.3923,Diorite_rect,3,1.392,1,5,0,5,0,1,,,,,,,,,,,,,
62cd43d66c2dd7ae9ab53ae7,SCN,2024-06-25_09h39.22.557,LearnStrategy,2023.2.3,Win32,59.88023952,7,1,7,0.52,0.397142857,1,0,0,1.0989,Peridotite_08,7,08,6,8,1.099,0.134285714,-0.414285714,1,0,0,1.6242,Peridotite_rect,7,1.624,1,6,0,6,0,1,,,,,,,,,,,,,
62cd43d66c2dd7ae9ab53ae7,SCN,2024-06-25_09h39.22.557,LearnStrategy,2023.2.3,Win32,59.88023952,7,1,8,-0.232380938,0.257142857,1,0,0,1.3984,Gabbro_11,4,11,5,3,1.398,0.343809553,-0.236190534,1,0,0,1.9092,Gabbro_rect,4,1.909,1,7,0,7,0,1,,,,,,,,,,,,,
62cd43d66c2dd7ae9ab53ae7,SCN,2024-06-25_09h39.22.557,LearnStrategy,2023.2.3,Win32,59.88023952,7,1,9,-0.532380938,0.116190447,1,0,0,1.4306,Gabbro_12,4,12,4,1,1.431,-0.148571429,-0.244761963,1,0,0,1.0759,Basalt_rect,2,1.076,0,8,0,8,0,1,,,,,,,,,,,,,
62cd43d66c2dd7ae9ab53ae7,SCN,2024-06-25_09h39.22.557,LearnStrategy,2023.2.3,Win32,59.88023952,7,1,10,0.532380981,-0.274285714,1,0,0,2.5979,Peridotite_15,7,15,2,8,2.598,0.170476249,-0.403809553,1,0,0,2.0927,Peridotite_rect,7,2.093,1,9,0,9,0,1,,,,,,,,,,,,,
62cd43d66c2dd7ae9ab53ae7,SCN,2024-06-25_09h39.22.557,LearnStrategy,2023.2.3,Win32,59.88023952,7,1,11,0.563809553,-0.426666696,1,0,0,0.8977,Gabbro_13,4,13,1,8,0.898,0.110476249,-0.230476205,1,0,0,1.3105,Diorite_rect,3,1.311,0,10,0,10,0,1,,,,,,,,,,,,,
62cd43d66c2dd7ae9ab53ae7,SCN,2024-06-25_09h39.22.557,LearnStrategy,2023.2.3,Win32,59.88023952,7,1,12,0.075238124,-0.426666696,1,0,0,1.265,Basalt_11,2,11,1,5,1.265,-0.114285714,-0.408571429,1,0,0,1.8596,Pegmatite_rect,6,1.86,0,11,0,11,0,1,,,,,,,,,,,,,
62cd43d66c2dd7ae9ab53ae7,SCN,2024-06-25_09h39.22.557,LearnStrategy,2023.2.3,Win32,59.88023952,7,1,13,0.226666696,-0.10095241,1,0,0,1.0983,Pumice_03,8,03,3,6,1.098,0.356190534,-0.407619106,1,0,0,2.1597,Pumice_rect,8,2.16,1,12,0,12,0,1,,,,,,,,,,,,,
62cd43d66c2dd7ae9ab53ae7,SCN,2024-06-25_09h39.22.557,LearnStrategy,2023.2.3,Win32,59.88023952,7,1,14,0.532380981,0.251428571,1,0,0,2.2142,Diorite_08,3,08,5,8,2.214,0.149523839,-0.264761963,1,0,0,1.0928,Diorite_rect,3,1.093,1,13,0,13,0,1,,,,,,,,,,,,,
62cd43d66c2dd7ae9ab53ae7,SCN,2024-06-25_09h39.22.557,LearnStrategy,2023.2.3,Win32,59.88023952,7,1,15,-0.229523795,0.120952366,1,0,0,1.2992,Pegmatite_07,6,07,4,3,1.299,-0.143809509,-0.40095241,1,0,0,1.0428,Pegmatite_rect,6,1.043,1,14,0,14,0,1,,,,,,,,,,,,,
62cd43d66c2dd7ae9ab53ae7,SCN,2024-06-25_09h39.22.557,LearnStrategy,2023.2.3,Win32,59.88023952,7,1,16,-0.553333326,-0.117142857,1,0,0,1.9648,Diorite_11,3,11,3,1,1.965,0.108571429,-0.397142857,1,0,0,2.1763,Peridotite_rect,7,2.176,0,15,0,15,0,1,,,,,,,,,,,,,
62cd43d66c2dd7ae9ab53ae7,SCN,2024-06-25_09h39.22.557,LearnStrategy,2023.2.3,Win32,59.88023952,7,2,1,,,,,,,,4,01,,,,,,,,,,,3,6.942,0,,,,,,0.119047677,-0.24095241,1,0,0,6.9424,Diorite_rect,0,0,0,0,1,
62cd43d66c2dd7ae9ab53ae7,SCN,2024-06-25_09h39.22.557,LearnStrategy,2023.2.3,Win32,59.88023952,7,2,2,,,,,,,,8,14,,,,,,,,,,,8,1.322,1,,,,,,0.34,-0.409523839,1,0,0,1.3215,Pumice_rect,1,0,1,0,1,
62cd43d66c2dd7ae9ab53ae7,SCN,2024-06-25_09h39.22.557,LearnStrategy,2023.2.3,Win32,59.88023952,7,2,3,,,,,,,,1,14,,,,,,,,,,,6,4.526,0,,,,,,-0.148571429,-0.392380981,1,0,0,4.5265,Pegmatite_rect,2,0,2,0,1,
62cd43d66c2dd7ae9ab53ae7,SCN,2024-06-25_09h39.22.557,LearnStrategy,2023.2.3,Win32,59.88023952,7,2,4,,,,,,,,5,12,,,,,,,,,,,5,1.138,1,,,,,,-0.326666652,-0.408571429,1,0,0,1.1377,Obsidian_rect,3,0,3,0,1,
62cd43d66c2dd7ae9ab53ae7,SCN,2024-06-25_09h39.22.557,LearnStrategy,2023.2.3,Win32,59.88023952,7,2,5,,,,,,,,2,10,,,,,,,,,,,4,2.527,0,,,,,,0.394285714,-0.26095241,1,0,0,2.5267,Gabbro_rect,4,0,4,0,1,
62cd43d66c2dd7ae9ab53ae7,SCN,2024-06-25_09h39.22.557,LearnStrategy,2023.2.3,Win32,59.88023952,7,2,6,,,,,,,,6,16,,,,,,,,,,,6,1.41,1,,,,,,-0.12,-0.382857143,1,0,0,1.4098,Pegmatite_rect,5,0,5,0,1,
62cd43d66c2dd7ae9ab53ae7,SCN,2024-06-25_09h39.22.557,LearnStrategy,2023.2.3,Win32,59.88023952,7,2,7,,,,,,,,5,05,,,,,,,,,,,1,4.992,0,,,,,,-0.387619019,-0.26095241,1,0,0,4.9923,Andesite_rect,6,0,6,0,1,
62cd43d66c2dd7ae9ab53ae7,SCN,2024-06-25_09h39.22.557,LearnStrategy,2023.2.3,Win32,59.88023952,7,2,8,,,,,,,,1,10,,,,,,,,,,,2,5.103,0,,,,,,-0.127619019,-0.237142857,1,0,0,5.1032,Basalt_rect,7,0,7,0,1,
62cd43d66c2dd7ae9ab53ae7,SCN,2024-06-25_09h39.22.557,LearnStrategy,2023.2.3,Win32,59.88023952,7,2,9,,,,,,,,2,05,,,,,,,,,,,2,1.254,1,,,,,,-0.120952366,-0.26190482,1,0,0,1.2543,Basalt_rect,8,0,8,0,1,
62cd43d66c2dd7ae9ab53ae7,SCN,2024-06-25_09h39.22.557,LearnStrategy,2023.2.3,Win32,59.88023952,7,2,10,,,,,,,,3,06,,,,,,,,,,,3,1.442,1,,,,,,0.06190482,-0.257142857,1,0,0,1.4418,Diorite_rect,9,0,9,0,1,
62cd43d66c2dd7ae9ab53ae7,SCN,2024-06-25_09h39.22.557,LearnStrategy,2023.2.3,Win32,59.88023952,7,2,11,,,,,,,,7,06,,,,,,,,,,,7,5.693,1,,,,,,0.056190534,-0.391428571,1,0,0,5.6933,Peridotite_rect,10,0,10,0,1,
62cd43d66c2dd7ae9ab53ae7,SCN,2024-06-25_09h39.22.557,LearnStrategy,2023.2.3,Win32,59.88023952,7,2,12,,,,,,,,6,08,,,,,,,,,,,6,1.122,1,,,,,,-0.148571429,-0.397142857,1,0,0,1.1216,Pegmatite_rect,11,0,11,0,1,
62cd43d66c2dd7ae9ab53ae7,SCN,2024-06-25_09h39.22.557,LearnStrategy,2023.2.3,Win32,59.88023952,7,2,13,,,,,,,,7,12,,,,,,,,,,,1,4.393,0,,,,,,-0.395238081,-0.238095267,1,0,0,4.3929,Andesite_rect,12,0,12,0,1,
62cd43d66c2dd7ae9ab53ae7,SCN,2024-06-25_09h39.22.557,LearnStrategy,2023.2.3,Win32,59.88023952,7,2,14,,,,,,,,8,04,,,,,,,,,,,8,1.471,1,,,,,,0.368571429,-0.387619106,1,0,0,1.4713,Pumice_rect,13,0,13,0,1,
62cd43d66c2dd7ae9ab53ae7,SCN,2024-06-25_09h39.22.557,LearnStrategy,2023.2.3,Win32,59.88023952,7,2,15,,,,,,,,4,08,,,,,,,,,,,7,3.226,0,,,,,,0.130476249,-0.410476249,1,0,0,3.2262,Peridotite_rect,14,0,14,0,1,
62cd43d66c2dd7ae9ab53ae7,SCN,2024-06-25_09h39.22.557,LearnStrategy,2023.2.3,Win32,59.88023952,7,2,16,,,,,,,,3,10,,,,,,,,,,,3,5.188,1,,,,,,0.058095267,-0.242857143,1,0,0,5.1882,Diorite_rect,15,0,15,0,1,
62cd43d66c2dd7ae9ab53ae7,SCN,2024-06-25_09h39.22.557,LearnStrategy,2023.2.3,Win32,59.88023952,8,1,1,-0.514285714,0.238095224,1,0,0,0.8483,Andesite_04,1,04,5,1,0.848,0.105714286,-0.258095267,1,0,0,1.276,Diorite_rect,3,1.276,0,0,0,0,0,1,,,,,,,,,,,,,
62cd43d66c2dd7ae9ab53ae7,SCN,2024-06-25_09h39.22.557,LearnStrategy,2023.2.3,Win32,59.88023952,8,1,2,-0.072380938,0.108571429,1,0,0,1.1986,Basalt_02,2,02,4,4,1.199,0.371428571,-0.243809553,1,0,0,1.4068,Gabbro_rect,4,1.407,0,1,0,1,0,1,,,,,,,,,,,,,
62cd43d66c2dd7ae9ab53ae7,SCN,2024-06-25_09h39.22.557,LearnStrategy,2023.2.3,Win32,59.88023952,8,1,3,0.376190534,0.123809509,1,0,0,1.1482,Diorite_15,3,15,4,7,1.148,-0.326666652,-0.254285714,1,0,0,1.9593,Andesite_rect,1,1.959,0,2,0,2,0,1,,,,,,,,,,,,,
62cd43d66c2dd7ae9ab53ae7,SCN,2024-06-25_09h39.22.557,LearnStrategy,2023.2.3,Win32,59.88023952,8,1,4,0.393333391,0.248571429,1,0,0,1.5646,Diorite_12,3,12,5,7,1.565,0.124761963,-0.256190534,1,0,0,1.2264,Diorite_rect,3,1.226,1,3,0,3,0,1,,,,,,,,,,,,,
62cd43d66c2dd7ae9ab53ae7,SCN,2024-06-25_09h39.22.557,LearnStrategy,2023.2.3,Win32,59.88023952,8,1,5,0.053333391,-0.127619062,1,0,0,0.7991,Andesite_16,1,16,3,5,0.799,0.109523839,-0.391428571,1,0,0,2.0431,Peridotite_rect,7,2.043,0,4,0,4,0,1,,,,,,,,,,,,,
62cd43d66c2dd7ae9ab53ae7,SCN,2024-06-25_09h39.22.557,LearnStrategy,2023.2.3,Win32,59.88023952,8,1,6,0.219047677,-0.422857143,1,0,0,1.3977,Obsidian_04,5,04,1,6,1.398,-0.402857143,-0.382857143,1,0,0,1.1264,Obsidian_rect,5,1.126,1,5,0,5,0,1,,,,,,,,,,,,,
62cd43d66c2dd7ae9ab53ae7,SCN,2024-06-25_09h39.22.557,LearnStrategy,2023.2.3,Win32,59.88023952,8,1,7,-0.214285714,-0.412380981,1,0,0,0.931,Peridotite_07,7,07,1,3,0.931,-0.411428571,-0.24,1,0,0,1.6928,Andesite_rect,1,1.693,0,6,0,6,0,1,,,,,,,,,,,,,
62cd43d66c2dd7ae9ab53ae7,SCN,2024-06-25_09h39.22.557,LearnStrategy,2023.2.3,Win32,59.88023952,8,1,8,-0.389523795,-0.402857143,1,0,0,1.2308,Gabbro_14,4,14,1,2,1.231,0.067619106,-0.256190534,1,0,0,3.7932,Diorite_rect,3,3.793,0,7,0,7,0,1,,,,,,,,,,,,,
62cd43d66c2dd7ae9ab53ae7,SCN,2024-06-25_09h39.22.557,LearnStrategy,2023.2.3,Win32,59.88023952,8,1,9,-0.410476161,-0.244761963,1,0,0,1.6968,Peridotite_10,7,10,2,2,1.697,0.098095267,-0.415238124,1,0,0,2.9426,Peridotite_rect,7,2.943,1,8,0,8,0,1,,,,,,,,,,,,,
62cd43d66c2dd7ae9ab53ae7,SCN,2024-06-25_09h39.22.557,LearnStrategy,2023.2.3,Win32,59.88023952,8,1,10,0.231428571,-0.098095267,1,0,0,1.1478,Pumice_03,8,03,3,6,1.148,0.333333391,-0.383809553,1,0,0,1.1256,Pumice_rect,8,1.126,1,9,0,9,0,1,,,,,,,,,,,,,
62cd43d66c2dd7ae9ab53ae7,SCN,2024-06-25_09h39.22.557,LearnStrategy,2023.2.3,Win32,59.88023952,8,1,11,-0.225714286,0.1,1,0,0,1.2644,Pegmatite_07,6,07,4,3,1.264,-0.175238081,-0.403809553,1,0,0,1.4596,Pegmatite_rect,6,1.46,1,10,0,10,0,1,,,,,,,,,,,,,
62cd43d66c2dd7ae9ab53ae7,SCN,2024-06-25_09h39.22.557,LearnStrategy,2023.2.3,Win32,59.88023952,8,1,12,0.110476249,0.226666652,1,0,0,1.6145,Gabbro_05,4,05,5,5,1.615,0.147619106,-0.40190482,1,0,0,3.1426,Peridotite_rect,7,3.143,0,11,0,11,0,1,,,,,,,,,,,,,
62cd43d66c2dd7ae9ab53ae7,SCN,2024-06-25_09h39.22.557,LearnStrategy,2023.2.3,Win32,59.88023952,8,1,13,0.538095267,-0.250476249,1,0,0,1.9478,Peridotite_15,7,15,2,8,1.948,0.42190482,-0.24190482,1,0,0,1.2929,Gabbro_rect,4,1.293,0,12,0,12,0,1,,,,,,,,,,,,,
62cd43d66c2dd7ae9ab53ae7,SCN,2024-06-25_09h39.22.557,LearnStrategy,2023.2.3,Win32,59.88023952,8,1,14,0.511428571,-0.430476249,1,0,0,2.198,Gabbro_13,4,13,1,8,2.198,0.122857143,-0.252380981,1,0,0,2.2256,Diorite_rect,3,2.226,0,13,0,13,0,1,,,,,,,,,,,,,
62cd43d66c2dd7ae9ab53ae7,SCN,2024-06-25_09h39.22.557,LearnStrategy,2023.2.3,Win32,59.88023952,8,1,15,-0.534285714,-0.264761963,1,0,0,2.5638,Andesite_06,1,06,2,1,2.564,-0.362857143,-0.239047677,1,0,0,2.1926,Andesite_rect,1,2.193,1,14,0,14,0,1,,,,,,,,,,,,,
62cd43d66c2dd7ae9ab53ae7,SCN,2024-06-25_09h39.22.557,LearnStrategy,2023.2.3,Win32,59.88023952,8,1,16,-0.518095224,0.123809509,1,0,0,1.3312,Gabbro_12,4,12,4,1,1.331,0.369523839,-0.264761963,1,0,0,1.3593,Gabbro_rect,4,1.359,1,15,0,15,0,1,,,,,,,,,,,,,
62cd43d66c2dd7ae9ab53ae7,SCN,2024-06-25_09h39.22.557,LearnStrategy,2023.2.3,Win32,59.88023952,8,2,1,,,,,,,,2,08,,,,,,,,,,,2,2.726,1,,,,,,-0.111428571,-0.245714286,1,0,0,2.7263,Basalt_rect,0,0,0,0,1,
62cd43d66c2dd7ae9ab53ae7,SCN,2024-06-25_09h39.22.557,LearnStrategy,2023.2.3,Win32,59.88023952,8,2,2,,,,,,,,6,05,,,,,,,,,,,6,3.746,1,,,,,,-0.125714286,-0.393333391,1,0,0,3.7463,Pegmatite_rect,1,0,1,0,1,
62cd43d66c2dd7ae9ab53ae7,SCN,2024-06-25_09h39.22.557,LearnStrategy,2023.2.3,Win32,59.88023952,8,2,3,,,,,,,,5,02,,,,,,,,,,,5,1.038,1,,,,,,-0.347619019,-0.402857143,1,0,0,1.0379,Obsidian_rect,2,0,2,0,1,
62cd43d66c2dd7ae9ab53ae7,SCN,2024-06-25_09h39.22.557,LearnStrategy,2023.2.3,Win32,59.88023952,8,2,4,,,,,,,,4,16,,,,,,,,,,,4,3.893,1,,,,,,0.389523839,-0.239047677,1,0,0,3.8933,Gabbro_rect,3,0,3,0,1,
62cd43d66c2dd7ae9ab53ae7,SCN,2024-06-25_09h39.22.557,LearnStrategy,2023.2.3,Win32,59.88023952,8,2,5,,,,,,,,7,16,,,,,,,,,,,7,6.121,1,,,,,,0.059047677,-0.398095267,1,0,0,6.1214,Peridotite_rect,4,0,4,0,1,
62cd43d66c2dd7ae9ab53ae7,SCN,2024-06-25_09h39.22.557,LearnStrategy,2023.2.3,Win32,59.88023952,8,2,6,,,,,,,,8,15,,,,,,,,,,,8,1.254,1,,,,,,0.345714286,-0.378095267,1,0,0,1.2543,Pumice_rect,5,0,5,0,1,
62cd43d66c2dd7ae9ab53ae7,SCN,2024-06-25_09h39.22.557,LearnStrategy,2023.2.3,Win32,59.88023952,8,2,7,,,,,,,,4,15,,,,,,,,,,,7,7.775,0,,,,,,0.076190534,-0.392380981,1,0,0,7.7755,Peridotite_rect,6,0,6,0,1,
62cd43d66c2dd7ae9ab53ae7,SCN,2024-06-25_09h39.22.557,LearnStrategy,2023.2.3,Win32,59.88023952,8,2,8,,,,,,,,5,10,,,,,,,,,,,5,1.371,1,,,,,,-0.400952366,-0.388571429,1,0,0,1.3708,Obsidian_rect,7,0,7,0,1,
62cd43d66c2dd7ae9ab53ae7,SCN,2024-06-25_09h39.22.557,LearnStrategy,2023.2.3,Win32,59.88023952,8,2,9,,,,,,,,1,01,,,,,,,,,,,1,1.477,1,,,,,,-0.39904759,-0.235238124,1,0,0,1.4767,Andesite_rect,8,0,8,0,1,
62cd43d66c2dd7ae9ab53ae7,SCN,2024-06-25_09h39.22.557,LearnStrategy,2023.2.3,Win32,59.88023952,8,2,10,,,,,,,,2,01,,,,,,,,,,,2,1.193,1,,,,,,-0.164761876,-0.270476249,1,0,0,1.1933,Basalt_rect,9,0,9,0,1,
62cd43d66c2dd7ae9ab53ae7,SCN,2024-06-25_09h39.22.557,LearnStrategy,2023.2.3,Win32,59.88023952,8,2,11,,,,,,,,7,02,,,,,,,,,,,7,2.06,1,,,,,,0.10095241,-0.40190482,1,0,0,2.0596,Peridotite_rect,10,0,10,0,1,
62cd43d66c2dd7ae9ab53ae7,SCN,2024-06-25_09h39.22.557,LearnStrategy,2023.2.3,Win32,59.88023952,8,2,12,,,,,,,,3,13,,,,,,,,,,,3,3.521,1,,,,,,0.087619106,-0.26095241,1,0,0,3.521,Diorite_rect,11,0,11,0,1,
62cd43d66c2dd7ae9ab53ae7,SCN,2024-06-25_09h39.22.557,LearnStrategy,2023.2.3,Win32,59.88023952,8,2,13,,,,,,,,1,03,,,,,,,,,,,3,2.005,0,,,,,,0.087619106,-0.26095241,1,0,0,2.0051,Diorite_rect,12,0,12,0,1,
62cd43d66c2dd7ae9ab53ae7,SCN,2024-06-25_09h39.22.557,LearnStrategy,2023.2.3,Win32,59.88023952,8,2,14,,,,,,,,6,09,,,,,,,,,,,6,1.527,1,,,,,,-0.145714286,-0.417142857,1,0,0,1.5267,Pegmatite_rect,13,0,13,0,1,
62cd43d66c2dd7ae9ab53ae7,SCN,2024-06-25_09h39.22.557,LearnStrategy,2023.2.3,Win32,59.88023952,8,2,15,,,,,,,,8,10,,,,,,,,,,,8,1.227,1,,,,,,0.398095267,-0.403809553,1,0,0,1.2268,Pumice_rect,14,0,14,0,1,
62cd43d66c2dd7ae9ab53ae7,SCN,2024-06-25_09h39.22.557,LearnStrategy,2023.2.3,Win32,59.88023952,8,2,16,,,,,,,,3,09,,,,,,,,,,,1,3.877,0,,,,,,-0.386666652,-0.247619106,1,0,0,3.8767,Andesite_rect,15,0,15,0,1,
62cd43d66c2dd7ae9ab53ae7,SCN,2024-06-25_09h39.22.557,LearnStrategy,2023.2.3,Win32,59.88023952,9,1,1,0.070476249,0.09904759,1,0,0,0.8479,Obsidian_07,5,07,4,5,0.848,-0.371428571,-0.399047677,1,0,0,0.937,Obsidian_rect,5,0.937,1,0,0,0,0,1,,,,,,,,,,,,,
62cd43d66c2dd7ae9ab53ae7,SCN,2024-06-25_09h39.22.557,LearnStrategy,2023.2.3,Win32,59.88023952,9,1,2,-0.571428571,-0.424761963,1,0,0,0.8489,Obsidian_14,5,14,1,1,0.849,-0.340952366,-0.38,1,0,0,1.1428,Obsidian_rect,5,1.143,1,1,0,1,0,1,,,,,,,,,,,,,
62cd43d66c2dd7ae9ab53ae7,SCN,2024-06-25_09h39.22.557,LearnStrategy,2023.2.3,Win32,59.88023952,9,1,3,-0.393333304,-0.418095267,1,0,0,0.9988,Gabbro_14,4,14,1,2,0.999,-0.317142857,-0.26095241,1,0,0,1.5434,Andesite_rect,1,1.543,0,2,0,2,0,1,,,,,,,,,,,,,
62cd43d66c2dd7ae9ab53ae7,SCN,2024-06-25_09h39.22.557,LearnStrategy,2023.2.3,Win32,59.88023952,9,1,4,-0.216190447,-0.417142857,1,0,0,0.866,Peridotite_07,7,07,1,3,0.866,0.107619106,-0.246666696,1,0,0,1.0913,Diorite_rect,3,1.091,0,3,0,3,0,1,,,,,,,,,,,,,
62cd43d66c2dd7ae9ab53ae7,SCN,2024-06-25_09h39.22.557,LearnStrategy,2023.2.3,Win32,59.88023952,9,1,5,0.076190534,-0.391428571,1,0,0,0.765,Basalt_11,2,11,1,5,0.765,0.088571429,-0.378095267,1,0,0,0.8763,Peridotite_rect,7,0.876,0,4,0,4,0,1,,,,,,,,,,,,,
62cd43d66c2dd7ae9ab53ae7,SCN,2024-06-25_09h39.22.557,LearnStrategy,2023.2.3,Win32,59.88023952,9,1,6,0.413333391,0.088571429,1,0,0,0.8654,Diorite_15,3,15,4,7,0.865,0.12095241,-0.26095241,1,0,0,0.9926,Diorite_rect,3,0.993,1,5,0,5,0,1,,,,,,,,,,,,,
62cd43d66c2dd7ae9ab53ae7,SCN,2024-06-25_09h39.22.557,LearnStrategy,2023.2.3,Win32,59.88023952,9,1,7,0.542857143,0.22761904,1,0,0,2.2323,Diorite_08,3,08,5,8,2.232,0.089523839,-0.238095267,1,0,0,1.6423,Diorite_rect,3,1.642,1,6,0,6,0,1,,,,,,,,,,,,,
62cd43d66c2dd7ae9ab53ae7,SCN,2024-06-25_09h39.22.557,LearnStrategy,2023.2.3,Win32,59.88023952,9,1,8,-0.256190447,0.253333326,1,0,0,1.7651,Gabbro_11,4,11,5,3,1.765,0.339047677,-0.253333391,1,0,0,1.5595,Gabbro_rect,4,1.559,1,7,0,7,0,1,,,,,,,,,,,,,
62cd43d66c2dd7ae9ab53ae7,SCN,2024-06-25_09h39.22.557,LearnStrategy,2023.2.3,Win32,59.88023952,9,1,9,-0.250476161,0.392380949,1,0,0,1.4987,Pumice_08,8,08,6,3,1.499,0.327619106,-0.408571429,1,0,0,1.2259,Pumice_rect,8,1.226,1,8,0,8,0,1,,,,,,,,,,,,,
62cd43d66c2dd7ae9ab53ae7,SCN,2024-06-25_09h39.22.557,LearnStrategy,2023.2.3,Win32,59.88023952,9,1,10,0.074285714,0.392380949,1,0,0,1.7312,Peridotite_04,7,04,6,5,1.731,-0.335238081,-0.243809553,1,0,0,1.8092,Andesite_rect,1,1.809,0,9,0,9,0,1,,,,,,,,,,,,,
62cd43d66c2dd7ae9ab53ae7,SCN,2024-06-25_09h39.22.557,LearnStrategy,2023.2.3,Win32,59.88023952,9,1,11,0.390476249,0.401904755,1,0,0,2.5802,Basalt_16,2,16,6,7,2.58,-0.08,-0.26190482,1,0,0,1.2762,Basalt_rect,2,1.276,1,10,0,10,0,1,,,,,,,,,,,,,
62cd43d66c2dd7ae9ab53ae7,SCN,2024-06-25_09h39.22.557,LearnStrategy,2023.2.3,Win32,59.88023952,9,1,12,0.386666696,0.069523795,1,0,0,1.5986,Diorite_15,3,15,4,7,1.599,0.109523839,-0.4,1,0,0,2.9588,Peridotite_rect,7,2.959,0,11,0,11,0,1,,,,,,,,,,,,,
62cd43d66c2dd7ae9ab53ae7,SCN,2024-06-25_09h39.22.557,LearnStrategy,2023.2.3,Win32,59.88023952,9,1,13,-0.100952366,0.076190447,1,0,0,3.3289,Basalt_02,2,02,4,4,3.329,0.30190482,-0.254285714,1,0,0,1.4192,Gabbro_rect,4,1.419,0,12,0,12,0,1,,,,,,,,,,,,,
62cd43d66c2dd7ae9ab53ae7,SCN,2024-06-25_09h39.22.557,LearnStrategy,2023.2.3,Win32,59.88023952,9,1,14,0.255238124,-0.247619106,1,0,0,1.1664,Andesite_05,1,05,2,6,1.166,-0.382857143,-0.244761963,1,0,0,2.0927,Andesite_rect,1,2.093,1,13,0,13,0,1,,,,,,,,,,,,,
62cd43d66c2dd7ae9ab53ae7,SCN,2024-06-25_09h39.22.557,LearnStrategy,2023.2.3,Win32,59.88023952,9,1,15,-0.377142857,0.249523795,1,0,0,1.4306,Andesite_07,1,07,5,2,1.431,-0.355238081,-0.243809553,1,0,0,3.2919,Andesite_rect,1,3.292,1,14,0,14,0,1,,,,,,,,,,,,,
62cd43d66c2dd7ae9ab53ae7,SCN,2024-06-25_09h39.22.557,LearnStrategy,2023.2.3,Win32,59.88023952,9,1,16,0.084761963,-0.113333348,1,0,0,1.4643,Andesite_16,1,16,3,5,1.464,0.074285714,-0.40095241,1,0,0,2.0095,Peridotite_rect,7,2.01,0,15,0,15,0,1,,,,,,,,,,,,,
62cd43d66c2dd7ae9ab53ae7,SCN,2024-06-25_09h39.22.557,LearnStrategy,2023.2.3,Win32,59.88023952,9,2,1,,,,,,,,5,08,,,,,,,,,,,5,1.527,1,,,,,,-0.387619019,-0.411428571,1,0,0,1.5274,Obsidian_rect,0,0,0,0,1,
62cd43d66c2dd7ae9ab53ae7,SCN,2024-06-25_09h39.22.557,LearnStrategy,2023.2.3,Win32,59.88023952,9,2,2,,,,,,,,6,12,,,,,,,,,,,7,6.26,0,,,,,,0.113333391,-0.409523839,1,0,0,6.2596,Peridotite_rect,1,0,1,0,1,
62cd43d66c2dd7ae9ab53ae7,SCN,2024-06-25_09h39.22.557,LearnStrategy,2023.2.3,Win32,59.88023952,9,2,3,,,,,,,,5,11,,,,,,,,,,,5,1.305,1,,,,,,-0.42,-0.38095241,1,0,0,1.3048,Obsidian_rect,2,0,2,0,1,
62cd43d66c2dd7ae9ab53ae7,SCN,2024-06-25_09h39.22.557,LearnStrategy,2023.2.3,Win32,59.88023952,9,2,4,,,,,,,,4,03,,,,,,,,,,,3,5.027,0,,,,,,0.16,-0.24095241,1,0,0,5.0269,Diorite_rect,3,0,3,0,1,
62cd43d66c2dd7ae9ab53ae7,SCN,2024-06-25_09h39.22.557,LearnStrategy,2023.2.3,Win32,59.88023952,9,2,5,,,,,,,,1,11,,,,,,,,,,,1,5.937,1,,,,,,-0.412380938,-0.244761963,1,0,0,5.9369,Andesite_rect,4,0,4,0,1,
62cd43d66c2dd7ae9ab53ae7,SCN,2024-06-25_09h39.22.557,LearnStrategy,2023.2.3,Win32,59.88023952,9,2,6,,,,,,,,3,14,,,,,,,,,,,3,1.471,1,,,,,,0.119047677,-0.24190482,1,0,0,1.4711,Diorite_rect,5,0,5,0,1,
62cd43d66c2dd7ae9ab53ae7,SCN,2024-06-25_09h39.22.557,LearnStrategy,2023.2.3,Win32,59.88023952,9,2,7,,,,,,,,2,09,,,,,,,,,,,2,1.998,1,,,,,,-0.133333304,-0.248571429,1,0,0,1.9977,Basalt_rect,6,0,6,0,1,
62cd43d66c2dd7ae9ab53ae7,SCN,2024-06-25_09h39.22.557,LearnStrategy,2023.2.3,Win32,59.88023952,9,2,8,,,,,,,,2,14,,,,,,,,,,,4,3.309,0,,,,,,0.34190482,-0.268571429,1,0,0,3.3088,Gabbro_rect,7,0,7,0,1,
62cd43d66c2dd7ae9ab53ae7,SCN,2024-06-25_09h39.22.557,LearnStrategy,2023.2.3,Win32,59.88023952,9,2,9,,,,,,,,1,09,,,,,,,,,,,3,4.021,0,,,,,,0.06,-0.256190534,1,0,0,4.0213,Diorite_rect,8,0,8,0,1,
62cd43d66c2dd7ae9ab53ae7,SCN,2024-06-25_09h39.22.557,LearnStrategy,2023.2.3,Win32,59.88023952,9,2,10,,,,,,,,6,13,,,,,,,,,,,6,2.355,1,,,,,,-0.141904733,-0.414285714,1,0,0,2.3553,Pegmatite_rect,9,0,9,0,1,
62cd43d66c2dd7ae9ab53ae7,SCN,2024-06-25_09h39.22.557,LearnStrategy,2023.2.3,Win32,59.88023952,9,2,11,,,,,,,,8,02,,,,,,,,,,,8,1.243,1,,,,,,0.353333391,-0.386666696,1,0,0,1.2431,Pumice_rect,10,0,10,0,1,
62cd43d66c2dd7ae9ab53ae7,SCN,2024-06-25_09h39.22.557,LearnStrategy,2023.2.3,Win32,59.88023952,9,2,12,,,,,,,,4,09,,,,,,,,,,,2,2.943,0,,,,,,-0.088571429,-0.253333391,1,0,0,2.9429,Basalt_rect,11,0,11,0,1,
62cd43d66c2dd7ae9ab53ae7,SCN,2024-06-25_09h39.22.557,LearnStrategy,2023.2.3,Win32,59.88023952,9,2,13,,,,,,,,8,13,,,,,,,,,,,8,1.371,1,,,,,,0.387619106,-0.397142857,1,0,0,1.3706,Pumice_rect,12,0,12,0,1,
62cd43d66c2dd7ae9ab53ae7,SCN,2024-06-25_09h39.22.557,LearnStrategy,2023.2.3,Win32,59.88023952,9,2,14,,,,,,,,3,16,,,,,,,,,,,3,2.493,1,,,,,,0.08190482,-0.259047677,1,0,0,2.4935,Diorite_rect,13,0,13,0,1,
62cd43d66c2dd7ae9ab53ae7,SCN,2024-06-25_09h39.22.557,LearnStrategy,2023.2.3,Win32,59.88023952,9,2,15,,,,,,,,7,05,,,,,,,,,,,7,4.726,1,,,,,,0.109523839,-0.40095241,1,0,0,4.7264,Peridotite_rect,14,0,14,0,1,
62cd43d66c2dd7ae9ab53ae7,SCN,2024-06-25_09h39.22.557,LearnStrategy,2023.2.3,Win32,59.88023952,9,2,16,,,,,,,,7,13,,,,,,,,,,,7,2.536,1,,,,,,0.109523839,-0.40095241,1,0,0,2.5361,Peridotite_rect,15,0,15,0,1,
62cd43d66c2dd7ae9ab53ae7,SCN,2024-06-25_09h39.22.557,LearnStrategy,2023.2.3,Win32,59.88023952,,,,,,,,,,,,,,,,,,,,,,,,,,,,,,,,,,,,,,,,,,,1
62cd43d66c2dd7ae9ab53ae7,SCN,2024-06-25_09h39.22.557,LearnStrategy,2023.2.3,Win32,59.88023952,,,,,,,,,,,,,,,,,,,,,,,,,,,,,,,,,,,,,,,,,,,
62cd43d66c2dd7ae9ab53ae7,SCN,2024-06-25_09h39.22.557,LearnStrategy,2023.2.3,Win32,59.88023952,,,,,,,,,,,5,14,1,1,,,,,,,,,,,,,,,,,,,,,,,,,,,,,
62cd43d66c2dd7ae9ab53ae7,SCN,2024-06-25_09h39.22.557,LearnStrategy,2023.2.3,Win32,59.88023952,,,,,,,,,,,4,14,1,2,,,,,,,,,,,,,,,,,,,,,,,,,,,,,
62cd43d66c2dd7ae9ab53ae7,SCN,2024-06-25_09h39.22.557,LearnStrategy,2023.2.3,Win32,59.88023952,,,,,,,,,,,7,07,1,3,,,,,,,,,,,,,,,,,,,,,,,,,,,,,
62cd43d66c2dd7ae9ab53ae7,SCN,2024-06-25_09h39.22.557,LearnStrategy,2023.2.3,Win32,59.88023952,,,,,,,,,,,7,14,1,4,,,,,,,,,,,,,,,,,,,,,,,,,,,,,
62cd43d66c2dd7ae9ab53ae7,SCN,2024-06-25_09h39.22.557,LearnStrategy,2023.2.3,Win32,59.88023952,,,,,,,,,,,2,11,1,5,,,,,,,,,,,,,,,,,,,,,,,,,,,,,
62cd43d66c2dd7ae9ab53ae7,SCN,2024-06-25_09h39.22.557,LearnStrategy,2023.2.3,Win32,59.88023952,,,,,,,,,,,5,04,1,6,,,,,,,,,,,,,,,,,,,,,,,,,,,,,
62cd43d66c2dd7ae9ab53ae7,SCN,2024-06-25_09h39.22.557,LearnStrategy,2023.2.3,Win32,59.88023952,,,,,,,,,,,8,05,1,7,,,,,,,,,,,,,,,,,,,,,,,,,,,,,
62cd43d66c2dd7ae9ab53ae7,SCN,2024-06-25_09h39.22.557,LearnStrategy,2023.2.3,Win32,59.88023952,,,,,,,,,,,4,13,1,8,,,,,,,,,,,,,,,,,,,,,,,,,,,,,
62cd43d66c2dd7ae9ab53ae7,SCN,2024-06-25_09h39.22.557,LearnStrategy,2023.2.3,Win32,59.88023952,,,,,,,,,,,1,06,2,1,,,,,,,,,,,,,,,,,,,,,,,,,,,,,
62cd43d66c2dd7ae9ab53ae7,SCN,2024-06-25_09h39.22.557,LearnStrategy,2023.2.3,Win32,59.88023952,,,,,,,,,,,7,10,2,2,,,,,,,,,,,,,,,,,,,,,,,,,,,,,
62cd43d66c2dd7ae9ab53ae7,SCN,2024-06-25_09h39.22.557,LearnStrategy,2023.2.3,Win32,59.88023952,,,,,,,,,,,8,06,2,3,,,,,,,,,,,,,,,,,,,,,,,,,,,,,
62cd43d66c2dd7ae9ab53ae7,SCN,2024-06-25_09h39.22.557,LearnStrategy,2023.2.3,Win32,59.88023952,,,,,,,,,,,3,07,2,4,,,,,,,,,,,,,,,,,,,,,,,,,,,,,
62cd43d66c2dd7ae9ab53ae7,SCN,2024-06-25_09h39.22.557,LearnStrategy,2023.2.3,Win32,59.88023952,,,,,,,,,,,6,03,2,5,,,,,,,,,,,,,,,,,,,,,,,,,,,,,
62cd43d66c2dd7ae9ab53ae7,SCN,2024-06-25_09h39.22.557,LearnStrategy,2023.2.3,Win32,59.88023952,,,,,,,,,,,1,05,2,6,,,,,,,,,,,,,,,,,,,,,,,,,,,,,
62cd43d66c2dd7ae9ab53ae7,SCN,2024-06-25_09h39.22.557,LearnStrategy,2023.2.3,Win32,59.88023952,,,,,,,,,,,6,10,2,7,,,,,,,,,,,,,,,,,,,,,,,,,,,,,
62cd43d66c2dd7ae9ab53ae7,SCN,2024-06-25_09h39.22.557,LearnStrategy,2023.2.3,Win32,59.88023952,,,,,,,,,,,7,15,2,8,,,,,,,,,,,,,,,,,,,,,,,,,,,,,
62cd43d66c2dd7ae9ab53ae7,SCN,2024-06-25_09h39.22.557,LearnStrategy,2023.2.3,Win32,59.88023952,,,,,,,,,,,3,11,3,1,,,,,,,,,,,,,,,,,,,,,,,,,,,,,
62cd43d66c2dd7ae9ab53ae7,SCN,2024-06-25_09h39.22.557,LearnStrategy,2023.2.3,Win32,59.88023952,,,,,,,,,,,8,16,3,2,,,,,,,,,,,,,,,,,,,,,,,,,,,,,
62cd43d66c2dd7ae9ab53ae7,SCN,2024-06-25_09h39.22.557,LearnStrategy,2023.2.3,Win32,59.88023952,,,,,,,,,,,1,02,3,3,,,,,,,,,,,,,,,,,,,,,,,,,,,,,
62cd43d66c2dd7ae9ab53ae7,SCN,2024-06-25_09h39.22.557,LearnStrategy,2023.2.3,Win32,59.88023952,,,,,,,,,,,6,06,3,4,,,,,,,,,,,,,,,,,,,,,,,,,,,,,
62cd43d66c2dd7ae9ab53ae7,SCN,2024-06-25_09h39.22.557,LearnStrategy,2023.2.3,Win32,59.88023952,,,,,,,,,,,1,16,3,5,,,,,,,,,,,,,,,,,,,,,,,,,,,,,
62cd43d66c2dd7ae9ab53ae7,SCN,2024-06-25_09h39.22.557,LearnStrategy,2023.2.3,Win32,59.88023952,,,,,,,,,,,8,03,3,6,,,,,,,,,,,,,,,,,,,,,,,,,,,,,
62cd43d66c2dd7ae9ab53ae7,SCN,2024-06-25_09h39.22.557,LearnStrategy,2023.2.3,Win32,59.88023952,,,,,,,,,,,5,16,3,7,,,,,,,,,,,,,,,,,,,,,,,,,,,,,
62cd43d66c2dd7ae9ab53ae7,SCN,2024-06-25_09h39.22.557,LearnStrategy,2023.2.3,Win32,59.88023952,,,,,,,,,,,6,11,3,8,,,,,,,,,,,,,,,,,,,,,,,,,,,,,
62cd43d66c2dd7ae9ab53ae7,SCN,2024-06-25_09h39.22.557,LearnStrategy,2023.2.3,Win32,59.88023952,,,,,,,,,,,4,12,4,1,,,,,,,,,,,,,,,,,,,,,,,,,,,,,
62cd43d66c2dd7ae9ab53ae7,SCN,2024-06-25_09h39.22.557,LearnStrategy,2023.2.3,Win32,59.88023952,,,,,,,,,,,4,10,4,2,,,,,,,,,,,,,,,,,,,,,,,,,,,,,
62cd43d66c2dd7ae9ab53ae7,SCN,2024-06-25_09h39.22.557,LearnStrategy,2023.2.3,Win32,59.88023952,,,,,,,,,,,6,07,4,3,,,,,,,,,,,,,,,,,,,,,,,,,,,,,
62cd43d66c2dd7ae9ab53ae7,SCN,2024-06-25_09h39.22.557,LearnStrategy,2023.2.3,Win32,59.88023952,,,,,,,,,,,2,02,4,4,,,,,,,,,,,,,,,,,,,,,,,,,,,,,
62cd43d66c2dd7ae9ab53ae7,SCN,2024-06-25_09h39.22.557,LearnStrategy,2023.2.3,Win32,59.88023952,,,,,,,,,,,5,07,4,5,,,,,,,,,,,,,,,,,,,,,,,,,,,,,
62cd43d66c2dd7ae9ab53ae7,SCN,2024-06-25_09h39.22.557,LearnStrategy,2023.2.3,Win32,59.88023952,,,,,,,,,,,2,12,4,6,,,,,,,,,,,,,,,,,,,,,,,,,,,,,
62cd43d66c2dd7ae9ab53ae7,SCN,2024-06-25_09h39.22.557,LearnStrategy,2023.2.3,Win32,59.88023952,,,,,,,,,,,3,15,4,7,,,,,,,,,,,,,,,,,,,,,,,,,,,,,
62cd43d66c2dd7ae9ab53ae7,SCN,2024-06-25_09h39.22.557,LearnStrategy,2023.2.3,Win32,59.88023952,,,,,,,,,,,5,09,4,8,,,,,,,,,,,,,,,,,,,,,,,,,,,,,
62cd43d66c2dd7ae9ab53ae7,SCN,2024-06-25_09h39.22.557,LearnStrategy,2023.2.3,Win32,59.88023952,,,,,,,,,,,1,04,5,1,,,,,,,,,,,,,,,,,,,,,,,,,,,,,
62cd43d66c2dd7ae9ab53ae7,SCN,2024-06-25_09h39.22.557,LearnStrategy,2023.2.3,Win32,59.88023952,,,,,,,,,,,1,07,5,2,,,,,,,,,,,,,,,,,,,,,,,,,,,,,
62cd43d66c2dd7ae9ab53ae7,SCN,2024-06-25_09h39.22.557,LearnStrategy,2023.2.3,Win32,59.88023952,,,,,,,,,,,4,11,5,3,,,,,,,,,,,,,,,,,,,,,,,,,,,,,
62cd43d66c2dd7ae9ab53ae7,SCN,2024-06-25_09h39.22.557,LearnStrategy,2023.2.3,Win32,59.88023952,,,,,,,,,,,5,06,5,4,,,,,,,,,,,,,,,,,,,,,,,,,,,,,
62cd43d66c2dd7ae9ab53ae7,SCN,2024-06-25_09h39.22.557,LearnStrategy,2023.2.3,Win32,59.88023952,,,,,,,,,,,4,05,5,5,,,,,,,,,,,,,,,,,,,,,,,,,,,,,
62cd43d66c2dd7ae9ab53ae7,SCN,2024-06-25_09h39.22.557,LearnStrategy,2023.2.3,Win32,59.88023952,,,,,,,,,,,2,06,5,6,,,,,,,,,,,,,,,,,,,,,,,,,,,,,
62cd43d66c2dd7ae9ab53ae7,SCN,2024-06-25_09h39.22.557,LearnStrategy,2023.2.3,Win32,59.88023952,,,,,,,,,,,3,12,5,7,,,,,,,,,,,,,,,,,,,,,,,,,,,,,
62cd43d66c2dd7ae9ab53ae7,SCN,2024-06-25_09h39.22.557,LearnStrategy,2023.2.3,Win32,59.88023952,,,,,,,,,,,3,08,5,8,,,,,,,,,,,,,,,,,,,,,,,,,,,,,
62cd43d66c2dd7ae9ab53ae7,SCN,2024-06-25_09h39.22.557,LearnStrategy,2023.2.3,Win32,59.88023952,,,,,,,,,,,3,02,6,1,,,,,,,,,,,,,,,,,,,,,,,,,,,,,
62cd43d66c2dd7ae9ab53ae7,SCN,2024-06-25_09h39.22.557,LearnStrategy,2023.2.3,Win32,59.88023952,,,,,,,,,,,2,04,6,2,,,,,,,,,,,,,,,,,,,,,,,,,,,,,
62cd43d66c2dd7ae9ab53ae7,SCN,2024-06-25_09h39.22.557,LearnStrategy,2023.2.3,Win32,59.88023952,,,,,,,,,,,8,08,6,3,,,,,,,,,,,,,,,,,,,,,,,,,,,,,
62cd43d66c2dd7ae9ab53ae7,SCN,2024-06-25_09h39.22.557,LearnStrategy,2023.2.3,Win32,59.88023952,,,,,,,,,,,8,09,6,4,,,,,,,,,,,,,,,,,,,,,,,,,,,,,
62cd43d66c2dd7ae9ab53ae7,SCN,2024-06-25_09h39.22.557,LearnStrategy,2023.2.3,Win32,59.88023952,,,,,,,,,,,7,04,6,5,,,,,,,,,,,,,,,,,,,,,,,,,,,,,
62cd43d66c2dd7ae9ab53ae7,SCN,2024-06-25_09h39.22.557,LearnStrategy,2023.2.3,Win32,59.88023952,,,,,,,,,,,6,15,6,6,,,,,,,,,,,,,,,,,,,,,,,,,,,,,
62cd43d66c2dd7ae9ab53ae7,SCN,2024-06-25_09h39.22.557,LearnStrategy,2023.2.3,Win32,59.88023952,,,,,,,,,,,2,16,6,7,,,,,,,,,,,,,,,,,,,,,,,,,,,,,
62cd43d66c2dd7ae9ab53ae7,SCN,2024-06-25_09h39.22.557,LearnStrategy,2023.2.3,Win32,59.88023952,,,,,,,,,,,7,08,6,8,,,,,,,,,,,,,,,,,,,,,,,,,,,,,