participant,condition,date,expName,psychopyVersion,OS,frameRate,block,phase,trial,learn_mouse.x,learn_mouse.y,learn_mouse.leftButton,learn_mouse.midButton,learn_mouse.rightButton,learn_mouse.time,learn_mouse.clicked_name,cat,token,row,col,t_select,cat_mouse_l.x,cat_mouse_l.y,cat_mouse_l.leftButton,cat_mouse_l.midButton,cat_mouse_l.rightButton,cat_mouse_l.time,cat_mouse_l.clicked_name,resp,t_resp,corr,train_trials.thisRepN,train_trials.thisTrialN,train_trials.thisN,train_trials.thisIndex,train_trials.ran,cat_mouse_t.x,cat_mouse_t.y,cat_mouse_t.leftButton,cat_mouse_t.midButton,cat_mouse_t.rightButton,cat_mouse_t.time,cat_mouse_t.clicked_name,test_trials.thisRepN,test_trials.thisTrialN,test_trials.thisN,test_trials.thisIndex,test_trials.ran,Bonus
6307f3c967020d1202332b77,SCN,2024-06-11_13h17.56.717,LearnStrategy,2023.2.3,Win32,2.857142857,,,,,,,,,,,,,,,,,,,,,,,,,,,,,,,,,,,,,,,,,,,
6307f3c967020d1202332b77,SCN,2024-06-11_13h17.56.717,LearnStrategy,2023.2.3,Win32,2.857142857,1,1,1,-0.399739583,-0.110677083,1,0,0,24.5008,Pegmatite_16,6,16,3,2,24.501,-0.108072917,-0.24609375,1,0,0,14.0366,Basalt_rect,2,14.037,0,0,0,0,0,1,,,,,,,,,,,,,
6307f3c967020d1202332b77,SCN,2024-06-11_13h17.56.717,LearnStrategy,2023.2.3,Win32,2.857142857,1,1,2,0.23828125,0.41015625,1,0,0,47.5889,Diorite_02,3,02,6,6,47.589,-0.375,-0.259114583,1,0,0,12.8187,Andesite_rect,1,12.819,0,1,0,1,0,1,,,,,,,,,,,,,
6307f3c967020d1202332b77,SCN,2024-06-11_13h17.56.717,LearnStrategy,2023.2.3,Win32,2.857142857,1,1,3,-0.563802083,0.079427083,1,0,0,7.1046,Obsidian_10,5,10,4,1,7.105,0.412760417,-0.259114583,1,0,0,17.7122,Gabbro_rect,4,17.712,0,2,0,2,0,1,,,,,,,,,,,,,
6307f3c967020d1202332b77,SCN,2024-06-11_13h17.56.717,LearnStrategy,2023.2.3,Win32,2.857142857,1,1,4,-0.076822917,-0.272135417,1,0,0,15.0352,Pegmatite_10,6,10,2,4,15.035,-0.39453125,-0.256510417,1,0,0,36.2364,Andesite_rect,1,36.236,0,3,0,3,0,1,,,,,,,,,,,,,
6307f3c967020d1202332b77,SCN,2024-06-11_13h17.56.717,LearnStrategy,2023.2.3,Win32,2.857142857,1,1,5,0.572916667,0.407552083,1,0,0,12.3932,Diorite_16,3,16,6,8,12.393,-0.424479167,-0.393229167,1,0,0,27.4557,Obsidian_rect,5,27.456,0,4,0,4,0,1,,,,,,,,,,,,,
6307f3c967020d1202332b77,SCN,2024-06-11_13h17.56.717,LearnStrategy,2023.2.3,Win32,2.857142857,1,1,6,0.3984375,-0.407552083,1,0,0,5.9581,Pumice_09,8,09,1,7,5.958,0.38671875,-0.40625,1,0,0,14.1455,Pumice_rect,8,14.145,1,5,0,5,0,1,,,,,,,,,,,,,
6307f3c967020d1202332b77,SCN,2024-06-11_13h17.56.717,LearnStrategy,2023.2.3,Win32,2.857142857,1,1,7,-0.561197917,0.40625,1,0,0,14.9004,Andesite_06,1,06,6,1,14.9,-0.130208333,-0.255208333,1,0,0,6.0352,Basalt_rect,2,6.035,0,6,0,6,0,1,,,,,,,,,,,,,
6307f3c967020d1202332b77,SCN,2024-06-11_13h17.56.717,LearnStrategy,2023.2.3,Win32,2.857142857,1,1,8,0.55078125,-0.084635417,1,0,0,8.7968,Gabbro_16,4,16,3,8,8.797,0.411458333,-0.240885417,1,0,0,20.7957,Gabbro_rect,4,20.796,1,7,0,7,0,1,,,,,,,,,,,,,
6307f3c967020d1202332b77,SCN,2024-06-11_13h17.56.717,LearnStrategy,2023.2.3,Win32,2.857142857,1,1,9,0.555989583,0.079427083,1,0,0,8.2826,Obsidian_08,5,08,4,8,8.283,-0.072916667,-0.256510417,1,0,0,23.766,Basalt_rect,2,23.766,0,8,0,8,0,1,,,,,,,,,,,,,
6307f3c967020d1202332b77,SCN,2024-06-11_13h17.56.717,LearnStrategy,2023.2.3,Win32,2.857142857,1,1,10,0.3828125,-0.106770833,1,0,0,10.9998,Pegmatite_07,6,07,3,7,11,0.114583333,-0.403645833,1,0,0,41.9948,Peridotite_rect,7,41.995,0,9,0,9,0,1,,,,,,,,,,,,,
6307f3c967020d1202332b77,SCN,2024-06-11_13h17.56.717,LearnStrategy,2023.2.3,Win32,2.857142857,1,1,11,-0.06640625,-0.09375,1,0,0,4.0944,Obsidian_14,5,14,3,4,4.094,-0.080729167,-0.239583333,1,0,0,4.0667,Basalt_rect,2,4.067,0,10,0,10,0,1,,,,,,,,,,,,,
6307f3c967020d1202332b77,SCN,2024-06-11_13h17.56.717,LearnStrategy,2023.2.3,Win32,2.857142857,1,1,12,-0.079427083,0.118489583,1,0,0,4.1828,Andesite_03,1,03,4,4,4.183,0.403645833,-0.260416667,1,0,0,12.9363,Gabbro_rect,4,12.936,0,11,0,11,0,1,,,,,,,,,,,,,
6307f3c967020d1202332b77,SCN,2024-06-11_13h17.56.717,LearnStrategy,2023.2.3,Win32,2.857142857,1,1,13,0.561197917,-0.0859375,1,0,0,4.5878,Gabbro_16,4,16,3,8,4.588,0.361979167,-0.381510417,1,0,0,4.192,Pumice_rect,8,4.192,0,12,0,12,0,1,,,,,,,,,,,,,
6307f3c967020d1202332b77,SCN,2024-06-11_13h17.56.717,LearnStrategy,2023.2.3,Win32,2.857142857,1,1,14,0.063802083,-0.408854167,1,0,0,4.0949,Pumice_15,8,15,1,5,4.095,0.354166667,-0.38671875,1,0,0,3.7271,Pumice_rect,8,3.727,1,13,0,13,0,1,,,,,,,,,,,,,
6307f3c967020d1202332b77,SCN,2024-06-11_13h17.56.717,LearnStrategy,2023.2.3,Win32,2.857142857,1,1,15,-0.51171875,-0.388020833,1,0,0,3.7232,Diorite_13,3,13,1,1,3.723,-0.09375,-0.385416667,1,0,0,5.9938,Pegmatite_rect,6,5.994,0,14,0,14,0,1,,,,,,,,,,,,,
6307f3c967020d1202332b77,SCN,2024-06-11_13h17.56.717,LearnStrategy,2023.2.3,Win32,2.857142857,1,1,16,0.06640625,0.088541667,1,0,0,11.4249,Basalt_11,2,11,4,5,11.425,0.395833333,-0.390625,1,0,0,8.0578,Pumice_rect,8,8.058,0,15,0,15,0,1,,,,,,,,,,,,,
6307f3c967020d1202332b77,SCN,2024-06-11_13h17.56.717,LearnStrategy,2023.2.3,Win32,2.857142857,1,2,1,,,,,,,,1,14,,,,,,,,,,,6,6.731,0,,,,,,-0.12109375,-0.41015625,1,0,0,6.7308,Pegmatite_rect,0,0,0,0,1,
6307f3c967020d1202332b77,SCN,2024-06-11_13h17.56.717,LearnStrategy,2023.2.3,Win32,2.857142857,1,2,2,,,,,,,,7,10,,,,,,,,,,,3,14.287,0,,,,,,0.169270833,-0.248697917,1,0,0,14.2867,Diorite_rect,1,0,1,0,1,
6307f3c967020d1202332b77,SCN,2024-06-11_13h17.56.717,LearnStrategy,2023.2.3,Win32,2.857142857,1,2,3,,,,,,,,3,07,,,,,,,,,,,5,16.185,0,,,,,,-0.360677083,-0.397135417,1,0,0,16.1851,Obsidian_rect,2,0,2,0,1,
6307f3c967020d1202332b77,SCN,2024-06-11_13h17.56.717,LearnStrategy,2023.2.3,Win32,2.857142857,1,2,4,,,,,,,,2,10,,,,,,,,,,,4,7.355,0,,,,,,0.380208333,-0.243489583,1,0,0,7.3552,Gabbro_rect,3,0,3,0,1,
6307f3c967020d1202332b77,SCN,2024-06-11_13h17.56.717,LearnStrategy,2023.2.3,Win32,2.857142857,1,2,5,,,,,,,,3,11,,,,,,,,,,,3,8.306,1,,,,,,0.19921875,-0.255208333,1,0,0,8.3063,Diorite_rect,4,0,4,0,1,
6307f3c967020d1202332b77,SCN,2024-06-11_13h17.56.717,LearnStrategy,2023.2.3,Win32,2.857142857,1,2,6,,,,,,,,4,08,,,,,,,,,,,1,8.891,0,,,,,,-0.41015625,-0.240885417,1,0,0,8.891,Andesite_rect,5,0,5,0,1,
6307f3c967020d1202332b77,SCN,2024-06-11_13h17.56.717,LearnStrategy,2023.2.3,Win32,2.857142857,1,2,7,,,,,,,,2,05,,,,,,,,,,,1,17.977,0,,,,,,-0.466145833,-0.243489583,1,0,0,17.9767,Andesite_rect,6,0,6,0,1,
6307f3c967020d1202332b77,SCN,2024-06-11_13h17.56.717,LearnStrategy,2023.2.3,Win32,2.857142857,1,2,8,,,,,,,,1,11,,,,,,,,,,,3,6.142,0,,,,,,0.12890625,-0.255208333,1,0,0,6.1422,Diorite_rect,7,0,7,0,1,
6307f3c967020d1202332b77,SCN,2024-06-11_13h17.56.717,LearnStrategy,2023.2.3,Win32,2.857142857,1,2,9,,,,,,,,8,05,,,,,,,,,,,8,4.382,1,,,,,,0.393229167,-0.399739583,1,0,0,4.3823,Pumice_rect,8,0,8,0,1,
6307f3c967020d1202332b77,SCN,2024-06-11_13h17.56.717,LearnStrategy,2023.2.3,Win32,2.857142857,1,2,10,,,,,,,,8,10,,,,,,,,,,,8,2.398,1,,,,,,0.404947917,-0.38671875,1,0,0,2.3977,Pumice_rect,9,0,9,0,1,
6307f3c967020d1202332b77,SCN,2024-06-11_13h17.56.717,LearnStrategy,2023.2.3,Win32,2.857142857,1,2,11,,,,,,,,4,09,,,,,,,,,,,4,4.719,1,,,,,,0.3515625,-0.243489583,1,0,0,4.7195,Gabbro_rect,10,0,10,0,1,
6307f3c967020d1202332b77,SCN,2024-06-11_13h17.56.717,LearnStrategy,2023.2.3,Win32,2.857142857,1,2,12,,,,,,,,6,05,,,,,,,,,,,7,4.673,0,,,,,,0.184895833,-0.40234375,1,0,0,4.673,Peridotite_rect,11,0,11,0,1,
6307f3c967020d1202332b77,SCN,2024-06-11_13h17.56.717,LearnStrategy,2023.2.3,Win32,2.857142857,1,2,13,,,,,,,,6,08,,,,,,,,,,,5,21.755,0,,,,,,-0.3671875,-0.412760417,1,0,0,21.7555,Obsidian_rect,12,0,12,0,1,
6307f3c967020d1202332b77,SCN,2024-06-11_13h17.56.717,LearnStrategy,2023.2.3,Win32,2.857142857,1,2,14,,,,,,,,5,11,,,,,,,,,,,5,7.124,1,,,,,,-0.369791667,-0.385416667,1,0,0,7.1236,Obsidian_rect,13,0,13,0,1,
6307f3c967020d1202332b77,SCN,2024-06-11_13h17.56.717,LearnStrategy,2023.2.3,Win32,2.857142857,1,2,15,,,,,,,,5,07,,,,,,,,,,,5,17.205,1,,,,,,-0.438802083,-0.3828125,1,0,0,17.205,Obsidian_rect,14,0,14,0,1,
6307f3c967020d1202332b77,SCN,2024-06-11_13h17.56.717,LearnStrategy,2023.2.3,Win32,2.857142857,1,2,16,,,,,,,,7,13,,,,,,,,,,,3,7.15,0,,,,,,0.141927083,-0.234375,1,0,0,7.1502,Diorite_rect,15,0,15,0,1,
6307f3c967020d1202332b77,SCN,2024-06-11_13h17.56.717,LearnStrategy,2023.2.3,Win32,2.857142857,2,1,1,0.401041667,-0.41796875,1,0,0,5.404,Pumice_09,8,09,1,7,5.404,0.3984375,-0.40625,1,0,0,2.7853,Pumice_rect,8,2.785,1,0,0,0,0,1,,,,,,,,,,,,,
6307f3c967020d1202332b77,SCN,2024-06-11_13h17.56.717,LearnStrategy,2023.2.3,Win32,2.857142857,2,1,2,-0.544270833,0.25390625,1,0,0,5.1924,Peridotite_04,7,04,5,1,5.192,-0.33984375,-0.26171875,1,0,0,9.6146,Andesite_rect,1,9.615,0,1,0,1,0,1,,,,,,,,,,,,,
6307f3c967020d1202332b77,SCN,2024-06-11_13h17.56.717,LearnStrategy,2023.2.3,Win32,2.857142857,2,1,3,-0.22265625,0.100260417,1,0,0,2.9304,Pumice_16,8,16,4,3,2.93,0.376302083,-0.399739583,1,0,0,11.1305,Pumice_rect,8,11.13,1,2,0,2,0,1,,,,,,,,,,,,,
6307f3c967020d1202332b77,SCN,2024-06-11_13h17.56.717,LearnStrategy,2023.2.3,Win32,2.857142857,2,1,4,-0.420572917,0.071614583,1,0,0,7.8559,Obsidian_02,5,02,4,2,7.856,-0.098958333,-0.23828125,1,0,0,3.6086,Basalt_rect,2,3.609,0,3,0,3,0,1,,,,,,,,,,,,,
6307f3c967020d1202332b77,SCN,2024-06-11_13h17.56.717,LearnStrategy,2023.2.3,Win32,2.857142857,2,1,5,0.225260417,0.108072917,1,0,0,5.6849,Basalt_06,2,06,4,6,5.685,0.115885417,-0.244791667,1,0,0,3.602,Diorite_rect,3,3.602,0,4,0,4,0,1,,,,,,,,,,,,,
6307f3c967020d1202332b77,SCN,2024-06-11_13h17.56.717,LearnStrategy,2023.2.3,Win32,2.857142857,2,1,6,-0.221354167,-0.236979167,1,0,0,3.6056,Gabbro_12,4,12,2,3,3.606,0.451822917,-0.391927083,1,0,0,3.5681,Pumice_rect,8,3.568,0,5,0,5,0,1,,,,,,,,,,,,,
6307f3c967020d1202332b77,SCN,2024-06-11_13h17.56.717,LearnStrategy,2023.2.3,Win32,2.857142857,2,1,7,-0.54296875,-0.244791667,1,0,0,6.8291,Andesite_10,1,10,2,1,6.829,0.450520833,-0.40625,1,0,0,3.2831,Pumice_rect,8,3.283,0,6,0,6,0,1,,,,,,,,,,,,,
6307f3c967020d1202332b77,SCN,2024-06-11_13h17.56.717,LearnStrategy,2023.2.3,Win32,2.857142857,2,1,8,0.381510417,0.067708333,1,0,0,4.0704,Gabbro_10,4,10,4,7,4.07,-0.36328125,-0.243489583,1,0,0,3.1264,Andesite_rect,1,3.126,0,7,0,7,0,1,,,,,,,,,,,,,
6307f3c967020d1202332b77,SCN,2024-06-11_13h17.56.717,LearnStrategy,2023.2.3,Win32,2.857142857,2,1,9,0.221354167,-0.09765625,1,0,0,3.5726,Diorite_06,3,06,3,6,3.573,0.145833333,-0.240885417,1,0,0,3.0037,Diorite_rect,3,3.004,1,8,0,8,0,1,,,,,,,,,,,,,
6307f3c967020d1202332b77,SCN,2024-06-11_13h17.56.717,LearnStrategy,2023.2.3,Win32,2.857142857,2,1,10,0.1015625,0.407552083,1,0,0,3.9985,Andesite_16,1,16,6,5,3.998,0.190104167,-0.243489583,1,0,0,4.4439,Diorite_rect,3,4.444,0,9,0,9,0,1,,,,,,,,,,,,,
6307f3c967020d1202332b77,SCN,2024-06-11_13h17.56.717,LearnStrategy,2023.2.3,Win32,2.857142857,2,1,11,-0.526041667,-0.2578125,1,0,0,4.3042,Andesite_10,1,10,2,1,4.304,-0.359375,-0.37890625,1,0,0,4.9741,Obsidian_rect,5,4.974,0,10,0,10,0,1,,,,,,,,,,,,,
6307f3c967020d1202332b77,SCN,2024-06-11_13h17.56.717,LearnStrategy,2023.2.3,Win32,2.857142857,2,1,12,0.233072917,0.100260417,1,0,0,3.684,Basalt_06,2,06,4,6,3.684,0.140625,-0.244791667,1,0,0,2.4586,Diorite_rect,3,2.459,0,11,0,11,0,1,,,,,,,,,,,,,
6307f3c967020d1202332b77,SCN,2024-06-11_13h17.56.717,LearnStrategy,2023.2.3,Win32,2.857142857,2,1,13,-0.220052083,0.247395833,1,0,0,4.8651,Peridotite_12,7,12,5,3,4.865,0.157552083,-0.2578125,1,0,0,3.7356,Diorite_rect,3,3.736,0,12,0,12,0,1,,,,,,,,,,,,,
6307f3c967020d1202332b77,SCN,2024-06-11_13h17.56.717,LearnStrategy,2023.2.3,Win32,2.857142857,2,1,14,0.541666667,0.407552083,1,0,0,6.245,Diorite_16,3,16,6,8,6.245,0.36328125,-0.263020833,1,0,0,7.8781,Gabbro_rect,4,7.878,0,13,0,13,0,1,,,,,,,,,,,,,
6307f3c967020d1202332b77,SCN,2024-06-11_13h17.56.717,LearnStrategy,2023.2.3,Win32,2.857142857,2,1,15,0.368489583,0.403645833,1,0,0,3.5768,Pegmatite_13,6,13,6,7,3.577,-0.36328125,-0.243489583,1,0,0,5.7193,Andesite_rect,1,5.719,0,14,0,14,0,1,,,,,,,,,,,,,
6307f3c967020d1202332b77,SCN,2024-06-11_13h17.56.717,LearnStrategy,2023.2.3,Win32,2.857142857,2,1,16,-0.385416667,0.41015625,1,0,0,5.0287,Gabbro_05,4,05,6,2,5.029,0.08984375,-0.260416667,1,0,0,2.7827,Diorite_rect,3,2.783,0,15,0,15,0,1,,,,,,,,,,,,,
6307f3c967020d1202332b77,SCN,2024-06-11_13h17.56.717,LearnStrategy,2023.2.3,Win32,2.857142857,2,2,1,,,,,,,,2,09,,,,,,,,,,,1,3.524,0,,,,,,-0.390625,-0.239583333,1,0,0,3.5241,Andesite_rect,0,0,0,0,1,
6307f3c967020d1202332b77,SCN,2024-06-11_13h17.56.717,LearnStrategy,2023.2.3,Win32,2.857142857,2,2,2,,,,,,,,7,05,,,,,,,,,,,6,4.979,0,,,,,,-0.15234375,-0.4140625,1,0,0,4.9786,Pegmatite_rect,1,0,1,0,1,
6307f3c967020d1202332b77,SCN,2024-06-11_13h17.56.717,LearnStrategy,2023.2.3,Win32,2.857142857,2,2,3,,,,,,,,5,05,,,,,,,,,,,5,12.736,1,,,,,,-0.407552083,-0.41015625,1,0,0,12.7356,Obsidian_rect,2,0,2,0,1,
6307f3c967020d1202332b77,SCN,2024-06-11_13h17.56.717,LearnStrategy,2023.2.3,Win32,2.857142857,2,2,4,,,,,,,,1,04,,,,,,,,,,,6,6.272,0,,,,,,-0.09375,-0.401041667,1,0,0,6.2715,Pegmatite_rect,3,0,3,0,1,
6307f3c967020d1202332b77,SCN,2024-06-11_13h17.56.717,LearnStrategy,2023.2.3,Win32,2.857142857,2,2,5,,,,,,,,6,03,,,,,,,,,,,3,3.231,0,,,,,,0.088541667,-0.26171875,1,0,0,3.2312,Diorite_rect,4,0,4,0,1,
6307f3c967020d1202332b77,SCN,2024-06-11_13h17.56.717,LearnStrategy,2023.2.3,Win32,2.857142857,2,2,6,,,,,,,,6,09,,,,,,,,,,,3,8.543,0,,,,,,0.065104167,-0.260416667,1,0,0,8.5426,Diorite_rect,5,0,5,0,1,
6307f3c967020d1202332b77,SCN,2024-06-11_13h17.56.717,LearnStrategy,2023.2.3,Win32,2.857142857,2,2,7,,,,,,,,8,03,,,,,,,,,,,8,4.136,1,,,,,,0.4296875,-0.390625,1,0,0,4.1361,Pumice_rect,6,0,6,0,1,
6307f3c967020d1202332b77,SCN,2024-06-11_13h17.56.717,LearnStrategy,2023.2.3,Win32,2.857142857,2,2,8,,,,,,,,5,04,,,,,,,,,,,6,6.817,0,,,,,,-0.118489583,-0.395833333,1,0,0,6.8172,Pegmatite_rect,7,0,7,0,1,
6307f3c967020d1202332b77,SCN,2024-06-11_13h17.56.717,LearnStrategy,2023.2.3,Win32,2.857142857,2,2,9,,,,,,,,3,12,,,,,,,,,,,3,9.093,1,,,,,,0.095052083,-0.2421875,1,0,0,9.0932,Diorite_rect,8,0,8,0,1,
6307f3c967020d1202332b77,SCN,2024-06-11_13h17.56.717,LearnStrategy,2023.2.3,Win32,2.857142857,2,2,10,,,,,,,,2,16,,,,,,,,,,,4,4.119,0,,,,,,0.321614583,-0.255208333,1,0,0,4.1188,Gabbro_rect,9,0,9,0,1,
6307f3c967020d1202332b77,SCN,2024-06-11_13h17.56.717,LearnStrategy,2023.2.3,Win32,2.857142857,2,2,11,,,,,,,,1,05,,,,,,,,,,,7,3.885,0,,,,,,0.158854167,-0.399739583,1,0,0,3.8855,Peridotite_rect,10,0,10,0,1,
6307f3c967020d1202332b77,SCN,2024-06-11_13h17.56.717,LearnStrategy,2023.2.3,Win32,2.857142857,2,2,12,,,,,,,,8,02,,,,,,,,,,,8,4.776,1,,,,,,0.401041667,-0.41015625,1,0,0,4.7761,Pumice_rect,11,0,11,0,1,
6307f3c967020d1202332b77,SCN,2024-06-11_13h17.56.717,LearnStrategy,2023.2.3,Win32,2.857142857,2,2,13,,,,,,,,7,06,,,,,,,,,,,1,9.594,0,,,,,,-0.359375,-0.240885417,1,0,0,9.5942,Andesite_rect,12,0,12,0,1,
6307f3c967020d1202332b77,SCN,2024-06-11_13h17.56.717,LearnStrategy,2023.2.3,Win32,2.857142857,2,2,14,,,,,,,,4,13,,,,,,,,,,,5,4.417,0,,,,,,-0.3515625,-0.40234375,1,0,0,4.417,Obsidian_rect,13,0,13,0,1,
6307f3c967020d1202332b77,SCN,2024-06-11_13h17.56.717,LearnStrategy,2023.2.3,Win32,2.857142857,2,2,15,,,,,,,,3,14,,,,,,,,,,,7,8.86,0,,,,,,0.118489583,-0.408854167,1,0,0,8.8601,Peridotite_rect,14,0,14,0,1,
6307f3c967020d1202332b77,SCN,2024-06-11_13h17.56.717,LearnStrategy,2023.2.3,Win32,2.857142857,2,2,16,,,,,,,,4,15,,,,,,,,,,,4,7.184,1,,,,,,0.329427083,-0.2578125,1,0,0,7.1839,Gabbro_rect,15,0,15,0,1,
6307f3c967020d1202332b77,SCN,2024-06-11_13h17.56.717,LearnStrategy,2023.2.3,Win32,2.857142857,3,1,1,0.53125,0.404947917,1,0,0,4.879,Diorite_16,3,16,6,8,4.879,0.10546875,-0.236979167,1,0,0,3.9196,Diorite_rect,3,3.92,1,0,0,0,0,1,,,,,,,,,,,,,
6307f3c967020d1202332b77,SCN,2024-06-11_13h17.56.717,LearnStrategy,2023.2.3,Win32,2.857142857,3,1,2,0.557291667,0.25,1,0,0,2.3928,Pumice_13,8,13,5,8,2.393,-0.184895833,-0.24609375,1,0,0,4.9998,Basalt_rect,2,5,0,1,0,1,0,1,,,,,,,,,,,,,
6307f3c967020d1202332b77,SCN,2024-06-11_13h17.56.717,LearnStrategy,2023.2.3,Win32,2.857142857,3,1,3,0.540364583,0.07421875,1,0,0,3.5886,Obsidian_08,5,08,4,8,3.589,-0.04296875,-0.3984375,1,0,0,3.0572,Pegmatite_rect,6,3.057,0,2,0,2,0,1,,,,,,,,,,,,,
6307f3c967020d1202332b77,SCN,2024-06-11_13h17.56.717,LearnStrategy,2023.2.3,Win32,2.857142857,3,1,4,0.576822917,-0.106770833,1,0,0,2.5152,Gabbro_16,4,16,3,8,2.515,0.12890625,-0.401041667,1,0,0,3.8486,Peridotite_rect,7,3.849,0,3,0,3,0,1,,,,,,,,,,,,,
6307f3c967020d1202332b77,SCN,2024-06-11_13h17.56.717,LearnStrategy,2023.2.3,Win32,2.857142857,3,1,5,0.565104167,-0.251302083,1,0,0,2.9815,Andesite_01,1,01,2,8,2.982,-0.139322917,-0.393229167,1,0,0,5.4213,Pegmatite_rect,6,5.421,0,4,0,4,0,1,,,,,,,,,,,,,
6307f3c967020d1202332b77,SCN,2024-06-11_13h17.56.717,LearnStrategy,2023.2.3,Win32,2.857142857,3,1,6,0.5625,-0.404947917,1,0,0,2.9775,Peridotite_07,7,07,1,8,2.977,0.41015625,-0.395833333,1,0,0,2.5253,Pumice_rect,8,2.525,0,5,0,5,0,1,,,,,,,,,,,,,
6307f3c967020d1202332b77,SCN,2024-06-11_13h17.56.717,LearnStrategy,2023.2.3,Win32,2.857142857,3,1,7,0.395833333,-0.41015625,1,0,0,3.0549,Pumice_09,8,09,1,7,3.055,0.39453125,-0.381510417,1,0,0,1.8976,Pumice_rect,8,1.898,1,6,0,6,0,1,,,,,,,,,,,,,
6307f3c967020d1202332b77,SCN,2024-06-11_13h17.56.717,LearnStrategy,2023.2.3,Win32,2.857142857,3,1,8,0.390625,-0.244791667,1,0,0,2.435,Pumice_14,8,14,2,7,2.435,0.38671875,-0.39453125,1,0,0,8.2302,Pumice_rect,8,8.23,1,7,0,7,0,1,,,,,,,,,,,,,
6307f3c967020d1202332b77,SCN,2024-06-11_13h17.56.717,LearnStrategy,2023.2.3,Win32,2.857142857,3,1,9,0.3828125,-0.100260417,1,0,0,3.6086,Pegmatite_07,6,07,3,7,3.609,0.135416667,-0.25390625,1,0,0,4.2571,Diorite_rect,3,4.257,0,8,0,8,0,1,,,,,,,,,,,,,
6307f3c967020d1202332b77,SCN,2024-06-11_13h17.56.717,LearnStrategy,2023.2.3,Win32,2.857142857,3,1,10,0.3671875,0.102864583,1,0,0,4.0691,Gabbro_10,4,10,4,7,4.069,0.3671875,-0.240885417,1,0,0,3.6986,Gabbro_rect,4,3.699,1,9,0,9,0,1,,,,,,,,,,,,,
6307f3c967020d1202332b77,SCN,2024-06-11_13h17.56.717,LearnStrategy,2023.2.3,Win32,2.857142857,3,1,11,0.37890625,0.272135417,1,0,0,3.0216,Pegmatite_11,6,11,5,7,3.022,-0.434895833,-0.247395833,1,0,0,4.3298,Andesite_rect,1,4.33,0,10,0,10,0,1,,,,,,,,,,,,,
6307f3c967020d1202332b77,SCN,2024-06-11_13h17.56.717,LearnStrategy,2023.2.3,Win32,2.857142857,3,1,12,0.37109375,0.430989583,1,0,0,2.9285,Pegmatite_13,6,13,6,7,2.928,-0.356770833,-0.401041667,1,0,0,3.8167,Obsidian_rect,5,3.817,0,11,0,11,0,1,,,,,,,,,,,,,
6307f3c967020d1202332b77,SCN,2024-06-11_13h17.56.717,LearnStrategy,2023.2.3,Win32,2.857142857,3,1,13,0.213541667,0.404947917,1,0,0,6.8963,Diorite_02,3,02,6,6,6.896,0.10546875,-0.251302083,1,0,0,9.203,Diorite_rect,3,9.203,1,12,0,12,0,1,,,,,,,,,,,,,
6307f3c967020d1202332b77,SCN,2024-06-11_13h17.56.717,LearnStrategy,2023.2.3,Win32,2.857142857,3,1,14,0.21484375,0.256510417,1,0,0,3.5209,Gabbro_14,4,14,5,6,3.521,-0.427083333,-0.25,1,0,0,4.9979,Andesite_rect,1,4.998,0,13,0,13,0,1,,,,,,,,,,,,,
6307f3c967020d1202332b77,SCN,2024-06-11_13h17.56.717,LearnStrategy,2023.2.3,Win32,2.857142857,3,1,15,0.260416667,-0.26171875,1,0,0,3.6714,Basalt_08,2,08,2,6,3.671,0.3828125,-0.25,1,0,0,11.8309,Gabbro_rect,4,11.831,0,14,0,14,0,1,,,,,,,,,,,,,
6307f3c967020d1202332b77,SCN,2024-06-11_13h17.56.717,LearnStrategy,2023.2.3,Win32,2.857142857,3,1,16,0.125,0.264322917,1,0,0,4.6253,Obsidian_16,5,16,5,5,4.625,0.361979167,-0.2421875,1,0,0,5.565,Gabbro_rect,4,5.565,0,15,0,15,0,1,,,,,,,,,,,,,
6307f3c967020d1202332b77,SCN,2024-06-11_13h17.56.717,LearnStrategy,2023.2.3,Win32,2.857142857,3,2,1,,,,,,,,1,07,,,,,,,,,,,6,4.134,0,,,,,,-0.154947917,-0.41015625,1,0,0,4.1338,Pegmatite_rect,0,0,0,0,1,
6307f3c967020d1202332b77,SCN,2024-06-11_13h17.56.717,LearnStrategy,2023.2.3,Win32,2.857142857,3,2,2,,,,,,,,3,08,,,,,,,,,,,3,14.235,1,,,,,,0.143229167,-0.247395833,1,0,0,14.2348,Diorite_rect,1,0,1,0,1,
6307f3c967020d1202332b77,SCN,2024-06-11_13h17.56.717,LearnStrategy,2023.2.3,Win32,2.857142857,3,2,3,,,,,,,,7,15,,,,,,,,,,,3,5.636,0,,,,,,0.153645833,-0.236979167,1,0,0,5.6357,Diorite_rect,2,0,2,0,1,
6307f3c967020d1202332b77,SCN,2024-06-11_13h17.56.717,LearnStrategy,2023.2.3,Win32,2.857142857,3,2,4,,,,,,,,5,12,,,,,,,,,,,5,3.784,1,,,,,,-0.444010417,-0.404947917,1,0,0,3.7843,Obsidian_rect,3,0,3,0,1,
6307f3c967020d1202332b77,SCN,2024-06-11_13h17.56.717,LearnStrategy,2023.2.3,Win32,2.857142857,3,2,5,,,,,,,,8,04,,,,,,,,,,,8,3.245,1,,,,,,0.415364583,-0.3984375,1,0,0,3.2447,Pumice_rect,4,0,4,0,1,
6307f3c967020d1202332b77,SCN,2024-06-11_13h17.56.717,LearnStrategy,2023.2.3,Win32,2.857142857,3,2,6,,,,,,,,7,02,,,,,,,,,,,6,6.325,0,,,,,,-0.123697917,-0.380208333,1,0,0,6.3253,Pegmatite_rect,5,0,5,0,1,
6307f3c967020d1202332b77,SCN,2024-06-11_13h17.56.717,LearnStrategy,2023.2.3,Win32,2.857142857,3,2,7,,,,,,,,1,09,,,,,,,,,,,7,4.894,0,,,,,,0.16015625,-0.393229167,1,0,0,4.8938,Peridotite_rect,6,0,6,0,1,
6307f3c967020d1202332b77,SCN,2024-06-11_13h17.56.717,LearnStrategy,2023.2.3,Win32,2.857142857,3,2,8,,,,,,,,2,04,,,,,,,,,,,4,3.038,0,,,,,,0.411458333,-0.24609375,1,0,0,3.038,Gabbro_rect,7,0,7,0,1,
6307f3c967020d1202332b77,SCN,2024-06-11_13h17.56.717,LearnStrategy,2023.2.3,Win32,2.857142857,3,2,9,,,,,,,,4,03,,,,,,,,,,,1,3.19,0,,,,,,-0.389322917,-0.240885417,1,0,0,3.1904,Andesite_rect,8,0,8,0,1,
6307f3c967020d1202332b77,SCN,2024-06-11_13h17.56.717,LearnStrategy,2023.2.3,Win32,2.857142857,3,2,10,,,,,,,,4,01,,,,,,,,,,,5,7.441,0,,,,,,-0.393229167,-0.391927083,1,0,0,7.4413,Obsidian_rect,9,0,9,0,1,
6307f3c967020d1202332b77,SCN,2024-06-11_13h17.56.717,LearnStrategy,2023.2.3,Win32,2.857142857,3,2,11,,,,,,,,2,12,,,,,,,,,,,8,4.648,0,,,,,,0.385416667,-0.395833333,1,0,0,4.6478,Pumice_rect,10,0,10,0,1,
6307f3c967020d1202332b77,SCN,2024-06-11_13h17.56.717,LearnStrategy,2023.2.3,Win32,2.857142857,3,2,12,,,,,,,,6,12,,,,,,,,,,,1,4.198,0,,,,,,-0.361979167,-0.236979167,1,0,0,4.1976,Andesite_rect,11,0,11,0,1,
6307f3c967020d1202332b77,SCN,2024-06-11_13h17.56.717,LearnStrategy,2023.2.3,Win32,2.857142857,3,2,13,,,,,,,,3,15,,,,,,,,,,,8,6.932,0,,,,,,0.3046875,-0.404947917,1,0,0,6.932,Pumice_rect,12,0,12,0,1,
6307f3c967020d1202332b77,SCN,2024-06-11_13h17.56.717,LearnStrategy,2023.2.3,Win32,2.857142857,3,2,14,,,,,,,,8,08,,,,,,,,,,,8,2.743,1,,,,,,0.41796875,-0.384114583,1,0,0,2.7433,Pumice_rect,13,0,13,0,1,
6307f3c967020d1202332b77,SCN,2024-06-11_13h17.56.717,LearnStrategy,2023.2.3,Win32,2.857142857,3,2,15,,,,,,,,5,06,,,,,,,,,,,6,3.768,0,,,,,,-0.170572917,-0.399739583,1,0,0,3.7682,Pegmatite_rect,14,0,14,0,1,
6307f3c967020d1202332b77,SCN,2024-06-11_13h17.56.717,LearnStrategy,2023.2.3,Win32,2.857142857,3,2,16,,,,,,,,6,06,,,,,,,,,,,2,2.791,0,,,,,,-0.123697917,-0.2421875,1,0,0,2.7913,Basalt_rect,15,0,15,0,1,
6307f3c967020d1202332b77,SCN,2024-06-11_13h17.56.717,LearnStrategy,2023.2.3,Win32,2.857142857,4,1,1,-0.579427083,0.408854167,1,0,0,5.0346,Andesite_06,1,06,6,1,5.035,-0.454427083,-0.236979167,1,0,0,3.6266,Andesite_rect,1,3.627,1,0,0,0,0,1,,,,,,,,,,,,,
6307f3c967020d1202332b77,SCN,2024-06-11_13h17.56.717,LearnStrategy,2023.2.3,Win32,2.857142857,4,1,2,-0.561197917,0.270833333,1,0,0,3.0945,Peridotite_04,7,04,5,1,3.095,-0.134114583,-0.401041667,1,0,0,4.2448,Pegmatite_rect,6,4.245,0,1,0,1,0,1,,,,,,,,,,,,,
6307f3c967020d1202332b77,SCN,2024-06-11_13h17.56.717,LearnStrategy,2023.2.3,Win32,2.857142857,4,1,3,-0.54296875,-0.106770833,1,0,0,4.2654,Peridotite_14,7,14,3,1,4.265,-0.151041667,-0.3984375,1,0,0,6.5349,Pegmatite_rect,6,6.535,0,2,0,2,0,1,,,,,,,,,,,,,
6307f3c967020d1202332b77,SCN,2024-06-11_13h17.56.717,LearnStrategy,2023.2.3,Win32,2.857142857,4,1,4,-0.364583333,-0.263020833,1,0,0,2.4416,Gabbro_11,4,11,2,2,2.442,0.36328125,-0.39453125,1,0,0,3.7172,Pumice_rect,8,3.717,0,3,0,3,0,1,,,,,,,,,,,,,
6307f3c967020d1202332b77,SCN,2024-06-11_13h17.56.717,LearnStrategy,2023.2.3,Win32,2.857142857,4,1,5,-0.557291667,-0.2578125,1,0,0,2.4847,Andesite_10,1,10,2,1,2.485,0.35546875,-0.38671875,1,0,0,2.6746,Pumice_rect,8,2.675,0,4,0,4,0,1,,,,,,,,,,,,,
6307f3c967020d1202332b77,SCN,2024-06-11_13h17.56.717,LearnStrategy,2023.2.3,Win32,2.857142857,4,1,6,-0.244791667,-0.092447917,1,0,0,4.4122,Pumice_06,8,06,3,3,4.412,0.381510417,-0.388020833,1,0,0,2.4711,Pumice_rect,8,2.471,1,5,0,5,0,1,,,,,,,,,,,,,
6307f3c967020d1202332b77,SCN,2024-06-11_13h17.56.717,LearnStrategy,2023.2.3,Win32,2.857142857,4,1,7,-0.229166667,0.102864583,1,0,0,3.3288,Pumice_16,8,16,4,3,3.329,0.446614583,-0.229166667,1,0,0,3.8551,Gabbro_rect,4,3.855,0,6,0,6,0,1,,,,,,,,,,,,,
6307f3c967020d1202332b77,SCN,2024-06-11_13h17.56.717,LearnStrategy,2023.2.3,Win32,2.857142857,4,1,8,0.1171875,0.240885417,1,0,0,3.0239,Obsidian_16,5,16,5,5,3.024,0.39453125,-0.244791667,1,0,0,10.0397,Gabbro_rect,4,10.04,0,7,0,7,0,1,,,,,,,,,,,,,
6307f3c967020d1202332b77,SCN,2024-06-11_13h17.56.717,LearnStrategy,2023.2.3,Win32,2.857142857,4,1,9,-0.3984375,0.078125,1,0,0,6.7471,Obsidian_02,5,02,4,2,6.747,0.416666667,-0.244791667,1,0,0,5.9348,Gabbro_rect,4,5.935,0,8,0,8,0,1,,,,,,,,,,,,,
6307f3c967020d1202332b77,SCN,2024-06-11_13h17.56.717,LearnStrategy,2023.2.3,Win32,2.857142857,4,1,10,-0.095052083,0.102864583,1,0,0,7.2338,Andesite_03,1,03,4,4,7.234,0.096354167,-0.401041667,1,0,0,6.7053,Peridotite_rect,7,6.705,0,9,0,9,0,1,,,,,,,,,,,,,
6307f3c967020d1202332b77,SCN,2024-06-11_13h17.56.717,LearnStrategy,2023.2.3,Win32,2.857142857,4,1,11,-0.423177083,-0.09765625,1,0,0,3.7527,Pegmatite_16,6,16,3,2,3.753,0.114583333,-0.403645833,1,0,0,6.65,Peridotite_rect,7,6.65,0,10,0,10,0,1,,,,,,,,,,,,,
6307f3c967020d1202332b77,SCN,2024-06-11_13h17.56.717,LearnStrategy,2023.2.3,Win32,2.857142857,4,1,12,-0.3828125,-0.109375,1,0,0,3.8644,Pegmatite_16,6,16,3,2,3.864,-0.19921875,-0.38671875,1,0,0,2.5588,Pegmatite_rect,6,2.559,1,11,0,11,0,1,,,,,,,,,,,,,
6307f3c967020d1202332b77,SCN,2024-06-11_13h17.56.717,LearnStrategy,2023.2.3,Win32,2.857142857,4,1,13,0.563802083,0.393229167,1,0,0,5.3314,Diorite_16,3,16,6,8,5.331,-0.157552083,-0.385416667,1,0,0,3.244,Pegmatite_rect,6,3.244,0,12,0,12,0,1,,,,,,,,,,,,,
6307f3c967020d1202332b77,SCN,2024-06-11_13h17.56.717,LearnStrategy,2023.2.3,Win32,2.857142857,4,1,14,-0.552083333,0.384114583,1,0,0,5.8218,Andesite_06,1,06,6,1,5.822,0.0859375,-0.403645833,1,0,0,3.7816,Peridotite_rect,7,3.782,0,13,0,13,0,1,,,,,,,,,,,,,
6307f3c967020d1202332b77,SCN,2024-06-11_13h17.56.717,LearnStrategy,2023.2.3,Win32,2.857142857,4,1,15,-0.5546875,0.266927083,1,0,0,3.1175,Peridotite_04,7,04,5,1,3.118,-0.072916667,-0.393229167,1,0,0,3.0948,Pegmatite_rect,6,3.095,0,14,0,14,0,1,,,,,,,,,,,,,
6307f3c967020d1202332b77,SCN,2024-06-11_13h17.56.717,LearnStrategy,2023.2.3,Win32,2.857142857,4,1,16,-0.057291667,-0.12109375,1,0,0,3.75,Obsidian_14,5,14,3,4,3.75,-0.432291667,-0.401041667,1,0,0,8.2412,Obsidian_rect,5,8.241,1,15,0,15,0,1,,,,,,,,,,,,,
6307f3c967020d1202332b77,SCN,2024-06-11_13h17.56.717,LearnStrategy,2023.2.3,Win32,2.857142857,4,2,1,,,,,,,,1,11,,,,,,,,,,,2,2.941,0,,,,,,-0.1484375,-0.24609375,1,0,0,2.941,Basalt_rect,0,0,0,0,1,
6307f3c967020d1202332b77,SCN,2024-06-11_13h17.56.717,LearnStrategy,2023.2.3,Win32,2.857142857,4,2,2,,,,,,,,3,08,,,,,,,,,,,1,2.409,0,,,,,,-0.34765625,-0.236979167,1,0,0,2.4088,Andesite_rect,1,0,1,0,1,
6307f3c967020d1202332b77,SCN,2024-06-11_13h17.56.717,LearnStrategy,2023.2.3,Win32,2.857142857,4,2,3,,,,,,,,5,11,,,,,,,,,,,4,7.337,0,,,,,,0.358072917,-0.247395833,1,0,0,7.3374,Gabbro_rect,2,0,2,0,1,
6307f3c967020d1202332b77,SCN,2024-06-11_13h17.56.717,LearnStrategy,2023.2.3,Win32,2.857142857,4,2,4,,,,,,,,8,10,,,,,,,,,,,8,3.039,1,,,,,,0.4375,-0.420572917,1,0,0,3.0388,Pumice_rect,3,0,3,0,1,
6307f3c967020d1202332b77,SCN,2024-06-11_13h17.56.717,LearnStrategy,2023.2.3,Win32,2.857142857,4,2,5,,,,,,,,2,09,,,,,,,,,,,1,3.8,0,,,,,,-0.326822917,-0.235677083,1,0,0,3.8,Andesite_rect,4,0,4,0,1,
6307f3c967020d1202332b77,SCN,2024-06-11_13h17.56.717,LearnStrategy,2023.2.3,Win32,2.857142857,4,2,6,,,,,,,,3,14,,,,,,,,,,,3,3.622,1,,,,,,0.178385417,-0.244791667,1,0,0,3.6217,Diorite_rect,5,0,5,0,1,
6307f3c967020d1202332b77,SCN,2024-06-11_13h17.56.717,LearnStrategy,2023.2.3,Win32,2.857142857,4,2,7,,,,,,,,5,07,,,,,,,,,,,7,5.658,0,,,,,,0.069010417,-0.3984375,1,0,0,5.6584,Peridotite_rect,6,0,6,0,1,
6307f3c967020d1202332b77,SCN,2024-06-11_13h17.56.717,LearnStrategy,2023.2.3,Win32,2.857142857,4,2,8,,,,,,,,6,08,,,,,,,,,,,2,9.105,0,,,,,,-0.1484375,-0.24609375,1,0,0,9.1048,Basalt_rect,7,0,7,0,1,
6307f3c967020d1202332b77,SCN,2024-06-11_13h17.56.717,LearnStrategy,2023.2.3,Win32,2.857142857,4,2,9,,,,,,,,6,12,,,,,,,,,,,1,2.495,0,,,,,,-0.3671875,-0.25,1,0,0,2.4949,Andesite_rect,8,0,8,0,1,
6307f3c967020d1202332b77,SCN,2024-06-11_13h17.56.717,LearnStrategy,2023.2.3,Win32,2.857142857,4,2,10,,,,,,,,2,04,,,,,,,,,,,2,2.885,1,,,,,,-0.153645833,-0.25,1,0,0,2.8854,Basalt_rect,9,0,9,0,1,
6307f3c967020d1202332b77,SCN,2024-06-11_13h17.56.717,LearnStrategy,2023.2.3,Win32,2.857142857,4,2,11,,,,,,,,4,09,,,,,,,,,,,2,1.86,0,,,,,,-0.125,-0.240885417,1,0,0,1.8605,Basalt_rect,10,0,10,0,1,
6307f3c967020d1202332b77,SCN,2024-06-11_13h17.56.717,LearnStrategy,2023.2.3,Win32,2.857142857,4,2,12,,,,,,,,7,15,,,,,,,,,,,3,8.825,0,,,,,,0.1171875,-0.248697917,1,0,0,8.8253,Diorite_rect,11,0,11,0,1,
6307f3c967020d1202332b77,SCN,2024-06-11_13h17.56.717,LearnStrategy,2023.2.3,Win32,2.857142857,4,2,13,,,,,,,,8,08,,,,,,,,,,,8,2.985,1,,,,,,0.4296875,-0.397135417,1,0,0,2.9848,Pumice_rect,12,0,12,0,1,
6307f3c967020d1202332b77,SCN,2024-06-11_13h17.56.717,LearnStrategy,2023.2.3,Win32,2.857142857,4,2,14,,,,,,,,1,14,,,,,,,,,,,5,3.862,0,,,,,,-0.401041667,-0.388020833,1,0,0,3.8617,Obsidian_rect,13,0,13,0,1,
6307f3c967020d1202332b77,SCN,2024-06-11_13h17.56.717,LearnStrategy,2023.2.3,Win32,2.857142857,4,2,15,,,,,,,,4,15,,,,,,,,,,,1,3.175,0,,,,,,-0.380208333,-0.23828125,1,0,0,3.1748,Andesite_rect,14,0,14,0,1,
6307f3c967020d1202332b77,SCN,2024-06-11_13h17.56.717,LearnStrategy,2023.2.3,Win32,2.857142857,4,2,16,,,,,,,,7,02,,,,,,,,,,,7,3.814,1,,,,,,0.100260417,-0.391927083,1,0,0,3.8142,Peridotite_rect,15,0,15,0,1,
6307f3c967020d1202332b77,SCN,2024-06-11_13h17.56.717,LearnStrategy,2023.2.3,Win32,2.857142857,5,1,1,-0.55078125,0.407552083,1,0,0,1.8098,Andesite_06,1,06,6,1,1.81,-0.420572917,-0.247395833,1,0,0,2.5298,Andesite_rect,1,2.53,1,0,0,0,0,1,,,,,,,,,,,,,
6307f3c967020d1202332b77,SCN,2024-06-11_13h17.56.717,LearnStrategy,2023.2.3,Win32,2.857142857,5,1,2,-0.549479167,0.223958333,1,0,0,2.4582,Peridotite_04,7,04,5,1,2.458,-0.1484375,-0.407552083,1,0,0,2.5724,Pegmatite_rect,6,2.572,0,1,0,1,0,1,,,,,,,,,,,,,
6307f3c967020d1202332b77,SCN,2024-06-11_13h17.56.717,LearnStrategy,2023.2.3,Win32,2.857142857,5,1,3,-0.583333333,0.072916667,1,0,0,2.4406,Obsidian_10,5,10,4,1,2.441,-0.329427083,-0.395833333,1,0,0,9.486,Obsidian_rect,5,9.486,1,2,0,2,0,1,,,,,,,,,,,,,
6307f3c967020d1202332b77,SCN,2024-06-11_13h17.56.717,LearnStrategy,2023.2.3,Win32,2.857142857,5,1,4,-0.528645833,-0.102864583,1,0,0,2.4521,Peridotite_14,7,14,3,1,2.452,-0.3828125,-0.240885417,1,0,0,3.1235,Andesite_rect,1,3.123,0,3,0,3,0,1,,,,,,,,,,,,,
6307f3c967020d1202332b77,SCN,2024-06-11_13h17.56.717,LearnStrategy,2023.2.3,Win32,2.857142857,5,1,5,-0.533854167,-0.23828125,1,0,0,2.4065,Andesite_10,1,10,2,1,2.407,0.356770833,-0.390625,1,0,0,2.7279,Pumice_rect,8,2.728,0,4,0,4,0,1,,,,,,,,,,,,,
6307f3c967020d1202332b77,SCN,2024-06-11_13h17.56.717,LearnStrategy,2023.2.3,Win32,2.857142857,5,1,6,-0.55859375,-0.391927083,1,0,0,2.641,Diorite_13,3,13,1,1,2.641,0.395833333,-0.240885417,1,0,0,3.7722,Gabbro_rect,4,3.772,0,5,0,5,0,1,,,,,,,,,,,,,
6307f3c967020d1202332b77,SCN,2024-06-11_13h17.56.717,LearnStrategy,2023.2.3,Win32,2.857142857,5,1,7,-0.41015625,-0.397135417,1,0,0,2.4094,Diorite_09,3,09,1,2,2.409,-0.376302083,-0.260416667,1,0,0,3.8604,Andesite_rect,1,3.86,0,6,0,6,0,1,,,,,,,,,,,,,
6307f3c967020d1202332b77,SCN,2024-06-11_13h17.56.717,LearnStrategy,2023.2.3,Win32,2.857142857,5,1,8,0.559895833,-0.098958333,1,0,0,6.1851,Gabbro_16,4,16,3,8,6.185,0.450520833,-0.233072917,1,0,0,2.9269,Gabbro_rect,4,2.927,1,7,0,7,0,1,,,,,,,,,,,,,
6307f3c967020d1202332b77,SCN,2024-06-11_13h17.56.717,LearnStrategy,2023.2.3,Win32,2.857142857,5,1,9,0.546875,0.079427083,1,0,0,2.843,Obsidian_08,5,08,4,8,2.843,-0.384114583,-0.4140625,1,0,0,5.3065,Obsidian_rect,5,5.307,1,8,0,8,0,1,,,,,,,,,,,,,
6307f3c967020d1202332b77,SCN,2024-06-11_13h17.56.717,LearnStrategy,2023.2.3,Win32,2.857142857,5,1,10,0.096354167,0.2578125,1,0,0,5.5078,Obsidian_16,5,16,5,5,5.508,-0.376302083,-0.40234375,1,0,0,3.1588,Obsidian_rect,5,3.159,1,9,0,9,0,1,,,,,,,,,,,,,
6307f3c967020d1202332b77,SCN,2024-06-11_13h17.56.717,LearnStrategy,2023.2.3,Win32,2.857142857,5,1,11,0.259114583,-0.268229167,1,0,0,4.7094,Basalt_08,2,08,2,6,4.709,0.427083333,-0.23828125,1,0,0,1.8265,Gabbro_rect,4,1.827,0,10,0,10,0,1,,,,,,,,,,,,,
6307f3c967020d1202332b77,SCN,2024-06-11_13h17.56.717,LearnStrategy,2023.2.3,Win32,2.857142857,5,1,12,-0.359375,0.252604167,1,0,0,3.1184,Basalt_14,2,14,5,2,3.118,0.3828125,-0.24609375,1,0,0,13.7456,Gabbro_rect,4,13.746,0,11,0,11,0,1,,,,,,,,,,,,,
6307f3c967020d1202332b77,SCN,2024-06-11_13h17.56.717,LearnStrategy,2023.2.3,Win32,2.857142857,5,1,13,0.20703125,0.255208333,1,0,0,3.4083,Gabbro_14,4,14,5,6,3.408,0.095052083,-0.243489583,1,0,0,2.4913,Diorite_rect,3,2.491,0,12,0,12,0,1,,,,,,,,,,,,,
6307f3c967020d1202332b77,SCN,2024-06-11_13h17.56.717,LearnStrategy,2023.2.3,Win32,2.857142857,5,1,14,-0.247395833,0.278645833,1,0,0,2.9527,Peridotite_12,7,12,5,3,2.953,-0.419270833,-0.240885417,1,0,0,2.6422,Andesite_rect,1,2.642,0,13,0,13,0,1,,,,,,,,,,,,,
6307f3c967020d1202332b77,SCN,2024-06-11_13h17.56.717,LearnStrategy,2023.2.3,Win32,2.857142857,5,1,15,0.100260417,-0.095052083,1,0,0,3.9405,Obsidian_09,5,09,3,5,3.941,-0.384114583,-0.397135417,1,0,0,3.2166,Obsidian_rect,5,3.217,1,14,0,14,0,1,,,,,,,,,,,,,
6307f3c967020d1202332b77,SCN,2024-06-11_13h17.56.717,LearnStrategy,2023.2.3,Win32,2.857142857,5,1,16,-0.1875,-0.233072917,1,0,0,5.2866,Gabbro_12,4,12,2,3,5.287,-0.388020833,-0.236979167,1,0,0,4.2782,Andesite_rect,1,4.278,0,15,0,15,0,1,,,,,,,,,,,,,
6307f3c967020d1202332b77,SCN,2024-06-11_13h17.56.717,LearnStrategy,2023.2.3,Win32,2.857142857,5,2,1,,,,,,,,5,12,,,,,,,,,,,5,7.132,1,,,,,,-0.4296875,-0.390625,1,0,0,7.1321,Obsidian_rect,0,0,0,0,1,
6307f3c967020d1202332b77,SCN,2024-06-11_13h17.56.717,LearnStrategy,2023.2.3,Win32,2.857142857,5,2,2,,,,,,,,7,13,,,,,,,,,,,6,15.251,0,,,,,,-0.127604167,-0.403645833,1,0,0,15.2506,Pegmatite_rect,1,0,1,0,1,
6307f3c967020d1202332b77,SCN,2024-06-11_13h17.56.717,LearnStrategy,2023.2.3,Win32,2.857142857,5,2,3,,,,,,,,5,05,,,,,,,,,,,1,12.164,0,,,,,,-0.412760417,-0.23046875,1,0,0,12.1643,Andesite_rect,2,0,2,0,1,
6307f3c967020d1202332b77,SCN,2024-06-11_13h17.56.717,LearnStrategy,2023.2.3,Win32,2.857142857,5,2,4,,,,,,,,6,05,,,,,,,,,,,7,6.243,0,,,,,,0.065104167,-0.40234375,1,0,0,6.2429,Peridotite_rect,3,0,3,0,1,
6307f3c967020d1202332b77,SCN,2024-06-11_13h17.56.717,LearnStrategy,2023.2.3,Win32,2.857142857,5,2,5,,,,,,,,8,04,,,,,,,,,,,8,2.464,1,,,,,,0.328125,-0.38671875,1,0,0,2.4636,Pumice_rect,4,0,4,0,1,
6307f3c967020d1202332b77,SCN,2024-06-11_13h17.56.717,LearnStrategy,2023.2.3,Win32,2.857142857,5,2,6,,,,,,,,4,01,,,,,,,,,,,3,3.8,0,,,,,,0.194010417,-0.243489583,1,0,0,3.8001,Diorite_rect,5,0,5,0,1,
6307f3c967020d1202332b77,SCN,2024-06-11_13h17.56.717,LearnStrategy,2023.2.3,Win32,2.857142857,5,2,7,,,,,,,,6,03,,,,,,,,,,,5,3.746,0,,,,,,-0.338541667,-0.404947917,1,0,0,3.7465,Obsidian_rect,6,0,6,0,1,
6307f3c967020d1202332b77,SCN,2024-06-11_13h17.56.717,LearnStrategy,2023.2.3,Win32,2.857142857,5,2,8,,,,,,,,3,12,,,,,,,,,,,6,3.706,0,,,,,,-0.10546875,-0.401041667,1,0,0,3.7064,Pegmatite_rect,7,0,7,0,1,
6307f3c967020d1202332b77,SCN,2024-06-11_13h17.56.717,LearnStrategy,2023.2.3,Win32,2.857142857,5,2,9,,,,,,,,7,06,,,,,,,,,,,1,3.495,0,,,,,,-0.40234375,-0.24609375,1,0,0,3.4949,Andesite_rect,8,0,8,0,1,
6307f3c967020d1202332b77,SCN,2024-06-11_13h17.56.717,LearnStrategy,2023.2.3,Win32,2.857142857,5,2,10,,,,,,,,3,15,,,,,,,,,,,4,3.163,0,,,,,,0.326822917,-0.252604167,1,0,0,3.1628,Gabbro_rect,9,0,9,0,1,
6307f3c967020d1202332b77,SCN,2024-06-11_13h17.56.717,LearnStrategy,2023.2.3,Win32,2.857142857,5,2,11,,,,,,,,2,05,,,,,,,,,,,2,4.267,1,,,,,,-0.114583333,-0.239583333,1,0,0,4.2672,Basalt_rect,10,0,10,0,1,
6307f3c967020d1202332b77,SCN,2024-06-11_13h17.56.717,LearnStrategy,2023.2.3,Win32,2.857142857,5,2,12,,,,,,,,1,05,,,,,,,,,,,3,3.141,0,,,,,,0.173177083,-0.260416667,1,0,0,3.1407,Diorite_rect,11,0,11,0,1,
6307f3c967020d1202332b77,SCN,2024-06-11_13h17.56.717,LearnStrategy,2023.2.3,Win32,2.857142857,5,2,13,,,,,,,,8,05,,,,,,,,,,,8,9.732,1,,,,,,0.377604167,-0.411458333,1,0,0,9.7322,Pumice_rect,12,0,12,0,1,
6307f3c967020d1202332b77,SCN,2024-06-11_13h17.56.717,LearnStrategy,2023.2.3,Win32,2.857142857,5,2,14,,,,,,,,2,16,,,,,,,,,,,6,3.462,0,,,,,,-0.1015625,-0.408854167,1,0,0,3.4616,Pegmatite_rect,13,0,13,0,1,
6307f3c967020d1202332b77,SCN,2024-06-11_13h17.56.717,LearnStrategy,2023.2.3,Win32,2.857142857,5,2,15,,,,,,,,1,04,,,,,,,,,,,6,4.07,0,,,,,,-0.1171875,-0.403645833,1,0,0,4.07,Pegmatite_rect,14,0,14,0,1,
6307f3c967020d1202332b77,SCN,2024-06-11_13h17.56.717,LearnStrategy,2023.2.3,Win32,2.857142857,5,2,16,,,,,,,,4,13,,,,,,,,,,,3,1.974,0,,,,,,0.12109375,-0.23828125,1,0,0,1.9739,Diorite_rect,15,0,15,0,1,
6307f3c967020d1202332b77,SCN,2024-06-11_13h17.56.717,LearnStrategy,2023.2.3,Win32,2.857142857,6,1,1,0.095052083,0.415364583,1,0,0,2.3364,Andesite_16,1,16,6,5,2.336,-0.391927083,-0.251302083,1,0,0,2.5298,Andesite_rect,1,2.53,1,0,0,0,0,1,,,,,,,,,,,,,
6307f3c967020d1202332b77,SCN,2024-06-11_13h17.56.717,LearnStrategy,2023.2.3,Win32,2.857142857,6,1,2,0.088541667,0.248697917,1,0,0,2.323,Obsidian_16,5,16,5,5,2.323,-0.403645833,-0.404947917,1,0,0,5.3501,Obsidian_rect,5,5.35,1,1,0,1,0,1,,,,,,,,,,,,,
6307f3c967020d1202332b77,SCN,2024-06-11_13h17.56.717,LearnStrategy,2023.2.3,Win32,2.857142857,6,1,3,0.075520833,0.1015625,1,0,0,2.3936,Basalt_11,2,11,4,5,2.394,0.111979167,-0.3984375,1,0,0,4.8068,Peridotite_rect,7,4.807,0,2,0,2,0,1,,,,,,,,,,,,,
6307f3c967020d1202332b77,SCN,2024-06-11_13h17.56.717,LearnStrategy,2023.2.3,Win32,2.857142857,6,1,4,0.079427083,-0.115885417,1,0,0,5.5523,Obsidian_09,5,09,3,5,5.552,0.40625,-0.233072917,1,0,0,8.279,Gabbro_rect,4,8.279,0,3,0,3,0,1,,,,,,,,,,,,,
6307f3c967020d1202332b77,SCN,2024-06-11_13h17.56.717,LearnStrategy,2023.2.3,Win32,2.857142857,6,1,5,0.235677083,-0.0859375,1,0,0,3.0179,Diorite_06,3,06,3,6,3.018,0.1171875,-0.248697917,1,0,0,2.5074,Diorite_rect,3,2.507,1,4,0,4,0,1,,,,,,,,,,,,,
6307f3c967020d1202332b77,SCN,2024-06-11_13h17.56.717,LearnStrategy,2023.2.3,Win32,2.857142857,6,1,6,0.233072917,-0.263020833,1,0,0,6.3647,Basalt_08,2,08,2,6,6.365,0.427083333,-0.256510417,1,0,0,3.5403,Gabbro_rect,4,3.54,0,5,0,5,0,1,,,,,,,,,,,,,
6307f3c967020d1202332b77,SCN,2024-06-11_13h17.56.717,LearnStrategy,2023.2.3,Win32,2.857142857,6,1,7,0.229166667,-0.421875,1,0,0,3.0067,Diorite_10,3,10,1,6,3.007,-0.184895833,-0.384114583,1,0,0,3.747,Pegmatite_rect,6,3.747,0,6,0,6,0,1,,,,,,,,,,,,,
6307f3c967020d1202332b77,SCN,2024-06-11_13h17.56.717,LearnStrategy,2023.2.3,Win32,2.857142857,6,1,8,-0.57421875,-0.078125,1,0,0,7.5473,Peridotite_14,7,14,3,1,7.547,-0.479166667,-0.259114583,1,0,0,7.5536,Andesite_rect,1,7.554,0,7,0,7,0,1,,,,,,,,,,,,,
6307f3c967020d1202332b77,SCN,2024-06-11_13h17.56.717,LearnStrategy,2023.2.3,Win32,2.857142857,6,1,9,-0.364583333,-0.1015625,1,0,0,3.5796,Pegmatite_16,6,16,3,2,3.58,0.141927083,-0.266927083,1,0,0,4.285,Diorite_rect,3,4.285,0,8,0,8,0,1,,,,,,,,,,,,,
6307f3c967020d1202332b77,SCN,2024-06-11_13h17.56.717,LearnStrategy,2023.2.3,Win32,2.857142857,6,1,10,-0.05859375,-0.102864583,1,0,0,3.0923,Obsidian_14,5,14,3,4,3.092,0.481770833,-0.260416667,1,0,0,4.0497,Gabbro_rect,4,4.05,0,9,0,9,0,1,,,,,,,,,,,,,
6307f3c967020d1202332b77,SCN,2024-06-11_13h17.56.717,LearnStrategy,2023.2.3,Win32,2.857142857,6,1,11,-0.381510417,-0.259114583,1,0,0,6.9492,Gabbro_11,4,11,2,2,6.949,0.13671875,-0.25,1,0,0,5.3853,Diorite_rect,3,5.385,0,10,0,10,0,1,,,,,,,,,,,,,
6307f3c967020d1202332b77,SCN,2024-06-11_13h17.56.717,LearnStrategy,2023.2.3,Win32,2.857142857,6,1,12,0.213541667,-0.1015625,1,0,0,5.1339,Diorite_06,3,06,3,6,5.134,0.38671875,-0.244791667,1,0,0,1.8685,Gabbro_rect,4,1.869,0,11,0,11,0,1,,,,,,,,,,,,,
6307f3c967020d1202332b77,SCN,2024-06-11_13h17.56.717,LearnStrategy,2023.2.3,Win32,2.857142857,6,1,13,0.380208333,0.229166667,1,0,0,8.7486,Pegmatite_11,6,11,5,7,8.749,-0.09375,-0.393229167,1,0,0,4.4871,Pegmatite_rect,6,4.487,1,12,0,12,0,1,,,,,,,,,,,,,
6307f3c967020d1202332b77,SCN,2024-06-11_13h17.56.717,LearnStrategy,2023.2.3,Win32,2.857142857,6,1,14,0.5625,0.091145833,1,0,0,2.9958,Obsidian_08,5,08,4,8,2.996,-0.365885417,-0.401041667,1,0,0,5.4267,Obsidian_rect,5,5.427,1,13,0,13,0,1,,,,,,,,,,,,,
6307f3c967020d1202332b77,SCN,2024-06-11_13h17.56.717,LearnStrategy,2023.2.3,Win32,2.857142857,6,1,15,-0.567708333,0.100260417,1,0,0,2.488,Obsidian_10,5,10,4,1,2.488,-0.419270833,-0.41015625,1,0,0,2.5647,Obsidian_rect,5,2.565,1,14,0,14,0,1,,,,,,,,,,,,,
6307f3c967020d1202332b77,SCN,2024-06-11_13h17.56.717,LearnStrategy,2023.2.3,Win32,2.857142857,6,1,16,-0.244791667,0.248697917,1,0,0,10.2777,Peridotite_12,7,12,5,3,10.278,-0.4296875,-0.395833333,1,0,0,3.1916,Obsidian_rect,5,3.192,0,15,0,15,0,1,,,,,,,,,,,,,
6307f3c967020d1202332b77,SCN,2024-06-11_13h17.56.717,LearnStrategy,2023.2.3,Win32,2.857142857,6,2,1,,,,,,,,2,10,,,,,,,,,,,3,2.707,0,,,,,,0.0859375,-0.251302083,1,0,0,2.7068,Diorite_rect,0,0,0,0,1,
6307f3c967020d1202332b77,SCN,2024-06-11_13h17.56.717,LearnStrategy,2023.2.3,Win32,2.857142857,6,2,2,,,,,,,,6,06,,,,,,,,,,,7,3.155,0,,,,,,0.1015625,-0.3828125,1,0,0,3.1547,Peridotite_rect,1,0,1,0,1,
6307f3c967020d1202332b77,SCN,2024-06-11_13h17.56.717,LearnStrategy,2023.2.3,Win32,2.857142857,6,2,3,,,,,,,,6,09,,,,,,,,,,,1,6.031,0,,,,,,-0.384114583,-0.256510417,1,0,0,6.0306,Andesite_rect,2,0,2,0,1,
6307f3c967020d1202332b77,SCN,2024-06-11_13h17.56.717,LearnStrategy,2023.2.3,Win32,2.857142857,6,2,4,,,,,,,,3,07,,,,,,,,,,,7,3.292,0,,,,,,0.141927083,-0.395833333,1,0,0,3.2924,Peridotite_rect,3,0,3,0,1,
6307f3c967020d1202332b77,SCN,2024-06-11_13h17.56.717,LearnStrategy,2023.2.3,Win32,2.857142857,6,2,5,,,,,,,,7,05,,,,,,,,,,,3,2.453,0,,,,,,0.119791667,-0.252604167,1,0,0,2.4529,Diorite_rect,4,0,4,0,1,
6307f3c967020d1202332b77,SCN,2024-06-11_13h17.56.717,LearnStrategy,2023.2.3,Win32,2.857142857,6,2,6,,,,,,,,7,10,,,,,,,,,,,2,4.897,0,,,,,,-0.110677083,-0.243489583,1,0,0,4.8967,Basalt_rect,5,0,5,0,1,
6307f3c967020d1202332b77,SCN,2024-06-11_13h17.56.717,LearnStrategy,2023.2.3,Win32,2.857142857,6,2,7,,,,,,,,4,08,,,,,,,,,,,2,1.83,0,,,,,,-0.096354167,-0.243489583,1,0,0,1.8302,Basalt_rect,6,0,6,0,1,
6307f3c967020d1202332b77,SCN,2024-06-11_13h17.56.717,LearnStrategy,2023.2.3,Win32,2.857142857,6,2,8,,,,,,,,4,03,,,,,,,,,,,3,5.268,0,,,,,,0.087239583,-0.248697917,1,0,0,5.2676,Diorite_rect,7,0,7,0,1,
6307f3c967020d1202332b77,SCN,2024-06-11_13h17.56.717,LearnStrategy,2023.2.3,Win32,2.857142857,6,2,9,,,,,,,,3,11,,,,,,,,,,,3,2.24,1,,,,,,0.092447917,-0.247395833,1,0,0,2.2404,Diorite_rect,8,0,8,0,1,
6307f3c967020d1202332b77,SCN,2024-06-11_13h17.56.717,LearnStrategy,2023.2.3,Win32,2.857142857,6,2,10,,,,,,,,1,09,,,,,,,,,,,3,8.16,0,,,,,,0.130208333,-0.251302083,1,0,0,8.1602,Diorite_rect,9,0,9,0,1,
6307f3c967020d1202332b77,SCN,2024-06-11_13h17.56.717,LearnStrategy,2023.2.3,Win32,2.857142857,6,2,11,,,,,,,,1,07,,,,,,,,,,,7,4.058,0,,,,,,0.067708333,-0.40625,1,0,0,4.0579,Peridotite_rect,10,0,10,0,1,
6307f3c967020d1202332b77,SCN,2024-06-11_13h17.56.717,LearnStrategy,2023.2.3,Win32,2.857142857,6,2,12,,,,,,,,8,02,,,,,,,,,,,8,2.391,1,,,,,,0.40625,-0.41015625,1,0,0,2.3913,Pumice_rect,11,0,11,0,1,
6307f3c967020d1202332b77,SCN,2024-06-11_13h17.56.717,LearnStrategy,2023.2.3,Win32,2.857142857,6,2,13,,,,,,,,5,04,,,,,,,,,,,5,2.451,1,,,,,,-0.381510417,-0.390625,1,0,0,2.4512,Obsidian_rect,12,0,12,0,1,
6307f3c967020d1202332b77,SCN,2024-06-11_13h17.56.717,LearnStrategy,2023.2.3,Win32,2.857142857,6,2,14,,,,,,,,2,12,,,,,,,,,,,8,3.046,0,,,,,,0.3828125,-0.40234375,1,0,0,3.0455,Pumice_rect,13,0,13,0,1,
6307f3c967020d1202332b77,SCN,2024-06-11_13h17.56.717,LearnStrategy,2023.2.3,Win32,2.857142857,6,2,15,,,,,,,,5,06,,,,,,,,,,,1,2.515,0,,,,,,-0.373697917,-0.260416667,1,0,0,2.5146,Andesite_rect,14,0,14,0,1,
6307f3c967020d1202332b77,SCN,2024-06-11_13h17.56.717,LearnStrategy,2023.2.3,Win32,2.857142857,6,2,16,,,,,,,,8,03,,,,,,,,,,,8,2.506,1,,,,,,0.360677083,-0.404947917,1,0,0,2.5064,Pumice_rect,15,0,15,0,1,
6307f3c967020d1202332b77,SCN,2024-06-11_13h17.56.717,LearnStrategy,2023.2.3,Win32,2.857142857,7,1,1,-0.084635417,0.098958333,1,0,0,9.84,Andesite_03,1,03,4,4,9.84,-0.373697917,-0.248697917,1,0,0,3.0231,Andesite_rect,1,3.023,1,0,0,0,0,1,,,,,,,,,,,,,
6307f3c967020d1202332b77,SCN,2024-06-11_13h17.56.717,LearnStrategy,2023.2.3,Win32,2.857142857,7,1,2,-0.4140625,-0.1015625,1,0,0,7.7959,Pegmatite_16,6,16,3,2,7.796,-0.138020833,-0.243489583,1,0,0,2.5031,Basalt_rect,2,2.503,0,1,0,1,0,1,,,,,,,,,,,,,
6307f3c967020d1202332b77,SCN,2024-06-11_13h17.56.717,LearnStrategy,2023.2.3,Win32,2.857142857,7,1,3,-0.229166667,-0.23828125,1,0,0,3.6975,Gabbro_12,4,12,2,3,3.697,-0.130208333,-0.404947917,1,0,0,2.5625,Pegmatite_rect,6,2.563,0,2,0,2,0,1,,,,,,,,,,,,,
6307f3c967020d1202332b77,SCN,2024-06-11_13h17.56.717,LearnStrategy,2023.2.3,Win32,2.857142857,7,1,4,-0.37890625,-0.259114583,1,0,0,3.0773,Gabbro_11,4,11,2,2,3.077,0.365885417,-0.240885417,1,0,0,5.7594,Gabbro_rect,4,5.759,1,3,0,3,0,1,,,,,,,,,,,,,
6307f3c967020d1202332b77,SCN,2024-06-11_13h17.56.717,LearnStrategy,2023.2.3,Win32,2.857142857,7,1,5,0.234375,-0.072916667,1,0,0,3.7259,Diorite_06,3,06,3,6,3.726,0.35546875,-0.256510417,1,0,0,2.5148,Gabbro_rect,4,2.515,0,4,0,4,0,1,,,,,,,,,,,,,
6307f3c967020d1202332b77,SCN,2024-06-11_13h17.56.717,LearnStrategy,2023.2.3,Win32,2.857142857,7,1,6,-0.25,0.25,1,0,0,4.8224,Peridotite_12,7,12,5,3,4.822,0.115885417,-0.252604167,1,0,0,2.4834,Diorite_rect,3,2.483,0,5,0,5,0,1,,,,,,,,,,,,,
6307f3c967020d1202332b77,SCN,2024-06-11_13h17.56.717,LearnStrategy,2023.2.3,Win32,2.857142857,7,1,7,-0.061197917,-0.096354167,1,0,0,5.1588,Obsidian_14,5,14,3,4,5.159,0.356770833,-0.235677083,1,0,0,4.8771,Gabbro_rect,4,4.877,0,6,0,6,0,1,,,,,,,,,,,,,
6307f3c967020d1202332b77,SCN,2024-06-11_13h17.56.717,LearnStrategy,2023.2.3,Win32,2.857142857,7,1,8,0.390625,0.08203125,1,0,0,7.3636,Gabbro_10,4,10,4,7,7.364,0.138020833,-0.39453125,1,0,0,4.456,Peridotite_rect,7,4.456,0,7,0,7,0,1,,,,,,,,,,,,,
6307f3c967020d1202332b77,SCN,2024-06-11_13h17.56.717,LearnStrategy,2023.2.3,Win32,2.857142857,7,1,9,-0.37890625,0.256510417,1,0,0,3.8125,Basalt_14,2,14,5,2,3.813,0.135416667,-0.2578125,1,0,0,4.452,Diorite_rect,3,4.452,0,8,0,8,0,1,,,,,,,,,,,,,
6307f3c967020d1202332b77,SCN,2024-06-11_13h17.56.717,LearnStrategy,2023.2.3,Win32,2.857142857,7,1,10,-0.252604167,-0.083333333,1,0,0,3.5165,Pumice_06,8,06,3,3,3.517,0.397135417,-0.3984375,1,0,0,3.1194,Pumice_rect,8,3.119,1,9,0,9,0,1,,,,,,,,,,,,,
6307f3c967020d1202332b77,SCN,2024-06-11_13h17.56.717,LearnStrategy,2023.2.3,Win32,2.857142857,7,1,11,0.3828125,-0.401041667,1,0,0,7.0279,Pumice_09,8,09,1,7,7.028,0.407552083,-0.401041667,1,0,0,3.2269,Pumice_rect,8,3.227,1,10,0,10,0,1,,,,,,,,,,,,,
6307f3c967020d1202332b77,SCN,2024-06-11_13h17.56.717,LearnStrategy,2023.2.3,Win32,2.857142857,7,1,12,0.091145833,-0.440104167,1,0,0,7.3907,Pumice_15,8,15,1,5,7.391,-0.427083333,-0.264322917,1,0,0,14.8719,Andesite_rect,1,14.872,0,11,0,11,0,1,,,,,,,,,,,,,
6307f3c967020d1202332b77,SCN,2024-06-11_13h17.56.717,LearnStrategy,2023.2.3,Win32,2.857142857,7,1,13,-0.055989583,-0.104166667,1,0,0,2.3849,Obsidian_14,5,14,3,4,2.385,-0.348958333,-0.390625,1,0,0,2.7694,Obsidian_rect,5,2.769,1,12,0,12,0,1,,,,,,,,,,,,,
6307f3c967020d1202332b77,SCN,2024-06-11_13h17.56.717,LearnStrategy,2023.2.3,Win32,2.857142857,7,1,14,-0.11328125,0.118489583,1,0,0,5.271,Andesite_03,1,03,4,4,5.271,-0.37109375,-0.239583333,1,0,0,5.3941,Andesite_rect,1,5.394,1,13,0,13,0,1,,,,,,,,,,,,,
6307f3c967020d1202332b77,SCN,2024-06-11_13h17.56.717,LearnStrategy,2023.2.3,Win32,2.857142857,7,1,15,-0.559895833,-0.274739583,1,0,0,4.6395,Andesite_10,1,10,2,1,4.64,0.350260417,-0.40234375,1,0,0,7.5705,Pumice_rect,8,7.57,0,14,0,14,0,1,,,,,,,,,,,,,
6307f3c967020d1202332b77,SCN,2024-06-11_13h17.56.717,LearnStrategy,2023.2.3,Win32,2.857142857,7,1,16,-0.53125,0.266927083,1,0,0,3.6461,Peridotite_04,7,04,5,1,3.646,0.091145833,-0.408854167,1,0,0,4.9651,Peridotite_rect,7,4.965,1,15,0,15,0,1,,,,,,,,,,,,,
6307f3c967020d1202332b77,SCN,2024-06-11_13h17.56.717,LearnStrategy,2023.2.3,Win32,2.857142857,7,2,1,,,,,,,,8,03,,,,,,,,,,,8,4.968,1,,,,,,0.37109375,-0.40234375,1,0,0,4.9682,Pumice_rect,0,0,0,0,1,
6307f3c967020d1202332b77,SCN,2024-06-11_13h17.56.717,LearnStrategy,2023.2.3,Win32,2.857142857,7,2,2,,,,,,,,5,07,,,,,,,,,,,4,3.101,0,,,,,,0.420572917,-0.244791667,1,0,0,3.1005,Gabbro_rect,1,0,1,0,1,
6307f3c967020d1202332b77,SCN,2024-06-11_13h17.56.717,LearnStrategy,2023.2.3,Win32,2.857142857,7,2,3,,,,,,,,7,15,,,,,,,,,,,3,2.512,0,,,,,,0.104166667,-0.231770833,1,0,0,2.5125,Diorite_rect,2,0,2,0,1,
6307f3c967020d1202332b77,SCN,2024-06-11_13h17.56.717,LearnStrategy,2023.2.3,Win32,2.857142857,7,2,4,,,,,,,,8,05,,,,,,,,,,,8,1.987,1,,,,,,0.37109375,-0.407552083,1,0,0,1.9868,Pumice_rect,3,0,3,0,1,
6307f3c967020d1202332b77,SCN,2024-06-11_13h17.56.717,LearnStrategy,2023.2.3,Win32,2.857142857,7,2,5,,,,,,,,4,09,,,,,,,,,,,4,7.606,1,,,,,,0.365885417,-0.255208333,1,0,0,7.6064,Gabbro_rect,4,0,4,0,1,
6307f3c967020d1202332b77,SCN,2024-06-11_13h17.56.717,LearnStrategy,2023.2.3,Win32,2.857142857,7,2,6,,,,,,,,1,14,,,,,,,,,,,6,3.298,0,,,,,,-0.158854167,-0.388020833,1,0,0,3.2978,Pegmatite_rect,5,0,5,0,1,
6307f3c967020d1202332b77,SCN,2024-06-11_13h17.56.717,LearnStrategy,2023.2.3,Win32,2.857142857,7,2,7,,,,,,,,6,08,,,,,,,,,,,1,2.522,0,,,,,,-0.34765625,-0.243489583,1,0,0,2.5217,Andesite_rect,6,0,6,0,1,
6307f3c967020d1202332b77,SCN,2024-06-11_13h17.56.717,LearnStrategy,2023.2.3,Win32,2.857142857,7,2,8,,,,,,,,3,08,,,,,,,,,,,3,12.78,1,,,,,,0.096354167,-0.247395833,1,0,0,12.7799,Diorite_rect,7,0,7,0,1,
6307f3c967020d1202332b77,SCN,2024-06-11_13h17.56.717,LearnStrategy,2023.2.3,Win32,2.857142857,7,2,9,,,,,,,,2,10,,,,,,,,,,,4,5.068,0,,,,,,0.4140625,-0.265625,1,0,0,5.0676,Gabbro_rect,8,0,8,0,1,
6307f3c967020d1202332b77,SCN,2024-06-11_13h17.56.717,LearnStrategy,2023.2.3,Win32,2.857142857,7,2,10,,,,,,,,2,09,,,,,,,,,,,1,3.664,0,,,,,,-0.3828125,-0.24609375,1,0,0,3.6643,Andesite_rect,9,0,9,0,1,
6307f3c967020d1202332b77,SCN,2024-06-11_13h17.56.717,LearnStrategy,2023.2.3,Win32,2.857142857,7,2,11,,,,,,,,7,05,,,,,,,,,,,3,3.712,0,,,,,,0.184895833,-0.25,1,0,0,3.7117,Diorite_rect,10,0,10,0,1,
6307f3c967020d1202332b77,SCN,2024-06-11_13h17.56.717,LearnStrategy,2023.2.3,Win32,2.857142857,7,2,12,,,,,,,,3,14,,,,,,,,,,,2,2.621,0,,,,,,-0.15234375,-0.234375,1,0,0,2.6209,Basalt_rect,11,0,11,0,1,
6307f3c967020d1202332b77,SCN,2024-06-11_13h17.56.717,LearnStrategy,2023.2.3,Win32,2.857142857,7,2,13,,,,,,,,4,13,,,,,,,,,,,2,2.438,0,,,,,,-0.145833333,-0.248697917,1,0,0,2.4385,Basalt_rect,12,0,12,0,1,
6307f3c967020d1202332b77,SCN,2024-06-11_13h17.56.717,LearnStrategy,2023.2.3,Win32,2.857142857,7,2,14,,,,,,,,6,05,,,,,,,,,,,6,3.697,1,,,,,,-0.119791667,-0.395833333,1,0,0,3.6968,Pegmatite_rect,13,0,13,0,1,
6307f3c967020d1202332b77,SCN,2024-06-11_13h17.56.717,LearnStrategy,2023.2.3,Win32,2.857142857,7,2,15,,,,,,,,1,05,,,,,,,,,,,5,2.602,0,,,,,,-0.451822917,-0.403645833,1,0,0,2.6021,Obsidian_rect,14,0,14,0,1,
6307f3c967020d1202332b77,SCN,2024-06-11_13h17.56.717,LearnStrategy,2023.2.3,Win32,2.857142857,7,2,16,,,,,,,,5,04,,,,,,,,,,,5,2.047,1,,,,,,-0.377604167,-0.3984375,1,0,0,2.0469,Obsidian_rect,15,0,15,0,1,
6307f3c967020d1202332b77,SCN,2024-06-11_13h17.56.717,LearnStrategy,2023.2.3,Win32,2.857142857,8,1,1,-0.108072917,0.411458333,1,0,0,3.5768,Basalt_01,2,01,6,4,3.577,-0.096354167,-0.24609375,1,0,0,2.9334,Basalt_rect,2,2.933,1,0,0,0,0,1,,,,,,,,,,,,,
6307f3c967020d1202332b77,SCN,2024-06-11_13h17.56.717,LearnStrategy,2023.2.3,Win32,2.857142857,8,1,2,-0.084635417,0.266927083,1,0,0,2.9809,Peridotite_08,7,08,5,4,2.981,0.09765625,-0.247395833,1,0,0,5.7157,Diorite_rect,3,5.716,0,1,0,1,0,1,,,,,,,,,,,,,
6307f3c967020d1202332b77,SCN,2024-06-11_13h17.56.717,LearnStrategy,2023.2.3,Win32,2.857142857,8,1,3,0.072916667,0.127604167,1,0,0,7.2675,Basalt_11,2,11,4,5,7.267,0.359375,-0.39453125,1,0,0,6.6883,Pumice_rect,8,6.688,0,2,0,2,0,1,,,,,,,,,,,,,
6307f3c967020d1202332b77,SCN,2024-06-11_13h17.56.717,LearnStrategy,2023.2.3,Win32,2.857142857,8,1,4,-0.08984375,-0.260416667,1,0,0,2.9604,Pegmatite_10,6,10,2,4,2.96,0.127604167,-0.389322917,1,0,0,6.761,Peridotite_rect,7,6.761,0,3,0,3,0,1,,,,,,,,,,,,,
6307f3c967020d1202332b77,SCN,2024-06-11_13h17.56.717,LearnStrategy,2023.2.3,Win32,2.857142857,8,1,5,-0.067708333,-0.4140625,1,0,0,4.2829,Peridotite_16,7,16,1,4,4.283,-0.326822917,-0.256510417,1,0,0,7.0588,Andesite_rect,1,7.059,0,4,0,4,0,1,,,,,,,,,,,,,
6307f3c967020d1202332b77,SCN,2024-06-11_13h17.56.717,LearnStrategy,2023.2.3,Win32,2.857142857,8,1,6,-0.411458333,-0.111979167,1,0,0,2.3367,Pegmatite_16,6,16,3,2,2.337,-0.131510417,-0.24609375,1,0,0,3.799,Basalt_rect,2,3.799,0,5,0,5,0,1,,,,,,,,,,,,,
6307f3c967020d1202332b77,SCN,2024-06-11_13h17.56.717,LearnStrategy,2023.2.3,Win32,2.857142857,8,1,7,0.223958333,0.4140625,1,0,0,3.5734,Diorite_02,3,02,6,6,3.573,0.377604167,-0.266927083,1,0,0,8.5928,Gabbro_rect,4,8.593,0,6,0,6,0,1,,,,,,,,,,,,,
6307f3c967020d1202332b77,SCN,2024-06-11_13h17.56.717,LearnStrategy,2023.2.3,Win32,2.857142857,8,1,8,-0.57421875,0.100260417,1,0,0,3.0858,Obsidian_10,5,10,4,1,3.086,-0.31640625,-0.403645833,1,0,0,2.4924,Obsidian_rect,5,2.492,1,7,0,7,0,1,,,,,,,,,,,,,
6307f3c967020d1202332b77,SCN,2024-06-11_13h17.56.717,LearnStrategy,2023.2.3,Win32,2.857142857,8,1,9,-0.576822917,-0.098958333,1,0,0,2.9943,Peridotite_14,7,14,3,1,2.994,-0.388020833,-0.244791667,1,0,0,1.8932,Andesite_rect,1,1.893,0,8,0,8,0,1,,,,,,,,,,,,,
6307f3c967020d1202332b77,SCN,2024-06-11_13h17.56.717,LearnStrategy,2023.2.3,Win32,2.857142857,8,1,10,0.395833333,0.225260417,1,0,0,5.4195,Pegmatite_11,6,11,5,7,5.419,0.138020833,-0.240885417,1,0,0,5.5918,Diorite_rect,3,5.592,0,9,0,9,0,1,,,,,,,,,,,,,
6307f3c967020d1202332b77,SCN,2024-06-11_13h17.56.717,LearnStrategy,2023.2.3,Win32,2.857142857,8,1,11,0.049479167,-0.428385417,1,0,0,3.4959,Pumice_15,8,15,1,5,3.496,0.393229167,-0.403645833,1,0,0,6.6535,Pumice_rect,8,6.653,1,10,0,10,0,1,,,,,,,,,,,,,
6307f3c967020d1202332b77,SCN,2024-06-11_13h17.56.717,LearnStrategy,2023.2.3,Win32,2.857142857,8,1,12,0.395833333,-0.123697917,1,0,0,4.2157,Pegmatite_07,6,07,3,7,4.216,-0.098958333,-0.3984375,1,0,0,3.141,Pegmatite_rect,6,3.141,1,11,0,11,0,1,,,,,,,,,,,,,
6307f3c967020d1202332b77,SCN,2024-06-11_13h17.56.717,LearnStrategy,2023.2.3,Win32,2.857142857,8,1,13,-0.075520833,0.084635417,1,0,0,2.2374,Andesite_03,1,03,4,4,2.237,0.13671875,-0.239583333,1,0,0,2.3993,Diorite_rect,3,2.399,0,12,0,12,0,1,,,,,,,,,,,,,
6307f3c967020d1202332b77,SCN,2024-06-11_13h17.56.717,LearnStrategy,2023.2.3,Win32,2.857142857,8,1,14,-0.2421875,-0.2734375,1,0,0,2.3083,Gabbro_12,4,12,2,3,2.308,-0.1640625,-0.244791667,1,0,0,3.5559,Basalt_rect,2,3.556,0,13,0,13,0,1,,,,,,,,,,,,,
6307f3c967020d1202332b77,SCN,2024-06-11_13h17.56.717,LearnStrategy,2023.2.3,Win32,2.857142857,8,1,15,-0.391927083,-0.247395833,1,0,0,2.928,Gabbro_11,4,11,2,2,2.928,0.37109375,-0.251302083,1,0,0,2.4657,Gabbro_rect,4,2.466,1,14,0,14,0,1,,,,,,,,,,,,,
6307f3c967020d1202332b77,SCN,2024-06-11_13h17.56.717,LearnStrategy,2023.2.3,Win32,2.857142857,8,1,16,0.513020833,-0.1171875,1,0,0,2.2854,Gabbro_16,4,16,3,8,2.285,-0.3984375,-0.240885417,1,0,0,4.3251,Andesite_rect,1,4.325,0,15,0,15,0,1,,,,,,,,,,,,,
6307f3c967020d1202332b77,SCN,2024-06-11_13h17.56.717,LearnStrategy,2023.2.3,Win32,2.857142857,8,2,1,,,,,,,,6,03,,,,,,,,,,,3,2.71,0,,,,,,0.134114583,-0.23828125,1,0,0,2.7101,Diorite_rect,0,0,0,0,1,
6307f3c967020d1202332b77,SCN,2024-06-11_13h17.56.717,LearnStrategy,2023.2.3,Win32,2.857142857,8,2,2,,,,,,,,4,03,,,,,,,,,,,4,6.619,1,,,,,,0.3671875,-0.25390625,1,0,0,6.6186,Gabbro_rect,1,0,1,0,1,
6307f3c967020d1202332b77,SCN,2024-06-11_13h17.56.717,LearnStrategy,2023.2.3,Win32,2.857142857,8,2,3,,,,,,,,3,15,,,,,,,,,,,3,2.433,1,,,,,,0.16015625,-0.24609375,1,0,0,2.4326,Diorite_rect,2,0,2,0,1,
6307f3c967020d1202332b77,SCN,2024-06-11_13h17.56.717,LearnStrategy,2023.2.3,Win32,2.857142857,8,2,4,,,,,,,,8,08,,,,,,,,,,,8,2.483,1,,,,,,0.466145833,-0.381510417,1,0,0,2.4835,Pumice_rect,3,0,3,0,1,
6307f3c967020d1202332b77,SCN,2024-06-11_13h17.56.717,LearnStrategy,2023.2.3,Win32,2.857142857,8,2,5,,,,,,,,2,12,,,,,,,,,,,8,1.763,0,,,,,,0.430989583,-0.388020833,1,0,0,1.7632,Pumice_rect,4,0,4,0,1,
6307f3c967020d1202332b77,SCN,2024-06-11_13h17.56.717,LearnStrategy,2023.2.3,Win32,2.857142857,8,2,6,,,,,,,,7,10,,,,,,,,,,,6,4.447,0,,,,,,-0.16796875,-0.41015625,1,0,0,4.4471,Pegmatite_rect,5,0,5,0,1,
6307f3c967020d1202332b77,SCN,2024-06-11_13h17.56.717,LearnStrategy,2023.2.3,Win32,2.857142857,8,2,7,,,,,,,,6,09,,,,,,,,,,,7,4.855,0,,,,,,0.09765625,-0.399739583,1,0,0,4.8551,Peridotite_rect,6,0,6,0,1,
6307f3c967020d1202332b77,SCN,2024-06-11_13h17.56.717,LearnStrategy,2023.2.3,Win32,2.857142857,8,2,8,,,,,,,,5,06,,,,,,,,,,,1,3.56,0,,,,,,-0.432291667,-0.25390625,1,0,0,3.5601,Andesite_rect,7,0,7,0,1,
6307f3c967020d1202332b77,SCN,2024-06-11_13h17.56.717,LearnStrategy,2023.2.3,Win32,2.857142857,8,2,9,,,,,,,,8,02,,,,,,,,,,,8,2.4,1,,,,,,0.440104167,-0.395833333,1,0,0,2.3999,Pumice_rect,8,0,8,0,1,
6307f3c967020d1202332b77,SCN,2024-06-11_13h17.56.717,LearnStrategy,2023.2.3,Win32,2.857142857,8,2,10,,,,,,,,7,06,,,,,,,,,,,3,4.69,0,,,,,,0.109375,-0.244791667,1,0,0,4.69,Diorite_rect,9,0,9,0,1,
6307f3c967020d1202332b77,SCN,2024-06-11_13h17.56.717,LearnStrategy,2023.2.3,Win32,2.857142857,8,2,11,,,,,,,,3,11,,,,,,,,,,,6,3.042,0,,,,,,-0.140625,-0.404947917,1,0,0,3.0419,Pegmatite_rect,10,0,10,0,1,
6307f3c967020d1202332b77,SCN,2024-06-11_13h17.56.717,LearnStrategy,2023.2.3,Win32,2.857142857,8,2,12,,,,,,,,2,16,,,,,,,,,,,2,5.862,1,,,,,,-0.140625,-0.260416667,1,0,0,5.8625,Basalt_rect,11,0,11,0,1,
6307f3c967020d1202332b77,SCN,2024-06-11_13h17.56.717,LearnStrategy,2023.2.3,Win32,2.857142857,8,2,13,,,,,,,,1,09,,,,,,,,,,,2,5.968,0,,,,,,-0.063802083,-0.260416667,1,0,0,5.9677,Basalt_rect,12,0,12,0,1,
6307f3c967020d1202332b77,SCN,2024-06-11_13h17.56.717,LearnStrategy,2023.2.3,Win32,2.857142857,8,2,14,,,,,,,,4,01,,,,,,,,,,,1,4.486,0,,,,,,-0.444010417,-0.264322917,1,0,0,4.486,Andesite_rect,13,0,13,0,1,
6307f3c967020d1202332b77,SCN,2024-06-11_13h17.56.717,LearnStrategy,2023.2.3,Win32,2.857142857,8,2,15,,,,,,,,5,12,,,,,,,,,,,5,2.392,1,,,,,,-0.451822917,-0.404947917,1,0,0,2.3922,Obsidian_rect,14,0,14,0,1,
6307f3c967020d1202332b77,SCN,2024-06-11_13h17.56.717,LearnStrategy,2023.2.3,Win32,2.857142857,8,2,16,,,,,,,,1,11,,,,,,,,,,,7,5.893,0,,,,,,0.119791667,-0.401041667,1,0,0,5.8932,Peridotite_rect,15,0,15,0,1,
6307f3c967020d1202332b77,SCN,2024-06-11_13h17.56.717,LearnStrategy,2023.2.3,Win32,2.857142857,9,1,1,-0.229166667,0.39453125,1,0,0,2.9758,Pegmatite_15,6,15,6,3,2.976,-0.442708333,-0.239583333,1,0,0,2.5703,Andesite_rect,1,2.57,0,0,0,0,0,1,,,,,,,,,,,,,
6307f3c967020d1202332b77,SCN,2024-06-11_13h17.56.717,LearnStrategy,2023.2.3,Win32,2.857142857,9,1,2,-0.24609375,0.10546875,1,0,0,2.3265,Pumice_16,8,16,4,3,2.327,0.38671875,-0.244791667,1,0,0,6.5087,Gabbro_rect,4,6.509,0,1,0,1,0,1,,,,,,,,,,,,,
6307f3c967020d1202332b77,SCN,2024-06-11_13h17.56.717,LearnStrategy,2023.2.3,Win32,2.857142857,9,1,3,-0.092447917,0.2421875,1,0,0,11.104,Peridotite_08,7,08,5,4,11.104,0.375,-0.399739583,1,0,0,3.9194,Pumice_rect,8,3.919,0,2,0,2,0,1,,,,,,,,,,,,,
6307f3c967020d1202332b77,SCN,2024-06-11_13h17.56.717,LearnStrategy,2023.2.3,Win32,2.857142857,9,1,4,-0.3828125,0.078125,1,0,0,4.0756,Obsidian_02,5,02,4,2,4.076,-0.440104167,-0.393229167,1,0,0,5.3562,Obsidian_rect,5,5.356,1,3,0,3,0,1,,,,,,,,,,,,,
6307f3c967020d1202332b77,SCN,2024-06-11_13h17.56.717,LearnStrategy,2023.2.3,Win32,2.857142857,9,1,5,0.40234375,-0.10546875,1,0,0,3.4645,Pegmatite_07,6,07,3,7,3.465,-0.096354167,-0.395833333,1,0,0,3.2137,Pegmatite_rect,6,3.214,1,4,0,4,0,1,,,,,,,,,,,,,
6307f3c967020d1202332b77,SCN,2024-06-11_13h17.56.717,LearnStrategy,2023.2.3,Win32,2.857142857,9,1,6,0.390625,0.069010417,1,0,0,3.838,Gabbro_10,4,10,4,7,3.838,0.345052083,-0.415364583,1,0,0,2.6028,Pumice_rect,8,2.603,0,5,0,5,0,1,,,,,,,,,,,,,
6307f3c967020d1202332b77,SCN,2024-06-11_13h17.56.717,LearnStrategy,2023.2.3,Win32,2.857142857,9,1,7,0.365885417,0.263020833,1,0,0,2.3005,Pegmatite_11,6,11,5,7,2.301,-0.130208333,-0.401041667,1,0,0,2.5569,Pegmatite_rect,6,2.557,1,6,0,6,0,1,,,,,,,,,,,,,
6307f3c967020d1202332b77,SCN,2024-06-11_13h17.56.717,LearnStrategy,2023.2.3,Win32,2.857142857,9,1,8,-0.255208333,-0.252604167,1,0,0,4.2386,Gabbro_12,4,12,2,3,4.239,-0.2109375,-0.233072917,1,0,0,3.6778,Basalt_rect,2,3.678,0,7,0,7,0,1,,,,,,,,,,,,,
6307f3c967020d1202332b77,SCN,2024-06-11_13h17.56.717,LearnStrategy,2023.2.3,Win32,2.857142857,9,1,9,0.252604167,-0.110677083,1,0,0,4.2865,Diorite_06,3,06,3,6,4.286,0.424479167,-0.235677083,1,0,0,2.4519,Gabbro_rect,4,2.452,0,8,0,8,0,1,,,,,,,,,,,,,
6307f3c967020d1202332b77,SCN,2024-06-11_13h17.56.717,LearnStrategy,2023.2.3,Win32,2.857142857,9,1,10,-0.057291667,0.272135417,1,0,0,4.804,Peridotite_08,7,08,5,4,4.804,0.364583333,-0.404947917,1,0,0,2.7486,Pumice_rect,8,2.749,0,9,0,9,0,1,,,,,,,,,,,,,
6307f3c967020d1202332b77,SCN,2024-06-11_13h17.56.717,LearnStrategy,2023.2.3,Win32,2.857142857,9,1,11,-0.561197917,0.259114583,1,0,0,3.5377,Peridotite_04,7,04,5,1,3.538,-0.143229167,-0.401041667,1,0,0,3.1791,Pegmatite_rect,6,3.179,0,10,0,10,0,1,,,,,,,,,,,,,
6307f3c967020d1202332b77,SCN,2024-06-11_13h17.56.717,LearnStrategy,2023.2.3,Win32,2.857142857,9,1,12,0.076822917,0.260416667,1,0,0,4.8798,Obsidian_16,5,16,5,5,4.88,-0.40234375,-0.403645833,1,0,0,7.8434,Obsidian_rect,5,7.843,1,11,0,11,0,1,,,,,,,,,,,,,
6307f3c967020d1202332b77,SCN,2024-06-11_13h17.56.717,LearnStrategy,2023.2.3,Win32,2.857142857,9,1,13,0.3828125,-0.092447917,1,0,0,3.0651,Pegmatite_07,6,07,3,7,3.065,-0.36328125,-0.235677083,1,0,0,3.7185,Andesite_rect,1,3.718,0,12,0,12,0,1,,,,,,,,,,,,,
6307f3c967020d1202332b77,SCN,2024-06-11_13h17.56.717,LearnStrategy,2023.2.3,Win32,2.857142857,9,1,14,-0.059895833,0.095052083,1,0,0,3.345,Andesite_03,1,03,4,4,3.345,0.2265625,-0.260416667,1,0,0,4.4816,Diorite_rect,3,4.482,0,13,0,13,0,1,,,,,,,,,,,,,
6307f3c967020d1202332b77,SCN,2024-06-11_13h17.56.717,LearnStrategy,2023.2.3,Win32,2.857142857,9,1,15,0.41796875,0.08984375,1,0,0,3.349,Gabbro_10,4,10,4,7,3.349,0.162760417,-0.25390625,1,0,0,3.7989,Diorite_rect,3,3.799,0,14,0,14,0,1,,,,,,,,,,,,,
6307f3c967020d1202332b77,SCN,2024-06-11_13h17.56.717,LearnStrategy,2023.2.3,Win32,2.857142857,9,1,16,0.2421875,0.2421875,1,0,0,4.0785,Gabbro_14,4,14,5,6,4.078,0.114583333,-0.247395833,1,0,0,4.6004,Diorite_rect,3,4.6,0,15,0,15,0,1,,,,,,,,,,,,,
6307f3c967020d1202332b77,SCN,2024-06-11_13h17.56.717,LearnStrategy,2023.2.3,Win32,2.857142857,9,2,1,,,,,,,,1,04,,,,,,,,,,,1,15.371,1,,,,,,-0.40625,-0.259114583,1,0,0,15.371,Andesite_rect,0,0,0,0,1,
6307f3c967020d1202332b77,SCN,2024-06-11_13h17.56.717,LearnStrategy,2023.2.3,Win32,2.857142857,9,2,2,,,,,,,,8,04,,,,,,,,,,,8,2.594,1,,,,,,0.3125,-0.385416667,1,0,0,2.5944,Pumice_rect,1,0,1,0,1,
6307f3c967020d1202332b77,SCN,2024-06-11_13h17.56.717,LearnStrategy,2023.2.3,Win32,2.857142857,9,2,3,,,,,,,,7,13,,,,,,,,,,,3,4.141,0,,,,,,0.13671875,-0.26171875,1,0,0,4.141,Diorite_rect,2,0,2,0,1,
6307f3c967020d1202332b77,SCN,2024-06-11_13h17.56.717,LearnStrategy,2023.2.3,Win32,2.857142857,9,2,4,,,,,,,,2,04,,,,,,,,,,,4,2.921,0,,,,,,0.393229167,-0.235677083,1,0,0,2.9209,Gabbro_rect,3,0,3,0,1,
6307f3c967020d1202332b77,SCN,2024-06-11_13h17.56.717,LearnStrategy,2023.2.3,Win32,2.857142857,9,2,5,,,,,,,,5,05,,,,,,,,,,,6,4.328,0,,,,,,-0.10546875,-0.3984375,1,0,0,4.3278,Pegmatite_rect,4,0,4,0,1,
6307f3c967020d1202332b77,SCN,2024-06-11_13h17.56.717,LearnStrategy,2023.2.3,Win32,2.857142857,9,2,6,,,,,,,,6,12,,,,,,,,,,,7,2.409,0,,,,,,0.18359375,-0.403645833,1,0,0,2.4088,Peridotite_rect,5,0,5,0,1,
6307f3c967020d1202332b77,SCN,2024-06-11_13h17.56.717,LearnStrategy,2023.2.3,Win32,2.857142857,9,2,7,,,,,,,,5,11,,,,,,,,,,,5,5.86,1,,,,,,-0.393229167,-0.39453125,1,0,0,5.8604,Obsidian_rect,6,0,6,0,1,
6307f3c967020d1202332b77,SCN,2024-06-11_13h17.56.717,LearnStrategy,2023.2.3,Win32,2.857142857,9,2,8,,,,,,,,2,05,,,,,,,,,,,4,2.463,0,,,,,,0.434895833,-0.2421875,1,0,0,2.4633,Gabbro_rect,7,0,7,0,1,
6307f3c967020d1202332b77,SCN,2024-06-11_13h17.56.717,LearnStrategy,2023.2.3,Win32,2.857142857,9,2,9,,,,,,,,3,12,,,,,,,,,,,3,10.297,1,,,,,,0.141927083,-0.234375,1,0,0,10.2967,Diorite_rect,8,0,8,0,1,
6307f3c967020d1202332b77,SCN,2024-06-11_13h17.56.717,LearnStrategy,2023.2.3,Win32,2.857142857,9,2,10,,,,,,,,1,07,,,,,,,,,,,3,1.801,0,,,,,,0.126302083,-0.244791667,1,0,0,1.801,Diorite_rect,9,0,9,0,1,
6307f3c967020d1202332b77,SCN,2024-06-11_13h17.56.717,LearnStrategy,2023.2.3,Win32,2.857142857,9,2,11,,,,,,,,3,07,,,,,,,,,,,3,2.632,1,,,,,,0.092447917,-0.2421875,1,0,0,2.6319,Diorite_rect,10,0,10,0,1,
6307f3c967020d1202332b77,SCN,2024-06-11_13h17.56.717,LearnStrategy,2023.2.3,Win32,2.857142857,9,2,12,,,,,,,,4,08,,,,,,,,,,,8,4.418,0,,,,,,0.411458333,-0.403645833,1,0,0,4.4179,Pumice_rect,11,0,11,0,1,
6307f3c967020d1202332b77,SCN,2024-06-11_13h17.56.717,LearnStrategy,2023.2.3,Win32,2.857142857,9,2,13,,,,,,,,4,15,,,,,,,,,,,4,7.362,1,,,,,,0.412760417,-0.248697917,1,0,0,7.3621,Gabbro_rect,12,0,12,0,1,
6307f3c967020d1202332b77,SCN,2024-06-11_13h17.56.717,LearnStrategy,2023.2.3,Win32,2.857142857,9,2,14,,,,,,,,6,06,,,,,,,,,,,1,6.477,0,,,,,,-0.381510417,-0.243489583,1,0,0,6.4765,Andesite_rect,13,0,13,0,1,
6307f3c967020d1202332b77,SCN,2024-06-11_13h17.56.717,LearnStrategy,2023.2.3,Win32,2.857142857,9,2,15,,,,,,,,7,02,,,,,,,,,,,6,5.414,0,,,,,,-0.095052083,-0.399739583,1,0,0,5.4144,Pegmatite_rect,14,0,14,0,1,
6307f3c967020d1202332b77,SCN,2024-06-11_13h17.56.717,LearnStrategy,2023.2.3,Win32,2.857142857,9,2,16,,,,,,,,8,10,,,,,,,,,,,8,3.064,1,,,,,,0.421875,-0.40625,1,0,0,3.0638,Pumice_rect,15,0,15,0,1,
6307f3c967020d1202332b77,SCN,2024-06-11_13h17.56.717,LearnStrategy,2023.2.3,Win32,2.857142857,,,,,,,,,,,,,,,,,,,,,,,,,,,,,,,,,,,,,,,,,,,0
6307f3c967020d1202332b77,SCN,2024-06-11_13h17.56.717,LearnStrategy,2023.2.3,Win32,2.857142857,,,,,,,,,,,,,,,,,,,,,,,,,,,,,,,,,,,,,,,,,,,
6307f3c967020d1202332b77,SCN,2024-06-11_13h17.56.717,LearnStrategy,2023.2.3,Win32,2.857142857,,,,,,,,,,,3,13,1,1,,,,,,,,,,,,,,,,,,,,,,,,,,,,,
6307f3c967020d1202332b77,SCN,2024-06-11_13h17.56.717,LearnStrategy,2023.2.3,Win32,2.857142857,,,,,,,,,,,3,09,1,2,,,,,,,,,,,,,,,,,,,,,,,,,,,,,
6307f3c967020d1202332b77,SCN,2024-06-11_13h17.56.717,LearnStrategy,2023.2.3,Win32,2.857142857,,,,,,,,,,,1,02,1,3,,,,,,,,,,,,,,,,,,,,,,,,,,,,,
6307f3c967020d1202332b77,SCN,2024-06-11_13h17.56.717,LearnStrategy,2023.2.3,Win32,2.857142857,,,,,,,,,,,7,16,1,4,,,,,,,,,,,,,,,,,,,,,,,,,,,,,
6307f3c967020d1202332b77,SCN,2024-06-11_13h17.56.717,LearnStrategy,2023.2.3,Win32,2.857142857,,,,,,,,,,,8,15,1,5,,,,,,,,,,,,,,,,,,,,,,,,,,,,,
6307f3c967020d1202332b77,SCN,2024-06-11_13h17.56.717,LearnStrategy,2023.2.3,Win32,2.857142857,,,,,,,,,,,3,10,1,6,,,,,,,,,,,,,,,,,,,,,,,,,,,,,
6307f3c967020d1202332b77,SCN,2024-06-11_13h17.56.717,LearnStrategy,2023.2.3,Win32,2.857142857,,,,,,,,,,,8,09,1,7,,,,,,,,,,,,,,,,,,,,,,,,,,,,,
6307f3c967020d1202332b77,SCN,2024-06-11_13h17.56.717,LearnStrategy,2023.2.3,Win32,2.857142857,,,,,,,,,,,7,07,1,8,,,,,,,,,,,,,,,,,,,,,,,,,,,,,
6307f3c967020d1202332b77,SCN,2024-06-11_13h17.56.717,LearnStrategy,2023.2.3,Win32,2.857142857,,,,,,,,,,,1,10,2,1,,,,,,,,,,,,,,,,,,,,,,,,,,,,,
6307f3c967020d1202332b77,SCN,2024-06-11_13h17.56.717,LearnStrategy,2023.2.3,Win32,2.857142857,,,,,,,,,,,4,11,2,2,,,,,,,,,,,,,,,,,,,,,,,,,,,,,
6307f3c967020d1202332b77,SCN,2024-06-11_13h17.56.717,LearnStrategy,2023.2.3,Win32,2.857142857,,,,,,,,,,,4,12,2,3,,,,,,,,,,,,,,,,,,,,,,,,,,,,,
6307f3c967020d1202332b77,SCN,2024-06-11_13h17.56.717,LearnStrategy,2023.2.3,Win32,2.857142857,,,,,,,,,,,6,10,2,4,,,,,,,,,,,,,,,,,,,,,,,,,,,,,
6307f3c967020d1202332b77,SCN,2024-06-11_13h17.56.717,LearnStrategy,2023.2.3,Win32,2.857142857,,,,,,,,,,,2,02,2,5,,,,,,,,,,,,,,,,,,,,,,,,,,,,,
6307f3c967020d1202332b77,SCN,2024-06-11_13h17.56.717,LearnStrategy,2023.2.3,Win32,2.857142857,,,,,,,,,,,2,08,2,6,,,,,,,,,,,,,,,,,,,,,,,,,,,,,
6307f3c967020d1202332b77,SCN,2024-06-11_13h17.56.717,LearnStrategy,2023.2.3,Win32,2.857142857,,,,,,,,,,,8,14,2,7,,,,,,,,,,,,,,,,,,,,,,,,,,,,,
6307f3c967020d1202332b77,SCN,2024-06-11_13h17.56.717,LearnStrategy,2023.2.3,Win32,2.857142857,,,,,,,,,,,1,01,2,8,,,,,,,,,,,,,,,,,,,,,,,,,,,,,
6307f3c967020d1202332b77,SCN,2024-06-11_13h17.56.717,LearnStrategy,2023.2.3,Win32,2.857142857,,,,,,,,,,,7,14,3,1,,,,,,,,,,,,,,,,,,,,,,,,,,,,,
6307f3c967020d1202332b77,SCN,2024-06-11_13h17.56.717,LearnStrategy,2023.2.3,Win32,2.857142857,,,,,,,,,,,6,16,3,2,,,,,,,,,,,,,,,,,,,,,,,,,,,,,
6307f3c967020d1202332b77,SCN,2024-06-11_13h17.56.717,LearnStrategy,2023.2.3,Win32,2.857142857,,,,,,,,,,,8,06,3,3,,,,,,,,,,,,,,,,,,,,,,,,,,,,,
6307f3c967020d1202332b77,SCN,2024-06-11_13h17.56.717,LearnStrategy,2023.2.3,Win32,2.857142857,,,,,,,,,,,5,14,3,4,,,,,,,,,,,,,,,,,,,,,,,,,,,,,
6307f3c967020d1202332b77,SCN,2024-06-11_13h17.56.717,LearnStrategy,2023.2.3,Win32,2.857142857,,,,,,,,,,,5,09,3,5,,,,,,,,,,,,,,,,,,,,,,,,,,,,,
6307f3c967020d1202332b77,SCN,2024-06-11_13h17.56.717,LearnStrategy,2023.2.3,Win32,2.857142857,,,,,,,,,,,3,06,3,6,,,,,,,,,,,,,,,,,,,,,,,,,,,,,
6307f3c967020d1202332b77,SCN,2024-06-11_13h17.56.717,LearnStrategy,2023.2.3,Win32,2.857142857,,,,,,,,,,,6,07,3,7,,,,,,,,,,,,,,,,,,,,,,,,,,,,,
6307f3c967020d1202332b77,SCN,2024-06-11_13h17.56.717,LearnStrategy,2023.2.3,Win32,2.857142857,,,,,,,,,,,4,16,3,8,,,,,,,,,,,,,,,,,,,,,,,,,,,,,
6307f3c967020d1202332b77,SCN,2024-06-11_13h17.56.717,LearnStrategy,2023.2.3,Win32,2.857142857,,,,,,,,,,,5,10,4,1,,,,,,,,,,,,,,,,,,,,,,,,,,,,,
6307f3c967020d1202332b77,SCN,2024-06-11_13h17.56.717,LearnStrategy,2023.2.3,Win32,2.857142857,,,,,,,,,,,5,02,4,2,,,,,,,,,,,,,,,,,,,,,,,,,,,,,
6307f3c967020d1202332b77,SCN,2024-06-11_13h17.56.717,LearnStrategy,2023.2.3,Win32,2.857142857,,,,,,,,,,,8,16,4,3,,,,,,,,,,,,,,,,,,,,,,,,,,,,,
6307f3c967020d1202332b77,SCN,2024-06-11_13h17.56.717,LearnStrategy,2023.2.3,Win32,2.857142857,,,,,,,,,,,1,03,4,4,,,,,,,,,,,,,,,,,,,,,,,,,,,,,
6307f3c967020d1202332b77,SCN,2024-06-11_13h17.56.717,LearnStrategy,2023.2.3,Win32,2.857142857,,,,,,,,,,,2,11,4,5,,,,,,,,,,,,,,,,,,,,,,,,,,,,,
6307f3c967020d1202332b77,SCN,2024-06-11_13h17.56.717,LearnStrategy,2023.2.3,Win32,2.857142857,,,,,,,,,,,2,06,4,6,,,,,,,,,,,,,,,,,,,,,,,,,,,,,
6307f3c967020d1202332b77,SCN,2024-06-11_13h17.56.717,LearnStrategy,2023.2.3,Win32,2.857142857,,,,,,,,,,,4,10,4,7,,,,,,,,,,,,,,,,,,,,,,,,,,,,,
6307f3c967020d1202332b77,SCN,2024-06-11_13h17.56.717,LearnStrategy,2023.2.3,Win32,2.857142857,,,,,,,,,,,5,08,4,8,,,,,,,,,,,,,,,,,,,,,,,,,,,,,
6307f3c967020d1202332b77,SCN,2024-06-11_13h17.56.717,LearnStrategy,2023.2.3,Win32,2.857142857,,,,,,,,,,,7,04,5,1,,,,,,,,,,,,,,,,,,,,,,,,,,,,,
6307f3c967020d1202332b77,SCN,2024-06-11_13h17.56.717,LearnStrategy,2023.2.3,Win32,2.857142857,,,,,,,,,,,2,14,5,2,,,,,,,,,,,,,,,,,,,,,,,,,,,,,
6307f3c967020d1202332b77,SCN,2024-06-11_13h17.56.717,LearnStrategy,2023.2.3,Win32,2.857142857,,,,,,,,,,,7,12,5,3,,,,,,,,,,,,,,,,,,,,,,,,,,,,,
6307f3c967020d1202332b77,SCN,2024-06-11_13h17.56.717,LearnStrategy,2023.2.3,Win32,2.857142857,,,,,,,,,,,7,08,5,4,,,,,,,,,,,,,,,,,,,,,,,,,,,,,
6307f3c967020d1202332b77,SCN,2024-06-11_13h17.56.717,LearnStrategy,2023.2.3,Win32,2.857142857,,,,,,,,,,,5,16,5,5,,,,,,,,,,,,,,,,,,,,,,,,,,,,,
6307f3c967020d1202332b77,SCN,2024-06-11_13h17.56.717,LearnStrategy,2023.2.3,Win32,2.857142857,,,,,,,,,,,4,14,5,6,,,,,,,,,,,,,,,,,,,,,,,,,,,,,
6307f3c967020d1202332b77,SCN,2024-06-11_13h17.56.717,LearnStrategy,2023.2.3,Win32,2.857142857,,,,,,,,,,,6,11,5,7,,,,,,,,,,,,,,,,,,,,,,,,,,,,,
6307f3c967020d1202332b77,SCN,2024-06-11_13h17.56.717,LearnStrategy,2023.2.3,Win32,2.857142857,,,,,,,,,,,8,13,5,8,,,,,,,,,,,,,,,,,,,,,,,,,,,,,
6307f3c967020d1202332b77,SCN,2024-06-11_13h17.56.717,LearnStrategy,2023.2.3,Win32,2.857142857,,,,,,,,,,,1,06,6,1,,,,,,,,,,,,,,,,,,,,,,,,,,,,,
6307f3c967020d1202332b77,SCN,2024-06-11_13h17.56.717,LearnStrategy,2023.2.3,Win32,2.857142857,,,,,,,,,,,4,05,6,2,,,,,,,,,,,,,,,,,,,,,,,,,,,,,
6307f3c967020d1202332b77,SCN,2024-06-11_13h17.56.717,LearnStrategy,2023.2.3,Win32,2.857142857,,,,,,,,,,,6,15,6,3,,,,,,,,,,,,,,,,,,,,,,,,,,,,,
6307f3c967020d1202332b77,SCN,2024-06-11_13h17.56.717,LearnStrategy,2023.2.3,Win32,2.857142857,,,,,,,,,,,2,01,6,4,,,,,,,,,,,,,,,,,,,,,,,,,,,,,
6307f3c967020d1202332b77,SCN,2024-06-11_13h17.56.717,LearnStrategy,2023.2.3,Win32,2.857142857,,,,,,,,,,,1,16,6,5,,,,,,,,,,,,,,,,,,,,,,,,,,,,,
6307f3c967020d1202332b77,SCN,2024-06-11_13h17.56.717,LearnStrategy,2023.2.3,Win32,2.857142857,,,,,,,,,,,3,02,6,6,,,,,,,,,,,,,,,,,,,,,,,,,,,,,
6307f3c967020d1202332b77,SCN,2024-06-11_13h17.56.717,LearnStrategy,2023.2.3,Win32,2.857142857,,,,,,,,,,,6,13,6,7,,,,,,,,,,,,,,,,,,,,,,,,,,,,,
6307f3c967020d1202332b77,SCN,2024-06-11_13h17.56.717,LearnStrategy,2023.2.3,Win32,2.857142857,,,,,,,,,,,3,16,6,8,,,,,,,,,,,,,,,,,,,,,,,,,,,,,