participant,condition,date,expName,psychopyVersion,OS,frameRate,block,phase,trial,learn_mouse.x,learn_mouse.y,learn_mouse.leftButton,learn_mouse.midButton,learn_mouse.rightButton,learn_mouse.time,learn_mouse.clicked_name,cat,token,row,col,t_select,cat_rec,token_rec,cat_mouse_l.x,cat_mouse_l.y,cat_mouse_l.leftButton,cat_mouse_l.midButton,cat_mouse_l.rightButton,cat_mouse_l.time,cat_mouse_l.clicked_name,resp,t_resp,corr,train_trials.thisRepN,train_trials.thisTrialN,train_trials.thisN,train_trials.thisIndex,train_trials.ran,cat_mouse_t.x,cat_mouse_t.y,cat_mouse_t.leftButton,cat_mouse_t.midButton,cat_mouse_t.rightButton,cat_mouse_t.time,cat_mouse_t.clicked_name,test_trials.thisRepN,test_trials.thisTrialN,test_trials.thisN,test_trials.thisIndex,test_trials.ran,Bonus
630cc9747cb664e8a03c29f0,SCR,2024-06-20_16h28.04.037,LearnStrategy,2023.2.3,Win32,30.12048193,,,,,,,,,,,,,,,,,,,,,,,,,,,,,,,,,,,,,,,,,,,,,
630cc9747cb664e8a03c29f0,SCR,2024-06-20_16h28.04.037,LearnStrategy,2023.2.3,Win32,30.12048193,1,1,1,-0.080555556,0.095833333,1,0,0,5.4212,Gabbro_15,4,15,4,4,5.421,4,15,-0.129166667,-0.254166667,1,0,0,10.6954,Basalt_rect,2,10.695,0,0,0,0,0,1,,,,,,,,,,,,,
630cc9747cb664e8a03c29f0,SCR,2024-06-20_16h28.04.037,LearnStrategy,2023.2.3,Win32,30.12048193,1,1,2,-0.545138889,0.258333333,1,0,0,2.1303,Peridotite_06,7,06,5,1,2.13,7,06,-0.11875,-0.247222222,1,0,0,7.4207,Basalt_rect,2,7.421,0,1,0,1,0,1,,,,,,,,,,,,,
630cc9747cb664e8a03c29f0,SCR,2024-06-20_16h28.04.037,LearnStrategy,2023.2.3,Win32,30.12048193,1,1,3,-0.223611111,-0.255555556,1,0,0,1.3605,Basalt_11,2,11,2,3,1.361,2,11,0.413888889,-0.395833333,1,0,0,2.8893,Pumice_rect,8,2.889,0,2,0,2,0,1,,,,,,,,,,,,,
630cc9747cb664e8a03c29f0,SCR,2024-06-20_16h28.04.037,LearnStrategy,2023.2.3,Win32,30.12048193,1,1,4,-0.533333333,0.091666667,1,0,0,1.696,Diorite_13,3,13,4,1,1.696,3,13,0.421527778,-0.240277778,1,0,0,7.1774,Gabbro_rect,4,7.177,0,3,0,3,0,1,,,,,,,,,,,,,
630cc9747cb664e8a03c29f0,SCR,2024-06-20_16h28.04.037,LearnStrategy,2023.2.3,Win32,30.12048193,1,1,5,0.4125,0.410416667,1,0,0,1.8596,Pumice_13,8,13,6,7,1.86,8,13,0.402777778,-0.390277778,1,0,0,3.0236,Pumice_rect,8,3.024,1,4,0,4,0,1,,,,,,,,,,,,,
630cc9747cb664e8a03c29f0,SCR,2024-06-20_16h28.04.037,LearnStrategy,2023.2.3,Win32,30.12048193,1,1,6,-0.554861111,-0.106944444,1,0,0,1.9955,Peridotite_05,7,05,3,1,1.996,7,05,0.141666667,-0.405555556,1,0,0,5.5154,Peridotite_rect,7,5.515,1,5,0,5,0,1,,,,,,,,,,,,,
630cc9747cb664e8a03c29f0,SCR,2024-06-20_16h28.04.037,LearnStrategy,2023.2.3,Win32,30.12048193,1,1,7,0.413888889,-0.244444444,1,0,0,1.858,Basalt_06,2,06,2,7,1.858,2,06,-0.410416667,-0.39375,1,0,0,17.3537,Obsidian_rect,5,17.354,0,6,0,6,0,1,,,,,,,,,,,,,
630cc9747cb664e8a03c29f0,SCR,2024-06-20_16h28.04.037,LearnStrategy,2023.2.3,Win32,30.12048193,1,1,8,-0.076388889,-0.375,1,0,0,1.8086,Obsidian_05,5,05,1,4,1.809,5,05,-0.411111111,-0.394444444,1,0,0,2.1354,Obsidian_rect,5,2.135,1,7,0,7,0,1,,,,,,,,,,,,,
630cc9747cb664e8a03c29f0,SCR,2024-06-20_16h28.04.037,LearnStrategy,2023.2.3,Win32,30.12048193,1,1,9,-0.234027778,0.435416667,1,0,0,1.4799,Andesite_06,1,06,6,3,1.48,1,06,0.170833333,-0.245833333,1,0,0,8.2347,Diorite_rect,3,8.235,0,8,0,8,0,1,,,,,,,,,,,,,
630cc9747cb664e8a03c29f0,SCR,2024-06-20_16h28.04.037,LearnStrategy,2023.2.3,Win32,30.12048193,1,1,10,0.393055556,0.088194444,1,0,0,1.5834,Andesite_07,1,07,4,7,1.583,1,07,-0.122222222,-0.409722222,1,0,0,8.1954,Pegmatite_rect,6,8.195,0,9,0,9,0,1,,,,,,,,,,,,,
630cc9747cb664e8a03c29f0,SCR,2024-06-20_16h28.04.037,LearnStrategy,2023.2.3,Win32,30.12048193,1,1,11,0.234722222,0.101388889,1,0,0,1.5775,Pumice_03,8,03,4,6,1.578,8,03,0.409722222,-0.404166667,1,0,0,5.7323,Pumice_rect,8,5.732,1,10,0,10,0,1,,,,,,,,,,,,,
630cc9747cb664e8a03c29f0,SCR,2024-06-20_16h28.04.037,LearnStrategy,2023.2.3,Win32,30.12048193,1,1,12,0.239583333,-0.242361111,1,0,0,1.8391,Diorite_09,3,09,2,6,1.839,3,09,0.395138889,-0.247222222,1,0,0,4.6441,Gabbro_rect,4,4.644,0,11,0,11,0,1,,,,,,,,,,,,,
630cc9747cb664e8a03c29f0,SCR,2024-06-20_16h28.04.037,LearnStrategy,2023.2.3,Win32,30.12048193,1,1,13,0.088194444,0.250694444,1,0,0,1.7367,Gabbro_10,4,10,5,5,1.737,4,10,-0.134027778,-0.401388889,1,0,0,6.0863,Pegmatite_rect,6,6.086,0,12,0,12,0,1,,,,,,,,,,,,,
630cc9747cb664e8a03c29f0,SCR,2024-06-20_16h28.04.037,LearnStrategy,2023.2.3,Win32,30.12048193,1,1,14,-0.383333333,-0.414583333,1,0,0,1.7032,Obsidian_06,5,06,1,2,1.703,5,06,-0.388888889,-0.407638889,1,0,0,1.4626,Obsidian_rect,5,1.463,1,13,0,13,0,1,,,,,,,,,,,,,
630cc9747cb664e8a03c29f0,SCR,2024-06-20_16h28.04.037,LearnStrategy,2023.2.3,Win32,30.12048193,1,1,15,-0.243055556,0.263194444,1,0,0,1.3399,Pegmatite_15,6,15,5,3,1.34,6,15,0.138888889,-0.250694444,1,0,0,12.3981,Diorite_rect,3,12.398,0,14,0,14,0,1,,,,,,,,,,,,,
630cc9747cb664e8a03c29f0,SCR,2024-06-20_16h28.04.037,LearnStrategy,2023.2.3,Win32,30.12048193,1,1,16,-0.550694444,-0.395138889,1,0,0,2.1257,Pegmatite_12,6,12,1,1,2.126,6,12,-0.136111111,-0.249305556,1,0,0,3.9325,Basalt_rect,2,3.933,0,15,0,15,0,1,,,,,,,,,,,,,
630cc9747cb664e8a03c29f0,SCR,2024-06-20_16h28.04.037,LearnStrategy,2023.2.3,Win32,30.12048193,1,2,1,,,,,,,,7,07,,,,,,,,,,,,,7,8.911,1,,,,,,0.140277778,-0.403472222,1,0,0,8.9107,Peridotite_rect,0,0,0,0,1,
630cc9747cb664e8a03c29f0,SCR,2024-06-20_16h28.04.037,LearnStrategy,2023.2.3,Win32,30.12048193,1,2,2,,,,,,,,4,16,,,,,,,,,,,,,3,13.705,0,,,,,,0.136111111,-0.245138889,1,0,0,13.7055,Diorite_rect,1,0,1,0,1,
630cc9747cb664e8a03c29f0,SCR,2024-06-20_16h28.04.037,LearnStrategy,2023.2.3,Win32,30.12048193,1,2,3,,,,,,,,7,02,,,,,,,,,,,,,7,3.551,1,,,,,,0.141666667,-0.402777778,1,0,0,3.5515,Peridotite_rect,2,0,2,0,1,
630cc9747cb664e8a03c29f0,SCR,2024-06-20_16h28.04.037,LearnStrategy,2023.2.3,Win32,30.12048193,1,2,4,,,,,,,,5,02,,,,,,,,,,,,,5,2.954,1,,,,,,-0.420138889,-0.399305556,1,0,0,2.9542,Obsidian_rect,3,0,3,0,1,
630cc9747cb664e8a03c29f0,SCR,2024-06-20_16h28.04.037,LearnStrategy,2023.2.3,Win32,30.12048193,1,2,5,,,,,,,,3,14,,,,,,,,,,,,,3,13.673,1,,,,,,0.122222222,-0.248611111,1,0,0,13.6725,Diorite_rect,4,0,4,0,1,
630cc9747cb664e8a03c29f0,SCR,2024-06-20_16h28.04.037,LearnStrategy,2023.2.3,Win32,30.12048193,1,2,6,,,,,,,,8,08,,,,,,,,,,,,,8,3.075,1,,,,,,0.399305556,-0.399305556,1,0,0,3.075,Pumice_rect,5,0,5,0,1,
630cc9747cb664e8a03c29f0,SCR,2024-06-20_16h28.04.037,LearnStrategy,2023.2.3,Win32,30.12048193,1,2,7,,,,,,,,6,08,,,,,,,,,,,,,6,10.616,1,,,,,,-0.115972222,-0.393055556,1,0,0,10.6157,Pegmatite_rect,6,0,6,0,1,
630cc9747cb664e8a03c29f0,SCR,2024-06-20_16h28.04.037,LearnStrategy,2023.2.3,Win32,30.12048193,1,2,8,,,,,,,,4,14,,,,,,,,,,,,,4,9.326,1,,,,,,0.370138889,-0.251388889,1,0,0,9.3258,Gabbro_rect,7,0,7,0,1,
630cc9747cb664e8a03c29f0,SCR,2024-06-20_16h28.04.037,LearnStrategy,2023.2.3,Win32,30.12048193,1,2,9,,,,,,,,6,06,,,,,,,,,,,,,3,12.675,0,,,,,,0.099305556,-0.249305556,1,0,0,12.6753,Diorite_rect,8,0,8,0,1,
630cc9747cb664e8a03c29f0,SCR,2024-06-20_16h28.04.037,LearnStrategy,2023.2.3,Win32,30.12048193,1,2,10,,,,,,,,2,09,,,,,,,,,,,,,4,6.56,0,,,,,,0.386805556,-0.24375,1,0,0,6.5598,Gabbro_rect,9,0,9,0,1,
630cc9747cb664e8a03c29f0,SCR,2024-06-20_16h28.04.037,LearnStrategy,2023.2.3,Win32,30.12048193,1,2,11,,,,,,,,1,09,,,,,,,,,,,,,1,11.772,1,,,,,,-0.383333333,-0.25625,1,0,0,11.7722,Andesite_rect,10,0,10,0,1,
630cc9747cb664e8a03c29f0,SCR,2024-06-20_16h28.04.037,LearnStrategy,2023.2.3,Win32,30.12048193,1,2,12,,,,,,,,3,08,,,,,,,,,,,,,1,12.282,0,,,,,,-0.391666667,-0.246527778,1,0,0,12.2824,Andesite_rect,11,0,11,0,1,
630cc9747cb664e8a03c29f0,SCR,2024-06-20_16h28.04.037,LearnStrategy,2023.2.3,Win32,30.12048193,1,2,13,,,,,,,,5,07,,,,,,,,,,,,,5,1.809,1,,,,,,-0.391666667,-0.39375,1,0,0,1.8092,Obsidian_rect,12,0,12,0,1,
630cc9747cb664e8a03c29f0,SCR,2024-06-20_16h28.04.037,LearnStrategy,2023.2.3,Win32,30.12048193,1,2,14,,,,,,,,2,05,,,,,,,,,,,,,4,3.33,0,,,,,,0.41875,-0.238888889,1,0,0,3.33,Gabbro_rect,13,0,13,0,1,
630cc9747cb664e8a03c29f0,SCR,2024-06-20_16h28.04.037,LearnStrategy,2023.2.3,Win32,30.12048193,1,2,15,,,,,,,,1,16,,,,,,,,,,,,,6,12.237,0,,,,,,-0.106944444,-0.398611111,1,0,0,12.2373,Pegmatite_rect,14,0,14,0,1,
630cc9747cb664e8a03c29f0,SCR,2024-06-20_16h28.04.037,LearnStrategy,2023.2.3,Win32,30.12048193,1,2,16,,,,,,,,8,04,,,,,,,,,,,,,8,6.881,1,,,,,,0.455555556,-0.409722222,1,0,0,6.8806,Pumice_rect,15,0,15,0,1,
630cc9747cb664e8a03c29f0,SCR,2024-06-20_16h28.04.037,LearnStrategy,2023.2.3,Win32,30.12048193,2,1,1,0.238888889,-0.405555556,1,0,0,1.4815,Pegmatite_09,6,09,1,6,1.481,6,09,-0.136111111,-0.396527778,1,0,0,6.1027,Pegmatite_rect,6,6.103,1,0,0,0,0,1,,,,,,,,,,,,,
630cc9747cb664e8a03c29f0,SCR,2024-06-20_16h28.04.037,LearnStrategy,2023.2.3,Win32,30.12048193,2,1,2,-0.54375,-0.244444444,1,0,0,3.0151,Gabbro_05,4,05,2,1,3.015,4,05,0.159027778,-0.254861111,1,0,0,6.1348,Diorite_rect,3,6.135,0,1,0,1,0,1,,,,,,,,,,,,,
630cc9747cb664e8a03c29f0,SCR,2024-06-20_16h28.04.037,LearnStrategy,2023.2.3,Win32,30.12048193,2,1,3,-0.23125,-0.243055556,1,0,0,2.8866,Basalt_11,2,11,2,3,2.887,2,11,0.399305556,-0.392361111,1,0,0,2.2276,Pumice_rect,8,2.228,0,2,0,2,0,1,,,,,,,,,,,,,
630cc9747cb664e8a03c29f0,SCR,2024-06-20_16h28.04.037,LearnStrategy,2023.2.3,Win32,30.12048193,2,1,4,0.250694444,0.268055556,1,0,0,1.4309,Andesite_11,1,11,5,6,1.431,1,11,0.129861111,-0.247916667,1,0,0,9.265,Diorite_rect,3,9.265,0,3,0,3,0,1,,,,,,,,,,,,,
630cc9747cb664e8a03c29f0,SCR,2024-06-20_16h28.04.037,LearnStrategy,2023.2.3,Win32,30.12048193,2,1,5,-0.239583333,-0.102083333,1,0,0,1.5598,Andesite_10,1,10,3,3,1.56,1,10,-0.109027778,-0.40625,1,0,0,6.9616,Pegmatite_rect,6,6.962,0,4,0,4,0,1,,,,,,,,,,,,,
630cc9747cb664e8a03c29f0,SCR,2024-06-20_16h28.04.037,LearnStrategy,2023.2.3,Win32,30.12048193,2,1,6,0.555555556,0.2625,1,0,0,2.4467,Diorite_10,3,10,5,8,2.447,3,10,-0.127083333,-0.236805556,1,0,0,3.2611,Basalt_rect,2,3.261,0,5,0,5,0,1,,,,,,,,,,,,,
630cc9747cb664e8a03c29f0,SCR,2024-06-20_16h28.04.037,LearnStrategy,2023.2.3,Win32,30.12048193,2,1,7,-0.552083333,-0.240277778,1,0,0,2.764,Gabbro_05,4,05,2,1,2.764,4,05,-0.126388889,-0.397916667,1,0,0,10.2359,Pegmatite_rect,6,10.236,0,6,0,6,0,1,,,,,,,,,,,,,
630cc9747cb664e8a03c29f0,SCR,2024-06-20_16h28.04.037,LearnStrategy,2023.2.3,Win32,30.12048193,2,1,8,-0.54375,-0.259027778,1,0,0,1.7412,Gabbro_05,4,05,2,1,1.741,4,05,0.380555556,-0.254166667,1,0,0,1.6474,Gabbro_rect,4,1.647,1,7,0,7,0,1,,,,,,,,,,,,,
630cc9747cb664e8a03c29f0,SCR,2024-06-20_16h28.04.037,LearnStrategy,2023.2.3,Win32,30.12048193,2,1,9,-0.250694444,0.120138889,1,0,0,1.5682,Basalt_16,2,16,4,3,1.568,2,16,0.402083333,-0.400694444,1,0,0,3.6363,Pumice_rect,8,3.636,0,8,0,8,0,1,,,,,,,,,,,,,
630cc9747cb664e8a03c29f0,SCR,2024-06-20_16h28.04.037,LearnStrategy,2023.2.3,Win32,30.12048193,2,1,10,-0.56875,0.427777778,1,0,0,1.4589,Basalt_02,2,02,6,1,1.459,2,02,0.415972222,-0.244444444,1,0,0,2.03,Gabbro_rect,4,2.03,0,9,0,9,0,1,,,,,,,,,,,,,
630cc9747cb664e8a03c29f0,SCR,2024-06-20_16h28.04.037,LearnStrategy,2023.2.3,Win32,30.12048193,2,1,11,-0.214583333,0.245833333,1,0,0,1.4539,Pegmatite_15,6,15,5,3,1.454,6,15,-0.145833333,-0.245138889,1,0,0,4.0673,Basalt_rect,2,4.067,0,10,0,10,0,1,,,,,,,,,,,,,
630cc9747cb664e8a03c29f0,SCR,2024-06-20_16h28.04.037,LearnStrategy,2023.2.3,Win32,30.12048193,2,1,12,0.396527778,0.258333333,1,0,0,1.4592,Pegmatite_05,6,05,5,7,1.459,6,05,0.128472222,-0.243055556,1,0,0,5.2729,Diorite_rect,3,5.273,0,11,0,11,0,1,,,,,,,,,,,,,
630cc9747cb664e8a03c29f0,SCR,2024-06-20_16h28.04.037,LearnStrategy,2023.2.3,Win32,30.12048193,2,1,13,-0.549305556,0.378472222,1,0,0,1.7298,Basalt_02,2,02,6,1,1.73,2,02,0.394444444,-0.247916667,1,0,0,4.141,Gabbro_rect,4,4.141,0,12,0,12,0,1,,,,,,,,,,,,,
630cc9747cb664e8a03c29f0,SCR,2024-06-20_16h28.04.037,LearnStrategy,2023.2.3,Win32,30.12048193,2,1,14,0.238888889,-0.238194444,1,0,0,1.3095,Diorite_09,3,09,2,6,1.309,3,09,0.161111111,-0.248611111,1,0,0,15.0953,Diorite_rect,3,15.095,1,13,0,13,0,1,,,,,,,,,,,,,
630cc9747cb664e8a03c29f0,SCR,2024-06-20_16h28.04.037,LearnStrategy,2023.2.3,Win32,30.12048193,2,1,15,0.41875,0.103472222,1,0,0,1.5979,Andesite_07,1,07,4,7,1.598,1,07,-0.404166667,-0.25,1,0,0,4.1523,Andesite_rect,1,4.152,1,14,0,14,0,1,,,,,,,,,,,,,
630cc9747cb664e8a03c29f0,SCR,2024-06-20_16h28.04.037,LearnStrategy,2023.2.3,Win32,30.12048193,2,1,16,-0.543055556,0.097222222,1,0,0,1.4916,Diorite_13,3,13,4,1,1.492,3,13,0.152083333,-0.249305556,1,0,0,4.2249,Diorite_rect,3,4.225,1,15,0,15,0,1,,,,,,,,,,,,,
630cc9747cb664e8a03c29f0,SCR,2024-06-20_16h28.04.037,LearnStrategy,2023.2.3,Win32,30.12048193,2,2,1,,,,,,,,3,07,,,,,,,,,,,,,3,8.898,1,,,,,,0.131944444,-0.245138889,1,0,0,8.8981,Diorite_rect,0,0,0,0,1,
630cc9747cb664e8a03c29f0,SCR,2024-06-20_16h28.04.037,LearnStrategy,2023.2.3,Win32,30.12048193,2,2,2,,,,,,,,2,14,,,,,,,,,,,,,8,5.337,0,,,,,,0.391666667,-0.397916667,1,0,0,5.3373,Pumice_rect,1,0,1,0,1,
630cc9747cb664e8a03c29f0,SCR,2024-06-20_16h28.04.037,LearnStrategy,2023.2.3,Win32,30.12048193,2,2,3,,,,,,,,6,13,,,,,,,,,,,,,3,21.058,0,,,,,,0.127083333,-0.236805556,1,0,0,21.0577,Diorite_rect,2,0,2,0,1,
630cc9747cb664e8a03c29f0,SCR,2024-06-20_16h28.04.037,LearnStrategy,2023.2.3,Win32,30.12048193,2,2,4,,,,,,,,5,09,,,,,,,,,,,,,5,1.954,1,,,,,,-0.399305556,-0.399305556,1,0,0,1.9542,Obsidian_rect,3,0,3,0,1,
630cc9747cb664e8a03c29f0,SCR,2024-06-20_16h28.04.037,LearnStrategy,2023.2.3,Win32,30.12048193,2,2,5,,,,,,,,1,01,,,,,,,,,,,,,4,12.449,0,,,,,,0.350694444,-0.238888889,1,0,0,12.4491,Gabbro_rect,4,0,4,0,1,
630cc9747cb664e8a03c29f0,SCR,2024-06-20_16h28.04.037,LearnStrategy,2023.2.3,Win32,30.12048193,2,2,6,,,,,,,,6,11,,,,,,,,,,,,,6,12.942,1,,,,,,-0.127083333,-0.394444444,1,0,0,12.942,Pegmatite_rect,5,0,5,0,1,
630cc9747cb664e8a03c29f0,SCR,2024-06-20_16h28.04.037,LearnStrategy,2023.2.3,Win32,30.12048193,2,2,7,,,,,,,,4,01,,,,,,,,,,,,,3,22.632,0,,,,,,0.140277778,-0.24375,1,0,0,22.6318,Diorite_rect,6,0,6,0,1,
630cc9747cb664e8a03c29f0,SCR,2024-06-20_16h28.04.037,LearnStrategy,2023.2.3,Win32,30.12048193,2,2,8,,,,,,,,3,16,,,,,,,,,,,,,6,24.762,0,,,,,,-0.134722222,-0.400694444,1,0,0,24.7623,Pegmatite_rect,7,0,7,0,1,
630cc9747cb664e8a03c29f0,SCR,2024-06-20_16h28.04.037,LearnStrategy,2023.2.3,Win32,30.12048193,2,2,9,,,,,,,,4,12,,,,,,,,,,,,,4,11.698,1,,,,,,0.396527778,-0.246527778,1,0,0,11.6979,Gabbro_rect,8,0,8,0,1,
630cc9747cb664e8a03c29f0,SCR,2024-06-20_16h28.04.037,LearnStrategy,2023.2.3,Win32,30.12048193,2,2,10,,,,,,,,1,05,,,,,,,,,,,,,7,2.777,0,,,,,,0.1375,-0.401388889,1,0,0,2.7771,Peridotite_rect,9,0,9,0,1,
630cc9747cb664e8a03c29f0,SCR,2024-06-20_16h28.04.037,LearnStrategy,2023.2.3,Win32,30.12048193,2,2,11,,,,,,,,8,02,,,,,,,,,,,,,8,10.302,1,,,,,,0.421527778,-0.400694444,1,0,0,10.3018,Pumice_rect,10,0,10,0,1,
630cc9747cb664e8a03c29f0,SCR,2024-06-20_16h28.04.037,LearnStrategy,2023.2.3,Win32,30.12048193,2,2,12,,,,,,,,7,10,,,,,,,,,,,,,7,1.8,1,,,,,,0.15625,-0.399305556,1,0,0,1.8001,Peridotite_rect,11,0,11,0,1,
630cc9747cb664e8a03c29f0,SCR,2024-06-20_16h28.04.037,LearnStrategy,2023.2.3,Win32,30.12048193,2,2,13,,,,,,,,7,16,,,,,,,,,,,,,7,1.999,1,,,,,,0.155555556,-0.399305556,1,0,0,1.9991,Peridotite_rect,12,0,12,0,1,
630cc9747cb664e8a03c29f0,SCR,2024-06-20_16h28.04.037,LearnStrategy,2023.2.3,Win32,30.12048193,2,2,14,,,,,,,,5,04,,,,,,,,,,,,,5,1.564,1,,,,,,-0.339583333,-0.390277778,1,0,0,1.5645,Obsidian_rect,13,0,13,0,1,
630cc9747cb664e8a03c29f0,SCR,2024-06-20_16h28.04.037,LearnStrategy,2023.2.3,Win32,30.12048193,2,2,15,,,,,,,,2,04,,,,,,,,,,,,,2,4.478,1,,,,,,-0.119444444,-0.246527778,1,0,0,4.4784,Basalt_rect,14,0,14,0,1,
630cc9747cb664e8a03c29f0,SCR,2024-06-20_16h28.04.037,LearnStrategy,2023.2.3,Win32,30.12048193,2,2,16,,,,,,,,8,09,,,,,,,,,,,,,8,1.765,1,,,,,,0.400694444,-0.404861111,1,0,0,1.7651,Pumice_rect,15,0,15,0,1,
630cc9747cb664e8a03c29f0,SCR,2024-06-20_16h28.04.037,LearnStrategy,2023.2.3,Win32,30.12048193,3,1,1,0.395138889,-0.263194444,1,0,0,2.8859,Basalt_06,2,06,2,7,2.886,2,06,0.379166667,-0.248611111,1,0,0,3.8936,Gabbro_rect,4,3.894,0,0,0,0,0,1,,,,,,,,,,,,,
630cc9747cb664e8a03c29f0,SCR,2024-06-20_16h28.04.037,LearnStrategy,2023.2.3,Win32,30.12048193,3,1,2,-0.559027778,0.097916667,1,0,0,1.1848,Diorite_13,3,13,4,1,1.185,3,13,0.128472222,-0.236111111,1,0,0,5.1763,Diorite_rect,3,5.176,1,1,0,1,0,1,,,,,,,,,,,,,
630cc9747cb664e8a03c29f0,SCR,2024-06-20_16h28.04.037,LearnStrategy,2023.2.3,Win32,30.12048193,3,1,3,-0.550694444,-0.096527778,1,0,0,2.7614,Peridotite_05,7,05,3,1,2.761,7,05,0.145138889,-0.398611111,1,0,0,3.4145,Peridotite_rect,7,3.415,1,2,0,2,0,1,,,,,,,,,,,,,
630cc9747cb664e8a03c29f0,SCR,2024-06-20_16h28.04.037,LearnStrategy,2023.2.3,Win32,30.12048193,3,1,4,0.543055556,-0.248611111,1,0,0,2.6759,Diorite_02,3,02,2,8,2.676,3,02,-0.406944444,-0.247222222,1,0,0,7.123,Andesite_rect,1,7.123,0,3,0,3,0,1,,,,,,,,,,,,,
630cc9747cb664e8a03c29f0,SCR,2024-06-20_16h28.04.037,LearnStrategy,2023.2.3,Win32,30.12048193,3,1,5,0.061805556,-0.373611111,1,0,0,1.3195,Pegmatite_07,6,07,1,5,1.319,6,07,-0.130555556,-0.400694444,1,0,0,5.3454,Pegmatite_rect,6,5.345,1,4,0,4,0,1,,,,,,,,,,,,,
630cc9747cb664e8a03c29f0,SCR,2024-06-20_16h28.04.037,LearnStrategy,2023.2.3,Win32,30.12048193,3,1,6,-0.544444444,0.377777778,1,0,0,3.7381,Basalt_02,2,02,6,1,3.738,2,02,0.393055556,-0.243055556,1,0,0,2.4192,Gabbro_rect,4,2.419,0,5,0,5,0,1,,,,,,,,,,,,,
630cc9747cb664e8a03c29f0,SCR,2024-06-20_16h28.04.037,LearnStrategy,2023.2.3,Win32,30.12048193,3,1,7,-0.3875,0.099305556,1,0,0,2.113,Andesite_02,1,02,4,2,2.113,1,02,-0.134722222,-0.396527778,1,0,0,8.0746,Pegmatite_rect,6,8.075,0,6,0,6,0,1,,,,,,,,,,,,,
630cc9747cb664e8a03c29f0,SCR,2024-06-20_16h28.04.037,LearnStrategy,2023.2.3,Win32,30.12048193,3,1,8,0.372916667,0.25,1,0,0,1.4529,Pegmatite_05,6,05,5,7,1.453,6,05,-0.138194444,-0.389583333,1,0,0,4.6624,Pegmatite_rect,6,4.662,1,7,0,7,0,1,,,,,,,,,,,,,
630cc9747cb664e8a03c29f0,SCR,2024-06-20_16h28.04.037,LearnStrategy,2023.2.3,Win32,30.12048193,3,1,9,-0.233333333,0.401388889,1,0,0,1.462,Andesite_06,1,06,6,3,1.462,1,06,0.097222222,-0.252083333,1,0,0,7.6422,Diorite_rect,3,7.642,0,8,0,8,0,1,,,,,,,,,,,,,
630cc9747cb664e8a03c29f0,SCR,2024-06-20_16h28.04.037,LearnStrategy,2023.2.3,Win32,30.12048193,3,1,10,0.238194444,0.104166667,1,0,0,1.5944,Pumice_03,8,03,4,6,1.594,8,03,0.400694444,-0.399305556,1,0,0,2.1297,Pumice_rect,8,2.13,1,9,0,9,0,1,,,,,,,,,,,,,
630cc9747cb664e8a03c29f0,SCR,2024-06-20_16h28.04.037,LearnStrategy,2023.2.3,Win32,30.12048193,3,1,11,0.565277778,-0.095138889,1,0,0,1.5395,Gabbro_08,4,08,3,8,1.54,4,08,0.140972222,-0.398611111,1,0,0,2.8948,Peridotite_rect,7,2.895,0,10,0,10,0,1,,,,,,,,,,,,,
630cc9747cb664e8a03c29f0,SCR,2024-06-20_16h28.04.037,LearnStrategy,2023.2.3,Win32,30.12048193,3,1,12,0.374305556,0.098611111,1,0,0,1.3132,Andesite_07,1,07,4,7,1.313,1,07,-0.391666667,-0.251388889,1,0,0,11.7802,Andesite_rect,1,11.78,1,11,0,11,0,1,,,,,,,,,,,,,
630cc9747cb664e8a03c29f0,SCR,2024-06-20_16h28.04.037,LearnStrategy,2023.2.3,Win32,30.12048193,3,1,13,0.536805556,-0.266666667,1,0,0,1.4772,Diorite_02,3,02,2,8,1.477,3,02,0.136805556,-0.259027778,1,0,0,11.6564,Diorite_rect,3,11.656,1,12,0,12,0,1,,,,,,,,,,,,,
630cc9747cb664e8a03c29f0,SCR,2024-06-20_16h28.04.037,LearnStrategy,2023.2.3,Win32,30.12048193,3,1,14,-0.563194444,-0.254166667,1,0,0,1.8427,Gabbro_05,4,05,2,1,1.843,4,05,0.384722222,-0.241666667,1,0,0,4.724,Gabbro_rect,4,4.724,1,13,0,13,0,1,,,,,,,,,,,,,
630cc9747cb664e8a03c29f0,SCR,2024-06-20_16h28.04.037,LearnStrategy,2023.2.3,Win32,30.12048193,3,1,15,-0.552083333,0.402777778,1,0,0,2.8123,Basalt_02,2,02,6,1,2.812,2,02,-0.118055556,-0.250694444,1,0,0,1.3857,Basalt_rect,2,1.386,1,14,0,14,0,1,,,,,,,,,,,,,
630cc9747cb664e8a03c29f0,SCR,2024-06-20_16h28.04.037,LearnStrategy,2023.2.3,Win32,30.12048193,3,1,16,-0.047222222,0.079861111,1,0,0,0.9376,Gabbro_15,4,15,4,4,0.938,4,15,-0.379166667,-0.248611111,1,0,0,14.3005,Andesite_rect,1,14.301,0,15,0,15,0,1,,,,,,,,,,,,,
630cc9747cb664e8a03c29f0,SCR,2024-06-20_16h28.04.037,LearnStrategy,2023.2.3,Win32,30.12048193,3,2,1,,,,,,,,4,13,,,,,,,,,,,,,4,4.055,1,,,,,,0.39375,-0.247222222,1,0,0,4.0547,Gabbro_rect,0,0,0,0,1,
630cc9747cb664e8a03c29f0,SCR,2024-06-20_16h28.04.037,LearnStrategy,2023.2.3,Win32,30.12048193,3,2,2,,,,,,,,7,08,,,,,,,,,,,,,7,2.03,1,,,,,,0.129166667,-0.410416667,1,0,0,2.0298,Peridotite_rect,1,0,1,0,1,
630cc9747cb664e8a03c29f0,SCR,2024-06-20_16h28.04.037,LearnStrategy,2023.2.3,Win32,30.12048193,3,2,3,,,,,,,,8,06,,,,,,,,,,,,,8,1.636,1,,,,,,0.420138889,-0.401388889,1,0,0,1.6364,Pumice_rect,2,0,2,0,1,
630cc9747cb664e8a03c29f0,SCR,2024-06-20_16h28.04.037,LearnStrategy,2023.2.3,Win32,30.12048193,3,2,4,,,,,,,,7,04,,,,,,,,,,,,,6,23.193,0,,,,,,-0.140972222,-0.397916667,1,0,0,23.1929,Pegmatite_rect,3,0,3,0,1,
630cc9747cb664e8a03c29f0,SCR,2024-06-20_16h28.04.037,LearnStrategy,2023.2.3,Win32,30.12048193,3,2,5,,,,,,,,2,08,,,,,,,,,,,,,2,12.778,1,,,,,,-0.116666667,-0.25,1,0,0,12.7777,Basalt_rect,4,0,4,0,1,
630cc9747cb664e8a03c29f0,SCR,2024-06-20_16h28.04.037,LearnStrategy,2023.2.3,Win32,30.12048193,3,2,6,,,,,,,,2,10,,,,,,,,,,,,,2,9.136,1,,,,,,-0.117361111,-0.258333333,1,0,0,9.1357,Basalt_rect,5,0,5,0,1,
630cc9747cb664e8a03c29f0,SCR,2024-06-20_16h28.04.037,LearnStrategy,2023.2.3,Win32,30.12048193,3,2,7,,,,,,,,5,08,,,,,,,,,,,,,5,1.8,1,,,,,,-0.404166667,-0.404861111,1,0,0,1.8003,Obsidian_rect,6,0,6,0,1,
630cc9747cb664e8a03c29f0,SCR,2024-06-20_16h28.04.037,LearnStrategy,2023.2.3,Win32,30.12048193,3,2,8,,,,,,,,6,16,,,,,,,,,,,,,6,12.871,1,,,,,,-0.127777778,-0.394444444,1,0,0,12.871,Pegmatite_rect,7,0,7,0,1,
630cc9747cb664e8a03c29f0,SCR,2024-06-20_16h28.04.037,LearnStrategy,2023.2.3,Win32,30.12048193,3,2,9,,,,,,,,3,06,,,,,,,,,,,,,6,7.247,0,,,,,,-0.129166667,-0.409027778,1,0,0,7.2473,Pegmatite_rect,8,0,8,0,1,
630cc9747cb664e8a03c29f0,SCR,2024-06-20_16h28.04.037,LearnStrategy,2023.2.3,Win32,30.12048193,3,2,10,,,,,,,,4,11,,,,,,,,,,,,,4,4.235,1,,,,,,0.404166667,-0.255555556,1,0,0,4.2351,Gabbro_rect,9,0,9,0,1,
630cc9747cb664e8a03c29f0,SCR,2024-06-20_16h28.04.037,LearnStrategy,2023.2.3,Win32,30.12048193,3,2,11,,,,,,,,6,10,,,,,,,,,,,,,7,3.647,0,,,,,,0.127777778,-0.400694444,1,0,0,3.6465,Peridotite_rect,10,0,10,0,1,
630cc9747cb664e8a03c29f0,SCR,2024-06-20_16h28.04.037,LearnStrategy,2023.2.3,Win32,30.12048193,3,2,12,,,,,,,,8,14,,,,,,,,,,,,,8,2.789,1,,,,,,0.393055556,-0.395138889,1,0,0,2.7886,Pumice_rect,11,0,11,0,1,
630cc9747cb664e8a03c29f0,SCR,2024-06-20_16h28.04.037,LearnStrategy,2023.2.3,Win32,30.12048193,3,2,13,,,,,,,,5,14,,,,,,,,,,,,,5,1.856,1,,,,,,-0.413194444,-0.408333333,1,0,0,1.8561,Obsidian_rect,12,0,12,0,1,
630cc9747cb664e8a03c29f0,SCR,2024-06-20_16h28.04.037,LearnStrategy,2023.2.3,Win32,30.12048193,3,2,14,,,,,,,,1,04,,,,,,,,,,,,,3,13.431,0,,,,,,0.128472222,-0.257638889,1,0,0,13.4312,Diorite_rect,13,0,13,0,1,
630cc9747cb664e8a03c29f0,SCR,2024-06-20_16h28.04.037,LearnStrategy,2023.2.3,Win32,30.12048193,3,2,15,,,,,,,,1,14,,,,,,,,,,,,,1,16.342,1,,,,,,-0.372916667,-0.251388889,1,0,0,16.3421,Andesite_rect,14,0,14,0,1,
630cc9747cb664e8a03c29f0,SCR,2024-06-20_16h28.04.037,LearnStrategy,2023.2.3,Win32,30.12048193,3,2,16,,,,,,,,3,11,,,,,,,,,,,,,3,7.99,1,,,,,,0.108333333,-0.258333333,1,0,0,7.9899,Diorite_rect,15,0,15,0,1,
630cc9747cb664e8a03c29f0,SCR,2024-06-20_16h28.04.037,LearnStrategy,2023.2.3,Win32,30.12048193,4,1,1,-0.077777778,-0.096527778,1,0,0,1.2366,Peridotite_15,7,15,3,4,1.237,7,15,0.127083333,-0.397916667,1,0,0,1.6523,Peridotite_rect,7,1.652,1,0,0,0,0,1,,,,,,,,,,,,,
630cc9747cb664e8a03c29f0,SCR,2024-06-20_16h28.04.037,LearnStrategy,2023.2.3,Win32,30.12048193,4,1,2,-0.554861111,0.422222222,1,0,0,1.6066,Basalt_02,2,02,6,1,1.607,2,02,-0.151388889,-0.236111111,1,0,0,1.1004,Basalt_rect,2,1.1,1,1,0,1,0,1,,,,,,,,,,,,,
630cc9747cb664e8a03c29f0,SCR,2024-06-20_16h28.04.037,LearnStrategy,2023.2.3,Win32,30.12048193,4,1,3,0.2375,0.250694444,1,0,0,3.001,Andesite_11,1,11,5,6,3.001,1,11,0.124305556,-0.250694444,1,0,0,2.672,Diorite_rect,3,2.672,0,2,0,2,0,1,,,,,,,,,,,,,
630cc9747cb664e8a03c29f0,SCR,2024-06-20_16h28.04.037,LearnStrategy,2023.2.3,Win32,30.12048193,4,1,4,0.543055556,0.245138889,1,0,0,2.0298,Diorite_10,3,10,5,8,2.03,3,10,-0.148611111,-0.394444444,1,0,0,3.8149,Pegmatite_rect,6,3.815,0,3,0,3,0,1,,,,,,,,,,,,,
630cc9747cb664e8a03c29f0,SCR,2024-06-20_16h28.04.037,LearnStrategy,2023.2.3,Win32,30.12048193,4,1,5,0.078472222,-0.105555556,1,0,0,1.6167,Pumice_10,8,10,3,5,1.617,8,10,0.402083333,-0.401388889,1,0,0,1.3345,Pumice_rect,8,1.334,1,4,0,4,0,1,,,,,,,,,,,,,
630cc9747cb664e8a03c29f0,SCR,2024-06-20_16h28.04.037,LearnStrategy,2023.2.3,Win32,30.12048193,4,1,6,0.521527778,0.127777778,1,0,0,1.4622,Gabbro_03,4,03,4,8,1.462,4,03,0.418055556,-0.259722222,1,0,0,2.1097,Gabbro_rect,4,2.11,1,5,0,5,0,1,,,,,,,,,,,,,
630cc9747cb664e8a03c29f0,SCR,2024-06-20_16h28.04.037,LearnStrategy,2023.2.3,Win32,30.12048193,4,1,7,-0.376388889,0.092361111,1,0,0,1.3921,Andesite_02,1,02,4,2,1.392,1,02,-0.375694444,-0.235416667,1,0,0,1.9637,Andesite_rect,1,1.964,1,6,0,6,0,1,,,,,,,,,,,,,
630cc9747cb664e8a03c29f0,SCR,2024-06-20_16h28.04.037,LearnStrategy,2023.2.3,Win32,30.12048193,4,1,8,-0.529166667,-0.386111111,1,0,0,1.5844,Pegmatite_12,6,12,1,1,1.584,6,12,-0.122222222,-0.397916667,1,0,0,2.0726,Pegmatite_rect,6,2.073,1,7,0,7,0,1,,,,,,,,,,,,,
630cc9747cb664e8a03c29f0,SCR,2024-06-20_16h28.04.037,LearnStrategy,2023.2.3,Win32,30.12048193,4,1,9,0.535416667,-0.254861111,1,0,0,1.8408,Diorite_02,3,02,2,8,1.841,3,02,0.138194444,-0.252777778,1,0,0,4.5247,Diorite_rect,3,4.525,1,8,0,8,0,1,,,,,,,,,,,,,
630cc9747cb664e8a03c29f0,SCR,2024-06-20_16h28.04.037,LearnStrategy,2023.2.3,Win32,30.12048193,4,1,10,0.551388889,-0.094444444,1,0,0,1.6339,Gabbro_08,4,08,3,8,1.634,4,08,-0.147916667,-0.245833333,1,0,0,5.0891,Basalt_rect,2,5.089,0,9,0,9,0,1,,,,,,,,,,,,,
630cc9747cb664e8a03c29f0,SCR,2024-06-20_16h28.04.037,LearnStrategy,2023.2.3,Win32,30.12048193,4,1,11,-0.390972222,0.093055556,1,0,0,1.3152,Andesite_02,1,02,4,2,1.315,1,02,-0.397916667,-0.258333333,1,0,0,1.8367,Andesite_rect,1,1.837,1,10,0,10,0,1,,,,,,,,,,,,,
630cc9747cb664e8a03c29f0,SCR,2024-06-20_16h28.04.037,LearnStrategy,2023.2.3,Win32,30.12048193,4,1,12,0.397916667,0.249305556,1,0,0,1.4618,Pegmatite_05,6,05,5,7,1.462,6,05,-0.153472222,-0.413888889,1,0,0,4.3408,Pegmatite_rect,6,4.341,1,11,0,11,0,1,,,,,,,,,,,,,
630cc9747cb664e8a03c29f0,SCR,2024-06-20_16h28.04.037,LearnStrategy,2023.2.3,Win32,30.12048193,4,1,13,-0.544444444,-0.415277778,1,0,0,1.579,Pegmatite_12,6,12,1,1,1.579,6,12,-0.147916667,-0.406944444,1,0,0,1.7464,Pegmatite_rect,6,1.746,1,12,0,12,0,1,,,,,,,,,,,,,
630cc9747cb664e8a03c29f0,SCR,2024-06-20_16h28.04.037,LearnStrategy,2023.2.3,Win32,30.12048193,4,1,14,-0.247916667,0.086111111,1,0,0,1.0754,Basalt_16,2,16,4,3,1.075,2,16,-0.14375,-0.241666667,1,0,0,2.5693,Basalt_rect,2,2.569,1,13,0,13,0,1,,,,,,,,,,,,,
630cc9747cb664e8a03c29f0,SCR,2024-06-20_16h28.04.037,LearnStrategy,2023.2.3,Win32,30.12048193,4,1,15,0.551388889,-0.409722222,1,0,0,1.341,Peridotite_12,7,12,1,8,1.341,7,12,0.165972222,-0.404166667,1,0,0,1.5617,Peridotite_rect,7,1.562,1,14,0,14,0,1,,,,,,,,,,,,,
630cc9747cb664e8a03c29f0,SCR,2024-06-20_16h28.04.037,LearnStrategy,2023.2.3,Win32,30.12048193,4,1,16,0.399305556,-0.102083333,1,0,0,2.0921,Diorite_12,3,12,3,7,2.092,3,12,0.14375,-0.249305556,1,0,0,11.2512,Diorite_rect,3,11.251,1,15,0,15,0,1,,,,,,,,,,,,,
630cc9747cb664e8a03c29f0,SCR,2024-06-20_16h28.04.037,LearnStrategy,2023.2.3,Win32,30.12048193,4,2,1,,,,,,,,5,14,,,,,,,,,,,,,5,1.632,1,,,,,,-0.397222222,-0.411111111,1,0,0,1.6324,Obsidian_rect,0,0,0,0,1,
630cc9747cb664e8a03c29f0,SCR,2024-06-20_16h28.04.037,LearnStrategy,2023.2.3,Win32,30.12048193,4,2,2,,,,,,,,3,14,,,,,,,,,,,,,3,3.561,1,,,,,,0.13125,-0.247222222,1,0,0,3.5606,Diorite_rect,1,0,1,0,1,
630cc9747cb664e8a03c29f0,SCR,2024-06-20_16h28.04.037,LearnStrategy,2023.2.3,Win32,30.12048193,4,2,3,,,,,,,,8,14,,,,,,,,,,,,,8,1.678,1,,,,,,0.401388889,-0.386111111,1,0,0,1.6778,Pumice_rect,2,0,2,0,1,
630cc9747cb664e8a03c29f0,SCR,2024-06-20_16h28.04.037,LearnStrategy,2023.2.3,Win32,30.12048193,4,2,4,,,,,,,,6,06,,,,,,,,,,,,,6,4.925,1,,,,,,-0.104861111,-0.401388889,1,0,0,4.9248,Pegmatite_rect,3,0,3,0,1,
630cc9747cb664e8a03c29f0,SCR,2024-06-20_16h28.04.037,LearnStrategy,2023.2.3,Win32,30.12048193,4,2,5,,,,,,,,7,16,,,,,,,,,,,,,7,2.076,1,,,,,,0.1375,-0.40625,1,0,0,2.076,Peridotite_rect,4,0,4,0,1,
630cc9747cb664e8a03c29f0,SCR,2024-06-20_16h28.04.037,LearnStrategy,2023.2.3,Win32,30.12048193,4,2,6,,,,,,,,1,04,,,,,,,,,,,,,1,5.283,1,,,,,,-0.359722222,-0.23125,1,0,0,5.2826,Andesite_rect,5,0,5,0,1,
630cc9747cb664e8a03c29f0,SCR,2024-06-20_16h28.04.037,LearnStrategy,2023.2.3,Win32,30.12048193,4,2,7,,,,,,,,3,07,,,,,,,,,,,,,3,2.732,1,,,,,,0.114583333,-0.239583333,1,0,0,2.7322,Diorite_rect,6,0,6,0,1,
630cc9747cb664e8a03c29f0,SCR,2024-06-20_16h28.04.037,LearnStrategy,2023.2.3,Win32,30.12048193,4,2,8,,,,,,,,1,09,,,,,,,,,,,,,4,3.547,0,,,,,,0.378472222,-0.257638889,1,0,0,3.5468,Gabbro_rect,7,0,7,0,1,
630cc9747cb664e8a03c29f0,SCR,2024-06-20_16h28.04.037,LearnStrategy,2023.2.3,Win32,30.12048193,4,2,9,,,,,,,,4,11,,,,,,,,,,,,,4,2.059,1,,,,,,0.378472222,-0.257638889,1,0,0,2.0587,Gabbro_rect,8,0,8,0,1,
630cc9747cb664e8a03c29f0,SCR,2024-06-20_16h28.04.037,LearnStrategy,2023.2.3,Win32,30.12048193,4,2,10,,,,,,,,2,09,,,,,,,,,,,,,2,2.966,1,,,,,,-0.111111111,-0.250694444,1,0,0,2.9656,Basalt_rect,9,0,9,0,1,
630cc9747cb664e8a03c29f0,SCR,2024-06-20_16h28.04.037,LearnStrategy,2023.2.3,Win32,30.12048193,4,2,11,,,,,,,,5,08,,,,,,,,,,,,,5,2.299,1,,,,,,-0.390277778,-0.398611111,1,0,0,2.2991,Obsidian_rect,10,0,10,0,1,
630cc9747cb664e8a03c29f0,SCR,2024-06-20_16h28.04.037,LearnStrategy,2023.2.3,Win32,30.12048193,4,2,12,,,,,,,,7,08,,,,,,,,,,,,,7,1.638,1,,,,,,0.126388889,-0.409722222,1,0,0,1.6384,Peridotite_rect,11,0,11,0,1,
630cc9747cb664e8a03c29f0,SCR,2024-06-20_16h28.04.037,LearnStrategy,2023.2.3,Win32,30.12048193,4,2,13,,,,,,,,6,10,,,,,,,,,,,,,7,2.741,0,,,,,,0.126388889,-0.409722222,1,0,0,2.7409,Peridotite_rect,12,0,12,0,1,
630cc9747cb664e8a03c29f0,SCR,2024-06-20_16h28.04.037,LearnStrategy,2023.2.3,Win32,30.12048193,4,2,14,,,,,,,,4,12,,,,,,,,,,,,,4,5.503,1,,,,,,0.393055556,-0.242361111,1,0,0,5.5026,Gabbro_rect,13,0,13,0,1,
630cc9747cb664e8a03c29f0,SCR,2024-06-20_16h28.04.037,LearnStrategy,2023.2.3,Win32,30.12048193,4,2,15,,,,,,,,8,08,,,,,,,,,,,,,8,1.822,1,,,,,,0.391666667,-0.402083333,1,0,0,1.8217,Pumice_rect,14,0,14,0,1,
630cc9747cb664e8a03c29f0,SCR,2024-06-20_16h28.04.037,LearnStrategy,2023.2.3,Win32,30.12048193,4,2,16,,,,,,,,2,04,,,,,,,,,,,,,2,2.061,1,,,,,,-0.126388889,-0.245833333,1,0,0,2.0614,Basalt_rect,15,0,15,0,1,
630cc9747cb664e8a03c29f0,SCR,2024-06-20_16h28.04.037,LearnStrategy,2023.2.3,Win32,30.12048193,5,1,1,-0.392361111,-0.245138889,1,0,0,1.3301,Pegmatite_03,6,03,2,2,1.33,6,03,0.111111111,-0.25625,1,0,0,3.5586,Diorite_rect,3,3.559,0,0,0,0,0,1,,,,,,,,,,,,,
630cc9747cb664e8a03c29f0,SCR,2024-06-20_16h28.04.037,LearnStrategy,2023.2.3,Win32,30.12048193,5,1,2,0.539583333,-0.090972222,1,0,0,1.4706,Gabbro_08,4,08,3,8,1.471,4,08,-0.128472222,-0.24375,1,0,0,4.7419,Basalt_rect,2,4.742,0,1,0,1,0,1,,,,,,,,,,,,,
630cc9747cb664e8a03c29f0,SCR,2024-06-20_16h28.04.037,LearnStrategy,2023.2.3,Win32,30.12048193,5,1,3,0.380555556,-0.247222222,1,0,0,0.9417,Basalt_06,2,06,2,7,0.942,2,06,-0.127777778,-0.257638889,1,0,0,1.4518,Basalt_rect,2,1.452,1,2,0,2,0,1,,,,,,,,,,,,,
630cc9747cb664e8a03c29f0,SCR,2024-06-20_16h28.04.037,LearnStrategy,2023.2.3,Win32,30.12048193,5,1,4,0.549305556,-0.246527778,1,0,0,2.2703,Diorite_02,3,02,2,8,2.27,3,02,0.131944444,-0.248611111,1,0,0,1.3883,Diorite_rect,3,1.388,1,3,0,3,0,1,,,,,,,,,,,,,
630cc9747cb664e8a03c29f0,SCR,2024-06-20_16h28.04.037,LearnStrategy,2023.2.3,Win32,30.12048193,5,1,5,0.541666667,0.402083333,1,0,0,2.0714,Andesite_03,1,03,6,8,2.071,1,03,-0.409027778,-0.251388889,1,0,0,4.5342,Andesite_rect,1,4.534,1,4,0,4,0,1,,,,,,,,,,,,,
630cc9747cb664e8a03c29f0,SCR,2024-06-20_16h28.04.037,LearnStrategy,2023.2.3,Win32,30.12048193,5,1,6,-0.219444444,0.417361111,1,0,0,1.4458,Andesite_06,1,06,6,3,1.446,1,06,-0.392361111,-0.245833333,1,0,0,2.6261,Andesite_rect,1,2.626,1,5,0,5,0,1,,,,,,,,,,,,,
630cc9747cb664e8a03c29f0,SCR,2024-06-20_16h28.04.037,LearnStrategy,2023.2.3,Win32,30.12048193,5,1,7,-0.547916667,-0.253472222,1,0,0,2.4939,Gabbro_05,4,05,2,1,2.494,4,05,0.399305556,-0.250694444,1,0,0,8.8422,Gabbro_rect,4,8.842,1,6,0,6,0,1,,,,,,,,,,,,,
630cc9747cb664e8a03c29f0,SCR,2024-06-20_16h28.04.037,LearnStrategy,2023.2.3,Win32,30.12048193,5,1,8,0.411111111,0.409722222,1,0,0,2.5446,Pumice_13,8,13,6,7,2.545,8,13,0.388194444,-0.390972222,1,0,0,2.0358,Pumice_rect,8,2.036,1,7,0,7,0,1,,,,,,,,,,,,,
630cc9747cb664e8a03c29f0,SCR,2024-06-20_16h28.04.037,LearnStrategy,2023.2.3,Win32,30.12048193,5,1,9,-0.390277778,0.409027778,1,0,0,1.5944,Obsidian_12,5,12,6,2,1.594,5,12,-0.396527778,-0.397222222,1,0,0,2.0256,Obsidian_rect,5,2.026,1,8,0,8,0,1,,,,,,,,,,,,,
630cc9747cb664e8a03c29f0,SCR,2024-06-20_16h28.04.037,LearnStrategy,2023.2.3,Win32,30.12048193,5,1,10,-0.392361111,-0.101388889,1,0,0,1.8683,Peridotite_13,7,13,3,2,1.868,7,13,0.120833333,-0.388888889,1,0,0,1.5737,Peridotite_rect,7,1.574,1,9,0,9,0,1,,,,,,,,,,,,,
630cc9747cb664e8a03c29f0,SCR,2024-06-20_16h28.04.037,LearnStrategy,2023.2.3,Win32,30.12048193,5,1,11,0.388194444,0.102777778,1,0,0,1.631,Andesite_07,1,07,4,7,1.631,1,07,-0.118055556,-0.395138889,1,0,0,4.1432,Pegmatite_rect,6,4.143,0,10,0,10,0,1,,,,,,,,,,,,,
630cc9747cb664e8a03c29f0,SCR,2024-06-20_16h28.04.037,LearnStrategy,2023.2.3,Win32,30.12048193,5,1,12,-0.558333333,0.09375,1,0,0,1.7322,Diorite_13,3,13,4,1,1.732,3,13,0.130555556,-0.239583333,1,0,0,3.0472,Diorite_rect,3,3.047,1,11,0,11,0,1,,,,,,,,,,,,,
630cc9747cb664e8a03c29f0,SCR,2024-06-20_16h28.04.037,LearnStrategy,2023.2.3,Win32,30.12048193,5,1,13,-0.379861111,0.111111111,1,0,0,2.7728,Andesite_02,1,02,4,2,2.773,1,02,-0.395138889,-0.234722222,1,0,0,1.4686,Andesite_rect,1,1.469,1,12,0,12,0,1,,,,,,,,,,,,,
630cc9747cb664e8a03c29f0,SCR,2024-06-20_16h28.04.037,LearnStrategy,2023.2.3,Win32,30.12048193,5,1,14,-0.223611111,0.229861111,1,0,0,1.8256,Pegmatite_15,6,15,5,3,1.826,6,15,0.140277778,-0.253472222,1,0,0,2.1311,Diorite_rect,3,2.131,0,13,0,13,0,1,,,,,,,,,,,,,
630cc9747cb664e8a03c29f0,SCR,2024-06-20_16h28.04.037,LearnStrategy,2023.2.3,Win32,30.12048193,5,1,15,-0.55,-0.110416667,1,0,0,1.4006,Peridotite_05,7,05,3,1,1.401,7,05,0.146527778,-0.397222222,1,0,0,5.5727,Peridotite_rect,7,5.573,1,14,0,14,0,1,,,,,,,,,,,,,
630cc9747cb664e8a03c29f0,SCR,2024-06-20_16h28.04.037,LearnStrategy,2023.2.3,Win32,30.12048193,5,1,16,-0.534027778,-0.395138889,1,0,0,1.5994,Pegmatite_12,6,12,1,1,1.599,6,12,0.100694444,-0.239583333,1,0,0,3.691,Diorite_rect,3,3.691,0,15,0,15,0,1,,,,,,,,,,,,,
630cc9747cb664e8a03c29f0,SCR,2024-06-20_16h28.04.037,LearnStrategy,2023.2.3,Win32,30.12048193,5,2,1,,,,,,,,5,07,,,,,,,,,,,,,5,2.834,1,,,,,,-0.395138889,-0.405555556,1,0,0,2.8337,Obsidian_rect,0,0,0,0,1,
630cc9747cb664e8a03c29f0,SCR,2024-06-20_16h28.04.037,LearnStrategy,2023.2.3,Win32,30.12048193,5,2,2,,,,,,,,1,14,,,,,,,,,,,,,1,3.581,1,,,,,,-0.382638889,-0.251388889,1,0,0,3.5808,Andesite_rect,1,0,1,0,1,
630cc9747cb664e8a03c29f0,SCR,2024-06-20_16h28.04.037,LearnStrategy,2023.2.3,Win32,30.12048193,5,2,3,,,,,,,,8,09,,,,,,,,,,,,,8,2.023,1,,,,,,0.400694444,-0.400694444,1,0,0,2.0229,Pumice_rect,2,0,2,0,1,
630cc9747cb664e8a03c29f0,SCR,2024-06-20_16h28.04.037,LearnStrategy,2023.2.3,Win32,30.12048193,5,2,4,,,,,,,,4,13,,,,,,,,,,,,,4,6.306,1,,,,,,0.413888889,-0.255555556,1,0,0,6.3056,Gabbro_rect,3,0,3,0,1,
630cc9747cb664e8a03c29f0,SCR,2024-06-20_16h28.04.037,LearnStrategy,2023.2.3,Win32,30.12048193,5,2,5,,,,,,,,6,16,,,,,,,,,,,,,6,6.628,1,,,,,,-0.1125,-0.401388889,1,0,0,6.6276,Pegmatite_rect,4,0,4,0,1,
630cc9747cb664e8a03c29f0,SCR,2024-06-20_16h28.04.037,LearnStrategy,2023.2.3,Win32,30.12048193,5,2,6,,,,,,,,3,11,,,,,,,,,,,,,3,4.165,1,,,,,,0.110416667,-0.245138889,1,0,0,4.1647,Diorite_rect,5,0,5,0,1,
630cc9747cb664e8a03c29f0,SCR,2024-06-20_16h28.04.037,LearnStrategy,2023.2.3,Win32,30.12048193,5,2,7,,,,,,,,1,05,,,,,,,,,,,,,7,3.616,0,,,,,,0.127777778,-0.403472222,1,0,0,3.6163,Peridotite_rect,6,0,6,0,1,
630cc9747cb664e8a03c29f0,SCR,2024-06-20_16h28.04.037,LearnStrategy,2023.2.3,Win32,30.12048193,5,2,8,,,,,,,,7,10,,,,,,,,,,,,,7,1.179,1,,,,,,0.127777778,-0.404166667,1,0,0,1.179,Peridotite_rect,7,0,7,0,1,
630cc9747cb664e8a03c29f0,SCR,2024-06-20_16h28.04.037,LearnStrategy,2023.2.3,Win32,30.12048193,5,2,9,,,,,,,,6,13,,,,,,,,,,,,,6,5.962,1,,,,,,-0.122222222,-0.409027778,1,0,0,5.9616,Pegmatite_rect,8,0,8,0,1,
630cc9747cb664e8a03c29f0,SCR,2024-06-20_16h28.04.037,LearnStrategy,2023.2.3,Win32,30.12048193,5,2,10,,,,,,,,2,08,,,,,,,,,,,,,2,2.12,1,,,,,,-0.13125,-0.24375,1,0,0,2.1197,Basalt_rect,9,0,9,0,1,
630cc9747cb664e8a03c29f0,SCR,2024-06-20_16h28.04.037,LearnStrategy,2023.2.3,Win32,30.12048193,5,2,11,,,,,,,,7,07,,,,,,,,,,,,,7,1.848,1,,,,,,0.1375,-0.393055556,1,0,0,1.8481,Peridotite_rect,10,0,10,0,1,
630cc9747cb664e8a03c29f0,SCR,2024-06-20_16h28.04.037,LearnStrategy,2023.2.3,Win32,30.12048193,5,2,12,,,,,,,,4,16,,,,,,,,,,,,,2,6.251,0,,,,,,-0.127083333,-0.235416667,1,0,0,6.2507,Basalt_rect,11,0,11,0,1,
630cc9747cb664e8a03c29f0,SCR,2024-06-20_16h28.04.037,LearnStrategy,2023.2.3,Win32,30.12048193,5,2,13,,,,,,,,5,09,,,,,,,,,,,,,5,1.844,1,,,,,,-0.39375,-0.4,1,0,0,1.844,Obsidian_rect,12,0,12,0,1,
630cc9747cb664e8a03c29f0,SCR,2024-06-20_16h28.04.037,LearnStrategy,2023.2.3,Win32,30.12048193,5,2,14,,,,,,,,8,02,,,,,,,,,,,,,8,2.556,1,,,,,,0.389583333,-0.390277778,1,0,0,2.5564,Pumice_rect,13,0,13,0,1,
630cc9747cb664e8a03c29f0,SCR,2024-06-20_16h28.04.037,LearnStrategy,2023.2.3,Win32,30.12048193,5,2,15,,,,,,,,3,06,,,,,,,,,,,,,3,2.751,1,,,,,,0.139583333,-0.254166667,1,0,0,2.7507,Diorite_rect,14,0,14,0,1,
630cc9747cb664e8a03c29f0,SCR,2024-06-20_16h28.04.037,LearnStrategy,2023.2.3,Win32,30.12048193,5,2,16,,,,,,,,2,14,,,,,,,,,,,,,2,12.645,1,,,,,,-0.13125,-0.247916667,1,0,0,12.6455,Basalt_rect,15,0,15,0,1,
630cc9747cb664e8a03c29f0,SCR,2024-06-20_16h28.04.037,LearnStrategy,2023.2.3,Win32,30.12048193,6,1,1,0.393055556,-0.258333333,1,0,0,2.2636,Basalt_06,2,06,2,7,2.264,2,06,-0.134027778,-0.243055556,1,0,0,1.6488,Basalt_rect,2,1.649,1,0,0,0,0,1,,,,,,,,,,,,,
630cc9747cb664e8a03c29f0,SCR,2024-06-20_16h28.04.037,LearnStrategy,2023.2.3,Win32,30.12048193,6,1,2,-0.553472222,-0.103472222,1,0,0,2.1477,Peridotite_05,7,05,3,1,2.148,7,05,0.14375,-0.397222222,1,0,0,1.7819,Peridotite_rect,7,1.782,1,1,0,1,0,1,,,,,,,,,,,,,
630cc9747cb664e8a03c29f0,SCR,2024-06-20_16h28.04.037,LearnStrategy,2023.2.3,Win32,30.12048193,6,1,3,-0.084027778,0.402083333,1,0,0,1.3267,Diorite_15,3,15,6,4,1.327,3,15,0.135416667,-0.250694444,1,0,0,1.9477,Diorite_rect,3,1.948,1,2,0,2,0,1,,,,,,,,,,,,,
630cc9747cb664e8a03c29f0,SCR,2024-06-20_16h28.04.037,LearnStrategy,2023.2.3,Win32,30.12048193,6,1,4,-0.408333333,-0.261805556,1,0,0,1.3848,Pegmatite_03,6,03,2,2,1.385,6,03,-0.123611111,-0.404166667,1,0,0,2.1959,Pegmatite_rect,6,2.196,1,3,0,3,0,1,,,,,,,,,,,,,
630cc9747cb664e8a03c29f0,SCR,2024-06-20_16h28.04.037,LearnStrategy,2023.2.3,Win32,30.12048193,6,1,5,-0.377083333,0.098611111,1,0,0,1.7302,Andesite_02,1,02,4,2,1.73,1,02,-0.394444444,-0.2375,1,0,0,1.4799,Andesite_rect,1,1.48,1,4,0,4,0,1,,,,,,,,,,,,,
630cc9747cb664e8a03c29f0,SCR,2024-06-20_16h28.04.037,LearnStrategy,2023.2.3,Win32,30.12048193,6,1,6,-0.063888889,0.070833333,1,0,0,0.9213,Gabbro_15,4,15,4,4,0.921,4,15,0.131944444,-0.244444444,1,0,0,3.924,Diorite_rect,3,3.924,0,5,0,5,0,1,,,,,,,,,,,,,
630cc9747cb664e8a03c29f0,SCR,2024-06-20_16h28.04.037,LearnStrategy,2023.2.3,Win32,30.12048193,6,1,7,-0.379861111,0.243055556,1,0,0,1.4677,Gabbro_09,4,09,5,2,1.468,4,09,0.402777778,-0.247222222,1,0,0,3.3069,Gabbro_rect,4,3.307,1,6,0,6,0,1,,,,,,,,,,,,,
630cc9747cb664e8a03c29f0,SCR,2024-06-20_16h28.04.037,LearnStrategy,2023.2.3,Win32,30.12048193,6,1,8,0.238194444,0.257638889,1,0,0,1.3523,Andesite_11,1,11,5,6,1.352,1,11,-0.379166667,-0.245138889,1,0,0,2.6385,Andesite_rect,1,2.638,1,7,0,7,0,1,,,,,,,,,,,,,
630cc9747cb664e8a03c29f0,SCR,2024-06-20_16h28.04.037,LearnStrategy,2023.2.3,Win32,30.12048193,6,1,9,0.520833333,-0.084027778,1,0,0,1.7093,Gabbro_08,4,08,3,8,1.709,4,08,0.408333333,-0.247222222,1,0,0,1.6973,Gabbro_rect,4,1.697,1,8,0,8,0,1,,,,,,,,,,,,,
630cc9747cb664e8a03c29f0,SCR,2024-06-20_16h28.04.037,LearnStrategy,2023.2.3,Win32,30.12048193,6,1,10,0.240277778,0.416666667,1,0,0,1.3854,Obsidian_16,5,16,6,6,1.385,5,16,-0.40625,-0.390972222,1,0,0,1.5331,Obsidian_rect,5,1.533,1,9,0,9,0,1,,,,,,,,,,,,,
630cc9747cb664e8a03c29f0,SCR,2024-06-20_16h28.04.037,LearnStrategy,2023.2.3,Win32,30.12048193,6,1,11,0.547222222,-0.240972222,1,0,0,3.3387,Diorite_02,3,02,2,8,3.339,3,02,0.115972222,-0.2375,1,0,0,2.0608,Diorite_rect,3,2.061,1,10,0,10,0,1,,,,,,,,,,,,,
630cc9747cb664e8a03c29f0,SCR,2024-06-20_16h28.04.037,LearnStrategy,2023.2.3,Win32,30.12048193,6,1,12,0.411111111,0.097222222,1,0,0,1.3275,Andesite_07,1,07,4,7,1.327,1,07,-0.425,-0.24375,1,0,0,5.0689,Andesite_rect,1,5.069,1,11,0,11,0,1,,,,,,,,,,,,,
630cc9747cb664e8a03c29f0,SCR,2024-06-20_16h28.04.037,LearnStrategy,2023.2.3,Win32,30.12048193,6,1,13,0.085416667,-0.090972222,1,0,0,2.1007,Pumice_10,8,10,3,5,2.101,8,10,0.365277778,-0.402777778,1,0,0,2.1821,Pumice_rect,8,2.182,1,12,0,12,0,1,,,,,,,,,,,,,
630cc9747cb664e8a03c29f0,SCR,2024-06-20_16h28.04.037,LearnStrategy,2023.2.3,Win32,30.12048193,6,1,14,0.400694444,0.254166667,1,0,0,2.0623,Pegmatite_05,6,05,5,7,2.062,6,05,-0.123611111,-0.391666667,1,0,0,6.4553,Pegmatite_rect,6,6.455,1,13,0,13,0,1,,,,,,,,,,,,,
630cc9747cb664e8a03c29f0,SCR,2024-06-20_16h28.04.037,LearnStrategy,2023.2.3,Win32,30.12048193,6,1,15,0.0875,-0.413888889,1,0,0,1.3868,Pegmatite_07,6,07,1,5,1.387,6,07,-0.119444444,-0.395138889,1,0,0,1.2498,Pegmatite_rect,6,1.25,1,14,0,14,0,1,,,,,,,,,,,,,
630cc9747cb664e8a03c29f0,SCR,2024-06-20_16h28.04.037,LearnStrategy,2023.2.3,Win32,30.12048193,6,1,16,-0.2375,-0.108333333,1,0,0,1.074,Andesite_10,1,10,3,3,1.074,1,10,-0.126388889,-0.238194444,1,0,0,3.2101,Basalt_rect,2,3.21,0,15,0,15,0,1,,,,,,,,,,,,,
630cc9747cb664e8a03c29f0,SCR,2024-06-20_16h28.04.037,LearnStrategy,2023.2.3,Win32,30.12048193,6,2,1,,,,,,,,5,04,,,,,,,,,,,,,5,1.768,1,,,,,,-0.381944444,-0.393055556,1,0,0,1.7685,Obsidian_rect,0,0,0,0,1,
630cc9747cb664e8a03c29f0,SCR,2024-06-20_16h28.04.037,LearnStrategy,2023.2.3,Win32,30.12048193,6,2,2,,,,,,,,4,01,,,,,,,,,,,,,4,5.801,1,,,,,,0.392361111,-0.249305556,1,0,0,5.8011,Gabbro_rect,1,0,1,0,1,
630cc9747cb664e8a03c29f0,SCR,2024-06-20_16h28.04.037,LearnStrategy,2023.2.3,Win32,30.12048193,6,2,3,,,,,,,,6,08,,,,,,,,,,,,,6,3.016,1,,,,,,-0.13125,-0.397916667,1,0,0,3.0156,Pegmatite_rect,2,0,2,0,1,
630cc9747cb664e8a03c29f0,SCR,2024-06-20_16h28.04.037,LearnStrategy,2023.2.3,Win32,30.12048193,6,2,4,,,,,,,,8,04,,,,,,,,,,,,,8,1.499,1,,,,,,0.395138889,-0.393055556,1,0,0,1.4987,Pumice_rect,3,0,3,0,1,
630cc9747cb664e8a03c29f0,SCR,2024-06-20_16h28.04.037,LearnStrategy,2023.2.3,Win32,30.12048193,6,2,5,,,,,,,,7,02,,,,,,,,,,,,,7,2.112,1,,,,,,0.134722222,-0.415972222,1,0,0,2.1116,Peridotite_rect,4,0,4,0,1,
630cc9747cb664e8a03c29f0,SCR,2024-06-20_16h28.04.037,LearnStrategy,2023.2.3,Win32,30.12048193,6,2,6,,,,,,,,2,10,,,,,,,,,,,,,2,3.294,1,,,,,,-0.139583333,-0.250694444,1,0,0,3.294,Basalt_rect,5,0,5,0,1,
630cc9747cb664e8a03c29f0,SCR,2024-06-20_16h28.04.037,LearnStrategy,2023.2.3,Win32,30.12048193,6,2,7,,,,,,,,6,11,,,,,,,,,,,,,6,2.305,1,,,,,,-0.122916667,-0.413194444,1,0,0,2.3049,Pegmatite_rect,6,0,6,0,1,
630cc9747cb664e8a03c29f0,SCR,2024-06-20_16h28.04.037,LearnStrategy,2023.2.3,Win32,30.12048193,6,2,8,,,,,,,,3,16,,,,,,,,,,,,,3,1.738,1,,,,,,0.160416667,-0.240972222,1,0,0,1.7381,Diorite_rect,7,0,7,0,1,
630cc9747cb664e8a03c29f0,SCR,2024-06-20_16h28.04.037,LearnStrategy,2023.2.3,Win32,30.12048193,6,2,9,,,,,,,,7,04,,,,,,,,,,,,,4,7.07,0,,,,,,0.402777778,-0.248611111,1,0,0,7.0701,Gabbro_rect,8,0,8,0,1,
630cc9747cb664e8a03c29f0,SCR,2024-06-20_16h28.04.037,LearnStrategy,2023.2.3,Win32,30.12048193,6,2,10,,,,,,,,2,05,,,,,,,,,,,,,2,1.673,1,,,,,,-0.135416667,-0.246527778,1,0,0,1.673,Basalt_rect,9,0,9,0,1,
630cc9747cb664e8a03c29f0,SCR,2024-06-20_16h28.04.037,LearnStrategy,2023.2.3,Win32,30.12048193,6,2,11,,,,,,,,5,02,,,,,,,,,,,,,5,1.621,1,,,,,,-0.391666667,-0.406944444,1,0,0,1.6206,Obsidian_rect,10,0,10,0,1,
630cc9747cb664e8a03c29f0,SCR,2024-06-20_16h28.04.037,LearnStrategy,2023.2.3,Win32,30.12048193,6,2,12,,,,,,,,1,16,,,,,,,,,,,,,1,1.523,1,,,,,,-0.408333333,-0.239583333,1,0,0,1.5231,Andesite_rect,11,0,11,0,1,
630cc9747cb664e8a03c29f0,SCR,2024-06-20_16h28.04.037,LearnStrategy,2023.2.3,Win32,30.12048193,6,2,13,,,,,,,,1,01,,,,,,,,,,,,,1,6.403,1,,,,,,-0.397222222,-0.246527778,1,0,0,6.4029,Andesite_rect,12,0,12,0,1,
630cc9747cb664e8a03c29f0,SCR,2024-06-20_16h28.04.037,LearnStrategy,2023.2.3,Win32,30.12048193,6,2,14,,,,,,,,8,06,,,,,,,,,,,,,8,1.93,1,,,,,,0.391666667,-0.397222222,1,0,0,1.93,Pumice_rect,13,0,13,0,1,
630cc9747cb664e8a03c29f0,SCR,2024-06-20_16h28.04.037,LearnStrategy,2023.2.3,Win32,30.12048193,6,2,15,,,,,,,,3,08,,,,,,,,,,,,,3,2.929,1,,,,,,0.155555556,-0.258333333,1,0,0,2.9295,Diorite_rect,14,0,14,0,1,
630cc9747cb664e8a03c29f0,SCR,2024-06-20_16h28.04.037,LearnStrategy,2023.2.3,Win32,30.12048193,6,2,16,,,,,,,,4,14,,,,,,,,,,,,,2,2.422,0,,,,,,-0.106944444,-0.245833333,1,0,0,2.4224,Basalt_rect,15,0,15,0,1,
630cc9747cb664e8a03c29f0,SCR,2024-06-20_16h28.04.037,LearnStrategy,2023.2.3,Win32,30.12048193,7,1,1,-0.399305556,0.097916667,1,0,0,1.4609,Andesite_02,1,02,4,2,1.461,1,02,-0.372222222,-0.238194444,1,0,0,1.3198,Andesite_rect,1,1.32,1,0,0,0,0,1,,,,,,,,,,,,,
630cc9747cb664e8a03c29f0,SCR,2024-06-20_16h28.04.037,LearnStrategy,2023.2.3,Win32,30.12048193,7,1,2,-0.385416667,0.252777778,1,0,0,1.2202,Gabbro_09,4,09,5,2,1.22,4,09,0.396527778,-0.25,1,0,0,3.0721,Gabbro_rect,4,3.072,1,1,0,1,0,1,,,,,,,,,,,,,
630cc9747cb664e8a03c29f0,SCR,2024-06-20_16h28.04.037,LearnStrategy,2023.2.3,Win32,30.12048193,7,1,3,-0.552777778,-0.248611111,1,0,0,2.6201,Gabbro_05,4,05,2,1,2.62,4,05,0.403472222,-0.243055556,1,0,0,1.6055,Gabbro_rect,4,1.606,1,2,0,2,0,1,,,,,,,,,,,,,
630cc9747cb664e8a03c29f0,SCR,2024-06-20_16h28.04.037,LearnStrategy,2023.2.3,Win32,30.12048193,7,1,4,0.245138889,-0.123611111,1,0,0,1.3776,Peridotite_14,7,14,3,6,1.378,7,14,0.124305556,-0.409027778,1,0,0,3.9545,Peridotite_rect,7,3.954,1,3,0,3,0,1,,,,,,,,,,,,,
630cc9747cb664e8a03c29f0,SCR,2024-06-20_16h28.04.037,LearnStrategy,2023.2.3,Win32,30.12048193,7,1,5,0.251388889,-0.404166667,1,0,0,2.2372,Pegmatite_09,6,09,1,6,2.237,6,09,-0.120833333,-0.397916667,1,0,0,2.4925,Pegmatite_rect,6,2.493,1,4,0,4,0,1,,,,,,,,,,,,,
630cc9747cb664e8a03c29f0,SCR,2024-06-20_16h28.04.037,LearnStrategy,2023.2.3,Win32,30.12048193,7,1,6,-0.521527778,0.241666667,1,0,0,1.2187,Peridotite_06,7,06,5,1,1.219,7,06,0.125694444,-0.398611111,1,0,0,1.7776,Peridotite_rect,7,1.778,1,5,0,5,0,1,,,,,,,,,,,,,
630cc9747cb664e8a03c29f0,SCR,2024-06-20_16h28.04.037,LearnStrategy,2023.2.3,Win32,30.12048193,7,1,7,-0.238888889,-0.390277778,1,0,0,1.2137,Obsidian_11,5,11,1,3,1.214,5,11,-0.372916667,-0.385416667,1,0,0,3.3059,Obsidian_rect,5,3.306,1,6,0,6,0,1,,,,,,,,,,,,,
630cc9747cb664e8a03c29f0,SCR,2024-06-20_16h28.04.037,LearnStrategy,2023.2.3,Win32,30.12048193,7,1,8,-0.061111111,0.107638889,1,0,0,1.3224,Gabbro_15,4,15,4,4,1.322,4,15,0.375,-0.247916667,1,0,0,5.6889,Gabbro_rect,4,5.689,1,7,0,7,0,1,,,,,,,,,,,,,
630cc9747cb664e8a03c29f0,SCR,2024-06-20_16h28.04.037,LearnStrategy,2023.2.3,Win32,30.12048193,7,1,9,-0.526388889,-0.397916667,1,0,0,1.2132,Pegmatite_12,6,12,1,1,1.213,6,12,0.117361111,-0.244444444,1,0,0,3.9795,Diorite_rect,3,3.979,0,8,0,8,0,1,,,,,,,,,,,,,
630cc9747cb664e8a03c29f0,SCR,2024-06-20_16h28.04.037,LearnStrategy,2023.2.3,Win32,30.12048193,7,1,10,0.056944444,0.10625,1,0,0,1.4591,Pumice_05,8,05,4,5,1.459,8,05,0.382638889,-0.386805556,1,0,0,1.4751,Pumice_rect,8,1.475,1,9,0,9,0,1,,,,,,,,,,,,,
630cc9747cb664e8a03c29f0,SCR,2024-06-20_16h28.04.037,LearnStrategy,2023.2.3,Win32,30.12048193,7,1,11,-0.234722222,-0.104861111,1,0,0,1.3633,Andesite_10,1,10,3,3,1.363,1,10,-0.140972222,-0.241666667,1,0,0,1.5835,Basalt_rect,2,1.584,0,10,0,10,0,1,,,,,,,,,,,,,
630cc9747cb664e8a03c29f0,SCR,2024-06-20_16h28.04.037,LearnStrategy,2023.2.3,Win32,30.12048193,7,1,12,0.548611111,-0.4375,1,0,0,1.4513,Peridotite_12,7,12,1,8,1.451,7,12,0.151388889,-0.398611111,1,0,0,3.1013,Peridotite_rect,7,3.101,1,11,0,11,0,1,,,,,,,,,,,,,
630cc9747cb664e8a03c29f0,SCR,2024-06-20_16h28.04.037,LearnStrategy,2023.2.3,Win32,30.12048193,7,1,13,0.391666667,-0.393055556,1,0,0,1.3304,Basalt_12,2,12,1,7,1.33,2,12,-0.116666667,-0.257638889,1,0,0,3.6742,Basalt_rect,2,3.674,1,12,0,12,0,1,,,,,,,,,,,,,
630cc9747cb664e8a03c29f0,SCR,2024-06-20_16h28.04.037,LearnStrategy,2023.2.3,Win32,30.12048193,7,1,14,0.579861111,0.10625,1,0,0,1.6423,Gabbro_03,4,03,4,8,1.642,4,03,0.395138889,-0.249305556,1,0,0,6.6397,Gabbro_rect,4,6.64,1,13,0,13,0,1,,,,,,,,,,,,,
630cc9747cb664e8a03c29f0,SCR,2024-06-20_16h28.04.037,LearnStrategy,2023.2.3,Win32,30.12048193,7,1,15,0.536805556,0.259722222,1,0,0,2.0893,Diorite_10,3,10,5,8,2.089,3,10,-0.370833333,-0.245833333,1,0,0,1.9058,Andesite_rect,1,1.906,0,14,0,14,0,1,,,,,,,,,,,,,
630cc9747cb664e8a03c29f0,SCR,2024-06-20_16h28.04.037,LearnStrategy,2023.2.3,Win32,30.12048193,7,1,16,-0.21875,-0.115277778,1,0,0,1.1871,Andesite_10,1,10,3,3,1.187,1,10,-0.365277778,-0.241666667,1,0,0,2.3999,Andesite_rect,1,2.4,1,15,0,15,0,1,,,,,,,,,,,,,
630cc9747cb664e8a03c29f0,SCR,2024-06-20_16h28.04.037,LearnStrategy,2023.2.3,Win32,30.12048193,7,2,1,,,,,,,,7,16,,,,,,,,,,,,,7,2.049,1,,,,,,0.148611111,-0.404861111,1,0,0,2.0492,Peridotite_rect,0,0,0,0,1,
630cc9747cb664e8a03c29f0,SCR,2024-06-20_16h28.04.037,LearnStrategy,2023.2.3,Win32,30.12048193,7,2,2,,,,,,,,7,10,,,,,,,,,,,,,7,0.837,1,,,,,,0.148611111,-0.404861111,1,0,0,0.837,Peridotite_rect,1,0,1,0,1,
630cc9747cb664e8a03c29f0,SCR,2024-06-20_16h28.04.037,LearnStrategy,2023.2.3,Win32,30.12048193,7,2,3,,,,,,,,5,08,,,,,,,,,,,,,5,1.751,1,,,,,,-0.390277778,-0.411805556,1,0,0,1.7506,Obsidian_rect,2,0,2,0,1,
630cc9747cb664e8a03c29f0,SCR,2024-06-20_16h28.04.037,LearnStrategy,2023.2.3,Win32,30.12048193,7,2,4,,,,,,,,5,02,,,,,,,,,,,,,5,0.95,1,,,,,,-0.393055556,-0.402777778,1,0,0,0.9501,Obsidian_rect,3,0,3,0,1,
630cc9747cb664e8a03c29f0,SCR,2024-06-20_16h28.04.037,LearnStrategy,2023.2.3,Win32,30.12048193,7,2,5,,,,,,,,2,05,,,,,,,,,,,,,2,2.282,1,,,,,,-0.130555556,-0.258333333,1,0,0,2.2817,Basalt_rect,4,0,4,0,1,
630cc9747cb664e8a03c29f0,SCR,2024-06-20_16h28.04.037,LearnStrategy,2023.2.3,Win32,30.12048193,7,2,6,,,,,,,,8,02,,,,,,,,,,,,,8,1.623,1,,,,,,0.418055556,-0.402777778,1,0,0,1.6227,Pumice_rect,5,0,5,0,1,
630cc9747cb664e8a03c29f0,SCR,2024-06-20_16h28.04.037,LearnStrategy,2023.2.3,Win32,30.12048193,7,2,7,,,,,,,,1,05,,,,,,,,,,,,,7,4.034,0,,,,,,0.144444444,-0.404861111,1,0,0,4.0335,Peridotite_rect,6,0,6,0,1,
630cc9747cb664e8a03c29f0,SCR,2024-06-20_16h28.04.037,LearnStrategy,2023.2.3,Win32,30.12048193,7,2,8,,,,,,,,6,08,,,,,,,,,,,,,6,1.574,1,,,,,,-0.145833333,-0.390277778,1,0,0,1.5744,Pegmatite_rect,7,0,7,0,1,
630cc9747cb664e8a03c29f0,SCR,2024-06-20_16h28.04.037,LearnStrategy,2023.2.3,Win32,30.12048193,7,2,9,,,,,,,,2,04,,,,,,,,,,,,,2,1.493,1,,,,,,-0.134027778,-0.245833333,1,0,0,1.4934,Basalt_rect,8,0,8,0,1,
630cc9747cb664e8a03c29f0,SCR,2024-06-20_16h28.04.037,LearnStrategy,2023.2.3,Win32,30.12048193,7,2,10,,,,,,,,4,12,,,,,,,,,,,,,4,1.525,1,,,,,,0.390277778,-0.245833333,1,0,0,1.5253,Gabbro_rect,9,0,9,0,1,
630cc9747cb664e8a03c29f0,SCR,2024-06-20_16h28.04.037,LearnStrategy,2023.2.3,Win32,30.12048193,7,2,11,,,,,,,,3,06,,,,,,,,,,,,,3,2.213,1,,,,,,0.146527778,-0.247222222,1,0,0,2.2134,Diorite_rect,10,0,10,0,1,
630cc9747cb664e8a03c29f0,SCR,2024-06-20_16h28.04.037,LearnStrategy,2023.2.3,Win32,30.12048193,7,2,12,,,,,,,,4,01,,,,,,,,,,,,,4,7.519,1,,,,,,0.428472222,-0.256944444,1,0,0,7.5188,Gabbro_rect,11,0,11,0,1,
630cc9747cb664e8a03c29f0,SCR,2024-06-20_16h28.04.037,LearnStrategy,2023.2.3,Win32,30.12048193,7,2,13,,,,,,,,1,01,,,,,,,,,,,,,3,6.219,0,,,,,,0.152777778,-0.253472222,1,0,0,6.2186,Diorite_rect,12,0,12,0,1,
630cc9747cb664e8a03c29f0,SCR,2024-06-20_16h28.04.037,LearnStrategy,2023.2.3,Win32,30.12048193,7,2,14,,,,,,,,8,04,,,,,,,,,,,,,8,1.675,1,,,,,,0.415972222,-0.405555556,1,0,0,1.6753,Pumice_rect,13,0,13,0,1,
630cc9747cb664e8a03c29f0,SCR,2024-06-20_16h28.04.037,LearnStrategy,2023.2.3,Win32,30.12048193,7,2,15,,,,,,,,3,07,,,,,,,,,,,,,3,1.972,1,,,,,,0.119444444,-0.245833333,1,0,0,1.9721,Diorite_rect,14,0,14,0,1,
630cc9747cb664e8a03c29f0,SCR,2024-06-20_16h28.04.037,LearnStrategy,2023.2.3,Win32,30.12048193,7,2,16,,,,,,,,6,06,,,,,,,,,,,,,6,1.761,1,,,,,,-0.146527778,-0.386111111,1,0,0,1.7613,Pegmatite_rect,15,0,15,0,1,
630cc9747cb664e8a03c29f0,SCR,2024-06-20_16h28.04.037,LearnStrategy,2023.2.3,Win32,30.12048193,8,1,1,-0.223611111,0.252083333,1,0,0,1.3725,Pegmatite_15,6,15,5,3,1.372,6,15,-0.117361111,-0.389583333,1,0,0,1.2556,Pegmatite_rect,6,1.256,1,0,0,0,0,1,,,,,,,,,,,,,
630cc9747cb664e8a03c29f0,SCR,2024-06-20_16h28.04.037,LearnStrategy,2023.2.3,Win32,30.12048193,8,1,2,-0.236805556,0.422222222,1,0,0,2.2318,Andesite_06,1,06,6,3,2.232,1,06,-0.404166667,-0.259027778,1,0,0,1.7724,Andesite_rect,1,1.772,1,1,0,1,0,1,,,,,,,,,,,,,
630cc9747cb664e8a03c29f0,SCR,2024-06-20_16h28.04.037,LearnStrategy,2023.2.3,Win32,30.12048193,8,1,3,0.234722222,0.093055556,1,0,0,1.1892,Pumice_03,8,03,4,6,1.189,8,03,0.389583333,-0.4125,1,0,0,1.4671,Pumice_rect,8,1.467,1,2,0,2,0,1,,,,,,,,,,,,,
630cc9747cb664e8a03c29f0,SCR,2024-06-20_16h28.04.037,LearnStrategy,2023.2.3,Win32,30.12048193,8,1,4,0.534722222,-0.421527778,1,0,0,1.4766,Peridotite_12,7,12,1,8,1.477,7,12,0.154166667,-0.388888889,1,0,0,1.5418,Peridotite_rect,7,1.542,1,3,0,3,0,1,,,,,,,,,,,,,
630cc9747cb664e8a03c29f0,SCR,2024-06-20_16h28.04.037,LearnStrategy,2023.2.3,Win32,30.12048193,8,1,5,-0.227083333,-0.272222222,1,0,0,1.2039,Basalt_11,2,11,2,3,1.204,2,11,-0.136111111,-0.260416667,1,0,0,2.0944,Basalt_rect,2,2.094,1,4,0,4,0,1,,,,,,,,,,,,,
630cc9747cb664e8a03c29f0,SCR,2024-06-20_16h28.04.037,LearnStrategy,2023.2.3,Win32,30.12048193,8,1,6,0.543055556,0.234722222,1,0,0,1.3211,Diorite_10,3,10,5,8,1.321,3,10,0.127083333,-0.25,1,0,0,2.6144,Diorite_rect,3,2.614,1,5,0,5,0,1,,,,,,,,,,,,,
630cc9747cb664e8a03c29f0,SCR,2024-06-20_16h28.04.037,LearnStrategy,2023.2.3,Win32,30.12048193,8,1,7,0.549305556,0.401388889,1,0,0,1.9692,Andesite_03,1,03,6,8,1.969,1,03,-0.386111111,-0.234027778,1,0,0,2.1958,Andesite_rect,1,2.196,1,6,0,6,0,1,,,,,,,,,,,,,
630cc9747cb664e8a03c29f0,SCR,2024-06-20_16h28.04.037,LearnStrategy,2023.2.3,Win32,30.12048193,8,1,8,-0.533333333,-0.271527778,1,0,0,1.8343,Gabbro_05,4,05,2,1,1.834,4,05,0.427083333,-0.232638889,1,0,0,1.6361,Gabbro_rect,4,1.636,1,7,0,7,0,1,,,,,,,,,,,,,
630cc9747cb664e8a03c29f0,SCR,2024-06-20_16h28.04.037,LearnStrategy,2023.2.3,Win32,30.12048193,8,1,9,0.188888889,0.258333333,1,0,0,1.0782,Andesite_11,1,11,5,6,1.078,1,11,-0.391666667,-0.235416667,1,0,0,1.6373,Andesite_rect,1,1.637,1,8,0,8,0,1,,,,,,,,,,,,,
630cc9747cb664e8a03c29f0,SCR,2024-06-20_16h28.04.037,LearnStrategy,2023.2.3,Win32,30.12048193,8,1,10,0.249305556,-0.390277778,1,0,0,1.0562,Pegmatite_09,6,09,1,6,1.056,6,09,-0.143055556,-0.402777778,1,0,0,2.126,Pegmatite_rect,6,2.126,1,9,0,9,0,1,,,,,,,,,,,,,
630cc9747cb664e8a03c29f0,SCR,2024-06-20_16h28.04.037,LearnStrategy,2023.2.3,Win32,30.12048193,8,1,11,-0.531944444,-0.244444444,1,0,0,1.3288,Gabbro_05,4,05,2,1,1.329,4,05,0.36875,-0.239583333,1,0,0,2.9363,Gabbro_rect,4,2.936,1,10,0,10,0,1,,,,,,,,,,,,,
630cc9747cb664e8a03c29f0,SCR,2024-06-20_16h28.04.037,LearnStrategy,2023.2.3,Win32,30.12048193,8,1,12,0.252083333,0.265277778,1,0,0,1.0645,Andesite_11,1,11,5,6,1.064,1,11,-0.3875,-0.2625,1,0,0,1.412,Andesite_rect,1,1.412,1,11,0,11,0,1,,,,,,,,,,,,,
630cc9747cb664e8a03c29f0,SCR,2024-06-20_16h28.04.037,LearnStrategy,2023.2.3,Win32,30.12048193,8,1,13,-0.058333333,0.107638889,1,0,0,1.1937,Gabbro_15,4,15,4,4,1.194,4,15,0.395833333,-0.258333333,1,0,0,2.1748,Gabbro_rect,4,2.175,1,12,0,12,0,1,,,,,,,,,,,,,
630cc9747cb664e8a03c29f0,SCR,2024-06-20_16h28.04.037,LearnStrategy,2023.2.3,Win32,30.12048193,8,1,14,-0.214583333,-0.082638889,1,0,0,0.9193,Andesite_10,1,10,3,3,0.919,1,10,-0.400694444,-0.245833333,1,0,0,4.3642,Andesite_rect,1,4.364,1,13,0,13,0,1,,,,,,,,,,,,,
630cc9747cb664e8a03c29f0,SCR,2024-06-20_16h28.04.037,LearnStrategy,2023.2.3,Win32,30.12048193,8,1,15,-0.372916667,-0.420833333,1,0,0,1.5025,Obsidian_06,5,06,1,2,1.503,5,06,-0.413194444,-0.4125,1,0,0,0.948,Obsidian_rect,5,0.948,1,14,0,14,0,1,,,,,,,,,,,,,
630cc9747cb664e8a03c29f0,SCR,2024-06-20_16h28.04.037,LearnStrategy,2023.2.3,Win32,30.12048193,8,1,16,-0.555555556,-0.104166667,1,0,0,1.4075,Peridotite_05,7,05,3,1,1.408,7,05,0.123611111,-0.39375,1,0,0,2.7747,Peridotite_rect,7,2.775,1,15,0,15,0,1,,,,,,,,,,,,,
630cc9747cb664e8a03c29f0,SCR,2024-06-20_16h28.04.037,LearnStrategy,2023.2.3,Win32,30.12048193,8,2,1,,,,,,,,6,11,,,,,,,,,,,,,6,2.318,1,,,,,,-0.128472222,-0.39375,1,0,0,2.3176,Pegmatite_rect,0,0,0,0,1,
630cc9747cb664e8a03c29f0,SCR,2024-06-20_16h28.04.037,LearnStrategy,2023.2.3,Win32,30.12048193,8,2,2,,,,,,,,2,14,,,,,,,,,,,,,8,3.679,0,,,,,,0.388194444,-0.38125,1,0,0,3.6794,Pumice_rect,1,0,1,0,1,
630cc9747cb664e8a03c29f0,SCR,2024-06-20_16h28.04.037,LearnStrategy,2023.2.3,Win32,30.12048193,8,2,3,,,,,,,,4,16,,,,,,,,,,,,,4,2.343,1,,,,,,0.396527778,-0.248611111,1,0,0,2.3427,Gabbro_rect,2,0,2,0,1,
630cc9747cb664e8a03c29f0,SCR,2024-06-20_16h28.04.037,LearnStrategy,2023.2.3,Win32,30.12048193,8,2,4,,,,,,,,6,16,,,,,,,,,,,,,6,2.305,1,,,,,,-0.152083333,-0.392361111,1,0,0,2.3045,Pegmatite_rect,3,0,3,0,1,
630cc9747cb664e8a03c29f0,SCR,2024-06-20_16h28.04.037,LearnStrategy,2023.2.3,Win32,30.12048193,8,2,5,,,,,,,,3,08,,,,,,,,,,,,,3,1.627,1,,,,,,0.100694444,-0.249305556,1,0,0,1.6272,Diorite_rect,4,0,4,0,1,
630cc9747cb664e8a03c29f0,SCR,2024-06-20_16h28.04.037,LearnStrategy,2023.2.3,Win32,30.12048193,8,2,6,,,,,,,,2,09,,,,,,,,,,,,,4,3.477,0,,,,,,0.416666667,-0.248611111,1,0,0,3.4768,Gabbro_rect,5,0,5,0,1,
630cc9747cb664e8a03c29f0,SCR,2024-06-20_16h28.04.037,LearnStrategy,2023.2.3,Win32,30.12048193,8,2,7,,,,,,,,8,06,,,,,,,,,,,,,8,1.57,1,,,,,,0.397222222,-0.396527778,1,0,0,1.5697,Pumice_rect,6,0,6,0,1,
630cc9747cb664e8a03c29f0,SCR,2024-06-20_16h28.04.037,LearnStrategy,2023.2.3,Win32,30.12048193,8,2,8,,,,,,,,8,08,,,,,,,,,,,,,8,1.115,1,,,,,,0.404166667,-0.394444444,1,0,0,1.115,Pumice_rect,7,0,7,0,1,
630cc9747cb664e8a03c29f0,SCR,2024-06-20_16h28.04.037,LearnStrategy,2023.2.3,Win32,30.12048193,8,2,9,,,,,,,,1,04,,,,,,,,,,,,,1,1.822,1,,,,,,-0.3625,-0.243055556,1,0,0,1.8216,Andesite_rect,8,0,8,0,1,
630cc9747cb664e8a03c29f0,SCR,2024-06-20_16h28.04.037,LearnStrategy,2023.2.3,Win32,30.12048193,8,2,10,,,,,,,,3,16,,,,,,,,,,,,,3,1.487,1,,,,,,0.064583333,-0.233333333,1,0,0,1.4867,Diorite_rect,9,0,9,0,1,
630cc9747cb664e8a03c29f0,SCR,2024-06-20_16h28.04.037,LearnStrategy,2023.2.3,Win32,30.12048193,8,2,11,,,,,,,,7,02,,,,,,,,,,,,,7,1.509,1,,,,,,0.143055556,-0.408333333,1,0,0,1.5088,Peridotite_rect,10,0,10,0,1,
630cc9747cb664e8a03c29f0,SCR,2024-06-20_16h28.04.037,LearnStrategy,2023.2.3,Win32,30.12048193,8,2,12,,,,,,,,4,13,,,,,,,,,,,,,4,2.128,1,,,,,,0.397222222,-0.247916667,1,0,0,2.1279,Gabbro_rect,11,0,11,0,1,
630cc9747cb664e8a03c29f0,SCR,2024-06-20_16h28.04.037,LearnStrategy,2023.2.3,Win32,30.12048193,8,2,13,,,,,,,,5,04,,,,,,,,,,,,,5,2.056,1,,,,,,-0.368055556,-0.390277778,1,0,0,2.0557,Obsidian_rect,12,0,12,0,1,
630cc9747cb664e8a03c29f0,SCR,2024-06-20_16h28.04.037,LearnStrategy,2023.2.3,Win32,30.12048193,8,2,14,,,,,,,,7,04,,,,,,,,,,,,,6,6.291,0,,,,,,-0.136805556,-0.404861111,1,0,0,6.2906,Pegmatite_rect,13,0,13,0,1,
630cc9747cb664e8a03c29f0,SCR,2024-06-20_16h28.04.037,LearnStrategy,2023.2.3,Win32,30.12048193,8,2,15,,,,,,,,1,09,,,,,,,,,,,,,1,2.263,1,,,,,,-0.354861111,-0.25,1,0,0,2.2626,Andesite_rect,14,0,14,0,1,
630cc9747cb664e8a03c29f0,SCR,2024-06-20_16h28.04.037,LearnStrategy,2023.2.3,Win32,30.12048193,8,2,16,,,,,,,,5,07,,,,,,,,,,,,,5,1.568,1,,,,,,-0.3625,-0.409722222,1,0,0,1.5679,Obsidian_rect,15,0,15,0,1,
630cc9747cb664e8a03c29f0,SCR,2024-06-20_16h28.04.037,LearnStrategy,2023.2.3,Win32,30.12048193,9,1,1,0.070833333,-0.371527778,1,0,0,1.1934,Pegmatite_07,6,07,1,5,1.193,6,07,-0.134722222,-0.41875,1,0,0,1.213,Pegmatite_rect,6,1.213,1,0,0,0,0,1,,,,,,,,,,,,,
630cc9747cb664e8a03c29f0,SCR,2024-06-20_16h28.04.037,LearnStrategy,2023.2.3,Win32,30.12048193,9,1,2,-0.065277778,-0.386111111,1,0,0,1.1856,Obsidian_05,5,05,1,4,1.186,5,05,-0.401388889,-0.397222222,1,0,0,1.3413,Obsidian_rect,5,1.341,1,1,0,1,0,1,,,,,,,,,,,,,
630cc9747cb664e8a03c29f0,SCR,2024-06-20_16h28.04.037,LearnStrategy,2023.2.3,Win32,30.12048193,9,1,3,0.385416667,0.104166667,1,0,0,1.2123,Andesite_07,1,07,4,7,1.212,1,07,-0.394444444,-0.243055556,1,0,0,2.1183,Andesite_rect,1,2.118,1,2,0,2,0,1,,,,,,,,,,,,,
630cc9747cb664e8a03c29f0,SCR,2024-06-20_16h28.04.037,LearnStrategy,2023.2.3,Win32,30.12048193,9,1,4,0.051388889,0.076388889,1,0,0,0.9351,Pumice_05,8,05,4,5,0.935,8,05,0.424305556,-0.389583333,1,0,0,1.0816,Pumice_rect,8,1.082,1,3,0,3,0,1,,,,,,,,,,,,,
630cc9747cb664e8a03c29f0,SCR,2024-06-20_16h28.04.037,LearnStrategy,2023.2.3,Win32,30.12048193,9,1,5,0.064583333,0.247222222,1,0,0,1.0451,Gabbro_10,4,10,5,5,1.045,4,10,0.393055556,-0.246527778,1,0,0,2.0598,Gabbro_rect,4,2.06,1,4,0,4,0,1,,,,,,,,,,,,,
630cc9747cb664e8a03c29f0,SCR,2024-06-20_16h28.04.037,LearnStrategy,2023.2.3,Win32,30.12048193,9,1,6,-0.382638889,0.25,1,0,0,1.5625,Gabbro_09,4,09,5,2,1.563,4,09,0.420138889,-0.252083333,1,0,0,2.001,Gabbro_rect,4,2.001,1,5,0,5,0,1,,,,,,,,,,,,,
630cc9747cb664e8a03c29f0,SCR,2024-06-20_16h28.04.037,LearnStrategy,2023.2.3,Win32,30.12048193,9,1,7,-0.239583333,-0.232638889,1,0,0,1.0359,Basalt_11,2,11,2,3,1.036,2,11,-0.127777778,-0.259027778,1,0,0,1.662,Basalt_rect,2,1.662,1,6,0,6,0,1,,,,,,,,,,,,,
630cc9747cb664e8a03c29f0,SCR,2024-06-20_16h28.04.037,LearnStrategy,2023.2.3,Win32,30.12048193,9,1,8,0.035416667,0.383333333,1,0,0,1.4987,Basalt_01,2,01,6,5,1.499,2,01,0.420138889,-0.248611111,1,0,0,1.9268,Gabbro_rect,4,1.927,0,7,0,7,0,1,,,,,,,,,,,,,
630cc9747cb664e8a03c29f0,SCR,2024-06-20_16h28.04.037,LearnStrategy,2023.2.3,Win32,30.12048193,9,1,9,-0.552777778,0.400694444,1,0,0,1.7405,Basalt_02,2,02,6,1,1.74,2,02,-0.129166667,-0.240972222,1,0,0,1.3891,Basalt_rect,2,1.389,1,8,0,8,0,1,,,,,,,,,,,,,
630cc9747cb664e8a03c29f0,SCR,2024-06-20_16h28.04.037,LearnStrategy,2023.2.3,Win32,30.12048193,9,1,10,-0.225,-0.0875,1,0,0,1.0512,Andesite_10,1,10,3,3,1.051,1,10,-0.350694444,-0.229861111,1,0,0,1.5685,Andesite_rect,1,1.569,1,9,0,9,0,1,,,,,,,,,,,,,
630cc9747cb664e8a03c29f0,SCR,2024-06-20_16h28.04.037,LearnStrategy,2023.2.3,Win32,30.12048193,9,1,11,-0.570138889,0.265277778,1,0,0,1.3258,Peridotite_06,7,06,5,1,1.326,7,06,0.151388889,-0.401388889,1,0,0,1.7317,Peridotite_rect,7,1.732,1,10,0,10,0,1,,,,,,,,,,,,,
630cc9747cb664e8a03c29f0,SCR,2024-06-20_16h28.04.037,LearnStrategy,2023.2.3,Win32,30.12048193,9,1,12,0.086111111,0.410416667,1,0,0,2.1178,Basalt_01,2,01,6,5,2.118,2,01,-0.114583333,-0.247222222,1,0,0,1.0894,Basalt_rect,2,1.089,1,11,0,11,0,1,,,,,,,,,,,,,
630cc9747cb664e8a03c29f0,SCR,2024-06-20_16h28.04.037,LearnStrategy,2023.2.3,Win32,30.12048193,9,1,13,-0.041666667,-0.096527778,1,0,0,0.9561,Peridotite_15,7,15,3,4,0.956,7,15,0.136805556,-0.391666667,1,0,0,2.0554,Peridotite_rect,7,2.055,1,12,0,12,0,1,,,,,,,,,,,,,
630cc9747cb664e8a03c29f0,SCR,2024-06-20_16h28.04.037,LearnStrategy,2023.2.3,Win32,30.12048193,9,1,14,0.368055556,-0.121527778,1,0,0,1.0536,Diorite_12,3,12,3,7,1.054,3,12,0.1375,-0.243055556,1,0,0,1.1266,Diorite_rect,3,1.127,1,13,0,13,0,1,,,,,,,,,,,,,
630cc9747cb664e8a03c29f0,SCR,2024-06-20_16h28.04.037,LearnStrategy,2023.2.3,Win32,30.12048193,9,1,15,0.382638889,0.095138889,1,0,0,1.0723,Andesite_07,1,07,4,7,1.072,1,07,-0.411111111,-0.247916667,1,0,0,0.8229,Andesite_rect,1,0.823,1,14,0,14,0,1,,,,,,,,,,,,,
630cc9747cb664e8a03c29f0,SCR,2024-06-20_16h28.04.037,LearnStrategy,2023.2.3,Win32,30.12048193,9,1,16,0.2375,-0.121527778,1,0,0,1.7237,Peridotite_14,7,14,3,6,1.724,7,14,0.140972222,-0.246527778,1,0,0,3.4483,Diorite_rect,3,3.448,0,15,0,15,0,1,,,,,,,,,,,,,
630cc9747cb664e8a03c29f0,SCR,2024-06-20_16h28.04.037,LearnStrategy,2023.2.3,Win32,30.12048193,9,2,1,,,,,,,,4,11,,,,,,,,,,,,,4,3.538,1,,,,,,0.381944444,-0.251388889,1,0,0,3.5384,Gabbro_rect,0,0,0,0,1,
630cc9747cb664e8a03c29f0,SCR,2024-06-20_16h28.04.037,LearnStrategy,2023.2.3,Win32,30.12048193,9,2,2,,,,,,,,8,09,,,,,,,,,,,,,8,2.273,1,,,,,,0.388194444,-0.415972222,1,0,0,2.2725,Pumice_rect,1,0,1,0,1,
630cc9747cb664e8a03c29f0,SCR,2024-06-20_16h28.04.037,LearnStrategy,2023.2.3,Win32,30.12048193,9,2,3,,,,,,,,6,10,,,,,,,,,,,,,7,1.603,0,,,,,,0.146527778,-0.40625,1,0,0,1.6032,Peridotite_rect,2,0,2,0,1,
630cc9747cb664e8a03c29f0,SCR,2024-06-20_16h28.04.037,LearnStrategy,2023.2.3,Win32,30.12048193,9,2,4,,,,,,,,7,07,,,,,,,,,,,,,7,1.841,1,,,,,,0.169444444,-0.402777778,1,0,0,1.8406,Peridotite_rect,3,0,3,0,1,
630cc9747cb664e8a03c29f0,SCR,2024-06-20_16h28.04.037,LearnStrategy,2023.2.3,Win32,30.12048193,9,2,5,,,,,,,,7,08,,,,,,,,,,,,,7,1.211,1,,,,,,0.161111111,-0.402083333,1,0,0,1.2114,Peridotite_rect,4,0,4,0,1,
630cc9747cb664e8a03c29f0,SCR,2024-06-20_16h28.04.037,LearnStrategy,2023.2.3,Win32,30.12048193,9,2,6,,,,,,,,5,14,,,,,,,,,,,,,5,2.042,1,,,,,,-0.386805556,-0.4,1,0,0,2.0418,Obsidian_rect,5,0,5,0,1,
630cc9747cb664e8a03c29f0,SCR,2024-06-20_16h28.04.037,LearnStrategy,2023.2.3,Win32,30.12048193,9,2,7,,,,,,,,2,08,,,,,,,,,,,,,2,1.858,1,,,,,,-0.119444444,-0.240972222,1,0,0,1.8583,Basalt_rect,6,0,6,0,1,
630cc9747cb664e8a03c29f0,SCR,2024-06-20_16h28.04.037,LearnStrategy,2023.2.3,Win32,30.12048193,9,2,8,,,,,,,,6,13,,,,,,,,,,,,,6,6.649,1,,,,,,-0.120138889,-0.406944444,1,0,0,6.6495,Pegmatite_rect,7,0,7,0,1,
630cc9747cb664e8a03c29f0,SCR,2024-06-20_16h28.04.037,LearnStrategy,2023.2.3,Win32,30.12048193,9,2,9,,,,,,,,8,14,,,,,,,,,,,,,8,1.791,1,,,,,,0.39375,-0.409027778,1,0,0,1.7905,Pumice_rect,8,0,8,0,1,
630cc9747cb664e8a03c29f0,SCR,2024-06-20_16h28.04.037,LearnStrategy,2023.2.3,Win32,30.12048193,9,2,10,,,,,,,,5,09,,,,,,,,,,,,,5,2.487,1,,,,,,-0.370138889,-0.395138889,1,0,0,2.4871,Obsidian_rect,9,0,9,0,1,
630cc9747cb664e8a03c29f0,SCR,2024-06-20_16h28.04.037,LearnStrategy,2023.2.3,Win32,30.12048193,9,2,11,,,,,,,,3,14,,,,,,,,,,,,,3,2.212,1,,,,,,0.128472222,-0.251388889,1,0,0,2.2122,Diorite_rect,10,0,10,0,1,
630cc9747cb664e8a03c29f0,SCR,2024-06-20_16h28.04.037,LearnStrategy,2023.2.3,Win32,30.12048193,9,2,12,,,,,,,,2,10,,,,,,,,,,,,,2,4.963,1,,,,,,-0.111111111,-0.248611111,1,0,0,4.9632,Basalt_rect,11,0,11,0,1,
630cc9747cb664e8a03c29f0,SCR,2024-06-20_16h28.04.037,LearnStrategy,2023.2.3,Win32,30.12048193,9,2,13,,,,,,,,1,16,,,,,,,,,,,,,1,1.807,1,,,,,,-0.418055556,-0.235416667,1,0,0,1.807,Andesite_rect,12,0,12,0,1,
630cc9747cb664e8a03c29f0,SCR,2024-06-20_16h28.04.037,LearnStrategy,2023.2.3,Win32,30.12048193,9,2,14,,,,,,,,3,11,,,,,,,,,,,,,3,1.641,1,,,,,,0.110416667,-0.244444444,1,0,0,1.6406,Diorite_rect,13,0,13,0,1,
630cc9747cb664e8a03c29f0,SCR,2024-06-20_16h28.04.037,LearnStrategy,2023.2.3,Win32,30.12048193,9,2,15,,,,,,,,4,14,,,,,,,,,,,,,4,2.948,1,,,,,,0.425694444,-0.246527778,1,0,0,2.9483,Gabbro_rect,14,0,14,0,1,
630cc9747cb664e8a03c29f0,SCR,2024-06-20_16h28.04.037,LearnStrategy,2023.2.3,Win32,30.12048193,9,2,16,,,,,,,,1,14,,,,,,,,,,,,,1,2.103,1,,,,,,-0.405555556,-0.244444444,1,0,0,2.1027,Andesite_rect,15,0,15,0,1,
630cc9747cb664e8a03c29f0,SCR,2024-06-20_16h28.04.037,LearnStrategy,2023.2.3,Win32,30.12048193,,,,,,,,,,,,,,,,,,,,,,,,,,,,,,,,,,,,,,,,,,,,,1
630cc9747cb664e8a03c29f0,SCR,2024-06-20_16h28.04.037,LearnStrategy,2023.2.3,Win32,30.12048193,,,,,,,,,,,,,,,,,,,,,,,,,,,,,,,,,,,,,,,,,,,,,
630cc9747cb664e8a03c29f0,SCR,2024-06-20_16h28.04.037,LearnStrategy,2023.2.3,Win32,30.12048193,,,,,,,,,,,6,12,1,1,,,,,,,,,,,,,,,,,,,,,,,,,,,,,,,
630cc9747cb664e8a03c29f0,SCR,2024-06-20_16h28.04.037,LearnStrategy,2023.2.3,Win32,30.12048193,,,,,,,,,,,5,06,1,2,,,,,,,,,,,,,,,,,,,,,,,,,,,,,,,
630cc9747cb664e8a03c29f0,SCR,2024-06-20_16h28.04.037,LearnStrategy,2023.2.3,Win32,30.12048193,,,,,,,,,,,5,11,1,3,,,,,,,,,,,,,,,,,,,,,,,,,,,,,,,
630cc9747cb664e8a03c29f0,SCR,2024-06-20_16h28.04.037,LearnStrategy,2023.2.3,Win32,30.12048193,,,,,,,,,,,5,05,1,4,,,,,,,,,,,,,,,,,,,,,,,,,,,,,,,
630cc9747cb664e8a03c29f0,SCR,2024-06-20_16h28.04.037,LearnStrategy,2023.2.3,Win32,30.12048193,,,,,,,,,,,6,07,1,5,,,,,,,,,,,,,,,,,,,,,,,,,,,,,,,
630cc9747cb664e8a03c29f0,SCR,2024-06-20_16h28.04.037,LearnStrategy,2023.2.3,Win32,30.12048193,,,,,,,,,,,6,09,1,6,,,,,,,,,,,,,,,,,,,,,,,,,,,,,,,
630cc9747cb664e8a03c29f0,SCR,2024-06-20_16h28.04.037,LearnStrategy,2023.2.3,Win32,30.12048193,,,,,,,,,,,2,12,1,7,,,,,,,,,,,,,,,,,,,,,,,,,,,,,,,
630cc9747cb664e8a03c29f0,SCR,2024-06-20_16h28.04.037,LearnStrategy,2023.2.3,Win32,30.12048193,,,,,,,,,,,7,12,1,8,,,,,,,,,,,,,,,,,,,,,,,,,,,,,,,
630cc9747cb664e8a03c29f0,SCR,2024-06-20_16h28.04.037,LearnStrategy,2023.2.3,Win32,30.12048193,,,,,,,,,,,4,05,2,1,,,,,,,,,,,,,,,,,,,,,,,,,,,,,,,
630cc9747cb664e8a03c29f0,SCR,2024-06-20_16h28.04.037,LearnStrategy,2023.2.3,Win32,30.12048193,,,,,,,,,,,6,03,2,2,,,,,,,,,,,,,,,,,,,,,,,,,,,,,,,
630cc9747cb664e8a03c29f0,SCR,2024-06-20_16h28.04.037,LearnStrategy,2023.2.3,Win32,30.12048193,,,,,,,,,,,2,11,2,3,,,,,,,,,,,,,,,,,,,,,,,,,,,,,,,
630cc9747cb664e8a03c29f0,SCR,2024-06-20_16h28.04.037,LearnStrategy,2023.2.3,Win32,30.12048193,,,,,,,,,,,5,10,2,4,,,,,,,,,,,,,,,,,,,,,,,,,,,,,,,
630cc9747cb664e8a03c29f0,SCR,2024-06-20_16h28.04.037,LearnStrategy,2023.2.3,Win32,30.12048193,,,,,,,,,,,8,16,2,5,,,,,,,,,,,,,,,,,,,,,,,,,,,,,,,
630cc9747cb664e8a03c29f0,SCR,2024-06-20_16h28.04.037,LearnStrategy,2023.2.3,Win32,30.12048193,,,,,,,,,,,3,09,2,6,,,,,,,,,,,,,,,,,,,,,,,,,,,,,,,
630cc9747cb664e8a03c29f0,SCR,2024-06-20_16h28.04.037,LearnStrategy,2023.2.3,Win32,30.12048193,,,,,,,,,,,2,06,2,7,,,,,,,,,,,,,,,,,,,,,,,,,,,,,,,
630cc9747cb664e8a03c29f0,SCR,2024-06-20_16h28.04.037,LearnStrategy,2023.2.3,Win32,30.12048193,,,,,,,,,,,3,02,2,8,,,,,,,,,,,,,,,,,,,,,,,,,,,,,,,
630cc9747cb664e8a03c29f0,SCR,2024-06-20_16h28.04.037,LearnStrategy,2023.2.3,Win32,30.12048193,,,,,,,,,,,7,05,3,1,,,,,,,,,,,,,,,,,,,,,,,,,,,,,,,
630cc9747cb664e8a03c29f0,SCR,2024-06-20_16h28.04.037,LearnStrategy,2023.2.3,Win32,30.12048193,,,,,,,,,,,7,13,3,2,,,,,,,,,,,,,,,,,,,,,,,,,,,,,,,
630cc9747cb664e8a03c29f0,SCR,2024-06-20_16h28.04.037,LearnStrategy,2023.2.3,Win32,30.12048193,,,,,,,,,,,1,10,3,3,,,,,,,,,,,,,,,,,,,,,,,,,,,,,,,
630cc9747cb664e8a03c29f0,SCR,2024-06-20_16h28.04.037,LearnStrategy,2023.2.3,Win32,30.12048193,,,,,,,,,,,7,15,3,4,,,,,,,,,,,,,,,,,,,,,,,,,,,,,,,
630cc9747cb664e8a03c29f0,SCR,2024-06-20_16h28.04.037,LearnStrategy,2023.2.3,Win32,30.12048193,,,,,,,,,,,8,10,3,5,,,,,,,,,,,,,,,,,,,,,,,,,,,,,,,
630cc9747cb664e8a03c29f0,SCR,2024-06-20_16h28.04.037,LearnStrategy,2023.2.3,Win32,30.12048193,,,,,,,,,,,7,14,3,6,,,,,,,,,,,,,,,,,,,,,,,,,,,,,,,
630cc9747cb664e8a03c29f0,SCR,2024-06-20_16h28.04.037,LearnStrategy,2023.2.3,Win32,30.12048193,,,,,,,,,,,3,12,3,7,,,,,,,,,,,,,,,,,,,,,,,,,,,,,,,
630cc9747cb664e8a03c29f0,SCR,2024-06-20_16h28.04.037,LearnStrategy,2023.2.3,Win32,30.12048193,,,,,,,,,,,4,08,3,8,,,,,,,,,,,,,,,,,,,,,,,,,,,,,,,
630cc9747cb664e8a03c29f0,SCR,2024-06-20_16h28.04.037,LearnStrategy,2023.2.3,Win32,30.12048193,,,,,,,,,,,3,13,4,1,,,,,,,,,,,,,,,,,,,,,,,,,,,,,,,
630cc9747cb664e8a03c29f0,SCR,2024-06-20_16h28.04.037,LearnStrategy,2023.2.3,Win32,30.12048193,,,,,,,,,,,1,02,4,2,,,,,,,,,,,,,,,,,,,,,,,,,,,,,,,
630cc9747cb664e8a03c29f0,SCR,2024-06-20_16h28.04.037,LearnStrategy,2023.2.3,Win32,30.12048193,,,,,,,,,,,2,16,4,3,,,,,,,,,,,,,,,,,,,,,,,,,,,,,,,
630cc9747cb664e8a03c29f0,SCR,2024-06-20_16h28.04.037,LearnStrategy,2023.2.3,Win32,30.12048193,,,,,,,,,,,4,15,4,4,,,,,,,,,,,,,,,,,,,,,,,,,,,,,,,
630cc9747cb664e8a03c29f0,SCR,2024-06-20_16h28.04.037,LearnStrategy,2023.2.3,Win32,30.12048193,,,,,,,,,,,8,05,4,5,,,,,,,,,,,,,,,,,,,,,,,,,,,,,,,
630cc9747cb664e8a03c29f0,SCR,2024-06-20_16h28.04.037,LearnStrategy,2023.2.3,Win32,30.12048193,,,,,,,,,,,8,03,4,6,,,,,,,,,,,,,,,,,,,,,,,,,,,,,,,
630cc9747cb664e8a03c29f0,SCR,2024-06-20_16h28.04.037,LearnStrategy,2023.2.3,Win32,30.12048193,,,,,,,,,,,1,07,4,7,,,,,,,,,,,,,,,,,,,,,,,,,,,,,,,
630cc9747cb664e8a03c29f0,SCR,2024-06-20_16h28.04.037,LearnStrategy,2023.2.3,Win32,30.12048193,,,,,,,,,,,4,03,4,8,,,,,,,,,,,,,,,,,,,,,,,,,,,,,,,
630cc9747cb664e8a03c29f0,SCR,2024-06-20_16h28.04.037,LearnStrategy,2023.2.3,Win32,30.12048193,,,,,,,,,,,7,06,5,1,,,,,,,,,,,,,,,,,,,,,,,,,,,,,,,
630cc9747cb664e8a03c29f0,SCR,2024-06-20_16h28.04.037,LearnStrategy,2023.2.3,Win32,30.12048193,,,,,,,,,,,4,09,5,2,,,,,,,,,,,,,,,,,,,,,,,,,,,,,,,
630cc9747cb664e8a03c29f0,SCR,2024-06-20_16h28.04.037,LearnStrategy,2023.2.3,Win32,30.12048193,,,,,,,,,,,6,15,5,3,,,,,,,,,,,,,,,,,,,,,,,,,,,,,,,
630cc9747cb664e8a03c29f0,SCR,2024-06-20_16h28.04.037,LearnStrategy,2023.2.3,Win32,30.12048193,,,,,,,,,,,8,15,5,4,,,,,,,,,,,,,,,,,,,,,,,,,,,,,,,
630cc9747cb664e8a03c29f0,SCR,2024-06-20_16h28.04.037,LearnStrategy,2023.2.3,Win32,30.12048193,,,,,,,,,,,4,10,5,5,,,,,,,,,,,,,,,,,,,,,,,,,,,,,,,
630cc9747cb664e8a03c29f0,SCR,2024-06-20_16h28.04.037,LearnStrategy,2023.2.3,Win32,30.12048193,,,,,,,,,,,1,11,5,6,,,,,,,,,,,,,,,,,,,,,,,,,,,,,,,
630cc9747cb664e8a03c29f0,SCR,2024-06-20_16h28.04.037,LearnStrategy,2023.2.3,Win32,30.12048193,,,,,,,,,,,6,05,5,7,,,,,,,,,,,,,,,,,,,,,,,,,,,,,,,
630cc9747cb664e8a03c29f0,SCR,2024-06-20_16h28.04.037,LearnStrategy,2023.2.3,Win32,30.12048193,,,,,,,,,,,3,10,5,8,,,,,,,,,,,,,,,,,,,,,,,,,,,,,,,
630cc9747cb664e8a03c29f0,SCR,2024-06-20_16h28.04.037,LearnStrategy,2023.2.3,Win32,30.12048193,,,,,,,,,,,2,02,6,1,,,,,,,,,,,,,,,,,,,,,,,,,,,,,,,
630cc9747cb664e8a03c29f0,SCR,2024-06-20_16h28.04.037,LearnStrategy,2023.2.3,Win32,30.12048193,,,,,,,,,,,5,12,6,2,,,,,,,,,,,,,,,,,,,,,,,,,,,,,,,
630cc9747cb664e8a03c29f0,SCR,2024-06-20_16h28.04.037,LearnStrategy,2023.2.3,Win32,30.12048193,,,,,,,,,,,1,06,6,3,,,,,,,,,,,,,,,,,,,,,,,,,,,,,,,
630cc9747cb664e8a03c29f0,SCR,2024-06-20_16h28.04.037,LearnStrategy,2023.2.3,Win32,30.12048193,,,,,,,,,,,3,15,6,4,,,,,,,,,,,,,,,,,,,,,,,,,,,,,,,
630cc9747cb664e8a03c29f0,SCR,2024-06-20_16h28.04.037,LearnStrategy,2023.2.3,Win32,30.12048193,,,,,,,,,,,2,01,6,5,,,,,,,,,,,,,,,,,,,,,,,,,,,,,,,
630cc9747cb664e8a03c29f0,SCR,2024-06-20_16h28.04.037,LearnStrategy,2023.2.3,Win32,30.12048193,,,,,,,,,,,5,16,6,6,,,,,,,,,,,,,,,,,,,,,,,,,,,,,,,
630cc9747cb664e8a03c29f0,SCR,2024-06-20_16h28.04.037,LearnStrategy,2023.2.3,Win32,30.12048193,,,,,,,,,,,8,13,6,7,,,,,,,,,,,,,,,,,,,,,,,,,,,,,,,
630cc9747cb664e8a03c29f0,SCR,2024-06-20_16h28.04.037,LearnStrategy,2023.2.3,Win32,30.12048193,,,,,,,,,,,1,03,6,8,,,,,,,,,,,,,,,,,,,,,,,,,,,,,,,