participant,condition,date,expName,psychopyVersion,OS,frameRate,block,phase,trial,learn_mouse.x,learn_mouse.y,learn_mouse.leftButton,learn_mouse.midButton,learn_mouse.rightButton,learn_mouse.time,learn_mouse.clicked_name,cat,token,row,col,t_select,cat_mouse_l.x,cat_mouse_l.y,cat_mouse_l.leftButton,cat_mouse_l.midButton,cat_mouse_l.rightButton,cat_mouse_l.time,cat_mouse_l.clicked_name,resp,t_resp,corr,train_trials.thisRepN,train_trials.thisTrialN,train_trials.thisN,train_trials.thisIndex,train_trials.ran,cat_mouse_t.x,cat_mouse_t.y,cat_mouse_t.leftButton,cat_mouse_t.midButton,cat_mouse_t.rightButton,cat_mouse_t.time,cat_mouse_t.clicked_name,test_trials.thisRepN,test_trials.thisTrialN,test_trials.thisN,test_trials.thisIndex,test_trials.ran,Bonus
632100c39d4c93aa71d32feb,SCN,2024-06-24_16h32.43.054,LearnStrategy,2023.2.3,Win32,40,,,,,,,,,,,,,,,,,,,,,,,,,,,,,,,,,,,,,,,,,,,
632100c39d4c93aa71d32feb,SCN,2024-06-24_16h32.43.054,LearnStrategy,2023.2.3,Win32,40,1,1,1,0.240437158,-0.065964106,1,0,0,6.8975,Obsidian_06,5,06,3,6,6.898,0.081707063,-0.245511359,1,0,0,6.4933,Diorite_rect,3,6.493,0,0,0,0,0,1,,,,,,,,,,,,,
632100c39d4c93aa71d32feb,SCN,2024-06-24_16h32.43.054,LearnStrategy,2023.2.3,Win32,40,1,1,2,0.066094181,-0.402940427,1,0,0,7.636,Gabbro_03,4,03,1,5,7.636,-0.083528501,-0.255919854,1,0,0,4.7414,Basalt_rect,2,4.741,0,1,0,1,0,1,,,,,,,,,,,,,
632100c39d4c93aa71d32feb,SCN,2024-06-24_16h32.43.054,LearnStrategy,2023.2.3,Win32,40,1,1,3,0.053083576,0.071948998,1,0,0,3.5948,Pumice_13,8,13,4,5,3.595,0.349726776,-0.389929766,1,0,0,3.4228,Pumice_rect,8,3.423,1,2,0,2,0,1,,,,,,,,,,,,,
632100c39d4c93aa71d32feb,SCN,2024-06-24_16h32.43.054,LearnStrategy,2023.2.3,Win32,40,1,1,4,-0.39968772,-0.452381016,1,0,0,7.1094,Pegmatite_10,6,10,1,2,7.109,-0.181108485,-0.402940427,1,0,0,2.396,Pegmatite_rect,6,2.396,1,3,0,3,0,1,,,,,,,,,,,,,
632100c39d4c93aa71d32feb,SCN,2024-06-24_16h32.43.054,LearnStrategy,2023.2.3,Win32,40,1,1,5,0.240437158,-0.388628683,1,0,0,4.3166,Pumice_03,8,03,1,6,4.317,-0.086130611,-0.270231598,1,0,0,3.2986,Basalt_rect,2,3.299,0,4,0,4,0,1,,,,,,,,,,,,,
632100c39d4c93aa71d32feb,SCN,2024-06-24_16h32.43.054,LearnStrategy,2023.2.3,Win32,40,1,1,6,0.399167365,-0.410746812,1,0,0,13.8261,Obsidian_04,5,04,1,7,13.826,-0.371064233,-0.40424151,1,0,0,2.2583,Obsidian_rect,5,2.258,1,5,0,5,0,1,,,,,,,,,,,,,
632100c39d4c93aa71d32feb,SCN,2024-06-24_16h32.43.054,LearnStrategy,2023.2.3,Win32,40,1,1,7,-0.531095494,-0.244210276,1,0,0,5.6188,Diorite_09,3,09,2,1,5.619,0.14545934,-0.237704918,1,0,0,2.0443,Diorite_rect,3,2.044,1,6,0,6,0,1,,,,,,,,,,,,,
632100c39d4c93aa71d32feb,SCN,2024-06-24_16h32.43.054,LearnStrategy,2023.2.3,Win32,40,1,1,8,0.546187938,-0.413348978,1,0,0,10.8741,Basalt_16,2,16,1,8,10.874,0.162373194,-0.397736152,1,0,0,6.6613,Peridotite_rect,7,6.661,0,7,0,7,0,1,,,,,,,,,,,,,
632100c39d4c93aa71d32feb,SCN,2024-06-24_16h32.43.054,LearnStrategy,2023.2.3,Win32,40,1,1,9,-0.361956765,-0.088082235,1,0,0,3.4464,Andesite_11,1,11,3,2,3.446,-0.350247187,-0.229898533,1,0,0,3.1483,Andesite_rect,1,3.148,1,8,0,8,0,1,,,,,,,,,,,,,
632100c39d4c93aa71d32feb,SCN,2024-06-24_16h32.43.054,LearnStrategy,2023.2.3,Win32,40,1,1,10,-0.403590913,0.24368981,1,0,0,5.5803,Basalt_05,2,05,5,2,5.58,0.140255009,-0.405542593,1,0,0,3.5248,Peridotite_rect,7,3.525,0,9,0,9,0,1,,,,,,,,,,,,,
632100c39d4c93aa71d32feb,SCN,2024-06-24_16h32.43.054,LearnStrategy,2023.2.3,Win32,40,1,1,11,-0.101743438,-0.40424151,1,0,0,4.0372,Diorite_14,3,14,1,4,4.037,0.167577413,-0.237704918,1,0,0,1.9871,Diorite_rect,3,1.987,1,10,0,10,0,1,,,,,,,,,,,,,
632100c39d4c93aa71d32feb,SCN,2024-06-24_16h32.43.054,LearnStrategy,2023.2.3,Win32,40,1,1,12,-0.505074145,-0.250715579,1,0,0,3.4452,Diorite_09,3,09,2,1,3.445,0.086911283,-0.245511359,1,0,0,1.4164,Diorite_rect,3,1.416,1,11,0,11,0,1,,,,,,,,,,,,,
632100c39d4c93aa71d32feb,SCN,2024-06-24_16h32.43.054,LearnStrategy,2023.2.3,Win32,40,1,1,13,-0.553213623,0.087561797,1,0,0,1.6859,Basalt_01,2,01,4,1,1.686,-0.165495714,-0.245511359,1,0,0,3.7822,Basalt_rect,2,3.782,1,12,0,12,0,1,,,,,,,,,,,,,
632100c39d4c93aa71d32feb,SCN,2024-06-24_16h32.43.054,LearnStrategy,2023.2.3,Win32,40,1,1,14,0.369242795,0.382903983,1,0,0,2.5804,Diorite_13,3,13,6,7,2.58,0.14545934,-0.395134042,1,0,0,3.2432,Peridotite_rect,7,3.243,0,13,0,13,0,1,,,,,,,,,,,,,
632100c39d4c93aa71d32feb,SCN,2024-06-24_16h32.43.054,LearnStrategy,2023.2.3,Win32,40,1,1,15,0.236534021,0.086260714,1,0,0,2.2531,Diorite_06,3,06,4,6,2.253,0.144158257,-0.250715579,1,0,0,1.7249,Diorite_rect,3,1.725,1,14,0,14,0,1,,,,,,,,,,,,,
632100c39d4c93aa71d32feb,SCN,2024-06-24_16h32.43.054,LearnStrategy,2023.2.3,Win32,40,1,1,16,-0.53890188,0.398516782,1,0,0,4.8088,Gabbro_15,4,15,6,1,4.809,0.144158257,-0.237704918,1,0,0,2.9387,Diorite_rect,3,2.939,0,15,0,15,0,1,,,,,,,,,,,,,
632100c39d4c93aa71d32feb,SCN,2024-06-24_16h32.43.054,LearnStrategy,2023.2.3,Win32,40,1,2,1,,,,,,,,1,02,,,,,,,,,,,3,1.972,0,,,,,,0.157168863,-0.267629488,1,0,0,1.9716,Diorite_rect,0,0,0,0,1,
632100c39d4c93aa71d32feb,SCN,2024-06-24_16h32.43.054,LearnStrategy,2023.2.3,Win32,40,1,2,2,,,,,,,,7,13,,,,,,,,,,,7,5.035,1,,,,,,0.109029468,-0.409445785,1,0,0,5.0351,Peridotite_rect,1,0,1,0,1,
632100c39d4c93aa71d32feb,SCN,2024-06-24_16h32.43.054,LearnStrategy,2023.2.3,Win32,40,1,2,3,,,,,,,,6,03,,,,,,,,,,,6,2.567,1,,,,,,-0.087431694,-0.417252171,1,0,0,2.5674,Pegmatite_rect,2,0,2,0,1,
632100c39d4c93aa71d32feb,SCN,2024-06-24_16h32.43.054,LearnStrategy,2023.2.3,Win32,40,1,2,4,,,,,,,,4,16,,,,,,,,,,,4,5.122,1,,,,,,0.341920391,-0.232500643,1,0,0,5.1221,Gabbro_rect,3,0,3,0,1,
632100c39d4c93aa71d32feb,SCN,2024-06-24_16h32.43.054,LearnStrategy,2023.2.3,Win32,40,1,2,5,,,,,,,,7,15,,,,,,,,,,,8,3.507,0,,,,,,0.360135327,-0.392531876,1,0,0,3.5072,Pumice_rect,4,0,4,0,1,
632100c39d4c93aa71d32feb,SCN,2024-06-24_16h32.43.054,LearnStrategy,2023.2.3,Win32,40,1,2,6,,,,,,,,5,09,,,,,,,,,,,5,3.083,1,,,,,,-0.403590913,-0.402940427,1,0,0,3.0827,Obsidian_rect,5,0,5,0,1,
632100c39d4c93aa71d32feb,SCN,2024-06-24_16h32.43.054,LearnStrategy,2023.2.3,Win32,40,1,2,7,,,,,,,,6,07,,,,,,,,,,,3,2.862,0,,,,,,0.107728385,-0.241608111,1,0,0,2.8621,Diorite_rect,6,0,6,0,1,
632100c39d4c93aa71d32feb,SCN,2024-06-24_16h32.43.054,LearnStrategy,2023.2.3,Win32,40,1,2,8,,,,,,,,1,03,,,,,,,,,,,2,2.953,0,,,,,,-0.090033804,-0.265027322,1,0,0,2.9527,Basalt_rect,7,0,7,0,1,
632100c39d4c93aa71d32feb,SCN,2024-06-24_16h32.43.054,LearnStrategy,2023.2.3,Win32,40,1,2,9,,,,,,,,3,10,,,,,,,,,,,3,2.385,1,,,,,,0.109029468,-0.26112413,1,0,0,2.3852,Diorite_rect,8,0,8,0,1,
632100c39d4c93aa71d32feb,SCN,2024-06-24_16h32.43.054,LearnStrategy,2023.2.3,Win32,40,1,2,10,,,,,,,,8,14,,,,,,,,,,,8,3.61,1,,,,,,0.340619308,-0.387327656,1,0,0,3.6098,Pumice_rect,9,0,9,0,1,
632100c39d4c93aa71d32feb,SCN,2024-06-24_16h32.43.054,LearnStrategy,2023.2.3,Win32,40,1,2,11,,,,,,,,2,14,,,,,,,,,,,8,1.627,0,,,,,,0.340619308,-0.387327656,1,0,0,1.6274,Pumice_rect,10,0,10,0,1,
632100c39d4c93aa71d32feb,SCN,2024-06-24_16h32.43.054,LearnStrategy,2023.2.3,Win32,40,1,2,12,,,,,,,,4,12,,,,,,,,,,,4,2.504,1,,,,,,0.364038575,-0.267629488,1,0,0,2.5036,Gabbro_rect,11,0,11,0,1,
632100c39d4c93aa71d32feb,SCN,2024-06-24_16h32.43.054,LearnStrategy,2023.2.3,Win32,40,1,2,13,,,,,,,,5,08,,,,,,,,,,,5,3.112,1,,,,,,-0.352849297,-0.401639344,1,0,0,3.1115,Obsidian_rect,12,0,12,0,1,
632100c39d4c93aa71d32feb,SCN,2024-06-24_16h32.43.054,LearnStrategy,2023.2.3,Win32,40,1,2,14,,,,,,,,3,08,,,,,,,,,,,3,1.948,1,,,,,,0.136351872,-0.248113469,1,0,0,1.9484,Diorite_rect,13,0,13,0,1,
632100c39d4c93aa71d32feb,SCN,2024-06-24_16h32.43.054,LearnStrategy,2023.2.3,Win32,40,1,2,15,,,,,,,,8,16,,,,,,,,,,,8,3.487,1,,,,,,0.366640629,-0.391230849,1,0,0,3.487,Pumice_rect,14,0,14,0,1,
632100c39d4c93aa71d32feb,SCN,2024-06-24_16h32.43.054,LearnStrategy,2023.2.3,Win32,40,1,2,16,,,,,,,,2,10,,,,,,,,,,,2,2.98,1,,,,,,-0.099141272,-0.249414552,1,0,0,2.9801,Basalt_rect,15,0,15,0,1,
632100c39d4c93aa71d32feb,SCN,2024-06-24_16h32.43.054,LearnStrategy,2023.2.3,Win32,40,2,1,1,-0.391881335,-0.386026574,1,0,0,6.8044,Pegmatite_10,6,10,1,2,6.804,0.067395264,-0.414650061,1,0,0,1.7289,Peridotite_rect,7,1.729,0,0,0,0,0,1,,,,,,,,,,,,,
632100c39d4c93aa71d32feb,SCN,2024-06-24_16h32.43.054,LearnStrategy,2023.2.3,Win32,40,2,1,2,0.233931856,-0.285844424,1,0,0,1.7525,Peridotite_14,7,14,2,6,1.752,-0.049700739,-0.40684362,1,0,0,1.6814,Pegmatite_rect,6,1.681,0,1,0,1,0,1,,,,,,,,,,,,,
632100c39d4c93aa71d32feb,SCN,2024-06-24_16h32.43.054,LearnStrategy,2023.2.3,Win32,40,2,1,3,0.086911283,-0.257220937,1,0,0,3.6305,Pegmatite_15,6,15,2,5,3.63,-0.334634361,-0.257220937,1,0,0,4.8773,Andesite_rect,1,4.877,0,2,0,2,0,1,,,,,,,,,,,,,
632100c39d4c93aa71d32feb,SCN,2024-06-24_16h32.43.054,LearnStrategy,2023.2.3,Win32,40,2,1,4,-0.372365316,-0.257220937,1,0,0,2.8894,Pegmatite_05,6,05,2,2,2.889,-0.142076503,-0.408144702,1,0,0,1.7622,Pegmatite_rect,6,1.762,1,3,0,3,0,1,,,,,,,,,,,,,
632100c39d4c93aa71d32feb,SCN,2024-06-24_16h32.43.054,LearnStrategy,2023.2.3,Win32,40,2,1,5,0.253447875,0.380301846,1,0,0,7.5936,Peridotite_02,7,02,6,6,7.594,0.157168863,-0.392531876,1,0,0,2.1732,Peridotite_rect,7,2.173,1,4,0,4,0,1,,,,,,,,,,,,,
632100c39d4c93aa71d32feb,SCN,2024-06-24_16h32.43.054,LearnStrategy,2023.2.3,Win32,40,2,1,6,0.591725278,-0.118006805,1,0,0,2.2543,Pegmatite_06,6,06,3,8,2.254,0.107728385,-0.241608111,1,0,0,5.1687,Diorite_rect,3,5.169,0,5,0,5,0,1,,,,,,,,,,,,,
632100c39d4c93aa71d32feb,SCN,2024-06-24_16h32.43.054,LearnStrategy,2023.2.3,Win32,40,2,1,7,-0.53890188,0.082357521,1,0,0,5.4033,Basalt_01,2,01,4,1,5.403,-0.152484998,-0.242909193,1,0,0,2.1662,Basalt_rect,2,2.166,1,6,0,6,0,1,,,,,,,,,,,,,
632100c39d4c93aa71d32feb,SCN,2024-06-24_16h32.43.054,LearnStrategy,2023.2.3,Win32,40,2,1,8,0.563101791,-0.141425961,1,0,0,3.1811,Pegmatite_06,6,06,3,8,3.181,0.133749706,-0.417252171,1,0,0,3.9195,Peridotite_rect,7,3.92,0,7,0,7,0,1,,,,,,,,,,,,,
632100c39d4c93aa71d32feb,SCN,2024-06-24_16h32.43.054,LearnStrategy,2023.2.3,Win32,40,2,1,9,0.414780136,0.437548792,1,0,0,2.2826,Diorite_13,3,13,6,7,2.283,-0.083528501,-0.388628683,1,0,0,2.1781,Pegmatite_rect,6,2.178,0,8,0,8,0,1,,,,,,,,,,,,,
632100c39d4c93aa71d32feb,SCN,2024-06-24_16h32.43.054,LearnStrategy,2023.2.3,Win32,40,2,1,10,-0.087431694,-0.262425212,1,0,0,2.6618,Diorite_16,3,16,2,4,2.662,0.110330439,-0.263726295,1,0,0,2.214,Diorite_rect,3,2.214,1,9,0,9,0,1,,,,,,,,,,,,,
632100c39d4c93aa71d32feb,SCN,2024-06-24_16h32.43.054,LearnStrategy,2023.2.3,Win32,40,2,1,11,0.23132969,-0.405542593,1,0,0,6.2502,Pumice_03,8,03,1,6,6.25,0.360135327,-0.397736152,1,0,0,2.192,Pumice_rect,8,2.192,1,10,0,10,0,1,,,,,,,,,,,,,
632100c39d4c93aa71d32feb,SCN,2024-06-24_16h32.43.054,LearnStrategy,2023.2.3,Win32,40,2,1,12,-0.563622174,-0.440671382,1,0,0,2.2787,Peridotite_10,7,10,1,1,2.279,0.12073899,-0.387327656,1,0,0,3.0269,Peridotite_rect,7,3.027,1,11,0,11,0,1,,,,,,,,,,,,,
632100c39d4c93aa71d32feb,SCN,2024-06-24_16h32.43.054,LearnStrategy,2023.2.3,Win32,40,2,1,13,0.257351012,0.258001553,1,0,0,2.5218,Peridotite_07,7,07,5,6,2.522,0.131147541,-0.396435124,1,0,0,1.5363,Peridotite_rect,7,1.536,1,12,0,12,0,1,,,,,,,,,,,,,
632100c39d4c93aa71d32feb,SCN,2024-06-24_16h32.43.054,LearnStrategy,2023.2.3,Win32,40,2,1,14,0.246942572,0.372495446,1,0,0,1.9203,Peridotite_02,7,02,6,6,1.92,0.111631522,-0.397736152,1,0,0,2.8878,Peridotite_rect,7,2.888,1,13,0,13,0,1,,,,,,,,,,,,,
632100c39d4c93aa71d32feb,SCN,2024-06-24_16h32.43.054,LearnStrategy,2023.2.3,Win32,40,2,1,15,0.410876998,-0.285844424,1,0,0,5.9582,Pegmatite_16,6,16,2,7,5.958,-0.049700739,-0.412047895,1,0,0,3.3457,Pegmatite_rect,6,3.346,1,14,0,14,0,1,,,,,,,,,,,,,
632100c39d4c93aa71d32feb,SCN,2024-06-24_16h32.43.054,LearnStrategy,2023.2.3,Win32,40,2,1,16,-0.106947657,0.06934686,1,0,0,3.311,Andesite_07,1,07,4,4,3.311,-0.391881335,-0.266328405,1,0,0,1.7739,Andesite_rect,1,1.774,1,15,0,15,0,1,,,,,,,,,,,,,
632100c39d4c93aa71d32feb,SCN,2024-06-24_16h32.43.054,LearnStrategy,2023.2.3,Win32,40,2,2,1,,,,,,,,2,09,,,,,,,,,,,4,6.394,0,,,,,,0.40176953,-0.245511359,1,0,0,6.3943,Gabbro_rect,0,0,0,0,1,
632100c39d4c93aa71d32feb,SCN,2024-06-24_16h32.43.054,LearnStrategy,2023.2.3,Win32,40,2,2,2,,,,,,,,1,14,,,,,,,,,,,7,4.864,0,,,,,,0.155867891,-0.402940427,1,0,0,4.8641,Peridotite_rect,1,0,1,0,1,
632100c39d4c93aa71d32feb,SCN,2024-06-24_16h32.43.054,LearnStrategy,2023.2.3,Win32,40,2,2,3,,,,,,,,7,04,,,,,,,,,,,7,2.798,1,,,,,,0.155867891,-0.402940427,1,0,0,2.7984,Peridotite_rect,2,0,2,0,1,
632100c39d4c93aa71d32feb,SCN,2024-06-24_16h32.43.054,LearnStrategy,2023.2.3,Win32,40,2,2,4,,,,,,,,4,11,,,,,,,,,,,4,7.91,1,,,,,,0.393963034,-0.252016662,1,0,0,7.9098,Gabbro_rect,3,0,3,0,1,
632100c39d4c93aa71d32feb,SCN,2024-06-24_16h32.43.054,LearnStrategy,2023.2.3,Win32,40,2,2,5,,,,,,,,6,13,,,,,,,,,,,6,3.108,1,,,,,,-0.119958374,-0.399037234,1,0,0,3.108,Pegmatite_rect,4,0,4,0,1,
632100c39d4c93aa71d32feb,SCN,2024-06-24_16h32.43.054,LearnStrategy,2023.2.3,Win32,40,2,2,6,,,,,,,,5,10,,,,,,,,,,,5,2.733,1,,,,,,-0.385375977,-0.397736152,1,0,0,2.7331,Obsidian_rect,5,0,5,0,1,
632100c39d4c93aa71d32feb,SCN,2024-06-24_16h32.43.054,LearnStrategy,2023.2.3,Win32,40,2,2,7,,,,,,,,3,07,,,,,,,,,,,3,3.06,1,,,,,,0.114233687,-0.239006001,1,0,0,3.0601,Diorite_rect,6,0,6,0,1,
632100c39d4c93aa71d32feb,SCN,2024-06-24_16h32.43.054,LearnStrategy,2023.2.3,Win32,40,2,2,8,,,,,,,,6,08,,,,,,,,,,,6,1.923,1,,,,,,-0.091334887,-0.392531876,1,0,0,1.923,Pegmatite_rect,7,0,7,0,1,
632100c39d4c93aa71d32feb,SCN,2024-06-24_16h32.43.054,LearnStrategy,2023.2.3,Win32,40,2,2,9,,,,,,,,1,10,,,,,,,,,,,4,9.445,0,,,,,,0.456414339,-0.26112413,1,0,0,9.4448,Gabbro_rect,8,0,8,0,1,
632100c39d4c93aa71d32feb,SCN,2024-06-24_16h32.43.054,LearnStrategy,2023.2.3,Win32,40,2,2,10,,,,,,,,7,06,,,,,,,,,,,6,2.711,0,,,,,,-0.065313565,-0.399037234,1,0,0,2.7109,Pegmatite_rect,9,0,9,0,1,
632100c39d4c93aa71d32feb,SCN,2024-06-24_16h32.43.054,LearnStrategy,2023.2.3,Win32,40,2,2,11,,,,,,,,2,12,,,,,,,,,,,2,3.615,1,,,,,,-0.092635969,-0.249414552,1,0,0,3.6147,Basalt_rect,10,0,10,0,1,
632100c39d4c93aa71d32feb,SCN,2024-06-24_16h32.43.054,LearnStrategy,2023.2.3,Win32,40,2,2,12,,,,,,,,5,05,,,,,,,,,,,5,2.156,1,,,,,,-0.36716104,-0.408144702,1,0,0,2.1556,Obsidian_rect,11,0,11,0,1,
632100c39d4c93aa71d32feb,SCN,2024-06-24_16h32.43.054,LearnStrategy,2023.2.3,Win32,40,2,2,13,,,,,,,,8,15,,,,,,,,,,,8,4.003,1,,,,,,0.457715311,-0.396435124,1,0,0,4.0034,Pumice_rect,12,0,12,0,1,
632100c39d4c93aa71d32feb,SCN,2024-06-24_16h32.43.054,LearnStrategy,2023.2.3,Win32,40,2,2,14,,,,,,,,8,09,,,,,,,,,,,1,5.75,0,,,,,,-0.360655738,-0.26112413,1,0,0,5.7497,Andesite_rect,13,0,13,0,1,
632100c39d4c93aa71d32feb,SCN,2024-06-24_16h32.43.054,LearnStrategy,2023.2.3,Win32,40,2,2,15,,,,,,,,3,11,,,,,,,,,,,7,3.93,0,,,,,,0.05568563,-0.399037234,1,0,0,3.9303,Peridotite_rect,14,0,14,0,1,
632100c39d4c93aa71d32feb,SCN,2024-06-24_16h32.43.054,LearnStrategy,2023.2.3,Win32,40,2,2,16,,,,,,,,4,05,,,,,,,,,,,1,4.066,0,,,,,,-0.378870674,-0.259823047,1,0,0,4.0656,Andesite_rect,15,0,15,0,1,
632100c39d4c93aa71d32feb,SCN,2024-06-24_16h32.43.054,LearnStrategy,2023.2.3,Win32,40,3,1,1,0.253447875,0.081056466,1,0,0,1.4585,Diorite_06,3,06,4,6,1.459,0.141556092,-0.266328405,1,0,0,1.8162,Diorite_rect,3,1.816,1,0,0,0,0,1,,,,,,,,,,,,,
632100c39d4c93aa71d32feb,SCN,2024-06-24_16h32.43.054,LearnStrategy,2023.2.3,Win32,40,3,1,2,0.092115503,-0.103695062,1,0,0,1.4261,Obsidian_12,5,12,3,5,1.426,-0.363257848,-0.402940427,1,0,0,1.8984,Obsidian_rect,5,1.898,1,1,0,1,0,1,,,,,,,,,,,,,
632100c39d4c93aa71d32feb,SCN,2024-06-24_16h32.43.054,LearnStrategy,2023.2.3,Win32,40,3,1,3,-0.234452211,0.071948998,1,0,0,1.0977,Obsidian_02,5,02,4,3,1.098,-0.387978142,-0.410746812,1,0,0,1.1611,Obsidian_rect,5,1.161,1,2,0,2,0,1,,,,,,,,,,,,,
632100c39d4c93aa71d32feb,SCN,2024-06-24_16h32.43.054,LearnStrategy,2023.2.3,Win32,40,3,1,4,0.252146792,-0.40684362,1,0,0,2.2867,Pumice_03,8,03,1,6,2.287,0.373146043,-0.389929766,1,0,0,1.5793,Pumice_rect,8,1.579,1,3,0,3,0,1,,,,,,,,,,,,,
632100c39d4c93aa71d32feb,SCN,2024-06-24_16h32.43.054,LearnStrategy,2023.2.3,Win32,40,3,1,5,-0.099141272,-0.426359639,1,0,0,1.2573,Diorite_14,3,14,1,4,1.257,0.163674276,-0.259823047,1,0,0,1.3475,Diorite_rect,3,1.347,1,4,0,4,0,1,,,,,,,,,,,,,
632100c39d4c93aa71d32feb,SCN,2024-06-24_16h32.43.054,LearnStrategy,2023.2.3,Win32,40,3,1,6,-0.211033055,-0.393832959,1,0,0,1.456,Diorite_12,3,12,1,3,1.456,0.089513449,-0.392531876,1,0,0,1.9533,Peridotite_rect,7,1.953,0,5,0,5,0,1,,,,,,,,,,,,,
632100c39d4c93aa71d32feb,SCN,2024-06-24_16h32.43.054,LearnStrategy,2023.2.3,Win32,40,3,1,7,0.431693989,0.099271403,1,0,0,1.2158,Gabbro_01,4,01,4,7,1.216,0.122040073,-0.395134042,1,0,0,2.858,Peridotite_rect,7,2.858,0,6,0,6,0,1,,,,,,,,,,,,,
632100c39d4c93aa71d32feb,SCN,2024-06-24_16h32.43.054,LearnStrategy,2023.2.3,Win32,40,3,1,8,0.530575056,0.260603691,1,0,0,1.1598,Andesite_09,1,09,5,8,1.16,0.41217797,-0.253317744,1,0,0,1.2563,Gabbro_rect,4,1.256,0,7,0,7,0,1,,,,,,,,,,,,,
632100c39d4c93aa71d32feb,SCN,2024-06-24_16h32.43.054,LearnStrategy,2023.2.3,Win32,40,3,1,9,-0.106947657,0.060239392,1,0,0,1.1241,Andesite_07,1,07,4,4,1.124,0.133749706,-0.40424151,1,0,0,3.0069,Peridotite_rect,7,3.007,0,8,0,8,0,1,,,,,,,,,,,,,
632100c39d4c93aa71d32feb,SCN,2024-06-24_16h32.43.054,LearnStrategy,2023.2.3,Win32,40,3,1,10,-0.537600825,-0.417252171,1,0,0,1.5778,Peridotite_10,7,10,1,1,1.578,0.098620917,-0.401639344,1,0,0,2.0534,Peridotite_rect,7,2.053,1,9,0,9,0,1,,,,,,,,,,,,,
632100c39d4c93aa71d32feb,SCN,2024-06-24_16h32.43.054,LearnStrategy,2023.2.3,Win32,40,3,1,11,-0.5428051,0.420634918,1,0,0,1.9032,Gabbro_15,4,15,6,1,1.903,0.098620917,-0.408144702,1,0,0,6.2248,Peridotite_rect,7,6.225,0,10,0,10,0,1,,,,,,,,,,,,,
632100c39d4c93aa71d32feb,SCN,2024-06-24_16h32.43.054,LearnStrategy,2023.2.3,Win32,40,3,1,12,-0.39708561,0.423237055,1,0,0,1.6343,Pumice_06,8,06,6,2,1.634,0.430392906,-0.409445785,1,0,0,1.4234,Pumice_rect,8,1.423,1,11,0,11,0,1,,,,,,,,,,,,,
632100c39d4c93aa71d32feb,SCN,2024-06-24_16h32.43.054,LearnStrategy,2023.2.3,Win32,40,3,1,13,-0.250065037,0.398516782,1,0,0,1.2008,Pumice_05,8,05,6,3,1.201,0.343221473,-0.400338317,1,0,0,1.5534,Pumice_rect,8,1.553,1,12,0,12,0,1,,,,,,,,,,,,,
632100c39d4c93aa71d32feb,SCN,2024-06-24_16h32.43.054,LearnStrategy,2023.2.3,Win32,40,3,1,14,-0.088732721,0.433645585,1,0,0,1.1784,Basalt_08,2,08,6,4,1.178,0.336716171,-0.252016662,1,0,0,3.5693,Gabbro_rect,4,3.569,0,13,0,13,0,1,,,,,,,,,,,,,
632100c39d4c93aa71d32feb,SCN,2024-06-24_16h32.43.054,LearnStrategy,2023.2.3,Win32,40,3,1,15,0.086911283,0.424538117,1,0,0,1.3295,Andesite_04,1,04,6,5,1.33,0.122040073,-0.396435124,1,0,0,3.2481,Peridotite_rect,7,3.248,0,14,0,14,0,1,,,,,,,,,,,,,
632100c39d4c93aa71d32feb,SCN,2024-06-24_16h32.43.054,LearnStrategy,2023.2.3,Win32,40,3,1,16,0.241738241,0.397215713,1,0,0,1.2025,Peridotite_02,7,02,6,6,1.202,0.11553477,-0.417252171,1,0,0,2.3412,Peridotite_rect,7,2.341,1,15,0,15,0,1,,,,,,,,,,,,,
632100c39d4c93aa71d32feb,SCN,2024-06-24_16h32.43.054,LearnStrategy,2023.2.3,Win32,40,3,2,1,,,,,,,,6,12,,,,,,,,,,,5,2.129,0,,,,,,-0.348946104,-0.393832959,1,0,0,2.1285,Obsidian_rect,0,0,0,0,1,
632100c39d4c93aa71d32feb,SCN,2024-06-24_16h32.43.054,LearnStrategy,2023.2.3,Win32,40,3,2,2,,,,,,,,1,01,,,,,,,,,,,4,7.692,0,,,,,,0.393963034,-0.257220937,1,0,0,7.6915,Gabbro_rect,1,0,1,0,1,
632100c39d4c93aa71d32feb,SCN,2024-06-24_16h32.43.054,LearnStrategy,2023.2.3,Win32,40,3,2,3,,,,,,,,5,14,,,,,,,,,,,5,1.758,1,,,,,,-0.35154827,-0.412047895,1,0,0,1.7581,Obsidian_rect,2,0,2,0,1,
632100c39d4c93aa71d32feb,SCN,2024-06-24_16h32.43.054,LearnStrategy,2023.2.3,Win32,40,3,2,4,,,,,,,,8,02,,,,,,,,,,,8,2.957,1,,,,,,0.369242795,-0.414650061,1,0,0,2.9572,Pumice_rect,3,0,3,0,1,
632100c39d4c93aa71d32feb,SCN,2024-06-24_16h32.43.054,LearnStrategy,2023.2.3,Win32,40,3,2,5,,,,,,,,4,14,,,,,,,,,,,1,4.904,0,,,,,,-0.355451462,-0.26112413,1,0,0,4.9045,Andesite_rect,4,0,4,0,1,
632100c39d4c93aa71d32feb,SCN,2024-06-24_16h32.43.054,LearnStrategy,2023.2.3,Win32,40,3,2,6,,,,,,,,4,10,,,,,,,,,,,4,3.635,1,,,,,,0.413479053,-0.252016662,1,0,0,3.6345,Gabbro_rect,5,0,5,0,1,
632100c39d4c93aa71d32feb,SCN,2024-06-24_16h32.43.054,LearnStrategy,2023.2.3,Win32,40,3,2,7,,,,,,,,7,05,,,,,,,,,,,7,2.092,1,,,,,,0.179287047,-0.396435124,1,0,0,2.0925,Peridotite_rect,6,0,6,0,1,
632100c39d4c93aa71d32feb,SCN,2024-06-24_16h32.43.054,LearnStrategy,2023.2.3,Win32,40,3,2,8,,,,,,,,7,08,,,,,,,,,,,7,1.755,1,,,,,,0.179287047,-0.396435124,1,0,0,1.7551,Peridotite_rect,7,0,7,0,1,
632100c39d4c93aa71d32feb,SCN,2024-06-24_16h32.43.054,LearnStrategy,2023.2.3,Win32,40,3,2,9,,,,,,,,3,02,,,,,,,,,,,3,1.852,1,,,,,,0.133749706,-0.259823047,1,0,0,1.8519,Diorite_rect,8,0,8,0,1,
632100c39d4c93aa71d32feb,SCN,2024-06-24_16h32.43.054,LearnStrategy,2023.2.3,Win32,40,3,2,10,,,,,,,,5,07,,,,,,,,,,,5,1.64,1,,,,,,-0.35154827,-0.405542593,1,0,0,1.6404,Obsidian_rect,9,0,9,0,1,
632100c39d4c93aa71d32feb,SCN,2024-06-24_16h32.43.054,LearnStrategy,2023.2.3,Win32,40,3,2,11,,,,,,,,6,09,,,,,,,,,,,6,1.868,1,,,,,,-0.152484998,-0.413348978,1,0,0,1.8678,Pegmatite_rect,10,0,10,0,1,
632100c39d4c93aa71d32feb,SCN,2024-06-24_16h32.43.054,LearnStrategy,2023.2.3,Win32,40,3,2,12,,,,,,,,3,15,,,,,,,,,,,1,3.385,0,,,,,,-0.335935443,-0.263726295,1,0,0,3.3853,Andesite_rect,11,0,11,0,1,
632100c39d4c93aa71d32feb,SCN,2024-06-24_16h32.43.054,LearnStrategy,2023.2.3,Win32,40,3,2,13,,,,,,,,1,05,,,,,,,,,,,7,4.399,0,,,,,,0.090814531,-0.393832959,1,0,0,4.3993,Peridotite_rect,12,0,12,0,1,
632100c39d4c93aa71d32feb,SCN,2024-06-24_16h32.43.054,LearnStrategy,2023.2.3,Win32,40,3,2,14,,,,,,,,8,04,,,,,,,,,,,8,3.933,1,,,,,,0.360135327,-0.393832959,1,0,0,3.9328,Pumice_rect,13,0,13,0,1,
632100c39d4c93aa71d32feb,SCN,2024-06-24_16h32.43.054,LearnStrategy,2023.2.3,Win32,40,3,2,15,,,,,,,,2,11,,,,,,,,,,,4,2.591,0,,,,,,0.40176953,-0.26112413,1,0,0,2.591,Gabbro_rect,14,0,14,0,1,
632100c39d4c93aa71d32feb,SCN,2024-06-24_16h32.43.054,LearnStrategy,2023.2.3,Win32,40,3,2,16,,,,,,,,2,04,,,,,,,,,,,4,3.887,0,,,,,,0.365339658,-0.265027322,1,0,0,3.887,Gabbro_rect,15,0,15,0,1,
632100c39d4c93aa71d32feb,SCN,2024-06-24_16h32.43.054,LearnStrategy,2023.2.3,Win32,40,4,1,1,-0.545407238,0.382903983,1,0,0,4.5176,Gabbro_15,4,15,6,1,4.518,-0.343741829,-0.246812386,1,0,0,1.2781,Andesite_rect,1,1.278,0,0,0,0,0,1,,,,,,,,,,,,,
632100c39d4c93aa71d32feb,SCN,2024-06-24_16h32.43.054,LearnStrategy,2023.2.3,Win32,40,4,1,2,-0.413999464,0.375097584,1,0,0,1.125,Pumice_06,8,06,6,2,1.125,0.414780136,-0.387327656,1,0,0,1.3453,Pumice_rect,8,1.345,1,1,0,1,0,1,,,,,,,,,,,,,
632100c39d4c93aa71d32feb,SCN,2024-06-24_16h32.43.054,LearnStrategy,2023.2.3,Win32,40,4,1,3,-0.264376781,0.397215713,1,0,0,0.8658,Pumice_05,8,05,6,3,0.866,0.396565199,-0.410746812,1,0,0,1.0033,Pumice_rect,8,1.003,1,2,0,2,0,1,,,,,,,,,,,,,
632100c39d4c93aa71d32feb,SCN,2024-06-24_16h32.43.054,LearnStrategy,2023.2.3,Win32,40,4,1,4,-0.079625253,0.389409314,1,0,0,1.1814,Basalt_08,2,08,6,4,1.181,-0.069216758,-0.263726295,1,0,0,1.8827,Basalt_rect,2,1.883,1,3,0,3,0,1,,,,,,,,,,,,,
632100c39d4c93aa71d32feb,SCN,2024-06-24_16h32.43.054,LearnStrategy,2023.2.3,Win32,40,4,1,5,0.059588879,0.373796515,1,0,0,1.2045,Andesite_04,1,04,6,5,1.204,0.136351872,-0.388628683,1,0,0,4.3637,Peridotite_rect,7,4.364,0,4,0,4,0,1,,,,,,,,,,,,,
632100c39d4c93aa71d32feb,SCN,2024-06-24_16h32.43.054,LearnStrategy,2023.2.3,Win32,40,4,1,6,0.233931856,0.41152745,1,0,0,1.126,Peridotite_02,7,02,6,6,1.126,0.129846458,-0.393832959,1,0,0,2.5652,Peridotite_rect,7,2.565,1,5,0,5,0,1,,,,,,,,,,,,,
632100c39d4c93aa71d32feb,SCN,2024-06-24_16h32.43.054,LearnStrategy,2023.2.3,Win32,40,4,1,7,0.413479053,0.423237055,1,0,0,1.2443,Diorite_13,3,13,6,7,1.244,-0.358053572,-0.246812386,1,0,0,3.1678,Andesite_rect,1,3.168,0,6,0,6,0,1,,,,,,,,,,,,,
632100c39d4c93aa71d32feb,SCN,2024-06-24_16h32.43.054,LearnStrategy,2023.2.3,Win32,40,4,1,8,0.538381552,0.395914644,1,0,0,1.2002,Peridotite_16,7,16,6,8,1.2,-0.187613843,-0.388628683,1,0,0,3.682,Pegmatite_rect,6,3.682,0,7,0,7,0,1,,,,,,,,,,,,,
632100c39d4c93aa71d32feb,SCN,2024-06-24_16h32.43.054,LearnStrategy,2023.2.3,Win32,40,4,1,9,-0.590944579,0.237184479,1,0,0,0.9678,Obsidian_16,5,16,5,1,0.968,-0.406193078,-0.388628683,1,0,0,1.1422,Obsidian_rect,5,1.142,1,8,0,8,0,1,,,,,,,,,,,,,
632100c39d4c93aa71d32feb,SCN,2024-06-24_16h32.43.054,LearnStrategy,2023.2.3,Win32,40,4,1,10,-0.373666399,0.246291947,1,0,0,1.0513,Basalt_05,2,05,5,2,1.051,-0.087431694,-0.25852202,1,0,0,0.9992,Basalt_rect,2,0.999,1,9,0,9,0,1,,,,,,,,,,,,,
632100c39d4c93aa71d32feb,SCN,2024-06-24_16h32.43.054,LearnStrategy,2023.2.3,Win32,40,4,1,11,-0.22144155,0.222872736,1,0,0,0.9967,Pumice_10,8,10,5,3,0.997,-0.335935443,-0.250715579,1,0,0,5.8404,Andesite_rect,1,5.84,0,10,0,10,0,1,,,,,,,,,,,,,
632100c39d4c93aa71d32feb,SCN,2024-06-24_16h32.43.054,LearnStrategy,2023.2.3,Win32,40,4,1,12,0.235232939,0.064142585,1,0,0,1.8602,Diorite_06,3,06,4,6,1.86,0.157168863,-0.255919854,1,0,0,1.9136,Diorite_rect,3,1.914,1,11,0,11,0,1,,,,,,,,,,,,,
632100c39d4c93aa71d32feb,SCN,2024-06-24_16h32.43.054,LearnStrategy,2023.2.3,Win32,40,4,1,13,0.099922,0.212464213,1,0,0,1.4264,Andesite_06,1,06,5,5,1.426,0.146760423,-0.253317744,1,0,0,1.6755,Diorite_rect,3,1.675,0,12,0,12,0,1,,,,,,,,,,,,,
632100c39d4c93aa71d32feb,SCN,2024-06-24_16h32.43.054,LearnStrategy,2023.2.3,Win32,40,4,1,14,0.596929498,0.081056466,1,0,0,1.2752,Gabbro_13,4,13,4,8,1.275,-0.339838636,-0.240307084,1,0,0,7.1799,Andesite_rect,1,7.18,0,13,0,13,0,1,,,,,,,,,,,,,
632100c39d4c93aa71d32feb,SCN,2024-06-24_16h32.43.054,LearnStrategy,2023.2.3,Win32,40,4,1,15,0.404371585,-0.242909193,1,0,0,1.5226,Pegmatite_16,6,16,2,7,1.523,-0.074421033,-0.412047895,1,0,0,3.459,Pegmatite_rect,6,3.459,1,14,0,14,0,1,,,,,,,,,,,,,
632100c39d4c93aa71d32feb,SCN,2024-06-24_16h32.43.054,LearnStrategy,2023.2.3,Win32,40,4,1,16,0.397866282,-0.405542593,1,0,0,1.6782,Obsidian_04,5,04,1,7,1.678,-0.455633612,-0.412047895,1,0,0,1.1504,Obsidian_rect,5,1.15,1,15,0,15,0,1,,,,,,,,,,,,,
632100c39d4c93aa71d32feb,SCN,2024-06-24_16h32.43.054,LearnStrategy,2023.2.3,Win32,40,4,2,1,,,,,,,,4,05,,,,,,,,,,,2,7.548,0,,,,,,-0.07572206,-0.26112413,1,0,0,7.5482,Basalt_rect,0,0,0,0,1,
632100c39d4c93aa71d32feb,SCN,2024-06-24_16h32.43.054,LearnStrategy,2023.2.3,Win32,40,4,2,2,,,,,,,,3,08,,,,,,,,,,,3,3.187,1,,,,,,0.119438019,-0.254618827,1,0,0,3.1872,Diorite_rect,1,0,1,0,1,
632100c39d4c93aa71d32feb,SCN,2024-06-24_16h32.43.054,LearnStrategy,2023.2.3,Win32,40,4,2,3,,,,,,,,3,07,,,,,,,,,,,3,1.278,1,,,,,,0.119438019,-0.254618827,1,0,0,1.2775,Diorite_rect,2,0,2,0,1,
632100c39d4c93aa71d32feb,SCN,2024-06-24_16h32.43.054,LearnStrategy,2023.2.3,Win32,40,4,2,4,,,,,,,,4,16,,,,,,,,,,,4,3.129,1,,,,,,0.388758814,-0.270231598,1,0,0,3.1289,Gabbro_rect,3,0,3,0,1,
632100c39d4c93aa71d32feb,SCN,2024-06-24_16h32.43.054,LearnStrategy,2023.2.3,Win32,40,4,2,5,,,,,,,,1,14,,,,,,,,,,,7,3.248,0,,,,,,0.131147541,-0.410746812,1,0,0,3.2483,Peridotite_rect,4,0,4,0,1,
632100c39d4c93aa71d32feb,SCN,2024-06-24_16h32.43.054,LearnStrategy,2023.2.3,Win32,40,4,2,6,,,,,,,,7,13,,,,,,,,,,,7,2.887,1,,,,,,0.092115503,-0.414650061,1,0,0,2.8868,Peridotite_rect,5,0,5,0,1,
632100c39d4c93aa71d32feb,SCN,2024-06-24_16h32.43.054,LearnStrategy,2023.2.3,Win32,40,4,2,7,,,,,,,,1,01,,,,,,,,,,,2,2.477,0,,,,,,-0.142076503,-0.229898533,1,0,0,2.4768,Basalt_rect,6,0,6,0,1,
632100c39d4c93aa71d32feb,SCN,2024-06-24_16h32.43.054,LearnStrategy,2023.2.3,Win32,40,4,2,8,,,,,,,,2,09,,,,,,,,,,,4,2.471,0,,,,,,0.421285438,-0.268930515,1,0,0,2.4708,Gabbro_rect,7,0,7,0,1,
632100c39d4c93aa71d32feb,SCN,2024-06-24_16h32.43.054,LearnStrategy,2023.2.3,Win32,40,4,2,9,,,,,,,,5,09,,,,,,,,,,,5,1.451,1,,,,,,-0.427010124,-0.410746812,1,0,0,1.4509,Obsidian_rect,8,0,8,0,1,
632100c39d4c93aa71d32feb,SCN,2024-06-24_16h32.43.054,LearnStrategy,2023.2.3,Win32,40,4,2,10,,,,,,,,6,08,,,,,,,,,,,6,2.049,1,,,,,,-0.158990356,-0.417252171,1,0,0,2.0489,Pegmatite_rect,9,0,9,0,1,
632100c39d4c93aa71d32feb,SCN,2024-06-24_16h32.43.054,LearnStrategy,2023.2.3,Win32,40,4,2,11,,,,,,,,8,09,,,,,,,,,,,8,3.035,1,,,,,,0.391360979,-0.402940427,1,0,0,3.0355,Pumice_rect,10,0,10,0,1,
632100c39d4c93aa71d32feb,SCN,2024-06-24_16h32.43.054,LearnStrategy,2023.2.3,Win32,40,4,2,12,,,,,,,,7,06,,,,,,,,,,,6,2.315,0,,,,,,-0.058808207,-0.421155363,1,0,0,2.3145,Pegmatite_rect,11,0,11,0,1,
632100c39d4c93aa71d32feb,SCN,2024-06-24_16h32.43.054,LearnStrategy,2023.2.3,Win32,40,4,2,13,,,,,,,,2,04,,,,,,,,,,,2,1.958,1,,,,,,-0.134270062,-0.255919854,1,0,0,1.9577,Basalt_rect,12,0,12,0,1,
632100c39d4c93aa71d32feb,SCN,2024-06-24_16h32.43.054,LearnStrategy,2023.2.3,Win32,40,4,2,14,,,,,,,,8,16,,,,,,,,,,,8,1.724,1,,,,,,0.382253511,-0.393832959,1,0,0,1.7238,Pumice_rect,13,0,13,0,1,
632100c39d4c93aa71d32feb,SCN,2024-06-24_16h32.43.054,LearnStrategy,2023.2.3,Win32,40,4,2,15,,,,,,,,6,09,,,,,,,,,,,6,1.611,1,,,,,,-0.087431694,-0.417252171,1,0,0,1.6108,Pegmatite_rect,14,0,14,0,1,
632100c39d4c93aa71d32feb,SCN,2024-06-24_16h32.43.054,LearnStrategy,2023.2.3,Win32,40,4,2,16,,,,,,,,5,05,,,,,,,,,,,5,1.406,1,,,,,,-0.381472784,-0.421155363,1,0,0,1.4058,Obsidian_rect,15,0,15,0,1,
632100c39d4c93aa71d32feb,SCN,2024-06-24_16h32.43.054,LearnStrategy,2023.2.3,Win32,40,5,1,1,-0.532396549,-0.405542593,1,0,0,1.2318,Peridotite_10,7,10,1,1,1.232,0.046578162,-0.388628683,1,0,0,1.673,Peridotite_rect,7,1.673,1,0,0,0,0,1,,,,,,,,,,,,,
632100c39d4c93aa71d32feb,SCN,2024-06-24_16h32.43.054,LearnStrategy,2023.2.3,Win32,40,5,1,2,-0.358053572,-0.400338317,1,0,0,0.9934,Pegmatite_10,6,10,1,2,0.993,-0.13817331,-0.40424151,1,0,0,1.4558,Pegmatite_rect,6,1.456,1,1,0,1,0,1,,,,,,,,,,,,,
632100c39d4c93aa71d32feb,SCN,2024-06-24_16h32.43.054,LearnStrategy,2023.2.3,Win32,40,5,1,3,-0.216237275,-0.397736152,1,0,0,1.0296,Diorite_12,3,12,1,3,1.03,0.096018751,-0.245511359,1,0,0,2.3201,Diorite_rect,3,2.32,1,2,0,2,0,1,,,,,,,,,,,,,
632100c39d4c93aa71d32feb,SCN,2024-06-24_16h32.43.054,LearnStrategy,2023.2.3,Win32,40,5,1,4,-0.086130611,-0.419854281,1,0,0,1.025,Diorite_14,3,14,1,4,1.025,0.111631522,-0.233801725,1,0,0,2.909,Diorite_rect,3,2.909,1,3,0,3,0,1,,,,,,,,,,,,,
632100c39d4c93aa71d32feb,SCN,2024-06-24_16h32.43.054,LearnStrategy,2023.2.3,Win32,40,5,1,5,0.058287796,-0.405542593,1,0,0,1.1018,Gabbro_03,4,03,1,5,1.102,0.360135327,-0.235102808,1,0,0,1.6832,Gabbro_rect,4,1.683,1,4,0,4,0,1,,,,,,,,,,,,,
632100c39d4c93aa71d32feb,SCN,2024-06-24_16h32.43.054,LearnStrategy,2023.2.3,Win32,40,5,1,6,0.201405232,-0.401639344,1,0,0,1.1186,Pumice_03,8,03,1,6,1.119,0.386156648,-0.389929766,1,0,0,0.6416,Pumice_rect,8,0.642,1,5,0,5,0,1,,,,,,,,,,,,,
632100c39d4c93aa71d32feb,SCN,2024-06-24_16h32.43.054,LearnStrategy,2023.2.3,Win32,40,5,1,7,0.518865533,-0.405542593,1,0,0,1.6672,Basalt_16,2,16,1,8,1.667,0.438199403,-0.386026574,1,0,0,1.0302,Pumice_rect,8,1.03,0,6,0,6,0,1,,,,,,,,,,,,,
632100c39d4c93aa71d32feb,SCN,2024-06-24_16h32.43.054,LearnStrategy,2023.2.3,Win32,40,5,1,8,-0.545407238,-0.281941231,1,0,0,1.078,Diorite_09,3,09,2,1,1.078,-0.430913345,-0.253317744,1,0,0,2.6517,Andesite_rect,1,2.652,0,7,0,7,0,1,,,,,,,,,,,,,
632100c39d4c93aa71d32feb,SCN,2024-06-24_16h32.43.054,LearnStrategy,2023.2.3,Win32,40,5,1,9,-0.423106932,-0.237704918,1,0,0,0.9598,Pegmatite_05,6,05,2,2,0.96,0.058287796,-0.389929766,1,0,0,5.4856,Peridotite_rect,7,5.486,0,8,0,8,0,1,,,,,,,,,,,,,
632100c39d4c93aa71d32feb,SCN,2024-06-24_16h32.43.054,LearnStrategy,2023.2.3,Win32,40,5,1,10,-0.238355459,-0.233801725,1,0,0,3.181,Pegmatite_11,6,11,2,3,3.181,-0.131667952,-0.393832959,1,0,0,2.046,Pegmatite_rect,6,2.046,1,9,0,9,0,1,,,,,,,,,,,,,
632100c39d4c93aa71d32feb,SCN,2024-06-24_16h32.43.054,LearnStrategy,2023.2.3,Win32,40,5,1,11,-0.082227419,-0.25852202,1,0,0,1.0144,Diorite_16,3,16,2,4,1.014,0.153265726,-0.241608111,1,0,0,1.9157,Diorite_rect,3,1.916,1,10,0,10,0,1,,,,,,,,,,,,,
632100c39d4c93aa71d32feb,SCN,2024-06-24_16h32.43.054,LearnStrategy,2023.2.3,Win32,40,5,1,12,0.23132969,-0.263726295,1,0,0,1.3759,Peridotite_14,7,14,2,6,1.376,0.168878496,-0.395134042,1,0,0,1.6973,Peridotite_rect,7,1.697,1,11,0,11,0,1,,,,,,,,,,,,,
632100c39d4c93aa71d32feb,SCN,2024-06-24_16h32.43.054,LearnStrategy,2023.2.3,Win32,40,5,1,13,0.400468448,-0.252016662,1,0,0,1.0729,Pegmatite_16,6,16,2,7,1.073,-0.101743438,-0.387327656,1,0,0,2.043,Pegmatite_rect,6,2.043,1,12,0,12,0,1,,,,,,,,,,,,,
632100c39d4c93aa71d32feb,SCN,2024-06-24_16h32.43.054,LearnStrategy,2023.2.3,Win32,40,5,1,14,0.539682524,-0.25852202,1,0,0,1.1431,Peridotite_12,7,12,2,8,1.143,0.131147541,-0.399037234,1,0,0,1.776,Peridotite_rect,7,1.776,1,13,0,13,0,1,,,,,,,,,,,,,
632100c39d4c93aa71d32feb,SCN,2024-06-24_16h32.43.054,LearnStrategy,2023.2.3,Win32,40,5,1,15,0.534478304,-0.102393979,1,0,0,1.0621,Pegmatite_06,6,06,3,8,1.062,-0.112151933,-0.417252171,1,0,0,2.1092,Pegmatite_rect,6,2.109,1,14,0,14,0,1,,,,,,,,,,,,,
632100c39d4c93aa71d32feb,SCN,2024-06-24_16h32.43.054,LearnStrategy,2023.2.3,Win32,40,5,1,16,0.429091935,-0.124512108,1,0,0,1.0128,Pumice_08,8,08,3,7,1.013,0.421285438,-0.248113469,1,0,0,3.4601,Gabbro_rect,4,3.46,0,15,0,15,0,1,,,,,,,,,,,,,
632100c39d4c93aa71d32feb,SCN,2024-06-24_16h32.43.054,LearnStrategy,2023.2.3,Win32,40,5,2,1,,,,,,,,3,02,,,,,,,,,,,3,3.639,1,,,,,,0.137652955,-0.255919854,1,0,0,3.6387,Diorite_rect,0,0,0,0,1,
632100c39d4c93aa71d32feb,SCN,2024-06-24_16h32.43.054,LearnStrategy,2023.2.3,Win32,40,5,2,2,,,,,,,,2,10,,,,,,,,,,,4,3.107,0,,,,,,0.397866282,-0.246812386,1,0,0,3.1067,Gabbro_rect,1,0,1,0,1,
632100c39d4c93aa71d32feb,SCN,2024-06-24_16h32.43.054,LearnStrategy,2023.2.3,Win32,40,5,2,3,,,,,,,,4,11,,,,,,,,,,,2,1.982,0,,,,,,-0.079625253,-0.257220937,1,0,0,1.9821,Basalt_rect,2,0,2,0,1,
632100c39d4c93aa71d32feb,SCN,2024-06-24_16h32.43.054,LearnStrategy,2023.2.3,Win32,40,5,2,4,,,,,,,,1,02,,,,,,,,,,,7,4.035,0,,,,,,0.127244404,-0.40684362,1,0,0,4.0347,Peridotite_rect,3,0,3,0,1,
632100c39d4c93aa71d32feb,SCN,2024-06-24_16h32.43.054,LearnStrategy,2023.2.3,Win32,40,5,2,5,,,,,,,,3,11,,,,,,,,,,,3,2.102,1,,,,,,0.088212366,-0.252016662,1,0,0,2.102,Diorite_rect,4,0,4,0,1,
632100c39d4c93aa71d32feb,SCN,2024-06-24_16h32.43.054,LearnStrategy,2023.2.3,Win32,40,5,2,6,,,,,,,,4,14,,,,,,,,,,,4,6.437,1,,,,,,0.393963034,-0.265027322,1,0,0,6.4373,Gabbro_rect,5,0,5,0,1,
632100c39d4c93aa71d32feb,SCN,2024-06-24_16h32.43.054,LearnStrategy,2023.2.3,Win32,40,5,2,7,,,,,,,,6,03,,,,,,,,,,,6,1.608,1,,,,,,-0.056206041,-0.405542593,1,0,0,1.6076,Pegmatite_rect,6,0,6,0,1,
632100c39d4c93aa71d32feb,SCN,2024-06-24_16h32.43.054,LearnStrategy,2023.2.3,Win32,40,5,2,8,,,,,,,,8,02,,,,,,,,,,,8,1.449,1,,,,,,0.36143641,-0.386026574,1,0,0,1.4492,Pumice_rect,7,0,7,0,1,
632100c39d4c93aa71d32feb,SCN,2024-06-24_16h32.43.054,LearnStrategy,2023.2.3,Win32,40,5,2,9,,,,,,,,5,10,,,,,,,,,,,5,1.372,1,,,,,,-0.299505571,-0.417252171,1,0,0,1.3721,Obsidian_rect,8,0,8,0,1,
632100c39d4c93aa71d32feb,SCN,2024-06-24_16h32.43.054,LearnStrategy,2023.2.3,Win32,40,5,2,10,,,,,,,,7,04,,,,,,,,,,,7,4.026,1,,,,,,0.053083576,-0.412047895,1,0,0,4.0255,Peridotite_rect,9,0,9,0,1,
632100c39d4c93aa71d32feb,SCN,2024-06-24_16h32.43.054,LearnStrategy,2023.2.3,Win32,40,5,2,11,,,,,,,,1,10,,,,,,,,,,,3,3.8,0,,,,,,0.110330439,-0.267629488,1,0,0,3.7996,Diorite_rect,10,0,10,0,1,
632100c39d4c93aa71d32feb,SCN,2024-06-24_16h32.43.054,LearnStrategy,2023.2.3,Win32,40,5,2,12,,,,,,,,7,05,,,,,,,,,,,7,1.839,1,,,,,,0.161072111,-0.380822298,1,0,0,1.8387,Peridotite_rect,11,0,11,0,1,
632100c39d4c93aa71d32feb,SCN,2024-06-24_16h32.43.054,LearnStrategy,2023.2.3,Win32,40,5,2,13,,,,,,,,6,12,,,,,,,,,,,6,2.236,1,,,,,,-0.087431694,-0.414650061,1,0,0,2.2358,Pegmatite_rect,12,0,12,0,1,
632100c39d4c93aa71d32feb,SCN,2024-06-24_16h32.43.054,LearnStrategy,2023.2.3,Win32,40,5,2,14,,,,,,,,8,15,,,,,,,,,,,8,1.482,1,,,,,,0.357533161,-0.40684362,1,0,0,1.4816,Pumice_rect,13,0,13,0,1,
632100c39d4c93aa71d32feb,SCN,2024-06-24_16h32.43.054,LearnStrategy,2023.2.3,Win32,40,5,2,15,,,,,,,,2,11,,,,,,,,,,,2,2.794,1,,,,,,-0.07311995,-0.255919854,1,0,0,2.7945,Basalt_rect,14,0,14,0,1,
632100c39d4c93aa71d32feb,SCN,2024-06-24_16h32.43.054,LearnStrategy,2023.2.3,Win32,40,5,2,16,,,,,,,,5,08,,,,,,,,,,,5,1.249,1,,,,,,-0.381472784,-0.400338317,1,0,0,1.2491,Obsidian_rect,15,0,15,0,1,
632100c39d4c93aa71d32feb,SCN,2024-06-24_16h32.43.054,LearnStrategy,2023.2.3,Win32,40,6,1,1,-0.229247991,-0.11540464,1,0,0,2.2731,Basalt_02,2,02,3,3,2.273,-0.119958374,-0.244210276,1,0,0,1.2296,Basalt_rect,2,1.23,1,0,0,0,0,1,,,,,,,,,,,,,
632100c39d4c93aa71d32feb,SCN,2024-06-24_16h32.43.054,LearnStrategy,2023.2.3,Win32,40,6,1,2,-0.058808207,-0.106297172,1,0,0,1.1435,Basalt_06,2,06,3,4,1.143,-0.103044465,-0.254618827,1,0,0,1.0954,Basalt_rect,2,1.095,1,1,0,1,0,1,,,,,,,,,,,,,
632100c39d4c93aa71d32feb,SCN,2024-06-24_16h32.43.054,LearnStrategy,2023.2.3,Win32,40,6,1,3,0.41217797,-0.111501447,1,0,0,1.3017,Pumice_08,8,08,3,7,1.302,0.409575916,-0.387327656,1,0,0,1.7662,Pumice_rect,8,1.766,1,2,0,2,0,1,,,,,,,,,,,,,
632100c39d4c93aa71d32feb,SCN,2024-06-24_16h32.43.054,LearnStrategy,2023.2.3,Win32,40,6,1,4,0.217018002,-0.268930515,1,0,0,1.8057,Peridotite_14,7,14,2,6,1.806,0.15066356,-0.400338317,1,0,0,2.279,Peridotite_rect,7,2.279,1,3,0,3,0,1,,,,,,,,,,,,,
632100c39d4c93aa71d32feb,SCN,2024-06-24_16h32.43.054,LearnStrategy,2023.2.3,Win32,40,6,1,5,-0.356752545,0.077153246,1,0,0,2.0332,Andesite_16,1,16,4,2,2.033,0.096018751,-0.242909193,1,0,0,3.715,Diorite_rect,3,3.715,0,4,0,4,0,1,,,,,,,,,,,,,
632100c39d4c93aa71d32feb,SCN,2024-06-24_16h32.43.054,LearnStrategy,2023.2.3,Win32,40,6,1,6,-0.368462123,0.221571681,1,0,0,1.3489,Basalt_05,2,05,5,2,1.349,-0.144678613,-0.249414552,1,0,0,1.3477,Basalt_rect,2,1.348,1,5,0,5,0,1,,,,,,,,,,,,,
632100c39d4c93aa71d32feb,SCN,2024-06-24_16h32.43.054,LearnStrategy,2023.2.3,Win32,40,6,1,7,0.259953177,0.260603691,1,0,0,1.1242,Peridotite_07,7,07,5,6,1.124,0.14545934,-0.402940427,1,0,0,1.6662,Peridotite_rect,7,1.666,1,6,0,6,0,1,,,,,,,,,,,,,
632100c39d4c93aa71d32feb,SCN,2024-06-24_16h32.43.054,LearnStrategy,2023.2.3,Win32,40,6,1,8,0.066094181,0.41152745,1,0,0,1.736,Andesite_04,1,04,6,5,1.736,-0.365860013,-0.240307084,1,0,0,2.0451,Andesite_rect,1,2.045,1,7,0,7,0,1,,,,,,,,,,,,,
632100c39d4c93aa71d32feb,SCN,2024-06-24_16h32.43.054,LearnStrategy,2023.2.3,Win32,40,6,1,9,-0.5428051,0.392011444,1,0,0,1.3348,Gabbro_15,4,15,6,1,1.335,-0.372365316,-0.249414552,1,0,0,1.2406,Andesite_rect,1,1.241,0,8,0,8,0,1,,,,,,,,,,,,,
632100c39d4c93aa71d32feb,SCN,2024-06-24_16h32.43.054,LearnStrategy,2023.2.3,Win32,40,6,1,10,0.551392157,-0.393832959,1,0,0,3.0501,Basalt_16,2,16,1,8,3.05,0.37184496,-0.241608111,1,0,0,0.9922,Gabbro_rect,4,0.992,0,9,0,9,0,1,,,,,,,,,,,,,
632100c39d4c93aa71d32feb,SCN,2024-06-24_16h32.43.054,LearnStrategy,2023.2.3,Win32,40,6,1,11,0.374447126,0.372495446,1,0,0,1.8532,Diorite_13,3,13,6,7,1.853,0.110330439,-0.262425212,1,0,0,2.0762,Diorite_rect,3,2.076,1,10,0,10,0,1,,,,,,,,,,,,,
632100c39d4c93aa71d32feb,SCN,2024-06-24_16h32.43.054,LearnStrategy,2023.2.3,Win32,40,6,1,12,-0.230549018,0.248894085,1,0,0,1.4044,Pumice_10,8,10,5,3,1.404,0.142857175,-0.395134042,1,0,0,3.9352,Peridotite_rect,7,3.935,0,11,0,11,0,1,,,,,,,,,,,,,
632100c39d4c93aa71d32feb,SCN,2024-06-24_16h32.43.054,LearnStrategy,2023.2.3,Win32,40,6,1,13,0.375748098,0.20205569,1,0,0,1.5209,Obsidian_11,5,11,5,7,1.521,-0.456934667,-0.410746812,1,0,0,1.033,Obsidian_rect,5,1.033,1,12,0,12,0,1,,,,,,,,,,,,,
632100c39d4c93aa71d32feb,SCN,2024-06-24_16h32.43.054,LearnStrategy,2023.2.3,Win32,40,6,1,14,0.524069753,0.229378094,1,0,0,2.2233,Andesite_09,1,09,5,8,2.223,0.136351872,-0.257220937,1,0,0,2.7836,Diorite_rect,3,2.784,0,13,0,13,0,1,,,,,,,,,,,,,
632100c39d4c93aa71d32feb,SCN,2024-06-24_16h32.43.054,LearnStrategy,2023.2.3,Win32,40,6,1,15,-0.041894353,-0.297554002,1,0,0,2.0262,Diorite_16,3,16,2,4,2.026,0.096018751,-0.271532681,1,0,0,1.9376,Diorite_rect,3,1.938,1,14,0,14,0,1,,,,,,,,,,,,,
632100c39d4c93aa71d32feb,SCN,2024-06-24_16h32.43.054,LearnStrategy,2023.2.3,Win32,40,6,1,16,0.374447126,-0.413348978,1,0,0,2.6186,Obsidian_04,5,04,1,7,2.619,-0.378870674,-0.392531876,1,0,0,3.0282,Obsidian_rect,5,3.028,1,15,0,15,0,1,,,,,,,,,,,,,
632100c39d4c93aa71d32feb,SCN,2024-06-24_16h32.43.054,LearnStrategy,2023.2.3,Win32,40,6,2,1,,,,,,,,6,07,,,,,,,,,,,6,4.76,1,,,,,,-0.065313565,-0.40684362,1,0,0,4.7602,Pegmatite_rect,0,0,0,0,1,
632100c39d4c93aa71d32feb,SCN,2024-06-24_16h32.43.054,LearnStrategy,2023.2.3,Win32,40,6,2,2,,,,,,,,7,15,,,,,,,,,,,7,2.738,1,,,,,,0.161072111,-0.40424151,1,0,0,2.7379,Peridotite_rect,1,0,1,0,1,
632100c39d4c93aa71d32feb,SCN,2024-06-24_16h32.43.054,LearnStrategy,2023.2.3,Win32,40,6,2,3,,,,,,,,8,04,,,,,,,,,,,8,2.139,1,,,,,,0.40697375,-0.402940427,1,0,0,2.1391,Pumice_rect,2,0,2,0,1,
632100c39d4c93aa71d32feb,SCN,2024-06-24_16h32.43.054,LearnStrategy,2023.2.3,Win32,40,6,2,4,,,,,,,,4,10,,,,,,,,,,,4,7.472,1,,,,,,0.396565199,-0.266328405,1,0,0,7.4718,Gabbro_rect,3,0,3,0,1,
632100c39d4c93aa71d32feb,SCN,2024-06-24_16h32.43.054,LearnStrategy,2023.2.3,Win32,40,6,2,5,,,,,,,,7,08,,,,,,,,,,,7,3.895,1,,,,,,0.058287796,-0.405542593,1,0,0,3.8952,Peridotite_rect,4,0,4,0,1,
632100c39d4c93aa71d32feb,SCN,2024-06-24_16h32.43.054,LearnStrategy,2023.2.3,Win32,40,6,2,6,,,,,,,,8,14,,,,,,,,,,,8,1.571,1,,,,,,0.323705454,-0.395134042,1,0,0,1.5711,Pumice_rect,5,0,5,0,1,
632100c39d4c93aa71d32feb,SCN,2024-06-24_16h32.43.054,LearnStrategy,2023.2.3,Win32,40,6,2,7,,,,,,,,3,15,,,,,,,,,,,3,4.672,1,,,,,,0.129846458,-0.242909193,1,0,0,4.6718,Diorite_rect,6,0,6,0,1,
632100c39d4c93aa71d32feb,SCN,2024-06-24_16h32.43.054,LearnStrategy,2023.2.3,Win32,40,6,2,8,,,,,,,,2,12,,,,,,,,,,,2,2.529,1,,,,,,-0.170699934,-0.26112413,1,0,0,2.5287,Basalt_rect,7,0,7,0,1,
632100c39d4c93aa71d32feb,SCN,2024-06-24_16h32.43.054,LearnStrategy,2023.2.3,Win32,40,6,2,9,,,,,,,,5,14,,,,,,,,,,,5,1.085,1,,,,,,-0.326827975,-0.400338317,1,0,0,1.0846,Obsidian_rect,8,0,8,0,1,
632100c39d4c93aa71d32feb,SCN,2024-06-24_16h32.43.054,LearnStrategy,2023.2.3,Win32,40,6,2,10,,,,,,,,4,12,,,,,,,,,,,2,3.269,0,,,,,,-0.118657291,-0.245511359,1,0,0,3.269,Basalt_rect,9,0,9,0,1,
632100c39d4c93aa71d32feb,SCN,2024-06-24_16h32.43.054,LearnStrategy,2023.2.3,Win32,40,6,2,11,,,,,,,,3,10,,,,,,,,,,,3,2.463,1,,,,,,0.133749706,-0.244210276,1,0,0,2.4633,Diorite_rect,10,0,10,0,1,
632100c39d4c93aa71d32feb,SCN,2024-06-24_16h32.43.054,LearnStrategy,2023.2.3,Win32,40,6,2,12,,,,,,,,6,13,,,,,,,,,,,6,1.411,1,,,,,,-0.096539162,-0.395134042,1,0,0,1.4112,Pegmatite_rect,11,0,11,0,1,
632100c39d4c93aa71d32feb,SCN,2024-06-24_16h32.43.054,LearnStrategy,2023.2.3,Win32,40,6,2,13,,,,,,,,1,05,,,,,,,,,,,1,4.587,1,,,,,,-0.36455893,-0.25852202,1,0,0,4.5869,Andesite_rect,12,0,12,0,1,
632100c39d4c93aa71d32feb,SCN,2024-06-24_16h32.43.054,LearnStrategy,2023.2.3,Win32,40,6,2,14,,,,,,,,2,14,,,,,,,,,,,8,2.04,0,,,,,,0.448607843,-0.408144702,1,0,0,2.0399,Pumice_rect,13,0,13,0,1,
632100c39d4c93aa71d32feb,SCN,2024-06-24_16h32.43.054,LearnStrategy,2023.2.3,Win32,40,6,2,15,,,,,,,,5,07,,,,,,,,,,,5,3.424,1,,,,,,-0.391881335,-0.401639344,1,0,0,3.4242,Obsidian_rect,14,0,14,0,1,
632100c39d4c93aa71d32feb,SCN,2024-06-24_16h32.43.054,LearnStrategy,2023.2.3,Win32,40,6,2,16,,,,,,,,1,03,,,,,,,,,,,1,3.69,1,,,,,,-0.347645077,-0.25852202,1,0,0,3.6896,Andesite_rect,15,0,15,0,1,
632100c39d4c93aa71d32feb,SCN,2024-06-24_16h32.43.054,LearnStrategy,2023.2.3,Win32,40,7,1,1,-0.508977365,0.385506114,1,0,0,13.1604,Gabbro_15,4,15,6,1,13.16,0.403070502,-0.233801725,1,0,0,2.1472,Gabbro_rect,4,2.147,1,0,0,0,0,1,,,,,,,,,,,,,
632100c39d4c93aa71d32feb,SCN,2024-06-24_16h32.43.054,LearnStrategy,2023.2.3,Win32,40,7,1,2,0.105126219,0.259302636,1,0,0,1.2939,Andesite_06,1,06,5,5,1.294,-0.350247187,-0.237704918,1,0,0,7.1521,Andesite_rect,1,7.152,1,1,0,1,0,1,,,,,,,,,,,,,
632100c39d4c93aa71d32feb,SCN,2024-06-24_16h32.43.054,LearnStrategy,2023.2.3,Win32,40,7,1,3,0.075201649,-0.275435873,1,0,0,1.1177,Pegmatite_15,6,15,2,5,1.118,-0.122560484,-0.401639344,1,0,0,1.1253,Pegmatite_rect,6,1.125,1,2,0,2,0,1,,,,,,,,,,,,,
632100c39d4c93aa71d32feb,SCN,2024-06-24_16h32.43.054,LearnStrategy,2023.2.3,Win32,40,7,1,4,-0.39708561,-0.263726295,1,0,0,1.6924,Pegmatite_05,6,05,2,2,1.692,-0.158990356,-0.418553253,1,0,0,3.0579,Pegmatite_rect,6,3.058,1,3,0,3,0,1,,,,,,,,,,,,,
632100c39d4c93aa71d32feb,SCN,2024-06-24_16h32.43.054,LearnStrategy,2023.2.3,Win32,40,7,1,5,0.279469196,0.241087672,1,0,0,1.4709,Peridotite_07,7,07,5,6,1.471,0.174082827,-0.387327656,1,0,0,2.006,Peridotite_rect,7,2.006,1,4,0,4,0,1,,,,,,,,,,,,,
632100c39d4c93aa71d32feb,SCN,2024-06-24_16h32.43.054,LearnStrategy,2023.2.3,Win32,40,7,1,6,0.542284689,0.084959659,1,0,0,2.1222,Gabbro_13,4,13,4,8,2.122,0.449908925,-0.26112413,1,0,0,1.4646,Gabbro_rect,4,1.465,1,5,0,5,0,1,,,,,,,,,,,,,
632100c39d4c93aa71d32feb,SCN,2024-06-24_16h32.43.054,LearnStrategy,2023.2.3,Win32,40,7,1,7,0.40697375,-0.294951892,1,0,0,1.7667,Pegmatite_16,6,16,2,7,1.767,-0.058808207,-0.387327656,1,0,0,1.9789,Pegmatite_rect,6,1.979,1,6,0,6,0,1,,,,,,,,,,,,,
632100c39d4c93aa71d32feb,SCN,2024-06-24_16h32.43.054,LearnStrategy,2023.2.3,Win32,40,7,1,8,-0.545407238,-0.272833763,1,0,0,1.3731,Diorite_09,3,09,2,1,1.373,0.133749706,-0.241608111,1,0,0,1.4921,Diorite_rect,3,1.492,1,7,0,7,0,1,,,,,,,,,,,,,
632100c39d4c93aa71d32feb,SCN,2024-06-24_16h32.43.054,LearnStrategy,2023.2.3,Win32,40,7,1,9,0.375748098,-0.43416608,1,0,0,4.2246,Obsidian_04,5,04,1,7,4.225,-0.372365316,-0.396435124,1,0,0,1.3993,Obsidian_rect,5,1.399,1,8,0,8,0,1,,,,,,,,,,,,,
632100c39d4c93aa71d32feb,SCN,2024-06-24_16h32.43.054,LearnStrategy,2023.2.3,Win32,40,7,1,10,0.539682524,0.231980204,1,0,0,1.8041,Andesite_09,1,09,5,8,1.804,-0.126463676,-0.263726295,1,0,0,2.582,Basalt_rect,2,2.582,0,9,0,9,0,1,,,,,,,,,,,,,
632100c39d4c93aa71d32feb,SCN,2024-06-24_16h32.43.054,LearnStrategy,2023.2.3,Win32,40,7,1,11,-0.125162594,-0.134920659,1,0,0,1.5173,Basalt_06,2,06,3,4,1.517,-0.093936997,-0.236403891,1,0,0,0.9904,Basalt_rect,2,0.99,1,10,0,10,0,1,,,,,,,,,,,,,
632100c39d4c93aa71d32feb,SCN,2024-06-24_16h32.43.054,LearnStrategy,2023.2.3,Win32,40,7,1,12,0.561800708,-0.405542593,1,0,0,1.2279,Basalt_16,2,16,1,8,1.228,0.404371585,-0.245511359,1,0,0,0.9821,Gabbro_rect,4,0.982,0,11,0,11,0,1,,,,,,,,,,,,,
632100c39d4c93aa71d32feb,SCN,2024-06-24_16h32.43.054,LearnStrategy,2023.2.3,Win32,40,7,1,13,0.542284689,-0.413348978,1,0,0,1.5947,Basalt_16,2,16,1,8,1.595,-0.101743438,-0.262425212,1,0,0,1.9937,Basalt_rect,2,1.994,1,12,0,12,0,1,,,,,,,,,,,,,
632100c39d4c93aa71d32feb,SCN,2024-06-24_16h32.43.054,LearnStrategy,2023.2.3,Win32,40,7,1,14,-0.246161845,0.066744723,1,0,0,2.1186,Obsidian_02,5,02,4,3,2.119,-0.394483445,-0.393832959,1,0,0,1.3617,Obsidian_rect,5,1.362,1,13,0,13,0,1,,,,,,,,,,,,,
632100c39d4c93aa71d32feb,SCN,2024-06-24_16h32.43.054,LearnStrategy,2023.2.3,Win32,40,7,1,15,-0.39708561,0.375097584,1,0,0,1.1333,Pumice_06,8,06,6,2,1.133,0.438199403,-0.421155363,1,0,0,1.3335,Pumice_rect,8,1.333,1,14,0,14,0,1,,,,,,,,,,,,,
632100c39d4c93aa71d32feb,SCN,2024-06-24_16h32.43.054,LearnStrategy,2023.2.3,Win32,40,7,1,16,-0.246161845,0.380301846,1,0,0,1.332,Pumice_05,8,05,6,3,1.332,0.386156648,-0.389929766,1,0,0,1.6717,Pumice_rect,8,1.672,1,15,0,15,0,1,,,,,,,,,,,,,
632100c39d4c93aa71d32feb,SCN,2024-06-24_16h32.43.054,LearnStrategy,2023.2.3,Win32,40,7,2,1,,,,,,,,6,03,,,,,,,,,,,6,2.617,1,,,,,,-0.14077542,-0.402940427,1,0,0,2.6175,Pegmatite_rect,0,0,0,0,1,
632100c39d4c93aa71d32feb,SCN,2024-06-24_16h32.43.054,LearnStrategy,2023.2.3,Win32,40,7,2,2,,,,,,,,2,09,,,,,,,,,,,2,5.054,1,,,,,,-0.103044465,-0.240307084,1,0,0,5.0545,Basalt_rect,1,0,1,0,1,
632100c39d4c93aa71d32feb,SCN,2024-06-24_16h32.43.054,LearnStrategy,2023.2.3,Win32,40,7,2,3,,,,,,,,5,08,,,,,,,,,,,5,1.942,1,,,,,,-0.445225061,-0.419854281,1,0,0,1.9416,Obsidian_rect,2,0,2,0,1,
632100c39d4c93aa71d32feb,SCN,2024-06-24_16h32.43.054,LearnStrategy,2023.2.3,Win32,40,7,2,4,,,,,,,,7,06,,,,,,,,,,,6,5.43,0,,,,,,-0.114754098,-0.396435124,1,0,0,5.4297,Pegmatite_rect,3,0,3,0,1,
632100c39d4c93aa71d32feb,SCN,2024-06-24_16h32.43.054,LearnStrategy,2023.2.3,Win32,40,7,2,5,,,,,,,,2,11,,,,,,,,,,,2,3.938,1,,,,,,-0.114754098,-0.26112413,1,0,0,3.9377,Basalt_rect,4,0,4,0,1,
632100c39d4c93aa71d32feb,SCN,2024-06-24_16h32.43.054,LearnStrategy,2023.2.3,Win32,40,7,2,6,,,,,,,,4,14,,,,,,,,,,,4,1.775,1,,,,,,0.374447126,-0.246812386,1,0,0,1.7752,Gabbro_rect,5,0,5,0,1,
632100c39d4c93aa71d32feb,SCN,2024-06-24_16h32.43.054,LearnStrategy,2023.2.3,Win32,40,7,2,7,,,,,,,,7,05,,,,,,,,,,,7,5.07,1,,,,,,0.148061394,-0.388628683,1,0,0,5.0703,Peridotite_rect,6,0,6,0,1,
632100c39d4c93aa71d32feb,SCN,2024-06-24_16h32.43.054,LearnStrategy,2023.2.3,Win32,40,7,2,8,,,,,,,,4,10,,,,,,,,,,,2,2.295,0,,,,,,-0.082227419,-0.254618827,1,0,0,2.2947,Basalt_rect,7,0,7,0,1,
632100c39d4c93aa71d32feb,SCN,2024-06-24_16h32.43.054,LearnStrategy,2023.2.3,Win32,40,7,2,9,,,,,,,,8,15,,,,,,,,,,,8,1.329,1,,,,,,0.347124722,-0.393832959,1,0,0,1.3291,Pumice_rect,8,0,8,0,1,
632100c39d4c93aa71d32feb,SCN,2024-06-24_16h32.43.054,LearnStrategy,2023.2.3,Win32,40,7,2,10,,,,,,,,3,07,,,,,,,,,,,3,1.412,1,,,,,,0.166276331,-0.257220937,1,0,0,1.4116,Diorite_rect,9,0,9,0,1,
632100c39d4c93aa71d32feb,SCN,2024-06-24_16h32.43.054,LearnStrategy,2023.2.3,Win32,40,7,2,11,,,,,,,,1,03,,,,,,,,,,,1,1.457,1,,,,,,-0.332032251,-0.262425212,1,0,0,1.4565,Andesite_rect,10,0,10,0,1,
632100c39d4c93aa71d32feb,SCN,2024-06-24_16h32.43.054,LearnStrategy,2023.2.3,Win32,40,7,2,12,,,,,,,,6,07,,,,,,,,,,,6,1.445,1,,,,,,-0.132969035,-0.379521215,1,0,0,1.4445,Pegmatite_rect,11,0,11,0,1,
632100c39d4c93aa71d32feb,SCN,2024-06-24_16h32.43.054,LearnStrategy,2023.2.3,Win32,40,7,2,13,,,,,,,,5,07,,,,,,,,,,,5,1.163,1,,,,,,-0.365860013,-0.400338317,1,0,0,1.1632,Obsidian_rect,12,0,12,0,1,
632100c39d4c93aa71d32feb,SCN,2024-06-24_16h32.43.054,LearnStrategy,2023.2.3,Win32,40,7,2,14,,,,,,,,1,14,,,,,,,,,,,1,5.452,1,,,,,,-0.35154827,-0.253317744,1,0,0,5.4519,Andesite_rect,13,0,13,0,1,
632100c39d4c93aa71d32feb,SCN,2024-06-24_16h32.43.054,LearnStrategy,2023.2.3,Win32,40,7,2,15,,,,,,,,8,16,,,,,,,,,,,8,2.235,1,,,,,,0.473328193,-0.412047895,1,0,0,2.2349,Pumice_rect,14,0,14,0,1,
632100c39d4c93aa71d32feb,SCN,2024-06-24_16h32.43.054,LearnStrategy,2023.2.3,Win32,40,7,2,16,,,,,,,,3,10,,,,,,,,,,,1,4.004,0,,,,,,-0.329430141,-0.229898533,1,0,0,4.0039,Andesite_rect,15,0,15,0,1,
632100c39d4c93aa71d32feb,SCN,2024-06-24_16h32.43.054,LearnStrategy,2023.2.3,Win32,40,8,1,1,-0.207129807,0.24368981,1,0,0,1.8471,Pumice_10,8,10,5,3,1.847,0.137652955,-0.245511359,1,0,0,3.0591,Diorite_rect,3,3.059,0,0,0,0,0,1,,,,,,,,,,,,,
632100c39d4c93aa71d32feb,SCN,2024-06-24_16h32.43.054,LearnStrategy,2023.2.3,Win32,40,8,1,2,0.076502732,-0.292349727,1,0,0,1.2773,Pegmatite_15,6,15,2,5,1.277,-0.123861566,-0.408144702,1,0,0,1.2907,Pegmatite_rect,6,1.291,1,1,0,1,0,1,,,,,,,,,,,,,
632100c39d4c93aa71d32feb,SCN,2024-06-24_16h32.43.054,LearnStrategy,2023.2.3,Win32,40,8,1,3,-0.394483445,-0.29365081,1,0,0,1.0469,Pegmatite_05,6,05,2,2,1.047,-0.177205292,-0.392531876,1,0,0,1.4242,Pegmatite_rect,6,1.424,1,2,0,2,0,1,,,,,,,,,,,,,
632100c39d4c93aa71d32feb,SCN,2024-06-24_16h32.43.054,LearnStrategy,2023.2.3,Win32,40,8,1,4,0.388758814,-0.248113469,1,0,0,1.0484,Pegmatite_16,6,16,2,7,1.048,-0.101743438,-0.40684362,1,0,0,2.2539,Pegmatite_rect,6,2.254,1,3,0,3,0,1,,,,,,,,,,,,,
632100c39d4c93aa71d32feb,SCN,2024-06-24_16h32.43.054,LearnStrategy,2023.2.3,Win32,40,8,1,5,0.258652095,0.241087672,1,0,0,1.7437,Peridotite_07,7,07,5,6,1.744,0.109029468,-0.418553253,1,0,0,1.9536,Peridotite_rect,7,1.954,1,4,0,4,0,1,,,,,,,,,,,,,
632100c39d4c93aa71d32feb,SCN,2024-06-24_16h32.43.054,LearnStrategy,2023.2.3,Win32,40,8,1,6,0.232630773,0.086260714,1,0,0,1.5245,Diorite_06,3,06,4,6,1.524,0.14545934,-0.241608111,1,0,0,2.5138,Diorite_rect,3,2.514,1,5,0,5,0,1,,,,,,,,,,,,,
632100c39d4c93aa71d32feb,SCN,2024-06-24_16h32.43.054,LearnStrategy,2023.2.3,Win32,40,8,1,7,-0.394483445,0.123991669,1,0,0,1.7016,Andesite_16,1,16,4,2,1.702,-0.369763206,-0.255919854,1,0,0,2.6114,Andesite_rect,1,2.611,1,6,0,6,0,1,,,,,,,,,,,,,
632100c39d4c93aa71d32feb,SCN,2024-06-24_16h32.43.054,LearnStrategy,2023.2.3,Win32,40,8,1,8,0.564402874,0.127894862,1,0,0,1.2169,Gabbro_13,4,13,4,8,1.217,0.427790852,-0.241608111,1,0,0,1.9134,Gabbro_rect,4,1.913,1,7,0,7,0,1,,,,,,,,,,,,,
632100c39d4c93aa71d32feb,SCN,2024-06-24_16h32.43.054,LearnStrategy,2023.2.3,Win32,40,8,1,9,0.26645848,-0.267629488,1,0,0,1.4158,Peridotite_14,7,14,2,6,1.416,0.153265726,-0.400338317,1,0,0,1.5992,Peridotite_rect,7,1.599,1,8,0,8,0,1,,,,,,,,,,,,,
632100c39d4c93aa71d32feb,SCN,2024-06-24_16h32.43.054,LearnStrategy,2023.2.3,Win32,40,8,1,10,-0.227946909,0.271012228,1,0,0,1.053,Pumice_10,8,10,5,3,1.053,0.354931107,-0.40684362,1,0,0,1.7176,Pumice_rect,8,1.718,1,9,0,9,0,1,,,,,,,,,,,,,
632100c39d4c93aa71d32feb,SCN,2024-06-24_16h32.43.054,LearnStrategy,2023.2.3,Win32,40,8,1,11,-0.407494161,0.255399416,1,0,0,1.1246,Basalt_05,2,05,5,2,1.125,-0.132969035,-0.233801725,1,0,0,1.1516,Basalt_rect,2,1.152,1,10,0,10,0,1,,,,,,,,,,,,,
632100c39d4c93aa71d32feb,SCN,2024-06-24_16h32.43.054,LearnStrategy,2023.2.3,Win32,40,8,1,12,0.538381552,-0.279339066,1,0,0,1.5997,Peridotite_12,7,12,2,8,1.6,0.127244404,-0.408144702,1,0,0,1.6792,Peridotite_rect,7,1.679,1,11,0,11,0,1,,,,,,,,,,,,,
632100c39d4c93aa71d32feb,SCN,2024-06-24_16h32.43.054,LearnStrategy,2023.2.3,Win32,40,8,1,13,-0.25136612,-0.423757529,1,0,0,0.9794,Diorite_12,3,12,1,3,0.979,0.2105127,-0.239006001,1,0,0,4.2952,Diorite_rect,3,4.295,1,12,0,12,0,1,,,,,,,,,,,,,
632100c39d4c93aa71d32feb,SCN,2024-06-24_16h32.43.054,LearnStrategy,2023.2.3,Win32,40,8,1,14,0.275565948,0.248894085,1,0,0,1.0015,Peridotite_07,7,07,5,6,1.001,0.128545487,-0.418553253,1,0,0,1.5891,Peridotite_rect,7,1.589,1,13,0,13,0,1,,,,,,,,,,,,,
632100c39d4c93aa71d32feb,SCN,2024-06-24_16h32.43.054,LearnStrategy,2023.2.3,Win32,40,8,1,15,-0.368462123,0.238485562,1,0,0,1.097,Basalt_05,2,05,5,2,1.097,-0.14337753,-0.257220937,1,0,0,1.0874,Basalt_rect,2,1.087,1,14,0,14,0,1,,,,,,,,,,,,,
632100c39d4c93aa71d32feb,SCN,2024-06-24_16h32.43.054,LearnStrategy,2023.2.3,Win32,40,8,1,16,0.569607094,0.081056466,1,0,0,1.7026,Gabbro_13,4,13,4,8,1.703,0.409575916,-0.254618827,1,0,0,1.2739,Gabbro_rect,4,1.274,1,15,0,15,0,1,,,,,,,,,,,,,
632100c39d4c93aa71d32feb,SCN,2024-06-24_16h32.43.054,LearnStrategy,2023.2.3,Win32,40,8,2,1,,,,,,,,3,08,,,,,,,,,,,3,5.478,1,,,,,,0.106427302,-0.239006001,1,0,0,5.4785,Diorite_rect,0,0,0,0,1,
632100c39d4c93aa71d32feb,SCN,2024-06-24_16h32.43.054,LearnStrategy,2023.2.3,Win32,40,8,2,2,,,,,,,,3,02,,,,,,,,,,,3,1.164,1,,,,,,0.106427302,-0.239006001,1,0,0,1.1636,Diorite_rect,1,0,1,0,1,
632100c39d4c93aa71d32feb,SCN,2024-06-24_16h32.43.054,LearnStrategy,2023.2.3,Win32,40,8,2,3,,,,,,,,5,09,,,,,,,,,,,5,2.101,1,,,,,,-0.380171701,-0.412047895,1,0,0,2.1005,Obsidian_rect,2,0,2,0,1,
632100c39d4c93aa71d32feb,SCN,2024-06-24_16h32.43.054,LearnStrategy,2023.2.3,Win32,40,8,2,4,,,,,,,,4,12,,,,,,,,,,,2,1.909,0,,,,,,-0.10564663,-0.253317744,1,0,0,1.9091,Basalt_rect,3,0,3,0,1,
632100c39d4c93aa71d32feb,SCN,2024-06-24_16h32.43.054,LearnStrategy,2023.2.3,Win32,40,8,2,5,,,,,,,,5,14,,,,,,,,,,,5,1.277,1,,,,,,-0.36455893,-0.388628683,1,0,0,1.2766,Obsidian_rect,4,0,4,0,1,
632100c39d4c93aa71d32feb,SCN,2024-06-24_16h32.43.054,LearnStrategy,2023.2.3,Win32,40,8,2,6,,,,,,,,2,12,,,,,,,,,,,2,4.912,1,,,,,,-0.116055126,-0.252016662,1,0,0,4.9119,Basalt_rect,5,0,5,0,1,
632100c39d4c93aa71d32feb,SCN,2024-06-24_16h32.43.054,LearnStrategy,2023.2.3,Win32,40,8,2,7,,,,,,,,1,02,,,,,,,,,,,1,2.747,1,,,,,,-0.406193078,-0.262425212,1,0,0,2.7475,Andesite_rect,6,0,6,0,1,
632100c39d4c93aa71d32feb,SCN,2024-06-24_16h32.43.054,LearnStrategy,2023.2.3,Win32,40,8,2,8,,,,,,,,8,14,,,,,,,,,,,8,1.489,1,,,,,,0.365339658,-0.415951088,1,0,0,1.4887,Pumice_rect,7,0,7,0,1,
632100c39d4c93aa71d32feb,SCN,2024-06-24_16h32.43.054,LearnStrategy,2023.2.3,Win32,40,8,2,9,,,,,,,,7,13,,,,,,,,,,,7,1.596,1,,,,,,0.171480662,-0.391230849,1,0,0,1.5961,Peridotite_rect,8,0,8,0,1,
632100c39d4c93aa71d32feb,SCN,2024-06-24_16h32.43.054,LearnStrategy,2023.2.3,Win32,40,8,2,10,,,,,,,,1,05,,,,,,,,,,,1,2.468,1,,,,,,-0.36716104,-0.253317744,1,0,0,2.4678,Andesite_rect,9,0,9,0,1,
632100c39d4c93aa71d32feb,SCN,2024-06-24_16h32.43.054,LearnStrategy,2023.2.3,Win32,40,8,2,11,,,,,,,,4,16,,,,,,,,,,,4,2.354,1,,,,,,0.400468448,-0.266328405,1,0,0,2.3539,Gabbro_rect,10,0,10,0,1,
632100c39d4c93aa71d32feb,SCN,2024-06-24_16h32.43.054,LearnStrategy,2023.2.3,Win32,40,8,2,12,,,,,,,,2,14,,,,,,,,,,,4,1.183,0,,,,,,0.358834244,-0.244210276,1,0,0,1.1833,Gabbro_rect,11,0,11,0,1,
632100c39d4c93aa71d32feb,SCN,2024-06-24_16h32.43.054,LearnStrategy,2023.2.3,Win32,40,8,2,13,,,,,,,,7,08,,,,,,,,,,,7,2.158,1,,,,,,0.116835853,-0.413348978,1,0,0,2.1581,Peridotite_rect,12,0,12,0,1,
632100c39d4c93aa71d32feb,SCN,2024-06-24_16h32.43.054,LearnStrategy,2023.2.3,Win32,40,8,2,14,,,,,,,,8,09,,,,,,,,,,,8,2.024,1,,,,,,0.360135327,-0.396435124,1,0,0,2.0237,Pumice_rect,13,0,13,0,1,
632100c39d4c93aa71d32feb,SCN,2024-06-24_16h32.43.054,LearnStrategy,2023.2.3,Win32,40,8,2,15,,,,,,,,6,13,,,,,,,,,,,6,1.793,1,,,,,,-0.13817331,-0.396435124,1,0,0,1.7927,Pegmatite_rect,14,0,14,0,1,
632100c39d4c93aa71d32feb,SCN,2024-06-24_16h32.43.054,LearnStrategy,2023.2.3,Win32,40,8,2,16,,,,,,,,6,12,,,,,,,,,,,3,3.217,0,,,,,,0.119438019,-0.259823047,1,0,0,3.2166,Diorite_rect,15,0,15,0,1,
632100c39d4c93aa71d32feb,SCN,2024-06-24_16h32.43.054,LearnStrategy,2023.2.3,Win32,40,9,1,1,-0.233151184,-0.11280253,1,0,0,3.6211,Basalt_02,2,02,3,3,3.621,-0.14337753,-0.237704918,1,0,0,1.1217,Basalt_rect,2,1.122,1,0,0,0,0,1,,,,,,,,,,,,,
632100c39d4c93aa71d32feb,SCN,2024-06-24_16h32.43.054,LearnStrategy,2023.2.3,Win32,40,9,1,2,-0.083528501,-0.095888621,1,0,0,1.2683,Basalt_06,2,06,3,4,1.268,-0.132969035,-0.259823047,1,0,0,0.9828,Basalt_rect,2,0.983,1,1,0,1,0,1,,,,,,,,,,,,,
632100c39d4c93aa71d32feb,SCN,2024-06-24_16h32.43.054,LearnStrategy,2023.2.3,Win32,40,9,1,3,-0.557116816,-0.093286511,1,0,0,0.9514,Gabbro_08,4,08,3,1,0.951,-0.166796742,-0.248113469,1,0,0,6.2113,Basalt_rect,2,6.211,0,2,0,2,0,1,,,,,,,,,,,,,
632100c39d4c93aa71d32feb,SCN,2024-06-24_16h32.43.054,LearnStrategy,2023.2.3,Win32,40,9,1,4,0.243039324,0.260603691,1,0,0,1.0532,Peridotite_07,7,07,5,6,1.053,0.114233687,-0.399037234,1,0,0,2.1731,Peridotite_rect,7,2.173,1,3,0,3,0,1,,,,,,,,,,,,,
632100c39d4c93aa71d32feb,SCN,2024-06-24_16h32.43.054,LearnStrategy,2023.2.3,Win32,40,9,1,5,0.421285438,0.444054122,1,0,0,1.2014,Diorite_13,3,13,6,7,1.201,0.129846458,-0.246812386,1,0,0,2.6065,Diorite_rect,3,2.607,1,4,0,4,0,1,,,,,,,,,,,,,
632100c39d4c93aa71d32feb,SCN,2024-06-24_16h32.43.054,LearnStrategy,2023.2.3,Win32,40,9,1,6,0.556596488,-0.106297172,1,0,0,1.3253,Pegmatite_06,6,06,3,8,1.325,-0.148581805,-0.396435124,1,0,0,1.2135,Pegmatite_rect,6,1.213,1,5,0,5,0,1,,,,,,,,,,,,,
632100c39d4c93aa71d32feb,SCN,2024-06-24_16h32.43.054,LearnStrategy,2023.2.3,Win32,40,9,1,7,0.542284689,-0.383424408,1,0,0,1.2554,Basalt_16,2,16,1,8,1.255,0.418683384,-0.244210276,1,0,0,1.172,Gabbro_rect,4,1.172,0,6,0,6,0,1,,,,,,,,,,,,,
632100c39d4c93aa71d32feb,SCN,2024-06-24_16h32.43.054,LearnStrategy,2023.2.3,Win32,40,9,1,8,-0.534998687,-0.271532681,1,0,0,1.2285,Diorite_09,3,09,2,1,1.229,0.110330439,-0.235102808,1,0,0,1.6472,Diorite_rect,3,1.647,1,7,0,7,0,1,,,,,,,,,,,,,
632100c39d4c93aa71d32feb,SCN,2024-06-24_16h32.43.054,LearnStrategy,2023.2.3,Win32,40,9,1,9,-0.384074949,0.241087672,1,0,0,0.8565,Basalt_05,2,05,5,2,0.857,-0.096539162,-0.242909193,1,0,0,1.1678,Basalt_rect,2,1.168,1,8,0,8,0,1,,,,,,,,,,,,,
632100c39d4c93aa71d32feb,SCN,2024-06-24_16h32.43.054,LearnStrategy,2023.2.3,Win32,40,9,1,10,-0.077023143,-0.257220937,1,0,0,1.3993,Diorite_16,3,16,2,4,1.399,-0.322924782,-0.25852202,1,0,0,2.8264,Andesite_rect,1,2.826,0,9,0,9,0,1,,,,,,,,,,,,,
632100c39d4c93aa71d32feb,SCN,2024-06-24_16h32.43.054,LearnStrategy,2023.2.3,Win32,40,9,1,11,-0.082227419,0.258001553,1,0,0,1.8019,Gabbro_09,4,09,5,4,1.802,-0.116055126,-0.241608111,1,0,0,3.52,Basalt_rect,2,3.52,0,10,0,10,0,1,,,,,,,,,,,,,
632100c39d4c93aa71d32feb,SCN,2024-06-24_16h32.43.054,LearnStrategy,2023.2.3,Win32,40,9,1,12,-0.373666399,0.242388755,1,0,0,1.1564,Basalt_05,2,05,5,2,1.156,-0.110850906,-0.249414552,1,0,0,0.8903,Basalt_rect,2,0.89,1,11,0,11,0,1,,,,,,,,,,,,,
632100c39d4c93aa71d32feb,SCN,2024-06-24_16h32.43.054,LearnStrategy,2023.2.3,Win32,40,9,1,13,-0.433515483,-0.44977885,1,0,0,0.9784,Pegmatite_10,6,10,1,2,0.978,-0.103044465,-0.401639344,1,0,0,1.0676,Pegmatite_rect,6,1.068,1,12,0,12,0,1,,,,,,,,,,,,,
632100c39d4c93aa71d32feb,SCN,2024-06-24_16h32.43.054,LearnStrategy,2023.2.3,Win32,40,9,1,14,0.06999743,-0.301457195,1,0,0,1.2458,Pegmatite_15,6,15,2,5,1.246,-0.114754098,-0.405542593,1,0,0,0.7983,Pegmatite_rect,6,0.798,1,13,0,13,0,1,,,,,,,,,,,,,
632100c39d4c93aa71d32feb,SCN,2024-06-24_16h32.43.054,LearnStrategy,2023.2.3,Win32,40,9,1,15,0.405672667,-0.132318493,1,0,0,1.888,Pumice_08,8,08,3,7,1.888,0.408274833,-0.415951088,1,0,0,1.5172,Pumice_rect,8,1.517,1,14,0,14,0,1,,,,,,,,,,,,,
632100c39d4c93aa71d32feb,SCN,2024-06-24_16h32.43.054,LearnStrategy,2023.2.3,Win32,40,9,1,16,-0.066614592,0.242388755,1,0,0,1.4531,Gabbro_09,4,09,5,4,1.453,-0.106947657,-0.270231598,1,0,0,1.3882,Basalt_rect,2,1.388,0,15,0,15,0,1,,,,,,,,,,,,,
632100c39d4c93aa71d32feb,SCN,2024-06-24_16h32.43.054,LearnStrategy,2023.2.3,Win32,40,9,2,1,,,,,,,,5,10,,,,,,,,,,,5,1.533,1,,,,,,-0.377569591,-0.405542593,1,0,0,1.5327,Obsidian_rect,0,0,0,0,1,
632100c39d4c93aa71d32feb,SCN,2024-06-24_16h32.43.054,LearnStrategy,2023.2.3,Win32,40,9,2,2,,,,,,,,7,15,,,,,,,,,,,7,4.96,1,,,,,,0.11553477,-0.399037234,1,0,0,4.9599,Peridotite_rect,1,0,1,0,1,
632100c39d4c93aa71d32feb,SCN,2024-06-24_16h32.43.054,LearnStrategy,2023.2.3,Win32,40,9,2,3,,,,,,,,1,01,,,,,,,,,,,1,3.783,1,,,,,,-0.348946104,-0.25852202,1,0,0,3.7829,Andesite_rect,2,0,2,0,1,
632100c39d4c93aa71d32feb,SCN,2024-06-24_16h32.43.054,LearnStrategy,2023.2.3,Win32,40,9,2,4,,,,,,,,4,11,,,,,,,,,,,2,1.634,0,,,,,,-0.155087164,-0.259823047,1,0,0,1.6336,Basalt_rect,3,0,3,0,1,
632100c39d4c93aa71d32feb,SCN,2024-06-24_16h32.43.054,LearnStrategy,2023.2.3,Win32,40,9,2,5,,,,,,,,3,11,,,,,,,,,,,4,7.372,0,,,,,,0.341920391,-0.250715579,1,0,0,7.3717,Gabbro_rect,4,0,4,0,1,
632100c39d4c93aa71d32feb,SCN,2024-06-24_16h32.43.054,LearnStrategy,2023.2.3,Win32,40,9,2,6,,,,,,,,7,04,,,,,,,,,,,7,2.205,1,,,,,,0.099922,-0.399037234,1,0,0,2.2046,Peridotite_rect,5,0,5,0,1,
632100c39d4c93aa71d32feb,SCN,2024-06-24_16h32.43.054,LearnStrategy,2023.2.3,Win32,40,9,2,7,,,,,,,,2,04,,,,,,,,,,,2,2.036,1,,,,,,-0.122560484,-0.237704918,1,0,0,2.0362,Basalt_rect,6,0,6,0,1,
632100c39d4c93aa71d32feb,SCN,2024-06-24_16h32.43.054,LearnStrategy,2023.2.3,Win32,40,9,2,8,,,,,,,,8,02,,,,,,,,,,,8,1.486,1,,,,,,0.434296155,-0.40424151,1,0,0,1.4865,Pumice_rect,7,0,7,0,1,
632100c39d4c93aa71d32feb,SCN,2024-06-24_16h32.43.054,LearnStrategy,2023.2.3,Win32,40,9,2,9,,,,,,,,6,08,,,,,,,,,,,6,1.469,1,,,,,,-0.131667952,-0.399037234,1,0,0,1.4686,Pegmatite_rect,8,0,8,0,1,
632100c39d4c93aa71d32feb,SCN,2024-06-24_16h32.43.054,LearnStrategy,2023.2.3,Win32,40,9,2,10,,,,,,,,2,10,,,,,,,,,,,4,1.689,0,,,,,,0.404371585,-0.232500643,1,0,0,1.6893,Gabbro_rect,9,0,9,0,1,
632100c39d4c93aa71d32feb,SCN,2024-06-24_16h32.43.054,LearnStrategy,2023.2.3,Win32,40,9,2,11,,,,,,,,8,04,,,,,,,,,,,8,2.212,1,,,,,,0.387457731,-0.399037234,1,0,0,2.2123,Pumice_rect,10,0,10,0,1,
632100c39d4c93aa71d32feb,SCN,2024-06-24_16h32.43.054,LearnStrategy,2023.2.3,Win32,40,9,2,12,,,,,,,,3,15,,,,,,,,,,,3,1.979,1,,,,,,0.132448624,-0.245511359,1,0,0,1.979,Diorite_rect,11,0,11,0,1,
632100c39d4c93aa71d32feb,SCN,2024-06-24_16h32.43.054,LearnStrategy,2023.2.3,Win32,40,9,2,13,,,,,,,,6,09,,,,,,,,,,,6,1.24,1,,,,,,-0.142076503,-0.408144702,1,0,0,1.2401,Pegmatite_rect,12,0,12,0,1,
632100c39d4c93aa71d32feb,SCN,2024-06-24_16h32.43.054,LearnStrategy,2023.2.3,Win32,40,9,2,14,,,,,,,,5,05,,,,,,,,,,,5,1.446,1,,,,,,-0.413999464,-0.409445785,1,0,0,1.4456,Obsidian_rect,13,0,13,0,1,
632100c39d4c93aa71d32feb,SCN,2024-06-24_16h32.43.054,LearnStrategy,2023.2.3,Win32,40,9,2,15,,,,,,,,4,05,,,,,,,,,,,4,6.424,1,,,,,,0.378350263,-0.25852202,1,0,0,6.4242,Gabbro_rect,14,0,14,0,1,
632100c39d4c93aa71d32feb,SCN,2024-06-24_16h32.43.054,LearnStrategy,2023.2.3,Win32,40,9,2,16,,,,,,,,1,10,,,,,,,,,,,1,3.513,1,,,,,,-0.355451462,-0.244210276,1,0,0,3.5125,Andesite_rect,15,0,15,0,1,
632100c39d4c93aa71d32feb,SCN,2024-06-24_16h32.43.054,LearnStrategy,2023.2.3,Win32,40,,,,,,,,,,,,,,,,,,,,,,,,,,,,,,,,,,,,,,,,,,,1
632100c39d4c93aa71d32feb,SCN,2024-06-24_16h32.43.054,LearnStrategy,2023.2.3,Win32,40,,,,,,,,,,,,,,,,,,,,,,,,,,,,,,,,,,,,,,,,,,,
632100c39d4c93aa71d32feb,SCN,2024-06-24_16h32.43.054,LearnStrategy,2023.2.3,Win32,40,,,,,,,,,,,7,10,1,1,,,,,,,,,,,,,,,,,,,,,,,,,,,,,
632100c39d4c93aa71d32feb,SCN,2024-06-24_16h32.43.054,LearnStrategy,2023.2.3,Win32,40,,,,,,,,,,,6,10,1,2,,,,,,,,,,,,,,,,,,,,,,,,,,,,,
632100c39d4c93aa71d32feb,SCN,2024-06-24_16h32.43.054,LearnStrategy,2023.2.3,Win32,40,,,,,,,,,,,3,12,1,3,,,,,,,,,,,,,,,,,,,,,,,,,,,,,
632100c39d4c93aa71d32feb,SCN,2024-06-24_16h32.43.054,LearnStrategy,2023.2.3,Win32,40,,,,,,,,,,,3,14,1,4,,,,,,,,,,,,,,,,,,,,,,,,,,,,,
632100c39d4c93aa71d32feb,SCN,2024-06-24_16h32.43.054,LearnStrategy,2023.2.3,Win32,40,,,,,,,,,,,4,03,1,5,,,,,,,,,,,,,,,,,,,,,,,,,,,,,
632100c39d4c93aa71d32feb,SCN,2024-06-24_16h32.43.054,LearnStrategy,2023.2.3,Win32,40,,,,,,,,,,,8,03,1,6,,,,,,,,,,,,,,,,,,,,,,,,,,,,,
632100c39d4c93aa71d32feb,SCN,2024-06-24_16h32.43.054,LearnStrategy,2023.2.3,Win32,40,,,,,,,,,,,5,04,1,7,,,,,,,,,,,,,,,,,,,,,,,,,,,,,
632100c39d4c93aa71d32feb,SCN,2024-06-24_16h32.43.054,LearnStrategy,2023.2.3,Win32,40,,,,,,,,,,,2,16,1,8,,,,,,,,,,,,,,,,,,,,,,,,,,,,,
632100c39d4c93aa71d32feb,SCN,2024-06-24_16h32.43.054,LearnStrategy,2023.2.3,Win32,40,,,,,,,,,,,3,09,2,1,,,,,,,,,,,,,,,,,,,,,,,,,,,,,
632100c39d4c93aa71d32feb,SCN,2024-06-24_16h32.43.054,LearnStrategy,2023.2.3,Win32,40,,,,,,,,,,,6,05,2,2,,,,,,,,,,,,,,,,,,,,,,,,,,,,,
632100c39d4c93aa71d32feb,SCN,2024-06-24_16h32.43.054,LearnStrategy,2023.2.3,Win32,40,,,,,,,,,,,6,11,2,3,,,,,,,,,,,,,,,,,,,,,,,,,,,,,
632100c39d4c93aa71d32feb,SCN,2024-06-24_16h32.43.054,LearnStrategy,2023.2.3,Win32,40,,,,,,,,,,,3,16,2,4,,,,,,,,,,,,,,,,,,,,,,,,,,,,,
632100c39d4c93aa71d32feb,SCN,2024-06-24_16h32.43.054,LearnStrategy,2023.2.3,Win32,40,,,,,,,,,,,6,15,2,5,,,,,,,,,,,,,,,,,,,,,,,,,,,,,
632100c39d4c93aa71d32feb,SCN,2024-06-24_16h32.43.054,LearnStrategy,2023.2.3,Win32,40,,,,,,,,,,,7,14,2,6,,,,,,,,,,,,,,,,,,,,,,,,,,,,,
632100c39d4c93aa71d32feb,SCN,2024-06-24_16h32.43.054,LearnStrategy,2023.2.3,Win32,40,,,,,,,,,,,6,16,2,7,,,,,,,,,,,,,,,,,,,,,,,,,,,,,
632100c39d4c93aa71d32feb,SCN,2024-06-24_16h32.43.054,LearnStrategy,2023.2.3,Win32,40,,,,,,,,,,,7,12,2,8,,,,,,,,,,,,,,,,,,,,,,,,,,,,,
632100c39d4c93aa71d32feb,SCN,2024-06-24_16h32.43.054,LearnStrategy,2023.2.3,Win32,40,,,,,,,,,,,4,08,3,1,,,,,,,,,,,,,,,,,,,,,,,,,,,,,
632100c39d4c93aa71d32feb,SCN,2024-06-24_16h32.43.054,LearnStrategy,2023.2.3,Win32,40,,,,,,,,,,,1,11,3,2,,,,,,,,,,,,,,,,,,,,,,,,,,,,,
632100c39d4c93aa71d32feb,SCN,2024-06-24_16h32.43.054,LearnStrategy,2023.2.3,Win32,40,,,,,,,,,,,2,02,3,3,,,,,,,,,,,,,,,,,,,,,,,,,,,,,
632100c39d4c93aa71d32feb,SCN,2024-06-24_16h32.43.054,LearnStrategy,2023.2.3,Win32,40,,,,,,,,,,,2,06,3,4,,,,,,,,,,,,,,,,,,,,,,,,,,,,,
632100c39d4c93aa71d32feb,SCN,2024-06-24_16h32.43.054,LearnStrategy,2023.2.3,Win32,40,,,,,,,,,,,5,12,3,5,,,,,,,,,,,,,,,,,,,,,,,,,,,,,
632100c39d4c93aa71d32feb,SCN,2024-06-24_16h32.43.054,LearnStrategy,2023.2.3,Win32,40,,,,,,,,,,,5,06,3,6,,,,,,,,,,,,,,,,,,,,,,,,,,,,,
632100c39d4c93aa71d32feb,SCN,2024-06-24_16h32.43.054,LearnStrategy,2023.2.3,Win32,40,,,,,,,,,,,8,08,3,7,,,,,,,,,,,,,,,,,,,,,,,,,,,,,
632100c39d4c93aa71d32feb,SCN,2024-06-24_16h32.43.054,LearnStrategy,2023.2.3,Win32,40,,,,,,,,,,,6,06,3,8,,,,,,,,,,,,,,,,,,,,,,,,,,,,,
632100c39d4c93aa71d32feb,SCN,2024-06-24_16h32.43.054,LearnStrategy,2023.2.3,Win32,40,,,,,,,,,,,2,01,4,1,,,,,,,,,,,,,,,,,,,,,,,,,,,,,
632100c39d4c93aa71d32feb,SCN,2024-06-24_16h32.43.054,LearnStrategy,2023.2.3,Win32,40,,,,,,,,,,,1,16,4,2,,,,,,,,,,,,,,,,,,,,,,,,,,,,,
632100c39d4c93aa71d32feb,SCN,2024-06-24_16h32.43.054,LearnStrategy,2023.2.3,Win32,40,,,,,,,,,,,5,02,4,3,,,,,,,,,,,,,,,,,,,,,,,,,,,,,
632100c39d4c93aa71d32feb,SCN,2024-06-24_16h32.43.054,LearnStrategy,2023.2.3,Win32,40,,,,,,,,,,,1,07,4,4,,,,,,,,,,,,,,,,,,,,,,,,,,,,,
632100c39d4c93aa71d32feb,SCN,2024-06-24_16h32.43.054,LearnStrategy,2023.2.3,Win32,40,,,,,,,,,,,8,13,4,5,,,,,,,,,,,,,,,,,,,,,,,,,,,,,
632100c39d4c93aa71d32feb,SCN,2024-06-24_16h32.43.054,LearnStrategy,2023.2.3,Win32,40,,,,,,,,,,,3,06,4,6,,,,,,,,,,,,,,,,,,,,,,,,,,,,,
632100c39d4c93aa71d32feb,SCN,2024-06-24_16h32.43.054,LearnStrategy,2023.2.3,Win32,40,,,,,,,,,,,4,01,4,7,,,,,,,,,,,,,,,,,,,,,,,,,,,,,
632100c39d4c93aa71d32feb,SCN,2024-06-24_16h32.43.054,LearnStrategy,2023.2.3,Win32,40,,,,,,,,,,,4,13,4,8,,,,,,,,,,,,,,,,,,,,,,,,,,,,,
632100c39d4c93aa71d32feb,SCN,2024-06-24_16h32.43.054,LearnStrategy,2023.2.3,Win32,40,,,,,,,,,,,5,16,5,1,,,,,,,,,,,,,,,,,,,,,,,,,,,,,
632100c39d4c93aa71d32feb,SCN,2024-06-24_16h32.43.054,LearnStrategy,2023.2.3,Win32,40,,,,,,,,,,,2,05,5,2,,,,,,,,,,,,,,,,,,,,,,,,,,,,,
632100c39d4c93aa71d32feb,SCN,2024-06-24_16h32.43.054,LearnStrategy,2023.2.3,Win32,40,,,,,,,,,,,8,10,5,3,,,,,,,,,,,,,,,,,,,,,,,,,,,,,
632100c39d4c93aa71d32feb,SCN,2024-06-24_16h32.43.054,LearnStrategy,2023.2.3,Win32,40,,,,,,,,,,,4,09,5,4,,,,,,,,,,,,,,,,,,,,,,,,,,,,,
632100c39d4c93aa71d32feb,SCN,2024-06-24_16h32.43.054,LearnStrategy,2023.2.3,Win32,40,,,,,,,,,,,1,06,5,5,,,,,,,,,,,,,,,,,,,,,,,,,,,,,
632100c39d4c93aa71d32feb,SCN,2024-06-24_16h32.43.054,LearnStrategy,2023.2.3,Win32,40,,,,,,,,,,,7,07,5,6,,,,,,,,,,,,,,,,,,,,,,,,,,,,,
632100c39d4c93aa71d32feb,SCN,2024-06-24_16h32.43.054,LearnStrategy,2023.2.3,Win32,40,,,,,,,,,,,5,11,5,7,,,,,,,,,,,,,,,,,,,,,,,,,,,,,
632100c39d4c93aa71d32feb,SCN,2024-06-24_16h32.43.054,LearnStrategy,2023.2.3,Win32,40,,,,,,,,,,,1,09,5,8,,,,,,,,,,,,,,,,,,,,,,,,,,,,,
632100c39d4c93aa71d32feb,SCN,2024-06-24_16h32.43.054,LearnStrategy,2023.2.3,Win32,40,,,,,,,,,,,4,15,6,1,,,,,,,,,,,,,,,,,,,,,,,,,,,,,
632100c39d4c93aa71d32feb,SCN,2024-06-24_16h32.43.054,LearnStrategy,2023.2.3,Win32,40,,,,,,,,,,,8,06,6,2,,,,,,,,,,,,,,,,,,,,,,,,,,,,,
632100c39d4c93aa71d32feb,SCN,2024-06-24_16h32.43.054,LearnStrategy,2023.2.3,Win32,40,,,,,,,,,,,8,05,6,3,,,,,,,,,,,,,,,,,,,,,,,,,,,,,
632100c39d4c93aa71d32feb,SCN,2024-06-24_16h32.43.054,LearnStrategy,2023.2.3,Win32,40,,,,,,,,,,,2,08,6,4,,,,,,,,,,,,,,,,,,,,,,,,,,,,,
632100c39d4c93aa71d32feb,SCN,2024-06-24_16h32.43.054,LearnStrategy,2023.2.3,Win32,40,,,,,,,,,,,1,04,6,5,,,,,,,,,,,,,,,,,,,,,,,,,,,,,
632100c39d4c93aa71d32feb,SCN,2024-06-24_16h32.43.054,LearnStrategy,2023.2.3,Win32,40,,,,,,,,,,,7,02,6,6,,,,,,,,,,,,,,,,,,,,,,,,,,,,,
632100c39d4c93aa71d32feb,SCN,2024-06-24_16h32.43.054,LearnStrategy,2023.2.3,Win32,40,,,,,,,,,,,3,13,6,7,,,,,,,,,,,,,,,,,,,,,,,,,,,,,
632100c39d4c93aa71d32feb,SCN,2024-06-24_16h32.43.054,LearnStrategy,2023.2.3,Win32,40,,,,,,,,,,,7,16,6,8,,,,,,,,,,,,,,,,,,,,,,,,,,,,,