participant,condition,date,expName,psychopyVersion,OS,frameRate,block,phase,trial,learn_mouse_2.x,learn_mouse_2.y,learn_mouse_2.leftButton,learn_mouse_2.midButton,learn_mouse_2.rightButton,learn_mouse_2.time,learn_mouse_2.clicked_name,cat,token,row,col,t_select,cat_mouse_l.x,cat_mouse_l.y,cat_mouse_l.leftButton,cat_mouse_l.midButton,cat_mouse_l.rightButton,cat_mouse_l.time,cat_mouse_l.clicked_name,resp,t_resp,corr,train_trials.thisRepN,train_trials.thisTrialN,train_trials.thisN,train_trials.thisIndex,train_trials.ran,cat_mouse_t.x,cat_mouse_t.y,cat_mouse_t.leftButton,cat_mouse_t.midButton,cat_mouse_t.rightButton,cat_mouse_t.time,cat_mouse_t.clicked_name,test_trials.thisRepN,test_trials.thisTrialN,test_trials.thisN,test_trials.thisIndex,test_trials.ran,Bonus
632b947efa9da6a9bde31f94,TCN,2024-06-25_12h40.27.433,LearnStrategy,2023.2.3,Win32,60.24096386,,,,,,,,,,,,,,,,,,,,,,,,,,,,,,,,,,,,,,,,,,,
632b947efa9da6a9bde31f94,TCN,2024-06-25_12h40.27.433,LearnStrategy,2023.2.3,Win32,60.24096386,1,1,1,0.013888889,0.000925926,1,0,0,3.3614,rock_grid_rect_2,8,09,-1,-1,3.361,-0.35,-0.252777778,1,0,0,4.0432,Andesite_rect,1,4.043,0,0,0,0,0,1,,,,,,,,,,,,,
632b947efa9da6a9bde31f94,TCN,2024-06-25_12h40.27.433,LearnStrategy,2023.2.3,Win32,60.24096386,1,1,2,-0.001851852,-0.012037037,1,0,0,1.6861,rock_grid_rect_2,4,16,-1,-1,1.686,0.096296296,-0.256481481,1,0,0,2.9015,Diorite_rect,3,2.901,0,1,0,1,0,1,,,,,,,,,,,,,
632b947efa9da6a9bde31f94,TCN,2024-06-25_12h40.27.433,LearnStrategy,2023.2.3,Win32,60.24096386,1,1,3,0.068518519,-0.009259259,1,0,0,1.6242,rock_grid_rect_2,1,01,-1,-1,1.624,-0.32962963,-0.240740741,1,0,0,8.604,Andesite_rect,1,8.604,1,2,0,2,0,1,,,,,,,,,,,,,
632b947efa9da6a9bde31f94,TCN,2024-06-25_12h40.27.433,LearnStrategy,2023.2.3,Win32,60.24096386,1,1,4,0.000925926,-0.012037037,1,0,0,1.65,rock_grid_rect_2,5,16,-1,-1,1.65,0.389814815,-0.410185185,1,0,0,1.5463,Pumice_rect,8,1.546,0,3,0,3,0,1,,,,,,,,,,,,,
632b947efa9da6a9bde31f94,TCN,2024-06-25_12h40.27.433,LearnStrategy,2023.2.3,Win32,60.24096386,1,1,5,0.037037037,-0.003703704,1,0,0,1.3189,rock_grid_rect_2,4,14,-1,-1,1.319,0.061111111,-0.398148148,1,0,0,2.9513,Peridotite_rect,7,2.951,0,4,0,4,0,1,,,,,,,,,,,,,
632b947efa9da6a9bde31f94,TCN,2024-06-25_12h40.27.433,LearnStrategy,2023.2.3,Win32,60.24096386,1,1,6,-0.137037037,0.003703704,1,0,0,1.3612,rock_grid_rect_2,5,05,-1,-1,1.361,-0.45462963,-0.249074074,1,0,0,4.2459,Andesite_rect,1,4.246,0,5,0,5,0,1,,,,,,,,,,,,,
632b947efa9da6a9bde31f94,TCN,2024-06-25_12h40.27.433,LearnStrategy,2023.2.3,Win32,60.24096386,1,1,7,0.062037037,-0.001851852,1,0,0,1.3415,rock_grid_rect_2,7,07,-1,-1,1.341,0.106481481,-0.244444444,1,0,0,2.8328,Diorite_rect,3,2.833,0,6,0,6,0,1,,,,,,,,,,,,,
632b947efa9da6a9bde31f94,TCN,2024-06-25_12h40.27.433,LearnStrategy,2023.2.3,Win32,60.24096386,1,1,8,0.07037037,-0.006481481,1,0,0,1.8765,rock_grid_rect_2,6,15,-1,-1,1.877,0.385185185,-0.412037037,1,0,0,4.1144,Pumice_rect,8,4.114,0,7,0,7,0,1,,,,,,,,,,,,,
632b947efa9da6a9bde31f94,TCN,2024-06-25_12h40.27.433,LearnStrategy,2023.2.3,Win32,60.24096386,1,1,9,0.023148148,-0.00462963,1,0,0,1.3898,rock_grid_rect_2,2,08,-1,-1,1.39,-0.209259259,-0.250925926,1,0,0,2.6301,Basalt_rect,2,2.63,1,8,0,8,0,1,,,,,,,,,,,,,
632b947efa9da6a9bde31f94,TCN,2024-06-25_12h40.27.433,LearnStrategy,2023.2.3,Win32,60.24096386,1,1,10,0.105555556,-0.010185185,1,0,0,1.389,rock_grid_rect_2,3,08,-1,-1,1.389,-0.340740741,-0.238888889,1,0,0,1.7478,Andesite_rect,1,1.748,0,9,0,9,0,1,,,,,,,,,,,,,
632b947efa9da6a9bde31f94,TCN,2024-06-25_12h40.27.433,LearnStrategy,2023.2.3,Win32,60.24096386,1,1,11,0.003703704,-0.00462963,1,0,0,2.1829,rock_grid_rect_2,6,08,-1,-1,2.183,-0.135185185,-0.394444444,1,0,0,1.2729,Pegmatite_rect,6,1.273,1,10,0,10,0,1,,,,,,,,,,,,,
632b947efa9da6a9bde31f94,TCN,2024-06-25_12h40.27.433,LearnStrategy,2023.2.3,Win32,60.24096386,1,1,12,0.109259259,0.007407407,1,0,0,1.0371,rock_grid_rect_2,3,10,-1,-1,1.037,0.385185185,-0.258333333,1,0,0,0.9385,Gabbro_rect,4,0.938,0,11,0,11,0,1,,,,,,,,,,,,,
632b947efa9da6a9bde31f94,TCN,2024-06-25_12h40.27.433,LearnStrategy,2023.2.3,Win32,60.24096386,1,1,13,0.057407407,-0.006481481,1,0,0,1.1453,rock_grid_rect_2,2,01,-1,-1,1.145,-0.231481481,-0.403703704,1,0,0,1.6294,Pegmatite_rect,6,1.629,0,12,0,12,0,1,,,,,,,,,,,,,
632b947efa9da6a9bde31f94,TCN,2024-06-25_12h40.27.433,LearnStrategy,2023.2.3,Win32,60.24096386,1,1,14,0.039814815,-0.019444444,1,0,0,1.1134,rock_grid_rect_2,8,03,-1,-1,1.113,0.396296296,-0.24537037,1,0,0,0.9289,Gabbro_rect,4,0.929,0,13,0,13,0,1,,,,,,,,,,,,,
632b947efa9da6a9bde31f94,TCN,2024-06-25_12h40.27.433,LearnStrategy,2023.2.3,Win32,60.24096386,1,1,15,0.039814815,0.001851852,1,0,0,1.1719,rock_grid_rect_2,1,09,-1,-1,1.172,-0.107407407,-0.409259259,1,0,0,1.6909,Pegmatite_rect,6,1.691,0,14,0,14,0,1,,,,,,,,,,,,,
632b947efa9da6a9bde31f94,TCN,2024-06-25_12h40.27.433,LearnStrategy,2023.2.3,Win32,60.24096386,1,1,16,0.14537037,0.001851852,1,0,0,1.4925,rock_grid_rect_2,7,14,-1,-1,1.493,0.175925926,-0.407407407,1,0,0,1.0859,Peridotite_rect,7,1.086,1,15,0,15,0,1,,,,,,,,,,,,,
632b947efa9da6a9bde31f94,TCN,2024-06-25_12h40.27.433,LearnStrategy,2023.2.3,Win32,60.24096386,1,2,1,,,,,,,,5,11,,,,,,,,,,,5,16.719,1,,,,,,-0.361111111,-0.39537037,1,0,0,16.7187,Obsidian_rect,0,0,0,0,1,
632b947efa9da6a9bde31f94,TCN,2024-06-25_12h40.27.433,LearnStrategy,2023.2.3,Win32,60.24096386,1,2,2,,,,,,,,6,05,,,,,,,,,,,6,44.136,1,,,,,,-0.111111111,-0.405555556,1,0,0,44.1363,Pegmatite_rect,1,0,1,0,1,
632b947efa9da6a9bde31f94,TCN,2024-06-25_12h40.27.433,LearnStrategy,2023.2.3,Win32,60.24096386,1,2,3,,,,,,,,4,01,,,,,,,,,,,3,13.492,0,,,,,,0.153703704,-0.248148148,1,0,0,13.4924,Diorite_rect,2,0,2,0,1,
632b947efa9da6a9bde31f94,TCN,2024-06-25_12h40.27.433,LearnStrategy,2023.2.3,Win32,60.24096386,1,2,4,,,,,,,,8,14,,,,,,,,,,,8,8.13,1,,,,,,0.414814815,-0.397222222,1,0,0,8.1305,Pumice_rect,3,0,3,0,1,
632b947efa9da6a9bde31f94,TCN,2024-06-25_12h40.27.433,LearnStrategy,2023.2.3,Win32,60.24096386,1,2,5,,,,,,,,7,04,,,,,,,,,,,7,35.673,1,,,,,,0.092592593,-0.406481481,1,0,0,35.6727,Peridotite_rect,4,0,4,0,1,
632b947efa9da6a9bde31f94,TCN,2024-06-25_12h40.27.433,LearnStrategy,2023.2.3,Win32,60.24096386,1,2,6,,,,,,,,4,15,,,,,,,,,,,4,30.854,1,,,,,,0.37962963,-0.252777778,1,0,0,30.8539,Gabbro_rect,5,0,5,0,1,
632b947efa9da6a9bde31f94,TCN,2024-06-25_12h40.27.433,LearnStrategy,2023.2.3,Win32,60.24096386,1,2,7,,,,,,,,3,14,,,,,,,,,,,3,18.849,1,,,,,,0.130555556,-0.256481481,1,0,0,18.8492,Diorite_rect,6,0,6,0,1,
632b947efa9da6a9bde31f94,TCN,2024-06-25_12h40.27.433,LearnStrategy,2023.2.3,Win32,60.24096386,1,2,8,,,,,,,,3,09,,,,,,,,,,,3,11.413,1,,,,,,0.128703704,-0.243518519,1,0,0,11.4129,Diorite_rect,7,0,7,0,1,
632b947efa9da6a9bde31f94,TCN,2024-06-25_12h40.27.433,LearnStrategy,2023.2.3,Win32,60.24096386,1,2,9,,,,,,,,2,09,,,,,,,,,,,2,4.458,1,,,,,,-0.155555556,-0.251851852,1,0,0,4.4578,Basalt_rect,8,0,8,0,1,
632b947efa9da6a9bde31f94,TCN,2024-06-25_12h40.27.433,LearnStrategy,2023.2.3,Win32,60.24096386,1,2,10,,,,,,,,2,10,,,,,,,,,,,4,16.154,0,,,,,,0.403703704,-0.25,1,0,0,16.1536,Gabbro_rect,9,0,9,0,1,
632b947efa9da6a9bde31f94,TCN,2024-06-25_12h40.27.433,LearnStrategy,2023.2.3,Win32,60.24096386,1,2,11,,,,,,,,6,12,,,,,,,,,,,6,23.357,1,,,,,,-0.135185185,-0.387037037,1,0,0,23.3575,Pegmatite_rect,10,0,10,0,1,
632b947efa9da6a9bde31f94,TCN,2024-06-25_12h40.27.433,LearnStrategy,2023.2.3,Win32,60.24096386,1,2,12,,,,,,,,8,08,,,,,,,,,,,7,66.699,0,,,,,,0.133333333,-0.386111111,1,0,0,66.6991,Peridotite_rect,11,0,11,0,1,
632b947efa9da6a9bde31f94,TCN,2024-06-25_12h40.27.433,LearnStrategy,2023.2.3,Win32,60.24096386,1,2,13,,,,,,,,7,05,,,,,,,,,,,2,3.333,0,,,,,,-0.071296296,-0.239814815,1,0,0,3.3334,Basalt_rect,12,0,12,0,1,
632b947efa9da6a9bde31f94,TCN,2024-06-25_12h40.27.433,LearnStrategy,2023.2.3,Win32,60.24096386,1,2,14,,,,,,,,1,06,,,,,,,,,,,3,1.73,0,,,,,,0.152777778,-0.247222222,1,0,0,1.7301,Diorite_rect,13,0,13,0,1,
632b947efa9da6a9bde31f94,TCN,2024-06-25_12h40.27.433,LearnStrategy,2023.2.3,Win32,60.24096386,1,2,15,,,,,,,,1,03,,,,,,,,,,,6,0.913,0,,,,,,-0.094444444,-0.418518519,1,0,0,0.9128,Pegmatite_rect,14,0,14,0,1,
632b947efa9da6a9bde31f94,TCN,2024-06-25_12h40.27.433,LearnStrategy,2023.2.3,Win32,60.24096386,1,2,16,,,,,,,,5,04,,,,,,,,,,,5,7.316,1,,,,,,-0.351851852,-0.403703704,1,0,0,7.3162,Obsidian_rect,15,0,15,0,1,
632b947efa9da6a9bde31f94,TCN,2024-06-25_12h40.27.433,LearnStrategy,2023.2.3,Win32,60.24096386,2,1,1,-0.026851852,-0.023148148,1,0,0,4.451,rock_grid_rect_2,1,16,-1,-1,4.451,0.180555556,-0.400925926,1,0,0,27.3011,Peridotite_rect,7,27.301,0,0,0,0,0,1,,,,,,,,,,,,,
632b947efa9da6a9bde31f94,TCN,2024-06-25_12h40.27.433,LearnStrategy,2023.2.3,Win32,60.24096386,2,1,2,-0.012037037,0.00462963,1,0,0,1.8696,rock_grid_rect_2,6,13,-1,-1,1.87,-0.343518519,-0.261111111,1,0,0,24.7643,Andesite_rect,1,24.764,0,1,0,1,0,1,,,,,,,,,,,,,
632b947efa9da6a9bde31f94,TCN,2024-06-25_12h40.27.433,LearnStrategy,2023.2.3,Win32,60.24096386,2,1,3,0.087037037,0.002777778,1,0,0,1.1454,rock_grid_rect_2,4,10,-1,-1,1.145,0.112037037,-0.25,1,0,0,0.5832,Diorite_rect,3,0.583,0,2,0,2,0,1,,,,,,,,,,,,,
632b947efa9da6a9bde31f94,TCN,2024-06-25_12h40.27.433,LearnStrategy,2023.2.3,Win32,60.24096386,2,1,4,-0.176851852,-0.017592593,1,0,0,1.2968,rock_grid_rect_2,3,12,-1,-1,1.297,-0.32962963,-0.249074074,1,0,0,1.0117,Andesite_rect,1,1.012,0,3,0,3,0,1,,,,,,,,,,,,,
632b947efa9da6a9bde31f94,TCN,2024-06-25_12h40.27.433,LearnStrategy,2023.2.3,Win32,60.24096386,2,1,5,0.102777778,-0.019444444,1,0,0,1.3341,rock_grid_rect_2,7,12,-1,-1,1.334,0.387037037,-0.249074074,1,0,0,0.7637,Gabbro_rect,4,0.764,0,4,0,4,0,1,,,,,,,,,,,,,
632b947efa9da6a9bde31f94,TCN,2024-06-25_12h40.27.433,LearnStrategy,2023.2.3,Win32,60.24096386,2,1,6,0.053703704,0.001851852,1,0,0,1.4763,rock_grid_rect_2,5,14,-1,-1,1.476,-0.133333333,-0.412962963,1,0,0,1.2169,Pegmatite_rect,6,1.217,0,5,0,5,0,1,,,,,,,,,,,,,
632b947efa9da6a9bde31f94,TCN,2024-06-25_12h40.27.433,LearnStrategy,2023.2.3,Win32,60.24096386,2,1,7,0.085185185,-0.000925926,1,0,0,0.9101,rock_grid_rect_2,3,11,-1,-1,0.91,0.374074074,-0.250925926,1,0,0,1.224,Gabbro_rect,4,1.224,0,6,0,6,0,1,,,,,,,,,,,,,
632b947efa9da6a9bde31f94,TCN,2024-06-25_12h40.27.433,LearnStrategy,2023.2.3,Win32,60.24096386,2,1,8,-0.046296296,-0.017592593,1,0,0,0.9018,rock_grid_rect_2,8,13,-1,-1,0.902,-0.199074074,-0.259259259,1,0,0,0.7911,Basalt_rect,2,0.791,0,7,0,7,0,1,,,,,,,,,,,,,
632b947efa9da6a9bde31f94,TCN,2024-06-25_12h40.27.433,LearnStrategy,2023.2.3,Win32,60.24096386,2,1,9,-0.062037037,-0.017592593,1,0,0,1.344,rock_grid_rect_2,2,11,-1,-1,1.344,-0.316666667,-0.401851852,1,0,0,1.0727,Obsidian_rect,5,1.073,0,8,0,8,0,1,,,,,,,,,,,,,
632b947efa9da6a9bde31f94,TCN,2024-06-25_12h40.27.433,LearnStrategy,2023.2.3,Win32,60.24096386,2,1,10,0.093518519,-0.006481481,1,0,0,0.8709,rock_grid_rect_2,4,05,-1,-1,0.871,0.123148148,-0.268518519,1,0,0,0.9029,Diorite_rect,3,0.903,0,9,0,9,0,1,,,,,,,,,,,,,
632b947efa9da6a9bde31f94,TCN,2024-06-25_12h40.27.433,LearnStrategy,2023.2.3,Win32,60.24096386,2,1,11,0.119444444,-0.003703704,1,0,0,1.0928,rock_grid_rect_2,1,04,-1,-1,1.093,-0.166666667,-0.253703704,1,0,0,0.802,Basalt_rect,2,0.802,0,10,0,10,0,1,,,,,,,,,,,,,
632b947efa9da6a9bde31f94,TCN,2024-06-25_12h40.27.433,LearnStrategy,2023.2.3,Win32,60.24096386,2,1,12,0.077777778,-0.002777778,1,0,0,0.902,rock_grid_rect_2,2,02,-1,-1,0.902,0.326851852,-0.25462963,1,0,0,0.6399,Gabbro_rect,4,0.64,0,11,0,11,0,1,,,,,,,,,,,,,
632b947efa9da6a9bde31f94,TCN,2024-06-25_12h40.27.433,LearnStrategy,2023.2.3,Win32,60.24096386,2,1,13,0.059259259,-0.006481481,1,0,0,1.0694,rock_grid_rect_2,8,15,-1,-1,1.069,0.087037037,-0.407407407,1,0,0,0.6776,Peridotite_rect,7,0.678,0,12,0,12,0,1,,,,,,,,,,,,,
632b947efa9da6a9bde31f94,TCN,2024-06-25_12h40.27.433,LearnStrategy,2023.2.3,Win32,60.24096386,2,1,14,-0.018518519,0.012962963,1,0,0,0.895,rock_grid_rect_2,5,07,-1,-1,0.895,-0.165740741,-0.27037037,1,0,0,0.7711,Basalt_rect,2,0.771,0,13,0,13,0,1,,,,,,,,,,,,,
632b947efa9da6a9bde31f94,TCN,2024-06-25_12h40.27.433,LearnStrategy,2023.2.3,Win32,60.24096386,2,1,15,0.035185185,-0.009259259,1,0,0,1.1427,rock_grid_rect_2,6,09,-1,-1,1.143,-0.102777778,-0.398148148,1,0,0,0.9445,Pegmatite_rect,6,0.945,1,14,0,14,0,1,,,,,,,,,,,,,
632b947efa9da6a9bde31f94,TCN,2024-06-25_12h40.27.433,LearnStrategy,2023.2.3,Win32,60.24096386,2,1,16,0.15,0.002777778,1,0,0,1.1177,rock_grid_rect_2,7,10,-1,-1,1.118,0.392592593,-0.248148148,1,0,0,1.1512,Gabbro_rect,4,1.151,0,15,0,15,0,1,,,,,,,,,,,,,
632b947efa9da6a9bde31f94,TCN,2024-06-25_12h40.27.433,LearnStrategy,2023.2.3,Win32,60.24096386,2,2,1,,,,,,,,1,11,,,,,,,,,,,2,1.72,0,,,,,,-0.126851852,-0.242592593,1,0,0,1.7202,Basalt_rect,0,0,0,0,1,
632b947efa9da6a9bde31f94,TCN,2024-06-25_12h40.27.433,LearnStrategy,2023.2.3,Win32,60.24096386,2,2,2,,,,,,,,3,16,,,,,,,,,,,3,0.642,1,,,,,,0.153703704,-0.259259259,1,0,0,0.6425,Diorite_rect,1,0,1,0,1,
632b947efa9da6a9bde31f94,TCN,2024-06-25_12h40.27.433,LearnStrategy,2023.2.3,Win32,60.24096386,2,2,3,,,,,,,,6,10,,,,,,,,,,,8,0.639,0,,,,,,0.314814815,-0.392592593,1,0,0,0.6388,Pumice_rect,2,0,2,0,1,
632b947efa9da6a9bde31f94,TCN,2024-06-25_12h40.27.433,LearnStrategy,2023.2.3,Win32,60.24096386,2,2,4,,,,,,,,7,16,,,,,,,,,,,6,0.515,0,,,,,,-0.087962963,-0.401851852,1,0,0,0.5151,Pegmatite_rect,3,0,3,0,1,
632b947efa9da6a9bde31f94,TCN,2024-06-25_12h40.27.433,LearnStrategy,2023.2.3,Win32,60.24096386,2,2,5,,,,,,,,5,02,,,,,,,,,,,3,0.503,0,,,,,,0.12962963,-0.263888889,1,0,0,0.503,Diorite_rect,4,0,4,0,1,
632b947efa9da6a9bde31f94,TCN,2024-06-25_12h40.27.433,LearnStrategy,2023.2.3,Win32,60.24096386,2,2,6,,,,,,,,8,02,,,,,,,,,,,1,0.668,0,,,,,,-0.333333333,-0.262037037,1,0,0,0.6678,Andesite_rect,5,0,5,0,1,
632b947efa9da6a9bde31f94,TCN,2024-06-25_12h40.27.433,LearnStrategy,2023.2.3,Win32,60.24096386,2,2,7,,,,,,,,3,02,,,,,,,,,,,6,0.376,0,,,,,,-0.205555556,-0.385185185,1,0,0,0.376,Pegmatite_rect,6,0,6,0,1,
632b947efa9da6a9bde31f94,TCN,2024-06-25_12h40.27.433,LearnStrategy,2023.2.3,Win32,60.24096386,2,2,8,,,,,,,,1,05,,,,,,,,,,,5,0.319,0,,,,,,-0.35,-0.409259259,1,0,0,0.319,Obsidian_rect,7,0,7,0,1,
632b947efa9da6a9bde31f94,TCN,2024-06-25_12h40.27.433,LearnStrategy,2023.2.3,Win32,60.24096386,2,2,9,,,,,,,,7,15,,,,,,,,,,,3,0.486,0,,,,,,0.124074074,-0.248148148,1,0,0,0.486,Diorite_rect,8,0,8,0,1,
632b947efa9da6a9bde31f94,TCN,2024-06-25_12h40.27.433,LearnStrategy,2023.2.3,Win32,60.24096386,2,2,10,,,,,,,,4,11,,,,,,,,,,,4,0.564,1,,,,,,0.356481481,-0.259259259,1,0,0,0.5639,Gabbro_rect,9,0,9,0,1,
632b947efa9da6a9bde31f94,TCN,2024-06-25_12h40.27.433,LearnStrategy,2023.2.3,Win32,60.24096386,2,2,11,,,,,,,,6,07,,,,,,,,,,,7,0.812,0,,,,,,0.087037037,-0.400925926,1,0,0,0.812,Peridotite_rect,10,0,10,0,1,
632b947efa9da6a9bde31f94,TCN,2024-06-25_12h40.27.433,LearnStrategy,2023.2.3,Win32,60.24096386,2,2,12,,,,,,,,2,12,,,,,,,,,,,6,0.367,0,,,,,,-0.124074074,-0.392592593,1,0,0,0.3674,Pegmatite_rect,11,0,11,0,1,
632b947efa9da6a9bde31f94,TCN,2024-06-25_12h40.27.433,LearnStrategy,2023.2.3,Win32,60.24096386,2,2,13,,,,,,,,4,13,,,,,,,,,,,2,0.81,0,,,,,,-0.138888889,-0.264814815,1,0,0,0.8099,Basalt_rect,12,0,12,0,1,
632b947efa9da6a9bde31f94,TCN,2024-06-25_12h40.27.433,LearnStrategy,2023.2.3,Win32,60.24096386,2,2,14,,,,,,,,2,05,,,,,,,,,,,7,2.392,0,,,,,,0.201851852,-0.384259259,1,0,0,2.3919,Peridotite_rect,13,0,13,0,1,
632b947efa9da6a9bde31f94,TCN,2024-06-25_12h40.27.433,LearnStrategy,2023.2.3,Win32,60.24096386,2,2,15,,,,,,,,5,10,,,,,,,,,,,4,0.392,0,,,,,,0.350925926,-0.241666667,1,0,0,0.3923,Gabbro_rect,14,0,14,0,1,
632b947efa9da6a9bde31f94,TCN,2024-06-25_12h40.27.433,LearnStrategy,2023.2.3,Win32,60.24096386,2,2,16,,,,,,,,8,06,,,,,,,,,,,2,0.604,0,,,,,,-0.1,-0.255555556,1,0,0,0.6043,Basalt_rect,15,0,15,0,1,
632b947efa9da6a9bde31f94,TCN,2024-06-25_12h40.27.433,LearnStrategy,2023.2.3,Win32,60.24096386,3,1,1,0.077777778,-0.023148148,1,0,0,1.3747,rock_grid_rect_2,5,12,-1,-1,1.375,0.081481481,-0.235185185,1,0,0,1.0484,Diorite_rect,3,1.048,0,0,0,0,0,1,,,,,,,,,,,,,
632b947efa9da6a9bde31f94,TCN,2024-06-25_12h40.27.433,LearnStrategy,2023.2.3,Win32,60.24096386,3,1,2,-0.087037037,0,1,0,0,1.4613,rock_grid_rect_2,1,10,-1,-1,1.461,-0.312962963,-0.243518519,1,0,0,0.7798,Andesite_rect,1,0.78,1,1,0,1,0,1,,,,,,,,,,,,,
632b947efa9da6a9bde31f94,TCN,2024-06-25_12h40.27.433,LearnStrategy,2023.2.3,Win32,60.24096386,3,1,3,0.112962963,-0.008333333,1,0,0,0.984,rock_grid_rect_2,2,14,-1,-1,0.984,0.078703704,-0.25,1,0,0,134.1446,Diorite_rect,3,134.145,0,2,0,2,0,1,,,,,,,,,,,,,
632b947efa9da6a9bde31f94,TCN,2024-06-25_12h40.27.433,LearnStrategy,2023.2.3,Win32,60.24096386,3,1,4,0.131481481,-0.000925926,1,0,0,1.5254,rock_grid_rect_2,6,11,-1,-1,1.525,0.346296296,-0.243518519,1,0,0,1.5458,Gabbro_rect,4,1.546,0,3,0,3,0,1,,,,,,,,,,,,,
632b947efa9da6a9bde31f94,TCN,2024-06-25_12h40.27.433,LearnStrategy,2023.2.3,Win32,60.24096386,3,1,5,-0.082407407,-0.02037037,1,0,0,1.0841,rock_grid_rect_2,3,07,-1,-1,1.084,-0.141666667,-0.260185185,1,0,0,0.6391,Basalt_rect,2,0.639,0,4,0,4,0,1,,,,,,,,,,,,,
632b947efa9da6a9bde31f94,TCN,2024-06-25_12h40.27.433,LearnStrategy,2023.2.3,Win32,60.24096386,3,1,6,0.076851852,-0.011111111,1,0,0,0.8853,rock_grid_rect_2,4,03,-1,-1,0.885,0.067592593,-0.228703704,1,0,0,0.5666,Diorite_rect,3,0.567,0,5,0,5,0,1,,,,,,,,,,,,,
632b947efa9da6a9bde31f94,TCN,2024-06-25_12h40.27.433,LearnStrategy,2023.2.3,Win32,60.24096386,3,1,7,-0.07962963,0.00462963,1,0,0,0.9516,rock_grid_rect_2,1,02,-1,-1,0.952,-0.151851852,-0.248148148,1,0,0,0.559,Basalt_rect,2,0.559,0,6,0,6,0,1,,,,,,,,,,,,,
632b947efa9da6a9bde31f94,TCN,2024-06-25_12h40.27.433,LearnStrategy,2023.2.3,Win32,60.24096386,3,1,8,0.078703704,-0.003703704,1,0,0,0.7451,rock_grid_rect_2,3,13,-1,-1,0.745,0.107407407,-0.268518519,1,0,0,0.5544,Diorite_rect,3,0.554,1,7,0,7,0,1,,,,,,,,,,,,,
632b947efa9da6a9bde31f94,TCN,2024-06-25_12h40.27.433,LearnStrategy,2023.2.3,Win32,60.24096386,3,1,9,-0.060185185,-0.014814815,1,0,0,1.0618,rock_grid_rect_2,2,04,-1,-1,1.062,-0.185185185,-0.249074074,1,0,0,0.5691,Basalt_rect,2,0.569,1,8,0,8,0,1,,,,,,,,,,,,,
632b947efa9da6a9bde31f94,TCN,2024-06-25_12h40.27.433,LearnStrategy,2023.2.3,Win32,60.24096386,3,1,10,0.112962963,-0.005555556,1,0,0,1.0668,rock_grid_rect_2,5,09,-1,-1,1.067,0.200925926,-0.25462963,1,0,0,0.5913,Diorite_rect,3,0.591,0,9,0,9,0,1,,,,,,,,,,,,,
632b947efa9da6a9bde31f94,TCN,2024-06-25_12h40.27.433,LearnStrategy,2023.2.3,Win32,60.24096386,3,1,11,-0.117592593,-0.006481481,1,0,0,0.8698,rock_grid_rect_2,8,05,-1,-1,0.87,-0.193518519,-0.24537037,1,0,0,0.7092,Basalt_rect,2,0.709,0,10,0,10,0,1,,,,,,,,,,,,,
632b947efa9da6a9bde31f94,TCN,2024-06-25_12h40.27.433,LearnStrategy,2023.2.3,Win32,60.24096386,3,1,12,-0.087962963,-0.012037037,1,0,0,1.0627,rock_grid_rect_2,4,09,-1,-1,1.063,-0.410185185,-0.412037037,1,0,0,0.9002,Obsidian_rect,5,0.9,0,11,0,11,0,1,,,,,,,,,,,,,
632b947efa9da6a9bde31f94,TCN,2024-06-25_12h40.27.433,LearnStrategy,2023.2.3,Win32,60.24096386,3,1,13,0.078703704,-0.017592593,1,0,0,0.7942,rock_grid_rect_2,8,10,-1,-1,0.794,0.301851852,-0.392592593,1,0,0,1.0469,Pumice_rect,8,1.047,1,12,0,12,0,1,,,,,,,,,,,,,
632b947efa9da6a9bde31f94,TCN,2024-06-25_12h40.27.433,LearnStrategy,2023.2.3,Win32,60.24096386,3,1,14,0.062962963,-0.000925926,1,0,0,0.9165,rock_grid_rect_2,7,08,-1,-1,0.917,-0.119444444,-0.412037037,1,0,0,0.8396,Pegmatite_rect,6,0.84,0,13,0,13,0,1,,,,,,,,,,,,,
632b947efa9da6a9bde31f94,TCN,2024-06-25_12h40.27.433,LearnStrategy,2023.2.3,Win32,60.24096386,3,1,15,0.093518519,-0.025,1,0,0,1.2511,rock_grid_rect_2,7,06,-1,-1,1.251,0.156481481,-0.249074074,1,0,0,0.6338,Diorite_rect,3,0.634,0,14,0,14,0,1,,,,,,,,,,,,,
632b947efa9da6a9bde31f94,TCN,2024-06-25_12h40.27.433,LearnStrategy,2023.2.3,Win32,60.24096386,3,1,16,-0.04537037,0.001851852,1,0,0,0.7771,rock_grid_rect_2,6,16,-1,-1,0.777,-0.107407407,-0.25462963,1,0,0,0.5985,Basalt_rect,2,0.599,0,15,0,15,0,1,,,,,,,,,,,,,
632b947efa9da6a9bde31f94,TCN,2024-06-25_12h40.27.433,LearnStrategy,2023.2.3,Win32,60.24096386,3,2,1,,,,,,,,5,08,,,,,,,,,,,3,3.82,0,,,,,,0.137962963,-0.268518519,1,0,0,3.8204,Diorite_rect,0,0,0,0,1,
632b947efa9da6a9bde31f94,TCN,2024-06-25_12h40.27.433,LearnStrategy,2023.2.3,Win32,60.24096386,3,2,2,,,,,,,,3,06,,,,,,,,,,,2,0.343,0,,,,,,-0.086111111,-0.258333333,1,0,0,0.343,Basalt_rect,1,0,1,0,1,
632b947efa9da6a9bde31f94,TCN,2024-06-25_12h40.27.433,LearnStrategy,2023.2.3,Win32,60.24096386,3,2,3,,,,,,,,3,15,,,,,,,,,,,7,0.35,0,,,,,,0.109259259,-0.390740741,1,0,0,0.3497,Peridotite_rect,2,0,2,0,1,
632b947efa9da6a9bde31f94,TCN,2024-06-25_12h40.27.433,LearnStrategy,2023.2.3,Win32,60.24096386,3,2,4,,,,,,,,1,14,,,,,,,,,,,6,0.249,0,,,,,,-0.132407407,-0.416666667,1,0,0,0.2494,Pegmatite_rect,3,0,3,0,1,
632b947efa9da6a9bde31f94,TCN,2024-06-25_12h40.27.433,LearnStrategy,2023.2.3,Win32,60.24096386,3,2,5,,,,,,,,2,06,,,,,,,,,,,2,0.278,1,,,,,,-0.099074074,-0.246296296,1,0,0,0.2783,Basalt_rect,4,0,4,0,1,
632b947efa9da6a9bde31f94,TCN,2024-06-25_12h40.27.433,LearnStrategy,2023.2.3,Win32,60.24096386,3,2,6,,,,,,,,4,08,,,,,,,,,,,4,0.364,1,,,,,,0.337037037,-0.240740741,1,0,0,0.3642,Gabbro_rect,5,0,5,0,1,
632b947efa9da6a9bde31f94,TCN,2024-06-25_12h40.27.433,LearnStrategy,2023.2.3,Win32,60.24096386,3,2,7,,,,,,,,2,16,,,,,,,,,,,8,0.287,0,,,,,,0.362037037,-0.419444444,1,0,0,0.2873,Pumice_rect,6,0,6,0,1,
632b947efa9da6a9bde31f94,TCN,2024-06-25_12h40.27.433,LearnStrategy,2023.2.3,Win32,60.24096386,3,2,8,,,,,,,,7,13,,,,,,,,,,,2,0.75,0,,,,,,-0.148148148,-0.264814815,1,0,0,0.7503,Basalt_rect,7,0,7,0,1,
632b947efa9da6a9bde31f94,TCN,2024-06-25_12h40.27.433,LearnStrategy,2023.2.3,Win32,60.24096386,3,2,9,,,,,,,,8,04,,,,,,,,,,,1,0.323,0,,,,,,-0.405555556,-0.268518519,1,0,0,0.3229,Andesite_rect,8,0,8,0,1,
632b947efa9da6a9bde31f94,TCN,2024-06-25_12h40.27.433,LearnStrategy,2023.2.3,Win32,60.24096386,3,2,10,,,,,,,,8,16,,,,,,,,,,,6,0.501,0,,,,,,-0.090740741,-0.406481481,1,0,0,0.5012,Pegmatite_rect,9,0,9,0,1,
632b947efa9da6a9bde31f94,TCN,2024-06-25_12h40.27.433,LearnStrategy,2023.2.3,Win32,60.24096386,3,2,11,,,,,,,,5,06,,,,,,,,,,,5,0.255,1,,,,,,-0.365740741,-0.412962963,1,0,0,0.2553,Obsidian_rect,10,0,10,0,1,
632b947efa9da6a9bde31f94,TCN,2024-06-25_12h40.27.433,LearnStrategy,2023.2.3,Win32,60.24096386,3,2,12,,,,,,,,4,12,,,,,,,,,,,7,0.31,0,,,,,,0.073148148,-0.389814815,1,0,0,0.3097,Peridotite_rect,11,0,11,0,1,
632b947efa9da6a9bde31f94,TCN,2024-06-25_12h40.27.433,LearnStrategy,2023.2.3,Win32,60.24096386,3,2,13,,,,,,,,1,07,,,,,,,,,,,4,0.316,0,,,,,,0.314814815,-0.250925926,1,0,0,0.3156,Gabbro_rect,12,0,12,0,1,
632b947efa9da6a9bde31f94,TCN,2024-06-25_12h40.27.433,LearnStrategy,2023.2.3,Win32,60.24096386,3,2,14,,,,,,,,7,02,,,,,,,,,,,3,1.247,0,,,,,,0.103703704,-0.269444444,1,0,0,1.247,Diorite_rect,13,0,13,0,1,
632b947efa9da6a9bde31f94,TCN,2024-06-25_12h40.27.433,LearnStrategy,2023.2.3,Win32,60.24096386,3,2,15,,,,,,,,6,03,,,,,,,,,,,2,0.363,0,,,,,,-0.161111111,-0.246296296,1,0,0,0.3634,Basalt_rect,14,0,14,0,1,
632b947efa9da6a9bde31f94,TCN,2024-06-25_12h40.27.433,LearnStrategy,2023.2.3,Win32,60.24096386,3,2,16,,,,,,,,6,06,,,,,,,,,,,7,0.297,0,,,,,,0.067592593,-0.410185185,1,0,0,0.2966,Peridotite_rect,15,0,15,0,1,
632b947efa9da6a9bde31f94,TCN,2024-06-25_12h40.27.433,LearnStrategy,2023.2.3,Win32,60.24096386,4,1,1,0.074074074,-0.000925926,1,0,0,1.2941,rock_grid_rect_2,6,15,-1,-1,1.294,-0.147222222,-0.235185185,1,0,0,0.7962,Basalt_rect,2,0.796,0,0,0,0,0,1,,,,,,,,,,,,,
632b947efa9da6a9bde31f94,TCN,2024-06-25_12h40.27.433,LearnStrategy,2023.2.3,Win32,60.24096386,4,1,2,0.146296296,0.010185185,1,0,0,0.9456,rock_grid_rect_2,2,08,-1,-1,0.946,0.115740741,-0.241666667,1,0,0,0.699,Diorite_rect,3,0.699,0,1,0,1,0,1,,,,,,,,,,,,,
632b947efa9da6a9bde31f94,TCN,2024-06-25_12h40.27.433,LearnStrategy,2023.2.3,Win32,60.24096386,4,1,3,-0.049074074,-0.012962963,1,0,0,0.9898,rock_grid_rect_2,1,02,-1,-1,0.99,-0.355555556,-0.247222222,1,0,0,0.7579,Andesite_rect,1,0.758,1,2,0,2,0,1,,,,,,,,,,,,,
632b947efa9da6a9bde31f94,TCN,2024-06-25_12h40.27.433,LearnStrategy,2023.2.3,Win32,60.24096386,4,1,4,0.051851852,-0.002777778,1,0,0,1.0795,rock_grid_rect_2,3,12,-1,-1,1.08,0.400925926,-0.386111111,1,0,0,1.2792,Pumice_rect,8,1.279,0,3,0,3,0,1,,,,,,,,,,,,,
632b947efa9da6a9bde31f94,TCN,2024-06-25_12h40.27.433,LearnStrategy,2023.2.3,Win32,60.24096386,4,1,5,0.100925926,-0.012037037,1,0,0,97.0754,rock_grid_rect_2,6,16,-1,-1,97.075,0.15462963,-0.266666667,1,0,0,1.0097,Diorite_rect,3,1.01,0,4,0,4,0,1,,,,,,,,,,,,,
632b947efa9da6a9bde31f94,TCN,2024-06-25_12h40.27.433,LearnStrategy,2023.2.3,Win32,60.24096386,4,1,6,-0.051851852,-0.003703704,1,0,0,0.9282,rock_grid_rect_2,8,09,-1,-1,0.928,-0.102777778,-0.246296296,1,0,0,0.6026,Basalt_rect,2,0.603,0,5,0,5,0,1,,,,,,,,,,,,,
632b947efa9da6a9bde31f94,TCN,2024-06-25_12h40.27.433,LearnStrategy,2023.2.3,Win32,60.24096386,4,1,7,0.12037037,0.006481481,1,0,0,1.2513,rock_grid_rect_2,5,14,-1,-1,1.251,0.078703704,-0.405555556,1,0,0,1.8512,Peridotite_rect,7,1.851,0,6,0,6,0,1,,,,,,,,,,,,,
632b947efa9da6a9bde31f94,TCN,2024-06-25_12h40.27.433,LearnStrategy,2023.2.3,Win32,60.24096386,4,1,8,-0.066666667,-0.006481481,1,0,0,1.1005,rock_grid_rect_2,4,16,-1,-1,1.101,-0.216666667,-0.257407407,1,0,0,0.7128,Basalt_rect,2,0.713,0,7,0,7,0,1,,,,,,,,,,,,,
632b947efa9da6a9bde31f94,TCN,2024-06-25_12h40.27.433,LearnStrategy,2023.2.3,Win32,60.24096386,4,1,9,-0.057407407,0.000925926,1,0,0,1.27,rock_grid_rect_2,1,09,-1,-1,1.27,0.128703704,-0.255555556,1,0,0,0.7234,Diorite_rect,3,0.723,0,8,0,8,0,1,,,,,,,,,,,,,
632b947efa9da6a9bde31f94,TCN,2024-06-25_12h40.27.433,LearnStrategy,2023.2.3,Win32,60.24096386,4,1,10,0.139814815,0.006481481,1,0,0,1.1512,rock_grid_rect_2,4,05,-1,-1,1.151,0.387037037,-0.252777778,1,0,0,0.6758,Gabbro_rect,4,0.676,1,9,0,9,0,1,,,,,,,,,,,,,
632b947efa9da6a9bde31f94,TCN,2024-06-25_12h40.27.433,LearnStrategy,2023.2.3,Win32,60.24096386,4,1,11,-0.142592593,-0.009259259,1,0,0,1.2922,rock_grid_rect_2,2,01,-1,-1,1.292,-0.214814815,-0.241666667,1,0,0,0.689,Basalt_rect,2,0.689,1,10,0,10,0,1,,,,,,,,,,,,,
632b947efa9da6a9bde31f94,TCN,2024-06-25_12h40.27.433,LearnStrategy,2023.2.3,Win32,60.24096386,4,1,12,-0.026851852,-0.006481481,1,0,0,0.8682,rock_grid_rect_2,5,09,-1,-1,0.868,0.107407407,-0.408333333,1,0,0,0.7275,Peridotite_rect,7,0.728,0,11,0,11,0,1,,,,,,,,,,,,,
632b947efa9da6a9bde31f94,TCN,2024-06-25_12h40.27.433,LearnStrategy,2023.2.3,Win32,60.24096386,4,1,13,-0.04537037,-0.006481481,1,0,0,0.9063,rock_grid_rect_2,7,14,-1,-1,0.906,-0.357407407,-0.244444444,1,0,0,0.7476,Andesite_rect,1,0.748,0,12,0,12,0,1,,,,,,,,,,,,,
632b947efa9da6a9bde31f94,TCN,2024-06-25_12h40.27.433,LearnStrategy,2023.2.3,Win32,60.24096386,4,1,14,0.177777778,-0.014814815,1,0,0,0.9608,rock_grid_rect_2,8,10,-1,-1,0.961,0.40462963,-0.235185185,1,0,0,0.7006,Gabbro_rect,4,0.701,0,13,0,13,0,1,,,,,,,,,,,,,
632b947efa9da6a9bde31f94,TCN,2024-06-25_12h40.27.433,LearnStrategy,2023.2.3,Win32,60.24096386,4,1,15,-0.103703704,0.00462963,1,0,0,1.1317,rock_grid_rect_2,7,10,-1,-1,1.132,-0.19537037,-0.241666667,1,0,0,0.659,Basalt_rect,2,0.659,0,14,0,14,0,1,,,,,,,,,,,,,
632b947efa9da6a9bde31f94,TCN,2024-06-25_12h40.27.433,LearnStrategy,2023.2.3,Win32,60.24096386,4,1,16,0.053703704,-0.000925926,1,0,0,0.8456,rock_grid_rect_2,3,07,-1,-1,0.846,-0.094444444,-0.402777778,1,0,0,0.7278,Pegmatite_rect,6,0.728,0,15,0,15,0,1,,,,,,,,,,,,,
632b947efa9da6a9bde31f94,TCN,2024-06-25_12h40.27.433,LearnStrategy,2023.2.3,Win32,60.24096386,4,2,1,,,,,,,,6,07,,,,,,,,,,,8,2.26,0,,,,,,0.335185185,-0.397222222,1,0,0,2.2604,Pumice_rect,0,0,0,0,1,
632b947efa9da6a9bde31f94,TCN,2024-06-25_12h40.27.433,LearnStrategy,2023.2.3,Win32,60.24096386,4,2,2,,,,,,,,3,06,,,,,,,,,,,7,0.26,0,,,,,,0.113888889,-0.401851852,1,0,0,0.2605,Peridotite_rect,1,0,1,0,1,
632b947efa9da6a9bde31f94,TCN,2024-06-25_12h40.27.433,LearnStrategy,2023.2.3,Win32,60.24096386,4,2,3,,,,,,,,8,16,,,,,,,,,,,2,0.608,0,,,,,,-0.083333333,-0.262037037,1,0,0,0.6076,Basalt_rect,2,0,2,0,1,
632b947efa9da6a9bde31f94,TCN,2024-06-25_12h40.27.433,LearnStrategy,2023.2.3,Win32,60.24096386,4,2,4,,,,,,,,1,11,,,,,,,,,,,1,0.112,1,,,,,,-0.326851852,-0.255555556,1,0,0,0.1124,Andesite_rect,3,0,3,0,1,
632b947efa9da6a9bde31f94,TCN,2024-06-25_12h40.27.433,LearnStrategy,2023.2.3,Win32,60.24096386,4,2,5,,,,,,,,5,04,,,,,,,,,,,5,0.195,1,,,,,,-0.334259259,-0.410185185,1,0,0,0.1951,Obsidian_rect,4,0,4,0,1,
632b947efa9da6a9bde31f94,TCN,2024-06-25_12h40.27.433,LearnStrategy,2023.2.3,Win32,60.24096386,4,2,6,,,,,,,,6,05,,,,,,,,,,,6,1.375,1,,,,,,-0.072222222,-0.407407407,1,0,0,1.3748,Pegmatite_rect,5,0,5,0,1,
632b947efa9da6a9bde31f94,TCN,2024-06-25_12h40.27.433,LearnStrategy,2023.2.3,Win32,60.24096386,4,2,7,,,,,,,,7,02,,,,,,,,,,,7,0.176,1,,,,,,0.121296296,-0.40462963,1,0,0,0.1758,Peridotite_rect,6,0,6,0,1,
632b947efa9da6a9bde31f94,TCN,2024-06-25_12h40.27.433,LearnStrategy,2023.2.3,Win32,60.24096386,4,2,8,,,,,,,,4,11,,,,,,,,,,,4,0.221,1,,,,,,0.351851852,-0.237962963,1,0,0,0.2211,Gabbro_rect,7,0,7,0,1,
632b947efa9da6a9bde31f94,TCN,2024-06-25_12h40.27.433,LearnStrategy,2023.2.3,Win32,60.24096386,4,2,9,,,,,,,,2,09,,,,,,,,,,,3,0.684,0,,,,,,0.050925926,-0.253703704,1,0,0,0.684,Diorite_rect,8,0,8,0,1,
632b947efa9da6a9bde31f94,TCN,2024-06-25_12h40.27.433,LearnStrategy,2023.2.3,Win32,60.24096386,4,2,10,,,,,,,,7,13,,,,,,,,,,,2,0.342,0,,,,,,-0.118518519,-0.253703704,1,0,0,0.3425,Basalt_rect,9,0,9,0,1,
632b947efa9da6a9bde31f94,TCN,2024-06-25_12h40.27.433,LearnStrategy,2023.2.3,Win32,60.24096386,4,2,11,,,,,,,,4,01,,,,,,,,,,,1,0.276,0,,,,,,-0.351851852,-0.264814815,1,0,0,0.2761,Andesite_rect,10,0,10,0,1,
632b947efa9da6a9bde31f94,TCN,2024-06-25_12h40.27.433,LearnStrategy,2023.2.3,Win32,60.24096386,4,2,12,,,,,,,,3,14,,,,,,,,,,,6,0.243,0,,,,,,-0.092592593,-0.415740741,1,0,0,0.243,Pegmatite_rect,11,0,11,0,1,
632b947efa9da6a9bde31f94,TCN,2024-06-25_12h40.27.433,LearnStrategy,2023.2.3,Win32,60.24096386,4,2,13,,,,,,,,1,07,,,,,,,,,,,7,0.178,0,,,,,,0.139814815,-0.421296296,1,0,0,0.1784,Peridotite_rect,12,0,12,0,1,
632b947efa9da6a9bde31f94,TCN,2024-06-25_12h40.27.433,LearnStrategy,2023.2.3,Win32,60.24096386,4,2,14,,,,,,,,5,11,,,,,,,,,,,8,0.253,0,,,,,,0.356481481,-0.4,1,0,0,0.2533,Pumice_rect,13,0,13,0,1,
632b947efa9da6a9bde31f94,TCN,2024-06-25_12h40.27.433,LearnStrategy,2023.2.3,Win32,60.24096386,4,2,15,,,,,,,,8,04,,,,,,,,,,,4,0.311,0,,,,,,0.387037037,-0.262962963,1,0,0,0.3113,Gabbro_rect,14,0,14,0,1,
632b947efa9da6a9bde31f94,TCN,2024-06-25_12h40.27.433,LearnStrategy,2023.2.3,Win32,60.24096386,4,2,16,,,,,,,,2,16,,,,,,,,,,,3,0.329,0,,,,,,0.187037037,-0.259259259,1,0,0,0.3287,Diorite_rect,15,0,15,0,1,
632b947efa9da6a9bde31f94,TCN,2024-06-25_12h40.27.433,LearnStrategy,2023.2.3,Win32,60.24096386,5,1,1,0.043518519,-0.001851852,1,0,0,1.1022,rock_grid_rect_2,6,13,-1,-1,1.102,0.348148148,-0.235185185,1,0,0,0.9412,Gabbro_rect,4,0.941,0,0,0,0,0,1,,,,,,,,,,,,,
632b947efa9da6a9bde31f94,TCN,2024-06-25_12h40.27.433,LearnStrategy,2023.2.3,Win32,60.24096386,5,1,2,0.051851852,-0.00462963,1,0,0,0.6933,rock_grid_rect_2,3,08,-1,-1,0.693,-0.112962963,-0.25462963,1,0,0,0.6814,Basalt_rect,2,0.681,0,1,0,1,0,1,,,,,,,,,,,,,
632b947efa9da6a9bde31f94,TCN,2024-06-25_12h40.27.433,LearnStrategy,2023.2.3,Win32,60.24096386,5,1,3,0.131481481,-0.001851852,1,0,0,0.7095,rock_grid_rect_2,8,13,-1,-1,0.71,0.064814815,-0.252777778,1,0,0,0.5562,Diorite_rect,3,0.556,0,2,0,2,0,1,,,,,,,,,,,,,
632b947efa9da6a9bde31f94,TCN,2024-06-25_12h40.27.433,LearnStrategy,2023.2.3,Win32,60.24096386,5,1,4,-0.085185185,-0.000925926,1,0,0,1.1342,rock_grid_rect_2,1,01,-1,-1,1.134,-0.382407407,-0.268518519,1,0,0,0.6752,Andesite_rect,1,0.675,1,3,0,3,0,1,,,,,,,,,,,,,
632b947efa9da6a9bde31f94,TCN,2024-06-25_12h40.27.433,LearnStrategy,2023.2.3,Win32,60.24096386,5,1,5,-0.00462963,-0.012037037,1,0,0,1.2014,rock_grid_rect_2,8,03,-1,-1,1.201,-0.065740741,-0.249074074,1,0,0,0.6048,Basalt_rect,2,0.605,0,4,0,4,0,1,,,,,,,,,,,,,
632b947efa9da6a9bde31f94,TCN,2024-06-25_12h40.27.433,LearnStrategy,2023.2.3,Win32,60.24096386,5,1,6,0.112962963,-0.007407407,1,0,0,1.0661,rock_grid_rect_2,2,04,-1,-1,1.066,0.082407407,-0.416666667,1,0,0,0.6882,Peridotite_rect,7,0.688,0,5,0,5,0,1,,,,,,,,,,,,,
632b947efa9da6a9bde31f94,TCN,2024-06-25_12h40.27.433,LearnStrategy,2023.2.3,Win32,60.24096386,5,1,7,-0.053703704,-0.012037037,1,0,0,0.937,rock_grid_rect_2,4,09,-1,-1,0.937,-0.149074074,-0.415740741,1,0,0,0.7055,Pegmatite_rect,6,0.706,0,6,0,6,0,1,,,,,,,,,,,,,
632b947efa9da6a9bde31f94,TCN,2024-06-25_12h40.27.433,LearnStrategy,2023.2.3,Win32,60.24096386,5,1,8,0.174074074,-0.015740741,1,0,0,0.9389,rock_grid_rect_2,7,06,-1,-1,0.939,0.390740741,-0.402777778,1,0,0,0.6805,Pumice_rect,8,0.68,0,7,0,7,0,1,,,,,,,,,,,,,
632b947efa9da6a9bde31f94,TCN,2024-06-25_12h40.27.433,LearnStrategy,2023.2.3,Win32,60.24096386,5,1,9,-0.118518519,0.00462963,1,0,0,0.9061,rock_grid_rect_2,1,04,-1,-1,0.906,-0.072222222,-0.237962963,1,0,0,3.2043,Basalt_rect,2,3.204,0,8,0,8,0,1,,,,,,,,,,,,,
632b947efa9da6a9bde31f94,TCN,2024-06-25_12h40.27.433,LearnStrategy,2023.2.3,Win32,60.24096386,5,1,10,0.117592593,-0.024074074,1,0,0,1.0175,rock_grid_rect_2,3,13,-1,-1,1.017,0.084259259,-0.261111111,1,0,0,1.0371,Diorite_rect,3,1.037,1,9,0,9,0,1,,,,,,,,,,,,,
632b947efa9da6a9bde31f94,TCN,2024-06-25_12h40.27.433,LearnStrategy,2023.2.3,Win32,60.24096386,5,1,11,-0.10462963,-0.015740741,1,0,0,0.9448,rock_grid_rect_2,6,08,-1,-1,0.945,-0.22962963,-0.252777778,1,0,0,0.6436,Basalt_rect,2,0.644,0,10,0,10,0,1,,,,,,,,,,,,,
632b947efa9da6a9bde31f94,TCN,2024-06-25_12h40.27.433,LearnStrategy,2023.2.3,Win32,60.24096386,5,1,12,0.167592593,-0.016666667,1,0,0,1.1136,rock_grid_rect_2,7,12,-1,-1,1.114,0.356481481,-0.247222222,1,0,0,0.7029,Gabbro_rect,4,0.703,0,11,0,11,0,1,,,,,,,,,,,,,
632b947efa9da6a9bde31f94,TCN,2024-06-25_12h40.27.433,LearnStrategy,2023.2.3,Win32,60.24096386,5,1,13,-0.106481481,-0.007407407,1,0,0,1.8013,rock_grid_rect_2,2,14,-1,-1,1.801,0.043518519,-0.243518519,1,0,0,12.3199,Diorite_rect,3,12.32,0,12,0,12,0,1,,,,,,,,,,,,,
632b947efa9da6a9bde31f94,TCN,2024-06-25_12h40.27.433,LearnStrategy,2023.2.3,Win32,60.24096386,5,1,14,0.100925926,0.010185185,1,0,0,0.8213,rock_grid_rect_2,5,12,-1,-1,0.821,0.37962963,-0.258333333,1,0,0,0.7305,Gabbro_rect,4,0.731,0,13,0,13,0,1,,,,,,,,,,,,,
632b947efa9da6a9bde31f94,TCN,2024-06-25_12h40.27.433,LearnStrategy,2023.2.3,Win32,60.24096386,5,1,15,-0.144444444,0.001851852,1,0,0,0.7373,rock_grid_rect_2,4,14,-1,-1,0.737,-0.361111111,-0.252777778,1,0,0,0.7739,Andesite_rect,1,0.774,0,14,0,14,0,1,,,,,,,,,,,,,
632b947efa9da6a9bde31f94,TCN,2024-06-25_12h40.27.433,LearnStrategy,2023.2.3,Win32,60.24096386,5,1,16,0.081481481,-0.00462963,1,0,0,1.2253,rock_grid_rect_2,5,07,-1,-1,1.225,0.112037037,-0.269444444,1,0,0,0.6034,Diorite_rect,3,0.603,0,15,0,15,0,1,,,,,,,,,,,,,
632b947efa9da6a9bde31f94,TCN,2024-06-25_12h40.27.433,LearnStrategy,2023.2.3,Win32,60.24096386,5,2,1,,,,,,,,3,02,,,,,,,,,,,4,73.348,0,,,,,,0.348148148,-0.235185185,1,0,0,73.3478,Gabbro_rect,0,0,0,0,1,
632b947efa9da6a9bde31f94,TCN,2024-06-25_12h40.27.433,LearnStrategy,2023.2.3,Win32,60.24096386,5,2,2,,,,,,,,3,09,,,,,,,,,,,2,0.759,0,,,,,,-0.099074074,-0.240740741,1,0,0,0.7586,Basalt_rect,1,0,1,0,1,
632b947efa9da6a9bde31f94,TCN,2024-06-25_12h40.27.433,LearnStrategy,2023.2.3,Win32,60.24096386,5,2,3,,,,,,,,5,08,,,,,,,,,,,3,0.462,0,,,,,,0.121296296,-0.255555556,1,0,0,0.4618,Diorite_rect,2,0,2,0,1,
632b947efa9da6a9bde31f94,TCN,2024-06-25_12h40.27.433,LearnStrategy,2023.2.3,Win32,60.24096386,5,2,4,,,,,,,,4,12,,,,,,,,,,,8,0.475,0,,,,,,0.339814815,-0.37962963,1,0,0,0.4748,Pumice_rect,3,0,3,0,1,
632b947efa9da6a9bde31f94,TCN,2024-06-25_12h40.27.433,LearnStrategy,2023.2.3,Win32,60.24096386,5,2,5,,,,,,,,1,14,,,,,,,,,,,7,0.322,0,,,,,,0.097222222,-0.385185185,1,0,0,0.3222,Peridotite_rect,4,0,4,0,1,
632b947efa9da6a9bde31f94,TCN,2024-06-25_12h40.27.433,LearnStrategy,2023.2.3,Win32,60.24096386,5,2,6,,,,,,,,8,14,,,,,,,,,,,6,0.277,0,,,,,,-0.115740741,-0.402777778,1,0,0,0.277,Pegmatite_rect,5,0,5,0,1,
632b947efa9da6a9bde31f94,TCN,2024-06-25_12h40.27.433,LearnStrategy,2023.2.3,Win32,60.24096386,5,2,7,,,,,,,,6,10,,,,,,,,,,,1,0.71,0,,,,,,-0.315740741,-0.25462963,1,0,0,0.7105,Andesite_rect,6,0,6,0,1,
632b947efa9da6a9bde31f94,TCN,2024-06-25_12h40.27.433,LearnStrategy,2023.2.3,Win32,60.24096386,5,2,8,,,,,,,,1,06,,,,,,,,,,,2,0.317,0,,,,,,-0.165740741,-0.264814815,1,0,0,0.3171,Basalt_rect,7,0,7,0,1,
632b947efa9da6a9bde31f94,TCN,2024-06-25_12h40.27.433,LearnStrategy,2023.2.3,Win32,60.24096386,5,2,9,,,,,,,,2,05,,,,,,,,,,,3,0.247,0,,,,,,0.090740741,-0.243518519,1,0,0,0.2474,Diorite_rect,8,0,8,0,1,
632b947efa9da6a9bde31f94,TCN,2024-06-25_12h40.27.433,LearnStrategy,2023.2.3,Win32,60.24096386,5,2,10,,,,,,,,7,05,,,,,,,,,,,4,0.286,0,,,,,,0.342592593,-0.249074074,1,0,0,0.2865,Gabbro_rect,9,0,9,0,1,
632b947efa9da6a9bde31f94,TCN,2024-06-25_12h40.27.433,LearnStrategy,2023.2.3,Win32,60.24096386,5,2,11,,,,,,,,8,02,,,,,,,,,,,8,0.271,1,,,,,,0.385185185,-0.393518519,1,0,0,0.2709,Pumice_rect,10,0,10,0,1,
632b947efa9da6a9bde31f94,TCN,2024-06-25_12h40.27.433,LearnStrategy,2023.2.3,Win32,60.24096386,5,2,12,,,,,,,,7,16,,,,,,,,,,,7,0.215,1,,,,,,0.14537037,-0.394444444,1,0,0,0.215,Peridotite_rect,11,0,11,0,1,
632b947efa9da6a9bde31f94,TCN,2024-06-25_12h40.27.433,LearnStrategy,2023.2.3,Win32,60.24096386,5,2,13,,,,,,,,5,06,,,,,,,,,,,6,0.221,0,,,,,,-0.099074074,-0.4,1,0,0,0.221,Pegmatite_rect,12,0,12,0,1,
632b947efa9da6a9bde31f94,TCN,2024-06-25_12h40.27.433,LearnStrategy,2023.2.3,Win32,60.24096386,5,2,14,,,,,,,,2,10,,,,,,,,,,,5,0.365,0,,,,,,-0.337962963,-0.390740741,1,0,0,0.3655,Obsidian_rect,13,0,13,0,1,
632b947efa9da6a9bde31f94,TCN,2024-06-25_12h40.27.433,LearnStrategy,2023.2.3,Win32,60.24096386,5,2,15,,,,,,,,6,06,,,,,,,,,,,1,0.276,0,,,,,,-0.393518519,-0.260185185,1,0,0,0.2765,Andesite_rect,14,0,14,0,1,
632b947efa9da6a9bde31f94,TCN,2024-06-25_12h40.27.433,LearnStrategy,2023.2.3,Win32,60.24096386,5,2,16,,,,,,,,4,15,,,,,,,,,,,2,0.187,0,,,,,,-0.167592593,-0.24537037,1,0,0,0.1865,Basalt_rect,15,0,15,0,1,
632b947efa9da6a9bde31f94,TCN,2024-06-25_12h40.27.433,LearnStrategy,2023.2.3,Win32,60.24096386,6,1,1,0.07962963,-0.018518519,1,0,0,1.6804,rock_grid_rect_2,2,11,-1,-1,1.68,0.087962963,-0.243518519,1,0,0,0.9663,Diorite_rect,3,0.966,0,0,0,0,0,1,,,,,,,,,,,,,
632b947efa9da6a9bde31f94,TCN,2024-06-25_12h40.27.433,LearnStrategy,2023.2.3,Win32,60.24096386,6,1,2,-0.021296296,-0.003703704,1,0,0,1.037,rock_grid_rect_2,4,03,-1,-1,1.037,-0.198148148,-0.244444444,1,0,0,0.6401,Basalt_rect,2,0.64,0,1,0,1,0,1,,,,,,,,,,,,,
632b947efa9da6a9bde31f94,TCN,2024-06-25_12h40.27.433,LearnStrategy,2023.2.3,Win32,60.24096386,6,1,3,0.155555556,-0.001851852,1,0,0,0.9005,rock_grid_rect_2,3,11,-1,-1,0.9,0.384259259,-0.260185185,1,0,0,0.6911,Gabbro_rect,4,0.691,0,2,0,2,0,1,,,,,,,,,,,,,
632b947efa9da6a9bde31f94,TCN,2024-06-25_12h40.27.433,LearnStrategy,2023.2.3,Win32,60.24096386,6,1,4,-0.026851852,-0.024074074,1,0,0,0.8348,rock_grid_rect_2,6,11,-1,-1,0.835,-0.191666667,-0.22962963,1,0,0,0.7019,Basalt_rect,2,0.702,0,3,0,3,0,1,,,,,,,,,,,,,
632b947efa9da6a9bde31f94,TCN,2024-06-25_12h40.27.433,LearnStrategy,2023.2.3,Win32,60.24096386,6,1,5,0.138888889,0.003703704,1,0,0,0.7891,rock_grid_rect_2,7,07,-1,-1,0.789,0.09537037,-0.25,1,0,0,0.5757,Diorite_rect,3,0.576,0,4,0,4,0,1,,,,,,,,,,,,,
632b947efa9da6a9bde31f94,TCN,2024-06-25_12h40.27.433,LearnStrategy,2023.2.3,Win32,60.24096386,6,1,6,-0.068518519,-0.012037037,1,0,0,0.7447,rock_grid_rect_2,5,05,-1,-1,0.745,-0.185185185,-0.258333333,1,0,0,0.5992,Basalt_rect,2,0.599,0,5,0,5,0,1,,,,,,,,,,,,,
632b947efa9da6a9bde31f94,TCN,2024-06-25_12h40.27.433,LearnStrategy,2023.2.3,Win32,60.24096386,6,1,7,-0.009259259,-0.007407407,1,0,0,6.6178,rock_grid_rect_2,4,10,-1,-1,6.618,-0.158333333,-0.230555556,1,0,0,0.7556,Basalt_rect,2,0.756,0,6,0,6,0,1,,,,,,,,,,,,,
632b947efa9da6a9bde31f94,TCN,2024-06-25_12h40.27.433,LearnStrategy,2023.2.3,Win32,60.24096386,6,1,8,0.131481481,-0.001851852,1,0,0,0.8206,rock_grid_rect_2,5,16,-1,-1,0.821,0.224074074,-0.251851852,1,0,0,0.6114,Diorite_rect,3,0.611,0,7,0,7,0,1,,,,,,,,,,,,,
632b947efa9da6a9bde31f94,TCN,2024-06-25_12h40.27.433,LearnStrategy,2023.2.3,Win32,60.24096386,6,1,9,-0.17037037,-0.010185185,1,0,0,0.7617,rock_grid_rect_2,6,09,-1,-1,0.762,-0.187037037,-0.266666667,1,0,0,0.6185,Basalt_rect,2,0.619,0,8,0,8,0,1,,,,,,,,,,,,,
632b947efa9da6a9bde31f94,TCN,2024-06-25_12h40.27.433,LearnStrategy,2023.2.3,Win32,60.24096386,6,1,10,-0.07962963,-0.000925926,1,0,0,1.5111,rock_grid_rect_2,2,02,-1,-1,1.511,0.353703704,-0.421296296,1,0,0,0.9302,Pumice_rect,8,0.93,0,9,0,9,0,1,,,,,,,,,,,,,
632b947efa9da6a9bde31f94,TCN,2024-06-25_12h40.27.433,LearnStrategy,2023.2.3,Win32,60.24096386,6,1,11,0.165740741,-0.006481481,1,0,0,0.7517,rock_grid_rect_2,7,08,-1,-1,0.752,0.32962963,-0.238888889,1,0,0,0.666,Gabbro_rect,4,0.666,0,10,0,10,0,1,,,,,,,,,,,,,
632b947efa9da6a9bde31f94,TCN,2024-06-25_12h40.27.433,LearnStrategy,2023.2.3,Win32,60.24096386,6,1,12,-0.141666667,-0.00462963,1,0,0,0.7901,rock_grid_rect_2,1,10,-1,-1,0.79,-0.212962963,-0.251851852,1,0,0,1.036,Basalt_rect,2,1.036,0,11,0,11,0,1,,,,,,,,,,,,,
632b947efa9da6a9bde31f94,TCN,2024-06-25_12h40.27.433,LearnStrategy,2023.2.3,Win32,60.24096386,6,1,13,0.187037037,-0.000925926,1,0,0,0.9917,rock_grid_rect_2,1,16,-1,-1,0.992,0.410185185,-0.271296296,1,0,0,0.6348,Gabbro_rect,4,0.635,0,12,0,12,0,1,,,,,,,,,,,,,
632b947efa9da6a9bde31f94,TCN,2024-06-25_12h40.27.433,LearnStrategy,2023.2.3,Win32,60.24096386,6,1,14,-0.027777778,-0.009259259,1,0,0,0.9313,rock_grid_rect_2,8,05,-1,-1,0.931,-0.138888889,-0.268518519,1,0,0,0.6524,Basalt_rect,2,0.652,0,13,0,13,0,1,,,,,,,,,,,,,
632b947efa9da6a9bde31f94,TCN,2024-06-25_12h40.27.433,LearnStrategy,2023.2.3,Win32,60.24096386,6,1,15,0.180555556,0.001851852,1,0,0,0.9233,rock_grid_rect_2,8,15,-1,-1,0.923,0.307407407,-0.240740741,1,0,0,0.6104,Gabbro_rect,4,0.61,0,14,0,14,0,1,,,,,,,,,,,,,
632b947efa9da6a9bde31f94,TCN,2024-06-25_12h40.27.433,LearnStrategy,2023.2.3,Win32,60.24096386,6,1,16,0.012037037,-0.007407407,1,0,0,1.096,rock_grid_rect_2,3,10,-1,-1,1.096,-0.099074074,-0.246296296,1,0,0,0.6864,Basalt_rect,2,0.686,0,15,0,15,0,1,,,,,,,,,,,,,
632b947efa9da6a9bde31f94,TCN,2024-06-25_12h40.27.433,LearnStrategy,2023.2.3,Win32,60.24096386,6,2,1,,,,,,,,3,15,,,,,,,,,,,2,11.986,0,,,,,,-0.026851852,-0.265740741,1,0,0,11.9863,Basalt_rect,0,0,0,0,1,
632b947efa9da6a9bde31f94,TCN,2024-06-25_12h40.27.433,LearnStrategy,2023.2.3,Win32,60.24096386,6,2,2,,,,,,,,2,12,,,,,,,,,,,3,0.258,0,,,,,,0.146296296,-0.248148148,1,0,0,0.2584,Diorite_rect,1,0,1,0,1,
632b947efa9da6a9bde31f94,TCN,2024-06-25_12h40.27.433,LearnStrategy,2023.2.3,Win32,60.24096386,6,2,3,,,,,,,,6,03,,,,,,,,,,,8,0.183,0,,,,,,0.381481481,-0.407407407,1,0,0,0.1827,Pumice_rect,2,0,2,0,1,
632b947efa9da6a9bde31f94,TCN,2024-06-25_12h40.27.433,LearnStrategy,2023.2.3,Win32,60.24096386,6,2,4,,,,,,,,6,12,,,,,,,,,,,7,0.115,0,,,,,,0.105555556,-0.391666667,1,0,0,0.1155,Peridotite_rect,3,0,3,0,1,
632b947efa9da6a9bde31f94,TCN,2024-06-25_12h40.27.433,LearnStrategy,2023.2.3,Win32,60.24096386,6,2,5,,,,,,,,5,10,,,,,,,,,,,6,1.053,0,,,,,,-0.228703704,-0.405555556,1,0,0,1.0531,Pegmatite_rect,4,0,4,0,1,
632b947efa9da6a9bde31f94,TCN,2024-06-25_12h40.27.433,LearnStrategy,2023.2.3,Win32,60.24096386,6,2,6,,,,,,,,1,05,,,,,,,,,,,5,0.175,0,,,,,,-0.391666667,-0.397222222,1,0,0,0.1754,Obsidian_rect,5,0,5,0,1,
632b947efa9da6a9bde31f94,TCN,2024-06-25_12h40.27.433,LearnStrategy,2023.2.3,Win32,60.24096386,6,2,7,,,,,,,,8,06,,,,,,,,,,,1,0.686,0,,,,,,-0.389814815,-0.240740741,1,0,0,0.6864,Andesite_rect,6,0,6,0,1,
632b947efa9da6a9bde31f94,TCN,2024-06-25_12h40.27.433,LearnStrategy,2023.2.3,Win32,60.24096386,6,2,8,,,,,,,,4,13,,,,,,,,,,,2,0.219,0,,,,,,-0.175925926,-0.243518519,1,0,0,0.2187,Basalt_rect,7,0,7,0,1,
632b947efa9da6a9bde31f94,TCN,2024-06-25_12h40.27.433,LearnStrategy,2023.2.3,Win32,60.24096386,6,2,9,,,,,,,,1,03,,,,,,,,,,,3,0.242,0,,,,,,0.062037037,-0.246296296,1,0,0,0.2415,Diorite_rect,8,0,8,0,1,
632b947efa9da6a9bde31f94,TCN,2024-06-25_12h40.27.433,LearnStrategy,2023.2.3,Win32,60.24096386,6,2,10,,,,,,,,3,16,,,,,,,,,,,4,0.185,0,,,,,,0.348148148,-0.234259259,1,0,0,0.1852,Gabbro_rect,9,0,9,0,1,
632b947efa9da6a9bde31f94,TCN,2024-06-25_12h40.27.433,LearnStrategy,2023.2.3,Win32,60.24096386,6,2,11,,,,,,,,7,04,,,,,,,,,,,8,0.212,0,,,,,,0.378703704,-0.397222222,1,0,0,0.2123,Pumice_rect,10,0,10,0,1,
632b947efa9da6a9bde31f94,TCN,2024-06-25_12h40.27.433,LearnStrategy,2023.2.3,Win32,60.24096386,6,2,12,,,,,,,,8,08,,,,,,,,,,,7,0.196,0,,,,,,0.150925926,-0.405555556,1,0,0,0.1959,Peridotite_rect,11,0,11,0,1,
632b947efa9da6a9bde31f94,TCN,2024-06-25_12h40.27.433,LearnStrategy,2023.2.3,Win32,60.24096386,6,2,13,,,,,,,,4,08,,,,,,,,,,,6,0.188,0,,,,,,-0.102777778,-0.390740741,1,0,0,0.1881,Pegmatite_rect,12,0,12,0,1,
632b947efa9da6a9bde31f94,TCN,2024-06-25_12h40.27.433,LearnStrategy,2023.2.3,Win32,60.24096386,6,2,14,,,,,,,,2,06,,,,,,,,,,,5,0.188,0,,,,,,-0.333333333,-0.384259259,1,0,0,0.1884,Obsidian_rect,13,0,13,0,1,
632b947efa9da6a9bde31f94,TCN,2024-06-25_12h40.27.433,LearnStrategy,2023.2.3,Win32,60.24096386,6,2,15,,,,,,,,7,15,,,,,,,,,,,1,0.222,0,,,,,,-0.331481481,-0.253703704,1,0,0,0.222,Andesite_rect,14,0,14,0,1,
632b947efa9da6a9bde31f94,TCN,2024-06-25_12h40.27.433,LearnStrategy,2023.2.3,Win32,60.24096386,6,2,16,,,,,,,,5,02,,,,,,,,,,,2,0.186,0,,,,,,-0.187037037,-0.263888889,1,0,0,0.186,Basalt_rect,15,0,15,0,1,
632b947efa9da6a9bde31f94,TCN,2024-06-25_12h40.27.433,LearnStrategy,2023.2.3,Win32,60.24096386,7,1,1,0.015740741,0.009259259,1,0,0,5.8849,rock_grid_rect_2,8,03,-1,-1,5.885,0.175,-0.243518519,1,0,0,1.309,Diorite_rect,3,1.309,0,0,0,0,0,1,,,,,,,,,,,,,
632b947efa9da6a9bde31f94,TCN,2024-06-25_12h40.27.433,LearnStrategy,2023.2.3,Win32,60.24096386,7,1,2,0.172222222,-0.012037037,1,0,0,0.9258,rock_grid_rect_2,3,12,-1,-1,0.926,0.400925926,-0.243518519,1,0,0,0.7404,Gabbro_rect,4,0.74,0,1,0,1,0,1,,,,,,,,,,,,,
632b947efa9da6a9bde31f94,TCN,2024-06-25_12h40.27.433,LearnStrategy,2023.2.3,Win32,60.24096386,7,1,3,-0.060185185,-0.012037037,1,0,0,1.2582,rock_grid_rect_2,2,11,-1,-1,1.258,-0.216666667,-0.255555556,1,0,0,0.632,Basalt_rect,2,0.632,1,2,0,2,0,1,,,,,,,,,,,,,
632b947efa9da6a9bde31f94,TCN,2024-06-25_12h40.27.433,LearnStrategy,2023.2.3,Win32,60.24096386,7,1,4,0.085185185,0.006481481,1,0,0,0.8714,rock_grid_rect_2,6,13,-1,-1,0.871,0.139814815,-0.25,1,0,0,0.5079,Diorite_rect,3,0.508,0,3,0,3,0,1,,,,,,,,,,,,,
632b947efa9da6a9bde31f94,TCN,2024-06-25_12h40.27.433,LearnStrategy,2023.2.3,Win32,60.24096386,7,1,5,0.003703704,-0.018518519,1,0,0,1.1894,rock_grid_rect_2,8,09,-1,-1,1.189,-0.093518519,-0.413888889,1,0,0,1.7756,Pegmatite_rect,6,1.776,0,4,0,4,0,1,,,,,,,,,,,,,
632b947efa9da6a9bde31f94,TCN,2024-06-25_12h40.27.433,LearnStrategy,2023.2.3,Win32,60.24096386,7,1,6,0.088888889,0.024074074,1,0,0,0.7756,rock_grid_rect_2,5,07,-1,-1,0.776,0.134259259,-0.386111111,1,0,0,0.8173,Peridotite_rect,7,0.817,0,5,0,5,0,1,,,,,,,,,,,,,
632b947efa9da6a9bde31f94,TCN,2024-06-25_12h40.27.433,LearnStrategy,2023.2.3,Win32,60.24096386,7,1,7,0.150925926,-0.009259259,1,0,0,0.7771,rock_grid_rect_2,4,16,-1,-1,0.777,0.365740741,-0.415740741,1,0,0,0.6209,Pumice_rect,8,0.621,0,6,0,6,0,1,,,,,,,,,,,,,
632b947efa9da6a9bde31f94,TCN,2024-06-25_12h40.27.433,LearnStrategy,2023.2.3,Win32,60.24096386,7,1,8,-0.110185185,-0.003703704,1,0,0,0.8668,rock_grid_rect_2,6,11,-1,-1,0.867,-0.327777778,-0.258333333,1,0,0,0.7769,Andesite_rect,1,0.777,0,7,0,7,0,1,,,,,,,,,,,,,
632b947efa9da6a9bde31f94,TCN,2024-06-25_12h40.27.433,LearnStrategy,2023.2.3,Win32,60.24096386,7,1,9,0.088888889,-0.009259259,1,0,0,0.7524,rock_grid_rect_2,3,10,-1,-1,0.752,0.09537037,-0.261111111,1,0,0,1.1745,Diorite_rect,3,1.175,1,8,0,8,0,1,,,,,,,,,,,,,
632b947efa9da6a9bde31f94,TCN,2024-06-25_12h40.27.433,LearnStrategy,2023.2.3,Win32,60.24096386,7,1,10,-0.075925926,-0.000925926,1,0,0,0.8879,rock_grid_rect_2,1,04,-1,-1,0.888,-0.149074074,-0.260185185,1,0,0,1.1126,Basalt_rect,2,1.113,0,9,0,9,0,1,,,,,,,,,,,,,
632b947efa9da6a9bde31f94,TCN,2024-06-25_12h40.27.433,LearnStrategy,2023.2.3,Win32,60.24096386,7,1,11,0.132407407,-0.007407407,1,0,0,1.0315,rock_grid_rect_2,5,12,-1,-1,1.032,0.166666667,-0.257407407,1,0,0,0.8221,Diorite_rect,3,0.822,0,10,0,10,0,1,,,,,,,,,,,,,
632b947efa9da6a9bde31f94,TCN,2024-06-25_12h40.27.433,LearnStrategy,2023.2.3,Win32,60.24096386,7,1,12,-0.096296296,-0.012037037,1,0,0,0.8711,rock_grid_rect_2,2,08,-1,-1,0.871,-0.184259259,-0.388888889,1,0,0,0.7889,Pegmatite_rect,6,0.789,0,11,0,11,0,1,,,,,,,,,,,,,
632b947efa9da6a9bde31f94,TCN,2024-06-25_12h40.27.433,LearnStrategy,2023.2.3,Win32,60.24096386,7,1,13,0.078703704,0.009259259,1,0,0,0.7388,rock_grid_rect_2,4,03,-1,-1,0.739,0.078703704,-0.416666667,1,0,0,1.5363,Peridotite_rect,7,1.536,0,12,0,12,0,1,,,,,,,,,,,,,
632b947efa9da6a9bde31f94,TCN,2024-06-25_12h40.27.433,LearnStrategy,2023.2.3,Win32,60.24096386,7,1,14,-0.037962963,0.00462963,1,0,0,0.859,rock_grid_rect_2,7,10,-1,-1,0.859,-0.126851852,-0.25,1,0,0,0.6068,Basalt_rect,2,0.607,0,13,0,13,0,1,,,,,,,,,,,,,
632b947efa9da6a9bde31f94,TCN,2024-06-25_12h40.27.433,LearnStrategy,2023.2.3,Win32,60.24096386,7,1,15,0.037962963,-0.000925926,1,0,0,0.7687,rock_grid_rect_2,1,16,-1,-1,0.769,0.376851852,-0.383333333,1,0,0,0.7107,Pumice_rect,8,0.711,0,14,0,14,0,1,,,,,,,,,,,,,
632b947efa9da6a9bde31f94,TCN,2024-06-25_12h40.27.433,LearnStrategy,2023.2.3,Win32,60.24096386,7,1,16,-0.110185185,0.00462963,1,0,0,0.8819,rock_grid_rect_2,7,06,-1,-1,0.882,-0.343518519,-0.249074074,1,0,0,0.8187,Andesite_rect,1,0.819,0,15,0,15,0,1,,,,,,,,,,,,,
632b947efa9da6a9bde31f94,TCN,2024-06-25_12h40.27.433,LearnStrategy,2023.2.3,Win32,60.24096386,7,2,1,,,,,,,,5,06,,,,,,,,,,,3,22.495,0,,,,,,0.117592593,-0.253703704,1,0,0,22.4946,Diorite_rect,0,0,0,0,1,
632b947efa9da6a9bde31f94,TCN,2024-06-25_12h40.27.433,LearnStrategy,2023.2.3,Win32,60.24096386,7,2,2,,,,,,,,4,15,,,,,,,,,,,4,0.679,1,,,,,,0.350925926,-0.252777778,1,0,0,0.6795,Gabbro_rect,1,0,1,0,1,
632b947efa9da6a9bde31f94,TCN,2024-06-25_12h40.27.433,LearnStrategy,2023.2.3,Win32,60.24096386,7,2,3,,,,,,,,4,11,,,,,,,,,,,1,1.256,0,,,,,,-0.369444444,-0.256481481,1,0,0,1.2557,Andesite_rect,2,0,2,0,1,
632b947efa9da6a9bde31f94,TCN,2024-06-25_12h40.27.433,LearnStrategy,2023.2.3,Win32,60.24096386,7,2,4,,,,,,,,2,05,,,,,,,,,,,2,0.517,1,,,,,,-0.185185185,-0.264814815,1,0,0,0.5169,Basalt_rect,3,0,3,0,1,
632b947efa9da6a9bde31f94,TCN,2024-06-25_12h40.27.433,LearnStrategy,2023.2.3,Win32,60.24096386,7,2,5,,,,,,,,8,14,,,,,,,,,,,3,0.265,0,,,,,,0.109259259,-0.262962963,1,0,0,0.2648,Diorite_rect,4,0,4,0,1,
632b947efa9da6a9bde31f94,TCN,2024-06-25_12h40.27.433,LearnStrategy,2023.2.3,Win32,60.24096386,7,2,6,,,,,,,,5,02,,,,,,,,,,,4,0.272,0,,,,,,0.356481481,-0.257407407,1,0,0,0.2716,Gabbro_rect,5,0,5,0,1,
632b947efa9da6a9bde31f94,TCN,2024-06-25_12h40.27.433,LearnStrategy,2023.2.3,Win32,60.24096386,7,2,7,,,,,,,,8,06,,,,,,,,,,,8,0.274,1,,,,,,0.364814815,-0.418518519,1,0,0,0.274,Pumice_rect,6,0,6,0,1,
632b947efa9da6a9bde31f94,TCN,2024-06-25_12h40.27.433,LearnStrategy,2023.2.3,Win32,60.24096386,7,2,8,,,,,,,,1,07,,,,,,,,,,,7,0.217,0,,,,,,0.147222222,-0.410185185,1,0,0,0.217,Peridotite_rect,7,0,7,0,1,
632b947efa9da6a9bde31f94,TCN,2024-06-25_12h40.27.433,LearnStrategy,2023.2.3,Win32,60.24096386,7,2,9,,,,,,,,2,16,,,,,,,,,,,6,0.216,0,,,,,,-0.083333333,-0.403703704,1,0,0,0.2163,Pegmatite_rect,8,0,8,0,1,
632b947efa9da6a9bde31f94,TCN,2024-06-25_12h40.27.433,LearnStrategy,2023.2.3,Win32,60.24096386,7,2,10,,,,,,,,3,06,,,,,,,,,,,5,0.224,0,,,,,,-0.383333333,-0.390740741,1,0,0,0.2244,Obsidian_rect,9,0,9,0,1,
632b947efa9da6a9bde31f94,TCN,2024-06-25_12h40.27.433,LearnStrategy,2023.2.3,Win32,60.24096386,7,2,11,,,,,,,,7,15,,,,,,,,,,,1,0.662,0,,,,,,-0.359259259,-0.249074074,1,0,0,0.6625,Andesite_rect,10,0,10,0,1,
632b947efa9da6a9bde31f94,TCN,2024-06-25_12h40.27.433,LearnStrategy,2023.2.3,Win32,60.24096386,7,2,12,,,,,,,,6,10,,,,,,,,,,,2,0.19,0,,,,,,-0.142592593,-0.265740741,1,0,0,0.1901,Basalt_rect,11,0,11,0,1,
632b947efa9da6a9bde31f94,TCN,2024-06-25_12h40.27.433,LearnStrategy,2023.2.3,Win32,60.24096386,7,2,13,,,,,,,,7,04,,,,,,,,,,,3,0.146,0,,,,,,0.103703704,-0.256481481,1,0,0,0.1455,Diorite_rect,12,0,12,0,1,
632b947efa9da6a9bde31f94,TCN,2024-06-25_12h40.27.433,LearnStrategy,2023.2.3,Win32,60.24096386,7,2,14,,,,,,,,1,14,,,,,,,,,,,4,0.251,0,,,,,,0.349074074,-0.25462963,1,0,0,0.2514,Gabbro_rect,13,0,13,0,1,
632b947efa9da6a9bde31f94,TCN,2024-06-25_12h40.27.433,LearnStrategy,2023.2.3,Win32,60.24096386,7,2,15,,,,,,,,6,06,,,,,,,,,,,8,0.251,0,,,,,,0.383333333,-0.405555556,1,0,0,0.2505,Pumice_rect,14,0,14,0,1,
632b947efa9da6a9bde31f94,TCN,2024-06-25_12h40.27.433,LearnStrategy,2023.2.3,Win32,60.24096386,7,2,16,,,,,,,,3,14,,,,,,,,,,,7,0.777,0,,,,,,0.114814815,-0.42037037,1,0,0,0.7772,Peridotite_rect,15,0,15,0,1,
632b947efa9da6a9bde31f94,TCN,2024-06-25_12h40.27.433,LearnStrategy,2023.2.3,Win32,60.24096386,8,1,1,0.081481481,0.014814815,1,0,0,1.0018,rock_grid_rect_2,2,02,-1,-1,1.002,0.172222222,-0.249074074,1,0,0,1.2656,Diorite_rect,3,1.266,0,0,0,0,0,1,,,,,,,,,,,,,
632b947efa9da6a9bde31f94,TCN,2024-06-25_12h40.27.433,LearnStrategy,2023.2.3,Win32,60.24096386,8,1,2,0.166666667,0.009259259,1,0,0,0.9355,rock_grid_rect_2,4,10,-1,-1,0.936,0.381481481,-0.252777778,1,0,0,0.6399,Gabbro_rect,4,0.64,1,1,0,1,0,1,,,,,,,,,,,,,
632b947efa9da6a9bde31f94,TCN,2024-06-25_12h40.27.433,LearnStrategy,2023.2.3,Win32,60.24096386,8,1,3,-0.10462963,0.002777778,1,0,0,1.2595,rock_grid_rect_2,8,10,-1,-1,1.26,-0.393518519,-0.388888889,1,0,0,0.7987,Obsidian_rect,5,0.799,0,2,0,2,0,1,,,,,,,,,,,,,
632b947efa9da6a9bde31f94,TCN,2024-06-25_12h40.27.433,LearnStrategy,2023.2.3,Win32,60.24096386,8,1,4,-0.057407407,-0.001851852,1,0,0,0.811,rock_grid_rect_2,8,13,-1,-1,0.811,-0.157407407,-0.401851852,1,0,0,0.6908,Pegmatite_rect,6,0.691,0,3,0,3,0,1,,,,,,,,,,,,,
632b947efa9da6a9bde31f94,TCN,2024-06-25_12h40.27.433,LearnStrategy,2023.2.3,Win32,60.24096386,8,1,5,0.072222222,0.00462963,1,0,0,0.8782,rock_grid_rect_2,7,07,-1,-1,0.878,0.067592593,-0.421296296,1,0,0,0.6799,Peridotite_rect,7,0.68,1,4,0,4,0,1,,,,,,,,,,,,,
632b947efa9da6a9bde31f94,TCN,2024-06-25_12h40.27.433,LearnStrategy,2023.2.3,Win32,60.24096386,8,1,6,0.192592593,-0.007407407,1,0,0,0.8626,rock_grid_rect_2,5,14,-1,-1,0.863,0.202777778,-0.251851852,1,0,0,1.5622,Diorite_rect,3,1.562,0,5,0,5,0,1,,,,,,,,,,,,,
632b947efa9da6a9bde31f94,TCN,2024-06-25_12h40.27.433,LearnStrategy,2023.2.3,Win32,60.24096386,8,1,7,0.142592593,-0.010185185,1,0,0,1.1875,rock_grid_rect_2,3,11,-1,-1,1.188,0.389814815,-0.411111111,1,0,0,0.9236,Pumice_rect,8,0.924,0,6,0,6,0,1,,,,,,,,,,,,,
632b947efa9da6a9bde31f94,TCN,2024-06-25_12h40.27.433,LearnStrategy,2023.2.3,Win32,60.24096386,8,1,8,-0.12037037,-0.00462963,1,0,0,0.9619,rock_grid_rect_2,6,08,-1,-1,0.962,-0.324074074,-0.25,1,0,0,0.6828,Andesite_rect,1,0.683,0,7,0,7,0,1,,,,,,,,,,,,,
632b947efa9da6a9bde31f94,TCN,2024-06-25_12h40.27.433,LearnStrategy,2023.2.3,Win32,60.24096386,8,1,9,-0.12037037,-0.007407407,1,0,0,0.8878,rock_grid_rect_2,6,09,-1,-1,0.888,-0.175925926,-0.25462963,1,0,0,0.5447,Basalt_rect,2,0.545,0,8,0,8,0,1,,,,,,,,,,,,,
632b947efa9da6a9bde31f94,TCN,2024-06-25_12h40.27.433,LearnStrategy,2023.2.3,Win32,60.24096386,8,1,10,-0.032407407,-0.000925926,1,0,0,0.7678,rock_grid_rect_2,1,10,-1,-1,0.768,0.081481481,-0.264814815,1,0,0,0.7838,Diorite_rect,3,0.784,0,9,0,9,0,1,,,,,,,,,,,,,
632b947efa9da6a9bde31f94,TCN,2024-06-25_12h40.27.433,LearnStrategy,2023.2.3,Win32,60.24096386,8,1,11,0.142592593,-0.006481481,1,0,0,0.8099,rock_grid_rect_2,2,01,-1,-1,0.81,0.325925926,-0.247222222,1,0,0,0.7153,Gabbro_rect,4,0.715,0,10,0,10,0,1,,,,,,,,,,,,,
632b947efa9da6a9bde31f94,TCN,2024-06-25_12h40.27.433,LearnStrategy,2023.2.3,Win32,60.24096386,8,1,12,-0.125925926,0.000925926,1,0,0,0.7699,rock_grid_rect_2,5,05,-1,-1,0.77,-0.337962963,-0.410185185,1,0,0,1.4715,Obsidian_rect,5,1.472,1,11,0,11,0,1,,,,,,,,,,,,,
632b947efa9da6a9bde31f94,TCN,2024-06-25_12h40.27.433,LearnStrategy,2023.2.3,Win32,60.24096386,8,1,13,-0.074074074,-0.009259259,1,0,0,0.8781,rock_grid_rect_2,4,05,-1,-1,0.878,-0.159259259,-0.402777778,1,0,0,0.6798,Pegmatite_rect,6,0.68,0,12,0,12,0,1,,,,,,,,,,,,,
632b947efa9da6a9bde31f94,TCN,2024-06-25_12h40.27.433,LearnStrategy,2023.2.3,Win32,60.24096386,8,1,14,-0.028703704,-0.012037037,1,0,0,0.7842,rock_grid_rect_2,3,08,-1,-1,0.784,-0.051851852,-0.399074074,1,0,0,0.7782,Pegmatite_rect,6,0.778,0,13,0,13,0,1,,,,,,,,,,,,,
632b947efa9da6a9bde31f94,TCN,2024-06-25_12h40.27.433,LearnStrategy,2023.2.3,Win32,60.24096386,8,1,15,0.059259259,-0.007407407,1,0,0,0.7457,rock_grid_rect_2,1,02,-1,-1,0.746,0.114814815,-0.399074074,1,0,0,0.6651,Peridotite_rect,7,0.665,0,14,0,14,0,1,,,,,,,,,,,,,
632b947efa9da6a9bde31f94,TCN,2024-06-25_12h40.27.433,LearnStrategy,2023.2.3,Win32,60.24096386,8,1,16,0.147222222,-0.003703704,1,0,0,0.8951,rock_grid_rect_2,7,12,-1,-1,0.895,0.349074074,-0.412962963,1,0,0,0.6809,Pumice_rect,8,0.681,0,15,0,15,0,1,,,,,,,,,,,,,
632b947efa9da6a9bde31f94,TCN,2024-06-25_12h40.27.433,LearnStrategy,2023.2.3,Win32,60.24096386,8,2,1,,,,,,,,2,09,,,,,,,,,,,1,4.455,0,,,,,,-0.343518519,-0.231481481,1,0,0,4.4548,Andesite_rect,0,0,0,0,1,
632b947efa9da6a9bde31f94,TCN,2024-06-25_12h40.27.433,LearnStrategy,2023.2.3,Win32,60.24096386,8,2,2,,,,,,,,5,10,,,,,,,,,,,2,1.091,0,,,,,,-0.123148148,-0.265740741,1,0,0,1.0905,Basalt_rect,1,0,1,0,1,
632b947efa9da6a9bde31f94,TCN,2024-06-25_12h40.27.433,LearnStrategy,2023.2.3,Win32,60.24096386,8,2,3,,,,,,,,5,08,,,,,,,,,,,3,0.173,0,,,,,,0.140740741,-0.248148148,1,0,0,0.1728,Diorite_rect,2,0,2,0,1,
632b947efa9da6a9bde31f94,TCN,2024-06-25_12h40.27.433,LearnStrategy,2023.2.3,Win32,60.24096386,8,2,4,,,,,,,,3,09,,,,,,,,,,,4,0.235,0,,,,,,0.39537037,-0.268518519,1,0,0,0.2347,Gabbro_rect,3,0,3,0,1,
632b947efa9da6a9bde31f94,TCN,2024-06-25_12h40.27.433,LearnStrategy,2023.2.3,Win32,60.24096386,8,2,5,,,,,,,,2,06,,,,,,,,,,,8,0.186,0,,,,,,0.419444444,-0.401851852,1,0,0,0.1859,Pumice_rect,4,0,4,0,1,
632b947efa9da6a9bde31f94,TCN,2024-06-25_12h40.27.433,LearnStrategy,2023.2.3,Win32,60.24096386,8,2,6,,,,,,,,4,13,,,,,,,,,,,7,0.173,0,,,,,,0.186111111,-0.415740741,1,0,0,0.1734,Peridotite_rect,5,0,5,0,1,
632b947efa9da6a9bde31f94,TCN,2024-06-25_12h40.27.433,LearnStrategy,2023.2.3,Win32,60.24096386,8,2,7,,,,,,,,3,15,,,,,,,,,,,6,0.174,0,,,,,,-0.127777778,-0.394444444,1,0,0,0.1737,Pegmatite_rect,6,0,6,0,1,
632b947efa9da6a9bde31f94,TCN,2024-06-25_12h40.27.433,LearnStrategy,2023.2.3,Win32,60.24096386,8,2,8,,,,,,,,4,08,,,,,,,,,,,5,0.214,0,,,,,,-0.369444444,-0.403703704,1,0,0,0.2139,Obsidian_rect,7,0,7,0,1,
632b947efa9da6a9bde31f94,TCN,2024-06-25_12h40.27.433,LearnStrategy,2023.2.3,Win32,60.24096386,8,2,9,,,,,,,,7,02,,,,,,,,,,,1,0.207,0,,,,,,-0.401851852,-0.249074074,1,0,0,0.2073,Andesite_rect,8,0,8,0,1,
632b947efa9da6a9bde31f94,TCN,2024-06-25_12h40.27.433,LearnStrategy,2023.2.3,Win32,60.24096386,8,2,10,,,,,,,,7,13,,,,,,,,,,,2,0.12,0,,,,,,-0.131481481,-0.267592593,1,0,0,0.1198,Basalt_rect,9,0,9,0,1,
632b947efa9da6a9bde31f94,TCN,2024-06-25_12h40.27.433,LearnStrategy,2023.2.3,Win32,60.24096386,8,2,11,,,,,,,,6,12,,,,,,,,,,,3,0.173,0,,,,,,0.125925926,-0.260185185,1,0,0,0.1725,Diorite_rect,10,0,10,0,1,
632b947efa9da6a9bde31f94,TCN,2024-06-25_12h40.27.433,LearnStrategy,2023.2.3,Win32,60.24096386,8,2,12,,,,,,,,1,06,,,,,,,,,,,4,0.146,0,,,,,,0.373148148,-0.257407407,1,0,0,0.1459,Gabbro_rect,11,0,11,0,1,
632b947efa9da6a9bde31f94,TCN,2024-06-25_12h40.27.433,LearnStrategy,2023.2.3,Win32,60.24096386,8,2,13,,,,,,,,8,02,,,,,,,,,,,8,0.174,1,,,,,,0.396296296,-0.401851852,1,0,0,0.1735,Pumice_rect,12,0,12,0,1,
632b947efa9da6a9bde31f94,TCN,2024-06-25_12h40.27.433,LearnStrategy,2023.2.3,Win32,60.24096386,8,2,14,,,,,,,,8,16,,,,,,,,,,,7,0.166,0,,,,,,0.14537037,-0.418518519,1,0,0,0.1657,Peridotite_rect,13,0,13,0,1,
632b947efa9da6a9bde31f94,TCN,2024-06-25_12h40.27.433,LearnStrategy,2023.2.3,Win32,60.24096386,8,2,15,,,,,,,,6,03,,,,,,,,,,,6,0.146,1,,,,,,-0.127777778,-0.411111111,1,0,0,0.1455,Pegmatite_rect,14,0,14,0,1,
632b947efa9da6a9bde31f94,TCN,2024-06-25_12h40.27.433,LearnStrategy,2023.2.3,Win32,60.24096386,8,2,16,,,,,,,,1,03,,,,,,,,,,,5,0.211,0,,,,,,-0.35462963,-0.410185185,1,0,0,0.211,Obsidian_rect,15,0,15,0,1,
632b947efa9da6a9bde31f94,TCN,2024-06-25_12h40.27.433,LearnStrategy,2023.2.3,Win32,60.24096386,9,1,1,-0.026851852,0.012962963,1,0,0,1.2161,rock_grid_rect_2,8,15,-1,-1,1.216,0.087962963,-0.246296296,1,0,0,1.4334,Diorite_rect,3,1.433,0,0,0,0,0,1,,,,,,,,,,,,,
632b947efa9da6a9bde31f94,TCN,2024-06-25_12h40.27.433,LearnStrategy,2023.2.3,Win32,60.24096386,9,1,2,-0.150925926,-0.021296296,1,0,0,1.0597,rock_grid_rect_2,5,09,-1,-1,1.06,-0.360185185,-0.235185185,1,0,0,0.6423,Andesite_rect,1,0.642,0,1,0,1,0,1,,,,,,,,,,,,,
632b947efa9da6a9bde31f94,TCN,2024-06-25_12h40.27.433,LearnStrategy,2023.2.3,Win32,60.24096386,9,1,3,-0.101851852,-0.015740741,1,0,0,1.2422,rock_grid_rect_2,3,13,-1,-1,1.242,-0.164814815,-0.268518519,1,0,0,0.7931,Basalt_rect,2,0.793,0,2,0,2,0,1,,,,,,,,,,,,,
632b947efa9da6a9bde31f94,TCN,2024-06-25_12h40.27.433,LearnStrategy,2023.2.3,Win32,60.24096386,9,1,4,0.068518519,-0.015740741,1,0,0,1.5597,rock_grid_rect_2,4,09,-1,-1,1.56,0.062962963,-0.247222222,1,0,0,0.6549,Diorite_rect,3,0.655,0,3,0,3,0,1,,,,,,,,,,,,,
632b947efa9da6a9bde31f94,TCN,2024-06-25_12h40.27.433,LearnStrategy,2023.2.3,Win32,60.24096386,9,1,5,0.149074074,-0.001851852,1,0,0,1.2362,rock_grid_rect_2,5,16,-1,-1,1.236,0.376851852,-0.251851852,1,0,0,0.6143,Gabbro_rect,4,0.614,0,4,0,4,0,1,,,,,,,,,,,,,
632b947efa9da6a9bde31f94,TCN,2024-06-25_12h40.27.433,LearnStrategy,2023.2.3,Win32,60.24096386,9,1,6,-0.131481481,-0.003703704,1,0,0,1.0958,rock_grid_rect_2,2,14,-1,-1,1.096,-0.426851852,-0.391666667,1,0,0,0.8434,Obsidian_rect,5,0.843,0,5,0,5,0,1,,,,,,,,,,,,,
632b947efa9da6a9bde31f94,TCN,2024-06-25_12h40.27.433,LearnStrategy,2023.2.3,Win32,60.24096386,9,1,7,-0.134259259,0.000925926,1,0,0,0.8299,rock_grid_rect_2,7,08,-1,-1,0.83,-0.150925926,-0.412962963,1,0,0,0.7178,Pegmatite_rect,6,0.718,0,6,0,6,0,1,,,,,,,,,,,,,
632b947efa9da6a9bde31f94,TCN,2024-06-25_12h40.27.433,LearnStrategy,2023.2.3,Win32,60.24096386,9,1,8,0.014814815,-0.007407407,1,0,0,0.8325,rock_grid_rect_2,7,14,-1,-1,0.832,0.056481481,-0.407407407,1,0,0,0.624,Peridotite_rect,7,0.624,1,7,0,7,0,1,,,,,,,,,,,,,
632b947efa9da6a9bde31f94,TCN,2024-06-25_12h40.27.433,LearnStrategy,2023.2.3,Win32,60.24096386,9,1,9,0.137037037,-0.003703704,1,0,0,0.8064,rock_grid_rect_2,4,14,-1,-1,0.806,0.340740741,-0.389814815,1,0,0,0.7058,Pumice_rect,8,0.706,0,8,0,8,0,1,,,,,,,,,,,,,
632b947efa9da6a9bde31f94,TCN,2024-06-25_12h40.27.433,LearnStrategy,2023.2.3,Win32,60.24096386,9,1,10,-0.160185185,-0.017592593,1,0,0,0.6918,rock_grid_rect_2,1,01,-1,-1,0.692,-0.352777778,-0.230555556,1,0,0,0.6858,Andesite_rect,1,0.686,1,9,0,9,0,1,,,,,,,,,,,,,
632b947efa9da6a9bde31f94,TCN,2024-06-25_12h40.27.433,LearnStrategy,2023.2.3,Win32,60.24096386,9,1,11,-0.160185185,-0.02037037,1,0,0,0.7192,rock_grid_rect_2,8,05,-1,-1,0.719,-0.15,-0.269444444,1,0,0,0.559,Basalt_rect,2,0.559,0,10,0,10,0,1,,,,,,,,,,,,,
632b947efa9da6a9bde31f94,TCN,2024-06-25_12h40.27.433,LearnStrategy,2023.2.3,Win32,60.24096386,9,1,12,0.07962963,-0.00462963,1,0,0,0.9688,rock_grid_rect_2,6,16,-1,-1,0.969,0.087962963,-0.266666667,1,0,0,0.5971,Diorite_rect,3,0.597,0,11,0,11,0,1,,,,,,,,,,,,,
632b947efa9da6a9bde31f94,TCN,2024-06-25_12h40.27.433,LearnStrategy,2023.2.3,Win32,60.24096386,9,1,13,0.175925926,-0.001851852,1,0,0,1.0653,rock_grid_rect_2,2,04,-1,-1,1.065,0.337962963,-0.237962963,1,0,0,1.3695,Gabbro_rect,4,1.37,0,12,0,12,0,1,,,,,,,,,,,,,
632b947efa9da6a9bde31f94,TCN,2024-06-25_12h40.27.433,LearnStrategy,2023.2.3,Win32,60.24096386,9,1,14,-0.148148148,-0.007407407,1,0,0,0.8183,rock_grid_rect_2,3,07,-1,-1,0.818,-0.190740741,-0.408333333,1,0,0,2.3953,Pegmatite_rect,6,2.395,0,13,0,13,0,1,,,,,,,,,,,,,
632b947efa9da6a9bde31f94,TCN,2024-06-25_12h40.27.433,LearnStrategy,2023.2.3,Win32,60.24096386,9,1,15,0.02962963,-0.006481481,1,0,0,0.9205,rock_grid_rect_2,1,09,-1,-1,0.921,0.098148148,-0.412962963,1,0,0,0.7954,Peridotite_rect,7,0.795,0,14,0,14,0,1,,,,,,,,,,,,,
632b947efa9da6a9bde31f94,TCN,2024-06-25_12h40.27.433,LearnStrategy,2023.2.3,Win32,60.24096386,9,1,16,0.059259259,0.003703704,1,0,0,0.8532,rock_grid_rect_2,6,15,-1,-1,0.853,0.328703704,-0.382407407,1,0,0,0.8268,Pumice_rect,8,0.827,0,15,0,15,0,1,,,,,,,,,,,,,
632b947efa9da6a9bde31f94,TCN,2024-06-25_12h40.27.433,LearnStrategy,2023.2.3,Win32,60.24096386,9,2,1,,,,,,,,2,10,,,,,,,,,,,1,11.975,0,,,,,,-0.312962963,-0.260185185,1,0,0,11.9751,Andesite_rect,0,0,0,0,1,
632b947efa9da6a9bde31f94,TCN,2024-06-25_12h40.27.433,LearnStrategy,2023.2.3,Win32,60.24096386,9,2,2,,,,,,,,2,12,,,,,,,,,,,2,0.25,1,,,,,,-0.184259259,-0.262037037,1,0,0,0.2496,Basalt_rect,1,0,1,0,1,
632b947efa9da6a9bde31f94,TCN,2024-06-25_12h40.27.433,LearnStrategy,2023.2.3,Win32,60.24096386,9,2,3,,,,,,,,6,05,,,,,,,,,,,3,0.285,0,,,,,,0.124074074,-0.27037037,1,0,0,0.2845,Diorite_rect,2,0,2,0,1,
632b947efa9da6a9bde31f94,TCN,2024-06-25_12h40.27.433,LearnStrategy,2023.2.3,Win32,60.24096386,9,2,4,,,,,,,,6,07,,,,,,,,,,,4,0.813,0,,,,,,0.396296296,-0.265740741,1,0,0,0.8131,Gabbro_rect,3,0,3,0,1,
632b947efa9da6a9bde31f94,TCN,2024-06-25_12h40.27.433,LearnStrategy,2023.2.3,Win32,60.24096386,9,2,5,,,,,,,,1,05,,,,,,,,,,,8,0.204,0,,,,,,0.392592593,-0.390740741,1,0,0,0.2041,Pumice_rect,4,0,4,0,1,
632b947efa9da6a9bde31f94,TCN,2024-06-25_12h40.27.433,LearnStrategy,2023.2.3,Win32,60.24096386,9,2,6,,,,,,,,3,16,,,,,,,,,,,7,0.141,0,,,,,,0.141666667,-0.399074074,1,0,0,0.1412,Peridotite_rect,5,0,5,0,1,
632b947efa9da6a9bde31f94,TCN,2024-06-25_12h40.27.433,LearnStrategy,2023.2.3,Win32,60.24096386,9,2,7,,,,,,,,3,02,,,,,,,,,,,6,0.22,0,,,,,,-0.097222222,-0.401851852,1,0,0,0.2199,Pegmatite_rect,6,0,6,0,1,
632b947efa9da6a9bde31f94,TCN,2024-06-25_12h40.27.433,LearnStrategy,2023.2.3,Win32,60.24096386,9,2,8,,,,,,,,5,04,,,,,,,,,,,5,0.243,1,,,,,,-0.362962963,-0.401851852,1,0,0,0.243,Obsidian_rect,7,0,7,0,1,
632b947efa9da6a9bde31f94,TCN,2024-06-25_12h40.27.433,LearnStrategy,2023.2.3,Win32,60.24096386,9,2,9,,,,,,,,8,04,,,,,,,,,,,5,0.38,0,,,,,,-0.392592593,-0.387962963,1,0,0,0.3804,Obsidian_rect,8,0,8,0,1,
632b947efa9da6a9bde31f94,TCN,2024-06-25_12h40.27.433,LearnStrategy,2023.2.3,Win32,60.24096386,9,2,10,,,,,,,,4,12,,,,,,,,,,,6,0.201,0,,,,,,-0.17962963,-0.401851852,1,0,0,0.2009,Pegmatite_rect,9,0,9,0,1,
632b947efa9da6a9bde31f94,TCN,2024-06-25_12h40.27.433,LearnStrategy,2023.2.3,Win32,60.24096386,9,2,11,,,,,,,,8,08,,,,,,,,,,,7,0.179,0,,,,,,0.076851852,-0.405555556,1,0,0,0.1792,Peridotite_rect,10,0,10,0,1,
632b947efa9da6a9bde31f94,TCN,2024-06-25_12h40.27.433,LearnStrategy,2023.2.3,Win32,60.24096386,9,2,12,,,,,,,,7,05,,,,,,,,,,,8,0.228,0,,,,,,0.35462963,-0.390740741,1,0,0,0.2284,Pumice_rect,11,0,11,0,1,
632b947efa9da6a9bde31f94,TCN,2024-06-25_12h40.27.433,LearnStrategy,2023.2.3,Win32,60.24096386,9,2,13,,,,,,,,5,11,,,,,,,,,,,4,0.321,0,,,,,,0.377777778,-0.248148148,1,0,0,0.3212,Gabbro_rect,12,0,12,0,1,
632b947efa9da6a9bde31f94,TCN,2024-06-25_12h40.27.433,LearnStrategy,2023.2.3,Win32,60.24096386,9,2,14,,,,,,,,7,16,,,,,,,,,,,3,0.317,0,,,,,,0.177777778,-0.265740741,1,0,0,0.317,Diorite_rect,13,0,13,0,1,
632b947efa9da6a9bde31f94,TCN,2024-06-25_12h40.27.433,LearnStrategy,2023.2.3,Win32,60.24096386,9,2,15,,,,,,,,4,01,,,,,,,,,,,2,0.212,0,,,,,,-0.05,-0.250925926,1,0,0,0.2124,Basalt_rect,14,0,14,0,1,
632b947efa9da6a9bde31f94,TCN,2024-06-25_12h40.27.433,LearnStrategy,2023.2.3,Win32,60.24096386,9,2,16,,,,,,,,1,11,,,,,,,,,,,1,0.3,1,,,,,,-0.32962963,-0.25462963,1,0,0,0.3002,Andesite_rect,15,0,15,0,1,
632b947efa9da6a9bde31f94,TCN,2024-06-25_12h40.27.433,LearnStrategy,2023.2.3,Win32,60.24096386,,,,,,,,,,,,,,,,,,,,,,,,,,,,,,,,,,,,,,,,,,,0
632b947efa9da6a9bde31f94,TCN,2024-06-25_12h40.27.433,LearnStrategy,2023.2.3,Win32,60.24096386,,,,,,,,,,,,,,,,,,,,,,,,,,,,,,,,,,,,,,,,,,,
632b947efa9da6a9bde31f94,TCN,2024-06-25_12h40.27.433,LearnStrategy,2023.2.3,Win32,60.24096386,,,,,,,,,,,5,16,1,1,,,,,,,,,,,,,,,,,,,,,,,,,,,,,
632b947efa9da6a9bde31f94,TCN,2024-06-25_12h40.27.433,LearnStrategy,2023.2.3,Win32,60.24096386,,,,,,,,,,,5,09,1,2,,,,,,,,,,,,,,,,,,,,,,,,,,,,,
632b947efa9da6a9bde31f94,TCN,2024-06-25_12h40.27.433,LearnStrategy,2023.2.3,Win32,60.24096386,,,,,,,,,,,7,14,1,3,,,,,,,,,,,,,,,,,,,,,,,,,,,,,
632b947efa9da6a9bde31f94,TCN,2024-06-25_12h40.27.433,LearnStrategy,2023.2.3,Win32,60.24096386,,,,,,,,,,,2,02,1,4,,,,,,,,,,,,,,,,,,,,,,,,,,,,,
632b947efa9da6a9bde31f94,TCN,2024-06-25_12h40.27.433,LearnStrategy,2023.2.3,Win32,60.24096386,,,,,,,,,,,3,13,1,5,,,,,,,,,,,,,,,,,,,,,,,,,,,,,
632b947efa9da6a9bde31f94,TCN,2024-06-25_12h40.27.433,LearnStrategy,2023.2.3,Win32,60.24096386,,,,,,,,,,,8,13,1,6,,,,,,,,,,,,,,,,,,,,,,,,,,,,,
632b947efa9da6a9bde31f94,TCN,2024-06-25_12h40.27.433,LearnStrategy,2023.2.3,Win32,60.24096386,,,,,,,,,,,2,14,1,7,,,,,,,,,,,,,,,,,,,,,,,,,,,,,
632b947efa9da6a9bde31f94,TCN,2024-06-25_12h40.27.433,LearnStrategy,2023.2.3,Win32,60.24096386,,,,,,,,,,,3,10,1,8,,,,,,,,,,,,,,,,,,,,,,,,,,,,,
632b947efa9da6a9bde31f94,TCN,2024-06-25_12h40.27.433,LearnStrategy,2023.2.3,Win32,60.24096386,,,,,,,,,,,8,05,2,1,,,,,,,,,,,,,,,,,,,,,,,,,,,,,
632b947efa9da6a9bde31f94,TCN,2024-06-25_12h40.27.433,LearnStrategy,2023.2.3,Win32,60.24096386,,,,,,,,,,,7,10,2,2,,,,,,,,,,,,,,,,,,,,,,,,,,,,,
632b947efa9da6a9bde31f94,TCN,2024-06-25_12h40.27.433,LearnStrategy,2023.2.3,Win32,60.24096386,,,,,,,,,,,5,14,2,3,,,,,,,,,,,,,,,,,,,,,,,,,,,,,
632b947efa9da6a9bde31f94,TCN,2024-06-25_12h40.27.433,LearnStrategy,2023.2.3,Win32,60.24096386,,,,,,,,,,,2,11,2,4,,,,,,,,,,,,,,,,,,,,,,,,,,,,,
632b947efa9da6a9bde31f94,TCN,2024-06-25_12h40.27.433,LearnStrategy,2023.2.3,Win32,60.24096386,,,,,,,,,,,3,08,2,5,,,,,,,,,,,,,,,,,,,,,,,,,,,,,
632b947efa9da6a9bde31f94,TCN,2024-06-25_12h40.27.433,LearnStrategy,2023.2.3,Win32,60.24096386,,,,,,,,,,,4,05,2,6,,,,,,,,,,,,,,,,,,,,,,,,,,,,,
632b947efa9da6a9bde31f94,TCN,2024-06-25_12h40.27.433,LearnStrategy,2023.2.3,Win32,60.24096386,,,,,,,,,,,6,09,2,7,,,,,,,,,,,,,,,,,,,,,,,,,,,,,
632b947efa9da6a9bde31f94,TCN,2024-06-25_12h40.27.433,LearnStrategy,2023.2.3,Win32,60.24096386,,,,,,,,,,,1,16,2,8,,,,,,,,,,,,,,,,,,,,,,,,,,,,,
632b947efa9da6a9bde31f94,TCN,2024-06-25_12h40.27.433,LearnStrategy,2023.2.3,Win32,60.24096386,,,,,,,,,,,7,06,3,1,,,,,,,,,,,,,,,,,,,,,,,,,,,,,
632b947efa9da6a9bde31f94,TCN,2024-06-25_12h40.27.433,LearnStrategy,2023.2.3,Win32,60.24096386,,,,,,,,,,,6,08,3,2,,,,,,,,,,,,,,,,,,,,,,,,,,,,,
632b947efa9da6a9bde31f94,TCN,2024-06-25_12h40.27.433,LearnStrategy,2023.2.3,Win32,60.24096386,,,,,,,,,,,1,01,3,3,,,,,,,,,,,,,,,,,,,,,,,,,,,,,
632b947efa9da6a9bde31f94,TCN,2024-06-25_12h40.27.433,LearnStrategy,2023.2.3,Win32,60.24096386,,,,,,,,,,,8,15,3,4,,,,,,,,,,,,,,,,,,,,,,,,,,,,,
632b947efa9da6a9bde31f94,TCN,2024-06-25_12h40.27.433,LearnStrategy,2023.2.3,Win32,60.24096386,,,,,,,,,,,7,08,3,5,,,,,,,,,,,,,,,,,,,,,,,,,,,,,
632b947efa9da6a9bde31f94,TCN,2024-06-25_12h40.27.433,LearnStrategy,2023.2.3,Win32,60.24096386,,,,,,,,,,,4,09,3,6,,,,,,,,,,,,,,,,,,,,,,,,,,,,,
632b947efa9da6a9bde31f94,TCN,2024-06-25_12h40.27.433,LearnStrategy,2023.2.3,Win32,60.24096386,,,,,,,,,,,7,12,3,7,,,,,,,,,,,,,,,,,,,,,,,,,,,,,
632b947efa9da6a9bde31f94,TCN,2024-06-25_12h40.27.433,LearnStrategy,2023.2.3,Win32,60.24096386,,,,,,,,,,,4,10,3,8,,,,,,,,,,,,,,,,,,,,,,,,,,,,,
632b947efa9da6a9bde31f94,TCN,2024-06-25_12h40.27.433,LearnStrategy,2023.2.3,Win32,60.24096386,,,,,,,,,,,7,07,4,1,,,,,,,,,,,,,,,,,,,,,,,,,,,,,
632b947efa9da6a9bde31f94,TCN,2024-06-25_12h40.27.433,LearnStrategy,2023.2.3,Win32,60.24096386,,,,,,,,,,,2,01,4,2,,,,,,,,,,,,,,,,,,,,,,,,,,,,,
632b947efa9da6a9bde31f94,TCN,2024-06-25_12h40.27.433,LearnStrategy,2023.2.3,Win32,60.24096386,,,,,,,,,,,1,02,4,3,,,,,,,,,,,,,,,,,,,,,,,,,,,,,
632b947efa9da6a9bde31f94,TCN,2024-06-25_12h40.27.433,LearnStrategy,2023.2.3,Win32,60.24096386,,,,,,,,,,,5,12,4,4,,,,,,,,,,,,,,,,,,,,,,,,,,,,,
632b947efa9da6a9bde31f94,TCN,2024-06-25_12h40.27.433,LearnStrategy,2023.2.3,Win32,60.24096386,,,,,,,,,,,4,03,4,5,,,,,,,,,,,,,,,,,,,,,,,,,,,,,
632b947efa9da6a9bde31f94,TCN,2024-06-25_12h40.27.433,LearnStrategy,2023.2.3,Win32,60.24096386,,,,,,,,,,,6,16,4,6,,,,,,,,,,,,,,,,,,,,,,,,,,,,,
632b947efa9da6a9bde31f94,TCN,2024-06-25_12h40.27.433,LearnStrategy,2023.2.3,Win32,60.24096386,,,,,,,,,,,1,10,4,7,,,,,,,,,,,,,,,,,,,,,,,,,,,,,
632b947efa9da6a9bde31f94,TCN,2024-06-25_12h40.27.433,LearnStrategy,2023.2.3,Win32,60.24096386,,,,,,,,,,,1,09,4,8,,,,,,,,,,,,,,,,,,,,,,,,,,,,,
632b947efa9da6a9bde31f94,TCN,2024-06-25_12h40.27.433,LearnStrategy,2023.2.3,Win32,60.24096386,,,,,,,,,,,3,11,5,1,,,,,,,,,,,,,,,,,,,,,,,,,,,,,
632b947efa9da6a9bde31f94,TCN,2024-06-25_12h40.27.433,LearnStrategy,2023.2.3,Win32,60.24096386,,,,,,,,,,,2,08,5,2,,,,,,,,,,,,,,,,,,,,,,,,,,,,,
632b947efa9da6a9bde31f94,TCN,2024-06-25_12h40.27.433,LearnStrategy,2023.2.3,Win32,60.24096386,,,,,,,,,,,6,15,5,3,,,,,,,,,,,,,,,,,,,,,,,,,,,,,
632b947efa9da6a9bde31f94,TCN,2024-06-25_12h40.27.433,LearnStrategy,2023.2.3,Win32,60.24096386,,,,,,,,,,,1,04,5,4,,,,,,,,,,,,,,,,,,,,,,,,,,,,,
632b947efa9da6a9bde31f94,TCN,2024-06-25_12h40.27.433,LearnStrategy,2023.2.3,Win32,60.24096386,,,,,,,,,,,8,03,5,5,,,,,,,,,,,,,,,,,,,,,,,,,,,,,
632b947efa9da6a9bde31f94,TCN,2024-06-25_12h40.27.433,LearnStrategy,2023.2.3,Win32,60.24096386,,,,,,,,,,,8,09,5,6,,,,,,,,,,,,,,,,,,,,,,,,,,,,,
632b947efa9da6a9bde31f94,TCN,2024-06-25_12h40.27.433,LearnStrategy,2023.2.3,Win32,60.24096386,,,,,,,,,,,6,13,5,7,,,,,,,,,,,,,,,,,,,,,,,,,,,,,
632b947efa9da6a9bde31f94,TCN,2024-06-25_12h40.27.433,LearnStrategy,2023.2.3,Win32,60.24096386,,,,,,,,,,,3,12,5,8,,,,,,,,,,,,,,,,,,,,,,,,,,,,,
632b947efa9da6a9bde31f94,TCN,2024-06-25_12h40.27.433,LearnStrategy,2023.2.3,Win32,60.24096386,,,,,,,,,,,6,11,6,1,,,,,,,,,,,,,,,,,,,,,,,,,,,,,
632b947efa9da6a9bde31f94,TCN,2024-06-25_12h40.27.433,LearnStrategy,2023.2.3,Win32,60.24096386,,,,,,,,,,,2,04,6,2,,,,,,,,,,,,,,,,,,,,,,,,,,,,,
632b947efa9da6a9bde31f94,TCN,2024-06-25_12h40.27.433,LearnStrategy,2023.2.3,Win32,60.24096386,,,,,,,,,,,3,07,6,3,,,,,,,,,,,,,,,,,,,,,,,,,,,,,
632b947efa9da6a9bde31f94,TCN,2024-06-25_12h40.27.433,LearnStrategy,2023.2.3,Win32,60.24096386,,,,,,,,,,,4,16,6,4,,,,,,,,,,,,,,,,,,,,,,,,,,,,,
632b947efa9da6a9bde31f94,TCN,2024-06-25_12h40.27.433,LearnStrategy,2023.2.3,Win32,60.24096386,,,,,,,,,,,5,05,6,5,,,,,,,,,,,,,,,,,,,,,,,,,,,,,
632b947efa9da6a9bde31f94,TCN,2024-06-25_12h40.27.433,LearnStrategy,2023.2.3,Win32,60.24096386,,,,,,,,,,,4,14,6,6,,,,,,,,,,,,,,,,,,,,,,,,,,,,,
632b947efa9da6a9bde31f94,TCN,2024-06-25_12h40.27.433,LearnStrategy,2023.2.3,Win32,60.24096386,,,,,,,,,,,5,07,6,7,,,,,,,,,,,,,,,,,,,,,,,,,,,,,
632b947efa9da6a9bde31f94,TCN,2024-06-25_12h40.27.433,LearnStrategy,2023.2.3,Win32,60.24096386,,,,,,,,,,,8,10,6,8,,,,,,,,,,,,,,,,,,,,,,,,,,,,,