participant,condition,date,expName,psychopyVersion,OS,frameRate,block,phase,trial,learn_mouse_2.x,learn_mouse_2.y,learn_mouse_2.leftButton,learn_mouse_2.midButton,learn_mouse_2.rightButton,learn_mouse_2.time,learn_mouse_2.clicked_name,cat,token,row,col,t_select,cat_mouse_l.x,cat_mouse_l.y,cat_mouse_l.leftButton,cat_mouse_l.midButton,cat_mouse_l.rightButton,cat_mouse_l.time,cat_mouse_l.clicked_name,resp,t_resp,corr,train_trials.thisRepN,train_trials.thisTrialN,train_trials.thisN,train_trials.thisIndex,train_trials.ran,cat_mouse_t.x,cat_mouse_t.y,cat_mouse_t.leftButton,cat_mouse_t.midButton,cat_mouse_t.rightButton,cat_mouse_t.time,cat_mouse_t.clicked_name,test_trials.thisRepN,test_trials.thisTrialN,test_trials.thisN,test_trials.thisIndex,test_trials.ran,Bonus
6333926e48c34a5d39353558,TCN,2024-06-20_16h28.27.007,LearnStrategy,2023.2.3,Win32,59.52380952,,,,,,,,,,,,,,,,,,,,,,,,,,,,,,,,,,,,,,,,,,,
6333926e48c34a5d39353558,TCN,2024-06-20_16h28.27.007,LearnStrategy,2023.2.3,Win32,59.52380952,1,1,1,0.1015625,-0.01171875,1,0,0,4.0703,rock_grid_rect_2,3,07,-1,-1,4.07,-0.115885417,-0.243489583,1,0,0,3.6517,Basalt_rect,2,3.652,0,0,0,0,0,1,,,,,,,,,,,,,
6333926e48c34a5d39353558,TCN,2024-06-20_16h28.27.007,LearnStrategy,2023.2.3,Win32,59.52380952,1,1,2,0.014322917,0.006510417,1,0,0,1.5395,rock_grid_rect_2,8,15,-1,-1,1.539,-0.16015625,-0.380208333,1,0,0,2.8599,Pegmatite_rect,6,2.86,0,1,0,1,0,1,,,,,,,,,,,,,
6333926e48c34a5d39353558,TCN,2024-06-20_16h28.27.007,LearnStrategy,2023.2.3,Win32,59.52380952,1,1,3,0.0234375,0.006510417,1,0,0,1.7269,rock_grid_rect_2,1,06,-1,-1,1.727,-0.37109375,-0.393229167,1,0,0,4.8326,Obsidian_rect,5,4.833,0,2,0,2,0,1,,,,,,,,,,,,,
6333926e48c34a5d39353558,TCN,2024-06-20_16h28.27.007,LearnStrategy,2023.2.3,Win32,59.52380952,1,1,4,-0.006510417,0.0078125,1,0,0,1.5501,rock_grid_rect_2,4,05,-1,-1,1.55,-0.108072917,-0.251302083,1,0,0,3.4475,Basalt_rect,2,3.448,0,3,0,3,0,1,,,,,,,,,,,,,
6333926e48c34a5d39353558,TCN,2024-06-20_16h28.27.007,LearnStrategy,2023.2.3,Win32,59.52380952,1,1,5,-0.014322917,0.005208333,1,0,0,1.6658,rock_grid_rect_2,5,09,-1,-1,1.666,-0.337239583,-0.399739583,1,0,0,5.8756,Obsidian_rect,5,5.876,1,4,0,4,0,1,,,,,,,,,,,,,
6333926e48c34a5d39353558,TCN,2024-06-20_16h28.27.007,LearnStrategy,2023.2.3,Win32,59.52380952,1,1,6,0.067708333,0.001302083,1,0,0,1.4881,rock_grid_rect_2,7,12,-1,-1,1.488,-0.145833333,-0.252604167,1,0,0,2.8275,Basalt_rect,2,2.827,0,5,0,5,0,1,,,,,,,,,,,,,
6333926e48c34a5d39353558,TCN,2024-06-20_16h28.27.007,LearnStrategy,2023.2.3,Win32,59.52380952,1,1,7,0.015625,0.005208333,1,0,0,1.8465,rock_grid_rect_2,1,05,-1,-1,1.847,0.08203125,-0.408854167,1,0,0,3.1389,Peridotite_rect,7,3.139,0,6,0,6,0,1,,,,,,,,,,,,,
6333926e48c34a5d39353558,TCN,2024-06-20_16h28.27.007,LearnStrategy,2023.2.3,Win32,59.52380952,1,1,8,0.020833333,-0.00390625,1,0,0,1.4745,rock_grid_rect_2,4,12,-1,-1,1.474,-0.115885417,-0.236979167,1,0,0,3.6264,Basalt_rect,2,3.626,0,7,0,7,0,1,,,,,,,,,,,,,
6333926e48c34a5d39353558,TCN,2024-06-20_16h28.27.007,LearnStrategy,2023.2.3,Win32,59.52380952,1,1,9,-0.01171875,0.005208333,1,0,0,1.5595,rock_grid_rect_2,3,08,-1,-1,1.559,0.138020833,-0.240885417,1,0,0,4.7997,Diorite_rect,3,4.8,1,8,0,8,0,1,,,,,,,,,,,,,
6333926e48c34a5d39353558,TCN,2024-06-20_16h28.27.007,LearnStrategy,2023.2.3,Win32,59.52380952,1,1,10,0.020833333,-0.0078125,1,0,0,1.2451,rock_grid_rect_2,5,07,-1,-1,1.245,-0.350260417,-0.37890625,1,0,0,1.8997,Obsidian_rect,5,1.9,1,9,0,9,0,1,,,,,,,,,,,,,
6333926e48c34a5d39353558,TCN,2024-06-20_16h28.27.007,LearnStrategy,2023.2.3,Win32,59.52380952,1,1,11,-0.024739583,-0.010416667,1,0,0,1.3459,rock_grid_rect_2,2,06,-1,-1,1.346,-0.403645833,-0.40234375,1,0,0,4.4532,Obsidian_rect,5,4.453,0,10,0,10,0,1,,,,,,,,,,,,,
6333926e48c34a5d39353558,TCN,2024-06-20_16h28.27.007,LearnStrategy,2023.2.3,Win32,59.52380952,1,1,12,0.037760417,-0.002604167,1,0,0,1.5628,rock_grid_rect_2,7,13,-1,-1,1.563,0.313802083,-0.399739583,1,0,0,3.7151,Pumice_rect,8,3.715,0,11,0,11,0,1,,,,,,,,,,,,,
6333926e48c34a5d39353558,TCN,2024-06-20_16h28.27.007,LearnStrategy,2023.2.3,Win32,59.52380952,1,1,13,0.001302083,-0.015625,1,0,0,1.4039,rock_grid_rect_2,6,15,-1,-1,1.404,-0.368489583,-0.26171875,1,0,0,5.0757,Andesite_rect,1,5.076,0,12,0,12,0,1,,,,,,,,,,,,,
6333926e48c34a5d39353558,TCN,2024-06-20_16h28.27.007,LearnStrategy,2023.2.3,Win32,59.52380952,1,1,14,-0.016927083,-0.020833333,1,0,0,1.2922,rock_grid_rect_2,2,05,-1,-1,1.292,-0.104166667,-0.247395833,1,0,0,2.3226,Basalt_rect,2,2.323,1,13,0,13,0,1,,,,,,,,,,,,,
6333926e48c34a5d39353558,TCN,2024-06-20_16h28.27.007,LearnStrategy,2023.2.3,Win32,59.52380952,1,1,15,0.02734375,0.014322917,1,0,0,1.3307,rock_grid_rect_2,8,10,-1,-1,1.331,0.07421875,-0.395833333,1,0,0,3.5722,Peridotite_rect,7,3.572,0,14,0,14,0,1,,,,,,,,,,,,,
6333926e48c34a5d39353558,TCN,2024-06-20_16h28.27.007,LearnStrategy,2023.2.3,Win32,59.52380952,1,1,16,-0.0078125,-0.002604167,1,0,0,1.8332,rock_grid_rect_2,6,06,-1,-1,1.833,0.358072917,-0.240885417,1,0,0,4.3758,Gabbro_rect,4,4.376,0,15,0,15,0,1,,,,,,,,,,,,,
6333926e48c34a5d39353558,TCN,2024-06-20_16h28.27.007,LearnStrategy,2023.2.3,Win32,59.52380952,1,2,1,,,,,,,,3,12,,,,,,,,,,,3,7.148,1,,,,,,0.131510417,-0.266927083,1,0,0,7.1475,Diorite_rect,0,0,0,0,1,
6333926e48c34a5d39353558,TCN,2024-06-20_16h28.27.007,LearnStrategy,2023.2.3,Win32,59.52380952,1,2,2,,,,,,,,5,10,,,,,,,,,,,5,2.171,1,,,,,,-0.334635417,-0.401041667,1,0,0,2.1715,Obsidian_rect,1,0,1,0,1,
6333926e48c34a5d39353558,TCN,2024-06-20_16h28.27.007,LearnStrategy,2023.2.3,Win32,59.52380952,1,2,3,,,,,,,,8,08,,,,,,,,,,,7,4.36,0,,,,,,0.192708333,-0.397135417,1,0,0,4.3598,Peridotite_rect,2,0,2,0,1,
6333926e48c34a5d39353558,TCN,2024-06-20_16h28.27.007,LearnStrategy,2023.2.3,Win32,59.52380952,1,2,4,,,,,,,,4,03,,,,,,,,,,,1,4.298,0,,,,,,-0.345052083,-0.233072917,1,0,0,4.2976,Andesite_rect,3,0,3,0,1,
6333926e48c34a5d39353558,TCN,2024-06-20_16h28.27.007,LearnStrategy,2023.2.3,Win32,59.52380952,1,2,5,,,,,,,,2,04,,,,,,,,,,,2,1.685,1,,,,,,-0.119791667,-0.25,1,0,0,1.6855,Basalt_rect,4,0,4,0,1,
6333926e48c34a5d39353558,TCN,2024-06-20_16h28.27.007,LearnStrategy,2023.2.3,Win32,59.52380952,1,2,6,,,,,,,,4,08,,,,,,,,,,,4,8.361,1,,,,,,0.375,-0.252604167,1,0,0,8.3605,Gabbro_rect,5,0,5,0,1,
6333926e48c34a5d39353558,TCN,2024-06-20_16h28.27.007,LearnStrategy,2023.2.3,Win32,59.52380952,1,2,7,,,,,,,,5,12,,,,,,,,,,,5,1.845,1,,,,,,-0.35546875,-0.40234375,1,0,0,1.845,Obsidian_rect,6,0,6,0,1,
6333926e48c34a5d39353558,TCN,2024-06-20_16h28.27.007,LearnStrategy,2023.2.3,Win32,59.52380952,1,2,8,,,,,,,,1,02,,,,,,,,,,,7,8.396,0,,,,,,0.063802083,-0.393229167,1,0,0,8.3964,Peridotite_rect,7,0,7,0,1,
6333926e48c34a5d39353558,TCN,2024-06-20_16h28.27.007,LearnStrategy,2023.2.3,Win32,59.52380952,1,2,9,,,,,,,,8,03,,,,,,,,,,,8,6.079,1,,,,,,0.3671875,-0.399739583,1,0,0,6.0795,Pumice_rect,8,0,8,0,1,
6333926e48c34a5d39353558,TCN,2024-06-20_16h28.27.007,LearnStrategy,2023.2.3,Win32,59.52380952,1,2,10,,,,,,,,7,15,,,,,,,,,,,4,2.234,0,,,,,,0.424479167,-0.270833333,1,0,0,2.2342,Gabbro_rect,9,0,9,0,1,
6333926e48c34a5d39353558,TCN,2024-06-20_16h28.27.007,LearnStrategy,2023.2.3,Win32,59.52380952,1,2,11,,,,,,,,6,13,,,,,,,,,,,1,3.87,0,,,,,,-0.313802083,-0.259114583,1,0,0,3.8701,Andesite_rect,10,0,10,0,1,
6333926e48c34a5d39353558,TCN,2024-06-20_16h28.27.007,LearnStrategy,2023.2.3,Win32,59.52380952,1,2,12,,,,,,,,3,06,,,,,,,,,,,3,4.158,1,,,,,,0.095052083,-0.264322917,1,0,0,4.1577,Diorite_rect,11,0,11,0,1,
6333926e48c34a5d39353558,TCN,2024-06-20_16h28.27.007,LearnStrategy,2023.2.3,Win32,59.52380952,1,2,13,,,,,,,,6,16,,,,,,,,,,,3,4.332,0,,,,,,0.095052083,-0.26953125,1,0,0,4.3316,Diorite_rect,12,0,12,0,1,
6333926e48c34a5d39353558,TCN,2024-06-20_16h28.27.007,LearnStrategy,2023.2.3,Win32,59.52380952,1,2,14,,,,,,,,7,14,,,,,,,,,,,6,3.967,0,,,,,,-0.12890625,-0.381510417,1,0,0,3.9673,Pegmatite_rect,13,0,13,0,1,
6333926e48c34a5d39353558,TCN,2024-06-20_16h28.27.007,LearnStrategy,2023.2.3,Win32,59.52380952,1,2,15,,,,,,,,1,01,,,,,,,,,,,3,5.357,0,,,,,,0.088541667,-0.24609375,1,0,0,5.357,Diorite_rect,14,0,14,0,1,
6333926e48c34a5d39353558,TCN,2024-06-20_16h28.27.007,LearnStrategy,2023.2.3,Win32,59.52380952,1,2,16,,,,,,,,2,09,,,,,,,,,,,2,1.965,1,,,,,,-0.135416667,-0.270833333,1,0,0,1.9651,Basalt_rect,15,0,15,0,1,
6333926e48c34a5d39353558,TCN,2024-06-20_16h28.27.007,LearnStrategy,2023.2.3,Win32,59.52380952,2,1,1,-0.00390625,-0.001302083,1,0,0,2.1754,rock_grid_rect_2,4,15,-1,-1,2.175,0.359375,-0.248697917,1,0,0,3.3959,Gabbro_rect,4,3.396,1,0,0,0,0,1,,,,,,,,,,,,,
6333926e48c34a5d39353558,TCN,2024-06-20_16h28.27.007,LearnStrategy,2023.2.3,Win32,59.52380952,2,1,2,0.01953125,0.01171875,1,0,0,1.1777,rock_grid_rect_2,4,09,-1,-1,1.178,-0.125,-0.239583333,1,0,0,1.9889,Basalt_rect,2,1.989,0,1,0,1,0,1,,,,,,,,,,,,,
6333926e48c34a5d39353558,TCN,2024-06-20_16h28.27.007,LearnStrategy,2023.2.3,Win32,59.52380952,2,1,3,0.029947917,-0.013020833,1,0,0,1.1195,rock_grid_rect_2,5,02,-1,-1,1.119,-0.354166667,-0.397135417,1,0,0,2.5315,Obsidian_rect,5,2.531,1,2,0,2,0,1,,,,,,,,,,,,,
6333926e48c34a5d39353558,TCN,2024-06-20_16h28.27.007,LearnStrategy,2023.2.3,Win32,59.52380952,2,1,4,0.040364583,-0.014322917,1,0,0,1.6928,rock_grid_rect_2,8,02,-1,-1,1.693,0.342447917,-0.391927083,1,0,0,3.2063,Pumice_rect,8,3.206,1,3,0,3,0,1,,,,,,,,,,,,,
6333926e48c34a5d39353558,TCN,2024-06-20_16h28.27.007,LearnStrategy,2023.2.3,Win32,59.52380952,2,1,5,0.001302083,-0.01171875,1,0,0,1.2268,rock_grid_rect_2,1,03,-1,-1,1.227,-0.333333333,-0.25,1,0,0,2.4467,Andesite_rect,1,2.447,1,4,0,4,0,1,,,,,,,,,,,,,
6333926e48c34a5d39353558,TCN,2024-06-20_16h28.27.007,LearnStrategy,2023.2.3,Win32,59.52380952,2,1,6,-0.084635417,0.016927083,1,0,0,1.1796,rock_grid_rect_2,2,02,-1,-1,1.18,-0.34375,-0.239583333,1,0,0,1.2308,Andesite_rect,1,1.231,0,5,0,5,0,1,,,,,,,,,,,,,
6333926e48c34a5d39353558,TCN,2024-06-20_16h28.27.007,LearnStrategy,2023.2.3,Win32,59.52380952,2,1,7,-0.033854167,-0.01171875,1,0,0,1.0626,rock_grid_rect_2,6,08,-1,-1,1.063,0.3515625,-0.247395833,1,0,0,2.4622,Gabbro_rect,4,2.462,0,6,0,6,0,1,,,,,,,,,,,,,
6333926e48c34a5d39353558,TCN,2024-06-20_16h28.27.007,LearnStrategy,2023.2.3,Win32,59.52380952,2,1,8,-0.01171875,-0.005208333,1,0,0,1.5522,rock_grid_rect_2,5,14,-1,-1,1.552,-0.13671875,-0.251302083,1,0,0,2.1274,Basalt_rect,2,2.127,0,7,0,7,0,1,,,,,,,,,,,,,
6333926e48c34a5d39353558,TCN,2024-06-20_16h28.27.007,LearnStrategy,2023.2.3,Win32,59.52380952,2,1,9,-0.001302083,-0.0078125,1,0,0,1.3471,rock_grid_rect_2,7,07,-1,-1,1.347,0.080729167,-0.244791667,1,0,0,2.9143,Diorite_rect,3,2.914,0,8,0,8,0,1,,,,,,,,,,,,,
6333926e48c34a5d39353558,TCN,2024-06-20_16h28.27.007,LearnStrategy,2023.2.3,Win32,59.52380952,2,1,10,-0.018229167,0.009114583,1,0,0,1.0982,rock_grid_rect_2,2,10,-1,-1,1.098,0.088541667,-0.231770833,1,0,0,1.7438,Diorite_rect,3,1.744,0,9,0,9,0,1,,,,,,,,,,,,,
6333926e48c34a5d39353558,TCN,2024-06-20_16h28.27.007,LearnStrategy,2023.2.3,Win32,59.52380952,2,1,11,0.055989583,-0.005208333,1,0,0,1.2059,rock_grid_rect_2,1,07,-1,-1,1.206,-0.110677083,-0.41015625,1,0,0,2.4759,Pegmatite_rect,6,2.476,0,10,0,10,0,1,,,,,,,,,,,,,
6333926e48c34a5d39353558,TCN,2024-06-20_16h28.27.007,LearnStrategy,2023.2.3,Win32,59.52380952,2,1,12,-0.053385417,0.006510417,1,0,0,1.0725,rock_grid_rect_2,6,05,-1,-1,1.072,-0.100260417,-0.411458333,1,0,0,1.8153,Pegmatite_rect,6,1.815,1,11,0,11,0,1,,,,,,,,,,,,,
6333926e48c34a5d39353558,TCN,2024-06-20_16h28.27.007,LearnStrategy,2023.2.3,Win32,59.52380952,2,1,13,-0.015625,-0.009114583,1,0,0,1.0991,rock_grid_rect_2,3,10,-1,-1,1.099,0.346354167,-0.256510417,1,0,0,4.3169,Gabbro_rect,4,4.317,0,12,0,12,0,1,,,,,,,,,,,,,
6333926e48c34a5d39353558,TCN,2024-06-20_16h28.27.007,LearnStrategy,2023.2.3,Win32,59.52380952,2,1,14,0.01171875,-0.00390625,1,0,0,1.2208,rock_grid_rect_2,8,14,-1,-1,1.221,0.34375,-0.40234375,1,0,0,3.2088,Pumice_rect,8,3.209,1,13,0,13,0,1,,,,,,,,,,,,,
6333926e48c34a5d39353558,TCN,2024-06-20_16h28.27.007,LearnStrategy,2023.2.3,Win32,59.52380952,2,1,15,0.00390625,-0.0234375,1,0,0,1.2197,rock_grid_rect_2,3,09,-1,-1,1.22,-0.337239583,-0.266927083,1,0,0,3.1962,Andesite_rect,1,3.196,0,14,0,14,0,1,,,,,,,,,,,,,
6333926e48c34a5d39353558,TCN,2024-06-20_16h28.27.007,LearnStrategy,2023.2.3,Win32,59.52380952,2,1,16,0.002604167,-0.010416667,1,0,0,1.123,rock_grid_rect_2,7,16,-1,-1,1.123,-0.328125,-0.234375,1,0,0,1.5981,Andesite_rect,1,1.598,0,15,0,15,0,1,,,,,,,,,,,,,
6333926e48c34a5d39353558,TCN,2024-06-20_16h28.27.007,LearnStrategy,2023.2.3,Win32,59.52380952,2,2,1,,,,,,,,8,16,,,,,,,,,,,8,2.491,1,,,,,,0.360677083,-0.389322917,1,0,0,2.4913,Pumice_rect,0,0,0,0,1,
6333926e48c34a5d39353558,TCN,2024-06-20_16h28.27.007,LearnStrategy,2023.2.3,Win32,59.52380952,2,2,2,,,,,,,,5,06,,,,,,,,,,,5,1.624,1,,,,,,-0.390625,-0.395833333,1,0,0,1.6245,Obsidian_rect,1,0,1,0,1,
6333926e48c34a5d39353558,TCN,2024-06-20_16h28.27.007,LearnStrategy,2023.2.3,Win32,59.52380952,2,2,3,,,,,,,,3,02,,,,,,,,,,,3,3.797,1,,,,,,0.0703125,-0.251302083,1,0,0,3.7973,Diorite_rect,2,0,2,0,1,
6333926e48c34a5d39353558,TCN,2024-06-20_16h28.27.007,LearnStrategy,2023.2.3,Win32,59.52380952,2,2,4,,,,,,,,2,16,,,,,,,,,,,2,2.79,1,,,,,,-0.125,-0.255208333,1,0,0,2.7903,Basalt_rect,3,0,3,0,1,
6333926e48c34a5d39353558,TCN,2024-06-20_16h28.27.007,LearnStrategy,2023.2.3,Win32,59.52380952,2,2,5,,,,,,,,6,09,,,,,,,,,,,7,1.844,0,,,,,,0.067708333,-0.404947917,1,0,0,1.8444,Peridotite_rect,4,0,4,0,1,
6333926e48c34a5d39353558,TCN,2024-06-20_16h28.27.007,LearnStrategy,2023.2.3,Win32,59.52380952,2,2,6,,,,,,,,6,07,,,,,,,,,,,4,2.76,0,,,,,,0.33203125,-0.270833333,1,0,0,2.7602,Gabbro_rect,5,0,5,0,1,
6333926e48c34a5d39353558,TCN,2024-06-20_16h28.27.007,LearnStrategy,2023.2.3,Win32,59.52380952,2,2,7,,,,,,,,7,05,,,,,,,,,,,4,3.005,0,,,,,,0.385416667,-0.23046875,1,0,0,3.0053,Gabbro_rect,6,0,6,0,1,
6333926e48c34a5d39353558,TCN,2024-06-20_16h28.27.007,LearnStrategy,2023.2.3,Win32,59.52380952,2,2,8,,,,,,,,4,11,,,,,,,,,,,2,1.789,0,,,,,,-0.067708333,-0.2578125,1,0,0,1.7892,Basalt_rect,7,0,7,0,1,
6333926e48c34a5d39353558,TCN,2024-06-20_16h28.27.007,LearnStrategy,2023.2.3,Win32,59.52380952,2,2,9,,,,,,,,1,10,,,,,,,,,,,8,2.204,0,,,,,,0.333333333,-0.4140625,1,0,0,2.2036,Pumice_rect,8,0,8,0,1,
6333926e48c34a5d39353558,TCN,2024-06-20_16h28.27.007,LearnStrategy,2023.2.3,Win32,59.52380952,2,2,10,,,,,,,,2,08,,,,,,,,,,,5,2.365,0,,,,,,-0.364583333,-0.388020833,1,0,0,2.3651,Obsidian_rect,9,0,9,0,1,
6333926e48c34a5d39353558,TCN,2024-06-20_16h28.27.007,LearnStrategy,2023.2.3,Win32,59.52380952,2,2,11,,,,,,,,7,10,,,,,,,,,,,7,2.082,1,,,,,,0.080729167,-0.408854167,1,0,0,2.0825,Peridotite_rect,10,0,10,0,1,
6333926e48c34a5d39353558,TCN,2024-06-20_16h28.27.007,LearnStrategy,2023.2.3,Win32,59.52380952,2,2,12,,,,,,,,8,13,,,,,,,,,,,8,2.245,1,,,,,,0.37890625,-0.391927083,1,0,0,2.245,Pumice_rect,11,0,11,0,1,
6333926e48c34a5d39353558,TCN,2024-06-20_16h28.27.007,LearnStrategy,2023.2.3,Win32,59.52380952,2,2,13,,,,,,,,3,16,,,,,,,,,,,3,2.848,1,,,,,,0.10546875,-0.239583333,1,0,0,2.8477,Diorite_rect,12,0,12,0,1,
6333926e48c34a5d39353558,TCN,2024-06-20_16h28.27.007,LearnStrategy,2023.2.3,Win32,59.52380952,2,2,14,,,,,,,,5,11,,,,,,,,,,,5,1.884,1,,,,,,-0.40625,-0.407552083,1,0,0,1.8843,Obsidian_rect,13,0,13,0,1,
6333926e48c34a5d39353558,TCN,2024-06-20_16h28.27.007,LearnStrategy,2023.2.3,Win32,59.52380952,2,2,15,,,,,,,,4,14,,,,,,,,,,,1,2.61,0,,,,,,-0.384114583,-0.2421875,1,0,0,2.6101,Andesite_rect,14,0,14,0,1,
6333926e48c34a5d39353558,TCN,2024-06-20_16h28.27.007,LearnStrategy,2023.2.3,Win32,59.52380952,2,2,16,,,,,,,,1,09,,,,,,,,,,,6,5.092,0,,,,,,-0.119791667,-0.38671875,1,0,0,5.0916,Pegmatite_rect,15,0,15,0,1,
6333926e48c34a5d39353558,TCN,2024-06-20_16h28.27.007,LearnStrategy,2023.2.3,Win32,59.52380952,3,1,1,0.01171875,-0.002604167,1,0,0,2.3053,rock_grid_rect_2,4,01,-1,-1,2.305,0.088541667,-0.244791667,1,0,0,2.6814,Diorite_rect,3,2.681,0,0,0,0,0,1,,,,,,,,,,,,,
6333926e48c34a5d39353558,TCN,2024-06-20_16h28.27.007,LearnStrategy,2023.2.3,Win32,59.52380952,3,1,2,0.00390625,-0.002604167,1,0,0,1.4197,rock_grid_rect_2,6,10,-1,-1,1.42,0.07421875,-0.390625,1,0,0,1.8608,Peridotite_rect,7,1.861,0,1,0,1,0,1,,,,,,,,,,,,,
6333926e48c34a5d39353558,TCN,2024-06-20_16h28.27.007,LearnStrategy,2023.2.3,Win32,59.52380952,3,1,3,0.015625,-0.0078125,1,0,0,1.0487,rock_grid_rect_2,4,10,-1,-1,1.049,-0.130208333,-0.252604167,1,0,0,2.9119,Basalt_rect,2,2.912,0,2,0,2,0,1,,,,,,,,,,,,,
6333926e48c34a5d39353558,TCN,2024-06-20_16h28.27.007,LearnStrategy,2023.2.3,Win32,59.52380952,3,1,4,0.126302083,-0.013020833,1,0,0,2.0831,rock_grid_rect_2,1,11,-1,-1,2.083,0.0703125,-0.23046875,1,0,0,3.002,Diorite_rect,3,3.002,0,3,0,3,0,1,,,,,,,,,,,,,
6333926e48c34a5d39353558,TCN,2024-06-20_16h28.27.007,LearnStrategy,2023.2.3,Win32,59.52380952,3,1,5,0.006510417,-0.013020833,1,0,0,1.1898,rock_grid_rect_2,7,06,-1,-1,1.19,0.0859375,-0.395833333,1,0,0,2.2744,Peridotite_rect,7,2.274,1,4,0,4,0,1,,,,,,,,,,,,,
6333926e48c34a5d39353558,TCN,2024-06-20_16h28.27.007,LearnStrategy,2023.2.3,Win32,59.52380952,3,1,6,-0.013020833,0.005208333,1,0,0,1.1181,rock_grid_rect_2,6,03,-1,-1,1.118,-0.0625,-0.404947917,1,0,0,2.675,Pegmatite_rect,6,2.675,1,5,0,5,0,1,,,,,,,,,,,,,
6333926e48c34a5d39353558,TCN,2024-06-20_16h28.27.007,LearnStrategy,2023.2.3,Win32,59.52380952,3,1,7,0.009114583,0.018229167,1,0,0,1.2653,rock_grid_rect_2,3,13,-1,-1,1.265,0.09375,-0.23046875,1,0,0,1.6372,Diorite_rect,3,1.637,1,6,0,6,0,1,,,,,,,,,,,,,
6333926e48c34a5d39353558,TCN,2024-06-20_16h28.27.007,LearnStrategy,2023.2.3,Win32,59.52380952,3,1,8,0.016927083,0.024739583,1,0,0,1.0116,rock_grid_rect_2,8,06,-1,-1,1.012,0.358072917,-0.415364583,1,0,0,3.49,Pumice_rect,8,3.49,1,7,0,7,0,1,,,,,,,,,,,,,
6333926e48c34a5d39353558,TCN,2024-06-20_16h28.27.007,LearnStrategy,2023.2.3,Win32,59.52380952,3,1,9,-0.0234375,-0.010416667,1,0,0,1.1182,rock_grid_rect_2,8,04,-1,-1,1.118,0.346354167,-0.233072917,1,0,0,3.1731,Gabbro_rect,4,3.173,0,8,0,8,0,1,,,,,,,,,,,,,
6333926e48c34a5d39353558,TCN,2024-06-20_16h28.27.007,LearnStrategy,2023.2.3,Win32,59.52380952,3,1,10,0.072916667,-0.01171875,1,0,0,1.1318,rock_grid_rect_2,3,15,-1,-1,1.132,0.330729167,-0.2421875,1,0,0,2.0573,Gabbro_rect,4,2.057,0,9,0,9,0,1,,,,,,,,,,,,,
6333926e48c34a5d39353558,TCN,2024-06-20_16h28.27.007,LearnStrategy,2023.2.3,Win32,59.52380952,3,1,11,-0.03125,-0.018229167,1,0,0,1.2502,rock_grid_rect_2,5,05,-1,-1,1.25,-0.407552083,-0.391927083,1,0,0,1.9799,Obsidian_rect,5,1.98,1,10,0,10,0,1,,,,,,,,,,,,,
6333926e48c34a5d39353558,TCN,2024-06-20_16h28.27.007,LearnStrategy,2023.2.3,Win32,59.52380952,3,1,12,0.044270833,-0.009114583,1,0,0,1.1043,rock_grid_rect_2,1,14,-1,-1,1.104,-0.354166667,-0.2421875,1,0,0,3.1059,Andesite_rect,1,3.106,1,11,0,11,0,1,,,,,,,,,,,,,
6333926e48c34a5d39353558,TCN,2024-06-20_16h28.27.007,LearnStrategy,2023.2.3,Win32,59.52380952,3,1,13,-0.002604167,-0.005208333,1,0,0,1.6544,rock_grid_rect_2,2,11,-1,-1,1.654,-0.337239583,-0.270833333,1,0,0,1.6627,Andesite_rect,1,1.663,0,12,0,12,0,1,,,,,,,,,,,,,
6333926e48c34a5d39353558,TCN,2024-06-20_16h28.27.007,LearnStrategy,2023.2.3,Win32,59.52380952,3,1,14,0.041666667,-0.005208333,1,0,0,1.2626,rock_grid_rect_2,7,02,-1,-1,1.263,0.098958333,-0.404947917,1,0,0,1.9574,Peridotite_rect,7,1.957,1,13,0,13,0,1,,,,,,,,,,,,,
6333926e48c34a5d39353558,TCN,2024-06-20_16h28.27.007,LearnStrategy,2023.2.3,Win32,59.52380952,3,1,15,0.033854167,0,1,0,0,1.2832,rock_grid_rect_2,5,04,-1,-1,1.283,-0.380208333,-0.4140625,1,0,0,1.5105,Obsidian_rect,5,1.51,1,14,0,14,0,1,,,,,,,,,,,,,
6333926e48c34a5d39353558,TCN,2024-06-20_16h28.27.007,LearnStrategy,2023.2.3,Win32,59.52380952,3,1,16,0.045572917,0.010416667,1,0,0,1.1679,rock_grid_rect_2,2,14,-1,-1,1.168,-0.084635417,-0.252604167,1,0,0,2.8295,Basalt_rect,2,2.829,1,15,0,15,0,1,,,,,,,,,,,,,
6333926e48c34a5d39353558,TCN,2024-06-20_16h28.27.007,LearnStrategy,2023.2.3,Win32,59.52380952,3,2,1,,,,,,,,4,13,,,,,,,,,,,2,5.589,0,,,,,,-0.09375,-0.26953125,1,0,0,5.5891,Basalt_rect,0,0,0,0,1,
6333926e48c34a5d39353558,TCN,2024-06-20_16h28.27.007,LearnStrategy,2023.2.3,Win32,59.52380952,3,2,2,,,,,,,,6,11,,,,,,,,,,,6,3.817,1,,,,,,-0.102864583,-0.404947917,1,0,0,3.8167,Pegmatite_rect,1,0,1,0,1,
6333926e48c34a5d39353558,TCN,2024-06-20_16h28.27.007,LearnStrategy,2023.2.3,Win32,59.52380952,3,2,3,,,,,,,,2,12,,,,,,,,,,,8,1.777,0,,,,,,0.338541667,-0.395833333,1,0,0,1.7775,Pumice_rect,2,0,2,0,1,
6333926e48c34a5d39353558,TCN,2024-06-20_16h28.27.007,LearnStrategy,2023.2.3,Win32,59.52380952,3,2,4,,,,,,,,2,01,,,,,,,,,,,2,1.749,1,,,,,,-0.091145833,-0.24609375,1,0,0,1.7489,Basalt_rect,3,0,3,0,1,
6333926e48c34a5d39353558,TCN,2024-06-20_16h28.27.007,LearnStrategy,2023.2.3,Win32,59.52380952,3,2,5,,,,,,,,4,16,,,,,,,,,,,4,4.259,1,,,,,,0.376302083,-0.24609375,1,0,0,4.2589,Gabbro_rect,4,0,4,0,1,
6333926e48c34a5d39353558,TCN,2024-06-20_16h28.27.007,LearnStrategy,2023.2.3,Win32,59.52380952,3,2,6,,,,,,,,8,09,,,,,,,,,,,8,1.444,1,,,,,,0.369791667,-0.393229167,1,0,0,1.4444,Pumice_rect,5,0,5,0,1,
6333926e48c34a5d39353558,TCN,2024-06-20_16h28.27.007,LearnStrategy,2023.2.3,Win32,59.52380952,3,2,7,,,,,,,,5,16,,,,,,,,,,,5,1.638,1,,,,,,-0.404947917,-0.393229167,1,0,0,1.638,Obsidian_rect,6,0,6,0,1,
6333926e48c34a5d39353558,TCN,2024-06-20_16h28.27.007,LearnStrategy,2023.2.3,Win32,59.52380952,3,2,8,,,,,,,,3,14,,,,,,,,,,,3,2.081,1,,,,,,0.08984375,-0.23828125,1,0,0,2.0805,Diorite_rect,7,0,7,0,1,
6333926e48c34a5d39353558,TCN,2024-06-20_16h28.27.007,LearnStrategy,2023.2.3,Win32,59.52380952,3,2,9,,,,,,,,3,11,,,,,,,,,,,1,2.377,0,,,,,,-0.346354167,-0.247395833,1,0,0,2.3771,Andesite_rect,8,0,8,0,1,
6333926e48c34a5d39353558,TCN,2024-06-20_16h28.27.007,LearnStrategy,2023.2.3,Win32,59.52380952,3,2,10,,,,,,,,6,12,,,,,,,,,,,3,1.464,0,,,,,,0.100260417,-0.264322917,1,0,0,1.4637,Diorite_rect,9,0,9,0,1,
6333926e48c34a5d39353558,TCN,2024-06-20_16h28.27.007,LearnStrategy,2023.2.3,Win32,59.52380952,3,2,11,,,,,,,,8,05,,,,,,,,,,,8,1.621,1,,,,,,0.325520833,-0.421875,1,0,0,1.621,Pumice_rect,10,0,10,0,1,
6333926e48c34a5d39353558,TCN,2024-06-20_16h28.27.007,LearnStrategy,2023.2.3,Win32,59.52380952,3,2,12,,,,,,,,7,08,,,,,,,,,,,7,4.454,1,,,,,,0.11328125,-0.401041667,1,0,0,4.4538,Peridotite_rect,11,0,11,0,1,
6333926e48c34a5d39353558,TCN,2024-06-20_16h28.27.007,LearnStrategy,2023.2.3,Win32,59.52380952,3,2,13,,,,,,,,5,08,,,,,,,,,,,5,1.517,1,,,,,,-0.341145833,-0.397135417,1,0,0,1.5174,Obsidian_rect,12,0,12,0,1,
6333926e48c34a5d39353558,TCN,2024-06-20_16h28.27.007,LearnStrategy,2023.2.3,Win32,59.52380952,3,2,14,,,,,,,,7,04,,,,,,,,,,,6,1.606,0,,,,,,-0.126302083,-0.40234375,1,0,0,1.6058,Pegmatite_rect,13,0,13,0,1,
6333926e48c34a5d39353558,TCN,2024-06-20_16h28.27.007,LearnStrategy,2023.2.3,Win32,59.52380952,3,2,15,,,,,,,,1,04,,,,,,,,,,,3,3.043,0,,,,,,0.16015625,-0.248697917,1,0,0,3.0435,Diorite_rect,14,0,14,0,1,
6333926e48c34a5d39353558,TCN,2024-06-20_16h28.27.007,LearnStrategy,2023.2.3,Win32,59.52380952,3,2,16,,,,,,,,1,16,,,,,,,,,,,3,1.785,0,,,,,,0.16015625,-0.248697917,1,0,0,1.7848,Diorite_rect,15,0,15,0,1,
6333926e48c34a5d39353558,TCN,2024-06-20_16h28.27.007,LearnStrategy,2023.2.3,Win32,59.52380952,4,1,1,0.0078125,0.0078125,1,0,0,1.2347,rock_grid_rect_2,2,14,-1,-1,1.235,-0.109375,-0.24609375,1,0,0,1.7051,Basalt_rect,2,1.705,1,0,0,0,0,1,,,,,,,,,,,,,
6333926e48c34a5d39353558,TCN,2024-06-20_16h28.27.007,LearnStrategy,2023.2.3,Win32,59.52380952,4,1,2,0.032552083,-0.01171875,1,0,0,1.2999,rock_grid_rect_2,8,02,-1,-1,1.3,0.39453125,-0.415364583,1,0,0,2.242,Pumice_rect,8,2.242,1,1,0,1,0,1,,,,,,,,,,,,,
6333926e48c34a5d39353558,TCN,2024-06-20_16h28.27.007,LearnStrategy,2023.2.3,Win32,59.52380952,4,1,3,0.00390625,-0.002604167,1,0,0,1.0881,rock_grid_rect_2,4,10,-1,-1,1.088,0.0859375,-0.235677083,1,0,0,2.2738,Diorite_rect,3,2.274,0,2,0,2,0,1,,,,,,,,,,,,,
6333926e48c34a5d39353558,TCN,2024-06-20_16h28.27.007,LearnStrategy,2023.2.3,Win32,59.52380952,4,1,4,-0.03125,0.0078125,1,0,0,1.0408,rock_grid_rect_2,1,14,-1,-1,1.041,0.08984375,-0.248697917,1,0,0,2.015,Diorite_rect,3,2.015,0,3,0,3,0,1,,,,,,,,,,,,,
6333926e48c34a5d39353558,TCN,2024-06-20_16h28.27.007,LearnStrategy,2023.2.3,Win32,59.52380952,4,1,5,-0.032552083,0.020833333,1,0,0,1.0571,rock_grid_rect_2,4,01,-1,-1,1.057,0.35546875,-0.235677083,1,0,0,2.0352,Gabbro_rect,4,2.035,1,4,0,4,0,1,,,,,,,,,,,,,
6333926e48c34a5d39353558,TCN,2024-06-20_16h28.27.007,LearnStrategy,2023.2.3,Win32,59.52380952,4,1,6,-0.028645833,-0.015625,1,0,0,1.0594,rock_grid_rect_2,7,12,-1,-1,1.059,0.079427083,-0.385416667,1,0,0,1.9191,Peridotite_rect,7,1.919,1,5,0,5,0,1,,,,,,,,,,,,,
6333926e48c34a5d39353558,TCN,2024-06-20_16h28.27.007,LearnStrategy,2023.2.3,Win32,59.52380952,4,1,7,0.028645833,-0.002604167,1,0,0,1.0211,rock_grid_rect_2,3,10,-1,-1,1.021,0.069010417,-0.26171875,1,0,0,1.6429,Diorite_rect,3,1.643,1,6,0,6,0,1,,,,,,,,,,,,,
6333926e48c34a5d39353558,TCN,2024-06-20_16h28.27.007,LearnStrategy,2023.2.3,Win32,59.52380952,4,1,8,-0.02734375,0.006510417,1,0,0,1.025,rock_grid_rect_2,6,03,-1,-1,1.025,-0.083333333,-0.399739583,1,0,0,1.5904,Pegmatite_rect,6,1.59,1,7,0,7,0,1,,,,,,,,,,,,,
6333926e48c34a5d39353558,TCN,2024-06-20_16h28.27.007,LearnStrategy,2023.2.3,Win32,59.52380952,4,1,9,-0.026041667,-0.00390625,1,0,0,0.971,rock_grid_rect_2,5,07,-1,-1,0.971,-0.337239583,-0.391927083,1,0,0,1.33,Obsidian_rect,5,1.33,1,8,0,8,0,1,,,,,,,,,,,,,
6333926e48c34a5d39353558,TCN,2024-06-20_16h28.27.007,LearnStrategy,2023.2.3,Win32,59.52380952,4,1,10,-0.002604167,0.013020833,1,0,0,1.831,rock_grid_rect_2,2,10,-1,-1,1.831,-0.1171875,-0.248697917,1,0,0,1.125,Basalt_rect,2,1.125,1,9,0,9,0,1,,,,,,,,,,,,,
6333926e48c34a5d39353558,TCN,2024-06-20_16h28.27.007,LearnStrategy,2023.2.3,Win32,59.52380952,4,1,11,-0.0078125,-0.01171875,1,0,0,1.0209,rock_grid_rect_2,6,10,-1,-1,1.021,0.149739583,-0.397135417,1,0,0,1.6279,Peridotite_rect,7,1.628,0,10,0,10,0,1,,,,,,,,,,,,,
6333926e48c34a5d39353558,TCN,2024-06-20_16h28.27.007,LearnStrategy,2023.2.3,Win32,59.52380952,4,1,12,-0.0078125,-0.020833333,1,0,0,0.9297,rock_grid_rect_2,5,04,-1,-1,0.93,-0.365885417,-0.41015625,1,0,0,1.4149,Obsidian_rect,5,1.415,1,11,0,11,0,1,,,,,,,,,,,,,
6333926e48c34a5d39353558,TCN,2024-06-20_16h28.27.007,LearnStrategy,2023.2.3,Win32,59.52380952,4,1,13,-0.0078125,0.001302083,1,0,0,1.6795,rock_grid_rect_2,1,03,-1,-1,1.68,-0.34375,-0.260416667,1,0,0,2.722,Andesite_rect,1,2.722,1,12,0,12,0,1,,,,,,,,,,,,,
6333926e48c34a5d39353558,TCN,2024-06-20_16h28.27.007,LearnStrategy,2023.2.3,Win32,59.52380952,4,1,14,-0.002604167,0.005208333,1,0,0,1.0089,rock_grid_rect_2,7,16,-1,-1,1.009,0.084635417,-0.4140625,1,0,0,1.7411,Peridotite_rect,7,1.741,1,13,0,13,0,1,,,,,,,,,,,,,
6333926e48c34a5d39353558,TCN,2024-06-20_16h28.27.007,LearnStrategy,2023.2.3,Win32,59.52380952,4,1,15,0.001302083,0.001302083,1,0,0,0.9522,rock_grid_rect_2,8,10,-1,-1,0.952,0.354166667,-0.4140625,1,0,0,1.6689,Pumice_rect,8,1.669,1,14,0,14,0,1,,,,,,,,,,,,,
6333926e48c34a5d39353558,TCN,2024-06-20_16h28.27.007,LearnStrategy,2023.2.3,Win32,59.52380952,4,1,16,0.01953125,0.006510417,1,0,0,0.9912,rock_grid_rect_2,3,08,-1,-1,0.991,0.127604167,-0.247395833,1,0,0,1.7226,Diorite_rect,3,1.723,1,15,0,15,0,1,,,,,,,,,,,,,
6333926e48c34a5d39353558,TCN,2024-06-20_16h28.27.007,LearnStrategy,2023.2.3,Win32,59.52380952,4,2,1,,,,,,,,6,11,,,,,,,,,,,4,6.31,0,,,,,,0.3515625,-0.2578125,1,0,0,6.3097,Gabbro_rect,0,0,0,0,1,
6333926e48c34a5d39353558,TCN,2024-06-20_16h28.27.007,LearnStrategy,2023.2.3,Win32,59.52380952,4,2,2,,,,,,,,3,11,,,,,,,,,,,3,1.43,1,,,,,,0.188802083,-0.23828125,1,0,0,1.43,Diorite_rect,1,0,1,0,1,
6333926e48c34a5d39353558,TCN,2024-06-20_16h28.27.007,LearnStrategy,2023.2.3,Win32,59.52380952,4,2,3,,,,,,,,3,16,,,,,,,,,,,3,0.874,1,,,,,,0.188802083,-0.23828125,1,0,0,0.8735,Diorite_rect,2,0,2,0,1,
6333926e48c34a5d39353558,TCN,2024-06-20_16h28.27.007,LearnStrategy,2023.2.3,Win32,59.52380952,4,2,4,,,,,,,,2,12,,,,,,,,,,,8,2.615,0,,,,,,0.360677083,-0.401041667,1,0,0,2.6147,Pumice_rect,3,0,3,0,1,
6333926e48c34a5d39353558,TCN,2024-06-20_16h28.27.007,LearnStrategy,2023.2.3,Win32,59.52380952,4,2,5,,,,,,,,8,13,,,,,,,,,,,8,0.965,1,,,,,,0.360677083,-0.401041667,1,0,0,0.9654,Pumice_rect,4,0,4,0,1,
6333926e48c34a5d39353558,TCN,2024-06-20_16h28.27.007,LearnStrategy,2023.2.3,Win32,59.52380952,4,2,6,,,,,,,,2,01,,,,,,,,,,,2,1.52,1,,,,,,-0.111979167,-0.26953125,1,0,0,1.5203,Basalt_rect,5,0,5,0,1,
6333926e48c34a5d39353558,TCN,2024-06-20_16h28.27.007,LearnStrategy,2023.2.3,Win32,59.52380952,4,2,7,,,,,,,,7,08,,,,,,,,,,,6,2.678,0,,,,,,-0.08203125,-0.40625,1,0,0,2.6782,Pegmatite_rect,6,0,6,0,1,
6333926e48c34a5d39353558,TCN,2024-06-20_16h28.27.007,LearnStrategy,2023.2.3,Win32,59.52380952,4,2,8,,,,,,,,4,13,,,,,,,,,,,1,4.114,0,,,,,,-0.358072917,-0.2421875,1,0,0,4.1139,Andesite_rect,7,0,7,0,1,
6333926e48c34a5d39353558,TCN,2024-06-20_16h28.27.007,LearnStrategy,2023.2.3,Win32,59.52380952,4,2,9,,,,,,,,5,12,,,,,,,,,,,5,1.363,1,,,,,,-0.376302083,-0.393229167,1,0,0,1.3627,Obsidian_rect,8,0,8,0,1,
6333926e48c34a5d39353558,TCN,2024-06-20_16h28.27.007,LearnStrategy,2023.2.3,Win32,59.52380952,4,2,10,,,,,,,,5,06,,,,,,,,,,,5,0.833,1,,,,,,-0.376302083,-0.393229167,1,0,0,0.8327,Obsidian_rect,9,0,9,0,1,
6333926e48c34a5d39353558,TCN,2024-06-20_16h28.27.007,LearnStrategy,2023.2.3,Win32,59.52380952,4,2,11,,,,,,,,1,10,,,,,,,,,,,3,3.163,0,,,,,,0.049479167,-0.2421875,1,0,0,3.1632,Diorite_rect,10,0,10,0,1,
6333926e48c34a5d39353558,TCN,2024-06-20_16h28.27.007,LearnStrategy,2023.2.3,Win32,59.52380952,4,2,12,,,,,,,,4,11,,,,,,,,,,,3,1.41,0,,,,,,0.049479167,-0.2421875,1,0,0,1.4099,Diorite_rect,11,0,11,0,1,
6333926e48c34a5d39353558,TCN,2024-06-20_16h28.27.007,LearnStrategy,2023.2.3,Win32,59.52380952,4,2,13,,,,,,,,6,09,,,,,,,,,,,7,1.726,0,,,,,,0.0625,-0.399739583,1,0,0,1.7256,Peridotite_rect,12,0,12,0,1,
6333926e48c34a5d39353558,TCN,2024-06-20_16h28.27.007,LearnStrategy,2023.2.3,Win32,59.52380952,4,2,14,,,,,,,,1,16,,,,,,,,,,,3,2.063,0,,,,,,0.092447917,-0.270833333,1,0,0,2.063,Diorite_rect,13,0,13,0,1,
6333926e48c34a5d39353558,TCN,2024-06-20_16h28.27.007,LearnStrategy,2023.2.3,Win32,59.52380952,4,2,15,,,,,,,,8,05,,,,,,,,,,,8,1.53,1,,,,,,0.33984375,-0.419270833,1,0,0,1.5299,Pumice_rect,14,0,14,0,1,
6333926e48c34a5d39353558,TCN,2024-06-20_16h28.27.007,LearnStrategy,2023.2.3,Win32,59.52380952,4,2,16,,,,,,,,7,05,,,,,,,,,,,4,2.42,0,,,,,,0.372395833,-0.25390625,1,0,0,2.4205,Gabbro_rect,15,0,15,0,1,
6333926e48c34a5d39353558,TCN,2024-06-20_16h28.27.007,LearnStrategy,2023.2.3,Win32,59.52380952,5,1,1,0.069010417,-0.002604167,1,0,0,1.065,rock_grid_rect_2,4,15,-1,-1,1.065,0.115885417,-0.259114583,1,0,0,1.9082,Diorite_rect,3,1.908,0,0,0,0,0,1,,,,,,,,,,,,,
6333926e48c34a5d39353558,TCN,2024-06-20_16h28.27.007,LearnStrategy,2023.2.3,Win32,59.52380952,5,1,2,0.0234375,-0.018229167,1,0,0,1.1537,rock_grid_rect_2,5,02,-1,-1,1.154,-0.354166667,-0.401041667,1,0,0,2.2037,Obsidian_rect,5,2.204,1,1,0,1,0,1,,,,,,,,,,,,,
6333926e48c34a5d39353558,TCN,2024-06-20_16h28.27.007,LearnStrategy,2023.2.3,Win32,59.52380952,5,1,3,0.032552083,-0.01171875,1,0,0,1.2185,rock_grid_rect_2,7,06,-1,-1,1.218,0.055989583,-0.391927083,1,0,0,1.9673,Peridotite_rect,7,1.967,1,2,0,2,0,1,,,,,,,,,,,,,
6333926e48c34a5d39353558,TCN,2024-06-20_16h28.27.007,LearnStrategy,2023.2.3,Win32,59.52380952,5,1,4,-0.013020833,0.001302083,1,0,0,1.5192,rock_grid_rect_2,8,04,-1,-1,1.519,0.384114583,-0.384114583,1,0,0,2.4564,Pumice_rect,8,2.456,1,3,0,3,0,1,,,,,,,,,,,,,
6333926e48c34a5d39353558,TCN,2024-06-20_16h28.27.007,LearnStrategy,2023.2.3,Win32,59.52380952,5,1,5,0.041666667,0,1,0,0,2.7856,rock_grid_rect_2,1,05,-1,-1,2.786,-0.3984375,-0.26171875,1,0,0,3.4963,Andesite_rect,1,3.496,1,4,0,4,0,1,,,,,,,,,,,,,
6333926e48c34a5d39353558,TCN,2024-06-20_16h28.27.007,LearnStrategy,2023.2.3,Win32,59.52380952,5,1,6,0.018229167,-0.00390625,1,0,0,1.4734,rock_grid_rect_2,2,11,-1,-1,1.473,0.358072917,-0.399739583,1,0,0,2.7666,Pumice_rect,8,2.767,0,5,0,5,0,1,,,,,,,,,,,,,
6333926e48c34a5d39353558,TCN,2024-06-20_16h28.27.007,LearnStrategy,2023.2.3,Win32,59.52380952,5,1,7,-0.002604167,-0.020833333,1,0,0,1.2257,rock_grid_rect_2,4,09,-1,-1,1.226,-0.177083333,-0.243489583,1,0,0,2.2454,Basalt_rect,2,2.245,0,6,0,6,0,1,,,,,,,,,,,,,
6333926e48c34a5d39353558,TCN,2024-06-20_16h28.27.007,LearnStrategy,2023.2.3,Win32,59.52380952,5,1,8,-0.016927083,0.002604167,1,0,0,1.0295,rock_grid_rect_2,6,15,-1,-1,1.029,0.14453125,-0.393229167,1,0,0,1.818,Peridotite_rect,7,1.818,0,7,0,7,0,1,,,,,,,,,,,,,
6333926e48c34a5d39353558,TCN,2024-06-20_16h28.27.007,LearnStrategy,2023.2.3,Win32,59.52380952,5,1,9,0.002604167,-0.013020833,1,0,0,1.1091,rock_grid_rect_2,5,05,-1,-1,1.109,-0.337239583,-0.39453125,1,0,0,1.8581,Obsidian_rect,5,1.858,1,8,0,8,0,1,,,,,,,,,,,,,
6333926e48c34a5d39353558,TCN,2024-06-20_16h28.27.007,LearnStrategy,2023.2.3,Win32,59.52380952,5,1,10,-0.005208333,0.001302083,1,0,0,1.5101,rock_grid_rect_2,3,07,-1,-1,1.51,0.139322917,-0.266927083,1,0,0,2.6686,Diorite_rect,3,2.669,1,9,0,9,0,1,,,,,,,,,,,,,
6333926e48c34a5d39353558,TCN,2024-06-20_16h28.27.007,LearnStrategy,2023.2.3,Win32,59.52380952,5,1,11,-0.037760417,-0.001302083,1,0,0,1.039,rock_grid_rect_2,8,14,-1,-1,1.039,0.3515625,-0.389322917,1,0,0,2.9343,Pumice_rect,8,2.934,1,10,0,10,0,1,,,,,,,,,,,,,
6333926e48c34a5d39353558,TCN,2024-06-20_16h28.27.007,LearnStrategy,2023.2.3,Win32,59.52380952,5,1,12,0.0078125,-0.002604167,1,0,0,1.2614,rock_grid_rect_2,7,13,-1,-1,1.261,-0.0625,-0.399739583,1,0,0,2.4258,Pegmatite_rect,6,2.426,0,11,0,11,0,1,,,,,,,,,,,,,
6333926e48c34a5d39353558,TCN,2024-06-20_16h28.27.007,LearnStrategy,2023.2.3,Win32,59.52380952,5,1,13,0.055989583,-0.015625,1,0,0,1.6626,rock_grid_rect_2,3,09,-1,-1,1.663,0.106770833,-0.23828125,1,0,0,1.4278,Diorite_rect,3,1.428,1,12,0,12,0,1,,,,,,,,,,,,,
6333926e48c34a5d39353558,TCN,2024-06-20_16h28.27.007,LearnStrategy,2023.2.3,Win32,59.52380952,5,1,14,0.036458333,0.024739583,1,0,0,1.5291,rock_grid_rect_2,2,05,-1,-1,1.529,-0.125,-0.256510417,1,0,0,1.5928,Basalt_rect,2,1.593,1,13,0,13,0,1,,,,,,,,,,,,,
6333926e48c34a5d39353558,TCN,2024-06-20_16h28.27.007,LearnStrategy,2023.2.3,Win32,59.52380952,5,1,15,-0.037760417,-0.015625,1,0,0,1.0769,rock_grid_rect_2,1,11,-1,-1,1.077,-0.342447917,-0.248697917,1,0,0,3.2212,Andesite_rect,1,3.221,1,14,0,14,0,1,,,,,,,,,,,,,
6333926e48c34a5d39353558,TCN,2024-06-20_16h28.27.007,LearnStrategy,2023.2.3,Win32,59.52380952,5,1,16,0.009114583,0.016927083,1,0,0,1.1438,rock_grid_rect_2,6,05,-1,-1,1.144,0.334635417,-0.244791667,1,0,0,4.7237,Gabbro_rect,4,4.724,0,15,0,15,0,1,,,,,,,,,,,,,
6333926e48c34a5d39353558,TCN,2024-06-20_16h28.27.007,LearnStrategy,2023.2.3,Win32,59.52380952,5,2,1,,,,,,,,8,03,,,,,,,,,,,8,2.604,1,,,,,,0.330729167,-0.391927083,1,0,0,2.6044,Pumice_rect,0,0,0,0,1,
6333926e48c34a5d39353558,TCN,2024-06-20_16h28.27.007,LearnStrategy,2023.2.3,Win32,59.52380952,5,2,2,,,,,,,,7,04,,,,,,,,,,,7,2.766,1,,,,,,0.108072917,-0.397135417,1,0,0,2.7657,Peridotite_rect,1,0,1,0,1,
6333926e48c34a5d39353558,TCN,2024-06-20_16h28.27.007,LearnStrategy,2023.2.3,Win32,59.52380952,5,2,3,,,,,,,,3,06,,,,,,,,,,,1,4.891,0,,,,,,-0.328125,-0.231770833,1,0,0,4.8911,Andesite_rect,2,0,2,0,1,
6333926e48c34a5d39353558,TCN,2024-06-20_16h28.27.007,LearnStrategy,2023.2.3,Win32,59.52380952,5,2,4,,,,,,,,3,12,,,,,,,,,,,3,1.486,1,,,,,,0.114583333,-0.255208333,1,0,0,1.4864,Diorite_rect,3,0,3,0,1,
6333926e48c34a5d39353558,TCN,2024-06-20_16h28.27.007,LearnStrategy,2023.2.3,Win32,59.52380952,5,2,5,,,,,,,,6,07,,,,,,,,,,,6,3.285,1,,,,,,-0.09765625,-0.408854167,1,0,0,3.2853,Pegmatite_rect,4,0,4,0,1,
6333926e48c34a5d39353558,TCN,2024-06-20_16h28.27.007,LearnStrategy,2023.2.3,Win32,59.52380952,5,2,6,,,,,,,,7,14,,,,,,,,,,,4,3.041,0,,,,,,0.338541667,-0.259114583,1,0,0,3.0414,Gabbro_rect,5,0,5,0,1,
6333926e48c34a5d39353558,TCN,2024-06-20_16h28.27.007,LearnStrategy,2023.2.3,Win32,59.52380952,5,2,7,,,,,,,,4,03,,,,,,,,,,,3,2.798,0,,,,,,0.12109375,-0.256510417,1,0,0,2.7983,Diorite_rect,6,0,6,0,1,
6333926e48c34a5d39353558,TCN,2024-06-20_16h28.27.007,LearnStrategy,2023.2.3,Win32,59.52380952,5,2,8,,,,,,,,2,16,,,,,,,,,,,2,2.314,1,,,,,,-0.078125,-0.259114583,1,0,0,2.3143,Basalt_rect,7,0,7,0,1,
6333926e48c34a5d39353558,TCN,2024-06-20_16h28.27.007,LearnStrategy,2023.2.3,Win32,59.52380952,5,2,9,,,,,,,,6,13,,,,,,,,,,,7,3.417,0,,,,,,0.092447917,-0.407552083,1,0,0,3.4173,Peridotite_rect,8,0,8,0,1,
6333926e48c34a5d39353558,TCN,2024-06-20_16h28.27.007,LearnStrategy,2023.2.3,Win32,59.52380952,5,2,10,,,,,,,,4,16,,,,,,,,,,,1,4.354,0,,,,,,-0.338541667,-0.236979167,1,0,0,4.3537,Andesite_rect,9,0,9,0,1,
6333926e48c34a5d39353558,TCN,2024-06-20_16h28.27.007,LearnStrategy,2023.2.3,Win32,59.52380952,5,2,11,,,,,,,,1,01,,,,,,,,,,,2,3.642,0,,,,,,-0.118489583,-0.256510417,1,0,0,3.6422,Basalt_rect,10,0,10,0,1,
6333926e48c34a5d39353558,TCN,2024-06-20_16h28.27.007,LearnStrategy,2023.2.3,Win32,59.52380952,5,2,12,,,,,,,,5,10,,,,,,,,,,,5,1.449,1,,,,,,-0.3203125,-0.395833333,1,0,0,1.4486,Obsidian_rect,11,0,11,0,1,
6333926e48c34a5d39353558,TCN,2024-06-20_16h28.27.007,LearnStrategy,2023.2.3,Win32,59.52380952,5,2,13,,,,,,,,8,16,,,,,,,,,,,8,1.666,1,,,,,,0.32421875,-0.388020833,1,0,0,1.666,Pumice_rect,12,0,12,0,1,
6333926e48c34a5d39353558,TCN,2024-06-20_16h28.27.007,LearnStrategy,2023.2.3,Win32,59.52380952,5,2,14,,,,,,,,5,11,,,,,,,,,,,5,1.364,1,,,,,,-0.368489583,-0.41015625,1,0,0,1.3643,Obsidian_rect,13,0,13,0,1,
6333926e48c34a5d39353558,TCN,2024-06-20_16h28.27.007,LearnStrategy,2023.2.3,Win32,59.52380952,5,2,15,,,,,,,,1,04,,,,,,,,,,,3,3.786,0,,,,,,0.0859375,-0.263020833,1,0,0,3.7863,Diorite_rect,14,0,14,0,1,
6333926e48c34a5d39353558,TCN,2024-06-20_16h28.27.007,LearnStrategy,2023.2.3,Win32,59.52380952,5,2,16,,,,,,,,2,09,,,,,,,,,,,1,3.572,0,,,,,,-0.34765625,-0.251302083,1,0,0,3.5724,Andesite_rect,15,0,15,0,1,
6333926e48c34a5d39353558,TCN,2024-06-20_16h28.27.007,LearnStrategy,2023.2.3,Win32,59.52380952,6,1,1,0.022135417,-0.005208333,1,0,0,1.8143,rock_grid_rect_2,1,07,-1,-1,1.814,0.12109375,-0.25390625,1,0,0,2.5971,Diorite_rect,3,2.597,0,0,0,0,0,1,,,,,,,,,,,,,
6333926e48c34a5d39353558,TCN,2024-06-20_16h28.27.007,LearnStrategy,2023.2.3,Win32,59.52380952,6,1,2,0.0078125,-0.020833333,1,0,0,1.2141,rock_grid_rect_2,7,07,-1,-1,1.214,0.069010417,-0.39453125,1,0,0,1.8344,Peridotite_rect,7,1.834,1,1,0,1,0,1,,,,,,,,,,,,,
6333926e48c34a5d39353558,TCN,2024-06-20_16h28.27.007,LearnStrategy,2023.2.3,Win32,59.52380952,6,1,3,0.03125,-0.009114583,1,0,0,1.2702,rock_grid_rect_2,1,06,-1,-1,1.27,0.102864583,-0.260416667,1,0,0,1.6901,Diorite_rect,3,1.69,0,2,0,2,0,1,,,,,,,,,,,,,
6333926e48c34a5d39353558,TCN,2024-06-20_16h28.27.007,LearnStrategy,2023.2.3,Win32,59.52380952,6,1,4,0.036458333,0.014322917,1,0,0,1.0291,rock_grid_rect_2,8,06,-1,-1,1.029,0.358072917,-0.399739583,1,0,0,2.4487,Pumice_rect,8,2.449,1,3,0,3,0,1,,,,,,,,,,,,,
6333926e48c34a5d39353558,TCN,2024-06-20_16h28.27.007,LearnStrategy,2023.2.3,Win32,59.52380952,6,1,5,-0.015625,-0.009114583,1,0,0,1.1119,rock_grid_rect_2,8,15,-1,-1,1.112,0.338541667,-0.401041667,1,0,0,1.6077,Pumice_rect,8,1.608,1,4,0,4,0,1,,,,,,,,,,,,,
6333926e48c34a5d39353558,TCN,2024-06-20_16h28.27.007,LearnStrategy,2023.2.3,Win32,59.52380952,6,1,6,0.01171875,-0.0078125,1,0,0,1.1013,rock_grid_rect_2,2,06,-1,-1,1.101,-0.1015625,-0.231770833,1,0,0,2.4872,Basalt_rect,2,2.487,1,5,0,5,0,1,,,,,,,,,,,,,
6333926e48c34a5d39353558,TCN,2024-06-20_16h28.27.007,LearnStrategy,2023.2.3,Win32,59.52380952,6,1,7,0.016927083,-0.010416667,1,0,0,1.3607,rock_grid_rect_2,3,13,-1,-1,1.361,0.373697917,-0.259114583,1,0,0,1.7607,Gabbro_rect,4,1.761,0,6,0,6,0,1,,,,,,,,,,,,,
6333926e48c34a5d39353558,TCN,2024-06-20_16h28.27.007,LearnStrategy,2023.2.3,Win32,59.52380952,6,1,8,0.029947917,-0.01171875,1,0,0,1.1369,rock_grid_rect_2,6,08,-1,-1,1.137,-0.098958333,-0.401041667,1,0,0,1.8191,Pegmatite_rect,6,1.819,1,7,0,7,0,1,,,,,,,,,,,,,
6333926e48c34a5d39353558,TCN,2024-06-20_16h28.27.007,LearnStrategy,2023.2.3,Win32,59.52380952,6,1,9,-0.028645833,-0.005208333,1,0,0,1.0455,rock_grid_rect_2,6,06,-1,-1,1.045,0.4140625,-0.260416667,1,0,0,3.2876,Gabbro_rect,4,3.288,0,8,0,8,0,1,,,,,,,,,,,,,
6333926e48c34a5d39353558,TCN,2024-06-20_16h28.27.007,LearnStrategy,2023.2.3,Win32,59.52380952,6,1,10,0.01171875,-0.024739583,1,0,0,1.2427,rock_grid_rect_2,5,09,-1,-1,1.243,-0.329427083,-0.389322917,1,0,0,1.4631,Obsidian_rect,5,1.463,1,9,0,9,0,1,,,,,,,,,,,,,
6333926e48c34a5d39353558,TCN,2024-06-20_16h28.27.007,LearnStrategy,2023.2.3,Win32,59.52380952,6,1,11,-0.028645833,0.006510417,1,0,0,1.1213,rock_grid_rect_2,4,05,-1,-1,1.121,0.352864583,-0.265625,1,0,0,4.9155,Gabbro_rect,4,4.915,1,10,0,10,0,1,,,,,,,,,,,,,
6333926e48c34a5d39353558,TCN,2024-06-20_16h28.27.007,LearnStrategy,2023.2.3,Win32,59.52380952,6,1,12,-0.01953125,-0.018229167,1,0,0,1.1747,rock_grid_rect_2,3,15,-1,-1,1.175,-0.078125,-0.38671875,1,0,0,3.8579,Pegmatite_rect,6,3.858,0,11,0,11,0,1,,,,,,,,,,,,,
6333926e48c34a5d39353558,TCN,2024-06-20_16h28.27.007,LearnStrategy,2023.2.3,Win32,59.52380952,6,1,13,-0.002604167,0.001302083,1,0,0,1.128,rock_grid_rect_2,4,12,-1,-1,1.128,-0.3828125,-0.231770833,1,0,0,3.8544,Andesite_rect,1,3.854,0,12,0,12,0,1,,,,,,,,,,,,,
6333926e48c34a5d39353558,TCN,2024-06-20_16h28.27.007,LearnStrategy,2023.2.3,Win32,59.52380952,6,1,14,0.0078125,-0.00390625,1,0,0,1.1533,rock_grid_rect_2,2,02,-1,-1,1.153,-0.328125,-0.234375,1,0,0,1.9192,Andesite_rect,1,1.919,0,13,0,13,0,1,,,,,,,,,,,,,
6333926e48c34a5d39353558,TCN,2024-06-20_16h28.27.007,LearnStrategy,2023.2.3,Win32,59.52380952,6,1,15,0,0.010416667,1,0,0,1.0705,rock_grid_rect_2,5,14,-1,-1,1.07,-0.346354167,-0.40234375,1,0,0,1.8597,Obsidian_rect,5,1.86,1,14,0,14,0,1,,,,,,,,,,,,,
6333926e48c34a5d39353558,TCN,2024-06-20_16h28.27.007,LearnStrategy,2023.2.3,Win32,59.52380952,6,1,16,0.002604167,-0.00390625,1,0,0,1.1767,rock_grid_rect_2,7,02,-1,-1,1.177,0.109375,-0.38671875,1,0,0,2.3777,Peridotite_rect,7,2.378,1,15,0,15,0,1,,,,,,,,,,,,,
6333926e48c34a5d39353558,TCN,2024-06-20_16h28.27.007,LearnStrategy,2023.2.3,Win32,59.52380952,6,2,1,,,,,,,,4,08,,,,,,,,,,,3,4.136,0,,,,,,0.055989583,-0.24609375,1,0,0,4.136,Diorite_rect,0,0,0,0,1,
6333926e48c34a5d39353558,TCN,2024-06-20_16h28.27.007,LearnStrategy,2023.2.3,Win32,59.52380952,6,2,2,,,,,,,,2,04,,,,,,,,,,,2,1.569,1,,,,,,-0.102864583,-0.244791667,1,0,0,1.5695,Basalt_rect,1,0,1,0,1,
6333926e48c34a5d39353558,TCN,2024-06-20_16h28.27.007,LearnStrategy,2023.2.3,Win32,59.52380952,6,2,3,,,,,,,,1,02,,,,,,,,,,,1,6.281,1,,,,,,-0.33203125,-0.2578125,1,0,0,6.2808,Andesite_rect,2,0,2,0,1,
6333926e48c34a5d39353558,TCN,2024-06-20_16h28.27.007,LearnStrategy,2023.2.3,Win32,59.52380952,6,2,4,,,,,,,,3,02,,,,,,,,,,,3,3.709,1,,,,,,0.122395833,-0.270833333,1,0,0,3.7088,Diorite_rect,3,0,3,0,1,
6333926e48c34a5d39353558,TCN,2024-06-20_16h28.27.007,LearnStrategy,2023.2.3,Win32,59.52380952,6,2,5,,,,,,,,4,14,,,,,,,,,,,4,2.126,1,,,,,,0.385416667,-0.25390625,1,0,0,2.1258,Gabbro_rect,4,0,4,0,1,
6333926e48c34a5d39353558,TCN,2024-06-20_16h28.27.007,LearnStrategy,2023.2.3,Win32,59.52380952,6,2,6,,,,,,,,3,14,,,,,,,,,,,3,1.701,1,,,,,,0.13671875,-0.235677083,1,0,0,1.7005,Diorite_rect,5,0,5,0,1,
6333926e48c34a5d39353558,TCN,2024-06-20_16h28.27.007,LearnStrategy,2023.2.3,Win32,59.52380952,6,2,7,,,,,,,,7,15,,,,,,,,,,,7,1.517,1,,,,,,0.147135417,-0.399739583,1,0,0,1.5171,Peridotite_rect,6,0,6,0,1,
6333926e48c34a5d39353558,TCN,2024-06-20_16h28.27.007,LearnStrategy,2023.2.3,Win32,59.52380952,6,2,8,,,,,,,,6,12,,,,,,,,,,,3,2.153,0,,,,,,0.11328125,-0.256510417,1,0,0,2.1533,Diorite_rect,7,0,7,0,1,
6333926e48c34a5d39353558,TCN,2024-06-20_16h28.27.007,LearnStrategy,2023.2.3,Win32,59.52380952,6,2,9,,,,,,,,5,16,,,,,,,,,,,5,1.426,1,,,,,,-0.368489583,-0.40234375,1,0,0,1.4259,Obsidian_rect,8,0,8,0,1,
6333926e48c34a5d39353558,TCN,2024-06-20_16h28.27.007,LearnStrategy,2023.2.3,Win32,59.52380952,6,2,10,,,,,,,,7,10,,,,,,,,,,,7,2.348,1,,,,,,0.170572917,-0.388020833,1,0,0,2.3478,Peridotite_rect,9,0,9,0,1,
6333926e48c34a5d39353558,TCN,2024-06-20_16h28.27.007,LearnStrategy,2023.2.3,Win32,59.52380952,6,2,11,,,,,,,,2,08,,,,,,,,,,,2,1.479,1,,,,,,-0.111979167,-0.24609375,1,0,0,1.4789,Basalt_rect,10,0,10,0,1,
6333926e48c34a5d39353558,TCN,2024-06-20_16h28.27.007,LearnStrategy,2023.2.3,Win32,59.52380952,6,2,12,,,,,,,,6,16,,,,,,,,,,,6,2.583,1,,,,,,-0.06640625,-0.390625,1,0,0,2.583,Pegmatite_rect,11,0,11,0,1,
6333926e48c34a5d39353558,TCN,2024-06-20_16h28.27.007,LearnStrategy,2023.2.3,Win32,59.52380952,6,2,13,,,,,,,,8,09,,,,,,,,,,,8,1.5,1,,,,,,0.44921875,-0.3828125,1,0,0,1.5003,Pumice_rect,12,0,12,0,1,
6333926e48c34a5d39353558,TCN,2024-06-20_16h28.27.007,LearnStrategy,2023.2.3,Win32,59.52380952,6,2,14,,,,,,,,8,08,,,,,,,,,,,8,1.024,1,,,,,,0.44921875,-0.3828125,1,0,0,1.024,Pumice_rect,13,0,13,0,1,
6333926e48c34a5d39353558,TCN,2024-06-20_16h28.27.007,LearnStrategy,2023.2.3,Win32,59.52380952,6,2,15,,,,,,,,1,09,,,,,,,,,,,3,2.046,0,,,,,,0.18359375,-0.229166667,1,0,0,2.0465,Diorite_rect,14,0,14,0,1,
6333926e48c34a5d39353558,TCN,2024-06-20_16h28.27.007,LearnStrategy,2023.2.3,Win32,59.52380952,6,2,16,,,,,,,,5,08,,,,,,,,,,,5,1.593,1,,,,,,-0.309895833,-0.399739583,1,0,0,1.5935,Obsidian_rect,15,0,15,0,1,
6333926e48c34a5d39353558,TCN,2024-06-20_16h28.27.007,LearnStrategy,2023.2.3,Win32,59.52380952,7,1,1,0.002604167,0.018229167,1,0,0,2.1462,rock_grid_rect_2,5,09,-1,-1,2.146,-0.33203125,-0.38671875,1,0,0,1.4555,Obsidian_rect,5,1.456,1,0,0,0,0,1,,,,,,,,,,,,,
6333926e48c34a5d39353558,TCN,2024-06-20_16h28.27.007,LearnStrategy,2023.2.3,Win32,59.52380952,7,1,2,0.03515625,-0.013020833,1,0,0,1.1558,rock_grid_rect_2,4,15,-1,-1,1.156,0.381510417,-0.244791667,1,0,0,4.7814,Gabbro_rect,4,4.781,1,1,0,1,0,1,,,,,,,,,,,,,
6333926e48c34a5d39353558,TCN,2024-06-20_16h28.27.007,LearnStrategy,2023.2.3,Win32,59.52380952,7,1,3,0.046875,-0.018229167,1,0,0,1.2626,rock_grid_rect_2,4,12,-1,-1,1.263,0.11328125,-0.247395833,1,0,0,1.7962,Diorite_rect,3,1.796,0,2,0,2,0,1,,,,,,,,,,,,,
6333926e48c34a5d39353558,TCN,2024-06-20_16h28.27.007,LearnStrategy,2023.2.3,Win32,59.52380952,7,1,4,0.013020833,0.01171875,1,0,0,1.0847,rock_grid_rect_2,3,07,-1,-1,1.085,0.088541667,-0.24609375,1,0,0,1.2446,Diorite_rect,3,1.245,1,3,0,3,0,1,,,,,,,,,,,,,
6333926e48c34a5d39353558,TCN,2024-06-20_16h28.27.007,LearnStrategy,2023.2.3,Win32,59.52380952,7,1,5,-0.001302083,-0.014322917,1,0,0,1.1881,rock_grid_rect_2,7,07,-1,-1,1.188,0.084635417,-0.391927083,1,0,0,1.5117,Peridotite_rect,7,1.512,1,4,0,4,0,1,,,,,,,,,,,,,
6333926e48c34a5d39353558,TCN,2024-06-20_16h28.27.007,LearnStrategy,2023.2.3,Win32,59.52380952,7,1,6,0.022135417,-0.013020833,1,0,0,1.1245,rock_grid_rect_2,1,05,-1,-1,1.125,-0.365885417,-0.247395833,1,0,0,2.1802,Andesite_rect,1,2.18,1,5,0,5,0,1,,,,,,,,,,,,,
6333926e48c34a5d39353558,TCN,2024-06-20_16h28.27.007,LearnStrategy,2023.2.3,Win32,59.52380952,7,1,7,0.036458333,-0.009114583,1,0,0,1.1591,rock_grid_rect_2,8,14,-1,-1,1.159,0.365885417,-0.380208333,1,0,0,1.5388,Pumice_rect,8,1.539,1,6,0,6,0,1,,,,,,,,,,,,,
6333926e48c34a5d39353558,TCN,2024-06-20_16h28.27.007,LearnStrategy,2023.2.3,Win32,59.52380952,7,1,8,-0.016927083,-0.016927083,1,0,0,0.9777,rock_grid_rect_2,7,02,-1,-1,0.978,0.1015625,-0.389322917,1,0,0,1.9556,Peridotite_rect,7,1.956,1,7,0,7,0,1,,,,,,,,,,,,,
6333926e48c34a5d39353558,TCN,2024-06-20_16h28.27.007,LearnStrategy,2023.2.3,Win32,59.52380952,7,1,9,0.00390625,0.022135417,1,0,0,1.0468,rock_grid_rect_2,2,11,-1,-1,1.047,-0.33984375,-0.24609375,1,0,0,1.8042,Andesite_rect,1,1.804,0,8,0,8,0,1,,,,,,,,,,,,,
6333926e48c34a5d39353558,TCN,2024-06-20_16h28.27.007,LearnStrategy,2023.2.3,Win32,59.52380952,7,1,10,0.014322917,-0.015625,1,0,0,1.4631,rock_grid_rect_2,2,10,-1,-1,1.463,-0.174479167,-0.263020833,1,0,0,1.8949,Basalt_rect,2,1.895,1,9,0,9,0,1,,,,,,,,,,,,,
6333926e48c34a5d39353558,TCN,2024-06-20_16h28.27.007,LearnStrategy,2023.2.3,Win32,59.52380952,7,1,11,0.018229167,0.01953125,1,0,0,1.8041,rock_grid_rect_2,6,06,-1,-1,1.804,-0.071614583,-0.419270833,1,0,0,2.6957,Pegmatite_rect,6,2.696,1,10,0,10,0,1,,,,,,,,,,,,,
6333926e48c34a5d39353558,TCN,2024-06-20_16h28.27.007,LearnStrategy,2023.2.3,Win32,59.52380952,7,1,12,-0.01171875,-0.0078125,1,0,0,1.085,rock_grid_rect_2,6,03,-1,-1,1.085,0.092447917,-0.41796875,1,0,0,1.6042,Peridotite_rect,7,1.604,0,11,0,11,0,1,,,,,,,,,,,,,
6333926e48c34a5d39353558,TCN,2024-06-20_16h28.27.007,LearnStrategy,2023.2.3,Win32,59.52380952,7,1,13,-0.032552083,0.022135417,1,0,0,1.0575,rock_grid_rect_2,8,02,-1,-1,1.057,0.305989583,-0.411458333,1,0,0,1.761,Pumice_rect,8,1.761,1,12,0,12,0,1,,,,,,,,,,,,,
6333926e48c34a5d39353558,TCN,2024-06-20_16h28.27.007,LearnStrategy,2023.2.3,Win32,59.52380952,7,1,14,0.03125,0.005208333,1,0,0,1.4544,rock_grid_rect_2,1,03,-1,-1,1.454,-0.3046875,-0.26171875,1,0,0,2.5603,Andesite_rect,1,2.56,1,13,0,13,0,1,,,,,,,,,,,,,
6333926e48c34a5d39353558,TCN,2024-06-20_16h28.27.007,LearnStrategy,2023.2.3,Win32,59.52380952,7,1,15,-0.016927083,-0.009114583,1,0,0,1.041,rock_grid_rect_2,3,15,-1,-1,1.041,0.390625,-0.248697917,1,0,0,2.3101,Gabbro_rect,4,2.31,0,14,0,14,0,1,,,,,,,,,,,,,
6333926e48c34a5d39353558,TCN,2024-06-20_16h28.27.007,LearnStrategy,2023.2.3,Win32,59.52380952,7,1,16,-0.01171875,-0.001302083,1,0,0,1.093,rock_grid_rect_2,5,14,-1,-1,1.093,-0.348958333,-0.385416667,1,0,0,1.6151,Obsidian_rect,5,1.615,1,15,0,15,0,1,,,,,,,,,,,,,
6333926e48c34a5d39353558,TCN,2024-06-20_16h28.27.007,LearnStrategy,2023.2.3,Win32,59.52380952,7,2,1,,,,,,,,8,09,,,,,,,,,,,8,2.489,1,,,,,,0.38671875,-0.408854167,1,0,0,2.489,Pumice_rect,0,0,0,0,1,
6333926e48c34a5d39353558,TCN,2024-06-20_16h28.27.007,LearnStrategy,2023.2.3,Win32,59.52380952,7,2,2,,,,,,,,4,16,,,,,,,,,,,4,7.325,1,,,,,,0.391927083,-0.239583333,1,0,0,7.3251,Gabbro_rect,1,0,1,0,1,
6333926e48c34a5d39353558,TCN,2024-06-20_16h28.27.007,LearnStrategy,2023.2.3,Win32,59.52380952,7,2,3,,,,,,,,5,11,,,,,,,,,,,5,1.461,1,,,,,,-0.322916667,-0.415364583,1,0,0,1.4606,Obsidian_rect,2,0,2,0,1,
6333926e48c34a5d39353558,TCN,2024-06-20_16h28.27.007,LearnStrategy,2023.2.3,Win32,59.52380952,7,2,4,,,,,,,,3,14,,,,,,,,,,,3,2.723,1,,,,,,0.0703125,-0.2578125,1,0,0,2.7227,Diorite_rect,3,0,3,0,1,
6333926e48c34a5d39353558,TCN,2024-06-20_16h28.27.007,LearnStrategy,2023.2.3,Win32,59.52380952,7,2,5,,,,,,,,6,13,,,,,,,,,,,6,5.616,1,,,,,,-0.157552083,-0.415364583,1,0,0,5.6161,Pegmatite_rect,4,0,4,0,1,
6333926e48c34a5d39353558,TCN,2024-06-20_16h28.27.007,LearnStrategy,2023.2.3,Win32,59.52380952,7,2,6,,,,,,,,7,10,,,,,,,,,,,7,1.524,1,,,,,,0.05078125,-0.411458333,1,0,0,1.5237,Peridotite_rect,5,0,5,0,1,
6333926e48c34a5d39353558,TCN,2024-06-20_16h28.27.007,LearnStrategy,2023.2.3,Win32,59.52380952,7,2,7,,,,,,,,4,03,,,,,,,,,,,4,8.179,1,,,,,,0.397135417,-0.233072917,1,0,0,8.1789,Gabbro_rect,6,0,6,0,1,
6333926e48c34a5d39353558,TCN,2024-06-20_16h28.27.007,LearnStrategy,2023.2.3,Win32,59.52380952,7,2,8,,,,,,,,6,12,,,,,,,,,,,3,3.869,0,,,,,,0.186197917,-0.259114583,1,0,0,3.8693,Diorite_rect,7,0,7,0,1,
6333926e48c34a5d39353558,TCN,2024-06-20_16h28.27.007,LearnStrategy,2023.2.3,Win32,59.52380952,7,2,9,,,,,,,,7,08,,,,,,,,,,,7,2.337,1,,,,,,0.15234375,-0.401041667,1,0,0,2.3373,Peridotite_rect,8,0,8,0,1,
6333926e48c34a5d39353558,TCN,2024-06-20_16h28.27.007,LearnStrategy,2023.2.3,Win32,59.52380952,7,2,10,,,,,,,,2,04,,,,,,,,,,,2,1.206,1,,,,,,-0.09375,-0.25,1,0,0,1.2059,Basalt_rect,9,0,9,0,1,
6333926e48c34a5d39353558,TCN,2024-06-20_16h28.27.007,LearnStrategy,2023.2.3,Win32,59.52380952,7,2,11,,,,,,,,1,09,,,,,,,,,,,1,3.926,1,,,,,,-0.40234375,-0.248697917,1,0,0,3.9261,Andesite_rect,10,0,10,0,1,
6333926e48c34a5d39353558,TCN,2024-06-20_16h28.27.007,LearnStrategy,2023.2.3,Win32,59.52380952,7,2,12,,,,,,,,2,01,,,,,,,,,,,1,2.544,0,,,,,,-0.352864583,-0.244791667,1,0,0,2.5444,Andesite_rect,11,0,11,0,1,
6333926e48c34a5d39353558,TCN,2024-06-20_16h28.27.007,LearnStrategy,2023.2.3,Win32,59.52380952,7,2,13,,,,,,,,5,06,,,,,,,,,,,5,1.348,1,,,,,,-0.359375,-0.385416667,1,0,0,1.3478,Obsidian_rect,12,0,12,0,1,
6333926e48c34a5d39353558,TCN,2024-06-20_16h28.27.007,LearnStrategy,2023.2.3,Win32,59.52380952,7,2,14,,,,,,,,3,16,,,,,,,,,,,3,1.971,1,,,,,,0.118489583,-0.266927083,1,0,0,1.9707,Diorite_rect,13,0,13,0,1,
6333926e48c34a5d39353558,TCN,2024-06-20_16h28.27.007,LearnStrategy,2023.2.3,Win32,59.52380952,7,2,15,,,,,,,,8,16,,,,,,,,,,,8,2.136,1,,,,,,0.3125,-0.401041667,1,0,0,2.1359,Pumice_rect,14,0,14,0,1,
6333926e48c34a5d39353558,TCN,2024-06-20_16h28.27.007,LearnStrategy,2023.2.3,Win32,59.52380952,7,2,16,,,,,,,,1,01,,,,,,,,,,,2,1.898,0,,,,,,-0.1328125,-0.24609375,1,0,0,1.8981,Basalt_rect,15,0,15,0,1,
6333926e48c34a5d39353558,TCN,2024-06-20_16h28.27.007,LearnStrategy,2023.2.3,Win32,59.52380952,8,1,1,-0.006510417,-0.006510417,1,0,0,1.166,rock_grid_rect_2,7,13,-1,-1,1.166,0.134114583,-0.37890625,1,0,0,1.6977,Peridotite_rect,7,1.698,1,0,0,0,0,1,,,,,,,,,,,,,
6333926e48c34a5d39353558,TCN,2024-06-20_16h28.27.007,LearnStrategy,2023.2.3,Win32,59.52380952,8,1,2,0.0390625,-0.01953125,1,0,0,1.6813,rock_grid_rect_2,8,06,-1,-1,1.681,0.365885417,-0.397135417,1,0,0,1.3258,Pumice_rect,8,1.326,1,1,0,1,0,1,,,,,,,,,,,,,
6333926e48c34a5d39353558,TCN,2024-06-20_16h28.27.007,LearnStrategy,2023.2.3,Win32,59.52380952,8,1,3,-0.0234375,0.001302083,1,0,0,1.0653,rock_grid_rect_2,1,07,-1,-1,1.065,0.122395833,-0.2421875,1,0,0,1.5147,Diorite_rect,3,1.515,0,2,0,2,0,1,,,,,,,,,,,,,
6333926e48c34a5d39353558,TCN,2024-06-20_16h28.27.007,LearnStrategy,2023.2.3,Win32,59.52380952,8,1,4,-0.006510417,0.006510417,1,0,0,3.7853,rock_grid_rect_2,6,15,-1,-1,3.785,-0.09765625,-0.40234375,1,0,0,2.3017,Pegmatite_rect,6,2.302,1,3,0,3,0,1,,,,,,,,,,,,,
6333926e48c34a5d39353558,TCN,2024-06-20_16h28.27.007,LearnStrategy,2023.2.3,Win32,59.52380952,8,1,5,0.03515625,-0.014322917,1,0,0,1.413,rock_grid_rect_2,7,16,-1,-1,1.413,0.09765625,-0.380208333,1,0,0,1.8718,Peridotite_rect,7,1.872,1,4,0,4,0,1,,,,,,,,,,,,,
6333926e48c34a5d39353558,TCN,2024-06-20_16h28.27.007,LearnStrategy,2023.2.3,Win32,59.52380952,8,1,6,-0.010416667,-0.022135417,1,0,0,1.1356,rock_grid_rect_2,5,04,-1,-1,1.136,-0.368489583,-0.401041667,1,0,0,1.3213,Obsidian_rect,5,1.321,1,5,0,5,0,1,,,,,,,,,,,,,
6333926e48c34a5d39353558,TCN,2024-06-20_16h28.27.007,LearnStrategy,2023.2.3,Win32,59.52380952,8,1,7,0.045572917,-0.01953125,1,0,0,1.6759,rock_grid_rect_2,2,02,-1,-1,1.676,-0.11328125,-0.239583333,1,0,0,1.3169,Basalt_rect,2,1.317,1,6,0,6,0,1,,,,,,,,,,,,,
6333926e48c34a5d39353558,TCN,2024-06-20_16h28.27.007,LearnStrategy,2023.2.3,Win32,59.52380952,8,1,8,-0.0078125,-0.020833333,1,0,0,1.0622,rock_grid_rect_2,8,15,-1,-1,1.062,0.313802083,-0.41015625,1,0,0,1.3588,Pumice_rect,8,1.359,1,7,0,7,0,1,,,,,,,,,,,,,
6333926e48c34a5d39353558,TCN,2024-06-20_16h28.27.007,LearnStrategy,2023.2.3,Win32,59.52380952,8,1,9,0.022135417,-0.00390625,1,0,0,1.1549,rock_grid_rect_2,6,05,-1,-1,1.155,-0.110677083,-0.41796875,1,0,0,2.2526,Pegmatite_rect,6,2.253,1,8,0,8,0,1,,,,,,,,,,,,,
6333926e48c34a5d39353558,TCN,2024-06-20_16h28.27.007,LearnStrategy,2023.2.3,Win32,59.52380952,8,1,10,-0.029947917,0.013020833,1,0,0,0.9335,rock_grid_rect_2,4,05,-1,-1,0.934,0.369791667,-0.244791667,1,0,0,1.8289,Gabbro_rect,4,1.829,1,9,0,9,0,1,,,,,,,,,,,,,
6333926e48c34a5d39353558,TCN,2024-06-20_16h28.27.007,LearnStrategy,2023.2.3,Win32,59.52380952,8,1,11,0.037760417,-0.022135417,1,0,0,1.0392,rock_grid_rect_2,3,10,-1,-1,1.039,0.095052083,-0.23828125,1,0,0,1.3394,Diorite_rect,3,1.339,1,10,0,10,0,1,,,,,,,,,,,,,
6333926e48c34a5d39353558,TCN,2024-06-20_16h28.27.007,LearnStrategy,2023.2.3,Win32,59.52380952,8,1,12,0.010416667,0.002604167,1,0,0,0.9696,rock_grid_rect_2,5,02,-1,-1,0.97,-0.321614583,-0.41015625,1,0,0,1.8256,Obsidian_rect,5,1.826,1,11,0,11,0,1,,,,,,,,,,,,,
6333926e48c34a5d39353558,TCN,2024-06-20_16h28.27.007,LearnStrategy,2023.2.3,Win32,59.52380952,8,1,13,-0.052083333,0.002604167,1,0,0,1.0055,rock_grid_rect_2,2,06,-1,-1,1.006,-0.095052083,-0.265625,1,0,0,1.3725,Basalt_rect,2,1.373,1,12,0,12,0,1,,,,,,,,,,,,,
6333926e48c34a5d39353558,TCN,2024-06-20_16h28.27.007,LearnStrategy,2023.2.3,Win32,59.52380952,8,1,14,-0.01171875,-0.013020833,1,0,0,1.0955,rock_grid_rect_2,1,14,-1,-1,1.095,0.12890625,-0.234375,1,0,0,1.4489,Diorite_rect,3,1.449,0,13,0,13,0,1,,,,,,,,,,,,,
6333926e48c34a5d39353558,TCN,2024-06-20_16h28.27.007,LearnStrategy,2023.2.3,Win32,59.52380952,8,1,15,0.002604167,-0.0234375,1,0,0,0.9513,rock_grid_rect_2,4,10,-1,-1,0.951,0.11328125,-0.251302083,1,0,0,1.3732,Diorite_rect,3,1.373,0,14,0,14,0,1,,,,,,,,,,,,,
6333926e48c34a5d39353558,TCN,2024-06-20_16h28.27.007,LearnStrategy,2023.2.3,Win32,59.52380952,8,1,16,0.01171875,-0.01171875,1,0,0,1.0905,rock_grid_rect_2,3,08,-1,-1,1.091,0.076822917,-0.260416667,1,0,0,1.3576,Diorite_rect,3,1.358,1,15,0,15,0,1,,,,,,,,,,,,,
6333926e48c34a5d39353558,TCN,2024-06-20_16h28.27.007,LearnStrategy,2023.2.3,Win32,59.52380952,8,2,1,,,,,,,,7,14,,,,,,,,,,,4,3.597,0,,,,,,0.358072917,-0.256510417,1,0,0,3.5967,Gabbro_rect,0,0,0,0,1,
6333926e48c34a5d39353558,TCN,2024-06-20_16h28.27.007,LearnStrategy,2023.2.3,Win32,59.52380952,8,2,2,,,,,,,,3,12,,,,,,,,,,,1,3.09,0,,,,,,-0.313802083,-0.26171875,1,0,0,3.0901,Andesite_rect,1,0,1,0,1,
6333926e48c34a5d39353558,TCN,2024-06-20_16h28.27.007,LearnStrategy,2023.2.3,Win32,59.52380952,8,2,3,,,,,,,,4,13,,,,,,,,,,,4,3.637,1,,,,,,0.395833333,-0.259114583,1,0,0,3.6367,Gabbro_rect,2,0,2,0,1,
6333926e48c34a5d39353558,TCN,2024-06-20_16h28.27.007,LearnStrategy,2023.2.3,Win32,59.52380952,8,2,4,,,,,,,,6,16,,,,,,,,,,,6,1.609,1,,,,,,-0.0859375,-0.393229167,1,0,0,1.6093,Pegmatite_rect,3,0,3,0,1,
6333926e48c34a5d39353558,TCN,2024-06-20_16h28.27.007,LearnStrategy,2023.2.3,Win32,59.52380952,8,2,5,,,,,,,,5,10,,,,,,,,,,,5,1.78,1,,,,,,-0.342447917,-0.389322917,1,0,0,1.7796,Obsidian_rect,4,0,4,0,1,
6333926e48c34a5d39353558,TCN,2024-06-20_16h28.27.007,LearnStrategy,2023.2.3,Win32,59.52380952,8,2,6,,,,,,,,1,04,,,,,,,,,,,1,4.018,1,,,,,,-0.36328125,-0.243489583,1,0,0,4.018,Andesite_rect,5,0,5,0,1,
6333926e48c34a5d39353558,TCN,2024-06-20_16h28.27.007,LearnStrategy,2023.2.3,Win32,59.52380952,8,2,7,,,,,,,,4,08,,,,,,,,,,,4,4.234,1,,,,,,0.337239583,-0.240885417,1,0,0,4.2341,Gabbro_rect,6,0,6,0,1,
6333926e48c34a5d39353558,TCN,2024-06-20_16h28.27.007,LearnStrategy,2023.2.3,Win32,59.52380952,8,2,8,,,,,,,,5,12,,,,,,,,,,,5,1.526,1,,,,,,-0.35546875,-0.40234375,1,0,0,1.5258,Obsidian_rect,7,0,7,0,1,
6333926e48c34a5d39353558,TCN,2024-06-20_16h28.27.007,LearnStrategy,2023.2.3,Win32,59.52380952,8,2,9,,,,,,,,8,05,,,,,,,,,,,8,2.099,1,,,,,,0.348958333,-0.38671875,1,0,0,2.0986,Pumice_rect,8,0,8,0,1,
6333926e48c34a5d39353558,TCN,2024-06-20_16h28.27.007,LearnStrategy,2023.2.3,Win32,59.52380952,8,2,10,,,,,,,,8,08,,,,,,,,,,,8,2.762,1,,,,,,0.348958333,-0.38671875,1,0,0,2.7624,Pumice_rect,9,0,9,0,1,
6333926e48c34a5d39353558,TCN,2024-06-20_16h28.27.007,LearnStrategy,2023.2.3,Win32,59.52380952,8,2,11,,,,,,,,6,11,,,,,,,,,,,6,1.596,1,,,,,,-0.104166667,-0.39453125,1,0,0,1.5965,Pegmatite_rect,10,0,10,0,1,
6333926e48c34a5d39353558,TCN,2024-06-20_16h28.27.007,LearnStrategy,2023.2.3,Win32,59.52380952,8,2,12,,,,,,,,2,16,,,,,,,,,,,2,2.933,1,,,,,,-0.109375,-0.255208333,1,0,0,2.9331,Basalt_rect,11,0,11,0,1,
6333926e48c34a5d39353558,TCN,2024-06-20_16h28.27.007,LearnStrategy,2023.2.3,Win32,59.52380952,8,2,13,,,,,,,,1,16,,,,,,,,,,,1,2.322,1,,,,,,-0.393229167,-0.264322917,1,0,0,2.3222,Andesite_rect,12,0,12,0,1,
6333926e48c34a5d39353558,TCN,2024-06-20_16h28.27.007,LearnStrategy,2023.2.3,Win32,59.52380952,8,2,14,,,,,,,,3,06,,,,,,,,,,,3,1.531,1,,,,,,0.088541667,-0.252604167,1,0,0,1.5306,Diorite_rect,13,0,13,0,1,
6333926e48c34a5d39353558,TCN,2024-06-20_16h28.27.007,LearnStrategy,2023.2.3,Win32,59.52380952,8,2,15,,,,,,,,2,09,,,,,,,,,,,2,2.105,1,,,,,,-0.114583333,-0.265625,1,0,0,2.1051,Basalt_rect,14,0,14,0,1,
6333926e48c34a5d39353558,TCN,2024-06-20_16h28.27.007,LearnStrategy,2023.2.3,Win32,59.52380952,8,2,16,,,,,,,,7,05,,,,,,,,,,,6,2.485,0,,,,,,-0.091145833,-0.401041667,1,0,0,2.4846,Pegmatite_rect,15,0,15,0,1,
6333926e48c34a5d39353558,TCN,2024-06-20_16h28.27.007,LearnStrategy,2023.2.3,Win32,59.52380952,9,1,1,0.022135417,0.01171875,1,0,0,1.6171,rock_grid_rect_2,1,06,-1,-1,1.617,-0.34375,-0.255208333,1,0,0,3.4928,Andesite_rect,1,3.493,1,0,0,0,0,1,,,,,,,,,,,,,
6333926e48c34a5d39353558,TCN,2024-06-20_16h28.27.007,LearnStrategy,2023.2.3,Win32,59.52380952,9,1,2,-0.001302083,0.013020833,1,0,0,1.727,rock_grid_rect_2,7,06,-1,-1,1.727,0.108072917,-0.40625,1,0,0,2.981,Peridotite_rect,7,2.981,1,1,0,1,0,1,,,,,,,,,,,,,
6333926e48c34a5d39353558,TCN,2024-06-20_16h28.27.007,LearnStrategy,2023.2.3,Win32,59.52380952,9,1,3,0.03515625,-0.022135417,1,0,0,1.0997,rock_grid_rect_2,2,14,-1,-1,1.1,-0.126302083,-0.2421875,1,0,0,1.5731,Basalt_rect,2,1.573,1,2,0,2,0,1,,,,,,,,,,,,,
6333926e48c34a5d39353558,TCN,2024-06-20_16h28.27.007,LearnStrategy,2023.2.3,Win32,59.52380952,9,1,4,-0.006510417,-0.005208333,1,0,0,0.9835,rock_grid_rect_2,8,10,-1,-1,0.984,0.412760417,-0.390625,1,0,0,1.7309,Pumice_rect,8,1.731,1,3,0,3,0,1,,,,,,,,,,,,,
6333926e48c34a5d39353558,TCN,2024-06-20_16h28.27.007,LearnStrategy,2023.2.3,Win32,59.52380952,9,1,5,0.028645833,-0.022135417,1,0,0,1.0574,rock_grid_rect_2,6,08,-1,-1,1.057,-0.11328125,-0.40234375,1,0,0,1.6584,Pegmatite_rect,6,1.658,1,4,0,4,0,1,,,,,,,,,,,,,
6333926e48c34a5d39353558,TCN,2024-06-20_16h28.27.007,LearnStrategy,2023.2.3,Win32,59.52380952,9,1,6,-0.01953125,-0.006510417,1,0,0,0.9363,rock_grid_rect_2,4,01,-1,-1,0.936,0.12890625,-0.2421875,1,0,0,1.9632,Diorite_rect,3,1.963,0,5,0,5,0,1,,,,,,,,,,,,,
6333926e48c34a5d39353558,TCN,2024-06-20_16h28.27.007,LearnStrategy,2023.2.3,Win32,59.52380952,9,1,7,0.010416667,-0.013020833,1,0,0,0.9248,rock_grid_rect_2,7,12,-1,-1,0.925,0.09375,-0.395833333,1,0,0,1.6191,Peridotite_rect,7,1.619,1,6,0,6,0,1,,,,,,,,,,,,,
6333926e48c34a5d39353558,TCN,2024-06-20_16h28.27.007,LearnStrategy,2023.2.3,Win32,59.52380952,9,1,8,0.036458333,-0.009114583,1,0,0,1.0627,rock_grid_rect_2,8,04,-1,-1,1.063,0.3359375,-0.393229167,1,0,0,1.5479,Pumice_rect,8,1.548,1,7,0,7,0,1,,,,,,,,,,,,,
6333926e48c34a5d39353558,TCN,2024-06-20_16h28.27.007,LearnStrategy,2023.2.3,Win32,59.52380952,9,1,9,0.022135417,-0.01171875,1,0,0,0.9599,rock_grid_rect_2,3,09,-1,-1,0.96,0.100260417,-0.2578125,1,0,0,1.5098,Diorite_rect,3,1.51,1,8,0,8,0,1,,,,,,,,,,,,,
6333926e48c34a5d39353558,TCN,2024-06-20_16h28.27.007,LearnStrategy,2023.2.3,Win32,59.52380952,9,1,10,0.016927083,0,1,0,0,1.0597,rock_grid_rect_2,3,13,-1,-1,1.06,0.403645833,-0.25,1,0,0,2.128,Gabbro_rect,4,2.128,0,9,0,9,0,1,,,,,,,,,,,,,
6333926e48c34a5d39353558,TCN,2024-06-20_16h28.27.007,LearnStrategy,2023.2.3,Win32,59.52380952,9,1,11,0.03515625,0.014322917,1,0,0,0.9404,rock_grid_rect_2,6,10,-1,-1,0.94,0.076822917,-0.408854167,1,0,0,1.7195,Peridotite_rect,7,1.719,0,10,0,10,0,1,,,,,,,,,,,,,
6333926e48c34a5d39353558,TCN,2024-06-20_16h28.27.007,LearnStrategy,2023.2.3,Win32,59.52380952,9,1,12,-0.002604167,-0.013020833,1,0,0,1.015,rock_grid_rect_2,2,05,-1,-1,1.015,-0.154947917,-0.2578125,1,0,0,1.2524,Basalt_rect,2,1.252,1,11,0,11,0,1,,,,,,,,,,,,,
6333926e48c34a5d39353558,TCN,2024-06-20_16h28.27.007,LearnStrategy,2023.2.3,Win32,59.52380952,9,1,13,0.02734375,0.013020833,1,0,0,1.7981,rock_grid_rect_2,5,05,-1,-1,1.798,-0.329427083,-0.381510417,1,0,0,1.805,Obsidian_rect,5,1.805,1,12,0,12,0,1,,,,,,,,,,,,,
6333926e48c34a5d39353558,TCN,2024-06-20_16h28.27.007,LearnStrategy,2023.2.3,Win32,59.52380952,9,1,14,0.01953125,-0.014322917,1,0,0,1.0886,rock_grid_rect_2,4,09,-1,-1,1.089,0.180989583,-0.252604167,1,0,0,4.3618,Diorite_rect,3,4.362,0,13,0,13,0,1,,,,,,,,,,,,,
6333926e48c34a5d39353558,TCN,2024-06-20_16h28.27.007,LearnStrategy,2023.2.3,Win32,59.52380952,9,1,15,0.041666667,-0.022135417,1,0,0,1.2592,rock_grid_rect_2,5,07,-1,-1,1.259,-0.360677083,-0.39453125,1,0,0,1.5178,Obsidian_rect,5,1.518,1,14,0,14,0,1,,,,,,,,,,,,,
6333926e48c34a5d39353558,TCN,2024-06-20_16h28.27.007,LearnStrategy,2023.2.3,Win32,59.52380952,9,1,16,0.00390625,-0.002604167,1,0,0,0.9883,rock_grid_rect_2,1,11,-1,-1,0.988,-0.346354167,-0.240885417,1,0,0,1.8885,Andesite_rect,1,1.889,1,15,0,15,0,1,,,,,,,,,,,,,
6333926e48c34a5d39353558,TCN,2024-06-20_16h28.27.007,LearnStrategy,2023.2.3,Win32,59.52380952,9,2,1,,,,,,,,4,14,,,,,,,,,,,4,3.818,1,,,,,,0.360677083,-0.265625,1,0,0,3.8177,Gabbro_rect,0,0,0,0,1,
6333926e48c34a5d39353558,TCN,2024-06-20_16h28.27.007,LearnStrategy,2023.2.3,Win32,59.52380952,9,2,2,,,,,,,,8,13,,,,,,,,,,,8,1.402,1,,,,,,0.359375,-0.38671875,1,0,0,1.4021,Pumice_rect,1,0,1,0,1,
6333926e48c34a5d39353558,TCN,2024-06-20_16h28.27.007,LearnStrategy,2023.2.3,Win32,59.52380952,9,2,3,,,,,,,,5,08,,,,,,,,,,,5,1.692,1,,,,,,-0.415364583,-0.401041667,1,0,0,1.692,Obsidian_rect,2,0,2,0,1,
6333926e48c34a5d39353558,TCN,2024-06-20_16h28.27.007,LearnStrategy,2023.2.3,Win32,59.52380952,9,2,4,,,,,,,,4,11,,,,,,,,,,,1,3.081,0,,,,,,-0.463541667,-0.265625,1,0,0,3.0805,Andesite_rect,3,0,3,0,1,
6333926e48c34a5d39353558,TCN,2024-06-20_16h28.27.007,LearnStrategy,2023.2.3,Win32,59.52380952,9,2,5,,,,,,,,2,08,,,,,,,,,,,2,1.594,1,,,,,,-0.184895833,-0.252604167,1,0,0,1.5942,Basalt_rect,4,0,4,0,1,
6333926e48c34a5d39353558,TCN,2024-06-20_16h28.27.007,LearnStrategy,2023.2.3,Win32,59.52380952,9,2,6,,,,,,,,6,07,,,,,,,,,,,6,1.506,1,,,,,,-0.140625,-0.4140625,1,0,0,1.5058,Pegmatite_rect,5,0,5,0,1,
6333926e48c34a5d39353558,TCN,2024-06-20_16h28.27.007,LearnStrategy,2023.2.3,Win32,59.52380952,9,2,7,,,,,,,,5,16,,,,,,,,,,,5,1.368,1,,,,,,-0.390625,-0.41015625,1,0,0,1.3682,Obsidian_rect,6,0,6,0,1,
6333926e48c34a5d39353558,TCN,2024-06-20_16h28.27.007,LearnStrategy,2023.2.3,Win32,59.52380952,9,2,8,,,,,,,,7,04,,,,,,,,,,,7,1.484,1,,,,,,0.072916667,-0.38671875,1,0,0,1.4844,Peridotite_rect,7,0,7,0,1,
6333926e48c34a5d39353558,TCN,2024-06-20_16h28.27.007,LearnStrategy,2023.2.3,Win32,59.52380952,9,2,9,,,,,,,,1,02,,,,,,,,,,,1,3.278,1,,,,,,-0.32421875,-0.25390625,1,0,0,3.2784,Andesite_rect,8,0,8,0,1,
6333926e48c34a5d39353558,TCN,2024-06-20_16h28.27.007,LearnStrategy,2023.2.3,Win32,59.52380952,9,2,10,,,,,,,,3,11,,,,,,,,,,,3,1.334,1,,,,,,0.1171875,-0.25390625,1,0,0,1.3343,Diorite_rect,9,0,9,0,1,
6333926e48c34a5d39353558,TCN,2024-06-20_16h28.27.007,LearnStrategy,2023.2.3,Win32,59.52380952,9,2,11,,,,,,,,3,02,,,,,,,,,,,1,2.182,0,,,,,,-0.36328125,-0.248697917,1,0,0,2.1822,Andesite_rect,10,0,10,0,1,
6333926e48c34a5d39353558,TCN,2024-06-20_16h28.27.007,LearnStrategy,2023.2.3,Win32,59.52380952,9,2,12,,,,,,,,8,03,,,,,,,,,,,8,1.591,1,,,,,,0.35546875,-0.39453125,1,0,0,1.591,Pumice_rect,11,0,11,0,1,
6333926e48c34a5d39353558,TCN,2024-06-20_16h28.27.007,LearnStrategy,2023.2.3,Win32,59.52380952,9,2,13,,,,,,,,7,15,,,,,,,,,,,7,1.671,1,,,,,,0.108072917,-0.399739583,1,0,0,1.6714,Peridotite_rect,12,0,12,0,1,
6333926e48c34a5d39353558,TCN,2024-06-20_16h28.27.007,LearnStrategy,2023.2.3,Win32,59.52380952,9,2,14,,,,,,,,2,12,,,,,,,,,,,8,3.401,0,,,,,,0.397135417,-0.39453125,1,0,0,3.401,Pumice_rect,13,0,13,0,1,
6333926e48c34a5d39353558,TCN,2024-06-20_16h28.27.007,LearnStrategy,2023.2.3,Win32,59.52380952,9,2,15,,,,,,,,6,09,,,,,,,,,,,6,3.998,1,,,,,,-0.098958333,-0.395833333,1,0,0,3.998,Pegmatite_rect,14,0,14,0,1,
6333926e48c34a5d39353558,TCN,2024-06-20_16h28.27.007,LearnStrategy,2023.2.3,Win32,59.52380952,9,2,16,,,,,,,,1,10,,,,,,,,,,,4,2.579,0,,,,,,0.388020833,-0.252604167,1,0,0,2.5792,Gabbro_rect,15,0,15,0,1,
6333926e48c34a5d39353558,TCN,2024-06-20_16h28.27.007,LearnStrategy,2023.2.3,Win32,59.52380952,,,,,,,,,,,,,,,,,,,,,,,,,,,,,,,,,,,,,,,,,,,1
6333926e48c34a5d39353558,TCN,2024-06-20_16h28.27.007,LearnStrategy,2023.2.3,Win32,59.52380952,,,,,,,,,,,,,,,,,,,,,,,,,,,,,,,,,,,,,,,,,,,
6333926e48c34a5d39353558,TCN,2024-06-20_16h28.27.007,LearnStrategy,2023.2.3,Win32,59.52380952,,,,,,,,,,,2,11,1,1,,,,,,,,,,,,,,,,,,,,,,,,,,,,,
6333926e48c34a5d39353558,TCN,2024-06-20_16h28.27.007,LearnStrategy,2023.2.3,Win32,59.52380952,,,,,,,,,,,8,04,1,2,,,,,,,,,,,,,,,,,,,,,,,,,,,,,
6333926e48c34a5d39353558,TCN,2024-06-20_16h28.27.007,LearnStrategy,2023.2.3,Win32,59.52380952,,,,,,,,,,,8,15,1,3,,,,,,,,,,,,,,,,,,,,,,,,,,,,,
6333926e48c34a5d39353558,TCN,2024-06-20_16h28.27.007,LearnStrategy,2023.2.3,Win32,59.52380952,,,,,,,,,,,4,10,1,4,,,,,,,,,,,,,,,,,,,,,,,,,,,,,
6333926e48c34a5d39353558,TCN,2024-06-20_16h28.27.007,LearnStrategy,2023.2.3,Win32,59.52380952,,,,,,,,,,,8,10,1,5,,,,,,,,,,,,,,,,,,,,,,,,,,,,,
6333926e48c34a5d39353558,TCN,2024-06-20_16h28.27.007,LearnStrategy,2023.2.3,Win32,59.52380952,,,,,,,,,,,8,02,1,6,,,,,,,,,,,,,,,,,,,,,,,,,,,,,
6333926e48c34a5d39353558,TCN,2024-06-20_16h28.27.007,LearnStrategy,2023.2.3,Win32,59.52380952,,,,,,,,,,,8,06,1,7,,,,,,,,,,,,,,,,,,,,,,,,,,,,,
6333926e48c34a5d39353558,TCN,2024-06-20_16h28.27.007,LearnStrategy,2023.2.3,Win32,59.52380952,,,,,,,,,,,3,09,1,8,,,,,,,,,,,,,,,,,,,,,,,,,,,,,
6333926e48c34a5d39353558,TCN,2024-06-20_16h28.27.007,LearnStrategy,2023.2.3,Win32,59.52380952,,,,,,,,,,,3,08,2,1,,,,,,,,,,,,,,,,,,,,,,,,,,,,,
6333926e48c34a5d39353558,TCN,2024-06-20_16h28.27.007,LearnStrategy,2023.2.3,Win32,59.52380952,,,,,,,,,,,4,01,2,2,,,,,,,,,,,,,,,,,,,,,,,,,,,,,
6333926e48c34a5d39353558,TCN,2024-06-20_16h28.27.007,LearnStrategy,2023.2.3,Win32,59.52380952,,,,,,,,,,,6,05,2,3,,,,,,,,,,,,,,,,,,,,,,,,,,,,,
6333926e48c34a5d39353558,TCN,2024-06-20_16h28.27.007,LearnStrategy,2023.2.3,Win32,59.52380952,,,,,,,,,,,5,09,2,4,,,,,,,,,,,,,,,,,,,,,,,,,,,,,
6333926e48c34a5d39353558,TCN,2024-06-20_16h28.27.007,LearnStrategy,2023.2.3,Win32,59.52380952,,,,,,,,,,,3,10,2,5,,,,,,,,,,,,,,,,,,,,,,,,,,,,,
6333926e48c34a5d39353558,TCN,2024-06-20_16h28.27.007,LearnStrategy,2023.2.3,Win32,59.52380952,,,,,,,,,,,6,10,2,6,,,,,,,,,,,,,,,,,,,,,,,,,,,,,
6333926e48c34a5d39353558,TCN,2024-06-20_16h28.27.007,LearnStrategy,2023.2.3,Win32,59.52380952,,,,,,,,,,,6,15,2,7,,,,,,,,,,,,,,,,,,,,,,,,,,,,,
6333926e48c34a5d39353558,TCN,2024-06-20_16h28.27.007,LearnStrategy,2023.2.3,Win32,59.52380952,,,,,,,,,,,4,05,2,8,,,,,,,,,,,,,,,,,,,,,,,,,,,,,
6333926e48c34a5d39353558,TCN,2024-06-20_16h28.27.007,LearnStrategy,2023.2.3,Win32,59.52380952,,,,,,,,,,,1,14,3,1,,,,,,,,,,,,,,,,,,,,,,,,,,,,,
6333926e48c34a5d39353558,TCN,2024-06-20_16h28.27.007,LearnStrategy,2023.2.3,Win32,59.52380952,,,,,,,,,,,5,14,3,2,,,,,,,,,,,,,,,,,,,,,,,,,,,,,
6333926e48c34a5d39353558,TCN,2024-06-20_16h28.27.007,LearnStrategy,2023.2.3,Win32,59.52380952,,,,,,,,,,,7,16,3,3,,,,,,,,,,,,,,,,,,,,,,,,,,,,,
6333926e48c34a5d39353558,TCN,2024-06-20_16h28.27.007,LearnStrategy,2023.2.3,Win32,59.52380952,,,,,,,,,,,2,06,3,4,,,,,,,,,,,,,,,,,,,,,,,,,,,,,
6333926e48c34a5d39353558,TCN,2024-06-20_16h28.27.007,LearnStrategy,2023.2.3,Win32,59.52380952,,,,,,,,,,,1,03,3,5,,,,,,,,,,,,,,,,,,,,,,,,,,,,,
6333926e48c34a5d39353558,TCN,2024-06-20_16h28.27.007,LearnStrategy,2023.2.3,Win32,59.52380952,,,,,,,,,,,4,09,3,6,,,,,,,,,,,,,,,,,,,,,,,,,,,,,
6333926e48c34a5d39353558,TCN,2024-06-20_16h28.27.007,LearnStrategy,2023.2.3,Win32,59.52380952,,,,,,,,,,,7,13,3,7,,,,,,,,,,,,,,,,,,,,,,,,,,,,,
6333926e48c34a5d39353558,TCN,2024-06-20_16h28.27.007,LearnStrategy,2023.2.3,Win32,59.52380952,,,,,,,,,,,1,07,3,8,,,,,,,,,,,,,,,,,,,,,,,,,,,,,
6333926e48c34a5d39353558,TCN,2024-06-20_16h28.27.007,LearnStrategy,2023.2.3,Win32,59.52380952,,,,,,,,,,,7,12,4,1,,,,,,,,,,,,,,,,,,,,,,,,,,,,,
6333926e48c34a5d39353558,TCN,2024-06-20_16h28.27.007,LearnStrategy,2023.2.3,Win32,59.52380952,,,,,,,,,,,5,05,4,2,,,,,,,,,,,,,,,,,,,,,,,,,,,,,
6333926e48c34a5d39353558,TCN,2024-06-20_16h28.27.007,LearnStrategy,2023.2.3,Win32,59.52380952,,,,,,,,,,,4,15,4,3,,,,,,,,,,,,,,,,,,,,,,,,,,,,,
6333926e48c34a5d39353558,TCN,2024-06-20_16h28.27.007,LearnStrategy,2023.2.3,Win32,59.52380952,,,,,,,,,,,2,10,4,4,,,,,,,,,,,,,,,,,,,,,,,,,,,,,
6333926e48c34a5d39353558,TCN,2024-06-20_16h28.27.007,LearnStrategy,2023.2.3,Win32,59.52380952,,,,,,,,,,,8,14,4,5,,,,,,,,,,,,,,,,,,,,,,,,,,,,,
6333926e48c34a5d39353558,TCN,2024-06-20_16h28.27.007,LearnStrategy,2023.2.3,Win32,59.52380952,,,,,,,,,,,3,07,4,6,,,,,,,,,,,,,,,,,,,,,,,,,,,,,
6333926e48c34a5d39353558,TCN,2024-06-20_16h28.27.007,LearnStrategy,2023.2.3,Win32,59.52380952,,,,,,,,,,,1,06,4,7,,,,,,,,,,,,,,,,,,,,,,,,,,,,,
6333926e48c34a5d39353558,TCN,2024-06-20_16h28.27.007,LearnStrategy,2023.2.3,Win32,59.52380952,,,,,,,,,,,7,02,4,8,,,,,,,,,,,,,,,,,,,,,,,,,,,,,
6333926e48c34a5d39353558,TCN,2024-06-20_16h28.27.007,LearnStrategy,2023.2.3,Win32,59.52380952,,,,,,,,,,,5,07,5,1,,,,,,,,,,,,,,,,,,,,,,,,,,,,,
6333926e48c34a5d39353558,TCN,2024-06-20_16h28.27.007,LearnStrategy,2023.2.3,Win32,59.52380952,,,,,,,,,,,6,06,5,2,,,,,,,,,,,,,,,,,,,,,,,,,,,,,
6333926e48c34a5d39353558,TCN,2024-06-20_16h28.27.007,LearnStrategy,2023.2.3,Win32,59.52380952,,,,,,,,,,,2,02,5,3,,,,,,,,,,,,,,,,,,,,,,,,,,,,,
6333926e48c34a5d39353558,TCN,2024-06-20_16h28.27.007,LearnStrategy,2023.2.3,Win32,59.52380952,,,,,,,,,,,5,04,5,4,,,,,,,,,,,,,,,,,,,,,,,,,,,,,
6333926e48c34a5d39353558,TCN,2024-06-20_16h28.27.007,LearnStrategy,2023.2.3,Win32,59.52380952,,,,,,,,,,,2,05,5,5,,,,,,,,,,,,,,,,,,,,,,,,,,,,,
6333926e48c34a5d39353558,TCN,2024-06-20_16h28.27.007,LearnStrategy,2023.2.3,Win32,59.52380952,,,,,,,,,,,7,07,5,6,,,,,,,,,,,,,,,,,,,,,,,,,,,,,
6333926e48c34a5d39353558,TCN,2024-06-20_16h28.27.007,LearnStrategy,2023.2.3,Win32,59.52380952,,,,,,,,,,,1,11,5,7,,,,,,,,,,,,,,,,,,,,,,,,,,,,,
6333926e48c34a5d39353558,TCN,2024-06-20_16h28.27.007,LearnStrategy,2023.2.3,Win32,59.52380952,,,,,,,,,,,2,14,5,8,,,,,,,,,,,,,,,,,,,,,,,,,,,,,
6333926e48c34a5d39353558,TCN,2024-06-20_16h28.27.007,LearnStrategy,2023.2.3,Win32,59.52380952,,,,,,,,,,,3,13,6,1,,,,,,,,,,,,,,,,,,,,,,,,,,,,,
6333926e48c34a5d39353558,TCN,2024-06-20_16h28.27.007,LearnStrategy,2023.2.3,Win32,59.52380952,,,,,,,,,,,4,12,6,2,,,,,,,,,,,,,,,,,,,,,,,,,,,,,
6333926e48c34a5d39353558,TCN,2024-06-20_16h28.27.007,LearnStrategy,2023.2.3,Win32,59.52380952,,,,,,,,,,,6,03,6,3,,,,,,,,,,,,,,,,,,,,,,,,,,,,,
6333926e48c34a5d39353558,TCN,2024-06-20_16h28.27.007,LearnStrategy,2023.2.3,Win32,59.52380952,,,,,,,,,,,3,15,6,4,,,,,,,,,,,,,,,,,,,,,,,,,,,,,
6333926e48c34a5d39353558,TCN,2024-06-20_16h28.27.007,LearnStrategy,2023.2.3,Win32,59.52380952,,,,,,,,,,,5,02,6,5,,,,,,,,,,,,,,,,,,,,,,,,,,,,,
6333926e48c34a5d39353558,TCN,2024-06-20_16h28.27.007,LearnStrategy,2023.2.3,Win32,59.52380952,,,,,,,,,,,1,05,6,6,,,,,,,,,,,,,,,,,,,,,,,,,,,,,
6333926e48c34a5d39353558,TCN,2024-06-20_16h28.27.007,LearnStrategy,2023.2.3,Win32,59.52380952,,,,,,,,,,,6,08,6,7,,,,,,,,,,,,,,,,,,,,,,,,,,,,,
6333926e48c34a5d39353558,TCN,2024-06-20_16h28.27.007,LearnStrategy,2023.2.3,Win32,59.52380952,,,,,,,,,,,7,06,6,8,,,,,,,,,,,,,,,,,,,,,,,,,,,,,