participant,condition,date,expName,psychopyVersion,OS,frameRate,block,phase,trial,learn_mouse_2.x,learn_mouse_2.y,learn_mouse_2.leftButton,learn_mouse_2.midButton,learn_mouse_2.rightButton,learn_mouse_2.time,learn_mouse_2.clicked_name,cat,token,row,col,t_select,cat_mouse_l.x,cat_mouse_l.y,cat_mouse_l.leftButton,cat_mouse_l.midButton,cat_mouse_l.rightButton,cat_mouse_l.time,cat_mouse_l.clicked_name,resp,t_resp,corr,train_trials.thisRepN,train_trials.thisTrialN,train_trials.thisN,train_trials.thisIndex,train_trials.ran,cat_mouse_t.x,cat_mouse_t.y,cat_mouse_t.leftButton,cat_mouse_t.midButton,cat_mouse_t.rightButton,cat_mouse_t.time,cat_mouse_t.clicked_name,test_trials.thisRepN,test_trials.thisTrialN,test_trials.thisN,test_trials.thisIndex,test_trials.ran,Bonus
63639d3bbd810ed5c307efc3,TCR,2024-06-11_11h51.13.300,LearnStrategy,2023.2.3,Win32,60.0240096,,,,,,,,,,,,,,,,,,,,,,,,,,,,,,,,,,,,,,,,,,,
63639d3bbd810ed5c307efc3,TCR,2024-06-11_11h51.13.300,LearnStrategy,2023.2.3,Win32,60.0240096,1,1,1,0.108333333,0.004166667,1,0,0,4.705,rock_grid_rect_2,3,02,-1,-1,4.705,-0.151388889,-0.243055556,1,0,0,2.326,Basalt_rect,2,2.326,0,0,0,0,0,1,,,,,,,,,,,,,
63639d3bbd810ed5c307efc3,TCR,2024-06-11_11h51.13.300,LearnStrategy,2023.2.3,Win32,60.0240096,1,1,2,0.101388889,0.001388889,1,0,0,1.641,rock_grid_rect_2,6,03,-1,-1,1.641,-0.359722222,-0.4125,1,0,0,2.763,Obsidian_rect,5,2.763,0,1,0,1,0,1,,,,,,,,,,,,,
63639d3bbd810ed5c307efc3,TCR,2024-06-11_11h51.13.300,LearnStrategy,2023.2.3,Win32,60.0240096,1,1,3,0.173611111,-0.015277778,1,0,0,1.322,rock_grid_rect_2,2,10,-1,-1,1.322,0.338888889,-0.404166667,1,0,0,2.387,Pumice_rect,8,2.387,0,2,0,2,0,1,,,,,,,,,,,,,
63639d3bbd810ed5c307efc3,TCR,2024-06-11_11h51.13.300,LearnStrategy,2023.2.3,Win32,60.0240096,1,1,4,0.1375,0.006944444,1,0,0,1.152,rock_grid_rect_2,2,12,-1,-1,1.152,0.131944444,-0.405555556,1,0,0,2.698,Peridotite_rect,7,2.698,0,3,0,3,0,1,,,,,,,,,,,,,
63639d3bbd810ed5c307efc3,TCR,2024-06-11_11h51.13.300,LearnStrategy,2023.2.3,Win32,60.0240096,1,1,5,0.145833333,-0.001388889,1,0,0,1.203,rock_grid_rect_2,7,05,-1,-1,1.203,-0.333333333,-0.259722222,1,0,0,2.485,Andesite_rect,1,2.485,0,4,0,4,0,1,,,,,,,,,,,,,
63639d3bbd810ed5c307efc3,TCR,2024-06-11_11h51.13.300,LearnStrategy,2023.2.3,Win32,60.0240096,1,1,6,0.091666667,-0.0125,1,0,0,1.491,rock_grid_rect_2,4,11,-1,-1,1.491,-0.109722222,-0.395833333,1,0,0,1.864,Pegmatite_rect,6,1.864,0,5,0,5,0,1,,,,,,,,,,,,,
63639d3bbd810ed5c307efc3,TCR,2024-06-11_11h51.13.300,LearnStrategy,2023.2.3,Win32,60.0240096,1,1,7,0.091666667,0.001388889,1,0,0,2.926,rock_grid_rect_2,5,09,-1,-1,2.926,0.4125,-0.25,1,0,0,1.84,Gabbro_rect,4,1.84,0,6,0,6,0,1,,,,,,,,,,,,,
63639d3bbd810ed5c307efc3,TCR,2024-06-11_11h51.13.300,LearnStrategy,2023.2.3,Win32,60.0240096,1,1,8,0.055555556,-0.0125,1,0,0,1.143,rock_grid_rect_2,7,14,-1,-1,1.143,-0.355555556,-0.258333333,1,0,0,3.267,Andesite_rect,1,3.267,0,7,0,7,0,1,,,,,,,,,,,,,
63639d3bbd810ed5c307efc3,TCR,2024-06-11_11h51.13.300,LearnStrategy,2023.2.3,Win32,60.0240096,1,1,9,0.129166667,0.015277778,1,0,0,1.135,rock_grid_rect_2,4,03,-1,-1,1.135,0.172222222,-0.406944444,1,0,0,6.494,Peridotite_rect,7,6.494,0,8,0,8,0,1,,,,,,,,,,,,,
63639d3bbd810ed5c307efc3,TCR,2024-06-11_11h51.13.300,LearnStrategy,2023.2.3,Win32,60.0240096,1,1,10,0.151388889,-0.011111111,1,0,0,1.608,rock_grid_rect_2,5,10,-1,-1,1.608,0.156944444,-0.393055556,1,0,0,4.53,Peridotite_rect,7,4.53,0,9,0,9,0,1,,,,,,,,,,,,,
63639d3bbd810ed5c307efc3,TCR,2024-06-11_11h51.13.300,LearnStrategy,2023.2.3,Win32,60.0240096,1,1,11,0.152777778,-0.006944444,1,0,0,1.342,rock_grid_rect_2,8,02,-1,-1,1.342,-0.086111111,-0.247222222,1,0,0,2.506,Basalt_rect,2,2.506,0,10,0,10,0,1,,,,,,,,,,,,,
63639d3bbd810ed5c307efc3,TCR,2024-06-11_11h51.13.300,LearnStrategy,2023.2.3,Win32,60.0240096,1,1,12,0.125,0.001388889,1,0,0,1.01,rock_grid_rect_2,1,01,-1,-1,1.01,0.1125,-0.251388889,1,0,0,2.112,Diorite_rect,3,2.112,0,11,0,11,0,1,,,,,,,,,,,,,
63639d3bbd810ed5c307efc3,TCR,2024-06-11_11h51.13.300,LearnStrategy,2023.2.3,Win32,60.0240096,1,1,13,0.168055556,0,1,0,0,1.256,rock_grid_rect_2,3,10,-1,-1,1.256,-0.1,-0.254166667,1,0,0,2.067,Basalt_rect,2,2.067,0,12,0,12,0,1,,,,,,,,,,,,,
63639d3bbd810ed5c307efc3,TCR,2024-06-11_11h51.13.300,LearnStrategy,2023.2.3,Win32,60.0240096,1,1,14,0.173611111,-0.011111111,1,0,0,1.673,rock_grid_rect_2,6,09,-1,-1,1.673,0.138888889,-0.406944444,1,0,0,3.629,Peridotite_rect,7,3.629,0,13,0,13,0,1,,,,,,,,,,,,,
63639d3bbd810ed5c307efc3,TCR,2024-06-11_11h51.13.300,LearnStrategy,2023.2.3,Win32,60.0240096,1,1,15,0.145833333,-0.018055556,1,0,0,0.859,rock_grid_rect_2,8,16,-1,-1,0.859,-0.094444444,-0.25,1,0,0,3.549,Basalt_rect,2,3.549,0,14,0,14,0,1,,,,,,,,,,,,,
63639d3bbd810ed5c307efc3,TCR,2024-06-11_11h51.13.300,LearnStrategy,2023.2.3,Win32,60.0240096,1,1,16,0.1625,-0.019444444,1,0,0,0.975,rock_grid_rect_2,1,07,-1,-1,0.975,0.140277778,-0.25,1,0,0,2.273,Diorite_rect,3,2.273,0,15,0,15,0,1,,,,,,,,,,,,,
63639d3bbd810ed5c307efc3,TCR,2024-06-11_11h51.13.300,LearnStrategy,2023.2.3,Win32,60.0240096,1,2,1,,,,,,,,2,09,,,,,,,,,,,2,14.419,1,,,,,,-0.111111111,-0.240277778,1,0,0,14.419,Basalt_rect,0,0,0,0,1,
63639d3bbd810ed5c307efc3,TCR,2024-06-11_11h51.13.300,LearnStrategy,2023.2.3,Win32,60.0240096,1,2,2,,,,,,,,7,07,,,,,,,,,,,7,10.199,1,,,,,,0.148611111,-0.408333333,1,0,0,10.199,Peridotite_rect,1,0,1,0,1,
63639d3bbd810ed5c307efc3,TCR,2024-06-11_11h51.13.300,LearnStrategy,2023.2.3,Win32,60.0240096,1,2,3,,,,,,,,5,11,,,,,,,,,,,5,7.849,1,,,,,,-0.379166667,-0.395833333,1,0,0,7.849,Obsidian_rect,2,0,2,0,1,
63639d3bbd810ed5c307efc3,TCR,2024-06-11_11h51.13.300,LearnStrategy,2023.2.3,Win32,60.0240096,1,2,4,,,,,,,,3,14,,,,,,,,,,,4,5.996,0,,,,,,0.368055556,-0.254166667,1,0,0,5.996,Gabbro_rect,3,0,3,0,1,
63639d3bbd810ed5c307efc3,TCR,2024-06-11_11h51.13.300,LearnStrategy,2023.2.3,Win32,60.0240096,1,2,5,,,,,,,,4,05,,,,,,,,,,,1,31.375,0,,,,,,-0.391666667,-0.236111111,1,0,0,31.375,Andesite_rect,4,0,4,0,1,
63639d3bbd810ed5c307efc3,TCR,2024-06-11_11h51.13.300,LearnStrategy,2023.2.3,Win32,60.0240096,1,2,6,,,,,,,,4,13,,,,,,,,,,,8,7.829,0,,,,,,0.365277778,-0.398611111,1,0,0,7.829,Pumice_rect,5,0,5,0,1,
63639d3bbd810ed5c307efc3,TCR,2024-06-11_11h51.13.300,LearnStrategy,2023.2.3,Win32,60.0240096,1,2,7,,,,,,,,3,16,,,,,,,,,,,3,6.75,1,,,,,,0.154166667,-0.245833333,1,0,0,6.75,Diorite_rect,6,0,6,0,1,
63639d3bbd810ed5c307efc3,TCR,2024-06-11_11h51.13.300,LearnStrategy,2023.2.3,Win32,60.0240096,1,2,8,,,,,,,,2,04,,,,,,,,,,,2,10.492,1,,,,,,-0.140277778,-0.229166667,1,0,0,10.492,Basalt_rect,7,0,7,0,1,
63639d3bbd810ed5c307efc3,TCR,2024-06-11_11h51.13.300,LearnStrategy,2023.2.3,Win32,60.0240096,1,2,9,,,,,,,,6,10,,,,,,,,,,,6,11.781,1,,,,,,-0.140277778,-0.398611111,1,0,0,11.781,Pegmatite_rect,8,0,8,0,1,
63639d3bbd810ed5c307efc3,TCR,2024-06-11_11h51.13.300,LearnStrategy,2023.2.3,Win32,60.0240096,1,2,10,,,,,,,,1,11,,,,,,,,,,,2,17.297,0,,,,,,-0.101388889,-0.245833333,1,0,0,17.297,Basalt_rect,9,0,9,0,1,
63639d3bbd810ed5c307efc3,TCR,2024-06-11_11h51.13.300,LearnStrategy,2023.2.3,Win32,60.0240096,1,2,11,,,,,,,,1,04,,,,,,,,,,,3,12.837,0,,,,,,0.184722222,-0.245833333,1,0,0,12.837,Diorite_rect,10,0,10,0,1,
63639d3bbd810ed5c307efc3,TCR,2024-06-11_11h51.13.300,LearnStrategy,2023.2.3,Win32,60.0240096,1,2,12,,,,,,,,8,03,,,,,,,,,,,8,7.431,1,,,,,,0.406944444,-0.404166667,1,0,0,7.431,Pumice_rect,11,0,11,0,1,
63639d3bbd810ed5c307efc3,TCR,2024-06-11_11h51.13.300,LearnStrategy,2023.2.3,Win32,60.0240096,1,2,13,,,,,,,,8,10,,,,,,,,,,,8,7.897,1,,,,,,0.397222222,-0.390277778,1,0,0,7.897,Pumice_rect,12,0,12,0,1,
63639d3bbd810ed5c307efc3,TCR,2024-06-11_11h51.13.300,LearnStrategy,2023.2.3,Win32,60.0240096,1,2,14,,,,,,,,6,05,,,,,,,,,,,5,5.135,0,,,,,,-0.359722222,-0.404166667,1,0,0,5.135,Obsidian_rect,13,0,13,0,1,
63639d3bbd810ed5c307efc3,TCR,2024-06-11_11h51.13.300,LearnStrategy,2023.2.3,Win32,60.0240096,1,2,15,,,,,,,,7,02,,,,,,,,,,,7,5.777,1,,,,,,0.144444444,-0.401388889,1,0,0,5.777,Peridotite_rect,14,0,14,0,1,
63639d3bbd810ed5c307efc3,TCR,2024-06-11_11h51.13.300,LearnStrategy,2023.2.3,Win32,60.0240096,1,2,16,,,,,,,,5,07,,,,,,,,,,,5,7.726,1,,,,,,-0.3625,-0.397222222,1,0,0,7.726,Obsidian_rect,15,0,15,0,1,
63639d3bbd810ed5c307efc3,TCR,2024-06-11_11h51.13.300,LearnStrategy,2023.2.3,Win32,60.0240096,2,1,1,0.068055556,-0.001388889,1,0,0,2.168,rock_grid_rect_2,1,07,-1,-1,2.168,0.384722222,-0.244444444,1,0,0,6.942,Gabbro_rect,4,6.942,0,0,0,0,0,1,,,,,,,,,,,,,
63639d3bbd810ed5c307efc3,TCR,2024-06-11_11h51.13.300,LearnStrategy,2023.2.3,Win32,60.0240096,2,1,2,0.070833333,0.009722222,1,0,0,1.857,rock_grid_rect_2,1,06,-1,-1,1.857,0.393055556,-0.25,1,0,0,3.83,Gabbro_rect,4,3.83,0,1,0,1,0,1,,,,,,,,,,,,,
63639d3bbd810ed5c307efc3,TCR,2024-06-11_11h51.13.300,LearnStrategy,2023.2.3,Win32,60.0240096,2,1,3,0.119444444,0.006944444,1,0,0,1.075,rock_grid_rect_2,3,13,-1,-1,1.075,-0.093055556,-0.248611111,1,0,0,3.723,Basalt_rect,2,3.723,0,2,0,2,0,1,,,,,,,,,,,,,
63639d3bbd810ed5c307efc3,TCR,2024-06-11_11h51.13.300,LearnStrategy,2023.2.3,Win32,60.0240096,2,1,4,0.134722222,-0.004166667,1,0,0,1.156,rock_grid_rect_2,2,08,-1,-1,1.156,-0.106944444,-0.241666667,1,0,0,3.227,Basalt_rect,2,3.227,1,3,0,3,0,1,,,,,,,,,,,,,
63639d3bbd810ed5c307efc3,TCR,2024-06-11_11h51.13.300,LearnStrategy,2023.2.3,Win32,60.0240096,2,1,5,0.127777778,-0.016666667,1,0,0,1.393,rock_grid_rect_2,8,09,-1,-1,1.393,0.173611111,-0.268055556,1,0,0,3.123,Diorite_rect,3,3.123,0,4,0,4,0,1,,,,,,,,,,,,,
63639d3bbd810ed5c307efc3,TCR,2024-06-11_11h51.13.300,LearnStrategy,2023.2.3,Win32,60.0240096,2,1,6,0.145833333,-0.001388889,1,0,0,1.158,rock_grid_rect_2,1,02,-1,-1,1.158,0.156944444,-0.247222222,1,0,0,1.811,Diorite_rect,3,1.811,0,5,0,5,0,1,,,,,,,,,,,,,
63639d3bbd810ed5c307efc3,TCR,2024-06-11_11h51.13.300,LearnStrategy,2023.2.3,Win32,60.0240096,2,1,7,0.140277778,-0.009722222,1,0,0,0.959,rock_grid_rect_2,6,13,-1,-1,0.959,-0.373611111,-0.401388889,1,0,0,2.545,Obsidian_rect,5,2.545,0,6,0,6,0,1,,,,,,,,,,,,,
63639d3bbd810ed5c307efc3,TCR,2024-06-11_11h51.13.300,LearnStrategy,2023.2.3,Win32,60.0240096,2,1,8,0.070833333,-0.001388889,1,0,0,1.076,rock_grid_rect_2,4,15,-1,-1,1.076,0.363888889,-0.409722222,1,0,0,1.228,Pumice_rect,8,1.228,0,7,0,7,0,1,,,,,,,,,,,,,
63639d3bbd810ed5c307efc3,TCR,2024-06-11_11h51.13.300,LearnStrategy,2023.2.3,Win32,60.0240096,2,1,9,0.152777778,0.001388889,1,0,0,2.571,rock_grid_rect_2,4,08,-1,-1,2.571,0.388888889,-0.256944444,1,0,0,3.592,Gabbro_rect,4,3.592,1,8,0,8,0,1,,,,,,,,,,,,,
63639d3bbd810ed5c307efc3,TCR,2024-06-11_11h51.13.300,LearnStrategy,2023.2.3,Win32,60.0240096,2,1,10,0.134722222,0.008333333,1,0,0,1.092,rock_grid_rect_2,4,11,-1,-1,1.092,0.118055556,-0.270833333,1,0,0,1.858,Diorite_rect,3,1.858,0,9,0,9,0,1,,,,,,,,,,,,,
63639d3bbd810ed5c307efc3,TCR,2024-06-11_11h51.13.300,LearnStrategy,2023.2.3,Win32,60.0240096,2,1,11,0.144444444,-0.005555556,1,0,0,0.925,rock_grid_rect_2,3,12,-1,-1,0.925,-0.376388889,-0.2375,1,0,0,1.774,Andesite_rect,1,1.774,0,10,0,10,0,1,,,,,,,,,,,,,
63639d3bbd810ed5c307efc3,TCR,2024-06-11_11h51.13.300,LearnStrategy,2023.2.3,Win32,60.0240096,2,1,12,0.152777778,0.0125,1,0,0,0.894,rock_grid_rect_2,4,10,-1,-1,0.894,0.365277778,-0.394444444,1,0,0,4.651,Pumice_rect,8,4.651,0,11,0,11,0,1,,,,,,,,,,,,,
63639d3bbd810ed5c307efc3,TCR,2024-06-11_11h51.13.300,LearnStrategy,2023.2.3,Win32,60.0240096,2,1,13,0.043055556,0.008333333,1,0,0,1.244,rock_grid_rect_2,1,10,-1,-1,1.244,-0.118055556,-0.398611111,1,0,0,1.807,Pegmatite_rect,6,1.807,0,12,0,12,0,1,,,,,,,,,,,,,
63639d3bbd810ed5c307efc3,TCR,2024-06-11_11h51.13.300,LearnStrategy,2023.2.3,Win32,60.0240096,2,1,14,0.045833333,-0.006944444,1,0,0,0.956,rock_grid_rect_2,3,02,-1,-1,0.956,-0.379166667,-0.251388889,1,0,0,1.407,Andesite_rect,1,1.407,0,13,0,13,0,1,,,,,,,,,,,,,
63639d3bbd810ed5c307efc3,TCR,2024-06-11_11h51.13.300,LearnStrategy,2023.2.3,Win32,60.0240096,2,1,15,0.090277778,-0.015277778,1,0,0,3.391,rock_grid_rect_2,5,09,-1,-1,3.391,-0.084722222,-0.404166667,1,0,0,3.095,Pegmatite_rect,6,3.095,0,14,0,14,0,1,,,,,,,,,,,,,
63639d3bbd810ed5c307efc3,TCR,2024-06-11_11h51.13.300,LearnStrategy,2023.2.3,Win32,60.0240096,2,1,16,0.052777778,0.004166667,1,0,0,1.06,rock_grid_rect_2,6,08,-1,-1,1.06,-0.393055556,-0.384722222,1,0,0,1.824,Obsidian_rect,5,1.824,0,15,0,15,0,1,,,,,,,,,,,,,
63639d3bbd810ed5c307efc3,TCR,2024-06-11_11h51.13.300,LearnStrategy,2023.2.3,Win32,60.0240096,2,2,1,,,,,,,,3,07,,,,,,,,,,,3,2.983,1,,,,,,0.140277778,-0.244444444,1,0,0,2.983,Diorite_rect,0,0,0,0,1,
63639d3bbd810ed5c307efc3,TCR,2024-06-11_11h51.13.300,LearnStrategy,2023.2.3,Win32,60.0240096,2,2,2,,,,,,,,1,03,,,,,,,,,,,2,1.712,0,,,,,,-0.127777778,-0.254166667,1,0,0,1.712,Basalt_rect,1,0,1,0,1,
63639d3bbd810ed5c307efc3,TCR,2024-06-11_11h51.13.300,LearnStrategy,2023.2.3,Win32,60.0240096,2,2,3,,,,,,,,3,06,,,,,,,,,,,3,9.153,1,,,,,,0.170833333,-0.254166667,1,0,0,9.153,Diorite_rect,2,0,2,0,1,
63639d3bbd810ed5c307efc3,TCR,2024-06-11_11h51.13.300,LearnStrategy,2023.2.3,Win32,60.0240096,2,2,4,,,,,,,,6,15,,,,,,,,,,,6,6.139,1,,,,,,-0.086111111,-0.3875,1,0,0,6.139,Pegmatite_rect,3,0,3,0,1,
63639d3bbd810ed5c307efc3,TCR,2024-06-11_11h51.13.300,LearnStrategy,2023.2.3,Win32,60.0240096,2,2,5,,,,,,,,2,16,,,,,,,,,,,2,3.878,1,,,,,,-0.136111111,-0.2625,1,0,0,3.878,Basalt_rect,4,0,4,0,1,
63639d3bbd810ed5c307efc3,TCR,2024-06-11_11h51.13.300,LearnStrategy,2023.2.3,Win32,60.0240096,2,2,6,,,,,,,,5,16,,,,,,,,,,,5,94.119,1,,,,,,-0.3875,-0.404166667,1,0,0,94.119,Obsidian_rect,5,0,5,0,1,
63639d3bbd810ed5c307efc3,TCR,2024-06-11_11h51.13.300,LearnStrategy,2023.2.3,Win32,60.0240096,2,2,7,,,,,,,,8,15,,,,,,,,,,,8,7.526,1,,,,,,0.394444444,-0.411111111,1,0,0,7.526,Pumice_rect,6,0,6,0,1,
63639d3bbd810ed5c307efc3,TCR,2024-06-11_11h51.13.300,LearnStrategy,2023.2.3,Win32,60.0240096,2,2,8,,,,,,,,2,01,,,,,,,,,,,2,9.135,1,,,,,,-0.126388889,-0.254166667,1,0,0,9.135,Basalt_rect,7,0,7,0,1,
63639d3bbd810ed5c307efc3,TCR,2024-06-11_11h51.13.300,LearnStrategy,2023.2.3,Win32,60.0240096,2,2,9,,,,,,,,1,14,,,,,,,,,,,7,5.959,0,,,,,,0.102777778,-0.406944444,1,0,0,5.959,Peridotite_rect,8,0,8,0,1,
63639d3bbd810ed5c307efc3,TCR,2024-06-11_11h51.13.300,LearnStrategy,2023.2.3,Win32,60.0240096,2,2,10,,,,,,,,4,12,,,,,,,,,,,4,4.842,1,,,,,,0.416666667,-0.254166667,1,0,0,4.842,Gabbro_rect,9,0,9,0,1,
63639d3bbd810ed5c307efc3,TCR,2024-06-11_11h51.13.300,LearnStrategy,2023.2.3,Win32,60.0240096,2,2,11,,,,,,,,8,04,,,,,,,,,,,8,4.469,1,,,,,,0.363888889,-0.401388889,1,0,0,4.469,Pumice_rect,10,0,10,0,1,
63639d3bbd810ed5c307efc3,TCR,2024-06-11_11h51.13.300,LearnStrategy,2023.2.3,Win32,60.0240096,2,2,12,,,,,,,,7,08,,,,,,,,,,,4,14.622,0,,,,,,0.413888889,-0.259722222,1,0,0,14.622,Gabbro_rect,11,0,11,0,1,
63639d3bbd810ed5c307efc3,TCR,2024-06-11_11h51.13.300,LearnStrategy,2023.2.3,Win32,60.0240096,2,2,13,,,,,,,,7,13,,,,,,,,,,,3,4.922,0,,,,,,0.123611111,-0.255555556,1,0,0,4.922,Diorite_rect,12,0,12,0,1,
63639d3bbd810ed5c307efc3,TCR,2024-06-11_11h51.13.300,LearnStrategy,2023.2.3,Win32,60.0240096,2,2,14,,,,,,,,4,14,,,,,,,,,,,4,4.947,1,,,,,,0.409722222,-0.251388889,1,0,0,4.947,Gabbro_rect,13,0,13,0,1,
63639d3bbd810ed5c307efc3,TCR,2024-06-11_11h51.13.300,LearnStrategy,2023.2.3,Win32,60.0240096,2,2,15,,,,,,,,5,12,,,,,,,,,,,5,13.369,1,,,,,,-0.3875,-0.402777778,1,0,0,13.369,Obsidian_rect,14,0,14,0,1,
63639d3bbd810ed5c307efc3,TCR,2024-06-11_11h51.13.300,LearnStrategy,2023.2.3,Win32,60.0240096,2,2,16,,,,,,,,6,12,,,,,,,,,,,7,8.692,0,,,,,,0.151388889,-0.411111111,1,0,0,8.692,Peridotite_rect,15,0,15,0,1,
63639d3bbd810ed5c307efc3,TCR,2024-06-11_11h51.13.300,LearnStrategy,2023.2.3,Win32,60.0240096,3,1,1,0.076388889,0.001388889,1,0,0,7.977,rock_grid_rect_2,1,10,-1,-1,7.977,-0.097222222,-0.265277778,1,0,0,1.516,Basalt_rect,2,1.516,0,0,0,0,0,1,,,,,,,,,,,,,
63639d3bbd810ed5c307efc3,TCR,2024-06-11_11h51.13.300,LearnStrategy,2023.2.3,Win32,60.0240096,3,1,2,0.066666667,-0.004166667,1,0,0,0.976,rock_grid_rect_2,6,06,-1,-1,0.976,0.1375,-0.406944444,1,0,0,2.422,Peridotite_rect,7,2.422,0,1,0,1,0,1,,,,,,,,,,,,,
63639d3bbd810ed5c307efc3,TCR,2024-06-11_11h51.13.300,LearnStrategy,2023.2.3,Win32,60.0240096,3,1,3,0.081944444,-0.001388889,1,0,0,0.892,rock_grid_rect_2,2,12,-1,-1,0.892,0.376388889,-0.254166667,1,0,0,1.831,Gabbro_rect,4,1.831,0,2,0,2,0,1,,,,,,,,,,,,,
63639d3bbd810ed5c307efc3,TCR,2024-06-11_11h51.13.300,LearnStrategy,2023.2.3,Win32,60.0240096,3,1,4,0.084722222,0.006944444,1,0,0,0.875,rock_grid_rect_2,1,07,-1,-1,0.875,0.119444444,-0.258333333,1,0,0,1.522,Diorite_rect,3,1.522,0,3,0,3,0,1,,,,,,,,,,,,,
63639d3bbd810ed5c307efc3,TCR,2024-06-11_11h51.13.300,LearnStrategy,2023.2.3,Win32,60.0240096,3,1,5,0.073611111,-0.001388889,1,0,0,0.877,rock_grid_rect_2,1,01,-1,-1,0.877,0.105555556,-0.247222222,1,0,0,2.865,Diorite_rect,3,2.865,0,4,0,4,0,1,,,,,,,,,,,,,
63639d3bbd810ed5c307efc3,TCR,2024-06-11_11h51.13.300,LearnStrategy,2023.2.3,Win32,60.0240096,3,1,6,0.054166667,-0.009722222,1,0,0,0.891,rock_grid_rect_2,3,10,-1,-1,0.891,-0.081944444,-0.401388889,1,0,0,1.116,Pegmatite_rect,6,1.116,0,5,0,5,0,1,,,,,,,,,,,,,
63639d3bbd810ed5c307efc3,TCR,2024-06-11_11h51.13.300,LearnStrategy,2023.2.3,Win32,60.0240096,3,1,7,0.041666667,0.001388889,1,0,0,0.844,rock_grid_rect_2,4,11,-1,-1,0.844,-0.115277778,-0.259722222,1,0,0,1.178,Basalt_rect,2,1.178,0,6,0,6,0,1,,,,,,,,,,,,,
63639d3bbd810ed5c307efc3,TCR,2024-06-11_11h51.13.300,LearnStrategy,2023.2.3,Win32,60.0240096,3,1,8,0.026388889,0.001388889,1,0,0,0.827,rock_grid_rect_2,8,05,-1,-1,0.827,0.129166667,-0.259722222,1,0,0,1.025,Diorite_rect,3,1.025,0,7,0,7,0,1,,,,,,,,,,,,,
63639d3bbd810ed5c307efc3,TCR,2024-06-11_11h51.13.300,LearnStrategy,2023.2.3,Win32,60.0240096,3,1,9,0.079166667,0.004166667,1,0,0,0.829,rock_grid_rect_2,7,12,-1,-1,0.829,0.377777778,-0.268055556,1,0,0,1.123,Gabbro_rect,4,1.123,0,8,0,8,0,1,,,,,,,,,,,,,
63639d3bbd810ed5c307efc3,TCR,2024-06-11_11h51.13.300,LearnStrategy,2023.2.3,Win32,60.0240096,3,1,10,0.069444444,0.006944444,1,0,0,0.894,rock_grid_rect_2,7,06,-1,-1,0.894,0.181944444,-0.402777778,1,0,0,1.792,Peridotite_rect,7,1.792,1,9,0,9,0,1,,,,,,,,,,,,,
63639d3bbd810ed5c307efc3,TCR,2024-06-11_11h51.13.300,LearnStrategy,2023.2.3,Win32,60.0240096,3,1,11,0.019444444,0.015277778,1,0,0,0.859,rock_grid_rect_2,3,02,-1,-1,0.859,-0.094444444,-0.404166667,1,0,0,1.256,Pegmatite_rect,6,1.256,0,10,0,10,0,1,,,,,,,,,,,,,
63639d3bbd810ed5c307efc3,TCR,2024-06-11_11h51.13.300,LearnStrategy,2023.2.3,Win32,60.0240096,3,1,12,0.055555556,0.004166667,1,0,0,0.876,rock_grid_rect_2,6,09,-1,-1,0.876,0.126388889,-0.398611111,1,0,0,1.373,Peridotite_rect,7,1.373,0,11,0,11,0,1,,,,,,,,,,,,,
63639d3bbd810ed5c307efc3,TCR,2024-06-11_11h51.13.300,LearnStrategy,2023.2.3,Win32,60.0240096,3,1,13,0.013888889,-0.006944444,1,0,0,1.376,rock_grid_rect_2,4,11,-1,-1,1.376,0.125,-0.244444444,1,0,0,1.201,Diorite_rect,3,1.201,0,12,0,12,0,1,,,,,,,,,,,,,
63639d3bbd810ed5c307efc3,TCR,2024-06-11_11h51.13.300,LearnStrategy,2023.2.3,Win32,60.0240096,3,1,14,0.018055556,-0.002777778,1,0,0,0.794,rock_grid_rect_2,7,12,-1,-1,0.794,-0.063888889,-0.401388889,1,0,0,1.866,Pegmatite_rect,6,1.866,0,13,0,13,0,1,,,,,,,,,,,,,
63639d3bbd810ed5c307efc3,TCR,2024-06-11_11h51.13.300,LearnStrategy,2023.2.3,Win32,60.0240096,3,1,15,0.0625,0.009722222,1,0,0,0.71,rock_grid_rect_2,5,05,-1,-1,0.71,0.104166667,-0.381944444,1,0,0,1.205,Peridotite_rect,7,1.205,0,14,0,14,0,1,,,,,,,,,,,,,
63639d3bbd810ed5c307efc3,TCR,2024-06-11_11h51.13.300,LearnStrategy,2023.2.3,Win32,60.0240096,3,1,16,-0.015277778,-0.004166667,1,0,0,0.771,rock_grid_rect_2,1,02,-1,-1,0.771,0.341666667,-0.268055556,1,0,0,1.396,Gabbro_rect,4,1.396,0,15,0,15,0,1,,,,,,,,,,,,,
63639d3bbd810ed5c307efc3,TCR,2024-06-11_11h51.13.300,LearnStrategy,2023.2.3,Win32,60.0240096,3,2,1,,,,,,,,3,15,,,,,,,,,,,2,1.836,0,,,,,,-0.168055556,-0.245833333,1,0,0,1.836,Basalt_rect,0,0,0,0,1,
63639d3bbd810ed5c307efc3,TCR,2024-06-11_11h51.13.300,LearnStrategy,2023.2.3,Win32,60.0240096,3,2,2,,,,,,,,7,16,,,,,,,,,,,1,1.163,0,,,,,,-0.386111111,-0.265277778,1,0,0,1.163,Andesite_rect,1,0,1,0,1,
63639d3bbd810ed5c307efc3,TCR,2024-06-11_11h51.13.300,LearnStrategy,2023.2.3,Win32,60.0240096,3,2,3,,,,,,,,4,09,,,,,,,,,,,3,0.749,0,,,,,,0.0875,-0.25,1,0,0,0.749,Diorite_rect,2,0,2,0,1,
63639d3bbd810ed5c307efc3,TCR,2024-06-11_11h51.13.300,LearnStrategy,2023.2.3,Win32,60.0240096,3,2,4,,,,,,,,7,04,,,,,,,,,,,6,0.58,0,,,,,,-0.113888889,-0.405555556,1,0,0,0.58,Pegmatite_rect,3,0,3,0,1,
63639d3bbd810ed5c307efc3,TCR,2024-06-11_11h51.13.300,LearnStrategy,2023.2.3,Win32,60.0240096,3,2,5,,,,,,,,3,09,,,,,,,,,,,7,0.696,0,,,,,,0.086111111,-0.388888889,1,0,0,0.696,Peridotite_rect,4,0,4,0,1,
63639d3bbd810ed5c307efc3,TCR,2024-06-11_11h51.13.300,LearnStrategy,2023.2.3,Win32,60.0240096,3,2,6,,,,,,,,5,08,,,,,,,,,,,6,1.614,0,,,,,,-0.084722222,-0.402777778,1,0,0,1.614,Pegmatite_rect,5,0,5,0,1,
63639d3bbd810ed5c307efc3,TCR,2024-06-11_11h51.13.300,LearnStrategy,2023.2.3,Win32,60.0240096,3,2,7,,,,,,,,2,05,,,,,,,,,,,2,1.958,1,,,,,,-0.1125,-0.254166667,1,0,0,1.958,Basalt_rect,6,0,6,0,1,
63639d3bbd810ed5c307efc3,TCR,2024-06-11_11h51.13.300,LearnStrategy,2023.2.3,Win32,60.0240096,3,2,8,,,,,,,,5,14,,,,,,,,,,,5,1.138,1,,,,,,-0.366666667,-0.405555556,1,0,0,1.138,Obsidian_rect,7,0,7,0,1,
63639d3bbd810ed5c307efc3,TCR,2024-06-11_11h51.13.300,LearnStrategy,2023.2.3,Win32,60.0240096,3,2,9,,,,,,,,2,06,,,,,,,,,,,2,1.134,1,,,,,,-0.126388889,-0.259722222,1,0,0,1.134,Basalt_rect,8,0,8,0,1,
63639d3bbd810ed5c307efc3,TCR,2024-06-11_11h51.13.300,LearnStrategy,2023.2.3,Win32,60.0240096,3,2,10,,,,,,,,8,06,,,,,,,,,,,3,1.323,0,,,,,,0.169444444,-0.256944444,1,0,0,1.323,Diorite_rect,9,0,9,0,1,
63639d3bbd810ed5c307efc3,TCR,2024-06-11_11h51.13.300,LearnStrategy,2023.2.3,Win32,60.0240096,3,2,11,,,,,,,,6,16,,,,,,,,,,,1,2.383,0,,,,,,-0.383333333,-0.252777778,1,0,0,2.383,Andesite_rect,10,0,10,0,1,
63639d3bbd810ed5c307efc3,TCR,2024-06-11_11h51.13.300,LearnStrategy,2023.2.3,Win32,60.0240096,3,2,12,,,,,,,,1,05,,,,,,,,,,,6,1.263,0,,,,,,-0.093055556,-0.398611111,1,0,0,1.263,Pegmatite_rect,11,0,11,0,1,
63639d3bbd810ed5c307efc3,TCR,2024-06-11_11h51.13.300,LearnStrategy,2023.2.3,Win32,60.0240096,3,2,13,,,,,,,,8,13,,,,,,,,,,,4,1.413,0,,,,,,0.343055556,-0.251388889,1,0,0,1.413,Gabbro_rect,12,0,12,0,1,
63639d3bbd810ed5c307efc3,TCR,2024-06-11_11h51.13.300,LearnStrategy,2023.2.3,Win32,60.0240096,3,2,14,,,,,,,,4,01,,,,,,,,,,,8,1.338,0,,,,,,0.372222222,-0.391666667,1,0,0,1.338,Pumice_rect,13,0,13,0,1,
63639d3bbd810ed5c307efc3,TCR,2024-06-11_11h51.13.300,LearnStrategy,2023.2.3,Win32,60.0240096,3,2,15,,,,,,,,1,16,,,,,,,,,,,7,1.154,0,,,,,,0.159722222,-0.401388889,1,0,0,1.154,Peridotite_rect,14,0,14,0,1,
63639d3bbd810ed5c307efc3,TCR,2024-06-11_11h51.13.300,LearnStrategy,2023.2.3,Win32,60.0240096,3,2,16,,,,,,,,6,11,,,,,,,,,,,6,1.108,1,,,,,,-0.086111111,-0.4,1,0,0,1.108,Pegmatite_rect,15,0,15,0,1,
63639d3bbd810ed5c307efc3,TCR,2024-06-11_11h51.13.300,LearnStrategy,2023.2.3,Win32,60.0240096,4,1,1,0.004166667,0.001388889,1,0,0,1.803,rock_grid_rect_2,8,16,-1,-1,1.803,0.3875,-0.244444444,1,0,0,2.717,Gabbro_rect,4,2.717,0,0,0,0,0,1,,,,,,,,,,,,,
63639d3bbd810ed5c307efc3,TCR,2024-06-11_11h51.13.300,LearnStrategy,2023.2.3,Win32,60.0240096,4,1,2,0.044444444,0.0125,1,0,0,0.927,rock_grid_rect_2,6,09,-1,-1,0.927,-0.095833333,-0.405555556,1,0,0,1.923,Pegmatite_rect,6,1.923,1,1,0,1,0,1,,,,,,,,,,,,,
63639d3bbd810ed5c307efc3,TCR,2024-06-11_11h51.13.300,LearnStrategy,2023.2.3,Win32,60.0240096,4,1,3,-0.004166667,0.006944444,1,0,0,0.942,rock_grid_rect_2,3,02,-1,-1,0.942,0.098611111,-0.404166667,1,0,0,1.037,Peridotite_rect,7,1.037,0,2,0,2,0,1,,,,,,,,,,,,,
63639d3bbd810ed5c307efc3,TCR,2024-06-11_11h51.13.300,LearnStrategy,2023.2.3,Win32,60.0240096,4,1,4,0.0125,-0.009722222,1,0,0,0.875,rock_grid_rect_2,1,10,-1,-1,0.875,0.340277778,-0.254166667,1,0,0,2.841,Gabbro_rect,4,2.841,0,3,0,3,0,1,,,,,,,,,,,,,
63639d3bbd810ed5c307efc3,TCR,2024-06-11_11h51.13.300,LearnStrategy,2023.2.3,Win32,60.0240096,4,1,5,0.018055556,0.006944444,1,0,0,0.728,rock_grid_rect_2,8,02,-1,-1,0.728,-0.369444444,-0.247222222,1,0,0,2.832,Andesite_rect,1,2.832,0,4,0,4,0,1,,,,,,,,,,,,,
63639d3bbd810ed5c307efc3,TCR,2024-06-11_11h51.13.300,LearnStrategy,2023.2.3,Win32,60.0240096,4,1,6,-0.029166667,0,1,0,0,0.794,rock_grid_rect_2,2,08,-1,-1,0.794,-0.104166667,-0.254166667,1,0,0,1.339,Basalt_rect,2,1.339,1,5,0,5,0,1,,,,,,,,,,,,,
63639d3bbd810ed5c307efc3,TCR,2024-06-11_11h51.13.300,LearnStrategy,2023.2.3,Win32,60.0240096,4,1,7,-0.009722222,-0.0125,1,0,0,0.877,rock_grid_rect_2,5,09,-1,-1,0.877,-0.369444444,-0.401388889,1,0,0,2.821,Obsidian_rect,5,2.821,1,6,0,6,0,1,,,,,,,,,,,,,
63639d3bbd810ed5c307efc3,TCR,2024-06-11_11h51.13.300,LearnStrategy,2023.2.3,Win32,60.0240096,4,1,8,-0.052777778,-0.006944444,1,0,0,0.907,rock_grid_rect_2,4,16,-1,-1,0.907,0.123611111,-0.4,1,0,0,3.758,Peridotite_rect,7,3.758,0,7,0,7,0,1,,,,,,,,,,,,,
63639d3bbd810ed5c307efc3,TCR,2024-06-11_11h51.13.300,LearnStrategy,2023.2.3,Win32,60.0240096,4,1,9,0.018055556,-0.004166667,1,0,0,0.892,rock_grid_rect_2,1,02,-1,-1,0.892,0.111111111,-0.256944444,1,0,0,1.117,Diorite_rect,3,1.117,0,8,0,8,0,1,,,,,,,,,,,,,
63639d3bbd810ed5c307efc3,TCR,2024-06-11_11h51.13.300,LearnStrategy,2023.2.3,Win32,60.0240096,4,1,10,0.020833333,0.004166667,1,0,0,0.826,rock_grid_rect_2,1,06,-1,-1,0.826,0.359722222,-0.258333333,1,0,0,1.398,Gabbro_rect,4,1.398,0,9,0,9,0,1,,,,,,,,,,,,,
63639d3bbd810ed5c307efc3,TCR,2024-06-11_11h51.13.300,LearnStrategy,2023.2.3,Win32,60.0240096,4,1,11,0.027777778,0.004166667,1,0,0,1.526,rock_grid_rect_2,6,08,-1,-1,1.526,-0.363888889,-0.394444444,1,0,0,1.473,Obsidian_rect,5,1.473,0,10,0,10,0,1,,,,,,,,,,,,,
63639d3bbd810ed5c307efc3,TCR,2024-06-11_11h51.13.300,LearnStrategy,2023.2.3,Win32,60.0240096,4,1,12,-0.029166667,0.001388889,1,0,0,0.808,rock_grid_rect_2,7,10,-1,-1,0.808,-0.094444444,-0.395833333,1,0,0,0.95,Pegmatite_rect,6,0.95,0,11,0,11,0,1,,,,,,,,,,,,,
63639d3bbd810ed5c307efc3,TCR,2024-06-11_11h51.13.300,LearnStrategy,2023.2.3,Win32,60.0240096,4,1,13,0.027777778,0.009722222,1,0,0,0.91,rock_grid_rect_2,4,08,-1,-1,0.91,0.101388889,-0.401388889,1,0,0,0.688,Peridotite_rect,7,0.688,0,12,0,12,0,1,,,,,,,,,,,,,
63639d3bbd810ed5c307efc3,TCR,2024-06-11_11h51.13.300,LearnStrategy,2023.2.3,Win32,60.0240096,4,1,14,-0.004166667,0.004166667,1,0,0,0.762,rock_grid_rect_2,7,05,-1,-1,0.762,-0.359722222,-0.4,1,0,0,1.686,Obsidian_rect,5,1.686,0,13,0,13,0,1,,,,,,,,,,,,,
63639d3bbd810ed5c307efc3,TCR,2024-06-11_11h51.13.300,LearnStrategy,2023.2.3,Win32,60.0240096,4,1,15,0,0.004166667,1,0,0,0.692,rock_grid_rect_2,3,12,-1,-1,0.692,-0.084722222,-0.406944444,1,0,0,1.699,Pegmatite_rect,6,1.699,0,14,0,14,0,1,,,,,,,,,,,,,
63639d3bbd810ed5c307efc3,TCR,2024-06-11_11h51.13.300,LearnStrategy,2023.2.3,Win32,60.0240096,4,1,16,-0.008333333,-0.006944444,1,0,0,0.912,rock_grid_rect_2,7,14,-1,-1,0.912,0.131944444,-0.234722222,1,0,0,1.07,Diorite_rect,3,1.07,0,15,0,15,0,1,,,,,,,,,,,,,
63639d3bbd810ed5c307efc3,TCR,2024-06-11_11h51.13.300,LearnStrategy,2023.2.3,Win32,60.0240096,4,2,1,,,,,,,,8,15,,,,,,,,,,,4,1.761,0,,,,,,0.380555556,-0.251388889,1,0,0,1.761,Gabbro_rect,0,0,0,0,1,
63639d3bbd810ed5c307efc3,TCR,2024-06-11_11h51.13.300,LearnStrategy,2023.2.3,Win32,60.0240096,4,2,2,,,,,,,,4,09,,,,,,,,,,,8,1.238,0,,,,,,0.345833333,-0.397222222,1,0,0,1.238,Pumice_rect,1,0,1,0,1,
63639d3bbd810ed5c307efc3,TCR,2024-06-11_11h51.13.300,LearnStrategy,2023.2.3,Win32,60.0240096,4,2,3,,,,,,,,7,16,,,,,,,,,,,3,1.897,0,,,,,,0.168055556,-0.268055556,1,0,0,1.897,Diorite_rect,2,0,2,0,1,
63639d3bbd810ed5c307efc3,TCR,2024-06-11_11h51.13.300,LearnStrategy,2023.2.3,Win32,60.0240096,4,2,4,,,,,,,,6,16,,,,,,,,,,,5,1.231,0,,,,,,-0.354166667,-0.409722222,1,0,0,1.231,Obsidian_rect,3,0,3,0,1,
63639d3bbd810ed5c307efc3,TCR,2024-06-11_11h51.13.300,LearnStrategy,2023.2.3,Win32,60.0240096,4,2,5,,,,,,,,3,09,,,,,,,,,,,6,0.826,0,,,,,,-0.098611111,-0.413888889,1,0,0,0.826,Pegmatite_rect,4,0,4,0,1,
63639d3bbd810ed5c307efc3,TCR,2024-06-11_11h51.13.300,LearnStrategy,2023.2.3,Win32,60.0240096,4,2,6,,,,,,,,2,09,,,,,,,,,,,2,1.146,1,,,,,,-0.080555556,-0.2625,1,0,0,1.146,Basalt_rect,5,0,5,0,1,
63639d3bbd810ed5c307efc3,TCR,2024-06-11_11h51.13.300,LearnStrategy,2023.2.3,Win32,60.0240096,4,2,7,,,,,,,,3,14,,,,,,,,,,,7,0.824,0,,,,,,0.123611111,-0.406944444,1,0,0,0.824,Peridotite_rect,6,0,6,0,1,
63639d3bbd810ed5c307efc3,TCR,2024-06-11_11h51.13.300,LearnStrategy,2023.2.3,Win32,60.0240096,4,2,8,,,,,,,,1,11,,,,,,,,,,,3,1.374,0,,,,,,0.093055556,-0.263888889,1,0,0,1.374,Diorite_rect,7,0,7,0,1,
63639d3bbd810ed5c307efc3,TCR,2024-06-11_11h51.13.300,LearnStrategy,2023.2.3,Win32,60.0240096,4,2,9,,,,,,,,6,05,,,,,,,,,,,6,1.226,1,,,,,,-0.070833333,-0.405555556,1,0,0,1.226,Pegmatite_rect,8,0,8,0,1,
63639d3bbd810ed5c307efc3,TCR,2024-06-11_11h51.13.300,LearnStrategy,2023.2.3,Win32,60.0240096,4,2,10,,,,,,,,4,14,,,,,,,,,,,3,1.465,0,,,,,,0.084722222,-0.251388889,1,0,0,1.465,Diorite_rect,9,0,9,0,1,
63639d3bbd810ed5c307efc3,TCR,2024-06-11_11h51.13.300,LearnStrategy,2023.2.3,Win32,60.0240096,4,2,11,,,,,,,,5,07,,,,,,,,,,,5,1.553,1,,,,,,-0.393055556,-0.3875,1,0,0,1.553,Obsidian_rect,10,0,10,0,1,
63639d3bbd810ed5c307efc3,TCR,2024-06-11_11h51.13.300,LearnStrategy,2023.2.3,Win32,60.0240096,4,2,12,,,,,,,,2,16,,,,,,,,,,,2,1.087,1,,,,,,-0.093055556,-0.263888889,1,0,0,1.087,Basalt_rect,11,0,11,0,1,
63639d3bbd810ed5c307efc3,TCR,2024-06-11_11h51.13.300,LearnStrategy,2023.2.3,Win32,60.0240096,4,2,13,,,,,,,,1,05,,,,,,,,,,,3,1.151,0,,,,,,0.126388889,-0.2625,1,0,0,1.151,Diorite_rect,12,0,12,0,1,
63639d3bbd810ed5c307efc3,TCR,2024-06-11_11h51.13.300,LearnStrategy,2023.2.3,Win32,60.0240096,4,2,14,,,,,,,,7,13,,,,,,,,,,,7,2.419,1,,,,,,0.125,-0.395833333,1,0,0,2.419,Peridotite_rect,13,0,13,0,1,
63639d3bbd810ed5c307efc3,TCR,2024-06-11_11h51.13.300,LearnStrategy,2023.2.3,Win32,60.0240096,4,2,15,,,,,,,,8,13,,,,,,,,,,,4,1.193,0,,,,,,0.384722222,-0.248611111,1,0,0,1.193,Gabbro_rect,14,0,14,0,1,
63639d3bbd810ed5c307efc3,TCR,2024-06-11_11h51.13.300,LearnStrategy,2023.2.3,Win32,60.0240096,4,2,16,,,,,,,,5,14,,,,,,,,,,,5,1.258,1,,,,,,-0.379166667,-0.402777778,1,0,0,1.258,Obsidian_rect,15,0,15,0,1,
63639d3bbd810ed5c307efc3,TCR,2024-06-11_11h51.13.300,LearnStrategy,2023.2.3,Win32,60.0240096,5,1,1,-0.154166667,-0.020833333,1,0,0,115.199,rock_grid_rect_2,4,03,-1,-1,115.199,0.126388889,-0.270833333,1,0,0,2.3,Diorite_rect,3,2.3,0,0,0,0,0,1,,,,,,,,,,,,,
63639d3bbd810ed5c307efc3,TCR,2024-06-11_11h51.13.300,LearnStrategy,2023.2.3,Win32,60.0240096,5,1,2,-0.159722222,0.016666667,1,0,0,0.906,rock_grid_rect_2,1,06,-1,-1,0.906,0.356944444,-0.252777778,1,0,0,1.311,Gabbro_rect,4,1.311,0,1,0,1,0,1,,,,,,,,,,,,,
63639d3bbd810ed5c307efc3,TCR,2024-06-11_11h51.13.300,LearnStrategy,2023.2.3,Win32,60.0240096,5,1,3,-0.144444444,-0.004166667,1,0,0,0.869,rock_grid_rect_2,8,14,-1,-1,0.869,0.351388889,-0.244444444,1,0,0,1.641,Gabbro_rect,4,1.641,0,2,0,2,0,1,,,,,,,,,,,,,
63639d3bbd810ed5c307efc3,TCR,2024-06-11_11h51.13.300,LearnStrategy,2023.2.3,Win32,60.0240096,5,1,4,-0.109722222,0.008333333,1,0,0,0.776,rock_grid_rect_2,5,09,-1,-1,0.776,-0.370833333,-0.395833333,1,0,0,1.575,Obsidian_rect,5,1.575,1,3,0,3,0,1,,,,,,,,,,,,,
63639d3bbd810ed5c307efc3,TCR,2024-06-11_11h51.13.300,LearnStrategy,2023.2.3,Win32,60.0240096,5,1,5,-0.058333333,0.004166667,1,0,0,36.51,rock_grid_rect_2,7,05,-1,-1,36.51,0.397222222,-0.245833333,1,0,0,2.105,Gabbro_rect,4,2.105,0,4,0,4,0,1,,,,,,,,,,,,,
63639d3bbd810ed5c307efc3,TCR,2024-06-11_11h51.13.300,LearnStrategy,2023.2.3,Win32,60.0240096,5,1,6,0.016666667,-0.006944444,1,0,0,1.508,rock_grid_rect_2,1,01,-1,-1,1.508,-0.347222222,-0.398611111,1,0,0,1.494,Obsidian_rect,5,1.494,0,5,0,5,0,1,,,,,,,,,,,,,
63639d3bbd810ed5c307efc3,TCR,2024-06-11_11h51.13.300,LearnStrategy,2023.2.3,Win32,60.0240096,5,1,7,-0.038888889,0.004166667,1,0,0,0.807,rock_grid_rect_2,4,10,-1,-1,0.807,-0.372222222,-0.254166667,1,0,0,1.08,Andesite_rect,1,1.08,0,6,0,6,0,1,,,,,,,,,,,,,
63639d3bbd810ed5c307efc3,TCR,2024-06-11_11h51.13.300,LearnStrategy,2023.2.3,Win32,60.0240096,5,1,8,-0.029166667,0.006944444,1,0,0,0.776,rock_grid_rect_2,3,12,-1,-1,0.776,-0.140277778,-0.248611111,1,0,0,1.284,Basalt_rect,2,1.284,0,7,0,7,0,1,,,,,,,,,,,,,
63639d3bbd810ed5c307efc3,TCR,2024-06-11_11h51.13.300,LearnStrategy,2023.2.3,Win32,60.0240096,5,1,9,-0.015277778,-0.009722222,1,0,0,0.81,rock_grid_rect_2,4,08,-1,-1,0.81,-0.126388889,-0.408333333,1,0,0,1.183,Pegmatite_rect,6,1.183,0,8,0,8,0,1,,,,,,,,,,,,,
63639d3bbd810ed5c307efc3,TCR,2024-06-11_11h51.13.300,LearnStrategy,2023.2.3,Win32,60.0240096,5,1,10,0.018055556,0.015277778,1,0,0,0.71,rock_grid_rect_2,3,10,-1,-1,0.71,0.095833333,-0.251388889,1,0,0,0.887,Diorite_rect,3,0.887,1,9,0,9,0,1,,,,,,,,,,,,,
63639d3bbd810ed5c307efc3,TCR,2024-06-11_11h51.13.300,LearnStrategy,2023.2.3,Win32,60.0240096,5,1,11,-0.018055556,0.008333333,1,0,0,0.827,rock_grid_rect_2,6,09,-1,-1,0.827,-0.379166667,-0.401388889,1,0,0,1.081,Obsidian_rect,5,1.081,0,10,0,10,0,1,,,,,,,,,,,,,
63639d3bbd810ed5c307efc3,TCR,2024-06-11_11h51.13.300,LearnStrategy,2023.2.3,Win32,60.0240096,5,1,12,-0.009722222,0.001388889,1,0,0,0.744,rock_grid_rect_2,6,06,-1,-1,0.744,-0.184722222,-0.405555556,1,0,0,1.3,Pegmatite_rect,6,1.3,1,11,0,11,0,1,,,,,,,,,,,,,
63639d3bbd810ed5c307efc3,TCR,2024-06-11_11h51.13.300,LearnStrategy,2023.2.3,Win32,60.0240096,5,1,13,-0.076388889,-0.001388889,1,0,0,0.839,rock_grid_rect_2,8,02,-1,-1,0.839,0.3625,-0.259722222,1,0,0,1.63,Gabbro_rect,4,1.63,0,12,0,12,0,1,,,,,,,,,,,,,
63639d3bbd810ed5c307efc3,TCR,2024-06-11_11h51.13.300,LearnStrategy,2023.2.3,Win32,60.0240096,5,1,14,-0.001388889,0.0125,1,0,0,0.759,rock_grid_rect_2,1,09,-1,-1,0.759,0.365277778,-0.4125,1,0,0,1.525,Pumice_rect,8,1.525,0,13,0,13,0,1,,,,,,,,,,,,,
63639d3bbd810ed5c307efc3,TCR,2024-06-11_11h51.13.300,LearnStrategy,2023.2.3,Win32,60.0240096,5,1,15,0.011111111,-0.006944444,1,0,0,0.692,rock_grid_rect_2,3,13,-1,-1,0.692,0.125,-0.248611111,1,0,0,1.71,Diorite_rect,3,1.71,1,14,0,14,0,1,,,,,,,,,,,,,
63639d3bbd810ed5c307efc3,TCR,2024-06-11_11h51.13.300,LearnStrategy,2023.2.3,Win32,60.0240096,5,1,16,0.006944444,-0.009722222,1,0,0,0.76,rock_grid_rect_2,7,06,-1,-1,0.76,-0.366666667,-0.241666667,1,0,0,2.532,Andesite_rect,1,2.532,0,15,0,15,0,1,,,,,,,,,,,,,
63639d3bbd810ed5c307efc3,TCR,2024-06-11_11h51.13.300,LearnStrategy,2023.2.3,Win32,60.0240096,5,2,1,,,,,,,,4,05,,,,,,,,,,,8,2.763,0,,,,,,0.404166667,-0.395833333,1,0,0,2.763,Pumice_rect,0,0,0,0,1,
63639d3bbd810ed5c307efc3,TCR,2024-06-11_11h51.13.300,LearnStrategy,2023.2.3,Win32,60.0240096,5,2,2,,,,,,,,8,06,,,,,,,,,,,4,1.001,0,,,,,,0.3875,-0.248611111,1,0,0,1.001,Gabbro_rect,1,0,1,0,1,
63639d3bbd810ed5c307efc3,TCR,2024-06-11_11h51.13.300,LearnStrategy,2023.2.3,Win32,60.0240096,5,2,3,,,,,,,,2,05,,,,,,,,,,,2,1.155,1,,,,,,-0.123611111,-0.248611111,1,0,0,1.155,Basalt_rect,2,0,2,0,1,
63639d3bbd810ed5c307efc3,TCR,2024-06-11_11h51.13.300,LearnStrategy,2023.2.3,Win32,60.0240096,5,2,4,,,,,,,,7,02,,,,,,,,,,,3,1.029,0,,,,,,0.170833333,-0.259722222,1,0,0,1.029,Diorite_rect,3,0,3,0,1,
63639d3bbd810ed5c307efc3,TCR,2024-06-11_11h51.13.300,LearnStrategy,2023.2.3,Win32,60.0240096,5,2,5,,,,,,,,6,11,,,,,,,,,,,1,1.763,0,,,,,,-0.384722222,-0.243055556,1,0,0,1.763,Andesite_rect,4,0,4,0,1,
63639d3bbd810ed5c307efc3,TCR,2024-06-11_11h51.13.300,LearnStrategy,2023.2.3,Win32,60.0240096,5,2,6,,,,,,,,6,15,,,,,,,,,,,5,0.954,0,,,,,,-0.397222222,-0.416666667,1,0,0,0.954,Obsidian_rect,5,0,5,0,1,
63639d3bbd810ed5c307efc3,TCR,2024-06-11_11h51.13.300,LearnStrategy,2023.2.3,Win32,60.0240096,5,2,7,,,,,,,,3,06,,,,,,,,,,,7,2.188,0,,,,,,0.065277778,-0.401388889,1,0,0,2.188,Peridotite_rect,6,0,6,0,1,
63639d3bbd810ed5c307efc3,TCR,2024-06-11_11h51.13.300,LearnStrategy,2023.2.3,Win32,60.0240096,5,2,8,,,,,,,,5,08,,,,,,,,,,,6,0.778,0,,,,,,-0.134722222,-0.3875,1,0,0,0.778,Pegmatite_rect,7,0,7,0,1,
63639d3bbd810ed5c307efc3,TCR,2024-06-11_11h51.13.300,LearnStrategy,2023.2.3,Win32,60.0240096,5,2,9,,,,,,,,1,04,,,,,,,,,,,4,1.146,0,,,,,,0.356944444,-0.247222222,1,0,0,1.146,Gabbro_rect,8,0,8,0,1,
63639d3bbd810ed5c307efc3,TCR,2024-06-11_11h51.13.300,LearnStrategy,2023.2.3,Win32,60.0240096,5,2,10,,,,,,,,2,06,,,,,,,,,,,2,1.03,1,,,,,,-0.155555556,-0.247222222,1,0,0,1.03,Basalt_rect,9,0,9,0,1,
63639d3bbd810ed5c307efc3,TCR,2024-06-11_11h51.13.300,LearnStrategy,2023.2.3,Win32,60.0240096,5,2,11,,,,,,,,5,11,,,,,,,,,,,5,1.434,1,,,,,,-0.3625,-0.405555556,1,0,0,1.434,Obsidian_rect,10,0,10,0,1,
63639d3bbd810ed5c307efc3,TCR,2024-06-11_11h51.13.300,LearnStrategy,2023.2.3,Win32,60.0240096,5,2,12,,,,,,,,7,07,,,,,,,,,,,1,3.945,0,,,,,,-0.359722222,-0.25,1,0,0,3.945,Andesite_rect,11,0,11,0,1,
63639d3bbd810ed5c307efc3,TCR,2024-06-11_11h51.13.300,LearnStrategy,2023.2.3,Win32,60.0240096,5,2,13,,,,,,,,1,16,,,,,,,,,,,8,1.049,0,,,,,,0.3625,-0.398611111,1,0,0,1.049,Pumice_rect,12,0,12,0,1,
63639d3bbd810ed5c307efc3,TCR,2024-06-11_11h51.13.300,LearnStrategy,2023.2.3,Win32,60.0240096,5,2,14,,,,,,,,3,15,,,,,,,,,,,7,0.864,0,,,,,,0.095833333,-0.386111111,1,0,0,0.864,Peridotite_rect,13,0,13,0,1,
63639d3bbd810ed5c307efc3,TCR,2024-06-11_11h51.13.300,LearnStrategy,2023.2.3,Win32,60.0240096,5,2,15,,,,,,,,4,13,,,,,,,,,,,3,1.015,0,,,,,,0.1375,-0.259722222,1,0,0,1.015,Diorite_rect,14,0,14,0,1,
63639d3bbd810ed5c307efc3,TCR,2024-06-11_11h51.13.300,LearnStrategy,2023.2.3,Win32,60.0240096,5,2,16,,,,,,,,8,04,,,,,,,,,,,4,0.877,0,,,,,,0.35,-0.245833333,1,0,0,0.877,Gabbro_rect,15,0,15,0,1,
63639d3bbd810ed5c307efc3,TCR,2024-06-11_11h51.13.300,LearnStrategy,2023.2.3,Win32,60.0240096,6,1,1,0.0125,-0.0125,1,0,0,1.889,rock_grid_rect_2,3,10,-1,-1,1.889,0.3625,-0.384722222,1,0,0,1.178,Pumice_rect,8,1.178,0,0,0,0,0,1,,,,,,,,,,,,,
63639d3bbd810ed5c307efc3,TCR,2024-06-11_11h51.13.300,LearnStrategy,2023.2.3,Win32,60.0240096,6,1,2,0.020833333,-0.004166667,1,0,0,0.793,rock_grid_rect_2,8,05,-1,-1,0.793,0.354166667,-0.254166667,1,0,0,0.997,Gabbro_rect,4,0.997,0,1,0,1,0,1,,,,,,,,,,,,,
63639d3bbd810ed5c307efc3,TCR,2024-06-11_11h51.13.300,LearnStrategy,2023.2.3,Win32,60.0240096,6,1,3,0.034722222,0.002777778,1,0,0,0.792,rock_grid_rect_2,3,08,-1,-1,0.792,0.088888889,-0.2625,1,0,0,1.163,Diorite_rect,3,1.163,1,2,0,2,0,1,,,,,,,,,,,,,
63639d3bbd810ed5c307efc3,TCR,2024-06-11_11h51.13.300,LearnStrategy,2023.2.3,Win32,60.0240096,6,1,4,-0.013888889,-0.001388889,1,0,0,0.867,rock_grid_rect_2,3,12,-1,-1,0.867,-0.119444444,-0.406944444,1,0,0,0.944,Pegmatite_rect,6,0.944,0,3,0,3,0,1,,,,,,,,,,,,,
63639d3bbd810ed5c307efc3,TCR,2024-06-11_11h51.13.300,LearnStrategy,2023.2.3,Win32,60.0240096,6,1,5,0.013888889,0.006944444,1,0,0,0.693,rock_grid_rect_2,4,11,-1,-1,0.693,0.081944444,-0.388888889,1,0,0,1.584,Peridotite_rect,7,1.584,0,4,0,4,0,1,,,,,,,,,,,,,
63639d3bbd810ed5c307efc3,TCR,2024-06-11_11h51.13.300,LearnStrategy,2023.2.3,Win32,60.0240096,6,1,6,-0.013888889,0.004166667,1,0,0,0.707,rock_grid_rect_2,7,12,-1,-1,0.707,-0.375,-0.404166667,1,0,0,1.061,Obsidian_rect,5,1.061,0,5,0,5,0,1,,,,,,,,,,,,,
63639d3bbd810ed5c307efc3,TCR,2024-06-11_11h51.13.300,LearnStrategy,2023.2.3,Win32,60.0240096,6,1,7,-0.043055556,-0.004166667,1,0,0,0.836,rock_grid_rect_2,6,03,-1,-1,0.836,-0.369444444,-0.406944444,1,0,0,1.031,Obsidian_rect,5,1.031,0,6,0,6,0,1,,,,,,,,,,,,,
63639d3bbd810ed5c307efc3,TCR,2024-06-11_11h51.13.300,LearnStrategy,2023.2.3,Win32,60.0240096,6,1,8,-0.097222222,-0.001388889,1,0,0,0.789,rock_grid_rect_2,4,15,-1,-1,0.789,-0.359722222,-0.248611111,1,0,0,1.522,Andesite_rect,1,1.522,0,7,0,7,0,1,,,,,,,,,,,,,
63639d3bbd810ed5c307efc3,TCR,2024-06-11_11h51.13.300,LearnStrategy,2023.2.3,Win32,60.0240096,6,1,9,-0.020833333,0.002777778,1,0,0,0.676,rock_grid_rect_2,1,01,-1,-1,0.676,0.118055556,-0.259722222,1,0,0,0.94,Diorite_rect,3,0.94,0,8,0,8,0,1,,,,,,,,,,,,,
63639d3bbd810ed5c307efc3,TCR,2024-06-11_11h51.13.300,LearnStrategy,2023.2.3,Win32,60.0240096,6,1,10,0.031944444,-0.015277778,1,0,0,1.178,rock_grid_rect_2,4,03,-1,-1,1.178,-0.355555556,-0.404166667,1,0,0,1.056,Obsidian_rect,5,1.056,0,9,0,9,0,1,,,,,,,,,,,,,
63639d3bbd810ed5c307efc3,TCR,2024-06-11_11h51.13.300,LearnStrategy,2023.2.3,Win32,60.0240096,6,1,11,-0.022222222,0,1,0,0,0.793,rock_grid_rect_2,6,13,-1,-1,0.793,-0.368055556,-0.395833333,1,0,0,1.175,Obsidian_rect,5,1.175,0,10,0,10,0,1,,,,,,,,,,,,,
63639d3bbd810ed5c307efc3,TCR,2024-06-11_11h51.13.300,LearnStrategy,2023.2.3,Win32,60.0240096,6,1,12,-0.0625,0.001388889,1,0,0,0.71,rock_grid_rect_2,5,02,-1,-1,0.71,-0.352777778,-0.395833333,1,0,0,0.962,Obsidian_rect,5,0.962,1,11,0,11,0,1,,,,,,,,,,,,,
63639d3bbd810ed5c307efc3,TCR,2024-06-11_11h51.13.300,LearnStrategy,2023.2.3,Win32,60.0240096,6,1,13,-0.083333333,-0.001388889,1,0,0,0.777,rock_grid_rect_2,1,06,-1,-1,0.777,-0.368055556,-0.255555556,1,0,0,2.305,Andesite_rect,1,2.305,1,12,0,12,0,1,,,,,,,,,,,,,
63639d3bbd810ed5c307efc3,TCR,2024-06-11_11h51.13.300,LearnStrategy,2023.2.3,Win32,60.0240096,6,1,14,-0.040277778,-0.0125,1,0,0,0.728,rock_grid_rect_2,1,09,-1,-1,0.728,0.3625,-0.263888889,1,0,0,2.242,Gabbro_rect,4,2.242,0,13,0,13,0,1,,,,,,,,,,,,,
63639d3bbd810ed5c307efc3,TCR,2024-06-11_11h51.13.300,LearnStrategy,2023.2.3,Win32,60.0240096,6,1,15,-0.034722222,-0.006944444,1,0,0,0.693,rock_grid_rect_2,8,09,-1,-1,0.693,0.359722222,-0.409722222,1,0,0,1.416,Pumice_rect,8,1.416,1,14,0,14,0,1,,,,,,,,,,,,,
63639d3bbd810ed5c307efc3,TCR,2024-06-11_11h51.13.300,LearnStrategy,2023.2.3,Win32,60.0240096,6,1,16,-0.023611111,-0.006944444,1,0,0,1.093,rock_grid_rect_2,7,10,-1,-1,1.093,-0.115277778,-0.256944444,1,0,0,1.127,Basalt_rect,2,1.127,0,15,0,15,0,1,,,,,,,,,,,,,
63639d3bbd810ed5c307efc3,TCR,2024-06-11_11h51.13.300,LearnStrategy,2023.2.3,Win32,60.0240096,6,2,1,,,,,,,,4,01,,,,,,,,,,,1,2.997,0,,,,,,-0.363888889,-0.254166667,1,0,0,2.997,Andesite_rect,0,0,0,0,1,
63639d3bbd810ed5c307efc3,TCR,2024-06-11_11h51.13.300,LearnStrategy,2023.2.3,Win32,60.0240096,6,2,2,,,,,,,,6,12,,,,,,,,,,,2,0.658,0,,,,,,-0.154166667,-0.2625,1,0,0,0.658,Basalt_rect,1,0,1,0,1,
63639d3bbd810ed5c307efc3,TCR,2024-06-11_11h51.13.300,LearnStrategy,2023.2.3,Win32,60.0240096,6,2,3,,,,,,,,7,08,,,,,,,,,,,5,0.714,0,,,,,,-0.373611111,-0.388888889,1,0,0,0.714,Obsidian_rect,2,0,2,0,1,
63639d3bbd810ed5c307efc3,TCR,2024-06-11_11h51.13.300,LearnStrategy,2023.2.3,Win32,60.0240096,6,2,4,,,,,,,,3,07,,,,,,,,,,,6,0.933,0,,,,,,-0.1375,-0.406944444,1,0,0,0.933,Pegmatite_rect,3,0,3,0,1,
63639d3bbd810ed5c307efc3,TCR,2024-06-11_11h51.13.300,LearnStrategy,2023.2.3,Win32,60.0240096,6,2,5,,,,,,,,7,04,,,,,,,,,,,7,1.195,1,,,,,,0.098611111,-0.406944444,1,0,0,1.195,Peridotite_rect,4,0,4,0,1,
63639d3bbd810ed5c307efc3,TCR,2024-06-11_11h51.13.300,LearnStrategy,2023.2.3,Win32,60.0240096,6,2,6,,,,,,,,2,04,,,,,,,,,,,2,1.061,1,,,,,,-0.106944444,-0.248611111,1,0,0,1.061,Basalt_rect,5,0,5,0,1,
63639d3bbd810ed5c307efc3,TCR,2024-06-11_11h51.13.300,LearnStrategy,2023.2.3,Win32,60.0240096,6,2,7,,,,,,,,4,12,,,,,,,,,,,3,2.016,0,,,,,,0.172222222,-0.259722222,1,0,0,2.016,Diorite_rect,6,0,6,0,1,
63639d3bbd810ed5c307efc3,TCR,2024-06-11_11h51.13.300,LearnStrategy,2023.2.3,Win32,60.0240096,6,2,8,,,,,,,,8,03,,,,,,,,,,,8,1.231,1,,,,,,0.376388889,-0.408333333,1,0,0,1.231,Pumice_rect,7,0,7,0,1,
63639d3bbd810ed5c307efc3,TCR,2024-06-11_11h51.13.300,LearnStrategy,2023.2.3,Win32,60.0240096,6,2,9,,,,,,,,2,01,,,,,,,,,,,2,1.031,1,,,,,,-0.122222222,-0.255555556,1,0,0,1.031,Basalt_rect,8,0,8,0,1,
63639d3bbd810ed5c307efc3,TCR,2024-06-11_11h51.13.300,LearnStrategy,2023.2.3,Win32,60.0240096,6,2,10,,,,,,,,6,10,,,,,,,,,,,5,1.122,0,,,,,,-0.3625,-0.418055556,1,0,0,1.122,Obsidian_rect,9,0,9,0,1,
63639d3bbd810ed5c307efc3,TCR,2024-06-11_11h51.13.300,LearnStrategy,2023.2.3,Win32,60.0240096,6,2,11,,,,,,,,8,10,,,,,,,,,,,4,1.242,0,,,,,,0.384722222,-0.261111111,1,0,0,1.242,Gabbro_rect,10,0,10,0,1,
63639d3bbd810ed5c307efc3,TCR,2024-06-11_11h51.13.300,LearnStrategy,2023.2.3,Win32,60.0240096,6,2,12,,,,,,,,1,14,,,,,,,,,,,1,2.56,1,,,,,,-0.3625,-0.265277778,1,0,0,2.56,Andesite_rect,11,0,11,0,1,
63639d3bbd810ed5c307efc3,TCR,2024-06-11_11h51.13.300,LearnStrategy,2023.2.3,Win32,60.0240096,6,2,13,,,,,,,,5,12,,,,,,,,,,,5,1.076,1,,,,,,-0.3625,-0.406944444,1,0,0,1.076,Obsidian_rect,12,0,12,0,1,
63639d3bbd810ed5c307efc3,TCR,2024-06-11_11h51.13.300,LearnStrategy,2023.2.3,Win32,60.0240096,6,2,14,,,,,,,,1,03,,,,,,,,,,,6,1.232,0,,,,,,-0.109722222,-0.405555556,1,0,0,1.232,Pegmatite_rect,13,0,13,0,1,
63639d3bbd810ed5c307efc3,TCR,2024-06-11_11h51.13.300,LearnStrategy,2023.2.3,Win32,60.0240096,6,2,15,,,,,,,,3,16,,,,,,,,,,,7,1.76,0,,,,,,0.116666667,-0.395833333,1,0,0,1.76,Peridotite_rect,14,0,14,0,1,
63639d3bbd810ed5c307efc3,TCR,2024-06-11_11h51.13.300,LearnStrategy,2023.2.3,Win32,60.0240096,6,2,16,,,,,,,,5,16,,,,,,,,,,,5,1.764,1,,,,,,-0.373611111,-0.398611111,1,0,0,1.764,Obsidian_rect,15,0,15,0,1,
63639d3bbd810ed5c307efc3,TCR,2024-06-11_11h51.13.300,LearnStrategy,2023.2.3,Win32,60.0240096,7,1,1,0.023611111,-0.011111111,1,0,0,1.125,rock_grid_rect_2,1,07,-1,-1,1.125,-0.359722222,-0.251388889,1,0,0,1.165,Andesite_rect,1,1.165,1,0,0,0,0,1,,,,,,,,,,,,,
63639d3bbd810ed5c307efc3,TCR,2024-06-11_11h51.13.300,LearnStrategy,2023.2.3,Win32,60.0240096,7,1,2,-0.001388889,0.005555556,1,0,0,0.839,rock_grid_rect_2,8,08,-1,-1,0.839,0.343055556,-0.269444444,1,0,0,1.673,Gabbro_rect,4,1.673,0,1,0,1,0,1,,,,,,,,,,,,,
63639d3bbd810ed5c307efc3,TCR,2024-06-11_11h51.13.300,LearnStrategy,2023.2.3,Win32,60.0240096,7,1,3,0.033333333,0.006944444,1,0,0,0.71,rock_grid_rect_2,4,08,-1,-1,0.71,0.095833333,-0.245833333,1,0,0,1.275,Diorite_rect,3,1.275,0,2,0,2,0,1,,,,,,,,,,,,,
63639d3bbd810ed5c307efc3,TCR,2024-06-11_11h51.13.300,LearnStrategy,2023.2.3,Win32,60.0240096,7,1,4,0.059722222,0.006944444,1,0,0,0.76,rock_grid_rect_2,4,15,-1,-1,0.76,0.3625,-0.415277778,1,0,0,3.225,Pumice_rect,8,3.225,0,3,0,3,0,1,,,,,,,,,,,,,
63639d3bbd810ed5c307efc3,TCR,2024-06-11_11h51.13.300,LearnStrategy,2023.2.3,Win32,60.0240096,7,1,5,0.066666667,0.009722222,1,0,0,0.71,rock_grid_rect_2,8,16,-1,-1,0.71,0.381944444,-0.244444444,1,0,0,1.017,Gabbro_rect,4,1.017,0,4,0,4,0,1,,,,,,,,,,,,,
63639d3bbd810ed5c307efc3,TCR,2024-06-11_11h51.13.300,LearnStrategy,2023.2.3,Win32,60.0240096,7,1,6,0.048611111,0.001388889,1,0,0,0.694,rock_grid_rect_2,3,13,-1,-1,0.694,-0.143055556,-0.401388889,1,0,0,1.107,Pegmatite_rect,6,1.107,0,5,0,5,0,1,,,,,,,,,,,,,
63639d3bbd810ed5c307efc3,TCR,2024-06-11_11h51.13.300,LearnStrategy,2023.2.3,Win32,60.0240096,7,1,7,0.016666667,0.004166667,1,0,0,0.711,rock_grid_rect_2,6,09,-1,-1,0.711,-0.35,-0.398611111,1,0,0,1.031,Obsidian_rect,5,1.031,0,6,0,6,0,1,,,,,,,,,,,,,
63639d3bbd810ed5c307efc3,TCR,2024-06-11_11h51.13.300,LearnStrategy,2023.2.3,Win32,60.0240096,7,1,8,-0.004166667,-0.004166667,1,0,0,0.76,rock_grid_rect_2,3,11,-1,-1,0.76,0.126388889,-0.393055556,1,0,0,1.221,Peridotite_rect,7,1.221,0,7,0,7,0,1,,,,,,,,,,,,,
63639d3bbd810ed5c307efc3,TCR,2024-06-11_11h51.13.300,LearnStrategy,2023.2.3,Win32,60.0240096,7,1,9,-0.009722222,-0.004166667,1,0,0,0.726,rock_grid_rect_2,5,09,-1,-1,0.726,-0.376388889,-0.406944444,1,0,0,0.966,Obsidian_rect,5,0.966,1,8,0,8,0,1,,,,,,,,,,,,,
63639d3bbd810ed5c307efc3,TCR,2024-06-11_11h51.13.300,LearnStrategy,2023.2.3,Win32,60.0240096,7,1,10,-0.025,-0.001388889,1,0,0,1.026,rock_grid_rect_2,7,06,-1,-1,1.026,0.129166667,-0.419444444,1,0,0,1.394,Peridotite_rect,7,1.394,1,9,0,9,0,1,,,,,,,,,,,,,
63639d3bbd810ed5c307efc3,TCR,2024-06-11_11h51.13.300,LearnStrategy,2023.2.3,Win32,60.0240096,7,1,11,0.009722222,0.006944444,1,0,0,0.893,rock_grid_rect_2,6,07,-1,-1,0.893,-0.156944444,-0.408333333,1,0,0,1.259,Pegmatite_rect,6,1.259,1,10,0,10,0,1,,,,,,,,,,,,,
63639d3bbd810ed5c307efc3,TCR,2024-06-11_11h51.13.300,LearnStrategy,2023.2.3,Win32,60.0240096,7,1,12,-0.034722222,-0.001388889,1,0,0,0.882,rock_grid_rect_2,6,08,-1,-1,0.882,0.079166667,-0.401388889,1,0,0,1.211,Peridotite_rect,7,1.211,0,11,0,11,0,1,,,,,,,,,,,,,
63639d3bbd810ed5c307efc3,TCR,2024-06-11_11h51.13.300,LearnStrategy,2023.2.3,Win32,60.0240096,7,1,13,-0.040277778,0.005555556,1,0,0,0.641,rock_grid_rect_2,7,05,-1,-1,0.641,0.131944444,-0.245833333,1,0,0,1.808,Diorite_rect,3,1.808,0,12,0,12,0,1,,,,,,,,,,,,,
63639d3bbd810ed5c307efc3,TCR,2024-06-11_11h51.13.300,LearnStrategy,2023.2.3,Win32,60.0240096,7,1,14,0.001388889,0,1,0,0,0.791,rock_grid_rect_2,3,08,-1,-1,0.791,-0.376388889,-0.256944444,1,0,0,1.759,Andesite_rect,1,1.759,0,13,0,13,0,1,,,,,,,,,,,,,
63639d3bbd810ed5c307efc3,TCR,2024-06-11_11h51.13.300,LearnStrategy,2023.2.3,Win32,60.0240096,7,1,15,-0.001388889,0.004166667,1,0,0,0.81,rock_grid_rect_2,4,03,-1,-1,0.81,-0.105555556,-0.248611111,1,0,0,1.09,Basalt_rect,2,1.09,0,14,0,14,0,1,,,,,,,,,,,,,
63639d3bbd810ed5c307efc3,TCR,2024-06-11_11h51.13.300,LearnStrategy,2023.2.3,Win32,60.0240096,7,1,16,0,0.002777778,1,0,0,0.726,rock_grid_rect_2,1,02,-1,-1,0.726,0.365277778,-0.254166667,1,0,0,1.344,Gabbro_rect,4,1.344,0,15,0,15,0,1,,,,,,,,,,,,,
63639d3bbd810ed5c307efc3,TCR,2024-06-11_11h51.13.300,LearnStrategy,2023.2.3,Win32,60.0240096,7,2,1,,,,,,,,4,09,,,,,,,,,,,1,7.345,0,,,,,,-0.380555556,-0.255555556,1,0,0,7.345,Andesite_rect,0,0,0,0,1,
63639d3bbd810ed5c307efc3,TCR,2024-06-11_11h51.13.300,LearnStrategy,2023.2.3,Win32,60.0240096,7,2,2,,,,,,,,4,14,,,,,,,,,,,4,0.849,1,,,,,,0.376388889,-0.248611111,1,0,0,0.849,Gabbro_rect,1,0,1,0,1,
63639d3bbd810ed5c307efc3,TCR,2024-06-11_11h51.13.300,LearnStrategy,2023.2.3,Win32,60.0240096,7,2,3,,,,,,,,2,06,,,,,,,,,,,2,0.964,1,,,,,,-0.1125,-0.234722222,1,0,0,0.964,Basalt_rect,2,0,2,0,1,
63639d3bbd810ed5c307efc3,TCR,2024-06-11_11h51.13.300,LearnStrategy,2023.2.3,Win32,60.0240096,7,2,4,,,,,,,,6,16,,,,,,,,,,,6,1.171,1,,,,,,-0.148611111,-0.395833333,1,0,0,1.171,Pegmatite_rect,3,0,3,0,1,
63639d3bbd810ed5c307efc3,TCR,2024-06-11_11h51.13.300,LearnStrategy,2023.2.3,Win32,60.0240096,7,2,5,,,,,,,,8,15,,,,,,,,,,,8,1.011,1,,,,,,0.355555556,-0.395833333,1,0,0,1.011,Pumice_rect,4,0,4,0,1,
63639d3bbd810ed5c307efc3,TCR,2024-06-11_11h51.13.300,LearnStrategy,2023.2.3,Win32,60.0240096,7,2,6,,,,,,,,7,13,,,,,,,,,,,5,0.825,0,,,,,,-0.373611111,-0.393055556,1,0,0,0.825,Obsidian_rect,5,0,5,0,1,
63639d3bbd810ed5c307efc3,TCR,2024-06-11_11h51.13.300,LearnStrategy,2023.2.3,Win32,60.0240096,7,2,7,,,,,,,,2,04,,,,,,,,,,,2,1.063,1,,,,,,-0.118055556,-0.245833333,1,0,0,1.063,Basalt_rect,6,0,6,0,1,
63639d3bbd810ed5c307efc3,TCR,2024-06-11_11h51.13.300,LearnStrategy,2023.2.3,Win32,60.0240096,7,2,8,,,,,,,,3,15,,,,,,,,,,,3,1.045,1,,,,,,0.152777778,-0.252777778,1,0,0,1.045,Diorite_rect,7,0,7,0,1,
63639d3bbd810ed5c307efc3,TCR,2024-06-11_11h51.13.300,LearnStrategy,2023.2.3,Win32,60.0240096,7,2,9,,,,,,,,8,06,,,,,,,,,,,4,0.974,0,,,,,,0.3625,-0.231944444,1,0,0,0.974,Gabbro_rect,8,0,8,0,1,
63639d3bbd810ed5c307efc3,TCR,2024-06-11_11h51.13.300,LearnStrategy,2023.2.3,Win32,60.0240096,7,2,10,,,,,,,,6,05,,,,,,,,,,,8,1.027,0,,,,,,0.381944444,-0.398611111,1,0,0,1.027,Pumice_rect,9,0,9,0,1,
63639d3bbd810ed5c307efc3,TCR,2024-06-11_11h51.13.300,LearnStrategy,2023.2.3,Win32,60.0240096,7,2,11,,,,,,,,1,11,,,,,,,,,,,7,1.403,0,,,,,,0.129166667,-0.404166667,1,0,0,1.403,Peridotite_rect,10,0,10,0,1,
63639d3bbd810ed5c307efc3,TCR,2024-06-11_11h51.13.300,LearnStrategy,2023.2.3,Win32,60.0240096,7,2,12,,,,,,,,7,04,,,,,,,,,,,1,1.246,0,,,,,,-0.380555556,-0.254166667,1,0,0,1.246,Andesite_rect,11,0,11,0,1,
63639d3bbd810ed5c307efc3,TCR,2024-06-11_11h51.13.300,LearnStrategy,2023.2.3,Win32,60.0240096,7,2,13,,,,,,,,3,14,,,,,,,,,,,1,1.228,0,,,,,,-0.351388889,-0.256944444,1,0,0,1.228,Andesite_rect,12,0,12,0,1,
63639d3bbd810ed5c307efc3,TCR,2024-06-11_11h51.13.300,LearnStrategy,2023.2.3,Win32,60.0240096,7,2,14,,,,,,,,1,14,,,,,,,,,,,1,0.878,1,,,,,,-0.359722222,-0.248611111,1,0,0,0.878,Andesite_rect,13,0,13,0,1,
63639d3bbd810ed5c307efc3,TCR,2024-06-11_11h51.13.300,LearnStrategy,2023.2.3,Win32,60.0240096,7,2,15,,,,,,,,5,12,,,,,,,,,,,5,2.118,1,,,,,,-0.365277778,-0.391666667,1,0,0,2.118,Obsidian_rect,14,0,14,0,1,
63639d3bbd810ed5c307efc3,TCR,2024-06-11_11h51.13.300,LearnStrategy,2023.2.3,Win32,60.0240096,7,2,16,,,,,,,,5,11,,,,,,,,,,,5,0.995,1,,,,,,-0.370833333,-0.397222222,1,0,0,0.995,Obsidian_rect,15,0,15,0,1,
63639d3bbd810ed5c307efc3,TCR,2024-06-11_11h51.13.300,LearnStrategy,2023.2.3,Win32,60.0240096,8,1,1,0.008333333,-0.004166667,1,0,0,1.125,rock_grid_rect_2,3,02,-1,-1,1.125,0.126388889,-0.259722222,1,0,0,1.198,Diorite_rect,3,1.198,1,0,0,0,0,1,,,,,,,,,,,,,
63639d3bbd810ed5c307efc3,TCR,2024-06-11_11h51.13.300,LearnStrategy,2023.2.3,Win32,60.0240096,8,1,2,0.018055556,-0.001388889,1,0,0,0.993,rock_grid_rect_2,3,11,-1,-1,0.993,0.095833333,-0.256944444,1,0,0,0.876,Diorite_rect,3,0.876,1,1,0,1,0,1,,,,,,,,,,,,,
63639d3bbd810ed5c307efc3,TCR,2024-06-11_11h51.13.300,LearnStrategy,2023.2.3,Win32,60.0240096,8,1,3,0.0125,-0.004166667,1,0,0,0.81,rock_grid_rect_2,1,09,-1,-1,0.81,0.390277778,-0.401388889,1,0,0,3.36,Pumice_rect,8,3.36,0,2,0,2,0,1,,,,,,,,,,,,,
63639d3bbd810ed5c307efc3,TCR,2024-06-11_11h51.13.300,LearnStrategy,2023.2.3,Win32,60.0240096,8,1,4,0.009722222,0.004166667,1,0,0,0.726,rock_grid_rect_2,6,03,-1,-1,0.726,-0.140277778,-0.406944444,1,0,0,1.315,Pegmatite_rect,6,1.315,1,3,0,3,0,1,,,,,,,,,,,,,
63639d3bbd810ed5c307efc3,TCR,2024-06-11_11h51.13.300,LearnStrategy,2023.2.3,Win32,60.0240096,8,1,5,-0.031944444,0.004166667,1,0,0,0.726,rock_grid_rect_2,7,14,-1,-1,0.726,0.123611111,-0.409722222,1,0,0,0.942,Peridotite_rect,7,0.942,1,4,0,4,0,1,,,,,,,,,,,,,
63639d3bbd810ed5c307efc3,TCR,2024-06-11_11h51.13.300,LearnStrategy,2023.2.3,Win32,60.0240096,8,1,6,0.001388889,0.011111111,1,0,0,0.81,rock_grid_rect_2,7,06,-1,-1,0.81,-0.359722222,-0.245833333,1,0,0,3.244,Andesite_rect,1,3.244,0,5,0,5,0,1,,,,,,,,,,,,,
63639d3bbd810ed5c307efc3,TCR,2024-06-11_11h51.13.300,LearnStrategy,2023.2.3,Win32,60.0240096,8,1,7,0.001388889,-0.009722222,1,0,0,0.802,rock_grid_rect_2,7,05,-1,-1,0.802,-0.077777778,-0.408333333,1,0,0,2.549,Pegmatite_rect,6,2.549,0,6,0,6,0,1,,,,,,,,,,,,,
63639d3bbd810ed5c307efc3,TCR,2024-06-11_11h51.13.300,LearnStrategy,2023.2.3,Win32,60.0240096,8,1,8,0.004166667,0.002777778,1,0,0,0.758,rock_grid_rect_2,5,09,-1,-1,0.758,-0.343055556,-0.4,1,0,0,0.93,Obsidian_rect,5,0.93,1,7,0,7,0,1,,,,,,,,,,,,,
63639d3bbd810ed5c307efc3,TCR,2024-06-11_11h51.13.300,LearnStrategy,2023.2.3,Win32,60.0240096,8,1,9,-0.031944444,-0.002777778,1,0,0,0.809,rock_grid_rect_2,8,14,-1,-1,0.809,0.393055556,-0.402777778,1,0,0,1.458,Pumice_rect,8,1.458,1,8,0,8,0,1,,,,,,,,,,,,,
63639d3bbd810ed5c307efc3,TCR,2024-06-11_11h51.13.300,LearnStrategy,2023.2.3,Win32,60.0240096,8,1,10,-0.009722222,0.001388889,1,0,0,0.828,rock_grid_rect_2,8,08,-1,-1,0.828,0.383333333,-0.265277778,1,0,0,1.103,Gabbro_rect,4,1.103,0,9,0,9,0,1,,,,,,,,,,,,,
63639d3bbd810ed5c307efc3,TCR,2024-06-11_11h51.13.300,LearnStrategy,2023.2.3,Win32,60.0240096,8,1,11,0.025,0.023611111,1,0,0,0.747,rock_grid_rect_2,4,03,-1,-1,0.747,0.090277778,-0.241666667,1,0,0,1.475,Diorite_rect,3,1.475,0,10,0,10,0,1,,,,,,,,,,,,,
63639d3bbd810ed5c307efc3,TCR,2024-06-11_11h51.13.300,LearnStrategy,2023.2.3,Win32,60.0240096,8,1,12,-0.0125,0.005555556,1,0,0,0.709,rock_grid_rect_2,6,09,-1,-1,0.709,-0.120833333,-0.244444444,1,0,0,1.458,Basalt_rect,2,1.458,0,11,0,11,0,1,,,,,,,,,,,,,
63639d3bbd810ed5c307efc3,TCR,2024-06-11_11h51.13.300,LearnStrategy,2023.2.3,Win32,60.0240096,8,1,13,0.001388889,-0.004166667,1,0,0,0.81,rock_grid_rect_2,3,02,-1,-1,0.81,0.088888889,-0.401388889,1,0,0,0.904,Peridotite_rect,7,0.904,0,12,0,12,0,1,,,,,,,,,,,,,
63639d3bbd810ed5c307efc3,TCR,2024-06-11_11h51.13.300,LearnStrategy,2023.2.3,Win32,60.0240096,8,1,14,-0.023611111,0.0125,1,0,0,0.644,rock_grid_rect_2,4,16,-1,-1,0.644,-0.125,-0.256944444,1,0,0,1.154,Basalt_rect,2,1.154,0,13,0,13,0,1,,,,,,,,,,,,,
63639d3bbd810ed5c307efc3,TCR,2024-06-11_11h51.13.300,LearnStrategy,2023.2.3,Win32,60.0240096,8,1,15,0.015277778,0.015277778,1,0,0,0.675,rock_grid_rect_2,4,15,-1,-1,0.675,0.370833333,-0.2625,1,0,0,1.056,Gabbro_rect,4,1.056,1,14,0,14,0,1,,,,,,,,,,,,,
63639d3bbd810ed5c307efc3,TCR,2024-06-11_11h51.13.300,LearnStrategy,2023.2.3,Win32,60.0240096,8,1,16,0.013888889,0.009722222,1,0,0,0.861,rock_grid_rect_2,1,06,-1,-1,0.861,0.380555556,-0.4125,1,0,0,1.148,Pumice_rect,8,1.148,0,15,0,15,0,1,,,,,,,,,,,,,
63639d3bbd810ed5c307efc3,TCR,2024-06-11_11h51.13.300,LearnStrategy,2023.2.3,Win32,60.0240096,8,2,1,,,,,,,,3,16,,,,,,,,,,,3,1.79,1,,,,,,0.116666667,-0.256944444,1,0,0,1.79,Diorite_rect,0,0,0,0,1,
63639d3bbd810ed5c307efc3,TCR,2024-06-11_11h51.13.300,LearnStrategy,2023.2.3,Win32,60.0240096,8,2,2,,,,,,,,2,05,,,,,,,,,,,2,1.059,1,,,,,,-0.126388889,-0.251388889,1,0,0,1.059,Basalt_rect,1,0,1,0,1,
63639d3bbd810ed5c307efc3,TCR,2024-06-11_11h51.13.300,LearnStrategy,2023.2.3,Win32,60.0240096,8,2,3,,,,,,,,2,16,,,,,,,,,,,2,0.888,1,,,,,,-0.116666667,-0.254166667,1,0,0,0.888,Basalt_rect,2,0,2,0,1,
63639d3bbd810ed5c307efc3,TCR,2024-06-11_11h51.13.300,LearnStrategy,2023.2.3,Win32,60.0240096,8,2,4,,,,,,,,8,04,,,,,,,,,,,8,1.329,1,,,,,,0.406944444,-0.418055556,1,0,0,1.329,Pumice_rect,3,0,3,0,1,
63639d3bbd810ed5c307efc3,TCR,2024-06-11_11h51.13.300,LearnStrategy,2023.2.3,Win32,60.0240096,8,2,5,,,,,,,,3,09,,,,,,,,,,,4,0.83,0,,,,,,0.384722222,-0.254166667,1,0,0,0.83,Gabbro_rect,4,0,4,0,1,
63639d3bbd810ed5c307efc3,TCR,2024-06-11_11h51.13.300,LearnStrategy,2023.2.3,Win32,60.0240096,8,2,6,,,,,,,,7,08,,,,,,,,,,,4,0.875,0,,,,,,0.361111111,-0.244444444,1,0,0,0.875,Gabbro_rect,5,0,5,0,1,
63639d3bbd810ed5c307efc3,TCR,2024-06-11_11h51.13.300,LearnStrategy,2023.2.3,Win32,60.0240096,8,2,7,,,,,,,,8,10,,,,,,,,,,,4,1.053,0,,,,,,0.368055556,-0.254166667,1,0,0,1.053,Gabbro_rect,6,0,6,0,1,
63639d3bbd810ed5c307efc3,TCR,2024-06-11_11h51.13.300,LearnStrategy,2023.2.3,Win32,60.0240096,8,2,8,,,,,,,,6,10,,,,,,,,,,,6,1.186,1,,,,,,-0.144444444,-0.393055556,1,0,0,1.186,Pegmatite_rect,7,0,7,0,1,
63639d3bbd810ed5c307efc3,TCR,2024-06-11_11h51.13.300,LearnStrategy,2023.2.3,Win32,60.0240096,8,2,9,,,,,,,,1,05,,,,,,,,,,,7,1.032,0,,,,,,0.072222222,-0.4,1,0,0,1.032,Peridotite_rect,8,0,8,0,1,
63639d3bbd810ed5c307efc3,TCR,2024-06-11_11h51.13.300,LearnStrategy,2023.2.3,Win32,60.0240096,8,2,10,,,,,,,,6,12,,,,,,,,,,,6,1.449,1,,,,,,-0.104166667,-0.395833333,1,0,0,1.449,Pegmatite_rect,9,0,9,0,1,
63639d3bbd810ed5c307efc3,TCR,2024-06-11_11h51.13.300,LearnStrategy,2023.2.3,Win32,60.0240096,8,2,11,,,,,,,,7,16,,,,,,,,,,,7,0.93,1,,,,,,0.090277778,-0.404166667,1,0,0,0.93,Peridotite_rect,10,0,10,0,1,
63639d3bbd810ed5c307efc3,TCR,2024-06-11_11h51.13.300,LearnStrategy,2023.2.3,Win32,60.0240096,8,2,12,,,,,,,,4,13,,,,,,,,,,,1,1.617,0,,,,,,-0.355555556,-0.25,1,0,0,1.617,Andesite_rect,11,0,11,0,1,
63639d3bbd810ed5c307efc3,TCR,2024-06-11_11h51.13.300,LearnStrategy,2023.2.3,Win32,60.0240096,8,2,13,,,,,,,,5,16,,,,,,,,,,,5,1.046,1,,,,,,-0.361111111,-0.395833333,1,0,0,1.046,Obsidian_rect,12,0,12,0,1,
63639d3bbd810ed5c307efc3,TCR,2024-06-11_11h51.13.300,LearnStrategy,2023.2.3,Win32,60.0240096,8,2,14,,,,,,,,1,03,,,,,,,,,,,2,0.998,0,,,,,,-0.120833333,-0.254166667,1,0,0,0.998,Basalt_rect,13,0,13,0,1,
63639d3bbd810ed5c307efc3,TCR,2024-06-11_11h51.13.300,LearnStrategy,2023.2.3,Win32,60.0240096,8,2,15,,,,,,,,5,14,,,,,,,,,,,5,1.079,1,,,,,,-0.361111111,-0.395833333,1,0,0,1.079,Obsidian_rect,14,0,14,0,1,
63639d3bbd810ed5c307efc3,TCR,2024-06-11_11h51.13.300,LearnStrategy,2023.2.3,Win32,60.0240096,8,2,16,,,,,,,,4,01,,,,,,,,,,,3,1.622,0,,,,,,0.129166667,-0.251388889,1,0,0,1.622,Diorite_rect,15,0,15,0,1,
63639d3bbd810ed5c307efc3,TCR,2024-06-11_11h51.13.300,LearnStrategy,2023.2.3,Win32,60.0240096,9,1,1,-0.034722222,-0.015277778,1,0,0,1.359,rock_grid_rect_2,4,08,-1,-1,1.359,0.370833333,-0.231944444,1,0,0,1.5,Gabbro_rect,4,1.5,1,0,0,0,0,1,,,,,,,,,,,,,
63639d3bbd810ed5c307efc3,TCR,2024-06-11_11h51.13.300,LearnStrategy,2023.2.3,Win32,60.0240096,9,1,2,0.043055556,0.004166667,1,0,0,0.936,rock_grid_rect_2,3,12,-1,-1,0.936,0.398611111,-0.2625,1,0,0,0.885,Gabbro_rect,4,0.885,0,1,0,1,0,1,,,,,,,,,,,,,
63639d3bbd810ed5c307efc3,TCR,2024-06-11_11h51.13.300,LearnStrategy,2023.2.3,Win32,60.0240096,9,1,3,0.05,0.004166667,1,0,0,0.792,rock_grid_rect_2,6,06,-1,-1,0.792,0.1625,-0.2625,1,0,0,0.784,Diorite_rect,3,0.784,0,2,0,2,0,1,,,,,,,,,,,,,
63639d3bbd810ed5c307efc3,TCR,2024-06-11_11h51.13.300,LearnStrategy,2023.2.3,Win32,60.0240096,9,1,4,0.041666667,-0.004166667,1,0,0,0.659,rock_grid_rect_2,1,02,-1,-1,0.659,0.154166667,-0.406944444,1,0,0,1.05,Peridotite_rect,7,1.05,0,3,0,3,0,1,,,,,,,,,,,,,
63639d3bbd810ed5c307efc3,TCR,2024-06-11_11h51.13.300,LearnStrategy,2023.2.3,Win32,60.0240096,9,1,5,0.023611111,-0.008333333,1,0,0,0.626,rock_grid_rect_2,8,08,-1,-1,0.626,0.3875,-0.398611111,1,0,0,1.383,Pumice_rect,8,1.383,1,4,0,4,0,1,,,,,,,,,,,,,
63639d3bbd810ed5c307efc3,TCR,2024-06-11_11h51.13.300,LearnStrategy,2023.2.3,Win32,60.0240096,9,1,6,0.018055556,0.001388889,1,0,0,0.73,rock_grid_rect_2,5,10,-1,-1,0.73,-0.351388889,-0.248611111,1,0,0,1.738,Andesite_rect,1,1.738,0,5,0,5,0,1,,,,,,,,,,,,,
63639d3bbd810ed5c307efc3,TCR,2024-06-11_11h51.13.300,LearnStrategy,2023.2.3,Win32,60.0240096,9,1,7,-0.068055556,-0.004166667,1,0,0,0.711,rock_grid_rect_2,3,11,-1,-1,0.711,-0.351388889,-0.254166667,1,0,0,1.585,Andesite_rect,1,1.585,0,6,0,6,0,1,,,,,,,,,,,,,
63639d3bbd810ed5c307efc3,TCR,2024-06-11_11h51.13.300,LearnStrategy,2023.2.3,Win32,60.0240096,9,1,8,-0.086111111,0.011111111,1,0,0,0.677,rock_grid_rect_2,1,07,-1,-1,0.677,0.127777778,-0.251388889,1,0,0,0.938,Diorite_rect,3,0.938,0,7,0,7,0,1,,,,,,,,,,,,,
63639d3bbd810ed5c307efc3,TCR,2024-06-11_11h51.13.300,LearnStrategy,2023.2.3,Win32,60.0240096,9,1,9,-0.043055556,0,1,0,0,0.66,rock_grid_rect_2,7,12,-1,-1,0.66,-0.358333333,-0.247222222,1,0,0,1.642,Andesite_rect,1,1.642,0,8,0,8,0,1,,,,,,,,,,,,,
63639d3bbd810ed5c307efc3,TCR,2024-06-11_11h51.13.300,LearnStrategy,2023.2.3,Win32,60.0240096,9,1,10,-0.065277778,0.004166667,1,0,0,0.693,rock_grid_rect_2,7,10,-1,-1,0.693,0.075,-0.409722222,1,0,0,0.981,Peridotite_rect,7,0.981,1,9,0,9,0,1,,,,,,,,,,,,,
63639d3bbd810ed5c307efc3,TCR,2024-06-11_11h51.13.300,LearnStrategy,2023.2.3,Win32,60.0240096,9,1,11,-0.081944444,0.0125,1,0,0,0.71,rock_grid_rect_2,4,10,-1,-1,0.71,-0.1375,-0.413888889,1,0,0,1.063,Pegmatite_rect,6,1.063,0,10,0,10,0,1,,,,,,,,,,,,,
63639d3bbd810ed5c307efc3,TCR,2024-06-11_11h51.13.300,LearnStrategy,2023.2.3,Win32,60.0240096,9,1,12,-0.019444444,0.001388889,1,0,0,0.697,rock_grid_rect_2,6,13,-1,-1,0.697,0.126388889,-0.395833333,1,0,0,1.238,Peridotite_rect,7,1.238,0,11,0,11,0,1,,,,,,,,,,,,,
63639d3bbd810ed5c307efc3,TCR,2024-06-11_11h51.13.300,LearnStrategy,2023.2.3,Win32,60.0240096,9,1,13,-0.040277778,-0.0125,1,0,0,0.677,rock_grid_rect_2,1,06,-1,-1,0.677,-0.101388889,-0.404166667,1,0,0,0.874,Pegmatite_rect,6,0.874,0,12,0,12,0,1,,,,,,,,,,,,,
63639d3bbd810ed5c307efc3,TCR,2024-06-11_11h51.13.300,LearnStrategy,2023.2.3,Win32,60.0240096,9,1,14,-0.031944444,0.004166667,1,0,0,0.688,rock_grid_rect_2,4,11,-1,-1,0.688,-0.4,-0.2375,1,0,0,1.098,Andesite_rect,1,1.098,0,13,0,13,0,1,,,,,,,,,,,,,
63639d3bbd810ed5c307efc3,TCR,2024-06-11_11h51.13.300,LearnStrategy,2023.2.3,Win32,60.0240096,9,1,15,-0.034722222,-0.008333333,1,0,0,0.629,rock_grid_rect_2,7,14,-1,-1,0.629,0.088888889,-0.259722222,1,0,0,2.78,Diorite_rect,3,2.78,0,14,0,14,0,1,,,,,,,,,,,,,
63639d3bbd810ed5c307efc3,TCR,2024-06-11_11h51.13.300,LearnStrategy,2023.2.3,Win32,60.0240096,9,1,16,0.002777778,0.006944444,1,0,0,0.66,rock_grid_rect_2,8,05,-1,-1,0.66,0.375,-0.398611111,1,0,0,1.153,Pumice_rect,8,1.153,1,15,0,15,0,1,,,,,,,,,,,,,
63639d3bbd810ed5c307efc3,TCR,2024-06-11_11h51.13.300,LearnStrategy,2023.2.3,Win32,60.0240096,9,2,1,,,,,,,,6,15,,,,,,,,,,,8,15.203,0,,,,,,0.3875,-0.391666667,1,0,0,15.203,Pumice_rect,0,0,0,0,1,
63639d3bbd810ed5c307efc3,TCR,2024-06-11_11h51.13.300,LearnStrategy,2023.2.3,Win32,60.0240096,9,2,2,,,,,,,,1,16,,,,,,,,,,,4,1.008,0,,,,,,0.391666667,-0.251388889,1,0,0,1.008,Gabbro_rect,1,0,1,0,1,
63639d3bbd810ed5c307efc3,TCR,2024-06-11_11h51.13.300,LearnStrategy,2023.2.3,Win32,60.0240096,9,2,3,,,,,,,,4,05,,,,,,,,,,,3,1.267,0,,,,,,0.126388889,-0.248611111,1,0,0,1.267,Diorite_rect,2,0,2,0,1,
63639d3bbd810ed5c307efc3,TCR,2024-06-11_11h51.13.300,LearnStrategy,2023.2.3,Win32,60.0240096,9,2,4,,,,,,,,1,04,,,,,,,,,,,4,8.899,0,,,,,,0.405555556,-0.252777778,1,0,0,8.899,Gabbro_rect,3,0,3,0,1,
63639d3bbd810ed5c307efc3,TCR,2024-06-11_11h51.13.300,LearnStrategy,2023.2.3,Win32,60.0240096,9,2,5,,,,,,,,8,03,,,,,,,,,,,8,1.286,1,,,,,,0.4125,-0.381944444,1,0,0,1.286,Pumice_rect,4,0,4,0,1,
63639d3bbd810ed5c307efc3,TCR,2024-06-11_11h51.13.300,LearnStrategy,2023.2.3,Win32,60.0240096,9,2,6,,,,,,,,3,07,,,,,,,,,,,4,0.905,0,,,,,,0.3875,-0.245833333,1,0,0,0.905,Gabbro_rect,5,0,5,0,1,
63639d3bbd810ed5c307efc3,TCR,2024-06-11_11h51.13.300,LearnStrategy,2023.2.3,Win32,60.0240096,9,2,7,,,,,,,,2,01,,,,,,,,,,,2,1.054,1,,,,,,-0.120833333,-0.251388889,1,0,0,1.054,Basalt_rect,6,0,6,0,1,
63639d3bbd810ed5c307efc3,TCR,2024-06-11_11h51.13.300,LearnStrategy,2023.2.3,Win32,60.0240096,9,2,8,,,,,,,,7,07,,,,,,,,,,,7,1.509,1,,,,,,0.0875,-0.398611111,1,0,0,1.509,Peridotite_rect,7,0,7,0,1,
63639d3bbd810ed5c307efc3,TCR,2024-06-11_11h51.13.300,LearnStrategy,2023.2.3,Win32,60.0240096,9,2,9,,,,,,,,8,13,,,,,,,,,,,8,1.289,1,,,,,,0.3875,-0.395833333,1,0,0,1.289,Pumice_rect,8,0,8,0,1,
63639d3bbd810ed5c307efc3,TCR,2024-06-11_11h51.13.300,LearnStrategy,2023.2.3,Win32,60.0240096,9,2,10,,,,,,,,3,06,,,,,,,,,,,4,1.222,0,,,,,,0.380555556,-0.240277778,1,0,0,1.222,Gabbro_rect,9,0,9,0,1,
63639d3bbd810ed5c307efc3,TCR,2024-06-11_11h51.13.300,LearnStrategy,2023.2.3,Win32,60.0240096,9,2,11,,,,,,,,7,02,,,,,,,,,,,6,2.864,0,,,,,,-0.094444444,-0.413888889,1,0,0,2.864,Pegmatite_rect,10,0,10,0,1,
63639d3bbd810ed5c307efc3,TCR,2024-06-11_11h51.13.300,LearnStrategy,2023.2.3,Win32,60.0240096,9,2,12,,,,,,,,6,11,,,,,,,,,,,7,0.947,0,,,,,,0.093055556,-0.397222222,1,0,0,0.947,Peridotite_rect,11,0,11,0,1,
63639d3bbd810ed5c307efc3,TCR,2024-06-11_11h51.13.300,LearnStrategy,2023.2.3,Win32,60.0240096,9,2,13,,,,,,,,4,12,,,,,,,,,,,4,4.877,1,,,,,,0.390277778,-0.247222222,1,0,0,4.877,Gabbro_rect,12,0,12,0,1,
63639d3bbd810ed5c307efc3,TCR,2024-06-11_11h51.13.300,LearnStrategy,2023.2.3,Win32,60.0240096,9,2,14,,,,,,,,5,07,,,,,,,,,,,5,1.201,1,,,,,,-0.379166667,-0.409722222,1,0,0,1.201,Obsidian_rect,13,0,13,0,1,
63639d3bbd810ed5c307efc3,TCR,2024-06-11_11h51.13.300,LearnStrategy,2023.2.3,Win32,60.0240096,9,2,15,,,,,,,,2,09,,,,,,,,,,,2,1.16,1,,,,,,-0.101388889,-0.263888889,1,0,0,1.16,Basalt_rect,14,0,14,0,1,
63639d3bbd810ed5c307efc3,TCR,2024-06-11_11h51.13.300,LearnStrategy,2023.2.3,Win32,60.0240096,9,2,16,,,,,,,,5,08,,,,,,,,,,,5,1.396,1,,,,,,-0.383333333,-0.405555556,1,0,0,1.396,Obsidian_rect,15,0,15,0,1,
63639d3bbd810ed5c307efc3,TCR,2024-06-11_11h51.13.300,LearnStrategy,2023.2.3,Win32,60.0240096,,,,,,,,,,,,,,,,,,,,,,,,,,,,,,,,,,,,,,,,,,,0
63639d3bbd810ed5c307efc3,TCR,2024-06-11_11h51.13.300,LearnStrategy,2023.2.3,Win32,60.0240096,,,,,,,,,,,,,,,,,,,,,,,,,,,,,,,,,,,,,,,,,,,
63639d3bbd810ed5c307efc3,TCR,2024-06-11_11h51.13.300,LearnStrategy,2023.2.3,Win32,60.0240096,,,,,,,,,,,8,08,1,1,,,,,,,,,,,,,,,,,,,,,,,,,,,,,
63639d3bbd810ed5c307efc3,TCR,2024-06-11_11h51.13.300,LearnStrategy,2023.2.3,Win32,60.0240096,,,,,,,,,,,5,09,1,2,,,,,,,,,,,,,,,,,,,,,,,,,,,,,
63639d3bbd810ed5c307efc3,TCR,2024-06-11_11h51.13.300,LearnStrategy,2023.2.3,Win32,60.0240096,,,,,,,,,,,1,01,1,3,,,,,,,,,,,,,,,,,,,,,,,,,,,,,
63639d3bbd810ed5c307efc3,TCR,2024-06-11_11h51.13.300,LearnStrategy,2023.2.3,Win32,60.0240096,,,,,,,,,,,6,09,1,4,,,,,,,,,,,,,,,,,,,,,,,,,,,,,
63639d3bbd810ed5c307efc3,TCR,2024-06-11_11h51.13.300,LearnStrategy,2023.2.3,Win32,60.0240096,,,,,,,,,,,6,08,1,5,,,,,,,,,,,,,,,,,,,,,,,,,,,,,
63639d3bbd810ed5c307efc3,TCR,2024-06-11_11h51.13.300,LearnStrategy,2023.2.3,Win32,60.0240096,,,,,,,,,,,3,10,1,6,,,,,,,,,,,,,,,,,,,,,,,,,,,,,
63639d3bbd810ed5c307efc3,TCR,2024-06-11_11h51.13.300,LearnStrategy,2023.2.3,Win32,60.0240096,,,,,,,,,,,5,02,1,7,,,,,,,,,,,,,,,,,,,,,,,,,,,,,
63639d3bbd810ed5c307efc3,TCR,2024-06-11_11h51.13.300,LearnStrategy,2023.2.3,Win32,60.0240096,,,,,,,,,,,4,11,1,8,,,,,,,,,,,,,,,,,,,,,,,,,,,,,
63639d3bbd810ed5c307efc3,TCR,2024-06-11_11h51.13.300,LearnStrategy,2023.2.3,Win32,60.0240096,,,,,,,,,,,6,06,2,1,,,,,,,,,,,,,,,,,,,,,,,,,,,,,
63639d3bbd810ed5c307efc3,TCR,2024-06-11_11h51.13.300,LearnStrategy,2023.2.3,Win32,60.0240096,,,,,,,,,,,2,11,2,2,,,,,,,,,,,,,,,,,,,,,,,,,,,,,
63639d3bbd810ed5c307efc3,TCR,2024-06-11_11h51.13.300,LearnStrategy,2023.2.3,Win32,60.0240096,,,,,,,,,,,2,08,2,3,,,,,,,,,,,,,,,,,,,,,,,,,,,,,
63639d3bbd810ed5c307efc3,TCR,2024-06-11_11h51.13.300,LearnStrategy,2023.2.3,Win32,60.0240096,,,,,,,,,,,2,02,2,4,,,,,,,,,,,,,,,,,,,,,,,,,,,,,
63639d3bbd810ed5c307efc3,TCR,2024-06-11_11h51.13.300,LearnStrategy,2023.2.3,Win32,60.0240096,,,,,,,,,,,5,04,2,5,,,,,,,,,,,,,,,,,,,,,,,,,,,,,
63639d3bbd810ed5c307efc3,TCR,2024-06-11_11h51.13.300,LearnStrategy,2023.2.3,Win32,60.0240096,,,,,,,,,,,8,05,2,6,,,,,,,,,,,,,,,,,,,,,,,,,,,,,
63639d3bbd810ed5c307efc3,TCR,2024-06-11_11h51.13.300,LearnStrategy,2023.2.3,Win32,60.0240096,,,,,,,,,,,7,14,2,7,,,,,,,,,,,,,,,,,,,,,,,,,,,,,
63639d3bbd810ed5c307efc3,TCR,2024-06-11_11h51.13.300,LearnStrategy,2023.2.3,Win32,60.0240096,,,,,,,,,,,7,15,2,8,,,,,,,,,,,,,,,,,,,,,,,,,,,,,
63639d3bbd810ed5c307efc3,TCR,2024-06-11_11h51.13.300,LearnStrategy,2023.2.3,Win32,60.0240096,,,,,,,,,,,6,07,3,1,,,,,,,,,,,,,,,,,,,,,,,,,,,,,
63639d3bbd810ed5c307efc3,TCR,2024-06-11_11h51.13.300,LearnStrategy,2023.2.3,Win32,60.0240096,,,,,,,,,,,8,16,3,2,,,,,,,,,,,,,,,,,,,,,,,,,,,,,
63639d3bbd810ed5c307efc3,TCR,2024-06-11_11h51.13.300,LearnStrategy,2023.2.3,Win32,60.0240096,,,,,,,,,,,1,06,3,3,,,,,,,,,,,,,,,,,,,,,,,,,,,,,
63639d3bbd810ed5c307efc3,TCR,2024-06-11_11h51.13.300,LearnStrategy,2023.2.3,Win32,60.0240096,,,,,,,,,,,1,07,3,4,,,,,,,,,,,,,,,,,,,,,,,,,,,,,
63639d3bbd810ed5c307efc3,TCR,2024-06-11_11h51.13.300,LearnStrategy,2023.2.3,Win32,60.0240096,,,,,,,,,,,3,12,3,5,,,,,,,,,,,,,,,,,,,,,,,,,,,,,
63639d3bbd810ed5c307efc3,TCR,2024-06-11_11h51.13.300,LearnStrategy,2023.2.3,Win32,60.0240096,,,,,,,,,,,7,06,3,6,,,,,,,,,,,,,,,,,,,,,,,,,,,,,
63639d3bbd810ed5c307efc3,TCR,2024-06-11_11h51.13.300,LearnStrategy,2023.2.3,Win32,60.0240096,,,,,,,,,,,4,16,3,7,,,,,,,,,,,,,,,,,,,,,,,,,,,,,
63639d3bbd810ed5c307efc3,TCR,2024-06-11_11h51.13.300,LearnStrategy,2023.2.3,Win32,60.0240096,,,,,,,,,,,6,13,3,8,,,,,,,,,,,,,,,,,,,,,,,,,,,,,
63639d3bbd810ed5c307efc3,TCR,2024-06-11_11h51.13.300,LearnStrategy,2023.2.3,Win32,60.0240096,,,,,,,,,,,3,08,4,1,,,,,,,,,,,,,,,,,,,,,,,,,,,,,
63639d3bbd810ed5c307efc3,TCR,2024-06-11_11h51.13.300,LearnStrategy,2023.2.3,Win32,60.0240096,,,,,,,,,,,7,10,4,2,,,,,,,,,,,,,,,,,,,,,,,,,,,,,
63639d3bbd810ed5c307efc3,TCR,2024-06-11_11h51.13.300,LearnStrategy,2023.2.3,Win32,60.0240096,,,,,,,,,,,5,05,4,3,,,,,,,,,,,,,,,,,,,,,,,,,,,,,
63639d3bbd810ed5c307efc3,TCR,2024-06-11_11h51.13.300,LearnStrategy,2023.2.3,Win32,60.0240096,,,,,,,,,,,2,10,4,4,,,,,,,,,,,,,,,,,,,,,,,,,,,,,
63639d3bbd810ed5c307efc3,TCR,2024-06-11_11h51.13.300,LearnStrategy,2023.2.3,Win32,60.0240096,,,,,,,,,,,7,05,4,5,,,,,,,,,,,,,,,,,,,,,,,,,,,,,
63639d3bbd810ed5c307efc3,TCR,2024-06-11_11h51.13.300,LearnStrategy,2023.2.3,Win32,60.0240096,,,,,,,,,,,4,15,4,6,,,,,,,,,,,,,,,,,,,,,,,,,,,,,
63639d3bbd810ed5c307efc3,TCR,2024-06-11_11h51.13.300,LearnStrategy,2023.2.3,Win32,60.0240096,,,,,,,,,,,1,09,4,7,,,,,,,,,,,,,,,,,,,,,,,,,,,,,
63639d3bbd810ed5c307efc3,TCR,2024-06-11_11h51.13.300,LearnStrategy,2023.2.3,Win32,60.0240096,,,,,,,,,,,6,03,4,8,,,,,,,,,,,,,,,,,,,,,,,,,,,,,
63639d3bbd810ed5c307efc3,TCR,2024-06-11_11h51.13.300,LearnStrategy,2023.2.3,Win32,60.0240096,,,,,,,,,,,8,02,5,1,,,,,,,,,,,,,,,,,,,,,,,,,,,,,
63639d3bbd810ed5c307efc3,TCR,2024-06-11_11h51.13.300,LearnStrategy,2023.2.3,Win32,60.0240096,,,,,,,,,,,1,10,5,2,,,,,,,,,,,,,,,,,,,,,,,,,,,,,
63639d3bbd810ed5c307efc3,TCR,2024-06-11_11h51.13.300,LearnStrategy,2023.2.3,Win32,60.0240096,,,,,,,,,,,2,14,5,3,,,,,,,,,,,,,,,,,,,,,,,,,,,,,
63639d3bbd810ed5c307efc3,TCR,2024-06-11_11h51.13.300,LearnStrategy,2023.2.3,Win32,60.0240096,,,,,,,,,,,3,11,5,4,,,,,,,,,,,,,,,,,,,,,,,,,,,,,
63639d3bbd810ed5c307efc3,TCR,2024-06-11_11h51.13.300,LearnStrategy,2023.2.3,Win32,60.0240096,,,,,,,,,,,2,12,5,5,,,,,,,,,,,,,,,,,,,,,,,,,,,,,
63639d3bbd810ed5c307efc3,TCR,2024-06-11_11h51.13.300,LearnStrategy,2023.2.3,Win32,60.0240096,,,,,,,,,,,3,02,5,6,,,,,,,,,,,,,,,,,,,,,,,,,,,,,
63639d3bbd810ed5c307efc3,TCR,2024-06-11_11h51.13.300,LearnStrategy,2023.2.3,Win32,60.0240096,,,,,,,,,,,5,10,5,7,,,,,,,,,,,,,,,,,,,,,,,,,,,,,
63639d3bbd810ed5c307efc3,TCR,2024-06-11_11h51.13.300,LearnStrategy,2023.2.3,Win32,60.0240096,,,,,,,,,,,4,10,5,8,,,,,,,,,,,,,,,,,,,,,,,,,,,,,
63639d3bbd810ed5c307efc3,TCR,2024-06-11_11h51.13.300,LearnStrategy,2023.2.3,Win32,60.0240096,,,,,,,,,,,4,08,6,1,,,,,,,,,,,,,,,,,,,,,,,,,,,,,
63639d3bbd810ed5c307efc3,TCR,2024-06-11_11h51.13.300,LearnStrategy,2023.2.3,Win32,60.0240096,,,,,,,,,,,8,09,6,2,,,,,,,,,,,,,,,,,,,,,,,,,,,,,
63639d3bbd810ed5c307efc3,TCR,2024-06-11_11h51.13.300,LearnStrategy,2023.2.3,Win32,60.0240096,,,,,,,,,,,8,14,6,3,,,,,,,,,,,,,,,,,,,,,,,,,,,,,
63639d3bbd810ed5c307efc3,TCR,2024-06-11_11h51.13.300,LearnStrategy,2023.2.3,Win32,60.0240096,,,,,,,,,,,3,13,6,4,,,,,,,,,,,,,,,,,,,,,,,,,,,,,
63639d3bbd810ed5c307efc3,TCR,2024-06-11_11h51.13.300,LearnStrategy,2023.2.3,Win32,60.0240096,,,,,,,,,,,4,03,6,5,,,,,,,,,,,,,,,,,,,,,,,,,,,,,
63639d3bbd810ed5c307efc3,TCR,2024-06-11_11h51.13.300,LearnStrategy,2023.2.3,Win32,60.0240096,,,,,,,,,,,1,02,6,6,,,,,,,,,,,,,,,,,,,,,,,,,,,,,
63639d3bbd810ed5c307efc3,TCR,2024-06-11_11h51.13.300,LearnStrategy,2023.2.3,Win32,60.0240096,,,,,,,,,,,5,06,6,7,,,,,,,,,,,,,,,,,,,,,,,,,,,,,
63639d3bbd810ed5c307efc3,TCR,2024-06-11_11h51.13.300,LearnStrategy,2023.2.3,Win32,60.0240096,,,,,,,,,,,7,12,6,8,,,,,,,,,,,,,,,,,,,,,,,,,,,,,