participant,condition,date,expName,psychopyVersion,OS,frameRate,block,phase,trial,learn_mouse.x,learn_mouse.y,learn_mouse.leftButton,learn_mouse.midButton,learn_mouse.rightButton,learn_mouse.time,learn_mouse.clicked_name,cat,token,row,col,t_select,cat_mouse_l.x,cat_mouse_l.y,cat_mouse_l.leftButton,cat_mouse_l.midButton,cat_mouse_l.rightButton,cat_mouse_l.time,cat_mouse_l.clicked_name,resp,t_resp,corr,train_trials.thisRepN,train_trials.thisTrialN,train_trials.thisN,train_trials.thisIndex,train_trials.ran,cat_mouse_t.x,cat_mouse_t.y,cat_mouse_t.leftButton,cat_mouse_t.midButton,cat_mouse_t.rightButton,cat_mouse_t.time,cat_mouse_t.clicked_name,test_trials.thisRepN,test_trials.thisTrialN,test_trials.thisN,test_trials.thisIndex,test_trials.ran,Bonus
637ef4d4e9abb3274bc1c925,SCN,2024-06-26_13h53.26.444,LearnStrategy,2023.2.3,MacIntel,60.24096386,,,,,,,,,,,,,,,,,,,,,,,,,,,,,,,,,,,,,,,,,,,
637ef4d4e9abb3274bc1c925,SCN,2024-06-26_13h53.26.444,LearnStrategy,2023.2.3,MacIntel,60.24096386,1,1,1,0.081300863,0.382503849,1,0,0,9.9188,Obsidian_10,5,10,6,5,9.919,0.390405273,-0.409958293,1,0,0,10.6948,Pumice_rect,8,10.695,0,0,0,0,0,1,,,,,,,,,,,,,
637ef4d4e9abb3274bc1c925,SCN,2024-06-26_13h53.26.444,LearnStrategy,2023.2.3,MacIntel,60.24096386,1,1,2,-0.386681824,-0.405914985,1,0,0,14.669,Obsidian_02,5,02,1,2,14.669,0.112000326,-0.250628526,1,0,0,3.425,Diorite_rect,3,3.425,0,1,0,1,0,1,,,,,,,,,,,,,
637ef4d4e9abb3274bc1c925,SCN,2024-06-26_13h53.26.444,LearnStrategy,2023.2.3,MacIntel,60.24096386,1,1,3,0.06006897,0.381065742,1,0,0,4.1395,Obsidian_10,5,10,6,5,4.139,-0.104644843,-0.258028768,1,0,0,6.7388,Basalt_rect,2,6.739,0,2,0,2,0,1,,,,,,,,,,,,,
637ef4d4e9abb3274bc1c925,SCN,2024-06-26_13h53.26.444,LearnStrategy,2023.2.3,MacIntel,60.24096386,1,1,4,0.559444309,0.279531403,1,0,0,6.934,Pumice_14,8,14,5,8,6.934,-0.082378947,-0.248141751,1,0,0,3.2467,Basalt_rect,2,3.247,0,3,0,3,0,1,,,,,,,,,,,,,
637ef4d4e9abb3274bc1c925,SCN,2024-06-26_13h53.26.444,LearnStrategy,2023.2.3,MacIntel,60.24096386,1,1,5,-0.546614329,-0.401824544,1,0,0,4.1423,Basalt_16,2,16,1,1,4.142,0.054917263,-0.252753703,1,0,0,5.2874,Diorite_rect,3,5.287,0,4,0,4,0,1,,,,,,,,,,,,,
637ef4d4e9abb3274bc1c925,SCN,2024-06-26_13h53.26.444,LearnStrategy,2023.2.3,MacIntel,60.24096386,1,1,6,-0.222341512,0.226376919,1,0,0,3.6907,Pegmatite_16,6,16,5,3,3.691,-0.405935093,-0.257224053,1,0,0,6.7741,Andesite_rect,1,6.774,0,5,0,5,0,1,,,,,,,,,,,,,
637ef4d4e9abb3274bc1c925,SCN,2024-06-26_13h53.26.444,LearnStrategy,2023.2.3,MacIntel,60.24096386,1,1,7,0.396267361,-0.244038086,1,0,0,3.6304,Pumice_06,8,06,2,7,3.63,0.369833171,-0.401207275,1,0,0,3.6931,Pumice_rect,8,3.693,1,6,0,6,0,1,,,,,,,,,,,,,
637ef4d4e9abb3274bc1c925,SCN,2024-06-26_13h53.26.444,LearnStrategy,2023.2.3,MacIntel,60.24096386,1,1,8,-0.397095812,0.255615624,1,0,0,2.2371,Diorite_14,3,14,5,2,2.237,-0.149805908,-0.262969971,1,0,0,1.3837,Basalt_rect,2,1.384,0,7,0,7,0,1,,,,,,,,,,,,,
637ef4d4e9abb3274bc1c925,SCN,2024-06-26_13h53.26.444,LearnStrategy,2023.2.3,MacIntel,60.24096386,1,1,9,-0.379599711,-0.272841458,1,0,0,2.1546,Pumice_09,8,09,2,2,2.155,0.342745497,-0.243668009,1,0,0,1.55,Gabbro_rect,4,1.55,0,8,0,8,0,1,,,,,,,,,,,,,
637ef4d4e9abb3274bc1c925,SCN,2024-06-26_13h53.26.444,LearnStrategy,2023.2.3,MacIntel,60.24096386,1,1,10,0.427360297,0.239264848,1,0,0,3.3064,Peridotite_08,7,08,5,7,3.306,-0.365783115,-0.392849731,1,0,0,6.1995,Obsidian_rect,5,6.2,0,9,0,9,0,1,,,,,,,,,,,,,
637ef4d4e9abb3274bc1c925,SCN,2024-06-26_13h53.26.444,LearnStrategy,2023.2.3,MacIntel,60.24096386,1,1,11,0.367153727,0.078942125,1,0,0,1.8345,Pegmatite_10,6,10,4,7,1.834,0.120593872,-0.256194865,1,0,0,2.0239,Diorite_rect,3,2.024,0,10,0,10,0,1,,,,,,,,,,,,,
637ef4d4e9abb3274bc1c925,SCN,2024-06-26_13h53.26.444,LearnStrategy,2023.2.3,MacIntel,60.24096386,1,1,12,-0.0840625,0.257458988,1,0,0,3.6083,Pegmatite_11,6,11,5,4,3.608,-0.406800503,-0.235286933,1,0,0,5.5183,Andesite_rect,1,5.518,0,11,0,11,0,1,,,,,,,,,,,,,
637ef4d4e9abb3274bc1c925,SCN,2024-06-26_13h53.26.444,LearnStrategy,2023.2.3,MacIntel,60.24096386,1,1,13,-0.371562703,0.07352417,1,0,0,2.6544,Peridotite_16,7,16,4,2,2.654,-0.373864644,-0.397541707,1,0,0,4.4124,Obsidian_rect,5,4.412,0,12,0,12,0,1,,,,,,,,,,,,,
637ef4d4e9abb3274bc1c925,SCN,2024-06-26_13h53.26.444,LearnStrategy,2023.2.3,MacIntel,60.24096386,1,1,14,0.123510064,-0.257006293,1,0,0,5.4632,Gabbro_05,4,05,2,5,5.463,0.170654704,-0.2569104,1,0,0,1.292,Diorite_rect,3,1.292,0,13,0,13,0,1,,,,,,,,,,,,,
637ef4d4e9abb3274bc1c925,SCN,2024-06-26_13h53.26.444,LearnStrategy,2023.2.3,MacIntel,60.24096386,1,1,15,0.546735433,-0.390021227,1,0,0,3.0066,Pegmatite_06,6,06,1,8,3.007,-0.077816366,-0.396731093,1,0,0,3.8472,Pegmatite_rect,6,3.847,1,14,0,14,0,1,,,,,,,,,,,,,
637ef4d4e9abb3274bc1c925,SCN,2024-06-26_13h53.26.444,LearnStrategy,2023.2.3,MacIntel,60.24096386,1,1,16,-0.558427311,0.40926161,1,0,0,1.9532,Diorite_07,3,07,6,1,1.953,-0.092016059,-0.395318332,1,0,0,5.1453,Pegmatite_rect,6,5.145,0,15,0,15,0,1,,,,,,,,,,,,,
637ef4d4e9abb3274bc1c925,SCN,2024-06-26_13h53.26.444,LearnStrategy,2023.2.3,MacIntel,60.24096386,1,2,1,,,,,,,,2,02,,,,,,,,,,,3,4.729,0,,,,,,0.109406399,-0.257533095,1,0,0,4.7291,Diorite_rect,0,0,0,0,1,
637ef4d4e9abb3274bc1c925,SCN,2024-06-26_13h53.26.444,LearnStrategy,2023.2.3,MacIntel,60.24096386,1,2,2,,,,,,,,8,05,,,,,,,,,,,8,4.409,1,,,,,,0.3551317,-0.390686306,1,0,0,4.4092,Pumice_rect,1,0,1,0,1,
637ef4d4e9abb3274bc1c925,SCN,2024-06-26_13h53.26.444,LearnStrategy,2023.2.3,MacIntel,60.24096386,1,2,3,,,,,,,,1,03,,,,,,,,,,,5,3.171,0,,,,,,-0.388651123,-0.409339667,1,0,0,3.1714,Obsidian_rect,2,0,2,0,1,
637ef4d4e9abb3274bc1c925,SCN,2024-06-26_13h53.26.444,LearnStrategy,2023.2.3,MacIntel,60.24096386,1,2,4,,,,,,,,4,10,,,,,,,,,,,6,4.108,0,,,,,,-0.123841756,-0.398422919,1,0,0,4.1079,Pegmatite_rect,3,0,3,0,1,
637ef4d4e9abb3274bc1c925,SCN,2024-06-26_13h53.26.444,LearnStrategy,2023.2.3,MacIntel,60.24096386,1,2,5,,,,,,,,7,07,,,,,,,,,,,5,5.176,0,,,,,,-0.457082248,-0.407774116,1,0,0,5.176,Obsidian_rect,4,0,4,0,1,
637ef4d4e9abb3274bc1c925,SCN,2024-06-26_13h53.26.444,LearnStrategy,2023.2.3,MacIntel,60.24096386,1,2,6,,,,,,,,1,10,,,,,,,,,,,7,3.703,0,,,,,,0.11163737,-0.391057129,1,0,0,3.7033,Peridotite_rect,5,0,5,0,1,
637ef4d4e9abb3274bc1c925,SCN,2024-06-26_13h53.26.444,LearnStrategy,2023.2.3,MacIntel,60.24096386,1,2,7,,,,,,,,5,12,,,,,,,,,,,5,5.786,1,,,,,,-0.348606805,-0.392278917,1,0,0,5.786,Obsidian_rect,6,0,6,0,1,
637ef4d4e9abb3274bc1c925,SCN,2024-06-26_13h53.26.444,LearnStrategy,2023.2.3,MacIntel,60.24096386,1,2,8,,,,,,,,3,02,,,,,,,,,,,1,1.951,0,,,,,,-0.364611376,-0.267174886,1,0,0,1.9507,Andesite_rect,7,0,7,0,1,
637ef4d4e9abb3274bc1c925,SCN,2024-06-26_13h53.26.444,LearnStrategy,2023.2.3,MacIntel,60.24096386,1,2,9,,,,,,,,4,12,,,,,,,,,,,2,3.001,0,,,,,,-0.126871338,-0.266298557,1,0,0,3.0012,Basalt_rect,8,0,8,0,1,
637ef4d4e9abb3274bc1c925,SCN,2024-06-26_13h53.26.444,LearnStrategy,2023.2.3,MacIntel,60.24096386,1,2,10,,,,,,,,3,09,,,,,,,,,,,2,1.106,0,,,,,,-0.126871338,-0.266723429,1,0,0,1.1062,Basalt_rect,9,0,9,0,1,
637ef4d4e9abb3274bc1c925,SCN,2024-06-26_13h53.26.444,LearnStrategy,2023.2.3,MacIntel,60.24096386,1,2,11,,,,,,,,8,04,,,,,,,,,,,8,2.652,1,,,,,,0.318080241,-0.40623135,1,0,0,2.6522,Pumice_rect,10,0,10,0,1,
637ef4d4e9abb3274bc1c925,SCN,2024-06-26_13h53.26.444,LearnStrategy,2023.2.3,MacIntel,60.24096386,1,2,12,,,,,,,,6,13,,,,,,,,,,,7,2.63,0,,,,,,0.155623847,-0.403959012,1,0,0,2.6304,Peridotite_rect,11,0,11,0,1,
637ef4d4e9abb3274bc1c925,SCN,2024-06-26_13h53.26.444,LearnStrategy,2023.2.3,MacIntel,60.24096386,1,2,13,,,,,,,,7,10,,,,,,,,,,,4,3.005,0,,,,,,0.310569322,-0.245816583,1,0,0,3.0046,Gabbro_rect,12,0,12,0,1,
637ef4d4e9abb3274bc1c925,SCN,2024-06-26_13h53.26.444,LearnStrategy,2023.2.3,MacIntel,60.24096386,1,2,14,,,,,,,,5,11,,,,,,,,,,,5,3.174,1,,,,,,-0.373456862,-0.398515286,1,0,0,3.1738,Obsidian_rect,13,0,13,0,1,
637ef4d4e9abb3274bc1c925,SCN,2024-06-26_13h53.26.444,LearnStrategy,2023.2.3,MacIntel,60.24096386,1,2,15,,,,,,,,2,12,,,,,,,,,,,7,3.222,0,,,,,,0.193046129,-0.416494141,1,0,0,3.2216,Peridotite_rect,14,0,14,0,1,
637ef4d4e9abb3274bc1c925,SCN,2024-06-26_13h53.26.444,LearnStrategy,2023.2.3,MacIntel,60.24096386,1,2,16,,,,,,,,6,09,,,,,,,,,,,4,6.732,0,,,,,,0.393737793,-0.265225762,1,0,0,6.7321,Gabbro_rect,15,0,15,0,1,
637ef4d4e9abb3274bc1c925,SCN,2024-06-26_13h53.26.444,LearnStrategy,2023.2.3,MacIntel,60.24096386,2,1,1,0.067995877,-0.101782701,1,0,0,2.2212,Basalt_08,2,08,3,5,2.221,0.182104899,-0.253374159,1,0,0,1.3518,Diorite_rect,3,1.352,0,0,0,0,0,1,,,,,,,,,,,,,
637ef4d4e9abb3274bc1c925,SCN,2024-06-26_13h53.26.444,LearnStrategy,2023.2.3,MacIntel,60.24096386,2,1,2,0.090418769,0.411513401,1,0,0,2.0218,Obsidian_10,5,10,6,5,2.022,-0.370753038,-0.405342814,1,0,0,1.1012,Obsidian_rect,5,1.101,1,1,0,1,0,1,,,,,,,,,,,,,
637ef4d4e9abb3274bc1c925,SCN,2024-06-26_13h53.26.444,LearnStrategy,2023.2.3,MacIntel,60.24096386,2,1,3,-0.093675334,0.079832492,1,0,0,2.6379,Obsidian_04,5,04,4,4,2.638,-0.369116686,-0.399182536,1,0,0,2.0608,Obsidian_rect,5,2.061,1,2,0,2,0,1,,,,,,,,,,,,,
637ef4d4e9abb3274bc1c925,SCN,2024-06-26_13h53.26.444,LearnStrategy,2023.2.3,MacIntel,60.24096386,2,1,4,-0.416245694,-0.433813951,1,0,0,1.2192,Obsidian_02,5,02,1,2,1.219,-0.349592489,-0.3798074,1,0,0,0.7108,Obsidian_rect,5,0.711,1,3,0,3,0,1,,,,,,,,,,,,,
637ef4d4e9abb3274bc1c925,SCN,2024-06-26_13h53.26.444,LearnStrategy,2023.2.3,MacIntel,60.24096386,2,1,5,0.547936605,0.217166206,1,0,0,4.011,Pumice_14,8,14,5,8,4.011,0.340040826,-0.41523763,1,0,0,1.7895,Pumice_rect,8,1.789,1,4,0,4,0,1,,,,,,,,,,,,,
637ef4d4e9abb3274bc1c925,SCN,2024-06-26_13h53.26.444,LearnStrategy,2023.2.3,MacIntel,60.24096386,2,1,6,0.387509223,0.395612793,1,0,0,4.0269,Diorite_06,3,06,6,7,4.027,-0.385266113,-0.263090549,1,0,0,3.1057,Andesite_rect,1,3.106,0,5,0,5,0,1,,,,,,,,,,,,,
637ef4d4e9abb3274bc1c925,SCN,2024-06-26_13h53.26.444,LearnStrategy,2023.2.3,MacIntel,60.24096386,2,1,7,0.414958225,0.086832479,1,0,0,1.2831,Pegmatite_10,6,10,4,7,1.283,0.156359931,-0.415743408,1,0,0,3.9012,Peridotite_rect,7,3.901,0,6,0,6,0,1,,,,,,,,,,,,,
637ef4d4e9abb3274bc1c925,SCN,2024-06-26_13h53.26.444,LearnStrategy,2023.2.3,MacIntel,60.24096386,2,1,8,0.227019653,-0.083405355,1,0,0,2.7054,Andesite_11,1,11,3,6,2.705,0.040346951,-0.255743544,1,0,0,2.1786,Diorite_rect,3,2.179,0,7,0,7,0,1,,,,,,,,,,,,,
637ef4d4e9abb3274bc1c925,SCN,2024-06-26_13h53.26.444,LearnStrategy,2023.2.3,MacIntel,60.24096386,2,1,9,-0.235317688,0.23541787,1,0,0,4.443,Pegmatite_16,6,16,5,3,4.443,0.330731608,-0.257143894,1,0,0,6.6049,Gabbro_rect,4,6.605,0,8,0,8,0,1,,,,,,,,,,,,,
637ef4d4e9abb3274bc1c925,SCN,2024-06-26_13h53.26.444,LearnStrategy,2023.2.3,MacIntel,60.24096386,2,1,10,0.520237901,-0.245559489,1,0,0,4.0763,Peridotite_06,7,06,2,8,4.076,-0.135356581,-0.24191291,1,0,0,1.8303,Basalt_rect,2,1.83,0,9,0,9,0,1,,,,,,,,,,,,,
637ef4d4e9abb3274bc1c925,SCN,2024-06-26_13h53.26.444,LearnStrategy,2023.2.3,MacIntel,60.24096386,2,1,11,-0.23427809,-0.381879612,1,0,0,2.5055,Pumice_08,8,08,1,3,2.505,-0.360822822,-0.263395928,1,0,0,3.2506,Andesite_rect,1,3.251,0,10,0,10,0,1,,,,,,,,,,,,,
637ef4d4e9abb3274bc1c925,SCN,2024-06-26_13h53.26.444,LearnStrategy,2023.2.3,MacIntel,60.24096386,2,1,12,-0.035739407,0.389517365,1,0,0,3.8793,Basalt_10,2,10,6,4,3.879,-0.128903537,-0.258390978,1,0,0,2.0287,Basalt_rect,2,2.029,1,11,0,11,0,1,,,,,,,,,,,,,
637ef4d4e9abb3274bc1c925,SCN,2024-06-26_13h53.26.444,LearnStrategy,2023.2.3,MacIntel,60.24096386,2,1,13,-0.54080797,0.065862088,1,0,0,3.0523,Andesite_07,1,07,4,1,3.052,0.371115994,-0.404771118,1,0,0,3.1749,Pumice_rect,8,3.175,0,12,0,12,0,1,,,,,,,,,,,,,
637ef4d4e9abb3274bc1c925,SCN,2024-06-26_13h53.26.444,LearnStrategy,2023.2.3,MacIntel,60.24096386,2,1,14,-0.062077772,-0.237198893,1,0,0,2.7046,Basalt_11,2,11,2,4,2.705,-0.098485107,-0.251956041,1,0,0,1.7363,Basalt_rect,2,1.736,1,13,0,13,0,1,,,,,,,,,,,,,
637ef4d4e9abb3274bc1c925,SCN,2024-06-26_13h53.26.444,LearnStrategy,2023.2.3,MacIntel,60.24096386,2,1,15,0.272977634,-0.415950453,1,0,0,3.8758,Obsidian_05,5,05,1,6,3.876,0.41336697,-0.244426066,1,0,0,1.5048,Gabbro_rect,4,1.505,0,14,0,14,0,1,,,,,,,,,,,,,
637ef4d4e9abb3274bc1c925,SCN,2024-06-26_13h53.26.444,LearnStrategy,2023.2.3,MacIntel,60.24096386,2,1,16,-0.232113546,-0.415918308,1,0,0,5.6138,Pumice_08,8,08,1,3,5.614,-0.094222276,-0.25337321,1,0,0,1.8273,Basalt_rect,2,1.827,0,15,0,15,0,1,,,,,,,,,,,,,
637ef4d4e9abb3274bc1c925,SCN,2024-06-26_13h53.26.444,LearnStrategy,2023.2.3,MacIntel,60.24096386,2,2,1,,,,,,,,1,02,,,,,,,,,,,4,3.354,0,,,,,,0.352295871,-0.236294149,1,0,0,3.3542,Gabbro_rect,0,0,0,0,1,
637ef4d4e9abb3274bc1c925,SCN,2024-06-26_13h53.26.444,LearnStrategy,2023.2.3,MacIntel,60.24096386,2,2,2,,,,,,,,8,15,,,,,,,,,,,8,3.874,1,,,,,,0.345941976,-0.406541816,1,0,0,3.8737,Pumice_rect,1,0,1,0,1,
637ef4d4e9abb3274bc1c925,SCN,2024-06-26_13h53.26.444,LearnStrategy,2023.2.3,MacIntel,60.24096386,2,2,3,,,,,,,,7,14,,,,,,,,,,,2,4.456,0,,,,,,-0.159710693,-0.23983473,1,0,0,4.4563,Basalt_rect,2,0,2,0,1,
637ef4d4e9abb3274bc1c925,SCN,2024-06-26_13h53.26.444,LearnStrategy,2023.2.3,MacIntel,60.24096386,2,2,4,,,,,,,,8,03,,,,,,,,,,,8,4.355,1,,,,,,0.351239149,-0.415491469,1,0,0,4.3546,Pumice_rect,3,0,3,0,1,
637ef4d4e9abb3274bc1c925,SCN,2024-06-26_13h53.26.444,LearnStrategy,2023.2.3,MacIntel,60.24096386,2,2,5,,,,,,,,4,15,,,,,,,,,,,5,3.048,0,,,,,,-0.329397481,-0.397293226,1,0,0,3.0482,Obsidian_rect,4,0,4,0,1,
637ef4d4e9abb3274bc1c925,SCN,2024-06-26_13h53.26.444,LearnStrategy,2023.2.3,MacIntel,60.24096386,2,2,6,,,,,,,,1,01,,,,,,,,,,,6,3.222,0,,,,,,-0.080162625,-0.39975274,1,0,0,3.2223,Pegmatite_rect,5,0,5,0,1,
637ef4d4e9abb3274bc1c925,SCN,2024-06-26_13h53.26.444,LearnStrategy,2023.2.3,MacIntel,60.24096386,2,2,7,,,,,,,,2,01,,,,,,,,,,,7,1.541,0,,,,,,0.164989285,-0.411124674,1,0,0,1.5411,Peridotite_rect,6,0,6,0,1,
637ef4d4e9abb3274bc1c925,SCN,2024-06-26_13h53.26.444,LearnStrategy,2023.2.3,MacIntel,60.24096386,2,2,8,,,,,,,,6,07,,,,,,,,,,,1,3.086,0,,,,,,-0.350495131,-0.253960029,1,0,0,3.0861,Andesite_rect,7,0,7,0,1,
637ef4d4e9abb3274bc1c925,SCN,2024-06-26_13h53.26.444,LearnStrategy,2023.2.3,MacIntel,60.24096386,2,2,9,,,,,,,,5,14,,,,,,,,,,,5,2.47,1,,,,,,-0.357905172,-0.405084229,1,0,0,2.4699,Obsidian_rect,8,0,8,0,1,
637ef4d4e9abb3274bc1c925,SCN,2024-06-26_13h53.26.444,LearnStrategy,2023.2.3,MacIntel,60.24096386,2,2,10,,,,,,,,4,13,,,,,,,,,,,3,1.761,0,,,,,,0.168324178,-0.256623806,1,0,0,1.7611,Diorite_rect,9,0,9,0,1,
637ef4d4e9abb3274bc1c925,SCN,2024-06-26_13h53.26.444,LearnStrategy,2023.2.3,MacIntel,60.24096386,2,2,11,,,,,,,,5,06,,,,,,,,,,,5,2.486,1,,,,,,-0.42270067,-0.399745619,1,0,0,2.4859,Obsidian_rect,10,0,10,0,1,
637ef4d4e9abb3274bc1c925,SCN,2024-06-26_13h53.26.444,LearnStrategy,2023.2.3,MacIntel,60.24096386,2,2,12,,,,,,,,2,04,,,,,,,,,,,6,2.201,0,,,,,,-0.058234592,-0.401433987,1,0,0,2.2014,Pegmatite_rect,11,0,11,0,1,
637ef4d4e9abb3274bc1c925,SCN,2024-06-26_13h53.26.444,LearnStrategy,2023.2.3,MacIntel,60.24096386,2,2,13,,,,,,,,3,08,,,,,,,,,,,3,5.131,1,,,,,,0.11125312,-0.250726725,1,0,0,5.1308,Diorite_rect,12,0,12,0,1,
637ef4d4e9abb3274bc1c925,SCN,2024-06-26_13h53.26.444,LearnStrategy,2023.2.3,MacIntel,60.24096386,2,2,14,,,,,,,,3,16,,,,,,,,,,,1,3.746,0,,,,,,-0.391060248,-0.241074897,1,0,0,3.7462,Andesite_rect,13,0,13,0,1,
637ef4d4e9abb3274bc1c925,SCN,2024-06-26_13h53.26.444,LearnStrategy,2023.2.3,MacIntel,60.24096386,2,2,15,,,,,,,,7,13,,,,,,,,,,,7,1.969,1,,,,,,0.055989176,-0.397677951,1,0,0,1.9688,Peridotite_rect,14,0,14,0,1,
637ef4d4e9abb3274bc1c925,SCN,2024-06-26_13h53.26.444,LearnStrategy,2023.2.3,MacIntel,60.24096386,2,2,16,,,,,,,,6,15,,,,,,,,,,,5,9.66,0,,,,,,-0.357313504,-0.400511678,1,0,0,9.6603,Obsidian_rect,15,0,15,0,1,
637ef4d4e9abb3274bc1c925,SCN,2024-06-26_13h53.26.444,LearnStrategy,2023.2.3,MacIntel,60.24096386,3,1,1,-0.063729451,-0.133104655,1,0,0,1.701,Gabbro_16,4,16,3,4,1.701,-0.120728556,-0.26300137,1,0,0,1.2252,Basalt_rect,2,1.225,0,0,0,0,0,1,,,,,,,,,,,,,
637ef4d4e9abb3274bc1c925,SCN,2024-06-26_13h53.26.444,LearnStrategy,2023.2.3,MacIntel,60.24096386,3,1,2,0.214279446,0.113565335,1,0,0,2.8042,Diorite_10,3,10,4,6,2.804,0.073770006,-0.399074164,1,0,0,1.7046,Peridotite_rect,7,1.705,0,1,0,1,0,1,,,,,,,,,,,,,
637ef4d4e9abb3274bc1c925,SCN,2024-06-26_13h53.26.444,LearnStrategy,2023.2.3,MacIntel,60.24096386,3,1,3,-0.11270284,-0.385512221,1,0,0,3.2736,Pumice_16,8,16,1,4,3.274,0.355120443,-0.413525323,1,0,0,1.8401,Pumice_rect,8,1.84,1,2,0,2,0,1,,,,,,,,,,,,,
637ef4d4e9abb3274bc1c925,SCN,2024-06-26_13h53.26.444,LearnStrategy,2023.2.3,MacIntel,60.24096386,3,1,4,-0.542618493,-0.135148248,1,0,0,2.7566,Andesite_14,1,14,3,1,2.757,0.068967963,-0.25861301,1,0,0,2.5934,Diorite_rect,3,2.593,0,3,0,3,0,1,,,,,,,,,,,,,
637ef4d4e9abb3274bc1c925,SCN,2024-06-26_13h53.26.444,LearnStrategy,2023.2.3,MacIntel,60.24096386,3,1,5,0.368475613,0.362362315,1,0,0,5.7291,Diorite_06,3,06,6,7,5.729,-0.070977987,-0.252308824,1,0,0,1.5399,Basalt_rect,2,1.54,0,4,0,4,0,1,,,,,,,,,,,,,
637ef4d4e9abb3274bc1c925,SCN,2024-06-26_13h53.26.444,LearnStrategy,2023.2.3,MacIntel,60.24096386,3,1,6,0.101661987,-0.279842665,1,0,0,5.2964,Gabbro_05,4,05,2,5,5.296,-0.111678602,-0.251148343,1,0,0,1.896,Basalt_rect,2,1.896,0,5,0,5,0,1,,,,,,,,,,,,,
637ef4d4e9abb3274bc1c925,SCN,2024-06-26_13h53.26.444,LearnStrategy,2023.2.3,MacIntel,60.24096386,3,1,7,-0.224954224,-0.418800863,1,0,0,3.5582,Pumice_08,8,08,1,3,3.558,0.39432997,-0.404528198,1,0,0,2.0697,Pumice_rect,8,2.07,1,6,0,6,0,1,,,,,,,,,,,,,
637ef4d4e9abb3274bc1c925,SCN,2024-06-26_13h53.26.444,LearnStrategy,2023.2.3,MacIntel,60.24096386,3,1,8,-0.514181722,-0.426960246,1,0,0,3.7092,Basalt_16,2,16,1,1,3.709,-0.356918335,-0.257622477,1,0,0,2.2232,Andesite_rect,1,2.223,0,7,0,7,0,1,,,,,,,,,,,,,
637ef4d4e9abb3274bc1c925,SCN,2024-06-26_13h53.26.444,LearnStrategy,2023.2.3,MacIntel,60.24096386,3,1,9,0.047399292,-0.415535211,1,0,0,3.164,Basalt_06,2,06,1,5,3.164,-0.079877523,-0.388017985,1,0,0,2.2176,Pegmatite_rect,6,2.218,0,8,0,8,0,1,,,,,,,,,,,,,
637ef4d4e9abb3274bc1c925,SCN,2024-06-26_13h53.26.444,LearnStrategy,2023.2.3,MacIntel,60.24096386,3,1,10,0.24567098,0.111989543,1,0,0,9.6075,Diorite_10,3,10,4,6,9.607,0.07455641,-0.265210368,1,0,0,1.9452,Diorite_rect,3,1.945,1,9,0,9,0,1,,,,,,,,,,,,,
637ef4d4e9abb3274bc1c925,SCN,2024-06-26_13h53.26.444,LearnStrategy,2023.2.3,MacIntel,60.24096386,3,1,11,0.567583143,0.089473402,1,0,0,3.2076,Diorite_13,3,13,4,8,3.208,-0.112945489,-0.241597222,1,0,0,1.9864,Basalt_rect,2,1.986,0,10,0,10,0,1,,,,,,,,,,,,,
637ef4d4e9abb3274bc1c925,SCN,2024-06-26_13h53.26.444,LearnStrategy,2023.2.3,MacIntel,60.24096386,3,1,12,0.270099759,0.408801236,1,0,0,6.7829,Obsidian_07,5,07,6,6,6.783,-0.361010946,-0.412786594,1,0,0,1.5579,Obsidian_rect,5,1.558,1,11,0,11,0,1,,,,,,,,,,,,,
637ef4d4e9abb3274bc1c925,SCN,2024-06-26_13h53.26.444,LearnStrategy,2023.2.3,MacIntel,60.24096386,3,1,13,0.102486708,0.251766815,1,0,0,2.2547,Pegmatite_08,6,08,5,5,2.255,-0.111333686,-0.258437161,1,0,0,1.8044,Basalt_rect,2,1.804,0,12,0,12,0,1,,,,,,,,,,,,,
637ef4d4e9abb3274bc1c925,SCN,2024-06-26_13h53.26.444,LearnStrategy,2023.2.3,MacIntel,60.24096386,3,1,14,0.272898831,0.232155423,1,0,0,3.5569,Peridotite_04,7,04,5,6,3.557,0.140614353,-0.265531955,1,0,0,1.6776,Diorite_rect,3,1.678,0,13,0,13,0,1,,,,,,,,,,,,,
637ef4d4e9abb3274bc1c925,SCN,2024-06-26_13h53.26.444,LearnStrategy,2023.2.3,MacIntel,60.24096386,3,1,15,-0.052096083,-0.241047228,1,0,0,5.764,Basalt_11,2,11,2,4,5.764,0.317872043,-0.392010566,1,0,0,3.0189,Pumice_rect,8,3.019,0,14,0,14,0,1,,,,,,,,,,,,,
637ef4d4e9abb3274bc1c925,SCN,2024-06-26_13h53.26.444,LearnStrategy,2023.2.3,MacIntel,60.24096386,3,1,16,-0.254954325,-0.235353326,1,0,0,2.5553,Gabbro_09,4,09,2,3,2.555,-0.357894999,-0.24961636,1,0,0,2.8758,Andesite_rect,1,2.876,0,15,0,15,0,1,,,,,,,,,,,,,
637ef4d4e9abb3274bc1c925,SCN,2024-06-26_13h53.26.444,LearnStrategy,2023.2.3,MacIntel,60.24096386,3,2,1,,,,,,,,8,10,,,,,,,,,,,8,4.071,1,,,,,,0.397851834,-0.400917901,1,0,0,4.0712,Pumice_rect,0,0,0,0,1,
637ef4d4e9abb3274bc1c925,SCN,2024-06-26_13h53.26.444,LearnStrategy,2023.2.3,MacIntel,60.24096386,3,2,2,,,,,,,,5,08,,,,,,,,,,,5,1.482,1,,,,,,-0.387468804,-0.394139472,1,0,0,1.4815,Obsidian_rect,1,0,1,0,1,
637ef4d4e9abb3274bc1c925,SCN,2024-06-26_13h53.26.444,LearnStrategy,2023.2.3,MacIntel,60.24096386,3,2,3,,,,,,,,6,12,,,,,,,,,,,2,6.094,0,,,,,,-0.215367228,-0.250255669,1,0,0,6.0939,Basalt_rect,2,0,2,0,1,
637ef4d4e9abb3274bc1c925,SCN,2024-06-26_13h53.26.444,LearnStrategy,2023.2.3,MacIntel,60.24096386,3,2,4,,,,,,,,6,03,,,,,,,,,,,1,2.304,0,,,,,,-0.412314555,-0.251145359,1,0,0,2.3039,Andesite_rect,3,0,3,0,1,
637ef4d4e9abb3274bc1c925,SCN,2024-06-26_13h53.26.444,LearnStrategy,2023.2.3,MacIntel,60.24096386,3,2,5,,,,,,,,8,13,,,,,,,,,,,7,3.142,0,,,,,,0.152857802,-0.406395535,1,0,0,3.142,Peridotite_rect,4,0,4,0,1,
637ef4d4e9abb3274bc1c925,SCN,2024-06-26_13h53.26.444,LearnStrategy,2023.2.3,MacIntel,60.24096386,3,2,6,,,,,,,,4,01,,,,,,,,,,,4,4.164,1,,,,,,0.350418159,-0.252818604,1,0,0,4.1638,Gabbro_rect,5,0,5,0,1,
637ef4d4e9abb3274bc1c925,SCN,2024-06-26_13h53.26.444,LearnStrategy,2023.2.3,MacIntel,60.24096386,3,2,7,,,,,,,,7,12,,,,,,,,,,,5,2.348,0,,,,,,-0.367414551,-0.388439738,1,0,0,2.3483,Obsidian_rect,6,0,6,0,1,
637ef4d4e9abb3274bc1c925,SCN,2024-06-26_13h53.26.444,LearnStrategy,2023.2.3,MacIntel,60.24096386,3,2,8,,,,,,,,1,06,,,,,,,,,,,2,1.631,0,,,,,,-0.095666368,-0.261326769,1,0,0,1.6315,Basalt_rect,7,0,7,0,1,
637ef4d4e9abb3274bc1c925,SCN,2024-06-26_13h53.26.444,LearnStrategy,2023.2.3,MacIntel,60.24096386,3,2,9,,,,,,,,2,14,,,,,,,,,,,7,2.202,0,,,,,,0.212537028,-0.405880669,1,0,0,2.2017,Peridotite_rect,8,0,8,0,1,
637ef4d4e9abb3274bc1c925,SCN,2024-06-26_13h53.26.444,LearnStrategy,2023.2.3,MacIntel,60.24096386,3,2,10,,,,,,,,4,08,,,,,,,,,,,6,2.649,0,,,,,,-0.069281752,-0.397116564,1,0,0,2.6485,Pegmatite_rect,9,0,9,0,1,
637ef4d4e9abb3274bc1c925,SCN,2024-06-26_13h53.26.444,LearnStrategy,2023.2.3,MacIntel,60.24096386,3,2,11,,,,,,,,1,05,,,,,,,,,,,1,2.602,1,,,,,,-0.398525696,-0.249706963,1,0,0,2.6018,Andesite_rect,10,0,10,0,1,
637ef4d4e9abb3274bc1c925,SCN,2024-06-26_13h53.26.444,LearnStrategy,2023.2.3,MacIntel,60.24096386,3,2,12,,,,,,,,5,09,,,,,,,,,,,5,1.311,1,,,,,,-0.385778775,-0.392206217,1,0,0,1.3109,Obsidian_rect,11,0,11,0,1,
637ef4d4e9abb3274bc1c925,SCN,2024-06-26_13h53.26.444,LearnStrategy,2023.2.3,MacIntel,60.24096386,3,2,13,,,,,,,,7,15,,,,,,,,,,,5,2.935,0,,,,,,-0.392162509,-0.386043294,1,0,0,2.9349,Obsidian_rect,12,0,12,0,1,
637ef4d4e9abb3274bc1c925,SCN,2024-06-26_13h53.26.444,LearnStrategy,2023.2.3,MacIntel,60.24096386,3,2,14,,,,,,,,3,15,,,,,,,,,,,4,2.845,0,,,,,,0.364289415,-0.264872097,1,0,0,2.8447,Gabbro_rect,13,0,13,0,1,
637ef4d4e9abb3274bc1c925,SCN,2024-06-26_13h53.26.444,LearnStrategy,2023.2.3,MacIntel,60.24096386,3,2,15,,,,,,,,2,09,,,,,,,,,,,1,2.776,0,,,,,,-0.341051737,-0.261221924,1,0,0,2.7764,Andesite_rect,14,0,14,0,1,
637ef4d4e9abb3274bc1c925,SCN,2024-06-26_13h53.26.444,LearnStrategy,2023.2.3,MacIntel,60.24096386,3,2,16,,,,,,,,3,11,,,,,,,,,,,8,2.794,0,,,,,,0.318234863,-0.41853814,1,0,0,2.7944,Pumice_rect,15,0,15,0,1,
637ef4d4e9abb3274bc1c925,SCN,2024-06-26_13h53.26.444,LearnStrategy,2023.2.3,MacIntel,60.24096386,4,1,1,-0.536156633,0.397310469,1,0,0,4.61,Diorite_07,3,07,6,1,4.61,-0.336631843,-0.241972928,1,0,0,1.5274,Andesite_rect,1,1.527,0,0,0,0,0,1,,,,,,,,,,,,,
637ef4d4e9abb3274bc1c925,SCN,2024-06-26_13h53.26.444,LearnStrategy,2023.2.3,MacIntel,60.24096386,4,1,2,-0.361169603,0.403358629,1,0,0,1.7698,Andesite_09,1,09,6,2,1.77,0.040895114,-0.251285943,1,0,0,2.8512,Diorite_rect,3,2.851,0,1,0,1,0,1,,,,,,,,,,,,,
637ef4d4e9abb3274bc1c925,SCN,2024-06-26_13h53.26.444,LearnStrategy,2023.2.3,MacIntel,60.24096386,4,1,3,-0.203049655,0.422345072,1,0,0,2.1217,Obsidian_16,5,16,6,3,2.122,-0.419467672,-0.401778293,1,0,0,1.5336,Obsidian_rect,5,1.534,1,2,0,2,0,1,,,,,,,,,,,,,
637ef4d4e9abb3274bc1c925,SCN,2024-06-26_13h53.26.444,LearnStrategy,2023.2.3,MacIntel,60.24096386,4,1,4,-0.072085097,0.432129228,1,0,0,1.1526,Basalt_10,2,10,6,4,1.153,0.099686347,-0.255260688,1,0,0,3.7724,Diorite_rect,3,3.772,0,3,0,3,0,1,,,,,,,,,,,,,
637ef4d4e9abb3274bc1c925,SCN,2024-06-26_13h53.26.444,LearnStrategy,2023.2.3,MacIntel,60.24096386,4,1,5,0.400044081,0.426752675,1,0,0,3.5408,Diorite_06,3,06,6,7,3.541,-0.387858378,-0.254896783,1,0,0,2.0299,Andesite_rect,1,2.03,0,4,0,4,0,1,,,,,,,,,,,,,
637ef4d4e9abb3274bc1c925,SCN,2024-06-26_13h53.26.444,LearnStrategy,2023.2.3,MacIntel,60.24096386,4,1,6,0.518700358,0.389588725,1,0,0,2.2382,Pumice_02,8,02,6,8,2.238,0.366691623,-0.381649645,1,0,0,1.4027,Pumice_rect,8,1.403,1,5,0,5,0,1,,,,,,,,,,,,,
637ef4d4e9abb3274bc1c925,SCN,2024-06-26_13h53.26.444,LearnStrategy,2023.2.3,MacIntel,60.24096386,4,1,7,-0.554192878,0.261904195,1,0,0,2.1707,Pegmatite_05,6,05,5,1,2.171,-0.145293172,-0.239863349,1,0,0,3.8385,Basalt_rect,2,3.838,0,6,0,6,0,1,,,,,,,,,,,,,
637ef4d4e9abb3274bc1c925,SCN,2024-06-26_13h53.26.444,LearnStrategy,2023.2.3,MacIntel,60.24096386,4,1,8,-0.396934679,0.24020479,1,0,0,1.4009,Diorite_14,3,14,5,2,1.401,0.113485989,-0.415520359,1,0,0,2.8402,Peridotite_rect,7,2.84,0,7,0,7,0,1,,,,,,,,,,,,,
637ef4d4e9abb3274bc1c925,SCN,2024-06-26_13h53.26.444,LearnStrategy,2023.2.3,MacIntel,60.24096386,4,1,9,-0.208684082,0.231463318,1,0,0,2.0041,Pegmatite_16,6,16,5,3,2.004,-0.127385661,-0.397002224,1,0,0,2.9252,Pegmatite_rect,6,2.925,1,8,0,8,0,1,,,,,,,,,,,,,
637ef4d4e9abb3274bc1c925,SCN,2024-06-26_13h53.26.444,LearnStrategy,2023.2.3,MacIntel,60.24096386,4,1,10,-0.070077718,0.269057312,1,0,0,1.5855,Pegmatite_11,6,11,5,4,1.585,0.091925456,-0.247394748,1,0,0,3.3537,Diorite_rect,3,3.354,0,9,0,9,0,1,,,,,,,,,,,,,
637ef4d4e9abb3274bc1c925,SCN,2024-06-26_13h53.26.444,LearnStrategy,2023.2.3,MacIntel,60.24096386,4,1,11,0.246338569,0.273110199,1,0,0,2.2871,Peridotite_04,7,04,5,6,2.287,-0.10779758,-0.237484199,1,0,0,2.3345,Basalt_rect,2,2.334,0,10,0,10,0,1,,,,,,,,,,,,,
637ef4d4e9abb3274bc1c925,SCN,2024-06-26_13h53.26.444,LearnStrategy,2023.2.3,MacIntel,60.24096386,4,1,12,0.397658827,0.273813867,1,0,0,1.6855,Peridotite_08,7,08,5,7,1.686,0.325621134,-0.263294203,1,0,0,3.0511,Gabbro_rect,4,3.051,0,11,0,11,0,1,,,,,,,,,,,,,
637ef4d4e9abb3274bc1c925,SCN,2024-06-26_13h53.26.444,LearnStrategy,2023.2.3,MacIntel,60.24096386,4,1,13,0.532416992,0.246065589,1,0,0,1.6059,Pumice_14,8,14,5,8,1.606,0.384503174,-0.412360704,1,0,0,1.1257,Pumice_rect,8,1.126,1,12,0,12,0,1,,,,,,,,,,,,,
637ef4d4e9abb3274bc1c925,SCN,2024-06-26_13h53.26.444,LearnStrategy,2023.2.3,MacIntel,60.24096386,4,1,14,-0.553951111,-0.074617174,1,0,0,1.9186,Andesite_14,1,14,3,1,1.919,0.088606364,-0.385407172,1,0,0,3.9934,Peridotite_rect,7,3.993,0,13,0,13,0,1,,,,,,,,,,,,,
637ef4d4e9abb3274bc1c925,SCN,2024-06-26_13h53.26.444,LearnStrategy,2023.2.3,MacIntel,60.24096386,4,1,15,-0.37228163,-0.101468777,1,0,0,3.2382,Gabbro_14,4,14,3,2,3.238,-0.367226563,-0.268080173,1,0,0,1.3514,Andesite_rect,1,1.351,0,14,0,14,0,1,,,,,,,,,,,,,
637ef4d4e9abb3274bc1c925,SCN,2024-06-26_13h53.26.444,LearnStrategy,2023.2.3,MacIntel,60.24096386,4,1,16,-0.194864366,-0.1138522,1,0,0,2.5889,Basalt_05,2,05,3,3,2.589,0.092147692,-0.244224311,1,0,0,2.1536,Diorite_rect,3,2.154,0,15,0,15,0,1,,,,,,,,,,,,,
637ef4d4e9abb3274bc1c925,SCN,2024-06-26_13h53.26.444,LearnStrategy,2023.2.3,MacIntel,60.24096386,4,2,1,,,,,,,,1,10,,,,,,,,,,,8,5.066,0,,,,,,0.356684163,-0.414777018,1,0,0,5.0656,Pumice_rect,0,0,0,0,1,
637ef4d4e9abb3274bc1c925,SCN,2024-06-26_13h53.26.444,LearnStrategy,2023.2.3,MacIntel,60.24096386,4,2,2,,,,,,,,5,08,,,,,,,,,,,5,1.788,1,,,,,,-0.347379489,-0.383997192,1,0,0,1.7878,Obsidian_rect,1,0,1,0,1,
637ef4d4e9abb3274bc1c925,SCN,2024-06-26_13h53.26.444,LearnStrategy,2023.2.3,MacIntel,60.24096386,4,2,3,,,,,,,,2,12,,,,,,,,,,,8,1.767,0,,,,,,0.373528375,-0.413135851,1,0,0,1.7669,Pumice_rect,2,0,2,0,1,
637ef4d4e9abb3274bc1c925,SCN,2024-06-26_13h53.26.444,LearnStrategy,2023.2.3,MacIntel,60.24096386,4,2,4,,,,,,,,2,01,,,,,,,,,,,2,2.248,1,,,,,,-0.189742906,-0.251975505,1,0,0,2.2481,Basalt_rect,3,0,3,0,1,
637ef4d4e9abb3274bc1c925,SCN,2024-06-26_13h53.26.444,LearnStrategy,2023.2.3,MacIntel,60.24096386,4,2,5,,,,,,,,3,09,,,,,,,,,,,6,3.485,0,,,,,,-0.074004991,-0.400282525,1,0,0,3.4846,Pegmatite_rect,4,0,4,0,1,
637ef4d4e9abb3274bc1c925,SCN,2024-06-26_13h53.26.444,LearnStrategy,2023.2.3,MacIntel,60.24096386,4,2,6,,,,,,,,8,13,,,,,,,,,,,3,5.699,0,,,,,,0.086662733,-0.257088487,1,0,0,5.6994,Diorite_rect,5,0,5,0,1,
637ef4d4e9abb3274bc1c925,SCN,2024-06-26_13h53.26.444,LearnStrategy,2023.2.3,MacIntel,60.24096386,4,2,7,,,,,,,,3,16,,,,,,,,,,,2,2.731,0,,,,,,-0.178614909,-0.235921495,1,0,0,2.7312,Basalt_rect,6,0,6,0,1,
637ef4d4e9abb3274bc1c925,SCN,2024-06-26_13h53.26.444,LearnStrategy,2023.2.3,MacIntel,60.24096386,4,2,8,,,,,,,,6,12,,,,,,,,,,,2,2.793,0,,,,,,-0.073368123,-0.249235704,1,0,0,2.7925,Basalt_rect,7,0,7,0,1,
637ef4d4e9abb3274bc1c925,SCN,2024-06-26_13h53.26.444,LearnStrategy,2023.2.3,MacIntel,60.24096386,4,2,9,,,,,,,,1,03,,,,,,,,,,,7,1.37,0,,,,,,0.130559353,-0.410578749,1,0,0,1.3696,Peridotite_rect,8,0,8,0,1,
637ef4d4e9abb3274bc1c925,SCN,2024-06-26_13h53.26.444,LearnStrategy,2023.2.3,MacIntel,60.24096386,4,2,10,,,,,,,,7,10,,,,,,,,,,,6,2.653,0,,,,,,-0.164107598,-0.400657959,1,0,0,2.6528,Pegmatite_rect,9,0,9,0,1,
637ef4d4e9abb3274bc1c925,SCN,2024-06-26_13h53.26.444,LearnStrategy,2023.2.3,MacIntel,60.24096386,4,2,11,,,,,,,,4,12,,,,,,,,,,,4,3.234,1,,,,,,0.384725342,-0.260697021,1,0,0,3.2335,Gabbro_rect,10,0,10,0,1,
637ef4d4e9abb3274bc1c925,SCN,2024-06-26_13h53.26.444,LearnStrategy,2023.2.3,MacIntel,60.24096386,4,2,12,,,,,,,,7,07,,,,,,,,,,,3,5.152,0,,,,,,0.137598063,-0.232740139,1,0,0,5.1516,Diorite_rect,11,0,11,0,1,
637ef4d4e9abb3274bc1c925,SCN,2024-06-26_13h53.26.444,LearnStrategy,2023.2.3,MacIntel,60.24096386,4,2,13,,,,,,,,4,10,,,,,,,,,,,6,3.989,0,,,,,,-0.095283678,-0.392492608,1,0,0,3.9895,Pegmatite_rect,12,0,12,0,1,
637ef4d4e9abb3274bc1c925,SCN,2024-06-26_13h53.26.444,LearnStrategy,2023.2.3,MacIntel,60.24096386,4,2,14,,,,,,,,8,03,,,,,,,,,,,7,3.665,0,,,,,,0.19459432,-0.392477485,1,0,0,3.6653,Peridotite_rect,13,0,13,0,1,
637ef4d4e9abb3274bc1c925,SCN,2024-06-26_13h53.26.444,LearnStrategy,2023.2.3,MacIntel,60.24096386,4,2,15,,,,,,,,5,06,,,,,,,,,,,5,1.304,1,,,,,,-0.426979709,-0.416326972,1,0,0,1.3036,Obsidian_rect,14,0,14,0,1,
637ef4d4e9abb3274bc1c925,SCN,2024-06-26_13h53.26.444,LearnStrategy,2023.2.3,MacIntel,60.24096386,4,2,16,,,,,,,,6,03,,,,,,,,,,,1,2.37,0,,,,,,-0.440692783,-0.2612441,1,0,0,2.3699,Andesite_rect,15,0,15,0,1,
637ef4d4e9abb3274bc1c925,SCN,2024-06-26_13h53.26.444,LearnStrategy,2023.2.3,MacIntel,60.24096386,5,1,1,-0.557037218,-0.414857449,1,0,0,2.4364,Basalt_16,2,16,1,1,2.436,-0.370375705,-0.251470337,1,0,0,1.9915,Andesite_rect,1,1.992,0,0,0,0,0,1,,,,,,,,,,,,,
637ef4d4e9abb3274bc1c925,SCN,2024-06-26_13h53.26.444,LearnStrategy,2023.2.3,MacIntel,60.24096386,5,1,2,-0.388527527,-0.408204617,1,0,0,1.034,Obsidian_02,5,02,1,2,1.034,-0.390053575,-0.421092055,1,0,0,1.7339,Obsidian_rect,5,1.734,1,1,0,1,0,1,,,,,,,,,,,,,
637ef4d4e9abb3274bc1c925,SCN,2024-06-26_13h53.26.444,LearnStrategy,2023.2.3,MacIntel,60.24096386,5,1,3,-0.24048489,-0.407970174,1,0,0,1.0325,Pumice_08,8,08,1,3,1.033,0.303903944,-0.394344889,1,0,0,1.5022,Pumice_rect,8,1.502,1,2,0,2,0,1,,,,,,,,,,,,,
637ef4d4e9abb3274bc1c925,SCN,2024-06-26_13h53.26.444,LearnStrategy,2023.2.3,MacIntel,60.24096386,5,1,4,-0.110800985,-0.418644884,1,0,0,1.3184,Pumice_16,8,16,1,4,1.318,0.383517117,-0.410379096,1,0,0,1.7887,Pumice_rect,8,1.789,1,3,0,3,0,1,,,,,,,,,,,,,
637ef4d4e9abb3274bc1c925,SCN,2024-06-26_13h53.26.444,LearnStrategy,2023.2.3,MacIntel,60.24096386,5,1,5,0.077408515,-0.410115356,1,0,0,2.0713,Basalt_06,2,06,1,5,2.071,-0.177788357,-0.24840583,1,0,0,1.4844,Basalt_rect,2,1.484,1,4,0,4,0,1,,,,,,,,,,,,,
637ef4d4e9abb3274bc1c925,SCN,2024-06-26_13h53.26.444,LearnStrategy,2023.2.3,MacIntel,60.24096386,5,1,6,0.231311035,-0.37175944,1,0,0,1.7872,Obsidian_05,5,05,1,6,1.787,-0.330108541,-0.401285943,1,0,0,1.9195,Obsidian_rect,5,1.919,1,5,0,5,0,1,,,,,,,,,,,,,
637ef4d4e9abb3274bc1c925,SCN,2024-06-26_13h53.26.444,LearnStrategy,2023.2.3,MacIntel,60.24096386,5,1,7,0.37928399,-0.406086765,1,0,0,1.3361,Peridotite_05,7,05,1,7,1.336,0.054102987,-0.250791558,1,0,0,2.6621,Diorite_rect,3,2.662,0,6,0,6,0,1,,,,,,,,,,,,,
637ef4d4e9abb3274bc1c925,SCN,2024-06-26_13h53.26.444,LearnStrategy,2023.2.3,MacIntel,60.24096386,5,1,8,0.577862956,-0.446704237,1,0,0,1.4853,Pegmatite_06,6,06,1,8,1.485,0.188314412,-0.40958842,1,0,0,2.0842,Peridotite_rect,7,2.084,0,7,0,7,0,1,,,,,,,,,,,,,
637ef4d4e9abb3274bc1c925,SCN,2024-06-26_13h53.26.444,LearnStrategy,2023.2.3,MacIntel,60.24096386,5,1,9,0.074325968,-0.268103299,1,0,0,11.1586,Gabbro_05,4,05,2,5,11.159,-0.123045722,-0.248656955,1,0,0,1.4704,Basalt_rect,2,1.47,0,8,0,8,0,1,,,,,,,,,,,,,
637ef4d4e9abb3274bc1c925,SCN,2024-06-26_13h53.26.444,LearnStrategy,2023.2.3,MacIntel,60.24096386,5,1,10,0.247059801,-0.238661499,1,0,0,1.9208,Peridotite_02,7,02,2,6,1.921,0.090433078,-0.388165487,1,0,0,1.2824,Peridotite_rect,7,1.282,1,9,0,9,0,1,,,,,,,,,,,,,
637ef4d4e9abb3274bc1c925,SCN,2024-06-26_13h53.26.444,LearnStrategy,2023.2.3,MacIntel,60.24096386,5,1,11,0.37455051,-0.119141439,1,0,0,3.8437,Andesite_16,1,16,3,7,3.844,-0.090823703,-0.419891154,1,0,0,2.0284,Pegmatite_rect,6,2.028,0,10,0,10,0,1,,,,,,,,,,,,,
637ef4d4e9abb3274bc1c925,SCN,2024-06-26_13h53.26.444,LearnStrategy,2023.2.3,MacIntel,60.24096386,5,1,12,0.513203668,0.124764201,1,0,0,4.712,Diorite_13,3,13,4,8,4.712,0.064639689,-0.22961202,1,0,0,2.0937,Diorite_rect,3,2.094,1,11,0,11,0,1,,,,,,,,,,,,,
637ef4d4e9abb3274bc1c925,SCN,2024-06-26_13h53.26.444,LearnStrategy,2023.2.3,MacIntel,60.24096386,5,1,13,-0.388299561,0.083512132,1,0,0,12.0192,Peridotite_16,7,16,4,2,12.019,0.088043823,-0.416361287,1,0,0,1.9276,Peridotite_rect,7,1.928,1,12,0,12,0,1,,,,,,,,,,,,,
637ef4d4e9abb3274bc1c925,SCN,2024-06-26_13h53.26.444,LearnStrategy,2023.2.3,MacIntel,60.24096386,5,1,14,0.07428026,0.255540788,1,0,0,2.02,Pegmatite_08,6,08,5,5,2.02,-0.190094469,-0.251144816,1,0,0,2.7566,Basalt_rect,2,2.757,0,13,0,13,0,1,,,,,,,,,,,,,
637ef4d4e9abb3274bc1c925,SCN,2024-06-26_13h53.26.444,LearnStrategy,2023.2.3,MacIntel,60.24096386,5,1,15,0.258670044,0.096584846,1,0,0,4.6948,Diorite_10,3,10,4,6,4.695,0.112753635,-0.244762166,1,0,0,1.0123,Diorite_rect,3,1.012,1,14,0,14,0,1,,,,,,,,,,,,,
637ef4d4e9abb3274bc1c925,SCN,2024-06-26_13h53.26.444,LearnStrategy,2023.2.3,MacIntel,60.24096386,5,1,16,0.523546007,0.277272525,1,0,0,2.904,Pumice_14,8,14,5,8,2.904,0.363684896,-0.407606676,1,0,0,1.3197,Pumice_rect,8,1.32,1,15,0,15,0,1,,,,,,,,,,,,,
637ef4d4e9abb3274bc1c925,SCN,2024-06-26_13h53.26.444,LearnStrategy,2023.2.3,MacIntel,60.24096386,5,2,1,,,,,,,,4,08,,,,,,,,,,,3,2.507,0,,,,,,0.061815592,-0.238754205,1,0,0,2.5072,Diorite_rect,0,0,0,0,1,
637ef4d4e9abb3274bc1c925,SCN,2024-06-26_13h53.26.444,LearnStrategy,2023.2.3,MacIntel,60.24096386,5,2,2,,,,,,,,7,13,,,,,,,,,,,6,3.139,0,,,,,,-0.150572917,-0.406540663,1,0,0,3.1394,Pegmatite_rect,1,0,1,0,1,
637ef4d4e9abb3274bc1c925,SCN,2024-06-26_13h53.26.444,LearnStrategy,2023.2.3,MacIntel,60.24096386,5,2,3,,,,,,,,1,06,,,,,,,,,,,7,3.547,0,,,,,,0.181458401,-0.419870809,1,0,0,3.5471,Peridotite_rect,2,0,2,0,1,
637ef4d4e9abb3274bc1c925,SCN,2024-06-26_13h53.26.444,LearnStrategy,2023.2.3,MacIntel,60.24096386,5,2,4,,,,,,,,3,11,,,,,,,,,,,6,3.009,0,,,,,,-0.151597493,-0.412701823,1,0,0,3.009,Pegmatite_rect,3,0,3,0,1,
637ef4d4e9abb3274bc1c925,SCN,2024-06-26_13h53.26.444,LearnStrategy,2023.2.3,MacIntel,60.24096386,5,2,5,,,,,,,,2,02,,,,,,,,,,,1,2.855,0,,,,,,-0.336549208,-0.246439209,1,0,0,2.8547,Andesite_rect,4,0,4,0,1,
637ef4d4e9abb3274bc1c925,SCN,2024-06-26_13h53.26.444,LearnStrategy,2023.2.3,MacIntel,60.24096386,5,2,6,,,,,,,,6,07,,,,,,,,,,,4,4.365,0,,,,,,0.343988308,-0.264164293,1,0,0,4.3648,Gabbro_rect,5,0,5,0,1,
637ef4d4e9abb3274bc1c925,SCN,2024-06-26_13h53.26.444,LearnStrategy,2023.2.3,MacIntel,60.24096386,5,2,7,,,,,,,,8,15,,,,,,,,,,,8,2.671,1,,,,,,0.345736762,-0.406942274,1,0,0,2.6709,Pumice_rect,6,0,6,0,1,
637ef4d4e9abb3274bc1c925,SCN,2024-06-26_13h53.26.444,LearnStrategy,2023.2.3,MacIntel,60.24096386,5,2,8,,,,,,,,4,15,,,,,,,,,,,2,4.564,0,,,,,,-0.152826402,-0.265405545,1,0,0,4.5641,Basalt_rect,7,0,7,0,1,
637ef4d4e9abb3274bc1c925,SCN,2024-06-26_13h53.26.444,LearnStrategy,2023.2.3,MacIntel,60.24096386,5,2,9,,,,,,,,2,14,,,,,,,,,,,4,3.046,0,,,,,,0.291517944,-0.252857463,1,0,0,3.0459,Gabbro_rect,8,0,8,0,1,
637ef4d4e9abb3274bc1c925,SCN,2024-06-26_13h53.26.444,LearnStrategy,2023.2.3,MacIntel,60.24096386,5,2,10,,,,,,,,5,11,,,,,,,,,,,5,3.364,1,,,,,,-0.393426785,-0.416241048,1,0,0,3.3644,Obsidian_rect,9,0,9,0,1,
637ef4d4e9abb3274bc1c925,SCN,2024-06-26_13h53.26.444,LearnStrategy,2023.2.3,MacIntel,60.24096386,5,2,11,,,,,,,,7,12,,,,,,,,,,,6,3.745,0,,,,,,-0.092776625,-0.414365845,1,0,0,3.7447,Pegmatite_rect,10,0,10,0,1,
637ef4d4e9abb3274bc1c925,SCN,2024-06-26_13h53.26.444,LearnStrategy,2023.2.3,MacIntel,60.24096386,5,2,12,,,,,,,,6,13,,,,,,,,,,,3,3.496,0,,,,,,0.084765422,-0.246205241,1,0,0,3.4964,Diorite_rect,11,0,11,0,1,
637ef4d4e9abb3274bc1c925,SCN,2024-06-26_13h53.26.444,LearnStrategy,2023.2.3,MacIntel,60.24096386,5,2,13,,,,,,,,1,01,,,,,,,,,,,1,3.93,1,,,,,,-0.349794786,-0.271095174,1,0,0,3.9298,Andesite_rect,12,0,12,0,1,
637ef4d4e9abb3274bc1c925,SCN,2024-06-26_13h53.26.444,LearnStrategy,2023.2.3,MacIntel,60.24096386,5,2,14,,,,,,,,3,08,,,,,,,,,,,8,1.892,0,,,,,,0.328202243,-0.390396932,1,0,0,1.8924,Pumice_rect,13,0,13,0,1,
637ef4d4e9abb3274bc1c925,SCN,2024-06-26_13h53.26.444,LearnStrategy,2023.2.3,MacIntel,60.24096386,5,2,15,,,,,,,,5,09,,,,,,,,,,,5,1.696,1,,,,,,-0.432534756,-0.406584744,1,0,0,1.6959,Obsidian_rect,14,0,14,0,1,
637ef4d4e9abb3274bc1c925,SCN,2024-06-26_13h53.26.444,LearnStrategy,2023.2.3,MacIntel,60.24096386,5,2,16,,,,,,,,8,04,,,,,,,,,,,7,3.263,0,,,,,,0.136473389,-0.389674683,1,0,0,3.2632,Peridotite_rect,15,0,15,0,1,
637ef4d4e9abb3274bc1c925,SCN,2024-06-26_13h53.26.444,LearnStrategy,2023.2.3,MacIntel,60.24096386,6,1,1,0.068115641,0.09884864,1,0,0,4.761,Andesite_04,1,04,4,5,4.761,0.124423218,-0.246424357,1,0,0,1.5973,Diorite_rect,3,1.597,0,0,0,0,0,1,,,,,,,,,,,,,
637ef4d4e9abb3274bc1c925,SCN,2024-06-26_13h53.26.444,LearnStrategy,2023.2.3,MacIntel,60.24096386,6,1,2,-0.074207289,0.251490614,1,0,0,2.0428,Pegmatite_11,6,11,5,4,2.043,0.075242649,-0.246925795,1,0,0,1.7861,Diorite_rect,3,1.786,0,1,0,1,0,1,,,,,,,,,,,,,
637ef4d4e9abb3274bc1c925,SCN,2024-06-26_13h53.26.444,LearnStrategy,2023.2.3,MacIntel,60.24096386,6,1,3,-0.367119141,0.255643548,1,0,0,8.9379,Diorite_14,3,14,5,2,8.938,0.108529256,-0.399707981,1,0,0,1.2894,Peridotite_rect,7,1.289,0,2,0,2,0,1,,,,,,,,,,,,,
637ef4d4e9abb3274bc1c925,SCN,2024-06-26_13h53.26.444,LearnStrategy,2023.2.3,MacIntel,60.24096386,6,1,4,-0.109630737,0.3908677,1,0,0,7.7513,Basalt_10,2,10,6,4,7.751,-0.364535963,-0.271551107,1,0,0,1.1397,Andesite_rect,1,1.14,0,3,0,3,0,1,,,,,,,,,,,,,
637ef4d4e9abb3274bc1c925,SCN,2024-06-26_13h53.26.444,LearnStrategy,2023.2.3,MacIntel,60.24096386,6,1,5,0.245218777,0.228210347,1,0,0,2.8717,Peridotite_04,7,04,5,6,2.872,0.145714789,-0.250508965,1,0,0,1.1649,Diorite_rect,3,1.165,0,4,0,4,0,1,,,,,,,,,,,,,
637ef4d4e9abb3274bc1c925,SCN,2024-06-26_13h53.26.444,LearnStrategy,2023.2.3,MacIntel,60.24096386,6,1,6,-0.066267022,-0.248962945,1,0,0,4.3933,Basalt_11,2,11,2,4,4.393,0.114936184,-0.236112128,1,0,0,1.4282,Diorite_rect,3,1.428,0,5,0,5,0,1,,,,,,,,,,,,,
637ef4d4e9abb3274bc1c925,SCN,2024-06-26_13h53.26.444,LearnStrategy,2023.2.3,MacIntel,60.24096386,6,1,7,-0.22616177,-0.23519104,1,0,0,1.854,Gabbro_09,4,09,2,3,1.854,-0.148695068,-0.266734009,1,0,0,4.0219,Basalt_rect,2,4.022,0,6,0,6,0,1,,,,,,,,,,,,,
637ef4d4e9abb3274bc1c925,SCN,2024-06-26_13h53.26.444,LearnStrategy,2023.2.3,MacIntel,60.24096386,6,1,8,0.052420654,-0.084450819,1,0,0,1.5361,Basalt_08,2,08,3,5,1.536,-0.344427999,-0.244696927,1,0,0,2.0846,Andesite_rect,1,2.085,0,7,0,7,0,1,,,,,,,,,,,,,
637ef4d4e9abb3274bc1c925,SCN,2024-06-26_13h53.26.444,LearnStrategy,2023.2.3,MacIntel,60.24096386,6,1,9,0.070404392,-0.413580119,1,0,0,2.1212,Basalt_06,2,06,1,5,2.121,-0.302925958,-0.271294691,1,0,0,0.9706,Andesite_rect,1,0.971,0,8,0,8,0,1,,,,,,,,,,,,,
637ef4d4e9abb3274bc1c925,SCN,2024-06-26_13h53.26.444,LearnStrategy,2023.2.3,MacIntel,60.24096386,6,1,10,0.382945421,-0.251334771,1,0,0,2.8897,Pumice_06,8,06,2,7,2.89,0.348792725,-0.386534288,1,0,0,3.0196,Pumice_rect,8,3.02,1,9,0,9,0,1,,,,,,,,,,,,,
637ef4d4e9abb3274bc1c925,SCN,2024-06-26_13h53.26.444,LearnStrategy,2023.2.3,MacIntel,60.24096386,6,1,11,0.07407586,0.083311462,1,0,0,10.0082,Andesite_04,1,04,4,5,10.008,0.108116794,-0.270714586,1,0,0,1.1386,Diorite_rect,3,1.139,0,10,0,10,0,1,,,,,,,,,,,,,
637ef4d4e9abb3274bc1c925,SCN,2024-06-26_13h53.26.444,LearnStrategy,2023.2.3,MacIntel,60.24096386,6,1,12,0.098631931,-0.289863688,1,0,0,5.7477,Gabbro_05,4,05,2,5,5.748,0.096228299,-0.249653931,1,0,0,4.6248,Diorite_rect,3,4.625,0,11,0,11,0,1,,,,,,,,,,,,,
637ef4d4e9abb3274bc1c925,SCN,2024-06-26_13h53.26.444,LearnStrategy,2023.2.3,MacIntel,60.24096386,6,1,13,-0.101088935,-0.396608073,1,0,0,2.7895,Pumice_16,8,16,1,4,2.79,0.391825901,-0.419080811,1,0,0,2.4288,Pumice_rect,8,2.429,1,12,0,12,0,1,,,,,,,,,,,,,
637ef4d4e9abb3274bc1c925,SCN,2024-06-26_13h53.26.444,LearnStrategy,2023.2.3,MacIntel,60.24096386,6,1,14,-0.235404222,0.226748572,1,0,0,7.1023,Pegmatite_16,6,16,5,3,7.102,0.447833794,-0.26943061,1,0,0,4.7692,Gabbro_rect,4,4.769,0,13,0,13,0,1,,,,,,,,,,,,,
637ef4d4e9abb3274bc1c925,SCN,2024-06-26_13h53.26.444,LearnStrategy,2023.2.3,MacIntel,60.24096386,6,1,15,0.098177626,-0.093057048,1,0,0,1.8371,Basalt_08,2,08,3,5,1.837,-0.349598321,-0.254712796,1,0,0,1.0655,Andesite_rect,1,1.066,0,14,0,14,0,1,,,,,,,,,,,,,
637ef4d4e9abb3274bc1c925,SCN,2024-06-26_13h53.26.444,LearnStrategy,2023.2.3,MacIntel,60.24096386,6,1,16,0.233395657,-0.102966376,1,0,0,1.6517,Andesite_11,1,11,3,6,1.652,0.067433404,-0.246313544,1,0,0,1.0505,Diorite_rect,3,1.051,0,15,0,15,0,1,,,,,,,,,,,,,
637ef4d4e9abb3274bc1c925,SCN,2024-06-26_13h53.26.444,LearnStrategy,2023.2.3,MacIntel,60.24096386,6,2,1,,,,,,,,3,15,,,,,,,,,,,7,2.793,0,,,,,,0.133997464,-0.397509359,1,0,0,2.7931,Peridotite_rect,0,0,0,0,1,
637ef4d4e9abb3274bc1c925,SCN,2024-06-26_13h53.26.444,LearnStrategy,2023.2.3,MacIntel,60.24096386,6,2,2,,,,,,,,6,09,,,,,,,,,,,5,3.257,0,,,,,,-0.379636434,-0.410819567,1,0,0,3.2568,Obsidian_rect,1,0,1,0,1,
637ef4d4e9abb3274bc1c925,SCN,2024-06-26_13h53.26.444,LearnStrategy,2023.2.3,MacIntel,60.24096386,6,2,3,,,,,,,,5,12,,,,,,,,,,,5,1.219,1,,,,,,-0.349457804,-0.390300293,1,0,0,1.2191,Obsidian_rect,2,0,2,0,1,
637ef4d4e9abb3274bc1c925,SCN,2024-06-26_13h53.26.444,LearnStrategy,2023.2.3,MacIntel,60.24096386,6,2,4,,,,,,,,3,02,,,,,,,,,,,2,2.056,0,,,,,,-0.085271403,-0.256966146,1,0,0,2.0561,Basalt_rect,3,0,3,0,1,
637ef4d4e9abb3274bc1c925,SCN,2024-06-26_13h53.26.444,LearnStrategy,2023.2.3,MacIntel,60.24096386,6,2,5,,,,,,,,2,04,,,,,,,,,,,1,2.523,0,,,,,,-0.340348646,-0.261551988,1,0,0,2.5225,Andesite_rect,4,0,4,0,1,
637ef4d4e9abb3274bc1c925,SCN,2024-06-26_13h53.26.444,LearnStrategy,2023.2.3,MacIntel,60.24096386,6,2,6,,,,,,,,8,05,,,,,,,,,,,8,2.182,1,,,,,,0.424657525,-0.392673815,1,0,0,2.1824,Pumice_rect,5,0,5,0,1,
637ef4d4e9abb3274bc1c925,SCN,2024-06-26_13h53.26.444,LearnStrategy,2023.2.3,MacIntel,60.24096386,6,2,7,,,,,,,,4,13,,,,,,,,,,,4,3.935,1,,,,,,0.365525445,-0.256632623,1,0,0,3.9352,Gabbro_rect,6,0,6,0,1,
637ef4d4e9abb3274bc1c925,SCN,2024-06-26_13h53.26.444,LearnStrategy,2023.2.3,MacIntel,60.24096386,6,2,8,,,,,,,,5,14,,,,,,,,,,,5,2.367,1,,,,,,-0.382464532,-0.410251397,1,0,0,2.3668,Obsidian_rect,7,0,7,0,1,
637ef4d4e9abb3274bc1c925,SCN,2024-06-26_13h53.26.444,LearnStrategy,2023.2.3,MacIntel,60.24096386,6,2,9,,,,,,,,6,15,,,,,,,,,,,7,2.891,0,,,,,,0.088917169,-0.416387058,1,0,0,2.891,Peridotite_rect,8,0,8,0,1,
637ef4d4e9abb3274bc1c925,SCN,2024-06-26_13h53.26.444,LearnStrategy,2023.2.3,MacIntel,60.24096386,6,2,10,,,,,,,,7,15,,,,,,,,,,,3,5.489,0,,,,,,0.057461073,-0.25390625,1,0,0,5.4894,Diorite_rect,9,0,9,0,1,
637ef4d4e9abb3274bc1c925,SCN,2024-06-26_13h53.26.444,LearnStrategy,2023.2.3,MacIntel,60.24096386,6,2,11,,,,,,,,1,02,,,,,,,,,,,6,2.424,0,,,,,,-0.153140327,-0.393494331,1,0,0,2.4237,Pegmatite_rect,10,0,10,0,1,
637ef4d4e9abb3274bc1c925,SCN,2024-06-26_13h53.26.444,LearnStrategy,2023.2.3,MacIntel,60.24096386,6,2,12,,,,,,,,4,01,,,,,,,,,,,4,3.523,1,,,,,,0.368743625,-0.252787476,1,0,0,3.5228,Gabbro_rect,11,0,11,0,1,
637ef4d4e9abb3274bc1c925,SCN,2024-06-26_13h53.26.444,LearnStrategy,2023.2.3,MacIntel,60.24096386,6,2,13,,,,,,,,1,05,,,,,,,,,,,3,3.026,0,,,,,,0.06863878,-0.237145589,1,0,0,3.0261,Diorite_rect,12,0,12,0,1,
637ef4d4e9abb3274bc1c925,SCN,2024-06-26_13h53.26.444,LearnStrategy,2023.2.3,MacIntel,60.24096386,6,2,14,,,,,,,,7,14,,,,,,,,,,,7,3.056,1,,,,,,0.073259752,-0.402347616,1,0,0,3.0562,Peridotite_rect,13,0,13,0,1,
637ef4d4e9abb3274bc1c925,SCN,2024-06-26_13h53.26.444,LearnStrategy,2023.2.3,MacIntel,60.24096386,6,2,15,,,,,,,,8,10,,,,,,,,,,,8,1.739,1,,,,,,0.362148709,-0.402164374,1,0,0,1.739,Pumice_rect,14,0,14,0,1,
637ef4d4e9abb3274bc1c925,SCN,2024-06-26_13h53.26.444,LearnStrategy,2023.2.3,MacIntel,60.24096386,6,2,16,,,,,,,,2,09,,,,,,,,,,,1,3.172,0,,,,,,-0.36417745,-0.269600694,1,0,0,3.172,Andesite_rect,15,0,15,0,1,
637ef4d4e9abb3274bc1c925,SCN,2024-06-26_13h53.26.444,LearnStrategy,2023.2.3,MacIntel,60.24096386,7,1,1,0.211068929,-0.109098104,1,0,0,4.0602,Andesite_11,1,11,3,6,4.06,0.107252401,-0.237907444,1,0,0,1.8755,Diorite_rect,3,1.875,0,0,0,0,0,1,,,,,,,,,,,,,
637ef4d4e9abb3274bc1c925,SCN,2024-06-26_13h53.26.444,LearnStrategy,2023.2.3,MacIntel,60.24096386,7,1,2,0.092738851,0.066935357,1,0,0,3.3566,Andesite_04,1,04,4,5,3.357,0.108203125,-0.38975803,1,0,0,2.9248,Peridotite_rect,7,2.925,0,1,0,1,0,1,,,,,,,,,,,,,
637ef4d4e9abb3274bc1c925,SCN,2024-06-26_13h53.26.444,LearnStrategy,2023.2.3,MacIntel,60.24096386,7,1,3,-0.268492466,-0.096820747,1,0,0,1.3683,Basalt_05,2,05,3,3,1.368,-0.397545946,-0.233555433,1,0,0,1.2043,Andesite_rect,1,1.204,0,2,0,2,0,1,,,,,,,,,,,,,
637ef4d4e9abb3274bc1c925,SCN,2024-06-26_13h53.26.444,LearnStrategy,2023.2.3,MacIntel,60.24096386,7,1,4,0.23045756,0.069203932,1,0,0,2.6202,Diorite_10,3,10,4,6,2.62,-0.125329251,-0.247759332,1,0,0,1.2075,Basalt_rect,2,1.207,0,3,0,3,0,1,,,,,,,,,,,,,
637ef4d4e9abb3274bc1c925,SCN,2024-06-26_13h53.26.444,LearnStrategy,2023.2.3,MacIntel,60.24096386,7,1,5,0.288106961,-0.2645794,1,0,0,0.7147,Peridotite_02,7,02,2,6,0.715,0.1614131,-0.406343113,1,0,0,1.0026,Peridotite_rect,7,1.003,1,4,0,4,0,1,,,,,,,,,,,,,
637ef4d4e9abb3274bc1c925,SCN,2024-06-26_13h53.26.444,LearnStrategy,2023.2.3,MacIntel,60.24096386,7,1,6,0.244673326,-0.135259128,1,0,0,0.9685,Andesite_11,1,11,3,6,0.969,-0.225585327,-0.415144314,1,0,0,2.0035,Pegmatite_rect,6,2.004,0,5,0,5,0,1,,,,,,,,,,,,,
637ef4d4e9abb3274bc1c925,SCN,2024-06-26_13h53.26.444,LearnStrategy,2023.2.3,MacIntel,60.24096386,7,1,7,-0.201478746,-0.127400784,1,0,0,1.0857,Basalt_05,2,05,3,3,1.086,-0.333452894,-0.24056722,1,0,0,1.2017,Andesite_rect,1,1.202,0,6,0,6,0,1,,,,,,,,,,,,,
637ef4d4e9abb3274bc1c925,SCN,2024-06-26_13h53.26.444,LearnStrategy,2023.2.3,MacIntel,60.24096386,7,1,8,0.411757541,-0.115306057,1,0,0,0.9175,Andesite_16,1,16,3,7,0.918,-0.094625312,-0.247411092,1,0,0,2.3721,Basalt_rect,2,2.372,0,7,0,7,0,1,,,,,,,,,,,,,
637ef4d4e9abb3274bc1c925,SCN,2024-06-26_13h53.26.444,LearnStrategy,2023.2.3,MacIntel,60.24096386,7,1,9,0.083070882,0.225373654,1,0,0,3.5747,Pegmatite_08,6,08,5,5,3.575,-0.138677097,-0.378158976,1,0,0,2.5362,Pegmatite_rect,6,2.536,1,8,0,8,0,1,,,,,,,,,,,,,
637ef4d4e9abb3274bc1c925,SCN,2024-06-26_13h53.26.444,LearnStrategy,2023.2.3,MacIntel,60.24096386,7,1,10,0.398004422,0.20691274,1,0,0,1.5026,Peridotite_08,7,08,5,7,1.503,0.085452677,-0.26084432,1,0,0,2.114,Diorite_rect,3,2.114,0,9,0,9,0,1,,,,,,,,,,,,,
637ef4d4e9abb3274bc1c925,SCN,2024-06-26_13h53.26.444,LearnStrategy,2023.2.3,MacIntel,60.24096386,7,1,11,-0.529262153,0.252254893,1,0,0,6.0452,Pegmatite_05,6,05,5,1,6.045,-0.177066447,-0.235939738,1,0,0,1.8601,Basalt_rect,2,1.86,0,10,0,10,0,1,,,,,,,,,,,,,
637ef4d4e9abb3274bc1c925,SCN,2024-06-26_13h53.26.444,LearnStrategy,2023.2.3,MacIntel,60.24096386,7,1,12,0.386560059,-0.117602064,1,0,0,3.5409,Andesite_16,1,16,3,7,3.541,-0.1048742,-0.264344211,1,0,0,0.9948,Basalt_rect,2,0.995,0,11,0,11,0,1,,,,,,,,,,,,,
637ef4d4e9abb3274bc1c925,SCN,2024-06-26_13h53.26.444,LearnStrategy,2023.2.3,MacIntel,60.24096386,7,1,13,-0.063856201,-0.275624525,1,0,0,1.5351,Basalt_11,2,11,2,4,1.535,-0.345339966,-0.255329997,1,0,0,1.7863,Andesite_rect,1,1.786,0,12,0,12,0,1,,,,,,,,,,,,,
637ef4d4e9abb3274bc1c925,SCN,2024-06-26_13h53.26.444,LearnStrategy,2023.2.3,MacIntel,60.24096386,7,1,14,0.565866564,-0.082929145,1,0,0,2.8082,Gabbro_11,4,11,3,8,2.808,-0.09951572,-0.417366604,1,0,0,1.2426,Pegmatite_rect,6,1.243,0,13,0,13,0,1,,,,,,,,,,,,,
637ef4d4e9abb3274bc1c925,SCN,2024-06-26_13h53.26.444,LearnStrategy,2023.2.3,MacIntel,60.24096386,7,1,15,0.361279297,0.377382202,1,0,0,4.1275,Diorite_06,3,06,6,7,4.127,0.099088338,-0.265131768,1,0,0,1.804,Diorite_rect,3,1.804,1,14,0,14,0,1,,,,,,,,,,,,,
637ef4d4e9abb3274bc1c925,SCN,2024-06-26_13h53.26.444,LearnStrategy,2023.2.3,MacIntel,60.24096386,7,1,16,-0.406202393,0.101416456,1,0,0,4.0922,Peridotite_16,7,16,4,2,4.092,-0.369663357,-0.253120999,1,0,0,1.9097,Andesite_rect,1,1.91,0,15,0,15,0,1,,,,,,,,,,,,,
637ef4d4e9abb3274bc1c925,SCN,2024-06-26_13h53.26.444,LearnStrategy,2023.2.3,MacIntel,60.24096386,7,2,1,,,,,,,,4,12,,,,,,,,,,,3,2.955,0,,,,,,0.155606079,-0.260158827,1,0,0,2.9545,Diorite_rect,0,0,0,0,1,
637ef4d4e9abb3274bc1c925,SCN,2024-06-26_13h53.26.444,LearnStrategy,2023.2.3,MacIntel,60.24096386,7,2,2,,,,,,,,4,13,,,,,,,,,,,2,3.462,0,,,,,,-0.136850382,-0.271355184,1,0,0,3.462,Basalt_rect,1,0,1,0,1,
637ef4d4e9abb3274bc1c925,SCN,2024-06-26_13h53.26.444,LearnStrategy,2023.2.3,MacIntel,60.24096386,7,2,3,,,,,,,,3,11,,,,,,,,,,,7,4.039,0,,,,,,0.089082574,-0.407626139,1,0,0,4.0394,Peridotite_rect,2,0,2,0,1,
637ef4d4e9abb3274bc1c925,SCN,2024-06-26_13h53.26.444,LearnStrategy,2023.2.3,MacIntel,60.24096386,7,2,4,,,,,,,,6,13,,,,,,,,,,,7,4.247,0,,,,,,0.052619561,-0.399155409,1,0,0,4.2466,Peridotite_rect,3,0,3,0,1,
637ef4d4e9abb3274bc1c925,SCN,2024-06-26_13h53.26.444,LearnStrategy,2023.2.3,MacIntel,60.24096386,7,2,5,,,,,,,,7,07,,,,,,,,,,,1,6.599,0,,,,,,-0.381699219,-0.271663818,1,0,0,6.5987,Andesite_rect,4,0,4,0,1,
637ef4d4e9abb3274bc1c925,SCN,2024-06-26_13h53.26.444,LearnStrategy,2023.2.3,MacIntel,60.24096386,7,2,6,,,,,,,,5,14,,,,,,,,,,,5,1.19,1,,,,,,-0.345953912,-0.419752672,1,0,0,1.1896,Obsidian_rect,5,0,5,0,1,
637ef4d4e9abb3274bc1c925,SCN,2024-06-26_13h53.26.444,LearnStrategy,2023.2.3,MacIntel,60.24096386,7,2,7,,,,,,,,8,03,,,,,,,,,,,8,1.843,1,,,,,,0.322546861,-0.420141398,1,0,0,1.8429,Pumice_rect,6,0,6,0,1,
637ef4d4e9abb3274bc1c925,SCN,2024-06-26_13h53.26.444,LearnStrategy,2023.2.3,MacIntel,60.24096386,7,2,8,,,,,,,,5,12,,,,,,,,,,,5,1.16,1,,,,,,-0.420413106,-0.390652059,1,0,0,1.1604,Obsidian_rect,7,0,7,0,1,
637ef4d4e9abb3274bc1c925,SCN,2024-06-26_13h53.26.444,LearnStrategy,2023.2.3,MacIntel,60.24096386,7,2,9,,,,,,,,1,10,,,,,,,,,,,1,2.498,1,,,,,,-0.462803277,-0.254157376,1,0,0,2.4979,Andesite_rect,8,0,8,0,1,
637ef4d4e9abb3274bc1c925,SCN,2024-06-26_13h53.26.444,LearnStrategy,2023.2.3,MacIntel,60.24096386,7,2,10,,,,,,,,2,04,,,,,,,,,,,6,3.183,0,,,,,,-0.079113227,-0.406468845,1,0,0,3.1826,Pegmatite_rect,9,0,9,0,1,
637ef4d4e9abb3274bc1c925,SCN,2024-06-26_13h53.26.444,LearnStrategy,2023.2.3,MacIntel,60.24096386,7,2,11,,,,,,,,2,14,,,,,,,,,,,4,3.173,0,,,,,,0.312040744,-0.264266697,1,0,0,3.1732,Gabbro_rect,10,0,10,0,1,
637ef4d4e9abb3274bc1c925,SCN,2024-06-26_13h53.26.444,LearnStrategy,2023.2.3,MacIntel,60.24096386,7,2,12,,,,,,,,8,04,,,,,,,,,,,8,1.751,1,,,,,,0.37373074,-0.404941474,1,0,0,1.7513,Pumice_rect,11,0,11,0,1,
637ef4d4e9abb3274bc1c925,SCN,2024-06-26_13h53.26.444,LearnStrategy,2023.2.3,MacIntel,60.24096386,7,2,13,,,,,,,,1,06,,,,,,,,,,,1,3.177,1,,,,,,-0.338322584,-0.267675985,1,0,0,3.1774,Andesite_rect,12,0,12,0,1,
637ef4d4e9abb3274bc1c925,SCN,2024-06-26_13h53.26.444,LearnStrategy,2023.2.3,MacIntel,60.24096386,7,2,14,,,,,,,,3,15,,,,,,,,,,,2,4.828,0,,,,,,-0.116876356,-0.257206421,1,0,0,4.8277,Basalt_rect,13,0,13,0,1,
637ef4d4e9abb3274bc1c925,SCN,2024-06-26_13h53.26.444,LearnStrategy,2023.2.3,MacIntel,60.24096386,7,2,15,,,,,,,,7,15,,,,,,,,,,,6,2.73,0,,,,,,-0.038085802,-0.406619195,1,0,0,2.7296,Pegmatite_rect,14,0,14,0,1,
637ef4d4e9abb3274bc1c925,SCN,2024-06-26_13h53.26.444,LearnStrategy,2023.2.3,MacIntel,60.24096386,7,2,16,,,,,,,,6,12,,,,,,,,,,,7,2.526,0,,,,,,0.129752875,-0.390138685,1,0,0,2.5261,Peridotite_rect,15,0,15,0,1,
637ef4d4e9abb3274bc1c925,SCN,2024-06-26_13h53.26.444,LearnStrategy,2023.2.3,MacIntel,60.24096386,8,1,1,0.255054186,-0.108643799,1,0,0,3.2256,Andesite_11,1,11,3,6,3.226,0.125054864,-0.246435615,1,0,0,1.5689,Diorite_rect,3,1.569,0,0,0,0,0,1,,,,,,,,,,,,,
637ef4d4e9abb3274bc1c925,SCN,2024-06-26_13h53.26.444,LearnStrategy,2023.2.3,MacIntel,60.24096386,8,1,2,-0.074053006,-0.230619914,1,0,0,1.6204,Basalt_11,2,11,2,4,1.62,-0.173230387,-0.255356106,1,0,0,5.8487,Basalt_rect,2,5.849,1,1,0,1,0,1,,,,,,,,,,,,,
637ef4d4e9abb3274bc1c925,SCN,2024-06-26_13h53.26.444,LearnStrategy,2023.2.3,MacIntel,60.24096386,8,1,3,0.386067437,-0.261599189,1,0,0,2.5541,Pumice_06,8,06,2,7,2.554,0.347766249,-0.414554511,1,0,0,2.6129,Pumice_rect,8,2.613,1,2,0,2,0,1,,,,,,,,,,,,,
637ef4d4e9abb3274bc1c925,SCN,2024-06-26_13h53.26.444,LearnStrategy,2023.2.3,MacIntel,60.24096386,8,1,4,-0.532336799,-0.111252035,1,0,0,2.655,Andesite_14,1,14,3,1,2.655,0.118274604,-0.250386692,1,0,0,1.5837,Diorite_rect,3,1.584,0,3,0,3,0,1,,,,,,,,,,,,,
637ef4d4e9abb3274bc1c925,SCN,2024-06-26_13h53.26.444,LearnStrategy,2023.2.3,MacIntel,60.24096386,8,1,5,0.219769694,0.073735487,1,0,0,4.5775,Diorite_10,3,10,4,6,4.577,0.098449639,-0.384019097,1,0,0,1.9289,Peridotite_rect,7,1.929,0,4,0,4,0,1,,,,,,,,,,,,,
637ef4d4e9abb3274bc1c925,SCN,2024-06-26_13h53.26.444,LearnStrategy,2023.2.3,MacIntel,60.24096386,8,1,6,-0.247468567,-0.099723646,1,0,0,3.0901,Basalt_05,2,05,3,3,3.09,-0.381066149,-0.233775024,1,0,0,0.9193,Andesite_rect,1,0.919,0,5,0,5,0,1,,,,,,,,,,,,,
637ef4d4e9abb3274bc1c925,SCN,2024-06-26_13h53.26.444,LearnStrategy,2023.2.3,MacIntel,60.24096386,8,1,7,0.093914931,-0.23858846,1,0,0,4.2921,Gabbro_05,4,05,2,5,4.292,0.093065186,-0.242837185,1,0,0,0.9383,Diorite_rect,3,0.938,0,6,0,6,0,1,,,,,,,,,,,,,
637ef4d4e9abb3274bc1c925,SCN,2024-06-26_13h53.26.444,LearnStrategy,2023.2.3,MacIntel,60.24096386,8,1,8,0.251470269,0.238509538,1,0,0,3.0403,Peridotite_04,7,04,5,6,3.04,0.388738064,-0.261837904,1,0,0,1.8121,Gabbro_rect,4,1.812,0,7,0,7,0,1,,,,,,,,,,,,,
637ef4d4e9abb3274bc1c925,SCN,2024-06-26_13h53.26.444,LearnStrategy,2023.2.3,MacIntel,60.24096386,8,1,9,0.080240004,0.08115092,1,0,0,4.7784,Andesite_04,1,04,4,5,4.778,-0.344324409,-0.257233548,1,0,0,2.0273,Andesite_rect,1,2.027,1,8,0,8,0,1,,,,,,,,,,,,,
637ef4d4e9abb3274bc1c925,SCN,2024-06-26_13h53.26.444,LearnStrategy,2023.2.3,MacIntel,60.24096386,8,1,10,0.212349718,-0.282115343,1,0,0,2.0031,Peridotite_02,7,02,2,6,2.003,0.155977783,-0.253120795,1,0,0,1.0324,Diorite_rect,3,1.032,0,9,0,9,0,1,,,,,,,,,,,,,
637ef4d4e9abb3274bc1c925,SCN,2024-06-26_13h53.26.444,LearnStrategy,2023.2.3,MacIntel,60.24096386,8,1,11,0.224727444,0.231174113,1,0,0,3.9436,Peridotite_04,7,04,5,6,3.944,0.100699192,-0.386343859,1,0,0,1.0757,Peridotite_rect,7,1.076,1,10,0,10,0,1,,,,,,,,,,,,,
637ef4d4e9abb3274bc1c925,SCN,2024-06-26_13h53.26.444,LearnStrategy,2023.2.3,MacIntel,60.24096386,8,1,12,0.062962036,0.103005439,1,0,0,2.991,Andesite_04,1,04,4,5,2.991,-0.36088562,-0.265024414,1,0,0,2.6139,Andesite_rect,1,2.614,1,11,0,11,0,1,,,,,,,,,,,,,
637ef4d4e9abb3274bc1c925,SCN,2024-06-26_13h53.26.444,LearnStrategy,2023.2.3,MacIntel,60.24096386,8,1,13,-0.250036248,-0.149546984,1,0,0,2.8404,Basalt_05,2,05,3,3,2.84,-0.156079508,-0.23730462,1,0,0,2.1459,Basalt_rect,2,2.146,1,12,0,12,0,1,,,,,,,,,,,,,
637ef4d4e9abb3274bc1c925,SCN,2024-06-26_13h53.26.444,LearnStrategy,2023.2.3,MacIntel,60.24096386,8,1,14,0.243280707,0.095464681,1,0,0,1.9532,Diorite_10,3,10,4,6,1.953,0.122499797,-0.394185859,1,0,0,1.2376,Peridotite_rect,7,1.238,0,13,0,13,0,1,,,,,,,,,,,,,
637ef4d4e9abb3274bc1c925,SCN,2024-06-26_13h53.26.444,LearnStrategy,2023.2.3,MacIntel,60.24096386,8,1,15,-0.040076294,-0.240875651,1,0,0,0.9833,Basalt_11,2,11,2,4,0.983,0.146858317,-0.254740668,1,0,0,0.7354,Diorite_rect,3,0.735,0,14,0,14,0,1,,,,,,,,,,,,,
637ef4d4e9abb3274bc1c925,SCN,2024-06-26_13h53.26.444,LearnStrategy,2023.2.3,MacIntel,60.24096386,8,1,16,0.353042128,-0.120929091,1,0,0,1.2689,Andesite_16,1,16,3,7,1.269,-0.115594482,-0.229395888,1,0,0,1.7136,Basalt_rect,2,1.714,0,15,0,15,0,1,,,,,,,,,,,,,
637ef4d4e9abb3274bc1c925,SCN,2024-06-26_13h53.26.444,LearnStrategy,2023.2.3,MacIntel,60.24096386,8,2,1,,,,,,,,2,09,,,,,,,,,,,1,2.605,0,,,,,,-0.384657864,-0.241681112,1,0,0,2.6046,Andesite_rect,0,0,0,0,1,
637ef4d4e9abb3274bc1c925,SCN,2024-06-26_13h53.26.444,LearnStrategy,2023.2.3,MacIntel,60.24096386,8,2,2,,,,,,,,5,08,,,,,,,,,,,5,1.127,1,,,,,,-0.386053908,-0.42104716,1,0,0,1.1268,Obsidian_rect,1,0,1,0,1,
637ef4d4e9abb3274bc1c925,SCN,2024-06-26_13h53.26.444,LearnStrategy,2023.2.3,MacIntel,60.24096386,8,2,3,,,,,,,,3,16,,,,,,,,,,,3,4.045,1,,,,,,0.190438978,-0.264042765,1,0,0,4.0447,Diorite_rect,2,0,2,0,1,
637ef4d4e9abb3274bc1c925,SCN,2024-06-26_13h53.26.444,LearnStrategy,2023.2.3,MacIntel,60.24096386,8,2,4,,,,,,,,5,09,,,,,,,,,,,5,1.169,1,,,,,,-0.406581963,-0.416325887,1,0,0,1.1694,Obsidian_rect,3,0,3,0,1,
637ef4d4e9abb3274bc1c925,SCN,2024-06-26_13h53.26.444,LearnStrategy,2023.2.3,MacIntel,60.24096386,8,2,5,,,,,,,,3,09,,,,,,,,,,,7,2.406,0,,,,,,0.169941474,-0.413962402,1,0,0,2.4063,Peridotite_rect,4,0,4,0,1,
637ef4d4e9abb3274bc1c925,SCN,2024-06-26_13h53.26.444,LearnStrategy,2023.2.3,MacIntel,60.24096386,8,2,6,,,,,,,,4,10,,,,,,,,,,,4,3.229,1,,,,,,0.391295437,-0.266245931,1,0,0,3.229,Gabbro_rect,5,0,5,0,1,
637ef4d4e9abb3274bc1c925,SCN,2024-06-26_13h53.26.444,LearnStrategy,2023.2.3,MacIntel,60.24096386,8,2,7,,,,,,,,4,01,,,,,,,,,,,1,3.178,0,,,,,,-0.36420617,-0.257140164,1,0,0,3.1783,Andesite_rect,6,0,6,0,1,
637ef4d4e9abb3274bc1c925,SCN,2024-06-26_13h53.26.444,LearnStrategy,2023.2.3,MacIntel,60.24096386,8,2,8,,,,,,,,1,03,,,,,,,,,,,2,2.341,0,,,,,,-0.107410889,-0.258936361,1,0,0,2.3413,Basalt_rect,7,0,7,0,1,
637ef4d4e9abb3274bc1c925,SCN,2024-06-26_13h53.26.444,LearnStrategy,2023.2.3,MacIntel,60.24096386,8,2,9,,,,,,,,7,13,,,,,,,,,,,7,2.187,1,,,,,,0.091444634,-0.4045676,1,0,0,2.1871,Peridotite_rect,8,0,8,0,1,
637ef4d4e9abb3274bc1c925,SCN,2024-06-26_13h53.26.444,LearnStrategy,2023.2.3,MacIntel,60.24096386,8,2,10,,,,,,,,1,01,,,,,,,,,,,3,2.31,0,,,,,,0.133991225,-0.248187798,1,0,0,2.3096,Diorite_rect,9,0,9,0,1,
637ef4d4e9abb3274bc1c925,SCN,2024-06-26_13h53.26.444,LearnStrategy,2023.2.3,MacIntel,60.24096386,8,2,11,,,,,,,,6,15,,,,,,,,,,,6,1.717,1,,,,,,-0.045156725,-0.402856513,1,0,0,1.717,Pegmatite_rect,10,0,10,0,1,
637ef4d4e9abb3274bc1c925,SCN,2024-06-26_13h53.26.444,LearnStrategy,2023.2.3,MacIntel,60.24096386,8,2,12,,,,,,,,2,01,,,,,,,,,,,1,2.031,0,,,,,,-0.366462063,-0.257098999,1,0,0,2.0309,Andesite_rect,11,0,11,0,1,
637ef4d4e9abb3274bc1c925,SCN,2024-06-26_13h53.26.444,LearnStrategy,2023.2.3,MacIntel,60.24096386,8,2,13,,,,,,,,7,12,,,,,,,,,,,3,5.269,0,,,,,,0.162533976,-0.26614129,1,0,0,5.2693,Diorite_rect,12,0,12,0,1,
637ef4d4e9abb3274bc1c925,SCN,2024-06-26_13h53.26.444,LearnStrategy,2023.2.3,MacIntel,60.24096386,8,2,14,,,,,,,,8,15,,,,,,,,,,,8,1.402,1,,,,,,0.429297824,-0.396996596,1,0,0,1.402,Pumice_rect,13,0,13,0,1,
637ef4d4e9abb3274bc1c925,SCN,2024-06-26_13h53.26.444,LearnStrategy,2023.2.3,MacIntel,60.24096386,8,2,15,,,,,,,,6,03,,,,,,,,,,,4,1.415,0,,,,,,0.314798584,-0.26615682,1,0,0,1.4154,Gabbro_rect,14,0,14,0,1,
637ef4d4e9abb3274bc1c925,SCN,2024-06-26_13h53.26.444,LearnStrategy,2023.2.3,MacIntel,60.24096386,8,2,16,,,,,,,,8,13,,,,,,,,,,,8,1.978,1,,,,,,0.355583767,-0.414549967,1,0,0,1.9783,Pumice_rect,15,0,15,0,1,
637ef4d4e9abb3274bc1c925,SCN,2024-06-26_13h53.26.444,LearnStrategy,2023.2.3,MacIntel,60.24096386,9,1,1,0.254355197,-0.241179538,1,0,0,1.9705,Peridotite_02,7,02,2,6,1.97,0.35067966,-0.254837782,1,0,0,1.2669,Gabbro_rect,4,1.267,0,0,0,0,0,1,,,,,,,,,,,,,
637ef4d4e9abb3274bc1c925,SCN,2024-06-26_13h53.26.444,LearnStrategy,2023.2.3,MacIntel,60.24096386,9,1,2,0.068698052,-0.432814331,1,0,0,1.0184,Basalt_06,2,06,1,5,1.018,-0.392455275,-0.2416824,1,0,0,0.9115,Andesite_rect,1,0.911,0,1,0,1,0,1,,,,,,,,,,,,,
637ef4d4e9abb3274bc1c925,SCN,2024-06-26_13h53.26.444,LearnStrategy,2023.2.3,MacIntel,60.24096386,9,1,3,-0.195673692,-0.117499797,1,0,0,2.857,Basalt_05,2,05,3,3,2.857,-0.348076918,-0.254398126,1,0,0,1.3624,Andesite_rect,1,1.362,0,2,0,2,0,1,,,,,,,,,,,,,
637ef4d4e9abb3274bc1c925,SCN,2024-06-26_13h53.26.444,LearnStrategy,2023.2.3,MacIntel,60.24096386,9,1,4,-0.04871799,-0.263863458,1,0,0,1.7878,Basalt_11,2,11,2,4,1.788,0.065054728,-0.259711236,1,0,0,1.0967,Diorite_rect,3,1.097,0,3,0,3,0,1,,,,,,,,,,,,,
637ef4d4e9abb3274bc1c925,SCN,2024-06-26_13h53.26.444,LearnStrategy,2023.2.3,MacIntel,60.24096386,9,1,5,0.352086317,-0.127157728,1,0,0,3.04,Andesite_16,1,16,3,7,3.04,-0.336259155,-0.252681885,1,0,0,1.2562,Andesite_rect,1,1.256,1,4,0,4,0,1,,,,,,,,,,,,,
637ef4d4e9abb3274bc1c925,SCN,2024-06-26_13h53.26.444,LearnStrategy,2023.2.3,MacIntel,60.24096386,9,1,6,0.093741862,-0.403758002,1,0,0,1.8346,Basalt_06,2,06,1,5,1.835,-0.118630642,-0.26063524,1,0,0,1.3665,Basalt_rect,2,1.367,1,5,0,5,0,1,,,,,,,,,,,,,
637ef4d4e9abb3274bc1c925,SCN,2024-06-26_13h53.26.444,LearnStrategy,2023.2.3,MacIntel,60.24096386,9,1,7,-0.200516764,-0.079158936,1,0,0,4.026,Basalt_05,2,05,3,3,4.026,-0.11100179,-0.258903537,1,0,0,0.9783,Basalt_rect,2,0.978,1,6,0,6,0,1,,,,,,,,,,,,,
637ef4d4e9abb3274bc1c925,SCN,2024-06-26_13h53.26.444,LearnStrategy,2023.2.3,MacIntel,60.24096386,9,1,8,0.10732293,0.112345276,1,0,0,3.6088,Andesite_04,1,04,4,5,3.609,0.146944648,-0.270136719,1,0,0,1.693,Diorite_rect,3,1.693,0,7,0,7,0,1,,,,,,,,,,,,,
637ef4d4e9abb3274bc1c925,SCN,2024-06-26_13h53.26.444,LearnStrategy,2023.2.3,MacIntel,60.24096386,9,1,9,-0.058156264,-0.406193169,1,0,0,2.1032,Pumice_16,8,16,1,4,2.103,-0.112059123,-0.25379503,1,0,0,1.0867,Basalt_rect,2,1.087,0,8,0,8,0,1,,,,,,,,,,,,,
637ef4d4e9abb3274bc1c925,SCN,2024-06-26_13h53.26.444,LearnStrategy,2023.2.3,MacIntel,60.24096386,9,1,10,0.382272814,-0.111028375,1,0,0,6.2492,Andesite_16,1,16,3,7,6.249,0.293227539,-0.270972222,1,0,0,2.9601,Gabbro_rect,4,2.96,0,9,0,9,0,1,,,,,,,,,,,,,
637ef4d4e9abb3274bc1c925,SCN,2024-06-26_13h53.26.444,LearnStrategy,2023.2.3,MacIntel,60.24096386,9,1,11,-0.371422899,0.261231825,1,0,0,2.9058,Diorite_14,3,14,5,2,2.906,-0.106166992,-0.258274943,1,0,0,1.5019,Basalt_rect,2,1.502,0,10,0,10,0,1,,,,,,,,,,,,,
637ef4d4e9abb3274bc1c925,SCN,2024-06-26_13h53.26.444,LearnStrategy,2023.2.3,MacIntel,60.24096386,9,1,12,0.230212674,0.26868988,1,0,0,5.0963,Peridotite_04,7,04,5,6,5.096,0.1450236,-0.411277398,1,0,0,1.2218,Peridotite_rect,7,1.222,1,11,0,11,0,1,,,,,,,,,,,,,
637ef4d4e9abb3274bc1c925,SCN,2024-06-26_13h53.26.444,LearnStrategy,2023.2.3,MacIntel,60.24096386,9,1,13,-0.379974399,0.376838599,1,0,0,7.8864,Andesite_09,1,09,6,2,7.886,-0.325084771,-0.23936849,1,0,0,1.2664,Andesite_rect,1,1.266,1,12,0,12,0,1,,,,,,,,,,,,,
637ef4d4e9abb3274bc1c925,SCN,2024-06-26_13h53.26.444,LearnStrategy,2023.2.3,MacIntel,60.24096386,9,1,14,-0.210095825,0.262144606,1,0,0,5.0797,Pegmatite_16,6,16,5,3,5.08,-0.062854411,-0.237141045,1,0,0,1.1405,Basalt_rect,2,1.14,0,13,0,13,0,1,,,,,,,,,,,,,
637ef4d4e9abb3274bc1c925,SCN,2024-06-26_13h53.26.444,LearnStrategy,2023.2.3,MacIntel,60.24096386,9,1,15,-0.107056274,-0.246614041,1,0,0,1.9701,Basalt_11,2,11,2,4,1.97,0.115777249,-0.230174154,1,0,0,0.9448,Diorite_rect,3,0.945,0,14,0,14,0,1,,,,,,,,,,,,,
637ef4d4e9abb3274bc1c925,SCN,2024-06-26_13h53.26.444,LearnStrategy,2023.2.3,MacIntel,60.24096386,9,1,16,-0.071869168,-0.384179552,1,0,0,1.2841,Pumice_16,8,16,1,4,1.284,0.094641249,-0.25743632,1,0,0,1.8678,Diorite_rect,3,1.868,0,15,0,15,0,1,,,,,,,,,,,,,
637ef4d4e9abb3274bc1c925,SCN,2024-06-26_13h53.26.444,LearnStrategy,2023.2.3,MacIntel,60.24096386,9,2,1,,,,,,,,5,11,,,,,,,,,,,5,1.237,1,,,,,,-0.423435669,-0.41154107,1,0,0,1.2367,Obsidian_rect,0,0,0,0,1,
637ef4d4e9abb3274bc1c925,SCN,2024-06-26_13h53.26.444,LearnStrategy,2023.2.3,MacIntel,60.24096386,9,2,2,,,,,,,,8,10,,,,,,,,,,,8,2.951,1,,,,,,0.33709215,-0.416770359,1,0,0,2.9513,Pumice_rect,1,0,1,0,1,
637ef4d4e9abb3274bc1c925,SCN,2024-06-26_13h53.26.444,LearnStrategy,2023.2.3,MacIntel,60.24096386,9,2,3,,,,,,,,7,10,,,,,,,,,,,7,1.671,1,,,,,,0.077287733,-0.406624824,1,0,0,1.6712,Peridotite_rect,2,0,2,0,1,
637ef4d4e9abb3274bc1c925,SCN,2024-06-26_13h53.26.444,LearnStrategy,2023.2.3,MacIntel,60.24096386,9,2,4,,,,,,,,2,02,,,,,,,,,,,1,1.605,0,,,,,,-0.35017317,-0.253954603,1,0,0,1.6052,Andesite_rect,3,0,3,0,1,
637ef4d4e9abb3274bc1c925,SCN,2024-06-26_13h53.26.444,LearnStrategy,2023.2.3,MacIntel,60.24096386,9,2,5,,,,,,,,8,05,,,,,,,,,,,8,1.784,1,,,,,,0.341729872,-0.414860433,1,0,0,1.7837,Pumice_rect,4,0,4,0,1,
637ef4d4e9abb3274bc1c925,SCN,2024-06-26_13h53.26.444,LearnStrategy,2023.2.3,MacIntel,60.24096386,9,2,6,,,,,,,,5,06,,,,,,,,,,,5,1.38,1,,,,,,-0.364319322,-0.38031996,1,0,0,1.3797,Obsidian_rect,5,0,5,0,1,
637ef4d4e9abb3274bc1c925,SCN,2024-06-26_13h53.26.444,LearnStrategy,2023.2.3,MacIntel,60.24096386,9,2,7,,,,,,,,1,05,,,,,,,,,,,1,2.07,1,,,,,,-0.349292263,-0.262677002,1,0,0,2.0697,Andesite_rect,6,0,6,0,1,
637ef4d4e9abb3274bc1c925,SCN,2024-06-26_13h53.26.444,LearnStrategy,2023.2.3,MacIntel,60.24096386,9,2,8,,,,,,,,3,08,,,,,,,,,,,7,3.055,0,,,,,,0.138874783,-0.415901489,1,0,0,3.0552,Peridotite_rect,7,0,7,0,1,
637ef4d4e9abb3274bc1c925,SCN,2024-06-26_13h53.26.444,LearnStrategy,2023.2.3,MacIntel,60.24096386,9,2,9,,,,,,,,3,02,,,,,,,,,,,4,1.939,0,,,,,,0.356984456,-0.241938883,1,0,0,1.9387,Gabbro_rect,8,0,8,0,1,
637ef4d4e9abb3274bc1c925,SCN,2024-06-26_13h53.26.444,LearnStrategy,2023.2.3,MacIntel,60.24096386,9,2,10,,,,,,,,4,08,,,,,,,,,,,2,2.499,0,,,,,,-0.067831692,-0.245308974,1,0,0,2.4991,Basalt_rect,9,0,9,0,1,
637ef4d4e9abb3274bc1c925,SCN,2024-06-26_13h53.26.444,LearnStrategy,2023.2.3,MacIntel,60.24096386,9,2,11,,,,,,,,2,12,,,,,,,,,,,8,1.573,0,,,,,,0.358267008,-0.405228271,1,0,0,1.5732,Pumice_rect,10,0,10,0,1,
637ef4d4e9abb3274bc1c925,SCN,2024-06-26_13h53.26.444,LearnStrategy,2023.2.3,MacIntel,60.24096386,9,2,12,,,,,,,,7,14,,,,,,,,,,,4,2.553,0,,,,,,0.434719781,-0.248931071,1,0,0,2.5529,Gabbro_rect,11,0,11,0,1,
637ef4d4e9abb3274bc1c925,SCN,2024-06-26_13h53.26.444,LearnStrategy,2023.2.3,MacIntel,60.24096386,9,2,13,,,,,,,,6,09,,,,,,,,,,,6,2.599,1,,,,,,-0.100006714,-0.41228909,1,0,0,2.5992,Pegmatite_rect,12,0,12,0,1,
637ef4d4e9abb3274bc1c925,SCN,2024-06-26_13h53.26.444,LearnStrategy,2023.2.3,MacIntel,60.24096386,9,2,14,,,,,,,,4,15,,,,,,,,,,,2,6.049,0,,,,,,-0.128436483,-0.240046319,1,0,0,6.0491,Basalt_rect,13,0,13,0,1,
637ef4d4e9abb3274bc1c925,SCN,2024-06-26_13h53.26.444,LearnStrategy,2023.2.3,MacIntel,60.24096386,9,2,15,,,,,,,,1,02,,,,,,,,,,,2,4.063,0,,,,,,-0.115433011,-0.247041829,1,0,0,4.0625,Basalt_rect,14,0,14,0,1,
637ef4d4e9abb3274bc1c925,SCN,2024-06-26_13h53.26.444,LearnStrategy,2023.2.3,MacIntel,60.24096386,9,2,16,,,,,,,,6,07,,,,,,,,,,,3,5.784,0,,,,,,0.101599325,-0.239639757,1,0,0,5.7839,Diorite_rect,15,0,15,0,1,
637ef4d4e9abb3274bc1c925,SCN,2024-06-26_13h53.26.444,LearnStrategy,2023.2.3,MacIntel,60.24096386,,,,,,,,,,,,,,,,,,,,,,,,,,,,,,,,,,,,,,,,,,,0
637ef4d4e9abb3274bc1c925,SCN,2024-06-26_13h53.26.444,LearnStrategy,2023.2.3,MacIntel,60.24096386,,,,,,,,,,,,,,,,,,,,,,,,,,,,,,,,,,,,,,,,,,,
637ef4d4e9abb3274bc1c925,SCN,2024-06-26_13h53.26.444,LearnStrategy,2023.2.3,MacIntel,60.24096386,,,,,,,,,,,2,16,1,1,,,,,,,,,,,,,,,,,,,,,,,,,,,,,
637ef4d4e9abb3274bc1c925,SCN,2024-06-26_13h53.26.444,LearnStrategy,2023.2.3,MacIntel,60.24096386,,,,,,,,,,,5,02,1,2,,,,,,,,,,,,,,,,,,,,,,,,,,,,,
637ef4d4e9abb3274bc1c925,SCN,2024-06-26_13h53.26.444,LearnStrategy,2023.2.3,MacIntel,60.24096386,,,,,,,,,,,8,08,1,3,,,,,,,,,,,,,,,,,,,,,,,,,,,,,
637ef4d4e9abb3274bc1c925,SCN,2024-06-26_13h53.26.444,LearnStrategy,2023.2.3,MacIntel,60.24096386,,,,,,,,,,,8,16,1,4,,,,,,,,,,,,,,,,,,,,,,,,,,,,,
637ef4d4e9abb3274bc1c925,SCN,2024-06-26_13h53.26.444,LearnStrategy,2023.2.3,MacIntel,60.24096386,,,,,,,,,,,2,06,1,5,,,,,,,,,,,,,,,,,,,,,,,,,,,,,
637ef4d4e9abb3274bc1c925,SCN,2024-06-26_13h53.26.444,LearnStrategy,2023.2.3,MacIntel,60.24096386,,,,,,,,,,,5,05,1,6,,,,,,,,,,,,,,,,,,,,,,,,,,,,,
637ef4d4e9abb3274bc1c925,SCN,2024-06-26_13h53.26.444,LearnStrategy,2023.2.3,MacIntel,60.24096386,,,,,,,,,,,7,05,1,7,,,,,,,,,,,,,,,,,,,,,,,,,,,,,
637ef4d4e9abb3274bc1c925,SCN,2024-06-26_13h53.26.444,LearnStrategy,2023.2.3,MacIntel,60.24096386,,,,,,,,,,,6,06,1,8,,,,,,,,,,,,,,,,,,,,,,,,,,,,,
637ef4d4e9abb3274bc1c925,SCN,2024-06-26_13h53.26.444,LearnStrategy,2023.2.3,MacIntel,60.24096386,,,,,,,,,,,3,12,2,1,,,,,,,,,,,,,,,,,,,,,,,,,,,,,
637ef4d4e9abb3274bc1c925,SCN,2024-06-26_13h53.26.444,LearnStrategy,2023.2.3,MacIntel,60.24096386,,,,,,,,,,,8,09,2,2,,,,,,,,,,,,,,,,,,,,,,,,,,,,,
637ef4d4e9abb3274bc1c925,SCN,2024-06-26_13h53.26.444,LearnStrategy,2023.2.3,MacIntel,60.24096386,,,,,,,,,,,4,09,2,3,,,,,,,,,,,,,,,,,,,,,,,,,,,,,
637ef4d4e9abb3274bc1c925,SCN,2024-06-26_13h53.26.444,LearnStrategy,2023.2.3,MacIntel,60.24096386,,,,,,,,,,,2,11,2,4,,,,,,,,,,,,,,,,,,,,,,,,,,,,,
637ef4d4e9abb3274bc1c925,SCN,2024-06-26_13h53.26.444,LearnStrategy,2023.2.3,MacIntel,60.24096386,,,,,,,,,,,4,05,2,5,,,,,,,,,,,,,,,,,,,,,,,,,,,,,
637ef4d4e9abb3274bc1c925,SCN,2024-06-26_13h53.26.444,LearnStrategy,2023.2.3,MacIntel,60.24096386,,,,,,,,,,,7,02,2,6,,,,,,,,,,,,,,,,,,,,,,,,,,,,,
637ef4d4e9abb3274bc1c925,SCN,2024-06-26_13h53.26.444,LearnStrategy,2023.2.3,MacIntel,60.24096386,,,,,,,,,,,8,06,2,7,,,,,,,,,,,,,,,,,,,,,,,,,,,,,
637ef4d4e9abb3274bc1c925,SCN,2024-06-26_13h53.26.444,LearnStrategy,2023.2.3,MacIntel,60.24096386,,,,,,,,,,,7,06,2,8,,,,,,,,,,,,,,,,,,,,,,,,,,,,,
637ef4d4e9abb3274bc1c925,SCN,2024-06-26_13h53.26.444,LearnStrategy,2023.2.3,MacIntel,60.24096386,,,,,,,,,,,1,14,3,1,,,,,,,,,,,,,,,,,,,,,,,,,,,,,
637ef4d4e9abb3274bc1c925,SCN,2024-06-26_13h53.26.444,LearnStrategy,2023.2.3,MacIntel,60.24096386,,,,,,,,,,,4,14,3,2,,,,,,,,,,,,,,,,,,,,,,,,,,,,,
637ef4d4e9abb3274bc1c925,SCN,2024-06-26_13h53.26.444,LearnStrategy,2023.2.3,MacIntel,60.24096386,,,,,,,,,,,2,05,3,3,,,,,,,,,,,,,,,,,,,,,,,,,,,,,
637ef4d4e9abb3274bc1c925,SCN,2024-06-26_13h53.26.444,LearnStrategy,2023.2.3,MacIntel,60.24096386,,,,,,,,,,,4,16,3,4,,,,,,,,,,,,,,,,,,,,,,,,,,,,,
637ef4d4e9abb3274bc1c925,SCN,2024-06-26_13h53.26.444,LearnStrategy,2023.2.3,MacIntel,60.24096386,,,,,,,,,,,2,08,3,5,,,,,,,,,,,,,,,,,,,,,,,,,,,,,
637ef4d4e9abb3274bc1c925,SCN,2024-06-26_13h53.26.444,LearnStrategy,2023.2.3,MacIntel,60.24096386,,,,,,,,,,,1,11,3,6,,,,,,,,,,,,,,,,,,,,,,,,,,,,,
637ef4d4e9abb3274bc1c925,SCN,2024-06-26_13h53.26.444,LearnStrategy,2023.2.3,MacIntel,60.24096386,,,,,,,,,,,1,16,3,7,,,,,,,,,,,,,,,,,,,,,,,,,,,,,
637ef4d4e9abb3274bc1c925,SCN,2024-06-26_13h53.26.444,LearnStrategy,2023.2.3,MacIntel,60.24096386,,,,,,,,,,,4,11,3,8,,,,,,,,,,,,,,,,,,,,,,,,,,,,,
637ef4d4e9abb3274bc1c925,SCN,2024-06-26_13h53.26.444,LearnStrategy,2023.2.3,MacIntel,60.24096386,,,,,,,,,,,1,07,4,1,,,,,,,,,,,,,,,,,,,,,,,,,,,,,
637ef4d4e9abb3274bc1c925,SCN,2024-06-26_13h53.26.444,LearnStrategy,2023.2.3,MacIntel,60.24096386,,,,,,,,,,,7,16,4,2,,,,,,,,,,,,,,,,,,,,,,,,,,,,,
637ef4d4e9abb3274bc1c925,SCN,2024-06-26_13h53.26.444,LearnStrategy,2023.2.3,MacIntel,60.24096386,,,,,,,,,,,4,03,4,3,,,,,,,,,,,,,,,,,,,,,,,,,,,,,
637ef4d4e9abb3274bc1c925,SCN,2024-06-26_13h53.26.444,LearnStrategy,2023.2.3,MacIntel,60.24096386,,,,,,,,,,,5,04,4,4,,,,,,,,,,,,,,,,,,,,,,,,,,,,,
637ef4d4e9abb3274bc1c925,SCN,2024-06-26_13h53.26.444,LearnStrategy,2023.2.3,MacIntel,60.24096386,,,,,,,,,,,1,04,4,5,,,,,,,,,,,,,,,,,,,,,,,,,,,,,
637ef4d4e9abb3274bc1c925,SCN,2024-06-26_13h53.26.444,LearnStrategy,2023.2.3,MacIntel,60.24096386,,,,,,,,,,,3,10,4,6,,,,,,,,,,,,,,,,,,,,,,,,,,,,,
637ef4d4e9abb3274bc1c925,SCN,2024-06-26_13h53.26.444,LearnStrategy,2023.2.3,MacIntel,60.24096386,,,,,,,,,,,6,10,4,7,,,,,,,,,,,,,,,,,,,,,,,,,,,,,
637ef4d4e9abb3274bc1c925,SCN,2024-06-26_13h53.26.444,LearnStrategy,2023.2.3,MacIntel,60.24096386,,,,,,,,,,,3,13,4,8,,,,,,,,,,,,,,,,,,,,,,,,,,,,,
637ef4d4e9abb3274bc1c925,SCN,2024-06-26_13h53.26.444,LearnStrategy,2023.2.3,MacIntel,60.24096386,,,,,,,,,,,6,05,5,1,,,,,,,,,,,,,,,,,,,,,,,,,,,,,
637ef4d4e9abb3274bc1c925,SCN,2024-06-26_13h53.26.444,LearnStrategy,2023.2.3,MacIntel,60.24096386,,,,,,,,,,,3,14,5,2,,,,,,,,,,,,,,,,,,,,,,,,,,,,,
637ef4d4e9abb3274bc1c925,SCN,2024-06-26_13h53.26.444,LearnStrategy,2023.2.3,MacIntel,60.24096386,,,,,,,,,,,6,16,5,3,,,,,,,,,,,,,,,,,,,,,,,,,,,,,
637ef4d4e9abb3274bc1c925,SCN,2024-06-26_13h53.26.444,LearnStrategy,2023.2.3,MacIntel,60.24096386,,,,,,,,,,,6,11,5,4,,,,,,,,,,,,,,,,,,,,,,,,,,,,,
637ef4d4e9abb3274bc1c925,SCN,2024-06-26_13h53.26.444,LearnStrategy,2023.2.3,MacIntel,60.24096386,,,,,,,,,,,6,08,5,5,,,,,,,,,,,,,,,,,,,,,,,,,,,,,
637ef4d4e9abb3274bc1c925,SCN,2024-06-26_13h53.26.444,LearnStrategy,2023.2.3,MacIntel,60.24096386,,,,,,,,,,,7,04,5,6,,,,,,,,,,,,,,,,,,,,,,,,,,,,,
637ef4d4e9abb3274bc1c925,SCN,2024-06-26_13h53.26.444,LearnStrategy,2023.2.3,MacIntel,60.24096386,,,,,,,,,,,7,08,5,7,,,,,,,,,,,,,,,,,,,,,,,,,,,,,
637ef4d4e9abb3274bc1c925,SCN,2024-06-26_13h53.26.444,LearnStrategy,2023.2.3,MacIntel,60.24096386,,,,,,,,,,,8,14,5,8,,,,,,,,,,,,,,,,,,,,,,,,,,,,,
637ef4d4e9abb3274bc1c925,SCN,2024-06-26_13h53.26.444,LearnStrategy,2023.2.3,MacIntel,60.24096386,,,,,,,,,,,3,07,6,1,,,,,,,,,,,,,,,,,,,,,,,,,,,,,
637ef4d4e9abb3274bc1c925,SCN,2024-06-26_13h53.26.444,LearnStrategy,2023.2.3,MacIntel,60.24096386,,,,,,,,,,,1,09,6,2,,,,,,,,,,,,,,,,,,,,,,,,,,,,,
637ef4d4e9abb3274bc1c925,SCN,2024-06-26_13h53.26.444,LearnStrategy,2023.2.3,MacIntel,60.24096386,,,,,,,,,,,5,16,6,3,,,,,,,,,,,,,,,,,,,,,,,,,,,,,
637ef4d4e9abb3274bc1c925,SCN,2024-06-26_13h53.26.444,LearnStrategy,2023.2.3,MacIntel,60.24096386,,,,,,,,,,,2,10,6,4,,,,,,,,,,,,,,,,,,,,,,,,,,,,,
637ef4d4e9abb3274bc1c925,SCN,2024-06-26_13h53.26.444,LearnStrategy,2023.2.3,MacIntel,60.24096386,,,,,,,,,,,5,10,6,5,,,,,,,,,,,,,,,,,,,,,,,,,,,,,
637ef4d4e9abb3274bc1c925,SCN,2024-06-26_13h53.26.444,LearnStrategy,2023.2.3,MacIntel,60.24096386,,,,,,,,,,,5,07,6,6,,,,,,,,,,,,,,,,,,,,,,,,,,,,,
637ef4d4e9abb3274bc1c925,SCN,2024-06-26_13h53.26.444,LearnStrategy,2023.2.3,MacIntel,60.24096386,,,,,,,,,,,3,06,6,7,,,,,,,,,,,,,,,,,,,,,,,,,,,,,
637ef4d4e9abb3274bc1c925,SCN,2024-06-26_13h53.26.444,LearnStrategy,2023.2.3,MacIntel,60.24096386,,,,,,,,,,,8,02,6,8,,,,,,,,,,,,,,,,,,,,,,,,,,,,,