participant,condition,date,expName,psychopyVersion,OS,frameRate,block,phase,trial,learn_mouse.x,learn_mouse.y,learn_mouse.leftButton,learn_mouse.midButton,learn_mouse.rightButton,learn_mouse.time,learn_mouse.clicked_name,cat,token,row,col,t_select,cat_rec,token_rec,cat_mouse_l.x,cat_mouse_l.y,cat_mouse_l.leftButton,cat_mouse_l.midButton,cat_mouse_l.rightButton,cat_mouse_l.time,cat_mouse_l.clicked_name,resp,t_resp,corr,train_trials.thisRepN,train_trials.thisTrialN,train_trials.thisN,train_trials.thisIndex,train_trials.ran,cat_mouse_t.x,cat_mouse_t.y,cat_mouse_t.leftButton,cat_mouse_t.midButton,cat_mouse_t.rightButton,cat_mouse_t.time,cat_mouse_t.clicked_name,test_trials.thisRepN,test_trials.thisTrialN,test_trials.thisN,test_trials.thisIndex,test_trials.ran,Bonus
63bc9e8cd8106f8d94c636d4,SCR,2024-06-25_14h22.16.993,LearnStrategy,2023.2.3,MacIntel,63.29113924,,,,,,,,,,,,,,,,,,,,,,,,,,,,,,,,,,,,,,,,,,,,,
63bc9e8cd8106f8d94c636d4,SCR,2024-06-25_14h22.16.993,LearnStrategy,2023.2.3,MacIntel,63.29113924,1,1,1,0.404127333,-0.099151747,1,0,0,3.3696,Peridotite_13,7,13,3,7,3.37,7,13,-0.100830078,-0.384663832,1,0,0,12.7121,Pegmatite_rect,6,12.712,0,0,0,0,0,1,,,,,,,,,,,,,
63bc9e8cd8106f8d94c636d4,SCR,2024-06-25_14h22.16.993,LearnStrategy,2023.2.3,MacIntel,63.29113924,1,1,2,0.093320177,0.418119693,1,0,0,5.8312,Obsidian_11,5,11,6,5,5.831,5,11,-0.345639784,-0.38861613,1,0,0,4.9894,Obsidian_rect,5,4.989,1,1,0,1,0,1,,,,,,,,,,,,,
63bc9e8cd8106f8d94c636d4,SCR,2024-06-25_14h22.16.993,LearnStrategy,2023.2.3,MacIntel,63.29113924,1,1,3,-0.395539822,-0.385911255,1,0,0,3.4145,Andesite_10,1,10,1,2,3.415,1,10,-0.153672418,-0.250397407,1,0,0,6.0432,Basalt_rect,2,6.043,0,2,0,2,0,1,,,,,,,,,,,,,
63bc9e8cd8106f8d94c636d4,SCR,2024-06-25_14h22.16.993,LearnStrategy,2023.2.3,MacIntel,63.29113924,1,1,4,-0.380072191,0.091073134,1,0,0,1.5869,Diorite_11,3,11,4,2,1.587,3,11,-0.185810343,-0.265417345,1,0,0,8.0244,Basalt_rect,2,8.024,0,3,0,3,0,1,,,,,,,,,,,,,
63bc9e8cd8106f8d94c636d4,SCR,2024-06-25_14h22.16.993,LearnStrategy,2023.2.3,MacIntel,63.29113924,1,1,5,-0.262197266,0.427170987,1,0,0,3.3164,Pegmatite_15,6,15,6,3,3.316,6,15,-0.171867744,-0.255630697,1,0,0,6.2392,Basalt_rect,2,6.239,0,4,0,4,0,1,,,,,,,,,,,,,
63bc9e8cd8106f8d94c636d4,SCR,2024-06-25_14h22.16.993,LearnStrategy,2023.2.3,MacIntel,63.29113924,1,1,6,0.540823161,-0.081527507,1,0,0,1.3171,Peridotite_16,7,16,3,8,1.317,7,16,0.130623033,-0.409481676,1,0,0,5.5384,Peridotite_rect,7,5.538,1,5,0,5,0,1,,,,,,,,,,,,,
63bc9e8cd8106f8d94c636d4,SCR,2024-06-25_14h22.16.993,LearnStrategy,2023.2.3,MacIntel,63.29113924,1,1,7,0.534273275,-0.403466797,1,0,0,5.3847,Basalt_11,2,11,1,8,5.385,2,11,-0.381140238,-0.264459229,1,0,0,5.6593,Andesite_rect,1,5.659,0,6,0,6,0,1,,,,,,,,,,,,,
63bc9e8cd8106f8d94c636d4,SCR,2024-06-25_14h22.16.993,LearnStrategy,2023.2.3,MacIntel,63.29113924,1,1,8,0.092482435,0.25541136,1,0,0,1.7981,Gabbro_05,4,05,5,5,1.798,4,05,0.389309625,-0.241566366,1,0,0,5.1769,Gabbro_rect,4,5.177,1,7,0,7,0,1,,,,,,,,,,,,,
63bc9e8cd8106f8d94c636d4,SCR,2024-06-25_14h22.16.993,LearnStrategy,2023.2.3,MacIntel,63.29113924,1,1,9,0.407771403,-0.405862223,1,0,0,1.7012,Obsidian_12,5,12,1,7,1.701,5,12,-0.350563422,-0.390236952,1,0,0,2.4654,Obsidian_rect,5,2.465,1,8,0,8,0,1,,,,,,,,,,,,,
63bc9e8cd8106f8d94c636d4,SCR,2024-06-25_14h22.16.993,LearnStrategy,2023.2.3,MacIntel,63.29113924,1,1,10,-0.357508443,-0.100767076,1,0,0,1.5629,Gabbro_03,4,03,3,2,1.563,4,03,-0.153230184,-0.24108941,1,0,0,2.1532,Basalt_rect,2,2.153,0,9,0,9,0,1,,,,,,,,,,,,,
63bc9e8cd8106f8d94c636d4,SCR,2024-06-25_14h22.16.993,LearnStrategy,2023.2.3,MacIntel,63.29113924,1,1,11,0.076603054,-0.102468533,1,0,0,1.7006,Diorite_10,3,10,3,5,1.701,3,10,-0.164781291,-0.264233263,1,0,0,3.3033,Basalt_rect,2,3.303,0,10,0,10,0,1,,,,,,,,,,,,,
63bc9e8cd8106f8d94c636d4,SCR,2024-06-25_14h22.16.993,LearnStrategy,2023.2.3,MacIntel,63.29113924,1,1,12,0.565783149,-0.269943644,1,0,0,1.1979,Andesite_11,1,11,2,8,1.198,1,11,-0.384588148,-0.263247952,1,0,0,5.9297,Andesite_rect,1,5.93,1,11,0,11,0,1,,,,,,,,,,,,,
63bc9e8cd8106f8d94c636d4,SCR,2024-06-25_14h22.16.993,LearnStrategy,2023.2.3,MacIntel,63.29113924,1,1,13,-0.377330661,0.251335466,1,0,0,1.5473,Pumice_04,8,04,5,2,1.547,8,04,0.334980401,-0.383906657,1,0,0,1.884,Pumice_rect,8,1.884,1,12,0,12,0,1,,,,,,,,,,,,,
63bc9e8cd8106f8d94c636d4,SCR,2024-06-25_14h22.16.993,LearnStrategy,2023.2.3,MacIntel,63.29113924,1,1,14,-0.083037923,0.082811279,1,0,0,1.1345,Pegmatite_13,6,13,4,4,1.135,6,13,-0.119743991,-0.393128798,1,0,0,4.5082,Pegmatite_rect,6,4.508,1,13,0,13,0,1,,,,,,,,,,,,,
63bc9e8cd8106f8d94c636d4,SCR,2024-06-25_14h22.16.993,LearnStrategy,2023.2.3,MacIntel,63.29113924,1,1,15,-0.242087335,0.125110711,1,0,0,1.0815,Basalt_14,2,14,4,3,1.082,2,14,-0.379723375,-0.246623332,1,0,0,9.8617,Andesite_rect,1,9.862,0,14,0,14,0,1,,,,,,,,,,,,,
63bc9e8cd8106f8d94c636d4,SCR,2024-06-25_14h22.16.993,LearnStrategy,2023.2.3,MacIntel,63.29113924,1,1,16,0.246765408,0.105445489,1,0,0,1.1428,Pumice_09,8,09,4,6,1.143,8,09,0.350668132,-0.399029405,1,0,0,1.8223,Pumice_rect,8,1.822,1,15,0,15,0,1,,,,,,,,,,,,,
63bc9e8cd8106f8d94c636d4,SCR,2024-06-25_14h22.16.993,LearnStrategy,2023.2.3,MacIntel,63.29113924,1,2,1,,,,,,,,3,07,,,,,,,,,,,,,3,2.668,1,,,,,,0.162530314,-0.237048475,1,0,0,2.668,Diorite_rect,0,0,0,0,1,
63bc9e8cd8106f8d94c636d4,SCR,2024-06-25_14h22.16.993,LearnStrategy,2023.2.3,MacIntel,63.29113924,1,2,2,,,,,,,,5,05,,,,,,,,,,,,,5,3.083,1,,,,,,-0.328180339,-0.398546075,1,0,0,3.083,Obsidian_rect,1,0,1,0,1,
63bc9e8cd8106f8d94c636d4,SCR,2024-06-25_14h22.16.993,LearnStrategy,2023.2.3,MacIntel,63.29113924,1,2,3,,,,,,,,6,07,,,,,,,,,,,,,4,8.413,0,,,,,,0.31707194,-0.249283312,1,0,0,8.4126,Gabbro_rect,2,0,2,0,1,
63bc9e8cd8106f8d94c636d4,SCR,2024-06-25_14h22.16.993,LearnStrategy,2023.2.3,MacIntel,63.29113924,1,2,4,,,,,,,,8,02,,,,,,,,,,,,,8,2.145,1,,,,,,0.339626465,-0.410833876,1,0,0,2.1454,Pumice_rect,3,0,3,0,1,
63bc9e8cd8106f8d94c636d4,SCR,2024-06-25_14h22.16.993,LearnStrategy,2023.2.3,MacIntel,63.29113924,1,2,5,,,,,,,,2,12,,,,,,,,,,,,,4,4.347,0,,,,,,0.428959283,-0.269364217,1,0,0,4.3467,Gabbro_rect,4,0,4,0,1,
63bc9e8cd8106f8d94c636d4,SCR,2024-06-25_14h22.16.993,LearnStrategy,2023.2.3,MacIntel,63.29113924,1,2,6,,,,,,,,6,06,,,,,,,,,,,,,6,3.027,1,,,,,,-0.080925157,-0.402372911,1,0,0,3.0267,Pegmatite_rect,5,0,5,0,1,
63bc9e8cd8106f8d94c636d4,SCR,2024-06-25_14h22.16.993,LearnStrategy,2023.2.3,MacIntel,63.29113924,1,2,7,,,,,,,,1,04,,,,,,,,,,,,,1,2.951,1,,,,,,-0.380780504,-0.24079522,1,0,0,2.9511,Andesite_rect,6,0,6,0,1,
63bc9e8cd8106f8d94c636d4,SCR,2024-06-25_14h22.16.993,LearnStrategy,2023.2.3,MacIntel,63.29113924,1,2,8,,,,,,,,7,10,,,,,,,,,,,,,7,5.026,1,,,,,,0.157447917,-0.406688639,1,0,0,5.0256,Peridotite_rect,7,0,7,0,1,
63bc9e8cd8106f8d94c636d4,SCR,2024-06-25_14h22.16.993,LearnStrategy,2023.2.3,MacIntel,63.29113924,1,2,9,,,,,,,,7,15,,,,,,,,,,,,,7,1.033,1,,,,,,0.157447917,-0.406688639,1,0,0,1.0325,Peridotite_rect,8,0,8,0,1,
63bc9e8cd8106f8d94c636d4,SCR,2024-06-25_14h22.16.993,LearnStrategy,2023.2.3,MacIntel,63.29113924,1,2,10,,,,,,,,4,13,,,,,,,,,,,,,5,4.336,0,,,,,,-0.348768378,-0.405076023,1,0,0,4.3361,Obsidian_rect,9,0,9,0,1,
63bc9e8cd8106f8d94c636d4,SCR,2024-06-25_14h22.16.993,LearnStrategy,2023.2.3,MacIntel,63.29113924,1,2,11,,,,,,,,3,06,,,,,,,,,,,,,4,3.511,0,,,,,,0.37901123,-0.243419529,1,0,0,3.5107,Gabbro_rect,10,0,10,0,1,
63bc9e8cd8106f8d94c636d4,SCR,2024-06-25_14h22.16.993,LearnStrategy,2023.2.3,MacIntel,63.29113924,1,2,12,,,,,,,,8,16,,,,,,,,,,,,,3,1.418,0,,,,,,0.096708645,-0.242300279,1,0,0,1.4183,Diorite_rect,11,0,11,0,1,
63bc9e8cd8106f8d94c636d4,SCR,2024-06-25_14h22.16.993,LearnStrategy,2023.2.3,MacIntel,63.29113924,1,2,13,,,,,,,,4,09,,,,,,,,,,,,,5,1.845,0,,,,,,-0.409871962,-0.410810004,1,0,0,1.8446,Obsidian_rect,12,0,12,0,1,
63bc9e8cd8106f8d94c636d4,SCR,2024-06-25_14h22.16.993,LearnStrategy,2023.2.3,MacIntel,63.29113924,1,2,14,,,,,,,,1,07,,,,,,,,,,,,,1,2.03,1,,,,,,-0.348754679,-0.265016208,1,0,0,2.0304,Andesite_rect,13,0,13,0,1,
63bc9e8cd8106f8d94c636d4,SCR,2024-06-25_14h22.16.993,LearnStrategy,2023.2.3,MacIntel,63.29113924,1,2,15,,,,,,,,5,07,,,,,,,,,,,,,6,3.493,0,,,,,,-0.083343641,-0.390882772,1,0,0,3.4926,Pegmatite_rect,14,0,14,0,1,
63bc9e8cd8106f8d94c636d4,SCR,2024-06-25_14h22.16.993,LearnStrategy,2023.2.3,MacIntel,63.29113924,1,2,16,,,,,,,,2,05,,,,,,,,,,,,,4,3.582,0,,,,,,0.37326633,-0.248830838,1,0,0,3.5815,Gabbro_rect,15,0,15,0,1,
63bc9e8cd8106f8d94c636d4,SCR,2024-06-25_14h22.16.993,LearnStrategy,2023.2.3,MacIntel,63.29113924,2,1,1,0.56260376,0.091430189,1,0,0,7.6112,Pumice_13,8,13,4,8,7.611,8,13,0.420200602,-0.228178033,1,0,0,3.0327,Gabbro_rect,4,3.033,0,0,0,0,0,1,,,,,,,,,,,,,
63bc9e8cd8106f8d94c636d4,SCR,2024-06-25_14h22.16.993,LearnStrategy,2023.2.3,MacIntel,63.29113924,2,1,2,0.058842638,0.393575999,1,0,0,15.1923,Obsidian_11,5,11,6,5,15.192,5,11,-0.420463562,-0.408531833,1,0,0,1.938,Obsidian_rect,5,1.938,1,1,0,1,0,1,,,,,,,,,,,,,
63bc9e8cd8106f8d94c636d4,SCR,2024-06-25_14h22.16.993,LearnStrategy,2023.2.3,MacIntel,63.29113924,2,1,3,0.211952379,0.268039534,1,0,0,1.1731,Basalt_09,2,09,5,6,1.173,2,09,0.145564372,-0.238859321,1,0,0,1.9478,Diorite_rect,3,1.948,0,2,0,2,0,1,,,,,,,,,,,,,
63bc9e8cd8106f8d94c636d4,SCR,2024-06-25_14h22.16.993,LearnStrategy,2023.2.3,MacIntel,63.29113924,2,1,4,0.253021986,-0.104598796,1,0,0,1.8861,Diorite_12,3,12,3,6,1.886,3,12,0.498160672,-0.26021247,1,0,0,2.2364,Gabbro_rect,4,2.236,0,3,0,3,0,1,,,,,,,,,,,,,
63bc9e8cd8106f8d94c636d4,SCR,2024-06-25_14h22.16.993,LearnStrategy,2023.2.3,MacIntel,63.29113924,2,1,5,-0.233306851,0.391495175,1,0,0,1.5822,Pegmatite_15,6,15,6,3,1.582,6,15,-0.361509603,-0.246967977,1,0,0,2.0304,Andesite_rect,1,2.03,0,4,0,4,0,1,,,,,,,,,,,,,
63bc9e8cd8106f8d94c636d4,SCR,2024-06-25_14h22.16.993,LearnStrategy,2023.2.3,MacIntel,63.29113924,2,1,6,0.39825982,0.384610291,1,0,0,3.7824,Basalt_01,2,01,6,7,3.782,2,01,-0.103278944,-0.235348579,1,0,0,4.1951,Basalt_rect,2,4.195,1,5,0,5,0,1,,,,,,,,,,,,,
63bc9e8cd8106f8d94c636d4,SCR,2024-06-25_14h22.16.993,LearnStrategy,2023.2.3,MacIntel,63.29113924,2,1,7,0.108519016,-0.291288995,1,0,0,3.7674,Peridotite_12,7,12,2,5,3.767,5,09,-0.065486179,-0.39773641,1,0,0,4.645,Pegmatite_rect,6,4.645,0,6,0,6,0,1,,,,,,,,,,,,,
63bc9e8cd8106f8d94c636d4,SCR,2024-06-25_14h22.16.993,LearnStrategy,2023.2.3,MacIntel,63.29113924,2,1,8,-0.581108805,-0.120591159,1,0,0,1.4964,Gabbro_16,4,16,3,1,1.496,4,16,0.374755317,-0.239558445,1,0,0,22.8237,Gabbro_rect,4,22.824,1,7,0,7,0,1,,,,,,,,,,,,,
63bc9e8cd8106f8d94c636d4,SCR,2024-06-25_14h22.16.993,LearnStrategy,2023.2.3,MacIntel,63.29113924,2,1,9,0.40193278,0.094701402,1,0,0,1.8681,Pumice_15,8,15,4,7,1.868,8,15,0.389318305,-0.409375543,1,0,0,1.5642,Pumice_rect,8,1.564,1,8,0,8,0,1,,,,,,,,,,,,,
63bc9e8cd8106f8d94c636d4,SCR,2024-06-25_14h22.16.993,LearnStrategy,2023.2.3,MacIntel,63.29113924,2,1,10,0.570907118,-0.439894409,1,0,0,1.8656,Basalt_11,2,11,1,8,1.866,2,11,-0.317232666,-0.26495029,1,0,0,15.5753,Andesite_rect,1,15.575,0,9,0,9,0,1,,,,,,,,,,,,,
63bc9e8cd8106f8d94c636d4,SCR,2024-06-25_14h22.16.993,LearnStrategy,2023.2.3,MacIntel,63.29113924,2,1,11,-0.405610894,-0.0869104,1,0,0,1.3858,Gabbro_03,4,03,3,2,1.386,4,03,0.044023505,-0.256300117,1,0,0,4.5717,Diorite_rect,3,4.572,0,10,0,10,0,1,,,,,,,,,,,,,
63bc9e8cd8106f8d94c636d4,SCR,2024-06-25_14h22.16.993,LearnStrategy,2023.2.3,MacIntel,63.29113924,2,1,12,-0.236741333,0.285460917,1,0,0,1.2476,Gabbro_08,4,08,5,3,1.248,4,08,0.365248345,-0.243689236,1,0,0,4.4554,Gabbro_rect,4,4.455,1,11,0,11,0,1,,,,,,,,,,,,,
63bc9e8cd8106f8d94c636d4,SCR,2024-06-25_14h22.16.993,LearnStrategy,2023.2.3,MacIntel,63.29113924,2,1,13,0.370721707,-0.284731988,1,0,0,1.1296,Peridotite_14,7,14,2,7,1.13,7,14,0.356938883,-0.257634888,1,0,0,7.1854,Gabbro_rect,4,7.185,0,12,0,12,0,1,,,,,,,,,,,,,
63bc9e8cd8106f8d94c636d4,SCR,2024-06-25_14h22.16.993,LearnStrategy,2023.2.3,MacIntel,63.29113924,2,1,14,0.068944973,-0.114670342,1,0,0,1.0545,Diorite_10,3,10,3,5,1.055,3,10,0.100293308,-0.263282471,1,0,0,9.396,Diorite_rect,3,9.396,1,13,0,13,0,1,,,,,,,,,,,,,
63bc9e8cd8106f8d94c636d4,SCR,2024-06-25_14h22.16.993,LearnStrategy,2023.2.3,MacIntel,63.29113924,2,1,15,-0.068356527,0.092283359,1,0,0,4.1183,Pegmatite_13,6,13,4,4,4.118,6,15,-0.412373928,-0.265324571,1,0,0,15.4279,Andesite_rect,1,15.428,0,14,0,14,0,1,,,,,,,,,,,,,
63bc9e8cd8106f8d94c636d4,SCR,2024-06-25_14h22.16.993,LearnStrategy,2023.2.3,MacIntel,63.29113924,2,1,16,0.070775486,0.278997565,1,0,0,1.1019,Gabbro_05,4,05,5,5,1.102,4,05,-0.069333767,-0.409855889,1,0,0,9.9108,Pegmatite_rect,6,9.911,0,15,0,15,0,1,,,,,,,,,,,,,
63bc9e8cd8106f8d94c636d4,SCR,2024-06-25_14h22.16.993,LearnStrategy,2023.2.3,MacIntel,63.29113924,2,2,1,,,,,,,,8,05,,,,,,,,,,,,,8,4.162,1,,,,,,0.325615099,-0.407018772,1,0,0,4.1621,Pumice_rect,0,0,0,0,1,
63bc9e8cd8106f8d94c636d4,SCR,2024-06-25_14h22.16.993,LearnStrategy,2023.2.3,MacIntel,63.29113924,2,2,2,,,,,,,,2,16,,,,,,,,,,,,,4,6.976,0,,,,,,0.348618978,-0.245651584,1,0,0,6.9764,Gabbro_rect,1,0,1,0,1,
63bc9e8cd8106f8d94c636d4,SCR,2024-06-25_14h22.16.993,LearnStrategy,2023.2.3,MacIntel,63.29113924,2,2,3,,,,,,,,3,08,,,,,,,,,,,,,3,11.209,1,,,,,,0.185973918,-0.246745945,1,0,0,11.2092,Diorite_rect,2,0,2,0,1,
63bc9e8cd8106f8d94c636d4,SCR,2024-06-25_14h22.16.993,LearnStrategy,2023.2.3,MacIntel,63.29113924,2,2,4,,,,,,,,4,01,,,,,,,,,,,,,2,3.178,0,,,,,,-0.170498793,-0.237144572,1,0,0,3.1775,Basalt_rect,3,0,3,0,1,
63bc9e8cd8106f8d94c636d4,SCR,2024-06-25_14h22.16.993,LearnStrategy,2023.2.3,MacIntel,63.29113924,2,2,5,,,,,,,,8,08,,,,,,,,,,,,,8,2.305,1,,,,,,0.323039958,-0.387360772,1,0,0,2.3054,Pumice_rect,4,0,4,0,1,
63bc9e8cd8106f8d94c636d4,SCR,2024-06-25_14h22.16.993,LearnStrategy,2023.2.3,MacIntel,63.29113924,2,2,6,,,,,,,,6,12,,,,,,,,,,,,,6,6.166,1,,,,,,-0.086355387,-0.405072089,1,0,0,6.1663,Pegmatite_rect,5,0,5,0,1,
63bc9e8cd8106f8d94c636d4,SCR,2024-06-25_14h22.16.993,LearnStrategy,2023.2.3,MacIntel,63.29113924,2,2,7,,,,,,,,2,04,,,,,,,,,,,,,5,2.899,0,,,,,,-0.369292467,-0.419167277,1,0,0,2.8991,Obsidian_rect,6,0,6,0,1,
63bc9e8cd8106f8d94c636d4,SCR,2024-06-25_14h22.16.993,LearnStrategy,2023.2.3,MacIntel,63.29113924,2,2,8,,,,,,,,1,02,,,,,,,,,,,,,6,8.509,0,,,,,,-0.076270277,-0.403415731,1,0,0,8.5085,Pegmatite_rect,7,0,7,0,1,
63bc9e8cd8106f8d94c636d4,SCR,2024-06-25_14h22.16.993,LearnStrategy,2023.2.3,MacIntel,63.29113924,2,2,9,,,,,,,,3,16,,,,,,,,,,,,,1,13.494,0,,,,,,-0.347943454,-0.236328939,1,0,0,13.4943,Andesite_rect,8,0,8,0,1,
63bc9e8cd8106f8d94c636d4,SCR,2024-06-25_14h22.16.993,LearnStrategy,2023.2.3,MacIntel,63.29113924,2,2,10,,,,,,,,5,06,,,,,,,,,,,,,5,3.642,1,,,,,,-0.405822957,-0.383468357,1,0,0,3.6417,Obsidian_rect,9,0,9,0,1,
63bc9e8cd8106f8d94c636d4,SCR,2024-06-25_14h22.16.993,LearnStrategy,2023.2.3,MacIntel,63.29113924,2,2,11,,,,,,,,7,04,,,,,,,,,,,,,7,4.853,1,,,,,,0.076050958,-0.415937093,1,0,0,4.853,Peridotite_rect,10,0,10,0,1,
63bc9e8cd8106f8d94c636d4,SCR,2024-06-25_14h22.16.993,LearnStrategy,2023.2.3,MacIntel,63.29113924,2,2,12,,,,,,,,7,08,,,,,,,,,,,,,7,1.051,1,,,,,,0.079958835,-0.41235338,1,0,0,1.0507,Peridotite_rect,11,0,11,0,1,
63bc9e8cd8106f8d94c636d4,SCR,2024-06-25_14h22.16.993,LearnStrategy,2023.2.3,MacIntel,63.29113924,2,2,13,,,,,,,,5,04,,,,,,,,,,,,,5,1.203,1,,,,,,-0.329375475,-0.410591295,1,0,0,1.2035,Obsidian_rect,12,0,12,0,1,
63bc9e8cd8106f8d94c636d4,SCR,2024-06-25_14h22.16.993,LearnStrategy,2023.2.3,MacIntel,63.29113924,2,2,14,,,,,,,,1,05,,,,,,,,,,,,,4,6.637,0,,,,,,0.302077637,-0.256464098,1,0,0,6.6369,Gabbro_rect,13,0,13,0,1,
63bc9e8cd8106f8d94c636d4,SCR,2024-06-25_14h22.16.993,LearnStrategy,2023.2.3,MacIntel,63.29113924,2,2,15,,,,,,,,6,10,,,,,,,,,,,,,7,2.051,0,,,,,,0.150541653,-0.40614563,1,0,0,2.0505,Peridotite_rect,14,0,14,0,1,
63bc9e8cd8106f8d94c636d4,SCR,2024-06-25_14h22.16.993,LearnStrategy,2023.2.3,MacIntel,63.29113924,2,2,16,,,,,,,,4,11,,,,,,,,,,,,,2,6.046,0,,,,,,-0.140446099,-0.258338013,1,0,0,6.0458,Basalt_rect,15,0,15,0,1,
63bc9e8cd8106f8d94c636d4,SCR,2024-06-25_14h22.16.993,LearnStrategy,2023.2.3,MacIntel,63.29113924,3,1,1,-0.575352461,-0.102818943,1,0,0,1.716,Gabbro_16,4,16,3,1,1.716,4,16,0.452450358,-0.256761,1,0,0,2.1773,Gabbro_rect,4,2.177,1,0,0,0,0,1,,,,,,,,,,,,,
63bc9e8cd8106f8d94c636d4,SCR,2024-06-25_14h22.16.993,LearnStrategy,2023.2.3,MacIntel,63.29113924,3,1,2,-0.225678643,0.240478041,1,0,0,1.3009,Gabbro_08,4,08,5,3,1.301,4,08,-0.098029175,-0.253153754,1,0,0,2.8592,Basalt_rect,2,2.859,0,1,0,1,0,1,,,,,,,,,,,,,
63bc9e8cd8106f8d94c636d4,SCR,2024-06-25_14h22.16.993,LearnStrategy,2023.2.3,MacIntel,63.29113924,3,1,3,0.232490573,-0.235474989,1,0,0,1.1497,Pegmatite_03,6,03,2,6,1.15,6,03,0.163942735,-0.385064494,1,0,0,3.3274,Peridotite_rect,7,3.327,0,2,0,2,0,1,,,,,,,,,,,,,
63bc9e8cd8106f8d94c636d4,SCR,2024-06-25_14h22.16.993,LearnStrategy,2023.2.3,MacIntel,63.29113924,3,1,4,-0.048578356,0.072861599,1,0,0,0.9206,Pegmatite_13,6,13,4,4,0.921,6,13,0.357205404,-0.27065979,1,0,0,10.3075,Gabbro_rect,4,10.308,0,3,0,3,0,1,,,,,,,,,,,,,
63bc9e8cd8106f8d94c636d4,SCR,2024-06-25_14h22.16.993,LearnStrategy,2023.2.3,MacIntel,63.29113924,3,1,5,0.557443848,-0.432886285,1,0,0,1.0593,Basalt_11,2,11,1,8,1.059,2,11,-0.107279799,-0.264233263,1,0,0,1.8698,Basalt_rect,2,1.87,1,4,0,4,0,1,,,,,,,,,,,,,
63bc9e8cd8106f8d94c636d4,SCR,2024-06-25_14h22.16.993,LearnStrategy,2023.2.3,MacIntel,63.29113924,3,1,6,0.03641744,-0.401827393,1,0,0,1.1192,Diorite_13,3,13,1,5,1.119,3,13,0.111823256,-0.238176202,1,0,0,7.0868,Diorite_rect,3,7.087,1,5,0,5,0,1,,,,,,,,,,,,,
63bc9e8cd8106f8d94c636d4,SCR,2024-06-25_14h22.16.993,LearnStrategy,2023.2.3,MacIntel,63.29113924,3,1,7,-0.247778931,0.100699972,1,0,0,1.7038,Basalt_14,2,14,4,3,1.704,2,14,0.324310099,-0.240886163,1,0,0,4.8429,Gabbro_rect,4,4.843,0,6,0,6,0,1,,,,,,,,,,,,,
63bc9e8cd8106f8d94c636d4,SCR,2024-06-25_14h22.16.993,LearnStrategy,2023.2.3,MacIntel,63.29113924,3,1,8,0.063618571,-0.096874593,1,0,0,1.0171,Diorite_10,3,10,3,5,1.017,3,10,0.141907756,-0.247901679,1,0,0,4.43,Diorite_rect,3,4.43,1,7,0,7,0,1,,,,,,,,,,,,,
63bc9e8cd8106f8d94c636d4,SCR,2024-06-25_14h22.16.993,LearnStrategy,2023.2.3,MacIntel,63.29113924,3,1,9,-0.385686137,0.262129076,1,0,0,1.2031,Pumice_04,8,04,5,2,1.203,8,04,0.304972873,-0.38894104,1,0,0,1.6884,Pumice_rect,8,1.688,1,8,0,8,0,1,,,,,,,,,,,,,
63bc9e8cd8106f8d94c636d4,SCR,2024-06-25_14h22.16.993,LearnStrategy,2023.2.3,MacIntel,63.29113924,3,1,10,0.056371392,0.087510715,1,0,0,0.9478,Andesite_03,1,03,4,5,0.948,1,03,0.411421984,-0.244626058,1,0,0,8.8043,Gabbro_rect,4,8.804,0,9,0,9,0,1,,,,,,,,,,,,,
63bc9e8cd8106f8d94c636d4,SCR,2024-06-25_14h22.16.993,LearnStrategy,2023.2.3,MacIntel,63.29113924,3,1,11,-0.396023831,-0.081411472,1,0,0,1.3197,Gabbro_03,4,03,3,2,1.32,4,03,-0.402162849,-0.247469211,1,0,0,1.7791,Andesite_rect,1,1.779,0,10,0,10,0,1,,,,,,,,,,,,,
63bc9e8cd8106f8d94c636d4,SCR,2024-06-25_14h22.16.993,LearnStrategy,2023.2.3,MacIntel,63.29113924,3,1,12,-0.387332696,-0.111323242,1,0,0,13.7618,Gabbro_03,4,03,3,2,13.762,4,03,-0.136926541,-0.254054837,1,0,0,3.5896,Basalt_rect,2,3.59,0,11,0,11,0,1,,,,,,,,,,,,,
63bc9e8cd8106f8d94c636d4,SCR,2024-06-25_14h22.16.993,LearnStrategy,2023.2.3,MacIntel,63.29113924,3,1,13,-0.260519206,-0.308001912,1,0,0,1.2469,Obsidian_16,5,16,2,3,1.247,5,16,-0.377066888,-0.405324097,1,0,0,0.7015,Obsidian_rect,5,0.701,1,12,0,12,0,1,,,,,,,,,,,,,
63bc9e8cd8106f8d94c636d4,SCR,2024-06-25_14h22.16.993,LearnStrategy,2023.2.3,MacIntel,63.29113924,3,1,14,0.544318169,-0.113966404,1,0,0,0.8652,Peridotite_16,7,16,3,8,0.865,7,16,0.112897068,-0.417445747,1,0,0,2.5018,Peridotite_rect,7,2.502,1,13,0,13,0,1,,,,,,,,,,,,,
63bc9e8cd8106f8d94c636d4,SCR,2024-06-25_14h22.16.993,LearnStrategy,2023.2.3,MacIntel,63.29113924,3,1,15,0.547973633,0.234174652,1,0,0,1.0037,Basalt_06,2,06,5,8,1.004,2,06,-0.082231988,-0.257575751,1,0,0,5.1713,Basalt_rect,2,5.171,1,14,0,14,0,1,,,,,,,,,,,,,
63bc9e8cd8106f8d94c636d4,SCR,2024-06-25_14h22.16.993,LearnStrategy,2023.2.3,MacIntel,63.29113924,3,1,16,0.422985162,0.286704525,1,0,0,1.0475,Andesite_16,1,16,5,7,1.047,1,16,-0.374262967,-0.232746921,1,0,0,4.4528,Andesite_rect,1,4.453,1,15,0,15,0,1,,,,,,,,,,,,,
63bc9e8cd8106f8d94c636d4,SCR,2024-06-25_14h22.16.993,LearnStrategy,2023.2.3,MacIntel,63.29113924,3,2,1,,,,,,,,3,02,,,,,,,,,,,,,3,5.976,1,,,,,,0.130975749,-0.264055515,1,0,0,5.9756,Diorite_rect,0,0,0,0,1,
63bc9e8cd8106f8d94c636d4,SCR,2024-06-25_14h22.16.993,LearnStrategy,2023.2.3,MacIntel,63.29113924,3,2,2,,,,,,,,1,14,,,,,,,,,,,,,1,3.817,1,,,,,,-0.35023702,-0.260046861,1,0,0,3.817,Andesite_rect,1,0,1,0,1,
63bc9e8cd8106f8d94c636d4,SCR,2024-06-25_14h22.16.993,LearnStrategy,2023.2.3,MacIntel,63.29113924,3,2,3,,,,,,,,6,11,,,,,,,,,,,,,5,5.341,0,,,,,,-0.353048503,-0.400378147,1,0,0,5.3405,Obsidian_rect,2,0,2,0,1,
63bc9e8cd8106f8d94c636d4,SCR,2024-06-25_14h22.16.993,LearnStrategy,2023.2.3,MacIntel,63.29113924,3,2,4,,,,,,,,8,14,,,,,,,,,,,,,8,1.796,1,,,,,,0.378213433,-0.413031277,1,0,0,1.7959,Pumice_rect,3,0,3,0,1,
63bc9e8cd8106f8d94c636d4,SCR,2024-06-25_14h22.16.993,LearnStrategy,2023.2.3,MacIntel,63.29113924,3,2,5,,,,,,,,6,08,,,,,,,,,,,,,6,6.119,1,,,,,,-0.157241753,-0.406668023,1,0,0,6.1185,Pegmatite_rect,4,0,4,0,1,
63bc9e8cd8106f8d94c636d4,SCR,2024-06-25_14h22.16.993,LearnStrategy,2023.2.3,MacIntel,63.29113924,3,2,6,,,,,,,,1,06,,,,,,,,,,,,,3,7.923,0,,,,,,0.095386827,-0.265788439,1,0,0,7.9233,Diorite_rect,5,0,5,0,1,
63bc9e8cd8106f8d94c636d4,SCR,2024-06-25_14h22.16.993,LearnStrategy,2023.2.3,MacIntel,63.29113924,3,2,7,,,,,,,,4,15,,,,,,,,,,,,,4,19.457,1,,,,,,0.352011719,-0.23390408,1,0,0,19.4568,Gabbro_rect,6,0,6,0,1,
63bc9e8cd8106f8d94c636d4,SCR,2024-06-25_14h22.16.993,LearnStrategy,2023.2.3,MacIntel,63.29113924,3,2,8,,,,,,,,2,02,,,,,,,,,,,,,4,17.181,0,,,,,,0.348825277,-0.262829454,1,0,0,17.1806,Gabbro_rect,7,0,7,0,1,
63bc9e8cd8106f8d94c636d4,SCR,2024-06-25_14h22.16.993,LearnStrategy,2023.2.3,MacIntel,63.29113924,3,2,9,,,,,,,,2,08,,,,,,,,,,,,,4,2.85,0,,,,,,0.41819553,-0.23635281,1,0,0,2.85,Gabbro_rect,8,0,8,0,1,
63bc9e8cd8106f8d94c636d4,SCR,2024-06-25_14h22.16.993,LearnStrategy,2023.2.3,MacIntel,63.29113924,3,2,10,,,,,,,,3,14,,,,,,,,,,,,,6,3.851,0,,,,,,-0.098947211,-0.397916734,1,0,0,3.8507,Pegmatite_rect,9,0,9,0,1,
63bc9e8cd8106f8d94c636d4,SCR,2024-06-25_14h22.16.993,LearnStrategy,2023.2.3,MacIntel,63.29113924,3,2,11,,,,,,,,7,07,,,,,,,,,,,,,7,1.119,1,,,,,,0.18599745,-0.404175212,1,0,0,1.1193,Peridotite_rect,10,0,10,0,1,
63bc9e8cd8106f8d94c636d4,SCR,2024-06-25_14h22.16.993,LearnStrategy,2023.2.3,MacIntel,63.29113924,3,2,12,,,,,,,,5,10,,,,,,,,,,,,,5,1.467,1,,,,,,-0.428687134,-0.394423828,1,0,0,1.4667,Obsidian_rect,11,0,11,0,1,
63bc9e8cd8106f8d94c636d4,SCR,2024-06-25_14h22.16.993,LearnStrategy,2023.2.3,MacIntel,63.29113924,3,2,13,,,,,,,,8,10,,,,,,,,,,,,,8,1.41,1,,,,,,0.367911377,-0.390877143,1,0,0,1.4104,Pumice_rect,12,0,12,0,1,
63bc9e8cd8106f8d94c636d4,SCR,2024-06-25_14h22.16.993,LearnStrategy,2023.2.3,MacIntel,63.29113924,3,2,14,,,,,,,,7,05,,,,,,,,,,,,,7,2.553,1,,,,,,0.105278185,-0.410804376,1,0,0,2.5533,Peridotite_rect,13,0,13,0,1,
63bc9e8cd8106f8d94c636d4,SCR,2024-06-25_14h22.16.993,LearnStrategy,2023.2.3,MacIntel,63.29113924,3,2,15,,,,,,,,5,08,,,,,,,,,,,,,5,1.678,1,,,,,,-0.417993571,-0.41665073,1,0,0,1.6777,Obsidian_rect,14,0,14,0,1,
63bc9e8cd8106f8d94c636d4,SCR,2024-06-25_14h22.16.993,LearnStrategy,2023.2.3,MacIntel,63.29113924,3,2,16,,,,,,,,4,12,,,,,,,,,,,,,4,6.965,1,,,,,,0.338631049,-0.236934679,1,0,0,6.9653,Gabbro_rect,15,0,15,0,1,
63bc9e8cd8106f8d94c636d4,SCR,2024-06-25_14h22.16.993,LearnStrategy,2023.2.3,MacIntel,63.29113924,4,1,1,0.436804199,0.27604777,1,0,0,1.2062,Andesite_16,1,16,5,7,1.206,1,16,-0.356794366,-0.235839437,1,0,0,3.0686,Andesite_rect,1,3.069,1,0,0,0,0,1,,,,,,,,,,,,,
63bc9e8cd8106f8d94c636d4,SCR,2024-06-25_14h22.16.993,LearnStrategy,2023.2.3,MacIntel,63.29113924,4,1,2,0.064679769,0.38072191,1,0,0,1.364,Obsidian_11,5,11,6,5,1.364,5,11,-0.375350613,-0.39125902,1,0,0,0.936,Obsidian_rect,5,0.936,1,1,0,1,0,1,,,,,,,,,,,,,
63bc9e8cd8106f8d94c636d4,SCR,2024-06-25_14h22.16.993,LearnStrategy,2023.2.3,MacIntel,63.29113924,4,1,3,-0.543685438,-0.265730794,1,0,0,1.3374,Andesite_01,1,01,2,1,1.337,1,01,-0.139089695,-0.394359063,1,0,0,2.0717,Pegmatite_rect,6,2.072,0,2,0,2,0,1,,,,,,,,,,,,,
63bc9e8cd8106f8d94c636d4,SCR,2024-06-25_14h22.16.993,LearnStrategy,2023.2.3,MacIntel,63.29113924,4,1,4,-0.276119554,0.098406338,1,0,0,8.9721,Basalt_14,2,14,4,3,8.972,2,14,-0.142937554,-0.252958442,1,0,0,9.4478,Basalt_rect,2,9.448,1,3,0,3,0,1,,,,,,,,,,,,,
63bc9e8cd8106f8d94c636d4,SCR,2024-06-25_14h22.16.993,LearnStrategy,2023.2.3,MacIntel,63.29113924,4,1,5,0.075983209,-0.421903212,1,0,0,1.1204,Diorite_13,3,13,1,5,1.12,3,13,-0.085195448,-0.418478868,1,0,0,1.9472,Pegmatite_rect,6,1.947,0,4,0,4,0,1,,,,,,,,,,,,,
63bc9e8cd8106f8d94c636d4,SCR,2024-06-25_14h22.16.993,LearnStrategy,2023.2.3,MacIntel,63.29113924,4,1,6,-0.532670661,0.394172312,1,0,0,2.2485,Pegmatite_09,6,09,6,1,2.248,6,09,0.097529297,-0.386704576,1,0,0,2.0918,Peridotite_rect,7,2.092,0,5,0,5,0,1,,,,,,,,,,,,,
63bc9e8cd8106f8d94c636d4,SCR,2024-06-25_14h22.16.993,LearnStrategy,2023.2.3,MacIntel,63.29113924,4,1,7,-0.075793321,-0.115648193,1,0,0,0.9127,Basalt_10,2,10,3,4,0.913,2,10,0.372640245,-0.264987725,1,0,0,7.3522,Gabbro_rect,4,7.352,0,6,0,6,0,1,,,,,,,,,,,,,
63bc9e8cd8106f8d94c636d4,SCR,2024-06-25_14h22.16.993,LearnStrategy,2023.2.3,MacIntel,63.29113924,4,1,8,0.386038005,-0.066971368,1,0,0,1.0358,Peridotite_13,7,13,3,7,1.036,7,13,0.185312771,-0.39729031,1,0,0,0.9387,Peridotite_rect,7,0.939,1,7,0,7,0,1,,,,,,,,,,,,,
63bc9e8cd8106f8d94c636d4,SCR,2024-06-25_14h22.16.993,LearnStrategy,2023.2.3,MacIntel,63.29113924,4,1,9,-0.543018307,0.228034532,1,0,0,1.3536,Gabbro_10,4,10,5,1,1.354,4,10,-0.366259766,-0.234150052,1,0,0,30.1365,Andesite_rect,1,30.137,0,8,0,8,0,1,,,,,,,,,,,,,
63bc9e8cd8106f8d94c636d4,SCR,2024-06-25_14h22.16.993,LearnStrategy,2023.2.3,MacIntel,63.29113924,4,1,10,0.409913873,0.433064999,1,0,0,1.4874,Basalt_01,2,01,6,7,1.487,2,01,-0.085457628,-0.231778361,1,0,0,11.6454,Basalt_rect,2,11.645,1,9,0,9,0,1,,,,,,,,,,,,,
63bc9e8cd8106f8d94c636d4,SCR,2024-06-25_14h22.16.993,LearnStrategy,2023.2.3,MacIntel,63.29113924,4,1,11,-0.087737427,-0.404021403,1,0,0,1.1008,Gabbro_14,4,14,1,4,1.101,4,14,0.293185493,-0.239594184,1,0,0,7.6145,Gabbro_rect,4,7.614,1,10,0,10,0,1,,,,,,,,,,,,,
63bc9e8cd8106f8d94c636d4,SCR,2024-06-25_14h22.16.993,LearnStrategy,2023.2.3,MacIntel,63.29113924,4,1,12,0.237553847,0.277953576,1,0,0,1.1149,Basalt_09,2,09,5,6,1.115,2,09,-0.11367235,-0.259857313,1,0,0,4.682,Basalt_rect,2,4.682,1,11,0,11,0,1,,,,,,,,,,,,,
63bc9e8cd8106f8d94c636d4,SCR,2024-06-25_14h22.16.993,LearnStrategy,2023.2.3,MacIntel,63.29113924,4,1,13,-0.030269504,0.249057651,1,0,0,1.2354,Diorite_15,3,15,5,4,1.235,3,15,0.15695794,-0.23884847,1,0,0,12.457,Diorite_rect,3,12.457,1,12,0,12,0,1,,,,,,,,,,,,,
63bc9e8cd8106f8d94c636d4,SCR,2024-06-25_14h22.16.993,LearnStrategy,2023.2.3,MacIntel,63.29113924,4,1,14,-0.050765652,-0.447554525,1,0,0,0.9198,Gabbro_14,4,14,1,4,0.92,4,14,-0.074261407,-0.410879991,1,0,0,5.3208,Pegmatite_rect,6,5.321,0,13,0,13,0,1,,,,,,,,,,,,,
63bc9e8cd8106f8d94c636d4,SCR,2024-06-25_14h22.16.993,LearnStrategy,2023.2.3,MacIntel,63.29113924,4,1,15,-0.245967068,0.386746402,1,0,0,1.0831,Pegmatite_15,6,15,6,3,1.083,6,15,-0.448099976,-0.246696438,1,0,0,1.5487,Andesite_rect,1,1.549,0,14,0,14,0,1,,,,,,,,,,,,,
63bc9e8cd8106f8d94c636d4,SCR,2024-06-25_14h22.16.993,LearnStrategy,2023.2.3,MacIntel,63.29113924,4,1,16,-0.400703634,-0.26557841,1,0,0,1.3564,Pumice_03,8,03,2,2,1.356,8,03,0.372396512,-0.38351983,1,0,0,1.6027,Pumice_rect,8,1.603,1,15,0,15,0,1,,,,,,,,,,,,,
63bc9e8cd8106f8d94c636d4,SCR,2024-06-25_14h22.16.993,LearnStrategy,2023.2.3,MacIntel,63.29113924,4,2,1,,,,,,,,4,01,,,,,,,,,,,,,4,8.187,1,,,,,,0.391402995,-0.259081692,1,0,0,8.187,Gabbro_rect,0,0,0,0,1,
63bc9e8cd8106f8d94c636d4,SCR,2024-06-25_14h22.16.993,LearnStrategy,2023.2.3,MacIntel,63.29113924,4,2,2,,,,,,,,6,10,,,,,,,,,,,,,6,12.093,1,,,,,,-0.17415785,-0.405518528,1,0,0,12.0929,Pegmatite_rect,1,0,1,0,1,
63bc9e8cd8106f8d94c636d4,SCR,2024-06-25_14h22.16.993,LearnStrategy,2023.2.3,MacIntel,63.29113924,4,2,3,,,,,,,,2,05,,,,,,,,,,,,,2,4.236,1,,,,,,-0.126906128,-0.25743103,1,0,0,4.236,Basalt_rect,2,0,2,0,1,
63bc9e8cd8106f8d94c636d4,SCR,2024-06-25_14h22.16.993,LearnStrategy,2023.2.3,MacIntel,63.29113924,4,2,4,,,,,,,,1,07,,,,,,,,,,,,,3,6.931,0,,,,,,0.104183689,-0.25283705,1,0,0,6.931,Diorite_rect,3,0,3,0,1,
63bc9e8cd8106f8d94c636d4,SCR,2024-06-25_14h22.16.993,LearnStrategy,2023.2.3,MacIntel,63.29113924,4,2,5,,,,,,,,8,08,,,,,,,,,,,,,8,2.166,1,,,,,,0.351669108,-0.410617879,1,0,0,2.1663,Pumice_rect,4,0,4,0,1,
63bc9e8cd8106f8d94c636d4,SCR,2024-06-25_14h22.16.993,LearnStrategy,2023.2.3,MacIntel,63.29113924,4,2,6,,,,,,,,7,08,,,,,,,,,,,,,7,1.793,1,,,,,,0.133287693,-0.390730387,1,0,0,1.7925,Peridotite_rect,5,0,5,0,1,
63bc9e8cd8106f8d94c636d4,SCR,2024-06-25_14h22.16.993,LearnStrategy,2023.2.3,MacIntel,63.29113924,4,2,7,,,,,,,,6,06,,,,,,,,,,,,,6,28.816,1,,,,,,-0.146319444,-0.420220744,1,0,0,28.8161,Pegmatite_rect,6,0,6,0,1,
63bc9e8cd8106f8d94c636d4,SCR,2024-06-25_14h22.16.993,LearnStrategy,2023.2.3,MacIntel,63.29113924,4,2,8,,,,,,,,4,15,,,,,,,,,,,,,4,8.509,1,,,,,,0.360375977,-0.257783746,1,0,0,8.5095,Gabbro_rect,7,0,7,0,1,
63bc9e8cd8106f8d94c636d4,SCR,2024-06-25_14h22.16.993,LearnStrategy,2023.2.3,MacIntel,63.29113924,4,2,9,,,,,,,,3,16,,,,,,,,,,,,,3,9.222,1,,,,,,0.101430732,-0.260316705,1,0,0,9.2223,Diorite_rect,8,0,8,0,1,
63bc9e8cd8106f8d94c636d4,SCR,2024-06-25_14h22.16.993,LearnStrategy,2023.2.3,MacIntel,63.29113924,4,2,10,,,,,,,,2,02,,,,,,,,,,,,,2,7.202,1,,,,,,-0.038513658,-0.255369941,1,0,0,7.2021,Basalt_rect,9,0,9,0,1,
63bc9e8cd8106f8d94c636d4,SCR,2024-06-25_14h22.16.993,LearnStrategy,2023.2.3,MacIntel,63.29113924,4,2,11,,,,,,,,3,02,,,,,,,,,,,,,1,2.082,0,,,,,,-0.305600857,-0.253358019,1,0,0,2.0822,Andesite_rect,10,0,10,0,1,
63bc9e8cd8106f8d94c636d4,SCR,2024-06-25_14h22.16.993,LearnStrategy,2023.2.3,MacIntel,63.29113924,4,2,12,,,,,,,,1,04,,,,,,,,,,,,,4,4.782,0,,,,,,0.436985406,-0.233789944,1,0,0,4.7824,Gabbro_rect,11,0,11,0,1,
63bc9e8cd8106f8d94c636d4,SCR,2024-06-25_14h22.16.993,LearnStrategy,2023.2.3,MacIntel,63.29113924,4,2,13,,,,,,,,5,05,,,,,,,,,,,,,5,1.158,1,,,,,,-0.384347195,-0.39098721,1,0,0,1.1578,Obsidian_rect,12,0,12,0,1,
63bc9e8cd8106f8d94c636d4,SCR,2024-06-25_14h22.16.993,LearnStrategy,2023.2.3,MacIntel,63.29113924,4,2,14,,,,,,,,7,05,,,,,,,,,,,,,7,1.332,1,,,,,,0.161615397,-0.395811293,1,0,0,1.3317,Peridotite_rect,13,0,13,0,1,
63bc9e8cd8106f8d94c636d4,SCR,2024-06-25_14h22.16.993,LearnStrategy,2023.2.3,MacIntel,63.29113924,4,2,15,,,,,,,,5,07,,,,,,,,,,,,,5,1.195,1,,,,,,-0.354986572,-0.400844794,1,0,0,1.195,Obsidian_rect,14,0,14,0,1,
63bc9e8cd8106f8d94c636d4,SCR,2024-06-25_14h22.16.993,LearnStrategy,2023.2.3,MacIntel,63.29113924,4,2,16,,,,,,,,8,10,,,,,,,,,,,,,8,1.118,1,,,,,,0.413795166,-0.394470418,1,0,0,1.1184,Pumice_rect,15,0,15,0,1,
63bc9e8cd8106f8d94c636d4,SCR,2024-06-25_14h22.16.993,LearnStrategy,2023.2.3,MacIntel,63.29113924,5,1,1,0.085168321,0.283024529,1,0,0,1.3183,Gabbro_05,4,05,5,5,1.318,4,05,-0.100710042,-0.238028904,1,0,0,0.9424,Basalt_rect,2,0.942,0,0,0,0,0,1,,,,,,,,,,,,,
63bc9e8cd8106f8d94c636d4,SCR,2024-06-25_14h22.16.993,LearnStrategy,2023.2.3,MacIntel,63.29113924,5,1,2,-0.413408983,-0.088246935,1,0,0,1.0365,Gabbro_03,4,03,3,2,1.036,4,03,0.323585748,-0.248765734,1,0,0,1.6679,Gabbro_rect,4,1.668,1,1,0,1,0,1,,,,,,,,,,,,,
63bc9e8cd8106f8d94c636d4,SCR,2024-06-25_14h22.16.993,LearnStrategy,2023.2.3,MacIntel,63.29113924,5,1,3,0.506181098,0.227855784,1,0,0,1.2201,Basalt_06,2,06,5,8,1.22,2,06,-0.082965902,-0.265136041,1,0,0,2.9818,Basalt_rect,2,2.982,1,2,0,2,0,1,,,,,,,,,,,,,
63bc9e8cd8106f8d94c636d4,SCR,2024-06-25_14h22.16.993,LearnStrategy,2023.2.3,MacIntel,63.29113924,5,1,4,-0.571877102,-0.274760132,1,0,0,1.2206,Andesite_01,1,01,2,1,1.221,1,01,-0.345275947,-0.268395928,1,0,0,1.9262,Andesite_rect,1,1.926,1,3,0,3,0,1,,,,,,,,,,,,,
63bc9e8cd8106f8d94c636d4,SCR,2024-06-25_14h22.16.993,LearnStrategy,2023.2.3,MacIntel,63.29113924,5,1,5,-0.057936334,0.286955346,1,0,0,1.203,Diorite_15,3,15,5,4,1.203,3,15,-0.100199992,-0.407918159,1,0,0,1.6897,Pegmatite_rect,6,1.69,0,4,0,4,0,1,,,,,,,,,,,,,
63bc9e8cd8106f8d94c636d4,SCR,2024-06-25_14h22.16.993,LearnStrategy,2023.2.3,MacIntel,63.29113924,5,1,6,0.408650581,0.262892982,1,0,0,1.0543,Andesite_16,1,16,5,7,1.054,1,16,-0.078938531,-0.409722019,1,0,0,1.7513,Pegmatite_rect,6,1.751,0,5,0,5,0,1,,,,,,,,,,,,,
63bc9e8cd8106f8d94c636d4,SCR,2024-06-25_14h22.16.993,LearnStrategy,2023.2.3,MacIntel,63.29113924,5,1,7,0.081582709,-0.399121297,1,0,0,1.0012,Diorite_13,3,13,1,5,1.001,3,13,0.11096795,-0.255193888,1,0,0,1.7723,Diorite_rect,3,1.772,1,6,0,6,0,1,,,,,,,,,,,,,
63bc9e8cd8106f8d94c636d4,SCR,2024-06-25_14h22.16.993,LearnStrategy,2023.2.3,MacIntel,63.29113924,5,1,8,0.421369222,0.414491052,1,0,0,1.1236,Basalt_01,2,01,6,7,1.124,2,01,-0.09424018,-0.247117106,1,0,0,2.0181,Basalt_rect,2,2.018,1,7,0,7,0,1,,,,,,,,,,,,,
63bc9e8cd8106f8d94c636d4,SCR,2024-06-25_14h22.16.993,LearnStrategy,2023.2.3,MacIntel,63.29113924,5,1,9,0.055477227,0.105248311,1,0,0,0.7211,Andesite_03,1,03,4,5,0.721,1,03,0.411665717,-0.258286608,1,0,0,1.1031,Gabbro_rect,4,1.103,0,8,0,8,0,1,,,,,,,,,,,,,
63bc9e8cd8106f8d94c636d4,SCR,2024-06-25_14h22.16.993,LearnStrategy,2023.2.3,MacIntel,63.29113924,5,1,10,-0.066526557,-0.100495538,1,0,0,0.743,Basalt_10,2,10,3,4,0.743,2,10,0.471341824,-0.268234795,1,0,0,0.8978,Gabbro_rect,4,0.898,0,9,0,9,0,1,,,,,,,,,,,,,
63bc9e8cd8106f8d94c636d4,SCR,2024-06-25_14h22.16.993,LearnStrategy,2023.2.3,MacIntel,63.29113924,5,1,11,0.090274929,-0.076521674,1,0,0,1.1445,Diorite_10,3,10,3,5,1.145,3,10,-0.37293691,-0.229976264,1,0,0,2.3545,Andesite_rect,1,2.354,0,10,0,10,0,1,,,,,,,,,,,,,
63bc9e8cd8106f8d94c636d4,SCR,2024-06-25_14h22.16.993,LearnStrategy,2023.2.3,MacIntel,63.29113924,5,1,12,-0.412981906,0.415515357,1,0,0,1.1014,Pegmatite_05,6,05,6,2,1.101,6,05,-0.381460063,-0.260034654,1,0,0,3.5971,Andesite_rect,1,3.597,0,11,0,11,0,1,,,,,,,,,,,,,
63bc9e8cd8106f8d94c636d4,SCR,2024-06-25_14h22.16.993,LearnStrategy,2023.2.3,MacIntel,63.29113924,5,1,13,-0.233830227,0.38388053,1,0,0,1.0975,Pegmatite_15,6,15,6,3,1.097,6,15,-0.087508816,-0.406054077,1,0,0,3.26,Pegmatite_rect,6,3.26,1,12,0,12,0,1,,,,,,,,,,,,,
63bc9e8cd8106f8d94c636d4,SCR,2024-06-25_14h22.16.993,LearnStrategy,2023.2.3,MacIntel,63.29113924,5,1,14,-0.227076823,-0.26543179,1,0,0,1.1106,Obsidian_16,5,16,2,3,1.111,5,16,-0.449396803,-0.409501072,1,0,0,0.8718,Obsidian_rect,5,0.872,1,13,0,13,0,1,,,,,,,,,,,,,
63bc9e8cd8106f8d94c636d4,SCR,2024-06-25_14h22.16.993,LearnStrategy,2023.2.3,MacIntel,63.29113924,5,1,15,-0.226773546,-0.081855943,1,0,0,0.9196,Pumice_06,8,06,3,3,0.92,8,06,0.35532864,-0.403576864,1,0,0,1.1127,Pumice_rect,8,1.113,1,14,0,14,0,1,,,,,,,,,,,,,
63bc9e8cd8106f8d94c636d4,SCR,2024-06-25_14h22.16.993,LearnStrategy,2023.2.3,MacIntel,63.29113924,5,1,16,0.043852946,0.095424296,1,0,0,0.7181,Andesite_03,1,03,4,5,0.718,1,03,-0.137636176,-0.256203274,1,0,0,1.4949,Basalt_rect,2,1.495,0,15,0,15,0,1,,,,,,,,,,,,,
63bc9e8cd8106f8d94c636d4,SCR,2024-06-25_14h22.16.993,LearnStrategy,2023.2.3,MacIntel,63.29113924,5,2,1,,,,,,,,6,07,,,,,,,,,,,,,5,2.369,0,,,,,,-0.339118754,-0.380056763,1,0,0,2.3694,Obsidian_rect,0,0,0,0,1,
63bc9e8cd8106f8d94c636d4,SCR,2024-06-25_14h22.16.993,LearnStrategy,2023.2.3,MacIntel,63.29113924,5,2,2,,,,,,,,1,02,,,,,,,,,,,,,1,1.43,1,,,,,,-0.354751383,-0.247236938,1,0,0,1.4299,Andesite_rect,1,0,1,0,1,
63bc9e8cd8106f8d94c636d4,SCR,2024-06-25_14h22.16.993,LearnStrategy,2023.2.3,MacIntel,63.29113924,5,2,3,,,,,,,,2,08,,,,,,,,,,,,,2,4.785,1,,,,,,-0.048360935,-0.244981757,1,0,0,4.7851,Basalt_rect,2,0,2,0,1,
63bc9e8cd8106f8d94c636d4,SCR,2024-06-25_14h22.16.993,LearnStrategy,2023.2.3,MacIntel,63.29113924,5,2,4,,,,,,,,4,12,,,,,,,,,,,,,3,6.609,0,,,,,,0.186900974,-0.23211358,1,0,0,6.6091,Diorite_rect,3,0,3,0,1,
63bc9e8cd8106f8d94c636d4,SCR,2024-06-25_14h22.16.993,LearnStrategy,2023.2.3,MacIntel,63.29113924,5,2,5,,,,,,,,5,04,,,,,,,,,,,,,5,1.539,1,,,,,,-0.40715054,-0.402765367,1,0,0,1.5387,Obsidian_rect,4,0,4,0,1,
63bc9e8cd8106f8d94c636d4,SCR,2024-06-25_14h22.16.993,LearnStrategy,2023.2.3,MacIntel,63.29113924,5,2,6,,,,,,,,7,10,,,,,,,,,,,,,7,1.196,1,,,,,,0.083173421,-0.389792887,1,0,0,1.1958,Peridotite_rect,5,0,5,0,1,
63bc9e8cd8106f8d94c636d4,SCR,2024-06-25_14h22.16.993,LearnStrategy,2023.2.3,MacIntel,63.29113924,5,2,7,,,,,,,,8,05,,,,,,,,,,,,,8,1.025,1,,,,,,0.32871521,-0.381666463,1,0,0,1.0251,Pumice_rect,6,0,6,0,1,
63bc9e8cd8106f8d94c636d4,SCR,2024-06-25_14h22.16.993,LearnStrategy,2023.2.3,MacIntel,63.29113924,5,2,8,,,,,,,,6,11,,,,,,,,,,,,,5,1.377,0,,,,,,-0.388928358,-0.415273641,1,0,0,1.3765,Obsidian_rect,7,0,7,0,1,
63bc9e8cd8106f8d94c636d4,SCR,2024-06-25_14h22.16.993,LearnStrategy,2023.2.3,MacIntel,63.29113924,5,2,9,,,,,,,,4,11,,,,,,,,,,,,,2,1.194,0,,,,,,-0.12102478,-0.256969333,1,0,0,1.1941,Basalt_rect,8,0,8,0,1,
63bc9e8cd8106f8d94c636d4,SCR,2024-06-25_14h22.16.993,LearnStrategy,2023.2.3,MacIntel,63.29113924,5,2,10,,,,,,,,1,06,,,,,,,,,,,,,1,1.397,1,,,,,,-0.412158847,-0.232463379,1,0,0,1.397,Andesite_rect,9,0,9,0,1,
63bc9e8cd8106f8d94c636d4,SCR,2024-06-25_14h22.16.993,LearnStrategy,2023.2.3,MacIntel,63.29113924,5,2,11,,,,,,,,8,14,,,,,,,,,,,,,8,1.461,1,,,,,,0.415983073,-0.395272759,1,0,0,1.4609,Pumice_rect,10,0,10,0,1,
63bc9e8cd8106f8d94c636d4,SCR,2024-06-25_14h22.16.993,LearnStrategy,2023.2.3,MacIntel,63.29113924,5,2,12,,,,,,,,5,06,,,,,,,,,,,,,5,1.166,1,,,,,,-0.375015293,-0.417591417,1,0,0,1.1657,Obsidian_rect,11,0,11,0,1,
63bc9e8cd8106f8d94c636d4,SCR,2024-06-25_14h22.16.993,LearnStrategy,2023.2.3,MacIntel,63.29113924,5,2,13,,,,,,,,3,08,,,,,,,,,,,,,3,6.849,1,,,,,,0.133936293,-0.248130968,1,0,0,6.8494,Diorite_rect,12,0,12,0,1,
63bc9e8cd8106f8d94c636d4,SCR,2024-06-25_14h22.16.993,LearnStrategy,2023.2.3,MacIntel,63.29113924,5,2,14,,,,,,,,3,06,,,,,,,,,,,,,3,1.498,1,,,,,,0.133936293,-0.248130968,1,0,0,1.4984,Diorite_rect,13,0,13,0,1,
63bc9e8cd8106f8d94c636d4,SCR,2024-06-25_14h22.16.993,LearnStrategy,2023.2.3,MacIntel,63.29113924,5,2,15,,,,,,,,2,12,,,,,,,,,,,,,2,2.803,1,,,,,,-0.082518446,-0.24994534,1,0,0,2.8035,Basalt_rect,14,0,14,0,1,
63bc9e8cd8106f8d94c636d4,SCR,2024-06-25_14h22.16.993,LearnStrategy,2023.2.3,MacIntel,63.29113924,5,2,16,,,,,,,,7,07,,,,,,,,,,,,,7,1.469,1,,,,,,0.162797038,-0.415608995,1,0,0,1.4689,Peridotite_rect,15,0,15,0,1,
63bc9e8cd8106f8d94c636d4,SCR,2024-06-25_14h22.16.993,LearnStrategy,2023.2.3,MacIntel,63.29113924,6,1,1,0.100387302,0.261383667,1,0,0,0.9139,Gabbro_05,4,05,5,5,0.914,4,05,0.092186415,-0.240242174,1,0,0,1.195,Diorite_rect,3,1.195,0,0,0,0,0,1,,,,,,,,,,,,,
63bc9e8cd8106f8d94c636d4,SCR,2024-06-25_14h22.16.993,LearnStrategy,2023.2.3,MacIntel,63.29113924,6,1,2,-0.037628513,-0.401850789,1,0,0,1.2359,Gabbro_14,4,14,1,4,1.236,4,14,0.375680067,-0.271972995,1,0,0,1.7134,Gabbro_rect,4,1.713,1,1,0,1,0,1,,,,,,,,,,,,,
63bc9e8cd8106f8d94c636d4,SCR,2024-06-25_14h22.16.993,LearnStrategy,2023.2.3,MacIntel,63.29113924,6,1,3,-0.059462484,0.232645484,1,0,0,1.0137,Diorite_15,3,15,5,4,1.014,3,15,-0.10737793,-0.409390259,1,0,0,1.2968,Pegmatite_rect,6,1.297,0,2,0,2,0,1,,,,,,,,,,,,,
63bc9e8cd8106f8d94c636d4,SCR,2024-06-25_14h22.16.993,LearnStrategy,2023.2.3,MacIntel,63.29113924,6,1,4,0.547496609,0.124862061,1,0,0,1.0003,Pumice_13,8,13,4,8,1,8,13,0.363433024,-0.241845907,1,0,0,5.7014,Gabbro_rect,4,5.701,0,3,0,3,0,1,,,,,,,,,,,,,
63bc9e8cd8106f8d94c636d4,SCR,2024-06-25_14h22.16.993,LearnStrategy,2023.2.3,MacIntel,63.29113924,6,1,5,0.071832275,0.102317539,1,0,0,1.116,Andesite_03,1,03,4,5,1.116,1,03,-0.377082452,-0.246796943,1,0,0,1.2497,Andesite_rect,1,1.25,1,4,0,4,0,1,,,,,,,,,,,,,
63bc9e8cd8106f8d94c636d4,SCR,2024-06-25_14h22.16.993,LearnStrategy,2023.2.3,MacIntel,63.29113924,6,1,6,0.076085748,-0.416791992,1,0,0,0.9861,Diorite_13,3,13,1,5,0.986,3,13,-0.146560872,-0.416708171,1,0,0,0.8566,Pegmatite_rect,6,0.857,0,5,0,5,0,1,,,,,,,,,,,,,
63bc9e8cd8106f8d94c636d4,SCR,2024-06-25_14h22.16.993,LearnStrategy,2023.2.3,MacIntel,63.29113924,6,1,7,-0.502153049,-0.091979234,1,0,0,1.0845,Gabbro_16,4,16,3,1,1.084,4,16,0.10584649,-0.253126628,1,0,0,1.3115,Diorite_rect,3,1.312,0,6,0,6,0,1,,,,,,,,,,,,,
63bc9e8cd8106f8d94c636d4,SCR,2024-06-25_14h22.16.993,LearnStrategy,2023.2.3,MacIntel,63.29113924,6,1,8,-0.567871314,-0.378241374,1,0,0,1.319,Peridotite_02,7,02,1,1,1.319,7,02,0.105041775,-0.394637655,1,0,0,1.5223,Peridotite_rect,7,1.522,1,7,0,7,0,1,,,,,,,,,,,,,
63bc9e8cd8106f8d94c636d4,SCR,2024-06-25_14h22.16.993,LearnStrategy,2023.2.3,MacIntel,63.29113924,6,1,9,0.079034695,0.382950287,1,0,0,1.4021,Obsidian_11,5,11,6,5,1.402,5,11,-0.390200602,-0.394148492,1,0,0,1.2584,Obsidian_rect,5,1.258,1,8,0,8,0,1,,,,,,,,,,,,,
63bc9e8cd8106f8d94c636d4,SCR,2024-06-25_14h22.16.993,LearnStrategy,2023.2.3,MacIntel,63.29113924,6,1,10,-0.572745531,-0.27779853,1,0,0,0.8199,Andesite_01,1,01,2,1,0.82,1,01,-0.379846395,-0.256547784,1,0,0,2.0296,Andesite_rect,1,2.03,1,9,0,9,0,1,,,,,,,,,,,,,
63bc9e8cd8106f8d94c636d4,SCR,2024-06-25_14h22.16.993,LearnStrategy,2023.2.3,MacIntel,63.29113924,6,1,11,0.203927816,-0.225090468,1,0,0,1.2459,Pegmatite_03,6,03,2,6,1.246,6,03,-0.090563422,-0.409036391,1,0,0,4.7132,Pegmatite_rect,6,4.713,1,10,0,10,0,1,,,,,,,,,,,,,
63bc9e8cd8106f8d94c636d4,SCR,2024-06-25_14h22.16.993,LearnStrategy,2023.2.3,MacIntel,63.29113924,6,1,12,-0.081637438,-0.067344767,1,0,0,0.7974,Basalt_10,2,10,3,4,0.797,2,10,0.342068414,-0.239035102,1,0,0,4.4602,Gabbro_rect,4,4.46,0,11,0,11,0,1,,,,,,,,,,,,,
63bc9e8cd8106f8d94c636d4,SCR,2024-06-25_14h22.16.993,LearnStrategy,2023.2.3,MacIntel,63.29113924,6,1,13,-0.571454705,-0.22964464,1,0,0,3.8667,Andesite_01,1,01,2,1,3.867,1,01,-0.425228882,-0.254375068,1,0,0,1.0782,Andesite_rect,1,1.078,1,12,0,12,0,1,,,,,,,,,,,,,
63bc9e8cd8106f8d94c636d4,SCR,2024-06-25_14h22.16.993,LearnStrategy,2023.2.3,MacIntel,63.29113924,6,1,14,0.219695367,-0.259312473,1,0,0,0.8326,Pegmatite_03,6,03,2,6,0.833,6,03,-0.087597656,-0.396698608,1,0,0,1.6574,Pegmatite_rect,6,1.657,1,13,0,13,0,1,,,,,,,,,,,,,
63bc9e8cd8106f8d94c636d4,SCR,2024-06-25_14h22.16.993,LearnStrategy,2023.2.3,MacIntel,63.29113924,6,1,15,0.244943441,0.282921176,1,0,0,0.9981,Basalt_09,2,09,5,6,0.998,2,09,-0.114490153,-0.248368734,1,0,0,5.4575,Basalt_rect,2,5.458,1,14,0,14,0,1,,,,,,,,,,,,,
63bc9e8cd8106f8d94c636d4,SCR,2024-06-25_14h22.16.993,LearnStrategy,2023.2.3,MacIntel,63.29113924,6,1,16,-0.557539029,0.07628201,1,0,0,1.3299,Pegmatite_16,6,16,4,1,1.33,6,16,0.368825141,-0.254060872,1,0,0,8.1943,Gabbro_rect,4,8.194,0,15,0,15,0,1,,,,,,,,,,,,,
63bc9e8cd8106f8d94c636d4,SCR,2024-06-25_14h22.16.993,LearnStrategy,2023.2.3,MacIntel,63.29113924,6,2,1,,,,,,,,3,07,,,,,,,,,,,,,6,8.595,0,,,,,,-0.148511149,-0.408625895,1,0,0,8.5953,Pegmatite_rect,0,0,0,0,1,
63bc9e8cd8106f8d94c636d4,SCR,2024-06-25_14h22.16.993,LearnStrategy,2023.2.3,MacIntel,63.29113924,6,2,2,,,,,,,,1,05,,,,,,,,,,,,,6,4.181,0,,,,,,-0.104715576,-0.396535305,1,0,0,4.1807,Pegmatite_rect,1,0,1,0,1,
63bc9e8cd8106f8d94c636d4,SCR,2024-06-25_14h22.16.993,LearnStrategy,2023.2.3,MacIntel,63.29113924,6,2,3,,,,,,,,2,04,,,,,,,,,,,,,2,2.047,1,,,,,,-0.169482693,-0.256679348,1,0,0,2.0468,Basalt_rect,2,0,2,0,1,
63bc9e8cd8106f8d94c636d4,SCR,2024-06-25_14h22.16.993,LearnStrategy,2023.2.3,MacIntel,63.29113924,6,2,4,,,,,,,,7,15,,,,,,,,,,,,,7,1.925,1,,,,,,0.100668877,-0.386927762,1,0,0,1.9254,Peridotite_rect,3,0,3,0,1,
63bc9e8cd8106f8d94c636d4,SCR,2024-06-25_14h22.16.993,LearnStrategy,2023.2.3,MacIntel,63.29113924,6,2,5,,,,,,,,6,12,,,,,,,,,,,,,6,4.17,1,,,,,,-0.162171021,-0.379726902,1,0,0,4.17,Pegmatite_rect,4,0,4,0,1,
63bc9e8cd8106f8d94c636d4,SCR,2024-06-25_14h22.16.993,LearnStrategy,2023.2.3,MacIntel,63.29113924,6,2,6,,,,,,,,8,02,,,,,,,,,,,,,8,1.551,1,,,,,,0.336715291,-0.403282267,1,0,0,1.5508,Pumice_rect,5,0,5,0,1,
63bc9e8cd8106f8d94c636d4,SCR,2024-06-25_14h22.16.993,LearnStrategy,2023.2.3,MacIntel,63.29113924,6,2,7,,,,,,,,3,14,,,,,,,,,,,,,1,5.206,0,,,,,,-0.371473253,-0.256111586,1,0,0,5.2062,Andesite_rect,6,0,6,0,1,
63bc9e8cd8106f8d94c636d4,SCR,2024-06-25_14h22.16.993,LearnStrategy,2023.2.3,MacIntel,63.29113924,6,2,8,,,,,,,,8,16,,,,,,,,,,,,,4,4.983,0,,,,,,0.381085612,-0.24469713,1,0,0,4.9833,Gabbro_rect,7,0,7,0,1,
63bc9e8cd8106f8d94c636d4,SCR,2024-06-25_14h22.16.993,LearnStrategy,2023.2.3,MacIntel,63.29113924,6,2,9,,,,,,,,4,13,,,,,,,,,,,,,3,7.288,0,,,,,,0.144255507,-0.230386353,1,0,0,7.2882,Diorite_rect,8,0,8,0,1,
63bc9e8cd8106f8d94c636d4,SCR,2024-06-25_14h22.16.993,LearnStrategy,2023.2.3,MacIntel,63.29113924,6,2,10,,,,,,,,7,04,,,,,,,,,,,,,3,1.37,0,,,,,,0.144255507,-0.230386353,1,0,0,1.37,Diorite_rect,9,0,9,0,1,
63bc9e8cd8106f8d94c636d4,SCR,2024-06-25_14h22.16.993,LearnStrategy,2023.2.3,MacIntel,63.29113924,6,2,11,,,,,,,,4,09,,,,,,,,,,,,,5,1.186,0,,,,,,-0.372153422,-0.388006253,1,0,0,1.1864,Obsidian_rect,10,0,10,0,1,
63bc9e8cd8106f8d94c636d4,SCR,2024-06-25_14h22.16.993,LearnStrategy,2023.2.3,MacIntel,63.29113924,6,2,12,,,,,,,,1,14,,,,,,,,,,,,,1,1.425,1,,,,,,-0.366526388,-0.257212999,1,0,0,1.4248,Andesite_rect,11,0,11,0,1,
63bc9e8cd8106f8d94c636d4,SCR,2024-06-25_14h22.16.993,LearnStrategy,2023.2.3,MacIntel,63.29113924,6,2,13,,,,,,,,6,08,,,,,,,,,,,,,6,1.984,1,,,,,,-0.160487603,-0.392828301,1,0,0,1.9844,Pegmatite_rect,12,0,12,0,1,
63bc9e8cd8106f8d94c636d4,SCR,2024-06-25_14h22.16.993,LearnStrategy,2023.2.3,MacIntel,63.29113924,6,2,14,,,,,,,,5,08,,,,,,,,,,,,,5,1.617,1,,,,,,-0.377080417,-0.404378526,1,0,0,1.6166,Obsidian_rect,13,0,13,0,1,
63bc9e8cd8106f8d94c636d4,SCR,2024-06-25_14h22.16.993,LearnStrategy,2023.2.3,MacIntel,63.29113924,6,2,15,,,,,,,,2,16,,,,,,,,,,,,,4,1.785,0,,,,,,0.29576199,-0.228270942,1,0,0,1.7849,Gabbro_rect,14,0,14,0,1,
63bc9e8cd8106f8d94c636d4,SCR,2024-06-25_14h22.16.993,LearnStrategy,2023.2.3,MacIntel,63.29113924,6,2,16,,,,,,,,5,10,,,,,,,,,,,,,5,1.222,1,,,,,,-0.349933133,-0.388527968,1,0,0,1.2222,Obsidian_rect,15,0,15,0,1,
63bc9e8cd8106f8d94c636d4,SCR,2024-06-25_14h22.16.993,LearnStrategy,2023.2.3,MacIntel,63.29113924,7,1,1,0.111890055,-0.103674045,1,0,0,1.5644,Diorite_10,3,10,3,5,1.564,3,10,0.065754869,-0.254832289,1,0,0,1.7398,Diorite_rect,3,1.74,1,0,0,0,0,1,,,,,,,,,,,,,
63bc9e8cd8106f8d94c636d4,SCR,2024-06-25_14h22.16.993,LearnStrategy,2023.2.3,MacIntel,63.29113924,7,1,2,-0.545140771,-0.100147027,1,0,0,1.4558,Gabbro_16,4,16,3,1,1.456,4,16,0.432862956,-0.233028836,1,0,0,1.2647,Gabbro_rect,4,1.265,1,1,0,1,0,1,,,,,,,,,,,,,
63bc9e8cd8106f8d94c636d4,SCR,2024-06-25_14h22.16.993,LearnStrategy,2023.2.3,MacIntel,63.29113924,7,1,3,-0.217558526,-0.423513997,1,0,0,0.9455,Andesite_09,1,09,1,3,0.946,1,09,-0.34124115,-0.254474962,1,0,0,2.1448,Andesite_rect,1,2.145,1,2,0,2,0,1,,,,,,,,,,,,,
63bc9e8cd8106f8d94c636d4,SCR,2024-06-25_14h22.16.993,LearnStrategy,2023.2.3,MacIntel,63.29113924,7,1,4,-0.06597541,0.111454909,1,0,0,1.4822,Pegmatite_13,6,13,4,4,1.482,6,13,-0.38772227,-0.263685574,1,0,0,7.592,Andesite_rect,1,7.592,0,3,0,3,0,1,,,,,,,,,,,,,
63bc9e8cd8106f8d94c636d4,SCR,2024-06-25_14h22.16.993,LearnStrategy,2023.2.3,MacIntel,63.29113924,7,1,5,0.550587836,-0.387296414,1,0,0,1.1299,Basalt_11,2,11,1,8,1.13,2,11,-0.081777886,-0.249785495,1,0,0,4.3605,Basalt_rect,2,4.361,1,4,0,4,0,1,,,,,,,,,,,,,
63bc9e8cd8106f8d94c636d4,SCR,2024-06-25_14h22.16.993,LearnStrategy,2023.2.3,MacIntel,63.29113924,7,1,6,-0.383065389,-0.118885227,1,0,0,1.2655,Gabbro_03,4,03,3,2,1.265,4,03,0.103174506,-0.255960897,1,0,0,5.1581,Diorite_rect,3,5.158,0,5,0,5,0,1,,,,,,,,,,,,,
63bc9e8cd8106f8d94c636d4,SCR,2024-06-25_14h22.16.993,LearnStrategy,2023.2.3,MacIntel,63.29113924,7,1,7,0.269695706,-0.099057482,1,0,0,1.6985,Diorite_12,3,12,3,6,1.698,3,12,0.211316189,-0.245843167,1,0,0,1.8963,Diorite_rect,3,1.896,1,6,0,6,0,1,,,,,,,,,,,,,
63bc9e8cd8106f8d94c636d4,SCR,2024-06-25_14h22.16.993,LearnStrategy,2023.2.3,MacIntel,63.29113924,7,1,8,-0.575157708,-0.424780409,1,0,0,1.1332,Peridotite_02,7,02,1,1,1.133,7,02,0.072642144,-0.414846191,1,0,0,1.5544,Peridotite_rect,7,1.554,1,7,0,7,0,1,,,,,,,,,,,,,
63bc9e8cd8106f8d94c636d4,SCR,2024-06-25_14h22.16.993,LearnStrategy,2023.2.3,MacIntel,63.29113924,7,1,9,0.532594537,0.243166758,1,0,0,1.1652,Basalt_06,2,06,5,8,1.165,2,06,-0.109263102,-0.232656657,1,0,0,0.8914,Basalt_rect,2,0.891,1,8,0,8,0,1,,,,,,,,,,,,,
63bc9e8cd8106f8d94c636d4,SCR,2024-06-25_14h22.16.993,LearnStrategy,2023.2.3,MacIntel,63.29113924,7,1,10,0.427905545,0.265016717,1,0,0,1.0334,Andesite_16,1,16,5,7,1.033,1,16,-0.415078532,-0.258700697,1,0,0,2.7905,Andesite_rect,1,2.791,1,9,0,9,0,1,,,,,,,,,,,,,
63bc9e8cd8106f8d94c636d4,SCR,2024-06-25_14h22.16.993,LearnStrategy,2023.2.3,MacIntel,63.29113924,7,1,11,-0.397355957,-0.290695801,1,0,0,1.1013,Pumice_03,8,03,2,2,1.101,8,03,0.303465373,-0.381772393,1,0,0,1.7237,Pumice_rect,8,1.724,1,10,0,10,0,1,,,,,,,,,,,,,
63bc9e8cd8106f8d94c636d4,SCR,2024-06-25_14h22.16.993,LearnStrategy,2023.2.3,MacIntel,63.29113924,7,1,12,0.229742228,0.378770837,1,0,0,1.4322,Obsidian_02,5,02,6,6,1.432,5,02,-0.334358453,-0.399145101,1,0,0,0.8769,Obsidian_rect,5,0.877,1,11,0,11,0,1,,,,,,,,,,,,,
63bc9e8cd8106f8d94c636d4,SCR,2024-06-25_14h22.16.993,LearnStrategy,2023.2.3,MacIntel,63.29113924,7,1,13,-0.435571018,-0.098139242,1,0,0,0.9648,Gabbro_03,4,03,3,2,0.965,4,03,0.333320448,-0.237841119,1,0,0,7.6281,Gabbro_rect,4,7.628,1,12,0,12,0,1,,,,,,,,,,,,,
63bc9e8cd8106f8d94c636d4,SCR,2024-06-25_14h22.16.993,LearnStrategy,2023.2.3,MacIntel,63.29113924,7,1,14,0.091762899,-0.399161852,1,0,0,1.3653,Diorite_13,3,13,1,5,1.365,3,13,-0.36268219,-0.246734348,1,0,0,6.5607,Andesite_rect,1,6.561,0,13,0,13,0,1,,,,,,,,,,,,,
63bc9e8cd8106f8d94c636d4,SCR,2024-06-25_14h22.16.993,LearnStrategy,2023.2.3,MacIntel,63.29113924,7,1,15,-0.566972283,-0.118184611,1,0,0,1.1325,Gabbro_16,4,16,3,1,1.133,4,16,0.357138129,-0.252381388,1,0,0,1.59,Gabbro_rect,4,1.59,1,14,0,14,0,1,,,,,,,,,,,,,
63bc9e8cd8106f8d94c636d4,SCR,2024-06-25_14h22.16.993,LearnStrategy,2023.2.3,MacIntel,63.29113924,7,1,16,-0.535807359,0.070437385,1,0,0,1.0996,Pegmatite_16,6,16,4,1,1.1,6,16,-0.403422512,-0.245870497,1,0,0,1.4055,Andesite_rect,1,1.406,0,15,0,15,0,1,,,,,,,,,,,,,
63bc9e8cd8106f8d94c636d4,SCR,2024-06-25_14h22.16.993,LearnStrategy,2023.2.3,MacIntel,63.29113924,7,2,1,,,,,,,,1,05,,,,,,,,,,,,,1,4.264,1,,,,,,-0.389530097,-0.239170871,1,0,0,4.2643,Andesite_rect,0,0,0,0,1,
63bc9e8cd8106f8d94c636d4,SCR,2024-06-25_14h22.16.993,LearnStrategy,2023.2.3,MacIntel,63.29113924,7,2,2,,,,,,,,4,13,,,,,,,,,,,,,4,1.746,1,,,,,,0.305909831,-0.249455499,1,0,0,1.746,Gabbro_rect,1,0,1,0,1,
63bc9e8cd8106f8d94c636d4,SCR,2024-06-25_14h22.16.993,LearnStrategy,2023.2.3,MacIntel,63.29113924,7,2,3,,,,,,,,6,08,,,,,,,,,,,,,6,2.625,1,,,,,,-0.129796482,-0.41659668,1,0,0,2.6251,Pegmatite_rect,2,0,2,0,1,
63bc9e8cd8106f8d94c636d4,SCR,2024-06-25_14h22.16.993,LearnStrategy,2023.2.3,MacIntel,63.29113924,7,2,4,,,,,,,,2,12,,,,,,,,,,,,,2,1.478,1,,,,,,-0.096220161,-0.249710354,1,0,0,1.4782,Basalt_rect,3,0,3,0,1,
63bc9e8cd8106f8d94c636d4,SCR,2024-06-25_14h22.16.993,LearnStrategy,2023.2.3,MacIntel,63.29113924,7,2,5,,,,,,,,8,05,,,,,,,,,,,,,8,2.892,1,,,,,,0.354020047,-0.420914103,1,0,0,2.8924,Pumice_rect,4,0,4,0,1,
63bc9e8cd8106f8d94c636d4,SCR,2024-06-25_14h22.16.993,LearnStrategy,2023.2.3,MacIntel,63.29113924,7,2,6,,,,,,,,5,04,,,,,,,,,,,,,5,1.08,1,,,,,,-0.454761556,-0.410119154,1,0,0,1.0797,Obsidian_rect,5,0,5,0,1,
63bc9e8cd8106f8d94c636d4,SCR,2024-06-25_14h22.16.993,LearnStrategy,2023.2.3,MacIntel,63.29113924,7,2,7,,,,,,,,7,05,,,,,,,,,,,,,7,1.302,1,,,,,,0.092053697,-0.414200711,1,0,0,1.3021,Peridotite_rect,6,0,6,0,1,
63bc9e8cd8106f8d94c636d4,SCR,2024-06-25_14h22.16.993,LearnStrategy,2023.2.3,MacIntel,63.29113924,7,2,8,,,,,,,,8,08,,,,,,,,,,,,,8,1.492,1,,,,,,0.344755317,-0.389765489,1,0,0,1.492,Pumice_rect,7,0,7,0,1,
63bc9e8cd8106f8d94c636d4,SCR,2024-06-25_14h22.16.993,LearnStrategy,2023.2.3,MacIntel,63.29113924,7,2,9,,,,,,,,4,15,,,,,,,,,,,,,4,1.692,1,,,,,,0.360164117,-0.246496107,1,0,0,1.6917,Gabbro_rect,8,0,8,0,1,
63bc9e8cd8106f8d94c636d4,SCR,2024-06-25_14h22.16.993,LearnStrategy,2023.2.3,MacIntel,63.29113924,7,2,10,,,,,,,,2,08,,,,,,,,,,,,,2,2.346,1,,,,,,-0.094342312,-0.248186306,1,0,0,2.3462,Basalt_rect,9,0,9,0,1,
63bc9e8cd8106f8d94c636d4,SCR,2024-06-25_14h22.16.993,LearnStrategy,2023.2.3,MacIntel,63.29113924,7,2,11,,,,,,,,3,02,,,,,,,,,,,,,1,2.558,0,,,,,,-0.333777228,-0.251218126,1,0,0,2.5582,Andesite_rect,10,0,10,0,1,
63bc9e8cd8106f8d94c636d4,SCR,2024-06-25_14h22.16.993,LearnStrategy,2023.2.3,MacIntel,63.29113924,7,2,12,,,,,,,,5,10,,,,,,,,,,,,,5,1.163,1,,,,,,-0.387614746,-0.41198527,1,0,0,1.1628,Obsidian_rect,11,0,11,0,1,
63bc9e8cd8106f8d94c636d4,SCR,2024-06-25_14h22.16.993,LearnStrategy,2023.2.3,MacIntel,63.29113924,7,2,13,,,,,,,,1,06,,,,,,,,,,,,,3,7.695,0,,,,,,0.059950087,-0.24614129,1,0,0,7.6946,Diorite_rect,12,0,12,0,1,
63bc9e8cd8106f8d94c636d4,SCR,2024-06-25_14h22.16.993,LearnStrategy,2023.2.3,MacIntel,63.29113924,7,2,14,,,,,,,,7,08,,,,,,,,,,,,,7,4.632,1,,,,,,0.124776204,-0.396028781,1,0,0,4.6318,Peridotite_rect,13,0,13,0,1,
63bc9e8cd8106f8d94c636d4,SCR,2024-06-25_14h22.16.993,LearnStrategy,2023.2.3,MacIntel,63.29113924,7,2,15,,,,,,,,6,10,,,,,,,,,,,,,6,6.314,1,,,,,,-0.062051053,-0.387460192,1,0,0,6.3144,Pegmatite_rect,14,0,14,0,1,
63bc9e8cd8106f8d94c636d4,SCR,2024-06-25_14h22.16.993,LearnStrategy,2023.2.3,MacIntel,63.29113924,7,2,16,,,,,,,,3,14,,,,,,,,,,,,,3,8.168,1,,,,,,0.101886664,-0.243741455,1,0,0,8.1681,Diorite_rect,15,0,15,0,1,
63bc9e8cd8106f8d94c636d4,SCR,2024-06-25_14h22.16.993,LearnStrategy,2023.2.3,MacIntel,63.29113924,8,1,1,-0.060272556,0.371765628,1,0,0,1.4311,Peridotite_06,7,06,6,4,1.431,7,06,0.111208903,-0.411013048,1,0,0,8.9068,Peridotite_rect,7,8.907,1,0,0,0,0,1,,,,,,,,,,,,,
63bc9e8cd8106f8d94c636d4,SCR,2024-06-25_14h22.16.993,LearnStrategy,2023.2.3,MacIntel,63.29113924,8,1,2,-0.064063721,0.26254776,1,0,0,0.965,Diorite_15,3,15,5,4,0.965,3,15,0.365707737,-0.229756741,1,0,0,1.2222,Gabbro_rect,4,1.222,0,1,0,1,0,1,,,,,,,,,,,,,
63bc9e8cd8106f8d94c636d4,SCR,2024-06-25_14h22.16.993,LearnStrategy,2023.2.3,MacIntel,63.29113924,8,1,3,-0.083338623,-0.457544217,1,0,0,1.4663,Gabbro_14,4,14,1,4,1.466,4,14,0.118346965,-0.2432567,1,0,0,2.1249,Diorite_rect,3,2.125,0,2,0,2,0,1,,,,,,,,,,,,,
63bc9e8cd8106f8d94c636d4,SCR,2024-06-25_14h22.16.993,LearnStrategy,2023.2.3,MacIntel,63.29113924,8,1,4,-0.518516524,-0.260549655,1,0,0,1.399,Andesite_01,1,01,2,1,1.399,1,01,-0.400407545,-0.254385037,1,0,0,2.8925,Andesite_rect,1,2.892,1,3,0,3,0,1,,,,,,,,,,,,,
63bc9e8cd8106f8d94c636d4,SCR,2024-06-25_14h22.16.993,LearnStrategy,2023.2.3,MacIntel,63.29113924,8,1,5,-0.207133382,-0.247203979,1,0,0,1.1663,Obsidian_16,5,16,2,3,1.166,5,16,-0.434599847,-0.406564195,1,0,0,0.6891,Obsidian_rect,5,0.689,1,4,0,4,0,1,,,,,,,,,,,,,
63bc9e8cd8106f8d94c636d4,SCR,2024-06-25_14h22.16.993,LearnStrategy,2023.2.3,MacIntel,63.29113924,8,1,6,-0.523881158,0.265160675,1,0,0,1.2656,Gabbro_10,4,10,5,1,1.266,4,10,0.140237969,-0.250880737,1,0,0,4.3573,Diorite_rect,3,4.357,0,5,0,5,0,1,,,,,,,,,,,,,
63bc9e8cd8106f8d94c636d4,SCR,2024-06-25_14h22.16.993,LearnStrategy,2023.2.3,MacIntel,63.29113924,8,1,7,0.103615519,-0.117053223,1,0,0,0.8662,Diorite_10,3,10,3,5,0.866,3,10,0.129241062,-0.257683377,1,0,0,1.6899,Diorite_rect,3,1.69,1,6,0,6,0,1,,,,,,,,,,,,,
63bc9e8cd8106f8d94c636d4,SCR,2024-06-25_14h22.16.993,LearnStrategy,2023.2.3,MacIntel,63.29113924,8,1,8,0.561844347,0.219834815,1,0,0,1.4116,Basalt_06,2,06,5,8,1.412,2,06,-0.13870402,-0.25456387,1,0,0,0.8446,Basalt_rect,2,0.845,1,7,0,7,0,1,,,,,,,,,,,,,
63bc9e8cd8106f8d94c636d4,SCR,2024-06-25_14h22.16.993,LearnStrategy,2023.2.3,MacIntel,63.29113924,8,1,9,-0.220304565,0.224863434,1,0,0,1.1315,Gabbro_08,4,08,5,3,1.132,4,08,0.374587945,-0.25490587,1,0,0,2.3908,Gabbro_rect,4,2.391,1,8,0,8,0,1,,,,,,,,,,,,,
63bc9e8cd8106f8d94c636d4,SCR,2024-06-25_14h22.16.993,LearnStrategy,2023.2.3,MacIntel,63.29113924,8,1,10,0.539969211,-0.298635796,1,0,0,1.0669,Andesite_11,1,11,2,8,1.067,1,11,-0.409256795,-0.25658237,1,0,0,1.7574,Andesite_rect,1,1.757,1,9,0,9,0,1,,,,,,,,,,,,,
63bc9e8cd8106f8d94c636d4,SCR,2024-06-25_14h22.16.993,LearnStrategy,2023.2.3,MacIntel,63.29113924,8,1,11,0.407313097,0.078517049,1,0,0,1.032,Pumice_15,8,15,4,7,1.032,8,15,0.385850694,-0.412996148,1,0,0,3.1239,Pumice_rect,8,3.124,1,10,0,10,0,1,,,,,,,,,,,,,
63bc9e8cd8106f8d94c636d4,SCR,2024-06-25_14h22.16.993,LearnStrategy,2023.2.3,MacIntel,63.29113924,8,1,12,-0.251368883,-0.410430976,1,0,0,1.131,Andesite_09,1,09,1,3,1.131,1,09,-0.391689487,-0.263856879,1,0,0,1.2917,Andesite_rect,1,1.292,1,11,0,11,0,1,,,,,,,,,,,,,
63bc9e8cd8106f8d94c636d4,SCR,2024-06-25_14h22.16.993,LearnStrategy,2023.2.3,MacIntel,63.29113924,8,1,13,0.562227105,0.243511403,1,0,0,1.298,Basalt_06,2,06,5,8,1.298,2,06,-0.143080037,-0.251513265,1,0,0,1.4918,Basalt_rect,2,1.492,1,12,0,12,0,1,,,,,,,,,,,,,
63bc9e8cd8106f8d94c636d4,SCR,2024-06-25_14h22.16.993,LearnStrategy,2023.2.3,MacIntel,63.29113924,8,1,14,0.206521403,-0.438663601,1,0,0,1.2994,Diorite_09,3,09,1,6,1.299,3,09,-0.405775486,-0.244313558,1,0,0,5.8271,Andesite_rect,1,5.827,0,13,0,13,0,1,,,,,,,,,,,,,
63bc9e8cd8106f8d94c636d4,SCR,2024-06-25_14h22.16.993,LearnStrategy,2023.2.3,MacIntel,63.29113924,8,1,15,0.236518148,-0.249839749,1,0,0,1.0308,Pegmatite_03,6,03,2,6,1.031,6,03,-0.161078016,-0.408297797,1,0,0,2.4913,Pegmatite_rect,6,2.491,1,14,0,14,0,1,,,,,,,,,,,,,
63bc9e8cd8106f8d94c636d4,SCR,2024-06-25_14h22.16.993,LearnStrategy,2023.2.3,MacIntel,63.29113924,8,1,16,0.209636434,-0.238696899,1,0,0,0.9649,Pegmatite_03,6,03,2,6,0.965,6,03,-0.135201348,-0.398869222,1,0,0,0.9562,Pegmatite_rect,6,0.956,1,15,0,15,0,1,,,,,,,,,,,,,
63bc9e8cd8106f8d94c636d4,SCR,2024-06-25_14h22.16.993,LearnStrategy,2023.2.3,MacIntel,63.29113924,8,2,1,,,,,,,,7,04,,,,,,,,,,,,,4,11.63,0,,,,,,0.415933702,-0.261768867,1,0,0,11.63,Gabbro_rect,0,0,0,0,1,
63bc9e8cd8106f8d94c636d4,SCR,2024-06-25_14h22.16.993,LearnStrategy,2023.2.3,MacIntel,63.29113924,8,2,2,,,,,,,,3,07,,,,,,,,,,,,,6,2.78,0,,,,,,-0.167286513,-0.409860297,1,0,0,2.7797,Pegmatite_rect,1,0,1,0,1,
63bc9e8cd8106f8d94c636d4,SCR,2024-06-25_14h22.16.993,LearnStrategy,2023.2.3,MacIntel,63.29113924,8,2,3,,,,,,,,6,06,,,,,,,,,,,,,6,1.091,1,,,,,,-0.167286513,-0.409860297,1,0,0,1.0915,Pegmatite_rect,2,0,2,0,1,
63bc9e8cd8106f8d94c636d4,SCR,2024-06-25_14h22.16.993,LearnStrategy,2023.2.3,MacIntel,63.29113924,8,2,4,,,,,,,,8,10,,,,,,,,,,,,,8,1.292,1,,,,,,0.393373888,-0.402231988,1,0,0,1.2915,Pumice_rect,3,0,3,0,1,
63bc9e8cd8106f8d94c636d4,SCR,2024-06-25_14h22.16.993,LearnStrategy,2023.2.3,MacIntel,63.29113924,8,2,5,,,,,,,,3,08,,,,,,,,,,,,,1,2.793,0,,,,,,-0.373771498,-0.248759291,1,0,0,2.7925,Andesite_rect,4,0,4,0,1,
63bc9e8cd8106f8d94c636d4,SCR,2024-06-25_14h22.16.993,LearnStrategy,2023.2.3,MacIntel,63.29113924,8,2,6,,,,,,,,2,05,,,,,,,,,,,,,2,1.245,1,,,,,,-0.159610189,-0.260622423,1,0,0,1.2452,Basalt_rect,5,0,5,0,1,
63bc9e8cd8106f8d94c636d4,SCR,2024-06-25_14h22.16.993,LearnStrategy,2023.2.3,MacIntel,63.29113924,8,2,7,,,,,,,,7,10,,,,,,,,,,,,,7,1.291,1,,,,,,0.195618625,-0.413371582,1,0,0,1.2909,Peridotite_rect,6,0,6,0,1,
63bc9e8cd8106f8d94c636d4,SCR,2024-06-25_14h22.16.993,LearnStrategy,2023.2.3,MacIntel,63.29113924,8,2,8,,,,,,,,2,16,,,,,,,,,,,,,4,1.759,0,,,,,,0.380040826,-0.253826497,1,0,0,1.7589,Gabbro_rect,7,0,7,0,1,
63bc9e8cd8106f8d94c636d4,SCR,2024-06-25_14h22.16.993,LearnStrategy,2023.2.3,MacIntel,63.29113924,8,2,9,,,,,,,,8,16,,,,,,,,,,,,,8,1.313,1,,,,,,0.391071235,-0.388624878,1,0,0,1.3126,Pumice_rect,8,0,8,0,1,
63bc9e8cd8106f8d94c636d4,SCR,2024-06-25_14h22.16.993,LearnStrategy,2023.2.3,MacIntel,63.29113924,8,2,10,,,,,,,,4,09,,,,,,,,,,,,,4,2.892,1,,,,,,0.363728434,-0.23838874,1,0,0,2.8916,Gabbro_rect,9,0,9,0,1,
63bc9e8cd8106f8d94c636d4,SCR,2024-06-25_14h22.16.993,LearnStrategy,2023.2.3,MacIntel,63.29113924,8,2,11,,,,,,,,5,08,,,,,,,,,,,,,5,1.857,1,,,,,,-0.409003296,-0.403181288,1,0,0,1.8569,Obsidian_rect,10,0,10,0,1,
63bc9e8cd8106f8d94c636d4,SCR,2024-06-25_14h22.16.993,LearnStrategy,2023.2.3,MacIntel,63.29113924,8,2,12,,,,,,,,1,14,,,,,,,,,,,,,1,6.027,1,,,,,,-0.435031399,-0.238248291,1,0,0,6.0268,Andesite_rect,11,0,11,0,1,
63bc9e8cd8106f8d94c636d4,SCR,2024-06-25_14h22.16.993,LearnStrategy,2023.2.3,MacIntel,63.29113924,8,2,13,,,,,,,,5,05,,,,,,,,,,,,,5,1.245,1,,,,,,-0.370413411,-0.415972697,1,0,0,1.2445,Obsidian_rect,12,0,12,0,1,
63bc9e8cd8106f8d94c636d4,SCR,2024-06-25_14h22.16.993,LearnStrategy,2023.2.3,MacIntel,63.29113924,8,2,14,,,,,,,,1,02,,,,,,,,,,,,,1,3.158,1,,,,,,-0.3298506,-0.238397081,1,0,0,3.1579,Andesite_rect,13,0,13,0,1,
63bc9e8cd8106f8d94c636d4,SCR,2024-06-25_14h22.16.993,LearnStrategy,2023.2.3,MacIntel,63.29113924,8,2,15,,,,,,,,6,11,,,,,,,,,,,,,6,1.624,1,,,,,,-0.150902642,-0.410225762,1,0,0,1.624,Pegmatite_rect,14,0,14,0,1,
63bc9e8cd8106f8d94c636d4,SCR,2024-06-25_14h22.16.993,LearnStrategy,2023.2.3,MacIntel,63.29113924,8,2,16,,,,,,,,4,12,,,,,,,,,,,,,4,6.661,1,,,,,,0.332273356,-0.238396606,1,0,0,6.6607,Gabbro_rect,15,0,15,0,1,
63bc9e8cd8106f8d94c636d4,SCR,2024-06-25_14h22.16.993,LearnStrategy,2023.2.3,MacIntel,63.29113924,9,1,1,-0.084344618,0.246591983,1,0,0,63.5958,Diorite_15,3,15,5,4,63.596,3,15,0.152464871,-0.262436727,1,0,0,1.0449,Diorite_rect,3,1.045,1,0,0,0,0,1,,,,,,,,,,,,,
63bc9e8cd8106f8d94c636d4,SCR,2024-06-25_14h22.16.993,LearnStrategy,2023.2.3,MacIntel,63.29113924,9,1,2,0.2549882,-0.442833523,1,0,0,1.4664,Diorite_09,3,09,1,6,1.466,3,09,-0.339090237,-0.236381497,1,0,0,0.9234,Andesite_rect,1,0.923,0,1,0,1,0,1,,,,,,,,,,,,,
63bc9e8cd8106f8d94c636d4,SCR,2024-06-25_14h22.16.993,LearnStrategy,2023.2.3,MacIntel,63.29113924,9,1,3,-0.077606269,0.085946723,1,0,0,1.265,Pegmatite_13,6,13,4,4,1.265,6,13,-0.123268094,-0.410032484,1,0,0,2.4576,Pegmatite_rect,6,2.458,1,2,0,2,0,1,,,,,,,,,,,,,
63bc9e8cd8106f8d94c636d4,SCR,2024-06-25_14h22.16.993,LearnStrategy,2023.2.3,MacIntel,63.29113924,9,1,4,-0.56039839,-0.428095567,1,0,0,1.1324,Peridotite_02,7,02,1,1,1.132,7,02,0.102729017,-0.400722792,1,0,0,1.2565,Peridotite_rect,7,1.256,1,3,0,3,0,1,,,,,,,,,,,,,
63bc9e8cd8106f8d94c636d4,SCR,2024-06-25_14h22.16.993,LearnStrategy,2023.2.3,MacIntel,63.29113924,9,1,5,0.059962769,0.245021311,1,0,0,1.0976,Gabbro_05,4,05,5,5,1.098,4,05,0.179472114,-0.231105347,1,0,0,1.5248,Diorite_rect,3,1.525,0,4,0,4,0,1,,,,,,,,,,,,,
63bc9e8cd8106f8d94c636d4,SCR,2024-06-25_14h22.16.993,LearnStrategy,2023.2.3,MacIntel,63.29113924,9,1,6,-0.236655884,-0.250704549,1,0,0,0.9644,Obsidian_16,5,16,2,3,0.964,5,16,-0.395966661,-0.415551487,1,0,0,1.2592,Obsidian_rect,5,1.259,1,5,0,5,0,1,,,,,,,,,,,,,
63bc9e8cd8106f8d94c636d4,SCR,2024-06-25_14h22.16.993,LearnStrategy,2023.2.3,MacIntel,63.29113924,9,1,7,0.227964003,0.255416328,1,0,0,0.9979,Basalt_09,2,09,5,6,0.998,2,09,-0.142653334,-0.236939155,1,0,0,1.0904,Basalt_rect,2,1.09,1,6,0,6,0,1,,,,,,,,,,,,,
63bc9e8cd8106f8d94c636d4,SCR,2024-06-25_14h22.16.993,LearnStrategy,2023.2.3,MacIntel,63.29113924,9,1,8,-0.068176948,0.430463494,1,0,0,1.1309,Peridotite_06,7,06,6,4,1.131,7,06,0.140857001,-0.400075141,1,0,0,1.293,Peridotite_rect,7,1.293,1,7,0,7,0,1,,,,,,,,,,,,,
63bc9e8cd8106f8d94c636d4,SCR,2024-06-25_14h22.16.993,LearnStrategy,2023.2.3,MacIntel,63.29113924,9,1,9,0.248625895,-0.381825358,1,0,0,1.1635,Diorite_09,3,09,1,6,1.164,3,09,-0.333501451,-0.228722466,1,0,0,1.5266,Andesite_rect,1,1.527,0,8,0,8,0,1,,,,,,,,,,,,,
63bc9e8cd8106f8d94c636d4,SCR,2024-06-25_14h22.16.993,LearnStrategy,2023.2.3,MacIntel,63.29113924,9,1,10,0.269302572,-0.134562988,1,0,0,1.0977,Diorite_12,3,12,3,6,1.098,3,12,0.071834378,-0.236866184,1,0,0,1.2253,Diorite_rect,3,1.225,1,9,0,9,0,1,,,,,,,,,,,,,
63bc9e8cd8106f8d94c636d4,SCR,2024-06-25_14h22.16.993,LearnStrategy,2023.2.3,MacIntel,63.29113924,9,1,11,-0.235352037,-0.101633572,1,0,0,0.9974,Pumice_06,8,06,3,3,0.997,8,06,0.36156467,-0.413254191,1,0,0,1.0254,Pumice_rect,8,1.025,1,10,0,10,0,1,,,,,,,,,,,,,
63bc9e8cd8106f8d94c636d4,SCR,2024-06-25_14h22.16.993,LearnStrategy,2023.2.3,MacIntel,63.29113924,9,1,12,0.551520182,-0.220716485,1,0,0,1.1005,Andesite_11,1,11,2,8,1.101,1,11,-0.382344157,-0.267757433,1,0,0,1.0946,Andesite_rect,1,1.095,1,11,0,11,0,1,,,,,,,,,,,,,
63bc9e8cd8106f8d94c636d4,SCR,2024-06-25_14h22.16.993,LearnStrategy,2023.2.3,MacIntel,63.29113924,9,1,13,-0.373316718,-0.073662381,1,0,0,1.0662,Gabbro_03,4,03,3,2,1.066,4,03,0.380560981,-0.233919746,1,0,0,1.1893,Gabbro_rect,4,1.189,1,12,0,12,0,1,,,,,,,,,,,,,
63bc9e8cd8106f8d94c636d4,SCR,2024-06-25_14h22.16.993,LearnStrategy,2023.2.3,MacIntel,63.29113924,9,1,14,-0.078276503,-0.093839383,1,0,0,0.9646,Basalt_10,2,10,3,4,0.965,2,10,-0.111488037,-0.270232069,1,0,0,4.5616,Basalt_rect,2,4.562,1,13,0,13,0,1,,,,,,,,,,,,,
63bc9e8cd8106f8d94c636d4,SCR,2024-06-25_14h22.16.993,LearnStrategy,2023.2.3,MacIntel,63.29113924,9,1,15,-0.235169237,0.413122491,1,0,0,1.2987,Pegmatite_15,6,15,6,3,1.299,6,15,-0.172928331,-0.390336439,1,0,0,1.1895,Pegmatite_rect,6,1.189,1,14,0,14,0,1,,,,,,,,,,,,,
63bc9e8cd8106f8d94c636d4,SCR,2024-06-25_14h22.16.993,LearnStrategy,2023.2.3,MacIntel,63.29113924,9,1,16,-0.41938246,-0.393689846,1,0,0,1.154,Andesite_10,1,10,1,2,1.154,1,10,-0.325626356,-0.256879476,1,0,0,2.0775,Andesite_rect,1,2.078,1,15,0,15,0,1,,,,,,,,,,,,,
63bc9e8cd8106f8d94c636d4,SCR,2024-06-25_14h22.16.993,LearnStrategy,2023.2.3,MacIntel,63.29113924,9,2,1,,,,,,,,6,12,,,,,,,,,,,,,6,3.792,1,,,,,,-0.106921658,-0.418572049,1,0,0,3.7924,Pegmatite_rect,0,0,0,0,1,
63bc9e8cd8106f8d94c636d4,SCR,2024-06-25_14h22.16.993,LearnStrategy,2023.2.3,MacIntel,63.29113924,9,2,2,,,,,,,,4,11,,,,,,,,,,,,,4,4.18,1,,,,,,0.366365696,-0.238264499,1,0,0,4.1802,Gabbro_rect,1,0,1,0,1,
63bc9e8cd8106f8d94c636d4,SCR,2024-06-25_14h22.16.993,LearnStrategy,2023.2.3,MacIntel,63.29113924,9,2,3,,,,,,,,3,16,,,,,,,,,,,,,3,3.712,1,,,,,,0.100840115,-0.251645033,1,0,0,3.7124,Diorite_rect,2,0,2,0,1,
63bc9e8cd8106f8d94c636d4,SCR,2024-06-25_14h22.16.993,LearnStrategy,2023.2.3,MacIntel,63.29113924,9,2,4,,,,,,,,6,07,,,,,,,,,,,,,6,2.835,1,,,,,,-0.183096788,-0.4039721,1,0,0,2.835,Pegmatite_rect,3,0,3,0,1,
63bc9e8cd8106f8d94c636d4,SCR,2024-06-25_14h22.16.993,LearnStrategy,2023.2.3,MacIntel,63.29113924,9,2,5,,,,,,,,3,06,,,,,,,,,,,,,3,4.893,1,,,,,,0.072827352,-0.236516724,1,0,0,4.8925,Diorite_rect,4,0,4,0,1,
63bc9e8cd8106f8d94c636d4,SCR,2024-06-25_14h22.16.993,LearnStrategy,2023.2.3,MacIntel,63.29113924,9,2,6,,,,,,,,2,02,,,,,,,,,,,,,2,1.412,1,,,,,,-0.1459021,-0.240552911,1,0,0,1.4117,Basalt_rect,5,0,5,0,1,
63bc9e8cd8106f8d94c636d4,SCR,2024-06-25_14h22.16.993,LearnStrategy,2023.2.3,MacIntel,63.29113924,9,2,7,,,,,,,,1,04,,,,,,,,,,,,,1,2.557,1,,,,,,-0.421320157,-0.256844076,1,0,0,2.5572,Andesite_rect,6,0,6,0,1,
63bc9e8cd8106f8d94c636d4,SCR,2024-06-25_14h22.16.993,LearnStrategy,2023.2.3,MacIntel,63.29113924,9,2,8,,,,,,,,8,02,,,,,,,,,,,,,8,1.079,1,,,,,,0.385009087,-0.392708198,1,0,0,1.0793,Pumice_rect,7,0,7,0,1,
63bc9e8cd8106f8d94c636d4,SCR,2024-06-25_14h22.16.993,LearnStrategy,2023.2.3,MacIntel,63.29113924,9,2,9,,,,,,,,1,07,,,,,,,,,,,,,6,1.492,0,,,,,,-0.141221924,-0.413242594,1,0,0,1.4919,Pegmatite_rect,8,0,8,0,1,
63bc9e8cd8106f8d94c636d4,SCR,2024-06-25_14h22.16.993,LearnStrategy,2023.2.3,MacIntel,63.29113924,9,2,10,,,,,,,,5,06,,,,,,,,,,,,,5,1.258,1,,,,,,-0.380892605,-0.401376411,1,0,0,1.2577,Obsidian_rect,9,0,9,0,1,
63bc9e8cd8106f8d94c636d4,SCR,2024-06-25_14h22.16.993,LearnStrategy,2023.2.3,MacIntel,63.29113924,9,2,11,,,,,,,,5,07,,,,,,,,,,,,,5,0.89,1,,,,,,-0.395214301,-0.412300212,1,0,0,0.8904,Obsidian_rect,10,0,10,0,1,
63bc9e8cd8106f8d94c636d4,SCR,2024-06-25_14h22.16.993,LearnStrategy,2023.2.3,MacIntel,63.29113924,9,2,12,,,,,,,,8,14,,,,,,,,,,,,,8,1.059,1,,,,,,0.385197076,-0.406167196,1,0,0,1.059,Pumice_rect,11,0,11,0,1,
63bc9e8cd8106f8d94c636d4,SCR,2024-06-25_14h22.16.993,LearnStrategy,2023.2.3,MacIntel,63.29113924,9,2,13,,,,,,,,4,01,,,,,,,,,,,,,4,1.892,1,,,,,,0.37207194,-0.255972087,1,0,0,1.8915,Gabbro_rect,12,0,12,0,1,
63bc9e8cd8106f8d94c636d4,SCR,2024-06-25_14h22.16.993,LearnStrategy,2023.2.3,MacIntel,63.29113924,9,2,14,,,,,,,,7,15,,,,,,,,,,,,,7,1.059,1,,,,,,0.146097209,-0.403016154,1,0,0,1.0588,Peridotite_rect,13,0,13,0,1,
63bc9e8cd8106f8d94c636d4,SCR,2024-06-25_14h22.16.993,LearnStrategy,2023.2.3,MacIntel,63.29113924,9,2,15,,,,,,,,2,04,,,,,,,,,,,,,2,1.025,1,,,,,,-0.138327501,-0.239319119,1,0,0,1.025,Basalt_rect,14,0,14,0,1,
63bc9e8cd8106f8d94c636d4,SCR,2024-06-25_14h22.16.993,LearnStrategy,2023.2.3,MacIntel,63.29113924,9,2,16,,,,,,,,7,07,,,,,,,,,,,,,7,1.425,1,,,,,,0.163190715,-0.418095432,1,0,0,1.4248,Peridotite_rect,15,0,15,0,1,
63bc9e8cd8106f8d94c636d4,SCR,2024-06-25_14h22.16.993,LearnStrategy,2023.2.3,MacIntel,63.29113924,,,,,,,,,,,,,,,,,,,,,,,,,,,,,,,,,,,,,,,,,,,,,1
63bc9e8cd8106f8d94c636d4,SCR,2024-06-25_14h22.16.993,LearnStrategy,2023.2.3,MacIntel,63.29113924,,,,,,,,,,,,,,,,,,,,,,,,,,,,,,,,,,,,,,,,,,,,,
63bc9e8cd8106f8d94c636d4,SCR,2024-06-25_14h22.16.993,LearnStrategy,2023.2.3,MacIntel,63.29113924,,,,,,,,,,,7,02,1,1,,,,,,,,,,,,,,,,,,,,,,,,,,,,,,,
63bc9e8cd8106f8d94c636d4,SCR,2024-06-25_14h22.16.993,LearnStrategy,2023.2.3,MacIntel,63.29113924,,,,,,,,,,,1,10,1,2,,,,,,,,,,,,,,,,,,,,,,,,,,,,,,,
63bc9e8cd8106f8d94c636d4,SCR,2024-06-25_14h22.16.993,LearnStrategy,2023.2.3,MacIntel,63.29113924,,,,,,,,,,,1,09,1,3,,,,,,,,,,,,,,,,,,,,,,,,,,,,,,,
63bc9e8cd8106f8d94c636d4,SCR,2024-06-25_14h22.16.993,LearnStrategy,2023.2.3,MacIntel,63.29113924,,,,,,,,,,,4,14,1,4,,,,,,,,,,,,,,,,,,,,,,,,,,,,,,,
63bc9e8cd8106f8d94c636d4,SCR,2024-06-25_14h22.16.993,LearnStrategy,2023.2.3,MacIntel,63.29113924,,,,,,,,,,,3,13,1,5,,,,,,,,,,,,,,,,,,,,,,,,,,,,,,,
63bc9e8cd8106f8d94c636d4,SCR,2024-06-25_14h22.16.993,LearnStrategy,2023.2.3,MacIntel,63.29113924,,,,,,,,,,,3,09,1,6,,,,,,,,,,,,,,,,,,,,,,,,,,,,,,,
63bc9e8cd8106f8d94c636d4,SCR,2024-06-25_14h22.16.993,LearnStrategy,2023.2.3,MacIntel,63.29113924,,,,,,,,,,,5,12,1,7,,,,,,,,,,,,,,,,,,,,,,,,,,,,,,,
63bc9e8cd8106f8d94c636d4,SCR,2024-06-25_14h22.16.993,LearnStrategy,2023.2.3,MacIntel,63.29113924,,,,,,,,,,,2,11,1,8,,,,,,,,,,,,,,,,,,,,,,,,,,,,,,,
63bc9e8cd8106f8d94c636d4,SCR,2024-06-25_14h22.16.993,LearnStrategy,2023.2.3,MacIntel,63.29113924,,,,,,,,,,,1,01,2,1,,,,,,,,,,,,,,,,,,,,,,,,,,,,,,,
63bc9e8cd8106f8d94c636d4,SCR,2024-06-25_14h22.16.993,LearnStrategy,2023.2.3,MacIntel,63.29113924,,,,,,,,,,,8,03,2,2,,,,,,,,,,,,,,,,,,,,,,,,,,,,,,,
63bc9e8cd8106f8d94c636d4,SCR,2024-06-25_14h22.16.993,LearnStrategy,2023.2.3,MacIntel,63.29113924,,,,,,,,,,,5,16,2,3,,,,,,,,,,,,,,,,,,,,,,,,,,,,,,,
63bc9e8cd8106f8d94c636d4,SCR,2024-06-25_14h22.16.993,LearnStrategy,2023.2.3,MacIntel,63.29113924,,,,,,,,,,,5,09,2,4,,,,,,,,,,,,,,,,,,,,,,,,,,,,,,,
63bc9e8cd8106f8d94c636d4,SCR,2024-06-25_14h22.16.993,LearnStrategy,2023.2.3,MacIntel,63.29113924,,,,,,,,,,,7,12,2,5,,,,,,,,,,,,,,,,,,,,,,,,,,,,,,,
63bc9e8cd8106f8d94c636d4,SCR,2024-06-25_14h22.16.993,LearnStrategy,2023.2.3,MacIntel,63.29113924,,,,,,,,,,,6,03,2,6,,,,,,,,,,,,,,,,,,,,,,,,,,,,,,,
63bc9e8cd8106f8d94c636d4,SCR,2024-06-25_14h22.16.993,LearnStrategy,2023.2.3,MacIntel,63.29113924,,,,,,,,,,,7,14,2,7,,,,,,,,,,,,,,,,,,,,,,,,,,,,,,,
63bc9e8cd8106f8d94c636d4,SCR,2024-06-25_14h22.16.993,LearnStrategy,2023.2.3,MacIntel,63.29113924,,,,,,,,,,,1,11,2,8,,,,,,,,,,,,,,,,,,,,,,,,,,,,,,,
63bc9e8cd8106f8d94c636d4,SCR,2024-06-25_14h22.16.993,LearnStrategy,2023.2.3,MacIntel,63.29113924,,,,,,,,,,,4,16,3,1,,,,,,,,,,,,,,,,,,,,,,,,,,,,,,,
63bc9e8cd8106f8d94c636d4,SCR,2024-06-25_14h22.16.993,LearnStrategy,2023.2.3,MacIntel,63.29113924,,,,,,,,,,,4,03,3,2,,,,,,,,,,,,,,,,,,,,,,,,,,,,,,,
63bc9e8cd8106f8d94c636d4,SCR,2024-06-25_14h22.16.993,LearnStrategy,2023.2.3,MacIntel,63.29113924,,,,,,,,,,,8,06,3,3,,,,,,,,,,,,,,,,,,,,,,,,,,,,,,,
63bc9e8cd8106f8d94c636d4,SCR,2024-06-25_14h22.16.993,LearnStrategy,2023.2.3,MacIntel,63.29113924,,,,,,,,,,,2,10,3,4,,,,,,,,,,,,,,,,,,,,,,,,,,,,,,,
63bc9e8cd8106f8d94c636d4,SCR,2024-06-25_14h22.16.993,LearnStrategy,2023.2.3,MacIntel,63.29113924,,,,,,,,,,,3,10,3,5,,,,,,,,,,,,,,,,,,,,,,,,,,,,,,,
63bc9e8cd8106f8d94c636d4,SCR,2024-06-25_14h22.16.993,LearnStrategy,2023.2.3,MacIntel,63.29113924,,,,,,,,,,,3,12,3,6,,,,,,,,,,,,,,,,,,,,,,,,,,,,,,,
63bc9e8cd8106f8d94c636d4,SCR,2024-06-25_14h22.16.993,LearnStrategy,2023.2.3,MacIntel,63.29113924,,,,,,,,,,,7,13,3,7,,,,,,,,,,,,,,,,,,,,,,,,,,,,,,,
63bc9e8cd8106f8d94c636d4,SCR,2024-06-25_14h22.16.993,LearnStrategy,2023.2.3,MacIntel,63.29113924,,,,,,,,,,,7,16,3,8,,,,,,,,,,,,,,,,,,,,,,,,,,,,,,,
63bc9e8cd8106f8d94c636d4,SCR,2024-06-25_14h22.16.993,LearnStrategy,2023.2.3,MacIntel,63.29113924,,,,,,,,,,,6,16,4,1,,,,,,,,,,,,,,,,,,,,,,,,,,,,,,,
63bc9e8cd8106f8d94c636d4,SCR,2024-06-25_14h22.16.993,LearnStrategy,2023.2.3,MacIntel,63.29113924,,,,,,,,,,,3,11,4,2,,,,,,,,,,,,,,,,,,,,,,,,,,,,,,,
63bc9e8cd8106f8d94c636d4,SCR,2024-06-25_14h22.16.993,LearnStrategy,2023.2.3,MacIntel,63.29113924,,,,,,,,,,,2,14,4,3,,,,,,,,,,,,,,,,,,,,,,,,,,,,,,,
63bc9e8cd8106f8d94c636d4,SCR,2024-06-25_14h22.16.993,LearnStrategy,2023.2.3,MacIntel,63.29113924,,,,,,,,,,,6,13,4,4,,,,,,,,,,,,,,,,,,,,,,,,,,,,,,,
63bc9e8cd8106f8d94c636d4,SCR,2024-06-25_14h22.16.993,LearnStrategy,2023.2.3,MacIntel,63.29113924,,,,,,,,,,,1,03,4,5,,,,,,,,,,,,,,,,,,,,,,,,,,,,,,,
63bc9e8cd8106f8d94c636d4,SCR,2024-06-25_14h22.16.993,LearnStrategy,2023.2.3,MacIntel,63.29113924,,,,,,,,,,,8,09,4,6,,,,,,,,,,,,,,,,,,,,,,,,,,,,,,,
63bc9e8cd8106f8d94c636d4,SCR,2024-06-25_14h22.16.993,LearnStrategy,2023.2.3,MacIntel,63.29113924,,,,,,,,,,,8,15,4,7,,,,,,,,,,,,,,,,,,,,,,,,,,,,,,,
63bc9e8cd8106f8d94c636d4,SCR,2024-06-25_14h22.16.993,LearnStrategy,2023.2.3,MacIntel,63.29113924,,,,,,,,,,,8,13,4,8,,,,,,,,,,,,,,,,,,,,,,,,,,,,,,,
63bc9e8cd8106f8d94c636d4,SCR,2024-06-25_14h22.16.993,LearnStrategy,2023.2.3,MacIntel,63.29113924,,,,,,,,,,,4,10,5,1,,,,,,,,,,,,,,,,,,,,,,,,,,,,,,,
63bc9e8cd8106f8d94c636d4,SCR,2024-06-25_14h22.16.993,LearnStrategy,2023.2.3,MacIntel,63.29113924,,,,,,,,,,,8,04,5,2,,,,,,,,,,,,,,,,,,,,,,,,,,,,,,,
63bc9e8cd8106f8d94c636d4,SCR,2024-06-25_14h22.16.993,LearnStrategy,2023.2.3,MacIntel,63.29113924,,,,,,,,,,,4,08,5,3,,,,,,,,,,,,,,,,,,,,,,,,,,,,,,,
63bc9e8cd8106f8d94c636d4,SCR,2024-06-25_14h22.16.993,LearnStrategy,2023.2.3,MacIntel,63.29113924,,,,,,,,,,,3,15,5,4,,,,,,,,,,,,,,,,,,,,,,,,,,,,,,,
63bc9e8cd8106f8d94c636d4,SCR,2024-06-25_14h22.16.993,LearnStrategy,2023.2.3,MacIntel,63.29113924,,,,,,,,,,,4,05,5,5,,,,,,,,,,,,,,,,,,,,,,,,,,,,,,,
63bc9e8cd8106f8d94c636d4,SCR,2024-06-25_14h22.16.993,LearnStrategy,2023.2.3,MacIntel,63.29113924,,,,,,,,,,,2,09,5,6,,,,,,,,,,,,,,,,,,,,,,,,,,,,,,,
63bc9e8cd8106f8d94c636d4,SCR,2024-06-25_14h22.16.993,LearnStrategy,2023.2.3,MacIntel,63.29113924,,,,,,,,,,,1,16,5,7,,,,,,,,,,,,,,,,,,,,,,,,,,,,,,,
63bc9e8cd8106f8d94c636d4,SCR,2024-06-25_14h22.16.993,LearnStrategy,2023.2.3,MacIntel,63.29113924,,,,,,,,,,,2,06,5,8,,,,,,,,,,,,,,,,,,,,,,,,,,,,,,,
63bc9e8cd8106f8d94c636d4,SCR,2024-06-25_14h22.16.993,LearnStrategy,2023.2.3,MacIntel,63.29113924,,,,,,,,,,,6,09,6,1,,,,,,,,,,,,,,,,,,,,,,,,,,,,,,,
63bc9e8cd8106f8d94c636d4,SCR,2024-06-25_14h22.16.993,LearnStrategy,2023.2.3,MacIntel,63.29113924,,,,,,,,,,,6,05,6,2,,,,,,,,,,,,,,,,,,,,,,,,,,,,,,,
63bc9e8cd8106f8d94c636d4,SCR,2024-06-25_14h22.16.993,LearnStrategy,2023.2.3,MacIntel,63.29113924,,,,,,,,,,,6,15,6,3,,,,,,,,,,,,,,,,,,,,,,,,,,,,,,,
63bc9e8cd8106f8d94c636d4,SCR,2024-06-25_14h22.16.993,LearnStrategy,2023.2.3,MacIntel,63.29113924,,,,,,,,,,,7,06,6,4,,,,,,,,,,,,,,,,,,,,,,,,,,,,,,,
63bc9e8cd8106f8d94c636d4,SCR,2024-06-25_14h22.16.993,LearnStrategy,2023.2.3,MacIntel,63.29113924,,,,,,,,,,,5,11,6,5,,,,,,,,,,,,,,,,,,,,,,,,,,,,,,,
63bc9e8cd8106f8d94c636d4,SCR,2024-06-25_14h22.16.993,LearnStrategy,2023.2.3,MacIntel,63.29113924,,,,,,,,,,,5,02,6,6,,,,,,,,,,,,,,,,,,,,,,,,,,,,,,,
63bc9e8cd8106f8d94c636d4,SCR,2024-06-25_14h22.16.993,LearnStrategy,2023.2.3,MacIntel,63.29113924,,,,,,,,,,,2,01,6,7,,,,,,,,,,,,,,,,,,,,,,,,,,,,,,,
63bc9e8cd8106f8d94c636d4,SCR,2024-06-25_14h22.16.993,LearnStrategy,2023.2.3,MacIntel,63.29113924,,,,,,,,,,,5,14,6,8,,,,,,,,,,,,,,,,,,,,,,,,,,,,,,,