participant,condition,date,expName,psychopyVersion,OS,frameRate,block,phase,trial,learn_mouse_2.x,learn_mouse_2.y,learn_mouse_2.leftButton,learn_mouse_2.midButton,learn_mouse_2.rightButton,learn_mouse_2.time,learn_mouse_2.clicked_name,cat,token,row,col,t_select,cat_mouse_l.x,cat_mouse_l.y,cat_mouse_l.leftButton,cat_mouse_l.midButton,cat_mouse_l.rightButton,cat_mouse_l.time,cat_mouse_l.clicked_name,resp,t_resp,corr,train_trials.thisRepN,train_trials.thisTrialN,train_trials.thisN,train_trials.thisIndex,train_trials.ran,cat_mouse_t.x,cat_mouse_t.y,cat_mouse_t.leftButton,cat_mouse_t.midButton,cat_mouse_t.rightButton,cat_mouse_t.time,cat_mouse_t.clicked_name,test_trials.thisRepN,test_trials.thisTrialN,test_trials.thisN,test_trials.thisIndex,test_trials.ran,Bonus
63bd81516745e78ee7f50f7f,TCN,2024-06-11_13h09.55.425,LearnStrategy,2023.2.3,MacIntel,59.17159763,,,,,,,,,,,,,,,,,,,,,,,,,,,,,,,,,,,,,,,,,,,
63bd81516745e78ee7f50f7f,TCN,2024-06-11_13h09.55.425,LearnStrategy,2023.2.3,MacIntel,59.17159763,1,1,1,0.015492215,-0.00802653,1,0,0,10.2219,rock_grid_rect_2,6,06,-1,-1,10.222,0.380212267,-0.392296549,1,0,0,5.1807,Pumice_rect,8,5.181,0,0,0,0,0,1,,,,,,,,,,,,,
63bd81516745e78ee7f50f7f,TCN,2024-06-11_13h09.55.425,LearnStrategy,2023.2.3,MacIntel,59.17159763,1,1,2,-0.012097846,-0.0146462,1,0,0,1.3811,rock_grid_rect_2,8,13,-1,-1,1.381,0.091995578,-0.256764662,1,0,0,2.7095,Diorite_rect,3,2.709,0,1,0,1,0,1,,,,,,,,,,,,,
63bd81516745e78ee7f50f7f,TCN,2024-06-11_13h09.55.425,LearnStrategy,2023.2.3,MacIntel,59.17159763,1,1,3,0.034479641,-0.016868964,1,0,0,1.6971,rock_grid_rect_2,3,15,-1,-1,1.697,-0.092172987,-0.235597805,1,0,0,1.1766,Basalt_rect,2,1.177,0,2,0,2,0,1,,,,,,,,,,,,,
63bd81516745e78ee7f50f7f,TCN,2024-06-11_13h09.55.425,LearnStrategy,2023.2.3,MacIntel,59.17159763,1,1,4,-0.004218072,-0.010271335,1,0,0,2.1657,rock_grid_rect_2,4,12,-1,-1,2.166,-0.352502916,-0.24507921,1,0,0,3.0889,Andesite_rect,1,3.089,0,3,0,3,0,1,,,,,,,,,,,,,
63bd81516745e78ee7f50f7f,TCN,2024-06-11_13h09.55.425,LearnStrategy,2023.2.3,MacIntel,59.17159763,1,1,5,-0.05622111,-0.016531982,1,0,0,2.3478,rock_grid_rect_2,1,09,-1,-1,2.348,-0.054454685,-0.398622504,1,0,0,3.1267,Pegmatite_rect,6,3.127,0,4,0,4,0,1,,,,,,,,,,,,,
63bd81516745e78ee7f50f7f,TCN,2024-06-11_13h09.55.425,LearnStrategy,2023.2.3,MacIntel,59.17159763,1,1,6,-0.004417114,-0.001356405,1,0,0,1.4635,rock_grid_rect_2,8,14,-1,-1,1.464,-0.090643311,-0.257146267,1,0,0,2.3928,Basalt_rect,2,2.393,0,5,0,5,0,1,,,,,,,,,,,,,
63bd81516745e78ee7f50f7f,TCN,2024-06-11_13h09.55.425,LearnStrategy,2023.2.3,MacIntel,59.17159763,1,1,7,-0.060379706,-0.005155504,1,0,0,2.3982,rock_grid_rect_2,1,04,-1,-1,2.398,-0.34237264,-0.405555488,1,0,0,1.8588,Obsidian_rect,5,1.859,0,6,0,6,0,1,,,,,,,,,,,,,
63bd81516745e78ee7f50f7f,TCN,2024-06-11_13h09.55.425,LearnStrategy,2023.2.3,MacIntel,59.17159763,1,1,8,-0.005920749,-0.004761488,1,0,0,1.2821,rock_grid_rect_2,7,13,-1,-1,1.282,0.161507636,-0.40166904,1,0,0,1.7761,Peridotite_rect,7,1.776,1,7,0,7,0,1,,,,,,,,,,,,,
63bd81516745e78ee7f50f7f,TCN,2024-06-11_13h09.55.425,LearnStrategy,2023.2.3,MacIntel,59.17159763,1,1,9,-0.011298557,0.002883233,1,0,0,1.6145,rock_grid_rect_2,2,01,-1,-1,1.615,0.34406684,-0.264347127,1,0,0,4.2431,Gabbro_rect,4,4.243,0,8,0,8,0,1,,,,,,,,,,,,,
63bd81516745e78ee7f50f7f,TCN,2024-06-11_13h09.55.425,LearnStrategy,2023.2.3,MacIntel,59.17159763,1,1,10,-0.048239068,-0.006371324,1,0,0,1.2315,rock_grid_rect_2,6,12,-1,-1,1.231,-0.094539252,-0.402747125,1,0,0,2.959,Pegmatite_rect,6,2.959,1,9,0,9,0,1,,,,,,,,,,,,,
63bd81516745e78ee7f50f7f,TCN,2024-06-11_13h09.55.425,LearnStrategy,2023.2.3,MacIntel,59.17159763,1,1,11,-0.110299479,-0.005130446,1,0,0,1.2481,rock_grid_rect_2,5,10,-1,-1,1.248,-0.326343519,-0.250200941,1,0,0,2.0432,Andesite_rect,1,2.043,0,10,0,10,0,1,,,,,,,,,,,,,
63bd81516745e78ee7f50f7f,TCN,2024-06-11_13h09.55.425,LearnStrategy,2023.2.3,MacIntel,59.17159763,1,1,12,-0.017198622,-0.003671739,1,0,0,1.2491,rock_grid_rect_2,5,12,-1,-1,1.249,-0.098521186,-0.257620036,1,0,0,2.5593,Basalt_rect,2,2.559,0,11,0,11,0,1,,,,,,,,,,,,,
63bd81516745e78ee7f50f7f,TCN,2024-06-11_13h09.55.425,LearnStrategy,2023.2.3,MacIntel,59.17159763,1,1,13,-0.060155436,-0.005204773,1,0,0,1.0135,rock_grid_rect_2,4,14,-1,-1,1.013,0.095132378,-0.266008233,1,0,0,2.1601,Diorite_rect,3,2.16,0,12,0,12,0,1,,,,,,,,,,,,,
63bd81516745e78ee7f50f7f,TCN,2024-06-11_13h09.55.425,LearnStrategy,2023.2.3,MacIntel,59.17159763,1,1,14,-0.140200873,-0.001269294,1,0,0,1.0153,rock_grid_rect_2,3,09,-1,-1,1.015,-0.047793172,-0.404925469,1,0,0,3.509,Pegmatite_rect,6,3.509,0,13,0,13,0,1,,,,,,,,,,,,,
63bd81516745e78ee7f50f7f,TCN,2024-06-11_13h09.55.425,LearnStrategy,2023.2.3,MacIntel,59.17159763,1,1,15,-0.057913208,0.005123969,1,0,0,1.1145,rock_grid_rect_2,7,14,-1,-1,1.114,0.335362481,-0.409310303,1,0,0,2.8598,Pumice_rect,8,2.86,0,14,0,14,0,1,,,,,,,,,,,,,
63bd81516745e78ee7f50f7f,TCN,2024-06-11_13h09.55.425,LearnStrategy,2023.2.3,MacIntel,59.17159763,1,1,16,0.041567993,0.016560601,1,0,0,1.0312,rock_grid_rect_2,2,06,-1,-1,1.031,-0.089831543,-0.255344916,1,0,0,2.0094,Basalt_rect,2,2.009,1,15,0,15,0,1,,,,,,,,,,,,,
63bd81516745e78ee7f50f7f,TCN,2024-06-11_13h09.55.425,LearnStrategy,2023.2.3,MacIntel,59.17159763,1,2,1,,,,,,,,8,08,,,,,,,,,,,5,2.608,0,,,,,,-0.397982347,-0.388086683,1,0,0,2.6081,Obsidian_rect,0,0,0,0,1,
63bd81516745e78ee7f50f7f,TCN,2024-06-11_13h09.55.425,LearnStrategy,2023.2.3,MacIntel,59.17159763,1,2,2,,,,,,,,2,04,,,,,,,,,,,2,2.126,1,,,,,,-0.150627984,-0.252222765,1,0,0,2.1264,Basalt_rect,1,0,1,0,1,
63bd81516745e78ee7f50f7f,TCN,2024-06-11_13h09.55.425,LearnStrategy,2023.2.3,MacIntel,59.17159763,1,2,3,,,,,,,,3,12,,,,,,,,,,,7,2.666,0,,,,,,0.172033963,-0.41348626,1,0,0,2.6661,Peridotite_rect,2,0,2,0,1,
63bd81516745e78ee7f50f7f,TCN,2024-06-11_13h09.55.425,LearnStrategy,2023.2.3,MacIntel,59.17159763,1,2,4,,,,,,,,3,02,,,,,,,,,,,3,1.742,1,,,,,,0.065206638,-0.248468764,1,0,0,1.7425,Diorite_rect,3,0,3,0,1,
63bd81516745e78ee7f50f7f,TCN,2024-06-11_13h09.55.425,LearnStrategy,2023.2.3,MacIntel,59.17159763,1,2,5,,,,,,,,7,05,,,,,,,,,,,4,1.693,0,,,,,,0.362416857,-0.249186944,1,0,0,1.6934,Gabbro_rect,4,0,4,0,1,
63bd81516745e78ee7f50f7f,TCN,2024-06-11_13h09.55.425,LearnStrategy,2023.2.3,MacIntel,59.17159763,1,2,6,,,,,,,,1,11,,,,,,,,,,,1,2.609,1,,,,,,-0.373258192,-0.243904012,1,0,0,2.609,Andesite_rect,5,0,5,0,1,
63bd81516745e78ee7f50f7f,TCN,2024-06-11_13h09.55.425,LearnStrategy,2023.2.3,MacIntel,59.17159763,1,2,7,,,,,,,,8,16,,,,,,,,,,,5,2.51,0,,,,,,-0.42956604,-0.415713026,1,0,0,2.5096,Obsidian_rect,6,0,6,0,1,
63bd81516745e78ee7f50f7f,TCN,2024-06-11_13h09.55.425,LearnStrategy,2023.2.3,MacIntel,59.17159763,1,2,8,,,,,,,,5,11,,,,,,,,,,,6,1.609,0,,,,,,-0.156747979,-0.403944973,1,0,0,1.6089,Pegmatite_rect,7,0,7,0,1,
63bd81516745e78ee7f50f7f,TCN,2024-06-11_13h09.55.425,LearnStrategy,2023.2.3,MacIntel,59.17159763,1,2,9,,,,,,,,6,10,,,,,,,,,,,7,2.843,0,,,,,,0.183071493,-0.416399536,1,0,0,2.8434,Peridotite_rect,8,0,8,0,1,
63bd81516745e78ee7f50f7f,TCN,2024-06-11_13h09.55.425,LearnStrategy,2023.2.3,MacIntel,59.17159763,1,2,10,,,,,,,,6,16,,,,,,,,,,,3,1.826,0,,,,,,0.159228855,-0.26767768,1,0,0,1.8259,Diorite_rect,9,0,9,0,1,
63bd81516745e78ee7f50f7f,TCN,2024-06-11_13h09.55.425,LearnStrategy,2023.2.3,MacIntel,59.17159763,1,2,11,,,,,,,,4,13,,,,,,,,,,,3,1.06,0,,,,,,0.144393785,-0.261514282,1,0,0,1.0596,Diorite_rect,10,0,10,0,1,
63bd81516745e78ee7f50f7f,TCN,2024-06-11_13h09.55.425,LearnStrategy,2023.2.3,MacIntel,59.17159763,1,2,12,,,,,,,,1,06,,,,,,,,,,,1,1.209,1,,,,,,-0.455830994,-0.264194472,1,0,0,1.2094,Andesite_rect,11,0,11,0,1,
63bd81516745e78ee7f50f7f,TCN,2024-06-11_13h09.55.425,LearnStrategy,2023.2.3,MacIntel,59.17159763,1,2,13,,,,,,,,5,14,,,,,,,,,,,2,1.276,0,,,,,,-0.179628771,-0.246219686,1,0,0,1.276,Basalt_rect,12,0,12,0,1,
63bd81516745e78ee7f50f7f,TCN,2024-06-11_13h09.55.425,LearnStrategy,2023.2.3,MacIntel,59.17159763,1,2,14,,,,,,,,7,12,,,,,,,,,,,5,1.242,0,,,,,,-0.364672038,-0.403123779,1,0,0,1.2422,Obsidian_rect,13,0,13,0,1,
63bd81516745e78ee7f50f7f,TCN,2024-06-11_13h09.55.425,LearnStrategy,2023.2.3,MacIntel,59.17159763,1,2,15,,,,,,,,4,15,,,,,,,,,,,6,1.743,0,,,,,,-0.169690484,-0.412890218,1,0,0,1.7433,Pegmatite_rect,14,0,14,0,1,
63bd81516745e78ee7f50f7f,TCN,2024-06-11_13h09.55.425,LearnStrategy,2023.2.3,MacIntel,59.17159763,1,2,16,,,,,,,,2,09,,,,,,,,,,,4,2.876,0,,,,,,0.3484729,-0.253359782,1,0,0,2.8758,Gabbro_rect,15,0,15,0,1,
63bd81516745e78ee7f50f7f,TCN,2024-06-11_13h09.55.425,LearnStrategy,2023.2.3,MacIntel,59.17159763,2,1,1,0.03650906,0.00751119,1,0,0,1.5983,rock_grid_rect_2,5,02,-1,-1,1.598,-0.136434801,-0.25586202,1,0,0,1.7925,Basalt_rect,2,1.793,0,0,0,0,0,1,,,,,,,,,,,,,
63bd81516745e78ee7f50f7f,TCN,2024-06-11_13h09.55.425,LearnStrategy,2023.2.3,MacIntel,59.17159763,2,1,2,-0.034841037,-0.006980387,1,0,0,1.2988,rock_grid_rect_2,4,09,-1,-1,1.299,-0.363974542,-0.231415473,1,0,0,1.0438,Andesite_rect,1,1.044,0,1,0,1,0,1,,,,,,,,,,,,,
63bd81516745e78ee7f50f7f,TCN,2024-06-11_13h09.55.425,LearnStrategy,2023.2.3,MacIntel,59.17159763,2,1,3,-0.006709527,-0.005370721,1,0,0,1.0658,rock_grid_rect_2,1,16,-1,-1,1.066,-0.422220764,-0.262899848,1,0,0,1.126,Andesite_rect,1,1.126,1,2,0,2,0,1,,,,,,,,,,,,,
63bd81516745e78ee7f50f7f,TCN,2024-06-11_13h09.55.425,LearnStrategy,2023.2.3,MacIntel,59.17159763,2,1,4,-0.05142334,-0.015983446,1,0,0,1.681,rock_grid_rect_2,5,09,-1,-1,1.681,-0.046147461,-0.237579142,1,0,0,1.4437,Basalt_rect,2,1.444,0,3,0,3,0,1,,,,,,,,,,,,,
63bd81516745e78ee7f50f7f,TCN,2024-06-11_13h09.55.425,LearnStrategy,2023.2.3,MacIntel,59.17159763,2,1,5,-0.060414361,-0.007653334,1,0,0,1.1641,rock_grid_rect_2,4,11,-1,-1,1.164,0.142244331,-0.258582086,1,0,0,1.0771,Diorite_rect,3,1.077,0,4,0,4,0,1,,,,,,,,,,,,,
63bd81516745e78ee7f50f7f,TCN,2024-06-11_13h09.55.425,LearnStrategy,2023.2.3,MacIntel,59.17159763,2,1,6,-0.055812649,-0.004948798,1,0,0,0.9661,rock_grid_rect_2,7,02,-1,-1,0.966,-0.078963013,-0.417734104,1,0,0,2.2103,Pegmatite_rect,6,2.21,0,5,0,5,0,1,,,,,,,,,,,,,
63bd81516745e78ee7f50f7f,TCN,2024-06-11_13h09.55.425,LearnStrategy,2023.2.3,MacIntel,59.17159763,2,1,7,-0.001343723,-0.011649339,1,0,0,0.9981,rock_grid_rect_2,1,01,-1,-1,0.998,-0.34764133,-0.4140016,1,0,0,1.1106,Obsidian_rect,5,1.111,0,6,0,6,0,1,,,,,,,,,,,,,
63bd81516745e78ee7f50f7f,TCN,2024-06-11_13h09.55.425,LearnStrategy,2023.2.3,MacIntel,59.17159763,2,1,8,0.000166558,-0.012564053,1,0,0,1.0143,rock_grid_rect_2,2,08,-1,-1,1.014,-0.311778598,-0.23858473,1,0,0,1.1771,Andesite_rect,1,1.177,0,7,0,7,0,1,,,,,,,,,,,,,
63bd81516745e78ee7f50f7f,TCN,2024-06-11_13h09.55.425,LearnStrategy,2023.2.3,MacIntel,59.17159763,2,1,9,-0.071373901,-0.009873793,1,0,0,1.0659,rock_grid_rect_2,8,05,-1,-1,1.066,0.397935791,-0.39890252,1,0,0,1.5422,Pumice_rect,8,1.542,1,8,0,8,0,1,,,,,,,,,,,,,
63bd81516745e78ee7f50f7f,TCN,2024-06-11_13h09.55.425,LearnStrategy,2023.2.3,MacIntel,59.17159763,2,1,10,0.007237278,-0.006822883,1,0,0,0.865,rock_grid_rect_2,6,03,-1,-1,0.865,-0.169792141,-0.399868707,1,0,0,2.193,Pegmatite_rect,6,2.193,1,9,0,9,0,1,,,,,,,,,,,,,
63bd81516745e78ee7f50f7f,TCN,2024-06-11_13h09.55.425,LearnStrategy,2023.2.3,MacIntel,59.17159763,2,1,11,-0.00859097,0.002633599,1,0,0,0.998,rock_grid_rect_2,8,03,-1,-1,0.998,0.341330702,-0.409867689,1,0,0,1.7412,Pumice_rect,8,1.741,1,10,0,10,0,1,,,,,,,,,,,,,
63bd81516745e78ee7f50f7f,TCN,2024-06-11_13h09.55.425,LearnStrategy,2023.2.3,MacIntel,59.17159763,2,1,12,-0.061346096,-0.013329434,1,0,0,1.0651,rock_grid_rect_2,3,08,-1,-1,1.065,0.11902025,-0.264578857,1,0,0,2.3594,Diorite_rect,3,2.359,1,11,0,11,0,1,,,,,,,,,,,,,
63bd81516745e78ee7f50f7f,TCN,2024-06-11_13h09.55.425,LearnStrategy,2023.2.3,MacIntel,59.17159763,2,1,13,-0.020484484,-0.022890388,1,0,0,0.8653,rock_grid_rect_2,6,15,-1,-1,0.865,0.438959961,-0.251939833,1,0,0,1.8591,Gabbro_rect,4,1.859,0,12,0,12,0,1,,,,,,,,,,,,,
63bd81516745e78ee7f50f7f,TCN,2024-06-11_13h09.55.425,LearnStrategy,2023.2.3,MacIntel,59.17159763,2,1,14,0.036345147,-0.012555508,1,0,0,0.8487,rock_grid_rect_2,3,11,-1,-1,0.849,-0.119318441,-0.416068726,1,0,0,0.9101,Pegmatite_rect,6,0.91,0,13,0,13,0,1,,,,,,,,,,,,,
63bd81516745e78ee7f50f7f,TCN,2024-06-11_13h09.55.425,LearnStrategy,2023.2.3,MacIntel,59.17159763,2,1,15,0.002984823,-0.01043396,1,0,0,0.915,rock_grid_rect_2,7,07,-1,-1,0.915,-0.329343601,-0.409443495,1,0,0,1.01,Obsidian_rect,5,1.01,0,14,0,14,0,1,,,,,,,,,,,,,
63bd81516745e78ee7f50f7f,TCN,2024-06-11_13h09.55.425,LearnStrategy,2023.2.3,MacIntel,59.17159763,2,1,16,0.047758314,-0.009146525,1,0,0,0.848,rock_grid_rect_2,2,10,-1,-1,0.848,-0.122112291,-0.258210653,1,0,0,1.0597,Basalt_rect,2,1.06,1,15,0,15,0,1,,,,,,,,,,,,,
63bd81516745e78ee7f50f7f,TCN,2024-06-11_13h09.55.425,LearnStrategy,2023.2.3,MacIntel,59.17159763,2,2,1,,,,,,,,7,15,,,,,,,,,,,6,3.66,0,,,,,,-0.09208096,-0.40954834,1,0,0,3.6599,Pegmatite_rect,0,0,0,0,1,
63bd81516745e78ee7f50f7f,TCN,2024-06-11_13h09.55.425,LearnStrategy,2023.2.3,MacIntel,59.17159763,2,2,2,,,,,,,,2,14,,,,,,,,,,,3,2.086,0,,,,,,0.069754639,-0.24167867,1,0,0,2.0856,Diorite_rect,1,0,1,0,1,
63bd81516745e78ee7f50f7f,TCN,2024-06-11_13h09.55.425,LearnStrategy,2023.2.3,MacIntel,59.17159763,2,2,3,,,,,,,,6,13,,,,,,,,,,,4,1.576,0,,,,,,0.339800212,-0.248286336,1,0,0,1.5764,Gabbro_rect,2,0,2,0,1,
63bd81516745e78ee7f50f7f,TCN,2024-06-11_13h09.55.425,LearnStrategy,2023.2.3,MacIntel,59.17159763,2,2,4,,,,,,,,6,05,,,,,,,,,,,1,1.06,0,,,,,,-0.348872884,-0.245575087,1,0,0,1.0604,Andesite_rect,3,0,3,0,1,
63bd81516745e78ee7f50f7f,TCN,2024-06-11_13h09.55.425,LearnStrategy,2023.2.3,MacIntel,59.17159763,2,2,5,,,,,,,,1,14,,,,,,,,,,,5,1.109,0,,,,,,-0.341041463,-0.394258016,1,0,0,1.1088,Obsidian_rect,4,0,4,0,1,
63bd81516745e78ee7f50f7f,TCN,2024-06-11_13h09.55.425,LearnStrategy,2023.2.3,MacIntel,59.17159763,2,2,6,,,,,,,,3,07,,,,,,,,,,,3,2.843,1,,,,,,0.173250936,-0.241768324,1,0,0,2.8429,Diorite_rect,5,0,5,0,1,
63bd81516745e78ee7f50f7f,TCN,2024-06-11_13h09.55.425,LearnStrategy,2023.2.3,MacIntel,59.17159763,2,2,7,,,,,,,,4,01,,,,,,,,,,,3,1.45,0,,,,,,0.098939006,-0.254151204,1,0,0,1.4499,Diorite_rect,6,0,6,0,1,
63bd81516745e78ee7f50f7f,TCN,2024-06-11_13h09.55.425,LearnStrategy,2023.2.3,MacIntel,59.17159763,2,2,8,,,,,,,,5,04,,,,,,,,,,,2,1.042,0,,,,,,-0.149036051,-0.242827352,1,0,0,1.0422,Basalt_rect,7,0,7,0,1,
63bd81516745e78ee7f50f7f,TCN,2024-06-11_13h09.55.425,LearnStrategy,2023.2.3,MacIntel,59.17159763,2,2,9,,,,,,,,3,13,,,,,,,,,,,7,1.876,0,,,,,,0.10711575,-0.414398872,1,0,0,1.8765,Peridotite_rect,8,0,8,0,1,
63bd81516745e78ee7f50f7f,TCN,2024-06-11_13h09.55.425,LearnStrategy,2023.2.3,MacIntel,59.17159763,2,2,10,,,,,,,,8,09,,,,,,,,,,,4,2.199,0,,,,,,0.37537462,-0.244852837,1,0,0,2.1991,Gabbro_rect,9,0,9,0,1,
63bd81516745e78ee7f50f7f,TCN,2024-06-11_13h09.55.425,LearnStrategy,2023.2.3,MacIntel,59.17159763,2,2,11,,,,,,,,1,02,,,,,,,,,,,1,1.96,1,,,,,,-0.340085992,-0.264879829,1,0,0,1.9597,Andesite_rect,10,0,10,0,1,
63bd81516745e78ee7f50f7f,TCN,2024-06-11_13h09.55.425,LearnStrategy,2023.2.3,MacIntel,59.17159763,2,2,12,,,,,,,,2,11,,,,,,,,,,,4,1.175,0,,,,,,0.342352024,-0.247258572,1,0,0,1.1746,Gabbro_rect,11,0,11,0,1,
63bd81516745e78ee7f50f7f,TCN,2024-06-11_13h09.55.425,LearnStrategy,2023.2.3,MacIntel,59.17159763,2,2,13,,,,,,,,4,08,,,,,,,,,,,5,2.673,0,,,,,,-0.352917006,-0.406456299,1,0,0,2.6732,Obsidian_rect,12,0,12,0,1,
63bd81516745e78ee7f50f7f,TCN,2024-06-11_13h09.55.425,LearnStrategy,2023.2.3,MacIntel,59.17159763,2,2,14,,,,,,,,7,06,,,,,,,,,,,7,1.982,1,,,,,,0.132761841,-0.412410956,1,0,0,1.9821,Peridotite_rect,13,0,13,0,1,
63bd81516745e78ee7f50f7f,TCN,2024-06-11_13h09.55.425,LearnStrategy,2023.2.3,MacIntel,59.17159763,2,2,15,,,,,,,,5,07,,,,,,,,,,,2,1.309,0,,,,,,-0.120027262,-0.264619954,1,0,0,1.3094,Basalt_rect,14,0,14,0,1,
63bd81516745e78ee7f50f7f,TCN,2024-06-11_13h09.55.425,LearnStrategy,2023.2.3,MacIntel,59.17159763,2,2,16,,,,,,,,8,02,,,,,,,,,,,6,1.01,0,,,,,,-0.064735379,-0.393316583,1,0,0,1.01,Pegmatite_rect,15,0,15,0,1,
63bd81516745e78ee7f50f7f,TCN,2024-06-11_13h09.55.425,LearnStrategy,2023.2.3,MacIntel,59.17159763,3,1,1,-0.049825507,0.010642836,1,0,0,0.8826,rock_grid_rect_2,8,04,-1,-1,0.883,0.408780246,-0.240681695,1,0,0,1.9092,Gabbro_rect,4,1.909,0,0,0,0,0,1,,,,,,,,,,,,,
63bd81516745e78ee7f50f7f,TCN,2024-06-11_13h09.55.425,LearnStrategy,2023.2.3,MacIntel,59.17159763,3,1,2,-0.018558214,-0.004776069,1,0,0,1.2317,rock_grid_rect_2,6,08,-1,-1,1.232,-0.085876058,-0.24953281,1,0,0,1.1771,Basalt_rect,2,1.177,0,1,0,1,0,1,,,,,,,,,,,,,
63bd81516745e78ee7f50f7f,TCN,2024-06-11_13h09.55.425,LearnStrategy,2023.2.3,MacIntel,59.17159763,3,1,3,-0.000705295,-0.024495138,1,0,0,0.8647,rock_grid_rect_2,2,16,-1,-1,0.865,-0.340363159,-0.239856093,1,0,0,1.4267,Andesite_rect,1,1.427,0,2,0,2,0,1,,,,,,,,,,,,,
63bd81516745e78ee7f50f7f,TCN,2024-06-11_13h09.55.425,LearnStrategy,2023.2.3,MacIntel,59.17159763,3,1,4,-0.003716973,-0.016002299,1,0,0,0.9475,rock_grid_rect_2,7,10,-1,-1,0.947,-0.098499485,-0.398632134,1,0,0,1.3434,Pegmatite_rect,6,1.343,0,3,0,3,0,1,,,,,,,,,,,,,
63bd81516745e78ee7f50f7f,TCN,2024-06-11_13h09.55.425,LearnStrategy,2023.2.3,MacIntel,59.17159763,3,1,5,-0.052219916,0.00135593,1,0,0,0.7986,rock_grid_rect_2,3,14,-1,-1,0.799,-0.344595371,-0.40564487,1,0,0,0.9934,Obsidian_rect,5,0.993,0,4,0,4,0,1,,,,,,,,,,,,,
63bd81516745e78ee7f50f7f,TCN,2024-06-11_13h09.55.425,LearnStrategy,2023.2.3,MacIntel,59.17159763,3,1,6,0.014463298,0.000990906,1,0,0,1.0158,rock_grid_rect_2,5,06,-1,-1,1.016,-0.086440837,-0.241836751,1,0,0,1.1091,Basalt_rect,2,1.109,0,5,0,5,0,1,,,,,,,,,,,,,
63bd81516745e78ee7f50f7f,TCN,2024-06-11_13h09.55.425,LearnStrategy,2023.2.3,MacIntel,59.17159763,3,1,7,0.137943251,-0.002006056,1,0,0,0.7815,rock_grid_rect_2,5,08,-1,-1,0.782,-0.120549045,-0.232315267,1,0,0,1.0931,Basalt_rect,2,1.093,0,6,0,6,0,1,,,,,,,,,,,,,
63bd81516745e78ee7f50f7f,TCN,2024-06-11_13h09.55.425,LearnStrategy,2023.2.3,MacIntel,59.17159763,3,1,8,5.62202E-05,0.009034729,1,0,0,0.9819,rock_grid_rect_2,2,12,-1,-1,0.982,0.395340712,-0.237709486,1,0,0,1.4941,Gabbro_rect,4,1.494,0,7,0,7,0,1,,,,,,,,,,,,,
63bd81516745e78ee7f50f7f,TCN,2024-06-11_13h09.55.425,LearnStrategy,2023.2.3,MacIntel,59.17159763,3,1,9,0.098961046,-0.009177077,1,0,0,0.8817,rock_grid_rect_2,1,03,-1,-1,0.882,-0.098114217,-0.251075846,1,0,0,2.043,Basalt_rect,2,2.043,0,8,0,8,0,1,,,,,,,,,,,,,
63bd81516745e78ee7f50f7f,TCN,2024-06-11_13h09.55.425,LearnStrategy,2023.2.3,MacIntel,59.17159763,3,1,10,0.01107232,-0.005187751,1,0,0,1.882,rock_grid_rect_2,7,16,-1,-1,1.882,-0.308726332,-0.263344591,1,0,0,2.1431,Andesite_rect,1,2.143,0,9,0,9,0,1,,,,,,,,,,,,,
63bd81516745e78ee7f50f7f,TCN,2024-06-11_13h09.55.425,LearnStrategy,2023.2.3,MacIntel,59.17159763,3,1,11,0.016156209,-1.17662E-05,1,0,0,1.0804,rock_grid_rect_2,3,10,-1,-1,1.08,0.378313666,-0.408603109,1,0,0,1.2458,Pumice_rect,8,1.246,0,10,0,10,0,1,,,,,,,,,,,,,
63bd81516745e78ee7f50f7f,TCN,2024-06-11_13h09.55.425,LearnStrategy,2023.2.3,MacIntel,59.17159763,3,1,12,0.1624155,-0.002245687,1,0,0,1.0485,rock_grid_rect_2,1,10,-1,-1,1.048,0.401152615,-0.263847928,1,0,0,1.177,Gabbro_rect,4,1.177,0,11,0,11,0,1,,,,,,,,,,,,,
63bd81516745e78ee7f50f7f,TCN,2024-06-11_13h09.55.425,LearnStrategy,2023.2.3,MacIntel,59.17159763,3,1,13,-0.072436795,-0.002131551,1,0,0,0.8483,rock_grid_rect_2,8,10,-1,-1,0.848,0.404868435,-0.237535536,1,0,0,1.8758,Gabbro_rect,4,1.876,0,12,0,12,0,1,,,,,,,,,,,,,
63bd81516745e78ee7f50f7f,TCN,2024-06-11_13h09.55.425,LearnStrategy,2023.2.3,MacIntel,59.17159763,3,1,14,0.080255398,-0.002527907,1,0,0,1.2322,rock_grid_rect_2,6,09,-1,-1,1.232,-0.093942735,-0.238971286,1,0,0,1.1102,Basalt_rect,2,1.11,0,13,0,13,0,1,,,,,,,,,,,,,
63bd81516745e78ee7f50f7f,TCN,2024-06-11_13h09.55.425,LearnStrategy,2023.2.3,MacIntel,59.17159763,3,1,15,0.05929579,-0.024339735,1,0,0,0.7152,rock_grid_rect_2,4,05,-1,-1,0.715,-0.084146525,-0.262752007,1,0,0,1.0761,Basalt_rect,2,1.076,0,14,0,14,0,1,,,,,,,,,,,,,
63bd81516745e78ee7f50f7f,TCN,2024-06-11_13h09.55.425,LearnStrategy,2023.2.3,MacIntel,59.17159763,3,1,16,0.028372735,0.023106079,1,0,0,0.7311,rock_grid_rect_2,4,10,-1,-1,0.731,-0.141506958,-0.26558492,1,0,0,1.011,Basalt_rect,2,1.011,0,15,0,15,0,1,,,,,,,,,,,,,
63bd81516745e78ee7f50f7f,TCN,2024-06-11_13h09.55.425,LearnStrategy,2023.2.3,MacIntel,59.17159763,3,2,1,,,,,,,,6,11,,,,,,,,,,,6,1.959,1,,,,,,-0.102079468,-0.396043091,1,0,0,1.9591,Pegmatite_rect,0,0,0,0,1,
63bd81516745e78ee7f50f7f,TCN,2024-06-11_13h09.55.425,LearnStrategy,2023.2.3,MacIntel,59.17159763,3,2,2,,,,,,,,4,03,,,,,,,,,,,7,3.759,0,,,,,,0.133323771,-0.417659844,1,0,0,3.7586,Peridotite_rect,1,0,1,0,1,
63bd81516745e78ee7f50f7f,TCN,2024-06-11_13h09.55.425,LearnStrategy,2023.2.3,MacIntel,59.17159763,3,2,3,,,,,,,,6,07,,,,,,,,,,,5,2.1,0,,,,,,-0.32799035,-0.392912462,1,0,0,2.0996,Obsidian_rect,2,0,2,0,1,
63bd81516745e78ee7f50f7f,TCN,2024-06-11_13h09.55.425,LearnStrategy,2023.2.3,MacIntel,59.17159763,3,2,4,,,,,,,,1,05,,,,,,,,,,,3,2.31,0,,,,,,0.111338976,-0.259449056,1,0,0,2.3105,Diorite_rect,3,0,3,0,1,
63bd81516745e78ee7f50f7f,TCN,2024-06-11_13h09.55.425,LearnStrategy,2023.2.3,MacIntel,59.17159763,3,2,5,,,,,,,,5,05,,,,,,,,,,,5,2.316,1,,,,,,-0.334681871,-0.396458469,1,0,0,2.3156,Obsidian_rect,4,0,4,0,1,
63bd81516745e78ee7f50f7f,TCN,2024-06-11_13h09.55.425,LearnStrategy,2023.2.3,MacIntel,59.17159763,3,2,6,,,,,,,,8,15,,,,,,,,,,,8,1.577,1,,,,,,0.377669135,-0.394206814,1,0,0,1.5766,Pumice_rect,5,0,5,0,1,
63bd81516745e78ee7f50f7f,TCN,2024-06-11_13h09.55.425,LearnStrategy,2023.2.3,MacIntel,59.17159763,3,2,7,,,,,,,,4,16,,,,,,,,,,,1,3.143,0,,,,,,-0.368910217,-0.243286743,1,0,0,3.1433,Andesite_rect,6,0,6,0,1,
63bd81516745e78ee7f50f7f,TCN,2024-06-11_13h09.55.425,LearnStrategy,2023.2.3,MacIntel,59.17159763,3,2,8,,,,,,,,3,16,,,,,,,,,,,2,1.466,0,,,,,,-0.092789578,-0.261153564,1,0,0,1.4664,Basalt_rect,7,0,7,0,1,
63bd81516745e78ee7f50f7f,TCN,2024-06-11_13h09.55.425,LearnStrategy,2023.2.3,MacIntel,59.17159763,3,2,9,,,,,,,,5,16,,,,,,,,,,,2,1.294,0,,,,,,-0.131384549,-0.250670098,1,0,0,1.2936,Basalt_rect,8,0,8,0,1,
63bd81516745e78ee7f50f7f,TCN,2024-06-11_13h09.55.425,LearnStrategy,2023.2.3,MacIntel,59.17159763,3,2,10,,,,,,,,8,06,,,,,,,,,,,8,2.543,1,,,,,,0.309381375,-0.416270549,1,0,0,2.5429,Pumice_rect,9,0,9,0,1,
63bd81516745e78ee7f50f7f,TCN,2024-06-11_13h09.55.425,LearnStrategy,2023.2.3,MacIntel,59.17159763,3,2,11,,,,,,,,7,04,,,,,,,,,,,6,1.559,0,,,,,,-0.193500909,-0.393081394,1,0,0,1.559,Pegmatite_rect,10,0,10,0,1,
63bd81516745e78ee7f50f7f,TCN,2024-06-11_13h09.55.425,LearnStrategy,2023.2.3,MacIntel,59.17159763,3,2,12,,,,,,,,1,07,,,,,,,,,,,3,2.716,0,,,,,,0.176473524,-0.253698866,1,0,0,2.7164,Diorite_rect,11,0,11,0,1,
63bd81516745e78ee7f50f7f,TCN,2024-06-11_13h09.55.425,LearnStrategy,2023.2.3,MacIntel,59.17159763,3,2,13,,,,,,,,2,05,,,,,,,,,,,7,2.977,0,,,,,,0.028173421,-0.411538018,1,0,0,2.9767,Peridotite_rect,12,0,12,0,1,
63bd81516745e78ee7f50f7f,TCN,2024-06-11_13h09.55.425,LearnStrategy,2023.2.3,MacIntel,59.17159763,3,2,14,,,,,,,,3,06,,,,,,,,,,,1,2.615,0,,,,,,-0.359355367,-0.246040175,1,0,0,2.6154,Andesite_rect,13,0,13,0,1,
63bd81516745e78ee7f50f7f,TCN,2024-06-11_13h09.55.425,LearnStrategy,2023.2.3,MacIntel,59.17159763,3,2,15,,,,,,,,7,08,,,,,,,,,,,6,3.56,0,,,,,,-0.128408881,-0.408275825,1,0,0,3.5597,Pegmatite_rect,14,0,14,0,1,
63bd81516745e78ee7f50f7f,TCN,2024-06-11_13h09.55.425,LearnStrategy,2023.2.3,MacIntel,59.17159763,3,2,16,,,,,,,,2,02,,,,,,,,,,,4,2.233,0,,,,,,0.497606472,-0.242348022,1,0,0,2.2329,Gabbro_rect,15,0,15,0,1,
63bd81516745e78ee7f50f7f,TCN,2024-06-11_13h09.55.425,LearnStrategy,2023.2.3,MacIntel,59.17159763,4,1,1,0.058364122,-0.00665802,1,0,0,1.0991,rock_grid_rect_2,6,08,-1,-1,1.099,-0.326036377,-0.398129205,1,0,0,1.3268,Obsidian_rect,5,1.327,0,0,0,0,0,1,,,,,,,,,,,,,
63bd81516745e78ee7f50f7f,TCN,2024-06-11_13h09.55.425,LearnStrategy,2023.2.3,MacIntel,59.17159763,4,1,2,-0.043932156,-0.008584798,1,0,0,1.3984,rock_grid_rect_2,7,16,-1,-1,1.398,-0.105120985,-0.251866387,1,0,0,1.043,Basalt_rect,2,1.043,0,1,0,1,0,1,,,,,,,,,,,,,
63bd81516745e78ee7f50f7f,TCN,2024-06-11_13h09.55.425,LearnStrategy,2023.2.3,MacIntel,59.17159763,4,1,3,-0.008910319,-0.019064094,1,0,0,1.0483,rock_grid_rect_2,4,09,-1,-1,1.048,0.404590386,-0.242900662,1,0,0,2.7439,Gabbro_rect,4,2.744,1,2,0,2,0,1,,,,,,,,,,,,,
63bd81516745e78ee7f50f7f,TCN,2024-06-11_13h09.55.425,LearnStrategy,2023.2.3,MacIntel,59.17159763,4,1,4,0.188524712,-0.003499213,1,0,0,1.0809,rock_grid_rect_2,8,10,-1,-1,1.081,0.406070014,-0.405809801,1,0,0,0.9598,Pumice_rect,8,0.96,1,3,0,3,0,1,,,,,,,,,,,,,
63bd81516745e78ee7f50f7f,TCN,2024-06-11_13h09.55.425,LearnStrategy,2023.2.3,MacIntel,59.17159763,4,1,5,0.153064236,-0.018178847,1,0,0,0.9818,rock_grid_rect_2,2,10,-1,-1,0.982,-0.071128065,-0.252814467,1,0,0,1.2429,Basalt_rect,2,1.243,1,4,0,4,0,1,,,,,,,,,,,,,
63bd81516745e78ee7f50f7f,TCN,2024-06-11_13h09.55.425,LearnStrategy,2023.2.3,MacIntel,59.17159763,4,1,6,0.023415799,-0.02356469,1,0,0,0.8644,rock_grid_rect_2,1,16,-1,-1,0.864,-0.337304518,-0.243193427,1,0,0,1.2108,Andesite_rect,1,1.211,1,5,0,5,0,1,,,,,,,,,,,,,
63bd81516745e78ee7f50f7f,TCN,2024-06-11_13h09.55.425,LearnStrategy,2023.2.3,MacIntel,59.17159763,4,1,7,0.055554606,-0.006497396,1,0,0,1.0644,rock_grid_rect_2,5,08,-1,-1,1.064,-0.344351773,-0.384437527,1,0,0,1.5268,Obsidian_rect,5,1.527,1,6,0,6,0,1,,,,,,,,,,,,,
63bd81516745e78ee7f50f7f,TCN,2024-06-11_13h09.55.425,LearnStrategy,2023.2.3,MacIntel,59.17159763,4,1,8,0.00373013,-0.009088982,1,0,0,0.9139,rock_grid_rect_2,4,12,-1,-1,0.914,0.131100939,-0.264938829,1,0,0,1.6109,Diorite_rect,3,1.611,0,7,0,7,0,1,,,,,,,,,,,,,
63bd81516745e78ee7f50f7f,TCN,2024-06-11_13h09.55.425,LearnStrategy,2023.2.3,MacIntel,59.17159763,4,1,9,0.033555433,-0.01435418,1,0,0,0.8157,rock_grid_rect_2,3,08,-1,-1,0.816,0.103120931,-0.256248169,1,0,0,1.2933,Diorite_rect,3,1.293,1,8,0,8,0,1,,,,,,,,,,,,,
63bd81516745e78ee7f50f7f,TCN,2024-06-11_13h09.55.425,LearnStrategy,2023.2.3,MacIntel,59.17159763,4,1,10,-0.004170803,0.000662198,1,0,0,0.8649,rock_grid_rect_2,1,03,-1,-1,0.865,0.146440972,-0.403924357,1,0,0,3.0768,Peridotite_rect,7,3.077,0,9,0,9,0,1,,,,,,,,,,,,,
63bd81516745e78ee7f50f7f,TCN,2024-06-11_13h09.55.425,LearnStrategy,2023.2.3,MacIntel,59.17159763,4,1,11,-0.030625271,0.01267239,1,0,0,1.1481,rock_grid_rect_2,3,15,-1,-1,1.148,-0.136148207,-0.397886353,1,0,0,2.7265,Pegmatite_rect,6,2.726,0,10,0,10,0,1,,,,,,,,,,,,,
63bd81516745e78ee7f50f7f,TCN,2024-06-11_13h09.55.425,LearnStrategy,2023.2.3,MacIntel,59.17159763,4,1,12,-0.150721571,-0.016373935,1,0,0,0.8152,rock_grid_rect_2,7,14,-1,-1,0.815,-0.349550137,-0.385134142,1,0,0,1.8425,Obsidian_rect,5,1.842,0,11,0,11,0,1,,,,,,,,,,,,,
63bd81516745e78ee7f50f7f,TCN,2024-06-11_13h09.55.425,LearnStrategy,2023.2.3,MacIntel,59.17159763,4,1,13,0.022639771,-0.00680976,1,0,0,0.7149,rock_grid_rect_2,6,15,-1,-1,0.715,-0.138910183,-0.265358141,1,0,0,0.8594,Basalt_rect,2,0.859,0,12,0,12,0,1,,,,,,,,,,,,,
63bd81516745e78ee7f50f7f,TCN,2024-06-11_13h09.55.425,LearnStrategy,2023.2.3,MacIntel,59.17159763,4,1,14,-0.114471232,0.001115044,1,0,0,1.1488,rock_grid_rect_2,2,12,-1,-1,1.149,-0.348113742,-0.258272027,1,0,0,1.6102,Andesite_rect,1,1.61,0,13,0,13,0,1,,,,,,,,,,,,,
63bd81516745e78ee7f50f7f,TCN,2024-06-11_13h09.55.425,LearnStrategy,2023.2.3,MacIntel,59.17159763,4,1,15,0.082708062,-0.003280775,1,0,0,0.9312,rock_grid_rect_2,8,14,-1,-1,0.931,-0.030419515,-0.269696452,1,0,0,0.6765,Basalt_rect,2,0.676,0,14,0,14,0,1,,,,,,,,,,,,,
63bd81516745e78ee7f50f7f,TCN,2024-06-11_13h09.55.425,LearnStrategy,2023.2.3,MacIntel,59.17159763,4,1,16,0.052969496,-0.005658637,1,0,0,1.181,rock_grid_rect_2,5,10,-1,-1,1.181,-0.320419786,-0.412640516,1,0,0,1.6265,Obsidian_rect,5,1.626,1,15,0,15,0,1,,,,,,,,,,,,,
63bd81516745e78ee7f50f7f,TCN,2024-06-11_13h09.55.425,LearnStrategy,2023.2.3,MacIntel,59.17159763,4,2,1,,,,,,,,7,04,,,,,,,,,,,3,2.926,0,,,,,,0.17339898,-0.260369534,1,0,0,2.9259,Diorite_rect,0,0,0,0,1,
63bd81516745e78ee7f50f7f,TCN,2024-06-11_13h09.55.425,LearnStrategy,2023.2.3,MacIntel,59.17159763,4,2,2,,,,,,,,2,02,,,,,,,,,,,1,2.748,0,,,,,,-0.353724704,-0.24726983,1,0,0,2.7485,Andesite_rect,1,0,1,0,1,
63bd81516745e78ee7f50f7f,TCN,2024-06-11_13h09.55.425,LearnStrategy,2023.2.3,MacIntel,59.17159763,4,2,3,,,,,,,,8,09,,,,,,,,,,,8,1.366,1,,,,,,0.477451986,-0.414702216,1,0,0,1.3663,Pumice_rect,2,0,2,0,1,
63bd81516745e78ee7f50f7f,TCN,2024-06-11_13h09.55.425,LearnStrategy,2023.2.3,MacIntel,59.17159763,4,2,4,,,,,,,,4,03,,,,,,,,,,,3,2.11,0,,,,,,0.156563992,-0.24395874,1,0,0,2.1096,Diorite_rect,3,0,3,0,1,
63bd81516745e78ee7f50f7f,TCN,2024-06-11_13h09.55.425,LearnStrategy,2023.2.3,MacIntel,59.17159763,4,2,5,,,,,,,,6,05,,,,,,,,,,,5,1.51,0,,,,,,-0.387656453,-0.382546861,1,0,0,1.5095,Obsidian_rect,4,0,4,0,1,
63bd81516745e78ee7f50f7f,TCN,2024-06-11_13h09.55.425,LearnStrategy,2023.2.3,MacIntel,59.17159763,4,2,6,,,,,,,,8,02,,,,,,,,,,,8,2.992,1,,,,,,0.372207303,-0.393049384,1,0,0,2.9924,Pumice_rect,5,0,5,0,1,
63bd81516745e78ee7f50f7f,TCN,2024-06-11_13h09.55.425,LearnStrategy,2023.2.3,MacIntel,59.17159763,4,2,7,,,,,,,,2,04,,,,,,,,,,,4,2.533,0,,,,,,0.411629774,-0.256019965,1,0,0,2.5328,Gabbro_rect,6,0,6,0,1,
63bd81516745e78ee7f50f7f,TCN,2024-06-11_13h09.55.425,LearnStrategy,2023.2.3,MacIntel,59.17159763,4,2,8,,,,,,,,3,06,,,,,,,,,,,2,2.011,0,,,,,,-0.090159166,-0.258329468,1,0,0,2.0113,Basalt_rect,7,0,7,0,1,
63bd81516745e78ee7f50f7f,TCN,2024-06-11_13h09.55.425,LearnStrategy,2023.2.3,MacIntel,59.17159763,4,2,9,,,,,,,,5,05,,,,,,,,,,,5,1.584,1,,,,,,-0.344899699,-0.388462524,1,0,0,1.5841,Obsidian_rect,8,0,8,0,1,
63bd81516745e78ee7f50f7f,TCN,2024-06-11_13h09.55.425,LearnStrategy,2023.2.3,MacIntel,59.17159763,4,2,10,,,,,,,,7,15,,,,,,,,,,,6,1.51,0,,,,,,-0.077726576,-0.39459337,1,0,0,1.5096,Pegmatite_rect,9,0,9,0,1,
63bd81516745e78ee7f50f7f,TCN,2024-06-11_13h09.55.425,LearnStrategy,2023.2.3,MacIntel,59.17159763,4,2,11,,,,,,,,1,02,,,,,,,,,,,7,2.009,0,,,,,,0.116816745,-0.407550184,1,0,0,2.0092,Peridotite_rect,10,0,10,0,1,
63bd81516745e78ee7f50f7f,TCN,2024-06-11_13h09.55.425,LearnStrategy,2023.2.3,MacIntel,59.17159763,4,2,12,,,,,,,,4,13,,,,,,,,,,,3,1.659,0,,,,,,0.173927205,-0.2673801,1,0,0,1.6588,Diorite_rect,11,0,11,0,1,
63bd81516745e78ee7f50f7f,TCN,2024-06-11_13h09.55.425,LearnStrategy,2023.2.3,MacIntel,59.17159763,4,2,13,,,,,,,,3,12,,,,,,,,,,,7,3.11,0,,,,,,0.100895996,-0.41877733,1,0,0,3.11,Peridotite_rect,12,0,12,0,1,
63bd81516745e78ee7f50f7f,TCN,2024-06-11_13h09.55.425,LearnStrategy,2023.2.3,MacIntel,59.17159763,4,2,14,,,,,,,,5,04,,,,,,,,,,,5,1.449,1,,,,,,-0.417544013,-0.386128269,1,0,0,1.4486,Obsidian_rect,13,0,13,0,1,
63bd81516745e78ee7f50f7f,TCN,2024-06-11_13h09.55.425,LearnStrategy,2023.2.3,MacIntel,59.17159763,4,2,15,,,,,,,,6,07,,,,,,,,,,,6,1.226,1,,,,,,-0.134461263,-0.3901749,1,0,0,1.2259,Pegmatite_rect,14,0,14,0,1,
63bd81516745e78ee7f50f7f,TCN,2024-06-11_13h09.55.425,LearnStrategy,2023.2.3,MacIntel,59.17159763,4,2,16,,,,,,,,1,05,,,,,,,,,,,2,2.043,0,,,,,,-0.114195624,-0.260888129,1,0,0,2.0426,Basalt_rect,15,0,15,0,1,
63bd81516745e78ee7f50f7f,TCN,2024-06-11_13h09.55.425,LearnStrategy,2023.2.3,MacIntel,59.17159763,5,1,1,-0.018242052,-0.008591987,1,0,0,1.0993,rock_grid_rect_2,1,04,-1,-1,1.099,0.113069797,-0.270809937,1,0,0,1.826,Diorite_rect,3,1.826,0,0,0,0,0,1,,,,,,,,,,,,,
63bd81516745e78ee7f50f7f,TCN,2024-06-11_13h09.55.425,LearnStrategy,2023.2.3,MacIntel,59.17159763,5,1,2,0.00133823,-0.008101264,1,0,0,1.2659,rock_grid_rect_2,6,12,-1,-1,1.266,-0.143750339,-0.258602498,1,0,0,2.0087,Basalt_rect,2,2.009,0,1,0,1,0,1,,,,,,,,,,,,,
63bd81516745e78ee7f50f7f,TCN,2024-06-11_13h09.55.425,LearnStrategy,2023.2.3,MacIntel,59.17159763,5,1,3,0.029441732,-0.020302429,1,0,0,1.1651,rock_grid_rect_2,4,11,-1,-1,1.165,0.410527751,-0.250662503,1,0,0,1.7107,Gabbro_rect,4,1.711,1,2,0,2,0,1,,,,,,,,,,,,,
63bd81516745e78ee7f50f7f,TCN,2024-06-11_13h09.55.425,LearnStrategy,2023.2.3,MacIntel,59.17159763,5,1,4,0.178964572,-0.001502414,1,0,0,1.115,rock_grid_rect_2,3,14,-1,-1,1.115,-0.132413737,-0.400246989,1,0,0,1.9764,Pegmatite_rect,6,1.976,0,3,0,3,0,1,,,,,,,,,,,,,
63bd81516745e78ee7f50f7f,TCN,2024-06-11_13h09.55.425,LearnStrategy,2023.2.3,MacIntel,59.17159763,5,1,5,0.052300958,-0.00614563,1,0,0,1.0492,rock_grid_rect_2,1,10,-1,-1,1.049,-0.349291653,-0.266888631,1,0,0,1.5934,Andesite_rect,1,1.593,1,4,0,4,0,1,,,,,,,,,,,,,
63bd81516745e78ee7f50f7f,TCN,2024-06-11_13h09.55.425,LearnStrategy,2023.2.3,MacIntel,59.17159763,5,1,6,0.048044976,-0.011817627,1,0,0,1.5149,rock_grid_rect_2,5,06,-1,-1,1.515,-0.32551161,-0.384751723,1,0,0,1.3598,Obsidian_rect,5,1.36,1,5,0,5,0,1,,,,,,,,,,,,,
63bd81516745e78ee7f50f7f,TCN,2024-06-11_13h09.55.425,LearnStrategy,2023.2.3,MacIntel,59.17159763,5,1,7,0.034039035,-0.020159064,1,0,0,0.9816,rock_grid_rect_2,7,02,-1,-1,0.982,-0.091566705,-0.383414578,1,0,0,1.2763,Pegmatite_rect,6,1.276,0,6,0,6,0,1,,,,,,,,,,,,,
63bd81516745e78ee7f50f7f,TCN,2024-06-11_13h09.55.425,LearnStrategy,2023.2.3,MacIntel,59.17159763,5,1,8,0.034942898,0.006131185,1,0,0,0.7311,rock_grid_rect_2,4,14,-1,-1,0.731,-0.092061564,-0.251990763,1,0,0,1.1434,Basalt_rect,2,1.143,0,7,0,7,0,1,,,,,,,,,,,,,
63bd81516745e78ee7f50f7f,TCN,2024-06-11_13h09.55.425,LearnStrategy,2023.2.3,MacIntel,59.17159763,5,1,9,-0.00031033,0.011047262,1,0,0,0.6648,rock_grid_rect_2,8,13,-1,-1,0.665,0.373171387,-0.401551514,1,0,0,1.143,Pumice_rect,8,1.143,1,8,0,8,0,1,,,,,,,,,,,,,
63bd81516745e78ee7f50f7f,TCN,2024-06-11_13h09.55.425,LearnStrategy,2023.2.3,MacIntel,59.17159763,5,1,10,0.001965603,-0.012437676,1,0,0,0.765,rock_grid_rect_2,6,06,-1,-1,0.765,0.101609226,-0.412594401,1,0,0,2.1256,Peridotite_rect,7,2.126,0,9,0,9,0,1,,,,,,,,,,,,,
63bd81516745e78ee7f50f7f,TCN,2024-06-11_13h09.55.425,LearnStrategy,2023.2.3,MacIntel,59.17159763,5,1,11,-0.061370443,-0.014663595,1,0,0,0.8488,rock_grid_rect_2,5,09,-1,-1,0.849,-0.370205587,-0.405326742,1,0,0,1.7915,Obsidian_rect,5,1.791,1,10,0,10,0,1,,,,,,,,,,,,,
63bd81516745e78ee7f50f7f,TCN,2024-06-11_13h09.55.425,LearnStrategy,2023.2.3,MacIntel,59.17159763,5,1,12,-0.051995714,-0.010120036,1,0,0,1.448,rock_grid_rect_2,2,06,-1,-1,1.448,0.340779351,-0.241302355,1,0,0,1.7563,Gabbro_rect,4,1.756,0,11,0,11,0,1,,,,,,,,,,,,,
63bd81516745e78ee7f50f7f,TCN,2024-06-11_13h09.55.425,LearnStrategy,2023.2.3,MacIntel,59.17159763,5,1,13,-0.023226318,-0.007507765,1,0,0,1.2981,rock_grid_rect_2,2,08,-1,-1,1.298,-0.076255018,-0.271471354,1,0,0,1.0889,Basalt_rect,2,1.089,1,12,0,12,0,1,,,,,,,,,,,,,
63bd81516745e78ee7f50f7f,TCN,2024-06-11_13h09.55.425,LearnStrategy,2023.2.3,MacIntel,59.17159763,5,1,14,-0.022202284,-0.020138482,1,0,0,1.0144,rock_grid_rect_2,3,09,-1,-1,1.014,-0.112459513,-0.408472493,1,0,0,3.294,Pegmatite_rect,6,3.294,0,13,0,13,0,1,,,,,,,,,,,,,
63bd81516745e78ee7f50f7f,TCN,2024-06-11_13h09.55.425,LearnStrategy,2023.2.3,MacIntel,59.17159763,5,1,15,0.086023153,-0.005961677,1,0,0,0.8816,rock_grid_rect_2,8,04,-1,-1,0.882,0.375582275,-0.394329156,1,0,0,1.2112,Pumice_rect,8,1.211,1,14,0,14,0,1,,,,,,,,,,,,,
63bd81516745e78ee7f50f7f,TCN,2024-06-11_13h09.55.425,LearnStrategy,2023.2.3,MacIntel,59.17159763,5,1,16,0.11942315,-0.00021993,1,0,0,0.8813,rock_grid_rect_2,7,10,-1,-1,0.881,0.058909098,-0.409838053,1,0,0,2.1092,Peridotite_rect,7,2.109,1,15,0,15,0,1,,,,,,,,,,,,,
63bd81516745e78ee7f50f7f,TCN,2024-06-11_13h09.55.425,LearnStrategy,2023.2.3,MacIntel,59.17159763,5,2,1,,,,,,,,3,16,,,,,,,,,,,7,3.109,0,,,,,,0.129382053,-0.393638102,1,0,0,3.1087,Peridotite_rect,0,0,0,0,1,
63bd81516745e78ee7f50f7f,TCN,2024-06-11_13h09.55.425,LearnStrategy,2023.2.3,MacIntel,59.17159763,5,2,2,,,,,,,,8,06,,,,,,,,,,,8,1.221,1,,,,,,0.398891602,-0.400244276,1,0,0,1.2207,Pumice_rect,1,0,1,0,1,
63bd81516745e78ee7f50f7f,TCN,2024-06-11_13h09.55.425,LearnStrategy,2023.2.3,MacIntel,59.17159763,5,2,3,,,,,,,,5,07,,,,,,,,,,,5,1.261,1,,,,,,-0.344412706,-0.385635105,1,0,0,1.2613,Obsidian_rect,2,0,2,0,1,
63bd81516745e78ee7f50f7f,TCN,2024-06-11_13h09.55.425,LearnStrategy,2023.2.3,MacIntel,59.17159763,5,2,4,,,,,,,,2,09,,,,,,,,,,,4,2.676,0,,,,,,0.349774984,-0.260792508,1,0,0,2.6762,Gabbro_rect,3,0,3,0,1,
63bd81516745e78ee7f50f7f,TCN,2024-06-11_13h09.55.425,LearnStrategy,2023.2.3,MacIntel,59.17159763,5,2,5,,,,,,,,8,15,,,,,,,,,,,8,1.133,1,,,,,,0.379202338,-0.420104506,1,0,0,1.1331,Pumice_rect,4,0,4,0,1,
63bd81516745e78ee7f50f7f,TCN,2024-06-11_13h09.55.425,LearnStrategy,2023.2.3,MacIntel,59.17159763,5,2,6,,,,,,,,1,06,,,,,,,,,,,2,1.427,0,,,,,,-0.090240343,-0.255311076,1,0,0,1.4271,Basalt_rect,5,0,5,0,1,
63bd81516745e78ee7f50f7f,TCN,2024-06-11_13h09.55.425,LearnStrategy,2023.2.3,MacIntel,59.17159763,5,2,7,,,,,,,,7,12,,,,,,,,,,,7,2.426,1,,,,,,0.095617133,-0.41253479,1,0,0,2.4263,Peridotite_rect,6,0,6,0,1,
63bd81516745e78ee7f50f7f,TCN,2024-06-11_13h09.55.425,LearnStrategy,2023.2.3,MacIntel,59.17159763,5,2,8,,,,,,,,1,11,,,,,,,,,,,3,1.526,0,,,,,,0.134559869,-0.262585924,1,0,0,1.5265,Diorite_rect,7,0,7,0,1,
63bd81516745e78ee7f50f7f,TCN,2024-06-11_13h09.55.425,LearnStrategy,2023.2.3,MacIntel,59.17159763,5,2,9,,,,,,,,6,10,,,,,,,,,,,6,2.043,1,,,,,,-0.038394233,-0.390867784,1,0,0,2.0432,Pegmatite_rect,8,0,8,0,1,
63bd81516745e78ee7f50f7f,TCN,2024-06-11_13h09.55.425,LearnStrategy,2023.2.3,MacIntel,59.17159763,5,2,10,,,,,,,,7,06,,,,,,,,,,,6,0.91,0,,,,,,-0.131247355,-0.387055868,1,0,0,0.9103,Pegmatite_rect,9,0,9,0,1,
63bd81516745e78ee7f50f7f,TCN,2024-06-11_13h09.55.425,LearnStrategy,2023.2.3,MacIntel,59.17159763,5,2,11,,,,,,,,4,01,,,,,,,,,,,4,2.293,1,,,,,,0.444873047,-0.259638808,1,0,0,2.2927,Gabbro_rect,10,0,10,0,1,
63bd81516745e78ee7f50f7f,TCN,2024-06-11_13h09.55.425,LearnStrategy,2023.2.3,MacIntel,59.17159763,5,2,12,,,,,,,,3,02,,,,,,,,,,,2,1.634,0,,,,,,-0.193074612,-0.266973131,1,0,0,1.6335,Basalt_rect,11,0,11,0,1,
63bd81516745e78ee7f50f7f,TCN,2024-06-11_13h09.55.425,LearnStrategy,2023.2.3,MacIntel,59.17159763,5,2,13,,,,,,,,2,11,,,,,,,,,,,4,1.393,0,,,,,,0.434383409,-0.243422309,1,0,0,1.3934,Gabbro_rect,12,0,12,0,1,
63bd81516745e78ee7f50f7f,TCN,2024-06-11_13h09.55.425,LearnStrategy,2023.2.3,MacIntel,59.17159763,5,2,14,,,,,,,,5,14,,,,,,,,,,,5,1.876,1,,,,,,-0.357763672,-0.392901679,1,0,0,1.8762,Obsidian_rect,13,0,13,0,1,
63bd81516745e78ee7f50f7f,TCN,2024-06-11_13h09.55.425,LearnStrategy,2023.2.3,MacIntel,59.17159763,5,2,15,,,,,,,,6,11,,,,,,,,,,,7,2.377,0,,,,,,0.057533637,-0.397202148,1,0,0,2.3765,Peridotite_rect,14,0,14,0,1,
63bd81516745e78ee7f50f7f,TCN,2024-06-11_13h09.55.425,LearnStrategy,2023.2.3,MacIntel,59.17159763,5,2,16,,,,,,,,4,15,,,,,,,,,,,7,1.326,0,,,,,,0.119217122,-0.417350125,1,0,0,1.3264,Peridotite_rect,15,0,15,0,1,
63bd81516745e78ee7f50f7f,TCN,2024-06-11_13h09.55.425,LearnStrategy,2023.2.3,MacIntel,59.17159763,6,1,1,-0.150043267,-0.005686137,1,0,0,0.9659,rock_grid_rect_2,7,07,-1,-1,0.966,0.122437134,-0.270738593,1,0,0,1.7268,Diorite_rect,3,1.727,0,0,0,0,0,1,,,,,,,,,,,,,
63bd81516745e78ee7f50f7f,TCN,2024-06-11_13h09.55.425,LearnStrategy,2023.2.3,MacIntel,59.17159763,6,1,2,-0.088331502,-0.023786282,1,0,0,1.0651,rock_grid_rect_2,4,05,-1,-1,1.065,0.142896118,-0.265269436,1,0,0,2.1592,Diorite_rect,3,2.159,0,1,0,1,0,1,,,,,,,,,,,,,
63bd81516745e78ee7f50f7f,TCN,2024-06-11_13h09.55.425,LearnStrategy,2023.2.3,MacIntel,59.17159763,6,1,3,-0.07531033,-0.013417697,1,0,0,0.9649,rock_grid_rect_2,2,16,-1,-1,0.965,0.418096924,-0.238852268,1,0,0,1.6271,Gabbro_rect,4,1.627,0,2,0,2,0,1,,,,,,,,,,,,,
63bd81516745e78ee7f50f7f,TCN,2024-06-11_13h09.55.425,LearnStrategy,2023.2.3,MacIntel,59.17159763,6,1,4,-0.048185832,-0.010686612,1,0,0,1.0653,rock_grid_rect_2,1,01,-1,-1,1.065,0.1228793,-0.257892117,1,0,0,1.728,Diorite_rect,3,1.728,0,3,0,3,0,1,,,,,,,,,,,,,
63bd81516745e78ee7f50f7f,TCN,2024-06-11_13h09.55.425,LearnStrategy,2023.2.3,MacIntel,59.17159763,6,1,5,-0.068528849,-0.017940131,1,0,0,0.9161,rock_grid_rect_2,2,01,-1,-1,0.916,0.431103787,-0.255125665,1,0,0,1.6758,Gabbro_rect,4,1.676,0,4,0,4,0,1,,,,,,,,,,,,,
63bd81516745e78ee7f50f7f,TCN,2024-06-11_13h09.55.425,LearnStrategy,2023.2.3,MacIntel,59.17159763,6,1,6,0.069927911,-0.009988302,1,0,0,1.3149,rock_grid_rect_2,7,13,-1,-1,1.315,-0.068290202,-0.394716119,1,0,0,1.4112,Pegmatite_rect,6,1.411,0,5,0,5,0,1,,,,,,,,,,,,,
63bd81516745e78ee7f50f7f,TCN,2024-06-11_13h09.55.425,LearnStrategy,2023.2.3,MacIntel,59.17159763,6,1,7,-0.094441867,-0.008340624,1,0,0,0.8144,rock_grid_rect_2,5,02,-1,-1,0.814,-0.308250393,-0.408155111,1,0,0,1.1932,Obsidian_rect,5,1.193,1,6,0,6,0,1,,,,,,,,,,,,,
63bd81516745e78ee7f50f7f,TCN,2024-06-11_13h09.55.425,LearnStrategy,2023.2.3,MacIntel,59.17159763,6,1,8,0.100392117,-0.012255385,1,0,0,0.998,rock_grid_rect_2,6,09,-1,-1,0.998,-0.332011007,-0.23653361,1,0,0,2.1796,Andesite_rect,1,2.18,0,7,0,7,0,1,,,,,,,,,,,,,
63bd81516745e78ee7f50f7f,TCN,2024-06-11_13h09.55.425,LearnStrategy,2023.2.3,MacIntel,59.17159763,6,1,9,-0.044580824,-0.017341139,1,0,0,0.9822,rock_grid_rect_2,8,05,-1,-1,0.982,0.457657471,-0.417664998,1,0,0,1.1758,Pumice_rect,8,1.176,1,8,0,8,0,1,,,,,,,,,,,,,
63bd81516745e78ee7f50f7f,TCN,2024-06-11_13h09.55.425,LearnStrategy,2023.2.3,MacIntel,59.17159763,6,1,10,-0.02652242,-0.018979628,1,0,0,0.8657,rock_grid_rect_2,3,10,-1,-1,0.866,-0.082025689,-0.256840007,1,0,0,1.1768,Basalt_rect,2,1.177,0,9,0,9,0,1,,,,,,,,,,,,,
63bd81516745e78ee7f50f7f,TCN,2024-06-11_13h09.55.425,LearnStrategy,2023.2.3,MacIntel,59.17159763,6,1,11,-0.115550062,-0.007816433,1,0,0,0.7811,rock_grid_rect_2,8,03,-1,-1,0.781,0.414069689,-0.417508138,1,0,0,1.1783,Pumice_rect,8,1.178,1,10,0,10,0,1,,,,,,,,,,,,,
63bd81516745e78ee7f50f7f,TCN,2024-06-11_13h09.55.425,LearnStrategy,2023.2.3,MacIntel,59.17159763,6,1,12,0.001568332,-0.009441766,1,0,0,0.7147,rock_grid_rect_2,4,10,-1,-1,0.715,-0.219048394,-0.259543864,1,0,0,1.2114,Basalt_rect,2,1.211,0,11,0,11,0,1,,,,,,,,,,,,,
63bd81516745e78ee7f50f7f,TCN,2024-06-11_13h09.55.425,LearnStrategy,2023.2.3,MacIntel,59.17159763,6,1,13,0.001751166,0.006847772,1,0,0,0.7309,rock_grid_rect_2,3,11,-1,-1,0.731,0.068981323,-0.262170207,1,0,0,1.2604,Diorite_rect,3,1.26,1,12,0,12,0,1,,,,,,,,,,,,,
63bd81516745e78ee7f50f7f,TCN,2024-06-11_13h09.55.425,LearnStrategy,2023.2.3,MacIntel,59.17159763,6,1,14,0.049337023,-0.004308641,1,0,0,1.0152,rock_grid_rect_2,1,09,-1,-1,1.015,0.46362047,-0.26171936,1,0,0,2.2765,Gabbro_rect,4,2.276,0,13,0,13,0,1,,,,,,,,,,,,,
63bd81516745e78ee7f50f7f,TCN,2024-06-11_13h09.55.425,LearnStrategy,2023.2.3,MacIntel,59.17159763,6,1,15,0.05008138,-0.017015686,1,0,0,0.9645,rock_grid_rect_2,5,12,-1,-1,0.965,-0.351875712,-0.40150472,1,0,0,1.1436,Obsidian_rect,5,1.144,1,14,0,14,0,1,,,,,,,,,,,,,
63bd81516745e78ee7f50f7f,TCN,2024-06-11_13h09.55.425,LearnStrategy,2023.2.3,MacIntel,59.17159763,6,1,16,-0.032930773,0.012890862,1,0,0,1.1493,rock_grid_rect_2,6,03,-1,-1,1.149,0.101765883,-0.420763414,1,0,0,2.0934,Peridotite_rect,7,2.093,0,15,0,15,0,1,,,,,,,,,,,,,
63bd81516745e78ee7f50f7f,TCN,2024-06-11_13h09.55.425,LearnStrategy,2023.2.3,MacIntel,59.17159763,6,2,1,,,,,,,,8,08,,,,,,,,,,,8,1.859,1,,,,,,0.353510878,-0.412836778,1,0,0,1.8591,Pumice_rect,0,0,0,0,1,
63bd81516745e78ee7f50f7f,TCN,2024-06-11_13h09.55.425,LearnStrategy,2023.2.3,MacIntel,59.17159763,6,2,2,,,,,,,,1,07,,,,,,,,,,,3,2.194,0,,,,,,0.087831624,-0.255118408,1,0,0,2.1937,Diorite_rect,1,0,1,0,1,
63bd81516745e78ee7f50f7f,TCN,2024-06-11_13h09.55.425,LearnStrategy,2023.2.3,MacIntel,59.17159763,6,2,3,,,,,,,,5,11,,,,,,,,,,,5,1.092,1,,,,,,-0.380068766,-0.399285482,1,0,0,1.0922,Obsidian_rect,2,0,2,0,1,
63bd81516745e78ee7f50f7f,TCN,2024-06-11_13h09.55.425,LearnStrategy,2023.2.3,MacIntel,59.17159763,6,2,4,,,,,,,,3,07,,,,,,,,,,,3,2.811,1,,,,,,0.096099108,-0.268585205,1,0,0,2.8111,Diorite_rect,3,0,3,0,1,
63bd81516745e78ee7f50f7f,TCN,2024-06-11_13h09.55.425,LearnStrategy,2023.2.3,MacIntel,59.17159763,6,2,5,,,,,,,,3,13,,,,,,,,,,,3,1.283,1,,,,,,0.124522976,-0.25449802,1,0,0,1.2829,Diorite_rect,4,0,4,0,1,
63bd81516745e78ee7f50f7f,TCN,2024-06-11_13h09.55.425,LearnStrategy,2023.2.3,MacIntel,59.17159763,6,2,6,,,,,,,,8,16,,,,,,,,,,,8,1.192,1,,,,,,0.310522257,-0.398720296,1,0,0,1.1923,Pumice_rect,5,0,5,0,1,
63bd81516745e78ee7f50f7f,TCN,2024-06-11_13h09.55.425,LearnStrategy,2023.2.3,MacIntel,59.17159763,6,2,7,,,,,,,,6,13,,,,,,,,,,,6,1.993,1,,,,,,-0.038813205,-0.385977173,1,0,0,1.9934,Pegmatite_rect,6,0,6,0,1,
63bd81516745e78ee7f50f7f,TCN,2024-06-11_13h09.55.425,LearnStrategy,2023.2.3,MacIntel,59.17159763,6,2,8,,,,,,,,7,08,,,,,,,,,,,7,1.133,1,,,,,,0.099011298,-0.412063531,1,0,0,1.1329,Peridotite_rect,7,0,7,0,1,
63bd81516745e78ee7f50f7f,TCN,2024-06-11_13h09.55.425,LearnStrategy,2023.2.3,MacIntel,59.17159763,6,2,9,,,,,,,,2,14,,,,,,,,,,,1,3.409,0,,,,,,-0.339194268,-0.251206326,1,0,0,3.4086,Andesite_rect,8,0,8,0,1,
63bd81516745e78ee7f50f7f,TCN,2024-06-11_13h09.55.425,LearnStrategy,2023.2.3,MacIntel,59.17159763,6,2,10,,,,,,,,7,05,,,,,,,,,,,7,2.116,1,,,,,,0.116213175,-0.411172621,1,0,0,2.1162,Peridotite_rect,9,0,9,0,1,
63bd81516745e78ee7f50f7f,TCN,2024-06-11_13h09.55.425,LearnStrategy,2023.2.3,MacIntel,59.17159763,6,2,11,,,,,,,,5,16,,,,,,,,,,,5,1.101,1,,,,,,-0.400470852,-0.392027317,1,0,0,1.1015,Obsidian_rect,10,0,10,0,1,
63bd81516745e78ee7f50f7f,TCN,2024-06-11_13h09.55.425,LearnStrategy,2023.2.3,MacIntel,59.17159763,6,2,12,,,,,,,,1,14,,,,,,,,,,,4,2.494,0,,,,,,0.371287571,-0.250076497,1,0,0,2.4937,Gabbro_rect,11,0,11,0,1,
63bd81516745e78ee7f50f7f,TCN,2024-06-11_13h09.55.425,LearnStrategy,2023.2.3,MacIntel,59.17159763,6,2,13,,,,,,,,6,16,,,,,,,,,,,3,1.1,0,,,,,,0.15113756,-0.254699639,1,0,0,1.0995,Diorite_rect,12,0,12,0,1,
63bd81516745e78ee7f50f7f,TCN,2024-06-11_13h09.55.425,LearnStrategy,2023.2.3,MacIntel,59.17159763,6,2,14,,,,,,,,4,16,,,,,,,,,,,2,1.51,0,,,,,,-0.11185886,-0.251165704,1,0,0,1.5098,Basalt_rect,13,0,13,0,1,
63bd81516745e78ee7f50f7f,TCN,2024-06-11_13h09.55.425,LearnStrategy,2023.2.3,MacIntel,59.17159763,6,2,15,,,,,,,,4,08,,,,,,,,,,,1,1.96,0,,,,,,-0.318712429,-0.248708835,1,0,0,1.9598,Andesite_rect,14,0,14,0,1,
63bd81516745e78ee7f50f7f,TCN,2024-06-11_13h09.55.425,LearnStrategy,2023.2.3,MacIntel,59.17159763,6,2,16,,,,,,,,2,05,,,,,,,,,,,2,1.41,1,,,,,,-0.079773763,-0.250737305,1,0,0,1.4096,Basalt_rect,15,0,15,0,1,
63bd81516745e78ee7f50f7f,TCN,2024-06-11_13h09.55.425,LearnStrategy,2023.2.3,MacIntel,59.17159763,7,1,1,-0.047385186,-0.008198378,1,0,0,1.5326,rock_grid_rect_2,3,08,-1,-1,1.533,0.153053996,-0.27133728,1,0,0,1.5922,Diorite_rect,3,1.592,1,0,0,0,0,1,,,,,,,,,,,,,
63bd81516745e78ee7f50f7f,TCN,2024-06-11_13h09.55.425,LearnStrategy,2023.2.3,MacIntel,59.17159763,7,1,2,0.032271457,-0.013319431,1,0,0,1.2162,rock_grid_rect_2,7,14,-1,-1,1.216,-0.136123657,-0.254170058,1,0,0,2.4262,Basalt_rect,2,2.426,0,1,0,1,0,1,,,,,,,,,,,,,
63bd81516745e78ee7f50f7f,TCN,2024-06-11_13h09.55.425,LearnStrategy,2023.2.3,MacIntel,59.17159763,7,1,3,-0.03970893,-0.005848728,1,0,0,0.9978,rock_grid_rect_2,3,15,-1,-1,0.998,-0.120249905,-0.40088718,1,0,0,3.2927,Pegmatite_rect,6,3.293,0,2,0,2,0,1,,,,,,,,,,,,,
63bd81516745e78ee7f50f7f,TCN,2024-06-11_13h09.55.425,LearnStrategy,2023.2.3,MacIntel,59.17159763,7,1,4,-0.004755181,-0.010547757,1,0,0,0.931,rock_grid_rect_2,6,15,-1,-1,0.931,-0.086804335,-0.247212796,1,0,0,1.2933,Basalt_rect,2,1.293,0,3,0,3,0,1,,,,,,,,,,,,,
63bd81516745e78ee7f50f7f,TCN,2024-06-11_13h09.55.425,LearnStrategy,2023.2.3,MacIntel,59.17159763,7,1,5,0.00107978,-0.013975593,1,0,0,1.1159,rock_grid_rect_2,5,09,-1,-1,1.116,-0.34607432,-0.392425876,1,0,0,1.2425,Obsidian_rect,5,1.242,1,4,0,4,0,1,,,,,,,,,,,,,
63bd81516745e78ee7f50f7f,TCN,2024-06-11_13h09.55.425,LearnStrategy,2023.2.3,MacIntel,59.17159763,7,1,6,0.058744439,-0.007717116,1,0,0,0.9986,rock_grid_rect_2,8,10,-1,-1,0.999,0.373394233,-0.413351034,1,0,0,1.7937,Pumice_rect,8,1.794,1,5,0,5,0,1,,,,,,,,,,,,,
63bd81516745e78ee7f50f7f,TCN,2024-06-11_13h09.55.425,LearnStrategy,2023.2.3,MacIntel,59.17159763,7,1,7,-0.009064399,-0.009021267,1,0,0,0.8142,rock_grid_rect_2,5,02,-1,-1,0.814,-0.343450317,-0.390785522,1,0,0,1.9774,Obsidian_rect,5,1.977,1,6,0,6,0,1,,,,,,,,,,,,,
63bd81516745e78ee7f50f7f,TCN,2024-06-11_13h09.55.425,LearnStrategy,2023.2.3,MacIntel,59.17159763,7,1,8,0.049161513,0.01067376,1,0,0,1.2825,rock_grid_rect_2,7,02,-1,-1,1.283,0.141555379,-0.245289646,1,0,0,2.9596,Diorite_rect,3,2.96,0,7,0,7,0,1,,,,,,,,,,,,,
63bd81516745e78ee7f50f7f,TCN,2024-06-11_13h09.55.425,LearnStrategy,2023.2.3,MacIntel,59.17159763,7,1,9,0.077005208,-0.005222168,1,0,0,0.8471,rock_grid_rect_2,1,10,-1,-1,0.847,-0.122891574,-0.261609836,1,0,0,1.2607,Basalt_rect,2,1.261,0,8,0,8,0,1,,,,,,,,,,,,,
63bd81516745e78ee7f50f7f,TCN,2024-06-11_13h09.55.425,LearnStrategy,2023.2.3,MacIntel,59.17159763,7,1,10,-0.11193712,-0.015661858,1,0,0,1.2312,rock_grid_rect_2,2,16,-1,-1,1.231,-0.118662177,-0.237298245,1,0,0,1.2263,Basalt_rect,2,1.226,1,9,0,9,0,1,,,,,,,,,,,,,
63bd81516745e78ee7f50f7f,TCN,2024-06-11_13h09.55.425,LearnStrategy,2023.2.3,MacIntel,59.17159763,7,1,11,-0.082960476,0.000672234,1,0,0,0.7659,rock_grid_rect_2,2,10,-1,-1,0.766,-0.166705322,-0.260390286,1,0,0,1.7594,Basalt_rect,2,1.759,1,10,0,10,0,1,,,,,,,,,,,,,
63bd81516745e78ee7f50f7f,TCN,2024-06-11_13h09.55.425,LearnStrategy,2023.2.3,MacIntel,59.17159763,7,1,12,-0.025358615,-0.024813029,1,0,0,0.7155,rock_grid_rect_2,1,09,-1,-1,0.716,-0.350892809,-0.238500502,1,0,0,1.376,Andesite_rect,1,1.376,1,11,0,11,0,1,,,,,,,,,,,,,
63bd81516745e78ee7f50f7f,TCN,2024-06-11_13h09.55.425,LearnStrategy,2023.2.3,MacIntel,59.17159763,7,1,13,0.011168349,-0.006183336,1,0,0,0.6809,rock_grid_rect_2,6,09,-1,-1,0.681,-0.08219062,-0.401509128,1,0,0,1.4443,Pegmatite_rect,6,1.444,1,12,0,12,0,1,,,,,,,,,,,,,
63bd81516745e78ee7f50f7f,TCN,2024-06-11_13h09.55.425,LearnStrategy,2023.2.3,MacIntel,59.17159763,7,1,14,-0.058526679,0.011157159,1,0,0,0.8322,rock_grid_rect_2,4,05,-1,-1,0.832,0.114824897,-0.39283237,1,0,0,1.344,Peridotite_rect,7,1.344,0,13,0,13,0,1,,,,,,,,,,,,,
63bd81516745e78ee7f50f7f,TCN,2024-06-11_13h09.55.425,LearnStrategy,2023.2.3,MacIntel,59.17159763,7,1,15,-0.072917006,-0.00322113,1,0,0,0.9646,rock_grid_rect_2,4,11,-1,-1,0.965,0.354758979,-0.238121609,1,0,0,1.3431,Gabbro_rect,4,1.343,1,14,0,14,0,1,,,,,,,,,,,,,
63bd81516745e78ee7f50f7f,TCN,2024-06-11_13h09.55.425,LearnStrategy,2023.2.3,MacIntel,59.17159763,7,1,16,-0.014587674,-0.016624552,1,0,0,0.8155,rock_grid_rect_2,8,04,-1,-1,0.815,0.43641588,-0.409992947,1,0,0,1.2426,Pumice_rect,8,1.243,1,15,0,15,0,1,,,,,,,,,,,,,
63bd81516745e78ee7f50f7f,TCN,2024-06-11_13h09.55.425,LearnStrategy,2023.2.3,MacIntel,59.17159763,7,2,1,,,,,,,,6,13,,,,,,,,,,,3,2.077,0,,,,,,0.128582899,-0.252031453,1,0,0,2.077,Diorite_rect,0,0,0,0,1,
63bd81516745e78ee7f50f7f,TCN,2024-06-11_13h09.55.425,LearnStrategy,2023.2.3,MacIntel,59.17159763,7,2,2,,,,,,,,4,03,,,,,,,,,,,4,2.16,1,,,,,,0.360397271,-0.259828627,1,0,0,2.1596,Gabbro_rect,1,0,1,0,1,
63bd81516745e78ee7f50f7f,TCN,2024-06-11_13h09.55.425,LearnStrategy,2023.2.3,MacIntel,59.17159763,7,2,3,,,,,,,,1,07,,,,,,,,,,,7,2.344,0,,,,,,0.094099664,-0.410223796,1,0,0,2.3438,Peridotite_rect,2,0,2,0,1,
63bd81516745e78ee7f50f7f,TCN,2024-06-11_13h09.55.425,LearnStrategy,2023.2.3,MacIntel,59.17159763,7,2,4,,,,,,,,6,07,,,,,,,,,,,3,2.101,0,,,,,,0.15217475,-0.247912326,1,0,0,2.1009,Diorite_rect,3,0,3,0,1,
63bd81516745e78ee7f50f7f,TCN,2024-06-11_13h09.55.425,LearnStrategy,2023.2.3,MacIntel,59.17159763,7,2,5,,,,,,,,4,13,,,,,,,,,,,6,2.025,0,,,,,,-0.138134698,-0.398543972,1,0,0,2.0254,Pegmatite_rect,4,0,4,0,1,
63bd81516745e78ee7f50f7f,TCN,2024-06-11_13h09.55.425,LearnStrategy,2023.2.3,MacIntel,59.17159763,7,2,6,,,,,,,,5,11,,,,,,,,,,,5,0.843,1,,,,,,-0.394030287,-0.384692925,1,0,0,0.8431,Obsidian_rect,5,0,5,0,1,
63bd81516745e78ee7f50f7f,TCN,2024-06-11_13h09.55.425,LearnStrategy,2023.2.3,MacIntel,59.17159763,7,2,7,,,,,,,,8,06,,,,,,,,,,,8,1.944,1,,,,,,0.420242784,-0.393874512,1,0,0,1.9437,Pumice_rect,6,0,6,0,1,
63bd81516745e78ee7f50f7f,TCN,2024-06-11_13h09.55.425,LearnStrategy,2023.2.3,MacIntel,59.17159763,7,2,8,,,,,,,,8,09,,,,,,,,,,,8,1.127,1,,,,,,0.387357313,-0.407884861,1,0,0,1.1271,Pumice_rect,7,0,7,0,1,
63bd81516745e78ee7f50f7f,TCN,2024-06-11_13h09.55.425,LearnStrategy,2023.2.3,MacIntel,59.17159763,7,2,9,,,,,,,,1,11,,,,,,,,,,,4,1.159,0,,,,,,0.367174886,-0.24921129,1,0,0,1.1589,Gabbro_rect,8,0,8,0,1,
63bd81516745e78ee7f50f7f,TCN,2024-06-11_13h09.55.425,LearnStrategy,2023.2.3,MacIntel,59.17159763,7,2,10,,,,,,,,2,09,,,,,,,,,,,1,1.128,0,,,,,,-0.351692844,-0.25398607,1,0,0,1.1281,Andesite_rect,9,0,9,0,1,
63bd81516745e78ee7f50f7f,TCN,2024-06-11_13h09.55.425,LearnStrategy,2023.2.3,MacIntel,59.17159763,7,2,11,,,,,,,,7,04,,,,,,,,,,,7,2.393,1,,,,,,0.112815416,-0.405993788,1,0,0,2.3932,Peridotite_rect,10,0,10,0,1,
63bd81516745e78ee7f50f7f,TCN,2024-06-11_13h09.55.425,LearnStrategy,2023.2.3,MacIntel,59.17159763,7,2,12,,,,,,,,2,11,,,,,,,,,,,4,2.71,0,,,,,,0.359821506,-0.249011298,1,0,0,2.7103,Gabbro_rect,11,0,11,0,1,
63bd81516745e78ee7f50f7f,TCN,2024-06-11_13h09.55.425,LearnStrategy,2023.2.3,MacIntel,59.17159763,7,2,13,,,,,,,,7,15,,,,,,,,,,,6,2.717,0,,,,,,-0.10479994,-0.401312731,1,0,0,2.7167,Pegmatite_rect,12,0,12,0,1,
63bd81516745e78ee7f50f7f,TCN,2024-06-11_13h09.55.425,LearnStrategy,2023.2.3,MacIntel,59.17159763,7,2,14,,,,,,,,5,16,,,,,,,,,,,5,1.06,1,,,,,,-0.436388007,-0.396867405,1,0,0,1.0602,Obsidian_rect,13,0,13,0,1,
63bd81516745e78ee7f50f7f,TCN,2024-06-11_13h09.55.425,LearnStrategy,2023.2.3,MacIntel,59.17159763,7,2,15,,,,,,,,3,13,,,,,,,,,,,7,2.144,0,,,,,,0.130337321,-0.38595954,1,0,0,2.1437,Peridotite_rect,14,0,14,0,1,
63bd81516745e78ee7f50f7f,TCN,2024-06-11_13h09.55.425,LearnStrategy,2023.2.3,MacIntel,59.17159763,7,2,16,,,,,,,,3,16,,,,,,,,,,,3,1.094,1,,,,,,0.11959059,-0.256291368,1,0,0,1.0944,Diorite_rect,15,0,15,0,1,
63bd81516745e78ee7f50f7f,TCN,2024-06-11_13h09.55.425,LearnStrategy,2023.2.3,MacIntel,59.17159763,8,1,1,-0.005768365,-0.008512505,1,0,0,1.1988,rock_grid_rect_2,8,05,-1,-1,1.199,0.404647488,-0.39331543,1,0,0,1.4433,Pumice_rect,8,1.443,1,0,0,0,0,1,,,,,,,,,,,,,
63bd81516745e78ee7f50f7f,TCN,2024-06-11_13h09.55.425,LearnStrategy,2023.2.3,MacIntel,59.17159763,8,1,2,0.038377482,-0.001484443,1,0,0,1.2153,rock_grid_rect_2,1,16,-1,-1,1.215,0.131238064,-0.251904229,1,0,0,2.0762,Diorite_rect,3,2.076,0,1,0,1,0,1,,,,,,,,,,,,,
63bd81516745e78ee7f50f7f,TCN,2024-06-11_13h09.55.425,LearnStrategy,2023.2.3,MacIntel,59.17159763,8,1,3,0.060723741,-0.006899109,1,0,0,0.9314,rock_grid_rect_2,7,10,-1,-1,0.931,-0.113618978,-0.405096164,1,0,0,1.3113,Pegmatite_rect,6,1.311,0,2,0,2,0,1,,,,,,,,,,,,,
63bd81516745e78ee7f50f7f,TCN,2024-06-11_13h09.55.425,LearnStrategy,2023.2.3,MacIntel,59.17159763,8,1,4,-0.09604343,0.001422289,1,0,0,0.9656,rock_grid_rect_2,4,09,-1,-1,0.966,0.081385701,-0.411839871,1,0,0,1.3427,Peridotite_rect,7,1.343,0,3,0,3,0,1,,,,,,,,,,,,,
63bd81516745e78ee7f50f7f,TCN,2024-06-11_13h09.55.425,LearnStrategy,2023.2.3,MacIntel,59.17159763,8,1,5,-0.039760607,-0.018441433,1,0,0,1.0154,rock_grid_rect_2,2,08,-1,-1,1.015,0.364964464,-0.26245619,1,0,0,1.3597,Gabbro_rect,4,1.36,0,4,0,4,0,1,,,,,,,,,,,,,
63bd81516745e78ee7f50f7f,TCN,2024-06-11_13h09.55.425,LearnStrategy,2023.2.3,MacIntel,59.17159763,8,1,6,-0.08979621,0.002323981,1,0,0,0.7488,rock_grid_rect_2,7,16,-1,-1,0.749,-0.103247138,-0.382151421,1,0,0,1.0765,Pegmatite_rect,6,1.076,0,5,0,5,0,1,,,,,,,,,,,,,
63bd81516745e78ee7f50f7f,TCN,2024-06-11_13h09.55.425,LearnStrategy,2023.2.3,MacIntel,59.17159763,8,1,7,-0.057726983,0.005680508,1,0,0,0.6814,rock_grid_rect_2,5,06,-1,-1,0.681,-0.381647678,-0.415731879,1,0,0,1.0602,Obsidian_rect,5,1.06,1,6,0,6,0,1,,,,,,,,,,,,,
63bd81516745e78ee7f50f7f,TCN,2024-06-11_13h09.55.425,LearnStrategy,2023.2.3,MacIntel,59.17159763,8,1,8,0.065972765,-0.016005046,1,0,0,1.5984,rock_grid_rect_2,4,12,-1,-1,1.598,-0.397593553,-0.24700175,1,0,0,1.3767,Andesite_rect,1,1.377,0,7,0,7,0,1,,,,,,,,,,,,,
63bd81516745e78ee7f50f7f,TCN,2024-06-11_13h09.55.425,LearnStrategy,2023.2.3,MacIntel,59.17159763,8,1,9,0.089366862,-0.00324429,1,0,0,1.282,rock_grid_rect_2,8,13,-1,-1,1.282,0.388485379,-0.407309909,1,0,0,1.3772,Pumice_rect,8,1.377,1,8,0,8,0,1,,,,,,,,,,,,,
63bd81516745e78ee7f50f7f,TCN,2024-06-11_13h09.55.425,LearnStrategy,2023.2.3,MacIntel,59.17159763,8,1,10,0.090349053,-0.003342726,1,0,0,1.0996,rock_grid_rect_2,6,12,-1,-1,1.1,-0.09718221,-0.24710734,1,0,0,1.593,Basalt_rect,2,1.593,0,9,0,9,0,1,,,,,,,,,,,,,
63bd81516745e78ee7f50f7f,TCN,2024-06-11_13h09.55.425,LearnStrategy,2023.2.3,MacIntel,59.17159763,8,1,11,0.083598904,-0.00653734,1,0,0,0.9147,rock_grid_rect_2,3,14,-1,-1,0.915,0.143282403,-0.417619765,1,0,0,1.5939,Peridotite_rect,7,1.594,0,10,0,10,0,1,,,,,,,,,,,,,
63bd81516745e78ee7f50f7f,TCN,2024-06-11_13h09.55.425,LearnStrategy,2023.2.3,MacIntel,59.17159763,8,1,12,0.022867025,-0.019768338,1,0,0,0.6816,rock_grid_rect_2,5,12,-1,-1,0.682,-0.379092678,-0.397104153,1,0,0,1.0442,Obsidian_rect,5,1.044,1,11,0,11,0,1,,,,,,,,,,,,,
63bd81516745e78ee7f50f7f,TCN,2024-06-11_13h09.55.425,LearnStrategy,2023.2.3,MacIntel,59.17159763,8,1,13,0.070390082,0.018439907,1,0,0,0.7646,rock_grid_rect_2,6,03,-1,-1,0.765,0.09912184,-0.414317491,1,0,0,2.5073,Peridotite_rect,7,2.507,0,12,0,12,0,1,,,,,,,,,,,,,
63bd81516745e78ee7f50f7f,TCN,2024-06-11_13h09.55.425,LearnStrategy,2023.2.3,MacIntel,59.17159763,8,1,14,-0.049639214,-0.013312005,1,0,0,0.8654,rock_grid_rect_2,2,06,-1,-1,0.865,-0.13115587,-0.258868747,1,0,0,1.0741,Basalt_rect,2,1.074,1,13,0,13,0,1,,,,,,,,,,,,,
63bd81516745e78ee7f50f7f,TCN,2024-06-11_13h09.55.425,LearnStrategy,2023.2.3,MacIntel,59.17159763,8,1,15,0.006466064,-0.006519029,1,0,0,0.7312,rock_grid_rect_2,3,11,-1,-1,0.731,0.071312188,-0.400611301,1,0,0,2.3583,Peridotite_rect,7,2.358,0,14,0,14,0,1,,,,,,,,,,,,,
63bd81516745e78ee7f50f7f,TCN,2024-06-11_13h09.55.425,LearnStrategy,2023.2.3,MacIntel,59.17159763,8,1,16,-0.032645196,0.021775852,1,0,0,0.7645,rock_grid_rect_2,1,01,-1,-1,0.764,-0.080247803,-0.250423109,1,0,0,1.6378,Basalt_rect,2,1.638,0,15,0,15,0,1,,,,,,,,,,,,,
63bd81516745e78ee7f50f7f,TCN,2024-06-11_13h09.55.425,LearnStrategy,2023.2.3,MacIntel,59.17159763,8,2,1,,,,,,,,6,16,,,,,,,,,,,6,1.877,1,,,,,,-0.148343302,-0.388106757,1,0,0,1.8765,Pegmatite_rect,0,0,0,0,1,
63bd81516745e78ee7f50f7f,TCN,2024-06-11_13h09.55.425,LearnStrategy,2023.2.3,MacIntel,59.17159763,8,2,2,,,,,,,,3,02,,,,,,,,,,,7,1.218,0,,,,,,0.092138265,-0.416119724,1,0,0,1.2177,Peridotite_rect,1,0,1,0,1,
63bd81516745e78ee7f50f7f,TCN,2024-06-11_13h09.55.425,LearnStrategy,2023.2.3,MacIntel,59.17159763,8,2,3,,,,,,,,2,04,,,,,,,,,,,2,1.11,1,,,,,,-0.131648153,-0.249921807,1,0,0,1.1102,Basalt_rect,2,0,2,0,1,
63bd81516745e78ee7f50f7f,TCN,2024-06-11_13h09.55.425,LearnStrategy,2023.2.3,MacIntel,59.17159763,8,2,4,,,,,,,,1,02,,,,,,,,,,,4,3.742,0,,,,,,0.375244548,-0.241665243,1,0,0,3.7422,Gabbro_rect,3,0,3,0,1,
63bd81516745e78ee7f50f7f,TCN,2024-06-11_13h09.55.425,LearnStrategy,2023.2.3,MacIntel,59.17159763,8,2,5,,,,,,,,4,15,,,,,,,,,,,3,2.65,0,,,,,,0.112367622,-0.266994697,1,0,0,2.6502,Diorite_rect,4,0,4,0,1,
63bd81516745e78ee7f50f7f,TCN,2024-06-11_13h09.55.425,LearnStrategy,2023.2.3,MacIntel,59.17159763,8,2,6,,,,,,,,2,05,,,,,,,,,,,2,1.349,1,,,,,,-0.144078912,-0.255558811,1,0,0,1.3488,Basalt_rect,5,0,5,0,1,
63bd81516745e78ee7f50f7f,TCN,2024-06-11_13h09.55.425,LearnStrategy,2023.2.3,MacIntel,59.17159763,8,2,7,,,,,,,,5,05,,,,,,,,,,,5,1.343,1,,,,,,-0.331156209,-0.384243164,1,0,0,1.3427,Obsidian_rect,6,0,6,0,1,
63bd81516745e78ee7f50f7f,TCN,2024-06-11_13h09.55.425,LearnStrategy,2023.2.3,MacIntel,59.17159763,8,2,8,,,,,,,,3,06,,,,,,,,,,,6,1.928,0,,,,,,-0.049831,-0.390031535,1,0,0,1.9281,Pegmatite_rect,7,0,7,0,1,
63bd81516745e78ee7f50f7f,TCN,2024-06-11_13h09.55.425,LearnStrategy,2023.2.3,MacIntel,59.17159763,8,2,9,,,,,,,,7,12,,,,,,,,,,,6,0.793,0,,,,,,-0.037502238,-0.383680827,1,0,0,0.7931,Pegmatite_rect,8,0,8,0,1,
63bd81516745e78ee7f50f7f,TCN,2024-06-11_13h09.55.425,LearnStrategy,2023.2.3,MacIntel,59.17159763,8,2,10,,,,,,,,1,05,,,,,,,,,,,7,1.443,0,,,,,,0.041762153,-0.390510661,1,0,0,1.4432,Peridotite_rect,9,0,9,0,1,
63bd81516745e78ee7f50f7f,TCN,2024-06-11_13h09.55.425,LearnStrategy,2023.2.3,MacIntel,59.17159763,8,2,11,,,,,,,,5,14,,,,,,,,,,,5,1.013,1,,,,,,-0.358009406,-0.392603217,1,0,0,1.0131,Obsidian_rect,10,0,10,0,1,
63bd81516745e78ee7f50f7f,TCN,2024-06-11_13h09.55.425,LearnStrategy,2023.2.3,MacIntel,59.17159763,8,2,12,,,,,,,,8,02,,,,,,,,,,,8,0.927,1,,,,,,0.350780301,-0.41378418,1,0,0,0.9272,Pumice_rect,11,0,11,0,1,
63bd81516745e78ee7f50f7f,TCN,2024-06-11_13h09.55.425,LearnStrategy,2023.2.3,MacIntel,59.17159763,8,2,13,,,,,,,,6,10,,,,,,,,,,,6,2.193,1,,,,,,-0.095414632,-0.420824653,1,0,0,2.1927,Pegmatite_rect,12,0,12,0,1,
63bd81516745e78ee7f50f7f,TCN,2024-06-11_13h09.55.425,LearnStrategy,2023.2.3,MacIntel,59.17159763,8,2,14,,,,,,,,4,16,,,,,,,,,,,4,1.86,1,,,,,,0.400957031,-0.255673828,1,0,0,1.8601,Gabbro_rect,13,0,13,0,1,
63bd81516745e78ee7f50f7f,TCN,2024-06-11_13h09.55.425,LearnStrategy,2023.2.3,MacIntel,59.17159763,8,2,15,,,,,,,,8,15,,,,,,,,,,,8,1.833,1,,,,,,0.34740804,-0.399709676,1,0,0,1.8331,Pumice_rect,14,0,14,0,1,
63bd81516745e78ee7f50f7f,TCN,2024-06-11_13h09.55.425,LearnStrategy,2023.2.3,MacIntel,59.17159763,8,2,16,,,,,,,,7,08,,,,,,,,,,,7,1.376,1,,,,,,0.072075195,-0.386515706,1,0,0,1.376,Peridotite_rect,15,0,15,0,1,
63bd81516745e78ee7f50f7f,TCN,2024-06-11_13h09.55.425,LearnStrategy,2023.2.3,MacIntel,59.17159763,9,1,1,0.057383626,-0.014127435,1,0,0,1.1487,rock_grid_rect_2,6,06,-1,-1,1.149,0.122910902,-0.255957167,1,0,0,1.3106,Diorite_rect,3,1.311,0,0,0,0,0,1,,,,,,,,,,,,,
63bd81516745e78ee7f50f7f,TCN,2024-06-11_13h09.55.425,LearnStrategy,2023.2.3,MacIntel,59.17159763,9,1,2,0.11297248,0.000466614,1,0,0,0.9641,rock_grid_rect_2,5,10,-1,-1,0.964,-0.375130208,-0.417251926,1,0,0,1.0604,Obsidian_rect,5,1.06,1,1,0,1,0,1,,,,,,,,,,,,,
63bd81516745e78ee7f50f7f,TCN,2024-06-11_13h09.55.425,LearnStrategy,2023.2.3,MacIntel,59.17159763,9,1,3,0.030357395,0.007556864,1,0,0,0.966,rock_grid_rect_2,4,14,-1,-1,0.966,-0.057876248,-0.257941488,1,0,0,1.01,Basalt_rect,2,1.01,0,2,0,2,0,1,,,,,,,,,,,,,
63bd81516745e78ee7f50f7f,TCN,2024-06-11_13h09.55.425,LearnStrategy,2023.2.3,MacIntel,59.17159763,9,1,4,-0.02218811,0.002873467,1,0,0,1.132,rock_grid_rect_2,1,03,-1,-1,1.132,-0.372086521,-0.231782905,1,0,0,1.144,Andesite_rect,1,1.144,1,3,0,3,0,1,,,,,,,,,,,,,
63bd81516745e78ee7f50f7f,TCN,2024-06-11_13h09.55.425,LearnStrategy,2023.2.3,MacIntel,59.17159763,9,1,5,0.058272502,-0.003592428,1,0,0,1.2315,rock_grid_rect_2,2,12,-1,-1,1.232,-0.349574585,-0.257327406,1,0,0,0.9943,Andesite_rect,1,0.994,0,4,0,4,0,1,,,,,,,,,,,,,
63bd81516745e78ee7f50f7f,TCN,2024-06-11_13h09.55.425,LearnStrategy,2023.2.3,MacIntel,59.17159763,9,1,6,0.018626166,0.024442749,1,0,0,0.648,rock_grid_rect_2,2,01,-1,-1,0.648,-0.35119161,-0.243650038,1,0,0,0.877,Andesite_rect,1,0.877,0,5,0,5,0,1,,,,,,,,,,,,,
63bd81516745e78ee7f50f7f,TCN,2024-06-11_13h09.55.425,LearnStrategy,2023.2.3,MacIntel,59.17159763,9,1,7,0.038123372,-0.013772719,1,0,0,0.6984,rock_grid_rect_2,7,13,-1,-1,0.698,0.088876139,-0.39762302,1,0,0,2.2929,Peridotite_rect,7,2.293,1,6,0,6,0,1,,,,,,,,,,,,,
63bd81516745e78ee7f50f7f,TCN,2024-06-11_13h09.55.425,LearnStrategy,2023.2.3,MacIntel,59.17159763,9,1,8,-0.001085951,0.002974108,1,0,0,0.7477,rock_grid_rect_2,5,08,-1,-1,0.748,-0.395554131,-0.393966404,1,0,0,1.0441,Obsidian_rect,5,1.044,1,7,0,7,0,1,,,,,,,,,,,,,
63bd81516745e78ee7f50f7f,TCN,2024-06-11_13h09.55.425,LearnStrategy,2023.2.3,MacIntel,59.17159763,9,1,9,0.052175768,-0.009269748,1,0,0,0.8488,rock_grid_rect_2,8,03,-1,-1,0.849,0.393482259,-0.388405626,1,0,0,1.1091,Pumice_rect,8,1.109,1,8,0,8,0,1,,,,,,,,,,,,,
63bd81516745e78ee7f50f7f,TCN,2024-06-11_13h09.55.425,LearnStrategy,2023.2.3,MacIntel,59.17159763,9,1,10,-0.011361355,-0.002752719,1,0,0,0.9156,rock_grid_rect_2,3,09,-1,-1,0.916,0.177931925,-0.270852661,1,0,0,1.2925,Diorite_rect,3,1.293,1,9,0,9,0,1,,,,,,,,,,,,,
63bd81516745e78ee7f50f7f,TCN,2024-06-11_13h09.55.425,LearnStrategy,2023.2.3,MacIntel,59.17159763,9,1,11,0.027927314,-0.01014289,1,0,0,0.8821,rock_grid_rect_2,3,10,-1,-1,0.882,0.045122952,-0.406307644,1,0,0,2.9931,Peridotite_rect,7,2.993,0,10,0,10,0,1,,,,,,,,,,,,,
63bd81516745e78ee7f50f7f,TCN,2024-06-11_13h09.55.425,LearnStrategy,2023.2.3,MacIntel,59.17159763,9,1,12,-0.063589681,-0.011568977,1,0,0,0.7981,rock_grid_rect_2,1,04,-1,-1,0.798,-0.077854682,-0.389787055,1,0,0,1.9101,Pegmatite_rect,6,1.91,0,11,0,11,0,1,,,,,,,,,,,,,
63bd81516745e78ee7f50f7f,TCN,2024-06-11_13h09.55.425,LearnStrategy,2023.2.3,MacIntel,59.17159763,9,1,13,-0.074451226,0.010169678,1,0,0,0.7146,rock_grid_rect_2,6,08,-1,-1,0.715,-0.383974677,-0.394408773,1,0,0,1.2761,Obsidian_rect,5,1.276,0,12,0,12,0,1,,,,,,,,,,,,,
63bd81516745e78ee7f50f7f,TCN,2024-06-11_13h09.55.425,LearnStrategy,2023.2.3,MacIntel,59.17159763,9,1,14,-0.027313978,-0.01227573,1,0,0,0.7658,rock_grid_rect_2,8,14,-1,-1,0.766,0.420883382,-0.394520806,1,0,0,2.0768,Pumice_rect,8,2.077,1,13,0,13,0,1,,,,,,,,,,,,,
63bd81516745e78ee7f50f7f,TCN,2024-06-11_13h09.55.425,LearnStrategy,2023.2.3,MacIntel,59.17159763,9,1,15,0.019271783,-0.011688334,1,0,0,0.9994,rock_grid_rect_2,4,10,-1,-1,0.999,-0.060893148,-0.266794637,1,0,0,1.2922,Basalt_rect,2,1.292,0,14,0,14,0,1,,,,,,,,,,,,,
63bd81516745e78ee7f50f7f,TCN,2024-06-11_13h09.55.425,LearnStrategy,2023.2.3,MacIntel,59.17159763,9,1,16,-0.000421007,-0.003368225,1,0,0,0.6817,rock_grid_rect_2,7,07,-1,-1,0.682,-0.113732707,-0.398051283,1,0,0,1.4268,Pegmatite_rect,6,1.427,0,15,0,15,0,1,,,,,,,,,,,,,
63bd81516745e78ee7f50f7f,TCN,2024-06-11_13h09.55.425,LearnStrategy,2023.2.3,MacIntel,59.17159763,9,2,1,,,,,,,,8,16,,,,,,,,,,,8,1.861,1,,,,,,0.381881782,-0.411537543,1,0,0,1.8608,Pumice_rect,0,0,0,0,1,
63bd81516745e78ee7f50f7f,TCN,2024-06-11_13h09.55.425,LearnStrategy,2023.2.3,MacIntel,59.17159763,9,2,2,,,,,,,,3,07,,,,,,,,,,,3,2.878,1,,,,,,0.122411499,-0.268816935,1,0,0,2.878,Diorite_rect,1,0,1,0,1,
63bd81516745e78ee7f50f7f,TCN,2024-06-11_13h09.55.425,LearnStrategy,2023.2.3,MacIntel,59.17159763,9,2,3,,,,,,,,5,04,,,,,,,,,,,5,0.966,1,,,,,,-0.420470954,-0.398549601,1,0,0,0.9661,Obsidian_rect,2,0,2,0,1,
63bd81516745e78ee7f50f7f,TCN,2024-06-11_13h09.55.425,LearnStrategy,2023.2.3,MacIntel,59.17159763,9,2,4,,,,,,,,1,14,,,,,,,,,,,7,5.043,0,,,,,,0.076000705,-0.40315606,1,0,0,5.0428,Peridotite_rect,3,0,3,0,1,
63bd81516745e78ee7f50f7f,TCN,2024-06-11_13h09.55.425,LearnStrategy,2023.2.3,MacIntel,59.17159763,9,2,5,,,,,,,,6,11,,,,,,,,,,,6,1.301,1,,,,,,-0.134546102,-0.409739651,1,0,0,1.3006,Pegmatite_rect,4,0,4,0,1,
63bd81516745e78ee7f50f7f,TCN,2024-06-11_13h09.55.425,LearnStrategy,2023.2.3,MacIntel,59.17159763,9,2,6,,,,,,,,7,06,,,,,,,,,,,6,1.793,0,,,,,,-0.133359104,-0.402709012,1,0,0,1.7931,Pegmatite_rect,5,0,5,0,1,
63bd81516745e78ee7f50f7f,TCN,2024-06-11_13h09.55.425,LearnStrategy,2023.2.3,MacIntel,59.17159763,9,2,7,,,,,,,,4,08,,,,,,,,,,,2,1.41,0,,,,,,-0.120455187,-0.255900811,1,0,0,1.4101,Basalt_rect,6,0,6,0,1,
63bd81516745e78ee7f50f7f,TCN,2024-06-11_13h09.55.425,LearnStrategy,2023.2.3,MacIntel,59.17159763,9,2,8,,,,,,,,2,02,,,,,,,,,,,1,1.293,0,,,,,,-0.364455329,-0.241061876,1,0,0,1.2926,Andesite_rect,7,0,7,0,1,
63bd81516745e78ee7f50f7f,TCN,2024-06-11_13h09.55.425,LearnStrategy,2023.2.3,MacIntel,59.17159763,9,2,9,,,,,,,,2,14,,,,,,,,,,,4,2.009,0,,,,,,0.408652886,-0.26250373,1,0,0,2.0093,Gabbro_rect,8,0,8,0,1,
63bd81516745e78ee7f50f7f,TCN,2024-06-11_13h09.55.425,LearnStrategy,2023.2.3,MacIntel,59.17159763,9,2,10,,,,,,,,7,05,,,,,,,,,,,7,2.185,1,,,,,,0.096990831,-0.41968065,1,0,0,2.1846,Peridotite_rect,9,0,9,0,1,
63bd81516745e78ee7f50f7f,TCN,2024-06-11_13h09.55.425,LearnStrategy,2023.2.3,MacIntel,59.17159763,9,2,11,,,,,,,,4,01,,,,,,,,,,,7,1.276,0,,,,,,0.13028144,-0.419236315,1,0,0,1.2765,Peridotite_rect,10,0,10,0,1,
63bd81516745e78ee7f50f7f,TCN,2024-06-11_13h09.55.425,LearnStrategy,2023.2.3,MacIntel,59.17159763,9,2,12,,,,,,,,3,12,,,,,,,,,,,3,2.244,1,,,,,,0.094025811,-0.244242418,1,0,0,2.2437,Diorite_rect,11,0,11,0,1,
63bd81516745e78ee7f50f7f,TCN,2024-06-11_13h09.55.425,LearnStrategy,2023.2.3,MacIntel,59.17159763,9,2,13,,,,,,,,6,05,,,,,,,,,,,5,1.476,0,,,,,,-0.3450393,-0.39088284,1,0,0,1.4761,Obsidian_rect,12,0,12,0,1,
63bd81516745e78ee7f50f7f,TCN,2024-06-11_13h09.55.425,LearnStrategy,2023.2.3,MacIntel,59.17159763,9,2,14,,,,,,,,1,06,,,,,,,,,,,1,1.493,1,,,,,,-0.368190613,-0.2453734,1,0,0,1.4927,Andesite_rect,13,0,13,0,1,
63bd81516745e78ee7f50f7f,TCN,2024-06-11_13h09.55.425,LearnStrategy,2023.2.3,MacIntel,59.17159763,9,2,15,,,,,,,,5,07,,,,,,,,,,,5,0.959,1,,,,,,-0.386682807,-0.397236803,1,0,0,0.9593,Obsidian_rect,14,0,14,0,1,
63bd81516745e78ee7f50f7f,TCN,2024-06-11_13h09.55.425,LearnStrategy,2023.2.3,MacIntel,59.17159763,9,2,16,,,,,,,,8,08,,,,,,,,,,,8,2.01,1,,,,,,0.416389974,-0.411483493,1,0,0,2.01,Pumice_rect,15,0,15,0,1,
63bd81516745e78ee7f50f7f,TCN,2024-06-11_13h09.55.425,LearnStrategy,2023.2.3,MacIntel,59.17159763,,,,,,,,,,,,,,,,,,,,,,,,,,,,,,,,,,,,,,,,,,,0
63bd81516745e78ee7f50f7f,TCN,2024-06-11_13h09.55.425,LearnStrategy,2023.2.3,MacIntel,59.17159763,,,,,,,,,,,,,,,,,,,,,,,,,,,,,,,,,,,,,,,,,,,
63bd81516745e78ee7f50f7f,TCN,2024-06-11_13h09.55.425,LearnStrategy,2023.2.3,MacIntel,59.17159763,,,,,,,,,,,6,08,1,1,,,,,,,,,,,,,,,,,,,,,,,,,,,,,
63bd81516745e78ee7f50f7f,TCN,2024-06-11_13h09.55.425,LearnStrategy,2023.2.3,MacIntel,59.17159763,,,,,,,,,,,8,14,1,2,,,,,,,,,,,,,,,,,,,,,,,,,,,,,
63bd81516745e78ee7f50f7f,TCN,2024-06-11_13h09.55.425,LearnStrategy,2023.2.3,MacIntel,59.17159763,,,,,,,,,,,7,07,1,3,,,,,,,,,,,,,,,,,,,,,,,,,,,,,
63bd81516745e78ee7f50f7f,TCN,2024-06-11_13h09.55.425,LearnStrategy,2023.2.3,MacIntel,59.17159763,,,,,,,,,,,7,02,1,4,,,,,,,,,,,,,,,,,,,,,,,,,,,,,
63bd81516745e78ee7f50f7f,TCN,2024-06-11_13h09.55.425,LearnStrategy,2023.2.3,MacIntel,59.17159763,,,,,,,,,,,4,11,1,5,,,,,,,,,,,,,,,,,,,,,,,,,,,,,
63bd81516745e78ee7f50f7f,TCN,2024-06-11_13h09.55.425,LearnStrategy,2023.2.3,MacIntel,59.17159763,,,,,,,,,,,3,10,1,6,,,,,,,,,,,,,,,,,,,,,,,,,,,,,
63bd81516745e78ee7f50f7f,TCN,2024-06-11_13h09.55.425,LearnStrategy,2023.2.3,MacIntel,59.17159763,,,,,,,,,,,4,10,1,7,,,,,,,,,,,,,,,,,,,,,,,,,,,,,
63bd81516745e78ee7f50f7f,TCN,2024-06-11_13h09.55.425,LearnStrategy,2023.2.3,MacIntel,59.17159763,,,,,,,,,,,7,16,1,8,,,,,,,,,,,,,,,,,,,,,,,,,,,,,
63bd81516745e78ee7f50f7f,TCN,2024-06-11_13h09.55.425,LearnStrategy,2023.2.3,MacIntel,59.17159763,,,,,,,,,,,7,10,2,1,,,,,,,,,,,,,,,,,,,,,,,,,,,,,
63bd81516745e78ee7f50f7f,TCN,2024-06-11_13h09.55.425,LearnStrategy,2023.2.3,MacIntel,59.17159763,,,,,,,,,,,8,13,2,2,,,,,,,,,,,,,,,,,,,,,,,,,,,,,
63bd81516745e78ee7f50f7f,TCN,2024-06-11_13h09.55.425,LearnStrategy,2023.2.3,MacIntel,59.17159763,,,,,,,,,,,1,16,2,3,,,,,,,,,,,,,,,,,,,,,,,,,,,,,
63bd81516745e78ee7f50f7f,TCN,2024-06-11_13h09.55.425,LearnStrategy,2023.2.3,MacIntel,59.17159763,,,,,,,,,,,7,14,2,4,,,,,,,,,,,,,,,,,,,,,,,,,,,,,
63bd81516745e78ee7f50f7f,TCN,2024-06-11_13h09.55.425,LearnStrategy,2023.2.3,MacIntel,59.17159763,,,,,,,,,,,3,15,2,5,,,,,,,,,,,,,,,,,,,,,,,,,,,,,
63bd81516745e78ee7f50f7f,TCN,2024-06-11_13h09.55.425,LearnStrategy,2023.2.3,MacIntel,59.17159763,,,,,,,,,,,3,11,2,6,,,,,,,,,,,,,,,,,,,,,,,,,,,,,
63bd81516745e78ee7f50f7f,TCN,2024-06-11_13h09.55.425,LearnStrategy,2023.2.3,MacIntel,59.17159763,,,,,,,,,,,8,03,2,7,,,,,,,,,,,,,,,,,,,,,,,,,,,,,
63bd81516745e78ee7f50f7f,TCN,2024-06-11_13h09.55.425,LearnStrategy,2023.2.3,MacIntel,59.17159763,,,,,,,,,,,6,03,2,8,,,,,,,,,,,,,,,,,,,,,,,,,,,,,
63bd81516745e78ee7f50f7f,TCN,2024-06-11_13h09.55.425,LearnStrategy,2023.2.3,MacIntel,59.17159763,,,,,,,,,,,5,02,3,1,,,,,,,,,,,,,,,,,,,,,,,,,,,,,
63bd81516745e78ee7f50f7f,TCN,2024-06-11_13h09.55.425,LearnStrategy,2023.2.3,MacIntel,59.17159763,,,,,,,,,,,1,03,3,2,,,,,,,,,,,,,,,,,,,,,,,,,,,,,
63bd81516745e78ee7f50f7f,TCN,2024-06-11_13h09.55.425,LearnStrategy,2023.2.3,MacIntel,59.17159763,,,,,,,,,,,2,12,3,3,,,,,,,,,,,,,,,,,,,,,,,,,,,,,
63bd81516745e78ee7f50f7f,TCN,2024-06-11_13h09.55.425,LearnStrategy,2023.2.3,MacIntel,59.17159763,,,,,,,,,,,4,05,3,4,,,,,,,,,,,,,,,,,,,,,,,,,,,,,
63bd81516745e78ee7f50f7f,TCN,2024-06-11_13h09.55.425,LearnStrategy,2023.2.3,MacIntel,59.17159763,,,,,,,,,,,6,09,3,5,,,,,,,,,,,,,,,,,,,,,,,,,,,,,
63bd81516745e78ee7f50f7f,TCN,2024-06-11_13h09.55.425,LearnStrategy,2023.2.3,MacIntel,59.17159763,,,,,,,,,,,4,09,3,6,,,,,,,,,,,,,,,,,,,,,,,,,,,,,
63bd81516745e78ee7f50f7f,TCN,2024-06-11_13h09.55.425,LearnStrategy,2023.2.3,MacIntel,59.17159763,,,,,,,,,,,6,15,3,7,,,,,,,,,,,,,,,,,,,,,,,,,,,,,
63bd81516745e78ee7f50f7f,TCN,2024-06-11_13h09.55.425,LearnStrategy,2023.2.3,MacIntel,59.17159763,,,,,,,,,,,3,09,3,8,,,,,,,,,,,,,,,,,,,,,,,,,,,,,
63bd81516745e78ee7f50f7f,TCN,2024-06-11_13h09.55.425,LearnStrategy,2023.2.3,MacIntel,59.17159763,,,,,,,,,,,1,09,4,1,,,,,,,,,,,,,,,,,,,,,,,,,,,,,
63bd81516745e78ee7f50f7f,TCN,2024-06-11_13h09.55.425,LearnStrategy,2023.2.3,MacIntel,59.17159763,,,,,,,,,,,5,12,4,2,,,,,,,,,,,,,,,,,,,,,,,,,,,,,
63bd81516745e78ee7f50f7f,TCN,2024-06-11_13h09.55.425,LearnStrategy,2023.2.3,MacIntel,59.17159763,,,,,,,,,,,4,14,4,3,,,,,,,,,,,,,,,,,,,,,,,,,,,,,
63bd81516745e78ee7f50f7f,TCN,2024-06-11_13h09.55.425,LearnStrategy,2023.2.3,MacIntel,59.17159763,,,,,,,,,,,5,10,4,4,,,,,,,,,,,,,,,,,,,,,,,,,,,,,
63bd81516745e78ee7f50f7f,TCN,2024-06-11_13h09.55.425,LearnStrategy,2023.2.3,MacIntel,59.17159763,,,,,,,,,,,5,06,4,5,,,,,,,,,,,,,,,,,,,,,,,,,,,,,
63bd81516745e78ee7f50f7f,TCN,2024-06-11_13h09.55.425,LearnStrategy,2023.2.3,MacIntel,59.17159763,,,,,,,,,,,2,10,4,6,,,,,,,,,,,,,,,,,,,,,,,,,,,,,
63bd81516745e78ee7f50f7f,TCN,2024-06-11_13h09.55.425,LearnStrategy,2023.2.3,MacIntel,59.17159763,,,,,,,,,,,2,08,4,7,,,,,,,,,,,,,,,,,,,,,,,,,,,,,
63bd81516745e78ee7f50f7f,TCN,2024-06-11_13h09.55.425,LearnStrategy,2023.2.3,MacIntel,59.17159763,,,,,,,,,,,8,05,4,8,,,,,,,,,,,,,,,,,,,,,,,,,,,,,
63bd81516745e78ee7f50f7f,TCN,2024-06-11_13h09.55.425,LearnStrategy,2023.2.3,MacIntel,59.17159763,,,,,,,,,,,1,04,5,1,,,,,,,,,,,,,,,,,,,,,,,,,,,,,
63bd81516745e78ee7f50f7f,TCN,2024-06-11_13h09.55.425,LearnStrategy,2023.2.3,MacIntel,59.17159763,,,,,,,,,,,2,16,5,2,,,,,,,,,,,,,,,,,,,,,,,,,,,,,
63bd81516745e78ee7f50f7f,TCN,2024-06-11_13h09.55.425,LearnStrategy,2023.2.3,MacIntel,59.17159763,,,,,,,,,,,5,09,5,3,,,,,,,,,,,,,,,,,,,,,,,,,,,,,
63bd81516745e78ee7f50f7f,TCN,2024-06-11_13h09.55.425,LearnStrategy,2023.2.3,MacIntel,59.17159763,,,,,,,,,,,3,14,5,4,,,,,,,,,,,,,,,,,,,,,,,,,,,,,
63bd81516745e78ee7f50f7f,TCN,2024-06-11_13h09.55.425,LearnStrategy,2023.2.3,MacIntel,59.17159763,,,,,,,,,,,1,01,5,5,,,,,,,,,,,,,,,,,,,,,,,,,,,,,
63bd81516745e78ee7f50f7f,TCN,2024-06-11_13h09.55.425,LearnStrategy,2023.2.3,MacIntel,59.17159763,,,,,,,,,,,2,01,5,6,,,,,,,,,,,,,,,,,,,,,,,,,,,,,
63bd81516745e78ee7f50f7f,TCN,2024-06-11_13h09.55.425,LearnStrategy,2023.2.3,MacIntel,59.17159763,,,,,,,,,,,8,04,5,7,,,,,,,,,,,,,,,,,,,,,,,,,,,,,
63bd81516745e78ee7f50f7f,TCN,2024-06-11_13h09.55.425,LearnStrategy,2023.2.3,MacIntel,59.17159763,,,,,,,,,,,8,10,5,8,,,,,,,,,,,,,,,,,,,,,,,,,,,,,
63bd81516745e78ee7f50f7f,TCN,2024-06-11_13h09.55.425,LearnStrategy,2023.2.3,MacIntel,59.17159763,,,,,,,,,,,2,06,6,1,,,,,,,,,,,,,,,,,,,,,,,,,,,,,
63bd81516745e78ee7f50f7f,TCN,2024-06-11_13h09.55.425,LearnStrategy,2023.2.3,MacIntel,59.17159763,,,,,,,,,,,4,12,6,2,,,,,,,,,,,,,,,,,,,,,,,,,,,,,
63bd81516745e78ee7f50f7f,TCN,2024-06-11_13h09.55.425,LearnStrategy,2023.2.3,MacIntel,59.17159763,,,,,,,,,,,5,08,6,3,,,,,,,,,,,,,,,,,,,,,,,,,,,,,
63bd81516745e78ee7f50f7f,TCN,2024-06-11_13h09.55.425,LearnStrategy,2023.2.3,MacIntel,59.17159763,,,,,,,,,,,3,08,6,4,,,,,,,,,,,,,,,,,,,,,,,,,,,,,
63bd81516745e78ee7f50f7f,TCN,2024-06-11_13h09.55.425,LearnStrategy,2023.2.3,MacIntel,59.17159763,,,,,,,,,,,1,10,6,5,,,,,,,,,,,,,,,,,,,,,,,,,,,,,
63bd81516745e78ee7f50f7f,TCN,2024-06-11_13h09.55.425,LearnStrategy,2023.2.3,MacIntel,59.17159763,,,,,,,,,,,6,12,6,6,,,,,,,,,,,,,,,,,,,,,,,,,,,,,
63bd81516745e78ee7f50f7f,TCN,2024-06-11_13h09.55.425,LearnStrategy,2023.2.3,MacIntel,59.17159763,,,,,,,,,,,6,06,6,7,,,,,,,,,,,,,,,,,,,,,,,,,,,,,
63bd81516745e78ee7f50f7f,TCN,2024-06-11_13h09.55.425,LearnStrategy,2023.2.3,MacIntel,59.17159763,,,,,,,,,,,7,13,6,8,,,,,,,,,,,,,,,,,,,,,,,,,,,,,