participant,condition,date,expName,psychopyVersion,OS,frameRate,block,phase,trial,learn_mouse.x,learn_mouse.y,learn_mouse.leftButton,learn_mouse.midButton,learn_mouse.rightButton,learn_mouse.time,learn_mouse.clicked_name,cat,token,row,col,t_select,cat_mouse_l.x,cat_mouse_l.y,cat_mouse_l.leftButton,cat_mouse_l.midButton,cat_mouse_l.rightButton,cat_mouse_l.time,cat_mouse_l.clicked_name,resp,t_resp,corr,train_trials.thisRepN,train_trials.thisTrialN,train_trials.thisN,train_trials.thisIndex,train_trials.ran,cat_mouse_t.x,cat_mouse_t.y,cat_mouse_t.leftButton,cat_mouse_t.midButton,cat_mouse_t.rightButton,cat_mouse_t.time,cat_mouse_t.clicked_name,test_trials.thisRepN,test_trials.thisTrialN,test_trials.thisN,test_trials.thisIndex,test_trials.ran,Bonus
63c0b8e25159ad47312132ac,SCN,2024-06-25_11h48.40.629,LearnStrategy,2023.2.3,Win32,59.88023952,,,,,,,,,,,,,,,,,,,,,,,,,,,,,,,,,,,,,,,,,,,
63c0b8e25159ad47312132ac,SCN,2024-06-25_11h48.40.629,LearnStrategy,2023.2.3,Win32,59.88023952,1,1,1,-0.37962963,0.247222212,1,0,0,4.7404,Peridotite_13,7,13,5,2,4.74,-0.06759255,-0.246296282,1,0,0,2.5138,Basalt_rect,2,2.514,0,0,0,0,0,1,,,,,,,,,,,,,
63c0b8e25159ad47312132ac,SCN,2024-06-25_11h48.40.629,LearnStrategy,2023.2.3,Win32,59.88023952,1,1,2,0.406481566,0.38148148,1,0,0,3.2186,Obsidian_10,5,10,6,7,3.219,0.404629601,-0.247222265,1,0,0,2.5821,Gabbro_rect,4,2.582,0,1,0,1,0,1,,,,,,,,,,,,,
63c0b8e25159ad47312132ac,SCN,2024-06-25_11h48.40.629,LearnStrategy,2023.2.3,Win32,59.88023952,1,1,3,-0.256481453,0.410185187,1,0,0,4.9033,Gabbro_14,4,14,6,3,4.903,-0.157407407,-0.251851894,1,0,0,5.1068,Basalt_rect,2,5.107,0,2,0,2,0,1,,,,,,,,,,,,,
63c0b8e25159ad47312132ac,SCN,2024-06-25_11h48.40.629,LearnStrategy,2023.2.3,Win32,59.88023952,1,1,4,0.255555541,-0.246296282,1,0,0,3.3484,Pegmatite_06,6,06,2,6,3.348,0.165740755,-0.237037023,1,0,0,1.853,Diorite_rect,3,1.853,0,3,0,3,0,1,,,,,,,,,,,,,
63c0b8e25159ad47312132ac,SCN,2024-06-25_11h48.40.629,LearnStrategy,2023.2.3,Win32,59.88023952,1,1,5,-0.537962949,0.26203703,1,0,0,4.8434,Pegmatite_09,6,09,5,1,4.843,-0.125925912,-0.412962949,1,0,0,2.516,Pegmatite_rect,6,2.516,1,4,0,4,0,1,,,,,,,,,,,,,
63c0b8e25159ad47312132ac,SCN,2024-06-25_11h48.40.629,LearnStrategy,2023.2.3,Win32,59.88023952,1,1,6,-0.377777771,-0.402777778,1,0,0,3.3381,Obsidian_16,5,16,1,2,3.338,-0.378703683,-0.243518547,1,0,0,1.8018,Andesite_rect,1,1.802,0,5,0,5,0,1,,,,,,,,,,,,,
63c0b8e25159ad47312132ac,SCN,2024-06-25_11h48.40.629,LearnStrategy,2023.2.3,Win32,59.88023952,1,1,7,0.557407379,0.113888882,1,0,0,2.282,Pegmatite_13,6,13,4,8,2.282,-0.169444402,-0.248148176,1,0,0,2.8632,Basalt_rect,2,2.863,0,6,0,6,0,1,,,,,,,,,,,,,
63c0b8e25159ad47312132ac,SCN,2024-06-25_11h48.40.629,LearnStrategy,2023.2.3,Win32,59.88023952,1,1,8,-0.066666638,0.086111104,1,0,0,2.4258,Pumice_04,8,04,4,4,2.426,-0.128703718,-0.246296282,1,0,0,2.2104,Basalt_rect,2,2.21,0,7,0,7,0,1,,,,,,,,,,,,,
63c0b8e25159ad47312132ac,SCN,2024-06-25_11h48.40.629,LearnStrategy,2023.2.3,Win32,59.88023952,1,1,9,-0.251851824,0.133333312,1,0,0,2.1226,Diorite_07,3,07,4,3,2.123,-0.118518476,-0.242592635,1,0,0,2.1472,Basalt_rect,2,2.147,0,8,0,8,0,1,,,,,,,,,,,,,
63c0b8e25159ad47312132ac,SCN,2024-06-25_11h48.40.629,LearnStrategy,2023.2.3,Win32,59.88023952,1,1,10,0.397222307,0.218518522,1,0,0,1.9642,Obsidian_07,5,07,5,7,1.964,-0.423148155,-0.388888889,1,0,0,2.1292,Obsidian_rect,5,2.129,1,9,0,9,0,1,,,,,,,,,,,,,
63c0b8e25159ad47312132ac,SCN,2024-06-25_11h48.40.629,LearnStrategy,2023.2.3,Win32,59.88023952,1,1,11,-0.050925926,-0.244444459,1,0,0,3.369,Andesite_07,1,07,2,4,3.369,0.362037094,-0.383333347,1,0,0,3.263,Pumice_rect,8,3.263,0,10,0,10,0,1,,,,,,,,,,,,,
63c0b8e25159ad47312132ac,SCN,2024-06-25_11h48.40.629,LearnStrategy,2023.2.3,Win32,59.88023952,1,1,12,-0.070370356,-0.264814801,1,0,0,2.2185,Andesite_07,1,07,2,4,2.219,0.35555564,-0.386111153,1,0,0,1.5944,Pumice_rect,8,1.594,0,11,0,11,0,1,,,,,,,,,,,,,
63c0b8e25159ad47312132ac,SCN,2024-06-25_11h48.40.629,LearnStrategy,2023.2.3,Win32,59.88023952,1,1,13,0.080555598,-0.085185192,1,0,0,2.1803,Obsidian_09,5,09,3,5,2.18,-0.388888889,-0.39444443,1,0,0,1.5661,Obsidian_rect,5,1.566,1,12,0,12,0,1,,,,,,,,,,,,,
63c0b8e25159ad47312132ac,SCN,2024-06-25_11h48.40.629,LearnStrategy,2023.2.3,Win32,59.88023952,1,1,14,0.384259259,0.430555556,1,0,0,1.5452,Obsidian_10,5,10,6,7,1.545,-0.381481489,-0.412962949,1,0,0,1.4399,Obsidian_rect,5,1.44,1,13,0,13,0,1,,,,,,,,,,,,,
63c0b8e25159ad47312132ac,SCN,2024-06-25_11h48.40.629,LearnStrategy,2023.2.3,Win32,59.88023952,1,1,15,-0.39444443,0.404629628,1,0,0,2.2304,Pegmatite_15,6,15,6,2,2.23,0.12037037,-0.405555584,1,0,0,3.9024,Peridotite_rect,7,3.902,0,14,0,14,0,1,,,,,,,,,,,,,
63c0b8e25159ad47312132ac,SCN,2024-06-25_11h48.40.629,LearnStrategy,2023.2.3,Win32,59.88023952,1,1,16,-0.560185185,-0.275000042,1,0,0,5.8642,Diorite_15,3,15,2,1,5.864,0.08148151,-0.39444443,1,0,0,2.8608,Peridotite_rect,7,2.861,0,15,0,15,0,1,,,,,,,,,,,,,
63c0b8e25159ad47312132ac,SCN,2024-06-25_11h48.40.629,LearnStrategy,2023.2.3,Win32,59.88023952,1,2,1,,,,,,,,8,09,,,,,,,,,,,8,14.603,1,,,,,,0.399999972,-0.412037037,1,0,0,14.6031,Pumice_rect,0,0,0,0,1,
63c0b8e25159ad47312132ac,SCN,2024-06-25_11h48.40.629,LearnStrategy,2023.2.3,Win32,59.88023952,1,2,2,,,,,,,,1,16,,,,,,,,,,,3,5.011,0,,,,,,0.194444444,-0.247222265,1,0,0,5.0106,Diorite_rect,1,0,1,0,1,
63c0b8e25159ad47312132ac,SCN,2024-06-25_11h48.40.629,LearnStrategy,2023.2.3,Win32,59.88023952,1,2,3,,,,,,,,6,10,,,,,,,,,,,6,10.123,1,,,,,,-0.123148106,-0.37962963,1,0,0,10.1227,Pegmatite_rect,2,0,2,0,1,
63c0b8e25159ad47312132ac,SCN,2024-06-25_11h48.40.629,LearnStrategy,2023.2.3,Win32,59.88023952,1,2,4,,,,,,,,2,12,,,,,,,,,,,8,3.943,0,,,,,,0.303703732,-0.404629672,1,0,0,3.9426,Pumice_rect,3,0,3,0,1,
63c0b8e25159ad47312132ac,SCN,2024-06-25_11h48.40.629,LearnStrategy,2023.2.3,Win32,59.88023952,1,2,5,,,,,,,,7,10,,,,,,,,,,,3,4.428,0,,,,,,0.123148176,-0.247222265,1,0,0,4.4281,Diorite_rect,4,0,4,0,1,
63c0b8e25159ad47312132ac,SCN,2024-06-25_11h48.40.629,LearnStrategy,2023.2.3,Win32,59.88023952,1,2,6,,,,,,,,2,14,,,,,,,,,,,6,12.377,0,,,,,,-0.079629616,-0.382407436,1,0,0,12.377,Pegmatite_rect,5,0,5,0,1,
63c0b8e25159ad47312132ac,SCN,2024-06-25_11h48.40.629,LearnStrategy,2023.2.3,Win32,59.88023952,1,2,7,,,,,,,,1,11,,,,,,,,,,,8,3.21,0,,,,,,0.328703704,-0.393518519,1,0,0,3.2104,Pumice_rect,6,0,6,0,1,
63c0b8e25159ad47312132ac,SCN,2024-06-25_11h48.40.629,LearnStrategy,2023.2.3,Win32,59.88023952,1,2,8,,,,,,,,4,11,,,,,,,,,,,3,3.778,0,,,,,,0.138888889,-0.252777806,1,0,0,3.7777,Diorite_rect,7,0,7,0,1,
63c0b8e25159ad47312132ac,SCN,2024-06-25_11h48.40.629,LearnStrategy,2023.2.3,Win32,59.88023952,1,2,9,,,,,,,,8,10,,,,,,,,,,,8,4.071,1,,,,,,0.375925982,-0.400925954,1,0,0,4.0706,Pumice_rect,8,0,8,0,1,
63c0b8e25159ad47312132ac,SCN,2024-06-25_11h48.40.629,LearnStrategy,2023.2.3,Win32,59.88023952,1,2,10,,,,,,,,4,12,,,,,,,,,,,6,7.541,0,,,,,,-0.123148106,-0.40370369,1,0,0,7.541,Pegmatite_rect,9,0,9,0,1,
63c0b8e25159ad47312132ac,SCN,2024-06-25_11h48.40.629,LearnStrategy,2023.2.3,Win32,59.88023952,1,2,11,,,,,,,,5,11,,,,,,,,,,,5,1.94,1,,,,,,-0.360185164,-0.402777778,1,0,0,1.9399,Obsidian_rect,10,0,10,0,1,
63c0b8e25159ad47312132ac,SCN,2024-06-25_11h48.40.629,LearnStrategy,2023.2.3,Win32,59.88023952,1,2,12,,,,,,,,3,02,,,,,,,,,,,3,14.467,1,,,,,,0.087962963,-0.248148176,1,0,0,14.4666,Diorite_rect,11,0,11,0,1,
63c0b8e25159ad47312132ac,SCN,2024-06-25_11h48.40.629,LearnStrategy,2023.2.3,Win32,59.88023952,1,2,13,,,,,,,,7,16,,,,,,,,,,,1,5.916,0,,,,,,-0.35833334,-0.265740783,1,0,0,5.9164,Andesite_rect,12,0,12,0,1,
63c0b8e25159ad47312132ac,SCN,2024-06-25_11h48.40.629,LearnStrategy,2023.2.3,Win32,59.88023952,1,2,14,,,,,,,,3,14,,,,,,,,,,,1,1.412,0,,,,,,-0.35833334,-0.265740783,1,0,0,1.4124,Andesite_rect,13,0,13,0,1,
63c0b8e25159ad47312132ac,SCN,2024-06-25_11h48.40.629,LearnStrategy,2023.2.3,Win32,59.88023952,1,2,15,,,,,,,,5,06,,,,,,,,,,,5,2.381,1,,,,,,-0.375,-0.385185171,1,0,0,2.3815,Obsidian_rect,14,0,14,0,1,
63c0b8e25159ad47312132ac,SCN,2024-06-25_11h48.40.629,LearnStrategy,2023.2.3,Win32,59.88023952,1,2,16,,,,,,,,6,08,,,,,,,,,,,6,5.288,1,,,,,,-0.157407407,-0.416666667,1,0,0,5.2877,Pegmatite_rect,15,0,15,0,1,
63c0b8e25159ad47312132ac,SCN,2024-06-25_11h48.40.629,LearnStrategy,2023.2.3,Win32,59.88023952,2,1,1,0.564814815,0.424074076,1,0,0,5.9397,Pumice_16,8,16,6,8,5.94,-0.127777735,-0.242592635,1,0,0,3.3467,Basalt_rect,2,3.347,0,0,0,0,0,1,,,,,,,,,,,,,
63c0b8e25159ad47312132ac,SCN,2024-06-25_11h48.40.629,LearnStrategy,2023.2.3,Win32,59.88023952,2,1,2,0.387037065,-0.097222222,1,0,0,4.6972,Peridotite_05,7,05,3,7,4.697,-0.199074074,-0.235185199,1,0,0,2.1348,Basalt_rect,2,2.135,0,1,0,1,0,1,,,,,,,,,,,,,
63c0b8e25159ad47312132ac,SCN,2024-06-25_11h48.40.629,LearnStrategy,2023.2.3,Win32,59.88023952,2,1,3,-0.24537037,-0.412037037,1,0,0,5.6508,Basalt_01,2,01,1,3,5.651,-0.435185185,-0.262037065,1,0,0,4.4497,Andesite_rect,1,4.45,0,2,0,2,0,1,,,,,,,,,,,,,
63c0b8e25159ad47312132ac,SCN,2024-06-25_11h48.40.629,LearnStrategy,2023.2.3,Win32,59.88023952,2,1,4,-0.593518522,-0.39444443,1,0,0,5.1488,Andesite_04,1,04,1,1,5.149,-0.099074046,-0.24537037,1,0,0,2.4673,Basalt_rect,2,2.467,0,3,0,3,0,1,,,,,,,,,,,,,
63c0b8e25159ad47312132ac,SCN,2024-06-25_11h48.40.629,LearnStrategy,2023.2.3,Win32,59.88023952,2,1,5,0.038888931,0.235185182,1,0,0,4.0989,Basalt_16,2,16,5,5,4.099,0.104629658,-0.239814829,1,0,0,2.578,Diorite_rect,3,2.578,0,4,0,4,0,1,,,,,,,,,,,,,
63c0b8e25159ad47312132ac,SCN,2024-06-25_11h48.40.629,LearnStrategy,2023.2.3,Win32,59.88023952,2,1,6,-0.349999993,0.081481474,1,0,0,6.3983,Pegmatite_16,6,16,4,2,6.398,0.35555564,-0.249074088,1,0,0,2.4223,Gabbro_rect,4,2.422,0,5,0,5,0,1,,,,,,,,,,,,,
63c0b8e25159ad47312132ac,SCN,2024-06-25_11h48.40.629,LearnStrategy,2023.2.3,Win32,59.88023952,2,1,7,0.092592593,-0.27870369,1,0,0,2.7316,Peridotite_06,7,06,2,5,2.732,-0.116666653,-0.381481524,1,0,0,2.8481,Pegmatite_rect,6,2.848,0,6,0,6,0,1,,,,,,,,,,,,,
63c0b8e25159ad47312132ac,SCN,2024-06-25_11h48.40.629,LearnStrategy,2023.2.3,Win32,59.88023952,2,1,8,-0.537037037,-0.114814829,1,0,0,5.2939,Andesite_10,1,10,3,1,5.294,0.139814801,-0.234259288,1,0,0,10.3487,Diorite_rect,3,10.349,0,7,0,7,0,1,,,,,,,,,,,,,
63c0b8e25159ad47312132ac,SCN,2024-06-25_11h48.40.629,LearnStrategy,2023.2.3,Win32,59.88023952,2,1,9,-0.080555527,-0.09629631,1,0,0,3.8541,Pegmatite_05,6,05,3,4,3.854,0.089814857,-0.412037037,1,0,0,2.2142,Peridotite_rect,7,2.214,0,8,0,8,0,1,,,,,,,,,,,,,
63c0b8e25159ad47312132ac,SCN,2024-06-25_11h48.40.629,LearnStrategy,2023.2.3,Win32,59.88023952,2,1,10,-0.5074074,0.12037037,1,0,0,2.6704,Gabbro_05,4,05,4,1,2.67,-0.373148141,-0.242592635,1,0,0,10.3389,Andesite_rect,1,10.339,0,9,0,9,0,1,,,,,,,,,,,,,
63c0b8e25159ad47312132ac,SCN,2024-06-25_11h48.40.629,LearnStrategy,2023.2.3,Win32,59.88023952,2,1,11,-0.38703703,0.2574074,1,0,0,8.2605,Peridotite_13,7,13,5,2,8.261,0.143518519,-0.398148148,1,0,0,15.4108,Peridotite_rect,7,15.411,1,10,0,10,0,1,,,,,,,,,,,,,
63c0b8e25159ad47312132ac,SCN,2024-06-25_11h48.40.629,LearnStrategy,2023.2.3,Win32,59.88023952,2,1,12,0.234259288,0.269444448,1,0,0,4.238,Basalt_08,2,08,5,6,4.238,-0.089814787,-0.236111111,1,0,0,17.8841,Basalt_rect,2,17.884,1,11,0,11,0,1,,,,,,,,,,,,,
63c0b8e25159ad47312132ac,SCN,2024-06-25_11h48.40.629,LearnStrategy,2023.2.3,Win32,59.88023952,2,1,13,0.399999972,0.094444452,1,0,0,5.0939,Pumice_15,8,15,4,7,5.094,0.416666667,-0.39907406,1,0,0,14.7177,Pumice_rect,8,14.718,1,12,0,12,0,1,,,,,,,,,,,,,
63c0b8e25159ad47312132ac,SCN,2024-06-25_11h48.40.629,LearnStrategy,2023.2.3,Win32,59.88023952,2,1,14,-0.239814829,-0.098148134,1,0,0,4.1937,Andesite_02,1,02,3,3,4.194,-0.112962935,-0.405555584,1,0,0,7.5308,Pegmatite_rect,6,7.531,0,13,0,13,0,1,,,,,,,,,,,,,
63c0b8e25159ad47312132ac,SCN,2024-06-25_11h48.40.629,LearnStrategy,2023.2.3,Win32,59.88023952,2,1,15,-0.52870369,0.388888889,1,0,0,6.1158,Pumice_14,8,14,6,1,6.116,0.109259288,-0.244444459,1,0,0,2.6574,Diorite_rect,3,2.657,0,14,0,14,0,1,,,,,,,,,,,,,
63c0b8e25159ad47312132ac,SCN,2024-06-25_11h48.40.629,LearnStrategy,2023.2.3,Win32,59.88023952,2,1,16,-0.39907406,0.428703701,1,0,0,1.2651,Pegmatite_15,6,15,6,2,1.265,-0.136111083,-0.410185213,1,0,0,9.9284,Pegmatite_rect,6,9.928,1,15,0,15,0,1,,,,,,,,,,,,,
63c0b8e25159ad47312132ac,SCN,2024-06-25_11h48.40.629,LearnStrategy,2023.2.3,Win32,59.88023952,2,2,1,,,,,,,,8,13,,,,,,,,,,,8,3.161,1,,,,,,0.404629601,-0.412037037,1,0,0,3.1611,Pumice_rect,0,0,0,0,1,
63c0b8e25159ad47312132ac,SCN,2024-06-25_11h48.40.629,LearnStrategy,2023.2.3,Win32,59.88023952,2,2,2,,,,,,,,2,09,,,,,,,,,,,2,17.446,1,,,,,,-0.117592564,-0.246296282,1,0,0,17.4461,Basalt_rect,1,0,1,0,1,
63c0b8e25159ad47312132ac,SCN,2024-06-25_11h48.40.629,LearnStrategy,2023.2.3,Win32,59.88023952,2,2,3,,,,,,,,7,08,,,,,,,,,,,7,3.515,1,,,,,,0.071296339,-0.405555584,1,0,0,3.5154,Peridotite_rect,2,0,2,0,1,
63c0b8e25159ad47312132ac,SCN,2024-06-25_11h48.40.629,LearnStrategy,2023.2.3,Win32,59.88023952,2,2,4,,,,,,,,7,02,,,,,,,,,,,3,7.777,0,,,,,,0.086111139,-0.25462963,1,0,0,7.7767,Diorite_rect,3,0,3,0,1,
63c0b8e25159ad47312132ac,SCN,2024-06-25_11h48.40.629,LearnStrategy,2023.2.3,Win32,59.88023952,2,2,5,,,,,,,,2,02,,,,,,,,,,,4,12.473,0,,,,,,0.386111083,-0.265740783,1,0,0,12.4729,Gabbro_rect,4,0,4,0,1,
63c0b8e25159ad47312132ac,SCN,2024-06-25_11h48.40.629,LearnStrategy,2023.2.3,Win32,59.88023952,2,2,6,,,,,,,,5,05,,,,,,,,,,,5,1.986,1,,,,,,-0.37962963,-0.390740783,1,0,0,1.9857,Obsidian_rect,5,0,5,0,1,
63c0b8e25159ad47312132ac,SCN,2024-06-25_11h48.40.629,LearnStrategy,2023.2.3,Win32,59.88023952,2,2,7,,,,,,,,5,04,,,,,,,,,,,5,1.033,1,,,,,,-0.37962963,-0.390740783,1,0,0,1.0334,Obsidian_rect,6,0,6,0,1,
63c0b8e25159ad47312132ac,SCN,2024-06-25_11h48.40.629,LearnStrategy,2023.2.3,Win32,59.88023952,2,2,8,,,,,,,,4,10,,,,,,,,,,,3,18.606,0,,,,,,0.109259288,-0.246296282,1,0,0,18.606,Diorite_rect,7,0,7,0,1,
63c0b8e25159ad47312132ac,SCN,2024-06-25_11h48.40.629,LearnStrategy,2023.2.3,Win32,59.88023952,2,2,9,,,,,,,,8,03,,,,,,,,,,,8,1.627,1,,,,,,0.368518547,-0.398148148,1,0,0,1.6266,Pumice_rect,8,0,8,0,1,
63c0b8e25159ad47312132ac,SCN,2024-06-25_11h48.40.629,LearnStrategy,2023.2.3,Win32,59.88023952,2,2,10,,,,,,,,3,08,,,,,,,,,,,6,10.876,0,,,,,,-0.063888903,-0.404629672,1,0,0,10.8765,Pegmatite_rect,9,0,9,0,1,
63c0b8e25159ad47312132ac,SCN,2024-06-25_11h48.40.629,LearnStrategy,2023.2.3,Win32,59.88023952,2,2,11,,,,,,,,6,07,,,,,,,,,,,6,2.393,1,,,,,,-0.063888903,-0.404629672,1,0,0,2.3925,Pegmatite_rect,10,0,10,0,1,
63c0b8e25159ad47312132ac,SCN,2024-06-25_11h48.40.629,LearnStrategy,2023.2.3,Win32,59.88023952,2,2,12,,,,,,,,4,08,,,,,,,,,,,4,3.567,1,,,,,,0.387963048,-0.262037065,1,0,0,3.5669,Gabbro_rect,11,0,11,0,1,
63c0b8e25159ad47312132ac,SCN,2024-06-25_11h48.40.629,LearnStrategy,2023.2.3,Win32,59.88023952,2,2,13,,,,,,,,3,12,,,,,,,,,,,1,4.456,0,,,,,,-0.37962963,-0.261111153,1,0,0,4.4558,Andesite_rect,12,0,12,0,1,
63c0b8e25159ad47312132ac,SCN,2024-06-25_11h48.40.629,LearnStrategy,2023.2.3,Win32,59.88023952,2,2,14,,,,,,,,1,14,,,,,,,,,,,7,2.84,0,,,,,,0.084259245,-0.397222236,1,0,0,2.8405,Peridotite_rect,13,0,13,0,1,
63c0b8e25159ad47312132ac,SCN,2024-06-25_11h48.40.629,LearnStrategy,2023.2.3,Win32,59.88023952,2,2,15,,,,,,,,1,05,,,,,,,,,,,3,10.803,0,,,,,,0.101851852,-0.240740741,1,0,0,10.8026,Diorite_rect,14,0,14,0,1,
63c0b8e25159ad47312132ac,SCN,2024-06-25_11h48.40.629,LearnStrategy,2023.2.3,Win32,59.88023952,2,2,16,,,,,,,,6,11,,,,,,,,,,,3,6.864,0,,,,,,0.10092594,-0.240740741,1,0,0,6.8643,Diorite_rect,15,0,15,0,1,
63c0b8e25159ad47312132ac,SCN,2024-06-25_11h48.40.629,LearnStrategy,2023.2.3,Win32,59.88023952,3,1,1,-0.537037037,0.414814817,1,0,0,1.6889,Pumice_14,8,14,6,1,1.689,0.37962963,-0.398148148,1,0,0,3.488,Pumice_rect,8,3.488,1,0,0,0,0,1,,,,,,,,,,,,,
63c0b8e25159ad47312132ac,SCN,2024-06-25_11h48.40.629,LearnStrategy,2023.2.3,Win32,59.88023952,3,1,2,-0.397222201,0.402777778,1,0,0,1.4153,Pegmatite_15,6,15,6,2,1.415,0.108333376,-0.261111153,1,0,0,2.8527,Diorite_rect,3,2.853,0,1,0,1,0,1,,,,,,,,,,,,,
63c0b8e25159ad47312132ac,SCN,2024-06-25_11h48.40.629,LearnStrategy,2023.2.3,Win32,59.88023952,3,1,3,-0.246296282,0.43796296,1,0,0,1.5098,Gabbro_14,4,14,6,3,1.51,0.387963048,-0.231481481,1,0,0,2.1873,Gabbro_rect,4,2.187,1,2,0,2,0,1,,,,,,,,,,,,,
63c0b8e25159ad47312132ac,SCN,2024-06-25_11h48.40.629,LearnStrategy,2023.2.3,Win32,59.88023952,3,1,4,-0.069444444,0.418518517,1,0,0,1.472,Peridotite_07,7,07,6,4,1.472,0.132407436,-0.239814829,1,0,0,5.2788,Diorite_rect,3,5.279,0,3,0,3,0,1,,,,,,,,,,,,,
63c0b8e25159ad47312132ac,SCN,2024-06-25_11h48.40.629,LearnStrategy,2023.2.3,Win32,59.88023952,3,1,5,0.043518561,0.400925928,1,0,0,1.4226,Obsidian_02,5,02,6,5,1.423,-0.402777778,-0.398148148,1,0,0,2.4334,Obsidian_rect,5,2.433,1,4,0,4,0,1,,,,,,,,,,,,,
63c0b8e25159ad47312132ac,SCN,2024-06-25_11h48.40.629,LearnStrategy,2023.2.3,Win32,59.88023952,3,1,6,0.276851866,0.408333328,1,0,0,2.8777,Basalt_04,2,04,6,6,2.878,-0.162962949,-0.242592635,1,0,0,2.4302,Basalt_rect,2,2.43,1,5,0,5,0,1,,,,,,,,,,,,,
63c0b8e25159ad47312132ac,SCN,2024-06-25_11h48.40.629,LearnStrategy,2023.2.3,Win32,59.88023952,3,1,7,0.368518547,0.408333328,1,0,0,1.4939,Obsidian_10,5,10,6,7,1.494,-0.410185178,-0.384259259,1,0,0,1.4015,Obsidian_rect,5,1.402,1,6,0,6,0,1,,,,,,,,,,,,,
63c0b8e25159ad47312132ac,SCN,2024-06-25_11h48.40.629,LearnStrategy,2023.2.3,Win32,59.88023952,3,1,8,0.54814812,0.421296296,1,0,0,1.6433,Pumice_16,8,16,6,8,1.643,0.380555612,-0.405555584,1,0,0,2.3121,Pumice_rect,8,2.312,1,7,0,7,0,1,,,,,,,,,,,,,
63c0b8e25159ad47312132ac,SCN,2024-06-25_11h48.40.629,LearnStrategy,2023.2.3,Win32,59.88023952,3,1,9,-0.549074067,0.263888889,1,0,0,1.5683,Pegmatite_09,6,09,5,1,1.568,0.074999986,-0.244444459,1,0,0,3.0776,Diorite_rect,3,3.078,0,8,0,8,0,1,,,,,,,,,,,,,
63c0b8e25159ad47312132ac,SCN,2024-06-25_11h48.40.629,LearnStrategy,2023.2.3,Win32,59.88023952,3,1,10,-0.39907406,0.235185182,1,0,0,1.5637,Peridotite_13,7,13,5,2,1.564,0.079629616,-0.384259259,1,0,0,18.9141,Peridotite_rect,7,18.914,1,9,0,9,0,1,,,,,,,,,,,,,
63c0b8e25159ad47312132ac,SCN,2024-06-25_11h48.40.629,LearnStrategy,2023.2.3,Win32,59.88023952,3,1,11,-0.240740741,0.229629623,1,0,0,1.6747,Pumice_06,8,06,5,3,1.675,0.36018527,-0.396296325,1,0,0,2.0399,Pumice_rect,8,2.04,1,10,0,10,0,1,,,,,,,,,,,,,
63c0b8e25159ad47312132ac,SCN,2024-06-25_11h48.40.629,LearnStrategy,2023.2.3,Win32,59.88023952,3,1,12,-0.083333333,0.260185189,1,0,0,1.9618,Pumice_08,8,08,5,4,1.962,0.404629601,-0.401851866,1,0,0,1.3093,Pumice_rect,8,1.309,1,11,0,11,0,1,,,,,,,,,,,,,
63c0b8e25159ad47312132ac,SCN,2024-06-25_11h48.40.629,LearnStrategy,2023.2.3,Win32,59.88023952,3,1,13,0.067592621,0.26666666,1,0,0,1.7559,Basalt_16,2,16,5,5,1.756,-0.152777778,-0.24537037,1,0,0,1.9829,Basalt_rect,2,1.983,1,12,0,12,0,1,,,,,,,,,,,,,
63c0b8e25159ad47312132ac,SCN,2024-06-25_11h48.40.629,LearnStrategy,2023.2.3,Win32,59.88023952,3,1,14,0.258333347,0.292592596,1,0,0,1.4997,Basalt_08,2,08,5,6,1.5,-0.107407393,-0.242592635,1,0,0,1.6249,Basalt_rect,2,1.625,1,13,0,13,0,1,,,,,,,,,,,,,
63c0b8e25159ad47312132ac,SCN,2024-06-25_11h48.40.629,LearnStrategy,2023.2.3,Win32,59.88023952,3,1,15,0.40370376,0.262962959,1,0,0,1.5172,Obsidian_07,5,07,5,7,1.517,-0.39166666,-0.415740755,1,0,0,1.22,Obsidian_rect,5,1.22,1,14,0,14,0,1,,,,,,,,,,,,,
63c0b8e25159ad47312132ac,SCN,2024-06-25_11h48.40.629,LearnStrategy,2023.2.3,Win32,59.88023952,3,1,16,-0.522222201,0.096296275,1,0,0,2.017,Gabbro_05,4,05,4,1,2.017,0.131481524,-0.249074088,1,0,0,2.2004,Diorite_rect,3,2.2,0,15,0,15,0,1,,,,,,,,,,,,,
63c0b8e25159ad47312132ac,SCN,2024-06-25_11h48.40.629,LearnStrategy,2023.2.3,Win32,59.88023952,3,2,1,,,,,,,,2,06,,,,,,,,,,,2,1.71,1,,,,,,-0.149999972,-0.239814829,1,0,0,1.7099,Basalt_rect,0,0,0,0,1,
63c0b8e25159ad47312132ac,SCN,2024-06-25_11h48.40.629,LearnStrategy,2023.2.3,Win32,59.88023952,3,2,2,,,,,,,,4,09,,,,,,,,,,,1,28.824,0,,,,,,-0.341666645,-0.241666653,1,0,0,28.8242,Andesite_rect,1,0,1,0,1,
63c0b8e25159ad47312132ac,SCN,2024-06-25_11h48.40.629,LearnStrategy,2023.2.3,Win32,59.88023952,3,2,3,,,,,,,,1,03,,,,,,,,,,,4,4.928,0,,,,,,0.371296353,-0.246296282,1,0,0,4.928,Gabbro_rect,2,0,2,0,1,
63c0b8e25159ad47312132ac,SCN,2024-06-25_11h48.40.629,LearnStrategy,2023.2.3,Win32,59.88023952,3,2,4,,,,,,,,3,09,,,,,,,,,,,1,5.077,0,,,,,,-0.364814794,-0.253703718,1,0,0,5.0775,Andesite_rect,3,0,3,0,1,
63c0b8e25159ad47312132ac,SCN,2024-06-25_11h48.40.629,LearnStrategy,2023.2.3,Win32,59.88023952,3,2,5,,,,,,,,6,12,,,,,,,,,,,1,1.247,0,,,,,,-0.35833334,-0.253703718,1,0,0,1.2471,Andesite_rect,4,0,4,0,1,
63c0b8e25159ad47312132ac,SCN,2024-06-25_11h48.40.629,LearnStrategy,2023.2.3,Win32,59.88023952,3,2,6,,,,,,,,5,12,,,,,,,,,,,5,2.243,1,,,,,,-0.395370377,-0.400000042,1,0,0,2.2429,Obsidian_rect,5,0,5,0,1,
63c0b8e25159ad47312132ac,SCN,2024-06-25_11h48.40.629,LearnStrategy,2023.2.3,Win32,59.88023952,3,2,7,,,,,,,,7,04,,,,,,,,,,,1,4.334,0,,,,,,-0.41574072,-0.236111111,1,0,0,4.3337,Andesite_rect,6,0,6,0,1,
63c0b8e25159ad47312132ac,SCN,2024-06-25_11h48.40.629,LearnStrategy,2023.2.3,Win32,59.88023952,3,2,8,,,,,,,,7,14,,,,,,,,,,,7,3.989,1,,,,,,0.088888875,-0.406481496,1,0,0,3.9886,Peridotite_rect,7,0,7,0,1,
63c0b8e25159ad47312132ac,SCN,2024-06-25_11h48.40.629,LearnStrategy,2023.2.3,Win32,59.88023952,3,2,9,,,,,,,,6,03,,,,,,,,,,,6,4.633,1,,,,,,-0.091666681,-0.388888889,1,0,0,4.6333,Pegmatite_rect,8,0,8,0,1,
63c0b8e25159ad47312132ac,SCN,2024-06-25_11h48.40.629,LearnStrategy,2023.2.3,Win32,59.88023952,3,2,10,,,,,,,,1,01,,,,,,,,,,,3,8.397,0,,,,,,0.167592578,-0.271296325,1,0,0,8.3965,Diorite_rect,9,0,9,0,1,
63c0b8e25159ad47312132ac,SCN,2024-06-25_11h48.40.629,LearnStrategy,2023.2.3,Win32,59.88023952,3,2,11,,,,,,,,4,15,,,,,,,,,,,3,3.343,0,,,,,,0.167592578,-0.271296325,1,0,0,3.3434,Diorite_rect,10,0,10,0,1,
63c0b8e25159ad47312132ac,SCN,2024-06-25_11h48.40.629,LearnStrategy,2023.2.3,Win32,59.88023952,3,2,12,,,,,,,,5,14,,,,,,,,,,,5,1.45,1,,,,,,-0.37037037,-0.39907406,1,0,0,1.4499,Obsidian_rect,11,0,11,0,1,
63c0b8e25159ad47312132ac,SCN,2024-06-25_11h48.40.629,LearnStrategy,2023.2.3,Win32,59.88023952,3,2,13,,,,,,,,8,05,,,,,,,,,,,8,1.412,1,,,,,,0.457407492,-0.412037037,1,0,0,1.4117,Pumice_rect,12,0,12,0,1,
63c0b8e25159ad47312132ac,SCN,2024-06-25_11h48.40.629,LearnStrategy,2023.2.3,Win32,59.88023952,3,2,14,,,,,,,,8,02,,,,,,,,,,,8,1.228,1,,,,,,0.457407492,-0.412037037,1,0,0,1.2276,Pumice_rect,13,0,13,0,1,
63c0b8e25159ad47312132ac,SCN,2024-06-25_11h48.40.629,LearnStrategy,2023.2.3,Win32,59.88023952,3,2,15,,,,,,,,2,05,,,,,,,,,,,2,1.519,1,,,,,,-0.112962935,-0.262037065,1,0,0,1.5193,Basalt_rect,14,0,14,0,1,
63c0b8e25159ad47312132ac,SCN,2024-06-25_11h48.40.629,LearnStrategy,2023.2.3,Win32,59.88023952,3,2,16,,,,,,,,3,11,,,,,,,,,,,3,1.925,1,,,,,,0.123148176,-0.24537037,1,0,0,1.9251,Diorite_rect,15,0,15,0,1,
63c0b8e25159ad47312132ac,SCN,2024-06-25_11h48.40.629,LearnStrategy,2023.2.3,Win32,59.88023952,4,1,1,-0.404629637,-0.089814822,1,0,0,3.7778,Diorite_06,3,06,3,2,3.778,0.110185199,-0.229629658,1,0,0,5.3726,Diorite_rect,3,5.373,1,0,0,0,0,1,,,,,,,,,,,,,
63c0b8e25159ad47312132ac,SCN,2024-06-25_11h48.40.629,LearnStrategy,2023.2.3,Win32,59.88023952,4,1,2,-0.074999986,-0.251851894,1,0,0,2.4048,Andesite_07,1,07,2,4,2.405,0.098148134,-0.241666653,1,0,0,1.7923,Diorite_rect,3,1.792,0,1,0,1,0,1,,,,,,,,,,,,,
63c0b8e25159ad47312132ac,SCN,2024-06-25_11h48.40.629,LearnStrategy,2023.2.3,Win32,59.88023952,4,1,3,-0.074074074,-0.409259302,1,0,0,1.8972,Diorite_16,3,16,1,4,1.897,-0.343518504,-0.242592635,1,0,0,1.7598,Andesite_rect,1,1.76,0,2,0,2,0,1,,,,,,,,,,,,,
63c0b8e25159ad47312132ac,SCN,2024-06-25_11h48.40.629,LearnStrategy,2023.2.3,Win32,59.88023952,4,1,4,-0.076851809,-0.222222222,1,0,0,2.1594,Andesite_07,1,07,2,4,2.159,-0.35833334,-0.247222265,1,0,0,2.9179,Andesite_rect,1,2.918,1,3,0,3,0,1,,,,,,,,,,,,,
63c0b8e25159ad47312132ac,SCN,2024-06-25_11h48.40.629,LearnStrategy,2023.2.3,Win32,59.88023952,4,1,5,-0.059259273,-0.409259302,1,0,0,1.5574,Diorite_16,3,16,1,4,1.557,0.095370399,-0.26944443,1,0,0,1.6797,Diorite_rect,3,1.68,1,4,0,4,0,1,,,,,,,,,,,,,
63c0b8e25159ad47312132ac,SCN,2024-06-25_11h48.40.629,LearnStrategy,2023.2.3,Win32,59.88023952,4,1,6,0.070370356,-0.406481496,1,0,0,3.0663,Diorite_10,3,10,1,5,3.066,0.087962963,-0.248148176,1,0,0,1.9997,Diorite_rect,3,2,1,5,0,5,0,1,,,,,,,,,,,,,
63c0b8e25159ad47312132ac,SCN,2024-06-25_11h48.40.629,LearnStrategy,2023.2.3,Win32,59.88023952,4,1,7,-0.055555556,-0.115740741,1,0,0,2.3846,Pegmatite_05,6,05,3,4,2.385,-0.128703718,-0.395370413,1,0,0,1.5751,Pegmatite_rect,6,1.575,1,6,0,6,0,1,,,,,,,,,,,,,
63c0b8e25159ad47312132ac,SCN,2024-06-25_11h48.40.629,LearnStrategy,2023.2.3,Win32,59.88023952,4,1,8,0.074999986,-0.413888931,1,0,0,1.9112,Diorite_10,3,10,1,5,1.911,0.090740769,-0.257407436,1,0,0,1.6727,Diorite_rect,3,1.673,1,7,0,7,0,1,,,,,,,,,,,,,
63c0b8e25159ad47312132ac,SCN,2024-06-25_11h48.40.629,LearnStrategy,2023.2.3,Win32,59.88023952,4,1,9,0.237963005,-0.400925954,1,0,0,1.639,Diorite_13,3,13,1,6,1.639,-0.376851859,-0.261111153,1,0,0,1.5345,Andesite_rect,1,1.534,0,8,0,8,0,1,,,,,,,,,,,,,
63c0b8e25159ad47312132ac,SCN,2024-06-25_11h48.40.629,LearnStrategy,2023.2.3,Win32,59.88023952,4,1,10,-0.548148155,-0.235185199,1,0,0,6.1465,Diorite_15,3,15,2,1,6.147,-0.418518526,-0.253703718,1,0,0,1.6481,Andesite_rect,1,1.648,0,9,0,9,0,1,,,,,,,,,,,,,
63c0b8e25159ad47312132ac,SCN,2024-06-25_11h48.40.629,LearnStrategy,2023.2.3,Win32,59.88023952,4,1,11,-0.046296296,-0.242592635,1,0,0,1.5313,Andesite_07,1,07,2,4,1.531,-0.39166666,-0.239814829,1,0,0,2.3032,Andesite_rect,1,2.303,1,10,0,10,0,1,,,,,,,,,,,,,
63c0b8e25159ad47312132ac,SCN,2024-06-25_11h48.40.629,LearnStrategy,2023.2.3,Win32,59.88023952,4,1,12,0.061111097,0.074074074,1,0,0,2.2771,Gabbro_01,4,01,4,5,2.277,0.371296353,-0.240740741,1,0,0,2.7158,Gabbro_rect,4,2.716,1,11,0,11,0,1,,,,,,,,,,,,,
63c0b8e25159ad47312132ac,SCN,2024-06-25_11h48.40.629,LearnStrategy,2023.2.3,Win32,59.88023952,4,1,13,0.068518533,0.2574074,1,0,0,1.9555,Basalt_16,2,16,5,5,1.956,-0.139814801,-0.248148176,1,0,0,2.1846,Basalt_rect,2,2.185,1,12,0,12,0,1,,,,,,,,,,,,,
63c0b8e25159ad47312132ac,SCN,2024-06-25_11h48.40.629,LearnStrategy,2023.2.3,Win32,59.88023952,4,1,14,0.53333339,0.077777757,1,0,0,2.6146,Pegmatite_13,6,13,4,8,2.615,-0.182407379,-0.396296325,1,0,0,1.3574,Pegmatite_rect,6,1.357,1,13,0,13,0,1,,,,,,,,,,,,,
63c0b8e25159ad47312132ac,SCN,2024-06-25_11h48.40.629,LearnStrategy,2023.2.3,Win32,59.88023952,4,1,15,0.582407492,-0.420370384,1,0,0,2.4325,Andesite_09,1,09,1,8,2.433,0.131481524,-0.241666653,1,0,0,1.3436,Diorite_rect,3,1.344,0,14,0,14,0,1,,,,,,,,,,,,,
63c0b8e25159ad47312132ac,SCN,2024-06-25_11h48.40.629,LearnStrategy,2023.2.3,Win32,59.88023952,4,1,16,-0.062962921,-0.443518533,1,0,0,1.32,Diorite_16,3,16,1,4,1.32,0.09629631,-0.258333347,1,0,0,1.9735,Diorite_rect,3,1.974,1,15,0,15,0,1,,,,,,,,,,,,,
63c0b8e25159ad47312132ac,SCN,2024-06-25_11h48.40.629,LearnStrategy,2023.2.3,Win32,59.88023952,4,2,1,,,,,,,,6,10,,,,,,,,,,,6,2.129,1,,,,,,-0.125,-0.387037065,1,0,0,2.1288,Pegmatite_rect,0,0,0,0,1,
63c0b8e25159ad47312132ac,SCN,2024-06-25_11h48.40.629,LearnStrategy,2023.2.3,Win32,59.88023952,4,2,2,,,,,,,,2,14,,,,,,,,,,,8,4.169,0,,,,,,0.387037065,-0.392592607,1,0,0,4.1695,Pumice_rect,1,0,1,0,1,
63c0b8e25159ad47312132ac,SCN,2024-06-25_11h48.40.629,LearnStrategy,2023.2.3,Win32,59.88023952,4,2,3,,,,,,,,5,12,,,,,,,,,,,5,2.041,1,,,,,,-0.431481467,-0.411111125,1,0,0,2.041,Obsidian_rect,2,0,2,0,1,
63c0b8e25159ad47312132ac,SCN,2024-06-25_11h48.40.629,LearnStrategy,2023.2.3,Win32,59.88023952,4,2,4,,,,,,,,8,05,,,,,,,,,,,8,1.613,1,,,,,,0.455555527,-0.412037037,1,0,0,1.6127,Pumice_rect,3,0,3,0,1,
63c0b8e25159ad47312132ac,SCN,2024-06-25_11h48.40.629,LearnStrategy,2023.2.3,Win32,59.88023952,4,2,5,,,,,,,,7,10,,,,,,,,,,,7,3.295,1,,,,,,0.116666653,-0.409259302,1,0,0,3.295,Peridotite_rect,4,0,4,0,1,
63c0b8e25159ad47312132ac,SCN,2024-06-25_11h48.40.629,LearnStrategy,2023.2.3,Win32,59.88023952,4,2,6,,,,,,,,4,11,,,,,,,,,,,4,4.515,1,,,,,,0.425925926,-0.236111111,1,0,0,4.5148,Gabbro_rect,5,0,5,0,1,
63c0b8e25159ad47312132ac,SCN,2024-06-25_11h48.40.629,LearnStrategy,2023.2.3,Win32,59.88023952,4,2,7,,,,,,,,3,11,,,,,,,,,,,3,5.563,1,,,,,,0.097222222,-0.239814829,1,0,0,5.563,Diorite_rect,6,0,6,0,1,
63c0b8e25159ad47312132ac,SCN,2024-06-25_11h48.40.629,LearnStrategy,2023.2.3,Win32,59.88023952,4,2,8,,,,,,,,3,14,,,,,,,,,,,1,2.765,0,,,,,,-0.38703703,-0.244444459,1,0,0,2.7653,Andesite_rect,7,0,7,0,1,
63c0b8e25159ad47312132ac,SCN,2024-06-25_11h48.40.629,LearnStrategy,2023.2.3,Win32,59.88023952,4,2,9,,,,,,,,4,09,,,,,,,,,,,5,6.305,0,,,,,,-0.373148141,-0.39444443,1,0,0,6.3047,Obsidian_rect,8,0,8,0,1,
63c0b8e25159ad47312132ac,SCN,2024-06-25_11h48.40.629,LearnStrategy,2023.2.3,Win32,59.88023952,4,2,10,,,,,,,,5,06,,,,,,,,,,,5,1.347,1,,,,,,-0.410185178,-0.393518519,1,0,0,1.3465,Obsidian_rect,9,0,9,0,1,
63c0b8e25159ad47312132ac,SCN,2024-06-25_11h48.40.629,LearnStrategy,2023.2.3,Win32,59.88023952,4,2,11,,,,,,,,7,08,,,,,,,,,,,3,2.527,0,,,,,,0.116666653,-0.250925912,1,0,0,2.5272,Diorite_rect,10,0,10,0,1,
63c0b8e25159ad47312132ac,SCN,2024-06-25_11h48.40.629,LearnStrategy,2023.2.3,Win32,59.88023952,4,2,12,,,,,,,,1,03,,,,,,,,,,,1,1.963,1,,,,,,-0.345370363,-0.261111153,1,0,0,1.9627,Andesite_rect,11,0,11,0,1,
63c0b8e25159ad47312132ac,SCN,2024-06-25_11h48.40.629,LearnStrategy,2023.2.3,Win32,59.88023952,4,2,13,,,,,,,,1,05,,,,,,,,,,,1,1.359,1,,,,,,-0.345370363,-0.261111153,1,0,0,1.3587,Andesite_rect,12,0,12,0,1,
63c0b8e25159ad47312132ac,SCN,2024-06-25_11h48.40.629,LearnStrategy,2023.2.3,Win32,59.88023952,4,2,14,,,,,,,,8,03,,,,,,,,,,,8,1.511,1,,,,,,0.433333362,-0.386111153,1,0,0,1.5107,Pumice_rect,13,0,13,0,1,
63c0b8e25159ad47312132ac,SCN,2024-06-25_11h48.40.629,LearnStrategy,2023.2.3,Win32,59.88023952,4,2,15,,,,,,,,6,03,,,,,,,,,,,6,1.716,1,,,,,,-0.076851809,-0.390740783,1,0,0,1.7157,Pegmatite_rect,14,0,14,0,1,
63c0b8e25159ad47312132ac,SCN,2024-06-25_11h48.40.629,LearnStrategy,2023.2.3,Win32,59.88023952,4,2,16,,,,,,,,2,06,,,,,,,,,,,2,2.373,1,,,,,,-0.102777764,-0.247222265,1,0,0,2.3729,Basalt_rect,15,0,15,0,1,
63c0b8e25159ad47312132ac,SCN,2024-06-25_11h48.40.629,LearnStrategy,2023.2.3,Win32,59.88023952,5,1,1,-0.05277775,-0.099074116,1,0,0,1.6545,Pegmatite_05,6,05,3,4,1.655,-0.12037037,-0.390740783,1,0,0,1.4501,Pegmatite_rect,6,1.45,1,0,0,0,0,1,,,,,,,,,,,,,
63c0b8e25159ad47312132ac,SCN,2024-06-25_11h48.40.629,LearnStrategy,2023.2.3,Win32,59.88023952,5,1,2,0.211111139,-0.08425928,1,0,0,1.9933,Peridotite_15,7,15,3,6,1.993,0.104629658,-0.400925954,1,0,0,1.4628,Peridotite_rect,7,1.463,1,1,0,1,0,1,,,,,,,,,,,,,
63c0b8e25159ad47312132ac,SCN,2024-06-25_11h48.40.629,LearnStrategy,2023.2.3,Win32,59.88023952,5,1,3,-0.39444443,-0.08888891,1,0,0,2.897,Diorite_06,3,06,3,2,2.897,-0.41574072,-0.249074088,1,0,0,2.195,Andesite_rect,1,2.195,0,2,0,2,0,1,,,,,,,,,,,,,
63c0b8e25159ad47312132ac,SCN,2024-06-25_11h48.40.629,LearnStrategy,2023.2.3,Win32,59.88023952,5,1,4,-0.054629644,-0.095370399,1,0,0,1.6122,Pegmatite_05,6,05,3,4,1.612,-0.109259217,-0.413888931,1,0,0,1.2495,Pegmatite_rect,6,1.25,1,3,0,3,0,1,,,,,,,,,,,,,
63c0b8e25159ad47312132ac,SCN,2024-06-25_11h48.40.629,LearnStrategy,2023.2.3,Win32,59.88023952,5,1,5,-0.410185178,0.282407407,1,0,0,1.8194,Peridotite_13,7,13,5,2,1.819,0.111111111,-0.383333347,1,0,0,1.7097,Peridotite_rect,7,1.71,1,4,0,4,0,1,,,,,,,,,,,,,
63c0b8e25159ad47312132ac,SCN,2024-06-25_11h48.40.629,LearnStrategy,2023.2.3,Win32,59.88023952,5,1,6,-0.511111118,0.119444423,1,0,0,2.5709,Gabbro_05,4,05,4,1,2.571,0.127777806,-0.406481496,1,0,0,1.6276,Peridotite_rect,7,1.628,0,5,0,5,0,1,,,,,,,,,,,,,
63c0b8e25159ad47312132ac,SCN,2024-06-25_11h48.40.629,LearnStrategy,2023.2.3,Win32,59.88023952,5,1,7,0.530555584,0.099999993,1,0,0,1.6624,Pegmatite_13,6,13,4,8,1.662,-0.151851866,-0.415740755,1,0,0,1.3262,Pegmatite_rect,6,1.326,1,6,0,6,0,1,,,,,,,,,,,,,
63c0b8e25159ad47312132ac,SCN,2024-06-25_11h48.40.629,LearnStrategy,2023.2.3,Win32,59.88023952,5,1,8,0.564814815,0.235185182,1,0,0,3.4053,Basalt_10,2,10,5,8,3.405,-0.142592607,-0.25462963,1,0,0,2.7742,Basalt_rect,2,2.774,1,7,0,7,0,1,,,,,,,,,,,,,
63c0b8e25159ad47312132ac,SCN,2024-06-25_11h48.40.629,LearnStrategy,2023.2.3,Win32,59.88023952,5,1,9,-0.560185185,0.235185182,1,0,0,5.1944,Pegmatite_09,6,09,5,1,5.194,-0.142592607,-0.401851866,1,0,0,2.3495,Pegmatite_rect,6,2.35,1,8,0,8,0,1,,,,,,,,,,,,,
63c0b8e25159ad47312132ac,SCN,2024-06-25_11h48.40.629,LearnStrategy,2023.2.3,Win32,59.88023952,5,1,10,-0.237962935,-0.123148176,1,0,0,8.2774,Andesite_02,1,02,3,3,8.277,-0.121296282,-0.391666695,1,0,0,4.829,Pegmatite_rect,6,4.829,0,9,0,9,0,1,,,,,,,,,,,,,
63c0b8e25159ad47312132ac,SCN,2024-06-25_11h48.40.629,LearnStrategy,2023.2.3,Win32,59.88023952,5,1,11,-0.558333326,-0.250925912,1,0,0,3.1413,Diorite_15,3,15,2,1,3.141,-0.443518497,-0.251851894,1,0,0,2.0652,Andesite_rect,1,2.065,0,10,0,10,0,1,,,,,,,,,,,,,
63c0b8e25159ad47312132ac,SCN,2024-06-25_11h48.40.629,LearnStrategy,2023.2.3,Win32,59.88023952,5,1,12,0.094444487,-0.444444444,1,0,0,2.2182,Diorite_10,3,10,1,5,2.218,0.108333376,-0.232407393,1,0,0,1.4322,Diorite_rect,3,1.432,1,11,0,11,0,1,,,,,,,,,,,,,
63c0b8e25159ad47312132ac,SCN,2024-06-25_11h48.40.629,LearnStrategy,2023.2.3,Win32,59.88023952,5,1,13,0.24537037,0.086111104,1,0,0,1.7847,Gabbro_03,4,03,4,6,1.785,0.348148205,-0.238888917,1,0,0,2.5534,Gabbro_rect,4,2.553,1,12,0,12,0,1,,,,,,,,,,,,,
63c0b8e25159ad47312132ac,SCN,2024-06-25_11h48.40.629,LearnStrategy,2023.2.3,Win32,59.88023952,5,1,14,0.250925912,-0.260185171,1,0,0,2.9526,Pegmatite_06,6,06,2,6,2.953,-0.155555513,-0.40370369,1,0,0,2.6965,Pegmatite_rect,6,2.696,1,13,0,13,0,1,,,,,,,,,,,,,
63c0b8e25159ad47312132ac,SCN,2024-06-25_11h48.40.629,LearnStrategy,2023.2.3,Win32,59.88023952,5,1,15,0.192592621,-0.425925926,1,0,0,1.913,Diorite_13,3,13,1,6,1.913,0.098148134,-0.236111111,1,0,0,2.2483,Diorite_rect,3,2.248,1,14,0,14,0,1,,,,,,,,,,,,,
63c0b8e25159ad47312132ac,SCN,2024-06-25_11h48.40.629,LearnStrategy,2023.2.3,Win32,59.88023952,5,1,16,-0.058333291,-0.418518561,1,0,0,2.7651,Diorite_16,3,16,1,4,2.765,0.087962963,-0.24537037,1,0,0,2.6042,Diorite_rect,3,2.604,1,15,0,15,0,1,,,,,,,,,,,,,
63c0b8e25159ad47312132ac,SCN,2024-06-25_11h48.40.629,LearnStrategy,2023.2.3,Win32,59.88023952,5,2,1,,,,,,,,4,08,,,,,,,,,,,4,2.505,1,,,,,,0.383333418,-0.250925912,1,0,0,2.5051,Gabbro_rect,0,0,0,0,1,
63c0b8e25159ad47312132ac,SCN,2024-06-25_11h48.40.629,LearnStrategy,2023.2.3,Win32,59.88023952,5,2,2,,,,,,,,6,12,,,,,,,,,,,1,20.128,0,,,,,,-0.38703703,-0.25,1,0,0,20.1284,Andesite_rect,1,0,1,0,1,
63c0b8e25159ad47312132ac,SCN,2024-06-25_11h48.40.629,LearnStrategy,2023.2.3,Win32,59.88023952,5,2,3,,,,,,,,7,02,,,,,,,,,,,7,1.735,1,,,,,,0.114814829,-0.393518519,1,0,0,1.735,Peridotite_rect,2,0,2,0,1,
63c0b8e25159ad47312132ac,SCN,2024-06-25_11h48.40.629,LearnStrategy,2023.2.3,Win32,59.88023952,5,2,4,,,,,,,,1,01,,,,,,,,,,,3,3.546,0,,,,,,0.087037051,-0.256481524,1,0,0,3.5461,Diorite_rect,3,0,3,0,1,
63c0b8e25159ad47312132ac,SCN,2024-06-25_11h48.40.629,LearnStrategy,2023.2.3,Win32,59.88023952,5,2,5,,,,,,,,6,11,,,,,,,,,,,6,1.447,1,,,,,,-0.108333305,-0.410185213,1,0,0,1.4469,Pegmatite_rect,4,0,4,0,1,
63c0b8e25159ad47312132ac,SCN,2024-06-25_11h48.40.629,LearnStrategy,2023.2.3,Win32,59.88023952,5,2,6,,,,,,,,3,12,,,,,,,,,,,1,4.243,0,,,,,,-0.381481489,-0.233333376,1,0,0,4.243,Andesite_rect,5,0,5,0,1,
63c0b8e25159ad47312132ac,SCN,2024-06-25_11h48.40.629,LearnStrategy,2023.2.3,Win32,59.88023952,5,2,7,,,,,,,,8,02,,,,,,,,,,,8,1.966,1,,,,,,0.412037037,-0.420370384,1,0,0,1.9663,Pumice_rect,6,0,6,0,1,
63c0b8e25159ad47312132ac,SCN,2024-06-25_11h48.40.629,LearnStrategy,2023.2.3,Win32,59.88023952,5,2,8,,,,,,,,4,12,,,,,,,,,,,4,2.72,1,,,,,,0.37962963,-0.256481524,1,0,0,2.7202,Gabbro_rect,7,0,7,0,1,
63c0b8e25159ad47312132ac,SCN,2024-06-25_11h48.40.629,LearnStrategy,2023.2.3,Win32,59.88023952,5,2,9,,,,,,,,2,09,,,,,,,,,,,2,1.675,1,,,,,,-0.131481453,-0.234259288,1,0,0,1.6752,Basalt_rect,8,0,8,0,1,
63c0b8e25159ad47312132ac,SCN,2024-06-25_11h48.40.629,LearnStrategy,2023.2.3,Win32,59.88023952,5,2,10,,,,,,,,5,11,,,,,,,,,,,5,2.445,1,,,,,,-0.424999979,-0.396296325,1,0,0,2.4455,Obsidian_rect,9,0,9,0,1,
63c0b8e25159ad47312132ac,SCN,2024-06-25_11h48.40.629,LearnStrategy,2023.2.3,Win32,59.88023952,5,2,11,,,,,,,,8,13,,,,,,,,,,,8,1.625,1,,,,,,0.411111196,-0.39444443,1,0,0,1.6247,Pumice_rect,10,0,10,0,1,
63c0b8e25159ad47312132ac,SCN,2024-06-25_11h48.40.629,LearnStrategy,2023.2.3,Win32,59.88023952,5,2,12,,,,,,,,2,02,,,,,,,,,,,4,2.309,0,,,,,,0.382407436,-0.255555541,1,0,0,2.3088,Gabbro_rect,11,0,11,0,1,
63c0b8e25159ad47312132ac,SCN,2024-06-25_11h48.40.629,LearnStrategy,2023.2.3,Win32,59.88023952,5,2,13,,,,,,,,7,16,,,,,,,,,,,7,4.728,1,,,,,,0.137962977,-0.39444443,1,0,0,4.7283,Peridotite_rect,12,0,12,0,1,
63c0b8e25159ad47312132ac,SCN,2024-06-25_11h48.40.629,LearnStrategy,2023.2.3,Win32,59.88023952,5,2,14,,,,,,,,3,08,,,,,,,,,,,1,2.799,0,,,,,,-0.417592578,-0.247222265,1,0,0,2.7987,Andesite_rect,13,0,13,0,1,
63c0b8e25159ad47312132ac,SCN,2024-06-25_11h48.40.629,LearnStrategy,2023.2.3,Win32,59.88023952,5,2,15,,,,,,,,1,11,,,,,,,,,,,7,4.771,0,,,,,,0.073148162,-0.395370413,1,0,0,4.7707,Peridotite_rect,14,0,14,0,1,
63c0b8e25159ad47312132ac,SCN,2024-06-25_11h48.40.629,LearnStrategy,2023.2.3,Win32,59.88023952,5,2,16,,,,,,,,5,05,,,,,,,,,,,5,1.473,1,,,,,,-0.407407407,-0.388888889,1,0,0,1.4733,Obsidian_rect,15,0,15,0,1,
63c0b8e25159ad47312132ac,SCN,2024-06-25_11h48.40.629,LearnStrategy,2023.2.3,Win32,59.88023952,6,1,1,-0.365740741,0.078703704,1,0,0,4.8354,Pegmatite_16,6,16,4,2,4.835,-0.19259255,-0.387037065,1,0,0,1.5966,Pegmatite_rect,6,1.597,1,0,0,0,0,1,,,,,,,,,,,,,
63c0b8e25159ad47312132ac,SCN,2024-06-25_11h48.40.629,LearnStrategy,2023.2.3,Win32,59.88023952,6,1,2,0.062037079,0.087037016,1,0,0,1.6861,Gabbro_01,4,01,4,5,1.686,-0.381481489,-0.238888917,1,0,0,2.3704,Andesite_rect,1,2.37,0,1,0,1,0,1,,,,,,,,,,,,,
63c0b8e25159ad47312132ac,SCN,2024-06-25_11h48.40.629,LearnStrategy,2023.2.3,Win32,59.88023952,6,1,3,-0.092592593,0.452777779,1,0,0,3.296,Peridotite_07,7,07,6,4,3.296,0.102777764,-0.385185171,1,0,0,1.7331,Peridotite_rect,7,1.733,1,2,0,2,0,1,,,,,,,,,,,,,
63c0b8e25159ad47312132ac,SCN,2024-06-25_11h48.40.629,LearnStrategy,2023.2.3,Win32,59.88023952,6,1,4,-0.223148134,0.414814817,1,0,0,2.1603,Gabbro_14,4,14,6,3,2.16,-0.373148141,-0.242592635,1,0,0,8.2382,Andesite_rect,1,8.238,0,3,0,3,0,1,,,,,,,,,,,,,
63c0b8e25159ad47312132ac,SCN,2024-06-25_11h48.40.629,LearnStrategy,2023.2.3,Win32,59.88023952,6,1,5,-0.224074046,0.125,1,0,0,4.8955,Diorite_07,3,07,4,3,4.895,-0.412962949,-0.235185199,1,0,0,2.0126,Andesite_rect,1,2.013,0,4,0,4,0,1,,,,,,,,,,,,,
63c0b8e25159ad47312132ac,SCN,2024-06-25_11h48.40.629,LearnStrategy,2023.2.3,Win32,59.88023952,6,1,6,-0.088888875,-0.24537037,1,0,0,1.6283,Andesite_07,1,07,2,4,1.628,-0.384259259,-0.247222265,1,0,0,1.0963,Andesite_rect,1,1.096,1,5,0,5,0,1,,,,,,,,,,,,,
63c0b8e25159ad47312132ac,SCN,2024-06-25_11h48.40.629,LearnStrategy,2023.2.3,Win32,59.88023952,6,1,7,-0.068518533,-0.426851838,1,0,0,1.9273,Diorite_16,3,16,1,4,1.927,0.125,-0.255555541,1,0,0,3.4964,Diorite_rect,3,3.496,1,6,0,6,0,1,,,,,,,,,,,,,
63c0b8e25159ad47312132ac,SCN,2024-06-25_11h48.40.629,LearnStrategy,2023.2.3,Win32,59.88023952,6,1,8,-0.392592571,-0.290740755,1,0,0,1.6304,Andesite_06,1,06,2,2,1.63,0.059259273,-0.242592635,1,0,0,2.4514,Diorite_rect,3,2.451,0,7,0,7,0,1,,,,,,,,,,,,,
63c0b8e25159ad47312132ac,SCN,2024-06-25_11h48.40.629,LearnStrategy,2023.2.3,Win32,59.88023952,6,1,9,-0.237962935,0.079629616,1,0,0,6.245,Diorite_07,3,07,4,3,6.245,0.100000028,-0.238888917,1,0,0,2.0009,Diorite_rect,3,2.001,1,8,0,8,0,1,,,,,,,,,,,,,
63c0b8e25159ad47312132ac,SCN,2024-06-25_11h48.40.629,LearnStrategy,2023.2.3,Win32,59.88023952,6,1,10,0.243518547,0.10833334,1,0,0,2.0085,Gabbro_03,4,03,4,6,2.008,0.357407464,-0.239814829,1,0,0,1.8693,Gabbro_rect,4,1.869,1,9,0,9,0,1,,,,,,,,,,,,,
63c0b8e25159ad47312132ac,SCN,2024-06-25_11h48.40.629,LearnStrategy,2023.2.3,Win32,59.88023952,6,1,11,-0.372222229,0.238888882,1,0,0,3.7777,Peridotite_13,7,13,5,2,3.778,0.117592635,-0.392592607,1,0,0,1.159,Peridotite_rect,7,1.159,1,10,0,10,0,1,,,,,,,,,,,,,
63c0b8e25159ad47312132ac,SCN,2024-06-25_11h48.40.629,LearnStrategy,2023.2.3,Win32,59.88023952,6,1,12,0.126851894,0.231481481,1,0,0,3.6448,Basalt_16,2,16,5,5,3.645,-0.101851852,-0.238888917,1,0,0,1.7141,Basalt_rect,2,1.714,1,11,0,11,0,1,,,,,,,,,,,,,
63c0b8e25159ad47312132ac,SCN,2024-06-25_11h48.40.629,LearnStrategy,2023.2.3,Win32,59.88023952,6,1,13,0.536111196,0.26203703,1,0,0,3.6138,Basalt_10,2,10,5,8,3.614,0.362037094,-0.24537037,1,0,0,2.7498,Gabbro_rect,4,2.75,0,12,0,12,0,1,,,,,,,,,,,,,
63c0b8e25159ad47312132ac,SCN,2024-06-25_11h48.40.629,LearnStrategy,2023.2.3,Win32,59.88023952,6,1,14,0.433333362,-0.260185171,1,0,0,3.2294,Basalt_11,2,11,2,7,3.229,0.386111083,-0.259259259,1,0,0,3.4611,Gabbro_rect,4,3.461,0,13,0,13,0,1,,,,,,,,,,,,,
63c0b8e25159ad47312132ac,SCN,2024-06-25_11h48.40.629,LearnStrategy,2023.2.3,Win32,59.88023952,6,1,15,-0.217592593,-0.25462963,1,0,0,2.4002,Peridotite_12,7,12,2,3,2.4,0.094444487,-0.396296325,1,0,0,1.4367,Peridotite_rect,7,1.437,1,14,0,14,0,1,,,,,,,,,,,,,
63c0b8e25159ad47312132ac,SCN,2024-06-25_11h48.40.629,LearnStrategy,2023.2.3,Win32,59.88023952,6,1,16,-0.057407379,-0.419444473,1,0,0,2.2516,Diorite_16,3,16,1,4,2.252,-0.337962963,-0.241666653,1,0,0,1.309,Andesite_rect,1,1.309,0,15,0,15,0,1,,,,,,,,,,,,,
63c0b8e25159ad47312132ac,SCN,2024-06-25_11h48.40.629,LearnStrategy,2023.2.3,Win32,59.88023952,6,2,1,,,,,,,,2,12,,,,,,,,,,,8,2.352,0,,,,,,0.36018527,-0.39907406,1,0,0,2.3522,Pumice_rect,0,0,0,0,1,
63c0b8e25159ad47312132ac,SCN,2024-06-25_11h48.40.629,LearnStrategy,2023.2.3,Win32,59.88023952,6,2,2,,,,,,,,6,08,,,,,,,,,,,6,1.898,1,,,,,,-0.130555541,-0.391666695,1,0,0,1.8983,Pegmatite_rect,1,0,1,0,1,
63c0b8e25159ad47312132ac,SCN,2024-06-25_11h48.40.629,LearnStrategy,2023.2.3,Win32,59.88023952,6,2,3,,,,,,,,8,09,,,,,,,,,,,8,1.572,1,,,,,,0.371296353,-0.39907406,1,0,0,1.5715,Pumice_rect,2,0,2,0,1,
63c0b8e25159ad47312132ac,SCN,2024-06-25_11h48.40.629,LearnStrategy,2023.2.3,Win32,59.88023952,6,2,4,,,,,,,,5,14,,,,,,,,,,,5,1.468,1,,,,,,-0.349999993,-0.407407407,1,0,0,1.4676,Obsidian_rect,3,0,3,0,1,
63c0b8e25159ad47312132ac,SCN,2024-06-25_11h48.40.629,LearnStrategy,2023.2.3,Win32,59.88023952,6,2,5,,,,,,,,7,14,,,,,,,,,,,7,1.577,1,,,,,,0.110185199,-0.391666695,1,0,0,1.5772,Peridotite_rect,4,0,4,0,1,
63c0b8e25159ad47312132ac,SCN,2024-06-25_11h48.40.629,LearnStrategy,2023.2.3,Win32,59.88023952,6,2,6,,,,,,,,5,04,,,,,,,,,,,5,2.017,1,,,,,,-0.38703703,-0.387037065,1,0,0,2.0173,Obsidian_rect,5,0,5,0,1,
63c0b8e25159ad47312132ac,SCN,2024-06-25_11h48.40.629,LearnStrategy,2023.2.3,Win32,59.88023952,6,2,7,,,,,,,,1,16,,,,,,,,,,,1,2.257,1,,,,,,-0.39907406,-0.248148176,1,0,0,2.2575,Andesite_rect,6,0,6,0,1,
63c0b8e25159ad47312132ac,SCN,2024-06-25_11h48.40.629,LearnStrategy,2023.2.3,Win32,59.88023952,6,2,8,,,,,,,,4,15,,,,,,,,,,,1,2.23,0,,,,,,-0.341666645,-0.23055557,1,0,0,2.2301,Andesite_rect,7,0,7,0,1,
63c0b8e25159ad47312132ac,SCN,2024-06-25_11h48.40.629,LearnStrategy,2023.2.3,Win32,59.88023952,6,2,9,,,,,,,,3,02,,,,,,,,,,,3,1.977,1,,,,,,0.121296282,-0.251851894,1,0,0,1.977,Diorite_rect,8,0,8,0,1,
63c0b8e25159ad47312132ac,SCN,2024-06-25_11h48.40.629,LearnStrategy,2023.2.3,Win32,59.88023952,6,2,10,,,,,,,,7,04,,,,,,,,,,,3,2.071,0,,,,,,0.121296282,-0.251851894,1,0,0,2.0707,Diorite_rect,9,0,9,0,1,
63c0b8e25159ad47312132ac,SCN,2024-06-25_11h48.40.629,LearnStrategy,2023.2.3,Win32,59.88023952,6,2,11,,,,,,,,1,14,,,,,,,,,,,3,1.573,0,,,,,,0.121296282,-0.251851894,1,0,0,1.573,Diorite_rect,10,0,10,0,1,
63c0b8e25159ad47312132ac,SCN,2024-06-25_11h48.40.629,LearnStrategy,2023.2.3,Win32,59.88023952,6,2,12,,,,,,,,8,10,,,,,,,,,,,8,1.701,1,,,,,,0.353703675,-0.407407407,1,0,0,1.7009,Pumice_rect,11,0,11,0,1,
63c0b8e25159ad47312132ac,SCN,2024-06-25_11h48.40.629,LearnStrategy,2023.2.3,Win32,59.88023952,6,2,13,,,,,,,,3,09,,,,,,,,,,,3,1.968,1,,,,,,0.114814829,-0.25,1,0,0,1.9678,Diorite_rect,12,0,12,0,1,
63c0b8e25159ad47312132ac,SCN,2024-06-25_11h48.40.629,LearnStrategy,2023.2.3,Win32,59.88023952,6,2,14,,,,,,,,4,10,,,,,,,,,,,4,5.675,1,,,,,,0.387963048,-0.25,1,0,0,5.6751,Gabbro_rect,13,0,13,0,1,
63c0b8e25159ad47312132ac,SCN,2024-06-25_11h48.40.629,LearnStrategy,2023.2.3,Win32,59.88023952,6,2,15,,,,,,,,6,07,,,,,,,,,,,6,2.159,1,,,,,,-0.10555557,-0.385185171,1,0,0,2.1595,Pegmatite_rect,14,0,14,0,1,
63c0b8e25159ad47312132ac,SCN,2024-06-25_11h48.40.629,LearnStrategy,2023.2.3,Win32,59.88023952,6,2,16,,,,,,,,2,05,,,,,,,,,,,2,1.511,1,,,,,,-0.132407365,-0.257407436,1,0,0,1.5108,Basalt_rect,15,0,15,0,1,
63c0b8e25159ad47312132ac,SCN,2024-06-25_11h48.40.629,LearnStrategy,2023.2.3,Win32,59.88023952,7,1,1,-0.057407379,-0.075000021,1,0,0,2.9666,Pegmatite_05,6,05,3,4,2.967,-0.124074088,-0.395370413,1,0,0,2.5565,Pegmatite_rect,6,2.556,1,0,0,0,0,1,,,,,,,,,,,,,
63c0b8e25159ad47312132ac,SCN,2024-06-25_11h48.40.629,LearnStrategy,2023.2.3,Win32,59.88023952,7,1,2,-0.538888896,0.418518517,1,0,0,1.5634,Pumice_14,8,14,6,1,1.563,0.381481453,-0.412962949,1,0,0,1.7163,Pumice_rect,8,1.716,1,1,0,1,0,1,,,,,,,,,,,,,
63c0b8e25159ad47312132ac,SCN,2024-06-25_11h48.40.629,LearnStrategy,2023.2.3,Win32,59.88023952,7,1,3,-0.390740748,0.406481478,1,0,0,1.1632,Pegmatite_15,6,15,6,2,1.163,-0.172222208,-0.393518519,1,0,0,1.1606,Pegmatite_rect,6,1.161,1,2,0,2,0,1,,,,,,,,,,,,,
63c0b8e25159ad47312132ac,SCN,2024-06-25_11h48.40.629,LearnStrategy,2023.2.3,Win32,59.88023952,7,1,4,-0.071296268,0.093518504,1,0,0,1.9136,Pumice_04,8,04,4,4,1.914,0.450000057,-0.388888889,1,0,0,1.1954,Pumice_rect,8,1.195,1,3,0,3,0,1,,,,,,,,,,,,,
63c0b8e25159ad47312132ac,SCN,2024-06-25_11h48.40.629,LearnStrategy,2023.2.3,Win32,59.88023952,7,1,5,0.090740769,0.084259245,1,0,0,1.3189,Gabbro_01,4,01,4,5,1.319,0.37037037,-0.25,1,0,0,1.4061,Gabbro_rect,4,1.406,1,4,0,4,0,1,,,,,,,,,,,,,
63c0b8e25159ad47312132ac,SCN,2024-06-25_11h48.40.629,LearnStrategy,2023.2.3,Win32,59.88023952,7,1,6,0.214814857,0.081481474,1,0,0,1.5492,Gabbro_03,4,03,4,6,1.549,0.361111111,-0.237037023,1,0,0,3.2078,Gabbro_rect,4,3.208,1,5,0,5,0,1,,,,,,,,,,,,,
63c0b8e25159ad47312132ac,SCN,2024-06-25_11h48.40.629,LearnStrategy,2023.2.3,Win32,59.88023952,7,1,7,-0.097222222,0.415740737,1,0,0,6.0846,Peridotite_07,7,07,6,4,6.085,0.095370399,-0.387962977,1,0,0,1.7318,Peridotite_rect,7,1.732,1,6,0,6,0,1,,,,,,,,,,,,,
63c0b8e25159ad47312132ac,SCN,2024-06-25_11h48.40.629,LearnStrategy,2023.2.3,Win32,59.88023952,7,1,8,-0.532407407,0.077777757,1,0,0,3.8296,Gabbro_05,4,05,4,1,3.83,0.079629616,-0.236111111,1,0,0,2.0278,Diorite_rect,3,2.028,0,7,0,7,0,1,,,,,,,,,,,,,
63c0b8e25159ad47312132ac,SCN,2024-06-25_11h48.40.629,LearnStrategy,2023.2.3,Win32,59.88023952,7,1,9,-0.545370349,-0.082407422,1,0,0,3.0121,Andesite_10,1,10,3,1,3.012,0.361111111,-0.228703746,1,0,0,2.7169,Gabbro_rect,4,2.717,0,8,0,8,0,1,,,,,,,,,,,,,
63c0b8e25159ad47312132ac,SCN,2024-06-25_11h48.40.629,LearnStrategy,2023.2.3,Win32,59.88023952,7,1,10,-0.381481489,-0.08425928,1,0,0,1.2255,Diorite_06,3,06,3,2,1.226,0.080555598,-0.243518547,1,0,0,2.8427,Diorite_rect,3,2.843,1,9,0,9,0,1,,,,,,,,,,,,,
63c0b8e25159ad47312132ac,SCN,2024-06-25_11h48.40.629,LearnStrategy,2023.2.3,Win32,59.88023952,7,1,11,-0.064814815,-0.287962949,1,0,0,1.5956,Andesite_07,1,07,2,4,1.596,0.101851852,-0.228703746,1,0,0,1.8713,Diorite_rect,3,1.871,0,10,0,10,0,1,,,,,,,,,,,,,
63c0b8e25159ad47312132ac,SCN,2024-06-25_11h48.40.629,LearnStrategy,2023.2.3,Win32,59.88023952,7,1,12,0.07685188,-0.411111125,1,0,0,1.464,Diorite_10,3,10,1,5,1.464,0.104629658,-0.250925912,1,0,0,1.2134,Diorite_rect,3,1.213,1,11,0,11,0,1,,,,,,,,,,,,,
63c0b8e25159ad47312132ac,SCN,2024-06-25_11h48.40.629,LearnStrategy,2023.2.3,Win32,59.88023952,7,1,13,-0.054629644,-0.445370356,1,0,0,1.1167,Diorite_16,3,16,1,4,1.117,-0.363888882,-0.233333376,1,0,0,1.0815,Andesite_rect,1,1.081,0,12,0,12,0,1,,,,,,,,,,,,,
63c0b8e25159ad47312132ac,SCN,2024-06-25_11h48.40.629,LearnStrategy,2023.2.3,Win32,59.88023952,7,1,14,-0.567592586,-0.268518519,1,0,0,1.7213,Diorite_15,3,15,2,1,1.721,-0.384259259,-0.255555541,1,0,0,2.4461,Andesite_rect,1,2.446,0,13,0,13,0,1,,,,,,,,,,,,,
63c0b8e25159ad47312132ac,SCN,2024-06-25_11h48.40.629,LearnStrategy,2023.2.3,Win32,59.88023952,7,1,15,-0.51944443,0.084259245,1,0,0,1.3759,Gabbro_05,4,05,4,1,1.376,-0.392592571,-0.249074088,1,0,0,1.3748,Andesite_rect,1,1.375,0,14,0,14,0,1,,,,,,,,,,,,,
63c0b8e25159ad47312132ac,SCN,2024-06-25_11h48.40.629,LearnStrategy,2023.2.3,Win32,59.88023952,7,1,16,-0.249074088,-0.267592607,1,0,0,2.1117,Peridotite_12,7,12,2,3,2.112,0.109259288,-0.387037065,1,0,0,2.2291,Peridotite_rect,7,2.229,1,15,0,15,0,1,,,,,,,,,,,,,
63c0b8e25159ad47312132ac,SCN,2024-06-25_11h48.40.629,LearnStrategy,2023.2.3,Win32,59.88023952,7,2,1,,,,,,,,8,05,,,,,,,,,,,8,1.69,1,,,,,,0.404629601,-0.410185213,1,0,0,1.69,Pumice_rect,0,0,0,0,1,
63c0b8e25159ad47312132ac,SCN,2024-06-25_11h48.40.629,LearnStrategy,2023.2.3,Win32,59.88023952,7,2,2,,,,,,,,5,04,,,,,,,,,,,5,1.369,1,,,,,,-0.333333333,-0.39444443,1,0,0,1.3694,Obsidian_rect,1,0,1,0,1,
63c0b8e25159ad47312132ac,SCN,2024-06-25_11h48.40.629,LearnStrategy,2023.2.3,Win32,59.88023952,7,2,3,,,,,,,,4,15,,,,,,,,,,,3,2.216,0,,,,,,0.117592635,-0.266666695,1,0,0,2.2165,Diorite_rect,2,0,2,0,1,
63c0b8e25159ad47312132ac,SCN,2024-06-25_11h48.40.629,LearnStrategy,2023.2.3,Win32,59.88023952,7,2,4,,,,,,,,3,11,,,,,,,,,,,1,2.992,0,,,,,,-0.359259252,-0.242592635,1,0,0,2.9922,Andesite_rect,3,0,3,0,1,
63c0b8e25159ad47312132ac,SCN,2024-06-25_11h48.40.629,LearnStrategy,2023.2.3,Win32,59.88023952,7,2,5,,,,,,,,2,09,,,,,,,,,,,2,1.221,1,,,,,,-0.07222218,-0.233333376,1,0,0,1.2214,Basalt_rect,4,0,4,0,1,
63c0b8e25159ad47312132ac,SCN,2024-06-25_11h48.40.629,LearnStrategy,2023.2.3,Win32,59.88023952,7,2,6,,,,,,,,8,02,,,,,,,,,,,8,1.478,1,,,,,,0.386111083,-0.415740755,1,0,0,1.478,Pumice_rect,5,0,5,0,1,
63c0b8e25159ad47312132ac,SCN,2024-06-25_11h48.40.629,LearnStrategy,2023.2.3,Win32,59.88023952,7,2,7,,,,,,,,5,12,,,,,,,,,,,5,1.319,1,,,,,,-0.355555534,-0.416666667,1,0,0,1.3194,Obsidian_rect,6,0,6,0,1,
63c0b8e25159ad47312132ac,SCN,2024-06-25_11h48.40.629,LearnStrategy,2023.2.3,Win32,59.88023952,7,2,8,,,,,,,,7,14,,,,,,,,,,,7,2.233,1,,,,,,0.083333333,-0.39444443,1,0,0,2.233,Peridotite_rect,7,0,7,0,1,
63c0b8e25159ad47312132ac,SCN,2024-06-25_11h48.40.629,LearnStrategy,2023.2.3,Win32,59.88023952,7,2,9,,,,,,,,1,05,,,,,,,,,,,1,2.218,1,,,,,,-0.416666667,-0.241666653,1,0,0,2.2175,Andesite_rect,8,0,8,0,1,
63c0b8e25159ad47312132ac,SCN,2024-06-25_11h48.40.629,LearnStrategy,2023.2.3,Win32,59.88023952,7,2,10,,,,,,,,6,12,,,,,,,,,,,6,2.074,1,,,,,,-0.133333347,-0.393518519,1,0,0,2.074,Pegmatite_rect,9,0,9,0,1,
63c0b8e25159ad47312132ac,SCN,2024-06-25_11h48.40.629,LearnStrategy,2023.2.3,Win32,59.88023952,7,2,11,,,,,,,,7,02,,,,,,,,,,,7,1.501,1,,,,,,0.102777764,-0.414814843,1,0,0,1.5007,Peridotite_rect,10,0,10,0,1,
63c0b8e25159ad47312132ac,SCN,2024-06-25_11h48.40.629,LearnStrategy,2023.2.3,Win32,59.88023952,7,2,12,,,,,,,,6,07,,,,,,,,,,,6,1.19,1,,,,,,-0.093518504,-0.388888889,1,0,0,1.1903,Pegmatite_rect,11,0,11,0,1,
63c0b8e25159ad47312132ac,SCN,2024-06-25_11h48.40.629,LearnStrategy,2023.2.3,Win32,59.88023952,7,2,13,,,,,,,,4,08,,,,,,,,,,,4,1.778,1,,,,,,0.452777863,-0.246296282,1,0,0,1.7785,Gabbro_rect,12,0,12,0,1,
63c0b8e25159ad47312132ac,SCN,2024-06-25_11h48.40.629,LearnStrategy,2023.2.3,Win32,59.88023952,7,2,14,,,,,,,,3,12,,,,,,,,,,,1,2.699,0,,,,,,-0.315740727,-0.257407436,1,0,0,2.6986,Andesite_rect,13,0,13,0,1,
63c0b8e25159ad47312132ac,SCN,2024-06-25_11h48.40.629,LearnStrategy,2023.2.3,Win32,59.88023952,7,2,15,,,,,,,,2,06,,,,,,,,,,,2,1.186,1,,,,,,-0.123148106,-0.255555541,1,0,0,1.1864,Basalt_rect,14,0,14,0,1,
63c0b8e25159ad47312132ac,SCN,2024-06-25_11h48.40.629,LearnStrategy,2023.2.3,Win32,59.88023952,7,2,16,,,,,,,,1,03,,,,,,,,,,,3,3.051,0,,,,,,0.104629658,-0.255555541,1,0,0,3.0511,Diorite_rect,15,0,15,0,1,
63c0b8e25159ad47312132ac,SCN,2024-06-25_11h48.40.629,LearnStrategy,2023.2.3,Win32,59.88023952,8,1,1,0.037962949,-0.268518519,1,0,0,1.8243,Peridotite_06,7,06,2,5,1.824,-0.133333347,-0.382407436,1,0,0,1.3712,Pegmatite_rect,6,1.371,0,0,0,0,0,1,,,,,,,,,,,,,
63c0b8e25159ad47312132ac,SCN,2024-06-25_11h48.40.629,LearnStrategy,2023.2.3,Win32,59.88023952,8,1,2,0.213888875,-0.078703704,1,0,0,2.1558,Peridotite_15,7,15,3,6,2.156,0.095370399,-0.411111125,1,0,0,1.1675,Peridotite_rect,7,1.168,1,1,0,1,0,1,,,,,,,,,,,,,
63c0b8e25159ad47312132ac,SCN,2024-06-25_11h48.40.629,LearnStrategy,2023.2.3,Win32,59.88023952,8,1,3,0.374074159,-0.131481524,1,0,0,9.5339,Peridotite_05,7,05,3,7,9.534,0.112963005,-0.252777806,1,0,0,2.0676,Diorite_rect,3,2.068,0,2,0,2,0,1,,,,,,,,,,,,,
63c0b8e25159ad47312132ac,SCN,2024-06-25_11h48.40.629,LearnStrategy,2023.2.3,Win32,59.88023952,8,1,4,-0.087962963,-0.138888889,1,0,0,4.1065,Pegmatite_05,6,05,3,4,4.106,-0.151851866,-0.400925954,1,0,0,1.2989,Pegmatite_rect,6,1.299,1,3,0,3,0,1,,,,,,,,,,,,,
63c0b8e25159ad47312132ac,SCN,2024-06-25_11h48.40.629,LearnStrategy,2023.2.3,Win32,59.88023952,8,1,5,0.070370356,-0.257407436,1,0,0,1.5427,Peridotite_06,7,06,2,5,1.543,0.087962963,-0.398148148,1,0,0,1.6211,Peridotite_rect,7,1.621,1,4,0,4,0,1,,,,,,,,,,,,,
63c0b8e25159ad47312132ac,SCN,2024-06-25_11h48.40.629,LearnStrategy,2023.2.3,Win32,59.88023952,8,1,6,-0.199999986,-0.243518547,1,0,0,5.222,Peridotite_12,7,12,2,3,5.222,0.151851866,-0.395370413,1,0,0,2.1976,Peridotite_rect,7,2.198,1,5,0,5,0,1,,,,,,,,,,,,,
63c0b8e25159ad47312132ac,SCN,2024-06-25_11h48.40.629,LearnStrategy,2023.2.3,Win32,59.88023952,8,1,7,-0.419444437,-0.077777792,1,0,0,2.053,Diorite_06,3,06,3,2,2.053,0.075925968,-0.250925912,1,0,0,1.7204,Diorite_rect,3,1.72,1,6,0,6,0,1,,,,,,,,,,,,,
63c0b8e25159ad47312132ac,SCN,2024-06-25_11h48.40.629,LearnStrategy,2023.2.3,Win32,59.88023952,8,1,8,-0.25,0.126851859,1,0,0,1.3596,Diorite_07,3,07,4,3,1.36,0.113888917,-0.246296282,1,0,0,2.0225,Diorite_rect,3,2.023,1,7,0,7,0,1,,,,,,,,,,,,,
63c0b8e25159ad47312132ac,SCN,2024-06-25_11h48.40.629,LearnStrategy,2023.2.3,Win32,59.88023952,8,1,9,-0.375,-0.243518547,1,0,0,2.2872,Andesite_06,1,06,2,2,2.287,0.087037051,-0.231481481,1,0,0,1.3336,Diorite_rect,3,1.334,0,8,0,8,0,1,,,,,,,,,,,,,
63c0b8e25159ad47312132ac,SCN,2024-06-25_11h48.40.629,LearnStrategy,2023.2.3,Win32,59.88023952,8,1,10,-0.257407365,0.069444444,1,0,0,1.167,Diorite_07,3,07,4,3,1.167,0.101851852,-0.237963005,1,0,0,1.219,Diorite_rect,3,1.219,1,9,0,9,0,1,,,,,,,,,,,,,
63c0b8e25159ad47312132ac,SCN,2024-06-25_11h48.40.629,LearnStrategy,2023.2.3,Win32,59.88023952,8,1,11,-0.527777778,0.053703697,1,0,0,1.385,Gabbro_05,4,05,4,1,1.385,0.33148151,-0.247222265,1,0,0,1.5964,Gabbro_rect,4,1.596,1,10,0,10,0,1,,,,,,,,,,,,,
63c0b8e25159ad47312132ac,SCN,2024-06-25_11h48.40.629,LearnStrategy,2023.2.3,Win32,59.88023952,8,1,12,-0.421296296,-0.106481481,1,0,0,1.6282,Diorite_06,3,06,3,2,1.628,0.098148134,-0.253703718,1,0,0,4.2423,Diorite_rect,3,4.242,1,11,0,11,0,1,,,,,,,,,,,,,
63c0b8e25159ad47312132ac,SCN,2024-06-25_11h48.40.629,LearnStrategy,2023.2.3,Win32,59.88023952,8,1,13,0.055555556,-0.406481496,1,0,0,1.8722,Diorite_10,3,10,1,5,1.872,-0.377777771,-0.23055557,1,0,0,1.4668,Andesite_rect,1,1.467,0,12,0,12,0,1,,,,,,,,,,,,,
63c0b8e25159ad47312132ac,SCN,2024-06-25_11h48.40.629,LearnStrategy,2023.2.3,Win32,59.88023952,8,1,14,-0.06759255,-0.423148191,1,0,0,1.1636,Diorite_16,3,16,1,4,1.164,-0.369444423,-0.242592635,1,0,0,1.2705,Andesite_rect,1,1.271,0,13,0,13,0,1,,,,,,,,,,,,,
63c0b8e25159ad47312132ac,SCN,2024-06-25_11h48.40.629,LearnStrategy,2023.2.3,Win32,59.88023952,8,1,15,0.219444487,-0.395370413,1,0,0,3.8952,Diorite_13,3,13,1,6,3.895,-0.353703711,-0.261111153,1,0,0,1.4704,Andesite_rect,1,1.47,0,14,0,14,0,1,,,,,,,,,,,,,
63c0b8e25159ad47312132ac,SCN,2024-06-25_11h48.40.629,LearnStrategy,2023.2.3,Win32,59.88023952,8,1,16,-0.428703697,-0.139814801,1,0,0,2.0316,Diorite_06,3,06,3,2,2.032,0.060185185,-0.232407393,1,0,0,1.5515,Diorite_rect,3,1.552,1,15,0,15,0,1,,,,,,,,,,,,,
63c0b8e25159ad47312132ac,SCN,2024-06-25_11h48.40.629,LearnStrategy,2023.2.3,Win32,59.88023952,8,2,1,,,,,,,,3,02,,,,,,,,,,,3,1.794,1,,,,,,0.078703704,-0.268518519,1,0,0,1.7945,Diorite_rect,0,0,0,0,1,
63c0b8e25159ad47312132ac,SCN,2024-06-25_11h48.40.629,LearnStrategy,2023.2.3,Win32,59.88023952,8,2,2,,,,,,,,3,14,,,,,,,,,,,3,4.684,1,,,,,,0.069444444,-0.248148176,1,0,0,4.684,Diorite_rect,1,0,1,0,1,
63c0b8e25159ad47312132ac,SCN,2024-06-25_11h48.40.629,LearnStrategy,2023.2.3,Win32,59.88023952,8,2,3,,,,,,,,8,13,,,,,,,,,,,8,1.365,1,,,,,,0.327777863,-0.387037065,1,0,0,1.3648,Pumice_rect,2,0,2,0,1,
63c0b8e25159ad47312132ac,SCN,2024-06-25_11h48.40.629,LearnStrategy,2023.2.3,Win32,59.88023952,8,2,4,,,,,,,,8,09,,,,,,,,,,,8,1.04,1,,,,,,0.32685188,-0.386111153,1,0,0,1.0401,Pumice_rect,3,0,3,0,1,
63c0b8e25159ad47312132ac,SCN,2024-06-25_11h48.40.629,LearnStrategy,2023.2.3,Win32,59.88023952,8,2,5,,,,,,,,7,04,,,,,,,,,,,1,1.667,0,,,,,,-0.462037016,-0.250925912,1,0,0,1.6669,Andesite_rect,4,0,4,0,1,
63c0b8e25159ad47312132ac,SCN,2024-06-25_11h48.40.629,LearnStrategy,2023.2.3,Win32,59.88023952,8,2,6,,,,,,,,2,05,,,,,,,,,,,2,1.076,1,,,,,,-0.12962963,-0.24537037,1,0,0,1.0761,Basalt_rect,5,0,5,0,1,
63c0b8e25159ad47312132ac,SCN,2024-06-25_11h48.40.629,LearnStrategy,2023.2.3,Win32,59.88023952,8,2,7,,,,,,,,4,11,,,,,,,,,,,1,2.566,0,,,,,,-0.398148148,-0.237963005,1,0,0,2.5663,Andesite_rect,6,0,6,0,1,
63c0b8e25159ad47312132ac,SCN,2024-06-25_11h48.40.629,LearnStrategy,2023.2.3,Win32,59.88023952,8,2,8,,,,,,,,1,14,,,,,,,,,,,6,3.757,0,,,,,,-0.164814772,-0.413888931,1,0,0,3.7569,Pegmatite_rect,7,0,7,0,1,
63c0b8e25159ad47312132ac,SCN,2024-06-25_11h48.40.629,LearnStrategy,2023.2.3,Win32,59.88023952,8,2,9,,,,,,,,6,03,,,,,,,,,,,6,1.406,1,,,,,,-0.162962949,-0.402777778,1,0,0,1.4059,Pegmatite_rect,8,0,8,0,1,
63c0b8e25159ad47312132ac,SCN,2024-06-25_11h48.40.629,LearnStrategy,2023.2.3,Win32,59.88023952,8,2,10,,,,,,,,6,10,,,,,,,,,,,6,1.094,1,,,,,,-0.162962949,-0.402777778,1,0,0,1.094,Pegmatite_rect,9,0,9,0,1,
63c0b8e25159ad47312132ac,SCN,2024-06-25_11h48.40.629,LearnStrategy,2023.2.3,Win32,59.88023952,8,2,11,,,,,,,,5,06,,,,,,,,,,,5,1.178,1,,,,,,-0.366666653,-0.40370369,1,0,0,1.1776,Obsidian_rect,10,0,10,0,1,
63c0b8e25159ad47312132ac,SCN,2024-06-25_11h48.40.629,LearnStrategy,2023.2.3,Win32,59.88023952,8,2,12,,,,,,,,7,16,,,,,,,,,,,7,2.152,1,,,,,,0.045370384,-0.39444443,1,0,0,2.1524,Peridotite_rect,11,0,11,0,1,
63c0b8e25159ad47312132ac,SCN,2024-06-25_11h48.40.629,LearnStrategy,2023.2.3,Win32,59.88023952,8,2,13,,,,,,,,4,12,,,,,,,,,,,4,1.642,1,,,,,,0.396296325,-0.233333376,1,0,0,1.6423,Gabbro_rect,12,0,12,0,1,
63c0b8e25159ad47312132ac,SCN,2024-06-25_11h48.40.629,LearnStrategy,2023.2.3,Win32,59.88023952,8,2,14,,,,,,,,5,11,,,,,,,,,,,5,1.306,1,,,,,,-0.340740734,-0.395370413,1,0,0,1.306,Obsidian_rect,13,0,13,0,1,
63c0b8e25159ad47312132ac,SCN,2024-06-25_11h48.40.629,LearnStrategy,2023.2.3,Win32,59.88023952,8,2,15,,,,,,,,2,02,,,,,,,,,,,2,2.102,1,,,,,,-0.148148148,-0.260185171,1,0,0,2.1022,Basalt_rect,14,0,14,0,1,
63c0b8e25159ad47312132ac,SCN,2024-06-25_11h48.40.629,LearnStrategy,2023.2.3,Win32,59.88023952,8,2,16,,,,,,,,1,16,,,,,,,,,,,1,1.888,1,,,,,,-0.364814794,-0.264814801,1,0,0,1.8877,Andesite_rect,15,0,15,0,1,
63c0b8e25159ad47312132ac,SCN,2024-06-25_11h48.40.629,LearnStrategy,2023.2.3,Win32,59.88023952,9,1,1,-0.041666667,-0.094444487,1,0,0,2.3094,Pegmatite_05,6,05,3,4,2.309,-0.108333305,-0.380555541,1,0,0,3.5169,Pegmatite_rect,6,3.517,1,0,0,0,0,1,,,,,,,,,,,,,
63c0b8e25159ad47312132ac,SCN,2024-06-25_11h48.40.629,LearnStrategy,2023.2.3,Win32,59.88023952,9,1,2,0.031481496,-0.101851852,1,0,0,1.2044,Obsidian_09,5,09,3,5,1.204,-0.377777771,-0.400000042,1,0,0,1.3809,Obsidian_rect,5,1.381,1,1,0,1,0,1,,,,,,,,,,,,,
63c0b8e25159ad47312132ac,SCN,2024-06-25_11h48.40.629,LearnStrategy,2023.2.3,Win32,59.88023952,9,1,3,0.411111196,-0.267592607,1,0,0,1.913,Basalt_11,2,11,2,7,1.913,0.411111196,-0.267592607,1,0,0,1.2283,Gabbro_rect,4,1.228,0,2,0,2,0,1,,,,,,,,,,,,,
63c0b8e25159ad47312132ac,SCN,2024-06-25_11h48.40.629,LearnStrategy,2023.2.3,Win32,59.88023952,9,1,4,-0.200925898,-0.079629651,1,0,0,1.5628,Andesite_02,1,02,3,3,1.563,0.108333376,-0.243518547,1,0,0,1.3736,Diorite_rect,3,1.374,0,3,0,3,0,1,,,,,,,,,,,,,
63c0b8e25159ad47312132ac,SCN,2024-06-25_11h48.40.629,LearnStrategy,2023.2.3,Win32,59.88023952,9,1,5,-0.51944443,-0.077777792,1,0,0,1.835,Andesite_10,1,10,3,1,1.835,0.374074159,-0.270370413,1,0,0,2.7893,Gabbro_rect,4,2.789,0,4,0,4,0,1,,,,,,,,,,,,,
63c0b8e25159ad47312132ac,SCN,2024-06-25_11h48.40.629,LearnStrategy,2023.2.3,Win32,59.88023952,9,1,6,-0.53611109,0.049074067,1,0,0,1.7057,Gabbro_05,4,05,4,1,1.706,0.412963019,-0.259259259,1,0,0,1.2751,Gabbro_rect,4,1.275,1,5,0,5,0,1,,,,,,,,,,,,,
63c0b8e25159ad47312132ac,SCN,2024-06-25_11h48.40.629,LearnStrategy,2023.2.3,Win32,59.88023952,9,1,7,-0.574999986,-0.116666653,1,0,0,1.2407,Andesite_10,1,10,3,1,1.241,-0.475925905,-0.268518519,1,0,0,0.9183,Andesite_rect,1,0.918,1,6,0,6,0,1,,,,,,,,,,,,,
63c0b8e25159ad47312132ac,SCN,2024-06-25_11h48.40.629,LearnStrategy,2023.2.3,Win32,59.88023952,9,1,8,-0.385185171,-0.08888891,1,0,0,1.0224,Diorite_06,3,06,3,2,1.022,0.087962963,-0.25462963,1,0,0,1.2879,Diorite_rect,3,1.288,1,7,0,7,0,1,,,,,,,,,,,,,
63c0b8e25159ad47312132ac,SCN,2024-06-25_11h48.40.629,LearnStrategy,2023.2.3,Win32,59.88023952,9,1,9,-0.244444459,0.107407393,1,0,0,2.1871,Diorite_07,3,07,4,3,2.187,0.126851894,-0.236111111,1,0,0,1.3513,Diorite_rect,3,1.351,1,8,0,8,0,1,,,,,,,,,,,,,
63c0b8e25159ad47312132ac,SCN,2024-06-25_11h48.40.629,LearnStrategy,2023.2.3,Win32,59.88023952,9,1,10,0.071296339,-0.431481467,1,0,0,1.4134,Diorite_10,3,10,1,5,1.413,0.09629631,-0.240740741,1,0,0,1.2097,Diorite_rect,3,1.21,1,9,0,9,0,1,,,,,,,,,,,,,
63c0b8e25159ad47312132ac,SCN,2024-06-25_11h48.40.629,LearnStrategy,2023.2.3,Win32,59.88023952,9,1,11,-0.352777764,-0.255555541,1,0,0,3.2311,Andesite_06,1,06,2,2,3.231,0.124074088,-0.261111153,1,0,0,1.7969,Diorite_rect,3,1.797,0,10,0,10,0,1,,,,,,,,,,,,,
63c0b8e25159ad47312132ac,SCN,2024-06-25_11h48.40.629,LearnStrategy,2023.2.3,Win32,59.88023952,9,1,12,-0.239814829,-0.075925933,1,0,0,1.9863,Andesite_02,1,02,3,3,1.986,-0.40648146,-0.256481524,1,0,0,1.668,Andesite_rect,1,1.668,1,11,0,11,0,1,,,,,,,,,,,,,
63c0b8e25159ad47312132ac,SCN,2024-06-25_11h48.40.629,LearnStrategy,2023.2.3,Win32,59.88023952,9,1,13,-0.031481496,-0.270370413,1,0,0,3.4025,Andesite_07,1,07,2,4,3.403,0.131481524,-0.233333376,1,0,0,1.8822,Diorite_rect,3,1.882,0,12,0,12,0,1,,,,,,,,,,,,,
63c0b8e25159ad47312132ac,SCN,2024-06-25_11h48.40.629,LearnStrategy,2023.2.3,Win32,59.88023952,9,1,14,-0.387962942,-0.091666681,1,0,0,2.4337,Diorite_06,3,06,3,2,2.434,0.128703718,-0.231481481,1,0,0,1.517,Diorite_rect,3,1.517,1,13,0,13,0,1,,,,,,,,,,,,,
63c0b8e25159ad47312132ac,SCN,2024-06-25_11h48.40.629,LearnStrategy,2023.2.3,Win32,59.88023952,9,1,15,-0.502777771,-0.083333333,1,0,0,1.3419,Andesite_10,1,10,3,1,1.342,-0.3824074,-0.232407393,1,0,0,2.1236,Andesite_rect,1,2.124,1,14,0,14,0,1,,,,,,,,,,,,,
63c0b8e25159ad47312132ac,SCN,2024-06-25_11h48.40.629,LearnStrategy,2023.2.3,Win32,59.88023952,9,1,16,-0.099074046,-0.239814829,1,0,0,5.2329,Andesite_07,1,07,2,4,5.233,-0.38703703,-0.256481524,1,0,0,5.0315,Andesite_rect,1,5.032,1,15,0,15,0,1,,,,,,,,,,,,,
63c0b8e25159ad47312132ac,SCN,2024-06-25_11h48.40.629,LearnStrategy,2023.2.3,Win32,59.88023952,9,2,1,,,,,,,,2,14,,,,,,,,,,,8,5.794,0,,,,,,0.3648149,-0.413888931,1,0,0,5.7942,Pumice_rect,0,0,0,0,1,
63c0b8e25159ad47312132ac,SCN,2024-06-25_11h48.40.629,LearnStrategy,2023.2.3,Win32,59.88023952,9,2,2,,,,,,,,7,08,,,,,,,,,,,7,2.587,1,,,,,,0.139814801,-0.39444443,1,0,0,2.5874,Peridotite_rect,1,0,1,0,1,
63c0b8e25159ad47312132ac,SCN,2024-06-25_11h48.40.629,LearnStrategy,2023.2.3,Win32,59.88023952,9,2,3,,,,,,,,4,10,,,,,,,,,,,4,1.743,1,,,,,,0.396296325,-0.240740741,1,0,0,1.7426,Gabbro_rect,2,0,2,0,1,
63c0b8e25159ad47312132ac,SCN,2024-06-25_11h48.40.629,LearnStrategy,2023.2.3,Win32,59.88023952,9,2,4,,,,,,,,5,05,,,,,,,,,,,5,1.622,1,,,,,,-0.388888889,-0.391666695,1,0,0,1.6222,Obsidian_rect,3,0,3,0,1,
63c0b8e25159ad47312132ac,SCN,2024-06-25_11h48.40.629,LearnStrategy,2023.2.3,Win32,59.88023952,9,2,5,,,,,,,,6,11,,,,,,,,,,,6,1.336,1,,,,,,-0.174074032,-0.392592607,1,0,0,1.3357,Pegmatite_rect,4,0,4,0,1,
63c0b8e25159ad47312132ac,SCN,2024-06-25_11h48.40.629,LearnStrategy,2023.2.3,Win32,59.88023952,9,2,6,,,,,,,,8,03,,,,,,,,,,,8,1.872,1,,,,,,0.396296325,-0.390740783,1,0,0,1.8722,Pumice_rect,5,0,5,0,1,
63c0b8e25159ad47312132ac,SCN,2024-06-25_11h48.40.629,LearnStrategy,2023.2.3,Win32,59.88023952,9,2,7,,,,,,,,5,14,,,,,,,,,,,5,1.774,1,,,,,,-0.380555541,-0.387962977,1,0,0,1.7743,Obsidian_rect,6,0,6,0,1,
63c0b8e25159ad47312132ac,SCN,2024-06-25_11h48.40.629,LearnStrategy,2023.2.3,Win32,59.88023952,9,2,8,,,,,,,,3,08,,,,,,,,,,,3,3.353,1,,,,,,0.10092594,-0.25462963,1,0,0,3.3529,Diorite_rect,7,0,7,0,1,
63c0b8e25159ad47312132ac,SCN,2024-06-25_11h48.40.629,LearnStrategy,2023.2.3,Win32,59.88023952,9,2,9,,,,,,,,6,08,,,,,,,,,,,6,1.32,1,,,,,,-0.115740741,-0.39907406,1,0,0,1.3196,Pegmatite_rect,8,0,8,0,1,
63c0b8e25159ad47312132ac,SCN,2024-06-25_11h48.40.629,LearnStrategy,2023.2.3,Win32,59.88023952,9,2,10,,,,,,,,8,10,,,,,,,,,,,8,1.346,1,,,,,,0.422222279,-0.400000042,1,0,0,1.3463,Pumice_rect,9,0,9,0,1,
63c0b8e25159ad47312132ac,SCN,2024-06-25_11h48.40.629,LearnStrategy,2023.2.3,Win32,59.88023952,9,2,11,,,,,,,,2,12,,,,,,,,,,,8,6.996,0,,,,,,0.384259259,-0.393518519,1,0,0,6.9965,Pumice_rect,10,0,10,0,1,
63c0b8e25159ad47312132ac,SCN,2024-06-25_11h48.40.629,LearnStrategy,2023.2.3,Win32,59.88023952,9,2,12,,,,,,,,4,09,,,,,,,,,,,4,3.34,1,,,,,,0.432407379,-0.267592607,1,0,0,3.3402,Gabbro_rect,11,0,11,0,1,
63c0b8e25159ad47312132ac,SCN,2024-06-25_11h48.40.629,LearnStrategy,2023.2.3,Win32,59.88023952,9,2,13,,,,,,,,7,10,,,,,,,,,,,7,1.409,1,,,,,,0.143518519,-0.417592578,1,0,0,1.4093,Peridotite_rect,12,0,12,0,1,
63c0b8e25159ad47312132ac,SCN,2024-06-25_11h48.40.629,LearnStrategy,2023.2.3,Win32,59.88023952,9,2,14,,,,,,,,1,11,,,,,,,,,,,1,2.829,1,,,,,,-0.417592578,-0.25462963,1,0,0,2.8285,Andesite_rect,13,0,13,0,1,
63c0b8e25159ad47312132ac,SCN,2024-06-25_11h48.40.629,LearnStrategy,2023.2.3,Win32,59.88023952,9,2,15,,,,,,,,1,01,,,,,,,,,,,3,2.947,0,,,,,,0.077777792,-0.266666695,1,0,0,2.947,Diorite_rect,14,0,14,0,1,
63c0b8e25159ad47312132ac,SCN,2024-06-25_11h48.40.629,LearnStrategy,2023.2.3,Win32,59.88023952,9,2,16,,,,,,,,3,09,,,,,,,,,,,3,1.016,1,,,,,,0.077777792,-0.266666695,1,0,0,1.0157,Diorite_rect,15,0,15,0,1,
63c0b8e25159ad47312132ac,SCN,2024-06-25_11h48.40.629,LearnStrategy,2023.2.3,Win32,59.88023952,,,,,,,,,,,,,,,,,,,,,,,,,,,,,,,,,,,,,,,,,,,1
63c0b8e25159ad47312132ac,SCN,2024-06-25_11h48.40.629,LearnStrategy,2023.2.3,Win32,59.88023952,,,,,,,,,,,,,,,,,,,,,,,,,,,,,,,,,,,,,,,,,,,
63c0b8e25159ad47312132ac,SCN,2024-06-25_11h48.40.629,LearnStrategy,2023.2.3,Win32,59.88023952,,,,,,,,,,,1,04,1,1,,,,,,,,,,,,,,,,,,,,,,,,,,,,,
63c0b8e25159ad47312132ac,SCN,2024-06-25_11h48.40.629,LearnStrategy,2023.2.3,Win32,59.88023952,,,,,,,,,,,5,16,1,2,,,,,,,,,,,,,,,,,,,,,,,,,,,,,
63c0b8e25159ad47312132ac,SCN,2024-06-25_11h48.40.629,LearnStrategy,2023.2.3,Win32,59.88023952,,,,,,,,,,,2,01,1,3,,,,,,,,,,,,,,,,,,,,,,,,,,,,,
63c0b8e25159ad47312132ac,SCN,2024-06-25_11h48.40.629,LearnStrategy,2023.2.3,Win32,59.88023952,,,,,,,,,,,3,16,1,4,,,,,,,,,,,,,,,,,,,,,,,,,,,,,
63c0b8e25159ad47312132ac,SCN,2024-06-25_11h48.40.629,LearnStrategy,2023.2.3,Win32,59.88023952,,,,,,,,,,,3,10,1,5,,,,,,,,,,,,,,,,,,,,,,,,,,,,,
63c0b8e25159ad47312132ac,SCN,2024-06-25_11h48.40.629,LearnStrategy,2023.2.3,Win32,59.88023952,,,,,,,,,,,3,13,1,6,,,,,,,,,,,,,,,,,,,,,,,,,,,,,
63c0b8e25159ad47312132ac,SCN,2024-06-25_11h48.40.629,LearnStrategy,2023.2.3,Win32,59.88023952,,,,,,,,,,,5,08,1,7,,,,,,,,,,,,,,,,,,,,,,,,,,,,,
63c0b8e25159ad47312132ac,SCN,2024-06-25_11h48.40.629,LearnStrategy,2023.2.3,Win32,59.88023952,,,,,,,,,,,1,09,1,8,,,,,,,,,,,,,,,,,,,,,,,,,,,,,
63c0b8e25159ad47312132ac,SCN,2024-06-25_11h48.40.629,LearnStrategy,2023.2.3,Win32,59.88023952,,,,,,,,,,,3,15,2,1,,,,,,,,,,,,,,,,,,,,,,,,,,,,,
63c0b8e25159ad47312132ac,SCN,2024-06-25_11h48.40.629,LearnStrategy,2023.2.3,Win32,59.88023952,,,,,,,,,,,1,06,2,2,,,,,,,,,,,,,,,,,,,,,,,,,,,,,
63c0b8e25159ad47312132ac,SCN,2024-06-25_11h48.40.629,LearnStrategy,2023.2.3,Win32,59.88023952,,,,,,,,,,,7,12,2,3,,,,,,,,,,,,,,,,,,,,,,,,,,,,,
63c0b8e25159ad47312132ac,SCN,2024-06-25_11h48.40.629,LearnStrategy,2023.2.3,Win32,59.88023952,,,,,,,,,,,1,07,2,4,,,,,,,,,,,,,,,,,,,,,,,,,,,,,
63c0b8e25159ad47312132ac,SCN,2024-06-25_11h48.40.629,LearnStrategy,2023.2.3,Win32,59.88023952,,,,,,,,,,,7,06,2,5,,,,,,,,,,,,,,,,,,,,,,,,,,,,,
63c0b8e25159ad47312132ac,SCN,2024-06-25_11h48.40.629,LearnStrategy,2023.2.3,Win32,59.88023952,,,,,,,,,,,6,06,2,6,,,,,,,,,,,,,,,,,,,,,,,,,,,,,
63c0b8e25159ad47312132ac,SCN,2024-06-25_11h48.40.629,LearnStrategy,2023.2.3,Win32,59.88023952,,,,,,,,,,,2,11,2,7,,,,,,,,,,,,,,,,,,,,,,,,,,,,,
63c0b8e25159ad47312132ac,SCN,2024-06-25_11h48.40.629,LearnStrategy,2023.2.3,Win32,59.88023952,,,,,,,,,,,4,13,2,8,,,,,,,,,,,,,,,,,,,,,,,,,,,,,
63c0b8e25159ad47312132ac,SCN,2024-06-25_11h48.40.629,LearnStrategy,2023.2.3,Win32,59.88023952,,,,,,,,,,,1,10,3,1,,,,,,,,,,,,,,,,,,,,,,,,,,,,,
63c0b8e25159ad47312132ac,SCN,2024-06-25_11h48.40.629,LearnStrategy,2023.2.3,Win32,59.88023952,,,,,,,,,,,3,06,3,2,,,,,,,,,,,,,,,,,,,,,,,,,,,,,
63c0b8e25159ad47312132ac,SCN,2024-06-25_11h48.40.629,LearnStrategy,2023.2.3,Win32,59.88023952,,,,,,,,,,,1,02,3,3,,,,,,,,,,,,,,,,,,,,,,,,,,,,,
63c0b8e25159ad47312132ac,SCN,2024-06-25_11h48.40.629,LearnStrategy,2023.2.3,Win32,59.88023952,,,,,,,,,,,6,05,3,4,,,,,,,,,,,,,,,,,,,,,,,,,,,,,
63c0b8e25159ad47312132ac,SCN,2024-06-25_11h48.40.629,LearnStrategy,2023.2.3,Win32,59.88023952,,,,,,,,,,,5,09,3,5,,,,,,,,,,,,,,,,,,,,,,,,,,,,,
63c0b8e25159ad47312132ac,SCN,2024-06-25_11h48.40.629,LearnStrategy,2023.2.3,Win32,59.88023952,,,,,,,,,,,7,15,3,6,,,,,,,,,,,,,,,,,,,,,,,,,,,,,
63c0b8e25159ad47312132ac,SCN,2024-06-25_11h48.40.629,LearnStrategy,2023.2.3,Win32,59.88023952,,,,,,,,,,,7,05,3,7,,,,,,,,,,,,,,,,,,,,,,,,,,,,,
63c0b8e25159ad47312132ac,SCN,2024-06-25_11h48.40.629,LearnStrategy,2023.2.3,Win32,59.88023952,,,,,,,,,,,4,16,3,8,,,,,,,,,,,,,,,,,,,,,,,,,,,,,
63c0b8e25159ad47312132ac,SCN,2024-06-25_11h48.40.629,LearnStrategy,2023.2.3,Win32,59.88023952,,,,,,,,,,,4,05,4,1,,,,,,,,,,,,,,,,,,,,,,,,,,,,,
63c0b8e25159ad47312132ac,SCN,2024-06-25_11h48.40.629,LearnStrategy,2023.2.3,Win32,59.88023952,,,,,,,,,,,6,16,4,2,,,,,,,,,,,,,,,,,,,,,,,,,,,,,
63c0b8e25159ad47312132ac,SCN,2024-06-25_11h48.40.629,LearnStrategy,2023.2.3,Win32,59.88023952,,,,,,,,,,,3,07,4,3,,,,,,,,,,,,,,,,,,,,,,,,,,,,,
63c0b8e25159ad47312132ac,SCN,2024-06-25_11h48.40.629,LearnStrategy,2023.2.3,Win32,59.88023952,,,,,,,,,,,8,04,4,4,,,,,,,,,,,,,,,,,,,,,,,,,,,,,
63c0b8e25159ad47312132ac,SCN,2024-06-25_11h48.40.629,LearnStrategy,2023.2.3,Win32,59.88023952,,,,,,,,,,,4,01,4,5,,,,,,,,,,,,,,,,,,,,,,,,,,,,,
63c0b8e25159ad47312132ac,SCN,2024-06-25_11h48.40.629,LearnStrategy,2023.2.3,Win32,59.88023952,,,,,,,,,,,4,03,4,6,,,,,,,,,,,,,,,,,,,,,,,,,,,,,
63c0b8e25159ad47312132ac,SCN,2024-06-25_11h48.40.629,LearnStrategy,2023.2.3,Win32,59.88023952,,,,,,,,,,,8,15,4,7,,,,,,,,,,,,,,,,,,,,,,,,,,,,,
63c0b8e25159ad47312132ac,SCN,2024-06-25_11h48.40.629,LearnStrategy,2023.2.3,Win32,59.88023952,,,,,,,,,,,6,13,4,8,,,,,,,,,,,,,,,,,,,,,,,,,,,,,
63c0b8e25159ad47312132ac,SCN,2024-06-25_11h48.40.629,LearnStrategy,2023.2.3,Win32,59.88023952,,,,,,,,,,,6,09,5,1,,,,,,,,,,,,,,,,,,,,,,,,,,,,,
63c0b8e25159ad47312132ac,SCN,2024-06-25_11h48.40.629,LearnStrategy,2023.2.3,Win32,59.88023952,,,,,,,,,,,7,13,5,2,,,,,,,,,,,,,,,,,,,,,,,,,,,,,
63c0b8e25159ad47312132ac,SCN,2024-06-25_11h48.40.629,LearnStrategy,2023.2.3,Win32,59.88023952,,,,,,,,,,,8,06,5,3,,,,,,,,,,,,,,,,,,,,,,,,,,,,,
63c0b8e25159ad47312132ac,SCN,2024-06-25_11h48.40.629,LearnStrategy,2023.2.3,Win32,59.88023952,,,,,,,,,,,8,08,5,4,,,,,,,,,,,,,,,,,,,,,,,,,,,,,
63c0b8e25159ad47312132ac,SCN,2024-06-25_11h48.40.629,LearnStrategy,2023.2.3,Win32,59.88023952,,,,,,,,,,,2,16,5,5,,,,,,,,,,,,,,,,,,,,,,,,,,,,,
63c0b8e25159ad47312132ac,SCN,2024-06-25_11h48.40.629,LearnStrategy,2023.2.3,Win32,59.88023952,,,,,,,,,,,2,08,5,6,,,,,,,,,,,,,,,,,,,,,,,,,,,,,
63c0b8e25159ad47312132ac,SCN,2024-06-25_11h48.40.629,LearnStrategy,2023.2.3,Win32,59.88023952,,,,,,,,,,,5,07,5,7,,,,,,,,,,,,,,,,,,,,,,,,,,,,,
63c0b8e25159ad47312132ac,SCN,2024-06-25_11h48.40.629,LearnStrategy,2023.2.3,Win32,59.88023952,,,,,,,,,,,2,10,5,8,,,,,,,,,,,,,,,,,,,,,,,,,,,,,
63c0b8e25159ad47312132ac,SCN,2024-06-25_11h48.40.629,LearnStrategy,2023.2.3,Win32,59.88023952,,,,,,,,,,,8,14,6,1,,,,,,,,,,,,,,,,,,,,,,,,,,,,,
63c0b8e25159ad47312132ac,SCN,2024-06-25_11h48.40.629,LearnStrategy,2023.2.3,Win32,59.88023952,,,,,,,,,,,6,15,6,2,,,,,,,,,,,,,,,,,,,,,,,,,,,,,
63c0b8e25159ad47312132ac,SCN,2024-06-25_11h48.40.629,LearnStrategy,2023.2.3,Win32,59.88023952,,,,,,,,,,,4,14,6,3,,,,,,,,,,,,,,,,,,,,,,,,,,,,,
63c0b8e25159ad47312132ac,SCN,2024-06-25_11h48.40.629,LearnStrategy,2023.2.3,Win32,59.88023952,,,,,,,,,,,7,07,6,4,,,,,,,,,,,,,,,,,,,,,,,,,,,,,
63c0b8e25159ad47312132ac,SCN,2024-06-25_11h48.40.629,LearnStrategy,2023.2.3,Win32,59.88023952,,,,,,,,,,,5,02,6,5,,,,,,,,,,,,,,,,,,,,,,,,,,,,,
63c0b8e25159ad47312132ac,SCN,2024-06-25_11h48.40.629,LearnStrategy,2023.2.3,Win32,59.88023952,,,,,,,,,,,2,04,6,6,,,,,,,,,,,,,,,,,,,,,,,,,,,,,
63c0b8e25159ad47312132ac,SCN,2024-06-25_11h48.40.629,LearnStrategy,2023.2.3,Win32,59.88023952,,,,,,,,,,,5,10,6,7,,,,,,,,,,,,,,,,,,,,,,,,,,,,,
63c0b8e25159ad47312132ac,SCN,2024-06-25_11h48.40.629,LearnStrategy,2023.2.3,Win32,59.88023952,,,,,,,,,,,8,16,6,8,,,,,,,,,,,,,,,,,,,,,,,,,,,,,