participant,condition,date,expName,psychopyVersion,OS,frameRate,block,phase,trial,learn_mouse.x,learn_mouse.y,learn_mouse.leftButton,learn_mouse.midButton,learn_mouse.rightButton,learn_mouse.time,learn_mouse.clicked_name,cat,token,row,col,t_select,cat_rec,token_rec,cat_mouse_l.x,cat_mouse_l.y,cat_mouse_l.leftButton,cat_mouse_l.midButton,cat_mouse_l.rightButton,cat_mouse_l.time,cat_mouse_l.clicked_name,resp,t_resp,corr,train_trials.thisRepN,train_trials.thisTrialN,train_trials.thisN,train_trials.thisIndex,train_trials.ran,cat_mouse_t.x,cat_mouse_t.y,cat_mouse_t.leftButton,cat_mouse_t.midButton,cat_mouse_t.rightButton,cat_mouse_t.time,cat_mouse_t.clicked_name,test_trials.thisRepN,test_trials.thisTrialN,test_trials.thisN,test_trials.thisIndex,test_trials.ran,Bonus
63d176dbaef5e7827cd86954,SCR,2024-06-20_15h36.15.634,LearnStrategy,2023.2.3,Win32,59.52380952,,,,,,,,,,,,,,,,,,,,,,,,,,,,,,,,,,,,,,,,,,,,,
63d176dbaef5e7827cd86954,SCR,2024-06-20_15h36.15.634,LearnStrategy,2023.2.3,Win32,59.52380952,1,1,1,0.243518547,0.103703711,1,0,0,6.5899,Gabbro_08,4,08,4,6,6.59,4,08,0.397222307,-0.401851866,1,0,0,9.6865,Pumice_rect,8,9.686,0,0,0,0,0,1,,,,,,,,,,,,,
63d176dbaef5e7827cd86954,SCR,2024-06-20_15h36.15.634,LearnStrategy,2023.2.3,Win32,59.52380952,1,1,2,0.412963019,0.269444448,1,0,0,2.9664,Basalt_02,2,02,5,7,2.966,2,02,-0.117592564,-0.241666653,1,0,0,5.3004,Basalt_rect,2,5.3,1,1,0,1,0,1,,,,,,,,,,,,,
63d176dbaef5e7827cd86954,SCR,2024-06-20_15h36.15.634,LearnStrategy,2023.2.3,Win32,59.52380952,1,1,3,-0.555555556,0.26203703,1,0,0,2.7521,Obsidian_14,5,14,5,1,2.752,5,14,-0.39444443,-0.390740783,1,0,0,11.6013,Obsidian_rect,5,11.601,1,2,0,2,0,1,,,,,,,,,,,,,
63d176dbaef5e7827cd86954,SCR,2024-06-20_15h36.15.634,LearnStrategy,2023.2.3,Win32,59.52380952,1,1,4,0.387963048,0.422222217,1,0,0,2.4745,Pegmatite_03,6,03,6,7,2.474,6,03,0.137962977,-0.407407407,1,0,0,2.7751,Peridotite_rect,7,2.775,0,3,0,3,0,1,,,,,,,,,,,,,
63d176dbaef5e7827cd86954,SCR,2024-06-20_15h36.15.634,LearnStrategy,2023.2.3,Win32,59.52380952,1,1,5,0.069444444,-0.391666695,1,0,0,3.0668,Diorite_14,3,14,1,5,3.067,3,14,-0.342592593,-0.261111153,1,0,0,7.719,Andesite_rect,1,7.719,0,4,0,4,0,1,,,,,,,,,,,,,
63d176dbaef5e7827cd86954,SCR,2024-06-20_15h36.15.634,LearnStrategy,2023.2.3,Win32,59.52380952,1,1,6,0.562037009,-0.425000014,1,0,0,1.5672,Pegmatite_05,6,05,1,8,1.567,6,05,0.413888861,-0.404629672,1,0,0,7.9041,Pumice_rect,8,7.904,0,5,0,5,0,1,,,,,,,,,,,,,
63d176dbaef5e7827cd86954,SCR,2024-06-20_15h36.15.634,LearnStrategy,2023.2.3,Win32,59.52380952,1,1,7,-0.206481439,-0.426851838,1,0,0,4.5357,Peridotite_07,7,07,1,3,4.536,7,07,0.089814857,-0.408333319,1,0,0,5.9156,Peridotite_rect,7,5.916,1,6,0,6,0,1,,,,,,,,,,,,,
63d176dbaef5e7827cd86954,SCR,2024-06-20_15h36.15.634,LearnStrategy,2023.2.3,Win32,59.52380952,1,1,8,0.557407379,-0.214814857,1,0,0,1.5068,Diorite_02,3,02,2,8,1.507,3,02,0.098148134,-0.256481524,1,0,0,13.0832,Diorite_rect,3,13.083,1,7,0,7,0,1,,,,,,,,,,,,,
63d176dbaef5e7827cd86954,SCR,2024-06-20_15h36.15.634,LearnStrategy,2023.2.3,Win32,59.52380952,1,1,9,-0.39907406,-0.103703746,1,0,0,1.7682,Gabbro_09,4,09,3,2,1.768,4,09,0.419444473,-0.23055557,1,0,0,7.6102,Gabbro_rect,4,7.61,1,8,0,8,0,1,,,,,,,,,,,,,
63d176dbaef5e7827cd86954,SCR,2024-06-20_15h36.15.634,LearnStrategy,2023.2.3,Win32,59.52380952,1,1,10,-0.37962963,0.38518518,1,0,0,1.7413,Basalt_14,2,14,6,2,1.741,2,14,0.362962935,-0.407407407,1,0,0,5.5047,Pumice_rect,8,5.505,0,9,0,9,0,1,,,,,,,,,,,,,
63d176dbaef5e7827cd86954,SCR,2024-06-20_15h36.15.634,LearnStrategy,2023.2.3,Win32,59.52380952,1,1,11,0.372222194,-0.437962991,1,0,0,1.6039,Andesite_09,1,09,1,7,1.604,1,09,-0.083333333,-0.238888917,1,0,0,2.3677,Basalt_rect,2,2.368,0,10,0,10,0,1,,,,,,,,,,,,,
63d176dbaef5e7827cd86954,SCR,2024-06-20_15h36.15.634,LearnStrategy,2023.2.3,Win32,59.52380952,1,1,12,-0.51944443,-0.412962949,1,0,0,1.4831,Andesite_11,1,11,1,1,1.483,1,11,0.398148148,-0.39907406,1,0,0,4.4186,Pumice_rect,8,4.419,0,11,0,11,0,1,,,,,,,,,,,,,
63d176dbaef5e7827cd86954,SCR,2024-06-20_15h36.15.634,LearnStrategy,2023.2.3,Win32,59.52380952,1,1,13,-0.556481467,0.062037044,1,0,0,1.2592,Pumice_02,8,02,4,1,1.259,8,02,0.366666723,-0.412962949,1,0,0,2.1666,Pumice_rect,8,2.167,1,12,0,12,0,1,,,,,,,,,,,,,
63d176dbaef5e7827cd86954,SCR,2024-06-20_15h36.15.634,LearnStrategy,2023.2.3,Win32,59.52380952,1,1,14,-0.392592571,-0.236111111,1,0,0,1.4654,Pumice_05,8,05,2,2,1.465,8,05,0.381481453,-0.412962949,1,0,0,3.0643,Pumice_rect,8,3.064,1,13,0,13,0,1,,,,,,,,,,,,,
63d176dbaef5e7827cd86954,SCR,2024-06-20_15h36.15.634,LearnStrategy,2023.2.3,Win32,59.52380952,1,1,15,0.212037051,-0.42777782,1,0,0,1.2628,Peridotite_14,7,14,1,6,1.263,7,14,0.124074088,-0.40370369,1,0,0,2.6893,Peridotite_rect,7,2.689,1,14,0,14,0,1,,,,,,,,,,,,,
63d176dbaef5e7827cd86954,SCR,2024-06-20_15h36.15.634,LearnStrategy,2023.2.3,Win32,59.52380952,1,1,16,0.209259245,-0.240740741,1,0,0,1.2215,Obsidian_10,5,10,2,6,1.221,5,10,-0.349074081,-0.408333319,1,0,0,1.7848,Obsidian_rect,5,1.785,1,15,0,15,0,1,,,,,,,,,,,,,
63d176dbaef5e7827cd86954,SCR,2024-06-20_15h36.15.634,LearnStrategy,2023.2.3,Win32,59.52380952,1,2,1,,,,,,,,7,15,,,,,,,,,,,,,7,2.645,1,,,,,,0.174074102,-0.414814843,1,0,0,2.6453,Peridotite_rect,0,0,0,0,1,
63d176dbaef5e7827cd86954,SCR,2024-06-20_15h36.15.634,LearnStrategy,2023.2.3,Win32,59.52380952,1,2,2,,,,,,,,2,06,,,,,,,,,,,,,2,4.5,1,,,,,,-0.10555557,-0.251851894,1,0,0,4.5003,Basalt_rect,1,0,1,0,1,
63d176dbaef5e7827cd86954,SCR,2024-06-20_15h36.15.634,LearnStrategy,2023.2.3,Win32,59.52380952,1,2,3,,,,,,,,5,06,,,,,,,,,,,,,5,2.705,1,,,,,,-0.372222229,-0.39907406,1,0,0,2.7047,Obsidian_rect,2,0,2,0,1,
63d176dbaef5e7827cd86954,SCR,2024-06-20_15h36.15.634,LearnStrategy,2023.2.3,Win32,59.52380952,1,2,4,,,,,,,,6,10,,,,,,,,,,,,,6,7.05,1,,,,,,-0.16851849,-0.408333319,1,0,0,7.05,Pegmatite_rect,3,0,3,0,1,
63d176dbaef5e7827cd86954,SCR,2024-06-20_15h36.15.634,LearnStrategy,2023.2.3,Win32,59.52380952,1,2,5,,,,,,,,8,08,,,,,,,,,,,,,8,3.568,1,,,,,,0.382407436,-0.39907406,1,0,0,3.5682,Pumice_rect,4,0,4,0,1,
63d176dbaef5e7827cd86954,SCR,2024-06-20_15h36.15.634,LearnStrategy,2023.2.3,Win32,59.52380952,1,2,6,,,,,,,,5,05,,,,,,,,,,,,,5,3.339,1,,,,,,-0.37037037,-0.406481496,1,0,0,3.3385,Obsidian_rect,5,0,5,0,1,
63d176dbaef5e7827cd86954,SCR,2024-06-20_15h36.15.634,LearnStrategy,2023.2.3,Win32,59.52380952,1,2,7,,,,,,,,1,05,,,,,,,,,,,,,1,7.656,1,,,,,,-0.349999993,-0.25462963,1,0,0,7.6564,Andesite_rect,6,0,6,0,1,
63d176dbaef5e7827cd86954,SCR,2024-06-20_15h36.15.634,LearnStrategy,2023.2.3,Win32,59.52380952,1,2,8,,,,,,,,8,16,,,,,,,,,,,,,2,2.65,0,,,,,,-0.182407379,-0.239814829,1,0,0,2.6496,Basalt_rect,7,0,7,0,1,
63d176dbaef5e7827cd86954,SCR,2024-06-20_15h36.15.634,LearnStrategy,2023.2.3,Win32,59.52380952,1,2,9,,,,,,,,2,09,,,,,,,,,,,,,2,3.098,1,,,,,,-0.182407379,-0.239814829,1,0,0,3.0983,Basalt_rect,8,0,8,0,1,
63d176dbaef5e7827cd86954,SCR,2024-06-20_15h36.15.634,LearnStrategy,2023.2.3,Win32,59.52380952,1,2,10,,,,,,,,6,08,,,,,,,,,,,,,3,4.051,0,,,,,,0.134259259,-0.24537037,1,0,0,4.051,Diorite_rect,9,0,9,0,1,
63d176dbaef5e7827cd86954,SCR,2024-06-20_15h36.15.634,LearnStrategy,2023.2.3,Win32,59.52380952,1,2,11,,,,,,,,1,03,,,,,,,,,,,,,1,4.096,1,,,,,,-0.340740734,-0.236111111,1,0,0,4.0963,Andesite_rect,10,0,10,0,1,
63d176dbaef5e7827cd86954,SCR,2024-06-20_15h36.15.634,LearnStrategy,2023.2.3,Win32,59.52380952,1,2,12,,,,,,,,7,06,,,,,,,,,,,,,7,3.916,1,,,,,,0.092592593,-0.401851866,1,0,0,3.9163,Peridotite_rect,11,0,11,0,1,
63d176dbaef5e7827cd86954,SCR,2024-06-20_15h36.15.634,LearnStrategy,2023.2.3,Win32,59.52380952,1,2,13,,,,,,,,3,12,,,,,,,,,,,,,6,7.482,0,,,,,,-0.099074046,-0.393518519,1,0,0,7.4819,Pegmatite_rect,12,0,12,0,1,
63d176dbaef5e7827cd86954,SCR,2024-06-20_15h36.15.634,LearnStrategy,2023.2.3,Win32,59.52380952,1,2,14,,,,,,,,4,16,,,,,,,,,,,,,2,7.163,0,,,,,,-0.111111111,-0.252777806,1,0,0,7.1629,Basalt_rect,13,0,13,0,1,
63d176dbaef5e7827cd86954,SCR,2024-06-20_15h36.15.634,LearnStrategy,2023.2.3,Win32,59.52380952,1,2,15,,,,,,,,3,09,,,,,,,,,,,,,3,1.717,1,,,,,,0.121296282,-0.25462963,1,0,0,1.7171,Diorite_rect,14,0,14,0,1,
63d176dbaef5e7827cd86954,SCR,2024-06-20_15h36.15.634,LearnStrategy,2023.2.3,Win32,59.52380952,1,2,16,,,,,,,,4,13,,,,,,,,,,,,,2,8.191,0,,,,,,-0.054629644,-0.247222265,1,0,0,8.191,Basalt_rect,15,0,15,0,1,
63d176dbaef5e7827cd86954,SCR,2024-06-20_15h36.15.634,LearnStrategy,2023.2.3,Win32,59.52380952,2,1,1,-0.244444459,0.276851848,1,0,0,10.6845,Gabbro_05,4,05,5,3,10.684,4,05,0.376851824,-0.253703718,1,0,0,6.3304,Gabbro_rect,4,6.33,1,0,0,0,0,1,,,,,,,,,,,,,
63d176dbaef5e7827cd86954,SCR,2024-06-20_15h36.15.634,LearnStrategy,2023.2.3,Win32,59.52380952,2,1,2,0.228703746,0.262962959,1,0,0,1.2337,Gabbro_10,4,10,5,6,1.234,4,10,0.375,-0.393518519,1,0,0,13.3145,Pumice_rect,8,13.314,0,1,0,1,0,1,,,,,,,,,,,,,
63d176dbaef5e7827cd86954,SCR,2024-06-20_15h36.15.634,LearnStrategy,2023.2.3,Win32,59.52380952,2,1,3,0.22129631,0.125925912,1,0,0,1.2792,Gabbro_08,4,08,4,6,1.279,4,08,0.362962935,-0.247222265,1,0,0,3.8464,Gabbro_rect,4,3.846,1,2,0,2,0,1,,,,,,,,,,,,,
63d176dbaef5e7827cd86954,SCR,2024-06-20_15h36.15.634,LearnStrategy,2023.2.3,Win32,59.52380952,2,1,4,0.561111168,0.084259245,1,0,0,1.2993,Obsidian_02,5,02,4,8,1.299,5,02,-0.402777778,-0.405555584,1,0,0,1.5903,Obsidian_rect,5,1.59,1,3,0,3,0,1,,,,,,,,,,,,,
63d176dbaef5e7827cd86954,SCR,2024-06-20_15h36.15.634,LearnStrategy,2023.2.3,Win32,59.52380952,2,1,5,-0.432407414,-0.122222265,1,0,0,1.2792,Gabbro_09,4,09,3,2,1.279,4,09,-0.407407407,-0.251851894,1,0,0,11.7543,Andesite_rect,1,11.754,0,4,0,4,0,1,,,,,,,,,,,,,
63d176dbaef5e7827cd86954,SCR,2024-06-20_15h36.15.634,LearnStrategy,2023.2.3,Win32,59.52380952,2,1,6,0.24537037,0.387962959,1,0,0,1.537,Gabbro_14,4,14,6,6,1.537,4,14,-0.095370328,-0.250925912,1,0,0,4.8088,Basalt_rect,2,4.809,0,5,0,5,0,1,,,,,,,,,,,,,
63d176dbaef5e7827cd86954,SCR,2024-06-20_15h36.15.634,LearnStrategy,2023.2.3,Win32,59.52380952,2,1,7,0.569444444,0.269444448,1,0,0,1.1058,Pumice_10,8,10,5,8,1.106,8,10,0.382407436,-0.388888889,1,0,0,1.3469,Pumice_rect,8,1.347,1,6,0,6,0,1,,,,,,,,,,,,,
63d176dbaef5e7827cd86954,SCR,2024-06-20_15h36.15.634,LearnStrategy,2023.2.3,Win32,59.52380952,2,1,8,-0.538888896,0.087962963,1,0,0,1.1769,Pumice_02,8,02,4,1,1.177,8,02,0.381481453,-0.408333319,1,0,0,2.5386,Pumice_rect,8,2.539,1,7,0,7,0,1,,,,,,,,,,,,,
63d176dbaef5e7827cd86954,SCR,2024-06-20_15h36.15.634,LearnStrategy,2023.2.3,Win32,59.52380952,2,1,9,-0.050000014,0.111111111,1,0,0,0.9765,Pegmatite_09,6,09,4,4,0.976,6,09,-0.106481481,-0.414814843,1,0,0,2.4826,Pegmatite_rect,6,2.483,1,8,0,8,0,1,,,,,,,,,,,,,
63d176dbaef5e7827cd86954,SCR,2024-06-20_15h36.15.634,LearnStrategy,2023.2.3,Win32,59.52380952,2,1,10,0.587037122,-0.100000028,1,0,0,1.4053,Pegmatite_12,6,12,3,8,1.405,6,12,0.185185185,-0.260185171,1,0,0,2.9857,Diorite_rect,3,2.986,0,9,0,9,0,1,,,,,,,,,,,,,
63d176dbaef5e7827cd86954,SCR,2024-06-20_15h36.15.634,LearnStrategy,2023.2.3,Win32,59.52380952,2,1,11,-0.214814787,0.086111104,1,0,0,1.1098,Basalt_08,2,08,4,3,1.11,2,08,-0.130555541,-0.243518547,1,0,0,4.085,Basalt_rect,2,4.085,1,10,0,10,0,1,,,,,,,,,,,,,
63d176dbaef5e7827cd86954,SCR,2024-06-20_15h36.15.634,LearnStrategy,2023.2.3,Win32,59.52380952,2,1,12,0.540740826,0.224999993,1,0,0,1.319,Pumice_10,8,10,5,8,1.319,8,10,0.356481481,-0.400000042,1,0,0,1.7009,Pumice_rect,8,1.701,1,11,0,11,0,1,,,,,,,,,,,,,
63d176dbaef5e7827cd86954,SCR,2024-06-20_15h36.15.634,LearnStrategy,2023.2.3,Win32,59.52380952,2,1,13,-0.061111097,0.402777778,1,0,0,1.6774,Diorite_15,3,15,6,4,1.677,3,15,0.107407393,-0.240740741,1,0,0,10.5422,Diorite_rect,3,10.542,1,12,0,12,0,1,,,,,,,,,,,,,
63d176dbaef5e7827cd86954,SCR,2024-06-20_15h36.15.634,LearnStrategy,2023.2.3,Win32,59.52380952,2,1,14,-0.212962963,0.402777778,1,0,0,1.157,Pegmatite_15,6,15,6,3,1.157,6,15,-0.128703718,-0.400000042,1,0,0,1.5863,Pegmatite_rect,6,1.586,1,13,0,13,0,1,,,,,,,,,,,,,
63d176dbaef5e7827cd86954,SCR,2024-06-20_15h36.15.634,LearnStrategy,2023.2.3,Win32,59.52380952,2,1,15,0.388888889,0.081481474,1,0,0,1.4088,Diorite_10,3,10,4,7,1.409,3,10,0.135185171,-0.253703718,1,0,0,5.4553,Diorite_rect,3,5.455,1,14,0,14,0,1,,,,,,,,,,,,,
63d176dbaef5e7827cd86954,SCR,2024-06-20_15h36.15.634,LearnStrategy,2023.2.3,Win32,59.52380952,2,1,16,0.063888903,-0.411111125,1,0,0,1.1572,Diorite_14,3,14,1,5,1.157,3,14,0.114814829,-0.241666653,1,0,0,1.3691,Diorite_rect,3,1.369,1,15,0,15,0,1,,,,,,,,,,,,,
63d176dbaef5e7827cd86954,SCR,2024-06-20_15h36.15.634,LearnStrategy,2023.2.3,Win32,59.52380952,2,2,1,,,,,,,,7,08,,,,,,,,,,,,,7,2.689,1,,,,,,0.106481481,-0.40370369,1,0,0,2.6888,Peridotite_rect,0,0,0,0,1,
63d176dbaef5e7827cd86954,SCR,2024-06-20_15h36.15.634,LearnStrategy,2023.2.3,Win32,59.52380952,2,2,2,,,,,,,,2,10,,,,,,,,,,,,,2,2.898,1,,,,,,-0.099074046,-0.251851894,1,0,0,2.8983,Basalt_rect,1,0,1,0,1,
63d176dbaef5e7827cd86954,SCR,2024-06-20_15h36.15.634,LearnStrategy,2023.2.3,Win32,59.52380952,2,2,3,,,,,,,,6,11,,,,,,,,,,,,,6,2.602,1,,,,,,-0.084259245,-0.411111125,1,0,0,2.6021,Pegmatite_rect,2,0,2,0,1,
63d176dbaef5e7827cd86954,SCR,2024-06-20_15h36.15.634,LearnStrategy,2023.2.3,Win32,59.52380952,2,2,4,,,,,,,,3,11,,,,,,,,,,,,,3,3.365,1,,,,,,0.123148176,-0.237963005,1,0,0,3.365,Diorite_rect,3,0,3,0,1,
63d176dbaef5e7827cd86954,SCR,2024-06-20_15h36.15.634,LearnStrategy,2023.2.3,Win32,59.52380952,2,2,5,,,,,,,,7,16,,,,,,,,,,,,,4,8.957,0,,,,,,0.358333305,-0.264814801,1,0,0,8.9573,Gabbro_rect,4,0,4,0,1,
63d176dbaef5e7827cd86954,SCR,2024-06-20_15h36.15.634,LearnStrategy,2023.2.3,Win32,59.52380952,2,2,6,,,,,,,,1,16,,,,,,,,,,,,,1,4.638,1,,,,,,-0.41111109,-0.248148176,1,0,0,4.6379,Andesite_rect,5,0,5,0,1,
63d176dbaef5e7827cd86954,SCR,2024-06-20_15h36.15.634,LearnStrategy,2023.2.3,Win32,59.52380952,2,2,7,,,,,,,,5,16,,,,,,,,,,,,,5,1.225,1,,,,,,-0.409259266,-0.392592607,1,0,0,1.2247,Obsidian_rect,6,0,6,0,1,
63d176dbaef5e7827cd86954,SCR,2024-06-20_15h36.15.634,LearnStrategy,2023.2.3,Win32,59.52380952,2,2,8,,,,,,,,4,01,,,,,,,,,,,,,4,4.575,1,,,,,,0.40370376,-0.262962977,1,0,0,4.5745,Gabbro_rect,7,0,7,0,1,
63d176dbaef5e7827cd86954,SCR,2024-06-20_15h36.15.634,LearnStrategy,2023.2.3,Win32,59.52380952,2,2,9,,,,,,,,3,08,,,,,,,,,,,,,3,1.479,1,,,,,,0.12962963,-0.250925912,1,0,0,1.479,Diorite_rect,8,0,8,0,1,
63d176dbaef5e7827cd86954,SCR,2024-06-20_15h36.15.634,LearnStrategy,2023.2.3,Win32,59.52380952,2,2,10,,,,,,,,6,06,,,,,,,,,,,,,6,2.466,1,,,,,,-0.09629631,-0.397222236,1,0,0,2.4657,Pegmatite_rect,9,0,9,0,1,
63d176dbaef5e7827cd86954,SCR,2024-06-20_15h36.15.634,LearnStrategy,2023.2.3,Win32,59.52380952,2,2,11,,,,,,,,8,15,,,,,,,,,,,,,8,2.2,1,,,,,,0.377777806,-0.415740755,1,0,0,2.2002,Pumice_rect,10,0,10,0,1,
63d176dbaef5e7827cd86954,SCR,2024-06-20_15h36.15.634,LearnStrategy,2023.2.3,Win32,59.52380952,2,2,12,,,,,,,,2,05,,,,,,,,,,,,,2,2.015,1,,,,,,-0.10092594,-0.239814829,1,0,0,2.0146,Basalt_rect,11,0,11,0,1,
63d176dbaef5e7827cd86954,SCR,2024-06-20_15h36.15.634,LearnStrategy,2023.2.3,Win32,59.52380952,2,2,13,,,,,,,,5,07,,,,,,,,,,,,,5,2,1,,,,,,-0.377777771,-0.387037065,1,0,0,2.0002,Obsidian_rect,12,0,12,0,1,
63d176dbaef5e7827cd86954,SCR,2024-06-20_15h36.15.634,LearnStrategy,2023.2.3,Win32,59.52380952,2,2,14,,,,,,,,1,06,,,,,,,,,,,,,1,2.812,1,,,,,,-0.39166666,-0.253703718,1,0,0,2.8121,Andesite_rect,13,0,13,0,1,
63d176dbaef5e7827cd86954,SCR,2024-06-20_15h36.15.634,LearnStrategy,2023.2.3,Win32,59.52380952,2,2,15,,,,,,,,4,15,,,,,,,,,,,,,6,9.797,0,,,,,,-0.182407379,-0.405555584,1,0,0,9.7967,Pegmatite_rect,14,0,14,0,1,
63d176dbaef5e7827cd86954,SCR,2024-06-20_15h36.15.634,LearnStrategy,2023.2.3,Win32,59.52380952,2,2,16,,,,,,,,8,09,,,,,,,,,,,,,8,1.577,1,,,,,,0.362962935,-0.39444443,1,0,0,1.5774,Pumice_rect,15,0,15,0,1,
63d176dbaef5e7827cd86954,SCR,2024-06-20_15h36.15.634,LearnStrategy,2023.2.3,Win32,59.52380952,3,1,1,-0.402777778,0.098148134,1,0,0,1.1195,Peridotite_10,7,10,4,2,1.12,7,10,0.095370399,-0.395370413,1,0,0,2.5108,Peridotite_rect,7,2.511,1,0,0,0,0,1,,,,,,,,,,,,,
63d176dbaef5e7827cd86954,SCR,2024-06-20_15h36.15.634,LearnStrategy,2023.2.3,Win32,59.52380952,3,1,2,0.377777806,-0.076851845,1,0,0,1.2455,Diorite_07,3,07,3,7,1.245,3,07,0.110185199,-0.240740741,1,0,0,1.5494,Diorite_rect,3,1.549,1,1,0,1,0,1,,,,,,,,,,,,,
63d176dbaef5e7827cd86954,SCR,2024-06-20_15h36.15.634,LearnStrategy,2023.2.3,Win32,59.52380952,3,1,3,-0.238888847,-0.104629658,1,0,0,1.1531,Pumice_04,8,04,3,3,1.153,8,04,0.393518519,-0.400925954,1,0,0,1.451,Pumice_rect,8,1.451,1,2,0,2,0,1,,,,,,,,,,,,,
63d176dbaef5e7827cd86954,SCR,2024-06-20_15h36.15.634,LearnStrategy,2023.2.3,Win32,59.52380952,3,1,4,-0.063888903,-0.240740741,1,0,0,1.2183,Obsidian_08,5,08,2,4,1.218,5,08,-0.349999993,-0.387037065,1,0,0,1.2362,Obsidian_rect,5,1.236,1,3,0,3,0,1,,,,,,,,,,,,,
63d176dbaef5e7827cd86954,SCR,2024-06-20_15h36.15.634,LearnStrategy,2023.2.3,Win32,59.52380952,3,1,5,0.562962991,-0.39907406,1,0,0,1.2232,Pegmatite_05,6,05,1,8,1.223,6,05,-0.062037009,-0.410185213,1,0,0,10.6859,Pegmatite_rect,6,10.686,1,4,0,4,0,1,,,,,,,,,,,,,
63d176dbaef5e7827cd86954,SCR,2024-06-20_15h36.15.634,LearnStrategy,2023.2.3,Win32,59.52380952,3,1,6,-0.200925898,0.284259249,1,0,0,1.0992,Gabbro_05,4,05,5,3,1.099,4,05,0.392592677,-0.236111111,1,0,0,3.3615,Gabbro_rect,4,3.361,1,5,0,5,0,1,,,,,,,,,,,,,
63d176dbaef5e7827cd86954,SCR,2024-06-20_15h36.15.634,LearnStrategy,2023.2.3,Win32,59.52380952,3,1,7,0.238888917,0.388888889,1,0,0,1.6418,Gabbro_14,4,14,6,6,1.642,4,14,0.37962963,-0.243518547,1,0,0,5.733,Gabbro_rect,4,5.733,1,6,0,6,0,1,,,,,,,,,,,,,
63d176dbaef5e7827cd86954,SCR,2024-06-20_15h36.15.634,LearnStrategy,2023.2.3,Win32,59.52380952,3,1,8,-0.239814829,0.282407407,1,0,0,1.1307,Gabbro_05,4,05,5,3,1.131,4,05,0.376851824,-0.237037023,1,0,0,6.8912,Gabbro_rect,4,6.891,1,7,0,7,0,1,,,,,,,,,,,,,
63d176dbaef5e7827cd86954,SCR,2024-06-20_15h36.15.634,LearnStrategy,2023.2.3,Win32,59.52380952,3,1,9,0.190740727,0.422222217,1,0,0,1.2272,Gabbro_14,4,14,6,6,1.227,4,14,0.382407436,-0.236111111,1,0,0,3.5941,Gabbro_rect,4,3.594,1,8,0,8,0,1,,,,,,,,,,,,,
63d176dbaef5e7827cd86954,SCR,2024-06-20_15h36.15.634,LearnStrategy,2023.2.3,Win32,59.52380952,3,1,10,-0.237962935,0.387037039,1,0,0,1.207,Pegmatite_15,6,15,6,3,1.207,6,15,-0.099999958,-0.390740783,1,0,0,2.817,Pegmatite_rect,6,2.817,1,9,0,9,0,1,,,,,,,,,,,,,
63d176dbaef5e7827cd86954,SCR,2024-06-20_15h36.15.634,LearnStrategy,2023.2.3,Win32,59.52380952,3,1,11,-0.366666653,-0.122222265,1,0,0,1.2135,Gabbro_09,4,09,3,2,1.214,4,09,0.413888861,-0.262037065,1,0,0,6.2116,Gabbro_rect,4,6.212,1,10,0,10,0,1,,,,,,,,,,,,,
63d176dbaef5e7827cd86954,SCR,2024-06-20_15h36.15.634,LearnStrategy,2023.2.3,Win32,59.52380952,3,1,12,0.055555556,-0.398148148,1,0,0,1.1036,Diorite_14,3,14,1,5,1.104,3,14,0.113888917,-0.261111153,1,0,0,1.2739,Diorite_rect,3,1.274,1,11,0,11,0,1,,,,,,,,,,,,,
63d176dbaef5e7827cd86954,SCR,2024-06-20_15h36.15.634,LearnStrategy,2023.2.3,Win32,59.52380952,3,1,13,0.05277782,0.38518518,1,0,0,1.3828,Pumice_03,8,03,6,5,1.383,8,03,0.347222222,-0.391666695,1,0,0,1.4809,Pumice_rect,8,1.481,1,12,0,12,0,1,,,,,,,,,,,,,
63d176dbaef5e7827cd86954,SCR,2024-06-20_15h36.15.634,LearnStrategy,2023.2.3,Win32,59.52380952,3,1,14,0.240740741,-0.408333319,1,0,0,1.3145,Peridotite_14,7,14,1,6,1.314,7,14,0.117592635,-0.391666695,1,0,0,9.5159,Peridotite_rect,7,9.516,1,13,0,13,0,1,,,,,,,,,,,,,
63d176dbaef5e7827cd86954,SCR,2024-06-20_15h36.15.634,LearnStrategy,2023.2.3,Win32,59.52380952,3,1,15,-0.23055557,0.076851845,1,0,0,1.2389,Basalt_08,2,08,4,3,1.239,2,08,-0.151851866,-0.243518547,1,0,0,2.3359,Basalt_rect,2,2.336,1,14,0,14,0,1,,,,,,,,,,,,,
63d176dbaef5e7827cd86954,SCR,2024-06-20_15h36.15.634,LearnStrategy,2023.2.3,Win32,59.52380952,3,1,16,0.067592621,-0.091666681,1,0,0,0.8871,Andesite_10,1,10,3,5,0.887,1,10,-0.353703711,-0.243518547,1,0,0,5.2768,Andesite_rect,1,5.277,1,15,0,15,0,1,,,,,,,,,,,,,
63d176dbaef5e7827cd86954,SCR,2024-06-20_15h36.15.634,LearnStrategy,2023.2.3,Win32,59.52380952,3,2,1,,,,,,,,2,12,,,,,,,,,,,,,1,14.028,0,,,,,,-0.438888868,-0.263888889,1,0,0,14.0283,Andesite_rect,0,0,0,0,1,
63d176dbaef5e7827cd86954,SCR,2024-06-20_15h36.15.634,LearnStrategy,2023.2.3,Win32,59.52380952,3,2,2,,,,,,,,1,04,,,,,,,,,,,,,1,6.964,1,,,,,,-0.360185164,-0.262962977,1,0,0,6.9643,Andesite_rect,1,0,1,0,1,
63d176dbaef5e7827cd86954,SCR,2024-06-20_15h36.15.634,LearnStrategy,2023.2.3,Win32,59.52380952,3,2,3,,,,,,,,7,02,,,,,,,,,,,,,7,3.114,1,,,,,,0.074074074,-0.381481524,1,0,0,3.1135,Peridotite_rect,2,0,2,0,1,
63d176dbaef5e7827cd86954,SCR,2024-06-20_15h36.15.634,LearnStrategy,2023.2.3,Win32,59.52380952,3,2,4,,,,,,,,3,06,,,,,,,,,,,,,3,3.012,1,,,,,,0.12962963,-0.262962977,1,0,0,3.0124,Diorite_rect,3,0,3,0,1,
63d176dbaef5e7827cd86954,SCR,2024-06-20_15h36.15.634,LearnStrategy,2023.2.3,Win32,59.52380952,3,2,5,,,,,,,,6,13,,,,,,,,,,,,,6,2.212,1,,,,,,-0.109259217,-0.406481496,1,0,0,2.2123,Pegmatite_rect,4,0,4,0,1,
63d176dbaef5e7827cd86954,SCR,2024-06-20_15h36.15.634,LearnStrategy,2023.2.3,Win32,59.52380952,3,2,6,,,,,,,,4,11,,,,,,,,,,,,,4,2.973,1,,,,,,0.375,-0.262962977,1,0,0,2.9732,Gabbro_rect,5,0,5,0,1,
63d176dbaef5e7827cd86954,SCR,2024-06-20_15h36.15.634,LearnStrategy,2023.2.3,Win32,59.52380952,3,2,7,,,,,,,,3,13,,,,,,,,,,,,,3,1.84,1,,,,,,0.10555557,-0.253703718,1,0,0,1.8401,Diorite_rect,6,0,6,0,1,
63d176dbaef5e7827cd86954,SCR,2024-06-20_15h36.15.634,LearnStrategy,2023.2.3,Win32,59.52380952,3,2,8,,,,,,,,8,14,,,,,,,,,,,,,8,1.53,1,,,,,,0.37962963,-0.406481496,1,0,0,1.5297,Pumice_rect,7,0,7,0,1,
63d176dbaef5e7827cd86954,SCR,2024-06-20_15h36.15.634,LearnStrategy,2023.2.3,Win32,59.52380952,3,2,9,,,,,,,,1,07,,,,,,,,,,,,,1,8.422,1,,,,,,-0.395370377,-0.251851894,1,0,0,8.422,Andesite_rect,8,0,8,0,1,
63d176dbaef5e7827cd86954,SCR,2024-06-20_15h36.15.634,LearnStrategy,2023.2.3,Win32,59.52380952,3,2,10,,,,,,,,4,03,,,,,,,,,,,,,4,2.66,1,,,,,,0.387037065,-0.249074088,1,0,0,2.66,Gabbro_rect,9,0,9,0,1,
63d176dbaef5e7827cd86954,SCR,2024-06-20_15h36.15.634,LearnStrategy,2023.2.3,Win32,59.52380952,3,2,11,,,,,,,,2,16,,,,,,,,,,,,,2,3.256,1,,,,,,-0.133333347,-0.24537037,1,0,0,3.2565,Basalt_rect,10,0,10,0,1,
63d176dbaef5e7827cd86954,SCR,2024-06-20_15h36.15.634,LearnStrategy,2023.2.3,Win32,59.52380952,3,2,12,,,,,,,,5,11,,,,,,,,,,,,,5,1.387,1,,,,,,-0.339814822,-0.398148148,1,0,0,1.3874,Obsidian_rect,11,0,11,0,1,
63d176dbaef5e7827cd86954,SCR,2024-06-20_15h36.15.634,LearnStrategy,2023.2.3,Win32,59.52380952,3,2,13,,,,,,,,5,04,,,,,,,,,,,,,5,1.358,1,,,,,,-0.348148134,-0.383333347,1,0,0,1.3583,Obsidian_rect,12,0,12,0,1,
63d176dbaef5e7827cd86954,SCR,2024-06-20_15h36.15.634,LearnStrategy,2023.2.3,Win32,59.52380952,3,2,14,,,,,,,,6,16,,,,,,,,,,,,,6,2.437,1,,,,,,-0.099074046,-0.397222236,1,0,0,2.437,Pegmatite_rect,13,0,13,0,1,
63d176dbaef5e7827cd86954,SCR,2024-06-20_15h36.15.634,LearnStrategy,2023.2.3,Win32,59.52380952,3,2,15,,,,,,,,8,06,,,,,,,,,,,,,8,1.54,1,,,,,,0.376851824,-0.40370369,1,0,0,1.5398,Pumice_rect,14,0,14,0,1,
63d176dbaef5e7827cd86954,SCR,2024-06-20_15h36.15.634,LearnStrategy,2023.2.3,Win32,59.52380952,3,2,16,,,,,,,,7,04,,,,,,,,,,,,,6,7.395,0,,,,,,-0.082407422,-0.408333319,1,0,0,7.3947,Pegmatite_rect,15,0,15,0,1,
63d176dbaef5e7827cd86954,SCR,2024-06-20_15h36.15.634,LearnStrategy,2023.2.3,Win32,59.52380952,4,1,1,0.058333362,-0.087037051,1,0,0,1.7672,Andesite_10,1,10,3,5,1.767,1,10,-0.377777771,-0.253703718,1,0,0,5.4331,Andesite_rect,1,5.433,1,0,0,0,0,1,,,,,,,,,,,,,
63d176dbaef5e7827cd86954,SCR,2024-06-20_15h36.15.634,LearnStrategy,2023.2.3,Win32,59.52380952,4,1,2,0.204629616,-0.255555541,1,0,0,1.0925,Obsidian_10,5,10,2,6,1.092,5,10,-0.372222229,-0.416666667,1,0,0,1.6344,Obsidian_rect,5,1.634,1,1,0,1,0,1,,,,,,,,,,,,,
63d176dbaef5e7827cd86954,SCR,2024-06-20_15h36.15.634,LearnStrategy,2023.2.3,Win32,59.52380952,4,1,3,-0.069444444,0.127777771,1,0,0,10.684,Pegmatite_09,6,09,4,4,10.684,6,09,-0.133333347,-0.398148148,1,0,0,1.2483,Pegmatite_rect,6,1.248,1,2,0,2,0,1,,,,,,,,,,,,,
63d176dbaef5e7827cd86954,SCR,2024-06-20_15h36.15.634,LearnStrategy,2023.2.3,Win32,59.52380952,4,1,4,-0.39907406,-0.402777778,1,0,0,1.5001,Basalt_04,2,04,1,2,1.5,2,04,-0.170370384,-0.258333347,1,0,0,1.5395,Basalt_rect,2,1.539,1,3,0,3,0,1,,,,,,,,,,,,,
63d176dbaef5e7827cd86954,SCR,2024-06-20_15h36.15.634,LearnStrategy,2023.2.3,Win32,59.52380952,4,1,5,0.412963019,-0.116666653,1,0,0,1.7016,Diorite_07,3,07,3,7,1.702,3,07,0.113888917,-0.231481481,1,0,0,1.1802,Diorite_rect,3,1.18,1,4,0,4,0,1,,,,,,,,,,,,,
63d176dbaef5e7827cd86954,SCR,2024-06-20_15h36.15.634,LearnStrategy,2023.2.3,Win32,59.52380952,4,1,6,0.220370399,0.441666665,1,0,0,2.185,Gabbro_14,4,14,6,6,2.185,4,14,0.366666723,-0.247222265,1,0,0,1.9472,Gabbro_rect,4,1.947,1,5,0,5,0,1,,,,,,,,,,,,,
63d176dbaef5e7827cd86954,SCR,2024-06-20_15h36.15.634,LearnStrategy,2023.2.3,Win32,59.52380952,4,1,7,-0.53611109,-0.417592578,1,0,0,3.312,Andesite_11,1,11,1,1,3.312,4,09,-0.420370349,-0.242592635,1,0,0,2.0199,Andesite_rect,1,2.02,1,6,0,6,0,1,,,,,,,,,,,,,
63d176dbaef5e7827cd86954,SCR,2024-06-20_15h36.15.634,LearnStrategy,2023.2.3,Win32,59.52380952,4,1,8,-0.081481439,-0.414814843,1,0,0,5.5922,Andesite_01,1,01,1,4,5.592,4,12,-0.3824074,-0.231481481,1,0,0,5.7254,Andesite_rect,1,5.725,1,7,0,7,0,1,,,,,,,,,,,,,
63d176dbaef5e7827cd86954,SCR,2024-06-20_15h36.15.634,LearnStrategy,2023.2.3,Win32,59.52380952,4,1,9,0.092592593,0.090740734,1,0,0,10.0081,Peridotite_12,7,12,4,5,10.008,8,13,0.117592635,-0.385185171,1,0,0,2.3544,Peridotite_rect,7,2.354,1,8,0,8,0,1,,,,,,,,,,,,,
63d176dbaef5e7827cd86954,SCR,2024-06-20_15h36.15.634,LearnStrategy,2023.2.3,Win32,59.52380952,4,1,10,-0.534259266,-0.102777764,1,0,0,1.7375,Peridotite_13,7,13,3,1,1.737,7,13,0.109259288,-0.408333319,1,0,0,2.8571,Peridotite_rect,7,2.857,1,9,0,9,0,1,,,,,,,,,,,,,
63d176dbaef5e7827cd86954,SCR,2024-06-20_15h36.15.634,LearnStrategy,2023.2.3,Win32,59.52380952,4,1,11,0.241666653,-0.080555563,1,0,0,1.0347,Peridotite_05,7,05,3,6,1.035,7,05,0.127777806,-0.40370369,1,0,0,2.9923,Peridotite_rect,7,2.992,1,10,0,10,0,1,,,,,,,,,,,,,
63d176dbaef5e7827cd86954,SCR,2024-06-20_15h36.15.634,LearnStrategy,2023.2.3,Win32,59.52380952,4,1,12,-0.38703703,0.414814817,1,0,0,7.0074,Basalt_14,2,14,6,2,7.007,2,01,-0.099999958,-0.25,1,0,0,2.0496,Basalt_rect,2,2.05,1,11,0,11,0,1,,,,,,,,,,,,,
63d176dbaef5e7827cd86954,SCR,2024-06-20_15h36.15.634,LearnStrategy,2023.2.3,Win32,59.52380952,4,1,13,0.571296268,-0.272222236,1,0,0,1.483,Diorite_02,3,02,2,8,1.483,3,02,0.171296296,-0.24537037,1,0,0,2.2556,Diorite_rect,3,2.256,1,12,0,12,0,1,,,,,,,,,,,,,
63d176dbaef5e7827cd86954,SCR,2024-06-20_15h36.15.634,LearnStrategy,2023.2.3,Win32,59.52380952,4,1,14,0.40370376,0.394444439,1,0,0,6.0132,Pegmatite_03,6,03,6,7,6.013,2,11,-0.110185199,-0.397222236,1,0,0,1.9607,Pegmatite_rect,6,1.961,1,13,0,13,0,1,,,,,,,,,,,,,
63d176dbaef5e7827cd86954,SCR,2024-06-20_15h36.15.634,LearnStrategy,2023.2.3,Win32,59.52380952,4,1,15,0.555555556,-0.438888903,1,0,0,1.7253,Pegmatite_05,6,05,1,8,1.725,6,05,0.17777782,-0.25,1,0,0,3.0553,Diorite_rect,3,3.055,0,14,0,14,0,1,,,,,,,,,,,,,
63d176dbaef5e7827cd86954,SCR,2024-06-20_15h36.15.634,LearnStrategy,2023.2.3,Win32,59.52380952,4,1,16,0.065740727,-0.258333347,1,0,0,3.8287,Diorite_16,3,16,2,5,3.829,7,13,0.118518547,-0.236111111,1,0,0,1.5842,Diorite_rect,3,1.584,1,15,0,15,0,1,,,,,,,,,,,,,
63d176dbaef5e7827cd86954,SCR,2024-06-20_15h36.15.634,LearnStrategy,2023.2.3,Win32,59.52380952,4,2,1,,,,,,,,6,08,,,,,,,,,,,,,6,2.259,1,,,,,,-0.101851852,-0.413888931,1,0,0,2.2591,Pegmatite_rect,0,0,0,0,1,
63d176dbaef5e7827cd86954,SCR,2024-06-20_15h36.15.634,LearnStrategy,2023.2.3,Win32,59.52380952,4,2,2,,,,,,,,8,08,,,,,,,,,,,,,8,2.646,1,,,,,,0.383333418,-0.395370413,1,0,0,2.6463,Pumice_rect,1,0,1,0,1,
63d176dbaef5e7827cd86954,SCR,2024-06-20_15h36.15.634,LearnStrategy,2023.2.3,Win32,59.52380952,4,2,3,,,,,,,,1,03,,,,,,,,,,,,,1,1.993,1,,,,,,-0.424999979,-0.247222265,1,0,0,1.9929,Andesite_rect,2,0,2,0,1,
63d176dbaef5e7827cd86954,SCR,2024-06-20_15h36.15.634,LearnStrategy,2023.2.3,Win32,59.52380952,4,2,4,,,,,,,,2,09,,,,,,,,,,,,,2,6.948,1,,,,,,-0.157407407,-0.24537037,1,0,0,6.948,Basalt_rect,3,0,3,0,1,
63d176dbaef5e7827cd86954,SCR,2024-06-20_15h36.15.634,LearnStrategy,2023.2.3,Win32,59.52380952,4,2,5,,,,,,,,3,11,,,,,,,,,,,,,3,3.141,1,,,,,,0.099074116,-0.262037065,1,0,0,3.1409,Diorite_rect,4,0,4,0,1,
63d176dbaef5e7827cd86954,SCR,2024-06-20_15h36.15.634,LearnStrategy,2023.2.3,Win32,59.52380952,4,2,6,,,,,,,,2,16,,,,,,,,,,,,,2,5.861,1,,,,,,-0.075925898,-0.237037023,1,0,0,5.8611,Basalt_rect,5,0,5,0,1,
63d176dbaef5e7827cd86954,SCR,2024-06-20_15h36.15.634,LearnStrategy,2023.2.3,Win32,59.52380952,4,2,7,,,,,,,,7,06,,,,,,,,,,,,,7,8.079,1,,,,,,0.143518519,-0.414814843,1,0,0,8.0787,Peridotite_rect,6,0,6,0,1,
63d176dbaef5e7827cd86954,SCR,2024-06-20_15h36.15.634,LearnStrategy,2023.2.3,Win32,59.52380952,4,2,8,,,,,,,,3,06,,,,,,,,,,,,,3,2.052,1,,,,,,0.115740741,-0.255555541,1,0,0,2.0523,Diorite_rect,7,0,7,0,1,
63d176dbaef5e7827cd86954,SCR,2024-06-20_15h36.15.634,LearnStrategy,2023.2.3,Win32,59.52380952,4,2,9,,,,,,,,6,16,,,,,,,,,,,,,6,11.088,1,,,,,,-0.066666638,-0.383333347,1,0,0,11.0877,Pegmatite_rect,8,0,8,0,1,
63d176dbaef5e7827cd86954,SCR,2024-06-20_15h36.15.634,LearnStrategy,2023.2.3,Win32,59.52380952,4,2,10,,,,,,,,8,15,,,,,,,,,,,,,8,2.081,1,,,,,,0.388888889,-0.400000042,1,0,0,2.0808,Pumice_rect,9,0,9,0,1,
63d176dbaef5e7827cd86954,SCR,2024-06-20_15h36.15.634,LearnStrategy,2023.2.3,Win32,59.52380952,4,2,11,,,,,,,,5,04,,,,,,,,,,,,,5,1.534,1,,,,,,-0.340740734,-0.402777778,1,0,0,1.5339,Obsidian_rect,10,0,10,0,1,
63d176dbaef5e7827cd86954,SCR,2024-06-20_15h36.15.634,LearnStrategy,2023.2.3,Win32,59.52380952,4,2,12,,,,,,,,7,04,,,,,,,,,,,,,6,5.125,0,,,,,,-0.128703718,-0.418518561,1,0,0,5.1247,Pegmatite_rect,11,0,11,0,1,
63d176dbaef5e7827cd86954,SCR,2024-06-20_15h36.15.634,LearnStrategy,2023.2.3,Win32,59.52380952,4,2,13,,,,,,,,4,13,,,,,,,,,,,,,4,9.049,1,,,,,,0.425000085,-0.242592635,1,0,0,9.0489,Gabbro_rect,12,0,12,0,1,
63d176dbaef5e7827cd86954,SCR,2024-06-20_15h36.15.634,LearnStrategy,2023.2.3,Win32,59.52380952,4,2,14,,,,,,,,4,15,,,,,,,,,,,,,4,2.037,1,,,,,,0.425000085,-0.242592635,1,0,0,2.0367,Gabbro_rect,13,0,13,0,1,
63d176dbaef5e7827cd86954,SCR,2024-06-20_15h36.15.634,LearnStrategy,2023.2.3,Win32,59.52380952,4,2,15,,,,,,,,5,07,,,,,,,,,,,,,5,1.311,1,,,,,,-0.419444437,-0.396296325,1,0,0,1.3112,Obsidian_rect,14,0,14,0,1,
63d176dbaef5e7827cd86954,SCR,2024-06-20_15h36.15.634,LearnStrategy,2023.2.3,Win32,59.52380952,4,2,16,,,,,,,,1,06,,,,,,,,,,,,,1,1.757,1,,,,,,-0.397222201,-0.244444459,1,0,0,1.7573,Andesite_rect,15,0,15,0,1,
63d176dbaef5e7827cd86954,SCR,2024-06-20_15h36.15.634,LearnStrategy,2023.2.3,Win32,59.52380952,5,1,1,-0.070370356,-0.099074116,1,0,0,8.1514,Basalt_01,2,01,3,4,8.151,2,01,-0.098148134,-0.244444459,1,0,0,1.261,Basalt_rect,2,1.261,1,0,0,0,0,1,,,,,,,,,,,,,
63d176dbaef5e7827cd86954,SCR,2024-06-20_15h36.15.634,LearnStrategy,2023.2.3,Win32,59.52380952,5,1,2,-0.38703703,-0.104629658,1,0,0,1.1647,Gabbro_09,4,09,3,2,1.165,4,09,0.368518547,-0.237037023,1,0,0,4.9576,Gabbro_rect,4,4.958,1,1,0,1,0,1,,,,,,,,,,,,,
63d176dbaef5e7827cd86954,SCR,2024-06-20_15h36.15.634,LearnStrategy,2023.2.3,Win32,59.52380952,5,1,3,0.068518533,0.073148127,1,0,0,1.1092,Peridotite_12,7,12,4,5,1.109,7,12,0.111111111,-0.402777778,1,0,0,1.6362,Peridotite_rect,7,1.636,1,2,0,2,0,1,,,,,,,,,,,,,
63d176dbaef5e7827cd86954,SCR,2024-06-20_15h36.15.634,LearnStrategy,2023.2.3,Win32,59.52380952,5,1,4,-0.224074046,0.111111111,1,0,0,1.0579,Basalt_08,2,08,4,3,1.058,2,08,-0.14907406,-0.246296282,1,0,0,1.3072,Basalt_rect,2,1.307,1,3,0,3,0,1,,,,,,,,,,,,,
63d176dbaef5e7827cd86954,SCR,2024-06-20_15h36.15.634,LearnStrategy,2023.2.3,Win32,59.52380952,5,1,5,0.236111111,0.083333333,1,0,0,1.0092,Gabbro_08,4,08,4,6,1.009,4,08,0.337962963,-0.236111111,1,0,0,2.6858,Gabbro_rect,4,2.686,1,4,0,4,0,1,,,,,,,,,,,,,
63d176dbaef5e7827cd86954,SCR,2024-06-20_15h36.15.634,LearnStrategy,2023.2.3,Win32,59.52380952,5,1,6,0.527777778,0.238888882,1,0,0,1.2473,Pumice_10,8,10,5,8,1.247,8,10,0.397222307,-0.388888889,1,0,0,1.3483,Pumice_rect,8,1.348,1,5,0,5,0,1,,,,,,,,,,,,,
63d176dbaef5e7827cd86954,SCR,2024-06-20_15h36.15.634,LearnStrategy,2023.2.3,Win32,59.52380952,5,1,7,0.380555612,0.445370369,1,0,0,1.2253,Pegmatite_03,6,03,6,7,1.225,6,03,-0.141666624,-0.406481496,1,0,0,1.8533,Pegmatite_rect,6,1.853,1,6,0,6,0,1,,,,,,,,,,,,,
63d176dbaef5e7827cd86954,SCR,2024-06-20_15h36.15.634,LearnStrategy,2023.2.3,Win32,59.52380952,5,1,8,-0.213888875,0.25,1,0,0,0.9877,Gabbro_05,4,05,5,3,0.988,4,05,0.426851908,-0.25,1,0,0,1.7928,Gabbro_rect,4,1.793,1,7,0,7,0,1,,,,,,,,,,,,,
63d176dbaef5e7827cd86954,SCR,2024-06-20_15h36.15.634,LearnStrategy,2023.2.3,Win32,59.52380952,5,1,9,0.078703704,-0.231481481,1,0,0,1.0199,Diorite_16,3,16,2,5,1.02,3,16,0.10092594,-0.236111111,1,0,0,1.3391,Diorite_rect,3,1.339,1,8,0,8,0,1,,,,,,,,,,,,,
63d176dbaef5e7827cd86954,SCR,2024-06-20_15h36.15.634,LearnStrategy,2023.2.3,Win32,59.52380952,5,1,10,-0.40648146,0.092592593,1,0,0,1.0043,Peridotite_10,7,10,4,2,1.004,7,10,0.080555598,-0.385185171,1,0,0,2.0554,Peridotite_rect,7,2.055,1,9,0,9,0,1,,,,,,,,,,,,,
63d176dbaef5e7827cd86954,SCR,2024-06-20_15h36.15.634,LearnStrategy,2023.2.3,Win32,59.52380952,5,1,11,0.526851937,0.400925928,1,0,0,1.3857,Andesite_02,1,02,6,8,1.386,1,02,-0.331481474,-0.24537037,1,0,0,2.6339,Andesite_rect,1,2.634,1,10,0,10,0,1,,,,,,,,,,,,,
63d176dbaef5e7827cd86954,SCR,2024-06-20_15h36.15.634,LearnStrategy,2023.2.3,Win32,59.52380952,5,1,12,0.567592621,-0.055555556,1,0,0,1.0098,Pegmatite_12,6,12,3,8,1.01,6,12,0.15370369,-0.253703718,1,0,0,5.4845,Diorite_rect,3,5.484,0,11,0,11,0,1,,,,,,,,,,,,,
63d176dbaef5e7827cd86954,SCR,2024-06-20_15h36.15.634,LearnStrategy,2023.2.3,Win32,59.52380952,5,1,13,-0.229629587,-0.417592578,1,0,0,1.1,Peridotite_07,7,07,1,3,1.1,7,07,0.125,-0.401851866,1,0,0,1.5286,Peridotite_rect,7,1.529,1,12,0,12,0,1,,,,,,,,,,,,,
63d176dbaef5e7827cd86954,SCR,2024-06-20_15h36.15.634,LearnStrategy,2023.2.3,Win32,59.52380952,5,1,14,0.05740745,0.078703704,1,0,0,0.8587,Peridotite_12,7,12,4,5,0.859,7,12,0.140740783,-0.39907406,1,0,0,1.6603,Peridotite_rect,7,1.66,1,13,0,13,0,1,,,,,,,,,,,,,
63d176dbaef5e7827cd86954,SCR,2024-06-20_15h36.15.634,LearnStrategy,2023.2.3,Win32,59.52380952,5,1,15,-0.25462963,-0.244444459,1,0,0,3.2815,Obsidian_09,5,09,2,3,3.282,5,09,-0.39907406,-0.409259302,1,0,0,0.8461,Obsidian_rect,5,0.846,1,14,0,14,0,1,,,,,,,,,,,,,
63d176dbaef5e7827cd86954,SCR,2024-06-20_15h36.15.634,LearnStrategy,2023.2.3,Win32,59.52380952,5,1,16,0.058333362,0.095370363,1,0,0,0.9266,Peridotite_12,7,12,4,5,0.927,7,12,0.107407393,-0.390740783,1,0,0,2.3407,Peridotite_rect,7,2.341,1,15,0,15,0,1,,,,,,,,,,,,,
63d176dbaef5e7827cd86954,SCR,2024-06-20_15h36.15.634,LearnStrategy,2023.2.3,Win32,59.52380952,5,2,1,,,,,,,,3,08,,,,,,,,,,,,,3,9.532,1,,,,,,0.073148162,-0.23055557,1,0,0,9.5315,Diorite_rect,0,0,0,0,1,
63d176dbaef5e7827cd86954,SCR,2024-06-20_15h36.15.634,LearnStrategy,2023.2.3,Win32,59.52380952,5,2,2,,,,,,,,7,08,,,,,,,,,,,,,7,2.41,1,,,,,,0.121296282,-0.410185213,1,0,0,2.4099,Peridotite_rect,1,0,1,0,1,
63d176dbaef5e7827cd86954,SCR,2024-06-20_15h36.15.634,LearnStrategy,2023.2.3,Win32,59.52380952,5,2,3,,,,,,,,1,16,,,,,,,,,,,,,1,3.178,1,,,,,,-0.334259245,-0.249074088,1,0,0,3.1779,Andesite_rect,2,0,2,0,1,
63d176dbaef5e7827cd86954,SCR,2024-06-20_15h36.15.634,LearnStrategy,2023.2.3,Win32,59.52380952,5,2,4,,,,,,,,2,10,,,,,,,,,,,,,2,2.313,1,,,,,,-0.140740712,-0.263888889,1,0,0,2.3135,Basalt_rect,3,0,3,0,1,
63d176dbaef5e7827cd86954,SCR,2024-06-20_15h36.15.634,LearnStrategy,2023.2.3,Win32,59.52380952,5,2,5,,,,,,,,8,16,,,,,,,,,,,,,8,1.743,1,,,,,,0.388888889,-0.414814843,1,0,0,1.7429,Pumice_rect,4,0,4,0,1,
63d176dbaef5e7827cd86954,SCR,2024-06-20_15h36.15.634,LearnStrategy,2023.2.3,Win32,59.52380952,5,2,6,,,,,,,,1,07,,,,,,,,,,,,,1,5.546,1,,,,,,-0.337037016,-0.246296282,1,0,0,5.5459,Andesite_rect,5,0,5,0,1,
63d176dbaef5e7827cd86954,SCR,2024-06-20_15h36.15.634,LearnStrategy,2023.2.3,Win32,59.52380952,5,2,7,,,,,,,,8,14,,,,,,,,,,,,,8,1.665,1,,,,,,0.42314812,-0.407407407,1,0,0,1.6647,Pumice_rect,6,0,6,0,1,
63d176dbaef5e7827cd86954,SCR,2024-06-20_15h36.15.634,LearnStrategy,2023.2.3,Win32,59.52380952,5,2,8,,,,,,,,5,16,,,,,,,,,,,,,5,1.514,1,,,,,,-0.353703711,-0.395370413,1,0,0,1.5135,Obsidian_rect,7,0,7,0,1,
63d176dbaef5e7827cd86954,SCR,2024-06-20_15h36.15.634,LearnStrategy,2023.2.3,Win32,59.52380952,5,2,9,,,,,,,,3,12,,,,,,,,,,,,,3,6.664,1,,,,,,0.074999986,-0.257407436,1,0,0,6.6643,Diorite_rect,8,0,8,0,1,
63d176dbaef5e7827cd86954,SCR,2024-06-20_15h36.15.634,LearnStrategy,2023.2.3,Win32,59.52380952,5,2,10,,,,,,,,6,10,,,,,,,,,,,,,6,2.042,1,,,,,,-0.12037037,-0.412037037,1,0,0,2.0419,Pegmatite_rect,9,0,9,0,1,
63d176dbaef5e7827cd86954,SCR,2024-06-20_15h36.15.634,LearnStrategy,2023.2.3,Win32,59.52380952,5,2,11,,,,,,,,4,16,,,,,,,,,,,,,4,2.513,1,,,,,,0.369444529,-0.242592635,1,0,0,2.5132,Gabbro_rect,10,0,10,0,1,
63d176dbaef5e7827cd86954,SCR,2024-06-20_15h36.15.634,LearnStrategy,2023.2.3,Win32,59.52380952,5,2,12,,,,,,,,6,11,,,,,,,,,,,,,6,1.677,1,,,,,,-0.112962935,-0.401851866,1,0,0,1.6767,Pegmatite_rect,11,0,11,0,1,
63d176dbaef5e7827cd86954,SCR,2024-06-20_15h36.15.634,LearnStrategy,2023.2.3,Win32,59.52380952,5,2,13,,,,,,,,5,06,,,,,,,,,,,,,5,1.744,1,,,,,,-0.377777771,-0.39907406,1,0,0,1.7439,Obsidian_rect,12,0,12,0,1,
63d176dbaef5e7827cd86954,SCR,2024-06-20_15h36.15.634,LearnStrategy,2023.2.3,Win32,59.52380952,5,2,14,,,,,,,,4,11,,,,,,,,,,,,,4,4.751,1,,,,,,0.337037122,-0.253703718,1,0,0,4.751,Gabbro_rect,13,0,13,0,1,
63d176dbaef5e7827cd86954,SCR,2024-06-20_15h36.15.634,LearnStrategy,2023.2.3,Win32,59.52380952,5,2,15,,,,,,,,2,05,,,,,,,,,,,,,2,1.846,1,,,,,,-0.119444459,-0.262037065,1,0,0,1.8461,Basalt_rect,14,0,14,0,1,
63d176dbaef5e7827cd86954,SCR,2024-06-20_15h36.15.634,LearnStrategy,2023.2.3,Win32,59.52380952,5,2,16,,,,,,,,7,02,,,,,,,,,,,,,7,1.578,1,,,,,,0.112037023,-0.402777778,1,0,0,1.5781,Peridotite_rect,15,0,15,0,1,
63d176dbaef5e7827cd86954,SCR,2024-06-20_15h36.15.634,LearnStrategy,2023.2.3,Win32,59.52380952,6,1,1,0.069444444,0.235185182,1,0,0,1.6206,Obsidian_12,5,12,5,5,1.621,5,12,-0.364814794,-0.405555584,1,0,0,1.3061,Obsidian_rect,5,1.306,1,0,0,0,0,1,,,,,,,,,,,,,
63d176dbaef5e7827cd86954,SCR,2024-06-20_15h36.15.634,LearnStrategy,2023.2.3,Win32,59.52380952,6,1,2,-0.412962949,-0.235185199,1,0,0,1.2384,Pumice_05,8,05,2,2,1.238,8,05,0.442592621,-0.411111125,1,0,0,1.3617,Pumice_rect,8,1.362,1,1,0,1,0,1,,,,,,,,,,,,,
63d176dbaef5e7827cd86954,SCR,2024-06-20_15h36.15.634,LearnStrategy,2023.2.3,Win32,59.52380952,6,1,3,-0.238888847,-0.383333347,1,0,0,1.1611,Peridotite_07,7,07,1,3,1.161,7,07,0.090740769,-0.398148148,1,0,0,2.4835,Peridotite_rect,7,2.484,1,2,0,2,0,1,,,,,,,,,,,,,
63d176dbaef5e7827cd86954,SCR,2024-06-20_15h36.15.634,LearnStrategy,2023.2.3,Win32,59.52380952,6,1,4,-0.249074088,-0.425000014,1,0,0,1.0671,Peridotite_07,7,07,1,3,1.067,7,07,0.124074088,-0.405555584,1,0,0,1.7723,Peridotite_rect,7,1.772,1,3,0,3,0,1,,,,,,,,,,,,,
63d176dbaef5e7827cd86954,SCR,2024-06-20_15h36.15.634,LearnStrategy,2023.2.3,Win32,59.52380952,6,1,5,-0.376851859,0.244444441,1,0,0,1.1688,Pumice_13,8,13,5,2,1.169,8,13,0.394444501,-0.387037065,1,0,0,1.4663,Pumice_rect,8,1.466,1,4,0,4,0,1,,,,,,,,,,,,,
63d176dbaef5e7827cd86954,SCR,2024-06-20_15h36.15.634,LearnStrategy,2023.2.3,Win32,59.52380952,6,1,6,-0.377777771,-0.111111111,1,0,0,1.1173,Gabbro_09,4,09,3,2,1.117,4,09,0.424074102,-0.246296282,1,0,0,2.1041,Gabbro_rect,4,2.104,1,5,0,5,0,1,,,,,,,,,,,,,
63d176dbaef5e7827cd86954,SCR,2024-06-20_15h36.15.634,LearnStrategy,2023.2.3,Win32,59.52380952,6,1,7,0.377777806,-0.418518561,1,0,0,1.071,Andesite_09,1,09,1,7,1.071,1,09,-0.431481467,-0.255555541,1,0,0,1.5771,Andesite_rect,1,1.577,1,6,0,6,0,1,,,,,,,,,,,,,
63d176dbaef5e7827cd86954,SCR,2024-06-20_15h36.15.634,LearnStrategy,2023.2.3,Win32,59.52380952,6,1,8,-0.263888889,0.079629616,1,0,0,0.977,Basalt_08,2,08,4,3,0.977,2,08,-0.159259231,-0.243518547,1,0,0,0.9559,Basalt_rect,2,0.956,1,7,0,7,0,1,,,,,,,,,,,,,
63d176dbaef5e7827cd86954,SCR,2024-06-20_15h36.15.634,LearnStrategy,2023.2.3,Win32,59.52380952,6,1,9,0.22129631,-0.107407393,1,0,0,1.1079,Peridotite_05,7,05,3,6,1.108,7,05,0.191666709,-0.405555584,1,0,0,3.3147,Peridotite_rect,7,3.315,1,8,0,8,0,1,,,,,,,,,,,,,
63d176dbaef5e7827cd86954,SCR,2024-06-20_15h36.15.634,LearnStrategy,2023.2.3,Win32,59.52380952,6,1,10,-0.543518526,-0.081481474,1,0,0,1.1684,Peridotite_13,7,13,3,1,1.168,7,13,0.102777764,-0.404629672,1,0,0,2.9846,Peridotite_rect,7,2.985,1,9,0,9,0,1,,,,,,,,,,,,,
63d176dbaef5e7827cd86954,SCR,2024-06-20_15h36.15.634,LearnStrategy,2023.2.3,Win32,59.52380952,6,1,11,-0.062037009,0.36851852,1,0,0,1.4324,Diorite_15,3,15,6,4,1.432,3,15,0.108333376,-0.24537037,1,0,0,6.4161,Diorite_rect,3,6.416,1,10,0,10,0,1,,,,,,,,,,,,,
63d176dbaef5e7827cd86954,SCR,2024-06-20_15h36.15.634,LearnStrategy,2023.2.3,Win32,59.52380952,6,1,12,0.399074131,-0.262037065,1,0,0,1.1061,Pegmatite_07,6,07,2,7,1.106,6,07,-0.117592564,-0.387962977,1,0,0,1.4536,Pegmatite_rect,6,1.454,1,11,0,11,0,1,,,,,,,,,,,,,
63d176dbaef5e7827cd86954,SCR,2024-06-20_15h36.15.634,LearnStrategy,2023.2.3,Win32,59.52380952,6,1,13,0.376851824,-0.130555541,1,0,0,1.0004,Diorite_07,3,07,3,7,1,3,07,0.111111111,-0.25,1,0,0,1.8601,Diorite_rect,3,1.86,1,12,0,12,0,1,,,,,,,,,,,,,
63d176dbaef5e7827cd86954,SCR,2024-06-20_15h36.15.634,LearnStrategy,2023.2.3,Win32,59.52380952,6,1,14,-0.081481439,-0.128703718,1,0,0,0.8946,Basalt_01,2,01,3,4,0.895,2,01,-0.112962935,-0.231481481,1,0,0,2.6664,Basalt_rect,2,2.666,1,13,0,13,0,1,,,,,,,,,,,,,
63d176dbaef5e7827cd86954,SCR,2024-06-20_15h36.15.634,LearnStrategy,2023.2.3,Win32,59.52380952,6,1,15,0.204629616,0.091666645,1,0,0,0.8193,Gabbro_08,4,08,4,6,0.819,4,08,0.3648149,-0.235185199,1,0,0,2.092,Gabbro_rect,4,2.092,1,14,0,14,0,1,,,,,,,,,,,,,
63d176dbaef5e7827cd86954,SCR,2024-06-20_15h36.15.634,LearnStrategy,2023.2.3,Win32,59.52380952,6,1,16,0.527777778,-0.426851838,1,0,0,1.0474,Pegmatite_05,6,05,1,8,1.047,6,05,-0.063888903,-0.397222236,1,0,0,2.4059,Pegmatite_rect,6,2.406,1,15,0,15,0,1,,,,,,,,,,,,,
63d176dbaef5e7827cd86954,SCR,2024-06-20_15h36.15.634,LearnStrategy,2023.2.3,Win32,59.52380952,6,2,1,,,,,,,,1,05,,,,,,,,,,,,,1,1.883,1,,,,,,-0.376851859,-0.259259259,1,0,0,1.8831,Andesite_rect,0,0,0,0,1,
63d176dbaef5e7827cd86954,SCR,2024-06-20_15h36.15.634,LearnStrategy,2023.2.3,Win32,59.52380952,6,2,2,,,,,,,,6,06,,,,,,,,,,,,,6,3.689,1,,,,,,-0.162962949,-0.400925954,1,0,0,3.689,Pegmatite_rect,1,0,1,0,1,
63d176dbaef5e7827cd86954,SCR,2024-06-20_15h36.15.634,LearnStrategy,2023.2.3,Win32,59.52380952,6,2,3,,,,,,,,6,13,,,,,,,,,,,,,6,1.62,1,,,,,,-0.162962949,-0.400925954,1,0,0,1.6196,Pegmatite_rect,2,0,2,0,1,
63d176dbaef5e7827cd86954,SCR,2024-06-20_15h36.15.634,LearnStrategy,2023.2.3,Win32,59.52380952,6,2,4,,,,,,,,3,09,,,,,,,,,,,,,3,1.507,1,,,,,,0.110185199,-0.250925912,1,0,0,1.5071,Diorite_rect,3,0,3,0,1,
63d176dbaef5e7827cd86954,SCR,2024-06-20_15h36.15.634,LearnStrategy,2023.2.3,Win32,59.52380952,6,2,5,,,,,,,,7,16,,,,,,,,,,,,,7,7.224,1,,,,,,0.134259259,-0.396296325,1,0,0,7.2239,Peridotite_rect,4,0,4,0,1,
63d176dbaef5e7827cd86954,SCR,2024-06-20_15h36.15.634,LearnStrategy,2023.2.3,Win32,59.52380952,6,2,6,,,,,,,,8,09,,,,,,,,,,,,,8,1.224,1,,,,,,0.35555564,-0.401851866,1,0,0,1.2241,Pumice_rect,5,0,5,0,1,
63d176dbaef5e7827cd86954,SCR,2024-06-20_15h36.15.634,LearnStrategy,2023.2.3,Win32,59.52380952,6,2,7,,,,,,,,2,06,,,,,,,,,,,,,2,1.873,1,,,,,,-0.095370328,-0.242592635,1,0,0,1.873,Basalt_rect,6,0,6,0,1,
63d176dbaef5e7827cd86954,SCR,2024-06-20_15h36.15.634,LearnStrategy,2023.2.3,Win32,59.52380952,6,2,8,,,,,,,,4,01,,,,,,,,,,,,,4,2.075,1,,,,,,0.395370342,-0.26944443,1,0,0,2.0747,Gabbro_rect,7,0,7,0,1,
63d176dbaef5e7827cd86954,SCR,2024-06-20_15h36.15.634,LearnStrategy,2023.2.3,Win32,59.52380952,6,2,9,,,,,,,,5,11,,,,,,,,,,,,,5,1.628,1,,,,,,-0.41111109,-0.389814801,1,0,0,1.6279,Obsidian_rect,8,0,8,0,1,
63d176dbaef5e7827cd86954,SCR,2024-06-20_15h36.15.634,LearnStrategy,2023.2.3,Win32,59.52380952,6,2,10,,,,,,,,8,06,,,,,,,,,,,,,8,1.801,1,,,,,,0.376851824,-0.393518519,1,0,0,1.8011,Pumice_rect,9,0,9,0,1,
63d176dbaef5e7827cd86954,SCR,2024-06-20_15h36.15.634,LearnStrategy,2023.2.3,Win32,59.52380952,6,2,11,,,,,,,,2,12,,,,,,,,,,,,,8,7.661,0,,,,,,0.377777806,-0.398148148,1,0,0,7.6615,Pumice_rect,10,0,10,0,1,
63d176dbaef5e7827cd86954,SCR,2024-06-20_15h36.15.634,LearnStrategy,2023.2.3,Win32,59.52380952,6,2,12,,,,,,,,4,03,,,,,,,,,,,,,4,3.965,1,,,,,,0.388888889,-0.25,1,0,0,3.9651,Gabbro_rect,11,0,11,0,1,
63d176dbaef5e7827cd86954,SCR,2024-06-20_15h36.15.634,LearnStrategy,2023.2.3,Win32,59.52380952,6,2,13,,,,,,,,5,05,,,,,,,,,,,,,5,2.4,1,,,,,,-0.322222215,-0.407407407,1,0,0,2.4004,Obsidian_rect,12,0,12,0,1,
63d176dbaef5e7827cd86954,SCR,2024-06-20_15h36.15.634,LearnStrategy,2023.2.3,Win32,59.52380952,6,2,14,,,,,,,,7,15,,,,,,,,,,,,,7,1.525,1,,,,,,0.116666653,-0.395370413,1,0,0,1.5246,Peridotite_rect,13,0,13,0,1,
63d176dbaef5e7827cd86954,SCR,2024-06-20_15h36.15.634,LearnStrategy,2023.2.3,Win32,59.52380952,6,2,15,,,,,,,,3,13,,,,,,,,,,,,,3,1.465,1,,,,,,0.119444459,-0.25,1,0,0,1.4654,Diorite_rect,14,0,14,0,1,
63d176dbaef5e7827cd86954,SCR,2024-06-20_15h36.15.634,LearnStrategy,2023.2.3,Win32,59.52380952,6,2,16,,,,,,,,1,04,,,,,,,,,,,,,1,3.477,1,,,,,,-0.36296297,-0.258333347,1,0,0,3.477,Andesite_rect,15,0,15,0,1,
63d176dbaef5e7827cd86954,SCR,2024-06-20_15h36.15.634,LearnStrategy,2023.2.3,Win32,59.52380952,7,1,1,-0.228703675,0.095370363,1,0,0,1.7516,Basalt_08,2,08,4,3,1.752,2,08,-0.12962963,-0.241666653,1,0,0,2.4819,Basalt_rect,2,2.482,1,0,0,0,0,1,,,,,,,,,,,,,
63d176dbaef5e7827cd86954,SCR,2024-06-20_15h36.15.634,LearnStrategy,2023.2.3,Win32,59.52380952,7,1,2,-0.434259238,-0.423148191,1,0,0,1.2397,Basalt_04,2,04,1,2,1.24,2,04,-0.145370342,-0.237963005,1,0,0,1.4624,Basalt_rect,2,1.462,1,1,0,1,0,1,,,,,,,,,,,,,
63d176dbaef5e7827cd86954,SCR,2024-06-20_15h36.15.634,LearnStrategy,2023.2.3,Win32,59.52380952,7,1,3,-0.363888882,-0.095370399,1,0,0,0.9591,Gabbro_09,4,09,3,2,0.959,4,09,0.391666695,-0.258333347,1,0,0,2.0739,Gabbro_rect,4,2.074,1,2,0,2,0,1,,,,,,,,,,,,,
63d176dbaef5e7827cd86954,SCR,2024-06-20_15h36.15.634,LearnStrategy,2023.2.3,Win32,59.52380952,7,1,4,0.087962963,0.445370369,1,0,0,1.6002,Pumice_03,8,03,6,5,1.6,8,03,0.402777778,-0.383333347,1,0,0,2.0252,Pumice_rect,8,2.025,1,3,0,3,0,1,,,,,,,,,,,,,
63d176dbaef5e7827cd86954,SCR,2024-06-20_15h36.15.634,LearnStrategy,2023.2.3,Win32,59.52380952,7,1,5,-0.546296296,-0.401851866,1,0,0,9.252,Andesite_11,1,11,1,1,9.252,7,10,-0.474999993,-0.267592607,1,0,0,1.3455,Andesite_rect,1,1.345,1,4,0,4,0,1,,,,,,,,,,,,,
63d176dbaef5e7827cd86954,SCR,2024-06-20_15h36.15.634,LearnStrategy,2023.2.3,Win32,59.52380952,7,1,6,0.565740797,-0.398148148,1,0,0,1.3979,Pegmatite_05,6,05,1,8,1.398,6,05,-0.089814787,-0.395370413,1,0,0,2.0511,Pegmatite_rect,6,2.051,1,5,0,5,0,1,,,,,,,,,,,,,
63d176dbaef5e7827cd86954,SCR,2024-06-20_15h36.15.634,LearnStrategy,2023.2.3,Win32,59.52380952,7,1,7,-0.586111104,-0.249074088,1,0,0,2.2506,Basalt_11,2,11,2,1,2.251,2,11,-0.187962921,-0.250925912,1,0,0,2.9193,Basalt_rect,2,2.919,1,6,0,6,0,1,,,,,,,,,,,,,
63d176dbaef5e7827cd86954,SCR,2024-06-20_15h36.15.634,LearnStrategy,2023.2.3,Win32,59.52380952,7,1,8,-0.592592593,-0.087962963,1,0,0,0.9871,Peridotite_13,7,13,3,1,0.987,7,13,0.065740727,-0.396296325,1,0,0,1.184,Peridotite_rect,7,1.184,1,7,0,7,0,1,,,,,,,,,,,,,
63d176dbaef5e7827cd86954,SCR,2024-06-20_15h36.15.634,LearnStrategy,2023.2.3,Win32,59.52380952,7,1,9,-0.554629608,0.275925919,1,0,0,6.6884,Obsidian_14,5,14,5,1,6.688,5,14,-0.392592571,-0.386111153,1,0,0,1.2522,Obsidian_rect,5,1.252,1,8,0,8,0,1,,,,,,,,,,,,,
63d176dbaef5e7827cd86954,SCR,2024-06-20_15h36.15.634,LearnStrategy,2023.2.3,Win32,59.52380952,7,1,10,0.530555584,-0.087962963,1,0,0,1.0938,Pegmatite_12,6,12,3,8,1.094,6,12,-0.065740727,-0.39444443,1,0,0,3.4625,Pegmatite_rect,6,3.462,1,9,0,9,0,1,,,,,,,,,,,,,
63d176dbaef5e7827cd86954,SCR,2024-06-20_15h36.15.634,LearnStrategy,2023.2.3,Win32,59.52380952,7,1,11,0.361111111,-0.099074116,1,0,0,0.9364,Diorite_07,3,07,3,7,0.936,3,07,0.12037037,-0.255555541,1,0,0,1.0473,Diorite_rect,3,1.047,1,10,0,10,0,1,,,,,,,,,,,,,
63d176dbaef5e7827cd86954,SCR,2024-06-20_15h36.15.634,LearnStrategy,2023.2.3,Win32,59.52380952,7,1,12,-0.380555541,0.217592593,1,0,0,1.1142,Pumice_13,8,13,5,2,1.114,8,13,0.365740741,-0.40370369,1,0,0,1.113,Pumice_rect,8,1.113,1,11,0,11,0,1,,,,,,,,,,,,,
63d176dbaef5e7827cd86954,SCR,2024-06-20_15h36.15.634,LearnStrategy,2023.2.3,Win32,59.52380952,7,1,13,0.250925912,-0.411111125,1,0,0,1.1381,Peridotite_14,7,14,1,6,1.138,7,14,0.128703718,-0.414814843,1,0,0,2.2442,Peridotite_rect,7,2.244,1,12,0,12,0,1,,,,,,,,,,,,,
63d176dbaef5e7827cd86954,SCR,2024-06-20_15h36.15.634,LearnStrategy,2023.2.3,Win32,59.52380952,7,1,14,0.421296296,0.236111111,1,0,0,1.2492,Basalt_02,2,02,5,7,1.249,2,02,-0.112037023,-0.240740741,1,0,0,1.4973,Basalt_rect,2,1.497,1,13,0,13,0,1,,,,,,,,,,,,,
63d176dbaef5e7827cd86954,SCR,2024-06-20_15h36.15.634,LearnStrategy,2023.2.3,Win32,59.52380952,7,1,15,0.257407436,0.103703711,1,0,0,0.8042,Gabbro_08,4,08,4,6,0.804,4,08,0.35555564,-0.237037023,1,0,0,1.1969,Gabbro_rect,4,1.197,1,14,0,14,0,1,,,,,,,,,,,,,
63d176dbaef5e7827cd86954,SCR,2024-06-20_15h36.15.634,LearnStrategy,2023.2.3,Win32,59.52380952,7,1,16,-0.099074046,0.252777771,1,0,0,0.9309,Andesite_14,1,14,5,4,0.931,1,14,-0.35833334,-0.249074088,1,0,0,5.6267,Andesite_rect,1,5.627,1,15,0,15,0,1,,,,,,,,,,,,,
63d176dbaef5e7827cd86954,SCR,2024-06-20_15h36.15.634,LearnStrategy,2023.2.3,Win32,59.52380952,7,2,1,,,,,,,,3,11,,,,,,,,,,,,,3,8.022,1,,,,,,0.086111139,-0.248148176,1,0,0,8.0217,Diorite_rect,0,0,0,0,1,
63d176dbaef5e7827cd86954,SCR,2024-06-20_15h36.15.634,LearnStrategy,2023.2.3,Win32,59.52380952,7,2,2,,,,,,,,3,06,,,,,,,,,,,,,3,2.81,1,,,,,,0.086111139,-0.248148176,1,0,0,2.8101,Diorite_rect,1,0,1,0,1,
63d176dbaef5e7827cd86954,SCR,2024-06-20_15h36.15.634,LearnStrategy,2023.2.3,Win32,59.52380952,7,2,3,,,,,,,,6,10,,,,,,,,,,,,,6,1.704,1,,,,,,-0.093518504,-0.407407407,1,0,0,1.7044,Pegmatite_rect,2,0,2,0,1,
63d176dbaef5e7827cd86954,SCR,2024-06-20_15h36.15.634,LearnStrategy,2023.2.3,Win32,59.52380952,7,2,4,,,,,,,,7,15,,,,,,,,,,,,,7,1.475,1,,,,,,0.106481481,-0.402777778,1,0,0,1.4751,Peridotite_rect,3,0,3,0,1,
63d176dbaef5e7827cd86954,SCR,2024-06-20_15h36.15.634,LearnStrategy,2023.2.3,Win32,59.52380952,7,2,5,,,,,,,,5,06,,,,,,,,,,,,,5,1.272,1,,,,,,-0.387962942,-0.392592607,1,0,0,1.2717,Obsidian_rect,4,0,4,0,1,
63d176dbaef5e7827cd86954,SCR,2024-06-20_15h36.15.634,LearnStrategy,2023.2.3,Win32,59.52380952,7,2,6,,,,,,,,7,08,,,,,,,,,,,,,7,2.408,1,,,,,,0.091666681,-0.417592578,1,0,0,2.4079,Peridotite_rect,5,0,5,0,1,
63d176dbaef5e7827cd86954,SCR,2024-06-20_15h36.15.634,LearnStrategy,2023.2.3,Win32,59.52380952,7,2,7,,,,,,,,2,09,,,,,,,,,,,,,2,1.455,1,,,,,,-0.111111111,-0.262962977,1,0,0,1.4547,Basalt_rect,6,0,6,0,1,
63d176dbaef5e7827cd86954,SCR,2024-06-20_15h36.15.634,LearnStrategy,2023.2.3,Win32,59.52380952,7,2,8,,,,,,,,5,04,,,,,,,,,,,,,5,1.604,1,,,,,,-0.422222208,-0.398148148,1,0,0,1.6039,Obsidian_rect,7,0,7,0,1,
63d176dbaef5e7827cd86954,SCR,2024-06-20_15h36.15.634,LearnStrategy,2023.2.3,Win32,59.52380952,7,2,9,,,,,,,,1,04,,,,,,,,,,,,,1,2.169,1,,,,,,-0.412962949,-0.251851894,1,0,0,2.1688,Andesite_rect,8,0,8,0,1,
63d176dbaef5e7827cd86954,SCR,2024-06-20_15h36.15.634,LearnStrategy,2023.2.3,Win32,59.52380952,7,2,10,,,,,,,,6,11,,,,,,,,,,,,,6,1.569,1,,,,,,-0.165740755,-0.389814801,1,0,0,1.5687,Pegmatite_rect,9,0,9,0,1,
63d176dbaef5e7827cd86954,SCR,2024-06-20_15h36.15.634,LearnStrategy,2023.2.3,Win32,59.52380952,7,2,11,,,,,,,,1,06,,,,,,,,,,,,,1,2.124,1,,,,,,-0.336111104,-0.251851894,1,0,0,2.1238,Andesite_rect,10,0,10,0,1,
63d176dbaef5e7827cd86954,SCR,2024-06-20_15h36.15.634,LearnStrategy,2023.2.3,Win32,59.52380952,7,2,12,,,,,,,,8,15,,,,,,,,,,,,,8,1.399,1,,,,,,0.377777806,-0.411111125,1,0,0,1.3985,Pumice_rect,11,0,11,0,1,
63d176dbaef5e7827cd86954,SCR,2024-06-20_15h36.15.634,LearnStrategy,2023.2.3,Win32,59.52380952,7,2,13,,,,,,,,4,16,,,,,,,,,,,,,4,7.181,1,,,,,,0.375925982,-0.265740783,1,0,0,7.1814,Gabbro_rect,12,0,12,0,1,
63d176dbaef5e7827cd86954,SCR,2024-06-20_15h36.15.634,LearnStrategy,2023.2.3,Win32,59.52380952,7,2,14,,,,,,,,4,13,,,,,,,,,,,,,4,1.803,1,,,,,,0.375925982,-0.265740783,1,0,0,1.8029,Gabbro_rect,13,0,13,0,1,
63d176dbaef5e7827cd86954,SCR,2024-06-20_15h36.15.634,LearnStrategy,2023.2.3,Win32,59.52380952,7,2,15,,,,,,,,2,16,,,,,,,,,,,,,2,3.406,1,,,,,,-0.077777792,-0.253703718,1,0,0,3.4057,Basalt_rect,14,0,14,0,1,
63d176dbaef5e7827cd86954,SCR,2024-06-20_15h36.15.634,LearnStrategy,2023.2.3,Win32,59.52380952,7,2,16,,,,,,,,8,06,,,,,,,,,,,,,8,1.519,1,,,,,,0.405555584,-0.408333319,1,0,0,1.5189,Pumice_rect,15,0,15,0,1,
63d176dbaef5e7827cd86954,SCR,2024-06-20_15h36.15.634,LearnStrategy,2023.2.3,Win32,59.52380952,8,1,1,0.084259245,-0.25,1,0,0,0.8865,Diorite_16,3,16,2,5,0.886,3,16,0.099074116,-0.246296282,1,0,0,1.0285,Diorite_rect,3,1.028,1,0,0,0,0,1,,,,,,,,,,,,,
63d176dbaef5e7827cd86954,SCR,2024-06-20_15h36.15.634,LearnStrategy,2023.2.3,Win32,59.52380952,8,1,2,0.524999972,0.085185192,1,0,0,1.3664,Obsidian_02,5,02,4,8,1.366,5,02,-0.334259245,-0.407407407,1,0,0,1.0676,Obsidian_rect,5,1.068,1,1,0,1,0,1,,,,,,,,,,,,,
63d176dbaef5e7827cd86954,SCR,2024-06-20_15h36.15.634,LearnStrategy,2023.2.3,Win32,59.52380952,8,1,3,-0.383333312,-0.104629658,1,0,0,1.0295,Gabbro_09,4,09,3,2,1.03,4,09,0.366666723,-0.236111111,1,0,0,2.9392,Gabbro_rect,4,2.939,1,2,0,2,0,1,,,,,,,,,,,,,
63d176dbaef5e7827cd86954,SCR,2024-06-20_15h36.15.634,LearnStrategy,2023.2.3,Win32,59.52380952,8,1,4,0.210185228,-0.110185199,1,0,0,0.7588,Peridotite_05,7,05,3,6,0.759,7,05,0.116666653,-0.387962977,1,0,0,1.6983,Peridotite_rect,7,1.698,1,3,0,3,0,1,,,,,,,,,,,,,
63d176dbaef5e7827cd86954,SCR,2024-06-20_15h36.15.634,LearnStrategy,2023.2.3,Win32,59.52380952,8,1,5,0.070370356,-0.410185213,1,0,0,1.125,Diorite_14,3,14,1,5,1.125,3,14,0.114814829,-0.234259288,1,0,0,0.9552,Diorite_rect,3,0.955,1,4,0,4,0,1,,,,,,,,,,,,,
63d176dbaef5e7827cd86954,SCR,2024-06-20_15h36.15.634,LearnStrategy,2023.2.3,Win32,59.52380952,8,1,6,0.529629601,-0.08425928,1,0,0,1.0192,Pegmatite_12,6,12,3,8,1.019,6,12,-0.124074088,-0.421296296,1,0,0,1.5198,Pegmatite_rect,6,1.52,1,5,0,5,0,1,,,,,,,,,,,,,
63d176dbaef5e7827cd86954,SCR,2024-06-20_15h36.15.634,LearnStrategy,2023.2.3,Win32,59.52380952,8,1,7,0.05277782,0.096296275,1,0,0,1.2851,Peridotite_12,7,12,4,5,1.285,7,12,0.127777806,-0.400925954,1,0,0,4.7752,Peridotite_rect,7,4.775,1,6,0,6,0,1,,,,,,,,,,,,,
63d176dbaef5e7827cd86954,SCR,2024-06-20_15h36.15.634,LearnStrategy,2023.2.3,Win32,59.52380952,8,1,8,0.392592677,-0.242592635,1,0,0,0.9567,Pegmatite_07,6,07,2,7,0.957,6,07,-0.10092594,-0.407407407,1,0,0,3.4988,Pegmatite_rect,6,3.499,1,7,0,7,0,1,,,,,,,,,,,,,
63d176dbaef5e7827cd86954,SCR,2024-06-20_15h36.15.634,LearnStrategy,2023.2.3,Win32,59.52380952,8,1,9,-0.114814829,0.247222212,1,0,0,1.3463,Andesite_14,1,14,5,4,1.346,1,14,-0.368518511,-0.248148176,1,0,0,2.4557,Andesite_rect,1,2.456,1,8,0,8,0,1,,,,,,,,,,,,,
63d176dbaef5e7827cd86954,SCR,2024-06-20_15h36.15.634,LearnStrategy,2023.2.3,Win32,59.52380952,8,1,10,-0.248148106,-0.114814829,1,0,0,0.8778,Pumice_04,8,04,3,3,0.878,8,04,0.426851908,-0.405555584,1,0,0,0.9616,Pumice_rect,8,0.962,1,9,0,9,0,1,,,,,,,,,,,,,
63d176dbaef5e7827cd86954,SCR,2024-06-20_15h36.15.634,LearnStrategy,2023.2.3,Win32,59.52380952,8,1,11,-0.430555556,0.410185187,1,0,0,1.3751,Basalt_14,2,14,6,2,1.375,2,14,-0.122222194,-0.256481524,1,0,0,2.0661,Basalt_rect,2,2.066,1,10,0,10,0,1,,,,,,,,,,,,,
63d176dbaef5e7827cd86954,SCR,2024-06-20_15h36.15.634,LearnStrategy,2023.2.3,Win32,59.52380952,8,1,12,-0.232407393,0.242592582,1,0,0,0.8236,Gabbro_05,4,05,5,3,0.824,4,05,0.42777775,-0.252777806,1,0,0,1.5698,Gabbro_rect,4,1.57,1,11,0,11,0,1,,,,,,,,,,,,,
63d176dbaef5e7827cd86954,SCR,2024-06-20_15h36.15.634,LearnStrategy,2023.2.3,Win32,59.52380952,8,1,13,-0.534259266,0.056481467,1,0,0,1.0633,Pumice_02,8,02,4,1,1.063,8,02,0.419444473,-0.402777778,1,0,0,1.43,Pumice_rect,8,1.43,1,12,0,12,0,1,,,,,,,,,,,,,
63d176dbaef5e7827cd86954,SCR,2024-06-20_15h36.15.634,LearnStrategy,2023.2.3,Win32,59.52380952,8,1,14,-0.366666653,0.080555563,1,0,0,0.8403,Peridotite_10,7,10,4,2,0.84,7,10,0.12037037,-0.383333347,1,0,0,1.6267,Peridotite_rect,7,1.627,1,13,0,13,0,1,,,,,,,,,,,,,
63d176dbaef5e7827cd86954,SCR,2024-06-20_15h36.15.634,LearnStrategy,2023.2.3,Win32,59.52380952,8,1,15,-0.573148127,-0.271296325,1,0,0,0.9004,Basalt_11,2,11,2,1,0.9,2,11,-0.189814815,-0.248148176,1,0,0,1.7888,Basalt_rect,2,1.789,1,14,0,14,0,1,,,,,,,,,,,,,
63d176dbaef5e7827cd86954,SCR,2024-06-20_15h36.15.634,LearnStrategy,2023.2.3,Win32,59.52380952,8,1,16,-0.07222218,-0.126851894,1,0,0,0.8034,Basalt_01,2,01,3,4,0.803,2,01,-0.110185199,-0.242592635,1,0,0,0.8519,Basalt_rect,2,0.852,1,15,0,15,0,1,,,,,,,,,,,,,
63d176dbaef5e7827cd86954,SCR,2024-06-20_15h36.15.634,LearnStrategy,2023.2.3,Win32,59.52380952,8,2,1,,,,,,,,5,16,,,,,,,,,,,,,5,2.189,1,,,,,,-0.364814794,-0.406481496,1,0,0,2.1888,Obsidian_rect,0,0,0,0,1,
63d176dbaef5e7827cd86954,SCR,2024-06-20_15h36.15.634,LearnStrategy,2023.2.3,Win32,59.52380952,8,2,2,,,,,,,,4,11,,,,,,,,,,,,,2,4.255,0,,,,,,-0.112962935,-0.25,1,0,0,4.2549,Basalt_rect,1,0,1,0,1,
63d176dbaef5e7827cd86954,SCR,2024-06-20_15h36.15.634,LearnStrategy,2023.2.3,Win32,59.52380952,8,2,3,,,,,,,,1,03,,,,,,,,,,,,,1,2.813,1,,,,,,-0.366666653,-0.255555541,1,0,0,2.8133,Andesite_rect,2,0,2,0,1,
63d176dbaef5e7827cd86954,SCR,2024-06-20_15h36.15.634,LearnStrategy,2023.2.3,Win32,59.52380952,8,2,4,,,,,,,,7,04,,,,,,,,,,,,,6,1.382,0,,,,,,-0.137036995,-0.39907406,1,0,0,1.3823,Pegmatite_rect,3,0,3,0,1,
63d176dbaef5e7827cd86954,SCR,2024-06-20_15h36.15.634,LearnStrategy,2023.2.3,Win32,59.52380952,8,2,5,,,,,,,,4,01,,,,,,,,,,,,,4,6.471,1,,,,,,0.401851937,-0.251851894,1,0,0,6.4715,Gabbro_rect,4,0,4,0,1,
63d176dbaef5e7827cd86954,SCR,2024-06-20_15h36.15.634,LearnStrategy,2023.2.3,Win32,59.52380952,8,2,6,,,,,,,,7,16,,,,,,,,,,,,,7,1.458,1,,,,,,0.17777782,-0.39444443,1,0,0,1.4581,Peridotite_rect,5,0,5,0,1,
63d176dbaef5e7827cd86954,SCR,2024-06-20_15h36.15.634,LearnStrategy,2023.2.3,Win32,59.52380952,8,2,7,,,,,,,,5,11,,,,,,,,,,,,,5,1.165,1,,,,,,-0.381481489,-0.407407407,1,0,0,1.1649,Obsidian_rect,6,0,6,0,1,
63d176dbaef5e7827cd86954,SCR,2024-06-20_15h36.15.634,LearnStrategy,2023.2.3,Win32,59.52380952,8,2,8,,,,,,,,6,08,,,,,,,,,,,,,6,1.332,1,,,,,,-0.138888889,-0.395370413,1,0,0,1.3315,Pegmatite_rect,7,0,7,0,1,
63d176dbaef5e7827cd86954,SCR,2024-06-20_15h36.15.634,LearnStrategy,2023.2.3,Win32,59.52380952,8,2,9,,,,,,,,6,13,,,,,,,,,,,,,6,1.085,1,,,,,,-0.138888889,-0.395370413,1,0,0,1.085,Pegmatite_rect,8,0,8,0,1,
63d176dbaef5e7827cd86954,SCR,2024-06-20_15h36.15.634,LearnStrategy,2023.2.3,Win32,59.52380952,8,2,10,,,,,,,,3,08,,,,,,,,,,,,,3,1.14,1,,,,,,0.112963005,-0.262037065,1,0,0,1.1398,Diorite_rect,9,0,9,0,1,
63d176dbaef5e7827cd86954,SCR,2024-06-20_15h36.15.634,LearnStrategy,2023.2.3,Win32,59.52380952,8,2,11,,,,,,,,8,08,,,,,,,,,,,,,8,1.254,1,,,,,,0.373148176,-0.396296325,1,0,0,1.2537,Pumice_rect,10,0,10,0,1,
63d176dbaef5e7827cd86954,SCR,2024-06-20_15h36.15.634,LearnStrategy,2023.2.3,Win32,59.52380952,8,2,12,,,,,,,,1,16,,,,,,,,,,,,,1,1.411,1,,,,,,-0.39907406,-0.246296282,1,0,0,1.4109,Andesite_rect,11,0,11,0,1,
63d176dbaef5e7827cd86954,SCR,2024-06-20_15h36.15.634,LearnStrategy,2023.2.3,Win32,59.52380952,8,2,13,,,,,,,,2,10,,,,,,,,,,,,,2,1.48,1,,,,,,-0.146296254,-0.251851894,1,0,0,1.4801,Basalt_rect,12,0,12,0,1,
63d176dbaef5e7827cd86954,SCR,2024-06-20_15h36.15.634,LearnStrategy,2023.2.3,Win32,59.52380952,8,2,14,,,,,,,,8,14,,,,,,,,,,,,,8,1.36,1,,,,,,0.40370376,-0.400925954,1,0,0,1.3604,Pumice_rect,13,0,13,0,1,
63d176dbaef5e7827cd86954,SCR,2024-06-20_15h36.15.634,LearnStrategy,2023.2.3,Win32,59.52380952,8,2,15,,,,,,,,2,12,,,,,,,,,,,,,2,1.358,1,,,,,,-0.088888875,-0.24537037,1,0,0,1.358,Basalt_rect,14,0,14,0,1,
63d176dbaef5e7827cd86954,SCR,2024-06-20_15h36.15.634,LearnStrategy,2023.2.3,Win32,59.52380952,8,2,16,,,,,,,,3,12,,,,,,,,,,,,,3,2.929,1,,,,,,0.116666653,-0.255555541,1,0,0,2.9286,Diorite_rect,15,0,15,0,1,
63d176dbaef5e7827cd86954,SCR,2024-06-20_15h36.15.634,LearnStrategy,2023.2.3,Win32,59.52380952,9,1,1,-0.554629608,-0.102777764,1,0,0,1.4033,Peridotite_13,7,13,3,1,1.403,7,13,0.137962977,-0.412962949,1,0,0,1.3072,Peridotite_rect,7,1.307,1,0,0,0,0,1,,,,,,,,,,,,,
63d176dbaef5e7827cd86954,SCR,2024-06-20_15h36.15.634,LearnStrategy,2023.2.3,Win32,59.52380952,9,1,2,-0.082407422,-0.25462963,1,0,0,0.925,Obsidian_08,5,08,2,4,0.925,5,08,-0.383333312,-0.398148148,1,0,0,0.9551,Obsidian_rect,5,0.955,1,1,0,1,0,1,,,,,,,,,,,,,
63d176dbaef5e7827cd86954,SCR,2024-06-20_15h36.15.634,LearnStrategy,2023.2.3,Win32,59.52380952,9,1,3,-0.564814815,0.106481481,1,0,0,1.392,Pumice_02,8,02,4,1,1.392,8,02,0.424074102,-0.404629672,1,0,0,1.5464,Pumice_rect,8,1.546,1,2,0,2,0,1,,,,,,,,,,,,,
63d176dbaef5e7827cd86954,SCR,2024-06-20_15h36.15.634,LearnStrategy,2023.2.3,Win32,59.52380952,9,1,4,-0.224074046,0.268518519,1,0,0,1.0341,Gabbro_05,4,05,5,3,1.034,4,05,0.405555584,-0.248148176,1,0,0,1.8681,Gabbro_rect,4,1.868,1,3,0,3,0,1,,,,,,,,,,,,,
63d176dbaef5e7827cd86954,SCR,2024-06-20_15h36.15.634,LearnStrategy,2023.2.3,Win32,59.52380952,9,1,5,0.524074131,-0.407407407,1,0,0,1.3047,Pegmatite_05,6,05,1,8,1.305,6,05,-0.092592593,-0.418518561,1,0,0,1.5784,Pegmatite_rect,6,1.578,1,4,0,4,0,1,,,,,,,,,,,,,
63d176dbaef5e7827cd86954,SCR,2024-06-20_15h36.15.634,LearnStrategy,2023.2.3,Win32,59.52380952,9,1,6,-0.385185171,-0.114814829,1,0,0,1.056,Gabbro_09,4,09,3,2,1.056,4,09,0.388888889,-0.240740741,1,0,0,1.8948,Gabbro_rect,4,1.895,1,5,0,5,0,1,,,,,,,,,,,,,
63d176dbaef5e7827cd86954,SCR,2024-06-20_15h36.15.634,LearnStrategy,2023.2.3,Win32,59.52380952,9,1,7,-0.400925919,-0.429629644,1,0,0,1.4002,Basalt_04,2,04,1,2,1.4,2,04,-0.17314812,-0.255555541,1,0,0,1.1953,Basalt_rect,2,1.195,1,6,0,6,0,1,,,,,,,,,,,,,
63d176dbaef5e7827cd86954,SCR,2024-06-20_15h36.15.634,LearnStrategy,2023.2.3,Win32,59.52380952,9,1,8,0.40833339,-0.410185213,1,0,0,1.3923,Andesite_09,1,09,1,7,1.392,1,09,-0.381481489,-0.253703718,1,0,0,2.8767,Andesite_rect,1,2.877,1,7,0,7,0,1,,,,,,,,,,,,,
63d176dbaef5e7827cd86954,SCR,2024-06-20_15h36.15.634,LearnStrategy,2023.2.3,Win32,59.52380952,9,1,9,0.232407393,-0.095370399,1,0,0,0.8929,Peridotite_05,7,05,3,6,0.893,7,05,0.173148191,-0.396296325,1,0,0,1.674,Peridotite_rect,7,1.674,1,8,0,8,0,1,,,,,,,,,,,,,
63d176dbaef5e7827cd86954,SCR,2024-06-20_15h36.15.634,LearnStrategy,2023.2.3,Win32,59.52380952,9,1,10,0.218518504,-0.087962963,1,0,0,0.9324,Peridotite_05,7,05,3,6,0.932,7,05,0.161111125,-0.408333319,1,0,0,1.2497,Peridotite_rect,7,1.25,1,9,0,9,0,1,,,,,,,,,,,,,
63d176dbaef5e7827cd86954,SCR,2024-06-20_15h36.15.634,LearnStrategy,2023.2.3,Win32,59.52380952,9,1,11,-0.107407393,0.228703693,1,0,0,2.3886,Andesite_14,1,14,5,4,2.389,7,10,-0.340740734,-0.241666653,1,0,0,1.8136,Andesite_rect,1,1.814,1,10,0,10,0,1,,,,,,,,,,,,,
63d176dbaef5e7827cd86954,SCR,2024-06-20_15h36.15.634,LearnStrategy,2023.2.3,Win32,59.52380952,9,1,12,0.573148233,-0.262962977,1,0,0,3.6429,Diorite_02,3,02,2,8,3.643,4,08,0.19722225,-0.237963005,1,0,0,1.4883,Diorite_rect,3,1.488,1,11,0,11,0,1,,,,,,,,,,,,,
63d176dbaef5e7827cd86954,SCR,2024-06-20_15h36.15.634,LearnStrategy,2023.2.3,Win32,59.52380952,9,1,13,-0.224074046,0.075925933,1,0,0,5.2482,Basalt_08,2,08,4,3,5.248,2,08,-0.162037037,-0.253703718,1,0,0,0.8104,Basalt_rect,2,0.81,1,12,0,12,0,1,,,,,,,,,,,,,
63d176dbaef5e7827cd86954,SCR,2024-06-20_15h36.15.634,LearnStrategy,2023.2.3,Win32,59.52380952,9,1,14,0.130555541,-0.273148148,1,0,0,1.499,Diorite_16,3,16,2,5,1.499,3,16,0.132407436,-0.260185171,1,0,0,1.1743,Diorite_rect,3,1.174,1,13,0,13,0,1,,,,,,,,,,,,,
63d176dbaef5e7827cd86954,SCR,2024-06-20_15h36.15.634,LearnStrategy,2023.2.3,Win32,59.52380952,9,1,15,-0.080555527,0.400925928,1,0,0,3.2844,Diorite_15,3,15,6,4,3.284,2,01,0.135185171,-0.257407436,1,0,0,8.7441,Diorite_rect,3,8.744,1,14,0,14,0,1,,,,,,,,,,,,,
63d176dbaef5e7827cd86954,SCR,2024-06-20_15h36.15.634,LearnStrategy,2023.2.3,Win32,59.52380952,9,1,16,0.414814843,-0.276851866,1,0,0,1.0045,Pegmatite_07,6,07,2,7,1.005,6,07,-0.079629616,-0.405555584,1,0,0,1.3676,Pegmatite_rect,6,1.368,1,15,0,15,0,1,,,,,,,,,,,,,
63d176dbaef5e7827cd86954,SCR,2024-06-20_15h36.15.634,LearnStrategy,2023.2.3,Win32,59.52380952,9,2,1,,,,,,,,3,09,,,,,,,,,,,,,3,1.099,1,,,,,,0.138888889,-0.262037065,1,0,0,1.0985,Diorite_rect,0,0,0,0,1,
63d176dbaef5e7827cd86954,SCR,2024-06-20_15h36.15.634,LearnStrategy,2023.2.3,Win32,59.52380952,9,2,2,,,,,,,,5,05,,,,,,,,,,,,,5,1.398,1,,,,,,-0.349999993,-0.392592607,1,0,0,1.3984,Obsidian_rect,1,0,1,0,1,
63d176dbaef5e7827cd86954,SCR,2024-06-20_15h36.15.634,LearnStrategy,2023.2.3,Win32,59.52380952,9,2,3,,,,,,,,2,05,,,,,,,,,,,,,2,1.332,1,,,,,,-0.160185143,-0.261111153,1,0,0,1.3316,Basalt_rect,2,0,2,0,1,
63d176dbaef5e7827cd86954,SCR,2024-06-20_15h36.15.634,LearnStrategy,2023.2.3,Win32,59.52380952,9,2,4,,,,,,,,8,09,,,,,,,,,,,,,8,1.323,1,,,,,,0.385185242,-0.400925954,1,0,0,1.3233,Pumice_rect,3,0,3,0,1,
63d176dbaef5e7827cd86954,SCR,2024-06-20_15h36.15.634,LearnStrategy,2023.2.3,Win32,59.52380952,9,2,5,,,,,,,,5,07,,,,,,,,,,,,,5,1.355,1,,,,,,-0.397222201,-0.388888889,1,0,0,1.3549,Obsidian_rect,4,0,4,0,1,
63d176dbaef5e7827cd86954,SCR,2024-06-20_15h36.15.634,LearnStrategy,2023.2.3,Win32,59.52380952,9,2,6,,,,,,,,6,06,,,,,,,,,,,,,6,2.408,1,,,,,,-0.147222236,-0.396296325,1,0,0,2.408,Pegmatite_rect,5,0,5,0,1,
63d176dbaef5e7827cd86954,SCR,2024-06-20_15h36.15.634,LearnStrategy,2023.2.3,Win32,59.52380952,9,2,7,,,,,,,,2,06,,,,,,,,,,,,,2,2.135,1,,,,,,-0.124074088,-0.252777806,1,0,0,2.1354,Basalt_rect,6,0,6,0,1,
63d176dbaef5e7827cd86954,SCR,2024-06-20_15h36.15.634,LearnStrategy,2023.2.3,Win32,59.52380952,9,2,8,,,,,,,,4,15,,,,,,,,,,,,,4,1.599,1,,,,,,0.363888917,-0.268518519,1,0,0,1.5986,Gabbro_rect,7,0,7,0,1,
63d176dbaef5e7827cd86954,SCR,2024-06-20_15h36.15.634,LearnStrategy,2023.2.3,Win32,59.52380952,9,2,9,,,,,,,,8,16,,,,,,,,,,,,,8,1.435,1,,,,,,0.368518547,-0.406481496,1,0,0,1.4349,Pumice_rect,8,0,8,0,1,
63d176dbaef5e7827cd86954,SCR,2024-06-20_15h36.15.634,LearnStrategy,2023.2.3,Win32,59.52380952,9,2,10,,,,,,,,1,05,,,,,,,,,,,,,1,3.524,1,,,,,,-0.353703711,-0.244444459,1,0,0,3.5237,Andesite_rect,9,0,9,0,1,
63d176dbaef5e7827cd86954,SCR,2024-06-20_15h36.15.634,LearnStrategy,2023.2.3,Win32,59.52380952,9,2,11,,,,,,,,7,02,,,,,,,,,,,,,7,1.38,1,,,,,,0.089814857,-0.39907406,1,0,0,1.3799,Peridotite_rect,10,0,10,0,1,
63d176dbaef5e7827cd86954,SCR,2024-06-20_15h36.15.634,LearnStrategy,2023.2.3,Win32,59.52380952,9,2,12,,,,,,,,4,03,,,,,,,,,,,,,4,3.444,1,,,,,,0.393518519,-0.252777806,1,0,0,3.4436,Gabbro_rect,11,0,11,0,1,
63d176dbaef5e7827cd86954,SCR,2024-06-20_15h36.15.634,LearnStrategy,2023.2.3,Win32,59.52380952,9,2,13,,,,,,,,7,06,,,,,,,,,,,,,7,5.472,1,,,,,,0.158333319,-0.401851866,1,0,0,5.4725,Peridotite_rect,12,0,12,0,1,
63d176dbaef5e7827cd86954,SCR,2024-06-20_15h36.15.634,LearnStrategy,2023.2.3,Win32,59.52380952,9,2,14,,,,,,,,3,13,,,,,,,,,,,,,3,1.395,1,,,,,,0.14444443,-0.259259259,1,0,0,1.3948,Diorite_rect,13,0,13,0,1,
63d176dbaef5e7827cd86954,SCR,2024-06-20_15h36.15.634,LearnStrategy,2023.2.3,Win32,59.52380952,9,2,15,,,,,,,,1,07,,,,,,,,,,,,,1,1.381,1,,,,,,-0.328703704,-0.241666653,1,0,0,1.3806,Andesite_rect,14,0,14,0,1,
63d176dbaef5e7827cd86954,SCR,2024-06-20_15h36.15.634,LearnStrategy,2023.2.3,Win32,59.52380952,9,2,16,,,,,,,,6,16,,,,,,,,,,,,,6,2.504,1,,,,,,-0.122222194,-0.400925954,1,0,0,2.5038,Pegmatite_rect,15,0,15,0,1,
63d176dbaef5e7827cd86954,SCR,2024-06-20_15h36.15.634,LearnStrategy,2023.2.3,Win32,59.52380952,,,,,,,,,,,,,,,,,,,,,,,,,,,,,,,,,,,,,,,,,,,,,1
63d176dbaef5e7827cd86954,SCR,2024-06-20_15h36.15.634,LearnStrategy,2023.2.3,Win32,59.52380952,,,,,,,,,,,,,,,,,,,,,,,,,,,,,,,,,,,,,,,,,,,,,
63d176dbaef5e7827cd86954,SCR,2024-06-20_15h36.15.634,LearnStrategy,2023.2.3,Win32,59.52380952,,,,,,,,,,,1,11,1,1,,,,,,,,,,,,,,,,,,,,,,,,,,,,,,,
63d176dbaef5e7827cd86954,SCR,2024-06-20_15h36.15.634,LearnStrategy,2023.2.3,Win32,59.52380952,,,,,,,,,,,2,04,1,2,,,,,,,,,,,,,,,,,,,,,,,,,,,,,,,
63d176dbaef5e7827cd86954,SCR,2024-06-20_15h36.15.634,LearnStrategy,2023.2.3,Win32,59.52380952,,,,,,,,,,,7,07,1,3,,,,,,,,,,,,,,,,,,,,,,,,,,,,,,,
63d176dbaef5e7827cd86954,SCR,2024-06-20_15h36.15.634,LearnStrategy,2023.2.3,Win32,59.52380952,,,,,,,,,,,1,01,1,4,,,,,,,,,,,,,,,,,,,,,,,,,,,,,,,
63d176dbaef5e7827cd86954,SCR,2024-06-20_15h36.15.634,LearnStrategy,2023.2.3,Win32,59.52380952,,,,,,,,,,,3,14,1,5,,,,,,,,,,,,,,,,,,,,,,,,,,,,,,,
63d176dbaef5e7827cd86954,SCR,2024-06-20_15h36.15.634,LearnStrategy,2023.2.3,Win32,59.52380952,,,,,,,,,,,7,14,1,6,,,,,,,,,,,,,,,,,,,,,,,,,,,,,,,
63d176dbaef5e7827cd86954,SCR,2024-06-20_15h36.15.634,LearnStrategy,2023.2.3,Win32,59.52380952,,,,,,,,,,,1,09,1,7,,,,,,,,,,,,,,,,,,,,,,,,,,,,,,,
63d176dbaef5e7827cd86954,SCR,2024-06-20_15h36.15.634,LearnStrategy,2023.2.3,Win32,59.52380952,,,,,,,,,,,6,05,1,8,,,,,,,,,,,,,,,,,,,,,,,,,,,,,,,
63d176dbaef5e7827cd86954,SCR,2024-06-20_15h36.15.634,LearnStrategy,2023.2.3,Win32,59.52380952,,,,,,,,,,,2,11,2,1,,,,,,,,,,,,,,,,,,,,,,,,,,,,,,,
63d176dbaef5e7827cd86954,SCR,2024-06-20_15h36.15.634,LearnStrategy,2023.2.3,Win32,59.52380952,,,,,,,,,,,8,05,2,2,,,,,,,,,,,,,,,,,,,,,,,,,,,,,,,
63d176dbaef5e7827cd86954,SCR,2024-06-20_15h36.15.634,LearnStrategy,2023.2.3,Win32,59.52380952,,,,,,,,,,,5,09,2,3,,,,,,,,,,,,,,,,,,,,,,,,,,,,,,,
63d176dbaef5e7827cd86954,SCR,2024-06-20_15h36.15.634,LearnStrategy,2023.2.3,Win32,59.52380952,,,,,,,,,,,5,08,2,4,,,,,,,,,,,,,,,,,,,,,,,,,,,,,,,
63d176dbaef5e7827cd86954,SCR,2024-06-20_15h36.15.634,LearnStrategy,2023.2.3,Win32,59.52380952,,,,,,,,,,,3,16,2,5,,,,,,,,,,,,,,,,,,,,,,,,,,,,,,,
63d176dbaef5e7827cd86954,SCR,2024-06-20_15h36.15.634,LearnStrategy,2023.2.3,Win32,59.52380952,,,,,,,,,,,5,10,2,6,,,,,,,,,,,,,,,,,,,,,,,,,,,,,,,
63d176dbaef5e7827cd86954,SCR,2024-06-20_15h36.15.634,LearnStrategy,2023.2.3,Win32,59.52380952,,,,,,,,,,,6,07,2,7,,,,,,,,,,,,,,,,,,,,,,,,,,,,,,,
63d176dbaef5e7827cd86954,SCR,2024-06-20_15h36.15.634,LearnStrategy,2023.2.3,Win32,59.52380952,,,,,,,,,,,3,02,2,8,,,,,,,,,,,,,,,,,,,,,,,,,,,,,,,
63d176dbaef5e7827cd86954,SCR,2024-06-20_15h36.15.634,LearnStrategy,2023.2.3,Win32,59.52380952,,,,,,,,,,,7,13,3,1,,,,,,,,,,,,,,,,,,,,,,,,,,,,,,,
63d176dbaef5e7827cd86954,SCR,2024-06-20_15h36.15.634,LearnStrategy,2023.2.3,Win32,59.52380952,,,,,,,,,,,4,09,3,2,,,,,,,,,,,,,,,,,,,,,,,,,,,,,,,
63d176dbaef5e7827cd86954,SCR,2024-06-20_15h36.15.634,LearnStrategy,2023.2.3,Win32,59.52380952,,,,,,,,,,,8,04,3,3,,,,,,,,,,,,,,,,,,,,,,,,,,,,,,,
63d176dbaef5e7827cd86954,SCR,2024-06-20_15h36.15.634,LearnStrategy,2023.2.3,Win32,59.52380952,,,,,,,,,,,2,01,3,4,,,,,,,,,,,,,,,,,,,,,,,,,,,,,,,
63d176dbaef5e7827cd86954,SCR,2024-06-20_15h36.15.634,LearnStrategy,2023.2.3,Win32,59.52380952,,,,,,,,,,,1,10,3,5,,,,,,,,,,,,,,,,,,,,,,,,,,,,,,,
63d176dbaef5e7827cd86954,SCR,2024-06-20_15h36.15.634,LearnStrategy,2023.2.3,Win32,59.52380952,,,,,,,,,,,7,05,3,6,,,,,,,,,,,,,,,,,,,,,,,,,,,,,,,
63d176dbaef5e7827cd86954,SCR,2024-06-20_15h36.15.634,LearnStrategy,2023.2.3,Win32,59.52380952,,,,,,,,,,,3,07,3,7,,,,,,,,,,,,,,,,,,,,,,,,,,,,,,,
63d176dbaef5e7827cd86954,SCR,2024-06-20_15h36.15.634,LearnStrategy,2023.2.3,Win32,59.52380952,,,,,,,,,,,6,12,3,8,,,,,,,,,,,,,,,,,,,,,,,,,,,,,,,
63d176dbaef5e7827cd86954,SCR,2024-06-20_15h36.15.634,LearnStrategy,2023.2.3,Win32,59.52380952,,,,,,,,,,,8,02,4,1,,,,,,,,,,,,,,,,,,,,,,,,,,,,,,,
63d176dbaef5e7827cd86954,SCR,2024-06-20_15h36.15.634,LearnStrategy,2023.2.3,Win32,59.52380952,,,,,,,,,,,7,10,4,2,,,,,,,,,,,,,,,,,,,,,,,,,,,,,,,
63d176dbaef5e7827cd86954,SCR,2024-06-20_15h36.15.634,LearnStrategy,2023.2.3,Win32,59.52380952,,,,,,,,,,,2,08,4,3,,,,,,,,,,,,,,,,,,,,,,,,,,,,,,,
63d176dbaef5e7827cd86954,SCR,2024-06-20_15h36.15.634,LearnStrategy,2023.2.3,Win32,59.52380952,,,,,,,,,,,6,09,4,4,,,,,,,,,,,,,,,,,,,,,,,,,,,,,,,
63d176dbaef5e7827cd86954,SCR,2024-06-20_15h36.15.634,LearnStrategy,2023.2.3,Win32,59.52380952,,,,,,,,,,,7,12,4,5,,,,,,,,,,,,,,,,,,,,,,,,,,,,,,,
63d176dbaef5e7827cd86954,SCR,2024-06-20_15h36.15.634,LearnStrategy,2023.2.3,Win32,59.52380952,,,,,,,,,,,4,08,4,6,,,,,,,,,,,,,,,,,,,,,,,,,,,,,,,
63d176dbaef5e7827cd86954,SCR,2024-06-20_15h36.15.634,LearnStrategy,2023.2.3,Win32,59.52380952,,,,,,,,,,,3,10,4,7,,,,,,,,,,,,,,,,,,,,,,,,,,,,,,,
63d176dbaef5e7827cd86954,SCR,2024-06-20_15h36.15.634,LearnStrategy,2023.2.3,Win32,59.52380952,,,,,,,,,,,5,02,4,8,,,,,,,,,,,,,,,,,,,,,,,,,,,,,,,
63d176dbaef5e7827cd86954,SCR,2024-06-20_15h36.15.634,LearnStrategy,2023.2.3,Win32,59.52380952,,,,,,,,,,,5,14,5,1,,,,,,,,,,,,,,,,,,,,,,,,,,,,,,,
63d176dbaef5e7827cd86954,SCR,2024-06-20_15h36.15.634,LearnStrategy,2023.2.3,Win32,59.52380952,,,,,,,,,,,8,13,5,2,,,,,,,,,,,,,,,,,,,,,,,,,,,,,,,
63d176dbaef5e7827cd86954,SCR,2024-06-20_15h36.15.634,LearnStrategy,2023.2.3,Win32,59.52380952,,,,,,,,,,,4,05,5,3,,,,,,,,,,,,,,,,,,,,,,,,,,,,,,,
63d176dbaef5e7827cd86954,SCR,2024-06-20_15h36.15.634,LearnStrategy,2023.2.3,Win32,59.52380952,,,,,,,,,,,1,14,5,4,,,,,,,,,,,,,,,,,,,,,,,,,,,,,,,
63d176dbaef5e7827cd86954,SCR,2024-06-20_15h36.15.634,LearnStrategy,2023.2.3,Win32,59.52380952,,,,,,,,,,,5,12,5,5,,,,,,,,,,,,,,,,,,,,,,,,,,,,,,,
63d176dbaef5e7827cd86954,SCR,2024-06-20_15h36.15.634,LearnStrategy,2023.2.3,Win32,59.52380952,,,,,,,,,,,4,10,5,6,,,,,,,,,,,,,,,,,,,,,,,,,,,,,,,
63d176dbaef5e7827cd86954,SCR,2024-06-20_15h36.15.634,LearnStrategy,2023.2.3,Win32,59.52380952,,,,,,,,,,,2,02,5,7,,,,,,,,,,,,,,,,,,,,,,,,,,,,,,,
63d176dbaef5e7827cd86954,SCR,2024-06-20_15h36.15.634,LearnStrategy,2023.2.3,Win32,59.52380952,,,,,,,,,,,8,10,5,8,,,,,,,,,,,,,,,,,,,,,,,,,,,,,,,
63d176dbaef5e7827cd86954,SCR,2024-06-20_15h36.15.634,LearnStrategy,2023.2.3,Win32,59.52380952,,,,,,,,,,,4,12,6,1,,,,,,,,,,,,,,,,,,,,,,,,,,,,,,,
63d176dbaef5e7827cd86954,SCR,2024-06-20_15h36.15.634,LearnStrategy,2023.2.3,Win32,59.52380952,,,,,,,,,,,2,14,6,2,,,,,,,,,,,,,,,,,,,,,,,,,,,,,,,
63d176dbaef5e7827cd86954,SCR,2024-06-20_15h36.15.634,LearnStrategy,2023.2.3,Win32,59.52380952,,,,,,,,,,,6,15,6,3,,,,,,,,,,,,,,,,,,,,,,,,,,,,,,,
63d176dbaef5e7827cd86954,SCR,2024-06-20_15h36.15.634,LearnStrategy,2023.2.3,Win32,59.52380952,,,,,,,,,,,3,15,6,4,,,,,,,,,,,,,,,,,,,,,,,,,,,,,,,
63d176dbaef5e7827cd86954,SCR,2024-06-20_15h36.15.634,LearnStrategy,2023.2.3,Win32,59.52380952,,,,,,,,,,,8,03,6,5,,,,,,,,,,,,,,,,,,,,,,,,,,,,,,,
63d176dbaef5e7827cd86954,SCR,2024-06-20_15h36.15.634,LearnStrategy,2023.2.3,Win32,59.52380952,,,,,,,,,,,4,14,6,6,,,,,,,,,,,,,,,,,,,,,,,,,,,,,,,
63d176dbaef5e7827cd86954,SCR,2024-06-20_15h36.15.634,LearnStrategy,2023.2.3,Win32,59.52380952,,,,,,,,,,,6,03,6,7,,,,,,,,,,,,,,,,,,,,,,,,,,,,,,,
63d176dbaef5e7827cd86954,SCR,2024-06-20_15h36.15.634,LearnStrategy,2023.2.3,Win32,59.52380952,,,,,,,,,,,1,02,6,8,,,,,,,,,,,,,,,,,,,,,,,,,,,,,,,