participant,condition,date,expName,psychopyVersion,OS,frameRate,block,phase,trial,learn_mouse.x,learn_mouse.y,learn_mouse.leftButton,learn_mouse.midButton,learn_mouse.rightButton,learn_mouse.time,learn_mouse.clicked_name,cat,token,row,col,t_select,cat_rec,token_rec,cat_mouse_l.x,cat_mouse_l.y,cat_mouse_l.leftButton,cat_mouse_l.midButton,cat_mouse_l.rightButton,cat_mouse_l.time,cat_mouse_l.clicked_name,resp,t_resp,corr,train_trials.thisRepN,train_trials.thisTrialN,train_trials.thisN,train_trials.thisIndex,train_trials.ran,cat_mouse_t.x,cat_mouse_t.y,cat_mouse_t.leftButton,cat_mouse_t.midButton,cat_mouse_t.rightButton,cat_mouse_t.time,cat_mouse_t.clicked_name,test_trials.thisRepN,test_trials.thisTrialN,test_trials.thisN,test_trials.thisIndex,test_trials.ran,Bonus
63d193c45e01ccb694993e7f,SCR,2024-06-20_16h26.59.740,LearnStrategy,2023.2.3,Win32,142.8571429,,,,,,,,,,,,,,,,,,,,,,,,,,,,,,,,,,,,,,,,,,,,,
63d193c45e01ccb694993e7f,SCR,2024-06-20_16h26.59.740,LearnStrategy,2023.2.3,Win32,142.8571429,1,1,1,-0.223611111,0.379861111,1,0,0,3.4535,Basalt_05,2,05,6,3,3.454,2,05,-0.397222222,-0.39375,1,0,0,7.0153,Obsidian_rect,5,7.015,0,0,0,0,0,1,,,,,,,,,,,,,
63d193c45e01ccb694993e7f,SCR,2024-06-20_16h26.59.740,LearnStrategy,2023.2.3,Win32,142.8571429,1,1,2,0.395138889,-0.258333333,1,0,0,2.7634,Pumice_16,8,16,2,7,2.763,8,16,0.320833333,-0.392361111,1,0,0,4.5321,Pumice_rect,8,4.532,1,1,0,1,0,1,,,,,,,,,,,,,
63d193c45e01ccb694993e7f,SCR,2024-06-20_16h26.59.740,LearnStrategy,2023.2.3,Win32,142.8571429,1,1,3,-0.541666667,-0.076388889,1,0,0,2.9299,Gabbro_16,4,16,3,1,2.93,4,16,-0.165277778,-0.254861111,1,0,0,1.3629,Basalt_rect,2,1.363,0,2,0,2,0,1,,,,,,,,,,,,,
63d193c45e01ccb694993e7f,SCR,2024-06-20_16h26.59.740,LearnStrategy,2023.2.3,Win32,142.8571429,1,1,4,-0.226388889,-0.4,1,0,0,1.5336,Andesite_06,1,06,1,3,1.534,1,06,-0.192361111,-0.408333333,1,0,0,2.8308,Pegmatite_rect,6,2.831,0,3,0,3,0,1,,,,,,,,,,,,,
63d193c45e01ccb694993e7f,SCR,2024-06-20_16h26.59.740,LearnStrategy,2023.2.3,Win32,142.8571429,1,1,5,-0.566666667,0.058333333,1,0,0,2.1585,Pegmatite_07,6,07,4,1,2.159,6,07,-0.125694444,-0.388888889,1,0,0,5.448,Pegmatite_rect,6,5.448,1,4,0,4,0,1,,,,,,,,,,,,,
63d193c45e01ccb694993e7f,SCR,2024-06-20_16h26.59.740,LearnStrategy,2023.2.3,Win32,142.8571429,1,1,6,0.545833333,0.228472222,1,0,0,1.601,Pegmatite_08,6,08,5,8,1.601,6,08,-0.107638889,-0.382638889,1,0,0,2.0843,Pegmatite_rect,6,2.084,1,5,0,5,0,1,,,,,,,,,,,,,
63d193c45e01ccb694993e7f,SCR,2024-06-20_16h26.59.740,LearnStrategy,2023.2.3,Win32,142.8571429,1,1,7,0.264583333,0.083333333,1,0,0,1.4711,Pumice_08,8,08,4,6,1.471,8,08,0.192361111,-0.252083333,1,0,0,5.2548,Diorite_rect,3,5.255,0,6,0,6,0,1,,,,,,,,,,,,,
63d193c45e01ccb694993e7f,SCR,2024-06-20_16h26.59.740,LearnStrategy,2023.2.3,Win32,142.8571429,1,1,8,0.352083333,0.251388889,1,0,0,1.1176,Basalt_09,2,09,5,7,1.118,2,09,-0.353472222,-0.3875,1,0,0,5.6066,Obsidian_rect,5,5.607,0,7,0,7,0,1,,,,,,,,,,,,,
63d193c45e01ccb694993e7f,SCR,2024-06-20_16h26.59.740,LearnStrategy,2023.2.3,Win32,142.8571429,1,1,9,0.090972222,-0.095138889,1,0,0,1.0543,Gabbro_08,4,08,3,5,1.054,4,08,0.089583333,-0.232638889,1,0,0,4.0208,Diorite_rect,3,4.021,0,8,0,8,0,1,,,,,,,,,,,,,
63d193c45e01ccb694993e7f,SCR,2024-06-20_16h26.59.740,LearnStrategy,2023.2.3,Win32,142.8571429,1,1,10,-0.379861111,-0.077777778,1,0,0,1.6741,Andesite_09,1,09,3,2,1.674,1,09,-0.153472222,-0.240277778,1,0,0,2.5329,Basalt_rect,2,2.533,0,9,0,9,0,1,,,,,,,,,,,,,
63d193c45e01ccb694993e7f,SCR,2024-06-20_16h26.59.740,LearnStrategy,2023.2.3,Win32,142.8571429,1,1,11,0.189583333,0.386111111,1,0,0,1.5178,Obsidian_16,5,16,6,6,1.518,5,16,-0.354861111,-0.38125,1,0,0,1.1544,Obsidian_rect,5,1.154,1,10,0,10,0,1,,,,,,,,,,,,,
63d193c45e01ccb694993e7f,SCR,2024-06-20_16h26.59.740,LearnStrategy,2023.2.3,Win32,142.8571429,1,1,12,0.091666667,0.380555556,1,0,0,1.0781,Peridotite_13,7,13,6,5,1.078,7,13,0.129166667,-0.406944444,1,0,0,6.0158,Peridotite_rect,7,6.016,1,11,0,11,0,1,,,,,,,,,,,,,
63d193c45e01ccb694993e7f,SCR,2024-06-20_16h26.59.740,LearnStrategy,2023.2.3,Win32,142.8571429,1,1,13,0.110416667,0.079166667,1,0,0,1.2968,Diorite_16,3,16,4,5,1.297,3,16,-0.338194444,-0.250694444,1,0,0,3.6277,Andesite_rect,1,3.628,0,12,0,12,0,1,,,,,,,,,,,,,
63d193c45e01ccb694993e7f,SCR,2024-06-20_16h26.59.740,LearnStrategy,2023.2.3,Win32,142.8571429,1,1,14,0.261805556,-0.420138889,1,0,0,1.1105,Obsidian_08,5,08,1,6,1.111,5,08,-0.391666667,-0.389583333,1,0,0,1.752,Obsidian_rect,5,1.752,1,13,0,13,0,1,,,,,,,,,,,,,
63d193c45e01ccb694993e7f,SCR,2024-06-20_16h26.59.740,LearnStrategy,2023.2.3,Win32,142.8571429,1,1,15,0.044444444,-0.431944444,1,0,0,1.067,Peridotite_12,7,12,1,5,1.067,7,12,-0.165972222,-0.389583333,1,0,0,7.97,Pegmatite_rect,6,7.97,0,14,0,14,0,1,,,,,,,,,,,,,
63d193c45e01ccb694993e7f,SCR,2024-06-20_16h26.59.740,LearnStrategy,2023.2.3,Win32,142.8571429,1,1,16,0.583333333,0.372916667,1,0,0,2.1384,Diorite_09,3,09,6,8,2.138,3,09,-0.15,-0.409722222,1,0,0,6.3703,Pegmatite_rect,6,6.37,0,15,0,15,0,1,,,,,,,,,,,,,
63d193c45e01ccb694993e7f,SCR,2024-06-20_16h26.59.740,LearnStrategy,2023.2.3,Win32,142.8571429,1,2,1,,,,,,,,7,15,,,,,,,,,,,,,6,13.562,0,,,,,,-0.130555556,-0.395833333,1,0,0,13.5616,Pegmatite_rect,0,0,0,0,1,
63d193c45e01ccb694993e7f,SCR,2024-06-20_16h26.59.740,LearnStrategy,2023.2.3,Win32,142.8571429,1,2,2,,,,,,,,4,03,,,,,,,,,,,,,6,14.255,0,,,,,,-0.133333333,-0.391666667,1,0,0,14.2546,Pegmatite_rect,1,0,1,0,1,
63d193c45e01ccb694993e7f,SCR,2024-06-20_16h26.59.740,LearnStrategy,2023.2.3,Win32,142.8571429,1,2,3,,,,,,,,6,11,,,,,,,,,,,,,6,20.921,1,,,,,,-0.138888889,-0.404166667,1,0,0,20.9213,Pegmatite_rect,2,0,2,0,1,
63d193c45e01ccb694993e7f,SCR,2024-06-20_16h26.59.740,LearnStrategy,2023.2.3,Win32,142.8571429,1,2,4,,,,,,,,1,01,,,,,,,,,,,,,1,4.947,1,,,,,,-0.376388889,-0.245833333,1,0,0,4.9469,Andesite_rect,3,0,3,0,1,
63d193c45e01ccb694993e7f,SCR,2024-06-20_16h26.59.740,LearnStrategy,2023.2.3,Win32,142.8571429,1,2,5,,,,,,,,5,12,,,,,,,,,,,,,5,1.225,1,,,,,,-0.363888889,-0.4,1,0,0,1.2249,Obsidian_rect,4,0,4,0,1,
63d193c45e01ccb694993e7f,SCR,2024-06-20_16h26.59.740,LearnStrategy,2023.2.3,Win32,142.8571429,1,2,6,,,,,,,,7,07,,,,,,,,,,,,,3,7.616,0,,,,,,0.094444444,-0.263194444,1,0,0,7.616,Diorite_rect,5,0,5,0,1,
63d193c45e01ccb694993e7f,SCR,2024-06-20_16h26.59.740,LearnStrategy,2023.2.3,Win32,142.8571429,1,2,7,,,,,,,,8,02,,,,,,,,,,,,,8,10.407,1,,,,,,0.370138889,-0.402777778,1,0,0,10.4074,Pumice_rect,6,0,6,0,1,
63d193c45e01ccb694993e7f,SCR,2024-06-20_16h26.59.740,LearnStrategy,2023.2.3,Win32,142.8571429,1,2,8,,,,,,,,3,15,,,,,,,,,,,,,6,30.302,0,,,,,,-0.145833333,-0.413194444,1,0,0,30.3021,Pegmatite_rect,7,0,7,0,1,
63d193c45e01ccb694993e7f,SCR,2024-06-20_16h26.59.740,LearnStrategy,2023.2.3,Win32,142.8571429,1,2,9,,,,,,,,1,05,,,,,,,,,,,,,3,9.741,0,,,,,,0.190972222,-0.268055556,1,0,0,9.7409,Diorite_rect,8,0,8,0,1,
63d193c45e01ccb694993e7f,SCR,2024-06-20_16h26.59.740,LearnStrategy,2023.2.3,Win32,142.8571429,1,2,10,,,,,,,,3,13,,,,,,,,,,,,,7,5.102,0,,,,,,0.133333333,-0.383333333,1,0,0,5.1017,Peridotite_rect,9,0,9,0,1,
63d193c45e01ccb694993e7f,SCR,2024-06-20_16h26.59.740,LearnStrategy,2023.2.3,Win32,142.8571429,1,2,11,,,,,,,,2,14,,,,,,,,,,,,,4,6.92,0,,,,,,0.309722222,-0.267361111,1,0,0,6.9205,Gabbro_rect,10,0,10,0,1,
63d193c45e01ccb694993e7f,SCR,2024-06-20_16h26.59.740,LearnStrategy,2023.2.3,Win32,142.8571429,1,2,12,,,,,,,,8,05,,,,,,,,,,,,,8,2.58,1,,,,,,0.356944444,-0.40625,1,0,0,2.5803,Pumice_rect,11,0,11,0,1,
63d193c45e01ccb694993e7f,SCR,2024-06-20_16h26.59.740,LearnStrategy,2023.2.3,Win32,142.8571429,1,2,13,,,,,,,,6,05,,,,,,,,,,,,,3,10.116,0,,,,,,0.157638889,-0.246527778,1,0,0,10.1162,Diorite_rect,12,0,12,0,1,
63d193c45e01ccb694993e7f,SCR,2024-06-20_16h26.59.740,LearnStrategy,2023.2.3,Win32,142.8571429,1,2,14,,,,,,,,4,05,,,,,,,,,,,,,7,8.823,0,,,,,,0.160416667,-0.405555556,1,0,0,8.8233,Peridotite_rect,13,0,13,0,1,
63d193c45e01ccb694993e7f,SCR,2024-06-20_16h26.59.740,LearnStrategy,2023.2.3,Win32,142.8571429,1,2,15,,,,,,,,5,11,,,,,,,,,,,,,5,1.185,1,,,,,,-0.424305556,-0.402777778,1,0,0,1.1849,Obsidian_rect,14,0,14,0,1,
63d193c45e01ccb694993e7f,SCR,2024-06-20_16h26.59.740,LearnStrategy,2023.2.3,Win32,142.8571429,1,2,16,,,,,,,,2,08,,,,,,,,,,,,,2,3.018,1,,,,,,-0.077083333,-0.243055556,1,0,0,3.0178,Basalt_rect,15,0,15,0,1,
63d193c45e01ccb694993e7f,SCR,2024-06-20_16h26.59.740,LearnStrategy,2023.2.3,Win32,142.8571429,2,1,1,0.057638889,-0.084722222,1,0,0,2.3506,Gabbro_08,4,08,3,5,2.351,4,08,0.123611111,-0.420833333,1,0,0,7.8702,Peridotite_rect,7,7.87,0,0,0,0,0,1,,,,,,,,,,,,,
63d193c45e01ccb694993e7f,SCR,2024-06-20_16h26.59.740,LearnStrategy,2023.2.3,Win32,142.8571429,2,1,2,0.547222222,-0.29375,1,0,0,1.4089,Pegmatite_16,6,16,2,8,1.409,6,16,0.13125,-0.26875,1,0,0,6.8653,Diorite_rect,3,6.865,0,1,0,1,0,1,,,,,,,,,,,,,
63d193c45e01ccb694993e7f,SCR,2024-06-20_16h26.59.740,LearnStrategy,2023.2.3,Win32,142.8571429,2,1,3,-0.436111111,-0.230555556,1,0,0,0.9549,Diorite_11,3,11,2,2,0.955,3,11,0.0625,-0.393055556,1,0,0,4.1707,Peridotite_rect,7,4.171,0,2,0,2,0,1,,,,,,,,,,,,,
63d193c45e01ccb694993e7f,SCR,2024-06-20_16h26.59.740,LearnStrategy,2023.2.3,Win32,142.8571429,2,1,4,0.241666667,-0.267361111,1,0,0,2.0056,Basalt_06,2,06,2,6,2.006,2,06,-0.109722222,-0.260416667,1,0,0,2.2479,Basalt_rect,2,2.248,1,3,0,3,0,1,,,,,,,,,,,,,
63d193c45e01ccb694993e7f,SCR,2024-06-20_16h26.59.740,LearnStrategy,2023.2.3,Win32,142.8571429,2,1,5,-0.568055556,0.238194444,1,0,0,1.3597,Peridotite_06,7,06,5,1,1.36,7,06,-0.1625,-0.388194444,1,0,0,5.8383,Pegmatite_rect,6,5.838,0,4,0,4,0,1,,,,,,,,,,,,,
63d193c45e01ccb694993e7f,SCR,2024-06-20_16h26.59.740,LearnStrategy,2023.2.3,Win32,142.8571429,2,1,6,0.236111111,-0.252083333,1,0,0,1.076,Basalt_06,2,06,2,6,1.076,2,06,-0.095833333,-0.231944444,1,0,0,0.8838,Basalt_rect,2,0.884,1,5,0,5,0,1,,,,,,,,,,,,,
63d193c45e01ccb694993e7f,SCR,2024-06-20_16h26.59.740,LearnStrategy,2023.2.3,Win32,142.8571429,2,1,7,0.56875,0.081944444,1,0,0,1.1089,Diorite_10,3,10,4,8,1.109,3,10,0.136805556,-0.229861111,1,0,0,4.0329,Diorite_rect,3,4.033,1,6,0,6,0,1,,,,,,,,,,,,,
63d193c45e01ccb694993e7f,SCR,2024-06-20_16h26.59.740,LearnStrategy,2023.2.3,Win32,142.8571429,2,1,8,0.416666667,0.091666667,1,0,0,0.812,Pegmatite_12,6,12,4,7,0.812,6,12,0.160416667,-0.261805556,1,0,0,3.6751,Diorite_rect,3,3.675,0,7,0,7,0,1,,,,,,,,,,,,,
63d193c45e01ccb694993e7f,SCR,2024-06-20_16h26.59.740,LearnStrategy,2023.2.3,Win32,142.8571429,2,1,9,0.54375,-0.100694444,1,0,0,1.1587,Peridotite_14,7,14,3,8,1.159,7,14,0.172222222,-0.3875,1,0,0,2.3451,Peridotite_rect,7,2.345,1,8,0,8,0,1,,,,,,,,,,,,,
63d193c45e01ccb694993e7f,SCR,2024-06-20_16h26.59.740,LearnStrategy,2023.2.3,Win32,142.8571429,2,1,10,0.097916667,-0.402083333,1,0,0,1.0669,Peridotite_12,7,12,1,5,1.067,7,12,0.118055556,-0.385416667,1,0,0,5.1296,Peridotite_rect,7,5.13,1,9,0,9,0,1,,,,,,,,,,,,,
63d193c45e01ccb694993e7f,SCR,2024-06-20_16h26.59.740,LearnStrategy,2023.2.3,Win32,142.8571429,2,1,11,0.516666667,0.375,1,0,0,1.2007,Diorite_09,3,09,6,8,1.201,3,09,0.086111111,-0.248611111,1,0,0,2.627,Diorite_rect,3,2.627,1,10,0,10,0,1,,,,,,,,,,,,,
63d193c45e01ccb694993e7f,SCR,2024-06-20_16h26.59.740,LearnStrategy,2023.2.3,Win32,142.8571429,2,1,12,0.056944444,-0.097222222,1,0,0,0.5883,Gabbro_08,4,08,3,5,0.588,4,08,0.383333333,-0.259027778,1,0,0,9.6918,Gabbro_rect,4,9.692,1,11,0,11,0,1,,,,,,,,,,,,,
63d193c45e01ccb694993e7f,SCR,2024-06-20_16h26.59.740,LearnStrategy,2023.2.3,Win32,142.8571429,2,1,13,-0.254166667,-0.406944444,1,0,0,1.0267,Andesite_06,1,06,1,3,1.027,1,06,-0.341666667,-0.251388889,1,0,0,4.1211,Andesite_rect,1,4.121,1,12,0,12,0,1,,,,,,,,,,,,,
63d193c45e01ccb694993e7f,SCR,2024-06-20_16h26.59.740,LearnStrategy,2023.2.3,Win32,142.8571429,2,1,14,0.40625,0.373611111,1,0,0,1.1032,Diorite_12,3,12,6,7,1.103,3,12,0.141666667,-0.254861111,1,0,0,4.741,Diorite_rect,3,4.741,1,13,0,13,0,1,,,,,,,,,,,,,
63d193c45e01ccb694993e7f,SCR,2024-06-20_16h26.59.740,LearnStrategy,2023.2.3,Win32,142.8571429,2,1,15,-0.363194444,0.40625,1,0,0,1.1529,Andesite_02,1,02,6,2,1.153,1,02,-0.072916667,-0.3875,1,0,0,18.4385,Pegmatite_rect,6,18.439,0,14,0,14,0,1,,,,,,,,,,,,,
63d193c45e01ccb694993e7f,SCR,2024-06-20_16h26.59.740,LearnStrategy,2023.2.3,Win32,142.8571429,2,1,16,0.368055556,-0.415277778,1,0,0,1.3528,Gabbro_15,4,15,1,7,1.353,4,15,0.169444444,-0.393055556,1,0,0,2.5315,Peridotite_rect,7,2.532,0,15,0,15,0,1,,,,,,,,,,,,,
63d193c45e01ccb694993e7f,SCR,2024-06-20_16h26.59.740,LearnStrategy,2023.2.3,Win32,142.8571429,2,2,1,,,,,,,,4,13,,,,,,,,,,,,,4,1.734,1,,,,,,0.361111111,-0.240972222,1,0,0,1.7338,Gabbro_rect,0,0,0,0,1,
63d193c45e01ccb694993e7f,SCR,2024-06-20_16h26.59.740,LearnStrategy,2023.2.3,Win32,142.8571429,2,2,2,,,,,,,,6,15,,,,,,,,,,,,,6,7.026,1,,,,,,-0.136805556,-0.39375,1,0,0,7.0264,Pegmatite_rect,1,0,1,0,1,
63d193c45e01ccb694993e7f,SCR,2024-06-20_16h26.59.740,LearnStrategy,2023.2.3,Win32,142.8571429,2,2,3,,,,,,,,3,08,,,,,,,,,,,,,3,3.31,1,,,,,,0.130555556,-0.244444444,1,0,0,3.3102,Diorite_rect,2,0,2,0,1,
63d193c45e01ccb694993e7f,SCR,2024-06-20_16h26.59.740,LearnStrategy,2023.2.3,Win32,142.8571429,2,2,4,,,,,,,,7,02,,,,,,,,,,,,,7,2.005,1,,,,,,0.120138889,-0.39375,1,0,0,2.0048,Peridotite_rect,3,0,3,0,1,
63d193c45e01ccb694993e7f,SCR,2024-06-20_16h26.59.740,LearnStrategy,2023.2.3,Win32,142.8571429,2,2,5,,,,,,,,6,09,,,,,,,,,,,,,7,10.421,0,,,,,,0.14375,-0.403472222,1,0,0,10.421,Peridotite_rect,4,0,4,0,1,
63d193c45e01ccb694993e7f,SCR,2024-06-20_16h26.59.740,LearnStrategy,2023.2.3,Win32,142.8571429,2,2,6,,,,,,,,3,02,,,,,,,,,,,,,6,7.066,0,,,,,,-0.160416667,-0.384027778,1,0,0,7.0663,Pegmatite_rect,5,0,5,0,1,
63d193c45e01ccb694993e7f,SCR,2024-06-20_16h26.59.740,LearnStrategy,2023.2.3,Win32,142.8571429,2,2,7,,,,,,,,1,07,,,,,,,,,,,,,1,10.025,1,,,,,,-0.350694444,-0.248611111,1,0,0,10.0254,Andesite_rect,6,0,6,0,1,
63d193c45e01ccb694993e7f,SCR,2024-06-20_16h26.59.740,LearnStrategy,2023.2.3,Win32,142.8571429,2,2,8,,,,,,,,8,13,,,,,,,,,,,,,8,3.196,1,,,,,,0.361805556,-0.399305556,1,0,0,3.1961,Pumice_rect,7,0,7,0,1,
63d193c45e01ccb694993e7f,SCR,2024-06-20_16h26.59.740,LearnStrategy,2023.2.3,Win32,142.8571429,2,2,9,,,,,,,,7,05,,,,,,,,,,,,,1,11.178,0,,,,,,-0.390277778,-0.249305556,1,0,0,11.1785,Andesite_rect,8,0,8,0,1,
63d193c45e01ccb694993e7f,SCR,2024-06-20_16h26.59.740,LearnStrategy,2023.2.3,Win32,142.8571429,2,2,10,,,,,,,,4,10,,,,,,,,,,,,,4,5.692,1,,,,,,0.369444444,-0.25,1,0,0,5.6924,Gabbro_rect,9,0,9,0,1,
63d193c45e01ccb694993e7f,SCR,2024-06-20_16h26.59.740,LearnStrategy,2023.2.3,Win32,142.8571429,2,2,11,,,,,,,,5,09,,,,,,,,,,,,,5,1.462,1,,,,,,-0.381944444,-0.404861111,1,0,0,1.462,Obsidian_rect,10,0,10,0,1,
63d193c45e01ccb694993e7f,SCR,2024-06-20_16h26.59.740,LearnStrategy,2023.2.3,Win32,142.8571429,2,2,12,,,,,,,,1,16,,,,,,,,,,,,,7,13.206,0,,,,,,0.090972222,-0.399305556,1,0,0,13.2055,Peridotite_rect,11,0,11,0,1,
63d193c45e01ccb694993e7f,SCR,2024-06-20_16h26.59.740,LearnStrategy,2023.2.3,Win32,142.8571429,2,2,13,,,,,,,,2,02,,,,,,,,,,,,,2,2.491,1,,,,,,-0.086805556,-0.261111111,1,0,0,2.491,Basalt_rect,12,0,12,0,1,
63d193c45e01ccb694993e7f,SCR,2024-06-20_16h26.59.740,LearnStrategy,2023.2.3,Win32,142.8571429,2,2,14,,,,,,,,5,10,,,,,,,,,,,,,5,2.969,1,,,,,,-0.413194444,-0.416666667,1,0,0,2.9685,Obsidian_rect,13,0,13,0,1,
63d193c45e01ccb694993e7f,SCR,2024-06-20_16h26.59.740,LearnStrategy,2023.2.3,Win32,142.8571429,2,2,15,,,,,,,,8,15,,,,,,,,,,,,,8,3.74,1,,,,,,0.348611111,-0.41875,1,0,0,3.7395,Pumice_rect,14,0,14,0,1,
63d193c45e01ccb694993e7f,SCR,2024-06-20_16h26.59.740,LearnStrategy,2023.2.3,Win32,142.8571429,2,2,16,,,,,,,,2,12,,,,,,,,,,,,,8,0.953,0,,,,,,0.348611111,-0.41875,1,0,0,0.9529,Pumice_rect,15,0,15,0,1,
63d193c45e01ccb694993e7f,SCR,2024-06-20_16h26.59.740,LearnStrategy,2023.2.3,Win32,142.8571429,3,1,1,0.360416667,0.081944444,1,0,0,1.498,Pegmatite_12,6,12,4,7,1.498,6,12,-0.088194444,-0.379861111,1,0,0,8.6826,Pegmatite_rect,6,8.683,1,0,0,0,0,1,,,,,,,,,,,,,
63d193c45e01ccb694993e7f,SCR,2024-06-20_16h26.59.740,LearnStrategy,2023.2.3,Win32,142.8571429,3,1,2,0.443055556,-0.441666667,1,0,0,1.0598,Gabbro_15,4,15,1,7,1.06,4,15,0.340277778,-0.25,1,0,0,3.9128,Gabbro_rect,4,3.913,1,1,0,1,0,1,,,,,,,,,,,,,
63d193c45e01ccb694993e7f,SCR,2024-06-20_16h26.59.740,LearnStrategy,2023.2.3,Win32,142.8571429,3,1,3,-0.395138889,-0.234722222,1,0,0,9.1659,Diorite_11,3,11,2,2,9.166,3,11,0.047222222,-0.259027778,1,0,0,4.6803,Diorite_rect,3,4.68,1,2,0,2,0,1,,,,,,,,,,,,,
63d193c45e01ccb694993e7f,SCR,2024-06-20_16h26.59.740,LearnStrategy,2023.2.3,Win32,142.8571429,3,1,4,0.084027778,-0.271527778,1,0,0,0.6939,Basalt_04,2,04,2,5,0.694,2,04,-0.076388889,-0.24375,1,0,0,1.1141,Basalt_rect,2,1.114,1,3,0,3,0,1,,,,,,,,,,,,,
63d193c45e01ccb694993e7f,SCR,2024-06-20_16h26.59.740,LearnStrategy,2023.2.3,Win32,142.8571429,3,1,5,-0.200694444,0.083333333,1,0,0,0.7205,Diorite_06,3,06,4,3,0.721,3,06,0.059027778,-0.238194444,1,0,0,4.3987,Diorite_rect,3,4.399,1,4,0,4,0,1,,,,,,,,,,,,,
63d193c45e01ccb694993e7f,SCR,2024-06-20_16h26.59.740,LearnStrategy,2023.2.3,Win32,142.8571429,3,1,6,-0.350694444,0.109027778,1,0,0,0.8721,Pegmatite_10,6,10,4,2,0.872,6,10,0.15,-0.400694444,1,0,0,1.1137,Peridotite_rect,7,1.114,0,5,0,5,0,1,,,,,,,,,,,,,
63d193c45e01ccb694993e7f,SCR,2024-06-20_16h26.59.740,LearnStrategy,2023.2.3,Win32,142.8571429,3,1,7,0.349305556,0.070833333,1,0,0,0.8602,Pegmatite_12,6,12,4,7,0.86,6,12,0.106944444,-0.235416667,1,0,0,7.7425,Diorite_rect,3,7.743,0,6,0,6,0,1,,,,,,,,,,,,,
63d193c45e01ccb694993e7f,SCR,2024-06-20_16h26.59.740,LearnStrategy,2023.2.3,Win32,142.8571429,3,1,8,0.5375,0.359722222,1,0,0,1.2493,Diorite_09,3,09,6,8,1.249,3,09,0.138888889,-0.244444444,1,0,0,1.198,Diorite_rect,3,1.198,1,7,0,7,0,1,,,,,,,,,,,,,
63d193c45e01ccb694993e7f,SCR,2024-06-20_16h26.59.740,LearnStrategy,2023.2.3,Win32,142.8571429,3,1,9,0.604166667,-0.053472222,1,0,0,0.8811,Peridotite_14,7,14,3,8,0.881,7,14,-0.080555556,-0.241666667,1,0,0,1.0396,Basalt_rect,2,1.04,0,8,0,8,0,1,,,,,,,,,,,,,
63d193c45e01ccb694993e7f,SCR,2024-06-20_16h26.59.740,LearnStrategy,2023.2.3,Win32,142.8571429,3,1,10,0.204861111,-0.096527778,1,0,0,0.7283,Basalt_11,2,11,3,6,0.728,2,11,0.373611111,-0.386111111,1,0,0,1.9475,Pumice_rect,8,1.947,0,9,0,9,0,1,,,,,,,,,,,,,
63d193c45e01ccb694993e7f,SCR,2024-06-20_16h26.59.740,LearnStrategy,2023.2.3,Win32,142.8571429,3,1,11,-0.520833333,-0.084027778,1,0,0,1.387,Gabbro_16,4,16,3,1,1.387,4,16,-0.130555556,-0.231944444,1,0,0,3.623,Basalt_rect,2,3.623,0,10,0,10,0,1,,,,,,,,,,,,,
63d193c45e01ccb694993e7f,SCR,2024-06-20_16h26.59.740,LearnStrategy,2023.2.3,Win32,142.8571429,3,1,12,0.531944444,-0.379861111,1,0,0,0.9017,Andesite_10,1,10,1,8,0.902,1,10,0.11875,-0.386805556,1,0,0,7.8151,Peridotite_rect,7,7.815,0,11,0,11,0,1,,,,,,,,,,,,,
63d193c45e01ccb694993e7f,SCR,2024-06-20_16h26.59.740,LearnStrategy,2023.2.3,Win32,142.8571429,3,1,13,-0.229861111,-0.108333333,1,0,0,1.0109,Pumice_09,8,09,3,3,1.011,8,09,0.385416667,-0.406944444,1,0,0,1.2341,Pumice_rect,8,1.234,1,12,0,12,0,1,,,,,,,,,,,,,
63d193c45e01ccb694993e7f,SCR,2024-06-20_16h26.59.740,LearnStrategy,2023.2.3,Win32,142.8571429,3,1,14,-0.513194444,0.400694444,1,0,0,1.2072,Andesite_11,1,11,6,1,1.207,1,11,-0.330555556,-0.248611111,1,0,0,3.1773,Andesite_rect,1,3.177,1,13,0,13,0,1,,,,,,,,,,,,,
63d193c45e01ccb694993e7f,SCR,2024-06-20_16h26.59.740,LearnStrategy,2023.2.3,Win32,142.8571429,3,1,15,-0.5375,0.259722222,1,0,0,0.937,Peridotite_06,7,06,5,1,0.937,7,06,0.093055556,-0.386111111,1,0,0,2.8848,Peridotite_rect,7,2.885,1,14,0,14,0,1,,,,,,,,,,,,,
63d193c45e01ccb694993e7f,SCR,2024-06-20_16h26.59.740,LearnStrategy,2023.2.3,Win32,142.8571429,3,1,16,0.565972222,-0.123611111,1,0,0,0.8591,Peridotite_14,7,14,3,8,0.859,7,14,0.120138889,-0.385416667,1,0,0,0.9213,Peridotite_rect,7,0.921,1,15,0,15,0,1,,,,,,,,,,,,,
63d193c45e01ccb694993e7f,SCR,2024-06-20_16h26.59.740,LearnStrategy,2023.2.3,Win32,142.8571429,3,2,1,,,,,,,,3,14,,,,,,,,,,,,,1,5.199,0,,,,,,-0.334027778,-0.270138889,1,0,0,5.1989,Andesite_rect,0,0,0,0,1,
63d193c45e01ccb694993e7f,SCR,2024-06-20_16h26.59.740,LearnStrategy,2023.2.3,Win32,142.8571429,3,2,2,,,,,,,,8,04,,,,,,,,,,,,,8,1.539,1,,,,,,0.378472222,-0.394444444,1,0,0,1.539,Pumice_rect,1,0,1,0,1,
63d193c45e01ccb694993e7f,SCR,2024-06-20_16h26.59.740,LearnStrategy,2023.2.3,Win32,142.8571429,3,2,3,,,,,,,,1,14,,,,,,,,,,,,,1,9.699,1,,,,,,-0.404166667,-0.245138889,1,0,0,9.6995,Andesite_rect,2,0,2,0,1,
63d193c45e01ccb694993e7f,SCR,2024-06-20_16h26.59.740,LearnStrategy,2023.2.3,Win32,142.8571429,3,2,4,,,,,,,,8,14,,,,,,,,,,,,,8,1.99,1,,,,,,0.340972222,-0.418055556,1,0,0,1.9904,Pumice_rect,3,0,3,0,1,
63d193c45e01ccb694993e7f,SCR,2024-06-20_16h26.59.740,LearnStrategy,2023.2.3,Win32,142.8571429,3,2,5,,,,,,,,7,16,,,,,,,,,,,,,7,2.823,1,,,,,,0.136805556,-0.39375,1,0,0,2.823,Peridotite_rect,4,0,4,0,1,
63d193c45e01ccb694993e7f,SCR,2024-06-20_16h26.59.740,LearnStrategy,2023.2.3,Win32,142.8571429,3,2,6,,,,,,,,5,07,,,,,,,,,,,,,5,1.373,1,,,,,,-0.375,-0.401388889,1,0,0,1.3726,Obsidian_rect,5,0,5,0,1,
63d193c45e01ccb694993e7f,SCR,2024-06-20_16h26.59.740,LearnStrategy,2023.2.3,Win32,142.8571429,3,2,7,,,,,,,,6,13,,,,,,,,,,,,,6,8.886,1,,,,,,-0.136111111,-0.385416667,1,0,0,8.8856,Pegmatite_rect,6,0,6,0,1,
63d193c45e01ccb694993e7f,SCR,2024-06-20_16h26.59.740,LearnStrategy,2023.2.3,Win32,142.8571429,3,2,8,,,,,,,,6,03,,,,,,,,,,,,,7,4.92,0,,,,,,0.113194444,-0.403472222,1,0,0,4.9201,Peridotite_rect,7,0,7,0,1,
63d193c45e01ccb694993e7f,SCR,2024-06-20_16h26.59.740,LearnStrategy,2023.2.3,Win32,142.8571429,3,2,9,,,,,,,,4,01,,,,,,,,,,,,,1,8.678,0,,,,,,-0.341666667,-0.263194444,1,0,0,8.6777,Andesite_rect,8,0,8,0,1,
63d193c45e01ccb694993e7f,SCR,2024-06-20_16h26.59.740,LearnStrategy,2023.2.3,Win32,142.8571429,3,2,10,,,,,,,,2,10,,,,,,,,,,,,,2,2.719,1,,,,,,-0.153472222,-0.261111111,1,0,0,2.7188,Basalt_rect,9,0,9,0,1,
63d193c45e01ccb694993e7f,SCR,2024-06-20_16h26.59.740,LearnStrategy,2023.2.3,Win32,142.8571429,3,2,11,,,,,,,,4,14,,,,,,,,,,,,,4,4.846,1,,,,,,0.35,-0.252083333,1,0,0,4.8456,Gabbro_rect,10,0,10,0,1,
63d193c45e01ccb694993e7f,SCR,2024-06-20_16h26.59.740,LearnStrategy,2023.2.3,Win32,142.8571429,3,2,12,,,,,,,,5,04,,,,,,,,,,,,,5,1.088,1,,,,,,-0.346527778,-0.3875,1,0,0,1.088,Obsidian_rect,11,0,11,0,1,
63d193c45e01ccb694993e7f,SCR,2024-06-20_16h26.59.740,LearnStrategy,2023.2.3,Win32,142.8571429,3,2,13,,,,,,,,3,07,,,,,,,,,,,,,3,5.227,1,,,,,,0.089583333,-0.269444444,1,0,0,5.2271,Diorite_rect,12,0,12,0,1,
63d193c45e01ccb694993e7f,SCR,2024-06-20_16h26.59.740,LearnStrategy,2023.2.3,Win32,142.8571429,3,2,14,,,,,,,,1,04,,,,,,,,,,,,,1,7.934,1,,,,,,-0.338194444,-0.254166667,1,0,0,7.9341,Andesite_rect,13,0,13,0,1,
63d193c45e01ccb694993e7f,SCR,2024-06-20_16h26.59.740,LearnStrategy,2023.2.3,Win32,142.8571429,3,2,15,,,,,,,,7,04,,,,,,,,,,,,,2,5.887,0,,,,,,-0.1625,-0.25,1,0,0,5.8868,Basalt_rect,14,0,14,0,1,
63d193c45e01ccb694993e7f,SCR,2024-06-20_16h26.59.740,LearnStrategy,2023.2.3,Win32,142.8571429,3,2,16,,,,,,,,2,01,,,,,,,,,,,,,2,1.177,1,,,,,,-0.1625,-0.25,1,0,0,1.1767,Basalt_rect,15,0,15,0,1,
63d193c45e01ccb694993e7f,SCR,2024-06-20_16h26.59.740,LearnStrategy,2023.2.3,Win32,142.8571429,4,1,1,-0.234722222,0.215277778,1,0,0,1.2982,Andesite_03,1,03,5,3,1.298,1,03,-0.347222222,-0.240972222,1,0,0,6.7761,Andesite_rect,1,6.776,1,0,0,0,0,1,,,,,,,,,,,,,
63d193c45e01ccb694993e7f,SCR,2024-06-20_16h26.59.740,LearnStrategy,2023.2.3,Win32,142.8571429,4,1,2,-0.5375,0.25,1,0,0,1.0623,Peridotite_06,7,06,5,1,1.062,7,06,0.144444444,-0.418055556,1,0,0,1.3568,Peridotite_rect,7,1.357,1,1,0,1,0,1,,,,,,,,,,,,,
63d193c45e01ccb694993e7f,SCR,2024-06-20_16h26.59.740,LearnStrategy,2023.2.3,Win32,142.8571429,4,1,3,-0.390277778,-0.40625,1,0,0,1.1643,Peridotite_10,7,10,1,2,1.164,7,10,-0.334027778,-0.242361111,1,0,0,6.7249,Andesite_rect,1,6.725,0,2,0,2,0,1,,,,,,,,,,,,,
63d193c45e01ccb694993e7f,SCR,2024-06-20_16h26.59.740,LearnStrategy,2023.2.3,Win32,142.8571429,4,1,4,0.238194444,-0.226388889,1,0,0,0.8507,Basalt_06,2,06,2,6,0.851,2,06,-0.163888889,-0.256944444,1,0,0,0.8019,Basalt_rect,2,0.802,1,3,0,3,0,1,,,,,,,,,,,,,
63d193c45e01ccb694993e7f,SCR,2024-06-20_16h26.59.740,LearnStrategy,2023.2.3,Win32,142.8571429,4,1,5,-0.580555556,-0.111111111,1,0,0,0.6924,Gabbro_16,4,16,3,1,0.692,4,16,0.343055556,-0.238194444,1,0,0,1.531,Gabbro_rect,4,1.531,1,4,0,4,0,1,,,,,,,,,,,,,
63d193c45e01ccb694993e7f,SCR,2024-06-20_16h26.59.740,LearnStrategy,2023.2.3,Win32,142.8571429,4,1,6,0.590277778,0.221527778,1,0,0,1.0548,Pegmatite_08,6,08,5,8,1.055,6,08,-0.404861111,-0.245833333,1,0,0,7.7204,Andesite_rect,1,7.72,0,5,0,5,0,1,,,,,,,,,,,,,
63d193c45e01ccb694993e7f,SCR,2024-06-20_16h26.59.740,LearnStrategy,2023.2.3,Win32,142.8571429,4,1,7,0.548611111,-0.418055556,1,0,0,0.937,Andesite_10,1,10,1,8,0.937,1,10,-0.150694444,-0.252083333,1,0,0,3.0507,Basalt_rect,2,3.051,0,6,0,6,0,1,,,,,,,,,,,,,
63d193c45e01ccb694993e7f,SCR,2024-06-20_16h26.59.740,LearnStrategy,2023.2.3,Win32,142.8571429,4,1,8,0.359722222,-0.384027778,1,0,0,0.8676,Gabbro_15,4,15,1,7,0.868,4,15,0.303472222,-0.261805556,1,0,0,2.1483,Gabbro_rect,4,2.148,1,7,0,7,0,1,,,,,,,,,,,,,
63d193c45e01ccb694993e7f,SCR,2024-06-20_16h26.59.740,LearnStrategy,2023.2.3,Win32,142.8571429,4,1,9,-0.515277778,-0.245833333,1,0,0,0.888,Pumice_06,8,06,2,1,0.888,8,06,0.318055556,-0.397222222,1,0,0,1.0049,Pumice_rect,8,1.005,1,8,0,8,0,1,,,,,,,,,,,,,
63d193c45e01ccb694993e7f,SCR,2024-06-20_16h26.59.740,LearnStrategy,2023.2.3,Win32,142.8571429,4,1,10,0.236805556,-0.089583333,1,0,0,0.5828,Basalt_11,2,11,3,6,0.583,2,11,-0.08125,-0.261805556,1,0,0,2.1784,Basalt_rect,2,2.178,1,9,0,9,0,1,,,,,,,,,,,,,
63d193c45e01ccb694993e7f,SCR,2024-06-20_16h26.59.740,LearnStrategy,2023.2.3,Win32,142.8571429,4,1,11,0.566666667,0.095833333,1,0,0,0.7491,Diorite_10,3,10,4,8,0.749,3,10,0.165972222,-0.256944444,1,0,0,2.2759,Diorite_rect,3,2.276,1,10,0,10,0,1,,,,,,,,,,,,,
63d193c45e01ccb694993e7f,SCR,2024-06-20_16h26.59.740,LearnStrategy,2023.2.3,Win32,142.8571429,4,1,12,-0.389583333,0.224305556,1,0,0,0.916,Pegmatite_06,6,06,5,2,0.916,6,06,-0.177777778,-0.400694444,1,0,0,5.0781,Pegmatite_rect,6,5.078,1,11,0,11,0,1,,,,,,,,,,,,,
63d193c45e01ccb694993e7f,SCR,2024-06-20_16h26.59.740,LearnStrategy,2023.2.3,Win32,142.8571429,4,1,13,0.531944444,-0.228472222,1,0,0,0.847,Pegmatite_16,6,16,2,8,0.847,6,16,-0.055555556,-0.407638889,1,0,0,1.8285,Pegmatite_rect,6,1.828,1,12,0,12,0,1,,,,,,,,,,,,,
63d193c45e01ccb694993e7f,SCR,2024-06-20_16h26.59.740,LearnStrategy,2023.2.3,Win32,142.8571429,4,1,14,0.596527778,0.384722222,1,0,0,0.963,Diorite_09,3,09,6,8,0.963,3,09,0.124305556,-0.25625,1,0,0,1.8483,Diorite_rect,3,1.848,1,13,0,13,0,1,,,,,,,,,,,,,
63d193c45e01ccb694993e7f,SCR,2024-06-20_16h26.59.740,LearnStrategy,2023.2.3,Win32,142.8571429,4,1,15,0.590972222,0.388888889,1,0,0,0.8021,Diorite_09,3,09,6,8,0.802,3,09,0.132638889,-0.256944444,1,0,0,1.3421,Diorite_rect,3,1.342,1,14,0,14,0,1,,,,,,,,,,,,,
63d193c45e01ccb694993e7f,SCR,2024-06-20_16h26.59.740,LearnStrategy,2023.2.3,Win32,142.8571429,4,1,16,0.549305556,-0.092361111,1,0,0,0.7548,Peridotite_14,7,14,3,8,0.755,7,14,0.129861111,-0.397222222,1,0,0,2.2123,Peridotite_rect,7,2.212,1,15,0,15,0,1,,,,,,,,,,,,,
63d193c45e01ccb694993e7f,SCR,2024-06-20_16h26.59.740,LearnStrategy,2023.2.3,Win32,142.8571429,4,2,1,,,,,,,,8,14,,,,,,,,,,,,,8,1.998,1,,,,,,0.356944444,-0.407638889,1,0,0,1.9977,Pumice_rect,0,0,0,0,1,
63d193c45e01ccb694993e7f,SCR,2024-06-20_16h26.59.740,LearnStrategy,2023.2.3,Win32,142.8571429,4,2,2,,,,,,,,7,15,,,,,,,,,,,,,7,7.435,1,,,,,,0.1125,-0.397916667,1,0,0,7.4354,Peridotite_rect,1,0,1,0,1,
63d193c45e01ccb694993e7f,SCR,2024-06-20_16h26.59.740,LearnStrategy,2023.2.3,Win32,142.8571429,4,2,3,,,,,,,,4,05,,,,,,,,,,,,,4,5.366,1,,,,,,0.365972222,-0.260416667,1,0,0,5.3661,Gabbro_rect,2,0,2,0,1,
63d193c45e01ccb694993e7f,SCR,2024-06-20_16h26.59.740,LearnStrategy,2023.2.3,Win32,142.8571429,4,2,4,,,,,,,,3,13,,,,,,,,,,,,,3,4.074,1,,,,,,0.169444444,-0.253472222,1,0,0,4.0745,Diorite_rect,3,0,3,0,1,
63d193c45e01ccb694993e7f,SCR,2024-06-20_16h26.59.740,LearnStrategy,2023.2.3,Win32,142.8571429,4,2,5,,,,,,,,6,03,,,,,,,,,,,,,6,6.094,1,,,,,,-0.122916667,-0.39375,1,0,0,6.0938,Pegmatite_rect,4,0,4,0,1,
63d193c45e01ccb694993e7f,SCR,2024-06-20_16h26.59.740,LearnStrategy,2023.2.3,Win32,142.8571429,4,2,6,,,,,,,,2,12,,,,,,,,,,,,,2,2.303,1,,,,,,-0.134027778,-0.25625,1,0,0,2.3029,Basalt_rect,5,0,5,0,1,
63d193c45e01ccb694993e7f,SCR,2024-06-20_16h26.59.740,LearnStrategy,2023.2.3,Win32,142.8571429,4,2,7,,,,,,,,1,04,,,,,,,,,,,,,1,6.045,1,,,,,,-0.360416667,-0.254861111,1,0,0,6.0451,Andesite_rect,6,0,6,0,1,
63d193c45e01ccb694993e7f,SCR,2024-06-20_16h26.59.740,LearnStrategy,2023.2.3,Win32,142.8571429,4,2,8,,,,,,,,3,08,,,,,,,,,,,,,3,3.609,1,,,,,,0.141666667,-0.263194444,1,0,0,3.6091,Diorite_rect,7,0,7,0,1,
63d193c45e01ccb694993e7f,SCR,2024-06-20_16h26.59.740,LearnStrategy,2023.2.3,Win32,142.8571429,4,2,9,,,,,,,,5,11,,,,,,,,,,,,,5,1.033,1,,,,,,-0.447222222,-0.400694444,1,0,0,1.0327,Obsidian_rect,8,0,8,0,1,
63d193c45e01ccb694993e7f,SCR,2024-06-20_16h26.59.740,LearnStrategy,2023.2.3,Win32,142.8571429,4,2,10,,,,,,,,2,02,,,,,,,,,,,,,2,1.226,1,,,,,,-0.14375,-0.260416667,1,0,0,1.2258,Basalt_rect,9,0,9,0,1,
63d193c45e01ccb694993e7f,SCR,2024-06-20_16h26.59.740,LearnStrategy,2023.2.3,Win32,142.8571429,4,2,11,,,,,,,,1,16,,,,,,,,,,,,,1,9.803,1,,,,,,-0.4,-0.258333333,1,0,0,9.8029,Andesite_rect,10,0,10,0,1,
63d193c45e01ccb694993e7f,SCR,2024-06-20_16h26.59.740,LearnStrategy,2023.2.3,Win32,142.8571429,4,2,12,,,,,,,,6,05,,,,,,,,,,,,,6,2.816,1,,,,,,-0.088888889,-0.418055556,1,0,0,2.8159,Pegmatite_rect,11,0,11,0,1,
63d193c45e01ccb694993e7f,SCR,2024-06-20_16h26.59.740,LearnStrategy,2023.2.3,Win32,142.8571429,4,2,13,,,,,,,,5,10,,,,,,,,,,,,,5,1.394,1,,,,,,-0.430555556,-0.404861111,1,0,0,1.3938,Obsidian_rect,12,0,12,0,1,
63d193c45e01ccb694993e7f,SCR,2024-06-20_16h26.59.740,LearnStrategy,2023.2.3,Win32,142.8571429,4,2,14,,,,,,,,7,07,,,,,,,,,,,,,7,1.913,1,,,,,,0.122916667,-0.406944444,1,0,0,1.9128,Peridotite_rect,13,0,13,0,1,
63d193c45e01ccb694993e7f,SCR,2024-06-20_16h26.59.740,LearnStrategy,2023.2.3,Win32,142.8571429,4,2,15,,,,,,,,4,03,,,,,,,,,,,,,1,6.657,0,,,,,,-0.382638889,-0.25,1,0,0,6.6567,Andesite_rect,14,0,14,0,1,
63d193c45e01ccb694993e7f,SCR,2024-06-20_16h26.59.740,LearnStrategy,2023.2.3,Win32,142.8571429,4,2,16,,,,,,,,8,04,,,,,,,,,,,,,8,1.809,1,,,,,,0.369444444,-0.410416667,1,0,0,1.8086,Pumice_rect,15,0,15,0,1,
63d193c45e01ccb694993e7f,SCR,2024-06-20_16h26.59.740,LearnStrategy,2023.2.3,Win32,142.8571429,5,1,1,-0.216666667,-0.38125,1,0,0,1.2772,Andesite_06,1,06,1,3,1.277,1,06,-0.384027778,-0.248611111,1,0,0,4.9287,Andesite_rect,1,4.929,1,0,0,0,0,1,,,,,,,,,,,,,
63d193c45e01ccb694993e7f,SCR,2024-06-20_16h26.59.740,LearnStrategy,2023.2.3,Win32,142.8571429,5,1,2,-0.516666667,-0.069444444,1,0,0,1.0619,Gabbro_16,4,16,3,1,1.062,4,16,0.354166667,-0.236805556,1,0,0,1.3097,Gabbro_rect,4,1.31,1,1,0,1,0,1,,,,,,,,,,,,,
63d193c45e01ccb694993e7f,SCR,2024-06-20_16h26.59.740,LearnStrategy,2023.2.3,Win32,142.8571429,5,1,3,0.090277778,0.363194444,1,0,0,0.9783,Peridotite_13,7,13,6,5,0.978,7,13,0.131944444,-0.390277778,1,0,0,1.4277,Peridotite_rect,7,1.428,1,2,0,2,0,1,,,,,,,,,,,,,
63d193c45e01ccb694993e7f,SCR,2024-06-20_16h26.59.740,LearnStrategy,2023.2.3,Win32,142.8571429,5,1,4,0.266666667,-0.13125,1,0,0,0.6311,Basalt_11,2,11,3,6,0.631,2,11,-0.051388889,-0.252083333,1,0,0,0.8102,Basalt_rect,2,0.81,1,3,0,3,0,1,,,,,,,,,,,,,
63d193c45e01ccb694993e7f,SCR,2024-06-20_16h26.59.740,LearnStrategy,2023.2.3,Win32,142.8571429,5,1,5,0.424305556,0.061805556,1,0,0,0.6666,Pegmatite_12,6,12,4,7,0.667,6,12,-0.3375,-0.257638889,1,0,0,3.2449,Andesite_rect,1,3.245,0,4,0,4,0,1,,,,,,,,,,,,,
63d193c45e01ccb694993e7f,SCR,2024-06-20_16h26.59.740,LearnStrategy,2023.2.3,Win32,142.8571429,5,1,6,-0.2125,0.236111111,1,0,0,1.04,Andesite_03,1,03,5,3,1.04,1,03,-0.348611111,-0.247916667,1,0,0,2.1577,Andesite_rect,1,2.158,1,5,0,5,0,1,,,,,,,,,,,,,
63d193c45e01ccb694993e7f,SCR,2024-06-20_16h26.59.740,LearnStrategy,2023.2.3,Win32,142.8571429,5,1,7,0.604861111,-0.060416667,1,0,0,0.7909,Peridotite_14,7,14,3,8,0.791,7,14,0.134027778,-0.382638889,1,0,0,1.0384,Peridotite_rect,7,1.038,1,6,0,6,0,1,,,,,,,,,,,,,
63d193c45e01ccb694993e7f,SCR,2024-06-20_16h26.59.740,LearnStrategy,2023.2.3,Win32,142.8571429,5,1,8,-0.531944444,0.105555556,1,0,0,0.8948,Pegmatite_07,6,07,4,1,0.895,6,07,-0.159027778,-0.393055556,1,0,0,2.8361,Pegmatite_rect,6,2.836,1,7,0,7,0,1,,,,,,,,,,,,,
63d193c45e01ccb694993e7f,SCR,2024-06-20_16h26.59.740,LearnStrategy,2023.2.3,Win32,142.8571429,5,1,9,-0.105555556,0.231944444,1,0,0,0.8114,Obsidian_05,5,05,5,4,0.811,5,05,-0.430555556,-0.410416667,1,0,0,0.8731,Obsidian_rect,5,0.873,1,8,0,8,0,1,,,,,,,,,,,,,
63d193c45e01ccb694993e7f,SCR,2024-06-20_16h26.59.740,LearnStrategy,2023.2.3,Win32,142.8571429,5,1,10,0.535416667,0.05625,1,0,0,0.7285,Diorite_10,3,10,4,8,0.729,3,10,0.101388889,-0.256944444,1,0,0,3.9977,Diorite_rect,3,3.998,1,9,0,9,0,1,,,,,,,,,,,,,
63d193c45e01ccb694993e7f,SCR,2024-06-20_16h26.59.740,LearnStrategy,2023.2.3,Win32,142.8571429,5,1,11,0.109027778,-0.391666667,1,0,0,0.9648,Peridotite_12,7,12,1,5,0.965,7,12,-0.085416667,-0.395833333,1,0,0,3.9538,Pegmatite_rect,6,3.954,0,10,0,10,0,1,,,,,,,,,,,,,
63d193c45e01ccb694993e7f,SCR,2024-06-20_16h26.59.740,LearnStrategy,2023.2.3,Win32,142.8571429,5,1,12,-0.352083333,-0.227083333,1,0,0,0.9715,Diorite_11,3,11,2,2,0.971,3,11,0.078472222,-0.383333333,1,0,0,1.7794,Peridotite_rect,7,1.779,0,11,0,11,0,1,,,,,,,,,,,,,
63d193c45e01ccb694993e7f,SCR,2024-06-20_16h26.59.740,LearnStrategy,2023.2.3,Win32,142.8571429,5,1,13,-0.277083333,-0.272916667,1,0,0,0.617,Gabbro_11,4,11,2,3,0.617,4,11,-0.143055556,-0.228472222,1,0,0,0.6854,Basalt_rect,2,0.685,0,12,0,12,0,1,,,,,,,,,,,,,
63d193c45e01ccb694993e7f,SCR,2024-06-20_16h26.59.740,LearnStrategy,2023.2.3,Win32,142.8571429,5,1,14,0.540277778,0.382638889,1,0,0,1.02,Diorite_09,3,09,6,8,1.02,3,09,0.110416667,-0.263194444,1,0,0,1.275,Diorite_rect,3,1.275,1,13,0,13,0,1,,,,,,,,,,,,,
63d193c45e01ccb694993e7f,SCR,2024-06-20_16h26.59.740,LearnStrategy,2023.2.3,Win32,142.8571429,5,1,15,-0.2625,-0.263194444,1,0,0,0.7915,Gabbro_11,4,11,2,3,0.792,4,11,-0.170138889,-0.245138889,1,0,0,1.5272,Basalt_rect,2,1.527,0,14,0,14,0,1,,,,,,,,,,,,,
63d193c45e01ccb694993e7f,SCR,2024-06-20_16h26.59.740,LearnStrategy,2023.2.3,Win32,142.8571429,5,1,16,-0.04375,0.084722222,1,0,0,0.5805,Pumice_03,8,03,4,4,0.581,8,03,0.331944444,-0.391666667,1,0,0,1.0949,Pumice_rect,8,1.095,1,15,0,15,0,1,,,,,,,,,,,,,
63d193c45e01ccb694993e7f,SCR,2024-06-20_16h26.59.740,LearnStrategy,2023.2.3,Win32,142.8571429,5,2,1,,,,,,,,1,14,,,,,,,,,,,,,6,5.276,0,,,,,,-0.108333333,-0.402083333,1,0,0,5.2758,Pegmatite_rect,0,0,0,0,1,
63d193c45e01ccb694993e7f,SCR,2024-06-20_16h26.59.740,LearnStrategy,2023.2.3,Win32,142.8571429,5,2,2,,,,,,,,8,13,,,,,,,,,,,,,8,9.359,1,,,,,,0.340972222,-0.40625,1,0,0,9.3593,Pumice_rect,1,0,1,0,1,
63d193c45e01ccb694993e7f,SCR,2024-06-20_16h26.59.740,LearnStrategy,2023.2.3,Win32,142.8571429,5,2,3,,,,,,,,6,11,,,,,,,,,,,,,6,16.151,1,,,,,,-0.175694444,-0.389583333,1,0,0,16.1508,Pegmatite_rect,2,0,2,0,1,
63d193c45e01ccb694993e7f,SCR,2024-06-20_16h26.59.740,LearnStrategy,2023.2.3,Win32,142.8571429,5,2,4,,,,,,,,2,01,,,,,,,,,,,,,2,1.078,1,,,,,,-0.16875,-0.255555556,1,0,0,1.0783,Basalt_rect,3,0,3,0,1,
63d193c45e01ccb694993e7f,SCR,2024-06-20_16h26.59.740,LearnStrategy,2023.2.3,Win32,142.8571429,5,2,5,,,,,,,,5,12,,,,,,,,,,,,,5,0.961,1,,,,,,-0.40625,-0.395138889,1,0,0,0.9609,Obsidian_rect,4,0,4,0,1,
63d193c45e01ccb694993e7f,SCR,2024-06-20_16h26.59.740,LearnStrategy,2023.2.3,Win32,142.8571429,5,2,6,,,,,,,,4,10,,,,,,,,,,,,,4,1.907,1,,,,,,0.363194444,-0.2625,1,0,0,1.9071,Gabbro_rect,5,0,5,0,1,
63d193c45e01ccb694993e7f,SCR,2024-06-20_16h26.59.740,LearnStrategy,2023.2.3,Win32,142.8571429,5,2,7,,,,,,,,5,07,,,,,,,,,,,,,5,1.199,1,,,,,,-0.334722222,-0.403472222,1,0,0,1.1989,Obsidian_rect,6,0,6,0,1,
63d193c45e01ccb694993e7f,SCR,2024-06-20_16h26.59.740,LearnStrategy,2023.2.3,Win32,142.8571429,5,2,8,,,,,,,,8,02,,,,,,,,,,,,,8,1.13,1,,,,,,0.384027778,-0.402083333,1,0,0,1.1295,Pumice_rect,7,0,7,0,1,
63d193c45e01ccb694993e7f,SCR,2024-06-20_16h26.59.740,LearnStrategy,2023.2.3,Win32,142.8571429,5,2,9,,,,,,,,7,02,,,,,,,,,,,,,7,1.373,1,,,,,,0.145138889,-0.379861111,1,0,0,1.3729,Peridotite_rect,8,0,8,0,1,
63d193c45e01ccb694993e7f,SCR,2024-06-20_16h26.59.740,LearnStrategy,2023.2.3,Win32,142.8571429,5,2,10,,,,,,,,3,14,,,,,,,,,,,,,3,4.601,1,,,,,,0.127777778,-0.252777778,1,0,0,4.6013,Diorite_rect,9,0,9,0,1,
63d193c45e01ccb694993e7f,SCR,2024-06-20_16h26.59.740,LearnStrategy,2023.2.3,Win32,142.8571429,5,2,11,,,,,,,,1,05,,,,,,,,,,,,,1,7.311,1,,,,,,-0.348611111,-0.254861111,1,0,0,7.3105,Andesite_rect,10,0,10,0,1,
63d193c45e01ccb694993e7f,SCR,2024-06-20_16h26.59.740,LearnStrategy,2023.2.3,Win32,142.8571429,5,2,12,,,,,,,,7,04,,,,,,,,,,,,,4,3.731,0,,,,,,0.379861111,-0.246527778,1,0,0,3.7312,Gabbro_rect,11,0,11,0,1,
63d193c45e01ccb694993e7f,SCR,2024-06-20_16h26.59.740,LearnStrategy,2023.2.3,Win32,142.8571429,5,2,13,,,,,,,,6,15,,,,,,,,,,,,,6,2.672,1,,,,,,-0.165972222,-0.398611111,1,0,0,2.6716,Pegmatite_rect,12,0,12,0,1,
63d193c45e01ccb694993e7f,SCR,2024-06-20_16h26.59.740,LearnStrategy,2023.2.3,Win32,142.8571429,5,2,14,,,,,,,,3,07,,,,,,,,,,,,,6,12.72,0,,,,,,-0.090972222,-0.401388889,1,0,0,12.7202,Pegmatite_rect,13,0,13,0,1,
63d193c45e01ccb694993e7f,SCR,2024-06-20_16h26.59.740,LearnStrategy,2023.2.3,Win32,142.8571429,5,2,15,,,,,,,,2,08,,,,,,,,,,,,,2,1.067,1,,,,,,-0.080555556,-0.243055556,1,0,0,1.0673,Basalt_rect,14,0,14,0,1,
63d193c45e01ccb694993e7f,SCR,2024-06-20_16h26.59.740,LearnStrategy,2023.2.3,Win32,142.8571429,5,2,16,,,,,,,,4,13,,,,,,,,,,,,,4,10.901,1,,,,,,0.343055556,-0.256944444,1,0,0,10.9007,Gabbro_rect,15,0,15,0,1,
63d193c45e01ccb694993e7f,SCR,2024-06-20_16h26.59.740,LearnStrategy,2023.2.3,Win32,142.8571429,6,1,1,-0.393055556,-0.263888889,1,0,0,1.2635,Diorite_11,3,11,2,2,1.264,3,11,0.086805556,-0.395138889,1,0,0,2.1446,Peridotite_rect,7,2.145,0,0,0,0,0,1,,,,,,,,,,,,,
63d193c45e01ccb694993e7f,SCR,2024-06-20_16h26.59.740,LearnStrategy,2023.2.3,Win32,142.8571429,6,1,2,0.027083333,0.435416667,1,0,0,0.8485,Peridotite_13,7,13,6,5,0.848,7,13,0.120138889,-0.397222222,1,0,0,0.9695,Peridotite_rect,7,0.969,1,1,0,1,0,1,,,,,,,,,,,,,
63d193c45e01ccb694993e7f,SCR,2024-06-20_16h26.59.740,LearnStrategy,2023.2.3,Win32,142.8571429,6,1,3,-0.113194444,-0.272222222,1,0,0,0.7259,Peridotite_08,7,08,2,4,0.726,7,08,0.122916667,-0.411805556,1,0,0,9.1172,Peridotite_rect,7,9.117,1,2,0,2,0,1,,,,,,,,,,,,,
63d193c45e01ccb694993e7f,SCR,2024-06-20_16h26.59.740,LearnStrategy,2023.2.3,Win32,142.8571429,6,1,4,-0.236805556,-0.286111111,1,0,0,0.8314,Gabbro_11,4,11,2,3,0.831,4,11,-0.163888889,-0.241666667,1,0,0,0.5863,Basalt_rect,2,0.586,0,3,0,3,0,1,,,,,,,,,,,,,
63d193c45e01ccb694993e7f,SCR,2024-06-20_16h26.59.740,LearnStrategy,2023.2.3,Win32,142.8571429,6,1,5,0.213888889,0.399305556,1,0,0,0.8188,Obsidian_16,5,16,6,6,0.819,5,16,-0.373611111,-0.390972222,1,0,0,0.7201,Obsidian_rect,5,0.72,1,4,0,4,0,1,,,,,,,,,,,,,
63d193c45e01ccb694993e7f,SCR,2024-06-20_16h26.59.740,LearnStrategy,2023.2.3,Win32,142.8571429,6,1,6,0.414583333,0.070833333,1,0,0,0.6451,Pegmatite_12,6,12,4,7,0.645,6,12,-0.150694444,-0.395833333,1,0,0,2.1372,Pegmatite_rect,6,2.137,1,5,0,5,0,1,,,,,,,,,,,,,
63d193c45e01ccb694993e7f,SCR,2024-06-20_16h26.59.740,LearnStrategy,2023.2.3,Win32,142.8571429,6,1,7,0.399305556,0.274305556,1,0,0,0.6038,Basalt_09,2,09,5,7,0.604,2,09,-0.095833333,-0.248611111,1,0,0,0.8115,Basalt_rect,2,0.812,1,6,0,6,0,1,,,,,,,,,,,,,
63d193c45e01ccb694993e7f,SCR,2024-06-20_16h26.59.740,LearnStrategy,2023.2.3,Win32,142.8571429,6,1,8,-0.073611111,-0.098611111,1,0,0,0.5689,Pumice_10,8,10,3,4,0.569,8,10,0.122222222,-0.257638889,1,0,0,1.3465,Diorite_rect,3,1.347,0,7,0,7,0,1,,,,,,,,,,,,,
63d193c45e01ccb694993e7f,SCR,2024-06-20_16h26.59.740,LearnStrategy,2023.2.3,Win32,142.8571429,6,1,9,-0.358333333,0.433333333,1,0,0,0.973,Andesite_02,1,02,6,2,0.973,1,02,-0.124305556,-0.389583333,1,0,0,8.5639,Pegmatite_rect,6,8.564,0,8,0,8,0,1,,,,,,,,,,,,,
63d193c45e01ccb694993e7f,SCR,2024-06-20_16h26.59.740,LearnStrategy,2023.2.3,Win32,142.8571429,6,1,10,-0.357638889,-0.113888889,1,0,0,0.8047,Andesite_09,1,09,3,2,0.805,1,09,-0.127083333,-0.243055556,1,0,0,1.8187,Basalt_rect,2,1.819,0,9,0,9,0,1,,,,,,,,,,,,,
63d193c45e01ccb694993e7f,SCR,2024-06-20_16h26.59.740,LearnStrategy,2023.2.3,Win32,142.8571429,6,1,11,-0.375,0.384027778,1,0,0,0.9414,Andesite_02,1,02,6,2,0.941,1,02,-0.363194444,-0.252777778,1,0,0,2.3363,Andesite_rect,1,2.336,1,10,0,10,0,1,,,,,,,,,,,,,
63d193c45e01ccb694993e7f,SCR,2024-06-20_16h26.59.740,LearnStrategy,2023.2.3,Win32,142.8571429,6,1,12,-0.398611111,0.261805556,1,0,0,0.7485,Pegmatite_06,6,06,5,2,0.748,6,06,0.095833333,-0.403472222,1,0,0,2.1508,Peridotite_rect,7,2.151,0,11,0,11,0,1,,,,,,,,,,,,,
63d193c45e01ccb694993e7f,SCR,2024-06-20_16h26.59.740,LearnStrategy,2023.2.3,Win32,142.8571429,6,1,13,0.081944444,-0.102777778,1,0,0,0.7977,Gabbro_08,4,08,3,5,0.798,4,08,0.376388889,-0.229861111,1,0,0,1.1303,Gabbro_rect,4,1.13,1,12,0,12,0,1,,,,,,,,,,,,,
63d193c45e01ccb694993e7f,SCR,2024-06-20_16h26.59.740,LearnStrategy,2023.2.3,Win32,142.8571429,6,1,14,0.074305556,-0.415972222,1,0,0,1.0527,Peridotite_12,7,12,1,5,1.053,7,12,0.174305556,-0.390972222,1,0,0,3.1299,Peridotite_rect,7,3.13,1,13,0,13,0,1,,,,,,,,,,,,,
63d193c45e01ccb694993e7f,SCR,2024-06-20_16h26.59.740,LearnStrategy,2023.2.3,Win32,142.8571429,6,1,15,-0.206944444,0.08125,1,0,0,0.6175,Diorite_06,3,06,4,3,0.618,3,06,-0.1375,-0.396527778,1,0,0,3.71,Pegmatite_rect,6,3.71,0,14,0,14,0,1,,,,,,,,,,,,,
63d193c45e01ccb694993e7f,SCR,2024-06-20_16h26.59.740,LearnStrategy,2023.2.3,Win32,142.8571429,6,1,16,0.511805556,0.088888889,1,0,0,0.7283,Diorite_10,3,10,4,8,0.728,3,10,0.145138889,-0.397222222,1,0,0,1.6715,Peridotite_rect,7,1.672,0,15,0,15,0,1,,,,,,,,,,,,,
63d193c45e01ccb694993e7f,SCR,2024-06-20_16h26.59.740,LearnStrategy,2023.2.3,Win32,142.8571429,6,2,1,,,,,,,,4,01,,,,,,,,,,,,,7,4.678,0,,,,,,0.079861111,-0.398611111,1,0,0,4.6784,Peridotite_rect,0,0,0,0,1,
63d193c45e01ccb694993e7f,SCR,2024-06-20_16h26.59.740,LearnStrategy,2023.2.3,Win32,142.8571429,6,2,2,,,,,,,,1,07,,,,,,,,,,,,,1,8.894,1,,,,,,-0.370833333,-0.255555556,1,0,0,8.8935,Andesite_rect,1,0,1,0,1,
63d193c45e01ccb694993e7f,SCR,2024-06-20_16h26.59.740,LearnStrategy,2023.2.3,Win32,142.8571429,6,2,3,,,,,,,,1,01,,,,,,,,,,,,,1,7.044,1,,,,,,-0.318055556,-0.263194444,1,0,0,7.0445,Andesite_rect,2,0,2,0,1,
63d193c45e01ccb694993e7f,SCR,2024-06-20_16h26.59.740,LearnStrategy,2023.2.3,Win32,142.8571429,6,2,4,,,,,,,,8,15,,,,,,,,,,,,,8,3.102,1,,,,,,0.392361111,-0.403472222,1,0,0,3.1021,Pumice_rect,3,0,3,0,1,
63d193c45e01ccb694993e7f,SCR,2024-06-20_16h26.59.740,LearnStrategy,2023.2.3,Win32,142.8571429,6,2,5,,,,,,,,8,05,,,,,,,,,,,,,8,0.947,1,,,,,,0.392361111,-0.404861111,1,0,0,0.9473,Pumice_rect,4,0,4,0,1,
63d193c45e01ccb694993e7f,SCR,2024-06-20_16h26.59.740,LearnStrategy,2023.2.3,Win32,142.8571429,6,2,6,,,,,,,,5,09,,,,,,,,,,,,,5,0.984,1,,,,,,-0.344444444,-0.394444444,1,0,0,0.984,Obsidian_rect,5,0,5,0,1,
63d193c45e01ccb694993e7f,SCR,2024-06-20_16h26.59.740,LearnStrategy,2023.2.3,Win32,142.8571429,6,2,7,,,,,,,,3,02,,,,,,,,,,,,,3,3.991,1,,,,,,0.107638889,-0.26875,1,0,0,3.9909,Diorite_rect,6,0,6,0,1,
63d193c45e01ccb694993e7f,SCR,2024-06-20_16h26.59.740,LearnStrategy,2023.2.3,Win32,142.8571429,6,2,8,,,,,,,,7,05,,,,,,,,,,,,,7,1.81,1,,,,,,0.115972222,-0.402777778,1,0,0,1.8104,Peridotite_rect,7,0,7,0,1,
63d193c45e01ccb694993e7f,SCR,2024-06-20_16h26.59.740,LearnStrategy,2023.2.3,Win32,142.8571429,6,2,9,,,,,,,,6,09,,,,,,,,,,,,,7,3.641,0,,,,,,0.09375,-0.392361111,1,0,0,3.6413,Peridotite_rect,8,0,8,0,1,
63d193c45e01ccb694993e7f,SCR,2024-06-20_16h26.59.740,LearnStrategy,2023.2.3,Win32,142.8571429,6,2,10,,,,,,,,3,15,,,,,,,,,,,,,6,9.47,0,,,,,,-0.125694444,-0.402777778,1,0,0,9.4704,Pegmatite_rect,9,0,9,0,1,
63d193c45e01ccb694993e7f,SCR,2024-06-20_16h26.59.740,LearnStrategy,2023.2.3,Win32,142.8571429,6,2,11,,,,,,,,6,13,,,,,,,,,,,,,6,5.109,1,,,,,,-0.128472222,-0.4,1,0,0,5.1085,Pegmatite_rect,10,0,10,0,1,
63d193c45e01ccb694993e7f,SCR,2024-06-20_16h26.59.740,LearnStrategy,2023.2.3,Win32,142.8571429,6,2,12,,,,,,,,4,14,,,,,,,,,,,,,4,5.887,1,,,,,,0.388194444,-0.251388889,1,0,0,5.8871,Gabbro_rect,11,0,11,0,1,
63d193c45e01ccb694993e7f,SCR,2024-06-20_16h26.59.740,LearnStrategy,2023.2.3,Win32,142.8571429,6,2,13,,,,,,,,2,10,,,,,,,,,,,,,4,2.371,0,,,,,,0.349305556,-0.258333333,1,0,0,2.3712,Gabbro_rect,12,0,12,0,1,
63d193c45e01ccb694993e7f,SCR,2024-06-20_16h26.59.740,LearnStrategy,2023.2.3,Win32,142.8571429,6,2,14,,,,,,,,2,14,,,,,,,,,,,,,8,2.949,0,,,,,,0.377083333,-0.409722222,1,0,0,2.9485,Pumice_rect,13,0,13,0,1,
63d193c45e01ccb694993e7f,SCR,2024-06-20_16h26.59.740,LearnStrategy,2023.2.3,Win32,142.8571429,6,2,15,,,,,,,,5,04,,,,,,,,,,,,,5,1.214,1,,,,,,-0.415972222,-0.390972222,1,0,0,1.214,Obsidian_rect,14,0,14,0,1,
63d193c45e01ccb694993e7f,SCR,2024-06-20_16h26.59.740,LearnStrategy,2023.2.3,Win32,142.8571429,6,2,16,,,,,,,,7,16,,,,,,,,,,,,,7,1.237,1,,,,,,0.088888889,-0.390972222,1,0,0,1.2375,Peridotite_rect,15,0,15,0,1,
63d193c45e01ccb694993e7f,SCR,2024-06-20_16h26.59.740,LearnStrategy,2023.2.3,Win32,142.8571429,7,1,1,0.204861111,0.251388889,1,0,0,0.9857,Basalt_16,2,16,5,6,0.986,2,16,0.363194444,-0.250694444,1,0,0,1.4135,Gabbro_rect,4,1.414,0,0,0,0,0,1,,,,,,,,,,,,,
63d193c45e01ccb694993e7f,SCR,2024-06-20_16h26.59.740,LearnStrategy,2023.2.3,Win32,142.8571429,7,1,2,-0.3875,0.138888889,1,0,0,0.8059,Pegmatite_10,6,10,4,2,0.806,6,10,0.084027778,-0.386111111,1,0,0,1.1591,Peridotite_rect,7,1.159,0,1,0,1,0,1,,,,,,,,,,,,,
63d193c45e01ccb694993e7f,SCR,2024-06-20_16h26.59.740,LearnStrategy,2023.2.3,Win32,142.8571429,7,1,3,0.572916667,0.385416667,1,0,0,1.1458,Diorite_09,3,09,6,8,1.146,3,09,-0.320138889,-0.258333333,1,0,0,2.7514,Andesite_rect,1,2.751,0,2,0,2,0,1,,,,,,,,,,,,,
63d193c45e01ccb694993e7f,SCR,2024-06-20_16h26.59.740,LearnStrategy,2023.2.3,Win32,142.8571429,7,1,4,-0.375,-0.365277778,1,0,0,1.2775,Peridotite_10,7,10,1,2,1.277,7,10,0.175,-0.406944444,1,0,0,1.3844,Peridotite_rect,7,1.384,1,3,0,3,0,1,,,,,,,,,,,,,
63d193c45e01ccb694993e7f,SCR,2024-06-20_16h26.59.740,LearnStrategy,2023.2.3,Win32,142.8571429,7,1,5,0.353472222,0.119444444,1,0,0,0.9081,Pegmatite_12,6,12,4,7,0.908,6,12,-0.347222222,-0.229861111,1,0,0,0.8938,Andesite_rect,1,0.894,0,4,0,4,0,1,,,,,,,,,,,,,
63d193c45e01ccb694993e7f,SCR,2024-06-20_16h26.59.740,LearnStrategy,2023.2.3,Win32,142.8571429,7,1,6,-0.215972222,0.101388889,1,0,0,0.576,Diorite_06,3,06,4,3,0.576,3,06,-0.147916667,-0.39375,1,0,0,1.6612,Pegmatite_rect,6,1.661,0,5,0,5,0,1,,,,,,,,,,,,,
63d193c45e01ccb694993e7f,SCR,2024-06-20_16h26.59.740,LearnStrategy,2023.2.3,Win32,142.8571429,7,1,7,0.046527778,-0.372916667,1,0,0,0.7961,Peridotite_12,7,12,1,5,0.796,7,12,0.113194444,-0.386111111,1,0,0,1.2549,Peridotite_rect,7,1.255,1,6,0,6,0,1,,,,,,,,,,,,,
63d193c45e01ccb694993e7f,SCR,2024-06-20_16h26.59.740,LearnStrategy,2023.2.3,Win32,142.8571429,7,1,8,0.520833333,0.052083333,1,0,0,0.6316,Diorite_10,3,10,4,8,0.632,3,10,0.079861111,-0.254166667,1,0,0,1.6553,Diorite_rect,3,1.655,1,7,0,7,0,1,,,,,,,,,,,,,
63d193c45e01ccb694993e7f,SCR,2024-06-20_16h26.59.740,LearnStrategy,2023.2.3,Win32,142.8571429,7,1,9,0.36875,-0.104861111,1,0,0,0.6372,Gabbro_12,4,12,3,7,0.637,4,12,-0.083333333,-0.263888889,1,0,0,0.9258,Basalt_rect,2,0.926,0,8,0,8,0,1,,,,,,,,,,,,,
63d193c45e01ccb694993e7f,SCR,2024-06-20_16h26.59.740,LearnStrategy,2023.2.3,Win32,142.8571429,7,1,10,-0.205555556,0.263888889,1,0,0,0.8879,Andesite_03,1,03,5,3,0.888,1,03,-0.067361111,-0.236111111,1,0,0,0.8311,Basalt_rect,2,0.831,0,9,0,9,0,1,,,,,,,,,,,,,
63d193c45e01ccb694993e7f,SCR,2024-06-20_16h26.59.740,LearnStrategy,2023.2.3,Win32,142.8571429,7,1,11,0.202777778,-0.25625,1,0,0,0.7359,Basalt_06,2,06,2,6,0.736,2,06,-0.089583333,-0.261111111,1,0,0,2.7016,Basalt_rect,2,2.702,1,10,0,10,0,1,,,,,,,,,,,,,
63d193c45e01ccb694993e7f,SCR,2024-06-20_16h26.59.740,LearnStrategy,2023.2.3,Win32,142.8571429,7,1,12,0.078472222,-0.077083333,1,0,0,0.5493,Gabbro_08,4,08,3,5,0.549,4,08,0.346527778,-0.242361111,1,0,0,1.0548,Gabbro_rect,4,1.055,1,11,0,11,0,1,,,,,,,,,,,,,
63d193c45e01ccb694993e7f,SCR,2024-06-20_16h26.59.740,LearnStrategy,2023.2.3,Win32,142.8571429,7,1,13,-0.2,-0.259722222,1,0,0,0.7648,Gabbro_11,4,11,2,3,0.765,4,11,-0.159722222,-0.249305556,1,0,0,1.5123,Basalt_rect,2,1.512,0,12,0,12,0,1,,,,,,,,,,,,,
63d193c45e01ccb694993e7f,SCR,2024-06-20_16h26.59.740,LearnStrategy,2023.2.3,Win32,142.8571429,7,1,14,0.186805556,0.086111111,1,0,0,0.6428,Pumice_08,8,08,4,6,0.643,8,08,0.367361111,-0.385416667,1,0,0,0.899,Pumice_rect,8,0.899,1,13,0,13,0,1,,,,,,,,,,,,,
63d193c45e01ccb694993e7f,SCR,2024-06-20_16h26.59.740,LearnStrategy,2023.2.3,Win32,142.8571429,7,1,15,0.420138889,0.243055556,1,0,0,0.9703,Basalt_09,2,09,5,7,0.97,2,09,-0.088888889,-0.245833333,1,0,0,1.4475,Basalt_rect,2,1.447,1,14,0,14,0,1,,,,,,,,,,,,,
63d193c45e01ccb694993e7f,SCR,2024-06-20_16h26.59.740,LearnStrategy,2023.2.3,Win32,142.8571429,7,1,16,0.217361111,-0.379166667,1,0,0,0.9715,Obsidian_08,5,08,1,6,0.972,5,08,-0.336805556,-0.379166667,1,0,0,0.6436,Obsidian_rect,5,0.644,1,15,0,15,0,1,,,,,,,,,,,,,
63d193c45e01ccb694993e7f,SCR,2024-06-20_16h26.59.740,LearnStrategy,2023.2.3,Win32,142.8571429,7,2,1,,,,,,,,3,07,,,,,,,,,,,,,3,3.94,1,,,,,,0.106944444,-0.239583333,1,0,0,3.9399,Diorite_rect,0,0,0,0,1,
63d193c45e01ccb694993e7f,SCR,2024-06-20_16h26.59.740,LearnStrategy,2023.2.3,Win32,142.8571429,7,2,2,,,,,,,,6,13,,,,,,,,,,,,,6,3.318,1,,,,,,-0.191666667,-0.394444444,1,0,0,3.3177,Pegmatite_rect,1,0,1,0,1,
63d193c45e01ccb694993e7f,SCR,2024-06-20_16h26.59.740,LearnStrategy,2023.2.3,Win32,142.8571429,7,2,3,,,,,,,,6,11,,,,,,,,,,,,,6,2.077,1,,,,,,-0.194444444,-0.408333333,1,0,0,2.0771,Pegmatite_rect,2,0,2,0,1,
63d193c45e01ccb694993e7f,SCR,2024-06-20_16h26.59.740,LearnStrategy,2023.2.3,Win32,142.8571429,7,2,4,,,,,,,,5,11,,,,,,,,,,,,,5,0.995,1,,,,,,-0.396527778,-0.395138889,1,0,0,0.9949,Obsidian_rect,3,0,3,0,1,
63d193c45e01ccb694993e7f,SCR,2024-06-20_16h26.59.740,LearnStrategy,2023.2.3,Win32,142.8571429,7,2,5,,,,,,,,2,01,,,,,,,,,,,,,2,4.433,1,,,,,,-0.104166667,-0.265277778,1,0,0,4.4326,Basalt_rect,4,0,4,0,1,
63d193c45e01ccb694993e7f,SCR,2024-06-20_16h26.59.740,LearnStrategy,2023.2.3,Win32,142.8571429,7,2,6,,,,,,,,4,10,,,,,,,,,,,,,4,2.815,1,,,,,,0.372916667,-0.259027778,1,0,0,2.8154,Gabbro_rect,5,0,5,0,1,
63d193c45e01ccb694993e7f,SCR,2024-06-20_16h26.59.740,LearnStrategy,2023.2.3,Win32,142.8571429,7,2,7,,,,,,,,7,07,,,,,,,,,,,,,7,1.559,1,,,,,,0.136111111,-0.414583333,1,0,0,1.5585,Peridotite_rect,6,0,6,0,1,
63d193c45e01ccb694993e7f,SCR,2024-06-20_16h26.59.740,LearnStrategy,2023.2.3,Win32,142.8571429,7,2,8,,,,,,,,8,02,,,,,,,,,,,,,8,1.32,1,,,,,,0.322916667,-0.391666667,1,0,0,1.3195,Pumice_rect,7,0,7,0,1,
63d193c45e01ccb694993e7f,SCR,2024-06-20_16h26.59.740,LearnStrategy,2023.2.3,Win32,142.8571429,7,2,9,,,,,,,,2,12,,,,,,,,,,,,,8,1.678,0,,,,,,0.345833333,-0.4,1,0,0,1.6785,Pumice_rect,8,0,8,0,1,
63d193c45e01ccb694993e7f,SCR,2024-06-20_16h26.59.740,LearnStrategy,2023.2.3,Win32,142.8571429,7,2,10,,,,,,,,4,03,,,,,,,,,,,,,1,6.836,0,,,,,,-0.327083333,-0.247222222,1,0,0,6.8363,Andesite_rect,9,0,9,0,1,
63d193c45e01ccb694993e7f,SCR,2024-06-20_16h26.59.740,LearnStrategy,2023.2.3,Win32,142.8571429,7,2,11,,,,,,,,8,04,,,,,,,,,,,,,8,1.31,1,,,,,,0.371527778,-0.413194444,1,0,0,1.3103,Pumice_rect,10,0,10,0,1,
63d193c45e01ccb694993e7f,SCR,2024-06-20_16h26.59.740,LearnStrategy,2023.2.3,Win32,142.8571429,7,2,12,,,,,,,,5,12,,,,,,,,,,,,,5,1.018,1,,,,,,-0.38125,-0.388888889,1,0,0,1.018,Obsidian_rect,11,0,11,0,1,
63d193c45e01ccb694993e7f,SCR,2024-06-20_16h26.59.740,LearnStrategy,2023.2.3,Win32,142.8571429,7,2,13,,,,,,,,3,15,,,,,,,,,,,,,3,7.546,1,,,,,,0.118055556,-0.254861111,1,0,0,7.5458,Diorite_rect,12,0,12,0,1,
63d193c45e01ccb694993e7f,SCR,2024-06-20_16h26.59.740,LearnStrategy,2023.2.3,Win32,142.8571429,7,2,14,,,,,,,,7,05,,,,,,,,,,,,,7,1.304,1,,,,,,0.109722222,-0.406944444,1,0,0,1.3037,Peridotite_rect,13,0,13,0,1,
63d193c45e01ccb694993e7f,SCR,2024-06-20_16h26.59.740,LearnStrategy,2023.2.3,Win32,142.8571429,7,2,15,,,,,,,,1,14,,,,,,,,,,,,,6,7.726,0,,,,,,-0.126388889,-0.4,1,0,0,7.7264,Pegmatite_rect,14,0,14,0,1,
63d193c45e01ccb694993e7f,SCR,2024-06-20_16h26.59.740,LearnStrategy,2023.2.3,Win32,142.8571429,7,2,16,,,,,,,,1,07,,,,,,,,,,,,,3,6.387,0,,,,,,0.108333333,-0.269444444,1,0,0,6.3868,Diorite_rect,15,0,15,0,1,
63d193c45e01ccb694993e7f,SCR,2024-06-20_16h26.59.740,LearnStrategy,2023.2.3,Win32,142.8571429,8,1,1,0.086111111,0.375694444,1,0,0,1.2359,Peridotite_13,7,13,6,5,1.236,7,13,0.107638889,-0.378472222,1,0,0,0.8902,Peridotite_rect,7,0.89,1,0,0,0,0,1,,,,,,,,,,,,,
63d193c45e01ccb694993e7f,SCR,2024-06-20_16h26.59.740,LearnStrategy,2023.2.3,Win32,142.8571429,8,1,2,0.247916667,-0.272916667,1,0,0,0.7217,Basalt_06,2,06,2,6,0.722,2,06,-0.083333333,-0.232638889,1,0,0,1.122,Basalt_rect,2,1.122,1,1,0,1,0,1,,,,,,,,,,,,,
63d193c45e01ccb694993e7f,SCR,2024-06-20_16h26.59.740,LearnStrategy,2023.2.3,Win32,142.8571429,8,1,3,-0.198611111,-0.393055556,1,0,0,0.9784,Andesite_06,1,06,1,3,0.978,1,06,-0.372916667,-0.247916667,1,0,0,2.5185,Andesite_rect,1,2.518,1,2,0,2,0,1,,,,,,,,,,,,,
63d193c45e01ccb694993e7f,SCR,2024-06-20_16h26.59.740,LearnStrategy,2023.2.3,Win32,142.8571429,8,1,4,0.352777778,-0.065277778,1,0,0,0.7484,Gabbro_12,4,12,3,7,0.748,4,12,-0.304861111,-0.240972222,1,0,0,2.2061,Andesite_rect,1,2.206,0,3,0,3,0,1,,,,,,,,,,,,,
63d193c45e01ccb694993e7f,SCR,2024-06-20_16h26.59.740,LearnStrategy,2023.2.3,Win32,142.8571429,8,1,5,0.411111111,-0.396527778,1,0,0,0.8031,Gabbro_15,4,15,1,7,0.803,4,15,0.14375,-0.388194444,1,0,0,1.0951,Peridotite_rect,7,1.095,0,4,0,4,0,1,,,,,,,,,,,,,
63d193c45e01ccb694993e7f,SCR,2024-06-20_16h26.59.740,LearnStrategy,2023.2.3,Win32,142.8571429,8,1,6,0.339583333,0.207638889,1,0,0,0.7289,Basalt_09,2,09,5,7,0.729,2,09,-0.166666667,-0.246527778,1,0,0,1.0791,Basalt_rect,2,1.079,1,5,0,5,0,1,,,,,,,,,,,,,
63d193c45e01ccb694993e7f,SCR,2024-06-20_16h26.59.740,LearnStrategy,2023.2.3,Win32,142.8571429,8,1,7,-0.502777778,0.078472222,1,0,0,0.8745,Pegmatite_07,6,07,4,1,0.874,6,07,-0.159722222,-0.3875,1,0,0,1.5589,Pegmatite_rect,6,1.559,1,6,0,6,0,1,,,,,,,,,,,,,
63d193c45e01ccb694993e7f,SCR,2024-06-20_16h26.59.740,LearnStrategy,2023.2.3,Win32,142.8571429,8,1,8,0.199305556,-0.241666667,1,0,0,0.6378,Basalt_06,2,06,2,6,0.638,2,06,-0.070138889,-0.2625,1,0,0,1.5324,Basalt_rect,2,1.532,1,7,0,7,0,1,,,,,,,,,,,,,
63d193c45e01ccb694993e7f,SCR,2024-06-20_16h26.59.740,LearnStrategy,2023.2.3,Win32,142.8571429,8,1,9,-0.518055556,-0.088888889,1,0,0,0.937,Gabbro_16,4,16,3,1,0.937,4,16,0.358333333,-0.253472222,1,0,0,1.1142,Gabbro_rect,4,1.114,1,8,0,8,0,1,,,,,,,,,,,,,
63d193c45e01ccb694993e7f,SCR,2024-06-20_16h26.59.740,LearnStrategy,2023.2.3,Win32,142.8571429,8,1,10,-0.386111111,0.358333333,1,0,0,0.9641,Andesite_02,1,02,6,2,0.964,1,02,-0.108333333,-0.381944444,1,0,0,3.4972,Pegmatite_rect,6,3.497,0,9,0,9,0,1,,,,,,,,,,,,,
63d193c45e01ccb694993e7f,SCR,2024-06-20_16h26.59.740,LearnStrategy,2023.2.3,Win32,142.8571429,8,1,11,0.558333333,-0.246527778,1,0,0,0.8092,Pegmatite_16,6,16,2,8,0.809,6,16,-0.3875,-0.2625,1,0,0,2.6716,Andesite_rect,1,2.672,0,10,0,10,0,1,,,,,,,,,,,,,
63d193c45e01ccb694993e7f,SCR,2024-06-20_16h26.59.740,LearnStrategy,2023.2.3,Win32,142.8571429,8,1,12,-0.386805556,0.390972222,1,0,0,1.0401,Andesite_02,1,02,6,2,1.04,1,02,-0.345138889,-0.241666667,1,0,0,1.6572,Andesite_rect,1,1.657,1,11,0,11,0,1,,,,,,,,,,,,,
63d193c45e01ccb694993e7f,SCR,2024-06-20_16h26.59.740,LearnStrategy,2023.2.3,Win32,142.8571429,8,1,13,0.560416667,0.384027778,1,0,0,0.8607,Diorite_09,3,09,6,8,0.861,3,09,0.128472222,-0.247222222,1,0,0,1.1709,Diorite_rect,3,1.171,1,12,0,12,0,1,,,,,,,,,,,,,
63d193c45e01ccb694993e7f,SCR,2024-06-20_16h26.59.740,LearnStrategy,2023.2.3,Win32,142.8571429,8,1,14,-0.065277778,0.070833333,1,0,0,0.5207,Pumice_03,8,03,4,4,0.521,8,03,0.371527778,-0.384722222,1,0,0,2.069,Pumice_rect,8,2.069,1,13,0,13,0,1,,,,,,,,,,,,,
63d193c45e01ccb694993e7f,SCR,2024-06-20_16h26.59.740,LearnStrategy,2023.2.3,Win32,142.8571429,8,1,15,-0.121527778,-0.403472222,1,0,0,1.0317,Obsidian_06,5,06,1,4,1.032,5,06,-0.375694444,-0.388888889,1,0,0,0.6369,Obsidian_rect,5,0.637,1,14,0,14,0,1,,,,,,,,,,,,,
63d193c45e01ccb694993e7f,SCR,2024-06-20_16h26.59.740,LearnStrategy,2023.2.3,Win32,142.8571429,8,1,16,0.547222222,0.388194444,1,0,0,0.895,Diorite_09,3,09,6,8,0.895,3,09,0.095138889,-0.238888889,1,0,0,1.3227,Diorite_rect,3,1.323,1,15,0,15,0,1,,,,,,,,,,,,,
63d193c45e01ccb694993e7f,SCR,2024-06-20_16h26.59.740,LearnStrategy,2023.2.3,Win32,142.8571429,8,2,1,,,,,,,,2,02,,,,,,,,,,,,,2,1.178,1,,,,,,-0.081944444,-0.240972222,1,0,0,1.1779,Basalt_rect,0,0,0,0,1,
63d193c45e01ccb694993e7f,SCR,2024-06-20_16h26.59.740,LearnStrategy,2023.2.3,Win32,142.8571429,8,2,2,,,,,,,,8,13,,,,,,,,,,,,,8,1.428,1,,,,,,0.335416667,-0.395138889,1,0,0,1.4285,Pumice_rect,1,0,1,0,1,
63d193c45e01ccb694993e7f,SCR,2024-06-20_16h26.59.740,LearnStrategy,2023.2.3,Win32,142.8571429,8,2,3,,,,,,,,3,02,,,,,,,,,,,,,6,4.92,0,,,,,,-0.159027778,-0.4,1,0,0,4.9205,Pegmatite_rect,2,0,2,0,1,
63d193c45e01ccb694993e7f,SCR,2024-06-20_16h26.59.740,LearnStrategy,2023.2.3,Win32,142.8571429,8,2,4,,,,,,,,6,03,,,,,,,,,,,,,7,5.025,0,,,,,,0.090277778,-0.409722222,1,0,0,5.0253,Peridotite_rect,3,0,3,0,1,
63d193c45e01ccb694993e7f,SCR,2024-06-20_16h26.59.740,LearnStrategy,2023.2.3,Win32,142.8571429,8,2,5,,,,,,,,7,04,,,,,,,,,,,,,7,8.991,1,,,,,,0.095833333,-0.389583333,1,0,0,8.9912,Peridotite_rect,4,0,4,0,1,
63d193c45e01ccb694993e7f,SCR,2024-06-20_16h26.59.740,LearnStrategy,2023.2.3,Win32,142.8571429,8,2,6,,,,,,,,7,02,,,,,,,,,,,,,7,0.731,1,,,,,,0.095833333,-0.389583333,1,0,0,0.7307,Peridotite_rect,5,0,5,0,1,
63d193c45e01ccb694993e7f,SCR,2024-06-20_16h26.59.740,LearnStrategy,2023.2.3,Win32,142.8571429,8,2,7,,,,,,,,5,04,,,,,,,,,,,,,5,0.995,1,,,,,,-0.364583333,-0.382638889,1,0,0,0.9954,Obsidian_rect,6,0,6,0,1,
63d193c45e01ccb694993e7f,SCR,2024-06-20_16h26.59.740,LearnStrategy,2023.2.3,Win32,142.8571429,8,2,8,,,,,,,,4,05,,,,,,,,,,,,,7,1.119,0,,,,,,0.029861111,-0.405555556,1,0,0,1.1193,Peridotite_rect,7,0,7,0,1,
63d193c45e01ccb694993e7f,SCR,2024-06-20_16h26.59.740,LearnStrategy,2023.2.3,Win32,142.8571429,8,2,9,,,,,,,,4,01,,,,,,,,,,,,,1,10.586,0,,,,,,-0.390972222,-0.256944444,1,0,0,10.5857,Andesite_rect,8,0,8,0,1,
63d193c45e01ccb694993e7f,SCR,2024-06-20_16h26.59.740,LearnStrategy,2023.2.3,Win32,142.8571429,8,2,10,,,,,,,,1,16,,,,,,,,,,,,,1,2.296,1,,,,,,-0.34375,-0.265277778,1,0,0,2.2957,Andesite_rect,9,0,9,0,1,
63d193c45e01ccb694993e7f,SCR,2024-06-20_16h26.59.740,LearnStrategy,2023.2.3,Win32,142.8571429,8,2,11,,,,,,,,3,14,,,,,,,,,,,,,3,4.568,1,,,,,,0.106944444,-0.259027778,1,0,0,4.5677,Diorite_rect,10,0,10,0,1,
63d193c45e01ccb694993e7f,SCR,2024-06-20_16h26.59.740,LearnStrategy,2023.2.3,Win32,142.8571429,8,2,12,,,,,,,,6,15,,,,,,,,,,,,,6,4.331,1,,,,,,-0.138194444,-0.400694444,1,0,0,4.3309,Pegmatite_rect,11,0,11,0,1,
63d193c45e01ccb694993e7f,SCR,2024-06-20_16h26.59.740,LearnStrategy,2023.2.3,Win32,142.8571429,8,2,13,,,,,,,,5,09,,,,,,,,,,,,,5,0.955,1,,,,,,-0.390277778,-0.418055556,1,0,0,0.9552,Obsidian_rect,12,0,12,0,1,
63d193c45e01ccb694993e7f,SCR,2024-06-20_16h26.59.740,LearnStrategy,2023.2.3,Win32,142.8571429,8,2,14,,,,,,,,1,04,,,,,,,,,,,,,2,2.477,0,,,,,,-0.129861111,-0.248611111,1,0,0,2.4772,Basalt_rect,13,0,13,0,1,
63d193c45e01ccb694993e7f,SCR,2024-06-20_16h26.59.740,LearnStrategy,2023.2.3,Win32,142.8571429,8,2,15,,,,,,,,2,10,,,,,,,,,,,,,4,1.858,0,,,,,,0.342361111,-0.253472222,1,0,0,1.8581,Gabbro_rect,14,0,14,0,1,
63d193c45e01ccb694993e7f,SCR,2024-06-20_16h26.59.740,LearnStrategy,2023.2.3,Win32,142.8571429,8,2,16,,,,,,,,8,14,,,,,,,,,,,,,8,1.365,1,,,,,,0.360416667,-0.394444444,1,0,0,1.3648,Pumice_rect,15,0,15,0,1,
63d193c45e01ccb694993e7f,SCR,2024-06-20_16h26.59.740,LearnStrategy,2023.2.3,Win32,142.8571429,9,1,1,-0.357638889,0.098611111,1,0,0,1.2147,Pegmatite_10,6,10,4,2,1.215,6,10,0.08125,-0.402777778,1,0,0,0.9124,Peridotite_rect,7,0.912,0,0,0,0,0,1,,,,,,,,,,,,,
63d193c45e01ccb694993e7f,SCR,2024-06-20_16h26.59.740,LearnStrategy,2023.2.3,Win32,142.8571429,9,1,2,-0.569444444,-0.05,1,0,0,1.0192,Gabbro_16,4,16,3,1,1.019,4,16,0.3125,-0.238194444,1,0,0,0.8451,Gabbro_rect,4,0.845,1,1,0,1,0,1,,,,,,,,,,,,,
63d193c45e01ccb694993e7f,SCR,2024-06-20_16h26.59.740,LearnStrategy,2023.2.3,Win32,142.8571429,9,1,3,-0.397916667,-0.095138889,1,0,0,0.6869,Andesite_09,1,09,3,2,0.687,1,09,-0.081944444,-0.255555556,1,0,0,0.9495,Basalt_rect,2,0.949,0,2,0,2,0,1,,,,,,,,,,,,,
63d193c45e01ccb694993e7f,SCR,2024-06-20_16h26.59.740,LearnStrategy,2023.2.3,Win32,142.8571429,9,1,4,-0.35625,0.242361111,1,0,0,0.9568,Pegmatite_06,6,06,5,2,0.957,6,06,0.101388889,-0.396527778,1,0,0,1.3522,Peridotite_rect,7,1.352,0,3,0,3,0,1,,,,,,,,,,,,,
63d193c45e01ccb694993e7f,SCR,2024-06-20_16h26.59.740,LearnStrategy,2023.2.3,Win32,142.8571429,9,1,5,0.229861111,-0.395833333,1,0,0,0.9287,Obsidian_08,5,08,1,6,0.929,5,08,-0.347916667,-0.399305556,1,0,0,0.8584,Obsidian_rect,5,0.858,1,4,0,4,0,1,,,,,,,,,,,,,
63d193c45e01ccb694993e7f,SCR,2024-06-20_16h26.59.740,LearnStrategy,2023.2.3,Win32,142.8571429,9,1,6,-0.376388889,-0.388194444,1,0,0,1.0064,Peridotite_10,7,10,1,2,1.006,7,10,0.085416667,-0.384027778,1,0,0,1.2322,Peridotite_rect,7,1.232,1,5,0,5,0,1,,,,,,,,,,,,,
63d193c45e01ccb694993e7f,SCR,2024-06-20_16h26.59.740,LearnStrategy,2023.2.3,Win32,142.8571429,9,1,7,-0.430555556,0.397222222,1,0,0,0.8254,Andesite_02,1,02,6,2,0.825,1,02,-0.393055556,-0.246527778,1,0,0,2.5118,Andesite_rect,1,2.512,1,6,0,6,0,1,,,,,,,,,,,,,
63d193c45e01ccb694993e7f,SCR,2024-06-20_16h26.59.740,LearnStrategy,2023.2.3,Win32,142.8571429,9,1,8,0.360416667,-0.104861111,1,0,0,0.9296,Gabbro_12,4,12,3,7,0.93,4,12,-0.057638889,-0.256944444,1,0,0,2.2125,Basalt_rect,2,2.213,0,7,0,7,0,1,,,,,,,,,,,,,
63d193c45e01ccb694993e7f,SCR,2024-06-20_16h26.59.740,LearnStrategy,2023.2.3,Win32,142.8571429,9,1,9,0.545833333,0.086111111,1,0,0,0.6178,Diorite_10,3,10,4,8,0.618,3,10,0.125,-0.248611111,1,0,0,2.585,Diorite_rect,3,2.585,1,8,0,8,0,1,,,,,,,,,,,,,
63d193c45e01ccb694993e7f,SCR,2024-06-20_16h26.59.740,LearnStrategy,2023.2.3,Win32,142.8571429,9,1,10,-0.202083333,-0.251388889,1,0,0,0.8527,Gabbro_11,4,11,2,3,0.853,4,11,0.329861111,-0.253472222,1,0,0,3.3976,Gabbro_rect,4,3.398,1,9,0,9,0,1,,,,,,,,,,,,,
63d193c45e01ccb694993e7f,SCR,2024-06-20_16h26.59.740,LearnStrategy,2023.2.3,Win32,142.8571429,9,1,11,-0.066666667,0.088194444,1,0,0,0.4854,Pumice_03,8,03,4,4,0.485,8,03,0.367361111,-0.406944444,1,0,0,1.1644,Pumice_rect,8,1.164,1,10,0,10,0,1,,,,,,,,,,,,,
63d193c45e01ccb694993e7f,SCR,2024-06-20_16h26.59.740,LearnStrategy,2023.2.3,Win32,142.8571429,9,1,12,0.202083333,-0.070833333,1,0,0,0.7062,Basalt_11,2,11,3,6,0.706,2,11,0.359722222,-0.388194444,1,0,0,1.4006,Pumice_rect,8,1.401,0,11,0,11,0,1,,,,,,,,,,,,,
63d193c45e01ccb694993e7f,SCR,2024-06-20_16h26.59.740,LearnStrategy,2023.2.3,Win32,142.8571429,9,1,13,0.0375,-0.214583333,1,0,0,0.6861,Basalt_04,2,04,2,5,0.686,2,04,0.341666667,-0.251388889,1,0,0,0.7692,Gabbro_rect,4,0.769,0,12,0,12,0,1,,,,,,,,,,,,,
63d193c45e01ccb694993e7f,SCR,2024-06-20_16h26.59.740,LearnStrategy,2023.2.3,Win32,142.8571429,9,1,14,0.19375,0.248611111,1,0,0,0.9234,Basalt_16,2,16,5,6,0.923,2,16,-0.152083333,-0.243055556,1,0,0,0.7245,Basalt_rect,2,0.725,1,13,0,13,0,1,,,,,,,,,,,,,
63d193c45e01ccb694993e7f,SCR,2024-06-20_16h26.59.740,LearnStrategy,2023.2.3,Win32,142.8571429,9,1,15,-0.204166667,0.084027778,1,0,0,0.6373,Diorite_06,3,06,4,3,0.637,3,06,0.068055556,-0.248611111,1,0,0,1.1438,Diorite_rect,3,1.144,1,14,0,14,0,1,,,,,,,,,,,,,
63d193c45e01ccb694993e7f,SCR,2024-06-20_16h26.59.740,LearnStrategy,2023.2.3,Win32,142.8571429,9,1,16,-0.196527778,-0.356944444,1,0,0,0.9568,Andesite_06,1,06,1,3,0.957,1,06,-0.334027778,-0.263888889,1,0,0,2.8449,Andesite_rect,1,2.845,1,15,0,15,0,1,,,,,,,,,,,,,
63d193c45e01ccb694993e7f,SCR,2024-06-20_16h26.59.740,LearnStrategy,2023.2.3,Win32,142.8571429,9,2,1,,,,,,,,8,15,,,,,,,,,,,,,8,1.003,1,,,,,,0.352777778,-0.388194444,1,0,0,1.0033,Pumice_rect,0,0,0,0,1,
63d193c45e01ccb694993e7f,SCR,2024-06-20_16h26.59.740,LearnStrategy,2023.2.3,Win32,142.8571429,9,2,2,,,,,,,,7,15,,,,,,,,,,,,,7,0.933,1,,,,,,0.149305556,-0.388888889,1,0,0,0.9331,Peridotite_rect,1,0,1,0,1,
63d193c45e01ccb694993e7f,SCR,2024-06-20_16h26.59.740,LearnStrategy,2023.2.3,Win32,142.8571429,9,2,3,,,,,,,,6,05,,,,,,,,,,,,,6,2.747,1,,,,,,-0.173611111,-0.388194444,1,0,0,2.7474,Pegmatite_rect,2,0,2,0,1,
63d193c45e01ccb694993e7f,SCR,2024-06-20_16h26.59.740,LearnStrategy,2023.2.3,Win32,142.8571429,9,2,4,,,,,,,,5,10,,,,,,,,,,,,,5,1.085,1,,,,,,-0.3375,-0.415972222,1,0,0,1.0851,Obsidian_rect,3,0,3,0,1,
63d193c45e01ccb694993e7f,SCR,2024-06-20_16h26.59.740,LearnStrategy,2023.2.3,Win32,142.8571429,9,2,5,,,,,,,,8,05,,,,,,,,,,,,,8,0.984,1,,,,,,0.326388889,-0.392361111,1,0,0,0.9841,Pumice_rect,4,0,4,0,1,
63d193c45e01ccb694993e7f,SCR,2024-06-20_16h26.59.740,LearnStrategy,2023.2.3,Win32,142.8571429,9,2,6,,,,,,,,2,14,,,,,,,,,,,,,4,2.699,0,,,,,,0.347916667,-0.249305556,1,0,0,2.6991,Gabbro_rect,5,0,5,0,1,
63d193c45e01ccb694993e7f,SCR,2024-06-20_16h26.59.740,LearnStrategy,2023.2.3,Win32,142.8571429,9,2,7,,,,,,,,5,07,,,,,,,,,,,,,5,1.109,1,,,,,,-0.342361111,-0.413888889,1,0,0,1.1089,Obsidian_rect,6,0,6,0,1,
63d193c45e01ccb694993e7f,SCR,2024-06-20_16h26.59.740,LearnStrategy,2023.2.3,Win32,142.8571429,9,2,8,,,,,,,,7,16,,,,,,,,,,,,,7,1.446,1,,,,,,0.046527778,-0.391666667,1,0,0,1.4456,Peridotite_rect,7,0,7,0,1,
63d193c45e01ccb694993e7f,SCR,2024-06-20_16h26.59.740,LearnStrategy,2023.2.3,Win32,142.8571429,9,2,9,,,,,,,,4,14,,,,,,,,,,,,,1,7.359,0,,,,,,-0.363194444,-0.247916667,1,0,0,7.3592,Andesite_rect,8,0,8,0,1,
63d193c45e01ccb694993e7f,SCR,2024-06-20_16h26.59.740,LearnStrategy,2023.2.3,Win32,142.8571429,9,2,10,,,,,,,,2,08,,,,,,,,,,,,,4,9.241,0,,,,,,0.353472222,-0.243055556,1,0,0,9.241,Gabbro_rect,9,0,9,0,1,
63d193c45e01ccb694993e7f,SCR,2024-06-20_16h26.59.740,LearnStrategy,2023.2.3,Win32,142.8571429,9,2,11,,,,,,,,3,13,,,,,,,,,,,,,3,4.629,1,,,,,,0.154166667,-0.239583333,1,0,0,4.6285,Diorite_rect,10,0,10,0,1,
63d193c45e01ccb694993e7f,SCR,2024-06-20_16h26.59.740,LearnStrategy,2023.2.3,Win32,142.8571429,9,2,12,,,,,,,,1,01,,,,,,,,,,,,,1,3.769,1,,,,,,-0.315972222,-0.245833333,1,0,0,3.7687,Andesite_rect,11,0,11,0,1,
63d193c45e01ccb694993e7f,SCR,2024-06-20_16h26.59.740,LearnStrategy,2023.2.3,Win32,142.8571429,9,2,13,,,,,,,,4,13,,,,,,,,,,,,,1,6.607,0,,,,,,-0.418055556,-0.258333333,1,0,0,6.6068,Andesite_rect,12,0,12,0,1,
63d193c45e01ccb694993e7f,SCR,2024-06-20_16h26.59.740,LearnStrategy,2023.2.3,Win32,142.8571429,9,2,14,,,,,,,,1,05,,,,,,,,,,,,,2,2.303,0,,,,,,-0.104861111,-0.250694444,1,0,0,2.3033,Basalt_rect,13,0,13,0,1,
63d193c45e01ccb694993e7f,SCR,2024-06-20_16h26.59.740,LearnStrategy,2023.2.3,Win32,142.8571429,9,2,15,,,,,,,,6,09,,,,,,,,,,,,,6,7.283,1,,,,,,-0.119444444,-0.400694444,1,0,0,7.2827,Pegmatite_rect,14,0,14,0,1,
63d193c45e01ccb694993e7f,SCR,2024-06-20_16h26.59.740,LearnStrategy,2023.2.3,Win32,142.8571429,9,2,16,,,,,,,,3,08,,,,,,,,,,,,,3,3.435,1,,,,,,0.111111111,-0.259027778,1,0,0,3.4353,Diorite_rect,15,0,15,0,1,
63d193c45e01ccb694993e7f,SCR,2024-06-20_16h26.59.740,LearnStrategy,2023.2.3,Win32,142.8571429,,,,,,,,,,,,,,,,,,,,,,,,,,,,,,,,,,,,,,,,,,,,,1
63d193c45e01ccb694993e7f,SCR,2024-06-20_16h26.59.740,LearnStrategy,2023.2.3,Win32,142.8571429,,,,,,,,,,,,,,,,,,,,,,,,,,,,,,,,,,,,,,,,,,,,,
63d193c45e01ccb694993e7f,SCR,2024-06-20_16h26.59.740,LearnStrategy,2023.2.3,Win32,142.8571429,,,,,,,,,,,4,09,1,1,,,,,,,,,,,,,,,,,,,,,,,,,,,,,,,
63d193c45e01ccb694993e7f,SCR,2024-06-20_16h26.59.740,LearnStrategy,2023.2.3,Win32,142.8571429,,,,,,,,,,,7,10,1,2,,,,,,,,,,,,,,,,,,,,,,,,,,,,,,,
63d193c45e01ccb694993e7f,SCR,2024-06-20_16h26.59.740,LearnStrategy,2023.2.3,Win32,142.8571429,,,,,,,,,,,1,06,1,3,,,,,,,,,,,,,,,,,,,,,,,,,,,,,,,
63d193c45e01ccb694993e7f,SCR,2024-06-20_16h26.59.740,LearnStrategy,2023.2.3,Win32,142.8571429,,,,,,,,,,,5,06,1,4,,,,,,,,,,,,,,,,,,,,,,,,,,,,,,,
63d193c45e01ccb694993e7f,SCR,2024-06-20_16h26.59.740,LearnStrategy,2023.2.3,Win32,142.8571429,,,,,,,,,,,7,12,1,5,,,,,,,,,,,,,,,,,,,,,,,,,,,,,,,
63d193c45e01ccb694993e7f,SCR,2024-06-20_16h26.59.740,LearnStrategy,2023.2.3,Win32,142.8571429,,,,,,,,,,,5,08,1,6,,,,,,,,,,,,,,,,,,,,,,,,,,,,,,,
63d193c45e01ccb694993e7f,SCR,2024-06-20_16h26.59.740,LearnStrategy,2023.2.3,Win32,142.8571429,,,,,,,,,,,4,15,1,7,,,,,,,,,,,,,,,,,,,,,,,,,,,,,,,
63d193c45e01ccb694993e7f,SCR,2024-06-20_16h26.59.740,LearnStrategy,2023.2.3,Win32,142.8571429,,,,,,,,,,,1,10,1,8,,,,,,,,,,,,,,,,,,,,,,,,,,,,,,,
63d193c45e01ccb694993e7f,SCR,2024-06-20_16h26.59.740,LearnStrategy,2023.2.3,Win32,142.8571429,,,,,,,,,,,8,06,2,1,,,,,,,,,,,,,,,,,,,,,,,,,,,,,,,
63d193c45e01ccb694993e7f,SCR,2024-06-20_16h26.59.740,LearnStrategy,2023.2.3,Win32,142.8571429,,,,,,,,,,,3,11,2,2,,,,,,,,,,,,,,,,,,,,,,,,,,,,,,,
63d193c45e01ccb694993e7f,SCR,2024-06-20_16h26.59.740,LearnStrategy,2023.2.3,Win32,142.8571429,,,,,,,,,,,4,11,2,3,,,,,,,,,,,,,,,,,,,,,,,,,,,,,,,
63d193c45e01ccb694993e7f,SCR,2024-06-20_16h26.59.740,LearnStrategy,2023.2.3,Win32,142.8571429,,,,,,,,,,,7,08,2,4,,,,,,,,,,,,,,,,,,,,,,,,,,,,,,,
63d193c45e01ccb694993e7f,SCR,2024-06-20_16h26.59.740,LearnStrategy,2023.2.3,Win32,142.8571429,,,,,,,,,,,2,04,2,5,,,,,,,,,,,,,,,,,,,,,,,,,,,,,,,
63d193c45e01ccb694993e7f,SCR,2024-06-20_16h26.59.740,LearnStrategy,2023.2.3,Win32,142.8571429,,,,,,,,,,,2,06,2,6,,,,,,,,,,,,,,,,,,,,,,,,,,,,,,,
63d193c45e01ccb694993e7f,SCR,2024-06-20_16h26.59.740,LearnStrategy,2023.2.3,Win32,142.8571429,,,,,,,,,,,8,16,2,7,,,,,,,,,,,,,,,,,,,,,,,,,,,,,,,
63d193c45e01ccb694993e7f,SCR,2024-06-20_16h26.59.740,LearnStrategy,2023.2.3,Win32,142.8571429,,,,,,,,,,,6,16,2,8,,,,,,,,,,,,,,,,,,,,,,,,,,,,,,,
63d193c45e01ccb694993e7f,SCR,2024-06-20_16h26.59.740,LearnStrategy,2023.2.3,Win32,142.8571429,,,,,,,,,,,4,16,3,1,,,,,,,,,,,,,,,,,,,,,,,,,,,,,,,
63d193c45e01ccb694993e7f,SCR,2024-06-20_16h26.59.740,LearnStrategy,2023.2.3,Win32,142.8571429,,,,,,,,,,,1,09,3,2,,,,,,,,,,,,,,,,,,,,,,,,,,,,,,,
63d193c45e01ccb694993e7f,SCR,2024-06-20_16h26.59.740,LearnStrategy,2023.2.3,Win32,142.8571429,,,,,,,,,,,8,09,3,3,,,,,,,,,,,,,,,,,,,,,,,,,,,,,,,
63d193c45e01ccb694993e7f,SCR,2024-06-20_16h26.59.740,LearnStrategy,2023.2.3,Win32,142.8571429,,,,,,,,,,,8,10,3,4,,,,,,,,,,,,,,,,,,,,,,,,,,,,,,,
63d193c45e01ccb694993e7f,SCR,2024-06-20_16h26.59.740,LearnStrategy,2023.2.3,Win32,142.8571429,,,,,,,,,,,4,08,3,5,,,,,,,,,,,,,,,,,,,,,,,,,,,,,,,
63d193c45e01ccb694993e7f,SCR,2024-06-20_16h26.59.740,LearnStrategy,2023.2.3,Win32,142.8571429,,,,,,,,,,,2,11,3,6,,,,,,,,,,,,,,,,,,,,,,,,,,,,,,,
63d193c45e01ccb694993e7f,SCR,2024-06-20_16h26.59.740,LearnStrategy,2023.2.3,Win32,142.8571429,,,,,,,,,,,4,12,3,7,,,,,,,,,,,,,,,,,,,,,,,,,,,,,,,
63d193c45e01ccb694993e7f,SCR,2024-06-20_16h26.59.740,LearnStrategy,2023.2.3,Win32,142.8571429,,,,,,,,,,,7,14,3,8,,,,,,,,,,,,,,,,,,,,,,,,,,,,,,,
63d193c45e01ccb694993e7f,SCR,2024-06-20_16h26.59.740,LearnStrategy,2023.2.3,Win32,142.8571429,,,,,,,,,,,6,07,4,1,,,,,,,,,,,,,,,,,,,,,,,,,,,,,,,
63d193c45e01ccb694993e7f,SCR,2024-06-20_16h26.59.740,LearnStrategy,2023.2.3,Win32,142.8571429,,,,,,,,,,,6,10,4,2,,,,,,,,,,,,,,,,,,,,,,,,,,,,,,,
63d193c45e01ccb694993e7f,SCR,2024-06-20_16h26.59.740,LearnStrategy,2023.2.3,Win32,142.8571429,,,,,,,,,,,3,06,4,3,,,,,,,,,,,,,,,,,,,,,,,,,,,,,,,
63d193c45e01ccb694993e7f,SCR,2024-06-20_16h26.59.740,LearnStrategy,2023.2.3,Win32,142.8571429,,,,,,,,,,,8,03,4,4,,,,,,,,,,,,,,,,,,,,,,,,,,,,,,,
63d193c45e01ccb694993e7f,SCR,2024-06-20_16h26.59.740,LearnStrategy,2023.2.3,Win32,142.8571429,,,,,,,,,,,3,16,4,5,,,,,,,,,,,,,,,,,,,,,,,,,,,,,,,
63d193c45e01ccb694993e7f,SCR,2024-06-20_16h26.59.740,LearnStrategy,2023.2.3,Win32,142.8571429,,,,,,,,,,,8,08,4,6,,,,,,,,,,,,,,,,,,,,,,,,,,,,,,,
63d193c45e01ccb694993e7f,SCR,2024-06-20_16h26.59.740,LearnStrategy,2023.2.3,Win32,142.8571429,,,,,,,,,,,6,12,4,7,,,,,,,,,,,,,,,,,,,,,,,,,,,,,,,
63d193c45e01ccb694993e7f,SCR,2024-06-20_16h26.59.740,LearnStrategy,2023.2.3,Win32,142.8571429,,,,,,,,,,,3,10,4,8,,,,,,,,,,,,,,,,,,,,,,,,,,,,,,,
63d193c45e01ccb694993e7f,SCR,2024-06-20_16h26.59.740,LearnStrategy,2023.2.3,Win32,142.8571429,,,,,,,,,,,7,06,5,1,,,,,,,,,,,,,,,,,,,,,,,,,,,,,,,
63d193c45e01ccb694993e7f,SCR,2024-06-20_16h26.59.740,LearnStrategy,2023.2.3,Win32,142.8571429,,,,,,,,,,,6,06,5,2,,,,,,,,,,,,,,,,,,,,,,,,,,,,,,,
63d193c45e01ccb694993e7f,SCR,2024-06-20_16h26.59.740,LearnStrategy,2023.2.3,Win32,142.8571429,,,,,,,,,,,1,03,5,3,,,,,,,,,,,,,,,,,,,,,,,,,,,,,,,
63d193c45e01ccb694993e7f,SCR,2024-06-20_16h26.59.740,LearnStrategy,2023.2.3,Win32,142.8571429,,,,,,,,,,,5,05,5,4,,,,,,,,,,,,,,,,,,,,,,,,,,,,,,,
63d193c45e01ccb694993e7f,SCR,2024-06-20_16h26.59.740,LearnStrategy,2023.2.3,Win32,142.8571429,,,,,,,,,,,5,02,5,5,,,,,,,,,,,,,,,,,,,,,,,,,,,,,,,
63d193c45e01ccb694993e7f,SCR,2024-06-20_16h26.59.740,LearnStrategy,2023.2.3,Win32,142.8571429,,,,,,,,,,,2,16,5,6,,,,,,,,,,,,,,,,,,,,,,,,,,,,,,,
63d193c45e01ccb694993e7f,SCR,2024-06-20_16h26.59.740,LearnStrategy,2023.2.3,Win32,142.8571429,,,,,,,,,,,2,09,5,7,,,,,,,,,,,,,,,,,,,,,,,,,,,,,,,
63d193c45e01ccb694993e7f,SCR,2024-06-20_16h26.59.740,LearnStrategy,2023.2.3,Win32,142.8571429,,,,,,,,,,,6,08,5,8,,,,,,,,,,,,,,,,,,,,,,,,,,,,,,,
63d193c45e01ccb694993e7f,SCR,2024-06-20_16h26.59.740,LearnStrategy,2023.2.3,Win32,142.8571429,,,,,,,,,,,1,11,6,1,,,,,,,,,,,,,,,,,,,,,,,,,,,,,,,
63d193c45e01ccb694993e7f,SCR,2024-06-20_16h26.59.740,LearnStrategy,2023.2.3,Win32,142.8571429,,,,,,,,,,,1,02,6,2,,,,,,,,,,,,,,,,,,,,,,,,,,,,,,,
63d193c45e01ccb694993e7f,SCR,2024-06-20_16h26.59.740,LearnStrategy,2023.2.3,Win32,142.8571429,,,,,,,,,,,2,05,6,3,,,,,,,,,,,,,,,,,,,,,,,,,,,,,,,
63d193c45e01ccb694993e7f,SCR,2024-06-20_16h26.59.740,LearnStrategy,2023.2.3,Win32,142.8571429,,,,,,,,,,,5,14,6,4,,,,,,,,,,,,,,,,,,,,,,,,,,,,,,,
63d193c45e01ccb694993e7f,SCR,2024-06-20_16h26.59.740,LearnStrategy,2023.2.3,Win32,142.8571429,,,,,,,,,,,7,13,6,5,,,,,,,,,,,,,,,,,,,,,,,,,,,,,,,
63d193c45e01ccb694993e7f,SCR,2024-06-20_16h26.59.740,LearnStrategy,2023.2.3,Win32,142.8571429,,,,,,,,,,,5,16,6,6,,,,,,,,,,,,,,,,,,,,,,,,,,,,,,,
63d193c45e01ccb694993e7f,SCR,2024-06-20_16h26.59.740,LearnStrategy,2023.2.3,Win32,142.8571429,,,,,,,,,,,3,12,6,7,,,,,,,,,,,,,,,,,,,,,,,,,,,,,,,
63d193c45e01ccb694993e7f,SCR,2024-06-20_16h26.59.740,LearnStrategy,2023.2.3,Win32,142.8571429,,,,,,,,,,,3,09,6,8,,,,,,,,,,,,,,,,,,,,,,,,,,,,,,,