participant,condition,date,expName,psychopyVersion,OS,frameRate,block,phase,trial,learn_mouse_2.x,learn_mouse_2.y,learn_mouse_2.leftButton,learn_mouse_2.midButton,learn_mouse_2.rightButton,learn_mouse_2.time,learn_mouse_2.clicked_name,cat,token,row,col,t_select,cat_mouse_l.x,cat_mouse_l.y,cat_mouse_l.leftButton,cat_mouse_l.midButton,cat_mouse_l.rightButton,cat_mouse_l.time,cat_mouse_l.clicked_name,resp,t_resp,corr,train_trials.thisRepN,train_trials.thisTrialN,train_trials.thisN,train_trials.thisIndex,train_trials.ran,cat_mouse_t.x,cat_mouse_t.y,cat_mouse_t.leftButton,cat_mouse_t.midButton,cat_mouse_t.rightButton,cat_mouse_t.time,cat_mouse_t.clicked_name,test_trials.thisRepN,test_trials.thisTrialN,test_trials.thisN,test_trials.thisIndex,test_trials.ran,Bonus
63d15e1be853005ff591b935,TCR,2024-06-24_17h32.57.276,LearnStrategy,2023.2.3,Win32,59.88023952,,,,,,,,,,,,,,,,,,,,,,,,,,,,,,,,,,,,,,,,,,,
63d15e1be853005ff591b935,TCR,2024-06-24_17h32.57.276,LearnStrategy,2023.2.3,Win32,59.88023952,1,1,1,-0.021296296,0.001851852,1,0,0,3.1173,rock_grid_rect_2,7,12,-1,-1,3.117,0.160185185,-0.402777778,1,0,0,28.985,Peridotite_rect,7,28.985,1,0,0,0,0,1,,,,,,,,,,,,,
63d15e1be853005ff591b935,TCR,2024-06-24_17h32.57.276,LearnStrategy,2023.2.3,Win32,59.88023952,1,1,2,0.007407407,-0.005555556,1,0,0,1.1421,rock_grid_rect_2,5,05,-1,-1,1.142,-0.391666667,-0.411111111,1,0,0,2.2267,Obsidian_rect,5,2.227,1,1,0,1,0,1,,,,,,,,,,,,,
63d15e1be853005ff591b935,TCR,2024-06-24_17h32.57.276,LearnStrategy,2023.2.3,Win32,59.88023952,1,1,3,0.037962963,-0.007407407,1,0,0,1.0123,rock_grid_rect_2,1,14,-1,-1,1.012,0.367592593,-0.405555556,1,0,0,5.6479,Pumice_rect,8,5.648,0,2,0,2,0,1,,,,,,,,,,,,,
63d15e1be853005ff591b935,TCR,2024-06-24_17h32.57.276,LearnStrategy,2023.2.3,Win32,59.88023952,1,1,4,0.059259259,-0.009259259,1,0,0,1.0959,rock_grid_rect_2,2,06,-1,-1,1.096,-0.373148148,-0.400925926,1,0,0,5.1876,Obsidian_rect,5,5.188,0,3,0,3,0,1,,,,,,,,,,,,,
63d15e1be853005ff591b935,TCR,2024-06-24_17h32.57.276,LearnStrategy,2023.2.3,Win32,59.88023952,1,1,5,-0.001851852,0.005555556,1,0,0,1.2595,rock_grid_rect_2,3,15,-1,-1,1.259,-0.364814815,-0.252777778,1,0,0,6.8507,Andesite_rect,1,6.851,0,4,0,4,0,1,,,,,,,,,,,,,
63d15e1be853005ff591b935,TCR,2024-06-24_17h32.57.276,LearnStrategy,2023.2.3,Win32,59.88023952,1,1,6,0.055555556,0,1,0,0,1.0087,rock_grid_rect_2,6,07,-1,-1,1.009,-0.367592593,-0.241666667,1,0,0,1.9479,Andesite_rect,1,1.948,0,5,0,5,0,1,,,,,,,,,,,,,
63d15e1be853005ff591b935,TCR,2024-06-24_17h32.57.276,LearnStrategy,2023.2.3,Win32,59.88023952,1,1,7,-0.016666667,-0.010185185,1,0,0,1.1874,rock_grid_rect_2,4,15,-1,-1,1.187,-0.335185185,-0.243518519,1,0,0,4.0981,Andesite_rect,1,4.098,0,6,0,6,0,1,,,,,,,,,,,,,
63d15e1be853005ff591b935,TCR,2024-06-24_17h32.57.276,LearnStrategy,2023.2.3,Win32,59.88023952,1,1,8,-0.001851852,0.008333333,1,0,0,1.4483,rock_grid_rect_2,3,02,-1,-1,1.448,0.152777778,-0.251851852,1,0,0,7.5343,Diorite_rect,3,7.534,1,7,0,7,0,1,,,,,,,,,,,,,
63d15e1be853005ff591b935,TCR,2024-06-24_17h32.57.276,LearnStrategy,2023.2.3,Win32,59.88023952,1,1,9,0.009259259,0.015740741,1,0,0,1.1802,rock_grid_rect_2,7,13,-1,-1,1.18,0.363888889,-0.399074074,1,0,0,3.6336,Pumice_rect,8,3.634,0,8,0,8,0,1,,,,,,,,,,,,,
63d15e1be853005ff591b935,TCR,2024-06-24_17h32.57.276,LearnStrategy,2023.2.3,Win32,59.88023952,1,1,10,0.053703704,-0.010185185,1,0,0,0.9015,rock_grid_rect_2,8,05,-1,-1,0.901,0.406481481,-0.390740741,1,0,0,1.5758,Pumice_rect,8,1.576,1,9,0,9,0,1,,,,,,,,,,,,,
63d15e1be853005ff591b935,TCR,2024-06-24_17h32.57.276,LearnStrategy,2023.2.3,Win32,59.88023952,1,1,11,-0.032407407,-0.02037037,1,0,0,0.9323,rock_grid_rect_2,1,01,-1,-1,0.932,-0.09537037,-0.252777778,1,0,0,12.5921,Basalt_rect,2,12.592,0,10,0,10,0,1,,,,,,,,,,,,,
63d15e1be853005ff591b935,TCR,2024-06-24_17h32.57.276,LearnStrategy,2023.2.3,Win32,59.88023952,1,1,12,0.084259259,-0.001851852,1,0,0,1.1347,rock_grid_rect_2,8,09,-1,-1,1.135,0.365740741,-0.392592593,1,0,0,1.2202,Pumice_rect,8,1.22,1,11,0,11,0,1,,,,,,,,,,,,,
63d15e1be853005ff591b935,TCR,2024-06-24_17h32.57.276,LearnStrategy,2023.2.3,Win32,59.88023952,1,1,13,-0.006481481,-0.010185185,1,0,0,1.0303,rock_grid_rect_2,5,07,-1,-1,1.03,-0.363888889,-0.386111111,1,0,0,1.4058,Obsidian_rect,5,1.406,1,12,0,12,0,1,,,,,,,,,,,,,
63d15e1be853005ff591b935,TCR,2024-06-24_17h32.57.276,LearnStrategy,2023.2.3,Win32,59.88023952,1,1,14,0.055555556,-0.002777778,1,0,0,1.3804,rock_grid_rect_2,4,08,-1,-1,1.38,-0.14537037,-0.256481481,1,0,0,3.3832,Basalt_rect,2,3.383,0,13,0,13,0,1,,,,,,,,,,,,,
63d15e1be853005ff591b935,TCR,2024-06-24_17h32.57.276,LearnStrategy,2023.2.3,Win32,59.88023952,1,1,15,0.062037037,0.012962963,1,0,0,1.0026,rock_grid_rect_2,2,04,-1,-1,1.003,0.350925926,-0.266666667,1,0,0,24.5711,Gabbro_rect,4,24.571,0,14,0,14,0,1,,,,,,,,,,,,,
63d15e1be853005ff591b935,TCR,2024-06-24_17h32.57.276,LearnStrategy,2023.2.3,Win32,59.88023952,1,1,16,0.1,0.019444444,1,0,0,0.9651,rock_grid_rect_2,6,08,-1,-1,0.965,-0.119444444,-0.401851852,1,0,0,2.1894,Pegmatite_rect,6,2.189,1,15,0,15,0,1,,,,,,,,,,,,,
63d15e1be853005ff591b935,TCR,2024-06-24_17h32.57.276,LearnStrategy,2023.2.3,Win32,59.88023952,1,2,1,,,,,,,,7,08,,,,,,,,,,,4,8.667,0,,,,,,0.413888889,-0.237037037,1,0,0,8.6673,Gabbro_rect,0,0,0,0,1,
63d15e1be853005ff591b935,TCR,2024-06-24_17h32.57.276,LearnStrategy,2023.2.3,Win32,59.88023952,1,2,2,,,,,,,,1,05,,,,,,,,,,,6,19.012,0,,,,,,-0.124074074,-0.407407407,1,0,0,19.0122,Pegmatite_rect,1,0,1,0,1,
63d15e1be853005ff591b935,TCR,2024-06-24_17h32.57.276,LearnStrategy,2023.2.3,Win32,59.88023952,1,2,3,,,,,,,,5,10,,,,,,,,,,,5,1.31,1,,,,,,-0.334259259,-0.419444444,1,0,0,1.3103,Obsidian_rect,2,0,2,0,1,
63d15e1be853005ff591b935,TCR,2024-06-24_17h32.57.276,LearnStrategy,2023.2.3,Win32,59.88023952,1,2,4,,,,,,,,4,09,,,,,,,,,,,1,8.831,0,,,,,,-0.4,-0.253703704,1,0,0,8.8306,Andesite_rect,3,0,3,0,1,
63d15e1be853005ff591b935,TCR,2024-06-24_17h32.57.276,LearnStrategy,2023.2.3,Win32,59.88023952,1,2,5,,,,,,,,3,06,,,,,,,,,,,4,5.247,0,,,,,,0.389814815,-0.25,1,0,0,5.2473,Gabbro_rect,4,0,4,0,1,
63d15e1be853005ff591b935,TCR,2024-06-24_17h32.57.276,LearnStrategy,2023.2.3,Win32,59.88023952,1,2,6,,,,,,,,2,02,,,,,,,,,,,2,16.049,1,,,,,,-0.210185185,-0.259259259,1,0,0,16.0486,Basalt_rect,5,0,5,0,1,
63d15e1be853005ff591b935,TCR,2024-06-24_17h32.57.276,LearnStrategy,2023.2.3,Win32,59.88023952,1,2,7,,,,,,,,7,10,,,,,,,,,,,4,16.512,0,,,,,,0.402777778,-0.255555556,1,0,0,16.5122,Gabbro_rect,6,0,6,0,1,
63d15e1be853005ff591b935,TCR,2024-06-24_17h32.57.276,LearnStrategy,2023.2.3,Win32,59.88023952,1,2,8,,,,,,,,8,13,,,,,,,,,,,8,1.332,1,,,,,,0.359259259,-0.387037037,1,0,0,1.3315,Pumice_rect,7,0,7,0,1,
63d15e1be853005ff591b935,TCR,2024-06-24_17h32.57.276,LearnStrategy,2023.2.3,Win32,59.88023952,1,2,9,,,,,,,,6,06,,,,,,,,,,,6,20.307,1,,,,,,-0.102777778,-0.40462963,1,0,0,20.3073,Pegmatite_rect,8,0,8,0,1,
63d15e1be853005ff591b935,TCR,2024-06-24_17h32.57.276,LearnStrategy,2023.2.3,Win32,59.88023952,1,2,10,,,,,,,,3,16,,,,,,,,,,,3,7.167,1,,,,,,0.093518519,-0.266666667,1,0,0,7.1667,Diorite_rect,9,0,9,0,1,
63d15e1be853005ff591b935,TCR,2024-06-24_17h32.57.276,LearnStrategy,2023.2.3,Win32,59.88023952,1,2,11,,,,,,,,1,16,,,,,,,,,,,3,43.138,0,,,,,,0.201851852,-0.248148148,1,0,0,43.1381,Diorite_rect,10,0,10,0,1,
63d15e1be853005ff591b935,TCR,2024-06-24_17h32.57.276,LearnStrategy,2023.2.3,Win32,59.88023952,1,2,12,,,,,,,,6,03,,,,,,,,,,,6,9.588,1,,,,,,-0.222222222,-0.410185185,1,0,0,9.5876,Pegmatite_rect,11,0,11,0,1,
63d15e1be853005ff591b935,TCR,2024-06-24_17h32.57.276,LearnStrategy,2023.2.3,Win32,59.88023952,1,2,13,,,,,,,,2,01,,,,,,,,,,,2,2.996,1,,,,,,-0.096296296,-0.261111111,1,0,0,2.9957,Basalt_rect,12,0,12,0,1,
63d15e1be853005ff591b935,TCR,2024-06-24_17h32.57.276,LearnStrategy,2023.2.3,Win32,59.88023952,1,2,14,,,,,,,,4,13,,,,,,,,,,,4,4.095,1,,,,,,0.394444444,-0.248148148,1,0,0,4.0953,Gabbro_rect,13,0,13,0,1,
63d15e1be853005ff591b935,TCR,2024-06-24_17h32.57.276,LearnStrategy,2023.2.3,Win32,59.88023952,1,2,15,,,,,,,,8,15,,,,,,,,,,,8,1.18,1,,,,,,0.348148148,-0.400925926,1,0,0,1.1798,Pumice_rect,14,0,14,0,1,
63d15e1be853005ff591b935,TCR,2024-06-24_17h32.57.276,LearnStrategy,2023.2.3,Win32,59.88023952,1,2,16,,,,,,,,5,16,,,,,,,,,,,5,1.175,1,,,,,,-0.405555556,-0.389814815,1,0,0,1.1748,Obsidian_rect,15,0,15,0,1,
63d15e1be853005ff591b935,TCR,2024-06-24_17h32.57.276,LearnStrategy,2023.2.3,Win32,59.88023952,2,1,1,0.015740741,0.010185185,1,0,0,1.6165,rock_grid_rect_2,3,13,-1,-1,1.616,0.377777778,-0.265740741,1,0,0,3.6473,Gabbro_rect,4,3.647,0,0,0,0,0,1,,,,,,,,,,,,,
63d15e1be853005ff591b935,TCR,2024-06-24_17h32.57.276,LearnStrategy,2023.2.3,Win32,59.88023952,2,1,2,0.069444444,0.000925926,1,0,0,1.1328,rock_grid_rect_2,4,05,-1,-1,1.133,0.377777778,-0.248148148,1,0,0,10.3076,Gabbro_rect,4,10.308,1,1,0,1,0,1,,,,,,,,,,,,,
63d15e1be853005ff591b935,TCR,2024-06-24_17h32.57.276,LearnStrategy,2023.2.3,Win32,59.88023952,2,1,3,0.037037037,0.005555556,1,0,0,1.1155,rock_grid_rect_2,1,03,-1,-1,1.115,-0.405555556,-0.236111111,1,0,0,6.6326,Andesite_rect,1,6.633,1,2,0,2,0,1,,,,,,,,,,,,,
63d15e1be853005ff591b935,TCR,2024-06-24_17h32.57.276,LearnStrategy,2023.2.3,Win32,59.88023952,2,1,4,-0.012037037,0.014814815,1,0,0,1.543,rock_grid_rect_2,1,10,-1,-1,1.543,-0.372222222,-0.266666667,1,0,0,7.5877,Andesite_rect,1,7.588,1,3,0,3,0,1,,,,,,,,,,,,,
63d15e1be853005ff591b935,TCR,2024-06-24_17h32.57.276,LearnStrategy,2023.2.3,Win32,59.88023952,2,1,5,0.073148148,-0.013888889,1,0,0,1.0984,rock_grid_rect_2,7,13,-1,-1,1.098,0.131481481,-0.40462963,1,0,0,7.7004,Peridotite_rect,7,7.7,1,4,0,4,0,1,,,,,,,,,,,,,
63d15e1be853005ff591b935,TCR,2024-06-24_17h32.57.276,LearnStrategy,2023.2.3,Win32,59.88023952,2,1,6,0.074074074,0.009259259,1,0,0,0.9978,rock_grid_rect_2,3,14,-1,-1,0.998,0.151851852,-0.255555556,1,0,0,7.4349,Diorite_rect,3,7.435,1,5,0,5,0,1,,,,,,,,,,,,,
63d15e1be853005ff591b935,TCR,2024-06-24_17h32.57.276,LearnStrategy,2023.2.3,Win32,59.88023952,2,1,7,-0.00462963,0.005555556,1,0,0,1.2814,rock_grid_rect_2,7,13,-1,-1,1.281,0.123148148,-0.394444444,1,0,0,2.3837,Peridotite_rect,7,2.384,1,6,0,6,0,1,,,,,,,,,,,,,
63d15e1be853005ff591b935,TCR,2024-06-24_17h32.57.276,LearnStrategy,2023.2.3,Win32,59.88023952,2,1,8,0.02962963,0.007407407,1,0,0,0.9614,rock_grid_rect_2,4,12,-1,-1,0.961,-0.403703704,-0.267592593,1,0,0,12.1677,Andesite_rect,1,12.168,0,7,0,7,0,1,,,,,,,,,,,,,
63d15e1be853005ff591b935,TCR,2024-06-24_17h32.57.276,LearnStrategy,2023.2.3,Win32,59.88023952,2,1,9,0.015740741,0.003703704,1,0,0,0.9765,rock_grid_rect_2,1,01,-1,-1,0.976,-0.371296296,-0.248148148,1,0,0,11.2737,Andesite_rect,1,11.274,1,8,0,8,0,1,,,,,,,,,,,,,
63d15e1be853005ff591b935,TCR,2024-06-24_17h32.57.276,LearnStrategy,2023.2.3,Win32,59.88023952,2,1,10,0.040740741,-0.002777778,1,0,0,0.9652,rock_grid_rect_2,3,13,-1,-1,0.965,0.133333333,-0.256481481,1,0,0,10.8215,Diorite_rect,3,10.822,1,9,0,9,0,1,,,,,,,,,,,,,
63d15e1be853005ff591b935,TCR,2024-06-24_17h32.57.276,LearnStrategy,2023.2.3,Win32,59.88023952,2,1,11,0.031481481,0.010185185,1,0,0,1.0465,rock_grid_rect_2,1,01,-1,-1,1.047,-0.381481481,-0.24537037,1,0,0,7.7803,Andesite_rect,1,7.78,1,10,0,10,0,1,,,,,,,,,,,,,
63d15e1be853005ff591b935,TCR,2024-06-24_17h32.57.276,LearnStrategy,2023.2.3,Win32,59.88023952,2,1,12,-0.000925926,0.008333333,1,0,0,1.0287,rock_grid_rect_2,4,16,-1,-1,1.029,-0.40462963,-0.25,1,0,0,11.0912,Andesite_rect,1,11.091,0,11,0,11,0,1,,,,,,,,,,,,,
63d15e1be853005ff591b935,TCR,2024-06-24_17h32.57.276,LearnStrategy,2023.2.3,Win32,59.88023952,2,1,13,0.121296296,0.006481481,1,0,0,0.8982,rock_grid_rect_2,7,12,-1,-1,0.898,0.116666667,-0.244444444,1,0,0,46.8195,Diorite_rect,3,46.819,0,12,0,12,0,1,,,,,,,,,,,,,
63d15e1be853005ff591b935,TCR,2024-06-24_17h32.57.276,LearnStrategy,2023.2.3,Win32,59.88023952,2,1,14,0.097222222,0.000925926,1,0,0,1.0026,rock_grid_rect_2,7,14,-1,-1,1.003,-0.459259259,-0.241666667,1,0,0,20.3295,Andesite_rect,1,20.33,0,13,0,13,0,1,,,,,,,,,,,,,
63d15e1be853005ff591b935,TCR,2024-06-24_17h32.57.276,LearnStrategy,2023.2.3,Win32,59.88023952,2,1,15,0.076851852,0.022222222,1,0,0,1.1291,rock_grid_rect_2,6,08,-1,-1,1.129,0.135185185,-0.397222222,1,0,0,2.2052,Peridotite_rect,7,2.205,0,14,0,14,0,1,,,,,,,,,,,,,
63d15e1be853005ff591b935,TCR,2024-06-24_17h32.57.276,LearnStrategy,2023.2.3,Win32,59.88023952,2,1,16,0.041666667,-0.016666667,1,0,0,0.9549,rock_grid_rect_2,8,05,-1,-1,0.955,0.344444444,-0.401851852,1,0,0,1.6819,Pumice_rect,8,1.682,1,15,0,15,0,1,,,,,,,,,,,,,
63d15e1be853005ff591b935,TCR,2024-06-24_17h32.57.276,LearnStrategy,2023.2.3,Win32,59.88023952,2,2,1,,,,,,,,1,07,,,,,,,,,,,4,9.979,0,,,,,,0.425925926,-0.267592593,1,0,0,9.9793,Gabbro_rect,0,0,0,0,1,
63d15e1be853005ff591b935,TCR,2024-06-24_17h32.57.276,LearnStrategy,2023.2.3,Win32,59.88023952,2,2,2,,,,,,,,6,10,,,,,,,,,,,6,24.465,1,,,,,,-0.107407407,-0.403703704,1,0,0,24.4654,Pegmatite_rect,1,0,1,0,1,
63d15e1be853005ff591b935,TCR,2024-06-24_17h32.57.276,LearnStrategy,2023.2.3,Win32,59.88023952,2,2,3,,,,,,,,2,10,,,,,,,,,,,4,8.386,0,,,,,,0.387037037,-0.250925926,1,0,0,8.3864,Gabbro_rect,2,0,2,0,1,
63d15e1be853005ff591b935,TCR,2024-06-24_17h32.57.276,LearnStrategy,2023.2.3,Win32,59.88023952,2,2,4,,,,,,,,2,12,,,,,,,,,,,8,5.415,0,,,,,,0.355555556,-0.401851852,1,0,0,5.4151,Pumice_rect,3,0,3,0,1,
63d15e1be853005ff591b935,TCR,2024-06-24_17h32.57.276,LearnStrategy,2023.2.3,Win32,59.88023952,2,2,5,,,,,,,,7,05,,,,,,,,,,,4,27.57,0,,,,,,0.424074074,-0.266666667,1,0,0,27.5701,Gabbro_rect,4,0,4,0,1,
63d15e1be853005ff591b935,TCR,2024-06-24_17h32.57.276,LearnStrategy,2023.2.3,Win32,59.88023952,2,2,6,,,,,,,,8,10,,,,,,,,,,,8,1.604,1,,,,,,0.376851852,-0.401851852,1,0,0,1.6041,Pumice_rect,5,0,5,0,1,
63d15e1be853005ff591b935,TCR,2024-06-24_17h32.57.276,LearnStrategy,2023.2.3,Win32,59.88023952,2,2,7,,,,,,,,6,12,,,,,,,,,,,3,14.234,0,,,,,,0.153703704,-0.262037037,1,0,0,14.2341,Diorite_rect,6,0,6,0,1,
63d15e1be853005ff591b935,TCR,2024-06-24_17h32.57.276,LearnStrategy,2023.2.3,Win32,59.88023952,2,2,8,,,,,,,,4,11,,,,,,,,,,,4,7.884,1,,,,,,0.37037037,-0.24537037,1,0,0,7.8841,Gabbro_rect,7,0,7,0,1,
63d15e1be853005ff591b935,TCR,2024-06-24_17h32.57.276,LearnStrategy,2023.2.3,Win32,59.88023952,2,2,9,,,,,,,,7,02,,,,,,,,,,,4,1.993,0,,,,,,0.319444444,-0.239814815,1,0,0,1.9933,Gabbro_rect,8,0,8,0,1,
63d15e1be853005ff591b935,TCR,2024-06-24_17h32.57.276,LearnStrategy,2023.2.3,Win32,59.88023952,2,2,10,,,,,,,,8,03,,,,,,,,,,,8,1.879,1,,,,,,0.37037037,-0.40462963,1,0,0,1.8795,Pumice_rect,9,0,9,0,1,
63d15e1be853005ff591b935,TCR,2024-06-24_17h32.57.276,LearnStrategy,2023.2.3,Win32,59.88023952,2,2,11,,,,,,,,1,11,,,,,,,,,,,1,9.376,1,,,,,,-0.394444444,-0.252777778,1,0,0,9.3765,Andesite_rect,10,0,10,0,1,
63d15e1be853005ff591b935,TCR,2024-06-24_17h32.57.276,LearnStrategy,2023.2.3,Win32,59.88023952,2,2,12,,,,,,,,3,07,,,,,,,,,,,3,10.168,1,,,,,,0.159259259,-0.250925926,1,0,0,10.1675,Diorite_rect,11,0,11,0,1,
63d15e1be853005ff591b935,TCR,2024-06-24_17h32.57.276,LearnStrategy,2023.2.3,Win32,59.88023952,2,2,13,,,,,,,,3,08,,,,,,,,,,,3,1.357,1,,,,,,0.136111111,-0.243518519,1,0,0,1.3572,Diorite_rect,12,0,12,0,1,
63d15e1be853005ff591b935,TCR,2024-06-24_17h32.57.276,LearnStrategy,2023.2.3,Win32,59.88023952,2,2,14,,,,,,,,4,03,,,,,,,,,,,4,1.911,1,,,,,,0.346296296,-0.240740741,1,0,0,1.9109,Gabbro_rect,13,0,13,0,1,
63d15e1be853005ff591b935,TCR,2024-06-24_17h32.57.276,LearnStrategy,2023.2.3,Win32,59.88023952,2,2,15,,,,,,,,5,14,,,,,,,,,,,5,1.706,1,,,,,,-0.430555556,-0.37962963,1,0,0,1.7064,Obsidian_rect,14,0,14,0,1,
63d15e1be853005ff591b935,TCR,2024-06-24_17h32.57.276,LearnStrategy,2023.2.3,Win32,59.88023952,2,2,16,,,,,,,,5,11,,,,,,,,,,,5,1.01,1,,,,,,-0.373148148,-0.37962963,1,0,0,1.0097,Obsidian_rect,15,0,15,0,1,
63d15e1be853005ff591b935,TCR,2024-06-24_17h32.57.276,LearnStrategy,2023.2.3,Win32,59.88023952,3,1,1,0.039814815,0,1,0,0,1.5144,rock_grid_rect_2,7,13,-1,-1,1.514,0.14537037,-0.418518519,1,0,0,12.6701,Peridotite_rect,7,12.67,1,0,0,0,0,1,,,,,,,,,,,,,
63d15e1be853005ff591b935,TCR,2024-06-24_17h32.57.276,LearnStrategy,2023.2.3,Win32,59.88023952,3,1,2,-0.038888889,0.003703704,1,0,0,1.282,rock_grid_rect_2,2,11,-1,-1,1.282,-0.119444444,-0.244444444,1,0,0,4.7645,Basalt_rect,2,4.764,1,1,0,1,0,1,,,,,,,,,,,,,
63d15e1be853005ff591b935,TCR,2024-06-24_17h32.57.276,LearnStrategy,2023.2.3,Win32,59.88023952,3,1,3,0.005555556,-0.013888889,1,0,0,1.131,rock_grid_rect_2,6,09,-1,-1,1.131,-0.082407407,-0.406481481,1,0,0,7.525,Pegmatite_rect,6,7.525,1,2,0,2,0,1,,,,,,,,,,,,,
63d15e1be853005ff591b935,TCR,2024-06-24_17h32.57.276,LearnStrategy,2023.2.3,Win32,59.88023952,3,1,4,0.015740741,0.013888889,1,0,0,0.8613,rock_grid_rect_2,6,07,-1,-1,0.861,-0.175925926,-0.388888889,1,0,0,1.3149,Pegmatite_rect,6,1.315,1,3,0,3,0,1,,,,,,,,,,,,,
63d15e1be853005ff591b935,TCR,2024-06-24_17h32.57.276,LearnStrategy,2023.2.3,Win32,59.88023952,3,1,5,-0.012037037,-0.010185185,1,0,0,1.1495,rock_grid_rect_2,8,02,-1,-1,1.149,0.4,-0.381481481,1,0,0,1.1158,Pumice_rect,8,1.116,1,4,0,4,0,1,,,,,,,,,,,,,
63d15e1be853005ff591b935,TCR,2024-06-24_17h32.57.276,LearnStrategy,2023.2.3,Win32,59.88023952,3,1,6,0.00462963,-0.009259259,1,0,0,0.9496,rock_grid_rect_2,2,08,-1,-1,0.95,-0.139814815,-0.25462963,1,0,0,2.7655,Basalt_rect,2,2.765,1,5,0,5,0,1,,,,,,,,,,,,,
63d15e1be853005ff591b935,TCR,2024-06-24_17h32.57.276,LearnStrategy,2023.2.3,Win32,59.88023952,3,1,7,0.007407407,-0.011111111,1,0,0,1.0282,rock_grid_rect_2,7,06,-1,-1,1.028,-0.114814815,-0.4,1,0,0,20.1291,Pegmatite_rect,6,20.129,0,6,0,6,0,1,,,,,,,,,,,,,
63d15e1be853005ff591b935,TCR,2024-06-24_17h32.57.276,LearnStrategy,2023.2.3,Win32,59.88023952,3,1,8,0.014814815,-0.002777778,1,0,0,0.9755,rock_grid_rect_2,4,12,-1,-1,0.976,0.346296296,-0.244444444,1,0,0,11.1357,Gabbro_rect,4,11.136,1,7,0,7,0,1,,,,,,,,,,,,,
63d15e1be853005ff591b935,TCR,2024-06-24_17h32.57.276,LearnStrategy,2023.2.3,Win32,59.88023952,3,1,9,-0.012037037,0.014814815,1,0,0,1.0819,rock_grid_rect_2,3,11,-1,-1,1.082,0.137037037,-0.257407407,1,0,0,12.6851,Diorite_rect,3,12.685,1,8,0,8,0,1,,,,,,,,,,,,,
63d15e1be853005ff591b935,TCR,2024-06-24_17h32.57.276,LearnStrategy,2023.2.3,Win32,59.88023952,3,1,10,0.032407407,-0.00462963,1,0,0,0.978,rock_grid_rect_2,1,10,-1,-1,0.978,-0.385185185,-0.241666667,1,0,0,12.95,Andesite_rect,1,12.95,1,9,0,9,0,1,,,,,,,,,,,,,
63d15e1be853005ff591b935,TCR,2024-06-24_17h32.57.276,LearnStrategy,2023.2.3,Win32,59.88023952,3,1,11,-0.00462963,-0.018518519,1,0,0,1.0308,rock_grid_rect_2,7,13,-1,-1,1.031,0.140740741,-0.402777778,1,0,0,7.2649,Peridotite_rect,7,7.265,1,10,0,10,0,1,,,,,,,,,,,,,
63d15e1be853005ff591b935,TCR,2024-06-24_17h32.57.276,LearnStrategy,2023.2.3,Win32,59.88023952,3,1,12,0.036111111,-0.001851852,1,0,0,1.0646,rock_grid_rect_2,1,06,-1,-1,1.065,-0.369444444,-0.230555556,1,0,0,9.7566,Andesite_rect,1,9.757,1,11,0,11,0,1,,,,,,,,,,,,,
63d15e1be853005ff591b935,TCR,2024-06-24_17h32.57.276,LearnStrategy,2023.2.3,Win32,59.88023952,3,1,13,-0.071296296,0.008333333,1,0,0,0.7989,rock_grid_rect_2,2,09,-1,-1,0.799,0.405555556,-0.25,1,0,0,13.3232,Gabbro_rect,4,13.323,0,12,0,12,0,1,,,,,,,,,,,,,
63d15e1be853005ff591b935,TCR,2024-06-24_17h32.57.276,LearnStrategy,2023.2.3,Win32,59.88023952,3,1,14,0.002777778,-0.001851852,1,0,0,0.9113,rock_grid_rect_2,7,16,-1,-1,0.911,0.344444444,-0.25462963,1,0,0,2.6114,Gabbro_rect,4,2.611,0,13,0,13,0,1,,,,,,,,,,,,,
63d15e1be853005ff591b935,TCR,2024-06-24_17h32.57.276,LearnStrategy,2023.2.3,Win32,59.88023952,3,1,15,0.062962963,0.011111111,1,0,0,1.0291,rock_grid_rect_2,1,01,-1,-1,1.029,-0.338888889,-0.259259259,1,0,0,13.5087,Andesite_rect,1,13.509,1,14,0,14,0,1,,,,,,,,,,,,,
63d15e1be853005ff591b935,TCR,2024-06-24_17h32.57.276,LearnStrategy,2023.2.3,Win32,59.88023952,3,1,16,0.021296296,-0.005555556,1,0,0,1.098,rock_grid_rect_2,4,15,-1,-1,1.098,0.111111111,-0.250925926,1,0,0,6.2285,Diorite_rect,3,6.229,0,15,0,15,0,1,,,,,,,,,,,,,
63d15e1be853005ff591b935,TCR,2024-06-24_17h32.57.276,LearnStrategy,2023.2.3,Win32,59.88023952,3,2,1,,,,,,,,3,10,,,,,,,,,,,3,7.386,1,,,,,,0.149074074,-0.25462963,1,0,0,7.3862,Diorite_rect,0,0,0,0,1,
63d15e1be853005ff591b935,TCR,2024-06-24_17h32.57.276,LearnStrategy,2023.2.3,Win32,59.88023952,3,2,2,,,,,,,,8,08,,,,,,,,,,,8,2.147,1,,,,,,0.37962963,-0.407407407,1,0,0,2.1467,Pumice_rect,1,0,1,0,1,
63d15e1be853005ff591b935,TCR,2024-06-24_17h32.57.276,LearnStrategy,2023.2.3,Win32,59.88023952,3,2,3,,,,,,,,2,05,,,,,,,,,,,2,1.978,1,,,,,,-0.141666667,-0.264814815,1,0,0,1.9777,Basalt_rect,2,0,2,0,1,
63d15e1be853005ff591b935,TCR,2024-06-24_17h32.57.276,LearnStrategy,2023.2.3,Win32,59.88023952,3,2,4,,,,,,,,4,01,,,,,,,,,,,4,3.879,1,,,,,,0.360185185,-0.250925926,1,0,0,3.8793,Gabbro_rect,3,0,3,0,1,
63d15e1be853005ff591b935,TCR,2024-06-24_17h32.57.276,LearnStrategy,2023.2.3,Win32,59.88023952,3,2,5,,,,,,,,7,15,,,,,,,,,,,7,20.29,1,,,,,,0.142592593,-0.407407407,1,0,0,20.2904,Peridotite_rect,4,0,4,0,1,
63d15e1be853005ff591b935,TCR,2024-06-24_17h32.57.276,LearnStrategy,2023.2.3,Win32,59.88023952,3,2,6,,,,,,,,6,05,,,,,,,,,,,3,16.235,0,,,,,,0.159259259,-0.258333333,1,0,0,16.2352,Diorite_rect,5,0,5,0,1,
63d15e1be853005ff591b935,TCR,2024-06-24_17h32.57.276,LearnStrategy,2023.2.3,Win32,59.88023952,3,2,7,,,,,,,,4,14,,,,,,,,,,,4,12.982,1,,,,,,0.403703704,-0.232407407,1,0,0,12.9823,Gabbro_rect,6,0,6,0,1,
63d15e1be853005ff591b935,TCR,2024-06-24_17h32.57.276,LearnStrategy,2023.2.3,Win32,59.88023952,3,2,8,,,,,,,,2,16,,,,,,,,,,,2,1.34,1,,,,,,-0.089814815,-0.265740741,1,0,0,1.3399,Basalt_rect,7,0,7,0,1,
63d15e1be853005ff591b935,TCR,2024-06-24_17h32.57.276,LearnStrategy,2023.2.3,Win32,59.88023952,3,2,9,,,,,,,,1,09,,,,,,,,,,,4,9.384,0,,,,,,0.396296296,-0.230555556,1,0,0,9.384,Gabbro_rect,8,0,8,0,1,
63d15e1be853005ff591b935,TCR,2024-06-24_17h32.57.276,LearnStrategy,2023.2.3,Win32,59.88023952,3,2,10,,,,,,,,1,02,,,,,,,,,,,3,13.637,0,,,,,,0.146296296,-0.25462963,1,0,0,13.6371,Diorite_rect,9,0,9,0,1,
63d15e1be853005ff591b935,TCR,2024-06-24_17h32.57.276,LearnStrategy,2023.2.3,Win32,59.88023952,3,2,11,,,,,,,,8,16,,,,,,,,,,,8,1.361,1,,,,,,0.337962963,-0.402777778,1,0,0,1.3614,Pumice_rect,10,0,10,0,1,
63d15e1be853005ff591b935,TCR,2024-06-24_17h32.57.276,LearnStrategy,2023.2.3,Win32,59.88023952,3,2,12,,,,,,,,5,02,,,,,,,,,,,5,1.163,1,,,,,,-0.410185185,-0.40462963,1,0,0,1.1632,Obsidian_rect,11,0,11,0,1,
63d15e1be853005ff591b935,TCR,2024-06-24_17h32.57.276,LearnStrategy,2023.2.3,Win32,59.88023952,3,2,13,,,,,,,,3,12,,,,,,,,,,,3,5.37,1,,,,,,0.14537037,-0.251851852,1,0,0,5.3704,Diorite_rect,12,0,12,0,1,
63d15e1be853005ff591b935,TCR,2024-06-24_17h32.57.276,LearnStrategy,2023.2.3,Win32,59.88023952,3,2,14,,,,,,,,6,13,,,,,,,,,,,7,17.827,0,,,,,,0.140740741,-0.399074074,1,0,0,17.8272,Peridotite_rect,13,0,13,0,1,
63d15e1be853005ff591b935,TCR,2024-06-24_17h32.57.276,LearnStrategy,2023.2.3,Win32,59.88023952,3,2,15,,,,,,,,7,04,,,,,,,,,,,7,7.816,1,,,,,,0.137037037,-0.389814815,1,0,0,7.8161,Peridotite_rect,14,0,14,0,1,
63d15e1be853005ff591b935,TCR,2024-06-24_17h32.57.276,LearnStrategy,2023.2.3,Win32,59.88023952,3,2,16,,,,,,,,5,08,,,,,,,,,,,5,1.109,1,,,,,,-0.380555556,-0.387037037,1,0,0,1.1085,Obsidian_rect,15,0,15,0,1,
63d15e1be853005ff591b935,TCR,2024-06-24_17h32.57.276,LearnStrategy,2023.2.3,Win32,59.88023952,4,1,1,-0.013888889,-0.000925926,1,0,0,2.2482,rock_grid_rect_2,4,15,-1,-1,2.248,-0.356481481,-0.260185185,1,0,0,11.061,Andesite_rect,1,11.061,0,0,0,0,0,1,,,,,,,,,,,,,
63d15e1be853005ff591b935,TCR,2024-06-24_17h32.57.276,LearnStrategy,2023.2.3,Win32,59.88023952,4,1,2,0.025925926,-0.000925926,1,0,0,1.0107,rock_grid_rect_2,1,06,-1,-1,1.011,-0.067592593,-0.409259259,1,0,0,5.5946,Pegmatite_rect,6,5.595,0,1,0,1,0,1,,,,,,,,,,,,,
63d15e1be853005ff591b935,TCR,2024-06-24_17h32.57.276,LearnStrategy,2023.2.3,Win32,59.88023952,4,1,3,0.072222222,-0.012962963,1,0,0,1.065,rock_grid_rect_2,7,12,-1,-1,1.065,0.15,-0.259259259,1,0,0,6.633,Diorite_rect,3,6.633,0,2,0,2,0,1,,,,,,,,,,,,,
63d15e1be853005ff591b935,TCR,2024-06-24_17h32.57.276,LearnStrategy,2023.2.3,Win32,59.88023952,4,1,4,0.028703704,-0.007407407,1,0,0,1.078,rock_grid_rect_2,6,15,-1,-1,1.078,0.14537037,-0.256481481,1,0,0,3.3081,Diorite_rect,3,3.308,0,3,0,3,0,1,,,,,,,,,,,,,
63d15e1be853005ff591b935,TCR,2024-06-24_17h32.57.276,LearnStrategy,2023.2.3,Win32,59.88023952,4,1,5,0.067592593,-0.008333333,1,0,0,0.9607,rock_grid_rect_2,7,14,-1,-1,0.961,0.365740741,-0.246296296,1,0,0,8.6972,Gabbro_rect,4,8.697,0,4,0,4,0,1,,,,,,,,,,,,,
63d15e1be853005ff591b935,TCR,2024-06-24_17h32.57.276,LearnStrategy,2023.2.3,Win32,59.88023952,4,1,6,0.090740741,-0.003703704,1,0,0,0.8781,rock_grid_rect_2,2,06,-1,-1,0.878,-0.090740741,-0.242592593,1,0,0,3.0504,Basalt_rect,2,3.05,1,5,0,5,0,1,,,,,,,,,,,,,
63d15e1be853005ff591b935,TCR,2024-06-24_17h32.57.276,LearnStrategy,2023.2.3,Win32,59.88023952,4,1,7,0.026851852,-0.000925926,1,0,0,0.8791,rock_grid_rect_2,1,01,-1,-1,0.879,-0.367592593,-0.271296296,1,0,0,1.5953,Andesite_rect,1,1.595,1,6,0,6,0,1,,,,,,,,,,,,,
63d15e1be853005ff591b935,TCR,2024-06-24_17h32.57.276,LearnStrategy,2023.2.3,Win32,59.88023952,4,1,8,-0.034259259,-0.017592593,1,0,0,0.8484,rock_grid_rect_2,4,05,-1,-1,0.848,0.146296296,-0.262962963,1,0,0,3.2048,Diorite_rect,3,3.205,0,7,0,7,0,1,,,,,,,,,,,,,
63d15e1be853005ff591b935,TCR,2024-06-24_17h32.57.276,LearnStrategy,2023.2.3,Win32,59.88023952,4,1,9,0.037037037,-0.010185185,1,0,0,1.1148,rock_grid_rect_2,1,03,-1,-1,1.115,0.144444444,-0.257407407,1,0,0,5.0745,Diorite_rect,3,5.074,0,8,0,8,0,1,,,,,,,,,,,,,
63d15e1be853005ff591b935,TCR,2024-06-24_17h32.57.276,LearnStrategy,2023.2.3,Win32,59.88023952,4,1,10,0.02962963,0.005555556,1,0,0,0.8655,rock_grid_rect_2,8,04,-1,-1,0.865,0.385185185,-0.396296296,1,0,0,1.0366,Pumice_rect,8,1.037,1,9,0,9,0,1,,,,,,,,,,,,,
63d15e1be853005ff591b935,TCR,2024-06-24_17h32.57.276,LearnStrategy,2023.2.3,Win32,59.88023952,4,1,11,-0.002777778,-0.008333333,1,0,0,0.9129,rock_grid_rect_2,6,09,-1,-1,0.913,0.180555556,-0.228703704,1,0,0,3.9879,Diorite_rect,3,3.988,0,10,0,10,0,1,,,,,,,,,,,,,
63d15e1be853005ff591b935,TCR,2024-06-24_17h32.57.276,LearnStrategy,2023.2.3,Win32,59.88023952,4,1,12,0.034259259,-0.016666667,1,0,0,0.8116,rock_grid_rect_2,7,06,-1,-1,0.812,-0.12037037,-0.412037037,1,0,0,1.6987,Pegmatite_rect,6,1.699,0,11,0,11,0,1,,,,,,,,,,,,,
63d15e1be853005ff591b935,TCR,2024-06-24_17h32.57.276,LearnStrategy,2023.2.3,Win32,59.88023952,4,1,13,0.041666667,-0.002777778,1,0,0,1.0133,rock_grid_rect_2,2,09,-1,-1,1.013,-0.125,-0.25462963,1,0,0,4.4808,Basalt_rect,2,4.481,1,12,0,12,0,1,,,,,,,,,,,,,
63d15e1be853005ff591b935,TCR,2024-06-24_17h32.57.276,LearnStrategy,2023.2.3,Win32,59.88023952,4,1,14,0.02037037,-0.012037037,1,0,0,0.8466,rock_grid_rect_2,6,16,-1,-1,0.847,0.171296296,-0.241666667,1,0,0,3.1336,Diorite_rect,3,3.134,0,13,0,13,0,1,,,,,,,,,,,,,
63d15e1be853005ff591b935,TCR,2024-06-24_17h32.57.276,LearnStrategy,2023.2.3,Win32,59.88023952,4,1,15,0.083333333,-0.012962963,1,0,0,0.7951,rock_grid_rect_2,1,04,-1,-1,0.795,-0.380555556,-0.242592593,1,0,0,3.5487,Andesite_rect,1,3.549,1,14,0,14,0,1,,,,,,,,,,,,,
63d15e1be853005ff591b935,TCR,2024-06-24_17h32.57.276,LearnStrategy,2023.2.3,Win32,59.88023952,4,1,16,-0.042592593,-0.014814815,1,0,0,0.9979,rock_grid_rect_2,3,15,-1,-1,0.998,0.412037037,-0.263888889,1,0,0,1.6632,Gabbro_rect,4,1.663,0,15,0,15,0,1,,,,,,,,,,,,,
63d15e1be853005ff591b935,TCR,2024-06-24_17h32.57.276,LearnStrategy,2023.2.3,Win32,59.88023952,4,2,1,,,,,,,,7,05,,,,,,,,,,,4,31.159,0,,,,,,0.462037037,-0.243518519,1,0,0,31.1589,Gabbro_rect,0,0,0,0,1,
63d15e1be853005ff591b935,TCR,2024-06-24_17h32.57.276,LearnStrategy,2023.2.3,Win32,59.88023952,4,2,2,,,,,,,,4,03,,,,,,,,,,,4,4.775,1,,,,,,0.40462963,-0.233333333,1,0,0,4.7752,Gabbro_rect,1,0,1,0,1,
63d15e1be853005ff591b935,TCR,2024-06-24_17h32.57.276,LearnStrategy,2023.2.3,Win32,59.88023952,4,2,3,,,,,,,,8,03,,,,,,,,,,,8,1.346,1,,,,,,0.361111111,-0.398148148,1,0,0,1.3461,Pumice_rect,2,0,2,0,1,
63d15e1be853005ff591b935,TCR,2024-06-24_17h32.57.276,LearnStrategy,2023.2.3,Win32,59.88023952,4,2,4,,,,,,,,1,07,,,,,,,,,,,3,26.088,0,,,,,,0.159259259,-0.25,1,0,0,26.0884,Diorite_rect,3,0,3,0,1,
63d15e1be853005ff591b935,TCR,2024-06-24_17h32.57.276,LearnStrategy,2023.2.3,Win32,59.88023952,4,2,5,,,,,,,,1,05,,,,,,,,,,,1,25.212,1,,,,,,-0.358333333,-0.228703704,1,0,0,25.2124,Andesite_rect,4,0,4,0,1,
63d15e1be853005ff591b935,TCR,2024-06-24_17h32.57.276,LearnStrategy,2023.2.3,Win32,59.88023952,4,2,6,,,,,,,,6,03,,,,,,,,,,,6,22.966,1,,,,,,-0.087962963,-0.398148148,1,0,0,22.9655,Pegmatite_rect,5,0,5,0,1,
63d15e1be853005ff591b935,TCR,2024-06-24_17h32.57.276,LearnStrategy,2023.2.3,Win32,59.88023952,4,2,7,,,,,,,,4,11,,,,,,,,,,,7,9.133,0,,,,,,0.156481481,-0.414814815,1,0,0,9.1334,Peridotite_rect,6,0,6,0,1,
63d15e1be853005ff591b935,TCR,2024-06-24_17h32.57.276,LearnStrategy,2023.2.3,Win32,59.88023952,4,2,8,,,,,,,,3,08,,,,,,,,,,,7,3.129,0,,,,,,0.131481481,-0.380555556,1,0,0,3.1289,Peridotite_rect,7,0,7,0,1,
63d15e1be853005ff591b935,TCR,2024-06-24_17h32.57.276,LearnStrategy,2023.2.3,Win32,59.88023952,4,2,9,,,,,,,,6,06,,,,,,,,,,,6,17.458,1,,,,,,-0.087962963,-0.392592593,1,0,0,17.4578,Pegmatite_rect,8,0,8,0,1,
63d15e1be853005ff591b935,TCR,2024-06-24_17h32.57.276,LearnStrategy,2023.2.3,Win32,59.88023952,4,2,10,,,,,,,,2,05,,,,,,,,,,,2,2.774,1,,,,,,-0.139814815,-0.250925926,1,0,0,2.7736,Basalt_rect,9,0,9,0,1,
63d15e1be853005ff591b935,TCR,2024-06-24_17h32.57.276,LearnStrategy,2023.2.3,Win32,59.88023952,4,2,11,,,,,,,,5,08,,,,,,,,,,,5,1.109,1,,,,,,-0.393518519,-0.391666667,1,0,0,1.1091,Obsidian_rect,10,0,10,0,1,
63d15e1be853005ff591b935,TCR,2024-06-24_17h32.57.276,LearnStrategy,2023.2.3,Win32,59.88023952,4,2,12,,,,,,,,7,10,,,,,,,,,,,4,2.027,0,,,,,,0.377777778,-0.258333333,1,0,0,2.0268,Gabbro_rect,11,0,11,0,1,
63d15e1be853005ff591b935,TCR,2024-06-24_17h32.57.276,LearnStrategy,2023.2.3,Win32,59.88023952,4,2,13,,,,,,,,2,02,,,,,,,,,,,2,1.148,1,,,,,,-0.153703704,-0.24537037,1,0,0,1.1478,Basalt_rect,12,0,12,0,1,
63d15e1be853005ff591b935,TCR,2024-06-24_17h32.57.276,LearnStrategy,2023.2.3,Win32,59.88023952,4,2,14,,,,,,,,5,11,,,,,,,,,,,5,1.291,1,,,,,,-0.431481481,-0.387037037,1,0,0,1.2912,Obsidian_rect,13,0,13,0,1,
63d15e1be853005ff591b935,TCR,2024-06-24_17h32.57.276,LearnStrategy,2023.2.3,Win32,59.88023952,4,2,15,,,,,,,,8,15,,,,,,,,,,,8,1.177,1,,,,,,0.451851852,-0.393518519,1,0,0,1.177,Pumice_rect,14,0,14,0,1,
63d15e1be853005ff591b935,TCR,2024-06-24_17h32.57.276,LearnStrategy,2023.2.3,Win32,59.88023952,4,2,16,,,,,,,,3,16,,,,,,,,,,,3,8.083,1,,,,,,0.166666667,-0.256481481,1,0,0,8.0831,Diorite_rect,15,0,15,0,1,
63d15e1be853005ff591b935,TCR,2024-06-24_17h32.57.276,LearnStrategy,2023.2.3,Win32,59.88023952,5,1,1,-0.035185185,0.009259259,1,0,0,1.4162,rock_grid_rect_2,3,15,-1,-1,1.416,0.162962963,-0.25,1,0,0,7.285,Diorite_rect,3,7.285,1,0,0,0,0,1,,,,,,,,,,,,,
63d15e1be853005ff591b935,TCR,2024-06-24_17h32.57.276,LearnStrategy,2023.2.3,Win32,59.88023952,5,1,2,0.118518519,-0.016666667,1,0,0,0.8642,rock_grid_rect_2,3,14,-1,-1,0.864,0.138888889,-0.244444444,1,0,0,13.164,Diorite_rect,3,13.164,1,1,0,1,0,1,,,,,,,,,,,,,
63d15e1be853005ff591b935,TCR,2024-06-24_17h32.57.276,LearnStrategy,2023.2.3,Win32,59.88023952,5,1,3,0.118518519,-0.012037037,1,0,0,0.7973,rock_grid_rect_2,8,04,-1,-1,0.797,0.375925926,-0.403703704,1,0,0,1.3231,Pumice_rect,8,1.323,1,2,0,2,0,1,,,,,,,,,,,,,
63d15e1be853005ff591b935,TCR,2024-06-24_17h32.57.276,LearnStrategy,2023.2.3,Win32,59.88023952,5,1,4,0.082407407,-0.017592593,1,0,0,1.0661,rock_grid_rect_2,5,12,-1,-1,1.066,-0.390740741,-0.385185185,1,0,0,1.0223,Obsidian_rect,5,1.022,1,3,0,3,0,1,,,,,,,,,,,,,
63d15e1be853005ff591b935,TCR,2024-06-24_17h32.57.276,LearnStrategy,2023.2.3,Win32,59.88023952,5,1,5,0.028703704,-0.002777778,1,0,0,0.8329,rock_grid_rect_2,6,15,-1,-1,0.833,-0.10462963,-0.380555556,1,0,0,7.1878,Pegmatite_rect,6,7.188,1,4,0,4,0,1,,,,,,,,,,,,,
63d15e1be853005ff591b935,TCR,2024-06-24_17h32.57.276,LearnStrategy,2023.2.3,Win32,59.88023952,5,1,6,0.02962963,-0.005555556,1,0,0,0.8318,rock_grid_rect_2,7,07,-1,-1,0.832,0.422222222,-0.252777778,1,0,0,1.7974,Gabbro_rect,4,1.797,0,5,0,5,0,1,,,,,,,,,,,,,
63d15e1be853005ff591b935,TCR,2024-06-24_17h32.57.276,LearnStrategy,2023.2.3,Win32,59.88023952,5,1,7,0.07037037,0.000925926,1,0,0,1.1928,rock_grid_rect_2,4,12,-1,-1,1.193,0.399074074,-0.258333333,1,0,0,11.9825,Gabbro_rect,4,11.983,1,6,0,6,0,1,,,,,,,,,,,,,
63d15e1be853005ff591b935,TCR,2024-06-24_17h32.57.276,LearnStrategy,2023.2.3,Win32,59.88023952,5,1,8,0.043518519,-0.011111111,1,0,0,0.9813,rock_grid_rect_2,1,04,-1,-1,0.981,-0.403703704,-0.248148148,1,0,0,3.5824,Andesite_rect,1,3.582,1,7,0,7,0,1,,,,,,,,,,,,,
63d15e1be853005ff591b935,TCR,2024-06-24_17h32.57.276,LearnStrategy,2023.2.3,Win32,59.88023952,5,1,9,0.052777778,0,1,0,0,0.9081,rock_grid_rect_2,1,10,-1,-1,0.908,-0.399074074,-0.250925926,1,0,0,2.3124,Andesite_rect,1,2.312,1,8,0,8,0,1,,,,,,,,,,,,,
63d15e1be853005ff591b935,TCR,2024-06-24_17h32.57.276,LearnStrategy,2023.2.3,Win32,59.88023952,5,1,10,-0.010185185,-0.017592593,1,0,0,0.7971,rock_grid_rect_2,6,09,-1,-1,0.797,0.177777778,-0.402777778,1,0,0,8.1149,Peridotite_rect,7,8.115,0,9,0,9,0,1,,,,,,,,,,,,,
63d15e1be853005ff591b935,TCR,2024-06-24_17h32.57.276,LearnStrategy,2023.2.3,Win32,59.88023952,5,1,11,0.053703704,0.007407407,1,0,0,0.854,rock_grid_rect_2,1,14,-1,-1,0.854,-0.377777778,-0.235185185,1,0,0,6.8898,Andesite_rect,1,6.89,1,10,0,10,0,1,,,,,,,,,,,,,
63d15e1be853005ff591b935,TCR,2024-06-24_17h32.57.276,LearnStrategy,2023.2.3,Win32,59.88023952,5,1,12,0.022222222,-0.005555556,1,0,0,0.9986,rock_grid_rect_2,4,10,-1,-1,0.999,0.376851852,-0.252777778,1,0,0,15.3083,Gabbro_rect,4,15.308,1,11,0,11,0,1,,,,,,,,,,,,,
63d15e1be853005ff591b935,TCR,2024-06-24_17h32.57.276,LearnStrategy,2023.2.3,Win32,59.88023952,5,1,13,0.05462963,-0.002777778,1,0,0,0.8478,rock_grid_rect_2,7,16,-1,-1,0.848,0.447222222,-0.259259259,1,0,0,7.6512,Gabbro_rect,4,7.651,0,12,0,12,0,1,,,,,,,,,,,,,
63d15e1be853005ff591b935,TCR,2024-06-24_17h32.57.276,LearnStrategy,2023.2.3,Win32,59.88023952,5,1,14,0.076851852,-0.012962963,1,0,0,1.0837,rock_grid_rect_2,7,07,-1,-1,1.084,0.397222222,-0.244444444,1,0,0,1.3617,Gabbro_rect,4,1.362,0,13,0,13,0,1,,,,,,,,,,,,,
63d15e1be853005ff591b935,TCR,2024-06-24_17h32.57.276,LearnStrategy,2023.2.3,Win32,59.88023952,5,1,15,0.115740741,-0.012037037,1,0,0,0.9164,rock_grid_rect_2,7,13,-1,-1,0.916,0.133333333,-0.416666667,1,0,0,16.0599,Peridotite_rect,7,16.06,1,14,0,14,0,1,,,,,,,,,,,,,
63d15e1be853005ff591b935,TCR,2024-06-24_17h32.57.276,LearnStrategy,2023.2.3,Win32,59.88023952,5,1,16,0.040740741,0.00462963,1,0,0,0.882,rock_grid_rect_2,2,11,-1,-1,0.882,0.399074074,-0.399074074,1,0,0,15.0914,Pumice_rect,8,15.091,0,15,0,15,0,1,,,,,,,,,,,,,
63d15e1be853005ff591b935,TCR,2024-06-24_17h32.57.276,LearnStrategy,2023.2.3,Win32,59.88023952,5,2,1,,,,,,,,8,13,,,,,,,,,,,8,2.012,1,,,,,,0.402777778,-0.413888889,1,0,0,2.0118,Pumice_rect,0,0,0,0,1,
63d15e1be853005ff591b935,TCR,2024-06-24_17h32.57.276,LearnStrategy,2023.2.3,Win32,59.88023952,5,2,2,,,,,,,,1,09,,,,,,,,,,,1,12.818,1,,,,,,-0.380555556,-0.252777778,1,0,0,12.8182,Andesite_rect,1,0,1,0,1,
63d15e1be853005ff591b935,TCR,2024-06-24_17h32.57.276,LearnStrategy,2023.2.3,Win32,59.88023952,5,2,3,,,,,,,,6,13,,,,,,,,,,,7,14.483,0,,,,,,0.087037037,-0.392592593,1,0,0,14.4826,Peridotite_rect,2,0,2,0,1,
63d15e1be853005ff591b935,TCR,2024-06-24_17h32.57.276,LearnStrategy,2023.2.3,Win32,59.88023952,5,2,4,,,,,,,,3,07,,,,,,,,,,,7,5.915,0,,,,,,0.083333333,-0.399074074,1,0,0,5.9149,Peridotite_rect,3,0,3,0,1,
63d15e1be853005ff591b935,TCR,2024-06-24_17h32.57.276,LearnStrategy,2023.2.3,Win32,59.88023952,5,2,5,,,,,,,,2,01,,,,,,,,,,,2,1.367,1,,,,,,-0.114814815,-0.256481481,1,0,0,1.3671,Basalt_rect,4,0,4,0,1,
63d15e1be853005ff591b935,TCR,2024-06-24_17h32.57.276,LearnStrategy,2023.2.3,Win32,59.88023952,5,2,6,,,,,,,,1,16,,,,,,,,,,,1,5.58,1,,,,,,-0.385185185,-0.248148148,1,0,0,5.5796,Andesite_rect,5,0,5,0,1,
63d15e1be853005ff591b935,TCR,2024-06-24_17h32.57.276,LearnStrategy,2023.2.3,Win32,59.88023952,5,2,7,,,,,,,,8,16,,,,,,,,,,,8,1.011,1,,,,,,0.405555556,-0.414814815,1,0,0,1.0106,Pumice_rect,6,0,6,0,1,
63d15e1be853005ff591b935,TCR,2024-06-24_17h32.57.276,LearnStrategy,2023.2.3,Win32,59.88023952,5,2,8,,,,,,,,4,09,,,,,,,,,,,4,2.679,1,,,,,,0.387037037,-0.263888889,1,0,0,2.6793,Gabbro_rect,7,0,7,0,1,
63d15e1be853005ff591b935,TCR,2024-06-24_17h32.57.276,LearnStrategy,2023.2.3,Win32,59.88023952,5,2,9,,,,,,,,5,16,,,,,,,,,,,5,1.11,1,,,,,,-0.376851852,-0.39537037,1,0,0,1.1095,Obsidian_rect,8,0,8,0,1,
63d15e1be853005ff591b935,TCR,2024-06-24_17h32.57.276,LearnStrategy,2023.2.3,Win32,59.88023952,5,2,10,,,,,,,,5,02,,,,,,,,,,,5,0.921,1,,,,,,-0.368518519,-0.380555556,1,0,0,0.9212,Obsidian_rect,9,0,9,0,1,
63d15e1be853005ff591b935,TCR,2024-06-24_17h32.57.276,LearnStrategy,2023.2.3,Win32,59.88023952,5,2,11,,,,,,,,7,15,,,,,,,,,,,7,7.701,1,,,,,,0.114814815,-0.403703704,1,0,0,7.7006,Peridotite_rect,10,0,10,0,1,
63d15e1be853005ff591b935,TCR,2024-06-24_17h32.57.276,LearnStrategy,2023.2.3,Win32,59.88023952,5,2,12,,,,,,,,3,12,,,,,,,,,,,3,12.47,1,,,,,,0.125,-0.25,1,0,0,12.4699,Diorite_rect,11,0,11,0,1,
63d15e1be853005ff591b935,TCR,2024-06-24_17h32.57.276,LearnStrategy,2023.2.3,Win32,59.88023952,5,2,13,,,,,,,,7,04,,,,,,,,,,,7,15.374,1,,,,,,0.180555556,-0.39537037,1,0,0,15.3739,Peridotite_rect,12,0,12,0,1,
63d15e1be853005ff591b935,TCR,2024-06-24_17h32.57.276,LearnStrategy,2023.2.3,Win32,59.88023952,5,2,14,,,,,,,,6,12,,,,,,,,,,,6,26.869,1,,,,,,-0.127777778,-0.413888889,1,0,0,26.8694,Pegmatite_rect,13,0,13,0,1,
63d15e1be853005ff591b935,TCR,2024-06-24_17h32.57.276,LearnStrategy,2023.2.3,Win32,59.88023952,5,2,15,,,,,,,,2,12,,,,,,,,,,,2,3.73,1,,,,,,-0.113888889,-0.253703704,1,0,0,3.7301,Basalt_rect,14,0,14,0,1,
63d15e1be853005ff591b935,TCR,2024-06-24_17h32.57.276,LearnStrategy,2023.2.3,Win32,59.88023952,5,2,16,,,,,,,,4,13,,,,,,,,,,,3,4.364,0,,,,,,0.151851852,-0.265740741,1,0,0,4.3641,Diorite_rect,15,0,15,0,1,
63d15e1be853005ff591b935,TCR,2024-06-24_17h32.57.276,LearnStrategy,2023.2.3,Win32,59.88023952,6,1,1,0.077777778,-0.009259259,1,0,0,1.3153,rock_grid_rect_2,1,06,-1,-1,1.315,-0.383333333,-0.239814815,1,0,0,1.3117,Andesite_rect,1,1.312,1,0,0,0,0,1,,,,,,,,,,,,,
63d15e1be853005ff591b935,TCR,2024-06-24_17h32.57.276,LearnStrategy,2023.2.3,Win32,59.88023952,6,1,2,0.035185185,-0.017592593,1,0,0,0.8976,rock_grid_rect_2,3,11,-1,-1,0.898,0.181481481,-0.263888889,1,0,0,7.1794,Diorite_rect,3,7.179,1,1,0,1,0,1,,,,,,,,,,,,,
63d15e1be853005ff591b935,TCR,2024-06-24_17h32.57.276,LearnStrategy,2023.2.3,Win32,59.88023952,6,1,3,0.108333333,0.003703704,1,0,0,0.8156,rock_grid_rect_2,7,12,-1,-1,0.816,0.135185185,-0.408333333,1,0,0,24.2848,Peridotite_rect,7,24.285,1,2,0,2,0,1,,,,,,,,,,,,,
63d15e1be853005ff591b935,TCR,2024-06-24_17h32.57.276,LearnStrategy,2023.2.3,Win32,59.88023952,6,1,4,0.133333333,-0.008333333,1,0,0,0.7649,rock_grid_rect_2,3,13,-1,-1,0.765,0.122222222,-0.397222222,1,0,0,10.5538,Peridotite_rect,7,10.554,0,3,0,3,0,1,,,,,,,,,,,,,
63d15e1be853005ff591b935,TCR,2024-06-24_17h32.57.276,LearnStrategy,2023.2.3,Win32,59.88023952,6,1,5,0.026851852,-0.011111111,1,0,0,0.9318,rock_grid_rect_2,6,11,-1,-1,0.932,-0.109259259,-0.407407407,1,0,0,11.3165,Pegmatite_rect,6,11.316,1,4,0,4,0,1,,,,,,,,,,,,,
63d15e1be853005ff591b935,TCR,2024-06-24_17h32.57.276,LearnStrategy,2023.2.3,Win32,59.88023952,6,1,6,0.060185185,0.002777778,1,0,0,0.8143,rock_grid_rect_2,8,02,-1,-1,0.814,0.39537037,-0.392592593,1,0,0,1.5113,Pumice_rect,8,1.511,1,5,0,5,0,1,,,,,,,,,,,,,
63d15e1be853005ff591b935,TCR,2024-06-24_17h32.57.276,LearnStrategy,2023.2.3,Win32,59.88023952,6,1,7,0.05,-0.009259259,1,0,0,0.7828,rock_grid_rect_2,4,16,-1,-1,0.783,-0.151851852,-0.249074074,1,0,0,1.0886,Basalt_rect,2,1.089,0,6,0,6,0,1,,,,,,,,,,,,,
63d15e1be853005ff591b935,TCR,2024-06-24_17h32.57.276,LearnStrategy,2023.2.3,Win32,59.88023952,6,1,8,-0.001851852,-0.007407407,1,0,0,0.8655,rock_grid_rect_2,3,02,-1,-1,0.865,0.137962963,-0.243518519,1,0,0,14.8865,Diorite_rect,3,14.886,1,7,0,7,0,1,,,,,,,,,,,,,
63d15e1be853005ff591b935,TCR,2024-06-24_17h32.57.276,LearnStrategy,2023.2.3,Win32,59.88023952,6,1,9,0.101851852,-0.00462963,1,0,0,0.948,rock_grid_rect_2,2,11,-1,-1,0.948,-0.139814815,-0.233333333,1,0,0,3.1794,Basalt_rect,2,3.179,1,8,0,8,0,1,,,,,,,,,,,,,
63d15e1be853005ff591b935,TCR,2024-06-24_17h32.57.276,LearnStrategy,2023.2.3,Win32,59.88023952,6,1,10,0.077777778,-0.009259259,1,0,0,0.849,rock_grid_rect_2,7,14,-1,-1,0.849,0.116666667,-0.407407407,1,0,0,7.6499,Peridotite_rect,7,7.65,1,9,0,9,0,1,,,,,,,,,,,,,
63d15e1be853005ff591b935,TCR,2024-06-24_17h32.57.276,LearnStrategy,2023.2.3,Win32,59.88023952,6,1,11,0.030555556,0.006481481,1,0,0,0.7656,rock_grid_rect_2,1,01,-1,-1,0.766,-0.336111111,-0.258333333,1,0,0,9.1514,Andesite_rect,1,9.151,1,10,0,10,0,1,,,,,,,,,,,,,
63d15e1be853005ff591b935,TCR,2024-06-24_17h32.57.276,LearnStrategy,2023.2.3,Win32,59.88023952,6,1,12,0.012962963,-0.008333333,1,0,0,0.8792,rock_grid_rect_2,4,10,-1,-1,0.879,0.407407407,-0.242592593,1,0,0,2.0739,Gabbro_rect,4,2.074,1,11,0,11,0,1,,,,,,,,,,,,,
63d15e1be853005ff591b935,TCR,2024-06-24_17h32.57.276,LearnStrategy,2023.2.3,Win32,59.88023952,6,1,13,0.067592593,0.000925926,1,0,0,0.7622,rock_grid_rect_2,4,12,-1,-1,0.762,0.409259259,-0.268518519,1,0,0,16.4557,Gabbro_rect,4,16.456,1,12,0,12,0,1,,,,,,,,,,,,,
63d15e1be853005ff591b935,TCR,2024-06-24_17h32.57.276,LearnStrategy,2023.2.3,Win32,59.88023952,6,1,14,0.019444444,-0.008333333,1,0,0,1.0651,rock_grid_rect_2,7,13,-1,-1,1.065,0.134259259,-0.418518519,1,0,0,7.7849,Peridotite_rect,7,7.785,1,13,0,13,0,1,,,,,,,,,,,,,
63d15e1be853005ff591b935,TCR,2024-06-24_17h32.57.276,LearnStrategy,2023.2.3,Win32,59.88023952,6,1,15,0.081481481,0.001851852,1,0,0,0.9643,rock_grid_rect_2,6,07,-1,-1,0.964,-0.111111111,-0.419444444,1,0,0,4.7242,Pegmatite_rect,6,4.724,1,14,0,14,0,1,,,,,,,,,,,,,
63d15e1be853005ff591b935,TCR,2024-06-24_17h32.57.276,LearnStrategy,2023.2.3,Win32,59.88023952,6,1,16,0.067592593,-0.007407407,1,0,0,0.9985,rock_grid_rect_2,6,08,-1,-1,0.999,-0.092592593,-0.412962963,1,0,0,15.9294,Pegmatite_rect,6,15.929,1,15,0,15,0,1,,,,,,,,,,,,,
63d15e1be853005ff591b935,TCR,2024-06-24_17h32.57.276,LearnStrategy,2023.2.3,Win32,59.88023952,6,2,1,,,,,,,,4,14,,,,,,,,,,,3,30.023,0,,,,,,0.107407407,-0.265740741,1,0,0,30.0226,Diorite_rect,0,0,0,0,1,
63d15e1be853005ff591b935,TCR,2024-06-24_17h32.57.276,LearnStrategy,2023.2.3,Win32,59.88023952,6,2,2,,,,,,,,4,01,,,,,,,,,,,4,20.186,1,,,,,,0.394444444,-0.255555556,1,0,0,20.1857,Gabbro_rect,1,0,1,0,1,
63d15e1be853005ff591b935,TCR,2024-06-24_17h32.57.276,LearnStrategy,2023.2.3,Win32,59.88023952,6,2,3,,,,,,,,8,08,,,,,,,,,,,8,6.13,1,,,,,,0.367592593,-0.412962963,1,0,0,6.1295,Pumice_rect,2,0,2,0,1,
63d15e1be853005ff591b935,TCR,2024-06-24_17h32.57.276,LearnStrategy,2023.2.3,Win32,59.88023952,6,2,4,,,,,,,,2,16,,,,,,,,,,,2,3.046,1,,,,,,-0.125925926,-0.248148148,1,0,0,3.0462,Basalt_rect,3,0,3,0,1,
63d15e1be853005ff591b935,TCR,2024-06-24_17h32.57.276,LearnStrategy,2023.2.3,Win32,59.88023952,6,2,5,,,,,,,,1,02,,,,,,,,,,,1,11.432,1,,,,,,-0.412037037,-0.234259259,1,0,0,11.4321,Andesite_rect,4,0,4,0,1,
63d15e1be853005ff591b935,TCR,2024-06-24_17h32.57.276,LearnStrategy,2023.2.3,Win32,59.88023952,6,2,6,,,,,,,,1,11,,,,,,,,,,,1,2.028,1,,,,,,-0.37962963,-0.237962963,1,0,0,2.0275,Andesite_rect,5,0,5,0,1,
63d15e1be853005ff591b935,TCR,2024-06-24_17h32.57.276,LearnStrategy,2023.2.3,Win32,59.88023952,6,2,7,,,,,,,,3,06,,,,,,,,,,,3,14.153,1,,,,,,0.124074074,-0.253703704,1,0,0,14.1529,Diorite_rect,6,0,6,0,1,
63d15e1be853005ff591b935,TCR,2024-06-24_17h32.57.276,LearnStrategy,2023.2.3,Win32,59.88023952,6,2,8,,,,,,,,7,02,,,,,,,,,,,7,6.698,1,,,,,,0.12962963,-0.399074074,1,0,0,6.6975,Peridotite_rect,7,0,7,0,1,
63d15e1be853005ff591b935,TCR,2024-06-24_17h32.57.276,LearnStrategy,2023.2.3,Win32,59.88023952,6,2,9,,,,,,,,2,10,,,,,,,,,,,2,2.761,1,,,,,,-0.114814815,-0.25462963,1,0,0,2.7609,Basalt_rect,8,0,8,0,1,
63d15e1be853005ff591b935,TCR,2024-06-24_17h32.57.276,LearnStrategy,2023.2.3,Win32,59.88023952,6,2,10,,,,,,,,5,10,,,,,,,,,,,5,1.227,1,,,,,,-0.34537037,-0.400925926,1,0,0,1.2268,Obsidian_rect,9,0,9,0,1,
63d15e1be853005ff591b935,TCR,2024-06-24_17h32.57.276,LearnStrategy,2023.2.3,Win32,59.88023952,6,2,11,,,,,,,,6,10,,,,,,,,,,,6,21.017,1,,,,,,-0.110185185,-0.403703704,1,0,0,21.0173,Pegmatite_rect,10,0,10,0,1,
63d15e1be853005ff591b935,TCR,2024-06-24_17h32.57.276,LearnStrategy,2023.2.3,Win32,59.88023952,6,2,12,,,,,,,,5,14,,,,,,,,,,,5,1.31,1,,,,,,-0.375925926,-0.403703704,1,0,0,1.31,Obsidian_rect,11,0,11,0,1,
63d15e1be853005ff591b935,TCR,2024-06-24_17h32.57.276,LearnStrategy,2023.2.3,Win32,59.88023952,6,2,13,,,,,,,,3,10,,,,,,,,,,,3,7.217,1,,,,,,0.118518519,-0.259259259,1,0,0,7.2167,Diorite_rect,12,0,12,0,1,
63d15e1be853005ff591b935,TCR,2024-06-24_17h32.57.276,LearnStrategy,2023.2.3,Win32,59.88023952,6,2,14,,,,,,,,8,10,,,,,,,,,,,8,1.691,1,,,,,,0.35,-0.387962963,1,0,0,1.6907,Pumice_rect,13,0,13,0,1,
63d15e1be853005ff591b935,TCR,2024-06-24_17h32.57.276,LearnStrategy,2023.2.3,Win32,59.88023952,6,2,15,,,,,,,,6,05,,,,,,,,,,,3,15.208,0,,,,,,0.147222222,-0.261111111,1,0,0,15.2082,Diorite_rect,14,0,14,0,1,
63d15e1be853005ff591b935,TCR,2024-06-24_17h32.57.276,LearnStrategy,2023.2.3,Win32,59.88023952,6,2,16,,,,,,,,7,08,,,,,,,,,,,4,2.223,0,,,,,,0.383333333,-0.261111111,1,0,0,2.2234,Gabbro_rect,15,0,15,0,1,
63d15e1be853005ff591b935,TCR,2024-06-24_17h32.57.276,LearnStrategy,2023.2.3,Win32,59.88023952,7,1,1,0.035185185,0.003703704,1,0,0,1.4807,rock_grid_rect_2,1,10,-1,-1,1.481,-0.377777778,-0.243518519,1,0,0,3.7288,Andesite_rect,1,3.729,1,0,0,0,0,1,,,,,,,,,,,,,
63d15e1be853005ff591b935,TCR,2024-06-24_17h32.57.276,LearnStrategy,2023.2.3,Win32,59.88023952,7,1,2,-0.069444444,0.005555556,1,0,0,0.8322,rock_grid_rect_2,3,15,-1,-1,0.832,0.424074074,-0.258333333,1,0,0,2.6552,Gabbro_rect,4,2.655,0,1,0,1,0,1,,,,,,,,,,,,,
63d15e1be853005ff591b935,TCR,2024-06-24_17h32.57.276,LearnStrategy,2023.2.3,Win32,59.88023952,7,1,3,0.00462963,0.005555556,1,0,0,0.9627,rock_grid_rect_2,1,06,-1,-1,0.963,-0.350925926,-0.242592593,1,0,0,1.0608,Andesite_rect,1,1.061,1,2,0,2,0,1,,,,,,,,,,,,,
63d15e1be853005ff591b935,TCR,2024-06-24_17h32.57.276,LearnStrategy,2023.2.3,Win32,59.88023952,7,1,4,0.003703704,-0.013888889,1,0,0,0.8482,rock_grid_rect_2,7,14,-1,-1,0.848,0.110185185,-0.396296296,1,0,0,31.926,Peridotite_rect,7,31.926,1,3,0,3,0,1,,,,,,,,,,,,,
63d15e1be853005ff591b935,TCR,2024-06-24_17h32.57.276,LearnStrategy,2023.2.3,Win32,59.88023952,7,1,5,0.047222222,-0.006481481,1,0,0,0.7794,rock_grid_rect_2,8,04,-1,-1,0.779,0.387962963,-0.39537037,1,0,0,1.1116,Pumice_rect,8,1.112,1,4,0,4,0,1,,,,,,,,,,,,,
63d15e1be853005ff591b935,TCR,2024-06-24_17h32.57.276,LearnStrategy,2023.2.3,Win32,59.88023952,7,1,6,0.013888889,-0.011111111,1,0,0,0.983,rock_grid_rect_2,7,13,-1,-1,0.983,0.093518519,-0.418518519,1,0,0,10.7908,Peridotite_rect,7,10.791,1,5,0,5,0,1,,,,,,,,,,,,,
63d15e1be853005ff591b935,TCR,2024-06-24_17h32.57.276,LearnStrategy,2023.2.3,Win32,59.88023952,7,1,7,0.099074074,0.00462963,1,0,0,0.8655,rock_grid_rect_2,3,11,-1,-1,0.866,0.140740741,-0.234259259,1,0,0,6.9822,Diorite_rect,3,6.982,1,6,0,6,0,1,,,,,,,,,,,,,
63d15e1be853005ff591b935,TCR,2024-06-24_17h32.57.276,LearnStrategy,2023.2.3,Win32,59.88023952,7,1,8,0.072222222,-0.005555556,1,0,0,0.7444,rock_grid_rect_2,6,15,-1,-1,0.744,-0.114814815,-0.398148148,1,0,0,3.1472,Pegmatite_rect,6,3.147,1,7,0,7,0,1,,,,,,,,,,,,,
63d15e1be853005ff591b935,TCR,2024-06-24_17h32.57.276,LearnStrategy,2023.2.3,Win32,59.88023952,7,1,9,0.051851852,-0.011111111,1,0,0,0.7823,rock_grid_rect_2,4,05,-1,-1,0.782,0.376851852,-0.24537037,1,0,0,5.2651,Gabbro_rect,4,5.265,1,8,0,8,0,1,,,,,,,,,,,,,
63d15e1be853005ff591b935,TCR,2024-06-24_17h32.57.276,LearnStrategy,2023.2.3,Win32,59.88023952,7,1,10,0.063888889,-0.009259259,1,0,0,0.9446,rock_grid_rect_2,4,12,-1,-1,0.945,0.435185185,-0.264814815,1,0,0,7.1014,Gabbro_rect,4,7.101,1,9,0,9,0,1,,,,,,,,,,,,,
63d15e1be853005ff591b935,TCR,2024-06-24_17h32.57.276,LearnStrategy,2023.2.3,Win32,59.88023952,7,1,11,0.034259259,-0.021296296,1,0,0,0.9113,rock_grid_rect_2,4,16,-1,-1,0.911,-0.134259259,-0.256481481,1,0,0,1.2713,Basalt_rect,2,1.271,0,10,0,10,0,1,,,,,,,,,,,,,
63d15e1be853005ff591b935,TCR,2024-06-24_17h32.57.276,LearnStrategy,2023.2.3,Win32,59.88023952,7,1,12,-0.015740741,-0.017592593,1,0,0,0.8798,rock_grid_rect_2,7,07,-1,-1,0.88,0.134259259,-0.402777778,1,0,0,9.3588,Peridotite_rect,7,9.359,1,11,0,11,0,1,,,,,,,,,,,,,
63d15e1be853005ff591b935,TCR,2024-06-24_17h32.57.276,LearnStrategy,2023.2.3,Win32,59.88023952,7,1,13,0.028703704,0.002777778,1,0,0,0.882,rock_grid_rect_2,6,07,-1,-1,0.882,-0.136111111,-0.417592593,1,0,0,5.4157,Pegmatite_rect,6,5.416,1,12,0,12,0,1,,,,,,,,,,,,,
63d15e1be853005ff591b935,TCR,2024-06-24_17h32.57.276,LearnStrategy,2023.2.3,Win32,59.88023952,7,1,14,0.012037037,-0.005555556,1,0,0,0.9479,rock_grid_rect_2,5,05,-1,-1,0.948,-0.35462963,-0.380555556,1,0,0,2.0417,Obsidian_rect,5,2.042,1,13,0,13,0,1,,,,,,,,,,,,,
63d15e1be853005ff591b935,TCR,2024-06-24_17h32.57.276,LearnStrategy,2023.2.3,Win32,59.88023952,7,1,15,0.027777778,0,1,0,0,0.85,rock_grid_rect_2,2,06,-1,-1,0.85,-0.168518519,-0.247222222,1,0,0,1.7214,Basalt_rect,2,1.721,1,14,0,14,0,1,,,,,,,,,,,,,
63d15e1be853005ff591b935,TCR,2024-06-24_17h32.57.276,LearnStrategy,2023.2.3,Win32,59.88023952,7,1,16,0.058333333,-0.001851852,1,0,0,0.7658,rock_grid_rect_2,6,16,-1,-1,0.766,-0.064814815,-0.410185185,1,0,0,29.3491,Pegmatite_rect,6,29.349,1,15,0,15,0,1,,,,,,,,,,,,,
63d15e1be853005ff591b935,TCR,2024-06-24_17h32.57.276,LearnStrategy,2023.2.3,Win32,59.88023952,7,2,1,,,,,,,,2,16,,,,,,,,,,,2,8.7,1,,,,,,-0.102777778,-0.243518519,1,0,0,8.6997,Basalt_rect,0,0,0,0,1,
63d15e1be853005ff591b935,TCR,2024-06-24_17h32.57.276,LearnStrategy,2023.2.3,Win32,59.88023952,7,2,2,,,,,,,,3,07,,,,,,,,,,,3,7.115,1,,,,,,0.149074074,-0.268518519,1,0,0,7.1146,Diorite_rect,1,0,1,0,1,
63d15e1be853005ff591b935,TCR,2024-06-24_17h32.57.276,LearnStrategy,2023.2.3,Win32,59.88023952,7,2,3,,,,,,,,4,03,,,,,,,,,,,4,5.481,1,,,,,,0.461111111,-0.244444444,1,0,0,5.4812,Gabbro_rect,2,0,2,0,1,
63d15e1be853005ff591b935,TCR,2024-06-24_17h32.57.276,LearnStrategy,2023.2.3,Win32,59.88023952,7,2,4,,,,,,,,8,15,,,,,,,,,,,8,1.261,1,,,,,,0.414814815,-0.398148148,1,0,0,1.2606,Pumice_rect,3,0,3,0,1,
63d15e1be853005ff591b935,TCR,2024-06-24_17h32.57.276,LearnStrategy,2023.2.3,Win32,59.88023952,7,2,5,,,,,,,,7,04,,,,,,,,,,,7,35.711,1,,,,,,0.116666667,-0.406481481,1,0,0,35.7111,Peridotite_rect,4,0,4,0,1,
63d15e1be853005ff591b935,TCR,2024-06-24_17h32.57.276,LearnStrategy,2023.2.3,Win32,59.88023952,7,2,6,,,,,,,,8,08,,,,,,,,,,,8,0.972,1,,,,,,0.348148148,-0.403703704,1,0,0,0.9715,Pumice_rect,5,0,5,0,1,
63d15e1be853005ff591b935,TCR,2024-06-24_17h32.57.276,LearnStrategy,2023.2.3,Win32,59.88023952,7,2,7,,,,,,,,6,13,,,,,,,,,,,6,17.272,1,,,,,,-0.122222222,-0.417592593,1,0,0,17.2721,Pegmatite_rect,6,0,6,0,1,
63d15e1be853005ff591b935,TCR,2024-06-24_17h32.57.276,LearnStrategy,2023.2.3,Win32,59.88023952,7,2,8,,,,,,,,5,10,,,,,,,,,,,5,1.049,1,,,,,,-0.347222222,-0.398148148,1,0,0,1.0486,Obsidian_rect,7,0,7,0,1,
63d15e1be853005ff591b935,TCR,2024-06-24_17h32.57.276,LearnStrategy,2023.2.3,Win32,59.88023952,7,2,9,,,,,,,,6,03,,,,,,,,,,,6,5.131,1,,,,,,-0.062962963,-0.409259259,1,0,0,5.1305,Pegmatite_rect,8,0,8,0,1,
63d15e1be853005ff591b935,TCR,2024-06-24_17h32.57.276,LearnStrategy,2023.2.3,Win32,59.88023952,7,2,10,,,,,,,,7,10,,,,,,,,,,,4,1.205,0,,,,,,0.387037037,-0.228703704,1,0,0,1.2054,Gabbro_rect,9,0,9,0,1,
63d15e1be853005ff591b935,TCR,2024-06-24_17h32.57.276,LearnStrategy,2023.2.3,Win32,59.88023952,7,2,11,,,,,,,,3,08,,,,,,,,,,,3,1.111,1,,,,,,0.167592593,-0.258333333,1,0,0,1.1107,Diorite_rect,10,0,10,0,1,
63d15e1be853005ff591b935,TCR,2024-06-24_17h32.57.276,LearnStrategy,2023.2.3,Win32,59.88023952,7,2,12,,,,,,,,1,07,,,,,,,,,,,1,1.145,1,,,,,,-0.384259259,-0.246296296,1,0,0,1.1451,Andesite_rect,11,0,11,0,1,
63d15e1be853005ff591b935,TCR,2024-06-24_17h32.57.276,LearnStrategy,2023.2.3,Win32,59.88023952,7,2,13,,,,,,,,1,09,,,,,,,,,,,1,1.161,1,,,,,,-0.355555556,-0.269444444,1,0,0,1.1609,Andesite_rect,12,0,12,0,1,
63d15e1be853005ff591b935,TCR,2024-06-24_17h32.57.276,LearnStrategy,2023.2.3,Win32,59.88023952,7,2,14,,,,,,,,2,05,,,,,,,,,,,2,1.078,1,,,,,,-0.110185185,-0.248148148,1,0,0,1.0777,Basalt_rect,13,0,13,0,1,
63d15e1be853005ff591b935,TCR,2024-06-24_17h32.57.276,LearnStrategy,2023.2.3,Win32,59.88023952,7,2,15,,,,,,,,4,14,,,,,,,,,,,4,2.321,1,,,,,,0.408333333,-0.265740741,1,0,0,2.3214,Gabbro_rect,14,0,14,0,1,
63d15e1be853005ff591b935,TCR,2024-06-24_17h32.57.276,LearnStrategy,2023.2.3,Win32,59.88023952,7,2,16,,,,,,,,5,02,,,,,,,,,,,5,1.076,1,,,,,,-0.358333333,-0.381481481,1,0,0,1.0763,Obsidian_rect,15,0,15,0,1,
63d15e1be853005ff591b935,TCR,2024-06-24_17h32.57.276,LearnStrategy,2023.2.3,Win32,59.88023952,8,1,1,0.072222222,0.011111111,1,0,0,1.2832,rock_grid_rect_2,6,09,-1,-1,1.283,-0.101851852,-0.394444444,1,0,0,2.5572,Pegmatite_rect,6,2.557,1,0,0,0,0,1,,,,,,,,,,,,,
63d15e1be853005ff591b935,TCR,2024-06-24_17h32.57.276,LearnStrategy,2023.2.3,Win32,59.88023952,8,1,2,-0.012037037,-0.007407407,1,0,0,0.8991,rock_grid_rect_2,7,06,-1,-1,0.899,-0.141666667,-0.387037037,1,0,0,1.1406,Pegmatite_rect,6,1.141,0,1,0,1,0,1,,,,,,,,,,,,,
63d15e1be853005ff591b935,TCR,2024-06-24_17h32.57.276,LearnStrategy,2023.2.3,Win32,59.88023952,8,1,3,0,-0.012037037,1,0,0,0.7494,rock_grid_rect_2,7,14,-1,-1,0.749,-0.356481481,-0.250925926,1,0,0,3.9292,Andesite_rect,1,3.929,0,2,0,2,0,1,,,,,,,,,,,,,
63d15e1be853005ff591b935,TCR,2024-06-24_17h32.57.276,LearnStrategy,2023.2.3,Win32,59.88023952,8,1,4,0.031481481,-0.010185185,1,0,0,0.7474,rock_grid_rect_2,2,04,-1,-1,0.747,-0.142592593,-0.251851852,1,0,0,0.9481,Basalt_rect,2,0.948,1,3,0,3,0,1,,,,,,,,,,,,,
63d15e1be853005ff591b935,TCR,2024-06-24_17h32.57.276,LearnStrategy,2023.2.3,Win32,59.88023952,8,1,5,-0.02962963,-0.006481481,1,0,0,0.8158,rock_grid_rect_2,6,07,-1,-1,0.816,-0.084259259,-0.382407407,1,0,0,1.3911,Pegmatite_rect,6,1.391,1,4,0,4,0,1,,,,,,,,,,,,,
63d15e1be853005ff591b935,TCR,2024-06-24_17h32.57.276,LearnStrategy,2023.2.3,Win32,59.88023952,8,1,6,0.001851852,-0.012962963,1,0,0,0.6652,rock_grid_rect_2,5,04,-1,-1,0.665,-0.386111111,-0.383333333,1,0,0,1.2432,Obsidian_rect,5,1.243,1,5,0,5,0,1,,,,,,,,,,,,,
63d15e1be853005ff591b935,TCR,2024-06-24_17h32.57.276,LearnStrategy,2023.2.3,Win32,59.88023952,8,1,7,-0.009259259,-0.008333333,1,0,0,0.8476,rock_grid_rect_2,1,04,-1,-1,0.848,-0.366666667,-0.263888889,1,0,0,1.2569,Andesite_rect,1,1.257,1,6,0,6,0,1,,,,,,,,,,,,,
63d15e1be853005ff591b935,TCR,2024-06-24_17h32.57.276,LearnStrategy,2023.2.3,Win32,59.88023952,8,1,8,-0.09537037,-0.011111111,1,0,0,0.9312,rock_grid_rect_2,4,10,-1,-1,0.931,0.351851852,-0.266666667,1,0,0,1.2449,Gabbro_rect,4,1.245,1,7,0,7,0,1,,,,,,,,,,,,,
63d15e1be853005ff591b935,TCR,2024-06-24_17h32.57.276,LearnStrategy,2023.2.3,Win32,59.88023952,8,1,9,-0.013888889,-0.008333333,1,0,0,0.5962,rock_grid_rect_2,3,11,-1,-1,0.596,0.076851852,-0.255555556,1,0,0,4.1354,Diorite_rect,3,4.135,1,8,0,8,0,1,,,,,,,,,,,,,
63d15e1be853005ff591b935,TCR,2024-06-24_17h32.57.276,LearnStrategy,2023.2.3,Win32,59.88023952,8,1,10,0.055555556,-0.00462963,1,0,0,0.715,rock_grid_rect_2,3,02,-1,-1,0.715,0.115740741,-0.250925926,1,0,0,1.0445,Diorite_rect,3,1.044,1,9,0,9,0,1,,,,,,,,,,,,,
63d15e1be853005ff591b935,TCR,2024-06-24_17h32.57.276,LearnStrategy,2023.2.3,Win32,59.88023952,8,1,11,0.030555556,-0.016666667,1,0,0,0.7326,rock_grid_rect_2,7,13,-1,-1,0.733,0.121296296,-0.396296296,1,0,0,1.4741,Peridotite_rect,7,1.474,1,10,0,10,0,1,,,,,,,,,,,,,
63d15e1be853005ff591b935,TCR,2024-06-24_17h32.57.276,LearnStrategy,2023.2.3,Win32,59.88023952,8,1,12,0.07037037,0.013888889,1,0,0,0.6155,rock_grid_rect_2,8,09,-1,-1,0.615,0.382407407,-0.408333333,1,0,0,1.2077,Pumice_rect,8,1.208,1,11,0,11,0,1,,,,,,,,,,,,,
63d15e1be853005ff591b935,TCR,2024-06-24_17h32.57.276,LearnStrategy,2023.2.3,Win32,59.88023952,8,1,13,0.074074074,0.010185185,1,0,0,0.7994,rock_grid_rect_2,1,10,-1,-1,0.799,-0.382407407,-0.271296296,1,0,0,1.4248,Andesite_rect,1,1.425,1,12,0,12,0,1,,,,,,,,,,,,,
63d15e1be853005ff591b935,TCR,2024-06-24_17h32.57.276,LearnStrategy,2023.2.3,Win32,59.88023952,8,1,14,0.078703704,0.002777778,1,0,0,0.7823,rock_grid_rect_2,7,14,-1,-1,0.782,-0.391666667,-0.242592593,1,0,0,1.4119,Andesite_rect,1,1.412,0,13,0,13,0,1,,,,,,,,,,,,,
63d15e1be853005ff591b935,TCR,2024-06-24_17h32.57.276,LearnStrategy,2023.2.3,Win32,59.88023952,8,1,15,0.018518519,0.000925926,1,0,0,1.0975,rock_grid_rect_2,4,15,-1,-1,1.098,0.15462963,-0.269444444,1,0,0,15.3688,Diorite_rect,3,15.369,0,14,0,14,0,1,,,,,,,,,,,,,
63d15e1be853005ff591b935,TCR,2024-06-24_17h32.57.276,LearnStrategy,2023.2.3,Win32,59.88023952,8,1,16,0.050925926,-0.011111111,1,0,0,0.7621,rock_grid_rect_2,4,12,-1,-1,0.762,0.355555556,-0.25,1,0,0,1.5121,Gabbro_rect,4,1.512,1,15,0,15,0,1,,,,,,,,,,,,,
63d15e1be853005ff591b935,TCR,2024-06-24_17h32.57.276,LearnStrategy,2023.2.3,Win32,59.88023952,8,2,1,,,,,,,,8,13,,,,,,,,,,,8,8.021,1,,,,,,0.385185185,-0.412962963,1,0,0,8.0206,Pumice_rect,0,0,0,0,1,
63d15e1be853005ff591b935,TCR,2024-06-24_17h32.57.276,LearnStrategy,2023.2.3,Win32,59.88023952,8,2,2,,,,,,,,5,08,,,,,,,,,,,5,1.176,1,,,,,,-0.384259259,-0.378703704,1,0,0,1.1764,Obsidian_rect,1,0,1,0,1,
63d15e1be853005ff591b935,TCR,2024-06-24_17h32.57.276,LearnStrategy,2023.2.3,Win32,59.88023952,8,2,3,,,,,,,,1,11,,,,,,,,,,,1,1.244,1,,,,,,-0.35,-0.258333333,1,0,0,1.2435,Andesite_rect,2,0,2,0,1,
63d15e1be853005ff591b935,TCR,2024-06-24_17h32.57.276,LearnStrategy,2023.2.3,Win32,59.88023952,8,2,4,,,,,,,,5,11,,,,,,,,,,,5,1.135,1,,,,,,-0.413888889,-0.399074074,1,0,0,1.1348,Obsidian_rect,3,0,3,0,1,
63d15e1be853005ff591b935,TCR,2024-06-24_17h32.57.276,LearnStrategy,2023.2.3,Win32,59.88023952,8,2,5,,,,,,,,4,11,,,,,,,,,,,4,1.495,1,,,,,,0.386111111,-0.269444444,1,0,0,1.4948,Gabbro_rect,4,0,4,0,1,
63d15e1be853005ff591b935,TCR,2024-06-24_17h32.57.276,LearnStrategy,2023.2.3,Win32,59.88023952,8,2,6,,,,,,,,6,12,,,,,,,,,,,6,1.777,1,,,,,,-0.107407407,-0.385185185,1,0,0,1.7771,Pegmatite_rect,5,0,5,0,1,
63d15e1be853005ff591b935,TCR,2024-06-24_17h32.57.276,LearnStrategy,2023.2.3,Win32,59.88023952,8,2,7,,,,,,,,2,10,,,,,,,,,,,2,1.176,1,,,,,,-0.127777778,-0.242592593,1,0,0,1.1761,Basalt_rect,6,0,6,0,1,
63d15e1be853005ff591b935,TCR,2024-06-24_17h32.57.276,LearnStrategy,2023.2.3,Win32,59.88023952,8,2,8,,,,,,,,8,03,,,,,,,,,,,8,1.726,1,,,,,,0.378703704,-0.4,1,0,0,1.7262,Pumice_rect,7,0,7,0,1,
63d15e1be853005ff591b935,TCR,2024-06-24_17h32.57.276,LearnStrategy,2023.2.3,Win32,59.88023952,8,2,9,,,,,,,,6,05,,,,,,,,,,,6,2.861,1,,,,,,-0.133333333,-0.391666667,1,0,0,2.8614,Pegmatite_rect,8,0,8,0,1,
63d15e1be853005ff591b935,TCR,2024-06-24_17h32.57.276,LearnStrategy,2023.2.3,Win32,59.88023952,8,2,10,,,,,,,,4,01,,,,,,,,,,,4,3.097,1,,,,,,0.363888889,-0.250925926,1,0,0,3.0966,Gabbro_rect,9,0,9,0,1,
63d15e1be853005ff591b935,TCR,2024-06-24_17h32.57.276,LearnStrategy,2023.2.3,Win32,59.88023952,8,2,11,,,,,,,,7,15,,,,,,,,,,,7,18.044,1,,,,,,0.128703704,-0.396296296,1,0,0,18.0442,Peridotite_rect,10,0,10,0,1,
63d15e1be853005ff591b935,TCR,2024-06-24_17h32.57.276,LearnStrategy,2023.2.3,Win32,59.88023952,8,2,12,,,,,,,,1,05,,,,,,,,,,,1,1.64,1,,,,,,-0.331481481,-0.248148148,1,0,0,1.6402,Andesite_rect,11,0,11,0,1,
63d15e1be853005ff591b935,TCR,2024-06-24_17h32.57.276,LearnStrategy,2023.2.3,Win32,59.88023952,8,2,13,,,,,,,,2,01,,,,,,,,,,,2,0.863,1,,,,,,-0.14537037,-0.266666667,1,0,0,0.863,Basalt_rect,12,0,12,0,1,
63d15e1be853005ff591b935,TCR,2024-06-24_17h32.57.276,LearnStrategy,2023.2.3,Win32,59.88023952,8,2,14,,,,,,,,3,06,,,,,,,,,,,3,9.319,1,,,,,,0.122222222,-0.261111111,1,0,0,9.3189,Diorite_rect,13,0,13,0,1,
63d15e1be853005ff591b935,TCR,2024-06-24_17h32.57.276,LearnStrategy,2023.2.3,Win32,59.88023952,8,2,15,,,,,,,,3,10,,,,,,,,,,,3,3.227,1,,,,,,0.121296296,-0.262037037,1,0,0,3.2271,Diorite_rect,14,0,14,0,1,
63d15e1be853005ff591b935,TCR,2024-06-24_17h32.57.276,LearnStrategy,2023.2.3,Win32,59.88023952,8,2,16,,,,,,,,7,08,,,,,,,,,,,4,2.56,0,,,,,,0.393518519,-0.271296296,1,0,0,2.5598,Gabbro_rect,15,0,15,0,1,
63d15e1be853005ff591b935,TCR,2024-06-24_17h32.57.276,LearnStrategy,2023.2.3,Win32,59.88023952,9,1,1,0.064814815,0.002777778,1,0,0,1.2164,rock_grid_rect_2,7,06,-1,-1,1.216,-0.107407407,-0.407407407,1,0,0,12.2556,Pegmatite_rect,6,12.256,0,0,0,0,0,1,,,,,,,,,,,,,
63d15e1be853005ff591b935,TCR,2024-06-24_17h32.57.276,LearnStrategy,2023.2.3,Win32,59.88023952,9,1,2,0.075,-0.010185185,1,0,0,0.8798,rock_grid_rect_2,8,04,-1,-1,0.88,0.377777778,-0.40462963,1,0,0,1.4762,Pumice_rect,8,1.476,1,1,0,1,0,1,,,,,,,,,,,,,
63d15e1be853005ff591b935,TCR,2024-06-24_17h32.57.276,LearnStrategy,2023.2.3,Win32,59.88023952,9,1,3,0.002777778,-0.011111111,1,0,0,0.8829,rock_grid_rect_2,6,07,-1,-1,0.883,0.090740741,-0.398148148,1,0,0,3.1627,Peridotite_rect,7,3.163,0,2,0,2,0,1,,,,,,,,,,,,,
63d15e1be853005ff591b935,TCR,2024-06-24_17h32.57.276,LearnStrategy,2023.2.3,Win32,59.88023952,9,1,4,0.033333333,-0.012962963,1,0,0,0.8946,rock_grid_rect_2,4,10,-1,-1,0.895,0.385185185,-0.230555556,1,0,0,2.4256,Gabbro_rect,4,2.426,1,3,0,3,0,1,,,,,,,,,,,,,
63d15e1be853005ff591b935,TCR,2024-06-24_17h32.57.276,LearnStrategy,2023.2.3,Win32,59.88023952,9,1,5,0.037037037,-0.002777778,1,0,0,1.0992,rock_grid_rect_2,7,16,-1,-1,1.099,0.408333333,-0.266666667,1,0,0,5.0952,Gabbro_rect,4,5.095,0,4,0,4,0,1,,,,,,,,,,,,,
63d15e1be853005ff591b935,TCR,2024-06-24_17h32.57.276,LearnStrategy,2023.2.3,Win32,59.88023952,9,1,6,0.002777778,-0.012962963,1,0,0,1.1655,rock_grid_rect_2,3,13,-1,-1,1.166,0.091666667,-0.25462963,1,0,0,2.0964,Diorite_rect,3,2.096,1,5,0,5,0,1,,,,,,,,,,,,,
63d15e1be853005ff591b935,TCR,2024-06-24_17h32.57.276,LearnStrategy,2023.2.3,Win32,59.88023952,9,1,7,0.035185185,-0.007407407,1,0,0,0.8482,rock_grid_rect_2,7,13,-1,-1,0.848,0.105555556,-0.39537037,1,0,0,2.5131,Peridotite_rect,7,2.513,1,6,0,6,0,1,,,,,,,,,,,,,
63d15e1be853005ff591b935,TCR,2024-06-24_17h32.57.276,LearnStrategy,2023.2.3,Win32,59.88023952,9,1,8,0.086111111,-0.002777778,1,0,0,0.7989,rock_grid_rect_2,5,07,-1,-1,0.799,-0.341666667,-0.390740741,1,0,0,1.7422,Obsidian_rect,5,1.742,1,7,0,7,0,1,,,,,,,,,,,,,
63d15e1be853005ff591b935,TCR,2024-06-24_17h32.57.276,LearnStrategy,2023.2.3,Win32,59.88023952,9,1,9,0.02037037,-0.000925926,1,0,0,0.8491,rock_grid_rect_2,2,06,-1,-1,0.849,-0.117592593,-0.24537037,1,0,0,2.3623,Basalt_rect,2,2.362,1,8,0,8,0,1,,,,,,,,,,,,,
63d15e1be853005ff591b935,TCR,2024-06-24_17h32.57.276,LearnStrategy,2023.2.3,Win32,59.88023952,9,1,10,0.032407407,-0.009259259,1,0,0,0.9494,rock_grid_rect_2,4,10,-1,-1,0.949,0.397222222,-0.248148148,1,0,0,1.5657,Gabbro_rect,4,1.566,1,9,0,9,0,1,,,,,,,,,,,,,
63d15e1be853005ff591b935,TCR,2024-06-24_17h32.57.276,LearnStrategy,2023.2.3,Win32,59.88023952,9,1,11,0.084259259,-0.02037037,1,0,0,0.6798,rock_grid_rect_2,3,02,-1,-1,0.68,0.123148148,-0.239814815,1,0,0,1.2453,Diorite_rect,3,1.245,1,10,0,10,0,1,,,,,,,,,,,,,
63d15e1be853005ff591b935,TCR,2024-06-24_17h32.57.276,LearnStrategy,2023.2.3,Win32,59.88023952,9,1,12,0.019444444,-0.001851852,1,0,0,0.7161,rock_grid_rect_2,4,05,-1,-1,0.716,0.443518519,-0.231481481,1,0,0,1.3285,Gabbro_rect,4,1.328,1,11,0,11,0,1,,,,,,,,,,,,,
63d15e1be853005ff591b935,TCR,2024-06-24_17h32.57.276,LearnStrategy,2023.2.3,Win32,59.88023952,9,1,13,0.037037037,-0.009259259,1,0,0,1.0475,rock_grid_rect_2,7,12,-1,-1,1.048,-0.07962963,-0.405555556,1,0,0,3.0094,Pegmatite_rect,6,3.009,0,12,0,12,0,1,,,,,,,,,,,,,
63d15e1be853005ff591b935,TCR,2024-06-24_17h32.57.276,LearnStrategy,2023.2.3,Win32,59.88023952,9,1,14,0.00462963,-0.006481481,1,0,0,1.0476,rock_grid_rect_2,1,01,-1,-1,1.048,-0.414814815,-0.247222222,1,0,0,4.2744,Andesite_rect,1,4.274,1,13,0,13,0,1,,,,,,,,,,,,,
63d15e1be853005ff591b935,TCR,2024-06-24_17h32.57.276,LearnStrategy,2023.2.3,Win32,59.88023952,9,1,15,0.014814815,-0.012037037,1,0,0,1.0991,rock_grid_rect_2,7,12,-1,-1,1.099,0.091666667,-0.403703704,1,0,0,21.9983,Peridotite_rect,7,21.998,1,14,0,14,0,1,,,,,,,,,,,,,
63d15e1be853005ff591b935,TCR,2024-06-24_17h32.57.276,LearnStrategy,2023.2.3,Win32,59.88023952,9,1,16,0.064814815,-0.006481481,1,0,0,0.8318,rock_grid_rect_2,6,07,-1,-1,0.832,-0.141666667,-0.394444444,1,0,0,2.2093,Pegmatite_rect,6,2.209,1,15,0,15,0,1,,,,,,,,,,,,,
63d15e1be853005ff591b935,TCR,2024-06-24_17h32.57.276,LearnStrategy,2023.2.3,Win32,59.88023952,9,2,1,,,,,,,,8,10,,,,,,,,,,,8,2.045,1,,,,,,0.361111111,-0.409259259,1,0,0,2.0452,Pumice_rect,0,0,0,0,1,
63d15e1be853005ff591b935,TCR,2024-06-24_17h32.57.276,LearnStrategy,2023.2.3,Win32,59.88023952,9,2,2,,,,,,,,2,02,,,,,,,,,,,2,1.044,1,,,,,,-0.135185185,-0.256481481,1,0,0,1.0439,Basalt_rect,1,0,1,0,1,
63d15e1be853005ff591b935,TCR,2024-06-24_17h32.57.276,LearnStrategy,2023.2.3,Win32,59.88023952,9,2,3,,,,,,,,3,16,,,,,,,,,,,3,1.461,1,,,,,,0.140740741,-0.262037037,1,0,0,1.4611,Diorite_rect,2,0,2,0,1,
63d15e1be853005ff591b935,TCR,2024-06-24_17h32.57.276,LearnStrategy,2023.2.3,Win32,59.88023952,9,2,4,,,,,,,,5,14,,,,,,,,,,,5,1.044,1,,,,,,-0.425,-0.378703704,1,0,0,1.0435,Obsidian_rect,3,0,3,0,1,
63d15e1be853005ff591b935,TCR,2024-06-24_17h32.57.276,LearnStrategy,2023.2.3,Win32,59.88023952,9,2,5,,,,,,,,2,12,,,,,,,,,,,8,7.8,0,,,,,,0.366666667,-0.402777778,1,0,0,7.8,Pumice_rect,4,0,4,0,1,
63d15e1be853005ff591b935,TCR,2024-06-24_17h32.57.276,LearnStrategy,2023.2.3,Win32,59.88023952,9,2,6,,,,,,,,4,09,,,,,,,,,,,4,6.115,1,,,,,,0.343518519,-0.262962963,1,0,0,6.1147,Gabbro_rect,5,0,5,0,1,
63d15e1be853005ff591b935,TCR,2024-06-24_17h32.57.276,LearnStrategy,2023.2.3,Win32,59.88023952,9,2,7,,,,,,,,1,02,,,,,,,,,,,1,1.439,1,,,,,,-0.328703704,-0.250925926,1,0,0,1.4392,Andesite_rect,6,0,6,0,1,
63d15e1be853005ff591b935,TCR,2024-06-24_17h32.57.276,LearnStrategy,2023.2.3,Win32,59.88023952,9,2,8,,,,,,,,8,16,,,,,,,,,,,8,1.18,1,,,,,,0.344444444,-0.388888889,1,0,0,1.1802,Pumice_rect,7,0,7,0,1,
63d15e1be853005ff591b935,TCR,2024-06-24_17h32.57.276,LearnStrategy,2023.2.3,Win32,59.88023952,9,2,9,,,,,,,,6,06,,,,,,,,,,,7,8.529,0,,,,,,0.150925926,-0.40462963,1,0,0,8.5293,Peridotite_rect,8,0,8,0,1,
63d15e1be853005ff591b935,TCR,2024-06-24_17h32.57.276,LearnStrategy,2023.2.3,Win32,59.88023952,9,2,10,,,,,,,,4,13,,,,,,,,,,,3,27.071,0,,,,,,0.140740741,-0.267592593,1,0,0,27.071,Diorite_rect,9,0,9,0,1,
63d15e1be853005ff591b935,TCR,2024-06-24_17h32.57.276,LearnStrategy,2023.2.3,Win32,59.88023952,9,2,11,,,,,,,,5,16,,,,,,,,,,,5,1.11,1,,,,,,-0.374074074,-0.390740741,1,0,0,1.1099,Obsidian_rect,10,0,10,0,1,
63d15e1be853005ff591b935,TCR,2024-06-24_17h32.57.276,LearnStrategy,2023.2.3,Win32,59.88023952,9,2,12,,,,,,,,3,12,,,,,,,,,,,3,2.178,1,,,,,,0.12962963,-0.267592593,1,0,0,2.1785,Diorite_rect,11,0,11,0,1,
63d15e1be853005ff591b935,TCR,2024-06-24_17h32.57.276,LearnStrategy,2023.2.3,Win32,59.88023952,9,2,13,,,,,,,,6,10,,,,,,,,,,,6,4.316,1,,,,,,-0.071296296,-0.390740741,1,0,0,4.3161,Pegmatite_rect,12,0,12,0,1,
63d15e1be853005ff591b935,TCR,2024-06-24_17h32.57.276,LearnStrategy,2023.2.3,Win32,59.88023952,9,2,14,,,,,,,,7,05,,,,,,,,,,,4,1.515,0,,,,,,0.403703704,-0.237962963,1,0,0,1.515,Gabbro_rect,13,0,13,0,1,
63d15e1be853005ff591b935,TCR,2024-06-24_17h32.57.276,LearnStrategy,2023.2.3,Win32,59.88023952,9,2,15,,,,,,,,1,16,,,,,,,,,,,1,1.157,1,,,,,,-0.362037037,-0.257407407,1,0,0,1.157,Andesite_rect,14,0,14,0,1,
63d15e1be853005ff591b935,TCR,2024-06-24_17h32.57.276,LearnStrategy,2023.2.3,Win32,59.88023952,9,2,16,,,,,,,,7,02,,,,,,,,,,,7,13.188,1,,,,,,0.17037037,-0.399074074,1,0,0,13.1882,Peridotite_rect,15,0,15,0,1,
63d15e1be853005ff591b935,TCR,2024-06-24_17h32.57.276,LearnStrategy,2023.2.3,Win32,59.88023952,,,,,,,,,,,,,,,,,,,,,,,,,,,,,,,,,,,,,,,,,,,1
63d15e1be853005ff591b935,TCR,2024-06-24_17h32.57.276,LearnStrategy,2023.2.3,Win32,59.88023952,,,,,,,,,,,,,,,,,,,,,,,,,,,,,,,,,,,,,,,,,,,
63d15e1be853005ff591b935,TCR,2024-06-24_17h32.57.276,LearnStrategy,2023.2.3,Win32,59.88023952,,,,,,,,,,,6,15,1,1,,,,,,,,,,,,,,,,,,,,,,,,,,,,,
63d15e1be853005ff591b935,TCR,2024-06-24_17h32.57.276,LearnStrategy,2023.2.3,Win32,59.88023952,,,,,,,,,,,5,04,1,2,,,,,,,,,,,,,,,,,,,,,,,,,,,,,
63d15e1be853005ff591b935,TCR,2024-06-24_17h32.57.276,LearnStrategy,2023.2.3,Win32,59.88023952,,,,,,,,,,,1,06,1,3,,,,,,,,,,,,,,,,,,,,,,,,,,,,,
63d15e1be853005ff591b935,TCR,2024-06-24_17h32.57.276,LearnStrategy,2023.2.3,Win32,59.88023952,,,,,,,,,,,4,05,1,4,,,,,,,,,,,,,,,,,,,,,,,,,,,,,
63d15e1be853005ff591b935,TCR,2024-06-24_17h32.57.276,LearnStrategy,2023.2.3,Win32,59.88023952,,,,,,,,,,,4,10,1,5,,,,,,,,,,,,,,,,,,,,,,,,,,,,,
63d15e1be853005ff591b935,TCR,2024-06-24_17h32.57.276,LearnStrategy,2023.2.3,Win32,59.88023952,,,,,,,,,,,8,06,1,6,,,,,,,,,,,,,,,,,,,,,,,,,,,,,
63d15e1be853005ff591b935,TCR,2024-06-24_17h32.57.276,LearnStrategy,2023.2.3,Win32,59.88023952,,,,,,,,,,,3,13,1,7,,,,,,,,,,,,,,,,,,,,,,,,,,,,,
63d15e1be853005ff591b935,TCR,2024-06-24_17h32.57.276,LearnStrategy,2023.2.3,Win32,59.88023952,,,,,,,,,,,7,06,1,8,,,,,,,,,,,,,,,,,,,,,,,,,,,,,
63d15e1be853005ff591b935,TCR,2024-06-24_17h32.57.276,LearnStrategy,2023.2.3,Win32,59.88023952,,,,,,,,,,,2,14,2,1,,,,,,,,,,,,,,,,,,,,,,,,,,,,,
63d15e1be853005ff591b935,TCR,2024-06-24_17h32.57.276,LearnStrategy,2023.2.3,Win32,59.88023952,,,,,,,,,,,2,08,2,2,,,,,,,,,,,,,,,,,,,,,,,,,,,,,
63d15e1be853005ff591b935,TCR,2024-06-24_17h32.57.276,LearnStrategy,2023.2.3,Win32,59.88023952,,,,,,,,,,,1,03,2,3,,,,,,,,,,,,,,,,,,,,,,,,,,,,,
63d15e1be853005ff591b935,TCR,2024-06-24_17h32.57.276,LearnStrategy,2023.2.3,Win32,59.88023952,,,,,,,,,,,5,12,2,4,,,,,,,,,,,,,,,,,,,,,,,,,,,,,
63d15e1be853005ff591b935,TCR,2024-06-24_17h32.57.276,LearnStrategy,2023.2.3,Win32,59.88023952,,,,,,,,,,,5,09,2,5,,,,,,,,,,,,,,,,,,,,,,,,,,,,,
63d15e1be853005ff591b935,TCR,2024-06-24_17h32.57.276,LearnStrategy,2023.2.3,Win32,59.88023952,,,,,,,,,,,7,12,2,6,,,,,,,,,,,,,,,,,,,,,,,,,,,,,
63d15e1be853005ff591b935,TCR,2024-06-24_17h32.57.276,LearnStrategy,2023.2.3,Win32,59.88023952,,,,,,,,,,,8,05,2,7,,,,,,,,,,,,,,,,,,,,,,,,,,,,,
63d15e1be853005ff591b935,TCR,2024-06-24_17h32.57.276,LearnStrategy,2023.2.3,Win32,59.88023952,,,,,,,,,,,7,07,2,8,,,,,,,,,,,,,,,,,,,,,,,,,,,,,
63d15e1be853005ff591b935,TCR,2024-06-24_17h32.57.276,LearnStrategy,2023.2.3,Win32,59.88023952,,,,,,,,,,,5,07,3,1,,,,,,,,,,,,,,,,,,,,,,,,,,,,,
63d15e1be853005ff591b935,TCR,2024-06-24_17h32.57.276,LearnStrategy,2023.2.3,Win32,59.88023952,,,,,,,,,,,4,12,3,2,,,,,,,,,,,,,,,,,,,,,,,,,,,,,
63d15e1be853005ff591b935,TCR,2024-06-24_17h32.57.276,LearnStrategy,2023.2.3,Win32,59.88023952,,,,,,,,,,,7,16,3,3,,,,,,,,,,,,,,,,,,,,,,,,,,,,,
63d15e1be853005ff591b935,TCR,2024-06-24_17h32.57.276,LearnStrategy,2023.2.3,Win32,59.88023952,,,,,,,,,,,6,11,3,4,,,,,,,,,,,,,,,,,,,,,,,,,,,,,
63d15e1be853005ff591b935,TCR,2024-06-24_17h32.57.276,LearnStrategy,2023.2.3,Win32,59.88023952,,,,,,,,,,,3,14,3,5,,,,,,,,,,,,,,,,,,,,,,,,,,,,,
63d15e1be853005ff591b935,TCR,2024-06-24_17h32.57.276,LearnStrategy,2023.2.3,Win32,59.88023952,,,,,,,,,,,4,16,3,6,,,,,,,,,,,,,,,,,,,,,,,,,,,,,
63d15e1be853005ff591b935,TCR,2024-06-24_17h32.57.276,LearnStrategy,2023.2.3,Win32,59.88023952,,,,,,,,,,,2,06,3,7,,,,,,,,,,,,,,,,,,,,,,,,,,,,,
63d15e1be853005ff591b935,TCR,2024-06-24_17h32.57.276,LearnStrategy,2023.2.3,Win32,59.88023952,,,,,,,,,,,3,09,3,8,,,,,,,,,,,,,,,,,,,,,,,,,,,,,
63d15e1be853005ff591b935,TCR,2024-06-24_17h32.57.276,LearnStrategy,2023.2.3,Win32,59.88023952,,,,,,,,,,,1,04,4,1,,,,,,,,,,,,,,,,,,,,,,,,,,,,,
63d15e1be853005ff591b935,TCR,2024-06-24_17h32.57.276,LearnStrategy,2023.2.3,Win32,59.88023952,,,,,,,,,,,4,08,4,2,,,,,,,,,,,,,,,,,,,,,,,,,,,,,
63d15e1be853005ff591b935,TCR,2024-06-24_17h32.57.276,LearnStrategy,2023.2.3,Win32,59.88023952,,,,,,,,,,,1,14,4,3,,,,,,,,,,,,,,,,,,,,,,,,,,,,,
63d15e1be853005ff591b935,TCR,2024-06-24_17h32.57.276,LearnStrategy,2023.2.3,Win32,59.88023952,,,,,,,,,,,2,04,4,4,,,,,,,,,,,,,,,,,,,,,,,,,,,,,
63d15e1be853005ff591b935,TCR,2024-06-24_17h32.57.276,LearnStrategy,2023.2.3,Win32,59.88023952,,,,,,,,,,,6,07,4,5,,,,,,,,,,,,,,,,,,,,,,,,,,,,,
63d15e1be853005ff591b935,TCR,2024-06-24_17h32.57.276,LearnStrategy,2023.2.3,Win32,59.88023952,,,,,,,,,,,5,06,4,6,,,,,,,,,,,,,,,,,,,,,,,,,,,,,
63d15e1be853005ff591b935,TCR,2024-06-24_17h32.57.276,LearnStrategy,2023.2.3,Win32,59.88023952,,,,,,,,,,,3,02,4,7,,,,,,,,,,,,,,,,,,,,,,,,,,,,,
63d15e1be853005ff591b935,TCR,2024-06-24_17h32.57.276,LearnStrategy,2023.2.3,Win32,59.88023952,,,,,,,,,,,6,08,4,8,,,,,,,,,,,,,,,,,,,,,,,,,,,,,
63d15e1be853005ff591b935,TCR,2024-06-24_17h32.57.276,LearnStrategy,2023.2.3,Win32,59.88023952,,,,,,,,,,,3,15,5,1,,,,,,,,,,,,,,,,,,,,,,,,,,,,,
63d15e1be853005ff591b935,TCR,2024-06-24_17h32.57.276,LearnStrategy,2023.2.3,Win32,59.88023952,,,,,,,,,,,7,13,5,2,,,,,,,,,,,,,,,,,,,,,,,,,,,,,
63d15e1be853005ff591b935,TCR,2024-06-24_17h32.57.276,LearnStrategy,2023.2.3,Win32,59.88023952,,,,,,,,,,,3,11,5,3,,,,,,,,,,,,,,,,,,,,,,,,,,,,,
63d15e1be853005ff591b935,TCR,2024-06-24_17h32.57.276,LearnStrategy,2023.2.3,Win32,59.88023952,,,,,,,,,,,2,11,5,4,,,,,,,,,,,,,,,,,,,,,,,,,,,,,
63d15e1be853005ff591b935,TCR,2024-06-24_17h32.57.276,LearnStrategy,2023.2.3,Win32,59.88023952,,,,,,,,,,,2,09,5,5,,,,,,,,,,,,,,,,,,,,,,,,,,,,,
63d15e1be853005ff591b935,TCR,2024-06-24_17h32.57.276,LearnStrategy,2023.2.3,Win32,59.88023952,,,,,,,,,,,8,02,5,6,,,,,,,,,,,,,,,,,,,,,,,,,,,,,
63d15e1be853005ff591b935,TCR,2024-06-24_17h32.57.276,LearnStrategy,2023.2.3,Win32,59.88023952,,,,,,,,,,,8,09,5,7,,,,,,,,,,,,,,,,,,,,,,,,,,,,,
63d15e1be853005ff591b935,TCR,2024-06-24_17h32.57.276,LearnStrategy,2023.2.3,Win32,59.88023952,,,,,,,,,,,6,09,5,8,,,,,,,,,,,,,,,,,,,,,,,,,,,,,
63d15e1be853005ff591b935,TCR,2024-06-24_17h32.57.276,LearnStrategy,2023.2.3,Win32,59.88023952,,,,,,,,,,,1,10,6,1,,,,,,,,,,,,,,,,,,,,,,,,,,,,,
63d15e1be853005ff591b935,TCR,2024-06-24_17h32.57.276,LearnStrategy,2023.2.3,Win32,59.88023952,,,,,,,,,,,6,16,6,2,,,,,,,,,,,,,,,,,,,,,,,,,,,,,
63d15e1be853005ff591b935,TCR,2024-06-24_17h32.57.276,LearnStrategy,2023.2.3,Win32,59.88023952,,,,,,,,,,,4,15,6,3,,,,,,,,,,,,,,,,,,,,,,,,,,,,,
63d15e1be853005ff591b935,TCR,2024-06-24_17h32.57.276,LearnStrategy,2023.2.3,Win32,59.88023952,,,,,,,,,,,8,04,6,4,,,,,,,,,,,,,,,,,,,,,,,,,,,,,
63d15e1be853005ff591b935,TCR,2024-06-24_17h32.57.276,LearnStrategy,2023.2.3,Win32,59.88023952,,,,,,,,,,,7,14,6,5,,,,,,,,,,,,,,,,,,,,,,,,,,,,,
63d15e1be853005ff591b935,TCR,2024-06-24_17h32.57.276,LearnStrategy,2023.2.3,Win32,59.88023952,,,,,,,,,,,5,05,6,6,,,,,,,,,,,,,,,,,,,,,,,,,,,,,
63d15e1be853005ff591b935,TCR,2024-06-24_17h32.57.276,LearnStrategy,2023.2.3,Win32,59.88023952,,,,,,,,,,,8,14,6,7,,,,,,,,,,,,,,,,,,,,,,,,,,,,,
63d15e1be853005ff591b935,TCR,2024-06-24_17h32.57.276,LearnStrategy,2023.2.3,Win32,59.88023952,,,,,,,,,,,1,01,6,8,,,,,,,,,,,,,,,,,,,,,,,,,,,,,