participant,condition,date,expName,psychopyVersion,OS,frameRate,block,phase,trial,learn_mouse.x,learn_mouse.y,learn_mouse.leftButton,learn_mouse.midButton,learn_mouse.rightButton,learn_mouse.time,learn_mouse.clicked_name,cat,token,row,col,t_select,cat_mouse_l.x,cat_mouse_l.y,cat_mouse_l.leftButton,cat_mouse_l.midButton,cat_mouse_l.rightButton,cat_mouse_l.time,cat_mouse_l.clicked_name,resp,t_resp,corr,train_trials.thisRepN,train_trials.thisTrialN,train_trials.thisN,train_trials.thisIndex,train_trials.ran,cat_mouse_t.x,cat_mouse_t.y,cat_mouse_t.leftButton,cat_mouse_t.midButton,cat_mouse_t.rightButton,cat_mouse_t.time,cat_mouse_t.clicked_name,test_trials.thisRepN,test_trials.thisTrialN,test_trials.thisN,test_trials.thisIndex,test_trials.ran,Bonus
63d432e27555fb4b5785cfcd,SCN,2024-06-20_13h55.41.846,LearnStrategy,2023.2.3,Win32,58.82352941,,,,,,,,,,,,,,,,,,,,,,,,,,,,,,,,,,,,,,,,,,,
63d432e27555fb4b5785cfcd,SCN,2024-06-20_13h55.41.846,LearnStrategy,2023.2.3,Win32,58.82352941,1,1,1,-0.052951368,-0.092592621,1,0,0,2.8199,Peridotite_04,7,04,3,4,2.82,0.06464119,-0.254629644,1,0,0,5.4783,Diorite_rect,3,5.478,0,0,0,0,0,1,,,,,,,,,,,,,
63d432e27555fb4b5785cfcd,SCN,2024-06-20_13h55.41.846,LearnStrategy,2023.2.3,Win32,58.82352941,1,1,2,-0.240914345,-0.093518511,1,0,0,1.7526,Basalt_06,2,06,3,3,1.753,-0.181655057,-0.252777799,1,0,0,4.0143,Basalt_rect,2,4.014,1,1,0,1,0,1,,,,,,,,,,,,,
63d432e27555fb4b5785cfcd,SCN,2024-06-20_13h55.41.846,LearnStrategy,2023.2.3,Win32,58.82352941,1,1,3,-0.556655089,0.404629628,1,0,0,4.2471,Diorite_08,3,08,6,1,4.247,-0.045543989,-0.409259351,1,0,0,7.6756,Pegmatite_rect,6,7.676,0,2,0,2,0,1,,,,,,,,,,,,,
63d432e27555fb4b5785cfcd,SCN,2024-06-20_13h55.41.846,LearnStrategy,2023.2.3,Win32,58.82352941,1,1,4,0.370196788,0.251851845,1,0,0,2.0472,Peridotite_13,7,13,5,7,2.047,0.3859375,-0.236111132,1,0,0,4.6178,Gabbro_rect,4,4.618,0,3,0,3,0,1,,,,,,,,,,,,,
63d432e27555fb4b5785cfcd,SCN,2024-06-20_13h55.41.846,LearnStrategy,2023.2.3,Win32,58.82352941,1,1,5,-0.075173632,0.370370372,1,0,0,2.9925,Andesite_04,1,04,6,4,2.993,-0.352951368,-0.262962977,1,0,0,2.7349,Andesite_rect,1,2.735,1,4,0,4,0,1,,,,,,,,,,,,,
63d432e27555fb4b5785cfcd,SCN,2024-06-20_13h55.41.846,LearnStrategy,2023.2.3,Win32,58.82352941,1,1,6,0.103530121,-0.273148155,1,0,0,1.2979,Pegmatite_06,6,06,2,5,1.298,-0.102025477,-0.384259288,1,0,0,5.223,Pegmatite_rect,6,5.223,1,5,0,5,0,1,,,,,,,,,,,,,
63d432e27555fb4b5785cfcd,SCN,2024-06-20_13h55.41.846,LearnStrategy,2023.2.3,Win32,58.82352941,1,1,7,-0.364988422,-0.122222265,1,0,0,3.0115,Obsidian_14,5,14,3,2,3.011,-0.39276619,-0.401851845,1,0,0,2.6541,Obsidian_rect,5,2.654,1,6,0,6,0,1,,,,,,,,,,,,,
63d432e27555fb4b5785cfcd,SCN,2024-06-20_13h55.41.846,LearnStrategy,2023.2.3,Win32,58.82352941,1,1,8,0.243344879,-0.094444593,1,0,0,1.4135,Pumice_04,8,04,3,6,1.413,0.381307856,-0.388888868,1,0,0,2.5596,Pumice_rect,8,2.56,1,7,0,7,0,1,,,,,,,,,,,,,
63d432e27555fb4b5785cfcd,SCN,2024-06-20_13h55.41.846,LearnStrategy,2023.2.3,Win32,58.82352941,1,1,9,0.563715363,-0.241666667,1,0,0,3.4777,Pegmatite_10,6,10,2,8,3.478,0.070196788,-0.393518511,1,0,0,3.4635,Peridotite_rect,7,3.464,0,8,0,8,0,1,,,,,,,,,,,,,
63d432e27555fb4b5785cfcd,SCN,2024-06-20_13h55.41.846,LearnStrategy,2023.2.3,Win32,58.82352941,1,1,10,-0.218692144,0.216666667,1,0,0,4.6976,Pumice_02,8,02,5,3,4.698,0.373900604,-0.389814822,1,0,0,2.6174,Pumice_rect,8,2.617,1,9,0,9,0,1,,,,,,,,,,,,,
63d432e27555fb4b5785cfcd,SCN,2024-06-20_13h55.41.846,LearnStrategy,2023.2.3,Win32,58.82352941,1,1,11,0.352604167,0.375925922,1,0,0,3.9464,Peridotite_15,7,15,6,7,3.946,0.423900477,-0.248148155,1,0,0,3.4108,Gabbro_rect,4,3.411,0,10,0,10,0,1,,,,,,,,,,,,,
63d432e27555fb4b5785cfcd,SCN,2024-06-20_13h55.41.846,LearnStrategy,2023.2.3,Win32,58.82352941,1,1,12,-0.238136546,-0.412037023,1,0,0,2.0515,Andesite_09,1,09,1,3,2.052,-0.348321724,-0.258333333,1,0,0,2.6588,Andesite_rect,1,2.659,1,11,0,11,0,1,,,,,,,,,,,,,
63d432e27555fb4b5785cfcd,SCN,2024-06-20_13h55.41.846,LearnStrategy,2023.2.3,Win32,58.82352941,1,1,13,0.2109375,0.075925922,1,0,0,8.8825,Peridotite_05,7,05,4,6,8.882,0.331307856,-0.230555534,1,0,0,2.5463,Gabbro_rect,4,2.546,0,12,0,12,0,1,,,,,,,,,,,,,
63d432e27555fb4b5785cfcd,SCN,2024-06-20_13h55.41.846,LearnStrategy,2023.2.3,Win32,58.82352941,1,1,14,-0.107581011,0.249074078,1,0,0,4.0647,Pegmatite_13,6,13,5,4,4.065,0.184085719,-0.27037042,1,0,0,4.5799,Diorite_rect,3,4.58,0,13,0,13,0,1,,,,,,,,,,,,,
63d432e27555fb4b5785cfcd,SCN,2024-06-20_13h55.41.846,LearnStrategy,2023.2.3,Win32,58.82352941,1,1,15,0.260011546,0.271296295,1,0,0,4.0791,Basalt_16,2,16,5,6,4.079,0.346122869,-0.256481552,1,0,0,1.594,Gabbro_rect,4,1.594,0,14,0,14,0,1,,,,,,,,,,,,,
63d432e27555fb4b5785cfcd,SCN,2024-06-20_13h55.41.846,LearnStrategy,2023.2.3,Win32,58.82352941,1,1,16,-0.062210655,-0.283333333,1,0,0,8.5777,Pegmatite_12,6,12,2,4,8.578,0.35723381,-0.252777799,1,0,0,2.2561,Gabbro_rect,4,2.256,0,15,0,15,0,1,,,,,,,,,,,,,
63d432e27555fb4b5785cfcd,SCN,2024-06-20_13h55.41.846,LearnStrategy,2023.2.3,Win32,58.82352941,1,2,1,,,,,,,,2,10,,,,,,,,,,,2,10.023,1,,,,,,-0.050173632,-0.242592684,1,0,0,10.0235,Basalt_rect,0,0,0,0,1,
63d432e27555fb4b5785cfcd,SCN,2024-06-20_13h55.41.846,LearnStrategy,2023.2.3,Win32,58.82352941,1,2,2,,,,,,,,4,01,,,,,,,,,,,7,4.741,0,,,,,,0.104456011,-0.382407443,1,0,0,4.7414,Peridotite_rect,1,0,1,0,1,
63d432e27555fb4b5785cfcd,SCN,2024-06-20_13h55.41.846,LearnStrategy,2023.2.3,Win32,58.82352941,1,2,3,,,,,,,,5,16,,,,,,,,,,,5,1.718,1,,,,,,-0.422395833,-0.412037023,1,0,0,1.7183,Obsidian_rect,2,0,2,0,1,
63d432e27555fb4b5785cfcd,SCN,2024-06-20_13h55.41.846,LearnStrategy,2023.2.3,Win32,58.82352941,1,2,4,,,,,,,,6,08,,,,,,,,,,,6,9.086,1,,,,,,-0.179803212,-0.37870369,1,0,0,9.0856,Pegmatite_rect,3,0,3,0,1,
63d432e27555fb4b5785cfcd,SCN,2024-06-20_13h55.41.846,LearnStrategy,2023.2.3,Win32,58.82352941,1,2,5,,,,,,,,7,08,,,,,,,,,,,7,2.465,1,,,,,,0.071122678,-0.379629644,1,0,0,2.4649,Peridotite_rect,4,0,4,0,1,
63d432e27555fb4b5785cfcd,SCN,2024-06-20_13h55.41.846,LearnStrategy,2023.2.3,Win32,58.82352941,1,2,6,,,,,,,,8,15,,,,,,,,,,,8,9.63,1,,,,,,0.33964119,-0.415740776,1,0,0,9.6298,Pumice_rect,5,0,5,0,1,
63d432e27555fb4b5785cfcd,SCN,2024-06-20_13h55.41.846,LearnStrategy,2023.2.3,Win32,58.82352941,1,2,7,,,,,,,,1,06,,,,,,,,,,,1,1.985,1,,,,,,-0.331655057,-0.250925954,1,0,0,1.9852,Andesite_rect,6,0,6,0,1,
63d432e27555fb4b5785cfcd,SCN,2024-06-20_13h55.41.846,LearnStrategy,2023.2.3,Win32,58.82352941,1,2,8,,,,,,,,3,16,,,,,,,,,,,1,4.255,0,,,,,,-0.331655057,-0.250925954,1,0,0,4.2547,Andesite_rect,7,0,7,0,1,
63d432e27555fb4b5785cfcd,SCN,2024-06-20_13h55.41.846,LearnStrategy,2023.2.3,Win32,58.82352941,1,2,9,,,,,,,,5,02,,,,,,,,,,,5,1.691,1,,,,,,-0.366840267,-0.39629631,1,0,0,1.6913,Obsidian_rect,8,0,8,0,1,
63d432e27555fb4b5785cfcd,SCN,2024-06-20_13h55.41.846,LearnStrategy,2023.2.3,Win32,58.82352941,1,2,10,,,,,,,,7,16,,,,,,,,,,,3,6.078,0,,,,,,0.116493034,-0.254629644,1,0,0,6.0777,Diorite_rect,9,0,9,0,1,
63d432e27555fb4b5785cfcd,SCN,2024-06-20_13h55.41.846,LearnStrategy,2023.2.3,Win32,58.82352941,1,2,11,,,,,,,,8,03,,,,,,,,,,,8,1.483,1,,,,,,0.375752385,-0.412962977,1,0,0,1.4829,Pumice_rect,10,0,10,0,1,
63d432e27555fb4b5785cfcd,SCN,2024-06-20_13h55.41.846,LearnStrategy,2023.2.3,Win32,58.82352941,1,2,12,,,,,,,,6,15,,,,,,,,,,,6,5.786,1,,,,,,-0.050173632,-0.389814822,1,0,0,5.7856,Pegmatite_rect,11,0,11,0,1,
63d432e27555fb4b5785cfcd,SCN,2024-06-20_13h55.41.846,LearnStrategy,2023.2.3,Win32,58.82352941,1,2,13,,,,,,,,3,09,,,,,,,,,,,1,3.28,0,,,,,,-0.433506934,-0.250925954,1,0,0,3.2796,Andesite_rect,12,0,12,0,1,
63d432e27555fb4b5785cfcd,SCN,2024-06-20_13h55.41.846,LearnStrategy,2023.2.3,Win32,58.82352941,1,2,14,,,,,,,,1,10,,,,,,,,,,,1,1.226,1,,,,,,-0.433506934,-0.250925954,1,0,0,1.2265,Andesite_rect,13,0,13,0,1,
63d432e27555fb4b5785cfcd,SCN,2024-06-20_13h55.41.846,LearnStrategy,2023.2.3,Win32,58.82352941,1,2,15,,,,,,,,4,05,,,,,,,,,,,3,4.598,0,,,,,,0.208159765,-0.237963041,1,0,0,4.5984,Diorite_rect,14,0,14,0,1,
63d432e27555fb4b5785cfcd,SCN,2024-06-20_13h55.41.846,LearnStrategy,2023.2.3,Win32,58.82352941,1,2,16,,,,,,,,2,04,,,,,,,,,,,2,3.666,1,,,,,,-0.161284701,-0.264814822,1,0,0,3.6663,Basalt_rect,15,0,15,0,1,
63d432e27555fb4b5785cfcd,SCN,2024-06-20_13h55.41.846,LearnStrategy,2023.2.3,Win32,58.82352941,2,1,1,0.242419052,0.385185178,1,0,0,4.8669,Pumice_13,8,13,6,6,4.867,0.341493352,-0.397222201,1,0,0,1.4279,Pumice_rect,8,1.428,1,0,0,0,0,1,,,,,,,,,,,,,
63d432e27555fb4b5785cfcd,SCN,2024-06-20_13h55.41.846,LearnStrategy,2023.2.3,Win32,58.82352941,2,1,2,0.374826431,-0.25,1,0,0,9.145,Diorite_06,3,06,2,7,9.145,0.184085719,-0.257407443,1,0,0,1.3341,Diorite_rect,3,1.334,1,1,0,1,0,1,,,,,,,,,,,,,
63d432e27555fb4b5785cfcd,SCN,2024-06-20_13h55.41.846,LearnStrategy,2023.2.3,Win32,58.82352941,2,1,3,-0.213136546,0.090740744,1,0,0,4.2633,Andesite_11,1,11,4,3,4.263,-0.443692112,-0.259259288,1,0,0,2.4073,Andesite_rect,1,2.407,1,2,0,2,0,1,,,,,,,,,,,,,
63d432e27555fb4b5785cfcd,SCN,2024-06-20_13h55.41.846,LearnStrategy,2023.2.3,Win32,58.82352941,2,1,4,0.560011546,0.264814806,1,0,0,3.5632,Pegmatite_05,6,05,5,8,3.563,0.358159765,-0.239814822,1,0,0,2.8523,Gabbro_rect,4,2.852,0,3,0,3,0,1,,,,,,,,,,,,,
63d432e27555fb4b5785cfcd,SCN,2024-06-20_13h55.41.846,LearnStrategy,2023.2.3,Win32,58.82352941,2,1,5,0.081307856,0.238888884,1,0,0,1.5976,Diorite_02,3,02,5,5,1.598,0.13223381,-0.229629644,1,0,0,2.765,Diorite_rect,3,2.765,1,4,0,4,0,1,,,,,,,,,,,,,
63d432e27555fb4b5785cfcd,SCN,2024-06-20_13h55.41.846,LearnStrategy,2023.2.3,Win32,58.82352941,2,1,6,-0.228877322,0.215740744,1,0,0,3.4462,Pumice_02,8,02,5,3,3.446,0.337789408,-0.393518511,1,0,0,1.9895,Pumice_rect,8,1.99,1,5,0,5,0,1,,,,,,,,,,,,,
63d432e27555fb4b5785cfcd,SCN,2024-06-20_13h55.41.846,LearnStrategy,2023.2.3,Win32,58.82352941,2,1,7,0.529456075,-0.147222201,1,0,0,1.3973,Andesite_03,1,03,3,8,1.397,-0.402025445,-0.239814822,1,0,0,1.4571,Andesite_rect,1,1.457,1,6,0,6,0,1,,,,,,,,,,,,,
63d432e27555fb4b5785cfcd,SCN,2024-06-20_13h55.41.846,LearnStrategy,2023.2.3,Win32,58.82352941,2,1,8,0.341493352,0.113888899,1,0,0,10.1535,Gabbro_16,4,16,4,7,10.154,0.356307856,-0.237963041,1,0,0,2.2824,Gabbro_rect,4,2.282,1,7,0,7,0,1,,,,,,,,,,,,,
63d432e27555fb4b5785cfcd,SCN,2024-06-20_13h55.41.846,LearnStrategy,2023.2.3,Win32,58.82352941,2,1,9,0.228530121,0.247222217,1,0,0,1.4467,Basalt_16,2,16,5,6,1.447,0.368344879,-0.254629644,1,0,0,1.4172,Gabbro_rect,4,1.417,0,8,0,8,0,1,,,,,,,,,,,,,
63d432e27555fb4b5785cfcd,SCN,2024-06-20_13h55.41.846,LearnStrategy,2023.2.3,Win32,58.82352941,2,1,10,0.241493098,-0.435185178,1,0,0,7.7109,Gabbro_14,4,14,1,6,7.711,0.387789536,-0.255555534,1,0,0,1.2387,Gabbro_rect,4,1.239,1,9,0,9,0,1,,,,,,,,,,,,,
63d432e27555fb4b5785cfcd,SCN,2024-06-20_13h55.41.846,LearnStrategy,2023.2.3,Win32,58.82352941,2,1,11,0.119270833,-0.414814822,1,0,0,1.9135,Pegmatite_03,6,03,1,5,1.913,-0.107581011,-0.381481552,1,0,0,1.663,Pegmatite_rect,6,1.663,1,10,0,10,0,1,,,,,,,,,,,,,
63d432e27555fb4b5785cfcd,SCN,2024-06-20_13h55.41.846,LearnStrategy,2023.2.3,Win32,58.82352941,2,1,12,-0.399247678,0.262037039,1,0,0,4.9534,Gabbro_10,4,10,5,2,4.953,0.318345006,-0.250925954,1,0,0,1.9949,Gabbro_rect,4,1.995,1,11,0,11,0,1,,,,,,,,,,,,,
63d432e27555fb4b5785cfcd,SCN,2024-06-20_13h55.41.846,LearnStrategy,2023.2.3,Win32,58.82352941,2,1,13,-0.39276619,-0.134259288,1,0,0,12.7267,Obsidian_14,5,14,3,2,12.727,-0.412210655,-0.37870369,1,0,0,1.5768,Obsidian_rect,5,1.577,1,12,0,12,0,1,,,,,,,,,,,,,
63d432e27555fb4b5785cfcd,SCN,2024-06-20_13h55.41.846,LearnStrategy,2023.2.3,Win32,58.82352941,2,1,14,-0.536284701,-0.105555534,1,0,0,1.9598,Basalt_05,2,05,3,1,1.96,-0.214988391,-0.27129631,1,0,0,2.7253,Basalt_rect,2,2.725,1,13,0,13,0,1,,,,,,,,,,,,,
63d432e27555fb4b5785cfcd,SCN,2024-06-20_13h55.41.846,LearnStrategy,2023.2.3,Win32,58.82352941,2,1,15,-0.525173601,0.074074078,1,0,0,6.8438,Diorite_10,3,10,4,1,6.844,0.38964119,-0.242592684,1,0,0,3.0738,Gabbro_rect,4,3.074,0,14,0,14,0,1,,,,,,,,,,,,,
63d432e27555fb4b5785cfcd,SCN,2024-06-20_13h55.41.846,LearnStrategy,2023.2.3,Win32,58.82352941,2,1,16,0.575752385,0.367592589,1,0,0,4.888,Basalt_02,2,02,6,8,4.888,-0.199247678,-0.265740776,1,0,0,2.3814,Basalt_rect,2,2.381,1,15,0,15,0,1,,,,,,,,,,,,,
63d432e27555fb4b5785cfcd,SCN,2024-06-20_13h55.41.846,LearnStrategy,2023.2.3,Win32,58.82352941,2,2,1,,,,,,,,4,11,,,,,,,,,,,2,4.454,0,,,,,,-0.130729167,-0.234259288,1,0,0,4.454,Basalt_rect,0,0,0,0,1,
63d432e27555fb4b5785cfcd,SCN,2024-06-20_13h55.41.846,LearnStrategy,2023.2.3,Win32,58.82352941,2,2,2,,,,,,,,8,09,,,,,,,,,,,8,3.599,1,,,,,,0.3859375,-0.410185178,1,0,0,3.5992,Pumice_rect,1,0,1,0,1,
63d432e27555fb4b5785cfcd,SCN,2024-06-20_13h55.41.846,LearnStrategy,2023.2.3,Win32,58.82352941,2,2,3,,,,,,,,6,16,,,,,,,,,,,6,5.1,1,,,,,,-0.036284701,-0.414814822,1,0,0,5.0997,Pegmatite_rect,2,0,2,0,1,
63d432e27555fb4b5785cfcd,SCN,2024-06-20_13h55.41.846,LearnStrategy,2023.2.3,Win32,58.82352941,2,2,4,,,,,,,,4,13,,,,,,,,,,,4,1.919,1,,,,,,0.44797465,-0.260185178,1,0,0,1.9192,Gabbro_rect,3,0,3,0,1,
63d432e27555fb4b5785cfcd,SCN,2024-06-20_13h55.41.846,LearnStrategy,2023.2.3,Win32,58.82352941,2,2,5,,,,,,,,7,02,,,,,,,,,,,7,2.205,1,,,,,,0.196122742,-0.401851845,1,0,0,2.2048,Peridotite_rect,4,0,4,0,1,
63d432e27555fb4b5785cfcd,SCN,2024-06-20_13h55.41.846,LearnStrategy,2023.2.3,Win32,58.82352941,2,2,6,,,,,,,,5,09,,,,,,,,,,,5,2.3,1,,,,,,-0.419618066,-0.408333333,1,0,0,2.2999,Obsidian_rect,5,0,5,0,1,
63d432e27555fb4b5785cfcd,SCN,2024-06-20_13h55.41.846,LearnStrategy,2023.2.3,Win32,58.82352941,2,2,7,,,,,,,,5,08,,,,,,,,,,,5,1.049,1,,,,,,-0.419618066,-0.408333333,1,0,0,1.0489,Obsidian_rect,6,0,6,0,1,
63d432e27555fb4b5785cfcd,SCN,2024-06-20_13h55.41.846,LearnStrategy,2023.2.3,Win32,58.82352941,2,2,8,,,,,,,,6,09,,,,,,,,,,,7,6.495,0,,,,,,0.100752322,-0.394444466,1,0,0,6.4951,Peridotite_rect,7,0,7,0,1,
63d432e27555fb4b5785cfcd,SCN,2024-06-20_13h55.41.846,LearnStrategy,2023.2.3,Win32,58.82352941,2,2,9,,,,,,,,8,08,,,,,,,,,,,8,2.575,1,,,,,,0.3859375,-0.413888931,1,0,0,2.5753,Pumice_rect,8,0,8,0,1,
63d432e27555fb4b5785cfcd,SCN,2024-06-20_13h55.41.846,LearnStrategy,2023.2.3,Win32,58.82352941,2,2,10,,,,,,,,7,14,,,,,,,,,,,3,3.04,0,,,,,,0.143344943,-0.247222265,1,0,0,3.0403,Diorite_rect,9,0,9,0,1,
63d432e27555fb4b5785cfcd,SCN,2024-06-20_13h55.41.846,LearnStrategy,2023.2.3,Win32,58.82352941,2,2,11,,,,,,,,2,14,,,,,,,,,,,4,1.927,0,,,,,,0.343344879,-0.262037023,1,0,0,1.9269,Gabbro_rect,10,0,10,0,1,
63d432e27555fb4b5785cfcd,SCN,2024-06-20_13h55.41.846,LearnStrategy,2023.2.3,Win32,58.82352941,2,2,12,,,,,,,,3,11,,,,,,,,,,,3,1.941,1,,,,,,0.158159701,-0.24629631,1,0,0,1.9406,Diorite_rect,11,0,11,0,1,
63d432e27555fb4b5785cfcd,SCN,2024-06-20_13h55.41.846,LearnStrategy,2023.2.3,Win32,58.82352941,2,2,13,,,,,,,,2,01,,,,,,,,,,,2,2.409,1,,,,,,-0.127951241,-0.265740776,1,0,0,2.4089,Basalt_rect,12,0,12,0,1,
63d432e27555fb4b5785cfcd,SCN,2024-06-20_13h55.41.846,LearnStrategy,2023.2.3,Win32,58.82352941,2,2,14,,,,,,,,1,16,,,,,,,,,,,1,1.77,1,,,,,,-0.360358779,-0.268518511,1,0,0,1.7698,Andesite_rect,13,0,13,0,1,
63d432e27555fb4b5785cfcd,SCN,2024-06-20_13h55.41.846,LearnStrategy,2023.2.3,Win32,58.82352941,2,2,15,,,,,,,,3,15,,,,,,,,,,,3,1.653,1,,,,,,0.125752322,-0.248148155,1,0,0,1.6527,Diorite_rect,14,0,14,0,1,
63d432e27555fb4b5785cfcd,SCN,2024-06-20_13h55.41.846,LearnStrategy,2023.2.3,Win32,58.82352941,2,2,16,,,,,,,,1,14,,,,,,,,,,,3,5.262,0,,,,,,0.083159701,-0.250925954,1,0,0,5.262,Diorite_rect,15,0,15,0,1,
63d432e27555fb4b5785cfcd,SCN,2024-06-20_13h55.41.846,LearnStrategy,2023.2.3,Win32,58.82352941,3,1,1,0.090567144,0.401851853,1,0,0,3.5048,Diorite_12,3,12,6,5,3.505,0.135011609,-0.255555534,1,0,0,1.9327,Diorite_rect,3,1.933,1,0,0,0,0,1,,,,,,,,,,,,,
63d432e27555fb4b5785cfcd,SCN,2024-06-20_13h55.41.846,LearnStrategy,2023.2.3,Win32,58.82352941,3,1,2,-0.411284733,0.390740736,1,0,0,1.5813,Diorite_13,3,13,6,2,1.581,0.097048632,-0.233333397,1,0,0,1.2129,Diorite_rect,3,1.213,1,1,0,1,0,1,,,,,,,,,,,,,
63d432e27555fb4b5785cfcd,SCN,2024-06-20_13h55.41.846,LearnStrategy,2023.2.3,Win32,58.82352941,3,1,3,-0.54276619,0.395370372,1,0,0,1.2651,Diorite_08,3,08,6,1,1.265,0.093344943,-0.230555534,1,0,0,1.2555,Diorite_rect,3,1.255,1,2,0,2,0,1,,,,,,,,,,,,,
63d432e27555fb4b5785cfcd,SCN,2024-06-20_13h55.41.846,LearnStrategy,2023.2.3,Win32,58.82352941,3,1,4,0.415567271,0.420370372,1,0,0,0.9851,Peridotite_15,7,15,6,7,0.985,0.08223381,-0.410185178,1,0,0,1.3426,Peridotite_rect,7,1.343,1,3,0,3,0,1,,,,,,,,,,,,,
63d432e27555fb4b5785cfcd,SCN,2024-06-20_13h55.41.846,LearnStrategy,2023.2.3,Win32,58.82352941,3,1,5,0.097048632,0.260185178,1,0,0,4.5963,Diorite_02,3,02,5,5,4.596,0.099826368,-0.257407443,1,0,0,1.2902,Diorite_rect,3,1.29,1,4,0,4,0,1,,,,,,,,,,,,,
63d432e27555fb4b5785cfcd,SCN,2024-06-20_13h55.41.846,LearnStrategy,2023.2.3,Win32,58.82352941,3,1,6,0.552604167,0.25,1,0,0,1.9806,Pegmatite_05,6,05,5,8,1.981,-0.094618034,-0.419444466,1,0,0,2.4384,Pegmatite_rect,6,2.438,1,5,0,5,0,1,,,,,,,,,,,,,
63d432e27555fb4b5785cfcd,SCN,2024-06-20_13h55.41.846,LearnStrategy,2023.2.3,Win32,58.82352941,3,1,7,0.359085719,-0.260185178,1,0,0,5.5793,Diorite_06,3,06,2,7,5.579,0.185011546,-0.254629644,1,0,0,1.164,Diorite_rect,3,1.164,1,6,0,6,0,1,,,,,,,,,,,,,
63d432e27555fb4b5785cfcd,SCN,2024-06-20_13h55.41.846,LearnStrategy,2023.2.3,Win32,58.82352941,3,1,8,-0.253877322,-0.27129631,1,0,0,1.4812,Peridotite_12,7,12,2,3,1.481,0.110011609,-0.380555534,1,0,0,1.9735,Peridotite_rect,7,1.973,1,7,0,7,0,1,,,,,,,,,,,,,
63d432e27555fb4b5785cfcd,SCN,2024-06-20_13h55.41.846,LearnStrategy,2023.2.3,Win32,58.82352941,3,1,9,-0.577951368,-0.417592621,1,0,0,1.347,Gabbro_09,4,09,1,1,1.347,0.16464119,-0.260185178,1,0,0,6.2409,Diorite_rect,3,6.241,0,8,0,8,0,1,,,,,,,,,,,,,
63d432e27555fb4b5785cfcd,SCN,2024-06-20_13h55.41.846,LearnStrategy,2023.2.3,Win32,58.82352941,3,1,10,0.528530121,-0.413888931,1,0,0,5.8155,Gabbro_12,4,12,1,8,5.816,0.170196788,-0.250925954,1,0,0,1.8359,Diorite_rect,3,1.836,0,9,0,9,0,1,,,,,,,,,,,,,
63d432e27555fb4b5785cfcd,SCN,2024-06-20_13h55.41.846,LearnStrategy,2023.2.3,Win32,58.82352941,3,1,11,-0.527951399,0.101851845,1,0,0,2.8692,Diorite_10,3,10,4,1,2.869,0.113715299,-0.242592684,1,0,0,1.5821,Diorite_rect,3,1.582,1,10,0,10,0,1,,,,,,,,,,,,,
63d432e27555fb4b5785cfcd,SCN,2024-06-20_13h55.41.846,LearnStrategy,2023.2.3,Win32,58.82352941,3,1,12,-0.252951241,0.401851853,1,0,0,4.6806,Obsidian_05,5,05,6,3,4.681,-0.348321724,-0.384259288,1,0,0,1.9073,Obsidian_rect,5,1.907,1,11,0,11,0,1,,,,,,,,,,,,,
63d432e27555fb4b5785cfcd,SCN,2024-06-20_13h55.41.846,LearnStrategy,2023.2.3,Win32,58.82352941,3,1,13,-0.055729167,0.375925922,1,0,0,1.5138,Andesite_04,1,04,6,4,1.514,-0.347395833,-0.258333333,1,0,0,1.0514,Andesite_rect,1,1.051,1,12,0,12,0,1,,,,,,,,,,,,,
63d432e27555fb4b5785cfcd,SCN,2024-06-20_13h55.41.846,LearnStrategy,2023.2.3,Win32,58.82352941,3,1,14,0.203530121,0.110185146,1,0,0,3.7347,Peridotite_05,7,05,4,6,3.735,0.1359375,-0.413888931,1,0,0,2.0154,Peridotite_rect,7,2.015,1,13,0,13,0,1,,,,,,,,,,,,,
63d432e27555fb4b5785cfcd,SCN,2024-06-20_13h55.41.846,LearnStrategy,2023.2.3,Win32,58.82352941,3,1,15,-0.066840299,-0.241666667,1,0,0,5.5613,Pegmatite_12,6,12,2,4,5.561,-0.126099523,-0.400925954,1,0,0,2.109,Pegmatite_rect,6,2.109,1,14,0,14,0,1,,,,,,,,,,,,,
63d432e27555fb4b5785cfcd,SCN,2024-06-20_13h55.41.846,LearnStrategy,2023.2.3,Win32,58.82352941,3,1,16,-0.232581011,-0.262037023,1,0,0,3.247,Peridotite_12,7,12,2,3,3.247,0.104456011,-0.410185178,1,0,0,1.4439,Peridotite_rect,7,1.444,1,15,0,15,0,1,,,,,,,,,,,,,
63d432e27555fb4b5785cfcd,SCN,2024-06-20_13h55.41.846,LearnStrategy,2023.2.3,Win32,58.82352941,3,2,1,,,,,,,,2,08,,,,,,,,,,,2,3.054,1,,,,,,-0.158506966,-0.228703753,1,0,0,3.0536,Basalt_rect,0,0,0,0,1,
63d432e27555fb4b5785cfcd,SCN,2024-06-20_13h55.41.846,LearnStrategy,2023.2.3,Win32,58.82352941,3,2,2,,,,,,,,8,14,,,,,,,,,,,8,1.615,1,,,,,,0.433159765,-0.397222201,1,0,0,1.6152,Pumice_rect,1,0,1,0,1,
63d432e27555fb4b5785cfcd,SCN,2024-06-20_13h55.41.846,LearnStrategy,2023.2.3,Win32,58.82352941,3,2,3,,,,,,,,2,12,,,,,,,,,,,4,5.236,0,,,,,,0.418344879,-0.249074109,1,0,0,5.2355,Gabbro_rect,2,0,2,0,1,
63d432e27555fb4b5785cfcd,SCN,2024-06-20_13h55.41.846,LearnStrategy,2023.2.3,Win32,58.82352941,3,2,4,,,,,,,,4,03,,,,,,,,,,,4,1.569,1,,,,,,0.418344879,-0.249074109,1,0,0,1.5688,Gabbro_rect,3,0,3,0,1,
63d432e27555fb4b5785cfcd,SCN,2024-06-20_13h55.41.846,LearnStrategy,2023.2.3,Win32,58.82352941,3,2,5,,,,,,,,1,07,,,,,,,,,,,3,2.753,0,,,,,,0.146122678,-0.240740776,1,0,0,2.7527,Diorite_rect,4,0,4,0,1,
63d432e27555fb4b5785cfcd,SCN,2024-06-20_13h55.41.846,LearnStrategy,2023.2.3,Win32,58.82352941,3,2,6,,,,,,,,3,07,,,,,,,,,,,3,2.948,1,,,,,,0.146122678,-0.240740776,1,0,0,2.9476,Diorite_rect,5,0,5,0,1,
63d432e27555fb4b5785cfcd,SCN,2024-06-20_13h55.41.846,LearnStrategy,2023.2.3,Win32,58.82352941,3,2,7,,,,,,,,7,06,,,,,,,,,,,7,2.108,1,,,,,,0.124826368,-0.393518511,1,0,0,2.1082,Peridotite_rect,6,0,6,0,1,
63d432e27555fb4b5785cfcd,SCN,2024-06-20_13h55.41.846,LearnStrategy,2023.2.3,Win32,58.82352941,3,2,8,,,,,,,,6,07,,,,,,,,,,,6,12.145,1,,,,,,-0.121469879,-0.400000064,1,0,0,12.1454,Pegmatite_rect,7,0,7,0,1,
63d432e27555fb4b5785cfcd,SCN,2024-06-20_13h55.41.846,LearnStrategy,2023.2.3,Win32,58.82352941,3,2,9,,,,,,,,7,07,,,,,,,,,,,7,1.403,1,,,,,,0.08223381,-0.389814822,1,0,0,1.4029,Peridotite_rect,8,0,8,0,1,
63d432e27555fb4b5785cfcd,SCN,2024-06-20_13h55.41.846,LearnStrategy,2023.2.3,Win32,58.82352941,3,2,10,,,,,,,,3,14,,,,,,,,,,,3,1.387,1,,,,,,0.088715299,-0.261111259,1,0,0,1.387,Diorite_rect,9,0,9,0,1,
63d432e27555fb4b5785cfcd,SCN,2024-06-20_13h55.41.846,LearnStrategy,2023.2.3,Win32,58.82352941,3,2,11,,,,,,,,8,16,,,,,,,,,,,8,1.701,1,,,,,,0.355382029,-0.387037023,1,0,0,1.701,Pumice_rect,10,0,10,0,1,
63d432e27555fb4b5785cfcd,SCN,2024-06-20_13h55.41.846,LearnStrategy,2023.2.3,Win32,58.82352941,3,2,12,,,,,,,,4,15,,,,,,,,,,,4,1.463,1,,,,,,0.372974523,-0.241666667,1,0,0,1.4632,Gabbro_rect,11,0,11,0,1,
63d432e27555fb4b5785cfcd,SCN,2024-06-20_13h55.41.846,LearnStrategy,2023.2.3,Win32,58.82352941,3,2,13,,,,,,,,5,07,,,,,,,,,,,5,2.535,1,,,,,,-0.389988422,-0.389814822,1,0,0,2.5348,Obsidian_rect,12,0,12,0,1,
63d432e27555fb4b5785cfcd,SCN,2024-06-20_13h55.41.846,LearnStrategy,2023.2.3,Win32,58.82352941,3,2,14,,,,,,,,1,01,,,,,,,,,,,3,4.527,0,,,,,,0.122048632,-0.236111132,1,0,0,4.527,Diorite_rect,13,0,13,0,1,
63d432e27555fb4b5785cfcd,SCN,2024-06-20_13h55.41.846,LearnStrategy,2023.2.3,Win32,58.82352941,3,2,15,,,,,,,,5,06,,,,,,,,,,,5,2.084,1,,,,,,-0.343692144,-0.381481552,1,0,0,2.0844,Obsidian_rect,14,0,14,0,1,
63d432e27555fb4b5785cfcd,SCN,2024-06-20_13h55.41.846,LearnStrategy,2023.2.3,Win32,58.82352941,3,2,16,,,,,,,,6,11,,,,,,,,,,,6,1.399,1,,,,,,-0.133506966,-0.409259351,1,0,0,1.3985,Pegmatite_rect,15,0,15,0,1,
63d432e27555fb4b5785cfcd,SCN,2024-06-20_13h55.41.846,LearnStrategy,2023.2.3,Win32,58.82352941,4,1,1,-0.218692144,0.090740744,1,0,0,1.5472,Andesite_11,1,11,4,3,1.547,-0.368692112,-0.260185178,1,0,0,1.0561,Andesite_rect,1,1.056,1,0,0,0,0,1,,,,,,,,,,,,,
63d432e27555fb4b5785cfcd,SCN,2024-06-20_13h55.41.846,LearnStrategy,2023.2.3,Win32,58.82352941,4,1,2,-0.073321724,-0.075925954,1,0,0,1.5313,Peridotite_04,7,04,3,4,1.531,0.074826368,-0.384259288,1,0,0,1.4853,Peridotite_rect,7,1.485,1,1,0,1,0,1,,,,,,,,,,,,,
63d432e27555fb4b5785cfcd,SCN,2024-06-20_13h55.41.846,LearnStrategy,2023.2.3,Win32,58.82352941,4,1,3,0.070196788,-0.25370369,1,0,0,1.7033,Pegmatite_06,6,06,2,5,1.703,-0.077951368,-0.400000064,1,0,0,2.7054,Pegmatite_rect,6,2.705,1,2,0,2,0,1,,,,,,,,,,,,,
63d432e27555fb4b5785cfcd,SCN,2024-06-20_13h55.41.846,LearnStrategy,2023.2.3,Win32,58.82352941,4,1,4,-0.535358779,-0.39537042,1,0,0,2.2638,Gabbro_09,4,09,1,1,2.264,0.323900477,-0.259259288,1,0,0,1.8401,Gabbro_rect,4,1.84,1,3,0,3,0,1,,,,,,,,,,,,,
63d432e27555fb4b5785cfcd,SCN,2024-06-20_13h55.41.846,LearnStrategy,2023.2.3,Win32,58.82352941,4,1,5,-0.347395833,0.242592589,1,0,0,2.68,Gabbro_10,4,10,5,2,2.68,0.374826431,-0.261111259,1,0,0,1.1232,Gabbro_rect,4,1.123,1,4,0,4,0,1,,,,,,,,,,,,,
63d432e27555fb4b5785cfcd,SCN,2024-06-20_13h55.41.846,LearnStrategy,2023.2.3,Win32,58.82352941,4,1,6,-0.520543989,0.398148147,1,0,0,2.0376,Diorite_08,3,08,6,1,2.038,0.095196788,-0.247222265,1,0,0,13.4473,Diorite_rect,3,13.447,1,5,0,5,0,1,,,,,,,,,,,,,
63d432e27555fb4b5785cfcd,SCN,2024-06-20_13h55.41.846,LearnStrategy,2023.2.3,Win32,58.82352941,4,1,7,0.080381966,0.395370372,1,0,0,2.9351,Diorite_12,3,12,6,5,2.935,0.118344943,-0.262962977,1,0,0,2.8421,Diorite_rect,3,2.842,1,6,0,6,0,1,,,,,,,,,,,,,
63d432e27555fb4b5785cfcd,SCN,2024-06-20_13h55.41.846,LearnStrategy,2023.2.3,Win32,58.82352941,4,1,8,0.08964119,0.233333333,1,0,0,3.3117,Diorite_02,3,02,5,5,3.312,0.159085655,-0.244444466,1,0,0,1.0878,Diorite_rect,3,1.088,1,7,0,7,0,1,,,,,,,,,,,,,
63d432e27555fb4b5785cfcd,SCN,2024-06-20_13h55.41.846,LearnStrategy,2023.2.3,Win32,58.82352941,4,1,9,-0.522395802,0.062037023,1,0,0,4.3186,Diorite_10,3,10,4,1,4.319,0.097974523,-0.245370356,1,0,0,1.5093,Diorite_rect,3,1.509,1,8,0,8,0,1,,,,,,,,,,,,,
63d432e27555fb4b5785cfcd,SCN,2024-06-20_13h55.41.846,LearnStrategy,2023.2.3,Win32,58.82352941,4,1,10,-0.203877322,-0.225925954,1,0,0,1.9642,Peridotite_12,7,12,2,3,1.964,0.062789345,-0.397222201,1,0,0,1.59,Peridotite_rect,7,1.59,1,9,0,9,0,1,,,,,,,,,,,,,
63d432e27555fb4b5785cfcd,SCN,2024-06-20_13h55.41.846,LearnStrategy,2023.2.3,Win32,58.82352941,4,1,11,0.396122742,-0.254629644,1,0,0,2.7134,Diorite_06,3,06,2,7,2.713,0.166493034,-0.240740776,1,0,0,1.8629,Diorite_rect,3,1.863,1,10,0,10,0,1,,,,,,,,,,,,,
63d432e27555fb4b5785cfcd,SCN,2024-06-20_13h55.41.846,LearnStrategy,2023.2.3,Win32,58.82352941,4,1,12,-0.552951399,-0.27037042,1,0,0,6.77,Basalt_11,2,11,2,1,6.77,0.378530248,-0.412037023,1,0,0,2.1203,Pumice_rect,8,2.12,0,11,0,11,0,1,,,,,,,,,,,,,
63d432e27555fb4b5785cfcd,SCN,2024-06-20_13h55.41.846,LearnStrategy,2023.2.3,Win32,58.82352941,4,1,13,-0.387210655,0.224074078,1,0,0,3.8464,Gabbro_10,4,10,5,2,3.846,0.355382029,-0.264814822,1,0,0,2.1037,Gabbro_rect,4,2.104,1,12,0,12,0,1,,,,,,,,,,,,,
63d432e27555fb4b5785cfcd,SCN,2024-06-20_13h55.41.846,LearnStrategy,2023.2.3,Win32,58.82352941,4,1,14,0.092418989,0.095370356,1,0,0,2.0293,Andesite_05,1,05,4,5,2.029,-0.376099523,-0.25370369,1,0,0,1.1116,Andesite_rect,1,1.112,1,13,0,13,0,1,,,,,,,,,,,,,
63d432e27555fb4b5785cfcd,SCN,2024-06-20_13h55.41.846,LearnStrategy,2023.2.3,Win32,58.82352941,4,1,15,0.210011546,0.069444434,1,0,0,1.0967,Peridotite_05,7,05,4,6,1.097,0.161863454,-0.386111259,1,0,0,1.6281,Peridotite_rect,7,1.628,1,14,0,14,0,1,,,,,,,,,,,,,
63d432e27555fb4b5785cfcd,SCN,2024-06-20_13h55.41.846,LearnStrategy,2023.2.3,Win32,58.82352941,4,1,16,-0.225173569,0.252777783,1,0,0,1.5469,Pumice_02,8,02,5,3,1.547,0.403530121,-0.385185178,1,0,0,1.2606,Pumice_rect,8,1.261,1,15,0,15,0,1,,,,,,,,,,,,,
63d432e27555fb4b5785cfcd,SCN,2024-06-20_13h55.41.846,LearnStrategy,2023.2.3,Win32,58.82352941,4,2,1,,,,,,,,6,11,,,,,,,,,,,6,3.085,1,,,,,,-0.108506966,-0.397222201,1,0,0,3.085,Pegmatite_rect,0,0,0,0,1,
63d432e27555fb4b5785cfcd,SCN,2024-06-20_13h55.41.846,LearnStrategy,2023.2.3,Win32,58.82352941,4,2,2,,,,,,,,8,15,,,,,,,,,,,8,5.667,1,,,,,,0.372048569,-0.406481489,1,0,0,5.6673,Pumice_rect,1,0,1,0,1,
63d432e27555fb4b5785cfcd,SCN,2024-06-20_13h55.41.846,LearnStrategy,2023.2.3,Win32,58.82352941,4,2,3,,,,,,,,4,15,,,,,,,,,,,4,1.721,1,,,,,,0.426678212,-0.258333333,1,0,0,1.7215,Gabbro_rect,2,0,2,0,1,
63d432e27555fb4b5785cfcd,SCN,2024-06-20_13h55.41.846,LearnStrategy,2023.2.3,Win32,58.82352941,4,2,4,,,,,,,,5,07,,,,,,,,,,,5,1.52,1,,,,,,-0.369618066,-0.386111259,1,0,0,1.5199,Obsidian_rect,3,0,3,0,1,
63d432e27555fb4b5785cfcd,SCN,2024-06-20_13h55.41.846,LearnStrategy,2023.2.3,Win32,58.82352941,4,2,5,,,,,,,,5,02,,,,,,,,,,,5,0.971,1,,,,,,-0.369618066,-0.386111259,1,0,0,0.9712,Obsidian_rect,4,0,4,0,1,
63d432e27555fb4b5785cfcd,SCN,2024-06-20_13h55.41.846,LearnStrategy,2023.2.3,Win32,58.82352941,4,2,6,,,,,,,,7,14,,,,,,,,,,,7,1.698,1,,,,,,0.071122678,-0.398148155,1,0,0,1.6977,Peridotite_rect,5,0,5,0,1,
63d432e27555fb4b5785cfcd,SCN,2024-06-20_13h55.41.846,LearnStrategy,2023.2.3,Win32,58.82352941,4,2,7,,,,,,,,3,15,,,,,,,,,,,3,5.163,1,,,,,,0.169270833,-0.232407443,1,0,0,5.1633,Diorite_rect,6,0,6,0,1,
63d432e27555fb4b5785cfcd,SCN,2024-06-20_13h55.41.846,LearnStrategy,2023.2.3,Win32,58.82352941,4,2,8,,,,,,,,4,01,,,,,,,,,,,7,2.138,0,,,,,,0.120196788,-0.410185178,1,0,0,2.1384,Peridotite_rect,7,0,7,0,1,
63d432e27555fb4b5785cfcd,SCN,2024-06-20_13h55.41.846,LearnStrategy,2023.2.3,Win32,58.82352941,4,2,9,,,,,,,,1,06,,,,,,,,,,,1,1.717,1,,,,,,-0.3640625,-0.24629631,1,0,0,1.7167,Andesite_rect,8,0,8,0,1,
63d432e27555fb4b5785cfcd,SCN,2024-06-20_13h55.41.846,LearnStrategy,2023.2.3,Win32,58.82352941,4,2,10,,,,,,,,6,16,,,,,,,,,,,6,1.837,1,,,,,,-0.134432856,-0.393518511,1,0,0,1.8371,Pegmatite_rect,9,0,9,0,1,
63d432e27555fb4b5785cfcd,SCN,2024-06-20_13h55.41.846,LearnStrategy,2023.2.3,Win32,58.82352941,4,2,11,,,,,,,,3,09,,,,,,,,,,,3,1.686,1,,,,,,0.151678276,-0.239814822,1,0,0,1.6863,Diorite_rect,10,0,10,0,1,
63d432e27555fb4b5785cfcd,SCN,2024-06-20_13h55.41.846,LearnStrategy,2023.2.3,Win32,58.82352941,4,2,12,,,,,,,,8,03,,,,,,,,,,,8,1.467,1,,,,,,0.384085719,-0.381481552,1,0,0,1.4668,Pumice_rect,11,0,11,0,1,
63d432e27555fb4b5785cfcd,SCN,2024-06-20_13h55.41.846,LearnStrategy,2023.2.3,Win32,58.82352941,4,2,13,,,,,,,,2,01,,,,,,,,,,,2,2.273,1,,,,,,-0.120543989,-0.259259288,1,0,0,2.2734,Basalt_rect,12,0,12,0,1,
63d432e27555fb4b5785cfcd,SCN,2024-06-20_13h55.41.846,LearnStrategy,2023.2.3,Win32,58.82352941,4,2,14,,,,,,,,1,16,,,,,,,,,,,3,3.912,0,,,,,,0.124826368,-0.240740776,1,0,0,3.9117,Diorite_rect,13,0,13,0,1,
63d432e27555fb4b5785cfcd,SCN,2024-06-20_13h55.41.846,LearnStrategy,2023.2.3,Win32,58.82352941,4,2,15,,,,,,,,2,12,,,,,,,,,,,2,2.448,1,,,,,,-0.094618034,-0.234259288,1,0,0,2.4478,Basalt_rect,14,0,14,0,1,
63d432e27555fb4b5785cfcd,SCN,2024-06-20_13h55.41.846,LearnStrategy,2023.2.3,Win32,58.82352941,4,2,16,,,,,,,,7,02,,,,,,,,,,,7,1.522,1,,,,,,0.097048632,-0.379629644,1,0,0,1.5219,Peridotite_rect,15,0,15,0,1,
63d432e27555fb4b5785cfcd,SCN,2024-06-20_13h55.41.846,LearnStrategy,2023.2.3,Win32,58.82352941,5,1,1,0.23964119,0.383333333,1,0,0,6.6116,Pumice_13,8,13,6,6,6.612,-0.200173632,-0.247222265,1,0,0,1.5356,Basalt_rect,2,1.536,0,0,0,0,0,1,,,,,,,,,,,,,
63d432e27555fb4b5785cfcd,SCN,2024-06-20_13h55.41.846,LearnStrategy,2023.2.3,Win32,58.82352941,5,1,2,-0.052951368,0.25,1,0,0,3.6291,Pegmatite_13,6,13,5,4,3.629,-0.136284701,-0.386111259,1,0,0,1.3219,Pegmatite_rect,6,1.322,1,1,0,1,0,1,,,,,,,,,,,,,
63d432e27555fb4b5785cfcd,SCN,2024-06-20_13h55.41.846,LearnStrategy,2023.2.3,Win32,58.82352941,5,1,3,-0.576099523,0.090740744,1,0,0,1.1149,Diorite_10,3,10,4,1,1.115,0.059085655,-0.243518511,1,0,0,1.2394,Diorite_rect,3,1.239,1,2,0,2,0,1,,,,,,,,,,,,,
63d432e27555fb4b5785cfcd,SCN,2024-06-20_13h55.41.846,LearnStrategy,2023.2.3,Win32,58.82352941,5,1,4,-0.5390625,-0.089814822,1,0,0,2.5859,Basalt_05,2,05,3,1,2.586,-0.18535881,-0.260185178,1,0,0,1.4161,Basalt_rect,2,1.416,1,3,0,3,0,1,,,,,,,,,,,,,
63d432e27555fb4b5785cfcd,SCN,2024-06-20_13h55.41.846,LearnStrategy,2023.2.3,Win32,58.82352941,5,1,5,-0.214988391,-0.073148155,1,0,0,1.5497,Basalt_06,2,06,3,3,1.55,-0.149247678,-0.240740776,1,0,0,0.9886,Basalt_rect,2,0.989,1,4,0,4,0,1,,,,,,,,,,,,,
63d432e27555fb4b5785cfcd,SCN,2024-06-20_13h55.41.846,LearnStrategy,2023.2.3,Win32,58.82352941,5,1,6,0.590567144,-0.432407443,1,0,0,1.4468,Gabbro_12,4,12,1,8,1.447,0.353530121,-0.266666667,1,0,0,2.333,Gabbro_rect,4,2.333,1,5,0,5,0,1,,,,,,,,,,,,,
63d432e27555fb4b5785cfcd,SCN,2024-06-20_13h55.41.846,LearnStrategy,2023.2.3,Win32,58.82352941,5,1,7,0.225752385,-0.404629707,1,0,0,1.1122,Gabbro_14,4,14,1,6,1.112,0.422048569,-0.255555534,1,0,0,1.1913,Gabbro_rect,4,1.191,1,6,0,6,0,1,,,,,,,,,,,,,
63d432e27555fb4b5785cfcd,SCN,2024-06-20_13h55.41.846,LearnStrategy,2023.2.3,Win32,58.82352941,5,1,8,0.38964119,-0.422222201,1,0,0,1.232,Pumice_05,8,05,1,7,1.232,0.388715235,-0.407407443,1,0,0,0.9403,Pumice_rect,8,0.94,1,7,0,7,0,1,,,,,,,,,,,,,
63d432e27555fb4b5785cfcd,SCN,2024-06-20_13h55.41.846,LearnStrategy,2023.2.3,Win32,58.82352941,5,1,9,-0.218692144,-0.434259288,1,0,0,1.7153,Andesite_09,1,09,1,3,1.715,-0.324247678,-0.250925954,1,0,0,2.2924,Andesite_rect,1,2.292,1,8,0,8,0,1,,,,,,,,,,,,,
63d432e27555fb4b5785cfcd,SCN,2024-06-20_13h55.41.846,LearnStrategy,2023.2.3,Win32,58.82352941,5,1,10,-0.349247678,-0.240740776,1,0,0,1.2627,Basalt_09,2,09,2,2,1.263,-0.108506966,-0.244444466,1,0,0,2.1606,Basalt_rect,2,2.161,1,9,0,9,0,1,,,,,,,,,,,,,
63d432e27555fb4b5785cfcd,SCN,2024-06-20_13h55.41.846,LearnStrategy,2023.2.3,Win32,58.82352941,5,1,11,0.255381902,0.066666667,1,0,0,2.0305,Peridotite_05,7,05,4,6,2.031,0.159085655,-0.408333333,1,0,0,1.0241,Peridotite_rect,7,1.024,1,10,0,10,0,1,,,,,,,,,,,,,
63d432e27555fb4b5785cfcd,SCN,2024-06-20_13h55.41.846,LearnStrategy,2023.2.3,Win32,58.82352941,5,1,12,-0.354803212,0.250925922,1,0,0,1.7981,Gabbro_10,4,10,5,2,1.798,0.393344879,-0.25370369,1,0,0,2.0285,Gabbro_rect,4,2.028,1,11,0,11,0,1,,,,,,,,,,,,,
63d432e27555fb4b5785cfcd,SCN,2024-06-20_13h55.41.846,LearnStrategy,2023.2.3,Win32,58.82352941,5,1,13,0.541493098,0.243518511,1,0,0,6.1139,Pegmatite_05,6,05,5,8,6.114,-0.111284701,-0.39537042,1,0,0,2.9578,Pegmatite_rect,6,2.958,1,12,0,12,0,1,,,,,,,,,,,,,
63d432e27555fb4b5785cfcd,SCN,2024-06-20_13h55.41.846,LearnStrategy,2023.2.3,Win32,58.82352941,5,1,14,0.387789536,-0.105555534,1,0,0,2.1297,Andesite_02,1,02,3,7,2.13,0.137789345,-0.230555534,1,0,0,2.7775,Diorite_rect,3,2.778,0,13,0,13,0,1,,,,,,,,,,,,,
63d432e27555fb4b5785cfcd,SCN,2024-06-20_13h55.41.846,LearnStrategy,2023.2.3,Win32,58.82352941,5,1,15,0.209085719,-0.090740776,1,0,0,2.1637,Pumice_04,8,04,3,6,2.164,0.347974523,-0.400000064,1,0,0,1.4911,Pumice_rect,8,1.491,1,14,0,14,0,1,,,,,,,,,,,,,
63d432e27555fb4b5785cfcd,SCN,2024-06-20_13h55.41.846,LearnStrategy,2023.2.3,Win32,58.82352941,5,1,16,0.547974523,-0.113888868,1,0,0,2.1473,Andesite_03,1,03,3,8,2.147,-0.420543957,-0.254629644,1,0,0,2.0765,Andesite_rect,1,2.076,1,15,0,15,0,1,,,,,,,,,,,,,
63d432e27555fb4b5785cfcd,SCN,2024-06-20_13h55.41.846,LearnStrategy,2023.2.3,Win32,58.82352941,5,2,1,,,,,,,,8,16,,,,,,,,,,,8,1.465,1,,,,,,0.350752385,-0.383333333,1,0,0,1.4651,Pumice_rect,0,0,0,0,1,
63d432e27555fb4b5785cfcd,SCN,2024-06-20_13h55.41.846,LearnStrategy,2023.2.3,Win32,58.82352941,5,2,2,,,,,,,,4,11,,,,,,,,,,,4,3.309,1,,,,,,0.388715235,-0.252777799,1,0,0,3.3093,Gabbro_rect,1,0,1,0,1,
63d432e27555fb4b5785cfcd,SCN,2024-06-20_13h55.41.846,LearnStrategy,2023.2.3,Win32,58.82352941,5,2,3,,,,,,,,8,09,,,,,,,,,,,8,1.63,1,,,,,,0.421122742,-0.398148155,1,0,0,1.63,Pumice_rect,2,0,2,0,1,
63d432e27555fb4b5785cfcd,SCN,2024-06-20_13h55.41.846,LearnStrategy,2023.2.3,Win32,58.82352941,5,2,4,,,,,,,,7,06,,,,,,,,,,,7,1.469,1,,,,,,0.186863454,-0.397222201,1,0,0,1.4689,Peridotite_rect,3,0,3,0,1,
63d432e27555fb4b5785cfcd,SCN,2024-06-20_13h55.41.846,LearnStrategy,2023.2.3,Win32,58.82352941,5,2,5,,,,,,,,2,14,,,,,,,,,,,4,2.886,0,,,,,,0.404456075,-0.267592621,1,0,0,2.8858,Gabbro_rect,4,0,4,0,1,
63d432e27555fb4b5785cfcd,SCN,2024-06-20_13h55.41.846,LearnStrategy,2023.2.3,Win32,58.82352941,5,2,6,,,,,,,,5,16,,,,,,,,,,,5,1.751,1,,,,,,-0.425173537,-0.39537042,1,0,0,1.7515,Obsidian_rect,5,0,5,0,1,
63d432e27555fb4b5785cfcd,SCN,2024-06-20_13h55.41.846,LearnStrategy,2023.2.3,Win32,58.82352941,5,2,7,,,,,,,,4,13,,,,,,,,,,,4,1.639,1,,,,,,0.377604167,-0.250925954,1,0,0,1.6394,Gabbro_rect,6,0,6,0,1,
63d432e27555fb4b5785cfcd,SCN,2024-06-20_13h55.41.846,LearnStrategy,2023.2.3,Win32,58.82352941,5,2,8,,,,,,,,1,01,,,,,,,,,,,3,1.243,0,,,,,,0.171122678,-0.251851908,1,0,0,1.2431,Diorite_rect,7,0,7,0,1,
63d432e27555fb4b5785cfcd,SCN,2024-06-20_13h55.41.846,LearnStrategy,2023.2.3,Win32,58.82352941,5,2,9,,,,,,,,1,10,,,,,,,,,,,1,1.9,1,,,,,,-0.322395833,-0.240740776,1,0,0,1.9004,Andesite_rect,8,0,8,0,1,
63d432e27555fb4b5785cfcd,SCN,2024-06-20_13h55.41.846,LearnStrategy,2023.2.3,Win32,58.82352941,5,2,10,,,,,,,,6,09,,,,,,,,,,,6,1.411,1,,,,,,-0.148321724,-0.392592621,1,0,0,1.4109,Pegmatite_rect,9,0,9,0,1,
63d432e27555fb4b5785cfcd,SCN,2024-06-20_13h55.41.846,LearnStrategy,2023.2.3,Win32,58.82352941,5,2,11,,,,,,,,3,14,,,,,,,,,,,3,1.963,1,,,,,,0.144270833,-0.263888868,1,0,0,1.9629,Diorite_rect,10,0,10,0,1,
63d432e27555fb4b5785cfcd,SCN,2024-06-20_13h55.41.846,LearnStrategy,2023.2.3,Win32,58.82352941,5,2,12,,,,,,,,3,07,,,,,,,,,,,3,1.036,1,,,,,,0.144270833,-0.263888868,1,0,0,1.0364,Diorite_rect,11,0,11,0,1,
63d432e27555fb4b5785cfcd,SCN,2024-06-20_13h55.41.846,LearnStrategy,2023.2.3,Win32,58.82352941,5,2,13,,,,,,,,7,08,,,,,,,,,,,7,1.534,1,,,,,,0.144270833,-0.382407443,1,0,0,1.5345,Peridotite_rect,12,0,12,0,1,
63d432e27555fb4b5785cfcd,SCN,2024-06-20_13h55.41.846,LearnStrategy,2023.2.3,Win32,58.82352941,5,2,14,,,,,,,,5,09,,,,,,,,,,,5,1.485,1,,,,,,-0.343692144,-0.384259288,1,0,0,1.485,Obsidian_rect,13,0,13,0,1,
63d432e27555fb4b5785cfcd,SCN,2024-06-20_13h55.41.846,LearnStrategy,2023.2.3,Win32,58.82352941,5,2,15,,,,,,,,2,04,,,,,,,,,,,2,1.643,1,,,,,,-0.121469879,-0.263888868,1,0,0,1.6433,Basalt_rect,14,0,14,0,1,
63d432e27555fb4b5785cfcd,SCN,2024-06-20_13h55.41.846,LearnStrategy,2023.2.3,Win32,58.82352941,5,2,16,,,,,,,,6,15,,,,,,,,,,,6,2.013,1,,,,,,-0.14276619,-0.390740776,1,0,0,2.0127,Pegmatite_rect,15,0,15,0,1,
63d432e27555fb4b5785cfcd,SCN,2024-06-20_13h55.41.846,LearnStrategy,2023.2.3,Win32,58.82352941,6,1,1,-0.404803244,-0.280555534,1,0,0,4.2985,Basalt_09,2,09,2,2,4.298,-0.213136546,-0.239814822,1,0,0,1.2964,Basalt_rect,2,1.296,1,0,0,0,0,1,,,,,,,,,,,,,
63d432e27555fb4b5785cfcd,SCN,2024-06-20_13h55.41.846,LearnStrategy,2023.2.3,Win32,58.82352941,6,1,2,-0.214988391,-0.392592621,1,0,0,1.2476,Andesite_09,1,09,1,3,1.248,-0.378877322,-0.27037042,1,0,0,1.6631,Andesite_rect,1,1.663,1,1,0,1,0,1,,,,,,,,,,,,,
63d432e27555fb4b5785cfcd,SCN,2024-06-20_13h55.41.846,LearnStrategy,2023.2.3,Win32,58.82352941,6,1,3,-0.564062468,-0.266666667,1,0,0,1.6646,Basalt_11,2,11,2,1,1.665,-0.194618034,-0.255555534,1,0,0,2.5637,Basalt_rect,2,2.564,1,2,0,2,0,1,,,,,,,,,,,,,
63d432e27555fb4b5785cfcd,SCN,2024-06-20_13h55.41.846,LearnStrategy,2023.2.3,Win32,58.82352941,6,1,4,0.559085719,-0.42870369,1,0,0,1.2472,Gabbro_12,4,12,1,8,1.247,0.181307856,-0.259259288,1,0,0,1.9157,Diorite_rect,3,1.916,0,3,0,3,0,1,,,,,,,,,,,,,
63d432e27555fb4b5785cfcd,SCN,2024-06-20_13h55.41.846,LearnStrategy,2023.2.3,Win32,58.82352941,6,1,5,0.381307856,-0.114814822,1,0,0,3.7467,Andesite_02,1,02,3,7,3.747,-0.410358779,-0.238888868,1,0,0,1.2908,Andesite_rect,1,1.291,1,4,0,4,0,1,,,,,,,,,,,,,
63d432e27555fb4b5785cfcd,SCN,2024-06-20_13h55.41.846,LearnStrategy,2023.2.3,Win32,58.82352941,6,1,6,-0.232581011,-0.404629707,1,0,0,1.2869,Andesite_09,1,09,1,3,1.287,-0.362210655,-0.240740776,1,0,0,1.4487,Andesite_rect,1,1.449,1,5,0,5,0,1,,,,,,,,,,,,,
63d432e27555fb4b5785cfcd,SCN,2024-06-20_13h55.41.846,LearnStrategy,2023.2.3,Win32,58.82352941,6,1,7,-0.252025477,0.115740744,1,0,0,6.6953,Andesite_11,1,11,4,3,6.695,-0.339988391,-0.245370356,1,0,0,0.925,Andesite_rect,1,0.925,1,6,0,6,0,1,,,,,,,,,,,,,
63d432e27555fb4b5785cfcd,SCN,2024-06-20_13h55.41.846,LearnStrategy,2023.2.3,Win32,58.82352941,6,1,8,0.525752385,0.387037039,1,0,0,4.621,Basalt_02,2,02,6,8,4.621,-0.13535881,-0.238888868,1,0,0,1.7889,Basalt_rect,2,1.789,1,7,0,7,0,1,,,,,,,,,,,,,
63d432e27555fb4b5785cfcd,SCN,2024-06-20_13h55.41.846,LearnStrategy,2023.2.3,Win32,58.82352941,6,1,9,0.0859375,0.065740744,1,0,0,0.9489,Andesite_05,1,05,4,5,0.949,-0.346469879,-0.251851908,1,0,0,1.0537,Andesite_rect,1,1.054,1,8,0,8,0,1,,,,,,,,,,,,,
63d432e27555fb4b5785cfcd,SCN,2024-06-20_13h55.41.846,LearnStrategy,2023.2.3,Win32,58.82352941,6,1,10,-0.067766126,-0.120370356,1,0,0,0.8807,Peridotite_04,7,04,3,4,0.881,0.108159701,-0.413888931,1,0,0,2.0515,Peridotite_rect,7,2.052,1,9,0,9,0,1,,,,,,,,,,,,,
63d432e27555fb4b5785cfcd,SCN,2024-06-20_13h55.41.846,LearnStrategy,2023.2.3,Win32,58.82352941,6,1,11,0.083159701,0.107407411,1,0,0,0.9305,Andesite_05,1,05,4,5,0.93,-0.443692112,-0.251851908,1,0,0,0.9797,Andesite_rect,1,0.98,1,10,0,10,0,1,,,,,,,,,,,,,
63d432e27555fb4b5785cfcd,SCN,2024-06-20_13h55.41.846,LearnStrategy,2023.2.3,Win32,58.82352941,6,1,12,-0.247395833,-0.137962977,1,0,0,2.315,Basalt_06,2,06,3,3,2.315,-0.152951368,-0.254629644,1,0,0,1.8044,Basalt_rect,2,1.804,1,11,0,11,0,1,,,,,,,,,,,,,
63d432e27555fb4b5785cfcd,SCN,2024-06-20_13h55.41.846,LearnStrategy,2023.2.3,Win32,58.82352941,6,1,13,0.38964119,-0.277777799,1,0,0,2.0701,Diorite_06,3,06,2,7,2.07,0.119270833,-0.243518511,1,0,0,1.0393,Diorite_rect,3,1.039,1,12,0,12,0,1,,,,,,,,,,,,,
63d432e27555fb4b5785cfcd,SCN,2024-06-20_13h55.41.846,LearnStrategy,2023.2.3,Win32,58.82352941,6,1,14,-0.19739577,0.121296279,1,0,0,1.8639,Andesite_11,1,11,4,3,1.864,-0.393692112,-0.252777799,1,0,0,1.8769,Andesite_rect,1,1.877,1,13,0,13,0,1,,,,,,,,,,,,,
63d432e27555fb4b5785cfcd,SCN,2024-06-20_13h55.41.846,LearnStrategy,2023.2.3,Win32,58.82352941,6,1,15,-0.090914281,0.261111116,1,0,0,1.4305,Pegmatite_13,6,13,5,4,1.43,-0.173321724,-0.37870369,1,0,0,2.6033,Pegmatite_rect,6,2.603,1,14,0,14,0,1,,,,,,,,,,,,,
63d432e27555fb4b5785cfcd,SCN,2024-06-20_13h55.41.846,LearnStrategy,2023.2.3,Win32,58.82352941,6,1,16,0.260011546,0.242592589,1,0,0,3.5967,Basalt_16,2,16,5,6,3.597,0.38964119,-0.234259288,1,0,0,2.1495,Gabbro_rect,4,2.149,0,15,0,15,0,1,,,,,,,,,,,,,
63d432e27555fb4b5785cfcd,SCN,2024-06-20_13h55.41.846,LearnStrategy,2023.2.3,Win32,58.82352941,6,2,1,,,,,,,,7,16,,,,,,,,,,,7,2.9,1,,,,,,0.11464119,-0.407407443,1,0,0,2.9003,Peridotite_rect,0,0,0,0,1,
63d432e27555fb4b5785cfcd,SCN,2024-06-20_13h55.41.846,LearnStrategy,2023.2.3,Win32,58.82352941,6,2,2,,,,,,,,3,11,,,,,,,,,,,3,1.861,1,,,,,,0.106307856,-0.263888868,1,0,0,1.8608,Diorite_rect,1,0,1,0,1,
63d432e27555fb4b5785cfcd,SCN,2024-06-20_13h55.41.846,LearnStrategy,2023.2.3,Win32,58.82352941,6,2,3,,,,,,,,8,08,,,,,,,,,,,8,2.331,1,,,,,,0.362789408,-0.382407443,1,0,0,2.3307,Pumice_rect,2,0,2,0,1,
63d432e27555fb4b5785cfcd,SCN,2024-06-20_13h55.41.846,LearnStrategy,2023.2.3,Win32,58.82352941,6,2,4,,,,,,,,6,08,,,,,,,,,,,6,1.493,1,,,,,,-0.176099523,-0.394444466,1,0,0,1.4925,Pegmatite_rect,3,0,3,0,1,
63d432e27555fb4b5785cfcd,SCN,2024-06-20_13h55.41.846,LearnStrategy,2023.2.3,Win32,58.82352941,6,2,5,,,,,,,,2,08,,,,,,,,,,,2,1.613,1,,,,,,-0.195543989,-0.25,1,0,0,1.6129,Basalt_rect,4,0,4,0,1,
63d432e27555fb4b5785cfcd,SCN,2024-06-20_13h55.41.846,LearnStrategy,2023.2.3,Win32,58.82352941,6,2,6,,,,,,,,7,07,,,,,,,,,,,7,1.539,1,,,,,,0.11464119,-0.390740776,1,0,0,1.5389,Peridotite_rect,5,0,5,0,1,
63d432e27555fb4b5785cfcd,SCN,2024-06-20_13h55.41.846,LearnStrategy,2023.2.3,Win32,58.82352941,6,2,7,,,,,,,,1,07,,,,,,,,,,,3,1.362,0,,,,,,0.121122678,-0.262962977,1,0,0,1.3625,Diorite_rect,6,0,6,0,1,
63d432e27555fb4b5785cfcd,SCN,2024-06-20_13h55.41.846,LearnStrategy,2023.2.3,Win32,58.82352941,6,2,8,,,,,,,,6,07,,,,,,,,,,,6,1.46,1,,,,,,-0.089988391,-0.387962977,1,0,0,1.46,Pegmatite_rect,7,0,7,0,1,
63d432e27555fb4b5785cfcd,SCN,2024-06-20_13h55.41.846,LearnStrategy,2023.2.3,Win32,58.82352941,6,2,9,,,,,,,,4,03,,,,,,,,,,,3,1.675,0,,,,,,0.122974523,-0.240740776,1,0,0,1.6754,Diorite_rect,8,0,8,0,1,
63d432e27555fb4b5785cfcd,SCN,2024-06-20_13h55.41.846,LearnStrategy,2023.2.3,Win32,58.82352941,6,2,10,,,,,,,,5,08,,,,,,,,,,,5,1.633,1,,,,,,-0.360358779,-0.390740776,1,0,0,1.633,Obsidian_rect,9,0,9,0,1,
63d432e27555fb4b5785cfcd,SCN,2024-06-20_13h55.41.846,LearnStrategy,2023.2.3,Win32,58.82352941,6,2,11,,,,,,,,8,14,,,,,,,,,,,8,4.909,1,,,,,,0.434085719,-0.387037023,1,0,0,4.9095,Pumice_rect,10,0,10,0,1,
63d432e27555fb4b5785cfcd,SCN,2024-06-20_13h55.41.846,LearnStrategy,2023.2.3,Win32,58.82352941,6,2,12,,,,,,,,4,05,,,,,,,,,,,4,2.343,1,,,,,,0.410937627,-0.233333397,1,0,0,2.3428,Gabbro_rect,11,0,11,0,1,
63d432e27555fb4b5785cfcd,SCN,2024-06-20_13h55.41.846,LearnStrategy,2023.2.3,Win32,58.82352941,6,2,13,,,,,,,,2,10,,,,,,,,,,,2,1.57,1,,,,,,-0.124247678,-0.27129631,1,0,0,1.5701,Basalt_rect,12,0,12,0,1,
63d432e27555fb4b5785cfcd,SCN,2024-06-20_13h55.41.846,LearnStrategy,2023.2.3,Win32,58.82352941,6,2,14,,,,,,,,5,06,,,,,,,,,,,5,1.28,1,,,,,,-0.360358779,-0.384259288,1,0,0,1.2797,Obsidian_rect,13,0,13,0,1,
63d432e27555fb4b5785cfcd,SCN,2024-06-20_13h55.41.846,LearnStrategy,2023.2.3,Win32,58.82352941,6,2,15,,,,,,,,3,16,,,,,,,,,,,3,1.497,1,,,,,,0.158159701,-0.244444466,1,0,0,1.4973,Diorite_rect,14,0,14,0,1,
63d432e27555fb4b5785cfcd,SCN,2024-06-20_13h55.41.846,LearnStrategy,2023.2.3,Win32,58.82352941,6,2,16,,,,,,,,1,14,,,,,,,,,,,3,5.535,0,,,,,,0.130381966,-0.236111132,1,0,0,5.5353,Diorite_rect,15,0,15,0,1,
63d432e27555fb4b5785cfcd,SCN,2024-06-20_13h55.41.846,LearnStrategy,2023.2.3,Win32,58.82352941,7,1,1,-0.521469911,-0.252777799,1,0,0,3.38,Basalt_11,2,11,2,1,3.38,-0.176099523,-0.263888868,1,0,0,2.6097,Basalt_rect,2,2.61,1,0,0,0,0,1,,,,,,,,,,,,,
63d432e27555fb4b5785cfcd,SCN,2024-06-20_13h55.41.846,LearnStrategy,2023.2.3,Win32,58.82352941,7,1,2,-0.195543989,0.112037023,1,0,0,1.5295,Andesite_11,1,11,4,3,1.529,-0.374247678,-0.235185178,1,0,0,2.1342,Andesite_rect,1,2.134,1,1,0,1,0,1,,,,,,,,,,,,,
63d432e27555fb4b5785cfcd,SCN,2024-06-20_13h55.41.846,LearnStrategy,2023.2.3,Win32,58.82352941,7,1,3,0.23223381,-0.39629631,1,0,0,1.1017,Gabbro_14,4,14,1,6,1.102,0.410937627,-0.265740776,1,0,0,2.4275,Gabbro_rect,4,2.428,1,2,0,2,0,1,,,,,,,,,,,,,
63d432e27555fb4b5785cfcd,SCN,2024-06-20_13h55.41.846,LearnStrategy,2023.2.3,Win32,58.82352941,7,1,4,0.423900477,0.063888868,1,0,0,1.7305,Gabbro_16,4,16,4,7,1.73,-0.043692144,-0.237037023,1,0,0,3.1971,Basalt_rect,2,3.197,0,3,0,3,0,1,,,,,,,,,,,,,
63d432e27555fb4b5785cfcd,SCN,2024-06-20_13h55.41.846,LearnStrategy,2023.2.3,Win32,58.82352941,7,1,5,0.206307856,0.227777767,1,0,0,1.5974,Basalt_16,2,16,5,6,1.597,-0.139988391,-0.235185178,1,0,0,2.0699,Basalt_rect,2,2.07,1,4,0,4,0,1,,,,,,,,,,,,,
63d432e27555fb4b5785cfcd,SCN,2024-06-20_13h55.41.846,LearnStrategy,2023.2.3,Win32,58.82352941,7,1,6,-0.381655089,0.227777767,1,0,0,1.9043,Gabbro_10,4,10,5,2,1.904,0.366493098,-0.255555534,1,0,0,3.4306,Gabbro_rect,4,3.431,1,5,0,5,0,1,,,,,,,,,,,,,
63d432e27555fb4b5785cfcd,SCN,2024-06-20_13h55.41.846,LearnStrategy,2023.2.3,Win32,58.82352941,7,1,7,0.366493098,0.118518511,1,0,0,1.1296,Gabbro_16,4,16,4,7,1.13,0.336863581,-0.240740776,1,0,0,2.0663,Gabbro_rect,4,2.066,1,6,0,6,0,1,,,,,,,,,,,,,
63d432e27555fb4b5785cfcd,SCN,2024-06-20_13h55.41.846,LearnStrategy,2023.2.3,Win32,58.82352941,7,1,8,-0.079803212,0.42407407,1,0,0,1.3646,Andesite_04,1,04,6,4,1.365,-0.420543957,-0.242592684,1,0,0,0.9051,Andesite_rect,1,0.905,1,7,0,7,0,1,,,,,,,,,,,,,
63d432e27555fb4b5785cfcd,SCN,2024-06-20_13h55.41.846,LearnStrategy,2023.2.3,Win32,58.82352941,7,1,9,-0.519618066,0.241666667,1,0,0,1.5701,Gabbro_08,4,08,5,1,1.57,0.386863454,-0.236111132,1,0,0,1.5756,Gabbro_rect,4,1.576,1,8,0,8,0,1,,,,,,,,,,,,,
63d432e27555fb4b5785cfcd,SCN,2024-06-20_13h55.41.846,LearnStrategy,2023.2.3,Win32,58.82352941,7,1,10,0.533159765,0.060185178,1,0,0,0.9649,Obsidian_10,5,10,4,8,0.965,-0.3640625,-0.405555534,1,0,0,1.2799,Obsidian_rect,5,1.28,1,9,0,9,0,1,,,,,,,,,,,,,
63d432e27555fb4b5785cfcd,SCN,2024-06-20_13h55.41.846,LearnStrategy,2023.2.3,Win32,58.82352941,7,1,11,-0.106655057,-0.125925954,1,0,0,0.898,Peridotite_04,7,04,3,4,0.898,0.128530121,-0.390740776,1,0,0,1.0628,Peridotite_rect,7,1.063,1,10,0,10,0,1,,,,,,,,,,,,,
63d432e27555fb4b5785cfcd,SCN,2024-06-20_13h55.41.846,LearnStrategy,2023.2.3,Win32,58.82352941,7,1,12,-0.224247678,0.283333333,1,0,0,1.0644,Pumice_02,8,02,5,3,1.064,0.351678212,-0.388888868,1,0,0,1.1915,Pumice_rect,8,1.192,1,11,0,11,0,1,,,,,,,,,,,,,
63d432e27555fb4b5785cfcd,SCN,2024-06-20_13h55.41.846,LearnStrategy,2023.2.3,Win32,58.82352941,7,1,13,0.384085719,0.29444445,1,0,0,0.9816,Peridotite_13,7,13,5,7,0.982,0.079456011,-0.39537042,1,0,0,2.019,Peridotite_rect,7,2.019,1,12,0,12,0,1,,,,,,,,,,,,,
63d432e27555fb4b5785cfcd,SCN,2024-06-20_13h55.41.846,LearnStrategy,2023.2.3,Win32,58.82352941,7,1,14,-0.0640625,0.097222233,1,0,0,0.9881,Obsidian_04,5,04,4,4,0.988,-0.431655089,-0.414814822,1,0,0,1.0915,Obsidian_rect,5,1.091,1,13,0,13,0,1,,,,,,,,,,,,,
63d432e27555fb4b5785cfcd,SCN,2024-06-20_13h55.41.846,LearnStrategy,2023.2.3,Win32,58.82352941,7,1,15,0.085011609,-0.088888868,1,0,0,2.1299,Peridotite_10,7,10,3,5,2.13,0.141493034,-0.37870369,1,0,0,1.6635,Peridotite_rect,7,1.663,1,14,0,14,0,1,,,,,,,,,,,,,
63d432e27555fb4b5785cfcd,SCN,2024-06-20_13h55.41.846,LearnStrategy,2023.2.3,Win32,58.82352941,7,1,16,-0.36776619,0.248148139,1,0,0,1.9474,Gabbro_10,4,10,5,2,1.947,0.354456075,-0.229629644,1,0,0,1.2257,Gabbro_rect,4,1.226,1,15,0,15,0,1,,,,,,,,,,,,,
63d432e27555fb4b5785cfcd,SCN,2024-06-20_13h55.41.846,LearnStrategy,2023.2.3,Win32,58.82352941,7,2,1,,,,,,,,3,15,,,,,,,,,,,3,2.391,1,,,,,,0.1109375,-0.247222265,1,0,0,2.3911,Diorite_rect,0,0,0,0,1,
63d432e27555fb4b5785cfcd,SCN,2024-06-20_13h55.41.846,LearnStrategy,2023.2.3,Win32,58.82352941,7,2,2,,,,,,,,7,06,,,,,,,,,,,7,2.119,1,,,,,,0.121122678,-0.39537042,1,0,0,2.1193,Peridotite_rect,1,0,1,0,1,
63d432e27555fb4b5785cfcd,SCN,2024-06-20_13h55.41.846,LearnStrategy,2023.2.3,Win32,58.82352941,7,2,3,,,,,,,,2,04,,,,,,,,,,,2,1.625,1,,,,,,-0.131655057,-0.244444466,1,0,0,1.6249,Basalt_rect,2,0,2,0,1,
63d432e27555fb4b5785cfcd,SCN,2024-06-20_13h55.41.846,LearnStrategy,2023.2.3,Win32,58.82352941,7,2,4,,,,,,,,7,14,,,,,,,,,,,7,1.354,1,,,,,,0.073900477,-0.416666667,1,0,0,1.3537,Peridotite_rect,3,0,3,0,1,
63d432e27555fb4b5785cfcd,SCN,2024-06-20_13h55.41.846,LearnStrategy,2023.2.3,Win32,58.82352941,7,2,5,,,,,,,,6,08,,,,,,,,,,,6,1.283,1,,,,,,-0.076099523,-0.413888931,1,0,0,1.2831,Pegmatite_rect,4,0,4,0,1,
63d432e27555fb4b5785cfcd,SCN,2024-06-20_13h55.41.846,LearnStrategy,2023.2.3,Win32,58.82352941,7,2,6,,,,,,,,4,11,,,,,,,,,,,4,4.788,1,,,,,,0.3609375,-0.25370369,1,0,0,4.7883,Gabbro_rect,5,0,5,0,1,
63d432e27555fb4b5785cfcd,SCN,2024-06-20_13h55.41.846,LearnStrategy,2023.2.3,Win32,58.82352941,7,2,7,,,,,,,,2,14,,,,,,,,,,,4,3.208,0,,,,,,0.3609375,-0.25370369,1,0,0,3.2079,Gabbro_rect,6,0,6,0,1,
63d432e27555fb4b5785cfcd,SCN,2024-06-20_13h55.41.846,LearnStrategy,2023.2.3,Win32,58.82352941,7,2,8,,,,,,,,8,03,,,,,,,,,,,8,1.284,1,,,,,,0.404456075,-0.400925954,1,0,0,1.2837,Pumice_rect,7,0,7,0,1,
63d432e27555fb4b5785cfcd,SCN,2024-06-20_13h55.41.846,LearnStrategy,2023.2.3,Win32,58.82352941,7,2,9,,,,,,,,4,13,,,,,,,,,,,4,2.314,1,,,,,,0.371122742,-0.233333397,1,0,0,2.3136,Gabbro_rect,8,0,8,0,1,
63d432e27555fb4b5785cfcd,SCN,2024-06-20_13h55.41.846,LearnStrategy,2023.2.3,Win32,58.82352941,7,2,10,,,,,,,,3,11,,,,,,,,,,,3,1.226,1,,,,,,0.185011546,-0.255555534,1,0,0,1.2259,Diorite_rect,9,0,9,0,1,
63d432e27555fb4b5785cfcd,SCN,2024-06-20_13h55.41.846,LearnStrategy,2023.2.3,Win32,58.82352941,7,2,11,,,,,,,,1,07,,,,,,,,,,,3,1.156,0,,,,,,0.185011546,-0.255555534,1,0,0,1.1562,Diorite_rect,10,0,10,0,1,
63d432e27555fb4b5785cfcd,SCN,2024-06-20_13h55.41.846,LearnStrategy,2023.2.3,Win32,58.82352941,7,2,12,,,,,,,,6,07,,,,,,,,,,,6,1.466,1,,,,,,-0.0890625,-0.397222201,1,0,0,1.4662,Pegmatite_rect,11,0,11,0,1,
63d432e27555fb4b5785cfcd,SCN,2024-06-20_13h55.41.846,LearnStrategy,2023.2.3,Win32,58.82352941,7,2,13,,,,,,,,5,06,,,,,,,,,,,5,1.487,1,,,,,,-0.331655057,-0.389814822,1,0,0,1.4874,Obsidian_rect,12,0,12,0,1,
63d432e27555fb4b5785cfcd,SCN,2024-06-20_13h55.41.846,LearnStrategy,2023.2.3,Win32,58.82352941,7,2,14,,,,,,,,5,09,,,,,,,,,,,5,0.896,1,,,,,,-0.331655057,-0.389814822,1,0,0,0.896,Obsidian_rect,13,0,13,0,1,
63d432e27555fb4b5785cfcd,SCN,2024-06-20_13h55.41.846,LearnStrategy,2023.2.3,Win32,58.82352941,7,2,15,,,,,,,,1,14,,,,,,,,,,,1,1.345,1,,,,,,-0.358506934,-0.250925954,1,0,0,1.3449,Andesite_rect,14,0,14,0,1,
63d432e27555fb4b5785cfcd,SCN,2024-06-20_13h55.41.846,LearnStrategy,2023.2.3,Win32,58.82352941,7,2,16,,,,,,,,8,09,,,,,,,,,,,8,1.592,1,,,,,,0.398900477,-0.400925954,1,0,0,1.592,Pumice_rect,15,0,15,0,1,
63d432e27555fb4b5785cfcd,SCN,2024-06-20_13h55.41.846,LearnStrategy,2023.2.3,Win32,58.82352941,8,1,1,-0.512210655,0.055555566,1,0,0,2.8477,Diorite_10,3,10,4,1,2.848,0.174826368,-0.251851908,1,0,0,1.7936,Diorite_rect,3,1.794,1,0,0,0,0,1,,,,,,,,,,,,,
63d432e27555fb4b5785cfcd,SCN,2024-06-20_13h55.41.846,LearnStrategy,2023.2.3,Win32,58.82352941,8,1,2,0.060011609,0.097222233,1,0,0,1.1482,Andesite_05,1,05,4,5,1.148,-0.375173601,-0.242592684,1,0,0,1.1188,Andesite_rect,1,1.119,1,1,0,1,0,1,,,,,,,,,,,,,
63d432e27555fb4b5785cfcd,SCN,2024-06-20_13h55.41.846,LearnStrategy,2023.2.3,Win32,58.82352941,8,1,3,-0.232581011,0.096296279,1,0,0,1.4281,Andesite_11,1,11,4,3,1.428,-0.337210655,-0.232407443,1,0,0,0.8308,Andesite_rect,1,0.831,1,2,0,2,0,1,,,,,,,,,,,,,
63d432e27555fb4b5785cfcd,SCN,2024-06-20_13h55.41.846,LearnStrategy,2023.2.3,Win32,58.82352941,8,1,4,-0.409432856,0.395370372,1,0,0,1.2139,Diorite_13,3,13,6,2,1.214,0.166493034,-0.228703753,1,0,0,1.4915,Diorite_rect,3,1.492,1,3,0,3,0,1,,,,,,,,,,,,,
63d432e27555fb4b5785cfcd,SCN,2024-06-20_13h55.41.846,LearnStrategy,2023.2.3,Win32,58.82352941,8,1,5,-0.387210655,0.262037039,1,0,0,1.1991,Gabbro_10,4,10,5,2,1.199,0.326678212,-0.25,1,0,0,1.5615,Gabbro_rect,4,1.562,1,4,0,4,0,1,,,,,,,,,,,,,
63d432e27555fb4b5785cfcd,SCN,2024-06-20_13h55.41.846,LearnStrategy,2023.2.3,Win32,58.82352941,8,1,6,0.552604167,-0.424074109,1,0,0,2.4301,Gabbro_12,4,12,1,8,2.43,0.330381902,-0.24629631,1,0,0,3.2149,Gabbro_rect,4,3.215,1,5,0,5,0,1,,,,,,,,,,,,,
63d432e27555fb4b5785cfcd,SCN,2024-06-20_13h55.41.846,LearnStrategy,2023.2.3,Win32,58.82352941,8,1,7,-0.219618034,-0.42870369,1,0,0,1.3803,Andesite_09,1,09,1,3,1.38,-0.403877322,-0.262037023,1,0,0,0.9839,Andesite_rect,1,0.984,1,6,0,6,0,1,,,,,,,,,,,,,
63d432e27555fb4b5785cfcd,SCN,2024-06-20_13h55.41.846,LearnStrategy,2023.2.3,Win32,58.82352941,8,1,8,-0.384432856,-0.252777799,1,0,0,1.471,Basalt_09,2,09,2,2,1.471,-0.353877322,-0.252777799,1,0,0,1.9896,Andesite_rect,1,1.99,0,7,0,7,0,1,,,,,,,,,,,,,
63d432e27555fb4b5785cfcd,SCN,2024-06-20_13h55.41.846,LearnStrategy,2023.2.3,Win32,58.82352941,8,1,9,-0.529803244,-0.233333397,1,0,0,1.204,Basalt_11,2,11,2,1,1.204,-0.195543989,-0.252777799,1,0,0,1.8693,Basalt_rect,2,1.869,1,8,0,8,0,1,,,,,,,,,,,,,
63d432e27555fb4b5785cfcd,SCN,2024-06-20_13h55.41.846,LearnStrategy,2023.2.3,Win32,58.82352941,8,1,10,-0.232581011,-0.080555534,1,0,0,1.497,Basalt_06,2,06,3,3,1.497,-0.145543989,-0.238888868,1,0,0,1.8116,Basalt_rect,2,1.812,1,9,0,9,0,1,,,,,,,,,,,,,
63d432e27555fb4b5785cfcd,SCN,2024-06-20_13h55.41.846,LearnStrategy,2023.2.3,Win32,58.82352941,8,1,11,-0.410358779,0.262962961,1,0,0,1.6484,Gabbro_10,4,10,5,2,1.648,0.461863581,-0.250925954,1,0,0,1.2608,Gabbro_rect,4,1.261,1,10,0,10,0,1,,,,,,,,,,,,,
63d432e27555fb4b5785cfcd,SCN,2024-06-20_13h55.41.846,LearnStrategy,2023.2.3,Win32,58.82352941,8,1,12,0.279456075,0.118518511,1,0,0,1.3308,Peridotite_05,7,05,4,6,1.331,0.202604167,-0.415740776,1,0,0,1.4134,Peridotite_rect,7,1.413,1,11,0,11,0,1,,,,,,,,,,,,,
63d432e27555fb4b5785cfcd,SCN,2024-06-20_13h55.41.846,LearnStrategy,2023.2.3,Win32,58.82352941,8,1,13,0.242419052,0.231481489,1,0,0,0.8641,Basalt_16,2,16,5,6,0.864,-0.149247678,-0.24629631,1,0,0,1.4857,Basalt_rect,2,1.486,1,12,0,12,0,1,,,,,,,,,,,,,
63d432e27555fb4b5785cfcd,SCN,2024-06-20_13h55.41.846,LearnStrategy,2023.2.3,Win32,58.82352941,8,1,14,0.511863454,0.408333325,1,0,0,2.1783,Basalt_02,2,02,6,8,2.178,-0.097395833,-0.255555534,1,0,0,1.2653,Basalt_rect,2,1.265,1,13,0,13,0,1,,,,,,,,,,,,,
63d432e27555fb4b5785cfcd,SCN,2024-06-20_13h55.41.846,LearnStrategy,2023.2.3,Win32,58.82352941,8,1,15,-0.5390625,-0.125925954,1,0,0,7.6487,Basalt_05,2,05,3,1,7.649,-0.141840235,-0.240740776,1,0,0,1.316,Basalt_rect,2,1.316,1,14,0,14,0,1,,,,,,,,,,,,,
63d432e27555fb4b5785cfcd,SCN,2024-06-20_13h55.41.846,LearnStrategy,2023.2.3,Win32,58.82352941,8,1,16,-0.390914345,-0.3,1,0,0,1.6153,Basalt_09,2,09,2,2,1.615,-0.156655057,-0.252777799,1,0,0,1.5168,Basalt_rect,2,1.517,1,15,0,15,0,1,,,,,,,,,,,,,
63d432e27555fb4b5785cfcd,SCN,2024-06-20_13h55.41.846,LearnStrategy,2023.2.3,Win32,58.82352941,8,2,1,,,,,,,,3,16,,,,,,,,,,,3,1.508,1,,,,,,0.102604167,-0.241666667,1,0,0,1.5085,Diorite_rect,0,0,0,0,1,
63d432e27555fb4b5785cfcd,SCN,2024-06-20_13h55.41.846,LearnStrategy,2023.2.3,Win32,58.82352941,8,2,2,,,,,,,,4,15,,,,,,,,,,,4,2.749,1,,,,,,0.360011673,-0.262037023,1,0,0,2.7493,Gabbro_rect,1,0,1,0,1,
63d432e27555fb4b5785cfcd,SCN,2024-06-20_13h55.41.846,LearnStrategy,2023.2.3,Win32,58.82352941,8,2,3,,,,,,,,2,08,,,,,,,,,,,2,1.86,1,,,,,,-0.132580948,-0.250925954,1,0,0,1.8601,Basalt_rect,2,0,2,0,1,
63d432e27555fb4b5785cfcd,SCN,2024-06-20_13h55.41.846,LearnStrategy,2023.2.3,Win32,58.82352941,8,2,4,,,,,,,,8,16,,,,,,,,,,,8,1.539,1,,,,,,0.354456075,-0.397222201,1,0,0,1.5385,Pumice_rect,3,0,3,0,1,
63d432e27555fb4b5785cfcd,SCN,2024-06-20_13h55.41.846,LearnStrategy,2023.2.3,Win32,58.82352941,8,2,5,,,,,,,,8,08,,,,,,,,,,,8,0.919,1,,,,,,0.354456075,-0.397222201,1,0,0,0.9188,Pumice_rect,4,0,4,0,1,
63d432e27555fb4b5785cfcd,SCN,2024-06-20_13h55.41.846,LearnStrategy,2023.2.3,Win32,58.82352941,8,2,6,,,,,,,,1,06,,,,,,,,,,,1,2.095,1,,,,,,-0.343692144,-0.244444466,1,0,0,2.0951,Andesite_rect,5,0,5,0,1,
63d432e27555fb4b5785cfcd,SCN,2024-06-20_13h55.41.846,LearnStrategy,2023.2.3,Win32,58.82352941,8,2,7,,,,,,,,4,01,,,,,,,,,,,7,1.781,0,,,,,,0.072048632,-0.401851845,1,0,0,1.7813,Peridotite_rect,6,0,6,0,1,
63d432e27555fb4b5785cfcd,SCN,2024-06-20_13h55.41.846,LearnStrategy,2023.2.3,Win32,58.82352941,8,2,8,,,,,,,,7,07,,,,,,,,,,,7,1.285,1,,,,,,0.072048632,-0.401851845,1,0,0,1.2851,Peridotite_rect,7,0,7,0,1,
63d432e27555fb4b5785cfcd,SCN,2024-06-20_13h55.41.846,LearnStrategy,2023.2.3,Win32,58.82352941,8,2,9,,,,,,,,6,11,,,,,,,,,,,6,2.091,1,,,,,,-0.143692144,-0.400000064,1,0,0,2.0905,Pegmatite_rect,8,0,8,0,1,
63d432e27555fb4b5785cfcd,SCN,2024-06-20_13h55.41.846,LearnStrategy,2023.2.3,Win32,58.82352941,8,2,10,,,,,,,,2,01,,,,,,,,,,,2,1.622,1,,,,,,-0.145543989,-0.252777799,1,0,0,1.622,Basalt_rect,9,0,9,0,1,
63d432e27555fb4b5785cfcd,SCN,2024-06-20_13h55.41.846,LearnStrategy,2023.2.3,Win32,58.82352941,8,2,11,,,,,,,,3,07,,,,,,,,,,,3,1.482,1,,,,,,0.096122678,-0.266666667,1,0,0,1.4822,Diorite_rect,10,0,10,0,1,
63d432e27555fb4b5785cfcd,SCN,2024-06-20_13h55.41.846,LearnStrategy,2023.2.3,Win32,58.82352941,8,2,12,,,,,,,,7,16,,,,,,,,,,,7,3.095,1,,,,,,0.121122678,-0.408333333,1,0,0,3.0951,Peridotite_rect,11,0,11,0,1,
63d432e27555fb4b5785cfcd,SCN,2024-06-20_13h55.41.846,LearnStrategy,2023.2.3,Win32,58.82352941,8,2,13,,,,,,,,5,02,,,,,,,,,,,5,1.859,1,,,,,,-0.347395833,-0.391666667,1,0,0,1.8592,Obsidian_rect,12,0,12,0,1,
63d432e27555fb4b5785cfcd,SCN,2024-06-20_13h55.41.846,LearnStrategy,2023.2.3,Win32,58.82352941,8,2,14,,,,,,,,6,09,,,,,,,,,,,6,1.624,1,,,,,,-0.18535881,-0.398148155,1,0,0,1.6235,Pegmatite_rect,13,0,13,0,1,
63d432e27555fb4b5785cfcd,SCN,2024-06-20_13h55.41.846,LearnStrategy,2023.2.3,Win32,58.82352941,8,2,15,,,,,,,,1,10,,,,,,,,,,,1,1.942,1,,,,,,-0.379803244,-0.244444466,1,0,0,1.9418,Andesite_rect,14,0,14,0,1,
63d432e27555fb4b5785cfcd,SCN,2024-06-20_13h55.41.846,LearnStrategy,2023.2.3,Win32,58.82352941,8,2,16,,,,,,,,5,16,,,,,,,,,,,5,1.723,1,,,,,,-0.372395833,-0.385185178,1,0,0,1.7231,Obsidian_rect,15,0,15,0,1,
63d432e27555fb4b5785cfcd,SCN,2024-06-20_13h55.41.846,LearnStrategy,2023.2.3,Win32,58.82352941,9,1,1,0.066493034,0.274074078,1,0,0,2.6134,Diorite_02,3,02,5,5,2.613,0.098900477,-0.240740776,1,0,0,1.2193,Diorite_rect,3,1.219,1,0,0,0,0,1,,,,,,,,,,,,,
63d432e27555fb4b5785cfcd,SCN,2024-06-20_13h55.41.846,LearnStrategy,2023.2.3,Win32,58.82352941,9,1,2,-0.544618066,0.266666667,1,0,0,1.7365,Gabbro_08,4,08,5,1,1.736,0.383160019,-0.241666667,1,0,0,2.0848,Gabbro_rect,4,2.085,1,1,0,1,0,1,,,,,,,,,,,,,
63d432e27555fb4b5785cfcd,SCN,2024-06-20_13h55.41.846,LearnStrategy,2023.2.3,Win32,58.82352941,9,1,3,0.236863454,-0.394444466,1,0,0,2.3483,Gabbro_14,4,14,1,6,2.348,0.403530121,-0.252777799,1,0,0,1.28,Gabbro_rect,4,1.28,1,2,0,2,0,1,,,,,,,,,,,,,
63d432e27555fb4b5785cfcd,SCN,2024-06-20_13h55.41.846,LearnStrategy,2023.2.3,Win32,58.82352941,9,1,4,-0.568692112,-0.390740776,1,0,0,1.9698,Gabbro_09,4,09,1,1,1.97,0.412789408,-0.228703753,1,0,0,1.5164,Gabbro_rect,4,1.516,1,3,0,3,0,1,,,,,,,,,,,,,
63d432e27555fb4b5785cfcd,SCN,2024-06-20_13h55.41.846,LearnStrategy,2023.2.3,Win32,58.82352941,9,1,5,-0.239988391,-0.248148155,1,0,0,4.1463,Peridotite_12,7,12,2,3,4.146,0.171122678,-0.400000064,1,0,0,1.7379,Peridotite_rect,7,1.738,1,4,0,4,0,1,,,,,,,,,,,,,
63d432e27555fb4b5785cfcd,SCN,2024-06-20_13h55.41.846,LearnStrategy,2023.2.3,Win32,58.82352941,9,1,6,-0.057581011,-0.244444466,1,0,0,1.1467,Pegmatite_12,6,12,2,4,1.147,-0.113136546,-0.39537042,1,0,0,1.3161,Pegmatite_rect,6,1.316,1,5,0,5,0,1,,,,,,,,,,,,,
63d432e27555fb4b5785cfcd,SCN,2024-06-20_13h55.41.846,LearnStrategy,2023.2.3,Win32,58.82352941,9,1,7,0.379456075,0.061111101,1,0,0,2.931,Gabbro_16,4,16,4,7,2.931,0.397974523,-0.24629631,1,0,0,1.7815,Gabbro_rect,4,1.782,1,6,0,6,0,1,,,,,,,,,,,,,
63d432e27555fb4b5785cfcd,SCN,2024-06-20_13h55.41.846,LearnStrategy,2023.2.3,Win32,58.82352941,9,1,8,0.220196788,0.065740744,1,0,0,0.9638,Peridotite_05,7,05,4,6,0.964,0.20723381,-0.387962977,1,0,0,1.4224,Peridotite_rect,7,1.422,1,7,0,7,0,1,,,,,,,,,,,,,
63d432e27555fb4b5785cfcd,SCN,2024-06-20_13h55.41.846,LearnStrategy,2023.2.3,Win32,58.82352941,9,1,9,0.428530121,0.407407403,1,0,0,7.5444,Peridotite_15,7,15,6,7,7.544,0.130381966,-0.410185178,1,0,0,1.3255,Peridotite_rect,7,1.325,1,8,0,8,0,1,,,,,,,,,,,,,
63d432e27555fb4b5785cfcd,SCN,2024-06-20_13h55.41.846,LearnStrategy,2023.2.3,Win32,58.82352941,9,1,10,0.056307856,0.398148147,1,0,0,1.4636,Diorite_12,3,12,6,5,1.464,0.167418989,-0.247222265,1,0,0,1.1008,Diorite_rect,3,1.101,1,9,0,9,0,1,,,,,,,,,,,,,
63d432e27555fb4b5785cfcd,SCN,2024-06-20_13h55.41.846,LearnStrategy,2023.2.3,Win32,58.82352941,9,1,11,-0.439988422,0.425925922,1,0,0,1.6303,Diorite_13,3,13,6,2,1.63,0.152604167,-0.228703753,1,0,0,1.5171,Diorite_rect,3,1.517,1,10,0,10,0,1,,,,,,,,,,,,,
63d432e27555fb4b5785cfcd,SCN,2024-06-20_13h55.41.846,LearnStrategy,2023.2.3,Win32,58.82352941,9,1,12,-0.519618066,0.266666667,1,0,0,3.1555,Gabbro_08,4,08,5,1,3.156,0.373900604,-0.265740776,1,0,0,3.5196,Gabbro_rect,4,3.52,1,11,0,11,0,1,,,,,,,,,,,,,
63d432e27555fb4b5785cfcd,SCN,2024-06-20_13h55.41.846,LearnStrategy,2023.2.3,Win32,58.82352941,9,1,13,-0.498321756,-0.242592684,1,0,0,1.8469,Basalt_11,2,11,2,1,1.847,-0.094618034,-0.259259288,1,0,0,1.726,Basalt_rect,2,1.726,1,12,0,12,0,1,,,,,,,,,,,,,
63d432e27555fb4b5785cfcd,SCN,2024-06-20_13h55.41.846,LearnStrategy,2023.2.3,Win32,58.82352941,9,1,14,-0.066840299,-0.117592684,1,0,0,1.0483,Peridotite_04,7,04,3,4,1.048,0.136863454,-0.399074109,1,0,0,1.1244,Peridotite_rect,7,1.124,1,13,0,13,0,1,,,,,,,,,,,,,
63d432e27555fb4b5785cfcd,SCN,2024-06-20_13h55.41.846,LearnStrategy,2023.2.3,Win32,58.82352941,9,1,15,0.092418989,0.066666667,1,0,0,1.0144,Andesite_05,1,05,4,5,1.014,-0.424247678,-0.233333397,1,0,0,1.583,Andesite_rect,1,1.583,1,14,0,14,0,1,,,,,,,,,,,,,
63d432e27555fb4b5785cfcd,SCN,2024-06-20_13h55.41.846,LearnStrategy,2023.2.3,Win32,58.82352941,9,1,16,-0.245543989,0.237962961,1,0,0,1.9981,Pumice_02,8,02,5,3,1.998,0.319270833,-0.386111259,1,0,0,1.3947,Pumice_rect,8,1.395,1,15,0,15,0,1,,,,,,,,,,,,,
63d432e27555fb4b5785cfcd,SCN,2024-06-20_13h55.41.846,LearnStrategy,2023.2.3,Win32,58.82352941,9,2,1,,,,,,,,6,16,,,,,,,,,,,6,1.685,1,,,,,,-0.138136546,-0.405555534,1,0,0,1.6846,Pegmatite_rect,0,0,0,0,1,
63d432e27555fb4b5785cfcd,SCN,2024-06-20_13h55.41.846,LearnStrategy,2023.2.3,Win32,58.82352941,9,2,2,,,,,,,,3,09,,,,,,,,,,,3,1.8,1,,,,,,0.133159701,-0.254629644,1,0,0,1.8004,Diorite_rect,1,0,1,0,1,
63d432e27555fb4b5785cfcd,SCN,2024-06-20_13h55.41.846,LearnStrategy,2023.2.3,Win32,58.82352941,9,2,3,,,,,,,,7,02,,,,,,,,,,,7,1.802,1,,,,,,0.140567144,-0.387962977,1,0,0,1.8021,Peridotite_rect,2,0,2,0,1,
63d432e27555fb4b5785cfcd,SCN,2024-06-20_13h55.41.846,LearnStrategy,2023.2.3,Win32,58.82352941,9,2,4,,,,,,,,5,08,,,,,,,,,,,5,1.91,1,,,,,,-0.308506966,-0.400000064,1,0,0,1.9099,Obsidian_rect,3,0,3,0,1,
63d432e27555fb4b5785cfcd,SCN,2024-06-20_13h55.41.846,LearnStrategy,2023.2.3,Win32,58.82352941,9,2,5,,,,,,,,3,14,,,,,,,,,,,3,1.884,1,,,,,,0.127604167,-0.25,1,0,0,1.8838,Diorite_rect,4,0,4,0,1,
63d432e27555fb4b5785cfcd,SCN,2024-06-20_13h55.41.846,LearnStrategy,2023.2.3,Win32,58.82352941,9,2,6,,,,,,,,4,03,,,,,,,,,,,3,8.321,0,,,,,,0.127604167,-0.25,1,0,0,8.3214,Diorite_rect,5,0,5,0,1,
63d432e27555fb4b5785cfcd,SCN,2024-06-20_13h55.41.846,LearnStrategy,2023.2.3,Win32,58.82352941,9,2,7,,,,,,,,2,12,,,,,,,,,,,2,2.191,1,,,,,,-0.112210655,-0.248148155,1,0,0,2.1905,Basalt_rect,6,0,6,0,1,
63d432e27555fb4b5785cfcd,SCN,2024-06-20_13h55.41.846,LearnStrategy,2023.2.3,Win32,58.82352941,9,2,8,,,,,,,,8,15,,,,,,,,,,,8,3.413,1,,,,,,0.347974523,-0.389814822,1,0,0,3.4131,Pumice_rect,7,0,7,0,1,
63d432e27555fb4b5785cfcd,SCN,2024-06-20_13h55.41.846,LearnStrategy,2023.2.3,Win32,58.82352941,9,2,9,,,,,,,,6,15,,,,,,,,,,,6,1.786,1,,,,,,-0.07239577,-0.391666667,1,0,0,1.7858,Pegmatite_rect,8,0,8,0,1,
63d432e27555fb4b5785cfcd,SCN,2024-06-20_13h55.41.846,LearnStrategy,2023.2.3,Win32,58.82352941,9,2,10,,,,,,,,4,05,,,,,,,,,,,4,1.827,1,,,,,,0.380381902,-0.262037023,1,0,0,1.8266,Gabbro_rect,9,0,9,0,1,
63d432e27555fb4b5785cfcd,SCN,2024-06-20_13h55.41.846,LearnStrategy,2023.2.3,Win32,58.82352941,9,2,11,,,,,,,,8,14,,,,,,,,,,,8,1.463,1,,,,,,0.404456075,-0.389814822,1,0,0,1.4628,Pumice_rect,10,0,10,0,1,
63d432e27555fb4b5785cfcd,SCN,2024-06-20_13h55.41.846,LearnStrategy,2023.2.3,Win32,58.82352941,9,2,12,,,,,,,,1,16,,,,,,,,,,,3,3.674,0,,,,,,0.0859375,-0.250925954,1,0,0,3.6738,Diorite_rect,11,0,11,0,1,
63d432e27555fb4b5785cfcd,SCN,2024-06-20_13h55.41.846,LearnStrategy,2023.2.3,Win32,58.82352941,9,2,13,,,,,,,,2,10,,,,,,,,,,,2,1.871,1,,,,,,-0.091840299,-0.264814822,1,0,0,1.8708,Basalt_rect,12,0,12,0,1,
63d432e27555fb4b5785cfcd,SCN,2024-06-20_13h55.41.846,LearnStrategy,2023.2.3,Win32,58.82352941,9,2,14,,,,,,,,7,08,,,,,,,,,,,7,1.641,1,,,,,,0.106307856,-0.400000064,1,0,0,1.6406,Peridotite_rect,13,0,13,0,1,
63d432e27555fb4b5785cfcd,SCN,2024-06-20_13h55.41.846,LearnStrategy,2023.2.3,Win32,58.82352941,9,2,15,,,,,,,,5,07,,,,,,,,,,,5,1.557,1,,,,,,-0.341840299,-0.407407443,1,0,0,1.5566,Obsidian_rect,14,0,14,0,1,
63d432e27555fb4b5785cfcd,SCN,2024-06-20_13h55.41.846,LearnStrategy,2023.2.3,Win32,58.82352941,9,2,16,,,,,,,,1,01,,,,,,,,,,,3,1.698,0,,,,,,0.110011609,-0.267592621,1,0,0,1.6977,Diorite_rect,15,0,15,0,1,
63d432e27555fb4b5785cfcd,SCN,2024-06-20_13h55.41.846,LearnStrategy,2023.2.3,Win32,58.82352941,,,,,,,,,,,,,,,,,,,,,,,,,,,,,,,,,,,,,,,,,,,1
63d432e27555fb4b5785cfcd,SCN,2024-06-20_13h55.41.846,LearnStrategy,2023.2.3,Win32,58.82352941,,,,,,,,,,,,,,,,,,,,,,,,,,,,,,,,,,,,,,,,,,,
63d432e27555fb4b5785cfcd,SCN,2024-06-20_13h55.41.846,LearnStrategy,2023.2.3,Win32,58.82352941,,,,,,,,,,,4,09,1,1,,,,,,,,,,,,,,,,,,,,,,,,,,,,,
63d432e27555fb4b5785cfcd,SCN,2024-06-20_13h55.41.846,LearnStrategy,2023.2.3,Win32,58.82352941,,,,,,,,,,,8,10,1,2,,,,,,,,,,,,,,,,,,,,,,,,,,,,,
63d432e27555fb4b5785cfcd,SCN,2024-06-20_13h55.41.846,LearnStrategy,2023.2.3,Win32,58.82352941,,,,,,,,,,,1,09,1,3,,,,,,,,,,,,,,,,,,,,,,,,,,,,,
63d432e27555fb4b5785cfcd,SCN,2024-06-20_13h55.41.846,LearnStrategy,2023.2.3,Win32,58.82352941,,,,,,,,,,,5,11,1,4,,,,,,,,,,,,,,,,,,,,,,,,,,,,,
63d432e27555fb4b5785cfcd,SCN,2024-06-20_13h55.41.846,LearnStrategy,2023.2.3,Win32,58.82352941,,,,,,,,,,,6,03,1,5,,,,,,,,,,,,,,,,,,,,,,,,,,,,,
63d432e27555fb4b5785cfcd,SCN,2024-06-20_13h55.41.846,LearnStrategy,2023.2.3,Win32,58.82352941,,,,,,,,,,,4,14,1,6,,,,,,,,,,,,,,,,,,,,,,,,,,,,,
63d432e27555fb4b5785cfcd,SCN,2024-06-20_13h55.41.846,LearnStrategy,2023.2.3,Win32,58.82352941,,,,,,,,,,,8,05,1,7,,,,,,,,,,,,,,,,,,,,,,,,,,,,,
63d432e27555fb4b5785cfcd,SCN,2024-06-20_13h55.41.846,LearnStrategy,2023.2.3,Win32,58.82352941,,,,,,,,,,,4,12,1,8,,,,,,,,,,,,,,,,,,,,,,,,,,,,,
63d432e27555fb4b5785cfcd,SCN,2024-06-20_13h55.41.846,LearnStrategy,2023.2.3,Win32,58.82352941,,,,,,,,,,,2,11,2,1,,,,,,,,,,,,,,,,,,,,,,,,,,,,,
63d432e27555fb4b5785cfcd,SCN,2024-06-20_13h55.41.846,LearnStrategy,2023.2.3,Win32,58.82352941,,,,,,,,,,,2,09,2,2,,,,,,,,,,,,,,,,,,,,,,,,,,,,,
63d432e27555fb4b5785cfcd,SCN,2024-06-20_13h55.41.846,LearnStrategy,2023.2.3,Win32,58.82352941,,,,,,,,,,,7,12,2,3,,,,,,,,,,,,,,,,,,,,,,,,,,,,,
63d432e27555fb4b5785cfcd,SCN,2024-06-20_13h55.41.846,LearnStrategy,2023.2.3,Win32,58.82352941,,,,,,,,,,,6,12,2,4,,,,,,,,,,,,,,,,,,,,,,,,,,,,,
63d432e27555fb4b5785cfcd,SCN,2024-06-20_13h55.41.846,LearnStrategy,2023.2.3,Win32,58.82352941,,,,,,,,,,,6,06,2,5,,,,,,,,,,,,,,,,,,,,,,,,,,,,,
63d432e27555fb4b5785cfcd,SCN,2024-06-20_13h55.41.846,LearnStrategy,2023.2.3,Win32,58.82352941,,,,,,,,,,,8,06,2,6,,,,,,,,,,,,,,,,,,,,,,,,,,,,,
63d432e27555fb4b5785cfcd,SCN,2024-06-20_13h55.41.846,LearnStrategy,2023.2.3,Win32,58.82352941,,,,,,,,,,,3,06,2,7,,,,,,,,,,,,,,,,,,,,,,,,,,,,,
63d432e27555fb4b5785cfcd,SCN,2024-06-20_13h55.41.846,LearnStrategy,2023.2.3,Win32,58.82352941,,,,,,,,,,,6,10,2,8,,,,,,,,,,,,,,,,,,,,,,,,,,,,,
63d432e27555fb4b5785cfcd,SCN,2024-06-20_13h55.41.846,LearnStrategy,2023.2.3,Win32,58.82352941,,,,,,,,,,,2,05,3,1,,,,,,,,,,,,,,,,,,,,,,,,,,,,,
63d432e27555fb4b5785cfcd,SCN,2024-06-20_13h55.41.846,LearnStrategy,2023.2.3,Win32,58.82352941,,,,,,,,,,,5,14,3,2,,,,,,,,,,,,,,,,,,,,,,,,,,,,,
63d432e27555fb4b5785cfcd,SCN,2024-06-20_13h55.41.846,LearnStrategy,2023.2.3,Win32,58.82352941,,,,,,,,,,,2,06,3,3,,,,,,,,,,,,,,,,,,,,,,,,,,,,,
63d432e27555fb4b5785cfcd,SCN,2024-06-20_13h55.41.846,LearnStrategy,2023.2.3,Win32,58.82352941,,,,,,,,,,,7,04,3,4,,,,,,,,,,,,,,,,,,,,,,,,,,,,,
63d432e27555fb4b5785cfcd,SCN,2024-06-20_13h55.41.846,LearnStrategy,2023.2.3,Win32,58.82352941,,,,,,,,,,,7,10,3,5,,,,,,,,,,,,,,,,,,,,,,,,,,,,,
63d432e27555fb4b5785cfcd,SCN,2024-06-20_13h55.41.846,LearnStrategy,2023.2.3,Win32,58.82352941,,,,,,,,,,,8,04,3,6,,,,,,,,,,,,,,,,,,,,,,,,,,,,,
63d432e27555fb4b5785cfcd,SCN,2024-06-20_13h55.41.846,LearnStrategy,2023.2.3,Win32,58.82352941,,,,,,,,,,,1,02,3,7,,,,,,,,,,,,,,,,,,,,,,,,,,,,,
63d432e27555fb4b5785cfcd,SCN,2024-06-20_13h55.41.846,LearnStrategy,2023.2.3,Win32,58.82352941,,,,,,,,,,,1,03,3,8,,,,,,,,,,,,,,,,,,,,,,,,,,,,,
63d432e27555fb4b5785cfcd,SCN,2024-06-20_13h55.41.846,LearnStrategy,2023.2.3,Win32,58.82352941,,,,,,,,,,,3,10,4,1,,,,,,,,,,,,,,,,,,,,,,,,,,,,,
63d432e27555fb4b5785cfcd,SCN,2024-06-20_13h55.41.846,LearnStrategy,2023.2.3,Win32,58.82352941,,,,,,,,,,,5,12,4,2,,,,,,,,,,,,,,,,,,,,,,,,,,,,,
63d432e27555fb4b5785cfcd,SCN,2024-06-20_13h55.41.846,LearnStrategy,2023.2.3,Win32,58.82352941,,,,,,,,,,,1,11,4,3,,,,,,,,,,,,,,,,,,,,,,,,,,,,,
63d432e27555fb4b5785cfcd,SCN,2024-06-20_13h55.41.846,LearnStrategy,2023.2.3,Win32,58.82352941,,,,,,,,,,,5,04,4,4,,,,,,,,,,,,,,,,,,,,,,,,,,,,,
63d432e27555fb4b5785cfcd,SCN,2024-06-20_13h55.41.846,LearnStrategy,2023.2.3,Win32,58.82352941,,,,,,,,,,,1,05,4,5,,,,,,,,,,,,,,,,,,,,,,,,,,,,,
63d432e27555fb4b5785cfcd,SCN,2024-06-20_13h55.41.846,LearnStrategy,2023.2.3,Win32,58.82352941,,,,,,,,,,,7,05,4,6,,,,,,,,,,,,,,,,,,,,,,,,,,,,,
63d432e27555fb4b5785cfcd,SCN,2024-06-20_13h55.41.846,LearnStrategy,2023.2.3,Win32,58.82352941,,,,,,,,,,,4,16,4,7,,,,,,,,,,,,,,,,,,,,,,,,,,,,,
63d432e27555fb4b5785cfcd,SCN,2024-06-20_13h55.41.846,LearnStrategy,2023.2.3,Win32,58.82352941,,,,,,,,,,,5,10,4,8,,,,,,,,,,,,,,,,,,,,,,,,,,,,,
63d432e27555fb4b5785cfcd,SCN,2024-06-20_13h55.41.846,LearnStrategy,2023.2.3,Win32,58.82352941,,,,,,,,,,,4,08,5,1,,,,,,,,,,,,,,,,,,,,,,,,,,,,,
63d432e27555fb4b5785cfcd,SCN,2024-06-20_13h55.41.846,LearnStrategy,2023.2.3,Win32,58.82352941,,,,,,,,,,,4,10,5,2,,,,,,,,,,,,,,,,,,,,,,,,,,,,,
63d432e27555fb4b5785cfcd,SCN,2024-06-20_13h55.41.846,LearnStrategy,2023.2.3,Win32,58.82352941,,,,,,,,,,,8,02,5,3,,,,,,,,,,,,,,,,,,,,,,,,,,,,,
63d432e27555fb4b5785cfcd,SCN,2024-06-20_13h55.41.846,LearnStrategy,2023.2.3,Win32,58.82352941,,,,,,,,,,,6,13,5,4,,,,,,,,,,,,,,,,,,,,,,,,,,,,,
63d432e27555fb4b5785cfcd,SCN,2024-06-20_13h55.41.846,LearnStrategy,2023.2.3,Win32,58.82352941,,,,,,,,,,,3,02,5,5,,,,,,,,,,,,,,,,,,,,,,,,,,,,,
63d432e27555fb4b5785cfcd,SCN,2024-06-20_13h55.41.846,LearnStrategy,2023.2.3,Win32,58.82352941,,,,,,,,,,,2,16,5,6,,,,,,,,,,,,,,,,,,,,,,,,,,,,,
63d432e27555fb4b5785cfcd,SCN,2024-06-20_13h55.41.846,LearnStrategy,2023.2.3,Win32,58.82352941,,,,,,,,,,,7,13,5,7,,,,,,,,,,,,,,,,,,,,,,,,,,,,,
63d432e27555fb4b5785cfcd,SCN,2024-06-20_13h55.41.846,LearnStrategy,2023.2.3,Win32,58.82352941,,,,,,,,,,,6,05,5,8,,,,,,,,,,,,,,,,,,,,,,,,,,,,,
63d432e27555fb4b5785cfcd,SCN,2024-06-20_13h55.41.846,LearnStrategy,2023.2.3,Win32,58.82352941,,,,,,,,,,,3,08,6,1,,,,,,,,,,,,,,,,,,,,,,,,,,,,,
63d432e27555fb4b5785cfcd,SCN,2024-06-20_13h55.41.846,LearnStrategy,2023.2.3,Win32,58.82352941,,,,,,,,,,,3,13,6,2,,,,,,,,,,,,,,,,,,,,,,,,,,,,,
63d432e27555fb4b5785cfcd,SCN,2024-06-20_13h55.41.846,LearnStrategy,2023.2.3,Win32,58.82352941,,,,,,,,,,,5,05,6,3,,,,,,,,,,,,,,,,,,,,,,,,,,,,,
63d432e27555fb4b5785cfcd,SCN,2024-06-20_13h55.41.846,LearnStrategy,2023.2.3,Win32,58.82352941,,,,,,,,,,,1,04,6,4,,,,,,,,,,,,,,,,,,,,,,,,,,,,,
63d432e27555fb4b5785cfcd,SCN,2024-06-20_13h55.41.846,LearnStrategy,2023.2.3,Win32,58.82352941,,,,,,,,,,,3,12,6,5,,,,,,,,,,,,,,,,,,,,,,,,,,,,,
63d432e27555fb4b5785cfcd,SCN,2024-06-20_13h55.41.846,LearnStrategy,2023.2.3,Win32,58.82352941,,,,,,,,,,,8,13,6,6,,,,,,,,,,,,,,,,,,,,,,,,,,,,,
63d432e27555fb4b5785cfcd,SCN,2024-06-20_13h55.41.846,LearnStrategy,2023.2.3,Win32,58.82352941,,,,,,,,,,,7,15,6,7,,,,,,,,,,,,,,,,,,,,,,,,,,,,,
63d432e27555fb4b5785cfcd,SCN,2024-06-20_13h55.41.846,LearnStrategy,2023.2.3,Win32,58.82352941,,,,,,,,,,,2,02,6,8,,,,,,,,,,,,,,,,,,,,,,,,,,,,,