participant,condition,date,expName,psychopyVersion,OS,frameRate,block,phase,trial,learn_mouse.x,learn_mouse.y,learn_mouse.leftButton,learn_mouse.midButton,learn_mouse.rightButton,learn_mouse.time,learn_mouse.clicked_name,cat,token,row,col,t_select,cat_rec,token_rec,cat_mouse_l.x,cat_mouse_l.y,cat_mouse_l.leftButton,cat_mouse_l.midButton,cat_mouse_l.rightButton,cat_mouse_l.time,cat_mouse_l.clicked_name,resp,t_resp,corr,train_trials.thisRepN,train_trials.thisTrialN,train_trials.thisN,train_trials.thisIndex,train_trials.ran,cat_mouse_t.x,cat_mouse_t.y,cat_mouse_t.leftButton,cat_mouse_t.midButton,cat_mouse_t.rightButton,cat_mouse_t.time,cat_mouse_t.clicked_name,test_trials.thisRepN,test_trials.thisTrialN,test_trials.thisN,test_trials.thisIndex,test_trials.ran,Bonus
63d9bbe653e18c0a4e74f51f,SCR,2024-06-11_14h59.16.742,LearnStrategy,2023.2.3,Win32,59.95203837,,,,,,,,,,,,,,,,,,,,,,,,,,,,,,,,,,,,,,,,,,,,,
63d9bbe653e18c0a4e74f51f,SCR,2024-06-11_14h59.16.742,LearnStrategy,2023.2.3,Win32,59.95203837,1,1,1,-0.498148148,0.099074074,1,0,0,1.525,Gabbro_03,4,03,4,1,1.525,4,03,0.183333333,-0.25,1,0,0,3.911,Diorite_rect,3,3.911,0,0,0,0,0,1,,,,,,,,,,,,,
63d9bbe653e18c0a4e74f51f,SCR,2024-06-11_14h59.16.742,LearnStrategy,2023.2.3,Win32,59.95203837,1,1,2,-0.571296296,0.255555556,1,0,0,1.266,Basalt_10,2,10,5,1,1.266,2,10,-0.131481481,-0.244444444,1,0,0,1.063,Basalt_rect,2,1.063,1,1,0,1,0,1,,,,,,,,,,,,,
63d9bbe653e18c0a4e74f51f,SCR,2024-06-11_14h59.16.742,LearnStrategy,2023.2.3,Win32,59.95203837,1,1,3,-0.237962963,0.282407407,1,0,0,0.796,Diorite_08,3,08,5,3,0.796,3,08,-0.348148148,-0.392592593,1,0,0,3.733,Obsidian_rect,5,3.733,0,2,0,2,0,1,,,,,,,,,,,,,
63d9bbe653e18c0a4e74f51f,SCR,2024-06-11_14h59.16.742,LearnStrategy,2023.2.3,Win32,59.95203837,1,1,4,0.538888889,0.410185185,1,0,0,1.113,Pumice_15,8,15,6,8,1.113,8,15,-0.326851852,-0.260185185,1,0,0,1.841,Andesite_rect,1,1.841,0,3,0,3,0,1,,,,,,,,,,,,,
63d9bbe653e18c0a4e74f51f,SCR,2024-06-11_14h59.16.742,LearnStrategy,2023.2.3,Win32,59.95203837,1,1,5,0.411111111,-0.091666667,1,0,0,0.909,Pegmatite_05,6,05,3,7,0.909,6,05,-0.087037037,-0.24537037,1,0,0,2.145,Basalt_rect,2,2.145,0,4,0,4,0,1,,,,,,,,,,,,,
63d9bbe653e18c0a4e74f51f,SCR,2024-06-11_14h59.16.742,LearnStrategy,2023.2.3,Win32,59.95203837,1,1,6,-0.357407407,0.418518519,1,0,0,0.946,Pumice_09,8,09,6,2,0.946,8,09,0.377777778,-0.25,1,0,0,4.327,Gabbro_rect,4,4.327,0,5,0,5,0,1,,,,,,,,,,,,,
63d9bbe653e18c0a4e74f51f,SCR,2024-06-11_14h59.16.742,LearnStrategy,2023.2.3,Win32,59.95203837,1,1,7,-0.194444444,0.087037037,1,0,0,0.736,Diorite_02,3,02,4,3,0.736,3,02,0.051851852,-0.255555556,1,0,0,1.977,Diorite_rect,3,1.977,1,6,0,6,0,1,,,,,,,,,,,,,
63d9bbe653e18c0a4e74f51f,SCR,2024-06-11_14h59.16.742,LearnStrategy,2023.2.3,Win32,59.95203837,1,1,8,-0.216666667,-0.101851852,1,0,0,0.779,Peridotite_13,7,13,3,3,0.779,7,13,0.166666667,-0.242592593,1,0,0,1.622,Diorite_rect,3,1.622,0,7,0,7,0,1,,,,,,,,,,,,,
63d9bbe653e18c0a4e74f51f,SCR,2024-06-11_14h59.16.742,LearnStrategy,2023.2.3,Win32,59.95203837,1,1,9,-0.360185185,-0.223148148,1,0,0,1.012,Pegmatite_11,6,11,2,2,1.012,6,11,-0.411111111,-0.262962963,1,0,0,0.67,Andesite_rect,1,0.67,0,8,0,8,0,1,,,,,,,,,,,,,
63d9bbe653e18c0a4e74f51f,SCR,2024-06-11_14h59.16.742,LearnStrategy,2023.2.3,Win32,59.95203837,1,1,10,0.12037037,0.249074074,1,0,0,0.93,Peridotite_12,7,12,5,5,0.93,7,12,0.133333333,-0.261111111,1,0,0,1.854,Diorite_rect,3,1.854,0,9,0,9,0,1,,,,,,,,,,,,,
63d9bbe653e18c0a4e74f51f,SCR,2024-06-11_14h59.16.742,LearnStrategy,2023.2.3,Win32,59.95203837,1,1,11,-0.230555556,0.432407407,1,0,0,0.745,Obsidian_08,5,08,6,3,0.745,5,08,-0.168518519,-0.409259259,1,0,0,2.059,Pegmatite_rect,6,2.059,0,10,0,10,0,1,,,,,,,,,,,,,
63d9bbe653e18c0a4e74f51f,SCR,2024-06-11_14h59.16.742,LearnStrategy,2023.2.3,Win32,59.95203837,1,1,12,0.261111111,0.247222222,1,0,0,0.797,Basalt_01,2,01,5,6,0.797,2,01,0.365740741,-0.39537037,1,0,0,0.938,Pumice_rect,8,0.938,0,11,0,11,0,1,,,,,,,,,,,,,
63d9bbe653e18c0a4e74f51f,SCR,2024-06-11_14h59.16.742,LearnStrategy,2023.2.3,Win32,59.95203837,1,1,13,0.57037037,-0.405555556,1,0,0,1.094,Gabbro_15,4,15,1,8,1.094,4,15,-0.371296296,-0.390740741,1,0,0,1.815,Obsidian_rect,5,1.815,0,12,0,12,0,1,,,,,,,,,,,,,
63d9bbe653e18c0a4e74f51f,SCR,2024-06-11_14h59.16.742,LearnStrategy,2023.2.3,Win32,59.95203837,1,1,14,0.430555556,0.436111111,1,0,0,1.08,Andesite_07,1,07,6,7,1.08,1,07,0.097222222,-0.228703704,1,0,0,4.181,Diorite_rect,3,4.181,0,13,0,13,0,1,,,,,,,,,,,,,
63d9bbe653e18c0a4e74f51f,SCR,2024-06-11_14h59.16.742,LearnStrategy,2023.2.3,Win32,59.95203837,1,1,15,0.416666667,-0.287962963,1,0,0,0.716,Andesite_02,1,02,2,7,0.716,1,02,-0.417592593,-0.247222222,1,0,0,1.046,Andesite_rect,1,1.046,1,14,0,14,0,1,,,,,,,,,,,,,
63d9bbe653e18c0a4e74f51f,SCR,2024-06-11_14h59.16.742,LearnStrategy,2023.2.3,Win32,59.95203837,1,1,16,0.089814815,0.42037037,1,0,0,0.88,Obsidian_04,5,04,6,5,0.88,5,04,-0.349074074,-0.417592593,1,0,0,3.137,Obsidian_rect,5,3.137,1,15,0,15,0,1,,,,,,,,,,,,,
63d9bbe653e18c0a4e74f51f,SCR,2024-06-11_14h59.16.742,LearnStrategy,2023.2.3,Win32,59.95203837,1,2,1,,,,,,,,2,16,,,,,,,,,,,,,7,2.588,0,,,,,,0.143518519,-0.403703704,1,0,0,2.588,Peridotite_rect,0,0,0,0,1,
63d9bbe653e18c0a4e74f51f,SCR,2024-06-11_14h59.16.742,LearnStrategy,2023.2.3,Win32,59.95203837,1,2,2,,,,,,,,1,05,,,,,,,,,,,,,2,0.464,0,,,,,,-0.089814815,-0.252777778,1,0,0,0.464,Basalt_rect,1,0,1,0,1,
63d9bbe653e18c0a4e74f51f,SCR,2024-06-11_14h59.16.742,LearnStrategy,2023.2.3,Win32,59.95203837,1,2,3,,,,,,,,4,05,,,,,,,,,,,,,3,0.254,0,,,,,,0.183333333,-0.241666667,1,0,0,0.254,Diorite_rect,2,0,2,0,1,
63d9bbe653e18c0a4e74f51f,SCR,2024-06-11_14h59.16.742,LearnStrategy,2023.2.3,Win32,59.95203837,1,2,4,,,,,,,,3,10,,,,,,,,,,,,,4,0.978,0,,,,,,0.335185185,-0.27037037,1,0,0,0.978,Gabbro_rect,3,0,3,0,1,
63d9bbe653e18c0a4e74f51f,SCR,2024-06-11_14h59.16.742,LearnStrategy,2023.2.3,Win32,59.95203837,1,2,5,,,,,,,,8,02,,,,,,,,,,,,,5,0.517,0,,,,,,-0.442592593,-0.416666667,1,0,0,0.517,Obsidian_rect,4,0,4,0,1,
63d9bbe653e18c0a4e74f51f,SCR,2024-06-11_14h59.16.742,LearnStrategy,2023.2.3,Win32,59.95203837,1,2,6,,,,,,,,7,10,,,,,,,,,,,,,1,0.039,0,,,,,,-0.400925926,-0.247222222,1,0,0,0.039,Andesite_rect,5,0,5,0,1,
63d9bbe653e18c0a4e74f51f,SCR,2024-06-11_14h59.16.742,LearnStrategy,2023.2.3,Win32,59.95203837,1,2,7,,,,,,,,5,14,,,,,,,,,,,,,5,3.196,1,,,,,,-0.372222222,-0.393518519,1,0,0,3.196,Obsidian_rect,6,0,6,0,1,
63d9bbe653e18c0a4e74f51f,SCR,2024-06-11_14h59.16.742,LearnStrategy,2023.2.3,Win32,59.95203837,1,2,8,,,,,,,,5,16,,,,,,,,,,,,,5,0.688,1,,,,,,-0.372222222,-0.393518519,1,0,0,0.688,Obsidian_rect,7,0,7,0,1,
63d9bbe653e18c0a4e74f51f,SCR,2024-06-11_14h59.16.742,LearnStrategy,2023.2.3,Win32,59.95203837,1,2,9,,,,,,,,6,07,,,,,,,,,,,,,2,1.051,0,,,,,,-0.180555556,-0.24537037,1,0,0,1.051,Basalt_rect,8,0,8,0,1,
63d9bbe653e18c0a4e74f51f,SCR,2024-06-11_14h59.16.742,LearnStrategy,2023.2.3,Win32,59.95203837,1,2,10,,,,,,,,8,03,,,,,,,,,,,,,6,0.441,0,,,,,,-0.131481481,-0.390740741,1,0,0,0.441,Pegmatite_rect,9,0,9,0,1,
63d9bbe653e18c0a4e74f51f,SCR,2024-06-11_14h59.16.742,LearnStrategy,2023.2.3,Win32,59.95203837,1,2,11,,,,,,,,2,05,,,,,,,,,,,,,2,1.452,1,,,,,,-0.131481481,-0.236111111,1,0,0,1.452,Basalt_rect,10,0,10,0,1,
63d9bbe653e18c0a4e74f51f,SCR,2024-06-11_14h59.16.742,LearnStrategy,2023.2.3,Win32,59.95203837,1,2,12,,,,,,,,1,04,,,,,,,,,,,,,7,1.907,0,,,,,,0.167592593,-0.409259259,1,0,0,1.907,Peridotite_rect,11,0,11,0,1,
63d9bbe653e18c0a4e74f51f,SCR,2024-06-11_14h59.16.742,LearnStrategy,2023.2.3,Win32,59.95203837,1,2,13,,,,,,,,6,06,,,,,,,,,,,,,8,0.996,0,,,,,,0.340740741,-0.418518519,1,0,0,0.996,Pumice_rect,12,0,12,0,1,
63d9bbe653e18c0a4e74f51f,SCR,2024-06-11_14h59.16.742,LearnStrategy,2023.2.3,Win32,59.95203837,1,2,14,,,,,,,,4,12,,,,,,,,,,,,,1,2.279,0,,,,,,-0.440740741,-0.242592593,1,0,0,2.279,Andesite_rect,13,0,13,0,1,
63d9bbe653e18c0a4e74f51f,SCR,2024-06-11_14h59.16.742,LearnStrategy,2023.2.3,Win32,59.95203837,1,2,15,,,,,,,,7,04,,,,,,,,,,,,,3,1.859,0,,,,,,0.09537037,-0.252777778,1,0,0,1.859,Diorite_rect,14,0,14,0,1,
63d9bbe653e18c0a4e74f51f,SCR,2024-06-11_14h59.16.742,LearnStrategy,2023.2.3,Win32,59.95203837,1,2,16,,,,,,,,3,11,,,,,,,,,,,,,3,0.716,1,,,,,,0.09537037,-0.252777778,1,0,0,0.716,Diorite_rect,15,0,15,0,1,
63d9bbe653e18c0a4e74f51f,SCR,2024-06-11_14h59.16.742,LearnStrategy,2023.2.3,Win32,59.95203837,2,1,1,0.583333333,0.240740741,1,0,0,1.73,Basalt_02,2,02,5,8,1.73,2,02,0.116666667,-0.237962963,1,0,0,1.524,Diorite_rect,3,1.524,0,0,0,0,0,1,,,,,,,,,,,,,
63d9bbe653e18c0a4e74f51f,SCR,2024-06-11_14h59.16.742,LearnStrategy,2023.2.3,Win32,59.95203837,2,1,2,-0.242592593,-0.417592593,1,0,0,0.795,Peridotite_02,7,02,1,3,0.795,7,02,-0.199074074,-0.241666667,1,0,0,0.548,Basalt_rect,2,0.548,0,1,0,1,0,1,,,,,,,,,,,,,
63d9bbe653e18c0a4e74f51f,SCR,2024-06-11_14h59.16.742,LearnStrategy,2023.2.3,Win32,59.95203837,2,1,3,0.438888889,-0.247222222,1,0,0,0.78,Andesite_02,1,02,2,7,0.78,1,02,0.401851852,-0.402777778,1,0,0,3.121,Pumice_rect,8,3.121,0,2,0,2,0,1,,,,,,,,,,,,,
63d9bbe653e18c0a4e74f51f,SCR,2024-06-11_14h59.16.742,LearnStrategy,2023.2.3,Win32,59.95203837,2,1,4,-0.436111111,0.275925926,1,0,0,1.13,Andesite_09,1,09,5,2,1.13,1,09,-0.373148148,-0.25,1,0,0,0.831,Andesite_rect,1,0.831,1,3,0,3,0,1,,,,,,,,,,,,,
63d9bbe653e18c0a4e74f51f,SCR,2024-06-11_14h59.16.742,LearnStrategy,2023.2.3,Win32,59.95203837,2,1,5,0.414814815,0.253703704,1,0,0,0.763,Peridotite_07,7,07,5,7,0.763,7,07,0.158333333,-0.237037037,1,0,0,0.567,Diorite_rect,3,0.567,0,4,0,4,0,1,,,,,,,,,,,,,
63d9bbe653e18c0a4e74f51f,SCR,2024-06-11_14h59.16.742,LearnStrategy,2023.2.3,Win32,59.95203837,2,1,6,-0.232407407,0.216666667,1,0,0,0.666,Diorite_08,3,08,5,3,0.666,3,08,0.1,-0.246296296,1,0,0,1.318,Diorite_rect,3,1.318,1,5,0,5,0,1,,,,,,,,,,,,,
63d9bbe653e18c0a4e74f51f,SCR,2024-06-11_14h59.16.742,LearnStrategy,2023.2.3,Win32,59.95203837,2,1,7,0.553703704,-0.294444444,1,0,0,1.064,Pumice_08,8,08,2,8,1.064,8,08,0.362037037,-0.394444444,1,0,0,1.82,Pumice_rect,8,1.82,1,6,0,6,0,1,,,,,,,,,,,,,
63d9bbe653e18c0a4e74f51f,SCR,2024-06-11_14h59.16.742,LearnStrategy,2023.2.3,Win32,59.95203837,2,1,8,-0.265740741,-0.434259259,1,0,0,1.05,Peridotite_02,7,02,1,3,1.05,7,02,-0.089814815,-0.400925926,1,0,0,1.51,Pegmatite_rect,6,1.51,0,7,0,7,0,1,,,,,,,,,,,,,
63d9bbe653e18c0a4e74f51f,SCR,2024-06-11_14h59.16.742,LearnStrategy,2023.2.3,Win32,59.95203837,2,1,9,0.557407407,-0.246296296,1,0,0,1.166,Pumice_08,8,08,2,8,1.166,8,08,0.389814815,-0.412962963,1,0,0,0.918,Pumice_rect,8,0.918,1,8,0,8,0,1,,,,,,,,,,,,,
63d9bbe653e18c0a4e74f51f,SCR,2024-06-11_14h59.16.742,LearnStrategy,2023.2.3,Win32,59.95203837,2,1,10,0.250925926,0.450925926,1,0,0,1.03,Gabbro_08,4,08,6,6,1.03,4,08,0.175,-0.240740741,1,0,0,0.878,Diorite_rect,3,0.878,0,9,0,9,0,1,,,,,,,,,,,,,
63d9bbe653e18c0a4e74f51f,SCR,2024-06-11_14h59.16.742,LearnStrategy,2023.2.3,Win32,59.95203837,2,1,11,-0.036111111,-0.250925926,1,0,0,0.781,Pegmatite_10,6,10,2,4,0.781,6,10,-0.328703704,-0.260185185,1,0,0,3.645,Andesite_rect,1,3.645,0,10,0,10,0,1,,,,,,,,,,,,,
63d9bbe653e18c0a4e74f51f,SCR,2024-06-11_14h59.16.742,LearnStrategy,2023.2.3,Win32,59.95203837,2,1,12,-0.356481481,-0.239814815,1,0,0,0.916,Pegmatite_11,6,11,2,2,0.916,6,11,-0.434259259,-0.257407407,1,0,0,1.301,Andesite_rect,1,1.301,0,11,0,11,0,1,,,,,,,,,,,,,
63d9bbe653e18c0a4e74f51f,SCR,2024-06-11_14h59.16.742,LearnStrategy,2023.2.3,Win32,59.95203837,2,1,13,0.397222222,0.40462963,1,0,0,0.915,Andesite_07,1,07,6,7,0.915,1,07,0.45462963,-0.238888889,1,0,0,1.301,Gabbro_rect,4,1.301,0,12,0,12,0,1,,,,,,,,,,,,,
63d9bbe653e18c0a4e74f51f,SCR,2024-06-11_14h59.16.742,LearnStrategy,2023.2.3,Win32,59.95203837,2,1,14,0.534259259,-0.375925926,1,0,0,0.932,Gabbro_15,4,15,1,8,0.932,4,15,-0.317592593,-0.262037037,1,0,0,1.52,Andesite_rect,1,1.52,0,13,0,13,0,1,,,,,,,,,,,,,
63d9bbe653e18c0a4e74f51f,SCR,2024-06-11_14h59.16.742,LearnStrategy,2023.2.3,Win32,59.95203837,2,1,15,-0.200925926,0.212037037,1,0,0,0.732,Diorite_08,3,08,5,3,0.732,3,08,-0.148148148,-0.408333333,1,0,0,2.741,Pegmatite_rect,6,2.741,0,14,0,14,0,1,,,,,,,,,,,,,
63d9bbe653e18c0a4e74f51f,SCR,2024-06-11_14h59.16.742,LearnStrategy,2023.2.3,Win32,59.95203837,2,1,16,-0.084259259,-0.103703704,1,0,0,0.532,Basalt_09,2,09,3,4,0.532,2,09,-0.159259259,-0.261111111,1,0,0,2.309,Basalt_rect,2,2.309,1,15,0,15,0,1,,,,,,,,,,,,,
63d9bbe653e18c0a4e74f51f,SCR,2024-06-11_14h59.16.742,LearnStrategy,2023.2.3,Win32,59.95203837,2,2,1,,,,,,,,3,13,,,,,,,,,,,,,3,3.531,1,,,,,,0.100925926,-0.261111111,1,0,0,3.531,Diorite_rect,0,0,0,0,1,
63d9bbe653e18c0a4e74f51f,SCR,2024-06-11_14h59.16.742,LearnStrategy,2023.2.3,Win32,59.95203837,2,2,2,,,,,,,,6,03,,,,,,,,,,,,,4,1.842,0,,,,,,0.384259259,-0.228703704,1,0,0,1.842,Gabbro_rect,1,0,1,0,1,
63d9bbe653e18c0a4e74f51f,SCR,2024-06-11_14h59.16.742,LearnStrategy,2023.2.3,Win32,59.95203837,2,2,3,,,,,,,,7,14,,,,,,,,,,,,,4,0.701,0,,,,,,0.35462963,-0.230555556,1,0,0,0.701,Gabbro_rect,2,0,2,0,1,
63d9bbe653e18c0a4e74f51f,SCR,2024-06-11_14h59.16.742,LearnStrategy,2023.2.3,Win32,59.95203837,2,2,4,,,,,,,,4,14,,,,,,,,,,,,,7,1.135,0,,,,,,0.181481481,-0.394444444,1,0,0,1.135,Peridotite_rect,3,0,3,0,1,
63d9bbe653e18c0a4e74f51f,SCR,2024-06-11_14h59.16.742,LearnStrategy,2023.2.3,Win32,59.95203837,2,2,5,,,,,,,,1,14,,,,,,,,,,,,,3,2.107,0,,,,,,0.102777778,-0.247222222,1,0,0,2.107,Diorite_rect,4,0,4,0,1,
63d9bbe653e18c0a4e74f51f,SCR,2024-06-11_14h59.16.742,LearnStrategy,2023.2.3,Win32,59.95203837,2,2,6,,,,,,,,8,13,,,,,,,,,,,,,8,1.497,1,,,,,,0.343518519,-0.413888889,1,0,0,1.497,Pumice_rect,5,0,5,0,1,
63d9bbe653e18c0a4e74f51f,SCR,2024-06-11_14h59.16.742,LearnStrategy,2023.2.3,Win32,59.95203837,2,2,7,,,,,,,,5,12,,,,,,,,,,,,,5,1.259,1,,,,,,-0.385185185,-0.421296296,1,0,0,1.259,Obsidian_rect,6,0,6,0,1,
63d9bbe653e18c0a4e74f51f,SCR,2024-06-11_14h59.16.742,LearnStrategy,2023.2.3,Win32,59.95203837,2,2,8,,,,,,,,6,13,,,,,,,,,,,,,2,1.206,0,,,,,,-0.037962963,-0.234259259,1,0,0,1.206,Basalt_rect,7,0,7,0,1,
63d9bbe653e18c0a4e74f51f,SCR,2024-06-11_14h59.16.742,LearnStrategy,2023.2.3,Win32,59.95203837,2,2,9,,,,,,,,7,05,,,,,,,,,,,,,1,3.257,0,,,,,,-0.376851852,-0.268518519,1,0,0,3.257,Andesite_rect,8,0,8,0,1,
63d9bbe653e18c0a4e74f51f,SCR,2024-06-11_14h59.16.742,LearnStrategy,2023.2.3,Win32,59.95203837,2,2,10,,,,,,,,1,10,,,,,,,,,,,,,2,2.091,0,,,,,,-0.033333333,-0.247222222,1,0,0,2.091,Basalt_rect,9,0,9,0,1,
63d9bbe653e18c0a4e74f51f,SCR,2024-06-11_14h59.16.742,LearnStrategy,2023.2.3,Win32,59.95203837,2,2,11,,,,,,,,4,10,,,,,,,,,,,,,4,1.887,1,,,,,,0.335185185,-0.258333333,1,0,0,1.887,Gabbro_rect,10,0,10,0,1,
63d9bbe653e18c0a4e74f51f,SCR,2024-06-11_14h59.16.742,LearnStrategy,2023.2.3,Win32,59.95203837,2,2,12,,,,,,,,5,11,,,,,,,,,,,,,5,1.061,1,,,,,,-0.417592593,-0.387962963,1,0,0,1.061,Obsidian_rect,11,0,11,0,1,
63d9bbe653e18c0a4e74f51f,SCR,2024-06-11_14h59.16.742,LearnStrategy,2023.2.3,Win32,59.95203837,2,2,13,,,,,,,,2,08,,,,,,,,,,,,,5,1.143,0,,,,,,-0.375925926,-0.382407407,1,0,0,1.143,Obsidian_rect,12,0,12,0,1,
63d9bbe653e18c0a4e74f51f,SCR,2024-06-11_14h59.16.742,LearnStrategy,2023.2.3,Win32,59.95203837,2,2,14,,,,,,,,3,07,,,,,,,,,,,,,3,1.057,1,,,,,,0.127777778,-0.237962963,1,0,0,1.057,Diorite_rect,13,0,13,0,1,
63d9bbe653e18c0a4e74f51f,SCR,2024-06-11_14h59.16.742,LearnStrategy,2023.2.3,Win32,59.95203837,2,2,15,,,,,,,,8,06,,,,,,,,,,,,,6,2.8,0,,,,,,-0.089814815,-0.402777778,1,0,0,2.8,Pegmatite_rect,14,0,14,0,1,
63d9bbe653e18c0a4e74f51f,SCR,2024-06-11_14h59.16.742,LearnStrategy,2023.2.3,Win32,59.95203837,2,2,16,,,,,,,,2,04,,,,,,,,,,,,,5,1.283,0,,,,,,-0.412037037,-0.393518519,1,0,0,1.283,Obsidian_rect,15,0,15,0,1,
63d9bbe653e18c0a4e74f51f,SCR,2024-06-11_14h59.16.742,LearnStrategy,2023.2.3,Win32,59.95203837,3,1,1,-0.278703704,-0.419444444,1,0,0,59.902,Peridotite_02,7,02,1,3,59.902,7,02,-0.353703704,-0.255555556,1,0,0,1.013,Andesite_rect,1,1.013,0,0,0,0,0,1,,,,,,,,,,,,,
63d9bbe653e18c0a4e74f51f,SCR,2024-06-11_14h59.16.742,LearnStrategy,2023.2.3,Win32,59.95203837,3,1,2,-0.517592593,-0.252777778,1,0,0,0.879,Obsidian_05,5,05,2,1,0.879,5,05,-0.452777778,-0.407407407,1,0,0,1.262,Obsidian_rect,5,1.262,1,1,0,1,0,1,,,,,,,,,,,,,
63d9bbe653e18c0a4e74f51f,SCR,2024-06-11_14h59.16.742,LearnStrategy,2023.2.3,Win32,59.95203837,3,1,3,0.269444444,-0.258333333,1,0,0,0.729,Andesite_03,1,03,2,6,0.729,1,03,0.075,-0.40462963,1,0,0,2.421,Peridotite_rect,7,2.421,0,2,0,2,0,1,,,,,,,,,,,,,
63d9bbe653e18c0a4e74f51f,SCR,2024-06-11_14h59.16.742,LearnStrategy,2023.2.3,Win32,59.95203837,3,1,4,-0.353703704,0.283333333,1,0,0,0.983,Andesite_09,1,09,5,2,0.983,1,09,0.062037037,-0.248148148,1,0,0,1.396,Diorite_rect,3,1.396,0,3,0,3,0,1,,,,,,,,,,,,,
63d9bbe653e18c0a4e74f51f,SCR,2024-06-11_14h59.16.742,LearnStrategy,2023.2.3,Win32,59.95203837,3,1,5,-0.121296296,-0.262037037,1,0,0,1.016,Pegmatite_10,6,10,2,4,1.016,6,10,0.353703704,-0.250925926,1,0,0,0.738,Gabbro_rect,4,0.738,0,4,0,4,0,1,,,,,,,,,,,,,
63d9bbe653e18c0a4e74f51f,SCR,2024-06-11_14h59.16.742,LearnStrategy,2023.2.3,Win32,59.95203837,3,1,6,-0.046296296,0.436111111,1,0,0,0.847,Basalt_06,2,06,6,4,0.847,2,06,-0.387037037,-0.392592593,1,0,0,1.233,Obsidian_rect,5,1.233,0,5,0,5,0,1,,,,,,,,,,,,,
63d9bbe653e18c0a4e74f51f,SCR,2024-06-11_14h59.16.742,LearnStrategy,2023.2.3,Win32,59.95203837,3,1,7,0.060185185,-0.092592593,1,0,0,0.563,Gabbro_11,4,11,3,5,0.563,4,11,0.135185185,-0.266666667,1,0,0,1.271,Diorite_rect,3,1.271,0,6,0,6,0,1,,,,,,,,,,,,,
63d9bbe653e18c0a4e74f51f,SCR,2024-06-11_14h59.16.742,LearnStrategy,2023.2.3,Win32,59.95203837,3,1,8,0.05462963,-0.091666667,1,0,0,0.565,Gabbro_11,4,11,3,5,0.565,4,11,0.374074074,-0.266666667,1,0,0,2.091,Gabbro_rect,4,2.091,1,7,0,7,0,1,,,,,,,,,,,,,
63d9bbe653e18c0a4e74f51f,SCR,2024-06-11_14h59.16.742,LearnStrategy,2023.2.3,Win32,59.95203837,3,1,9,-0.405555556,-0.365740741,1,0,0,0.728,Peridotite_15,7,15,1,2,0.728,7,15,0.067592593,-0.386111111,1,0,0,0.88,Peridotite_rect,7,0.88,1,8,0,8,0,1,,,,,,,,,,,,,
63d9bbe653e18c0a4e74f51f,SCR,2024-06-11_14h59.16.742,LearnStrategy,2023.2.3,Win32,59.95203837,3,1,10,-0.193518519,-0.386111111,1,0,0,0.748,Peridotite_02,7,02,1,3,0.748,7,02,0.103703704,-0.391666667,1,0,0,0.697,Peridotite_rect,7,0.697,1,9,0,9,0,1,,,,,,,,,,,,,
63d9bbe653e18c0a4e74f51f,SCR,2024-06-11_14h59.16.742,LearnStrategy,2023.2.3,Win32,59.95203837,3,1,11,-0.060185185,-0.401851852,1,0,0,0.695,Pegmatite_15,6,15,1,4,0.695,6,15,0.096296296,-0.381481481,1,0,0,1.1,Peridotite_rect,7,1.1,0,10,0,10,0,1,,,,,,,,,,,,,
63d9bbe653e18c0a4e74f51f,SCR,2024-06-11_14h59.16.742,LearnStrategy,2023.2.3,Win32,59.95203837,3,1,12,-0.223148148,0.105555556,1,0,0,0.765,Diorite_02,3,02,4,3,0.765,3,02,0.142592593,-0.237962963,1,0,0,0.952,Diorite_rect,3,0.952,1,11,0,11,0,1,,,,,,,,,,,,,
63d9bbe653e18c0a4e74f51f,SCR,2024-06-11_14h59.16.742,LearnStrategy,2023.2.3,Win32,59.95203837,3,1,13,0.533333333,-0.25462963,1,0,0,0.849,Pumice_08,8,08,2,8,0.849,8,08,0.459259259,-0.398148148,1,0,0,0.544,Pumice_rect,8,0.544,1,12,0,12,0,1,,,,,,,,,,,,,
63d9bbe653e18c0a4e74f51f,SCR,2024-06-11_14h59.16.742,LearnStrategy,2023.2.3,Win32,59.95203837,3,1,14,0.212037037,0.262037037,1,0,0,0.798,Basalt_01,2,01,5,6,0.798,2,01,-0.215740741,-0.247222222,1,0,0,2.01,Basalt_rect,2,2.01,1,13,0,13,0,1,,,,,,,,,,,,,
63d9bbe653e18c0a4e74f51f,SCR,2024-06-11_14h59.16.742,LearnStrategy,2023.2.3,Win32,59.95203837,3,1,15,0.542592593,0.411111111,1,0,0,0.915,Pumice_15,8,15,6,8,0.915,8,15,0.362962963,-0.389814815,1,0,0,1.253,Pumice_rect,8,1.253,1,14,0,14,0,1,,,,,,,,,,,,,
63d9bbe653e18c0a4e74f51f,SCR,2024-06-11_14h59.16.742,LearnStrategy,2023.2.3,Win32,59.95203837,3,1,16,-0.372222222,0.096296296,1,0,0,0.712,Pegmatite_08,6,08,4,2,0.712,6,08,-0.360185185,-0.262037037,1,0,0,5.04,Andesite_rect,1,5.04,0,15,0,15,0,1,,,,,,,,,,,,,
63d9bbe653e18c0a4e74f51f,SCR,2024-06-11_14h59.16.742,LearnStrategy,2023.2.3,Win32,59.95203837,3,2,1,,,,,,,,4,01,,,,,,,,,,,,,7,22.881,0,,,,,,0.087037037,-0.399074074,1,0,0,22.881,Peridotite_rect,0,0,0,0,1,
63d9bbe653e18c0a4e74f51f,SCR,2024-06-11_14h59.16.742,LearnStrategy,2023.2.3,Win32,59.95203837,3,2,2,,,,,,,,8,10,,,,,,,,,,,,,8,0.949,1,,,,,,0.391666667,-0.402777778,1,0,0,0.949,Pumice_rect,1,0,1,0,1,
63d9bbe653e18c0a4e74f51f,SCR,2024-06-11_14h59.16.742,LearnStrategy,2023.2.3,Win32,59.95203837,3,2,3,,,,,,,,7,06,,,,,,,,,,,,,2,0.863,0,,,,,,-0.073148148,-0.252777778,1,0,0,0.863,Basalt_rect,2,0,2,0,1,
63d9bbe653e18c0a4e74f51f,SCR,2024-06-11_14h59.16.742,LearnStrategy,2023.2.3,Win32,59.95203837,3,2,4,,,,,,,,6,12,,,,,,,,,,,,,3,1.105,0,,,,,,0.122222222,-0.250925926,1,0,0,1.105,Diorite_rect,3,0,3,0,1,
63d9bbe653e18c0a4e74f51f,SCR,2024-06-11_14h59.16.742,LearnStrategy,2023.2.3,Win32,59.95203837,3,2,5,,,,,,,,2,12,,,,,,,,,,,,,7,1.397,0,,,,,,0.193518519,-0.390740741,1,0,0,1.397,Peridotite_rect,4,0,4,0,1,
63d9bbe653e18c0a4e74f51f,SCR,2024-06-11_14h59.16.742,LearnStrategy,2023.2.3,Win32,59.95203837,3,2,6,,,,,,,,6,09,,,,,,,,,,,,,4,0.954,0,,,,,,0.489814815,-0.231481481,1,0,0,0.954,Gabbro_rect,5,0,5,0,1,
63d9bbe653e18c0a4e74f51f,SCR,2024-06-11_14h59.16.742,LearnStrategy,2023.2.3,Win32,59.95203837,3,2,7,,,,,,,,3,12,,,,,,,,,,,,,8,1.403,0,,,,,,0.387037037,-0.410185185,1,0,0,1.403,Pumice_rect,6,0,6,0,1,
63d9bbe653e18c0a4e74f51f,SCR,2024-06-11_14h59.16.742,LearnStrategy,2023.2.3,Win32,59.95203837,3,2,8,,,,,,,,4,16,,,,,,,,,,,,,2,2.471,0,,,,,,-0.082407407,-0.265740741,1,0,0,2.471,Basalt_rect,7,0,7,0,1,
63d9bbe653e18c0a4e74f51f,SCR,2024-06-11_14h59.16.742,LearnStrategy,2023.2.3,Win32,59.95203837,3,2,9,,,,,,,,1,01,,,,,,,,,,,,,7,4.074,0,,,,,,0.096296296,-0.391666667,1,0,0,4.074,Peridotite_rect,8,0,8,0,1,
63d9bbe653e18c0a4e74f51f,SCR,2024-06-11_14h59.16.742,LearnStrategy,2023.2.3,Win32,59.95203837,3,2,10,,,,,,,,5,02,,,,,,,,,,,,,5,1.365,1,,,,,,-0.484259259,-0.39537037,1,0,0,1.365,Obsidian_rect,9,0,9,0,1,
63d9bbe653e18c0a4e74f51f,SCR,2024-06-11_14h59.16.742,LearnStrategy,2023.2.3,Win32,59.95203837,3,2,11,,,,,,,,1,16,,,,,,,,,,,,,3,5.2,0,,,,,,0.083333333,-0.257407407,1,0,0,5.2,Diorite_rect,10,0,10,0,1,
63d9bbe653e18c0a4e74f51f,SCR,2024-06-11_14h59.16.742,LearnStrategy,2023.2.3,Win32,59.95203837,3,2,12,,,,,,,,3,15,,,,,,,,,,,,,8,1.894,0,,,,,,0.332407407,-0.387962963,1,0,0,1.894,Pumice_rect,11,0,11,0,1,
63d9bbe653e18c0a4e74f51f,SCR,2024-06-11_14h59.16.742,LearnStrategy,2023.2.3,Win32,59.95203837,3,2,13,,,,,,,,2,11,,,,,,,,,,,,,2,2.164,1,,,,,,-0.078703704,-0.266666667,1,0,0,2.164,Basalt_rect,12,0,12,0,1,
63d9bbe653e18c0a4e74f51f,SCR,2024-06-11_14h59.16.742,LearnStrategy,2023.2.3,Win32,59.95203837,3,2,14,,,,,,,,5,10,,,,,,,,,,,,,5,1.653,1,,,,,,-0.330555556,-0.419444444,1,0,0,1.653,Obsidian_rect,13,0,13,0,1,
63d9bbe653e18c0a4e74f51f,SCR,2024-06-11_14h59.16.742,LearnStrategy,2023.2.3,Win32,59.95203837,3,2,15,,,,,,,,7,16,,,,,,,,,,,,,2,2.611,0,,,,,,-0.105555556,-0.268518519,1,0,0,2.611,Basalt_rect,14,0,14,0,1,
63d9bbe653e18c0a4e74f51f,SCR,2024-06-11_14h59.16.742,LearnStrategy,2023.2.3,Win32,59.95203837,3,2,16,,,,,,,,8,16,,,,,,,,,,,,,8,2.302,1,,,,,,0.475925926,-0.391666667,1,0,0,2.302,Pumice_rect,15,0,15,0,1,
63d9bbe653e18c0a4e74f51f,SCR,2024-06-11_14h59.16.742,LearnStrategy,2023.2.3,Win32,59.95203837,4,1,1,0.575,-0.412962963,1,0,0,1.265,Gabbro_15,4,15,1,8,1.265,4,15,0.168518519,-0.257407407,1,0,0,2.215,Diorite_rect,3,2.215,0,0,0,0,0,1,,,,,,,,,,,,,
63d9bbe653e18c0a4e74f51f,SCR,2024-06-11_14h59.16.742,LearnStrategy,2023.2.3,Win32,59.95203837,4,1,2,0.542592593,-0.107407407,1,0,0,0.779,Pegmatite_16,6,16,3,8,0.779,6,16,0.414814815,-0.390740741,1,0,0,0.598,Pumice_rect,8,0.598,0,1,0,1,0,1,,,,,,,,,,,,,
63d9bbe653e18c0a4e74f51f,SCR,2024-06-11_14h59.16.742,LearnStrategy,2023.2.3,Win32,59.95203837,4,1,3,-0.212962963,-0.264814815,1,0,0,0.929,Basalt_14,2,14,2,3,0.929,2,14,-0.07037037,-0.266666667,1,0,0,0.669,Basalt_rect,2,0.669,1,2,0,2,0,1,,,,,,,,,,,,,
63d9bbe653e18c0a4e74f51f,SCR,2024-06-11_14h59.16.742,LearnStrategy,2023.2.3,Win32,59.95203837,4,1,4,0.271296296,-0.4,1,0,0,0.829,Andesite_06,1,06,1,6,0.829,1,06,0.059259259,-0.25,1,0,0,0.825,Diorite_rect,3,0.825,0,3,0,3,0,1,,,,,,,,,,,,,
63d9bbe653e18c0a4e74f51f,SCR,2024-06-11_14h59.16.742,LearnStrategy,2023.2.3,Win32,59.95203837,4,1,5,-0.069444444,-0.45,1,0,0,0.647,Pegmatite_15,6,15,1,4,0.647,6,15,-0.069444444,-0.403703704,1,0,0,1.32,Pegmatite_rect,6,1.32,1,4,0,4,0,1,,,,,,,,,,,,,
63d9bbe653e18c0a4e74f51f,SCR,2024-06-11_14h59.16.742,LearnStrategy,2023.2.3,Win32,59.95203837,4,1,6,-0.121296296,-0.394444444,1,0,0,0.534,Pegmatite_15,6,15,1,4,0.534,6,15,-0.150925926,-0.399074074,1,0,0,0.9,Pegmatite_rect,6,0.9,1,5,0,5,0,1,,,,,,,,,,,,,
63d9bbe653e18c0a4e74f51f,SCR,2024-06-11_14h59.16.742,LearnStrategy,2023.2.3,Win32,59.95203837,4,1,7,0.083333333,-0.430555556,1,0,0,0.686,Diorite_09,3,09,1,5,0.686,3,09,0.107407407,-0.251851852,1,0,0,0.882,Diorite_rect,3,0.882,1,6,0,6,0,1,,,,,,,,,,,,,
63d9bbe653e18c0a4e74f51f,SCR,2024-06-11_14h59.16.742,LearnStrategy,2023.2.3,Win32,59.95203837,4,1,8,-0.571296296,0.425,1,0,0,0.745,Andesite_11,1,11,6,1,0.745,1,11,-0.071296296,-0.251851852,1,0,0,1.612,Basalt_rect,2,1.612,0,7,0,7,0,1,,,,,,,,,,,,,
63d9bbe653e18c0a4e74f51f,SCR,2024-06-11_14h59.16.742,LearnStrategy,2023.2.3,Win32,59.95203837,4,1,9,0.262037037,0.401851852,1,0,0,0.898,Gabbro_08,4,08,6,6,0.898,4,08,0.077777778,-0.233333333,1,0,0,1.482,Diorite_rect,3,1.482,0,8,0,8,0,1,,,,,,,,,,,,,
63d9bbe653e18c0a4e74f51f,SCR,2024-06-11_14h59.16.742,LearnStrategy,2023.2.3,Win32,59.95203837,4,1,10,-0.213888889,-0.110185185,1,0,0,1.083,Peridotite_13,7,13,3,3,1.083,7,13,-0.156481481,-0.259259259,1,0,0,0.797,Basalt_rect,2,0.797,0,9,0,9,0,1,,,,,,,,,,,,,
63d9bbe653e18c0a4e74f51f,SCR,2024-06-11_14h59.16.742,LearnStrategy,2023.2.3,Win32,59.95203837,4,1,11,0.048148148,0.067592593,1,0,0,0.562,Peridotite_08,7,08,4,5,0.562,7,08,0.035185185,-0.253703704,1,0,0,1.576,Diorite_rect,3,1.576,0,10,0,10,0,1,,,,,,,,,,,,,
63d9bbe653e18c0a4e74f51f,SCR,2024-06-11_14h59.16.742,LearnStrategy,2023.2.3,Win32,59.95203837,4,1,12,-0.091666667,0.249074074,1,0,0,0.629,Pumice_04,8,04,5,4,0.629,8,04,0.434259259,-0.240740741,1,0,0,1.877,Gabbro_rect,4,1.877,0,11,0,11,0,1,,,,,,,,,,,,,
63d9bbe653e18c0a4e74f51f,SCR,2024-06-11_14h59.16.742,LearnStrategy,2023.2.3,Win32,59.95203837,4,1,13,0.416666667,-0.296296296,1,0,0,0.865,Andesite_02,1,02,2,7,0.865,1,02,0.163888889,-0.266666667,1,0,0,0.616,Diorite_rect,3,0.616,0,12,0,12,0,1,,,,,,,,,,,,,
63d9bbe653e18c0a4e74f51f,SCR,2024-06-11_14h59.16.742,LearnStrategy,2023.2.3,Win32,59.95203837,4,1,14,-0.219444444,-0.372222222,1,0,0,0.85,Peridotite_02,7,02,1,3,0.85,7,02,0.123148148,-0.394444444,1,0,0,0.676,Peridotite_rect,7,0.676,1,13,0,13,0,1,,,,,,,,,,,,,
63d9bbe653e18c0a4e74f51f,SCR,2024-06-11_14h59.16.742,LearnStrategy,2023.2.3,Win32,59.95203837,4,1,15,-0.22962963,0.242592593,1,0,0,0.763,Diorite_08,3,08,5,3,0.763,3,08,0.184259259,-0.233333333,1,0,0,0.781,Diorite_rect,3,0.781,1,14,0,14,0,1,,,,,,,,,,,,,
63d9bbe653e18c0a4e74f51f,SCR,2024-06-11_14h59.16.742,LearnStrategy,2023.2.3,Win32,59.95203837,4,1,16,-0.081481481,0.437962963,1,0,0,0.697,Basalt_06,2,06,6,4,0.697,2,06,-0.203703704,-0.249074074,1,0,0,1.151,Basalt_rect,2,1.151,1,15,0,15,0,1,,,,,,,,,,,,,
63d9bbe653e18c0a4e74f51f,SCR,2024-06-11_14h59.16.742,LearnStrategy,2023.2.3,Win32,59.95203837,4,2,1,,,,,,,,7,06,,,,,,,,,,,,,3,1.445,0,,,,,,0.102777778,-0.243518519,1,0,0,1.445,Diorite_rect,0,0,0,0,1,
63d9bbe653e18c0a4e74f51f,SCR,2024-06-11_14h59.16.742,LearnStrategy,2023.2.3,Win32,59.95203837,4,2,2,,,,,,,,4,16,,,,,,,,,,,,,2,1.241,0,,,,,,-0.175925926,-0.242592593,1,0,0,1.241,Basalt_rect,1,0,1,0,1,
63d9bbe653e18c0a4e74f51f,SCR,2024-06-11_14h59.16.742,LearnStrategy,2023.2.3,Win32,59.95203837,4,2,3,,,,,,,,1,04,,,,,,,,,,,,,4,0.987,0,,,,,,0.426851852,-0.235185185,1,0,0,0.987,Gabbro_rect,2,0,2,0,1,
63d9bbe653e18c0a4e74f51f,SCR,2024-06-11_14h59.16.742,LearnStrategy,2023.2.3,Win32,59.95203837,4,2,4,,,,,,,,6,06,,,,,,,,,,,,,7,0.146,0,,,,,,0.052777778,-0.417592593,1,0,0,0.146,Peridotite_rect,3,0,3,0,1,
63d9bbe653e18c0a4e74f51f,SCR,2024-06-11_14h59.16.742,LearnStrategy,2023.2.3,Win32,59.95203837,4,2,5,,,,,,,,5,11,,,,,,,,,,,,,2,0.086,0,,,,,,-0.164814815,-0.238888889,1,0,0,0.086,Basalt_rect,4,0,4,0,1,
63d9bbe653e18c0a4e74f51f,SCR,2024-06-11_14h59.16.742,LearnStrategy,2023.2.3,Win32,59.95203837,4,2,6,,,,,,,,2,04,,,,,,,,,,,,,2,1.011,1,,,,,,-0.144444444,-0.230555556,1,0,0,1.011,Basalt_rect,5,0,5,0,1,
63d9bbe653e18c0a4e74f51f,SCR,2024-06-11_14h59.16.742,LearnStrategy,2023.2.3,Win32,59.95203837,4,2,7,,,,,,,,3,15,,,,,,,,,,,,,3,0.956,1,,,,,,0.123148148,-0.250925926,1,0,0,0.956,Diorite_rect,6,0,6,0,1,
63d9bbe653e18c0a4e74f51f,SCR,2024-06-11_14h59.16.742,LearnStrategy,2023.2.3,Win32,59.95203837,4,2,8,,,,,,,,6,07,,,,,,,,,,,,,7,1.654,0,,,,,,0.087037037,-0.382407407,1,0,0,1.654,Peridotite_rect,7,0,7,0,1,
63d9bbe653e18c0a4e74f51f,SCR,2024-06-11_14h59.16.742,LearnStrategy,2023.2.3,Win32,59.95203837,4,2,9,,,,,,,,8,16,,,,,,,,,,,,,8,1.414,1,,,,,,0.385185185,-0.37962963,1,0,0,1.414,Pumice_rect,8,0,8,0,1,
63d9bbe653e18c0a4e74f51f,SCR,2024-06-11_14h59.16.742,LearnStrategy,2023.2.3,Win32,59.95203837,4,2,10,,,,,,,,2,12,,,,,,,,,,,,,2,1.007,1,,,,,,-0.123148148,-0.236111111,1,0,0,1.007,Basalt_rect,9,0,9,0,1,
63d9bbe653e18c0a4e74f51f,SCR,2024-06-11_14h59.16.742,LearnStrategy,2023.2.3,Win32,59.95203837,4,2,11,,,,,,,,7,14,,,,,,,,,,,,,7,1.478,1,,,,,,0.197222222,-0.397222222,1,0,0,1.478,Peridotite_rect,10,0,10,0,1,
63d9bbe653e18c0a4e74f51f,SCR,2024-06-11_14h59.16.742,LearnStrategy,2023.2.3,Win32,59.95203837,4,2,12,,,,,,,,8,02,,,,,,,,,,,,,8,1.622,1,,,,,,0.343518519,-0.410185185,1,0,0,1.622,Pumice_rect,11,0,11,0,1,
63d9bbe653e18c0a4e74f51f,SCR,2024-06-11_14h59.16.742,LearnStrategy,2023.2.3,Win32,59.95203837,4,2,13,,,,,,,,5,14,,,,,,,,,,,,,5,0.763,1,,,,,,-0.475,-0.407407407,1,0,0,0.763,Obsidian_rect,12,0,12,0,1,
63d9bbe653e18c0a4e74f51f,SCR,2024-06-11_14h59.16.742,LearnStrategy,2023.2.3,Win32,59.95203837,4,2,14,,,,,,,,3,11,,,,,,,,,,,,,3,0.834,1,,,,,,0.109259259,-0.250925926,1,0,0,0.834,Diorite_rect,13,0,13,0,1,
63d9bbe653e18c0a4e74f51f,SCR,2024-06-11_14h59.16.742,LearnStrategy,2023.2.3,Win32,59.95203837,4,2,15,,,,,,,,4,10,,,,,,,,,,,,,2,3.17,0,,,,,,-0.085185185,-0.260185185,1,0,0,3.17,Basalt_rect,14,0,14,0,1,
63d9bbe653e18c0a4e74f51f,SCR,2024-06-11_14h59.16.742,LearnStrategy,2023.2.3,Win32,59.95203837,4,2,16,,,,,,,,1,14,,,,,,,,,,,,,3,1.469,0,,,,,,0.138888889,-0.265740741,1,0,0,1.469,Diorite_rect,15,0,15,0,1,
63d9bbe653e18c0a4e74f51f,SCR,2024-06-11_14h59.16.742,LearnStrategy,2023.2.3,Win32,59.95203837,5,1,1,0.075,-0.272222222,1,0,0,0.596,Diorite_06,3,06,2,5,0.596,3,06,0.078703704,-0.246296296,1,0,0,0.598,Diorite_rect,3,0.598,1,0,0,0,0,1,,,,,,,,,,,,,
63d9bbe653e18c0a4e74f51f,SCR,2024-06-11_14h59.16.742,LearnStrategy,2023.2.3,Win32,59.95203837,5,1,2,-0.1,-0.278703704,1,0,0,0.533,Pegmatite_10,6,10,2,4,0.533,6,10,0.074074074,-0.398148148,1,0,0,1.749,Peridotite_rect,7,1.749,0,1,0,1,0,1,,,,,,,,,,,,,
63d9bbe653e18c0a4e74f51f,SCR,2024-06-11_14h59.16.742,LearnStrategy,2023.2.3,Win32,59.95203837,5,1,3,0.369444444,-0.299074074,1,0,0,0.866,Andesite_02,1,02,2,7,0.866,1,02,0.059259259,-0.269444444,1,0,0,1.133,Diorite_rect,3,1.133,0,2,0,2,0,1,,,,,,,,,,,,,
63d9bbe653e18c0a4e74f51f,SCR,2024-06-11_14h59.16.742,LearnStrategy,2023.2.3,Win32,59.95203837,5,1,4,-0.026851852,0.414814815,1,0,0,1.176,Basalt_06,2,06,6,4,1.176,2,06,-0.148148148,-0.241666667,1,0,0,0.663,Basalt_rect,2,0.663,1,3,0,3,0,1,,,,,,,,,,,,,
63d9bbe653e18c0a4e74f51f,SCR,2024-06-11_14h59.16.742,LearnStrategy,2023.2.3,Win32,59.95203837,5,1,5,-0.52037037,-0.390740741,1,0,0,0.879,Gabbro_13,4,13,1,1,0.879,4,13,0.090740741,-0.414814815,1,0,0,0.842,Peridotite_rect,7,0.842,0,4,0,4,0,1,,,,,,,,,,,,,
63d9bbe653e18c0a4e74f51f,SCR,2024-06-11_14h59.16.742,LearnStrategy,2023.2.3,Win32,59.95203837,5,1,6,0.263888889,-0.415740741,1,0,0,0.698,Andesite_06,1,06,1,6,0.698,1,06,0.12037037,-0.233333333,1,0,0,0.484,Diorite_rect,3,0.484,0,5,0,5,0,1,,,,,,,,,,,,,
63d9bbe653e18c0a4e74f51f,SCR,2024-06-11_14h59.16.742,LearnStrategy,2023.2.3,Win32,59.95203837,5,1,7,0.549074074,-0.419444444,1,0,0,0.782,Gabbro_15,4,15,1,8,0.782,4,15,0.222222222,-0.256481481,1,0,0,0.59,Diorite_rect,3,0.59,0,6,0,6,0,1,,,,,,,,,,,,,
63d9bbe653e18c0a4e74f51f,SCR,2024-06-11_14h59.16.742,LearnStrategy,2023.2.3,Win32,59.95203837,5,1,8,0.407407407,0.22037037,1,0,0,1.266,Peridotite_07,7,07,5,7,1.266,7,07,0.077777778,-0.240740741,1,0,0,0.842,Diorite_rect,3,0.842,0,7,0,7,0,1,,,,,,,,,,,,,
63d9bbe653e18c0a4e74f51f,SCR,2024-06-11_14h59.16.742,LearnStrategy,2023.2.3,Win32,59.95203837,5,1,9,-0.214814815,0.387962963,1,0,0,0.783,Obsidian_08,5,08,6,3,0.783,5,08,-0.412962963,-0.402777778,1,0,0,1.277,Obsidian_rect,5,1.277,1,8,0,8,0,1,,,,,,,,,,,,,
63d9bbe653e18c0a4e74f51f,SCR,2024-06-11_14h59.16.742,LearnStrategy,2023.2.3,Win32,59.95203837,5,1,10,-0.537037037,0.075925926,1,0,0,0.734,Gabbro_03,4,03,4,1,0.734,4,03,-0.293518519,-0.247222222,1,0,0,0.806,Andesite_rect,1,0.806,0,9,0,9,0,1,,,,,,,,,,,,,
63d9bbe653e18c0a4e74f51f,SCR,2024-06-11_14h59.16.742,LearnStrategy,2023.2.3,Win32,59.95203837,5,1,11,0.524074074,-0.097222222,1,0,0,0.799,Pegmatite_16,6,16,3,8,0.799,6,16,0.188888889,-0.230555556,1,0,0,1.066,Diorite_rect,3,1.066,0,10,0,10,0,1,,,,,,,,,,,,,
63d9bbe653e18c0a4e74f51f,SCR,2024-06-11_14h59.16.742,LearnStrategy,2023.2.3,Win32,59.95203837,5,1,12,-0.419444444,-0.25462963,1,0,0,1.63,Pegmatite_11,6,11,2,2,1.63,6,11,0.136111111,-0.380555556,1,0,0,0.661,Peridotite_rect,7,0.661,0,11,0,11,0,1,,,,,,,,,,,,,
63d9bbe653e18c0a4e74f51f,SCR,2024-06-11_14h59.16.742,LearnStrategy,2023.2.3,Win32,59.95203837,5,1,13,-0.225925926,-0.407407407,1,0,0,1.617,Peridotite_02,7,02,1,3,1.617,7,02,0.036111111,-0.256481481,1,0,0,0.543,Diorite_rect,3,0.543,0,12,0,12,0,1,,,,,,,,,,,,,
63d9bbe653e18c0a4e74f51f,SCR,2024-06-11_14h59.16.742,LearnStrategy,2023.2.3,Win32,59.95203837,5,1,14,0.505555556,0.237037037,1,0,0,0.815,Basalt_02,2,02,5,8,0.815,2,02,0.160185185,-0.234259259,1,0,0,0.591,Diorite_rect,3,0.591,0,13,0,13,0,1,,,,,,,,,,,,,
63d9bbe653e18c0a4e74f51f,SCR,2024-06-11_14h59.16.742,LearnStrategy,2023.2.3,Win32,59.95203837,5,1,15,-0.586111111,-0.073148148,1,0,0,0.829,Pumice_14,8,14,3,1,0.829,8,14,-0.225925926,-0.259259259,1,0,0,0.614,Basalt_rect,2,0.614,0,14,0,14,0,1,,,,,,,,,,,,,
63d9bbe653e18c0a4e74f51f,SCR,2024-06-11_14h59.16.742,LearnStrategy,2023.2.3,Win32,59.95203837,5,1,16,0.076851852,0.267592593,1,0,0,0.632,Peridotite_12,7,12,5,5,0.632,7,12,0.087962963,-0.251851852,1,0,0,0.97,Diorite_rect,3,0.97,0,15,0,15,0,1,,,,,,,,,,,,,
63d9bbe653e18c0a4e74f51f,SCR,2024-06-11_14h59.16.742,LearnStrategy,2023.2.3,Win32,59.95203837,5,2,1,,,,,,,,5,16,,,,,,,,,,,,,5,1.035,1,,,,,,-0.405555556,-0.412037037,1,0,0,1.035,Obsidian_rect,0,0,0,0,1,
63d9bbe653e18c0a4e74f51f,SCR,2024-06-11_14h59.16.742,LearnStrategy,2023.2.3,Win32,59.95203837,5,2,2,,,,,,,,3,07,,,,,,,,,,,,,2,0.703,0,,,,,,-0.090740741,-0.259259259,1,0,0,0.703,Basalt_rect,1,0,1,0,1,
63d9bbe653e18c0a4e74f51f,SCR,2024-06-11_14h59.16.742,LearnStrategy,2023.2.3,Win32,59.95203837,5,2,3,,,,,,,,2,08,,,,,,,,,,,,,3,1.857,0,,,,,,0.051851852,-0.249074074,1,0,0,1.857,Diorite_rect,2,0,2,0,1,
63d9bbe653e18c0a4e74f51f,SCR,2024-06-11_14h59.16.742,LearnStrategy,2023.2.3,Win32,59.95203837,5,2,4,,,,,,,,1,05,,,,,,,,,,,,,7,0.871,0,,,,,,0.097222222,-0.388888889,1,0,0,0.871,Peridotite_rect,3,0,3,0,1,
63d9bbe653e18c0a4e74f51f,SCR,2024-06-11_14h59.16.742,LearnStrategy,2023.2.3,Win32,59.95203837,5,2,5,,,,,,,,4,12,,,,,,,,,,,,,6,1.107,0,,,,,,-0.063888889,-0.392592593,1,0,0,1.107,Pegmatite_rect,4,0,4,0,1,
63d9bbe653e18c0a4e74f51f,SCR,2024-06-11_14h59.16.742,LearnStrategy,2023.2.3,Win32,59.95203837,5,2,6,,,,,,,,8,06,,,,,,,,,,,,,2,0.677,0,,,,,,-0.169444444,-0.251851852,1,0,0,0.677,Basalt_rect,5,0,5,0,1,
63d9bbe653e18c0a4e74f51f,SCR,2024-06-11_14h59.16.742,LearnStrategy,2023.2.3,Win32,59.95203837,5,2,7,,,,,,,,8,13,,,,,,,,,,,,,3,0.959,0,,,,,,0.136111111,-0.253703704,1,0,0,0.959,Diorite_rect,6,0,6,0,1,
63d9bbe653e18c0a4e74f51f,SCR,2024-06-11_14h59.16.742,LearnStrategy,2023.2.3,Win32,59.95203837,5,2,8,,,,,,,,4,14,,,,,,,,,,,,,8,0.928,0,,,,,,0.380555556,-0.394444444,1,0,0,0.928,Pumice_rect,7,0,7,0,1,
63d9bbe653e18c0a4e74f51f,SCR,2024-06-11_14h59.16.742,LearnStrategy,2023.2.3,Win32,59.95203837,5,2,9,,,,,,,,2,05,,,,,,,,,,,,,2,0.968,1,,,,,,-0.087962963,-0.260185185,1,0,0,0.968,Basalt_rect,8,0,8,0,1,
63d9bbe653e18c0a4e74f51f,SCR,2024-06-11_14h59.16.742,LearnStrategy,2023.2.3,Win32,59.95203837,5,2,10,,,,,,,,6,13,,,,,,,,,,,,,3,0.63,0,,,,,,0.119444444,-0.258333333,1,0,0,0.63,Diorite_rect,9,0,9,0,1,
63d9bbe653e18c0a4e74f51f,SCR,2024-06-11_14h59.16.742,LearnStrategy,2023.2.3,Win32,59.95203837,5,2,11,,,,,,,,7,04,,,,,,,,,,,,,1,0.958,0,,,,,,-0.500925926,-0.263888889,1,0,0,0.958,Andesite_rect,10,0,10,0,1,
63d9bbe653e18c0a4e74f51f,SCR,2024-06-11_14h59.16.742,LearnStrategy,2023.2.3,Win32,59.95203837,5,2,12,,,,,,,,5,02,,,,,,,,,,,,,7,0.399,0,,,,,,0.048148148,-0.402777778,1,0,0,0.399,Peridotite_rect,11,0,11,0,1,
63d9bbe653e18c0a4e74f51f,SCR,2024-06-11_14h59.16.742,LearnStrategy,2023.2.3,Win32,59.95203837,5,2,13,,,,,,,,7,16,,,,,,,,,,,,,6,0.987,0,,,,,,-0.111111111,-0.378703704,1,0,0,0.987,Pegmatite_rect,12,0,12,0,1,
63d9bbe653e18c0a4e74f51f,SCR,2024-06-11_14h59.16.742,LearnStrategy,2023.2.3,Win32,59.95203837,5,2,14,,,,,,,,3,12,,,,,,,,,,,,,2,0.152,0,,,,,,-0.100925926,-0.235185185,1,0,0,0.152,Basalt_rect,13,0,13,0,1,
63d9bbe653e18c0a4e74f51f,SCR,2024-06-11_14h59.16.742,LearnStrategy,2023.2.3,Win32,59.95203837,5,2,15,,,,,,,,1,16,,,,,,,,,,,,,3,0.316,0,,,,,,0.051851852,-0.242592593,1,0,0,0.316,Diorite_rect,14,0,14,0,1,
63d9bbe653e18c0a4e74f51f,SCR,2024-06-11_14h59.16.742,LearnStrategy,2023.2.3,Win32,59.95203837,5,2,16,,,,,,,,6,12,,,,,,,,,,,,,3,0.263,0,,,,,,0.071296296,-0.244444444,1,0,0,0.263,Diorite_rect,15,0,15,0,1,
63d9bbe653e18c0a4e74f51f,SCR,2024-06-11_14h59.16.742,LearnStrategy,2023.2.3,Win32,59.95203837,6,1,1,-0.369444444,-0.246296296,1,0,0,0.598,Pegmatite_11,6,11,2,2,0.598,6,11,0.067592593,-0.236111111,1,0,0,0.557,Diorite_rect,3,0.557,0,0,0,0,0,1,,,,,,,,,,,,,
63d9bbe653e18c0a4e74f51f,SCR,2024-06-11_14h59.16.742,LearnStrategy,2023.2.3,Win32,59.95203837,6,1,2,-0.562962963,0.25,1,0,0,1.132,Basalt_10,2,10,5,1,1.132,2,10,-0.461111111,-0.240740741,1,0,0,0.636,Andesite_rect,1,0.636,0,1,0,1,0,1,,,,,,,,,,,,,
63d9bbe653e18c0a4e74f51f,SCR,2024-06-11_14h59.16.742,LearnStrategy,2023.2.3,Win32,59.95203837,6,1,3,0.577777778,-0.121296296,1,0,0,0.817,Pegmatite_16,6,16,3,8,0.817,6,16,0.290740741,-0.232407407,1,0,0,0.76,Gabbro_rect,4,0.76,0,2,0,2,0,1,,,,,,,,,,,,,
63d9bbe653e18c0a4e74f51f,SCR,2024-06-11_14h59.16.742,LearnStrategy,2023.2.3,Win32,59.95203837,6,1,4,-0.603703704,0.403703704,1,0,0,0.848,Andesite_11,1,11,6,1,0.848,1,11,0.090740741,-0.244444444,1,0,0,0.585,Diorite_rect,3,0.585,0,3,0,3,0,1,,,,,,,,,,,,,
63d9bbe653e18c0a4e74f51f,SCR,2024-06-11_14h59.16.742,LearnStrategy,2023.2.3,Win32,59.95203837,6,1,5,0.581481481,-0.102777778,1,0,0,0.832,Pegmatite_16,6,16,3,8,0.832,6,16,0.080555556,-0.407407407,1,0,0,1.381,Peridotite_rect,7,1.381,0,4,0,4,0,1,,,,,,,,,,,,,
63d9bbe653e18c0a4e74f51f,SCR,2024-06-11_14h59.16.742,LearnStrategy,2023.2.3,Win32,59.95203837,6,1,6,0.425,0.112962963,1,0,0,1.763,Gabbro_09,4,09,4,7,1.763,4,09,-0.067592593,-0.246296296,1,0,0,0.808,Basalt_rect,2,0.808,0,5,0,5,0,1,,,,,,,,,,,,,
63d9bbe653e18c0a4e74f51f,SCR,2024-06-11_14h59.16.742,LearnStrategy,2023.2.3,Win32,59.95203837,6,1,7,-0.54537037,-0.413888889,1,0,0,0.849,Gabbro_13,4,13,1,1,0.849,4,13,0.081481481,-0.253703704,1,0,0,1.639,Diorite_rect,3,1.639,0,6,0,6,0,1,,,,,,,,,,,,,
63d9bbe653e18c0a4e74f51f,SCR,2024-06-11_14h59.16.742,LearnStrategy,2023.2.3,Win32,59.95203837,6,1,8,0.396296296,-0.410185185,1,0,0,0.797,Pumice_05,8,05,1,7,0.797,8,05,0.15462963,-0.243518519,1,0,0,1.041,Diorite_rect,3,1.041,0,7,0,7,0,1,,,,,,,,,,,,,
63d9bbe653e18c0a4e74f51f,SCR,2024-06-11_14h59.16.742,LearnStrategy,2023.2.3,Win32,59.95203837,6,1,9,-0.247222222,-0.066666667,1,0,0,0.633,Peridotite_13,7,13,3,3,0.633,7,13,-0.131481481,-0.240740741,1,0,0,0.611,Basalt_rect,2,0.611,0,8,0,8,0,1,,,,,,,,,,,,,
63d9bbe653e18c0a4e74f51f,SCR,2024-06-11_14h59.16.742,LearnStrategy,2023.2.3,Win32,59.95203837,6,1,10,0.247222222,-0.423148148,1,0,0,0.68,Andesite_06,1,06,1,6,0.68,1,06,0.075925926,-0.25,1,0,0,1.234,Diorite_rect,3,1.234,0,9,0,9,0,1,,,,,,,,,,,,,
63d9bbe653e18c0a4e74f51f,SCR,2024-06-11_14h59.16.742,LearnStrategy,2023.2.3,Win32,59.95203837,6,1,11,0.202777778,-0.086111111,1,0,0,0.88,Diorite_14,3,14,3,6,0.88,3,14,0.218518519,-0.260185185,1,0,0,0.66,Diorite_rect,3,0.66,1,10,0,10,0,1,,,,,,,,,,,,,
63d9bbe653e18c0a4e74f51f,SCR,2024-06-11_14h59.16.742,LearnStrategy,2023.2.3,Win32,59.95203837,6,1,12,0.047222222,-0.276851852,1,0,0,0.815,Diorite_06,3,06,2,5,0.815,3,06,0.084259259,-0.261111111,1,0,0,0.4,Diorite_rect,3,0.4,1,11,0,11,0,1,,,,,,,,,,,,,
63d9bbe653e18c0a4e74f51f,SCR,2024-06-11_14h59.16.742,LearnStrategy,2023.2.3,Win32,59.95203837,6,1,13,0.511111111,0.069444444,1,0,0,0.994,Obsidian_09,5,09,4,8,0.994,5,09,-0.39537037,-0.391666667,1,0,0,0.968,Obsidian_rect,5,0.968,1,12,0,12,0,1,,,,,,,,,,,,,
63d9bbe653e18c0a4e74f51f,SCR,2024-06-11_14h59.16.742,LearnStrategy,2023.2.3,Win32,59.95203837,6,1,14,-0.402777778,-0.422222222,1,0,0,1.094,Peridotite_15,7,15,1,2,1.094,7,15,0.069444444,-0.265740741,1,0,0,1.187,Diorite_rect,3,1.187,0,13,0,13,0,1,,,,,,,,,,,,,
63d9bbe653e18c0a4e74f51f,SCR,2024-06-11_14h59.16.742,LearnStrategy,2023.2.3,Win32,59.95203837,6,1,15,0.559259259,0.415740741,1,0,0,0.932,Pumice_15,8,15,6,8,0.932,8,15,0.068518519,-0.230555556,1,0,0,0.932,Diorite_rect,3,0.932,0,14,0,14,0,1,,,,,,,,,,,,,
63d9bbe653e18c0a4e74f51f,SCR,2024-06-11_14h59.16.742,LearnStrategy,2023.2.3,Win32,59.95203837,6,1,16,-0.514814815,0.231481481,1,0,0,0.75,Basalt_10,2,10,5,1,0.75,2,10,-0.180555556,-0.265740741,1,0,0,1.25,Basalt_rect,2,1.25,1,15,0,15,0,1,,,,,,,,,,,,,
63d9bbe653e18c0a4e74f51f,SCR,2024-06-11_14h59.16.742,LearnStrategy,2023.2.3,Win32,59.95203837,6,2,1,,,,,,,,6,09,,,,,,,,,,,,,7,1.165,0,,,,,,0.114814815,-0.400925926,1,0,0,1.165,Peridotite_rect,0,0,0,0,1,
63d9bbe653e18c0a4e74f51f,SCR,2024-06-11_14h59.16.742,LearnStrategy,2023.2.3,Win32,59.95203837,6,2,2,,,,,,,,8,03,,,,,,,,,,,,,8,1.518,1,,,,,,0.363888889,-0.387037037,1,0,0,1.518,Pumice_rect,1,0,1,0,1,
63d9bbe653e18c0a4e74f51f,SCR,2024-06-11_14h59.16.742,LearnStrategy,2023.2.3,Win32,59.95203837,6,2,3,,,,,,,,3,10,,,,,,,,,,,,,3,1.024,1,,,,,,0.063888889,-0.246296296,1,0,0,1.024,Diorite_rect,2,0,2,0,1,
63d9bbe653e18c0a4e74f51f,SCR,2024-06-11_14h59.16.742,LearnStrategy,2023.2.3,Win32,59.95203837,6,2,4,,,,,,,,4,01,,,,,,,,,,,,,3,1.638,0,,,,,,0.075925926,-0.261111111,1,0,0,1.638,Diorite_rect,3,0,3,0,1,
63d9bbe653e18c0a4e74f51f,SCR,2024-06-11_14h59.16.742,LearnStrategy,2023.2.3,Win32,59.95203837,6,2,5,,,,,,,,2,11,,,,,,,,,,,,,3,0.452,0,,,,,,0.069444444,-0.266666667,1,0,0,0.452,Diorite_rect,4,0,4,0,1,
63d9bbe653e18c0a4e74f51f,SCR,2024-06-11_14h59.16.742,LearnStrategy,2023.2.3,Win32,59.95203837,6,2,6,,,,,,,,1,01,,,,,,,,,,,,,2,1.057,0,,,,,,-0.141666667,-0.251851852,1,0,0,1.057,Basalt_rect,5,0,5,0,1,
63d9bbe653e18c0a4e74f51f,SCR,2024-06-11_14h59.16.742,LearnStrategy,2023.2.3,Win32,59.95203837,6,2,7,,,,,,,,5,12,,,,,,,,,,,,,5,1.104,1,,,,,,-0.40462963,-0.393518519,1,0,0,1.104,Obsidian_rect,6,0,6,0,1,
63d9bbe653e18c0a4e74f51f,SCR,2024-06-11_14h59.16.742,LearnStrategy,2023.2.3,Win32,59.95203837,6,2,8,,,,,,,,2,16,,,,,,,,,,,,,8,1.675,0,,,,,,0.45,-0.400925926,1,0,0,1.675,Pumice_rect,7,0,7,0,1,
63d9bbe653e18c0a4e74f51f,SCR,2024-06-11_14h59.16.742,LearnStrategy,2023.2.3,Win32,59.95203837,6,2,9,,,,,,,,5,10,,,,,,,,,,,,,5,0.818,1,,,,,,-0.336111111,-0.380555556,1,0,0,0.818,Obsidian_rect,8,0,8,0,1,
63d9bbe653e18c0a4e74f51f,SCR,2024-06-11_14h59.16.742,LearnStrategy,2023.2.3,Win32,59.95203837,6,2,10,,,,,,,,8,10,,,,,,,,,,,,,8,0.88,1,,,,,,0.478703704,-0.403703704,1,0,0,0.88,Pumice_rect,9,0,9,0,1,
63d9bbe653e18c0a4e74f51f,SCR,2024-06-11_14h59.16.742,LearnStrategy,2023.2.3,Win32,59.95203837,6,2,11,,,,,,,,7,10,,,,,,,,,,,,,3,0.828,0,,,,,,0.125,-0.232407407,1,0,0,0.828,Diorite_rect,10,0,10,0,1,
63d9bbe653e18c0a4e74f51f,SCR,2024-06-11_14h59.16.742,LearnStrategy,2023.2.3,Win32,59.95203837,6,2,12,,,,,,,,1,10,,,,,,,,,,,,,6,0.161,0,,,,,,-0.05,-0.408333333,1,0,0,0.161,Pegmatite_rect,11,0,11,0,1,
63d9bbe653e18c0a4e74f51f,SCR,2024-06-11_14h59.16.742,LearnStrategy,2023.2.3,Win32,59.95203837,6,2,13,,,,,,,,7,05,,,,,,,,,,,,,1,0.034,0,,,,,,-0.318518519,-0.234259259,1,0,0,0.034,Andesite_rect,12,0,12,0,1,
63d9bbe653e18c0a4e74f51f,SCR,2024-06-11_14h59.16.742,LearnStrategy,2023.2.3,Win32,59.95203837,6,2,14,,,,,,,,4,05,,,,,,,,,,,,,1,0.261,0,,,,,,-0.312962963,-0.235185185,1,0,0,0.261,Andesite_rect,13,0,13,0,1,
63d9bbe653e18c0a4e74f51f,SCR,2024-06-11_14h59.16.742,LearnStrategy,2023.2.3,Win32,59.95203837,6,2,15,,,,,,,,6,03,,,,,,,,,,,,,7,0.382,0,,,,,,0.131481481,-0.4,1,0,0,0.382,Peridotite_rect,14,0,14,0,1,
63d9bbe653e18c0a4e74f51f,SCR,2024-06-11_14h59.16.742,LearnStrategy,2023.2.3,Win32,59.95203837,6,2,16,,,,,,,,3,13,,,,,,,,,,,,,2,1.054,0,,,,,,-0.024074074,-0.236111111,1,0,0,1.054,Basalt_rect,15,0,15,0,1,
63d9bbe653e18c0a4e74f51f,SCR,2024-06-11_14h59.16.742,LearnStrategy,2023.2.3,Win32,59.95203837,7,1,1,-0.375925926,0.253703704,1,0,0,0.982,Andesite_09,1,09,5,2,0.982,1,09,0.088888889,-0.250925926,1,0,0,0.966,Diorite_rect,3,0.966,0,0,0,0,0,1,,,,,,,,,,,,,
63d9bbe653e18c0a4e74f51f,SCR,2024-06-11_14h59.16.742,LearnStrategy,2023.2.3,Win32,59.95203837,7,1,2,0.346296296,0.262037037,1,0,0,0.798,Peridotite_07,7,07,5,7,0.798,7,07,0.193518519,-0.265740741,1,0,0,0.896,Diorite_rect,3,0.896,0,1,0,1,0,1,,,,,,,,,,,,,
63d9bbe653e18c0a4e74f51f,SCR,2024-06-11_14h59.16.742,LearnStrategy,2023.2.3,Win32,59.95203837,7,1,3,0.525,0.443518519,1,0,0,0.766,Pumice_15,8,15,6,8,0.766,8,15,0.42037037,-0.408333333,1,0,0,0.907,Pumice_rect,8,0.907,1,2,0,2,0,1,,,,,,,,,,,,,
63d9bbe653e18c0a4e74f51f,SCR,2024-06-11_14h59.16.742,LearnStrategy,2023.2.3,Win32,59.95203837,7,1,4,-0.353703704,-0.112037037,1,0,0,0.828,Obsidian_06,5,06,3,2,0.828,5,06,0.162037037,-0.401851852,1,0,0,0.877,Peridotite_rect,7,0.877,0,3,0,3,0,1,,,,,,,,,,,,,
63d9bbe653e18c0a4e74f51f,SCR,2024-06-11_14h59.16.742,LearnStrategy,2023.2.3,Win32,59.95203837,7,1,5,0.055555556,-0.12037037,1,0,0,0.648,Gabbro_11,4,11,3,5,0.648,4,11,-0.136111111,-0.244444444,1,0,0,0.598,Basalt_rect,2,0.598,0,4,0,4,0,1,,,,,,,,,,,,,
63d9bbe653e18c0a4e74f51f,SCR,2024-06-11_14h59.16.742,LearnStrategy,2023.2.3,Win32,59.95203837,7,1,6,0.410185185,0.406481481,1,0,0,1.195,Andesite_07,1,07,6,7,1.195,1,07,0.150925926,-0.260185185,1,0,0,0.534,Diorite_rect,3,0.534,0,5,0,5,0,1,,,,,,,,,,,,,
63d9bbe653e18c0a4e74f51f,SCR,2024-06-11_14h59.16.742,LearnStrategy,2023.2.3,Win32,59.95203837,7,1,7,0.237037037,0.100925926,1,0,0,0.664,Diorite_16,3,16,4,6,0.664,3,16,0.137037037,-0.240740741,1,0,0,0.863,Diorite_rect,3,0.863,1,6,0,6,0,1,,,,,,,,,,,,,
63d9bbe653e18c0a4e74f51f,SCR,2024-06-11_14h59.16.742,LearnStrategy,2023.2.3,Win32,59.95203837,7,1,8,0.377777778,0.067592593,1,0,0,0.765,Gabbro_09,4,09,4,7,0.765,4,09,-0.233333333,-0.25,1,0,0,2.452,Basalt_rect,2,2.452,0,7,0,7,0,1,,,,,,,,,,,,,
63d9bbe653e18c0a4e74f51f,SCR,2024-06-11_14h59.16.742,LearnStrategy,2023.2.3,Win32,59.95203837,7,1,9,0.540740741,0.259259259,1,0,0,0.815,Basalt_02,2,02,5,8,0.815,2,02,-0.118518519,-0.237962963,1,0,0,1.523,Basalt_rect,2,1.523,1,8,0,8,0,1,,,,,,,,,,,,,
63d9bbe653e18c0a4e74f51f,SCR,2024-06-11_14h59.16.742,LearnStrategy,2023.2.3,Win32,59.95203837,7,1,10,-0.233333333,-0.449074074,1,0,0,0.915,Peridotite_02,7,02,1,3,0.915,7,02,0.103703704,-0.240740741,1,0,0,1.265,Diorite_rect,3,1.265,0,9,0,9,0,1,,,,,,,,,,,,,
63d9bbe653e18c0a4e74f51f,SCR,2024-06-11_14h59.16.742,LearnStrategy,2023.2.3,Win32,59.95203837,7,1,11,0.552777778,-0.101851852,1,0,0,0.782,Pegmatite_16,6,16,3,8,0.782,6,16,0.151851852,-0.250925926,1,0,0,0.936,Diorite_rect,3,0.936,0,10,0,10,0,1,,,,,,,,,,,,,
63d9bbe653e18c0a4e74f51f,SCR,2024-06-11_14h59.16.742,LearnStrategy,2023.2.3,Win32,59.95203837,7,1,12,0.359259259,-0.110185185,1,0,0,0.883,Pegmatite_05,6,05,3,7,0.883,6,05,0.141666667,-0.252777778,1,0,0,0.516,Diorite_rect,3,0.516,0,11,0,11,0,1,,,,,,,,,,,,,
63d9bbe653e18c0a4e74f51f,SCR,2024-06-11_14h59.16.742,LearnStrategy,2023.2.3,Win32,59.95203837,7,1,13,0.123148148,0.07962963,1,0,0,0.582,Peridotite_08,7,08,4,5,0.582,7,08,0.15462963,-0.246296296,1,0,0,0.803,Diorite_rect,3,0.803,0,12,0,12,0,1,,,,,,,,,,,,,
63d9bbe653e18c0a4e74f51f,SCR,2024-06-11_14h59.16.742,LearnStrategy,2023.2.3,Win32,59.95203837,7,1,14,-0.071296296,0.388888889,1,0,0,0.632,Basalt_06,2,06,6,4,0.632,2,06,-0.136111111,-0.248148148,1,0,0,0.629,Basalt_rect,2,0.629,1,13,0,13,0,1,,,,,,,,,,,,,
63d9bbe653e18c0a4e74f51f,SCR,2024-06-11_14h59.16.742,LearnStrategy,2023.2.3,Win32,59.95203837,7,1,15,-0.200925926,0.234259259,1,0,0,0.599,Diorite_08,3,08,5,3,0.599,3,08,0.110185185,-0.235185185,1,0,0,0.798,Diorite_rect,3,0.798,1,14,0,14,0,1,,,,,,,,,,,,,
63d9bbe653e18c0a4e74f51f,SCR,2024-06-11_14h59.16.742,LearnStrategy,2023.2.3,Win32,59.95203837,7,1,16,-0.34537037,0.073148148,1,0,0,0.565,Pegmatite_08,6,08,4,2,0.565,6,08,0.171296296,-0.401851852,1,0,0,0.884,Peridotite_rect,7,0.884,0,15,0,15,0,1,,,,,,,,,,,,,
63d9bbe653e18c0a4e74f51f,SCR,2024-06-11_14h59.16.742,LearnStrategy,2023.2.3,Win32,59.95203837,7,2,1,,,,,,,,6,13,,,,,,,,,,,,,6,1.572,1,,,,,,-0.071296296,-0.387962963,1,0,0,1.572,Pegmatite_rect,0,0,0,0,1,
63d9bbe653e18c0a4e74f51f,SCR,2024-06-11_14h59.16.742,LearnStrategy,2023.2.3,Win32,59.95203837,7,2,2,,,,,,,,5,14,,,,,,,,,,,,,5,0.918,1,,,,,,-0.361111111,-0.396296296,1,0,0,0.918,Obsidian_rect,1,0,1,0,1,
63d9bbe653e18c0a4e74f51f,SCR,2024-06-11_14h59.16.742,LearnStrategy,2023.2.3,Win32,59.95203837,7,2,3,,,,,,,,6,09,,,,,,,,,,,,,3,1.011,0,,,,,,0.063888889,-0.250925926,1,0,0,1.011,Diorite_rect,2,0,2,0,1,
63d9bbe653e18c0a4e74f51f,SCR,2024-06-11_14h59.16.742,LearnStrategy,2023.2.3,Win32,59.95203837,7,2,4,,,,,,,,5,02,,,,,,,,,,,,,5,1.049,1,,,,,,-0.334259259,-0.401851852,1,0,0,1.049,Obsidian_rect,3,0,3,0,1,
63d9bbe653e18c0a4e74f51f,SCR,2024-06-11_14h59.16.742,LearnStrategy,2023.2.3,Win32,59.95203837,7,2,5,,,,,,,,7,14,,,,,,,,,,,,,7,1.433,1,,,,,,0.109259259,-0.380555556,1,0,0,1.433,Peridotite_rect,4,0,4,0,1,
63d9bbe653e18c0a4e74f51f,SCR,2024-06-11_14h59.16.742,LearnStrategy,2023.2.3,Win32,59.95203837,7,2,6,,,,,,,,2,16,,,,,,,,,,,,,8,1.38,0,,,,,,0.383333333,-0.386111111,1,0,0,1.38,Pumice_rect,5,0,5,0,1,
63d9bbe653e18c0a4e74f51f,SCR,2024-06-11_14h59.16.742,LearnStrategy,2023.2.3,Win32,59.95203837,7,2,7,,,,,,,,1,05,,,,,,,,,,,,,3,0.688,0,,,,,,0.125925926,-0.243518519,1,0,0,0.688,Diorite_rect,6,0,6,0,1,
63d9bbe653e18c0a4e74f51f,SCR,2024-06-11_14h59.16.742,LearnStrategy,2023.2.3,Win32,59.95203837,7,2,8,,,,,,,,3,11,,,,,,,,,,,,,6,0.246,0,,,,,,-0.051851852,-0.396296296,1,0,0,0.246,Pegmatite_rect,7,0,7,0,1,
63d9bbe653e18c0a4e74f51f,SCR,2024-06-11_14h59.16.742,LearnStrategy,2023.2.3,Win32,59.95203837,7,2,9,,,,,,,,8,03,,,,,,,,,,,,,1,0.053,0,,,,,,-0.347222222,-0.237962963,1,0,0,0.053,Andesite_rect,8,0,8,0,1,
63d9bbe653e18c0a4e74f51f,SCR,2024-06-11_14h59.16.742,LearnStrategy,2023.2.3,Win32,59.95203837,7,2,10,,,,,,,,3,15,,,,,,,,,,,,,3,0.034,1,,,,,,0.087037037,-0.261111111,1,0,0,0.034,Diorite_rect,9,0,9,0,1,
63d9bbe653e18c0a4e74f51f,SCR,2024-06-11_14h59.16.742,LearnStrategy,2023.2.3,Win32,59.95203837,7,2,11,,,,,,,,8,10,,,,,,,,,,,,,2,0.441,0,,,,,,-0.037037037,-0.258333333,1,0,0,0.441,Basalt_rect,10,0,10,0,1,
63d9bbe653e18c0a4e74f51f,SCR,2024-06-11_14h59.16.742,LearnStrategy,2023.2.3,Win32,59.95203837,7,2,12,,,,,,,,1,10,,,,,,,,,,,,,3,0.657,0,,,,,,0.135185185,-0.239814815,1,0,0,0.657,Diorite_rect,11,0,11,0,1,
63d9bbe653e18c0a4e74f51f,SCR,2024-06-11_14h59.16.742,LearnStrategy,2023.2.3,Win32,59.95203837,7,2,13,,,,,,,,2,04,,,,,,,,,,,,,2,1.018,1,,,,,,-0.100925926,-0.237037037,1,0,0,1.018,Basalt_rect,12,0,12,0,1,
63d9bbe653e18c0a4e74f51f,SCR,2024-06-11_14h59.16.742,LearnStrategy,2023.2.3,Win32,59.95203837,7,2,14,,,,,,,,7,05,,,,,,,,,,,,,3,0.751,0,,,,,,0.07962963,-0.266666667,1,0,0,0.751,Diorite_rect,13,0,13,0,1,
63d9bbe653e18c0a4e74f51f,SCR,2024-06-11_14h59.16.742,LearnStrategy,2023.2.3,Win32,59.95203837,7,2,15,,,,,,,,4,16,,,,,,,,,,,,,2,1.69,0,,,,,,-0.082407407,-0.255555556,1,0,0,1.69,Basalt_rect,14,0,14,0,1,
63d9bbe653e18c0a4e74f51f,SCR,2024-06-11_14h59.16.742,LearnStrategy,2023.2.3,Win32,59.95203837,7,2,16,,,,,,,,4,14,,,,,,,,,,,,,7,0.995,0,,,,,,0.119444444,-0.4,1,0,0,0.995,Peridotite_rect,15,0,15,0,1,
63d9bbe653e18c0a4e74f51f,SCR,2024-06-11_14h59.16.742,LearnStrategy,2023.2.3,Win32,59.95203837,8,1,1,0.528703704,0.076851852,1,0,0,0.966,Obsidian_09,5,09,4,8,0.966,5,09,-0.434259259,-0.407407407,1,0,0,0.968,Obsidian_rect,5,0.968,1,0,0,0,0,1,,,,,,,,,,,,,
63d9bbe653e18c0a4e74f51f,SCR,2024-06-11_14h59.16.742,LearnStrategy,2023.2.3,Win32,59.95203837,8,1,2,0.184259259,0.080555556,1,0,0,0.631,Diorite_16,3,16,4,6,0.631,3,16,0.097222222,-0.240740741,1,0,0,1.469,Diorite_rect,3,1.469,1,1,0,1,0,1,,,,,,,,,,,,,
63d9bbe653e18c0a4e74f51f,SCR,2024-06-11_14h59.16.742,LearnStrategy,2023.2.3,Win32,59.95203837,8,1,3,0.216666667,-0.39537037,1,0,0,0.678,Andesite_06,1,06,1,6,0.678,1,06,0.112962963,-0.228703704,1,0,0,0.743,Diorite_rect,3,0.743,0,2,0,2,0,1,,,,,,,,,,,,,
63d9bbe653e18c0a4e74f51f,SCR,2024-06-11_14h59.16.742,LearnStrategy,2023.2.3,Win32,59.95203837,8,1,4,0.068518519,-0.116666667,1,0,0,0.531,Gabbro_11,4,11,3,5,0.531,4,11,-0.12037037,-0.261111111,1,0,0,0.559,Basalt_rect,2,0.559,0,3,0,3,0,1,,,,,,,,,,,,,
63d9bbe653e18c0a4e74f51f,SCR,2024-06-11_14h59.16.742,LearnStrategy,2023.2.3,Win32,59.95203837,8,1,5,-0.524074074,-0.111111111,1,0,0,0.898,Pumice_14,8,14,3,1,0.898,8,14,0.378703704,-0.402777778,0,0,1,1.596,Pumice_rect,8,1.596,1,4,0,4,0,1,,,,,,,,,,,,,
63d9bbe653e18c0a4e74f51f,SCR,2024-06-11_14h59.16.742,LearnStrategy,2023.2.3,Win32,59.95203837,8,1,6,0.571296296,-0.435185185,1,0,0,0.866,Gabbro_15,4,15,1,8,0.866,4,15,0.132407407,-0.271296296,1,0,0,1.529,Diorite_rect,3,1.529,0,5,0,5,0,1,,,,,,,,,,,,,
63d9bbe653e18c0a4e74f51f,SCR,2024-06-11_14h59.16.742,LearnStrategy,2023.2.3,Win32,59.95203837,8,1,7,0.090740741,-0.264814815,1,0,0,0.582,Diorite_06,3,06,2,5,0.582,3,06,0.10462963,-0.22962963,1,0,0,0.507,Diorite_rect,3,0.507,1,6,0,6,0,1,,,,,,,,,,,,,
63d9bbe653e18c0a4e74f51f,SCR,2024-06-11_14h59.16.742,LearnStrategy,2023.2.3,Win32,59.95203837,8,1,8,0.392592593,-0.268518519,1,0,0,0.779,Andesite_02,1,02,2,7,0.779,1,02,0.376851852,-0.411111111,1,0,0,0.907,Pumice_rect,8,0.907,0,7,0,7,0,1,,,,,,,,,,,,,
63d9bbe653e18c0a4e74f51f,SCR,2024-06-11_14h59.16.742,LearnStrategy,2023.2.3,Win32,59.95203837,8,1,9,0.037037037,0.199074074,1,0,0,0.716,Peridotite_12,7,12,5,5,0.716,7,12,0.098148148,-0.237037037,1,0,0,0.915,Diorite_rect,3,0.915,0,8,0,8,0,1,,,,,,,,,,,,,
63d9bbe653e18c0a4e74f51f,SCR,2024-06-11_14h59.16.742,LearnStrategy,2023.2.3,Win32,59.95203837,8,1,10,0.425925926,-0.093518519,1,0,0,0.598,Pegmatite_05,6,05,3,7,0.598,6,05,0.142592593,-0.391666667,1,0,0,0.913,Peridotite_rect,7,0.913,0,9,0,9,0,1,,,,,,,,,,,,,
63d9bbe653e18c0a4e74f51f,SCR,2024-06-11_14h59.16.742,LearnStrategy,2023.2.3,Win32,59.95203837,8,1,11,-0.564814815,0.230555556,1,0,0,0.865,Basalt_10,2,10,5,1,0.865,2,10,-0.141666667,-0.24537037,1,0,0,1.059,Basalt_rect,2,1.059,1,10,0,10,0,1,,,,,,,,,,,,,
63d9bbe653e18c0a4e74f51f,SCR,2024-06-11_14h59.16.742,LearnStrategy,2023.2.3,Win32,59.95203837,8,1,12,-0.584259259,0.25462963,1,0,0,1.017,Basalt_10,2,10,5,1,1.017,2,10,-0.142592593,-0.253703704,1,0,0,1.004,Basalt_rect,2,1.004,1,11,0,11,0,1,,,,,,,,,,,,,
63d9bbe653e18c0a4e74f51f,SCR,2024-06-11_14h59.16.742,LearnStrategy,2023.2.3,Win32,59.95203837,8,1,13,-0.2,-0.099074074,1,0,0,0.578,Peridotite_13,7,13,3,3,0.578,7,13,0.173148148,-0.263888889,1,0,0,0.845,Diorite_rect,3,0.845,0,12,0,12,0,1,,,,,,,,,,,,,
63d9bbe653e18c0a4e74f51f,SCR,2024-06-11_14h59.16.742,LearnStrategy,2023.2.3,Win32,59.95203837,8,1,14,0.403703704,-0.126851852,1,0,0,1.417,Pegmatite_05,6,05,3,7,1.417,6,05,0.137962963,-0.255555556,1,0,0,0.752,Diorite_rect,3,0.752,0,13,0,13,0,1,,,,,,,,,,,,,
63d9bbe653e18c0a4e74f51f,SCR,2024-06-11_14h59.16.742,LearnStrategy,2023.2.3,Win32,59.95203837,8,1,15,0.344444444,0.149074074,1,0,0,0.715,Gabbro_09,4,09,4,7,0.715,4,09,-0.087037037,-0.267592593,1,0,0,0.816,Basalt_rect,2,0.816,0,14,0,14,0,1,,,,,,,,,,,,,
63d9bbe653e18c0a4e74f51f,SCR,2024-06-11_14h59.16.742,LearnStrategy,2023.2.3,Win32,59.95203837,8,1,16,0.443518519,-0.388888889,1,0,0,0.865,Pumice_05,8,05,1,7,0.865,8,05,0.423148148,-0.402777778,1,0,0,0.557,Pumice_rect,8,0.557,1,15,0,15,0,1,,,,,,,,,,,,,
63d9bbe653e18c0a4e74f51f,SCR,2024-06-11_14h59.16.742,LearnStrategy,2023.2.3,Win32,59.95203837,8,2,1,,,,,,,,4,05,,,,,,,,,,,,,3,1.806,0,,,,,,0.110185185,-0.246296296,1,0,0,1.806,Diorite_rect,0,0,0,0,1,
63d9bbe653e18c0a4e74f51f,SCR,2024-06-11_14h59.16.742,LearnStrategy,2023.2.3,Win32,59.95203837,8,2,2,,,,,,,,2,08,,,,,,,,,,,,,2,1.097,1,,,,,,-0.125925926,-0.247222222,1,0,0,1.097,Basalt_rect,1,0,1,0,1,
63d9bbe653e18c0a4e74f51f,SCR,2024-06-11_14h59.16.742,LearnStrategy,2023.2.3,Win32,59.95203837,8,2,3,,,,,,,,1,04,,,,,,,,,,,,,2,4.496,0,,,,,,-0.124074074,-0.228703704,1,0,0,4.496,Basalt_rect,2,0,2,0,1,
63d9bbe653e18c0a4e74f51f,SCR,2024-06-11_14h59.16.742,LearnStrategy,2023.2.3,Win32,59.95203837,8,2,4,,,,,,,,3,07,,,,,,,,,,,,,2,0.5,0,,,,,,-0.124074074,-0.228703704,1,0,0,0.5,Basalt_rect,3,0,3,0,1,
63d9bbe653e18c0a4e74f51f,SCR,2024-06-11_14h59.16.742,LearnStrategy,2023.2.3,Win32,59.95203837,8,2,5,,,,,,,,6,12,,,,,,,,,,,,,3,0.701,0,,,,,,0.118518519,-0.236111111,1,0,0,0.701,Diorite_rect,4,0,4,0,1,
63d9bbe653e18c0a4e74f51f,SCR,2024-06-11_14h59.16.742,LearnStrategy,2023.2.3,Win32,59.95203837,8,2,6,,,,,,,,1,16,,,,,,,,,,,,,8,0.634,0,,,,,,0.364814815,-0.403703704,1,0,0,0.634,Pumice_rect,5,0,5,0,1,
63d9bbe653e18c0a4e74f51f,SCR,2024-06-11_14h59.16.742,LearnStrategy,2023.2.3,Win32,59.95203837,8,2,7,,,,,,,,5,10,,,,,,,,,,,,,1,0.749,0,,,,,,-0.362962963,-0.243518519,1,0,0,0.749,Andesite_rect,6,0,6,0,1,
63d9bbe653e18c0a4e74f51f,SCR,2024-06-11_14h59.16.742,LearnStrategy,2023.2.3,Win32,59.95203837,8,2,8,,,,,,,,5,16,,,,,,,,,,,,,6,0.681,0,,,,,,-0.074074074,-0.390740741,1,0,0,0.681,Pegmatite_rect,7,0,7,0,1,
63d9bbe653e18c0a4e74f51f,SCR,2024-06-11_14h59.16.742,LearnStrategy,2023.2.3,Win32,59.95203837,8,2,9,,,,,,,,8,16,,,,,,,,,,,,,3,0.545,0,,,,,,0.147222222,-0.261111111,1,0,0,0.545,Diorite_rect,8,0,8,0,1,
63d9bbe653e18c0a4e74f51f,SCR,2024-06-11_14h59.16.742,LearnStrategy,2023.2.3,Win32,59.95203837,8,2,10,,,,,,,,4,10,,,,,,,,,,,,,5,0.621,0,,,,,,-0.347222222,-0.400925926,1,0,0,0.621,Obsidian_rect,9,0,9,0,1,
63d9bbe653e18c0a4e74f51f,SCR,2024-06-11_14h59.16.742,LearnStrategy,2023.2.3,Win32,59.95203837,8,2,11,,,,,,,,7,04,,,,,,,,,,,,,4,0.832,0,,,,,,0.363888889,-0.249074074,1,0,0,0.832,Gabbro_rect,10,0,10,0,1,
63d9bbe653e18c0a4e74f51f,SCR,2024-06-11_14h59.16.742,LearnStrategy,2023.2.3,Win32,59.95203837,8,2,12,,,,,,,,8,13,,,,,,,,,,,,,1,0.959,0,,,,,,-0.385185185,-0.238888889,1,0,0,0.959,Andesite_rect,11,0,11,0,1,
63d9bbe653e18c0a4e74f51f,SCR,2024-06-11_14h59.16.742,LearnStrategy,2023.2.3,Win32,59.95203837,8,2,13,,,,,,,,7,16,,,,,,,,,,,,,7,1.173,1,,,,,,0.066666667,-0.39537037,1,0,0,1.173,Peridotite_rect,12,0,12,0,1,
63d9bbe653e18c0a4e74f51f,SCR,2024-06-11_14h59.16.742,LearnStrategy,2023.2.3,Win32,59.95203837,8,2,14,,,,,,,,2,05,,,,,,,,,,,,,2,1.029,1,,,,,,-0.077777778,-0.25462963,1,0,0,1.029,Basalt_rect,13,0,13,0,1,
63d9bbe653e18c0a4e74f51f,SCR,2024-06-11_14h59.16.742,LearnStrategy,2023.2.3,Win32,59.95203837,8,2,15,,,,,,,,6,07,,,,,,,,,,,,,8,0.805,0,,,,,,0.316666667,-0.39537037,1,0,0,0.805,Pumice_rect,14,0,14,0,1,
63d9bbe653e18c0a4e74f51f,SCR,2024-06-11_14h59.16.742,LearnStrategy,2023.2.3,Win32,59.95203837,8,2,16,,,,,,,,3,10,,,,,,,,,,,,,3,1.319,1,,,,,,0.117592593,-0.253703704,1,0,0,1.319,Diorite_rect,15,0,15,0,1,
63d9bbe653e18c0a4e74f51f,SCR,2024-06-11_14h59.16.742,LearnStrategy,2023.2.3,Win32,59.95203837,9,1,1,0.380555556,0.448148148,1,0,0,3.394,Andesite_07,1,07,6,7,3.394,1,07,0.15,-0.228703704,1,0,0,1.724,Diorite_rect,3,1.724,0,0,0,0,0,1,,,,,,,,,,,,,
63d9bbe653e18c0a4e74f51f,SCR,2024-06-11_14h59.16.742,LearnStrategy,2023.2.3,Win32,59.95203837,9,1,2,0.382407407,-0.214814815,1,0,0,1.232,Andesite_02,1,02,2,7,1.232,1,02,-0.153703704,-0.259259259,1,0,0,1.116,Basalt_rect,2,1.116,0,1,0,1,0,1,,,,,,,,,,,,,
63d9bbe653e18c0a4e74f51f,SCR,2024-06-11_14h59.16.742,LearnStrategy,2023.2.3,Win32,59.95203837,9,1,3,-0.044444444,0.44537037,1,0,0,1.767,Basalt_06,2,06,6,4,1.767,2,06,-0.190740741,-0.250925926,1,0,0,2.484,Basalt_rect,2,2.484,1,2,0,2,0,1,,,,,,,,,,,,,
63d9bbe653e18c0a4e74f51f,SCR,2024-06-11_14h59.16.742,LearnStrategy,2023.2.3,Win32,59.95203837,9,1,4,-0.4,-0.212962963,1,0,0,1.232,Pegmatite_11,6,11,2,2,1.232,6,11,0.32962963,-0.403703704,1,0,0,3.075,Pumice_rect,8,3.075,0,3,0,3,0,1,,,,,,,,,,,,,
63d9bbe653e18c0a4e74f51f,SCR,2024-06-11_14h59.16.742,LearnStrategy,2023.2.3,Win32,59.95203837,9,1,5,-0.534259259,-0.434259259,1,0,0,1.242,Gabbro_13,4,13,1,1,1.242,4,13,-0.457407407,-0.399074074,1,0,0,1.089,Obsidian_rect,5,1.089,0,4,0,4,0,1,,,,,,,,,,,,,
63d9bbe653e18c0a4e74f51f,SCR,2024-06-11_14h59.16.742,LearnStrategy,2023.2.3,Win32,59.95203837,9,1,6,-0.038888889,-0.080555556,1,0,0,0.883,Basalt_09,2,09,3,4,0.883,2,09,0.141666667,-0.258333333,1,0,0,1.053,Diorite_rect,3,1.053,0,5,0,5,0,1,,,,,,,,,,,,,
63d9bbe653e18c0a4e74f51f,SCR,2024-06-11_14h59.16.742,LearnStrategy,2023.2.3,Win32,59.95203837,9,1,7,-0.215740741,0.130555556,1,0,0,0.982,Diorite_02,3,02,4,3,0.982,3,02,0.10462963,-0.415740741,1,0,0,1.279,Peridotite_rect,7,1.279,0,6,0,6,0,1,,,,,,,,,,,,,
63d9bbe653e18c0a4e74f51f,SCR,2024-06-11_14h59.16.742,LearnStrategy,2023.2.3,Win32,59.95203837,9,1,8,-0.082407407,0.255555556,1,0,0,0.85,Pumice_04,8,04,5,4,0.85,8,04,0.144444444,-0.386111111,1,0,0,0.947,Peridotite_rect,7,0.947,0,7,0,7,0,1,,,,,,,,,,,,,
63d9bbe653e18c0a4e74f51f,SCR,2024-06-11_14h59.16.742,LearnStrategy,2023.2.3,Win32,59.95203837,9,1,9,-0.034259259,0.077777778,1,0,0,0.797,Obsidian_07,5,07,4,4,0.797,5,07,0.025925926,-0.25,1,0,0,1.633,Diorite_rect,3,1.633,0,8,0,8,0,1,,,,,,,,,,,,,
63d9bbe653e18c0a4e74f51f,SCR,2024-06-11_14h59.16.742,LearnStrategy,2023.2.3,Win32,59.95203837,9,1,10,-0.203703704,-0.090740741,1,0,0,1.079,Peridotite_13,7,13,3,3,1.079,7,13,-0.113888889,-0.40462963,1,0,0,0.945,Pegmatite_rect,6,0.945,0,9,0,9,0,1,,,,,,,,,,,,,
63d9bbe653e18c0a4e74f51f,SCR,2024-06-11_14h59.16.742,LearnStrategy,2023.2.3,Win32,59.95203837,9,1,11,0.2,-0.226851852,1,0,0,0.763,Andesite_03,1,03,2,6,0.763,1,03,0.37037037,-0.261111111,1,0,0,0.8,Gabbro_rect,4,0.8,0,10,0,10,0,1,,,,,,,,,,,,,
63d9bbe653e18c0a4e74f51f,SCR,2024-06-11_14h59.16.742,LearnStrategy,2023.2.3,Win32,59.95203837,9,1,12,-0.541666667,0.097222222,1,0,0,0.917,Gabbro_03,4,03,4,1,0.917,4,03,-0.17962963,-0.267592593,1,0,0,2.288,Basalt_rect,2,2.288,0,11,0,11,0,1,,,,,,,,,,,,,
63d9bbe653e18c0a4e74f51f,SCR,2024-06-11_14h59.16.742,LearnStrategy,2023.2.3,Win32,59.95203837,9,1,13,0.530555556,-0.067592593,1,0,0,1.416,Pegmatite_16,6,16,3,8,1.416,6,16,-0.435185185,-0.261111111,1,0,0,1.078,Andesite_rect,1,1.078,0,12,0,12,0,1,,,,,,,,,,,,,
63d9bbe653e18c0a4e74f51f,SCR,2024-06-11_14h59.16.742,LearnStrategy,2023.2.3,Win32,59.95203837,9,1,14,-0.52962963,-0.071296296,1,0,0,1.327,Pumice_14,8,14,3,1,1.327,8,14,-0.342592593,-0.397222222,1,0,0,1.067,Obsidian_rect,5,1.067,0,13,0,13,0,1,,,,,,,,,,,,,
63d9bbe653e18c0a4e74f51f,SCR,2024-06-11_14h59.16.742,LearnStrategy,2023.2.3,Win32,59.95203837,9,1,15,0.051851852,-0.211111111,1,0,0,0.728,Diorite_06,3,06,2,5,0.728,3,06,0.187037037,-0.391666667,1,0,0,1.051,Peridotite_rect,7,1.051,0,14,0,14,0,1,,,,,,,,,,,,,
63d9bbe653e18c0a4e74f51f,SCR,2024-06-11_14h59.16.742,LearnStrategy,2023.2.3,Win32,59.95203837,9,1,16,0.389814815,0.252777778,1,0,0,1.232,Peridotite_07,7,07,5,7,1.232,7,07,0.368518519,-0.387037037,1,0,0,1.152,Pumice_rect,8,1.152,0,15,0,15,0,1,,,,,,,,,,,,,
63d9bbe653e18c0a4e74f51f,SCR,2024-06-11_14h59.16.742,LearnStrategy,2023.2.3,Win32,59.95203837,9,2,1,,,,,,,,2,12,,,,,,,,,,,,,2,0.982,1,,,,,,-0.117592593,-0.257407407,1,0,0,0.982,Basalt_rect,0,0,0,0,1,
63d9bbe653e18c0a4e74f51f,SCR,2024-06-11_14h59.16.742,LearnStrategy,2023.2.3,Win32,59.95203837,9,2,2,,,,,,,,3,13,,,,,,,,,,,,,3,1.402,1,,,,,,0.175,-0.246296296,1,0,0,1.402,Diorite_rect,1,0,1,0,1,
63d9bbe653e18c0a4e74f51f,SCR,2024-06-11_14h59.16.742,LearnStrategy,2023.2.3,Win32,59.95203837,9,2,3,,,,,,,,4,01,,,,,,,,,,,,,3,0.888,0,,,,,,0.087037037,-0.260185185,1,0,0,0.888,Diorite_rect,2,0,2,0,1,
63d9bbe653e18c0a4e74f51f,SCR,2024-06-11_14h59.16.742,LearnStrategy,2023.2.3,Win32,59.95203837,9,2,4,,,,,,,,6,03,,,,,,,,,,,,,3,0.708,0,,,,,,0.087037037,-0.260185185,1,0,0,0.708,Diorite_rect,3,0,3,0,1,
63d9bbe653e18c0a4e74f51f,SCR,2024-06-11_14h59.16.742,LearnStrategy,2023.2.3,Win32,59.95203837,9,2,5,,,,,,,,7,06,,,,,,,,,,,,,4,1.03,0,,,,,,0.387037037,-0.268518519,1,0,0,1.03,Gabbro_rect,4,0,4,0,1,
63d9bbe653e18c0a4e74f51f,SCR,2024-06-11_14h59.16.742,LearnStrategy,2023.2.3,Win32,59.95203837,9,2,6,,,,,,,,7,10,,,,,,,,,,,,,6,0.706,0,,,,,,-0.087962963,-0.397222222,1,0,0,0.706,Pegmatite_rect,5,0,5,0,1,
63d9bbe653e18c0a4e74f51f,SCR,2024-06-11_14h59.16.742,LearnStrategy,2023.2.3,Win32,59.95203837,9,2,7,,,,,,,,1,01,,,,,,,,,,,,,1,0.941,1,,,,,,-0.366666667,-0.257407407,1,0,0,0.941,Andesite_rect,6,0,6,0,1,
63d9bbe653e18c0a4e74f51f,SCR,2024-06-11_14h59.16.742,LearnStrategy,2023.2.3,Win32,59.95203837,9,2,8,,,,,,,,6,06,,,,,,,,,,,,,7,0.865,0,,,,,,0.132407407,-0.40462963,1,0,0,0.865,Peridotite_rect,7,0,7,0,1,
63d9bbe653e18c0a4e74f51f,SCR,2024-06-11_14h59.16.742,LearnStrategy,2023.2.3,Win32,59.95203837,9,2,9,,,,,,,,1,14,,,,,,,,,,,,,5,1.377,0,,,,,,-0.325,-0.389814815,1,0,0,1.377,Obsidian_rect,8,0,8,0,1,
63d9bbe653e18c0a4e74f51f,SCR,2024-06-11_14h59.16.742,LearnStrategy,2023.2.3,Win32,59.95203837,9,2,10,,,,,,,,8,06,,,,,,,,,,,,,2,0.9,0,,,,,,-0.085185185,-0.24537037,1,0,0,0.9,Basalt_rect,9,0,9,0,1,
63d9bbe653e18c0a4e74f51f,SCR,2024-06-11_14h59.16.742,LearnStrategy,2023.2.3,Win32,59.95203837,9,2,11,,,,,,,,4,12,,,,,,,,,,,,,8,1.081,0,,,,,,0.385185185,-0.412962963,1,0,0,1.081,Pumice_rect,10,0,10,0,1,
63d9bbe653e18c0a4e74f51f,SCR,2024-06-11_14h59.16.742,LearnStrategy,2023.2.3,Win32,59.95203837,9,2,12,,,,,,,,5,11,,,,,,,,,,,,,2,2.362,0,,,,,,-0.088888889,-0.241666667,1,0,0,2.362,Basalt_rect,11,0,11,0,1,
63d9bbe653e18c0a4e74f51f,SCR,2024-06-11_14h59.16.742,LearnStrategy,2023.2.3,Win32,59.95203837,9,2,13,,,,,,,,2,11,,,,,,,,,,,,,7,1.483,0,,,,,,0.144444444,-0.405555556,1,0,0,1.483,Peridotite_rect,12,0,12,0,1,
63d9bbe653e18c0a4e74f51f,SCR,2024-06-11_14h59.16.742,LearnStrategy,2023.2.3,Win32,59.95203837,9,2,14,,,,,,,,3,12,,,,,,,,,,,,,4,1.049,0,,,,,,0.389814815,-0.250925926,1,0,0,1.049,Gabbro_rect,13,0,13,0,1,
63d9bbe653e18c0a4e74f51f,SCR,2024-06-11_14h59.16.742,LearnStrategy,2023.2.3,Win32,59.95203837,9,2,15,,,,,,,,5,12,,,,,,,,,,,,,2,1.117,0,,,,,,-0.152777778,-0.247222222,1,0,0,1.117,Basalt_rect,14,0,14,0,1,
63d9bbe653e18c0a4e74f51f,SCR,2024-06-11_14h59.16.742,LearnStrategy,2023.2.3,Win32,59.95203837,9,2,16,,,,,,,,8,02,,,,,,,,,,,,,1,1.309,0,,,,,,-0.376851852,-0.230555556,1,0,0,1.309,Andesite_rect,15,0,15,0,1,
63d9bbe653e18c0a4e74f51f,SCR,2024-06-11_14h59.16.742,LearnStrategy,2023.2.3,Win32,59.95203837,,,,,,,,,,,,,,,,,,,,,,,,,,,,,,,,,,,,,,,,,,,,,0
63d9bbe653e18c0a4e74f51f,SCR,2024-06-11_14h59.16.742,LearnStrategy,2023.2.3,Win32,59.95203837,,,,,,,,,,,,,,,,,,,,,,,,,,,,,,,,,,,,,,,,,,,,,
63d9bbe653e18c0a4e74f51f,SCR,2024-06-11_14h59.16.742,LearnStrategy,2023.2.3,Win32,59.95203837,,,,,,,,,,,4,13,1,1,,,,,,,,,,,,,,,,,,,,,,,,,,,,,,,
63d9bbe653e18c0a4e74f51f,SCR,2024-06-11_14h59.16.742,LearnStrategy,2023.2.3,Win32,59.95203837,,,,,,,,,,,7,15,1,2,,,,,,,,,,,,,,,,,,,,,,,,,,,,,,,
63d9bbe653e18c0a4e74f51f,SCR,2024-06-11_14h59.16.742,LearnStrategy,2023.2.3,Win32,59.95203837,,,,,,,,,,,7,02,1,3,,,,,,,,,,,,,,,,,,,,,,,,,,,,,,,
63d9bbe653e18c0a4e74f51f,SCR,2024-06-11_14h59.16.742,LearnStrategy,2023.2.3,Win32,59.95203837,,,,,,,,,,,6,15,1,4,,,,,,,,,,,,,,,,,,,,,,,,,,,,,,,
63d9bbe653e18c0a4e74f51f,SCR,2024-06-11_14h59.16.742,LearnStrategy,2023.2.3,Win32,59.95203837,,,,,,,,,,,3,09,1,5,,,,,,,,,,,,,,,,,,,,,,,,,,,,,,,
63d9bbe653e18c0a4e74f51f,SCR,2024-06-11_14h59.16.742,LearnStrategy,2023.2.3,Win32,59.95203837,,,,,,,,,,,1,06,1,6,,,,,,,,,,,,,,,,,,,,,,,,,,,,,,,
63d9bbe653e18c0a4e74f51f,SCR,2024-06-11_14h59.16.742,LearnStrategy,2023.2.3,Win32,59.95203837,,,,,,,,,,,8,05,1,7,,,,,,,,,,,,,,,,,,,,,,,,,,,,,,,
63d9bbe653e18c0a4e74f51f,SCR,2024-06-11_14h59.16.742,LearnStrategy,2023.2.3,Win32,59.95203837,,,,,,,,,,,4,15,1,8,,,,,,,,,,,,,,,,,,,,,,,,,,,,,,,
63d9bbe653e18c0a4e74f51f,SCR,2024-06-11_14h59.16.742,LearnStrategy,2023.2.3,Win32,59.95203837,,,,,,,,,,,5,05,2,1,,,,,,,,,,,,,,,,,,,,,,,,,,,,,,,
63d9bbe653e18c0a4e74f51f,SCR,2024-06-11_14h59.16.742,LearnStrategy,2023.2.3,Win32,59.95203837,,,,,,,,,,,6,11,2,2,,,,,,,,,,,,,,,,,,,,,,,,,,,,,,,
63d9bbe653e18c0a4e74f51f,SCR,2024-06-11_14h59.16.742,LearnStrategy,2023.2.3,Win32,59.95203837,,,,,,,,,,,2,14,2,3,,,,,,,,,,,,,,,,,,,,,,,,,,,,,,,
63d9bbe653e18c0a4e74f51f,SCR,2024-06-11_14h59.16.742,LearnStrategy,2023.2.3,Win32,59.95203837,,,,,,,,,,,6,10,2,4,,,,,,,,,,,,,,,,,,,,,,,,,,,,,,,
63d9bbe653e18c0a4e74f51f,SCR,2024-06-11_14h59.16.742,LearnStrategy,2023.2.3,Win32,59.95203837,,,,,,,,,,,3,06,2,5,,,,,,,,,,,,,,,,,,,,,,,,,,,,,,,
63d9bbe653e18c0a4e74f51f,SCR,2024-06-11_14h59.16.742,LearnStrategy,2023.2.3,Win32,59.95203837,,,,,,,,,,,1,03,2,6,,,,,,,,,,,,,,,,,,,,,,,,,,,,,,,
63d9bbe653e18c0a4e74f51f,SCR,2024-06-11_14h59.16.742,LearnStrategy,2023.2.3,Win32,59.95203837,,,,,,,,,,,1,02,2,7,,,,,,,,,,,,,,,,,,,,,,,,,,,,,,,
63d9bbe653e18c0a4e74f51f,SCR,2024-06-11_14h59.16.742,LearnStrategy,2023.2.3,Win32,59.95203837,,,,,,,,,,,8,08,2,8,,,,,,,,,,,,,,,,,,,,,,,,,,,,,,,
63d9bbe653e18c0a4e74f51f,SCR,2024-06-11_14h59.16.742,LearnStrategy,2023.2.3,Win32,59.95203837,,,,,,,,,,,8,14,3,1,,,,,,,,,,,,,,,,,,,,,,,,,,,,,,,
63d9bbe653e18c0a4e74f51f,SCR,2024-06-11_14h59.16.742,LearnStrategy,2023.2.3,Win32,59.95203837,,,,,,,,,,,5,06,3,2,,,,,,,,,,,,,,,,,,,,,,,,,,,,,,,
63d9bbe653e18c0a4e74f51f,SCR,2024-06-11_14h59.16.742,LearnStrategy,2023.2.3,Win32,59.95203837,,,,,,,,,,,7,13,3,3,,,,,,,,,,,,,,,,,,,,,,,,,,,,,,,
63d9bbe653e18c0a4e74f51f,SCR,2024-06-11_14h59.16.742,LearnStrategy,2023.2.3,Win32,59.95203837,,,,,,,,,,,2,09,3,4,,,,,,,,,,,,,,,,,,,,,,,,,,,,,,,
63d9bbe653e18c0a4e74f51f,SCR,2024-06-11_14h59.16.742,LearnStrategy,2023.2.3,Win32,59.95203837,,,,,,,,,,,4,11,3,5,,,,,,,,,,,,,,,,,,,,,,,,,,,,,,,
63d9bbe653e18c0a4e74f51f,SCR,2024-06-11_14h59.16.742,LearnStrategy,2023.2.3,Win32,59.95203837,,,,,,,,,,,3,14,3,6,,,,,,,,,,,,,,,,,,,,,,,,,,,,,,,
63d9bbe653e18c0a4e74f51f,SCR,2024-06-11_14h59.16.742,LearnStrategy,2023.2.3,Win32,59.95203837,,,,,,,,,,,6,05,3,7,,,,,,,,,,,,,,,,,,,,,,,,,,,,,,,
63d9bbe653e18c0a4e74f51f,SCR,2024-06-11_14h59.16.742,LearnStrategy,2023.2.3,Win32,59.95203837,,,,,,,,,,,6,16,3,8,,,,,,,,,,,,,,,,,,,,,,,,,,,,,,,
63d9bbe653e18c0a4e74f51f,SCR,2024-06-11_14h59.16.742,LearnStrategy,2023.2.3,Win32,59.95203837,,,,,,,,,,,4,03,4,1,,,,,,,,,,,,,,,,,,,,,,,,,,,,,,,
63d9bbe653e18c0a4e74f51f,SCR,2024-06-11_14h59.16.742,LearnStrategy,2023.2.3,Win32,59.95203837,,,,,,,,,,,6,08,4,2,,,,,,,,,,,,,,,,,,,,,,,,,,,,,,,
63d9bbe653e18c0a4e74f51f,SCR,2024-06-11_14h59.16.742,LearnStrategy,2023.2.3,Win32,59.95203837,,,,,,,,,,,3,02,4,3,,,,,,,,,,,,,,,,,,,,,,,,,,,,,,,
63d9bbe653e18c0a4e74f51f,SCR,2024-06-11_14h59.16.742,LearnStrategy,2023.2.3,Win32,59.95203837,,,,,,,,,,,5,07,4,4,,,,,,,,,,,,,,,,,,,,,,,,,,,,,,,
63d9bbe653e18c0a4e74f51f,SCR,2024-06-11_14h59.16.742,LearnStrategy,2023.2.3,Win32,59.95203837,,,,,,,,,,,7,08,4,5,,,,,,,,,,,,,,,,,,,,,,,,,,,,,,,
63d9bbe653e18c0a4e74f51f,SCR,2024-06-11_14h59.16.742,LearnStrategy,2023.2.3,Win32,59.95203837,,,,,,,,,,,3,16,4,6,,,,,,,,,,,,,,,,,,,,,,,,,,,,,,,
63d9bbe653e18c0a4e74f51f,SCR,2024-06-11_14h59.16.742,LearnStrategy,2023.2.3,Win32,59.95203837,,,,,,,,,,,4,09,4,7,,,,,,,,,,,,,,,,,,,,,,,,,,,,,,,
63d9bbe653e18c0a4e74f51f,SCR,2024-06-11_14h59.16.742,LearnStrategy,2023.2.3,Win32,59.95203837,,,,,,,,,,,5,09,4,8,,,,,,,,,,,,,,,,,,,,,,,,,,,,,,,
63d9bbe653e18c0a4e74f51f,SCR,2024-06-11_14h59.16.742,LearnStrategy,2023.2.3,Win32,59.95203837,,,,,,,,,,,2,10,5,1,,,,,,,,,,,,,,,,,,,,,,,,,,,,,,,
63d9bbe653e18c0a4e74f51f,SCR,2024-06-11_14h59.16.742,LearnStrategy,2023.2.3,Win32,59.95203837,,,,,,,,,,,1,09,5,2,,,,,,,,,,,,,,,,,,,,,,,,,,,,,,,
63d9bbe653e18c0a4e74f51f,SCR,2024-06-11_14h59.16.742,LearnStrategy,2023.2.3,Win32,59.95203837,,,,,,,,,,,3,08,5,3,,,,,,,,,,,,,,,,,,,,,,,,,,,,,,,
63d9bbe653e18c0a4e74f51f,SCR,2024-06-11_14h59.16.742,LearnStrategy,2023.2.3,Win32,59.95203837,,,,,,,,,,,8,04,5,4,,,,,,,,,,,,,,,,,,,,,,,,,,,,,,,
63d9bbe653e18c0a4e74f51f,SCR,2024-06-11_14h59.16.742,LearnStrategy,2023.2.3,Win32,59.95203837,,,,,,,,,,,7,12,5,5,,,,,,,,,,,,,,,,,,,,,,,,,,,,,,,
63d9bbe653e18c0a4e74f51f,SCR,2024-06-11_14h59.16.742,LearnStrategy,2023.2.3,Win32,59.95203837,,,,,,,,,,,2,01,5,6,,,,,,,,,,,,,,,,,,,,,,,,,,,,,,,
63d9bbe653e18c0a4e74f51f,SCR,2024-06-11_14h59.16.742,LearnStrategy,2023.2.3,Win32,59.95203837,,,,,,,,,,,7,07,5,7,,,,,,,,,,,,,,,,,,,,,,,,,,,,,,,
63d9bbe653e18c0a4e74f51f,SCR,2024-06-11_14h59.16.742,LearnStrategy,2023.2.3,Win32,59.95203837,,,,,,,,,,,2,02,5,8,,,,,,,,,,,,,,,,,,,,,,,,,,,,,,,
63d9bbe653e18c0a4e74f51f,SCR,2024-06-11_14h59.16.742,LearnStrategy,2023.2.3,Win32,59.95203837,,,,,,,,,,,1,11,6,1,,,,,,,,,,,,,,,,,,,,,,,,,,,,,,,
63d9bbe653e18c0a4e74f51f,SCR,2024-06-11_14h59.16.742,LearnStrategy,2023.2.3,Win32,59.95203837,,,,,,,,,,,8,09,6,2,,,,,,,,,,,,,,,,,,,,,,,,,,,,,,,
63d9bbe653e18c0a4e74f51f,SCR,2024-06-11_14h59.16.742,LearnStrategy,2023.2.3,Win32,59.95203837,,,,,,,,,,,5,08,6,3,,,,,,,,,,,,,,,,,,,,,,,,,,,,,,,
63d9bbe653e18c0a4e74f51f,SCR,2024-06-11_14h59.16.742,LearnStrategy,2023.2.3,Win32,59.95203837,,,,,,,,,,,2,06,6,4,,,,,,,,,,,,,,,,,,,,,,,,,,,,,,,
63d9bbe653e18c0a4e74f51f,SCR,2024-06-11_14h59.16.742,LearnStrategy,2023.2.3,Win32,59.95203837,,,,,,,,,,,5,04,6,5,,,,,,,,,,,,,,,,,,,,,,,,,,,,,,,
63d9bbe653e18c0a4e74f51f,SCR,2024-06-11_14h59.16.742,LearnStrategy,2023.2.3,Win32,59.95203837,,,,,,,,,,,4,08,6,6,,,,,,,,,,,,,,,,,,,,,,,,,,,,,,,
63d9bbe653e18c0a4e74f51f,SCR,2024-06-11_14h59.16.742,LearnStrategy,2023.2.3,Win32,59.95203837,,,,,,,,,,,1,07,6,7,,,,,,,,,,,,,,,,,,,,,,,,,,,,,,,
63d9bbe653e18c0a4e74f51f,SCR,2024-06-11_14h59.16.742,LearnStrategy,2023.2.3,Win32,59.95203837,,,,,,,,,,,8,15,6,8,,,,,,,,,,,,,,,,,,,,,,,,,,,,,,,