participant,condition,date,expName,psychopyVersion,OS,frameRate,block,phase,trial,learn_mouse.x,learn_mouse.y,learn_mouse.leftButton,learn_mouse.midButton,learn_mouse.rightButton,learn_mouse.time,learn_mouse.clicked_name,cat,token,row,col,t_select,cat_mouse_l.x,cat_mouse_l.y,cat_mouse_l.leftButton,cat_mouse_l.midButton,cat_mouse_l.rightButton,cat_mouse_l.time,cat_mouse_l.clicked_name,resp,t_resp,corr,train_trials.thisRepN,train_trials.thisTrialN,train_trials.thisN,train_trials.thisIndex,train_trials.ran,cat_mouse_t.x,cat_mouse_t.y,cat_mouse_t.leftButton,cat_mouse_t.midButton,cat_mouse_t.rightButton,cat_mouse_t.time,cat_mouse_t.clicked_name,test_trials.thisRepN,test_trials.thisTrialN,test_trials.thisN,test_trials.thisIndex,test_trials.ran,Bonus
63e461c4bdc3693c05d515a1,SCN,2024-06-24_13h46.29.014,LearnStrategy,2023.2.3,Win32,60.24096386,,,,,,,,,,,,,,,,,,,,,,,,,,,,,,,,,,,,,,,,,,,
63e461c4bdc3693c05d515a1,SCN,2024-06-24_13h46.29.014,LearnStrategy,2023.2.3,Win32,60.24096386,1,1,1,0.066666667,0.094444444,1,0,0,4.5729,Obsidian_12,5,12,4,5,4.573,-0.334259259,-0.400925926,1,0,0,6.7355,Obsidian_rect,5,6.736,1,0,0,0,0,1,,,,,,,,,,,,,
63e461c4bdc3693c05d515a1,SCN,2024-06-24_13h46.29.014,LearnStrategy,2023.2.3,Win32,60.24096386,1,1,2,0.098148148,-0.103703704,1,0,0,4.6322,Peridotite_13,7,13,3,5,4.632,0.161111111,-0.400925926,1,0,0,2.3745,Peridotite_rect,7,2.374,1,1,0,1,0,1,,,,,,,,,,,,,
63e461c4bdc3693c05d515a1,SCN,2024-06-24_13h46.29.014,LearnStrategy,2023.2.3,Win32,60.24096386,1,1,3,0.563888889,-0.086111111,1,0,0,7.0505,Diorite_08,3,08,3,8,7.05,-0.091666667,-0.263888889,1,0,0,5.9606,Basalt_rect,2,5.961,0,2,0,2,0,1,,,,,,,,,,,,,
63e461c4bdc3693c05d515a1,SCN,2024-06-24_13h46.29.014,LearnStrategy,2023.2.3,Win32,60.24096386,1,1,4,0.242592593,-0.092592593,1,0,0,3.1463,Diorite_02,3,02,3,6,3.146,0.158333333,-0.249074074,1,0,0,2.1084,Diorite_rect,3,2.108,1,3,0,3,0,1,,,,,,,,,,,,,
63e461c4bdc3693c05d515a1,SCN,2024-06-24_13h46.29.014,LearnStrategy,2023.2.3,Win32,60.24096386,1,1,5,0.389814815,-0.10462963,1,0,0,4.0364,Obsidian_04,5,04,3,7,4.036,-0.360185185,-0.412962963,1,0,0,2.0831,Obsidian_rect,5,2.083,1,4,0,4,0,1,,,,,,,,,,,,,
63e461c4bdc3693c05d515a1,SCN,2024-06-24_13h46.29.014,LearnStrategy,2023.2.3,Win32,60.24096386,1,1,6,-0.532407407,0.237962963,1,0,0,2.1619,Obsidian_02,5,02,5,1,2.162,-0.364814815,-0.407407407,1,0,0,2.0001,Obsidian_rect,5,2,1,5,0,5,0,1,,,,,,,,,,,,,
63e461c4bdc3693c05d515a1,SCN,2024-06-24_13h46.29.014,LearnStrategy,2023.2.3,Win32,60.24096386,1,1,7,-0.576851852,0.383333333,1,0,0,2.4181,Diorite_10,3,10,6,1,2.418,-0.1,-0.247222222,1,0,0,5.6875,Basalt_rect,2,5.688,0,6,0,6,0,1,,,,,,,,,,,,,
63e461c4bdc3693c05d515a1,SCN,2024-06-24_13h46.29.014,LearnStrategy,2023.2.3,Win32,60.24096386,1,1,8,0.250925926,-0.085185185,1,0,0,14.0426,Diorite_02,3,02,3,6,14.043,0.140740741,-0.244444444,1,0,0,2.0909,Diorite_rect,3,2.091,1,7,0,7,0,1,,,,,,,,,,,,,
63e461c4bdc3693c05d515a1,SCN,2024-06-24_13h46.29.014,LearnStrategy,2023.2.3,Win32,60.24096386,1,1,9,0.542592593,0.230555556,1,0,0,4.8179,Pumice_04,8,04,5,8,4.818,0.409259259,-0.391666667,1,0,0,1.7313,Pumice_rect,8,1.731,1,8,0,8,0,1,,,,,,,,,,,,,
63e461c4bdc3693c05d515a1,SCN,2024-06-24_13h46.29.014,LearnStrategy,2023.2.3,Win32,60.24096386,1,1,10,0.533333333,0.389814815,1,0,0,6.2551,Pegmatite_11,6,11,6,8,6.255,-0.391666667,-0.408333333,1,0,0,10.1062,Obsidian_rect,5,10.106,0,9,0,9,0,1,,,,,,,,,,,,,
63e461c4bdc3693c05d515a1,SCN,2024-06-24_13h46.29.014,LearnStrategy,2023.2.3,Win32,60.24096386,1,1,11,0.088888889,-0.426851852,1,0,0,4.6656,Obsidian_05,5,05,1,5,4.666,-0.101851852,-0.4,1,0,0,1.6205,Pegmatite_rect,6,1.62,0,10,0,10,0,1,,,,,,,,,,,,,
63e461c4bdc3693c05d515a1,SCN,2024-06-24_13h46.29.014,LearnStrategy,2023.2.3,Win32,60.24096386,1,1,12,-0.389814815,-0.112962963,1,0,0,4.1168,Obsidian_07,5,07,3,2,4.117,-0.130555556,-0.410185185,1,0,0,3.7214,Pegmatite_rect,6,3.721,0,11,0,11,0,1,,,,,,,,,,,,,
63e461c4bdc3693c05d515a1,SCN,2024-06-24_13h46.29.014,LearnStrategy,2023.2.3,Win32,60.24096386,1,1,13,-0.550925926,0.251851852,1,0,0,1.8612,Obsidian_02,5,02,5,1,1.861,-0.363888889,-0.405555556,1,0,0,1.6757,Obsidian_rect,5,1.676,1,12,0,12,0,1,,,,,,,,,,,,,
63e461c4bdc3693c05d515a1,SCN,2024-06-24_13h46.29.014,LearnStrategy,2023.2.3,Win32,60.24096386,1,1,14,0.534259259,-0.425925926,1,0,0,17.5004,Pegmatite_13,6,13,1,8,17.5,-0.117592593,-0.419444444,1,0,0,3.7183,Pegmatite_rect,6,3.718,1,13,0,13,0,1,,,,,,,,,,,,,
63e461c4bdc3693c05d515a1,SCN,2024-06-24_13h46.29.014,LearnStrategy,2023.2.3,Win32,60.24096386,1,1,15,-0.223148148,-0.424074074,1,0,0,5.0606,Pegmatite_05,6,05,1,3,5.061,-0.158333333,-0.4,1,0,0,1.039,Pegmatite_rect,6,1.039,1,14,0,14,0,1,,,,,,,,,,,,,
63e461c4bdc3693c05d515a1,SCN,2024-06-24_13h46.29.014,LearnStrategy,2023.2.3,Win32,60.24096386,1,1,16,-0.210185185,-0.257407407,1,0,0,3.6323,Andesite_05,1,05,2,3,3.632,-0.200925926,-0.256481481,1,0,0,4.5701,Basalt_rect,2,4.57,0,15,0,15,0,1,,,,,,,,,,,,,
63e461c4bdc3693c05d515a1,SCN,2024-06-24_13h46.29.014,LearnStrategy,2023.2.3,Win32,60.24096386,1,2,1,,,,,,,,2,09,,,,,,,,,,,4,17.648,0,,,,,,0.405555556,-0.267592593,1,0,0,17.6482,Gabbro_rect,0,0,0,0,1,
63e461c4bdc3693c05d515a1,SCN,2024-06-24_13h46.29.014,LearnStrategy,2023.2.3,Win32,60.24096386,1,2,2,,,,,,,,6,03,,,,,,,,,,,6,4.139,1,,,,,,-0.111111111,-0.408333333,1,0,0,4.1386,Pegmatite_rect,1,0,1,0,1,
63e461c4bdc3693c05d515a1,SCN,2024-06-24_13h46.29.014,LearnStrategy,2023.2.3,Win32,60.24096386,1,2,3,,,,,,,,7,07,,,,,,,,,,,1,2.566,0,,,,,,-0.351851852,-0.266666667,1,0,0,2.5661,Andesite_rect,2,0,2,0,1,
63e461c4bdc3693c05d515a1,SCN,2024-06-24_13h46.29.014,LearnStrategy,2023.2.3,Win32,60.24096386,1,2,4,,,,,,,,1,09,,,,,,,,,,,8,19.032,0,,,,,,0.439814815,-0.37962963,1,0,0,19.0322,Pumice_rect,3,0,3,0,1,
63e461c4bdc3693c05d515a1,SCN,2024-06-24_13h46.29.014,LearnStrategy,2023.2.3,Win32,60.24096386,1,2,5,,,,,,,,8,08,,,,,,,,,,,8,1.248,1,,,,,,0.44537037,-0.409259259,1,0,0,1.2483,Pumice_rect,4,0,4,0,1,
63e461c4bdc3693c05d515a1,SCN,2024-06-24_13h46.29.014,LearnStrategy,2023.2.3,Win32,60.24096386,1,2,6,,,,,,,,5,11,,,,,,,,,,,5,1.778,1,,,,,,-0.398148148,-0.412962963,1,0,0,1.7781,Obsidian_rect,5,0,5,0,1,
63e461c4bdc3693c05d515a1,SCN,2024-06-24_13h46.29.014,LearnStrategy,2023.2.3,Win32,60.24096386,1,2,7,,,,,,,,5,14,,,,,,,,,,,5,1.576,1,,,,,,-0.394444444,-0.408333333,1,0,0,1.5764,Obsidian_rect,6,0,6,0,1,
63e461c4bdc3693c05d515a1,SCN,2024-06-24_13h46.29.014,LearnStrategy,2023.2.3,Win32,60.24096386,1,2,8,,,,,,,,7,10,,,,,,,,,,,6,1.993,0,,,,,,-0.143518519,-0.399074074,1,0,0,1.9929,Pegmatite_rect,7,0,7,0,1,
63e461c4bdc3693c05d515a1,SCN,2024-06-24_13h46.29.014,LearnStrategy,2023.2.3,Win32,60.24096386,1,2,9,,,,,,,,4,03,,,,,,,,,,,1,7.227,0,,,,,,-0.351851852,-0.263888889,1,0,0,7.227,Andesite_rect,8,0,8,0,1,
63e461c4bdc3693c05d515a1,SCN,2024-06-24_13h46.29.014,LearnStrategy,2023.2.3,Win32,60.24096386,1,2,10,,,,,,,,4,09,,,,,,,,,,,4,6.771,1,,,,,,0.352777778,-0.25462963,1,0,0,6.7708,Gabbro_rect,9,0,9,0,1,
63e461c4bdc3693c05d515a1,SCN,2024-06-24_13h46.29.014,LearnStrategy,2023.2.3,Win32,60.24096386,1,2,11,,,,,,,,3,16,,,,,,,,,,,6,5.418,0,,,,,,-0.124074074,-0.39537037,1,0,0,5.4184,Pegmatite_rect,10,0,10,0,1,
63e461c4bdc3693c05d515a1,SCN,2024-06-24_13h46.29.014,LearnStrategy,2023.2.3,Win32,60.24096386,1,2,12,,,,,,,,6,08,,,,,,,,,,,6,11.777,1,,,,,,-0.101851852,-0.406481481,1,0,0,11.777,Pegmatite_rect,11,0,11,0,1,
63e461c4bdc3693c05d515a1,SCN,2024-06-24_13h46.29.014,LearnStrategy,2023.2.3,Win32,60.24096386,1,2,13,,,,,,,,3,14,,,,,,,,,,,7,6.103,0,,,,,,0.128703704,-0.410185185,1,0,0,6.1029,Peridotite_rect,12,0,12,0,1,
63e461c4bdc3693c05d515a1,SCN,2024-06-24_13h46.29.014,LearnStrategy,2023.2.3,Win32,60.24096386,1,2,14,,,,,,,,2,10,,,,,,,,,,,2,6.691,1,,,,,,-0.107407407,-0.250925926,1,0,0,6.6907,Basalt_rect,13,0,13,0,1,
63e461c4bdc3693c05d515a1,SCN,2024-06-24_13h46.29.014,LearnStrategy,2023.2.3,Win32,60.24096386,1,2,15,,,,,,,,1,01,,,,,,,,,,,4,3.885,0,,,,,,0.416666667,-0.22962963,1,0,0,3.8845,Gabbro_rect,14,0,14,0,1,
63e461c4bdc3693c05d515a1,SCN,2024-06-24_13h46.29.014,LearnStrategy,2023.2.3,Win32,60.24096386,1,2,16,,,,,,,,8,03,,,,,,,,,,,8,2.255,1,,,,,,0.421296296,-0.387962963,1,0,0,2.2547,Pumice_rect,15,0,15,0,1,
63e461c4bdc3693c05d515a1,SCN,2024-06-24_13h46.29.014,LearnStrategy,2023.2.3,Win32,60.24096386,2,1,1,-0.561111111,-0.412037037,1,0,0,6.1363,Andesite_16,1,16,1,1,6.136,-0.366666667,-0.243518519,1,0,0,9.5343,Andesite_rect,1,9.534,1,0,0,0,0,1,,,,,,,,,,,,,
63e461c4bdc3693c05d515a1,SCN,2024-06-24_13h46.29.014,LearnStrategy,2023.2.3,Win32,60.24096386,2,1,2,-0.378703704,-0.419444444,1,0,0,4.1849,Andesite_10,1,10,1,2,4.185,0.109259259,-0.253703704,1,0,0,4.4583,Diorite_rect,3,4.458,0,1,0,1,0,1,,,,,,,,,,,,,
63e461c4bdc3693c05d515a1,SCN,2024-06-24_13h46.29.014,LearnStrategy,2023.2.3,Win32,60.24096386,2,1,3,-0.539814815,0.100925926,1,0,0,9.9069,Andesite_11,1,11,4,1,9.907,-0.371296296,-0.242592593,1,0,0,2.0969,Andesite_rect,1,2.097,1,2,0,2,0,1,,,,,,,,,,,,,
63e461c4bdc3693c05d515a1,SCN,2024-06-24_13h46.29.014,LearnStrategy,2023.2.3,Win32,60.24096386,2,1,4,-0.212037037,0.089814815,1,0,0,2.2503,Pegmatite_12,6,12,4,3,2.25,-0.14537037,-0.408333333,1,0,0,9.1508,Pegmatite_rect,6,9.151,1,3,0,3,0,1,,,,,,,,,,,,,
63e461c4bdc3693c05d515a1,SCN,2024-06-24_13h46.29.014,LearnStrategy,2023.2.3,Win32,60.24096386,2,1,5,-0.227777778,0.416666667,1,0,0,4.4297,Pegmatite_09,6,09,6,3,4.43,-0.077777778,-0.398148148,1,0,0,3.2928,Pegmatite_rect,6,3.293,1,4,0,4,0,1,,,,,,,,,,,,,
63e461c4bdc3693c05d515a1,SCN,2024-06-24_13h46.29.014,LearnStrategy,2023.2.3,Win32,60.24096386,2,1,6,0.556481481,-0.285185185,1,0,0,4.0656,Pumice_13,8,13,2,8,4.066,0.425925926,-0.25462963,1,0,0,3.0582,Gabbro_rect,4,3.058,0,5,0,5,0,1,,,,,,,,,,,,,
63e461c4bdc3693c05d515a1,SCN,2024-06-24_13h46.29.014,LearnStrategy,2023.2.3,Win32,60.24096386,2,1,7,-0.223148148,0.248148148,1,0,0,4.7859,Gabbro_13,4,13,5,3,4.786,-0.366666667,-0.234259259,1,0,0,3.5179,Andesite_rect,1,3.518,0,6,0,6,0,1,,,,,,,,,,,,,
63e461c4bdc3693c05d515a1,SCN,2024-06-24_13h46.29.014,LearnStrategy,2023.2.3,Win32,60.24096386,2,1,8,-0.559259259,-0.123148148,1,0,0,3.814,Basalt_16,2,16,3,1,3.814,0.447222222,-0.258333333,1,0,0,2.5175,Gabbro_rect,4,2.518,0,7,0,7,0,1,,,,,,,,,,,,,
63e461c4bdc3693c05d515a1,SCN,2024-06-24_13h46.29.014,LearnStrategy,2023.2.3,Win32,60.24096386,2,1,9,-0.408333333,0.390740741,1,0,0,14.8937,Basalt_05,2,05,6,2,14.894,-0.122222222,-0.247222222,1,0,0,1.6632,Basalt_rect,2,1.663,1,8,0,8,0,1,,,,,,,,,,,,,
63e461c4bdc3693c05d515a1,SCN,2024-06-24_13h46.29.014,LearnStrategy,2023.2.3,Win32,60.24096386,2,1,10,-0.37962963,0.25462963,1,0,0,2.1497,Basalt_04,2,04,5,2,2.15,-0.137037037,-0.267592593,1,0,0,1.9815,Basalt_rect,2,1.981,1,9,0,9,0,1,,,,,,,,,,,,,
63e461c4bdc3693c05d515a1,SCN,2024-06-24_13h46.29.014,LearnStrategy,2023.2.3,Win32,60.24096386,2,1,11,-0.050925926,-0.412037037,1,0,0,10.492,Gabbro_15,4,15,1,4,10.492,0.393518519,-0.261111111,1,0,0,2.039,Gabbro_rect,4,2.039,1,10,0,10,0,1,,,,,,,,,,,,,
63e461c4bdc3693c05d515a1,SCN,2024-06-24_13h46.29.014,LearnStrategy,2023.2.3,Win32,60.24096386,2,1,12,0.086111111,0.412037037,1,0,0,5.039,Diorite_07,3,07,6,5,5.039,-0.405555556,-0.27037037,1,0,0,7.6813,Andesite_rect,1,7.681,0,11,0,11,0,1,,,,,,,,,,,,,
63e461c4bdc3693c05d515a1,SCN,2024-06-24_13h46.29.014,LearnStrategy,2023.2.3,Win32,60.24096386,2,1,13,0.09537037,-0.439814815,1,0,0,6.4681,Obsidian_05,5,05,1,5,6.468,-0.402777778,-0.415740741,1,0,0,4.386,Obsidian_rect,5,4.386,1,12,0,12,0,1,,,,,,,,,,,,,
63e461c4bdc3693c05d515a1,SCN,2024-06-24_13h46.29.014,LearnStrategy,2023.2.3,Win32,60.24096386,2,1,14,0.548148148,-0.406481481,1,0,0,10.0248,Pegmatite_13,6,13,1,8,10.025,-0.112037037,-0.403703704,1,0,0,9.454,Pegmatite_rect,6,9.454,1,13,0,13,0,1,,,,,,,,,,,,,
63e461c4bdc3693c05d515a1,SCN,2024-06-24_13h46.29.014,LearnStrategy,2023.2.3,Win32,60.24096386,2,1,15,0.55462963,-0.122222222,1,0,0,3.3187,Diorite_08,3,08,3,8,3.319,0.12962963,-0.256481481,1,0,0,11.0916,Diorite_rect,3,11.092,1,14,0,14,0,1,,,,,,,,,,,,,
63e461c4bdc3693c05d515a1,SCN,2024-06-24_13h46.29.014,LearnStrategy,2023.2.3,Win32,60.24096386,2,1,16,0.398148148,0.402777778,1,0,0,3.9317,Peridotite_15,7,15,6,7,3.932,0.165740741,-0.392592593,1,0,0,1.8677,Peridotite_rect,7,1.868,1,15,0,15,0,1,,,,,,,,,,,,,
63e461c4bdc3693c05d515a1,SCN,2024-06-24_13h46.29.014,LearnStrategy,2023.2.3,Win32,60.24096386,2,2,1,,,,,,,,1,06,,,,,,,,,,,1,11.793,1,,,,,,-0.358333333,-0.240740741,1,0,0,11.7932,Andesite_rect,0,0,0,0,1,
63e461c4bdc3693c05d515a1,SCN,2024-06-24_13h46.29.014,LearnStrategy,2023.2.3,Win32,60.24096386,2,2,2,,,,,,,,5,06,,,,,,,,,,,5,2.365,1,,,,,,-0.334259259,-0.411111111,1,0,0,2.3655,Obsidian_rect,1,0,1,0,1,
63e461c4bdc3693c05d515a1,SCN,2024-06-24_13h46.29.014,LearnStrategy,2023.2.3,Win32,60.24096386,2,2,3,,,,,,,,6,07,,,,,,,,,,,6,11.334,1,,,,,,-0.163888889,-0.408333333,1,0,0,11.3343,Pegmatite_rect,2,0,2,0,1,
63e461c4bdc3693c05d515a1,SCN,2024-06-24_13h46.29.014,LearnStrategy,2023.2.3,Win32,60.24096386,2,2,4,,,,,,,,3,09,,,,,,,,,,,3,11.559,1,,,,,,0.150925926,-0.262037037,1,0,0,11.5593,Diorite_rect,3,0,3,0,1,
63e461c4bdc3693c05d515a1,SCN,2024-06-24_13h46.29.014,LearnStrategy,2023.2.3,Win32,60.24096386,2,2,5,,,,,,,,3,12,,,,,,,,,,,3,8.99,1,,,,,,0.125,-0.263888889,1,0,0,8.9897,Diorite_rect,4,0,4,0,1,
63e461c4bdc3693c05d515a1,SCN,2024-06-24_13h46.29.014,LearnStrategy,2023.2.3,Win32,60.24096386,2,2,6,,,,,,,,2,06,,,,,,,,,,,2,2.25,1,,,,,,-0.142592593,-0.262962963,1,0,0,2.2503,Basalt_rect,5,0,5,0,1,
63e461c4bdc3693c05d515a1,SCN,2024-06-24_13h46.29.014,LearnStrategy,2023.2.3,Win32,60.24096386,2,2,7,,,,,,,,1,07,,,,,,,,,,,6,6.406,0,,,,,,-0.128703704,-0.39537037,1,0,0,6.4061,Pegmatite_rect,6,0,6,0,1,
63e461c4bdc3693c05d515a1,SCN,2024-06-24_13h46.29.014,LearnStrategy,2023.2.3,Win32,60.24096386,2,2,8,,,,,,,,4,11,,,,,,,,,,,2,11.532,0,,,,,,-0.144444444,-0.265740741,1,0,0,11.532,Basalt_rect,7,0,7,0,1,
63e461c4bdc3693c05d515a1,SCN,2024-06-24_13h46.29.014,LearnStrategy,2023.2.3,Win32,60.24096386,2,2,9,,,,,,,,7,04,,,,,,,,,,,6,4.494,0,,,,,,-0.10462963,-0.386111111,1,0,0,4.494,Pegmatite_rect,8,0,8,0,1,
63e461c4bdc3693c05d515a1,SCN,2024-06-24_13h46.29.014,LearnStrategy,2023.2.3,Win32,60.24096386,2,2,10,,,,,,,,4,16,,,,,,,,,,,4,2.646,1,,,,,,0.367592593,-0.25,1,0,0,2.646,Gabbro_rect,9,0,9,0,1,
63e461c4bdc3693c05d515a1,SCN,2024-06-24_13h46.29.014,LearnStrategy,2023.2.3,Win32,60.24096386,2,2,11,,,,,,,,2,02,,,,,,,,,,,2,1.765,1,,,,,,-0.125925926,-0.267592593,1,0,0,1.7653,Basalt_rect,10,0,10,0,1,
63e461c4bdc3693c05d515a1,SCN,2024-06-24_13h46.29.014,LearnStrategy,2023.2.3,Win32,60.24096386,2,2,12,,,,,,,,8,14,,,,,,,,,,,8,1.6,1,,,,,,0.369444444,-0.42037037,1,0,0,1.6001,Pumice_rect,11,0,11,0,1,
63e461c4bdc3693c05d515a1,SCN,2024-06-24_13h46.29.014,LearnStrategy,2023.2.3,Win32,60.24096386,2,2,13,,,,,,,,7,12,,,,,,,,,,,7,1.607,1,,,,,,0.157407407,-0.403703704,1,0,0,1.6074,Peridotite_rect,12,0,12,0,1,
63e461c4bdc3693c05d515a1,SCN,2024-06-24_13h46.29.014,LearnStrategy,2023.2.3,Win32,60.24096386,2,2,14,,,,,,,,8,10,,,,,,,,,,,8,2.946,1,,,,,,0.387037037,-0.412962963,1,0,0,2.946,Pumice_rect,13,0,13,0,1,
63e461c4bdc3693c05d515a1,SCN,2024-06-24_13h46.29.014,LearnStrategy,2023.2.3,Win32,60.24096386,2,2,15,,,,,,,,5,09,,,,,,,,,,,5,1.649,1,,,,,,-0.40462963,-0.417592593,1,0,0,1.6489,Obsidian_rect,14,0,14,0,1,
63e461c4bdc3693c05d515a1,SCN,2024-06-24_13h46.29.014,LearnStrategy,2023.2.3,Win32,60.24096386,2,2,16,,,,,,,,6,15,,,,,,,,,,,6,2.4,1,,,,,,-0.112962963,-0.402777778,1,0,0,2.3999,Pegmatite_rect,15,0,15,0,1,
63e461c4bdc3693c05d515a1,SCN,2024-06-24_13h46.29.014,LearnStrategy,2023.2.3,Win32,60.24096386,3,1,1,-0.544444444,0.391666667,1,0,0,5.7307,Diorite_10,3,10,6,1,5.731,-0.344444444,-0.233333333,1,0,0,3.4828,Andesite_rect,1,3.483,0,0,0,0,0,1,,,,,,,,,,,,,
63e461c4bdc3693c05d515a1,SCN,2024-06-24_13h46.29.014,LearnStrategy,2023.2.3,Win32,60.24096386,3,1,2,-0.086111111,0.391666667,1,0,0,7.6233,Pumice_09,8,09,6,4,7.623,0.399074074,-0.394444444,1,0,0,1.9509,Pumice_rect,8,1.951,1,1,0,1,0,1,,,,,,,,,,,,,
63e461c4bdc3693c05d515a1,SCN,2024-06-24_13h46.29.014,LearnStrategy,2023.2.3,Win32,60.24096386,3,1,3,-0.403703704,0.065740741,1,0,0,2.8334,Gabbro_01,4,01,4,2,2.833,0.144444444,-0.256481481,1,0,0,3.4245,Diorite_rect,3,3.424,0,2,0,2,0,1,,,,,,,,,,,,,
63e461c4bdc3693c05d515a1,SCN,2024-06-24_13h46.29.014,LearnStrategy,2023.2.3,Win32,60.24096386,3,1,4,-0.233333333,0.069444444,1,0,0,4.0669,Pegmatite_12,6,12,4,3,4.067,-0.103703704,-0.4,1,0,0,2.3402,Pegmatite_rect,6,2.34,1,3,0,3,0,1,,,,,,,,,,,,,
63e461c4bdc3693c05d515a1,SCN,2024-06-24_13h46.29.014,LearnStrategy,2023.2.3,Win32,60.24096386,3,1,5,-0.217592593,-0.114814815,1,0,0,3.8556,Peridotite_14,7,14,3,3,3.856,0.131481481,-0.411111111,1,0,0,5.0775,Peridotite_rect,7,5.077,1,4,0,4,0,1,,,,,,,,,,,,,
63e461c4bdc3693c05d515a1,SCN,2024-06-24_13h46.29.014,LearnStrategy,2023.2.3,Win32,60.24096386,3,1,6,0.558333333,-0.433333333,1,0,0,3.3821,Pegmatite_13,6,13,1,8,3.382,-0.062962963,-0.402777778,1,0,0,2.1232,Pegmatite_rect,6,2.123,1,5,0,5,0,1,,,,,,,,,,,,,
63e461c4bdc3693c05d515a1,SCN,2024-06-24_13h46.29.014,LearnStrategy,2023.2.3,Win32,60.24096386,3,1,7,-0.401851852,0.088888889,1,0,0,2.8656,Gabbro_01,4,01,4,2,2.866,0.4,-0.253703704,1,0,0,2.3881,Gabbro_rect,4,2.388,1,6,0,6,0,1,,,,,,,,,,,,,
63e461c4bdc3693c05d515a1,SCN,2024-06-24_13h46.29.014,LearnStrategy,2023.2.3,Win32,60.24096386,3,1,8,-0.386111111,-0.101851852,1,0,0,1.7967,Obsidian_07,5,07,3,2,1.797,-0.366666667,-0.403703704,1,0,0,2.7883,Obsidian_rect,5,2.788,1,7,0,7,0,1,,,,,,,,,,,,,
63e461c4bdc3693c05d515a1,SCN,2024-06-24_13h46.29.014,LearnStrategy,2023.2.3,Win32,60.24096386,3,1,9,0.54537037,0.086111111,1,0,0,2.9359,Peridotite_02,7,02,4,8,2.936,0.164814815,-0.415740741,1,0,0,1.5893,Peridotite_rect,7,1.589,1,8,0,8,0,1,,,,,,,,,,,,,
63e461c4bdc3693c05d515a1,SCN,2024-06-24_13h46.29.014,LearnStrategy,2023.2.3,Win32,60.24096386,3,1,10,0.412962963,0.087037037,1,0,0,2.1418,Andesite_02,1,02,4,7,2.142,-0.091666667,-0.418518519,1,0,0,11.5392,Pegmatite_rect,6,11.539,0,9,0,9,0,1,,,,,,,,,,,,,
63e461c4bdc3693c05d515a1,SCN,2024-06-24_13h46.29.014,LearnStrategy,2023.2.3,Win32,60.24096386,3,1,11,0.373148148,0.07962963,1,0,0,1.7476,Andesite_02,1,02,4,7,1.748,-0.394444444,-0.241666667,1,0,0,1.5145,Andesite_rect,1,1.515,1,10,0,10,0,1,,,,,,,,,,,,,
63e461c4bdc3693c05d515a1,SCN,2024-06-24_13h46.29.014,LearnStrategy,2023.2.3,Win32,60.24096386,3,1,12,-0.568518519,0.387962963,1,0,0,1.6185,Diorite_10,3,10,6,1,1.618,-0.343518519,-0.251851852,1,0,0,1.949,Andesite_rect,1,1.949,0,11,0,11,0,1,,,,,,,,,,,,,
63e461c4bdc3693c05d515a1,SCN,2024-06-24_13h46.29.014,LearnStrategy,2023.2.3,Win32,60.24096386,3,1,13,0.376851852,0.212962963,1,0,0,5.987,Gabbro_12,4,12,5,7,5.987,-0.089814815,-0.25462963,1,0,0,3.3004,Basalt_rect,2,3.3,0,12,0,12,0,1,,,,,,,,,,,,,
63e461c4bdc3693c05d515a1,SCN,2024-06-24_13h46.29.014,LearnStrategy,2023.2.3,Win32,60.24096386,3,1,14,0.224074074,0.238888889,1,0,0,4.1341,Basalt_01,2,01,5,6,4.134,0.367592593,-0.241666667,1,0,0,3.8689,Gabbro_rect,4,3.869,0,13,0,13,0,1,,,,,,,,,,,,,
63e461c4bdc3693c05d515a1,SCN,2024-06-24_13h46.29.014,LearnStrategy,2023.2.3,Win32,60.24096386,3,1,15,0.253703704,-0.261111111,1,0,0,16.612,Diorite_15,3,15,2,6,16.612,-0.376851852,-0.25,1,0,0,4.8881,Andesite_rect,1,4.888,0,14,0,14,0,1,,,,,,,,,,,,,
63e461c4bdc3693c05d515a1,SCN,2024-06-24_13h46.29.014,LearnStrategy,2023.2.3,Win32,60.24096386,3,1,16,-0.082407407,-0.400925926,1,0,0,10.3887,Gabbro_15,4,15,1,4,10.389,-0.397222222,-0.261111111,1,0,0,5.3241,Andesite_rect,1,5.324,0,15,0,15,0,1,,,,,,,,,,,,,
63e461c4bdc3693c05d515a1,SCN,2024-06-24_13h46.29.014,LearnStrategy,2023.2.3,Win32,60.24096386,3,2,1,,,,,,,,5,08,,,,,,,,,,,5,1.566,1,,,,,,-0.341666667,-0.400925926,1,0,0,1.5661,Obsidian_rect,0,0,0,0,1,
63e461c4bdc3693c05d515a1,SCN,2024-06-24_13h46.29.014,LearnStrategy,2023.2.3,Win32,60.24096386,3,2,2,,,,,,,,6,16,,,,,,,,,,,6,4.419,1,,,,,,-0.126851852,-0.410185185,1,0,0,4.4189,Pegmatite_rect,1,0,1,0,1,
63e461c4bdc3693c05d515a1,SCN,2024-06-24_13h46.29.014,LearnStrategy,2023.2.3,Win32,60.24096386,3,2,3,,,,,,,,3,11,,,,,,,,,,,3,16.315,1,,,,,,0.138888889,-0.238888889,1,0,0,16.3149,Diorite_rect,2,0,2,0,1,
63e461c4bdc3693c05d515a1,SCN,2024-06-24_13h46.29.014,LearnStrategy,2023.2.3,Win32,60.24096386,3,2,4,,,,,,,,6,10,,,,,,,,,,,7,2.684,0,,,,,,0.12962963,-0.413888889,1,0,0,2.6835,Peridotite_rect,3,0,3,0,1,
63e461c4bdc3693c05d515a1,SCN,2024-06-24_13h46.29.014,LearnStrategy,2023.2.3,Win32,60.24096386,3,2,5,,,,,,,,7,05,,,,,,,,,,,7,1.783,1,,,,,,0.09537037,-0.390740741,1,0,0,1.7834,Peridotite_rect,4,0,4,0,1,
63e461c4bdc3693c05d515a1,SCN,2024-06-24_13h46.29.014,LearnStrategy,2023.2.3,Win32,60.24096386,3,2,6,,,,,,,,8,05,,,,,,,,,,,8,1.524,1,,,,,,0.361111111,-0.390740741,1,0,0,1.5241,Pumice_rect,5,0,5,0,1,
63e461c4bdc3693c05d515a1,SCN,2024-06-24_13h46.29.014,LearnStrategy,2023.2.3,Win32,60.24096386,3,2,7,,,,,,,,1,04,,,,,,,,,,,1,6.584,1,,,,,,-0.342592593,-0.255555556,1,0,0,6.5839,Andesite_rect,6,0,6,0,1,
63e461c4bdc3693c05d515a1,SCN,2024-06-24_13h46.29.014,LearnStrategy,2023.2.3,Win32,60.24096386,3,2,8,,,,,,,,4,14,,,,,,,,,,,4,2.485,1,,,,,,0.349074074,-0.262962963,1,0,0,2.4847,Gabbro_rect,7,0,7,0,1,
63e461c4bdc3693c05d515a1,SCN,2024-06-24_13h46.29.014,LearnStrategy,2023.2.3,Win32,60.24096386,3,2,9,,,,,,,,1,03,,,,,,,,,,,1,7.432,1,,,,,,-0.356481481,-0.264814815,1,0,0,7.4319,Andesite_rect,8,0,8,0,1,
63e461c4bdc3693c05d515a1,SCN,2024-06-24_13h46.29.014,LearnStrategy,2023.2.3,Win32,60.24096386,3,2,10,,,,,,,,7,16,,,,,,,,,,,7,1.667,1,,,,,,0.124074074,-0.391666667,1,0,0,1.6665,Peridotite_rect,9,0,9,0,1,
63e461c4bdc3693c05d515a1,SCN,2024-06-24_13h46.29.014,LearnStrategy,2023.2.3,Win32,60.24096386,3,2,11,,,,,,,,8,16,,,,,,,,,,,8,1.666,1,,,,,,0.435185185,-0.409259259,1,0,0,1.6657,Pumice_rect,10,0,10,0,1,
63e461c4bdc3693c05d515a1,SCN,2024-06-24_13h46.29.014,LearnStrategy,2023.2.3,Win32,60.24096386,3,2,12,,,,,,,,2,14,,,,,,,,,,,4,10.943,0,,,,,,0.37962963,-0.262037037,1,0,0,10.943,Gabbro_rect,11,0,11,0,1,
63e461c4bdc3693c05d515a1,SCN,2024-06-24_13h46.29.014,LearnStrategy,2023.2.3,Win32,60.24096386,3,2,13,,,,,,,,5,10,,,,,,,,,,,5,1.834,1,,,,,,-0.337037037,-0.415740741,1,0,0,1.8345,Obsidian_rect,12,0,12,0,1,
63e461c4bdc3693c05d515a1,SCN,2024-06-24_13h46.29.014,LearnStrategy,2023.2.3,Win32,60.24096386,3,2,14,,,,,,,,2,12,,,,,,,,,,,8,3.285,0,,,,,,0.365740741,-0.407407407,1,0,0,3.2849,Pumice_rect,13,0,13,0,1,
63e461c4bdc3693c05d515a1,SCN,2024-06-24_13h46.29.014,LearnStrategy,2023.2.3,Win32,60.24096386,3,2,15,,,,,,,,4,10,,,,,,,,,,,3,12.545,0,,,,,,0.075925926,-0.25,1,0,0,12.5446,Diorite_rect,14,0,14,0,1,
63e461c4bdc3693c05d515a1,SCN,2024-06-24_13h46.29.014,LearnStrategy,2023.2.3,Win32,60.24096386,3,2,16,,,,,,,,3,06,,,,,,,,,,,1,3.216,0,,,,,,-0.337962963,-0.268518519,1,0,0,3.2163,Andesite_rect,15,0,15,0,1,
63e461c4bdc3693c05d515a1,SCN,2024-06-24_13h46.29.014,LearnStrategy,2023.2.3,Win32,60.24096386,4,1,1,-0.087962963,-0.252777778,1,0,0,8.9557,Pumice_02,8,02,2,4,8.956,0.384259259,-0.378703704,1,0,0,3.8423,Pumice_rect,8,3.842,1,0,0,0,0,1,,,,,,,,,,,,,
63e461c4bdc3693c05d515a1,SCN,2024-06-24_13h46.29.014,LearnStrategy,2023.2.3,Win32,60.24096386,4,1,2,-0.54537037,-0.112037037,1,0,0,4.114,Basalt_16,2,16,3,1,4.114,0.390740741,-0.237962963,1,0,0,5.5679,Gabbro_rect,4,5.568,0,1,0,1,0,1,,,,,,,,,,,,,
63e461c4bdc3693c05d515a1,SCN,2024-06-24_13h46.29.014,LearnStrategy,2023.2.3,Win32,60.24096386,4,1,3,0.212037037,0.236111111,1,0,0,5.7985,Basalt_01,2,01,5,6,5.798,-0.065740741,-0.237962963,1,0,0,1.4514,Basalt_rect,2,1.451,1,2,0,2,0,1,,,,,,,,,,,,,
63e461c4bdc3693c05d515a1,SCN,2024-06-24_13h46.29.014,LearnStrategy,2023.2.3,Win32,60.24096386,4,1,4,0.422222222,-0.398148148,1,0,0,8.4405,Basalt_08,2,08,1,7,8.44,-0.108333333,-0.242592593,1,0,0,1.625,Basalt_rect,2,1.625,1,3,0,3,0,1,,,,,,,,,,,,,
63e461c4bdc3693c05d515a1,SCN,2024-06-24_13h46.29.014,LearnStrategy,2023.2.3,Win32,60.24096386,4,1,5,0.552777778,-0.424074074,1,0,0,1.9334,Pegmatite_13,6,13,1,8,1.933,-0.12037037,-0.413888889,1,0,0,2.0983,Pegmatite_rect,6,2.098,1,4,0,4,0,1,,,,,,,,,,,,,
63e461c4bdc3693c05d515a1,SCN,2024-06-24_13h46.29.014,LearnStrategy,2023.2.3,Win32,60.24096386,4,1,6,0.230555556,-0.42037037,1,0,0,7.9689,Basalt_11,2,11,1,6,7.969,0.149074074,-0.253703704,1,0,0,8.5943,Diorite_rect,3,8.594,0,5,0,5,0,1,,,,,,,,,,,,,
63e461c4bdc3693c05d515a1,SCN,2024-06-24_13h46.29.014,LearnStrategy,2023.2.3,Win32,60.24096386,4,1,7,-0.075925926,-0.398148148,1,0,0,7.0558,Gabbro_15,4,15,1,4,7.056,0.325925926,-0.258333333,1,0,0,17.5355,Gabbro_rect,4,17.536,1,6,0,6,0,1,,,,,,,,,,,,,
63e461c4bdc3693c05d515a1,SCN,2024-06-24_13h46.29.014,LearnStrategy,2023.2.3,Win32,60.24096386,4,1,8,-0.218518519,-0.416666667,1,0,0,2.6015,Pegmatite_05,6,05,1,3,2.601,-0.206481481,-0.4,1,0,0,2.2201,Pegmatite_rect,6,2.22,1,7,0,7,0,1,,,,,,,,,,,,,
63e461c4bdc3693c05d515a1,SCN,2024-06-24_13h46.29.014,LearnStrategy,2023.2.3,Win32,60.24096386,4,1,9,-0.218518519,-0.134259259,1,0,0,3.5053,Peridotite_14,7,14,3,3,3.505,0.137037037,-0.400925926,1,0,0,4.0158,Peridotite_rect,7,4.016,1,8,0,8,0,1,,,,,,,,,,,,,
63e461c4bdc3693c05d515a1,SCN,2024-06-24_13h46.29.014,LearnStrategy,2023.2.3,Win32,60.24096386,4,1,10,-0.400925926,-0.388888889,1,0,0,6.0014,Andesite_10,1,10,1,2,6.001,0.089814815,-0.230555556,1,0,0,6.2727,Diorite_rect,3,6.273,0,9,0,9,0,1,,,,,,,,,,,,,
63e461c4bdc3693c05d515a1,SCN,2024-06-24_13h46.29.014,LearnStrategy,2023.2.3,Win32,60.24096386,4,1,11,-0.211111111,-0.260185185,1,0,0,3.0811,Andesite_05,1,05,2,3,3.081,-0.341666667,-0.257407407,1,0,0,1.467,Andesite_rect,1,1.467,1,10,0,10,0,1,,,,,,,,,,,,,
63e461c4bdc3693c05d515a1,SCN,2024-06-24_13h46.29.014,LearnStrategy,2023.2.3,Win32,60.24096386,4,1,12,-0.37962963,0.043518519,1,0,0,12.1767,Gabbro_01,4,01,4,2,12.177,0.341666667,-0.238888889,1,0,0,12.269,Gabbro_rect,4,12.269,1,11,0,11,0,1,,,,,,,,,,,,,
63e461c4bdc3693c05d515a1,SCN,2024-06-24_13h46.29.014,LearnStrategy,2023.2.3,Win32,60.24096386,4,1,13,0.525,0.399074074,1,0,0,7.6354,Pegmatite_11,6,11,6,8,7.635,-0.084259259,-0.401851852,1,0,0,1.6354,Pegmatite_rect,6,1.635,1,12,0,12,0,1,,,,,,,,,,,,,
63e461c4bdc3693c05d515a1,SCN,2024-06-24_13h46.29.014,LearnStrategy,2023.2.3,Win32,60.24096386,4,1,14,-0.211111111,0.375,1,0,0,3.7501,Pegmatite_09,6,09,6,3,3.75,0.181481481,-0.39537037,1,0,0,3.1467,Peridotite_rect,7,3.147,0,13,0,13,0,1,,,,,,,,,,,,,
63e461c4bdc3693c05d515a1,SCN,2024-06-24_13h46.29.014,LearnStrategy,2023.2.3,Win32,60.24096386,4,1,15,0.252777778,0.078703704,1,0,0,4.0977,Pegmatite_06,6,06,4,6,4.098,-0.088888889,-0.406481481,1,0,0,4.2708,Pegmatite_rect,6,4.271,1,14,0,14,0,1,,,,,,,,,,,,,
63e461c4bdc3693c05d515a1,SCN,2024-06-24_13h46.29.014,LearnStrategy,2023.2.3,Win32,60.24096386,4,1,16,-0.096296296,0.07037037,1,0,0,8.7709,Pumice_06,8,06,4,4,8.771,0.405555556,-0.4,1,0,0,1.3839,Pumice_rect,8,1.384,1,15,0,15,0,1,,,,,,,,,,,,,
63e461c4bdc3693c05d515a1,SCN,2024-06-24_13h46.29.014,LearnStrategy,2023.2.3,Win32,60.24096386,4,2,1,,,,,,,,5,09,,,,,,,,,,,5,1.867,1,,,,,,-0.389814815,-0.419444444,1,0,0,1.8674,Obsidian_rect,0,0,0,0,1,
63e461c4bdc3693c05d515a1,SCN,2024-06-24_13h46.29.014,LearnStrategy,2023.2.3,Win32,60.24096386,4,2,2,,,,,,,,4,09,,,,,,,,,,,2,11.706,0,,,,,,-0.107407407,-0.264814815,1,0,0,11.7061,Basalt_rect,1,0,1,0,1,
63e461c4bdc3693c05d515a1,SCN,2024-06-24_13h46.29.014,LearnStrategy,2023.2.3,Win32,60.24096386,4,2,3,,,,,,,,6,16,,,,,,,,,,,6,3.085,1,,,,,,-0.078703704,-0.385185185,1,0,0,3.0846,Pegmatite_rect,2,0,2,0,1,
63e461c4bdc3693c05d515a1,SCN,2024-06-24_13h46.29.014,LearnStrategy,2023.2.3,Win32,60.24096386,4,2,4,,,,,,,,8,08,,,,,,,,,,,8,1.785,1,,,,,,0.377777778,-0.391666667,1,0,0,1.785,Pumice_rect,3,0,3,0,1,
63e461c4bdc3693c05d515a1,SCN,2024-06-24_13h46.29.014,LearnStrategy,2023.2.3,Win32,60.24096386,4,2,5,,,,,,,,7,12,,,,,,,,,,,7,1.418,1,,,,,,0.161111111,-0.412962963,1,0,0,1.4177,Peridotite_rect,4,0,4,0,1,
63e461c4bdc3693c05d515a1,SCN,2024-06-24_13h46.29.014,LearnStrategy,2023.2.3,Win32,60.24096386,4,2,6,,,,,,,,3,11,,,,,,,,,,,3,8.994,1,,,,,,0.114814815,-0.256481481,1,0,0,8.9936,Diorite_rect,5,0,5,0,1,
63e461c4bdc3693c05d515a1,SCN,2024-06-24_13h46.29.014,LearnStrategy,2023.2.3,Win32,60.24096386,4,2,7,,,,,,,,2,12,,,,,,,,,,,8,8.657,0,,,,,,0.387037037,-0.386111111,1,0,0,8.6565,Pumice_rect,6,0,6,0,1,
63e461c4bdc3693c05d515a1,SCN,2024-06-24_13h46.29.014,LearnStrategy,2023.2.3,Win32,60.24096386,4,2,8,,,,,,,,1,04,,,,,,,,,,,3,6.855,0,,,,,,0.20462963,-0.240740741,1,0,0,6.8549,Diorite_rect,7,0,7,0,1,
63e461c4bdc3693c05d515a1,SCN,2024-06-24_13h46.29.014,LearnStrategy,2023.2.3,Win32,60.24096386,4,2,9,,,,,,,,6,10,,,,,,,,,,,6,2.868,1,,,,,,-0.117592593,-0.416666667,1,0,0,2.8678,Pegmatite_rect,8,0,8,0,1,
63e461c4bdc3693c05d515a1,SCN,2024-06-24_13h46.29.014,LearnStrategy,2023.2.3,Win32,60.24096386,4,2,10,,,,,,,,8,16,,,,,,,,,,,8,2.245,1,,,,,,0.35462963,-0.411111111,1,0,0,2.2454,Pumice_rect,9,0,9,0,1,
63e461c4bdc3693c05d515a1,SCN,2024-06-24_13h46.29.014,LearnStrategy,2023.2.3,Win32,60.24096386,4,2,11,,,,,,,,3,06,,,,,,,,,,,3,12.694,1,,,,,,0.058333333,-0.262037037,1,0,0,12.694,Diorite_rect,10,0,10,0,1,
63e461c4bdc3693c05d515a1,SCN,2024-06-24_13h46.29.014,LearnStrategy,2023.2.3,Win32,60.24096386,4,2,12,,,,,,,,4,14,,,,,,,,,,,4,1.891,1,,,,,,0.362962963,-0.260185185,1,0,0,1.8909,Gabbro_rect,11,0,11,0,1,
63e461c4bdc3693c05d515a1,SCN,2024-06-24_13h46.29.014,LearnStrategy,2023.2.3,Win32,60.24096386,4,2,13,,,,,,,,7,04,,,,,,,,,,,3,3.62,0,,,,,,0.052777778,-0.267592593,1,0,0,3.6195,Diorite_rect,12,0,12,0,1,
63e461c4bdc3693c05d515a1,SCN,2024-06-24_13h46.29.014,LearnStrategy,2023.2.3,Win32,60.24096386,4,2,14,,,,,,,,5,06,,,,,,,,,,,5,1.348,1,,,,,,-0.344444444,-0.385185185,1,0,0,1.3484,Obsidian_rect,13,0,13,0,1,
63e461c4bdc3693c05d515a1,SCN,2024-06-24_13h46.29.014,LearnStrategy,2023.2.3,Win32,60.24096386,4,2,15,,,,,,,,2,02,,,,,,,,,,,2,1.828,1,,,,,,-0.135185185,-0.262962963,1,0,0,1.8284,Basalt_rect,14,0,14,0,1,
63e461c4bdc3693c05d515a1,SCN,2024-06-24_13h46.29.014,LearnStrategy,2023.2.3,Win32,60.24096386,4,2,16,,,,,,,,1,03,,,,,,,,,,,1,5.437,1,,,,,,-0.34537037,-0.261111111,1,0,0,5.4366,Andesite_rect,15,0,15,0,1,
63e461c4bdc3693c05d515a1,SCN,2024-06-24_13h46.29.014,LearnStrategy,2023.2.3,Win32,60.24096386,5,1,1,-0.387962963,-0.260185185,1,0,0,6.4061,Peridotite_08,7,08,2,2,6.406,0.092592593,-0.403703704,1,0,0,3.6933,Peridotite_rect,7,3.693,1,0,0,0,0,1,,,,,,,,,,,,,
63e461c4bdc3693c05d515a1,SCN,2024-06-24_13h46.29.014,LearnStrategy,2023.2.3,Win32,60.24096386,5,1,2,-0.225925926,-0.265740741,1,0,0,3.5964,Andesite_05,1,05,2,3,3.596,-0.356481481,-0.250925926,1,0,0,1.4423,Andesite_rect,1,1.442,1,1,0,1,0,1,,,,,,,,,,,,,
63e461c4bdc3693c05d515a1,SCN,2024-06-24_13h46.29.014,LearnStrategy,2023.2.3,Win32,60.24096386,5,1,3,-0.550925926,-0.274074074,1,0,0,1.6478,Gabbro_05,4,05,2,1,1.648,0.07962963,-0.258333333,1,0,0,10.9365,Diorite_rect,3,10.937,0,2,0,2,0,1,,,,,,,,,,,,,
63e461c4bdc3693c05d515a1,SCN,2024-06-24_13h46.29.014,LearnStrategy,2023.2.3,Win32,60.24096386,5,1,4,-0.069444444,-0.259259259,1,0,0,4.7173,Pumice_02,8,02,2,4,4.717,0.380555556,-0.416666667,1,0,0,1.7135,Pumice_rect,8,1.714,1,3,0,3,0,1,,,,,,,,,,,,,
63e461c4bdc3693c05d515a1,SCN,2024-06-24_13h46.29.014,LearnStrategy,2023.2.3,Win32,60.24096386,5,1,5,0.091666667,-0.25,1,0,0,1.5321,Peridotite_06,7,06,2,5,1.532,0.096296296,-0.415740741,1,0,0,1.8769,Peridotite_rect,7,1.877,1,4,0,4,0,1,,,,,,,,,,,,,
63e461c4bdc3693c05d515a1,SCN,2024-06-24_13h46.29.014,LearnStrategy,2023.2.3,Win32,60.24096386,5,1,6,0.226851852,-0.268518519,1,0,0,3.2363,Diorite_15,3,15,2,6,3.236,-0.334259259,-0.25,1,0,0,4.5774,Andesite_rect,1,4.577,0,5,0,5,0,1,,,,,,,,,,,,,
63e461c4bdc3693c05d515a1,SCN,2024-06-24_13h46.29.014,LearnStrategy,2023.2.3,Win32,60.24096386,5,1,7,-0.525925926,-0.258333333,1,0,0,2.3974,Gabbro_05,4,05,2,1,2.397,0.380555556,-0.256481481,1,0,0,3.7054,Gabbro_rect,4,3.705,1,6,0,6,0,1,,,,,,,,,,,,,
63e461c4bdc3693c05d515a1,SCN,2024-06-24_13h46.29.014,LearnStrategy,2023.2.3,Win32,60.24096386,5,1,8,-0.391666667,-0.27037037,1,0,0,3.2206,Peridotite_08,7,08,2,2,3.221,0.115740741,-0.416666667,1,0,0,3.4086,Peridotite_rect,7,3.409,1,7,0,7,0,1,,,,,,,,,,,,,
63e461c4bdc3693c05d515a1,SCN,2024-06-24_13h46.29.014,LearnStrategy,2023.2.3,Win32,60.24096386,5,1,9,0.086111111,-0.25462963,1,0,0,3.4625,Peridotite_06,7,06,2,5,3.462,0.110185185,-0.40462963,1,0,0,3.5149,Peridotite_rect,7,3.515,1,8,0,8,0,1,,,,,,,,,,,,,
63e461c4bdc3693c05d515a1,SCN,2024-06-24_13h46.29.014,LearnStrategy,2023.2.3,Win32,60.24096386,5,1,10,0.217592593,-0.243518519,1,0,0,1.6641,Diorite_15,3,15,2,6,1.664,0.190740741,-0.235185185,1,0,0,3.6163,Diorite_rect,3,3.616,1,9,0,9,0,1,,,,,,,,,,,,,
63e461c4bdc3693c05d515a1,SCN,2024-06-24_13h46.29.014,LearnStrategy,2023.2.3,Win32,60.24096386,5,1,11,-0.538888889,-0.255555556,1,0,0,2.2454,Gabbro_05,4,05,2,1,2.245,0.448148148,-0.250925926,1,0,0,2.6451,Gabbro_rect,4,2.645,1,10,0,10,0,1,,,,,,,,,,,,,
63e461c4bdc3693c05d515a1,SCN,2024-06-24_13h46.29.014,LearnStrategy,2023.2.3,Win32,60.24096386,5,1,12,-0.375925926,-0.256481481,1,0,0,3.8219,Peridotite_08,7,08,2,2,3.822,0.102777778,-0.413888889,1,0,0,3.7267,Peridotite_rect,7,3.727,1,11,0,11,0,1,,,,,,,,,,,,,
63e461c4bdc3693c05d515a1,SCN,2024-06-24_13h46.29.014,LearnStrategy,2023.2.3,Win32,60.24096386,5,1,13,-0.212962963,-0.257407407,1,0,0,1.6147,Andesite_05,1,05,2,3,1.615,-0.372222222,-0.262037037,1,0,0,1.8216,Andesite_rect,1,1.822,1,12,0,12,0,1,,,,,,,,,,,,,
63e461c4bdc3693c05d515a1,SCN,2024-06-24_13h46.29.014,LearnStrategy,2023.2.3,Win32,60.24096386,5,1,14,0.086111111,-0.418518519,1,0,0,6.0493,Obsidian_05,5,05,1,5,6.049,-0.35462963,-0.408333333,1,0,0,1.5669,Obsidian_rect,5,1.567,1,13,0,13,0,1,,,,,,,,,,,,,
63e461c4bdc3693c05d515a1,SCN,2024-06-24_13h46.29.014,LearnStrategy,2023.2.3,Win32,60.24096386,5,1,15,0.248148148,-0.412962963,1,0,0,6.0211,Basalt_11,2,11,1,6,6.021,-0.085185185,-0.258333333,1,0,0,3.3678,Basalt_rect,2,3.368,1,14,0,14,0,1,,,,,,,,,,,,,
63e461c4bdc3693c05d515a1,SCN,2024-06-24_13h46.29.014,LearnStrategy,2023.2.3,Win32,60.24096386,5,1,16,-0.573148148,-0.437962963,1,0,0,3.4968,Andesite_16,1,16,1,1,3.497,0.124074074,-0.249074074,1,0,0,4.1148,Diorite_rect,3,4.115,0,15,0,15,0,1,,,,,,,,,,,,,
63e461c4bdc3693c05d515a1,SCN,2024-06-24_13h46.29.014,LearnStrategy,2023.2.3,Win32,60.24096386,5,2,1,,,,,,,,2,06,,,,,,,,,,,2,2.934,1,,,,,,-0.112037037,-0.262962963,1,0,0,2.9337,Basalt_rect,0,0,0,0,1,
63e461c4bdc3693c05d515a1,SCN,2024-06-24_13h46.29.014,LearnStrategy,2023.2.3,Win32,60.24096386,5,2,2,,,,,,,,4,16,,,,,,,,,,,4,2.217,1,,,,,,0.385185185,-0.263888889,1,0,0,2.2171,Gabbro_rect,1,0,1,0,1,
63e461c4bdc3693c05d515a1,SCN,2024-06-24_13h46.29.014,LearnStrategy,2023.2.3,Win32,60.24096386,5,2,3,,,,,,,,5,11,,,,,,,,,,,5,1.65,1,,,,,,-0.353703704,-0.414814815,1,0,0,1.6505,Obsidian_rect,2,0,2,0,1,
63e461c4bdc3693c05d515a1,SCN,2024-06-24_13h46.29.014,LearnStrategy,2023.2.3,Win32,60.24096386,5,2,4,,,,,,,,7,10,,,,,,,,,,,7,1.903,1,,,,,,0.125,-0.403703704,1,0,0,1.9028,Peridotite_rect,3,0,3,0,1,
63e461c4bdc3693c05d515a1,SCN,2024-06-24_13h46.29.014,LearnStrategy,2023.2.3,Win32,60.24096386,5,2,5,,,,,,,,1,06,,,,,,,,,,,3,8.53,0,,,,,,0.098148148,-0.250925926,1,0,0,8.5297,Diorite_rect,4,0,4,0,1,
63e461c4bdc3693c05d515a1,SCN,2024-06-24_13h46.29.014,LearnStrategy,2023.2.3,Win32,60.24096386,5,2,6,,,,,,,,8,03,,,,,,,,,,,8,1.444,1,,,,,,0.363888889,-0.39537037,1,0,0,1.4445,Pumice_rect,5,0,5,0,1,
63e461c4bdc3693c05d515a1,SCN,2024-06-24_13h46.29.014,LearnStrategy,2023.2.3,Win32,60.24096386,5,2,7,,,,,,,,6,15,,,,,,,,,,,6,2.142,1,,,,,,-0.103703704,-0.406481481,1,0,0,2.1418,Pegmatite_rect,6,0,6,0,1,
63e461c4bdc3693c05d515a1,SCN,2024-06-24_13h46.29.014,LearnStrategy,2023.2.3,Win32,60.24096386,5,2,8,,,,,,,,2,10,,,,,,,,,,,4,2.907,0,,,,,,0.357407407,-0.265740741,1,0,0,2.9065,Gabbro_rect,7,0,7,0,1,
63e461c4bdc3693c05d515a1,SCN,2024-06-24_13h46.29.014,LearnStrategy,2023.2.3,Win32,60.24096386,5,2,9,,,,,,,,5,08,,,,,,,,,,,5,1.461,1,,,,,,-0.311111111,-0.400925926,1,0,0,1.4609,Obsidian_rect,8,0,8,0,1,
63e461c4bdc3693c05d515a1,SCN,2024-06-24_13h46.29.014,LearnStrategy,2023.2.3,Win32,60.24096386,5,2,10,,,,,,,,7,05,,,,,,,,,,,7,4.615,1,,,,,,0.133333333,-0.394444444,1,0,0,4.6151,Peridotite_rect,9,0,9,0,1,
63e461c4bdc3693c05d515a1,SCN,2024-06-24_13h46.29.014,LearnStrategy,2023.2.3,Win32,60.24096386,5,2,11,,,,,,,,8,10,,,,,,,,,,,8,1.717,1,,,,,,0.37962963,-0.401851852,1,0,0,1.7171,Pumice_rect,10,0,10,0,1,
63e461c4bdc3693c05d515a1,SCN,2024-06-24_13h46.29.014,LearnStrategy,2023.2.3,Win32,60.24096386,5,2,12,,,,,,,,3,16,,,,,,,,,,,3,9.268,1,,,,,,0.114814815,-0.237962963,1,0,0,9.2682,Diorite_rect,11,0,11,0,1,
63e461c4bdc3693c05d515a1,SCN,2024-06-24_13h46.29.014,LearnStrategy,2023.2.3,Win32,60.24096386,5,2,13,,,,,,,,4,11,,,,,,,,,,,2,4.402,0,,,,,,-0.10462963,-0.267592593,1,0,0,4.4019,Basalt_rect,12,0,12,0,1,
63e461c4bdc3693c05d515a1,SCN,2024-06-24_13h46.29.014,LearnStrategy,2023.2.3,Win32,60.24096386,5,2,14,,,,,,,,1,01,,,,,,,,,,,3,7.906,0,,,,,,0.116666667,-0.244444444,1,0,0,7.9059,Diorite_rect,13,0,13,0,1,
63e461c4bdc3693c05d515a1,SCN,2024-06-24_13h46.29.014,LearnStrategy,2023.2.3,Win32,60.24096386,5,2,15,,,,,,,,3,12,,,,,,,,,,,3,7.282,1,,,,,,0.068518519,-0.257407407,1,0,0,7.2818,Diorite_rect,14,0,14,0,1,
63e461c4bdc3693c05d515a1,SCN,2024-06-24_13h46.29.014,LearnStrategy,2023.2.3,Win32,60.24096386,5,2,16,,,,,,,,6,03,,,,,,,,,,,6,5.85,1,,,,,,-0.069444444,-0.399074074,1,0,0,5.8497,Pegmatite_rect,15,0,15,0,1,
63e461c4bdc3693c05d515a1,SCN,2024-06-24_13h46.29.014,LearnStrategy,2023.2.3,Win32,60.24096386,6,1,1,-0.534259259,0.390740741,1,0,0,16.9154,Diorite_10,3,10,6,1,16.915,-0.383333333,-0.258333333,1,0,0,3.1207,Andesite_rect,1,3.121,0,0,0,0,0,1,,,,,,,,,,,,,
63e461c4bdc3693c05d515a1,SCN,2024-06-24_13h46.29.014,LearnStrategy,2023.2.3,Win32,60.24096386,6,1,2,0.063888889,0.399074074,1,0,0,3.3648,Diorite_07,3,07,6,5,3.365,0.119444444,-0.240740741,1,0,0,2.226,Diorite_rect,3,2.226,1,1,0,1,0,1,,,,,,,,,,,,,
63e461c4bdc3693c05d515a1,SCN,2024-06-24_13h46.29.014,LearnStrategy,2023.2.3,Win32,60.24096386,6,1,3,-0.215740741,0.239814815,1,0,0,5.5542,Gabbro_13,4,13,5,3,5.554,0.385185185,-0.237037037,1,0,0,1.8415,Gabbro_rect,4,1.841,1,2,0,2,0,1,,,,,,,,,,,,,
63e461c4bdc3693c05d515a1,SCN,2024-06-24_13h46.29.014,LearnStrategy,2023.2.3,Win32,60.24096386,6,1,4,-0.399074074,0.234259259,1,0,0,4.8357,Basalt_04,2,04,5,2,4.836,-0.091666667,-0.261111111,1,0,0,3.861,Basalt_rect,2,3.861,1,3,0,3,0,1,,,,,,,,,,,,,
63e461c4bdc3693c05d515a1,SCN,2024-06-24_13h46.29.014,LearnStrategy,2023.2.3,Win32,60.24096386,6,1,5,0.386111111,0.074074074,1,0,0,7.4027,Andesite_02,1,02,4,7,7.403,0.167592593,-0.232407407,1,0,0,2.728,Diorite_rect,3,2.728,0,4,0,4,0,1,,,,,,,,,,,,,
63e461c4bdc3693c05d515a1,SCN,2024-06-24_13h46.29.014,LearnStrategy,2023.2.3,Win32,60.24096386,6,1,6,0.225925926,0.396296296,1,0,0,7.9565,Andesite_14,1,14,6,6,7.957,-0.064814815,-0.252777778,1,0,0,5.0216,Basalt_rect,2,5.022,0,5,0,5,0,1,,,,,,,,,,,,,
63e461c4bdc3693c05d515a1,SCN,2024-06-24_13h46.29.014,LearnStrategy,2023.2.3,Win32,60.24096386,6,1,7,0.053703704,0.418518519,1,0,0,4.1156,Diorite_07,3,07,6,5,4.116,0.15462963,-0.236111111,1,0,0,2.7865,Diorite_rect,3,2.787,1,6,0,6,0,1,,,,,,,,,,,,,
63e461c4bdc3693c05d515a1,SCN,2024-06-24_13h46.29.014,LearnStrategy,2023.2.3,Win32,60.24096386,6,1,8,-0.07962963,-0.102777778,1,0,0,5.761,Diorite_13,3,13,3,4,5.761,0.112962963,-0.244444444,1,0,0,5.7099,Diorite_rect,3,5.71,1,7,0,7,0,1,,,,,,,,,,,,,
63e461c4bdc3693c05d515a1,SCN,2024-06-24_13h46.29.014,LearnStrategy,2023.2.3,Win32,60.24096386,6,1,9,0.530555556,-0.107407407,1,0,0,3.8212,Diorite_08,3,08,3,8,3.821,0.131481481,-0.259259259,1,0,0,3.4267,Diorite_rect,3,3.427,1,8,0,8,0,1,,,,,,,,,,,,,
63e461c4bdc3693c05d515a1,SCN,2024-06-24_13h46.29.014,LearnStrategy,2023.2.3,Win32,60.24096386,6,1,10,0.041666667,0.374074074,1,0,0,2.9192,Diorite_07,3,07,6,5,2.919,0.123148148,-0.241666667,1,0,0,2.5993,Diorite_rect,3,2.599,1,9,0,9,0,1,,,,,,,,,,,,,
63e461c4bdc3693c05d515a1,SCN,2024-06-24_13h46.29.014,LearnStrategy,2023.2.3,Win32,60.24096386,6,1,11,-0.537962963,0.393518519,1,0,0,1.5629,Diorite_10,3,10,6,1,1.563,-0.383333333,-0.231481481,1,0,0,3.0348,Andesite_rect,1,3.035,0,10,0,10,0,1,,,,,,,,,,,,,
63e461c4bdc3693c05d515a1,SCN,2024-06-24_13h46.29.014,LearnStrategy,2023.2.3,Win32,60.24096386,6,1,12,0.386111111,0.077777778,1,0,0,7.2904,Andesite_02,1,02,4,7,7.29,-0.382407407,-0.249074074,1,0,0,4.3672,Andesite_rect,1,4.367,1,11,0,11,0,1,,,,,,,,,,,,,
63e461c4bdc3693c05d515a1,SCN,2024-06-24_13h46.29.014,LearnStrategy,2023.2.3,Win32,60.24096386,6,1,13,-0.199074074,-0.273148148,1,0,0,4.8501,Andesite_05,1,05,2,3,4.85,-0.373148148,-0.257407407,1,0,0,2.8423,Andesite_rect,1,2.842,1,12,0,12,0,1,,,,,,,,,,,,,
63e461c4bdc3693c05d515a1,SCN,2024-06-24_13h46.29.014,LearnStrategy,2023.2.3,Win32,60.24096386,6,1,14,-0.380555556,-0.269444444,1,0,0,3.0348,Peridotite_08,7,08,2,2,3.035,0.101851852,-0.405555556,1,0,0,2.0473,Peridotite_rect,7,2.047,1,13,0,13,0,1,,,,,,,,,,,,,
63e461c4bdc3693c05d515a1,SCN,2024-06-24_13h46.29.014,LearnStrategy,2023.2.3,Win32,60.24096386,6,1,15,-0.553703704,-0.260185185,1,0,0,1.3462,Gabbro_05,4,05,2,1,1.346,0.457407407,-0.264814815,1,0,0,4.9767,Gabbro_rect,4,4.977,1,14,0,14,0,1,,,,,,,,,,,,,
63e461c4bdc3693c05d515a1,SCN,2024-06-24_13h46.29.014,LearnStrategy,2023.2.3,Win32,60.24096386,6,1,16,-0.521296296,-0.422222222,1,0,0,2.2182,Andesite_16,1,16,1,1,2.218,-0.432407407,-0.263888889,1,0,0,5.1727,Andesite_rect,1,5.173,1,15,0,15,0,1,,,,,,,,,,,,,
63e461c4bdc3693c05d515a1,SCN,2024-06-24_13h46.29.014,LearnStrategy,2023.2.3,Win32,60.24096386,6,2,1,,,,,,,,8,14,,,,,,,,,,,8,1.667,1,,,,,,0.421296296,-0.415740741,1,0,0,1.6667,Pumice_rect,0,0,0,0,1,
63e461c4bdc3693c05d515a1,SCN,2024-06-24_13h46.29.014,LearnStrategy,2023.2.3,Win32,60.24096386,6,2,2,,,,,,,,8,05,,,,,,,,,,,8,1.72,1,,,,,,0.407407407,-0.413888889,1,0,0,1.7196,Pumice_rect,1,0,1,0,1,
63e461c4bdc3693c05d515a1,SCN,2024-06-24_13h46.29.014,LearnStrategy,2023.2.3,Win32,60.24096386,6,2,3,,,,,,,,1,09,,,,,,,,,,,1,10.278,1,,,,,,-0.375,-0.263888889,1,0,0,10.2781,Andesite_rect,2,0,2,0,1,
63e461c4bdc3693c05d515a1,SCN,2024-06-24_13h46.29.014,LearnStrategy,2023.2.3,Win32,60.24096386,6,2,4,,,,,,,,7,16,,,,,,,,,,,7,6.345,1,,,,,,0.083333333,-0.413888889,1,0,0,6.3451,Peridotite_rect,3,0,3,0,1,
63e461c4bdc3693c05d515a1,SCN,2024-06-24_13h46.29.014,LearnStrategy,2023.2.3,Win32,60.24096386,6,2,5,,,,,,,,4,03,,,,,,,,,,,3,4.718,0,,,,,,0.172222222,-0.262037037,1,0,0,4.7184,Diorite_rect,4,0,4,0,1,
63e461c4bdc3693c05d515a1,SCN,2024-06-24_13h46.29.014,LearnStrategy,2023.2.3,Win32,60.24096386,6,2,6,,,,,,,,6,08,,,,,,,,,,,6,1.517,1,,,,,,-0.105555556,-0.394444444,1,0,0,1.517,Pegmatite_rect,5,0,5,0,1,
63e461c4bdc3693c05d515a1,SCN,2024-06-24_13h46.29.014,LearnStrategy,2023.2.3,Win32,60.24096386,6,2,7,,,,,,,,5,14,,,,,,,,,,,5,1.4,1,,,,,,-0.32962963,-0.396296296,1,0,0,1.3998,Obsidian_rect,6,0,6,0,1,
63e461c4bdc3693c05d515a1,SCN,2024-06-24_13h46.29.014,LearnStrategy,2023.2.3,Win32,60.24096386,6,2,8,,,,,,,,3,14,,,,,,,,,,,3,4.353,1,,,,,,0.1,-0.252777778,1,0,0,4.3534,Diorite_rect,7,0,7,0,1,
63e461c4bdc3693c05d515a1,SCN,2024-06-24_13h46.29.014,LearnStrategy,2023.2.3,Win32,60.24096386,6,2,9,,,,,,,,4,10,,,,,,,,,,,2,5.24,0,,,,,,-0.084259259,-0.262037037,1,0,0,5.2401,Basalt_rect,8,0,8,0,1,
63e461c4bdc3693c05d515a1,SCN,2024-06-24_13h46.29.014,LearnStrategy,2023.2.3,Win32,60.24096386,6,2,10,,,,,,,,1,07,,,,,,,,,,,3,3.593,0,,,,,,0.128703704,-0.255555556,1,0,0,3.5932,Diorite_rect,9,0,9,0,1,
63e461c4bdc3693c05d515a1,SCN,2024-06-24_13h46.29.014,LearnStrategy,2023.2.3,Win32,60.24096386,6,2,11,,,,,,,,2,14,,,,,,,,,,,4,3.333,0,,,,,,0.364814815,-0.242592593,1,0,0,3.3327,Gabbro_rect,10,0,10,0,1,
63e461c4bdc3693c05d515a1,SCN,2024-06-24_13h46.29.014,LearnStrategy,2023.2.3,Win32,60.24096386,6,2,12,,,,,,,,6,07,,,,,,,,,,,6,2.066,1,,,,,,-0.094444444,-0.397222222,1,0,0,2.0664,Pegmatite_rect,11,0,11,0,1,
63e461c4bdc3693c05d515a1,SCN,2024-06-24_13h46.29.014,LearnStrategy,2023.2.3,Win32,60.24096386,6,2,13,,,,,,,,2,09,,,,,,,,,,,2,1.912,1,,,,,,-0.099074074,-0.261111111,1,0,0,1.9117,Basalt_rect,12,0,12,0,1,
63e461c4bdc3693c05d515a1,SCN,2024-06-24_13h46.29.014,LearnStrategy,2023.2.3,Win32,60.24096386,6,2,14,,,,,,,,3,09,,,,,,,,,,,3,2.768,1,,,,,,0.1,-0.25,1,0,0,2.7679,Diorite_rect,13,0,13,0,1,
63e461c4bdc3693c05d515a1,SCN,2024-06-24_13h46.29.014,LearnStrategy,2023.2.3,Win32,60.24096386,6,2,15,,,,,,,,7,07,,,,,,,,,,,7,1.459,1,,,,,,0.122222222,-0.391666667,1,0,0,1.4585,Peridotite_rect,14,0,14,0,1,
63e461c4bdc3693c05d515a1,SCN,2024-06-24_13h46.29.014,LearnStrategy,2023.2.3,Win32,60.24096386,6,2,16,,,,,,,,5,10,,,,,,,,,,,5,1.445,1,,,,,,-0.366666667,-0.393518519,1,0,0,1.4449,Obsidian_rect,15,0,15,0,1,
63e461c4bdc3693c05d515a1,SCN,2024-06-24_13h46.29.014,LearnStrategy,2023.2.3,Win32,60.24096386,7,1,1,-0.207407407,0.076851852,1,0,0,3.1781,Pegmatite_12,6,12,4,3,3.178,-0.108333333,-0.419444444,1,0,0,2.9415,Pegmatite_rect,6,2.941,1,0,0,0,0,1,,,,,,,,,,,,,
63e461c4bdc3693c05d515a1,SCN,2024-06-24_13h46.29.014,LearnStrategy,2023.2.3,Win32,60.24096386,7,1,2,0.238888889,-0.097222222,1,0,0,2.8307,Diorite_02,3,02,3,6,2.831,0.206481481,-0.247222222,1,0,0,2.7361,Diorite_rect,3,2.736,1,1,0,1,0,1,,,,,,,,,,,,,
63e461c4bdc3693c05d515a1,SCN,2024-06-24_13h46.29.014,LearnStrategy,2023.2.3,Win32,60.24096386,7,1,3,0.261111111,-0.437962963,1,0,0,3.8829,Basalt_11,2,11,1,6,3.883,-0.085185185,-0.250925926,1,0,0,2.1662,Basalt_rect,2,2.166,1,2,0,2,0,1,,,,,,,,,,,,,
63e461c4bdc3693c05d515a1,SCN,2024-06-24_13h46.29.014,LearnStrategy,2023.2.3,Win32,60.24096386,7,1,4,-0.066666667,-0.417592593,1,0,0,2.4713,Gabbro_15,4,15,1,4,2.471,0.397222222,-0.262037037,1,0,0,3.1642,Gabbro_rect,4,3.164,1,3,0,3,0,1,,,,,,,,,,,,,
63e461c4bdc3693c05d515a1,SCN,2024-06-24_13h46.29.014,LearnStrategy,2023.2.3,Win32,60.24096386,7,1,5,-0.065740741,0.22962963,1,0,0,5.0001,Pumice_15,8,15,5,4,5,0.418518519,-0.386111111,1,0,0,1.8594,Pumice_rect,8,1.859,1,4,0,4,0,1,,,,,,,,,,,,,
63e461c4bdc3693c05d515a1,SCN,2024-06-24_13h46.29.014,LearnStrategy,2023.2.3,Win32,60.24096386,7,1,6,-0.237037037,-0.121296296,1,0,0,2.8309,Peridotite_14,7,14,3,3,2.831,0.105555556,-0.381481481,1,0,0,7.2845,Peridotite_rect,7,7.284,1,5,0,5,0,1,,,,,,,,,,,,,
63e461c4bdc3693c05d515a1,SCN,2024-06-24_13h46.29.014,LearnStrategy,2023.2.3,Win32,60.24096386,7,1,7,-0.09537037,-0.100925926,1,0,0,5.0664,Diorite_13,3,13,3,4,5.066,0.098148148,-0.230555556,1,0,0,2.1293,Diorite_rect,3,2.129,1,6,0,6,0,1,,,,,,,,,,,,,
63e461c4bdc3693c05d515a1,SCN,2024-06-24_13h46.29.014,LearnStrategy,2023.2.3,Win32,60.24096386,7,1,8,-0.383333333,-0.256481481,1,0,0,4.4334,Peridotite_08,7,08,2,2,4.433,0.074074074,-0.399074074,1,0,0,3.4384,Peridotite_rect,7,3.438,1,7,0,7,0,1,,,,,,,,,,,,,
63e461c4bdc3693c05d515a1,SCN,2024-06-24_13h46.29.014,LearnStrategy,2023.2.3,Win32,60.24096386,7,1,9,-0.540740741,-0.428703704,1,0,0,4.9518,Andesite_16,1,16,1,1,4.952,-0.417592593,-0.25462963,1,0,0,2.4291,Andesite_rect,1,2.429,1,8,0,8,0,1,,,,,,,,,,,,,
63e461c4bdc3693c05d515a1,SCN,2024-06-24_13h46.29.014,LearnStrategy,2023.2.3,Win32,60.24096386,7,1,10,-0.374074074,-0.436111111,1,0,0,1.2516,Andesite_10,1,10,1,2,1.252,0.163888889,-0.247222222,1,0,0,3.0931,Diorite_rect,3,3.093,0,9,0,9,0,1,,,,,,,,,,,,,
63e461c4bdc3693c05d515a1,SCN,2024-06-24_13h46.29.014,LearnStrategy,2023.2.3,Win32,60.24096386,7,1,11,-0.22962963,-0.422222222,1,0,0,2.8646,Pegmatite_05,6,05,1,3,2.865,-0.22962963,-0.421296296,1,0,0,4.3822,Pegmatite_rect,6,4.382,1,10,0,10,0,1,,,,,,,,,,,,,
63e461c4bdc3693c05d515a1,SCN,2024-06-24_13h46.29.014,LearnStrategy,2023.2.3,Win32,60.24096386,7,1,12,-0.408333333,-0.42962963,1,0,0,2.3294,Andesite_10,1,10,1,2,2.329,-0.362037037,-0.246296296,1,0,0,3.5203,Andesite_rect,1,3.52,1,11,0,11,0,1,,,,,,,,,,,,,
63e461c4bdc3693c05d515a1,SCN,2024-06-24_13h46.29.014,LearnStrategy,2023.2.3,Win32,60.24096386,7,1,13,-0.069444444,-0.42037037,1,0,0,2.1138,Gabbro_15,4,15,1,4,2.114,0.368518519,-0.238888889,1,0,0,1.7396,Gabbro_rect,4,1.74,1,12,0,12,0,1,,,,,,,,,,,,,
63e461c4bdc3693c05d515a1,SCN,2024-06-24_13h46.29.014,LearnStrategy,2023.2.3,Win32,60.24096386,7,1,14,0.52962963,-0.411111111,1,0,0,2.7828,Pegmatite_13,6,13,1,8,2.783,-0.094444444,-0.398148148,1,0,0,2.5445,Pegmatite_rect,6,2.544,1,13,0,13,0,1,,,,,,,,,,,,,
63e461c4bdc3693c05d515a1,SCN,2024-06-24_13h46.29.014,LearnStrategy,2023.2.3,Win32,60.24096386,7,1,15,0.391666667,0.093518519,1,0,0,1.996,Andesite_02,1,02,4,7,1.996,-0.357407407,-0.262037037,1,0,0,8.132,Andesite_rect,1,8.132,1,14,0,14,0,1,,,,,,,,,,,,,
63e461c4bdc3693c05d515a1,SCN,2024-06-24_13h46.29.014,LearnStrategy,2023.2.3,Win32,60.24096386,7,1,16,0.236111111,0.074074074,1,0,0,1.7965,Pegmatite_06,6,06,4,6,1.796,-0.109259259,-0.4,1,0,0,5.1762,Pegmatite_rect,6,5.176,1,15,0,15,0,1,,,,,,,,,,,,,
63e461c4bdc3693c05d515a1,SCN,2024-06-24_13h46.29.014,LearnStrategy,2023.2.3,Win32,60.24096386,7,2,1,,,,,,,,7,04,,,,,,,,,,,3,10.911,0,,,,,,0.1,-0.250925926,1,0,0,10.9111,Diorite_rect,0,0,0,0,1,
63e461c4bdc3693c05d515a1,SCN,2024-06-24_13h46.29.014,LearnStrategy,2023.2.3,Win32,60.24096386,7,2,2,,,,,,,,8,08,,,,,,,,,,,8,1.449,1,,,,,,0.346296296,-0.392592593,1,0,0,1.4488,Pumice_rect,1,0,1,0,1,
63e461c4bdc3693c05d515a1,SCN,2024-06-24_13h46.29.014,LearnStrategy,2023.2.3,Win32,60.24096386,7,2,3,,,,,,,,2,09,,,,,,,,,,,2,3.268,1,,,,,,-0.088888889,-0.247222222,1,0,0,3.2682,Basalt_rect,2,0,2,0,1,
63e461c4bdc3693c05d515a1,SCN,2024-06-24_13h46.29.014,LearnStrategy,2023.2.3,Win32,60.24096386,7,2,4,,,,,,,,4,14,,,,,,,,,,,4,1.662,1,,,,,,0.349074074,-0.252777778,1,0,0,1.6616,Gabbro_rect,3,0,3,0,1,
63e461c4bdc3693c05d515a1,SCN,2024-06-24_13h46.29.014,LearnStrategy,2023.2.3,Win32,60.24096386,7,2,5,,,,,,,,8,14,,,,,,,,,,,8,1.398,1,,,,,,0.386111111,-0.40462963,1,0,0,1.3984,Pumice_rect,4,0,4,0,1,
63e461c4bdc3693c05d515a1,SCN,2024-06-24_13h46.29.014,LearnStrategy,2023.2.3,Win32,60.24096386,7,2,6,,,,,,,,1,06,,,,,,,,,,,3,10.727,0,,,,,,0.096296296,-0.239814815,1,0,0,10.7268,Diorite_rect,5,0,5,0,1,
63e461c4bdc3693c05d515a1,SCN,2024-06-24_13h46.29.014,LearnStrategy,2023.2.3,Win32,60.24096386,7,2,7,,,,,,,,2,10,,,,,,,,,,,4,4.068,0,,,,,,0.364814815,-0.246296296,1,0,0,4.0675,Gabbro_rect,6,0,6,0,1,
63e461c4bdc3693c05d515a1,SCN,2024-06-24_13h46.29.014,LearnStrategy,2023.2.3,Win32,60.24096386,7,2,8,,,,,,,,7,16,,,,,,,,,,,7,1.708,1,,,,,,0.186111111,-0.412037037,1,0,0,1.7079,Peridotite_rect,7,0,7,0,1,
63e461c4bdc3693c05d515a1,SCN,2024-06-24_13h46.29.014,LearnStrategy,2023.2.3,Win32,60.24096386,7,2,9,,,,,,,,6,08,,,,,,,,,,,6,1.566,1,,,,,,-0.090740741,-0.411111111,1,0,0,1.5656,Pegmatite_rect,8,0,8,0,1,
63e461c4bdc3693c05d515a1,SCN,2024-06-24_13h46.29.014,LearnStrategy,2023.2.3,Win32,60.24096386,7,2,10,,,,,,,,5,06,,,,,,,,,,,5,1.349,1,,,,,,-0.349074074,-0.402777778,1,0,0,1.3495,Obsidian_rect,9,0,9,0,1,
63e461c4bdc3693c05d515a1,SCN,2024-06-24_13h46.29.014,LearnStrategy,2023.2.3,Win32,60.24096386,7,2,11,,,,,,,,4,11,,,,,,,,,,,2,2.338,0,,,,,,-0.090740741,-0.25462963,1,0,0,2.3382,Basalt_rect,10,0,10,0,1,
63e461c4bdc3693c05d515a1,SCN,2024-06-24_13h46.29.014,LearnStrategy,2023.2.3,Win32,60.24096386,7,2,12,,,,,,,,6,03,,,,,,,,,,,6,3.124,1,,,,,,-0.097222222,-0.394444444,1,0,0,3.1235,Pegmatite_rect,11,0,11,0,1,
63e461c4bdc3693c05d515a1,SCN,2024-06-24_13h46.29.014,LearnStrategy,2023.2.3,Win32,60.24096386,7,2,13,,,,,,,,3,11,,,,,,,,,,,3,3.306,1,,,,,,0.093518519,-0.261111111,1,0,0,3.3059,Diorite_rect,12,0,12,0,1,
63e461c4bdc3693c05d515a1,SCN,2024-06-24_13h46.29.014,LearnStrategy,2023.2.3,Win32,60.24096386,7,2,14,,,,,,,,3,12,,,,,,,,,,,3,1.446,1,,,,,,0.093518519,-0.261111111,1,0,0,1.4456,Diorite_rect,13,0,13,0,1,
63e461c4bdc3693c05d515a1,SCN,2024-06-24_13h46.29.014,LearnStrategy,2023.2.3,Win32,60.24096386,7,2,15,,,,,,,,1,03,,,,,,,,,,,3,4.853,0,,,,,,0.094444444,-0.259259259,1,0,0,4.8533,Diorite_rect,14,0,14,0,1,
63e461c4bdc3693c05d515a1,SCN,2024-06-24_13h46.29.014,LearnStrategy,2023.2.3,Win32,60.24096386,7,2,16,,,,,,,,5,08,,,,,,,,,,,5,1.417,1,,,,,,-0.337037037,-0.417592593,1,0,0,1.4168,Obsidian_rect,15,0,15,0,1,
63e461c4bdc3693c05d515a1,SCN,2024-06-24_13h46.29.014,LearnStrategy,2023.2.3,Win32,60.24096386,8,1,1,-0.374074074,0.24537037,1,0,0,4.3044,Basalt_04,2,04,5,2,4.304,0.351851852,-0.24537037,1,0,0,7.3315,Gabbro_rect,4,7.331,0,0,0,0,0,1,,,,,,,,,,,,,
63e461c4bdc3693c05d515a1,SCN,2024-06-24_13h46.29.014,LearnStrategy,2023.2.3,Win32,60.24096386,8,1,2,-0.380555556,0.248148148,1,0,0,1.9798,Basalt_04,2,04,5,2,1.98,-0.086111111,-0.240740741,1,0,0,1.8026,Basalt_rect,2,1.803,1,1,0,1,0,1,,,,,,,,,,,,,
63e461c4bdc3693c05d515a1,SCN,2024-06-24_13h46.29.014,LearnStrategy,2023.2.3,Win32,60.24096386,8,1,3,-0.406481481,0.391666667,1,0,0,1.1505,Basalt_05,2,05,6,2,1.15,-0.084259259,-0.241666667,1,0,0,1.7113,Basalt_rect,2,1.711,1,2,0,2,0,1,,,,,,,,,,,,,
63e461c4bdc3693c05d515a1,SCN,2024-06-24_13h46.29.014,LearnStrategy,2023.2.3,Win32,60.24096386,8,1,4,-0.264814815,0.412037037,1,0,0,2.4751,Pegmatite_09,6,09,6,3,2.475,-0.056481481,-0.394444444,1,0,0,2.4982,Pegmatite_rect,6,2.498,1,3,0,3,0,1,,,,,,,,,,,,,
63e461c4bdc3693c05d515a1,SCN,2024-06-24_13h46.29.014,LearnStrategy,2023.2.3,Win32,60.24096386,8,1,5,-0.565740741,0.387962963,1,0,0,3.2487,Diorite_10,3,10,6,1,3.249,-0.344444444,-0.24537037,1,0,0,2.7572,Andesite_rect,1,2.757,0,4,0,4,0,1,,,,,,,,,,,,,
63e461c4bdc3693c05d515a1,SCN,2024-06-24_13h46.29.014,LearnStrategy,2023.2.3,Win32,60.24096386,8,1,6,-0.566666667,-0.428703704,1,0,0,2.321,Andesite_16,1,16,1,1,2.321,-0.403703704,-0.262962963,1,0,0,3.2249,Andesite_rect,1,3.225,1,5,0,5,0,1,,,,,,,,,,,,,
63e461c4bdc3693c05d515a1,SCN,2024-06-24_13h46.29.014,LearnStrategy,2023.2.3,Win32,60.24096386,8,1,7,-0.39537037,-0.430555556,1,0,0,1.4491,Andesite_10,1,10,1,2,1.449,-0.391666667,-0.267592593,1,0,0,2.2836,Andesite_rect,1,2.284,1,6,0,6,0,1,,,,,,,,,,,,,
63e461c4bdc3693c05d515a1,SCN,2024-06-24_13h46.29.014,LearnStrategy,2023.2.3,Win32,60.24096386,8,1,8,-0.213888889,-0.39537037,1,0,0,1.9309,Pegmatite_05,6,05,1,3,1.931,-0.133333333,-0.410185185,1,0,0,2.3379,Pegmatite_rect,6,2.338,1,7,0,7,0,1,,,,,,,,,,,,,
63e461c4bdc3693c05d515a1,SCN,2024-06-24_13h46.29.014,LearnStrategy,2023.2.3,Win32,60.24096386,8,1,9,-0.057407407,-0.421296296,1,0,0,1.9664,Gabbro_15,4,15,1,4,1.966,0.398148148,-0.243518519,1,0,0,1.5111,Gabbro_rect,4,1.511,1,8,0,8,0,1,,,,,,,,,,,,,
63e461c4bdc3693c05d515a1,SCN,2024-06-24_13h46.29.014,LearnStrategy,2023.2.3,Win32,60.24096386,8,1,10,0.090740741,-0.415740741,1,0,0,1.8325,Obsidian_05,5,05,1,5,1.832,-0.350925926,-0.381481481,1,0,0,1.4598,Obsidian_rect,5,1.46,1,9,0,9,0,1,,,,,,,,,,,,,
63e461c4bdc3693c05d515a1,SCN,2024-06-24_13h46.29.014,LearnStrategy,2023.2.3,Win32,60.24096386,8,1,11,0.240740741,-0.419444444,1,0,0,1.6887,Basalt_11,2,11,1,6,1.689,-0.126851852,-0.25462963,1,0,0,1.5862,Basalt_rect,2,1.586,1,10,0,10,0,1,,,,,,,,,,,,,
63e461c4bdc3693c05d515a1,SCN,2024-06-24_13h46.29.014,LearnStrategy,2023.2.3,Win32,60.24096386,8,1,12,0.399074074,-0.412962963,1,0,0,1.834,Basalt_08,2,08,1,7,1.834,-0.112962963,-0.25462963,1,0,0,2.7299,Basalt_rect,2,2.73,1,11,0,11,0,1,,,,,,,,,,,,,
63e461c4bdc3693c05d515a1,SCN,2024-06-24_13h46.29.014,LearnStrategy,2023.2.3,Win32,60.24096386,8,1,13,0.563888889,-0.406481481,1,0,0,1.9481,Pegmatite_13,6,13,1,8,1.948,-0.07962963,-0.407407407,1,0,0,1.8607,Pegmatite_rect,6,1.861,1,12,0,12,0,1,,,,,,,,,,,,,
63e461c4bdc3693c05d515a1,SCN,2024-06-24_13h46.29.014,LearnStrategy,2023.2.3,Win32,60.24096386,8,1,14,-0.061111111,-0.263888889,1,0,0,9.8243,Pumice_02,8,02,2,4,9.824,0.438888889,-0.414814815,1,0,0,2.0444,Pumice_rect,8,2.044,1,13,0,13,0,1,,,,,,,,,,,,,
63e461c4bdc3693c05d515a1,SCN,2024-06-24_13h46.29.014,LearnStrategy,2023.2.3,Win32,60.24096386,8,1,15,-0.237037037,-0.263888889,1,0,0,3.8034,Andesite_05,1,05,2,3,3.803,-0.360185185,-0.252777778,1,0,0,1.4499,Andesite_rect,1,1.45,1,14,0,14,0,1,,,,,,,,,,,,,
63e461c4bdc3693c05d515a1,SCN,2024-06-24_13h46.29.014,LearnStrategy,2023.2.3,Win32,60.24096386,8,1,16,-0.386111111,-0.262037037,1,0,0,1.7493,Peridotite_08,7,08,2,2,1.749,0.106481481,-0.40462963,1,0,0,1.8986,Peridotite_rect,7,1.899,1,15,0,15,0,1,,,,,,,,,,,,,
63e461c4bdc3693c05d515a1,SCN,2024-06-24_13h46.29.014,LearnStrategy,2023.2.3,Win32,60.24096386,8,2,1,,,,,,,,3,09,,,,,,,,,,,1,7.139,0,,,,,,-0.351851852,-0.238888889,1,0,0,7.1391,Andesite_rect,0,0,0,0,1,
63e461c4bdc3693c05d515a1,SCN,2024-06-24_13h46.29.014,LearnStrategy,2023.2.3,Win32,60.24096386,8,2,2,,,,,,,,7,07,,,,,,,,,,,7,1.866,1,,,,,,0.137962963,-0.402777778,1,0,0,1.8662,Peridotite_rect,1,0,1,0,1,
63e461c4bdc3693c05d515a1,SCN,2024-06-24_13h46.29.014,LearnStrategy,2023.2.3,Win32,60.24096386,8,2,3,,,,,,,,7,12,,,,,,,,,,,7,1.15,1,,,,,,0.137037037,-0.401851852,1,0,0,1.1498,Peridotite_rect,2,0,2,0,1,
63e461c4bdc3693c05d515a1,SCN,2024-06-24_13h46.29.014,LearnStrategy,2023.2.3,Win32,60.24096386,8,2,4,,,,,,,,4,03,,,,,,,,,,,3,3.886,0,,,,,,0.161111111,-0.261111111,1,0,0,3.8864,Diorite_rect,3,0,3,0,1,
63e461c4bdc3693c05d515a1,SCN,2024-06-24_13h46.29.014,LearnStrategy,2023.2.3,Win32,60.24096386,8,2,5,,,,,,,,6,15,,,,,,,,,,,6,1.336,1,,,,,,-0.136111111,-0.416666667,1,0,0,1.3359,Pegmatite_rect,4,0,4,0,1,
63e461c4bdc3693c05d515a1,SCN,2024-06-24_13h46.29.014,LearnStrategy,2023.2.3,Win32,60.24096386,8,2,6,,,,,,,,4,10,,,,,,,,,,,3,26.902,0,,,,,,0.068518519,-0.239814815,1,0,0,26.9025,Diorite_rect,5,0,5,0,1,
63e461c4bdc3693c05d515a1,SCN,2024-06-24_13h46.29.014,LearnStrategy,2023.2.3,Win32,60.24096386,8,2,7,,,,,,,,3,14,,,,,,,,,,,3,5.653,1,,,,,,0.082407407,-0.237037037,1,0,0,5.6526,Diorite_rect,6,0,6,0,1,
63e461c4bdc3693c05d515a1,SCN,2024-06-24_13h46.29.014,LearnStrategy,2023.2.3,Win32,60.24096386,8,2,8,,,,,,,,1,09,,,,,,,,,,,1,3.969,1,,,,,,-0.358333333,-0.27037037,1,0,0,3.9691,Andesite_rect,7,0,7,0,1,
63e461c4bdc3693c05d515a1,SCN,2024-06-24_13h46.29.014,LearnStrategy,2023.2.3,Win32,60.24096386,8,2,9,,,,,,,,6,07,,,,,,,,,,,6,2.1,1,,,,,,-0.14537037,-0.399074074,1,0,0,2.1002,Pegmatite_rect,8,0,8,0,1,
63e461c4bdc3693c05d515a1,SCN,2024-06-24_13h46.29.014,LearnStrategy,2023.2.3,Win32,60.24096386,8,2,10,,,,,,,,8,03,,,,,,,,,,,8,1.528,1,,,,,,0.377777778,-0.401851852,1,0,0,1.5277,Pumice_rect,9,0,9,0,1,
63e461c4bdc3693c05d515a1,SCN,2024-06-24_13h46.29.014,LearnStrategy,2023.2.3,Win32,60.24096386,8,2,11,,,,,,,,2,02,,,,,,,,,,,2,1.619,1,,,,,,-0.075,-0.268518519,1,0,0,1.6187,Basalt_rect,10,0,10,0,1,
63e461c4bdc3693c05d515a1,SCN,2024-06-24_13h46.29.014,LearnStrategy,2023.2.3,Win32,60.24096386,8,2,12,,,,,,,,5,11,,,,,,,,,,,5,1.411,1,,,,,,-0.333333333,-0.387037037,1,0,0,1.4111,Obsidian_rect,11,0,11,0,1,
63e461c4bdc3693c05d515a1,SCN,2024-06-24_13h46.29.014,LearnStrategy,2023.2.3,Win32,60.24096386,8,2,13,,,,,,,,1,07,,,,,,,,,,,1,4.035,1,,,,,,-0.362037037,-0.255555556,1,0,0,4.0351,Andesite_rect,12,0,12,0,1,
63e461c4bdc3693c05d515a1,SCN,2024-06-24_13h46.29.014,LearnStrategy,2023.2.3,Win32,60.24096386,8,2,14,,,,,,,,8,05,,,,,,,,,,,8,1.578,1,,,,,,0.415740741,-0.412037037,1,0,0,1.5778,Pumice_rect,13,0,13,0,1,
63e461c4bdc3693c05d515a1,SCN,2024-06-24_13h46.29.014,LearnStrategy,2023.2.3,Win32,60.24096386,8,2,15,,,,,,,,5,10,,,,,,,,,,,5,1.533,1,,,,,,-0.360185185,-0.398148148,1,0,0,1.5326,Obsidian_rect,14,0,14,0,1,
63e461c4bdc3693c05d515a1,SCN,2024-06-24_13h46.29.014,LearnStrategy,2023.2.3,Win32,60.24096386,8,2,16,,,,,,,,2,14,,,,,,,,,,,4,2.148,0,,,,,,0.35462963,-0.241666667,1,0,0,2.1479,Gabbro_rect,15,0,15,0,1,
63e461c4bdc3693c05d515a1,SCN,2024-06-24_13h46.29.014,LearnStrategy,2023.2.3,Win32,60.24096386,9,1,1,-0.557407407,-0.102777778,1,0,0,5.0388,Basalt_16,2,16,3,1,5.039,0.396296296,-0.237037037,1,0,0,2.6096,Gabbro_rect,4,2.61,0,0,0,0,0,1,,,,,,,,,,,,,
63e461c4bdc3693c05d515a1,SCN,2024-06-24_13h46.29.014,LearnStrategy,2023.2.3,Win32,60.24096386,9,1,2,-0.543518519,0.102777778,1,0,0,12.3283,Andesite_11,1,11,4,1,12.328,0.072222222,-0.255555556,1,0,0,3.4204,Diorite_rect,3,3.42,0,1,0,1,0,1,,,,,,,,,,,,,
63e461c4bdc3693c05d515a1,SCN,2024-06-24_13h46.29.014,LearnStrategy,2023.2.3,Win32,60.24096386,9,1,3,-0.407407407,0.072222222,1,0,0,1.8973,Gabbro_01,4,01,4,2,1.897,0.368518519,-0.253703704,1,0,0,2.876,Gabbro_rect,4,2.876,1,2,0,2,0,1,,,,,,,,,,,,,
63e461c4bdc3693c05d515a1,SCN,2024-06-24_13h46.29.014,LearnStrategy,2023.2.3,Win32,60.24096386,9,1,4,-0.225925926,0.07962963,1,0,0,1.9972,Pegmatite_12,6,12,4,3,1.997,-0.109259259,-0.400925926,1,0,0,1.5059,Pegmatite_rect,6,1.506,1,3,0,3,0,1,,,,,,,,,,,,,
63e461c4bdc3693c05d515a1,SCN,2024-06-24_13h46.29.014,LearnStrategy,2023.2.3,Win32,60.24096386,9,1,5,0.064814815,0.24537037,1,0,0,2.9691,Gabbro_08,4,08,5,5,2.969,-0.116666667,-0.25,1,0,0,3.2986,Basalt_rect,2,3.299,0,4,0,4,0,1,,,,,,,,,,,,,
63e461c4bdc3693c05d515a1,SCN,2024-06-24_13h46.29.014,LearnStrategy,2023.2.3,Win32,60.24096386,9,1,6,-0.54537037,0.369444444,1,0,0,14.243,Diorite_10,3,10,6,1,14.243,0.149074074,-0.262962963,1,0,0,2.0849,Diorite_rect,3,2.085,1,5,0,5,0,1,,,,,,,,,,,,,
63e461c4bdc3693c05d515a1,SCN,2024-06-24_13h46.29.014,LearnStrategy,2023.2.3,Win32,60.24096386,9,1,7,-0.387962963,0.066666667,1,0,0,2.4184,Gabbro_01,4,01,4,2,2.418,0.368518519,-0.243518519,1,0,0,1.8567,Gabbro_rect,4,1.857,1,6,0,6,0,1,,,,,,,,,,,,,
63e461c4bdc3693c05d515a1,SCN,2024-06-24_13h46.29.014,LearnStrategy,2023.2.3,Win32,60.24096386,9,1,8,-0.402777778,-0.261111111,1,0,0,2.5361,Peridotite_08,7,08,2,2,2.536,0.10462963,-0.414814815,1,0,0,1.63,Peridotite_rect,7,1.63,1,7,0,7,0,1,,,,,,,,,,,,,
63e461c4bdc3693c05d515a1,SCN,2024-06-24_13h46.29.014,LearnStrategy,2023.2.3,Win32,60.24096386,9,1,9,-0.550925926,-0.25462963,1,0,0,3.3174,Gabbro_05,4,05,2,1,3.317,0.414814815,-0.268518519,1,0,0,2.3388,Gabbro_rect,4,2.339,1,8,0,8,0,1,,,,,,,,,,,,,
63e461c4bdc3693c05d515a1,SCN,2024-06-24_13h46.29.014,LearnStrategy,2023.2.3,Win32,60.24096386,9,1,10,0.516666667,-0.115740741,1,0,0,3.2071,Diorite_08,3,08,3,8,3.207,0.172222222,-0.246296296,1,0,0,1.1614,Diorite_rect,3,1.161,1,9,0,9,0,1,,,,,,,,,,,,,
63e461c4bdc3693c05d515a1,SCN,2024-06-24_13h46.29.014,LearnStrategy,2023.2.3,Win32,60.24096386,9,1,11,0.219444444,-0.10462963,1,0,0,1.1296,Diorite_02,3,02,3,6,1.13,0.141666667,-0.24537037,1,0,0,1.2433,Diorite_rect,3,1.243,1,10,0,10,0,1,,,,,,,,,,,,,
63e461c4bdc3693c05d515a1,SCN,2024-06-24_13h46.29.014,LearnStrategy,2023.2.3,Win32,60.24096386,9,1,12,0.068518519,0.398148148,1,0,0,3.2468,Diorite_07,3,07,6,5,3.247,0.164814815,-0.244444444,1,0,0,1.517,Diorite_rect,3,1.517,1,11,0,11,0,1,,,,,,,,,,,,,
63e461c4bdc3693c05d515a1,SCN,2024-06-24_13h46.29.014,LearnStrategy,2023.2.3,Win32,60.24096386,9,1,13,-0.542592593,-0.432407407,1,0,0,4.7679,Andesite_16,1,16,1,1,4.768,-0.392592593,-0.252777778,1,0,0,2.7368,Andesite_rect,1,2.737,1,12,0,12,0,1,,,,,,,,,,,,,
63e461c4bdc3693c05d515a1,SCN,2024-06-24_13h46.29.014,LearnStrategy,2023.2.3,Win32,60.24096386,9,1,14,-0.4,-0.417592593,1,0,0,1.4286,Andesite_10,1,10,1,2,1.429,-0.351851852,-0.263888889,1,0,0,1.8095,Andesite_rect,1,1.809,1,13,0,13,0,1,,,,,,,,,,,,,
63e461c4bdc3693c05d515a1,SCN,2024-06-24_13h46.29.014,LearnStrategy,2023.2.3,Win32,60.24096386,9,1,15,-0.369444444,-0.262962963,1,0,0,4.1695,Peridotite_08,7,08,2,2,4.169,0.07962963,-0.399074074,1,0,0,1.5742,Peridotite_rect,7,1.574,1,14,0,14,0,1,,,,,,,,,,,,,
63e461c4bdc3693c05d515a1,SCN,2024-06-24_13h46.29.014,LearnStrategy,2023.2.3,Win32,60.24096386,9,1,16,0.252777778,-0.249074074,1,0,0,9.3743,Diorite_15,3,15,2,6,9.374,0.150925926,-0.252777778,1,0,0,3.2335,Diorite_rect,3,3.234,1,15,0,15,0,1,,,,,,,,,,,,,
63e461c4bdc3693c05d515a1,SCN,2024-06-24_13h46.29.014,LearnStrategy,2023.2.3,Win32,60.24096386,9,2,1,,,,,,,,6,16,,,,,,,,,,,6,1.959,1,,,,,,-0.077777778,-0.392592593,1,0,0,1.9589,Pegmatite_rect,0,0,0,0,1,
63e461c4bdc3693c05d515a1,SCN,2024-06-24_13h46.29.014,LearnStrategy,2023.2.3,Win32,60.24096386,9,2,2,,,,,,,,8,16,,,,,,,,,,,8,1.558,1,,,,,,0.398148148,-0.400925926,1,0,0,1.5578,Pumice_rect,1,0,1,0,1,
63e461c4bdc3693c05d515a1,SCN,2024-06-24_13h46.29.014,LearnStrategy,2023.2.3,Win32,60.24096386,9,2,3,,,,,,,,1,01,,,,,,,,,,,3,2.268,0,,,,,,0.140740741,-0.266666667,1,0,0,2.2678,Diorite_rect,2,0,2,0,1,
63e461c4bdc3693c05d515a1,SCN,2024-06-24_13h46.29.014,LearnStrategy,2023.2.3,Win32,60.24096386,9,2,4,,,,,,,,8,10,,,,,,,,,,,8,1.46,1,,,,,,0.392592593,-0.418518519,1,0,0,1.4598,Pumice_rect,3,0,3,0,1,
63e461c4bdc3693c05d515a1,SCN,2024-06-24_13h46.29.014,LearnStrategy,2023.2.3,Win32,60.24096386,9,2,5,,,,,,,,2,06,,,,,,,,,,,2,5.104,1,,,,,,-0.065740741,-0.259259259,1,0,0,5.1038,Basalt_rect,4,0,4,0,1,
63e461c4bdc3693c05d515a1,SCN,2024-06-24_13h46.29.014,LearnStrategy,2023.2.3,Win32,60.24096386,9,2,6,,,,,,,,5,09,,,,,,,,,,,5,1.361,1,,,,,,-0.360185185,-0.403703704,1,0,0,1.3605,Obsidian_rect,5,0,5,0,1,
63e461c4bdc3693c05d515a1,SCN,2024-06-24_13h46.29.014,LearnStrategy,2023.2.3,Win32,60.24096386,9,2,7,,,,,,,,1,04,,,,,,,,,,,3,3.635,0,,,,,,0.134259259,-0.243518519,1,0,0,3.6349,Diorite_rect,6,0,6,0,1,
63e461c4bdc3693c05d515a1,SCN,2024-06-24_13h46.29.014,LearnStrategy,2023.2.3,Win32,60.24096386,9,2,8,,,,,,,,4,16,,,,,,,,,,,4,1.654,1,,,,,,0.389814815,-0.259259259,1,0,0,1.6543,Gabbro_rect,7,0,7,0,1,
63e461c4bdc3693c05d515a1,SCN,2024-06-24_13h46.29.014,LearnStrategy,2023.2.3,Win32,60.24096386,9,2,9,,,,,,,,7,05,,,,,,,,,,,7,2.284,1,,,,,,0.17962963,-0.412037037,1,0,0,2.2844,Peridotite_rect,8,0,8,0,1,
63e461c4bdc3693c05d515a1,SCN,2024-06-24_13h46.29.014,LearnStrategy,2023.2.3,Win32,60.24096386,9,2,10,,,,,,,,2,12,,,,,,,,,,,8,3.852,0,,,,,,0.387037037,-0.409259259,1,0,0,3.852,Pumice_rect,9,0,9,0,1,
63e461c4bdc3693c05d515a1,SCN,2024-06-24_13h46.29.014,LearnStrategy,2023.2.3,Win32,60.24096386,9,2,11,,,,,,,,5,14,,,,,,,,,,,5,1.501,1,,,,,,-0.344444444,-0.419444444,1,0,0,1.5008,Obsidian_rect,10,0,10,0,1,
63e461c4bdc3693c05d515a1,SCN,2024-06-24_13h46.29.014,LearnStrategy,2023.2.3,Win32,60.24096386,9,2,12,,,,,,,,6,10,,,,,,,,,,,6,2.217,1,,,,,,-0.112037037,-0.405555556,1,0,0,2.2169,Pegmatite_rect,11,0,11,0,1,
63e461c4bdc3693c05d515a1,SCN,2024-06-24_13h46.29.014,LearnStrategy,2023.2.3,Win32,60.24096386,9,2,13,,,,,,,,4,09,,,,,,,,,,,4,9.718,1,,,,,,0.397222222,-0.228703704,1,0,0,9.7182,Gabbro_rect,12,0,12,0,1,
63e461c4bdc3693c05d515a1,SCN,2024-06-24_13h46.29.014,LearnStrategy,2023.2.3,Win32,60.24096386,9,2,14,,,,,,,,3,16,,,,,,,,,,,3,1.701,1,,,,,,0.175925926,-0.262962963,1,0,0,1.7012,Diorite_rect,13,0,13,0,1,
63e461c4bdc3693c05d515a1,SCN,2024-06-24_13h46.29.014,LearnStrategy,2023.2.3,Win32,60.24096386,9,2,15,,,,,,,,3,06,,,,,,,,,,,3,14.13,1,,,,,,0.074074074,-0.251851852,1,0,0,14.13,Diorite_rect,14,0,14,0,1,
63e461c4bdc3693c05d515a1,SCN,2024-06-24_13h46.29.014,LearnStrategy,2023.2.3,Win32,60.24096386,9,2,16,,,,,,,,7,10,,,,,,,,,,,7,1.474,1,,,,,,0.112037037,-0.387962963,1,0,0,1.4737,Peridotite_rect,15,0,15,0,1,
63e461c4bdc3693c05d515a1,SCN,2024-06-24_13h46.29.014,LearnStrategy,2023.2.3,Win32,60.24096386,,,,,,,,,,,,,,,,,,,,,,,,,,,,,,,,,,,,,,,,,,,1
63e461c4bdc3693c05d515a1,SCN,2024-06-24_13h46.29.014,LearnStrategy,2023.2.3,Win32,60.24096386,,,,,,,,,,,,,,,,,,,,,,,,,,,,,,,,,,,,,,,,,,,
63e461c4bdc3693c05d515a1,SCN,2024-06-24_13h46.29.014,LearnStrategy,2023.2.3,Win32,60.24096386,,,,,,,,,,,1,16,1,1,,,,,,,,,,,,,,,,,,,,,,,,,,,,,
63e461c4bdc3693c05d515a1,SCN,2024-06-24_13h46.29.014,LearnStrategy,2023.2.3,Win32,60.24096386,,,,,,,,,,,1,10,1,2,,,,,,,,,,,,,,,,,,,,,,,,,,,,,
63e461c4bdc3693c05d515a1,SCN,2024-06-24_13h46.29.014,LearnStrategy,2023.2.3,Win32,60.24096386,,,,,,,,,,,6,05,1,3,,,,,,,,,,,,,,,,,,,,,,,,,,,,,
63e461c4bdc3693c05d515a1,SCN,2024-06-24_13h46.29.014,LearnStrategy,2023.2.3,Win32,60.24096386,,,,,,,,,,,4,15,1,4,,,,,,,,,,,,,,,,,,,,,,,,,,,,,
63e461c4bdc3693c05d515a1,SCN,2024-06-24_13h46.29.014,LearnStrategy,2023.2.3,Win32,60.24096386,,,,,,,,,,,5,05,1,5,,,,,,,,,,,,,,,,,,,,,,,,,,,,,
63e461c4bdc3693c05d515a1,SCN,2024-06-24_13h46.29.014,LearnStrategy,2023.2.3,Win32,60.24096386,,,,,,,,,,,2,11,1,6,,,,,,,,,,,,,,,,,,,,,,,,,,,,,
63e461c4bdc3693c05d515a1,SCN,2024-06-24_13h46.29.014,LearnStrategy,2023.2.3,Win32,60.24096386,,,,,,,,,,,2,08,1,7,,,,,,,,,,,,,,,,,,,,,,,,,,,,,
63e461c4bdc3693c05d515a1,SCN,2024-06-24_13h46.29.014,LearnStrategy,2023.2.3,Win32,60.24096386,,,,,,,,,,,6,13,1,8,,,,,,,,,,,,,,,,,,,,,,,,,,,,,
63e461c4bdc3693c05d515a1,SCN,2024-06-24_13h46.29.014,LearnStrategy,2023.2.3,Win32,60.24096386,,,,,,,,,,,4,05,2,1,,,,,,,,,,,,,,,,,,,,,,,,,,,,,
63e461c4bdc3693c05d515a1,SCN,2024-06-24_13h46.29.014,LearnStrategy,2023.2.3,Win32,60.24096386,,,,,,,,,,,7,08,2,2,,,,,,,,,,,,,,,,,,,,,,,,,,,,,
63e461c4bdc3693c05d515a1,SCN,2024-06-24_13h46.29.014,LearnStrategy,2023.2.3,Win32,60.24096386,,,,,,,,,,,1,05,2,3,,,,,,,,,,,,,,,,,,,,,,,,,,,,,
63e461c4bdc3693c05d515a1,SCN,2024-06-24_13h46.29.014,LearnStrategy,2023.2.3,Win32,60.24096386,,,,,,,,,,,8,02,2,4,,,,,,,,,,,,,,,,,,,,,,,,,,,,,
63e461c4bdc3693c05d515a1,SCN,2024-06-24_13h46.29.014,LearnStrategy,2023.2.3,Win32,60.24096386,,,,,,,,,,,7,06,2,5,,,,,,,,,,,,,,,,,,,,,,,,,,,,,
63e461c4bdc3693c05d515a1,SCN,2024-06-24_13h46.29.014,LearnStrategy,2023.2.3,Win32,60.24096386,,,,,,,,,,,3,15,2,6,,,,,,,,,,,,,,,,,,,,,,,,,,,,,
63e461c4bdc3693c05d515a1,SCN,2024-06-24_13h46.29.014,LearnStrategy,2023.2.3,Win32,60.24096386,,,,,,,,,,,5,16,2,7,,,,,,,,,,,,,,,,,,,,,,,,,,,,,
63e461c4bdc3693c05d515a1,SCN,2024-06-24_13h46.29.014,LearnStrategy,2023.2.3,Win32,60.24096386,,,,,,,,,,,8,13,2,8,,,,,,,,,,,,,,,,,,,,,,,,,,,,,
63e461c4bdc3693c05d515a1,SCN,2024-06-24_13h46.29.014,LearnStrategy,2023.2.3,Win32,60.24096386,,,,,,,,,,,2,16,3,1,,,,,,,,,,,,,,,,,,,,,,,,,,,,,
63e461c4bdc3693c05d515a1,SCN,2024-06-24_13h46.29.014,LearnStrategy,2023.2.3,Win32,60.24096386,,,,,,,,,,,5,07,3,2,,,,,,,,,,,,,,,,,,,,,,,,,,,,,
63e461c4bdc3693c05d515a1,SCN,2024-06-24_13h46.29.014,LearnStrategy,2023.2.3,Win32,60.24096386,,,,,,,,,,,7,14,3,3,,,,,,,,,,,,,,,,,,,,,,,,,,,,,
63e461c4bdc3693c05d515a1,SCN,2024-06-24_13h46.29.014,LearnStrategy,2023.2.3,Win32,60.24096386,,,,,,,,,,,3,13,3,4,,,,,,,,,,,,,,,,,,,,,,,,,,,,,
63e461c4bdc3693c05d515a1,SCN,2024-06-24_13h46.29.014,LearnStrategy,2023.2.3,Win32,60.24096386,,,,,,,,,,,7,13,3,5,,,,,,,,,,,,,,,,,,,,,,,,,,,,,
63e461c4bdc3693c05d515a1,SCN,2024-06-24_13h46.29.014,LearnStrategy,2023.2.3,Win32,60.24096386,,,,,,,,,,,3,02,3,6,,,,,,,,,,,,,,,,,,,,,,,,,,,,,
63e461c4bdc3693c05d515a1,SCN,2024-06-24_13h46.29.014,LearnStrategy,2023.2.3,Win32,60.24096386,,,,,,,,,,,5,04,3,7,,,,,,,,,,,,,,,,,,,,,,,,,,,,,
63e461c4bdc3693c05d515a1,SCN,2024-06-24_13h46.29.014,LearnStrategy,2023.2.3,Win32,60.24096386,,,,,,,,,,,3,08,3,8,,,,,,,,,,,,,,,,,,,,,,,,,,,,,
63e461c4bdc3693c05d515a1,SCN,2024-06-24_13h46.29.014,LearnStrategy,2023.2.3,Win32,60.24096386,,,,,,,,,,,1,11,4,1,,,,,,,,,,,,,,,,,,,,,,,,,,,,,
63e461c4bdc3693c05d515a1,SCN,2024-06-24_13h46.29.014,LearnStrategy,2023.2.3,Win32,60.24096386,,,,,,,,,,,4,01,4,2,,,,,,,,,,,,,,,,,,,,,,,,,,,,,
63e461c4bdc3693c05d515a1,SCN,2024-06-24_13h46.29.014,LearnStrategy,2023.2.3,Win32,60.24096386,,,,,,,,,,,6,12,4,3,,,,,,,,,,,,,,,,,,,,,,,,,,,,,
63e461c4bdc3693c05d515a1,SCN,2024-06-24_13h46.29.014,LearnStrategy,2023.2.3,Win32,60.24096386,,,,,,,,,,,8,06,4,4,,,,,,,,,,,,,,,,,,,,,,,,,,,,,
63e461c4bdc3693c05d515a1,SCN,2024-06-24_13h46.29.014,LearnStrategy,2023.2.3,Win32,60.24096386,,,,,,,,,,,5,12,4,5,,,,,,,,,,,,,,,,,,,,,,,,,,,,,
63e461c4bdc3693c05d515a1,SCN,2024-06-24_13h46.29.014,LearnStrategy,2023.2.3,Win32,60.24096386,,,,,,,,,,,6,06,4,6,,,,,,,,,,,,,,,,,,,,,,,,,,,,,
63e461c4bdc3693c05d515a1,SCN,2024-06-24_13h46.29.014,LearnStrategy,2023.2.3,Win32,60.24096386,,,,,,,,,,,1,02,4,7,,,,,,,,,,,,,,,,,,,,,,,,,,,,,
63e461c4bdc3693c05d515a1,SCN,2024-06-24_13h46.29.014,LearnStrategy,2023.2.3,Win32,60.24096386,,,,,,,,,,,7,02,4,8,,,,,,,,,,,,,,,,,,,,,,,,,,,,,
63e461c4bdc3693c05d515a1,SCN,2024-06-24_13h46.29.014,LearnStrategy,2023.2.3,Win32,60.24096386,,,,,,,,,,,5,02,5,1,,,,,,,,,,,,,,,,,,,,,,,,,,,,,
63e461c4bdc3693c05d515a1,SCN,2024-06-24_13h46.29.014,LearnStrategy,2023.2.3,Win32,60.24096386,,,,,,,,,,,2,04,5,2,,,,,,,,,,,,,,,,,,,,,,,,,,,,,
63e461c4bdc3693c05d515a1,SCN,2024-06-24_13h46.29.014,LearnStrategy,2023.2.3,Win32,60.24096386,,,,,,,,,,,4,13,5,3,,,,,,,,,,,,,,,,,,,,,,,,,,,,,
63e461c4bdc3693c05d515a1,SCN,2024-06-24_13h46.29.014,LearnStrategy,2023.2.3,Win32,60.24096386,,,,,,,,,,,8,15,5,4,,,,,,,,,,,,,,,,,,,,,,,,,,,,,
63e461c4bdc3693c05d515a1,SCN,2024-06-24_13h46.29.014,LearnStrategy,2023.2.3,Win32,60.24096386,,,,,,,,,,,4,08,5,5,,,,,,,,,,,,,,,,,,,,,,,,,,,,,
63e461c4bdc3693c05d515a1,SCN,2024-06-24_13h46.29.014,LearnStrategy,2023.2.3,Win32,60.24096386,,,,,,,,,,,2,01,5,6,,,,,,,,,,,,,,,,,,,,,,,,,,,,,
63e461c4bdc3693c05d515a1,SCN,2024-06-24_13h46.29.014,LearnStrategy,2023.2.3,Win32,60.24096386,,,,,,,,,,,4,12,5,7,,,,,,,,,,,,,,,,,,,,,,,,,,,,,
63e461c4bdc3693c05d515a1,SCN,2024-06-24_13h46.29.014,LearnStrategy,2023.2.3,Win32,60.24096386,,,,,,,,,,,8,04,5,8,,,,,,,,,,,,,,,,,,,,,,,,,,,,,
63e461c4bdc3693c05d515a1,SCN,2024-06-24_13h46.29.014,LearnStrategy,2023.2.3,Win32,60.24096386,,,,,,,,,,,3,10,6,1,,,,,,,,,,,,,,,,,,,,,,,,,,,,,
63e461c4bdc3693c05d515a1,SCN,2024-06-24_13h46.29.014,LearnStrategy,2023.2.3,Win32,60.24096386,,,,,,,,,,,2,05,6,2,,,,,,,,,,,,,,,,,,,,,,,,,,,,,
63e461c4bdc3693c05d515a1,SCN,2024-06-24_13h46.29.014,LearnStrategy,2023.2.3,Win32,60.24096386,,,,,,,,,,,6,09,6,3,,,,,,,,,,,,,,,,,,,,,,,,,,,,,
63e461c4bdc3693c05d515a1,SCN,2024-06-24_13h46.29.014,LearnStrategy,2023.2.3,Win32,60.24096386,,,,,,,,,,,8,09,6,4,,,,,,,,,,,,,,,,,,,,,,,,,,,,,
63e461c4bdc3693c05d515a1,SCN,2024-06-24_13h46.29.014,LearnStrategy,2023.2.3,Win32,60.24096386,,,,,,,,,,,3,07,6,5,,,,,,,,,,,,,,,,,,,,,,,,,,,,,
63e461c4bdc3693c05d515a1,SCN,2024-06-24_13h46.29.014,LearnStrategy,2023.2.3,Win32,60.24096386,,,,,,,,,,,1,14,6,6,,,,,,,,,,,,,,,,,,,,,,,,,,,,,
63e461c4bdc3693c05d515a1,SCN,2024-06-24_13h46.29.014,LearnStrategy,2023.2.3,Win32,60.24096386,,,,,,,,,,,7,15,6,7,,,,,,,,,,,,,,,,,,,,,,,,,,,,,
63e461c4bdc3693c05d515a1,SCN,2024-06-24_13h46.29.014,LearnStrategy,2023.2.3,Win32,60.24096386,,,,,,,,,,,6,11,6,8,,,,,,,,,,,,,,,,,,,,,,,,,,,,,