participant,condition,date,expName,psychopyVersion,OS,frameRate,block,phase,trial,learn_mouse.x,learn_mouse.y,learn_mouse.leftButton,learn_mouse.midButton,learn_mouse.rightButton,learn_mouse.time,learn_mouse.clicked_name,cat,token,row,col,t_select,cat_mouse_l.x,cat_mouse_l.y,cat_mouse_l.leftButton,cat_mouse_l.midButton,cat_mouse_l.rightButton,cat_mouse_l.time,cat_mouse_l.clicked_name,resp,t_resp,corr,train_trials.thisRepN,train_trials.thisTrialN,train_trials.thisN,train_trials.thisIndex,train_trials.ran,cat_mouse_t.x,cat_mouse_t.y,cat_mouse_t.leftButton,cat_mouse_t.midButton,cat_mouse_t.rightButton,cat_mouse_t.time,cat_mouse_t.clicked_name,test_trials.thisRepN,test_trials.thisTrialN,test_trials.thisN,test_trials.thisIndex,test_trials.ran,Bonus
63e5a6690eeedc20da056717,SCN,2024-06-20_13h38.16.704,LearnStrategy,2023.2.3,Win32,59.88023952,,,,,,,,,,,,,,,,,,,,,,,,,,,,,,,,,,,,,,,,,,,
63e5a6690eeedc20da056717,SCN,2024-06-20_13h38.16.704,LearnStrategy,2023.2.3,Win32,59.88023952,1,1,1,-0.211111069,-0.409259302,1,0,0,4.3573,Diorite_07,3,07,1,3,4.357,-0.150925884,-0.398148148,1,0,0,4.8657,Pegmatite_rect,6,4.866,0,0,0,0,0,1,,,,,,,,,,,,,
63e5a6690eeedc20da056717,SCN,2024-06-20_13h38.16.704,LearnStrategy,2023.2.3,Win32,59.88023952,1,1,2,-0.237962935,0.081481474,1,0,0,5.7797,Diorite_02,3,02,4,3,5.78,0.079629616,-0.237963005,1,0,0,1.6403,Diorite_rect,3,1.64,1,1,0,1,0,1,,,,,,,,,,,,,
63e5a6690eeedc20da056717,SCN,2024-06-20_13h38.16.704,LearnStrategy,2023.2.3,Win32,59.88023952,1,1,3,0.094444487,0.207407404,1,0,0,5.2469,Pegmatite_10,6,10,5,5,5.247,-0.122222194,-0.406481496,1,0,0,1.7549,Pegmatite_rect,6,1.755,1,2,0,2,0,1,,,,,,,,,,,,,
63e5a6690eeedc20da056717,SCN,2024-06-20_13h38.16.704,LearnStrategy,2023.2.3,Win32,59.88023952,1,1,4,-0.384259259,-0.118518547,1,0,0,3.7486,Pegmatite_15,6,15,3,2,3.749,-0.322222215,-0.258333347,1,0,0,4.0776,Andesite_rect,1,4.078,0,3,0,3,0,1,,,,,,,,,,,,,
63e5a6690eeedc20da056717,SCN,2024-06-20_13h38.16.704,LearnStrategy,2023.2.3,Win32,59.88023952,1,1,5,0.236111111,-0.412962949,1,0,0,7.4301,Pegmatite_05,6,05,1,6,7.43,0.100000028,-0.236111111,1,0,0,2.5244,Diorite_rect,3,2.524,0,4,0,4,0,1,,,,,,,,,,,,,
63e5a6690eeedc20da056717,SCN,2024-06-20_13h38.16.704,LearnStrategy,2023.2.3,Win32,59.88023952,1,1,6,0.565740797,-0.100000028,1,0,0,2.348,Pegmatite_12,6,12,3,8,2.348,-0.201851809,-0.386111153,1,0,0,1.5435,Pegmatite_rect,6,1.543,1,5,0,5,0,1,,,,,,,,,,,,,
63e5a6690eeedc20da056717,SCN,2024-06-20_13h38.16.704,LearnStrategy,2023.2.3,Win32,59.88023952,1,1,7,-0.212962963,0.087037016,1,0,0,3.2315,Diorite_02,3,02,4,3,3.231,0.106481481,-0.401851866,1,0,0,2.2732,Peridotite_rect,7,2.273,0,6,0,6,0,1,,,,,,,,,,,,,
63e5a6690eeedc20da056717,SCN,2024-06-20_13h38.16.704,LearnStrategy,2023.2.3,Win32,59.88023952,1,1,8,-0.545370349,-0.109259288,1,0,0,5.6305,Andesite_04,1,04,3,1,5.63,0.341666751,-0.242592635,1,0,0,2.4054,Gabbro_rect,4,2.405,0,7,0,7,0,1,,,,,,,,,,,,,
63e5a6690eeedc20da056717,SCN,2024-06-20_13h38.16.704,LearnStrategy,2023.2.3,Win32,59.88023952,1,1,9,0.537963019,0.085185192,1,0,0,4.3975,Peridotite_13,7,13,4,8,4.398,0.187037079,-0.40370369,1,0,0,5.1386,Peridotite_rect,7,5.139,1,8,0,8,0,1,,,,,,,,,,,,,
63e5a6690eeedc20da056717,SCN,2024-06-20_13h38.16.704,LearnStrategy,2023.2.3,Win32,59.88023952,1,1,10,-0.554629608,-0.250925912,1,0,0,4.1977,Andesite_05,1,05,2,1,4.198,-0.446296303,-0.232407393,1,0,0,1.672,Andesite_rect,1,1.672,1,9,0,9,0,1,,,,,,,,,,,,,
63e5a6690eeedc20da056717,SCN,2024-06-20_13h38.16.704,LearnStrategy,2023.2.3,Win32,59.88023952,1,1,11,0.212962963,-0.251851894,1,0,0,4.2636,Andesite_03,1,03,2,6,4.264,-0.355555534,-0.248148176,1,0,0,4.9788,Andesite_rect,1,4.979,1,10,0,10,0,1,,,,,,,,,,,,,
63e5a6690eeedc20da056717,SCN,2024-06-20_13h38.16.704,LearnStrategy,2023.2.3,Win32,59.88023952,1,1,12,0.537037037,-0.262037065,1,0,0,3.5973,Diorite_14,3,14,2,8,3.597,0.059259273,-0.234259288,1,0,0,3.9664,Diorite_rect,3,3.966,1,11,0,11,0,1,,,,,,,,,,,,,
63e5a6690eeedc20da056717,SCN,2024-06-20_13h38.16.704,LearnStrategy,2023.2.3,Win32,59.88023952,1,1,13,-0.207407422,0.249074071,1,0,0,7.1929,Basalt_01,2,01,5,3,7.193,-0.098148134,-0.25,1,0,0,2.6583,Basalt_rect,2,2.658,1,12,0,12,0,1,,,,,,,,,,,,,
63e5a6690eeedc20da056717,SCN,2024-06-20_13h38.16.704,LearnStrategy,2023.2.3,Win32,59.88023952,1,1,14,-0.046296296,0.224999993,1,0,0,4.0636,Diorite_10,3,10,5,4,4.064,0.071296339,-0.250925912,1,0,0,7.4748,Diorite_rect,3,7.475,1,13,0,13,0,1,,,,,,,,,,,,,
63e5a6690eeedc20da056717,SCN,2024-06-20_13h38.16.704,LearnStrategy,2023.2.3,Win32,59.88023952,1,1,15,-0.550925926,-0.438888903,1,0,0,5.7971,Gabbro_15,4,15,1,1,5.797,-0.39166666,-0.255555541,1,0,0,6.3883,Andesite_rect,1,6.388,0,14,0,14,0,1,,,,,,,,,,,,,
63e5a6690eeedc20da056717,SCN,2024-06-20_13h38.16.704,LearnStrategy,2023.2.3,Win32,59.88023952,1,1,16,-0.533333319,0.087037016,1,0,0,2.7979,Peridotite_02,7,02,4,1,2.798,0.111111111,-0.39444443,1,0,0,1.8457,Peridotite_rect,7,1.846,1,15,0,15,0,1,,,,,,,,,,,,,
63e5a6690eeedc20da056717,SCN,2024-06-20_13h38.16.704,LearnStrategy,2023.2.3,Win32,59.88023952,1,2,1,,,,,,,,8,05,,,,,,,,,,,8,2.12,1,,,,,,0.366666723,-0.421296296,1,0,0,2.1202,Pumice_rect,0,0,0,0,1,
63e5a6690eeedc20da056717,SCN,2024-06-20_13h38.16.704,LearnStrategy,2023.2.3,Win32,59.88023952,1,2,2,,,,,,,,4,03,,,,,,,,,,,3,10.038,0,,,,,,0.103703746,-0.239814829,1,0,0,10.038,Diorite_rect,1,0,1,0,1,
63e5a6690eeedc20da056717,SCN,2024-06-20_13h38.16.704,LearnStrategy,2023.2.3,Win32,59.88023952,1,2,3,,,,,,,,3,15,,,,,,,,,,,4,5.405,0,,,,,,0.375925982,-0.250925912,1,0,0,5.405,Gabbro_rect,2,0,2,0,1,
63e5a6690eeedc20da056717,SCN,2024-06-20_13h38.16.704,LearnStrategy,2023.2.3,Win32,59.88023952,1,2,4,,,,,,,,7,16,,,,,,,,,,,6,4.622,0,,,,,,-0.125,-0.409259302,1,0,0,4.6216,Pegmatite_rect,3,0,3,0,1,
63e5a6690eeedc20da056717,SCN,2024-06-20_13h38.16.704,LearnStrategy,2023.2.3,Win32,59.88023952,1,2,5,,,,,,,,5,08,,,,,,,,,,,5,1.284,1,,,,,,-0.339814822,-0.37962963,1,0,0,1.2838,Obsidian_rect,4,0,4,0,1,
63e5a6690eeedc20da056717,SCN,2024-06-20_13h38.16.704,LearnStrategy,2023.2.3,Win32,59.88023952,1,2,6,,,,,,,,5,02,,,,,,,,,,,5,1.182,1,,,,,,-0.349999993,-0.40370369,1,0,0,1.1819,Obsidian_rect,5,0,5,0,1,
63e5a6690eeedc20da056717,SCN,2024-06-20_13h38.16.704,LearnStrategy,2023.2.3,Win32,59.88023952,1,2,7,,,,,,,,4,05,,,,,,,,,,,4,4.891,1,,,,,,0.357407464,-0.244444459,1,0,0,4.8907,Gabbro_rect,6,0,6,0,1,
63e5a6690eeedc20da056717,SCN,2024-06-20_13h38.16.704,LearnStrategy,2023.2.3,Win32,59.88023952,1,2,8,,,,,,,,1,14,,,,,,,,,,,1,2.704,1,,,,,,-0.310185185,-0.266666695,1,0,0,2.7042,Andesite_rect,7,0,7,0,1,
63e5a6690eeedc20da056717,SCN,2024-06-20_13h38.16.704,LearnStrategy,2023.2.3,Win32,59.88023952,1,2,9,,,,,,,,6,13,,,,,,,,,,,1,3.038,0,,,,,,-0.320370356,-0.238888917,1,0,0,3.038,Andesite_rect,8,0,8,0,1,
63e5a6690eeedc20da056717,SCN,2024-06-20_13h38.16.704,LearnStrategy,2023.2.3,Win32,59.88023952,1,2,10,,,,,,,,6,03,,,,,,,,,,,6,1.768,1,,,,,,-0.124074088,-0.404629672,1,0,0,1.7683,Pegmatite_rect,9,0,9,0,1,
63e5a6690eeedc20da056717,SCN,2024-06-20_13h38.16.704,LearnStrategy,2023.2.3,Win32,59.88023952,1,2,11,,,,,,,,2,02,,,,,,,,,,,2,1.844,1,,,,,,-0.164814772,-0.268518519,1,0,0,1.8443,Basalt_rect,10,0,10,0,1,
63e5a6690eeedc20da056717,SCN,2024-06-20_13h38.16.704,LearnStrategy,2023.2.3,Win32,59.88023952,1,2,12,,,,,,,,1,07,,,,,,,,,,,3,7.104,0,,,,,,0.086111139,-0.25462963,1,0,0,7.1037,Diorite_rect,11,0,11,0,1,
63e5a6690eeedc20da056717,SCN,2024-06-20_13h38.16.704,LearnStrategy,2023.2.3,Win32,59.88023952,1,2,13,,,,,,,,8,13,,,,,,,,,,,8,1.464,1,,,,,,0.337962963,-0.381481524,1,0,0,1.4645,Pumice_rect,12,0,12,0,1,
63e5a6690eeedc20da056717,SCN,2024-06-20_13h38.16.704,LearnStrategy,2023.2.3,Win32,59.88023952,1,2,14,,,,,,,,3,11,,,,,,,,,,,3,7.005,1,,,,,,0.137962977,-0.244444459,1,0,0,7.0047,Diorite_rect,13,0,13,0,1,
63e5a6690eeedc20da056717,SCN,2024-06-20_13h38.16.704,LearnStrategy,2023.2.3,Win32,59.88023952,1,2,15,,,,,,,,2,11,,,,,,,,,,,2,4.221,1,,,,,,-0.136111083,-0.256481524,1,0,0,4.2211,Basalt_rect,14,0,14,0,1,
63e5a6690eeedc20da056717,SCN,2024-06-20_13h38.16.704,LearnStrategy,2023.2.3,Win32,59.88023952,1,2,16,,,,,,,,7,08,,,,,,,,,,,7,2.072,1,,,,,,0.087037051,-0.387037065,1,0,0,2.0716,Peridotite_rect,15,0,15,0,1,
63e5a6690eeedc20da056717,SCN,2024-06-20_13h38.16.704,LearnStrategy,2023.2.3,Win32,59.88023952,2,1,1,0.086111139,0.430555556,1,0,0,4.813,Pegmatite_07,6,07,6,5,4.813,-0.121296282,-0.400925954,1,0,0,3.5062,Pegmatite_rect,6,3.506,1,0,0,0,0,1,,,,,,,,,,,,,
63e5a6690eeedc20da056717,SCN,2024-06-20_13h38.16.704,LearnStrategy,2023.2.3,Win32,59.88023952,2,1,2,-0.537962949,-0.119444459,1,0,0,5.3479,Andesite_04,1,04,3,1,5.348,0.384259259,-0.251851894,1,0,0,2.673,Gabbro_rect,4,2.673,0,1,0,1,0,1,,,,,,,,,,,,,
63e5a6690eeedc20da056717,SCN,2024-06-20_13h38.16.704,LearnStrategy,2023.2.3,Win32,59.88023952,2,1,3,-0.537962949,-0.249074088,1,0,0,3.9789,Andesite_05,1,05,2,1,3.979,-0.349999993,-0.26944443,1,0,0,2.5129,Andesite_rect,1,2.513,1,2,0,2,0,1,,,,,,,,,,,,,
63e5a6690eeedc20da056717,SCN,2024-06-20_13h38.16.704,LearnStrategy,2023.2.3,Win32,59.88023952,2,1,4,-0.527777778,-0.426851838,1,0,0,1.7302,Gabbro_15,4,15,1,1,1.73,0.344444416,-0.24537037,1,0,0,3.058,Gabbro_rect,4,3.058,1,3,0,3,0,1,,,,,,,,,,,,,
63e5a6690eeedc20da056717,SCN,2024-06-20_13h38.16.704,LearnStrategy,2023.2.3,Win32,59.88023952,2,1,5,-0.203703704,0.098148134,1,0,0,7.8978,Diorite_02,3,02,4,3,7.898,0.107407393,-0.386111153,1,0,0,2.1561,Peridotite_rect,7,2.156,0,4,0,4,0,1,,,,,,,,,,,,,
63e5a6690eeedc20da056717,SCN,2024-06-20_13h38.16.704,LearnStrategy,2023.2.3,Win32,59.88023952,2,1,6,-0.251851824,-0.395370413,1,0,0,2.0475,Diorite_07,3,07,1,3,2.048,0.117592635,-0.247222265,1,0,0,4.1236,Diorite_rect,3,4.124,1,5,0,5,0,1,,,,,,,,,,,,,
63e5a6690eeedc20da056717,SCN,2024-06-20_13h38.16.704,LearnStrategy,2023.2.3,Win32,59.88023952,2,1,7,-0.063888903,-0.421296296,1,0,0,4.2307,Andesite_16,1,16,1,4,4.231,0.125,-0.243518547,1,0,0,4.5058,Diorite_rect,3,4.506,0,6,0,6,0,1,,,,,,,,,,,,,
63e5a6690eeedc20da056717,SCN,2024-06-20_13h38.16.704,LearnStrategy,2023.2.3,Win32,59.88023952,2,1,8,0.069444444,-0.079629651,1,0,0,6.0636,Gabbro_11,4,11,3,5,6.064,0.436111168,-0.237963005,1,0,0,4.1242,Gabbro_rect,4,4.124,1,7,0,7,0,1,,,,,,,,,,,,,
63e5a6690eeedc20da056717,SCN,2024-06-20_13h38.16.704,LearnStrategy,2023.2.3,Win32,59.88023952,2,1,9,0.074074074,-0.387037065,1,0,0,1.7474,Basalt_16,2,16,1,5,1.747,0.352777834,-0.23055557,1,0,0,2.4564,Gabbro_rect,4,2.456,0,8,0,8,0,1,,,,,,,,,,,,,
63e5a6690eeedc20da056717,SCN,2024-06-20_13h38.16.704,LearnStrategy,2023.2.3,Win32,59.88023952,2,1,10,0.237963005,-0.421296296,1,0,0,1.6798,Pegmatite_05,6,05,1,6,1.68,-0.143518519,-0.409259302,1,0,0,2.0405,Pegmatite_rect,6,2.04,1,9,0,9,0,1,,,,,,,,,,,,,
63e5a6690eeedc20da056717,SCN,2024-06-20_13h38.16.704,LearnStrategy,2023.2.3,Win32,59.88023952,2,1,11,0.247222265,-0.236111111,1,0,0,1.3982,Andesite_03,1,03,2,6,1.398,-0.381481489,-0.235185199,1,0,0,1.7073,Andesite_rect,1,1.707,1,10,0,10,0,1,,,,,,,,,,,,,
63e5a6690eeedc20da056717,SCN,2024-06-20_13h38.16.704,LearnStrategy,2023.2.3,Win32,59.88023952,2,1,12,0.262037065,-0.107407393,1,0,0,2.715,Peridotite_06,7,06,3,6,2.715,0.175925926,-0.387037065,1,0,0,2.9912,Peridotite_rect,7,2.991,1,11,0,11,0,1,,,,,,,,,,,,,
63e5a6690eeedc20da056717,SCN,2024-06-20_13h38.16.704,LearnStrategy,2023.2.3,Win32,59.88023952,2,1,13,0.249074088,0.238888882,1,0,0,3.1639,Gabbro_09,4,09,5,6,3.164,0.139814801,-0.260185171,1,0,0,12.7213,Diorite_rect,3,12.721,0,12,0,12,0,1,,,,,,,,,,,,,
63e5a6690eeedc20da056717,SCN,2024-06-20_13h38.16.704,LearnStrategy,2023.2.3,Win32,59.88023952,2,1,14,0.25,0.407407407,1,0,0,2.6466,Peridotite_05,7,05,6,6,2.647,0.185185185,-0.264814801,1,0,0,4.8402,Diorite_rect,3,4.84,0,13,0,13,0,1,,,,,,,,,,,,,
63e5a6690eeedc20da056717,SCN,2024-06-20_13h38.16.704,LearnStrategy,2023.2.3,Win32,59.88023952,2,1,15,0.560185185,-0.217592593,1,0,0,11.279,Diorite_14,3,14,2,8,11.279,0.125,-0.390740783,1,0,0,9.0729,Peridotite_rect,7,9.073,0,14,0,14,0,1,,,,,,,,,,,,,
63e5a6690eeedc20da056717,SCN,2024-06-20_13h38.16.704,LearnStrategy,2023.2.3,Win32,59.88023952,2,1,16,0.503703788,0.074999986,1,0,0,2.3306,Peridotite_13,7,13,4,8,2.331,0.155555584,-0.266666695,1,0,0,2.9901,Diorite_rect,3,2.99,0,15,0,15,0,1,,,,,,,,,,,,,
63e5a6690eeedc20da056717,SCN,2024-06-20_13h38.16.704,LearnStrategy,2023.2.3,Win32,59.88023952,2,2,1,,,,,,,,6,11,,,,,,,,,,,6,1.931,1,,,,,,-0.174074032,-0.386111153,1,0,0,1.9309,Pegmatite_rect,0,0,0,0,1,
63e5a6690eeedc20da056717,SCN,2024-06-20_13h38.16.704,LearnStrategy,2023.2.3,Win32,59.88023952,2,2,2,,,,,,,,8,02,,,,,,,,,,,8,2.406,1,,,,,,0.396296325,-0.39907406,1,0,0,2.4058,Pumice_rect,1,0,1,0,1,
63e5a6690eeedc20da056717,SCN,2024-06-20_13h38.16.704,LearnStrategy,2023.2.3,Win32,59.88023952,2,2,3,,,,,,,,6,09,,,,,,,,,,,6,2.34,1,,,,,,-0.118518476,-0.419444473,1,0,0,2.3396,Pegmatite_rect,2,0,2,0,1,
63e5a6690eeedc20da056717,SCN,2024-06-20_13h38.16.704,LearnStrategy,2023.2.3,Win32,59.88023952,2,2,4,,,,,,,,4,13,,,,,,,,,,,4,4.059,1,,,,,,0.376851824,-0.233333376,1,0,0,4.0589,Gabbro_rect,3,0,3,0,1,
63e5a6690eeedc20da056717,SCN,2024-06-20_13h38.16.704,LearnStrategy,2023.2.3,Win32,59.88023952,2,2,5,,,,,,,,4,08,,,,,,,,,,,7,9.806,0,,,,,,0.114814829,-0.39907406,1,0,0,9.8058,Peridotite_rect,4,0,4,0,1,
63e5a6690eeedc20da056717,SCN,2024-06-20_13h38.16.704,LearnStrategy,2023.2.3,Win32,59.88023952,2,2,6,,,,,,,,7,12,,,,,,,,,,,3,5.226,0,,,,,,0.114814829,-0.237037023,1,0,0,5.2256,Diorite_rect,5,0,5,0,1,
63e5a6690eeedc20da056717,SCN,2024-06-20_13h38.16.704,LearnStrategy,2023.2.3,Win32,59.88023952,2,2,7,,,,,,,,3,08,,,,,,,,,,,3,4.1,1,,,,,,0.122222265,-0.247222265,1,0,0,4.0998,Diorite_rect,6,0,6,0,1,
63e5a6690eeedc20da056717,SCN,2024-06-20_13h38.16.704,LearnStrategy,2023.2.3,Win32,59.88023952,2,2,8,,,,,,,,2,06,,,,,,,,,,,2,2.097,1,,,,,,-0.125925912,-0.241666653,1,0,0,2.0972,Basalt_rect,7,0,7,0,1,
63e5a6690eeedc20da056717,SCN,2024-06-20_13h38.16.704,LearnStrategy,2023.2.3,Win32,59.88023952,2,2,9,,,,,,,,5,09,,,,,,,,,,,5,1.38,1,,,,,,-0.368518511,-0.384259259,1,0,0,1.3805,Obsidian_rect,8,0,8,0,1,
63e5a6690eeedc20da056717,SCN,2024-06-20_13h38.16.704,LearnStrategy,2023.2.3,Win32,59.88023952,2,2,10,,,,,,,,5,05,,,,,,,,,,,5,2.154,1,,,,,,-0.343518504,-0.404629672,1,0,0,2.1541,Obsidian_rect,9,0,9,0,1,
63e5a6690eeedc20da056717,SCN,2024-06-20_13h38.16.704,LearnStrategy,2023.2.3,Win32,59.88023952,2,2,11,,,,,,,,8,09,,,,,,,,,,,8,1.608,1,,,,,,0.366666723,-0.390740783,1,0,0,1.608,Pumice_rect,10,0,10,0,1,
63e5a6690eeedc20da056717,SCN,2024-06-20_13h38.16.704,LearnStrategy,2023.2.3,Win32,59.88023952,2,2,12,,,,,,,,3,09,,,,,,,,,,,1,5.021,0,,,,,,-0.3675926,-0.238888917,1,0,0,5.0213,Andesite_rect,11,0,11,0,1,
63e5a6690eeedc20da056717,SCN,2024-06-20_13h38.16.704,LearnStrategy,2023.2.3,Win32,59.88023952,2,2,13,,,,,,,,2,12,,,,,,,,,,,8,5.943,0,,,,,,0.377777806,-0.400000042,1,0,0,5.9432,Pumice_rect,12,0,12,0,1,
63e5a6690eeedc20da056717,SCN,2024-06-20_13h38.16.704,LearnStrategy,2023.2.3,Win32,59.88023952,2,2,14,,,,,,,,7,07,,,,,,,,,,,7,5.405,1,,,,,,0.107407393,-0.397222236,1,0,0,5.4049,Peridotite_rect,13,0,13,0,1,
63e5a6690eeedc20da056717,SCN,2024-06-20_13h38.16.704,LearnStrategy,2023.2.3,Win32,59.88023952,2,2,15,,,,,,,,1,01,,,,,,,,,,,1,3.955,1,,,,,,-0.386111118,-0.246296282,1,0,0,3.9547,Andesite_rect,14,0,14,0,1,
63e5a6690eeedc20da056717,SCN,2024-06-20_13h38.16.704,LearnStrategy,2023.2.3,Win32,59.88023952,2,2,16,,,,,,,,1,10,,,,,,,,,,,4,8.24,0,,,,,,0.399074131,-0.265740783,1,0,0,8.2398,Gabbro_rect,15,0,15,0,1,
63e5a6690eeedc20da056717,SCN,2024-06-20_13h38.16.704,LearnStrategy,2023.2.3,Win32,59.88023952,3,1,1,0.542592649,0.428703701,1,0,0,6.597,Gabbro_10,4,10,6,8,6.597,0.142592607,-0.263888889,1,0,0,3.4546,Diorite_rect,3,3.455,0,0,0,0,0,1,,,,,,,,,,,,,
63e5a6690eeedc20da056717,SCN,2024-06-20_13h38.16.704,LearnStrategy,2023.2.3,Win32,59.88023952,3,1,2,0.446296268,0.397222219,1,0,0,2.614,Peridotite_15,7,15,6,7,2.614,0.175000014,-0.387037065,1,0,0,2.0381,Peridotite_rect,7,2.038,1,1,0,1,0,1,,,,,,,,,,,,,
63e5a6690eeedc20da056717,SCN,2024-06-20_13h38.16.704,LearnStrategy,2023.2.3,Win32,59.88023952,3,1,3,0.248148176,0.435185185,1,0,0,1.1627,Peridotite_05,7,05,6,6,1.163,0.12962963,-0.237037023,1,0,0,5.4916,Diorite_rect,3,5.492,0,2,0,2,0,1,,,,,,,,,,,,,
63e5a6690eeedc20da056717,SCN,2024-06-20_13h38.16.704,LearnStrategy,2023.2.3,Win32,59.88023952,3,1,4,-0.218518504,0.410185187,1,0,0,2.8477,Gabbro_16,4,16,6,3,2.848,0.351851852,-0.248148176,1,0,0,2.2561,Gabbro_rect,4,2.256,1,3,0,3,0,1,,,,,,,,,,,,,
63e5a6690eeedc20da056717,SCN,2024-06-20_13h38.16.704,LearnStrategy,2023.2.3,Win32,59.88023952,3,1,5,-0.099074046,0.250925929,1,0,0,3.9469,Diorite_10,3,10,5,4,3.947,0.180555556,-0.257407436,1,0,0,3.5396,Diorite_rect,3,3.54,1,4,0,4,0,1,,,,,,,,,,,,,
63e5a6690eeedc20da056717,SCN,2024-06-20_13h38.16.704,LearnStrategy,2023.2.3,Win32,59.88023952,3,1,6,-0.050925926,0.111111111,1,0,0,2.2616,Diorite_16,3,16,4,4,2.262,0.141666695,-0.241666653,1,0,0,2.0571,Diorite_rect,3,2.057,1,5,0,5,0,1,,,,,,,,,,,,,
63e5a6690eeedc20da056717,SCN,2024-06-20_13h38.16.704,LearnStrategy,2023.2.3,Win32,59.88023952,3,1,7,0.24537037,0.240740741,1,0,0,2.9627,Gabbro_09,4,09,5,6,2.963,0.098148134,-0.257407436,1,0,0,12.2928,Diorite_rect,3,12.293,0,6,0,6,0,1,,,,,,,,,,,,,
63e5a6690eeedc20da056717,SCN,2024-06-20_13h38.16.704,LearnStrategy,2023.2.3,Win32,59.88023952,3,1,8,-0.213888875,0.102777764,1,0,0,3.1648,Diorite_02,3,02,4,3,3.165,0.118518547,-0.238888917,1,0,0,4.6241,Diorite_rect,3,4.624,1,7,0,7,0,1,,,,,,,,,,,,,
63e5a6690eeedc20da056717,SCN,2024-06-20_13h38.16.704,LearnStrategy,2023.2.3,Win32,59.88023952,3,1,9,0.558333362,-0.241666653,1,0,0,4.0148,Diorite_14,3,14,2,8,4.015,0.164814843,-0.248148176,1,0,0,1.5417,Diorite_rect,3,1.542,1,8,0,8,0,1,,,,,,,,,,,,,
63e5a6690eeedc20da056717,SCN,2024-06-20_13h38.16.704,LearnStrategy,2023.2.3,Win32,59.88023952,3,1,10,0.36018527,-0.400000042,1,0,0,1.7632,Diorite_06,3,06,1,7,1.763,0.121296282,-0.238888917,1,0,0,2.5577,Diorite_rect,3,2.558,1,9,0,9,0,1,,,,,,,,,,,,,
63e5a6690eeedc20da056717,SCN,2024-06-20_13h38.16.704,LearnStrategy,2023.2.3,Win32,59.88023952,3,1,11,-0.549999979,-0.252777806,1,0,0,2.0472,Andesite_05,1,05,2,1,2.047,-0.364814794,-0.247222265,1,0,0,5.7893,Andesite_rect,1,5.789,1,10,0,10,0,1,,,,,,,,,,,,,
63e5a6690eeedc20da056717,SCN,2024-06-20_13h38.16.704,LearnStrategy,2023.2.3,Win32,59.88023952,3,1,12,-0.087037051,0.242592582,1,0,0,4.9463,Diorite_10,3,10,5,4,4.946,0.191666709,-0.240740741,1,0,0,2.7422,Diorite_rect,3,2.742,1,11,0,11,0,1,,,,,,,,,,,,,
63e5a6690eeedc20da056717,SCN,2024-06-20_13h38.16.704,LearnStrategy,2023.2.3,Win32,59.88023952,3,1,13,0.229629658,-0.253703718,1,0,0,1.9145,Andesite_03,1,03,2,6,1.914,-0.362037023,-0.258333347,1,0,0,3.4407,Andesite_rect,1,3.441,1,12,0,12,0,1,,,,,,,,,,,,,
63e5a6690eeedc20da056717,SCN,2024-06-20_13h38.16.704,LearnStrategy,2023.2.3,Win32,59.88023952,3,1,14,0.219444487,-0.080555563,1,0,0,2.1637,Peridotite_06,7,06,3,6,2.164,0.163888931,-0.396296325,1,0,0,2.7559,Peridotite_rect,7,2.756,1,13,0,13,0,1,,,,,,,,,,,,,
63e5a6690eeedc20da056717,SCN,2024-06-20_13h38.16.704,LearnStrategy,2023.2.3,Win32,59.88023952,3,1,15,-0.108333305,-0.414814843,1,0,0,8.9805,Andesite_16,1,16,1,4,8.981,0.118518547,-0.236111111,1,0,0,8.2907,Diorite_rect,3,8.291,0,14,0,14,0,1,,,,,,,,,,,,,
63e5a6690eeedc20da056717,SCN,2024-06-20_13h38.16.704,LearnStrategy,2023.2.3,Win32,59.88023952,3,1,16,-0.082407422,0.084259245,1,0,0,5.663,Diorite_16,3,16,4,4,5.663,-0.400925919,-0.257407436,1,0,0,2.8399,Andesite_rect,1,2.84,0,15,0,15,0,1,,,,,,,,,,,,,
63e5a6690eeedc20da056717,SCN,2024-06-20_13h38.16.704,LearnStrategy,2023.2.3,Win32,59.88023952,3,2,1,,,,,,,,5,07,,,,,,,,,,,5,1.362,1,,,,,,-0.346296275,-0.416666667,1,0,0,1.3618,Obsidian_rect,0,0,0,0,1,
63e5a6690eeedc20da056717,SCN,2024-06-20_13h38.16.704,LearnStrategy,2023.2.3,Win32,59.88023952,3,2,2,,,,,,,,8,10,,,,,,,,,,,8,1.532,1,,,,,,0.327777863,-0.400000042,1,0,0,1.5318,Pumice_rect,1,0,1,0,1,
63e5a6690eeedc20da056717,SCN,2024-06-20_13h38.16.704,LearnStrategy,2023.2.3,Win32,59.88023952,3,2,3,,,,,,,,4,14,,,,,,,,,,,4,2.184,1,,,,,,0.353703675,-0.241666653,1,0,0,2.184,Gabbro_rect,2,0,2,0,1,
63e5a6690eeedc20da056717,SCN,2024-06-20_13h38.16.704,LearnStrategy,2023.2.3,Win32,59.88023952,3,2,4,,,,,,,,8,15,,,,,,,,,,,8,1.955,1,,,,,,0.375925982,-0.387962977,1,0,0,1.9545,Pumice_rect,3,0,3,0,1,
63e5a6690eeedc20da056717,SCN,2024-06-20_13h38.16.704,LearnStrategy,2023.2.3,Win32,59.88023952,3,2,5,,,,,,,,1,02,,,,,,,,,,,1,4.518,1,,,,,,-0.360185164,-0.249074088,1,0,0,4.5179,Andesite_rect,4,0,4,0,1,
63e5a6690eeedc20da056717,SCN,2024-06-20_13h38.16.704,LearnStrategy,2023.2.3,Win32,59.88023952,3,2,6,,,,,,,,7,04,,,,,,,,,,,7,1.62,1,,,,,,0.126851894,-0.391666695,1,0,0,1.6201,Peridotite_rect,5,0,5,0,1,
63e5a6690eeedc20da056717,SCN,2024-06-20_13h38.16.704,LearnStrategy,2023.2.3,Win32,59.88023952,3,2,7,,,,,,,,6,08,,,,,,,,,,,6,1.26,1,,,,,,-0.103703675,-0.40370369,1,0,0,1.2604,Pegmatite_rect,6,0,6,0,1,
63e5a6690eeedc20da056717,SCN,2024-06-20_13h38.16.704,LearnStrategy,2023.2.3,Win32,59.88023952,3,2,8,,,,,,,,4,01,,,,,,,,,,,7,12.004,0,,,,,,0.183333362,-0.40370369,1,0,0,12.004,Peridotite_rect,7,0,7,0,1,
63e5a6690eeedc20da056717,SCN,2024-06-20_13h38.16.704,LearnStrategy,2023.2.3,Win32,59.88023952,3,2,9,,,,,,,,6,06,,,,,,,,,,,7,6.857,0,,,,,,0.15370369,-0.392592607,1,0,0,6.8569,Peridotite_rect,8,0,8,0,1,
63e5a6690eeedc20da056717,SCN,2024-06-20_13h38.16.704,LearnStrategy,2023.2.3,Win32,59.88023952,3,2,10,,,,,,,,2,14,,,,,,,,,,,8,3.14,0,,,,,,0.399074131,-0.39907406,1,0,0,3.1396,Pumice_rect,9,0,9,0,1,
63e5a6690eeedc20da056717,SCN,2024-06-20_13h38.16.704,LearnStrategy,2023.2.3,Win32,59.88023952,3,2,11,,,,,,,,2,04,,,,,,,,,,,2,1.155,1,,,,,,-0.124074088,-0.265740783,1,0,0,1.155,Basalt_rect,10,0,10,0,1,
63e5a6690eeedc20da056717,SCN,2024-06-20_13h38.16.704,LearnStrategy,2023.2.3,Win32,59.88023952,3,2,12,,,,,,,,3,13,,,,,,,,,,,1,12.706,0,,,,,,-0.377777771,-0.238888917,1,0,0,12.7056,Andesite_rect,11,0,11,0,1,
63e5a6690eeedc20da056717,SCN,2024-06-20_13h38.16.704,LearnStrategy,2023.2.3,Win32,59.88023952,3,2,13,,,,,,,,3,12,,,,,,,,,,,1,6.32,0,,,,,,-0.330555563,-0.243518547,1,0,0,6.3201,Andesite_rect,12,0,12,0,1,
63e5a6690eeedc20da056717,SCN,2024-06-20_13h38.16.704,LearnStrategy,2023.2.3,Win32,59.88023952,3,2,14,,,,,,,,7,10,,,,,,,,,,,7,3.623,1,,,,,,0.087962963,-0.393518519,1,0,0,3.6233,Peridotite_rect,13,0,13,0,1,
63e5a6690eeedc20da056717,SCN,2024-06-20_13h38.16.704,LearnStrategy,2023.2.3,Win32,59.88023952,3,2,15,,,,,,,,5,11,,,,,,,,,,,5,1.239,1,,,,,,-0.351851852,-0.414814843,1,0,0,1.239,Obsidian_rect,14,0,14,0,1,
63e5a6690eeedc20da056717,SCN,2024-06-20_13h38.16.704,LearnStrategy,2023.2.3,Win32,59.88023952,3,2,16,,,,,,,,1,06,,,,,,,,,,,1,3.622,1,,,,,,-0.482407393,-0.253703718,1,0,0,3.6221,Andesite_rect,15,0,15,0,1,
63e5a6690eeedc20da056717,SCN,2024-06-20_13h38.16.704,LearnStrategy,2023.2.3,Win32,59.88023952,4,1,1,0.512037065,-0.416666667,1,0,0,8.1639,Andesite_09,1,09,1,8,8.164,-0.356481481,-0.233333376,1,0,0,4.6549,Andesite_rect,1,4.655,1,0,0,0,0,1,,,,,,,,,,,,,
63e5a6690eeedc20da056717,SCN,2024-06-20_13h38.16.704,LearnStrategy,2023.2.3,Win32,59.88023952,4,1,2,0.373148176,-0.42777782,1,0,0,1.4977,Diorite_06,3,06,1,7,1.498,0.12962963,-0.234259288,1,0,0,2.006,Diorite_rect,3,2.006,1,1,0,1,0,1,,,,,,,,,,,,,
63e5a6690eeedc20da056717,SCN,2024-06-20_13h38.16.704,LearnStrategy,2023.2.3,Win32,59.88023952,4,1,3,0.248148176,-0.457407422,1,0,0,1.0802,Pegmatite_05,6,05,1,6,1.08,-0.125,-0.389814801,1,0,0,1.9912,Pegmatite_rect,6,1.991,1,2,0,2,0,1,,,,,,,,,,,,,
63e5a6690eeedc20da056717,SCN,2024-06-20_13h38.16.704,LearnStrategy,2023.2.3,Win32,59.88023952,4,1,4,0.064814815,-0.414814843,1,0,0,2.3802,Basalt_16,2,16,1,5,2.38,0.397222307,-0.251851894,1,0,0,1.6746,Gabbro_rect,4,1.675,0,3,0,3,0,1,,,,,,,,,,,,,
63e5a6690eeedc20da056717,SCN,2024-06-20_13h38.16.704,LearnStrategy,2023.2.3,Win32,59.88023952,4,1,5,-0.103703675,-0.415740755,1,0,0,1.2157,Andesite_16,1,16,1,4,1.216,0.095370399,-0.242592635,1,0,0,1.9077,Diorite_rect,3,1.908,0,4,0,4,0,1,,,,,,,,,,,,,
63e5a6690eeedc20da056717,SCN,2024-06-20_13h38.16.704,LearnStrategy,2023.2.3,Win32,59.88023952,4,1,6,-0.227777764,-0.381481524,1,0,0,1.3485,Diorite_07,3,07,1,3,1.349,0.14444443,-0.23055557,1,0,0,2.0886,Diorite_rect,3,2.089,1,5,0,5,0,1,,,,,,,,,,,,,
63e5a6690eeedc20da056717,SCN,2024-06-20_13h38.16.704,LearnStrategy,2023.2.3,Win32,59.88023952,4,1,7,-0.554629608,-0.407407407,1,0,0,1.898,Gabbro_15,4,15,1,1,1.898,0.366666723,-0.231481481,1,0,0,2.2052,Gabbro_rect,4,2.205,1,6,0,6,0,1,,,,,,,,,,,,,
63e5a6690eeedc20da056717,SCN,2024-06-20_13h38.16.704,LearnStrategy,2023.2.3,Win32,59.88023952,4,1,8,0.57222225,-0.235185199,1,0,0,1.2978,Diorite_14,3,14,2,8,1.298,0.107407393,-0.243518547,1,0,0,2.1387,Diorite_rect,3,2.139,1,7,0,7,0,1,,,,,,,,,,,,,
63e5a6690eeedc20da056717,SCN,2024-06-20_13h38.16.704,LearnStrategy,2023.2.3,Win32,59.88023952,4,1,9,0.37962963,-0.255555541,1,0,0,1.0483,Andesite_11,1,11,2,7,1.048,-0.332407386,-0.25,1,0,0,1.6053,Andesite_rect,1,1.605,1,8,0,8,0,1,,,,,,,,,,,,,
63e5a6690eeedc20da056717,SCN,2024-06-20_13h38.16.704,LearnStrategy,2023.2.3,Win32,59.88023952,4,1,10,0.208333333,-0.256481524,1,0,0,1.3825,Andesite_03,1,03,2,6,1.382,-0.37037037,-0.235185199,1,0,0,2.0403,Andesite_rect,1,2.04,1,9,0,9,0,1,,,,,,,,,,,,,
63e5a6690eeedc20da056717,SCN,2024-06-20_13h38.16.704,LearnStrategy,2023.2.3,Win32,59.88023952,4,1,11,-0.530555548,-0.248148176,1,0,0,2.8468,Andesite_05,1,05,2,1,2.847,0.130555541,-0.236111111,1,0,0,2.108,Diorite_rect,3,2.108,0,10,0,10,0,1,,,,,,,,,,,,,
63e5a6690eeedc20da056717,SCN,2024-06-20_13h38.16.704,LearnStrategy,2023.2.3,Win32,59.88023952,4,1,12,-0.557407414,-0.070370392,1,0,0,1.2462,Andesite_04,1,04,3,1,1.246,-0.446296303,-0.233333376,1,0,0,1.4254,Andesite_rect,1,1.425,1,11,0,11,0,1,,,,,,,,,,,,,
63e5a6690eeedc20da056717,SCN,2024-06-20_13h38.16.704,LearnStrategy,2023.2.3,Win32,59.88023952,4,1,13,0.092592593,-0.091666681,1,0,0,1.9483,Gabbro_11,4,11,3,5,1.948,0.386111083,-0.249074088,1,0,0,3.7228,Gabbro_rect,4,3.723,1,12,0,12,0,1,,,,,,,,,,,,,
63e5a6690eeedc20da056717,SCN,2024-06-20_13h38.16.704,LearnStrategy,2023.2.3,Win32,59.88023952,4,1,14,0.406481566,-0.107407393,1,0,0,2.7639,Basalt_09,2,09,3,7,2.764,-0.135185171,-0.244444459,1,0,0,1.724,Basalt_rect,2,1.724,1,13,0,13,0,1,,,,,,,,,,,,,
63e5a6690eeedc20da056717,SCN,2024-06-20_13h38.16.704,LearnStrategy,2023.2.3,Win32,59.88023952,4,1,15,0.538888861,0.082407386,1,0,0,2.3471,Peridotite_13,7,13,4,8,2.347,0.142592607,-0.412962949,1,0,0,1.1016,Peridotite_rect,7,1.102,1,14,0,14,0,1,,,,,,,,,,,,,
63e5a6690eeedc20da056717,SCN,2024-06-20_13h38.16.704,LearnStrategy,2023.2.3,Win32,59.88023952,4,1,16,0.411111196,0.064814815,1,0,0,2.5877,Peridotite_14,7,14,4,7,2.588,0.092592593,-0.235185199,1,0,0,4.7278,Diorite_rect,3,4.728,0,15,0,15,0,1,,,,,,,,,,,,,
63e5a6690eeedc20da056717,SCN,2024-06-20_13h38.16.704,LearnStrategy,2023.2.3,Win32,59.88023952,4,2,1,,,,,,,,5,02,,,,,,,,,,,5,1.23,1,,,,,,-0.35833334,-0.400000042,1,0,0,1.23,Obsidian_rect,0,0,0,0,1,
63e5a6690eeedc20da056717,SCN,2024-06-20_13h38.16.704,LearnStrategy,2023.2.3,Win32,59.88023952,4,2,2,,,,,,,,1,14,,,,,,,,,,,1,6.153,1,,,,,,-0.392592571,-0.240740741,1,0,0,6.1532,Andesite_rect,1,0,1,0,1,
63e5a6690eeedc20da056717,SCN,2024-06-20_13h38.16.704,LearnStrategy,2023.2.3,Win32,59.88023952,4,2,3,,,,,,,,7,07,,,,,,,,,,,1,4.655,0,,,,,,-0.37037037,-0.25462963,1,0,0,4.6553,Andesite_rect,2,0,2,0,1,
63e5a6690eeedc20da056717,SCN,2024-06-20_13h38.16.704,LearnStrategy,2023.2.3,Win32,59.88023952,4,2,4,,,,,,,,7,16,,,,,,,,,,,7,1.841,1,,,,,,0.114814829,-0.396296325,1,0,0,1.8415,Peridotite_rect,3,0,3,0,1,
63e5a6690eeedc20da056717,SCN,2024-06-20_13h38.16.704,LearnStrategy,2023.2.3,Win32,59.88023952,4,2,5,,,,,,,,4,08,,,,,,,,,,,4,4.805,1,,,,,,0.388888889,-0.25,1,0,0,4.8047,Gabbro_rect,4,0,4,0,1,
63e5a6690eeedc20da056717,SCN,2024-06-20_13h38.16.704,LearnStrategy,2023.2.3,Win32,59.88023952,4,2,6,,,,,,,,5,11,,,,,,,,,,,5,1.522,1,,,,,,-0.375,-0.40370369,1,0,0,1.5219,Obsidian_rect,5,0,5,0,1,
63e5a6690eeedc20da056717,SCN,2024-06-20_13h38.16.704,LearnStrategy,2023.2.3,Win32,59.88023952,4,2,7,,,,,,,,2,14,,,,,,,,,,,2,3.698,1,,,,,,-0.102777764,-0.262037065,1,0,0,3.6981,Basalt_rect,6,0,6,0,1,
63e5a6690eeedc20da056717,SCN,2024-06-20_13h38.16.704,LearnStrategy,2023.2.3,Win32,59.88023952,4,2,8,,,,,,,,1,02,,,,,,,,,,,1,2.472,1,,,,,,-0.388888889,-0.247222265,1,0,0,2.4716,Andesite_rect,7,0,7,0,1,
63e5a6690eeedc20da056717,SCN,2024-06-20_13h38.16.704,LearnStrategy,2023.2.3,Win32,59.88023952,4,2,9,,,,,,,,2,04,,,,,,,,,,,2,1.225,1,,,,,,-0.110185199,-0.266666695,1,0,0,1.2254,Basalt_rect,8,0,8,0,1,
63e5a6690eeedc20da056717,SCN,2024-06-20_13h38.16.704,LearnStrategy,2023.2.3,Win32,59.88023952,4,2,10,,,,,,,,8,05,,,,,,,,,,,8,1.438,1,,,,,,0.351851852,-0.389814801,1,0,0,1.4384,Pumice_rect,9,0,9,0,1,
63e5a6690eeedc20da056717,SCN,2024-06-20_13h38.16.704,LearnStrategy,2023.2.3,Win32,59.88023952,4,2,11,,,,,,,,8,02,,,,,,,,,,,8,1.242,1,,,,,,0.341666751,-0.387037065,1,0,0,1.2424,Pumice_rect,10,0,10,0,1,
63e5a6690eeedc20da056717,SCN,2024-06-20_13h38.16.704,LearnStrategy,2023.2.3,Win32,59.88023952,4,2,12,,,,,,,,4,05,,,,,,,,,,,4,2.957,1,,,,,,0.372222194,-0.246296282,1,0,0,2.9572,Gabbro_rect,11,0,11,0,1,
63e5a6690eeedc20da056717,SCN,2024-06-20_13h38.16.704,LearnStrategy,2023.2.3,Win32,59.88023952,4,2,13,,,,,,,,6,08,,,,,,,,,,,6,1.259,1,,,,,,-0.148148148,-0.397222236,1,0,0,1.2589,Pegmatite_rect,12,0,12,0,1,
63e5a6690eeedc20da056717,SCN,2024-06-20_13h38.16.704,LearnStrategy,2023.2.3,Win32,59.88023952,4,2,14,,,,,,,,6,13,,,,,,,,,,,6,1.138,1,,,,,,-0.148148148,-0.397222236,1,0,0,1.1384,Pegmatite_rect,13,0,13,0,1,
63e5a6690eeedc20da056717,SCN,2024-06-20_13h38.16.704,LearnStrategy,2023.2.3,Win32,59.88023952,4,2,15,,,,,,,,3,15,,,,,,,,,,,1,2.806,0,,,,,,-0.37962963,-0.247222265,1,0,0,2.8064,Andesite_rect,14,0,14,0,1,
63e5a6690eeedc20da056717,SCN,2024-06-20_13h38.16.704,LearnStrategy,2023.2.3,Win32,59.88023952,4,2,16,,,,,,,,3,13,,,,,,,,,,,3,4.341,1,,,,,,0.117592635,-0.240740741,1,0,0,4.3407,Diorite_rect,15,0,15,0,1,
63e5a6690eeedc20da056717,SCN,2024-06-20_13h38.16.704,LearnStrategy,2023.2.3,Win32,59.88023952,5,1,1,0.562962991,0.430555556,1,0,0,4.7949,Gabbro_10,4,10,6,8,4.795,0.35555564,-0.235185199,1,0,0,2.7731,Gabbro_rect,4,2.773,1,0,0,0,0,1,,,,,,,,,,,,,
63e5a6690eeedc20da056717,SCN,2024-06-20_13h38.16.704,LearnStrategy,2023.2.3,Win32,59.88023952,5,1,2,0.40370376,0.429629631,1,0,0,0.8814,Peridotite_15,7,15,6,7,0.881,0.134259259,-0.380555541,1,0,0,1.654,Peridotite_rect,7,1.654,1,1,0,1,0,1,,,,,,,,,,,,,
63e5a6690eeedc20da056717,SCN,2024-06-20_13h38.16.704,LearnStrategy,2023.2.3,Win32,59.88023952,5,1,3,0.212037051,0.367592591,1,0,0,1.0311,Peridotite_05,7,05,6,6,1.031,0.136111153,-0.246296282,1,0,0,4.127,Diorite_rect,3,4.127,0,2,0,2,0,1,,,,,,,,,,,,,
63e5a6690eeedc20da056717,SCN,2024-06-20_13h38.16.704,LearnStrategy,2023.2.3,Win32,59.88023952,5,1,4,0.107407393,0.395370369,1,0,0,1.298,Pegmatite_07,6,07,6,5,1.298,-0.114814829,-0.37962963,1,0,0,1.074,Pegmatite_rect,6,1.074,1,3,0,3,0,1,,,,,,,,,,,,,
63e5a6690eeedc20da056717,SCN,2024-06-20_13h38.16.704,LearnStrategy,2023.2.3,Win32,59.88023952,5,1,5,-0.075925898,0.2537037,1,0,0,6.1302,Diorite_10,3,10,5,4,6.13,-0.431481467,-0.264814801,1,0,0,3.3583,Andesite_rect,1,3.358,0,4,0,4,0,1,,,,,,,,,,,,,
63e5a6690eeedc20da056717,SCN,2024-06-20_13h38.16.704,LearnStrategy,2023.2.3,Win32,59.88023952,5,1,6,0.226851852,0.260185189,1,0,0,2.3634,Gabbro_09,4,09,5,6,2.363,0.425000085,-0.255555541,1,0,0,1.7829,Gabbro_rect,4,1.783,1,5,0,5,0,1,,,,,,,,,,,,,
63e5a6690eeedc20da056717,SCN,2024-06-20_13h38.16.704,LearnStrategy,2023.2.3,Win32,59.88023952,5,1,7,0.361111111,0.079629616,1,0,0,4.3531,Peridotite_14,7,14,4,7,4.353,0.145370413,-0.39907406,1,0,0,1.8779,Peridotite_rect,7,1.878,1,6,0,6,0,1,,,,,,,,,,,,,
63e5a6690eeedc20da056717,SCN,2024-06-20_13h38.16.704,LearnStrategy,2023.2.3,Win32,59.88023952,5,1,8,-0.078703704,0.093518504,1,0,0,1.7299,Diorite_16,3,16,4,4,1.73,-0.35833334,-0.251851894,1,0,0,1.5009,Andesite_rect,1,1.501,0,7,0,7,0,1,,,,,,,,,,,,,
63e5a6690eeedc20da056717,SCN,2024-06-20_13h38.16.704,LearnStrategy,2023.2.3,Win32,59.88023952,5,1,9,-0.226851852,0.099999993,1,0,0,1.282,Diorite_02,3,02,4,3,1.282,0.125925912,-0.26944443,1,0,0,2.8246,Diorite_rect,3,2.825,1,8,0,8,0,1,,,,,,,,,,,,,
63e5a6690eeedc20da056717,SCN,2024-06-20_13h38.16.704,LearnStrategy,2023.2.3,Win32,59.88023952,5,1,10,-0.518518519,0.100925905,1,0,0,1.763,Peridotite_02,7,02,4,1,1.763,0.115740741,-0.412962949,1,0,0,2.2583,Peridotite_rect,7,2.258,1,9,0,9,0,1,,,,,,,,,,,,,
63e5a6690eeedc20da056717,SCN,2024-06-20_13h38.16.704,LearnStrategy,2023.2.3,Win32,59.88023952,5,1,11,-0.549999979,-0.076851845,1,0,0,1.9471,Andesite_04,1,04,3,1,1.947,-0.428703697,-0.23055557,1,0,0,1.7487,Andesite_rect,1,1.749,1,10,0,10,0,1,,,,,,,,,,,,,
63e5a6690eeedc20da056717,SCN,2024-06-20_13h38.16.704,LearnStrategy,2023.2.3,Win32,59.88023952,5,1,12,0.561111168,-0.262037065,1,0,0,8.9218,Diorite_14,3,14,2,8,8.922,0.088888875,-0.258333347,1,0,0,2.7933,Diorite_rect,3,2.793,1,11,0,11,0,1,,,,,,,,,,,,,
63e5a6690eeedc20da056717,SCN,2024-06-20_13h38.16.704,LearnStrategy,2023.2.3,Win32,59.88023952,5,1,13,-0.529629637,-0.239814829,1,0,0,5.3633,Andesite_05,1,05,2,1,5.363,-0.420370349,-0.24537037,1,0,0,2.5211,Andesite_rect,1,2.521,1,12,0,12,0,1,,,,,,,,,,,,,
63e5a6690eeedc20da056717,SCN,2024-06-20_13h38.16.704,LearnStrategy,2023.2.3,Win32,59.88023952,5,1,14,-0.537962949,-0.390740783,1,0,0,2.8635,Gabbro_15,4,15,1,1,2.863,0.414814843,-0.231481481,1,0,0,3.0221,Gabbro_rect,4,3.022,1,13,0,13,0,1,,,,,,,,,,,,,
63e5a6690eeedc20da056717,SCN,2024-06-20_13h38.16.704,LearnStrategy,2023.2.3,Win32,59.88023952,5,1,15,-0.22592594,-0.405555584,1,0,0,1.7307,Diorite_07,3,07,1,3,1.731,0.12962963,-0.243518547,1,0,0,5.1975,Diorite_rect,3,5.197,1,14,0,14,0,1,,,,,,,,,,,,,
63e5a6690eeedc20da056717,SCN,2024-06-20_13h38.16.704,LearnStrategy,2023.2.3,Win32,59.88023952,5,1,16,-0.092592593,-0.440740727,1,0,0,2.2013,Andesite_16,1,16,1,4,2.201,0.132407436,-0.233333376,1,0,0,5.7672,Diorite_rect,3,5.767,0,15,0,15,0,1,,,,,,,,,,,,,
63e5a6690eeedc20da056717,SCN,2024-06-20_13h38.16.704,LearnStrategy,2023.2.3,Win32,59.88023952,5,2,1,,,,,,,,3,12,,,,,,,,,,,1,4.738,0,,,,,,-0.342592593,-0.258333347,1,0,0,4.7377,Andesite_rect,0,0,0,0,1,
63e5a6690eeedc20da056717,SCN,2024-06-20_13h38.16.704,LearnStrategy,2023.2.3,Win32,59.88023952,5,2,2,,,,,,,,4,13,,,,,,,,,,,4,2.307,1,,,,,,0.382407436,-0.24537037,1,0,0,2.3069,Gabbro_rect,1,0,1,0,1,
63e5a6690eeedc20da056717,SCN,2024-06-20_13h38.16.704,LearnStrategy,2023.2.3,Win32,59.88023952,5,2,3,,,,,,,,8,10,,,,,,,,,,,8,1.322,1,,,,,,0.359259288,-0.39444443,1,0,0,1.3218,Pumice_rect,2,0,2,0,1,
63e5a6690eeedc20da056717,SCN,2024-06-20_13h38.16.704,LearnStrategy,2023.2.3,Win32,59.88023952,5,2,4,,,,,,,,2,06,,,,,,,,,,,2,1.738,1,,,,,,-0.171296296,-0.25462963,1,0,0,1.7376,Basalt_rect,3,0,3,0,1,
63e5a6690eeedc20da056717,SCN,2024-06-20_13h38.16.704,LearnStrategy,2023.2.3,Win32,59.88023952,5,2,5,,,,,,,,5,09,,,,,,,,,,,5,1.05,1,,,,,,-0.345370363,-0.40370369,1,0,0,1.0504,Obsidian_rect,4,0,4,0,1,
63e5a6690eeedc20da056717,SCN,2024-06-20_13h38.16.704,LearnStrategy,2023.2.3,Win32,59.88023952,5,2,6,,,,,,,,4,03,,,,,,,,,,,1,6.954,0,,,,,,-0.430555556,-0.248148176,1,0,0,6.9535,Andesite_rect,5,0,5,0,1,
63e5a6690eeedc20da056717,SCN,2024-06-20_13h38.16.704,LearnStrategy,2023.2.3,Win32,59.88023952,5,2,7,,,,,,,,1,01,,,,,,,,,,,1,3.491,1,,,,,,-0.363888882,-0.24537037,1,0,0,3.4912,Andesite_rect,6,0,6,0,1,
63e5a6690eeedc20da056717,SCN,2024-06-20_13h38.16.704,LearnStrategy,2023.2.3,Win32,59.88023952,5,2,8,,,,,,,,6,09,,,,,,,,,,,6,1.625,1,,,,,,-0.068518533,-0.392592607,1,0,0,1.6247,Pegmatite_rect,7,0,7,0,1,
63e5a6690eeedc20da056717,SCN,2024-06-20_13h38.16.704,LearnStrategy,2023.2.3,Win32,59.88023952,5,2,9,,,,,,,,3,11,,,,,,,,,,,3,3.299,1,,,,,,0.09629631,-0.253703718,1,0,0,3.2992,Diorite_rect,8,0,8,0,1,
63e5a6690eeedc20da056717,SCN,2024-06-20_13h38.16.704,LearnStrategy,2023.2.3,Win32,59.88023952,5,2,10,,,,,,,,1,07,,,,,,,,,,,1,2.071,1,,,,,,-0.384259259,-0.240740741,1,0,0,2.0706,Andesite_rect,9,0,9,0,1,
63e5a6690eeedc20da056717,SCN,2024-06-20_13h38.16.704,LearnStrategy,2023.2.3,Win32,59.88023952,5,2,11,,,,,,,,7,04,,,,,,,,,,,7,1.322,1,,,,,,0.137037065,-0.393518519,1,0,0,1.322,Peridotite_rect,10,0,10,0,1,
63e5a6690eeedc20da056717,SCN,2024-06-20_13h38.16.704,LearnStrategy,2023.2.3,Win32,59.88023952,5,2,12,,,,,,,,2,02,,,,,,,,,,,2,1.314,1,,,,,,-0.155555513,-0.250925912,1,0,0,1.3142,Basalt_rect,11,0,11,0,1,
63e5a6690eeedc20da056717,SCN,2024-06-20_13h38.16.704,LearnStrategy,2023.2.3,Win32,59.88023952,5,2,13,,,,,,,,6,03,,,,,,,,,,,6,1.284,1,,,,,,-0.068518533,-0.389814801,1,0,0,1.2836,Pegmatite_rect,12,0,12,0,1,
63e5a6690eeedc20da056717,SCN,2024-06-20_13h38.16.704,LearnStrategy,2023.2.3,Win32,59.88023952,5,2,14,,,,,,,,7,10,,,,,,,,,,,7,3.948,1,,,,,,0.15370369,-0.409259302,1,0,0,3.9483,Peridotite_rect,13,0,13,0,1,
63e5a6690eeedc20da056717,SCN,2024-06-20_13h38.16.704,LearnStrategy,2023.2.3,Win32,59.88023952,5,2,15,,,,,,,,5,05,,,,,,,,,,,5,2.524,1,,,,,,-0.39444443,-0.406481496,1,0,0,2.5236,Obsidian_rect,14,0,14,0,1,
63e5a6690eeedc20da056717,SCN,2024-06-20_13h38.16.704,LearnStrategy,2023.2.3,Win32,59.88023952,5,2,16,,,,,,,,8,15,,,,,,,,,,,8,2.259,1,,,,,,0.40370376,-0.386111153,1,0,0,2.2593,Pumice_rect,15,0,15,0,1,
63e5a6690eeedc20da056717,SCN,2024-06-20_13h38.16.704,LearnStrategy,2023.2.3,Win32,59.88023952,6,1,1,0.524074131,-0.412962949,1,0,0,3.8806,Andesite_09,1,09,1,8,3.881,-0.369444423,-0.234259288,1,0,0,2.4542,Andesite_rect,1,2.454,1,0,0,0,0,1,,,,,,,,,,,,,
63e5a6690eeedc20da056717,SCN,2024-06-20_13h38.16.704,LearnStrategy,2023.2.3,Win32,59.88023952,6,1,2,0.367592564,-0.410185213,1,0,0,0.9458,Diorite_06,3,06,1,7,0.946,0.135185171,-0.240740741,1,0,0,4.7758,Diorite_rect,3,4.776,1,1,0,1,0,1,,,,,,,,,,,,,
63e5a6690eeedc20da056717,SCN,2024-06-20_13h38.16.704,LearnStrategy,2023.2.3,Win32,59.88023952,6,1,3,0.240740741,-0.420370384,1,0,0,2.5461,Pegmatite_05,6,05,1,6,2.546,-0.124074088,-0.391666695,1,0,0,1.8929,Pegmatite_rect,6,1.893,1,2,0,2,0,1,,,,,,,,,,,,,
63e5a6690eeedc20da056717,SCN,2024-06-20_13h38.16.704,LearnStrategy,2023.2.3,Win32,59.88023952,6,1,4,-0.054629644,-0.412962949,1,0,0,2.9662,Andesite_16,1,16,1,4,2.966,-0.352777764,-0.238888917,1,0,0,3.1744,Andesite_rect,1,3.174,1,3,0,3,0,1,,,,,,,,,,,,,
63e5a6690eeedc20da056717,SCN,2024-06-20_13h38.16.704,LearnStrategy,2023.2.3,Win32,59.88023952,6,1,5,-0.258333347,-0.419444473,1,0,0,1.1969,Diorite_07,3,07,1,3,1.197,0.125925912,-0.242592635,1,0,0,2.5072,Diorite_rect,3,2.507,1,4,0,4,0,1,,,,,,,,,,,,,
63e5a6690eeedc20da056717,SCN,2024-06-20_13h38.16.704,LearnStrategy,2023.2.3,Win32,59.88023952,6,1,6,-0.547222208,-0.390740783,1,0,0,4.1808,Gabbro_15,4,15,1,1,4.181,0.354629658,-0.237037023,1,0,0,1.8563,Gabbro_rect,4,1.856,1,5,0,5,0,1,,,,,,,,,,,,,
63e5a6690eeedc20da056717,SCN,2024-06-20_13h38.16.704,LearnStrategy,2023.2.3,Win32,59.88023952,6,1,7,-0.545370349,-0.241666653,1,0,0,1.2644,Andesite_05,1,05,2,1,1.264,-0.450925933,-0.237037023,1,0,0,2.5552,Andesite_rect,1,2.555,1,6,0,6,0,1,,,,,,,,,,,,,
63e5a6690eeedc20da056717,SCN,2024-06-20_13h38.16.704,LearnStrategy,2023.2.3,Win32,59.88023952,6,1,8,-0.537962949,-0.10555557,1,0,0,5.4306,Andesite_04,1,04,3,1,5.431,-0.39166666,-0.243518547,1,0,0,1.9398,Andesite_rect,1,1.94,1,7,0,7,0,1,,,,,,,,,,,,,
63e5a6690eeedc20da056717,SCN,2024-06-20_13h38.16.704,LearnStrategy,2023.2.3,Win32,59.88023952,6,1,9,-0.51944443,0.092592593,1,0,0,1.1147,Peridotite_02,7,02,4,1,1.115,0.170370384,-0.383333347,1,0,0,1.8896,Peridotite_rect,7,1.89,1,8,0,8,0,1,,,,,,,,,,,,,
63e5a6690eeedc20da056717,SCN,2024-06-20_13h38.16.704,LearnStrategy,2023.2.3,Win32,59.88023952,6,1,10,-0.199999986,0.072222215,1,0,0,2.548,Diorite_02,3,02,4,3,2.548,0.12962963,-0.244444459,1,0,0,2.0558,Diorite_rect,3,2.056,1,9,0,9,0,1,,,,,,,,,,,,,
63e5a6690eeedc20da056717,SCN,2024-06-20_13h38.16.704,LearnStrategy,2023.2.3,Win32,59.88023952,6,1,11,-0.069444444,0.093518504,1,0,0,1.2628,Diorite_16,3,16,4,4,1.263,-0.37962963,-0.262962977,1,0,0,2.044,Andesite_rect,1,2.044,0,10,0,10,0,1,,,,,,,,,,,,,
63e5a6690eeedc20da056717,SCN,2024-06-20_13h38.16.704,LearnStrategy,2023.2.3,Win32,59.88023952,6,1,12,0.223148134,0.074999986,1,0,0,1.6313,Basalt_05,2,05,4,6,1.631,-0.12962963,-0.263888889,1,0,0,1.1209,Basalt_rect,2,1.121,1,11,0,11,0,1,,,,,,,,,,,,,
63e5a6690eeedc20da056717,SCN,2024-06-20_13h38.16.704,LearnStrategy,2023.2.3,Win32,59.88023952,6,1,13,0.380555612,0.079629616,1,0,0,1.1309,Peridotite_14,7,14,4,7,1.131,0.156481496,-0.415740755,1,0,0,1.6101,Peridotite_rect,7,1.61,1,12,0,12,0,1,,,,,,,,,,,,,
63e5a6690eeedc20da056717,SCN,2024-06-20_13h38.16.704,LearnStrategy,2023.2.3,Win32,59.88023952,6,1,14,0.523148148,0.239814811,1,0,0,1.9305,Gabbro_12,4,12,5,8,1.93,0.409259231,-0.243518547,1,0,0,3.826,Gabbro_rect,4,3.826,1,13,0,13,0,1,,,,,,,,,,,,,
63e5a6690eeedc20da056717,SCN,2024-06-20_13h38.16.704,LearnStrategy,2023.2.3,Win32,59.88023952,6,1,15,0.384259259,0.272222219,1,0,0,1.4467,Basalt_10,2,10,5,7,1.447,-0.145370342,-0.244444459,1,0,0,1.4089,Basalt_rect,2,1.409,1,14,0,14,0,1,,,,,,,,,,,,,
63e5a6690eeedc20da056717,SCN,2024-06-20_13h38.16.704,LearnStrategy,2023.2.3,Win32,59.88023952,6,1,16,0.268518519,0.2537037,1,0,0,0.965,Gabbro_09,4,09,5,6,0.965,0.358333305,-0.233333376,1,0,0,1.5055,Gabbro_rect,4,1.505,1,15,0,15,0,1,,,,,,,,,,,,,
63e5a6690eeedc20da056717,SCN,2024-06-20_13h38.16.704,LearnStrategy,2023.2.3,Win32,59.88023952,6,2,1,,,,,,,,7,08,,,,,,,,,,,7,2.871,1,,,,,,0.136111153,-0.397222236,1,0,0,2.8711,Peridotite_rect,0,0,0,0,1,
63e5a6690eeedc20da056717,SCN,2024-06-20_13h38.16.704,LearnStrategy,2023.2.3,Win32,59.88023952,6,2,2,,,,,,,,6,06,,,,,,,,,,,6,7.159,1,,,,,,-0.058333291,-0.392592607,1,0,0,7.1585,Pegmatite_rect,1,0,1,0,1,
63e5a6690eeedc20da056717,SCN,2024-06-20_13h38.16.704,LearnStrategy,2023.2.3,Win32,59.88023952,6,2,3,,,,,,,,1,06,,,,,,,,,,,1,1.971,1,,,,,,-0.353703711,-0.229629658,1,0,0,1.971,Andesite_rect,2,0,2,0,1,
63e5a6690eeedc20da056717,SCN,2024-06-20_13h38.16.704,LearnStrategy,2023.2.3,Win32,59.88023952,6,2,4,,,,,,,,5,07,,,,,,,,,,,5,1.287,1,,,,,,-0.372222229,-0.381481524,1,0,0,1.287,Obsidian_rect,3,0,3,0,1,
63e5a6690eeedc20da056717,SCN,2024-06-20_13h38.16.704,LearnStrategy,2023.2.3,Win32,59.88023952,6,2,5,,,,,,,,8,13,,,,,,,,,,,8,2.29,1,,,,,,0.359259288,-0.412962949,1,0,0,2.2896,Pumice_rect,4,0,4,0,1,
63e5a6690eeedc20da056717,SCN,2024-06-20_13h38.16.704,LearnStrategy,2023.2.3,Win32,59.88023952,6,2,6,,,,,,,,4,01,,,,,,,,,,,7,5.772,0,,,,,,0.152777778,-0.387037065,1,0,0,5.7718,Peridotite_rect,5,0,5,0,1,
63e5a6690eeedc20da056717,SCN,2024-06-20_13h38.16.704,LearnStrategy,2023.2.3,Win32,59.88023952,6,2,7,,,,,,,,3,08,,,,,,,,,,,3,1.322,1,,,,,,0.115740741,-0.264814801,1,0,0,1.3224,Diorite_rect,6,0,6,0,1,
63e5a6690eeedc20da056717,SCN,2024-06-20_13h38.16.704,LearnStrategy,2023.2.3,Win32,59.88023952,6,2,8,,,,,,,,3,09,,,,,,,,,,,3,5.265,1,,,,,,0.10555557,-0.250925912,1,0,0,5.2655,Diorite_rect,7,0,7,0,1,
63e5a6690eeedc20da056717,SCN,2024-06-20_13h38.16.704,LearnStrategy,2023.2.3,Win32,59.88023952,6,2,9,,,,,,,,4,14,,,,,,,,,,,4,1.948,1,,,,,,0.384259259,-0.261111153,1,0,0,1.9484,Gabbro_rect,8,0,8,0,1,
63e5a6690eeedc20da056717,SCN,2024-06-20_13h38.16.704,LearnStrategy,2023.2.3,Win32,59.88023952,6,2,10,,,,,,,,6,11,,,,,,,,,,,6,1.288,1,,,,,,-0.151851866,-0.400000042,1,0,0,1.2879,Pegmatite_rect,9,0,9,0,1,
63e5a6690eeedc20da056717,SCN,2024-06-20_13h38.16.704,LearnStrategy,2023.2.3,Win32,59.88023952,6,2,11,,,,,,,,1,10,,,,,,,,,,,4,6.59,0,,,,,,0.393518519,-0.233333376,1,0,0,6.5903,Gabbro_rect,10,0,10,0,1,
63e5a6690eeedc20da056717,SCN,2024-06-20_13h38.16.704,LearnStrategy,2023.2.3,Win32,59.88023952,6,2,12,,,,,,,,8,09,,,,,,,,,,,8,1.256,1,,,,,,0.357407464,-0.37962963,1,0,0,1.2559,Pumice_rect,11,0,11,0,1,
63e5a6690eeedc20da056717,SCN,2024-06-20_13h38.16.704,LearnStrategy,2023.2.3,Win32,59.88023952,6,2,13,,,,,,,,2,11,,,,,,,,,,,4,7.522,0,,,,,,0.388888889,-0.25,1,0,0,7.5216,Gabbro_rect,12,0,12,0,1,
63e5a6690eeedc20da056717,SCN,2024-06-20_13h38.16.704,LearnStrategy,2023.2.3,Win32,59.88023952,6,2,14,,,,,,,,7,12,,,,,,,,,,,7,1.499,1,,,,,,0.097222222,-0.39444443,1,0,0,1.4991,Peridotite_rect,13,0,13,0,1,
63e5a6690eeedc20da056717,SCN,2024-06-20_13h38.16.704,LearnStrategy,2023.2.3,Win32,59.88023952,6,2,15,,,,,,,,5,08,,,,,,,,,,,5,1.869,1,,,,,,-0.381481489,-0.39444443,1,0,0,1.8694,Obsidian_rect,14,0,14,0,1,
63e5a6690eeedc20da056717,SCN,2024-06-20_13h38.16.704,LearnStrategy,2023.2.3,Win32,59.88023952,6,2,16,,,,,,,,2,12,,,,,,,,,,,8,3.055,0,,,,,,0.430555556,-0.413888931,1,0,0,3.0554,Pumice_rect,15,0,15,0,1,
63e5a6690eeedc20da056717,SCN,2024-06-20_13h38.16.704,LearnStrategy,2023.2.3,Win32,59.88023952,7,1,1,-0.582407386,0.268518519,1,0,0,3.656,Pumice_08,8,08,5,1,3.656,0.40833339,-0.407407407,1,0,0,1.8489,Pumice_rect,8,1.849,1,0,0,0,0,1,,,,,,,,,,,,,
63e5a6690eeedc20da056717,SCN,2024-06-20_13h38.16.704,LearnStrategy,2023.2.3,Win32,59.88023952,7,1,2,-0.563888868,0.112037023,1,0,0,2.4472,Peridotite_02,7,02,4,1,2.447,0.111111111,-0.392592607,1,0,0,1.44,Peridotite_rect,7,1.44,1,1,0,1,0,1,,,,,,,,,,,,,
63e5a6690eeedc20da056717,SCN,2024-06-20_13h38.16.704,LearnStrategy,2023.2.3,Win32,59.88023952,7,1,3,-0.073148162,0.098148134,1,0,0,1.0639,Diorite_16,3,16,4,4,1.064,0.152777778,-0.231481481,1,0,0,1.0926,Diorite_rect,3,1.093,1,2,0,2,0,1,,,,,,,,,,,,,
63e5a6690eeedc20da056717,SCN,2024-06-20_13h38.16.704,LearnStrategy,2023.2.3,Win32,59.88023952,7,1,4,0.398148148,-0.404629672,1,0,0,1.2153,Diorite_06,3,06,1,7,1.215,0.10092594,-0.251851894,1,0,0,1.307,Diorite_rect,3,1.307,1,3,0,3,0,1,,,,,,,,,,,,,
63e5a6690eeedc20da056717,SCN,2024-06-20_13h38.16.704,LearnStrategy,2023.2.3,Win32,59.88023952,7,1,5,-0.249074088,-0.398148148,1,0,0,1.465,Diorite_07,3,07,1,3,1.465,0.132407436,-0.249074088,1,0,0,1.3221,Diorite_rect,3,1.322,1,4,0,4,0,1,,,,,,,,,,,,,
63e5a6690eeedc20da056717,SCN,2024-06-20_13h38.16.704,LearnStrategy,2023.2.3,Win32,59.88023952,7,1,6,0.554629714,0.244444441,1,0,0,3.8814,Gabbro_12,4,12,5,8,3.881,0.346296381,-0.236111111,1,0,0,2.0085,Gabbro_rect,4,2.008,1,5,0,5,0,1,,,,,,,,,,,,,
63e5a6690eeedc20da056717,SCN,2024-06-20_13h38.16.704,LearnStrategy,2023.2.3,Win32,59.88023952,7,1,7,0.233333376,0.419444446,1,0,0,3.0317,Peridotite_05,7,05,6,6,3.032,0.172222208,-0.252777806,1,0,0,2.7579,Diorite_rect,3,2.758,0,6,0,6,0,1,,,,,,,,,,,,,
63e5a6690eeedc20da056717,SCN,2024-06-20_13h38.16.704,LearnStrategy,2023.2.3,Win32,59.88023952,7,1,8,0.411111196,0.426851851,1,0,0,1.9295,Peridotite_15,7,15,6,7,1.93,0.113888917,-0.389814801,1,0,0,1.2264,Peridotite_rect,7,1.226,1,7,0,7,0,1,,,,,,,,,,,,,
63e5a6690eeedc20da056717,SCN,2024-06-20_13h38.16.704,LearnStrategy,2023.2.3,Win32,59.88023952,7,1,9,-0.236111111,0.278703707,1,0,0,1.2984,Basalt_01,2,01,5,3,1.298,-0.140740712,-0.251851894,1,0,0,1.655,Basalt_rect,2,1.655,1,8,0,8,0,1,,,,,,,,,,,,,
63e5a6690eeedc20da056717,SCN,2024-06-20_13h38.16.704,LearnStrategy,2023.2.3,Win32,59.88023952,7,1,10,0.090740769,-0.397222236,1,0,0,6.9483,Basalt_16,2,16,1,5,6.948,-0.113888847,-0.229629658,1,0,0,1.2378,Basalt_rect,2,1.238,1,9,0,9,0,1,,,,,,,,,,,,,
63e5a6690eeedc20da056717,SCN,2024-06-20_13h38.16.704,LearnStrategy,2023.2.3,Win32,59.88023952,7,1,11,-0.246296282,0.412037037,1,0,0,2.364,Gabbro_16,4,16,6,3,2.364,0.424074102,-0.251851894,1,0,0,4.8931,Gabbro_rect,4,4.893,1,10,0,10,0,1,,,,,,,,,,,,,
63e5a6690eeedc20da056717,SCN,2024-06-20_13h38.16.704,LearnStrategy,2023.2.3,Win32,59.88023952,7,1,12,0.556481538,0.413888887,1,0,0,9.8058,Gabbro_10,4,10,6,8,9.806,0.374074159,-0.243518547,1,0,0,1.9799,Gabbro_rect,4,1.98,1,11,0,11,0,1,,,,,,,,,,,,,
63e5a6690eeedc20da056717,SCN,2024-06-20_13h38.16.704,LearnStrategy,2023.2.3,Win32,59.88023952,7,1,13,-0.081481439,0.25833333,1,0,0,10.9459,Diorite_10,3,10,5,4,10.946,0.183333362,-0.247222265,1,0,0,2.726,Diorite_rect,3,2.726,1,12,0,12,0,1,,,,,,,,,,,,,
63e5a6690eeedc20da056717,SCN,2024-06-20_13h38.16.704,LearnStrategy,2023.2.3,Win32,59.88023952,7,1,14,0.250925912,0.113888882,1,0,0,4.1643,Basalt_05,2,05,4,6,4.164,-0.133333347,-0.236111111,1,0,0,1.6234,Basalt_rect,2,1.623,1,13,0,13,0,1,,,,,,,,,,,,,
63e5a6690eeedc20da056717,SCN,2024-06-20_13h38.16.704,LearnStrategy,2023.2.3,Win32,59.88023952,7,1,15,-0.548148155,-0.095370399,1,0,0,1.3145,Andesite_04,1,04,3,1,1.314,-0.416666667,-0.241666653,1,0,0,1.0399,Andesite_rect,1,1.04,1,14,0,14,0,1,,,,,,,,,,,,,
63e5a6690eeedc20da056717,SCN,2024-06-20_13h38.16.704,LearnStrategy,2023.2.3,Win32,59.88023952,7,1,16,-0.061111097,0.225925922,1,0,0,2.5977,Diorite_10,3,10,5,4,2.598,0.114814829,-0.250925912,1,0,0,2.5062,Diorite_rect,3,2.506,1,15,0,15,0,1,,,,,,,,,,,,,
63e5a6690eeedc20da056717,SCN,2024-06-20_13h38.16.704,LearnStrategy,2023.2.3,Win32,59.88023952,7,2,1,,,,,,,,8,09,,,,,,,,,,,8,1.505,1,,,,,,0.394444501,-0.386111153,1,0,0,1.5051,Pumice_rect,0,0,0,0,1,
63e5a6690eeedc20da056717,SCN,2024-06-20_13h38.16.704,LearnStrategy,2023.2.3,Win32,59.88023952,7,2,2,,,,,,,,5,09,,,,,,,,,,,5,1.181,1,,,,,,-0.327777757,-0.393518519,1,0,0,1.1808,Obsidian_rect,1,0,1,0,1,
63e5a6690eeedc20da056717,SCN,2024-06-20_13h38.16.704,LearnStrategy,2023.2.3,Win32,59.88023952,7,2,3,,,,,,,,7,10,,,,,,,,,,,7,4.817,1,,,,,,0.140740783,-0.388888889,1,0,0,4.8166,Peridotite_rect,2,0,2,0,1,
63e5a6690eeedc20da056717,SCN,2024-06-20_13h38.16.704,LearnStrategy,2023.2.3,Win32,59.88023952,7,2,4,,,,,,,,1,07,,,,,,,,,,,1,1.364,1,,,,,,-0.375925912,-0.256481524,1,0,0,1.3643,Andesite_rect,3,0,3,0,1,
63e5a6690eeedc20da056717,SCN,2024-06-20_13h38.16.704,LearnStrategy,2023.2.3,Win32,59.88023952,7,2,5,,,,,,,,3,12,,,,,,,,,,,3,2.735,1,,,,,,0.157407407,-0.25,1,0,0,2.7347,Diorite_rect,4,0,4,0,1,
63e5a6690eeedc20da056717,SCN,2024-06-20_13h38.16.704,LearnStrategy,2023.2.3,Win32,59.88023952,7,2,6,,,,,,,,3,11,,,,,,,,,,,3,1.539,1,,,,,,0.121296282,-0.233333376,1,0,0,1.5385,Diorite_rect,5,0,5,0,1,
63e5a6690eeedc20da056717,SCN,2024-06-20_13h38.16.704,LearnStrategy,2023.2.3,Win32,59.88023952,7,2,7,,,,,,,,2,02,,,,,,,,,,,2,1.572,1,,,,,,-0.12037037,-0.233333376,1,0,0,1.5721,Basalt_rect,6,0,6,0,1,
63e5a6690eeedc20da056717,SCN,2024-06-20_13h38.16.704,LearnStrategy,2023.2.3,Win32,59.88023952,7,2,8,,,,,,,,6,03,,,,,,,,,,,6,1.256,1,,,,,,-0.101851852,-0.393518519,1,0,0,1.2562,Pegmatite_rect,7,0,7,0,1,
63e5a6690eeedc20da056717,SCN,2024-06-20_13h38.16.704,LearnStrategy,2023.2.3,Win32,59.88023952,7,2,9,,,,,,,,4,14,,,,,,,,,,,4,1.772,1,,,,,,0.375925982,-0.239814829,1,0,0,1.772,Gabbro_rect,8,0,8,0,1,
63e5a6690eeedc20da056717,SCN,2024-06-20_13h38.16.704,LearnStrategy,2023.2.3,Win32,59.88023952,7,2,10,,,,,,,,1,10,,,,,,,,,,,1,7.976,1,,,,,,-0.3824074,-0.261111153,1,0,0,7.9762,Andesite_rect,9,0,9,0,1,
63e5a6690eeedc20da056717,SCN,2024-06-20_13h38.16.704,LearnStrategy,2023.2.3,Win32,59.88023952,7,2,11,,,,,,,,5,05,,,,,,,,,,,5,1.225,1,,,,,,-0.363888882,-0.398148148,1,0,0,1.2252,Obsidian_rect,10,0,10,0,1,
63e5a6690eeedc20da056717,SCN,2024-06-20_13h38.16.704,LearnStrategy,2023.2.3,Win32,59.88023952,7,2,12,,,,,,,,2,12,,,,,,,,,,,8,1.692,0,,,,,,0.332407492,-0.389814801,1,0,0,1.6919,Pumice_rect,11,0,11,0,1,
63e5a6690eeedc20da056717,SCN,2024-06-20_13h38.16.704,LearnStrategy,2023.2.3,Win32,59.88023952,7,2,13,,,,,,,,4,08,,,,,,,,,,,4,1.472,1,,,,,,0.368518547,-0.251851894,1,0,0,1.4716,Gabbro_rect,12,0,12,0,1,
63e5a6690eeedc20da056717,SCN,2024-06-20_13h38.16.704,LearnStrategy,2023.2.3,Win32,59.88023952,7,2,14,,,,,,,,6,13,,,,,,,,,,,6,1.631,1,,,,,,-0.124074088,-0.392592607,1,0,0,1.6306,Pegmatite_rect,13,0,13,0,1,
63e5a6690eeedc20da056717,SCN,2024-06-20_13h38.16.704,LearnStrategy,2023.2.3,Win32,59.88023952,7,2,15,,,,,,,,7,04,,,,,,,,,,,7,1.417,1,,,,,,0.123148176,-0.390740783,1,0,0,1.4165,Peridotite_rect,14,0,14,0,1,
63e5a6690eeedc20da056717,SCN,2024-06-20_13h38.16.704,LearnStrategy,2023.2.3,Win32,59.88023952,7,2,16,,,,,,,,8,05,,,,,,,,,,,8,1.272,1,,,,,,0.358333305,-0.388888889,1,0,0,1.2719,Pumice_rect,15,0,15,0,1,
63e5a6690eeedc20da056717,SCN,2024-06-20_13h38.16.704,LearnStrategy,2023.2.3,Win32,59.88023952,8,1,1,-0.086111069,-0.289814843,1,0,0,6.3945,Pumice_06,8,06,2,4,6.394,0.407407407,-0.386111153,1,0,0,1.3899,Pumice_rect,8,1.39,1,0,0,0,0,1,,,,,,,,,,,,,
63e5a6690eeedc20da056717,SCN,2024-06-20_13h38.16.704,LearnStrategy,2023.2.3,Win32,59.88023952,8,1,2,0.255555541,0.100925905,1,0,0,6.8964,Basalt_05,2,05,4,6,6.896,-0.12037037,-0.229629658,1,0,0,1.7746,Basalt_rect,2,1.775,1,1,0,1,0,1,,,,,,,,,,,,,
63e5a6690eeedc20da056717,SCN,2024-06-20_13h38.16.704,LearnStrategy,2023.2.3,Win32,59.88023952,8,1,3,-0.388888889,0.100925905,1,0,0,2.7304,Pumice_14,8,14,4,2,2.73,0.448148233,-0.412037037,1,0,0,1.3298,Pumice_rect,8,1.33,1,2,0,2,0,1,,,,,,,,,,,,,
63e5a6690eeedc20da056717,SCN,2024-06-20_13h38.16.704,LearnStrategy,2023.2.3,Win32,59.88023952,8,1,4,0.359259288,0.247222212,1,0,0,5.2657,Basalt_10,2,10,5,7,5.266,-0.140740712,-0.246296282,1,0,0,2.3797,Basalt_rect,2,2.38,1,3,0,3,0,1,,,,,,,,,,,,,
63e5a6690eeedc20da056717,SCN,2024-06-20_13h38.16.704,LearnStrategy,2023.2.3,Win32,59.88023952,8,1,5,0.529629601,0.269444448,1,0,0,1.5346,Gabbro_12,4,12,5,8,1.535,0.383333418,-0.240740741,1,0,0,2.0312,Gabbro_rect,4,2.031,1,4,0,4,0,1,,,,,,,,,,,,,
63e5a6690eeedc20da056717,SCN,2024-06-20_13h38.16.704,LearnStrategy,2023.2.3,Win32,59.88023952,8,1,6,-0.234259217,0.414814817,1,0,0,3.5138,Gabbro_16,4,16,6,3,3.514,0.363888917,-0.258333347,1,0,0,1.6089,Gabbro_rect,4,1.609,1,5,0,5,0,1,,,,,,,,,,,,,
63e5a6690eeedc20da056717,SCN,2024-06-20_13h38.16.704,LearnStrategy,2023.2.3,Win32,59.88023952,8,1,7,-0.555555556,-0.418518561,1,0,0,2.7806,Gabbro_15,4,15,1,1,2.781,0.337962963,-0.249074088,1,0,0,1.8049,Gabbro_rect,4,1.805,1,6,0,6,0,1,,,,,,,,,,,,,
63e5a6690eeedc20da056717,SCN,2024-06-20_13h38.16.704,LearnStrategy,2023.2.3,Win32,59.88023952,8,1,8,0.262037065,0.081481474,1,0,0,5.1813,Basalt_05,2,05,4,6,5.181,-0.075925898,-0.240740741,1,0,0,1.222,Basalt_rect,2,1.222,1,7,0,7,0,1,,,,,,,,,,,,,
63e5a6690eeedc20da056717,SCN,2024-06-20_13h38.16.704,LearnStrategy,2023.2.3,Win32,59.88023952,8,1,9,-0.094444416,0.423148146,1,0,0,3.4809,Pumice_16,8,16,6,4,3.481,0.367592564,-0.37962963,1,0,0,1.722,Pumice_rect,8,1.722,1,8,0,8,0,1,,,,,,,,,,,,,
63e5a6690eeedc20da056717,SCN,2024-06-20_13h38.16.704,LearnStrategy,2023.2.3,Win32,59.88023952,8,1,10,0.054629644,0.424074076,1,0,0,1.0971,Pegmatite_07,6,07,6,5,1.097,-0.082407422,-0.384259259,1,0,0,1.1082,Pegmatite_rect,6,1.108,1,9,0,9,0,1,,,,,,,,,,,,,
63e5a6690eeedc20da056717,SCN,2024-06-20_13h38.16.704,LearnStrategy,2023.2.3,Win32,59.88023952,8,1,11,0.248148176,0.420370367,1,0,0,1.3501,Peridotite_05,7,05,6,6,1.35,0.160185213,-0.390740783,1,0,0,4.1406,Peridotite_rect,7,4.141,1,10,0,10,0,1,,,,,,,,,,,,,
63e5a6690eeedc20da056717,SCN,2024-06-20_13h38.16.704,LearnStrategy,2023.2.3,Win32,59.88023952,8,1,12,0.37037037,0.395370369,1,0,0,1.2137,Peridotite_15,7,15,6,7,1.214,0.116666653,-0.414814843,1,0,0,1.1584,Peridotite_rect,7,1.158,1,11,0,11,0,1,,,,,,,,,,,,,
63e5a6690eeedc20da056717,SCN,2024-06-20_13h38.16.704,LearnStrategy,2023.2.3,Win32,59.88023952,8,1,13,0.592592593,0.38981481,1,0,0,0.9996,Gabbro_10,4,10,6,8,1,0.41851849,-0.253703718,1,0,0,1.4225,Gabbro_rect,4,1.423,1,12,0,12,0,1,,,,,,,,,,,,,
63e5a6690eeedc20da056717,SCN,2024-06-20_13h38.16.704,LearnStrategy,2023.2.3,Win32,59.88023952,8,1,14,0.24537037,0.261111101,1,0,0,3.1321,Gabbro_09,4,09,5,6,3.132,0.367592564,-0.249074088,1,0,0,1.1553,Gabbro_rect,4,1.155,1,13,0,13,0,1,,,,,,,,,,,,,
63e5a6690eeedc20da056717,SCN,2024-06-20_13h38.16.704,LearnStrategy,2023.2.3,Win32,59.88023952,8,1,15,0.104629658,-0.417592578,1,0,0,4.9482,Basalt_16,2,16,1,5,4.948,-0.133333347,-0.237963005,1,0,0,5.9911,Basalt_rect,2,5.991,1,14,0,14,0,1,,,,,,,,,,,,,
63e5a6690eeedc20da056717,SCN,2024-06-20_13h38.16.704,LearnStrategy,2023.2.3,Win32,59.88023952,8,1,16,0.440740797,0.057407414,1,0,0,3.864,Peridotite_14,7,14,4,7,3.864,0.188888903,-0.388888889,1,0,0,1.4246,Peridotite_rect,7,1.425,1,15,0,15,0,1,,,,,,,,,,,,,
63e5a6690eeedc20da056717,SCN,2024-06-20_13h38.16.704,LearnStrategy,2023.2.3,Win32,59.88023952,8,2,1,,,,,,,,1,02,,,,,,,,,,,1,1.521,1,,,,,,-0.381481489,-0.251851894,1,0,0,1.5209,Andesite_rect,0,0,0,0,1,
63e5a6690eeedc20da056717,SCN,2024-06-20_13h38.16.704,LearnStrategy,2023.2.3,Win32,59.88023952,8,2,2,,,,,,,,4,13,,,,,,,,,,,4,2.656,1,,,,,,0.392592677,-0.237037023,1,0,0,2.6561,Gabbro_rect,1,0,1,0,1,
63e5a6690eeedc20da056717,SCN,2024-06-20_13h38.16.704,LearnStrategy,2023.2.3,Win32,59.88023952,8,2,3,,,,,,,,5,02,,,,,,,,,,,5,1.13,1,,,,,,-0.336111104,-0.396296325,1,0,0,1.1305,Obsidian_rect,2,0,2,0,1,
63e5a6690eeedc20da056717,SCN,2024-06-20_13h38.16.704,LearnStrategy,2023.2.3,Win32,59.88023952,8,2,4,,,,,,,,3,08,,,,,,,,,,,3,2.106,1,,,,,,0.07685188,-0.246296282,1,0,0,2.1056,Diorite_rect,3,0,3,0,1,
63e5a6690eeedc20da056717,SCN,2024-06-20_13h38.16.704,LearnStrategy,2023.2.3,Win32,59.88023952,8,2,5,,,,,,,,1,06,,,,,,,,,,,1,1.132,1,,,,,,-0.380555541,-0.259259259,1,0,0,1.1321,Andesite_rect,4,0,4,0,1,
63e5a6690eeedc20da056717,SCN,2024-06-20_13h38.16.704,LearnStrategy,2023.2.3,Win32,59.88023952,8,2,6,,,,,,,,5,11,,,,,,,,,,,5,1.217,1,,,,,,-0.404629637,-0.414814843,1,0,0,1.2172,Obsidian_rect,5,0,5,0,1,
63e5a6690eeedc20da056717,SCN,2024-06-20_13h38.16.704,LearnStrategy,2023.2.3,Win32,59.88023952,8,2,7,,,,,,,,8,10,,,,,,,,,,,8,1.299,1,,,,,,0.346296381,-0.395370413,1,0,0,1.2993,Pumice_rect,6,0,6,0,1,
63e5a6690eeedc20da056717,SCN,2024-06-20_13h38.16.704,LearnStrategy,2023.2.3,Win32,59.88023952,8,2,8,,,,,,,,6,09,,,,,,,,,,,6,3.08,1,,,,,,-0.122222194,-0.404629672,1,0,0,3.0801,Pegmatite_rect,7,0,7,0,1,
63e5a6690eeedc20da056717,SCN,2024-06-20_13h38.16.704,LearnStrategy,2023.2.3,Win32,59.88023952,8,2,9,,,,,,,,6,11,,,,,,,,,,,6,0.82,1,,,,,,-0.122222194,-0.404629672,1,0,0,0.8205,Pegmatite_rect,8,0,8,0,1,
63e5a6690eeedc20da056717,SCN,2024-06-20_13h38.16.704,LearnStrategy,2023.2.3,Win32,59.88023952,8,2,10,,,,,,,,2,14,,,,,,,,,,,8,7.228,0,,,,,,0.444444444,-0.407407407,1,0,0,7.2278,Pumice_rect,9,0,9,0,1,
63e5a6690eeedc20da056717,SCN,2024-06-20_13h38.16.704,LearnStrategy,2023.2.3,Win32,59.88023952,8,2,11,,,,,,,,8,02,,,,,,,,,,,8,3.188,1,,,,,,0.432407379,-0.387962977,1,0,0,3.1882,Pumice_rect,10,0,10,0,1,
63e5a6690eeedc20da056717,SCN,2024-06-20_13h38.16.704,LearnStrategy,2023.2.3,Win32,59.88023952,8,2,12,,,,,,,,4,05,,,,,,,,,,,4,1.748,1,,,,,,0.398148148,-0.256481524,1,0,0,1.7478,Gabbro_rect,11,0,11,0,1,
63e5a6690eeedc20da056717,SCN,2024-06-20_13h38.16.704,LearnStrategy,2023.2.3,Win32,59.88023952,8,2,13,,,,,,,,7,08,,,,,,,,,,,7,3.323,1,,,,,,0.151851866,-0.404629672,1,0,0,3.3226,Peridotite_rect,12,0,12,0,1,
63e5a6690eeedc20da056717,SCN,2024-06-20_13h38.16.704,LearnStrategy,2023.2.3,Win32,59.88023952,8,2,14,,,,,,,,7,07,,,,,,,,,,,3,2.921,0,,,,,,0.163888931,-0.246296282,1,0,0,2.9208,Diorite_rect,13,0,13,0,1,
63e5a6690eeedc20da056717,SCN,2024-06-20_13h38.16.704,LearnStrategy,2023.2.3,Win32,59.88023952,8,2,15,,,,,,,,3,13,,,,,,,,,,,3,9.222,1,,,,,,0.136111153,-0.250925912,1,0,0,9.2216,Diorite_rect,14,0,14,0,1,
63e5a6690eeedc20da056717,SCN,2024-06-20_13h38.16.704,LearnStrategy,2023.2.3,Win32,59.88023952,8,2,16,,,,,,,,2,06,,,,,,,,,,,2,1.149,1,,,,,,-0.055555556,-0.263888889,1,0,0,1.1487,Basalt_rect,15,0,15,0,1,
63e5a6690eeedc20da056717,SCN,2024-06-20_13h38.16.704,LearnStrategy,2023.2.3,Win32,59.88023952,9,1,1,-0.079629616,0.092592593,1,0,0,1.6052,Diorite_16,3,16,4,4,1.605,-0.329629616,-0.232407393,1,0,0,1.9139,Andesite_rect,1,1.914,0,0,0,0,0,1,,,,,,,,,,,,,
63e5a6690eeedc20da056717,SCN,2024-06-20_13h38.16.704,LearnStrategy,2023.2.3,Win32,59.88023952,9,1,2,-0.087962963,0.226851852,1,0,0,2.4126,Diorite_10,3,10,5,4,2.413,0.143518519,-0.263888889,1,0,0,2.0246,Diorite_rect,3,2.025,1,1,0,1,0,1,,,,,,,,,,,,,
63e5a6690eeedc20da056717,SCN,2024-06-20_13h38.16.704,LearnStrategy,2023.2.3,Win32,59.88023952,9,1,3,-0.109259217,0.100925905,1,0,0,1.716,Diorite_16,3,16,4,4,1.716,0.122222265,-0.257407436,1,0,0,3.8906,Diorite_rect,3,3.891,1,2,0,2,0,1,,,,,,,,,,,,,
63e5a6690eeedc20da056717,SCN,2024-06-20_13h38.16.704,LearnStrategy,2023.2.3,Win32,59.88023952,9,1,4,-0.54074072,-0.407407407,1,0,0,1.0829,Gabbro_15,4,15,1,1,1.083,0.345370399,-0.249074088,1,0,0,1.7064,Gabbro_rect,4,1.706,1,3,0,3,0,1,,,,,,,,,,,,,
63e5a6690eeedc20da056717,SCN,2024-06-20_13h38.16.704,LearnStrategy,2023.2.3,Win32,59.88023952,9,1,5,-0.523148148,-0.262037065,1,0,0,1.3307,Andesite_05,1,05,2,1,1.331,-0.387962942,-0.239814829,1,0,0,1.8575,Andesite_rect,1,1.857,1,4,0,4,0,1,,,,,,,,,,,,,
63e5a6690eeedc20da056717,SCN,2024-06-20_13h38.16.704,LearnStrategy,2023.2.3,Win32,59.88023952,9,1,6,-0.54074072,-0.072222215,1,0,0,0.9979,Andesite_04,1,04,3,1,0.998,-0.39166666,-0.240740741,1,0,0,1.9411,Andesite_rect,1,1.941,1,5,0,5,0,1,,,,,,,,,,,,,
63e5a6690eeedc20da056717,SCN,2024-06-20_13h38.16.704,LearnStrategy,2023.2.3,Win32,59.88023952,9,1,7,-0.522222201,0.075925933,1,0,0,1.6475,Peridotite_02,7,02,4,1,1.648,0.162037037,-0.390740783,1,0,0,1.2552,Peridotite_rect,7,1.255,1,6,0,6,0,1,,,,,,,,,,,,,
63e5a6690eeedc20da056717,SCN,2024-06-20_13h38.16.704,LearnStrategy,2023.2.3,Win32,59.88023952,9,1,8,0.340740769,0.435185185,1,0,0,2.4657,Peridotite_15,7,15,6,7,2.466,0.110185199,-0.400000042,1,0,0,1.359,Peridotite_rect,7,1.359,1,7,0,7,0,1,,,,,,,,,,,,,
63e5a6690eeedc20da056717,SCN,2024-06-20_13h38.16.704,LearnStrategy,2023.2.3,Win32,59.88023952,9,1,9,-0.065740727,0.232407411,1,0,0,1.6485,Diorite_10,3,10,5,4,1.649,-0.385185171,-0.229629658,1,0,0,5.207,Andesite_rect,1,5.207,0,8,0,8,0,1,,,,,,,,,,,,,
63e5a6690eeedc20da056717,SCN,2024-06-20_13h38.16.704,LearnStrategy,2023.2.3,Win32,59.88023952,9,1,10,-0.3824074,0.084259245,1,0,0,3.5301,Pumice_14,8,14,4,2,3.53,0.344444416,-0.380555541,1,0,0,1.473,Pumice_rect,8,1.473,1,9,0,9,0,1,,,,,,,,,,,,,
63e5a6690eeedc20da056717,SCN,2024-06-20_13h38.16.704,LearnStrategy,2023.2.3,Win32,59.88023952,9,1,11,0.248148176,-0.276851866,1,0,0,12.3487,Andesite_03,1,03,2,6,12.349,-0.413888896,-0.240740741,1,0,0,1.1881,Andesite_rect,1,1.188,1,10,0,10,0,1,,,,,,,,,,,,,
63e5a6690eeedc20da056717,SCN,2024-06-20_13h38.16.704,LearnStrategy,2023.2.3,Win32,59.88023952,9,1,12,0.415740826,-0.071296303,1,0,0,1.1488,Basalt_09,2,09,3,7,1.149,-0.121296282,-0.242592635,1,0,0,1.9057,Basalt_rect,2,1.906,1,11,0,11,0,1,,,,,,,,,,,,,
63e5a6690eeedc20da056717,SCN,2024-06-20_13h38.16.704,LearnStrategy,2023.2.3,Win32,59.88023952,9,1,13,0.407407407,0.091666645,1,0,0,1.5633,Peridotite_14,7,14,4,7,1.563,0.132407436,-0.387962977,1,0,0,1.2237,Peridotite_rect,7,1.224,1,12,0,12,0,1,,,,,,,,,,,,,
63e5a6690eeedc20da056717,SCN,2024-06-20_13h38.16.704,LearnStrategy,2023.2.3,Win32,59.88023952,9,1,14,0.225000028,0.44259259,1,0,0,2.898,Peridotite_05,7,05,6,6,2.898,0.152777778,-0.400925954,1,0,0,2.305,Peridotite_rect,7,2.305,1,13,0,13,0,1,,,,,,,,,,,,,
63e5a6690eeedc20da056717,SCN,2024-06-20_13h38.16.704,LearnStrategy,2023.2.3,Win32,59.88023952,9,1,15,-0.535185178,0.054629608,1,0,0,1.5977,Peridotite_02,7,02,4,1,1.598,0.171296296,-0.397222236,1,0,0,1.6293,Peridotite_rect,7,1.629,1,14,0,14,0,1,,,,,,,,,,,,,
63e5a6690eeedc20da056717,SCN,2024-06-20_13h38.16.704,LearnStrategy,2023.2.3,Win32,59.88023952,9,1,16,-0.267592607,0.11296297,1,0,0,1.8338,Diorite_02,3,02,4,3,1.834,0.158333319,-0.238888917,1,0,0,1.1805,Diorite_rect,3,1.18,1,15,0,15,0,1,,,,,,,,,,,,,
63e5a6690eeedc20da056717,SCN,2024-06-20_13h38.16.704,LearnStrategy,2023.2.3,Win32,59.88023952,9,2,1,,,,,,,,8,13,,,,,,,,,,,8,8.788,1,,,,,,0.455555527,-0.397222236,1,0,0,8.7879,Pumice_rect,0,0,0,0,1,
63e5a6690eeedc20da056717,SCN,2024-06-20_13h38.16.704,LearnStrategy,2023.2.3,Win32,59.88023952,9,2,2,,,,,,,,3,09,,,,,,,,,,,3,2.515,1,,,,,,0.128703718,-0.237037023,1,0,0,2.5152,Diorite_rect,1,0,1,0,1,
63e5a6690eeedc20da056717,SCN,2024-06-20_13h38.16.704,LearnStrategy,2023.2.3,Win32,59.88023952,9,2,3,,,,,,,,4,01,,,,,,,,,,,7,2.92,0,,,,,,0.150000042,-0.383333347,1,0,0,2.9203,Peridotite_rect,2,0,2,0,1,
63e5a6690eeedc20da056717,SCN,2024-06-20_13h38.16.704,LearnStrategy,2023.2.3,Win32,59.88023952,9,2,4,,,,,,,,7,12,,,,,,,,,,,7,1.55,1,,,,,,0.154629672,-0.386111153,1,0,0,1.5503,Peridotite_rect,3,0,3,0,1,
63e5a6690eeedc20da056717,SCN,2024-06-20_13h38.16.704,LearnStrategy,2023.2.3,Win32,59.88023952,9,2,5,,,,,,,,7,16,,,,,,,,,,,7,11.471,1,,,,,,0.136111153,-0.396296325,1,0,0,11.4711,Peridotite_rect,4,0,4,0,1,
63e5a6690eeedc20da056717,SCN,2024-06-20_13h38.16.704,LearnStrategy,2023.2.3,Win32,59.88023952,9,2,6,,,,,,,,2,04,,,,,,,,,,,2,1.842,1,,,,,,-0.114814829,-0.243518547,1,0,0,1.8425,Basalt_rect,5,0,5,0,1,
63e5a6690eeedc20da056717,SCN,2024-06-20_13h38.16.704,LearnStrategy,2023.2.3,Win32,59.88023952,9,2,7,,,,,,,,4,03,,,,,,,,,,,4,5.19,1,,,,,,0.358333305,-0.234259288,1,0,0,5.1903,Gabbro_rect,6,0,6,0,1,
63e5a6690eeedc20da056717,SCN,2024-06-20_13h38.16.704,LearnStrategy,2023.2.3,Win32,59.88023952,9,2,8,,,,,,,,6,08,,,,,,,,,,,6,1.822,1,,,,,,-0.123148106,-0.40370369,1,0,0,1.8215,Pegmatite_rect,7,0,7,0,1,
63e5a6690eeedc20da056717,SCN,2024-06-20_13h38.16.704,LearnStrategy,2023.2.3,Win32,59.88023952,9,2,9,,,,,,,,1,01,,,,,,,,,,,4,7.076,0,,,,,,0.45648151,-0.263888889,1,0,0,7.0763,Gabbro_rect,8,0,8,0,1,
63e5a6690eeedc20da056717,SCN,2024-06-20_13h38.16.704,LearnStrategy,2023.2.3,Win32,59.88023952,9,2,10,,,,,,,,1,14,,,,,,,,,,,6,1.706,0,,,,,,-0.122222194,-0.409259302,1,0,0,1.7062,Pegmatite_rect,9,0,9,0,1,
63e5a6690eeedc20da056717,SCN,2024-06-20_13h38.16.704,LearnStrategy,2023.2.3,Win32,59.88023952,9,2,11,,,,,,,,5,08,,,,,,,,,,,5,1.284,1,,,,,,-0.395370377,-0.400000042,1,0,0,1.2835,Obsidian_rect,10,0,10,0,1,
63e5a6690eeedc20da056717,SCN,2024-06-20_13h38.16.704,LearnStrategy,2023.2.3,Win32,59.88023952,9,2,12,,,,,,,,6,06,,,,,,,,,,,6,3.348,1,,,,,,-0.145370342,-0.386111153,1,0,0,3.3481,Pegmatite_rect,11,0,11,0,1,
63e5a6690eeedc20da056717,SCN,2024-06-20_13h38.16.704,LearnStrategy,2023.2.3,Win32,59.88023952,9,2,13,,,,,,,,8,15,,,,,,,,,,,2,2.587,0,,,,,,-0.099999958,-0.231481481,1,0,0,2.587,Basalt_rect,12,0,12,0,1,
63e5a6690eeedc20da056717,SCN,2024-06-20_13h38.16.704,LearnStrategy,2023.2.3,Win32,59.88023952,9,2,14,,,,,,,,5,07,,,,,,,,,,,5,1.314,1,,,,,,-0.397222201,-0.393518519,1,0,0,1.3139,Obsidian_rect,13,0,13,0,1,
63e5a6690eeedc20da056717,SCN,2024-06-20_13h38.16.704,LearnStrategy,2023.2.3,Win32,59.88023952,9,2,15,,,,,,,,2,11,,,,,,,,,,,2,1.801,1,,,,,,-0.128703718,-0.25462963,1,0,0,1.8013,Basalt_rect,14,0,14,0,1,
63e5a6690eeedc20da056717,SCN,2024-06-20_13h38.16.704,LearnStrategy,2023.2.3,Win32,59.88023952,9,2,16,,,,,,,,3,15,,,,,,,,,,,1,2.958,0,,,,,,-0.378703683,-0.242592635,1,0,0,2.958,Andesite_rect,15,0,15,0,1,
63e5a6690eeedc20da056717,SCN,2024-06-20_13h38.16.704,LearnStrategy,2023.2.3,Win32,59.88023952,,,,,,,,,,,,,,,,,,,,,,,,,,,,,,,,,,,,,,,,,,,1
63e5a6690eeedc20da056717,SCN,2024-06-20_13h38.16.704,LearnStrategy,2023.2.3,Win32,59.88023952,,,,,,,,,,,,,,,,,,,,,,,,,,,,,,,,,,,,,,,,,,,
63e5a6690eeedc20da056717,SCN,2024-06-20_13h38.16.704,LearnStrategy,2023.2.3,Win32,59.88023952,,,,,,,,,,,4,15,1,1,,,,,,,,,,,,,,,,,,,,,,,,,,,,,
63e5a6690eeedc20da056717,SCN,2024-06-20_13h38.16.704,LearnStrategy,2023.2.3,Win32,59.88023952,,,,,,,,,,,5,14,1,2,,,,,,,,,,,,,,,,,,,,,,,,,,,,,
63e5a6690eeedc20da056717,SCN,2024-06-20_13h38.16.704,LearnStrategy,2023.2.3,Win32,59.88023952,,,,,,,,,,,3,07,1,3,,,,,,,,,,,,,,,,,,,,,,,,,,,,,
63e5a6690eeedc20da056717,SCN,2024-06-20_13h38.16.704,LearnStrategy,2023.2.3,Win32,59.88023952,,,,,,,,,,,1,16,1,4,,,,,,,,,,,,,,,,,,,,,,,,,,,,,
63e5a6690eeedc20da056717,SCN,2024-06-20_13h38.16.704,LearnStrategy,2023.2.3,Win32,59.88023952,,,,,,,,,,,2,16,1,5,,,,,,,,,,,,,,,,,,,,,,,,,,,,,
63e5a6690eeedc20da056717,SCN,2024-06-20_13h38.16.704,LearnStrategy,2023.2.3,Win32,59.88023952,,,,,,,,,,,6,05,1,6,,,,,,,,,,,,,,,,,,,,,,,,,,,,,
63e5a6690eeedc20da056717,SCN,2024-06-20_13h38.16.704,LearnStrategy,2023.2.3,Win32,59.88023952,,,,,,,,,,,3,06,1,7,,,,,,,,,,,,,,,,,,,,,,,,,,,,,
63e5a6690eeedc20da056717,SCN,2024-06-20_13h38.16.704,LearnStrategy,2023.2.3,Win32,59.88023952,,,,,,,,,,,1,09,1,8,,,,,,,,,,,,,,,,,,,,,,,,,,,,,
63e5a6690eeedc20da056717,SCN,2024-06-20_13h38.16.704,LearnStrategy,2023.2.3,Win32,59.88023952,,,,,,,,,,,1,05,2,1,,,,,,,,,,,,,,,,,,,,,,,,,,,,,
63e5a6690eeedc20da056717,SCN,2024-06-20_13h38.16.704,LearnStrategy,2023.2.3,Win32,59.88023952,,,,,,,,,,,5,16,2,2,,,,,,,,,,,,,,,,,,,,,,,,,,,,,
63e5a6690eeedc20da056717,SCN,2024-06-20_13h38.16.704,LearnStrategy,2023.2.3,Win32,59.88023952,,,,,,,,,,,6,16,2,3,,,,,,,,,,,,,,,,,,,,,,,,,,,,,
63e5a6690eeedc20da056717,SCN,2024-06-20_13h38.16.704,LearnStrategy,2023.2.3,Win32,59.88023952,,,,,,,,,,,8,06,2,4,,,,,,,,,,,,,,,,,,,,,,,,,,,,,
63e5a6690eeedc20da056717,SCN,2024-06-20_13h38.16.704,LearnStrategy,2023.2.3,Win32,59.88023952,,,,,,,,,,,8,04,2,5,,,,,,,,,,,,,,,,,,,,,,,,,,,,,
63e5a6690eeedc20da056717,SCN,2024-06-20_13h38.16.704,LearnStrategy,2023.2.3,Win32,59.88023952,,,,,,,,,,,1,03,2,6,,,,,,,,,,,,,,,,,,,,,,,,,,,,,
63e5a6690eeedc20da056717,SCN,2024-06-20_13h38.16.704,LearnStrategy,2023.2.3,Win32,59.88023952,,,,,,,,,,,1,11,2,7,,,,,,,,,,,,,,,,,,,,,,,,,,,,,
63e5a6690eeedc20da056717,SCN,2024-06-20_13h38.16.704,LearnStrategy,2023.2.3,Win32,59.88023952,,,,,,,,,,,3,14,2,8,,,,,,,,,,,,,,,,,,,,,,,,,,,,,
63e5a6690eeedc20da056717,SCN,2024-06-20_13h38.16.704,LearnStrategy,2023.2.3,Win32,59.88023952,,,,,,,,,,,1,04,3,1,,,,,,,,,,,,,,,,,,,,,,,,,,,,,
63e5a6690eeedc20da056717,SCN,2024-06-20_13h38.16.704,LearnStrategy,2023.2.3,Win32,59.88023952,,,,,,,,,,,6,15,3,2,,,,,,,,,,,,,,,,,,,,,,,,,,,,,
63e5a6690eeedc20da056717,SCN,2024-06-20_13h38.16.704,LearnStrategy,2023.2.3,Win32,59.88023952,,,,,,,,,,,2,08,3,3,,,,,,,,,,,,,,,,,,,,,,,,,,,,,
63e5a6690eeedc20da056717,SCN,2024-06-20_13h38.16.704,LearnStrategy,2023.2.3,Win32,59.88023952,,,,,,,,,,,5,04,3,4,,,,,,,,,,,,,,,,,,,,,,,,,,,,,
63e5a6690eeedc20da056717,SCN,2024-06-20_13h38.16.704,LearnStrategy,2023.2.3,Win32,59.88023952,,,,,,,,,,,4,11,3,5,,,,,,,,,,,,,,,,,,,,,,,,,,,,,
63e5a6690eeedc20da056717,SCN,2024-06-20_13h38.16.704,LearnStrategy,2023.2.3,Win32,59.88023952,,,,,,,,,,,7,06,3,6,,,,,,,,,,,,,,,,,,,,,,,,,,,,,
63e5a6690eeedc20da056717,SCN,2024-06-20_13h38.16.704,LearnStrategy,2023.2.3,Win32,59.88023952,,,,,,,,,,,2,09,3,7,,,,,,,,,,,,,,,,,,,,,,,,,,,,,
63e5a6690eeedc20da056717,SCN,2024-06-20_13h38.16.704,LearnStrategy,2023.2.3,Win32,59.88023952,,,,,,,,,,,6,12,3,8,,,,,,,,,,,,,,,,,,,,,,,,,,,,,
63e5a6690eeedc20da056717,SCN,2024-06-20_13h38.16.704,LearnStrategy,2023.2.3,Win32,59.88023952,,,,,,,,,,,7,02,4,1,,,,,,,,,,,,,,,,,,,,,,,,,,,,,
63e5a6690eeedc20da056717,SCN,2024-06-20_13h38.16.704,LearnStrategy,2023.2.3,Win32,59.88023952,,,,,,,,,,,8,14,4,2,,,,,,,,,,,,,,,,,,,,,,,,,,,,,
63e5a6690eeedc20da056717,SCN,2024-06-20_13h38.16.704,LearnStrategy,2023.2.3,Win32,59.88023952,,,,,,,,,,,3,02,4,3,,,,,,,,,,,,,,,,,,,,,,,,,,,,,
63e5a6690eeedc20da056717,SCN,2024-06-20_13h38.16.704,LearnStrategy,2023.2.3,Win32,59.88023952,,,,,,,,,,,3,16,4,4,,,,,,,,,,,,,,,,,,,,,,,,,,,,,
63e5a6690eeedc20da056717,SCN,2024-06-20_13h38.16.704,LearnStrategy,2023.2.3,Win32,59.88023952,,,,,,,,,,,5,12,4,5,,,,,,,,,,,,,,,,,,,,,,,,,,,,,
63e5a6690eeedc20da056717,SCN,2024-06-20_13h38.16.704,LearnStrategy,2023.2.3,Win32,59.88023952,,,,,,,,,,,2,05,4,6,,,,,,,,,,,,,,,,,,,,,,,,,,,,,
63e5a6690eeedc20da056717,SCN,2024-06-20_13h38.16.704,LearnStrategy,2023.2.3,Win32,59.88023952,,,,,,,,,,,7,14,4,7,,,,,,,,,,,,,,,,,,,,,,,,,,,,,
63e5a6690eeedc20da056717,SCN,2024-06-20_13h38.16.704,LearnStrategy,2023.2.3,Win32,59.88023952,,,,,,,,,,,7,13,4,8,,,,,,,,,,,,,,,,,,,,,,,,,,,,,
63e5a6690eeedc20da056717,SCN,2024-06-20_13h38.16.704,LearnStrategy,2023.2.3,Win32,59.88023952,,,,,,,,,,,8,08,5,1,,,,,,,,,,,,,,,,,,,,,,,,,,,,,
63e5a6690eeedc20da056717,SCN,2024-06-20_13h38.16.704,LearnStrategy,2023.2.3,Win32,59.88023952,,,,,,,,,,,5,10,5,2,,,,,,,,,,,,,,,,,,,,,,,,,,,,,
63e5a6690eeedc20da056717,SCN,2024-06-20_13h38.16.704,LearnStrategy,2023.2.3,Win32,59.88023952,,,,,,,,,,,2,01,5,3,,,,,,,,,,,,,,,,,,,,,,,,,,,,,
63e5a6690eeedc20da056717,SCN,2024-06-20_13h38.16.704,LearnStrategy,2023.2.3,Win32,59.88023952,,,,,,,,,,,3,10,5,4,,,,,,,,,,,,,,,,,,,,,,,,,,,,,
63e5a6690eeedc20da056717,SCN,2024-06-20_13h38.16.704,LearnStrategy,2023.2.3,Win32,59.88023952,,,,,,,,,,,6,10,5,5,,,,,,,,,,,,,,,,,,,,,,,,,,,,,
63e5a6690eeedc20da056717,SCN,2024-06-20_13h38.16.704,LearnStrategy,2023.2.3,Win32,59.88023952,,,,,,,,,,,4,09,5,6,,,,,,,,,,,,,,,,,,,,,,,,,,,,,
63e5a6690eeedc20da056717,SCN,2024-06-20_13h38.16.704,LearnStrategy,2023.2.3,Win32,59.88023952,,,,,,,,,,,2,10,5,7,,,,,,,,,,,,,,,,,,,,,,,,,,,,,
63e5a6690eeedc20da056717,SCN,2024-06-20_13h38.16.704,LearnStrategy,2023.2.3,Win32,59.88023952,,,,,,,,,,,4,12,5,8,,,,,,,,,,,,,,,,,,,,,,,,,,,,,
63e5a6690eeedc20da056717,SCN,2024-06-20_13h38.16.704,LearnStrategy,2023.2.3,Win32,59.88023952,,,,,,,,,,,5,06,6,1,,,,,,,,,,,,,,,,,,,,,,,,,,,,,
63e5a6690eeedc20da056717,SCN,2024-06-20_13h38.16.704,LearnStrategy,2023.2.3,Win32,59.88023952,,,,,,,,,,,8,03,6,2,,,,,,,,,,,,,,,,,,,,,,,,,,,,,
63e5a6690eeedc20da056717,SCN,2024-06-20_13h38.16.704,LearnStrategy,2023.2.3,Win32,59.88023952,,,,,,,,,,,4,16,6,3,,,,,,,,,,,,,,,,,,,,,,,,,,,,,
63e5a6690eeedc20da056717,SCN,2024-06-20_13h38.16.704,LearnStrategy,2023.2.3,Win32,59.88023952,,,,,,,,,,,8,16,6,4,,,,,,,,,,,,,,,,,,,,,,,,,,,,,
63e5a6690eeedc20da056717,SCN,2024-06-20_13h38.16.704,LearnStrategy,2023.2.3,Win32,59.88023952,,,,,,,,,,,6,07,6,5,,,,,,,,,,,,,,,,,,,,,,,,,,,,,
63e5a6690eeedc20da056717,SCN,2024-06-20_13h38.16.704,LearnStrategy,2023.2.3,Win32,59.88023952,,,,,,,,,,,7,05,6,6,,,,,,,,,,,,,,,,,,,,,,,,,,,,,
63e5a6690eeedc20da056717,SCN,2024-06-20_13h38.16.704,LearnStrategy,2023.2.3,Win32,59.88023952,,,,,,,,,,,7,15,6,7,,,,,,,,,,,,,,,,,,,,,,,,,,,,,
63e5a6690eeedc20da056717,SCN,2024-06-20_13h38.16.704,LearnStrategy,2023.2.3,Win32,59.88023952,,,,,,,,,,,4,10,6,8,,,,,,,,,,,,,,,,,,,,,,,,,,,,,