participant,condition,date,expName,psychopyVersion,OS,frameRate,block,phase,trial,learn_mouse.x,learn_mouse.y,learn_mouse.leftButton,learn_mouse.midButton,learn_mouse.rightButton,learn_mouse.time,learn_mouse.clicked_name,cat,token,row,col,t_select,cat_mouse_l.x,cat_mouse_l.y,cat_mouse_l.leftButton,cat_mouse_l.midButton,cat_mouse_l.rightButton,cat_mouse_l.time,cat_mouse_l.clicked_name,resp,t_resp,corr,train_trials.thisRepN,train_trials.thisTrialN,train_trials.thisN,train_trials.thisIndex,train_trials.ran,cat_mouse_t.x,cat_mouse_t.y,cat_mouse_t.leftButton,cat_mouse_t.midButton,cat_mouse_t.rightButton,cat_mouse_t.time,cat_mouse_t.clicked_name,test_trials.thisRepN,test_trials.thisTrialN,test_trials.thisN,test_trials.thisIndex,test_trials.ran,Bonus
63ffcb367b500c516d0648a2,SCN,2024-06-26_10h37.24.042,LearnStrategy,2023.2.3,Win32,14.99250375,,,,,,,,,,,,,,,,,,,,,,,,,,,,,,,,,,,,,,,,,,,
63ffcb367b500c516d0648a2,SCN,2024-06-26_10h37.24.042,LearnStrategy,2023.2.3,Win32,14.99250375,1,1,1,0.060833333,-0.065,1,0,0,1.9742,Gabbro_12,4,12,3,5,1.974,0.468333333,-0.42,1,0,0,14.3598,Pumice_rect,8,14.36,0,0,0,0,0,1,,,,,,,,,,,,,
63ffcb367b500c516d0648a2,SCN,2024-06-26_10h37.24.042,LearnStrategy,2023.2.3,Win32,14.99250375,1,1,2,-0.073333333,-0.128333333,1,0,0,2.1526,Pegmatite_05,6,05,3,4,2.153,0.431666667,-0.404166667,1,0,0,4.8742,Pumice_rect,8,4.874,0,1,0,1,0,1,,,,,,,,,,,,,
63ffcb367b500c516d0648a2,SCN,2024-06-26_10h37.24.042,LearnStrategy,2023.2.3,Win32,14.99250375,1,1,3,-0.243333333,-0.11,1,0,0,2.4041,Pumice_09,8,09,3,3,2.404,0.381666667,-0.405,1,0,0,1.1653,Pumice_rect,8,1.165,1,2,0,2,0,1,,,,,,,,,,,,,
63ffcb367b500c516d0648a2,SCN,2024-06-26_10h37.24.042,LearnStrategy,2023.2.3,Win32,14.99250375,1,1,4,-0.368333333,-0.115833333,1,0,0,1.1972,Basalt_02,2,02,3,2,1.197,-0.316666667,-0.395833333,1,0,0,4.48,Obsidian_rect,5,4.48,0,3,0,3,0,1,,,,,,,,,,,,,
63ffcb367b500c516d0648a2,SCN,2024-06-26_10h37.24.042,LearnStrategy,2023.2.3,Win32,14.99250375,1,1,5,-0.5225,-0.090833333,1,0,0,1.5876,Andesite_02,1,02,3,1,1.588,0.114166667,-0.401666667,1,0,0,4.3935,Peridotite_rect,7,4.393,0,4,0,4,0,1,,,,,,,,,,,,,
63ffcb367b500c516d0648a2,SCN,2024-06-26_10h37.24.042,LearnStrategy,2023.2.3,Win32,14.99250375,1,1,6,0.09,0.106666667,1,0,0,6.2101,Obsidian_11,5,11,4,5,6.21,-0.335833333,-0.396666667,1,0,0,3.9577,Obsidian_rect,5,3.958,1,5,0,5,0,1,,,,,,,,,,,,,
63ffcb367b500c516d0648a2,SCN,2024-06-26_10h37.24.042,LearnStrategy,2023.2.3,Win32,14.99250375,1,1,7,-0.084166667,0.39,1,0,0,5.0826,Diorite_09,3,09,6,4,5.083,-0.455,-0.253333333,1,0,0,3.2407,Andesite_rect,1,3.241,0,6,0,6,0,1,,,,,,,,,,,,,
63ffcb367b500c516d0648a2,SCN,2024-06-26_10h37.24.042,LearnStrategy,2023.2.3,Win32,14.99250375,1,1,8,-0.383333333,-0.249166667,1,0,0,5.5903,Diorite_16,3,16,2,2,5.59,0.134166667,-0.248333333,1,0,0,2.6147,Diorite_rect,3,2.615,1,7,0,7,0,1,,,,,,,,,,,,,
63ffcb367b500c516d0648a2,SCN,2024-06-26_10h37.24.042,LearnStrategy,2023.2.3,Win32,14.99250375,1,1,9,0.081666667,-0.265,1,0,0,3.581,Gabbro_11,4,11,2,5,3.581,0.366666667,-0.255833333,1,0,0,3.372,Gabbro_rect,4,3.372,1,8,0,8,0,1,,,,,,,,,,,,,
63ffcb367b500c516d0648a2,SCN,2024-06-26_10h37.24.042,LearnStrategy,2023.2.3,Win32,14.99250375,1,1,10,0.081666667,-0.396666667,1,0,0,2.276,Pumice_05,8,05,1,5,2.276,0.341666667,-0.394166667,1,0,0,1.7282,Pumice_rect,8,1.728,1,9,0,9,0,1,,,,,,,,,,,,,
63ffcb367b500c516d0648a2,SCN,2024-06-26_10h37.24.042,LearnStrategy,2023.2.3,Win32,14.99250375,1,1,11,-0.225833333,-0.4125,1,0,0,1.3978,Basalt_16,2,16,1,3,1.398,-0.125,-0.241666667,1,0,0,3.6595,Basalt_rect,2,3.66,1,10,0,10,0,1,,,,,,,,,,,,,
63ffcb367b500c516d0648a2,SCN,2024-06-26_10h37.24.042,LearnStrategy,2023.2.3,Win32,14.99250375,1,1,12,-0.224166667,0.426666667,1,0,0,2.7514,Pumice_16,8,16,6,3,2.751,-0.1575,-0.245833333,1,0,0,5.0765,Basalt_rect,2,5.077,0,11,0,11,0,1,,,,,,,,,,,,,
63ffcb367b500c516d0648a2,SCN,2024-06-26_10h37.24.042,LearnStrategy,2023.2.3,Win32,14.99250375,1,1,13,0.5375,-0.246666667,1,0,0,4.1167,Andesite_03,1,03,2,8,4.117,0.1375,-0.239166667,1,0,0,1.8246,Diorite_rect,3,1.825,0,12,0,12,0,1,,,,,,,,,,,,,
63ffcb367b500c516d0648a2,SCN,2024-06-26_10h37.24.042,LearnStrategy,2023.2.3,Win32,14.99250375,1,1,14,-0.401666667,-0.4075,1,0,0,1.8284,Pumice_02,8,02,1,2,1.828,0.396666667,-0.4,1,0,0,1.7891,Pumice_rect,8,1.789,1,13,0,13,0,1,,,,,,,,,,,,,
63ffcb367b500c516d0648a2,SCN,2024-06-26_10h37.24.042,LearnStrategy,2023.2.3,Win32,14.99250375,1,1,15,-0.541666667,-0.410833333,1,0,0,2.0492,Peridotite_04,7,04,1,1,2.049,-0.131666667,-0.4,1,0,0,2.6094,Pegmatite_rect,6,2.609,0,14,0,14,0,1,,,,,,,,,,,,,
63ffcb367b500c516d0648a2,SCN,2024-06-26_10h37.24.042,LearnStrategy,2023.2.3,Win32,14.99250375,1,1,16,-0.555,0.255,1,0,0,5.1424,Peridotite_14,7,14,5,1,5.142,-0.324166667,-0.244166667,1,0,0,1.8777,Andesite_rect,1,1.878,0,15,0,15,0,1,,,,,,,,,,,,,
63ffcb367b500c516d0648a2,SCN,2024-06-26_10h37.24.042,LearnStrategy,2023.2.3,Win32,14.99250375,1,2,1,,,,,,,,3,07,,,,,,,,,,,1,3.852,0,,,,,,-0.389166667,-0.261666667,1,0,0,3.8517,Andesite_rect,0,0,0,0,1,
63ffcb367b500c516d0648a2,SCN,2024-06-26_10h37.24.042,LearnStrategy,2023.2.3,Win32,14.99250375,1,2,2,,,,,,,,2,08,,,,,,,,,,,3,6.471,0,,,,,,0.1825,-0.251666667,1,0,0,6.4707,Diorite_rect,1,0,1,0,1,
63ffcb367b500c516d0648a2,SCN,2024-06-26_10h37.24.042,LearnStrategy,2023.2.3,Win32,14.99250375,1,2,3,,,,,,,,6,10,,,,,,,,,,,6,4.146,1,,,,,,-0.0875,-0.383333333,1,0,0,4.1456,Pegmatite_rect,2,0,2,0,1,
63ffcb367b500c516d0648a2,SCN,2024-06-26_10h37.24.042,LearnStrategy,2023.2.3,Win32,14.99250375,1,2,4,,,,,,,,8,08,,,,,,,,,,,1,3.192,0,,,,,,-0.37,-0.2575,1,0,0,3.1917,Andesite_rect,3,0,3,0,1,
63ffcb367b500c516d0648a2,SCN,2024-06-26_10h37.24.042,LearnStrategy,2023.2.3,Win32,14.99250375,1,2,5,,,,,,,,6,11,,,,,,,,,,,7,1.527,0,,,,,,0.125,-0.3925,1,0,0,1.5271,Peridotite_rect,4,0,4,0,1,
63ffcb367b500c516d0648a2,SCN,2024-06-26_10h37.24.042,LearnStrategy,2023.2.3,Win32,14.99250375,1,2,6,,,,,,,,7,05,,,,,,,,,,,3,6.645,0,,,,,,0.1625,-0.2525,1,0,0,6.6446,Diorite_rect,5,0,5,0,1,
63ffcb367b500c516d0648a2,SCN,2024-06-26_10h37.24.042,LearnStrategy,2023.2.3,Win32,14.99250375,1,2,7,,,,,,,,5,06,,,,,,,,,,,5,3.022,1,,,,,,-0.366666667,-0.409166667,1,0,0,3.022,Obsidian_rect,6,0,6,0,1,
63ffcb367b500c516d0648a2,SCN,2024-06-26_10h37.24.042,LearnStrategy,2023.2.3,Win32,14.99250375,1,2,8,,,,,,,,4,10,,,,,,,,,,,8,4.082,0,,,,,,0.430833333,-0.3925,1,0,0,4.0816,Pumice_rect,7,0,7,0,1,
63ffcb367b500c516d0648a2,SCN,2024-06-26_10h37.24.042,LearnStrategy,2023.2.3,Win32,14.99250375,1,2,9,,,,,,,,7,15,,,,,,,,,,,3,3.628,0,,,,,,0.150833333,-0.2625,1,0,0,3.6277,Diorite_rect,8,0,8,0,1,
63ffcb367b500c516d0648a2,SCN,2024-06-26_10h37.24.042,LearnStrategy,2023.2.3,Win32,14.99250375,1,2,10,,,,,,,,5,08,,,,,,,,,,,5,2.017,1,,,,,,-0.3975,-0.419166667,1,0,0,2.0173,Obsidian_rect,9,0,9,0,1,
63ffcb367b500c516d0648a2,SCN,2024-06-26_10h37.24.042,LearnStrategy,2023.2.3,Win32,14.99250375,1,2,11,,,,,,,,1,05,,,,,,,,,,,1,3.25,1,,,,,,-0.363333333,-0.241666667,1,0,0,3.2502,Andesite_rect,10,0,10,0,1,
63ffcb367b500c516d0648a2,SCN,2024-06-26_10h37.24.042,LearnStrategy,2023.2.3,Win32,14.99250375,1,2,12,,,,,,,,1,01,,,,,,,,,,,6,2.267,0,,,,,,-0.07,-0.393333333,1,0,0,2.2674,Pegmatite_rect,11,0,11,0,1,
63ffcb367b500c516d0648a2,SCN,2024-06-26_10h37.24.042,LearnStrategy,2023.2.3,Win32,14.99250375,1,2,13,,,,,,,,3,15,,,,,,,,,,,1,1.27,0,,,,,,-0.3725,-0.230833333,1,0,0,1.2696,Andesite_rect,12,0,12,0,1,
63ffcb367b500c516d0648a2,SCN,2024-06-26_10h37.24.042,LearnStrategy,2023.2.3,Win32,14.99250375,1,2,14,,,,,,,,8,04,,,,,,,,,,,3,5.204,0,,,,,,0.141666667,-0.2625,1,0,0,5.2038,Diorite_rect,13,0,13,0,1,
63ffcb367b500c516d0648a2,SCN,2024-06-26_10h37.24.042,LearnStrategy,2023.2.3,Win32,14.99250375,1,2,15,,,,,,,,4,14,,,,,,,,,,,7,2.564,0,,,,,,0.106666667,-0.421666667,1,0,0,2.564,Peridotite_rect,14,0,14,0,1,
63ffcb367b500c516d0648a2,SCN,2024-06-26_10h37.24.042,LearnStrategy,2023.2.3,Win32,14.99250375,1,2,16,,,,,,,,2,01,,,,,,,,,,,6,4.978,0,,,,,,-0.105,-0.389166667,1,0,0,4.9785,Pegmatite_rect,15,0,15,0,1,
63ffcb367b500c516d0648a2,SCN,2024-06-26_10h37.24.042,LearnStrategy,2023.2.3,Win32,14.99250375,2,1,1,0.5425,-0.400833333,1,0,0,5.4528,Pegmatite_08,6,08,1,8,5.453,-0.335833333,-0.3925,1,0,0,2.7699,Obsidian_rect,5,2.77,0,0,0,0,0,1,,,,,,,,,,,,,
63ffcb367b500c516d0648a2,SCN,2024-06-26_10h37.24.042,LearnStrategy,2023.2.3,Win32,14.99250375,2,1,2,0.398333333,-0.409166667,1,0,0,5.0008,Gabbro_01,4,01,1,7,5.001,-0.446666667,-0.244166667,1,0,0,1.9898,Andesite_rect,1,1.99,0,1,0,1,0,1,,,,,,,,,,,,,
63ffcb367b500c516d0648a2,SCN,2024-06-26_10h37.24.042,LearnStrategy,2023.2.3,Win32,14.99250375,2,1,3,-0.216666667,0.246666667,1,0,0,2.3477,Pumice_10,8,10,5,3,2.348,0.390833333,-0.4075,1,0,0,1.4384,Pumice_rect,8,1.438,1,2,0,2,0,1,,,,,,,,,,,,,
63ffcb367b500c516d0648a2,SCN,2024-06-26_10h37.24.042,LearnStrategy,2023.2.3,Win32,14.99250375,2,1,4,0.395833333,0.100833333,1,0,0,1.4107,Pegmatite_03,6,03,4,7,1.411,-0.1075,-0.3975,1,0,0,4.3009,Pegmatite_rect,6,4.301,1,3,0,3,0,1,,,,,,,,,,,,,
63ffcb367b500c516d0648a2,SCN,2024-06-26_10h37.24.042,LearnStrategy,2023.2.3,Win32,14.99250375,2,1,5,0.4075,0.421666667,1,0,0,5.3547,Pegmatite_09,6,09,6,7,5.355,-0.090833333,-0.385833333,1,0,0,2.1875,Pegmatite_rect,6,2.188,1,4,0,4,0,1,,,,,,,,,,,,,
63ffcb367b500c516d0648a2,SCN,2024-06-26_10h37.24.042,LearnStrategy,2023.2.3,Win32,14.99250375,2,1,6,0.578333333,0.3975,1,0,0,1.7277,Pegmatite_06,6,06,6,8,1.728,-0.128333333,-0.385,1,0,0,1.509,Pegmatite_rect,6,1.509,1,5,0,5,0,1,,,,,,,,,,,,,
63ffcb367b500c516d0648a2,SCN,2024-06-26_10h37.24.042,LearnStrategy,2023.2.3,Win32,14.99250375,2,1,7,0.5225,0.241666667,1,0,0,2.3014,Peridotite_07,7,07,5,8,2.301,-0.374166667,-0.251666667,1,0,0,3.2516,Andesite_rect,1,3.252,0,6,0,6,0,1,,,,,,,,,,,,,
63ffcb367b500c516d0648a2,SCN,2024-06-26_10h37.24.042,LearnStrategy,2023.2.3,Win32,14.99250375,2,1,8,0.245,-0.261666667,1,0,0,5.308,Peridotite_06,7,06,2,6,5.308,0.085833333,-0.411666667,1,0,0,3.743,Peridotite_rect,7,3.743,1,7,0,7,0,1,,,,,,,,,,,,,
63ffcb367b500c516d0648a2,SCN,2024-06-26_10h37.24.042,LearnStrategy,2023.2.3,Win32,14.99250375,2,1,9,0.385,-0.091666667,1,0,0,2.7741,Peridotite_12,7,12,3,7,2.774,0.0625,-0.3925,1,0,0,4.0705,Peridotite_rect,7,4.07,1,8,0,8,0,1,,,,,,,,,,,,,
63ffcb367b500c516d0648a2,SCN,2024-06-26_10h37.24.042,LearnStrategy,2023.2.3,Win32,14.99250375,2,1,10,0.57,-0.105,1,0,0,2.0447,Basalt_04,2,04,3,8,2.045,-0.1325,-0.255833333,1,0,0,1.5905,Basalt_rect,2,1.591,1,9,0,9,0,1,,,,,,,,,,,,,
63ffcb367b500c516d0648a2,SCN,2024-06-26_10h37.24.042,LearnStrategy,2023.2.3,Win32,14.99250375,2,1,11,0.085833333,0.243333333,1,0,0,2.3829,Basalt_06,2,06,5,5,2.383,-0.1775,-0.260833333,1,0,0,1.0134,Basalt_rect,2,1.013,1,10,0,10,0,1,,,,,,,,,,,,,
63ffcb367b500c516d0648a2,SCN,2024-06-26_10h37.24.042,LearnStrategy,2023.2.3,Win32,14.99250375,2,1,12,-0.255833333,-0.244166667,1,0,0,1.6272,Diorite_08,3,08,2,3,1.627,-0.366666667,-0.254166667,1,0,0,3.1386,Andesite_rect,1,3.139,0,11,0,11,0,1,,,,,,,,,,,,,
63ffcb367b500c516d0648a2,SCN,2024-06-26_10h37.24.042,LearnStrategy,2023.2.3,Win32,14.99250375,2,1,13,-0.045833333,-0.415833333,1,0,0,4.4703,Andesite_14,1,14,1,4,4.47,0.149166667,-0.244166667,1,0,0,3.3714,Diorite_rect,3,3.371,0,12,0,12,0,1,,,,,,,,,,,,,
63ffcb367b500c516d0648a2,SCN,2024-06-26_10h37.24.042,LearnStrategy,2023.2.3,Win32,14.99250375,2,1,14,-0.238333333,-0.415833333,1,0,0,1.627,Basalt_16,2,16,1,3,1.627,-0.150833333,-0.254166667,1,0,0,1.5089,Basalt_rect,2,1.509,1,13,0,13,0,1,,,,,,,,,,,,,
63ffcb367b500c516d0648a2,SCN,2024-06-26_10h37.24.042,LearnStrategy,2023.2.3,Win32,14.99250375,2,1,15,-0.4075,-0.410833333,1,0,0,1.2393,Pumice_02,8,02,1,2,1.239,0.449166667,-0.3975,1,0,0,1.7767,Pumice_rect,8,1.777,1,14,0,14,0,1,,,,,,,,,,,,,
63ffcb367b500c516d0648a2,SCN,2024-06-26_10h37.24.042,LearnStrategy,2023.2.3,Win32,14.99250375,2,1,16,-0.540833333,-0.395,1,0,0,1.0881,Peridotite_04,7,04,1,1,1.088,-0.351666667,-0.245833333,1,0,0,8.0913,Andesite_rect,1,8.091,0,15,0,15,0,1,,,,,,,,,,,,,
63ffcb367b500c516d0648a2,SCN,2024-06-26_10h37.24.042,LearnStrategy,2023.2.3,Win32,14.99250375,2,2,1,,,,,,,,3,10,,,,,,,,,,,1,13.112,0,,,,,,-0.329166667,-0.245,1,0,0,13.1125,Andesite_rect,0,0,0,0,1,
63ffcb367b500c516d0648a2,SCN,2024-06-26_10h37.24.042,LearnStrategy,2023.2.3,Win32,14.99250375,2,2,2,,,,,,,,5,10,,,,,,,,,,,5,1.862,1,,,,,,-0.353333333,-0.3925,1,0,0,1.8619,Obsidian_rect,1,0,1,0,1,
63ffcb367b500c516d0648a2,SCN,2024-06-26_10h37.24.042,LearnStrategy,2023.2.3,Win32,14.99250375,2,2,3,,,,,,,,6,16,,,,,,,,,,,6,8.154,1,,,,,,-0.1175,-0.400833333,1,0,0,8.1538,Pegmatite_rect,2,0,2,0,1,
63ffcb367b500c516d0648a2,SCN,2024-06-26_10h37.24.042,LearnStrategy,2023.2.3,Win32,14.99250375,2,2,4,,,,,,,,1,04,,,,,,,,,,,3,3.642,0,,,,,,0.130833333,-0.244166667,1,0,0,3.6423,Diorite_rect,3,0,3,0,1,
63ffcb367b500c516d0648a2,SCN,2024-06-26_10h37.24.042,LearnStrategy,2023.2.3,Win32,14.99250375,2,2,5,,,,,,,,4,03,,,,,,,,,,,3,4.597,0,,,,,,0.128333333,-0.269166667,1,0,0,4.5973,Diorite_rect,4,0,4,0,1,
63ffcb367b500c516d0648a2,SCN,2024-06-26_10h37.24.042,LearnStrategy,2023.2.3,Win32,14.99250375,2,2,6,,,,,,,,6,15,,,,,,,,,,,6,1.603,1,,,,,,-0.106666667,-0.391666667,1,0,0,1.6025,Pegmatite_rect,5,0,5,0,1,
63ffcb367b500c516d0648a2,SCN,2024-06-26_10h37.24.042,LearnStrategy,2023.2.3,Win32,14.99250375,2,2,7,,,,,,,,7,13,,,,,,,,,,,7,4.495,1,,,,,,0.139166667,-0.378333333,1,0,0,4.4945,Peridotite_rect,6,0,6,0,1,
63ffcb367b500c516d0648a2,SCN,2024-06-26_10h37.24.042,LearnStrategy,2023.2.3,Win32,14.99250375,2,2,8,,,,,,,,2,05,,,,,,,,,,,2,1.335,1,,,,,,-0.158333333,-0.25,1,0,0,1.3355,Basalt_rect,7,0,7,0,1,
63ffcb367b500c516d0648a2,SCN,2024-06-26_10h37.24.042,LearnStrategy,2023.2.3,Win32,14.99250375,2,2,9,,,,,,,,8,14,,,,,,,,,,,8,1.44,1,,,,,,0.438333333,-0.385833333,1,0,0,1.4402,Pumice_rect,8,0,8,0,1,
63ffcb367b500c516d0648a2,SCN,2024-06-26_10h37.24.042,LearnStrategy,2023.2.3,Win32,14.99250375,2,2,10,,,,,,,,2,10,,,,,,,,,,,2,1.833,1,,,,,,-0.111666667,-0.2575,1,0,0,1.8326,Basalt_rect,9,0,9,0,1,
63ffcb367b500c516d0648a2,SCN,2024-06-26_10h37.24.042,LearnStrategy,2023.2.3,Win32,14.99250375,2,2,11,,,,,,,,3,13,,,,,,,,,,,1,3.121,0,,,,,,-0.333333333,-0.254166667,1,0,0,3.121,Andesite_rect,10,0,10,0,1,
63ffcb367b500c516d0648a2,SCN,2024-06-26_10h37.24.042,LearnStrategy,2023.2.3,Win32,14.99250375,2,2,12,,,,,,,,5,09,,,,,,,,,,,5,1.232,1,,,,,,-0.366666667,-0.400833333,1,0,0,1.2316,Obsidian_rect,11,0,11,0,1,
63ffcb367b500c516d0648a2,SCN,2024-06-26_10h37.24.042,LearnStrategy,2023.2.3,Win32,14.99250375,2,2,13,,,,,,,,4,16,,,,,,,,,,,2,3.556,0,,,,,,-0.085833333,-0.265,1,0,0,3.5558,Basalt_rect,12,0,12,0,1,
63ffcb367b500c516d0648a2,SCN,2024-06-26_10h37.24.042,LearnStrategy,2023.2.3,Win32,14.99250375,2,2,14,,,,,,,,8,06,,,,,,,,,,,8,2.408,1,,,,,,0.435833333,-0.3825,1,0,0,2.4082,Pumice_rect,13,0,13,0,1,
63ffcb367b500c516d0648a2,SCN,2024-06-26_10h37.24.042,LearnStrategy,2023.2.3,Win32,14.99250375,2,2,15,,,,,,,,1,10,,,,,,,,,,,3,4.43,0,,,,,,0.139166667,-0.24,1,0,0,4.4295,Diorite_rect,14,0,14,0,1,
63ffcb367b500c516d0648a2,SCN,2024-06-26_10h37.24.042,LearnStrategy,2023.2.3,Win32,14.99250375,2,2,16,,,,,,,,7,02,,,,,,,,,,,7,2.572,1,,,,,,0.124166667,-0.4075,1,0,0,2.5717,Peridotite_rect,15,0,15,0,1,
63ffcb367b500c516d0648a2,SCN,2024-06-26_10h37.24.042,LearnStrategy,2023.2.3,Win32,14.99250375,3,1,1,0.3975,-0.389166667,1,0,0,7.7223,Gabbro_01,4,01,1,7,7.722,0.159166667,-0.254166667,1,0,0,36.3497,Diorite_rect,3,36.35,0,0,0,0,0,1,,,,,,,,,,,,,
63ffcb367b500c516d0648a2,SCN,2024-06-26_10h37.24.042,LearnStrategy,2023.2.3,Win32,14.99250375,3,1,2,0.403333333,-0.2475,1,0,0,3.6894,Andesite_16,1,16,2,7,3.689,0.389166667,-0.244166667,1,0,0,2.3841,Gabbro_rect,4,2.384,0,1,0,1,0,1,,,,,,,,,,,,,
63ffcb367b500c516d0648a2,SCN,2024-06-26_10h37.24.042,LearnStrategy,2023.2.3,Win32,14.99250375,3,1,3,0.405833333,-0.390833333,1,0,0,1.6479,Gabbro_01,4,01,1,7,1.648,0.3975,-0.241666667,1,0,0,4.3447,Gabbro_rect,4,4.345,1,2,0,2,0,1,,,,,,,,,,,,,
63ffcb367b500c516d0648a2,SCN,2024-06-26_10h37.24.042,LearnStrategy,2023.2.3,Win32,14.99250375,3,1,4,0.5425,0.270833333,1,0,0,2.5084,Peridotite_07,7,07,5,8,2.508,0.38,-0.2525,1,0,0,2.5858,Gabbro_rect,4,2.586,0,3,0,3,0,1,,,,,,,,,,,,,
63ffcb367b500c516d0648a2,SCN,2024-06-26_10h37.24.042,LearnStrategy,2023.2.3,Win32,14.99250375,3,1,5,-0.53,-0.22,1,0,0,3.106,Andesite_11,1,11,2,1,3.106,0.1125,-0.243333333,1,0,0,4.0548,Diorite_rect,3,4.055,0,4,0,4,0,1,,,,,,,,,,,,,
63ffcb367b500c516d0648a2,SCN,2024-06-26_10h37.24.042,LearnStrategy,2023.2.3,Win32,14.99250375,3,1,6,-0.5375,-0.419166667,1,0,0,2.7213,Peridotite_04,7,04,1,1,2.721,0.108333333,-0.246666667,1,0,0,1.1936,Diorite_rect,3,1.194,0,5,0,5,0,1,,,,,,,,,,,,,
63ffcb367b500c516d0648a2,SCN,2024-06-26_10h37.24.042,LearnStrategy,2023.2.3,Win32,14.99250375,3,1,7,-0.368333333,0.256666667,1,0,0,2.1585,Peridotite_08,7,08,5,2,2.159,0.159166667,-0.3825,1,0,0,3.4744,Peridotite_rect,7,3.474,1,6,0,6,0,1,,,,,,,,,,,,,
63ffcb367b500c516d0648a2,SCN,2024-06-26_10h37.24.042,LearnStrategy,2023.2.3,Win32,14.99250375,3,1,8,-0.251666667,0.128333333,1,0,0,1.6683,Diorite_14,3,14,4,3,1.668,-0.356666667,-0.241666667,1,0,0,2.6249,Andesite_rect,1,2.625,0,7,0,7,0,1,,,,,,,,,,,,,
63ffcb367b500c516d0648a2,SCN,2024-06-26_10h37.24.042,LearnStrategy,2023.2.3,Win32,14.99250375,3,1,9,-0.539166667,0.398333333,1,0,0,1.5375,Diorite_06,3,06,6,1,1.538,0.133333333,-0.258333333,1,0,0,6.7502,Diorite_rect,3,6.75,1,8,0,8,0,1,,,,,,,,,,,,,
63ffcb367b500c516d0648a2,SCN,2024-06-26_10h37.24.042,LearnStrategy,2023.2.3,Win32,14.99250375,3,1,10,-0.240833333,-0.265833333,1,0,0,2.5574,Diorite_08,3,08,2,3,2.557,0.071666667,-0.236666667,1,0,0,2.1485,Diorite_rect,3,2.149,1,9,0,9,0,1,,,,,,,,,,,,,
63ffcb367b500c516d0648a2,SCN,2024-06-26_10h37.24.042,LearnStrategy,2023.2.3,Win32,14.99250375,3,1,11,-0.37,-0.274166667,1,0,0,1.225,Diorite_16,3,16,2,2,1.225,0.146666667,-0.235,1,0,0,1.1832,Diorite_rect,3,1.183,1,10,0,10,0,1,,,,,,,,,,,,,
63ffcb367b500c516d0648a2,SCN,2024-06-26_10h37.24.042,LearnStrategy,2023.2.3,Win32,14.99250375,3,1,12,-0.0775,-0.125833333,1,0,0,2.2196,Pegmatite_05,6,05,3,4,2.22,-0.106666667,-0.383333333,1,0,0,2.611,Pegmatite_rect,6,2.611,1,11,0,11,0,1,,,,,,,,,,,,,
63ffcb367b500c516d0648a2,SCN,2024-06-26_10h37.24.042,LearnStrategy,2023.2.3,Win32,14.99250375,3,1,13,0.255833333,-0.274166667,1,0,0,4.2862,Peridotite_06,7,06,2,6,4.286,0.113333333,-0.399166667,1,0,0,6.4465,Peridotite_rect,7,6.447,1,12,0,12,0,1,,,,,,,,,,,,,
63ffcb367b500c516d0648a2,SCN,2024-06-26_10h37.24.042,LearnStrategy,2023.2.3,Win32,14.99250375,3,1,14,0.581666667,-0.223333333,1,0,0,2.8756,Andesite_03,1,03,2,8,2.876,0.379166667,-0.26,1,0,0,2.6604,Gabbro_rect,4,2.66,0,13,0,13,0,1,,,,,,,,,,,,,
63ffcb367b500c516d0648a2,SCN,2024-06-26_10h37.24.042,LearnStrategy,2023.2.3,Win32,14.99250375,3,1,15,-0.406666667,0.2375,1,0,0,2.5952,Peridotite_08,7,08,5,2,2.595,0.161666667,-0.405833333,1,0,0,2.9374,Peridotite_rect,7,2.937,1,14,0,14,0,1,,,,,,,,,,,,,
63ffcb367b500c516d0648a2,SCN,2024-06-26_10h37.24.042,LearnStrategy,2023.2.3,Win32,14.99250375,3,1,16,0.249166667,0.409166667,1,0,0,3.4485,Obsidian_05,5,05,6,6,3.448,-0.08,-0.3975,1,0,0,3.9596,Pegmatite_rect,6,3.96,0,15,0,15,0,1,,,,,,,,,,,,,
63ffcb367b500c516d0648a2,SCN,2024-06-26_10h37.24.042,LearnStrategy,2023.2.3,Win32,14.99250375,3,2,1,,,,,,,,7,10,,,,,,,,,,,7,6.139,1,,,,,,0.1625,-0.401666667,1,0,0,6.1388,Peridotite_rect,0,0,0,0,1,
63ffcb367b500c516d0648a2,SCN,2024-06-26_10h37.24.042,LearnStrategy,2023.2.3,Win32,14.99250375,3,2,2,,,,,,,,5,02,,,,,,,,,,,5,1.592,1,,,,,,-0.458333333,-0.3875,1,0,0,1.5916,Obsidian_rect,1,0,1,0,1,
63ffcb367b500c516d0648a2,SCN,2024-06-26_10h37.24.042,LearnStrategy,2023.2.3,Win32,14.99250375,3,2,3,,,,,,,,6,07,,,,,,,,,,,6,4.656,1,,,,,,-0.1175,-0.405,1,0,0,4.6561,Pegmatite_rect,2,0,2,0,1,
63ffcb367b500c516d0648a2,SCN,2024-06-26_10h37.24.042,LearnStrategy,2023.2.3,Win32,14.99250375,3,2,4,,,,,,,,8,15,,,,,,,,,,,8,4.101,1,,,,,,0.415833333,-0.408333333,1,0,0,4.1005,Pumice_rect,3,0,3,0,1,
63ffcb367b500c516d0648a2,SCN,2024-06-26_10h37.24.042,LearnStrategy,2023.2.3,Win32,14.99250375,3,2,5,,,,,,,,2,14,,,,,,,,,,,8,6.799,0,,,,,,0.3725,-0.385833333,1,0,0,6.7989,Pumice_rect,4,0,4,0,1,
63ffcb367b500c516d0648a2,SCN,2024-06-26_10h37.24.042,LearnStrategy,2023.2.3,Win32,14.99250375,3,2,6,,,,,,,,7,16,,,,,,,,,,,7,4.073,1,,,,,,0.115,-0.405833333,1,0,0,4.0729,Peridotite_rect,5,0,5,0,1,
63ffcb367b500c516d0648a2,SCN,2024-06-26_10h37.24.042,LearnStrategy,2023.2.3,Win32,14.99250375,3,2,7,,,,,,,,2,12,,,,,,,,,,,2,6.466,1,,,,,,-0.109166667,-0.245833333,1,0,0,6.4658,Basalt_rect,6,0,6,0,1,
63ffcb367b500c516d0648a2,SCN,2024-06-26_10h37.24.042,LearnStrategy,2023.2.3,Win32,14.99250375,3,2,8,,,,,,,,8,13,,,,,,,,,,,8,3.3,1,,,,,,0.363333333,-0.388333333,1,0,0,3.2999,Pumice_rect,7,0,7,0,1,
63ffcb367b500c516d0648a2,SCN,2024-06-26_10h37.24.042,LearnStrategy,2023.2.3,Win32,14.99250375,3,2,9,,,,,,,,4,08,,,,,,,,,,,1,8.332,0,,,,,,-0.326666667,-0.249166667,1,0,0,8.3315,Andesite_rect,8,0,8,0,1,
63ffcb367b500c516d0648a2,SCN,2024-06-26_10h37.24.042,LearnStrategy,2023.2.3,Win32,14.99250375,3,2,10,,,,,,,,5,07,,,,,,,,,,,5,6.78,1,,,,,,-0.403333333,-0.378333333,1,0,0,6.7803,Obsidian_rect,9,0,9,0,1,
63ffcb367b500c516d0648a2,SCN,2024-06-26_10h37.24.042,LearnStrategy,2023.2.3,Win32,14.99250375,3,2,11,,,,,,,,3,11,,,,,,,,,,,3,1.42,1,,,,,,0.128333333,-0.231666667,1,0,0,1.4197,Diorite_rect,10,0,10,0,1,
63ffcb367b500c516d0648a2,SCN,2024-06-26_10h37.24.042,LearnStrategy,2023.2.3,Win32,14.99250375,3,2,12,,,,,,,,1,06,,,,,,,,,,,1,4.128,1,,,,,,-0.378333333,-0.255,1,0,0,4.1277,Andesite_rect,11,0,11,0,1,
63ffcb367b500c516d0648a2,SCN,2024-06-26_10h37.24.042,LearnStrategy,2023.2.3,Win32,14.99250375,3,2,13,,,,,,,,4,09,,,,,,,,,,,2,2.482,0,,,,,,-0.150833333,-0.259166667,1,0,0,2.4817,Basalt_rect,12,0,12,0,1,
63ffcb367b500c516d0648a2,SCN,2024-06-26_10h37.24.042,LearnStrategy,2023.2.3,Win32,14.99250375,3,2,14,,,,,,,,6,13,,,,,,,,,,,6,4.75,1,,,,,,-0.120833333,-0.404166667,1,0,0,4.7505,Pegmatite_rect,13,0,13,0,1,
63ffcb367b500c516d0648a2,SCN,2024-06-26_10h37.24.042,LearnStrategy,2023.2.3,Win32,14.99250375,3,2,15,,,,,,,,3,02,,,,,,,,,,,3,1.639,1,,,,,,0.061666667,-0.238333333,1,0,0,1.6389,Diorite_rect,14,0,14,0,1,
63ffcb367b500c516d0648a2,SCN,2024-06-26_10h37.24.042,LearnStrategy,2023.2.3,Win32,14.99250375,3,2,16,,,,,,,,1,09,,,,,,,,,,,6,2.049,0,,,,,,-0.139166667,-0.3925,1,0,0,2.0495,Pegmatite_rect,15,0,15,0,1,
63ffcb367b500c516d0648a2,SCN,2024-06-26_10h37.24.042,LearnStrategy,2023.2.3,Win32,14.99250375,4,1,1,0.414166667,-0.409166667,1,0,0,15.1436,Gabbro_01,4,01,1,7,15.144,0.379166667,-0.2575,1,0,0,2.6795,Gabbro_rect,4,2.679,1,0,0,0,0,1,,,,,,,,,,,,,
63ffcb367b500c516d0648a2,SCN,2024-06-26_10h37.24.042,LearnStrategy,2023.2.3,Win32,14.99250375,4,1,2,0.415833333,-0.2625,1,0,0,2.2335,Andesite_16,1,16,2,7,2.234,0.3475,-0.236666667,1,0,0,2.0449,Gabbro_rect,4,2.045,0,1,0,1,0,1,,,,,,,,,,,,,
63ffcb367b500c516d0648a2,SCN,2024-06-26_10h37.24.042,LearnStrategy,2023.2.3,Win32,14.99250375,4,1,3,0.535,0.411666667,1,0,0,2.7749,Pegmatite_06,6,06,6,8,2.775,-0.143333333,-0.389166667,1,0,0,2.6829,Pegmatite_rect,6,2.683,1,2,0,2,0,1,,,,,,,,,,,,,
63ffcb367b500c516d0648a2,SCN,2024-06-26_10h37.24.042,LearnStrategy,2023.2.3,Win32,14.99250375,4,1,4,0.388333333,0.435833333,1,0,0,1.8424,Pegmatite_09,6,09,6,7,1.842,-0.136666667,-0.386666667,1,0,0,1.6114,Pegmatite_rect,6,1.611,1,3,0,3,0,1,,,,,,,,,,,,,
63ffcb367b500c516d0648a2,SCN,2024-06-26_10h37.24.042,LearnStrategy,2023.2.3,Win32,14.99250375,4,1,5,0.251666667,0.4175,1,0,0,1.2128,Obsidian_05,5,05,6,6,1.213,-0.414166667,-0.3975,1,0,0,2.0586,Obsidian_rect,5,2.059,1,4,0,4,0,1,,,,,,,,,,,,,
63ffcb367b500c516d0648a2,SCN,2024-06-26_10h37.24.042,LearnStrategy,2023.2.3,Win32,14.99250375,4,1,6,0.0675,0.4225,1,0,0,1.6936,Obsidian_16,5,16,6,5,1.694,-0.388333333,-0.381666667,1,0,0,1.5635,Obsidian_rect,5,1.563,1,5,0,5,0,1,,,,,,,,,,,,,
63ffcb367b500c516d0648a2,SCN,2024-06-26_10h37.24.042,LearnStrategy,2023.2.3,Win32,14.99250375,4,1,7,-0.0875,0.379166667,1,0,0,1.2544,Diorite_09,3,09,6,4,1.254,0.099166667,-0.238333333,1,0,0,1.2572,Diorite_rect,3,1.257,1,6,0,6,0,1,,,,,,,,,,,,,
63ffcb367b500c516d0648a2,SCN,2024-06-26_10h37.24.042,LearnStrategy,2023.2.3,Win32,14.99250375,4,1,8,-0.2275,0.408333333,1,0,0,1.1018,Pumice_16,8,16,6,3,1.102,0.365833333,-0.406666667,1,0,0,1.2076,Pumice_rect,8,1.208,1,7,0,7,0,1,,,,,,,,,,,,,
63ffcb367b500c516d0648a2,SCN,2024-06-26_10h37.24.042,LearnStrategy,2023.2.3,Win32,14.99250375,4,1,9,-0.366666667,0.404166667,1,0,0,2.0647,Basalt_09,2,09,6,2,2.065,-0.425833333,-0.243333333,1,0,0,1.5909,Andesite_rect,1,1.591,0,8,0,8,0,1,,,,,,,,,,,,,
63ffcb367b500c516d0648a2,SCN,2024-06-26_10h37.24.042,LearnStrategy,2023.2.3,Win32,14.99250375,4,1,10,-0.520833333,0.385833333,1,0,0,1.1981,Diorite_06,3,06,6,1,1.198,0.1075,-0.253333333,1,0,0,2.9151,Diorite_rect,3,2.915,1,9,0,9,0,1,,,,,,,,,,,,,
63ffcb367b500c516d0648a2,SCN,2024-06-26_10h37.24.042,LearnStrategy,2023.2.3,Win32,14.99250375,4,1,11,-0.5375,0.235833333,1,0,0,1.2357,Peridotite_14,7,14,5,1,1.236,-0.106666667,-0.395833333,1,0,0,8.559,Pegmatite_rect,6,8.559,0,10,0,10,0,1,,,,,,,,,,,,,
63ffcb367b500c516d0648a2,SCN,2024-06-26_10h37.24.042,LearnStrategy,2023.2.3,Win32,14.99250375,4,1,12,-0.4225,0.258333333,1,0,0,1.0842,Peridotite_08,7,08,5,2,1.084,0.175833333,-0.405833333,1,0,0,1.6257,Peridotite_rect,7,1.626,1,11,0,11,0,1,,,,,,,,,,,,,
63ffcb367b500c516d0648a2,SCN,2024-06-26_10h37.24.042,LearnStrategy,2023.2.3,Win32,14.99250375,4,1,13,-0.2275,0.25,1,0,0,1.6809,Pumice_10,8,10,5,3,1.681,0.364166667,-0.39,1,0,0,2.5653,Pumice_rect,8,2.565,1,12,0,12,0,1,,,,,,,,,,,,,
63ffcb367b500c516d0648a2,SCN,2024-06-26_10h37.24.042,LearnStrategy,2023.2.3,Win32,14.99250375,4,1,14,-0.07,0.2375,1,0,0,2.0468,Pegmatite_12,6,12,5,4,2.047,-0.099166667,-0.405833333,1,0,0,3.0496,Pegmatite_rect,6,3.05,1,13,0,13,0,1,,,,,,,,,,,,,
63ffcb367b500c516d0648a2,SCN,2024-06-26_10h37.24.042,LearnStrategy,2023.2.3,Win32,14.99250375,4,1,15,0.086666667,0.241666667,1,0,0,2.0474,Basalt_06,2,06,5,5,2.047,-0.111666667,-0.241666667,1,0,0,1.2362,Basalt_rect,2,1.236,1,14,0,14,0,1,,,,,,,,,,,,,
63ffcb367b500c516d0648a2,SCN,2024-06-26_10h37.24.042,LearnStrategy,2023.2.3,Win32,14.99250375,4,1,16,0.213333333,0.235833333,1,0,0,2.8618,Obsidian_12,5,12,5,6,2.862,-0.368333333,-0.394166667,1,0,0,3.3928,Obsidian_rect,5,3.393,1,15,0,15,0,1,,,,,,,,,,,,,
63ffcb367b500c516d0648a2,SCN,2024-06-26_10h37.24.042,LearnStrategy,2023.2.3,Win32,14.99250375,4,2,1,,,,,,,,1,10,,,,,,,,,,,1,7.657,1,,,,,,-0.354166667,-0.253333333,1,0,0,7.6574,Andesite_rect,0,0,0,0,1,
63ffcb367b500c516d0648a2,SCN,2024-06-26_10h37.24.042,LearnStrategy,2023.2.3,Win32,14.99250375,4,2,2,,,,,,,,8,13,,,,,,,,,,,8,2.598,1,,,,,,0.4,-0.396666667,1,0,0,2.598,Pumice_rect,1,0,1,0,1,
63ffcb367b500c516d0648a2,SCN,2024-06-26_10h37.24.042,LearnStrategy,2023.2.3,Win32,14.99250375,4,2,3,,,,,,,,6,16,,,,,,,,,,,6,3.011,1,,,,,,-0.135,-0.401666667,1,0,0,3.0114,Pegmatite_rect,2,0,2,0,1,
63ffcb367b500c516d0648a2,SCN,2024-06-26_10h37.24.042,LearnStrategy,2023.2.3,Win32,14.99250375,4,2,4,,,,,,,,8,06,,,,,,,,,,,8,1.633,1,,,,,,0.401666667,-0.388333333,1,0,0,1.6327,Pumice_rect,3,0,3,0,1,
63ffcb367b500c516d0648a2,SCN,2024-06-26_10h37.24.042,LearnStrategy,2023.2.3,Win32,14.99250375,4,2,5,,,,,,,,2,08,,,,,,,,,,,2,1.153,1,,,,,,-0.105,-0.256666667,1,0,0,1.1534,Basalt_rect,4,0,4,0,1,
63ffcb367b500c516d0648a2,SCN,2024-06-26_10h37.24.042,LearnStrategy,2023.2.3,Win32,14.99250375,4,2,6,,,,,,,,4,09,,,,,,,,,,,2,3.252,0,,,,,,-0.1025,-0.236666667,1,0,0,3.2522,Basalt_rect,5,0,5,0,1,
63ffcb367b500c516d0648a2,SCN,2024-06-26_10h37.24.042,LearnStrategy,2023.2.3,Win32,14.99250375,4,2,7,,,,,,,,5,07,,,,,,,,,,,5,1.717,1,,,,,,-0.333333333,-0.381666667,1,0,0,1.7169,Obsidian_rect,6,0,6,0,1,
63ffcb367b500c516d0648a2,SCN,2024-06-26_10h37.24.042,LearnStrategy,2023.2.3,Win32,14.99250375,4,2,8,,,,,,,,7,16,,,,,,,,,,,7,2.308,1,,,,,,0.146666667,-0.390833333,1,0,0,2.308,Peridotite_rect,7,0,7,0,1,
63ffcb367b500c516d0648a2,SCN,2024-06-26_10h37.24.042,LearnStrategy,2023.2.3,Win32,14.99250375,4,2,9,,,,,,,,4,08,,,,,,,,,,,2,7.098,0,,,,,,-0.093333333,-0.238333333,1,0,0,7.0979,Basalt_rect,8,0,8,0,1,
63ffcb367b500c516d0648a2,SCN,2024-06-26_10h37.24.042,LearnStrategy,2023.2.3,Win32,14.99250375,4,2,10,,,,,,,,5,09,,,,,,,,,,,5,1.5,1,,,,,,-0.350833333,-0.3825,1,0,0,1.5003,Obsidian_rect,9,0,9,0,1,
63ffcb367b500c516d0648a2,SCN,2024-06-26_10h37.24.042,LearnStrategy,2023.2.3,Win32,14.99250375,4,2,11,,,,,,,,7,15,,,,,,,,,,,7,1.419,1,,,,,,0.110833333,-0.385,1,0,0,1.4193,Peridotite_rect,10,0,10,0,1,
63ffcb367b500c516d0648a2,SCN,2024-06-26_10h37.24.042,LearnStrategy,2023.2.3,Win32,14.99250375,4,2,12,,,,,,,,3,07,,,,,,,,,,,3,1.28,1,,,,,,0.135833333,-0.256666667,1,0,0,1.2801,Diorite_rect,11,0,11,0,1,
63ffcb367b500c516d0648a2,SCN,2024-06-26_10h37.24.042,LearnStrategy,2023.2.3,Win32,14.99250375,4,2,13,,,,,,,,1,01,,,,,,,,,,,2,2.998,0,,,,,,-0.135833333,-0.253333333,1,0,0,2.9979,Basalt_rect,12,0,12,0,1,
63ffcb367b500c516d0648a2,SCN,2024-06-26_10h37.24.042,LearnStrategy,2023.2.3,Win32,14.99250375,4,2,14,,,,,,,,3,10,,,,,,,,,,,3,1.431,1,,,,,,0.134166667,-0.256666667,1,0,0,1.4311,Diorite_rect,13,0,13,0,1,
63ffcb367b500c516d0648a2,SCN,2024-06-26_10h37.24.042,LearnStrategy,2023.2.3,Win32,14.99250375,4,2,15,,,,,,,,2,01,,,,,,,,,,,2,1.186,1,,,,,,-0.11,-0.240833333,1,0,0,1.1859,Basalt_rect,14,0,14,0,1,
63ffcb367b500c516d0648a2,SCN,2024-06-26_10h37.24.042,LearnStrategy,2023.2.3,Win32,14.99250375,4,2,16,,,,,,,,6,11,,,,,,,,,,,6,1.715,1,,,,,,-0.134166667,-0.41,1,0,0,1.7153,Pegmatite_rect,15,0,15,0,1,
63ffcb367b500c516d0648a2,SCN,2024-06-26_10h37.24.042,LearnStrategy,2023.2.3,Win32,14.99250375,5,1,1,0.385,0.256666667,1,0,0,1.8289,Diorite_12,3,12,5,7,1.829,0.181666667,-0.255833333,1,0,0,1.2898,Diorite_rect,3,1.29,1,0,0,0,0,1,,,,,,,,,,,,,
63ffcb367b500c516d0648a2,SCN,2024-06-26_10h37.24.042,LearnStrategy,2023.2.3,Win32,14.99250375,5,1,2,0.558333333,0.2475,1,0,0,1.2226,Peridotite_07,7,07,5,8,1.223,0.170833333,-0.394166667,1,0,0,1.3803,Peridotite_rect,7,1.38,1,1,0,1,0,1,,,,,,,,,,,,,
63ffcb367b500c516d0648a2,SCN,2024-06-26_10h37.24.042,LearnStrategy,2023.2.3,Win32,14.99250375,5,1,3,-0.539166667,0.0875,1,0,0,1.1958,Gabbro_15,4,15,4,1,1.196,0.374166667,-0.259166667,1,0,0,6.401,Gabbro_rect,4,6.401,1,2,0,2,0,1,,,,,,,,,,,,,
63ffcb367b500c516d0648a2,SCN,2024-06-26_10h37.24.042,LearnStrategy,2023.2.3,Win32,14.99250375,5,1,4,-0.384166667,0.0875,1,0,0,1.2485,Obsidian_04,5,04,4,2,1.248,-0.440833333,-0.403333333,1,0,0,2.6076,Obsidian_rect,5,2.608,1,3,0,3,0,1,,,,,,,,,,,,,
63ffcb367b500c516d0648a2,SCN,2024-06-26_10h37.24.042,LearnStrategy,2023.2.3,Win32,14.99250375,5,1,5,-0.229166667,0.1,1,0,0,1.2684,Diorite_14,3,14,4,3,1.268,0.135833333,-0.256666667,1,0,0,1.1986,Diorite_rect,3,1.199,1,4,0,4,0,1,,,,,,,,,,,,,
63ffcb367b500c516d0648a2,SCN,2024-06-26_10h37.24.042,LearnStrategy,2023.2.3,Win32,14.99250375,5,1,6,-0.056666667,0.09,1,0,0,1.9154,Andesite_07,1,07,4,4,1.915,0.381666667,-0.253333333,1,0,0,2.8966,Gabbro_rect,4,2.897,0,5,0,5,0,1,,,,,,,,,,,,,
63ffcb367b500c516d0648a2,SCN,2024-06-26_10h37.24.042,LearnStrategy,2023.2.3,Win32,14.99250375,5,1,7,0.076666667,0.086666667,1,0,0,1.026,Obsidian_11,5,11,4,5,1.026,-0.386666667,-0.385833333,1,0,0,1.8541,Obsidian_rect,5,1.854,1,6,0,6,0,1,,,,,,,,,,,,,
63ffcb367b500c516d0648a2,SCN,2024-06-26_10h37.24.042,LearnStrategy,2023.2.3,Win32,14.99250375,5,1,8,0.2475,0.085833333,1,0,0,1.0187,Gabbro_13,4,13,4,6,1.019,0.3725,-0.246666667,1,0,0,3.351,Gabbro_rect,4,3.351,1,7,0,7,0,1,,,,,,,,,,,,,
63ffcb367b500c516d0648a2,SCN,2024-06-26_10h37.24.042,LearnStrategy,2023.2.3,Win32,14.99250375,5,1,9,0.38,0.0875,1,0,0,1.81,Pegmatite_03,6,03,4,7,1.81,-0.1175,-0.394166667,1,0,0,2.228,Pegmatite_rect,6,2.228,1,8,0,8,0,1,,,,,,,,,,,,,
63ffcb367b500c516d0648a2,SCN,2024-06-26_10h37.24.042,LearnStrategy,2023.2.3,Win32,14.99250375,5,1,10,0.585833333,0.088333333,1,0,0,1.2733,Obsidian_14,5,14,4,8,1.273,-0.39,-0.404166667,1,0,0,1.6086,Obsidian_rect,5,1.609,1,9,0,9,0,1,,,,,,,,,,,,,
63ffcb367b500c516d0648a2,SCN,2024-06-26_10h37.24.042,LearnStrategy,2023.2.3,Win32,14.99250375,5,1,11,-0.555833333,-0.110833333,1,0,0,1.4707,Andesite_02,1,02,3,1,1.471,-0.341666667,-0.255,1,0,0,2.9335,Andesite_rect,1,2.933,1,10,0,10,0,1,,,,,,,,,,,,,
63ffcb367b500c516d0648a2,SCN,2024-06-26_10h37.24.042,LearnStrategy,2023.2.3,Win32,14.99250375,5,1,12,-0.365833333,-0.099166667,1,0,0,1.0327,Basalt_02,2,02,3,2,1.033,-0.100833333,-0.23,1,0,0,0.8658,Basalt_rect,2,0.866,1,11,0,11,0,1,,,,,,,,,,,,,
63ffcb367b500c516d0648a2,SCN,2024-06-26_10h37.24.042,LearnStrategy,2023.2.3,Win32,14.99250375,5,1,13,-0.204166667,-0.103333333,1,0,0,1.0087,Pumice_09,8,09,3,3,1.009,0.4275,-0.420833333,1,0,0,0.9952,Pumice_rect,8,0.995,1,12,0,12,0,1,,,,,,,,,,,,,
63ffcb367b500c516d0648a2,SCN,2024-06-26_10h37.24.042,LearnStrategy,2023.2.3,Win32,14.99250375,5,1,14,-0.075,-0.096666667,1,0,0,3.4072,Pegmatite_05,6,05,3,4,3.407,-0.098333333,-0.4075,1,0,0,4.4788,Pegmatite_rect,6,4.479,1,13,0,13,0,1,,,,,,,,,,,,,
63ffcb367b500c516d0648a2,SCN,2024-06-26_10h37.24.042,LearnStrategy,2023.2.3,Win32,14.99250375,5,1,15,0.055833333,-0.098333333,1,0,0,2.0183,Gabbro_12,4,12,3,5,2.018,-0.15,-0.241666667,1,0,0,3.8113,Basalt_rect,2,3.811,0,14,0,14,0,1,,,,,,,,,,,,,
63ffcb367b500c516d0648a2,SCN,2024-06-26_10h37.24.042,LearnStrategy,2023.2.3,Win32,14.99250375,5,1,16,0.243333333,-0.083333333,1,0,0,2.5967,Pumice_03,8,03,3,6,2.597,0.35,-0.4075,1,0,0,1.6705,Pumice_rect,8,1.67,1,15,0,15,0,1,,,,,,,,,,,,,
63ffcb367b500c516d0648a2,SCN,2024-06-26_10h37.24.042,LearnStrategy,2023.2.3,Win32,14.99250375,5,2,1,,,,,,,,2,12,,,,,,,,,,,1,11.073,0,,,,,,-0.359166667,-0.245,1,0,0,11.0732,Andesite_rect,0,0,0,0,1,
63ffcb367b500c516d0648a2,SCN,2024-06-26_10h37.24.042,LearnStrategy,2023.2.3,Win32,14.99250375,5,2,2,,,,,,,,5,02,,,,,,,,,,,5,1.195,1,,,,,,-0.360833333,-0.41,1,0,0,1.1954,Obsidian_rect,1,0,1,0,1,
63ffcb367b500c516d0648a2,SCN,2024-06-26_10h37.24.042,LearnStrategy,2023.2.3,Win32,14.99250375,5,2,3,,,,,,,,2,14,,,,,,,,,,,4,2.472,0,,,,,,0.399166667,-0.249166667,1,0,0,2.4718,Gabbro_rect,2,0,2,0,1,
63ffcb367b500c516d0648a2,SCN,2024-06-26_10h37.24.042,LearnStrategy,2023.2.3,Win32,14.99250375,5,2,4,,,,,,,,5,08,,,,,,,,,,,5,1.993,1,,,,,,-0.374166667,-0.395833333,1,0,0,1.9928,Obsidian_rect,3,0,3,0,1,
63ffcb367b500c516d0648a2,SCN,2024-06-26_10h37.24.042,LearnStrategy,2023.2.3,Win32,14.99250375,5,2,5,,,,,,,,8,15,,,,,,,,,,,8,6.301,1,,,,,,0.391666667,-0.405833333,1,0,0,6.3006,Pumice_rect,4,0,4,0,1,
63ffcb367b500c516d0648a2,SCN,2024-06-26_10h37.24.042,LearnStrategy,2023.2.3,Win32,14.99250375,5,2,6,,,,,,,,4,10,,,,,,,,,,,2,3.843,0,,,,,,-0.15,-0.235,1,0,0,3.8429,Basalt_rect,5,0,5,0,1,
63ffcb367b500c516d0648a2,SCN,2024-06-26_10h37.24.042,LearnStrategy,2023.2.3,Win32,14.99250375,5,2,7,,,,,,,,1,06,,,,,,,,,,,1,3.677,1,,,,,,-0.400833333,-0.255,1,0,0,3.6771,Andesite_rect,6,0,6,0,1,
63ffcb367b500c516d0648a2,SCN,2024-06-26_10h37.24.042,LearnStrategy,2023.2.3,Win32,14.99250375,5,2,8,,,,,,,,6,13,,,,,,,,,,,6,1.518,1,,,,,,-0.095,-0.405,1,0,0,1.5177,Pegmatite_rect,7,0,7,0,1,
63ffcb367b500c516d0648a2,SCN,2024-06-26_10h37.24.042,LearnStrategy,2023.2.3,Win32,14.99250375,5,2,9,,,,,,,,4,03,,,,,,,,,,,3,1.757,0,,,,,,0.138333333,-0.243333333,1,0,0,1.7574,Diorite_rect,8,0,8,0,1,
63ffcb367b500c516d0648a2,SCN,2024-06-26_10h37.24.042,LearnStrategy,2023.2.3,Win32,14.99250375,5,2,10,,,,,,,,1,04,,,,,,,,,,,1,1.626,1,,,,,,-0.4,-0.241666667,1,0,0,1.6257,Andesite_rect,9,0,9,0,1,
63ffcb367b500c516d0648a2,SCN,2024-06-26_10h37.24.042,LearnStrategy,2023.2.3,Win32,14.99250375,5,2,11,,,,,,,,7,13,,,,,,,,,,,7,1.355,1,,,,,,0.138333333,-0.4,1,0,0,1.3552,Peridotite_rect,10,0,10,0,1,
63ffcb367b500c516d0648a2,SCN,2024-06-26_10h37.24.042,LearnStrategy,2023.2.3,Win32,14.99250375,5,2,12,,,,,,,,6,15,,,,,,,,,,,6,1.412,1,,,,,,-0.119166667,-0.403333333,1,0,0,1.4122,Pegmatite_rect,11,0,11,0,1,
63ffcb367b500c516d0648a2,SCN,2024-06-26_10h37.24.042,LearnStrategy,2023.2.3,Win32,14.99250375,5,2,13,,,,,,,,3,11,,,,,,,,,,,3,1.417,1,,,,,,0.1425,-0.239166667,1,0,0,1.4174,Diorite_rect,12,0,12,0,1,
63ffcb367b500c516d0648a2,SCN,2024-06-26_10h37.24.042,LearnStrategy,2023.2.3,Win32,14.99250375,5,2,14,,,,,,,,8,14,,,,,,,,,,,8,1.64,1,,,,,,0.388333333,-0.394166667,1,0,0,1.6399,Pumice_rect,13,0,13,0,1,
63ffcb367b500c516d0648a2,SCN,2024-06-26_10h37.24.042,LearnStrategy,2023.2.3,Win32,14.99250375,5,2,15,,,,,,,,7,05,,,,,,,,,,,7,1.786,1,,,,,,0.085833333,-0.403333333,1,0,0,1.7864,Peridotite_rect,14,0,14,0,1,
63ffcb367b500c516d0648a2,SCN,2024-06-26_10h37.24.042,LearnStrategy,2023.2.3,Win32,14.99250375,5,2,16,,,,,,,,3,15,,,,,,,,,,,3,1.656,1,,,,,,0.134166667,-0.233333333,1,0,0,1.6561,Diorite_rect,15,0,15,0,1,
63ffcb367b500c516d0648a2,SCN,2024-06-26_10h37.24.042,LearnStrategy,2023.2.3,Win32,14.99250375,6,1,1,0.545,-0.4075,1,0,0,14.4147,Pegmatite_08,6,08,1,8,14.415,-0.169166667,-0.419166667,1,0,0,1.6034,Pegmatite_rect,6,1.603,1,0,0,0,0,1,,,,,,,,,,,,,
63ffcb367b500c516d0648a2,SCN,2024-06-26_10h37.24.042,LearnStrategy,2023.2.3,Win32,14.99250375,6,1,2,0.400833333,-0.403333333,1,0,0,1.6408,Gabbro_01,4,01,1,7,1.641,0.414166667,-0.23,1,0,0,4.6015,Gabbro_rect,4,4.601,1,1,0,1,0,1,,,,,,,,,,,,,
63ffcb367b500c516d0648a2,SCN,2024-06-26_10h37.24.042,LearnStrategy,2023.2.3,Win32,14.99250375,6,1,3,0.238333333,-0.420833333,1,0,0,1.4372,Basalt_11,2,11,1,6,1.437,-0.118333333,-0.25,1,0,0,2.6171,Basalt_rect,2,2.617,1,2,0,2,0,1,,,,,,,,,,,,,
63ffcb367b500c516d0648a2,SCN,2024-06-26_10h37.24.042,LearnStrategy,2023.2.3,Win32,14.99250375,6,1,4,0.105,-0.404166667,1,0,0,2.7137,Pumice_05,8,05,1,5,2.714,0.4175,-0.399166667,1,0,0,1.1985,Pumice_rect,8,1.198,1,3,0,3,0,1,,,,,,,,,,,,,
63ffcb367b500c516d0648a2,SCN,2024-06-26_10h37.24.042,LearnStrategy,2023.2.3,Win32,14.99250375,6,1,5,-0.0925,-0.383333333,1,0,0,0.992,Andesite_14,1,14,1,4,0.992,-0.3725,-0.254166667,1,0,0,5.4027,Andesite_rect,1,5.403,1,4,0,4,0,1,,,,,,,,,,,,,
63ffcb367b500c516d0648a2,SCN,2024-06-26_10h37.24.042,LearnStrategy,2023.2.3,Win32,14.99250375,6,1,6,-0.241666667,-0.41,1,0,0,1.2052,Basalt_16,2,16,1,3,1.205,-0.104166667,-0.253333333,1,0,0,4.5975,Basalt_rect,2,4.598,1,5,0,5,0,1,,,,,,,,,,,,,
63ffcb367b500c516d0648a2,SCN,2024-06-26_10h37.24.042,LearnStrategy,2023.2.3,Win32,14.99250375,6,1,7,-0.378333333,-0.4075,1,0,0,1.2474,Pumice_02,8,02,1,2,1.247,0.3975,-0.406666667,1,0,0,1.9489,Pumice_rect,8,1.949,1,6,0,6,0,1,,,,,,,,,,,,,
63ffcb367b500c516d0648a2,SCN,2024-06-26_10h37.24.042,LearnStrategy,2023.2.3,Win32,14.99250375,6,1,8,-0.398333333,-0.398333333,1,0,0,2.5715,Pumice_02,8,02,1,2,2.572,0.4125,-0.400833333,1,0,0,1.5835,Pumice_rect,8,1.583,1,7,0,7,0,1,,,,,,,,,,,,,
63ffcb367b500c516d0648a2,SCN,2024-06-26_10h37.24.042,LearnStrategy,2023.2.3,Win32,14.99250375,6,1,9,-0.540833333,-0.395,1,0,0,1.2184,Peridotite_04,7,04,1,1,1.218,0.356666667,-0.244166667,1,0,0,3.8515,Gabbro_rect,4,3.851,0,8,0,8,0,1,,,,,,,,,,,,,
63ffcb367b500c516d0648a2,SCN,2024-06-26_10h37.24.042,LearnStrategy,2023.2.3,Win32,14.99250375,6,1,10,0.536666667,-0.2225,1,0,0,1.6594,Andesite_03,1,03,2,8,1.659,-0.465833333,-0.264166667,1,0,0,1.3023,Andesite_rect,1,1.302,1,9,0,9,0,1,,,,,,,,,,,,,
63ffcb367b500c516d0648a2,SCN,2024-06-26_10h37.24.042,LearnStrategy,2023.2.3,Win32,14.99250375,6,1,11,0.418333333,-0.240833333,1,0,0,1.8057,Andesite_16,1,16,2,7,1.806,0.099166667,-0.255833333,1,0,0,1.4731,Diorite_rect,3,1.473,0,10,0,10,0,1,,,,,,,,,,,,,
63ffcb367b500c516d0648a2,SCN,2024-06-26_10h37.24.042,LearnStrategy,2023.2.3,Win32,14.99250375,6,1,12,0.235833333,-0.238333333,1,0,0,1.6362,Peridotite_06,7,06,2,6,1.636,0.176666667,-0.399166667,1,0,0,1.0118,Peridotite_rect,7,1.012,1,11,0,11,0,1,,,,,,,,,,,,,
63ffcb367b500c516d0648a2,SCN,2024-06-26_10h37.24.042,LearnStrategy,2023.2.3,Win32,14.99250375,6,1,13,0.099166667,-0.2525,1,0,0,1.0134,Gabbro_11,4,11,2,5,1.013,-0.115,-0.258333333,1,0,0,1.2356,Basalt_rect,2,1.236,0,12,0,12,0,1,,,,,,,,,,,,,
63ffcb367b500c516d0648a2,SCN,2024-06-26_10h37.24.042,LearnStrategy,2023.2.3,Win32,14.99250375,6,1,14,-0.0725,-0.256666667,1,0,0,1.4482,Gabbro_05,4,05,2,4,1.448,0.455833333,-0.240833333,1,0,0,3.5706,Gabbro_rect,4,3.571,1,13,0,13,0,1,,,,,,,,,,,,,
63ffcb367b500c516d0648a2,SCN,2024-06-26_10h37.24.042,LearnStrategy,2023.2.3,Win32,14.99250375,6,1,15,-0.2525,-0.265833333,1,0,0,1.6005,Diorite_08,3,08,2,3,1.601,0.171666667,-0.241666667,1,0,0,0.9999,Diorite_rect,3,1,1,14,0,14,0,1,,,,,,,,,,,,,
63ffcb367b500c516d0648a2,SCN,2024-06-26_10h37.24.042,LearnStrategy,2023.2.3,Win32,14.99250375,6,1,16,-0.386666667,-0.255833333,1,0,0,1.2358,Diorite_16,3,16,2,2,1.236,0.166666667,-0.248333333,1,0,0,1.0304,Diorite_rect,3,1.03,1,15,0,15,0,1,,,,,,,,,,,,,
63ffcb367b500c516d0648a2,SCN,2024-06-26_10h37.24.042,LearnStrategy,2023.2.3,Win32,14.99250375,6,2,1,,,,,,,,1,05,,,,,,,,,,,1,16.338,1,,,,,,-0.3825,-0.2525,1,0,0,16.3383,Andesite_rect,0,0,0,0,1,
63ffcb367b500c516d0648a2,SCN,2024-06-26_10h37.24.042,LearnStrategy,2023.2.3,Win32,14.99250375,6,2,2,,,,,,,,1,09,,,,,,,,,,,1,1.878,1,,,,,,-0.3375,-0.234166667,1,0,0,1.8784,Andesite_rect,1,0,1,0,1,
63ffcb367b500c516d0648a2,SCN,2024-06-26_10h37.24.042,LearnStrategy,2023.2.3,Win32,14.99250375,6,2,3,,,,,,,,6,10,,,,,,,,,,,6,2.887,1,,,,,,-0.1025,-0.393333333,1,0,0,2.8865,Pegmatite_rect,2,0,2,0,1,
63ffcb367b500c516d0648a2,SCN,2024-06-26_10h37.24.042,LearnStrategy,2023.2.3,Win32,14.99250375,6,2,4,,,,,,,,4,14,,,,,,,,,,,4,4.281,1,,,,,,0.449166667,-0.2625,1,0,0,4.2813,Gabbro_rect,3,0,3,0,1,
63ffcb367b500c516d0648a2,SCN,2024-06-26_10h37.24.042,LearnStrategy,2023.2.3,Win32,14.99250375,6,2,5,,,,,,,,7,02,,,,,,,,,,,7,3.677,1,,,,,,0.105833333,-0.415,1,0,0,3.6773,Peridotite_rect,4,0,4,0,1,
63ffcb367b500c516d0648a2,SCN,2024-06-26_10h37.24.042,LearnStrategy,2023.2.3,Win32,14.99250375,6,2,6,,,,,,,,5,10,,,,,,,,,,,5,1.605,1,,,,,,-0.321666667,-0.380833333,1,0,0,1.6048,Obsidian_rect,5,0,5,0,1,
63ffcb367b500c516d0648a2,SCN,2024-06-26_10h37.24.042,LearnStrategy,2023.2.3,Win32,14.99250375,6,2,7,,,,,,,,5,06,,,,,,,,,,,5,1.513,1,,,,,,-0.379166667,-0.400833333,1,0,0,1.5129,Obsidian_rect,6,0,6,0,1,
63ffcb367b500c516d0648a2,SCN,2024-06-26_10h37.24.042,LearnStrategy,2023.2.3,Win32,14.99250375,6,2,8,,,,,,,,8,04,,,,,,,,,,,8,1.799,1,,,,,,0.369166667,-0.385833333,1,0,0,1.7994,Pumice_rect,7,0,7,0,1,
63ffcb367b500c516d0648a2,SCN,2024-06-26_10h37.24.042,LearnStrategy,2023.2.3,Win32,14.99250375,6,2,9,,,,,,,,3,02,,,,,,,,,,,3,1.41,1,,,,,,0.111666667,-0.261666667,1,0,0,1.4097,Diorite_rect,8,0,8,0,1,
63ffcb367b500c516d0648a2,SCN,2024-06-26_10h37.24.042,LearnStrategy,2023.2.3,Win32,14.99250375,6,2,10,,,,,,,,2,05,,,,,,,,,,,2,2.547,1,,,,,,-0.140833333,-0.245,1,0,0,2.5472,Basalt_rect,9,0,9,0,1,
63ffcb367b500c516d0648a2,SCN,2024-06-26_10h37.24.042,LearnStrategy,2023.2.3,Win32,14.99250375,6,2,11,,,,,,,,4,16,,,,,,,,,,,2,1.389,0,,,,,,-0.1275,-0.245833333,1,0,0,1.3889,Basalt_rect,10,0,10,0,1,
63ffcb367b500c516d0648a2,SCN,2024-06-26_10h37.24.042,LearnStrategy,2023.2.3,Win32,14.99250375,6,2,12,,,,,,,,8,08,,,,,,,,,,,8,2.499,1,,,,,,0.361666667,-0.408333333,1,0,0,2.4991,Pumice_rect,11,0,11,0,1,
63ffcb367b500c516d0648a2,SCN,2024-06-26_10h37.24.042,LearnStrategy,2023.2.3,Win32,14.99250375,6,2,13,,,,,,,,2,10,,,,,,,,,,,2,2.526,1,,,,,,-0.158333333,-0.2475,1,0,0,2.5261,Basalt_rect,12,0,12,0,1,
63ffcb367b500c516d0648a2,SCN,2024-06-26_10h37.24.042,LearnStrategy,2023.2.3,Win32,14.99250375,6,2,14,,,,,,,,3,13,,,,,,,,,,,3,1.612,1,,,,,,0.139166667,-0.235,1,0,0,1.6125,Diorite_rect,13,0,13,0,1,
63ffcb367b500c516d0648a2,SCN,2024-06-26_10h37.24.042,LearnStrategy,2023.2.3,Win32,14.99250375,6,2,15,,,,,,,,7,10,,,,,,,,,,,7,1.223,1,,,,,,0.135,-0.4,1,0,0,1.2227,Peridotite_rect,14,0,14,0,1,
63ffcb367b500c516d0648a2,SCN,2024-06-26_10h37.24.042,LearnStrategy,2023.2.3,Win32,14.99250375,6,2,16,,,,,,,,6,07,,,,,,,,,,,6,1.229,1,,,,,,-0.189166667,-0.404166667,1,0,0,1.2288,Pegmatite_rect,15,0,15,0,1,
63ffcb367b500c516d0648a2,SCN,2024-06-26_10h37.24.042,LearnStrategy,2023.2.3,Win32,14.99250375,7,1,1,0.1,-0.1125,1,0,0,2.4799,Gabbro_12,4,12,3,5,2.48,0.360833333,-0.25,1,0,0,4.2294,Gabbro_rect,4,4.229,1,0,0,0,0,1,,,,,,,,,,,,,
63ffcb367b500c516d0648a2,SCN,2024-06-26_10h37.24.042,LearnStrategy,2023.2.3,Win32,14.99250375,7,1,2,0.4,-0.291666667,1,0,0,5.2588,Andesite_16,1,16,2,7,5.259,-0.109166667,-0.4025,1,0,0,8.6932,Pegmatite_rect,6,8.693,0,1,0,1,0,1,,,,,,,,,,,,,
63ffcb367b500c516d0648a2,SCN,2024-06-26_10h37.24.042,LearnStrategy,2023.2.3,Win32,14.99250375,7,1,3,0.4025,-0.419166667,1,0,0,2.0333,Gabbro_01,4,01,1,7,2.033,0.389166667,-0.255,1,0,0,1.2466,Gabbro_rect,4,1.247,1,2,0,2,0,1,,,,,,,,,,,,,
63ffcb367b500c516d0648a2,SCN,2024-06-26_10h37.24.042,LearnStrategy,2023.2.3,Win32,14.99250375,7,1,4,-0.381666667,0.406666667,1,0,0,3.5602,Basalt_09,2,09,6,2,3.56,-0.1425,-0.2425,1,0,0,1.7867,Basalt_rect,2,1.787,1,3,0,3,0,1,,,,,,,,,,,,,
63ffcb367b500c516d0648a2,SCN,2024-06-26_10h37.24.042,LearnStrategy,2023.2.3,Win32,14.99250375,7,1,5,0.554166667,0.261666667,1,0,0,3.8595,Peridotite_07,7,07,5,8,3.86,0.17,-0.394166667,1,0,0,1.7455,Peridotite_rect,7,1.745,1,4,0,4,0,1,,,,,,,,,,,,,
63ffcb367b500c516d0648a2,SCN,2024-06-26_10h37.24.042,LearnStrategy,2023.2.3,Win32,14.99250375,7,1,6,-0.071666667,0.103333333,1,0,0,4.0135,Andesite_07,1,07,4,4,4.014,-0.425,-0.255,1,0,0,1.9188,Andesite_rect,1,1.919,1,5,0,5,0,1,,,,,,,,,,,,,
63ffcb367b500c516d0648a2,SCN,2024-06-26_10h37.24.042,LearnStrategy,2023.2.3,Win32,14.99250375,7,1,7,0.240833333,0.0825,1,0,0,3.2044,Gabbro_13,4,13,4,6,3.204,0.3825,-0.243333333,1,0,0,2.2178,Gabbro_rect,4,2.218,1,6,0,6,0,1,,,,,,,,,,,,,
63ffcb367b500c516d0648a2,SCN,2024-06-26_10h37.24.042,LearnStrategy,2023.2.3,Win32,14.99250375,7,1,8,-0.52,-0.0975,1,0,0,3.9214,Andesite_02,1,02,3,1,3.921,-0.3675,-0.240833333,1,0,0,2.7248,Andesite_rect,1,2.725,1,7,0,7,0,1,,,,,,,,,,,,,
63ffcb367b500c516d0648a2,SCN,2024-06-26_10h37.24.042,LearnStrategy,2023.2.3,Win32,14.99250375,7,1,9,0.529166667,-0.231666667,1,0,0,6.3524,Andesite_03,1,03,2,8,6.352,-0.350833333,-0.231666667,1,0,0,1.249,Andesite_rect,1,1.249,1,8,0,8,0,1,,,,,,,,,,,,,
63ffcb367b500c516d0648a2,SCN,2024-06-26_10h37.24.042,LearnStrategy,2023.2.3,Win32,14.99250375,7,1,10,-0.0525,-0.2675,1,0,0,1.4397,Gabbro_05,4,05,2,4,1.44,-0.0525,-0.2675,1,0,0,0.3819,Basalt_rect,2,0.382,0,9,0,9,0,1,,,,,,,,,,,,,
63ffcb367b500c516d0648a2,SCN,2024-06-26_10h37.24.042,LearnStrategy,2023.2.3,Win32,14.99250375,7,1,11,0.076666667,-0.2675,1,0,0,1.22,Gabbro_11,4,11,2,5,1.22,0.361666667,-0.245,1,0,0,6.9571,Gabbro_rect,4,6.957,1,10,0,10,0,1,,,,,,,,,,,,,
63ffcb367b500c516d0648a2,SCN,2024-06-26_10h37.24.042,LearnStrategy,2023.2.3,Win32,14.99250375,7,1,12,-0.0825,-0.4075,1,0,0,3.1104,Andesite_14,1,14,1,4,3.11,-0.356666667,-0.251666667,1,0,0,4.4499,Andesite_rect,1,4.45,1,11,0,11,0,1,,,,,,,,,,,,,
63ffcb367b500c516d0648a2,SCN,2024-06-26_10h37.24.042,LearnStrategy,2023.2.3,Win32,14.99250375,7,1,13,-0.0975,-0.41,1,0,0,1.6766,Andesite_14,1,14,1,4,1.677,-0.385,-0.26,1,0,0,1.6131,Andesite_rect,1,1.613,1,12,0,12,0,1,,,,,,,,,,,,,
63ffcb367b500c516d0648a2,SCN,2024-06-26_10h37.24.042,LearnStrategy,2023.2.3,Win32,14.99250375,7,1,14,0.2575,-0.4125,1,0,0,2.2379,Basalt_11,2,11,1,6,2.238,0.375,-0.411666667,1,0,0,6.8083,Pumice_rect,8,6.808,0,13,0,13,0,1,,,,,,,,,,,,,
63ffcb367b500c516d0648a2,SCN,2024-06-26_10h37.24.042,LearnStrategy,2023.2.3,Win32,14.99250375,7,1,15,-0.069166667,0.2575,1,0,0,4.4716,Pegmatite_12,6,12,5,4,4.472,-0.161666667,-0.401666667,1,0,0,1.4093,Pegmatite_rect,6,1.409,1,14,0,14,0,1,,,,,,,,,,,,,
63ffcb367b500c516d0648a2,SCN,2024-06-26_10h37.24.042,LearnStrategy,2023.2.3,Win32,14.99250375,7,1,16,0.086666667,0.240833333,1,0,0,1.6109,Basalt_06,2,06,5,5,1.611,-0.094166667,-0.246666667,1,0,0,2.1365,Basalt_rect,2,2.137,1,15,0,15,0,1,,,,,,,,,,,,,
63ffcb367b500c516d0648a2,SCN,2024-06-26_10h37.24.042,LearnStrategy,2023.2.3,Win32,14.99250375,7,2,1,,,,,,,,8,14,,,,,,,,,,,8,2.855,1,,,,,,0.390833333,-0.388333333,1,0,0,2.8546,Pumice_rect,0,0,0,0,1,
63ffcb367b500c516d0648a2,SCN,2024-06-26_10h37.24.042,LearnStrategy,2023.2.3,Win32,14.99250375,7,2,2,,,,,,,,2,01,,,,,,,,,,,2,1.288,1,,,,,,-0.106666667,-0.255,1,0,0,1.288,Basalt_rect,1,0,1,0,1,
63ffcb367b500c516d0648a2,SCN,2024-06-26_10h37.24.042,LearnStrategy,2023.2.3,Win32,14.99250375,7,2,3,,,,,,,,7,10,,,,,,,,,,,7,1.453,1,,,,,,0.14,-0.386666667,1,0,0,1.4527,Peridotite_rect,2,0,2,0,1,
63ffcb367b500c516d0648a2,SCN,2024-06-26_10h37.24.042,LearnStrategy,2023.2.3,Win32,14.99250375,7,2,4,,,,,,,,7,15,,,,,,,,,,,7,1.021,1,,,,,,0.145833333,-0.420833333,1,0,0,1.0214,Peridotite_rect,3,0,3,0,1,
63ffcb367b500c516d0648a2,SCN,2024-06-26_10h37.24.042,LearnStrategy,2023.2.3,Win32,14.99250375,7,2,5,,,,,,,,8,08,,,,,,,,,,,8,1.235,1,,,,,,0.383333333,-0.39,1,0,0,1.2353,Pumice_rect,4,0,4,0,1,
63ffcb367b500c516d0648a2,SCN,2024-06-26_10h37.24.042,LearnStrategy,2023.2.3,Win32,14.99250375,7,2,6,,,,,,,,4,14,,,,,,,,,,,4,1.768,1,,,,,,0.408333333,-0.2375,1,0,0,1.7677,Gabbro_rect,5,0,5,0,1,
63ffcb367b500c516d0648a2,SCN,2024-06-26_10h37.24.042,LearnStrategy,2023.2.3,Win32,14.99250375,7,2,7,,,,,,,,6,07,,,,,,,,,,,6,1.467,1,,,,,,-0.134166667,-0.415833333,1,0,0,1.4675,Pegmatite_rect,6,0,6,0,1,
63ffcb367b500c516d0648a2,SCN,2024-06-26_10h37.24.042,LearnStrategy,2023.2.3,Win32,14.99250375,7,2,8,,,,,,,,1,01,,,,,,,,,,,4,4.398,0,,,,,,0.36,-0.24,1,0,0,4.3978,Gabbro_rect,7,0,7,0,1,
63ffcb367b500c516d0648a2,SCN,2024-06-26_10h37.24.042,LearnStrategy,2023.2.3,Win32,14.99250375,7,2,9,,,,,,,,3,02,,,,,,,,,,,3,1.393,1,,,,,,0.101666667,-0.255,1,0,0,1.3932,Diorite_rect,8,0,8,0,1,
63ffcb367b500c516d0648a2,SCN,2024-06-26_10h37.24.042,LearnStrategy,2023.2.3,Win32,14.99250375,7,2,10,,,,,,,,5,08,,,,,,,,,,,5,1.568,1,,,,,,-0.405,-0.3875,1,0,0,1.5683,Obsidian_rect,9,0,9,0,1,
63ffcb367b500c516d0648a2,SCN,2024-06-26_10h37.24.042,LearnStrategy,2023.2.3,Win32,14.99250375,7,2,11,,,,,,,,5,10,,,,,,,,,,,5,0.822,1,,,,,,-0.400833333,-0.379166667,1,0,0,0.8224,Obsidian_rect,10,0,10,0,1,
63ffcb367b500c516d0648a2,SCN,2024-06-26_10h37.24.042,LearnStrategy,2023.2.3,Win32,14.99250375,7,2,12,,,,,,,,6,11,,,,,,,,,,,6,1.56,1,,,,,,-0.113333333,-0.41,1,0,0,1.5601,Pegmatite_rect,11,0,11,0,1,
63ffcb367b500c516d0648a2,SCN,2024-06-26_10h37.24.042,LearnStrategy,2023.2.3,Win32,14.99250375,7,2,13,,,,,,,,1,06,,,,,,,,,,,1,1.416,1,,,,,,-0.350833333,-0.249166667,1,0,0,1.4161,Andesite_rect,12,0,12,0,1,
63ffcb367b500c516d0648a2,SCN,2024-06-26_10h37.24.042,LearnStrategy,2023.2.3,Win32,14.99250375,7,2,14,,,,,,,,4,09,,,,,,,,,,,2,6.285,0,,,,,,-0.115,-0.255833333,1,0,0,6.2848,Basalt_rect,13,0,13,0,1,
63ffcb367b500c516d0648a2,SCN,2024-06-26_10h37.24.042,LearnStrategy,2023.2.3,Win32,14.99250375,7,2,15,,,,,,,,2,12,,,,,,,,,,,1,4.798,0,,,,,,-0.353333333,-0.25,1,0,0,4.7983,Andesite_rect,14,0,14,0,1,
63ffcb367b500c516d0648a2,SCN,2024-06-26_10h37.24.042,LearnStrategy,2023.2.3,Win32,14.99250375,7,2,16,,,,,,,,3,10,,,,,,,,,,,3,1.426,1,,,,,,0.158333333,-0.261666667,1,0,0,1.426,Diorite_rect,15,0,15,0,1,
63ffcb367b500c516d0648a2,SCN,2024-06-26_10h37.24.042,LearnStrategy,2023.2.3,Win32,14.99250375,8,1,1,0.260833333,0.088333333,1,0,0,3.5009,Gabbro_13,4,13,4,6,3.501,0.405833333,-0.23,1,0,0,1.0081,Gabbro_rect,4,1.008,1,0,0,0,0,1,,,,,,,,,,,,,
63ffcb367b500c516d0648a2,SCN,2024-06-26_10h37.24.042,LearnStrategy,2023.2.3,Win32,14.99250375,8,1,2,0.271666667,-0.419166667,1,0,0,1.6172,Basalt_11,2,11,1,6,1.617,-0.094166667,-0.2375,1,0,0,1.7923,Basalt_rect,2,1.792,1,1,0,1,0,1,,,,,,,,,,,,,
63ffcb367b500c516d0648a2,SCN,2024-06-26_10h37.24.042,LearnStrategy,2023.2.3,Win32,14.99250375,8,1,3,0.396666667,-0.385833333,1,0,0,2.8178,Gabbro_01,4,01,1,7,2.818,0.423333333,-0.245,1,0,0,1.3383,Gabbro_rect,4,1.338,1,2,0,2,0,1,,,,,,,,,,,,,
63ffcb367b500c516d0648a2,SCN,2024-06-26_10h37.24.042,LearnStrategy,2023.2.3,Win32,14.99250375,8,1,4,0.395,-0.239166667,1,0,0,1.1816,Andesite_16,1,16,2,7,1.182,0.4075,-0.270833333,1,0,0,4.0964,Gabbro_rect,4,4.096,0,3,0,3,0,1,,,,,,,,,,,,,
63ffcb367b500c516d0648a2,SCN,2024-06-26_10h37.24.042,LearnStrategy,2023.2.3,Win32,14.99250375,8,1,5,0.424166667,-0.1125,1,0,0,1.4852,Peridotite_12,7,12,3,7,1.485,0.115,-0.414166667,1,0,0,1.647,Peridotite_rect,7,1.647,1,4,0,4,0,1,,,,,,,,,,,,,
63ffcb367b500c516d0648a2,SCN,2024-06-26_10h37.24.042,LearnStrategy,2023.2.3,Win32,14.99250375,8,1,6,-0.525,-0.414166667,1,0,0,2.3488,Peridotite_04,7,04,1,1,2.349,-0.385833333,-0.255,1,0,0,4.4205,Andesite_rect,1,4.42,0,5,0,5,0,1,,,,,,,,,,,,,
63ffcb367b500c516d0648a2,SCN,2024-06-26_10h37.24.042,LearnStrategy,2023.2.3,Win32,14.99250375,8,1,7,-0.3925,0.2425,1,0,0,2.0945,Peridotite_08,7,08,5,2,2.095,0.118333333,-0.408333333,1,0,0,1.4144,Peridotite_rect,7,1.414,1,6,0,6,0,1,,,,,,,,,,,,,
63ffcb367b500c516d0648a2,SCN,2024-06-26_10h37.24.042,LearnStrategy,2023.2.3,Win32,14.99250375,8,1,8,0.55,0.269166667,1,0,0,2.2476,Peridotite_07,7,07,5,8,2.248,0.123333333,-0.390833333,1,0,0,1.4685,Peridotite_rect,7,1.468,1,7,0,7,0,1,,,,,,,,,,,,,
63ffcb367b500c516d0648a2,SCN,2024-06-26_10h37.24.042,LearnStrategy,2023.2.3,Win32,14.99250375,8,1,9,0.4175,0.408333333,1,0,0,1.2903,Pegmatite_09,6,09,6,7,1.29,-0.109166667,-0.398333333,1,0,0,1.2931,Pegmatite_rect,6,1.293,1,8,0,8,0,1,,,,,,,,,,,,,
63ffcb367b500c516d0648a2,SCN,2024-06-26_10h37.24.042,LearnStrategy,2023.2.3,Win32,14.99250375,8,1,10,-0.3575,0.408333333,1,0,0,2.0674,Basalt_09,2,09,6,2,2.067,-0.115833333,-0.248333333,1,0,0,4.4907,Basalt_rect,2,4.491,1,9,0,9,0,1,,,,,,,,,,,,,
63ffcb367b500c516d0648a2,SCN,2024-06-26_10h37.24.042,LearnStrategy,2023.2.3,Win32,14.99250375,8,1,11,-0.560833333,0.389166667,1,0,0,1.4205,Diorite_06,3,06,6,1,1.421,0.173333333,-0.234166667,1,0,0,1.4439,Diorite_rect,3,1.444,1,10,0,10,0,1,,,,,,,,,,,,,
63ffcb367b500c516d0648a2,SCN,2024-06-26_10h37.24.042,LearnStrategy,2023.2.3,Win32,14.99250375,8,1,12,-0.209166667,0.42,1,0,0,1.4286,Pumice_16,8,16,6,3,1.429,0.418333333,-0.41,1,0,0,1.6412,Pumice_rect,8,1.641,1,11,0,11,0,1,,,,,,,,,,,,,
63ffcb367b500c516d0648a2,SCN,2024-06-26_10h37.24.042,LearnStrategy,2023.2.3,Win32,14.99250375,8,1,13,-0.088333333,0.400833333,1,0,0,1.4235,Diorite_09,3,09,6,4,1.423,0.185833333,-0.246666667,1,0,0,1.0621,Diorite_rect,3,1.062,1,12,0,12,0,1,,,,,,,,,,,,,
63ffcb367b500c516d0648a2,SCN,2024-06-26_10h37.24.042,LearnStrategy,2023.2.3,Win32,14.99250375,8,1,14,0.094166667,0.434166667,1,0,0,1.2408,Obsidian_16,5,16,6,5,1.241,-0.396666667,-0.401666667,1,0,0,1.5785,Obsidian_rect,5,1.579,1,13,0,13,0,1,,,,,,,,,,,,,
63ffcb367b500c516d0648a2,SCN,2024-06-26_10h37.24.042,LearnStrategy,2023.2.3,Win32,14.99250375,8,1,15,0.259166667,0.410833333,1,0,0,1.2166,Obsidian_05,5,05,6,6,1.217,-0.3925,-0.394166667,1,0,0,2.0699,Obsidian_rect,5,2.07,1,14,0,14,0,1,,,,,,,,,,,,,
63ffcb367b500c516d0648a2,SCN,2024-06-26_10h37.24.042,LearnStrategy,2023.2.3,Win32,14.99250375,8,1,16,0.38,0.421666667,1,0,0,1.6528,Pegmatite_09,6,09,6,7,1.653,-0.13,-0.4025,1,0,0,1.1287,Pegmatite_rect,6,1.129,1,15,0,15,0,1,,,,,,,,,,,,,
63ffcb367b500c516d0648a2,SCN,2024-06-26_10h37.24.042,LearnStrategy,2023.2.3,Win32,14.99250375,8,2,1,,,,,,,,4,10,,,,,,,,,,,2,3.42,0,,,,,,-0.09,-0.228333333,1,0,0,3.4201,Basalt_rect,0,0,0,0,1,
63ffcb367b500c516d0648a2,SCN,2024-06-26_10h37.24.042,LearnStrategy,2023.2.3,Win32,14.99250375,8,2,2,,,,,,,,2,10,,,,,,,,,,,2,1.319,1,,,,,,-0.148333333,-0.2575,1,0,0,1.3191,Basalt_rect,1,0,1,0,1,
63ffcb367b500c516d0648a2,SCN,2024-06-26_10h37.24.042,LearnStrategy,2023.2.3,Win32,14.99250375,8,2,3,,,,,,,,2,08,,,,,,,,,,,2,1.102,1,,,,,,-0.150833333,-0.248333333,1,0,0,1.102,Basalt_rect,2,0,2,0,1,
63ffcb367b500c516d0648a2,SCN,2024-06-26_10h37.24.042,LearnStrategy,2023.2.3,Win32,14.99250375,8,2,4,,,,,,,,4,08,,,,,,,,,,,2,4.627,0,,,,,,-0.1575,-0.235833333,1,0,0,4.6274,Basalt_rect,3,0,3,0,1,
63ffcb367b500c516d0648a2,SCN,2024-06-26_10h37.24.042,LearnStrategy,2023.2.3,Win32,14.99250375,8,2,5,,,,,,,,5,02,,,,,,,,,,,5,4.012,1,,,,,,-0.365833333,-0.414166667,1,0,0,4.012,Obsidian_rect,4,0,4,0,1,
63ffcb367b500c516d0648a2,SCN,2024-06-26_10h37.24.042,LearnStrategy,2023.2.3,Win32,14.99250375,8,2,6,,,,,,,,6,15,,,,,,,,,,,6,1.427,1,,,,,,-0.073333333,-0.399166667,1,0,0,1.4272,Pegmatite_rect,5,0,5,0,1,
63ffcb367b500c516d0648a2,SCN,2024-06-26_10h37.24.042,LearnStrategy,2023.2.3,Win32,14.99250375,8,2,7,,,,,,,,8,06,,,,,,,,,,,8,1.46,1,,,,,,0.361666667,-0.395,1,0,0,1.4603,Pumice_rect,6,0,6,0,1,
63ffcb367b500c516d0648a2,SCN,2024-06-26_10h37.24.042,LearnStrategy,2023.2.3,Win32,14.99250375,8,2,8,,,,,,,,3,15,,,,,,,,,,,3,1.703,1,,,,,,0.158333333,-0.249166667,1,0,0,1.7033,Diorite_rect,7,0,7,0,1,
63ffcb367b500c516d0648a2,SCN,2024-06-26_10h37.24.042,LearnStrategy,2023.2.3,Win32,14.99250375,8,2,9,,,,,,,,5,07,,,,,,,,,,,5,2.995,1,,,,,,-0.335833333,-0.408333333,1,0,0,2.995,Obsidian_rect,8,0,8,0,1,
63ffcb367b500c516d0648a2,SCN,2024-06-26_10h37.24.042,LearnStrategy,2023.2.3,Win32,14.99250375,8,2,10,,,,,,,,1,05,,,,,,,,,,,1,1.714,1,,,,,,-0.345833333,-0.263333333,1,0,0,1.7142,Andesite_rect,9,0,9,0,1,
63ffcb367b500c516d0648a2,SCN,2024-06-26_10h37.24.042,LearnStrategy,2023.2.3,Win32,14.99250375,8,2,11,,,,,,,,7,16,,,,,,,,,,,7,1.488,1,,,,,,0.131666667,-0.401666667,1,0,0,1.4878,Peridotite_rect,10,0,10,0,1,
63ffcb367b500c516d0648a2,SCN,2024-06-26_10h37.24.042,LearnStrategy,2023.2.3,Win32,14.99250375,8,2,12,,,,,,,,6,10,,,,,,,,,,,6,1.255,1,,,,,,-0.111666667,-0.406666667,1,0,0,1.2555,Pegmatite_rect,11,0,11,0,1,
63ffcb367b500c516d0648a2,SCN,2024-06-26_10h37.24.042,LearnStrategy,2023.2.3,Win32,14.99250375,8,2,13,,,,,,,,1,04,,,,,,,,,,,1,1.447,1,,,,,,-0.370833333,-0.254166667,1,0,0,1.4467,Andesite_rect,12,0,12,0,1,
63ffcb367b500c516d0648a2,SCN,2024-06-26_10h37.24.042,LearnStrategy,2023.2.3,Win32,14.99250375,8,2,14,,,,,,,,7,02,,,,,,,,,,,7,1.682,1,,,,,,0.1075,-0.393333333,1,0,0,1.6825,Peridotite_rect,13,0,13,0,1,
63ffcb367b500c516d0648a2,SCN,2024-06-26_10h37.24.042,LearnStrategy,2023.2.3,Win32,14.99250375,8,2,15,,,,,,,,8,15,,,,,,,,,,,8,1.541,1,,,,,,0.445,-0.410833333,1,0,0,1.5413,Pumice_rect,14,0,14,0,1,
63ffcb367b500c516d0648a2,SCN,2024-06-26_10h37.24.042,LearnStrategy,2023.2.3,Win32,14.99250375,8,2,16,,,,,,,,3,07,,,,,,,,,,,3,2.364,1,,,,,,0.124166667,-0.263333333,1,0,0,2.3642,Diorite_rect,15,0,15,0,1,
63ffcb367b500c516d0648a2,SCN,2024-06-26_10h37.24.042,LearnStrategy,2023.2.3,Win32,14.99250375,9,1,1,0.215,-0.428333333,1,0,0,3.4292,Basalt_11,2,11,1,6,3.429,-0.131666667,-0.2375,1,0,0,2.6386,Basalt_rect,2,2.639,1,0,0,0,0,1,,,,,,,,,,,,,
63ffcb367b500c516d0648a2,SCN,2024-06-26_10h37.24.042,LearnStrategy,2023.2.3,Win32,14.99250375,9,1,2,0.08,-0.415,1,0,0,1.195,Pumice_05,8,05,1,5,1.195,0.318333333,-0.395833333,1,0,0,0.7969,Pumice_rect,8,0.797,1,1,0,1,0,1,,,,,,,,,,,,,
63ffcb367b500c516d0648a2,SCN,2024-06-26_10h37.24.042,LearnStrategy,2023.2.3,Win32,14.99250375,9,1,3,-0.079166667,-0.421666667,1,0,0,1.1999,Andesite_14,1,14,1,4,1.2,-0.376666667,-0.24,1,0,0,1.9976,Andesite_rect,1,1.998,1,2,0,2,0,1,,,,,,,,,,,,,
63ffcb367b500c516d0648a2,SCN,2024-06-26_10h37.24.042,LearnStrategy,2023.2.3,Win32,14.99250375,9,1,4,-0.249166667,-0.42,1,0,0,1.2066,Basalt_16,2,16,1,3,1.207,-0.115,-0.265833333,1,0,0,1.6323,Basalt_rect,2,1.632,1,3,0,3,0,1,,,,,,,,,,,,,
63ffcb367b500c516d0648a2,SCN,2024-06-26_10h37.24.042,LearnStrategy,2023.2.3,Win32,14.99250375,9,1,5,-0.411666667,-0.435,1,0,0,1.0062,Pumice_02,8,02,1,2,1.006,0.34,-0.398333333,1,0,0,1.5637,Pumice_rect,8,1.564,1,4,0,4,0,1,,,,,,,,,,,,,
63ffcb367b500c516d0648a2,SCN,2024-06-26_10h37.24.042,LearnStrategy,2023.2.3,Win32,14.99250375,9,1,6,-0.5225,-0.435,1,0,0,1.0045,Peridotite_04,7,04,1,1,1.005,-0.35,-0.245833333,1,0,0,2.9539,Andesite_rect,1,2.954,0,5,0,5,0,1,,,,,,,,,,,,,
63ffcb367b500c516d0648a2,SCN,2024-06-26_10h37.24.042,LearnStrategy,2023.2.3,Win32,14.99250375,9,1,7,-0.568333333,-0.401666667,1,0,0,1.449,Peridotite_04,7,04,1,1,1.449,0.120833333,-0.42,1,0,0,5.2229,Peridotite_rect,7,5.223,1,6,0,6,0,1,,,,,,,,,,,,,
63ffcb367b500c516d0648a2,SCN,2024-06-26_10h37.24.042,LearnStrategy,2023.2.3,Win32,14.99250375,9,1,8,-0.5575,-0.26,1,0,0,1.4007,Andesite_11,1,11,2,1,1.401,-0.453333333,-0.229166667,1,0,0,1.2446,Andesite_rect,1,1.245,1,7,0,7,0,1,,,,,,,,,,,,,
63ffcb367b500c516d0648a2,SCN,2024-06-26_10h37.24.042,LearnStrategy,2023.2.3,Win32,14.99250375,9,1,9,-0.3875,-0.251666667,1,0,0,1.0447,Diorite_16,3,16,2,2,1.045,0.140833333,-0.26,1,0,0,2.2921,Diorite_rect,3,2.292,1,8,0,8,0,1,,,,,,,,,,,,,
63ffcb367b500c516d0648a2,SCN,2024-06-26_10h37.24.042,LearnStrategy,2023.2.3,Win32,14.99250375,9,1,10,-0.213333333,-0.249166667,1,0,0,1.2016,Diorite_08,3,08,2,3,1.202,0.116666667,-0.238333333,1,0,0,1.0018,Diorite_rect,3,1.002,1,9,0,9,0,1,,,,,,,,,,,,,
63ffcb367b500c516d0648a2,SCN,2024-06-26_10h37.24.042,LearnStrategy,2023.2.3,Win32,14.99250375,9,1,11,-0.065,-0.28,1,0,0,1.532,Gabbro_05,4,05,2,4,1.532,0.375,-0.258333333,1,0,0,2.8864,Gabbro_rect,4,2.886,1,10,0,10,0,1,,,,,,,,,,,,,
63ffcb367b500c516d0648a2,SCN,2024-06-26_10h37.24.042,LearnStrategy,2023.2.3,Win32,14.99250375,9,1,12,0.061666667,-0.2625,1,0,0,1.4235,Gabbro_11,4,11,2,5,1.424,-0.103333333,-0.265833333,1,0,0,1.56,Basalt_rect,2,1.56,0,11,0,11,0,1,,,,,,,,,,,,,
63ffcb367b500c516d0648a2,SCN,2024-06-26_10h37.24.042,LearnStrategy,2023.2.3,Win32,14.99250375,9,1,13,0.2275,-0.225833333,1,0,0,1.2308,Peridotite_06,7,06,2,6,1.231,0.0775,-0.394166667,1,0,0,2.2062,Peridotite_rect,7,2.206,1,12,0,12,0,1,,,,,,,,,,,,,
63ffcb367b500c516d0648a2,SCN,2024-06-26_10h37.24.042,LearnStrategy,2023.2.3,Win32,14.99250375,9,1,14,0.375833333,-0.243333333,1,0,0,1.6517,Andesite_16,1,16,2,7,1.652,-0.400833333,-0.259166667,1,0,0,3.4061,Andesite_rect,1,3.406,1,13,0,13,0,1,,,,,,,,,,,,,
63ffcb367b500c516d0648a2,SCN,2024-06-26_10h37.24.042,LearnStrategy,2023.2.3,Win32,14.99250375,9,1,15,0.555,-0.231666667,1,0,0,1.0262,Andesite_03,1,03,2,8,1.026,-0.424166667,-0.228333333,1,0,0,1.2343,Andesite_rect,1,1.234,1,14,0,14,0,1,,,,,,,,,,,,,
63ffcb367b500c516d0648a2,SCN,2024-06-26_10h37.24.042,LearnStrategy,2023.2.3,Win32,14.99250375,9,1,16,0.561666667,-0.076666667,1,0,0,1.4173,Basalt_04,2,04,3,8,1.417,-0.139166667,-0.239166667,1,0,0,1.2627,Basalt_rect,2,1.263,1,15,0,15,0,1,,,,,,,,,,,,,
63ffcb367b500c516d0648a2,SCN,2024-06-26_10h37.24.042,LearnStrategy,2023.2.3,Win32,14.99250375,9,2,1,,,,,,,,4,03,,,,,,,,,,,3,2.75,0,,,,,,0.115,-0.250833333,1,0,0,2.7498,Diorite_rect,0,0,0,0,1,
63ffcb367b500c516d0648a2,SCN,2024-06-26_10h37.24.042,LearnStrategy,2023.2.3,Win32,14.99250375,9,2,2,,,,,,,,5,09,,,,,,,,,,,5,1.349,1,,,,,,-0.384166667,-0.384166667,1,0,0,1.3489,Obsidian_rect,1,0,1,0,1,
63ffcb367b500c516d0648a2,SCN,2024-06-26_10h37.24.042,LearnStrategy,2023.2.3,Win32,14.99250375,9,2,3,,,,,,,,3,13,,,,,,,,,,,3,1.21,1,,,,,,0.1225,-0.234166667,1,0,0,1.2098,Diorite_rect,2,0,2,0,1,
63ffcb367b500c516d0648a2,SCN,2024-06-26_10h37.24.042,LearnStrategy,2023.2.3,Win32,14.99250375,9,2,4,,,,,,,,1,09,,,,,,,,,,,1,1.5,1,,,,,,-0.448333333,-0.236666667,1,0,0,1.5,Andesite_rect,3,0,3,0,1,
63ffcb367b500c516d0648a2,SCN,2024-06-26_10h37.24.042,LearnStrategy,2023.2.3,Win32,14.99250375,9,2,5,,,,,,,,2,14,,,,,,,,,,,8,18.723,0,,,,,,0.400833333,-0.410833333,1,0,0,18.7234,Pumice_rect,4,0,4,0,1,
63ffcb367b500c516d0648a2,SCN,2024-06-26_10h37.24.042,LearnStrategy,2023.2.3,Win32,14.99250375,9,2,6,,,,,,,,7,05,,,,,,,,,,,7,3.146,1,,,,,,0.155833333,-0.399166667,1,0,0,3.1464,Peridotite_rect,5,0,5,0,1,
63ffcb367b500c516d0648a2,SCN,2024-06-26_10h37.24.042,LearnStrategy,2023.2.3,Win32,14.99250375,9,2,7,,,,,,,,8,04,,,,,,,,,,,8,1.456,1,,,,,,0.375833333,-0.390833333,1,0,0,1.4565,Pumice_rect,6,0,6,0,1,
63ffcb367b500c516d0648a2,SCN,2024-06-26_10h37.24.042,LearnStrategy,2023.2.3,Win32,14.99250375,9,2,8,,,,,,,,1,10,,,,,,,,,,,1,2.415,1,,,,,,-0.370833333,-0.2575,1,0,0,2.4153,Andesite_rect,7,0,7,0,1,
63ffcb367b500c516d0648a2,SCN,2024-06-26_10h37.24.042,LearnStrategy,2023.2.3,Win32,14.99250375,9,2,9,,,,,,,,8,13,,,,,,,,,,,8,1.882,1,,,,,,0.334166667,-0.3925,1,0,0,1.8817,Pumice_rect,8,0,8,0,1,
63ffcb367b500c516d0648a2,SCN,2024-06-26_10h37.24.042,LearnStrategy,2023.2.3,Win32,14.99250375,9,2,10,,,,,,,,4,16,,,,,,,,,,,2,2.244,0,,,,,,-0.1525,-0.2375,1,0,0,2.244,Basalt_rect,9,0,9,0,1,
63ffcb367b500c516d0648a2,SCN,2024-06-26_10h37.24.042,LearnStrategy,2023.2.3,Win32,14.99250375,9,2,11,,,,,,,,6,13,,,,,,,,,,,6,1.546,1,,,,,,-0.115833333,-0.414166667,1,0,0,1.5462,Pegmatite_rect,10,0,10,0,1,
63ffcb367b500c516d0648a2,SCN,2024-06-26_10h37.24.042,LearnStrategy,2023.2.3,Win32,14.99250375,9,2,12,,,,,,,,6,16,,,,,,,,,,,6,1.202,1,,,,,,-0.109166667,-0.401666667,1,0,0,1.2019,Pegmatite_rect,11,0,11,0,1,
63ffcb367b500c516d0648a2,SCN,2024-06-26_10h37.24.042,LearnStrategy,2023.2.3,Win32,14.99250375,9,2,13,,,,,,,,2,05,,,,,,,,,,,2,1.351,1,,,,,,-0.15,-0.2525,1,0,0,1.3508,Basalt_rect,12,0,12,0,1,
63ffcb367b500c516d0648a2,SCN,2024-06-26_10h37.24.042,LearnStrategy,2023.2.3,Win32,14.99250375,9,2,14,,,,,,,,7,13,,,,,,,,,,,7,1.184,1,,,,,,0.109166667,-0.3825,1,0,0,1.1845,Peridotite_rect,13,0,13,0,1,
63ffcb367b500c516d0648a2,SCN,2024-06-26_10h37.24.042,LearnStrategy,2023.2.3,Win32,14.99250375,9,2,15,,,,,,,,5,06,,,,,,,,,,,5,1.202,1,,,,,,-0.36,-0.400833333,1,0,0,1.2018,Obsidian_rect,14,0,14,0,1,
63ffcb367b500c516d0648a2,SCN,2024-06-26_10h37.24.042,LearnStrategy,2023.2.3,Win32,14.99250375,9,2,16,,,,,,,,3,11,,,,,,,,,,,3,1.209,1,,,,,,0.118333333,-0.243333333,1,0,0,1.209,Diorite_rect,15,0,15,0,1,
63ffcb367b500c516d0648a2,SCN,2024-06-26_10h37.24.042,LearnStrategy,2023.2.3,Win32,14.99250375,,,,,,,,,,,,,,,,,,,,,,,,,,,,,,,,,,,,,,,,,,,1
63ffcb367b500c516d0648a2,SCN,2024-06-26_10h37.24.042,LearnStrategy,2023.2.3,Win32,14.99250375,,,,,,,,,,,,,,,,,,,,,,,,,,,,,,,,,,,,,,,,,,,
63ffcb367b500c516d0648a2,SCN,2024-06-26_10h37.24.042,LearnStrategy,2023.2.3,Win32,14.99250375,,,,,,,,,,,7,04,1,1,,,,,,,,,,,,,,,,,,,,,,,,,,,,,
63ffcb367b500c516d0648a2,SCN,2024-06-26_10h37.24.042,LearnStrategy,2023.2.3,Win32,14.99250375,,,,,,,,,,,8,02,1,2,,,,,,,,,,,,,,,,,,,,,,,,,,,,,
63ffcb367b500c516d0648a2,SCN,2024-06-26_10h37.24.042,LearnStrategy,2023.2.3,Win32,14.99250375,,,,,,,,,,,2,16,1,3,,,,,,,,,,,,,,,,,,,,,,,,,,,,,
63ffcb367b500c516d0648a2,SCN,2024-06-26_10h37.24.042,LearnStrategy,2023.2.3,Win32,14.99250375,,,,,,,,,,,1,14,1,4,,,,,,,,,,,,,,,,,,,,,,,,,,,,,
63ffcb367b500c516d0648a2,SCN,2024-06-26_10h37.24.042,LearnStrategy,2023.2.3,Win32,14.99250375,,,,,,,,,,,8,05,1,5,,,,,,,,,,,,,,,,,,,,,,,,,,,,,
63ffcb367b500c516d0648a2,SCN,2024-06-26_10h37.24.042,LearnStrategy,2023.2.3,Win32,14.99250375,,,,,,,,,,,2,11,1,6,,,,,,,,,,,,,,,,,,,,,,,,,,,,,
63ffcb367b500c516d0648a2,SCN,2024-06-26_10h37.24.042,LearnStrategy,2023.2.3,Win32,14.99250375,,,,,,,,,,,4,01,1,7,,,,,,,,,,,,,,,,,,,,,,,,,,,,,
63ffcb367b500c516d0648a2,SCN,2024-06-26_10h37.24.042,LearnStrategy,2023.2.3,Win32,14.99250375,,,,,,,,,,,6,08,1,8,,,,,,,,,,,,,,,,,,,,,,,,,,,,,
63ffcb367b500c516d0648a2,SCN,2024-06-26_10h37.24.042,LearnStrategy,2023.2.3,Win32,14.99250375,,,,,,,,,,,1,11,2,1,,,,,,,,,,,,,,,,,,,,,,,,,,,,,
63ffcb367b500c516d0648a2,SCN,2024-06-26_10h37.24.042,LearnStrategy,2023.2.3,Win32,14.99250375,,,,,,,,,,,3,16,2,2,,,,,,,,,,,,,,,,,,,,,,,,,,,,,
63ffcb367b500c516d0648a2,SCN,2024-06-26_10h37.24.042,LearnStrategy,2023.2.3,Win32,14.99250375,,,,,,,,,,,3,08,2,3,,,,,,,,,,,,,,,,,,,,,,,,,,,,,
63ffcb367b500c516d0648a2,SCN,2024-06-26_10h37.24.042,LearnStrategy,2023.2.3,Win32,14.99250375,,,,,,,,,,,4,05,2,4,,,,,,,,,,,,,,,,,,,,,,,,,,,,,
63ffcb367b500c516d0648a2,SCN,2024-06-26_10h37.24.042,LearnStrategy,2023.2.3,Win32,14.99250375,,,,,,,,,,,4,11,2,5,,,,,,,,,,,,,,,,,,,,,,,,,,,,,
63ffcb367b500c516d0648a2,SCN,2024-06-26_10h37.24.042,LearnStrategy,2023.2.3,Win32,14.99250375,,,,,,,,,,,7,06,2,6,,,,,,,,,,,,,,,,,,,,,,,,,,,,,
63ffcb367b500c516d0648a2,SCN,2024-06-26_10h37.24.042,LearnStrategy,2023.2.3,Win32,14.99250375,,,,,,,,,,,1,16,2,7,,,,,,,,,,,,,,,,,,,,,,,,,,,,,
63ffcb367b500c516d0648a2,SCN,2024-06-26_10h37.24.042,LearnStrategy,2023.2.3,Win32,14.99250375,,,,,,,,,,,1,03,2,8,,,,,,,,,,,,,,,,,,,,,,,,,,,,,
63ffcb367b500c516d0648a2,SCN,2024-06-26_10h37.24.042,LearnStrategy,2023.2.3,Win32,14.99250375,,,,,,,,,,,1,02,3,1,,,,,,,,,,,,,,,,,,,,,,,,,,,,,
63ffcb367b500c516d0648a2,SCN,2024-06-26_10h37.24.042,LearnStrategy,2023.2.3,Win32,14.99250375,,,,,,,,,,,2,02,3,2,,,,,,,,,,,,,,,,,,,,,,,,,,,,,
63ffcb367b500c516d0648a2,SCN,2024-06-26_10h37.24.042,LearnStrategy,2023.2.3,Win32,14.99250375,,,,,,,,,,,8,09,3,3,,,,,,,,,,,,,,,,,,,,,,,,,,,,,
63ffcb367b500c516d0648a2,SCN,2024-06-26_10h37.24.042,LearnStrategy,2023.2.3,Win32,14.99250375,,,,,,,,,,,6,05,3,4,,,,,,,,,,,,,,,,,,,,,,,,,,,,,
63ffcb367b500c516d0648a2,SCN,2024-06-26_10h37.24.042,LearnStrategy,2023.2.3,Win32,14.99250375,,,,,,,,,,,4,12,3,5,,,,,,,,,,,,,,,,,,,,,,,,,,,,,
63ffcb367b500c516d0648a2,SCN,2024-06-26_10h37.24.042,LearnStrategy,2023.2.3,Win32,14.99250375,,,,,,,,,,,8,03,3,6,,,,,,,,,,,,,,,,,,,,,,,,,,,,,
63ffcb367b500c516d0648a2,SCN,2024-06-26_10h37.24.042,LearnStrategy,2023.2.3,Win32,14.99250375,,,,,,,,,,,7,12,3,7,,,,,,,,,,,,,,,,,,,,,,,,,,,,,
63ffcb367b500c516d0648a2,SCN,2024-06-26_10h37.24.042,LearnStrategy,2023.2.3,Win32,14.99250375,,,,,,,,,,,2,04,3,8,,,,,,,,,,,,,,,,,,,,,,,,,,,,,
63ffcb367b500c516d0648a2,SCN,2024-06-26_10h37.24.042,LearnStrategy,2023.2.3,Win32,14.99250375,,,,,,,,,,,4,15,4,1,,,,,,,,,,,,,,,,,,,,,,,,,,,,,
63ffcb367b500c516d0648a2,SCN,2024-06-26_10h37.24.042,LearnStrategy,2023.2.3,Win32,14.99250375,,,,,,,,,,,5,04,4,2,,,,,,,,,,,,,,,,,,,,,,,,,,,,,
63ffcb367b500c516d0648a2,SCN,2024-06-26_10h37.24.042,LearnStrategy,2023.2.3,Win32,14.99250375,,,,,,,,,,,3,14,4,3,,,,,,,,,,,,,,,,,,,,,,,,,,,,,
63ffcb367b500c516d0648a2,SCN,2024-06-26_10h37.24.042,LearnStrategy,2023.2.3,Win32,14.99250375,,,,,,,,,,,1,07,4,4,,,,,,,,,,,,,,,,,,,,,,,,,,,,,
63ffcb367b500c516d0648a2,SCN,2024-06-26_10h37.24.042,LearnStrategy,2023.2.3,Win32,14.99250375,,,,,,,,,,,5,11,4,5,,,,,,,,,,,,,,,,,,,,,,,,,,,,,
63ffcb367b500c516d0648a2,SCN,2024-06-26_10h37.24.042,LearnStrategy,2023.2.3,Win32,14.99250375,,,,,,,,,,,4,13,4,6,,,,,,,,,,,,,,,,,,,,,,,,,,,,,
63ffcb367b500c516d0648a2,SCN,2024-06-26_10h37.24.042,LearnStrategy,2023.2.3,Win32,14.99250375,,,,,,,,,,,6,03,4,7,,,,,,,,,,,,,,,,,,,,,,,,,,,,,
63ffcb367b500c516d0648a2,SCN,2024-06-26_10h37.24.042,LearnStrategy,2023.2.3,Win32,14.99250375,,,,,,,,,,,5,14,4,8,,,,,,,,,,,,,,,,,,,,,,,,,,,,,
63ffcb367b500c516d0648a2,SCN,2024-06-26_10h37.24.042,LearnStrategy,2023.2.3,Win32,14.99250375,,,,,,,,,,,7,14,5,1,,,,,,,,,,,,,,,,,,,,,,,,,,,,,
63ffcb367b500c516d0648a2,SCN,2024-06-26_10h37.24.042,LearnStrategy,2023.2.3,Win32,14.99250375,,,,,,,,,,,7,08,5,2,,,,,,,,,,,,,,,,,,,,,,,,,,,,,
63ffcb367b500c516d0648a2,SCN,2024-06-26_10h37.24.042,LearnStrategy,2023.2.3,Win32,14.99250375,,,,,,,,,,,8,10,5,3,,,,,,,,,,,,,,,,,,,,,,,,,,,,,
63ffcb367b500c516d0648a2,SCN,2024-06-26_10h37.24.042,LearnStrategy,2023.2.3,Win32,14.99250375,,,,,,,,,,,6,12,5,4,,,,,,,,,,,,,,,,,,,,,,,,,,,,,
63ffcb367b500c516d0648a2,SCN,2024-06-26_10h37.24.042,LearnStrategy,2023.2.3,Win32,14.99250375,,,,,,,,,,,2,06,5,5,,,,,,,,,,,,,,,,,,,,,,,,,,,,,
63ffcb367b500c516d0648a2,SCN,2024-06-26_10h37.24.042,LearnStrategy,2023.2.3,Win32,14.99250375,,,,,,,,,,,5,12,5,6,,,,,,,,,,,,,,,,,,,,,,,,,,,,,
63ffcb367b500c516d0648a2,SCN,2024-06-26_10h37.24.042,LearnStrategy,2023.2.3,Win32,14.99250375,,,,,,,,,,,3,12,5,7,,,,,,,,,,,,,,,,,,,,,,,,,,,,,
63ffcb367b500c516d0648a2,SCN,2024-06-26_10h37.24.042,LearnStrategy,2023.2.3,Win32,14.99250375,,,,,,,,,,,7,07,5,8,,,,,,,,,,,,,,,,,,,,,,,,,,,,,
63ffcb367b500c516d0648a2,SCN,2024-06-26_10h37.24.042,LearnStrategy,2023.2.3,Win32,14.99250375,,,,,,,,,,,3,06,6,1,,,,,,,,,,,,,,,,,,,,,,,,,,,,,
63ffcb367b500c516d0648a2,SCN,2024-06-26_10h37.24.042,LearnStrategy,2023.2.3,Win32,14.99250375,,,,,,,,,,,2,09,6,2,,,,,,,,,,,,,,,,,,,,,,,,,,,,,
63ffcb367b500c516d0648a2,SCN,2024-06-26_10h37.24.042,LearnStrategy,2023.2.3,Win32,14.99250375,,,,,,,,,,,8,16,6,3,,,,,,,,,,,,,,,,,,,,,,,,,,,,,
63ffcb367b500c516d0648a2,SCN,2024-06-26_10h37.24.042,LearnStrategy,2023.2.3,Win32,14.99250375,,,,,,,,,,,3,09,6,4,,,,,,,,,,,,,,,,,,,,,,,,,,,,,
63ffcb367b500c516d0648a2,SCN,2024-06-26_10h37.24.042,LearnStrategy,2023.2.3,Win32,14.99250375,,,,,,,,,,,5,16,6,5,,,,,,,,,,,,,,,,,,,,,,,,,,,,,
63ffcb367b500c516d0648a2,SCN,2024-06-26_10h37.24.042,LearnStrategy,2023.2.3,Win32,14.99250375,,,,,,,,,,,5,05,6,6,,,,,,,,,,,,,,,,,,,,,,,,,,,,,
63ffcb367b500c516d0648a2,SCN,2024-06-26_10h37.24.042,LearnStrategy,2023.2.3,Win32,14.99250375,,,,,,,,,,,6,09,6,7,,,,,,,,,,,,,,,,,,,,,,,,,,,,,
63ffcb367b500c516d0648a2,SCN,2024-06-26_10h37.24.042,LearnStrategy,2023.2.3,Win32,14.99250375,,,,,,,,,,,6,06,6,8,,,,,,,,,,,,,,,,,,,,,,,,,,,,,