participant,condition,date,expName,psychopyVersion,OS,frameRate,block,phase,trial,learn_mouse.x,learn_mouse.y,learn_mouse.leftButton,learn_mouse.midButton,learn_mouse.rightButton,learn_mouse.time,learn_mouse.clicked_name,cat,token,row,col,t_select,cat_rec,token_rec,cat_mouse_l.x,cat_mouse_l.y,cat_mouse_l.leftButton,cat_mouse_l.midButton,cat_mouse_l.rightButton,cat_mouse_l.time,cat_mouse_l.clicked_name,resp,t_resp,corr,train_trials.thisRepN,train_trials.thisTrialN,train_trials.thisN,train_trials.thisIndex,train_trials.ran,cat_mouse_t.x,cat_mouse_t.y,cat_mouse_t.leftButton,cat_mouse_t.midButton,cat_mouse_t.rightButton,cat_mouse_t.time,cat_mouse_t.clicked_name,test_trials.thisRepN,test_trials.thisTrialN,test_trials.thisN,test_trials.thisIndex,test_trials.ran,Bonus
6400f14b24ac2b910c9f2d93,SCR,2024-06-24_16h33.47.131,LearnStrategy,2023.2.3,Win32,59.88023952,,,,,,,,,,,,,,,,,,,,,,,,,,,,,,,,,,,,,,,,,,,,,
6400f14b24ac2b910c9f2d93,SCR,2024-06-24_16h33.47.131,LearnStrategy,2023.2.3,Win32,59.88023952,1,1,1,0.07421875,0.0859375,1,0,0,8.14,Gabbro_12,4,12,4,5,8.14,1,14,-0.12890625,-0.23828125,1,0,0,11.198,Basalt_rect,2,11.198,0,0,0,0,0,1,,,,,,,,,,,,,
6400f14b24ac2b910c9f2d93,SCR,2024-06-24_16h33.47.131,LearnStrategy,2023.2.3,Win32,59.88023952,1,1,2,-0.100260417,0.095052083,1,0,0,2.0858,Pumice_02,8,02,4,4,2.086,6,12,0.348958333,-0.399739583,1,0,0,2.8404,Pumice_rect,8,2.84,1,1,0,1,0,1,,,,,,,,,,,,,
6400f14b24ac2b910c9f2d93,SCR,2024-06-24_16h33.47.131,LearnStrategy,2023.2.3,Win32,59.88023952,1,1,3,-0.264322917,0.079427083,1,0,0,2.394,Peridotite_06,7,06,4,3,2.394,2,10,-0.138020833,-0.4140625,1,0,0,11.1581,Pegmatite_rect,6,11.158,0,2,0,2,0,1,,,,,,,,,,,,,
6400f14b24ac2b910c9f2d93,SCR,2024-06-24_16h33.47.131,LearnStrategy,2023.2.3,Win32,59.88023952,1,1,4,-0.420572917,0.096354167,1,0,0,3.3755,Pumice_03,8,03,4,2,3.375,8,06,0.40234375,-0.393229167,1,0,0,2.6941,Pumice_rect,8,2.694,1,3,0,3,0,1,,,,,,,,,,,,,
6400f14b24ac2b910c9f2d93,SCR,2024-06-24_16h33.47.131,LearnStrategy,2023.2.3,Win32,59.88023952,1,1,5,-0.23828125,-0.0703125,1,0,0,1.6408,Peridotite_15,7,15,3,3,1.641,5,14,0.079427083,-0.40625,1,0,0,4.5761,Peridotite_rect,7,4.576,1,4,0,4,0,1,,,,,,,,,,,,,
6400f14b24ac2b910c9f2d93,SCR,2024-06-24_16h33.47.131,LearnStrategy,2023.2.3,Win32,59.88023952,1,1,6,-0.55078125,-0.220052083,1,0,0,1.7161,Diorite_08,3,08,2,1,1.716,6,06,-0.127604167,-0.403645833,1,0,0,7.3221,Pegmatite_rect,6,7.322,0,5,0,5,0,1,,,,,,,,,,,,,
6400f14b24ac2b910c9f2d93,SCR,2024-06-24_16h33.47.131,LearnStrategy,2023.2.3,Win32,59.88023952,1,1,7,-0.234375,0.263020833,1,0,0,1.8878,Peridotite_13,7,13,5,3,1.888,1,04,-0.381510417,-0.25,1,0,0,5.2897,Andesite_rect,1,5.29,0,6,0,6,0,1,,,,,,,,,,,,,
6400f14b24ac2b910c9f2d93,SCR,2024-06-24_16h33.47.131,LearnStrategy,2023.2.3,Win32,59.88023952,1,1,8,0.208333333,-0.2265625,1,0,0,4.7085,Pegmatite_10,6,10,2,6,4.708,3,12,-0.333333333,-0.240885417,1,0,0,7.2134,Andesite_rect,1,7.213,0,7,0,7,0,1,,,,,,,,,,,,,
6400f14b24ac2b910c9f2d93,SCR,2024-06-24_16h33.47.131,LearnStrategy,2023.2.3,Win32,59.88023952,1,1,9,-0.369791667,-0.2421875,1,0,0,1.7264,Obsidian_07,5,07,2,2,1.726,7,02,-0.377604167,-0.419270833,1,0,0,5.132,Obsidian_rect,5,5.132,1,8,0,8,0,1,,,,,,,,,,,,,
6400f14b24ac2b910c9f2d93,SCR,2024-06-24_16h33.47.131,LearnStrategy,2023.2.3,Win32,59.88023952,1,1,10,-0.091145833,-0.27734375,1,0,0,3.8082,Peridotite_02,7,02,2,4,3.808,3,09,0.109375,-0.385416667,1,0,0,4.5099,Peridotite_rect,7,4.51,1,9,0,9,0,1,,,,,,,,,,,,,
6400f14b24ac2b910c9f2d93,SCR,2024-06-24_16h33.47.131,LearnStrategy,2023.2.3,Win32,59.88023952,1,1,11,-0.555989583,-0.408854167,1,0,0,3.0074,Pegmatite_12,6,12,1,1,3.007,7,07,-0.15234375,-0.23828125,1,0,0,2.7772,Basalt_rect,2,2.777,0,10,0,10,0,1,,,,,,,,,,,,,
6400f14b24ac2b910c9f2d93,SCR,2024-06-24_16h33.47.131,LearnStrategy,2023.2.3,Win32,59.88023952,1,1,12,-0.416666667,-0.109375,1,0,0,2.8908,Basalt_09,2,09,3,2,2.891,2,14,-0.147135417,-0.240885417,1,0,0,4.3068,Basalt_rect,2,4.307,1,11,0,11,0,1,,,,,,,,,,,,,
6400f14b24ac2b910c9f2d93,SCR,2024-06-24_16h33.47.131,LearnStrategy,2023.2.3,Win32,59.88023952,1,1,13,0.368489583,-0.225260417,1,0,0,5.6597,Pegmatite_08,6,08,2,7,5.66,8,04,-0.102864583,-0.416666667,1,0,0,4.3613,Pegmatite_rect,6,4.361,1,12,0,12,0,1,,,,,,,,,,,,,
6400f14b24ac2b910c9f2d93,SCR,2024-06-24_16h33.47.131,LearnStrategy,2023.2.3,Win32,59.88023952,1,1,14,-0.360677083,-0.388020833,1,0,0,2.3495,Basalt_14,2,14,1,2,2.35,4,14,-0.427083333,-0.231770833,1,0,0,6.0896,Andesite_rect,1,6.09,0,13,0,13,0,1,,,,,,,,,,,,,
6400f14b24ac2b910c9f2d93,SCR,2024-06-24_16h33.47.131,LearnStrategy,2023.2.3,Win32,59.88023952,1,1,15,0.388020833,-0.39453125,1,0,0,5.6887,Basalt_12,2,12,1,7,5.689,4,10,-0.361979167,-0.240885417,1,0,0,5.7191,Andesite_rect,1,5.719,0,14,0,14,0,1,,,,,,,,,,,,,
6400f14b24ac2b910c9f2d93,SCR,2024-06-24_16h33.47.131,LearnStrategy,2023.2.3,Win32,59.88023952,1,1,16,0.059895833,-0.3671875,1,0,0,4.8915,Gabbro_05,4,05,1,5,4.892,5,07,0.083333333,-0.234375,1,0,0,6.0628,Diorite_rect,3,6.063,0,15,0,15,0,1,,,,,,,,,,,,,
6400f14b24ac2b910c9f2d93,SCR,2024-06-24_16h33.47.131,LearnStrategy,2023.2.3,Win32,59.88023952,1,2,1,,,,,,,,1,06,,,,,,,,,,,,,4,3.183,0,,,,,,0.4453125,-0.24609375,1,0,0,3.1833,Gabbro_rect,0,0,0,0,1,
6400f14b24ac2b910c9f2d93,SCR,2024-06-24_16h33.47.131,LearnStrategy,2023.2.3,Win32,59.88023952,1,2,2,,,,,,,,7,12,,,,,,,,,,,,,7,3.107,1,,,,,,0.057291667,-0.411458333,1,0,0,3.107,Peridotite_rect,1,0,1,0,1,
6400f14b24ac2b910c9f2d93,SCR,2024-06-24_16h33.47.131,LearnStrategy,2023.2.3,Win32,59.88023952,1,2,3,,,,,,,,7,05,,,,,,,,,,,,,7,2.289,1,,,,,,0.057291667,-0.411458333,1,0,0,2.2886,Peridotite_rect,2,0,2,0,1,
6400f14b24ac2b910c9f2d93,SCR,2024-06-24_16h33.47.131,LearnStrategy,2023.2.3,Win32,59.88023952,1,2,4,,,,,,,,1,11,,,,,,,,,,,,,6,5.457,0,,,,,,-0.200520833,-0.41015625,1,0,0,5.457,Pegmatite_rect,3,0,3,0,1,
6400f14b24ac2b910c9f2d93,SCR,2024-06-24_16h33.47.131,LearnStrategy,2023.2.3,Win32,59.88023952,1,2,5,,,,,,,,8,05,,,,,,,,,,,,,8,4.237,1,,,,,,0.342447917,-0.389322917,1,0,0,4.2367,Pumice_rect,4,0,4,0,1,
6400f14b24ac2b910c9f2d93,SCR,2024-06-24_16h33.47.131,LearnStrategy,2023.2.3,Win32,59.88023952,1,2,6,,,,,,,,2,01,,,,,,,,,,,,,2,2.008,1,,,,,,-0.145833333,-0.263020833,1,0,0,2.0085,Basalt_rect,5,0,5,0,1,
6400f14b24ac2b910c9f2d93,SCR,2024-06-24_16h33.47.131,LearnStrategy,2023.2.3,Win32,59.88023952,1,2,7,,,,,,,,6,09,,,,,,,,,,,,,6,3.558,1,,,,,,-0.118489583,-0.3828125,1,0,0,3.5579,Pegmatite_rect,6,0,6,0,1,
6400f14b24ac2b910c9f2d93,SCR,2024-06-24_16h33.47.131,LearnStrategy,2023.2.3,Win32,59.88023952,1,2,8,,,,,,,,2,04,,,,,,,,,,,,,2,2.316,1,,,,,,-0.111979167,-0.235677083,1,0,0,2.3159,Basalt_rect,7,0,7,0,1,
6400f14b24ac2b910c9f2d93,SCR,2024-06-24_16h33.47.131,LearnStrategy,2023.2.3,Win32,59.88023952,1,2,9,,,,,,,,5,12,,,,,,,,,,,,,5,2.187,1,,,,,,-0.337239583,-0.3828125,1,0,0,2.1871,Obsidian_rect,8,0,8,0,1,
6400f14b24ac2b910c9f2d93,SCR,2024-06-24_16h33.47.131,LearnStrategy,2023.2.3,Win32,59.88023952,1,2,10,,,,,,,,6,11,,,,,,,,,,,,,6,3.702,1,,,,,,-0.14453125,-0.40234375,1,0,0,3.7024,Pegmatite_rect,9,0,9,0,1,
6400f14b24ac2b910c9f2d93,SCR,2024-06-24_16h33.47.131,LearnStrategy,2023.2.3,Win32,59.88023952,1,2,11,,,,,,,,3,11,,,,,,,,,,,,,7,2.146,0,,,,,,0.102864583,-0.39453125,1,0,0,2.1456,Peridotite_rect,10,0,10,0,1,
6400f14b24ac2b910c9f2d93,SCR,2024-06-24_16h33.47.131,LearnStrategy,2023.2.3,Win32,59.88023952,1,2,12,,,,,,,,4,01,,,,,,,,,,,,,4,2.488,1,,,,,,0.3515625,-0.251302083,1,0,0,2.4877,Gabbro_rect,11,0,11,0,1,
6400f14b24ac2b910c9f2d93,SCR,2024-06-24_16h33.47.131,LearnStrategy,2023.2.3,Win32,59.88023952,1,2,13,,,,,,,,3,06,,,,,,,,,,,,,7,6.517,0,,,,,,0.145833333,-0.407552083,1,0,0,6.5169,Peridotite_rect,12,0,12,0,1,
6400f14b24ac2b910c9f2d93,SCR,2024-06-24_16h33.47.131,LearnStrategy,2023.2.3,Win32,59.88023952,1,2,14,,,,,,,,4,13,,,,,,,,,,,,,6,5.551,0,,,,,,-0.115885417,-0.397135417,1,0,0,5.5512,Pegmatite_rect,13,0,13,0,1,
6400f14b24ac2b910c9f2d93,SCR,2024-06-24_16h33.47.131,LearnStrategy,2023.2.3,Win32,59.88023952,1,2,15,,,,,,,,8,14,,,,,,,,,,,,,8,1.936,1,,,,,,0.33984375,-0.384114583,1,0,0,1.9362,Pumice_rect,14,0,14,0,1,
6400f14b24ac2b910c9f2d93,SCR,2024-06-24_16h33.47.131,LearnStrategy,2023.2.3,Win32,59.88023952,1,2,16,,,,,,,,5,02,,,,,,,,,,,,,5,4.366,1,,,,,,-0.377604167,-0.388020833,1,0,0,4.3657,Obsidian_rect,15,0,15,0,1,
6400f14b24ac2b910c9f2d93,SCR,2024-06-24_16h33.47.131,LearnStrategy,2023.2.3,Win32,59.88023952,2,1,1,-0.541666667,0.09375,1,0,0,5.1481,Diorite_09,3,09,4,1,5.148,3,15,-0.434895833,-0.235677083,1,0,0,5.8387,Andesite_rect,1,5.839,0,0,0,0,0,1,,,,,,,,,,,,,
6400f14b24ac2b910c9f2d93,SCR,2024-06-24_16h33.47.131,LearnStrategy,2023.2.3,Win32,59.88023952,2,1,2,-0.546875,-0.376302083,1,0,0,6.8268,Pegmatite_12,6,12,1,1,6.827,7,07,-0.221354167,-0.388020833,1,0,0,1.7027,Pegmatite_rect,6,1.703,1,1,0,1,0,1,,,,,,,,,,,,,
6400f14b24ac2b910c9f2d93,SCR,2024-06-24_16h33.47.131,LearnStrategy,2023.2.3,Win32,59.88023952,2,1,3,0.229166667,-0.114583333,1,0,0,5.4331,Andesite_01,1,01,3,6,5.433,4,10,-0.395833333,-0.240885417,1,0,0,5.8054,Andesite_rect,1,5.805,1,2,0,2,0,1,,,,,,,,,,,,,
6400f14b24ac2b910c9f2d93,SCR,2024-06-24_16h33.47.131,LearnStrategy,2023.2.3,Win32,59.88023952,2,1,4,-0.088541667,-0.259114583,1,0,0,10.1077,Peridotite_02,7,02,2,4,10.108,3,14,0.127604167,-0.390625,1,0,0,1.9936,Peridotite_rect,7,1.994,1,3,0,3,0,1,,,,,,,,,,,,,
6400f14b24ac2b910c9f2d93,SCR,2024-06-24_16h33.47.131,LearnStrategy,2023.2.3,Win32,59.88023952,2,1,5,0.388020833,0.252604167,1,0,0,9.6999,Diorite_14,3,14,5,7,9.7,1,02,0.114583333,-0.255208333,1,0,0,6.7867,Diorite_rect,3,6.787,1,4,0,4,0,1,,,,,,,,,,,,,
6400f14b24ac2b910c9f2d93,SCR,2024-06-24_16h33.47.131,LearnStrategy,2023.2.3,Win32,59.88023952,2,1,6,-0.399739583,0.41796875,1,0,0,5.476,Gabbro_09,4,09,6,2,5.476,4,12,-0.388020833,-0.2578125,1,0,0,7.1118,Andesite_rect,1,7.112,0,5,0,5,0,1,,,,,,,,,,,,,
6400f14b24ac2b910c9f2d93,SCR,2024-06-24_16h33.47.131,LearnStrategy,2023.2.3,Win32,59.88023952,2,1,7,0.580729167,0.12890625,1,0,0,9.0649,Gabbro_08,4,08,4,8,9.065,5,04,0.377604167,-0.25,1,0,0,4.2032,Gabbro_rect,4,4.203,1,6,0,6,0,1,,,,,,,,,,,,,
6400f14b24ac2b910c9f2d93,SCR,2024-06-24_16h33.47.131,LearnStrategy,2023.2.3,Win32,59.88023952,2,1,8,0.578125,-0.272135417,1,0,0,3.5346,Obsidian_14,5,14,2,8,3.535,3,14,-0.401041667,-0.412760417,1,0,0,2.5662,Obsidian_rect,5,2.566,1,7,0,7,0,1,,,,,,,,,,,,,
6400f14b24ac2b910c9f2d93,SCR,2024-06-24_16h33.47.131,LearnStrategy,2023.2.3,Win32,59.88023952,2,1,9,-0.248697917,0.092447917,1,0,0,3.0677,Peridotite_06,7,06,4,3,3.068,3,12,0.080729167,-0.401041667,1,0,0,2.2513,Peridotite_rect,7,2.251,1,8,0,8,0,1,,,,,,,,,,,,,
6400f14b24ac2b910c9f2d93,SCR,2024-06-24_16h33.47.131,LearnStrategy,2023.2.3,Win32,59.88023952,2,1,10,-0.403645833,-0.397135417,1,0,0,3.8671,Basalt_14,2,14,1,2,3.867,6,06,-0.40625,-0.2421875,1,0,0,16.7555,Andesite_rect,1,16.755,0,9,0,9,0,1,,,,,,,,,,,,,
6400f14b24ac2b910c9f2d93,SCR,2024-06-24_16h33.47.131,LearnStrategy,2023.2.3,Win32,59.88023952,2,1,11,0.087239583,0.421875,1,0,0,10.411,Andesite_10,1,10,6,5,10.411,1,14,-0.1328125,-0.37890625,1,0,0,2.8434,Pegmatite_rect,6,2.843,0,10,0,10,0,1,,,,,,,,,,,,,
6400f14b24ac2b910c9f2d93,SCR,2024-06-24_16h33.47.131,LearnStrategy,2023.2.3,Win32,59.88023952,2,1,12,0.368489583,0.40234375,1,0,0,2.8245,Diorite_12,3,12,6,7,2.824,4,08,0.059895833,-0.3828125,1,0,0,1.9044,Peridotite_rect,7,1.904,0,11,0,11,0,1,,,,,,,,,,,,,
6400f14b24ac2b910c9f2d93,SCR,2024-06-24_16h33.47.131,LearnStrategy,2023.2.3,Win32,59.88023952,2,1,13,0.528645833,0.09375,1,0,0,10.493,Gabbro_08,4,08,4,8,10.493,1,01,0.45703125,-0.248697917,1,0,0,2.3803,Gabbro_rect,4,2.38,1,12,0,12,0,1,,,,,,,,,,,,,
6400f14b24ac2b910c9f2d93,SCR,2024-06-24_16h33.47.131,LearnStrategy,2023.2.3,Win32,59.88023952,2,1,14,-0.08203125,0.263020833,1,0,0,7.5104,Pumice_15,8,15,5,4,7.51,1,10,0.315104167,-0.385416667,1,0,0,4.2682,Pumice_rect,8,4.268,1,13,0,13,0,1,,,,,,,,,,,,,
6400f14b24ac2b910c9f2d93,SCR,2024-06-24_16h33.47.131,LearnStrategy,2023.2.3,Win32,59.88023952,2,1,15,-0.399739583,0.091145833,1,0,0,7.4284,Pumice_03,8,03,4,2,7.428,1,04,0.372395833,-0.3984375,1,0,0,2.0778,Pumice_rect,8,2.078,1,14,0,14,0,1,,,,,,,,,,,,,
6400f14b24ac2b910c9f2d93,SCR,2024-06-24_16h33.47.131,LearnStrategy,2023.2.3,Win32,59.88023952,2,1,16,0.39453125,0.071614583,1,0,0,1.5575,Diorite_10,3,10,4,7,1.558,3,09,0.173177083,-0.23046875,1,0,0,2.3005,Diorite_rect,3,2.3,1,15,0,15,0,1,,,,,,,,,,,,,
6400f14b24ac2b910c9f2d93,SCR,2024-06-24_16h33.47.131,LearnStrategy,2023.2.3,Win32,59.88023952,2,2,1,,,,,,,,8,13,,,,,,,,,,,,,8,3.863,1,,,,,,0.337239583,-0.388020833,1,0,0,3.8631,Pumice_rect,0,0,0,0,1,
6400f14b24ac2b910c9f2d93,SCR,2024-06-24_16h33.47.131,LearnStrategy,2023.2.3,Win32,59.88023952,2,2,2,,,,,,,,8,10,,,,,,,,,,,,,8,1.632,1,,,,,,0.337239583,-0.388020833,1,0,0,1.632,Pumice_rect,1,0,1,0,1,
6400f14b24ac2b910c9f2d93,SCR,2024-06-24_16h33.47.131,LearnStrategy,2023.2.3,Win32,59.88023952,2,2,3,,,,,,,,5,06,,,,,,,,,,,,,5,1.759,1,,,,,,-0.359375,-0.381510417,1,0,0,1.7589,Obsidian_rect,2,0,2,0,1,
6400f14b24ac2b910c9f2d93,SCR,2024-06-24_16h33.47.131,LearnStrategy,2023.2.3,Win32,59.88023952,2,2,4,,,,,,,,1,07,,,,,,,,,,,,,3,3.441,0,,,,,,0.197916667,-0.236979167,1,0,0,3.4412,Diorite_rect,3,0,3,0,1,
6400f14b24ac2b910c9f2d93,SCR,2024-06-24_16h33.47.131,LearnStrategy,2023.2.3,Win32,59.88023952,2,2,5,,,,,,,,1,09,,,,,,,,,,,,,4,2.318,0,,,,,,0.401041667,-0.251302083,1,0,0,2.3182,Gabbro_rect,4,0,4,0,1,
6400f14b24ac2b910c9f2d93,SCR,2024-06-24_16h33.47.131,LearnStrategy,2023.2.3,Win32,59.88023952,2,2,6,,,,,,,,3,13,,,,,,,,,,,,,3,6.902,1,,,,,,0.125,-0.25390625,1,0,0,6.9019,Diorite_rect,5,0,5,0,1,
6400f14b24ac2b910c9f2d93,SCR,2024-06-24_16h33.47.131,LearnStrategy,2023.2.3,Win32,59.88023952,2,2,7,,,,,,,,4,16,,,,,,,,,,,,,2,10.375,0,,,,,,-0.096354167,-0.270833333,1,0,0,10.3755,Basalt_rect,6,0,6,0,1,
6400f14b24ac2b910c9f2d93,SCR,2024-06-24_16h33.47.131,LearnStrategy,2023.2.3,Win32,59.88023952,2,2,8,,,,,,,,6,07,,,,,,,,,,,,,6,3.294,1,,,,,,-0.1015625,-0.40625,1,0,0,3.294,Pegmatite_rect,7,0,7,0,1,
6400f14b24ac2b910c9f2d93,SCR,2024-06-24_16h33.47.131,LearnStrategy,2023.2.3,Win32,59.88023952,2,2,9,,,,,,,,7,08,,,,,,,,,,,,,7,2.563,1,,,,,,0.125,-0.41796875,1,0,0,2.5627,Peridotite_rect,8,0,8,0,1,
6400f14b24ac2b910c9f2d93,SCR,2024-06-24_16h33.47.131,LearnStrategy,2023.2.3,Win32,59.88023952,2,2,10,,,,,,,,4,15,,,,,,,,,,,,,6,4.031,0,,,,,,-0.108072917,-0.404947917,1,0,0,4.0308,Pegmatite_rect,9,0,9,0,1,
6400f14b24ac2b910c9f2d93,SCR,2024-06-24_16h33.47.131,LearnStrategy,2023.2.3,Win32,59.88023952,2,2,11,,,,,,,,5,05,,,,,,,,,,,,,5,3.432,1,,,,,,-0.407552083,-0.40625,1,0,0,3.4323,Obsidian_rect,10,0,10,0,1,
6400f14b24ac2b910c9f2d93,SCR,2024-06-24_16h33.47.131,LearnStrategy,2023.2.3,Win32,59.88023952,2,2,12,,,,,,,,2,06,,,,,,,,,,,,,2,1.615,1,,,,,,-0.110677083,-0.247395833,1,0,0,1.6154,Basalt_rect,11,0,11,0,1,
6400f14b24ac2b910c9f2d93,SCR,2024-06-24_16h33.47.131,LearnStrategy,2023.2.3,Win32,59.88023952,2,2,13,,,,,,,,7,10,,,,,,,,,,,,,7,1.739,1,,,,,,0.083333333,-0.389322917,1,0,0,1.7391,Peridotite_rect,12,0,12,0,1,
6400f14b24ac2b910c9f2d93,SCR,2024-06-24_16h33.47.131,LearnStrategy,2023.2.3,Win32,59.88023952,2,2,14,,,,,,,,6,13,,,,,,,,,,,,,3,3.071,0,,,,,,0.080729167,-0.247395833,1,0,0,3.0706,Diorite_rect,13,0,13,0,1,
6400f14b24ac2b910c9f2d93,SCR,2024-06-24_16h33.47.131,LearnStrategy,2023.2.3,Win32,59.88023952,2,2,15,,,,,,,,3,16,,,,,,,,,,,,,3,1.556,1,,,,,,0.078125,-0.243489583,1,0,0,1.5556,Diorite_rect,14,0,14,0,1,
6400f14b24ac2b910c9f2d93,SCR,2024-06-24_16h33.47.131,LearnStrategy,2023.2.3,Win32,59.88023952,2,2,16,,,,,,,,2,05,,,,,,,,,,,,,2,3.099,1,,,,,,-0.104166667,-0.270833333,1,0,0,3.099,Basalt_rect,15,0,15,0,1,
6400f14b24ac2b910c9f2d93,SCR,2024-06-24_16h33.47.131,LearnStrategy,2023.2.3,Win32,59.88023952,3,1,1,-0.561197917,-0.23046875,1,0,0,3.3773,Diorite_08,3,08,2,1,3.377,1,02,0.07421875,-0.2578125,1,0,0,4.4246,Diorite_rect,3,4.425,1,0,0,0,0,1,,,,,,,,,,,,,
6400f14b24ac2b910c9f2d93,SCR,2024-06-24_16h33.47.131,LearnStrategy,2023.2.3,Win32,59.88023952,3,1,2,0.057291667,-0.40234375,1,0,0,4.2159,Gabbro_05,4,05,1,5,4.216,4,09,-0.407552083,-0.234375,1,0,0,5.4951,Andesite_rect,1,5.495,0,1,0,1,0,1,,,,,,,,,,,,,
6400f14b24ac2b910c9f2d93,SCR,2024-06-24_16h33.47.131,LearnStrategy,2023.2.3,Win32,59.88023952,3,1,3,0.251302083,-0.4140625,1,0,0,2.5437,Pegmatite_05,6,05,1,6,2.544,7,16,-0.384114583,-0.251302083,1,0,0,4.3285,Andesite_rect,1,4.329,0,2,0,2,0,1,,,,,,,,,,,,,
6400f14b24ac2b910c9f2d93,SCR,2024-06-24_16h33.47.131,LearnStrategy,2023.2.3,Win32,59.88023952,3,1,4,0.411458333,0.27734375,1,0,0,7.0743,Diorite_14,3,14,5,7,7.074,5,09,0.140625,-0.240885417,1,0,0,3.5465,Diorite_rect,3,3.547,1,3,0,3,0,1,,,,,,,,,,,,,
6400f14b24ac2b910c9f2d93,SCR,2024-06-24_16h33.47.131,LearnStrategy,2023.2.3,Win32,59.88023952,3,1,5,-0.546875,0.09765625,1,0,0,3.5949,Diorite_09,3,09,4,1,3.595,6,06,0.173177083,-0.231770833,1,0,0,1.4811,Diorite_rect,3,1.481,1,4,0,4,0,1,,,,,,,,,,,,,
6400f14b24ac2b910c9f2d93,SCR,2024-06-24_16h33.47.131,LearnStrategy,2023.2.3,Win32,59.88023952,3,1,6,0.061197917,0.25390625,1,0,0,9.5068,Gabbro_10,4,10,5,5,9.507,4,14,0.33203125,-0.248697917,1,0,0,2.0891,Gabbro_rect,4,2.089,1,5,0,5,0,1,,,,,,,,,,,,,
6400f14b24ac2b910c9f2d93,SCR,2024-06-24_16h33.47.131,LearnStrategy,2023.2.3,Win32,59.88023952,3,1,7,0.555989583,0.25390625,1,0,0,2.9607,Diorite_15,3,15,5,8,2.961,1,16,0.162760417,-0.260416667,1,0,0,1.9716,Diorite_rect,3,1.972,1,6,0,6,0,1,,,,,,,,,,,,,
6400f14b24ac2b910c9f2d93,SCR,2024-06-24_16h33.47.131,LearnStrategy,2023.2.3,Win32,59.88023952,3,1,8,0.231770833,-0.279947917,1,0,0,7.807,Pegmatite_10,6,10,2,6,7.807,4,09,-0.109375,-0.388020833,1,0,0,6.1711,Pegmatite_rect,6,6.171,1,7,0,7,0,1,,,,,,,,,,,,,
6400f14b24ac2b910c9f2d93,SCR,2024-06-24_16h33.47.131,LearnStrategy,2023.2.3,Win32,59.88023952,3,1,9,-0.399739583,-0.404947917,1,0,0,2.4472,Basalt_14,2,14,1,2,2.447,1,04,-0.123697917,-0.236979167,1,0,0,4.3989,Basalt_rect,2,4.399,1,8,0,8,0,1,,,,,,,,,,,,,
6400f14b24ac2b910c9f2d93,SCR,2024-06-24_16h33.47.131,LearnStrategy,2023.2.3,Win32,59.88023952,3,1,10,-0.403645833,-0.123697917,1,0,0,2.8119,Basalt_09,2,09,3,2,2.812,3,10,-0.157552083,-0.235677083,1,0,0,2.1729,Basalt_rect,2,2.173,1,9,0,9,0,1,,,,,,,,,,,,,
6400f14b24ac2b910c9f2d93,SCR,2024-06-24_16h33.47.131,LearnStrategy,2023.2.3,Win32,59.88023952,3,1,11,-0.088541667,0.40234375,1,0,0,9.1701,Peridotite_16,7,16,6,4,9.17,2,02,-0.354166667,-0.251302083,1,0,0,3.5023,Andesite_rect,1,3.502,0,10,0,10,0,1,,,,,,,,,,,,,
6400f14b24ac2b910c9f2d93,SCR,2024-06-24_16h33.47.131,LearnStrategy,2023.2.3,Win32,59.88023952,3,1,12,0.578125,-0.2421875,1,0,0,2.6587,Obsidian_14,5,14,2,8,2.659,4,10,-0.3671875,-0.388020833,1,0,0,2.0717,Obsidian_rect,5,2.072,1,11,0,11,0,1,,,,,,,,,,,,,
6400f14b24ac2b910c9f2d93,SCR,2024-06-24_16h33.47.131,LearnStrategy,2023.2.3,Win32,59.88023952,3,1,13,0.408854167,-0.427083333,1,0,0,1.9275,Basalt_12,2,12,1,7,1.928,1,16,0.375,-0.244791667,1,0,0,5.1158,Gabbro_rect,4,5.116,0,12,0,12,0,1,,,,,,,,,,,,,
6400f14b24ac2b910c9f2d93,SCR,2024-06-24_16h33.47.131,LearnStrategy,2023.2.3,Win32,59.88023952,3,1,14,-0.575520833,-0.365885417,1,0,0,3.2043,Pegmatite_12,6,12,1,1,3.204,1,10,-0.204427083,-0.395833333,1,0,0,2.8618,Pegmatite_rect,6,2.862,1,13,0,13,0,1,,,,,,,,,,,,,
6400f14b24ac2b910c9f2d93,SCR,2024-06-24_16h33.47.131,LearnStrategy,2023.2.3,Win32,59.88023952,3,1,15,-0.423177083,0.227864583,1,0,0,2.0968,Basalt_02,2,02,5,2,2.097,3,09,-0.110677083,-0.239583333,1,0,0,2.5263,Basalt_rect,2,2.526,1,14,0,14,0,1,,,,,,,,,,,,,
6400f14b24ac2b910c9f2d93,SCR,2024-06-24_16h33.47.131,LearnStrategy,2023.2.3,Win32,59.88023952,3,1,16,0.533854167,0.397135417,1,0,0,4.1538,Pegmatite_06,6,06,6,8,4.154,6,05,-0.069010417,-0.408854167,1,0,0,4.656,Pegmatite_rect,6,4.656,1,15,0,15,0,1,,,,,,,,,,,,,
6400f14b24ac2b910c9f2d93,SCR,2024-06-24_16h33.47.131,LearnStrategy,2023.2.3,Win32,59.88023952,3,2,1,,,,,,,,2,16,,,,,,,,,,,,,4,7.173,0,,,,,,0.42578125,-0.235677083,1,0,0,7.1728,Gabbro_rect,0,0,0,0,1,
6400f14b24ac2b910c9f2d93,SCR,2024-06-24_16h33.47.131,LearnStrategy,2023.2.3,Win32,59.88023952,3,2,2,,,,,,,,7,04,,,,,,,,,,,,,7,20.073,1,,,,,,0.100260417,-0.4140625,1,0,0,20.0734,Peridotite_rect,1,0,1,0,1,
6400f14b24ac2b910c9f2d93,SCR,2024-06-24_16h33.47.131,LearnStrategy,2023.2.3,Win32,59.88023952,3,2,3,,,,,,,,8,16,,,,,,,,,,,,,2,4.795,0,,,,,,-0.091145833,-0.251302083,1,0,0,4.7946,Basalt_rect,2,0,2,0,1,
6400f14b24ac2b910c9f2d93,SCR,2024-06-24_16h33.47.131,LearnStrategy,2023.2.3,Win32,59.88023952,3,2,4,,,,,,,,8,08,,,,,,,,,,,,,8,2.152,1,,,,,,0.33984375,-0.403645833,1,0,0,2.1525,Pumice_rect,3,0,3,0,1,
6400f14b24ac2b910c9f2d93,SCR,2024-06-24_16h33.47.131,LearnStrategy,2023.2.3,Win32,59.88023952,3,2,5,,,,,,,,5,16,,,,,,,,,,,,,5,1.608,1,,,,,,-0.377604167,-0.390625,1,0,0,1.608,Obsidian_rect,4,0,4,0,1,
6400f14b24ac2b910c9f2d93,SCR,2024-06-24_16h33.47.131,LearnStrategy,2023.2.3,Win32,59.88023952,3,2,6,,,,,,,,4,03,,,,,,,,,,,,,3,3.644,0,,,,,,0.143229167,-0.234375,1,0,0,3.644,Diorite_rect,5,0,5,0,1,
6400f14b24ac2b910c9f2d93,SCR,2024-06-24_16h33.47.131,LearnStrategy,2023.2.3,Win32,59.88023952,3,2,7,,,,,,,,3,02,,,,,,,,,,,,,3,1.182,1,,,,,,0.143229167,-0.234375,1,0,0,1.1822,Diorite_rect,6,0,6,0,1,
6400f14b24ac2b910c9f2d93,SCR,2024-06-24_16h33.47.131,LearnStrategy,2023.2.3,Win32,59.88023952,3,2,8,,,,,,,,1,05,,,,,,,,,,,,,3,2.145,0,,,,,,0.143229167,-0.234375,1,0,0,2.1446,Diorite_rect,7,0,7,0,1,
6400f14b24ac2b910c9f2d93,SCR,2024-06-24_16h33.47.131,LearnStrategy,2023.2.3,Win32,59.88023952,3,2,9,,,,,,,,6,15,,,,,,,,,,,,,6,1.446,1,,,,,,-0.06640625,-0.401041667,1,0,0,1.4464,Pegmatite_rect,8,0,8,0,1,
6400f14b24ac2b910c9f2d93,SCR,2024-06-24_16h33.47.131,LearnStrategy,2023.2.3,Win32,59.88023952,3,2,10,,,,,,,,1,03,,,,,,,,,,,,,2,12.696,0,,,,,,-0.095052083,-0.259114583,1,0,0,12.6958,Basalt_rect,9,0,9,0,1,
6400f14b24ac2b910c9f2d93,SCR,2024-06-24_16h33.47.131,LearnStrategy,2023.2.3,Win32,59.88023952,3,2,11,,,,,,,,7,14,,,,,,,,,,,,,7,4.368,1,,,,,,0.095052083,-0.397135417,1,0,0,4.3678,Peridotite_rect,10,0,10,0,1,
6400f14b24ac2b910c9f2d93,SCR,2024-06-24_16h33.47.131,LearnStrategy,2023.2.3,Win32,59.88023952,3,2,12,,,,,,,,3,07,,,,,,,,,,,,,3,2.637,1,,,,,,0.095052083,-0.239583333,1,0,0,2.6369,Diorite_rect,11,0,11,0,1,
6400f14b24ac2b910c9f2d93,SCR,2024-06-24_16h33.47.131,LearnStrategy,2023.2.3,Win32,59.88023952,3,2,13,,,,,,,,2,11,,,,,,,,,,,,,2,2.505,1,,,,,,-0.08203125,-0.243489583,1,0,0,2.5055,Basalt_rect,12,0,12,0,1,
6400f14b24ac2b910c9f2d93,SCR,2024-06-24_16h33.47.131,LearnStrategy,2023.2.3,Win32,59.88023952,3,2,14,,,,,,,,4,11,,,,,,,,,,,,,4,2.62,1,,,,,,0.296875,-0.270833333,1,0,0,2.6205,Gabbro_rect,13,0,13,0,1,
6400f14b24ac2b910c9f2d93,SCR,2024-06-24_16h33.47.131,LearnStrategy,2023.2.3,Win32,59.88023952,3,2,15,,,,,,,,5,10,,,,,,,,,,,,,5,3.994,1,,,,,,-0.38671875,-0.399739583,1,0,0,3.9935,Obsidian_rect,14,0,14,0,1,
6400f14b24ac2b910c9f2d93,SCR,2024-06-24_16h33.47.131,LearnStrategy,2023.2.3,Win32,59.88023952,3,2,16,,,,,,,,6,16,,,,,,,,,,,,,6,15.131,1,,,,,,-0.076822917,-0.384114583,1,0,0,15.131,Pegmatite_rect,15,0,15,0,1,
6400f14b24ac2b910c9f2d93,SCR,2024-06-24_16h33.47.131,LearnStrategy,2023.2.3,Win32,59.88023952,4,1,1,0.55078125,-0.401041667,1,0,0,9.1353,Pumice_06,8,06,1,8,9.135,6,03,0.444010417,-0.395833333,1,0,0,1.5377,Pumice_rect,8,1.538,1,0,0,0,0,1,,,,,,,,,,,,,
6400f14b24ac2b910c9f2d93,SCR,2024-06-24_16h33.47.131,LearnStrategy,2023.2.3,Win32,59.88023952,4,1,2,0.380208333,-0.415364583,1,0,0,1.0752,Basalt_12,2,12,1,7,1.075,8,03,0.427083333,-0.243489583,1,0,0,3.1715,Gabbro_rect,4,3.171,0,1,0,1,0,1,,,,,,,,,,,,,
6400f14b24ac2b910c9f2d93,SCR,2024-06-24_16h33.47.131,LearnStrategy,2023.2.3,Win32,59.88023952,4,1,3,0.221354167,-0.420572917,1,0,0,1.6605,Pegmatite_05,6,05,1,6,1.66,4,14,-0.08984375,-0.404947917,1,0,0,3.3965,Pegmatite_rect,6,3.397,1,2,0,2,0,1,,,,,,,,,,,,,
6400f14b24ac2b910c9f2d93,SCR,2024-06-24_16h33.47.131,LearnStrategy,2023.2.3,Win32,59.88023952,4,1,4,0.069010417,-0.403645833,1,0,0,3.3879,Gabbro_05,4,05,1,5,3.388,1,01,0.404947917,-0.240885417,1,0,0,6.6731,Gabbro_rect,4,6.673,1,3,0,3,0,1,,,,,,,,,,,,,
6400f14b24ac2b910c9f2d93,SCR,2024-06-24_16h33.47.131,LearnStrategy,2023.2.3,Win32,59.88023952,4,1,5,-0.248697917,-0.399739583,1,0,0,1.8025,Andesite_16,1,16,1,3,1.803,8,02,0.08984375,-0.234375,1,0,0,2.0869,Diorite_rect,3,2.087,0,4,0,4,0,1,,,,,,,,,,,,,
6400f14b24ac2b910c9f2d93,SCR,2024-06-24_16h33.47.131,LearnStrategy,2023.2.3,Win32,59.88023952,4,1,6,-0.388020833,-0.419270833,1,0,0,2.0782,Basalt_14,2,14,1,2,2.078,3,10,-0.151041667,-0.2421875,1,0,0,4.8988,Basalt_rect,2,4.899,1,5,0,5,0,1,,,,,,,,,,,,,
6400f14b24ac2b910c9f2d93,SCR,2024-06-24_16h33.47.131,LearnStrategy,2023.2.3,Win32,59.88023952,4,1,7,-0.532552083,-0.423177083,1,0,0,1.159,Pegmatite_12,6,12,1,1,1.159,3,14,-0.192708333,-0.389322917,1,0,0,1.4581,Pegmatite_rect,6,1.458,1,6,0,6,0,1,,,,,,,,,,,,,
6400f14b24ac2b910c9f2d93,SCR,2024-06-24_16h33.47.131,LearnStrategy,2023.2.3,Win32,59.88023952,4,1,8,0.395833333,-0.233072917,1,0,0,2.4433,Pegmatite_08,6,08,2,7,2.443,4,12,-0.110677083,-0.40234375,1,0,0,1.4075,Pegmatite_rect,6,1.408,1,7,0,7,0,1,,,,,,,,,,,,,
6400f14b24ac2b910c9f2d93,SCR,2024-06-24_16h33.47.131,LearnStrategy,2023.2.3,Win32,59.88023952,4,1,9,0.233072917,-0.279947917,1,0,0,1.5103,Pegmatite_10,6,10,2,6,1.51,1,16,-0.110677083,-0.39453125,1,0,0,1.1632,Pegmatite_rect,6,1.163,1,8,0,8,0,1,,,,,,,,,,,,,
6400f14b24ac2b910c9f2d93,SCR,2024-06-24_16h33.47.131,LearnStrategy,2023.2.3,Win32,59.88023952,4,1,10,0.098958333,-0.252604167,1,0,0,1.2787,Pumice_09,8,09,2,5,1.279,1,02,0.346354167,-0.380208333,1,0,0,1.3515,Pumice_rect,8,1.351,1,9,0,9,0,1,,,,,,,,,,,,,
6400f14b24ac2b910c9f2d93,SCR,2024-06-24_16h33.47.131,LearnStrategy,2023.2.3,Win32,59.88023952,4,1,11,-0.067708333,-0.247395833,1,0,0,0.9603,Peridotite_02,7,02,2,4,0.96,4,05,0.109375,-0.395833333,1,0,0,3.6149,Peridotite_rect,7,3.615,1,10,0,10,0,1,,,,,,,,,,,,,
6400f14b24ac2b910c9f2d93,SCR,2024-06-24_16h33.47.131,LearnStrategy,2023.2.3,Win32,59.88023952,4,1,12,-0.24609375,-0.255208333,1,0,0,1.9955,Andesite_04,1,04,2,3,1.995,1,02,-0.359375,-0.25390625,1,0,0,3.2518,Andesite_rect,1,3.252,1,11,0,11,0,1,,,,,,,,,,,,,
6400f14b24ac2b910c9f2d93,SCR,2024-06-24_16h33.47.131,LearnStrategy,2023.2.3,Win32,59.88023952,4,1,13,-0.53515625,-0.227864583,1,0,0,2.0081,Diorite_08,3,08,2,1,2.008,2,08,0.149739583,-0.252604167,1,0,0,1.2965,Diorite_rect,3,1.297,1,12,0,12,0,1,,,,,,,,,,,,,
6400f14b24ac2b910c9f2d93,SCR,2024-06-24_16h33.47.131,LearnStrategy,2023.2.3,Win32,59.88023952,4,1,14,0.56640625,-0.084635417,1,0,0,3.1688,Peridotite_07,7,07,3,8,3.169,1,04,0.1640625,-0.393229167,1,0,0,4.6821,Peridotite_rect,7,4.682,1,13,0,13,0,1,,,,,,,,,,,,,
6400f14b24ac2b910c9f2d93,SCR,2024-06-24_16h33.47.131,LearnStrategy,2023.2.3,Win32,59.88023952,4,1,15,0.233072917,-0.095052083,1,0,0,2.1591,Andesite_01,1,01,3,6,2.159,2,10,-0.354166667,-0.233072917,1,0,0,4.6738,Andesite_rect,1,4.674,1,14,0,14,0,1,,,,,,,,,,,,,
6400f14b24ac2b910c9f2d93,SCR,2024-06-24_16h33.47.131,LearnStrategy,2023.2.3,Win32,59.88023952,4,1,16,0.07421875,-0.108072917,1,0,0,1.288,Andesite_14,1,14,3,5,1.288,7,06,-0.109375,-0.391927083,1,0,0,2.2839,Pegmatite_rect,6,2.284,0,15,0,15,0,1,,,,,,,,,,,,,
6400f14b24ac2b910c9f2d93,SCR,2024-06-24_16h33.47.131,LearnStrategy,2023.2.3,Win32,59.88023952,4,2,1,,,,,,,,8,14,,,,,,,,,,,,,8,1.774,1,,,,,,0.325520833,-0.38671875,1,0,0,1.7739,Pumice_rect,0,0,0,0,1,
6400f14b24ac2b910c9f2d93,SCR,2024-06-24_16h33.47.131,LearnStrategy,2023.2.3,Win32,59.88023952,4,2,2,,,,,,,,7,10,,,,,,,,,,,,,7,1.749,1,,,,,,0.174479167,-0.390625,1,0,0,1.7485,Peridotite_rect,1,0,1,0,1,
6400f14b24ac2b910c9f2d93,SCR,2024-06-24_16h33.47.131,LearnStrategy,2023.2.3,Win32,59.88023952,4,2,3,,,,,,,,3,06,,,,,,,,,,,,,3,2.104,1,,,,,,0.14453125,-0.25390625,1,0,0,2.104,Diorite_rect,2,0,2,0,1,
6400f14b24ac2b910c9f2d93,SCR,2024-06-24_16h33.47.131,LearnStrategy,2023.2.3,Win32,59.88023952,4,2,4,,,,,,,,1,11,,,,,,,,,,,,,1,11.178,1,,,,,,-0.345052083,-0.259114583,1,0,0,11.1776,Andesite_rect,3,0,3,0,1,
6400f14b24ac2b910c9f2d93,SCR,2024-06-24_16h33.47.131,LearnStrategy,2023.2.3,Win32,59.88023952,4,2,5,,,,,,,,6,13,,,,,,,,,,,,,3,4.953,0,,,,,,0.138020833,-0.260416667,1,0,0,4.9534,Diorite_rect,4,0,4,0,1,
6400f14b24ac2b910c9f2d93,SCR,2024-06-24_16h33.47.131,LearnStrategy,2023.2.3,Win32,59.88023952,4,2,6,,,,,,,,2,05,,,,,,,,,,,,,2,1.283,1,,,,,,-0.102864583,-0.25,1,0,0,1.2825,Basalt_rect,5,0,5,0,1,
6400f14b24ac2b910c9f2d93,SCR,2024-06-24_16h33.47.131,LearnStrategy,2023.2.3,Win32,59.88023952,4,2,7,,,,,,,,4,15,,,,,,,,,,,,,1,5.125,0,,,,,,-0.375,-0.251302083,1,0,0,5.1247,Andesite_rect,6,0,6,0,1,
6400f14b24ac2b910c9f2d93,SCR,2024-06-24_16h33.47.131,LearnStrategy,2023.2.3,Win32,59.88023952,4,2,8,,,,,,,,4,03,,,,,,,,,,,,,3,5.622,0,,,,,,0.111979167,-0.255208333,1,0,0,5.622,Diorite_rect,7,0,7,0,1,
6400f14b24ac2b910c9f2d93,SCR,2024-06-24_16h33.47.131,LearnStrategy,2023.2.3,Win32,59.88023952,4,2,9,,,,,,,,1,05,,,,,,,,,,,,,1,2.034,1,,,,,,-0.32421875,-0.256510417,1,0,0,2.0339,Andesite_rect,8,0,8,0,1,
6400f14b24ac2b910c9f2d93,SCR,2024-06-24_16h33.47.131,LearnStrategy,2023.2.3,Win32,59.88023952,4,2,10,,,,,,,,7,12,,,,,,,,,,,,,7,2.375,1,,,,,,0.075520833,-0.408854167,1,0,0,2.3747,Peridotite_rect,9,0,9,0,1,
6400f14b24ac2b910c9f2d93,SCR,2024-06-24_16h33.47.131,LearnStrategy,2023.2.3,Win32,59.88023952,4,2,11,,,,,,,,2,16,,,,,,,,,,,,,2,3.543,1,,,,,,-0.106770833,-0.236979167,1,0,0,3.5435,Basalt_rect,10,0,10,0,1,
6400f14b24ac2b910c9f2d93,SCR,2024-06-24_16h33.47.131,LearnStrategy,2023.2.3,Win32,59.88023952,4,2,12,,,,,,,,3,13,,,,,,,,,,,,,3,4.554,1,,,,,,0.07421875,-0.240885417,1,0,0,4.5537,Diorite_rect,11,0,11,0,1,
6400f14b24ac2b910c9f2d93,SCR,2024-06-24_16h33.47.131,LearnStrategy,2023.2.3,Win32,59.88023952,4,2,13,,,,,,,,5,12,,,,,,,,,,,,,5,1.382,1,,,,,,-0.381510417,-0.391927083,1,0,0,1.3819,Obsidian_rect,12,0,12,0,1,
6400f14b24ac2b910c9f2d93,SCR,2024-06-24_16h33.47.131,LearnStrategy,2023.2.3,Win32,59.88023952,4,2,14,,,,,,,,5,10,,,,,,,,,,,,,5,1.272,1,,,,,,-0.381510417,-0.391927083,1,0,0,1.2722,Obsidian_rect,13,0,13,0,1,
6400f14b24ac2b910c9f2d93,SCR,2024-06-24_16h33.47.131,LearnStrategy,2023.2.3,Win32,59.88023952,4,2,15,,,,,,,,8,16,,,,,,,,,,,,,8,9.23,1,,,,,,0.369791667,-0.40625,1,0,0,9.2299,Pumice_rect,14,0,14,0,1,
6400f14b24ac2b910c9f2d93,SCR,2024-06-24_16h33.47.131,LearnStrategy,2023.2.3,Win32,59.88023952,4,2,16,,,,,,,,6,07,,,,,,,,,,,,,6,2.985,1,,,,,,-0.08203125,-0.39453125,1,0,0,2.9849,Pegmatite_rect,15,0,15,0,1,
6400f14b24ac2b910c9f2d93,SCR,2024-06-24_16h33.47.131,LearnStrategy,2023.2.3,Win32,59.88023952,5,1,1,0.546875,0.260416667,1,0,0,3.7437,Diorite_15,3,15,5,8,3.744,8,09,0.131510417,-0.235677083,1,0,0,1.6405,Diorite_rect,3,1.64,1,0,0,0,0,1,,,,,,,,,,,,,
6400f14b24ac2b910c9f2d93,SCR,2024-06-24_16h33.47.131,LearnStrategy,2023.2.3,Win32,59.88023952,5,1,2,0.389322917,0.263020833,1,0,0,1.7507,Diorite_14,3,14,5,7,1.751,4,12,0.140625,-0.2421875,1,0,0,3.3983,Diorite_rect,3,3.398,1,1,0,1,0,1,,,,,,,,,,,,,
6400f14b24ac2b910c9f2d93,SCR,2024-06-24_16h33.47.131,LearnStrategy,2023.2.3,Win32,59.88023952,5,1,3,0.240885417,0.268229167,1,0,0,1.2631,Pegmatite_03,6,03,5,6,1.263,6,08,-0.177083333,-0.39453125,1,0,0,2.2812,Pegmatite_rect,6,2.281,1,2,0,2,0,1,,,,,,,,,,,,,
6400f14b24ac2b910c9f2d93,SCR,2024-06-24_16h33.47.131,LearnStrategy,2023.2.3,Win32,59.88023952,5,1,4,0.07421875,0.221354167,1,0,0,1.3397,Gabbro_10,4,10,5,5,1.34,2,08,0.359375,-0.243489583,1,0,0,1.6617,Gabbro_rect,4,1.662,1,3,0,3,0,1,,,,,,,,,,,,,
6400f14b24ac2b910c9f2d93,SCR,2024-06-24_16h33.47.131,LearnStrategy,2023.2.3,Win32,59.88023952,5,1,5,0.078125,0.07421875,1,0,0,3.6624,Gabbro_12,4,12,4,5,3.662,1,02,0.365885417,-0.244791667,1,0,0,1.9041,Gabbro_rect,4,1.904,1,4,0,4,0,1,,,,,,,,,,,,,
6400f14b24ac2b910c9f2d93,SCR,2024-06-24_16h33.47.131,LearnStrategy,2023.2.3,Win32,59.88023952,5,1,6,-0.108072917,0.078125,1,0,0,1.3438,Pumice_02,8,02,4,4,1.344,4,08,0.352864583,-0.408854167,1,0,0,3.534,Pumice_rect,8,3.534,1,5,0,5,0,1,,,,,,,,,,,,,
6400f14b24ac2b910c9f2d93,SCR,2024-06-24_16h33.47.131,LearnStrategy,2023.2.3,Win32,59.88023952,5,1,7,-0.233072917,0.10546875,1,0,0,3.7231,Peridotite_06,7,06,4,3,3.723,1,14,0.061197917,-0.235677083,1,0,0,3.3481,Diorite_rect,3,3.348,0,6,0,6,0,1,,,,,,,,,,,,,
6400f14b24ac2b910c9f2d93,SCR,2024-06-24_16h33.47.131,LearnStrategy,2023.2.3,Win32,59.88023952,5,1,8,-0.533854167,0.104166667,1,0,0,2.8971,Diorite_09,3,09,4,1,2.897,5,07,0.122395833,-0.247395833,1,0,0,2.1584,Diorite_rect,3,2.158,1,7,0,7,0,1,,,,,,,,,,,,,
6400f14b24ac2b910c9f2d93,SCR,2024-06-24_16h33.47.131,LearnStrategy,2023.2.3,Win32,59.88023952,5,1,9,-0.071614583,-0.268229167,1,0,0,4.4793,Peridotite_02,7,02,2,4,4.479,4,10,0.13671875,-0.416666667,1,0,0,3.3387,Peridotite_rect,7,3.339,1,8,0,8,0,1,,,,,,,,,,,,,
6400f14b24ac2b910c9f2d93,SCR,2024-06-24_16h33.47.131,LearnStrategy,2023.2.3,Win32,59.88023952,5,1,10,-0.22265625,-0.24609375,1,0,0,5.5968,Andesite_04,1,04,2,3,5.597,3,09,-0.364583333,-0.24609375,1,0,0,4.0484,Andesite_rect,1,4.048,1,9,0,9,0,1,,,,,,,,,,,,,
6400f14b24ac2b910c9f2d93,SCR,2024-06-24_16h33.47.131,LearnStrategy,2023.2.3,Win32,59.88023952,5,1,11,0.55859375,0.115885417,1,0,0,4.0225,Gabbro_08,4,08,4,8,4.022,4,05,0.436197917,-0.259114583,1,0,0,3.605,Gabbro_rect,4,3.605,1,10,0,10,0,1,,,,,,,,,,,,,
6400f14b24ac2b910c9f2d93,SCR,2024-06-24_16h33.47.131,LearnStrategy,2023.2.3,Win32,59.88023952,5,1,12,0.411458333,0.091145833,1,0,0,1.6108,Diorite_10,3,10,4,7,1.611,4,10,0.19140625,-0.239583333,1,0,0,7.9692,Diorite_rect,3,7.969,1,11,0,11,0,1,,,,,,,,,,,,,
6400f14b24ac2b910c9f2d93,SCR,2024-06-24_16h33.47.131,LearnStrategy,2023.2.3,Win32,59.88023952,5,1,13,0.549479167,0.393229167,1,0,0,4.9182,Pegmatite_06,6,06,6,8,4.918,7,07,-0.083333333,-0.380208333,1,0,0,5.4585,Pegmatite_rect,6,5.459,1,12,0,12,0,1,,,,,,,,,,,,,
6400f14b24ac2b910c9f2d93,SCR,2024-06-24_16h33.47.131,LearnStrategy,2023.2.3,Win32,59.88023952,5,1,14,0.234375,0.264322917,1,0,0,2.4621,Pegmatite_03,6,03,5,6,2.462,3,14,-0.12109375,-0.390625,1,0,0,2.0311,Pegmatite_rect,6,2.031,1,13,0,13,0,1,,,,,,,,,,,,,
6400f14b24ac2b910c9f2d93,SCR,2024-06-24_16h33.47.131,LearnStrategy,2023.2.3,Win32,59.88023952,5,1,15,0.087239583,0.126302083,1,0,0,2.3519,Gabbro_12,4,12,4,5,2.352,1,02,0.436197917,-0.25390625,1,0,0,1.628,Gabbro_rect,4,1.628,1,14,0,14,0,1,,,,,,,,,,,,,
6400f14b24ac2b910c9f2d93,SCR,2024-06-24_16h33.47.131,LearnStrategy,2023.2.3,Win32,59.88023952,5,1,16,0.040364583,0.2421875,1,0,0,2.6295,Gabbro_10,4,10,5,5,2.63,6,03,0.360677083,-0.23046875,1,0,0,3.5542,Gabbro_rect,4,3.554,1,15,0,15,0,1,,,,,,,,,,,,,
6400f14b24ac2b910c9f2d93,SCR,2024-06-24_16h33.47.131,LearnStrategy,2023.2.3,Win32,59.88023952,5,2,1,,,,,,,,1,07,,,,,,,,,,,,,1,11.563,1,,,,,,-0.39453125,-0.263020833,1,0,0,11.5627,Andesite_rect,0,0,0,0,1,
6400f14b24ac2b910c9f2d93,SCR,2024-06-24_16h33.47.131,LearnStrategy,2023.2.3,Win32,59.88023952,5,2,2,,,,,,,,5,02,,,,,,,,,,,,,5,1.276,1,,,,,,-0.391927083,-0.416666667,1,0,0,1.2762,Obsidian_rect,1,0,1,0,1,
6400f14b24ac2b910c9f2d93,SCR,2024-06-24_16h33.47.131,LearnStrategy,2023.2.3,Win32,59.88023952,5,2,3,,,,,,,,3,07,,,,,,,,,,,,,3,1.829,1,,,,,,0.21875,-0.236979167,1,0,0,1.8288,Diorite_rect,2,0,2,0,1,
6400f14b24ac2b910c9f2d93,SCR,2024-06-24_16h33.47.131,LearnStrategy,2023.2.3,Win32,59.88023952,5,2,4,,,,,,,,8,08,,,,,,,,,,,,,8,1.988,1,,,,,,0.380208333,-0.38671875,1,0,0,1.9877,Pumice_rect,3,0,3,0,1,
6400f14b24ac2b910c9f2d93,SCR,2024-06-24_16h33.47.131,LearnStrategy,2023.2.3,Win32,59.88023952,5,2,5,,,,,,,,3,16,,,,,,,,,,,,,3,1.519,1,,,,,,0.123697917,-0.25,1,0,0,1.5191,Diorite_rect,4,0,4,0,1,
6400f14b24ac2b910c9f2d93,SCR,2024-06-24_16h33.47.131,LearnStrategy,2023.2.3,Win32,59.88023952,5,2,6,,,,,,,,4,01,,,,,,,,,,,,,4,2.558,1,,,,,,0.381510417,-0.260416667,1,0,0,2.5579,Gabbro_rect,5,0,5,0,1,
6400f14b24ac2b910c9f2d93,SCR,2024-06-24_16h33.47.131,LearnStrategy,2023.2.3,Win32,59.88023952,5,2,7,,,,,,,,1,09,,,,,,,,,,,,,4,3.981,0,,,,,,0.381510417,-0.260416667,1,0,0,3.9805,Gabbro_rect,6,0,6,0,1,
6400f14b24ac2b910c9f2d93,SCR,2024-06-24_16h33.47.131,LearnStrategy,2023.2.3,Win32,59.88023952,5,2,8,,,,,,,,8,05,,,,,,,,,,,,,8,1.368,1,,,,,,0.384114583,-0.391927083,1,0,0,1.3684,Pumice_rect,7,0,7,0,1,
6400f14b24ac2b910c9f2d93,SCR,2024-06-24_16h33.47.131,LearnStrategy,2023.2.3,Win32,59.88023952,5,2,9,,,,,,,,6,15,,,,,,,,,,,,,6,1.883,1,,,,,,-0.071614583,-0.407552083,1,0,0,1.8835,Pegmatite_rect,8,0,8,0,1,
6400f14b24ac2b910c9f2d93,SCR,2024-06-24_16h33.47.131,LearnStrategy,2023.2.3,Win32,59.88023952,5,2,10,,,,,,,,2,06,,,,,,,,,,,,,2,4.376,1,,,,,,-0.139322917,-0.248697917,1,0,0,4.3757,Basalt_rect,9,0,9,0,1,
6400f14b24ac2b910c9f2d93,SCR,2024-06-24_16h33.47.131,LearnStrategy,2023.2.3,Win32,59.88023952,5,2,11,,,,,,,,2,11,,,,,,,,,,,,,4,5.558,0,,,,,,0.373697917,-0.251302083,1,0,0,5.5585,Gabbro_rect,10,0,10,0,1,
6400f14b24ac2b910c9f2d93,SCR,2024-06-24_16h33.47.131,LearnStrategy,2023.2.3,Win32,59.88023952,5,2,12,,,,,,,,5,16,,,,,,,,,,,,,5,3.726,1,,,,,,-0.346354167,-0.395833333,1,0,0,3.7258,Obsidian_rect,11,0,11,0,1,
6400f14b24ac2b910c9f2d93,SCR,2024-06-24_16h33.47.131,LearnStrategy,2023.2.3,Win32,59.88023952,5,2,13,,,,,,,,7,08,,,,,,,,,,,,,7,3.393,1,,,,,,0.104166667,-0.40234375,1,0,0,3.3934,Peridotite_rect,12,0,12,0,1,
6400f14b24ac2b910c9f2d93,SCR,2024-06-24_16h33.47.131,LearnStrategy,2023.2.3,Win32,59.88023952,5,2,14,,,,,,,,6,16,,,,,,,,,,,,,3,1.81,0,,,,,,0.122395833,-0.239583333,1,0,0,1.8099,Diorite_rect,13,0,13,0,1,
6400f14b24ac2b910c9f2d93,SCR,2024-06-24_16h33.47.131,LearnStrategy,2023.2.3,Win32,59.88023952,5,2,15,,,,,,,,4,11,,,,,,,,,,,,,4,3.608,1,,,,,,0.369791667,-0.231770833,1,0,0,3.6077,Gabbro_rect,14,0,14,0,1,
6400f14b24ac2b910c9f2d93,SCR,2024-06-24_16h33.47.131,LearnStrategy,2023.2.3,Win32,59.88023952,5,2,16,,,,,,,,7,14,,,,,,,,,,,,,7,4.236,1,,,,,,0.173177083,-0.3984375,1,0,0,4.2362,Peridotite_rect,15,0,15,0,1,
6400f14b24ac2b910c9f2d93,SCR,2024-06-24_16h33.47.131,LearnStrategy,2023.2.3,Win32,59.88023952,6,1,1,-0.555989583,0.399739583,1,0,0,1.4681,Basalt_08,2,08,6,1,1.468,1,16,-0.227864583,-0.244791667,1,0,0,1.576,Basalt_rect,2,1.576,1,0,0,0,0,1,,,,,,,,,,,,,
6400f14b24ac2b910c9f2d93,SCR,2024-06-24_16h33.47.131,LearnStrategy,2023.2.3,Win32,59.88023952,6,1,2,-0.36328125,0.390625,1,0,0,1.0555,Gabbro_09,4,09,6,2,1.055,4,14,0.4375,-0.247395833,1,0,0,2.7775,Gabbro_rect,4,2.777,1,1,0,1,0,1,,,,,,,,,,,,,
6400f14b24ac2b910c9f2d93,SCR,2024-06-24_16h33.47.131,LearnStrategy,2023.2.3,Win32,59.88023952,6,1,3,-0.25390625,0.41015625,1,0,0,1.1844,Basalt_10,2,10,6,3,1.184,5,04,-0.130208333,-0.24609375,1,0,0,1.8757,Basalt_rect,2,1.876,1,2,0,2,0,1,,,,,,,,,,,,,
6400f14b24ac2b910c9f2d93,SCR,2024-06-24_16h33.47.131,LearnStrategy,2023.2.3,Win32,59.88023952,6,1,4,-0.088541667,0.411458333,1,0,0,1.4258,Peridotite_16,7,16,6,4,1.426,1,16,0.071614583,-0.397135417,1,0,0,5.4299,Peridotite_rect,7,5.43,1,3,0,3,0,1,,,,,,,,,,,,,
6400f14b24ac2b910c9f2d93,SCR,2024-06-24_16h33.47.131,LearnStrategy,2023.2.3,Win32,59.88023952,6,1,5,0.091145833,0.381510417,1,0,0,2.7964,Andesite_10,1,10,6,5,2.796,7,02,-0.390625,-0.248697917,1,0,0,2.0007,Andesite_rect,1,2.001,1,4,0,4,0,1,,,,,,,,,,,,,
6400f14b24ac2b910c9f2d93,SCR,2024-06-24_16h33.47.131,LearnStrategy,2023.2.3,Win32,59.88023952,6,1,6,0.380208333,0.408854167,1,0,0,10.7816,Diorite_12,3,12,6,7,10.782,4,14,0.09375,-0.26171875,1,0,0,1.6471,Diorite_rect,3,1.647,1,5,0,5,0,1,,,,,,,,,,,,,
6400f14b24ac2b910c9f2d93,SCR,2024-06-24_16h33.47.131,LearnStrategy,2023.2.3,Win32,59.88023952,6,1,7,0.544270833,0.37890625,1,0,0,1.2609,Pegmatite_06,6,06,6,8,1.261,4,08,-0.130208333,-0.385416667,1,0,0,7.388,Pegmatite_rect,6,7.388,1,6,0,6,0,1,,,,,,,,,,,,,
6400f14b24ac2b910c9f2d93,SCR,2024-06-24_16h33.47.131,LearnStrategy,2023.2.3,Win32,59.88023952,6,1,8,0.54296875,0.24609375,1,0,0,3.9278,Diorite_15,3,15,5,8,3.928,2,08,0.166666667,-0.244791667,1,0,0,1.7647,Diorite_rect,3,1.765,1,7,0,7,0,1,,,,,,,,,,,,,
6400f14b24ac2b910c9f2d93,SCR,2024-06-24_16h33.47.131,LearnStrategy,2023.2.3,Win32,59.88023952,6,1,9,0.380208333,0.255208333,1,0,0,1.5146,Diorite_14,3,14,5,7,1.515,6,03,0.145833333,-0.244791667,1,0,0,1.8418,Diorite_rect,3,1.842,1,8,0,8,0,1,,,,,,,,,,,,,
6400f14b24ac2b910c9f2d93,SCR,2024-06-24_16h33.47.131,LearnStrategy,2023.2.3,Win32,59.88023952,6,1,10,0.227864583,0.220052083,1,0,0,1.3131,Pegmatite_03,6,03,5,6,1.313,2,02,-0.126302083,-0.4140625,1,0,0,1.9025,Pegmatite_rect,6,1.903,1,9,0,9,0,1,,,,,,,,,,,,,
6400f14b24ac2b910c9f2d93,SCR,2024-06-24_16h33.47.131,LearnStrategy,2023.2.3,Win32,59.88023952,6,1,11,0.071614583,0.21875,1,0,0,1.4261,Gabbro_10,4,10,5,5,1.426,4,14,0.364583333,-0.234375,1,0,0,4.721,Gabbro_rect,4,4.721,1,10,0,10,0,1,,,,,,,,,,,,,
6400f14b24ac2b910c9f2d93,SCR,2024-06-24_16h33.47.131,LearnStrategy,2023.2.3,Win32,59.88023952,6,1,12,-0.10546875,0.26953125,1,0,0,3.095,Pumice_15,8,15,5,4,3.095,1,10,0.380208333,-0.407552083,1,0,0,2.1618,Pumice_rect,8,2.162,1,11,0,11,0,1,,,,,,,,,,,,,
6400f14b24ac2b910c9f2d93,SCR,2024-06-24_16h33.47.131,LearnStrategy,2023.2.3,Win32,59.88023952,6,1,13,0.5625,-0.278645833,1,0,0,7.2447,Obsidian_14,5,14,2,8,7.245,3,14,-0.399739583,-0.38671875,1,0,0,1.6138,Obsidian_rect,5,1.614,1,12,0,12,0,1,,,,,,,,,,,,,
6400f14b24ac2b910c9f2d93,SCR,2024-06-24_16h33.47.131,LearnStrategy,2023.2.3,Win32,59.88023952,6,1,14,0.552083333,-0.10546875,1,0,0,7.3138,Peridotite_07,7,07,3,8,7.314,8,06,0.184895833,-0.3828125,1,0,0,2.37,Peridotite_rect,7,2.37,1,13,0,13,0,1,,,,,,,,,,,,,
6400f14b24ac2b910c9f2d93,SCR,2024-06-24_16h33.47.131,LearnStrategy,2023.2.3,Win32,59.88023952,6,1,15,0.364583333,-0.115885417,1,0,0,1.051,Pumice_04,8,04,3,7,1.051,6,12,0.329427083,-0.404947917,1,0,0,1.757,Pumice_rect,8,1.757,1,14,0,14,0,1,,,,,,,,,,,,,
6400f14b24ac2b910c9f2d93,SCR,2024-06-24_16h33.47.131,LearnStrategy,2023.2.3,Win32,59.88023952,6,1,16,0.223958333,-0.125,1,0,0,1.0104,Andesite_01,1,01,3,6,1.01,6,06,-0.3515625,-0.23828125,1,0,0,5.4302,Andesite_rect,1,5.43,1,15,0,15,0,1,,,,,,,,,,,,,
6400f14b24ac2b910c9f2d93,SCR,2024-06-24_16h33.47.131,LearnStrategy,2023.2.3,Win32,59.88023952,6,2,1,,,,,,,,5,05,,,,,,,,,,,,,5,3.362,1,,,,,,-0.34765625,-0.39453125,1,0,0,3.3622,Obsidian_rect,0,0,0,0,1,
6400f14b24ac2b910c9f2d93,SCR,2024-06-24_16h33.47.131,LearnStrategy,2023.2.3,Win32,59.88023952,6,2,2,,,,,,,,8,13,,,,,,,,,,,,,8,2.733,1,,,,,,0.319010417,-0.401041667,1,0,0,2.7331,Pumice_rect,1,0,1,0,1,
6400f14b24ac2b910c9f2d93,SCR,2024-06-24_16h33.47.131,LearnStrategy,2023.2.3,Win32,59.88023952,6,2,3,,,,,,,,4,13,,,,,,,,,,,,,1,5.78,0,,,,,,-0.36328125,-0.25390625,1,0,0,5.7796,Andesite_rect,2,0,2,0,1,
6400f14b24ac2b910c9f2d93,SCR,2024-06-24_16h33.47.131,LearnStrategy,2023.2.3,Win32,59.88023952,6,2,4,,,,,,,,7,05,,,,,,,,,,,,,7,2.31,1,,,,,,0.125,-0.408854167,1,0,0,2.3095,Peridotite_rect,3,0,3,0,1,
6400f14b24ac2b910c9f2d93,SCR,2024-06-24_16h33.47.131,LearnStrategy,2023.2.3,Win32,59.88023952,6,2,5,,,,,,,,5,06,,,,,,,,,,,,,5,3.806,1,,,,,,-0.37109375,-0.40625,1,0,0,3.8063,Obsidian_rect,4,0,4,0,1,
6400f14b24ac2b910c9f2d93,SCR,2024-06-24_16h33.47.131,LearnStrategy,2023.2.3,Win32,59.88023952,6,2,6,,,,,,,,1,03,,,,,,,,,,,,,1,4.773,1,,,,,,-0.3671875,-0.2421875,1,0,0,4.7734,Andesite_rect,5,0,5,0,1,
6400f14b24ac2b910c9f2d93,SCR,2024-06-24_16h33.47.131,LearnStrategy,2023.2.3,Win32,59.88023952,6,2,7,,,,,,,,4,16,,,,,,,,,,,,,4,5.084,1,,,,,,0.350260417,-0.24609375,1,0,0,5.0836,Gabbro_rect,6,0,6,0,1,
6400f14b24ac2b910c9f2d93,SCR,2024-06-24_16h33.47.131,LearnStrategy,2023.2.3,Win32,59.88023952,6,2,8,,,,,,,,2,01,,,,,,,,,,,,,2,1.454,1,,,,,,-0.0625,-0.25390625,1,0,0,1.4536,Basalt_rect,7,0,7,0,1,
6400f14b24ac2b910c9f2d93,SCR,2024-06-24_16h33.47.131,LearnStrategy,2023.2.3,Win32,59.88023952,6,2,9,,,,,,,,7,04,,,,,,,,,,,,,4,19.943,0,,,,,,0.322916667,-0.236979167,1,0,0,19.9426,Gabbro_rect,8,0,8,0,1,
6400f14b24ac2b910c9f2d93,SCR,2024-06-24_16h33.47.131,LearnStrategy,2023.2.3,Win32,59.88023952,6,2,10,,,,,,,,1,06,,,,,,,,,,,,,1,2.667,1,,,,,,-0.337239583,-0.243489583,1,0,0,2.6672,Andesite_rect,9,0,9,0,1,
6400f14b24ac2b910c9f2d93,SCR,2024-06-24_16h33.47.131,LearnStrategy,2023.2.3,Win32,59.88023952,6,2,11,,,,,,,,2,04,,,,,,,,,,,,,2,2.14,1,,,,,,-0.096354167,-0.248697917,1,0,0,2.1396,Basalt_rect,10,0,10,0,1,
6400f14b24ac2b910c9f2d93,SCR,2024-06-24_16h33.47.131,LearnStrategy,2023.2.3,Win32,59.88023952,6,2,12,,,,,,,,8,10,,,,,,,,,,,,,8,1.97,1,,,,,,0.359375,-0.399739583,1,0,0,1.9701,Pumice_rect,11,0,11,0,1,
6400f14b24ac2b910c9f2d93,SCR,2024-06-24_16h33.47.131,LearnStrategy,2023.2.3,Win32,59.88023952,6,2,13,,,,,,,,3,11,,,,,,,,,,,,,3,6.31,1,,,,,,0.153645833,-0.255208333,1,0,0,6.3101,Diorite_rect,12,0,12,0,1,
6400f14b24ac2b910c9f2d93,SCR,2024-06-24_16h33.47.131,LearnStrategy,2023.2.3,Win32,59.88023952,6,2,14,,,,,,,,6,11,,,,,,,,,,,,,6,3.174,1,,,,,,-0.098958333,-0.41015625,1,0,0,3.174,Pegmatite_rect,13,0,13,0,1,
6400f14b24ac2b910c9f2d93,SCR,2024-06-24_16h33.47.131,LearnStrategy,2023.2.3,Win32,59.88023952,6,2,15,,,,,,,,6,09,,,,,,,,,,,,,6,1,1,,,,,,-0.098958333,-0.41015625,1,0,0,1.0004,Pegmatite_rect,14,0,14,0,1,
6400f14b24ac2b910c9f2d93,SCR,2024-06-24_16h33.47.131,LearnStrategy,2023.2.3,Win32,59.88023952,6,2,16,,,,,,,,3,02,,,,,,,,,,,,,3,1.898,1,,,,,,0.161458333,-0.243489583,1,0,0,1.8977,Diorite_rect,15,0,15,0,1,
6400f14b24ac2b910c9f2d93,SCR,2024-06-24_16h33.47.131,LearnStrategy,2023.2.3,Win32,59.88023952,7,1,1,-0.533854167,0.42578125,1,0,0,7.1134,Basalt_08,2,08,6,1,7.113,6,12,-0.186197917,-0.229166667,1,0,0,1.6191,Basalt_rect,2,1.619,1,0,0,0,0,1,,,,,,,,,,,,,
6400f14b24ac2b910c9f2d93,SCR,2024-06-24_16h33.47.131,LearnStrategy,2023.2.3,Win32,59.88023952,7,1,2,-0.55078125,0.2578125,1,0,0,1.3294,Obsidian_09,5,09,5,1,1.329,4,12,-0.423177083,-0.390625,1,0,0,1.5557,Obsidian_rect,5,1.556,1,1,0,1,0,1,,,,,,,,,,,,,
6400f14b24ac2b910c9f2d93,SCR,2024-06-24_16h33.47.131,LearnStrategy,2023.2.3,Win32,59.88023952,7,1,3,-0.53515625,0.110677083,1,0,0,1.3115,Diorite_09,3,09,4,1,1.312,8,02,0.134114583,-0.251302083,1,0,0,1.4274,Diorite_rect,3,1.427,1,2,0,2,0,1,,,,,,,,,,,,,
6400f14b24ac2b910c9f2d93,SCR,2024-06-24_16h33.47.131,LearnStrategy,2023.2.3,Win32,59.88023952,7,1,4,-0.520833333,-0.088541667,1,0,0,1.2763,Obsidian_08,5,08,3,1,1.276,3,09,-0.485677083,-0.401041667,1,0,0,1.3628,Obsidian_rect,5,1.363,1,3,0,3,0,1,,,,,,,,,,,,,
6400f14b24ac2b910c9f2d93,SCR,2024-06-24_16h33.47.131,LearnStrategy,2023.2.3,Win32,59.88023952,7,1,5,-0.563802083,-0.239583333,1,0,0,2.031,Diorite_08,3,08,2,1,2.031,7,06,0.208333333,-0.248697917,1,0,0,1.4641,Diorite_rect,3,1.464,1,4,0,4,0,1,,,,,,,,,,,,,
6400f14b24ac2b910c9f2d93,SCR,2024-06-24_16h33.47.131,LearnStrategy,2023.2.3,Win32,59.88023952,7,1,6,-0.526041667,-0.39453125,1,0,0,1.8736,Pegmatite_12,6,12,1,1,1.874,5,14,-0.165364583,-0.3828125,1,0,0,3.4752,Pegmatite_rect,6,3.475,1,5,0,5,0,1,,,,,,,,,,,,,
6400f14b24ac2b910c9f2d93,SCR,2024-06-24_16h33.47.131,LearnStrategy,2023.2.3,Win32,59.88023952,7,1,7,-0.240885417,-0.43359375,1,0,0,3.6515,Andesite_16,1,16,1,3,3.651,1,16,-0.369791667,-0.251302083,1,0,0,9.5603,Andesite_rect,1,9.56,1,6,0,6,0,1,,,,,,,,,,,,,
6400f14b24ac2b910c9f2d93,SCR,2024-06-24_16h33.47.131,LearnStrategy,2023.2.3,Win32,59.88023952,7,1,8,0.229166667,-0.1015625,1,0,0,2.1897,Andesite_01,1,01,3,6,2.19,1,01,-0.303385417,-0.240885417,1,0,0,4.0414,Andesite_rect,1,4.041,1,7,0,7,0,1,,,,,,,,,,,,,
6400f14b24ac2b910c9f2d93,SCR,2024-06-24_16h33.47.131,LearnStrategy,2023.2.3,Win32,59.88023952,7,1,9,0.205729167,0.27734375,1,0,0,1.5731,Pegmatite_03,6,03,5,6,1.573,6,03,-0.111979167,-0.41015625,1,0,0,2.6081,Pegmatite_rect,6,2.608,1,8,0,8,0,1,,,,,,,,,,,,,
6400f14b24ac2b910c9f2d93,SCR,2024-06-24_16h33.47.131,LearnStrategy,2023.2.3,Win32,59.88023952,7,1,10,0.052083333,0.25,1,0,0,1.3067,Gabbro_10,4,10,5,5,1.307,4,10,0.391927083,-0.235677083,1,0,0,2.375,Gabbro_rect,4,2.375,1,9,0,9,0,1,,,,,,,,,,,,,
6400f14b24ac2b910c9f2d93,SCR,2024-06-24_16h33.47.131,LearnStrategy,2023.2.3,Win32,59.88023952,7,1,11,-0.3984375,-0.397135417,1,0,0,1.5123,Basalt_14,2,14,1,2,1.512,2,14,-0.153645833,-0.243489583,1,0,0,1.7478,Basalt_rect,2,1.748,1,10,0,10,0,1,,,,,,,,,,,,,
6400f14b24ac2b910c9f2d93,SCR,2024-06-24_16h33.47.131,LearnStrategy,2023.2.3,Win32,59.88023952,7,1,12,0.526041667,-0.076822917,1,0,0,1.3327,Peridotite_07,7,07,3,8,1.333,7,07,0.16796875,-0.41015625,1,0,0,10.2593,Peridotite_rect,7,10.259,1,11,0,11,0,1,,,,,,,,,,,,,
6400f14b24ac2b910c9f2d93,SCR,2024-06-24_16h33.47.131,LearnStrategy,2023.2.3,Win32,59.88023952,7,1,13,0.067708333,-0.11328125,1,0,0,0.9428,Andesite_14,1,14,3,5,0.943,1,14,-0.151041667,-0.390625,1,0,0,5.5259,Pegmatite_rect,6,5.526,0,12,0,12,0,1,,,,,,,,,,,,,
6400f14b24ac2b910c9f2d93,SCR,2024-06-24_16h33.47.131,LearnStrategy,2023.2.3,Win32,59.88023952,7,1,14,-0.380208333,0.278645833,1,0,0,1.6225,Basalt_02,2,02,5,2,1.623,2,02,-0.07421875,-0.270833333,1,0,0,1.6129,Basalt_rect,2,1.613,1,13,0,13,0,1,,,,,,,,,,,,,
6400f14b24ac2b910c9f2d93,SCR,2024-06-24_16h33.47.131,LearnStrategy,2023.2.3,Win32,59.88023952,7,1,15,-0.372395833,0.419270833,1,0,0,1.3827,Gabbro_09,4,09,6,2,1.383,4,09,0.372395833,-0.235677083,1,0,0,2.2169,Gabbro_rect,4,2.217,1,14,0,14,0,1,,,,,,,,,,,,,
6400f14b24ac2b910c9f2d93,SCR,2024-06-24_16h33.47.131,LearnStrategy,2023.2.3,Win32,59.88023952,7,1,16,-0.061197917,-0.092447917,1,0,0,0.9906,Gabbro_14,4,14,3,4,0.991,4,14,0.34765625,-0.239583333,1,0,0,4.1767,Gabbro_rect,4,4.177,1,15,0,15,0,1,,,,,,,,,,,,,
6400f14b24ac2b910c9f2d93,SCR,2024-06-24_16h33.47.131,LearnStrategy,2023.2.3,Win32,59.88023952,7,2,1,,,,,,,,8,16,,,,,,,,,,,,,8,2.066,1,,,,,,0.32421875,-0.390625,1,0,0,2.0659,Pumice_rect,0,0,0,0,1,
6400f14b24ac2b910c9f2d93,SCR,2024-06-24_16h33.47.131,LearnStrategy,2023.2.3,Win32,59.88023952,7,2,2,,,,,,,,2,01,,,,,,,,,,,,,2,3.809,1,,,,,,-0.126302083,-0.236979167,1,0,0,3.8093,Basalt_rect,1,0,1,0,1,
6400f14b24ac2b910c9f2d93,SCR,2024-06-24_16h33.47.131,LearnStrategy,2023.2.3,Win32,59.88023952,7,2,3,,,,,,,,6,16,,,,,,,,,,,,,6,8.074,1,,,,,,-0.13671875,-0.395833333,1,0,0,8.0745,Pegmatite_rect,2,0,2,0,1,
6400f14b24ac2b910c9f2d93,SCR,2024-06-24_16h33.47.131,LearnStrategy,2023.2.3,Win32,59.88023952,7,2,4,,,,,,,,4,11,,,,,,,,,,,,,4,2.114,1,,,,,,0.401041667,-0.243489583,1,0,0,2.1141,Gabbro_rect,3,0,3,0,1,
6400f14b24ac2b910c9f2d93,SCR,2024-06-24_16h33.47.131,LearnStrategy,2023.2.3,Win32,59.88023952,7,2,5,,,,,,,,4,03,,,,,,,,,,,,,3,2.774,0,,,,,,0.123697917,-0.243489583,1,0,0,2.7744,Diorite_rect,4,0,4,0,1,
6400f14b24ac2b910c9f2d93,SCR,2024-06-24_16h33.47.131,LearnStrategy,2023.2.3,Win32,59.88023952,7,2,6,,,,,,,,6,09,,,,,,,,,,,,,6,1.562,1,,,,,,-0.1015625,-0.393229167,1,0,0,1.5615,Pegmatite_rect,5,0,5,0,1,
6400f14b24ac2b910c9f2d93,SCR,2024-06-24_16h33.47.131,LearnStrategy,2023.2.3,Win32,59.88023952,7,2,7,,,,,,,,8,05,,,,,,,,,,,,,8,1.854,1,,,,,,0.32421875,-0.40625,1,0,0,1.8536,Pumice_rect,6,0,6,0,1,
6400f14b24ac2b910c9f2d93,SCR,2024-06-24_16h33.47.131,LearnStrategy,2023.2.3,Win32,59.88023952,7,2,8,,,,,,,,5,02,,,,,,,,,,,,,5,1.602,1,,,,,,-0.36328125,-0.408854167,1,0,0,1.6016,Obsidian_rect,7,0,7,0,1,
6400f14b24ac2b910c9f2d93,SCR,2024-06-24_16h33.47.131,LearnStrategy,2023.2.3,Win32,59.88023952,7,2,9,,,,,,,,1,06,,,,,,,,,,,,,1,3.941,1,,,,,,-0.393229167,-0.239583333,1,0,0,3.9411,Andesite_rect,8,0,8,0,1,
6400f14b24ac2b910c9f2d93,SCR,2024-06-24_16h33.47.131,LearnStrategy,2023.2.3,Win32,59.88023952,7,2,10,,,,,,,,2,11,,,,,,,,,,,,,4,4.437,0,,,,,,0.356770833,-0.24609375,1,0,0,4.4365,Gabbro_rect,9,0,9,0,1,
6400f14b24ac2b910c9f2d93,SCR,2024-06-24_16h33.47.131,LearnStrategy,2023.2.3,Win32,59.88023952,7,2,11,,,,,,,,7,04,,,,,,,,,,,,,4,1.593,0,,,,,,0.356770833,-0.24609375,1,0,0,1.5932,Gabbro_rect,10,0,10,0,1,
6400f14b24ac2b910c9f2d93,SCR,2024-06-24_16h33.47.131,LearnStrategy,2023.2.3,Win32,59.88023952,7,2,12,,,,,,,,3,06,,,,,,,,,,,,,3,1.244,1,,,,,,0.149739583,-0.2421875,1,0,0,1.2441,Diorite_rect,11,0,11,0,1,
6400f14b24ac2b910c9f2d93,SCR,2024-06-24_16h33.47.131,LearnStrategy,2023.2.3,Win32,59.88023952,7,2,13,,,,,,,,5,16,,,,,,,,,,,,,5,1.503,1,,,,,,-0.377604167,-0.421875,1,0,0,1.5028,Obsidian_rect,12,0,12,0,1,
6400f14b24ac2b910c9f2d93,SCR,2024-06-24_16h33.47.131,LearnStrategy,2023.2.3,Win32,59.88023952,7,2,14,,,,,,,,1,07,,,,,,,,,,,,,6,8.713,0,,,,,,-0.170572917,-0.41796875,1,0,0,8.713,Pegmatite_rect,13,0,13,0,1,
6400f14b24ac2b910c9f2d93,SCR,2024-06-24_16h33.47.131,LearnStrategy,2023.2.3,Win32,59.88023952,7,2,15,,,,,,,,3,02,,,,,,,,,,,,,3,1.572,1,,,,,,0.095052083,-0.247395833,1,0,0,1.5719,Diorite_rect,14,0,14,0,1,
6400f14b24ac2b910c9f2d93,SCR,2024-06-24_16h33.47.131,LearnStrategy,2023.2.3,Win32,59.88023952,7,2,16,,,,,,,,7,14,,,,,,,,,,,,,7,1.627,1,,,,,,0.09375,-0.404947917,1,0,0,1.6272,Peridotite_rect,15,0,15,0,1,
6400f14b24ac2b910c9f2d93,SCR,2024-06-24_16h33.47.131,LearnStrategy,2023.2.3,Win32,59.88023952,8,1,1,-0.216145833,0.279947917,1,0,0,1.2556,Peridotite_13,7,13,5,3,1.256,7,13,0.079427083,-0.399739583,1,0,0,3.4779,Peridotite_rect,7,3.478,1,0,0,0,0,1,,,,,,,,,,,,,
6400f14b24ac2b910c9f2d93,SCR,2024-06-24_16h33.47.131,LearnStrategy,2023.2.3,Win32,59.88023952,8,1,2,0.563802083,0.072916667,1,0,0,1.5348,Gabbro_08,4,08,4,8,1.535,4,08,0.412760417,-0.2578125,1,0,0,1.3224,Gabbro_rect,4,1.322,1,1,0,1,0,1,,,,,,,,,,,,,
6400f14b24ac2b910c9f2d93,SCR,2024-06-24_16h33.47.131,LearnStrategy,2023.2.3,Win32,59.88023952,8,1,3,-0.579427083,0.134114583,1,0,0,1.1835,Diorite_09,3,09,4,1,1.183,3,09,0.092447917,-0.235677083,1,0,0,3.3646,Diorite_rect,3,3.365,1,2,0,2,0,1,,,,,,,,,,,,,
6400f14b24ac2b910c9f2d93,SCR,2024-06-24_16h33.47.131,LearnStrategy,2023.2.3,Win32,59.88023952,8,1,4,0.076822917,-0.266927083,1,0,0,1.7901,Pumice_09,8,09,2,5,1.79,8,09,0.421875,-0.420572917,1,0,0,1.1413,Pumice_rect,8,1.141,1,3,0,3,0,1,,,,,,,,,,,,,
6400f14b24ac2b910c9f2d93,SCR,2024-06-24_16h33.47.131,LearnStrategy,2023.2.3,Win32,59.88023952,8,1,5,-0.44140625,-0.072916667,1,0,0,0.9762,Basalt_09,2,09,3,2,0.976,2,09,0.483072917,-0.229166667,1,0,0,3.1028,Gabbro_rect,4,3.103,0,4,0,4,0,1,,,,,,,,,,,,,
6400f14b24ac2b910c9f2d93,SCR,2024-06-24_16h33.47.131,LearnStrategy,2023.2.3,Win32,59.88023952,8,1,6,-0.563802083,-0.397135417,1,0,0,1.7678,Pegmatite_12,6,12,1,1,1.768,6,12,-0.125,-0.3984375,1,0,0,3.3684,Pegmatite_rect,6,3.368,1,5,0,5,0,1,,,,,,,,,,,,,
6400f14b24ac2b910c9f2d93,SCR,2024-06-24_16h33.47.131,LearnStrategy,2023.2.3,Win32,59.88023952,8,1,7,0.203125,-0.46484375,1,0,0,1.4941,Pegmatite_05,6,05,1,6,1.494,6,05,-0.098958333,-0.3828125,1,0,0,2.2848,Pegmatite_rect,6,2.285,1,6,0,6,0,1,,,,,,,,,,,,,
6400f14b24ac2b910c9f2d93,SCR,2024-06-24_16h33.47.131,LearnStrategy,2023.2.3,Win32,59.88023952,8,1,8,0.052083333,0.083333333,1,0,0,0.9886,Gabbro_12,4,12,4,5,0.989,4,12,0.345052083,-0.235677083,1,0,0,1.3899,Gabbro_rect,4,1.39,1,7,0,7,0,1,,,,,,,,,,,,,
6400f14b24ac2b910c9f2d93,SCR,2024-06-24_16h33.47.131,LearnStrategy,2023.2.3,Win32,59.88023952,8,1,9,0.036458333,0.20703125,1,0,0,1.2611,Gabbro_10,4,10,5,5,1.261,4,10,0.38671875,-0.256510417,1,0,0,1.9955,Gabbro_rect,4,1.995,1,8,0,8,0,1,,,,,,,,,,,,,
6400f14b24ac2b910c9f2d93,SCR,2024-06-24_16h33.47.131,LearnStrategy,2023.2.3,Win32,59.88023952,8,1,10,-0.223958333,-0.3828125,1,0,0,1.1913,Andesite_16,1,16,1,3,1.191,1,16,-0.421875,-0.256510417,1,0,0,3.5743,Andesite_rect,1,3.574,1,9,0,9,0,1,,,,,,,,,,,,,
6400f14b24ac2b910c9f2d93,SCR,2024-06-24_16h33.47.131,LearnStrategy,2023.2.3,Win32,59.88023952,8,1,11,0.22265625,0.3984375,1,0,0,1.4229,Obsidian_04,5,04,6,6,1.423,5,04,-0.34765625,-0.40234375,1,0,0,1.7019,Obsidian_rect,5,1.702,1,10,0,10,0,1,,,,,,,,,,,,,
6400f14b24ac2b910c9f2d93,SCR,2024-06-24_16h33.47.131,LearnStrategy,2023.2.3,Win32,59.88023952,8,1,12,-0.052083333,-0.21875,1,0,0,1.4793,Peridotite_02,7,02,2,4,1.479,7,02,0.08984375,-0.389322917,1,0,0,2.6759,Peridotite_rect,7,2.676,1,11,0,11,0,1,,,,,,,,,,,,,
6400f14b24ac2b910c9f2d93,SCR,2024-06-24_16h33.47.131,LearnStrategy,2023.2.3,Win32,59.88023952,8,1,13,0.078125,0.264322917,1,0,0,1.3252,Gabbro_10,4,10,5,5,1.325,4,10,0.359375,-0.235677083,1,0,0,3.9844,Gabbro_rect,4,3.984,1,12,0,12,0,1,,,,,,,,,,,,,
6400f14b24ac2b910c9f2d93,SCR,2024-06-24_16h33.47.131,LearnStrategy,2023.2.3,Win32,59.88023952,8,1,14,-0.38671875,0.260416667,1,0,0,1.3947,Basalt_02,2,02,5,2,1.395,2,02,-0.12890625,-0.251302083,1,0,0,1.3081,Basalt_rect,2,1.308,1,13,0,13,0,1,,,,,,,,,,,,,
6400f14b24ac2b910c9f2d93,SCR,2024-06-24_16h33.47.131,LearnStrategy,2023.2.3,Win32,59.88023952,8,1,15,0.04296875,0.397135417,1,0,0,1.2537,Andesite_10,1,10,6,5,1.254,1,10,-0.346354167,-0.256510417,1,0,0,2.6069,Andesite_rect,1,2.607,1,14,0,14,0,1,,,,,,,,,,,,,
6400f14b24ac2b910c9f2d93,SCR,2024-06-24_16h33.47.131,LearnStrategy,2023.2.3,Win32,59.88023952,8,1,16,0.208333333,0.071614583,1,0,0,1.3274,Andesite_02,1,02,4,6,1.327,1,02,-0.111979167,-0.3984375,1,0,0,5.4485,Pegmatite_rect,6,5.449,0,15,0,15,0,1,,,,,,,,,,,,,
6400f14b24ac2b910c9f2d93,SCR,2024-06-24_16h33.47.131,LearnStrategy,2023.2.3,Win32,59.88023952,8,2,1,,,,,,,,2,06,,,,,,,,,,,,,2,2.406,1,,,,,,-0.13671875,-0.240885417,1,0,0,2.4062,Basalt_rect,0,0,0,0,1,
6400f14b24ac2b910c9f2d93,SCR,2024-06-24_16h33.47.131,LearnStrategy,2023.2.3,Win32,59.88023952,8,2,2,,,,,,,,5,06,,,,,,,,,,,,,5,1.381,1,,,,,,-0.341145833,-0.388020833,1,0,0,1.3807,Obsidian_rect,1,0,1,0,1,
6400f14b24ac2b910c9f2d93,SCR,2024-06-24_16h33.47.131,LearnStrategy,2023.2.3,Win32,59.88023952,8,2,3,,,,,,,,1,05,,,,,,,,,,,,,1,3.234,1,,,,,,-0.364583333,-0.233072917,1,0,0,3.234,Andesite_rect,2,0,2,0,1,
6400f14b24ac2b910c9f2d93,SCR,2024-06-24_16h33.47.131,LearnStrategy,2023.2.3,Win32,59.88023952,8,2,4,,,,,,,,3,11,,,,,,,,,,,,,3,1.694,1,,,,,,0.149739583,-0.231770833,1,0,0,1.6941,Diorite_rect,3,0,3,0,1,
6400f14b24ac2b910c9f2d93,SCR,2024-06-24_16h33.47.131,LearnStrategy,2023.2.3,Win32,59.88023952,8,2,5,,,,,,,,1,03,,,,,,,,,,,,,1,3.23,1,,,,,,-0.395833333,-0.234375,1,0,0,3.2296,Andesite_rect,4,0,4,0,1,
6400f14b24ac2b910c9f2d93,SCR,2024-06-24_16h33.47.131,LearnStrategy,2023.2.3,Win32,59.88023952,8,2,6,,,,,,,,8,08,,,,,,,,,,,,,8,2.044,1,,,,,,0.372395833,-0.39453125,1,0,0,2.0445,Pumice_rect,5,0,5,0,1,
6400f14b24ac2b910c9f2d93,SCR,2024-06-24_16h33.47.131,LearnStrategy,2023.2.3,Win32,59.88023952,8,2,7,,,,,,,,6,15,,,,,,,,,,,,,6,1.349,1,,,,,,-0.14453125,-0.3984375,1,0,0,1.349,Pegmatite_rect,6,0,6,0,1,
6400f14b24ac2b910c9f2d93,SCR,2024-06-24_16h33.47.131,LearnStrategy,2023.2.3,Win32,59.88023952,8,2,8,,,,,,,,3,16,,,,,,,,,,,,,3,1.25,1,,,,,,0.151041667,-0.235677083,1,0,0,1.2504,Diorite_rect,7,0,7,0,1,
6400f14b24ac2b910c9f2d93,SCR,2024-06-24_16h33.47.131,LearnStrategy,2023.2.3,Win32,59.88023952,8,2,9,,,,,,,,6,07,,,,,,,,,,,,,6,1.37,1,,,,,,-0.138020833,-0.390625,1,0,0,1.3702,Pegmatite_rect,8,0,8,0,1,
6400f14b24ac2b910c9f2d93,SCR,2024-06-24_16h33.47.131,LearnStrategy,2023.2.3,Win32,59.88023952,8,2,10,,,,,,,,7,12,,,,,,,,,,,,,7,1.455,1,,,,,,0.100260417,-0.393229167,1,0,0,1.4546,Peridotite_rect,9,0,9,0,1,
6400f14b24ac2b910c9f2d93,SCR,2024-06-24_16h33.47.131,LearnStrategy,2023.2.3,Win32,59.88023952,8,2,11,,,,,,,,2,04,,,,,,,,,,,,,2,2.637,1,,,,,,-0.08984375,-0.24609375,1,0,0,2.6374,Basalt_rect,10,0,10,0,1,
6400f14b24ac2b910c9f2d93,SCR,2024-06-24_16h33.47.131,LearnStrategy,2023.2.3,Win32,59.88023952,8,2,12,,,,,,,,4,15,,,,,,,,,,,,,3,7.326,0,,,,,,0.095052083,-0.24609375,1,0,0,7.3256,Diorite_rect,11,0,11,0,1,
6400f14b24ac2b910c9f2d93,SCR,2024-06-24_16h33.47.131,LearnStrategy,2023.2.3,Win32,59.88023952,8,2,13,,,,,,,,8,10,,,,,,,,,,,,,8,1.62,1,,,,,,0.329427083,-0.395833333,1,0,0,1.6196,Pumice_rect,12,0,12,0,1,
6400f14b24ac2b910c9f2d93,SCR,2024-06-24_16h33.47.131,LearnStrategy,2023.2.3,Win32,59.88023952,8,2,14,,,,,,,,7,08,,,,,,,,,,,,,7,2.844,1,,,,,,0.092447917,-0.395833333,1,0,0,2.844,Peridotite_rect,13,0,13,0,1,
6400f14b24ac2b910c9f2d93,SCR,2024-06-24_16h33.47.131,LearnStrategy,2023.2.3,Win32,59.88023952,8,2,15,,,,,,,,4,13,,,,,,,,,,,,,1,5.695,0,,,,,,-0.358072917,-0.255208333,1,0,0,5.6949,Andesite_rect,14,0,14,0,1,
6400f14b24ac2b910c9f2d93,SCR,2024-06-24_16h33.47.131,LearnStrategy,2023.2.3,Win32,59.88023952,8,2,16,,,,,,,,5,10,,,,,,,,,,,,,5,1.384,1,,,,,,-0.356770833,-0.397135417,1,0,0,1.3841,Obsidian_rect,15,0,15,0,1,
6400f14b24ac2b910c9f2d93,SCR,2024-06-24_16h33.47.131,LearnStrategy,2023.2.3,Win32,59.88023952,9,1,1,-0.229166667,0.389322917,1,0,0,1.9274,Basalt_10,2,10,6,3,1.927,2,10,-0.109375,-0.247395833,1,0,0,1.8192,Basalt_rect,2,1.819,1,0,0,0,0,1,,,,,,,,,,,,,
6400f14b24ac2b910c9f2d93,SCR,2024-06-24_16h33.47.131,LearnStrategy,2023.2.3,Win32,59.88023952,9,1,2,-0.239583333,-0.071614583,1,0,0,1.1591,Peridotite_15,7,15,3,3,1.159,7,15,0.110677083,-0.381510417,1,0,0,1.8262,Peridotite_rect,7,1.826,1,1,0,1,0,1,,,,,,,,,,,,,
6400f14b24ac2b910c9f2d93,SCR,2024-06-24_16h33.47.131,LearnStrategy,2023.2.3,Win32,59.88023952,9,1,3,0.41015625,0.37890625,1,0,0,1.4808,Diorite_12,3,12,6,7,1.481,3,12,0.134114583,-0.270833333,1,0,0,1.7737,Diorite_rect,3,1.774,1,2,0,2,0,1,,,,,,,,,,,,,
6400f14b24ac2b910c9f2d93,SCR,2024-06-24_16h33.47.131,LearnStrategy,2023.2.3,Win32,59.88023952,9,1,4,0.231770833,0.109375,1,0,0,1.214,Andesite_02,1,02,4,6,1.214,1,02,-0.102864583,-0.395833333,1,0,0,3.2168,Pegmatite_rect,6,3.217,0,3,0,3,0,1,,,,,,,,,,,,,
6400f14b24ac2b910c9f2d93,SCR,2024-06-24_16h33.47.131,LearnStrategy,2023.2.3,Win32,59.88023952,9,1,5,-0.087239583,-0.084635417,1,0,0,0.8762,Gabbro_14,4,14,3,4,0.876,4,14,-0.403645833,-0.236979167,1,0,0,2.8568,Andesite_rect,1,2.857,0,4,0,4,0,1,,,,,,,,,,,,,
6400f14b24ac2b910c9f2d93,SCR,2024-06-24_16h33.47.131,LearnStrategy,2023.2.3,Win32,59.88023952,9,1,6,-0.248697917,-0.424479167,1,0,0,1.5778,Andesite_16,1,16,1,3,1.578,1,16,-0.188802083,-0.395833333,1,0,0,2.1555,Pegmatite_rect,6,2.155,0,5,0,5,0,1,,,,,,,,,,,,,
6400f14b24ac2b910c9f2d93,SCR,2024-06-24_16h33.47.131,LearnStrategy,2023.2.3,Win32,59.88023952,9,1,7,0.213541667,0.052083333,1,0,0,1.2769,Andesite_02,1,02,4,6,1.277,1,02,-0.391927083,-0.23828125,1,0,0,3.3766,Andesite_rect,1,3.377,1,6,0,6,0,1,,,,,,,,,,,,,
6400f14b24ac2b910c9f2d93,SCR,2024-06-24_16h33.47.131,LearnStrategy,2023.2.3,Win32,59.88023952,9,1,8,0.231770833,0.388020833,1,0,0,1.2588,Obsidian_04,5,04,6,6,1.259,5,04,-0.389322917,-0.40625,1,0,0,1.1802,Obsidian_rect,5,1.18,1,7,0,7,0,1,,,,,,,,,,,,,
6400f14b24ac2b910c9f2d93,SCR,2024-06-24_16h33.47.131,LearnStrategy,2023.2.3,Win32,59.88023952,9,1,9,-0.05859375,0.444010417,1,0,0,1.2765,Peridotite_16,7,16,6,4,1.276,7,16,-0.412760417,-0.247395833,1,0,0,5.5736,Andesite_rect,1,5.574,0,8,0,8,0,1,,,,,,,,,,,,,
6400f14b24ac2b910c9f2d93,SCR,2024-06-24_16h33.47.131,LearnStrategy,2023.2.3,Win32,59.88023952,9,1,10,-0.38671875,-0.083333333,1,0,0,1.077,Basalt_09,2,09,3,2,1.077,2,09,-0.135416667,-0.234375,1,0,0,2.3409,Basalt_rect,2,2.341,1,9,0,9,0,1,,,,,,,,,,,,,
6400f14b24ac2b910c9f2d93,SCR,2024-06-24_16h33.47.131,LearnStrategy,2023.2.3,Win32,59.88023952,9,1,11,0.072916667,0.076822917,1,0,0,1.179,Gabbro_12,4,12,4,5,1.179,4,12,0.34375,-0.264322917,1,0,0,3.0436,Gabbro_rect,4,3.044,1,10,0,10,0,1,,,,,,,,,,,,,
6400f14b24ac2b910c9f2d93,SCR,2024-06-24_16h33.47.131,LearnStrategy,2023.2.3,Win32,59.88023952,9,1,12,-0.404947917,0.42578125,1,0,0,1.4428,Gabbro_09,4,09,6,2,1.443,4,09,-0.438802083,-0.23046875,1,0,0,6.1622,Andesite_rect,1,6.162,0,11,0,11,0,1,,,,,,,,,,,,,
6400f14b24ac2b910c9f2d93,SCR,2024-06-24_16h33.47.131,LearnStrategy,2023.2.3,Win32,59.88023952,9,1,13,0.37109375,-0.104166667,1,0,0,1.5091,Pumice_04,8,04,3,7,1.509,8,04,0.376302083,-0.3828125,1,0,0,1.2132,Pumice_rect,8,1.213,1,12,0,12,0,1,,,,,,,,,,,,,
6400f14b24ac2b910c9f2d93,SCR,2024-06-24_16h33.47.131,LearnStrategy,2023.2.3,Win32,59.88023952,9,1,14,0.234375,0.244791667,1,0,0,1.3834,Pegmatite_03,6,03,5,6,1.383,6,03,-0.153645833,-0.3984375,1,0,0,1.3081,Pegmatite_rect,6,1.308,1,13,0,13,0,1,,,,,,,,,,,,,
6400f14b24ac2b910c9f2d93,SCR,2024-06-24_16h33.47.131,LearnStrategy,2023.2.3,Win32,59.88023952,9,1,15,0.036458333,0.059895833,1,0,0,1.1914,Gabbro_12,4,12,4,5,1.191,4,12,0.44921875,-0.260416667,1,0,0,3.8962,Gabbro_rect,4,3.896,1,14,0,14,0,1,,,,,,,,,,,,,
6400f14b24ac2b910c9f2d93,SCR,2024-06-24_16h33.47.131,LearnStrategy,2023.2.3,Win32,59.88023952,9,1,16,0.09765625,0.227864583,1,0,0,1.5772,Gabbro_10,4,10,5,5,1.577,4,10,0.350260417,-0.240885417,1,0,0,2.3006,Gabbro_rect,4,2.301,1,15,0,15,0,1,,,,,,,,,,,,,
6400f14b24ac2b910c9f2d93,SCR,2024-06-24_16h33.47.131,LearnStrategy,2023.2.3,Win32,59.88023952,9,2,1,,,,,,,,7,05,,,,,,,,,,,,,7,2.328,1,,,,,,0.12890625,-0.415364583,1,0,0,2.3279,Peridotite_rect,0,0,0,0,1,
6400f14b24ac2b910c9f2d93,SCR,2024-06-24_16h33.47.131,LearnStrategy,2023.2.3,Win32,59.88023952,9,2,2,,,,,,,,8,13,,,,,,,,,,,,,8,2.076,1,,,,,,0.350260417,-0.412760417,1,0,0,2.0762,Pumice_rect,1,0,1,0,1,
6400f14b24ac2b910c9f2d93,SCR,2024-06-24_16h33.47.131,LearnStrategy,2023.2.3,Win32,59.88023952,9,2,3,,,,,,,,7,10,,,,,,,,,,,,,7,1.767,1,,,,,,0.08203125,-0.389322917,1,0,0,1.7667,Peridotite_rect,2,0,2,0,1,
6400f14b24ac2b910c9f2d93,SCR,2024-06-24_16h33.47.131,LearnStrategy,2023.2.3,Win32,59.88023952,9,2,4,,,,,,,,8,14,,,,,,,,,,,,,8,1.56,1,,,,,,0.359375,-0.3984375,1,0,0,1.5596,Pumice_rect,3,0,3,0,1,
6400f14b24ac2b910c9f2d93,SCR,2024-06-24_16h33.47.131,LearnStrategy,2023.2.3,Win32,59.88023952,9,2,5,,,,,,,,5,12,,,,,,,,,,,,,5,1.709,1,,,,,,-0.328125,-0.3828125,1,0,0,1.7088,Obsidian_rect,4,0,4,0,1,
6400f14b24ac2b910c9f2d93,SCR,2024-06-24_16h33.47.131,LearnStrategy,2023.2.3,Win32,59.88023952,9,2,6,,,,,,,,1,09,,,,,,,,,,,,,1,5.399,1,,,,,,-0.403645833,-0.233072917,1,0,0,5.3988,Andesite_rect,5,0,5,0,1,
6400f14b24ac2b910c9f2d93,SCR,2024-06-24_16h33.47.131,LearnStrategy,2023.2.3,Win32,59.88023952,9,2,7,,,,,,,,4,16,,,,,,,,,,,,,4,4.031,1,,,,,,0.391927083,-0.236979167,1,0,0,4.0314,Gabbro_rect,6,0,6,0,1,
6400f14b24ac2b910c9f2d93,SCR,2024-06-24_16h33.47.131,LearnStrategy,2023.2.3,Win32,59.88023952,9,2,8,,,,,,,,2,16,,,,,,,,,,,,,4,1.563,0,,,,,,0.391927083,-0.236979167,1,0,0,1.5626,Gabbro_rect,7,0,7,0,1,
6400f14b24ac2b910c9f2d93,SCR,2024-06-24_16h33.47.131,LearnStrategy,2023.2.3,Win32,59.88023952,9,2,9,,,,,,,,5,05,,,,,,,,,,,,,5,1.751,1,,,,,,-0.37109375,-0.40234375,1,0,0,1.7515,Obsidian_rect,8,0,8,0,1,
6400f14b24ac2b910c9f2d93,SCR,2024-06-24_16h33.47.131,LearnStrategy,2023.2.3,Win32,59.88023952,9,2,10,,,,,,,,6,11,,,,,,,,,,,,,6,1.822,1,,,,,,-0.067708333,-0.381510417,1,0,0,1.8224,Pegmatite_rect,9,0,9,0,1,
6400f14b24ac2b910c9f2d93,SCR,2024-06-24_16h33.47.131,LearnStrategy,2023.2.3,Win32,59.88023952,9,2,11,,,,,,,,1,11,,,,,,,,,,,,,1,1.75,1,,,,,,-0.352864583,-0.2421875,1,0,0,1.7502,Andesite_rect,10,0,10,0,1,
6400f14b24ac2b910c9f2d93,SCR,2024-06-24_16h33.47.131,LearnStrategy,2023.2.3,Win32,59.88023952,9,2,12,,,,,,,,3,13,,,,,,,,,,,,,3,2.868,1,,,,,,0.126302083,-0.263020833,1,0,0,2.8676,Diorite_rect,11,0,11,0,1,
6400f14b24ac2b910c9f2d93,SCR,2024-06-24_16h33.47.131,LearnStrategy,2023.2.3,Win32,59.88023952,9,2,13,,,,,,,,3,07,,,,,,,,,,,,,3,1.955,1,,,,,,0.11328125,-0.235677083,1,0,0,1.9554,Diorite_rect,12,0,12,0,1,
6400f14b24ac2b910c9f2d93,SCR,2024-06-24_16h33.47.131,LearnStrategy,2023.2.3,Win32,59.88023952,9,2,14,,,,,,,,4,01,,,,,,,,,,,,,4,4.135,1,,,,,,0.30859375,-0.263020833,1,0,0,4.1351,Gabbro_rect,13,0,13,0,1,
6400f14b24ac2b910c9f2d93,SCR,2024-06-24_16h33.47.131,LearnStrategy,2023.2.3,Win32,59.88023952,9,2,15,,,,,,,,2,05,,,,,,,,,,,,,2,2.07,1,,,,,,-0.158854167,-0.26953125,1,0,0,2.0704,Basalt_rect,14,0,14,0,1,
6400f14b24ac2b910c9f2d93,SCR,2024-06-24_16h33.47.131,LearnStrategy,2023.2.3,Win32,59.88023952,9,2,16,,,,,,,,6,13,,,,,,,,,,,,,6,2.168,1,,,,,,-0.154947917,-0.40625,1,0,0,2.1682,Pegmatite_rect,15,0,15,0,1,
6400f14b24ac2b910c9f2d93,SCR,2024-06-24_16h33.47.131,LearnStrategy,2023.2.3,Win32,59.88023952,,,,,,,,,,,,,,,,,,,,,,,,,,,,,,,,,,,,,,,,,,,,,1
6400f14b24ac2b910c9f2d93,SCR,2024-06-24_16h33.47.131,LearnStrategy,2023.2.3,Win32,59.88023952,,,,,,,,,,,,,,,,,,,,,,,,,,,,,,,,,,,,,,,,,,,,,
6400f14b24ac2b910c9f2d93,SCR,2024-06-24_16h33.47.131,LearnStrategy,2023.2.3,Win32,59.88023952,,,,,,,,,,,6,12,1,1,,,,,,,,,,,,,,,,,,,,,,,,,,,,,,,
6400f14b24ac2b910c9f2d93,SCR,2024-06-24_16h33.47.131,LearnStrategy,2023.2.3,Win32,59.88023952,,,,,,,,,,,2,14,1,2,,,,,,,,,,,,,,,,,,,,,,,,,,,,,,,
6400f14b24ac2b910c9f2d93,SCR,2024-06-24_16h33.47.131,LearnStrategy,2023.2.3,Win32,59.88023952,,,,,,,,,,,1,16,1,3,,,,,,,,,,,,,,,,,,,,,,,,,,,,,,,
6400f14b24ac2b910c9f2d93,SCR,2024-06-24_16h33.47.131,LearnStrategy,2023.2.3,Win32,59.88023952,,,,,,,,,,,5,11,1,4,,,,,,,,,,,,,,,,,,,,,,,,,,,,,,,
6400f14b24ac2b910c9f2d93,SCR,2024-06-24_16h33.47.131,LearnStrategy,2023.2.3,Win32,59.88023952,,,,,,,,,,,4,05,1,5,,,,,,,,,,,,,,,,,,,,,,,,,,,,,,,
6400f14b24ac2b910c9f2d93,SCR,2024-06-24_16h33.47.131,LearnStrategy,2023.2.3,Win32,59.88023952,,,,,,,,,,,6,05,1,6,,,,,,,,,,,,,,,,,,,,,,,,,,,,,,,
6400f14b24ac2b910c9f2d93,SCR,2024-06-24_16h33.47.131,LearnStrategy,2023.2.3,Win32,59.88023952,,,,,,,,,,,2,12,1,7,,,,,,,,,,,,,,,,,,,,,,,,,,,,,,,
6400f14b24ac2b910c9f2d93,SCR,2024-06-24_16h33.47.131,LearnStrategy,2023.2.3,Win32,59.88023952,,,,,,,,,,,8,06,1,8,,,,,,,,,,,,,,,,,,,,,,,,,,,,,,,
6400f14b24ac2b910c9f2d93,SCR,2024-06-24_16h33.47.131,LearnStrategy,2023.2.3,Win32,59.88023952,,,,,,,,,,,3,08,2,1,,,,,,,,,,,,,,,,,,,,,,,,,,,,,,,
6400f14b24ac2b910c9f2d93,SCR,2024-06-24_16h33.47.131,LearnStrategy,2023.2.3,Win32,59.88023952,,,,,,,,,,,5,07,2,2,,,,,,,,,,,,,,,,,,,,,,,,,,,,,,,
6400f14b24ac2b910c9f2d93,SCR,2024-06-24_16h33.47.131,LearnStrategy,2023.2.3,Win32,59.88023952,,,,,,,,,,,1,04,2,3,,,,,,,,,,,,,,,,,,,,,,,,,,,,,,,
6400f14b24ac2b910c9f2d93,SCR,2024-06-24_16h33.47.131,LearnStrategy,2023.2.3,Win32,59.88023952,,,,,,,,,,,7,02,2,4,,,,,,,,,,,,,,,,,,,,,,,,,,,,,,,
6400f14b24ac2b910c9f2d93,SCR,2024-06-24_16h33.47.131,LearnStrategy,2023.2.3,Win32,59.88023952,,,,,,,,,,,8,09,2,5,,,,,,,,,,,,,,,,,,,,,,,,,,,,,,,
6400f14b24ac2b910c9f2d93,SCR,2024-06-24_16h33.47.131,LearnStrategy,2023.2.3,Win32,59.88023952,,,,,,,,,,,6,10,2,6,,,,,,,,,,,,,,,,,,,,,,,,,,,,,,,
6400f14b24ac2b910c9f2d93,SCR,2024-06-24_16h33.47.131,LearnStrategy,2023.2.3,Win32,59.88023952,,,,,,,,,,,6,08,2,7,,,,,,,,,,,,,,,,,,,,,,,,,,,,,,,
6400f14b24ac2b910c9f2d93,SCR,2024-06-24_16h33.47.131,LearnStrategy,2023.2.3,Win32,59.88023952,,,,,,,,,,,5,14,2,8,,,,,,,,,,,,,,,,,,,,,,,,,,,,,,,
6400f14b24ac2b910c9f2d93,SCR,2024-06-24_16h33.47.131,LearnStrategy,2023.2.3,Win32,59.88023952,,,,,,,,,,,5,08,3,1,,,,,,,,,,,,,,,,,,,,,,,,,,,,,,,
6400f14b24ac2b910c9f2d93,SCR,2024-06-24_16h33.47.131,LearnStrategy,2023.2.3,Win32,59.88023952,,,,,,,,,,,2,09,3,2,,,,,,,,,,,,,,,,,,,,,,,,,,,,,,,
6400f14b24ac2b910c9f2d93,SCR,2024-06-24_16h33.47.131,LearnStrategy,2023.2.3,Win32,59.88023952,,,,,,,,,,,7,15,3,3,,,,,,,,,,,,,,,,,,,,,,,,,,,,,,,
6400f14b24ac2b910c9f2d93,SCR,2024-06-24_16h33.47.131,LearnStrategy,2023.2.3,Win32,59.88023952,,,,,,,,,,,4,14,3,4,,,,,,,,,,,,,,,,,,,,,,,,,,,,,,,
6400f14b24ac2b910c9f2d93,SCR,2024-06-24_16h33.47.131,LearnStrategy,2023.2.3,Win32,59.88023952,,,,,,,,,,,1,14,3,5,,,,,,,,,,,,,,,,,,,,,,,,,,,,,,,
6400f14b24ac2b910c9f2d93,SCR,2024-06-24_16h33.47.131,LearnStrategy,2023.2.3,Win32,59.88023952,,,,,,,,,,,1,01,3,6,,,,,,,,,,,,,,,,,,,,,,,,,,,,,,,
6400f14b24ac2b910c9f2d93,SCR,2024-06-24_16h33.47.131,LearnStrategy,2023.2.3,Win32,59.88023952,,,,,,,,,,,8,04,3,7,,,,,,,,,,,,,,,,,,,,,,,,,,,,,,,
6400f14b24ac2b910c9f2d93,SCR,2024-06-24_16h33.47.131,LearnStrategy,2023.2.3,Win32,59.88023952,,,,,,,,,,,7,07,3,8,,,,,,,,,,,,,,,,,,,,,,,,,,,,,,,
6400f14b24ac2b910c9f2d93,SCR,2024-06-24_16h33.47.131,LearnStrategy,2023.2.3,Win32,59.88023952,,,,,,,,,,,3,09,4,1,,,,,,,,,,,,,,,,,,,,,,,,,,,,,,,
6400f14b24ac2b910c9f2d93,SCR,2024-06-24_16h33.47.131,LearnStrategy,2023.2.3,Win32,59.88023952,,,,,,,,,,,8,03,4,2,,,,,,,,,,,,,,,,,,,,,,,,,,,,,,,
6400f14b24ac2b910c9f2d93,SCR,2024-06-24_16h33.47.131,LearnStrategy,2023.2.3,Win32,59.88023952,,,,,,,,,,,7,06,4,3,,,,,,,,,,,,,,,,,,,,,,,,,,,,,,,
6400f14b24ac2b910c9f2d93,SCR,2024-06-24_16h33.47.131,LearnStrategy,2023.2.3,Win32,59.88023952,,,,,,,,,,,8,02,4,4,,,,,,,,,,,,,,,,,,,,,,,,,,,,,,,
6400f14b24ac2b910c9f2d93,SCR,2024-06-24_16h33.47.131,LearnStrategy,2023.2.3,Win32,59.88023952,,,,,,,,,,,4,12,4,5,,,,,,,,,,,,,,,,,,,,,,,,,,,,,,,
6400f14b24ac2b910c9f2d93,SCR,2024-06-24_16h33.47.131,LearnStrategy,2023.2.3,Win32,59.88023952,,,,,,,,,,,1,02,4,6,,,,,,,,,,,,,,,,,,,,,,,,,,,,,,,
6400f14b24ac2b910c9f2d93,SCR,2024-06-24_16h33.47.131,LearnStrategy,2023.2.3,Win32,59.88023952,,,,,,,,,,,3,10,4,7,,,,,,,,,,,,,,,,,,,,,,,,,,,,,,,
6400f14b24ac2b910c9f2d93,SCR,2024-06-24_16h33.47.131,LearnStrategy,2023.2.3,Win32,59.88023952,,,,,,,,,,,4,08,4,8,,,,,,,,,,,,,,,,,,,,,,,,,,,,,,,
6400f14b24ac2b910c9f2d93,SCR,2024-06-24_16h33.47.131,LearnStrategy,2023.2.3,Win32,59.88023952,,,,,,,,,,,5,09,5,1,,,,,,,,,,,,,,,,,,,,,,,,,,,,,,,
6400f14b24ac2b910c9f2d93,SCR,2024-06-24_16h33.47.131,LearnStrategy,2023.2.3,Win32,59.88023952,,,,,,,,,,,2,02,5,2,,,,,,,,,,,,,,,,,,,,,,,,,,,,,,,
6400f14b24ac2b910c9f2d93,SCR,2024-06-24_16h33.47.131,LearnStrategy,2023.2.3,Win32,59.88023952,,,,,,,,,,,7,13,5,3,,,,,,,,,,,,,,,,,,,,,,,,,,,,,,,
6400f14b24ac2b910c9f2d93,SCR,2024-06-24_16h33.47.131,LearnStrategy,2023.2.3,Win32,59.88023952,,,,,,,,,,,8,15,5,4,,,,,,,,,,,,,,,,,,,,,,,,,,,,,,,
6400f14b24ac2b910c9f2d93,SCR,2024-06-24_16h33.47.131,LearnStrategy,2023.2.3,Win32,59.88023952,,,,,,,,,,,4,10,5,5,,,,,,,,,,,,,,,,,,,,,,,,,,,,,,,
6400f14b24ac2b910c9f2d93,SCR,2024-06-24_16h33.47.131,LearnStrategy,2023.2.3,Win32,59.88023952,,,,,,,,,,,6,03,5,6,,,,,,,,,,,,,,,,,,,,,,,,,,,,,,,
6400f14b24ac2b910c9f2d93,SCR,2024-06-24_16h33.47.131,LearnStrategy,2023.2.3,Win32,59.88023952,,,,,,,,,,,3,14,5,7,,,,,,,,,,,,,,,,,,,,,,,,,,,,,,,
6400f14b24ac2b910c9f2d93,SCR,2024-06-24_16h33.47.131,LearnStrategy,2023.2.3,Win32,59.88023952,,,,,,,,,,,3,15,5,8,,,,,,,,,,,,,,,,,,,,,,,,,,,,,,,
6400f14b24ac2b910c9f2d93,SCR,2024-06-24_16h33.47.131,LearnStrategy,2023.2.3,Win32,59.88023952,,,,,,,,,,,2,08,6,1,,,,,,,,,,,,,,,,,,,,,,,,,,,,,,,
6400f14b24ac2b910c9f2d93,SCR,2024-06-24_16h33.47.131,LearnStrategy,2023.2.3,Win32,59.88023952,,,,,,,,,,,4,09,6,2,,,,,,,,,,,,,,,,,,,,,,,,,,,,,,,
6400f14b24ac2b910c9f2d93,SCR,2024-06-24_16h33.47.131,LearnStrategy,2023.2.3,Win32,59.88023952,,,,,,,,,,,2,10,6,3,,,,,,,,,,,,,,,,,,,,,,,,,,,,,,,
6400f14b24ac2b910c9f2d93,SCR,2024-06-24_16h33.47.131,LearnStrategy,2023.2.3,Win32,59.88023952,,,,,,,,,,,7,16,6,4,,,,,,,,,,,,,,,,,,,,,,,,,,,,,,,
6400f14b24ac2b910c9f2d93,SCR,2024-06-24_16h33.47.131,LearnStrategy,2023.2.3,Win32,59.88023952,,,,,,,,,,,1,10,6,5,,,,,,,,,,,,,,,,,,,,,,,,,,,,,,,
6400f14b24ac2b910c9f2d93,SCR,2024-06-24_16h33.47.131,LearnStrategy,2023.2.3,Win32,59.88023952,,,,,,,,,,,5,04,6,6,,,,,,,,,,,,,,,,,,,,,,,,,,,,,,,
6400f14b24ac2b910c9f2d93,SCR,2024-06-24_16h33.47.131,LearnStrategy,2023.2.3,Win32,59.88023952,,,,,,,,,,,3,12,6,7,,,,,,,,,,,,,,,,,,,,,,,,,,,,,,,
6400f14b24ac2b910c9f2d93,SCR,2024-06-24_16h33.47.131,LearnStrategy,2023.2.3,Win32,59.88023952,,,,,,,,,,,6,06,6,8,,,,,,,,,,,,,,,,,,,,,,,,,,,,,,,