participant,condition,date,expName,psychopyVersion,OS,frameRate,block,phase,trial,learn_mouse_2.x,learn_mouse_2.y,learn_mouse_2.leftButton,learn_mouse_2.midButton,learn_mouse_2.rightButton,learn_mouse_2.time,learn_mouse_2.clicked_name,cat,token,row,col,t_select,cat_mouse_l.x,cat_mouse_l.y,cat_mouse_l.leftButton,cat_mouse_l.midButton,cat_mouse_l.rightButton,cat_mouse_l.time,cat_mouse_l.clicked_name,resp,t_resp,corr,train_trials.thisRepN,train_trials.thisTrialN,train_trials.thisN,train_trials.thisIndex,train_trials.ran,cat_mouse_t.x,cat_mouse_t.y,cat_mouse_t.leftButton,cat_mouse_t.midButton,cat_mouse_t.rightButton,cat_mouse_t.time,cat_mouse_t.clicked_name,test_trials.thisRepN,test_trials.thisTrialN,test_trials.thisN,test_trials.thisIndex,test_trials.ran
64123b4eef4c2344dfcd12f4,TCR,2024-06-10_14h12.35.220,LearnStrategy,2023.2.3,Win32,59.52380952,,,,,,,,,,,,,,,,,,,,,,,,,,,,,,,,,,,,,,,,,,
64123b4eef4c2344dfcd12f4,TCR,2024-06-10_14h12.35.220,LearnStrategy,2023.2.3,Win32,59.52380952,1,1,1,0.15,-0.005555556,1,0,0,1.873,rock_grid_rect_2,6,15,-1,-1,1.873,-0.365740741,-0.249074074,1,0,0,10.5778,Andesite_rect,1,10.578,0,0,0,0,0,1,,,,,,,,,,,,
64123b4eef4c2344dfcd12f4,TCR,2024-06-10_14h12.35.220,LearnStrategy,2023.2.3,Win32,59.52380952,1,1,2,-0.039814815,0.005555556,1,0,0,1.57,rock_grid_rect_2,8,14,-1,-1,1.57,0.374074074,-0.408333333,1,0,0,3.1766,Pumice_rect,8,3.177,1,1,0,1,0,1,,,,,,,,,,,,
64123b4eef4c2344dfcd12f4,TCR,2024-06-10_14h12.35.220,LearnStrategy,2023.2.3,Win32,59.52380952,1,1,3,-0.012962963,0.00462963,1,0,0,1.0981,rock_grid_rect_2,4,03,-1,-1,1.098,-0.093518519,-0.241666667,1,0,0,6.1775,Basalt_rect,2,6.178,0,2,0,2,0,1,,,,,,,,,,,,
64123b4eef4c2344dfcd12f4,TCR,2024-06-10_14h12.35.220,LearnStrategy,2023.2.3,Win32,59.52380952,1,1,4,0.002777778,-0.000925926,1,0,0,3.6244,rock_grid_rect_2,7,12,-1,-1,3.624,-0.416666667,-0.253703704,1,0,0,5.0943,Andesite_rect,1,5.094,0,3,0,3,0,1,,,,,,,,,,,,
64123b4eef4c2344dfcd12f4,TCR,2024-06-10_14h12.35.220,LearnStrategy,2023.2.3,Win32,59.52380952,1,1,5,-0.031481481,-0.00462963,1,0,0,1.3411,rock_grid_rect_2,2,05,-1,-1,1.341,-0.171296296,-0.25462963,1,0,0,5.1615,Basalt_rect,2,5.161,1,4,0,4,0,1,,,,,,,,,,,,
64123b4eef4c2344dfcd12f4,TCR,2024-06-10_14h12.35.220,LearnStrategy,2023.2.3,Win32,59.52380952,1,1,6,-0.028703704,-0.008333333,1,0,0,1.257,rock_grid_rect_2,1,01,-1,-1,1.257,0.119444444,-0.267592593,1,0,0,4.7266,Diorite_rect,3,4.727,0,5,0,5,0,1,,,,,,,,,,,,
64123b4eef4c2344dfcd12f4,TCR,2024-06-10_14h12.35.220,LearnStrategy,2023.2.3,Win32,59.52380952,1,1,7,0.074074074,-0.011111111,1,0,0,1.0402,rock_grid_rect_2,7,16,-1,-1,1.04,0.188888889,-0.258333333,1,0,0,7.2766,Diorite_rect,3,7.277,0,6,0,6,0,1,,,,,,,,,,,,
64123b4eef4c2344dfcd12f4,TCR,2024-06-10_14h12.35.220,LearnStrategy,2023.2.3,Win32,59.52380952,1,1,8,-0.02962963,-0.000925926,1,0,0,1.0742,rock_grid_rect_2,1,06,-1,-1,1.074,-0.371296296,-0.259259259,1,0,0,6.3442,Andesite_rect,1,6.344,1,7,0,7,0,1,,,,,,,,,,,,
64123b4eef4c2344dfcd12f4,TCR,2024-06-10_14h12.35.220,LearnStrategy,2023.2.3,Win32,59.52380952,1,1,9,-0.073148148,-0.003703704,1,0,0,1.1576,rock_grid_rect_2,6,07,-1,-1,1.158,-0.112037037,-0.415740741,1,0,0,12.5779,Pegmatite_rect,6,12.578,1,8,0,8,0,1,,,,,,,,,,,,
64123b4eef4c2344dfcd12f4,TCR,2024-06-10_14h12.35.220,LearnStrategy,2023.2.3,Win32,59.52380952,1,1,10,-0.076851852,0.016666667,1,0,0,1.1138,rock_grid_rect_2,5,02,-1,-1,1.114,-0.4,-0.400925926,1,0,0,2.2616,Obsidian_rect,5,2.262,1,9,0,9,0,1,,,,,,,,,,,,
64123b4eef4c2344dfcd12f4,TCR,2024-06-10_14h12.35.220,LearnStrategy,2023.2.3,Win32,59.52380952,1,1,11,-0.088888889,0.00462963,1,0,0,1.0811,rock_grid_rect_2,5,05,-1,-1,1.081,-0.397222222,-0.405555556,1,0,0,3.9768,Obsidian_rect,5,3.977,1,10,0,10,0,1,,,,,,,,,,,,
64123b4eef4c2344dfcd12f4,TCR,2024-06-10_14h12.35.220,LearnStrategy,2023.2.3,Win32,59.52380952,1,1,12,-0.113888889,-0.008333333,1,0,0,0.9985,rock_grid_rect_2,8,15,-1,-1,0.998,0.393518519,-0.400925926,1,0,0,1.3935,Pumice_rect,8,1.394,1,11,0,11,0,1,,,,,,,,,,,,
64123b4eef4c2344dfcd12f4,TCR,2024-06-10_14h12.35.220,LearnStrategy,2023.2.3,Win32,59.52380952,1,1,13,-0.101851852,-0.006481481,1,0,0,0.9319,rock_grid_rect_2,3,13,-1,-1,0.932,0.382407407,-0.259259259,1,0,0,23.4499,Gabbro_rect,4,23.45,0,12,0,12,0,1,,,,,,,,,,,,
64123b4eef4c2344dfcd12f4,TCR,2024-06-10_14h12.35.220,LearnStrategy,2023.2.3,Win32,59.52380952,1,1,14,0.016666667,-0.009259259,1,0,0,1.2241,rock_grid_rect_2,2,02,-1,-1,1.224,-0.123148148,-0.248148148,1,0,0,3.8767,Basalt_rect,2,3.877,1,13,0,13,0,1,,,,,,,,,,,,
64123b4eef4c2344dfcd12f4,TCR,2024-06-10_14h12.35.220,LearnStrategy,2023.2.3,Win32,59.52380952,1,1,15,-0.040740741,-0.002777778,1,0,0,0.8984,rock_grid_rect_2,3,15,-1,-1,0.898,0.149074074,-0.237037037,1,0,0,3.8455,Diorite_rect,3,3.846,1,14,0,14,0,1,,,,,,,,,,,,
64123b4eef4c2344dfcd12f4,TCR,2024-06-10_14h12.35.220,LearnStrategy,2023.2.3,Win32,59.52380952,1,1,16,-0.068518519,-0.010185185,1,0,0,0.9822,rock_grid_rect_2,4,05,-1,-1,0.982,0.141666667,-0.402777778,1,0,0,10.6945,Peridotite_rect,7,10.695,0,15,0,15,0,1,,,,,,,,,,,,
64123b4eef4c2344dfcd12f4,TCR,2024-06-10_14h12.35.220,LearnStrategy,2023.2.3,Win32,59.52380952,1,2,1,,,,,,,,5,16,,,,,,,,,,,5,1.687,1,,,,,,-0.388888889,-0.399074074,1,0,0,1.6874,Obsidian_rect,0,0,0,0,1
64123b4eef4c2344dfcd12f4,TCR,2024-06-10_14h12.35.220,LearnStrategy,2023.2.3,Win32,59.52380952,1,2,2,,,,,,,,1,07,,,,,,,,,,,1,4.499,1,,,,,,-0.375925926,-0.246296296,1,0,0,4.4994,Andesite_rect,1,0,1,0,1
64123b4eef4c2344dfcd12f4,TCR,2024-06-10_14h12.35.220,LearnStrategy,2023.2.3,Win32,59.52380952,1,2,3,,,,,,,,8,10,,,,,,,,,,,8,1.673,1,,,,,,0.344444444,-0.4,1,0,0,1.673,Pumice_rect,2,0,2,0,1
64123b4eef4c2344dfcd12f4,TCR,2024-06-10_14h12.35.220,LearnStrategy,2023.2.3,Win32,59.52380952,1,2,4,,,,,,,,2,01,,,,,,,,,,,2,5.493,1,,,,,,-0.2,-0.255555556,1,0,0,5.4925,Basalt_rect,3,0,3,0,1
64123b4eef4c2344dfcd12f4,TCR,2024-06-10_14h12.35.220,LearnStrategy,2023.2.3,Win32,59.52380952,1,2,5,,,,,,,,4,12,,,,,,,,,,,4,18.359,1,,,,,,0.382407407,-0.259259259,1,0,0,18.3594,Gabbro_rect,4,0,4,0,1
64123b4eef4c2344dfcd12f4,TCR,2024-06-10_14h12.35.220,LearnStrategy,2023.2.3,Win32,59.52380952,1,2,6,,,,,,,,5,06,,,,,,,,,,,5,1.527,1,,,,,,-0.385185185,-0.413888889,1,0,0,1.5274,Obsidian_rect,5,0,5,0,1
64123b4eef4c2344dfcd12f4,TCR,2024-06-10_14h12.35.220,LearnStrategy,2023.2.3,Win32,59.52380952,1,2,7,,,,,,,,7,14,,,,,,,,,,,3,15.529,0,,,,,,0.12962963,-0.248148148,1,0,0,15.5291,Diorite_rect,6,0,6,0,1
64123b4eef4c2344dfcd12f4,TCR,2024-06-10_14h12.35.220,LearnStrategy,2023.2.3,Win32,59.52380952,1,2,8,,,,,,,,8,06,,,,,,,,,,,8,1.812,1,,,,,,0.363888889,-0.401851852,1,0,0,1.8123,Pumice_rect,7,0,7,0,1
64123b4eef4c2344dfcd12f4,TCR,2024-06-10_14h12.35.220,LearnStrategy,2023.2.3,Win32,59.52380952,1,2,9,,,,,,,,2,04,,,,,,,,,,,2,1.411,1,,,,,,-0.074074074,-0.263888889,1,0,0,1.411,Basalt_rect,8,0,8,0,1
64123b4eef4c2344dfcd12f4,TCR,2024-06-10_14h12.35.220,LearnStrategy,2023.2.3,Win32,59.52380952,1,2,10,,,,,,,,3,14,,,,,,,,,,,4,13.278,0,,,,,,0.380555556,-0.269444444,1,0,0,13.2776,Gabbro_rect,9,0,9,0,1
64123b4eef4c2344dfcd12f4,TCR,2024-06-10_14h12.35.220,LearnStrategy,2023.2.3,Win32,59.52380952,1,2,11,,,,,,,,7,13,,,,,,,,,,,2,22.628,0,,,,,,-0.188888889,-0.255555556,1,0,0,22.6277,Basalt_rect,10,0,10,0,1
64123b4eef4c2344dfcd12f4,TCR,2024-06-10_14h12.35.220,LearnStrategy,2023.2.3,Win32,59.52380952,1,2,12,,,,,,,,3,02,,,,,,,,,,,1,7.944,0,,,,,,-0.37962963,-0.247222222,1,0,0,7.9441,Andesite_rect,11,0,11,0,1
64123b4eef4c2344dfcd12f4,TCR,2024-06-10_14h12.35.220,LearnStrategy,2023.2.3,Win32,59.52380952,1,2,13,,,,,,,,6,16,,,,,,,,,,,6,3.711,1,,,,,,-0.146296296,-0.393518519,1,0,0,3.7108,Pegmatite_rect,12,0,12,0,1
64123b4eef4c2344dfcd12f4,TCR,2024-06-10_14h12.35.220,LearnStrategy,2023.2.3,Win32,59.52380952,1,2,14,,,,,,,,4,11,,,,,,,,,,,4,6.817,1,,,,,,0.357407407,-0.261111111,1,0,0,6.8166,Gabbro_rect,13,0,13,0,1
64123b4eef4c2344dfcd12f4,TCR,2024-06-10_14h12.35.220,LearnStrategy,2023.2.3,Win32,59.52380952,1,2,15,,,,,,,,6,09,,,,,,,,,,,6,7.112,1,,,,,,-0.159259259,-0.398148148,1,0,0,7.1118,Pegmatite_rect,14,0,14,0,1
64123b4eef4c2344dfcd12f4,TCR,2024-06-10_14h12.35.220,LearnStrategy,2023.2.3,Win32,59.52380952,1,2,16,,,,,,,,1,10,,,,,,,,,,,8,5.061,0,,,,,,0.381481481,-0.389814815,1,0,0,5.0612,Pumice_rect,15,0,15,0,1
64123b4eef4c2344dfcd12f4,TCR,2024-06-10_14h12.35.220,LearnStrategy,2023.2.3,Win32,59.52380952,2,1,1,0.161111111,-0.012962963,1,0,0,1.5813,rock_grid_rect_2,1,01,-1,-1,1.581,-0.37962963,-0.233333333,1,0,0,5.3933,Andesite_rect,1,5.393,1,0,0,0,0,1,,,,,,,,,,,,
64123b4eef4c2344dfcd12f4,TCR,2024-06-10_14h12.35.220,LearnStrategy,2023.2.3,Win32,59.52380952,2,1,2,0.024074074,-0.010185185,1,0,0,0.931,rock_grid_rect_2,7,16,-1,-1,0.931,0.099074074,-0.402777778,1,0,0,7.7615,Peridotite_rect,7,7.761,1,1,0,1,0,1,,,,,,,,,,,,
64123b4eef4c2344dfcd12f4,TCR,2024-06-10_14h12.35.220,LearnStrategy,2023.2.3,Win32,59.52380952,2,1,3,-0.02037037,-0.006481481,1,0,0,1.1651,rock_grid_rect_2,3,10,-1,-1,1.165,0.133333333,-0.262037037,1,0,0,12.2945,Diorite_rect,3,12.295,1,2,0,2,0,1,,,,,,,,,,,,
64123b4eef4c2344dfcd12f4,TCR,2024-06-10_14h12.35.220,LearnStrategy,2023.2.3,Win32,59.52380952,2,1,4,-0.003703704,-0.001851852,1,0,0,1.0573,rock_grid_rect_2,8,15,-1,-1,1.057,0.338888889,-0.408333333,1,0,0,1.2789,Pumice_rect,8,1.279,1,3,0,3,0,1,,,,,,,,,,,,
64123b4eef4c2344dfcd12f4,TCR,2024-06-10_14h12.35.220,LearnStrategy,2023.2.3,Win32,59.52380952,2,1,5,-0.037962963,-0.017592593,1,0,0,1.0487,rock_grid_rect_2,7,05,-1,-1,1.049,0.101851852,-0.4,1,0,0,12.0267,Peridotite_rect,7,12.027,1,4,0,4,0,1,,,,,,,,,,,,
64123b4eef4c2344dfcd12f4,TCR,2024-06-10_14h12.35.220,LearnStrategy,2023.2.3,Win32,59.52380952,2,1,6,-0.040740741,0.000925926,1,0,0,0.9502,rock_grid_rect_2,4,10,-1,-1,0.95,0.362037037,-0.237037037,1,0,0,10.3263,Gabbro_rect,4,10.326,1,5,0,5,0,1,,,,,,,,,,,,
64123b4eef4c2344dfcd12f4,TCR,2024-06-10_14h12.35.220,LearnStrategy,2023.2.3,Win32,59.52380952,2,1,7,-0.030555556,0.003703704,1,0,0,0.9151,rock_grid_rect_2,3,07,-1,-1,0.915,0.146296296,-0.260185185,1,0,0,5.6771,Diorite_rect,3,5.677,1,6,0,6,0,1,,,,,,,,,,,,
64123b4eef4c2344dfcd12f4,TCR,2024-06-10_14h12.35.220,LearnStrategy,2023.2.3,Win32,59.52380952,2,1,8,0.001851852,-0.001851852,1,0,0,0.8982,rock_grid_rect_2,5,02,-1,-1,0.898,-0.339814815,-0.400925926,1,0,0,1.1787,Obsidian_rect,5,1.179,1,7,0,7,0,1,,,,,,,,,,,,
64123b4eef4c2344dfcd12f4,TCR,2024-06-10_14h12.35.220,LearnStrategy,2023.2.3,Win32,59.52380952,2,1,9,-0.012962963,0.002777778,1,0,0,0.8988,rock_grid_rect_2,7,05,-1,-1,0.899,0.084259259,-0.4,1,0,0,8.6614,Peridotite_rect,7,8.661,1,8,0,8,0,1,,,,,,,,,,,,
64123b4eef4c2344dfcd12f4,TCR,2024-06-10_14h12.35.220,LearnStrategy,2023.2.3,Win32,59.52380952,2,1,10,-0.048148148,0.002777778,1,0,0,0.9145,rock_grid_rect_2,3,13,-1,-1,0.914,0.182407407,-0.266666667,1,0,0,2.6786,Diorite_rect,3,2.679,1,9,0,9,0,1,,,,,,,,,,,,
64123b4eef4c2344dfcd12f4,TCR,2024-06-10_14h12.35.220,LearnStrategy,2023.2.3,Win32,59.52380952,2,1,11,-0.027777778,0.003703704,1,0,0,0.8478,rock_grid_rect_2,7,16,-1,-1,0.848,0.088888889,-0.387037037,1,0,0,5.0784,Peridotite_rect,7,5.078,1,10,0,10,0,1,,,,,,,,,,,,
64123b4eef4c2344dfcd12f4,TCR,2024-06-10_14h12.35.220,LearnStrategy,2023.2.3,Win32,59.52380952,2,1,12,-0.021296296,-0.007407407,1,0,0,0.8471,rock_grid_rect_2,1,01,-1,-1,0.847,-0.362037037,-0.240740741,1,0,0,4.179,Andesite_rect,1,4.179,1,11,0,11,0,1,,,,,,,,,,,,
64123b4eef4c2344dfcd12f4,TCR,2024-06-10_14h12.35.220,LearnStrategy,2023.2.3,Win32,59.52380952,2,1,13,-0.027777778,-0.001851852,1,0,0,0.9478,rock_grid_rect_2,7,06,-1,-1,0.948,0.086111111,-0.387962963,1,0,0,9.529,Peridotite_rect,7,9.529,1,12,0,12,0,1,,,,,,,,,,,,
64123b4eef4c2344dfcd12f4,TCR,2024-06-10_14h12.35.220,LearnStrategy,2023.2.3,Win32,59.52380952,2,1,14,-0.042592593,-0.002777778,1,0,0,0.9323,rock_grid_rect_2,6,08,-1,-1,0.932,-0.102777778,-0.386111111,1,0,0,3.7439,Pegmatite_rect,6,3.744,1,13,0,13,0,1,,,,,,,,,,,,
64123b4eef4c2344dfcd12f4,TCR,2024-06-10_14h12.35.220,LearnStrategy,2023.2.3,Win32,59.52380952,2,1,15,0.002777778,0.005555556,1,0,0,0.8141,rock_grid_rect_2,3,08,-1,-1,0.814,0.102777778,-0.241666667,1,0,0,8.1289,Diorite_rect,3,8.129,1,14,0,14,0,1,,,,,,,,,,,,
64123b4eef4c2344dfcd12f4,TCR,2024-06-10_14h12.35.220,LearnStrategy,2023.2.3,Win32,59.52380952,2,1,16,-0.024074074,-0.022222222,1,0,0,1.4587,rock_grid_rect_2,3,13,-1,-1,1.459,0.140740741,-0.247222222,1,0,0,5.2952,Diorite_rect,3,5.295,1,15,0,15,0,1,,,,,,,,,,,,
64123b4eef4c2344dfcd12f4,TCR,2024-06-10_14h12.35.220,LearnStrategy,2023.2.3,Win32,59.52380952,2,2,1,,,,,,,,8,08,,,,,,,,,,,8,2.293,1,,,,,,0.383333333,-0.399074074,1,0,0,2.2932,Pumice_rect,0,0,0,0,1
64123b4eef4c2344dfcd12f4,TCR,2024-06-10_14h12.35.220,LearnStrategy,2023.2.3,Win32,59.52380952,2,2,2,,,,,,,,3,09,,,,,,,,,,,3,3.19,1,,,,,,0.106481481,-0.243518519,1,0,0,3.1899,Diorite_rect,1,0,1,0,1
64123b4eef4c2344dfcd12f4,TCR,2024-06-10_14h12.35.220,LearnStrategy,2023.2.3,Win32,59.52380952,2,2,3,,,,,,,,5,04,,,,,,,,,,,5,1.161,1,,,,,,-0.369444444,-0.39537037,1,0,0,1.1608,Obsidian_rect,2,0,2,0,1
64123b4eef4c2344dfcd12f4,TCR,2024-06-10_14h12.35.220,LearnStrategy,2023.2.3,Win32,59.52380952,2,2,4,,,,,,,,6,03,,,,,,,,,,,6,5.678,1,,,,,,-0.146296296,-0.399074074,1,0,0,5.6784,Pegmatite_rect,3,0,3,0,1
64123b4eef4c2344dfcd12f4,TCR,2024-06-10_14h12.35.220,LearnStrategy,2023.2.3,Win32,59.52380952,2,2,5,,,,,,,,3,16,,,,,,,,,,,4,11.479,0,,,,,,0.387037037,-0.239814815,1,0,0,11.4787,Gabbro_rect,4,0,4,0,1
64123b4eef4c2344dfcd12f4,TCR,2024-06-10_14h12.35.220,LearnStrategy,2023.2.3,Win32,59.52380952,2,2,6,,,,,,,,6,06,,,,,,,,,,,6,6.044,1,,,,,,-0.185185185,-0.411111111,1,0,0,6.0436,Pegmatite_rect,5,0,5,0,1
64123b4eef4c2344dfcd12f4,TCR,2024-06-10_14h12.35.220,LearnStrategy,2023.2.3,Win32,59.52380952,2,2,7,,,,,,,,4,01,,,,,,,,,,,7,4.209,0,,,,,,0.126851852,-0.408333333,1,0,0,4.209,Peridotite_rect,6,0,6,0,1
64123b4eef4c2344dfcd12f4,TCR,2024-06-10_14h12.35.220,LearnStrategy,2023.2.3,Win32,59.52380952,2,2,8,,,,,,,,2,16,,,,,,,,,,,8,2.377,0,,,,,,0.362037037,-0.405555556,1,0,0,2.3766,Pumice_rect,7,0,7,0,1
64123b4eef4c2344dfcd12f4,TCR,2024-06-10_14h12.35.220,LearnStrategy,2023.2.3,Win32,59.52380952,2,2,9,,,,,,,,1,02,,,,,,,,,,,3,5.909,0,,,,,,0.078703704,-0.260185185,1,0,0,5.9094,Diorite_rect,8,0,8,0,1
64123b4eef4c2344dfcd12f4,TCR,2024-06-10_14h12.35.220,LearnStrategy,2023.2.3,Win32,59.52380952,2,2,10,,,,,,,,4,09,,,,,,,,,,,1,4.893,0,,,,,,-0.324074074,-0.263888889,1,0,0,4.8929,Andesite_rect,9,0,9,0,1
64123b4eef4c2344dfcd12f4,TCR,2024-06-10_14h12.35.220,LearnStrategy,2023.2.3,Win32,59.52380952,2,2,11,,,,,,,,1,09,,,,,,,,,,,4,4.679,0,,,,,,0.331481481,-0.255555556,1,0,0,4.6788,Gabbro_rect,10,0,10,0,1
64123b4eef4c2344dfcd12f4,TCR,2024-06-10_14h12.35.220,LearnStrategy,2023.2.3,Win32,59.52380952,2,2,12,,,,,,,,7,10,,,,,,,,,,,7,3.662,1,,,,,,0.097222222,-0.407407407,1,0,0,3.6616,Peridotite_rect,11,0,11,0,1
64123b4eef4c2344dfcd12f4,TCR,2024-06-10_14h12.35.220,LearnStrategy,2023.2.3,Win32,59.52380952,2,2,13,,,,,,,,2,06,,,,,,,,,,,2,5.028,1,,,,,,-0.178703704,-0.257407407,1,0,0,5.0282,Basalt_rect,12,0,12,0,1
64123b4eef4c2344dfcd12f4,TCR,2024-06-10_14h12.35.220,LearnStrategy,2023.2.3,Win32,59.52380952,2,2,14,,,,,,,,7,04,,,,,,,,,,,7,21.928,1,,,,,,0.074074074,-0.397222222,1,0,0,21.9281,Peridotite_rect,13,0,13,0,1
64123b4eef4c2344dfcd12f4,TCR,2024-06-10_14h12.35.220,LearnStrategy,2023.2.3,Win32,59.52380952,2,2,15,,,,,,,,5,14,,,,,,,,,,,5,1.444,1,,,,,,-0.381481481,-0.399074074,1,0,0,1.4436,Obsidian_rect,14,0,14,0,1
64123b4eef4c2344dfcd12f4,TCR,2024-06-10_14h12.35.220,LearnStrategy,2023.2.3,Win32,59.52380952,2,2,16,,,,,,,,8,02,,,,,,,,,,,8,1.944,1,,,,,,0.375,-0.390740741,1,0,0,1.9444,Pumice_rect,15,0,15,0,1
64123b4eef4c2344dfcd12f4,TCR,2024-06-10_14h12.35.220,LearnStrategy,2023.2.3,Win32,59.52380952,3,1,1,0.023148148,0.00462963,1,0,0,1.1483,rock_grid_rect_2,3,15,-1,-1,1.148,0.347222222,-0.22962963,1,0,0,5.078,Gabbro_rect,4,5.078,0,0,0,0,0,1,,,,,,,,,,,,
64123b4eef4c2344dfcd12f4,TCR,2024-06-10_14h12.35.220,LearnStrategy,2023.2.3,Win32,59.52380952,3,1,2,0.081481481,-0.006481481,1,0,0,0.9266,rock_grid_rect_2,4,16,-1,-1,0.927,-0.412962963,-0.239814815,1,0,0,28.4939,Andesite_rect,1,28.494,0,1,0,1,0,1,,,,,,,,,,,,
64123b4eef4c2344dfcd12f4,TCR,2024-06-10_14h12.35.220,LearnStrategy,2023.2.3,Win32,59.52380952,3,1,3,-0.058333333,-0.000925926,1,0,0,0.8432,rock_grid_rect_2,4,03,-1,-1,0.843,0.390740741,-0.239814815,1,0,0,3.4589,Gabbro_rect,4,3.459,1,2,0,2,0,1,,,,,,,,,,,,
64123b4eef4c2344dfcd12f4,TCR,2024-06-10_14h12.35.220,LearnStrategy,2023.2.3,Win32,59.52380952,3,1,4,0.002777778,0.000925926,1,0,0,0.9481,rock_grid_rect_2,3,08,-1,-1,0.948,0.088888889,-0.239814815,1,0,0,3.1104,Diorite_rect,3,3.11,1,3,0,3,0,1,,,,,,,,,,,,
64123b4eef4c2344dfcd12f4,TCR,2024-06-10_14h12.35.220,LearnStrategy,2023.2.3,Win32,59.52380952,3,1,5,-0.011111111,0.000925926,1,0,0,0.8322,rock_grid_rect_2,1,06,-1,-1,0.832,0.074074074,-0.256481481,1,0,0,3.3951,Diorite_rect,3,3.395,0,4,0,4,0,1,,,,,,,,,,,,
64123b4eef4c2344dfcd12f4,TCR,2024-06-10_14h12.35.220,LearnStrategy,2023.2.3,Win32,59.52380952,3,1,6,-0.018518519,-0.000925926,1,0,0,0.974,rock_grid_rect_2,4,05,-1,-1,0.974,0.072222222,-0.386111111,1,0,0,4.5277,Peridotite_rect,7,4.528,0,5,0,5,0,1,,,,,,,,,,,,
64123b4eef4c2344dfcd12f4,TCR,2024-06-10_14h12.35.220,LearnStrategy,2023.2.3,Win32,59.52380952,3,1,7,-0.008333333,0.001851852,1,0,0,1.4741,rock_grid_rect_2,2,02,-1,-1,1.474,-0.189814815,-0.243518519,1,0,0,1.9261,Basalt_rect,2,1.926,1,6,0,6,0,1,,,,,,,,,,,,
64123b4eef4c2344dfcd12f4,TCR,2024-06-10_14h12.35.220,LearnStrategy,2023.2.3,Win32,59.52380952,3,1,8,-0.022222222,0.002777778,1,0,0,0.8481,rock_grid_rect_2,3,10,-1,-1,0.848,0.089814815,-0.25,1,0,0,5.1464,Diorite_rect,3,5.146,1,7,0,7,0,1,,,,,,,,,,,,
64123b4eef4c2344dfcd12f4,TCR,2024-06-10_14h12.35.220,LearnStrategy,2023.2.3,Win32,59.52380952,3,1,9,-0.027777778,0.001851852,1,0,0,0.9157,rock_grid_rect_2,1,11,-1,-1,0.916,-0.082407407,-0.397222222,1,0,0,7.8951,Pegmatite_rect,6,7.895,0,8,0,8,0,1,,,,,,,,,,,,
64123b4eef4c2344dfcd12f4,TCR,2024-06-10_14h12.35.220,LearnStrategy,2023.2.3,Win32,59.52380952,3,1,10,-0.025,0.005555556,1,0,0,0.8736,rock_grid_rect_2,1,16,-1,-1,0.874,-0.111111111,-0.393518519,1,0,0,4.6956,Pegmatite_rect,6,4.696,0,9,0,9,0,1,,,,,,,,,,,,
64123b4eef4c2344dfcd12f4,TCR,2024-06-10_14h12.35.220,LearnStrategy,2023.2.3,Win32,59.52380952,3,1,11,0.009259259,-0.005555556,1,0,0,0.9408,rock_grid_rect_2,1,01,-1,-1,0.941,-0.332407407,-0.260185185,1,0,0,3.6458,Andesite_rect,1,3.646,1,10,0,10,0,1,,,,,,,,,,,,
64123b4eef4c2344dfcd12f4,TCR,2024-06-10_14h12.35.220,LearnStrategy,2023.2.3,Win32,59.52380952,3,1,12,-0.051851852,0.007407407,1,0,0,0.7984,rock_grid_rect_2,3,10,-1,-1,0.798,0.406481481,-0.231481481,1,0,0,5.9449,Gabbro_rect,4,5.945,0,11,0,11,0,1,,,,,,,,,,,,
64123b4eef4c2344dfcd12f4,TCR,2024-06-10_14h12.35.220,LearnStrategy,2023.2.3,Win32,59.52380952,3,1,13,-0.023148148,-0.012037037,1,0,0,0.8908,rock_grid_rect_2,8,03,-1,-1,0.891,0.403703704,-0.409259259,1,0,0,1.1771,Pumice_rect,8,1.177,1,12,0,12,0,1,,,,,,,,,,,,
64123b4eef4c2344dfcd12f4,TCR,2024-06-10_14h12.35.220,LearnStrategy,2023.2.3,Win32,59.52380952,3,1,14,-0.055555556,-0.011111111,1,0,0,0.7489,rock_grid_rect_2,7,06,-1,-1,0.749,-0.090740741,-0.413888889,1,0,0,4.2459,Pegmatite_rect,6,4.246,0,13,0,13,0,1,,,,,,,,,,,,
64123b4eef4c2344dfcd12f4,TCR,2024-06-10_14h12.35.220,LearnStrategy,2023.2.3,Win32,59.52380952,3,1,15,-0.062037037,0.013888889,1,0,0,0.9263,rock_grid_rect_2,2,11,-1,-1,0.926,0.385185185,-0.421296296,1,0,0,1.8937,Pumice_rect,8,1.894,0,14,0,14,0,1,,,,,,,,,,,,
64123b4eef4c2344dfcd12f4,TCR,2024-06-10_14h12.35.220,LearnStrategy,2023.2.3,Win32,59.52380952,3,1,16,-0.105555556,-0.002777778,1,0,0,0.9318,rock_grid_rect_2,7,06,-1,-1,0.932,0.069444444,-0.405555556,1,0,0,14.5269,Peridotite_rect,7,14.527,1,15,0,15,0,1,,,,,,,,,,,,
64123b4eef4c2344dfcd12f4,TCR,2024-06-10_14h12.35.220,LearnStrategy,2023.2.3,Win32,59.52380952,3,2,1,,,,,,,,3,12,,,,,,,,,,,3,6.443,1,,,,,,0.167592593,-0.235185185,1,0,0,6.4432,Diorite_rect,0,0,0,0,1
64123b4eef4c2344dfcd12f4,TCR,2024-06-10_14h12.35.220,LearnStrategy,2023.2.3,Win32,59.52380952,3,2,2,,,,,,,,3,11,,,,,,,,,,,3,16.326,1,,,,,,0.117592593,-0.262962963,1,0,0,16.3257,Diorite_rect,1,0,1,0,1
64123b4eef4c2344dfcd12f4,TCR,2024-06-10_14h12.35.220,LearnStrategy,2023.2.3,Win32,59.52380952,3,2,3,,,,,,,,2,12,,,,,,,,,,,8,8.191,0,,,,,,0.394444444,-0.398148148,1,0,0,8.191,Pumice_rect,2,0,2,0,1
64123b4eef4c2344dfcd12f4,TCR,2024-06-10_14h12.35.220,LearnStrategy,2023.2.3,Win32,59.52380952,3,2,4,,,,,,,,7,15,,,,,,,,,,,3,10.592,0,,,,,,0.067592593,-0.25462963,1,0,0,10.5922,Diorite_rect,3,0,3,0,1
64123b4eef4c2344dfcd12f4,TCR,2024-06-10_14h12.35.220,LearnStrategy,2023.2.3,Win32,59.52380952,3,2,5,,,,,,,,5,11,,,,,,,,,,,5,1.56,1,,,,,,-0.410185185,-0.396296296,1,0,0,1.5602,Obsidian_rect,4,0,4,0,1
64123b4eef4c2344dfcd12f4,TCR,2024-06-10_14h12.35.220,LearnStrategy,2023.2.3,Win32,59.52380952,3,2,6,,,,,,,,1,03,,,,,,,,,,,1,4.945,1,,,,,,-0.392592593,-0.237962963,1,0,0,4.9452,Andesite_rect,5,0,5,0,1
64123b4eef4c2344dfcd12f4,TCR,2024-06-10_14h12.35.220,LearnStrategy,2023.2.3,Win32,59.52380952,3,2,7,,,,,,,,8,16,,,,,,,,,,,8,1.878,1,,,,,,0.4,-0.389814815,1,0,0,1.8779,Pumice_rect,6,0,6,0,1
64123b4eef4c2344dfcd12f4,TCR,2024-06-10_14h12.35.220,LearnStrategy,2023.2.3,Win32,59.52380952,3,2,8,,,,,,,,7,07,,,,,,,,,,,7,12.18,1,,,,,,0.119444444,-0.380555556,1,0,0,12.1805,Peridotite_rect,7,0,7,0,1
64123b4eef4c2344dfcd12f4,TCR,2024-06-10_14h12.35.220,LearnStrategy,2023.2.3,Win32,59.52380952,3,2,9,,,,,,,,1,05,,,,,,,,,,,1,7.944,1,,,,,,-0.349074074,-0.250925926,1,0,0,7.9444,Andesite_rect,8,0,8,0,1
64123b4eef4c2344dfcd12f4,TCR,2024-06-10_14h12.35.220,LearnStrategy,2023.2.3,Win32,59.52380952,3,2,10,,,,,,,,4,14,,,,,,,,,,,1,60.144,0,,,,,,-0.406481481,-0.240740741,1,0,0,60.1444,Andesite_rect,9,0,9,0,1
64123b4eef4c2344dfcd12f4,TCR,2024-06-10_14h12.35.220,LearnStrategy,2023.2.3,Win32,59.52380952,3,2,11,,,,,,,,6,05,,,,,,,,,,,6,5.211,1,,,,,,-0.127777778,-0.403703704,1,0,0,5.2112,Pegmatite_rect,10,0,10,0,1
64123b4eef4c2344dfcd12f4,TCR,2024-06-10_14h12.35.220,LearnStrategy,2023.2.3,Win32,59.52380952,3,2,12,,,,,,,,2,10,,,,,,,,,,,2,2.893,1,,,,,,-0.116666667,-0.258333333,1,0,0,2.8932,Basalt_rect,11,0,11,0,1
64123b4eef4c2344dfcd12f4,TCR,2024-06-10_14h12.35.220,LearnStrategy,2023.2.3,Win32,59.52380952,3,2,13,,,,,,,,6,13,,,,,,,,,,,3,15.291,0,,,,,,0.198148148,-0.256481481,1,0,0,15.291,Diorite_rect,12,0,12,0,1
64123b4eef4c2344dfcd12f4,TCR,2024-06-10_14h12.35.220,LearnStrategy,2023.2.3,Win32,59.52380952,3,2,14,,,,,,,,4,08,,,,,,,,,,,7,12.893,0,,,,,,0.069444444,-0.396296296,1,0,0,12.8932,Peridotite_rect,13,0,13,0,1
64123b4eef4c2344dfcd12f4,TCR,2024-06-10_14h12.35.220,LearnStrategy,2023.2.3,Win32,59.52380952,3,2,15,,,,,,,,5,09,,,,,,,,,,,5,1.311,1,,,,,,-0.313888889,-0.40462963,1,0,0,1.311,Obsidian_rect,14,0,14,0,1
64123b4eef4c2344dfcd12f4,TCR,2024-06-10_14h12.35.220,LearnStrategy,2023.2.3,Win32,59.52380952,3,2,16,,,,,,,,8,04,,,,,,,,,,,8,1.445,1,,,,,,0.387962963,-0.402777778,1,0,0,1.445,Pumice_rect,15,0,15,0,1
64123b4eef4c2344dfcd12f4,TCR,2024-06-10_14h12.35.220,LearnStrategy,2023.2.3,Win32,59.52380952,4,1,1,0.150925926,-0.005555556,1,0,0,1.1325,rock_grid_rect_2,4,15,-1,-1,1.133,0.368518519,-0.244444444,1,0,0,5.6439,Gabbro_rect,4,5.644,1,0,0,0,0,1,,,,,,,,,,,,
64123b4eef4c2344dfcd12f4,TCR,2024-06-10_14h12.35.220,LearnStrategy,2023.2.3,Win32,59.52380952,4,1,2,0.022222222,-0.000925926,1,0,0,0.9144,rock_grid_rect_2,1,16,-1,-1,0.914,0.128703704,-0.410185185,1,0,0,15.0285,Peridotite_rect,7,15.028,0,1,0,1,0,1,,,,,,,,,,,,
64123b4eef4c2344dfcd12f4,TCR,2024-06-10_14h12.35.220,LearnStrategy,2023.2.3,Win32,59.52380952,4,1,3,-0.009259259,0.005555556,1,0,0,0.9745,rock_grid_rect_2,8,14,-1,-1,0.975,0.37962963,-0.384259259,1,0,0,1.2437,Pumice_rect,8,1.244,1,2,0,2,0,1,,,,,,,,,,,,
64123b4eef4c2344dfcd12f4,TCR,2024-06-10_14h12.35.220,LearnStrategy,2023.2.3,Win32,59.52380952,4,1,4,-0.018518519,0.007407407,1,0,0,0.9156,rock_grid_rect_2,7,12,-1,-1,0.916,0.110185185,-0.397222222,1,0,0,6.1282,Peridotite_rect,7,6.128,1,3,0,3,0,1,,,,,,,,,,,,
64123b4eef4c2344dfcd12f4,TCR,2024-06-10_14h12.35.220,LearnStrategy,2023.2.3,Win32,59.52380952,4,1,5,-0.023148148,-0.018518519,1,0,0,1.0323,rock_grid_rect_2,4,16,-1,-1,1.032,0.377777778,-0.243518519,1,0,0,11.5111,Gabbro_rect,4,11.511,1,4,0,4,0,1,,,,,,,,,,,,
64123b4eef4c2344dfcd12f4,TCR,2024-06-10_14h12.35.220,LearnStrategy,2023.2.3,Win32,59.52380952,4,1,6,-0.023148148,-0.001851852,1,0,0,1.0319,rock_grid_rect_2,2,02,-1,-1,1.032,-0.102777778,-0.244444444,1,0,0,2.3112,Basalt_rect,2,2.311,1,5,0,5,0,1,,,,,,,,,,,,
64123b4eef4c2344dfcd12f4,TCR,2024-06-10_14h12.35.220,LearnStrategy,2023.2.3,Win32,59.52380952,4,1,7,-0.011111111,-0.005555556,1,0,0,1.0153,rock_grid_rect_2,1,11,-1,-1,1.015,-0.396296296,-0.249074074,1,0,0,19.4455,Andesite_rect,1,19.445,1,6,0,6,0,1,,,,,,,,,,,,
64123b4eef4c2344dfcd12f4,TCR,2024-06-10_14h12.35.220,LearnStrategy,2023.2.3,Win32,59.52380952,4,1,8,-0.017592593,0.003703704,1,0,0,0.8482,rock_grid_rect_2,3,07,-1,-1,0.848,0.117592593,-0.243518519,1,0,0,4.7992,Diorite_rect,3,4.799,1,7,0,7,0,1,,,,,,,,,,,,
64123b4eef4c2344dfcd12f4,TCR,2024-06-10_14h12.35.220,LearnStrategy,2023.2.3,Win32,59.52380952,4,1,9,-0.001851852,0.011111111,1,0,0,0.7821,rock_grid_rect_2,4,05,-1,-1,0.782,0.391666667,-0.251851852,1,0,0,7.3454,Gabbro_rect,4,7.345,1,8,0,8,0,1,,,,,,,,,,,,
64123b4eef4c2344dfcd12f4,TCR,2024-06-10_14h12.35.220,LearnStrategy,2023.2.3,Win32,59.52380952,4,1,10,-0.031481481,0.000925926,1,0,0,0.8986,rock_grid_rect_2,6,12,-1,-1,0.899,-0.092592593,-0.408333333,1,0,0,2.6362,Pegmatite_rect,6,2.636,1,9,0,9,0,1,,,,,,,,,,,,
64123b4eef4c2344dfcd12f4,TCR,2024-06-10_14h12.35.220,LearnStrategy,2023.2.3,Win32,59.52380952,4,1,11,-0.031481481,0,1,0,0,0.8481,rock_grid_rect_2,7,06,-1,-1,0.848,0.114814815,-0.241666667,1,0,0,10.4953,Diorite_rect,3,10.495,0,10,0,10,0,1,,,,,,,,,,,,
64123b4eef4c2344dfcd12f4,TCR,2024-06-10_14h12.35.220,LearnStrategy,2023.2.3,Win32,59.52380952,4,1,12,-0.034259259,0.001851852,1,0,0,0.9927,rock_grid_rect_2,6,12,-1,-1,0.993,-0.133333333,-0.416666667,1,0,0,2.178,Pegmatite_rect,6,2.178,1,11,0,11,0,1,,,,,,,,,,,,
64123b4eef4c2344dfcd12f4,TCR,2024-06-10_14h12.35.220,LearnStrategy,2023.2.3,Win32,59.52380952,4,1,13,-0.062962963,0.00462963,1,0,0,0.8322,rock_grid_rect_2,1,14,-1,-1,0.832,0.443518519,-0.241666667,1,0,0,23.4206,Gabbro_rect,4,23.421,0,12,0,12,0,1,,,,,,,,,,,,
64123b4eef4c2344dfcd12f4,TCR,2024-06-10_14h12.35.220,LearnStrategy,2023.2.3,Win32,59.52380952,4,1,14,0.008333333,0.001851852,1,0,0,0.9259,rock_grid_rect_2,3,15,-1,-1,0.926,0.388888889,-0.257407407,1,0,0,1.81,Gabbro_rect,4,1.81,0,13,0,13,0,1,,,,,,,,,,,,
64123b4eef4c2344dfcd12f4,TCR,2024-06-10_14h12.35.220,LearnStrategy,2023.2.3,Win32,59.52380952,4,1,15,0.025925926,-0.009259259,1,0,0,1.0586,rock_grid_rect_2,4,16,-1,-1,1.059,0.355555556,-0.251851852,1,0,0,3.4273,Gabbro_rect,4,3.427,1,14,0,14,0,1,,,,,,,,,,,,
64123b4eef4c2344dfcd12f4,TCR,2024-06-10_14h12.35.220,LearnStrategy,2023.2.3,Win32,59.52380952,4,1,16,-0.033333333,0.002777778,1,0,0,0.8813,rock_grid_rect_2,2,08,-1,-1,0.881,-0.14537037,-0.255555556,1,0,0,2.1949,Basalt_rect,2,2.195,1,15,0,15,0,1,,,,,,,,,,,,
64123b4eef4c2344dfcd12f4,TCR,2024-06-10_14h12.35.220,LearnStrategy,2023.2.3,Win32,59.52380952,4,2,1,,,,,,,,5,14,,,,,,,,,,,5,1.245,1,,,,,,-0.372222222,-0.398148148,1,0,0,1.2454,Obsidian_rect,0,0,0,0,1
64123b4eef4c2344dfcd12f4,TCR,2024-06-10_14h12.35.220,LearnStrategy,2023.2.3,Win32,59.52380952,4,2,2,,,,,,,,7,15,,,,,,,,,,,3,18.495,0,,,,,,0.14537037,-0.259259259,1,0,0,18.4947,Diorite_rect,1,0,1,0,1
64123b4eef4c2344dfcd12f4,TCR,2024-06-10_14h12.35.220,LearnStrategy,2023.2.3,Win32,59.52380952,4,2,3,,,,,,,,2,04,,,,,,,,,,,2,2.078,1,,,,,,-0.157407407,-0.256481481,1,0,0,2.0783,Basalt_rect,2,0,2,0,1
64123b4eef4c2344dfcd12f4,TCR,2024-06-10_14h12.35.220,LearnStrategy,2023.2.3,Win32,59.52380952,4,2,4,,,,,,,,1,03,,,,,,,,,,,1,5.355,1,,,,,,-0.398148148,-0.25462963,1,0,0,5.3553,Andesite_rect,3,0,3,0,1
64123b4eef4c2344dfcd12f4,TCR,2024-06-10_14h12.35.220,LearnStrategy,2023.2.3,Win32,59.52380952,4,2,5,,,,,,,,5,11,,,,,,,,,,,5,1.129,1,,,,,,-0.367592593,-0.397222222,1,0,0,1.1287,Obsidian_rect,4,0,4,0,1
64123b4eef4c2344dfcd12f4,TCR,2024-06-10_14h12.35.220,LearnStrategy,2023.2.3,Win32,59.52380952,4,2,6,,,,,,,,6,16,,,,,,,,,,,3,7.095,0,,,,,,0.141666667,-0.256481481,1,0,0,7.095,Diorite_rect,5,0,5,0,1
64123b4eef4c2344dfcd12f4,TCR,2024-06-10_14h12.35.220,LearnStrategy,2023.2.3,Win32,59.52380952,4,2,7,,,,,,,,8,08,,,,,,,,,,,8,1.559,1,,,,,,0.371296296,-0.401851852,1,0,0,1.5586,Pumice_rect,6,0,6,0,1
64123b4eef4c2344dfcd12f4,TCR,2024-06-10_14h12.35.220,LearnStrategy,2023.2.3,Win32,59.52380952,4,2,8,,,,,,,,1,10,,,,,,,,,,,8,1.077,0,,,,,,0.366666667,-0.401851852,1,0,0,1.077,Pumice_rect,7,0,7,0,1
64123b4eef4c2344dfcd12f4,TCR,2024-06-10_14h12.35.220,LearnStrategy,2023.2.3,Win32,59.52380952,4,2,9,,,,,,,,3,16,,,,,,,,,,,4,13.382,0,,,,,,0.421296296,-0.239814815,1,0,0,13.3823,Gabbro_rect,8,0,8,0,1
64123b4eef4c2344dfcd12f4,TCR,2024-06-10_14h12.35.220,LearnStrategy,2023.2.3,Win32,59.52380952,4,2,10,,,,,,,,3,11,,,,,,,,,,,4,2.694,0,,,,,,0.360185185,-0.236111111,1,0,0,2.6943,Gabbro_rect,9,0,9,0,1
64123b4eef4c2344dfcd12f4,TCR,2024-06-10_14h12.35.220,LearnStrategy,2023.2.3,Win32,59.52380952,4,2,11,,,,,,,,4,01,,,,,,,,,,,1,13.86,0,,,,,,-0.400925926,-0.25462963,1,0,0,13.8604,Andesite_rect,10,0,10,0,1
64123b4eef4c2344dfcd12f4,TCR,2024-06-10_14h12.35.220,LearnStrategy,2023.2.3,Win32,59.52380952,4,2,12,,,,,,,,7,07,,,,,,,,,,,7,6.378,1,,,,,,0.105555556,-0.408333333,1,0,0,6.3781,Peridotite_rect,11,0,11,0,1
64123b4eef4c2344dfcd12f4,TCR,2024-06-10_14h12.35.220,LearnStrategy,2023.2.3,Win32,59.52380952,4,2,13,,,,,,,,8,10,,,,,,,,,,,8,1.142,1,,,,,,0.373148148,-0.403703704,1,0,0,1.1418,Pumice_rect,12,0,12,0,1
64123b4eef4c2344dfcd12f4,TCR,2024-06-10_14h12.35.220,LearnStrategy,2023.2.3,Win32,59.52380952,4,2,14,,,,,,,,4,09,,,,,,,,,,,1,5.808,0,,,,,,-0.406481481,-0.261111111,1,0,0,5.8085,Andesite_rect,13,0,13,0,1
64123b4eef4c2344dfcd12f4,TCR,2024-06-10_14h12.35.220,LearnStrategy,2023.2.3,Win32,59.52380952,4,2,15,,,,,,,,2,06,,,,,,,,,,,2,2.428,1,,,,,,-0.137962963,-0.258333333,1,0,0,2.4284,Basalt_rect,14,0,14,0,1
64123b4eef4c2344dfcd12f4,TCR,2024-06-10_14h12.35.220,LearnStrategy,2023.2.3,Win32,59.52380952,4,2,16,,,,,,,,6,13,,,,,,,,,,,3,4.023,0,,,,,,0.101851852,-0.238888889,1,0,0,4.0234,Diorite_rect,15,0,15,0,1
64123b4eef4c2344dfcd12f4,TCR,2024-06-10_14h12.35.220,LearnStrategy,2023.2.3,Win32,59.52380952,5,1,1,0.00462963,-0.002777778,1,0,0,1.4647,rock_grid_rect_2,3,13,-1,-1,1.465,0.143518519,-0.239814815,1,0,0,4.8469,Diorite_rect,3,4.847,1,0,0,0,0,1,,,,,,,,,,,,
64123b4eef4c2344dfcd12f4,TCR,2024-06-10_14h12.35.220,LearnStrategy,2023.2.3,Win32,59.52380952,5,1,2,-0.074074074,-0.003703704,1,0,0,1.0481,rock_grid_rect_2,1,14,-1,-1,1.048,0.080555556,-0.385185185,1,0,0,24.3591,Peridotite_rect,7,24.359,0,1,0,1,0,1,,,,,,,,,,,,
64123b4eef4c2344dfcd12f4,TCR,2024-06-10_14h12.35.220,LearnStrategy,2023.2.3,Win32,59.52380952,5,1,3,0.012962963,-0.00462963,1,0,0,0.9234,rock_grid_rect_2,1,01,-1,-1,0.923,-0.399074074,-0.248148148,1,0,0,4.1278,Andesite_rect,1,4.128,1,2,0,2,0,1,,,,,,,,,,,,
64123b4eef4c2344dfcd12f4,TCR,2024-06-10_14h12.35.220,LearnStrategy,2023.2.3,Win32,59.52380952,5,1,4,-0.025,-0.000925926,1,0,0,0.9144,rock_grid_rect_2,3,10,-1,-1,0.914,0.393518519,-0.260185185,1,0,0,6.1438,Gabbro_rect,4,6.144,0,3,0,3,0,1,,,,,,,,,,,,
64123b4eef4c2344dfcd12f4,TCR,2024-06-10_14h12.35.220,LearnStrategy,2023.2.3,Win32,59.52380952,5,1,5,0.065740741,-0.013888889,1,0,0,0.9094,rock_grid_rect_2,4,16,-1,-1,0.909,0.35462963,-0.238888889,1,0,0,3.0105,Gabbro_rect,4,3.011,1,4,0,4,0,1,,,,,,,,,,,,
64123b4eef4c2344dfcd12f4,TCR,2024-06-10_14h12.35.220,LearnStrategy,2023.2.3,Win32,59.52380952,5,1,6,0.034259259,0,1,0,0,0.9819,rock_grid_rect_2,6,10,-1,-1,0.982,0.134259259,-0.400925926,1,0,0,7.5633,Peridotite_rect,7,7.563,0,5,0,5,0,1,,,,,,,,,,,,
64123b4eef4c2344dfcd12f4,TCR,2024-06-10_14h12.35.220,LearnStrategy,2023.2.3,Win32,59.52380952,5,1,7,0.075925926,-0.001851852,1,0,0,0.992,rock_grid_rect_2,1,11,-1,-1,0.992,-0.386111111,-0.242592593,1,0,0,5.3268,Andesite_rect,1,5.327,1,6,0,6,0,1,,,,,,,,,,,,
64123b4eef4c2344dfcd12f4,TCR,2024-06-10_14h12.35.220,LearnStrategy,2023.2.3,Win32,59.52380952,5,1,8,0.005555556,-0.001851852,1,0,0,0.9646,rock_grid_rect_2,7,16,-1,-1,0.965,0.113888889,-0.4,1,0,0,4.4604,Peridotite_rect,7,4.46,1,7,0,7,0,1,,,,,,,,,,,,
64123b4eef4c2344dfcd12f4,TCR,2024-06-10_14h12.35.220,LearnStrategy,2023.2.3,Win32,59.52380952,5,1,9,0.034259259,0.002777778,1,0,0,0.8319,rock_grid_rect_2,7,02,-1,-1,0.832,0.132407407,-0.399074074,1,0,0,6.9974,Peridotite_rect,7,6.997,1,8,0,8,0,1,,,,,,,,,,,,
64123b4eef4c2344dfcd12f4,TCR,2024-06-10_14h12.35.220,LearnStrategy,2023.2.3,Win32,59.52380952,5,1,10,0.013888889,0.002777778,1,0,0,0.9745,rock_grid_rect_2,2,11,-1,-1,0.975,0.393518519,-0.397222222,1,0,0,1.9102,Pumice_rect,8,1.91,0,9,0,9,0,1,,,,,,,,,,,,
64123b4eef4c2344dfcd12f4,TCR,2024-06-10_14h12.35.220,LearnStrategy,2023.2.3,Win32,59.52380952,5,1,11,-0.031481481,-0.009259259,1,0,0,1.0989,rock_grid_rect_2,3,07,-1,-1,1.099,0.112962963,-0.262037037,1,0,0,3.6125,Diorite_rect,3,3.612,1,10,0,10,0,1,,,,,,,,,,,,
64123b4eef4c2344dfcd12f4,TCR,2024-06-10_14h12.35.220,LearnStrategy,2023.2.3,Win32,59.52380952,5,1,12,-0.041666667,-0.006481481,1,0,0,1.0657,rock_grid_rect_2,6,15,-1,-1,1.066,-0.098148148,-0.400925926,1,0,0,2.8113,Pegmatite_rect,6,2.811,1,11,0,11,0,1,,,,,,,,,,,,
64123b4eef4c2344dfcd12f4,TCR,2024-06-10_14h12.35.220,LearnStrategy,2023.2.3,Win32,59.52380952,5,1,13,-0.025925926,-0.002777778,1,0,0,0.8648,rock_grid_rect_2,4,05,-1,-1,0.865,0.358333333,-0.25462963,1,0,0,6.795,Gabbro_rect,4,6.795,1,12,0,12,0,1,,,,,,,,,,,,
64123b4eef4c2344dfcd12f4,TCR,2024-06-10_14h12.35.220,LearnStrategy,2023.2.3,Win32,59.52380952,5,1,14,0.049074074,-0.006481481,1,0,0,0.8642,rock_grid_rect_2,8,14,-1,-1,0.864,0.376851852,-0.406481481,1,0,0,1.5767,Pumice_rect,8,1.577,1,13,0,13,0,1,,,,,,,,,,,,
64123b4eef4c2344dfcd12f4,TCR,2024-06-10_14h12.35.220,LearnStrategy,2023.2.3,Win32,59.52380952,5,1,15,0.024074074,-0.006481481,1,0,0,1.0156,rock_grid_rect_2,4,13,-1,-1,1.016,0.374074074,-0.265740741,1,0,0,7.1022,Gabbro_rect,4,7.102,1,14,0,14,0,1,,,,,,,,,,,,
64123b4eef4c2344dfcd12f4,TCR,2024-06-10_14h12.35.220,LearnStrategy,2023.2.3,Win32,59.52380952,5,1,16,0.021296296,-0.005555556,1,0,0,1.0652,rock_grid_rect_2,4,05,-1,-1,1.065,0.392592593,-0.250925926,1,0,0,2.2782,Gabbro_rect,4,2.278,1,15,0,15,0,1,,,,,,,,,,,,
64123b4eef4c2344dfcd12f4,TCR,2024-06-10_14h12.35.220,LearnStrategy,2023.2.3,Win32,59.52380952,5,2,1,,,,,,,,3,09,,,,,,,,,,,3,3.042,1,,,,,,0.12037037,-0.253703704,1,0,0,3.0416,Diorite_rect,0,0,0,0,1
64123b4eef4c2344dfcd12f4,TCR,2024-06-10_14h12.35.220,LearnStrategy,2023.2.3,Win32,59.52380952,5,2,2,,,,,,,,5,16,,,,,,,,,,,5,1.161,1,,,,,,-0.410185185,-0.388888889,1,0,0,1.1615,Obsidian_rect,1,0,1,0,1
64123b4eef4c2344dfcd12f4,TCR,2024-06-10_14h12.35.220,LearnStrategy,2023.2.3,Win32,59.52380952,5,2,3,,,,,,,,6,03,,,,,,,,,,,6,4.345,1,,,,,,-0.136111111,-0.386111111,1,0,0,4.3449,Pegmatite_rect,2,0,2,0,1
64123b4eef4c2344dfcd12f4,TCR,2024-06-10_14h12.35.220,LearnStrategy,2023.2.3,Win32,59.52380952,5,2,4,,,,,,,,1,05,,,,,,,,,,,1,13.478,1,,,,,,-0.355555556,-0.25462963,1,0,0,13.4782,Andesite_rect,3,0,3,0,1
64123b4eef4c2344dfcd12f4,TCR,2024-06-10_14h12.35.220,LearnStrategy,2023.2.3,Win32,59.52380952,5,2,5,,,,,,,,8,06,,,,,,,,,,,8,2.641,1,,,,,,0.375925926,-0.385185185,1,0,0,2.6414,Pumice_rect,4,0,4,0,1
64123b4eef4c2344dfcd12f4,TCR,2024-06-10_14h12.35.220,LearnStrategy,2023.2.3,Win32,59.52380952,5,2,6,,,,,,,,4,12,,,,,,,,,,,4,8.706,1,,,,,,0.328703704,-0.261111111,1,0,0,8.7062,Gabbro_rect,5,0,5,0,1
64123b4eef4c2344dfcd12f4,TCR,2024-06-10_14h12.35.220,LearnStrategy,2023.2.3,Win32,59.52380952,5,2,7,,,,,,,,1,09,,,,,,,,,,,1,5.712,1,,,,,,-0.39537037,-0.251851852,1,0,0,5.7117,Andesite_rect,6,0,6,0,1
64123b4eef4c2344dfcd12f4,TCR,2024-06-10_14h12.35.220,LearnStrategy,2023.2.3,Win32,59.52380952,5,2,8,,,,,,,,7,10,,,,,,,,,,,7,3.945,1,,,,,,0.087962963,-0.400925926,1,0,0,3.9447,Peridotite_rect,7,0,7,0,1
64123b4eef4c2344dfcd12f4,TCR,2024-06-10_14h12.35.220,LearnStrategy,2023.2.3,Win32,59.52380952,5,2,9,,,,,,,,3,14,,,,,,,,,,,3,5.242,1,,,,,,0.116666667,-0.248148148,1,0,0,5.2417,Diorite_rect,8,0,8,0,1
64123b4eef4c2344dfcd12f4,TCR,2024-06-10_14h12.35.220,LearnStrategy,2023.2.3,Win32,59.52380952,5,2,10,,,,,,,,2,10,,,,,,,,,,,2,2.141,1,,,,,,-0.161111111,-0.243518519,1,0,0,2.1413,Basalt_rect,9,0,9,0,1
64123b4eef4c2344dfcd12f4,TCR,2024-06-10_14h12.35.220,LearnStrategy,2023.2.3,Win32,59.52380952,5,2,11,,,,,,,,6,09,,,,,,,,,,,7,9.69,0,,,,,,0.114814815,-0.389814815,1,0,0,9.6898,Peridotite_rect,10,0,10,0,1
64123b4eef4c2344dfcd12f4,TCR,2024-06-10_14h12.35.220,LearnStrategy,2023.2.3,Win32,59.52380952,5,2,12,,,,,,,,8,02,,,,,,,,,,,8,1.444,1,,,,,,0.352777778,-0.389814815,1,0,0,1.4442,Pumice_rect,11,0,11,0,1
64123b4eef4c2344dfcd12f4,TCR,2024-06-10_14h12.35.220,LearnStrategy,2023.2.3,Win32,59.52380952,5,2,13,,,,,,,,5,09,,,,,,,,,,,5,1.278,1,,,,,,-0.416666667,-0.388888889,1,0,0,1.2781,Obsidian_rect,12,0,12,0,1
64123b4eef4c2344dfcd12f4,TCR,2024-06-10_14h12.35.220,LearnStrategy,2023.2.3,Win32,59.52380952,5,2,14,,,,,,,,4,11,,,,,,,,,,,1,11.479,0,,,,,,-0.361111111,-0.253703704,1,0,0,11.4786,Andesite_rect,13,0,13,0,1
64123b4eef4c2344dfcd12f4,TCR,2024-06-10_14h12.35.220,LearnStrategy,2023.2.3,Win32,59.52380952,5,2,15,,,,,,,,2,16,,,,,,,,,,,4,3.493,0,,,,,,0.346296296,-0.251851852,1,0,0,3.4928,Gabbro_rect,14,0,14,0,1
64123b4eef4c2344dfcd12f4,TCR,2024-06-10_14h12.35.220,LearnStrategy,2023.2.3,Win32,59.52380952,5,2,16,,,,,,,,7,04,,,,,,,,,,,4,8.626,0,,,,,,0.375,-0.253703704,1,0,0,8.6259,Gabbro_rect,15,0,15,0,1
64123b4eef4c2344dfcd12f4,TCR,2024-06-10_14h12.35.220,LearnStrategy,2023.2.3,Win32,59.52380952,6,1,1,0.102777778,0.007407407,1,0,0,1.1316,rock_grid_rect_2,4,05,-1,-1,1.132,0.4,-0.247222222,1,0,0,3.5109,Gabbro_rect,4,3.511,1,0,0,0,0,1,,,,,,,,,,,,
64123b4eef4c2344dfcd12f4,TCR,2024-06-10_14h12.35.220,LearnStrategy,2023.2.3,Win32,59.52380952,6,1,2,0.038888889,-0.00462963,1,0,0,1.2978,rock_grid_rect_2,2,08,-1,-1,1.298,-0.147222222,-0.261111111,1,0,0,3.1958,Basalt_rect,2,3.196,1,1,0,1,0,1,,,,,,,,,,,,
64123b4eef4c2344dfcd12f4,TCR,2024-06-10_14h12.35.220,LearnStrategy,2023.2.3,Win32,59.52380952,6,1,3,0.018518519,0.006481481,1,0,0,0.7325,rock_grid_rect_2,4,16,-1,-1,0.733,0.39537037,-0.24537037,1,0,0,1.563,Gabbro_rect,4,1.563,1,2,0,2,0,1,,,,,,,,,,,,
64123b4eef4c2344dfcd12f4,TCR,2024-06-10_14h12.35.220,LearnStrategy,2023.2.3,Win32,59.52380952,6,1,4,0.015740741,0.000925926,1,0,0,0.8491,rock_grid_rect_2,6,12,-1,-1,0.849,-0.125925926,-0.39537037,1,0,0,1.8105,Pegmatite_rect,6,1.81,1,3,0,3,0,1,,,,,,,,,,,,
64123b4eef4c2344dfcd12f4,TCR,2024-06-10_14h12.35.220,LearnStrategy,2023.2.3,Win32,59.52380952,6,1,5,-0.012037037,-0.000925926,1,0,0,0.8823,rock_grid_rect_2,4,15,-1,-1,0.882,0.171296296,-0.255555556,1,0,0,6.1936,Diorite_rect,3,6.194,0,4,0,4,0,1,,,,,,,,,,,,
64123b4eef4c2344dfcd12f4,TCR,2024-06-10_14h12.35.220,LearnStrategy,2023.2.3,Win32,59.52380952,6,1,6,-0.031481481,-0.000925926,1,0,0,0.7976,rock_grid_rect_2,3,07,-1,-1,0.798,0.112037037,-0.249074074,1,0,0,3.1107,Diorite_rect,3,3.111,1,5,0,5,0,1,,,,,,,,,,,,
64123b4eef4c2344dfcd12f4,TCR,2024-06-10_14h12.35.220,LearnStrategy,2023.2.3,Win32,59.52380952,6,1,7,-0.011111111,0.012962963,1,0,0,0.7141,rock_grid_rect_2,4,05,-1,-1,0.714,0.390740741,-0.263888889,1,0,0,3.0119,Gabbro_rect,4,3.012,1,6,0,6,0,1,,,,,,,,,,,,
64123b4eef4c2344dfcd12f4,TCR,2024-06-10_14h12.35.220,LearnStrategy,2023.2.3,Win32,59.52380952,6,1,8,0.042592593,-0.00462963,1,0,0,0.8805,rock_grid_rect_2,2,05,-1,-1,0.88,-0.158333333,-0.249074074,1,0,0,1.5616,Basalt_rect,2,1.562,1,7,0,7,0,1,,,,,,,,,,,,
64123b4eef4c2344dfcd12f4,TCR,2024-06-10_14h12.35.220,LearnStrategy,2023.2.3,Win32,59.52380952,6,1,9,0.007407407,-0.001851852,1,0,0,0.8487,rock_grid_rect_2,7,16,-1,-1,0.849,0.132407407,-0.391666667,1,0,0,1.8097,Peridotite_rect,7,1.81,1,8,0,8,0,1,,,,,,,,,,,,
64123b4eef4c2344dfcd12f4,TCR,2024-06-10_14h12.35.220,LearnStrategy,2023.2.3,Win32,59.52380952,6,1,10,-0.001851852,0.007407407,1,0,0,0.849,rock_grid_rect_2,8,05,-1,-1,0.849,0.389814815,-0.389814815,1,0,0,1.5456,Pumice_rect,8,1.546,1,9,0,9,0,1,,,,,,,,,,,,
64123b4eef4c2344dfcd12f4,TCR,2024-06-10_14h12.35.220,LearnStrategy,2023.2.3,Win32,59.52380952,6,1,11,-0.010185185,-0.003703704,1,0,0,0.7319,rock_grid_rect_2,6,10,-1,-1,0.732,0.087962963,-0.412037037,1,0,0,3.9591,Peridotite_rect,7,3.959,0,10,0,10,0,1,,,,,,,,,,,,
64123b4eef4c2344dfcd12f4,TCR,2024-06-10_14h12.35.220,LearnStrategy,2023.2.3,Win32,59.52380952,6,1,12,0.02037037,-0.00462963,1,0,0,0.8085,rock_grid_rect_2,6,12,-1,-1,0.808,-0.100925926,-0.388888889,1,0,0,4.1941,Pegmatite_rect,6,4.194,1,11,0,11,0,1,,,,,,,,,,,,
64123b4eef4c2344dfcd12f4,TCR,2024-06-10_14h12.35.220,LearnStrategy,2023.2.3,Win32,59.52380952,6,1,13,-0.001851852,-0.000925926,1,0,0,0.6826,rock_grid_rect_2,3,07,-1,-1,0.683,0.112037037,-0.244444444,1,0,0,3.0427,Diorite_rect,3,3.043,1,12,0,12,0,1,,,,,,,,,,,,
64123b4eef4c2344dfcd12f4,TCR,2024-06-10_14h12.35.220,LearnStrategy,2023.2.3,Win32,59.52380952,6,1,14,-0.002777778,-0.00462963,1,0,0,0.8137,rock_grid_rect_2,1,16,-1,-1,0.814,-0.330555556,-0.247222222,1,0,0,6.5791,Andesite_rect,1,6.579,1,13,0,13,0,1,,,,,,,,,,,,
64123b4eef4c2344dfcd12f4,TCR,2024-06-10_14h12.35.220,LearnStrategy,2023.2.3,Win32,59.52380952,6,1,15,0.015740741,-0.010185185,1,0,0,0.8323,rock_grid_rect_2,7,05,-1,-1,0.832,0.153703704,-0.42037037,1,0,0,11.3114,Peridotite_rect,7,11.311,1,14,0,14,0,1,,,,,,,,,,,,
64123b4eef4c2344dfcd12f4,TCR,2024-06-10_14h12.35.220,LearnStrategy,2023.2.3,Win32,59.52380952,6,1,16,0.074074074,0.006481481,1,0,0,0.7152,rock_grid_rect_2,7,08,-1,-1,0.715,0.114814815,-0.391666667,1,0,0,1.8279,Peridotite_rect,7,1.828,1,15,0,15,0,1,,,,,,,,,,,,
64123b4eef4c2344dfcd12f4,TCR,2024-06-10_14h12.35.220,LearnStrategy,2023.2.3,Win32,59.52380952,6,2,1,,,,,,,,6,06,,,,,,,,,,,6,6.359,1,,,,,,-0.087962963,-0.392592593,1,0,0,6.3589,Pegmatite_rect,0,0,0,0,1
64123b4eef4c2344dfcd12f4,TCR,2024-06-10_14h12.35.220,LearnStrategy,2023.2.3,Win32,59.52380952,6,2,2,,,,,,,,3,12,,,,,,,,,,,3,3.178,1,,,,,,0.128703704,-0.235185185,1,0,0,3.1779,Diorite_rect,1,0,1,0,1
64123b4eef4c2344dfcd12f4,TCR,2024-06-10_14h12.35.220,LearnStrategy,2023.2.3,Win32,59.52380952,6,2,3,,,,,,,,6,05,,,,,,,,,,,6,31.509,1,,,,,,-0.130555556,-0.415740741,1,0,0,31.5089,Pegmatite_rect,2,0,2,0,1
64123b4eef4c2344dfcd12f4,TCR,2024-06-10_14h12.35.220,LearnStrategy,2023.2.3,Win32,59.52380952,6,2,4,,,,,,,,1,07,,,,,,,,,,,1,14.795,1,,,,,,-0.368518519,-0.250925926,1,0,0,14.7951,Andesite_rect,3,0,3,0,1
64123b4eef4c2344dfcd12f4,TCR,2024-06-10_14h12.35.220,LearnStrategy,2023.2.3,Win32,59.52380952,6,2,5,,,,,,,,7,14,,,,,,,,,,,7,2.178,1,,,,,,0.127777778,-0.403703704,1,0,0,2.1775,Peridotite_rect,4,0,4,0,1
64123b4eef4c2344dfcd12f4,TCR,2024-06-10_14h12.35.220,LearnStrategy,2023.2.3,Win32,59.52380952,6,2,6,,,,,,,,1,02,,,,,,,,,,,3,3.842,0,,,,,,0.112962963,-0.255555556,1,0,0,3.8425,Diorite_rect,5,0,5,0,1
64123b4eef4c2344dfcd12f4,TCR,2024-06-10_14h12.35.220,LearnStrategy,2023.2.3,Win32,59.52380952,6,2,7,,,,,,,,3,02,,,,,,,,,,,4,9.542,0,,,,,,0.37037037,-0.262037037,1,0,0,9.5422,Gabbro_rect,6,0,6,0,1
64123b4eef4c2344dfcd12f4,TCR,2024-06-10_14h12.35.220,LearnStrategy,2023.2.3,Win32,59.52380952,6,2,8,,,,,,,,7,13,,,,,,,,,,,7,1.323,1,,,,,,0.149074074,-0.403703704,1,0,0,1.3231,Peridotite_rect,7,0,7,0,1
64123b4eef4c2344dfcd12f4,TCR,2024-06-10_14h12.35.220,LearnStrategy,2023.2.3,Win32,59.52380952,6,2,9,,,,,,,,2,01,,,,,,,,,,,2,1.193,1,,,,,,-0.121296296,-0.247222222,1,0,0,1.1934,Basalt_rect,8,0,8,0,1
64123b4eef4c2344dfcd12f4,TCR,2024-06-10_14h12.35.220,LearnStrategy,2023.2.3,Win32,59.52380952,6,2,10,,,,,,,,8,04,,,,,,,,,,,2,6.112,0,,,,,,-0.113888889,-0.257407407,1,0,0,6.1117,Basalt_rect,9,0,9,0,1
64123b4eef4c2344dfcd12f4,TCR,2024-06-10_14h12.35.220,LearnStrategy,2023.2.3,Win32,59.52380952,6,2,11,,,,,,,,5,04,,,,,,,,,,,5,1.078,1,,,,,,-0.396296296,-0.39537037,1,0,0,1.0781,Obsidian_rect,10,0,10,0,1
64123b4eef4c2344dfcd12f4,TCR,2024-06-10_14h12.35.220,LearnStrategy,2023.2.3,Win32,59.52380952,6,2,12,,,,,,,,2,12,,,,,,,,,,,2,2.143,1,,,,,,-0.176851852,-0.238888889,1,0,0,2.1428,Basalt_rect,11,0,11,0,1
64123b4eef4c2344dfcd12f4,TCR,2024-06-10_14h12.35.220,LearnStrategy,2023.2.3,Win32,59.52380952,6,2,13,,,,,,,,8,16,,,,,,,,,,,8,1.41,1,,,,,,0.37962963,-0.409259259,1,0,0,1.4101,Pumice_rect,12,0,12,0,1
64123b4eef4c2344dfcd12f4,TCR,2024-06-10_14h12.35.220,LearnStrategy,2023.2.3,Win32,59.52380952,6,2,14,,,,,,,,4,08,,,,,,,,,,,4,2.328,1,,,,,,0.351851852,-0.248148148,1,0,0,2.3283,Gabbro_rect,13,0,13,0,1
64123b4eef4c2344dfcd12f4,TCR,2024-06-10_14h12.35.220,LearnStrategy,2023.2.3,Win32,59.52380952,6,2,15,,,,,,,,5,06,,,,,,,,,,,5,1.173,1,,,,,,-0.374074074,-0.4,1,0,0,1.1727,Obsidian_rect,14,0,14,0,1
64123b4eef4c2344dfcd12f4,TCR,2024-06-10_14h12.35.220,LearnStrategy,2023.2.3,Win32,59.52380952,6,2,16,,,,,,,,4,14,,,,,,,,,,,4,2.329,1,,,,,,0.412962963,-0.25462963,1,0,0,2.3286,Gabbro_rect,15,0,15,0,1
64123b4eef4c2344dfcd12f4,TCR,2024-06-10_14h12.35.220,LearnStrategy,2023.2.3,Win32,59.52380952,7,1,1,0.081481481,-0.001851852,1,0,0,1.2322,rock_grid_rect_2,7,12,-1,-1,1.232,0.090740741,-0.40462963,1,0,0,2.2455,Peridotite_rect,7,2.245,1,0,0,0,0,1,,,,,,,,,,,,
64123b4eef4c2344dfcd12f4,TCR,2024-06-10_14h12.35.220,LearnStrategy,2023.2.3,Win32,59.52380952,7,1,2,-0.003703704,-0.007407407,1,0,0,0.9316,rock_grid_rect_2,3,07,-1,-1,0.932,0.109259259,-0.247222222,1,0,0,4.8954,Diorite_rect,3,4.895,1,1,0,1,0,1,,,,,,,,,,,,
64123b4eef4c2344dfcd12f4,TCR,2024-06-10_14h12.35.220,LearnStrategy,2023.2.3,Win32,59.52380952,7,1,3,0.02037037,-0.010185185,1,0,0,0.9649,rock_grid_rect_2,8,03,-1,-1,0.965,0.360185185,-0.387962963,1,0,0,1.3606,Pumice_rect,8,1.361,1,2,0,2,0,1,,,,,,,,,,,,
64123b4eef4c2344dfcd12f4,TCR,2024-06-10_14h12.35.220,LearnStrategy,2023.2.3,Win32,59.52380952,7,1,4,-0.000925926,0.003703704,1,0,0,0.7825,rock_grid_rect_2,6,10,-1,-1,0.783,-0.117592593,-0.4,1,0,0,3.7611,Pegmatite_rect,6,3.761,1,3,0,3,0,1,,,,,,,,,,,,
64123b4eef4c2344dfcd12f4,TCR,2024-06-10_14h12.35.220,LearnStrategy,2023.2.3,Win32,59.52380952,7,1,5,0,-0.009259259,1,0,0,0.7967,rock_grid_rect_2,1,06,-1,-1,0.797,-0.378703704,-0.24537037,1,0,0,4.0949,Andesite_rect,1,4.095,1,4,0,4,0,1,,,,,,,,,,,,
64123b4eef4c2344dfcd12f4,TCR,2024-06-10_14h12.35.220,LearnStrategy,2023.2.3,Win32,59.52380952,7,1,6,0.012962963,-0.003703704,1,0,0,0.8816,rock_grid_rect_2,2,14,-1,-1,0.882,0.411111111,-0.263888889,1,0,0,1.212,Gabbro_rect,4,1.212,0,5,0,5,0,1,,,,,,,,,,,,
64123b4eef4c2344dfcd12f4,TCR,2024-06-10_14h12.35.220,LearnStrategy,2023.2.3,Win32,59.52380952,7,1,7,0.019444444,-0.001851852,1,0,0,4.0654,rock_grid_rect_2,4,03,-1,-1,4.065,0.361111111,-0.247222222,1,0,0,1.5939,Gabbro_rect,4,1.594,1,6,0,6,0,1,,,,,,,,,,,,
64123b4eef4c2344dfcd12f4,TCR,2024-06-10_14h12.35.220,LearnStrategy,2023.2.3,Win32,59.52380952,7,1,8,0.040740741,-0.018518519,1,0,0,0.965,rock_grid_rect_2,3,06,-1,-1,0.965,0.425,-0.243518519,1,0,0,12.0432,Gabbro_rect,4,12.043,0,7,0,7,0,1,,,,,,,,,,,,
64123b4eef4c2344dfcd12f4,TCR,2024-06-10_14h12.35.220,LearnStrategy,2023.2.3,Win32,59.52380952,7,1,9,0.041666667,0.012037037,1,0,0,1.0104,rock_grid_rect_2,4,10,-1,-1,1.01,0.415740741,-0.260185185,1,0,0,14.1594,Gabbro_rect,4,14.159,1,8,0,8,0,1,,,,,,,,,,,,
64123b4eef4c2344dfcd12f4,TCR,2024-06-10_14h12.35.220,LearnStrategy,2023.2.3,Win32,59.52380952,7,1,10,0.018518519,-0.016666667,1,0,0,0.9652,rock_grid_rect_2,7,08,-1,-1,0.965,0.112962963,-0.388888889,1,0,0,1.4279,Peridotite_rect,7,1.428,1,9,0,9,0,1,,,,,,,,,,,,
64123b4eef4c2344dfcd12f4,TCR,2024-06-10_14h12.35.220,LearnStrategy,2023.2.3,Win32,59.52380952,7,1,11,-0.016666667,-0.002777778,1,0,0,0.7654,rock_grid_rect_2,6,10,-1,-1,0.765,-0.136111111,-0.390740741,1,0,0,2.8621,Pegmatite_rect,6,2.862,1,10,0,10,0,1,,,,,,,,,,,,
64123b4eef4c2344dfcd12f4,TCR,2024-06-10_14h12.35.220,LearnStrategy,2023.2.3,Win32,59.52380952,7,1,12,0.000925926,-0.006481481,1,0,0,0.799,rock_grid_rect_2,2,14,-1,-1,0.799,0.378703704,-0.25,1,0,0,2.495,Gabbro_rect,4,2.495,0,11,0,11,0,1,,,,,,,,,,,,
64123b4eef4c2344dfcd12f4,TCR,2024-06-10_14h12.35.220,LearnStrategy,2023.2.3,Win32,59.52380952,7,1,13,-0.036111111,0.000925926,1,0,0,1.0251,rock_grid_rect_2,3,13,-1,-1,1.025,0.125,-0.263888889,1,0,0,5.1452,Diorite_rect,3,5.145,1,12,0,12,0,1,,,,,,,,,,,,
64123b4eef4c2344dfcd12f4,TCR,2024-06-10_14h12.35.220,LearnStrategy,2023.2.3,Win32,59.52380952,7,1,14,0,-0.009259259,1,0,0,0.7659,rock_grid_rect_2,5,08,-1,-1,0.766,-0.364814815,-0.39537037,1,0,0,1.1268,Obsidian_rect,5,1.127,1,13,0,13,0,1,,,,,,,,,,,,
64123b4eef4c2344dfcd12f4,TCR,2024-06-10_14h12.35.220,LearnStrategy,2023.2.3,Win32,59.52380952,7,1,15,0.032407407,0.006481481,1,0,0,0.6992,rock_grid_rect_2,8,09,-1,-1,0.699,0.363888889,-0.388888889,1,0,0,1.5768,Pumice_rect,8,1.577,1,14,0,14,0,1,,,,,,,,,,,,
64123b4eef4c2344dfcd12f4,TCR,2024-06-10_14h12.35.220,LearnStrategy,2023.2.3,Win32,59.52380952,7,1,16,0.011111111,-0.011111111,1,0,0,0.9485,rock_grid_rect_2,4,16,-1,-1,0.948,0.385185185,-0.264814815,1,0,0,1.3612,Gabbro_rect,4,1.361,1,15,0,15,0,1,,,,,,,,,,,,
64123b4eef4c2344dfcd12f4,TCR,2024-06-10_14h12.35.220,LearnStrategy,2023.2.3,Win32,59.52380952,7,2,1,,,,,,,,6,06,,,,,,,,,,,6,5.409,1,,,,,,-0.099074074,-0.402777778,1,0,0,5.4087,Pegmatite_rect,0,0,0,0,1
64123b4eef4c2344dfcd12f4,TCR,2024-06-10_14h12.35.220,LearnStrategy,2023.2.3,Win32,59.52380952,7,2,2,,,,,,,,3,11,,,,,,,,,,,3,5.612,1,,,,,,0.112962963,-0.25,1,0,0,5.6118,Diorite_rect,1,0,1,0,1
64123b4eef4c2344dfcd12f4,TCR,2024-06-10_14h12.35.220,LearnStrategy,2023.2.3,Win32,59.52380952,7,2,3,,,,,,,,1,02,,,,,,,,,,,3,4.211,0,,,,,,0.106481481,-0.24537037,1,0,0,4.2111,Diorite_rect,2,0,2,0,1
64123b4eef4c2344dfcd12f4,TCR,2024-06-10_14h12.35.220,LearnStrategy,2023.2.3,Win32,59.52380952,7,2,4,,,,,,,,5,04,,,,,,,,,,,5,1.043,1,,,,,,-0.352777778,-0.390740741,1,0,0,1.0425,Obsidian_rect,3,0,3,0,1
64123b4eef4c2344dfcd12f4,TCR,2024-06-10_14h12.35.220,LearnStrategy,2023.2.3,Win32,59.52380952,7,2,5,,,,,,,,6,13,,,,,,,,,,,3,4.012,0,,,,,,0.135185185,-0.255555556,1,0,0,4.0117,Diorite_rect,4,0,4,0,1
64123b4eef4c2344dfcd12f4,TCR,2024-06-10_14h12.35.220,LearnStrategy,2023.2.3,Win32,59.52380952,7,2,6,,,,,,,,7,14,,,,,,,,,,,7,7.942,1,,,,,,0.100925926,-0.403703704,1,0,0,7.9424,Peridotite_rect,5,0,5,0,1
64123b4eef4c2344dfcd12f4,TCR,2024-06-10_14h12.35.220,LearnStrategy,2023.2.3,Win32,59.52380952,7,2,7,,,,,,,,5,14,,,,,,,,,,,5,0.994,1,,,,,,-0.394444444,-0.392592593,1,0,0,0.9935,Obsidian_rect,6,0,6,0,1
64123b4eef4c2344dfcd12f4,TCR,2024-06-10_14h12.35.220,LearnStrategy,2023.2.3,Win32,59.52380952,7,2,8,,,,,,,,8,06,,,,,,,,,,,8,1.195,1,,,,,,0.366666667,-0.403703704,1,0,0,1.1947,Pumice_rect,7,0,7,0,1
64123b4eef4c2344dfcd12f4,TCR,2024-06-10_14h12.35.220,LearnStrategy,2023.2.3,Win32,59.52380952,7,2,9,,,,,,,,8,04,,,,,,,,,,,8,1.542,1,,,,,,0.364814815,-0.39537037,1,0,0,1.5419,Pumice_rect,8,0,8,0,1
64123b4eef4c2344dfcd12f4,TCR,2024-06-10_14h12.35.220,LearnStrategy,2023.2.3,Win32,59.52380952,7,2,10,,,,,,,,7,10,,,,,,,,,,,7,1.26,1,,,,,,0.152777778,-0.391666667,1,0,0,1.2605,Peridotite_rect,9,0,9,0,1
64123b4eef4c2344dfcd12f4,TCR,2024-06-10_14h12.35.220,LearnStrategy,2023.2.3,Win32,59.52380952,7,2,11,,,,,,,,3,16,,,,,,,,,,,3,16.795,1,,,,,,0.134259259,-0.242592593,1,0,0,16.7954,Diorite_rect,10,0,10,0,1
64123b4eef4c2344dfcd12f4,TCR,2024-06-10_14h12.35.220,LearnStrategy,2023.2.3,Win32,59.52380952,7,2,12,,,,,,,,4,11,,,,,,,,,,,2,6.093,0,,,,,,-0.125925926,-0.267592593,1,0,0,6.0933,Basalt_rect,11,0,11,0,1
64123b4eef4c2344dfcd12f4,TCR,2024-06-10_14h12.35.220,LearnStrategy,2023.2.3,Win32,59.52380952,7,2,13,,,,,,,,2,16,,,,,,,,,,,4,1.392,0,,,,,,0.392592593,-0.261111111,1,0,0,1.3918,Gabbro_rect,12,0,12,0,1
64123b4eef4c2344dfcd12f4,TCR,2024-06-10_14h12.35.220,LearnStrategy,2023.2.3,Win32,59.52380952,7,2,14,,,,,,,,4,09,,,,,,,,,,,1,5.495,0,,,,,,-0.369444444,-0.241666667,1,0,0,5.4949,Andesite_rect,13,0,13,0,1
64123b4eef4c2344dfcd12f4,TCR,2024-06-10_14h12.35.220,LearnStrategy,2023.2.3,Win32,59.52380952,7,2,15,,,,,,,,1,05,,,,,,,,,,,1,22.979,1,,,,,,-0.376851852,-0.22962963,1,0,0,22.9791,Andesite_rect,14,0,14,0,1
64123b4eef4c2344dfcd12f4,TCR,2024-06-10_14h12.35.220,LearnStrategy,2023.2.3,Win32,59.52380952,7,2,16,,,,,,,,2,06,,,,,,,,,,,2,1.278,1,,,,,,-0.125,-0.242592593,1,0,0,1.2778,Basalt_rect,15,0,15,0,1
64123b4eef4c2344dfcd12f4,TCR,2024-06-10_14h12.35.220,LearnStrategy,2023.2.3,Win32,59.52380952,8,1,1,0.114814815,-0.006481481,1,0,0,1.2644,rock_grid_rect_2,1,04,-1,-1,1.264,0.121296296,-0.255555556,1,0,0,2.8287,Diorite_rect,3,2.829,0,0,0,0,0,1,,,,,,,,,,,,
64123b4eef4c2344dfcd12f4,TCR,2024-06-10_14h12.35.220,LearnStrategy,2023.2.3,Win32,59.52380952,8,1,2,0.031481481,0.009259259,1,0,0,1.0732,rock_grid_rect_2,1,11,-1,-1,1.073,-0.353703704,-0.240740741,1,0,0,9.2801,Andesite_rect,1,9.28,1,1,0,1,0,1,,,,,,,,,,,,
64123b4eef4c2344dfcd12f4,TCR,2024-06-10_14h12.35.220,LearnStrategy,2023.2.3,Win32,59.52380952,8,1,3,0.022222222,-0.000925926,1,0,0,0.7643,rock_grid_rect_2,3,10,-1,-1,0.764,0.112962963,-0.397222222,1,0,0,5.8278,Peridotite_rect,7,5.828,0,2,0,2,0,1,,,,,,,,,,,,
64123b4eef4c2344dfcd12f4,TCR,2024-06-10_14h12.35.220,LearnStrategy,2023.2.3,Win32,59.52380952,8,1,4,0.012962963,-0.00462963,1,0,0,0.8101,rock_grid_rect_2,8,09,-1,-1,0.81,0.400925926,-0.391666667,1,0,0,1.1945,Pumice_rect,8,1.195,1,3,0,3,0,1,,,,,,,,,,,,
64123b4eef4c2344dfcd12f4,TCR,2024-06-10_14h12.35.220,LearnStrategy,2023.2.3,Win32,59.52380952,8,1,5,-0.007407407,-0.000925926,1,0,0,0.7822,rock_grid_rect_2,4,16,-1,-1,0.782,0.378703704,-0.233333333,1,0,0,2.9285,Gabbro_rect,4,2.928,1,4,0,4,0,1,,,,,,,,,,,,
64123b4eef4c2344dfcd12f4,TCR,2024-06-10_14h12.35.220,LearnStrategy,2023.2.3,Win32,59.52380952,8,1,6,0.026851852,-0.001851852,1,0,0,0.798,rock_grid_rect_2,4,10,-1,-1,0.798,-0.368518519,-0.230555556,1,0,0,9.4951,Andesite_rect,1,9.495,0,5,0,5,0,1,,,,,,,,,,,,
64123b4eef4c2344dfcd12f4,TCR,2024-06-10_14h12.35.220,LearnStrategy,2023.2.3,Win32,59.52380952,8,1,7,0.066666667,0,1,0,0,0.8981,rock_grid_rect_2,4,05,-1,-1,0.898,0.090740741,-0.397222222,1,0,0,2.1782,Peridotite_rect,7,2.178,0,6,0,6,0,1,,,,,,,,,,,,
64123b4eef4c2344dfcd12f4,TCR,2024-06-10_14h12.35.220,LearnStrategy,2023.2.3,Win32,59.52380952,8,1,8,-0.00462963,-0.006481481,1,0,0,0.7478,rock_grid_rect_2,5,05,-1,-1,0.748,-0.359259259,-0.386111111,1,0,0,1.7788,Obsidian_rect,5,1.779,1,7,0,7,0,1,,,,,,,,,,,,
64123b4eef4c2344dfcd12f4,TCR,2024-06-10_14h12.35.220,LearnStrategy,2023.2.3,Win32,59.52380952,8,1,9,-0.012962963,0.001851852,1,0,0,0.8995,rock_grid_rect_2,2,02,-1,-1,0.899,-0.139814815,-0.252777778,1,0,0,1.3107,Basalt_rect,2,1.311,1,8,0,8,0,1,,,,,,,,,,,,
64123b4eef4c2344dfcd12f4,TCR,2024-06-10_14h12.35.220,LearnStrategy,2023.2.3,Win32,59.52380952,8,1,10,-0.00462963,-0.00462963,1,0,0,0.8656,rock_grid_rect_2,6,07,-1,-1,0.866,-0.07037037,-0.393518519,1,0,0,12.8953,Pegmatite_rect,6,12.895,1,9,0,9,0,1,,,,,,,,,,,,
64123b4eef4c2344dfcd12f4,TCR,2024-06-10_14h12.35.220,LearnStrategy,2023.2.3,Win32,59.52380952,8,1,11,-0.044444444,0.002777778,1,0,0,0.748,rock_grid_rect_2,3,13,-1,-1,0.748,0.108333333,-0.239814815,1,0,0,2.6455,Diorite_rect,3,2.646,1,10,0,10,0,1,,,,,,,,,,,,
64123b4eef4c2344dfcd12f4,TCR,2024-06-10_14h12.35.220,LearnStrategy,2023.2.3,Win32,59.52380952,8,1,12,-0.034259259,0.008333333,1,0,0,0.8317,rock_grid_rect_2,7,05,-1,-1,0.832,0.127777778,-0.419444444,1,0,0,1.5153,Peridotite_rect,7,1.515,1,11,0,11,0,1,,,,,,,,,,,,
64123b4eef4c2344dfcd12f4,TCR,2024-06-10_14h12.35.220,LearnStrategy,2023.2.3,Win32,59.52380952,8,1,13,-0.049074074,0.000925926,1,0,0,0.6657,rock_grid_rect_2,2,05,-1,-1,0.666,-0.183333333,-0.237037037,1,0,0,1.3768,Basalt_rect,2,1.377,1,12,0,12,0,1,,,,,,,,,,,,
64123b4eef4c2344dfcd12f4,TCR,2024-06-10_14h12.35.220,LearnStrategy,2023.2.3,Win32,59.52380952,8,1,14,-0.035185185,-0.006481481,1,0,0,0.8146,rock_grid_rect_2,6,08,-1,-1,0.815,-0.087037037,-0.412037037,1,0,0,2.3003,Pegmatite_rect,6,2.3,1,13,0,13,0,1,,,,,,,,,,,,
64123b4eef4c2344dfcd12f4,TCR,2024-06-10_14h12.35.220,LearnStrategy,2023.2.3,Win32,59.52380952,8,1,15,-0.030555556,-0.008333333,1,0,0,0.6978,rock_grid_rect_2,4,05,-1,-1,0.698,0.343518519,-0.250925926,1,0,0,9.1271,Gabbro_rect,4,9.127,1,14,0,14,0,1,,,,,,,,,,,,
64123b4eef4c2344dfcd12f4,TCR,2024-06-10_14h12.35.220,LearnStrategy,2023.2.3,Win32,59.52380952,8,1,16,-0.005555556,-0.002777778,1,0,0,0.7472,rock_grid_rect_2,1,16,-1,-1,0.747,0.334259259,-0.241666667,1,0,0,2.0774,Gabbro_rect,4,2.077,0,15,0,15,0,1,,,,,,,,,,,,
64123b4eef4c2344dfcd12f4,TCR,2024-06-10_14h12.35.220,LearnStrategy,2023.2.3,Win32,59.52380952,8,2,1,,,,,,,,2,10,,,,,,,,,,,2,3.143,1,,,,,,-0.124074074,-0.257407407,1,0,0,3.1426,Basalt_rect,0,0,0,0,1
64123b4eef4c2344dfcd12f4,TCR,2024-06-10_14h12.35.220,LearnStrategy,2023.2.3,Win32,59.52380952,8,2,2,,,,,,,,1,10,,,,,,,,,,,7,15.176,0,,,,,,0.125,-0.401851852,1,0,0,15.1762,Peridotite_rect,1,0,1,0,1
64123b4eef4c2344dfcd12f4,TCR,2024-06-10_14h12.35.220,LearnStrategy,2023.2.3,Win32,59.52380952,8,2,3,,,,,,,,3,09,,,,,,,,,,,3,3.393,1,,,,,,0.140740741,-0.264814815,1,0,0,3.3929,Diorite_rect,2,0,2,0,1
64123b4eef4c2344dfcd12f4,TCR,2024-06-10_14h12.35.220,LearnStrategy,2023.2.3,Win32,59.52380952,8,2,4,,,,,,,,1,03,,,,,,,,,,,1,11.525,1,,,,,,-0.321296296,-0.240740741,1,0,0,11.5251,Andesite_rect,3,0,3,0,1
64123b4eef4c2344dfcd12f4,TCR,2024-06-10_14h12.35.220,LearnStrategy,2023.2.3,Win32,59.52380952,8,2,5,,,,,,,,4,14,,,,,,,,,,,4,2.158,1,,,,,,0.346296296,-0.252777778,1,0,0,2.1581,Gabbro_rect,4,0,4,0,1
64123b4eef4c2344dfcd12f4,TCR,2024-06-10_14h12.35.220,LearnStrategy,2023.2.3,Win32,59.52380952,8,2,6,,,,,,,,7,04,,,,,,,,,,,4,5.727,0,,,,,,0.319444444,-0.256481481,1,0,0,5.7272,Gabbro_rect,5,0,5,0,1
64123b4eef4c2344dfcd12f4,TCR,2024-06-10_14h12.35.220,LearnStrategy,2023.2.3,Win32,59.52380952,8,2,7,,,,,,,,7,15,,,,,,,,,,,7,1.159,1,,,,,,0.100925926,-0.391666667,1,0,0,1.1588,Peridotite_rect,6,0,6,0,1
64123b4eef4c2344dfcd12f4,TCR,2024-06-10_14h12.35.220,LearnStrategy,2023.2.3,Win32,59.52380952,8,2,8,,,,,,,,8,10,,,,,,,,,,,8,1.715,1,,,,,,0.39537037,-0.400925926,1,0,0,1.7148,Pumice_rect,7,0,7,0,1
64123b4eef4c2344dfcd12f4,TCR,2024-06-10_14h12.35.220,LearnStrategy,2023.2.3,Win32,59.52380952,8,2,9,,,,,,,,8,02,,,,,,,,,,,8,1.131,1,,,,,,0.405555556,-0.397222222,1,0,0,1.1311,Pumice_rect,8,0,8,0,1
64123b4eef4c2344dfcd12f4,TCR,2024-06-10_14h12.35.220,LearnStrategy,2023.2.3,Win32,59.52380952,8,2,10,,,,,,,,5,06,,,,,,,,,,,5,1.128,1,,,,,,-0.372222222,-0.390740741,1,0,0,1.1278,Obsidian_rect,9,0,9,0,1
64123b4eef4c2344dfcd12f4,TCR,2024-06-10_14h12.35.220,LearnStrategy,2023.2.3,Win32,59.52380952,8,2,11,,,,,,,,5,16,,,,,,,,,,,5,0.762,1,,,,,,-0.387962963,-0.390740741,1,0,0,0.7618,Obsidian_rect,10,0,10,0,1
64123b4eef4c2344dfcd12f4,TCR,2024-06-10_14h12.35.220,LearnStrategy,2023.2.3,Win32,59.52380952,8,2,12,,,,,,,,3,02,,,,,,,,,,,3,8.312,1,,,,,,0.134259259,-0.244444444,1,0,0,8.3115,Diorite_rect,11,0,11,0,1
64123b4eef4c2344dfcd12f4,TCR,2024-06-10_14h12.35.220,LearnStrategy,2023.2.3,Win32,59.52380952,8,2,13,,,,,,,,6,16,,,,,,,,,,,6,16.31,1,,,,,,-0.077777778,-0.402777778,1,0,0,16.3102,Pegmatite_rect,12,0,12,0,1
64123b4eef4c2344dfcd12f4,TCR,2024-06-10_14h12.35.220,LearnStrategy,2023.2.3,Win32,59.52380952,8,2,14,,,,,,,,4,08,,,,,,,,,,,4,2.409,1,,,,,,0.40462963,-0.255555556,1,0,0,2.4089,Gabbro_rect,13,0,13,0,1
64123b4eef4c2344dfcd12f4,TCR,2024-06-10_14h12.35.220,LearnStrategy,2023.2.3,Win32,59.52380952,8,2,15,,,,,,,,2,12,,,,,,,,,,,1,5.728,0,,,,,,-0.346296296,-0.239814815,1,0,0,5.728,Andesite_rect,14,0,14,0,1
64123b4eef4c2344dfcd12f4,TCR,2024-06-10_14h12.35.220,LearnStrategy,2023.2.3,Win32,59.52380952,8,2,16,,,,,,,,6,05,,,,,,,,,,,3,6.962,0,,,,,,0.17037037,-0.260185185,1,0,0,6.9619,Diorite_rect,15,0,15,0,1
64123b4eef4c2344dfcd12f4,TCR,2024-06-10_14h12.35.220,LearnStrategy,2023.2.3,Win32,59.52380952,9,1,1,0.037037037,0.010185185,1,0,0,1.0311,rock_grid_rect_2,1,14,-1,-1,1.031,-0.165740741,-0.385185185,1,0,0,3.8443,Pegmatite_rect,6,3.844,0,0,0,0,0,1,,,,,,,,,,,,
64123b4eef4c2344dfcd12f4,TCR,2024-06-10_14h12.35.220,LearnStrategy,2023.2.3,Win32,59.52380952,9,1,2,0.028703704,-0.008333333,1,0,0,1.091,rock_grid_rect_2,7,08,-1,-1,1.091,0.088888889,-0.408333333,1,0,0,1.2252,Peridotite_rect,7,1.225,1,1,0,1,0,1,,,,,,,,,,,,
64123b4eef4c2344dfcd12f4,TCR,2024-06-10_14h12.35.220,LearnStrategy,2023.2.3,Win32,59.52380952,9,1,3,-0.012037037,-0.012962963,1,0,0,0.6487,rock_grid_rect_2,6,07,-1,-1,0.649,0.390740741,-0.261111111,1,0,0,7.0622,Gabbro_rect,4,7.062,0,2,0,2,0,1,,,,,,,,,,,,
64123b4eef4c2344dfcd12f4,TCR,2024-06-10_14h12.35.220,LearnStrategy,2023.2.3,Win32,59.52380952,9,1,4,0.089814815,-0.007407407,1,0,0,1.2756,rock_grid_rect_2,8,03,-1,-1,1.276,0.432407407,-0.406481481,1,0,0,1.7948,Pumice_rect,8,1.795,1,3,0,3,0,1,,,,,,,,,,,,
64123b4eef4c2344dfcd12f4,TCR,2024-06-10_14h12.35.220,LearnStrategy,2023.2.3,Win32,59.52380952,9,1,5,-0.065740741,0.013888889,1,0,0,0.7155,rock_grid_rect_2,2,09,-1,-1,0.716,-0.148148148,-0.251851852,1,0,0,2.9619,Basalt_rect,2,2.962,1,4,0,4,0,1,,,,,,,,,,,,
64123b4eef4c2344dfcd12f4,TCR,2024-06-10_14h12.35.220,LearnStrategy,2023.2.3,Win32,59.52380952,9,1,6,0.032407407,-0.000925926,1,0,0,0.7319,rock_grid_rect_2,5,02,-1,-1,0.732,-0.386111111,-0.397222222,1,0,0,1.0278,Obsidian_rect,5,1.028,1,5,0,5,0,1,,,,,,,,,,,,
64123b4eef4c2344dfcd12f4,TCR,2024-06-10_14h12.35.220,LearnStrategy,2023.2.3,Win32,59.52380952,9,1,7,-0.00462963,-0.012037037,1,0,0,0.7495,rock_grid_rect_2,3,06,-1,-1,0.749,0.115740741,-0.252777778,1,0,0,6.6952,Diorite_rect,3,6.695,1,6,0,6,0,1,,,,,,,,,,,,
64123b4eef4c2344dfcd12f4,TCR,2024-06-10_14h12.35.220,LearnStrategy,2023.2.3,Win32,59.52380952,9,1,8,-0.035185185,-0.010185185,1,0,0,0.7155,rock_grid_rect_2,4,15,-1,-1,0.715,0.375,-0.258333333,1,0,0,2.6608,Gabbro_rect,4,2.661,1,7,0,7,0,1,,,,,,,,,,,,
64123b4eef4c2344dfcd12f4,TCR,2024-06-10_14h12.35.220,LearnStrategy,2023.2.3,Win32,59.52380952,9,1,9,-0.028703704,-0.005555556,1,0,0,0.6812,rock_grid_rect_2,3,15,-1,-1,0.681,0.107407407,-0.250925926,1,0,0,4.379,Diorite_rect,3,4.379,1,8,0,8,0,1,,,,,,,,,,,,
64123b4eef4c2344dfcd12f4,TCR,2024-06-10_14h12.35.220,LearnStrategy,2023.2.3,Win32,59.52380952,9,1,10,-0.012037037,-0.012037037,1,0,0,0.7484,rock_grid_rect_2,2,09,-1,-1,0.748,-0.15,-0.238888889,1,0,0,1.676,Basalt_rect,2,1.676,1,9,0,9,0,1,,,,,,,,,,,,
64123b4eef4c2344dfcd12f4,TCR,2024-06-10_14h12.35.220,LearnStrategy,2023.2.3,Win32,59.52380952,9,1,11,-0.008333333,-0.000925926,1,0,0,0.7321,rock_grid_rect_2,1,16,-1,-1,0.732,0.400925926,-0.249074074,1,0,0,2.8124,Gabbro_rect,4,2.812,0,10,0,10,0,1,,,,,,,,,,,,
64123b4eef4c2344dfcd12f4,TCR,2024-06-10_14h12.35.220,LearnStrategy,2023.2.3,Win32,59.52380952,9,1,12,0.012962963,0,1,0,0,0.99,rock_grid_rect_2,4,10,-1,-1,0.99,0.388888889,-0.250925926,1,0,0,2.4954,Gabbro_rect,4,2.495,1,11,0,11,0,1,,,,,,,,,,,,
64123b4eef4c2344dfcd12f4,TCR,2024-06-10_14h12.35.220,LearnStrategy,2023.2.3,Win32,59.52380952,9,1,13,-0.011111111,-0.007407407,1,0,0,0.7485,rock_grid_rect_2,6,12,-1,-1,0.749,-0.157407407,-0.389814815,1,0,0,1.7787,Pegmatite_rect,6,1.779,1,12,0,12,0,1,,,,,,,,,,,,
64123b4eef4c2344dfcd12f4,TCR,2024-06-10_14h12.35.220,LearnStrategy,2023.2.3,Win32,59.52380952,9,1,14,-0.050925926,-0.000925926,1,0,0,0.7329,rock_grid_rect_2,6,15,-1,-1,0.733,-0.137962963,-0.403703704,1,0,0,1.4611,Pegmatite_rect,6,1.461,1,13,0,13,0,1,,,,,,,,,,,,
64123b4eef4c2344dfcd12f4,TCR,2024-06-10_14h12.35.220,LearnStrategy,2023.2.3,Win32,59.52380952,9,1,15,0.008333333,-0.006481481,1,0,0,0.6979,rock_grid_rect_2,7,12,-1,-1,0.698,0.083333333,-0.392592593,1,0,0,1.3785,Peridotite_rect,7,1.378,1,14,0,14,0,1,,,,,,,,,,,,
64123b4eef4c2344dfcd12f4,TCR,2024-06-10_14h12.35.220,LearnStrategy,2023.2.3,Win32,59.52380952,9,1,16,-0.076851852,-0.00462963,1,0,0,0.749,rock_grid_rect_2,4,10,-1,-1,0.749,0.359259259,-0.25,1,0,0,5.4435,Gabbro_rect,4,5.443,1,15,0,15,0,1,,,,,,,,,,,,
64123b4eef4c2344dfcd12f4,TCR,2024-06-10_14h12.35.220,LearnStrategy,2023.2.3,Win32,59.52380952,9,2,1,,,,,,,,7,07,,,,,,,,,,,7,1.694,1,,,,,,0.103703704,-0.398148148,1,0,0,1.6944,Peridotite_rect,0,0,0,0,1
64123b4eef4c2344dfcd12f4,TCR,2024-06-10_14h12.35.220,LearnStrategy,2023.2.3,Win32,59.52380952,9,2,2,,,,,,,,4,01,,,,,,,,,,,7,1.962,0,,,,,,0.125925926,-0.406481481,1,0,0,1.9616,Peridotite_rect,1,0,1,0,1
64123b4eef4c2344dfcd12f4,TCR,2024-06-10_14h12.35.220,LearnStrategy,2023.2.3,Win32,59.52380952,9,2,3,,,,,,,,2,01,,,,,,,,,,,2,1.026,1,,,,,,-0.162962963,-0.242592593,1,0,0,1.0265,Basalt_rect,2,0,2,0,1
64123b4eef4c2344dfcd12f4,TCR,2024-06-10_14h12.35.220,LearnStrategy,2023.2.3,Win32,59.52380952,9,2,4,,,,,,,,8,16,,,,,,,,,,,8,1.276,1,,,,,,0.383333333,-0.400925926,1,0,0,1.2762,Pumice_rect,3,0,3,0,1
64123b4eef4c2344dfcd12f4,TCR,2024-06-10_14h12.35.220,LearnStrategy,2023.2.3,Win32,59.52380952,9,2,5,,,,,,,,6,09,,,,,,,,,,,6,8.362,1,,,,,,-0.143518519,-0.411111111,1,0,0,8.3618,Pegmatite_rect,4,0,4,0,1
64123b4eef4c2344dfcd12f4,TCR,2024-06-10_14h12.35.220,LearnStrategy,2023.2.3,Win32,59.52380952,9,2,6,,,,,,,,3,14,,,,,,,,,,,3,3.059,1,,,,,,0.187962963,-0.232407407,1,0,0,3.059,Diorite_rect,5,0,5,0,1
64123b4eef4c2344dfcd12f4,TCR,2024-06-10_14h12.35.220,LearnStrategy,2023.2.3,Win32,59.52380952,9,2,7,,,,,,,,5,11,,,,,,,,,,,5,1.011,1,,,,,,-0.400925926,-0.413888889,1,0,0,1.0105,Obsidian_rect,6,0,6,0,1
64123b4eef4c2344dfcd12f4,TCR,2024-06-10_14h12.35.220,LearnStrategy,2023.2.3,Win32,59.52380952,9,2,8,,,,,,,,1,09,,,,,,,,,,,1,3.596,1,,,,,,-0.381481481,-0.246296296,1,0,0,3.5955,Andesite_rect,7,0,7,0,1
64123b4eef4c2344dfcd12f4,TCR,2024-06-10_14h12.35.220,LearnStrategy,2023.2.3,Win32,59.52380952,9,2,9,,,,,,,,7,13,,,,,,,,,,,7,1.412,1,,,,,,0.130555556,-0.421296296,1,0,0,1.4118,Peridotite_rect,8,0,8,0,1
64123b4eef4c2344dfcd12f4,TCR,2024-06-10_14h12.35.220,LearnStrategy,2023.2.3,Win32,59.52380952,9,2,10,,,,,,,,4,12,,,,,,,,,,,4,3.647,1,,,,,,0.37037037,-0.252777778,1,0,0,3.6465,Gabbro_rect,9,0,9,0,1
64123b4eef4c2344dfcd12f4,TCR,2024-06-10_14h12.35.220,LearnStrategy,2023.2.3,Win32,59.52380952,9,2,11,,,,,,,,5,09,,,,,,,,,,,5,1.111,1,,,,,,-0.394444444,-0.398148148,1,0,0,1.1115,Obsidian_rect,10,0,10,0,1
64123b4eef4c2344dfcd12f4,TCR,2024-06-10_14h12.35.220,LearnStrategy,2023.2.3,Win32,59.52380952,9,2,12,,,,,,,,2,04,,,,,,,,,,,2,1.343,1,,,,,,-0.146296296,-0.256481481,1,0,0,1.3427,Basalt_rect,11,0,11,0,1
64123b4eef4c2344dfcd12f4,TCR,2024-06-10_14h12.35.220,LearnStrategy,2023.2.3,Win32,59.52380952,9,2,13,,,,,,,,1,07,,,,,,,,,,,1,22.177,1,,,,,,-0.377777778,-0.271296296,1,0,0,22.177,Andesite_rect,12,0,12,0,1
64123b4eef4c2344dfcd12f4,TCR,2024-06-10_14h12.35.220,LearnStrategy,2023.2.3,Win32,59.52380952,9,2,14,,,,,,,,3,12,,,,,,,,,,,3,7.342,1,,,,,,0.134259259,-0.25462963,1,0,0,7.3422,Diorite_rect,13,0,13,0,1
64123b4eef4c2344dfcd12f4,TCR,2024-06-10_14h12.35.220,LearnStrategy,2023.2.3,Win32,59.52380952,9,2,15,,,,,,,,6,03,,,,,,,,,,,6,2.058,1,,,,,,-0.137962963,-0.403703704,1,0,0,2.0582,Pegmatite_rect,14,0,14,0,1
64123b4eef4c2344dfcd12f4,TCR,2024-06-10_14h12.35.220,LearnStrategy,2023.2.3,Win32,59.52380952,9,2,16,,,,,,,,8,08,,,,,,,,,,,8,1.793,1,,,,,,0.388888889,-0.394444444,1,0,0,1.7929,Pumice_rect,15,0,15,0,1
64123b4eef4c2344dfcd12f4,TCR,2024-06-10_14h12.35.220,LearnStrategy,2023.2.3,Win32,59.52380952,,,,,,,,,,,,,,,,,,,,,,,,,,,,,,,,,,,,,,,,,,
64123b4eef4c2344dfcd12f4,TCR,2024-06-10_14h12.35.220,LearnStrategy,2023.2.3,Win32,59.52380952,,,,,,,,,,,,,,,,,,,,,,,,,,,,,,,,,,,,,,,,,,
64123b4eef4c2344dfcd12f4,TCR,2024-06-10_14h12.35.220,LearnStrategy,2023.2.3,Win32,59.52380952,,,,,,,,,,,6,10,1,1,,,,,,,,,,,,,,,,,,,,,,,,,,,,
64123b4eef4c2344dfcd12f4,TCR,2024-06-10_14h12.35.220,LearnStrategy,2023.2.3,Win32,59.52380952,,,,,,,,,,,1,06,1,2,,,,,,,,,,,,,,,,,,,,,,,,,,,,
64123b4eef4c2344dfcd12f4,TCR,2024-06-10_14h12.35.220,LearnStrategy,2023.2.3,Win32,59.52380952,,,,,,,,,,,6,08,1,3,,,,,,,,,,,,,,,,,,,,,,,,,,,,
64123b4eef4c2344dfcd12f4,TCR,2024-06-10_14h12.35.220,LearnStrategy,2023.2.3,Win32,59.52380952,,,,,,,,,,,4,05,1,4,,,,,,,,,,,,,,,,,,,,,,,,,,,,
64123b4eef4c2344dfcd12f4,TCR,2024-06-10_14h12.35.220,LearnStrategy,2023.2.3,Win32,59.52380952,,,,,,,,,,,6,11,1,5,,,,,,,,,,,,,,,,,,,,,,,,,,,,
64123b4eef4c2344dfcd12f4,TCR,2024-06-10_14h12.35.220,LearnStrategy,2023.2.3,Win32,59.52380952,,,,,,,,,,,1,01,1,6,,,,,,,,,,,,,,,,,,,,,,,,,,,,
64123b4eef4c2344dfcd12f4,TCR,2024-06-10_14h12.35.220,LearnStrategy,2023.2.3,Win32,59.52380952,,,,,,,,,,,1,04,1,7,,,,,,,,,,,,,,,,,,,,,,,,,,,,
64123b4eef4c2344dfcd12f4,TCR,2024-06-10_14h12.35.220,LearnStrategy,2023.2.3,Win32,59.52380952,,,,,,,,,,,5,07,1,8,,,,,,,,,,,,,,,,,,,,,,,,,,,,
64123b4eef4c2344dfcd12f4,TCR,2024-06-10_14h12.35.220,LearnStrategy,2023.2.3,Win32,59.52380952,,,,,,,,,,,7,08,2,1,,,,,,,,,,,,,,,,,,,,,,,,,,,,
64123b4eef4c2344dfcd12f4,TCR,2024-06-10_14h12.35.220,LearnStrategy,2023.2.3,Win32,59.52380952,,,,,,,,,,,2,02,2,2,,,,,,,,,,,,,,,,,,,,,,,,,,,,
64123b4eef4c2344dfcd12f4,TCR,2024-06-10_14h12.35.220,LearnStrategy,2023.2.3,Win32,59.52380952,,,,,,,,,,,5,10,2,3,,,,,,,,,,,,,,,,,,,,,,,,,,,,
64123b4eef4c2344dfcd12f4,TCR,2024-06-10_14h12.35.220,LearnStrategy,2023.2.3,Win32,59.52380952,,,,,,,,,,,8,03,2,4,,,,,,,,,,,,,,,,,,,,,,,,,,,,
64123b4eef4c2344dfcd12f4,TCR,2024-06-10_14h12.35.220,LearnStrategy,2023.2.3,Win32,59.52380952,,,,,,,,,,,1,11,2,5,,,,,,,,,,,,,,,,,,,,,,,,,,,,
64123b4eef4c2344dfcd12f4,TCR,2024-06-10_14h12.35.220,LearnStrategy,2023.2.3,Win32,59.52380952,,,,,,,,,,,3,15,2,6,,,,,,,,,,,,,,,,,,,,,,,,,,,,
64123b4eef4c2344dfcd12f4,TCR,2024-06-10_14h12.35.220,LearnStrategy,2023.2.3,Win32,59.52380952,,,,,,,,,,,7,02,2,7,,,,,,,,,,,,,,,,,,,,,,,,,,,,
64123b4eef4c2344dfcd12f4,TCR,2024-06-10_14h12.35.220,LearnStrategy,2023.2.3,Win32,59.52380952,,,,,,,,,,,4,10,2,8,,,,,,,,,,,,,,,,,,,,,,,,,,,,
64123b4eef4c2344dfcd12f4,TCR,2024-06-10_14h12.35.220,LearnStrategy,2023.2.3,Win32,59.52380952,,,,,,,,,,,2,08,3,1,,,,,,,,,,,,,,,,,,,,,,,,,,,,
64123b4eef4c2344dfcd12f4,TCR,2024-06-10_14h12.35.220,LearnStrategy,2023.2.3,Win32,59.52380952,,,,,,,,,,,2,14,3,2,,,,,,,,,,,,,,,,,,,,,,,,,,,,
64123b4eef4c2344dfcd12f4,TCR,2024-06-10_14h12.35.220,LearnStrategy,2023.2.3,Win32,59.52380952,,,,,,,,,,,5,08,3,3,,,,,,,,,,,,,,,,,,,,,,,,,,,,
64123b4eef4c2344dfcd12f4,TCR,2024-06-10_14h12.35.220,LearnStrategy,2023.2.3,Win32,59.52380952,,,,,,,,,,,2,11,3,4,,,,,,,,,,,,,,,,,,,,,,,,,,,,
64123b4eef4c2344dfcd12f4,TCR,2024-06-10_14h12.35.220,LearnStrategy,2023.2.3,Win32,59.52380952,,,,,,,,,,,3,10,3,5,,,,,,,,,,,,,,,,,,,,,,,,,,,,
64123b4eef4c2344dfcd12f4,TCR,2024-06-10_14h12.35.220,LearnStrategy,2023.2.3,Win32,59.52380952,,,,,,,,,,,8,14,3,6,,,,,,,,,,,,,,,,,,,,,,,,,,,,
64123b4eef4c2344dfcd12f4,TCR,2024-06-10_14h12.35.220,LearnStrategy,2023.2.3,Win32,59.52380952,,,,,,,,,,,3,06,3,7,,,,,,,,,,,,,,,,,,,,,,,,,,,,
64123b4eef4c2344dfcd12f4,TCR,2024-06-10_14h12.35.220,LearnStrategy,2023.2.3,Win32,59.52380952,,,,,,,,,,,6,07,3,8,,,,,,,,,,,,,,,,,,,,,,,,,,,,
64123b4eef4c2344dfcd12f4,TCR,2024-06-10_14h12.35.220,LearnStrategy,2023.2.3,Win32,59.52380952,,,,,,,,,,,2,05,4,1,,,,,,,,,,,,,,,,,,,,,,,,,,,,
64123b4eef4c2344dfcd12f4,TCR,2024-06-10_14h12.35.220,LearnStrategy,2023.2.3,Win32,59.52380952,,,,,,,,,,,4,16,4,2,,,,,,,,,,,,,,,,,,,,,,,,,,,,
64123b4eef4c2344dfcd12f4,TCR,2024-06-10_14h12.35.220,LearnStrategy,2023.2.3,Win32,59.52380952,,,,,,,,,,,1,14,4,3,,,,,,,,,,,,,,,,,,,,,,,,,,,,
64123b4eef4c2344dfcd12f4,TCR,2024-06-10_14h12.35.220,LearnStrategy,2023.2.3,Win32,59.52380952,,,,,,,,,,,6,15,4,4,,,,,,,,,,,,,,,,,,,,,,,,,,,,
64123b4eef4c2344dfcd12f4,TCR,2024-06-10_14h12.35.220,LearnStrategy,2023.2.3,Win32,59.52380952,,,,,,,,,,,3,07,4,5,,,,,,,,,,,,,,,,,,,,,,,,,,,,
64123b4eef4c2344dfcd12f4,TCR,2024-06-10_14h12.35.220,LearnStrategy,2023.2.3,Win32,59.52380952,,,,,,,,,,,8,15,4,6,,,,,,,,,,,,,,,,,,,,,,,,,,,,
64123b4eef4c2344dfcd12f4,TCR,2024-06-10_14h12.35.220,LearnStrategy,2023.2.3,Win32,59.52380952,,,,,,,,,,,4,03,4,7,,,,,,,,,,,,,,,,,,,,,,,,,,,,
64123b4eef4c2344dfcd12f4,TCR,2024-06-10_14h12.35.220,LearnStrategy,2023.2.3,Win32,59.52380952,,,,,,,,,,,3,13,4,8,,,,,,,,,,,,,,,,,,,,,,,,,,,,
64123b4eef4c2344dfcd12f4,TCR,2024-06-10_14h12.35.220,LearnStrategy,2023.2.3,Win32,59.52380952,,,,,,,,,,,5,02,5,1,,,,,,,,,,,,,,,,,,,,,,,,,,,,
64123b4eef4c2344dfcd12f4,TCR,2024-06-10_14h12.35.220,LearnStrategy,2023.2.3,Win32,59.52380952,,,,,,,,,,,7,05,5,2,,,,,,,,,,,,,,,,,,,,,,,,,,,,
64123b4eef4c2344dfcd12f4,TCR,2024-06-10_14h12.35.220,LearnStrategy,2023.2.3,Win32,59.52380952,,,,,,,,,,,6,12,5,3,,,,,,,,,,,,,,,,,,,,,,,,,,,,
64123b4eef4c2344dfcd12f4,TCR,2024-06-10_14h12.35.220,LearnStrategy,2023.2.3,Win32,59.52380952,,,,,,,,,,,7,16,5,4,,,,,,,,,,,,,,,,,,,,,,,,,,,,
64123b4eef4c2344dfcd12f4,TCR,2024-06-10_14h12.35.220,LearnStrategy,2023.2.3,Win32,59.52380952,,,,,,,,,,,3,08,5,5,,,,,,,,,,,,,,,,,,,,,,,,,,,,
64123b4eef4c2344dfcd12f4,TCR,2024-06-10_14h12.35.220,LearnStrategy,2023.2.3,Win32,59.52380952,,,,,,,,,,,7,06,5,6,,,,,,,,,,,,,,,,,,,,,,,,,,,,
64123b4eef4c2344dfcd12f4,TCR,2024-06-10_14h12.35.220,LearnStrategy,2023.2.3,Win32,59.52380952,,,,,,,,,,,4,15,5,7,,,,,,,,,,,,,,,,,,,,,,,,,,,,
64123b4eef4c2344dfcd12f4,TCR,2024-06-10_14h12.35.220,LearnStrategy,2023.2.3,Win32,59.52380952,,,,,,,,,,,8,05,5,8,,,,,,,,,,,,,,,,,,,,,,,,,,,,
64123b4eef4c2344dfcd12f4,TCR,2024-06-10_14h12.35.220,LearnStrategy,2023.2.3,Win32,59.52380952,,,,,,,,,,,8,09,6,1,,,,,,,,,,,,,,,,,,,,,,,,,,,,
64123b4eef4c2344dfcd12f4,TCR,2024-06-10_14h12.35.220,LearnStrategy,2023.2.3,Win32,59.52380952,,,,,,,,,,,5,12,6,2,,,,,,,,,,,,,,,,,,,,,,,,,,,,
64123b4eef4c2344dfcd12f4,TCR,2024-06-10_14h12.35.220,LearnStrategy,2023.2.3,Win32,59.52380952,,,,,,,,,,,5,05,6,3,,,,,,,,,,,,,,,,,,,,,,,,,,,,
64123b4eef4c2344dfcd12f4,TCR,2024-06-10_14h12.35.220,LearnStrategy,2023.2.3,Win32,59.52380952,,,,,,,,,,,2,09,6,4,,,,,,,,,,,,,,,,,,,,,,,,,,,,
64123b4eef4c2344dfcd12f4,TCR,2024-06-10_14h12.35.220,LearnStrategy,2023.2.3,Win32,59.52380952,,,,,,,,,,,4,13,6,5,,,,,,,,,,,,,,,,,,,,,,,,,,,,
64123b4eef4c2344dfcd12f4,TCR,2024-06-10_14h12.35.220,LearnStrategy,2023.2.3,Win32,59.52380952,,,,,,,,,,,1,16,6,6,,,,,,,,,,,,,,,,,,,,,,,,,,,,
64123b4eef4c2344dfcd12f4,TCR,2024-06-10_14h12.35.220,LearnStrategy,2023.2.3,Win32,59.52380952,,,,,,,,,,,8,13,6,7,,,,,,,,,,,,,,,,,,,,,,,,,,,,
64123b4eef4c2344dfcd12f4,TCR,2024-06-10_14h12.35.220,LearnStrategy,2023.2.3,Win32,59.52380952,,,,,,,,,,,7,12,6,8,,,,,,,,,,,,,,,,,,,,,,,,,,,,