participant,condition,date,expName,psychopyVersion,OS,frameRate,block,phase,trial,learn_mouse.x,learn_mouse.y,learn_mouse.leftButton,learn_mouse.midButton,learn_mouse.rightButton,learn_mouse.time,learn_mouse.clicked_name,cat,token,row,col,t_select,cat_rec,token_rec,cat_mouse_l.x,cat_mouse_l.y,cat_mouse_l.leftButton,cat_mouse_l.midButton,cat_mouse_l.rightButton,cat_mouse_l.time,cat_mouse_l.clicked_name,resp,t_resp,corr,train_trials.thisRepN,train_trials.thisTrialN,train_trials.thisN,train_trials.thisIndex,train_trials.ran,cat_mouse_t.x,cat_mouse_t.y,cat_mouse_t.leftButton,cat_mouse_t.midButton,cat_mouse_t.rightButton,cat_mouse_t.time,cat_mouse_t.clicked_name,test_trials.thisRepN,test_trials.thisTrialN,test_trials.thisN,test_trials.thisIndex,test_trials.ran,Bonus
6429ffe11a9806a9a95ad072,SCR,2024-06-11_12h27.39.516,LearnStrategy,2023.2.3,Win32,60.24096386,,,,,,,,,,,,,,,,,,,,,,,,,,,,,,,,,,,,,,,,,,,,,
6429ffe11a9806a9a95ad072,SCR,2024-06-11_12h27.39.516,LearnStrategy,2023.2.3,Win32,60.24096386,1,1,1,0.087037065,0.088888889,1,0,0,4.6834,Pegmatite_10,6,10,4,5,4.683,3,16,0.153703732,-0.398148176,1,0,0,10.146,Peridotite_rect,7,10.146,0,0,0,0,0,1,,,,,,,,,,,,,
6429ffe11a9806a9a95ad072,SCR,2024-06-11_12h27.39.516,LearnStrategy,2023.2.3,Win32,60.24096386,1,1,2,-0.064814758,-0.087962977,1,0,0,2.7308,Obsidian_06,5,06,3,4,2.731,5,02,-0.409259245,-0.230555556,1,0,0,5.827,Andesite_rect,1,5.827,0,1,0,1,0,1,,,,,,,,,,,,,
6429ffe11a9806a9a95ad072,SCR,2024-06-11_12h27.39.516,LearnStrategy,2023.2.3,Win32,60.24096386,1,1,3,0.077777778,0.415740739,1,0,0,2.5799,Diorite_14,3,14,6,5,2.58,8,08,-0.112962935,-0.232407464,1,0,0,3.7778,Basalt_rect,2,3.778,0,2,0,2,0,1,,,,,,,,,,,,,
6429ffe11a9806a9a95ad072,SCR,2024-06-11_12h27.39.516,LearnStrategy,2023.2.3,Win32,60.24096386,1,1,4,-0.396296268,0.4037037,1,0,0,5.6471,Pegmatite_11,6,11,6,2,5.647,2,04,-0.354629601,-0.238888889,1,0,0,8.1211,Andesite_rect,1,8.121,0,3,0,3,0,1,,,,,,,,,,,,,
6429ffe11a9806a9a95ad072,SCR,2024-06-11_12h27.39.516,LearnStrategy,2023.2.3,Win32,60.24096386,1,1,5,-0.530555556,0.416666667,1,0,0,6.064,Pumice_16,8,16,6,1,6.064,7,02,0.419444444,-0.245370399,1,0,0,3.1712,Gabbro_rect,4,3.171,0,4,0,4,0,1,,,,,,,,,,,,,
6429ffe11a9806a9a95ad072,SCR,2024-06-11_12h27.39.516,LearnStrategy,2023.2.3,Win32,60.24096386,1,1,6,0.087037065,-0.411111111,1,0,0,9.3483,Pegmatite_15,6,15,1,5,9.348,6,10,0.352777778,-0.245370399,1,0,0,4.4707,Gabbro_rect,4,4.471,0,5,0,5,0,1,,,,,,,,,,,,,
6429ffe11a9806a9a95ad072,SCR,2024-06-11_12h27.39.516,LearnStrategy,2023.2.3,Win32,60.24096386,1,1,7,-0.233333333,0.099074046,1,0,0,2.4797,Diorite_10,3,10,4,3,2.48,3,10,-0.092592536,-0.246296353,1,0,0,2.0951,Basalt_rect,2,2.095,0,6,0,6,0,1,,,,,,,,,,,,,
6429ffe11a9806a9a95ad072,SCR,2024-06-11_12h27.39.516,LearnStrategy,2023.2.3,Win32,60.24096386,1,1,8,0.05648151,0.242592578,1,0,0,3.5978,Pumice_08,8,08,5,5,3.598,5,11,0.43148151,-0.405555556,1,0,0,2.4723,Pumice_rect,8,2.472,1,7,0,7,0,1,,,,,,,,,,,,,
6429ffe11a9806a9a95ad072,SCR,2024-06-11_12h27.39.516,LearnStrategy,2023.2.3,Win32,60.24096386,1,1,9,-0.537037023,-0.084259288,1,0,0,11.2146,Pumice_10,8,10,3,1,11.215,4,15,0.417592621,-0.399074131,1,0,0,3.4374,Pumice_rect,8,3.437,1,8,0,8,0,1,,,,,,,,,,,,,
6429ffe11a9806a9a95ad072,SCR,2024-06-11_12h27.39.516,LearnStrategy,2023.2.3,Win32,60.24096386,1,1,10,-0.225,0.084259245,1,0,0,7.0979,Diorite_10,3,10,4,3,7.098,7,06,0.425,-0.388888889,1,0,0,2.2047,Pumice_rect,8,2.205,0,9,0,9,0,1,,,,,,,,,,,,,
6429ffe11a9806a9a95ad072,SCR,2024-06-11_12h27.39.516,LearnStrategy,2023.2.3,Win32,60.24096386,1,1,11,0.222222222,0.2574074,1,0,0,2.7321,Diorite_09,3,09,5,6,2.732,2,09,0.113888889,-0.395370399,1,0,0,2.7267,Peridotite_rect,7,2.727,0,10,0,10,0,1,,,,,,,,,,,,,
6429ffe11a9806a9a95ad072,SCR,2024-06-11_12h27.39.516,LearnStrategy,2023.2.3,Win32,60.24096386,1,1,12,-0.391666667,0.091666667,1,0,0,2.5314,Diorite_11,3,11,4,2,2.531,8,10,0.388888889,-0.242592621,1,0,0,1.7603,Gabbro_rect,4,1.76,0,11,0,11,0,1,,,,,,,,,,,,,
6429ffe11a9806a9a95ad072,SCR,2024-06-11_12h27.39.516,LearnStrategy,2023.2.3,Win32,60.24096386,1,1,13,-0.549074067,-0.09629631,1,0,0,4.4474,Pumice_10,8,10,3,1,4.447,6,06,-0.140740712,-0.243518575,1,0,0,1.3225,Basalt_rect,2,1.322,0,12,0,12,0,1,,,,,,,,,,,,,
6429ffe11a9806a9a95ad072,SCR,2024-06-11_12h27.39.516,LearnStrategy,2023.2.3,Win32,60.24096386,1,1,14,0.414814843,0.444444444,1,0,0,3.7983,Pumice_03,8,03,6,7,3.798,1,14,0.370370399,-0.236111111,1,0,0,1.4117,Gabbro_rect,4,1.412,0,13,0,13,0,1,,,,,,,,,,,,,
6429ffe11a9806a9a95ad072,SCR,2024-06-11_12h27.39.516,LearnStrategy,2023.2.3,Win32,60.24096386,1,1,15,-0.200925912,-0.087037065,1,0,0,2.0996,Obsidian_08,5,08,3,3,2.1,4,09,-0.346296268,-0.247222222,1,0,0,2.2638,Andesite_rect,1,2.264,0,14,0,14,0,1,,,,,,,,,,,,,
6429ffe11a9806a9a95ad072,SCR,2024-06-11_12h27.39.516,LearnStrategy,2023.2.3,Win32,60.24096386,1,1,16,0.234259288,-0.124074088,1,0,0,1.883,Pegmatite_03,6,03,3,6,1.883,1,03,0.392592621,-0.240740797,1,0,0,2.5637,Gabbro_rect,4,2.564,0,15,0,15,0,1,,,,,,,,,,,,,
6429ffe11a9806a9a95ad072,SCR,2024-06-11_12h27.39.516,LearnStrategy,2023.2.3,Win32,60.24096386,1,2,1,,,,,,,,8,15,,,,,,,,,,,,,8,7.894,1,,,,,,0.438888889,-0.397222222,1,0,0,7.8935,Pumice_rect,0,0,0,0,1,
6429ffe11a9806a9a95ad072,SCR,2024-06-11_12h27.39.516,LearnStrategy,2023.2.3,Win32,60.24096386,1,2,2,,,,,,,,7,12,,,,,,,,,,,,,6,3.344,0,,,,,,-0.170370314,-0.399074131,1,0,0,3.3437,Pegmatite_rect,1,0,1,0,1,
6429ffe11a9806a9a95ad072,SCR,2024-06-11_12h27.39.516,LearnStrategy,2023.2.3,Win32,60.24096386,1,2,3,,,,,,,,8,04,,,,,,,,,,,,,3,3.224,0,,,,,,0.133333333,-0.250925954,1,0,0,3.2242,Diorite_rect,2,0,2,0,1,
6429ffe11a9806a9a95ad072,SCR,2024-06-11_12h27.39.516,LearnStrategy,2023.2.3,Win32,60.24096386,1,2,4,,,,,,,,1,10,,,,,,,,,,,,,8,1.812,0,,,,,,0.45648151,-0.378703732,1,0,0,1.8115,Pumice_rect,3,0,3,0,1,
6429ffe11a9806a9a95ad072,SCR,2024-06-11_12h27.39.516,LearnStrategy,2023.2.3,Win32,60.24096386,1,2,5,,,,,,,,5,07,,,,,,,,,,,,,6,4.029,0,,,,,,-0.146296268,-0.404629686,1,0,0,4.0287,Pegmatite_rect,4,0,4,0,1,
6429ffe11a9806a9a95ad072,SCR,2024-06-11_12h27.39.516,LearnStrategy,2023.2.3,Win32,60.24096386,1,2,6,,,,,,,,3,12,,,,,,,,,,,,,3,7.695,1,,,,,,0.169444444,-0.252777778,1,0,0,7.6946,Diorite_rect,5,0,5,0,1,
6429ffe11a9806a9a95ad072,SCR,2024-06-11_12h27.39.516,LearnStrategy,2023.2.3,Win32,60.24096386,1,2,7,,,,,,,,6,05,,,,,,,,,,,,,3,2.944,0,,,,,,0.168518575,-0.251851908,1,0,0,2.9444,Diorite_rect,6,0,6,0,1,
6429ffe11a9806a9a95ad072,SCR,2024-06-11_12h27.39.516,LearnStrategy,2023.2.3,Win32,60.24096386,1,2,8,,,,,,,,4,08,,,,,,,,,,,,,8,3.379,0,,,,,,0.385185242,-0.387037065,1,0,0,3.379,Pumice_rect,7,0,7,0,1,
6429ffe11a9806a9a95ad072,SCR,2024-06-11_12h27.39.516,LearnStrategy,2023.2.3,Win32,60.24096386,1,2,9,,,,,,,,1,07,,,,,,,,,,,,,4,4.445,0,,,,,,0.382407464,-0.245370399,1,0,0,4.4447,Gabbro_rect,8,0,8,0,1,
6429ffe11a9806a9a95ad072,SCR,2024-06-11_12h27.39.516,LearnStrategy,2023.2.3,Win32,60.24096386,1,2,10,,,,,,,,4,14,,,,,,,,,,,,,6,2.678,0,,,,,,-0.126851824,-0.412963019,1,0,0,2.6777,Pegmatite_rect,9,0,9,0,1,
6429ffe11a9806a9a95ad072,SCR,2024-06-11_12h27.39.516,LearnStrategy,2023.2.3,Win32,60.24096386,1,2,11,,,,,,,,2,16,,,,,,,,,,,,,8,3.345,0,,,,,,0.425925954,-0.384259288,1,0,0,3.345,Pumice_rect,10,0,10,0,1,
6429ffe11a9806a9a95ad072,SCR,2024-06-11_12h27.39.516,LearnStrategy,2023.2.3,Win32,60.24096386,1,2,12,,,,,,,,7,13,,,,,,,,,,,,,1,3.011,0,,,,,,-0.364814801,-0.248148176,1,0,0,3.0114,Andesite_rect,11,0,11,0,1,
6429ffe11a9806a9a95ad072,SCR,2024-06-11_12h27.39.516,LearnStrategy,2023.2.3,Win32,60.24096386,1,2,13,,,,,,,,6,16,,,,,,,,,,,,,4,2.211,0,,,,,,0.428703732,-0.246296353,1,0,0,2.2112,Gabbro_rect,12,0,12,0,1,
6429ffe11a9806a9a95ad072,SCR,2024-06-11_12h27.39.516,LearnStrategy,2023.2.3,Win32,60.24096386,1,2,14,,,,,,,,3,08,,,,,,,,,,,,,6,1.777,0,,,,,,-0.117592536,-0.405555556,1,0,0,1.7774,Pegmatite_rect,13,0,13,0,1,
6429ffe11a9806a9a95ad072,SCR,2024-06-11_12h27.39.516,LearnStrategy,2023.2.3,Win32,60.24096386,1,2,15,,,,,,,,2,02,,,,,,,,,,,,,8,2.745,0,,,,,,0.410185242,-0.384259288,1,0,0,2.7454,Pumice_rect,14,0,14,0,1,
6429ffe11a9806a9a95ad072,SCR,2024-06-11_12h27.39.516,LearnStrategy,2023.2.3,Win32,60.24096386,1,2,16,,,,,,,,5,12,,,,,,,,,,,,,6,4.594,0,,,,,,-0.225925912,-0.393518575,1,0,0,4.5943,Pegmatite_rect,15,0,15,0,1,
6429ffe11a9806a9a95ad072,SCR,2024-06-11_12h27.39.516,LearnStrategy,2023.2.3,Win32,60.24096386,2,1,1,0.065740797,0.107407379,1,0,0,2.0478,Pegmatite_10,6,10,4,5,2.048,7,06,-0.089814758,-0.404629686,1,0,0,3.5442,Pegmatite_rect,6,3.544,1,0,0,0,0,1,,,,,,,,,,,,,
6429ffe11a9806a9a95ad072,SCR,2024-06-11_12h27.39.516,LearnStrategy,2023.2.3,Win32,60.24096386,2,1,2,-0.412037023,0.4074074,1,0,0,2.4305,Pegmatite_11,6,11,6,2,2.43,7,08,-0.075925869,-0.407407464,1,0,0,1.6286,Pegmatite_rect,6,1.629,1,1,0,1,0,1,,,,,,,,,,,,,
6429ffe11a9806a9a95ad072,SCR,2024-06-11_12h27.39.516,LearnStrategy,2023.2.3,Win32,60.24096386,2,1,3,0.061111111,0.263888889,1,0,0,1.5829,Pumice_08,8,08,5,5,1.583,2,09,0.362037065,-0.396296353,1,0,0,1.6105,Pumice_rect,8,1.611,1,2,0,2,0,1,,,,,,,,,,,,,
6429ffe11a9806a9a95ad072,SCR,2024-06-11_12h27.39.516,LearnStrategy,2023.2.3,Win32,60.24096386,2,1,4,-0.540740734,-0.104629644,1,0,0,2.2984,Pumice_10,8,10,3,1,2.298,6,03,0.389814843,-0.393518575,1,0,0,1.7777,Pumice_rect,8,1.778,1,3,0,3,0,1,,,,,,,,,,,,,
6429ffe11a9806a9a95ad072,SCR,2024-06-11_12h27.39.516,LearnStrategy,2023.2.3,Win32,60.24096386,2,1,5,-0.225925912,-0.260185242,1,0,0,2.0993,Obsidian_02,5,02,2,3,2.099,6,07,0.100925954,-0.241666667,1,0,0,3.63,Diorite_rect,3,3.63,0,4,0,4,0,1,,,,,,,,,,,,,
6429ffe11a9806a9a95ad072,SCR,2024-06-11_12h27.39.516,LearnStrategy,2023.2.3,Win32,60.24096386,2,1,6,0.378703732,0.415740739,1,0,0,4.8973,Pumice_03,8,03,6,7,4.897,3,16,0.354629686,-0.390740797,1,0,0,1.1352,Pumice_rect,8,1.135,1,5,0,5,0,1,,,,,,,,,,,,,
6429ffe11a9806a9a95ad072,SCR,2024-06-11_12h27.39.516,LearnStrategy,2023.2.3,Win32,60.24096386,2,1,7,-0.564814801,0.404629623,1,0,0,3.8145,Pumice_16,8,16,6,1,3.815,2,08,0.170370399,-0.398148176,1,0,0,5.494,Peridotite_rect,7,5.494,0,6,0,6,0,1,,,,,,,,,,,,,
6429ffe11a9806a9a95ad072,SCR,2024-06-11_12h27.39.516,LearnStrategy,2023.2.3,Win32,60.24096386,2,1,8,-0.385185157,-0.412037065,1,0,0,3.6823,Diorite_16,3,16,1,2,3.682,8,16,-0.11851849,-0.382407464,1,0,0,2.408,Pegmatite_rect,6,2.408,0,7,0,7,0,1,,,,,,,,,,,,,
6429ffe11a9806a9a95ad072,SCR,2024-06-11_12h27.39.516,LearnStrategy,2023.2.3,Win32,60.24096386,2,1,9,0.397222222,0.1,1,0,0,5.4002,Obsidian_09,5,09,4,7,5.4,5,09,-0.367592578,-0.407407464,1,0,0,1.2407,Obsidian_rect,5,1.241,1,8,0,8,0,1,,,,,,,,,,,,,
6429ffe11a9806a9a95ad072,SCR,2024-06-11_12h27.39.516,LearnStrategy,2023.2.3,Win32,60.24096386,2,1,10,0.047222222,-0.070370399,1,0,0,1.6512,Andesite_14,1,14,3,5,1.651,1,14,-0.356481467,-0.404629686,1,0,0,3.4626,Obsidian_rect,5,3.463,0,9,0,9,0,1,,,,,,,,,,,,,
6429ffe11a9806a9a95ad072,SCR,2024-06-11_12h27.39.516,LearnStrategy,2023.2.3,Win32,60.24096386,2,1,11,0.563888889,-0.416666667,1,0,0,2.3336,Gabbro_15,4,15,1,8,2.334,4,15,-0.377777778,-0.248148176,1,0,0,1.6076,Andesite_rect,1,1.608,0,10,0,10,0,1,,,,,,,,,,,,,
6429ffe11a9806a9a95ad072,SCR,2024-06-11_12h27.39.516,LearnStrategy,2023.2.3,Win32,60.24096386,2,1,12,-0.565740734,-0.100925954,1,0,0,1.7342,Pumice_10,8,10,3,1,1.734,8,10,-0.387962935,-0.402777778,1,0,0,2.365,Obsidian_rect,5,2.365,0,11,0,11,0,1,,,,,,,,,,,,,
6429ffe11a9806a9a95ad072,SCR,2024-06-11_12h27.39.516,LearnStrategy,2023.2.3,Win32,60.24096386,2,1,13,0.393518575,-0.417592621,1,0,0,5.1495,Andesite_02,1,02,1,7,5.149,4,10,0.389814843,-0.409259288,1,0,0,1.535,Pumice_rect,8,1.535,0,12,0,12,0,1,,,,,,,,,,,,,
6429ffe11a9806a9a95ad072,SCR,2024-06-11_12h27.39.516,LearnStrategy,2023.2.3,Win32,60.24096386,2,1,14,0.222222222,0.248148134,1,0,0,1.8821,Diorite_09,3,09,5,6,1.882,6,11,0.134259288,-0.244444444,1,0,0,1.3275,Diorite_rect,3,1.328,1,13,0,13,0,1,,,,,,,,,,,,,
6429ffe11a9806a9a95ad072,SCR,2024-06-11_12h27.39.516,LearnStrategy,2023.2.3,Win32,60.24096386,2,1,15,0.052777778,0.090740712,1,0,0,1.1988,Pegmatite_10,6,10,4,5,1.199,1,16,-0.096296268,-0.407407464,1,0,0,2.2771,Pegmatite_rect,6,2.277,1,14,0,14,0,1,,,,,,,,,,,,,
6429ffe11a9806a9a95ad072,SCR,2024-06-11_12h27.39.516,LearnStrategy,2023.2.3,Win32,60.24096386,2,1,16,-0.256481467,-0.12129631,1,0,0,1.4981,Obsidian_08,5,08,3,3,1.498,5,08,-0.387962935,-0.246296353,1,0,0,3.3271,Andesite_rect,1,3.327,0,15,0,15,0,1,,,,,,,,,,,,,
6429ffe11a9806a9a95ad072,SCR,2024-06-11_12h27.39.516,LearnStrategy,2023.2.3,Win32,60.24096386,2,2,1,,,,,,,,5,04,,,,,,,,,,,,,5,3.044,1,,,,,,-0.363888889,-0.395370399,1,0,0,3.0439,Obsidian_rect,0,0,0,0,1,
6429ffe11a9806a9a95ad072,SCR,2024-06-11_12h27.39.516,LearnStrategy,2023.2.3,Win32,60.24096386,2,2,2,,,,,,,,2,05,,,,,,,,,,,,,2,2.694,1,,,,,,-0.145370314,-0.241666667,1,0,0,2.6942,Basalt_rect,1,0,1,0,1,
6429ffe11a9806a9a95ad072,SCR,2024-06-11_12h27.39.516,LearnStrategy,2023.2.3,Win32,60.24096386,2,2,3,,,,,,,,6,09,,,,,,,,,,,,,6,1.728,1,,,,,,-0.109259203,-0.4,1,0,0,1.7277,Pegmatite_rect,2,0,2,0,1,
6429ffe11a9806a9a95ad072,SCR,2024-06-11_12h27.39.516,LearnStrategy,2023.2.3,Win32,60.24096386,2,2,4,,,,,,,,1,06,,,,,,,,,,,,,8,1.711,0,,,,,,0.401851908,-0.38148151,1,0,0,1.7112,Pumice_rect,3,0,3,0,1,
6429ffe11a9806a9a95ad072,SCR,2024-06-11_12h27.39.516,LearnStrategy,2023.2.3,Win32,60.24096386,2,2,5,,,,,,,,1,09,,,,,,,,,,,,,8,0.944,0,,,,,,0.397222222,-0.387037065,1,0,0,0.9442,Pumice_rect,4,0,4,0,1,
6429ffe11a9806a9a95ad072,SCR,2024-06-11_12h27.39.516,LearnStrategy,2023.2.3,Win32,60.24096386,2,2,6,,,,,,,,5,14,,,,,,,,,,,,,5,2.778,1,,,,,,-0.369444444,-0.401851908,1,0,0,2.7782,Obsidian_rect,5,0,5,0,1,
6429ffe11a9806a9a95ad072,SCR,2024-06-11_12h27.39.516,LearnStrategy,2023.2.3,Win32,60.24096386,2,2,7,,,,,,,,2,12,,,,,,,,,,,,,8,2.777,0,,,,,,0.405555556,-0.401851908,1,0,0,2.7773,Pumice_rect,6,0,6,0,1,
6429ffe11a9806a9a95ad072,SCR,2024-06-11_12h27.39.516,LearnStrategy,2023.2.3,Win32,60.24096386,2,2,8,,,,,,,,8,06,,,,,,,,,,,,,8,1.046,1,,,,,,0.415740797,-0.387963019,1,0,0,1.0464,Pumice_rect,7,0,7,0,1,
6429ffe11a9806a9a95ad072,SCR,2024-06-11_12h27.39.516,LearnStrategy,2023.2.3,Win32,60.24096386,2,2,9,,,,,,,,3,15,,,,,,,,,,,,,8,1.511,0,,,,,,0.40648151,-0.396296353,1,0,0,1.5109,Pumice_rect,8,0,8,0,1,
6429ffe11a9806a9a95ad072,SCR,2024-06-11_12h27.39.516,LearnStrategy,2023.2.3,Win32,60.24096386,2,2,10,,,,,,,,4,01,,,,,,,,,,,,,4,1.661,1,,,,,,0.399074131,-0.251851908,1,0,0,1.6614,Gabbro_rect,9,0,9,0,1,
6429ffe11a9806a9a95ad072,SCR,2024-06-11_12h27.39.516,LearnStrategy,2023.2.3,Win32,60.24096386,2,2,11,,,,,,,,7,14,,,,,,,,,,,,,3,1.928,0,,,,,,0.146296353,-0.264814843,1,0,0,1.9279,Diorite_rect,10,0,10,0,1,
6429ffe11a9806a9a95ad072,SCR,2024-06-11_12h27.39.516,LearnStrategy,2023.2.3,Win32,60.24096386,2,2,12,,,,,,,,4,03,,,,,,,,,,,,,2,1.745,0,,,,,,-0.17870369,-0.264814843,1,0,0,1.7451,Basalt_rect,11,0,11,0,1,
6429ffe11a9806a9a95ad072,SCR,2024-06-11_12h27.39.516,LearnStrategy,2023.2.3,Win32,60.24096386,2,2,13,,,,,,,,7,05,,,,,,,,,,,,,1,2.095,0,,,,,,-0.37870369,-0.245370399,1,0,0,2.0947,Andesite_rect,12,0,12,0,1,
6429ffe11a9806a9a95ad072,SCR,2024-06-11_12h27.39.516,LearnStrategy,2023.2.3,Win32,60.24096386,2,2,14,,,,,,,,8,02,,,,,,,,,,,,,8,1.511,1,,,,,,0.404629686,-0.383333333,1,0,0,1.5109,Pumice_rect,13,0,13,0,1,
6429ffe11a9806a9a95ad072,SCR,2024-06-11_12h27.39.516,LearnStrategy,2023.2.3,Win32,60.24096386,2,2,15,,,,,,,,6,08,,,,,,,,,,,,,5,2.958,0,,,,,,-0.400925912,-0.403703732,1,0,0,2.9579,Obsidian_rect,14,0,14,0,1,
6429ffe11a9806a9a95ad072,SCR,2024-06-11_12h27.39.516,LearnStrategy,2023.2.3,Win32,60.24096386,2,2,16,,,,,,,,3,07,,,,,,,,,,,,,2,1.561,0,,,,,,-0.126851824,-0.237963019,1,0,0,1.5614,Basalt_rect,15,0,15,0,1,
6429ffe11a9806a9a95ad072,SCR,2024-06-11_12h27.39.516,LearnStrategy,2023.2.3,Win32,60.24096386,3,1,1,0.063888889,0.112962935,1,0,0,1.0828,Pegmatite_10,6,10,4,5,1.083,6,15,-0.135185157,-0.396296353,1,0,0,4.098,Pegmatite_rect,6,4.098,1,0,0,0,0,1,,,,,,,,,,,,,
6429ffe11a9806a9a95ad072,SCR,2024-06-11_12h27.39.516,LearnStrategy,2023.2.3,Win32,60.24096386,3,1,2,-0.541666667,-0.419444444,1,0,0,2.8827,Obsidian_11,5,11,1,1,2.883,3,14,-0.382407379,-0.387963019,1,0,0,0.8908,Obsidian_rect,5,0.891,1,1,0,1,0,1,,,,,,,,,,,,,
6429ffe11a9806a9a95ad072,SCR,2024-06-11_12h27.39.516,LearnStrategy,2023.2.3,Win32,60.24096386,3,1,3,0.384259288,-0.423148176,1,0,0,5.3826,Andesite_02,1,02,1,7,5.383,7,15,0.386111111,-0.405555556,1,0,0,1.2755,Pumice_rect,8,1.275,0,2,0,2,0,1,,,,,,,,,,,,,
6429ffe11a9806a9a95ad072,SCR,2024-06-11_12h27.39.516,LearnStrategy,2023.2.3,Win32,60.24096386,3,1,4,0.212037065,0.405555556,1,0,0,2.9339,Peridotite_02,7,02,6,6,2.934,7,02,-0.34351849,-0.242592621,1,0,0,2.1933,Andesite_rect,1,2.193,0,3,0,3,0,1,,,,,,,,,,,,,
6429ffe11a9806a9a95ad072,SCR,2024-06-11_12h27.39.516,LearnStrategy,2023.2.3,Win32,60.24096386,3,1,5,0.233333333,0.087037023,1,0,0,1.9997,Gabbro_05,4,05,4,6,2,4,10,0.175,-0.262963019,1,0,0,1.0488,Diorite_rect,3,1.049,0,4,0,4,0,1,,,,,,,,,,,,,
6429ffe11a9806a9a95ad072,SCR,2024-06-11_12h27.39.516,LearnStrategy,2023.2.3,Win32,60.24096386,3,1,6,-0.237037023,0.079629601,1,0,0,1.0505,Diorite_10,3,10,4,3,1.051,8,16,-0.104629601,-0.246296353,1,0,0,2.1803,Basalt_rect,2,2.18,0,5,0,5,0,1,,,,,,,,,,,,,
6429ffe11a9806a9a95ad072,SCR,2024-06-11_12h27.39.516,LearnStrategy,2023.2.3,Win32,60.24096386,3,1,7,-0.088888889,-0.089814843,1,0,0,1.2175,Obsidian_06,5,06,3,4,1.217,1,11,-0.358333333,-0.392592621,1,0,0,1.531,Obsidian_rect,5,1.531,1,6,0,6,0,1,,,,,,,,,,,,,
6429ffe11a9806a9a95ad072,SCR,2024-06-11_12h27.39.516,LearnStrategy,2023.2.3,Win32,60.24096386,3,1,8,0.098148176,-0.409259288,1,0,0,2.3191,Pegmatite_15,6,15,1,5,2.319,2,08,-0.362962935,-0.398148176,1,0,0,1.3306,Obsidian_rect,5,1.331,0,7,0,7,0,1,,,,,,,,,,,,,
6429ffe11a9806a9a95ad072,SCR,2024-06-11_12h27.39.516,LearnStrategy,2023.2.3,Win32,60.24096386,3,1,9,0.209259288,0.098148134,1,0,0,1.5837,Gabbro_05,4,05,4,6,1.584,4,05,-0.152777778,-0.391666667,1,0,0,1.6288,Pegmatite_rect,6,1.629,0,8,0,8,0,1,,,,,,,,,,,,,
6429ffe11a9806a9a95ad072,SCR,2024-06-11_12h27.39.516,LearnStrategy,2023.2.3,Win32,60.24096386,3,1,10,0.218518575,0.273148134,1,0,0,1.283,Diorite_09,3,09,5,6,1.283,1,14,0.362037065,-0.253703732,1,0,0,1.4809,Gabbro_rect,4,1.481,0,9,0,9,0,1,,,,,,,,,,,,,
6429ffe11a9806a9a95ad072,SCR,2024-06-11_12h27.39.516,LearnStrategy,2023.2.3,Win32,60.24096386,3,1,11,0.062037065,0.252777778,1,0,0,1.4006,Pumice_08,8,08,5,5,1.401,1,04,0.38148151,-0.410185242,1,0,0,1.1811,Pumice_rect,8,1.181,1,10,0,10,0,1,,,,,,,,,,,,,
6429ffe11a9806a9a95ad072,SCR,2024-06-11_12h27.39.516,LearnStrategy,2023.2.3,Win32,60.24096386,3,1,12,-0.096296268,0.094444444,1,0,0,1.8331,Pumice_09,8,09,4,4,1.833,2,09,0.364814843,-0.241666667,1,0,0,1.581,Gabbro_rect,4,1.581,0,11,0,11,0,1,,,,,,,,,,,,,
6429ffe11a9806a9a95ad072,SCR,2024-06-11_12h27.39.516,LearnStrategy,2023.2.3,Win32,60.24096386,3,1,13,-0.555555556,0.397222222,1,0,0,1.9655,Pumice_16,8,16,6,1,1.966,2,10,0.141666667,-0.387963019,1,0,0,2.6307,Peridotite_rect,7,2.631,0,12,0,12,0,1,,,,,,,,,,,,,
6429ffe11a9806a9a95ad072,SCR,2024-06-11_12h27.39.516,LearnStrategy,2023.2.3,Win32,60.24096386,3,1,14,-0.371296268,0.419444444,1,0,0,1.1673,Pegmatite_11,6,11,6,2,1.167,3,10,-0.341666667,-0.40648151,1,0,0,1.4472,Obsidian_rect,5,1.447,0,13,0,13,0,1,,,,,,,,,,,,,
6429ffe11a9806a9a95ad072,SCR,2024-06-11_12h27.39.516,LearnStrategy,2023.2.3,Win32,60.24096386,3,1,15,-0.231481467,0.4074074,1,0,0,1.1341,Basalt_14,2,14,6,3,1.134,5,16,0.377777778,-0.23148151,1,0,0,1.7304,Gabbro_rect,4,1.73,0,14,0,14,0,1,,,,,,,,,,,,,
6429ffe11a9806a9a95ad072,SCR,2024-06-11_12h27.39.516,LearnStrategy,2023.2.3,Win32,60.24096386,3,1,16,-0.074074046,0.412962961,1,0,0,1.1675,Gabbro_10,4,10,6,4,1.168,6,10,0.446296353,-0.397222222,1,0,0,1.6471,Pumice_rect,8,1.647,0,15,0,15,0,1,,,,,,,,,,,,,
6429ffe11a9806a9a95ad072,SCR,2024-06-11_12h27.39.516,LearnStrategy,2023.2.3,Win32,60.24096386,3,2,1,,,,,,,,3,13,,,,,,,,,,,,,2,2.043,0,,,,,,-0.125925869,-0.249074131,1,0,0,2.0433,Basalt_rect,0,0,0,0,1,
6429ffe11a9806a9a95ad072,SCR,2024-06-11_12h27.39.516,LearnStrategy,2023.2.3,Win32,60.24096386,3,2,2,,,,,,,,5,05,,,,,,,,,,,,,5,1.767,1,,,,,,-0.362962935,-0.387963019,1,0,0,1.7667,Obsidian_rect,1,0,1,0,1,
6429ffe11a9806a9a95ad072,SCR,2024-06-11_12h27.39.516,LearnStrategy,2023.2.3,Win32,60.24096386,3,2,3,,,,,,,,6,12,,,,,,,,,,,,,1,2.652,0,,,,,,-0.390740712,-0.240740797,1,0,0,2.6524,Andesite_rect,2,0,2,0,1,
6429ffe11a9806a9a95ad072,SCR,2024-06-11_12h27.39.516,LearnStrategy,2023.2.3,Win32,60.24096386,3,2,4,,,,,,,,7,16,,,,,,,,,,,,,2,1.361,0,,,,,,-0.145370314,-0.229629686,1,0,0,1.361,Basalt_rect,3,0,3,0,1,
6429ffe11a9806a9a95ad072,SCR,2024-06-11_12h27.39.516,LearnStrategy,2023.2.3,Win32,60.24096386,3,2,5,,,,,,,,5,10,,,,,,,,,,,,,5,1.234,1,,,,,,-0.357407379,-0.398148176,1,0,0,1.2342,Obsidian_rect,4,0,4,0,1,
6429ffe11a9806a9a95ad072,SCR,2024-06-11_12h27.39.516,LearnStrategy,2023.2.3,Win32,60.24096386,3,2,6,,,,,,,,6,13,,,,,,,,,,,,,6,1.783,1,,,,,,-0.073148092,-0.379629686,1,0,0,1.783,Pegmatite_rect,5,0,5,0,1,
6429ffe11a9806a9a95ad072,SCR,2024-06-11_12h27.39.516,LearnStrategy,2023.2.3,Win32,60.24096386,3,2,7,,,,,,,,2,06,,,,,,,,,,,,,5,1.331,0,,,,,,-0.360185157,-0.401851908,1,0,0,1.3311,Obsidian_rect,6,0,6,0,1,
6429ffe11a9806a9a95ad072,SCR,2024-06-11_12h27.39.516,LearnStrategy,2023.2.3,Win32,60.24096386,3,2,8,,,,,,,,1,01,,,,,,,,,,,,,2,1.618,0,,,,,,-0.170370314,-0.250925954,1,0,0,1.6177,Basalt_rect,7,0,7,0,1,
6429ffe11a9806a9a95ad072,SCR,2024-06-11_12h27.39.516,LearnStrategy,2023.2.3,Win32,60.24096386,3,2,9,,,,,,,,2,11,,,,,,,,,,,,,8,1.214,0,,,,,,0.437963019,-0.38148151,1,0,0,1.2139,Pumice_rect,8,0,8,0,1,
6429ffe11a9806a9a95ad072,SCR,2024-06-11_12h27.39.516,LearnStrategy,2023.2.3,Win32,60.24096386,3,2,10,,,,,,,,7,04,,,,,,,,,,,,,6,1.934,0,,,,,,-0.114814758,-0.403703732,1,0,0,1.9336,Pegmatite_rect,9,0,9,0,1,
6429ffe11a9806a9a95ad072,SCR,2024-06-11_12h27.39.516,LearnStrategy,2023.2.3,Win32,60.24096386,3,2,11,,,,,,,,3,02,,,,,,,,,,,,,7,1.664,0,,,,,,0.10648151,-0.390740797,1,0,0,1.6644,Peridotite_rect,10,0,10,0,1,
6429ffe11a9806a9a95ad072,SCR,2024-06-11_12h27.39.516,LearnStrategy,2023.2.3,Win32,60.24096386,3,2,12,,,,,,,,8,13,,,,,,,,,,,,,8,1.117,1,,,,,,0.415740797,-0.382407464,1,0,0,1.1169,Pumice_rect,11,0,11,0,1,
6429ffe11a9806a9a95ad072,SCR,2024-06-11_12h27.39.516,LearnStrategy,2023.2.3,Win32,60.24096386,3,2,13,,,,,,,,1,05,,,,,,,,,,,,,3,1.3,0,,,,,,0.162963019,-0.260185242,1,0,0,1.3004,Diorite_rect,12,0,12,0,1,
6429ffe11a9806a9a95ad072,SCR,2024-06-11_12h27.39.516,LearnStrategy,2023.2.3,Win32,60.24096386,3,2,14,,,,,,,,8,05,,,,,,,,,,,,,8,1.084,1,,,,,,0.454629686,-0.38148151,1,0,0,1.0836,Pumice_rect,13,0,13,0,1,
6429ffe11a9806a9a95ad072,SCR,2024-06-11_12h27.39.516,LearnStrategy,2023.2.3,Win32,60.24096386,3,2,15,,,,,,,,4,16,,,,,,,,,,,,,6,1.438,0,,,,,,-0.085185157,-0.401851908,1,0,0,1.4376,Pegmatite_rect,14,0,14,0,1,
6429ffe11a9806a9a95ad072,SCR,2024-06-11_12h27.39.516,LearnStrategy,2023.2.3,Win32,60.24096386,3,2,16,,,,,,,,4,13,,,,,,,,,,,,,1,1.466,0,,,,,,-0.362037023,-0.238888889,1,0,0,1.4665,Andesite_rect,15,0,15,0,1,
6429ffe11a9806a9a95ad072,SCR,2024-06-11_12h27.39.516,LearnStrategy,2023.2.3,Win32,60.24096386,4,1,1,-0.542592578,0.416666667,1,0,0,1.3352,Pumice_16,8,16,6,1,1.335,7,06,-0.373148134,-0.25648151,1,0,0,5.1125,Andesite_rect,1,5.113,0,0,0,0,0,1,,,,,,,,,,,,,
6429ffe11a9806a9a95ad072,SCR,2024-06-11_12h27.39.516,LearnStrategy,2023.2.3,Win32,60.24096386,4,1,2,-0.394444444,0.414814811,1,0,0,1.4004,Pegmatite_11,6,11,6,2,1.4,2,09,-0.375,-0.390740797,1,0,0,1.2139,Obsidian_rect,5,1.214,0,1,0,1,0,1,,,,,,,,,,,,,
6429ffe11a9806a9a95ad072,SCR,2024-06-11_12h27.39.516,LearnStrategy,2023.2.3,Win32,60.24096386,4,1,3,-0.239814801,0.4074074,1,0,0,1.1012,Basalt_14,2,14,6,3,1.101,4,10,0.143518575,-0.394444444,1,0,0,2.414,Peridotite_rect,7,2.414,0,2,0,2,0,1,,,,,,,,,,,,,
6429ffe11a9806a9a95ad072,SCR,2024-06-11_12h27.39.516,LearnStrategy,2023.2.3,Win32,60.24096386,4,1,4,0.073148176,0.095370356,1,0,0,1.5175,Pegmatite_10,6,10,4,5,1.518,5,11,-0.075925869,-0.403703732,1,0,0,0.8977,Pegmatite_rect,6,0.898,1,3,0,3,0,1,,,,,,,,,,,,,
6429ffe11a9806a9a95ad072,SCR,2024-06-11_12h27.39.516,LearnStrategy,2023.2.3,Win32,60.24096386,4,1,5,0.384259288,-0.411111111,1,0,0,1.8686,Andesite_02,1,02,1,7,1.869,3,11,0.412963019,-0.393518575,1,0,0,2.0629,Pumice_rect,8,2.063,0,4,0,4,0,1,,,,,,,,,,,,,
6429ffe11a9806a9a95ad072,SCR,2024-06-11_12h27.39.516,LearnStrategy,2023.2.3,Win32,60.24096386,4,1,6,0.079629686,0.080555556,1,0,0,1.5504,Pegmatite_10,6,10,4,5,1.55,8,03,-0.137962935,-0.400925954,1,0,0,1.0642,Pegmatite_rect,6,1.064,1,5,0,5,0,1,,,,,,,,,,,,,
6429ffe11a9806a9a95ad072,SCR,2024-06-11_12h27.39.516,LearnStrategy,2023.2.3,Win32,60.24096386,4,1,7,-0.220370356,-0.244444444,1,0,0,2.5828,Obsidian_02,5,02,2,3,2.583,6,06,-0.348148134,-0.387037065,1,0,0,1.1649,Obsidian_rect,5,1.165,1,6,0,6,0,1,,,,,,,,,,,,,
6429ffe11a9806a9a95ad072,SCR,2024-06-11_12h27.39.516,LearnStrategy,2023.2.3,Win32,60.24096386,4,1,8,-0.529629601,-0.417592621,1,0,0,1.0656,Obsidian_11,5,11,1,1,1.066,1,02,-0.40370369,-0.390740797,1,0,0,1.6803,Obsidian_rect,5,1.68,1,7,0,7,0,1,,,,,,,,,,,,,
6429ffe11a9806a9a95ad072,SCR,2024-06-11_12h27.39.516,LearnStrategy,2023.2.3,Win32,60.24096386,4,1,9,0.228703732,0.249074067,1,0,0,2.353,Diorite_09,3,09,5,6,2.353,1,02,0.125925954,-0.400925954,1,0,0,1.3975,Peridotite_rect,7,1.397,0,8,0,8,0,1,,,,,,,,,,,,,
6429ffe11a9806a9a95ad072,SCR,2024-06-11_12h27.39.516,LearnStrategy,2023.2.3,Win32,60.24096386,4,1,10,-0.373148134,-0.086111111,1,0,0,1.5003,Peridotite_15,7,15,3,2,1.5,6,10,0.384259288,-0.25648151,1,0,0,1.3144,Gabbro_rect,4,1.314,0,9,0,9,0,1,,,,,,,,,,,,,
6429ffe11a9806a9a95ad072,SCR,2024-06-11_12h27.39.516,LearnStrategy,2023.2.3,Win32,60.24096386,4,1,11,-0.212962935,-0.272222222,1,0,0,1.0022,Obsidian_02,5,02,2,3,1.002,1,16,-0.331481467,-0.395370399,1,0,0,1.5484,Obsidian_rect,5,1.548,1,10,0,10,0,1,,,,,,,,,,,,,
6429ffe11a9806a9a95ad072,SCR,2024-06-11_12h27.39.516,LearnStrategy,2023.2.3,Win32,60.24096386,4,1,12,-0.562962956,-0.102777778,1,0,0,1.7178,Pumice_10,8,10,3,1,1.718,7,10,0.143518575,-0.392592621,1,0,0,2.2468,Peridotite_rect,7,2.247,0,11,0,11,0,1,,,,,,,,,,,,,
6429ffe11a9806a9a95ad072,SCR,2024-06-11_12h27.39.516,LearnStrategy,2023.2.3,Win32,60.24096386,4,1,13,-0.537037023,0.234259245,1,0,0,2.4004,Andesite_16,1,16,5,1,2.4,7,02,0.422222222,-0.229629686,1,0,0,1.3304,Gabbro_rect,4,1.33,0,12,0,12,0,1,,,,,,,,,,,,,
6429ffe11a9806a9a95ad072,SCR,2024-06-11_12h27.39.516,LearnStrategy,2023.2.3,Win32,60.24096386,4,1,14,0.577777778,0.255555556,1,0,0,1.3502,Peridotite_10,7,10,5,8,1.35,4,12,0.175925954,-0.25648151,1,0,0,1.031,Diorite_rect,3,1.031,0,13,0,13,0,1,,,,,,,,,,,,,
6429ffe11a9806a9a95ad072,SCR,2024-06-11_12h27.39.516,LearnStrategy,2023.2.3,Win32,60.24096386,4,1,15,0.552777778,-0.420370399,1,0,0,2.9174,Gabbro_15,4,15,1,8,2.917,3,06,0.340740797,-0.395370399,1,0,0,1.4244,Pumice_rect,8,1.424,0,14,0,14,0,1,,,,,,,,,,,,,
6429ffe11a9806a9a95ad072,SCR,2024-06-11_12h27.39.516,LearnStrategy,2023.2.3,Win32,60.24096386,4,1,16,0.553703817,-0.249074131,1,0,0,1.351,Gabbro_12,4,12,2,8,1.351,2,01,-0.104629601,-0.262963019,1,0,0,1.3295,Basalt_rect,2,1.33,0,15,0,15,0,1,,,,,,,,,,,,,
6429ffe11a9806a9a95ad072,SCR,2024-06-11_12h27.39.516,LearnStrategy,2023.2.3,Win32,60.24096386,4,2,1,,,,,,,,6,13,,,,,,,,,,,,,4,4.183,0,,,,,,0.440740797,-0.244444444,1,0,0,4.1829,Gabbro_rect,0,0,0,0,1,
6429ffe11a9806a9a95ad072,SCR,2024-06-11_12h27.39.516,LearnStrategy,2023.2.3,Win32,60.24096386,4,2,2,,,,,,,,5,05,,,,,,,,,,,,,5,1.444,1,,,,,,-0.362962935,-0.407407464,1,0,0,1.444,Obsidian_rect,1,0,1,0,1,
6429ffe11a9806a9a95ad072,SCR,2024-06-11_12h27.39.516,LearnStrategy,2023.2.3,Win32,60.24096386,4,2,3,,,,,,,,1,07,,,,,,,,,,,,,7,2.284,0,,,,,,0.150925954,-0.387963019,1,0,0,2.284,Peridotite_rect,2,0,2,0,1,
6429ffe11a9806a9a95ad072,SCR,2024-06-11_12h27.39.516,LearnStrategy,2023.2.3,Win32,60.24096386,4,2,4,,,,,,,,2,11,,,,,,,,,,,,,8,1.317,0,,,,,,0.337963019,-0.395370399,1,0,0,1.3166,Pumice_rect,3,0,3,0,1,
6429ffe11a9806a9a95ad072,SCR,2024-06-11_12h27.39.516,LearnStrategy,2023.2.3,Win32,60.24096386,4,2,5,,,,,,,,7,05,,,,,,,,,,,,,3,1.934,0,,,,,,0.175,-0.247222222,1,0,0,1.9339,Diorite_rect,4,0,4,0,1,
6429ffe11a9806a9a95ad072,SCR,2024-06-11_12h27.39.516,LearnStrategy,2023.2.3,Win32,60.24096386,4,2,6,,,,,,,,6,05,,,,,,,,,,,,,5,1.484,0,,,,,,-0.438888889,-0.408333333,1,0,0,1.4841,Obsidian_rect,5,0,5,0,1,
6429ffe11a9806a9a95ad072,SCR,2024-06-11_12h27.39.516,LearnStrategy,2023.2.3,Win32,60.24096386,4,2,7,,,,,,,,5,10,,,,,,,,,,,,,5,1.034,1,,,,,,-0.426851824,-0.409259288,1,0,0,1.0344,Obsidian_rect,6,0,6,0,1,
6429ffe11a9806a9a95ad072,SCR,2024-06-11_12h27.39.516,LearnStrategy,2023.2.3,Win32,60.24096386,4,2,8,,,,,,,,3,13,,,,,,,,,,,,,6,1.45,0,,,,,,-0.086111111,-0.391666667,1,0,0,1.4496,Pegmatite_rect,7,0,7,0,1,
6429ffe11a9806a9a95ad072,SCR,2024-06-11_12h27.39.516,LearnStrategy,2023.2.3,Win32,60.24096386,4,2,9,,,,,,,,8,05,,,,,,,,,,,,,8,1.218,1,,,,,,0.422222222,-0.378703732,1,0,0,1.2176,Pumice_rect,8,0,8,0,1,
6429ffe11a9806a9a95ad072,SCR,2024-06-11_12h27.39.516,LearnStrategy,2023.2.3,Win32,60.24096386,4,2,10,,,,,,,,2,12,,,,,,,,,,,,,3,1.634,0,,,,,,0.175,-0.25648151,1,0,0,1.6337,Diorite_rect,9,0,9,0,1,
6429ffe11a9806a9a95ad072,SCR,2024-06-11_12h27.39.516,LearnStrategy,2023.2.3,Win32,60.24096386,4,2,11,,,,,,,,4,01,,,,,,,,,,,,,7,1.05,0,,,,,,0.144444444,-0.388888889,1,0,0,1.0504,Peridotite_rect,10,0,10,0,1,
6429ffe11a9806a9a95ad072,SCR,2024-06-11_12h27.39.516,LearnStrategy,2023.2.3,Win32,60.24096386,4,2,12,,,,,,,,4,16,,,,,,,,,,,,,6,2.167,0,,,,,,-0.152777778,-0.400925954,1,0,0,2.1674,Pegmatite_rect,11,0,11,0,1,
6429ffe11a9806a9a95ad072,SCR,2024-06-11_12h27.39.516,LearnStrategy,2023.2.3,Win32,60.24096386,4,2,13,,,,,,,,8,06,,,,,,,,,,,,,8,1.833,1,,,,,,0.410185242,-0.379629686,1,0,0,1.8328,Pumice_rect,12,0,12,0,1,
6429ffe11a9806a9a95ad072,SCR,2024-06-11_12h27.39.516,LearnStrategy,2023.2.3,Win32,60.24096386,4,2,14,,,,,,,,7,04,,,,,,,,,,,,,6,2.279,0,,,,,,-0.115740712,-0.403703732,1,0,0,2.2785,Pegmatite_rect,13,0,13,0,1,
6429ffe11a9806a9a95ad072,SCR,2024-06-11_12h27.39.516,LearnStrategy,2023.2.3,Win32,60.24096386,4,2,15,,,,,,,,1,05,,,,,,,,,,,,,7,1.183,0,,,,,,0.119444444,-0.390740797,1,0,0,1.1828,Peridotite_rect,14,0,14,0,1,
6429ffe11a9806a9a95ad072,SCR,2024-06-11_12h27.39.516,LearnStrategy,2023.2.3,Win32,60.24096386,4,2,16,,,,,,,,3,07,,,,,,,,,,,,,4,1.65,0,,,,,,0.376851908,-0.252777778,1,0,0,1.65,Gabbro_rect,15,0,15,0,1,
6429ffe11a9806a9a95ad072,SCR,2024-06-11_12h27.39.516,LearnStrategy,2023.2.3,Win32,60.24096386,5,1,1,-0.564814801,0.421296295,1,0,0,1.1332,Pumice_16,8,16,6,1,1.133,2,14,-0.340740712,-0.235185242,1,0,0,2.3141,Andesite_rect,1,2.314,0,0,0,0,0,1,,,,,,,,,,,,,
6429ffe11a9806a9a95ad072,SCR,2024-06-11_12h27.39.516,LearnStrategy,2023.2.3,Win32,60.24096386,5,1,2,-0.410185157,0.405555556,1,0,0,2.1499,Pegmatite_11,6,11,6,2,2.15,6,10,-0.137036981,-0.414814843,1,0,0,2.8191,Pegmatite_rect,6,2.819,1,1,0,1,0,1,,,,,,,,,,,,,
6429ffe11a9806a9a95ad072,SCR,2024-06-11_12h27.39.516,LearnStrategy,2023.2.3,Win32,60.24096386,5,1,3,0.092592621,0.069444444,1,0,0,3.3199,Pegmatite_10,6,10,4,5,3.32,7,08,-0.113888889,-0.416666667,1,0,0,1.1248,Pegmatite_rect,6,1.125,1,2,0,2,0,1,,,,,,,,,,,,,
6429ffe11a9806a9a95ad072,SCR,2024-06-11_12h27.39.516,LearnStrategy,2023.2.3,Win32,60.24096386,5,1,4,-0.550925912,-0.407407464,1,0,0,1.8168,Obsidian_11,5,11,1,1,1.817,3,06,-0.365740712,-0.390740797,1,0,0,1.3471,Obsidian_rect,5,1.347,1,3,0,3,0,1,,,,,,,,,,,,,
6429ffe11a9806a9a95ad072,SCR,2024-06-11_12h27.39.516,LearnStrategy,2023.2.3,Win32,60.24096386,5,1,5,-0.262037023,-0.251851908,1,0,0,1.3503,Obsidian_02,5,02,2,3,1.35,3,11,-0.385185157,-0.390740797,1,0,0,1.9474,Obsidian_rect,5,1.947,1,4,0,4,0,1,,,,,,,,,,,,,
6429ffe11a9806a9a95ad072,SCR,2024-06-11_12h27.39.516,LearnStrategy,2023.2.3,Win32,60.24096386,5,1,6,0.414814843,0.421296295,1,0,0,3.5835,Pumice_03,8,03,6,7,3.583,7,06,0.386111111,-0.395370399,1,0,0,1.5353,Pumice_rect,8,1.535,1,5,0,5,0,1,,,,,,,,,,,,,
6429ffe11a9806a9a95ad072,SCR,2024-06-11_12h27.39.516,LearnStrategy,2023.2.3,Win32,60.24096386,5,1,7,0.553703817,-0.262963019,1,0,0,1.5653,Gabbro_12,4,12,2,8,1.565,3,11,0.162037065,-0.410185242,1,0,0,2.5938,Peridotite_rect,7,2.594,0,6,0,6,0,1,,,,,,,,,,,,,
6429ffe11a9806a9a95ad072,SCR,2024-06-11_12h27.39.516,LearnStrategy,2023.2.3,Win32,60.24096386,5,1,8,0.539814928,-0.246296353,1,0,0,1.1989,Gabbro_12,4,12,2,8,1.199,4,11,0.412037065,-0.252777778,1,0,0,1.0771,Gabbro_rect,4,1.077,1,7,0,7,0,1,,,,,,,,,,,,,
6429ffe11a9806a9a95ad072,SCR,2024-06-11_12h27.39.516,LearnStrategy,2023.2.3,Win32,60.24096386,5,1,9,0.569444444,-0.237037065,1,0,0,0.9658,Gabbro_12,4,12,2,8,0.966,6,06,0.387037065,-0.250925954,1,0,0,1.5943,Gabbro_rect,4,1.594,1,8,0,8,0,1,,,,,,,,,,,,,
6429ffe11a9806a9a95ad072,SCR,2024-06-11_12h27.39.516,LearnStrategy,2023.2.3,Win32,60.24096386,5,1,10,0.584259372,-0.247222222,1,0,0,1.0821,Gabbro_12,4,12,2,8,1.082,7,07,0.388888889,-0.250925954,1,0,0,1.494,Gabbro_rect,4,1.494,1,9,0,9,0,1,,,,,,,,,,,,,
6429ffe11a9806a9a95ad072,SCR,2024-06-11_12h27.39.516,LearnStrategy,2023.2.3,Win32,60.24096386,5,1,11,0.557407464,0.085185157,1,0,0,2.2654,Obsidian_16,5,16,4,8,2.265,5,02,-0.375,-0.401851908,1,0,0,1.3618,Obsidian_rect,5,1.362,1,10,0,10,0,1,,,,,,,,,,,,,
6429ffe11a9806a9a95ad072,SCR,2024-06-11_12h27.39.516,LearnStrategy,2023.2.3,Win32,60.24096386,5,1,12,0.530555556,-0.228703732,1,0,0,1.383,Gabbro_12,4,12,2,8,1.383,8,08,0.436111111,-0.249074131,1,0,0,1.495,Gabbro_rect,4,1.495,1,11,0,11,0,1,,,,,,,,,,,,,
6429ffe11a9806a9a95ad072,SCR,2024-06-11_12h27.39.516,LearnStrategy,2023.2.3,Win32,60.24096386,5,1,13,0.244444444,-0.411111111,1,0,0,7.2483,Diorite_06,3,06,1,6,7.248,1,02,0.158333333,-0.399074131,1,0,0,1.1207,Peridotite_rect,7,1.121,0,12,0,12,0,1,,,,,,,,,,,,,
6429ffe11a9806a9a95ad072,SCR,2024-06-11_12h27.39.516,LearnStrategy,2023.2.3,Win32,60.24096386,5,1,14,0.234259288,-0.4,1,0,0,1.0159,Diorite_06,3,06,1,6,1.016,2,04,0.118518575,-0.257407464,1,0,0,2.544,Diorite_rect,3,2.544,1,13,0,13,0,1,,,,,,,,,,,,,
6429ffe11a9806a9a95ad072,SCR,2024-06-11_12h27.39.516,LearnStrategy,2023.2.3,Win32,60.24096386,5,1,15,0.223148176,-0.386111111,1,0,0,1.1988,Diorite_06,3,06,1,6,1.199,1,14,0.145370399,-0.237963019,1,0,0,1.1293,Diorite_rect,3,1.129,1,14,0,14,0,1,,,,,,,,,,,,,
6429ffe11a9806a9a95ad072,SCR,2024-06-11_12h27.39.516,LearnStrategy,2023.2.3,Win32,60.24096386,5,1,16,0.222222222,-0.395370399,1,0,0,1.0815,Diorite_06,3,06,1,6,1.082,4,10,0.151851908,-0.25,1,0,0,1.3115,Diorite_rect,3,1.312,1,15,0,15,0,1,,,,,,,,,,,,,
6429ffe11a9806a9a95ad072,SCR,2024-06-11_12h27.39.516,LearnStrategy,2023.2.3,Win32,60.24096386,5,2,1,,,,,,,,1,09,,,,,,,,,,,,,8,1.945,0,,,,,,0.320370399,-0.394444444,1,0,0,1.9449,Pumice_rect,0,0,0,0,1,
6429ffe11a9806a9a95ad072,SCR,2024-06-11_12h27.39.516,LearnStrategy,2023.2.3,Win32,60.24096386,5,2,2,,,,,,,,1,06,,,,,,,,,,,,,1,3.444,1,,,,,,-0.379629601,-0.246296353,1,0,0,3.444,Andesite_rect,1,0,1,0,1,
6429ffe11a9806a9a95ad072,SCR,2024-06-11_12h27.39.516,LearnStrategy,2023.2.3,Win32,60.24096386,5,2,3,,,,,,,,8,15,,,,,,,,,,,,,8,1.689,1,,,,,,0.371296353,-0.394444444,1,0,0,1.6892,Pumice_rect,2,0,2,0,1,
6429ffe11a9806a9a95ad072,SCR,2024-06-11_12h27.39.516,LearnStrategy,2023.2.3,Win32,60.24096386,5,2,4,,,,,,,,2,16,,,,,,,,,,,,,8,2.211,0,,,,,,0.374074131,-0.392592621,1,0,0,2.2107,Pumice_rect,3,0,3,0,1,
6429ffe11a9806a9a95ad072,SCR,2024-06-11_12h27.39.516,LearnStrategy,2023.2.3,Win32,60.24096386,5,2,5,,,,,,,,4,13,,,,,,,,,,,,,6,3.11,0,,,,,,-0.121296268,-0.389814843,1,0,0,3.1103,Pegmatite_rect,4,0,4,0,1,
6429ffe11a9806a9a95ad072,SCR,2024-06-11_12h27.39.516,LearnStrategy,2023.2.3,Win32,60.24096386,5,2,6,,,,,,,,7,13,,,,,,,,,,,,,3,2.139,0,,,,,,0.104629686,-0.252777778,1,0,0,2.1394,Diorite_rect,5,0,5,0,1,
6429ffe11a9806a9a95ad072,SCR,2024-06-11_12h27.39.516,LearnStrategy,2023.2.3,Win32,60.24096386,5,2,7,,,,,,,,3,02,,,,,,,,,,,,,4,2.312,0,,,,,,0.387037065,-0.248148176,1,0,0,2.3116,Gabbro_rect,6,0,6,0,1,
6429ffe11a9806a9a95ad072,SCR,2024-06-11_12h27.39.516,LearnStrategy,2023.2.3,Win32,60.24096386,5,2,8,,,,,,,,5,04,,,,,,,,,,,,,5,1.239,1,,,,,,-0.375925912,-0.400925954,1,0,0,1.239,Obsidian_rect,7,0,7,0,1,
6429ffe11a9806a9a95ad072,SCR,2024-06-11_12h27.39.516,LearnStrategy,2023.2.3,Win32,60.24096386,5,2,9,,,,,,,,3,08,,,,,,,,,,,,,6,1.395,0,,,,,,-0.087036981,-0.395370399,1,0,0,1.3948,Pegmatite_rect,8,0,8,0,1,
6429ffe11a9806a9a95ad072,SCR,2024-06-11_12h27.39.516,LearnStrategy,2023.2.3,Win32,60.24096386,5,2,10,,,,,,,,7,12,,,,,,,,,,,,,7,1.678,1,,,,,,0.079629686,-0.393518575,1,0,0,1.6778,Peridotite_rect,9,0,9,0,1,
6429ffe11a9806a9a95ad072,SCR,2024-06-11_12h27.39.516,LearnStrategy,2023.2.3,Win32,60.24096386,5,2,11,,,,,,,,6,09,,,,,,,,,,,,,5,1.244,0,,,,,,-0.332407379,-0.404629686,1,0,0,1.2443,Obsidian_rect,10,0,10,0,1,
6429ffe11a9806a9a95ad072,SCR,2024-06-11_12h27.39.516,LearnStrategy,2023.2.3,Win32,60.24096386,5,2,12,,,,,,,,2,02,,,,,,,,,,,,,4,2.528,0,,,,,,0.388888889,-0.261111111,1,0,0,2.5278,Gabbro_rect,11,0,11,0,1,
6429ffe11a9806a9a95ad072,SCR,2024-06-11_12h27.39.516,LearnStrategy,2023.2.3,Win32,60.24096386,5,2,13,,,,,,,,6,08,,,,,,,,,,,,,5,1.256,0,,,,,,-0.413888889,-0.404629686,1,0,0,1.2563,Obsidian_rect,12,0,12,0,1,
6429ffe11a9806a9a95ad072,SCR,2024-06-11_12h27.39.516,LearnStrategy,2023.2.3,Win32,60.24096386,5,2,14,,,,,,,,8,13,,,,,,,,,,,,,8,1.295,1,,,,,,0.337037065,-0.391666667,1,0,0,1.2955,Pumice_rect,13,0,13,0,1,
6429ffe11a9806a9a95ad072,SCR,2024-06-11_12h27.39.516,LearnStrategy,2023.2.3,Win32,60.24096386,5,2,15,,,,,,,,4,08,,,,,,,,,,,,,6,1.378,0,,,,,,-0.125925869,-0.403703732,1,0,0,1.3781,Pegmatite_rect,14,0,14,0,1,
6429ffe11a9806a9a95ad072,SCR,2024-06-11_12h27.39.516,LearnStrategy,2023.2.3,Win32,60.24096386,5,2,16,,,,,,,,5,14,,,,,,,,,,,,,5,1.078,1,,,,,,-0.372222222,-0.407407464,1,0,0,1.0781,Obsidian_rect,15,0,15,0,1,
6429ffe11a9806a9a95ad072,SCR,2024-06-11_12h27.39.516,LearnStrategy,2023.2.3,Win32,60.24096386,6,1,1,0.121296353,0.081481467,1,0,0,3.0258,Pegmatite_10,6,10,4,5,3.026,2,10,-0.112962935,-0.394444444,1,0,0,1.3674,Pegmatite_rect,6,1.367,1,0,0,0,0,1,,,,,,,,,,,,,
6429ffe11a9806a9a95ad072,SCR,2024-06-11_12h27.39.516,LearnStrategy,2023.2.3,Win32,60.24096386,6,1,2,-0.545370356,-0.400925954,1,0,0,1.1826,Obsidian_11,5,11,1,1,1.183,8,09,-0.37870369,-0.390740797,1,0,0,1.2607,Obsidian_rect,5,1.261,1,1,0,1,0,1,,,,,,,,,,,,,
6429ffe11a9806a9a95ad072,SCR,2024-06-11_12h27.39.516,LearnStrategy,2023.2.3,Win32,60.24096386,6,1,3,0.562963019,-0.428703732,1,0,0,3.3647,Gabbro_15,4,15,1,8,3.365,3,16,0.129629686,-0.40648151,1,0,0,2.1446,Peridotite_rect,7,2.145,0,2,0,2,0,1,,,,,,,,,,,,,
6429ffe11a9806a9a95ad072,SCR,2024-06-11_12h27.39.516,LearnStrategy,2023.2.3,Win32,60.24096386,6,1,4,0.562963019,-0.402777778,1,0,0,1.9493,Gabbro_15,4,15,1,8,1.949,4,12,0.425925954,-0.251851908,1,0,0,1.0287,Gabbro_rect,4,1.029,1,3,0,3,0,1,,,,,,,,,,,,,
6429ffe11a9806a9a95ad072,SCR,2024-06-11_12h27.39.516,LearnStrategy,2023.2.3,Win32,60.24096386,6,1,5,0.567592706,-0.289814843,1,0,0,1.0831,Gabbro_12,4,12,2,8,1.083,7,07,0.454629686,-0.248148176,1,0,0,0.911,Gabbro_rect,4,0.911,1,4,0,4,0,1,,,,,,,,,,,,,
6429ffe11a9806a9a95ad072,SCR,2024-06-11_12h27.39.516,LearnStrategy,2023.2.3,Win32,60.24096386,6,1,6,0.56203715,-0.112037065,1,0,0,1.2489,Andesite_04,1,04,3,8,1.249,5,11,0.417592621,-0.240740797,1,0,0,1.0473,Gabbro_rect,4,1.047,0,5,0,5,0,1,,,,,,,,,,,,,
6429ffe11a9806a9a95ad072,SCR,2024-06-11_12h27.39.516,LearnStrategy,2023.2.3,Win32,60.24096386,6,1,7,0.562963019,-0.098148176,1,0,0,1.4158,Andesite_04,1,04,3,8,1.416,7,06,0.390740797,-0.252777778,1,0,0,2.1947,Gabbro_rect,4,2.195,0,6,0,6,0,1,,,,,,,,,,,,,
6429ffe11a9806a9a95ad072,SCR,2024-06-11_12h27.39.516,LearnStrategy,2023.2.3,Win32,60.24096386,6,1,8,0.565740797,-0.112962977,1,0,0,1.1145,Andesite_04,1,04,3,8,1.115,2,09,-0.375,-0.243518575,1,0,0,3.3775,Andesite_rect,1,3.378,1,7,0,7,0,1,,,,,,,,,,,,,
6429ffe11a9806a9a95ad072,SCR,2024-06-11_12h27.39.516,LearnStrategy,2023.2.3,Win32,60.24096386,6,1,9,0.543518575,-0.097222222,1,0,0,1.4489,Andesite_04,1,04,3,8,1.449,3,11,-0.375,-0.251851908,1,0,0,1.461,Andesite_rect,1,1.461,1,8,0,8,0,1,,,,,,,,,,,,,
6429ffe11a9806a9a95ad072,SCR,2024-06-11_12h27.39.516,LearnStrategy,2023.2.3,Win32,60.24096386,6,1,10,0.550926039,-0.133333333,1,0,0,1.4314,Andesite_04,1,04,3,8,1.431,1,04,-0.379629601,-0.248148176,1,0,0,1.1775,Andesite_rect,1,1.177,1,9,0,9,0,1,,,,,,,,,,,,,
6429ffe11a9806a9a95ad072,SCR,2024-06-11_12h27.39.516,LearnStrategy,2023.2.3,Win32,60.24096386,6,1,11,0.567592706,-0.262963019,1,0,0,1.1495,Gabbro_12,4,12,2,8,1.149,4,11,0.424074131,-0.237963019,1,0,0,1.6772,Gabbro_rect,4,1.677,1,10,0,10,0,1,,,,,,,,,,,,,
6429ffe11a9806a9a95ad072,SCR,2024-06-11_12h27.39.516,LearnStrategy,2023.2.3,Win32,60.24096386,6,1,12,0.562963019,-0.103703732,1,0,0,1.2995,Andesite_04,1,04,3,8,1.299,4,09,-0.361111111,-0.253703732,1,0,0,1.6439,Andesite_rect,1,1.644,1,11,0,11,0,1,,,,,,,,,,,,,
6429ffe11a9806a9a95ad072,SCR,2024-06-11_12h27.39.516,LearnStrategy,2023.2.3,Win32,60.24096386,6,1,13,0.561111111,-0.405555556,1,0,0,3.3659,Gabbro_15,4,15,1,8,3.366,6,11,0.384259288,-0.389814843,1,0,0,1.4951,Pumice_rect,8,1.495,0,12,0,12,0,1,,,,,,,,,,,,,
6429ffe11a9806a9a95ad072,SCR,2024-06-11_12h27.39.516,LearnStrategy,2023.2.3,Win32,60.24096386,6,1,14,0.585185242,-0.412037065,1,0,0,1.5176,Gabbro_15,4,15,1,8,1.518,6,15,0.435185242,-0.239814843,1,0,0,1.2972,Gabbro_rect,4,1.297,1,13,0,13,0,1,,,,,,,,,,,,,
6429ffe11a9806a9a95ad072,SCR,2024-06-11_12h27.39.516,LearnStrategy,2023.2.3,Win32,60.24096386,6,1,15,0.562963019,-0.249074131,1,0,0,1.218,Gabbro_12,4,12,2,8,1.218,3,10,0.428703732,-0.244444444,1,0,0,1.0141,Gabbro_rect,4,1.014,1,14,0,14,0,1,,,,,,,,,,,,,
6429ffe11a9806a9a95ad072,SCR,2024-06-11_12h27.39.516,LearnStrategy,2023.2.3,Win32,60.24096386,6,1,16,0.568518575,-0.115740755,1,0,0,1.2356,Andesite_04,1,04,3,8,1.236,6,03,-0.382407379,-0.250925954,1,0,0,1.1303,Andesite_rect,1,1.13,1,15,0,15,0,1,,,,,,,,,,,,,
6429ffe11a9806a9a95ad072,SCR,2024-06-11_12h27.39.516,LearnStrategy,2023.2.3,Win32,60.24096386,6,2,1,,,,,,,,2,05,,,,,,,,,,,,,3,3.784,0,,,,,,0.138888889,-0.250925954,1,0,0,3.7844,Diorite_rect,0,0,0,0,1,
6429ffe11a9806a9a95ad072,SCR,2024-06-11_12h27.39.516,LearnStrategy,2023.2.3,Win32,60.24096386,6,2,2,,,,,,,,7,14,,,,,,,,,,,,,6,2.645,0,,,,,,-0.078703647,-0.404629686,1,0,0,2.6452,Pegmatite_rect,1,0,1,0,1,
6429ffe11a9806a9a95ad072,SCR,2024-06-11_12h27.39.516,LearnStrategy,2023.2.3,Win32,60.24096386,6,2,3,,,,,,,,8,04,,,,,,,,,,,,,8,1.301,1,,,,,,0.389814843,-0.378703732,1,0,0,1.3009,Pumice_rect,2,0,2,0,1,
6429ffe11a9806a9a95ad072,SCR,2024-06-11_12h27.39.516,LearnStrategy,2023.2.3,Win32,60.24096386,6,2,4,,,,,,,,6,12,,,,,,,,,,,,,4,1.551,0,,,,,,0.405555556,-0.249074131,1,0,0,1.551,Gabbro_rect,3,0,3,0,1,
6429ffe11a9806a9a95ad072,SCR,2024-06-11_12h27.39.516,LearnStrategy,2023.2.3,Win32,60.24096386,6,2,5,,,,,,,,4,14,,,,,,,,,,,,,4,1.217,1,,,,,,0.407407464,-0.245370399,1,0,0,1.2169,Gabbro_rect,4,0,4,0,1,
6429ffe11a9806a9a95ad072,SCR,2024-06-11_12h27.39.516,LearnStrategy,2023.2.3,Win32,60.24096386,6,2,6,,,,,,,,2,06,,,,,,,,,,,,,4,1.584,0,,,,,,0.407407464,-0.245370399,1,0,0,1.5841,Gabbro_rect,5,0,5,0,1,
6429ffe11a9806a9a95ad072,SCR,2024-06-11_12h27.39.516,LearnStrategy,2023.2.3,Win32,60.24096386,6,2,7,,,,,,,,5,07,,,,,,,,,,,,,5,1.318,1,,,,,,-0.421296268,-0.400925954,1,0,0,1.3177,Obsidian_rect,6,0,6,0,1,
6429ffe11a9806a9a95ad072,SCR,2024-06-11_12h27.39.516,LearnStrategy,2023.2.3,Win32,60.24096386,6,2,8,,,,,,,,7,16,,,,,,,,,,,,,4,3.084,0,,,,,,0.378703732,-0.25,1,0,0,3.0844,Gabbro_rect,7,0,7,0,1,
6429ffe11a9806a9a95ad072,SCR,2024-06-11_12h27.39.516,LearnStrategy,2023.2.3,Win32,60.24096386,6,2,9,,,,,,,,5,12,,,,,,,,,,,,,5,1.227,1,,,,,,-0.386111111,-0.403703732,1,0,0,1.2272,Obsidian_rect,8,0,8,0,1,
6429ffe11a9806a9a95ad072,SCR,2024-06-11_12h27.39.516,LearnStrategy,2023.2.3,Win32,60.24096386,6,2,10,,,,,,,,4,03,,,,,,,,,,,,,4,2.058,1,,,,,,0.385185242,-0.25648151,1,0,0,2.0579,Gabbro_rect,9,0,9,0,1,
6429ffe11a9806a9a95ad072,SCR,2024-06-11_12h27.39.516,LearnStrategy,2023.2.3,Win32,60.24096386,6,2,11,,,,,,,,3,12,,,,,,,,,,,,,4,1.172,0,,,,,,0.385185242,-0.255555556,1,0,0,1.1721,Gabbro_rect,10,0,10,0,1,
6429ffe11a9806a9a95ad072,SCR,2024-06-11_12h27.39.516,LearnStrategy,2023.2.3,Win32,60.24096386,6,2,12,,,,,,,,1,10,,,,,,,,,,,,,8,1.342,0,,,,,,0.418518575,-0.388888889,1,0,0,1.3416,Pumice_rect,11,0,11,0,1,
6429ffe11a9806a9a95ad072,SCR,2024-06-11_12h27.39.516,LearnStrategy,2023.2.3,Win32,60.24096386,6,2,13,,,,,,,,8,02,,,,,,,,,,,,,8,1.545,1,,,,,,0.448148176,-0.390740797,1,0,0,1.5453,Pumice_rect,12,0,12,0,1,
6429ffe11a9806a9a95ad072,SCR,2024-06-11_12h27.39.516,LearnStrategy,2023.2.3,Win32,60.24096386,6,2,14,,,,,,,,1,01,,,,,,,,,,,,,1,2.495,1,,,,,,-0.37870369,-0.251851908,1,0,0,2.4945,Andesite_rect,13,0,13,0,1,
6429ffe11a9806a9a95ad072,SCR,2024-06-11_12h27.39.516,LearnStrategy,2023.2.3,Win32,60.24096386,6,2,15,,,,,,,,6,16,,,,,,,,,,,,,5,1.205,0,,,,,,-0.380555556,-0.383333333,1,0,0,1.205,Obsidian_rect,14,0,14,0,1,
6429ffe11a9806a9a95ad072,SCR,2024-06-11_12h27.39.516,LearnStrategy,2023.2.3,Win32,60.24096386,6,2,16,,,,,,,,3,15,,,,,,,,,,,,,4,1.328,0,,,,,,0.441666667,-0.253703732,1,0,0,1.3283,Gabbro_rect,15,0,15,0,1,
6429ffe11a9806a9a95ad072,SCR,2024-06-11_12h27.39.516,LearnStrategy,2023.2.3,Win32,60.24096386,7,1,1,-0.388888889,-0.413888889,1,0,0,1.4783,Diorite_16,3,16,1,2,1.478,2,14,-0.176851824,-0.249074131,1,0,0,3.9137,Basalt_rect,2,3.914,0,0,0,0,0,1,,,,,,,,,,,,,
6429ffe11a9806a9a95ad072,SCR,2024-06-11_12h27.39.516,LearnStrategy,2023.2.3,Win32,60.24096386,7,1,2,-0.367592578,-0.405555556,1,0,0,1.2683,Diorite_16,3,16,1,2,1.268,3,09,0.080555556,-0.237037065,1,0,0,1.7136,Diorite_rect,3,1.714,1,1,0,1,0,1,,,,,,,,,,,,,
6429ffe11a9806a9a95ad072,SCR,2024-06-11_12h27.39.516,LearnStrategy,2023.2.3,Win32,60.24096386,7,1,3,-0.379629601,-0.412963019,1,0,0,1.7172,Diorite_16,3,16,1,2,1.717,6,10,0.116666667,-0.251851908,1,0,0,1.6803,Diorite_rect,3,1.68,1,2,0,2,0,1,,,,,,,,,,,,,
6429ffe11a9806a9a95ad072,SCR,2024-06-11_12h27.39.516,LearnStrategy,2023.2.3,Win32,60.24096386,7,1,4,-0.375,-0.40648151,1,0,0,1.3509,Diorite_16,3,16,1,2,1.351,4,15,0.139814843,-0.25,1,0,0,1.3971,Diorite_rect,3,1.397,1,3,0,3,0,1,,,,,,,,,,,,,
6429ffe11a9806a9a95ad072,SCR,2024-06-11_12h27.39.516,LearnStrategy,2023.2.3,Win32,60.24096386,7,1,5,-0.374074046,-0.399074131,1,0,0,1.1173,Diorite_16,3,16,1,2,1.117,6,07,0.128703732,-0.237037065,1,0,0,1.3805,Diorite_rect,3,1.381,1,4,0,4,0,1,,,,,,,,,,,,,
6429ffe11a9806a9a95ad072,SCR,2024-06-11_12h27.39.516,LearnStrategy,2023.2.3,Win32,60.24096386,7,1,6,-0.223148134,-0.40648151,1,0,0,1.8838,Andesite_03,1,03,1,3,1.884,5,06,0.123148176,-0.403703732,1,0,0,2.5964,Peridotite_rect,7,2.596,0,5,0,5,0,1,,,,,,,,,,,,,
6429ffe11a9806a9a95ad072,SCR,2024-06-11_12h27.39.516,LearnStrategy,2023.2.3,Win32,60.24096386,7,1,7,-0.246296268,-0.430555556,1,0,0,0.9498,Andesite_03,1,03,1,3,0.95,3,06,-0.352777778,-0.234259288,1,0,0,1.1803,Andesite_rect,1,1.18,1,6,0,6,0,1,,,,,,,,,,,,,
6429ffe11a9806a9a95ad072,SCR,2024-06-11_12h27.39.516,LearnStrategy,2023.2.3,Win32,60.24096386,7,1,8,-0.229629601,-0.387963019,1,0,0,1.0675,Andesite_03,1,03,1,3,1.068,2,10,-0.357407379,-0.235185242,1,0,0,2.4981,Andesite_rect,1,2.498,1,7,0,7,0,1,,,,,,,,,,,,,
6429ffe11a9806a9a95ad072,SCR,2024-06-11_12h27.39.516,LearnStrategy,2023.2.3,Win32,60.24096386,7,1,9,-0.370370356,-0.40648151,1,0,0,1.2844,Diorite_16,3,16,1,2,1.284,3,14,0.144444444,-0.249074131,1,0,0,4.6301,Diorite_rect,3,4.63,1,8,0,8,0,1,,,,,,,,,,,,,
6429ffe11a9806a9a95ad072,SCR,2024-06-11_12h27.39.516,LearnStrategy,2023.2.3,Win32,60.24096386,7,1,10,-0.370370356,-0.425925954,1,0,0,1.0009,Diorite_16,3,16,1,2,1.001,4,15,0.103703732,-0.25,1,0,0,1.0681,Diorite_rect,3,1.068,1,9,0,9,0,1,,,,,,,,,,,,,
6429ffe11a9806a9a95ad072,SCR,2024-06-11_12h27.39.516,LearnStrategy,2023.2.3,Win32,60.24096386,7,1,11,-0.375925912,-0.412037065,1,0,0,1.1165,Diorite_16,3,16,1,2,1.117,2,09,0.137037065,-0.242592621,1,0,0,0.9147,Diorite_rect,3,0.915,1,10,0,10,0,1,,,,,,,,,,,,,
6429ffe11a9806a9a95ad072,SCR,2024-06-11_12h27.39.516,LearnStrategy,2023.2.3,Win32,60.24096386,7,1,12,-0.212962935,-0.397222222,1,0,0,0.9853,Andesite_03,1,03,1,3,0.985,7,08,-0.347222222,-0.237963019,1,0,0,0.8631,Andesite_rect,1,0.863,1,11,0,11,0,1,,,,,,,,,,,,,
6429ffe11a9806a9a95ad072,SCR,2024-06-11_12h27.39.516,LearnStrategy,2023.2.3,Win32,60.24096386,7,1,13,-0.236111111,-0.415740797,1,0,0,1.3995,Andesite_03,1,03,1,3,1.399,1,03,-0.388888889,-0.241666667,1,0,0,0.8317,Andesite_rect,1,0.832,1,12,0,12,0,1,,,,,,,,,,,,,
6429ffe11a9806a9a95ad072,SCR,2024-06-11_12h27.39.516,LearnStrategy,2023.2.3,Win32,60.24096386,7,1,14,-0.230555556,-0.401851908,1,0,0,1.7678,Andesite_03,1,03,1,3,1.768,8,16,-0.379629601,-0.253703732,1,0,0,2.9833,Andesite_rect,1,2.983,1,13,0,13,0,1,,,,,,,,,,,,,
6429ffe11a9806a9a95ad072,SCR,2024-06-11_12h27.39.516,LearnStrategy,2023.2.3,Win32,60.24096386,7,1,15,-0.363888889,-0.418518575,1,0,0,2.4175,Diorite_16,3,16,1,2,2.418,6,03,0.05648151,-0.250925954,1,0,0,4.3134,Diorite_rect,3,4.313,1,14,0,14,0,1,,,,,,,,,,,,,
6429ffe11a9806a9a95ad072,SCR,2024-06-11_12h27.39.516,LearnStrategy,2023.2.3,Win32,60.24096386,7,1,16,0.556481595,-0.422222222,1,0,0,2.0509,Gabbro_15,4,15,1,8,2.051,7,07,0.419444444,-0.410185242,1,0,0,1.181,Pumice_rect,8,1.181,0,15,0,15,0,1,,,,,,,,,,,,,
6429ffe11a9806a9a95ad072,SCR,2024-06-11_12h27.39.516,LearnStrategy,2023.2.3,Win32,60.24096386,7,2,1,,,,,,,,2,06,,,,,,,,,,,,,7,3.734,0,,,,,,0.083333333,-0.382407464,1,0,0,3.7344,Peridotite_rect,0,0,0,0,1,
6429ffe11a9806a9a95ad072,SCR,2024-06-11_12h27.39.516,LearnStrategy,2023.2.3,Win32,60.24096386,7,2,2,,,,,,,,4,01,,,,,,,,,,,,,1,5.461,0,,,,,,-0.361111111,-0.245370399,1,0,0,5.4608,Andesite_rect,1,0,1,0,1,
6429ffe11a9806a9a95ad072,SCR,2024-06-11_12h27.39.516,LearnStrategy,2023.2.3,Win32,60.24096386,7,2,3,,,,,,,,7,12,,,,,,,,,,,,,6,2.286,0,,,,,,-0.105555556,-0.4,1,0,0,2.286,Pegmatite_rect,2,0,2,0,1,
6429ffe11a9806a9a95ad072,SCR,2024-06-11_12h27.39.516,LearnStrategy,2023.2.3,Win32,60.24096386,7,2,4,,,,,,,,5,14,,,,,,,,,,,,,5,1.117,1,,,,,,-0.349074046,-0.388888889,1,0,0,1.1168,Obsidian_rect,3,0,3,0,1,
6429ffe11a9806a9a95ad072,SCR,2024-06-11_12h27.39.516,LearnStrategy,2023.2.3,Win32,60.24096386,7,2,5,,,,,,,,1,10,,,,,,,,,,,,,8,1.747,0,,,,,,0.386111111,-0.387963019,1,0,0,1.7466,Pumice_rect,4,0,4,0,1,
6429ffe11a9806a9a95ad072,SCR,2024-06-11_12h27.39.516,LearnStrategy,2023.2.3,Win32,60.24096386,7,2,6,,,,,,,,3,15,,,,,,,,,,,,,7,1.848,0,,,,,,0.087963019,-0.392592621,1,0,0,1.8476,Peridotite_rect,5,0,5,0,1,
6429ffe11a9806a9a95ad072,SCR,2024-06-11_12h27.39.516,LearnStrategy,2023.2.3,Win32,60.24096386,7,2,7,,,,,,,,8,02,,,,,,,,,,,,,8,1.151,1,,,,,,0.367592621,-0.403703732,1,0,0,1.1506,Pumice_rect,6,0,6,0,1,
6429ffe11a9806a9a95ad072,SCR,2024-06-11_12h27.39.516,LearnStrategy,2023.2.3,Win32,60.24096386,7,2,8,,,,,,,,8,06,,,,,,,,,,,,,8,0.753,1,,,,,,0.368518575,-0.403703732,1,0,0,0.7531,Pumice_rect,7,0,7,0,1,
6429ffe11a9806a9a95ad072,SCR,2024-06-11_12h27.39.516,LearnStrategy,2023.2.3,Win32,60.24096386,7,2,9,,,,,,,,6,08,,,,,,,,,,,,,5,1.418,0,,,,,,-0.356481467,-0.402777778,1,0,0,1.4177,Obsidian_rect,8,0,8,0,1,
6429ffe11a9806a9a95ad072,SCR,2024-06-11_12h27.39.516,LearnStrategy,2023.2.3,Win32,60.24096386,7,2,10,,,,,,,,2,11,,,,,,,,,,,,,8,1.517,0,,,,,,0.365740797,-0.394444444,1,0,0,1.5173,Pumice_rect,9,0,9,0,1,
6429ffe11a9806a9a95ad072,SCR,2024-06-11_12h27.39.516,LearnStrategy,2023.2.3,Win32,60.24096386,7,2,11,,,,,,,,6,13,,,,,,,,,,,,,1,1.801,0,,,,,,-0.338888889,-0.257407464,1,0,0,1.8007,Andesite_rect,10,0,10,0,1,
6429ffe11a9806a9a95ad072,SCR,2024-06-11_12h27.39.516,LearnStrategy,2023.2.3,Win32,60.24096386,7,2,12,,,,,,,,3,12,,,,,,,,,,,,,4,2.996,0,,,,,,0.374074131,-0.248148176,1,0,0,2.9958,Gabbro_rect,11,0,11,0,1,
6429ffe11a9806a9a95ad072,SCR,2024-06-11_12h27.39.516,LearnStrategy,2023.2.3,Win32,60.24096386,7,2,13,,,,,,,,4,08,,,,,,,,,,,,,8,2.534,0,,,,,,0.423148176,-0.389814843,1,0,0,2.5338,Pumice_rect,12,0,12,0,1,
6429ffe11a9806a9a95ad072,SCR,2024-06-11_12h27.39.516,LearnStrategy,2023.2.3,Win32,60.24096386,7,2,14,,,,,,,,1,07,,,,,,,,,,,,,6,1.579,0,,,,,,-0.111111111,-0.397222222,1,0,0,1.5787,Pegmatite_rect,13,0,13,0,1,
6429ffe11a9806a9a95ad072,SCR,2024-06-11_12h27.39.516,LearnStrategy,2023.2.3,Win32,60.24096386,7,2,15,,,,,,,,5,12,,,,,,,,,,,,,5,1.085,1,,,,,,-0.363888889,-0.403703732,1,0,0,1.0846,Obsidian_rect,14,0,14,0,1,
6429ffe11a9806a9a95ad072,SCR,2024-06-11_12h27.39.516,LearnStrategy,2023.2.3,Win32,60.24096386,7,2,16,,,,,,,,7,14,,,,,,,,,,,,,6,1.701,0,,,,,,-0.06851849,-0.396296353,1,0,0,1.701,Pegmatite_rect,15,0,15,0,1,
6429ffe11a9806a9a95ad072,SCR,2024-06-11_12h27.39.516,LearnStrategy,2023.2.3,Win32,60.24096386,8,1,1,0.082407464,0.11851849,1,0,0,1.4008,Pegmatite_10,6,10,4,5,1.401,6,03,-0.137962935,-0.38148151,1,0,0,1.6927,Pegmatite_rect,6,1.693,1,0,0,0,0,1,,,,,,,,,,,,,
6429ffe11a9806a9a95ad072,SCR,2024-06-11_12h27.39.516,LearnStrategy,2023.2.3,Win32,60.24096386,8,1,2,-0.376851824,-0.400925954,1,0,0,4.2335,Diorite_16,3,16,1,2,4.233,7,07,-0.379629601,-0.23148151,1,0,0,3.7746,Andesite_rect,1,3.775,0,1,0,1,0,1,,,,,,,,,,,,,
6429ffe11a9806a9a95ad072,SCR,2024-06-11_12h27.39.516,LearnStrategy,2023.2.3,Win32,60.24096386,8,1,3,-0.362962935,-0.428703732,1,0,0,1.1702,Diorite_16,3,16,1,2,1.17,2,08,0.110185242,-0.245370399,1,0,0,1.0592,Diorite_rect,3,1.059,1,2,0,2,0,1,,,,,,,,,,,,,
6429ffe11a9806a9a95ad072,SCR,2024-06-11_12h27.39.516,LearnStrategy,2023.2.3,Win32,60.24096386,8,1,4,-0.357407379,-0.419444444,1,0,0,1.2004,Diorite_16,3,16,1,2,1.2,4,12,0.134259288,-0.250925954,1,0,0,1.0301,Diorite_rect,3,1.03,1,3,0,3,0,1,,,,,,,,,,,,,
6429ffe11a9806a9a95ad072,SCR,2024-06-11_12h27.39.516,LearnStrategy,2023.2.3,Win32,60.24096386,8,1,5,-0.213888889,-0.407407464,1,0,0,1.0175,Andesite_03,1,03,1,3,1.017,3,14,-0.345370356,-0.238888889,1,0,0,0.8475,Andesite_rect,1,0.848,1,4,0,4,0,1,,,,,,,,,,,,,
6429ffe11a9806a9a95ad072,SCR,2024-06-11_12h27.39.516,LearnStrategy,2023.2.3,Win32,60.24096386,8,1,6,-0.375925912,-0.4,1,0,0,1.986,Diorite_16,3,16,1,2,1.986,6,10,-0.383333333,-0.246296353,1,0,0,1.0302,Andesite_rect,1,1.03,0,5,0,5,0,1,,,,,,,,,,,,,
6429ffe11a9806a9a95ad072,SCR,2024-06-11_12h27.39.516,LearnStrategy,2023.2.3,Win32,60.24096386,8,1,7,0.556481595,-0.416666667,1,0,0,1.0339,Gabbro_15,4,15,1,8,1.034,3,11,0.43148151,-0.239814843,1,0,0,1.0641,Gabbro_rect,4,1.064,1,6,0,6,0,1,,,,,,,,,,,,,
6429ffe11a9806a9a95ad072,SCR,2024-06-11_12h27.39.516,LearnStrategy,2023.2.3,Win32,60.24096386,8,1,8,0.581481595,-0.268518575,1,0,0,1.2006,Gabbro_12,4,12,2,8,1.201,6,10,0.122222222,-0.387963019,1,0,0,2.9808,Peridotite_rect,7,2.981,0,7,0,7,0,1,,,,,,,,,,,,,
6429ffe11a9806a9a95ad072,SCR,2024-06-11_12h27.39.516,LearnStrategy,2023.2.3,Win32,60.24096386,8,1,9,0.575926039,-0.270370399,1,0,0,1.1176,Gabbro_12,4,12,2,8,1.118,7,06,0.415740797,-0.25648151,1,0,0,0.8799,Gabbro_rect,4,0.88,1,8,0,8,0,1,,,,,,,,,,,,,
6429ffe11a9806a9a95ad072,SCR,2024-06-11_12h27.39.516,LearnStrategy,2023.2.3,Win32,60.24096386,8,1,10,0.579629686,-0.418518575,1,0,0,0.984,Gabbro_15,4,15,1,8,0.984,4,10,0.460185242,-0.238888889,1,0,0,0.8149,Gabbro_rect,4,0.815,1,9,0,9,0,1,,,,,,,,,,,,,
6429ffe11a9806a9a95ad072,SCR,2024-06-11_12h27.39.516,LearnStrategy,2023.2.3,Win32,60.24096386,8,1,11,0.548148261,-0.265740797,1,0,0,1.1513,Gabbro_12,4,12,2,8,1.151,1,03,0.443518575,-0.239814843,1,0,0,1.0641,Gabbro_rect,4,1.064,1,10,0,10,0,1,,,,,,,,,,,,,
6429ffe11a9806a9a95ad072,SCR,2024-06-11_12h27.39.516,LearnStrategy,2023.2.3,Win32,60.24096386,8,1,12,0.576851908,-0.407407464,1,0,0,1.1165,Gabbro_15,4,15,1,8,1.116,8,14,0.446296353,-0.246296353,1,0,0,0.9178,Gabbro_rect,4,0.918,1,11,0,11,0,1,,,,,,,,,,,,,
6429ffe11a9806a9a95ad072,SCR,2024-06-11_12h27.39.516,LearnStrategy,2023.2.3,Win32,60.24096386,8,1,13,0.587963019,-0.097222222,1,0,0,1.3025,Andesite_04,1,04,3,8,1.303,2,08,-0.399074046,-0.253703732,1,0,0,1.6138,Andesite_rect,1,1.614,1,12,0,12,0,1,,,,,,,,,,,,,
6429ffe11a9806a9a95ad072,SCR,2024-06-11_12h27.39.516,LearnStrategy,2023.2.3,Win32,60.24096386,8,1,14,0.551851908,-0.10648151,1,0,0,3.4504,Andesite_04,1,04,3,8,3.45,3,10,-0.342592578,-0.244444444,1,0,0,2.0756,Andesite_rect,1,2.076,1,13,0,13,0,1,,,,,,,,,,,,,
6429ffe11a9806a9a95ad072,SCR,2024-06-11_12h27.39.516,LearnStrategy,2023.2.3,Win32,60.24096386,8,1,15,0.566666667,-0.25,1,0,0,1.1351,Gabbro_12,4,12,2,8,1.135,7,10,0.440740797,-0.244444444,1,0,0,1.4475,Gabbro_rect,4,1.447,1,14,0,14,0,1,,,,,,,,,,,,,
6429ffe11a9806a9a95ad072,SCR,2024-06-11_12h27.39.516,LearnStrategy,2023.2.3,Win32,60.24096386,8,1,16,0.568518575,-0.414814843,1,0,0,1.0857,Gabbro_15,4,15,1,8,1.086,5,11,0.45648151,-0.250925954,1,0,0,1.1302,Gabbro_rect,4,1.13,1,15,0,15,0,1,,,,,,,,,,,,,
6429ffe11a9806a9a95ad072,SCR,2024-06-11_12h27.39.516,LearnStrategy,2023.2.3,Win32,60.24096386,8,2,1,,,,,,,,6,12,,,,,,,,,,,,,1,2.717,0,,,,,,-0.344444444,-0.251851908,1,0,0,2.717,Andesite_rect,0,0,0,0,1,
6429ffe11a9806a9a95ad072,SCR,2024-06-11_12h27.39.516,LearnStrategy,2023.2.3,Win32,60.24096386,8,2,2,,,,,,,,2,12,,,,,,,,,,,,,8,1.596,0,,,,,,0.403703732,-0.388888889,1,0,0,1.5957,Pumice_rect,1,0,1,0,1,
6429ffe11a9806a9a95ad072,SCR,2024-06-11_12h27.39.516,LearnStrategy,2023.2.3,Win32,60.24096386,8,2,3,,,,,,,,4,03,,,,,,,,,,,,,4,1.501,1,,,,,,0.423148176,-0.257407464,1,0,0,1.5009,Gabbro_rect,2,0,2,0,1,
6429ffe11a9806a9a95ad072,SCR,2024-06-11_12h27.39.516,LearnStrategy,2023.2.3,Win32,60.24096386,8,2,4,,,,,,,,7,05,,,,,,,,,,,,,1,1.852,0,,,,,,-0.365740712,-0.251851908,1,0,0,1.8515,Andesite_rect,3,0,3,0,1,
6429ffe11a9806a9a95ad072,SCR,2024-06-11_12h27.39.516,LearnStrategy,2023.2.3,Win32,60.24096386,8,2,5,,,,,,,,5,05,,,,,,,,,,,,,5,1.201,1,,,,,,-0.439814801,-0.413888889,1,0,0,1.2007,Obsidian_rect,4,0,4,0,1,
6429ffe11a9806a9a95ad072,SCR,2024-06-11_12h27.39.516,LearnStrategy,2023.2.3,Win32,60.24096386,8,2,6,,,,,,,,3,02,,,,,,,,,,,,,6,2.401,0,,,,,,-0.113888889,-0.412037065,1,0,0,2.4007,Pegmatite_rect,5,0,5,0,1,
6429ffe11a9806a9a95ad072,SCR,2024-06-11_12h27.39.516,LearnStrategy,2023.2.3,Win32,60.24096386,8,2,7,,,,,,,,1,01,,,,,,,,,,,,,4,2.698,0,,,,,,0.447222222,-0.244444444,1,0,0,2.6984,Gabbro_rect,6,0,6,0,1,
6429ffe11a9806a9a95ad072,SCR,2024-06-11_12h27.39.516,LearnStrategy,2023.2.3,Win32,60.24096386,8,2,8,,,,,,,,5,04,,,,,,,,,,,,,5,1.179,1,,,,,,-0.45370369,-0.378703732,1,0,0,1.1791,Obsidian_rect,7,0,7,0,1,
6429ffe11a9806a9a95ad072,SCR,2024-06-11_12h27.39.516,LearnStrategy,2023.2.3,Win32,60.24096386,8,2,9,,,,,,,,6,09,,,,,,,,,,,,,6,2.335,1,,,,,,-0.14351849,-0.387037065,1,0,0,2.3352,Pegmatite_rect,8,0,8,0,1,
6429ffe11a9806a9a95ad072,SCR,2024-06-11_12h27.39.516,LearnStrategy,2023.2.3,Win32,60.24096386,8,2,10,,,,,,,,2,16,,,,,,,,,,,,,8,1.433,0,,,,,,0.401851908,-0.392592621,1,0,0,1.4326,Pumice_rect,9,0,9,0,1,
6429ffe11a9806a9a95ad072,SCR,2024-06-11_12h27.39.516,LearnStrategy,2023.2.3,Win32,60.24096386,8,2,11,,,,,,,,8,15,,,,,,,,,,,,,8,0.918,1,,,,,,0.398148176,-0.392592621,1,0,0,0.9175,Pumice_rect,10,0,10,0,1,
6429ffe11a9806a9a95ad072,SCR,2024-06-11_12h27.39.516,LearnStrategy,2023.2.3,Win32,60.24096386,8,2,12,,,,,,,,4,13,,,,,,,,,,,,,1,1.901,0,,,,,,-0.427777778,-0.250925954,1,0,0,1.9006,Andesite_rect,11,0,11,0,1,
6429ffe11a9806a9a95ad072,SCR,2024-06-11_12h27.39.516,LearnStrategy,2023.2.3,Win32,60.24096386,8,2,13,,,,,,,,8,04,,,,,,,,,,,,,8,1.235,1,,,,,,0.391666667,-0.412963019,1,0,0,1.2351,Pumice_rect,12,0,12,0,1,
6429ffe11a9806a9a95ad072,SCR,2024-06-11_12h27.39.516,LearnStrategy,2023.2.3,Win32,60.24096386,8,2,14,,,,,,,,1,09,,,,,,,,,,,,,4,1.348,0,,,,,,0.444444444,-0.252777778,1,0,0,1.3479,Gabbro_rect,13,0,13,0,1,
6429ffe11a9806a9a95ad072,SCR,2024-06-11_12h27.39.516,LearnStrategy,2023.2.3,Win32,60.24096386,8,2,15,,,,,,,,3,13,,,,,,,,,,,,,1,1.914,0,,,,,,-0.37870369,-0.265740797,1,0,0,1.9142,Andesite_rect,14,0,14,0,1,
6429ffe11a9806a9a95ad072,SCR,2024-06-11_12h27.39.516,LearnStrategy,2023.2.3,Win32,60.24096386,8,2,16,,,,,,,,7,16,,,,,,,,,,,,,6,1.816,0,,,,,,-0.131481425,-0.417592621,1,0,0,1.8165,Pegmatite_rect,15,0,15,0,1,
6429ffe11a9806a9a95ad072,SCR,2024-06-11_12h27.39.516,LearnStrategy,2023.2.3,Win32,60.24096386,9,1,1,0.560185242,-0.403703732,1,0,0,1.6805,Gabbro_15,4,15,1,8,1.681,4,10,0.45,-0.246296353,1,0,0,1.3974,Gabbro_rect,4,1.397,1,0,0,0,0,1,,,,,,,,,,,,,
6429ffe11a9806a9a95ad072,SCR,2024-06-11_12h27.39.516,LearnStrategy,2023.2.3,Win32,60.24096386,9,1,2,0.571296353,-0.263888889,1,0,0,1.5677,Gabbro_12,4,12,2,8,1.568,6,07,0.436111111,-0.262037065,1,0,0,1.0465,Gabbro_rect,4,1.046,1,1,0,1,0,1,,,,,,,,,,,,,
6429ffe11a9806a9a95ad072,SCR,2024-06-11_12h27.39.516,LearnStrategy,2023.2.3,Win32,60.24096386,9,1,3,0.581481595,-0.078703732,1,0,0,1.2175,Andesite_04,1,04,3,8,1.217,1,04,-0.408333333,-0.242592621,1,0,0,2.1464,Andesite_rect,1,2.146,1,2,0,2,0,1,,,,,,,,,,,,,
6429ffe11a9806a9a95ad072,SCR,2024-06-11_12h27.39.516,LearnStrategy,2023.2.3,Win32,60.24096386,9,1,4,-0.380555556,-0.410185242,1,0,0,1.417,Diorite_16,3,16,1,2,1.417,8,16,-0.395370356,-0.235185242,1,0,0,0.7634,Andesite_rect,1,0.763,0,3,0,3,0,1,,,,,,,,,,,,,
6429ffe11a9806a9a95ad072,SCR,2024-06-11_12h27.39.516,LearnStrategy,2023.2.3,Win32,60.24096386,9,1,5,-0.362037023,-0.393518575,1,0,0,0.984,Diorite_16,3,16,1,2,0.984,2,01,0.135185242,-0.241666667,1,0,0,2.0977,Diorite_rect,3,2.098,1,4,0,4,0,1,,,,,,,,,,,,,
6429ffe11a9806a9a95ad072,SCR,2024-06-11_12h27.39.516,LearnStrategy,2023.2.3,Win32,60.24096386,9,1,6,-0.36851849,-0.402777778,1,0,0,1.0682,Diorite_16,3,16,1,2,1.068,6,15,0.135185242,-0.241666667,1,0,0,1.3463,Diorite_rect,3,1.346,1,5,0,5,0,1,,,,,,,,,,,,,
6429ffe11a9806a9a95ad072,SCR,2024-06-11_12h27.39.516,LearnStrategy,2023.2.3,Win32,60.24096386,9,1,7,0.547222222,-0.421296353,1,0,0,1.6342,Gabbro_15,4,15,1,8,1.634,7,02,0.462963019,-0.229629686,1,0,0,0.8147,Gabbro_rect,4,0.815,1,6,0,6,0,1,,,,,,,,,,,,,
6429ffe11a9806a9a95ad072,SCR,2024-06-11_12h27.39.516,LearnStrategy,2023.2.3,Win32,60.24096386,9,1,8,0.573148261,-0.262037065,1,0,0,1.7326,Gabbro_12,4,12,2,8,1.733,2,09,0.436111111,-0.262037065,1,0,0,0.9646,Gabbro_rect,4,0.965,1,7,0,7,0,1,,,,,,,,,,,,,
6429ffe11a9806a9a95ad072,SCR,2024-06-11_12h27.39.516,LearnStrategy,2023.2.3,Win32,60.24096386,9,1,9,0.561111111,-0.105555556,1,0,0,1.2178,Andesite_04,1,04,3,8,1.218,4,05,0.165740797,-0.396296353,1,0,0,2.2633,Peridotite_rect,7,2.263,0,8,0,8,0,1,,,,,,,,,,,,,
6429ffe11a9806a9a95ad072,SCR,2024-06-11_12h27.39.516,LearnStrategy,2023.2.3,Win32,60.24096386,9,1,10,0.539814928,-0.103703732,1,0,0,1.0177,Andesite_04,1,04,3,8,1.018,3,16,-0.364814801,-0.242592621,1,0,0,1.7135,Andesite_rect,1,1.714,1,9,0,9,0,1,,,,,,,,,,,,,
6429ffe11a9806a9a95ad072,SCR,2024-06-11_12h27.39.516,LearnStrategy,2023.2.3,Win32,60.24096386,9,1,11,-0.516666667,-0.125925954,1,0,0,1.8179,Pumice_10,8,10,3,1,1.818,1,04,-0.396296268,-0.264814843,1,0,0,0.9145,Andesite_rect,1,0.914,0,10,0,10,0,1,,,,,,,,,,,,,
6429ffe11a9806a9a95ad072,SCR,2024-06-11_12h27.39.516,LearnStrategy,2023.2.3,Win32,60.24096386,9,1,12,-0.537037023,-0.094444444,1,0,0,1.3685,Pumice_10,8,10,3,1,1.369,7,08,0.375925954,-0.400925954,1,0,0,1.0134,Pumice_rect,8,1.013,1,11,0,11,0,1,,,,,,,,,,,,,
6429ffe11a9806a9a95ad072,SCR,2024-06-11_12h27.39.516,LearnStrategy,2023.2.3,Win32,60.24096386,9,1,13,-0.373148134,-0.412037065,1,0,0,2.1673,Diorite_16,3,16,1,2,2.167,7,07,-0.412962935,-0.25648151,1,0,0,0.6802,Andesite_rect,1,0.68,0,12,0,12,0,1,,,,,,,,,,,,,
6429ffe11a9806a9a95ad072,SCR,2024-06-11_12h27.39.516,LearnStrategy,2023.2.3,Win32,60.24096386,9,1,14,-0.355555556,-0.416666667,1,0,0,1.134,Diorite_16,3,16,1,2,1.134,2,01,0.112037065,-0.233333333,1,0,0,2.0632,Diorite_rect,3,2.063,1,13,0,13,0,1,,,,,,,,,,,,,
6429ffe11a9806a9a95ad072,SCR,2024-06-11_12h27.39.516,LearnStrategy,2023.2.3,Win32,60.24096386,9,1,15,-0.249074046,-0.407407464,1,0,0,1.9173,Andesite_03,1,03,1,3,1.917,3,14,-0.340740712,-0.255555556,1,0,0,0.8632,Andesite_rect,1,0.863,1,14,0,14,0,1,,,,,,,,,,,,,
6429ffe11a9806a9a95ad072,SCR,2024-06-11_12h27.39.516,LearnStrategy,2023.2.3,Win32,60.24096386,9,1,16,-0.370370356,-0.396296353,1,0,0,0.9347,Diorite_16,3,16,1,2,0.935,3,06,0.090740797,-0.247222222,1,0,0,0.8807,Diorite_rect,3,0.881,1,15,0,15,0,1,,,,,,,,,,,,,
6429ffe11a9806a9a95ad072,SCR,2024-06-11_12h27.39.516,LearnStrategy,2023.2.3,Win32,60.24096386,9,2,1,,,,,,,,2,05,,,,,,,,,,,,,4,4.236,0,,,,,,0.441666667,-0.229629686,1,0,0,4.2356,Gabbro_rect,0,0,0,0,1,
6429ffe11a9806a9a95ad072,SCR,2024-06-11_12h27.39.516,LearnStrategy,2023.2.3,Win32,60.24096386,9,2,2,,,,,,,,4,16,,,,,,,,,,,,,1,1.862,0,,,,,,-0.375925912,-0.242592621,1,0,0,1.8621,Andesite_rect,1,0,1,0,1,
6429ffe11a9806a9a95ad072,SCR,2024-06-11_12h27.39.516,LearnStrategy,2023.2.3,Win32,60.24096386,9,2,3,,,,,,,,2,02,,,,,,,,,,,,,3,2.216,0,,,,,,0.128703732,-0.239814843,1,0,0,2.2159,Diorite_rect,2,0,2,0,1,
6429ffe11a9806a9a95ad072,SCR,2024-06-11_12h27.39.516,LearnStrategy,2023.2.3,Win32,60.24096386,9,2,4,,,,,,,,3,07,,,,,,,,,,,,,1,2.562,0,,,,,,-0.359259245,-0.260185242,1,0,0,2.5616,Andesite_rect,3,0,3,0,1,
6429ffe11a9806a9a95ad072,SCR,2024-06-11_12h27.39.516,LearnStrategy,2023.2.3,Win32,60.24096386,9,2,5,,,,,,,,7,04,,,,,,,,,,,,,1,1.816,0,,,,,,-0.356481467,-0.266666667,1,0,0,1.8164,Andesite_rect,4,0,4,0,1,
6429ffe11a9806a9a95ad072,SCR,2024-06-11_12h27.39.516,LearnStrategy,2023.2.3,Win32,60.24096386,9,2,6,,,,,,,,5,07,,,,,,,,,,,,,5,1.016,1,,,,,,-0.37870369,-0.38148151,1,0,0,1.0164,Obsidian_rect,5,0,5,0,1,
6429ffe11a9806a9a95ad072,SCR,2024-06-11_12h27.39.516,LearnStrategy,2023.2.3,Win32,60.24096386,9,2,7,,,,,,,,6,16,,,,,,,,,,,,,5,1.731,0,,,,,,-0.379629601,-0.388888889,1,0,0,1.7314,Obsidian_rect,6,0,6,0,1,
6429ffe11a9806a9a95ad072,SCR,2024-06-11_12h27.39.516,LearnStrategy,2023.2.3,Win32,60.24096386,9,2,8,,,,,,,,4,14,,,,,,,,,,,,,4,1.918,1,,,,,,0.414814843,-0.253703732,1,0,0,1.9181,Gabbro_rect,7,0,7,0,1,
6429ffe11a9806a9a95ad072,SCR,2024-06-11_12h27.39.516,LearnStrategy,2023.2.3,Win32,60.24096386,9,2,9,,,,,,,,8,05,,,,,,,,,,,,,8,1.101,1,,,,,,0.465740797,-0.383333333,1,0,0,1.1014,Pumice_rect,8,0,8,0,1,
6429ffe11a9806a9a95ad072,SCR,2024-06-11_12h27.39.516,LearnStrategy,2023.2.3,Win32,60.24096386,9,2,10,,,,,,,,7,13,,,,,,,,,,,,,6,1.885,0,,,,,,-0.095370314,-0.401851908,1,0,0,1.8847,Pegmatite_rect,9,0,9,0,1,
6429ffe11a9806a9a95ad072,SCR,2024-06-11_12h27.39.516,LearnStrategy,2023.2.3,Win32,60.24096386,9,2,11,,,,,,,,3,08,,,,,,,,,,,,,7,1.501,0,,,,,,0.171296353,-0.385185242,1,0,0,1.5006,Peridotite_rect,10,0,10,0,1,
6429ffe11a9806a9a95ad072,SCR,2024-06-11_12h27.39.516,LearnStrategy,2023.2.3,Win32,60.24096386,9,2,12,,,,,,,,1,05,,,,,,,,,,,,,1,1.701,1,,,,,,-0.315740712,-0.237037065,1,0,0,1.7007,Andesite_rect,11,0,11,0,1,
6429ffe11a9806a9a95ad072,SCR,2024-06-11_12h27.39.516,LearnStrategy,2023.2.3,Win32,60.24096386,9,2,13,,,,,,,,8,13,,,,,,,,,,,,,8,1.934,1,,,,,,0.467592621,-0.387037065,1,0,0,1.9339,Pumice_rect,12,0,12,0,1,
6429ffe11a9806a9a95ad072,SCR,2024-06-11_12h27.39.516,LearnStrategy,2023.2.3,Win32,60.24096386,9,2,14,,,,,,,,6,05,,,,,,,,,,,,,1,1.496,0,,,,,,-0.350925912,-0.244444444,1,0,0,1.4956,Andesite_rect,13,0,13,0,1,
6429ffe11a9806a9a95ad072,SCR,2024-06-11_12h27.39.516,LearnStrategy,2023.2.3,Win32,60.24096386,9,2,15,,,,,,,,1,06,,,,,,,,,,,,,3,1.451,0,,,,,,0.136111111,-0.248148176,1,0,0,1.4509,Diorite_rect,14,0,14,0,1,
6429ffe11a9806a9a95ad072,SCR,2024-06-11_12h27.39.516,LearnStrategy,2023.2.3,Win32,60.24096386,9,2,16,,,,,,,,5,10,,,,,,,,,,,,,5,1.1,1,,,,,,-0.362962935,-0.387963019,1,0,0,1.1004,Obsidian_rect,15,0,15,0,1,
6429ffe11a9806a9a95ad072,SCR,2024-06-11_12h27.39.516,LearnStrategy,2023.2.3,Win32,60.24096386,,,,,,,,,,,,,,,,,,,,,,,,,,,,,,,,,,,,,,,,,,,,,0
6429ffe11a9806a9a95ad072,SCR,2024-06-11_12h27.39.516,LearnStrategy,2023.2.3,Win32,60.24096386,,,,,,,,,,,,,,,,,,,,,,,,,,,,,,,,,,,,,,,,,,,,,
6429ffe11a9806a9a95ad072,SCR,2024-06-11_12h27.39.516,LearnStrategy,2023.2.3,Win32,60.24096386,,,,,,,,,,,5,11,1,1,,,,,,,,,,,,,,,,,,,,,,,,,,,,,,,
6429ffe11a9806a9a95ad072,SCR,2024-06-11_12h27.39.516,LearnStrategy,2023.2.3,Win32,60.24096386,,,,,,,,,,,3,16,1,2,,,,,,,,,,,,,,,,,,,,,,,,,,,,,,,
6429ffe11a9806a9a95ad072,SCR,2024-06-11_12h27.39.516,LearnStrategy,2023.2.3,Win32,60.24096386,,,,,,,,,,,1,03,1,3,,,,,,,,,,,,,,,,,,,,,,,,,,,,,,,
6429ffe11a9806a9a95ad072,SCR,2024-06-11_12h27.39.516,LearnStrategy,2023.2.3,Win32,60.24096386,,,,,,,,,,,2,04,1,4,,,,,,,,,,,,,,,,,,,,,,,,,,,,,,,
6429ffe11a9806a9a95ad072,SCR,2024-06-11_12h27.39.516,LearnStrategy,2023.2.3,Win32,60.24096386,,,,,,,,,,,6,15,1,5,,,,,,,,,,,,,,,,,,,,,,,,,,,,,,,
6429ffe11a9806a9a95ad072,SCR,2024-06-11_12h27.39.516,LearnStrategy,2023.2.3,Win32,60.24096386,,,,,,,,,,,3,06,1,6,,,,,,,,,,,,,,,,,,,,,,,,,,,,,,,
6429ffe11a9806a9a95ad072,SCR,2024-06-11_12h27.39.516,LearnStrategy,2023.2.3,Win32,60.24096386,,,,,,,,,,,1,02,1,7,,,,,,,,,,,,,,,,,,,,,,,,,,,,,,,
6429ffe11a9806a9a95ad072,SCR,2024-06-11_12h27.39.516,LearnStrategy,2023.2.3,Win32,60.24096386,,,,,,,,,,,4,15,1,8,,,,,,,,,,,,,,,,,,,,,,,,,,,,,,,
6429ffe11a9806a9a95ad072,SCR,2024-06-11_12h27.39.516,LearnStrategy,2023.2.3,Win32,60.24096386,,,,,,,,,,,4,11,2,1,,,,,,,,,,,,,,,,,,,,,,,,,,,,,,,
6429ffe11a9806a9a95ad072,SCR,2024-06-11_12h27.39.516,LearnStrategy,2023.2.3,Win32,60.24096386,,,,,,,,,,,6,06,2,2,,,,,,,,,,,,,,,,,,,,,,,,,,,,,,,
6429ffe11a9806a9a95ad072,SCR,2024-06-11_12h27.39.516,LearnStrategy,2023.2.3,Win32,60.24096386,,,,,,,,,,,5,02,2,3,,,,,,,,,,,,,,,,,,,,,,,,,,,,,,,
6429ffe11a9806a9a95ad072,SCR,2024-06-11_12h27.39.516,LearnStrategy,2023.2.3,Win32,60.24096386,,,,,,,,,,,1,11,2,4,,,,,,,,,,,,,,,,,,,,,,,,,,,,,,,
6429ffe11a9806a9a95ad072,SCR,2024-06-11_12h27.39.516,LearnStrategy,2023.2.3,Win32,60.24096386,,,,,,,,,,,2,09,2,5,,,,,,,,,,,,,,,,,,,,,,,,,,,,,,,
6429ffe11a9806a9a95ad072,SCR,2024-06-11_12h27.39.516,LearnStrategy,2023.2.3,Win32,60.24096386,,,,,,,,,,,6,07,2,6,,,,,,,,,,,,,,,,,,,,,,,,,,,,,,,
6429ffe11a9806a9a95ad072,SCR,2024-06-11_12h27.39.516,LearnStrategy,2023.2.3,Win32,60.24096386,,,,,,,,,,,2,10,2,7,,,,,,,,,,,,,,,,,,,,,,,,,,,,,,,
6429ffe11a9806a9a95ad072,SCR,2024-06-11_12h27.39.516,LearnStrategy,2023.2.3,Win32,60.24096386,,,,,,,,,,,4,12,2,8,,,,,,,,,,,,,,,,,,,,,,,,,,,,,,,
6429ffe11a9806a9a95ad072,SCR,2024-06-11_12h27.39.516,LearnStrategy,2023.2.3,Win32,60.24096386,,,,,,,,,,,8,10,3,1,,,,,,,,,,,,,,,,,,,,,,,,,,,,,,,
6429ffe11a9806a9a95ad072,SCR,2024-06-11_12h27.39.516,LearnStrategy,2023.2.3,Win32,60.24096386,,,,,,,,,,,7,15,3,2,,,,,,,,,,,,,,,,,,,,,,,,,,,,,,,
6429ffe11a9806a9a95ad072,SCR,2024-06-11_12h27.39.516,LearnStrategy,2023.2.3,Win32,60.24096386,,,,,,,,,,,5,08,3,3,,,,,,,,,,,,,,,,,,,,,,,,,,,,,,,
6429ffe11a9806a9a95ad072,SCR,2024-06-11_12h27.39.516,LearnStrategy,2023.2.3,Win32,60.24096386,,,,,,,,,,,5,06,3,4,,,,,,,,,,,,,,,,,,,,,,,,,,,,,,,
6429ffe11a9806a9a95ad072,SCR,2024-06-11_12h27.39.516,LearnStrategy,2023.2.3,Win32,60.24096386,,,,,,,,,,,1,14,3,5,,,,,,,,,,,,,,,,,,,,,,,,,,,,,,,
6429ffe11a9806a9a95ad072,SCR,2024-06-11_12h27.39.516,LearnStrategy,2023.2.3,Win32,60.24096386,,,,,,,,,,,6,03,3,6,,,,,,,,,,,,,,,,,,,,,,,,,,,,,,,
6429ffe11a9806a9a95ad072,SCR,2024-06-11_12h27.39.516,LearnStrategy,2023.2.3,Win32,60.24096386,,,,,,,,,,,2,08,3,7,,,,,,,,,,,,,,,,,,,,,,,,,,,,,,,
6429ffe11a9806a9a95ad072,SCR,2024-06-11_12h27.39.516,LearnStrategy,2023.2.3,Win32,60.24096386,,,,,,,,,,,1,04,3,8,,,,,,,,,,,,,,,,,,,,,,,,,,,,,,,
6429ffe11a9806a9a95ad072,SCR,2024-06-11_12h27.39.516,LearnStrategy,2023.2.3,Win32,60.24096386,,,,,,,,,,,2,01,4,1,,,,,,,,,,,,,,,,,,,,,,,,,,,,,,,
6429ffe11a9806a9a95ad072,SCR,2024-06-11_12h27.39.516,LearnStrategy,2023.2.3,Win32,60.24096386,,,,,,,,,,,3,11,4,2,,,,,,,,,,,,,,,,,,,,,,,,,,,,,,,
6429ffe11a9806a9a95ad072,SCR,2024-06-11_12h27.39.516,LearnStrategy,2023.2.3,Win32,60.24096386,,,,,,,,,,,3,10,4,3,,,,,,,,,,,,,,,,,,,,,,,,,,,,,,,
6429ffe11a9806a9a95ad072,SCR,2024-06-11_12h27.39.516,LearnStrategy,2023.2.3,Win32,60.24096386,,,,,,,,,,,8,09,4,4,,,,,,,,,,,,,,,,,,,,,,,,,,,,,,,
6429ffe11a9806a9a95ad072,SCR,2024-06-11_12h27.39.516,LearnStrategy,2023.2.3,Win32,60.24096386,,,,,,,,,,,6,10,4,5,,,,,,,,,,,,,,,,,,,,,,,,,,,,,,,
6429ffe11a9806a9a95ad072,SCR,2024-06-11_12h27.39.516,LearnStrategy,2023.2.3,Win32,60.24096386,,,,,,,,,,,4,05,4,6,,,,,,,,,,,,,,,,,,,,,,,,,,,,,,,
6429ffe11a9806a9a95ad072,SCR,2024-06-11_12h27.39.516,LearnStrategy,2023.2.3,Win32,60.24096386,,,,,,,,,,,5,09,4,7,,,,,,,,,,,,,,,,,,,,,,,,,,,,,,,
6429ffe11a9806a9a95ad072,SCR,2024-06-11_12h27.39.516,LearnStrategy,2023.2.3,Win32,60.24096386,,,,,,,,,,,5,16,4,8,,,,,,,,,,,,,,,,,,,,,,,,,,,,,,,
6429ffe11a9806a9a95ad072,SCR,2024-06-11_12h27.39.516,LearnStrategy,2023.2.3,Win32,60.24096386,,,,,,,,,,,1,16,5,1,,,,,,,,,,,,,,,,,,,,,,,,,,,,,,,
6429ffe11a9806a9a95ad072,SCR,2024-06-11_12h27.39.516,LearnStrategy,2023.2.3,Win32,60.24096386,,,,,,,,,,,7,08,5,2,,,,,,,,,,,,,,,,,,,,,,,,,,,,,,,
6429ffe11a9806a9a95ad072,SCR,2024-06-11_12h27.39.516,LearnStrategy,2023.2.3,Win32,60.24096386,,,,,,,,,,,7,07,5,3,,,,,,,,,,,,,,,,,,,,,,,,,,,,,,,
6429ffe11a9806a9a95ad072,SCR,2024-06-11_12h27.39.516,LearnStrategy,2023.2.3,Win32,60.24096386,,,,,,,,,,,8,14,5,4,,,,,,,,,,,,,,,,,,,,,,,,,,,,,,,
6429ffe11a9806a9a95ad072,SCR,2024-06-11_12h27.39.516,LearnStrategy,2023.2.3,Win32,60.24096386,,,,,,,,,,,8,08,5,5,,,,,,,,,,,,,,,,,,,,,,,,,,,,,,,
6429ffe11a9806a9a95ad072,SCR,2024-06-11_12h27.39.516,LearnStrategy,2023.2.3,Win32,60.24096386,,,,,,,,,,,3,09,5,6,,,,,,,,,,,,,,,,,,,,,,,,,,,,,,,
6429ffe11a9806a9a95ad072,SCR,2024-06-11_12h27.39.516,LearnStrategy,2023.2.3,Win32,60.24096386,,,,,,,,,,,7,06,5,7,,,,,,,,,,,,,,,,,,,,,,,,,,,,,,,
6429ffe11a9806a9a95ad072,SCR,2024-06-11_12h27.39.516,LearnStrategy,2023.2.3,Win32,60.24096386,,,,,,,,,,,7,10,5,8,,,,,,,,,,,,,,,,,,,,,,,,,,,,,,,
6429ffe11a9806a9a95ad072,SCR,2024-06-11_12h27.39.516,LearnStrategy,2023.2.3,Win32,60.24096386,,,,,,,,,,,8,16,6,1,,,,,,,,,,,,,,,,,,,,,,,,,,,,,,,
6429ffe11a9806a9a95ad072,SCR,2024-06-11_12h27.39.516,LearnStrategy,2023.2.3,Win32,60.24096386,,,,,,,,,,,6,11,6,2,,,,,,,,,,,,,,,,,,,,,,,,,,,,,,,
6429ffe11a9806a9a95ad072,SCR,2024-06-11_12h27.39.516,LearnStrategy,2023.2.3,Win32,60.24096386,,,,,,,,,,,2,14,6,3,,,,,,,,,,,,,,,,,,,,,,,,,,,,,,,
6429ffe11a9806a9a95ad072,SCR,2024-06-11_12h27.39.516,LearnStrategy,2023.2.3,Win32,60.24096386,,,,,,,,,,,4,10,6,4,,,,,,,,,,,,,,,,,,,,,,,,,,,,,,,
6429ffe11a9806a9a95ad072,SCR,2024-06-11_12h27.39.516,LearnStrategy,2023.2.3,Win32,60.24096386,,,,,,,,,,,3,14,6,5,,,,,,,,,,,,,,,,,,,,,,,,,,,,,,,
6429ffe11a9806a9a95ad072,SCR,2024-06-11_12h27.39.516,LearnStrategy,2023.2.3,Win32,60.24096386,,,,,,,,,,,7,02,6,6,,,,,,,,,,,,,,,,,,,,,,,,,,,,,,,
6429ffe11a9806a9a95ad072,SCR,2024-06-11_12h27.39.516,LearnStrategy,2023.2.3,Win32,60.24096386,,,,,,,,,,,8,03,6,7,,,,,,,,,,,,,,,,,,,,,,,,,,,,,,,
6429ffe11a9806a9a95ad072,SCR,2024-06-11_12h27.39.516,LearnStrategy,2023.2.3,Win32,60.24096386,,,,,,,,,,,4,09,6,8,,,,,,,,,,,,,,,,,,,,,,,,,,,,,,,