participant,condition,date,expName,psychopyVersion,OS,frameRate,block,phase,trial,learn_mouse.x,learn_mouse.y,learn_mouse.leftButton,learn_mouse.midButton,learn_mouse.rightButton,learn_mouse.time,learn_mouse.clicked_name,cat,token,row,col,t_select,cat_mouse_l.x,cat_mouse_l.y,cat_mouse_l.leftButton,cat_mouse_l.midButton,cat_mouse_l.rightButton,cat_mouse_l.time,cat_mouse_l.clicked_name,resp,t_resp,corr,train_trials.thisRepN,train_trials.thisTrialN,train_trials.thisN,train_trials.thisIndex,train_trials.ran,cat_mouse_t.x,cat_mouse_t.y,cat_mouse_t.leftButton,cat_mouse_t.midButton,cat_mouse_t.rightButton,cat_mouse_t.time,cat_mouse_t.clicked_name,test_trials.thisRepN,test_trials.thisTrialN,test_trials.thisN,test_trials.thisIndex,test_trials.ran,Bonus
643480e93c33701dfe923abd,SCN,2024-06-25_13h22.22.016,LearnStrategy,2023.2.3,MacIntel,63.29113924,,,,,,,,,,,,,,,,,,,,,,,,,,,,,,,,,,,,,,,,,,,
643480e93c33701dfe923abd,SCN,2024-06-25_13h22.22.016,LearnStrategy,2023.2.3,MacIntel,63.29113924,1,1,1,0.085618354,0.087012363,1,0,0,3.7951,Obsidian_04,5,04,4,5,3.795,-0.33840722,-0.396476373,1,0,0,3.5251,Obsidian_rect,5,3.525,1,0,0,0,0,1,,,,,,,,,,,,,
643480e93c33701dfe923abd,SCN,2024-06-25_13h22.22.016,LearnStrategy,2023.2.3,MacIntel,63.29113924,1,1,2,0.218865492,0.063304206,1,0,0,2.0679,Peridotite_15,7,15,4,6,2.068,0.365834283,-0.394366726,1,0,0,2.4904,Pumice_rect,8,2.49,0,1,0,1,0,1,,,,,,,,,,,,,
643480e93c33701dfe923abd,SCN,2024-06-25_13h22.22.016,LearnStrategy,2023.2.3,MacIntel,63.29113924,1,1,3,0.401417236,0.106211853,1,0,0,3.1445,Obsidian_06,5,06,4,7,3.144,0.406730143,-0.241064996,1,0,0,1.9581,Gabbro_rect,4,1.958,0,2,0,2,0,1,,,,,,,,,,,,,
643480e93c33701dfe923abd,SCN,2024-06-25_13h22.22.016,LearnStrategy,2023.2.3,MacIntel,63.29113924,1,1,4,0.559941542,0.080232476,1,0,0,2.8555,Pegmatite_15,6,15,4,8,2.855,-0.478793572,-0.248011068,1,0,0,2.2484,Andesite_rect,1,2.248,0,3,0,3,0,1,,,,,,,,,,,,,
643480e93c33701dfe923abd,SCN,2024-06-25_13h22.22.016,LearnStrategy,2023.2.3,MacIntel,63.29113924,1,1,5,-0.415173204,-0.106315104,1,0,0,2.9813,Basalt_02,2,02,3,2,2.981,-0.119144558,-0.242531331,1,0,0,1.6832,Basalt_rect,2,1.683,1,4,0,4,0,1,,,,,,,,,,,,,
643480e93c33701dfe923abd,SCN,2024-06-25_13h22.22.016,LearnStrategy,2023.2.3,MacIntel,63.29113924,1,1,6,-0.203728095,-0.093309123,1,0,0,1.1863,Pumice_08,8,08,3,3,1.186,-0.146556261,-0.254586792,1,0,0,1.0232,Basalt_rect,2,1.023,0,5,0,5,0,1,,,,,,,,,,,,,
643480e93c33701dfe923abd,SCN,2024-06-25_13h22.22.016,LearnStrategy,2023.2.3,MacIntel,63.29113924,1,1,7,-0.061539985,-0.103097195,1,0,0,1.4307,Basalt_01,2,01,3,4,1.431,-0.123195869,-0.245234918,1,0,0,1.6284,Basalt_rect,2,1.628,1,6,0,6,0,1,,,,,,,,,,,,,
643480e93c33701dfe923abd,SCN,2024-06-25_13h22.22.016,LearnStrategy,2023.2.3,MacIntel,63.29113924,1,1,8,0.08621304,-0.102685954,1,0,0,1.1214,Basalt_09,2,09,3,5,1.121,-0.089671021,-0.258870443,1,0,0,2.0157,Basalt_rect,2,2.016,1,7,0,7,0,1,,,,,,,,,,,,,
643480e93c33701dfe923abd,SCN,2024-06-25_13h22.22.016,LearnStrategy,2023.2.3,MacIntel,63.29113924,1,1,9,0.234734497,-0.104491713,1,0,0,1.1636,Peridotite_16,7,16,3,6,1.164,-0.090747681,-0.41645969,1,0,0,2.8482,Pegmatite_rect,6,2.848,0,8,0,8,0,1,,,,,,,,,,,,,
643480e93c33701dfe923abd,SCN,2024-06-25_13h22.22.016,LearnStrategy,2023.2.3,MacIntel,63.29113924,1,1,10,0.075597941,-0.29687439,1,0,0,1.486,Peridotite_13,7,13,2,5,1.486,0.129648234,-0.405976359,1,0,0,2.426,Peridotite_rect,7,2.426,1,9,0,9,0,1,,,,,,,,,,,,,
643480e93c33701dfe923abd,SCN,2024-06-25_13h22.22.016,LearnStrategy,2023.2.3,MacIntel,63.29113924,1,1,11,-0.067160238,-0.258328722,1,0,0,1.5324,Andesite_04,1,04,2,4,1.532,0.11814643,-0.23866767,1,0,0,1.6787,Diorite_rect,3,1.679,0,10,0,10,0,1,,,,,,,,,,,,,
643480e93c33701dfe923abd,SCN,2024-06-25_13h22.22.016,LearnStrategy,2023.2.3,MacIntel,63.29113924,1,1,12,-0.250247057,-0.260571153,1,0,0,2.275,Diorite_09,3,09,2,3,2.275,-0.359670648,-0.235072767,1,0,0,2.8463,Andesite_rect,1,2.846,0,11,0,11,0,1,,,,,,,,,,,,,
643480e93c33701dfe923abd,SCN,2024-06-25_13h22.22.016,LearnStrategy,2023.2.3,MacIntel,63.29113924,1,1,13,0.256479492,-0.408128526,1,0,0,1.5388,Diorite_16,3,16,1,6,1.539,0.142746921,-0.234629449,1,0,0,1.3436,Diorite_rect,3,1.344,1,12,0,12,0,1,,,,,,,,,,,,,
643480e93c33701dfe923abd,SCN,2024-06-25_13h22.22.016,LearnStrategy,2023.2.3,MacIntel,63.29113924,1,1,14,0.103037991,0.440849864,1,0,0,1.7069,Diorite_14,3,14,6,5,1.707,0.14121582,-0.26537245,1,0,0,0.9276,Diorite_rect,3,0.928,1,13,0,13,0,1,,,,,,,,,,,,,
643480e93c33701dfe923abd,SCN,2024-06-25_13h22.22.016,LearnStrategy,2023.2.3,MacIntel,63.29113924,1,1,15,-0.558099772,0.237563917,1,0,0,3.0238,Gabbro_13,4,13,5,1,3.024,0.457939453,-0.243720703,1,0,0,1.9657,Gabbro_rect,4,1.966,1,14,0,14,0,1,,,,,,,,,,,,,
643480e93c33701dfe923abd,SCN,2024-06-25_13h22.22.016,LearnStrategy,2023.2.3,MacIntel,63.29113924,1,1,16,0.414746501,-0.383808797,1,0,0,2.967,Diorite_13,3,13,1,7,2.967,0.349580621,-0.253183933,1,0,0,1.4266,Gabbro_rect,4,1.427,0,15,0,15,0,1,,,,,,,,,,,,,
643480e93c33701dfe923abd,SCN,2024-06-25_13h22.22.016,LearnStrategy,2023.2.3,MacIntel,63.29113924,1,2,1,,,,,,,,8,16,,,,,,,,,,,8,7.876,1,,,,,,0.431441922,-0.392786051,1,0,0,7.8762,Pumice_rect,0,0,0,0,1,
643480e93c33701dfe923abd,SCN,2024-06-25_13h22.22.016,LearnStrategy,2023.2.3,MacIntel,63.29113924,1,2,2,,,,,,,,1,02,,,,,,,,,,,3,2.243,0,,,,,,0.205172729,-0.245131022,1,0,0,2.2434,Diorite_rect,1,0,1,0,1,
643480e93c33701dfe923abd,SCN,2024-06-25_13h22.22.016,LearnStrategy,2023.2.3,MacIntel,63.29113924,1,2,3,,,,,,,,8,02,,,,,,,,,,,8,2.717,1,,,,,,0.508387994,-0.406521742,1,0,0,2.7169,Pumice_rect,2,0,2,0,1,
643480e93c33701dfe923abd,SCN,2024-06-25_13h22.22.016,LearnStrategy,2023.2.3,MacIntel,63.29113924,1,2,4,,,,,,,,5,02,,,,,,,,,,,5,1.729,1,,,,,,-0.344160021,-0.398206584,1,0,0,1.7289,Obsidian_rect,3,0,3,0,1,
643480e93c33701dfe923abd,SCN,2024-06-25_13h22.22.016,LearnStrategy,2023.2.3,MacIntel,63.29113924,1,2,5,,,,,,,,2,10,,,,,,,,,,,5,1.277,0,,,,,,-0.344160021,-0.398206584,1,0,0,1.2771,Obsidian_rect,4,0,4,0,1,
643480e93c33701dfe923abd,SCN,2024-06-25_13h22.22.016,LearnStrategy,2023.2.3,MacIntel,63.29113924,1,2,6,,,,,,,,6,09,,,,,,,,,,,7,2.758,0,,,,,,0.142365926,-0.406123386,1,0,0,2.7578,Peridotite_rect,5,0,5,0,1,
643480e93c33701dfe923abd,SCN,2024-06-25_13h22.22.016,LearnStrategy,2023.2.3,MacIntel,63.29113924,1,2,7,,,,,,,,3,02,,,,,,,,,,,3,1.971,1,,,,,,0.138436957,-0.265237901,1,0,0,1.971,Diorite_rect,6,0,6,0,1,
643480e93c33701dfe923abd,SCN,2024-06-25_13h22.22.016,LearnStrategy,2023.2.3,MacIntel,63.29113924,1,2,8,,,,,,,,7,05,,,,,,,,,,,6,4.295,0,,,,,,-0.031205919,-0.400449354,1,0,0,4.2948,Pegmatite_rect,7,0,7,0,1,
643480e93c33701dfe923abd,SCN,2024-06-25_13h22.22.016,LearnStrategy,2023.2.3,MacIntel,63.29113924,1,2,9,,,,,,,,7,10,,,,,,,,,,,6,1.094,0,,,,,,-0.031205919,-0.400449354,1,0,0,1.0938,Pegmatite_rect,8,0,8,0,1,
643480e93c33701dfe923abd,SCN,2024-06-25_13h22.22.016,LearnStrategy,2023.2.3,MacIntel,63.29113924,1,2,10,,,,,,,,6,11,,,,,,,,,,,5,2.257,0,,,,,,-0.402866618,-0.395964355,1,0,0,2.2571,Obsidian_rect,9,0,9,0,1,
643480e93c33701dfe923abd,SCN,2024-06-25_13h22.22.016,LearnStrategy,2023.2.3,MacIntel,63.29113924,1,2,11,,,,,,,,1,14,,,,,,,,,,,3,1.76,0,,,,,,0.177373183,-0.267663574,1,0,0,1.7597,Diorite_rect,10,0,10,0,1,
643480e93c33701dfe923abd,SCN,2024-06-25_13h22.22.016,LearnStrategy,2023.2.3,MacIntel,63.29113924,1,2,12,,,,,,,,4,16,,,,,,,,,,,2,3.527,0,,,,,,-0.162600165,-0.239854804,1,0,0,3.5266,Basalt_rect,11,0,11,0,1,
643480e93c33701dfe923abd,SCN,2024-06-25_13h22.22.016,LearnStrategy,2023.2.3,MacIntel,63.29113924,1,2,13,,,,,,,,2,06,,,,,,,,,,,2,3.347,1,,,,,,-0.162600165,-0.239854804,1,0,0,3.3471,Basalt_rect,12,0,12,0,1,
643480e93c33701dfe923abd,SCN,2024-06-25_13h22.22.016,LearnStrategy,2023.2.3,MacIntel,63.29113924,1,2,14,,,,,,,,4,08,,,,,,,,,,,1,2.296,0,,,,,,-0.327025655,-0.246790704,1,0,0,2.2962,Andesite_rect,13,0,13,0,1,
643480e93c33701dfe923abd,SCN,2024-06-25_13h22.22.016,LearnStrategy,2023.2.3,MacIntel,63.29113924,1,2,15,,,,,,,,5,14,,,,,,,,,,,5,1.38,1,,,,,,-0.374032118,-0.404297824,1,0,0,1.38,Obsidian_rect,14,0,14,0,1,
643480e93c33701dfe923abd,SCN,2024-06-25_13h22.22.016,LearnStrategy,2023.2.3,MacIntel,63.29113924,1,2,16,,,,,,,,3,07,,,,,,,,,,,3,1.398,1,,,,,,0.169946493,-0.251702949,1,0,0,1.3985,Diorite_rect,15,0,15,0,1,
643480e93c33701dfe923abd,SCN,2024-06-25_13h22.22.016,LearnStrategy,2023.2.3,MacIntel,63.29113924,2,1,1,-0.195324978,0.092404616,1,0,0,6.8314,Andesite_07,1,07,4,3,6.831,0.114413791,-0.23649726,1,0,0,1.5317,Diorite_rect,3,1.532,0,0,0,0,0,1,,,,,,,,,,,,,
643480e93c33701dfe923abd,SCN,2024-06-25_13h22.22.016,LearnStrategy,2023.2.3,MacIntel,63.29113924,2,1,2,0.263605279,0.405473735,1,0,0,2.2641,Pegmatite_10,6,10,6,6,2.264,-0.075603095,-0.402818264,1,0,0,1.6486,Pegmatite_rect,6,1.649,1,1,0,1,0,1,,,,,,,,,,,,,
643480e93c33701dfe923abd,SCN,2024-06-25_13h22.22.016,LearnStrategy,2023.2.3,MacIntel,63.29113924,2,1,3,0.429355333,-0.109498291,1,0,0,3.2116,Andesite_05,1,05,3,7,3.212,0.083845079,-0.403765191,1,0,0,2.0368,Peridotite_rect,7,2.037,0,2,0,2,0,1,,,,,,,,,,,,,
643480e93c33701dfe923abd,SCN,2024-06-25_13h22.22.016,LearnStrategy,2023.2.3,MacIntel,63.29113924,2,1,4,-0.262397088,-0.421239285,1,0,0,2.7583,Gabbro_14,4,14,1,3,2.758,0.073562893,-0.40994534,1,0,0,2.4415,Peridotite_rect,7,2.441,0,3,0,3,0,1,,,,,,,,,,,,,
643480e93c33701dfe923abd,SCN,2024-06-25_13h22.22.016,LearnStrategy,2023.2.3,MacIntel,63.29113924,2,1,5,-0.546573181,-0.413882311,1,0,0,4.1952,Gabbro_03,4,03,1,1,4.195,0.107886556,-0.23909295,1,0,0,5.4797,Diorite_rect,3,5.48,0,4,0,4,0,1,,,,,,,,,,,,,
643480e93c33701dfe923abd,SCN,2024-06-25_13h22.22.016,LearnStrategy,2023.2.3,MacIntel,63.29113924,2,1,6,0.404282362,-0.420754055,1,0,0,3.426,Diorite_13,3,13,1,7,3.426,0.127378811,-0.242863837,1,0,0,1.5654,Diorite_rect,3,1.565,1,5,0,5,0,1,,,,,,,,,,,,,
643480e93c33701dfe923abd,SCN,2024-06-25_13h22.22.016,LearnStrategy,2023.2.3,MacIntel,63.29113924,2,1,7,-0.574769643,0.231662462,1,0,0,2.1811,Gabbro_13,4,13,5,1,2.181,0.466900092,-0.271425646,1,0,0,1.8621,Gabbro_rect,4,1.862,1,6,0,6,0,1,,,,,,,,,,,,,
643480e93c33701dfe923abd,SCN,2024-06-25_13h22.22.016,LearnStrategy,2023.2.3,MacIntel,63.29113924,2,1,8,-0.400490078,0.38799781,1,0,0,1.9327,Pumice_10,8,10,6,2,1.933,0.44900472,-0.392596571,1,0,0,1.9826,Pumice_rect,8,1.983,1,7,0,7,0,1,,,,,,,,,,,,,
643480e93c33701dfe923abd,SCN,2024-06-25_13h22.22.016,LearnStrategy,2023.2.3,MacIntel,63.29113924,2,1,9,-0.107466295,-0.428117608,1,0,0,4.3868,Peridotite_04,7,04,1,4,4.387,-0.106466268,-0.406160346,1,0,0,1.7849,Pegmatite_rect,6,1.785,0,8,0,8,0,1,,,,,,,,,,,,,
643480e93c33701dfe923abd,SCN,2024-06-25_13h22.22.016,LearnStrategy,2023.2.3,MacIntel,63.29113924,2,1,10,-0.357515394,-0.414174194,1,0,0,2.7646,Peridotite_02,7,02,1,2,2.765,0.100059679,-0.412151082,1,0,0,2.385,Peridotite_rect,7,2.385,1,9,0,9,0,1,,,,,,,,,,,,,
643480e93c33701dfe923abd,SCN,2024-06-25_13h22.22.016,LearnStrategy,2023.2.3,MacIntel,63.29113924,2,1,11,0.347576497,-0.274788615,1,0,0,2.1289,Pumice_14,8,14,2,7,2.129,-0.189940389,-0.390439996,1,0,0,2.6112,Pegmatite_rect,6,2.611,0,10,0,10,0,1,,,,,,,,,,,,,
643480e93c33701dfe923abd,SCN,2024-06-25_13h22.22.016,LearnStrategy,2023.2.3,MacIntel,63.29113924,2,1,12,0.530524224,0.265371518,1,0,0,2.4675,Andesite_11,1,11,5,8,2.467,-0.159708794,-0.392603624,1,0,0,1.5968,Pegmatite_rect,6,1.597,0,11,0,11,0,1,,,,,,,,,,,,,
643480e93c33701dfe923abd,SCN,2024-06-25_13h22.22.016,LearnStrategy,2023.2.3,MacIntel,63.29113924,2,1,13,0.380567898,0.376779497,1,0,0,2.108,Gabbro_01,4,01,6,7,2.108,-0.375060628,-0.237755669,1,0,0,1.367,Andesite_rect,1,1.367,0,12,0,12,0,1,,,,,,,,,,,,,
643480e93c33701dfe923abd,SCN,2024-06-25_13h22.22.016,LearnStrategy,2023.2.3,MacIntel,63.29113924,2,1,14,-0.216022881,0.277714691,1,0,0,2.6111,Pegmatite_05,6,05,5,3,2.611,-0.375580241,-0.403322957,1,0,0,1.783,Obsidian_rect,5,1.783,0,13,0,13,0,1,,,,,,,,,,,,,
643480e93c33701dfe923abd,SCN,2024-06-25_13h22.22.016,LearnStrategy,2023.2.3,MacIntel,63.29113924,2,1,15,-0.540871701,0.105233527,1,0,0,2.5332,Basalt_11,2,11,4,1,2.533,-0.10307407,-0.400547282,1,0,0,3.714,Pegmatite_rect,6,3.714,0,14,0,14,0,1,,,,,,,,,,,,,
643480e93c33701dfe923abd,SCN,2024-06-25_13h22.22.016,LearnStrategy,2023.2.3,MacIntel,63.29113924,2,1,16,-0.212790934,0.095436808,1,0,0,1.9618,Andesite_07,1,07,4,3,1.962,0.17989129,-0.253260091,1,0,0,1.2531,Diorite_rect,3,1.253,0,15,0,15,0,1,,,,,,,,,,,,,
643480e93c33701dfe923abd,SCN,2024-06-25_13h22.22.016,LearnStrategy,2023.2.3,MacIntel,63.29113924,2,2,1,,,,,,,,8,09,,,,,,,,,,,8,2.837,1,,,,,,0.366280382,-0.394198337,1,0,0,2.8374,Pumice_rect,0,0,0,0,1,
643480e93c33701dfe923abd,SCN,2024-06-25_13h22.22.016,LearnStrategy,2023.2.3,MacIntel,63.29113924,2,2,2,,,,,,,,4,15,,,,,,,,,,,4,2.689,1,,,,,,0.326694539,-0.24249349,1,0,0,2.6891,Gabbro_rect,1,0,1,0,1,
643480e93c33701dfe923abd,SCN,2024-06-25_13h22.22.016,LearnStrategy,2023.2.3,MacIntel,63.29113924,2,2,3,,,,,,,,7,06,,,,,,,,,,,7,1.497,1,,,,,,0.12809082,-0.406746419,1,0,0,1.4969,Peridotite_rect,2,0,2,0,1,
643480e93c33701dfe923abd,SCN,2024-06-25_13h22.22.016,LearnStrategy,2023.2.3,MacIntel,63.29113924,2,2,4,,,,,,,,4,09,,,,,,,,,,,6,5.746,0,,,,,,-0.143183187,-0.399781087,1,0,0,5.7463,Pegmatite_rect,3,0,3,0,1,
643480e93c33701dfe923abd,SCN,2024-06-25_13h22.22.016,LearnStrategy,2023.2.3,MacIntel,63.29113924,2,2,5,,,,,,,,8,06,,,,,,,,,,,8,1.68,1,,,,,,0.383100857,-0.392469957,1,0,0,1.6801,Pumice_rect,4,0,4,0,1,
643480e93c33701dfe923abd,SCN,2024-06-25_13h22.22.016,LearnStrategy,2023.2.3,MacIntel,63.29113924,2,2,6,,,,,,,,2,05,,,,,,,,,,,5,3.524,0,,,,,,-0.427202284,-0.39373725,1,0,0,3.5236,Obsidian_rect,5,0,5,0,1,
643480e93c33701dfe923abd,SCN,2024-06-25_13h22.22.016,LearnStrategy,2023.2.3,MacIntel,63.29113924,2,2,7,,,,,,,,5,05,,,,,,,,,,,5,1.116,1,,,,,,-0.427202284,-0.39373725,1,0,0,1.1157,Obsidian_rect,6,0,6,0,1,
643480e93c33701dfe923abd,SCN,2024-06-25_13h22.22.016,LearnStrategy,2023.2.3,MacIntel,63.29113924,2,2,8,,,,,,,,6,12,,,,,,,,,,,2,6.915,0,,,,,,-0.124526232,-0.265137668,1,0,0,6.9154,Basalt_rect,7,0,7,0,1,
643480e93c33701dfe923abd,SCN,2024-06-25_13h22.22.016,LearnStrategy,2023.2.3,MacIntel,63.29113924,2,2,9,,,,,,,,2,12,,,,,,,,,,,4,4.086,0,,,,,,0.4720185,-0.25352695,1,0,0,4.0862,Gabbro_rect,8,0,8,0,1,
643480e93c33701dfe923abd,SCN,2024-06-25_13h22.22.016,LearnStrategy,2023.2.3,MacIntel,63.29113924,2,2,10,,,,,,,,1,16,,,,,,,,,,,3,2.618,0,,,,,,0.041549208,-0.243577338,1,0,0,2.6181,Diorite_rect,9,0,9,0,1,
643480e93c33701dfe923abd,SCN,2024-06-25_13h22.22.016,LearnStrategy,2023.2.3,MacIntel,63.29113924,2,2,11,,,,,,,,3,06,,,,,,,,,,,3,0.978,1,,,,,,0.041549208,-0.243577338,1,0,0,0.978,Diorite_rect,10,0,10,0,1,
643480e93c33701dfe923abd,SCN,2024-06-25_13h22.22.016,LearnStrategy,2023.2.3,MacIntel,63.29113924,2,2,12,,,,,,,,3,12,,,,,,,,,,,3,0.891,1,,,,,,0.041549208,-0.243577338,1,0,0,0.8913,Diorite_rect,11,0,11,0,1,
643480e93c33701dfe923abd,SCN,2024-06-25_13h22.22.016,LearnStrategy,2023.2.3,MacIntel,63.29113924,2,2,13,,,,,,,,5,12,,,,,,,,,,,5,1.192,1,,,,,,-0.331433478,-0.396288588,1,0,0,1.1924,Obsidian_rect,12,0,12,0,1,
643480e93c33701dfe923abd,SCN,2024-06-25_13h22.22.016,LearnStrategy,2023.2.3,MacIntel,63.29113924,2,2,14,,,,,,,,7,12,,,,,,,,,,,7,1.822,1,,,,,,0.161102295,-0.3898683,1,0,0,1.8222,Peridotite_rect,13,0,13,0,1,
643480e93c33701dfe923abd,SCN,2024-06-25_13h22.22.016,LearnStrategy,2023.2.3,MacIntel,63.29113924,2,2,15,,,,,,,,6,03,,,,,,,,,,,7,5.461,0,,,,,,0.213405897,-0.389549967,1,0,0,5.461,Peridotite_rect,14,0,14,0,1,
643480e93c33701dfe923abd,SCN,2024-06-25_13h22.22.016,LearnStrategy,2023.2.3,MacIntel,63.29113924,2,2,16,,,,,,,,1,09,,,,,,,,,,,1,3.192,1,,,,,,-0.354934692,-0.256208971,1,0,0,3.192,Andesite_rect,15,0,15,0,1,
643480e93c33701dfe923abd,SCN,2024-06-25_13h22.22.016,LearnStrategy,2023.2.3,MacIntel,63.29113924,3,1,1,-0.387712775,0.269588877,1,0,0,2.1878,Diorite_08,3,08,5,2,2.188,0.137824639,-0.239490696,1,0,0,2.6686,Diorite_rect,3,2.669,1,0,0,0,0,1,,,,,,,,,,,,,
643480e93c33701dfe923abd,SCN,2024-06-25_13h22.22.016,LearnStrategy,2023.2.3,MacIntel,63.29113924,3,1,2,-0.568282928,0.395551114,1,0,0,1.6155,Gabbro_11,4,11,6,1,1.615,-0.06662306,-0.268225098,1,0,0,1.6118,Basalt_rect,2,1.612,0,1,0,1,0,1,,,,,,,,,,,,,
643480e93c33701dfe923abd,SCN,2024-06-25_13h22.22.016,LearnStrategy,2023.2.3,MacIntel,63.29113924,3,1,3,-0.359661424,0.394167701,1,0,0,1.6136,Pumice_10,8,10,6,2,1.614,0.466094835,-0.415306329,1,0,0,2.3374,Pumice_rect,8,2.337,1,2,0,2,0,1,,,,,,,,,,,,,
643480e93c33701dfe923abd,SCN,2024-06-25_13h22.22.016,LearnStrategy,2023.2.3,MacIntel,63.29113924,3,1,4,-0.103055962,0.398259057,1,0,0,1.3994,Pegmatite_07,6,07,6,4,1.399,-0.109562378,-0.412678562,1,0,0,1.8582,Pegmatite_rect,6,1.858,1,3,0,3,0,1,,,,,,,,,,,,,
643480e93c33701dfe923abd,SCN,2024-06-25_13h22.22.016,LearnStrategy,2023.2.3,MacIntel,63.29113924,3,1,5,0.213981595,0.385571289,1,0,0,1.9476,Pegmatite_10,6,10,6,6,1.948,0.146768934,-0.394106377,1,0,0,2.9601,Peridotite_rect,7,2.96,0,4,0,4,0,1,,,,,,,,,,,,,
643480e93c33701dfe923abd,SCN,2024-06-25_13h22.22.016,LearnStrategy,2023.2.3,MacIntel,63.29113924,3,1,6,0.39741862,0.409708523,1,0,0,1.8482,Gabbro_01,4,01,6,7,1.848,-0.133619588,-0.257394341,1,0,0,1.8015,Basalt_rect,2,1.802,0,5,0,5,0,1,,,,,,,,,,,,,
643480e93c33701dfe923abd,SCN,2024-06-25_13h22.22.016,LearnStrategy,2023.2.3,MacIntel,63.29113924,3,1,7,-0.374409892,-0.415747409,1,0,0,1.546,Peridotite_02,7,02,1,2,1.546,0.13316881,-0.402196045,1,0,0,1.9464,Peridotite_rect,7,1.946,1,6,0,6,0,1,,,,,,,,,,,,,
643480e93c33701dfe923abd,SCN,2024-06-25_13h22.22.016,LearnStrategy,2023.2.3,MacIntel,63.29113924,3,1,8,-0.218382568,-0.104257745,1,0,0,1.9582,Pumice_08,8,08,3,3,1.958,0.393318821,-0.397855225,1,0,0,2.8158,Pumice_rect,8,2.816,1,7,0,7,0,1,,,,,,,,,,,,,
643480e93c33701dfe923abd,SCN,2024-06-25_13h22.22.016,LearnStrategy,2023.2.3,MacIntel,63.29113924,3,1,9,-0.400249905,-0.128318075,1,0,0,1.3742,Basalt_02,2,02,3,2,1.374,-0.126359931,-0.252852173,1,0,0,1.8173,Basalt_rect,2,1.817,1,8,0,8,0,1,,,,,,,,,,,,,
643480e93c33701dfe923abd,SCN,2024-06-25_13h22.22.016,LearnStrategy,2023.2.3,MacIntel,63.29113924,3,1,10,-0.568926544,-0.110354004,1,0,0,1.4556,Diorite_15,3,15,3,1,1.456,0.386444906,-0.241979167,1,0,0,2.1786,Gabbro_rect,4,2.179,0,9,0,9,0,1,,,,,,,,,,,,,
643480e93c33701dfe923abd,SCN,2024-06-25_13h22.22.016,LearnStrategy,2023.2.3,MacIntel,63.29113924,3,1,11,-0.059967719,-0.134251777,1,0,0,2.3081,Basalt_01,2,01,3,4,2.308,0.393105197,-0.256267361,1,0,0,2.1712,Gabbro_rect,4,2.171,0,10,0,10,0,1,,,,,,,,,,,,,
643480e93c33701dfe923abd,SCN,2024-06-25_13h22.22.016,LearnStrategy,2023.2.3,MacIntel,63.29113924,3,1,12,0.04780131,-0.083770955,1,0,0,1.2458,Basalt_09,2,09,3,5,1.246,-0.105297106,-0.255767212,1,0,0,1.4283,Basalt_rect,2,1.428,1,11,0,11,0,1,,,,,,,,,,,,,
643480e93c33701dfe923abd,SCN,2024-06-25_13h22.22.016,LearnStrategy,2023.2.3,MacIntel,63.29113924,3,1,13,-0.396501126,-0.409398804,1,0,0,1.8312,Peridotite_02,7,02,1,2,1.831,0.133781399,-0.392383084,1,0,0,1.2929,Peridotite_rect,7,1.293,1,12,0,12,0,1,,,,,,,,,,,,,
643480e93c33701dfe923abd,SCN,2024-06-25_13h22.22.016,LearnStrategy,2023.2.3,MacIntel,63.29113924,3,1,14,0.24645718,0.373978034,1,0,0,2.4964,Pegmatite_10,6,10,6,6,2.496,-0.098858032,-0.387065904,1,0,0,1.0329,Pegmatite_rect,6,1.033,1,13,0,13,0,1,,,,,,,,,,,,,
643480e93c33701dfe923abd,SCN,2024-06-25_13h22.22.016,LearnStrategy,2023.2.3,MacIntel,63.29113924,3,1,15,-0.534629483,0.07994083,1,0,0,1.2184,Basalt_11,2,11,4,1,1.218,0.125487535,-0.23924703,1,0,0,2.33,Diorite_rect,3,2.33,0,14,0,14,0,1,,,,,,,,,,,,,
643480e93c33701dfe923abd,SCN,2024-06-25_13h22.22.016,LearnStrategy,2023.2.3,MacIntel,63.29113924,3,1,16,0.047185398,-0.112947184,1,0,0,1.025,Basalt_09,2,09,3,5,1.025,-0.122900594,-0.230818821,1,0,0,1.1012,Basalt_rect,2,1.101,1,15,0,15,0,1,,,,,,,,,,,,,
643480e93c33701dfe923abd,SCN,2024-06-25_13h22.22.016,LearnStrategy,2023.2.3,MacIntel,63.29113924,3,2,1,,,,,,,,8,15,,,,,,,,,,,8,11.643,1,,,,,,0.396356337,-0.399297553,1,0,0,11.6428,Pumice_rect,0,0,0,0,1,
643480e93c33701dfe923abd,SCN,2024-06-25_13h22.22.016,LearnStrategy,2023.2.3,MacIntel,63.29113924,3,2,2,,,,,,,,5,10,,,,,,,,,,,5,1.795,1,,,,,,-0.421228604,-0.399639011,1,0,0,1.7952,Obsidian_rect,1,0,1,0,1,
643480e93c33701dfe923abd,SCN,2024-06-25_13h22.22.016,LearnStrategy,2023.2.3,MacIntel,63.29113924,3,2,3,,,,,,,,1,10,,,,,,,,,,,2,6.606,0,,,,,,-0.049492255,-0.248523831,1,0,0,6.6061,Basalt_rect,2,0,2,0,1,
643480e93c33701dfe923abd,SCN,2024-06-25_13h22.22.016,LearnStrategy,2023.2.3,MacIntel,63.29113924,3,2,4,,,,,,,,3,10,,,,,,,,,,,3,1.329,1,,,,,,0.127571818,-0.262796292,1,0,0,1.3289,Diorite_rect,3,0,3,0,1,
643480e93c33701dfe923abd,SCN,2024-06-25_13h22.22.016,LearnStrategy,2023.2.3,MacIntel,63.29113924,3,2,5,,,,,,,,2,08,,,,,,,,,,,5,1.454,0,,,,,,-0.414458584,-0.400565864,1,0,0,1.4537,Obsidian_rect,4,0,4,0,1,
643480e93c33701dfe923abd,SCN,2024-06-25_13h22.22.016,LearnStrategy,2023.2.3,MacIntel,63.29113924,3,2,6,,,,,,,,6,13,,,,,,,,,,,7,2.373,0,,,,,,0.111268989,-0.399543254,1,0,0,2.3733,Peridotite_rect,5,0,5,0,1,
643480e93c33701dfe923abd,SCN,2024-06-25_13h22.22.016,LearnStrategy,2023.2.3,MacIntel,63.29113924,3,2,7,,,,,,,,8,13,,,,,,,,,,,8,2.287,1,,,,,,0.432497694,-0.381232368,1,0,0,2.2869,Pumice_rect,6,0,6,0,1,
643480e93c33701dfe923abd,SCN,2024-06-25_13h22.22.016,LearnStrategy,2023.2.3,MacIntel,63.29113924,3,2,8,,,,,,,,2,16,,,,,,,,,,,4,1.993,0,,,,,,0.389613715,-0.24827969,1,0,0,1.9929,Gabbro_rect,7,0,7,0,1,
643480e93c33701dfe923abd,SCN,2024-06-25_13h22.22.016,LearnStrategy,2023.2.3,MacIntel,63.29113924,3,2,9,,,,,,,,7,07,,,,,,,,,,,3,2.26,0,,,,,,0.127564358,-0.236103923,1,0,0,2.2605,Diorite_rect,8,0,8,0,1,
643480e93c33701dfe923abd,SCN,2024-06-25_13h22.22.016,LearnStrategy,2023.2.3,MacIntel,63.29113924,3,2,10,,,,,,,,6,06,,,,,,,,,,,6,1.496,1,,,,,,-0.133921577,-0.394592896,1,0,0,1.4965,Pegmatite_rect,9,0,9,0,1,
643480e93c33701dfe923abd,SCN,2024-06-25_13h22.22.016,LearnStrategy,2023.2.3,MacIntel,63.29113924,3,2,11,,,,,,,,4,12,,,,,,,,,,,2,2.088,0,,,,,,-0.133983765,-0.259504123,1,0,0,2.0878,Basalt_rect,10,0,10,0,1,
643480e93c33701dfe923abd,SCN,2024-06-25_13h22.22.016,LearnStrategy,2023.2.3,MacIntel,63.29113924,3,2,12,,,,,,,,1,03,,,,,,,,,,,1,2.269,1,,,,,,-0.450174628,-0.241645576,1,0,0,2.2687,Andesite_rect,11,0,11,0,1,
643480e93c33701dfe923abd,SCN,2024-06-25_13h22.22.016,LearnStrategy,2023.2.3,MacIntel,63.29113924,3,2,13,,,,,,,,4,05,,,,,,,,,,,7,3.212,0,,,,,,0.123769124,-0.399933675,1,0,0,3.2122,Peridotite_rect,12,0,12,0,1,
643480e93c33701dfe923abd,SCN,2024-06-25_13h22.22.016,LearnStrategy,2023.2.3,MacIntel,63.29113924,3,2,14,,,,,,,,7,14,,,,,,,,,,,7,1.312,1,,,,,,0.123769124,-0.399933675,1,0,0,1.3124,Peridotite_rect,13,0,13,0,1,
643480e93c33701dfe923abd,SCN,2024-06-25_13h22.22.016,LearnStrategy,2023.2.3,MacIntel,63.29113924,3,2,15,,,,,,,,5,07,,,,,,,,,,,5,1.52,1,,,,,,-0.475430027,-0.398585748,1,0,0,1.52,Obsidian_rect,14,0,14,0,1,
643480e93c33701dfe923abd,SCN,2024-06-25_13h22.22.016,LearnStrategy,2023.2.3,MacIntel,63.29113924,3,2,16,,,,,,,,3,11,,,,,,,,,,,3,1.241,1,,,,,,0.086051907,-0.255574273,1,0,0,1.241,Diorite_rect,15,0,15,0,1,
643480e93c33701dfe923abd,SCN,2024-06-25_13h22.22.016,LearnStrategy,2023.2.3,MacIntel,63.29113924,4,1,1,-0.37803321,0.246888614,1,0,0,2.6632,Diorite_08,3,08,5,2,2.663,0.186017524,-0.251136271,1,0,0,1.4188,Diorite_rect,3,1.419,1,0,0,0,0,1,,,,,,,,,,,,,
643480e93c33701dfe923abd,SCN,2024-06-25_13h22.22.016,LearnStrategy,2023.2.3,MacIntel,63.29113924,4,1,2,0.081697456,0.091393772,1,0,0,1.0038,Obsidian_04,5,04,4,5,1.004,-0.375949673,-0.378156264,1,0,0,1.3925,Obsidian_rect,5,1.392,1,1,0,1,0,1,,,,,,,,,,,,,
643480e93c33701dfe923abd,SCN,2024-06-25_13h22.22.016,LearnStrategy,2023.2.3,MacIntel,63.29113924,4,1,3,0.536153158,0.067307197,1,0,0,1.3294,Pegmatite_15,6,15,4,8,1.329,0.086395806,-0.407852648,1,0,0,1.3938,Peridotite_rect,7,1.394,0,2,0,2,0,1,,,,,,,,,,,,,
643480e93c33701dfe923abd,SCN,2024-06-25_13h22.22.016,LearnStrategy,2023.2.3,MacIntel,63.29113924,4,1,4,0.396010335,0.237919227,1,0,0,1.623,Pegmatite_16,6,16,5,7,1.623,-0.406700914,-0.246029799,1,0,0,2.7266,Andesite_rect,1,2.727,0,3,0,3,0,1,,,,,,,,,,,,,
643480e93c33701dfe923abd,SCN,2024-06-25_13h22.22.016,LearnStrategy,2023.2.3,MacIntel,63.29113924,4,1,5,0.54167806,0.092741564,1,0,0,2.0265,Pegmatite_15,6,15,4,8,2.027,-0.178942803,-0.407626817,1,0,0,1.5539,Pegmatite_rect,6,1.554,1,4,0,4,0,1,,,,,,,,,,,,,
643480e93c33701dfe923abd,SCN,2024-06-25_13h22.22.016,LearnStrategy,2023.2.3,MacIntel,63.29113924,4,1,6,0.581618652,-0.281436361,1,0,0,2.1747,Peridotite_08,7,08,2,8,2.175,-0.399126892,-0.264205933,1,0,0,2.9493,Andesite_rect,1,2.949,0,5,0,5,0,1,,,,,,,,,,,,,
643480e93c33701dfe923abd,SCN,2024-06-25_13h22.22.016,LearnStrategy,2023.2.3,MacIntel,63.29113924,4,1,7,0.380899523,-0.253094618,1,0,0,2.7492,Pumice_14,8,14,2,7,2.749,-0.374602153,-0.238649428,1,0,0,2.5142,Andesite_rect,1,2.514,0,6,0,6,0,1,,,,,,,,,,,,,
643480e93c33701dfe923abd,SCN,2024-06-25_13h22.22.016,LearnStrategy,2023.2.3,MacIntel,63.29113924,4,1,8,-0.576317664,-0.383205499,1,0,0,2.518,Gabbro_03,4,03,1,1,2.518,-0.154989285,-0.271816813,1,0,0,2.0091,Basalt_rect,2,2.009,0,7,0,7,0,1,,,,,,,,,,,,,
643480e93c33701dfe923abd,SCN,2024-06-25_13h22.22.016,LearnStrategy,2023.2.3,MacIntel,63.29113924,4,1,9,0.533569743,0.271158023,1,0,0,1.7758,Andesite_11,1,11,5,8,1.776,0.423440755,-0.24766215,1,0,0,0.9977,Gabbro_rect,4,0.998,0,8,0,8,0,1,,,,,,,,,,,,,
643480e93c33701dfe923abd,SCN,2024-06-25_13h22.22.016,LearnStrategy,2023.2.3,MacIntel,63.29113924,4,1,10,0.257985365,-0.415959337,1,0,0,2.3591,Diorite_16,3,16,1,6,2.359,0.081742147,-0.251613973,1,0,0,1.6411,Diorite_rect,3,1.641,1,9,0,9,0,1,,,,,,,,,,,,,
643480e93c33701dfe923abd,SCN,2024-06-25_13h22.22.016,LearnStrategy,2023.2.3,MacIntel,63.29113924,4,1,11,-0.219733412,-0.118409695,1,0,0,1.2323,Pumice_08,8,08,3,3,1.232,0.429626465,-0.408800998,1,0,0,1.5995,Pumice_rect,8,1.6,1,10,0,10,0,1,,,,,,,,,,,,,
643480e93c33701dfe923abd,SCN,2024-06-25_13h22.22.016,LearnStrategy,2023.2.3,MacIntel,63.29113924,4,1,12,-0.415079956,-0.093867459,1,0,0,1.2082,Basalt_02,2,02,3,2,1.208,-0.135147909,-0.264374593,1,0,0,1.2251,Basalt_rect,2,1.225,1,11,0,11,0,1,,,,,,,,,,,,,
643480e93c33701dfe923abd,SCN,2024-06-25_13h22.22.016,LearnStrategy,2023.2.3,MacIntel,63.29113924,4,1,13,0.086658664,-0.263064304,1,0,0,1.6219,Peridotite_13,7,13,2,5,1.622,0.157821181,-0.398553263,1,0,0,0.6767,Peridotite_rect,7,0.677,1,12,0,12,0,1,,,,,,,,,,,,,
643480e93c33701dfe923abd,SCN,2024-06-25_13h22.22.016,LearnStrategy,2023.2.3,MacIntel,63.29113924,4,1,14,-0.2470008,0.384132199,1,0,0,1.2973,Andesite_06,1,06,6,3,1.297,0.14250434,-0.234504801,1,0,0,1.1079,Diorite_rect,3,1.108,0,13,0,13,0,1,,,,,,,,,,,,,
643480e93c33701dfe923abd,SCN,2024-06-25_13h22.22.016,LearnStrategy,2023.2.3,MacIntel,63.29113924,4,1,15,-0.084382528,0.396182844,1,0,0,2.3754,Pegmatite_07,6,07,6,4,2.375,-0.147409804,-0.418007202,1,0,0,2.7657,Pegmatite_rect,6,2.766,1,14,0,14,0,1,,,,,,,,,,,,,
643480e93c33701dfe923abd,SCN,2024-06-25_13h22.22.016,LearnStrategy,2023.2.3,MacIntel,63.29113924,4,1,16,-0.342758179,0.410319994,1,0,0,2.0149,Pumice_10,8,10,6,2,2.015,0.489206407,-0.419660102,1,0,0,1.4289,Pumice_rect,8,1.429,1,15,0,15,0,1,,,,,,,,,,,,,
643480e93c33701dfe923abd,SCN,2024-06-25_13h22.22.016,LearnStrategy,2023.2.3,MacIntel,63.29113924,4,2,1,,,,,,,,5,12,,,,,,,,,,,5,1.542,1,,,,,,-0.425331116,-0.421641371,1,0,0,1.5417,Obsidian_rect,0,0,0,0,1,
643480e93c33701dfe923abd,SCN,2024-06-25_13h22.22.016,LearnStrategy,2023.2.3,MacIntel,63.29113924,4,2,2,,,,,,,,3,11,,,,,,,,,,,3,4.21,1,,,,,,0.101965807,-0.243663194,1,0,0,4.2101,Diorite_rect,1,0,1,0,1,
643480e93c33701dfe923abd,SCN,2024-06-25_13h22.22.016,LearnStrategy,2023.2.3,MacIntel,63.29113924,4,2,3,,,,,,,,7,12,,,,,,,,,,,7,1.439,1,,,,,,0.112322116,-0.407635566,1,0,0,1.4395,Peridotite_rect,2,0,2,0,1,
643480e93c33701dfe923abd,SCN,2024-06-25_13h22.22.016,LearnStrategy,2023.2.3,MacIntel,63.29113924,4,2,4,,,,,,,,7,10,,,,,,,,,,,7,1.237,1,,,,,,0.112322116,-0.407635566,1,0,0,1.2369,Peridotite_rect,3,0,3,0,1,
643480e93c33701dfe923abd,SCN,2024-06-25_13h22.22.016,LearnStrategy,2023.2.3,MacIntel,63.29113924,4,2,5,,,,,,,,8,16,,,,,,,,,,,8,2.315,1,,,,,,0.443845486,-0.421015693,1,0,0,2.315,Pumice_rect,4,0,4,0,1,
643480e93c33701dfe923abd,SCN,2024-06-25_13h22.22.016,LearnStrategy,2023.2.3,MacIntel,63.29113924,4,2,6,,,,,,,,8,13,,,,,,,,,,,8,2.775,1,,,,,,0.443845486,-0.421015693,1,0,0,2.7752,Pumice_rect,5,0,5,0,1,
643480e93c33701dfe923abd,SCN,2024-06-25_13h22.22.016,LearnStrategy,2023.2.3,MacIntel,63.29113924,4,2,7,,,,,,,,3,06,,,,,,,,,,,3,4.52,1,,,,,,0.102340427,-0.256368883,1,0,0,4.5198,Diorite_rect,6,0,6,0,1,
643480e93c33701dfe923abd,SCN,2024-06-25_13h22.22.016,LearnStrategy,2023.2.3,MacIntel,63.29113924,4,2,8,,,,,,,,4,08,,,,,,,,,,,2,2.025,0,,,,,,-0.14637519,-0.253646918,1,0,0,2.0247,Basalt_rect,7,0,7,0,1,
643480e93c33701dfe923abd,SCN,2024-06-25_13h22.22.016,LearnStrategy,2023.2.3,MacIntel,63.29113924,4,2,9,,,,,,,,2,12,,,,,,,,,,,2,1.956,1,,,,,,-0.14637519,-0.253646918,1,0,0,1.9562,Basalt_rect,8,0,8,0,1,
643480e93c33701dfe923abd,SCN,2024-06-25_13h22.22.016,LearnStrategy,2023.2.3,MacIntel,63.29113924,4,2,10,,,,,,,,2,05,,,,,,,,,,,1,3.932,0,,,,,,-0.350977071,-0.244956462,1,0,0,3.9321,Andesite_rect,9,0,9,0,1,
643480e93c33701dfe923abd,SCN,2024-06-25_13h22.22.016,LearnStrategy,2023.2.3,MacIntel,63.29113924,4,2,11,,,,,,,,6,13,,,,,,,,,,,6,2.481,1,,,,,,-0.090101251,-0.398060303,1,0,0,2.4811,Pegmatite_rect,10,0,10,0,1,
643480e93c33701dfe923abd,SCN,2024-06-25_13h22.22.016,LearnStrategy,2023.2.3,MacIntel,63.29113924,4,2,12,,,,,,,,5,14,,,,,,,,,,,5,1.281,1,,,,,,-0.344997423,-0.378839179,1,0,0,1.2808,Obsidian_rect,11,0,11,0,1,
643480e93c33701dfe923abd,SCN,2024-06-25_13h22.22.016,LearnStrategy,2023.2.3,MacIntel,63.29113924,4,2,13,,,,,,,,1,09,,,,,,,,,,,3,1.861,0,,,,,,0.168612807,-0.237680732,1,0,0,1.861,Diorite_rect,12,0,12,0,1,
643480e93c33701dfe923abd,SCN,2024-06-25_13h22.22.016,LearnStrategy,2023.2.3,MacIntel,63.29113924,4,2,14,,,,,,,,4,05,,,,,,,,,,,7,1.322,0,,,,,,0.104141168,-0.397222426,1,0,0,1.3217,Peridotite_rect,13,0,13,0,1,
643480e93c33701dfe923abd,SCN,2024-06-25_13h22.22.016,LearnStrategy,2023.2.3,MacIntel,63.29113924,4,2,15,,,,,,,,6,09,,,,,,,,,,,6,1.213,1,,,,,,-0.081636013,-0.389263102,1,0,0,1.2133,Pegmatite_rect,14,0,14,0,1,
643480e93c33701dfe923abd,SCN,2024-06-25_13h22.22.016,LearnStrategy,2023.2.3,MacIntel,63.29113924,4,2,16,,,,,,,,1,03,,,,,,,,,,,1,4.782,1,,,,,,-0.365007494,-0.239712592,1,0,0,4.7822,Andesite_rect,15,0,15,0,1,
643480e93c33701dfe923abd,SCN,2024-06-25_13h22.22.016,LearnStrategy,2023.2.3,MacIntel,63.29113924,5,1,1,0.552194824,0.261841685,1,0,0,1.6978,Andesite_11,1,11,5,8,1.698,-0.430927158,-0.259582723,1,0,0,2.223,Andesite_rect,1,2.223,1,0,0,0,0,1,,,,,,,,,,,,,
643480e93c33701dfe923abd,SCN,2024-06-25_13h22.22.016,LearnStrategy,2023.2.3,MacIntel,63.29113924,5,1,2,0.401668972,-0.107963257,1,0,0,2.0456,Andesite_05,1,05,3,7,2.046,-0.408221436,-0.242018433,1,0,0,1.28,Andesite_rect,1,1.28,1,1,0,1,0,1,,,,,,,,,,,,,
643480e93c33701dfe923abd,SCN,2024-06-25_13h22.22.016,LearnStrategy,2023.2.3,MacIntel,63.29113924,5,1,3,-0.584646216,0.08973331,1,0,0,1.4007,Basalt_11,2,11,4,1,1.401,-0.17451945,-0.257638957,1,0,0,3.8271,Basalt_rect,2,3.827,1,2,0,2,0,1,,,,,,,,,,,,,
643480e93c33701dfe923abd,SCN,2024-06-25_13h22.22.016,LearnStrategy,2023.2.3,MacIntel,63.29113924,5,1,4,-0.563217756,-0.403528171,1,0,0,3.5442,Gabbro_03,4,03,1,1,3.544,0.179711575,-0.259119059,1,0,0,1.7691,Diorite_rect,3,1.769,0,3,0,3,0,1,,,,,,,,,,,,,
643480e93c33701dfe923abd,SCN,2024-06-25_13h22.22.016,LearnStrategy,2023.2.3,MacIntel,63.29113924,5,1,5,0.281027222,-0.42871955,1,0,0,2.216,Diorite_16,3,16,1,6,2.216,0.327491252,-0.245334812,1,0,0,0.8811,Gabbro_rect,4,0.881,0,4,0,4,0,1,,,,,,,,,,,,,
643480e93c33701dfe923abd,SCN,2024-06-25_13h22.22.016,LearnStrategy,2023.2.3,MacIntel,63.29113924,5,1,6,0.401368408,-0.07196384,1,0,0,1.4493,Andesite_05,1,05,3,7,1.449,0.400458713,-0.2596462,1,0,0,1.3976,Gabbro_rect,4,1.398,0,5,0,5,0,1,,,,,,,,,,,,,
643480e93c33701dfe923abd,SCN,2024-06-25_13h22.22.016,LearnStrategy,2023.2.3,MacIntel,63.29113924,5,1,7,-0.567862125,0.10490804,1,0,0,1.1955,Basalt_11,2,11,4,1,1.196,-0.115169746,-0.252775404,1,0,0,2.0817,Basalt_rect,2,2.082,1,6,0,6,0,1,,,,,,,,,,,,,
643480e93c33701dfe923abd,SCN,2024-06-25_13h22.22.016,LearnStrategy,2023.2.3,MacIntel,63.29113924,5,1,8,-0.056562364,-0.266662394,1,0,0,5.9173,Andesite_04,1,04,2,4,5.917,-0.40125434,-0.246407674,1,0,0,2.7603,Andesite_rect,1,2.76,1,7,0,7,0,1,,,,,,,,,,,,,
643480e93c33701dfe923abd,SCN,2024-06-25_13h22.22.016,LearnStrategy,2023.2.3,MacIntel,63.29113924,5,1,9,0.550938992,-0.095697225,1,0,0,1.281,Andesite_01,1,01,3,8,1.281,0.383975966,-0.25830702,1,0,0,1.1964,Gabbro_rect,4,1.196,0,8,0,8,0,1,,,,,,,,,,,,,
643480e93c33701dfe923abd,SCN,2024-06-25_13h22.22.016,LearnStrategy,2023.2.3,MacIntel,63.29113924,5,1,10,0.546390788,0.243645325,1,0,0,1.5857,Andesite_11,1,11,5,8,1.586,-0.36753696,-0.259208645,1,0,0,1.2449,Andesite_rect,1,1.245,1,9,0,9,0,1,,,,,,,,,,,,,
643480e93c33701dfe923abd,SCN,2024-06-25_13h22.22.016,LearnStrategy,2023.2.3,MacIntel,63.29113924,5,1,11,0.564360758,0.412959883,1,0,0,1.5538,Obsidian_08,5,08,6,8,1.554,-0.337202047,-0.380426568,1,0,0,1.4322,Obsidian_rect,5,1.432,1,10,0,10,0,1,,,,,,,,,,,,,
643480e93c33701dfe923abd,SCN,2024-06-25_13h22.22.016,LearnStrategy,2023.2.3,MacIntel,63.29113924,5,1,12,0.422559408,0.417396122,1,0,0,1.5269,Gabbro_01,4,01,6,7,1.527,0.418321126,-0.261159329,1,0,0,1.3349,Gabbro_rect,4,1.335,1,11,0,11,0,1,,,,,,,,,,,,,
643480e93c33701dfe923abd,SCN,2024-06-25_13h22.22.016,LearnStrategy,2023.2.3,MacIntel,63.29113924,5,1,13,0.030884806,0.405374146,1,0,0,1.8642,Diorite_14,3,14,6,5,1.864,0.111232096,-0.253473985,1,0,0,1.7674,Diorite_rect,3,1.767,1,12,0,12,0,1,,,,,,,,,,,,,
643480e93c33701dfe923abd,SCN,2024-06-25_13h22.22.016,LearnStrategy,2023.2.3,MacIntel,63.29113924,5,1,14,-0.573079478,0.262054969,1,0,0,1.6585,Gabbro_13,4,13,5,1,1.659,0.392152913,-0.266679145,1,0,0,2.7901,Gabbro_rect,4,2.79,1,13,0,13,0,1,,,,,,,,,,,,,
643480e93c33701dfe923abd,SCN,2024-06-25_13h22.22.016,LearnStrategy,2023.2.3,MacIntel,63.29113924,5,1,15,-0.582106374,0.10118181,1,0,0,1.6903,Basalt_11,2,11,4,1,1.69,-0.108748983,-0.255829129,1,0,0,1.3116,Basalt_rect,2,1.312,1,14,0,14,0,1,,,,,,,,,,,,,
643480e93c33701dfe923abd,SCN,2024-06-25_13h22.22.016,LearnStrategy,2023.2.3,MacIntel,63.29113924,5,1,16,0.229958021,-0.109774645,1,0,0,1.0639,Peridotite_16,7,16,3,6,1.064,0.147339545,-0.399827677,1,0,0,1.851,Peridotite_rect,7,1.851,1,15,0,15,0,1,,,,,,,,,,,,,
643480e93c33701dfe923abd,SCN,2024-06-25_13h22.22.016,LearnStrategy,2023.2.3,MacIntel,63.29113924,5,2,1,,,,,,,,4,16,,,,,,,,,,,4,7.049,1,,,,,,0.308171997,-0.263888889,1,0,0,7.0487,Gabbro_rect,0,0,0,0,1,
643480e93c33701dfe923abd,SCN,2024-06-25_13h22.22.016,LearnStrategy,2023.2.3,MacIntel,63.29113924,5,2,2,,,,,,,,2,10,,,,,,,,,,,4,9.811,0,,,,,,0.306860284,-0.254251506,1,0,0,9.8105,Gabbro_rect,1,0,1,0,1,
643480e93c33701dfe923abd,SCN,2024-06-25_13h22.22.016,LearnStrategy,2023.2.3,MacIntel,63.29113924,5,2,3,,,,,,,,5,02,,,,,,,,,,,5,2.885,1,,,,,,-0.415589464,-0.400673082,1,0,0,2.8848,Obsidian_rect,2,0,2,0,1,
643480e93c33701dfe923abd,SCN,2024-06-25_13h22.22.016,LearnStrategy,2023.2.3,MacIntel,63.29113924,5,2,4,,,,,,,,1,10,,,,,,,,,,,1,2.986,1,,,,,,-0.368568522,-0.256598172,1,0,0,2.9858,Andesite_rect,3,0,3,0,1,
643480e93c33701dfe923abd,SCN,2024-06-25_13h22.22.016,LearnStrategy,2023.2.3,MacIntel,63.29113924,5,2,5,,,,,,,,6,11,,,,,,,,,,,6,1.782,1,,,,,,-0.073352254,-0.396638862,1,0,0,1.7823,Pegmatite_rect,4,0,4,0,1,
643480e93c33701dfe923abd,SCN,2024-06-25_13h22.22.016,LearnStrategy,2023.2.3,MacIntel,63.29113924,5,2,6,,,,,,,,2,06,,,,,,,,,,,2,2.893,1,,,,,,-0.122958035,-0.249965074,1,0,0,2.8929,Basalt_rect,5,0,5,0,1,
643480e93c33701dfe923abd,SCN,2024-06-25_13h22.22.016,LearnStrategy,2023.2.3,MacIntel,63.29113924,5,2,7,,,,,,,,7,05,,,,,,,,,,,7,1.378,1,,,,,,0.115609741,-0.388546143,1,0,0,1.3782,Peridotite_rect,6,0,6,0,1,
643480e93c33701dfe923abd,SCN,2024-06-25_13h22.22.016,LearnStrategy,2023.2.3,MacIntel,63.29113924,5,2,8,,,,,,,,8,02,,,,,,,,,,,8,1.211,1,,,,,,0.365905897,-0.390797255,1,0,0,1.2111,Pumice_rect,7,0,7,0,1,
643480e93c33701dfe923abd,SCN,2024-06-25_13h22.22.016,LearnStrategy,2023.2.3,MacIntel,63.29113924,5,2,9,,,,,,,,3,02,,,,,,,,,,,3,1.461,1,,,,,,0.161513672,-0.255417209,1,0,0,1.461,Diorite_rect,8,0,8,0,1,
643480e93c33701dfe923abd,SCN,2024-06-25_13h22.22.016,LearnStrategy,2023.2.3,MacIntel,63.29113924,5,2,10,,,,,,,,7,06,,,,,,,,,,,7,1.377,1,,,,,,0.151814372,-0.393662381,1,0,0,1.3768,Peridotite_rect,9,0,9,0,1,
643480e93c33701dfe923abd,SCN,2024-06-25_13h22.22.016,LearnStrategy,2023.2.3,MacIntel,63.29113924,5,2,11,,,,,,,,4,09,,,,,,,,,,,5,3.709,0,,,,,,-0.370476583,-0.401619059,1,0,0,3.7094,Obsidian_rect,10,0,10,0,1,
643480e93c33701dfe923abd,SCN,2024-06-25_13h22.22.016,LearnStrategy,2023.2.3,MacIntel,63.29113924,5,2,12,,,,,,,,6,03,,,,,,,,,,,6,1.198,1,,,,,,-0.103547567,-0.40528361,1,0,0,1.1979,Pegmatite_rect,11,0,11,0,1,
643480e93c33701dfe923abd,SCN,2024-06-25_13h22.22.016,LearnStrategy,2023.2.3,MacIntel,63.29113924,5,2,13,,,,,,,,3,07,,,,,,,,,,,3,1.342,1,,,,,,0.120795085,-0.245710788,1,0,0,1.3421,Diorite_rect,12,0,12,0,1,
643480e93c33701dfe923abd,SCN,2024-06-25_13h22.22.016,LearnStrategy,2023.2.3,MacIntel,63.29113924,5,2,14,,,,,,,,8,06,,,,,,,,,,,8,1.693,1,,,,,,0.35412028,-0.395049303,1,0,0,1.693,Pumice_rect,13,0,13,0,1,
643480e93c33701dfe923abd,SCN,2024-06-25_13h22.22.016,LearnStrategy,2023.2.3,MacIntel,63.29113924,5,2,15,,,,,,,,1,16,,,,,,,,,,,3,1.693,0,,,,,,0.15993571,-0.244773899,1,0,0,1.6934,Diorite_rect,14,0,14,0,1,
643480e93c33701dfe923abd,SCN,2024-06-25_13h22.22.016,LearnStrategy,2023.2.3,MacIntel,63.29113924,5,2,16,,,,,,,,5,05,,,,,,,,,,,5,1.851,1,,,,,,-0.462434387,-0.408530138,1,0,0,1.8513,Obsidian_rect,15,0,15,0,1,
643480e93c33701dfe923abd,SCN,2024-06-25_13h22.22.016,LearnStrategy,2023.2.3,MacIntel,63.29113924,6,1,1,0.442797445,-0.0921462,1,0,0,2.2993,Andesite_05,1,05,3,7,2.299,-0.421331855,-0.232668254,1,0,0,1.0374,Andesite_rect,1,1.037,1,0,0,0,0,1,,,,,,,,,,,,,
643480e93c33701dfe923abd,SCN,2024-06-25_13h22.22.016,LearnStrategy,2023.2.3,MacIntel,63.29113924,6,1,2,0.09597385,-0.105012343,1,0,0,0.9846,Basalt_09,2,09,3,5,0.985,-0.171024577,-0.234328206,1,0,0,1.8984,Basalt_rect,2,1.898,1,1,0,1,0,1,,,,,,,,,,,,,
643480e93c33701dfe923abd,SCN,2024-06-25_13h22.22.016,LearnStrategy,2023.2.3,MacIntel,63.29113924,6,1,3,0.41868788,0.240246769,1,0,0,1.9442,Pegmatite_16,6,16,5,7,1.944,-0.111018473,-0.379996948,1,0,0,1.2339,Pegmatite_rect,6,1.234,1,2,0,2,0,1,,,,,,,,,,,,,
643480e93c33701dfe923abd,SCN,2024-06-25_13h22.22.016,LearnStrategy,2023.2.3,MacIntel,63.29113924,6,1,4,-0.232303535,0.254932183,1,0,0,1.2133,Pegmatite_05,6,05,5,3,1.213,-0.085714722,-0.399594727,1,0,0,1.3362,Pegmatite_rect,6,1.336,1,3,0,3,0,1,,,,,,,,,,,,,
643480e93c33701dfe923abd,SCN,2024-06-25_13h22.22.016,LearnStrategy,2023.2.3,MacIntel,63.29113924,6,1,5,-0.197730916,0.100704447,1,0,0,1.8023,Andesite_07,1,07,4,3,1.802,0.139966227,-0.243788452,1,0,0,1.5575,Diorite_rect,3,1.557,0,4,0,4,0,1,,,,,,,,,,,,,
643480e93c33701dfe923abd,SCN,2024-06-25_13h22.22.016,LearnStrategy,2023.2.3,MacIntel,63.29113924,6,1,6,-0.19379971,0.105230306,1,0,0,1.9027,Andesite_07,1,07,4,3,1.903,-0.371359253,-0.248217502,1,0,0,0.9996,Andesite_rect,1,1,1,5,0,5,0,1,,,,,,,,,,,,,
643480e93c33701dfe923abd,SCN,2024-06-25_13h22.22.016,LearnStrategy,2023.2.3,MacIntel,63.29113924,6,1,7,0.081119995,0.389806519,1,0,0,1.5577,Diorite_14,3,14,6,5,1.558,0.144373779,-0.257291734,1,0,0,1.0554,Diorite_rect,3,1.055,1,6,0,6,0,1,,,,,,,,,,,,,
643480e93c33701dfe923abd,SCN,2024-06-25_13h22.22.016,LearnStrategy,2023.2.3,MacIntel,63.29113924,6,1,8,-0.388428446,0.279259304,1,0,0,1.4599,Diorite_08,3,08,5,2,1.46,0.202402344,-0.253958062,1,0,0,1.2293,Diorite_rect,3,1.229,1,7,0,7,0,1,,,,,,,,,,,,,
643480e93c33701dfe923abd,SCN,2024-06-25_13h22.22.016,LearnStrategy,2023.2.3,MacIntel,63.29113924,6,1,9,0.376518012,0.092454563,1,0,0,1.7029,Obsidian_06,5,06,4,7,1.703,-0.372407159,-0.397721829,1,0,0,1.3271,Obsidian_rect,5,1.327,1,8,0,8,0,1,,,,,,,,,,,,,
643480e93c33701dfe923abd,SCN,2024-06-25_13h22.22.016,LearnStrategy,2023.2.3,MacIntel,63.29113924,6,1,10,0.400066189,-0.410743476,1,0,0,1.6561,Diorite_13,3,13,1,7,1.656,0.068654378,-0.23877672,1,0,0,1.5985,Diorite_rect,3,1.599,1,9,0,9,0,1,,,,,,,,,,,,,
643480e93c33701dfe923abd,SCN,2024-06-25_13h22.22.016,LearnStrategy,2023.2.3,MacIntel,63.29113924,6,1,11,-0.093211263,-0.421827257,1,0,0,2.0811,Peridotite_04,7,04,1,4,2.081,0.190468411,-0.39571072,1,0,0,1.806,Peridotite_rect,7,1.806,1,10,0,10,0,1,,,,,,,,,,,,,
643480e93c33701dfe923abd,SCN,2024-06-25_13h22.22.016,LearnStrategy,2023.2.3,MacIntel,63.29113924,6,1,12,-0.549602882,0.104683601,1,0,0,1.2309,Basalt_11,2,11,4,1,1.231,-0.153388401,-0.237816366,1,0,0,2.0692,Basalt_rect,2,2.069,1,11,0,11,0,1,,,,,,,,,,,,,
643480e93c33701dfe923abd,SCN,2024-06-25_13h22.22.016,LearnStrategy,2023.2.3,MacIntel,63.29113924,6,1,13,-0.206535916,-0.092205811,1,0,0,1.2498,Pumice_08,8,08,3,3,1.25,-0.100756429,-0.239108955,1,0,0,1.4083,Basalt_rect,2,1.408,0,12,0,12,0,1,,,,,,,,,,,,,
643480e93c33701dfe923abd,SCN,2024-06-25_13h22.22.016,LearnStrategy,2023.2.3,MacIntel,63.29113924,6,1,14,-0.081164754,-0.106281942,1,0,0,1.1264,Basalt_01,2,01,3,4,1.126,-0.110053507,-0.235503879,1,0,0,1.2543,Basalt_rect,2,1.254,1,13,0,13,0,1,,,,,,,,,,,,,
643480e93c33701dfe923abd,SCN,2024-06-25_13h22.22.016,LearnStrategy,2023.2.3,MacIntel,63.29113924,6,1,15,0.206615533,0.236235725,1,0,0,1.7068,Gabbro_10,4,10,5,6,1.707,-0.361213074,-0.386002536,1,0,0,2.253,Obsidian_rect,5,2.253,0,14,0,14,0,1,,,,,,,,,,,,,
643480e93c33701dfe923abd,SCN,2024-06-25_13h22.22.016,LearnStrategy,2023.2.3,MacIntel,63.29113924,6,1,16,0.546732585,-0.107749159,1,0,0,1.9825,Andesite_01,1,01,3,8,1.983,0.429134386,-0.245726318,1,0,0,1.5309,Gabbro_rect,4,1.531,0,15,0,15,0,1,,,,,,,,,,,,,
643480e93c33701dfe923abd,SCN,2024-06-25_13h22.22.016,LearnStrategy,2023.2.3,MacIntel,63.29113924,6,2,1,,,,,,,,6,06,,,,,,,,,,,6,2.294,1,,,,,,-0.143798625,-0.411221788,1,0,0,2.2941,Pegmatite_rect,0,0,0,0,1,
643480e93c33701dfe923abd,SCN,2024-06-25_13h22.22.016,LearnStrategy,2023.2.3,MacIntel,63.29113924,6,2,2,,,,,,,,7,07,,,,,,,,,,,7,2.275,1,,,,,,0.132056546,-0.396690674,1,0,0,2.2748,Peridotite_rect,1,0,1,0,1,
643480e93c33701dfe923abd,SCN,2024-06-25_13h22.22.016,LearnStrategy,2023.2.3,MacIntel,63.29113924,6,2,3,,,,,,,,1,14,,,,,,,,,,,6,2.081,0,,,,,,-0.131273532,-0.399260254,1,0,0,2.0806,Pegmatite_rect,2,0,2,0,1,
643480e93c33701dfe923abd,SCN,2024-06-25_13h22.22.016,LearnStrategy,2023.2.3,MacIntel,63.29113924,6,2,4,,,,,,,,8,09,,,,,,,,,,,8,1.111,1,,,,,,0.488081733,-0.410179511,1,0,0,1.1112,Pumice_rect,3,0,3,0,1,
643480e93c33701dfe923abd,SCN,2024-06-25_13h22.22.016,LearnStrategy,2023.2.3,MacIntel,63.29113924,6,2,5,,,,,,,,7,14,,,,,,,,,,,7,1.159,1,,,,,,0.131131931,-0.40030348,1,0,0,1.1591,Peridotite_rect,4,0,4,0,1,
643480e93c33701dfe923abd,SCN,2024-06-25_13h22.22.016,LearnStrategy,2023.2.3,MacIntel,63.29113924,6,2,6,,,,,,,,3,10,,,,,,,,,,,3,1.794,1,,,,,,0.093824938,-0.245034926,1,0,0,1.794,Diorite_rect,5,0,5,0,1,
643480e93c33701dfe923abd,SCN,2024-06-25_13h22.22.016,LearnStrategy,2023.2.3,MacIntel,63.29113924,6,2,7,,,,,,,,4,15,,,,,,,,,,,1,4.413,0,,,,,,-0.402206319,-0.240469971,1,0,0,4.4132,Andesite_rect,6,0,6,0,1,
643480e93c33701dfe923abd,SCN,2024-06-25_13h22.22.016,LearnStrategy,2023.2.3,MacIntel,63.29113924,6,2,8,,,,,,,,2,16,,,,,,,,,,,2,1.995,1,,,,,,-0.07650784,-0.241847127,1,0,0,1.9948,Basalt_rect,7,0,7,0,1,
643480e93c33701dfe923abd,SCN,2024-06-25_13h22.22.016,LearnStrategy,2023.2.3,MacIntel,63.29113924,6,2,9,,,,,,,,8,15,,,,,,,,,,,8,1.412,1,,,,,,0.446474202,-0.392293023,1,0,0,1.4122,Pumice_rect,8,0,8,0,1,
643480e93c33701dfe923abd,SCN,2024-06-25_13h22.22.016,LearnStrategy,2023.2.3,MacIntel,63.29113924,6,2,10,,,,,,,,6,12,,,,,,,,,,,6,1.794,1,,,,,,-0.143973524,-0.401988593,1,0,0,1.7936,Pegmatite_rect,9,0,9,0,1,
643480e93c33701dfe923abd,SCN,2024-06-25_13h22.22.016,LearnStrategy,2023.2.3,MacIntel,63.29113924,6,2,11,,,,,,,,2,08,,,,,,,,,,,4,3.325,0,,,,,,0.410682916,-0.228567708,1,0,0,3.325,Gabbro_rect,10,0,10,0,1,
643480e93c33701dfe923abd,SCN,2024-06-25_13h22.22.016,LearnStrategy,2023.2.3,MacIntel,63.29113924,6,2,12,,,,,,,,4,12,,,,,,,,,,,2,3.22,0,,,,,,-0.127648315,-0.256990492,1,0,0,3.22,Basalt_rect,11,0,11,0,1,
643480e93c33701dfe923abd,SCN,2024-06-25_13h22.22.016,LearnStrategy,2023.2.3,MacIntel,63.29113924,6,2,13,,,,,,,,3,12,,,,,,,,,,,3,1.146,1,,,,,,0.179569024,-0.25564704,1,0,0,1.1457,Diorite_rect,12,0,12,0,1,
643480e93c33701dfe923abd,SCN,2024-06-25_13h22.22.016,LearnStrategy,2023.2.3,MacIntel,63.29113924,6,2,14,,,,,,,,5,10,,,,,,,,,,,5,1.446,1,,,,,,-0.37285909,-0.403652208,1,0,0,1.4456,Obsidian_rect,13,0,13,0,1,
643480e93c33701dfe923abd,SCN,2024-06-25_13h22.22.016,LearnStrategy,2023.2.3,MacIntel,63.29113924,6,2,15,,,,,,,,5,07,,,,,,,,,,,5,0.909,1,,,,,,-0.368173964,-0.401127862,1,0,0,0.9086,Obsidian_rect,14,0,14,0,1,
643480e93c33701dfe923abd,SCN,2024-06-25_13h22.22.016,LearnStrategy,2023.2.3,MacIntel,63.29113924,6,2,16,,,,,,,,1,02,,,,,,,,,,,2,4.36,0,,,,,,-0.050862562,-0.242571343,1,0,0,4.3602,Basalt_rect,15,0,15,0,1,
643480e93c33701dfe923abd,SCN,2024-06-25_13h22.22.016,LearnStrategy,2023.2.3,MacIntel,63.29113924,7,1,1,-0.410664876,0.226064114,1,0,0,1.0461,Diorite_08,3,08,5,2,1.046,-0.41055325,-0.242403293,1,0,0,1.1621,Andesite_rect,1,1.162,0,0,0,0,0,1,,,,,,,,,,,,,
643480e93c33701dfe923abd,SCN,2024-06-25_13h22.22.016,LearnStrategy,2023.2.3,MacIntel,63.29113924,7,1,2,-0.550748376,0.085142042,1,0,0,1.1171,Basalt_11,2,11,4,1,1.117,-0.446713833,-0.267216593,1,0,0,1.4763,Andesite_rect,1,1.476,0,1,0,1,0,1,,,,,,,,,,,,,
643480e93c33701dfe923abd,SCN,2024-06-25_13h22.22.016,LearnStrategy,2023.2.3,MacIntel,63.29113924,7,1,3,-0.276102837,0.132347819,1,0,0,0.9201,Andesite_07,1,07,4,3,0.92,-0.375521071,-0.241137967,1,0,0,2.1269,Andesite_rect,1,2.127,1,2,0,2,0,1,,,,,,,,,,,,,
643480e93c33701dfe923abd,SCN,2024-06-25_13h22.22.016,LearnStrategy,2023.2.3,MacIntel,63.29113924,7,1,4,0.545668945,0.260324215,1,0,0,1.662,Andesite_11,1,11,5,8,1.662,-0.413874037,-0.267496338,1,0,0,2.8145,Andesite_rect,1,2.814,1,3,0,3,0,1,,,,,,,,,,,,,
643480e93c33701dfe923abd,SCN,2024-06-25_13h22.22.016,LearnStrategy,2023.2.3,MacIntel,63.29113924,7,1,5,0.578891737,-0.070979207,1,0,0,2.5802,Andesite_01,1,01,3,8,2.58,0.38179579,-0.244087253,1,0,0,0.9327,Gabbro_rect,4,0.933,0,4,0,4,0,1,,,,,,,,,,,,,
643480e93c33701dfe923abd,SCN,2024-06-25_13h22.22.016,LearnStrategy,2023.2.3,MacIntel,63.29113924,7,1,6,0.2874941,-0.10512302,1,0,0,1.1326,Peridotite_16,7,16,3,6,1.133,0.170859307,-0.394188978,1,0,0,1.1483,Peridotite_rect,7,1.148,1,5,0,5,0,1,,,,,,,,,,,,,
643480e93c33701dfe923abd,SCN,2024-06-25_13h22.22.016,LearnStrategy,2023.2.3,MacIntel,63.29113924,7,1,7,0.058062337,0.270714908,1,0,0,2.4369,Basalt_04,2,04,5,5,2.437,-0.354115126,-0.39686476,1,0,0,3.1152,Obsidian_rect,5,3.115,0,6,0,6,0,1,,,,,,,,,,,,,
643480e93c33701dfe923abd,SCN,2024-06-25_13h22.22.016,LearnStrategy,2023.2.3,MacIntel,63.29113924,7,1,8,0.049681261,-0.118010525,1,0,0,1.5164,Basalt_09,2,09,3,5,1.516,-0.087390679,-0.248369208,1,0,0,1.7992,Basalt_rect,2,1.799,1,7,0,7,0,1,,,,,,,,,,,,,
643480e93c33701dfe923abd,SCN,2024-06-25_13h22.22.016,LearnStrategy,2023.2.3,MacIntel,63.29113924,7,1,9,-0.046560059,0.427620409,1,0,0,0.976,Pegmatite_07,6,07,6,4,0.976,0.105418294,-0.410805528,1,0,0,1.0022,Peridotite_rect,7,1.002,0,8,0,8,0,1,,,,,,,,,,,,,
643480e93c33701dfe923abd,SCN,2024-06-25_13h22.22.016,LearnStrategy,2023.2.3,MacIntel,63.29113924,7,1,10,-0.263999973,0.402373132,1,0,0,1.0886,Andesite_06,1,06,6,3,1.089,0.080680745,-0.254503988,1,0,0,1.46,Diorite_rect,3,1.46,0,9,0,9,0,1,,,,,,,,,,,,,
643480e93c33701dfe923abd,SCN,2024-06-25_13h22.22.016,LearnStrategy,2023.2.3,MacIntel,63.29113924,7,1,11,0.073544922,0.378859982,1,0,0,1.709,Diorite_14,3,14,6,5,1.709,0.075557048,-0.265838759,1,0,0,1.4023,Diorite_rect,3,1.402,1,10,0,10,0,1,,,,,,,,,,,,,
643480e93c33701dfe923abd,SCN,2024-06-25_13h22.22.016,LearnStrategy,2023.2.3,MacIntel,63.29113924,7,1,12,-0.185185683,0.40386478,1,0,0,1.581,Andesite_06,1,06,6,3,1.581,-0.35728953,-0.265601739,1,0,0,1.3184,Andesite_rect,1,1.318,1,11,0,11,0,1,,,,,,,,,,,,,
643480e93c33701dfe923abd,SCN,2024-06-25_13h22.22.016,LearnStrategy,2023.2.3,MacIntel,63.29113924,7,1,13,-0.514201084,0.245185089,1,0,0,2.6975,Gabbro_13,4,13,5,1,2.697,0.391746284,-0.250572917,1,0,0,2.7013,Gabbro_rect,4,2.701,1,12,0,12,0,1,,,,,,,,,,,,,
643480e93c33701dfe923abd,SCN,2024-06-25_13h22.22.016,LearnStrategy,2023.2.3,MacIntel,63.29113924,7,1,14,-0.51540724,-0.103066067,1,0,0,2.4315,Diorite_15,3,15,3,1,2.431,0.140815633,-0.250882365,1,0,0,2.918,Diorite_rect,3,2.918,1,13,0,13,0,1,,,,,,,,,,,,,
643480e93c33701dfe923abd,SCN,2024-06-25_13h22.22.016,LearnStrategy,2023.2.3,MacIntel,63.29113924,7,1,15,-0.567050137,-0.403644952,1,0,0,2.1459,Gabbro_03,4,03,1,1,2.146,0.179246012,-0.246729533,1,0,0,1.864,Diorite_rect,3,1.864,0,14,0,14,0,1,,,,,,,,,,,,,
643480e93c33701dfe923abd,SCN,2024-06-25_13h22.22.016,LearnStrategy,2023.2.3,MacIntel,63.29113924,7,1,16,0.249499105,-0.414766914,1,0,0,2.1685,Diorite_16,3,16,1,6,2.168,0.10003479,-0.255562812,1,0,0,1.0936,Diorite_rect,3,1.094,1,15,0,15,0,1,,,,,,,,,,,,,
643480e93c33701dfe923abd,SCN,2024-06-25_13h22.22.016,LearnStrategy,2023.2.3,MacIntel,63.29113924,7,2,1,,,,,,,,3,12,,,,,,,,,,,3,3.619,1,,,,,,0.139084201,-0.249759047,1,0,0,3.6194,Diorite_rect,0,0,0,0,1,
643480e93c33701dfe923abd,SCN,2024-06-25_13h22.22.016,LearnStrategy,2023.2.3,MacIntel,63.29113924,7,2,2,,,,,,,,5,12,,,,,,,,,,,5,1.198,1,,,,,,-0.36785536,-0.389315999,1,0,0,1.1984,Obsidian_rect,1,0,1,0,1,
643480e93c33701dfe923abd,SCN,2024-06-25_13h22.22.016,LearnStrategy,2023.2.3,MacIntel,63.29113924,7,2,3,,,,,,,,5,02,,,,,,,,,,,5,0.827,1,,,,,,-0.36785536,-0.389315999,1,0,0,0.8269,Obsidian_rect,2,0,2,0,1,
643480e93c33701dfe923abd,SCN,2024-06-25_13h22.22.016,LearnStrategy,2023.2.3,MacIntel,63.29113924,7,2,4,,,,,,,,7,05,,,,,,,,,,,7,1.839,1,,,,,,0.174919705,-0.398884345,1,0,0,1.8395,Peridotite_rect,3,0,3,0,1,
643480e93c33701dfe923abd,SCN,2024-06-25_13h22.22.016,LearnStrategy,2023.2.3,MacIntel,63.29113924,7,2,5,,,,,,,,7,14,,,,,,,,,,,7,0.959,1,,,,,,0.174919705,-0.398884345,1,0,0,0.9592,Peridotite_rect,4,0,4,0,1,
643480e93c33701dfe923abd,SCN,2024-06-25_13h22.22.016,LearnStrategy,2023.2.3,MacIntel,63.29113924,7,2,6,,,,,,,,4,16,,,,,,,,,,,4,1.623,1,,,,,,0.407833659,-0.23602573,1,0,0,1.6231,Gabbro_rect,5,0,5,0,1,
643480e93c33701dfe923abd,SCN,2024-06-25_13h22.22.016,LearnStrategy,2023.2.3,MacIntel,63.29113924,7,2,7,,,,,,,,1,03,,,,,,,,,,,1,1.799,1,,,,,,-0.412505764,-0.247383152,1,0,0,1.7991,Andesite_rect,6,0,6,0,1,
643480e93c33701dfe923abd,SCN,2024-06-25_13h22.22.016,LearnStrategy,2023.2.3,MacIntel,63.29113924,7,2,8,,,,,,,,2,05,,,,,,,,,,,2,1.906,1,,,,,,-0.148573744,-0.238713582,1,0,0,1.9061,Basalt_rect,7,0,7,0,1,
643480e93c33701dfe923abd,SCN,2024-06-25_13h22.22.016,LearnStrategy,2023.2.3,MacIntel,63.29113924,7,2,9,,,,,,,,6,09,,,,,,,,,,,6,1.282,1,,,,,,-0.126825562,-0.40443651,1,0,0,1.2817,Pegmatite_rect,8,0,8,0,1,
643480e93c33701dfe923abd,SCN,2024-06-25_13h22.22.016,LearnStrategy,2023.2.3,MacIntel,63.29113924,7,2,10,,,,,,,,4,15,,,,,,,,,,,4,2.399,1,,,,,,0.383286811,-0.238652276,1,0,0,2.3986,Gabbro_rect,9,0,9,0,1,
643480e93c33701dfe923abd,SCN,2024-06-25_13h22.22.016,LearnStrategy,2023.2.3,MacIntel,63.29113924,7,2,11,,,,,,,,1,10,,,,,,,,,,,1,4.865,1,,,,,,-0.438578559,-0.249499647,1,0,0,4.8649,Andesite_rect,10,0,10,0,1,
643480e93c33701dfe923abd,SCN,2024-06-25_13h22.22.016,LearnStrategy,2023.2.3,MacIntel,63.29113924,7,2,12,,,,,,,,8,09,,,,,,,,,,,8,1.274,1,,,,,,0.356197238,-0.382518582,1,0,0,1.2743,Pumice_rect,11,0,11,0,1,
643480e93c33701dfe923abd,SCN,2024-06-25_13h22.22.016,LearnStrategy,2023.2.3,MacIntel,63.29113924,7,2,13,,,,,,,,2,16,,,,,,,,,,,2,2.042,1,,,,,,-0.131480713,-0.251208903,1,0,0,2.0419,Basalt_rect,12,0,12,0,1,
643480e93c33701dfe923abd,SCN,2024-06-25_13h22.22.016,LearnStrategy,2023.2.3,MacIntel,63.29113924,7,2,14,,,,,,,,6,11,,,,,,,,,,,6,1.156,1,,,,,,-0.173644952,-0.413168877,1,0,0,1.1559,Pegmatite_rect,13,0,13,0,1,
643480e93c33701dfe923abd,SCN,2024-06-25_13h22.22.016,LearnStrategy,2023.2.3,MacIntel,63.29113924,7,2,15,,,,,,,,8,06,,,,,,,,,,,8,1.06,1,,,,,,0.315736355,-0.406928372,1,0,0,1.06,Pumice_rect,14,0,14,0,1,
643480e93c33701dfe923abd,SCN,2024-06-25_13h22.22.016,LearnStrategy,2023.2.3,MacIntel,63.29113924,7,2,16,,,,,,,,3,10,,,,,,,,,,,3,1.175,1,,,,,,0.1013109,-0.261589695,1,0,0,1.1746,Diorite_rect,15,0,15,0,1,
643480e93c33701dfe923abd,SCN,2024-06-25_13h22.22.016,LearnStrategy,2023.2.3,MacIntel,63.29113924,8,1,1,-0.415986532,-0.245874295,1,0,0,1.2275,Obsidian_16,5,16,2,2,1.227,-0.420600247,-0.39665507,1,0,0,1.2955,Obsidian_rect,5,1.295,1,0,0,0,0,1,,,,,,,,,,,,,
643480e93c33701dfe923abd,SCN,2024-06-25_13h22.22.016,LearnStrategy,2023.2.3,MacIntel,63.29113924,8,1,2,0.098354221,-0.124950019,1,0,0,0.9157,Basalt_09,2,09,3,5,0.916,-0.147945218,-0.229670817,1,0,0,2.4148,Basalt_rect,2,2.415,1,1,0,1,0,1,,,,,,,,,,,,,
643480e93c33701dfe923abd,SCN,2024-06-25_13h22.22.016,LearnStrategy,2023.2.3,MacIntel,63.29113924,8,1,3,0.550214708,0.076083984,1,0,0,5.5926,Pegmatite_15,6,15,4,8,5.593,-0.122031386,-0.383053521,1,0,0,1.2369,Pegmatite_rect,6,1.237,1,2,0,2,0,1,,,,,,,,,,,,,
643480e93c33701dfe923abd,SCN,2024-06-25_13h22.22.016,LearnStrategy,2023.2.3,MacIntel,63.29113924,8,1,4,-0.392954034,0.269684431,1,0,0,1.9958,Diorite_08,3,08,5,2,1.996,0.151863403,-0.243466797,1,0,0,1.1166,Diorite_rect,3,1.117,1,3,0,3,0,1,,,,,,,,,,,,,
643480e93c33701dfe923abd,SCN,2024-06-25_13h22.22.016,LearnStrategy,2023.2.3,MacIntel,63.29113924,8,1,5,0.521561415,0.391175503,1,0,0,1.7018,Obsidian_08,5,08,6,8,1.702,-0.435364041,-0.405694377,1,0,0,1.6283,Obsidian_rect,5,1.628,1,4,0,4,0,1,,,,,,,,,,,,,
643480e93c33701dfe923abd,SCN,2024-06-25_13h22.22.016,LearnStrategy,2023.2.3,MacIntel,63.29113924,8,1,6,-0.56017039,0.263654141,1,0,0,1.5689,Gabbro_13,4,13,5,1,1.569,0.430093316,-0.252010566,1,0,0,1.1801,Gabbro_rect,4,1.18,1,5,0,5,0,1,,,,,,,,,,,,,
643480e93c33701dfe923abd,SCN,2024-06-25_13h22.22.016,LearnStrategy,2023.2.3,MacIntel,63.29113924,8,1,7,-0.551696133,-0.094757894,1,0,0,1.5101,Diorite_15,3,15,3,1,1.51,0.084730767,-0.251891208,1,0,0,1.7622,Diorite_rect,3,1.762,1,6,0,6,0,1,,,,,,,,,,,,,
643480e93c33701dfe923abd,SCN,2024-06-25_13h22.22.016,LearnStrategy,2023.2.3,MacIntel,63.29113924,8,1,8,-0.516946038,0.075261332,1,0,0,1.847,Basalt_11,2,11,4,1,1.847,-0.086438395,-0.262361721,1,0,0,2.9312,Basalt_rect,2,2.931,1,7,0,7,0,1,,,,,,,,,,,,,
643480e93c33701dfe923abd,SCN,2024-06-25_13h22.22.016,LearnStrategy,2023.2.3,MacIntel,63.29113924,8,1,9,0.071777208,-0.117050781,1,0,0,0.9833,Basalt_09,2,09,3,5,0.983,-0.096895955,-0.241676704,1,0,0,1.0286,Basalt_rect,2,1.029,1,8,0,8,0,1,,,,,,,,,,,,,
643480e93c33701dfe923abd,SCN,2024-06-25_13h22.22.016,LearnStrategy,2023.2.3,MacIntel,63.29113924,8,1,10,-0.045919664,-0.446262614,1,0,0,2.9319,Peridotite_04,7,04,1,4,2.932,0.088481174,-0.389671224,1,0,0,1.0425,Peridotite_rect,7,1.043,1,9,0,9,0,1,,,,,,,,,,,,,
643480e93c33701dfe923abd,SCN,2024-06-25_13h22.22.016,LearnStrategy,2023.2.3,MacIntel,63.29113924,8,1,11,-0.38476888,0.243514625,1,0,0,2.7813,Diorite_08,3,08,5,2,2.781,0.222393121,-0.255169949,1,0,0,0.9966,Diorite_rect,3,0.997,1,10,0,10,0,1,,,,,,,,,,,,,
643480e93c33701dfe923abd,SCN,2024-06-25_13h22.22.016,LearnStrategy,2023.2.3,MacIntel,63.29113924,8,1,12,0.569358317,0.244197252,1,0,0,1.4469,Andesite_11,1,11,5,8,1.447,-0.388965997,-0.260646498,1,0,0,1.394,Andesite_rect,1,1.394,1,11,0,11,0,1,,,,,,,,,,,,,
643480e93c33701dfe923abd,SCN,2024-06-25_13h22.22.016,LearnStrategy,2023.2.3,MacIntel,63.29113924,8,1,13,0.574814182,-0.112386678,1,0,0,1.6474,Andesite_01,1,01,3,8,1.647,-0.40001414,-0.250593533,1,0,0,2.9648,Andesite_rect,1,2.965,1,12,0,12,0,1,,,,,,,,,,,,,
643480e93c33701dfe923abd,SCN,2024-06-25_13h22.22.016,LearnStrategy,2023.2.3,MacIntel,63.29113924,8,1,14,0.430428602,-0.129683567,1,0,0,1.3788,Andesite_05,1,05,3,7,1.379,-0.425791694,-0.253777669,1,0,0,1.348,Andesite_rect,1,1.348,1,13,0,13,0,1,,,,,,,,,,,,,
643480e93c33701dfe923abd,SCN,2024-06-25_13h22.22.016,LearnStrategy,2023.2.3,MacIntel,63.29113924,8,1,15,0.593068034,-0.278303155,1,0,0,1.1772,Peridotite_08,7,08,2,8,1.177,0.208938531,-0.409261949,1,0,0,1.6962,Peridotite_rect,7,1.696,1,14,0,14,0,1,,,,,,,,,,,,,
643480e93c33701dfe923abd,SCN,2024-06-25_13h22.22.016,LearnStrategy,2023.2.3,MacIntel,63.29113924,8,1,16,-0.095726657,-0.108228828,1,0,0,2.016,Basalt_01,2,01,3,4,2.016,-0.094496257,-0.264010213,1,0,0,1.7435,Basalt_rect,2,1.743,1,15,0,15,0,1,,,,,,,,,,,,,
643480e93c33701dfe923abd,SCN,2024-06-25_13h22.22.016,LearnStrategy,2023.2.3,MacIntel,63.29113924,8,2,1,,,,,,,,7,12,,,,,,,,,,,7,1.742,1,,,,,,0.1780837,-0.393980035,1,0,0,1.742,Peridotite_rect,0,0,0,0,1,
643480e93c33701dfe923abd,SCN,2024-06-25_13h22.22.016,LearnStrategy,2023.2.3,MacIntel,63.29113924,8,2,2,,,,,,,,2,08,,,,,,,,,,,2,3.109,1,,,,,,-0.082147692,-0.240573324,1,0,0,3.1091,Basalt_rect,1,0,1,0,1,
643480e93c33701dfe923abd,SCN,2024-06-25_13h22.22.016,LearnStrategy,2023.2.3,MacIntel,63.29113924,8,2,3,,,,,,,,4,05,,,,,,,,,,,7,2.913,0,,,,,,0.236720242,-0.403647597,1,0,0,2.9131,Peridotite_rect,2,0,2,0,1,
643480e93c33701dfe923abd,SCN,2024-06-25_13h22.22.016,LearnStrategy,2023.2.3,MacIntel,63.29113924,8,2,4,,,,,,,,3,11,,,,,,,,,,,3,1.262,1,,,,,,0.172149048,-0.254173991,1,0,0,1.2618,Diorite_rect,3,0,3,0,1,
643480e93c33701dfe923abd,SCN,2024-06-25_13h22.22.016,LearnStrategy,2023.2.3,MacIntel,63.29113924,8,2,5,,,,,,,,3,07,,,,,,,,,,,1,1.809,0,,,,,,-0.384629144,-0.253017307,1,0,0,1.8086,Andesite_rect,4,0,4,0,1,
643480e93c33701dfe923abd,SCN,2024-06-25_13h22.22.016,LearnStrategy,2023.2.3,MacIntel,63.29113924,8,2,6,,,,,,,,1,16,,,,,,,,,,,1,1.034,1,,,,,,-0.384629144,-0.253017307,1,0,0,1.0336,Andesite_rect,5,0,5,0,1,
643480e93c33701dfe923abd,SCN,2024-06-25_13h22.22.016,LearnStrategy,2023.2.3,MacIntel,63.29113924,8,2,7,,,,,,,,5,10,,,,,,,,,,,5,1.114,1,,,,,,-0.386630113,-0.37915568,1,0,0,1.1137,Obsidian_rect,6,0,6,0,1,
643480e93c33701dfe923abd,SCN,2024-06-25_13h22.22.016,LearnStrategy,2023.2.3,MacIntel,63.29113924,8,2,8,,,,,,,,8,13,,,,,,,,,,,8,1.55,1,,,,,,0.498659939,-0.41611674,1,0,0,1.5505,Pumice_rect,7,0,7,0,1,
643480e93c33701dfe923abd,SCN,2024-06-25_13h22.22.016,LearnStrategy,2023.2.3,MacIntel,63.29113924,8,2,9,,,,,,,,6,12,,,,,,,,,,,6,1.777,1,,,,,,-0.067399428,-0.408431871,1,0,0,1.7774,Pegmatite_rect,8,0,8,0,1,
643480e93c33701dfe923abd,SCN,2024-06-25_13h22.22.016,LearnStrategy,2023.2.3,MacIntel,63.29113924,8,2,10,,,,,,,,5,14,,,,,,,,,,,5,1.13,1,,,,,,-0.354026964,-0.405268283,1,0,0,1.1298,Obsidian_rect,9,0,9,0,1,
643480e93c33701dfe923abd,SCN,2024-06-25_13h22.22.016,LearnStrategy,2023.2.3,MacIntel,63.29113924,8,2,11,,,,,,,,7,07,,,,,,,,,,,7,1.479,1,,,,,,0.169433865,-0.401418796,1,0,0,1.4794,Peridotite_rect,10,0,10,0,1,
643480e93c33701dfe923abd,SCN,2024-06-25_13h22.22.016,LearnStrategy,2023.2.3,MacIntel,63.29113924,8,2,12,,,,,,,,2,10,,,,,,,,,,,2,2.931,1,,,,,,-0.186964247,-0.258789876,1,0,0,2.9306,Basalt_rect,11,0,11,0,1,
643480e93c33701dfe923abd,SCN,2024-06-25_13h22.22.016,LearnStrategy,2023.2.3,MacIntel,63.29113924,8,2,13,,,,,,,,8,15,,,,,,,,,,,8,2.595,1,,,,,,0.409186605,-0.394405653,1,0,0,2.5946,Pumice_rect,12,0,12,0,1,
643480e93c33701dfe923abd,SCN,2024-06-25_13h22.22.016,LearnStrategy,2023.2.3,MacIntel,63.29113924,8,2,14,,,,,,,,1,09,,,,,,,,,,,1,1.507,1,,,,,,-0.403255344,-0.2458117,1,0,0,1.5074,Andesite_rect,13,0,13,0,1,
643480e93c33701dfe923abd,SCN,2024-06-25_13h22.22.016,LearnStrategy,2023.2.3,MacIntel,63.29113924,8,2,15,,,,,,,,6,13,,,,,,,,,,,6,2.483,1,,,,,,-0.143288303,-0.416338162,1,0,0,2.483,Pegmatite_rect,14,0,14,0,1,
643480e93c33701dfe923abd,SCN,2024-06-25_13h22.22.016,LearnStrategy,2023.2.3,MacIntel,63.29113924,8,2,16,,,,,,,,4,09,,,,,,,,,,,4,2.672,1,,,,,,0.434061008,-0.240982056,1,0,0,2.672,Gabbro_rect,15,0,15,0,1,
643480e93c33701dfe923abd,SCN,2024-06-25_13h22.22.016,LearnStrategy,2023.2.3,MacIntel,63.29113924,9,1,1,-0.549649404,0.07038208,1,0,0,1.379,Basalt_11,2,11,4,1,1.379,0.436103109,-0.24711263,1,0,0,2.379,Gabbro_rect,4,2.379,0,0,0,0,0,1,,,,,,,,,,,,,
643480e93c33701dfe923abd,SCN,2024-06-25_13h22.22.016,LearnStrategy,2023.2.3,MacIntel,63.29113924,9,1,2,-0.530302395,-0.103529663,1,0,0,1.3995,Diorite_15,3,15,3,1,1.4,0.144295519,-0.263506944,1,0,0,2.5621,Diorite_rect,3,2.562,1,1,0,1,0,1,,,,,,,,,,,,,
643480e93c33701dfe923abd,SCN,2024-06-25_13h22.22.016,LearnStrategy,2023.2.3,MacIntel,63.29113924,9,1,3,0.541927897,0.263106147,1,0,0,1.3267,Andesite_11,1,11,5,8,1.327,-0.347401293,-0.247330661,1,0,0,1.0464,Andesite_rect,1,1.046,1,2,0,2,0,1,,,,,,,,,,,,,
643480e93c33701dfe923abd,SCN,2024-06-25_13h22.22.016,LearnStrategy,2023.2.3,MacIntel,63.29113924,9,1,4,0.362881402,0.393333622,1,0,0,1.2215,Gabbro_01,4,01,6,7,1.221,0.478896484,-0.258457574,1,0,0,2.8022,Gabbro_rect,4,2.802,1,3,0,3,0,1,,,,,,,,,,,,,
643480e93c33701dfe923abd,SCN,2024-06-25_13h22.22.016,LearnStrategy,2023.2.3,MacIntel,63.29113924,9,1,5,-0.211276177,0.399176619,1,0,0,1.7463,Andesite_06,1,06,6,3,1.746,-0.407505832,-0.246758762,1,0,0,2.016,Andesite_rect,1,2.016,1,4,0,4,0,1,,,,,,,,,,,,,
643480e93c33701dfe923abd,SCN,2024-06-25_13h22.22.016,LearnStrategy,2023.2.3,MacIntel,63.29113924,9,1,6,-0.386613634,0.399858704,1,0,0,2.1644,Pumice_10,8,10,6,2,2.164,0.417600911,-0.399163886,1,0,0,1.2642,Pumice_rect,8,1.264,1,5,0,5,0,1,,,,,,,,,,,,,
643480e93c33701dfe923abd,SCN,2024-06-25_13h22.22.016,LearnStrategy,2023.2.3,MacIntel,63.29113924,9,1,7,-0.366115587,0.093981255,1,0,0,1.3695,Pegmatite_08,6,08,4,2,1.37,-0.136086629,-0.410706719,1,0,0,2.3466,Pegmatite_rect,6,2.347,1,6,0,6,0,1,,,,,,,,,,,,,
643480e93c33701dfe923abd,SCN,2024-06-25_13h22.22.016,LearnStrategy,2023.2.3,MacIntel,63.29113924,9,1,8,0.405964762,-0.115752699,1,0,0,2.4486,Andesite_05,1,05,3,7,2.449,-0.359621785,-0.233909844,1,0,0,1.4309,Andesite_rect,1,1.431,1,7,0,7,0,1,,,,,,,,,,,,,
643480e93c33701dfe923abd,SCN,2024-06-25_13h22.22.016,LearnStrategy,2023.2.3,MacIntel,63.29113924,9,1,9,0.415866157,-0.245477702,1,0,0,1.2319,Pumice_14,8,14,2,7,1.232,0.371632351,-0.415909695,1,0,0,1.2727,Pumice_rect,8,1.273,1,8,0,8,0,1,,,,,,,,,,,,,
643480e93c33701dfe923abd,SCN,2024-06-25_13h22.22.016,LearnStrategy,2023.2.3,MacIntel,63.29113924,9,1,10,-0.225366211,-0.265174696,1,0,0,2.7706,Diorite_09,3,09,2,3,2.771,0.114516737,-0.239767049,1,0,0,1.4818,Diorite_rect,3,1.482,1,9,0,9,0,1,,,,,,,,,,,,,
643480e93c33701dfe923abd,SCN,2024-06-25_13h22.22.016,LearnStrategy,2023.2.3,MacIntel,63.29113924,9,1,11,-0.389098307,-0.258145752,1,0,0,1.5841,Obsidian_16,5,16,2,2,1.584,-0.409708455,-0.390947198,1,0,0,1.1862,Obsidian_rect,5,1.186,1,10,0,10,0,1,,,,,,,,,,,,,
643480e93c33701dfe923abd,SCN,2024-06-25_13h22.22.016,LearnStrategy,2023.2.3,MacIntel,63.29113924,9,1,12,0.077927924,0.270444319,1,0,0,1.2924,Basalt_04,2,04,5,5,1.292,-0.102659166,-0.246762153,1,0,0,0.9759,Basalt_rect,2,0.976,1,11,0,11,0,1,,,,,,,,,,,,,
643480e93c33701dfe923abd,SCN,2024-06-25_13h22.22.016,LearnStrategy,2023.2.3,MacIntel,63.29113924,9,1,13,0.081024238,0.078491584,1,0,0,1.7971,Obsidian_04,5,04,4,5,1.797,-0.434449022,-0.41797682,1,0,0,1.6144,Obsidian_rect,5,1.614,1,12,0,12,0,1,,,,,,,,,,,,,
643480e93c33701dfe923abd,SCN,2024-06-25_13h22.22.016,LearnStrategy,2023.2.3,MacIntel,63.29113924,9,1,14,-0.37792945,0.405230442,1,0,0,3.4426,Pumice_10,8,10,6,2,3.443,0.411918267,-0.397622002,1,0,0,1.38,Pumice_rect,8,1.38,1,13,0,13,0,1,,,,,,,,,,,,,
643480e93c33701dfe923abd,SCN,2024-06-25_13h22.22.016,LearnStrategy,2023.2.3,MacIntel,63.29113924,9,1,15,-0.54204912,0.267325185,1,0,0,1.5974,Gabbro_13,4,13,5,1,1.597,0.449215902,-0.242895237,1,0,0,1.6283,Gabbro_rect,4,1.628,1,14,0,14,0,1,,,,,,,,,,,,,
643480e93c33701dfe923abd,SCN,2024-06-25_13h22.22.016,LearnStrategy,2023.2.3,MacIntel,63.29113924,9,1,16,-0.571451874,0.400105099,1,0,0,1.2531,Gabbro_11,4,11,6,1,1.253,-0.159466349,-0.271287028,1,0,0,1.5279,Basalt_rect,2,1.528,0,15,0,15,0,1,,,,,,,,,,,,,
643480e93c33701dfe923abd,SCN,2024-06-25_13h22.22.016,LearnStrategy,2023.2.3,MacIntel,63.29113924,9,2,1,,,,,,,,7,10,,,,,,,,,,,7,1.579,1,,,,,,0.164653659,-0.419741279,1,0,0,1.5786,Peridotite_rect,0,0,0,0,1,
643480e93c33701dfe923abd,SCN,2024-06-25_13h22.22.016,LearnStrategy,2023.2.3,MacIntel,63.29113924,9,2,2,,,,,,,,3,06,,,,,,,,,,,3,21.557,1,,,,,,0.191220364,-0.246244236,1,0,0,21.5571,Diorite_rect,1,0,1,0,1,
643480e93c33701dfe923abd,SCN,2024-06-25_13h22.22.016,LearnStrategy,2023.2.3,MacIntel,63.29113924,9,2,3,,,,,,,,1,14,,,,,,,,,,,6,1.764,0,,,,,,-0.16473565,-0.386437581,1,0,0,1.7637,Pegmatite_rect,2,0,2,0,1,
643480e93c33701dfe923abd,SCN,2024-06-25_13h22.22.016,LearnStrategy,2023.2.3,MacIntel,63.29113924,9,2,4,,,,,,,,4,12,,,,,,,,,,,4,3.179,1,,,,,,0.470345323,-0.237272407,1,0,0,3.1793,Gabbro_rect,3,0,3,0,1,
643480e93c33701dfe923abd,SCN,2024-06-25_13h22.22.016,LearnStrategy,2023.2.3,MacIntel,63.29113924,9,2,5,,,,,,,,1,02,,,,,,,,,,,4,3.877,0,,,,,,0.406150309,-0.237189399,1,0,0,3.8767,Gabbro_rect,4,0,4,0,1,
643480e93c33701dfe923abd,SCN,2024-06-25_13h22.22.016,LearnStrategy,2023.2.3,MacIntel,63.29113924,9,2,6,,,,,,,,6,03,,,,,,,,,,,6,1.609,1,,,,,,-0.137031047,-0.391952108,1,0,0,1.6091,Pegmatite_rect,5,0,5,0,1,
643480e93c33701dfe923abd,SCN,2024-06-25_13h22.22.016,LearnStrategy,2023.2.3,MacIntel,63.29113924,9,2,7,,,,,,,,5,07,,,,,,,,,,,5,1.093,1,,,,,,-0.379523485,-0.390451253,1,0,0,1.0935,Obsidian_rect,6,0,6,0,1,
643480e93c33701dfe923abd,SCN,2024-06-25_13h22.22.016,LearnStrategy,2023.2.3,MacIntel,63.29113924,9,2,8,,,,,,,,8,16,,,,,,,,,,,8,3.611,1,,,,,,0.381277127,-0.395298869,1,0,0,3.6111,Pumice_rect,7,0,7,0,1,
643480e93c33701dfe923abd,SCN,2024-06-25_13h22.22.016,LearnStrategy,2023.2.3,MacIntel,63.29113924,9,2,9,,,,,,,,7,06,,,,,,,,,,,6,1.916,0,,,,,,-0.0503911,-0.397849392,1,0,0,1.9159,Pegmatite_rect,8,0,8,0,1,
643480e93c33701dfe923abd,SCN,2024-06-25_13h22.22.016,LearnStrategy,2023.2.3,MacIntel,63.29113924,9,2,10,,,,,,,,3,02,,,,,,,,,,,3,3.183,1,,,,,,0.178558417,-0.244797906,1,0,0,3.183,Diorite_rect,9,0,9,0,1,
643480e93c33701dfe923abd,SCN,2024-06-25_13h22.22.016,LearnStrategy,2023.2.3,MacIntel,63.29113924,9,2,11,,,,,,,,4,08,,,,,,,,,,,4,3.426,1,,,,,,0.360933974,-0.241825222,1,0,0,3.4255,Gabbro_rect,10,0,10,0,1,
643480e93c33701dfe923abd,SCN,2024-06-25_13h22.22.016,LearnStrategy,2023.2.3,MacIntel,63.29113924,9,2,12,,,,,,,,2,12,,,,,,,,,,,2,2.697,1,,,,,,-0.099395684,-0.248599514,1,0,0,2.6966,Basalt_rect,11,0,11,0,1,
643480e93c33701dfe923abd,SCN,2024-06-25_13h22.22.016,LearnStrategy,2023.2.3,MacIntel,63.29113924,9,2,13,,,,,,,,8,02,,,,,,,,,,,8,1.3,1,,,,,,0.433650038,-0.407422485,1,0,0,1.3005,Pumice_rect,12,0,12,0,1,
643480e93c33701dfe923abd,SCN,2024-06-25_13h22.22.016,LearnStrategy,2023.2.3,MacIntel,63.29113924,9,2,14,,,,,,,,2,06,,,,,,,,,,,2,3.193,1,,,,,,-0.09172309,-0.233956977,1,0,0,3.1925,Basalt_rect,13,0,13,0,1,
643480e93c33701dfe923abd,SCN,2024-06-25_13h22.22.016,LearnStrategy,2023.2.3,MacIntel,63.29113924,9,2,15,,,,,,,,6,06,,,,,,,,,,,6,1.38,1,,,,,,-0.109403958,-0.395094537,1,0,0,1.3801,Pegmatite_rect,14,0,14,0,1,
643480e93c33701dfe923abd,SCN,2024-06-25_13h22.22.016,LearnStrategy,2023.2.3,MacIntel,63.29113924,9,2,16,,,,,,,,5,05,,,,,,,,,,,5,1.5,1,,,,,,-0.329896512,-0.393805339,1,0,0,1.5001,Obsidian_rect,15,0,15,0,1,
643480e93c33701dfe923abd,SCN,2024-06-25_13h22.22.016,LearnStrategy,2023.2.3,MacIntel,63.29113924,,,,,,,,,,,,,,,,,,,,,,,,,,,,,,,,,,,,,,,,,,,1
643480e93c33701dfe923abd,SCN,2024-06-25_13h22.22.016,LearnStrategy,2023.2.3,MacIntel,63.29113924,,,,,,,,,,,,,,,,,,,,,,,,,,,,,,,,,,,,,,,,,,,
643480e93c33701dfe923abd,SCN,2024-06-25_13h22.22.016,LearnStrategy,2023.2.3,MacIntel,63.29113924,,,,,,,,,,,4,03,1,1,,,,,,,,,,,,,,,,,,,,,,,,,,,,,
643480e93c33701dfe923abd,SCN,2024-06-25_13h22.22.016,LearnStrategy,2023.2.3,MacIntel,63.29113924,,,,,,,,,,,7,02,1,2,,,,,,,,,,,,,,,,,,,,,,,,,,,,,
643480e93c33701dfe923abd,SCN,2024-06-25_13h22.22.016,LearnStrategy,2023.2.3,MacIntel,63.29113924,,,,,,,,,,,4,14,1,3,,,,,,,,,,,,,,,,,,,,,,,,,,,,,
643480e93c33701dfe923abd,SCN,2024-06-25_13h22.22.016,LearnStrategy,2023.2.3,MacIntel,63.29113924,,,,,,,,,,,7,04,1,4,,,,,,,,,,,,,,,,,,,,,,,,,,,,,
643480e93c33701dfe923abd,SCN,2024-06-25_13h22.22.016,LearnStrategy,2023.2.3,MacIntel,63.29113924,,,,,,,,,,,8,03,1,5,,,,,,,,,,,,,,,,,,,,,,,,,,,,,
643480e93c33701dfe923abd,SCN,2024-06-25_13h22.22.016,LearnStrategy,2023.2.3,MacIntel,63.29113924,,,,,,,,,,,3,16,1,6,,,,,,,,,,,,,,,,,,,,,,,,,,,,,
643480e93c33701dfe923abd,SCN,2024-06-25_13h22.22.016,LearnStrategy,2023.2.3,MacIntel,63.29113924,,,,,,,,,,,3,13,1,7,,,,,,,,,,,,,,,,,,,,,,,,,,,,,
643480e93c33701dfe923abd,SCN,2024-06-25_13h22.22.016,LearnStrategy,2023.2.3,MacIntel,63.29113924,,,,,,,,,,,8,04,1,8,,,,,,,,,,,,,,,,,,,,,,,,,,,,,
643480e93c33701dfe923abd,SCN,2024-06-25_13h22.22.016,LearnStrategy,2023.2.3,MacIntel,63.29113924,,,,,,,,,,,5,11,2,1,,,,,,,,,,,,,,,,,,,,,,,,,,,,,
643480e93c33701dfe923abd,SCN,2024-06-25_13h22.22.016,LearnStrategy,2023.2.3,MacIntel,63.29113924,,,,,,,,,,,5,16,2,2,,,,,,,,,,,,,,,,,,,,,,,,,,,,,
643480e93c33701dfe923abd,SCN,2024-06-25_13h22.22.016,LearnStrategy,2023.2.3,MacIntel,63.29113924,,,,,,,,,,,3,09,2,3,,,,,,,,,,,,,,,,,,,,,,,,,,,,,
643480e93c33701dfe923abd,SCN,2024-06-25_13h22.22.016,LearnStrategy,2023.2.3,MacIntel,63.29113924,,,,,,,,,,,1,04,2,4,,,,,,,,,,,,,,,,,,,,,,,,,,,,,
643480e93c33701dfe923abd,SCN,2024-06-25_13h22.22.016,LearnStrategy,2023.2.3,MacIntel,63.29113924,,,,,,,,,,,7,13,2,5,,,,,,,,,,,,,,,,,,,,,,,,,,,,,
643480e93c33701dfe923abd,SCN,2024-06-25_13h22.22.016,LearnStrategy,2023.2.3,MacIntel,63.29113924,,,,,,,,,,,8,05,2,6,,,,,,,,,,,,,,,,,,,,,,,,,,,,,
643480e93c33701dfe923abd,SCN,2024-06-25_13h22.22.016,LearnStrategy,2023.2.3,MacIntel,63.29113924,,,,,,,,,,,8,14,2,7,,,,,,,,,,,,,,,,,,,,,,,,,,,,,
643480e93c33701dfe923abd,SCN,2024-06-25_13h22.22.016,LearnStrategy,2023.2.3,MacIntel,63.29113924,,,,,,,,,,,7,08,2,8,,,,,,,,,,,,,,,,,,,,,,,,,,,,,
643480e93c33701dfe923abd,SCN,2024-06-25_13h22.22.016,LearnStrategy,2023.2.3,MacIntel,63.29113924,,,,,,,,,,,3,15,3,1,,,,,,,,,,,,,,,,,,,,,,,,,,,,,
643480e93c33701dfe923abd,SCN,2024-06-25_13h22.22.016,LearnStrategy,2023.2.3,MacIntel,63.29113924,,,,,,,,,,,2,02,3,2,,,,,,,,,,,,,,,,,,,,,,,,,,,,,
643480e93c33701dfe923abd,SCN,2024-06-25_13h22.22.016,LearnStrategy,2023.2.3,MacIntel,63.29113924,,,,,,,,,,,8,08,3,3,,,,,,,,,,,,,,,,,,,,,,,,,,,,,
643480e93c33701dfe923abd,SCN,2024-06-25_13h22.22.016,LearnStrategy,2023.2.3,MacIntel,63.29113924,,,,,,,,,,,2,01,3,4,,,,,,,,,,,,,,,,,,,,,,,,,,,,,
643480e93c33701dfe923abd,SCN,2024-06-25_13h22.22.016,LearnStrategy,2023.2.3,MacIntel,63.29113924,,,,,,,,,,,2,09,3,5,,,,,,,,,,,,,,,,,,,,,,,,,,,,,
643480e93c33701dfe923abd,SCN,2024-06-25_13h22.22.016,LearnStrategy,2023.2.3,MacIntel,63.29113924,,,,,,,,,,,7,16,3,6,,,,,,,,,,,,,,,,,,,,,,,,,,,,,
643480e93c33701dfe923abd,SCN,2024-06-25_13h22.22.016,LearnStrategy,2023.2.3,MacIntel,63.29113924,,,,,,,,,,,1,05,3,7,,,,,,,,,,,,,,,,,,,,,,,,,,,,,
643480e93c33701dfe923abd,SCN,2024-06-25_13h22.22.016,LearnStrategy,2023.2.3,MacIntel,63.29113924,,,,,,,,,,,1,01,3,8,,,,,,,,,,,,,,,,,,,,,,,,,,,,,
643480e93c33701dfe923abd,SCN,2024-06-25_13h22.22.016,LearnStrategy,2023.2.3,MacIntel,63.29113924,,,,,,,,,,,2,11,4,1,,,,,,,,,,,,,,,,,,,,,,,,,,,,,
643480e93c33701dfe923abd,SCN,2024-06-25_13h22.22.016,LearnStrategy,2023.2.3,MacIntel,63.29113924,,,,,,,,,,,6,08,4,2,,,,,,,,,,,,,,,,,,,,,,,,,,,,,
643480e93c33701dfe923abd,SCN,2024-06-25_13h22.22.016,LearnStrategy,2023.2.3,MacIntel,63.29113924,,,,,,,,,,,1,07,4,3,,,,,,,,,,,,,,,,,,,,,,,,,,,,,
643480e93c33701dfe923abd,SCN,2024-06-25_13h22.22.016,LearnStrategy,2023.2.3,MacIntel,63.29113924,,,,,,,,,,,5,09,4,4,,,,,,,,,,,,,,,,,,,,,,,,,,,,,
643480e93c33701dfe923abd,SCN,2024-06-25_13h22.22.016,LearnStrategy,2023.2.3,MacIntel,63.29113924,,,,,,,,,,,5,04,4,5,,,,,,,,,,,,,,,,,,,,,,,,,,,,,
643480e93c33701dfe923abd,SCN,2024-06-25_13h22.22.016,LearnStrategy,2023.2.3,MacIntel,63.29113924,,,,,,,,,,,7,15,4,6,,,,,,,,,,,,,,,,,,,,,,,,,,,,,
643480e93c33701dfe923abd,SCN,2024-06-25_13h22.22.016,LearnStrategy,2023.2.3,MacIntel,63.29113924,,,,,,,,,,,5,06,4,7,,,,,,,,,,,,,,,,,,,,,,,,,,,,,
643480e93c33701dfe923abd,SCN,2024-06-25_13h22.22.016,LearnStrategy,2023.2.3,MacIntel,63.29113924,,,,,,,,,,,6,15,4,8,,,,,,,,,,,,,,,,,,,,,,,,,,,,,
643480e93c33701dfe923abd,SCN,2024-06-25_13h22.22.016,LearnStrategy,2023.2.3,MacIntel,63.29113924,,,,,,,,,,,4,13,5,1,,,,,,,,,,,,,,,,,,,,,,,,,,,,,
643480e93c33701dfe923abd,SCN,2024-06-25_13h22.22.016,LearnStrategy,2023.2.3,MacIntel,63.29113924,,,,,,,,,,,3,08,5,2,,,,,,,,,,,,,,,,,,,,,,,,,,,,,
643480e93c33701dfe923abd,SCN,2024-06-25_13h22.22.016,LearnStrategy,2023.2.3,MacIntel,63.29113924,,,,,,,,,,,6,05,5,3,,,,,,,,,,,,,,,,,,,,,,,,,,,,,
643480e93c33701dfe923abd,SCN,2024-06-25_13h22.22.016,LearnStrategy,2023.2.3,MacIntel,63.29113924,,,,,,,,,,,2,14,5,4,,,,,,,,,,,,,,,,,,,,,,,,,,,,,
643480e93c33701dfe923abd,SCN,2024-06-25_13h22.22.016,LearnStrategy,2023.2.3,MacIntel,63.29113924,,,,,,,,,,,2,04,5,5,,,,,,,,,,,,,,,,,,,,,,,,,,,,,
643480e93c33701dfe923abd,SCN,2024-06-25_13h22.22.016,LearnStrategy,2023.2.3,MacIntel,63.29113924,,,,,,,,,,,4,10,5,6,,,,,,,,,,,,,,,,,,,,,,,,,,,,,
643480e93c33701dfe923abd,SCN,2024-06-25_13h22.22.016,LearnStrategy,2023.2.3,MacIntel,63.29113924,,,,,,,,,,,6,16,5,7,,,,,,,,,,,,,,,,,,,,,,,,,,,,,
643480e93c33701dfe923abd,SCN,2024-06-25_13h22.22.016,LearnStrategy,2023.2.3,MacIntel,63.29113924,,,,,,,,,,,1,11,5,8,,,,,,,,,,,,,,,,,,,,,,,,,,,,,
643480e93c33701dfe923abd,SCN,2024-06-25_13h22.22.016,LearnStrategy,2023.2.3,MacIntel,63.29113924,,,,,,,,,,,4,11,6,1,,,,,,,,,,,,,,,,,,,,,,,,,,,,,
643480e93c33701dfe923abd,SCN,2024-06-25_13h22.22.016,LearnStrategy,2023.2.3,MacIntel,63.29113924,,,,,,,,,,,8,10,6,2,,,,,,,,,,,,,,,,,,,,,,,,,,,,,
643480e93c33701dfe923abd,SCN,2024-06-25_13h22.22.016,LearnStrategy,2023.2.3,MacIntel,63.29113924,,,,,,,,,,,1,06,6,3,,,,,,,,,,,,,,,,,,,,,,,,,,,,,
643480e93c33701dfe923abd,SCN,2024-06-25_13h22.22.016,LearnStrategy,2023.2.3,MacIntel,63.29113924,,,,,,,,,,,6,07,6,4,,,,,,,,,,,,,,,,,,,,,,,,,,,,,
643480e93c33701dfe923abd,SCN,2024-06-25_13h22.22.016,LearnStrategy,2023.2.3,MacIntel,63.29113924,,,,,,,,,,,3,14,6,5,,,,,,,,,,,,,,,,,,,,,,,,,,,,,
643480e93c33701dfe923abd,SCN,2024-06-25_13h22.22.016,LearnStrategy,2023.2.3,MacIntel,63.29113924,,,,,,,,,,,6,10,6,6,,,,,,,,,,,,,,,,,,,,,,,,,,,,,
643480e93c33701dfe923abd,SCN,2024-06-25_13h22.22.016,LearnStrategy,2023.2.3,MacIntel,63.29113924,,,,,,,,,,,4,01,6,7,,,,,,,,,,,,,,,,,,,,,,,,,,,,,
643480e93c33701dfe923abd,SCN,2024-06-25_13h22.22.016,LearnStrategy,2023.2.3,MacIntel,63.29113924,,,,,,,,,,,5,08,6,8,,,,,,,,,,,,,,,,,,,,,,,,,,,,,