participant,condition,date,expName,psychopyVersion,OS,frameRate,block,phase,trial,learn_mouse_2.x,learn_mouse_2.y,learn_mouse_2.leftButton,learn_mouse_2.midButton,learn_mouse_2.rightButton,learn_mouse_2.time,learn_mouse_2.clicked_name,cat,token,row,col,t_select,cat_mouse_l.x,cat_mouse_l.y,cat_mouse_l.leftButton,cat_mouse_l.midButton,cat_mouse_l.rightButton,cat_mouse_l.time,cat_mouse_l.clicked_name,resp,t_resp,corr,train_trials.thisRepN,train_trials.thisTrialN,train_trials.thisN,train_trials.thisIndex,train_trials.ran,cat_mouse_t.x,cat_mouse_t.y,cat_mouse_t.leftButton,cat_mouse_t.midButton,cat_mouse_t.rightButton,cat_mouse_t.time,cat_mouse_t.clicked_name,test_trials.thisRepN,test_trials.thisTrialN,test_trials.thisN,test_trials.thisIndex,test_trials.ran,Bonus
6437848cce0b587f816052e9,TCR,2024-06-25_12h43.06.387,LearnStrategy,2023.2.3,Win32,60.24096386,,,,,,,,,,,,,,,,,,,,,,,,,,,,,,,,,,,,,,,,,,,
6437848cce0b587f816052e9,TCR,2024-06-25_12h43.06.387,LearnStrategy,2023.2.3,Win32,60.24096386,1,1,1,0.182291667,0.001302083,1,0,0,4.7809,rock_grid_rect_2,8,04,-1,-1,4.781,0.178385417,-0.234375,1,0,0,12.4457,Diorite_rect,3,12.446,0,0,0,0,0,1,,,,,,,,,,,,,
6437848cce0b587f816052e9,TCR,2024-06-25_12h43.06.387,LearnStrategy,2023.2.3,Win32,60.24096386,1,1,2,0.029947917,0.018229167,1,0,0,3.4825,rock_grid_rect_2,7,07,-1,-1,3.483,-0.399739583,-0.38671875,1,0,0,8.341,Obsidian_rect,5,8.341,0,1,0,1,0,1,,,,,,,,,,,,,
6437848cce0b587f816052e9,TCR,2024-06-25_12h43.06.387,LearnStrategy,2023.2.3,Win32,60.24096386,1,1,3,0.055989583,0.002604167,1,0,0,9.856,rock_grid_rect_2,8,03,-1,-1,9.856,-0.358072917,-0.244791667,1,0,0,3.5489,Andesite_rect,1,3.549,0,2,0,2,0,1,,,,,,,,,,,,,
6437848cce0b587f816052e9,TCR,2024-06-25_12h43.06.387,LearnStrategy,2023.2.3,Win32,60.24096386,1,1,4,0.024739583,0.005208333,1,0,0,2.8328,rock_grid_rect_2,2,06,-1,-1,2.833,-0.02734375,-0.256510417,1,0,0,6.7524,Basalt_rect,2,6.752,1,3,0,3,0,1,,,,,,,,,,,,,
6437848cce0b587f816052e9,TCR,2024-06-25_12h43.06.387,LearnStrategy,2023.2.3,Win32,60.24096386,1,1,5,0.072916667,-0.01171875,1,0,0,1.7532,rock_grid_rect_2,3,10,-1,-1,1.753,0.4375,-0.23828125,1,0,0,7.3137,Gabbro_rect,4,7.314,0,4,0,4,0,1,,,,,,,,,,,,,
6437848cce0b587f816052e9,TCR,2024-06-25_12h43.06.387,LearnStrategy,2023.2.3,Win32,60.24096386,1,1,6,0.063802083,-0.024739583,1,0,0,1.891,rock_grid_rect_2,3,12,-1,-1,1.891,-0.16796875,-0.229166667,1,0,0,4.2178,Basalt_rect,2,4.218,0,5,0,5,0,1,,,,,,,,,,,,,
6437848cce0b587f816052e9,TCR,2024-06-25_12h43.06.387,LearnStrategy,2023.2.3,Win32,60.24096386,1,1,7,0.0390625,-0.0078125,1,0,0,1.5834,rock_grid_rect_2,6,11,-1,-1,1.583,-0.108072917,-0.408854167,1,0,0,4.3433,Pegmatite_rect,6,4.343,1,6,0,6,0,1,,,,,,,,,,,,,
6437848cce0b587f816052e9,TCR,2024-06-25_12h43.06.387,LearnStrategy,2023.2.3,Win32,60.24096386,1,1,8,0.0703125,-0.009114583,1,0,0,1.6527,rock_grid_rect_2,4,15,-1,-1,1.653,0.169270833,-0.403645833,1,0,0,9.5384,Peridotite_rect,7,9.538,0,7,0,7,0,1,,,,,,,,,,,,,
6437848cce0b587f816052e9,TCR,2024-06-25_12h43.06.387,LearnStrategy,2023.2.3,Win32,60.24096386,1,1,9,0.05078125,0.022135417,1,0,0,1.1055,rock_grid_rect_2,7,16,-1,-1,1.106,-0.411458333,-0.404947917,1,0,0,6.9853,Obsidian_rect,5,6.985,0,8,0,8,0,1,,,,,,,,,,,,,
6437848cce0b587f816052e9,TCR,2024-06-25_12h43.06.387,LearnStrategy,2023.2.3,Win32,60.24096386,1,1,10,0.084635417,0.022135417,1,0,0,6.4419,rock_grid_rect_2,6,06,-1,-1,6.442,-0.069010417,-0.397135417,1,0,0,6.3799,Pegmatite_rect,6,6.38,1,9,0,9,0,1,,,,,,,,,,,,,
6437848cce0b587f816052e9,TCR,2024-06-25_12h43.06.387,LearnStrategy,2023.2.3,Win32,60.24096386,1,1,11,0.052083333,-0.00390625,1,0,0,1.6043,rock_grid_rect_2,1,11,-1,-1,1.604,0.4375,-0.263020833,1,0,0,2.7007,Gabbro_rect,4,2.701,0,10,0,10,0,1,,,,,,,,,,,,,
6437848cce0b587f816052e9,TCR,2024-06-25_12h43.06.387,LearnStrategy,2023.2.3,Win32,60.24096386,1,1,12,0.020833333,0.013020833,1,0,0,1.2237,rock_grid_rect_2,5,02,-1,-1,1.224,0.407552083,-0.40234375,1,0,0,8.5927,Pumice_rect,8,8.593,0,11,0,11,0,1,,,,,,,,,,,,,
6437848cce0b587f816052e9,TCR,2024-06-25_12h43.06.387,LearnStrategy,2023.2.3,Win32,60.24096386,1,1,13,0.0625,0,1,0,0,1.3133,rock_grid_rect_2,1,03,-1,-1,1.313,-0.1484375,-0.25,1,0,0,28.8278,Basalt_rect,2,28.828,0,12,0,12,0,1,,,,,,,,,,,,,
6437848cce0b587f816052e9,TCR,2024-06-25_12h43.06.387,LearnStrategy,2023.2.3,Win32,60.24096386,1,1,14,0.049479167,0.013020833,1,0,0,1.7697,rock_grid_rect_2,2,05,-1,-1,1.77,-0.036458333,-0.37890625,1,0,0,7.1303,Pegmatite_rect,6,7.13,0,13,0,13,0,1,,,,,,,,,,,,,
6437848cce0b587f816052e9,TCR,2024-06-25_12h43.06.387,LearnStrategy,2023.2.3,Win32,60.24096386,1,1,15,0.024739583,0.00390625,1,0,0,2.0958,rock_grid_rect_2,4,11,-1,-1,2.096,-0.4375,-0.236979167,1,0,0,6.0231,Andesite_rect,1,6.023,0,14,0,14,0,1,,,,,,,,,,,,,
6437848cce0b587f816052e9,TCR,2024-06-25_12h43.06.387,LearnStrategy,2023.2.3,Win32,60.24096386,1,1,16,0.009114583,0.014322917,1,0,0,1.5197,rock_grid_rect_2,5,10,-1,-1,1.52,-0.4609375,-0.41796875,1,0,0,4.0021,Obsidian_rect,5,4.002,1,15,0,15,0,1,,,,,,,,,,,,,
6437848cce0b587f816052e9,TCR,2024-06-25_12h43.06.387,LearnStrategy,2023.2.3,Win32,60.24096386,1,2,1,,,,,,,,3,16,,,,,,,,,,,4,18.307,0,,,,,,0.412760417,-0.247395833,1,0,0,18.3072,Gabbro_rect,0,0,0,0,1,
6437848cce0b587f816052e9,TCR,2024-06-25_12h43.06.387,LearnStrategy,2023.2.3,Win32,60.24096386,1,2,2,,,,,,,,4,10,,,,,,,,,,,3,8.394,0,,,,,,0.16796875,-0.244791667,1,0,0,8.3941,Diorite_rect,1,0,1,0,1,
6437848cce0b587f816052e9,TCR,2024-06-25_12h43.06.387,LearnStrategy,2023.2.3,Win32,60.24096386,1,2,3,,,,,,,,8,05,,,,,,,,,,,8,7.046,1,,,,,,0.411458333,-0.412760417,1,0,0,7.0464,Pumice_rect,2,0,2,0,1,
6437848cce0b587f816052e9,TCR,2024-06-25_12h43.06.387,LearnStrategy,2023.2.3,Win32,60.24096386,1,2,4,,,,,,,,8,02,,,,,,,,,,,8,2.015,1,,,,,,0.411458333,-0.412760417,1,0,0,2.0148,Pumice_rect,3,0,3,0,1,
6437848cce0b587f816052e9,TCR,2024-06-25_12h43.06.387,LearnStrategy,2023.2.3,Win32,60.24096386,1,2,5,,,,,,,,6,07,,,,,,,,,,,6,21.428,1,,,,,,-0.118489583,-0.388020833,1,0,0,21.4284,Pegmatite_rect,4,0,4,0,1,
6437848cce0b587f816052e9,TCR,2024-06-25_12h43.06.387,LearnStrategy,2023.2.3,Win32,60.24096386,1,2,6,,,,,,,,1,06,,,,,,,,,,,1,8.112,1,,,,,,-0.328125,-0.252604167,1,0,0,8.1119,Andesite_rect,5,0,5,0,1,
6437848cce0b587f816052e9,TCR,2024-06-25_12h43.06.387,LearnStrategy,2023.2.3,Win32,60.24096386,1,2,7,,,,,,,,3,08,,,,,,,,,,,4,8.295,0,,,,,,0.459635417,-0.25390625,1,0,0,8.2946,Gabbro_rect,6,0,6,0,1,
6437848cce0b587f816052e9,TCR,2024-06-25_12h43.06.387,LearnStrategy,2023.2.3,Win32,60.24096386,1,2,8,,,,,,,,5,16,,,,,,,,,,,5,2.406,1,,,,,,-0.4375,-0.39453125,1,0,0,2.4058,Obsidian_rect,7,0,7,0,1,
6437848cce0b587f816052e9,TCR,2024-06-25_12h43.06.387,LearnStrategy,2023.2.3,Win32,60.24096386,1,2,9,,,,,,,,4,03,,,,,,,,,,,4,2.555,1,,,,,,0.403645833,-0.247395833,1,0,0,2.5548,Gabbro_rect,8,0,8,0,1,
6437848cce0b587f816052e9,TCR,2024-06-25_12h43.06.387,LearnStrategy,2023.2.3,Win32,60.24096386,1,2,10,,,,,,,,2,14,,,,,,,,,,,8,23.999,0,,,,,,0.403645833,-0.395833333,1,0,0,23.999,Pumice_rect,9,0,9,0,1,
6437848cce0b587f816052e9,TCR,2024-06-25_12h43.06.387,LearnStrategy,2023.2.3,Win32,60.24096386,1,2,11,,,,,,,,7,04,,,,,,,,,,,6,6.34,0,,,,,,-0.15625,-0.390625,1,0,0,6.34,Pegmatite_rect,10,0,10,0,1,
6437848cce0b587f816052e9,TCR,2024-06-25_12h43.06.387,LearnStrategy,2023.2.3,Win32,60.24096386,1,2,12,,,,,,,,2,12,,,,,,,,,,,1,62.395,0,,,,,,-0.38671875,-0.231770833,1,0,0,62.395,Andesite_rect,11,0,11,0,1,
6437848cce0b587f816052e9,TCR,2024-06-25_12h43.06.387,LearnStrategy,2023.2.3,Win32,60.24096386,1,2,13,,,,,,,,1,02,,,,,,,,,,,6,2.309,0,,,,,,-0.106770833,-0.390625,1,0,0,2.3095,Pegmatite_rect,12,0,12,0,1,
6437848cce0b587f816052e9,TCR,2024-06-25_12h43.06.387,LearnStrategy,2023.2.3,Win32,60.24096386,1,2,14,,,,,,,,6,10,,,,,,,,,,,6,5.416,1,,,,,,-0.14453125,-0.395833333,1,0,0,5.4158,Pegmatite_rect,13,0,13,0,1,
6437848cce0b587f816052e9,TCR,2024-06-25_12h43.06.387,LearnStrategy,2023.2.3,Win32,60.24096386,1,2,15,,,,,,,,7,02,,,,,,,,,,,3,2.448,0,,,,,,0.13671875,-0.26171875,1,0,0,2.4485,Diorite_rect,14,0,14,0,1,
6437848cce0b587f816052e9,TCR,2024-06-25_12h43.06.387,LearnStrategy,2023.2.3,Win32,60.24096386,1,2,16,,,,,,,,5,07,,,,,,,,,,,5,1.755,1,,,,,,-0.411458333,-0.380208333,1,0,0,1.7548,Obsidian_rect,15,0,15,0,1,
6437848cce0b587f816052e9,TCR,2024-06-25_12h43.06.387,LearnStrategy,2023.2.3,Win32,60.24096386,2,1,1,0.057291667,0.014322917,1,0,0,1.9787,rock_grid_rect_2,8,13,-1,-1,1.979,0.397135417,-0.40625,1,0,0,6.0482,Pumice_rect,8,6.048,1,0,0,0,0,1,,,,,,,,,,,,,
6437848cce0b587f816052e9,TCR,2024-06-25_12h43.06.387,LearnStrategy,2023.2.3,Win32,60.24096386,2,1,2,0.036458333,0.015625,1,0,0,1.6946,rock_grid_rect_2,6,13,-1,-1,1.695,-0.197916667,-0.416666667,1,0,0,2.2357,Pegmatite_rect,6,2.236,1,1,0,1,0,1,,,,,,,,,,,,,
6437848cce0b587f816052e9,TCR,2024-06-25_12h43.06.387,LearnStrategy,2023.2.3,Win32,60.24096386,2,1,3,0.087239583,-0.015625,1,0,0,1.6443,rock_grid_rect_2,3,11,-1,-1,1.644,0.38671875,-0.235677083,1,0,0,2.5618,Gabbro_rect,4,2.562,0,2,0,2,0,1,,,,,,,,,,,,,
6437848cce0b587f816052e9,TCR,2024-06-25_12h43.06.387,LearnStrategy,2023.2.3,Win32,60.24096386,2,1,4,0.055989583,0.016927083,1,0,0,1.5453,rock_grid_rect_2,4,11,-1,-1,1.545,0.419270833,-0.240885417,1,0,0,2.6448,Gabbro_rect,4,2.645,1,3,0,3,0,1,,,,,,,,,,,,,
6437848cce0b587f816052e9,TCR,2024-06-25_12h43.06.387,LearnStrategy,2023.2.3,Win32,60.24096386,2,1,5,0.03125,-0.005208333,1,0,0,1.5411,rock_grid_rect_2,2,05,-1,-1,1.541,-0.462239583,-0.399739583,1,0,0,2.0184,Obsidian_rect,5,2.018,0,4,0,4,0,1,,,,,,,,,,,,,
6437848cce0b587f816052e9,TCR,2024-06-25_12h43.06.387,LearnStrategy,2023.2.3,Win32,60.24096386,2,1,6,0.041666667,0.005208333,1,0,0,2.3091,rock_grid_rect_2,3,06,-1,-1,2.309,0.41015625,-0.26953125,1,0,0,4.4973,Gabbro_rect,4,4.497,0,5,0,5,0,1,,,,,,,,,,,,,
6437848cce0b587f816052e9,TCR,2024-06-25_12h43.06.387,LearnStrategy,2023.2.3,Win32,60.24096386,2,1,7,0.010416667,0,1,0,0,2.0752,rock_grid_rect_2,2,16,-1,-1,2.075,0.407552083,-0.3828125,1,0,0,3.0063,Pumice_rect,8,3.006,0,6,0,6,0,1,,,,,,,,,,,,,
6437848cce0b587f816052e9,TCR,2024-06-25_12h43.06.387,LearnStrategy,2023.2.3,Win32,60.24096386,2,1,8,0.03515625,0.018229167,1,0,0,1.4129,rock_grid_rect_2,7,05,-1,-1,1.413,0.16015625,-0.23828125,1,0,0,2.2171,Diorite_rect,3,2.217,0,7,0,7,0,1,,,,,,,,,,,,,
6437848cce0b587f816052e9,TCR,2024-06-25_12h43.06.387,LearnStrategy,2023.2.3,Win32,60.24096386,2,1,9,-0.001302083,-0.020833333,1,0,0,1.5253,rock_grid_rect_2,2,06,-1,-1,1.525,-0.4140625,-0.401041667,1,0,0,1.547,Obsidian_rect,5,1.547,0,8,0,8,0,1,,,,,,,,,,,,,
6437848cce0b587f816052e9,TCR,2024-06-25_12h43.06.387,LearnStrategy,2023.2.3,Win32,60.24096386,2,1,10,0.029947917,-0.013020833,1,0,0,1.2137,rock_grid_rect_2,7,12,-1,-1,1.214,0.440104167,-0.233072917,1,0,0,2.7409,Gabbro_rect,4,2.741,0,9,0,9,0,1,,,,,,,,,,,,,
6437848cce0b587f816052e9,TCR,2024-06-25_12h43.06.387,LearnStrategy,2023.2.3,Win32,60.24096386,2,1,11,0.0703125,0.016927083,1,0,0,1.8748,rock_grid_rect_2,3,10,-1,-1,1.875,0.350260417,-0.24609375,1,0,0,1.8467,Gabbro_rect,4,1.847,0,10,0,10,0,1,,,,,,,,,,,,,
6437848cce0b587f816052e9,TCR,2024-06-25_12h43.06.387,LearnStrategy,2023.2.3,Win32,60.24096386,2,1,12,0.1328125,0.006510417,1,0,0,1.3462,rock_grid_rect_2,7,06,-1,-1,1.346,-0.135416667,-0.4140625,1,0,0,3.1365,Pegmatite_rect,6,3.137,0,11,0,11,0,1,,,,,,,,,,,,,
6437848cce0b587f816052e9,TCR,2024-06-25_12h43.06.387,LearnStrategy,2023.2.3,Win32,60.24096386,2,1,13,0.04296875,0.00390625,1,0,0,1.196,rock_grid_rect_2,1,03,-1,-1,1.196,0.346354167,-0.23828125,1,0,0,3.6678,Gabbro_rect,4,3.668,0,12,0,12,0,1,,,,,,,,,,,,,
6437848cce0b587f816052e9,TCR,2024-06-25_12h43.06.387,LearnStrategy,2023.2.3,Win32,60.24096386,2,1,14,0.005208333,-0.013020833,1,0,0,1.1126,rock_grid_rect_2,3,09,-1,-1,1.113,0.372395833,-0.23046875,1,0,0,1.627,Gabbro_rect,4,1.627,0,13,0,13,0,1,,,,,,,,,,,,,
6437848cce0b587f816052e9,TCR,2024-06-25_12h43.06.387,LearnStrategy,2023.2.3,Win32,60.24096386,2,1,15,0.016927083,-0.0078125,1,0,0,1.4935,rock_grid_rect_2,4,12,-1,-1,1.494,-0.138020833,-0.25,1,0,0,1.0215,Basalt_rect,2,1.022,0,14,0,14,0,1,,,,,,,,,,,,,
6437848cce0b587f816052e9,TCR,2024-06-25_12h43.06.387,LearnStrategy,2023.2.3,Win32,60.24096386,2,1,16,0.100260417,-0.009114583,1,0,0,1.0618,rock_grid_rect_2,1,03,-1,-1,1.062,-0.38671875,-0.388020833,1,0,0,1.4899,Obsidian_rect,5,1.49,0,15,0,15,0,1,,,,,,,,,,,,,
6437848cce0b587f816052e9,TCR,2024-06-25_12h43.06.387,LearnStrategy,2023.2.3,Win32,60.24096386,2,2,1,,,,,,,,1,10,,,,,,,,,,,7,10.13,0,,,,,,0.19921875,-0.399739583,1,0,0,10.1304,Peridotite_rect,0,0,0,0,1,
6437848cce0b587f816052e9,TCR,2024-06-25_12h43.06.387,LearnStrategy,2023.2.3,Win32,60.24096386,2,2,2,,,,,,,,6,05,,,,,,,,,,,6,2.808,1,,,,,,-0.147135417,-0.41796875,1,0,0,2.8083,Pegmatite_rect,1,0,1,0,1,
6437848cce0b587f816052e9,TCR,2024-06-25_12h43.06.387,LearnStrategy,2023.2.3,Win32,60.24096386,2,2,3,,,,,,,,7,08,,,,,,,,,,,3,1.739,0,,,,,,0.09765625,-0.248697917,1,0,0,1.7391,Diorite_rect,2,0,2,0,1,
6437848cce0b587f816052e9,TCR,2024-06-25_12h43.06.387,LearnStrategy,2023.2.3,Win32,60.24096386,2,2,4,,,,,,,,1,04,,,,,,,,,,,2,2.121,0,,,,,,-0.098958333,-0.231770833,1,0,0,2.1212,Basalt_rect,3,0,3,0,1,
6437848cce0b587f816052e9,TCR,2024-06-25_12h43.06.387,LearnStrategy,2023.2.3,Win32,60.24096386,2,2,5,,,,,,,,3,15,,,,,,,,,,,3,1.869,1,,,,,,0.083333333,-0.25,1,0,0,1.8693,Diorite_rect,4,0,4,0,1,
6437848cce0b587f816052e9,TCR,2024-06-25_12h43.06.387,LearnStrategy,2023.2.3,Win32,60.24096386,2,2,6,,,,,,,,4,16,,,,,,,,,,,1,4.439,0,,,,,,-0.3515625,-0.252604167,1,0,0,4.4395,Andesite_rect,5,0,5,0,1,
6437848cce0b587f816052e9,TCR,2024-06-25_12h43.06.387,LearnStrategy,2023.2.3,Win32,60.24096386,2,2,7,,,,,,,,5,11,,,,,,,,,,,5,2.334,1,,,,,,-0.455729167,-0.41796875,1,0,0,2.3341,Obsidian_rect,6,0,6,0,1,
6437848cce0b587f816052e9,TCR,2024-06-25_12h43.06.387,LearnStrategy,2023.2.3,Win32,60.24096386,2,2,8,,,,,,,,5,08,,,,,,,,,,,5,2.252,1,,,,,,-0.490885417,-0.421875,1,0,0,2.2516,Obsidian_rect,7,0,7,0,1,
6437848cce0b587f816052e9,TCR,2024-06-25_12h43.06.387,LearnStrategy,2023.2.3,Win32,60.24096386,2,2,9,,,,,,,,3,07,,,,,,,,,,,3,1.67,1,,,,,,0.098958333,-0.234375,1,0,0,1.6696,Diorite_rect,8,0,8,0,1,
6437848cce0b587f816052e9,TCR,2024-06-25_12h43.06.387,LearnStrategy,2023.2.3,Win32,60.24096386,2,2,10,,,,,,,,7,13,,,,,,,,,,,6,2.035,0,,,,,,-0.080729167,-0.385416667,1,0,0,2.0352,Pegmatite_rect,9,0,9,0,1,
6437848cce0b587f816052e9,TCR,2024-06-25_12h43.06.387,LearnStrategy,2023.2.3,Win32,60.24096386,2,2,11,,,,,,,,6,03,,,,,,,,,,,6,1.846,1,,,,,,-0.0703125,-0.39453125,1,0,0,1.8464,Pegmatite_rect,10,0,10,0,1,
6437848cce0b587f816052e9,TCR,2024-06-25_12h43.06.387,LearnStrategy,2023.2.3,Win32,60.24096386,2,2,12,,,,,,,,2,04,,,,,,,,,,,2,2.041,1,,,,,,-0.153645833,-0.260416667,1,0,0,2.0411,Basalt_rect,11,0,11,0,1,
6437848cce0b587f816052e9,TCR,2024-06-25_12h43.06.387,LearnStrategy,2023.2.3,Win32,60.24096386,2,2,13,,,,,,,,4,14,,,,,,,,,,,1,2.457,0,,,,,,-0.345052083,-0.2421875,1,0,0,2.4566,Andesite_rect,12,0,12,0,1,
6437848cce0b587f816052e9,TCR,2024-06-25_12h43.06.387,LearnStrategy,2023.2.3,Win32,60.24096386,2,2,14,,,,,,,,8,06,,,,,,,,,,,8,3.253,1,,,,,,0.384114583,-0.385416667,1,0,0,3.2529,Pumice_rect,13,0,13,0,1,
6437848cce0b587f816052e9,TCR,2024-06-25_12h43.06.387,LearnStrategy,2023.2.3,Win32,60.24096386,2,2,15,,,,,,,,8,08,,,,,,,,,,,8,2.093,1,,,,,,0.3828125,-0.41015625,1,0,0,2.0935,Pumice_rect,14,0,14,0,1,
6437848cce0b587f816052e9,TCR,2024-06-25_12h43.06.387,LearnStrategy,2023.2.3,Win32,60.24096386,2,2,16,,,,,,,,2,11,,,,,,,,,,,2,1.512,1,,,,,,-0.173177083,-0.23828125,1,0,0,1.5119,Basalt_rect,15,0,15,0,1,
6437848cce0b587f816052e9,TCR,2024-06-25_12h43.06.387,LearnStrategy,2023.2.3,Win32,60.24096386,3,1,1,0.001302083,-0.0078125,1,0,0,1.613,rock_grid_rect_2,1,14,-1,-1,1.613,-0.080729167,-0.385416667,1,0,0,2.4544,Pegmatite_rect,6,2.454,0,0,0,0,0,1,,,,,,,,,,,,,
6437848cce0b587f816052e9,TCR,2024-06-25_12h43.06.387,LearnStrategy,2023.2.3,Win32,60.24096386,3,1,2,0.055989583,0.020833333,1,0,0,1.2631,rock_grid_rect_2,3,10,-1,-1,1.263,-0.209635417,-0.251302083,1,0,0,2.6054,Basalt_rect,2,2.605,0,1,0,1,0,1,,,,,,,,,,,,,
6437848cce0b587f816052e9,TCR,2024-06-25_12h43.06.387,LearnStrategy,2023.2.3,Win32,60.24096386,3,1,3,0.12109375,0.006510417,1,0,0,1.0276,rock_grid_rect_2,3,02,-1,-1,1.028,0.41015625,-0.26171875,1,0,0,4.0497,Gabbro_rect,4,4.05,0,2,0,2,0,1,,,,,,,,,,,,,
6437848cce0b587f816052e9,TCR,2024-06-25_12h43.06.387,LearnStrategy,2023.2.3,Win32,60.24096386,3,1,4,0.10546875,-0.00390625,1,0,0,1.1957,rock_grid_rect_2,6,08,-1,-1,1.196,-0.188802083,-0.41015625,1,0,0,2.4293,Pegmatite_rect,6,2.429,1,3,0,3,0,1,,,,,,,,,,,,,
6437848cce0b587f816052e9,TCR,2024-06-25_12h43.06.387,LearnStrategy,2023.2.3,Win32,60.24096386,3,1,5,-0.041666667,-0.006510417,1,0,0,1.2281,rock_grid_rect_2,2,05,-1,-1,1.228,-0.145833333,-0.248697917,1,0,0,3.1094,Basalt_rect,2,3.109,1,4,0,4,0,1,,,,,,,,,,,,,
6437848cce0b587f816052e9,TCR,2024-06-25_12h43.06.387,LearnStrategy,2023.2.3,Win32,60.24096386,3,1,6,-0.00390625,-0.009114583,1,0,0,1.4621,rock_grid_rect_2,2,05,-1,-1,1.462,-0.162760417,-0.248697917,1,0,0,3.04,Basalt_rect,2,3.04,1,5,0,5,0,1,,,,,,,,,,,,,
6437848cce0b587f816052e9,TCR,2024-06-25_12h43.06.387,LearnStrategy,2023.2.3,Win32,60.24096386,3,1,7,-0.061197917,-0.013020833,1,0,0,2.5772,rock_grid_rect_2,4,08,-1,-1,2.577,-0.350260417,-0.248697917,1,0,0,18.759,Andesite_rect,1,18.759,0,6,0,6,0,1,,,,,,,,,,,,,
6437848cce0b587f816052e9,TCR,2024-06-25_12h43.06.387,LearnStrategy,2023.2.3,Win32,60.24096386,3,1,8,0.03515625,-0.020833333,1,0,0,1.828,rock_grid_rect_2,7,05,-1,-1,1.828,0.08984375,-0.2578125,1,0,0,3.7695,Diorite_rect,3,3.77,0,7,0,7,0,1,,,,,,,,,,,,,
6437848cce0b587f816052e9,TCR,2024-06-25_12h43.06.387,LearnStrategy,2023.2.3,Win32,60.24096386,3,1,9,0.154947917,-0.014322917,1,0,0,1.2427,rock_grid_rect_2,1,07,-1,-1,1.243,0.375,-0.2578125,1,0,0,2.6578,Gabbro_rect,4,2.658,0,8,0,8,0,1,,,,,,,,,,,,,
6437848cce0b587f816052e9,TCR,2024-06-25_12h43.06.387,LearnStrategy,2023.2.3,Win32,60.24096386,3,1,10,0.01953125,0.001302083,1,0,0,1.0945,rock_grid_rect_2,4,01,-1,-1,1.094,0.236979167,-0.240885417,1,0,0,1.7592,Diorite_rect,3,1.759,0,9,0,9,0,1,,,,,,,,,,,,,
6437848cce0b587f816052e9,TCR,2024-06-25_12h43.06.387,LearnStrategy,2023.2.3,Win32,60.24096386,3,1,11,0.033854167,-0.01171875,1,0,0,1.1466,rock_grid_rect_2,4,12,-1,-1,1.147,0.153645833,-0.23828125,1,0,0,1.7287,Diorite_rect,3,1.729,0,10,0,10,0,1,,,,,,,,,,,,,
6437848cce0b587f816052e9,TCR,2024-06-25_12h43.06.387,LearnStrategy,2023.2.3,Win32,60.24096386,3,1,12,0.048177083,-0.009114583,1,0,0,1.4629,rock_grid_rect_2,7,06,-1,-1,1.463,-0.065104167,-0.4140625,1,0,0,3.7634,Pegmatite_rect,6,3.763,0,11,0,11,0,1,,,,,,,,,,,,,
6437848cce0b587f816052e9,TCR,2024-06-25_12h43.06.387,LearnStrategy,2023.2.3,Win32,60.24096386,3,1,13,0.091145833,-0.018229167,1,0,0,1.0624,rock_grid_rect_2,7,07,-1,-1,1.062,0.368489583,-0.239583333,1,0,0,2.9692,Gabbro_rect,4,2.969,0,12,0,12,0,1,,,,,,,,,,,,,
6437848cce0b587f816052e9,TCR,2024-06-25_12h43.06.387,LearnStrategy,2023.2.3,Win32,60.24096386,3,1,14,0.036458333,-0.002604167,1,0,0,1.2617,rock_grid_rect_2,7,12,-1,-1,1.262,0.4140625,-0.264322917,1,0,0,1.9891,Gabbro_rect,4,1.989,0,13,0,13,0,1,,,,,,,,,,,,,
6437848cce0b587f816052e9,TCR,2024-06-25_12h43.06.387,LearnStrategy,2023.2.3,Win32,60.24096386,3,1,15,0.072916667,0.005208333,1,0,0,1.7792,rock_grid_rect_2,8,03,-1,-1,1.779,0.381510417,-0.399739583,1,0,0,2.504,Pumice_rect,8,2.504,1,14,0,14,0,1,,,,,,,,,,,,,
6437848cce0b587f816052e9,TCR,2024-06-25_12h43.06.387,LearnStrategy,2023.2.3,Win32,60.24096386,3,1,16,0.0625,0.01171875,1,0,0,1.162,rock_grid_rect_2,1,11,-1,-1,1.162,-0.313802083,-0.256510417,1,0,0,29.8298,Andesite_rect,1,29.83,1,15,0,15,0,1,,,,,,,,,,,,,
6437848cce0b587f816052e9,TCR,2024-06-25_12h43.06.387,LearnStrategy,2023.2.3,Win32,60.24096386,3,2,1,,,,,,,,8,10,,,,,,,,,,,8,23.816,1,,,,,,0.434895833,-0.388020833,1,0,0,23.8158,Pumice_rect,0,0,0,0,1,
6437848cce0b587f816052e9,TCR,2024-06-25_12h43.06.387,LearnStrategy,2023.2.3,Win32,60.24096386,3,2,2,,,,,,,,6,15,,,,,,,,,,,6,4.449,1,,,,,,-0.125,-0.401041667,1,0,0,4.4487,Pegmatite_rect,1,0,1,0,1,
6437848cce0b587f816052e9,TCR,2024-06-25_12h43.06.387,LearnStrategy,2023.2.3,Win32,60.24096386,3,2,3,,,,,,,,8,16,,,,,,,,,,,8,2.147,1,,,,,,0.388020833,-0.389322917,1,0,0,2.1473,Pumice_rect,2,0,2,0,1,
6437848cce0b587f816052e9,TCR,2024-06-25_12h43.06.387,LearnStrategy,2023.2.3,Win32,60.24096386,3,2,4,,,,,,,,1,05,,,,,,,,,,,7,7.324,0,,,,,,0.154947917,-0.403645833,1,0,0,7.3244,Peridotite_rect,3,0,3,0,1,
6437848cce0b587f816052e9,TCR,2024-06-25_12h43.06.387,LearnStrategy,2023.2.3,Win32,60.24096386,3,2,5,,,,,,,,3,13,,,,,,,,,,,3,11.741,1,,,,,,0.1328125,-0.2421875,1,0,0,11.7414,Diorite_rect,4,0,4,0,1,
6437848cce0b587f816052e9,TCR,2024-06-25_12h43.06.387,LearnStrategy,2023.2.3,Win32,60.24096386,3,2,6,,,,,,,,5,05,,,,,,,,,,,5,1.678,1,,,,,,-0.360677083,-0.390625,1,0,0,1.6784,Obsidian_rect,5,0,5,0,1,
6437848cce0b587f816052e9,TCR,2024-06-25_12h43.06.387,LearnStrategy,2023.2.3,Win32,60.24096386,3,2,7,,,,,,,,7,15,,,,,,,,,,,3,1.451,0,,,,,,0.13671875,-0.25390625,1,0,0,1.451,Diorite_rect,6,0,6,0,1,
6437848cce0b587f816052e9,TCR,2024-06-25_12h43.06.387,LearnStrategy,2023.2.3,Win32,60.24096386,3,2,8,,,,,,,,2,08,,,,,,,,,,,2,4.106,1,,,,,,-0.07421875,-0.236979167,1,0,0,4.1055,Basalt_rect,7,0,7,0,1,
6437848cce0b587f816052e9,TCR,2024-06-25_12h43.06.387,LearnStrategy,2023.2.3,Win32,60.24096386,3,2,9,,,,,,,,5,06,,,,,,,,,,,5,1.481,1,,,,,,-0.321614583,-0.380208333,1,0,0,1.4806,Obsidian_rect,8,0,8,0,1,
6437848cce0b587f816052e9,TCR,2024-06-25_12h43.06.387,LearnStrategy,2023.2.3,Win32,60.24096386,3,2,10,,,,,,,,7,10,,,,,,,,,,,3,5.051,0,,,,,,0.162760417,-0.239583333,1,0,0,5.0506,Diorite_rect,9,0,9,0,1,
6437848cce0b587f816052e9,TCR,2024-06-25_12h43.06.387,LearnStrategy,2023.2.3,Win32,60.24096386,3,2,11,,,,,,,,2,02,,,,,,,,,,,2,7.104,1,,,,,,-0.084635417,-0.252604167,1,0,0,7.1038,Basalt_rect,10,0,10,0,1,
6437848cce0b587f816052e9,TCR,2024-06-25_12h43.06.387,LearnStrategy,2023.2.3,Win32,60.24096386,3,2,12,,,,,,,,3,14,,,,,,,,,,,3,10.129,1,,,,,,0.184895833,-0.2421875,1,0,0,10.1292,Diorite_rect,11,0,11,0,1,
6437848cce0b587f816052e9,TCR,2024-06-25_12h43.06.387,LearnStrategy,2023.2.3,Win32,60.24096386,3,2,13,,,,,,,,1,16,,,,,,,,,,,4,1.462,0,,,,,,0.338541667,-0.2421875,1,0,0,1.4623,Gabbro_rect,12,0,12,0,1,
6437848cce0b587f816052e9,TCR,2024-06-25_12h43.06.387,LearnStrategy,2023.2.3,Win32,60.24096386,3,2,14,,,,,,,,6,12,,,,,,,,,,,6,1.726,1,,,,,,-0.13671875,-0.393229167,1,0,0,1.7261,Pegmatite_rect,13,0,13,0,1,
6437848cce0b587f816052e9,TCR,2024-06-25_12h43.06.387,LearnStrategy,2023.2.3,Win32,60.24096386,3,2,15,,,,,,,,4,09,,,,,,,,,,,2,2.268,0,,,,,,-0.17578125,-0.243489583,1,0,0,2.2678,Basalt_rect,14,0,14,0,1,
6437848cce0b587f816052e9,TCR,2024-06-25_12h43.06.387,LearnStrategy,2023.2.3,Win32,60.24096386,3,2,16,,,,,,,,4,05,,,,,,,,,,,1,2.139,0,,,,,,-0.334635417,-0.243489583,1,0,0,2.1391,Andesite_rect,15,0,15,0,1,
6437848cce0b587f816052e9,TCR,2024-06-25_12h43.06.387,LearnStrategy,2023.2.3,Win32,60.24096386,4,1,1,0.052083333,0.01171875,1,0,0,2.0436,rock_grid_rect_2,7,07,-1,-1,2.044,0.18359375,-0.233072917,1,0,0,1.874,Diorite_rect,3,1.874,0,0,0,0,0,1,,,,,,,,,,,,,
6437848cce0b587f816052e9,TCR,2024-06-25_12h43.06.387,LearnStrategy,2023.2.3,Win32,60.24096386,4,1,2,0.041666667,-0.01171875,1,0,0,1.8789,rock_grid_rect_2,2,10,-1,-1,1.879,-0.1328125,-0.236979167,1,0,0,1.6656,Basalt_rect,2,1.666,1,1,0,1,0,1,,,,,,,,,,,,,
6437848cce0b587f816052e9,TCR,2024-06-25_12h43.06.387,LearnStrategy,2023.2.3,Win32,60.24096386,4,1,3,0.013020833,-0.016927083,1,0,0,1.463,rock_grid_rect_2,1,03,-1,-1,1.463,0.1640625,-0.235677083,1,0,0,4.1476,Diorite_rect,3,4.148,0,2,0,2,0,1,,,,,,,,,,,,,
6437848cce0b587f816052e9,TCR,2024-06-25_12h43.06.387,LearnStrategy,2023.2.3,Win32,60.24096386,4,1,4,0.04296875,0,1,0,0,1.1419,rock_grid_rect_2,3,09,-1,-1,1.142,0.180989583,-0.236979167,1,0,0,1.5445,Diorite_rect,3,1.544,1,3,0,3,0,1,,,,,,,,,,,,,
6437848cce0b587f816052e9,TCR,2024-06-25_12h43.06.387,LearnStrategy,2023.2.3,Win32,60.24096386,4,1,5,0.037760417,-0.00390625,1,0,0,2.1788,rock_grid_rect_2,4,08,-1,-1,2.179,-0.36328125,-0.23046875,1,0,0,2.626,Andesite_rect,1,2.626,0,4,0,4,0,1,,,,,,,,,,,,,
6437848cce0b587f816052e9,TCR,2024-06-25_12h43.06.387,LearnStrategy,2023.2.3,Win32,60.24096386,4,1,6,0.067708333,-0.00390625,1,0,0,1.3115,rock_grid_rect_2,7,14,-1,-1,1.312,0.377604167,-0.229166667,1,0,0,2.017,Gabbro_rect,4,2.017,0,5,0,5,0,1,,,,,,,,,,,,,
6437848cce0b587f816052e9,TCR,2024-06-25_12h43.06.387,LearnStrategy,2023.2.3,Win32,60.24096386,4,1,7,0.06640625,0.018229167,1,0,0,1.1119,rock_grid_rect_2,1,01,-1,-1,1.112,-0.350260417,-0.2578125,1,0,0,7.0171,Andesite_rect,1,7.017,1,6,0,6,0,1,,,,,,,,,,,,,
6437848cce0b587f816052e9,TCR,2024-06-25_12h43.06.387,LearnStrategy,2023.2.3,Win32,60.24096386,4,1,8,0.0234375,-0.016927083,1,0,0,1.4917,rock_grid_rect_2,3,10,-1,-1,1.492,0.401041667,-0.266927083,1,0,0,2.1207,Gabbro_rect,4,2.121,0,7,0,7,0,1,,,,,,,,,,,,,
6437848cce0b587f816052e9,TCR,2024-06-25_12h43.06.387,LearnStrategy,2023.2.3,Win32,60.24096386,4,1,9,0.0546875,-0.0078125,1,0,0,1.6622,rock_grid_rect_2,1,09,-1,-1,1.662,0.151041667,-0.23046875,1,0,0,1.357,Diorite_rect,3,1.357,0,8,0,8,0,1,,,,,,,,,,,,,
6437848cce0b587f816052e9,TCR,2024-06-25_12h43.06.387,LearnStrategy,2023.2.3,Win32,60.24096386,4,1,10,0.010416667,0.001302083,1,0,0,1.8122,rock_grid_rect_2,6,09,-1,-1,1.812,-0.139322917,-0.397135417,1,0,0,1.4628,Pegmatite_rect,6,1.463,1,9,0,9,0,1,,,,,,,,,,,,,
6437848cce0b587f816052e9,TCR,2024-06-25_12h43.06.387,LearnStrategy,2023.2.3,Win32,60.24096386,4,1,11,0.016927083,-0.024739583,1,0,0,1.7124,rock_grid_rect_2,4,08,-1,-1,1.712,0.0859375,-0.25,1,0,0,17.9583,Diorite_rect,3,17.958,0,10,0,10,0,1,,,,,,,,,,,,,
6437848cce0b587f816052e9,TCR,2024-06-25_12h43.06.387,LearnStrategy,2023.2.3,Win32,60.24096386,4,1,12,0.053385417,-0.013020833,1,0,0,1.4119,rock_grid_rect_2,4,01,-1,-1,1.412,0.3671875,-0.25390625,1,0,0,3.2361,Gabbro_rect,4,3.236,1,11,0,11,0,1,,,,,,,,,,,,,
6437848cce0b587f816052e9,TCR,2024-06-25_12h43.06.387,LearnStrategy,2023.2.3,Win32,60.24096386,4,1,13,0.03125,-0.014322917,1,0,0,1.3787,rock_grid_rect_2,7,12,-1,-1,1.379,0.1640625,-0.236979167,1,0,0,1.7218,Diorite_rect,3,1.722,0,12,0,12,0,1,,,,,,,,,,,,,
6437848cce0b587f816052e9,TCR,2024-06-25_12h43.06.387,LearnStrategy,2023.2.3,Win32,60.24096386,4,1,14,0.044270833,0.0078125,1,0,0,1.0467,rock_grid_rect_2,7,05,-1,-1,1.047,0.141927083,-0.393229167,1,0,0,1.6235,Peridotite_rect,7,1.624,1,13,0,13,0,1,,,,,,,,,,,,,
6437848cce0b587f816052e9,TCR,2024-06-25_12h43.06.387,LearnStrategy,2023.2.3,Win32,60.24096386,4,1,15,0.0546875,-0.00390625,1,0,0,1.1299,rock_grid_rect_2,1,07,-1,-1,1.13,0.165364583,-0.25390625,1,0,0,2.4738,Diorite_rect,3,2.474,0,14,0,14,0,1,,,,,,,,,,,,,
6437848cce0b587f816052e9,TCR,2024-06-25_12h43.06.387,LearnStrategy,2023.2.3,Win32,60.24096386,4,1,16,-0.03515625,-0.009114583,1,0,0,1.2951,rock_grid_rect_2,4,12,-1,-1,1.295,-0.11328125,-0.24609375,1,0,0,1.3234,Basalt_rect,2,1.323,0,15,0,15,0,1,,,,,,,,,,,,,
6437848cce0b587f816052e9,TCR,2024-06-25_12h43.06.387,LearnStrategy,2023.2.3,Win32,60.24096386,4,2,1,,,,,,,,7,13,,,,,,,,,,,6,13.056,0,,,,,,-0.106770833,-0.41796875,1,0,0,13.0558,Pegmatite_rect,0,0,0,0,1,
6437848cce0b587f816052e9,TCR,2024-06-25_12h43.06.387,LearnStrategy,2023.2.3,Win32,60.24096386,4,2,2,,,,,,,,2,02,,,,,,,,,,,2,1.444,1,,,,,,-0.08984375,-0.247395833,1,0,0,1.4441,Basalt_rect,1,0,1,0,1,
6437848cce0b587f816052e9,TCR,2024-06-25_12h43.06.387,LearnStrategy,2023.2.3,Win32,60.24096386,4,2,3,,,,,,,,2,04,,,,,,,,,,,2,1.515,1,,,,,,-0.162760417,-0.24609375,1,0,0,1.5151,Basalt_rect,2,0,2,0,1,
6437848cce0b587f816052e9,TCR,2024-06-25_12h43.06.387,LearnStrategy,2023.2.3,Win32,60.24096386,4,2,4,,,,,,,,3,07,,,,,,,,,,,7,3.436,0,,,,,,0.12890625,-0.415364583,1,0,0,3.436,Peridotite_rect,3,0,3,0,1,
6437848cce0b587f816052e9,TCR,2024-06-25_12h43.06.387,LearnStrategy,2023.2.3,Win32,60.24096386,4,2,5,,,,,,,,5,07,,,,,,,,,,,5,1.727,1,,,,,,-0.334635417,-0.404947917,1,0,0,1.7272,Obsidian_rect,4,0,4,0,1,
6437848cce0b587f816052e9,TCR,2024-06-25_12h43.06.387,LearnStrategy,2023.2.3,Win32,60.24096386,4,2,6,,,,,,,,3,15,,,,,,,,,,,7,3.476,0,,,,,,0.14453125,-0.391927083,1,0,0,3.4759,Peridotite_rect,5,0,5,0,1,
6437848cce0b587f816052e9,TCR,2024-06-25_12h43.06.387,LearnStrategy,2023.2.3,Win32,60.24096386,4,2,7,,,,,,,,6,05,,,,,,,,,,,6,1.515,1,,,,,,-0.122395833,-0.3984375,1,0,0,1.515,Pegmatite_rect,6,0,6,0,1,
6437848cce0b587f816052e9,TCR,2024-06-25_12h43.06.387,LearnStrategy,2023.2.3,Win32,60.24096386,4,2,8,,,,,,,,1,10,,,,,,,,,,,4,2.15,0,,,,,,0.290364583,-0.264322917,1,0,0,2.1505,Gabbro_rect,7,0,7,0,1,
6437848cce0b587f816052e9,TCR,2024-06-25_12h43.06.387,LearnStrategy,2023.2.3,Win32,60.24096386,4,2,9,,,,,,,,4,03,,,,,,,,,,,4,3.68,1,,,,,,0.313802083,-0.234375,1,0,0,3.6802,Gabbro_rect,8,0,8,0,1,
6437848cce0b587f816052e9,TCR,2024-06-25_12h43.06.387,LearnStrategy,2023.2.3,Win32,60.24096386,4,2,10,,,,,,,,8,16,,,,,,,,,,,8,2.92,1,,,,,,0.3515625,-0.390625,1,0,0,2.9197,Pumice_rect,9,0,9,0,1,
6437848cce0b587f816052e9,TCR,2024-06-25_12h43.06.387,LearnStrategy,2023.2.3,Win32,60.24096386,4,2,11,,,,,,,,8,02,,,,,,,,,,,8,1.34,1,,,,,,0.364583333,-0.397135417,1,0,0,1.34,Pumice_rect,10,0,10,0,1,
6437848cce0b587f816052e9,TCR,2024-06-25_12h43.06.387,LearnStrategy,2023.2.3,Win32,60.24096386,4,2,12,,,,,,,,5,11,,,,,,,,,,,5,1.315,1,,,,,,-0.372395833,-0.408854167,1,0,0,1.3151,Obsidian_rect,11,0,11,0,1,
6437848cce0b587f816052e9,TCR,2024-06-25_12h43.06.387,LearnStrategy,2023.2.3,Win32,60.24096386,4,2,13,,,,,,,,1,06,,,,,,,,,,,3,1.716,0,,,,,,0.190104167,-0.240885417,1,0,0,1.7155,Diorite_rect,12,0,12,0,1,
6437848cce0b587f816052e9,TCR,2024-06-25_12h43.06.387,LearnStrategy,2023.2.3,Win32,60.24096386,4,2,14,,,,,,,,4,16,,,,,,,,,,,2,2.283,0,,,,,,-0.053385417,-0.23046875,1,0,0,2.2825,Basalt_rect,13,0,13,0,1,
6437848cce0b587f816052e9,TCR,2024-06-25_12h43.06.387,LearnStrategy,2023.2.3,Win32,60.24096386,4,2,15,,,,,,,,7,08,,,,,,,,,,,7,3.899,1,,,,,,0.13671875,-0.38671875,1,0,0,3.8994,Peridotite_rect,14,0,14,0,1,
6437848cce0b587f816052e9,TCR,2024-06-25_12h43.06.387,LearnStrategy,2023.2.3,Win32,60.24096386,4,2,16,,,,,,,,6,07,,,,,,,,,,,6,1.786,1,,,,,,-0.12109375,-0.3828125,1,0,0,1.7857,Pegmatite_rect,15,0,15,0,1,
6437848cce0b587f816052e9,TCR,2024-06-25_12h43.06.387,LearnStrategy,2023.2.3,Win32,60.24096386,5,1,1,0.029947917,-0.014322917,1,0,0,1.4943,rock_grid_rect_2,1,14,-1,-1,1.494,0.341145833,-0.2421875,1,0,0,2.8627,Gabbro_rect,4,2.863,0,0,0,0,0,1,,,,,,,,,,,,,
6437848cce0b587f816052e9,TCR,2024-06-25_12h43.06.387,LearnStrategy,2023.2.3,Win32,60.24096386,5,1,2,-0.024739583,0.014322917,1,0,0,1.1281,rock_grid_rect_2,1,11,-1,-1,1.128,-0.450520833,-0.24609375,1,0,0,198.1753,Andesite_rect,1,198.175,1,1,0,1,0,1,,,,,,,,,,,,,
6437848cce0b587f816052e9,TCR,2024-06-25_12h43.06.387,LearnStrategy,2023.2.3,Win32,60.24096386,5,1,3,0.02734375,0,1,0,0,2.4433,rock_grid_rect_2,4,11,-1,-1,2.443,0.095052083,-0.264322917,1,0,0,2.6887,Diorite_rect,3,2.689,0,2,0,2,0,1,,,,,,,,,,,,,
6437848cce0b587f816052e9,TCR,2024-06-25_12h43.06.387,LearnStrategy,2023.2.3,Win32,60.24096386,5,1,4,0.09375,0.005208333,1,0,0,1.3116,rock_grid_rect_2,3,09,-1,-1,1.312,0.111979167,-0.41796875,1,0,0,2.4456,Peridotite_rect,7,2.446,0,3,0,3,0,1,,,,,,,,,,,,,
6437848cce0b587f816052e9,TCR,2024-06-25_12h43.06.387,LearnStrategy,2023.2.3,Win32,60.24096386,5,1,5,0.061197917,0.0078125,1,0,0,1.2612,rock_grid_rect_2,6,06,-1,-1,1.261,-0.171875,-0.40234375,1,0,0,1.7223,Pegmatite_rect,6,1.722,1,4,0,4,0,1,,,,,,,,,,,,,
6437848cce0b587f816052e9,TCR,2024-06-25_12h43.06.387,LearnStrategy,2023.2.3,Win32,60.24096386,5,1,6,-0.020833333,0.006510417,1,0,0,1.2463,rock_grid_rect_2,7,06,-1,-1,1.246,-0.122395833,-0.41796875,1,0,0,2.968,Pegmatite_rect,6,2.968,0,5,0,5,0,1,,,,,,,,,,,,,
6437848cce0b587f816052e9,TCR,2024-06-25_12h43.06.387,LearnStrategy,2023.2.3,Win32,60.24096386,5,1,7,0.018229167,-0.010416667,1,0,0,1.0121,rock_grid_rect_2,7,16,-1,-1,1.012,-0.334635417,-0.256510417,1,0,0,4.4348,Andesite_rect,1,4.435,0,6,0,6,0,1,,,,,,,,,,,,,
6437848cce0b587f816052e9,TCR,2024-06-25_12h43.06.387,LearnStrategy,2023.2.3,Win32,60.24096386,5,1,8,0.01171875,-0.01171875,1,0,0,1.2285,rock_grid_rect_2,1,14,-1,-1,1.228,-0.434895833,-0.259114583,1,0,0,2.6033,Andesite_rect,1,2.603,1,7,0,7,0,1,,,,,,,,,,,,,
6437848cce0b587f816052e9,TCR,2024-06-25_12h43.06.387,LearnStrategy,2023.2.3,Win32,60.24096386,5,1,9,0.01953125,-0.013020833,1,0,0,1.2955,rock_grid_rect_2,3,11,-1,-1,1.295,0.1875,-0.231770833,1,0,0,5.031,Diorite_rect,3,5.031,1,8,0,8,0,1,,,,,,,,,,,,,
6437848cce0b587f816052e9,TCR,2024-06-25_12h43.06.387,LearnStrategy,2023.2.3,Win32,60.24096386,5,1,10,-0.091145833,-0.01953125,1,0,0,5.5218,rock_grid_rect_2,2,16,-1,-1,5.522,-0.122395833,-0.26171875,1,0,0,2.0825,Basalt_rect,2,2.082,1,9,0,9,0,1,,,,,,,,,,,,,
6437848cce0b587f816052e9,TCR,2024-06-25_12h43.06.387,LearnStrategy,2023.2.3,Win32,60.24096386,5,1,11,-0.029947917,-0.01171875,1,0,0,1.3962,rock_grid_rect_2,1,01,-1,-1,1.396,0.348958333,-0.234375,1,0,0,4.0701,Gabbro_rect,4,4.07,0,10,0,10,0,1,,,,,,,,,,,,,
6437848cce0b587f816052e9,TCR,2024-06-25_12h43.06.387,LearnStrategy,2023.2.3,Win32,60.24096386,5,1,12,0.02734375,0.001302083,1,0,0,1.1456,rock_grid_rect_2,7,06,-1,-1,1.146,0.126302083,-0.404947917,1,0,0,4.6474,Peridotite_rect,7,4.647,1,11,0,11,0,1,,,,,,,,,,,,,
6437848cce0b587f816052e9,TCR,2024-06-25_12h43.06.387,LearnStrategy,2023.2.3,Win32,60.24096386,5,1,13,-0.049479167,-0.015625,1,0,0,1.7409,rock_grid_rect_2,7,14,-1,-1,1.741,0.361979167,-0.235677083,1,0,0,3.0371,Gabbro_rect,4,3.037,0,12,0,12,0,1,,,,,,,,,,,,,
6437848cce0b587f816052e9,TCR,2024-06-25_12h43.06.387,LearnStrategy,2023.2.3,Win32,60.24096386,5,1,14,0.028645833,0.001302083,1,0,0,1.2121,rock_grid_rect_2,3,10,-1,-1,1.212,0.1953125,-0.263020833,1,0,0,1.1263,Diorite_rect,3,1.126,1,13,0,13,0,1,,,,,,,,,,,,,
6437848cce0b587f816052e9,TCR,2024-06-25_12h43.06.387,LearnStrategy,2023.2.3,Win32,60.24096386,5,1,15,-0.0078125,0.00390625,1,0,0,1.0463,rock_grid_rect_2,4,12,-1,-1,1.046,-0.026041667,-0.266927083,1,0,0,1.5849,Basalt_rect,2,1.585,0,14,0,14,0,1,,,,,,,,,,,,,
6437848cce0b587f816052e9,TCR,2024-06-25_12h43.06.387,LearnStrategy,2023.2.3,Win32,60.24096386,5,1,16,0.018229167,0.002604167,1,0,0,1.0301,rock_grid_rect_2,4,15,-1,-1,1.03,0.391927083,-0.252604167,1,0,0,2.0743,Gabbro_rect,4,2.074,1,15,0,15,0,1,,,,,,,,,,,,,
6437848cce0b587f816052e9,TCR,2024-06-25_12h43.06.387,LearnStrategy,2023.2.3,Win32,60.24096386,5,2,1,,,,,,,,7,10,,,,,,,,,,,7,14.01,1,,,,,,0.153645833,-0.408854167,1,0,0,14.0095,Peridotite_rect,0,0,0,0,1,
6437848cce0b587f816052e9,TCR,2024-06-25_12h43.06.387,LearnStrategy,2023.2.3,Win32,60.24096386,5,2,2,,,,,,,,3,16,,,,,,,,,,,1,2.539,0,,,,,,-0.419270833,-0.23828125,1,0,0,2.5394,Andesite_rect,1,0,1,0,1,
6437848cce0b587f816052e9,TCR,2024-06-25_12h43.06.387,LearnStrategy,2023.2.3,Win32,60.24096386,5,2,3,,,,,,,,6,12,,,,,,,,,,,7,2.002,0,,,,,,0.1015625,-0.401041667,1,0,0,2.0015,Peridotite_rect,2,0,2,0,1,
6437848cce0b587f816052e9,TCR,2024-06-25_12h43.06.387,LearnStrategy,2023.2.3,Win32,60.24096386,5,2,4,,,,,,,,5,08,,,,,,,,,,,5,1.291,1,,,,,,-0.436197917,-0.3828125,1,0,0,1.2914,Obsidian_rect,3,0,3,0,1,
6437848cce0b587f816052e9,TCR,2024-06-25_12h43.06.387,LearnStrategy,2023.2.3,Win32,60.24096386,5,2,5,,,,,,,,2,12,,,,,,,,,,,2,1.65,1,,,,,,-0.0390625,-0.239583333,1,0,0,1.6504,Basalt_rect,4,0,4,0,1,
6437848cce0b587f816052e9,TCR,2024-06-25_12h43.06.387,LearnStrategy,2023.2.3,Win32,60.24096386,5,2,6,,,,,,,,4,14,,,,,,,,,,,2,4.439,0,,,,,,-0.069010417,-0.256510417,1,0,0,4.4387,Basalt_rect,5,0,5,0,1,
6437848cce0b587f816052e9,TCR,2024-06-25_12h43.06.387,LearnStrategy,2023.2.3,Win32,60.24096386,5,2,7,,,,,,,,6,15,,,,,,,,,,,6,1.392,1,,,,,,-0.125,-0.408854167,1,0,0,1.3919,Pegmatite_rect,6,0,6,0,1,
6437848cce0b587f816052e9,TCR,2024-06-25_12h43.06.387,LearnStrategy,2023.2.3,Win32,60.24096386,5,2,8,,,,,,,,7,02,,,,,,,,,,,7,2.828,1,,,,,,0.170572917,-0.416666667,1,0,0,2.8281,Peridotite_rect,7,0,7,0,1,
6437848cce0b587f816052e9,TCR,2024-06-25_12h43.06.387,LearnStrategy,2023.2.3,Win32,60.24096386,5,2,9,,,,,,,,5,16,,,,,,,,,,,5,1.277,1,,,,,,-0.348958333,-0.40625,1,0,0,1.277,Obsidian_rect,8,0,8,0,1,
6437848cce0b587f816052e9,TCR,2024-06-25_12h43.06.387,LearnStrategy,2023.2.3,Win32,60.24096386,5,2,10,,,,,,,,8,06,,,,,,,,,,,8,1.669,1,,,,,,0.368489583,-0.389322917,1,0,0,1.6687,Pumice_rect,9,0,9,0,1,
6437848cce0b587f816052e9,TCR,2024-06-25_12h43.06.387,LearnStrategy,2023.2.3,Win32,60.24096386,5,2,11,,,,,,,,1,16,,,,,,,,,,,3,2.873,0,,,,,,0.182291667,-0.255208333,1,0,0,2.8733,Diorite_rect,10,0,10,0,1,
6437848cce0b587f816052e9,TCR,2024-06-25_12h43.06.387,LearnStrategy,2023.2.3,Win32,60.24096386,5,2,12,,,,,,,,8,08,,,,,,,,,,,8,1.285,1,,,,,,0.385416667,-0.401041667,1,0,0,1.2848,Pumice_rect,11,0,11,0,1,
6437848cce0b587f816052e9,TCR,2024-06-25_12h43.06.387,LearnStrategy,2023.2.3,Win32,60.24096386,5,2,13,,,,,,,,3,13,,,,,,,,,,,7,2.373,0,,,,,,0.123697917,-0.421875,1,0,0,2.3727,Peridotite_rect,12,0,12,0,1,
6437848cce0b587f816052e9,TCR,2024-06-25_12h43.06.387,LearnStrategy,2023.2.3,Win32,60.24096386,5,2,14,,,,,,,,1,05,,,,,,,,,,,4,2.278,0,,,,,,0.342447917,-0.244791667,1,0,0,2.2777,Gabbro_rect,13,0,13,0,1,
6437848cce0b587f816052e9,TCR,2024-06-25_12h43.06.387,LearnStrategy,2023.2.3,Win32,60.24096386,5,2,15,,,,,,,,4,05,,,,,,,,,,,1,1.106,0,,,,,,-0.36328125,-0.2578125,1,0,0,1.1059,Andesite_rect,14,0,14,0,1,
6437848cce0b587f816052e9,TCR,2024-06-25_12h43.06.387,LearnStrategy,2023.2.3,Win32,60.24096386,5,2,16,,,,,,,,2,08,,,,,,,,,,,2,2.402,1,,,,,,-0.115885417,-0.248697917,1,0,0,2.4019,Basalt_rect,15,0,15,0,1,
6437848cce0b587f816052e9,TCR,2024-06-25_12h43.06.387,LearnStrategy,2023.2.3,Win32,60.24096386,6,1,1,0.079427083,0.00390625,1,0,0,1.0801,rock_grid_rect_2,2,01,-1,-1,1.08,-0.1171875,-0.23828125,1,0,0,1.4539,Basalt_rect,2,1.454,1,0,0,0,0,1,,,,,,,,,,,,,
6437848cce0b587f816052e9,TCR,2024-06-25_12h43.06.387,LearnStrategy,2023.2.3,Win32,60.24096386,6,1,2,-0.00390625,0.016927083,1,0,0,1.1798,rock_grid_rect_2,4,11,-1,-1,1.18,0.11328125,-0.235677083,1,0,0,1.5586,Diorite_rect,3,1.559,0,1,0,1,0,1,,,,,,,,,,,,,
6437848cce0b587f816052e9,TCR,2024-06-25_12h43.06.387,LearnStrategy,2023.2.3,Win32,60.24096386,6,1,3,0.114583333,0.00390625,1,0,0,0.9965,rock_grid_rect_2,3,09,-1,-1,0.996,0.1796875,-0.3828125,1,0,0,1.8715,Peridotite_rect,7,1.871,0,2,0,2,0,1,,,,,,,,,,,,,
6437848cce0b587f816052e9,TCR,2024-06-25_12h43.06.387,LearnStrategy,2023.2.3,Win32,60.24096386,6,1,4,0.100260417,0.002604167,1,0,0,0.9965,rock_grid_rect_2,3,10,-1,-1,0.996,0.127604167,-0.239583333,1,0,0,1.497,Diorite_rect,3,1.497,1,3,0,3,0,1,,,,,,,,,,,,,
6437848cce0b587f816052e9,TCR,2024-06-25_12h43.06.387,LearnStrategy,2023.2.3,Win32,60.24096386,6,1,5,0.0625,0.0078125,1,0,0,1.2461,rock_grid_rect_2,1,09,-1,-1,1.246,0.10546875,-0.391927083,1,0,0,2.697,Peridotite_rect,7,2.697,0,4,0,4,0,1,,,,,,,,,,,,,
6437848cce0b587f816052e9,TCR,2024-06-25_12h43.06.387,LearnStrategy,2023.2.3,Win32,60.24096386,6,1,6,-0.083333333,0.0078125,1,0,0,1.1132,rock_grid_rect_2,7,12,-1,-1,1.113,0.11328125,-0.421875,1,0,0,1.5643,Peridotite_rect,7,1.564,1,5,0,5,0,1,,,,,,,,,,,,,
6437848cce0b587f816052e9,TCR,2024-06-25_12h43.06.387,LearnStrategy,2023.2.3,Win32,60.24096386,6,1,7,0.009114583,0.022135417,1,0,0,0.9964,rock_grid_rect_2,1,14,-1,-1,0.996,0.123697917,-0.41796875,1,0,0,3.6055,Peridotite_rect,7,3.605,0,6,0,6,0,1,,,,,,,,,,,,,
6437848cce0b587f816052e9,TCR,2024-06-25_12h43.06.387,LearnStrategy,2023.2.3,Win32,60.24096386,6,1,8,0.044270833,-0.001302083,1,0,0,1.0128,rock_grid_rect_2,4,11,-1,-1,1.013,-0.12109375,-0.2578125,1,0,0,1.3487,Basalt_rect,2,1.349,0,7,0,7,0,1,,,,,,,,,,,,,
6437848cce0b587f816052e9,TCR,2024-06-25_12h43.06.387,LearnStrategy,2023.2.3,Win32,60.24096386,6,1,9,0.095052083,0.005208333,1,0,0,1.0282,rock_grid_rect_2,3,06,-1,-1,1.028,0.130208333,-0.393229167,1,0,0,4.0254,Peridotite_rect,7,4.025,0,8,0,8,0,1,,,,,,,,,,,,,
6437848cce0b587f816052e9,TCR,2024-06-25_12h43.06.387,LearnStrategy,2023.2.3,Win32,60.24096386,6,1,10,0.037760417,0.016927083,1,0,0,1.0122,rock_grid_rect_2,6,08,-1,-1,1.012,-0.119791667,-0.403645833,1,0,0,1.7123,Pegmatite_rect,6,1.712,1,9,0,9,0,1,,,,,,,,,,,,,
6437848cce0b587f816052e9,TCR,2024-06-25_12h43.06.387,LearnStrategy,2023.2.3,Win32,60.24096386,6,1,11,-0.065104167,0.002604167,1,0,0,0.9943,rock_grid_rect_2,4,01,-1,-1,0.994,0.080729167,-0.234375,1,0,0,2.3161,Diorite_rect,3,2.316,0,10,0,10,0,1,,,,,,,,,,,,,
6437848cce0b587f816052e9,TCR,2024-06-25_12h43.06.387,LearnStrategy,2023.2.3,Win32,60.24096386,6,1,12,0.078125,0.00390625,1,0,0,2.8095,rock_grid_rect_2,1,01,-1,-1,2.81,-0.130208333,-0.248697917,1,0,0,1.7459,Basalt_rect,2,1.746,0,11,0,11,0,1,,,,,,,,,,,,,
6437848cce0b587f816052e9,TCR,2024-06-25_12h43.06.387,LearnStrategy,2023.2.3,Win32,60.24096386,6,1,13,0.0234375,-0.016927083,1,0,0,1.2964,rock_grid_rect_2,4,15,-1,-1,1.296,0.11328125,-0.234375,1,0,0,2.596,Diorite_rect,3,2.596,0,12,0,12,0,1,,,,,,,,,,,,,
6437848cce0b587f816052e9,TCR,2024-06-25_12h43.06.387,LearnStrategy,2023.2.3,Win32,60.24096386,6,1,14,0.069010417,-0.002604167,1,0,0,0.9458,rock_grid_rect_2,7,12,-1,-1,0.946,0.125,-0.401041667,1,0,0,1.1379,Peridotite_rect,7,1.138,1,13,0,13,0,1,,,,,,,,,,,,,
6437848cce0b587f816052e9,TCR,2024-06-25_12h43.06.387,LearnStrategy,2023.2.3,Win32,60.24096386,6,1,15,0.045572917,-0.001302083,1,0,0,1.5125,rock_grid_rect_2,1,03,-1,-1,1.513,0.352864583,-0.236979167,1,0,0,3.4639,Gabbro_rect,4,3.464,0,14,0,14,0,1,,,,,,,,,,,,,
6437848cce0b587f816052e9,TCR,2024-06-25_12h43.06.387,LearnStrategy,2023.2.3,Win32,60.24096386,6,1,16,-0.020833333,-0.0078125,1,0,0,0.8763,rock_grid_rect_2,8,15,-1,-1,0.876,0.438802083,-0.416666667,1,0,0,1.3921,Pumice_rect,8,1.392,1,15,0,15,0,1,,,,,,,,,,,,,
6437848cce0b587f816052e9,TCR,2024-06-25_12h43.06.387,LearnStrategy,2023.2.3,Win32,60.24096386,6,2,1,,,,,,,,3,14,,,,,,,,,,,1,3.352,0,,,,,,-0.346354167,-0.231770833,1,0,0,3.3524,Andesite_rect,0,0,0,0,1,
6437848cce0b587f816052e9,TCR,2024-06-25_12h43.06.387,LearnStrategy,2023.2.3,Win32,60.24096386,6,2,2,,,,,,,,6,03,,,,,,,,,,,6,2.005,1,,,,,,-0.1953125,-0.390625,1,0,0,2.0045,Pegmatite_rect,1,0,1,0,1,
6437848cce0b587f816052e9,TCR,2024-06-25_12h43.06.387,LearnStrategy,2023.2.3,Win32,60.24096386,6,2,3,,,,,,,,1,04,,,,,,,,,,,1,3.146,1,,,,,,-0.423177083,-0.24609375,1,0,0,3.1457,Andesite_rect,2,0,2,0,1,
6437848cce0b587f816052e9,TCR,2024-06-25_12h43.06.387,LearnStrategy,2023.2.3,Win32,60.24096386,6,2,4,,,,,,,,3,08,,,,,,,,,,,7,3.491,0,,,,,,0.200520833,-0.421875,1,0,0,3.4906,Peridotite_rect,3,0,3,0,1,
6437848cce0b587f816052e9,TCR,2024-06-25_12h43.06.387,LearnStrategy,2023.2.3,Win32,60.24096386,6,2,5,,,,,,,,4,10,,,,,,,,,,,4,3.77,1,,,,,,0.397135417,-0.266927083,1,0,0,3.7704,Gabbro_rect,4,0,4,0,1,
6437848cce0b587f816052e9,TCR,2024-06-25_12h43.06.387,LearnStrategy,2023.2.3,Win32,60.24096386,6,2,6,,,,,,,,8,10,,,,,,,,,,,8,2.009,1,,,,,,0.404947917,-0.415364583,1,0,0,2.0092,Pumice_rect,5,0,5,0,1,
6437848cce0b587f816052e9,TCR,2024-06-25_12h43.06.387,LearnStrategy,2023.2.3,Win32,60.24096386,6,2,7,,,,,,,,8,05,,,,,,,,,,,8,1.503,1,,,,,,0.455729167,-0.390625,1,0,0,1.5031,Pumice_rect,6,0,6,0,1,
6437848cce0b587f816052e9,TCR,2024-06-25_12h43.06.387,LearnStrategy,2023.2.3,Win32,60.24096386,6,2,8,,,,,,,,1,02,,,,,,,,,,,7,2.335,0,,,,,,0.139322917,-0.403645833,1,0,0,2.3354,Peridotite_rect,7,0,7,0,1,
6437848cce0b587f816052e9,TCR,2024-06-25_12h43.06.387,LearnStrategy,2023.2.3,Win32,60.24096386,6,2,9,,,,,,,,2,11,,,,,,,,,,,1,3.308,0,,,,,,-0.43359375,-0.265625,1,0,0,3.3079,Andesite_rect,8,0,8,0,1,
6437848cce0b587f816052e9,TCR,2024-06-25_12h43.06.387,LearnStrategy,2023.2.3,Win32,60.24096386,6,2,10,,,,,,,,2,14,,,,,,,,,,,8,1.775,0,,,,,,0.415364583,-0.404947917,1,0,0,1.7746,Pumice_rect,9,0,9,0,1,
6437848cce0b587f816052e9,TCR,2024-06-25_12h43.06.387,LearnStrategy,2023.2.3,Win32,60.24096386,6,2,11,,,,,,,,7,04,,,,,,,,,,,6,2.629,0,,,,,,-0.153645833,-0.399739583,1,0,0,2.6291,Pegmatite_rect,10,0,10,0,1,
6437848cce0b587f816052e9,TCR,2024-06-25_12h43.06.387,LearnStrategy,2023.2.3,Win32,60.24096386,6,2,12,,,,,,,,7,15,,,,,,,,,,,7,1.768,1,,,,,,0.173177083,-0.407552083,1,0,0,1.7684,Peridotite_rect,11,0,11,0,1,
6437848cce0b587f816052e9,TCR,2024-06-25_12h43.06.387,LearnStrategy,2023.2.3,Win32,60.24096386,6,2,13,,,,,,,,4,09,,,,,,,,,,,2,1.618,0,,,,,,-0.079427083,-0.255208333,1,0,0,1.6175,Basalt_rect,12,0,12,0,1,
6437848cce0b587f816052e9,TCR,2024-06-25_12h43.06.387,LearnStrategy,2023.2.3,Win32,60.24096386,6,2,14,,,,,,,,5,05,,,,,,,,,,,5,1.694,1,,,,,,-0.399739583,-0.39453125,1,0,0,1.6942,Obsidian_rect,13,0,13,0,1,
6437848cce0b587f816052e9,TCR,2024-06-25_12h43.06.387,LearnStrategy,2023.2.3,Win32,60.24096386,6,2,15,,,,,,,,6,10,,,,,,,,,,,6,1.814,1,,,,,,-0.135416667,-0.384114583,1,0,0,1.8144,Pegmatite_rect,14,0,14,0,1,
6437848cce0b587f816052e9,TCR,2024-06-25_12h43.06.387,LearnStrategy,2023.2.3,Win32,60.24096386,6,2,16,,,,,,,,5,06,,,,,,,,,,,5,2.43,1,,,,,,-0.348958333,-0.389322917,1,0,0,2.4295,Obsidian_rect,15,0,15,0,1,
6437848cce0b587f816052e9,TCR,2024-06-25_12h43.06.387,LearnStrategy,2023.2.3,Win32,60.24096386,7,1,1,0.052083333,0.013020833,1,0,0,1.0803,rock_grid_rect_2,4,01,-1,-1,1.08,-0.376302083,-0.244791667,1,0,0,4.2557,Andesite_rect,1,4.256,0,0,0,0,0,1,,,,,,,,,,,,,
6437848cce0b587f816052e9,TCR,2024-06-25_12h43.06.387,LearnStrategy,2023.2.3,Win32,60.24096386,7,1,2,0.157552083,-0.015625,1,0,0,1.1456,rock_grid_rect_2,3,12,-1,-1,1.146,0.170572917,-0.385416667,1,0,0,1.957,Peridotite_rect,7,1.957,0,1,0,1,0,1,,,,,,,,,,,,,
6437848cce0b587f816052e9,TCR,2024-06-25_12h43.06.387,LearnStrategy,2023.2.3,Win32,60.24096386,7,1,3,0.05859375,0.014322917,1,0,0,2.6752,rock_grid_rect_2,1,07,-1,-1,2.675,0.169270833,-0.380208333,1,0,0,3.6719,Peridotite_rect,7,3.672,0,2,0,2,0,1,,,,,,,,,,,,,
6437848cce0b587f816052e9,TCR,2024-06-25_12h43.06.387,LearnStrategy,2023.2.3,Win32,60.24096386,7,1,4,0.045572917,-0.016927083,1,0,0,1.0088,rock_grid_rect_2,5,10,-1,-1,1.009,-0.37109375,-0.399739583,1,0,0,4.5116,Obsidian_rect,5,4.512,1,3,0,3,0,1,,,,,,,,,,,,,
6437848cce0b587f816052e9,TCR,2024-06-25_12h43.06.387,LearnStrategy,2023.2.3,Win32,60.24096386,7,1,5,0.0546875,0.002604167,1,0,0,1.3119,rock_grid_rect_2,1,01,-1,-1,1.312,-0.119791667,-0.24609375,1,0,0,2.197,Basalt_rect,2,2.197,0,4,0,4,0,1,,,,,,,,,,,,,
6437848cce0b587f816052e9,TCR,2024-06-25_12h43.06.387,LearnStrategy,2023.2.3,Win32,60.24096386,7,1,6,0.088541667,-0.006510417,1,0,0,1.5125,rock_grid_rect_2,3,02,-1,-1,1.512,-0.3828125,-0.248697917,1,0,0,5.2152,Andesite_rect,1,5.215,0,5,0,5,0,1,,,,,,,,,,,,,
6437848cce0b587f816052e9,TCR,2024-06-25_12h43.06.387,LearnStrategy,2023.2.3,Win32,60.24096386,7,1,7,0.069010417,0.01953125,1,0,0,0.9928,rock_grid_rect_2,7,05,-1,-1,0.993,0.0625,-0.381510417,1,0,0,1.3128,Peridotite_rect,7,1.313,1,6,0,6,0,1,,,,,,,,,,,,,
6437848cce0b587f816052e9,TCR,2024-06-25_12h43.06.387,LearnStrategy,2023.2.3,Win32,60.24096386,7,1,8,0.036458333,-0.009114583,1,0,0,1.3462,rock_grid_rect_2,4,01,-1,-1,1.346,0.10546875,-0.415364583,1,0,0,3.1487,Peridotite_rect,7,3.149,0,7,0,7,0,1,,,,,,,,,,,,,
6437848cce0b587f816052e9,TCR,2024-06-25_12h43.06.387,LearnStrategy,2023.2.3,Win32,60.24096386,7,1,9,0.09765625,0.00390625,1,0,0,0.9458,rock_grid_rect_2,2,05,-1,-1,0.946,-0.18359375,-0.229166667,1,0,0,1.1849,Basalt_rect,2,1.185,1,8,0,8,0,1,,,,,,,,,,,,,
6437848cce0b587f816052e9,TCR,2024-06-25_12h43.06.387,LearnStrategy,2023.2.3,Win32,60.24096386,7,1,10,0.01171875,-0.005208333,1,0,0,1.4629,rock_grid_rect_2,6,11,-1,-1,1.463,-0.127604167,-0.404947917,1,0,0,2.3189,Pegmatite_rect,6,2.319,1,9,0,9,0,1,,,,,,,,,,,,,
6437848cce0b587f816052e9,TCR,2024-06-25_12h43.06.387,LearnStrategy,2023.2.3,Win32,60.24096386,7,1,11,-0.005208333,-0.016927083,1,0,0,1.1454,rock_grid_rect_2,4,13,-1,-1,1.145,-0.1171875,-0.231770833,1,0,0,101.6512,Basalt_rect,2,101.651,0,10,0,10,0,1,,,,,,,,,,,,,
6437848cce0b587f816052e9,TCR,2024-06-25_12h43.06.387,LearnStrategy,2023.2.3,Win32,60.24096386,7,1,12,0.015625,-0.009114583,1,0,0,1.8943,rock_grid_rect_2,7,06,-1,-1,1.894,-0.153645833,-0.391927083,1,0,0,1.9609,Pegmatite_rect,6,1.961,0,11,0,11,0,1,,,,,,,,,,,,,
6437848cce0b587f816052e9,TCR,2024-06-25_12h43.06.387,LearnStrategy,2023.2.3,Win32,60.24096386,7,1,13,0.114583333,0.002604167,1,0,0,2.3943,rock_grid_rect_2,1,03,-1,-1,2.394,0.126302083,-0.244791667,1,0,0,17.812,Diorite_rect,3,17.812,0,12,0,12,0,1,,,,,,,,,,,,,
6437848cce0b587f816052e9,TCR,2024-06-25_12h43.06.387,LearnStrategy,2023.2.3,Win32,60.24096386,7,1,14,-0.122395833,0.01953125,1,0,0,1.2786,rock_grid_rect_2,2,16,-1,-1,1.279,-0.076822917,-0.263020833,1,0,0,1.3735,Basalt_rect,2,1.374,1,13,0,13,0,1,,,,,,,,,,,,,
6437848cce0b587f816052e9,TCR,2024-06-25_12h43.06.387,LearnStrategy,2023.2.3,Win32,60.24096386,7,1,15,-0.032552083,0.006510417,1,0,0,2.8109,rock_grid_rect_2,3,11,-1,-1,2.811,-0.345052083,-0.265625,1,0,0,6.2433,Andesite_rect,1,6.243,0,14,0,14,0,1,,,,,,,,,,,,,
6437848cce0b587f816052e9,TCR,2024-06-25_12h43.06.387,LearnStrategy,2023.2.3,Win32,60.24096386,7,1,16,0.134114583,-0.01171875,1,0,0,1.259,rock_grid_rect_2,8,09,-1,-1,1.259,0.380208333,-0.395833333,1,0,0,3.949,Pumice_rect,8,3.949,1,15,0,15,0,1,,,,,,,,,,,,,
6437848cce0b587f816052e9,TCR,2024-06-25_12h43.06.387,LearnStrategy,2023.2.3,Win32,60.24096386,7,2,1,,,,,,,,8,05,,,,,,,,,,,8,11.595,1,,,,,,0.4375,-0.39453125,1,0,0,11.5948,Pumice_rect,0,0,0,0,1,
6437848cce0b587f816052e9,TCR,2024-06-25_12h43.06.387,LearnStrategy,2023.2.3,Win32,60.24096386,7,2,2,,,,,,,,2,14,,,,,,,,,,,8,1.565,0,,,,,,0.4375,-0.39453125,1,0,0,1.565,Pumice_rect,1,0,1,0,1,
6437848cce0b587f816052e9,TCR,2024-06-25_12h43.06.387,LearnStrategy,2023.2.3,Win32,60.24096386,7,2,3,,,,,,,,3,13,,,,,,,,,,,1,9.387,0,,,,,,-0.428385417,-0.251302083,1,0,0,9.3869,Andesite_rect,2,0,2,0,1,
6437848cce0b587f816052e9,TCR,2024-06-25_12h43.06.387,LearnStrategy,2023.2.3,Win32,60.24096386,7,2,4,,,,,,,,8,02,,,,,,,,,,,8,3.771,1,,,,,,0.403645833,-0.40625,1,0,0,3.7712,Pumice_rect,3,0,3,0,1,
6437848cce0b587f816052e9,TCR,2024-06-25_12h43.06.387,LearnStrategy,2023.2.3,Win32,60.24096386,7,2,5,,,,,,,,6,15,,,,,,,,,,,6,1.427,1,,,,,,-0.109375,-0.415364583,1,0,0,1.4272,Pegmatite_rect,4,0,4,0,1,
6437848cce0b587f816052e9,TCR,2024-06-25_12h43.06.387,LearnStrategy,2023.2.3,Win32,60.24096386,7,2,6,,,,,,,,7,04,,,,,,,,,,,6,1.336,0,,,,,,-0.109375,-0.415364583,1,0,0,1.3365,Pegmatite_rect,5,0,5,0,1,
6437848cce0b587f816052e9,TCR,2024-06-25_12h43.06.387,LearnStrategy,2023.2.3,Win32,60.24096386,7,2,7,,,,,,,,5,07,,,,,,,,,,,5,1.377,1,,,,,,-0.408854167,-0.388020833,1,0,0,1.3771,Obsidian_rect,6,0,6,0,1,
6437848cce0b587f816052e9,TCR,2024-06-25_12h43.06.387,LearnStrategy,2023.2.3,Win32,60.24096386,7,2,8,,,,,,,,1,06,,,,,,,,,,,3,1.788,0,,,,,,0.10546875,-0.26171875,1,0,0,1.788,Diorite_rect,7,0,7,0,1,
6437848cce0b587f816052e9,TCR,2024-06-25_12h43.06.387,LearnStrategy,2023.2.3,Win32,60.24096386,7,2,9,,,,,,,,1,02,,,,,,,,,,,1,3.911,1,,,,,,-0.334635417,-0.24609375,1,0,0,3.9111,Andesite_rect,8,0,8,0,1,
6437848cce0b587f816052e9,TCR,2024-06-25_12h43.06.387,LearnStrategy,2023.2.3,Win32,60.24096386,7,2,10,,,,,,,,4,16,,,,,,,,,,,1,3.578,0,,,,,,-0.4296875,-0.252604167,1,0,0,3.5783,Andesite_rect,9,0,9,0,1,
6437848cce0b587f816052e9,TCR,2024-06-25_12h43.06.387,LearnStrategy,2023.2.3,Win32,60.24096386,7,2,11,,,,,,,,5,11,,,,,,,,,,,5,1.383,1,,,,,,-0.388020833,-0.41015625,1,0,0,1.3827,Obsidian_rect,10,0,10,0,1,
6437848cce0b587f816052e9,TCR,2024-06-25_12h43.06.387,LearnStrategy,2023.2.3,Win32,60.24096386,7,2,12,,,,,,,,4,03,,,,,,,,,,,3,1.717,0,,,,,,0.126302083,-0.266927083,1,0,0,1.717,Diorite_rect,11,0,11,0,1,
6437848cce0b587f816052e9,TCR,2024-06-25_12h43.06.387,LearnStrategy,2023.2.3,Win32,60.24096386,7,2,13,,,,,,,,6,03,,,,,,,,,,,6,1.838,1,,,,,,-0.088541667,-0.3984375,1,0,0,1.8376,Pegmatite_rect,12,0,12,0,1,
6437848cce0b587f816052e9,TCR,2024-06-25_12h43.06.387,LearnStrategy,2023.2.3,Win32,60.24096386,7,2,14,,,,,,,,3,14,,,,,,,,,,,7,1.902,0,,,,,,0.194010417,-0.397135417,1,0,0,1.9016,Peridotite_rect,13,0,13,0,1,
6437848cce0b587f816052e9,TCR,2024-06-25_12h43.06.387,LearnStrategy,2023.2.3,Win32,60.24096386,7,2,15,,,,,,,,7,08,,,,,,,,,,,1,2.23,0,,,,,,-0.37109375,-0.231770833,1,0,0,2.2297,Andesite_rect,14,0,14,0,1,
6437848cce0b587f816052e9,TCR,2024-06-25_12h43.06.387,LearnStrategy,2023.2.3,Win32,60.24096386,7,2,16,,,,,,,,2,12,,,,,,,,,,,8,1.447,0,,,,,,0.423177083,-0.420572917,1,0,0,1.4469,Pumice_rect,15,0,15,0,1,
6437848cce0b587f816052e9,TCR,2024-06-25_12h43.06.387,LearnStrategy,2023.2.3,Win32,60.24096386,8,1,1,0.033854167,0.009114583,1,0,0,8.7862,rock_grid_rect_2,4,01,-1,-1,8.786,0.384114583,-0.252604167,1,0,0,1.7125,Gabbro_rect,4,1.713,1,0,0,0,0,1,,,,,,,,,,,,,
6437848cce0b587f816052e9,TCR,2024-06-25_12h43.06.387,LearnStrategy,2023.2.3,Win32,60.24096386,8,1,2,-0.026041667,-0.016927083,1,0,0,9.198,rock_grid_rect_2,7,07,-1,-1,9.198,-0.33984375,-0.259114583,1,0,0,9.6436,Andesite_rect,1,9.644,0,1,0,1,0,1,,,,,,,,,,,,,
6437848cce0b587f816052e9,TCR,2024-06-25_12h43.06.387,LearnStrategy,2023.2.3,Win32,60.24096386,8,1,3,0.161458333,-0.022135417,1,0,0,1.245,rock_grid_rect_2,4,12,-1,-1,1.245,0.125,-0.235677083,1,0,0,1.5508,Diorite_rect,3,1.551,0,2,0,2,0,1,,,,,,,,,,,,,
6437848cce0b587f816052e9,TCR,2024-06-25_12h43.06.387,LearnStrategy,2023.2.3,Win32,60.24096386,8,1,4,0.102864583,0.00390625,1,0,0,1.6435,rock_grid_rect_2,8,03,-1,-1,1.644,0.373697917,-0.391927083,1,0,0,2.0093,Pumice_rect,8,2.009,1,3,0,3,0,1,,,,,,,,,,,,,
6437848cce0b587f816052e9,TCR,2024-06-25_12h43.06.387,LearnStrategy,2023.2.3,Win32,60.24096386,8,1,5,0.05078125,-0.014322917,1,0,0,1.2799,rock_grid_rect_2,7,05,-1,-1,1.28,0.135416667,-0.37890625,1,0,0,1.9459,Peridotite_rect,7,1.946,1,4,0,4,0,1,,,,,,,,,,,,,
6437848cce0b587f816052e9,TCR,2024-06-25_12h43.06.387,LearnStrategy,2023.2.3,Win32,60.24096386,8,1,6,-0.087239583,-0.014322917,1,0,0,1.7625,rock_grid_rect_2,3,10,-1,-1,1.762,0.125,-0.391927083,1,0,0,3.0308,Peridotite_rect,7,3.031,0,5,0,5,0,1,,,,,,,,,,,,,
6437848cce0b587f816052e9,TCR,2024-06-25_12h43.06.387,LearnStrategy,2023.2.3,Win32,60.24096386,8,1,7,0.009114583,0.016927083,1,0,0,1.0622,rock_grid_rect_2,2,16,-1,-1,1.062,-0.08203125,-0.243489583,1,0,0,1.2522,Basalt_rect,2,1.252,1,6,0,6,0,1,,,,,,,,,,,,,
6437848cce0b587f816052e9,TCR,2024-06-25_12h43.06.387,LearnStrategy,2023.2.3,Win32,60.24096386,8,1,8,0.069010417,0.01171875,1,0,0,4.7575,rock_grid_rect_2,2,09,-1,-1,4.757,-0.200520833,-0.23828125,1,0,0,3.397,Basalt_rect,2,3.397,1,7,0,7,0,1,,,,,,,,,,,,,
6437848cce0b587f816052e9,TCR,2024-06-25_12h43.06.387,LearnStrategy,2023.2.3,Win32,60.24096386,8,1,9,-0.014322917,-0.016927083,1,0,0,1.2788,rock_grid_rect_2,1,14,-1,-1,1.279,0.072916667,-0.388020833,1,0,0,3.2049,Peridotite_rect,7,3.205,0,8,0,8,0,1,,,,,,,,,,,,,
6437848cce0b587f816052e9,TCR,2024-06-25_12h43.06.387,LearnStrategy,2023.2.3,Win32,60.24096386,8,1,10,0.009114583,0.001302083,1,0,0,1.9609,rock_grid_rect_2,7,06,-1,-1,1.961,0.09375,-0.415364583,1,0,0,1.3593,Peridotite_rect,7,1.359,1,9,0,9,0,1,,,,,,,,,,,,,
6437848cce0b587f816052e9,TCR,2024-06-25_12h43.06.387,LearnStrategy,2023.2.3,Win32,60.24096386,8,1,11,0.009114583,-0.00390625,1,0,0,1.4772,rock_grid_rect_2,3,12,-1,-1,1.477,0.126302083,-0.244791667,1,0,0,1.5817,Diorite_rect,3,1.582,1,10,0,10,0,1,,,,,,,,,,,,,
6437848cce0b587f816052e9,TCR,2024-06-25_12h43.06.387,LearnStrategy,2023.2.3,Win32,60.24096386,8,1,12,0.022135417,-0.005208333,1,0,0,1.5935,rock_grid_rect_2,1,03,-1,-1,1.593,-0.139322917,-0.404947917,1,0,0,2.1085,Pegmatite_rect,6,2.108,0,11,0,11,0,1,,,,,,,,,,,,,
6437848cce0b587f816052e9,TCR,2024-06-25_12h43.06.387,LearnStrategy,2023.2.3,Win32,60.24096386,8,1,13,0.005208333,0.01953125,1,0,0,1.1301,rock_grid_rect_2,1,01,-1,-1,1.13,-0.139322917,-0.401041667,1,0,0,1.4991,Pegmatite_rect,6,1.499,0,12,0,12,0,1,,,,,,,,,,,,,
6437848cce0b587f816052e9,TCR,2024-06-25_12h43.06.387,LearnStrategy,2023.2.3,Win32,60.24096386,8,1,14,0.063802083,0.005208333,1,0,0,1.4767,rock_grid_rect_2,4,15,-1,-1,1.477,0.432291667,-0.240885417,1,0,0,2.4767,Gabbro_rect,4,2.477,1,13,0,13,0,1,,,,,,,,,,,,,
6437848cce0b587f816052e9,TCR,2024-06-25_12h43.06.387,LearnStrategy,2023.2.3,Win32,60.24096386,8,1,15,0.024739583,-0.002604167,1,0,0,2.1107,rock_grid_rect_2,6,13,-1,-1,2.111,-0.127604167,-0.40234375,1,0,0,1.3906,Pegmatite_rect,6,1.391,1,14,0,14,0,1,,,,,,,,,,,,,
6437848cce0b587f816052e9,TCR,2024-06-25_12h43.06.387,LearnStrategy,2023.2.3,Win32,60.24096386,8,1,16,0.02734375,0.01171875,1,0,0,1.1127,rock_grid_rect_2,3,10,-1,-1,1.113,0.09375,-0.255208333,1,0,0,3.0363,Diorite_rect,3,3.036,1,15,0,15,0,1,,,,,,,,,,,,,
6437848cce0b587f816052e9,TCR,2024-06-25_12h43.06.387,LearnStrategy,2023.2.3,Win32,60.24096386,8,2,1,,,,,,,,2,04,,,,,,,,,,,2,1.593,1,,,,,,-0.157552083,-0.240885417,1,0,0,1.5928,Basalt_rect,0,0,0,0,1,
6437848cce0b587f816052e9,TCR,2024-06-25_12h43.06.387,LearnStrategy,2023.2.3,Win32,60.24096386,8,2,2,,,,,,,,3,15,,,,,,,,,,,3,1.422,1,,,,,,0.138020833,-0.248697917,1,0,0,1.4222,Diorite_rect,1,0,1,0,1,
6437848cce0b587f816052e9,TCR,2024-06-25_12h43.06.387,LearnStrategy,2023.2.3,Win32,60.24096386,8,2,3,,,,,,,,5,06,,,,,,,,,,,5,1.961,1,,,,,,-0.389322917,-0.403645833,1,0,0,1.9609,Obsidian_rect,2,0,2,0,1,
6437848cce0b587f816052e9,TCR,2024-06-25_12h43.06.387,LearnStrategy,2023.2.3,Win32,60.24096386,8,2,4,,,,,,,,6,05,,,,,,,,,,,6,1.289,1,,,,,,-0.125,-0.4140625,1,0,0,1.2888,Pegmatite_rect,3,0,3,0,1,
6437848cce0b587f816052e9,TCR,2024-06-25_12h43.06.387,LearnStrategy,2023.2.3,Win32,60.24096386,8,2,5,,,,,,,,4,14,,,,,,,,,,,1,3.327,0,,,,,,-0.350260417,-0.24609375,1,0,0,3.3272,Andesite_rect,4,0,4,0,1,
6437848cce0b587f816052e9,TCR,2024-06-25_12h43.06.387,LearnStrategy,2023.2.3,Win32,60.24096386,8,2,6,,,,,,,,7,02,,,,,,,,,,,7,2.133,1,,,,,,0.102864583,-0.384114583,1,0,0,2.1329,Peridotite_rect,5,0,5,0,1,
6437848cce0b587f816052e9,TCR,2024-06-25_12h43.06.387,LearnStrategy,2023.2.3,Win32,60.24096386,8,2,7,,,,,,,,8,06,,,,,,,,,,,8,1.361,1,,,,,,0.346354167,-0.3984375,1,0,0,1.3611,Pumice_rect,6,0,6,0,1,
6437848cce0b587f816052e9,TCR,2024-06-25_12h43.06.387,LearnStrategy,2023.2.3,Win32,60.24096386,8,2,8,,,,,,,,5,08,,,,,,,,,,,5,1.231,1,,,,,,-0.412760417,-0.411458333,1,0,0,1.2314,Obsidian_rect,7,0,7,0,1,
6437848cce0b587f816052e9,TCR,2024-06-25_12h43.06.387,LearnStrategy,2023.2.3,Win32,60.24096386,8,2,9,,,,,,,,1,10,,,,,,,,,,,4,2.77,0,,,,,,0.427083333,-0.247395833,1,0,0,2.7701,Gabbro_rect,8,0,8,0,1,
6437848cce0b587f816052e9,TCR,2024-06-25_12h43.06.387,LearnStrategy,2023.2.3,Win32,60.24096386,8,2,10,,,,,,,,2,02,,,,,,,,,,,1,1.557,0,,,,,,-0.411458333,-0.25,1,0,0,1.557,Andesite_rect,9,0,9,0,1,
6437848cce0b587f816052e9,TCR,2024-06-25_12h43.06.387,LearnStrategy,2023.2.3,Win32,60.24096386,8,2,11,,,,,,,,4,05,,,,,,,,,,,1,1.79,0,,,,,,-0.40625,-0.24609375,1,0,0,1.79,Andesite_rect,10,0,10,0,1,
6437848cce0b587f816052e9,TCR,2024-06-25_12h43.06.387,LearnStrategy,2023.2.3,Win32,60.24096386,8,2,12,,,,,,,,3,08,,,,,,,,,,,7,1.84,0,,,,,,0.134114583,-0.38671875,1,0,0,1.8404,Peridotite_rect,11,0,11,0,1,
6437848cce0b587f816052e9,TCR,2024-06-25_12h43.06.387,LearnStrategy,2023.2.3,Win32,60.24096386,8,2,13,,,,,,,,1,05,,,,,,,,,,,1,2.097,1,,,,,,-0.4140625,-0.26171875,1,0,0,2.0968,Andesite_rect,12,0,12,0,1,
6437848cce0b587f816052e9,TCR,2024-06-25_12h43.06.387,LearnStrategy,2023.2.3,Win32,60.24096386,8,2,14,,,,,,,,8,10,,,,,,,,,,,8,1.386,1,,,,,,0.39453125,-0.401041667,1,0,0,1.3859,Pumice_rect,13,0,13,0,1,
6437848cce0b587f816052e9,TCR,2024-06-25_12h43.06.387,LearnStrategy,2023.2.3,Win32,60.24096386,8,2,15,,,,,,,,6,10,,,,,,,,,,,6,1.758,1,,,,,,-0.076822917,-0.397135417,1,0,0,1.7576,Pegmatite_rect,14,0,14,0,1,
6437848cce0b587f816052e9,TCR,2024-06-25_12h43.06.387,LearnStrategy,2023.2.3,Win32,60.24096386,8,2,16,,,,,,,,7,15,,,,,,,,,,,7,3.953,1,,,,,,0.147135417,-0.3984375,1,0,0,3.9527,Peridotite_rect,15,0,15,0,1,
6437848cce0b587f816052e9,TCR,2024-06-25_12h43.06.387,LearnStrategy,2023.2.3,Win32,60.24096386,9,1,1,0.0625,-0.001302083,1,0,0,1.2436,rock_grid_rect_2,4,12,-1,-1,1.244,-0.399739583,-0.247395833,1,0,0,2.9192,Andesite_rect,1,2.919,0,0,0,0,0,1,,,,,,,,,,,,,
6437848cce0b587f816052e9,TCR,2024-06-25_12h43.06.387,LearnStrategy,2023.2.3,Win32,60.24096386,9,1,2,0.010416667,-0.015625,1,0,0,2.8922,rock_grid_rect_2,7,14,-1,-1,2.892,0.34375,-0.263020833,1,0,0,2.6888,Gabbro_rect,4,2.689,0,1,0,1,0,1,,,,,,,,,,,,,
6437848cce0b587f816052e9,TCR,2024-06-25_12h43.06.387,LearnStrategy,2023.2.3,Win32,60.24096386,9,1,3,0.096354167,-0.002604167,1,0,0,1.1456,rock_grid_rect_2,3,12,-1,-1,1.146,-0.407552083,-0.2578125,1,0,0,2.0804,Andesite_rect,1,2.08,0,2,0,2,0,1,,,,,,,,,,,,,
6437848cce0b587f816052e9,TCR,2024-06-25_12h43.06.387,LearnStrategy,2023.2.3,Win32,60.24096386,9,1,4,0.109375,0.005208333,1,0,0,0.9803,rock_grid_rect_2,7,12,-1,-1,0.98,0.153645833,-0.380208333,1,0,0,1.5281,Peridotite_rect,7,1.528,1,3,0,3,0,1,,,,,,,,,,,,,
6437848cce0b587f816052e9,TCR,2024-06-25_12h43.06.387,LearnStrategy,2023.2.3,Win32,60.24096386,9,1,5,0.024739583,0.00390625,1,0,0,1.0299,rock_grid_rect_2,3,10,-1,-1,1.03,0.12890625,-0.407552083,1,0,0,1.8388,Peridotite_rect,7,1.839,0,4,0,4,0,1,,,,,,,,,,,,,
6437848cce0b587f816052e9,TCR,2024-06-25_12h43.06.387,LearnStrategy,2023.2.3,Win32,60.24096386,9,1,6,0.022135417,0.001302083,1,0,0,1.2624,rock_grid_rect_2,8,13,-1,-1,1.262,0.361979167,-0.384114583,1,0,0,1.3091,Pumice_rect,8,1.309,1,5,0,5,0,1,,,,,,,,,,,,,
6437848cce0b587f816052e9,TCR,2024-06-25_12h43.06.387,LearnStrategy,2023.2.3,Win32,60.24096386,9,1,7,0.02734375,-0.005208333,1,0,0,1.2131,rock_grid_rect_2,1,01,-1,-1,1.213,-0.399739583,-0.247395833,1,0,0,3.4919,Andesite_rect,1,3.492,1,6,0,6,0,1,,,,,,,,,,,,,
6437848cce0b587f816052e9,TCR,2024-06-25_12h43.06.387,LearnStrategy,2023.2.3,Win32,60.24096386,9,1,8,0.08984375,-0.0234375,1,0,0,1.1088,rock_grid_rect_2,4,11,-1,-1,1.109,0.432291667,-0.255208333,1,0,0,1.7251,Gabbro_rect,4,1.725,1,7,0,7,0,1,,,,,,,,,,,,,
6437848cce0b587f816052e9,TCR,2024-06-25_12h43.06.387,LearnStrategy,2023.2.3,Win32,60.24096386,9,1,9,0.115885417,0.001302083,1,0,0,2.4612,rock_grid_rect_2,6,11,-1,-1,2.461,-0.1640625,-0.37890625,1,0,0,1.2519,Pegmatite_rect,6,1.252,1,8,0,8,0,1,,,,,,,,,,,,,
6437848cce0b587f816052e9,TCR,2024-06-25_12h43.06.387,LearnStrategy,2023.2.3,Win32,60.24096386,9,1,10,0.01171875,0.010416667,1,0,0,1.0966,rock_grid_rect_2,3,11,-1,-1,1.097,-0.388020833,-0.265625,1,0,0,2.5115,Andesite_rect,1,2.512,0,9,0,9,0,1,,,,,,,,,,,,,
6437848cce0b587f816052e9,TCR,2024-06-25_12h43.06.387,LearnStrategy,2023.2.3,Win32,60.24096386,9,1,11,0.1171875,-0.014322917,1,0,0,0.9958,rock_grid_rect_2,4,13,-1,-1,0.996,-0.350260417,-0.252604167,1,0,0,2.3648,Andesite_rect,1,2.365,0,10,0,10,0,1,,,,,,,,,,,,,
6437848cce0b587f816052e9,TCR,2024-06-25_12h43.06.387,LearnStrategy,2023.2.3,Win32,60.24096386,9,1,12,0.095052083,-0.016927083,1,0,0,0.9788,rock_grid_rect_2,1,07,-1,-1,0.979,0.135416667,-0.38671875,1,0,0,2.2851,Peridotite_rect,7,2.285,0,11,0,11,0,1,,,,,,,,,,,,,
6437848cce0b587f816052e9,TCR,2024-06-25_12h43.06.387,LearnStrategy,2023.2.3,Win32,60.24096386,9,1,13,0.102864583,0.01953125,1,0,0,1.1288,rock_grid_rect_2,4,15,-1,-1,1.129,0.403645833,-0.251302083,1,0,0,2.4253,Gabbro_rect,4,2.425,1,12,0,12,0,1,,,,,,,,,,,,,
6437848cce0b587f816052e9,TCR,2024-06-25_12h43.06.387,LearnStrategy,2023.2.3,Win32,60.24096386,9,1,14,0.06640625,-0.002604167,1,0,0,1.213,rock_grid_rect_2,1,09,-1,-1,1.213,-0.453125,-0.251302083,1,0,0,3.178,Andesite_rect,1,3.178,1,13,0,13,0,1,,,,,,,,,,,,,
6437848cce0b587f816052e9,TCR,2024-06-25_12h43.06.387,LearnStrategy,2023.2.3,Win32,60.24096386,9,1,15,0.096354167,-0.006510417,1,0,0,1.4593,rock_grid_rect_2,2,01,-1,-1,1.459,-0.106770833,-0.233072917,1,0,0,1.2876,Basalt_rect,2,1.288,1,14,0,14,0,1,,,,,,,,,,,,,
6437848cce0b587f816052e9,TCR,2024-06-25_12h43.06.387,LearnStrategy,2023.2.3,Win32,60.24096386,9,1,16,-0.00390625,-0.002604167,1,0,0,1.5288,rock_grid_rect_2,2,09,-1,-1,1.529,-0.100260417,-0.243489583,1,0,0,1.7984,Basalt_rect,2,1.798,1,15,0,15,0,1,,,,,,,,,,,,,
6437848cce0b587f816052e9,TCR,2024-06-25_12h43.06.387,LearnStrategy,2023.2.3,Win32,60.24096386,9,2,1,,,,,,,,8,08,,,,,,,,,,,8,7.691,1,,,,,,0.368489583,-0.40234375,1,0,0,7.6914,Pumice_rect,0,0,0,0,1,
6437848cce0b587f816052e9,TCR,2024-06-25_12h43.06.387,LearnStrategy,2023.2.3,Win32,60.24096386,9,2,2,,,,,,,,2,08,,,,,,,,,,,2,1.36,1,,,,,,-0.09375,-0.239583333,1,0,0,1.36,Basalt_rect,1,0,1,0,1,
6437848cce0b587f816052e9,TCR,2024-06-25_12h43.06.387,LearnStrategy,2023.2.3,Win32,60.24096386,9,2,3,,,,,,,,5,16,,,,,,,,,,,5,1.24,1,,,,,,-0.42578125,-0.40625,1,0,0,1.2396,Obsidian_rect,2,0,2,0,1,
6437848cce0b587f816052e9,TCR,2024-06-25_12h43.06.387,LearnStrategy,2023.2.3,Win32,60.24096386,9,2,4,,,,,,,,6,07,,,,,,,,,,,6,1.281,1,,,,,,-0.162760417,-0.397135417,1,0,0,1.2809,Pegmatite_rect,3,0,3,0,1,
6437848cce0b587f816052e9,TCR,2024-06-25_12h43.06.387,LearnStrategy,2023.2.3,Win32,60.24096386,9,2,5,,,,,,,,1,04,,,,,,,,,,,1,3.405,1,,,,,,-0.356770833,-0.239583333,1,0,0,3.4047,Andesite_rect,4,0,4,0,1,
6437848cce0b587f816052e9,TCR,2024-06-25_12h43.06.387,LearnStrategy,2023.2.3,Win32,60.24096386,9,2,6,,,,,,,,3,07,,,,,,,,,,,7,1.445,0,,,,,,0.104166667,-0.420572917,1,0,0,1.4449,Peridotite_rect,5,0,5,0,1,
6437848cce0b587f816052e9,TCR,2024-06-25_12h43.06.387,LearnStrategy,2023.2.3,Win32,60.24096386,9,2,7,,,,,,,,8,16,,,,,,,,,,,8,1.596,1,,,,,,0.388020833,-0.3984375,1,0,0,1.5961,Pumice_rect,6,0,6,0,1,
6437848cce0b587f816052e9,TCR,2024-06-25_12h43.06.387,LearnStrategy,2023.2.3,Win32,60.24096386,9,2,8,,,,,,,,6,12,,,,,,,,,,,6,1.313,1,,,,,,-0.208333333,-0.403645833,1,0,0,1.3134,Pegmatite_rect,7,0,7,0,1,
6437848cce0b587f816052e9,TCR,2024-06-25_12h43.06.387,LearnStrategy,2023.2.3,Win32,60.24096386,9,2,9,,,,,,,,5,05,,,,,,,,,,,5,1.15,1,,,,,,-0.356770833,-0.388020833,1,0,0,1.1502,Obsidian_rect,8,0,8,0,1,
6437848cce0b587f816052e9,TCR,2024-06-25_12h43.06.387,LearnStrategy,2023.2.3,Win32,60.24096386,9,2,10,,,,,,,,2,11,,,,,,,,,,,4,4.729,0,,,,,,0.42578125,-0.25,1,0,0,4.7294,Gabbro_rect,9,0,9,0,1,
6437848cce0b587f816052e9,TCR,2024-06-25_12h43.06.387,LearnStrategy,2023.2.3,Win32,60.24096386,9,2,11,,,,,,,,1,16,,,,,,,,,,,1,3.099,1,,,,,,-0.411458333,-0.244791667,1,0,0,3.0993,Andesite_rect,10,0,10,0,1,
6437848cce0b587f816052e9,TCR,2024-06-25_12h43.06.387,LearnStrategy,2023.2.3,Win32,60.24096386,9,2,12,,,,,,,,3,16,,,,,,,,,,,1,3.445,0,,,,,,-0.4453125,-0.2578125,1,0,0,3.4447,Andesite_rect,11,0,11,0,1,
6437848cce0b587f816052e9,TCR,2024-06-25_12h43.06.387,LearnStrategy,2023.2.3,Win32,60.24096386,9,2,13,,,,,,,,4,09,,,,,,,,,,,2,2.107,0,,,,,,-0.140625,-0.2421875,1,0,0,2.107,Basalt_rect,12,0,12,0,1,
6437848cce0b587f816052e9,TCR,2024-06-25_12h43.06.387,LearnStrategy,2023.2.3,Win32,60.24096386,9,2,14,,,,,,,,4,10,,,,,,,,,,,2,1.033,0,,,,,,-0.140625,-0.2421875,1,0,0,1.0327,Basalt_rect,13,0,13,0,1,
6437848cce0b587f816052e9,TCR,2024-06-25_12h43.06.387,LearnStrategy,2023.2.3,Win32,60.24096386,9,2,15,,,,,,,,7,10,,,,,,,,,,,3,2.383,0,,,,,,0.145833333,-0.252604167,1,0,0,2.3831,Diorite_rect,14,0,14,0,1,
6437848cce0b587f816052e9,TCR,2024-06-25_12h43.06.387,LearnStrategy,2023.2.3,Win32,60.24096386,9,2,16,,,,,,,,7,13,,,,,,,,,,,7,7.235,1,,,,,,0.141927083,-0.388020833,1,0,0,7.2348,Peridotite_rect,15,0,15,0,1,
6437848cce0b587f816052e9,TCR,2024-06-25_12h43.06.387,LearnStrategy,2023.2.3,Win32,60.24096386,,,,,,,,,,,,,,,,,,,,,,,,,,,,,,,,,,,,,,,,,,,0
6437848cce0b587f816052e9,TCR,2024-06-25_12h43.06.387,LearnStrategy,2023.2.3,Win32,60.24096386,,,,,,,,,,,,,,,,,,,,,,,,,,,,,,,,,,,,,,,,,,,
6437848cce0b587f816052e9,TCR,2024-06-25_12h43.06.387,LearnStrategy,2023.2.3,Win32,60.24096386,,,,,,,,,,,4,13,1,1,,,,,,,,,,,,,,,,,,,,,,,,,,,,,
6437848cce0b587f816052e9,TCR,2024-06-25_12h43.06.387,LearnStrategy,2023.2.3,Win32,60.24096386,,,,,,,,,,,5,02,1,2,,,,,,,,,,,,,,,,,,,,,,,,,,,,,
6437848cce0b587f816052e9,TCR,2024-06-25_12h43.06.387,LearnStrategy,2023.2.3,Win32,60.24096386,,,,,,,,,,,2,01,1,3,,,,,,,,,,,,,,,,,,,,,,,,,,,,,
6437848cce0b587f816052e9,TCR,2024-06-25_12h43.06.387,LearnStrategy,2023.2.3,Win32,60.24096386,,,,,,,,,,,8,09,1,4,,,,,,,,,,,,,,,,,,,,,,,,,,,,,
6437848cce0b587f816052e9,TCR,2024-06-25_12h43.06.387,LearnStrategy,2023.2.3,Win32,60.24096386,,,,,,,,,,,6,16,1,5,,,,,,,,,,,,,,,,,,,,,,,,,,,,,
6437848cce0b587f816052e9,TCR,2024-06-25_12h43.06.387,LearnStrategy,2023.2.3,Win32,60.24096386,,,,,,,,,,,5,10,1,6,,,,,,,,,,,,,,,,,,,,,,,,,,,,,
6437848cce0b587f816052e9,TCR,2024-06-25_12h43.06.387,LearnStrategy,2023.2.3,Win32,60.24096386,,,,,,,,,,,3,09,1,7,,,,,,,,,,,,,,,,,,,,,,,,,,,,,
6437848cce0b587f816052e9,TCR,2024-06-25_12h43.06.387,LearnStrategy,2023.2.3,Win32,60.24096386,,,,,,,,,,,4,01,1,8,,,,,,,,,,,,,,,,,,,,,,,,,,,,,
6437848cce0b587f816052e9,TCR,2024-06-25_12h43.06.387,LearnStrategy,2023.2.3,Win32,60.24096386,,,,,,,,,,,7,05,2,1,,,,,,,,,,,,,,,,,,,,,,,,,,,,,
6437848cce0b587f816052e9,TCR,2024-06-25_12h43.06.387,LearnStrategy,2023.2.3,Win32,60.24096386,,,,,,,,,,,4,08,2,2,,,,,,,,,,,,,,,,,,,,,,,,,,,,,
6437848cce0b587f816052e9,TCR,2024-06-25_12h43.06.387,LearnStrategy,2023.2.3,Win32,60.24096386,,,,,,,,,,,5,04,2,3,,,,,,,,,,,,,,,,,,,,,,,,,,,,,
6437848cce0b587f816052e9,TCR,2024-06-25_12h43.06.387,LearnStrategy,2023.2.3,Win32,60.24096386,,,,,,,,,,,6,08,2,4,,,,,,,,,,,,,,,,,,,,,,,,,,,,,
6437848cce0b587f816052e9,TCR,2024-06-25_12h43.06.387,LearnStrategy,2023.2.3,Win32,60.24096386,,,,,,,,,,,2,05,2,5,,,,,,,,,,,,,,,,,,,,,,,,,,,,,
6437848cce0b587f816052e9,TCR,2024-06-25_12h43.06.387,LearnStrategy,2023.2.3,Win32,60.24096386,,,,,,,,,,,3,02,2,6,,,,,,,,,,,,,,,,,,,,,,,,,,,,,
6437848cce0b587f816052e9,TCR,2024-06-25_12h43.06.387,LearnStrategy,2023.2.3,Win32,60.24096386,,,,,,,,,,,3,12,2,7,,,,,,,,,,,,,,,,,,,,,,,,,,,,,
6437848cce0b587f816052e9,TCR,2024-06-25_12h43.06.387,LearnStrategy,2023.2.3,Win32,60.24096386,,,,,,,,,,,5,09,2,8,,,,,,,,,,,,,,,,,,,,,,,,,,,,,
6437848cce0b587f816052e9,TCR,2024-06-25_12h43.06.387,LearnStrategy,2023.2.3,Win32,60.24096386,,,,,,,,,,,1,14,3,1,,,,,,,,,,,,,,,,,,,,,,,,,,,,,
6437848cce0b587f816052e9,TCR,2024-06-25_12h43.06.387,LearnStrategy,2023.2.3,Win32,60.24096386,,,,,,,,,,,4,12,3,2,,,,,,,,,,,,,,,,,,,,,,,,,,,,,
6437848cce0b587f816052e9,TCR,2024-06-25_12h43.06.387,LearnStrategy,2023.2.3,Win32,60.24096386,,,,,,,,,,,5,14,3,3,,,,,,,,,,,,,,,,,,,,,,,,,,,,,
6437848cce0b587f816052e9,TCR,2024-06-25_12h43.06.387,LearnStrategy,2023.2.3,Win32,60.24096386,,,,,,,,,,,2,06,3,4,,,,,,,,,,,,,,,,,,,,,,,,,,,,,
6437848cce0b587f816052e9,TCR,2024-06-25_12h43.06.387,LearnStrategy,2023.2.3,Win32,60.24096386,,,,,,,,,,,8,15,3,5,,,,,,,,,,,,,,,,,,,,,,,,,,,,,
6437848cce0b587f816052e9,TCR,2024-06-25_12h43.06.387,LearnStrategy,2023.2.3,Win32,60.24096386,,,,,,,,,,,6,06,3,6,,,,,,,,,,,,,,,,,,,,,,,,,,,,,
6437848cce0b587f816052e9,TCR,2024-06-25_12h43.06.387,LearnStrategy,2023.2.3,Win32,60.24096386,,,,,,,,,,,8,04,3,7,,,,,,,,,,,,,,,,,,,,,,,,,,,,,
6437848cce0b587f816052e9,TCR,2024-06-25_12h43.06.387,LearnStrategy,2023.2.3,Win32,60.24096386,,,,,,,,,,,6,11,3,8,,,,,,,,,,,,,,,,,,,,,,,,,,,,,
6437848cce0b587f816052e9,TCR,2024-06-25_12h43.06.387,LearnStrategy,2023.2.3,Win32,60.24096386,,,,,,,,,,,2,09,4,1,,,,,,,,,,,,,,,,,,,,,,,,,,,,,
6437848cce0b587f816052e9,TCR,2024-06-25_12h43.06.387,LearnStrategy,2023.2.3,Win32,60.24096386,,,,,,,,,,,6,09,4,2,,,,,,,,,,,,,,,,,,,,,,,,,,,,,
6437848cce0b587f816052e9,TCR,2024-06-25_12h43.06.387,LearnStrategy,2023.2.3,Win32,60.24096386,,,,,,,,,,,2,16,4,3,,,,,,,,,,,,,,,,,,,,,,,,,,,,,
6437848cce0b587f816052e9,TCR,2024-06-25_12h43.06.387,LearnStrategy,2023.2.3,Win32,60.24096386,,,,,,,,,,,7,14,4,4,,,,,,,,,,,,,,,,,,,,,,,,,,,,,
6437848cce0b587f816052e9,TCR,2024-06-25_12h43.06.387,LearnStrategy,2023.2.3,Win32,60.24096386,,,,,,,,,,,1,07,4,5,,,,,,,,,,,,,,,,,,,,,,,,,,,,,
6437848cce0b587f816052e9,TCR,2024-06-25_12h43.06.387,LearnStrategy,2023.2.3,Win32,60.24096386,,,,,,,,,,,1,09,4,6,,,,,,,,,,,,,,,,,,,,,,,,,,,,,
6437848cce0b587f816052e9,TCR,2024-06-25_12h43.06.387,LearnStrategy,2023.2.3,Win32,60.24096386,,,,,,,,,,,6,13,4,7,,,,,,,,,,,,,,,,,,,,,,,,,,,,,
6437848cce0b587f816052e9,TCR,2024-06-25_12h43.06.387,LearnStrategy,2023.2.3,Win32,60.24096386,,,,,,,,,,,3,11,4,8,,,,,,,,,,,,,,,,,,,,,,,,,,,,,
6437848cce0b587f816052e9,TCR,2024-06-25_12h43.06.387,LearnStrategy,2023.2.3,Win32,60.24096386,,,,,,,,,,,1,01,5,1,,,,,,,,,,,,,,,,,,,,,,,,,,,,,
6437848cce0b587f816052e9,TCR,2024-06-25_12h43.06.387,LearnStrategy,2023.2.3,Win32,60.24096386,,,,,,,,,,,4,15,5,2,,,,,,,,,,,,,,,,,,,,,,,,,,,,,
6437848cce0b587f816052e9,TCR,2024-06-25_12h43.06.387,LearnStrategy,2023.2.3,Win32,60.24096386,,,,,,,,,,,7,07,5,3,,,,,,,,,,,,,,,,,,,,,,,,,,,,,
6437848cce0b587f816052e9,TCR,2024-06-25_12h43.06.387,LearnStrategy,2023.2.3,Win32,60.24096386,,,,,,,,,,,8,13,5,4,,,,,,,,,,,,,,,,,,,,,,,,,,,,,
6437848cce0b587f816052e9,TCR,2024-06-25_12h43.06.387,LearnStrategy,2023.2.3,Win32,60.24096386,,,,,,,,,,,7,06,5,5,,,,,,,,,,,,,,,,,,,,,,,,,,,,,
6437848cce0b587f816052e9,TCR,2024-06-25_12h43.06.387,LearnStrategy,2023.2.3,Win32,60.24096386,,,,,,,,,,,7,16,5,6,,,,,,,,,,,,,,,,,,,,,,,,,,,,,
6437848cce0b587f816052e9,TCR,2024-06-25_12h43.06.387,LearnStrategy,2023.2.3,Win32,60.24096386,,,,,,,,,,,1,03,5,7,,,,,,,,,,,,,,,,,,,,,,,,,,,,,
6437848cce0b587f816052e9,TCR,2024-06-25_12h43.06.387,LearnStrategy,2023.2.3,Win32,60.24096386,,,,,,,,,,,3,10,5,8,,,,,,,,,,,,,,,,,,,,,,,,,,,,,
6437848cce0b587f816052e9,TCR,2024-06-25_12h43.06.387,LearnStrategy,2023.2.3,Win32,60.24096386,,,,,,,,,,,4,11,6,1,,,,,,,,,,,,,,,,,,,,,,,,,,,,,
6437848cce0b587f816052e9,TCR,2024-06-25_12h43.06.387,LearnStrategy,2023.2.3,Win32,60.24096386,,,,,,,,,,,2,10,6,2,,,,,,,,,,,,,,,,,,,,,,,,,,,,,
6437848cce0b587f816052e9,TCR,2024-06-25_12h43.06.387,LearnStrategy,2023.2.3,Win32,60.24096386,,,,,,,,,,,8,03,6,3,,,,,,,,,,,,,,,,,,,,,,,,,,,,,
6437848cce0b587f816052e9,TCR,2024-06-25_12h43.06.387,LearnStrategy,2023.2.3,Win32,60.24096386,,,,,,,,,,,3,06,6,4,,,,,,,,,,,,,,,,,,,,,,,,,,,,,
6437848cce0b587f816052e9,TCR,2024-06-25_12h43.06.387,LearnStrategy,2023.2.3,Win32,60.24096386,,,,,,,,,,,1,11,6,5,,,,,,,,,,,,,,,,,,,,,,,,,,,,,
6437848cce0b587f816052e9,TCR,2024-06-25_12h43.06.387,LearnStrategy,2023.2.3,Win32,60.24096386,,,,,,,,,,,5,12,6,6,,,,,,,,,,,,,,,,,,,,,,,,,,,,,
6437848cce0b587f816052e9,TCR,2024-06-25_12h43.06.387,LearnStrategy,2023.2.3,Win32,60.24096386,,,,,,,,,,,7,12,6,7,,,,,,,,,,,,,,,,,,,,,,,,,,,,,
6437848cce0b587f816052e9,TCR,2024-06-25_12h43.06.387,LearnStrategy,2023.2.3,Win32,60.24096386,,,,,,,,,,,8,14,6,8,,,,,,,,,,,,,,,,,,,,,,,,,,,,,