participant,condition,date,expName,psychopyVersion,OS,frameRate,block,phase,trial,learn_mouse_2.x,learn_mouse_2.y,learn_mouse_2.leftButton,learn_mouse_2.midButton,learn_mouse_2.rightButton,learn_mouse_2.time,learn_mouse_2.clicked_name,cat,token,row,col,t_select,cat_mouse_l.x,cat_mouse_l.y,cat_mouse_l.leftButton,cat_mouse_l.midButton,cat_mouse_l.rightButton,cat_mouse_l.time,cat_mouse_l.clicked_name,resp,t_resp,corr,train_trials.thisRepN,train_trials.thisTrialN,train_trials.thisN,train_trials.thisIndex,train_trials.ran,cat_mouse_t.x,cat_mouse_t.y,cat_mouse_t.leftButton,cat_mouse_t.midButton,cat_mouse_t.rightButton,cat_mouse_t.time,cat_mouse_t.clicked_name,test_trials.thisRepN,test_trials.thisTrialN,test_trials.thisN,test_trials.thisIndex,test_trials.ran,Bonus
64427a7ac5edfedbe0c2779b,TCN,2024-06-24_17h37.16.520,LearnStrategy,2023.2.3,Win32,59.88023952,,,,,,,,,,,,,,,,,,,,,,,,,,,,,,,,,,,,,,,,,,,
64427a7ac5edfedbe0c2779b,TCN,2024-06-24_17h37.16.520,LearnStrategy,2023.2.3,Win32,59.88023952,1,1,1,-0.02266055,-0.007365586,1,0,0,2.691,rock_grid_rect_2,3,12,-1,-1,2.691,-0.412657327,-0.402907443,1,0,0,4.2266,Obsidian_rect,5,4.227,0,0,0,0,0,1,,,,,,,,,,,,,
64427a7ac5edfedbe0c2779b,TCN,2024-06-24_17h37.16.520,LearnStrategy,2023.2.3,Win32,59.88023952,1,1,2,-0.091972725,-0.011062173,1,0,0,1.8438,rock_grid_rect_2,2,09,-1,-1,1.844,-0.454244699,-0.400134903,1,0,0,2.637,Obsidian_rect,5,2.637,0,1,0,1,0,1,,,,,,,,,,,,,
64427a7ac5edfedbe0c2779b,TCN,2024-06-24_17h37.16.520,LearnStrategy,2023.2.3,Win32,59.88023952,1,1,3,-0.0513096,0.00649685,1,0,0,1.19,rock_grid_rect_2,6,05,-1,-1,1.19,0.122433129,-0.245799557,1,0,0,1.2062,Diorite_rect,3,1.206,0,2,0,2,0,1,,,,,,,,,,,,,
64427a7ac5edfedbe0c2779b,TCN,2024-06-24_17h37.16.520,LearnStrategy,2023.2.3,Win32,59.88023952,1,1,4,-0.011570588,0.011117684,1,0,0,1.4464,rock_grid_rect_2,2,06,-1,-1,1.446,-0.054082007,-0.27075202,1,0,0,4.3053,Basalt_rect,2,4.305,1,3,0,3,0,1,,,,,,,,,,,,,
64427a7ac5edfedbe0c2779b,TCN,2024-06-24_17h37.16.520,LearnStrategy,2023.2.3,Win32,59.88023952,1,1,5,-0.027281251,0.000951869,1,0,0,1.5479,rock_grid_rect_2,8,09,-1,-1,1.548,0.163096321,-0.413997338,1,0,0,2.0095,Peridotite_rect,7,2.01,0,4,0,4,0,1,,,,,,,,,,,,,
64427a7ac5edfedbe0c2779b,TCN,2024-06-24_17h37.16.520,LearnStrategy,2023.2.3,Win32,59.88023952,1,1,6,0.055893427,-0.015683007,1,0,0,1.0655,rock_grid_rect_2,7,04,-1,-1,1.065,0.41446878,-0.385348288,1,0,0,1.3381,Pumice_rect,8,1.338,0,5,0,5,0,1,,,,,,,,,,,,,
64427a7ac5edfedbe0c2779b,TCN,2024-06-24_17h37.16.520,LearnStrategy,2023.2.3,Win32,59.88023952,1,1,7,0.053120887,-0.011986419,1,0,0,1.0612,rock_grid_rect_2,5,14,-1,-1,1.061,-0.456093026,-0.231937188,1,0,0,2.1773,Andesite_rect,1,2.177,0,6,0,6,0,1,,,,,,,,,,,,,
64427a7ac5edfedbe0c2779b,TCN,2024-06-24_17h37.16.520,LearnStrategy,2023.2.3,Win32,59.88023952,1,1,8,-0.129863444,-0.009213912,1,0,0,1.379,rock_grid_rect_2,1,16,-1,-1,1.379,-0.353510933,-0.399210723,1,0,0,1.7411,Obsidian_rect,5,1.741,0,7,0,7,0,1,,,,,,,,,,,,,
64427a7ac5edfedbe0c2779b,TCN,2024-06-24_17h37.16.520,LearnStrategy,2023.2.3,Win32,59.88023952,1,1,9,0.006912681,-0.006441372,1,0,0,1.0783,rock_grid_rect_2,1,06,-1,-1,1.078,-0.341496758,-0.248572097,1,0,0,4.7844,Andesite_rect,1,4.784,1,8,0,8,0,1,,,,,,,,,,,,,
64427a7ac5edfedbe0c2779b,TCN,2024-06-24_17h37.16.520,LearnStrategy,2023.2.3,Win32,59.88023952,1,1,10,0.064210848,2.77554E-05,1,0,0,1.2432,rock_grid_rect_2,4,12,-1,-1,1.243,0.339611457,-0.393665775,1,0,0,2.8721,Pumice_rect,8,2.872,0,9,0,9,0,1,,,,,,,,,,,,,
64427a7ac5edfedbe0c2779b,TCN,2024-06-24_17h37.16.520,LearnStrategy,2023.2.3,Win32,59.88023952,1,1,11,-0.049461173,-0.011986419,1,0,0,1.8114,rock_grid_rect_2,5,05,-1,-1,1.811,0.148309639,-0.400134903,1,0,0,7.2933,Peridotite_rect,7,7.293,0,10,0,10,0,1,,,,,,,,,,,,,
64427a7ac5edfedbe0c2779b,TCN,2024-06-24_17h37.16.520,LearnStrategy,2023.2.3,Win32,59.88023952,1,1,12,-0.066096215,-0.009213912,1,0,0,1.3593,rock_grid_rect_2,6,15,-1,-1,1.359,-0.452396339,-0.403831557,1,0,0,1.5878,Obsidian_rect,5,1.588,0,11,0,11,0,1,,,,,,,,,,,,,
64427a7ac5edfedbe0c2779b,TCN,2024-06-24_17h37.16.520,LearnStrategy,2023.2.3,Win32,59.88023952,1,1,13,0.02816849,0.018511024,1,0,0,0.9327,rock_grid_rect_2,7,13,-1,-1,0.933,0.115963935,-0.380727387,1,0,0,1.4699,Peridotite_rect,7,1.47,1,12,0,12,0,1,,,,,,,,,,,,,
64427a7ac5edfedbe0c2779b,TCN,2024-06-24_17h37.16.520,LearnStrategy,2023.2.3,Win32,59.88023952,1,1,14,0.024471836,0.024055972,1,0,0,0.8629,rock_grid_rect_2,8,06,-1,-1,0.863,-0.090124365,-0.410300684,1,0,0,1.4835,Pegmatite_rect,6,1.483,0,13,0,13,0,1,,,,,,,,,,,,,
64427a7ac5edfedbe0c2779b,TCN,2024-06-24_17h37.16.520,LearnStrategy,2023.2.3,Win32,59.88023952,1,1,15,-0.000480627,0.004648589,1,0,0,0.8984,rock_grid_rect_2,3,08,-1,-1,0.898,0.139992284,-0.250420457,1,0,0,2.7883,Diorite_rect,3,2.788,1,14,0,14,0,1,,,,,,,,,,,,,
64427a7ac5edfedbe0c2779b,TCN,2024-06-24_17h37.16.520,LearnStrategy,2023.2.3,Win32,59.88023952,1,1,16,0.065135028,0.016662664,1,0,0,1.1454,rock_grid_rect_2,4,13,-1,-1,1.145,0.405227112,-0.24949621,1,0,0,1.9401,Gabbro_rect,4,1.94,1,15,0,15,0,1,,,,,,,,,,,,,
64427a7ac5edfedbe0c2779b,TCN,2024-06-24_17h37.16.520,LearnStrategy,2023.2.3,Win32,59.88023952,1,2,1,,,,,,,,3,07,,,,,,,,,,,4,15.154,0,,,,,,0.407999453,-0.250420457,1,0,0,15.1535,Gabbro_rect,0,0,0,0,1,
64427a7ac5edfedbe0c2779b,TCN,2024-06-24_17h37.16.520,LearnStrategy,2023.2.3,Win32,59.88023952,1,2,2,,,,,,,,8,15,,,,,,,,,,,7,6.043,0,,,,,,0.126129783,-0.386272468,1,0,0,6.0434,Peridotite_rect,1,0,1,0,1,
64427a7ac5edfedbe0c2779b,TCN,2024-06-24_17h37.16.520,LearnStrategy,2023.2.3,Win32,59.88023952,1,2,3,,,,,,,,4,05,,,,,,,,,,,5,2.09,0,,,,,,-0.369221661,-0.396438249,1,0,0,2.0899,Obsidian_rect,2,0,2,0,1,
64427a7ac5edfedbe0c2779b,TCN,2024-06-24_17h37.16.520,LearnStrategy,2023.2.3,Win32,59.88023952,1,2,4,,,,,,,,7,02,,,,,,,,,,,2,2.535,0,,,,,,-0.150195006,-0.242103036,1,0,0,2.5346,Basalt_rect,3,0,3,0,1,
64427a7ac5edfedbe0c2779b,TCN,2024-06-24_17h37.16.520,LearnStrategy,2023.2.3,Win32,59.88023952,1,2,5,,,,,,,,2,14,,,,,,,,,,,8,6.598,0,,,,,,0.464373573,-0.405679784,1,0,0,6.5979,Pumice_rect,4,0,4,0,1,
64427a7ac5edfedbe0c2779b,TCN,2024-06-24_17h37.16.520,LearnStrategy,2023.2.3,Win32,59.88023952,1,2,6,,,,,,,,6,06,,,,,,,,,,,4,1.233,0,,,,,,0.349777371,-0.250420457,1,0,0,1.2326,Gabbro_rect,5,0,5,0,1,
64427a7ac5edfedbe0c2779b,TCN,2024-06-24_17h37.16.520,LearnStrategy,2023.2.3,Win32,59.88023952,1,2,7,,,,,,,,2,08,,,,,,,,,,,1,2.049,0,,,,,,-0.448699718,-0.24949621,1,0,0,2.0487,Andesite_rect,6,0,6,0,1,
64427a7ac5edfedbe0c2779b,TCN,2024-06-24_17h37.16.520,LearnStrategy,2023.2.3,Win32,59.88023952,1,2,8,,,,,,,,3,13,,,,,,,,,,,5,1.618,0,,,,,,-0.349814245,-0.409376438,1,0,0,1.6176,Obsidian_rect,7,0,7,0,1,
64427a7ac5edfedbe0c2779b,TCN,2024-06-24_17h37.16.520,LearnStrategy,2023.2.3,Win32,59.88023952,1,2,9,,,,,,,,5,08,,,,,,,,,,,6,1.074,0,,,,,,-0.15574002,-0.402907443,1,0,0,1.0737,Pegmatite_rect,8,0,8,0,1,
64427a7ac5edfedbe0c2779b,TCN,2024-06-24_17h37.16.520,LearnStrategy,2023.2.3,Win32,59.88023952,1,2,10,,,,,,,,5,12,,,,,,,,,,,6,0.683,0,,,,,,-0.15574002,-0.401983197,1,0,0,0.6828,Pegmatite_rect,9,0,9,0,1,
64427a7ac5edfedbe0c2779b,TCN,2024-06-24_17h37.16.520,LearnStrategy,2023.2.3,Win32,59.88023952,1,2,11,,,,,,,,7,08,,,,,,,,,,,2,1.778,0,,,,,,-0.134484344,-0.232861435,1,0,0,1.7783,Basalt_rect,10,0,10,0,1,
64427a7ac5edfedbe0c2779b,TCN,2024-06-24_17h37.16.520,LearnStrategy,2023.2.3,Win32,59.88023952,1,2,12,,,,,,,,4,11,,,,,,,,,,,7,1.552,0,,,,,,0.135371451,-0.419542352,1,0,0,1.5521,Peridotite_rect,11,0,11,0,1,
64427a7ac5edfedbe0c2779b,TCN,2024-06-24_17h37.16.520,LearnStrategy,2023.2.3,Win32,59.88023952,1,2,13,,,,,,,,1,11,,,,,,,,,,,8,2.994,0,,,,,,0.401530392,-0.393665775,1,0,0,2.9943,Pumice_rect,12,0,12,0,1,
64427a7ac5edfedbe0c2779b,TCN,2024-06-24_17h37.16.520,LearnStrategy,2023.2.3,Win32,59.88023952,1,2,14,,,,,,,,6,12,,,,,,,,,,,5,2.499,0,,,,,,-0.421899028,-0.408452391,1,0,0,2.499,Obsidian_rect,13,0,13,0,1,
64427a7ac5edfedbe0c2779b,TCN,2024-06-24_17h37.16.520,LearnStrategy,2023.2.3,Win32,59.88023952,1,2,15,,,,,,,,8,04,,,,,,,,,,,4,2.042,0,,,,,,0.360867266,-0.252268751,1,0,0,2.0416,Gabbro_rect,14,0,14,0,1,
64427a7ac5edfedbe0c2779b,TCN,2024-06-24_17h37.16.520,LearnStrategy,2023.2.3,Win32,59.88023952,1,2,16,,,,,,,,1,04,,,,,,,,,,,3,3.095,0,,,,,,0.155703013,-0.243951329,1,0,0,3.0951,Diorite_rect,15,0,15,0,1,
64427a7ac5edfedbe0c2779b,TCN,2024-06-24_17h37.16.520,LearnStrategy,2023.2.3,Win32,59.88023952,2,1,1,-0.047612946,-0.006441372,1,0,0,1.5958,rock_grid_rect_2,1,01,-1,-1,1.596,-0.165905802,-0.392741662,1,0,0,4.5221,Pegmatite_rect,6,4.522,0,0,0,0,0,1,,,,,,,,,,,,,
64427a7ac5edfedbe0c2779b,TCN,2024-06-24_17h37.16.520,LearnStrategy,2023.2.3,Win32,59.88023952,2,1,2,0.044803399,0.018511024,1,0,0,1.0634,rock_grid_rect_2,4,09,-1,-1,1.063,-0.446851391,-0.407528277,1,0,0,1.3875,Obsidian_rect,5,1.388,0,1,0,1,0,1,,,,,,,,,,,,,
64427a7ac5edfedbe0c2779b,TCN,2024-06-24_17h37.16.520,LearnStrategy,2023.2.3,Win32,59.88023952,2,1,3,0.164020501,-0.000896458,1,0,0,0.9767,rock_grid_rect_2,4,10,-1,-1,0.977,0.460676719,-0.253192864,1,0,0,1.4619,Gabbro_rect,4,1.462,1,2,0,2,0,1,,,,,,,,,,,,,
64427a7ac5edfedbe0c2779b,TCN,2024-06-24_17h37.16.520,LearnStrategy,2023.2.3,Win32,59.88023952,2,1,4,0.048500053,-0.018455547,1,0,0,1.3038,rock_grid_rect_2,5,09,-1,-1,1.304,-0.354435046,-0.409376438,1,0,0,1.6124,Obsidian_rect,5,1.612,1,3,0,3,0,1,,,,,,,,,,,,,
64427a7ac5edfedbe0c2779b,TCN,2024-06-24_17h37.16.520,LearnStrategy,2023.2.3,Win32,59.88023952,2,1,5,0.07992151,0.024055972,1,0,0,1.5118,rock_grid_rect_2,2,02,-1,-1,1.512,0.163096321,-0.380727387,1,0,0,1.1387,Peridotite_rect,7,1.139,0,4,0,4,0,1,,,,,,,,,,,,,
64427a7ac5edfedbe0c2779b,TCN,2024-06-24_17h37.16.520,LearnStrategy,2023.2.3,Win32,59.88023952,2,1,6,-0.04853706,0.011117684,1,0,0,1.21,rock_grid_rect_2,8,03,-1,-1,1.21,0.407999453,-0.410300684,1,0,0,2.0731,Pumice_rect,8,2.073,1,5,0,5,0,1,,,,,,,,,,,,,
64427a7ac5edfedbe0c2779b,TCN,2024-06-24_17h37.16.520,LearnStrategy,2023.2.3,Win32,59.88023952,2,1,7,-0.077186177,-0.009213912,1,0,0,1.5559,rock_grid_rect_2,6,09,-1,-1,1.556,-0.457941353,-0.395514069,1,0,0,2.4335,Obsidian_rect,5,2.433,0,6,0,6,0,1,,,,,,,,,,,,,
64427a7ac5edfedbe0c2779b,TCN,2024-06-24_17h37.16.520,LearnStrategy,2023.2.3,Win32,59.88023952,2,1,8,0.050348346,-0.005517259,1,0,0,1.3878,rock_grid_rect_2,5,10,-1,-1,1.388,-0.482893749,-0.420466532,1,0,0,1.4507,Obsidian_rect,5,1.451,1,7,0,7,0,1,,,,,,,,,,,,,
64427a7ac5edfedbe0c2779b,TCN,2024-06-24_17h37.16.520,LearnStrategy,2023.2.3,Win32,59.88023952,2,1,9,-0.039295392,0.001876049,1,0,0,1.7979,rock_grid_rect_2,2,10,-1,-1,1.798,0.374729768,-0.241178856,1,0,0,1.6218,Gabbro_rect,4,1.622,0,8,0,8,0,1,,,,,,,,,,,,,
64427a7ac5edfedbe0c2779b,TCN,2024-06-24_17h37.16.520,LearnStrategy,2023.2.3,Win32,59.88023952,2,1,10,0.047575806,0.007421063,1,0,0,1.4441,rock_grid_rect_2,7,06,-1,-1,1.444,0.140916398,-0.389969122,1,0,0,1.3735,Peridotite_rect,7,1.373,1,9,0,9,0,1,,,,,,,,,,,,,
64427a7ac5edfedbe0c2779b,TCN,2024-06-24_17h37.16.520,LearnStrategy,2023.2.3,Win32,59.88023952,2,1,11,0.036485978,-0.012910566,1,0,0,1.0259,rock_grid_rect_2,1,05,-1,-1,1.026,0.457904113,-0.417693992,1,0,0,1.25,Pumice_rect,8,1.25,0,10,0,10,0,1,,,,,,,,,,,,,
64427a7ac5edfedbe0c2779b,TCN,2024-06-24_17h37.16.520,LearnStrategy,2023.2.3,Win32,59.88023952,2,1,12,-0.170526636,0.008345177,1,0,0,1.0599,rock_grid_rect_2,3,15,-1,-1,1.06,-0.379387443,-0.235633842,1,0,0,1.1201,Andesite_rect,1,1.12,0,11,0,11,0,1,,,,,,,,,,,,,
64427a7ac5edfedbe0c2779b,TCN,2024-06-24_17h37.16.520,LearnStrategy,2023.2.3,Win32,59.88023952,2,1,13,-0.037447098,0.003724376,1,0,0,1.1003,rock_grid_rect_2,8,10,-1,-1,1.1,0.405227112,-0.24672387,1,0,0,1.4271,Gabbro_rect,4,1.427,0,12,0,12,0,1,,,,,,,,,,,,,
64427a7ac5edfedbe0c2779b,TCN,2024-06-24_17h37.16.520,LearnStrategy,2023.2.3,Win32,59.88023952,2,1,14,-0.010646475,0.000951869,1,0,0,1.7734,rock_grid_rect_2,6,16,-1,-1,1.773,0.070679909,-0.381651634,1,0,0,1.7782,Peridotite_rect,7,1.778,0,13,0,13,0,1,,,,,,,,,,,,,
64427a7ac5edfedbe0c2779b,TCN,2024-06-24_17h37.16.520,LearnStrategy,2023.2.3,Win32,59.88023952,2,1,15,-0.081806878,-0.020303807,1,0,0,1.2286,rock_grid_rect_2,7,15,-1,-1,1.229,-0.105835227,-0.24764805,1,0,0,1.8836,Basalt_rect,2,1.884,0,14,0,14,0,1,,,,,,,,,,,,,
64427a7ac5edfedbe0c2779b,TCN,2024-06-24_17h37.16.520,LearnStrategy,2023.2.3,Win32,59.88023952,2,1,16,-0.006949821,2.77554E-05,1,0,0,1.2434,rock_grid_rect_2,3,06,-1,-1,1.243,0.406151092,-0.393665775,1,0,0,1.6878,Pumice_rect,8,1.688,0,15,0,15,0,1,,,,,,,,,,,,,
64427a7ac5edfedbe0c2779b,TCN,2024-06-24_17h37.16.520,LearnStrategy,2023.2.3,Win32,59.88023952,2,2,1,,,,,,,,5,02,,,,,,,,,,,5,3.127,1,,,,,,-0.378463296,-0.403831557,1,0,0,3.1275,Obsidian_rect,0,0,0,0,1,
64427a7ac5edfedbe0c2779b,TCN,2024-06-24_17h37.16.520,LearnStrategy,2023.2.3,Win32,59.88023952,2,2,2,,,,,,,,5,11,,,,,,,,,,,5,1.79,1,,,,,,-0.396022385,-0.394589889,1,0,0,1.7895,Obsidian_rect,1,0,1,0,1,
64427a7ac5edfedbe0c2779b,TCN,2024-06-24_17h37.16.520,LearnStrategy,2023.2.3,Win32,59.88023952,2,2,3,,,,,,,,7,10,,,,,,,,,,,7,2.969,1,,,,,,0.184351997,-0.394589889,1,0,0,2.9686,Peridotite_rect,2,0,2,0,1,
64427a7ac5edfedbe0c2779b,TCN,2024-06-24_17h37.16.520,LearnStrategy,2023.2.3,Win32,59.88023952,2,2,4,,,,,,,,3,14,,,,,,,,,,,3,2.511,1,,,,,,0.152930406,-0.254117111,1,0,0,2.5113,Diorite_rect,3,0,3,0,1,
64427a7ac5edfedbe0c2779b,TCN,2024-06-24_17h37.16.520,LearnStrategy,2023.2.3,Win32,59.88023952,2,2,5,,,,,,,,7,05,,,,,,,,,,,2,1.515,0,,,,,,-0.213038121,-0.252268751,1,0,0,1.5147,Basalt_rect,4,0,4,0,1,
64427a7ac5edfedbe0c2779b,TCN,2024-06-24_17h37.16.520,LearnStrategy,2023.2.3,Win32,59.88023952,2,2,6,,,,,,,,3,09,,,,,,,,,,,3,1.899,1,,,,,,0.164020501,-0.236558022,1,0,0,1.899,Diorite_rect,5,0,5,0,1,
64427a7ac5edfedbe0c2779b,TCN,2024-06-24_17h37.16.520,LearnStrategy,2023.2.3,Win32,59.88023952,2,2,7,,,,,,,,1,14,,,,,,,,,,,3,1.079,0,,,,,,0.190821258,-0.259662058,1,0,0,1.0787,Diorite_rect,6,0,6,0,1,
64427a7ac5edfedbe0c2779b,TCN,2024-06-24_17h37.16.520,LearnStrategy,2023.2.3,Win32,59.88023952,2,2,8,,,,,,,,6,03,,,,,,,,,,,4,1.333,0,,,,,,0.360867266,-0.231937188,1,0,0,1.3326,Gabbro_rect,7,0,7,0,1,
64427a7ac5edfedbe0c2779b,TCN,2024-06-24_17h37.16.520,LearnStrategy,2023.2.3,Win32,59.88023952,2,2,9,,,,,,,,6,13,,,,,,,,,,,4,0.8,0,,,,,,0.360867266,-0.231937188,1,0,0,0.8002,Gabbro_rect,8,0,8,0,1,
64427a7ac5edfedbe0c2779b,TCN,2024-06-24_17h37.16.520,LearnStrategy,2023.2.3,Win32,59.88023952,2,2,10,,,,,,,,1,03,,,,,,,,,,,1,1.361,1,,,,,,-0.489362877,-0.257813765,1,0,0,1.3608,Andesite_rect,9,0,9,0,1,
64427a7ac5edfedbe0c2779b,TCN,2024-06-24_17h37.16.520,LearnStrategy,2023.2.3,Win32,59.88023952,2,2,11,,,,,,,,8,05,,,,,,,,,,,8,1.883,1,,,,,,0.445890104,-0.399210723,1,0,0,1.8832,Pumice_rect,10,0,10,0,1,
64427a7ac5edfedbe0c2779b,TCN,2024-06-24_17h37.16.520,LearnStrategy,2023.2.3,Win32,59.88023952,2,2,12,,,,,,,,2,04,,,,,,,,,,,6,3.509,0,,,,,,-0.091048545,-0.403831557,1,0,0,3.5091,Pegmatite_rect,11,0,11,0,1,
64427a7ac5edfedbe0c2779b,TCN,2024-06-24_17h37.16.520,LearnStrategy,2023.2.3,Win32,59.88023952,2,2,13,,,,,,,,4,01,,,,,,,,,,,2,2.485,0,,,,,,-0.119697662,-0.239330562,1,0,0,2.4854,Basalt_rect,12,0,12,0,1,
64427a7ac5edfedbe0c2779b,TCN,2024-06-24_17h37.16.520,LearnStrategy,2023.2.3,Win32,59.88023952,2,2,14,,,,,,,,8,13,,,,,,,,,,,8,1.619,1,,,,,,0.437572816,-0.379803274,1,0,0,1.6194,Pumice_rect,13,0,13,0,1,
64427a7ac5edfedbe0c2779b,TCN,2024-06-24_17h37.16.520,LearnStrategy,2023.2.3,Win32,59.88023952,2,2,15,,,,,,,,4,03,,,,,,,,,,,4,1.567,1,,,,,,0.374729768,-0.245799557,1,0,0,1.5673,Gabbro_rect,14,0,14,0,1,
64427a7ac5edfedbe0c2779b,TCN,2024-06-24_17h37.16.520,LearnStrategy,2023.2.3,Win32,59.88023952,2,2,16,,,,,,,,2,05,,,,,,,,,,,3,1.274,0,,,,,,0.121508882,-0.239330562,1,0,0,1.2735,Diorite_rect,15,0,15,0,1,
64427a7ac5edfedbe0c2779b,TCN,2024-06-24_17h37.16.520,LearnStrategy,2023.2.3,Win32,59.88023952,3,1,1,-0.090124365,-0.012910566,1,0,0,8.4259,rock_grid_rect_2,2,11,-1,-1,8.426,0.438496797,-0.407528277,1,0,0,2.3598,Pumice_rect,8,2.36,0,0,0,0,0,1,,,,,,,,,,,,,
64427a7ac5edfedbe0c2779b,TCN,2024-06-24_17h37.16.520,LearnStrategy,2023.2.3,Win32,59.88023952,3,1,2,-0.033750445,0.00649685,1,0,0,1.0805,rock_grid_rect_2,3,16,-1,-1,1.081,0.098404779,-0.229164781,1,0,0,0.8386,Diorite_rect,3,0.839,1,1,0,1,0,1,,,,,,,,,,,,,
64427a7ac5edfedbe0c2779b,TCN,2024-06-24_17h37.16.520,LearnStrategy,2023.2.3,Win32,59.88023952,3,1,3,-0.035598738,-0.010138093,1,0,0,0.9127,rock_grid_rect_2,4,16,-1,-1,0.913,0.407075339,-0.24672387,1,0,0,1.0527,Gabbro_rect,4,1.053,1,2,0,2,0,1,,,,,,,,,,,,,
64427a7ac5edfedbe0c2779b,TCN,2024-06-24_17h37.16.520,LearnStrategy,2023.2.3,Win32,59.88023952,3,1,4,-0.008797981,-0.019379727,1,0,0,0.8787,rock_grid_rect_2,3,10,-1,-1,0.879,0.374729768,-0.238406382,1,0,0,1.0241,Gabbro_rect,4,1.024,0,3,0,3,0,1,,,,,,,,,,,,,
64427a7ac5edfedbe0c2779b,TCN,2024-06-24_17h37.16.520,LearnStrategy,2023.2.3,Win32,59.88023952,3,1,5,-0.02081219,-0.007365586,1,0,0,0.9137,rock_grid_rect_2,6,11,-1,-1,0.914,0.071604156,-0.241178856,1,0,0,2.1052,Diorite_rect,3,2.105,0,4,0,4,0,1,,,,,,,,,,,,,
64427a7ac5edfedbe0c2779b,TCN,2024-06-24_17h37.16.520,LearnStrategy,2023.2.3,Win32,59.88023952,3,1,6,-0.034674558,-0.003668932,1,0,0,1.0817,rock_grid_rect_2,1,09,-1,-1,1.082,-0.206568927,-0.24487551,1,0,0,1.8205,Basalt_rect,2,1.821,0,5,0,5,0,1,,,,,,,,,,,,,
64427a7ac5edfedbe0c2779b,TCN,2024-06-24_17h37.16.520,LearnStrategy,2023.2.3,Win32,59.88023952,3,1,7,-0.080882831,0.00926939,1,0,0,1.5102,rock_grid_rect_2,5,07,-1,-1,1.51,-0.462562153,-0.401983197,1,0,0,1.4401,Obsidian_rect,5,1.44,1,6,0,6,0,1,,,,,,,,,,,,,
64427a7ac5edfedbe0c2779b,TCN,2024-06-24_17h37.16.520,LearnStrategy,2023.2.3,Win32,59.88023952,3,1,8,-0.040219639,2.77554E-05,1,0,0,0.7122,rock_grid_rect_2,6,07,-1,-1,0.712,-0.378463296,-0.402907443,1,0,0,1.1057,Obsidian_rect,5,1.106,0,7,0,7,0,1,,,,,,,,,,,,,
64427a7ac5edfedbe0c2779b,TCN,2024-06-24_17h37.16.520,LearnStrategy,2023.2.3,Win32,59.88023952,3,1,9,-0.003253034,0.01296601,1,0,0,1.0629,rock_grid_rect_2,2,16,-1,-1,1.063,0.366412081,-0.238406382,1,0,0,1.5596,Gabbro_rect,4,1.56,0,8,0,8,0,1,,,,,,,,,,,,,
64427a7ac5edfedbe0c2779b,TCN,2024-06-24_17h37.16.520,LearnStrategy,2023.2.3,Win32,59.88023952,3,1,10,-0.058702908,-0.003668932,1,0,0,1.0313,rock_grid_rect_2,7,14,-1,-1,1.031,-0.162209081,-0.232861435,1,0,0,1.8071,Basalt_rect,2,1.807,0,9,0,9,0,1,,,,,,,,,,,,,
64427a7ac5edfedbe0c2779b,TCN,2024-06-24_17h37.16.520,LearnStrategy,2023.2.3,Win32,59.88023952,3,1,11,0.004140207,-0.014758893,1,0,0,0.8122,rock_grid_rect_2,8,14,-1,-1,0.812,0.406151092,-0.397362429,1,0,0,1.5853,Pumice_rect,8,1.585,1,10,0,10,0,1,,,,,,,,,,,,,
64427a7ac5edfedbe0c2779b,TCN,2024-06-24_17h37.16.520,LearnStrategy,2023.2.3,Win32,59.88023952,3,1,12,0.050348346,-0.005517259,1,0,0,1.1116,rock_grid_rect_2,7,07,-1,-1,1.112,-0.366449154,-0.258737945,1,0,0,1.5866,Andesite_rect,1,1.587,0,11,0,11,0,1,,,,,,,,,,,,,
64427a7ac5edfedbe0c2779b,TCN,2024-06-24_17h37.16.520,LearnStrategy,2023.2.3,Win32,59.88023952,3,1,13,0.00044362,-0.019379727,1,0,0,1.1297,rock_grid_rect_2,4,15,-1,-1,1.13,0.340535704,-0.255965404,1,0,0,1.9481,Gabbro_rect,4,1.948,1,12,0,12,0,1,,,,,,,,,,,,,
64427a7ac5edfedbe0c2779b,TCN,2024-06-24_17h37.16.520,LearnStrategy,2023.2.3,Win32,59.88023952,3,1,14,0.037410158,0.001876049,1,0,0,1.4458,rock_grid_rect_2,8,16,-1,-1,1.446,0.38581953,-0.248572097,1,0,0,1.2001,Gabbro_rect,4,1.2,0,13,0,13,0,1,,,,,,,,,,,,,
64427a7ac5edfedbe0c2779b,TCN,2024-06-24_17h37.16.520,LearnStrategy,2023.2.3,Win32,59.88023952,3,1,15,0.02632013,-0.006441372,1,0,0,1.1642,rock_grid_rect_2,1,10,-1,-1,1.164,0.12982637,-0.254117111,1,0,0,2.0515,Diorite_rect,3,2.052,0,14,0,14,0,1,,,,,,,,,,,,,
64427a7ac5edfedbe0c2779b,TCN,2024-06-24_17h37.16.520,LearnStrategy,2023.2.3,Win32,59.88023952,3,1,16,0.006912681,0.011117684,1,0,0,1.5143,rock_grid_rect_2,5,06,-1,-1,1.514,-0.394174058,-0.405679784,1,0,0,1.269,Obsidian_rect,5,1.269,1,15,0,15,0,1,,,,,,,,,,,,,
64427a7ac5edfedbe0c2779b,TCN,2024-06-24_17h37.16.520,LearnStrategy,2023.2.3,Win32,59.88023952,3,2,1,,,,,,,,4,08,,,,,,,,,,,4,3.648,1,,,,,,0.334990623,-0.234709728,1,0,0,3.648,Gabbro_rect,0,0,0,0,1,
64427a7ac5edfedbe0c2779b,TCN,2024-06-24_17h37.16.520,LearnStrategy,2023.2.3,Win32,59.88023952,3,2,2,,,,,,,,3,11,,,,,,,,,,,3,2.144,1,,,,,,0.099329093,-0.235633842,1,0,0,2.144,Diorite_rect,1,0,1,0,1,
64427a7ac5edfedbe0c2779b,TCN,2024-06-24_17h37.16.520,LearnStrategy,2023.2.3,Win32,59.88023952,3,2,3,,,,,,,,7,16,,,,,,,,,,,1,2.072,0,,,,,,-0.396946598,-0.258737945,1,0,0,2.0716,Andesite_rect,2,0,2,0,1,
64427a7ac5edfedbe0c2779b,TCN,2024-06-24_17h37.16.520,LearnStrategy,2023.2.3,Win32,59.88023952,3,2,4,,,,,,,,5,16,,,,,,,,,,,5,1.545,1,,,,,,-0.412657327,-0.389045008,1,0,0,1.5453,Obsidian_rect,3,0,3,0,1,
64427a7ac5edfedbe0c2779b,TCN,2024-06-24_17h37.16.520,LearnStrategy,2023.2.3,Win32,59.88023952,3,2,5,,,,,,,,1,07,,,,,,,,,,,7,1.183,0,,,,,,0.131674797,-0.400134903,1,0,0,1.1833,Peridotite_rect,4,0,4,0,1,
64427a7ac5edfedbe0c2779b,TCN,2024-06-24_17h37.16.520,LearnStrategy,2023.2.3,Win32,59.88023952,3,2,6,,,,,,,,2,01,,,,,,,,,,,6,1.667,0,,,,,,-0.097517739,-0.411224931,1,0,0,1.6671,Pegmatite_rect,5,0,5,0,1,
64427a7ac5edfedbe0c2779b,TCN,2024-06-24_17h37.16.520,LearnStrategy,2023.2.3,Win32,59.88023952,3,2,7,,,,,,,,1,02,,,,,,,,,,,3,2.681,0,,,,,,0.163096321,-0.24487551,1,0,0,2.6808,Diorite_rect,6,0,6,0,1,
64427a7ac5edfedbe0c2779b,TCN,2024-06-24_17h37.16.520,LearnStrategy,2023.2.3,Win32,59.88023952,3,2,8,,,,,,,,5,04,,,,,,,,,,,5,1.407,1,,,,,,-0.368297481,-0.419542352,1,0,0,1.4068,Obsidian_rect,7,0,7,0,1,
64427a7ac5edfedbe0c2779b,TCN,2024-06-24_17h37.16.520,LearnStrategy,2023.2.3,Win32,59.88023952,3,2,9,,,,,,,,6,08,,,,,,,,,,,4,1.875,0,,,,,,0.347004765,-0.257813765,1,0,0,1.8745,Gabbro_rect,8,0,8,0,1,
64427a7ac5edfedbe0c2779b,TCN,2024-06-24_17h37.16.520,LearnStrategy,2023.2.3,Win32,59.88023952,3,2,10,,,,,,,,6,10,,,,,,,,,,,4,1.234,0,,,,,,0.329445543,-0.242103036,1,0,0,1.2338,Gabbro_rect,9,0,9,0,1,
64427a7ac5edfedbe0c2779b,TCN,2024-06-24_17h37.16.520,LearnStrategy,2023.2.3,Win32,59.88023952,3,2,11,,,,,,,,3,02,,,,,,,,,,,7,1.271,0,,,,,,0.139992284,-0.399210723,1,0,0,1.2705,Peridotite_rect,10,0,10,0,1,
64427a7ac5edfedbe0c2779b,TCN,2024-06-24_17h37.16.520,LearnStrategy,2023.2.3,Win32,59.88023952,3,2,12,,,,,,,,8,08,,,,,,,,,,,8,1.061,1,,,,,,0.356246432,-0.394589889,1,0,0,1.0613,Pumice_rect,11,0,11,0,1,
64427a7ac5edfedbe0c2779b,TCN,2024-06-24_17h37.16.520,LearnStrategy,2023.2.3,Win32,59.88023952,3,2,13,,,,,,,,7,12,,,,,,,,,,,2,1.435,0,,,,,,-0.164057441,-0.257813765,1,0,0,1.4353,Basalt_rect,12,0,12,0,1,
64427a7ac5edfedbe0c2779b,TCN,2024-06-24_17h37.16.520,LearnStrategy,2023.2.3,Win32,59.88023952,3,2,14,,,,,,,,2,12,,,,,,,,,,,8,1.589,0,,,,,,0.395061198,-0.413997338,1,0,0,1.5894,Pumice_rect,13,0,13,0,1,
64427a7ac5edfedbe0c2779b,TCN,2024-06-24_17h37.16.520,LearnStrategy,2023.2.3,Win32,59.88023952,3,2,15,,,,,,,,8,02,,,,,,,,,,,8,1.069,1,,,,,,0.333142396,-0.400134903,1,0,0,1.0687,Pumice_rect,14,0,14,0,1,
64427a7ac5edfedbe0c2779b,TCN,2024-06-24_17h37.16.520,LearnStrategy,2023.2.3,Win32,59.88023952,3,2,16,,,,,,,,4,14,,,,,,,,,,,3,1.439,0,,,,,,0.122433129,-0.253192864,1,0,0,1.4392,Diorite_rect,15,0,15,0,1,
64427a7ac5edfedbe0c2779b,TCN,2024-06-24_17h37.16.520,LearnStrategy,2023.2.3,Win32,59.88023952,4,1,1,0.116888048,-0.004593045,1,0,0,37.3725,rock_grid_rect_2,7,14,-1,-1,37.372,0.378426355,-0.235633842,1,0,0,2.1687,Gabbro_rect,4,2.169,0,0,0,0,0,1,,,,,,,,,,,,,
64427a7ac5edfedbe0c2779b,TCN,2024-06-24_17h37.16.520,LearnStrategy,2023.2.3,Win32,59.88023952,4,1,2,-0.030977904,0.000951869,1,0,0,1.1793,rock_grid_rect_2,1,05,-1,-1,1.179,0.102101433,-0.384424174,1,0,0,1.7328,Peridotite_rect,7,1.733,0,1,0,1,0,1,,,,,,,,,,,,,
64427a7ac5edfedbe0c2779b,TCN,2024-06-24_17h37.16.520,LearnStrategy,2023.2.3,Win32,59.88023952,4,1,3,-0.066096215,-0.002744785,1,0,0,0.9812,rock_grid_rect_2,5,05,-1,-1,0.981,-0.353510933,-0.416769745,1,0,0,1.4324,Obsidian_rect,5,1.432,1,2,0,2,0,1,,,,,,,,,,,,,
64427a7ac5edfedbe0c2779b,TCN,2024-06-24_17h37.16.520,LearnStrategy,2023.2.3,Win32,59.88023952,4,1,4,-0.081806878,0.010193503,1,0,0,0.8153,rock_grid_rect_2,3,15,-1,-1,0.815,-0.07811029,-0.255965404,1,0,0,1.2852,Basalt_rect,2,1.285,0,3,0,3,0,1,,,,,,,,,,,,,
64427a7ac5edfedbe0c2779b,TCN,2024-06-24_17h37.16.520,LearnStrategy,2023.2.3,Win32,59.88023952,4,1,5,-0.083655371,0.013890224,1,0,0,1.0963,rock_grid_rect_2,5,14,-1,-1,1.096,-0.377539116,-0.388120828,1,0,0,1.5088,Obsidian_rect,5,1.509,1,4,0,4,0,1,,,,,,,,,,,,,
64427a7ac5edfedbe0c2779b,TCN,2024-06-24_17h37.16.520,LearnStrategy,2023.2.3,Win32,59.88023952,4,1,6,-0.064247855,0.007421063,1,0,0,0.8325,rock_grid_rect_2,3,08,-1,-1,0.832,0.384895416,-0.237482202,1,0,0,1.2863,Gabbro_rect,4,1.286,0,5,0,5,0,1,,,,,,,,,,,,,
64427a7ac5edfedbe0c2779b,TCN,2024-06-24_17h37.16.520,LearnStrategy,2023.2.3,Win32,59.88023952,4,1,7,-0.013418815,-0.020303807,1,0,0,0.9644,rock_grid_rect_2,2,11,-1,-1,0.964,0.372881408,-0.380727387,1,0,0,1.134,Pumice_rect,8,1.134,0,6,0,6,0,1,,,,,,,,,,,,,
64427a7ac5edfedbe0c2779b,TCN,2024-06-24_17h37.16.520,LearnStrategy,2023.2.3,Win32,59.88023952,4,1,8,-0.049461173,-0.000896458,1,0,0,0.827,rock_grid_rect_2,7,07,-1,-1,0.827,0.07992151,-0.236558022,1,0,0,1.7254,Diorite_rect,3,1.725,0,7,0,7,0,1,,,,,,,,,,,,,
64427a7ac5edfedbe0c2779b,TCN,2024-06-24_17h37.16.520,LearnStrategy,2023.2.3,Win32,59.88023952,4,1,9,-0.024508843,-0.011986419,1,0,0,1.5649,rock_grid_rect_2,6,09,-1,-1,1.565,-0.345193412,-0.237482202,1,0,0,1.2983,Andesite_rect,1,1.298,0,8,0,8,0,1,,,,,,,,,,,,,
64427a7ac5edfedbe0c2779b,TCN,2024-06-24_17h37.16.520,LearnStrategy,2023.2.3,Win32,59.88023952,4,1,10,-0.030977904,0.002800262,1,0,0,1.0288,rock_grid_rect_2,4,16,-1,-1,1.029,0.120584702,-0.404755737,1,0,0,1.2608,Peridotite_rect,7,1.261,0,9,0,9,0,1,,,,,,,,,,,,,
64427a7ac5edfedbe0c2779b,TCN,2024-06-24_17h37.16.520,LearnStrategy,2023.2.3,Win32,59.88023952,4,1,11,-0.027281251,0.019435138,1,0,0,0.8813,rock_grid_rect_2,1,01,-1,-1,0.881,0.353473826,-0.230088894,1,0,0,1.302,Gabbro_rect,4,1.302,0,10,0,10,0,1,,,,,,,,,,,,,
64427a7ac5edfedbe0c2779b,TCN,2024-06-24_17h37.16.520,LearnStrategy,2023.2.3,Win32,59.88023952,4,1,12,-0.063323609,0.001876049,1,0,0,1.3631,rock_grid_rect_2,8,09,-1,-1,1.363,0.46252508,-0.400134903,1,0,0,1.4,Pumice_rect,8,1.4,1,11,0,11,0,1,,,,,,,,,,,,,
64427a7ac5edfedbe0c2779b,TCN,2024-06-24_17h37.16.520,LearnStrategy,2023.2.3,Win32,59.88023952,4,1,13,-0.172374929,0.002800262,1,0,0,0.9306,rock_grid_rect_2,2,16,-1,-1,0.931,-0.112304288,-0.229164781,1,0,0,1.1533,Basalt_rect,2,1.153,1,12,0,12,0,1,,,,,,,,,,,,,
64427a7ac5edfedbe0c2779b,TCN,2024-06-24_17h37.16.520,LearnStrategy,2023.2.3,Win32,59.88023952,4,1,14,-0.028205497,0.01204183,1,0,0,0.9642,rock_grid_rect_2,4,09,-1,-1,0.964,0.114115708,-0.255965404,1,0,0,1.2353,Diorite_rect,3,1.235,0,13,0,13,0,1,,,,,,,,,,,,,
64427a7ac5edfedbe0c2779b,TCN,2024-06-24_17h37.16.520,LearnStrategy,2023.2.3,Win32,59.88023952,4,1,15,-0.065172102,2.77554E-05,1,0,0,0.7823,rock_grid_rect_2,8,03,-1,-1,0.782,0.348852859,-0.413997338,1,0,0,1.4045,Pumice_rect,8,1.404,1,14,0,14,0,1,,,,,,,,,,,,,
64427a7ac5edfedbe0c2779b,TCN,2024-06-24_17h37.16.520,LearnStrategy,2023.2.3,Win32,59.88023952,4,1,16,-0.038371279,0.020359318,1,0,0,0.8941,rock_grid_rect_2,6,05,-1,-1,0.894,0.318355781,-0.242103036,1,0,0,1.8017,Gabbro_rect,4,1.802,0,15,0,15,0,1,,,,,,,,,,,,,
64427a7ac5edfedbe0c2779b,TCN,2024-06-24_17h37.16.520,LearnStrategy,2023.2.3,Win32,59.88023952,4,2,1,,,,,,,,2,12,,,,,,,,,,,8,19.386,0,,,,,,0.446814484,-0.413073091,1,0,0,19.3859,Pumice_rect,0,0,0,0,1,
64427a7ac5edfedbe0c2779b,TCN,2024-06-24_17h37.16.520,LearnStrategy,2023.2.3,Win32,59.88023952,4,2,2,,,,,,,,8,15,,,,,,,,,,,4,162.118,0,,,,,,0.346080651,-0.251344704,1,0,0,162.1183,Gabbro_rect,1,0,1,0,1,
64427a7ac5edfedbe0c2779b,TCN,2024-06-24_17h37.16.520,LearnStrategy,2023.2.3,Win32,59.88023952,4,2,3,,,,,,,,2,08,,,,,,,,,,,6,3.422,0,,,,,,-0.115076828,-0.417693992,1,0,0,3.4219,Pegmatite_rect,2,0,2,0,1,
64427a7ac5edfedbe0c2779b,TCN,2024-06-24_17h37.16.520,LearnStrategy,2023.2.3,Win32,59.88023952,4,2,4,,,,,,,,6,12,,,,,,,,,,,3,1.263,0,,,,,,0.07807335,-0.262434599,1,0,0,1.2628,Diorite_rect,3,0,3,0,1,
64427a7ac5edfedbe0c2779b,TCN,2024-06-24_17h37.16.520,LearnStrategy,2023.2.3,Win32,59.88023952,4,2,5,,,,,,,,6,10,,,,,,,,,,,1,1.754,0,,,,,,-0.403415692,-0.265207139,1,0,0,1.7538,Andesite_rect,4,0,4,0,1,
64427a7ac5edfedbe0c2779b,TCN,2024-06-24_17h37.16.520,LearnStrategy,2023.2.3,Win32,59.88023952,4,2,6,,,,,,,,5,08,,,,,,,,,,,5,1.217,1,,,,,,-0.35628344,-0.386272468,1,0,0,1.2167,Obsidian_rect,5,0,5,0,1,
64427a7ac5edfedbe0c2779b,TCN,2024-06-24_17h37.16.520,LearnStrategy,2023.2.3,Win32,59.88023952,4,2,7,,,,,,,,4,01,,,,,,,,,,,2,1.5,0,,,,,,-0.187161544,-0.255965404,1,0,0,1.5004,Basalt_rect,6,0,6,0,1,
64427a7ac5edfedbe0c2779b,TCN,2024-06-24_17h37.16.520,LearnStrategy,2023.2.3,Win32,59.88023952,4,2,8,,,,,,,,4,08,,,,,,,,,,,4,1.643,1,,,,,,0.320204141,-0.255041291,1,0,0,1.6432,Gabbro_rect,7,0,7,0,1,
64427a7ac5edfedbe0c2779b,TCN,2024-06-24_17h37.16.520,LearnStrategy,2023.2.3,Win32,59.88023952,4,2,9,,,,,,,,3,11,,,,,,,,,,,7,1.87,0,,,,,,0.086390771,-0.412149045,1,0,0,1.8696,Peridotite_rect,8,0,8,0,1,
64427a7ac5edfedbe0c2779b,TCN,2024-06-24_17h37.16.520,LearnStrategy,2023.2.3,Win32,59.88023952,4,2,10,,,,,,,,8,04,,,,,,,,,,,8,0.981,1,,,,,,0.366412081,-0.389045008,1,0,0,0.9812,Pumice_rect,9,0,9,0,1,
64427a7ac5edfedbe0c2779b,TCN,2024-06-24_17h37.16.520,LearnStrategy,2023.2.3,Win32,59.88023952,4,2,11,,,,,,,,1,02,,,,,,,,,,,8,1.219,0,,,,,,0.354398072,-0.385348288,1,0,0,1.2191,Pumice_rect,10,0,10,0,1,
64427a7ac5edfedbe0c2779b,TCN,2024-06-24_17h37.16.520,LearnStrategy,2023.2.3,Win32,59.88023952,4,2,12,,,,,,,,3,09,,,,,,,,,,,2,1.139,0,,,,,,-0.082731124,-0.256889651,1,0,0,1.1389,Basalt_rect,11,0,11,0,1,
64427a7ac5edfedbe0c2779b,TCN,2024-06-24_17h37.16.520,LearnStrategy,2023.2.3,Win32,59.88023952,4,2,13,,,,,,,,7,16,,,,,,,,,,,3,0.917,0,,,,,,0.100253273,-0.234709728,1,0,0,0.9172,Diorite_rect,12,0,12,0,1,
64427a7ac5edfedbe0c2779b,TCN,2024-06-24_17h37.16.520,LearnStrategy,2023.2.3,Win32,59.88023952,4,2,14,,,,,,,,7,12,,,,,,,,,,,6,0.919,0,,,,,,-0.115076828,-0.388120828,1,0,0,0.9193,Pegmatite_rect,13,0,13,0,1,
64427a7ac5edfedbe0c2779b,TCN,2024-06-24_17h37.16.520,LearnStrategy,2023.2.3,Win32,59.88023952,4,2,15,,,,,,,,1,03,,,,,,,,,,,4,1.521,0,,,,,,0.352549712,-0.250420457,1,0,0,1.5207,Gabbro_rect,14,0,14,0,1,
64427a7ac5edfedbe0c2779b,TCN,2024-06-24_17h37.16.520,LearnStrategy,2023.2.3,Win32,59.88023952,4,2,16,,,,,,,,5,02,,,,,,,,,,,5,1.339,1,,,,,,-0.389553257,-0.395514069,1,0,0,1.3393,Obsidian_rect,15,0,15,0,1,
64427a7ac5edfedbe0c2779b,TCN,2024-06-24_17h37.16.520,LearnStrategy,2023.2.3,Win32,59.88023952,5,1,1,-0.140953339,0.005572703,1,0,0,66.8947,rock_grid_rect_2,2,09,-1,-1,66.895,0.407075339,-0.24949621,1,0,0,1.937,Gabbro_rect,4,1.937,0,0,0,0,0,1,,,,,,,,,,,,,
64427a7ac5edfedbe0c2779b,TCN,2024-06-24_17h37.16.520,LearnStrategy,2023.2.3,Win32,59.88023952,5,1,2,0.02724431,-0.01660722,1,0,0,1.2291,rock_grid_rect_2,3,10,-1,-1,1.229,0.192669551,-0.245799557,1,0,0,1.5684,Diorite_rect,3,1.568,1,1,0,1,0,1,,,,,,,,,,,,,
64427a7ac5edfedbe0c2779b,TCN,2024-06-24_17h37.16.520,LearnStrategy,2023.2.3,Win32,59.88023952,5,1,3,0.008761041,-0.001820572,1,0,0,1.0961,rock_grid_rect_2,6,11,-1,-1,1.096,-0.150195006,-0.240254676,1,0,0,1.6041,Basalt_rect,2,1.604,0,2,0,2,0,1,,,,,,,,,,,,,
64427a7ac5edfedbe0c2779b,TCN,2024-06-24_17h37.16.520,LearnStrategy,2023.2.3,Win32,59.88023952,5,1,4,-0.028205497,-0.01660722,1,0,0,0.8297,rock_grid_rect_2,6,07,-1,-1,0.83,-0.12524261,-0.399210723,1,0,0,1.2451,Pegmatite_rect,6,1.245,1,3,0,3,0,1,,,,,,,,,,,,,
64427a7ac5edfedbe0c2779b,TCN,2024-06-24_17h37.16.520,LearnStrategy,2023.2.3,Win32,59.88023952,5,1,5,-0.090124365,0.001876049,1,0,0,1.0628,rock_grid_rect_2,1,09,-1,-1,1.063,0.36363974,-0.255041291,1,0,0,1.7887,Gabbro_rect,4,1.789,0,4,0,4,0,1,,,,,,,,,,,,,
64427a7ac5edfedbe0c2779b,TCN,2024-06-24_17h37.16.520,LearnStrategy,2023.2.3,Win32,59.88023952,5,1,6,0.047575806,-0.003668932,1,0,0,0.9148,rock_grid_rect_2,8,06,-1,-1,0.915,-0.421899028,-0.24487551,1,0,0,3.4413,Andesite_rect,1,3.441,0,5,0,5,0,1,,,,,,,,,,,,,
64427a7ac5edfedbe0c2779b,TCN,2024-06-24_17h37.16.520,LearnStrategy,2023.2.3,Win32,59.88023952,5,1,7,0.02724431,-0.020303807,1,0,0,0.9642,rock_grid_rect_2,8,10,-1,-1,0.964,0.434800209,-0.397362429,1,0,0,1.2552,Pumice_rect,8,1.255,1,6,0,6,0,1,,,,,,,,,,,,,
64427a7ac5edfedbe0c2779b,TCN,2024-06-24_17h37.16.520,LearnStrategy,2023.2.3,Win32,59.88023952,5,1,8,-0.105835227,2.77554E-05,1,0,0,2.199,rock_grid_rect_2,7,15,-1,-1,2.199,0.125205536,-0.237482202,1,0,0,1.6015,Diorite_rect,3,1.601,0,7,0,7,0,1,,,,,,,,,,,,,
64427a7ac5edfedbe0c2779b,TCN,2024-06-24_17h37.16.520,LearnStrategy,2023.2.3,Win32,59.88023952,5,1,9,0.040182498,2.77554E-05,1,0,0,0.9639,rock_grid_rect_2,4,15,-1,-1,0.964,-0.189934085,-0.245799557,1,0,0,1.5164,Basalt_rect,2,1.516,0,8,0,8,0,1,,,,,,,,,,,,,
64427a7ac5edfedbe0c2779b,TCN,2024-06-24_17h37.16.520,LearnStrategy,2023.2.3,Win32,59.88023952,5,1,10,0.005064454,0.024980119,1,0,0,1.0162,rock_grid_rect_2,5,07,-1,-1,1.016,-0.430216449,-0.415845698,1,0,0,1.7256,Obsidian_rect,5,1.726,1,9,0,9,0,1,,,,,,,,,,,,,
64427a7ac5edfedbe0c2779b,TCN,2024-06-24_17h37.16.520,LearnStrategy,2023.2.3,Win32,59.88023952,5,1,11,-0.053157827,0.013890224,1,0,0,0.8966,rock_grid_rect_2,7,13,-1,-1,0.897,0.378426355,-0.24764805,1,0,0,2.3536,Gabbro_rect,4,2.354,0,10,0,10,0,1,,,,,,,,,,,,,
64427a7ac5edfedbe0c2779b,TCN,2024-06-24_17h37.16.520,LearnStrategy,2023.2.3,Win32,59.88023952,5,1,12,0.066983388,2.77554E-05,1,0,0,0.9639,rock_grid_rect_2,4,10,-1,-1,0.964,0.139992284,-0.240254676,1,0,0,1.4869,Diorite_rect,3,1.487,0,11,0,11,0,1,,,,,,,,,,,,,
64427a7ac5edfedbe0c2779b,TCN,2024-06-24_17h37.16.520,LearnStrategy,2023.2.3,Win32,59.88023952,5,1,13,0.048500053,-0.021228054,1,0,0,0.9327,rock_grid_rect_2,3,16,-1,-1,0.933,-0.157588314,-0.243027216,1,0,0,1.3012,Basalt_rect,2,1.301,0,12,0,12,0,1,,,,,,,,,,,,,
64427a7ac5edfedbe0c2779b,TCN,2024-06-24_17h37.16.520,LearnStrategy,2023.2.3,Win32,59.88023952,5,1,14,-0.113228535,0.00926939,1,0,0,1.1626,rock_grid_rect_2,5,09,-1,-1,1.163,-0.407112346,-0.396438249,1,0,0,1.1869,Obsidian_rect,5,1.187,1,13,0,13,0,1,,,,,,,,,,,,,
64427a7ac5edfedbe0c2779b,TCN,2024-06-24_17h37.16.520,LearnStrategy,2023.2.3,Win32,59.88023952,5,1,15,0.015230235,0.018511024,1,0,0,1.1277,rock_grid_rect_2,1,10,-1,-1,1.128,0.354398072,-0.243951329,1,0,0,1.2687,Gabbro_rect,4,1.269,0,14,0,14,0,1,,,,,,,,,,,,,
64427a7ac5edfedbe0c2779b,TCN,2024-06-24_17h37.16.520,LearnStrategy,2023.2.3,Win32,59.88023952,5,1,16,-0.073489523,-0.001820572,1,0,0,0.8448,rock_grid_rect_2,2,10,-1,-1,0.845,0.110419054,-0.391817415,1,0,0,2.1507,Peridotite_rect,7,2.151,0,15,0,15,0,1,,,,,,,,,,,,,
64427a7ac5edfedbe0c2779b,TCN,2024-06-24_17h37.16.520,LearnStrategy,2023.2.3,Win32,59.88023952,5,2,1,,,,,,,,2,05,,,,,,,,,,,4,2.471,0,,,,,,0.359943153,-0.248572097,1,0,0,2.471,Gabbro_rect,0,0,0,0,1,
64427a7ac5edfedbe0c2779b,TCN,2024-06-24_17h37.16.520,LearnStrategy,2023.2.3,Win32,59.88023952,5,2,2,,,,,,,,1,04,,,,,,,,,,,2,1.547,0,,,,,,-0.094745199,-0.24764805,1,0,0,1.5468,Basalt_rect,1,0,1,0,1,
64427a7ac5edfedbe0c2779b,TCN,2024-06-24_17h37.16.520,LearnStrategy,2023.2.3,Win32,59.88023952,5,2,3,,,,,,,,1,07,,,,,,,,,,,7,1.159,0,,,,,,0.173262169,-0.417693992,1,0,0,1.1588,Peridotite_rect,2,0,2,0,1,
64427a7ac5edfedbe0c2779b,TCN,2024-06-24_17h37.16.520,LearnStrategy,2023.2.3,Win32,59.88023952,5,2,4,,,,,,,,8,02,,,,,,,,,,,8,1.25,1,,,,,,0.33591487,-0.401059083,1,0,0,1.2497,Pumice_rect,3,0,3,0,1,
64427a7ac5edfedbe0c2779b,TCN,2024-06-24_17h37.16.520,LearnStrategy,2023.2.3,Win32,59.88023952,5,2,5,,,,,,,,8,08,,,,,,,,,,,8,0.688,1,,,,,,0.33776323,-0.401059083,1,0,0,0.6879,Pumice_rect,4,0,4,0,1,
64427a7ac5edfedbe0c2779b,TCN,2024-06-24_17h37.16.520,LearnStrategy,2023.2.3,Win32,59.88023952,5,2,6,,,,,,,,7,10,,,,,,,,,,,1,1.337,0,,,,,,-0.449623898,-0.255041291,1,0,0,1.3371,Andesite_rect,5,0,5,0,1,
64427a7ac5edfedbe0c2779b,TCN,2024-06-24_17h37.16.520,LearnStrategy,2023.2.3,Win32,59.88023952,5,2,7,,,,,,,,3,14,,,,,,,,,,,3,1.116,1,,,,,,0.116888048,-0.232861435,1,0,0,1.1156,Diorite_rect,6,0,6,0,1,
64427a7ac5edfedbe0c2779b,TCN,2024-06-24_17h37.16.520,LearnStrategy,2023.2.3,Win32,59.88023952,5,2,8,,,,,,,,7,02,,,,,,,,,,,2,1.022,0,,,,,,-0.118773482,-0.241178856,1,0,0,1.0223,Basalt_rect,7,0,7,0,1,
64427a7ac5edfedbe0c2779b,TCN,2024-06-24_17h37.16.520,LearnStrategy,2023.2.3,Win32,59.88023952,5,2,9,,,,,,,,4,05,,,,,,,,,,,6,0.935,0,,,,,,-0.107683454,-0.405679784,1,0,0,0.9351,Pegmatite_rect,8,0,8,0,1,
64427a7ac5edfedbe0c2779b,TCN,2024-06-24_17h37.16.520,LearnStrategy,2023.2.3,Win32,59.88023952,5,2,10,,,,,,,,5,04,,,,,,,,,,,5,1.283,1,,,,,,-0.424671468,-0.392741662,1,0,0,1.2828,Obsidian_rect,9,0,9,0,1,
64427a7ac5edfedbe0c2779b,TCN,2024-06-24_17h37.16.520,LearnStrategy,2023.2.3,Win32,59.88023952,5,2,11,,,,,,,,5,11,,,,,,,,,,,5,0.601,1,,,,,,-0.424671468,-0.386272468,1,0,0,0.601,Obsidian_rect,10,0,10,0,1,
64427a7ac5edfedbe0c2779b,TCN,2024-06-24_17h37.16.520,LearnStrategy,2023.2.3,Win32,59.88023952,5,2,12,,,,,,,,2,14,,,,,,,,,,,4,1.2,0,,,,,,0.409847946,-0.265207139,1,0,0,1.2,Gabbro_rect,11,0,11,0,1,
64427a7ac5edfedbe0c2779b,TCN,2024-06-24_17h37.16.520,LearnStrategy,2023.2.3,Win32,59.88023952,5,2,13,,,,,,,,6,03,,,,,,,,,,,2,1.225,0,,,,,,-0.1039868,-0.254117111,1,0,0,1.2249,Basalt_rect,12,0,12,0,1,
64427a7ac5edfedbe0c2779b,TCN,2024-06-24_17h37.16.520,LearnStrategy,2023.2.3,Win32,59.88023952,5,2,14,,,,,,,,6,06,,,,,,,,,,,3,1.075,0,,,,,,0.113191528,-0.237482202,1,0,0,1.0748,Diorite_rect,13,0,13,0,1,
64427a7ac5edfedbe0c2779b,TCN,2024-06-24_17h37.16.520,LearnStrategy,2023.2.3,Win32,59.88023952,5,2,15,,,,,,,,3,13,,,,,,,,,,,7,1.578,0,,,,,,0.204683693,-0.398286543,1,0,0,1.5777,Peridotite_rect,14,0,14,0,1,
64427a7ac5edfedbe0c2779b,TCN,2024-06-24_17h37.16.520,LearnStrategy,2023.2.3,Win32,59.88023952,5,2,16,,,,,,,,4,14,,,,,,,,,,,2,0.945,0,,,,,,-0.073489523,-0.259662058,1,0,0,0.9454,Basalt_rect,15,0,15,0,1,
64427a7ac5edfedbe0c2779b,TCN,2024-06-24_17h37.16.520,LearnStrategy,2023.2.3,Win32,59.88023952,6,1,1,-0.052233714,-0.004593045,1,0,0,4.5799,rock_grid_rect_2,8,16,-1,-1,4.58,0.436648703,-0.24764805,1,0,0,1.7373,Gabbro_rect,4,1.737,0,0,0,0,0,1,,,,,,,,,,,,,
64427a7ac5edfedbe0c2779b,TCN,2024-06-24_17h37.16.520,LearnStrategy,2023.2.3,Win32,59.88023952,6,1,2,-0.024508843,0.001876049,1,0,0,1.2117,rock_grid_rect_2,1,16,-1,-1,1.212,0.096556619,-0.243951329,1,0,0,2.2081,Diorite_rect,3,2.208,0,1,0,1,0,1,,,,,,,,,,,,,
64427a7ac5edfedbe0c2779b,TCN,2024-06-24_17h37.16.520,LearnStrategy,2023.2.3,Win32,59.88023952,6,1,3,-0.030053791,-0.002744785,1,0,0,0.813,rock_grid_rect_2,4,12,-1,-1,0.813,-0.089200252,-0.239330562,1,0,0,1.1357,Basalt_rect,2,1.136,0,2,0,2,0,1,,,,,,,,,,,,,
64427a7ac5edfedbe0c2779b,TCN,2024-06-24_17h37.16.520,LearnStrategy,2023.2.3,Win32,59.88023952,6,1,4,-0.101214393,-0.011986419,1,0,0,1.0274,rock_grid_rect_2,6,15,-1,-1,1.027,-0.105835227,-0.411224931,1,0,0,2.3017,Pegmatite_rect,6,2.302,1,3,0,3,0,1,,,,,,,,,,,,,
64427a7ac5edfedbe0c2779b,TCN,2024-06-24_17h37.16.520,LearnStrategy,2023.2.3,Win32,59.88023952,6,1,5,-0.042992112,0.010193503,1,0,0,0.7479,rock_grid_rect_2,2,06,-1,-1,0.748,0.331294036,-0.231937188,1,0,0,1.8693,Gabbro_rect,4,1.869,0,4,0,4,0,1,,,,,,,,,,,,,
64427a7ac5edfedbe0c2779b,TCN,2024-06-24_17h37.16.520,LearnStrategy,2023.2.3,Win32,59.88023952,6,1,6,0.047575806,-0.000896458,1,0,0,0.8322,rock_grid_rect_2,5,10,-1,-1,0.832,-0.363676681,-0.380727387,1,0,0,1.7472,Obsidian_rect,5,1.747,1,5,0,5,0,1,,,,,,,,,,,,,
64427a7ac5edfedbe0c2779b,TCN,2024-06-24_17h37.16.520,LearnStrategy,2023.2.3,Win32,59.88023952,6,1,7,-0.010646475,0.007421063,1,0,0,0.8345,rock_grid_rect_2,8,14,-1,-1,0.834,0.316507287,-0.380727387,1,0,0,2.1681,Pumice_rect,8,2.168,1,6,0,6,0,1,,,,,,,,,,,,,
64427a7ac5edfedbe0c2779b,TCN,2024-06-24_17h37.16.520,LearnStrategy,2023.2.3,Win32,59.88023952,6,1,8,-0.005101394,0.017586811,1,0,0,0.7795,rock_grid_rect_2,3,06,-1,-1,0.78,0.185276177,-0.24764805,1,0,0,1.2809,Diorite_rect,3,1.281,1,7,0,7,0,1,,,,,,,,,,,,,
64427a7ac5edfedbe0c2779b,TCN,2024-06-24_17h37.16.520,LearnStrategy,2023.2.3,Win32,59.88023952,6,1,9,-0.019888009,-0.011986419,1,0,0,0.9972,rock_grid_rect_2,4,13,-1,-1,0.997,-0.332255123,-0.264282892,1,0,0,1.4686,Andesite_rect,1,1.469,0,8,0,8,0,1,,,,,,,,,,,,,
64427a7ac5edfedbe0c2779b,TCN,2024-06-24_17h37.16.520,LearnStrategy,2023.2.3,Win32,59.88023952,6,1,10,0.008761041,-0.008289766,1,0,0,0.9785,rock_grid_rect_2,7,04,-1,-1,0.979,-0.144649992,-0.260586305,1,0,0,1.2112,Basalt_rect,2,1.211,0,9,0,9,0,1,,,,,,,,,,,,,
64427a7ac5edfedbe0c2779b,TCN,2024-06-24_17h37.16.520,LearnStrategy,2023.2.3,Win32,59.88023952,6,1,11,0.078997463,-0.008289766,1,0,0,1.2479,rock_grid_rect_2,7,06,-1,-1,1.248,0.125205536,-0.404755737,1,0,0,1.6517,Peridotite_rect,7,1.652,1,10,0,10,0,1,,,,,,,,,,,,,
64427a7ac5edfedbe0c2779b,TCN,2024-06-24_17h37.16.520,LearnStrategy,2023.2.3,Win32,59.88023952,6,1,12,0.013381875,0.00926939,1,0,0,0.9144,rock_grid_rect_2,6,16,-1,-1,0.914,-0.115076828,-0.261510485,1,0,0,1.9017,Basalt_rect,2,1.902,0,11,0,11,0,1,,,,,,,,,,,,,
64427a7ac5edfedbe0c2779b,TCN,2024-06-24_17h37.16.520,LearnStrategy,2023.2.3,Win32,59.88023952,6,1,13,-0.054082007,0.01204183,1,0,0,1.2949,rock_grid_rect_2,3,12,-1,-1,1.295,0.354398072,-0.248572097,1,0,0,2.6908,Gabbro_rect,4,2.691,0,12,0,12,0,1,,,,,,,,,,,,,
64427a7ac5edfedbe0c2779b,TCN,2024-06-24_17h37.16.520,LearnStrategy,2023.2.3,Win32,59.88023952,6,1,14,-0.091972725,0.003724376,1,0,0,1.9144,rock_grid_rect_2,1,06,-1,-1,1.914,0.074376696,-0.234709728,1,0,0,1.9597,Diorite_rect,3,1.96,0,13,0,13,0,1,,,,,,,,,,,,,
64427a7ac5edfedbe0c2779b,TCN,2024-06-24_17h37.16.520,LearnStrategy,2023.2.3,Win32,59.88023952,6,1,15,-0.065172102,-0.010138093,1,0,0,1.2811,rock_grid_rect_2,5,06,-1,-1,1.281,-0.384932423,-0.419542352,1,0,0,1.5869,Obsidian_rect,5,1.587,1,14,0,14,0,1,,,,,,,,,,,,,
64427a7ac5edfedbe0c2779b,TCN,2024-06-24_17h37.16.520,LearnStrategy,2023.2.3,Win32,59.88023952,6,1,16,-0.07903447,-0.009213912,1,0,0,1.1811,rock_grid_rect_2,2,02,-1,-1,1.181,-0.162209081,-0.251344704,1,0,0,2.6178,Basalt_rect,2,2.618,1,15,0,15,0,1,,,,,,,,,,,,,
64427a7ac5edfedbe0c2779b,TCN,2024-06-24_17h37.16.520,LearnStrategy,2023.2.3,Win32,59.88023952,6,2,1,,,,,,,,3,07,,,,,,,,,,,3,1.639,1,,,,,,0.102101433,-0.24487551,1,0,0,1.6394,Diorite_rect,0,0,0,0,1,
64427a7ac5edfedbe0c2779b,TCN,2024-06-24_17h37.16.520,LearnStrategy,2023.2.3,Win32,59.88023952,6,2,2,,,,,,,,5,12,,,,,,,,,,,5,1.055,1,,,,,,-0.448699718,-0.402907443,1,0,0,1.0546,Obsidian_rect,1,0,1,0,1,
64427a7ac5edfedbe0c2779b,TCN,2024-06-24_17h37.16.520,LearnStrategy,2023.2.3,Win32,59.88023952,6,2,3,,,,,,,,4,03,,,,,,,,,,,1,1.864,0,,,,,,-0.372918315,-0.264282892,1,0,0,1.8643,Andesite_rect,2,0,2,0,1,
64427a7ac5edfedbe0c2779b,TCN,2024-06-24_17h37.16.520,LearnStrategy,2023.2.3,Win32,59.88023952,6,2,4,,,,,,,,7,05,,,,,,,,,,,3,1.411,0,,,,,,0.093784012,-0.250420457,1,0,0,1.4114,Diorite_rect,3,0,3,0,1,
64427a7ac5edfedbe0c2779b,TCN,2024-06-24_17h37.16.520,LearnStrategy,2023.2.3,Win32,59.88023952,6,2,5,,,,,,,,2,01,,,,,,,,,,,2,0.892,1,,,,,,-0.128939264,-0.248572097,1,0,0,0.8919,Basalt_rect,4,0,4,0,1,
64427a7ac5edfedbe0c2779b,TCN,2024-06-24_17h37.16.520,LearnStrategy,2023.2.3,Win32,59.88023952,6,2,6,,,,,,,,1,14,,,,,,,,,,,4,1.737,0,,,,,,0.344232158,-0.255041291,1,0,0,1.7367,Gabbro_rect,5,0,5,0,1,
64427a7ac5edfedbe0c2779b,TCN,2024-06-24_17h37.16.520,LearnStrategy,2023.2.3,Win32,59.88023952,6,2,7,,,,,,,,1,11,,,,,,,,,,,8,2.647,0,,,,,,0.36363974,-0.397362429,1,0,0,2.6469,Pumice_rect,6,0,6,0,1,
64427a7ac5edfedbe0c2779b,TCN,2024-06-24_17h37.16.520,LearnStrategy,2023.2.3,Win32,59.88023952,6,2,8,,,,,,,,7,08,,,,,,,,,,,4,2.032,0,,,,,,0.349777371,-0.24487551,1,0,0,2.032,Gabbro_rect,7,0,7,0,1,
64427a7ac5edfedbe0c2779b,TCN,2024-06-24_17h37.16.520,LearnStrategy,2023.2.3,Win32,59.88023952,6,2,9,,,,,,,,8,13,,,,,,,,,,,2,2.64,0,,,,,,-0.120621842,-0.257813765,1,0,0,2.6398,Basalt_rect,8,0,8,0,1,
64427a7ac5edfedbe0c2779b,TCN,2024-06-24_17h37.16.520,LearnStrategy,2023.2.3,Win32,59.88023952,6,2,10,,,,,,,,3,02,,,,,,,,,,,7,1.021,0,,,,,,0.043879152,-0.394589889,1,0,0,1.0206,Peridotite_rect,9,0,9,0,1,
64427a7ac5edfedbe0c2779b,TCN,2024-06-24_17h37.16.520,LearnStrategy,2023.2.3,Win32,59.88023952,6,2,11,,,,,,,,5,16,,,,,,,,,,,5,1.075,1,,,,,,-0.38215995,-0.393665775,1,0,0,1.0754,Obsidian_rect,10,0,10,0,1,
64427a7ac5edfedbe0c2779b,TCN,2024-06-24_17h37.16.520,LearnStrategy,2023.2.3,Win32,59.88023952,6,2,12,,,,,,,,2,04,,,,,,,,,,,2,1.74,1,,,,,,-0.113228535,-0.255041291,1,0,0,1.74,Basalt_rect,11,0,11,0,1,
64427a7ac5edfedbe0c2779b,TCN,2024-06-24_17h37.16.520,LearnStrategy,2023.2.3,Win32,59.88023952,6,2,13,,,,,,,,8,05,,,,,,,,,,,8,2.172,1,,,,,,0.334990623,-0.400134903,1,0,0,2.1718,Pumice_rect,12,0,12,0,1,
64427a7ac5edfedbe0c2779b,TCN,2024-06-24_17h37.16.520,LearnStrategy,2023.2.3,Win32,59.88023952,6,2,14,,,,,,,,6,13,,,,,,,,,,,6,2.16,1,,,,,,-0.070716983,-0.383499928,1,0,0,2.1604,Pegmatite_rect,13,0,13,0,1,
64427a7ac5edfedbe0c2779b,TCN,2024-06-24_17h37.16.520,LearnStrategy,2023.2.3,Win32,59.88023952,6,2,15,,,,,,,,6,08,,,,,,,,,,,7,1.908,0,,,,,,0.075300743,-0.379803274,1,0,0,1.9077,Peridotite_rect,14,0,14,0,1,
64427a7ac5edfedbe0c2779b,TCN,2024-06-24_17h37.16.520,LearnStrategy,2023.2.3,Win32,59.88023952,6,2,16,,,,,,,,4,11,,,,,,,,,,,3,1.218,0,,,,,,0.084542344,-0.256889651,1,0,0,1.2184,Diorite_rect,15,0,15,0,1,
64427a7ac5edfedbe0c2779b,TCN,2024-06-24_17h37.16.520,LearnStrategy,2023.2.3,Win32,59.88023952,7,1,1,0.109494874,-0.008289766,1,0,0,145.241,rock_grid_rect_2,8,03,-1,-1,145.241,0.432951982,-0.386272468,1,0,0,1.4568,Pumice_rect,8,1.457,1,0,0,0,0,1,,,,,,,,,,,,,
64427a7ac5edfedbe0c2779b,TCN,2024-06-24_17h37.16.520,LearnStrategy,2023.2.3,Win32,59.88023952,7,1,2,-0.061475381,0.005572703,1,0,0,0.8294,rock_grid_rect_2,5,07,-1,-1,0.829,-0.445927244,-0.384424174,1,0,0,1.0206,Obsidian_rect,5,1.021,1,1,0,1,0,1,,,,,,,,,,,,,
64427a7ac5edfedbe0c2779b,TCN,2024-06-24_17h37.16.520,LearnStrategy,2023.2.3,Win32,59.88023952,7,1,3,-0.065172102,0.010193503,1,0,0,0.8805,rock_grid_rect_2,6,15,-1,-1,0.88,0.311886454,-0.243951329,1,0,0,1.7255,Gabbro_rect,4,1.726,0,2,0,2,0,1,,,,,,,,,,,,,
64427a7ac5edfedbe0c2779b,TCN,2024-06-24_17h37.16.520,LearnStrategy,2023.2.3,Win32,59.88023952,7,1,4,-0.096593559,0.00649685,1,0,0,0.8634,rock_grid_rect_2,1,16,-1,-1,0.863,0.120584702,-0.411224931,1,0,0,1.5507,Peridotite_rect,7,1.551,0,3,0,3,0,1,,,,,,,,,,,,,
64427a7ac5edfedbe0c2779b,TCN,2024-06-24_17h37.16.520,LearnStrategy,2023.2.3,Win32,59.88023952,7,1,5,-0.059627021,-0.022152134,1,0,0,0.8417,rock_grid_rect_2,7,13,-1,-1,0.842,-0.154815774,-0.252268751,1,0,0,1.427,Basalt_rect,2,1.427,0,4,0,4,0,1,,,,,,,,,,,,,
64427a7ac5edfedbe0c2779b,TCN,2024-06-24_17h37.16.520,LearnStrategy,2023.2.3,Win32,59.88023952,7,1,6,-0.098441853,-0.017531334,1,0,0,0.9952,rock_grid_rect_2,3,15,-1,-1,0.995,-0.065172102,-0.404755737,1,0,0,1.6727,Pegmatite_rect,6,1.673,0,5,0,5,0,1,,,,,,,,,,,,,
64427a7ac5edfedbe0c2779b,TCN,2024-06-24_17h37.16.520,LearnStrategy,2023.2.3,Win32,59.88023952,7,1,7,-0.046688766,-0.005517259,1,0,0,1.0298,rock_grid_rect_2,7,04,-1,-1,1.03,0.124281489,-0.236558022,1,0,0,1.0167,Diorite_rect,3,1.017,0,6,0,6,0,1,,,,,,,,,,,,,
64427a7ac5edfedbe0c2779b,TCN,2024-06-24_17h37.16.520,LearnStrategy,2023.2.3,Win32,59.88023952,7,1,8,-0.049461173,0.01296601,1,0,0,0.8618,rock_grid_rect_2,2,16,-1,-1,0.862,0.354398072,-0.236558022,1,0,0,1.6881,Gabbro_rect,4,1.688,0,7,0,7,0,1,,,,,,,,,,,,,
64427a7ac5edfedbe0c2779b,TCN,2024-06-24_17h37.16.520,LearnStrategy,2023.2.3,Win32,59.88023952,7,1,9,-0.117849302,0.01296601,1,0,0,0.7786,rock_grid_rect_2,5,09,-1,-1,0.779,-0.395098271,-0.388120828,1,0,0,1.0941,Obsidian_rect,5,1.094,1,8,0,8,0,1,,,,,,,,,,,,,
64427a7ac5edfedbe0c2779b,TCN,2024-06-24_17h37.16.520,LearnStrategy,2023.2.3,Win32,59.88023952,7,1,10,-0.123394316,0.008345177,1,0,0,1.3989,rock_grid_rect_2,8,06,-1,-1,1.399,0.355322319,-0.403831557,1,0,0,1.3427,Pumice_rect,8,1.343,1,9,0,9,0,1,,,,,,,,,,,,,
64427a7ac5edfedbe0c2779b,TCN,2024-06-24_17h37.16.520,LearnStrategy,2023.2.3,Win32,59.88023952,7,1,11,-0.014343129,-0.023076381,1,0,0,1.5796,rock_grid_rect_2,4,12,-1,-1,1.58,-0.106759341,-0.24672387,1,0,0,5.9413,Basalt_rect,2,5.941,0,10,0,10,0,1,,,,,,,,,,,,,
64427a7ac5edfedbe0c2779b,TCN,2024-06-24_17h37.16.520,LearnStrategy,2023.2.3,Win32,59.88023952,7,1,12,-0.018039649,-0.015683007,1,0,0,0.8944,rock_grid_rect_2,1,06,-1,-1,0.894,0.33591487,-0.230088894,1,0,0,1.2612,Gabbro_rect,4,1.261,0,11,0,11,0,1,,,,,,,,,,,,,
64427a7ac5edfedbe0c2779b,TCN,2024-06-24_17h37.16.520,LearnStrategy,2023.2.3,Win32,59.88023952,7,1,13,0.018926889,-0.009213912,1,0,0,1.0645,rock_grid_rect_2,4,13,-1,-1,1.064,-0.408036526,-0.253192864,1,0,0,1.3866,Andesite_rect,1,1.387,0,12,0,12,0,1,,,,,,,,,,,,,
64427a7ac5edfedbe0c2779b,TCN,2024-06-24_17h37.16.520,LearnStrategy,2023.2.3,Win32,59.88023952,7,1,14,0.002291913,0.007421063,1,0,0,0.9293,rock_grid_rect_2,6,16,-1,-1,0.929,0.134447137,-0.417693992,1,0,0,1.4071,Peridotite_rect,7,1.407,0,13,0,13,0,1,,,,,,,,,,,,,
64427a7ac5edfedbe0c2779b,TCN,2024-06-24_17h37.16.520,LearnStrategy,2023.2.3,Win32,59.88023952,7,1,15,-0.031902084,0.00926939,1,0,0,0.9141,rock_grid_rect_2,2,09,-1,-1,0.914,-0.171450816,-0.245799557,1,0,0,4.0267,Basalt_rect,2,4.027,1,14,0,14,0,1,,,,,,,,,,,,,
64427a7ac5edfedbe0c2779b,TCN,2024-06-24_17h37.16.520,LearnStrategy,2023.2.3,Win32,59.88023952,7,1,16,-0.034674558,0.000951869,1,0,0,1.0158,rock_grid_rect_2,3,10,-1,-1,1.016,0.132598977,-0.231012941,1,0,0,1.6575,Diorite_rect,3,1.657,1,15,0,15,0,1,,,,,,,,,,,,,
64427a7ac5edfedbe0c2779b,TCN,2024-06-24_17h37.16.520,LearnStrategy,2023.2.3,Win32,59.88023952,7,2,1,,,,,,,,1,03,,,,,,,,,,,2,2.132,0,,,,,,-0.143725879,-0.243951329,1,0,0,2.1323,Basalt_rect,0,0,0,0,1,
64427a7ac5edfedbe0c2779b,TCN,2024-06-24_17h37.16.520,LearnStrategy,2023.2.3,Win32,59.88023952,7,2,2,,,,,,,,8,15,,,,,,,,,,,8,1.176,1,,,,,,0.411696173,-0.386272468,1,0,0,1.1759,Pumice_rect,1,0,1,0,1,
64427a7ac5edfedbe0c2779b,TCN,2024-06-24_17h37.16.520,LearnStrategy,2023.2.3,Win32,59.88023952,7,2,3,,,,,,,,6,03,,,,,,,,,,,3,1.285,0,,,,,,0.15662706,-0.255041291,1,0,0,1.2848,Diorite_rect,2,0,2,0,1,
64427a7ac5edfedbe0c2779b,TCN,2024-06-24_17h37.16.520,LearnStrategy,2023.2.3,Win32,59.88023952,7,2,4,,,,,,,,4,14,,,,,,,,,,,7,1.173,0,,,,,,0.135371451,-0.421390646,1,0,0,1.1728,Peridotite_rect,3,0,3,0,1,
64427a7ac5edfedbe0c2779b,TCN,2024-06-24_17h37.16.520,LearnStrategy,2023.2.3,Win32,59.88023952,7,2,5,,,,,,,,1,02,,,,,,,,,,,4,1.8,0,,,,,,0.407075339,-0.240254676,1,0,0,1.7995,Gabbro_rect,4,0,4,0,1,
64427a7ac5edfedbe0c2779b,TCN,2024-06-24_17h37.16.520,LearnStrategy,2023.2.3,Win32,59.88023952,7,2,6,,,,,,,,4,01,,,,,,,,,,,6,1.969,0,,,,,,-0.107683454,-0.390893235,1,0,0,1.9686,Pegmatite_rect,5,0,5,0,1,
64427a7ac5edfedbe0c2779b,TCN,2024-06-24_17h37.16.520,LearnStrategy,2023.2.3,Win32,59.88023952,7,2,7,,,,,,,,5,08,,,,,,,,,,,5,1.117,1,,,,,,-0.415429834,-0.389969122,1,0,0,1.1174,Obsidian_rect,6,0,6,0,1,
64427a7ac5edfedbe0c2779b,TCN,2024-06-24_17h37.16.520,LearnStrategy,2023.2.3,Win32,59.88023952,7,2,8,,,,,,,,7,12,,,,,,,,,,,1,5.3,0,,,,,,-0.384008277,-0.266131319,1,0,0,5.2995,Andesite_rect,7,0,7,0,1,
64427a7ac5edfedbe0c2779b,TCN,2024-06-24_17h37.16.520,LearnStrategy,2023.2.3,Win32,59.88023952,7,2,9,,,,,,,,7,02,,,,,,,,,,,7,1.61,1,,,,,,0.123357309,-0.396438249,1,0,0,1.6097,Peridotite_rect,8,0,8,0,1,
64427a7ac5edfedbe0c2779b,TCN,2024-06-24_17h37.16.520,LearnStrategy,2023.2.3,Win32,59.88023952,7,2,10,,,,,,,,2,08,,,,,,,,,,,2,2.001,1,,,,,,-0.104910981,-0.256889651,1,0,0,2.0013,Basalt_rect,9,0,9,0,1,
64427a7ac5edfedbe0c2779b,TCN,2024-06-24_17h37.16.520,LearnStrategy,2023.2.3,Win32,59.88023952,7,2,11,,,,,,,,5,16,,,,,,,,,,,5,1.244,1,,,,,,-0.349814245,-0.388120828,1,0,0,1.2435,Obsidian_rect,10,0,10,0,1,
64427a7ac5edfedbe0c2779b,TCN,2024-06-24_17h37.16.520,LearnStrategy,2023.2.3,Win32,59.88023952,7,2,12,,,,,,,,3,02,,,,,,,,,,,4,1.204,0,,,,,,0.36179138,-0.238406382,1,0,0,1.2038,Gabbro_rect,11,0,11,0,1,
64427a7ac5edfedbe0c2779b,TCN,2024-06-24_17h37.16.520,LearnStrategy,2023.2.3,Win32,59.88023952,7,2,13,,,,,,,,2,14,,,,,,,,,,,6,1.804,0,,,,,,-0.105835227,-0.398286543,1,0,0,1.8042,Pegmatite_rect,12,0,12,0,1,
64427a7ac5edfedbe0c2779b,TCN,2024-06-24_17h37.16.520,LearnStrategy,2023.2.3,Win32,59.88023952,7,2,14,,,,,,,,3,13,,,,,,,,,,,2,23.082,0,,,,,,-0.072565276,-0.243027216,1,0,0,23.0816,Basalt_rect,13,0,13,0,1,
64427a7ac5edfedbe0c2779b,TCN,2024-06-24_17h37.16.520,LearnStrategy,2023.2.3,Win32,59.88023952,7,2,15,,,,,,,,8,05,,,,,,,,,,,8,4.158,1,,,,,,0.399682031,-0.380727387,1,0,0,4.1576,Pumice_rect,14,0,14,0,1,
64427a7ac5edfedbe0c2779b,TCN,2024-06-24_17h37.16.520,LearnStrategy,2023.2.3,Win32,59.88023952,7,2,16,,,,,,,,6,10,,,,,,,,,,,3,2.888,0,,,,,,0.071604156,-0.262434599,1,0,0,2.8879,Diorite_rect,15,0,15,0,1,
64427a7ac5edfedbe0c2779b,TCN,2024-06-24_17h37.16.520,LearnStrategy,2023.2.3,Win32,59.88023952,8,1,1,-0.182540777,0.00926939,1,0,0,27.1231,rock_grid_rect_2,5,10,-1,-1,27.123,-0.379387443,-0.420466532,1,0,0,1.3348,Obsidian_rect,5,1.335,1,0,0,0,0,1,,,,,,,,,,,,,
64427a7ac5edfedbe0c2779b,TCN,2024-06-24_17h37.16.520,LearnStrategy,2023.2.3,Win32,59.88023952,8,1,2,-0.041143752,-0.013834746,1,0,0,0.8486,rock_grid_rect_2,8,14,-1,-1,0.849,0.339611457,-0.381651634,1,0,0,1.1026,Pumice_rect,8,1.103,1,1,0,1,0,1,,,,,,,,,,,,,
64427a7ac5edfedbe0c2779b,TCN,2024-06-24_17h37.16.520,LearnStrategy,2023.2.3,Win32,59.88023952,8,1,3,-0.007873935,0.003724376,1,0,0,0.8631,rock_grid_rect_2,5,14,-1,-1,0.863,-0.398794892,-0.392741662,1,0,0,1.24,Obsidian_rect,5,1.24,1,2,0,2,0,1,,,,,,,,,,,,,
64427a7ac5edfedbe0c2779b,TCN,2024-06-24_17h37.16.520,LearnStrategy,2023.2.3,Win32,59.88023952,8,1,4,-0.061475381,-0.019379727,1,0,0,0.8776,rock_grid_rect_2,1,10,-1,-1,0.878,-0.090124365,-0.255041291,1,0,0,1.9753,Basalt_rect,2,1.975,0,3,0,3,0,1,,,,,,,,,,,,,
64427a7ac5edfedbe0c2779b,TCN,2024-06-24_17h37.16.520,LearnStrategy,2023.2.3,Win32,59.88023952,8,1,5,-0.046688766,0.016662664,1,0,0,0.8162,rock_grid_rect_2,1,01,-1,-1,0.816,0.10487404,-0.257813765,1,0,0,1.1874,Diorite_rect,3,1.187,0,4,0,4,0,1,,,,,,,,,,,,,
64427a7ac5edfedbe0c2779b,TCN,2024-06-24_17h37.16.520,LearnStrategy,2023.2.3,Win32,59.88023952,8,1,6,-0.05038542,-0.020303807,1,0,0,0.946,rock_grid_rect_2,4,09,-1,-1,0.946,0.086390771,-0.393665775,1,0,0,2.0022,Peridotite_rect,7,2.002,0,5,0,5,0,1,,,,,,,,,,,,,
64427a7ac5edfedbe0c2779b,TCN,2024-06-24_17h37.16.520,LearnStrategy,2023.2.3,Win32,59.88023952,8,1,7,-0.062399562,-0.013834746,1,0,0,1.9132,rock_grid_rect_2,3,16,-1,-1,1.913,-0.372918315,-0.251344704,1,0,0,1.9416,Andesite_rect,1,1.942,0,6,0,6,0,1,,,,,,,,,,,,,
64427a7ac5edfedbe0c2779b,TCN,2024-06-24_17h37.16.520,LearnStrategy,2023.2.3,Win32,59.88023952,8,1,8,0.020775182,-0.017531334,1,0,0,1.5272,rock_grid_rect_2,2,10,-1,-1,1.527,-0.123394316,-0.24764805,1,0,0,2.4162,Basalt_rect,2,2.416,1,7,0,7,0,1,,,,,,,,,,,,,
64427a7ac5edfedbe0c2779b,TCN,2024-06-24_17h37.16.520,LearnStrategy,2023.2.3,Win32,59.88023952,8,1,9,-0.009722228,-0.012910566,1,0,0,0.9762,rock_grid_rect_2,6,05,-1,-1,0.976,0.152006293,-0.398286543,1,0,0,1.3723,Peridotite_rect,7,1.372,0,8,0,8,0,1,,,,,,,,,,,,,
64427a7ac5edfedbe0c2779b,TCN,2024-06-24_17h37.16.520,LearnStrategy,2023.2.3,Win32,59.88023952,8,1,10,-0.068868756,0.000951869,1,0,0,0.8133,rock_grid_rect_2,6,07,-1,-1,0.813,-0.108607634,-0.414921518,1,0,0,0.9943,Pegmatite_rect,6,0.994,1,9,0,9,0,1,,,,,,,,,,,,,
64427a7ac5edfedbe0c2779b,TCN,2024-06-24_17h37.16.520,LearnStrategy,2023.2.3,Win32,59.88023952,8,1,11,-0.054082007,0.010193503,1,0,0,5.6788,rock_grid_rect_2,4,16,-1,-1,5.679,0.319279894,-0.24487551,1,0,0,1.751,Gabbro_rect,4,1.751,1,10,0,10,0,1,,,,,,,,,,,,,
64427a7ac5edfedbe0c2779b,TCN,2024-06-24_17h37.16.520,LearnStrategy,2023.2.3,Win32,59.88023952,8,1,12,0.011533515,0.011117684,1,0,0,1.1659,rock_grid_rect_2,7,06,-1,-1,1.166,-0.15389166,-0.242103036,1,0,0,1.4349,Basalt_rect,2,1.435,0,11,0,11,0,1,,,,,,,,,,,,,
64427a7ac5edfedbe0c2779b,TCN,2024-06-24_17h37.16.520,LearnStrategy,2023.2.3,Win32,59.88023952,8,1,13,-0.060551201,-0.020303807,1,0,0,1.1778,rock_grid_rect_2,3,08,-1,-1,1.178,-0.069792869,-0.407528277,1,0,0,1.8009,Pegmatite_rect,6,1.801,0,12,0,12,0,1,,,,,,,,,,,,,
64427a7ac5edfedbe0c2779b,TCN,2024-06-24_17h37.16.520,LearnStrategy,2023.2.3,Win32,59.88023952,8,1,14,-0.118773482,0.017586811,1,0,0,1.0626,rock_grid_rect_2,8,10,-1,-1,1.063,0.33776323,-0.390893235,1,0,0,1.4506,Pumice_rect,8,1.451,1,13,0,13,0,1,,,,,,,,,,,,,
64427a7ac5edfedbe0c2779b,TCN,2024-06-24_17h37.16.520,LearnStrategy,2023.2.3,Win32,59.88023952,8,1,15,0.021699229,0.00649685,1,0,0,0.9293,rock_grid_rect_2,2,02,-1,-1,0.929,-0.146498353,-0.267979546,1,0,0,1.3674,Basalt_rect,2,1.367,1,14,0,14,0,1,,,,,,,,,,,,,
64427a7ac5edfedbe0c2779b,TCN,2024-06-24_17h37.16.520,LearnStrategy,2023.2.3,Win32,59.88023952,8,1,16,-0.035598738,-0.01660722,1,0,0,1.0309,rock_grid_rect_2,7,15,-1,-1,1.031,-0.369221661,-0.24949621,1,0,0,1.2987,Andesite_rect,1,1.299,0,15,0,15,0,1,,,,,,,,,,,,,
64427a7ac5edfedbe0c2779b,TCN,2024-06-24_17h37.16.520,LearnStrategy,2023.2.3,Win32,59.88023952,8,2,1,,,,,,,,1,14,,,,,,,,,,,7,1.742,0,,,,,,0.151082246,-0.408452391,1,0,0,1.7419,Peridotite_rect,0,0,0,0,1,
64427a7ac5edfedbe0c2779b,TCN,2024-06-24_17h37.16.520,LearnStrategy,2023.2.3,Win32,59.88023952,8,2,2,,,,,,,,2,05,,,,,,,,,,,2,0.961,1,,,,,,-0.140029158,-0.228240601,1,0,0,0.9611,Basalt_rect,1,0,1,0,1,
64427a7ac5edfedbe0c2779b,TCN,2024-06-24_17h37.16.520,LearnStrategy,2023.2.3,Win32,59.88023952,8,2,3,,,,,,,,1,11,,,,,,,,,,,4,0.933,0,,,,,,0.374729768,-0.238406382,1,0,0,0.9327,Gabbro_rect,2,0,2,0,1,
64427a7ac5edfedbe0c2779b,TCN,2024-06-24_17h37.16.520,LearnStrategy,2023.2.3,Win32,59.88023952,8,2,4,,,,,,,,7,10,,,,,,,,,,,6,1.188,0,,,,,,-0.1039868,-0.410300684,1,0,0,1.1883,Pegmatite_rect,3,0,3,0,1,
64427a7ac5edfedbe0c2779b,TCN,2024-06-24_17h37.16.520,LearnStrategy,2023.2.3,Win32,59.88023952,8,2,5,,,,,,,,4,05,,,,,,,,,,,1,2.718,0,,,,,,-0.392325798,-0.27075202,1,0,0,2.7177,Andesite_rect,4,0,4,0,1,
64427a7ac5edfedbe0c2779b,TCN,2024-06-24_17h37.16.520,LearnStrategy,2023.2.3,Win32,59.88023952,8,2,6,,,,,,,,8,13,,,,,,,,,,,8,2.523,1,,,,,,0.364563854,-0.404755737,1,0,0,2.5227,Pumice_rect,5,0,5,0,1,
64427a7ac5edfedbe0c2779b,TCN,2024-06-24_17h37.16.520,LearnStrategy,2023.2.3,Win32,59.88023952,8,2,7,,,,,,,,2,12,,,,,,,,,,,8,0.984,0,,,,,,0.376577862,-0.405679784,1,0,0,0.9842,Pumice_rect,6,0,6,0,1,
64427a7ac5edfedbe0c2779b,TCN,2024-06-24_17h37.16.520,LearnStrategy,2023.2.3,Win32,59.88023952,8,2,8,,,,,,,,8,08,,,,,,,,,,,8,1.524,1,,,,,,0.468070027,-0.396438249,1,0,0,1.5236,Pumice_rect,7,0,7,0,1,
64427a7ac5edfedbe0c2779b,TCN,2024-06-24_17h37.16.520,LearnStrategy,2023.2.3,Win32,59.88023952,8,2,9,,,,,,,,3,14,,,,,,,,,,,7,1.443,0,,,,,,0.166792908,-0.400134903,1,0,0,1.4427,Peridotite_rect,8,0,8,0,1,
64427a7ac5edfedbe0c2779b,TCN,2024-06-24_17h37.16.520,LearnStrategy,2023.2.3,Win32,59.88023952,8,2,10,,,,,,,,7,05,,,,,,,,,,,3,1.58,0,,,,,,0.202835266,-0.243951329,1,0,0,1.58,Diorite_rect,9,0,9,0,1,
64427a7ac5edfedbe0c2779b,TCN,2024-06-24_17h37.16.520,LearnStrategy,2023.2.3,Win32,59.88023952,8,2,11,,,,,,,,4,03,,,,,,,,,,,4,2.852,1,,,,,,0.325748955,-0.256889651,1,0,0,2.8519,Gabbro_rect,10,0,10,0,1,
64427a7ac5edfedbe0c2779b,TCN,2024-06-24_17h37.16.520,LearnStrategy,2023.2.3,Win32,59.88023952,8,2,12,,,,,,,,5,11,,,,,,,,,,,5,1.795,1,,,,,,-0.445927244,-0.411224931,1,0,0,1.7953,Obsidian_rect,11,0,11,0,1,
64427a7ac5edfedbe0c2779b,TCN,2024-06-24_17h37.16.520,LearnStrategy,2023.2.3,Win32,59.88023952,8,2,13,,,,,,,,6,06,,,,,,,,,,,2,1.062,0,,,,,,-0.100290147,-0.248572097,1,0,0,1.0618,Basalt_rect,12,0,12,0,1,
64427a7ac5edfedbe0c2779b,TCN,2024-06-24_17h37.16.520,LearnStrategy,2023.2.3,Win32,59.88023952,8,2,14,,,,,,,,3,07,,,,,,,,,,,7,1.062,0,,,,,,0.084542344,-0.387196581,1,0,0,1.0619,Peridotite_rect,13,0,13,0,1,
64427a7ac5edfedbe0c2779b,TCN,2024-06-24_17h37.16.520,LearnStrategy,2023.2.3,Win32,59.88023952,8,2,15,,,,,,,,6,13,,,,,,,,,,,7,0.602,0,,,,,,0.089163178,-0.380727387,1,0,0,0.6017,Peridotite_rect,14,0,14,0,1,
64427a7ac5edfedbe0c2779b,TCN,2024-06-24_17h37.16.520,LearnStrategy,2023.2.3,Win32,59.88023952,8,2,16,,,,,,,,5,02,,,,,,,,,,,5,1.049,1,,,,,,-0.377539116,-0.413073091,1,0,0,1.0492,Obsidian_rect,15,0,15,0,1,
64427a7ac5edfedbe0c2779b,TCN,2024-06-24_17h37.16.520,LearnStrategy,2023.2.3,Win32,59.88023952,9,1,1,0.053120887,-0.011062173,1,0,0,1.0299,rock_grid_rect_2,6,09,-1,-1,1.03,0.07622499,-0.254117111,1,0,0,1.2201,Diorite_rect,3,1.22,0,0,0,0,0,1,,,,,,,,,,,,,
64427a7ac5edfedbe0c2779b,TCN,2024-06-24_17h37.16.520,LearnStrategy,2023.2.3,Win32,59.88023952,9,1,2,-0.086427711,0.00649685,1,0,0,0.8242,rock_grid_rect_2,1,09,-1,-1,0.824,0.3128107,-0.239330562,1,0,0,1.8717,Gabbro_rect,4,1.872,0,1,0,1,0,1,,,,,,,,,,,,,
64427a7ac5edfedbe0c2779b,TCN,2024-06-24_17h37.16.520,LearnStrategy,2023.2.3,Win32,59.88023952,9,1,3,-0.092896906,0.017586811,1,0,0,1.114,rock_grid_rect_2,1,05,-1,-1,1.114,0.123357309,-0.381651634,1,0,0,1.4202,Peridotite_rect,7,1.42,0,2,0,2,0,1,,,,,,,,,,,,,
64427a7ac5edfedbe0c2779b,TCN,2024-06-24_17h37.16.520,LearnStrategy,2023.2.3,Win32,59.88023952,9,1,4,-0.036523051,0.01204183,1,0,0,1.1122,rock_grid_rect_2,2,06,-1,-1,1.112,-0.098441853,-0.237482202,1,0,0,2.0611,Basalt_rect,2,2.061,1,3,0,3,0,1,,,,,,,,,,,,,
64427a7ac5edfedbe0c2779b,TCN,2024-06-24_17h37.16.520,LearnStrategy,2023.2.3,Win32,59.88023952,9,1,5,-0.028205497,-0.011062173,1,0,0,6.228,rock_grid_rect_2,7,07,-1,-1,6.228,0.115963935,-0.229164781,1,0,0,0.934,Diorite_rect,3,0.934,0,4,0,4,0,1,,,,,,,,,,,,,
64427a7ac5edfedbe0c2779b,TCN,2024-06-24_17h37.16.520,LearnStrategy,2023.2.3,Win32,59.88023952,9,1,6,0.074376696,-0.007365586,1,0,0,1.2647,rock_grid_rect_2,2,11,-1,-1,1.265,0.429255395,-0.263358712,1,0,0,3.8174,Gabbro_rect,4,3.817,0,5,0,5,0,1,,,,,,,,,,,,,
64427a7ac5edfedbe0c2779b,TCN,2024-06-24_17h37.16.520,LearnStrategy,2023.2.3,Win32,59.88023952,9,1,7,-0.030053791,-0.020303807,1,0,0,0.8621,rock_grid_rect_2,5,06,-1,-1,0.862,-0.33133101,-0.388120828,1,0,0,1.1013,Obsidian_rect,5,1.101,1,6,0,6,0,1,,,,,,,,,,,,,
64427a7ac5edfedbe0c2779b,TCN,2024-06-24_17h37.16.520,LearnStrategy,2023.2.3,Win32,59.88023952,9,1,8,0.002291913,-0.021228054,1,0,0,1.0262,rock_grid_rect_2,3,06,-1,-1,1.026,-0.083655371,-0.393665775,1,0,0,2.6061,Pegmatite_rect,6,2.606,0,7,0,7,0,1,,,,,,,,,,,,,
64427a7ac5edfedbe0c2779b,TCN,2024-06-24_17h37.16.520,LearnStrategy,2023.2.3,Win32,59.88023952,9,1,9,-0.02081219,0.005572703,1,0,0,1.1315,rock_grid_rect_2,8,16,-1,-1,1.131,0.420013727,-0.395514069,1,0,0,9.2028,Pumice_rect,8,9.203,1,8,0,8,0,1,,,,,,,,,,,,,
64427a7ac5edfedbe0c2779b,TCN,2024-06-24_17h37.16.520,LearnStrategy,2023.2.3,Win32,59.88023952,9,1,10,0.045727646,-0.006441372,1,0,0,0.9639,rock_grid_rect_2,7,14,-1,-1,0.964,0.057741654,-0.250420457,1,0,0,1.0908,Diorite_rect,3,1.091,0,9,0,9,0,1,,,,,,,,,,,,,
64427a7ac5edfedbe0c2779b,TCN,2024-06-24_17h37.16.520,LearnStrategy,2023.2.3,Win32,59.88023952,9,1,11,-0.047612946,-0.012910566,1,0,0,0.8471,rock_grid_rect_2,4,10,-1,-1,0.847,-0.389553257,-0.266131319,1,0,0,2.2868,Andesite_rect,1,2.287,0,10,0,10,0,1,,,,,,,,,,,,,
64427a7ac5edfedbe0c2779b,TCN,2024-06-24_17h37.16.520,LearnStrategy,2023.2.3,Win32,59.88023952,9,1,12,-0.075337817,0.002800262,1,0,0,1.3788,rock_grid_rect_2,8,09,-1,-1,1.379,0.409847946,-0.393665775,1,0,0,1.2209,Pumice_rect,8,1.221,1,11,0,11,0,1,,,,,,,,,,,,,
64427a7ac5edfedbe0c2779b,TCN,2024-06-24_17h37.16.520,LearnStrategy,2023.2.3,Win32,59.88023952,9,1,13,0.136295631,-0.003668932,1,0,0,1.2967,rock_grid_rect_2,6,11,-1,-1,1.297,0.112267281,-0.392741662,1,0,0,2.051,Peridotite_rect,7,2.051,0,12,0,12,0,1,,,,,,,,,,,,,
64427a7ac5edfedbe0c2779b,TCN,2024-06-24_17h37.16.520,LearnStrategy,2023.2.3,Win32,59.88023952,9,1,14,-0.093821019,0.022207645,1,0,0,1.2805,rock_grid_rect_2,5,05,-1,-1,1.28,-0.403415692,-0.406604097,1,0,0,1.5219,Obsidian_rect,5,1.522,1,13,0,13,0,1,,,,,,,,,,,,,
64427a7ac5edfedbe0c2779b,TCN,2024-06-24_17h37.16.520,LearnStrategy,2023.2.3,Win32,59.88023952,9,1,15,-0.030977904,0.018511024,1,0,0,0.8305,rock_grid_rect_2,3,12,-1,-1,0.831,-0.108607634,-0.378879227,1,0,0,1.4395,Pegmatite_rect,6,1.44,0,14,0,14,0,1,,,,,,,,,,,,,
64427a7ac5edfedbe0c2779b,TCN,2024-06-24_17h37.16.520,LearnStrategy,2023.2.3,Win32,59.88023952,9,1,16,-0.017115469,0.019435138,1,0,0,0.9792,rock_grid_rect_2,4,15,-1,-1,0.979,0.05681754,-0.239330562,1,0,0,1.105,Diorite_rect,3,1.105,0,15,0,15,0,1,,,,,,,,,,,,,
64427a7ac5edfedbe0c2779b,TCN,2024-06-24_17h37.16.520,LearnStrategy,2023.2.3,Win32,59.88023952,9,2,1,,,,,,,,3,11,,,,,,,,,,,3,4.255,1,,,,,,0.093784012,-0.239330562,1,0,0,4.2553,Diorite_rect,0,0,0,0,1,
64427a7ac5edfedbe0c2779b,TCN,2024-06-24_17h37.16.520,LearnStrategy,2023.2.3,Win32,59.88023952,9,2,2,,,,,,,,3,09,,,,,,,,,,,3,0.896,1,,,,,,0.058665767,-0.234709728,1,0,0,0.8961,Diorite_rect,1,0,1,0,1,
64427a7ac5edfedbe0c2779b,TCN,2024-06-24_17h37.16.520,LearnStrategy,2023.2.3,Win32,59.88023952,9,2,3,,,,,,,,7,16,,,,,,,,,,,6,1.143,0,,,,,,-0.160360921,-0.410300684,1,0,0,1.1427,Pegmatite_rect,2,0,2,0,1,
64427a7ac5edfedbe0c2779b,TCN,2024-06-24_17h37.16.520,LearnStrategy,2023.2.3,Win32,59.88023952,9,2,4,,,,,,,,8,04,,,,,,,,,,,8,3.147,1,,,,,,0.356246432,-0.394589889,1,0,0,3.147,Pumice_rect,3,0,3,0,1,
64427a7ac5edfedbe0c2779b,TCN,2024-06-24_17h37.16.520,LearnStrategy,2023.2.3,Win32,59.88023952,9,2,5,,,,,,,,1,07,,,,,,,,,,,1,1.38,1,,,,,,-0.363676681,-0.241178856,1,0,0,1.3801,Andesite_rect,4,0,4,0,1,
64427a7ac5edfedbe0c2779b,TCN,2024-06-24_17h37.16.520,LearnStrategy,2023.2.3,Win32,59.88023952,9,2,6,,,,,,,,2,01,,,,,,,,,,,4,17.784,0,,,,,,0.409847946,-0.228240601,1,0,0,17.7843,Gabbro_rect,5,0,5,0,1,
64427a7ac5edfedbe0c2779b,TCN,2024-06-24_17h37.16.520,LearnStrategy,2023.2.3,Win32,59.88023952,9,2,7,,,,,,,,4,11,,,,,,,,,,,4,2.254,1,,,,,,0.372881408,-0.232861435,1,0,0,2.2537,Gabbro_rect,6,0,6,0,1,
64427a7ac5edfedbe0c2779b,TCN,2024-06-24_17h37.16.520,LearnStrategy,2023.2.3,Win32,59.88023952,9,2,8,,,,,,,,5,04,,,,,,,,,,,5,1.157,1,,,,,,-0.33780017,-0.404755737,1,0,0,1.157,Obsidian_rect,7,0,7,0,1,
64427a7ac5edfedbe0c2779b,TCN,2024-06-24_17h37.16.520,LearnStrategy,2023.2.3,Win32,59.88023952,9,2,9,,,,,,,,1,04,,,,,,,,,,,6,1.56,0,,,,,,-0.134484344,-0.386272468,1,0,0,1.5598,Pegmatite_rect,8,0,8,0,1,
64427a7ac5edfedbe0c2779b,TCN,2024-06-24_17h37.16.520,LearnStrategy,2023.2.3,Win32,59.88023952,9,2,10,,,,,,,,5,12,,,,,,,,,,,5,1.034,1,,,,,,-0.336875957,-0.391817415,1,0,0,1.0336,Obsidian_rect,9,0,9,0,1,
64427a7ac5edfedbe0c2779b,TCN,2024-06-24_17h37.16.520,LearnStrategy,2023.2.3,Win32,59.88023952,9,2,11,,,,,,,,7,08,,,,,,,,,,,7,7.773,1,,,,,,0.117812362,-0.397362429,1,0,0,7.7734,Peridotite_rect,10,0,10,0,1,
64427a7ac5edfedbe0c2779b,TCN,2024-06-24_17h37.16.520,LearnStrategy,2023.2.3,Win32,59.88023952,9,2,12,,,,,,,,2,04,,,,,,,,,,,2,1.697,1,,,,,,-0.095669379,-0.253192864,1,0,0,1.6975,Basalt_rect,11,0,11,0,1,
64427a7ac5edfedbe0c2779b,TCN,2024-06-24_17h37.16.520,LearnStrategy,2023.2.3,Win32,59.88023952,9,2,13,,,,,,,,8,02,,,,,,,,,,,8,1.361,1,,,,,,0.419089481,-0.397362429,1,0,0,1.3608,Pumice_rect,12,0,12,0,1,
64427a7ac5edfedbe0c2779b,TCN,2024-06-24_17h37.16.520,LearnStrategy,2023.2.3,Win32,59.88023952,9,2,14,,,,,,,,4,08,,,,,,,,,,,6,1.66,0,,,,,,-0.105835227,-0.396438249,1,0,0,1.6602,Pegmatite_rect,13,0,13,0,1,
64427a7ac5edfedbe0c2779b,TCN,2024-06-24_17h37.16.520,LearnStrategy,2023.2.3,Win32,59.88023952,9,2,15,,,,,,,,6,08,,,,,,,,,,,7,1.559,0,,,,,,0.164944681,-0.395514069,1,0,0,1.5592,Peridotite_rect,14,0,14,0,1,
64427a7ac5edfedbe0c2779b,TCN,2024-06-24_17h37.16.520,LearnStrategy,2023.2.3,Win32,59.88023952,9,2,16,,,,,,,,6,12,,,,,,,,,,,3,1.293,0,,,,,,0.093784012,-0.236558022,1,0,0,1.2932,Diorite_rect,15,0,15,0,1,
64427a7ac5edfedbe0c2779b,TCN,2024-06-24_17h37.16.520,LearnStrategy,2023.2.3,Win32,59.88023952,,,,,,,,,,,,,,,,,,,,,,,,,,,,,,,,,,,,,,,,,,,0
64427a7ac5edfedbe0c2779b,TCN,2024-06-24_17h37.16.520,LearnStrategy,2023.2.3,Win32,59.88023952,,,,,,,,,,,,,,,,,,,,,,,,,,,,,,,,,,,,,,,,,,,
64427a7ac5edfedbe0c2779b,TCN,2024-06-24_17h37.16.520,LearnStrategy,2023.2.3,Win32,59.88023952,,,,,,,,,,,3,12,1,1,,,,,,,,,,,,,,,,,,,,,,,,,,,,,
64427a7ac5edfedbe0c2779b,TCN,2024-06-24_17h37.16.520,LearnStrategy,2023.2.3,Win32,59.88023952,,,,,,,,,,,1,05,1,2,,,,,,,,,,,,,,,,,,,,,,,,,,,,,
64427a7ac5edfedbe0c2779b,TCN,2024-06-24_17h37.16.520,LearnStrategy,2023.2.3,Win32,59.88023952,,,,,,,,,,,3,10,1,3,,,,,,,,,,,,,,,,,,,,,,,,,,,,,
64427a7ac5edfedbe0c2779b,TCN,2024-06-24_17h37.16.520,LearnStrategy,2023.2.3,Win32,59.88023952,,,,,,,,,,,2,16,1,4,,,,,,,,,,,,,,,,,,,,,,,,,,,,,
64427a7ac5edfedbe0c2779b,TCN,2024-06-24_17h37.16.520,LearnStrategy,2023.2.3,Win32,59.88023952,,,,,,,,,,,4,13,1,5,,,,,,,,,,,,,,,,,,,,,,,,,,,,,
64427a7ac5edfedbe0c2779b,TCN,2024-06-24_17h37.16.520,LearnStrategy,2023.2.3,Win32,59.88023952,,,,,,,,,,,5,06,1,6,,,,,,,,,,,,,,,,,,,,,,,,,,,,,
64427a7ac5edfedbe0c2779b,TCN,2024-06-24_17h37.16.520,LearnStrategy,2023.2.3,Win32,59.88023952,,,,,,,,,,,6,07,1,7,,,,,,,,,,,,,,,,,,,,,,,,,,,,,
64427a7ac5edfedbe0c2779b,TCN,2024-06-24_17h37.16.520,LearnStrategy,2023.2.3,Win32,59.88023952,,,,,,,,,,,4,16,1,8,,,,,,,,,,,,,,,,,,,,,,,,,,,,,
64427a7ac5edfedbe0c2779b,TCN,2024-06-24_17h37.16.520,LearnStrategy,2023.2.3,Win32,59.88023952,,,,,,,,,,,6,16,2,1,,,,,,,,,,,,,,,,,,,,,,,,,,,,,
64427a7ac5edfedbe0c2779b,TCN,2024-06-24_17h37.16.520,LearnStrategy,2023.2.3,Win32,59.88023952,,,,,,,,,,,7,04,2,2,,,,,,,,,,,,,,,,,,,,,,,,,,,,,
64427a7ac5edfedbe0c2779b,TCN,2024-06-24_17h37.16.520,LearnStrategy,2023.2.3,Win32,59.88023952,,,,,,,,,,,6,09,2,3,,,,,,,,,,,,,,,,,,,,,,,,,,,,,
64427a7ac5edfedbe0c2779b,TCN,2024-06-24_17h37.16.520,LearnStrategy,2023.2.3,Win32,59.88023952,,,,,,,,,,,2,11,2,4,,,,,,,,,,,,,,,,,,,,,,,,,,,,,
64427a7ac5edfedbe0c2779b,TCN,2024-06-24_17h37.16.520,LearnStrategy,2023.2.3,Win32,59.88023952,,,,,,,,,,,7,15,2,5,,,,,,,,,,,,,,,,,,,,,,,,,,,,,
64427a7ac5edfedbe0c2779b,TCN,2024-06-24_17h37.16.520,LearnStrategy,2023.2.3,Win32,59.88023952,,,,,,,,,,,3,15,2,6,,,,,,,,,,,,,,,,,,,,,,,,,,,,,
64427a7ac5edfedbe0c2779b,TCN,2024-06-24_17h37.16.520,LearnStrategy,2023.2.3,Win32,59.88023952,,,,,,,,,,,8,03,2,7,,,,,,,,,,,,,,,,,,,,,,,,,,,,,
64427a7ac5edfedbe0c2779b,TCN,2024-06-24_17h37.16.520,LearnStrategy,2023.2.3,Win32,59.88023952,,,,,,,,,,,4,10,2,8,,,,,,,,,,,,,,,,,,,,,,,,,,,,,
64427a7ac5edfedbe0c2779b,TCN,2024-06-24_17h37.16.520,LearnStrategy,2023.2.3,Win32,59.88023952,,,,,,,,,,,1,16,3,1,,,,,,,,,,,,,,,,,,,,,,,,,,,,,
64427a7ac5edfedbe0c2779b,TCN,2024-06-24_17h37.16.520,LearnStrategy,2023.2.3,Win32,59.88023952,,,,,,,,,,,6,05,3,2,,,,,,,,,,,,,,,,,,,,,,,,,,,,,
64427a7ac5edfedbe0c2779b,TCN,2024-06-24_17h37.16.520,LearnStrategy,2023.2.3,Win32,59.88023952,,,,,,,,,,,5,10,3,3,,,,,,,,,,,,,,,,,,,,,,,,,,,,,
64427a7ac5edfedbe0c2779b,TCN,2024-06-24_17h37.16.520,LearnStrategy,2023.2.3,Win32,59.88023952,,,,,,,,,,,8,16,3,4,,,,,,,,,,,,,,,,,,,,,,,,,,,,,
64427a7ac5edfedbe0c2779b,TCN,2024-06-24_17h37.16.520,LearnStrategy,2023.2.3,Win32,59.88023952,,,,,,,,,,,7,06,3,5,,,,,,,,,,,,,,,,,,,,,,,,,,,,,
64427a7ac5edfedbe0c2779b,TCN,2024-06-24_17h37.16.520,LearnStrategy,2023.2.3,Win32,59.88023952,,,,,,,,,,,3,06,3,6,,,,,,,,,,,,,,,,,,,,,,,,,,,,,
64427a7ac5edfedbe0c2779b,TCN,2024-06-24_17h37.16.520,LearnStrategy,2023.2.3,Win32,59.88023952,,,,,,,,,,,6,15,3,7,,,,,,,,,,,,,,,,,,,,,,,,,,,,,
64427a7ac5edfedbe0c2779b,TCN,2024-06-24_17h37.16.520,LearnStrategy,2023.2.3,Win32,59.88023952,,,,,,,,,,,3,16,3,8,,,,,,,,,,,,,,,,,,,,,,,,,,,,,
64427a7ac5edfedbe0c2779b,TCN,2024-06-24_17h37.16.520,LearnStrategy,2023.2.3,Win32,59.88023952,,,,,,,,,,,8,09,4,1,,,,,,,,,,,,,,,,,,,,,,,,,,,,,
64427a7ac5edfedbe0c2779b,TCN,2024-06-24_17h37.16.520,LearnStrategy,2023.2.3,Win32,59.88023952,,,,,,,,,,,2,10,4,2,,,,,,,,,,,,,,,,,,,,,,,,,,,,,
64427a7ac5edfedbe0c2779b,TCN,2024-06-24_17h37.16.520,LearnStrategy,2023.2.3,Win32,59.88023952,,,,,,,,,,,1,09,4,3,,,,,,,,,,,,,,,,,,,,,,,,,,,,,
64427a7ac5edfedbe0c2779b,TCN,2024-06-24_17h37.16.520,LearnStrategy,2023.2.3,Win32,59.88023952,,,,,,,,,,,4,15,4,4,,,,,,,,,,,,,,,,,,,,,,,,,,,,,
64427a7ac5edfedbe0c2779b,TCN,2024-06-24_17h37.16.520,LearnStrategy,2023.2.3,Win32,59.88023952,,,,,,,,,,,2,09,4,5,,,,,,,,,,,,,,,,,,,,,,,,,,,,,
64427a7ac5edfedbe0c2779b,TCN,2024-06-24_17h37.16.520,LearnStrategy,2023.2.3,Win32,59.88023952,,,,,,,,,,,7,13,4,6,,,,,,,,,,,,,,,,,,,,,,,,,,,,,
64427a7ac5edfedbe0c2779b,TCN,2024-06-24_17h37.16.520,LearnStrategy,2023.2.3,Win32,59.88023952,,,,,,,,,,,4,12,4,7,,,,,,,,,,,,,,,,,,,,,,,,,,,,,
64427a7ac5edfedbe0c2779b,TCN,2024-06-24_17h37.16.520,LearnStrategy,2023.2.3,Win32,59.88023952,,,,,,,,,,,8,10,4,8,,,,,,,,,,,,,,,,,,,,,,,,,,,,,
64427a7ac5edfedbe0c2779b,TCN,2024-06-24_17h37.16.520,LearnStrategy,2023.2.3,Win32,59.88023952,,,,,,,,,,,6,11,5,1,,,,,,,,,,,,,,,,,,,,,,,,,,,,,
64427a7ac5edfedbe0c2779b,TCN,2024-06-24_17h37.16.520,LearnStrategy,2023.2.3,Win32,59.88023952,,,,,,,,,,,7,14,5,2,,,,,,,,,,,,,,,,,,,,,,,,,,,,,
64427a7ac5edfedbe0c2779b,TCN,2024-06-24_17h37.16.520,LearnStrategy,2023.2.3,Win32,59.88023952,,,,,,,,,,,1,06,5,3,,,,,,,,,,,,,,,,,,,,,,,,,,,,,
64427a7ac5edfedbe0c2779b,TCN,2024-06-24_17h37.16.520,LearnStrategy,2023.2.3,Win32,59.88023952,,,,,,,,,,,8,06,5,4,,,,,,,,,,,,,,,,,,,,,,,,,,,,,
64427a7ac5edfedbe0c2779b,TCN,2024-06-24_17h37.16.520,LearnStrategy,2023.2.3,Win32,59.88023952,,,,,,,,,,,5,07,5,5,,,,,,,,,,,,,,,,,,,,,,,,,,,,,
64427a7ac5edfedbe0c2779b,TCN,2024-06-24_17h37.16.520,LearnStrategy,2023.2.3,Win32,59.88023952,,,,,,,,,,,3,08,5,6,,,,,,,,,,,,,,,,,,,,,,,,,,,,,
64427a7ac5edfedbe0c2779b,TCN,2024-06-24_17h37.16.520,LearnStrategy,2023.2.3,Win32,59.88023952,,,,,,,,,,,5,05,5,7,,,,,,,,,,,,,,,,,,,,,,,,,,,,,
64427a7ac5edfedbe0c2779b,TCN,2024-06-24_17h37.16.520,LearnStrategy,2023.2.3,Win32,59.88023952,,,,,,,,,,,2,02,5,8,,,,,,,,,,,,,,,,,,,,,,,,,,,,,
64427a7ac5edfedbe0c2779b,TCN,2024-06-24_17h37.16.520,LearnStrategy,2023.2.3,Win32,59.88023952,,,,,,,,,,,1,10,6,1,,,,,,,,,,,,,,,,,,,,,,,,,,,,,
64427a7ac5edfedbe0c2779b,TCN,2024-06-24_17h37.16.520,LearnStrategy,2023.2.3,Win32,59.88023952,,,,,,,,,,,4,09,6,2,,,,,,,,,,,,,,,,,,,,,,,,,,,,,
64427a7ac5edfedbe0c2779b,TCN,2024-06-24_17h37.16.520,LearnStrategy,2023.2.3,Win32,59.88023952,,,,,,,,,,,5,14,6,3,,,,,,,,,,,,,,,,,,,,,,,,,,,,,
64427a7ac5edfedbe0c2779b,TCN,2024-06-24_17h37.16.520,LearnStrategy,2023.2.3,Win32,59.88023952,,,,,,,,,,,2,06,6,4,,,,,,,,,,,,,,,,,,,,,,,,,,,,,
64427a7ac5edfedbe0c2779b,TCN,2024-06-24_17h37.16.520,LearnStrategy,2023.2.3,Win32,59.88023952,,,,,,,,,,,1,01,6,5,,,,,,,,,,,,,,,,,,,,,,,,,,,,,
64427a7ac5edfedbe0c2779b,TCN,2024-06-24_17h37.16.520,LearnStrategy,2023.2.3,Win32,59.88023952,,,,,,,,,,,8,14,6,6,,,,,,,,,,,,,,,,,,,,,,,,,,,,,
64427a7ac5edfedbe0c2779b,TCN,2024-06-24_17h37.16.520,LearnStrategy,2023.2.3,Win32,59.88023952,,,,,,,,,,,5,09,6,7,,,,,,,,,,,,,,,,,,,,,,,,,,,,,
64427a7ac5edfedbe0c2779b,TCN,2024-06-24_17h37.16.520,LearnStrategy,2023.2.3,Win32,59.88023952,,,,,,,,,,,7,07,6,8,,,,,,,,,,,,,,,,,,,,,,,,,,,,,