participant,condition,date,expName,psychopyVersion,OS,frameRate,block,phase,trial,learn_mouse.x,learn_mouse.y,learn_mouse.leftButton,learn_mouse.midButton,learn_mouse.rightButton,learn_mouse.time,learn_mouse.clicked_name,cat,token,row,col,t_select,cat_rec,token_rec,cat_mouse_l.x,cat_mouse_l.y,cat_mouse_l.leftButton,cat_mouse_l.midButton,cat_mouse_l.rightButton,cat_mouse_l.time,cat_mouse_l.clicked_name,resp,t_resp,corr,train_trials.thisRepN,train_trials.thisTrialN,train_trials.thisN,train_trials.thisIndex,train_trials.ran,cat_mouse_t.x,cat_mouse_t.y,cat_mouse_t.leftButton,cat_mouse_t.midButton,cat_mouse_t.rightButton,cat_mouse_t.time,cat_mouse_t.clicked_name,test_trials.thisRepN,test_trials.thisTrialN,test_trials.thisN,test_trials.thisIndex,test_trials.ran,Bonus
645906dc264ac9eb66b7f3ec,SCR,2024-06-24_14h42.54.817,LearnStrategy,2023.2.3,Win32,59.52380952,,,,,,,,,,,,,,,,,,,,,,,,,,,,,,,,,,,,,,,,,,,,,
645906dc264ac9eb66b7f3ec,SCR,2024-06-24_14h42.54.817,LearnStrategy,2023.2.3,Win32,59.52380952,1,1,1,-0.24537037,0.402777778,1,0,0,8.7514,Obsidian_02,5,02,6,3,8.751,4,13,-0.37962963,-0.271296325,1,0,0,3.3477,Andesite_rect,1,3.348,0,0,0,0,0,1,,,,,,,,,,,,,
645906dc264ac9eb66b7f3ec,SCR,2024-06-24_14h42.54.817,LearnStrategy,2023.2.3,Win32,59.52380952,1,1,2,-0.543518526,0.400925928,1,0,0,2.7622,Diorite_12,3,12,6,1,2.762,3,16,0.464814787,-0.400000042,1,0,0,3.3086,Pumice_rect,8,3.309,0,1,0,1,0,1,,,,,,,,,,,,,
645906dc264ac9eb66b7f3ec,SCR,2024-06-24_14h42.54.817,LearnStrategy,2023.2.3,Win32,59.52380952,1,1,3,0.215740769,-0.115740741,1,0,0,2.1116,Pumice_16,8,16,3,6,2.112,8,16,0.411111196,-0.396296325,1,0,0,3.4602,Pumice_rect,8,3.46,1,2,0,2,0,1,,,,,,,,,,,,,
645906dc264ac9eb66b7f3ec,SCR,2024-06-24_14h42.54.817,LearnStrategy,2023.2.3,Win32,59.52380952,1,1,4,-0.361111111,-0.082407422,1,0,0,1.4128,Pumice_14,8,14,3,2,1.413,5,16,0.387037065,-0.400925954,1,0,0,2.4067,Pumice_rect,8,2.407,1,3,0,3,0,1,,,,,,,,,,,,,
645906dc264ac9eb66b7f3ec,SCR,2024-06-24_14h42.54.817,LearnStrategy,2023.2.3,Win32,59.52380952,1,1,5,-0.059259273,0.090740734,1,0,0,1.1777,Andesite_03,1,03,4,4,1.178,7,16,0.074999986,-0.255555541,1,0,0,3.8806,Diorite_rect,3,3.881,0,4,0,4,0,1,,,,,,,,,,,,,
645906dc264ac9eb66b7f3ec,SCR,2024-06-24_14h42.54.817,LearnStrategy,2023.2.3,Win32,59.52380952,1,1,6,-0.075925898,0.057407414,1,0,0,0.9118,Andesite_03,1,03,4,4,0.912,8,03,-0.311111097,-0.242592635,1,0,0,0.9712,Andesite_rect,1,0.971,1,5,0,5,0,1,,,,,,,,,,,,,
645906dc264ac9eb66b7f3ec,SCR,2024-06-24_14h42.54.817,LearnStrategy,2023.2.3,Win32,59.52380952,1,1,7,0.026851866,0.087962963,1,0,0,1.0843,Obsidian_07,5,07,4,5,1.084,2,11,-0.17777775,-0.398148148,1,0,0,4.3466,Pegmatite_rect,6,4.347,0,6,0,6,0,1,,,,,,,,,,,,,
645906dc264ac9eb66b7f3ec,SCR,2024-06-24_14h42.54.817,LearnStrategy,2023.2.3,Win32,59.52380952,1,1,8,0.586111139,0.262962959,1,0,0,4.0299,Pegmatite_08,6,08,5,8,4.03,4,14,0.36018527,-0.23055557,1,0,0,1.8982,Gabbro_rect,4,1.898,0,7,0,7,0,1,,,,,,,,,,,,,
645906dc264ac9eb66b7f3ec,SCR,2024-06-24_14h42.54.817,LearnStrategy,2023.2.3,Win32,59.52380952,1,1,9,0.517592677,0.276851848,1,0,0,1.3957,Pegmatite_08,6,08,5,8,1.396,5,08,-0.039814772,-0.392592607,1,0,0,2.056,Pegmatite_rect,6,2.056,1,8,0,8,0,1,,,,,,,,,,,,,
645906dc264ac9eb66b7f3ec,SCR,2024-06-24_14h42.54.817,LearnStrategy,2023.2.3,Win32,59.52380952,1,1,10,0.082407422,0.089814822,1,0,0,1.2962,Obsidian_07,5,07,4,5,1.296,6,13,0.138888889,-0.389814801,1,0,0,3.4905,Peridotite_rect,7,3.49,0,9,0,9,0,1,,,,,,,,,,,,,
645906dc264ac9eb66b7f3ec,SCR,2024-06-24_14h42.54.817,LearnStrategy,2023.2.3,Win32,59.52380952,1,1,11,0.060185185,0.099074081,1,0,0,0.979,Obsidian_07,5,07,4,5,0.979,1,02,-0.332407386,-0.388888889,1,0,0,2.6073,Obsidian_rect,5,2.607,1,10,0,10,0,1,,,,,,,,,,,,,
645906dc264ac9eb66b7f3ec,SCR,2024-06-24_14h42.54.817,LearnStrategy,2023.2.3,Win32,59.52380952,1,1,12,-0.285185143,-0.081481474,1,0,0,2.3269,Pumice_10,8,10,3,3,2.327,6,09,0.37037037,-0.398148148,1,0,0,1.3398,Pumice_rect,8,1.34,1,11,0,11,0,1,,,,,,,,,,,,,
645906dc264ac9eb66b7f3ec,SCR,2024-06-24_14h42.54.817,LearnStrategy,2023.2.3,Win32,59.52380952,1,1,13,-0.070370356,0.103703711,1,0,0,1.3297,Andesite_03,1,03,4,4,1.33,7,08,0.086111139,-0.228703746,1,0,0,1.1559,Diorite_rect,3,1.156,0,12,0,12,0,1,,,,,,,,,,,,,
645906dc264ac9eb66b7f3ec,SCR,2024-06-24_14h42.54.817,LearnStrategy,2023.2.3,Win32,59.52380952,1,1,14,-0.044444402,0.081481474,1,0,0,0.7134,Andesite_03,1,03,4,4,0.713,2,08,-0.361111111,-0.24537037,1,0,0,0.9414,Andesite_rect,1,0.941,1,13,0,13,0,1,,,,,,,,,,,,,
645906dc264ac9eb66b7f3ec,SCR,2024-06-24_14h42.54.817,LearnStrategy,2023.2.3,Win32,59.52380952,1,1,15,0.067592621,0.289814808,1,0,0,1.2284,Andesite_14,1,14,5,5,1.228,1,04,0.400925954,-0.239814829,1,0,0,1.976,Gabbro_rect,4,1.976,0,14,0,14,0,1,,,,,,,,,,,,,
645906dc264ac9eb66b7f3ec,SCR,2024-06-24_14h42.54.817,LearnStrategy,2023.2.3,Win32,59.52380952,1,1,16,0.043518561,0.234259252,1,0,0,0.8171,Andesite_14,1,14,5,5,0.817,3,14,-0.401851831,-0.258333347,1,0,0,0.8167,Andesite_rect,1,0.817,1,15,0,15,0,1,,,,,,,,,,,,,
645906dc264ac9eb66b7f3ec,SCR,2024-06-24_14h42.54.817,LearnStrategy,2023.2.3,Win32,59.52380952,1,2,1,,,,,,,,7,06,,,,,,,,,,,,,4,1.934,0,,,,,,0.375,-0.243518547,1,0,0,1.9343,Gabbro_rect,0,0,0,0,1,
645906dc264ac9eb66b7f3ec,SCR,2024-06-24_14h42.54.817,LearnStrategy,2023.2.3,Win32,59.52380952,1,2,2,,,,,,,,1,05,,,,,,,,,,,,,3,2.802,0,,,,,,0.051851838,-0.263888889,1,0,0,2.8019,Diorite_rect,1,0,1,0,1,
645906dc264ac9eb66b7f3ec,SCR,2024-06-24_14h42.54.817,LearnStrategy,2023.2.3,Win32,59.52380952,1,2,3,,,,,,,,1,09,,,,,,,,,,,,,2,2.822,0,,,,,,-0.206481439,-0.262962977,1,0,0,2.8218,Basalt_rect,2,0,2,0,1,
645906dc264ac9eb66b7f3ec,SCR,2024-06-24_14h42.54.817,LearnStrategy,2023.2.3,Win32,59.52380952,1,2,4,,,,,,,,4,15,,,,,,,,,,,,,6,1.346,0,,,,,,-0.16851849,-0.411111125,1,0,0,1.3458,Pegmatite_rect,3,0,3,0,1,
645906dc264ac9eb66b7f3ec,SCR,2024-06-24_14h42.54.817,LearnStrategy,2023.2.3,Win32,59.52380952,1,2,5,,,,,,,,8,05,,,,,,,,,,,,,8,1.489,1,,,,,,0.428703732,-0.39444443,1,0,0,1.4885,Pumice_rect,4,0,4,0,1,
645906dc264ac9eb66b7f3ec,SCR,2024-06-24_14h42.54.817,LearnStrategy,2023.2.3,Win32,59.52380952,1,2,6,,,,,,,,2,12,,,,,,,,,,,,,4,1.063,0,,,,,,0.428703732,-0.250925912,1,0,0,1.0626,Gabbro_rect,5,0,5,0,1,
645906dc264ac9eb66b7f3ec,SCR,2024-06-24_14h42.54.817,LearnStrategy,2023.2.3,Win32,59.52380952,1,2,7,,,,,,,,3,10,,,,,,,,,,,,,6,1.814,0,,,,,,-0.110185199,-0.408333319,1,0,0,1.8145,Pegmatite_rect,6,0,6,0,1,
645906dc264ac9eb66b7f3ec,SCR,2024-06-24_14h42.54.817,LearnStrategy,2023.2.3,Win32,59.52380952,1,2,8,,,,,,,,3,09,,,,,,,,,,,,,6,0.698,0,,,,,,-0.110185199,-0.408333319,1,0,0,0.6978,Pegmatite_rect,7,0,7,0,1,
645906dc264ac9eb66b7f3ec,SCR,2024-06-24_14h42.54.817,LearnStrategy,2023.2.3,Win32,59.52380952,1,2,9,,,,,,,,8,15,,,,,,,,,,,,,8,1.834,1,,,,,,0.368518547,-0.391666695,1,0,0,1.8336,Pumice_rect,8,0,8,0,1,
645906dc264ac9eb66b7f3ec,SCR,2024-06-24_14h42.54.817,LearnStrategy,2023.2.3,Win32,59.52380952,1,2,10,,,,,,,,7,10,,,,,,,,,,,,,3,2.297,0,,,,,,0.214814857,-0.244444459,1,0,0,2.2974,Diorite_rect,9,0,9,0,1,
645906dc264ac9eb66b7f3ec,SCR,2024-06-24_14h42.54.817,LearnStrategy,2023.2.3,Win32,59.52380952,1,2,11,,,,,,,,5,11,,,,,,,,,,,,,5,2.001,1,,,,,,-0.328703704,-0.418518561,1,0,0,2.0008,Obsidian_rect,10,0,10,0,1,
645906dc264ac9eb66b7f3ec,SCR,2024-06-24_14h42.54.817,LearnStrategy,2023.2.3,Win32,59.52380952,1,2,12,,,,,,,,5,04,,,,,,,,,,,,,5,0.607,1,,,,,,-0.328703704,-0.418518561,1,0,0,0.6067,Obsidian_rect,11,0,11,0,1,
645906dc264ac9eb66b7f3ec,SCR,2024-06-24_14h42.54.817,LearnStrategy,2023.2.3,Win32,59.52380952,1,2,13,,,,,,,,6,10,,,,,,,,,,,,,7,3.212,0,,,,,,0.115740741,-0.400000042,1,0,0,3.2118,Peridotite_rect,12,0,12,0,1,
645906dc264ac9eb66b7f3ec,SCR,2024-06-24_14h42.54.817,LearnStrategy,2023.2.3,Win32,59.52380952,1,2,14,,,,,,,,2,01,,,,,,,,,,,,,3,1.171,0,,,,,,0.142592607,-0.242592635,1,0,0,1.1714,Diorite_rect,13,0,13,0,1,
645906dc264ac9eb66b7f3ec,SCR,2024-06-24_14h42.54.817,LearnStrategy,2023.2.3,Win32,59.52380952,1,2,15,,,,,,,,4,16,,,,,,,,,,,,,3,0.773,0,,,,,,0.142592607,-0.242592635,1,0,0,0.7725,Diorite_rect,14,0,14,0,1,
645906dc264ac9eb66b7f3ec,SCR,2024-06-24_14h42.54.817,LearnStrategy,2023.2.3,Win32,59.52380952,1,2,16,,,,,,,,6,16,,,,,,,,,,,,,4,1.889,0,,,,,,0.316666638,-0.26944443,1,0,0,1.8895,Gabbro_rect,15,0,15,0,1,
645906dc264ac9eb66b7f3ec,SCR,2024-06-24_14h42.54.817,LearnStrategy,2023.2.3,Win32,59.52380952,2,1,1,-0.445370356,0.088888875,1,0,0,1.1959,Obsidian_09,5,09,4,2,1.196,3,16,-0.338888875,-0.393518519,1,0,0,1.2067,Obsidian_rect,5,1.207,1,0,0,0,0,1,,,,,,,,,,,,,
645906dc264ac9eb66b7f3ec,SCR,2024-06-24_14h42.54.817,LearnStrategy,2023.2.3,Win32,59.52380952,2,1,2,0.062962991,0.085185192,1,0,0,0.9154,Obsidian_07,5,07,4,5,0.915,2,11,0.125,-0.39907406,1,0,0,1.2213,Peridotite_rect,7,1.221,0,1,0,1,0,1,,,,,,,,,,,,,
645906dc264ac9eb66b7f3ec,SCR,2024-06-24_14h42.54.817,LearnStrategy,2023.2.3,Win32,59.52380952,2,1,3,-0.252777735,0.099074081,1,0,0,1.5141,Peridotite_15,7,15,4,3,1.514,7,08,-0.154629601,-0.25,1,0,0,0.7385,Basalt_rect,2,0.738,0,2,0,2,0,1,,,,,,,,,,,,,
645906dc264ac9eb66b7f3ec,SCR,2024-06-24_14h42.54.817,LearnStrategy,2023.2.3,Win32,59.52380952,2,1,4,-0.066666638,0.252777771,1,0,0,2.8629,Diorite_15,3,15,5,4,2.863,6,12,0.412963019,-0.384259259,1,0,0,1.075,Pumice_rect,8,1.075,0,3,0,3,0,1,,,,,,,,,,,,,
645906dc264ac9eb66b7f3ec,SCR,2024-06-24_14h42.54.817,LearnStrategy,2023.2.3,Win32,59.52380952,2,1,5,-0.530555548,-0.087037051,1,0,0,2.4547,Obsidian_16,5,16,3,1,2.455,3,12,-0.344444452,-0.402777778,1,0,0,0.9427,Obsidian_rect,5,0.943,1,4,0,4,0,1,,,,,,,,,,,,,
645906dc264ac9eb66b7f3ec,SCR,2024-06-24_14h42.54.817,LearnStrategy,2023.2.3,Win32,59.52380952,2,1,6,0.394444501,0.077777757,1,0,0,1.2483,Pegmatite_09,6,09,4,7,1.248,7,07,0.195370356,-0.251851894,1,0,0,0.7673,Diorite_rect,3,0.767,0,5,0,5,0,1,,,,,,,,,,,,,
645906dc264ac9eb66b7f3ec,SCR,2024-06-24_14h42.54.817,LearnStrategy,2023.2.3,Win32,59.52380952,2,1,7,0.54351849,0.095370363,1,0,0,1.1646,Andesite_16,1,16,4,8,1.165,4,11,0.350000028,-0.231481481,1,0,0,0.886,Gabbro_rect,4,0.886,0,6,0,6,0,1,,,,,,,,,,,,,
645906dc264ac9eb66b7f3ec,SCR,2024-06-24_14h42.54.817,LearnStrategy,2023.2.3,Win32,59.52380952,2,1,8,0.045370384,-0.09629631,1,0,0,0.951,Basalt_02,2,02,3,5,0.951,1,02,-0.124074088,-0.39907406,1,0,0,1.7128,Pegmatite_rect,6,1.713,0,7,0,7,0,1,,,,,,,,,,,,,
645906dc264ac9eb66b7f3ec,SCR,2024-06-24_14h42.54.817,LearnStrategy,2023.2.3,Win32,59.52380952,2,1,9,-0.193518533,-0.107407393,1,0,0,4.0291,Pumice_10,8,10,3,3,4.029,6,09,0.463888945,-0.412962949,1,0,0,0.9669,Pumice_rect,8,0.967,1,8,0,8,0,1,,,,,,,,,,,,,
645906dc264ac9eb66b7f3ec,SCR,2024-06-24_14h42.54.817,LearnStrategy,2023.2.3,Win32,59.52380952,2,1,10,-0.35833334,-0.275925954,1,0,0,1.3332,Peridotite_07,7,07,2,2,1.333,1,03,0.207407422,-0.238888917,1,0,0,1.8912,Diorite_rect,3,1.891,0,9,0,9,0,1,,,,,,,,,,,,,
645906dc264ac9eb66b7f3ec,SCR,2024-06-24_14h42.54.817,LearnStrategy,2023.2.3,Win32,59.52380952,2,1,11,0.586111139,-0.10092594,1,0,0,1.5416,Basalt_08,2,08,3,8,1.542,4,13,0.151851866,-0.25,1,0,0,1.656,Diorite_rect,3,1.656,0,10,0,10,0,1,,,,,,,,,,,,,
645906dc264ac9eb66b7f3ec,SCR,2024-06-24_14h42.54.817,LearnStrategy,2023.2.3,Win32,59.52380952,2,1,12,0.575000057,-0.072222215,1,0,0,0.8783,Basalt_08,2,08,3,8,0.878,6,06,-0.075925898,-0.247222265,1,0,0,0.9914,Basalt_rect,2,0.991,1,11,0,11,0,1,,,,,,,,,,,,,
645906dc264ac9eb66b7f3ec,SCR,2024-06-24_14h42.54.817,LearnStrategy,2023.2.3,Win32,59.52380952,2,1,13,0.092592593,0.100925905,1,0,0,0.9146,Obsidian_07,5,07,4,5,0.915,3,12,-0.361111111,-0.406481496,1,0,0,1.2355,Obsidian_rect,5,1.236,1,12,0,12,0,1,,,,,,,,,,,,,
645906dc264ac9eb66b7f3ec,SCR,2024-06-24_14h42.54.817,LearnStrategy,2023.2.3,Win32,59.52380952,2,1,14,-0.41111109,0.092592593,1,0,0,3.5916,Obsidian_09,5,09,4,2,3.592,4,08,-0.322222215,-0.408333319,1,0,0,0.9,Obsidian_rect,5,0.9,1,13,0,13,0,1,,,,,,,,,,,,,
645906dc264ac9eb66b7f3ec,SCR,2024-06-24_14h42.54.817,LearnStrategy,2023.2.3,Win32,59.52380952,2,1,15,-0.036111125,0.10833334,1,0,0,1.3122,Andesite_03,1,03,4,4,1.312,7,08,0.114814829,-0.400925954,1,0,0,1.8906,Peridotite_rect,7,1.891,0,14,0,14,0,1,,,,,,,,,,,,,
645906dc264ac9eb66b7f3ec,SCR,2024-06-24_14h42.54.817,LearnStrategy,2023.2.3,Win32,59.52380952,2,1,16,-0.064814815,0.093518504,1,0,0,0.8124,Andesite_03,1,03,4,4,0.812,2,09,-0.429629608,-0.235185199,1,0,0,1.7184,Andesite_rect,1,1.718,1,15,0,15,0,1,,,,,,,,,,,,,
645906dc264ac9eb66b7f3ec,SCR,2024-06-24_14h42.54.817,LearnStrategy,2023.2.3,Win32,59.52380952,2,2,1,,,,,,,,6,05,,,,,,,,,,,,,3,1.474,0,,,,,,0.087037051,-0.252777806,1,0,0,1.4736,Diorite_rect,0,0,0,0,1,
645906dc264ac9eb66b7f3ec,SCR,2024-06-24_14h42.54.817,LearnStrategy,2023.2.3,Win32,59.52380952,2,2,2,,,,,,,,7,14,,,,,,,,,,,,,2,3.255,0,,,,,,-0.090740698,-0.268518519,1,0,0,3.2553,Basalt_rect,1,0,1,0,1,
645906dc264ac9eb66b7f3ec,SCR,2024-06-24_14h42.54.817,LearnStrategy,2023.2.3,Win32,59.52380952,2,2,3,,,,,,,,3,06,,,,,,,,,,,,,6,1.669,0,,,,,,-0.093518504,-0.404629672,1,0,0,1.6686,Pegmatite_rect,2,0,2,0,1,
645906dc264ac9eb66b7f3ec,SCR,2024-06-24_14h42.54.817,LearnStrategy,2023.2.3,Win32,59.52380952,2,2,4,,,,,,,,5,10,,,,,,,,,,,,,5,1.507,1,,,,,,-0.328703704,-0.397222236,1,0,0,1.5067,Obsidian_rect,3,0,3,0,1,
645906dc264ac9eb66b7f3ec,SCR,2024-06-24_14h42.54.817,LearnStrategy,2023.2.3,Win32,59.52380952,2,2,5,,,,,,,,2,06,,,,,,,,,,,,,6,1.289,0,,,,,,-0.130555541,-0.415740755,1,0,0,1.2886,Pegmatite_rect,4,0,4,0,1,
645906dc264ac9eb66b7f3ec,SCR,2024-06-24_14h42.54.817,LearnStrategy,2023.2.3,Win32,59.52380952,2,2,6,,,,,,,,6,03,,,,,,,,,,,,,1,3.056,0,,,,,,-0.308333326,-0.26944443,1,0,0,3.056,Andesite_rect,5,0,5,0,1,
645906dc264ac9eb66b7f3ec,SCR,2024-06-24_14h42.54.817,LearnStrategy,2023.2.3,Win32,59.52380952,2,2,7,,,,,,,,4,01,,,,,,,,,,,,,3,1.806,0,,,,,,0.175000014,-0.239814829,1,0,0,1.8065,Diorite_rect,6,0,6,0,1,
645906dc264ac9eb66b7f3ec,SCR,2024-06-24_14h42.54.817,LearnStrategy,2023.2.3,Win32,59.52380952,2,2,8,,,,,,,,4,03,,,,,,,,,,,,,4,1.282,1,,,,,,0.339814787,-0.25,1,0,0,1.2817,Gabbro_rect,7,0,7,0,1,
645906dc264ac9eb66b7f3ec,SCR,2024-06-24_14h42.54.817,LearnStrategy,2023.2.3,Win32,59.52380952,2,2,9,,,,,,,,8,02,,,,,,,,,,,,,8,1.391,1,,,,,,0.344444416,-0.39444443,1,0,0,1.3906,Pumice_rect,8,0,8,0,1,
645906dc264ac9eb66b7f3ec,SCR,2024-06-24_14h42.54.817,LearnStrategy,2023.2.3,Win32,59.52380952,2,2,10,,,,,,,,3,02,,,,,,,,,,,,,3,1.955,1,,,,,,0.198148162,-0.260185171,1,0,0,1.9554,Diorite_rect,9,0,9,0,1,
645906dc264ac9eb66b7f3ec,SCR,2024-06-24_14h42.54.817,LearnStrategy,2023.2.3,Win32,59.52380952,2,2,11,,,,,,,,1,01,,,,,,,,,,,,,3,1.032,0,,,,,,0.198148162,-0.260185171,1,0,0,1.0325,Diorite_rect,10,0,10,0,1,
645906dc264ac9eb66b7f3ec,SCR,2024-06-24_14h42.54.817,LearnStrategy,2023.2.3,Win32,59.52380952,2,2,12,,,,,,,,8,04,,,,,,,,,,,,,8,0.983,1,,,,,,0.356481481,-0.388888889,1,0,0,0.9828,Pumice_rect,11,0,11,0,1,
645906dc264ac9eb66b7f3ec,SCR,2024-06-24_14h42.54.817,LearnStrategy,2023.2.3,Win32,59.52380952,2,2,13,,,,,,,,1,11,,,,,,,,,,,,,7,1.555,0,,,,,,0.183333362,-0.386111153,1,0,0,1.555,Peridotite_rect,12,0,12,0,1,
645906dc264ac9eb66b7f3ec,SCR,2024-06-24_14h42.54.817,LearnStrategy,2023.2.3,Win32,59.52380952,2,2,14,,,,,,,,5,06,,,,,,,,,,,,,5,1.277,1,,,,,,-0.408333319,-0.402777778,1,0,0,1.2772,Obsidian_rect,13,0,13,0,1,
645906dc264ac9eb66b7f3ec,SCR,2024-06-24_14h42.54.817,LearnStrategy,2023.2.3,Win32,59.52380952,2,2,15,,,,,,,,7,12,,,,,,,,,,,,,6,1.783,0,,,,,,-0.092592593,-0.386111153,1,0,0,1.7827,Pegmatite_rect,14,0,14,0,1,
645906dc264ac9eb66b7f3ec,SCR,2024-06-24_14h42.54.817,LearnStrategy,2023.2.3,Win32,59.52380952,2,2,16,,,,,,,,2,16,,,,,,,,,,,,,8,1.712,0,,,,,,0.483333305,-0.414814843,1,0,0,1.7125,Pumice_rect,15,0,15,0,1,
645906dc264ac9eb66b7f3ec,SCR,2024-06-24_14h42.54.817,LearnStrategy,2023.2.3,Win32,59.52380952,3,1,1,0.047222208,0.116666653,1,0,0,0.8303,Obsidian_07,5,07,4,5,0.83,2,09,-0.441666674,-0.382407436,1,0,0,0.842,Obsidian_rect,5,0.842,1,0,0,0,0,1,,,,,,,,,,,,,
645906dc264ac9eb66b7f3ec,SCR,2024-06-24_14h42.54.817,LearnStrategy,2023.2.3,Win32,59.52380952,3,1,2,-0.058333291,0.074074074,1,0,0,0.9291,Andesite_03,1,03,4,4,0.929,6,08,-0.108333305,-0.231481481,1,0,0,1.4692,Basalt_rect,2,1.469,0,1,0,1,0,1,,,,,,,,,,,,,
645906dc264ac9eb66b7f3ec,SCR,2024-06-24_14h42.54.817,LearnStrategy,2023.2.3,Win32,59.52380952,3,1,3,-0.063888903,0.077777757,1,0,0,0.7014,Andesite_03,1,03,4,4,0.701,6,12,-0.304629608,-0.237037023,1,0,0,0.7797,Andesite_rect,1,0.78,1,2,0,2,0,1,,,,,,,,,,,,,
645906dc264ac9eb66b7f3ec,SCR,2024-06-24_14h42.54.817,LearnStrategy,2023.2.3,Win32,59.52380952,3,1,4,0.537037037,-0.267592607,1,0,0,3.6116,Basalt_09,2,09,2,8,3.612,2,02,0.437962991,-0.256481524,1,0,0,0.7304,Gabbro_rect,4,0.73,0,3,0,3,0,1,,,,,,,,,,,,,
645906dc264ac9eb66b7f3ec,SCR,2024-06-24_14h42.54.817,LearnStrategy,2023.2.3,Win32,59.52380952,3,1,5,-0.086111069,-0.111111111,1,0,0,1.3903,Diorite_07,3,07,3,4,1.39,4,08,-0.113888847,-0.238888917,1,0,0,0.6555,Basalt_rect,2,0.656,0,4,0,4,0,1,,,,,,,,,,,,,
645906dc264ac9eb66b7f3ec,SCR,2024-06-24_14h42.54.817,LearnStrategy,2023.2.3,Win32,59.52380952,3,1,6,0.433333362,0.247222212,1,0,0,1.7464,Pegmatite_06,6,06,5,7,1.746,7,15,0.173148191,-0.232407393,1,0,0,0.9224,Diorite_rect,3,0.922,0,5,0,5,0,1,,,,,,,,,,,,,
645906dc264ac9eb66b7f3ec,SCR,2024-06-24_14h42.54.817,LearnStrategy,2023.2.3,Win32,59.52380952,3,1,7,-0.556481467,0.085185192,1,0,0,1.3458,Basalt_05,2,05,4,1,1.346,1,16,-0.433333326,-0.240740741,1,0,0,0.8742,Andesite_rect,1,0.874,0,6,0,6,0,1,,,,,,,,,,,,,
645906dc264ac9eb66b7f3ec,SCR,2024-06-24_14h42.54.817,LearnStrategy,2023.2.3,Win32,59.52380952,3,1,8,-0.082407422,0.44259259,1,0,0,1.7071,Peridotite_02,7,02,6,4,1.707,3,15,-0.073148162,-0.240740741,1,0,0,1.5802,Basalt_rect,2,1.58,0,7,0,7,0,1,,,,,,,,,,,,,
645906dc264ac9eb66b7f3ec,SCR,2024-06-24_14h42.54.817,LearnStrategy,2023.2.3,Win32,59.52380952,3,1,9,0.225000028,0.247222212,1,0,0,1.0493,Andesite_02,1,02,5,6,1.049,1,14,0.342592593,-0.263888889,1,0,0,1.9045,Gabbro_rect,4,1.904,0,8,0,8,0,1,,,,,,,,,,,,,
645906dc264ac9eb66b7f3ec,SCR,2024-06-24_14h42.54.817,LearnStrategy,2023.2.3,Win32,59.52380952,3,1,10,-0.256481453,-0.08888891,1,0,0,3.062,Pumice_10,8,10,3,3,3.062,2,05,0.363888917,-0.391666695,1,0,0,1.4264,Pumice_rect,8,1.426,1,9,0,9,0,1,,,,,,,,,,,,,
645906dc264ac9eb66b7f3ec,SCR,2024-06-24_14h42.54.817,LearnStrategy,2023.2.3,Win32,59.52380952,3,1,11,-0.437962956,0.105555534,1,0,0,1.046,Obsidian_09,5,09,4,2,1.046,6,13,-0.416666667,-0.383333347,1,0,0,1.1242,Obsidian_rect,5,1.124,1,10,0,10,0,1,,,,,,,,,,,,,
645906dc264ac9eb66b7f3ec,SCR,2024-06-24_14h42.54.817,LearnStrategy,2023.2.3,Win32,59.52380952,3,1,12,0.063888903,0.092592593,1,0,0,0.814,Obsidian_07,5,07,4,5,0.814,7,05,-0.424999979,-0.386111153,1,0,0,0.8231,Obsidian_rect,5,0.823,1,11,0,11,0,1,,,,,,,,,,,,,
645906dc264ac9eb66b7f3ec,SCR,2024-06-24_14h42.54.817,LearnStrategy,2023.2.3,Win32,59.52380952,3,1,13,0.078703704,-0.059259273,1,0,0,0.9817,Basalt_02,2,02,3,5,0.982,3,12,0.147222236,-0.243518547,1,0,0,0.7851,Diorite_rect,3,0.785,0,12,0,12,0,1,,,,,,,,,,,,,
645906dc264ac9eb66b7f3ec,SCR,2024-06-24_14h42.54.817,LearnStrategy,2023.2.3,Win32,59.52380952,3,1,14,0.068518533,-0.074074074,1,0,0,0.6659,Basalt_02,2,02,3,5,0.666,1,06,-0.210185157,-0.271296325,1,0,0,0.8422,Basalt_rect,2,0.842,1,13,0,13,0,1,,,,,,,,,,,,,
645906dc264ac9eb66b7f3ec,SCR,2024-06-24_14h42.54.817,LearnStrategy,2023.2.3,Win32,59.52380952,3,1,15,0.256481524,0.072222215,1,0,0,1.1838,Andesite_04,1,04,4,6,1.184,7,16,0.174074102,-0.264814801,1,0,0,0.9753,Diorite_rect,3,0.975,0,14,0,14,0,1,,,,,,,,,,,,,
645906dc264ac9eb66b7f3ec,SCR,2024-06-24_14h42.54.817,LearnStrategy,2023.2.3,Win32,59.52380952,3,1,16,0.260185171,0.083333333,1,0,0,0.9667,Andesite_04,1,04,4,6,0.967,4,12,-0.440740727,-0.23055557,1,0,0,1.4633,Andesite_rect,1,1.463,1,15,0,15,0,1,,,,,,,,,,,,,
645906dc264ac9eb66b7f3ec,SCR,2024-06-24_14h42.54.817,LearnStrategy,2023.2.3,Win32,59.52380952,3,2,1,,,,,,,,4,10,,,,,,,,,,,,,3,2.527,0,,,,,,0.107407393,-0.237963005,1,0,0,2.5274,Diorite_rect,0,0,0,0,1,
645906dc264ac9eb66b7f3ec,SCR,2024-06-24_14h42.54.817,LearnStrategy,2023.2.3,Win32,59.52380952,3,2,2,,,,,,,,2,04,,,,,,,,,,,,,7,2.714,0,,,,,,0.130555541,-0.387962977,1,0,0,2.7137,Peridotite_rect,1,0,1,0,1,
645906dc264ac9eb66b7f3ec,SCR,2024-06-24_14h42.54.817,LearnStrategy,2023.2.3,Win32,59.52380952,3,2,3,,,,,,,,3,08,,,,,,,,,,,,,1,2.807,0,,,,,,-0.41574072,-0.249074088,1,0,0,2.8066,Andesite_rect,2,0,2,0,1,
645906dc264ac9eb66b7f3ec,SCR,2024-06-24_14h42.54.817,LearnStrategy,2023.2.3,Win32,59.52380952,3,2,4,,,,,,,,7,13,,,,,,,,,,,,,2,0.816,0,,,,,,-0.163888861,-0.248148176,1,0,0,0.8164,Basalt_rect,3,0,3,0,1,
645906dc264ac9eb66b7f3ec,SCR,2024-06-24_14h42.54.817,LearnStrategy,2023.2.3,Win32,59.52380952,3,2,5,,,,,,,,8,09,,,,,,,,,,,,,8,1.123,1,,,,,,0.441666638,-0.393518519,1,0,0,1.123,Pumice_rect,4,0,4,0,1,
645906dc264ac9eb66b7f3ec,SCR,2024-06-24_14h42.54.817,LearnStrategy,2023.2.3,Win32,59.52380952,3,2,6,,,,,,,,6,11,,,,,,,,,,,,,5,1.915,0,,,,,,-0.349999993,-0.396296325,1,0,0,1.9146,Obsidian_rect,5,0,5,0,1,
645906dc264ac9eb66b7f3ec,SCR,2024-06-24_14h42.54.817,LearnStrategy,2023.2.3,Win32,59.52380952,3,2,7,,,,,,,,3,11,,,,,,,,,,,,,6,1.166,0,,,,,,-0.09629631,-0.39444443,1,0,0,1.1664,Pegmatite_rect,6,0,6,0,1,
645906dc264ac9eb66b7f3ec,SCR,2024-06-24_14h42.54.817,LearnStrategy,2023.2.3,Win32,59.52380952,3,2,8,,,,,,,,5,12,,,,,,,,,,,,,5,1.375,1,,,,,,-0.362037023,-0.40370369,1,0,0,1.3748,Obsidian_rect,7,0,7,0,1,
645906dc264ac9eb66b7f3ec,SCR,2024-06-24_14h42.54.817,LearnStrategy,2023.2.3,Win32,59.52380952,3,2,9,,,,,,,,5,05,,,,,,,,,,,,,5,0.686,1,,,,,,-0.362037023,-0.40370369,1,0,0,0.6863,Obsidian_rect,8,0,8,0,1,
645906dc264ac9eb66b7f3ec,SCR,2024-06-24_14h42.54.817,LearnStrategy,2023.2.3,Win32,59.52380952,3,2,10,,,,,,,,6,07,,,,,,,,,,,,,2,2.201,0,,,,,,-0.169444402,-0.243518547,1,0,0,2.2005,Basalt_rect,9,0,9,0,1,
645906dc264ac9eb66b7f3ec,SCR,2024-06-24_14h42.54.817,LearnStrategy,2023.2.3,Win32,59.52380952,3,2,11,,,,,,,,1,10,,,,,,,,,,,,,3,1.132,0,,,,,,0.075925968,-0.263888889,1,0,0,1.1323,Diorite_rect,10,0,10,0,1,
645906dc264ac9eb66b7f3ec,SCR,2024-06-24_14h42.54.817,LearnStrategy,2023.2.3,Win32,59.52380952,3,2,12,,,,,,,,8,13,,,,,,,,,,,,,8,1.672,1,,,,,,0.390740712,-0.417592578,1,0,0,1.672,Pumice_rect,11,0,11,0,1,
645906dc264ac9eb66b7f3ec,SCR,2024-06-24_14h42.54.817,LearnStrategy,2023.2.3,Win32,59.52380952,3,2,13,,,,,,,,1,07,,,,,,,,,,,,,7,0.856,0,,,,,,0.150925954,-0.391666695,1,0,0,0.8558,Peridotite_rect,12,0,12,0,1,
645906dc264ac9eb66b7f3ec,SCR,2024-06-24_14h42.54.817,LearnStrategy,2023.2.3,Win32,59.52380952,3,2,14,,,,,,,,4,05,,,,,,,,,,,,,7,0.663,0,,,,,,0.148148148,-0.389814801,1,0,0,0.6635,Peridotite_rect,13,0,13,0,1,
645906dc264ac9eb66b7f3ec,SCR,2024-06-24_14h42.54.817,LearnStrategy,2023.2.3,Win32,59.52380952,3,2,15,,,,,,,,2,10,,,,,,,,,,,,,2,3.849,1,,,,,,-0.114814829,-0.241666653,1,0,0,3.849,Basalt_rect,14,0,14,0,1,
645906dc264ac9eb66b7f3ec,SCR,2024-06-24_14h42.54.817,LearnStrategy,2023.2.3,Win32,59.52380952,3,2,16,,,,,,,,7,04,,,,,,,,,,,,,4,1.342,0,,,,,,0.413888861,-0.239814829,1,0,0,1.3418,Gabbro_rect,15,0,15,0,1,
645906dc264ac9eb66b7f3ec,SCR,2024-06-24_14h42.54.817,LearnStrategy,2023.2.3,Win32,59.52380952,4,1,1,0.040740755,0.091666645,1,0,0,0.9395,Obsidian_07,5,07,4,5,0.939,1,04,-0.376851859,-0.378703718,1,0,0,0.9141,Obsidian_rect,5,0.914,1,0,0,0,0,1,,,,,,,,,,,,,
645906dc264ac9eb66b7f3ec,SCR,2024-06-24_14h42.54.817,LearnStrategy,2023.2.3,Win32,59.52380952,4,1,2,0.204629616,0.103703711,1,0,0,1.0982,Andesite_04,1,04,4,6,1.098,3,13,0.103703746,-0.23055557,1,0,0,1.2897,Diorite_rect,3,1.29,0,1,0,1,0,1,,,,,,,,,,,,,
645906dc264ac9eb66b7f3ec,SCR,2024-06-24_14h42.54.817,LearnStrategy,2023.2.3,Win32,59.52380952,4,1,3,0.238888917,0.086111104,1,0,0,0.7148,Andesite_04,1,04,4,6,0.715,7,05,-0.40648146,-0.237963005,1,0,0,0.657,Andesite_rect,1,0.657,1,2,0,2,0,1,,,,,,,,,,,,,
645906dc264ac9eb66b7f3ec,SCR,2024-06-24_14h42.54.817,LearnStrategy,2023.2.3,Win32,59.52380952,4,1,4,0.10555557,0.26203703,1,0,0,1.4135,Andesite_14,1,14,5,5,1.413,3,13,-0.079629616,-0.235185199,1,0,0,1.0404,Basalt_rect,2,1.04,0,3,0,3,0,1,,,,,,,,,,,,,
645906dc264ac9eb66b7f3ec,SCR,2024-06-24_14h42.54.817,LearnStrategy,2023.2.3,Win32,59.52380952,4,1,5,0.077777792,0.264814818,1,0,0,0.8312,Andesite_14,1,14,5,5,0.831,7,08,-0.357407393,-0.249074088,1,0,0,0.6852,Andesite_rect,1,0.685,1,4,0,4,0,1,,,,,,,,,,,,,
645906dc264ac9eb66b7f3ec,SCR,2024-06-24_14h42.54.817,LearnStrategy,2023.2.3,Win32,59.52380952,4,1,6,-0.204629616,0.110185164,1,0,0,2.6852,Peridotite_15,7,15,4,3,2.685,1,14,-0.069444444,-0.267592607,1,0,0,1.2295,Basalt_rect,2,1.229,0,5,0,5,0,1,,,,,,,,,,,,,
645906dc264ac9eb66b7f3ec,SCR,2024-06-24_14h42.54.817,LearnStrategy,2023.2.3,Win32,59.52380952,4,1,7,-0.252777735,0.087037016,1,0,0,0.746,Peridotite_15,7,15,4,3,0.746,6,13,0.162037037,-0.392592607,1,0,0,1.6908,Peridotite_rect,7,1.691,1,6,0,6,0,1,,,,,,,,,,,,,
645906dc264ac9eb66b7f3ec,SCR,2024-06-24_14h42.54.817,LearnStrategy,2023.2.3,Win32,59.52380952,4,1,8,-0.087037051,-0.082407422,1,0,0,1.3282,Diorite_07,3,07,3,4,1.328,2,14,-0.099074046,-0.250925912,1,0,0,1.135,Basalt_rect,2,1.135,0,7,0,7,0,1,,,,,,,,,,,,,
645906dc264ac9eb66b7f3ec,SCR,2024-06-24_14h42.54.817,LearnStrategy,2023.2.3,Win32,59.52380952,4,1,9,-0.092592593,-0.091666681,1,0,0,1.1893,Diorite_07,3,07,3,4,1.189,2,08,0.125925912,-0.265740783,1,0,0,0.8303,Diorite_rect,3,0.83,1,8,0,8,0,1,,,,,,,,,,,,,
645906dc264ac9eb66b7f3ec,SCR,2024-06-24_14h42.54.817,LearnStrategy,2023.2.3,Win32,59.52380952,4,1,10,0.537963019,-0.135185171,1,0,0,2.1471,Basalt_08,2,08,3,8,2.147,1,04,0.155555584,-0.235185199,1,0,0,1.706,Diorite_rect,3,1.706,0,9,0,9,0,1,,,,,,,,,,,,,
645906dc264ac9eb66b7f3ec,SCR,2024-06-24_14h42.54.817,LearnStrategy,2023.2.3,Win32,59.52380952,4,1,11,0.562962991,-0.092592593,1,0,0,0.9208,Basalt_08,2,08,3,8,0.921,7,02,-0.12037037,-0.250925912,1,0,0,0.8916,Basalt_rect,2,0.892,1,10,0,10,0,1,,,,,,,,,,,,,
645906dc264ac9eb66b7f3ec,SCR,2024-06-24_14h42.54.817,LearnStrategy,2023.2.3,Win32,59.52380952,4,1,12,0.570370427,0.231481481,1,0,0,1.5804,Pegmatite_08,6,08,5,8,1.58,4,12,0.119444459,-0.239814829,1,0,0,0.8396,Diorite_rect,3,0.84,0,11,0,11,0,1,,,,,,,,,,,,,
645906dc264ac9eb66b7f3ec,SCR,2024-06-24_14h42.54.817,LearnStrategy,2023.2.3,Win32,59.52380952,4,1,13,0.598148205,0.244444441,1,0,0,1.1301,Pegmatite_08,6,08,5,8,1.13,4,11,-0.080555527,-0.40370369,1,0,0,1.9119,Pegmatite_rect,6,1.912,1,12,0,12,0,1,,,,,,,,,,,,,
645906dc264ac9eb66b7f3ec,SCR,2024-06-24_14h42.54.817,LearnStrategy,2023.2.3,Win32,59.52380952,4,1,14,0.036111125,-0.119444459,1,0,0,1.947,Basalt_02,2,02,3,5,1.947,6,06,0.376851824,-0.257407436,1,0,0,1.9897,Gabbro_rect,4,1.99,0,13,0,13,0,1,,,,,,,,,,,,,
645906dc264ac9eb66b7f3ec,SCR,2024-06-24_14h42.54.817,LearnStrategy,2023.2.3,Win32,59.52380952,4,1,15,0.036111125,-0.115740741,1,0,0,0.9318,Basalt_02,2,02,3,5,0.932,3,12,-0.114814829,-0.237963005,1,0,0,3.3564,Basalt_rect,2,3.356,1,14,0,14,0,1,,,,,,,,,,,,,
645906dc264ac9eb66b7f3ec,SCR,2024-06-24_14h42.54.817,LearnStrategy,2023.2.3,Win32,59.52380952,4,1,16,-0.239814829,-0.10092594,1,0,0,0.9966,Pumice_10,8,10,3,3,0.997,6,06,0.439814815,-0.406481496,1,0,0,1.0899,Pumice_rect,8,1.09,1,15,0,15,0,1,,,,,,,,,,,,,
645906dc264ac9eb66b7f3ec,SCR,2024-06-24_14h42.54.817,LearnStrategy,2023.2.3,Win32,59.52380952,4,2,1,,,,,,,,1,01,,,,,,,,,,,,,4,1.406,0,,,,,,0.49537037,-0.256481524,1,0,0,1.4058,Gabbro_rect,0,0,0,0,1,
645906dc264ac9eb66b7f3ec,SCR,2024-06-24_14h42.54.817,LearnStrategy,2023.2.3,Win32,59.52380952,4,2,2,,,,,,,,6,16,,,,,,,,,,,,,3,1.64,0,,,,,,0.084259245,-0.253703718,1,0,0,1.6402,Diorite_rect,1,0,1,0,1,
645906dc264ac9eb66b7f3ec,SCR,2024-06-24_14h42.54.817,LearnStrategy,2023.2.3,Win32,59.52380952,4,2,3,,,,,,,,8,02,,,,,,,,,,,,,8,1.488,1,,,,,,0.398148148,-0.37962963,1,0,0,1.4884,Pumice_rect,2,0,2,0,1,
645906dc264ac9eb66b7f3ec,SCR,2024-06-24_14h42.54.817,LearnStrategy,2023.2.3,Win32,59.52380952,4,2,4,,,,,,,,5,04,,,,,,,,,,,,,5,1.671,1,,,,,,-0.443518497,-0.387037065,1,0,0,1.6705,Obsidian_rect,3,0,3,0,1,
645906dc264ac9eb66b7f3ec,SCR,2024-06-24_14h42.54.817,LearnStrategy,2023.2.3,Win32,59.52380952,4,2,5,,,,,,,,8,09,,,,,,,,,,,,,8,1.237,1,,,,,,0.439814815,-0.40370369,1,0,0,1.2368,Pumice_rect,4,0,4,0,1,
645906dc264ac9eb66b7f3ec,SCR,2024-06-24_14h42.54.817,LearnStrategy,2023.2.3,Win32,59.52380952,4,2,6,,,,,,,,4,01,,,,,,,,,,,,,1,2.234,0,,,,,,-0.327777757,-0.236111111,1,0,0,2.2338,Andesite_rect,5,0,5,0,1,
645906dc264ac9eb66b7f3ec,SCR,2024-06-24_14h42.54.817,LearnStrategy,2023.2.3,Win32,59.52380952,4,2,7,,,,,,,,7,06,,,,,,,,,,,,,2,1.041,0,,,,,,-0.143518519,-0.253703718,1,0,0,1.0411,Basalt_rect,6,0,6,0,1,
645906dc264ac9eb66b7f3ec,SCR,2024-06-24_14h42.54.817,LearnStrategy,2023.2.3,Win32,59.52380952,4,2,8,,,,,,,,3,09,,,,,,,,,,,,,6,2.278,0,,,,,,-0.041666667,-0.407407407,1,0,0,2.2782,Pegmatite_rect,7,0,7,0,1,
645906dc264ac9eb66b7f3ec,SCR,2024-06-24_14h42.54.817,LearnStrategy,2023.2.3,Win32,59.52380952,4,2,9,,,,,,,,4,03,,,,,,,,,,,,,6,2.198,0,,,,,,-0.087037051,-0.385185171,1,0,0,2.1979,Pegmatite_rect,8,0,8,0,1,
645906dc264ac9eb66b7f3ec,SCR,2024-06-24_14h42.54.817,LearnStrategy,2023.2.3,Win32,59.52380952,4,2,10,,,,,,,,1,10,,,,,,,,,,,,,3,1.802,0,,,,,,0.188888903,-0.262962977,1,0,0,1.8016,Diorite_rect,9,0,9,0,1,
645906dc264ac9eb66b7f3ec,SCR,2024-06-24_14h42.54.817,LearnStrategy,2023.2.3,Win32,59.52380952,4,2,11,,,,,,,,3,11,,,,,,,,,,,,,2,1.224,0,,,,,,-0.092592593,-0.255555541,1,0,0,1.2236,Basalt_rect,10,0,10,0,1,
645906dc264ac9eb66b7f3ec,SCR,2024-06-24_14h42.54.817,LearnStrategy,2023.2.3,Win32,59.52380952,4,2,12,,,,,,,,2,16,,,,,,,,,,,,,2,1.348,1,,,,,,-0.092592593,-0.255555541,1,0,0,1.3476,Basalt_rect,11,0,11,0,1,
645906dc264ac9eb66b7f3ec,SCR,2024-06-24_14h42.54.817,LearnStrategy,2023.2.3,Win32,59.52380952,4,2,13,,,,,,,,7,04,,,,,,,,,,,,,3,1.421,0,,,,,,0.157407407,-0.239814829,1,0,0,1.4211,Diorite_rect,12,0,12,0,1,
645906dc264ac9eb66b7f3ec,SCR,2024-06-24_14h42.54.817,LearnStrategy,2023.2.3,Win32,59.52380952,4,2,14,,,,,,,,6,07,,,,,,,,,,,,,5,1.59,0,,,,,,-0.339814822,-0.39444443,1,0,0,1.5899,Obsidian_rect,13,0,13,0,1,
645906dc264ac9eb66b7f3ec,SCR,2024-06-24_14h42.54.817,LearnStrategy,2023.2.3,Win32,59.52380952,4,2,15,,,,,,,,2,06,,,,,,,,,,,,,2,1.439,1,,,,,,-0.068518533,-0.253703718,1,0,0,1.4388,Basalt_rect,14,0,14,0,1,
645906dc264ac9eb66b7f3ec,SCR,2024-06-24_14h42.54.817,LearnStrategy,2023.2.3,Win32,59.52380952,4,2,16,,,,,,,,5,12,,,,,,,,,,,,,2,0.539,0,,,,,,-0.069444444,-0.253703718,1,0,0,0.5388,Basalt_rect,15,0,15,0,1,
645906dc264ac9eb66b7f3ec,SCR,2024-06-24_14h42.54.817,LearnStrategy,2023.2.3,Win32,59.52380952,5,1,1,-0.057407379,0.084259245,1,0,0,1.4225,Andesite_03,1,03,4,4,1.422,3,13,-0.108333305,-0.252777806,1,0,0,0.9738,Basalt_rect,2,0.974,0,0,0,0,0,1,,,,,,,,,,,,,
645906dc264ac9eb66b7f3ec,SCR,2024-06-24_14h42.54.817,LearnStrategy,2023.2.3,Win32,59.52380952,5,1,2,-0.068518533,0.095370363,1,0,0,0.6974,Andesite_03,1,03,4,4,0.697,6,09,-0.389814801,-0.239814829,1,0,0,0.8413,Andesite_rect,1,0.841,1,1,0,1,0,1,,,,,,,,,,,,,
645906dc264ac9eb66b7f3ec,SCR,2024-06-24_14h42.54.817,LearnStrategy,2023.2.3,Win32,59.52380952,5,1,3,-0.210185157,0.109259252,1,0,0,2.032,Peridotite_15,7,15,4,3,2.032,1,04,-0.137036995,-0.258333347,1,0,0,1.0953,Basalt_rect,2,1.095,0,2,0,2,0,1,,,,,,,,,,,,,
645906dc264ac9eb66b7f3ec,SCR,2024-06-24_14h42.54.817,LearnStrategy,2023.2.3,Win32,59.52380952,5,1,4,-0.249074088,0.100925905,1,0,0,0.7149,Peridotite_15,7,15,4,3,0.715,3,15,0.166666667,-0.407407407,1,0,0,1.0737,Peridotite_rect,7,1.074,1,3,0,3,0,1,,,,,,,,,,,,,
645906dc264ac9eb66b7f3ec,SCR,2024-06-24_14h42.54.817,LearnStrategy,2023.2.3,Win32,59.52380952,5,1,5,0.033333319,-0.081481474,1,0,0,1.3309,Basalt_02,2,02,3,5,1.331,6,08,0.059259273,-0.235185199,1,0,0,0.7225,Diorite_rect,3,0.722,0,4,0,4,0,1,,,,,,,,,,,,,
645906dc264ac9eb66b7f3ec,SCR,2024-06-24_14h42.54.817,LearnStrategy,2023.2.3,Win32,59.52380952,5,1,6,0.035185213,-0.098148134,1,0,0,1.0126,Basalt_02,2,02,3,5,1.013,3,07,-0.208333333,-0.251851894,1,0,0,0.6445,Basalt_rect,2,0.644,1,5,0,5,0,1,,,,,,,,,,,,,
645906dc264ac9eb66b7f3ec,SCR,2024-06-24_14h42.54.817,LearnStrategy,2023.2.3,Win32,59.52380952,5,1,7,0.23055557,-0.067592586,1,0,0,0.9411,Pumice_16,8,16,3,6,0.941,7,16,0.361111111,-0.401851866,1,0,0,1.2606,Pumice_rect,8,1.261,1,6,0,6,0,1,,,,,,,,,,,,,
645906dc264ac9eb66b7f3ec,SCR,2024-06-24_14h42.54.817,LearnStrategy,2023.2.3,Win32,59.52380952,5,1,8,0.556481538,0.286111108,1,0,0,2.3964,Pegmatite_08,6,08,5,8,2.396,7,02,-0.095370328,-0.262962977,1,0,0,0.7396,Basalt_rect,2,0.74,0,7,0,7,0,1,,,,,,,,,,,,,
645906dc264ac9eb66b7f3ec,SCR,2024-06-24_14h42.54.817,LearnStrategy,2023.2.3,Win32,59.52380952,5,1,9,-0.219444416,-0.099074116,1,0,0,8.532,Pumice_10,8,10,3,3,8.532,2,02,0.32685188,-0.416666667,1,0,0,1.1659,Pumice_rect,8,1.166,1,8,0,8,0,1,,,,,,,,,,,,,
645906dc264ac9eb66b7f3ec,SCR,2024-06-24_14h42.54.817,LearnStrategy,2023.2.3,Win32,59.52380952,5,1,10,-0.407407407,0.268518519,1,0,0,1.6813,Pumice_03,8,03,5,2,1.681,1,06,0.36018527,-0.260185171,1,0,0,1.7911,Gabbro_rect,4,1.791,0,9,0,9,0,1,,,,,,,,,,,,,
645906dc264ac9eb66b7f3ec,SCR,2024-06-24_14h42.54.817,LearnStrategy,2023.2.3,Win32,59.52380952,5,1,11,-0.590740734,-0.237037023,1,0,0,1.913,Obsidian_14,5,14,2,1,1.913,7,02,-0.40370369,-0.387037065,1,0,0,0.9733,Obsidian_rect,5,0.973,1,10,0,10,0,1,,,,,,,,,,,,,
645906dc264ac9eb66b7f3ec,SCR,2024-06-24_14h42.54.817,LearnStrategy,2023.2.3,Win32,59.52380952,5,1,12,0.557407379,0.227777781,1,0,0,1.3274,Pegmatite_08,6,08,5,8,1.327,5,14,-0.157407407,-0.388888889,1,0,0,2.0979,Pegmatite_rect,6,2.098,1,11,0,11,0,1,,,,,,,,,,,,,
645906dc264ac9eb66b7f3ec,SCR,2024-06-24_14h42.54.817,LearnStrategy,2023.2.3,Win32,59.52380952,5,1,13,0.584259316,-0.082407422,1,0,0,1.6469,Basalt_08,2,08,3,8,1.647,4,14,-0.10555557,-0.251851894,1,0,0,1.6736,Basalt_rect,2,1.674,1,12,0,12,0,1,,,,,,,,,,,,,
645906dc264ac9eb66b7f3ec,SCR,2024-06-24_14h42.54.817,LearnStrategy,2023.2.3,Win32,59.52380952,5,1,14,-0.396296289,-0.434259273,1,0,0,3.0626,Pumice_08,8,08,1,2,3.063,4,08,0.426851908,-0.417592578,1,0,0,1.04,Pumice_rect,8,1.04,1,13,0,13,0,1,,,,,,,,,,,,,
645906dc264ac9eb66b7f3ec,SCR,2024-06-24_14h42.54.817,LearnStrategy,2023.2.3,Win32,59.52380952,5,1,15,0.111111111,-0.255555541,1,0,0,1.0648,Pegmatite_15,6,15,2,5,1.065,6,06,0.111111111,-0.255555541,1,0,0,0.6898,Diorite_rect,3,0.69,0,14,0,14,0,1,,,,,,,,,,,,,
645906dc264ac9eb66b7f3ec,SCR,2024-06-24_14h42.54.817,LearnStrategy,2023.2.3,Win32,59.52380952,5,1,16,0.119444459,-0.259259259,1,0,0,0.8812,Pegmatite_15,6,15,2,5,0.881,1,06,-0.162037037,-0.406481496,1,0,0,0.9691,Pegmatite_rect,6,0.969,1,15,0,15,0,1,,,,,,,,,,,,,
645906dc264ac9eb66b7f3ec,SCR,2024-06-24_14h42.54.817,LearnStrategy,2023.2.3,Win32,59.52380952,5,2,1,,,,,,,,4,10,,,,,,,,,,,,,3,3.61,0,,,,,,0.180555556,-0.251851894,1,0,0,3.6096,Diorite_rect,0,0,0,0,1,
645906dc264ac9eb66b7f3ec,SCR,2024-06-24_14h42.54.817,LearnStrategy,2023.2.3,Win32,59.52380952,5,2,2,,,,,,,,7,14,,,,,,,,,,,,,1,2.866,0,,,,,,-0.340740734,-0.25,1,0,0,2.8657,Andesite_rect,1,0,1,0,1,
645906dc264ac9eb66b7f3ec,SCR,2024-06-24_14h42.54.817,LearnStrategy,2023.2.3,Win32,59.52380952,5,2,3,,,,,,,,1,05,,,,,,,,,,,,,2,0.972,0,,,,,,-0.156481496,-0.260185171,1,0,0,0.9716,Basalt_rect,2,0,2,0,1,
645906dc264ac9eb66b7f3ec,SCR,2024-06-24_14h42.54.817,LearnStrategy,2023.2.3,Win32,59.52380952,5,2,4,,,,,,,,2,10,,,,,,,,,,,,,7,2.556,0,,,,,,0.050925926,-0.400925954,1,0,0,2.556,Peridotite_rect,3,0,3,0,1,
645906dc264ac9eb66b7f3ec,SCR,2024-06-24_14h42.54.817,LearnStrategy,2023.2.3,Win32,59.52380952,5,2,5,,,,,,,,8,15,,,,,,,,,,,,,8,0.891,1,,,,,,0.40370376,-0.402777778,1,0,0,0.8915,Pumice_rect,4,0,4,0,1,
645906dc264ac9eb66b7f3ec,SCR,2024-06-24_14h42.54.817,LearnStrategy,2023.2.3,Win32,59.52380952,5,2,6,,,,,,,,6,05,,,,,,,,,,,,,6,1.739,1,,,,,,-0.128703718,-0.37962963,1,0,0,1.7393,Pegmatite_rect,5,0,5,0,1,
645906dc264ac9eb66b7f3ec,SCR,2024-06-24_14h42.54.817,LearnStrategy,2023.2.3,Win32,59.52380952,5,2,7,,,,,,,,5,11,,,,,,,,,,,,,5,1.656,1,,,,,,-0.353703711,-0.380555541,1,0,0,1.6559,Obsidian_rect,6,0,6,0,1,
645906dc264ac9eb66b7f3ec,SCR,2024-06-24_14h42.54.817,LearnStrategy,2023.2.3,Win32,59.52380952,5,2,8,,,,,,,,5,05,,,,,,,,,,,,,5,0.69,1,,,,,,-0.350925905,-0.37962963,1,0,0,0.69,Obsidian_rect,7,0,7,0,1,
645906dc264ac9eb66b7f3ec,SCR,2024-06-24_14h42.54.817,LearnStrategy,2023.2.3,Win32,59.52380952,5,2,9,,,,,,,,1,11,,,,,,,,,,,,,1,2.438,1,,,,,,-0.325925933,-0.248148176,1,0,0,2.4383,Andesite_rect,8,0,8,0,1,
645906dc264ac9eb66b7f3ec,SCR,2024-06-24_14h42.54.817,LearnStrategy,2023.2.3,Win32,59.52380952,5,2,10,,,,,,,,8,13,,,,,,,,,,,,,8,1.623,1,,,,,,0.361111111,-0.378703718,1,0,0,1.6228,Pumice_rect,9,0,9,0,1,
645906dc264ac9eb66b7f3ec,SCR,2024-06-24_14h42.54.817,LearnStrategy,2023.2.3,Win32,59.52380952,5,2,11,,,,,,,,7,12,,,,,,,,,,,,,2,2.792,0,,,,,,-0.087037051,-0.267592607,1,0,0,2.7921,Basalt_rect,10,0,10,0,1,
645906dc264ac9eb66b7f3ec,SCR,2024-06-24_14h42.54.817,LearnStrategy,2023.2.3,Win32,59.52380952,5,2,12,,,,,,,,4,16,,,,,,,,,,,,,2,0.749,0,,,,,,-0.087037051,-0.267592607,1,0,0,0.749,Basalt_rect,11,0,11,0,1,
645906dc264ac9eb66b7f3ec,SCR,2024-06-24_14h42.54.817,LearnStrategy,2023.2.3,Win32,59.52380952,5,2,13,,,,,,,,6,11,,,,,,,,,,,,,6,1.317,1,,,,,,-0.10555557,-0.412037037,1,0,0,1.3166,Pegmatite_rect,12,0,12,0,1,
645906dc264ac9eb66b7f3ec,SCR,2024-06-24_14h42.54.817,LearnStrategy,2023.2.3,Win32,59.52380952,5,2,14,,,,,,,,3,10,,,,,,,,,,,,,4,1.393,0,,,,,,0.33148151,-0.266666695,1,0,0,1.3933,Gabbro_rect,13,0,13,0,1,
645906dc264ac9eb66b7f3ec,SCR,2024-06-24_14h42.54.817,LearnStrategy,2023.2.3,Win32,59.52380952,5,2,15,,,,,,,,2,04,,,,,,,,,,,,,2,3.284,1,,,,,,-0.165740755,-0.250925912,1,0,0,3.2835,Basalt_rect,14,0,14,0,1,
645906dc264ac9eb66b7f3ec,SCR,2024-06-24_14h42.54.817,LearnStrategy,2023.2.3,Win32,59.52380952,5,2,16,,,,,,,,3,02,,,,,,,,,,,,,1,1.101,0,,,,,,-0.438888868,-0.242592635,1,0,0,1.1006,Andesite_rect,15,0,15,0,1,
645906dc264ac9eb66b7f3ec,SCR,2024-06-24_14h42.54.817,LearnStrategy,2023.2.3,Win32,59.52380952,6,1,1,-0.219444416,-0.239814829,1,0,0,2.8231,Peridotite_08,7,08,2,3,2.823,4,12,-0.167592578,-0.235185199,1,0,0,1.0571,Basalt_rect,2,1.057,0,0,0,0,0,1,,,,,,,,,,,,,
645906dc264ac9eb66b7f3ec,SCR,2024-06-24_14h42.54.817,LearnStrategy,2023.2.3,Win32,59.52380952,6,1,2,-0.220370328,0.092592593,1,0,0,1.714,Peridotite_15,7,15,4,3,1.714,3,07,0.05740745,-0.402777778,1,0,0,1.1922,Peridotite_rect,7,1.192,1,1,0,1,0,1,,,,,,,,,,,,,
645906dc264ac9eb66b7f3ec,SCR,2024-06-24_14h42.54.817,LearnStrategy,2023.2.3,Win32,59.52380952,6,1,3,-0.383333312,-0.119444459,1,0,0,1.2643,Pumice_14,8,14,3,2,1.264,6,09,0.104629658,-0.418518561,1,0,0,0.9414,Peridotite_rect,7,0.941,0,2,0,2,0,1,,,,,,,,,,,,,
645906dc264ac9eb66b7f3ec,SCR,2024-06-24_14h42.54.817,LearnStrategy,2023.2.3,Win32,59.52380952,6,1,4,-0.387962942,-0.218518504,1,0,0,1.3814,Peridotite_07,7,07,2,2,1.381,2,02,0.140740783,-0.382407436,1,0,0,1.1619,Peridotite_rect,7,1.162,1,3,0,3,0,1,,,,,,,,,,,,,
645906dc264ac9eb66b7f3ec,SCR,2024-06-24_14h42.54.817,LearnStrategy,2023.2.3,Win32,59.52380952,6,1,5,0.412963019,0.098148134,1,0,0,1.281,Pegmatite_09,6,09,4,7,1.281,4,08,0.112037023,-0.420370384,1,0,0,1.0396,Peridotite_rect,7,1.04,0,4,0,4,0,1,,,,,,,,,,,,,
645906dc264ac9eb66b7f3ec,SCR,2024-06-24_14h42.54.817,LearnStrategy,2023.2.3,Win32,59.52380952,6,1,6,0.583333333,0.277777778,1,0,0,1.9391,Pegmatite_08,6,08,5,8,1.939,6,09,-0.125925912,-0.413888931,1,0,0,1.625,Pegmatite_rect,6,1.625,1,5,0,5,0,1,,,,,,,,,,,,,
645906dc264ac9eb66b7f3ec,SCR,2024-06-24_14h42.54.817,LearnStrategy,2023.2.3,Win32,59.52380952,6,1,7,0.399999972,0.268518519,1,0,0,2.2994,Pegmatite_06,6,06,5,7,2.299,7,07,0.090740769,-0.383333347,1,0,0,1.1242,Peridotite_rect,7,1.124,0,6,0,6,0,1,,,,,,,,,,,,,
645906dc264ac9eb66b7f3ec,SCR,2024-06-24_14h42.54.817,LearnStrategy,2023.2.3,Win32,59.52380952,6,1,8,0.393518519,0.210185175,1,0,0,1.6454,Pegmatite_06,6,06,5,7,1.645,1,16,-0.10555557,-0.418518561,1,0,0,1.3416,Pegmatite_rect,6,1.342,1,7,0,7,0,1,,,,,,,,,,,,,
645906dc264ac9eb66b7f3ec,SCR,2024-06-24_14h42.54.817,LearnStrategy,2023.2.3,Win32,59.52380952,6,1,9,-0.203703704,0.101851852,1,0,0,1.0752,Peridotite_15,7,15,4,3,1.075,1,06,-0.139814801,-0.410185213,1,0,0,0.9923,Pegmatite_rect,6,0.992,0,8,0,8,0,1,,,,,,,,,,,,,
645906dc264ac9eb66b7f3ec,SCR,2024-06-24_14h42.54.817,LearnStrategy,2023.2.3,Win32,59.52380952,6,1,10,-0.199999986,0.087962963,1,0,0,0.9126,Peridotite_15,7,15,4,3,0.913,5,09,0.137962977,-0.389814801,1,0,0,0.6742,Peridotite_rect,7,0.674,1,9,0,9,0,1,,,,,,,,,,,,,
645906dc264ac9eb66b7f3ec,SCR,2024-06-24_14h42.54.817,LearnStrategy,2023.2.3,Win32,59.52380952,6,1,11,-0.220370328,0.083333333,1,0,0,2.7806,Peridotite_15,7,15,4,3,2.781,2,02,0.094444487,-0.389814801,1,0,0,0.9907,Peridotite_rect,7,0.991,1,10,0,10,0,1,,,,,,,,,,,,,
645906dc264ac9eb66b7f3ec,SCR,2024-06-24_14h42.54.817,LearnStrategy,2023.2.3,Win32,59.52380952,6,1,12,-0.054629644,0.095370363,1,0,0,0.8472,Andesite_03,1,03,4,4,0.847,7,08,-0.044444402,-0.260185171,1,0,0,0.8356,Basalt_rect,2,0.836,0,11,0,11,0,1,,,,,,,,,,,,,
645906dc264ac9eb66b7f3ec,SCR,2024-06-24_14h42.54.817,LearnStrategy,2023.2.3,Win32,59.52380952,6,1,13,-0.077777792,0.081481474,1,0,0,0.8344,Andesite_03,1,03,4,4,0.834,7,08,-0.337962963,-0.261111153,1,0,0,1.4747,Andesite_rect,1,1.475,1,12,0,12,0,1,,,,,,,,,,,,,
645906dc264ac9eb66b7f3ec,SCR,2024-06-24_14h42.54.817,LearnStrategy,2023.2.3,Win32,59.52380952,6,1,14,-0.066666638,0.099999993,1,0,0,1.014,Andesite_03,1,03,4,4,1.014,3,15,-0.324999986,-0.239814829,1,0,0,0.7419,Andesite_rect,1,0.742,1,13,0,13,0,1,,,,,,,,,,,,,
645906dc264ac9eb66b7f3ec,SCR,2024-06-24_14h42.54.817,LearnStrategy,2023.2.3,Win32,59.52380952,6,1,15,0.034259302,0.11296297,1,0,0,1.063,Obsidian_07,5,07,4,5,1.063,4,09,-0.386111118,-0.383333347,1,0,0,1.0407,Obsidian_rect,5,1.041,1,14,0,14,0,1,,,,,,,,,,,,,
645906dc264ac9eb66b7f3ec,SCR,2024-06-24_14h42.54.817,LearnStrategy,2023.2.3,Win32,59.52380952,6,1,16,-0.530555548,0.099999993,1,0,0,2.0224,Basalt_05,2,05,4,1,2.022,3,15,-0.3675926,-0.23055557,1,0,0,0.9018,Andesite_rect,1,0.902,0,15,0,15,0,1,,,,,,,,,,,,,
645906dc264ac9eb66b7f3ec,SCR,2024-06-24_14h42.54.817,LearnStrategy,2023.2.3,Win32,59.52380952,6,2,1,,,,,,,,5,06,,,,,,,,,,,,,5,2.989,1,,,,,,-0.39166666,-0.380555541,1,0,0,2.9891,Obsidian_rect,0,0,0,0,1,
645906dc264ac9eb66b7f3ec,SCR,2024-06-24_14h42.54.817,LearnStrategy,2023.2.3,Win32,59.52380952,6,2,2,,,,,,,,3,06,,,,,,,,,,,,,6,4.431,0,,,,,,-0.084259245,-0.400000042,1,0,0,4.4311,Pegmatite_rect,1,0,1,0,1,
645906dc264ac9eb66b7f3ec,SCR,2024-06-24_14h42.54.817,LearnStrategy,2023.2.3,Win32,59.52380952,6,2,3,,,,,,,,4,15,,,,,,,,,,,,,7,1.566,0,,,,,,0.074999986,-0.387037065,1,0,0,1.5657,Peridotite_rect,2,0,2,0,1,
645906dc264ac9eb66b7f3ec,SCR,2024-06-24_14h42.54.817,LearnStrategy,2023.2.3,Win32,59.52380952,6,2,4,,,,,,,,5,10,,,,,,,,,,,,,5,0.959,1,,,,,,-0.431481467,-0.397222236,1,0,0,0.9593,Obsidian_rect,3,0,3,0,1,
645906dc264ac9eb66b7f3ec,SCR,2024-06-24_14h42.54.817,LearnStrategy,2023.2.3,Win32,59.52380952,6,2,5,,,,,,,,1,09,,,,,,,,,,,,,2,2.94,0,,,,,,-0.195370356,-0.249074088,1,0,0,2.9399,Basalt_rect,4,0,4,0,1,
645906dc264ac9eb66b7f3ec,SCR,2024-06-24_14h42.54.817,LearnStrategy,2023.2.3,Win32,59.52380952,6,2,6,,,,,,,,2,01,,,,,,,,,,,,,2,0.806,1,,,,,,-0.193518533,-0.249074088,1,0,0,0.8058,Basalt_rect,5,0,5,0,1,
645906dc264ac9eb66b7f3ec,SCR,2024-06-24_14h42.54.817,LearnStrategy,2023.2.3,Win32,59.52380952,6,2,7,,,,,,,,3,08,,,,,,,,,,,,,6,3.107,0,,,,,,-0.074074074,-0.397222236,1,0,0,3.1067,Pegmatite_rect,6,0,6,0,1,
645906dc264ac9eb66b7f3ec,SCR,2024-06-24_14h42.54.817,LearnStrategy,2023.2.3,Win32,59.52380952,6,2,8,,,,,,,,2,12,,,,,,,,,,,,,8,0.976,0,,,,,,0.422222279,-0.387037065,1,0,0,0.976,Pumice_rect,7,0,7,0,1,
645906dc264ac9eb66b7f3ec,SCR,2024-06-24_14h42.54.817,LearnStrategy,2023.2.3,Win32,59.52380952,6,2,9,,,,,,,,8,05,,,,,,,,,,,,,8,0.798,1,,,,,,0.397222307,-0.397222236,1,0,0,0.7983,Pumice_rect,8,0,8,0,1,
645906dc264ac9eb66b7f3ec,SCR,2024-06-24_14h42.54.817,LearnStrategy,2023.2.3,Win32,59.52380952,6,2,10,,,,,,,,7,13,,,,,,,,,,,,,7,1.907,1,,,,,,0.097222222,-0.405555584,1,0,0,1.9065,Peridotite_rect,9,0,9,0,1,
645906dc264ac9eb66b7f3ec,SCR,2024-06-24_14h42.54.817,LearnStrategy,2023.2.3,Win32,59.52380952,6,2,11,,,,,,,,7,10,,,,,,,,,,,,,7,0.989,1,,,,,,0.075925968,-0.388888889,1,0,0,0.9889,Peridotite_rect,10,0,10,0,1,
645906dc264ac9eb66b7f3ec,SCR,2024-06-24_14h42.54.817,LearnStrategy,2023.2.3,Win32,59.52380952,6,2,12,,,,,,,,1,07,,,,,,,,,,,,,6,1.003,0,,,,,,-0.086111069,-0.389814801,1,0,0,1.0028,Pegmatite_rect,11,0,11,0,1,
645906dc264ac9eb66b7f3ec,SCR,2024-06-24_14h42.54.817,LearnStrategy,2023.2.3,Win32,59.52380952,6,2,13,,,,,,,,4,05,,,,,,,,,,,,,2,0.872,0,,,,,,-0.137036995,-0.271296325,1,0,0,0.8719,Basalt_rect,12,0,12,0,1,
645906dc264ac9eb66b7f3ec,SCR,2024-06-24_14h42.54.817,LearnStrategy,2023.2.3,Win32,59.52380952,6,2,14,,,,,,,,6,03,,,,,,,,,,,,,7,1.471,0,,,,,,0.107407393,-0.39444443,1,0,0,1.4714,Peridotite_rect,13,0,13,0,1,
645906dc264ac9eb66b7f3ec,SCR,2024-06-24_14h42.54.817,LearnStrategy,2023.2.3,Win32,59.52380952,6,2,15,,,,,,,,8,04,,,,,,,,,,,,,8,0.955,1,,,,,,0.341666751,-0.389814801,1,0,0,0.9553,Pumice_rect,14,0,14,0,1,
645906dc264ac9eb66b7f3ec,SCR,2024-06-24_14h42.54.817,LearnStrategy,2023.2.3,Win32,59.52380952,6,2,16,,,,,,,,6,10,,,,,,,,,,,,,7,2.189,0,,,,,,0.104629658,-0.39907406,1,0,0,2.1891,Peridotite_rect,15,0,15,0,1,
645906dc264ac9eb66b7f3ec,SCR,2024-06-24_14h42.54.817,LearnStrategy,2023.2.3,Win32,59.52380952,7,1,1,-0.3675926,0.099074081,1,0,0,1.2308,Obsidian_09,5,09,4,2,1.231,7,15,-0.384259259,-0.381481524,1,0,0,1.2241,Obsidian_rect,5,1.224,1,0,0,0,0,1,,,,,,,,,,,,,
645906dc264ac9eb66b7f3ec,SCR,2024-06-24_14h42.54.817,LearnStrategy,2023.2.3,Win32,59.52380952,7,1,2,0.056481467,0.078703704,1,0,0,0.7137,Obsidian_07,5,07,4,5,0.714,3,12,-0.344444452,-0.404629672,1,0,0,1.0021,Obsidian_rect,5,1.002,1,1,0,1,0,1,,,,,,,,,,,,,
645906dc264ac9eb66b7f3ec,SCR,2024-06-24_14h42.54.817,LearnStrategy,2023.2.3,Win32,59.52380952,7,1,3,0.375,0.116666653,1,0,0,0.868,Pegmatite_09,6,09,4,7,0.868,1,02,0.124074088,-0.412037037,1,0,0,1.2806,Peridotite_rect,7,1.281,0,2,0,2,0,1,,,,,,,,,,,,,
645906dc264ac9eb66b7f3ec,SCR,2024-06-24_14h42.54.817,LearnStrategy,2023.2.3,Win32,59.52380952,7,1,4,0.351851852,0.088888875,1,0,0,0.7651,Pegmatite_09,6,09,4,7,0.765,2,11,-0.077777792,-0.420370384,1,0,0,0.8908,Pegmatite_rect,6,0.891,1,3,0,3,0,1,,,,,,,,,,,,,
645906dc264ac9eb66b7f3ec,SCR,2024-06-24_14h42.54.817,LearnStrategy,2023.2.3,Win32,59.52380952,7,1,5,0.191666709,0.247222212,1,0,0,1.2322,Andesite_02,1,02,5,6,1.232,2,02,0.399074131,-0.405555584,1,0,0,0.9398,Pumice_rect,8,0.94,0,4,0,4,0,1,,,,,,,,,,,,,
645906dc264ac9eb66b7f3ec,SCR,2024-06-24_14h42.54.817,LearnStrategy,2023.2.3,Win32,59.52380952,7,1,6,0.22592594,0.277777778,1,0,0,0.83,Andesite_02,1,02,5,6,0.83,7,07,-0.381481489,-0.237963005,1,0,0,2.5406,Andesite_rect,1,2.541,1,5,0,5,0,1,,,,,,,,,,,,,
645906dc264ac9eb66b7f3ec,SCR,2024-06-24_14h42.54.817,LearnStrategy,2023.2.3,Win32,59.52380952,7,1,7,-0.395370377,0.255555559,1,0,0,1.5542,Pumice_03,8,03,5,2,1.554,4,12,0.398148148,-0.405555584,1,0,0,1.7742,Pumice_rect,8,1.774,1,6,0,6,0,1,,,,,,,,,,,,,
645906dc264ac9eb66b7f3ec,SCR,2024-06-24_14h42.54.817,LearnStrategy,2023.2.3,Win32,59.52380952,7,1,8,0.047222208,0.284259249,1,0,0,1.6971,Andesite_14,1,14,5,5,1.697,3,16,-0.125925912,-0.262962977,1,0,0,2.2919,Basalt_rect,2,2.292,0,7,0,7,0,1,,,,,,,,,,,,,
645906dc264ac9eb66b7f3ec,SCR,2024-06-24_14h42.54.817,LearnStrategy,2023.2.3,Win32,59.52380952,7,1,9,0.046296296,0.233333323,1,0,0,1.2653,Andesite_14,1,14,5,5,1.265,1,14,-0.39907406,-0.270370413,1,0,0,1.0068,Andesite_rect,1,1.007,1,8,0,8,0,1,,,,,,,,,,,,,
645906dc264ac9eb66b7f3ec,SCR,2024-06-24_14h42.54.817,LearnStrategy,2023.2.3,Win32,59.52380952,7,1,10,-0.377777771,0.420370367,1,0,0,2.1227,Diorite_16,3,16,6,2,2.123,4,11,-0.162037037,-0.395370413,1,0,0,2.2828,Pegmatite_rect,6,2.283,0,9,0,9,0,1,,,,,,,,,,,,,
645906dc264ac9eb66b7f3ec,SCR,2024-06-24_14h42.54.817,LearnStrategy,2023.2.3,Win32,59.52380952,7,1,11,-0.39907406,0.375925921,1,0,0,1.5795,Diorite_16,3,16,6,2,1.579,4,14,0.088888875,-0.244444459,1,0,0,1.5562,Diorite_rect,3,1.556,1,10,0,10,0,1,,,,,,,,,,,,,
645906dc264ac9eb66b7f3ec,SCR,2024-06-24_14h42.54.817,LearnStrategy,2023.2.3,Win32,59.52380952,7,1,12,0.578703704,0.425925926,1,0,0,2.3975,Gabbro_14,4,14,6,8,2.397,3,13,0.349074046,-0.260185171,1,0,0,1.3219,Gabbro_rect,4,1.322,1,11,0,11,0,1,,,,,,,,,,,,,
645906dc264ac9eb66b7f3ec,SCR,2024-06-24_14h42.54.817,LearnStrategy,2023.2.3,Win32,59.52380952,7,1,13,-0.49537037,-0.414814843,1,0,0,6.8784,Basalt_14,2,14,1,1,6.878,5,07,0.492592564,-0.241666653,1,0,0,1.1188,Gabbro_rect,4,1.119,0,12,0,12,0,1,,,,,,,,,,,,,
645906dc264ac9eb66b7f3ec,SCR,2024-06-24_14h42.54.817,LearnStrategy,2023.2.3,Win32,59.52380952,7,1,14,0.10555557,-0.10555557,1,0,0,1.1471,Basalt_02,2,02,3,5,1.147,6,08,0.066666709,-0.271296325,1,0,0,1.2413,Diorite_rect,3,1.241,0,13,0,13,0,1,,,,,,,,,,,,,
645906dc264ac9eb66b7f3ec,SCR,2024-06-24_14h42.54.817,LearnStrategy,2023.2.3,Win32,59.52380952,7,1,15,0.079629616,-0.077777792,1,0,0,0.9481,Basalt_02,2,02,3,5,0.948,6,13,-0.10555557,-0.242592635,1,0,0,0.6066,Basalt_rect,2,0.607,1,14,0,14,0,1,,,,,,,,,,,,,
645906dc264ac9eb66b7f3ec,SCR,2024-06-24_14h42.54.817,LearnStrategy,2023.2.3,Win32,59.52380952,7,1,16,-0.065740727,0.077777757,1,0,0,1.1323,Andesite_03,1,03,4,4,1.132,1,14,-0.12962963,-0.244444459,1,0,0,1.0564,Basalt_rect,2,1.056,0,15,0,15,0,1,,,,,,,,,,,,,
645906dc264ac9eb66b7f3ec,SCR,2024-06-24_14h42.54.817,LearnStrategy,2023.2.3,Win32,59.52380952,7,2,1,,,,,,,,3,02,,,,,,,,,,,,,6,4.073,0,,,,,,-0.101851852,-0.393518519,1,0,0,4.0726,Pegmatite_rect,0,0,0,0,1,
645906dc264ac9eb66b7f3ec,SCR,2024-06-24_14h42.54.817,LearnStrategy,2023.2.3,Win32,59.52380952,7,2,2,,,,,,,,7,06,,,,,,,,,,,,,7,0.865,1,,,,,,0.069444444,-0.404629672,1,0,0,0.865,Peridotite_rect,1,0,1,0,1,
645906dc264ac9eb66b7f3ec,SCR,2024-06-24_14h42.54.817,LearnStrategy,2023.2.3,Win32,59.52380952,7,2,3,,,,,,,,6,03,,,,,,,,,,,,,7,0.773,0,,,,,,0.069444444,-0.404629672,1,0,0,0.773,Peridotite_rect,2,0,2,0,1,
645906dc264ac9eb66b7f3ec,SCR,2024-06-24_14h42.54.817,LearnStrategy,2023.2.3,Win32,59.52380952,7,2,4,,,,,,,,5,10,,,,,,,,,,,,,5,1.084,1,,,,,,-0.471296275,-0.40370369,1,0,0,1.084,Obsidian_rect,3,0,3,0,1,
645906dc264ac9eb66b7f3ec,SCR,2024-06-24_14h42.54.817,LearnStrategy,2023.2.3,Win32,59.52380952,7,2,5,,,,,,,,6,05,,,,,,,,,,,,,7,4.833,0,,,,,,0.088888875,-0.39907406,1,0,0,4.833,Peridotite_rect,4,0,4,0,1,
645906dc264ac9eb66b7f3ec,SCR,2024-06-24_14h42.54.817,LearnStrategy,2023.2.3,Win32,59.52380952,7,2,6,,,,,,,,1,01,,,,,,,,,,,,,4,2.842,0,,,,,,0.362962935,-0.240740741,1,0,0,2.8416,Gabbro_rect,5,0,5,0,1,
645906dc264ac9eb66b7f3ec,SCR,2024-06-24_14h42.54.817,LearnStrategy,2023.2.3,Win32,59.52380952,7,2,7,,,,,,,,7,04,,,,,,,,,,,,,2,1.283,0,,,,,,-0.181481467,-0.265740783,1,0,0,1.2834,Basalt_rect,6,0,6,0,1,
645906dc264ac9eb66b7f3ec,SCR,2024-06-24_14h42.54.817,LearnStrategy,2023.2.3,Win32,59.52380952,7,2,8,,,,,,,,5,05,,,,,,,,,,,,,5,1,1,,,,,,-0.377777771,-0.413888931,1,0,0,0.9998,Obsidian_rect,7,0,7,0,1,
645906dc264ac9eb66b7f3ec,SCR,2024-06-24_14h42.54.817,LearnStrategy,2023.2.3,Win32,59.52380952,7,2,9,,,,,,,,1,10,,,,,,,,,,,,,1,1.083,1,,,,,,-0.335185192,-0.25462963,1,0,0,1.0826,Andesite_rect,8,0,8,0,1,
645906dc264ac9eb66b7f3ec,SCR,2024-06-24_14h42.54.817,LearnStrategy,2023.2.3,Win32,59.52380952,7,2,10,,,,,,,,8,15,,,,,,,,,,,,,8,1.557,1,,,,,,0.444444444,-0.402777778,1,0,0,1.5565,Pumice_rect,9,0,9,0,1,
645906dc264ac9eb66b7f3ec,SCR,2024-06-24_14h42.54.817,LearnStrategy,2023.2.3,Win32,59.52380952,7,2,11,,,,,,,,3,06,,,,,,,,,,,,,3,1.205,1,,,,,,0.217592593,-0.252777806,1,0,0,1.2054,Diorite_rect,10,0,10,0,1,
645906dc264ac9eb66b7f3ec,SCR,2024-06-24_14h42.54.817,LearnStrategy,2023.2.3,Win32,59.52380952,7,2,12,,,,,,,,2,10,,,,,,,,,,,,,4,1.673,0,,,,,,0.42314812,-0.247222265,1,0,0,1.6729,Gabbro_rect,11,0,11,0,1,
645906dc264ac9eb66b7f3ec,SCR,2024-06-24_14h42.54.817,LearnStrategy,2023.2.3,Win32,59.52380952,7,2,13,,,,,,,,4,10,,,,,,,,,,,,,2,2.023,0,,,,,,-0.073148162,-0.25,1,0,0,2.0227,Basalt_rect,12,0,12,0,1,
645906dc264ac9eb66b7f3ec,SCR,2024-06-24_14h42.54.817,LearnStrategy,2023.2.3,Win32,59.52380952,7,2,14,,,,,,,,4,01,,,,,,,,,,,,,2,0.918,0,,,,,,-0.073148162,-0.25,1,0,0,0.9175,Basalt_rect,13,0,13,0,1,
645906dc264ac9eb66b7f3ec,SCR,2024-06-24_14h42.54.817,LearnStrategy,2023.2.3,Win32,59.52380952,7,2,15,,,,,,,,2,16,,,,,,,,,,,,,4,1.939,0,,,,,,0.339814787,-0.251851894,1,0,0,1.9388,Gabbro_rect,14,0,14,0,1,
645906dc264ac9eb66b7f3ec,SCR,2024-06-24_14h42.54.817,LearnStrategy,2023.2.3,Win32,59.52380952,7,2,16,,,,,,,,8,02,,,,,,,,,,,,,8,1.066,1,,,,,,0.337962963,-0.404629672,1,0,0,1.0658,Pumice_rect,15,0,15,0,1,
645906dc264ac9eb66b7f3ec,SCR,2024-06-24_14h42.54.817,LearnStrategy,2023.2.3,Win32,59.52380952,8,1,1,-0.097222222,0.083333333,1,0,0,1.116,Andesite_03,1,03,4,4,1.116,3,07,-0.123148106,-0.247222265,1,0,0,2.3716,Basalt_rect,2,2.372,0,0,0,0,0,1,,,,,,,,,,,,,
645906dc264ac9eb66b7f3ec,SCR,2024-06-24_14h42.54.817,LearnStrategy,2023.2.3,Win32,59.52380952,8,1,2,0.054629644,0.057407414,1,0,0,1.0797,Obsidian_07,5,07,4,5,1.08,5,16,-0.37037037,-0.418518561,1,0,0,3.4576,Obsidian_rect,5,3.458,1,1,0,1,0,1,,,,,,,,,,,,,
645906dc264ac9eb66b7f3ec,SCR,2024-06-24_14h42.54.817,LearnStrategy,2023.2.3,Win32,59.52380952,8,1,3,-0.53611109,-0.116666653,1,0,0,0.9804,Obsidian_16,5,16,3,1,0.98,6,13,-0.3675926,-0.392592607,1,0,0,0.6917,Obsidian_rect,5,0.692,1,2,0,2,0,1,,,,,,,,,,,,,
645906dc264ac9eb66b7f3ec,SCR,2024-06-24_14h42.54.817,LearnStrategy,2023.2.3,Win32,59.52380952,8,1,4,0.419444473,-0.252777806,1,0,0,4.3644,Pegmatite_13,6,13,2,7,4.364,2,11,0.125925912,-0.386111153,1,0,0,0.7323,Peridotite_rect,7,0.732,0,3,0,3,0,1,,,,,,,,,,,,,
645906dc264ac9eb66b7f3ec,SCR,2024-06-24_14h42.54.817,LearnStrategy,2023.2.3,Win32,59.52380952,8,1,5,-0.258333347,0.095370363,1,0,0,1.1306,Peridotite_15,7,15,4,3,1.131,2,14,0.107407393,-0.396296325,1,0,0,1.2908,Peridotite_rect,7,1.291,1,4,0,4,0,1,,,,,,,,,,,,,
645906dc264ac9eb66b7f3ec,SCR,2024-06-24_14h42.54.817,LearnStrategy,2023.2.3,Win32,59.52380952,8,1,6,-0.07222218,0.130555541,1,0,0,1.1063,Andesite_03,1,03,4,4,1.106,6,06,-0.119444459,-0.234259288,1,0,0,0.706,Basalt_rect,2,0.706,0,5,0,5,0,1,,,,,,,,,,,,,
645906dc264ac9eb66b7f3ec,SCR,2024-06-24_14h42.54.817,LearnStrategy,2023.2.3,Win32,59.52380952,8,1,7,-0.111111111,0.104629623,1,0,0,0.5985,Andesite_03,1,03,4,4,0.598,7,02,-0.388888889,-0.240740741,1,0,0,0.5862,Andesite_rect,1,0.586,1,6,0,6,0,1,,,,,,,,,,,,,
645906dc264ac9eb66b7f3ec,SCR,2024-06-24_14h42.54.817,LearnStrategy,2023.2.3,Win32,59.52380952,8,1,8,0.054629644,0.104629623,1,0,0,0.7669,Obsidian_07,5,07,4,5,0.767,1,03,-0.392592571,-0.410185213,1,0,0,0.8304,Obsidian_rect,5,0.83,1,7,0,7,0,1,,,,,,,,,,,,,
645906dc264ac9eb66b7f3ec,SCR,2024-06-24_14h42.54.817,LearnStrategy,2023.2.3,Win32,59.52380952,8,1,9,0.191666709,0.091666645,1,0,0,0.8722,Andesite_04,1,04,4,6,0.872,6,12,0.099074116,-0.266666695,1,0,0,0.8584,Diorite_rect,3,0.858,0,8,0,8,0,1,,,,,,,,,,,,,
645906dc264ac9eb66b7f3ec,SCR,2024-06-24_14h42.54.817,LearnStrategy,2023.2.3,Win32,59.52380952,8,1,10,0.209259245,0.122222229,1,0,0,0.7307,Andesite_04,1,04,4,6,0.731,1,02,-0.335185192,-0.237963005,1,0,0,0.8642,Andesite_rect,1,0.864,1,9,0,9,0,1,,,,,,,,,,,,,
645906dc264ac9eb66b7f3ec,SCR,2024-06-24_14h42.54.817,LearnStrategy,2023.2.3,Win32,59.52380952,8,1,11,-0.070370356,0.252777771,1,0,0,1.4644,Diorite_15,3,15,5,4,1.464,4,14,-0.127777735,-0.414814843,1,0,0,2.6657,Pegmatite_rect,6,2.666,0,10,0,10,0,1,,,,,,,,,,,,,
645906dc264ac9eb66b7f3ec,SCR,2024-06-24_14h42.54.817,LearnStrategy,2023.2.3,Win32,59.52380952,8,1,12,-0.132407365,0.250925929,1,0,0,0.865,Diorite_15,3,15,5,4,0.865,7,16,0.150925954,-0.255555541,1,0,0,1.1063,Diorite_rect,3,1.106,1,11,0,11,0,1,,,,,,,,,,,,,
645906dc264ac9eb66b7f3ec,SCR,2024-06-24_14h42.54.817,LearnStrategy,2023.2.3,Win32,59.52380952,8,1,13,0.040740755,0.125925912,1,0,0,0.9651,Obsidian_07,5,07,4,5,0.965,2,08,-0.341666645,-0.383333347,1,0,0,0.7389,Obsidian_rect,5,0.739,1,12,0,12,0,1,,,,,,,,,,,,,
645906dc264ac9eb66b7f3ec,SCR,2024-06-24_14h42.54.817,LearnStrategy,2023.2.3,Win32,59.52380952,8,1,14,0.239814829,0.099074081,1,0,0,0.8299,Andesite_04,1,04,4,6,0.83,4,13,0.166666667,-0.388888889,1,0,0,0.8579,Peridotite_rect,7,0.858,0,13,0,13,0,1,,,,,,,,,,,,,
645906dc264ac9eb66b7f3ec,SCR,2024-06-24_14h42.54.817,LearnStrategy,2023.2.3,Win32,59.52380952,8,1,15,0.253703718,0.104629623,1,0,0,1.0308,Andesite_04,1,04,4,6,1.031,4,12,-0.345370363,-0.239814829,1,0,0,0.7909,Andesite_rect,1,0.791,1,14,0,14,0,1,,,,,,,,,,,,,
645906dc264ac9eb66b7f3ec,SCR,2024-06-24_14h42.54.817,LearnStrategy,2023.2.3,Win32,59.52380952,8,1,16,-0.036111125,0.100925905,1,0,0,0.6975,Andesite_03,1,03,4,4,0.697,3,15,-0.091666681,-0.25462963,1,0,0,0.9407,Basalt_rect,2,0.941,0,15,0,15,0,1,,,,,,,,,,,,,
645906dc264ac9eb66b7f3ec,SCR,2024-06-24_14h42.54.817,LearnStrategy,2023.2.3,Win32,59.52380952,8,2,1,,,,,,,,8,13,,,,,,,,,,,,,3,3.679,0,,,,,,0.14444443,-0.237963005,1,0,0,3.6794,Diorite_rect,0,0,0,0,1,
645906dc264ac9eb66b7f3ec,SCR,2024-06-24_14h42.54.817,LearnStrategy,2023.2.3,Win32,59.52380952,8,2,2,,,,,,,,2,12,,,,,,,,,,,,,8,1.709,0,,,,,,0.349074046,-0.381481524,1,0,0,1.7094,Pumice_rect,1,0,1,0,1,
645906dc264ac9eb66b7f3ec,SCR,2024-06-24_14h42.54.817,LearnStrategy,2023.2.3,Win32,59.52380952,8,2,3,,,,,,,,5,06,,,,,,,,,,,,,5,1.283,1,,,,,,-0.312962956,-0.395370413,1,0,0,1.2831,Obsidian_rect,2,0,2,0,1,
645906dc264ac9eb66b7f3ec,SCR,2024-06-24_14h42.54.817,LearnStrategy,2023.2.3,Win32,59.52380952,8,2,4,,,,,,,,2,04,,,,,,,,,,,,,3,2.556,0,,,,,,0.112037023,-0.236111111,1,0,0,2.5564,Diorite_rect,3,0,3,0,1,
645906dc264ac9eb66b7f3ec,SCR,2024-06-24_14h42.54.817,LearnStrategy,2023.2.3,Win32,59.52380952,8,2,5,,,,,,,,6,16,,,,,,,,,,,,,6,5.751,1,,,,,,-0.175925926,-0.413888931,1,0,0,5.7513,Pegmatite_rect,4,0,4,0,1,
645906dc264ac9eb66b7f3ec,SCR,2024-06-24_14h42.54.817,LearnStrategy,2023.2.3,Win32,59.52380952,8,2,6,,,,,,,,7,10,,,,,,,,,,,,,7,1.893,1,,,,,,0.074999986,-0.393518519,1,0,0,1.8934,Peridotite_rect,5,0,5,0,1,
645906dc264ac9eb66b7f3ec,SCR,2024-06-24_14h42.54.817,LearnStrategy,2023.2.3,Win32,59.52380952,8,2,7,,,,,,,,4,16,,,,,,,,,,,,,4,1.67,1,,,,,,0.354629658,-0.270370413,1,0,0,1.6699,Gabbro_rect,6,0,6,0,1,
645906dc264ac9eb66b7f3ec,SCR,2024-06-24_14h42.54.817,LearnStrategy,2023.2.3,Win32,59.52380952,8,2,8,,,,,,,,4,05,,,,,,,,,,,,,3,0.839,0,,,,,,0.151851866,-0.259259259,1,0,0,0.8388,Diorite_rect,7,0,7,0,1,
645906dc264ac9eb66b7f3ec,SCR,2024-06-24_14h42.54.817,LearnStrategy,2023.2.3,Win32,59.52380952,8,2,9,,,,,,,,6,11,,,,,,,,,,,,,3,5.067,0,,,,,,0.187037079,-0.26944443,1,0,0,5.0675,Diorite_rect,8,0,8,0,1,
645906dc264ac9eb66b7f3ec,SCR,2024-06-24_14h42.54.817,LearnStrategy,2023.2.3,Win32,59.52380952,8,2,10,,,,,,,,5,04,,,,,,,,,,,,,5,1.061,1,,,,,,-0.329629616,-0.402777778,1,0,0,1.0614,Obsidian_rect,9,0,9,0,1,
645906dc264ac9eb66b7f3ec,SCR,2024-06-24_14h42.54.817,LearnStrategy,2023.2.3,Win32,59.52380952,8,2,11,,,,,,,,1,09,,,,,,,,,,,,,1,1.949,1,,,,,,-0.422222208,-0.241666653,1,0,0,1.9495,Andesite_rect,10,0,10,0,1,
645906dc264ac9eb66b7f3ec,SCR,2024-06-24_14h42.54.817,LearnStrategy,2023.2.3,Win32,59.52380952,8,2,12,,,,,,,,1,07,,,,,,,,,,,,,2,1.355,0,,,,,,-0.17777775,-0.249074088,1,0,0,1.3546,Basalt_rect,11,0,11,0,1,
645906dc264ac9eb66b7f3ec,SCR,2024-06-24_14h42.54.817,LearnStrategy,2023.2.3,Win32,59.52380952,8,2,13,,,,,,,,3,11,,,,,,,,,,,,,2,0.658,0,,,,,,-0.17777775,-0.249074088,1,0,0,0.6583,Basalt_rect,12,0,12,0,1,
645906dc264ac9eb66b7f3ec,SCR,2024-06-24_14h42.54.817,LearnStrategy,2023.2.3,Win32,59.52380952,8,2,14,,,,,,,,7,14,,,,,,,,,,,,,4,1.501,0,,,,,,0.352777834,-0.239814829,1,0,0,1.5012,Gabbro_rect,13,0,13,0,1,
645906dc264ac9eb66b7f3ec,SCR,2024-06-24_14h42.54.817,LearnStrategy,2023.2.3,Win32,59.52380952,8,2,15,,,,,,,,3,10,,,,,,,,,,,,,4,0.642,0,,,,,,0.352777834,-0.239814829,1,0,0,0.6418,Gabbro_rect,14,0,14,0,1,
645906dc264ac9eb66b7f3ec,SCR,2024-06-24_14h42.54.817,LearnStrategy,2023.2.3,Win32,59.52380952,8,2,16,,,,,,,,8,09,,,,,,,,,,,,,8,1.355,1,,,,,,0.325925898,-0.39907406,1,0,0,1.3549,Pumice_rect,15,0,15,0,1,
645906dc264ac9eb66b7f3ec,SCR,2024-06-24_14h42.54.817,LearnStrategy,2023.2.3,Win32,59.52380952,9,1,1,-0.071296268,0.097222222,1,0,0,0.6642,Andesite_03,1,03,4,4,0.664,7,08,-0.414814808,-0.241666653,1,0,0,0.8838,Andesite_rect,1,0.884,1,0,0,0,0,1,,,,,,,,,,,,,
645906dc264ac9eb66b7f3ec,SCR,2024-06-24_14h42.54.817,LearnStrategy,2023.2.3,Win32,59.52380952,9,1,2,0.050925926,0.111111111,1,0,0,1.067,Obsidian_07,5,07,4,5,1.067,4,08,-0.426851838,-0.397222236,1,0,0,0.75,Obsidian_rect,5,0.75,1,1,0,1,0,1,,,,,,,,,,,,,
645906dc264ac9eb66b7f3ec,SCR,2024-06-24_14h42.54.817,LearnStrategy,2023.2.3,Win32,59.52380952,9,1,3,-0.26944443,0.110185164,1,0,0,0.8483,Peridotite_15,7,15,4,3,0.848,1,03,0.073148162,-0.397222236,1,0,0,1.1575,Peridotite_rect,7,1.158,1,2,0,2,0,1,,,,,,,,,,,,,
645906dc264ac9eb66b7f3ec,SCR,2024-06-24_14h42.54.817,LearnStrategy,2023.2.3,Win32,59.52380952,9,1,4,0.045370384,0.235185182,1,0,0,0.8307,Andesite_14,1,14,5,5,0.831,4,11,0.130555541,-0.260185171,1,0,0,0.7164,Diorite_rect,3,0.716,0,3,0,3,0,1,,,,,,,,,,,,,
645906dc264ac9eb66b7f3ec,SCR,2024-06-24_14h42.54.817,LearnStrategy,2023.2.3,Win32,59.52380952,9,1,5,0.068518533,0.248148141,1,0,0,0.8306,Andesite_14,1,14,5,5,0.831,2,08,-0.341666645,-0.255555541,1,0,0,0.9896,Andesite_rect,1,0.99,1,4,0,4,0,1,,,,,,,,,,,,,
645906dc264ac9eb66b7f3ec,SCR,2024-06-24_14h42.54.817,LearnStrategy,2023.2.3,Win32,59.52380952,9,1,6,0.386111083,0.106481481,1,0,0,1.5797,Pegmatite_09,6,09,4,7,1.58,7,15,0.169444473,-0.408333319,1,0,0,1.3417,Peridotite_rect,7,1.342,0,5,0,5,0,1,,,,,,,,,,,,,
645906dc264ac9eb66b7f3ec,SCR,2024-06-24_14h42.54.817,LearnStrategy,2023.2.3,Win32,59.52380952,9,1,7,0.392592677,0.092592593,1,0,0,1.1461,Pegmatite_09,6,09,4,7,1.146,2,09,-0.054629644,-0.384259259,1,0,0,0.7566,Pegmatite_rect,6,0.757,1,6,0,6,0,1,,,,,,,,,,,,,
645906dc264ac9eb66b7f3ec,SCR,2024-06-24_14h42.54.817,LearnStrategy,2023.2.3,Win32,59.52380952,9,1,8,0.067592621,0.092592593,1,0,0,0.9053,Obsidian_07,5,07,4,5,0.905,2,08,-0.454629616,-0.410185213,1,0,0,0.7585,Obsidian_rect,5,0.759,1,7,0,7,0,1,,,,,,,,,,,,,
645906dc264ac9eb66b7f3ec,SCR,2024-06-24_14h42.54.817,LearnStrategy,2023.2.3,Win32,59.52380952,9,1,9,-0.057407379,0.256481471,1,0,0,0.9329,Diorite_15,3,15,5,4,0.933,3,16,0.484259288,-0.412037037,1,0,0,0.9557,Pumice_rect,8,0.956,0,8,0,8,0,1,,,,,,,,,,,,,
645906dc264ac9eb66b7f3ec,SCR,2024-06-24_14h42.54.817,LearnStrategy,2023.2.3,Win32,59.52380952,9,1,10,-0.081481439,0.230555552,1,0,0,1.145,Diorite_15,3,15,5,4,1.145,6,15,0.209259245,-0.250925912,1,0,0,1.3577,Diorite_rect,3,1.358,1,9,0,9,0,1,,,,,,,,,,,,,
645906dc264ac9eb66b7f3ec,SCR,2024-06-24_14h42.54.817,LearnStrategy,2023.2.3,Win32,59.52380952,9,1,11,-0.235185199,0.104629623,1,0,0,1.5309,Peridotite_15,7,15,4,3,1.531,3,14,0.117592635,-0.382407436,1,0,0,0.8974,Peridotite_rect,7,0.897,1,10,0,10,0,1,,,,,,,,,,,,,
645906dc264ac9eb66b7f3ec,SCR,2024-06-24_14h42.54.817,LearnStrategy,2023.2.3,Win32,59.52380952,9,1,12,0.249074088,0.234259252,1,0,0,0.9814,Andesite_02,1,02,5,6,0.981,4,09,0.158333319,-0.255555541,1,0,0,1.1404,Diorite_rect,3,1.14,0,11,0,11,0,1,,,,,,,,,,,,,
645906dc264ac9eb66b7f3ec,SCR,2024-06-24_14h42.54.817,LearnStrategy,2023.2.3,Win32,59.52380952,9,1,13,0.250925912,0.228703693,1,0,0,0.8646,Andesite_02,1,02,5,6,0.865,3,13,-0.380555541,-0.242592635,1,0,0,0.758,Andesite_rect,1,0.758,1,12,0,12,0,1,,,,,,,,,,,,,
645906dc264ac9eb66b7f3ec,SCR,2024-06-24_14h42.54.817,LearnStrategy,2023.2.3,Win32,59.52380952,9,1,14,0.531481566,0.37962963,1,0,0,1.6808,Gabbro_14,4,14,6,8,1.681,6,06,-0.212037051,-0.421296296,1,0,0,2.6421,Pegmatite_rect,6,2.642,0,13,0,13,0,1,,,,,,,,,,,,,
645906dc264ac9eb66b7f3ec,SCR,2024-06-24_14h42.54.817,LearnStrategy,2023.2.3,Win32,59.52380952,9,1,15,0.518518519,0.409259257,1,0,0,0.8634,Gabbro_14,4,14,6,8,0.863,1,14,0.410185213,-0.242592635,1,0,0,0.7247,Gabbro_rect,4,0.725,1,14,0,14,0,1,,,,,,,,,,,,,
645906dc264ac9eb66b7f3ec,SCR,2024-06-24_14h42.54.817,LearnStrategy,2023.2.3,Win32,59.52380952,9,1,16,0.255555541,0.121296282,1,0,0,1.2467,Andesite_04,1,04,4,6,1.247,8,08,0.156481496,-0.239814829,1,0,0,0.8564,Diorite_rect,3,0.856,0,15,0,15,0,1,,,,,,,,,,,,,
645906dc264ac9eb66b7f3ec,SCR,2024-06-24_14h42.54.817,LearnStrategy,2023.2.3,Win32,59.52380952,9,2,1,,,,,,,,2,06,,,,,,,,,,,,,2,4.409,1,,,,,,-0.04351849,-0.241666653,1,0,0,4.4089,Basalt_rect,0,0,0,0,1,
645906dc264ac9eb66b7f3ec,SCR,2024-06-24_14h42.54.817,LearnStrategy,2023.2.3,Win32,59.52380952,9,2,2,,,,,,,,3,09,,,,,,,,,,,,,3,1.168,1,,,,,,0.162037037,-0.262037065,1,0,0,1.1678,Diorite_rect,1,0,1,0,1,
645906dc264ac9eb66b7f3ec,SCR,2024-06-24_14h42.54.817,LearnStrategy,2023.2.3,Win32,59.52380952,9,2,3,,,,,,,,4,15,,,,,,,,,,,,,4,1.757,1,,,,,,0.424074102,-0.244444459,1,0,0,1.7572,Gabbro_rect,2,0,2,0,1,
645906dc264ac9eb66b7f3ec,SCR,2024-06-24_14h42.54.817,LearnStrategy,2023.2.3,Win32,59.52380952,9,2,4,,,,,,,,3,08,,,,,,,,,,,,,3,1.655,1,,,,,,0.151851866,-0.261111153,1,0,0,1.6552,Diorite_rect,3,0,3,0,1,
645906dc264ac9eb66b7f3ec,SCR,2024-06-24_14h42.54.817,LearnStrategy,2023.2.3,Win32,59.52380952,9,2,5,,,,,,,,2,01,,,,,,,,,,,,,2,1.783,1,,,,,,-0.093518504,-0.243518547,1,0,0,1.7829,Basalt_rect,4,0,4,0,1,
645906dc264ac9eb66b7f3ec,SCR,2024-06-24_14h42.54.817,LearnStrategy,2023.2.3,Win32,59.52380952,9,2,6,,,,,,,,8,04,,,,,,,,,,,,,8,1.155,1,,,,,,0.448148233,-0.400925954,1,0,0,1.1554,Pumice_rect,5,0,5,0,1,
645906dc264ac9eb66b7f3ec,SCR,2024-06-24_14h42.54.817,LearnStrategy,2023.2.3,Win32,59.52380952,9,2,7,,,,,,,,4,03,,,,,,,,,,,,,7,0.956,0,,,,,,0.145370413,-0.395370413,1,0,0,0.9558,Peridotite_rect,6,0,6,0,1,
645906dc264ac9eb66b7f3ec,SCR,2024-06-24_14h42.54.817,LearnStrategy,2023.2.3,Win32,59.52380952,9,2,8,,,,,,,,1,05,,,,,,,,,,,,,6,1.197,0,,,,,,-0.081481439,-0.387037065,1,0,0,1.1967,Pegmatite_rect,7,0,7,0,1,
645906dc264ac9eb66b7f3ec,SCR,2024-06-24_14h42.54.817,LearnStrategy,2023.2.3,Win32,59.52380952,9,2,9,,,,,,,,5,11,,,,,,,,,,,,,5,1.952,1,,,,,,-0.334259245,-0.387037065,1,0,0,1.952,Obsidian_rect,8,0,8,0,1,
645906dc264ac9eb66b7f3ec,SCR,2024-06-24_14h42.54.817,LearnStrategy,2023.2.3,Win32,59.52380952,9,2,10,,,,,,,,7,12,,,,,,,,,,,,,7,2.818,1,,,,,,0.199074074,-0.396296325,1,0,0,2.8179,Peridotite_rect,9,0,9,0,1,
645906dc264ac9eb66b7f3ec,SCR,2024-06-24_14h42.54.817,LearnStrategy,2023.2.3,Win32,59.52380952,9,2,11,,,,,,,,8,05,,,,,,,,,,,,,8,1.289,1,,,,,,0.362962935,-0.398148148,1,0,0,1.2895,Pumice_rect,10,0,10,0,1,
645906dc264ac9eb66b7f3ec,SCR,2024-06-24_14h42.54.817,LearnStrategy,2023.2.3,Win32,59.52380952,9,2,12,,,,,,,,6,10,,,,,,,,,,,,,7,1.281,0,,,,,,0.12962963,-0.380555541,1,0,0,1.281,Peridotite_rect,11,0,11,0,1,
645906dc264ac9eb66b7f3ec,SCR,2024-06-24_14h42.54.817,LearnStrategy,2023.2.3,Win32,59.52380952,9,2,13,,,,,,,,6,07,,,,,,,,,,,,,6,4.372,1,,,,,,-0.189814815,-0.405555584,1,0,0,4.3723,Pegmatite_rect,12,0,12,0,1,
645906dc264ac9eb66b7f3ec,SCR,2024-06-24_14h42.54.817,LearnStrategy,2023.2.3,Win32,59.52380952,9,2,14,,,,,,,,1,11,,,,,,,,,,,,,2,1.197,0,,,,,,-0.050000014,-0.231481481,1,0,0,1.1974,Basalt_rect,13,0,13,0,1,
645906dc264ac9eb66b7f3ec,SCR,2024-06-24_14h42.54.817,LearnStrategy,2023.2.3,Win32,59.52380952,9,2,15,,,,,,,,7,13,,,,,,,,,,,,,7,2.534,1,,,,,,0.162962949,-0.412037037,1,0,0,2.5335,Peridotite_rect,14,0,14,0,1,
645906dc264ac9eb66b7f3ec,SCR,2024-06-24_14h42.54.817,LearnStrategy,2023.2.3,Win32,59.52380952,9,2,16,,,,,,,,5,12,,,,,,,,,,,,,5,0.998,1,,,,,,-0.425925926,-0.388888889,1,0,0,0.9983,Obsidian_rect,15,0,15,0,1,
645906dc264ac9eb66b7f3ec,SCR,2024-06-24_14h42.54.817,LearnStrategy,2023.2.3,Win32,59.52380952,,,,,,,,,,,,,,,,,,,,,,,,,,,,,,,,,,,,,,,,,,,,,0
645906dc264ac9eb66b7f3ec,SCR,2024-06-24_14h42.54.817,LearnStrategy,2023.2.3,Win32,59.52380952,,,,,,,,,,,,,,,,,,,,,,,,,,,,,,,,,,,,,,,,,,,,,
645906dc264ac9eb66b7f3ec,SCR,2024-06-24_14h42.54.817,LearnStrategy,2023.2.3,Win32,59.52380952,,,,,,,,,,,2,14,1,1,,,,,,,,,,,,,,,,,,,,,,,,,,,,,,,
645906dc264ac9eb66b7f3ec,SCR,2024-06-24_14h42.54.817,LearnStrategy,2023.2.3,Win32,59.52380952,,,,,,,,,,,8,08,1,2,,,,,,,,,,,,,,,,,,,,,,,,,,,,,,,
645906dc264ac9eb66b7f3ec,SCR,2024-06-24_14h42.54.817,LearnStrategy,2023.2.3,Win32,59.52380952,,,,,,,,,,,4,09,1,3,,,,,,,,,,,,,,,,,,,,,,,,,,,,,,,
645906dc264ac9eb66b7f3ec,SCR,2024-06-24_14h42.54.817,LearnStrategy,2023.2.3,Win32,59.52380952,,,,,,,,,,,4,11,1,4,,,,,,,,,,,,,,,,,,,,,,,,,,,,,,,
645906dc264ac9eb66b7f3ec,SCR,2024-06-24_14h42.54.817,LearnStrategy,2023.2.3,Win32,59.52380952,,,,,,,,,,,3,13,1,5,,,,,,,,,,,,,,,,,,,,,,,,,,,,,,,
645906dc264ac9eb66b7f3ec,SCR,2024-06-24_14h42.54.817,LearnStrategy,2023.2.3,Win32,59.52380952,,,,,,,,,,,3,14,1,6,,,,,,,,,,,,,,,,,,,,,,,,,,,,,,,
645906dc264ac9eb66b7f3ec,SCR,2024-06-24_14h42.54.817,LearnStrategy,2023.2.3,Win32,59.52380952,,,,,,,,,,,6,12,1,7,,,,,,,,,,,,,,,,,,,,,,,,,,,,,,,
645906dc264ac9eb66b7f3ec,SCR,2024-06-24_14h42.54.817,LearnStrategy,2023.2.3,Win32,59.52380952,,,,,,,,,,,2,11,1,8,,,,,,,,,,,,,,,,,,,,,,,,,,,,,,,
645906dc264ac9eb66b7f3ec,SCR,2024-06-24_14h42.54.817,LearnStrategy,2023.2.3,Win32,59.52380952,,,,,,,,,,,5,14,2,1,,,,,,,,,,,,,,,,,,,,,,,,,,,,,,,
645906dc264ac9eb66b7f3ec,SCR,2024-06-24_14h42.54.817,LearnStrategy,2023.2.3,Win32,59.52380952,,,,,,,,,,,7,07,2,2,,,,,,,,,,,,,,,,,,,,,,,,,,,,,,,
645906dc264ac9eb66b7f3ec,SCR,2024-06-24_14h42.54.817,LearnStrategy,2023.2.3,Win32,59.52380952,,,,,,,,,,,7,08,2,3,,,,,,,,,,,,,,,,,,,,,,,,,,,,,,,
645906dc264ac9eb66b7f3ec,SCR,2024-06-24_14h42.54.817,LearnStrategy,2023.2.3,Win32,59.52380952,,,,,,,,,,,4,12,2,4,,,,,,,,,,,,,,,,,,,,,,,,,,,,,,,
645906dc264ac9eb66b7f3ec,SCR,2024-06-24_14h42.54.817,LearnStrategy,2023.2.3,Win32,59.52380952,,,,,,,,,,,6,15,2,5,,,,,,,,,,,,,,,,,,,,,,,,,,,,,,,
645906dc264ac9eb66b7f3ec,SCR,2024-06-24_14h42.54.817,LearnStrategy,2023.2.3,Win32,59.52380952,,,,,,,,,,,5,08,2,6,,,,,,,,,,,,,,,,,,,,,,,,,,,,,,,
645906dc264ac9eb66b7f3ec,SCR,2024-06-24_14h42.54.817,LearnStrategy,2023.2.3,Win32,59.52380952,,,,,,,,,,,6,13,2,7,,,,,,,,,,,,,,,,,,,,,,,,,,,,,,,
645906dc264ac9eb66b7f3ec,SCR,2024-06-24_14h42.54.817,LearnStrategy,2023.2.3,Win32,59.52380952,,,,,,,,,,,2,09,2,8,,,,,,,,,,,,,,,,,,,,,,,,,,,,,,,
645906dc264ac9eb66b7f3ec,SCR,2024-06-24_14h42.54.817,LearnStrategy,2023.2.3,Win32,59.52380952,,,,,,,,,,,5,16,3,1,,,,,,,,,,,,,,,,,,,,,,,,,,,,,,,
645906dc264ac9eb66b7f3ec,SCR,2024-06-24_14h42.54.817,LearnStrategy,2023.2.3,Win32,59.52380952,,,,,,,,,,,8,14,3,2,,,,,,,,,,,,,,,,,,,,,,,,,,,,,,,
645906dc264ac9eb66b7f3ec,SCR,2024-06-24_14h42.54.817,LearnStrategy,2023.2.3,Win32,59.52380952,,,,,,,,,,,8,10,3,3,,,,,,,,,,,,,,,,,,,,,,,,,,,,,,,
645906dc264ac9eb66b7f3ec,SCR,2024-06-24_14h42.54.817,LearnStrategy,2023.2.3,Win32,59.52380952,,,,,,,,,,,3,07,3,4,,,,,,,,,,,,,,,,,,,,,,,,,,,,,,,
645906dc264ac9eb66b7f3ec,SCR,2024-06-24_14h42.54.817,LearnStrategy,2023.2.3,Win32,59.52380952,,,,,,,,,,,2,02,3,5,,,,,,,,,,,,,,,,,,,,,,,,,,,,,,,
645906dc264ac9eb66b7f3ec,SCR,2024-06-24_14h42.54.817,LearnStrategy,2023.2.3,Win32,59.52380952,,,,,,,,,,,8,16,3,6,,,,,,,,,,,,,,,,,,,,,,,,,,,,,,,
645906dc264ac9eb66b7f3ec,SCR,2024-06-24_14h42.54.817,LearnStrategy,2023.2.3,Win32,59.52380952,,,,,,,,,,,4,08,3,7,,,,,,,,,,,,,,,,,,,,,,,,,,,,,,,
645906dc264ac9eb66b7f3ec,SCR,2024-06-24_14h42.54.817,LearnStrategy,2023.2.3,Win32,59.52380952,,,,,,,,,,,2,08,3,8,,,,,,,,,,,,,,,,,,,,,,,,,,,,,,,
645906dc264ac9eb66b7f3ec,SCR,2024-06-24_14h42.54.817,LearnStrategy,2023.2.3,Win32,59.52380952,,,,,,,,,,,2,05,4,1,,,,,,,,,,,,,,,,,,,,,,,,,,,,,,,
645906dc264ac9eb66b7f3ec,SCR,2024-06-24_14h42.54.817,LearnStrategy,2023.2.3,Win32,59.52380952,,,,,,,,,,,5,09,4,2,,,,,,,,,,,,,,,,,,,,,,,,,,,,,,,
645906dc264ac9eb66b7f3ec,SCR,2024-06-24_14h42.54.817,LearnStrategy,2023.2.3,Win32,59.52380952,,,,,,,,,,,7,15,4,3,,,,,,,,,,,,,,,,,,,,,,,,,,,,,,,
645906dc264ac9eb66b7f3ec,SCR,2024-06-24_14h42.54.817,LearnStrategy,2023.2.3,Win32,59.52380952,,,,,,,,,,,1,03,4,4,,,,,,,,,,,,,,,,,,,,,,,,,,,,,,,
645906dc264ac9eb66b7f3ec,SCR,2024-06-24_14h42.54.817,LearnStrategy,2023.2.3,Win32,59.52380952,,,,,,,,,,,5,07,4,5,,,,,,,,,,,,,,,,,,,,,,,,,,,,,,,
645906dc264ac9eb66b7f3ec,SCR,2024-06-24_14h42.54.817,LearnStrategy,2023.2.3,Win32,59.52380952,,,,,,,,,,,1,04,4,6,,,,,,,,,,,,,,,,,,,,,,,,,,,,,,,
645906dc264ac9eb66b7f3ec,SCR,2024-06-24_14h42.54.817,LearnStrategy,2023.2.3,Win32,59.52380952,,,,,,,,,,,6,09,4,7,,,,,,,,,,,,,,,,,,,,,,,,,,,,,,,
645906dc264ac9eb66b7f3ec,SCR,2024-06-24_14h42.54.817,LearnStrategy,2023.2.3,Win32,59.52380952,,,,,,,,,,,1,16,4,8,,,,,,,,,,,,,,,,,,,,,,,,,,,,,,,
645906dc264ac9eb66b7f3ec,SCR,2024-06-24_14h42.54.817,LearnStrategy,2023.2.3,Win32,59.52380952,,,,,,,,,,,8,06,5,1,,,,,,,,,,,,,,,,,,,,,,,,,,,,,,,
645906dc264ac9eb66b7f3ec,SCR,2024-06-24_14h42.54.817,LearnStrategy,2023.2.3,Win32,59.52380952,,,,,,,,,,,8,03,5,2,,,,,,,,,,,,,,,,,,,,,,,,,,,,,,,
645906dc264ac9eb66b7f3ec,SCR,2024-06-24_14h42.54.817,LearnStrategy,2023.2.3,Win32,59.52380952,,,,,,,,,,,7,05,5,3,,,,,,,,,,,,,,,,,,,,,,,,,,,,,,,
645906dc264ac9eb66b7f3ec,SCR,2024-06-24_14h42.54.817,LearnStrategy,2023.2.3,Win32,59.52380952,,,,,,,,,,,3,15,5,4,,,,,,,,,,,,,,,,,,,,,,,,,,,,,,,
645906dc264ac9eb66b7f3ec,SCR,2024-06-24_14h42.54.817,LearnStrategy,2023.2.3,Win32,59.52380952,,,,,,,,,,,1,14,5,5,,,,,,,,,,,,,,,,,,,,,,,,,,,,,,,
645906dc264ac9eb66b7f3ec,SCR,2024-06-24_14h42.54.817,LearnStrategy,2023.2.3,Win32,59.52380952,,,,,,,,,,,1,02,5,6,,,,,,,,,,,,,,,,,,,,,,,,,,,,,,,
645906dc264ac9eb66b7f3ec,SCR,2024-06-24_14h42.54.817,LearnStrategy,2023.2.3,Win32,59.52380952,,,,,,,,,,,6,06,5,7,,,,,,,,,,,,,,,,,,,,,,,,,,,,,,,
645906dc264ac9eb66b7f3ec,SCR,2024-06-24_14h42.54.817,LearnStrategy,2023.2.3,Win32,59.52380952,,,,,,,,,,,6,08,5,8,,,,,,,,,,,,,,,,,,,,,,,,,,,,,,,
645906dc264ac9eb66b7f3ec,SCR,2024-06-24_14h42.54.817,LearnStrategy,2023.2.3,Win32,59.52380952,,,,,,,,,,,3,12,6,1,,,,,,,,,,,,,,,,,,,,,,,,,,,,,,,
645906dc264ac9eb66b7f3ec,SCR,2024-06-24_14h42.54.817,LearnStrategy,2023.2.3,Win32,59.52380952,,,,,,,,,,,3,16,6,2,,,,,,,,,,,,,,,,,,,,,,,,,,,,,,,
645906dc264ac9eb66b7f3ec,SCR,2024-06-24_14h42.54.817,LearnStrategy,2023.2.3,Win32,59.52380952,,,,,,,,,,,5,02,6,3,,,,,,,,,,,,,,,,,,,,,,,,,,,,,,,
645906dc264ac9eb66b7f3ec,SCR,2024-06-24_14h42.54.817,LearnStrategy,2023.2.3,Win32,59.52380952,,,,,,,,,,,7,02,6,4,,,,,,,,,,,,,,,,,,,,,,,,,,,,,,,
645906dc264ac9eb66b7f3ec,SCR,2024-06-24_14h42.54.817,LearnStrategy,2023.2.3,Win32,59.52380952,,,,,,,,,,,7,16,6,5,,,,,,,,,,,,,,,,,,,,,,,,,,,,,,,
645906dc264ac9eb66b7f3ec,SCR,2024-06-24_14h42.54.817,LearnStrategy,2023.2.3,Win32,59.52380952,,,,,,,,,,,4,13,6,6,,,,,,,,,,,,,,,,,,,,,,,,,,,,,,,
645906dc264ac9eb66b7f3ec,SCR,2024-06-24_14h42.54.817,LearnStrategy,2023.2.3,Win32,59.52380952,,,,,,,,,,,1,06,6,7,,,,,,,,,,,,,,,,,,,,,,,,,,,,,,,
645906dc264ac9eb66b7f3ec,SCR,2024-06-24_14h42.54.817,LearnStrategy,2023.2.3,Win32,59.52380952,,,,,,,,,,,4,14,6,8,,,,,,,,,,,,,,,,,,,,,,,,,,,,,,,