participant,condition,date,expName,psychopyVersion,OS,frameRate,block,phase,trial,learn_mouse_2.x,learn_mouse_2.y,learn_mouse_2.leftButton,learn_mouse_2.midButton,learn_mouse_2.rightButton,learn_mouse_2.time,learn_mouse_2.clicked_name,cat,token,row,col,t_select,cat_mouse_l.x,cat_mouse_l.y,cat_mouse_l.leftButton,cat_mouse_l.midButton,cat_mouse_l.rightButton,cat_mouse_l.time,cat_mouse_l.clicked_name,resp,t_resp,corr,train_trials.thisRepN,train_trials.thisTrialN,train_trials.thisN,train_trials.thisIndex,train_trials.ran,cat_mouse_t.x,cat_mouse_t.y,cat_mouse_t.leftButton,cat_mouse_t.midButton,cat_mouse_t.rightButton,cat_mouse_t.time,cat_mouse_t.clicked_name,test_trials.thisRepN,test_trials.thisTrialN,test_trials.thisN,test_trials.thisIndex,test_trials.ran,Bonus
6480bdf6d433e2e158870605,TCR,2024-06-20_16h32.16.268,LearnStrategy,2023.2.3,Win32,60.60606061,,,,,,,,,,,,,,,,,,,,,,,,,,,,,,,,,,,,,,,,,,,
6480bdf6d433e2e158870605,TCR,2024-06-20_16h32.16.268,LearnStrategy,2023.2.3,Win32,60.60606061,1,1,1,0.045833333,-0.006770833,1,0,0,7.7577,rock_grid_rect_2,1,16,-1,-1,7.758,0.090625,-0.246875,1,0,0,78.6007,Diorite_rect,3,78.601,0,0,0,0,0,1,,,,,,,,,,,,,
6480bdf6d433e2e158870605,TCR,2024-06-20_16h32.16.268,LearnStrategy,2023.2.3,Win32,60.60606061,1,1,2,-0.0203125,-0.009895833,1,0,0,2.5566,rock_grid_rect_2,4,16,-1,-1,2.557,-0.1515625,-0.265104167,1,0,0,16.2719,Basalt_rect,2,16.272,0,1,0,1,0,1,,,,,,,,,,,,,
6480bdf6d433e2e158870605,TCR,2024-06-20_16h32.16.268,LearnStrategy,2023.2.3,Win32,60.60606061,1,1,3,-0.027604167,-0.025,1,0,0,1.4886,rock_grid_rect_2,8,08,-1,-1,1.489,0.375,-0.405208333,1,0,0,3.7257,Pumice_rect,8,3.726,1,2,0,2,0,1,,,,,,,,,,,,,
6480bdf6d433e2e158870605,TCR,2024-06-20_16h32.16.268,LearnStrategy,2023.2.3,Win32,60.60606061,1,1,4,-0.028125,0.005729167,1,0,0,1.2723,rock_grid_rect_2,5,04,-1,-1,1.272,-0.411458333,-0.3984375,1,0,0,5.8313,Obsidian_rect,5,5.831,1,3,0,3,0,1,,,,,,,,,,,,,
6480bdf6d433e2e158870605,TCR,2024-06-20_16h32.16.268,LearnStrategy,2023.2.3,Win32,60.60606061,1,1,5,0.0203125,-0.016666667,1,0,0,1.6751,rock_grid_rect_2,7,13,-1,-1,1.675,0.140104167,-0.393229167,1,0,0,1.8954,Peridotite_rect,7,1.895,1,4,0,4,0,1,,,,,,,,,,,,,
6480bdf6d433e2e158870605,TCR,2024-06-20_16h32.16.268,LearnStrategy,2023.2.3,Win32,60.60606061,1,1,6,0.003645833,-0.008333333,1,0,0,1.3898,rock_grid_rect_2,4,10,-1,-1,1.39,-0.355208333,-0.396354167,1,0,0,6.2466,Obsidian_rect,5,6.247,0,5,0,5,0,1,,,,,,,,,,,,,
6480bdf6d433e2e158870605,TCR,2024-06-20_16h32.16.268,LearnStrategy,2023.2.3,Win32,60.60606061,1,1,7,-0.0234375,-0.019791667,1,0,0,1.0533,rock_grid_rect_2,3,07,-1,-1,1.053,-0.092708333,-0.397916667,1,0,0,7.8438,Pegmatite_rect,6,7.844,0,6,0,6,0,1,,,,,,,,,,,,,
6480bdf6d433e2e158870605,TCR,2024-06-20_16h32.16.268,LearnStrategy,2023.2.3,Win32,60.60606061,1,1,8,0.00625,-0.016666667,1,0,0,1.0826,rock_grid_rect_2,5,06,-1,-1,1.083,-0.416145833,-0.402083333,1,0,0,5.5703,Obsidian_rect,5,5.57,1,7,0,7,0,1,,,,,,,,,,,,,
6480bdf6d433e2e158870605,TCR,2024-06-20_16h32.16.268,LearnStrategy,2023.2.3,Win32,60.60606061,1,1,9,0.0015625,0.002083333,1,0,0,1.238,rock_grid_rect_2,6,12,-1,-1,1.238,0.129166667,-0.242708333,1,0,0,21.1217,Diorite_rect,3,21.122,0,8,0,8,0,1,,,,,,,,,,,,,
6480bdf6d433e2e158870605,TCR,2024-06-20_16h32.16.268,LearnStrategy,2023.2.3,Win32,60.60606061,1,1,10,0.013020833,0.002083333,1,0,0,1.1887,rock_grid_rect_2,6,11,-1,-1,1.189,-0.3640625,-0.403645833,1,0,0,22.16,Obsidian_rect,5,22.16,0,9,0,9,0,1,,,,,,,,,,,,,
6480bdf6d433e2e158870605,TCR,2024-06-20_16h32.16.268,LearnStrategy,2023.2.3,Win32,60.60606061,1,1,11,0.059375,-0.015104167,1,0,0,1.3711,rock_grid_rect_2,7,02,-1,-1,1.371,0.148958333,-0.414583333,1,0,0,2.3092,Peridotite_rect,7,2.309,1,10,0,10,0,1,,,,,,,,,,,,,
6480bdf6d433e2e158870605,TCR,2024-06-20_16h32.16.268,LearnStrategy,2023.2.3,Win32,60.60606061,1,1,12,0.028125,-0.001041667,1,0,0,1.3102,rock_grid_rect_2,3,15,-1,-1,1.31,-0.342708333,-0.241145833,1,0,0,11.6336,Andesite_rect,1,11.634,0,11,0,11,0,1,,,,,,,,,,,,,
6480bdf6d433e2e158870605,TCR,2024-06-20_16h32.16.268,LearnStrategy,2023.2.3,Win32,60.60606061,1,1,13,-0.046354167,0.007291667,1,0,0,1.2442,rock_grid_rect_2,1,11,-1,-1,1.244,0.342708333,-0.397916667,1,0,0,19.1674,Pumice_rect,8,19.167,0,12,0,12,0,1,,,,,,,,,,,,,
6480bdf6d433e2e158870605,TCR,2024-06-20_16h32.16.268,LearnStrategy,2023.2.3,Win32,60.60606061,1,1,14,-0.007291667,0.002604167,1,0,0,1.2939,rock_grid_rect_2,2,10,-1,-1,1.294,-0.136458333,-0.248958333,1,0,0,3.2742,Basalt_rect,2,3.274,1,13,0,13,0,1,,,,,,,,,,,,,
6480bdf6d433e2e158870605,TCR,2024-06-20_16h32.16.268,LearnStrategy,2023.2.3,Win32,60.60606061,1,1,15,-0.003125,-0.0078125,1,0,0,1.1512,rock_grid_rect_2,8,14,-1,-1,1.151,0.441666667,-0.403645833,1,0,0,1.9819,Pumice_rect,8,1.982,1,14,0,14,0,1,,,,,,,,,,,,,
6480bdf6d433e2e158870605,TCR,2024-06-20_16h32.16.268,LearnStrategy,2023.2.3,Win32,60.60606061,1,1,16,-0.03125,0.003125,1,0,0,1.1309,rock_grid_rect_2,2,08,-1,-1,1.131,-0.160416667,-0.246875,1,0,0,2.5145,Basalt_rect,2,2.515,1,15,0,15,0,1,,,,,,,,,,,,,
6480bdf6d433e2e158870605,TCR,2024-06-20_16h32.16.268,LearnStrategy,2023.2.3,Win32,60.60606061,1,2,1,,,,,,,,5,08,,,,,,,,,,,5,2.941,1,,,,,,-0.472916667,-0.411979167,1,0,0,2.9406,Obsidian_rect,0,0,0,0,1,
6480bdf6d433e2e158870605,TCR,2024-06-20_16h32.16.268,LearnStrategy,2023.2.3,Win32,60.60606061,1,2,2,,,,,,,,4,01,,,,,,,,,,,1,18.914,0,,,,,,-0.460416667,-0.244791667,1,0,0,18.9143,Andesite_rect,1,0,1,0,1,
6480bdf6d433e2e158870605,TCR,2024-06-20_16h32.16.268,LearnStrategy,2023.2.3,Win32,60.60606061,1,2,3,,,,,,,,3,13,,,,,,,,,,,3,7.173,1,,,,,,0.104166667,-0.255729167,1,0,0,7.1732,Diorite_rect,2,0,2,0,1,
6480bdf6d433e2e158870605,TCR,2024-06-20_16h32.16.268,LearnStrategy,2023.2.3,Win32,60.60606061,1,2,4,,,,,,,,3,09,,,,,,,,,,,3,6.404,1,,,,,,0.067708333,-0.2578125,1,0,0,6.4038,Diorite_rect,3,0,3,0,1,
6480bdf6d433e2e158870605,TCR,2024-06-20_16h32.16.268,LearnStrategy,2023.2.3,Win32,60.60606061,1,2,5,,,,,,,,1,01,,,,,,,,,,,2,3.936,0,,,,,,-0.196875,-0.257291667,1,0,0,3.9365,Basalt_rect,4,0,4,0,1,
6480bdf6d433e2e158870605,TCR,2024-06-20_16h32.16.268,LearnStrategy,2023.2.3,Win32,60.60606061,1,2,6,,,,,,,,6,09,,,,,,,,,,,6,17.735,1,,,,,,-0.126041667,-0.390104167,1,0,0,17.735,Pegmatite_rect,5,0,5,0,1,
6480bdf6d433e2e158870605,TCR,2024-06-20_16h32.16.268,LearnStrategy,2023.2.3,Win32,60.60606061,1,2,7,,,,,,,,8,10,,,,,,,,,,,8,2.76,1,,,,,,0.393229167,-0.415625,1,0,0,2.7598,Pumice_rect,6,0,6,0,1,
6480bdf6d433e2e158870605,TCR,2024-06-20_16h32.16.268,LearnStrategy,2023.2.3,Win32,60.60606061,1,2,8,,,,,,,,6,03,,,,,,,,,,,7,4.381,0,,,,,,0.163020833,-0.391145833,1,0,0,4.3814,Peridotite_rect,7,0,7,0,1,
6480bdf6d433e2e158870605,TCR,2024-06-20_16h32.16.268,LearnStrategy,2023.2.3,Win32,60.60606061,1,2,9,,,,,,,,4,03,,,,,,,,,,,1,22.972,0,,,,,,-0.465625,-0.253125,1,0,0,22.9725,Andesite_rect,8,0,8,0,1,
6480bdf6d433e2e158870605,TCR,2024-06-20_16h32.16.268,LearnStrategy,2023.2.3,Win32,60.60606061,1,2,10,,,,,,,,8,13,,,,,,,,,,,8,22.062,1,,,,,,0.432291667,-0.413541667,1,0,0,22.0622,Pumice_rect,9,0,9,0,1,
6480bdf6d433e2e158870605,TCR,2024-06-20_16h32.16.268,LearnStrategy,2023.2.3,Win32,60.60606061,1,2,11,,,,,,,,7,15,,,,,,,,,,,7,1.392,1,,,,,,0.134375,-0.391145833,1,0,0,1.3924,Peridotite_rect,10,0,10,0,1,
6480bdf6d433e2e158870605,TCR,2024-06-20_16h32.16.268,LearnStrategy,2023.2.3,Win32,60.60606061,1,2,12,,,,,,,,7,04,,,,,,,,,,,1,12.856,0,,,,,,-0.376041667,-0.246354167,1,0,0,12.8565,Andesite_rect,11,0,11,0,1,
6480bdf6d433e2e158870605,TCR,2024-06-20_16h32.16.268,LearnStrategy,2023.2.3,Win32,60.60606061,1,2,13,,,,,,,,2,11,,,,,,,,,,,8,33.853,0,,,,,,0.366145833,-0.40625,1,0,0,33.8533,Pumice_rect,12,0,12,0,1,
6480bdf6d433e2e158870605,TCR,2024-06-20_16h32.16.268,LearnStrategy,2023.2.3,Win32,60.60606061,1,2,14,,,,,,,,5,09,,,,,,,,,,,5,2.32,1,,,,,,-0.402083333,-0.411458333,1,0,0,2.3204,Obsidian_rect,13,0,13,0,1,
6480bdf6d433e2e158870605,TCR,2024-06-20_16h32.16.268,LearnStrategy,2023.2.3,Win32,60.60606061,1,2,15,,,,,,,,1,10,,,,,,,,,,,1,24.885,1,,,,,,-0.459375,-0.2484375,1,0,0,24.885,Andesite_rect,14,0,14,0,1,
6480bdf6d433e2e158870605,TCR,2024-06-20_16h32.16.268,LearnStrategy,2023.2.3,Win32,60.60606061,1,2,16,,,,,,,,2,12,,,,,,,,,,,8,20.53,0,,,,,,0.375,-0.391666667,1,0,0,20.5299,Pumice_rect,15,0,15,0,1,
6480bdf6d433e2e158870605,TCR,2024-06-20_16h32.16.268,LearnStrategy,2023.2.3,Win32,60.60606061,2,1,1,0.026041667,-0.021354167,1,0,0,1.4948,rock_grid_rect_2,6,15,-1,-1,1.495,-0.1375,-0.414583333,1,0,0,10.8606,Pegmatite_rect,6,10.861,1,0,0,0,0,1,,,,,,,,,,,,,
6480bdf6d433e2e158870605,TCR,2024-06-20_16h32.16.268,LearnStrategy,2023.2.3,Win32,60.60606061,2,1,2,-0.0484375,-0.003125,1,0,0,3.0416,rock_grid_rect_2,1,11,-1,-1,3.042,-0.4234375,-0.239583333,1,0,0,7.4641,Andesite_rect,1,7.464,1,1,0,1,0,1,,,,,,,,,,,,,
6480bdf6d433e2e158870605,TCR,2024-06-20_16h32.16.268,LearnStrategy,2023.2.3,Win32,60.60606061,2,1,3,0.015625,-0.005208333,1,0,0,1.56,rock_grid_rect_2,4,12,-1,-1,1.56,0.422916667,-0.261979167,1,0,0,7.5589,Gabbro_rect,4,7.559,1,2,0,2,0,1,,,,,,,,,,,,,
6480bdf6d433e2e158870605,TCR,2024-06-20_16h32.16.268,LearnStrategy,2023.2.3,Win32,60.60606061,2,1,4,-0.010416667,-0.002083333,1,0,0,1.3046,rock_grid_rect_2,2,10,-1,-1,1.305,-0.1828125,-0.2484375,1,0,0,2.8939,Basalt_rect,2,2.894,1,3,0,3,0,1,,,,,,,,,,,,,
6480bdf6d433e2e158870605,TCR,2024-06-20_16h32.16.268,LearnStrategy,2023.2.3,Win32,60.60606061,2,1,5,-0.015104167,0.000520833,1,0,0,1.2555,rock_grid_rect_2,2,02,-1,-1,1.255,0.358333333,-0.238020833,1,0,0,21.1023,Gabbro_rect,4,21.102,0,4,0,4,0,1,,,,,,,,,,,,,
6480bdf6d433e2e158870605,TCR,2024-06-20_16h32.16.268,LearnStrategy,2023.2.3,Win32,60.60606061,2,1,6,-0.003125,-0.021875,1,0,0,1.0935,rock_grid_rect_2,6,16,-1,-1,1.093,-0.36875,-0.396875,1,0,0,6.3846,Obsidian_rect,5,6.385,0,5,0,5,0,1,,,,,,,,,,,,,
6480bdf6d433e2e158870605,TCR,2024-06-20_16h32.16.268,LearnStrategy,2023.2.3,Win32,60.60606061,2,1,7,0.027604167,0.002604167,1,0,0,1.9084,rock_grid_rect_2,7,02,-1,-1,1.908,0.1640625,-0.400520833,1,0,0,1.3749,Peridotite_rect,7,1.375,1,6,0,6,0,1,,,,,,,,,,,,,
6480bdf6d433e2e158870605,TCR,2024-06-20_16h32.16.268,LearnStrategy,2023.2.3,Win32,60.60606061,2,1,8,0.024479167,0.011458333,1,0,0,1.0906,rock_grid_rect_2,4,09,-1,-1,1.091,-0.129166667,-0.246875,1,0,0,18.1069,Basalt_rect,2,18.107,0,7,0,7,0,1,,,,,,,,,,,,,
6480bdf6d433e2e158870605,TCR,2024-06-20_16h32.16.268,LearnStrategy,2023.2.3,Win32,60.60606061,2,1,9,0.040625,-0.015104167,1,0,0,1.593,rock_grid_rect_2,1,16,-1,-1,1.593,0.157291667,-0.242708333,1,0,0,21.8485,Diorite_rect,3,21.848,0,8,0,8,0,1,,,,,,,,,,,,,
6480bdf6d433e2e158870605,TCR,2024-06-20_16h32.16.268,LearnStrategy,2023.2.3,Win32,60.60606061,2,1,10,-0.0765625,0.006770833,1,0,0,1.4584,rock_grid_rect_2,8,16,-1,-1,1.458,0.392708333,-0.420833333,1,0,0,1.9278,Pumice_rect,8,1.928,1,9,0,9,0,1,,,,,,,,,,,,,
6480bdf6d433e2e158870605,TCR,2024-06-20_16h32.16.268,LearnStrategy,2023.2.3,Win32,60.60606061,2,1,11,-0.013541667,0.0046875,1,0,0,1.0694,rock_grid_rect_2,7,14,-1,-1,1.069,0.108854167,-0.421875,1,0,0,1.5835,Peridotite_rect,7,1.584,1,10,0,10,0,1,,,,,,,,,,,,,
6480bdf6d433e2e158870605,TCR,2024-06-20_16h32.16.268,LearnStrategy,2023.2.3,Win32,60.60606061,2,1,12,0.003645833,-0.00625,1,0,0,0.8633,rock_grid_rect_2,2,10,-1,-1,0.863,-0.121875,-0.239583333,1,0,0,8.8601,Basalt_rect,2,8.86,1,11,0,11,0,1,,,,,,,,,,,,,
6480bdf6d433e2e158870605,TCR,2024-06-20_16h32.16.268,LearnStrategy,2023.2.3,Win32,60.60606061,2,1,13,0.007291667,-0.0140625,1,0,0,1.0614,rock_grid_rect_2,2,16,-1,-1,1.061,0.429166667,-0.234895833,1,0,0,17.8356,Gabbro_rect,4,17.836,0,12,0,12,0,1,,,,,,,,,,,,,
6480bdf6d433e2e158870605,TCR,2024-06-20_16h32.16.268,LearnStrategy,2023.2.3,Win32,60.60606061,2,1,14,-0.0140625,-0.008854167,1,0,0,1.3055,rock_grid_rect_2,4,14,-1,-1,1.306,0.369270833,-0.2703125,1,0,0,4.1087,Gabbro_rect,4,4.109,1,13,0,13,0,1,,,,,,,,,,,,,
6480bdf6d433e2e158870605,TCR,2024-06-20_16h32.16.268,LearnStrategy,2023.2.3,Win32,60.60606061,2,1,15,0.041666667,0.0078125,1,0,0,1.1713,rock_grid_rect_2,1,04,-1,-1,1.171,-0.3203125,-0.250520833,1,0,0,21.4357,Andesite_rect,1,21.436,1,14,0,14,0,1,,,,,,,,,,,,,
6480bdf6d433e2e158870605,TCR,2024-06-20_16h32.16.268,LearnStrategy,2023.2.3,Win32,60.60606061,2,1,16,-0.00625,0.010416667,1,0,0,1.8119,rock_grid_rect_2,4,16,-1,-1,1.812,0.369791667,-0.2625,1,0,0,7.3985,Gabbro_rect,4,7.399,1,15,0,15,0,1,,,,,,,,,,,,,
6480bdf6d433e2e158870605,TCR,2024-06-20_16h32.16.268,LearnStrategy,2023.2.3,Win32,60.60606061,2,2,1,,,,,,,,8,09,,,,,,,,,,,8,1.481,1,,,,,,0.352083333,-0.391145833,1,0,0,1.4806,Pumice_rect,0,0,0,0,1,
6480bdf6d433e2e158870605,TCR,2024-06-20_16h32.16.268,LearnStrategy,2023.2.3,Win32,60.60606061,2,2,2,,,,,,,,7,07,,,,,,,,,,,7,1.36,1,,,,,,0.1625,-0.405208333,1,0,0,1.3599,Peridotite_rect,1,0,1,0,1,
6480bdf6d433e2e158870605,TCR,2024-06-20_16h32.16.268,LearnStrategy,2023.2.3,Win32,60.60606061,2,2,3,,,,,,,,1,07,,,,,,,,,,,1,26.64,1,,,,,,-0.344270833,-0.260416667,1,0,0,26.6395,Andesite_rect,2,0,2,0,1,
6480bdf6d433e2e158870605,TCR,2024-06-20_16h32.16.268,LearnStrategy,2023.2.3,Win32,60.60606061,2,2,4,,,,,,,,8,15,,,,,,,,,,,8,16.105,1,,,,,,0.356770833,-0.413541667,1,0,0,16.1046,Pumice_rect,3,0,3,0,1,
6480bdf6d433e2e158870605,TCR,2024-06-20_16h32.16.268,LearnStrategy,2023.2.3,Win32,60.60606061,2,2,5,,,,,,,,2,04,,,,,,,,,,,2,7.775,1,,,,,,-0.1234375,-0.260416667,1,0,0,7.7753,Basalt_rect,4,0,4,0,1,
6480bdf6d433e2e158870605,TCR,2024-06-20_16h32.16.268,LearnStrategy,2023.2.3,Win32,60.60606061,2,2,6,,,,,,,,3,02,,,,,,,,,,,3,14.357,1,,,,,,0.211458333,-0.2375,1,0,0,14.3574,Diorite_rect,5,0,5,0,1,
6480bdf6d433e2e158870605,TCR,2024-06-20_16h32.16.268,LearnStrategy,2023.2.3,Win32,60.60606061,2,2,7,,,,,,,,6,07,,,,,,,,,,,6,8.523,1,,,,,,-0.1015625,-0.396354167,1,0,0,8.5228,Pegmatite_rect,6,0,6,0,1,
6480bdf6d433e2e158870605,TCR,2024-06-20_16h32.16.268,LearnStrategy,2023.2.3,Win32,60.60606061,2,2,8,,,,,,,,1,02,,,,,,,,,,,1,11.298,1,,,,,,-0.385416667,-0.2359375,1,0,0,11.2981,Andesite_rect,7,0,7,0,1,
6480bdf6d433e2e158870605,TCR,2024-06-20_16h32.16.268,LearnStrategy,2023.2.3,Win32,60.60606061,2,2,9,,,,,,,,7,10,,,,,,,,,,,7,1.326,1,,,,,,0.148958333,-0.41875,1,0,0,1.3256,Peridotite_rect,8,0,8,0,1,
6480bdf6d433e2e158870605,TCR,2024-06-20_16h32.16.268,LearnStrategy,2023.2.3,Win32,60.60606061,2,2,10,,,,,,,,6,08,,,,,,,,,,,6,7.514,1,,,,,,-0.089583333,-0.393229167,1,0,0,7.5145,Pegmatite_rect,9,0,9,0,1,
6480bdf6d433e2e158870605,TCR,2024-06-20_16h32.16.268,LearnStrategy,2023.2.3,Win32,60.60606061,2,2,11,,,,,,,,5,14,,,,,,,,,,,5,1.532,1,,,,,,-0.4546875,-0.394270833,1,0,0,1.5315,Obsidian_rect,10,0,10,0,1,
6480bdf6d433e2e158870605,TCR,2024-06-20_16h32.16.268,LearnStrategy,2023.2.3,Win32,60.60606061,2,2,12,,,,,,,,3,11,,,,,,,,,,,7,15.087,0,,,,,,0.167708333,-0.388541667,1,0,0,15.0865,Peridotite_rect,11,0,11,0,1,
6480bdf6d433e2e158870605,TCR,2024-06-20_16h32.16.268,LearnStrategy,2023.2.3,Win32,60.60606061,2,2,13,,,,,,,,5,10,,,,,,,,,,,5,1.545,1,,,,,,-0.444270833,-0.403645833,1,0,0,1.5453,Obsidian_rect,12,0,12,0,1,
6480bdf6d433e2e158870605,TCR,2024-06-20_16h32.16.268,LearnStrategy,2023.2.3,Win32,60.60606061,2,2,14,,,,,,,,2,06,,,,,,,,,,,2,1.176,1,,,,,,-0.165625,-0.256770833,1,0,0,1.1756,Basalt_rect,13,0,13,0,1,
6480bdf6d433e2e158870605,TCR,2024-06-20_16h32.16.268,LearnStrategy,2023.2.3,Win32,60.60606061,2,2,15,,,,,,,,4,05,,,,,,,,,,,4,10.538,1,,,,,,0.3671875,-0.253125,1,0,0,10.5381,Gabbro_rect,14,0,14,0,1,
6480bdf6d433e2e158870605,TCR,2024-06-20_16h32.16.268,LearnStrategy,2023.2.3,Win32,60.60606061,2,2,16,,,,,,,,4,15,,,,,,,,,,,3,29.907,0,,,,,,0.069270833,-0.2375,1,0,0,29.9067,Diorite_rect,15,0,15,0,1,
6480bdf6d433e2e158870605,TCR,2024-06-20_16h32.16.268,LearnStrategy,2023.2.3,Win32,60.60606061,3,1,1,0.033333333,-0.0125,1,0,0,1.8947,rock_grid_rect_2,2,05,-1,-1,1.895,-0.106770833,-0.2546875,1,0,0,16.2453,Basalt_rect,2,16.245,1,0,0,0,0,1,,,,,,,,,,,,,
6480bdf6d433e2e158870605,TCR,2024-06-20_16h32.16.268,LearnStrategy,2023.2.3,Win32,60.60606061,3,1,2,0.028645833,0.004166667,1,0,0,1.6765,rock_grid_rect_2,8,14,-1,-1,1.677,0.4109375,-0.386979167,1,0,0,1.4597,Pumice_rect,8,1.46,1,1,0,1,0,1,,,,,,,,,,,,,
6480bdf6d433e2e158870605,TCR,2024-06-20_16h32.16.268,LearnStrategy,2023.2.3,Win32,60.60606061,3,1,3,0.0046875,0.00625,1,0,0,0.9799,rock_grid_rect_2,4,14,-1,-1,0.98,0.357291667,-0.267708333,1,0,0,2.9041,Gabbro_rect,4,2.904,1,2,0,2,0,1,,,,,,,,,,,,,
6480bdf6d433e2e158870605,TCR,2024-06-20_16h32.16.268,LearnStrategy,2023.2.3,Win32,60.60606061,3,1,4,0.019791667,-0.0109375,1,0,0,1.0059,rock_grid_rect_2,2,10,-1,-1,1.006,-0.1671875,-0.235416667,1,0,0,2.9197,Basalt_rect,2,2.92,1,3,0,3,0,1,,,,,,,,,,,,,
6480bdf6d433e2e158870605,TCR,2024-06-20_16h32.16.268,LearnStrategy,2023.2.3,Win32,60.60606061,3,1,5,0.022916667,0.007291667,1,0,0,0.8899,rock_grid_rect_2,4,14,-1,-1,0.89,0.3546875,-0.244791667,1,0,0,10.8046,Gabbro_rect,4,10.805,1,4,0,4,0,1,,,,,,,,,,,,,
6480bdf6d433e2e158870605,TCR,2024-06-20_16h32.16.268,LearnStrategy,2023.2.3,Win32,60.60606061,3,1,6,-0.019270833,-0.015625,1,0,0,1.1113,rock_grid_rect_2,4,10,-1,-1,1.111,0.435416667,-0.259895833,1,0,0,17.7268,Gabbro_rect,4,17.727,1,5,0,5,0,1,,,,,,,,,,,,,
6480bdf6d433e2e158870605,TCR,2024-06-20_16h32.16.268,LearnStrategy,2023.2.3,Win32,60.60606061,3,1,7,-0.072916667,0.0015625,1,0,0,1.1271,rock_grid_rect_2,1,16,-1,-1,1.127,-0.39375,-0.2359375,1,0,0,15.9752,Andesite_rect,1,15.975,1,6,0,6,0,1,,,,,,,,,,,,,
6480bdf6d433e2e158870605,TCR,2024-06-20_16h32.16.268,LearnStrategy,2023.2.3,Win32,60.60606061,3,1,8,-0.032291667,0.010416667,1,0,0,2.724,rock_grid_rect_2,1,04,-1,-1,2.724,-0.38125,-0.2390625,1,0,0,7.4174,Andesite_rect,1,7.417,1,7,0,7,0,1,,,,,,,,,,,,,
6480bdf6d433e2e158870605,TCR,2024-06-20_16h32.16.268,LearnStrategy,2023.2.3,Win32,60.60606061,3,1,9,-0.0578125,-0.007291667,1,0,0,1.3936,rock_grid_rect_2,6,15,-1,-1,1.394,-0.085416667,-0.4140625,1,0,0,22.7003,Pegmatite_rect,6,22.7,1,8,0,8,0,1,,,,,,,,,,,,,
6480bdf6d433e2e158870605,TCR,2024-06-20_16h32.16.268,LearnStrategy,2023.2.3,Win32,60.60606061,3,1,10,0.025520833,-0.00625,1,0,0,1.0888,rock_grid_rect_2,2,05,-1,-1,1.089,-0.122395833,-0.247395833,1,0,0,2.2855,Basalt_rect,2,2.285,1,9,0,9,0,1,,,,,,,,,,,,,
6480bdf6d433e2e158870605,TCR,2024-06-20_16h32.16.268,LearnStrategy,2023.2.3,Win32,60.60606061,3,1,11,0.015625,-0.019791667,1,0,0,0.9629,rock_grid_rect_2,4,16,-1,-1,0.963,0.394791667,-0.255729167,1,0,0,11.6391,Gabbro_rect,4,11.639,1,10,0,10,0,1,,,,,,,,,,,,,
6480bdf6d433e2e158870605,TCR,2024-06-20_16h32.16.268,LearnStrategy,2023.2.3,Win32,60.60606061,3,1,12,-0.01875,-0.008854167,1,0,0,0.9607,rock_grid_rect_2,7,05,-1,-1,0.961,0.149479167,-0.4078125,1,0,0,1.8076,Peridotite_rect,7,1.808,1,11,0,11,0,1,,,,,,,,,,,,,
6480bdf6d433e2e158870605,TCR,2024-06-20_16h32.16.268,LearnStrategy,2023.2.3,Win32,60.60606061,3,1,13,-0.001041667,0.002604167,1,0,0,0.9791,rock_grid_rect_2,7,14,-1,-1,0.979,0.1703125,-0.394270833,1,0,0,1.2767,Peridotite_rect,7,1.277,1,12,0,12,0,1,,,,,,,,,,,,,
6480bdf6d433e2e158870605,TCR,2024-06-20_16h32.16.268,LearnStrategy,2023.2.3,Win32,60.60606061,3,1,14,-0.001041667,-0.0140625,1,0,0,1.0914,rock_grid_rect_2,3,10,-1,-1,1.091,0.1796875,-0.238541667,1,0,0,23.5432,Diorite_rect,3,23.543,1,13,0,13,0,1,,,,,,,,,,,,,
6480bdf6d433e2e158870605,TCR,2024-06-20_16h32.16.268,LearnStrategy,2023.2.3,Win32,60.60606061,3,1,15,0.01875,-0.0046875,1,0,0,1.6043,rock_grid_rect_2,5,02,-1,-1,1.604,-0.398958333,-0.4,1,0,0,3.2205,Obsidian_rect,5,3.221,1,14,0,14,0,1,,,,,,,,,,,,,
6480bdf6d433e2e158870605,TCR,2024-06-20_16h32.16.268,LearnStrategy,2023.2.3,Win32,60.60606061,3,1,16,0.035416667,-0.0140625,1,0,0,1.2053,rock_grid_rect_2,3,06,-1,-1,1.205,0.090625,-0.2625,1,0,0,24.7049,Diorite_rect,3,24.705,1,15,0,15,0,1,,,,,,,,,,,,,
6480bdf6d433e2e158870605,TCR,2024-06-20_16h32.16.268,LearnStrategy,2023.2.3,Win32,60.60606061,3,2,1,,,,,,,,6,06,,,,,,,,,,,6,8.773,1,,,,,,-0.160416667,-0.40625,1,0,0,8.7734,Pegmatite_rect,0,0,0,0,1,
6480bdf6d433e2e158870605,TCR,2024-06-20_16h32.16.268,LearnStrategy,2023.2.3,Win32,60.60606061,3,2,2,,,,,,,,4,08,,,,,,,,,,,4,17.886,1,,,,,,0.375,-0.246354167,1,0,0,17.8857,Gabbro_rect,1,0,1,0,1,
6480bdf6d433e2e158870605,TCR,2024-06-20_16h32.16.268,LearnStrategy,2023.2.3,Win32,60.60606061,3,2,3,,,,,,,,8,03,,,,,,,,,,,8,2.002,1,,,,,,0.334375,-0.3953125,1,0,0,2.0022,Pumice_rect,2,0,2,0,1,
6480bdf6d433e2e158870605,TCR,2024-06-20_16h32.16.268,LearnStrategy,2023.2.3,Win32,60.60606061,3,2,4,,,,,,,,7,16,,,,,,,,,,,7,2.443,1,,,,,,0.144791667,-0.41875,1,0,0,2.4426,Peridotite_rect,3,0,3,0,1,
6480bdf6d433e2e158870605,TCR,2024-06-20_16h32.16.268,LearnStrategy,2023.2.3,Win32,60.60606061,3,2,5,,,,,,,,1,09,,,,,,,,,,,1,47.607,1,,,,,,-0.429166667,-0.263541667,1,0,0,47.607,Andesite_rect,4,0,4,0,1,
6480bdf6d433e2e158870605,TCR,2024-06-20_16h32.16.268,LearnStrategy,2023.2.3,Win32,60.60606061,3,2,6,,,,,,,,5,05,,,,,,,,,,,5,2.036,1,,,,,,-0.419791667,-0.4,1,0,0,2.0362,Obsidian_rect,5,0,5,0,1,
6480bdf6d433e2e158870605,TCR,2024-06-20_16h32.16.268,LearnStrategy,2023.2.3,Win32,60.60606061,3,2,7,,,,,,,,1,03,,,,,,,,,,,3,20.436,0,,,,,,0.108854167,-0.259375,1,0,0,20.4358,Diorite_rect,6,0,6,0,1,
6480bdf6d433e2e158870605,TCR,2024-06-20_16h32.16.268,LearnStrategy,2023.2.3,Win32,60.60606061,3,2,8,,,,,,,,8,02,,,,,,,,,,,8,1.485,1,,,,,,0.465625,-0.411979167,1,0,0,1.4846,Pumice_rect,7,0,7,0,1,
6480bdf6d433e2e158870605,TCR,2024-06-20_16h32.16.268,LearnStrategy,2023.2.3,Win32,60.60606061,3,2,9,,,,,,,,6,05,,,,,,,,,,,3,8,0,,,,,,0.081770833,-0.2578125,1,0,0,7.9997,Diorite_rect,8,0,8,0,1,
6480bdf6d433e2e158870605,TCR,2024-06-20_16h32.16.268,LearnStrategy,2023.2.3,Win32,60.60606061,3,2,10,,,,,,,,5,07,,,,,,,,,,,5,2.801,1,,,,,,-0.402604167,-0.421354167,1,0,0,2.8012,Obsidian_rect,9,0,9,0,1,
6480bdf6d433e2e158870605,TCR,2024-06-20_16h32.16.268,LearnStrategy,2023.2.3,Win32,60.60606061,3,2,11,,,,,,,,7,12,,,,,,,,,,,7,1.561,1,,,,,,0.095833333,-0.4109375,1,0,0,1.5613,Peridotite_rect,10,0,10,0,1,
6480bdf6d433e2e158870605,TCR,2024-06-20_16h32.16.268,LearnStrategy,2023.2.3,Win32,60.60606061,3,2,12,,,,,,,,3,16,,,,,,,,,,,3,5.766,1,,,,,,0.067708333,-0.2546875,1,0,0,5.7663,Diorite_rect,11,0,11,0,1,
6480bdf6d433e2e158870605,TCR,2024-06-20_16h32.16.268,LearnStrategy,2023.2.3,Win32,60.60606061,3,2,13,,,,,,,,2,14,,,,,,,,,,,8,23.453,0,,,,,,0.4109375,-0.391666667,1,0,0,23.4531,Pumice_rect,12,0,12,0,1,
6480bdf6d433e2e158870605,TCR,2024-06-20_16h32.16.268,LearnStrategy,2023.2.3,Win32,60.60606061,3,2,14,,,,,,,,2,01,,,,,,,,,,,2,18.7,1,,,,,,-0.150520833,-0.241145833,1,0,0,18.6996,Basalt_rect,13,0,13,0,1,
6480bdf6d433e2e158870605,TCR,2024-06-20_16h32.16.268,LearnStrategy,2023.2.3,Win32,60.60606061,3,2,15,,,,,,,,4,13,,,,,,,,,,,3,27.381,0,,,,,,0.155729167,-0.2671875,1,0,0,27.3806,Diorite_rect,14,0,14,0,1,
6480bdf6d433e2e158870605,TCR,2024-06-20_16h32.16.268,LearnStrategy,2023.2.3,Win32,60.60606061,3,2,16,,,,,,,,3,12,,,,,,,,,,,7,6.432,0,,,,,,0.082291667,-0.408854167,1,0,0,6.4316,Peridotite_rect,15,0,15,0,1,
6480bdf6d433e2e158870605,TCR,2024-06-20_16h32.16.268,LearnStrategy,2023.2.3,Win32,60.60606061,4,1,1,-0.0515625,0.0015625,1,0,0,2.489,rock_grid_rect_2,2,10,-1,-1,2.489,-0.177604167,-0.244791667,1,0,0,11.658,Basalt_rect,2,11.658,1,0,0,0,0,1,,,,,,,,,,,,,
6480bdf6d433e2e158870605,TCR,2024-06-20_16h32.16.268,LearnStrategy,2023.2.3,Win32,60.60606061,4,1,2,-0.028645833,-0.000520833,1,0,0,1.3935,rock_grid_rect_2,1,04,-1,-1,1.393,-0.408854167,-0.234895833,1,0,0,6.8234,Andesite_rect,1,6.823,1,1,0,1,0,1,,,,,,,,,,,,,
6480bdf6d433e2e158870605,TCR,2024-06-20_16h32.16.268,LearnStrategy,2023.2.3,Win32,60.60606061,4,1,3,-0.040625,-0.0015625,1,0,0,0.8619,rock_grid_rect_2,2,08,-1,-1,0.862,-0.142708333,-0.240104167,1,0,0,18.8103,Basalt_rect,2,18.81,1,2,0,2,0,1,,,,,,,,,,,,,
6480bdf6d433e2e158870605,TCR,2024-06-20_16h32.16.268,LearnStrategy,2023.2.3,Win32,60.60606061,4,1,4,-0.025,0.002604167,1,0,0,1.1273,rock_grid_rect_2,8,04,-1,-1,1.127,0.385416667,-0.415625,1,0,0,1.2615,Pumice_rect,8,1.261,1,3,0,3,0,1,,,,,,,,,,,,,
6480bdf6d433e2e158870605,TCR,2024-06-20_16h32.16.268,LearnStrategy,2023.2.3,Win32,60.60606061,4,1,5,-0.0203125,0.008854167,1,0,0,0.9258,rock_grid_rect_2,5,12,-1,-1,0.926,-0.381770833,-0.4140625,1,0,0,1.2386,Obsidian_rect,5,1.239,1,4,0,4,0,1,,,,,,,,,,,,,
6480bdf6d433e2e158870605,TCR,2024-06-20_16h32.16.268,LearnStrategy,2023.2.3,Win32,60.60606061,4,1,6,-0.034895833,-0.011979167,1,0,0,1.1525,rock_grid_rect_2,6,11,-1,-1,1.153,-0.183333333,-0.411458333,1,0,0,7.6601,Pegmatite_rect,6,7.66,1,5,0,5,0,1,,,,,,,,,,,,,
6480bdf6d433e2e158870605,TCR,2024-06-20_16h32.16.268,LearnStrategy,2023.2.3,Win32,60.60606061,4,1,7,-0.003125,-0.018229167,1,0,0,0.9948,rock_grid_rect_2,4,09,-1,-1,0.995,0.308854167,-0.234375,1,0,0,17.9768,Gabbro_rect,4,17.977,1,6,0,6,0,1,,,,,,,,,,,,,
6480bdf6d433e2e158870605,TCR,2024-06-20_16h32.16.268,LearnStrategy,2023.2.3,Win32,60.60606061,4,1,8,-0.092708333,-0.007291667,1,0,0,0.9283,rock_grid_rect_2,4,09,-1,-1,0.928,0.411458333,-0.263020833,1,0,0,1.5818,Gabbro_rect,4,1.582,1,7,0,7,0,1,,,,,,,,,,,,,
6480bdf6d433e2e158870605,TCR,2024-06-20_16h32.16.268,LearnStrategy,2023.2.3,Win32,60.60606061,4,1,9,-0.0265625,0.002083333,1,0,0,0.8799,rock_grid_rect_2,2,09,-1,-1,0.88,-0.164583333,-0.240625,1,0,0,18.8009,Basalt_rect,2,18.801,1,8,0,8,0,1,,,,,,,,,,,,,
6480bdf6d433e2e158870605,TCR,2024-06-20_16h32.16.268,LearnStrategy,2023.2.3,Win32,60.60606061,4,1,10,-0.041145833,-0.015104167,1,0,0,1.1442,rock_grid_rect_2,3,10,-1,-1,1.144,0.101041667,-0.38125,1,0,0,8.1834,Peridotite_rect,7,8.183,0,9,0,9,0,1,,,,,,,,,,,,,
6480bdf6d433e2e158870605,TCR,2024-06-20_16h32.16.268,LearnStrategy,2023.2.3,Win32,60.60606061,4,1,11,0.015104167,-0.002083333,1,0,0,1.3237,rock_grid_rect_2,7,08,-1,-1,1.324,0.1390625,-0.400520833,1,0,0,2.9894,Peridotite_rect,7,2.989,1,10,0,10,0,1,,,,,,,,,,,,,
6480bdf6d433e2e158870605,TCR,2024-06-20_16h32.16.268,LearnStrategy,2023.2.3,Win32,60.60606061,4,1,12,-0.0078125,0.013020833,1,0,0,0.9121,rock_grid_rect_2,1,06,-1,-1,0.912,-0.354166667,-0.250520833,1,0,0,13.1628,Andesite_rect,1,13.163,1,11,0,11,0,1,,,,,,,,,,,,,
6480bdf6d433e2e158870605,TCR,2024-06-20_16h32.16.268,LearnStrategy,2023.2.3,Win32,60.60606061,4,1,13,0.015625,-0.006770833,1,0,0,1.3055,rock_grid_rect_2,4,10,-1,-1,1.305,0.389583333,-0.254166667,1,0,0,2.3405,Gabbro_rect,4,2.341,1,12,0,12,0,1,,,,,,,,,,,,,
6480bdf6d433e2e158870605,TCR,2024-06-20_16h32.16.268,LearnStrategy,2023.2.3,Win32,60.60606061,4,1,14,0.0234375,-0.003125,1,0,0,1.1443,rock_grid_rect_2,3,14,-1,-1,1.144,0.181770833,-0.267708333,1,0,0,22.7086,Diorite_rect,3,22.709,1,13,0,13,0,1,,,,,,,,,,,,,
6480bdf6d433e2e158870605,TCR,2024-06-20_16h32.16.268,LearnStrategy,2023.2.3,Win32,60.60606061,4,1,15,-0.033854167,0.009895833,1,0,0,0.9569,rock_grid_rect_2,6,11,-1,-1,0.957,-0.119791667,-0.416666667,1,0,0,15.8954,Pegmatite_rect,6,15.895,1,14,0,14,0,1,,,,,,,,,,,,,
6480bdf6d433e2e158870605,TCR,2024-06-20_16h32.16.268,LearnStrategy,2023.2.3,Win32,60.60606061,4,1,16,-0.0421875,0.0125,1,0,0,1.0278,rock_grid_rect_2,3,08,-1,-1,1.028,0.084895833,-0.254166667,1,0,0,19.9812,Diorite_rect,3,19.981,1,15,0,15,0,1,,,,,,,,,,,,,
6480bdf6d433e2e158870605,TCR,2024-06-20_16h32.16.268,LearnStrategy,2023.2.3,Win32,60.60606061,4,2,1,,,,,,,,8,09,,,,,,,,,,,8,2.695,1,,,,,,0.414583333,-0.386979167,1,0,0,2.6955,Pumice_rect,0,0,0,0,1,
6480bdf6d433e2e158870605,TCR,2024-06-20_16h32.16.268,LearnStrategy,2023.2.3,Win32,60.60606061,4,2,2,,,,,,,,3,12,,,,,,,,,,,3,5.067,1,,,,,,0.136458333,-0.261979167,1,0,0,5.0675,Diorite_rect,1,0,1,0,1,
6480bdf6d433e2e158870605,TCR,2024-06-20_16h32.16.268,LearnStrategy,2023.2.3,Win32,60.60606061,4,2,3,,,,,,,,1,03,,,,,,,,,,,1,29.518,1,,,,,,-0.3375,-0.251041667,1,0,0,29.5185,Andesite_rect,2,0,2,0,1,
6480bdf6d433e2e158870605,TCR,2024-06-20_16h32.16.268,LearnStrategy,2023.2.3,Win32,60.60606061,4,2,4,,,,,,,,4,15,,,,,,,,,,,4,7.358,1,,,,,,0.359375,-0.2375,1,0,0,7.3577,Gabbro_rect,3,0,3,0,1,
6480bdf6d433e2e158870605,TCR,2024-06-20_16h32.16.268,LearnStrategy,2023.2.3,Win32,60.60606061,4,2,5,,,,,,,,4,05,,,,,,,,,,,4,10.467,1,,,,,,0.359375,-0.2375,1,0,0,10.4673,Gabbro_rect,4,0,4,0,1,
6480bdf6d433e2e158870605,TCR,2024-06-20_16h32.16.268,LearnStrategy,2023.2.3,Win32,60.60606061,4,2,6,,,,,,,,7,15,,,,,,,,,,,7,1.891,1,,,,,,0.156770833,-0.399479167,1,0,0,1.8911,Peridotite_rect,5,0,5,0,1,
6480bdf6d433e2e158870605,TCR,2024-06-20_16h32.16.268,LearnStrategy,2023.2.3,Win32,60.60606061,4,2,7,,,,,,,,6,05,,,,,,,,,,,6,24.312,1,,,,,,-0.1359375,-0.395833333,1,0,0,24.3118,Pegmatite_rect,6,0,6,0,1,
6480bdf6d433e2e158870605,TCR,2024-06-20_16h32.16.268,LearnStrategy,2023.2.3,Win32,60.60606061,4,2,8,,,,,,,,2,06,,,,,,,,,,,2,2.45,1,,,,,,-0.1484375,-0.2546875,1,0,0,2.4496,Basalt_rect,7,0,7,0,1,
6480bdf6d433e2e158870605,TCR,2024-06-20_16h32.16.268,LearnStrategy,2023.2.3,Win32,60.60606061,4,2,9,,,,,,,,2,14,,,,,,,,,,,8,2.602,0,,,,,,0.35625,-0.4015625,1,0,0,2.6016,Pumice_rect,8,0,8,0,1,
6480bdf6d433e2e158870605,TCR,2024-06-20_16h32.16.268,LearnStrategy,2023.2.3,Win32,60.60606061,4,2,10,,,,,,,,5,14,,,,,,,,,,,5,1.246,1,,,,,,-0.394791667,-0.388541667,1,0,0,1.2461,Obsidian_rect,9,0,9,0,1,
6480bdf6d433e2e158870605,TCR,2024-06-20_16h32.16.268,LearnStrategy,2023.2.3,Win32,60.60606061,4,2,11,,,,,,,,1,10,,,,,,,,,,,1,31.624,1,,,,,,-0.426041667,-0.26875,1,0,0,31.6236,Andesite_rect,10,0,10,0,1,
6480bdf6d433e2e158870605,TCR,2024-06-20_16h32.16.268,LearnStrategy,2023.2.3,Win32,60.60606061,4,2,12,,,,,,,,6,07,,,,,,,,,,,6,7.686,1,,,,,,-0.145833333,-0.405729167,1,0,0,7.6863,Pegmatite_rect,11,0,11,0,1,
6480bdf6d433e2e158870605,TCR,2024-06-20_16h32.16.268,LearnStrategy,2023.2.3,Win32,60.60606061,4,2,13,,,,,,,,8,13,,,,,,,,,,,4,5.888,0,,,,,,0.372916667,-0.256770833,1,0,0,5.8881,Gabbro_rect,12,0,12,0,1,
6480bdf6d433e2e158870605,TCR,2024-06-20_16h32.16.268,LearnStrategy,2023.2.3,Win32,60.60606061,4,2,14,,,,,,,,3,02,,,,,,,,,,,3,15.686,1,,,,,,0.135416667,-0.244270833,1,0,0,15.6862,Diorite_rect,13,0,13,0,1,
6480bdf6d433e2e158870605,TCR,2024-06-20_16h32.16.268,LearnStrategy,2023.2.3,Win32,60.60606061,4,2,15,,,,,,,,7,04,,,,,,,,,,,6,33.486,0,,,,,,-0.054166667,-0.390104167,1,0,0,33.4855,Pegmatite_rect,14,0,14,0,1,
6480bdf6d433e2e158870605,TCR,2024-06-20_16h32.16.268,LearnStrategy,2023.2.3,Win32,60.60606061,4,2,16,,,,,,,,5,10,,,,,,,,,,,5,1.194,1,,,,,,-0.358333333,-0.392708333,1,0,0,1.1941,Obsidian_rect,15,0,15,0,1,
6480bdf6d433e2e158870605,TCR,2024-06-20_16h32.16.268,LearnStrategy,2023.2.3,Win32,60.60606061,5,1,1,0.033333333,0.003125,1,0,0,3.2909,rock_grid_rect_2,8,06,-1,-1,3.291,0.4015625,-0.3953125,1,0,0,2.2771,Pumice_rect,8,2.277,1,0,0,0,0,1,,,,,,,,,,,,,
6480bdf6d433e2e158870605,TCR,2024-06-20_16h32.16.268,LearnStrategy,2023.2.3,Win32,60.60606061,5,1,2,-0.033333333,-0.001041667,1,0,0,1.239,rock_grid_rect_2,4,10,-1,-1,1.239,0.430208333,-0.260416667,1,0,0,2.379,Gabbro_rect,4,2.379,1,1,0,1,0,1,,,,,,,,,,,,,
6480bdf6d433e2e158870605,TCR,2024-06-20_16h32.16.268,LearnStrategy,2023.2.3,Win32,60.60606061,5,1,3,0.0484375,-0.006770833,1,0,0,1.0221,rock_grid_rect_2,7,02,-1,-1,1.022,0.114583333,-0.4125,1,0,0,1.4878,Peridotite_rect,7,1.488,1,2,0,2,0,1,,,,,,,,,,,,,
6480bdf6d433e2e158870605,TCR,2024-06-20_16h32.16.268,LearnStrategy,2023.2.3,Win32,60.60606061,5,1,4,-0.007291667,-0.009375,1,0,0,1.0292,rock_grid_rect_2,6,10,-1,-1,1.029,0.153645833,-0.402083333,1,0,0,1.4914,Peridotite_rect,7,1.491,0,3,0,3,0,1,,,,,,,,,,,,,
6480bdf6d433e2e158870605,TCR,2024-06-20_16h32.16.268,LearnStrategy,2023.2.3,Win32,60.60606061,5,1,5,-0.009895833,0.0015625,1,0,0,1.6394,rock_grid_rect_2,2,16,-1,-1,1.639,0.4296875,-0.251041667,1,0,0,2.7378,Gabbro_rect,4,2.738,0,4,0,4,0,1,,,,,,,,,,,,,
6480bdf6d433e2e158870605,TCR,2024-06-20_16h32.16.268,LearnStrategy,2023.2.3,Win32,60.60606061,5,1,6,0.002604167,-0.006770833,1,0,0,1.244,rock_grid_rect_2,1,04,-1,-1,1.244,-0.367708333,-0.231770833,1,0,0,17.8201,Andesite_rect,1,17.82,1,5,0,5,0,1,,,,,,,,,,,,,
6480bdf6d433e2e158870605,TCR,2024-06-20_16h32.16.268,LearnStrategy,2023.2.3,Win32,60.60606061,5,1,7,-0.076041667,-0.001041667,1,0,0,1.0949,rock_grid_rect_2,8,08,-1,-1,1.095,0.380208333,-0.391145833,1,0,0,14.4616,Pumice_rect,8,14.462,1,6,0,6,0,1,,,,,,,,,,,,,
6480bdf6d433e2e158870605,TCR,2024-06-20_16h32.16.268,LearnStrategy,2023.2.3,Win32,60.60606061,5,1,8,-0.051041667,0.004166667,1,0,0,1.0277,rock_grid_rect_2,7,05,-1,-1,1.028,0.126041667,-0.41875,1,0,0,2.492,Peridotite_rect,7,2.492,1,7,0,7,0,1,,,,,,,,,,,,,
6480bdf6d433e2e158870605,TCR,2024-06-20_16h32.16.268,LearnStrategy,2023.2.3,Win32,60.60606061,5,1,9,0.019791667,-0.0015625,1,0,0,1.1586,rock_grid_rect_2,6,13,-1,-1,1.159,-0.0859375,-0.419791667,1,0,0,10.1075,Pegmatite_rect,6,10.108,1,8,0,8,0,1,,,,,,,,,,,,,
6480bdf6d433e2e158870605,TCR,2024-06-20_16h32.16.268,LearnStrategy,2023.2.3,Win32,60.60606061,5,1,10,-0.00625,0.005208333,1,0,0,0.9613,rock_grid_rect_2,5,11,-1,-1,0.961,-0.425,-0.40625,1,0,0,1.3396,Obsidian_rect,5,1.34,1,9,0,9,0,1,,,,,,,,,,,,,
6480bdf6d433e2e158870605,TCR,2024-06-20_16h32.16.268,LearnStrategy,2023.2.3,Win32,60.60606061,5,1,11,0.003125,-0.009375,1,0,0,0.9813,rock_grid_rect_2,3,08,-1,-1,0.981,0.163541667,-0.2421875,1,0,0,6.7357,Diorite_rect,3,6.736,1,10,0,10,0,1,,,,,,,,,,,,,
6480bdf6d433e2e158870605,TCR,2024-06-20_16h32.16.268,LearnStrategy,2023.2.3,Win32,60.60606061,5,1,12,-0.063020833,-0.013020833,1,0,0,0.7953,rock_grid_rect_2,1,05,-1,-1,0.795,-0.352083333,-0.241666667,1,0,0,3.0293,Andesite_rect,1,3.029,1,11,0,11,0,1,,,,,,,,,,,,,
6480bdf6d433e2e158870605,TCR,2024-06-20_16h32.16.268,LearnStrategy,2023.2.3,Win32,60.60606061,5,1,13,0.0328125,-0.004166667,1,0,0,1.1442,rock_grid_rect_2,4,12,-1,-1,1.144,0.471354167,-0.241666667,1,0,0,18.5406,Gabbro_rect,4,18.541,1,12,0,12,0,1,,,,,,,,,,,,,
6480bdf6d433e2e158870605,TCR,2024-06-20_16h32.16.268,LearnStrategy,2023.2.3,Win32,60.60606061,5,1,14,-0.032291667,-0.007291667,1,0,0,0.9949,rock_grid_rect_2,2,08,-1,-1,0.995,-0.134895833,-0.238541667,1,0,0,2.5799,Basalt_rect,2,2.58,1,13,0,13,0,1,,,,,,,,,,,,,
6480bdf6d433e2e158870605,TCR,2024-06-20_16h32.16.268,LearnStrategy,2023.2.3,Win32,60.60606061,5,1,15,0.000520833,-0.0046875,1,0,0,1.1712,rock_grid_rect_2,2,08,-1,-1,1.171,-0.144791667,-0.259895833,1,0,0,1.066,Basalt_rect,2,1.066,1,14,0,14,0,1,,,,,,,,,,,,,
6480bdf6d433e2e158870605,TCR,2024-06-20_16h32.16.268,LearnStrategy,2023.2.3,Win32,60.60606061,5,1,16,-0.048958333,-0.004166667,1,0,0,1.0677,rock_grid_rect_2,3,15,-1,-1,1.068,0.094791667,-0.234375,1,0,0,6.3357,Diorite_rect,3,6.336,1,15,0,15,0,1,,,,,,,,,,,,,
6480bdf6d433e2e158870605,TCR,2024-06-20_16h32.16.268,LearnStrategy,2023.2.3,Win32,60.60606061,5,2,1,,,,,,,,5,09,,,,,,,,,,,5,1.276,1,,,,,,-0.341145833,-0.408854167,1,0,0,1.2759,Obsidian_rect,0,0,0,0,1,
6480bdf6d433e2e158870605,TCR,2024-06-20_16h32.16.268,LearnStrategy,2023.2.3,Win32,60.60606061,5,2,2,,,,,,,,4,13,,,,,,,,,,,6,55.786,0,,,,,,-0.094270833,-0.385416667,1,0,0,55.7862,Pegmatite_rect,1,0,1,0,1,
6480bdf6d433e2e158870605,TCR,2024-06-20_16h32.16.268,LearnStrategy,2023.2.3,Win32,60.60606061,5,2,3,,,,,,,,3,11,,,,,,,,,,,3,14.309,1,,,,,,0.090625,-0.252083333,1,0,0,14.3085,Diorite_rect,2,0,2,0,1,
6480bdf6d433e2e158870605,TCR,2024-06-20_16h32.16.268,LearnStrategy,2023.2.3,Win32,60.60606061,5,2,4,,,,,,,,2,11,,,,,,,,,,,8,9.834,0,,,,,,0.377083333,-0.415625,1,0,0,9.834,Pumice_rect,3,0,3,0,1,
6480bdf6d433e2e158870605,TCR,2024-06-20_16h32.16.268,LearnStrategy,2023.2.3,Win32,60.60606061,5,2,5,,,,,,,,1,01,,,,,,,,,,,1,10.855,1,,,,,,-0.388020833,-0.261979167,1,0,0,10.8551,Andesite_rect,4,0,4,0,1,
6480bdf6d433e2e158870605,TCR,2024-06-20_16h32.16.268,LearnStrategy,2023.2.3,Win32,60.60606061,5,2,6,,,,,,,,6,03,,,,,,,,,,,6,3.068,1,,,,,,-0.128645833,-0.382291667,1,0,0,3.068,Pegmatite_rect,5,0,5,0,1,
6480bdf6d433e2e158870605,TCR,2024-06-20_16h32.16.268,LearnStrategy,2023.2.3,Win32,60.60606061,5,2,7,,,,,,,,8,02,,,,,,,,,,,8,1.357,1,,,,,,0.4140625,-0.390104167,1,0,0,1.3567,Pumice_rect,6,0,6,0,1,
6480bdf6d433e2e158870605,TCR,2024-06-20_16h32.16.268,LearnStrategy,2023.2.3,Win32,60.60606061,5,2,8,,,,,,,,5,05,,,,,,,,,,,5,1.789,1,,,,,,-0.346875,-0.390104167,1,0,0,1.7886,Obsidian_rect,7,0,7,0,1,
6480bdf6d433e2e158870605,TCR,2024-06-20_16h32.16.268,LearnStrategy,2023.2.3,Win32,60.60606061,5,2,9,,,,,,,,4,08,,,,,,,,,,,4,7.438,1,,,,,,0.342708333,-0.236458333,1,0,0,7.4379,Gabbro_rect,8,0,8,0,1,
6480bdf6d433e2e158870605,TCR,2024-06-20_16h32.16.268,LearnStrategy,2023.2.3,Win32,60.60606061,5,2,10,,,,,,,,6,09,,,,,,,,,,,6,4.376,1,,,,,,-0.2,-0.414583333,1,0,0,4.3757,Pegmatite_rect,9,0,9,0,1,
6480bdf6d433e2e158870605,TCR,2024-06-20_16h32.16.268,LearnStrategy,2023.2.3,Win32,60.60606061,5,2,11,,,,,,,,8,10,,,,,,,,,,,8,2.242,1,,,,,,0.3703125,-0.391145833,1,0,0,2.2416,Pumice_rect,10,0,10,0,1,
6480bdf6d433e2e158870605,TCR,2024-06-20_16h32.16.268,LearnStrategy,2023.2.3,Win32,60.60606061,5,2,12,,,,,,,,7,16,,,,,,,,,,,2,14.611,0,,,,,,-0.156770833,-0.25,1,0,0,14.6108,Basalt_rect,11,0,11,0,1,
6480bdf6d433e2e158870605,TCR,2024-06-20_16h32.16.268,LearnStrategy,2023.2.3,Win32,60.60606061,5,2,13,,,,,,,,7,07,,,,,,,,,,,7,1.738,1,,,,,,0.059375,-0.401041667,1,0,0,1.7381,Peridotite_rect,12,0,12,0,1,
6480bdf6d433e2e158870605,TCR,2024-06-20_16h32.16.268,LearnStrategy,2023.2.3,Win32,60.60606061,5,2,14,,,,,,,,1,07,,,,,,,,,,,1,7.408,1,,,,,,-0.402604167,-0.25,1,0,0,7.4081,Andesite_rect,13,0,13,0,1,
6480bdf6d433e2e158870605,TCR,2024-06-20_16h32.16.268,LearnStrategy,2023.2.3,Win32,60.60606061,5,2,15,,,,,,,,3,09,,,,,,,,,,,3,6.286,1,,,,,,0.163541667,-0.2484375,1,0,0,6.2855,Diorite_rect,14,0,14,0,1,
6480bdf6d433e2e158870605,TCR,2024-06-20_16h32.16.268,LearnStrategy,2023.2.3,Win32,60.60606061,5,2,16,,,,,,,,2,12,,,,,,,,,,,8,10.655,0,,,,,,0.3453125,-0.3890625,1,0,0,10.655,Pumice_rect,15,0,15,0,1,
6480bdf6d433e2e158870605,TCR,2024-06-20_16h32.16.268,LearnStrategy,2023.2.3,Win32,60.60606061,6,1,1,0.007291667,-0.0015625,1,0,0,2.5006,rock_grid_rect_2,8,16,-1,-1,2.501,0.4109375,-0.402604167,1,0,0,1.7685,Pumice_rect,8,1.769,1,0,0,0,0,1,,,,,,,,,,,,,
6480bdf6d433e2e158870605,TCR,2024-06-20_16h32.16.268,LearnStrategy,2023.2.3,Win32,60.60606061,6,1,2,0.026041667,0.002604167,1,0,0,1.3786,rock_grid_rect_2,5,12,-1,-1,1.379,-0.489583333,-0.3953125,1,0,0,1.1234,Obsidian_rect,5,1.123,1,1,0,1,0,1,,,,,,,,,,,,,
6480bdf6d433e2e158870605,TCR,2024-06-20_16h32.16.268,LearnStrategy,2023.2.3,Win32,60.60606061,6,1,3,0.028125,-0.0109375,1,0,0,1.0308,rock_grid_rect_2,6,16,-1,-1,1.031,-0.146354167,-0.401041667,1,0,0,3.8113,Pegmatite_rect,6,3.811,1,2,0,2,0,1,,,,,,,,,,,,,
6480bdf6d433e2e158870605,TCR,2024-06-20_16h32.16.268,LearnStrategy,2023.2.3,Win32,60.60606061,6,1,4,0.008333333,0.004166667,1,0,0,1.2266,rock_grid_rect_2,7,14,-1,-1,1.227,0.111979167,-0.391666667,1,0,0,1.3429,Peridotite_rect,7,1.343,1,3,0,3,0,1,,,,,,,,,,,,,
6480bdf6d433e2e158870605,TCR,2024-06-20_16h32.16.268,LearnStrategy,2023.2.3,Win32,60.60606061,6,1,5,-0.0203125,-0.008854167,1,0,0,0.9296,rock_grid_rect_2,2,05,-1,-1,0.93,-0.1609375,-0.240625,1,0,0,1.4449,Basalt_rect,2,1.445,1,4,0,4,0,1,,,,,,,,,,,,,
6480bdf6d433e2e158870605,TCR,2024-06-20_16h32.16.268,LearnStrategy,2023.2.3,Win32,60.60606061,6,1,6,0.05,-0.0109375,1,0,0,1.4846,rock_grid_rect_2,1,16,-1,-1,1.485,-0.405729167,-0.2359375,1,0,0,3.9424,Andesite_rect,1,3.942,1,5,0,5,0,1,,,,,,,,,,,,,
6480bdf6d433e2e158870605,TCR,2024-06-20_16h32.16.268,LearnStrategy,2023.2.3,Win32,60.60606061,6,1,7,-0.0953125,-0.009375,1,0,0,3.0065,rock_grid_rect_2,4,14,-1,-1,3.006,0.372395833,-0.2625,1,0,0,1.7075,Gabbro_rect,4,1.707,1,6,0,6,0,1,,,,,,,,,,,,,
6480bdf6d433e2e158870605,TCR,2024-06-20_16h32.16.268,LearnStrategy,2023.2.3,Win32,60.60606061,6,1,8,-0.051041667,0.009895833,1,0,0,1.4223,rock_grid_rect_2,7,02,-1,-1,1.422,0.130729167,-0.413020833,1,0,0,1.2276,Peridotite_rect,7,1.228,1,7,0,7,0,1,,,,,,,,,,,,,
6480bdf6d433e2e158870605,TCR,2024-06-20_16h32.16.268,LearnStrategy,2023.2.3,Win32,60.60606061,6,1,9,0.01875,0.005729167,1,0,0,0.8463,rock_grid_rect_2,3,15,-1,-1,0.846,0.126041667,-0.257291667,1,0,0,1.9465,Diorite_rect,3,1.947,1,8,0,8,0,1,,,,,,,,,,,,,
6480bdf6d433e2e158870605,TCR,2024-06-20_16h32.16.268,LearnStrategy,2023.2.3,Win32,60.60606061,6,1,10,0.030729167,-0.003125,1,0,0,1.3583,rock_grid_rect_2,4,12,-1,-1,1.358,0.340625,-0.240625,1,0,0,4.982,Gabbro_rect,4,4.982,1,9,0,9,0,1,,,,,,,,,,,,,
6480bdf6d433e2e158870605,TCR,2024-06-20_16h32.16.268,LearnStrategy,2023.2.3,Win32,60.60606061,6,1,11,0.040625,-0.0046875,1,0,0,0.923,rock_grid_rect_2,2,09,-1,-1,0.923,-0.119791667,-0.255729167,1,0,0,1.6901,Basalt_rect,2,1.69,1,10,0,10,0,1,,,,,,,,,,,,,
6480bdf6d433e2e158870605,TCR,2024-06-20_16h32.16.268,LearnStrategy,2023.2.3,Win32,60.60606061,6,1,12,-0.003125,-0.003125,1,0,0,1.073,rock_grid_rect_2,2,10,-1,-1,1.073,-0.140625,-0.248958333,1,0,0,2.5661,Basalt_rect,2,2.566,1,11,0,11,0,1,,,,,,,,,,,,,
6480bdf6d433e2e158870605,TCR,2024-06-20_16h32.16.268,LearnStrategy,2023.2.3,Win32,60.60606061,6,1,13,-0.026041667,0.002604167,1,0,0,1.0293,rock_grid_rect_2,2,08,-1,-1,1.029,-0.096354167,-0.268229167,1,0,0,1.3643,Basalt_rect,2,1.364,1,12,0,12,0,1,,,,,,,,,,,,,
6480bdf6d433e2e158870605,TCR,2024-06-20_16h32.16.268,LearnStrategy,2023.2.3,Win32,60.60606061,6,1,14,-0.038020833,0.000520833,1,0,0,1.096,rock_grid_rect_2,4,14,-1,-1,1.096,0.439583333,-0.259895833,1,0,0,1.6632,Gabbro_rect,4,1.663,1,13,0,13,0,1,,,,,,,,,,,,,
6480bdf6d433e2e158870605,TCR,2024-06-20_16h32.16.268,LearnStrategy,2023.2.3,Win32,60.60606061,6,1,15,-0.031770833,-0.0078125,1,0,0,0.9638,rock_grid_rect_2,8,14,-1,-1,0.964,0.419791667,-0.3921875,1,0,0,1.3957,Pumice_rect,8,1.396,1,14,0,14,0,1,,,,,,,,,,,,,
6480bdf6d433e2e158870605,TCR,2024-06-20_16h32.16.268,LearnStrategy,2023.2.3,Win32,60.60606061,6,1,16,-0.0265625,0.0140625,1,0,0,0.9963,rock_grid_rect_2,7,13,-1,-1,0.996,0.1375,-0.402604167,1,0,0,1.0397,Peridotite_rect,7,1.04,1,15,0,15,0,1,,,,,,,,,,,,,
6480bdf6d433e2e158870605,TCR,2024-06-20_16h32.16.268,LearnStrategy,2023.2.3,Win32,60.60606061,6,2,1,,,,,,,,2,04,,,,,,,,,,,2,2.304,1,,,,,,-0.135416667,-0.246354167,1,0,0,2.3036,Basalt_rect,0,0,0,0,1,
6480bdf6d433e2e158870605,TCR,2024-06-20_16h32.16.268,LearnStrategy,2023.2.3,Win32,60.60606061,6,2,2,,,,,,,,6,06,,,,,,,,,,,6,3.414,1,,,,,,-0.136458333,-0.395833333,1,0,0,3.4143,Pegmatite_rect,1,0,1,0,1,
6480bdf6d433e2e158870605,TCR,2024-06-20_16h32.16.268,LearnStrategy,2023.2.3,Win32,60.60606061,6,2,3,,,,,,,,6,08,,,,,,,,,,,6,8.674,1,,,,,,-0.1234375,-0.3984375,1,0,0,8.6739,Pegmatite_rect,2,0,2,0,1,
6480bdf6d433e2e158870605,TCR,2024-06-20_16h32.16.268,LearnStrategy,2023.2.3,Win32,60.60606061,6,2,4,,,,,,,,1,09,,,,,,,,,,,1,39.384,1,,,,,,-0.446875,-0.2609375,1,0,0,39.3841,Andesite_rect,3,0,3,0,1,
6480bdf6d433e2e158870605,TCR,2024-06-20_16h32.16.268,LearnStrategy,2023.2.3,Win32,60.60606061,6,2,5,,,,,,,,5,08,,,,,,,,,,,5,1.445,1,,,,,,-0.443229167,-0.394270833,1,0,0,1.445,Obsidian_rect,4,0,4,0,1,
6480bdf6d433e2e158870605,TCR,2024-06-20_16h32.16.268,LearnStrategy,2023.2.3,Win32,60.60606061,6,2,6,,,,,,,,8,03,,,,,,,,,,,8,1.715,1,,,,,,0.383333333,-0.396875,1,0,0,1.7145,Pumice_rect,5,0,5,0,1,
6480bdf6d433e2e158870605,TCR,2024-06-20_16h32.16.268,LearnStrategy,2023.2.3,Win32,60.60606061,6,2,7,,,,,,,,3,13,,,,,,,,,,,3,24.122,1,,,,,,0.158333333,-0.234375,1,0,0,24.1223,Diorite_rect,6,0,6,0,1,
6480bdf6d433e2e158870605,TCR,2024-06-20_16h32.16.268,LearnStrategy,2023.2.3,Win32,60.60606061,6,2,8,,,,,,,,7,10,,,,,,,,,,,7,1.42,1,,,,,,0.139583333,-0.394270833,1,0,0,1.4203,Peridotite_rect,7,0,7,0,1,
6480bdf6d433e2e158870605,TCR,2024-06-20_16h32.16.268,LearnStrategy,2023.2.3,Win32,60.60606061,6,2,9,,,,,,,,4,01,,,,,,,,,,,7,8.052,0,,,,,,0.139583333,-0.394270833,1,0,0,8.0516,Peridotite_rect,8,0,8,0,1,
6480bdf6d433e2e158870605,TCR,2024-06-20_16h32.16.268,LearnStrategy,2023.2.3,Win32,60.60606061,6,2,10,,,,,,,,4,03,,,,,,,,,,,4,24.061,1,,,,,,0.4,-0.236458333,1,0,0,24.061,Gabbro_rect,9,0,9,0,1,
6480bdf6d433e2e158870605,TCR,2024-06-20_16h32.16.268,LearnStrategy,2023.2.3,Win32,60.60606061,6,2,11,,,,,,,,3,16,,,,,,,,,,,3,10.441,1,,,,,,0.166145833,-0.253645833,1,0,0,10.4414,Diorite_rect,10,0,10,0,1,
6480bdf6d433e2e158870605,TCR,2024-06-20_16h32.16.268,LearnStrategy,2023.2.3,Win32,60.60606061,6,2,12,,,,,,,,2,01,,,,,,,,,,,2,2.956,1,,,,,,-0.134895833,-0.251041667,1,0,0,2.956,Basalt_rect,11,0,11,0,1,
6480bdf6d433e2e158870605,TCR,2024-06-20_16h32.16.268,LearnStrategy,2023.2.3,Win32,60.60606061,6,2,13,,,,,,,,7,12,,,,,,,,,,,7,1.354,1,,,,,,0.114583333,-0.415625,1,0,0,1.3543,Peridotite_rect,12,0,12,0,1,
6480bdf6d433e2e158870605,TCR,2024-06-20_16h32.16.268,LearnStrategy,2023.2.3,Win32,60.60606061,6,2,14,,,,,,,,5,07,,,,,,,,,,,5,1.313,1,,,,,,-0.355729167,-0.383333333,1,0,0,1.3133,Obsidian_rect,13,0,13,0,1,
6480bdf6d433e2e158870605,TCR,2024-06-20_16h32.16.268,LearnStrategy,2023.2.3,Win32,60.60606061,6,2,15,,,,,,,,8,15,,,,,,,,,,,8,2.646,1,,,,,,0.395833333,-0.385416667,1,0,0,2.646,Pumice_rect,14,0,14,0,1,
6480bdf6d433e2e158870605,TCR,2024-06-20_16h32.16.268,LearnStrategy,2023.2.3,Win32,60.60606061,6,2,16,,,,,,,,1,02,,,,,,,,,,,1,44.306,1,,,,,,-0.428645833,-0.2484375,1,0,0,44.3065,Andesite_rect,15,0,15,0,1,
6480bdf6d433e2e158870605,TCR,2024-06-20_16h32.16.268,LearnStrategy,2023.2.3,Win32,60.60606061,7,1,1,0.007291667,0.008333333,1,0,0,2.4595,rock_grid_rect_2,1,06,-1,-1,2.459,-0.441666667,-0.266666667,1,0,0,20.8611,Andesite_rect,1,20.861,1,0,0,0,0,1,,,,,,,,,,,,,
6480bdf6d433e2e158870605,TCR,2024-06-20_16h32.16.268,LearnStrategy,2023.2.3,Win32,60.60606061,7,1,2,0.008333333,0.008333333,1,0,0,1.4215,rock_grid_rect_2,4,16,-1,-1,1.421,0.384895833,-0.244791667,1,0,0,2.3814,Gabbro_rect,4,2.381,1,1,0,1,0,1,,,,,,,,,,,,,
6480bdf6d433e2e158870605,TCR,2024-06-20_16h32.16.268,LearnStrategy,2023.2.3,Win32,60.60606061,7,1,3,-0.119270833,-0.0109375,1,0,0,0.9579,rock_grid_rect_2,8,14,-1,-1,0.958,0.350520833,-0.381770833,1,0,0,1.3846,Pumice_rect,8,1.385,1,2,0,2,0,1,,,,,,,,,,,,,
6480bdf6d433e2e158870605,TCR,2024-06-20_16h32.16.268,LearnStrategy,2023.2.3,Win32,60.60606061,7,1,4,-0.01875,0.000520833,1,0,0,0.7986,rock_grid_rect_2,2,05,-1,-1,0.799,-0.133854167,-0.233333333,1,0,0,1.1769,Basalt_rect,2,1.177,1,3,0,3,0,1,,,,,,,,,,,,,
6480bdf6d433e2e158870605,TCR,2024-06-20_16h32.16.268,LearnStrategy,2023.2.3,Win32,60.60606061,7,1,5,-0.0140625,-0.022395833,1,0,0,1.0463,rock_grid_rect_2,3,07,-1,-1,1.046,0.05625,-0.2578125,1,0,0,4.1197,Diorite_rect,3,4.12,1,4,0,4,0,1,,,,,,,,,,,,,
6480bdf6d433e2e158870605,TCR,2024-06-20_16h32.16.268,LearnStrategy,2023.2.3,Win32,60.60606061,7,1,6,-0.027083333,-0.000520833,1,0,0,1.0447,rock_grid_rect_2,4,12,-1,-1,1.045,0.430729167,-0.252083333,1,0,0,4.3991,Gabbro_rect,4,4.399,1,5,0,5,0,1,,,,,,,,,,,,,
6480bdf6d433e2e158870605,TCR,2024-06-20_16h32.16.268,LearnStrategy,2023.2.3,Win32,60.60606061,7,1,7,-0.041145833,-0.005729167,1,0,0,1.1717,rock_grid_rect_2,5,16,-1,-1,1.172,-0.355729167,-0.402083333,1,0,0,1.1087,Obsidian_rect,5,1.109,1,6,0,6,0,1,,,,,,,,,,,,,
6480bdf6d433e2e158870605,TCR,2024-06-20_16h32.16.268,LearnStrategy,2023.2.3,Win32,60.60606061,7,1,8,-0.04375,0.001041667,1,0,0,0.9794,rock_grid_rect_2,6,11,-1,-1,0.979,-0.090104167,-0.400520833,1,0,0,2.0733,Pegmatite_rect,6,2.073,1,7,0,7,0,1,,,,,,,,,,,,,
6480bdf6d433e2e158870605,TCR,2024-06-20_16h32.16.268,LearnStrategy,2023.2.3,Win32,60.60606061,7,1,9,-0.030208333,-0.0171875,1,0,0,1.0612,rock_grid_rect_2,4,16,-1,-1,1.061,0.3890625,-0.253645833,1,0,0,1.8074,Gabbro_rect,4,1.807,1,8,0,8,0,1,,,,,,,,,,,,,
6480bdf6d433e2e158870605,TCR,2024-06-20_16h32.16.268,LearnStrategy,2023.2.3,Win32,60.60606061,7,1,10,-0.041145833,-0.016145833,1,0,0,0.9632,rock_grid_rect_2,2,08,-1,-1,0.963,-0.145833333,-0.252604167,1,0,0,1.6107,Basalt_rect,2,1.611,1,9,0,9,0,1,,,,,,,,,,,,,
6480bdf6d433e2e158870605,TCR,2024-06-20_16h32.16.268,LearnStrategy,2023.2.3,Win32,60.60606061,7,1,11,0.0390625,-0.005729167,1,0,0,1.1902,rock_grid_rect_2,4,10,-1,-1,1.19,0.3046875,-0.2546875,1,0,0,3.4612,Gabbro_rect,4,3.461,1,10,0,10,0,1,,,,,,,,,,,,,
6480bdf6d433e2e158870605,TCR,2024-06-20_16h32.16.268,LearnStrategy,2023.2.3,Win32,60.60606061,7,1,12,-0.0828125,-0.009375,1,0,0,1.1229,rock_grid_rect_2,8,04,-1,-1,1.123,0.383854167,-0.3796875,1,0,0,1.1004,Pumice_rect,8,1.1,1,11,0,11,0,1,,,,,,,,,,,,,
6480bdf6d433e2e158870605,TCR,2024-06-20_16h32.16.268,LearnStrategy,2023.2.3,Win32,60.60606061,7,1,13,0.05,-0.001041667,1,0,0,0.9901,rock_grid_rect_2,7,14,-1,-1,0.99,0.139583333,-0.4078125,1,0,0,1.1292,Peridotite_rect,7,1.129,1,12,0,12,0,1,,,,,,,,,,,,,
6480bdf6d433e2e158870605,TCR,2024-06-20_16h32.16.268,LearnStrategy,2023.2.3,Win32,60.60606061,7,1,14,0.00625,-0.002604167,1,0,0,1.0558,rock_grid_rect_2,2,10,-1,-1,1.056,-0.102083333,-0.248958333,1,0,0,1.6765,Basalt_rect,2,1.677,1,13,0,13,0,1,,,,,,,,,,,,,
6480bdf6d433e2e158870605,TCR,2024-06-20_16h32.16.268,LearnStrategy,2023.2.3,Win32,60.60606061,7,1,15,0.0140625,-0.001041667,1,0,0,1.3733,rock_grid_rect_2,7,05,-1,-1,1.373,0.098958333,-0.381770833,1,0,0,1.2813,Peridotite_rect,7,1.281,1,14,0,14,0,1,,,,,,,,,,,,,
6480bdf6d433e2e158870605,TCR,2024-06-20_16h32.16.268,LearnStrategy,2023.2.3,Win32,60.60606061,7,1,16,-0.021354167,0.001041667,1,0,0,0.9464,rock_grid_rect_2,2,02,-1,-1,0.946,0.409375,-0.2671875,1,0,0,3.0231,Gabbro_rect,4,3.023,0,15,0,15,0,1,,,,,,,,,,,,,
6480bdf6d433e2e158870605,TCR,2024-06-20_16h32.16.268,LearnStrategy,2023.2.3,Win32,60.60606061,7,2,1,,,,,,,,7,04,,,,,,,,,,,6,19.636,0,,,,,,-0.1359375,-0.391666667,1,0,0,19.636,Pegmatite_rect,0,0,0,0,1,
6480bdf6d433e2e158870605,TCR,2024-06-20_16h32.16.268,LearnStrategy,2023.2.3,Win32,60.60606061,7,2,2,,,,,,,,7,10,,,,,,,,,,,7,1.224,1,,,,,,0.1859375,-0.4171875,1,0,0,1.2242,Peridotite_rect,1,0,1,0,1,
6480bdf6d433e2e158870605,TCR,2024-06-20_16h32.16.268,LearnStrategy,2023.2.3,Win32,60.60606061,7,2,3,,,,,,,,3,11,,,,,,,,,,,3,6.528,1,,,,,,0.130729167,-0.258854167,1,0,0,6.528,Diorite_rect,2,0,2,0,1,
6480bdf6d433e2e158870605,TCR,2024-06-20_16h32.16.268,LearnStrategy,2023.2.3,Win32,60.60606061,7,2,4,,,,,,,,5,14,,,,,,,,,,,5,1.597,1,,,,,,-0.404166667,-0.407291667,1,0,0,1.5969,Obsidian_rect,3,0,3,0,1,
6480bdf6d433e2e158870605,TCR,2024-06-20_16h32.16.268,LearnStrategy,2023.2.3,Win32,60.60606061,7,2,5,,,,,,,,1,10,,,,,,,,,,,1,3.378,1,,,,,,-0.414583333,-0.263541667,1,0,0,3.3775,Andesite_rect,4,0,4,0,1,
6480bdf6d433e2e158870605,TCR,2024-06-20_16h32.16.268,LearnStrategy,2023.2.3,Win32,60.60606061,7,2,6,,,,,,,,3,13,,,,,,,,,,,3,4.812,1,,,,,,0.106770833,-0.261979167,1,0,0,4.8123,Diorite_rect,5,0,5,0,1,
6480bdf6d433e2e158870605,TCR,2024-06-20_16h32.16.268,LearnStrategy,2023.2.3,Win32,60.60606061,7,2,7,,,,,,,,1,07,,,,,,,,,,,1,3.872,1,,,,,,-0.345833333,-0.256770833,1,0,0,3.8723,Andesite_rect,6,0,6,0,1,
6480bdf6d433e2e158870605,TCR,2024-06-20_16h32.16.268,LearnStrategy,2023.2.3,Win32,60.60606061,7,2,8,,,,,,,,6,07,,,,,,,,,,,6,1.364,1,,,,,,-0.185416667,-0.385416667,1,0,0,1.3642,Pegmatite_rect,7,0,7,0,1,
6480bdf6d433e2e158870605,TCR,2024-06-20_16h32.16.268,LearnStrategy,2023.2.3,Win32,60.60606061,7,2,9,,,,,,,,5,08,,,,,,,,,,,5,1.328,1,,,,,,-0.398958333,-0.4078125,1,0,0,1.3277,Obsidian_rect,8,0,8,0,1,
6480bdf6d433e2e158870605,TCR,2024-06-20_16h32.16.268,LearnStrategy,2023.2.3,Win32,60.60606061,7,2,10,,,,,,,,6,05,,,,,,,,,,,6,1.812,1,,,,,,-0.1796875,-0.394791667,1,0,0,1.8117,Pegmatite_rect,9,0,9,0,1,
6480bdf6d433e2e158870605,TCR,2024-06-20_16h32.16.268,LearnStrategy,2023.2.3,Win32,60.60606061,7,2,11,,,,,,,,8,13,,,,,,,,,,,8,1.507,1,,,,,,0.399479167,-0.39375,1,0,0,1.507,Pumice_rect,10,0,10,0,1,
6480bdf6d433e2e158870605,TCR,2024-06-20_16h32.16.268,LearnStrategy,2023.2.3,Win32,60.60606061,7,2,12,,,,,,,,2,06,,,,,,,,,,,2,1.871,1,,,,,,-0.104166667,-0.238020833,1,0,0,1.8712,Basalt_rect,11,0,11,0,1,
6480bdf6d433e2e158870605,TCR,2024-06-20_16h32.16.268,LearnStrategy,2023.2.3,Win32,60.60606061,7,2,13,,,,,,,,2,12,,,,,,,,,,,8,2.625,0,,,,,,0.475,-0.41875,1,0,0,2.6247,Pumice_rect,12,0,12,0,1,
6480bdf6d433e2e158870605,TCR,2024-06-20_16h32.16.268,LearnStrategy,2023.2.3,Win32,60.60606061,7,2,14,,,,,,,,8,15,,,,,,,,,,,8,1.104,1,,,,,,0.4703125,-0.41875,1,0,0,1.1039,Pumice_rect,13,0,13,0,1,
6480bdf6d433e2e158870605,TCR,2024-06-20_16h32.16.268,LearnStrategy,2023.2.3,Win32,60.60606061,7,2,15,,,,,,,,4,08,,,,,,,,,,,4,1.563,1,,,,,,0.440104167,-0.257291667,1,0,0,1.5625,Gabbro_rect,14,0,14,0,1,
6480bdf6d433e2e158870605,TCR,2024-06-20_16h32.16.268,LearnStrategy,2023.2.3,Win32,60.60606061,7,2,16,,,,,,,,4,15,,,,,,,,,,,1,42.848,0,,,,,,-0.445833333,-0.266145833,1,0,0,42.8475,Andesite_rect,15,0,15,0,1,
6480bdf6d433e2e158870605,TCR,2024-06-20_16h32.16.268,LearnStrategy,2023.2.3,Win32,60.60606061,8,1,1,0.0140625,-0.006770833,1,0,0,2.3016,rock_grid_rect_2,7,14,-1,-1,2.302,0.091666667,-0.399479167,1,0,0,1.1899,Peridotite_rect,7,1.19,1,0,0,0,0,1,,,,,,,,,,,,,
6480bdf6d433e2e158870605,TCR,2024-06-20_16h32.16.268,LearnStrategy,2023.2.3,Win32,60.60606061,8,1,2,-0.0234375,0.016666667,1,0,0,1.779,rock_grid_rect_2,7,14,-1,-1,1.779,0.097916667,-0.4,1,0,0,1.1291,Peridotite_rect,7,1.129,1,1,0,1,0,1,,,,,,,,,,,,,
6480bdf6d433e2e158870605,TCR,2024-06-20_16h32.16.268,LearnStrategy,2023.2.3,Win32,60.60606061,8,1,3,0.023958333,-0.005208333,1,0,0,0.9126,rock_grid_rect_2,8,08,-1,-1,0.913,0.345833333,-0.393229167,1,0,0,1.2882,Pumice_rect,8,1.288,1,2,0,2,0,1,,,,,,,,,,,,,
6480bdf6d433e2e158870605,TCR,2024-06-20_16h32.16.268,LearnStrategy,2023.2.3,Win32,60.60606061,8,1,4,-0.004166667,0.005208333,1,0,0,1.2204,rock_grid_rect_2,4,12,-1,-1,1.22,0.384895833,-0.238541667,1,0,0,1.4995,Gabbro_rect,4,1.499,1,3,0,3,0,1,,,,,,,,,,,,,
6480bdf6d433e2e158870605,TCR,2024-06-20_16h32.16.268,LearnStrategy,2023.2.3,Win32,60.60606061,8,1,5,-0.017708333,-0.0015625,1,0,0,1.0294,rock_grid_rect_2,6,11,-1,-1,1.029,-0.134895833,-0.388020833,1,0,0,1.1813,Pegmatite_rect,6,1.181,1,4,0,4,0,1,,,,,,,,,,,,,
6480bdf6d433e2e158870605,TCR,2024-06-20_16h32.16.268,LearnStrategy,2023.2.3,Win32,60.60606061,8,1,6,-0.0265625,-0.0015625,1,0,0,0.7965,rock_grid_rect_2,3,14,-1,-1,0.796,0.102604167,-0.263541667,1,0,0,3.8217,Diorite_rect,3,3.822,1,5,0,5,0,1,,,,,,,,,,,,,
6480bdf6d433e2e158870605,TCR,2024-06-20_16h32.16.268,LearnStrategy,2023.2.3,Win32,60.60606061,8,1,7,-0.008854167,-0.0046875,1,0,0,1.0728,rock_grid_rect_2,2,02,-1,-1,1.073,-0.108333333,-0.2515625,1,0,0,6.3566,Basalt_rect,2,6.357,1,6,0,6,0,1,,,,,,,,,,,,,
6480bdf6d433e2e158870605,TCR,2024-06-20_16h32.16.268,LearnStrategy,2023.2.3,Win32,60.60606061,8,1,8,-0.039583333,-0.011979167,1,0,0,1.2608,rock_grid_rect_2,2,10,-1,-1,1.261,-0.15,-0.245833333,1,0,0,1.3749,Basalt_rect,2,1.375,1,7,0,7,0,1,,,,,,,,,,,,,
6480bdf6d433e2e158870605,TCR,2024-06-20_16h32.16.268,LearnStrategy,2023.2.3,Win32,60.60606061,8,1,9,-0.000520833,0.0015625,1,0,0,1.0464,rock_grid_rect_2,2,10,-1,-1,1.046,-0.13125,-0.234895833,1,0,0,1.2277,Basalt_rect,2,1.228,1,8,0,8,0,1,,,,,,,,,,,,,
6480bdf6d433e2e158870605,TCR,2024-06-20_16h32.16.268,LearnStrategy,2023.2.3,Win32,60.60606061,8,1,10,-0.003645833,-0.008333333,1,0,0,0.963,rock_grid_rect_2,7,13,-1,-1,0.963,0.086979167,-0.403125,1,0,0,1.0905,Peridotite_rect,7,1.091,1,9,0,9,0,1,,,,,,,,,,,,,
6480bdf6d433e2e158870605,TCR,2024-06-20_16h32.16.268,LearnStrategy,2023.2.3,Win32,60.60606061,8,1,11,-0.019270833,-0.011979167,1,0,0,0.9517,rock_grid_rect_2,2,05,-1,-1,0.952,-0.142708333,-0.26875,1,0,0,3.465,Basalt_rect,2,3.465,1,10,0,10,0,1,,,,,,,,,,,,,
6480bdf6d433e2e158870605,TCR,2024-06-20_16h32.16.268,LearnStrategy,2023.2.3,Win32,60.60606061,8,1,12,0.016666667,0.008854167,1,0,0,1.1441,rock_grid_rect_2,4,14,-1,-1,1.144,0.452604167,-0.257291667,1,0,0,1.5502,Gabbro_rect,4,1.55,1,11,0,11,0,1,,,,,,,,,,,,,
6480bdf6d433e2e158870605,TCR,2024-06-20_16h32.16.268,LearnStrategy,2023.2.3,Win32,60.60606061,8,1,13,-0.000520833,0.001041667,1,0,0,0.8978,rock_grid_rect_2,4,11,-1,-1,0.898,0.366666667,-0.2390625,1,0,0,2.4685,Gabbro_rect,4,2.468,1,12,0,12,0,1,,,,,,,,,,,,,
6480bdf6d433e2e158870605,TCR,2024-06-20_16h32.16.268,LearnStrategy,2023.2.3,Win32,60.60606061,8,1,14,-0.022916667,-0.007291667,1,0,0,0.8402,rock_grid_rect_2,4,10,-1,-1,0.84,0.369791667,-0.258333333,1,0,0,1.5788,Gabbro_rect,4,1.579,1,13,0,13,0,1,,,,,,,,,,,,,
6480bdf6d433e2e158870605,TCR,2024-06-20_16h32.16.268,LearnStrategy,2023.2.3,Win32,60.60606061,8,1,15,-0.030729167,-0.009895833,1,0,0,0.979,rock_grid_rect_2,1,14,-1,-1,0.979,-0.105729167,-0.392708333,1,0,0,6.5808,Pegmatite_rect,6,6.581,0,14,0,14,0,1,,,,,,,,,,,,,
6480bdf6d433e2e158870605,TCR,2024-06-20_16h32.16.268,LearnStrategy,2023.2.3,Win32,60.60606061,8,1,16,-0.016145833,-0.000520833,1,0,0,0.9733,rock_grid_rect_2,5,02,-1,-1,0.973,-0.363020833,-0.386979167,1,0,0,1.0938,Obsidian_rect,5,1.094,1,15,0,15,0,1,,,,,,,,,,,,,
6480bdf6d433e2e158870605,TCR,2024-06-20_16h32.16.268,LearnStrategy,2023.2.3,Win32,60.60606061,8,2,1,,,,,,,,8,02,,,,,,,,,,,8,1.094,1,,,,,,0.365104167,-0.411979167,1,0,0,1.0935,Pumice_rect,0,0,0,0,1,
6480bdf6d433e2e158870605,TCR,2024-06-20_16h32.16.268,LearnStrategy,2023.2.3,Win32,60.60606061,8,2,2,,,,,,,,6,06,,,,,,,,,,,6,2.062,1,,,,,,-0.072916667,-0.4171875,1,0,0,2.0621,Pegmatite_rect,1,0,1,0,1,
6480bdf6d433e2e158870605,TCR,2024-06-20_16h32.16.268,LearnStrategy,2023.2.3,Win32,60.60606061,8,2,3,,,,,,,,5,05,,,,,,,,,,,5,1.252,1,,,,,,-0.322395833,-0.410416667,1,0,0,1.2518,Obsidian_rect,2,0,2,0,1,
6480bdf6d433e2e158870605,TCR,2024-06-20_16h32.16.268,LearnStrategy,2023.2.3,Win32,60.60606061,8,2,4,,,,,,,,4,01,,,,,,,,,,,7,11.251,0,,,,,,0.180729167,-0.391666667,1,0,0,11.251,Peridotite_rect,3,0,3,0,1,
6480bdf6d433e2e158870605,TCR,2024-06-20_16h32.16.268,LearnStrategy,2023.2.3,Win32,60.60606061,8,2,5,,,,,,,,3,12,,,,,,,,,,,7,7.253,0,,,,,,0.1390625,-0.41875,1,0,0,7.2528,Peridotite_rect,4,0,4,0,1,
6480bdf6d433e2e158870605,TCR,2024-06-20_16h32.16.268,LearnStrategy,2023.2.3,Win32,60.60606061,8,2,6,,,,,,,,7,15,,,,,,,,,,,7,1.068,1,,,,,,0.138020833,-0.4,1,0,0,1.0682,Peridotite_rect,5,0,5,0,1,
6480bdf6d433e2e158870605,TCR,2024-06-20_16h32.16.268,LearnStrategy,2023.2.3,Win32,60.60606061,8,2,7,,,,,,,,2,14,,,,,,,,,,,8,2.6,0,,,,,,0.354166667,-0.406770833,1,0,0,2.5997,Pumice_rect,6,0,6,0,1,
6480bdf6d433e2e158870605,TCR,2024-06-20_16h32.16.268,LearnStrategy,2023.2.3,Win32,60.60606061,8,2,8,,,,,,,,2,04,,,,,,,,,,,2,2.511,1,,,,,,-0.144270833,-0.248958333,1,0,0,2.5113,Basalt_rect,7,0,7,0,1,
6480bdf6d433e2e158870605,TCR,2024-06-20_16h32.16.268,LearnStrategy,2023.2.3,Win32,60.60606061,8,2,9,,,,,,,,6,09,,,,,,,,,,,6,1.898,1,,,,,,-0.1859375,-0.390104167,1,0,0,1.8975,Pegmatite_rect,8,0,8,0,1,
6480bdf6d433e2e158870605,TCR,2024-06-20_16h32.16.268,LearnStrategy,2023.2.3,Win32,60.60606061,8,2,10,,,,,,,,4,03,,,,,,,,,,,4,14.046,1,,,,,,0.3765625,-0.2609375,1,0,0,14.0465,Gabbro_rect,9,0,9,0,1,
6480bdf6d433e2e158870605,TCR,2024-06-20_16h32.16.268,LearnStrategy,2023.2.3,Win32,60.60606061,8,2,11,,,,,,,,1,03,,,,,,,,,,,1,14.689,1,,,,,,-0.421875,-0.230729167,1,0,0,14.6892,Andesite_rect,10,0,10,0,1,
6480bdf6d433e2e158870605,TCR,2024-06-20_16h32.16.268,LearnStrategy,2023.2.3,Win32,60.60606061,8,2,12,,,,,,,,8,03,,,,,,,,,,,8,3.637,1,,,,,,0.375520833,-0.3953125,1,0,0,3.6367,Pumice_rect,11,0,11,0,1,
6480bdf6d433e2e158870605,TCR,2024-06-20_16h32.16.268,LearnStrategy,2023.2.3,Win32,60.60606061,8,2,13,,,,,,,,3,02,,,,,,,,,,,3,2.427,1,,,,,,0.1515625,-0.259375,1,0,0,2.4269,Diorite_rect,12,0,12,0,1,
6480bdf6d433e2e158870605,TCR,2024-06-20_16h32.16.268,LearnStrategy,2023.2.3,Win32,60.60606061,8,2,14,,,,,,,,7,16,,,,,,,,,,,7,3.057,1,,,,,,0.153645833,-0.399479167,1,0,0,3.0575,Peridotite_rect,13,0,13,0,1,
6480bdf6d433e2e158870605,TCR,2024-06-20_16h32.16.268,LearnStrategy,2023.2.3,Win32,60.60606061,8,2,15,,,,,,,,5,10,,,,,,,,,,,5,1.292,1,,,,,,-0.3328125,-0.389583333,1,0,0,1.2919,Obsidian_rect,14,0,14,0,1,
6480bdf6d433e2e158870605,TCR,2024-06-20_16h32.16.268,LearnStrategy,2023.2.3,Win32,60.60606061,8,2,16,,,,,,,,1,01,,,,,,,,,,,1,46.938,1,,,,,,-0.35625,-0.257291667,1,0,0,46.9381,Andesite_rect,15,0,15,0,1,
6480bdf6d433e2e158870605,TCR,2024-06-20_16h32.16.268,LearnStrategy,2023.2.3,Win32,60.60606061,9,1,1,-0.121875,0.021875,1,0,0,1.5066,rock_grid_rect_2,4,16,-1,-1,1.507,0.384895833,-0.241666667,1,0,0,3.4715,Gabbro_rect,4,3.472,1,0,0,0,0,1,,,,,,,,,,,,,
6480bdf6d433e2e158870605,TCR,2024-06-20_16h32.16.268,LearnStrategy,2023.2.3,Win32,60.60606061,9,1,2,0.0421875,0.00625,1,0,0,1.2715,rock_grid_rect_2,2,10,-1,-1,1.271,-0.102604167,-0.254166667,1,0,0,1.5354,Basalt_rect,2,1.535,1,1,0,1,0,1,,,,,,,,,,,,,
6480bdf6d433e2e158870605,TCR,2024-06-20_16h32.16.268,LearnStrategy,2023.2.3,Win32,60.60606061,9,1,3,0.0265625,-0.002083333,1,0,0,0.9798,rock_grid_rect_2,8,05,-1,-1,0.98,0.380208333,-0.400520833,1,0,0,1.2071,Pumice_rect,8,1.207,1,2,0,2,0,1,,,,,,,,,,,,,
6480bdf6d433e2e158870605,TCR,2024-06-20_16h32.16.268,LearnStrategy,2023.2.3,Win32,60.60606061,9,1,4,-0.0125,0.004166667,1,0,0,0.8962,rock_grid_rect_2,4,09,-1,-1,0.896,0.3671875,-0.236979167,1,0,0,4.5368,Gabbro_rect,4,4.537,1,3,0,3,0,1,,,,,,,,,,,,,
6480bdf6d433e2e158870605,TCR,2024-06-20_16h32.16.268,LearnStrategy,2023.2.3,Win32,60.60606061,9,1,5,-0.032291667,0.001041667,1,0,0,1.3724,rock_grid_rect_2,2,02,-1,-1,1.372,-0.1640625,-0.261458333,1,0,0,8.8571,Basalt_rect,2,8.857,1,4,0,4,0,1,,,,,,,,,,,,,
6480bdf6d433e2e158870605,TCR,2024-06-20_16h32.16.268,LearnStrategy,2023.2.3,Win32,60.60606061,9,1,6,0.002604167,-0.004166667,1,0,0,0.911,rock_grid_rect_2,2,05,-1,-1,0.911,-0.115625,-0.247916667,1,0,0,2.9286,Basalt_rect,2,2.929,1,5,0,5,0,1,,,,,,,,,,,,,
6480bdf6d433e2e158870605,TCR,2024-06-20_16h32.16.268,LearnStrategy,2023.2.3,Win32,60.60606061,9,1,7,-0.008333333,-0.006770833,1,0,0,1.0109,rock_grid_rect_2,3,14,-1,-1,1.011,0.092708333,-0.236458333,1,0,0,8.3643,Diorite_rect,3,8.364,1,6,0,6,0,1,,,,,,,,,,,,,
6480bdf6d433e2e158870605,TCR,2024-06-20_16h32.16.268,LearnStrategy,2023.2.3,Win32,60.60606061,9,1,8,-0.011979167,0.0078125,1,0,0,0.9449,rock_grid_rect_2,4,12,-1,-1,0.945,0.3484375,-0.250520833,1,0,0,1.8229,Gabbro_rect,4,1.823,1,7,0,7,0,1,,,,,,,,,,,,,
6480bdf6d433e2e158870605,TCR,2024-06-20_16h32.16.268,LearnStrategy,2023.2.3,Win32,60.60606061,9,1,9,-0.0265625,0.000520833,1,0,0,1.1783,rock_grid_rect_2,6,15,-1,-1,1.178,-0.117708333,-0.397916667,1,0,0,1.331,Pegmatite_rect,6,1.331,1,8,0,8,0,1,,,,,,,,,,,,,
6480bdf6d433e2e158870605,TCR,2024-06-20_16h32.16.268,LearnStrategy,2023.2.3,Win32,60.60606061,9,1,10,0.047395833,0.005208333,1,0,0,0.8627,rock_grid_rect_2,4,12,-1,-1,0.863,0.357291667,-0.245833333,1,0,0,2.5884,Gabbro_rect,4,2.588,1,9,0,9,0,1,,,,,,,,,,,,,
6480bdf6d433e2e158870605,TCR,2024-06-20_16h32.16.268,LearnStrategy,2023.2.3,Win32,60.60606061,9,1,11,-0.015625,0.000520833,1,0,0,1.7497,rock_grid_rect_2,3,10,-1,-1,1.75,0.148958333,-0.386458333,1,0,0,5.89,Peridotite_rect,7,5.89,0,10,0,10,0,1,,,,,,,,,,,,,
6480bdf6d433e2e158870605,TCR,2024-06-20_16h32.16.268,LearnStrategy,2023.2.3,Win32,60.60606061,9,1,12,-0.032291667,0.004166667,1,0,0,1.4878,rock_grid_rect_2,5,12,-1,-1,1.488,-0.418229167,-0.416145833,1,0,0,0.9929,Obsidian_rect,5,0.993,1,11,0,11,0,1,,,,,,,,,,,,,
6480bdf6d433e2e158870605,TCR,2024-06-20_16h32.16.268,LearnStrategy,2023.2.3,Win32,60.60606061,9,1,13,0.00625,-0.0015625,1,0,0,1.1626,rock_grid_rect_2,1,14,-1,-1,1.163,-0.1234375,-0.396354167,1,0,0,2.6097,Pegmatite_rect,6,2.61,0,12,0,12,0,1,,,,,,,,,,,,,
6480bdf6d433e2e158870605,TCR,2024-06-20_16h32.16.268,LearnStrategy,2023.2.3,Win32,60.60606061,9,1,14,-0.023958333,-0.0109375,1,0,0,1.0228,rock_grid_rect_2,7,02,-1,-1,1.023,0.138541667,-0.395833333,1,0,0,1.0421,Peridotite_rect,7,1.042,1,13,0,13,0,1,,,,,,,,,,,,,
6480bdf6d433e2e158870605,TCR,2024-06-20_16h32.16.268,LearnStrategy,2023.2.3,Win32,60.60606061,9,1,15,-0.002083333,0.006770833,1,0,0,0.9462,rock_grid_rect_2,7,05,-1,-1,0.946,0.117708333,-0.409375,1,0,0,1.659,Peridotite_rect,7,1.659,1,14,0,14,0,1,,,,,,,,,,,,,
6480bdf6d433e2e158870605,TCR,2024-06-20_16h32.16.268,LearnStrategy,2023.2.3,Win32,60.60606061,9,1,16,-0.0203125,0,1,0,0,0.9468,rock_grid_rect_2,2,02,-1,-1,0.947,-0.117708333,-0.24375,1,0,0,7.0441,Basalt_rect,2,7.044,1,15,0,15,0,1,,,,,,,,,,,,,
6480bdf6d433e2e158870605,TCR,2024-06-20_16h32.16.268,LearnStrategy,2023.2.3,Win32,60.60606061,9,2,1,,,,,,,,8,10,,,,,,,,,,,8,1.078,1,,,,,,0.331770833,-0.4078125,1,0,0,1.0784,Pumice_rect,0,0,0,0,1,
6480bdf6d433e2e158870605,TCR,2024-06-20_16h32.16.268,LearnStrategy,2023.2.3,Win32,60.60606061,9,2,2,,,,,,,,3,16,,,,,,,,,,,3,11.949,1,,,,,,0.083333333,-0.25,1,0,0,11.9492,Diorite_rect,1,0,1,0,1,
6480bdf6d433e2e158870605,TCR,2024-06-20_16h32.16.268,LearnStrategy,2023.2.3,Win32,60.60606061,9,2,3,,,,,,,,6,03,,,,,,,,,,,6,1.609,1,,,,,,-0.117708333,-0.419791667,1,0,0,1.6085,Pegmatite_rect,2,0,2,0,1,
6480bdf6d433e2e158870605,TCR,2024-06-20_16h32.16.268,LearnStrategy,2023.2.3,Win32,60.60606061,9,2,4,,,,,,,,4,05,,,,,,,,,,,1,8.441,0,,,,,,-0.368229167,-0.253125,1,0,0,8.4413,Andesite_rect,3,0,3,0,1,
6480bdf6d433e2e158870605,TCR,2024-06-20_16h32.16.268,LearnStrategy,2023.2.3,Win32,60.60606061,9,2,5,,,,,,,,4,13,,,,,,,,,,,6,9.81,0,,,,,,-0.166145833,-0.403645833,1,0,0,9.8096,Pegmatite_rect,4,0,4,0,1,
6480bdf6d433e2e158870605,TCR,2024-06-20_16h32.16.268,LearnStrategy,2023.2.3,Win32,60.60606061,9,2,6,,,,,,,,2,01,,,,,,,,,,,2,3.439,1,,,,,,-0.136458333,-0.267708333,1,0,0,3.4388,Basalt_rect,5,0,5,0,1,
6480bdf6d433e2e158870605,TCR,2024-06-20_16h32.16.268,LearnStrategy,2023.2.3,Win32,60.60606061,9,2,7,,,,,,,,7,12,,,,,,,,,,,7,1.993,1,,,,,,0.1515625,-0.415625,1,0,0,1.993,Peridotite_rect,6,0,6,0,1,
6480bdf6d433e2e158870605,TCR,2024-06-20_16h32.16.268,LearnStrategy,2023.2.3,Win32,60.60606061,9,2,8,,,,,,,,8,09,,,,,,,,,,,8,2.368,1,,,,,,0.388020833,-0.394791667,1,0,0,2.3682,Pumice_rect,7,0,7,0,1,
6480bdf6d433e2e158870605,TCR,2024-06-20_16h32.16.268,LearnStrategy,2023.2.3,Win32,60.60606061,9,2,9,,,,,,,,5,07,,,,,,,,,,,5,1.411,1,,,,,,-0.38125,-0.391666667,1,0,0,1.411,Obsidian_rect,8,0,8,0,1,
6480bdf6d433e2e158870605,TCR,2024-06-20_16h32.16.268,LearnStrategy,2023.2.3,Win32,60.60606061,9,2,10,,,,,,,,6,08,,,,,,,,,,,6,1.359,1,,,,,,-0.194270833,-0.4171875,1,0,0,1.3591,Pegmatite_rect,9,0,9,0,1,
6480bdf6d433e2e158870605,TCR,2024-06-20_16h32.16.268,LearnStrategy,2023.2.3,Win32,60.60606061,9,2,11,,,,,,,,1,09,,,,,,,,,,,1,7.577,1,,,,,,-0.397395833,-0.2546875,1,0,0,7.5773,Andesite_rect,10,0,10,0,1,
6480bdf6d433e2e158870605,TCR,2024-06-20_16h32.16.268,LearnStrategy,2023.2.3,Win32,60.60606061,9,2,12,,,,,,,,1,02,,,,,,,,,,,3,6.282,0,,,,,,0.116145833,-0.253645833,1,0,0,6.2823,Diorite_rect,11,0,11,0,1,
6480bdf6d433e2e158870605,TCR,2024-06-20_16h32.16.268,LearnStrategy,2023.2.3,Win32,60.60606061,9,2,13,,,,,,,,3,09,,,,,,,,,,,3,1.157,1,,,,,,0.116145833,-0.253645833,1,0,0,1.1573,Diorite_rect,12,0,12,0,1,
6480bdf6d433e2e158870605,TCR,2024-06-20_16h32.16.268,LearnStrategy,2023.2.3,Win32,60.60606061,9,2,14,,,,,,,,5,09,,,,,,,,,,,5,1.282,1,,,,,,-0.402083333,-0.3984375,1,0,0,1.2816,Obsidian_rect,13,0,13,0,1,
6480bdf6d433e2e158870605,TCR,2024-06-20_16h32.16.268,LearnStrategy,2023.2.3,Win32,60.60606061,9,2,15,,,,,,,,7,07,,,,,,,,,,,7,1.344,1,,,,,,0.122916667,-0.403645833,1,0,0,1.3442,Peridotite_rect,14,0,14,0,1,
6480bdf6d433e2e158870605,TCR,2024-06-20_16h32.16.268,LearnStrategy,2023.2.3,Win32,60.60606061,9,2,16,,,,,,,,2,11,,,,,,,,,,,8,3.09,0,,,,,,0.393229167,-0.380208333,1,0,0,3.0896,Pumice_rect,15,0,15,0,1,
6480bdf6d433e2e158870605,TCR,2024-06-20_16h32.16.268,LearnStrategy,2023.2.3,Win32,60.60606061,,,,,,,,,,,,,,,,,,,,,,,,,,,,,,,,,,,,,,,,,,,1
6480bdf6d433e2e158870605,TCR,2024-06-20_16h32.16.268,LearnStrategy,2023.2.3,Win32,60.60606061,,,,,,,,,,,,,,,,,,,,,,,,,,,,,,,,,,,,,,,,,,,
6480bdf6d433e2e158870605,TCR,2024-06-20_16h32.16.268,LearnStrategy,2023.2.3,Win32,60.60606061,,,,,,,,,,,6,13,1,1,,,,,,,,,,,,,,,,,,,,,,,,,,,,,
6480bdf6d433e2e158870605,TCR,2024-06-20_16h32.16.268,LearnStrategy,2023.2.3,Win32,60.60606061,,,,,,,,,,,7,13,1,2,,,,,,,,,,,,,,,,,,,,,,,,,,,,,
6480bdf6d433e2e158870605,TCR,2024-06-20_16h32.16.268,LearnStrategy,2023.2.3,Win32,60.60606061,,,,,,,,,,,2,05,1,3,,,,,,,,,,,,,,,,,,,,,,,,,,,,,
6480bdf6d433e2e158870605,TCR,2024-06-20_16h32.16.268,LearnStrategy,2023.2.3,Win32,60.60606061,,,,,,,,,,,8,05,1,4,,,,,,,,,,,,,,,,,,,,,,,,,,,,,
6480bdf6d433e2e158870605,TCR,2024-06-20_16h32.16.268,LearnStrategy,2023.2.3,Win32,60.60606061,,,,,,,,,,,5,11,1,5,,,,,,,,,,,,,,,,,,,,,,,,,,,,,
6480bdf6d433e2e158870605,TCR,2024-06-20_16h32.16.268,LearnStrategy,2023.2.3,Win32,60.60606061,,,,,,,,,,,6,15,1,6,,,,,,,,,,,,,,,,,,,,,,,,,,,,,
6480bdf6d433e2e158870605,TCR,2024-06-20_16h32.16.268,LearnStrategy,2023.2.3,Win32,60.60606061,,,,,,,,,,,5,06,1,7,,,,,,,,,,,,,,,,,,,,,,,,,,,,,
6480bdf6d433e2e158870605,TCR,2024-06-20_16h32.16.268,LearnStrategy,2023.2.3,Win32,60.60606061,,,,,,,,,,,7,08,1,8,,,,,,,,,,,,,,,,,,,,,,,,,,,,,
6480bdf6d433e2e158870605,TCR,2024-06-20_16h32.16.268,LearnStrategy,2023.2.3,Win32,60.60606061,,,,,,,,,,,4,09,2,1,,,,,,,,,,,,,,,,,,,,,,,,,,,,,
6480bdf6d433e2e158870605,TCR,2024-06-20_16h32.16.268,LearnStrategy,2023.2.3,Win32,60.60606061,,,,,,,,,,,2,16,2,2,,,,,,,,,,,,,,,,,,,,,,,,,,,,,
6480bdf6d433e2e158870605,TCR,2024-06-20_16h32.16.268,LearnStrategy,2023.2.3,Win32,60.60606061,,,,,,,,,,,8,16,2,3,,,,,,,,,,,,,,,,,,,,,,,,,,,,,
6480bdf6d433e2e158870605,TCR,2024-06-20_16h32.16.268,LearnStrategy,2023.2.3,Win32,60.60606061,,,,,,,,,,,4,11,2,4,,,,,,,,,,,,,,,,,,,,,,,,,,,,,
6480bdf6d433e2e158870605,TCR,2024-06-20_16h32.16.268,LearnStrategy,2023.2.3,Win32,60.60606061,,,,,,,,,,,6,12,2,5,,,,,,,,,,,,,,,,,,,,,,,,,,,,,
6480bdf6d433e2e158870605,TCR,2024-06-20_16h32.16.268,LearnStrategy,2023.2.3,Win32,60.60606061,,,,,,,,,,,7,14,2,6,,,,,,,,,,,,,,,,,,,,,,,,,,,,,
6480bdf6d433e2e158870605,TCR,2024-06-20_16h32.16.268,LearnStrategy,2023.2.3,Win32,60.60606061,,,,,,,,,,,2,08,2,7,,,,,,,,,,,,,,,,,,,,,,,,,,,,,
6480bdf6d433e2e158870605,TCR,2024-06-20_16h32.16.268,LearnStrategy,2023.2.3,Win32,60.60606061,,,,,,,,,,,5,02,2,8,,,,,,,,,,,,,,,,,,,,,,,,,,,,,
6480bdf6d433e2e158870605,TCR,2024-06-20_16h32.16.268,LearnStrategy,2023.2.3,Win32,60.60606061,,,,,,,,,,,7,06,3,1,,,,,,,,,,,,,,,,,,,,,,,,,,,,,
6480bdf6d433e2e158870605,TCR,2024-06-20_16h32.16.268,LearnStrategy,2023.2.3,Win32,60.60606061,,,,,,,,,,,3,15,3,2,,,,,,,,,,,,,,,,,,,,,,,,,,,,,
6480bdf6d433e2e158870605,TCR,2024-06-20_16h32.16.268,LearnStrategy,2023.2.3,Win32,60.60606061,,,,,,,,,,,3,08,3,3,,,,,,,,,,,,,,,,,,,,,,,,,,,,,
6480bdf6d433e2e158870605,TCR,2024-06-20_16h32.16.268,LearnStrategy,2023.2.3,Win32,60.60606061,,,,,,,,,,,5,12,3,4,,,,,,,,,,,,,,,,,,,,,,,,,,,,,
6480bdf6d433e2e158870605,TCR,2024-06-20_16h32.16.268,LearnStrategy,2023.2.3,Win32,60.60606061,,,,,,,,,,,4,14,3,5,,,,,,,,,,,,,,,,,,,,,,,,,,,,,
6480bdf6d433e2e158870605,TCR,2024-06-20_16h32.16.268,LearnStrategy,2023.2.3,Win32,60.60606061,,,,,,,,,,,5,16,3,6,,,,,,,,,,,,,,,,,,,,,,,,,,,,,
6480bdf6d433e2e158870605,TCR,2024-06-20_16h32.16.268,LearnStrategy,2023.2.3,Win32,60.60606061,,,,,,,,,,,3,06,3,7,,,,,,,,,,,,,,,,,,,,,,,,,,,,,
6480bdf6d433e2e158870605,TCR,2024-06-20_16h32.16.268,LearnStrategy,2023.2.3,Win32,60.60606061,,,,,,,,,,,1,06,3,8,,,,,,,,,,,,,,,,,,,,,,,,,,,,,
6480bdf6d433e2e158870605,TCR,2024-06-20_16h32.16.268,LearnStrategy,2023.2.3,Win32,60.60606061,,,,,,,,,,,7,02,4,1,,,,,,,,,,,,,,,,,,,,,,,,,,,,,
6480bdf6d433e2e158870605,TCR,2024-06-20_16h32.16.268,LearnStrategy,2023.2.3,Win32,60.60606061,,,,,,,,,,,1,04,4,2,,,,,,,,,,,,,,,,,,,,,,,,,,,,,
6480bdf6d433e2e158870605,TCR,2024-06-20_16h32.16.268,LearnStrategy,2023.2.3,Win32,60.60606061,,,,,,,,,,,6,16,4,3,,,,,,,,,,,,,,,,,,,,,,,,,,,,,
6480bdf6d433e2e158870605,TCR,2024-06-20_16h32.16.268,LearnStrategy,2023.2.3,Win32,60.60606061,,,,,,,,,,,8,06,4,4,,,,,,,,,,,,,,,,,,,,,,,,,,,,,
6480bdf6d433e2e158870605,TCR,2024-06-20_16h32.16.268,LearnStrategy,2023.2.3,Win32,60.60606061,,,,,,,,,,,2,02,4,5,,,,,,,,,,,,,,,,,,,,,,,,,,,,,
6480bdf6d433e2e158870605,TCR,2024-06-20_16h32.16.268,LearnStrategy,2023.2.3,Win32,60.60606061,,,,,,,,,,,4,16,4,6,,,,,,,,,,,,,,,,,,,,,,,,,,,,,
6480bdf6d433e2e158870605,TCR,2024-06-20_16h32.16.268,LearnStrategy,2023.2.3,Win32,60.60606061,,,,,,,,,,,8,14,4,7,,,,,,,,,,,,,,,,,,,,,,,,,,,,,
6480bdf6d433e2e158870605,TCR,2024-06-20_16h32.16.268,LearnStrategy,2023.2.3,Win32,60.60606061,,,,,,,,,,,1,16,4,8,,,,,,,,,,,,,,,,,,,,,,,,,,,,,
6480bdf6d433e2e158870605,TCR,2024-06-20_16h32.16.268,LearnStrategy,2023.2.3,Win32,60.60606061,,,,,,,,,,,7,05,5,1,,,,,,,,,,,,,,,,,,,,,,,,,,,,,
6480bdf6d433e2e158870605,TCR,2024-06-20_16h32.16.268,LearnStrategy,2023.2.3,Win32,60.60606061,,,,,,,,,,,8,04,5,2,,,,,,,,,,,,,,,,,,,,,,,,,,,,,
6480bdf6d433e2e158870605,TCR,2024-06-20_16h32.16.268,LearnStrategy,2023.2.3,Win32,60.60606061,,,,,,,,,,,3,10,5,3,,,,,,,,,,,,,,,,,,,,,,,,,,,,,
6480bdf6d433e2e158870605,TCR,2024-06-20_16h32.16.268,LearnStrategy,2023.2.3,Win32,60.60606061,,,,,,,,,,,2,09,5,4,,,,,,,,,,,,,,,,,,,,,,,,,,,,,
6480bdf6d433e2e158870605,TCR,2024-06-20_16h32.16.268,LearnStrategy,2023.2.3,Win32,60.60606061,,,,,,,,,,,1,11,5,5,,,,,,,,,,,,,,,,,,,,,,,,,,,,,
6480bdf6d433e2e158870605,TCR,2024-06-20_16h32.16.268,LearnStrategy,2023.2.3,Win32,60.60606061,,,,,,,,,,,1,14,5,6,,,,,,,,,,,,,,,,,,,,,,,,,,,,,
6480bdf6d433e2e158870605,TCR,2024-06-20_16h32.16.268,LearnStrategy,2023.2.3,Win32,60.60606061,,,,,,,,,,,8,08,5,7,,,,,,,,,,,,,,,,,,,,,,,,,,,,,
6480bdf6d433e2e158870605,TCR,2024-06-20_16h32.16.268,LearnStrategy,2023.2.3,Win32,60.60606061,,,,,,,,,,,6,10,5,8,,,,,,,,,,,,,,,,,,,,,,,,,,,,,
6480bdf6d433e2e158870605,TCR,2024-06-20_16h32.16.268,LearnStrategy,2023.2.3,Win32,60.60606061,,,,,,,,,,,3,14,6,1,,,,,,,,,,,,,,,,,,,,,,,,,,,,,
6480bdf6d433e2e158870605,TCR,2024-06-20_16h32.16.268,LearnStrategy,2023.2.3,Win32,60.60606061,,,,,,,,,,,3,07,6,2,,,,,,,,,,,,,,,,,,,,,,,,,,,,,
6480bdf6d433e2e158870605,TCR,2024-06-20_16h32.16.268,LearnStrategy,2023.2.3,Win32,60.60606061,,,,,,,,,,,1,05,6,3,,,,,,,,,,,,,,,,,,,,,,,,,,,,,
6480bdf6d433e2e158870605,TCR,2024-06-20_16h32.16.268,LearnStrategy,2023.2.3,Win32,60.60606061,,,,,,,,,,,5,04,6,4,,,,,,,,,,,,,,,,,,,,,,,,,,,,,
6480bdf6d433e2e158870605,TCR,2024-06-20_16h32.16.268,LearnStrategy,2023.2.3,Win32,60.60606061,,,,,,,,,,,6,11,6,5,,,,,,,,,,,,,,,,,,,,,,,,,,,,,
6480bdf6d433e2e158870605,TCR,2024-06-20_16h32.16.268,LearnStrategy,2023.2.3,Win32,60.60606061,,,,,,,,,,,2,10,6,6,,,,,,,,,,,,,,,,,,,,,,,,,,,,,
6480bdf6d433e2e158870605,TCR,2024-06-20_16h32.16.268,LearnStrategy,2023.2.3,Win32,60.60606061,,,,,,,,,,,4,12,6,7,,,,,,,,,,,,,,,,,,,,,,,,,,,,,
6480bdf6d433e2e158870605,TCR,2024-06-20_16h32.16.268,LearnStrategy,2023.2.3,Win32,60.60606061,,,,,,,,,,,4,10,6,8,,,,,,,,,,,,,,,,,,,,,,,,,,,,,