participant,condition,date,expName,psychopyVersion,OS,frameRate,block,phase,trial,learn_mouse_2.x,learn_mouse_2.y,learn_mouse_2.leftButton,learn_mouse_2.midButton,learn_mouse_2.rightButton,learn_mouse_2.time,learn_mouse_2.clicked_name,cat,token,row,col,t_select,cat_mouse_l.x,cat_mouse_l.y,cat_mouse_l.leftButton,cat_mouse_l.midButton,cat_mouse_l.rightButton,cat_mouse_l.time,cat_mouse_l.clicked_name,resp,t_resp,corr,train_trials.thisRepN,train_trials.thisTrialN,train_trials.thisN,train_trials.thisIndex,train_trials.ran,cat_mouse_t.x,cat_mouse_t.y,cat_mouse_t.leftButton,cat_mouse_t.midButton,cat_mouse_t.rightButton,cat_mouse_t.time,cat_mouse_t.clicked_name,test_trials.thisRepN,test_trials.thisTrialN,test_trials.thisN,test_trials.thisIndex,test_trials.ran,Bonus
64d523f4ad7f5e602c479ad1,TCN,2024-06-24_18h28.42.261,LearnStrategy,2023.2.3,MacIntel,60.24096386,,,,,,,,,,,,,,,,,,,,,,,,,,,,,,,,,,,,,,,,,,,
64d523f4ad7f5e602c479ad1,TCN,2024-06-24_18h28.42.261,LearnStrategy,2023.2.3,MacIntel,60.24096386,1,1,1,0.05379876,-0.012839423,1,0,0,5.1439,rock_grid_rect_2,5,02,-1,-1,5.144,-0.33224962,-0.406386854,1,0,0,7.4389,Obsidian_rect,5,7.439,1,0,0,0,0,1,,,,,,,,,,,,,
64d523f4ad7f5e602c479ad1,TCN,2024-06-24_18h28.42.261,LearnStrategy,2023.2.3,MacIntel,60.24096386,1,1,2,0.088368666,-0.008079393,1,0,0,3.8306,rock_grid_rect_2,1,06,-1,-1,3.831,0.438424344,-0.395215115,1,0,0,6.917,Pumice_rect,8,6.917,0,1,0,1,0,1,,,,,,,,,,,,,
64d523f4ad7f5e602c479ad1,TCN,2024-06-24_18h28.42.261,LearnStrategy,2023.2.3,MacIntel,60.24096386,1,1,3,0.155370822,-0.007455953,1,0,0,2.1484,rock_grid_rect_2,6,13,-1,-1,2.148,0.082919651,-0.249243571,1,0,0,55.2812,Diorite_rect,3,55.281,0,2,0,2,0,1,,,,,,,,,,,,,
64d523f4ad7f5e602c479ad1,TCN,2024-06-24_18h28.42.261,LearnStrategy,2023.2.3,MacIntel,60.24096386,1,1,4,0.121270277,-0.018296644,1,0,0,3.9188,rock_grid_rect_2,8,08,-1,-1,3.919,-0.337304281,-0.245402561,1,0,0,8.3419,Andesite_rect,1,8.342,0,3,0,3,0,1,,,,,,,,,,,,,
64d523f4ad7f5e602c479ad1,TCN,2024-06-24_18h28.42.261,LearnStrategy,2023.2.3,MacIntel,60.24096386,1,1,5,0.114946153,0.007627563,1,0,0,1.735,rock_grid_rect_2,2,14,-1,-1,1.735,-0.121346096,-0.237936198,1,0,0,3.5651,Basalt_rect,2,3.565,1,4,0,4,0,1,,,,,,,,,,,,,
64d523f4ad7f5e602c479ad1,TCN,2024-06-24_18h28.42.261,LearnStrategy,2023.2.3,MacIntel,60.24096386,1,1,6,0.056111043,-0.000659044,1,0,0,3.9396,rock_grid_rect_2,7,13,-1,-1,3.94,0.143252835,-0.39902988,1,0,0,4.7105,Peridotite_rect,7,4.71,1,5,0,5,0,1,,,,,,,,,,,,,
64d523f4ad7f5e602c479ad1,TCN,2024-06-24_18h28.42.261,LearnStrategy,2023.2.3,MacIntel,60.24096386,1,1,7,0.11290568,-0.00656528,1,0,0,1.7005,rock_grid_rect_2,3,12,-1,-1,1.701,0.097010769,-0.258332587,1,0,0,5.9216,Diorite_rect,3,5.922,1,6,0,6,0,1,,,,,,,,,,,,,
64d523f4ad7f5e602c479ad1,TCN,2024-06-24_18h28.42.261,LearnStrategy,2023.2.3,MacIntel,60.24096386,1,1,8,0.097966987,-0.014239705,1,0,0,1.598,rock_grid_rect_2,7,08,-1,-1,1.598,0.427717285,-0.260447252,1,0,0,5.2302,Gabbro_rect,4,5.23,0,7,0,7,0,1,,,,,,,,,,,,,
64d523f4ad7f5e602c479ad1,TCN,2024-06-24_18h28.42.261,LearnStrategy,2023.2.3,MacIntel,60.24096386,1,1,9,0.037884589,0.008430244,1,0,0,1.2957,rock_grid_rect_2,2,06,-1,-1,1.296,-0.217088691,-0.406893989,1,0,0,5.4804,Pegmatite_rect,6,5.48,0,8,0,8,0,1,,,,,,,,,,,,,
64d523f4ad7f5e602c479ad1,TCN,2024-06-24_18h28.42.261,LearnStrategy,2023.2.3,MacIntel,60.24096386,1,1,10,0.154337836,-0.011068047,1,0,0,1.934,rock_grid_rect_2,8,15,-1,-1,1.934,0.196153158,-0.26185201,1,0,0,2.8065,Diorite_rect,3,2.806,0,9,0,9,0,1,,,,,,,,,,,,,
64d523f4ad7f5e602c479ad1,TCN,2024-06-24_18h28.42.261,LearnStrategy,2023.2.3,MacIntel,60.24096386,1,1,11,0.103675198,0.005315348,1,0,0,1.5151,rock_grid_rect_2,4,09,-1,-1,1.515,-0.371878798,-0.405206706,1,0,0,10.2286,Obsidian_rect,5,10.229,0,10,0,10,0,1,,,,,,,,,,,,,
64d523f4ad7f5e602c479ad1,TCN,2024-06-24_18h28.42.261,LearnStrategy,2023.2.3,MacIntel,60.24096386,1,1,12,0.135378757,-0.01094652,1,0,0,1.6337,rock_grid_rect_2,3,11,-1,-1,1.634,-0.411238166,-0.265143636,1,0,0,4.2903,Andesite_rect,1,4.29,0,11,0,11,0,1,,,,,,,,,,,,,
64d523f4ad7f5e602c479ad1,TCN,2024-06-24_18h28.42.261,LearnStrategy,2023.2.3,MacIntel,60.24096386,1,1,13,0.051539307,-0.004831475,1,0,0,1.8159,rock_grid_rect_2,4,03,-1,-1,1.816,-0.170125529,-0.390875244,1,0,0,21.7663,Pegmatite_rect,6,21.766,0,12,0,12,0,1,,,,,,,,,,,,,
64d523f4ad7f5e602c479ad1,TCN,2024-06-24_18h28.42.261,LearnStrategy,2023.2.3,MacIntel,60.24096386,1,1,14,0.03068217,0.008610874,1,0,0,2.5816,rock_grid_rect_2,1,03,-1,-1,2.582,0.176822306,-0.260388658,1,0,0,5.854,Diorite_rect,3,5.854,0,13,0,13,0,1,,,,,,,,,,,,,
64d523f4ad7f5e602c479ad1,TCN,2024-06-24_18h28.42.261,LearnStrategy,2023.2.3,MacIntel,60.24096386,1,1,15,0.079523655,-0.004129605,1,0,0,1.582,rock_grid_rect_2,6,11,-1,-1,1.582,0.438431939,-0.401441718,1,0,0,5.2876,Pumice_rect,8,5.288,0,14,0,14,0,1,,,,,,,,,,,,,
64d523f4ad7f5e602c479ad1,TCN,2024-06-24_18h28.42.261,LearnStrategy,2023.2.3,MacIntel,60.24096386,1,1,16,0.073681369,-0.017831862,1,0,0,1.6033,rock_grid_rect_2,5,12,-1,-1,1.603,-0.433706733,-0.419526571,1,0,0,1.4826,Obsidian_rect,5,1.483,1,15,0,15,0,1,,,,,,,,,,,,,
64d523f4ad7f5e602c479ad1,TCN,2024-06-24_18h28.42.261,LearnStrategy,2023.2.3,MacIntel,60.24096386,1,2,1,,,,,,,,8,13,,,,,,,,,,,8,5.123,1,,,,,,0.475293783,-0.407944607,1,0,0,5.1234,Pumice_rect,0,0,0,0,1,
64d523f4ad7f5e602c479ad1,TCN,2024-06-24_18h28.42.261,LearnStrategy,2023.2.3,MacIntel,60.24096386,1,2,2,,,,,,,,2,02,,,,,,,,,,,2,10.552,1,,,,,,-0.101810981,-0.271566908,1,0,0,10.552,Basalt_rect,1,0,1,0,1,
64d523f4ad7f5e602c479ad1,TCN,2024-06-24_18h28.42.261,LearnStrategy,2023.2.3,MacIntel,60.24096386,1,2,3,,,,,,,,2,12,,,,,,,,,,,7,11.921,0,,,,,,0.063478665,-0.391759779,1,0,0,11.9212,Peridotite_rect,2,0,2,0,1,
64d523f4ad7f5e602c479ad1,TCN,2024-06-24_18h28.42.261,LearnStrategy,2023.2.3,MacIntel,60.24096386,1,2,4,,,,,,,,7,02,,,,,,,,,,,2,10.476,0,,,,,,-0.127616848,-0.266490885,1,0,0,10.4764,Basalt_rect,3,0,3,0,1,
64d523f4ad7f5e602c479ad1,TCN,2024-06-24_18h28.42.261,LearnStrategy,2023.2.3,MacIntel,60.24096386,1,2,5,,,,,,,,1,01,,,,,,,,,,,1,16.448,1,,,,,,-0.347662184,-0.254732123,1,0,0,16.4476,Andesite_rect,4,0,4,0,1,
64d523f4ad7f5e602c479ad1,TCN,2024-06-24_18h28.42.261,LearnStrategy,2023.2.3,MacIntel,60.24096386,1,2,6,,,,,,,,5,14,,,,,,,,,,,5,2.782,1,,,,,,-0.441733873,-0.414563734,1,0,0,2.7815,Obsidian_rect,5,0,5,0,1,
64d523f4ad7f5e602c479ad1,TCN,2024-06-24_18h28.42.261,LearnStrategy,2023.2.3,MacIntel,60.24096386,1,2,7,,,,,,,,7,04,,,,,,,,,,,6,8.527,0,,,,,,-0.086404555,-0.39760064,1,0,0,8.5267,Pegmatite_rect,6,0,6,0,1,
64d523f4ad7f5e602c479ad1,TCN,2024-06-24_18h28.42.261,LearnStrategy,2023.2.3,MacIntel,60.24096386,1,2,8,,,,,,,,4,14,,,,,,,,,,,4,9.772,1,,,,,,0.405635444,-0.241160007,1,0,0,9.772,Gabbro_rect,7,0,7,0,1,
64d523f4ad7f5e602c479ad1,TCN,2024-06-24_18h28.42.261,LearnStrategy,2023.2.3,MacIntel,60.24096386,1,2,9,,,,,,,,3,16,,,,,,,,,,,4,10.246,0,,,,,,0.455269233,-0.259502563,1,0,0,10.2463,Gabbro_rect,8,0,8,0,1,
64d523f4ad7f5e602c479ad1,TCN,2024-06-24_18h28.42.261,LearnStrategy,2023.2.3,MacIntel,60.24096386,1,2,10,,,,,,,,6,03,,,,,,,,,,,6,12.799,1,,,,,,-0.123447198,-0.406950209,1,0,0,12.7992,Pegmatite_rect,9,0,9,0,1,
64d523f4ad7f5e602c479ad1,TCN,2024-06-24_18h28.42.261,LearnStrategy,2023.2.3,MacIntel,60.24096386,1,2,11,,,,,,,,4,16,,,,,,,,,,,4,15.7,1,,,,,,0.424346653,-0.264616292,1,0,0,15.6999,Gabbro_rect,10,0,10,0,1,
64d523f4ad7f5e602c479ad1,TCN,2024-06-24_18h28.42.261,LearnStrategy,2023.2.3,MacIntel,60.24096386,1,2,12,,,,,,,,8,09,,,,,,,,,,,8,2.8,1,,,,,,0.392893745,-0.396320597,1,0,0,2.8004,Pumice_rect,11,0,11,0,1,
64d523f4ad7f5e602c479ad1,TCN,2024-06-24_18h28.42.261,LearnStrategy,2023.2.3,MacIntel,60.24096386,1,2,13,,,,,,,,6,09,,,,,,,,,,,6,9.524,1,,,,,,-0.143383586,-0.416182387,1,0,0,9.5239,Pegmatite_rect,12,0,12,0,1,
64d523f4ad7f5e602c479ad1,TCN,2024-06-24_18h28.42.261,LearnStrategy,2023.2.3,MacIntel,60.24096386,1,2,14,,,,,,,,3,07,,,,,,,,,,,7,15.694,0,,,,,,0.110609673,-0.411750827,1,0,0,15.6936,Peridotite_rect,13,0,13,0,1,
64d523f4ad7f5e602c479ad1,TCN,2024-06-24_18h28.42.261,LearnStrategy,2023.2.3,MacIntel,60.24096386,1,2,15,,,,,,,,5,16,,,,,,,,,,,5,1.238,1,,,,,,-0.369519992,-0.398529392,1,0,0,1.2382,Obsidian_rect,14,0,14,0,1,
64d523f4ad7f5e602c479ad1,TCN,2024-06-24_18h28.42.261,LearnStrategy,2023.2.3,MacIntel,60.24096386,1,2,16,,,,,,,,1,04,,,,,,,,,,,7,14.202,0,,,,,,0.116847331,-0.384519925,1,0,0,14.2019,Peridotite_rect,15,0,15,0,1,
64d523f4ad7f5e602c479ad1,TCN,2024-06-24_18h28.42.261,LearnStrategy,2023.2.3,MacIntel,60.24096386,2,1,1,-0.032392103,-0.005715976,1,0,0,2.7312,rock_grid_rect_2,2,09,-1,-1,2.731,-0.132269965,-0.269153985,1,0,0,5.0367,Basalt_rect,2,5.037,1,0,0,0,0,1,,,,,,,,,,,,,
64d523f4ad7f5e602c479ad1,TCN,2024-06-24_18h28.42.261,LearnStrategy,2023.2.3,MacIntel,60.24096386,2,1,2,0.133277656,-0.016760763,1,0,0,3.4604,rock_grid_rect_2,4,10,-1,-1,3.46,0.380071615,-0.244858127,1,0,0,6.8974,Gabbro_rect,4,6.897,1,1,0,1,0,1,,,,,,,,,,,,,
64d523f4ad7f5e602c479ad1,TCN,2024-06-24_18h28.42.261,LearnStrategy,2023.2.3,MacIntel,60.24096386,2,1,3,-0.00737637,-0.000823432,1,0,0,4.7827,rock_grid_rect_2,6,08,-1,-1,4.783,-0.072880113,-0.409279378,1,0,0,13.8663,Pegmatite_rect,6,13.866,1,2,0,2,0,1,,,,,,,,,,,,,
64d523f4ad7f5e602c479ad1,TCN,2024-06-24_18h28.42.261,LearnStrategy,2023.2.3,MacIntel,60.24096386,2,1,4,0.092635362,-0.011876594,1,0,0,1.736,rock_grid_rect_2,1,02,-1,-1,1.736,0.444940186,-0.26362264,1,0,1,63.982,Gabbro_rect,4,63.982,0,3,0,3,0,1,,,,,,,,,,,,,
64d523f4ad7f5e602c479ad1,TCN,2024-06-24_18h28.42.261,LearnStrategy,2023.2.3,MacIntel,60.24096386,2,1,5,0.130717638,-0.014600898,1,0,1,1.6804,rock_grid_rect_2,7,15,-1,-1,1.68,0.144939779,-0.411484511,1,0,1,8.7666,Peridotite_rect,7,8.767,1,4,0,4,0,1,,,,,,,,,,,,,
64d523f4ad7f5e602c479ad1,TCN,2024-06-24_18h28.42.261,LearnStrategy,2023.2.3,MacIntel,60.24096386,2,1,6,0.180067817,-0.006356167,1,0,1,1.5612,rock_grid_rect_2,2,08,-1,-1,1.561,-0.159682142,-0.239744127,1,0,1,5.0697,Basalt_rect,2,5.07,1,5,0,5,0,1,,,,,,,,,,,,,
64d523f4ad7f5e602c479ad1,TCN,2024-06-24_18h28.42.261,LearnStrategy,2023.2.3,MacIntel,60.24096386,2,1,7,0.140430637,-0.020499471,1,0,1,1.302,rock_grid_rect_2,4,15,-1,-1,1.302,0.098305664,-0.247555949,1,0,1,25.1141,Diorite_rect,3,25.114,0,6,0,6,0,1,,,,,,,,,,,,,
64d523f4ad7f5e602c479ad1,TCN,2024-06-24_18h28.42.261,LearnStrategy,2023.2.3,MacIntel,60.24096386,2,1,8,0.115989109,-0.005719876,1,0,1,1.2314,rock_grid_rect_2,3,02,-1,-1,1.231,-0.370953234,-0.2427162,1,0,1,34.2209,Andesite_rect,1,34.221,0,7,0,7,0,1,,,,,,,,,,,,,
64d523f4ad7f5e602c479ad1,TCN,2024-06-24_18h28.42.261,LearnStrategy,2023.2.3,MacIntel,60.24096386,2,1,9,0.09030131,-0.010260078,1,0,1,1.164,rock_grid_rect_2,3,06,-1,-1,1.164,-0.373304477,-0.27146993,1,0,1,8.8959,Andesite_rect,1,8.896,0,8,0,8,0,1,,,,,,,,,,,,,
64d523f4ad7f5e602c479ad1,TCN,2024-06-24_18h28.42.261,LearnStrategy,2023.2.3,MacIntel,60.24096386,2,1,10,0.169845174,0.001378004,1,0,1,1.6464,rock_grid_rect_2,5,11,-1,-1,1.646,-0.403904046,-0.386915351,1,0,1,1.4832,Obsidian_rect,5,1.483,1,9,0,9,0,1,,,,,,,,,,,,,
64d523f4ad7f5e602c479ad1,TCN,2024-06-24_18h28.42.261,LearnStrategy,2023.2.3,MacIntel,60.24096386,2,1,11,-0.192220052,-0.009324578,1,0,1,1.6473,rock_grid_rect_2,8,16,-1,-1,1.647,0.417824164,-0.416664497,1,0,1,9.5375,Pumice_rect,8,9.538,1,10,0,10,0,1,,,,,,,,,,,,,
64d523f4ad7f5e602c479ad1,TCN,2024-06-24_18h28.42.261,LearnStrategy,2023.2.3,MacIntel,60.24096386,2,1,12,0.107593384,-0.009553663,1,0,1,1.2302,rock_grid_rect_2,1,11,-1,-1,1.23,0.059825168,-0.249082642,1,0,1,14.3715,Diorite_rect,3,14.371,0,11,0,11,0,1,,,,,,,,,,,,,
64d523f4ad7f5e602c479ad1,TCN,2024-06-24_18h28.42.261,LearnStrategy,2023.2.3,MacIntel,60.24096386,2,1,13,0.161205987,-0.019688721,1,0,1,1.3307,rock_grid_rect_2,6,07,-1,-1,1.331,0.362857937,-0.228525798,1,0,1,42.0052,Gabbro_rect,4,42.005,0,12,0,12,0,1,,,,,,,,,,,,,
64d523f4ad7f5e602c479ad1,TCN,2024-06-24_18h28.42.261,LearnStrategy,2023.2.3,MacIntel,60.24096386,2,1,14,0.0296816,0.008638916,1,0,1,1.1127,rock_grid_rect_2,7,12,-1,-1,1.113,0.172250909,-0.41412306,1,0,1,2.0587,Peridotite_rect,7,2.059,1,13,0,13,0,1,,,,,,,,,,,,,
64d523f4ad7f5e602c479ad1,TCN,2024-06-24_18h28.42.261,LearnStrategy,2023.2.3,MacIntel,60.24096386,2,1,15,0.081974216,-0.017219781,1,0,1,1.1133,rock_grid_rect_2,8,14,-1,-1,1.113,0.363329942,-0.41399726,1,0,1,1.7871,Pumice_rect,8,1.787,1,14,0,14,0,1,,,,,,,,,,,,,
64d523f4ad7f5e602c479ad1,TCN,2024-06-24_18h28.42.261,LearnStrategy,2023.2.3,MacIntel,60.24096386,2,1,16,0.079343397,-0.004672987,1,0,1,8.4591,rock_grid_rect_2,5,08,-1,-1,8.459,-0.444822422,-0.413180474,1,0,1,2.9693,Obsidian_rect,5,2.969,1,15,0,15,0,1,,,,,,,,,,,,,
64d523f4ad7f5e602c479ad1,TCN,2024-06-24_18h28.42.261,LearnStrategy,2023.2.3,MacIntel,60.24096386,2,2,1,,,,,,,,7,07,,,,,,,,,,,3,5.374,0,,,,,,0.103312581,-0.267901069,1,0,1,5.3742,Diorite_rect,0,0,0,0,1,
64d523f4ad7f5e602c479ad1,TCN,2024-06-24_18h28.42.261,LearnStrategy,2023.2.3,MacIntel,60.24096386,2,2,2,,,,,,,,7,16,,,,,,,,,,,3,46.394,0,,,,,,0.139289551,-0.27046563,1,0,1,46.3937,Diorite_rect,1,0,1,0,1,
64d523f4ad7f5e602c479ad1,TCN,2024-06-24_18h28.42.261,LearnStrategy,2023.2.3,MacIntel,60.24096386,2,2,3,,,,,,,,5,04,,,,,,,,,,,5,2.213,1,,,,,,-0.466706034,-0.409748806,1,0,1,2.213,Obsidian_rect,2,0,2,0,1,
64d523f4ad7f5e602c479ad1,TCN,2024-06-24_18h28.42.261,LearnStrategy,2023.2.3,MacIntel,60.24096386,2,2,4,,,,,,,,6,06,,,,,,,,,,,7,8.162,0,,,,,,0.108963691,-0.396501058,1,0,1,8.1616,Peridotite_rect,3,0,3,0,1,
64d523f4ad7f5e602c479ad1,TCN,2024-06-24_18h28.42.261,LearnStrategy,2023.2.3,MacIntel,60.24096386,2,2,5,,,,,,,,4,11,,,,,,,,,,,2,5.375,0,,,,,,-0.186048177,-0.266436022,1,0,1,5.3745,Basalt_rect,4,0,4,0,1,
64d523f4ad7f5e602c479ad1,TCN,2024-06-24_18h28.42.261,LearnStrategy,2023.2.3,MacIntel,60.24096386,2,2,6,,,,,,,,5,09,,,,,,,,,,,5,1.395,1,,,,,,-0.324066298,-0.380532498,1,0,1,1.3948,Obsidian_rect,5,0,5,0,1,
64d523f4ad7f5e602c479ad1,TCN,2024-06-24_18h28.42.261,LearnStrategy,2023.2.3,MacIntel,60.24096386,2,2,7,,,,,,,,1,05,,,,,,,,,,,7,7.147,0,,,,,,0.106844415,-0.417545166,1,0,1,7.1473,Peridotite_rect,6,0,6,0,1,
64d523f4ad7f5e602c479ad1,TCN,2024-06-24_18h28.42.261,LearnStrategy,2023.2.3,MacIntel,60.24096386,2,2,8,,,,,,,,4,12,,,,,,,,,,,2,23.767,0,,,,,,-0.131266886,-0.248953315,1,0,1,23.7669,Basalt_rect,7,0,7,0,1,
64d523f4ad7f5e602c479ad1,TCN,2024-06-24_18h28.42.261,LearnStrategy,2023.2.3,MacIntel,60.24096386,2,2,9,,,,,,,,2,16,,,,,,,,,,,8,2.825,0,,,,,,0.293976576,-0.395541585,1,0,1,2.8255,Pumice_rect,8,0,8,0,1,
64d523f4ad7f5e602c479ad1,TCN,2024-06-24_18h28.42.261,LearnStrategy,2023.2.3,MacIntel,60.24096386,2,2,10,,,,,,,,1,07,,,,,,,,,,,3,6.691,0,,,,,,0.093867798,-0.266071574,1,0,1,6.6915,Diorite_rect,9,0,9,0,1,
64d523f4ad7f5e602c479ad1,TCN,2024-06-24_18h28.42.261,LearnStrategy,2023.2.3,MacIntel,60.24096386,2,2,11,,,,,,,,2,01,,,,,,,,,,,2,8.85,1,,,,,,-0.068513726,-0.266769206,1,0,1,8.8495,Basalt_rect,10,0,10,0,1,
64d523f4ad7f5e602c479ad1,TCN,2024-06-24_18h28.42.261,LearnStrategy,2023.2.3,MacIntel,60.24096386,2,2,12,,,,,,,,8,03,,,,,,,,,,,8,2.204,1,,,,,,0.397322998,-0.412378065,1,0,1,2.2036,Pumice_rect,11,0,11,0,1,
64d523f4ad7f5e602c479ad1,TCN,2024-06-24_18h28.42.261,LearnStrategy,2023.2.3,MacIntel,60.24096386,2,2,13,,,,,,,,3,09,,,,,,,,,,,3,10.061,1,,,,,,0.079848701,-0.271278687,1,0,1,10.0605,Diorite_rect,12,0,12,0,1,
64d523f4ad7f5e602c479ad1,TCN,2024-06-24_18h28.42.261,LearnStrategy,2023.2.3,MacIntel,60.24096386,2,2,14,,,,,,,,6,15,,,,,,,,,,,6,15.126,1,,,,,,-0.155883111,-0.404402941,1,0,1,15.1255,Pegmatite_rect,13,0,13,0,1,
64d523f4ad7f5e602c479ad1,TCN,2024-06-24_18h28.42.261,LearnStrategy,2023.2.3,MacIntel,60.24096386,2,2,15,,,,,,,,8,05,,,,,,,,,,,8,1.735,1,,,,,,0.334550578,-0.39433804,1,0,1,1.7347,Pumice_rect,14,0,14,0,1,
64d523f4ad7f5e602c479ad1,TCN,2024-06-24_18h28.42.261,LearnStrategy,2023.2.3,MacIntel,60.24096386,2,2,16,,,,,,,,3,13,,,,,,,,,,,8,8.68,0,,,,,,0.336212226,-0.387280409,1,0,1,8.6799,Pumice_rect,15,0,15,0,1,
64d523f4ad7f5e602c479ad1,TCN,2024-06-24_18h28.42.261,LearnStrategy,2023.2.3,MacIntel,60.24096386,3,1,1,0.128234931,-0.018377957,1,0,1,5.8387,rock_grid_rect_2,1,10,-1,-1,5.839,0.424766981,-0.401610718,1,0,1,2.6566,Pumice_rect,8,2.657,0,0,0,0,0,1,,,,,,,,,,,,,
64d523f4ad7f5e602c479ad1,TCN,2024-06-24_18h28.42.261,LearnStrategy,2023.2.3,MacIntel,60.24096386,3,1,2,0.081755575,-0.019770576,1,0,1,1.3959,rock_grid_rect_2,7,06,-1,-1,1.396,0.163803779,-0.388498671,1,0,1,1.8891,Peridotite_rect,7,1.889,1,1,0,1,0,1,,,,,,,,,,,,,
64d523f4ad7f5e602c479ad1,TCN,2024-06-24_18h28.42.261,LearnStrategy,2023.2.3,MacIntel,60.24096386,3,1,3,0.099911228,-0.016208632,1,0,1,1.4806,rock_grid_rect_2,2,10,-1,-1,1.481,-0.174688043,-0.254466078,1,0,1,12.3381,Basalt_rect,2,12.338,1,2,0,2,0,1,,,,,,,,,,,,,
64d523f4ad7f5e602c479ad1,TCN,2024-06-24_18h28.42.261,LearnStrategy,2023.2.3,MacIntel,60.24096386,3,1,4,0.099288601,0.004835544,1,0,1,1.6138,rock_grid_rect_2,8,06,-1,-1,1.614,0.361071099,-0.397382067,1,0,1,1.6395,Pumice_rect,8,1.639,1,3,0,3,0,1,,,,,,,,,,,,,
64d523f4ad7f5e602c479ad1,TCN,2024-06-24_18h28.42.261,LearnStrategy,2023.2.3,MacIntel,60.24096386,3,1,5,-0.046680433,0.004600694,1,0,1,2.129,rock_grid_rect_2,2,05,-1,-1,2.129,-0.187526245,-0.249959242,1,0,1,14.7741,Basalt_rect,2,14.774,1,4,0,4,0,1,,,,,,,,,,,,,
64d523f4ad7f5e602c479ad1,TCN,2024-06-24_18h28.42.261,LearnStrategy,2023.2.3,MacIntel,60.24096386,3,1,6,0.169725613,0.008779568,1,0,1,1.697,rock_grid_rect_2,4,13,-1,-1,1.697,-0.117402208,-0.259762031,1,0,1,7.4298,Basalt_rect,2,7.43,0,5,0,5,0,1,,,,,,,,,,,,,
64d523f4ad7f5e602c479ad1,TCN,2024-06-24_18h28.42.261,LearnStrategy,2023.2.3,MacIntel,60.24096386,3,1,7,0.071800876,-0.014591031,1,0,1,1.112,rock_grid_rect_2,6,16,-1,-1,1.112,-0.088188612,-0.400110881,1,0,1,15.2731,Pegmatite_rect,6,15.273,1,6,0,6,0,1,,,,,,,,,,,,,
64d523f4ad7f5e602c479ad1,TCN,2024-06-24_18h28.42.261,LearnStrategy,2023.2.3,MacIntel,60.24096386,3,1,8,0.098820123,0.003325195,1,0,1,1.0567,rock_grid_rect_2,8,02,-1,-1,1.057,0.407219238,-0.389570787,1,0,1,1.6907,Pumice_rect,8,1.691,1,7,0,7,0,1,,,,,,,,,,,,,
64d523f4ad7f5e602c479ad1,TCN,2024-06-24_18h28.42.261,LearnStrategy,2023.2.3,MacIntel,60.24096386,3,1,9,0.089273817,-0.023113844,1,0,1,1.3492,rock_grid_rect_2,7,10,-1,-1,1.349,0.336266886,-0.251818441,1,0,1,9.6296,Gabbro_rect,4,9.63,0,8,0,8,0,1,,,,,,,,,,,,,
64d523f4ad7f5e602c479ad1,TCN,2024-06-24_18h28.42.261,LearnStrategy,2023.2.3,MacIntel,60.24096386,3,1,10,0.082701416,0.021787381,1,0,1,22.3808,rock_grid_rect_2,5,06,-1,-1,22.381,-0.477581584,-0.417625597,1,0,1,1.4307,Obsidian_rect,5,1.431,1,9,0,9,0,1,,,,,,,,,,,,,
64d523f4ad7f5e602c479ad1,TCN,2024-06-24_18h28.42.261,LearnStrategy,2023.2.3,MacIntel,60.24096386,3,1,11,0.063357205,0.000712653,1,0,1,1.4638,rock_grid_rect_2,1,14,-1,-1,1.464,0.370780707,-0.264290975,1,0,1,4.1659,Gabbro_rect,4,4.166,0,10,0,10,0,1,,,,,,,,,,,,,
64d523f4ad7f5e602c479ad1,TCN,2024-06-24_18h28.42.261,LearnStrategy,2023.2.3,MacIntel,60.24096386,3,1,12,0.079151272,-0.005455594,1,0,1,2.8366,rock_grid_rect_2,5,07,-1,-1,2.837,-0.402453715,-0.398630914,1,0,1,1.2595,Obsidian_rect,5,1.259,1,11,0,11,0,1,,,,,,,,,,,,,
64d523f4ad7f5e602c479ad1,TCN,2024-06-24_18h28.42.261,LearnStrategy,2023.2.3,MacIntel,60.24096386,3,1,13,0.072990519,-0.016060757,1,0,1,1.3973,rock_grid_rect_2,4,01,-1,-1,1.397,0.437751465,-0.26772678,1,0,1,2.4154,Gabbro_rect,4,2.415,1,12,0,12,0,1,,,,,,,,,,,,,
64d523f4ad7f5e602c479ad1,TCN,2024-06-24_18h28.42.261,LearnStrategy,2023.2.3,MacIntel,60.24096386,3,1,14,0.027547743,-0.010127157,1,0,1,2.5786,rock_grid_rect_2,3,10,-1,-1,2.579,0.131032783,-0.251458605,1,0,1,3.9297,Diorite_rect,3,3.93,1,13,0,13,0,1,,,,,,,,,,,,,
64d523f4ad7f5e602c479ad1,TCN,2024-06-24_18h28.42.261,LearnStrategy,2023.2.3,MacIntel,60.24096386,3,1,15,0.043778619,-0.021585049,1,0,1,1.1047,rock_grid_rect_2,3,08,-1,-1,1.105,0.143677436,-0.238218587,1,0,1,1.579,Diorite_rect,3,1.579,1,14,0,14,0,1,,,,,,,,,,,,,
64d523f4ad7f5e602c479ad1,TCN,2024-06-24_18h28.42.261,LearnStrategy,2023.2.3,MacIntel,60.24096386,3,1,16,-0.011264513,-0.020964593,1,0,1,1.256,rock_grid_rect_2,6,10,-1,-1,1.256,-0.031853231,-0.41527771,1,0,1,6.3338,Pegmatite_rect,6,6.334,1,15,0,15,0,1,,,,,,,,,,,,,
64d523f4ad7f5e602c479ad1,TCN,2024-06-24_18h28.42.261,LearnStrategy,2023.2.3,MacIntel,60.24096386,3,2,1,,,,,,,,8,10,,,,,,,,,,,8,3.591,1,,,,,,0.38328654,-0.411468235,1,0,1,3.5909,Pumice_rect,0,0,0,0,1,
64d523f4ad7f5e602c479ad1,TCN,2024-06-24_18h28.42.261,LearnStrategy,2023.2.3,MacIntel,60.24096386,3,2,2,,,,,,,,4,08,,,,,,,,,,,4,9.778,1,,,,,,0.343679199,-0.25441786,1,0,1,9.7776,Gabbro_rect,1,0,1,0,1,
64d523f4ad7f5e602c479ad1,TCN,2024-06-24_18h28.42.261,LearnStrategy,2023.2.3,MacIntel,60.24096386,3,2,3,,,,,,,,2,11,,,,,,,,,,,4,3.335,0,,,,,,0.377853054,-0.262886556,1,0,1,3.3352,Gabbro_rect,2,0,2,0,1,
64d523f4ad7f5e602c479ad1,TCN,2024-06-24_18h28.42.261,LearnStrategy,2023.2.3,MacIntel,60.24096386,3,2,4,,,,,,,,2,04,,,,,,,,,,,4,1.407,0,,,,,,0.38317844,-0.260505846,1,0,1,1.4066,Gabbro_rect,3,0,3,0,1,
64d523f4ad7f5e602c479ad1,TCN,2024-06-24_18h28.42.261,LearnStrategy,2023.2.3,MacIntel,60.24096386,3,2,5,,,,,,,,5,05,,,,,,,,,,,5,2.087,1,,,,,,-0.337935282,-0.389882406,1,0,1,2.0873,Obsidian_rect,4,0,4,0,1,
64d523f4ad7f5e602c479ad1,TCN,2024-06-24_18h28.42.261,LearnStrategy,2023.2.3,MacIntel,60.24096386,3,2,6,,,,,,,,6,05,,,,,,,,,,,7,9.055,0,,,,,,0.071263021,-0.408155314,1,0,1,9.0547,Peridotite_rect,5,0,5,0,1,
64d523f4ad7f5e602c479ad1,TCN,2024-06-24_18h28.42.261,LearnStrategy,2023.2.3,MacIntel,60.24096386,3,2,7,,,,,,,,7,14,,,,,,,,,,,7,1.955,1,,,,,,0.07262892,-0.406789347,1,0,1,1.9545,Peridotite_rect,6,0,6,0,1,
64d523f4ad7f5e602c479ad1,TCN,2024-06-24_18h28.42.261,LearnStrategy,2023.2.3,MacIntel,60.24096386,3,2,8,,,,,,,,5,10,,,,,,,,,,,5,3.02,1,,,,,,-0.320175374,-0.406912977,1,0,1,3.0205,Obsidian_rect,7,0,7,0,1,
64d523f4ad7f5e602c479ad1,TCN,2024-06-24_18h28.42.261,LearnStrategy,2023.2.3,MacIntel,60.24096386,3,2,9,,,,,,,,8,04,,,,,,,,,,,8,1.202,1,,,,,,0.323944363,-0.395933702,1,0,1,1.2021,Pumice_rect,8,0,8,0,1,
64d523f4ad7f5e602c479ad1,TCN,2024-06-24_18h28.42.261,LearnStrategy,2023.2.3,MacIntel,60.24096386,3,2,10,,,,,,,,4,05,,,,,,,,,,,7,2.822,0,,,,,,0.108946465,-0.398586833,1,0,1,2.8215,Peridotite_rect,9,0,9,0,1,
64d523f4ad7f5e602c479ad1,TCN,2024-06-24_18h28.42.261,LearnStrategy,2023.2.3,MacIntel,60.24096386,3,2,11,,,,,,,,7,05,,,,,,,,,,,7,7.446,1,,,,,,0.15373135,-0.415042318,1,0,1,7.4455,Peridotite_rect,10,0,10,0,1,
64d523f4ad7f5e602c479ad1,TCN,2024-06-24_18h28.42.261,LearnStrategy,2023.2.3,MacIntel,60.24096386,3,2,12,,,,,,,,3,14,,,,,,,,,,,6,5.629,0,,,,,,-0.056847602,-0.417268338,1,0,1,5.6292,Pegmatite_rect,11,0,11,0,1,
64d523f4ad7f5e602c479ad1,TCN,2024-06-24_18h28.42.261,LearnStrategy,2023.2.3,MacIntel,60.24096386,3,2,13,,,,,,,,1,09,,,,,,,,,,,3,9.939,0,,,,,,0.109053209,-0.2642119,1,0,1,9.9388,Diorite_rect,12,0,12,0,1,
64d523f4ad7f5e602c479ad1,TCN,2024-06-24_18h28.42.261,LearnStrategy,2023.2.3,MacIntel,60.24096386,3,2,14,,,,,,,,3,15,,,,,,,,,,,3,2.47,1,,,,,,0.129718153,-0.25566942,1,0,1,2.4701,Diorite_rect,13,0,13,0,1,
64d523f4ad7f5e602c479ad1,TCN,2024-06-24_18h28.42.261,LearnStrategy,2023.2.3,MacIntel,60.24096386,3,2,15,,,,,,,,6,12,,,,,,,,,,,6,7.495,1,,,,,,-0.183513726,-0.40719869,1,0,1,7.4947,Pegmatite_rect,14,0,14,0,1,
64d523f4ad7f5e602c479ad1,TCN,2024-06-24_18h28.42.261,LearnStrategy,2023.2.3,MacIntel,60.24096386,3,2,16,,,,,,,,1,16,,,,,,,,,,,4,6.454,0,,,,,,0.463624946,-0.264710015,1,0,1,6.454,Gabbro_rect,15,0,15,0,1,
64d523f4ad7f5e602c479ad1,TCN,2024-06-24_18h28.42.261,LearnStrategy,2023.2.3,MacIntel,60.24096386,4,1,1,-0.03860616,-0.013264499,1,0,1,39.4897,rock_grid_rect_2,5,08,-1,-1,39.49,-0.391673923,-0.41176846,1,0,1,1.2448,Obsidian_rect,5,1.245,1,0,0,0,0,1,,,,,,,,,,,,,
64d523f4ad7f5e602c479ad1,TCN,2024-06-24_18h28.42.261,LearnStrategy,2023.2.3,MacIntel,60.24096386,4,1,2,0.07830207,-0.015264723,1,0,1,1.4167,rock_grid_rect_2,6,13,-1,-1,1.417,-0.088577271,-0.396142442,1,0,1,5.152,Pegmatite_rect,6,5.152,1,1,0,1,0,1,,,,,,,,,,,,,
64d523f4ad7f5e602c479ad1,TCN,2024-06-24_18h28.42.261,LearnStrategy,2023.2.3,MacIntel,60.24096386,4,1,3,0.051368815,-0.01018436,1,0,1,1.1625,rock_grid_rect_2,5,02,-1,-1,1.162,-0.408154873,-0.413836263,1,0,1,1.9787,Obsidian_rect,5,1.979,1,2,0,2,0,1,,,,,,,,,,,,,
64d523f4ad7f5e602c479ad1,TCN,2024-06-24_18h28.42.261,LearnStrategy,2023.2.3,MacIntel,60.24096386,4,1,4,0.166124607,0.016704237,1,0,1,1.2139,rock_grid_rect_2,2,05,-1,-1,1.214,0.39724216,-0.268328518,1,0,1,6.9516,Gabbro_rect,4,6.952,0,3,0,3,0,1,,,,,,,,,,,,,
64d523f4ad7f5e602c479ad1,TCN,2024-06-24_18h28.42.261,LearnStrategy,2023.2.3,MacIntel,60.24096386,4,1,5,0.045022786,-0.011265293,1,0,1,1.3333,rock_grid_rect_2,4,13,-1,-1,1.333,0.378407389,-0.251806302,1,0,1,2.5702,Gabbro_rect,4,2.57,1,4,0,4,0,1,,,,,,,,,,,,,
64d523f4ad7f5e602c479ad1,TCN,2024-06-24_18h28.42.261,LearnStrategy,2023.2.3,MacIntel,60.24096386,4,1,6,0.121011285,-0.015721266,1,0,1,1.3536,rock_grid_rect_2,7,10,-1,-1,1.354,-0.075581462,-0.238786621,1,0,1,2.5273,Basalt_rect,2,2.527,0,5,0,5,0,1,,,,,,,,,,,,,
64d523f4ad7f5e602c479ad1,TCN,2024-06-24_18h28.42.261,LearnStrategy,2023.2.3,MacIntel,60.24096386,4,1,7,0.023174303,-0.014868876,1,0,1,2.1809,rock_grid_rect_2,8,02,-1,-1,2.181,0.412600369,-0.388846503,1,0,1,1.3006,Pumice_rect,8,1.301,1,6,0,6,0,1,,,,,,,,,,,,,
64d523f4ad7f5e602c479ad1,TCN,2024-06-24_18h28.42.261,LearnStrategy,2023.2.3,MacIntel,60.24096386,4,1,8,0.146615804,0.003798523,1,0,1,1.3798,rock_grid_rect_2,1,06,-1,-1,1.38,0.383695611,-0.261308662,1,0,1,5.8895,Gabbro_rect,4,5.889,0,7,0,7,0,1,,,,,,,,,,,,,
64d523f4ad7f5e602c479ad1,TCN,2024-06-24_18h28.42.261,LearnStrategy,2023.2.3,MacIntel,60.24096386,4,1,9,0.116505263,-0.006997104,1,0,1,5.6607,rock_grid_rect_2,1,10,-1,-1,5.661,0.406325141,-0.260874566,1,0,1,5.7136,Gabbro_rect,4,5.714,0,8,0,8,0,1,,,,,,,,,,,,,
64d523f4ad7f5e602c479ad1,TCN,2024-06-24_18h28.42.261,LearnStrategy,2023.2.3,MacIntel,60.24096386,4,1,10,0.103680488,-0.00776435,1,0,1,1.3473,rock_grid_rect_2,8,08,-1,-1,1.347,0.358707004,-0.403272976,1,0,1,2.7848,Pumice_rect,8,2.785,1,9,0,9,0,1,,,,,,,,,,,,,
64d523f4ad7f5e602c479ad1,TCN,2024-06-24_18h28.42.261,LearnStrategy,2023.2.3,MacIntel,60.24096386,4,1,11,0.092184923,-0.014503547,1,0,1,3.8456,rock_grid_rect_2,3,06,-1,-1,3.846,0.191621501,-0.254100681,1,0,1,9.426,Diorite_rect,3,9.426,1,10,0,10,0,1,,,,,,,,,,,,,
64d523f4ad7f5e602c479ad1,TCN,2024-06-24_18h28.42.261,LearnStrategy,2023.2.3,MacIntel,60.24096386,4,1,12,0.135837877,-0.002882996,1,0,1,1.2118,rock_grid_rect_2,3,12,-1,-1,1.212,0.177350667,-0.24945733,1,0,1,1.1815,Diorite_rect,3,1.181,1,11,0,11,0,1,,,,,,,,,,,,,
64d523f4ad7f5e602c479ad1,TCN,2024-06-24_18h28.42.261,LearnStrategy,2023.2.3,MacIntel,60.24096386,4,1,13,0.159975857,-0.008605754,1,0,1,1.2311,rock_grid_rect_2,6,07,-1,-1,1.231,-0.033637695,-0.380845337,1,0,1,5.2743,Pegmatite_rect,6,5.274,1,12,0,12,0,1,,,,,,,,,,,,,
64d523f4ad7f5e602c479ad1,TCN,2024-06-24_18h28.42.261,LearnStrategy,2023.2.3,MacIntel,60.24096386,4,1,14,0.048044434,0.006247762,1,0,1,3.6615,rock_grid_rect_2,7,13,-1,-1,3.661,0.158313124,-0.385673692,1,0,1,22.9565,Peridotite_rect,7,22.957,1,13,0,13,0,1,,,,,,,,,,,,,
64d523f4ad7f5e602c479ad1,TCN,2024-06-24_18h28.42.261,LearnStrategy,2023.2.3,MacIntel,60.24096386,4,1,15,0.13837755,-0.008972846,1,0,1,1.3319,rock_grid_rect_2,2,09,-1,-1,1.332,-0.072499661,-0.23057251,1,0,1,6.2658,Basalt_rect,2,6.266,1,14,0,14,0,1,,,,,,,,,,,,,
64d523f4ad7f5e602c479ad1,TCN,2024-06-24_18h28.42.261,LearnStrategy,2023.2.3,MacIntel,60.24096386,4,1,16,0.132070787,-0.003925612,1,0,1,2.2224,rock_grid_rect_2,4,03,-1,-1,2.222,0.382497965,-0.245881619,1,0,1,17.329,Gabbro_rect,4,17.329,1,15,0,15,0,1,,,,,,,,,,,,,
64d523f4ad7f5e602c479ad1,TCN,2024-06-24_18h28.42.261,LearnStrategy,2023.2.3,MacIntel,60.24096386,4,2,1,,,,,,,,7,02,,,,,,,,,,,7,23.644,1,,,,,,0.111254679,-0.414173109,1,0,1,23.6436,Peridotite_rect,0,0,0,0,1,
64d523f4ad7f5e602c479ad1,TCN,2024-06-24_18h28.42.261,LearnStrategy,2023.2.3,MacIntel,60.24096386,4,2,2,,,,,,,,5,16,,,,,,,,,,,5,1.276,1,,,,,,-0.302399597,-0.385634359,1,0,1,1.2761,Obsidian_rect,1,0,1,0,1,
64d523f4ad7f5e602c479ad1,TCN,2024-06-24_18h28.42.261,LearnStrategy,2023.2.3,MacIntel,60.24096386,4,2,3,,,,,,,,1,07,,,,,,,,,,,3,11.318,0,,,,,,0.040852593,-0.253278876,1,0,1,11.3177,Diorite_rect,2,0,2,0,1,
64d523f4ad7f5e602c479ad1,TCN,2024-06-24_18h28.42.261,LearnStrategy,2023.2.3,MacIntel,60.24096386,4,2,4,,,,,,,,5,10,,,,,,,,,,,5,1.196,1,,,,,,-0.435645718,-0.406234199,1,0,1,1.1961,Obsidian_rect,3,0,3,0,1,
64d523f4ad7f5e602c479ad1,TCN,2024-06-24_18h28.42.261,LearnStrategy,2023.2.3,MacIntel,60.24096386,4,2,5,,,,,,,,7,04,,,,,,,,,,,8,15.117,0,,,,,,0.409699843,-0.40727634,1,0,0,15.1168,Pumice_rect,4,0,4,0,1,
64d523f4ad7f5e602c479ad1,TCN,2024-06-24_18h28.42.261,LearnStrategy,2023.2.3,MacIntel,60.24096386,4,2,6,,,,,,,,2,16,,,,,,,,,,,8,5.34,0,,,,,,0.414273817,-0.401396484,1,0,0,5.3403,Pumice_rect,5,0,5,0,1,
64d523f4ad7f5e602c479ad1,TCN,2024-06-24_18h28.42.261,LearnStrategy,2023.2.3,MacIntel,60.24096386,4,2,7,,,,,,,,3,09,,,,,,,,,,,3,6.124,1,,,,,,0.149659763,-0.268643256,1,0,0,6.1242,Diorite_rect,6,0,6,0,1,
64d523f4ad7f5e602c479ad1,TCN,2024-06-24_18h28.42.261,LearnStrategy,2023.2.3,MacIntel,60.24096386,4,2,8,,,,,,,,6,09,,,,,,,,,,,7,8.995,0,,,,,,0.130879178,-0.411545139,1,0,0,8.9949,Peridotite_rect,7,0,7,0,1,
64d523f4ad7f5e602c479ad1,TCN,2024-06-24_18h28.42.261,LearnStrategy,2023.2.3,MacIntel,60.24096386,4,2,9,,,,,,,,8,05,,,,,,,,,,,8,2.12,1,,,,,,0.353542616,-0.408090074,1,0,0,2.1203,Pumice_rect,8,0,8,0,1,
64d523f4ad7f5e602c479ad1,TCN,2024-06-24_18h28.42.261,LearnStrategy,2023.2.3,MacIntel,60.24096386,4,2,10,,,,,,,,2,02,,,,,,,,,,,2,2.642,1,,,,,,-0.130263062,-0.271356608,1,0,0,2.6421,Basalt_rect,9,0,9,0,1,
64d523f4ad7f5e602c479ad1,TCN,2024-06-24_18h28.42.261,LearnStrategy,2023.2.3,MacIntel,60.24096386,4,2,11,,,,,,,,3,13,,,,,,,,,,,6,4.539,0,,,,,,-0.070744493,-0.384467909,1,0,0,4.5393,Pegmatite_rect,10,0,10,0,1,
64d523f4ad7f5e602c479ad1,TCN,2024-06-24_18h28.42.261,LearnStrategy,2023.2.3,MacIntel,60.24096386,4,2,12,,,,,,,,8,04,,,,,,,,,,,8,1.135,1,,,,,,0.456939019,-0.40798367,1,0,0,1.1351,Pumice_rect,11,0,11,0,1,
64d523f4ad7f5e602c479ad1,TCN,2024-06-24_18h28.42.261,LearnStrategy,2023.2.3,MacIntel,60.24096386,4,2,13,,,,,,,,4,12,,,,,,,,,,,2,9.341,0,,,,,,-0.075839572,-0.256221449,1,0,0,9.341,Basalt_rect,12,0,12,0,1,
64d523f4ad7f5e602c479ad1,TCN,2024-06-24_18h28.42.261,LearnStrategy,2023.2.3,MacIntel,60.24096386,4,2,14,,,,,,,,6,12,,,,,,,,,,,6,29.55,1,,,,,,-0.128854031,-0.391186795,1,0,0,29.5497,Pegmatite_rect,13,0,13,0,1,
64d523f4ad7f5e602c479ad1,TCN,2024-06-24_18h28.42.261,LearnStrategy,2023.2.3,MacIntel,60.24096386,4,2,15,,,,,,,,1,16,,,,,,,,,,,1,3.488,1,,,,,,-0.416901686,-0.253671739,1,0,0,3.488,Andesite_rect,14,0,14,0,1,
64d523f4ad7f5e602c479ad1,TCN,2024-06-24_18h28.42.261,LearnStrategy,2023.2.3,MacIntel,60.24096386,4,2,16,,,,,,,,4,16,,,,,,,,,,,2,21.412,0,,,,,,-0.142870687,-0.266053128,1,0,0,21.4122,Basalt_rect,15,0,15,0,1,
64d523f4ad7f5e602c479ad1,TCN,2024-06-24_18h28.42.261,LearnStrategy,2023.2.3,MacIntel,60.24096386,5,1,1,-0.059176839,-0.012479621,1,0,0,51.3805,rock_grid_rect_2,1,14,-1,-1,51.38,0.093162503,-0.271682468,1,0,0,9.3364,Diorite_rect,3,9.336,0,0,0,0,0,1,,,,,,,,,,,,,
64d523f4ad7f5e602c479ad1,TCN,2024-06-24_18h28.42.261,LearnStrategy,2023.2.3,MacIntel,60.24096386,5,1,2,0.056167331,-0.011709425,1,0,0,1.2128,rock_grid_rect_2,1,03,-1,-1,1.213,-0.413015781,-0.256249051,1,0,0,8.7216,Andesite_rect,1,8.722,1,1,0,1,0,1,,,,,,,,,,,,,
64d523f4ad7f5e602c479ad1,TCN,2024-06-24_18h28.42.261,LearnStrategy,2023.2.3,MacIntel,60.24096386,5,1,3,0.083558485,0.00217353,1,0,0,1.0651,rock_grid_rect_2,5,12,-1,-1,1.065,-0.356926303,-0.382368707,1,0,0,1.057,Obsidian_rect,5,1.057,1,2,0,2,0,1,,,,,,,,,,,,,
64d523f4ad7f5e602c479ad1,TCN,2024-06-24_18h28.42.261,LearnStrategy,2023.2.3,MacIntel,60.24096386,5,1,4,0.021622586,0.012237651,1,0,0,1.2149,rock_grid_rect_2,6,11,-1,-1,1.215,-0.158600939,-0.395044217,1,0,0,11.029,Pegmatite_rect,6,11.029,1,3,0,3,0,1,,,,,,,,,,,,,
64d523f4ad7f5e602c479ad1,TCN,2024-06-24_18h28.42.261,LearnStrategy,2023.2.3,MacIntel,60.24096386,5,1,5,-0.042080349,-0.020447964,1,0,0,1.363,rock_grid_rect_2,4,01,-1,-1,1.363,0.412677951,-0.257163968,1,0,0,6.3081,Gabbro_rect,4,6.308,1,4,0,4,0,1,,,,,,,,,,,,,
64d523f4ad7f5e602c479ad1,TCN,2024-06-24_18h28.42.261,LearnStrategy,2023.2.3,MacIntel,60.24096386,5,1,6,0.05234687,-0.013262126,1,0,0,1.2819,rock_grid_rect_2,7,12,-1,-1,1.282,0.126447008,-0.418744575,1,0,0,17.1834,Peridotite_rect,7,17.183,1,5,0,5,0,1,,,,,,,,,,,,,
64d523f4ad7f5e602c479ad1,TCN,2024-06-24_18h28.42.261,LearnStrategy,2023.2.3,MacIntel,60.24096386,5,1,7,0.076850789,-0.016968723,1,0,0,1.2626,rock_grid_rect_2,2,14,-1,-1,1.263,0.360425483,-0.233566352,1,0,0,1.9178,Gabbro_rect,4,1.918,0,6,0,6,0,1,,,,,,,,,,,,,
64d523f4ad7f5e602c479ad1,TCN,2024-06-24_18h28.42.261,LearnStrategy,2023.2.3,MacIntel,60.24096386,5,1,8,0.102430013,-0.01062205,1,0,0,1.3141,rock_grid_rect_2,2,10,-1,-1,1.314,-0.125557387,-0.255803358,1,0,0,1.8628,Basalt_rect,2,1.863,1,7,0,7,0,1,,,,,,,,,,,,,
64d523f4ad7f5e602c479ad1,TCN,2024-06-24_18h28.42.261,LearnStrategy,2023.2.3,MacIntel,60.24096386,5,1,9,0.070411648,-0.010095181,1,0,0,1.3974,rock_grid_rect_2,5,11,-1,-1,1.397,-0.415601942,-0.408379652,1,0,0,5.1056,Obsidian_rect,5,5.106,1,8,0,8,0,1,,,,,,,,,,,,,
64d523f4ad7f5e602c479ad1,TCN,2024-06-24_18h28.42.261,LearnStrategy,2023.2.3,MacIntel,60.24096386,5,1,10,-0.025276896,0.00025923,1,0,0,5.0102,rock_grid_rect_2,3,10,-1,-1,5.01,0.110031196,-0.263015815,1,0,0,7.7635,Diorite_rect,3,7.764,1,9,0,9,0,1,,,,,,,,,,,,,
64d523f4ad7f5e602c479ad1,TCN,2024-06-24_18h28.42.261,LearnStrategy,2023.2.3,MacIntel,60.24096386,5,1,11,0.004636027,-0.000213114,1,0,0,3.2846,rock_grid_rect_2,8,15,-1,-1,3.285,0.418997938,-0.402933485,1,0,0,1.6441,Pumice_rect,8,1.644,1,10,0,10,0,1,,,,,,,,,,,,,
64d523f4ad7f5e602c479ad1,TCN,2024-06-24_18h28.42.261,LearnStrategy,2023.2.3,MacIntel,60.24096386,5,1,12,0.132333171,-0.019873827,1,0,0,1.213,rock_grid_rect_2,3,11,-1,-1,1.213,0.08189643,-0.266751573,1,0,0,2.949,Diorite_rect,3,2.949,1,11,0,11,0,1,,,,,,,,,,,,,
64d523f4ad7f5e602c479ad1,TCN,2024-06-24_18h28.42.261,LearnStrategy,2023.2.3,MacIntel,60.24096386,5,1,13,0.041772732,-0.00891432,1,0,0,1.2464,rock_grid_rect_2,6,10,-1,-1,1.246,0.125519748,-0.416017999,1,0,0,3.4114,Peridotite_rect,7,3.411,0,12,0,12,0,1,,,,,,,,,,,,,
64d523f4ad7f5e602c479ad1,TCN,2024-06-24_18h28.42.261,LearnStrategy,2023.2.3,MacIntel,60.24096386,5,1,14,0.1604815,0.001729194,1,0,0,1.53,rock_grid_rect_2,7,06,-1,-1,1.53,0.167083672,-0.419199626,1,0,0,1.7976,Peridotite_rect,7,1.798,1,13,0,13,0,1,,,,,,,,,,,,,
64d523f4ad7f5e602c479ad1,TCN,2024-06-24_18h28.42.261,LearnStrategy,2023.2.3,MacIntel,60.24096386,5,1,15,0.006657376,0.003850505,1,0,0,2.7472,rock_grid_rect_2,4,15,-1,-1,2.747,-0.144116821,-0.260697971,1,0,0,5.1062,Basalt_rect,2,5.106,0,14,0,14,0,1,,,,,,,,,,,,,
64d523f4ad7f5e602c479ad1,TCN,2024-06-24_18h28.42.261,LearnStrategy,2023.2.3,MacIntel,60.24096386,5,1,16,0.1147288,0.002901374,1,0,0,1.5966,rock_grid_rect_2,8,06,-1,-1,1.597,0.382886285,-0.403295966,1,0,0,2.1084,Pumice_rect,8,2.108,1,15,0,15,0,1,,,,,,,,,,,,,
64d523f4ad7f5e602c479ad1,TCN,2024-06-24_18h28.42.261,LearnStrategy,2023.2.3,MacIntel,60.24096386,5,2,1,,,,,,,,7,07,,,,,,,,,,,2,3.553,0,,,,,,-0.082722575,-0.267362603,1,0,0,3.5528,Basalt_rect,0,0,0,0,1,
64d523f4ad7f5e602c479ad1,TCN,2024-06-24_18h28.42.261,LearnStrategy,2023.2.3,MacIntel,60.24096386,5,2,2,,,,,,,,3,07,,,,,,,,,,,2,2.973,0,,,,,,-0.071001723,-0.260528225,1,0,0,2.9731,Basalt_rect,1,0,1,0,1,
64d523f4ad7f5e602c479ad1,TCN,2024-06-24_18h28.42.261,LearnStrategy,2023.2.3,MacIntel,60.24096386,5,2,3,,,,,,,,3,15,,,,,,,,,,,1,13.666,0,,,,,,-0.377436354,-0.251212226,1,0,0,13.6656,Andesite_rect,2,0,2,0,1,
64d523f4ad7f5e602c479ad1,TCN,2024-06-24_18h28.42.261,LearnStrategy,2023.2.3,MacIntel,60.24096386,5,2,4,,,,,,,,7,05,,,,,,,,,,,7,6.516,1,,,,,,0.091273329,-0.415804782,1,0,0,6.5163,Peridotite_rect,3,0,3,0,1,
64d523f4ad7f5e602c479ad1,TCN,2024-06-24_18h28.42.261,LearnStrategy,2023.2.3,MacIntel,60.24096386,5,2,5,,,,,,,,6,15,,,,,,,,,,,6,13.212,1,,,,,,-0.04561225,-0.405578681,1,0,0,13.2124,Pegmatite_rect,4,0,4,0,1,
64d523f4ad7f5e602c479ad1,TCN,2024-06-24_18h28.42.261,LearnStrategy,2023.2.3,MacIntel,60.24096386,5,2,6,,,,,,,,2,04,,,,,,,,,,,4,13.58,0,,,,,,0.361158447,-0.256032986,1,0,0,13.58,Gabbro_rect,5,0,5,0,1,
64d523f4ad7f5e602c479ad1,TCN,2024-06-24_18h28.42.261,LearnStrategy,2023.2.3,MacIntel,60.24096386,5,2,7,,,,,,,,6,03,,,,,,,,,,,6,2.919,1,,,,,,-0.139374661,-0.404573161,1,0,0,2.9194,Pegmatite_rect,6,0,6,0,1,
64d523f4ad7f5e602c479ad1,TCN,2024-06-24_18h28.42.261,LearnStrategy,2023.2.3,MacIntel,60.24096386,5,2,8,,,,,,,,5,09,,,,,,,,,,,5,2.006,1,,,,,,-0.363858473,-0.395489299,1,0,0,2.006,Obsidian_rect,7,0,7,0,1,
64d523f4ad7f5e602c479ad1,TCN,2024-06-24_18h28.42.261,LearnStrategy,2023.2.3,MacIntel,60.24096386,5,2,9,,,,,,,,4,11,,,,,,,,,,,2,5.819,0,,,,,,-0.142780151,-0.255439521,1,0,0,5.8188,Basalt_rect,8,0,8,0,1,
64d523f4ad7f5e602c479ad1,TCN,2024-06-24_18h28.42.261,LearnStrategy,2023.2.3,MacIntel,60.24096386,5,2,10,,,,,,,,4,08,,,,,,,,,,,2,1.088,0,,,,,,-0.142780151,-0.255439521,1,0,0,1.0877,Basalt_rect,9,0,9,0,1,
64d523f4ad7f5e602c479ad1,TCN,2024-06-24_18h28.42.261,LearnStrategy,2023.2.3,MacIntel,60.24096386,5,2,11,,,,,,,,1,04,,,,,,,,,,,3,4.587,0,,,,,,0.143739827,-0.256963772,1,0,0,4.5866,Diorite_rect,10,0,10,0,1,
64d523f4ad7f5e602c479ad1,TCN,2024-06-24_18h28.42.261,LearnStrategy,2023.2.3,MacIntel,60.24096386,5,2,12,,,,,,,,2,11,,,,,,,,,,,2,12.846,1,,,,,,-0.122298855,-0.246852892,1,0,0,12.846,Basalt_rect,11,0,11,0,1,
64d523f4ad7f5e602c479ad1,TCN,2024-06-24_18h28.42.261,LearnStrategy,2023.2.3,MacIntel,60.24096386,5,2,13,,,,,,,,8,03,,,,,,,,,,,8,1.389,1,,,,,,0.383913845,-0.395810411,1,0,0,1.3886,Pumice_rect,12,0,12,0,1,
64d523f4ad7f5e602c479ad1,TCN,2024-06-24_18h28.42.261,LearnStrategy,2023.2.3,MacIntel,60.24096386,5,2,14,,,,,,,,8,09,,,,,,,,,,,8,6.152,1,,,,,,0.389262695,-0.393050469,1,0,0,6.1523,Pumice_rect,13,0,13,0,1,
64d523f4ad7f5e602c479ad1,TCN,2024-06-24_18h28.42.261,LearnStrategy,2023.2.3,MacIntel,60.24096386,5,2,15,,,,,,,,5,05,,,,,,,,,,,5,1.188,1,,,,,,-0.372800395,-0.421634318,1,0,0,1.1879,Obsidian_rect,14,0,14,0,1,
64d523f4ad7f5e602c479ad1,TCN,2024-06-24_18h28.42.261,LearnStrategy,2023.2.3,MacIntel,60.24096386,5,2,16,,,,,,,,1,01,,,,,,,,,,,4,4.322,0,,,,,,0.428682319,-0.267450155,1,0,0,4.3221,Gabbro_rect,15,0,15,0,1,
64d523f4ad7f5e602c479ad1,TCN,2024-06-24_18h28.42.261,LearnStrategy,2023.2.3,MacIntel,60.24096386,6,1,1,0.141778564,0.007662116,1,0,0,1.2964,rock_grid_rect_2,6,16,-1,-1,1.296,-0.078821072,-0.394640978,1,0,0,7.4533,Pegmatite_rect,6,7.453,1,0,0,0,0,1,,,,,,,,,,,,,
64d523f4ad7f5e602c479ad1,TCN,2024-06-24_18h28.42.261,LearnStrategy,2023.2.3,MacIntel,60.24096386,6,1,2,0.050119222,-0.014372491,1,0,0,1.295,rock_grid_rect_2,6,08,-1,-1,1.295,-0.103180271,-0.402186347,1,0,0,1.2547,Pegmatite_rect,6,1.255,1,1,0,1,0,1,,,,,,,,,,,,,
64d523f4ad7f5e602c479ad1,TCN,2024-06-24_18h28.42.261,LearnStrategy,2023.2.3,MacIntel,60.24096386,6,1,3,0.073402913,-0.010361837,1,0,0,1.4288,rock_grid_rect_2,2,06,-1,-1,1.429,-0.053599243,-0.260549927,1,0,0,1.4561,Basalt_rect,2,1.456,1,2,0,2,0,1,,,,,,,,,,,,,
64d523f4ad7f5e602c479ad1,TCN,2024-06-24_18h28.42.261,LearnStrategy,2023.2.3,MacIntel,60.24096386,6,1,4,0.06168179,-0.010234341,1,0,0,1.1636,rock_grid_rect_2,8,14,-1,-1,1.164,0.384882134,-0.39413425,1,0,0,1.0241,Pumice_rect,8,1.024,1,3,0,3,0,1,,,,,,,,,,,,,
64d523f4ad7f5e602c479ad1,TCN,2024-06-24_18h28.42.261,LearnStrategy,2023.2.3,MacIntel,60.24096386,6,1,5,0.016003486,0.007285394,1,0,0,0.9968,rock_grid_rect_2,3,08,-1,-1,0.997,0.100825467,-0.270137804,1,0,0,7.6531,Diorite_rect,3,7.653,1,4,0,4,0,1,,,,,,,,,,,,,
64d523f4ad7f5e602c479ad1,TCN,2024-06-24_18h28.42.261,LearnStrategy,2023.2.3,MacIntel,60.24096386,6,1,6,0.102995266,0.013274299,1,0,0,1.4627,rock_grid_rect_2,7,15,-1,-1,1.463,0.097989299,-0.400235731,1,0,0,6.7194,Peridotite_rect,7,6.719,1,5,0,5,0,1,,,,,,,,,,,,,
64d523f4ad7f5e602c479ad1,TCN,2024-06-24_18h28.42.261,LearnStrategy,2023.2.3,MacIntel,60.24096386,6,1,7,0.038496772,-0.00808041,1,0,0,0.9639,rock_grid_rect_2,4,10,-1,-1,0.964,-0.338116964,-0.240781996,1,0,0,15.5117,Andesite_rect,1,15.512,0,6,0,6,0,1,,,,,,,,,,,,,
64d523f4ad7f5e602c479ad1,TCN,2024-06-24_18h28.42.261,LearnStrategy,2023.2.3,MacIntel,60.24096386,6,1,8,0.04899292,-0.004895155,1,0,0,1.5953,rock_grid_rect_2,5,06,-1,-1,1.595,-0.39890842,-0.4071875,1,0,0,1.5238,Obsidian_rect,5,1.524,1,7,0,7,0,1,,,,,,,,,,,,,
64d523f4ad7f5e602c479ad1,TCN,2024-06-24_18h28.42.261,LearnStrategy,2023.2.3,MacIntel,60.24096386,6,1,9,0.025299072,0.009102105,1,0,0,1.1966,rock_grid_rect_2,3,02,-1,-1,1.197,0.111196357,-0.251535102,1,0,0,11.3511,Diorite_rect,3,11.351,1,8,0,8,0,1,,,,,,,,,,,,,
64d523f4ad7f5e602c479ad1,TCN,2024-06-24_18h28.42.261,LearnStrategy,2023.2.3,MacIntel,60.24096386,6,1,10,0.013909641,0.013185391,1,0,0,0.9958,rock_grid_rect_2,5,07,-1,-1,0.996,-0.379554511,-0.387777574,1,0,0,2.1551,Obsidian_rect,5,2.155,1,9,0,9,0,1,,,,,,,,,,,,,
64d523f4ad7f5e602c479ad1,TCN,2024-06-24_18h28.42.261,LearnStrategy,2023.2.3,MacIntel,60.24096386,6,1,11,0.066221042,-0.002190416,1,0,0,1.2968,rock_grid_rect_2,8,16,-1,-1,1.297,0.425547146,-0.410242581,1,0,0,1.5557,Pumice_rect,8,1.556,1,10,0,10,0,1,,,,,,,,,,,,,
64d523f4ad7f5e602c479ad1,TCN,2024-06-24_18h28.42.261,LearnStrategy,2023.2.3,MacIntel,60.24096386,6,1,12,0.071234809,-0.014693671,1,0,0,1.0636,rock_grid_rect_2,2,08,-1,-1,1.064,-0.207044813,-0.256995443,1,0,0,4.32,Basalt_rect,2,4.32,1,11,0,11,0,1,,,,,,,,,,,,,
64d523f4ad7f5e602c479ad1,TCN,2024-06-24_18h28.42.261,LearnStrategy,2023.2.3,MacIntel,60.24096386,6,1,13,0.133002184,-0.013615282,1,0,0,1.1615,rock_grid_rect_2,1,11,-1,-1,1.161,-0.382604065,-0.236476373,1,0,0,8.2516,Andesite_rect,1,8.252,1,12,0,12,0,1,,,,,,,,,,,,,
64d523f4ad7f5e602c479ad1,TCN,2024-06-24_18h28.42.261,LearnStrategy,2023.2.3,MacIntel,60.24096386,6,1,14,0.123515896,-0.019190945,1,0,0,1.1631,rock_grid_rect_2,1,02,-1,-1,1.163,-0.353512811,-0.247171292,1,0,0,1.0879,Andesite_rect,1,1.088,1,13,0,13,0,1,,,,,,,,,,,,,
64d523f4ad7f5e602c479ad1,TCN,2024-06-24_18h28.42.261,LearnStrategy,2023.2.3,MacIntel,60.24096386,6,1,15,0.075319417,-0.003139004,1,0,0,1.0631,rock_grid_rect_2,4,09,-1,-1,1.063,-0.04766276,-0.242988485,1,0,0,1.324,Basalt_rect,2,1.324,0,14,0,14,0,1,,,,,,,,,,,,,
64d523f4ad7f5e602c479ad1,TCN,2024-06-24_18h28.42.261,LearnStrategy,2023.2.3,MacIntel,60.24096386,6,1,16,0.043222114,-0.015731371,1,0,0,1.1975,rock_grid_rect_2,7,08,-1,-1,1.198,0.161629028,-0.401080119,1,0,0,9.2829,Peridotite_rect,7,9.283,1,15,0,15,0,1,,,,,,,,,,,,,
64d523f4ad7f5e602c479ad1,TCN,2024-06-24_18h28.42.261,LearnStrategy,2023.2.3,MacIntel,60.24096386,6,2,1,,,,,,,,1,09,,,,,,,,,,,1,10.85,1,,,,,,-0.335038249,-0.253576525,1,0,0,10.8497,Andesite_rect,0,0,0,0,1,
64d523f4ad7f5e602c479ad1,TCN,2024-06-24_18h28.42.261,LearnStrategy,2023.2.3,MacIntel,60.24096386,6,2,2,,,,,,,,1,05,,,,,,,,,,,1,1.554,1,,,,,,-0.390927327,-0.257247314,1,0,0,1.5543,Andesite_rect,1,0,1,0,1,
64d523f4ad7f5e602c479ad1,TCN,2024-06-24_18h28.42.261,LearnStrategy,2023.2.3,MacIntel,60.24096386,6,2,3,,,,,,,,4,14,,,,,,,,,,,2,2.691,0,,,,,,-0.094054837,-0.269954631,1,0,0,2.6906,Basalt_rect,2,0,2,0,1,
64d523f4ad7f5e602c479ad1,TCN,2024-06-24_18h28.42.261,LearnStrategy,2023.2.3,MacIntel,60.24096386,6,2,4,,,,,,,,5,14,,,,,,,,,,,5,1.207,1,,,,,,-0.371787957,-0.400631443,1,0,0,1.2075,Obsidian_rect,3,0,3,0,1,
64d523f4ad7f5e602c479ad1,TCN,2024-06-24_18h28.42.261,LearnStrategy,2023.2.3,MacIntel,60.24096386,6,2,5,,,,,,,,5,04,,,,,,,,,,,5,0.721,1,,,,,,-0.361707526,-0.390140042,1,0,0,0.7213,Obsidian_rect,4,0,4,0,1,
64d523f4ad7f5e602c479ad1,TCN,2024-06-24_18h28.42.261,LearnStrategy,2023.2.3,MacIntel,60.24096386,6,2,6,,,,,,,,2,12,,,,,,,,,,,8,4.852,0,,,,,,0.467056342,-0.396985677,1,0,0,4.8516,Pumice_rect,5,0,5,0,1,
64d523f4ad7f5e602c479ad1,TCN,2024-06-24_18h28.42.261,LearnStrategy,2023.2.3,MacIntel,60.24096386,6,2,7,,,,,,,,6,06,,,,,,,,,,,6,15.813,1,,,,,,-0.0828911,-0.391077677,1,0,0,15.8129,Pegmatite_rect,6,0,6,0,1,
64d523f4ad7f5e602c479ad1,TCN,2024-06-24_18h28.42.261,LearnStrategy,2023.2.3,MacIntel,60.24096386,6,2,8,,,,,,,,8,10,,,,,,,,,,,8,1.122,1,,,,,,0.470943197,-0.3936655,1,0,0,1.1218,Pumice_rect,7,0,7,0,1,
64d523f4ad7f5e602c479ad1,TCN,2024-06-24_18h28.42.261,LearnStrategy,2023.2.3,MacIntel,60.24096386,6,2,9,,,,,,,,3,14,,,,,,,,,,,3,5.552,1,,,,,,0.136140408,-0.25218472,1,0,0,5.5521,Diorite_rect,8,0,8,0,1,
64d523f4ad7f5e602c479ad1,TCN,2024-06-24_18h28.42.261,LearnStrategy,2023.2.3,MacIntel,60.24096386,6,2,10,,,,,,,,8,13,,,,,,,,,,,8,2.691,1,,,,,,0.368352186,-0.39927124,1,0,0,2.6908,Pumice_rect,9,0,9,0,1,
64d523f4ad7f5e602c479ad1,TCN,2024-06-24_18h28.42.261,LearnStrategy,2023.2.3,MacIntel,60.24096386,6,2,11,,,,,,,,6,05,,,,,,,,,,,5,2.687,0,,,,,,-0.308058607,-0.37986145,1,0,0,2.687,Obsidian_rect,10,0,10,0,1,
64d523f4ad7f5e602c479ad1,TCN,2024-06-24_18h28.42.261,LearnStrategy,2023.2.3,MacIntel,60.24096386,6,2,12,,,,,,,,3,16,,,,,,,,,,,3,2.016,1,,,,,,0.172902561,-0.251018812,1,0,0,2.0163,Diorite_rect,11,0,11,0,1,
64d523f4ad7f5e602c479ad1,TCN,2024-06-24_18h28.42.261,LearnStrategy,2023.2.3,MacIntel,60.24096386,6,2,13,,,,,,,,4,05,,,,,,,,,,,4,6.619,1,,,,,,0.36070516,-0.261077406,1,0,0,6.6191,Gabbro_rect,12,0,12,0,1,
64d523f4ad7f5e602c479ad1,TCN,2024-06-24_18h28.42.261,LearnStrategy,2023.2.3,MacIntel,60.24096386,6,2,14,,,,,,,,7,16,,,,,,,,,,,4,0.955,0,,,,,,0.36070516,-0.261077406,1,0,0,0.9547,Gabbro_rect,13,0,13,0,1,
64d523f4ad7f5e602c479ad1,TCN,2024-06-24_18h28.42.261,LearnStrategy,2023.2.3,MacIntel,60.24096386,6,2,15,,,,,,,,7,14,,,,,,,,,,,8,5.851,0,,,,,,0.453787842,-0.416204291,1,0,0,5.8508,Pumice_rect,14,0,14,0,1,
64d523f4ad7f5e602c479ad1,TCN,2024-06-24_18h28.42.261,LearnStrategy,2023.2.3,MacIntel,60.24096386,6,2,16,,,,,,,,2,01,,,,,,,,,,,4,6.584,0,,,,,,0.407959391,-0.25229343,1,0,0,6.5837,Gabbro_rect,15,0,15,0,1,
64d523f4ad7f5e602c479ad1,TCN,2024-06-24_18h28.42.261,LearnStrategy,2023.2.3,MacIntel,60.24096386,7,1,1,0.189462484,-0.014708116,1,0,0,1.1651,rock_grid_rect_2,6,16,-1,-1,1.165,-0.114479777,-0.406870388,1,0,0,8.1846,Pegmatite_rect,6,8.185,1,0,0,0,0,1,,,,,,,,,,,,,
64d523f4ad7f5e602c479ad1,TCN,2024-06-24_18h28.42.261,LearnStrategy,2023.2.3,MacIntel,60.24096386,7,1,2,0.136925252,0.003483887,1,0,0,1.8947,rock_grid_rect_2,2,05,-1,-1,1.895,0.365017361,-0.241315986,1,0,0,2.8545,Gabbro_rect,4,2.855,0,1,0,1,0,1,,,,,,,,,,,,,
64d523f4ad7f5e602c479ad1,TCN,2024-06-24_18h28.42.261,LearnStrategy,2023.2.3,MacIntel,60.24096386,7,1,3,0.120583632,-0.001283875,1,0,0,1.3962,rock_grid_rect_2,7,15,-1,-1,1.396,0.089738905,-0.4065016,1,0,0,10.4832,Peridotite_rect,7,10.483,1,2,0,2,0,1,,,,,,,,,,,,,
64d523f4ad7f5e602c479ad1,TCN,2024-06-24_18h28.42.261,LearnStrategy,2023.2.3,MacIntel,60.24096386,7,1,4,0.034865858,-0.001309238,1,0,0,19.2857,rock_grid_rect_2,5,07,-1,-1,19.286,-0.365030348,-0.396961806,1,0,0,2.8852,Obsidian_rect,5,2.885,1,3,0,3,0,1,,,,,,,,,,,,,
64d523f4ad7f5e602c479ad1,TCN,2024-06-24_18h28.42.261,LearnStrategy,2023.2.3,MacIntel,60.24096386,7,1,5,0.097437744,0.018642341,1,0,0,1.3641,rock_grid_rect_2,7,13,-1,-1,1.364,0.090266385,-0.414321493,1,0,0,4.0836,Peridotite_rect,7,4.084,1,4,0,4,0,1,,,,,,,,,,,,,
64d523f4ad7f5e602c479ad1,TCN,2024-06-24_18h28.42.261,LearnStrategy,2023.2.3,MacIntel,60.24096386,7,1,6,0.067886013,-0.023496094,1,0,0,1.114,rock_grid_rect_2,4,01,-1,-1,1.114,0.428384738,-0.242431437,1,0,0,16.952,Gabbro_rect,4,16.952,1,5,0,5,0,1,,,,,,,,,,,,,
64d523f4ad7f5e602c479ad1,TCN,2024-06-24_18h28.42.261,LearnStrategy,2023.2.3,MacIntel,60.24096386,7,1,7,0.137332764,-0.001818373,1,0,0,1.1954,rock_grid_rect_2,5,12,-1,-1,1.195,-0.36429206,-0.399277547,1,0,0,1.0579,Obsidian_rect,5,1.058,1,6,0,6,0,1,,,,,,,,,,,,,
64d523f4ad7f5e602c479ad1,TCN,2024-06-24_18h28.42.261,LearnStrategy,2023.2.3,MacIntel,60.24096386,7,1,8,0.129336887,-0.00490604,1,0,0,1.4153,rock_grid_rect_2,3,10,-1,-1,1.415,0.116831868,-0.251752455,1,0,0,2.9749,Diorite_rect,3,2.975,1,7,0,7,0,1,,,,,,,,,,,,,
64d523f4ad7f5e602c479ad1,TCN,2024-06-24_18h28.42.261,LearnStrategy,2023.2.3,MacIntel,60.24096386,7,1,9,0.027491726,-0.009714389,1,0,0,1.0024,rock_grid_rect_2,8,15,-1,-1,1.002,0.41156901,-0.396081136,1,0,0,1.7737,Pumice_rect,8,1.774,1,8,0,8,0,1,,,,,,,,,,,,,
64d523f4ad7f5e602c479ad1,TCN,2024-06-24_18h28.42.261,LearnStrategy,2023.2.3,MacIntel,60.24096386,7,1,10,0.057887912,-0.009181993,1,0,0,1.4323,rock_grid_rect_2,8,16,-1,-1,1.432,0.402953423,-0.406268989,1,0,0,6.792,Pumice_rect,8,6.792,1,9,0,9,0,1,,,,,,,,,,,,,
64d523f4ad7f5e602c479ad1,TCN,2024-06-24_18h28.42.261,LearnStrategy,2023.2.3,MacIntel,60.24096386,7,1,11,0.120039537,-0.006189643,1,0,0,1.1124,rock_grid_rect_2,1,02,-1,-1,1.112,0.444670953,-0.252546048,1,0,0,6.5401,Gabbro_rect,4,6.54,0,10,0,10,0,1,,,,,,,,,,,,,
64d523f4ad7f5e602c479ad1,TCN,2024-06-24_18h28.42.261,LearnStrategy,2023.2.3,MacIntel,60.24096386,7,1,12,0.117318997,-0.010526259,1,0,0,1.3463,rock_grid_rect_2,1,11,-1,-1,1.346,0.40810045,-0.2564603,1,0,0,7.9432,Gabbro_rect,4,7.943,0,11,0,11,0,1,,,,,,,,,,,,,
64d523f4ad7f5e602c479ad1,TCN,2024-06-24_18h28.42.261,LearnStrategy,2023.2.3,MacIntel,60.24096386,7,1,13,0.158466865,-0.001469252,1,0,0,1.0997,rock_grid_rect_2,6,10,-1,-1,1.1,-0.086058621,-0.39236579,1,0,0,2.6767,Pegmatite_rect,6,2.677,1,12,0,12,0,1,,,,,,,,,,,,,
64d523f4ad7f5e602c479ad1,TCN,2024-06-24_18h28.42.261,LearnStrategy,2023.2.3,MacIntel,60.24096386,7,1,14,0.175202433,-0.00185218,1,0,0,1.1809,rock_grid_rect_2,3,02,-1,-1,1.181,0.170789388,-0.257152235,1,0,0,1.9885,Diorite_rect,3,1.988,1,13,0,13,0,1,,,,,,,,,,,,,
64d523f4ad7f5e602c479ad1,TCN,2024-06-24_18h28.42.261,LearnStrategy,2023.2.3,MacIntel,60.24096386,7,1,15,0.155333049,-0.005696784,1,0,0,1.1636,rock_grid_rect_2,2,10,-1,-1,1.164,-0.136839871,-0.248333469,1,0,0,2.7907,Basalt_rect,2,2.791,1,14,0,14,0,1,,,,,,,,,,,,,
64d523f4ad7f5e602c479ad1,TCN,2024-06-24_18h28.42.261,LearnStrategy,2023.2.3,MacIntel,60.24096386,7,1,16,0.173461439,0.002506171,1,0,0,1.097,rock_grid_rect_2,4,15,-1,-1,1.097,-0.06121087,-0.252587755,1,0,0,1.0991,Basalt_rect,2,1.099,0,15,0,15,0,1,,,,,,,,,,,,,
64d523f4ad7f5e602c479ad1,TCN,2024-06-24_18h28.42.261,LearnStrategy,2023.2.3,MacIntel,60.24096386,7,2,1,,,,,,,,6,09,,,,,,,,,,,6,2.127,1,,,,,,-0.087775065,-0.407505764,1,0,0,2.1274,Pegmatite_rect,0,0,0,0,1,
64d523f4ad7f5e602c479ad1,TCN,2024-06-24_18h28.42.261,LearnStrategy,2023.2.3,MacIntel,60.24096386,7,2,2,,,,,,,,5,16,,,,,,,,,,,5,2.365,1,,,,,,-0.366037225,-0.401315443,1,0,0,2.3654,Obsidian_rect,1,0,1,0,1,
64d523f4ad7f5e602c479ad1,TCN,2024-06-24_18h28.42.261,LearnStrategy,2023.2.3,MacIntel,60.24096386,7,2,3,,,,,,,,4,16,,,,,,,,,,,4,3.81,1,,,,,,0.366257867,-0.257788289,1,0,0,3.8096,Gabbro_rect,2,0,2,0,1,
64d523f4ad7f5e602c479ad1,TCN,2024-06-24_18h28.42.261,LearnStrategy,2023.2.3,MacIntel,60.24096386,7,2,4,,,,,,,,5,10,,,,,,,,,,,5,1.428,1,,,,,,-0.422955899,-0.405328573,1,0,0,1.4284,Obsidian_rect,3,0,3,0,1,
64d523f4ad7f5e602c479ad1,TCN,2024-06-24_18h28.42.261,LearnStrategy,2023.2.3,MacIntel,60.24096386,7,2,5,,,,,,,,3,14,,,,,,,,,,,3,1.434,1,,,,,,0.101330227,-0.264204102,1,0,0,1.4339,Diorite_rect,4,0,4,0,1,
64d523f4ad7f5e602c479ad1,TCN,2024-06-24_18h28.42.261,LearnStrategy,2023.2.3,MacIntel,60.24096386,7,2,6,,,,,,,,6,12,,,,,,,,,,,6,6.369,1,,,,,,-0.120429891,-0.417427233,1,0,0,6.369,Pegmatite_rect,5,0,5,0,1,
64d523f4ad7f5e602c479ad1,TCN,2024-06-24_18h28.42.261,LearnStrategy,2023.2.3,MacIntel,60.24096386,7,2,7,,,,,,,,7,16,,,,,,,,,,,7,3.686,1,,,,,,0.09197876,-0.399794515,1,0,0,3.6857,Peridotite_rect,6,0,6,0,1,
64d523f4ad7f5e602c479ad1,TCN,2024-06-24_18h28.42.261,LearnStrategy,2023.2.3,MacIntel,60.24096386,7,2,8,,,,,,,,1,16,,,,,,,,,,,4,10.239,0,,,,,,0.38586358,-0.262570258,1,0,0,10.2386,Gabbro_rect,7,0,7,0,1,
64d523f4ad7f5e602c479ad1,TCN,2024-06-24_18h28.42.261,LearnStrategy,2023.2.3,MacIntel,60.24096386,7,2,9,,,,,,,,7,02,,,,,,,,,,,7,8.251,1,,,,,,0.094697062,-0.403600735,1,0,0,8.2507,Peridotite_rect,8,0,8,0,1,
64d523f4ad7f5e602c479ad1,TCN,2024-06-24_18h28.42.261,LearnStrategy,2023.2.3,MacIntel,60.24096386,7,2,10,,,,,,,,8,03,,,,,,,,,,,8,1.136,1,,,,,,0.356267361,-0.393824395,1,0,0,1.1357,Pumice_rect,9,0,9,0,1,
64d523f4ad7f5e602c479ad1,TCN,2024-06-24_18h28.42.261,LearnStrategy,2023.2.3,MacIntel,60.24096386,7,2,11,,,,,,,,1,05,,,,,,,,,,,3,1.904,0,,,,,,0.191101006,-0.252533569,1,0,0,1.9044,Diorite_rect,10,0,10,0,1,
64d523f4ad7f5e602c479ad1,TCN,2024-06-24_18h28.42.261,LearnStrategy,2023.2.3,MacIntel,60.24096386,7,2,12,,,,,,,,2,01,,,,,,,,,,,2,1.79,1,,,,,,-0.128963623,-0.268359918,1,0,0,1.7898,Basalt_rect,11,0,11,0,1,
64d523f4ad7f5e602c479ad1,TCN,2024-06-24_18h28.42.261,LearnStrategy,2023.2.3,MacIntel,60.24096386,7,2,13,,,,,,,,8,10,,,,,,,,,,,8,1.128,1,,,,,,0.347854546,-0.381567112,1,0,0,1.1275,Pumice_rect,12,0,12,0,1,
64d523f4ad7f5e602c479ad1,TCN,2024-06-24_18h28.42.261,LearnStrategy,2023.2.3,MacIntel,60.24096386,7,2,14,,,,,,,,2,11,,,,,,,,,,,4,1.4,0,,,,,,0.38128418,-0.269912991,1,0,0,1.3997,Gabbro_rect,13,0,13,0,1,
64d523f4ad7f5e602c479ad1,TCN,2024-06-24_18h28.42.261,LearnStrategy,2023.2.3,MacIntel,60.24096386,7,2,15,,,,,,,,3,15,,,,,,,,,,,1,3.194,0,,,,,,-0.392381524,-0.267064277,1,0,0,3.194,Andesite_rect,14,0,14,0,1,
64d523f4ad7f5e602c479ad1,TCN,2024-06-24_18h28.42.261,LearnStrategy,2023.2.3,MacIntel,60.24096386,7,2,16,,,,,,,,4,05,,,,,,,,,,,4,3.869,1,,,,,,0.486723904,-0.25501024,1,0,0,3.8688,Gabbro_rect,15,0,15,0,1,
64d523f4ad7f5e602c479ad1,TCN,2024-06-24_18h28.42.261,LearnStrategy,2023.2.3,MacIntel,60.24096386,8,1,1,0.141984863,-0.002114495,1,0,0,1.4474,rock_grid_rect_2,8,14,-1,-1,1.447,0.425977105,-0.413994683,1,0,0,1.2573,Pumice_rect,8,1.257,1,0,0,0,0,1,,,,,,,,,,,,,
64d523f4ad7f5e602c479ad1,TCN,2024-06-24_18h28.42.261,LearnStrategy,2023.2.3,MacIntel,60.24096386,8,1,2,0.162400106,-0.005255602,1,0,0,1.1648,rock_grid_rect_2,5,11,-1,-1,1.165,-0.352133721,-0.398098348,1,0,0,1.089,Obsidian_rect,5,1.089,1,1,0,1,0,1,,,,,,,,,,,,,
64d523f4ad7f5e602c479ad1,TCN,2024-06-24_18h28.42.261,LearnStrategy,2023.2.3,MacIntel,60.24096386,8,1,3,0.14205797,-0.006600206,1,0,0,1.4132,rock_grid_rect_2,5,02,-1,-1,1.413,-0.350979513,-0.394752604,1,0,0,2.208,Obsidian_rect,5,2.208,1,2,0,2,0,1,,,,,,,,,,,,,
64d523f4ad7f5e602c479ad1,TCN,2024-06-24_18h28.42.261,LearnStrategy,2023.2.3,MacIntel,60.24096386,8,1,4,0.133037652,-0.013762309,1,0,0,1.1299,rock_grid_rect_2,4,10,-1,-1,1.13,0.436994222,-0.241311985,1,0,0,19.9742,Gabbro_rect,4,19.974,1,3,0,3,0,1,,,,,,,,,,,,,
64d523f4ad7f5e602c479ad1,TCN,2024-06-24_18h28.42.261,LearnStrategy,2023.2.3,MacIntel,60.24096386,8,1,5,0.037489556,-0.008882039,1,0,0,1.813,rock_grid_rect_2,6,07,-1,-1,1.813,-0.110746324,-0.407392646,1,0,0,6.4149,Pegmatite_rect,6,6.415,1,4,0,4,0,1,,,,,,,,,,,,,
64d523f4ad7f5e602c479ad1,TCN,2024-06-24_18h28.42.261,LearnStrategy,2023.2.3,MacIntel,60.24096386,8,1,6,0.129166734,-0.007870924,1,0,0,1.2957,rock_grid_rect_2,2,08,-1,-1,1.296,0.36221856,-0.262005683,1,0,0,7.5184,Gabbro_rect,4,7.518,0,5,0,5,0,1,,,,,,,,,,,,,
64d523f4ad7f5e602c479ad1,TCN,2024-06-24_18h28.42.261,LearnStrategy,2023.2.3,MacIntel,60.24096386,8,1,7,0.11351359,-0.003983459,1,0,0,1.281,rock_grid_rect_2,2,14,-1,-1,1.281,0.381798231,-0.2625177,1,0,0,2.4449,Gabbro_rect,4,2.445,0,6,0,6,0,1,,,,,,,,,,,,,
64d523f4ad7f5e602c479ad1,TCN,2024-06-24_18h28.42.261,LearnStrategy,2023.2.3,MacIntel,60.24096386,8,1,8,0.100821194,-0.01506802,1,0,0,1.1303,rock_grid_rect_2,6,13,-1,-1,1.13,-0.127387899,-0.391702203,1,0,0,1.7555,Pegmatite_rect,6,1.756,1,7,0,7,0,1,,,,,,,,,,,,,
64d523f4ad7f5e602c479ad1,TCN,2024-06-24_18h28.42.261,LearnStrategy,2023.2.3,MacIntel,60.24096386,8,1,9,0.110328098,0.011489529,1,0,0,0.9307,rock_grid_rect_2,8,06,-1,-1,0.931,0.367828234,-0.402911445,1,0,0,1.4781,Pumice_rect,8,1.478,1,8,0,8,0,1,,,,,,,,,,,,,
64d523f4ad7f5e602c479ad1,TCN,2024-06-24_18h28.42.261,LearnStrategy,2023.2.3,MacIntel,60.24096386,8,1,10,0.118139852,-0.009781799,1,0,0,1.0322,rock_grid_rect_2,3,11,-1,-1,1.032,0.170078532,-0.263676826,1,0,0,1.3616,Diorite_rect,3,1.362,1,9,0,9,0,1,,,,,,,,,,,,,
64d523f4ad7f5e602c479ad1,TCN,2024-06-24_18h28.42.261,LearnStrategy,2023.2.3,MacIntel,60.24096386,8,1,11,0.164319187,-0.003428616,1,0,0,0.948,rock_grid_rect_2,7,12,-1,-1,0.948,0.101776733,-0.421328939,1,0,0,6.9243,Peridotite_rect,7,6.924,1,10,0,10,0,1,,,,,,,,,,,,,
64d523f4ad7f5e602c479ad1,TCN,2024-06-24_18h28.42.261,LearnStrategy,2023.2.3,MacIntel,60.24096386,8,1,12,0.156280246,-0.00340705,1,0,0,1.2631,rock_grid_rect_2,3,12,-1,-1,1.263,0.132121582,-0.244359266,1,0,0,1.1168,Diorite_rect,3,1.117,1,11,0,11,0,1,,,,,,,,,,,,,
64d523f4ad7f5e602c479ad1,TCN,2024-06-24_18h28.42.261,LearnStrategy,2023.2.3,MacIntel,60.24096386,8,1,13,0.084674344,0.000899116,1,0,0,1.1147,rock_grid_rect_2,7,10,-1,-1,1.115,-0.122011787,-0.403928833,1,0,0,3.14,Pegmatite_rect,6,3.14,0,12,0,12,0,1,,,,,,,,,,,,,
64d523f4ad7f5e602c479ad1,TCN,2024-06-24_18h28.42.261,LearnStrategy,2023.2.3,MacIntel,60.24096386,8,1,14,0.100815362,-0.018635423,1,0,0,1.2329,rock_grid_rect_2,4,13,-1,-1,1.233,-0.186070218,-0.271582913,1,0,0,1.4605,Basalt_rect,2,1.46,0,13,0,13,0,1,,,,,,,,,,,,,
64d523f4ad7f5e602c479ad1,TCN,2024-06-24_18h28.42.261,LearnStrategy,2023.2.3,MacIntel,60.24096386,8,1,15,0.040703261,-0.007099813,1,0,0,1.2237,rock_grid_rect_2,1,06,-1,-1,1.224,-0.082207845,-0.230428874,1,0,0,2.19,Basalt_rect,2,2.19,0,14,0,14,0,1,,,,,,,,,,,,,
64d523f4ad7f5e602c479ad1,TCN,2024-06-24_18h28.42.261,LearnStrategy,2023.2.3,MacIntel,60.24096386,8,1,16,0.002576769,0.000338406,1,0,0,0.8603,rock_grid_rect_2,1,10,-1,-1,0.86,0.348587104,-0.24628635,1,0,0,4.2319,Gabbro_rect,4,4.232,0,15,0,15,0,1,,,,,,,,,,,,,
64d523f4ad7f5e602c479ad1,TCN,2024-06-24_18h28.42.261,LearnStrategy,2023.2.3,MacIntel,60.24096386,8,2,1,,,,,,,,1,09,,,,,,,,,,,1,5.378,1,,,,,,-0.355063273,-0.243151042,1,0,0,5.3778,Andesite_rect,0,0,0,0,1,
64d523f4ad7f5e602c479ad1,TCN,2024-06-24_18h28.42.261,LearnStrategy,2023.2.3,MacIntel,60.24096386,8,2,2,,,,,,,,4,11,,,,,,,,,,,1,1.632,0,,,,,,-0.337731222,-0.246767782,1,0,0,1.6316,Andesite_rect,1,0,1,0,1,
64d523f4ad7f5e602c479ad1,TCN,2024-06-24_18h28.42.261,LearnStrategy,2023.2.3,MacIntel,60.24096386,8,2,3,,,,,,,,8,13,,,,,,,,,,,8,1.446,1,,,,,,0.352719048,-0.413895128,1,0,0,1.4461,Pumice_rect,2,0,2,0,1,
64d523f4ad7f5e602c479ad1,TCN,2024-06-24_18h28.42.261,LearnStrategy,2023.2.3,MacIntel,60.24096386,8,2,4,,,,,,,,7,07,,,,,,,,,,,7,2.086,1,,,,,,0.110897013,-0.414646064,1,0,0,2.0858,Peridotite_rect,3,0,3,0,1,
64d523f4ad7f5e602c479ad1,TCN,2024-06-24_18h28.42.261,LearnStrategy,2023.2.3,MacIntel,60.24096386,8,2,5,,,,,,,,7,14,,,,,,,,,,,7,1.001,1,,,,,,0.110897013,-0.414646064,1,0,0,1.0014,Peridotite_rect,4,0,4,0,1,
64d523f4ad7f5e602c479ad1,TCN,2024-06-24_18h28.42.261,LearnStrategy,2023.2.3,MacIntel,60.24096386,8,2,6,,,,,,,,3,13,,,,,,,,,,,3,1.41,1,,,,,,0.143216078,-0.269269748,1,0,0,1.4105,Diorite_rect,5,0,5,0,1,
64d523f4ad7f5e602c479ad1,TCN,2024-06-24_18h28.42.261,LearnStrategy,2023.2.3,MacIntel,60.24096386,8,2,7,,,,,,,,2,12,,,,,,,,,,,1,5.331,0,,,,,,-0.342631938,-0.241928033,1,0,0,5.3309,Andesite_rect,6,0,6,0,1,
64d523f4ad7f5e602c479ad1,TCN,2024-06-24_18h28.42.261,LearnStrategy,2023.2.3,MacIntel,60.24096386,8,2,8,,,,,,,,2,16,,,,,,,,,,,2,2.047,1,,,,,,-0.102341851,-0.262271186,1,0,0,2.0474,Basalt_rect,7,0,7,0,1,
64d523f4ad7f5e602c479ad1,TCN,2024-06-24_18h28.42.261,LearnStrategy,2023.2.3,MacIntel,60.24096386,8,2,9,,,,,,,,1,01,,,,,,,,,,,4,1.775,0,,,,,,0.36489624,-0.253004218,1,0,0,1.7754,Gabbro_rect,8,0,8,0,1,
64d523f4ad7f5e602c479ad1,TCN,2024-06-24_18h28.42.261,LearnStrategy,2023.2.3,MacIntel,60.24096386,8,2,10,,,,,,,,8,05,,,,,,,,,,,8,2.707,1,,,,,,0.398651801,-0.382672458,1,0,0,2.7069,Pumice_rect,9,0,9,0,1,
64d523f4ad7f5e602c479ad1,TCN,2024-06-24_18h28.42.261,LearnStrategy,2023.2.3,MacIntel,60.24096386,8,2,11,,,,,,,,3,09,,,,,,,,,,,3,1.219,1,,,,,,0.132487386,-0.246462538,1,0,0,1.219,Diorite_rect,10,0,10,0,1,
64d523f4ad7f5e602c479ad1,TCN,2024-06-24_18h28.42.261,LearnStrategy,2023.2.3,MacIntel,60.24096386,8,2,12,,,,,,,,6,05,,,,,,,,,,,4,10.808,0,,,,,,0.373303494,-0.252735528,1,0,0,10.8076,Gabbro_rect,11,0,11,0,1,
64d523f4ad7f5e602c479ad1,TCN,2024-06-24_18h28.42.261,LearnStrategy,2023.2.3,MacIntel,60.24096386,8,2,13,,,,,,,,5,09,,,,,,,,,,,5,1.12,1,,,,,,-0.414016418,-0.398932427,1,0,0,1.1199,Obsidian_rect,12,0,12,0,1,
64d523f4ad7f5e602c479ad1,TCN,2024-06-24_18h28.42.261,LearnStrategy,2023.2.3,MacIntel,60.24096386,8,2,14,,,,,,,,4,14,,,,,,,,,,,2,8.291,0,,,,,,-0.191783922,-0.268989868,1,0,0,8.2912,Basalt_rect,13,0,13,0,1,
64d523f4ad7f5e602c479ad1,TCN,2024-06-24_18h28.42.261,LearnStrategy,2023.2.3,MacIntel,60.24096386,8,2,15,,,,,,,,5,04,,,,,,,,,,,5,1.305,1,,,,,,-0.454233059,-0.411410116,1,0,0,1.3054,Obsidian_rect,14,0,14,0,1,
64d523f4ad7f5e602c479ad1,TCN,2024-06-24_18h28.42.261,LearnStrategy,2023.2.3,MacIntel,60.24096386,8,2,16,,,,,,,,6,03,,,,,,,,,,,6,2.945,1,,,,,,-0.116451959,-0.412980008,1,0,0,2.945,Pegmatite_rect,15,0,15,0,1,
64d523f4ad7f5e602c479ad1,TCN,2024-06-24_18h28.42.261,LearnStrategy,2023.2.3,MacIntel,60.24096386,9,1,1,0.109374661,-0.00995029,1,0,0,1.4354,rock_grid_rect_2,7,08,-1,-1,1.435,0.131505941,-0.408855523,1,0,0,4.9106,Peridotite_rect,7,4.911,1,0,0,0,0,1,,,,,,,,,,,,,
64d523f4ad7f5e602c479ad1,TCN,2024-06-24_18h28.42.261,LearnStrategy,2023.2.3,MacIntel,60.24096386,9,1,2,0.071447347,0.006757372,1,0,0,1.0982,rock_grid_rect_2,8,08,-1,-1,1.098,0.373522814,-0.413779772,1,0,0,1.8633,Pumice_rect,8,1.863,1,1,0,1,0,1,,,,,,,,,,,,,
64d523f4ad7f5e602c479ad1,TCN,2024-06-24_18h28.42.261,LearnStrategy,2023.2.3,MacIntel,60.24096386,9,1,3,0.135859375,-0.002577888,1,0,0,3.2796,rock_grid_rect_2,6,11,-1,-1,3.28,-0.073992581,-0.381051364,1,0,0,5.9389,Pegmatite_rect,6,5.939,1,2,0,2,0,1,,,,,,,,,,,,,
64d523f4ad7f5e602c479ad1,TCN,2024-06-24_18h28.42.261,LearnStrategy,2023.2.3,MacIntel,60.24096386,9,1,4,0.089403415,-0.017770047,1,0,0,1.4298,rock_grid_rect_2,4,09,-1,-1,1.43,-0.079833577,-0.267344089,1,0,0,16.1453,Basalt_rect,2,16.145,0,3,0,3,0,1,,,,,,,,,,,,,
64d523f4ad7f5e602c479ad1,TCN,2024-06-24_18h28.42.261,LearnStrategy,2023.2.3,MacIntel,60.24096386,9,1,5,0.080556166,-0.016902161,1,0,0,1.38,rock_grid_rect_2,3,08,-1,-1,1.38,0.094597778,-0.266152344,1,0,0,1.1708,Diorite_rect,3,1.171,1,4,0,4,0,1,,,,,,,,,,,,,
64d523f4ad7f5e602c479ad1,TCN,2024-06-24_18h28.42.261,LearnStrategy,2023.2.3,MacIntel,60.24096386,9,1,6,0.108258938,0.005175374,1,0,0,1.183,rock_grid_rect_2,6,08,-1,-1,1.183,-0.066025594,-0.404044257,1,0,0,4.2094,Pegmatite_rect,6,4.209,1,5,0,5,0,1,,,,,,,,,,,,,
64d523f4ad7f5e602c479ad1,TCN,2024-06-24_18h28.42.261,LearnStrategy,2023.2.3,MacIntel,60.24096386,9,1,7,0.142451104,-0.016449314,1,0,0,1.2803,rock_grid_rect_2,3,06,-1,-1,1.28,0.183672892,-0.257447442,1,0,0,0.9872,Diorite_rect,3,0.987,1,6,0,6,0,1,,,,,,,,,,,,,
64d523f4ad7f5e602c479ad1,TCN,2024-06-24_18h28.42.261,LearnStrategy,2023.2.3,MacIntel,60.24096386,9,1,8,0.130758938,-0.012529127,1,0,0,1.4143,rock_grid_rect_2,5,06,-1,-1,1.414,-0.310555318,-0.383602702,1,0,0,1.0745,Obsidian_rect,5,1.075,1,7,0,7,0,1,,,,,,,,,,,,,
64d523f4ad7f5e602c479ad1,TCN,2024-06-24_18h28.42.261,LearnStrategy,2023.2.3,MacIntel,60.24096386,9,1,9,0.060514865,-0.023280233,1,0,0,1.431,rock_grid_rect_2,7,06,-1,-1,1.431,0.111110297,-0.418942871,1,0,0,3.2961,Peridotite_rect,7,3.296,1,8,0,8,0,1,,,,,,,,,,,,,
64d523f4ad7f5e602c479ad1,TCN,2024-06-24_18h28.42.261,LearnStrategy,2023.2.3,MacIntel,60.24096386,9,1,10,0.114865655,-0.000347866,1,0,0,2.6456,rock_grid_rect_2,1,14,-1,-1,2.646,-0.413683912,-0.266279365,1,0,0,5.3482,Andesite_rect,1,5.348,1,9,0,9,0,1,,,,,,,,,,,,,
64d523f4ad7f5e602c479ad1,TCN,2024-06-24_18h28.42.261,LearnStrategy,2023.2.3,MacIntel,60.24096386,9,1,11,0.125985582,0.020189582,1,0,0,1.3965,rock_grid_rect_2,8,02,-1,-1,1.396,0.447121311,-0.396732313,1,0,0,1.2076,Pumice_rect,8,1.208,1,10,0,10,0,1,,,,,,,,,,,,,
64d523f4ad7f5e602c479ad1,TCN,2024-06-24_18h28.42.261,LearnStrategy,2023.2.3,MacIntel,60.24096386,9,1,12,0.115848931,-0.002112901,1,0,0,1.031,rock_grid_rect_2,2,09,-1,-1,1.031,-0.099156494,-0.252202827,1,0,0,3.0622,Basalt_rect,2,3.062,1,11,0,11,0,1,,,,,,,,,,,,,
64d523f4ad7f5e602c479ad1,TCN,2024-06-24_18h28.42.261,LearnStrategy,2023.2.3,MacIntel,60.24096386,9,1,13,0.082277696,-0.011505432,1,0,0,1.3558,rock_grid_rect_2,1,03,-1,-1,1.356,-0.298500197,-0.247154744,1,0,0,2.5304,Andesite_rect,1,2.53,1,12,0,12,0,1,,,,,,,,,,,,,
64d523f4ad7f5e602c479ad1,TCN,2024-06-24_18h28.42.261,LearnStrategy,2023.2.3,MacIntel,60.24096386,9,1,14,0.050311279,0.010980598,1,0,0,0.9666,rock_grid_rect_2,2,06,-1,-1,0.967,-0.09351237,-0.241513129,1,0,0,3.3727,Basalt_rect,2,3.373,1,13,0,13,0,1,,,,,,,,,,,,,
64d523f4ad7f5e602c479ad1,TCN,2024-06-24_18h28.42.261,LearnStrategy,2023.2.3,MacIntel,60.24096386,9,1,15,0.078252699,-0.002539571,1,0,0,3.0359,rock_grid_rect_2,5,08,-1,-1,3.036,-0.374791497,-0.411304999,1,0,0,1.8118,Obsidian_rect,5,1.812,1,14,0,14,0,1,,,,,,,,,,,,,
64d523f4ad7f5e602c479ad1,TCN,2024-06-24_18h28.42.261,LearnStrategy,2023.2.3,MacIntel,60.24096386,9,1,16,0.141909248,-0.010343085,1,0,0,1.0819,rock_grid_rect_2,4,03,-1,-1,1.082,0.429188639,-0.258052911,1,0,0,9.0138,Gabbro_rect,4,9.014,1,15,0,15,0,1,,,,,,,,,,,,,
64d523f4ad7f5e602c479ad1,TCN,2024-06-24_18h28.42.261,LearnStrategy,2023.2.3,MacIntel,60.24096386,9,2,1,,,,,,,,8,09,,,,,,,,,,,8,1.132,1,,,,,,0.3833648,-0.409355604,1,0,0,1.1321,Pumice_rect,0,0,0,0,1,
64d523f4ad7f5e602c479ad1,TCN,2024-06-24_18h28.42.261,LearnStrategy,2023.2.3,MacIntel,60.24096386,9,2,2,,,,,,,,6,06,,,,,,,,,,,6,35.277,1,,,,,,-0.082648248,-0.389853312,1,0,0,35.277,Pegmatite_rect,1,0,1,0,1,
64d523f4ad7f5e602c479ad1,TCN,2024-06-24_18h28.42.261,LearnStrategy,2023.2.3,MacIntel,60.24096386,9,2,3,,,,,,,,8,04,,,,,,,,,,,8,1.362,1,,,,,,0.463105333,-0.417642212,1,0,0,1.3623,Pumice_rect,2,0,2,0,1,
64d523f4ad7f5e602c479ad1,TCN,2024-06-24_18h28.42.261,LearnStrategy,2023.2.3,MacIntel,60.24096386,9,2,4,,,,,,,,4,08,,,,,,,,,,,4,10.812,1,,,,,,0.414735514,-0.24992452,1,0,0,10.8117,Gabbro_rect,3,0,3,0,1,
64d523f4ad7f5e602c479ad1,TCN,2024-06-24_18h28.42.261,LearnStrategy,2023.2.3,MacIntel,60.24096386,9,2,5,,,,,,,,2,02,,,,,,,,,,,2,1.619,1,,,,,,-0.129630805,-0.263619385,1,0,0,1.6185,Basalt_rect,4,0,4,0,1,
64d523f4ad7f5e602c479ad1,TCN,2024-06-24_18h28.42.261,LearnStrategy,2023.2.3,MacIntel,60.24096386,9,2,6,,,,,,,,6,15,,,,,,,,,,,6,1.671,1,,,,,,-0.127542386,-0.379032322,1,0,0,1.6715,Pegmatite_rect,5,0,5,0,1,
64d523f4ad7f5e602c479ad1,TCN,2024-06-24_18h28.42.261,LearnStrategy,2023.2.3,MacIntel,60.24096386,9,2,7,,,,,,,,1,04,,,,,,,,,,,1,2.785,1,,,,,,-0.464657457,-0.249579942,1,0,0,2.7853,Andesite_rect,6,0,6,0,1,
64d523f4ad7f5e602c479ad1,TCN,2024-06-24_18h28.42.261,LearnStrategy,2023.2.3,MacIntel,60.24096386,9,2,8,,,,,,,,2,04,,,,,,,,,,,2,1.682,1,,,,,,-0.129808078,-0.249591675,1,0,0,1.6821,Basalt_rect,7,0,7,0,1,
64d523f4ad7f5e602c479ad1,TCN,2024-06-24_18h28.42.261,LearnStrategy,2023.2.3,MacIntel,60.24096386,9,2,9,,,,,,,,7,05,,,,,,,,,,,3,3.603,0,,,,,,0.126678806,-0.250628323,1,0,0,3.6026,Diorite_rect,8,0,8,0,1,
64d523f4ad7f5e602c479ad1,TCN,2024-06-24_18h28.42.261,LearnStrategy,2023.2.3,MacIntel,60.24096386,9,2,10,,,,,,,,4,12,,,,,,,,,,,4,2.897,1,,,,,,0.367275255,-0.246628147,1,0,0,2.8968,Gabbro_rect,9,0,9,0,1,
64d523f4ad7f5e602c479ad1,TCN,2024-06-24_18h28.42.261,LearnStrategy,2023.2.3,MacIntel,60.24096386,9,2,11,,,,,,,,5,14,,,,,,,,,,,5,1.173,1,,,,,,-0.454666511,-0.397569309,1,0,0,1.173,Obsidian_rect,10,0,10,0,1,
64d523f4ad7f5e602c479ad1,TCN,2024-06-24_18h28.42.261,LearnStrategy,2023.2.3,MacIntel,60.24096386,9,2,12,,,,,,,,7,04,,,,,,,,,,,6,8.201,0,,,,,,-0.173357815,-0.383892687,1,0,0,8.2014,Pegmatite_rect,11,0,11,0,1,
64d523f4ad7f5e602c479ad1,TCN,2024-06-24_18h28.42.261,LearnStrategy,2023.2.3,MacIntel,60.24096386,9,2,13,,,,,,,,3,07,,,,,,,,,,,3,1.497,1,,,,,,0.130326199,-0.236621365,1,0,0,1.4968,Diorite_rect,12,0,12,0,1,
64d523f4ad7f5e602c479ad1,TCN,2024-06-24_18h28.42.261,LearnStrategy,2023.2.3,MacIntel,60.24096386,9,2,14,,,,,,,,3,16,,,,,,,,,,,4,4.561,0,,,,,,0.40965115,-0.24001865,1,0,0,4.5605,Gabbro_rect,13,0,13,0,1,
64d523f4ad7f5e602c479ad1,TCN,2024-06-24_18h28.42.261,LearnStrategy,2023.2.3,MacIntel,60.24096386,9,2,15,,,,,,,,5,05,,,,,,,,,,,5,1.188,1,,,,,,-0.372550354,-0.406478271,1,0,0,1.1883,Obsidian_rect,14,0,14,0,1,
64d523f4ad7f5e602c479ad1,TCN,2024-06-24_18h28.42.261,LearnStrategy,2023.2.3,MacIntel,60.24096386,9,2,16,,,,,,,,1,07,,,,,,,,,,,3,8.699,0,,,,,,0.154545627,-0.258839654,1,0,0,8.699,Diorite_rect,15,0,15,0,1,
64d523f4ad7f5e602c479ad1,TCN,2024-06-24_18h28.42.261,LearnStrategy,2023.2.3,MacIntel,60.24096386,,,,,,,,,,,,,,,,,,,,,,,,,,,,,,,,,,,,,,,,,,,1
64d523f4ad7f5e602c479ad1,TCN,2024-06-24_18h28.42.261,LearnStrategy,2023.2.3,MacIntel,60.24096386,,,,,,,,,,,,,,,,,,,,,,,,,,,,,,,,,,,,,,,,,,,
64d523f4ad7f5e602c479ad1,TCN,2024-06-24_18h28.42.261,LearnStrategy,2023.2.3,MacIntel,60.24096386,,,,,,,,,,,1,06,1,1,,,,,,,,,,,,,,,,,,,,,,,,,,,,,
64d523f4ad7f5e602c479ad1,TCN,2024-06-24_18h28.42.261,LearnStrategy,2023.2.3,MacIntel,60.24096386,,,,,,,,,,,5,02,1,2,,,,,,,,,,,,,,,,,,,,,,,,,,,,,
64d523f4ad7f5e602c479ad1,TCN,2024-06-24_18h28.42.261,LearnStrategy,2023.2.3,MacIntel,60.24096386,,,,,,,,,,,4,09,1,3,,,,,,,,,,,,,,,,,,,,,,,,,,,,,
64d523f4ad7f5e602c479ad1,TCN,2024-06-24_18h28.42.261,LearnStrategy,2023.2.3,MacIntel,60.24096386,,,,,,,,,,,2,06,1,4,,,,,,,,,,,,,,,,,,,,,,,,,,,,,
64d523f4ad7f5e602c479ad1,TCN,2024-06-24_18h28.42.261,LearnStrategy,2023.2.3,MacIntel,60.24096386,,,,,,,,,,,3,06,1,5,,,,,,,,,,,,,,,,,,,,,,,,,,,,,
64d523f4ad7f5e602c479ad1,TCN,2024-06-24_18h28.42.261,LearnStrategy,2023.2.3,MacIntel,60.24096386,,,,,,,,,,,8,02,1,6,,,,,,,,,,,,,,,,,,,,,,,,,,,,,
64d523f4ad7f5e602c479ad1,TCN,2024-06-24_18h28.42.261,LearnStrategy,2023.2.3,MacIntel,60.24096386,,,,,,,,,,,1,10,1,7,,,,,,,,,,,,,,,,,,,,,,,,,,,,,
64d523f4ad7f5e602c479ad1,TCN,2024-06-24_18h28.42.261,LearnStrategy,2023.2.3,MacIntel,60.24096386,,,,,,,,,,,4,01,1,8,,,,,,,,,,,,,,,,,,,,,,,,,,,,,
64d523f4ad7f5e602c479ad1,TCN,2024-06-24_18h28.42.261,LearnStrategy,2023.2.3,MacIntel,60.24096386,,,,,,,,,,,6,16,2,1,,,,,,,,,,,,,,,,,,,,,,,,,,,,,
64d523f4ad7f5e602c479ad1,TCN,2024-06-24_18h28.42.261,LearnStrategy,2023.2.3,MacIntel,60.24096386,,,,,,,,,,,7,15,2,2,,,,,,,,,,,,,,,,,,,,,,,,,,,,,
64d523f4ad7f5e602c479ad1,TCN,2024-06-24_18h28.42.261,LearnStrategy,2023.2.3,MacIntel,60.24096386,,,,,,,,,,,1,11,2,3,,,,,,,,,,,,,,,,,,,,,,,,,,,,,
64d523f4ad7f5e602c479ad1,TCN,2024-06-24_18h28.42.261,LearnStrategy,2023.2.3,MacIntel,60.24096386,,,,,,,,,,,4,03,2,4,,,,,,,,,,,,,,,,,,,,,,,,,,,,,
64d523f4ad7f5e602c479ad1,TCN,2024-06-24_18h28.42.261,LearnStrategy,2023.2.3,MacIntel,60.24096386,,,,,,,,,,,2,05,2,5,,,,,,,,,,,,,,,,,,,,,,,,,,,,,
64d523f4ad7f5e602c479ad1,TCN,2024-06-24_18h28.42.261,LearnStrategy,2023.2.3,MacIntel,60.24096386,,,,,,,,,,,8,08,2,6,,,,,,,,,,,,,,,,,,,,,,,,,,,,,
64d523f4ad7f5e602c479ad1,TCN,2024-06-24_18h28.42.261,LearnStrategy,2023.2.3,MacIntel,60.24096386,,,,,,,,,,,7,08,2,7,,,,,,,,,,,,,,,,,,,,,,,,,,,,,
64d523f4ad7f5e602c479ad1,TCN,2024-06-24_18h28.42.261,LearnStrategy,2023.2.3,MacIntel,60.24096386,,,,,,,,,,,4,15,2,8,,,,,,,,,,,,,,,,,,,,,,,,,,,,,
64d523f4ad7f5e602c479ad1,TCN,2024-06-24_18h28.42.261,LearnStrategy,2023.2.3,MacIntel,60.24096386,,,,,,,,,,,2,10,3,1,,,,,,,,,,,,,,,,,,,,,,,,,,,,,
64d523f4ad7f5e602c479ad1,TCN,2024-06-24_18h28.42.261,LearnStrategy,2023.2.3,MacIntel,60.24096386,,,,,,,,,,,6,08,3,2,,,,,,,,,,,,,,,,,,,,,,,,,,,,,
64d523f4ad7f5e602c479ad1,TCN,2024-06-24_18h28.42.261,LearnStrategy,2023.2.3,MacIntel,60.24096386,,,,,,,,,,,7,12,3,3,,,,,,,,,,,,,,,,,,,,,,,,,,,,,
64d523f4ad7f5e602c479ad1,TCN,2024-06-24_18h28.42.261,LearnStrategy,2023.2.3,MacIntel,60.24096386,,,,,,,,,,,3,11,3,4,,,,,,,,,,,,,,,,,,,,,,,,,,,,,
64d523f4ad7f5e602c479ad1,TCN,2024-06-24_18h28.42.261,LearnStrategy,2023.2.3,MacIntel,60.24096386,,,,,,,,,,,2,08,3,5,,,,,,,,,,,,,,,,,,,,,,,,,,,,,
64d523f4ad7f5e602c479ad1,TCN,2024-06-24_18h28.42.261,LearnStrategy,2023.2.3,MacIntel,60.24096386,,,,,,,,,,,1,14,3,6,,,,,,,,,,,,,,,,,,,,,,,,,,,,,
64d523f4ad7f5e602c479ad1,TCN,2024-06-24_18h28.42.261,LearnStrategy,2023.2.3,MacIntel,60.24096386,,,,,,,,,,,1,02,3,7,,,,,,,,,,,,,,,,,,,,,,,,,,,,,
64d523f4ad7f5e602c479ad1,TCN,2024-06-24_18h28.42.261,LearnStrategy,2023.2.3,MacIntel,60.24096386,,,,,,,,,,,5,08,3,8,,,,,,,,,,,,,,,,,,,,,,,,,,,,,
64d523f4ad7f5e602c479ad1,TCN,2024-06-24_18h28.42.261,LearnStrategy,2023.2.3,MacIntel,60.24096386,,,,,,,,,,,6,10,4,1,,,,,,,,,,,,,,,,,,,,,,,,,,,,,
64d523f4ad7f5e602c479ad1,TCN,2024-06-24_18h28.42.261,LearnStrategy,2023.2.3,MacIntel,60.24096386,,,,,,,,,,,4,10,4,2,,,,,,,,,,,,,,,,,,,,,,,,,,,,,
64d523f4ad7f5e602c479ad1,TCN,2024-06-24_18h28.42.261,LearnStrategy,2023.2.3,MacIntel,60.24096386,,,,,,,,,,,5,12,4,3,,,,,,,,,,,,,,,,,,,,,,,,,,,,,
64d523f4ad7f5e602c479ad1,TCN,2024-06-24_18h28.42.261,LearnStrategy,2023.2.3,MacIntel,60.24096386,,,,,,,,,,,7,13,4,4,,,,,,,,,,,,,,,,,,,,,,,,,,,,,
64d523f4ad7f5e602c479ad1,TCN,2024-06-24_18h28.42.261,LearnStrategy,2023.2.3,MacIntel,60.24096386,,,,,,,,,,,8,16,4,5,,,,,,,,,,,,,,,,,,,,,,,,,,,,,
64d523f4ad7f5e602c479ad1,TCN,2024-06-24_18h28.42.261,LearnStrategy,2023.2.3,MacIntel,60.24096386,,,,,,,,,,,3,12,4,6,,,,,,,,,,,,,,,,,,,,,,,,,,,,,
64d523f4ad7f5e602c479ad1,TCN,2024-06-24_18h28.42.261,LearnStrategy,2023.2.3,MacIntel,60.24096386,,,,,,,,,,,6,13,4,7,,,,,,,,,,,,,,,,,,,,,,,,,,,,,
64d523f4ad7f5e602c479ad1,TCN,2024-06-24_18h28.42.261,LearnStrategy,2023.2.3,MacIntel,60.24096386,,,,,,,,,,,4,13,4,8,,,,,,,,,,,,,,,,,,,,,,,,,,,,,
64d523f4ad7f5e602c479ad1,TCN,2024-06-24_18h28.42.261,LearnStrategy,2023.2.3,MacIntel,60.24096386,,,,,,,,,,,7,10,5,1,,,,,,,,,,,,,,,,,,,,,,,,,,,,,
64d523f4ad7f5e602c479ad1,TCN,2024-06-24_18h28.42.261,LearnStrategy,2023.2.3,MacIntel,60.24096386,,,,,,,,,,,6,11,5,2,,,,,,,,,,,,,,,,,,,,,,,,,,,,,
64d523f4ad7f5e602c479ad1,TCN,2024-06-24_18h28.42.261,LearnStrategy,2023.2.3,MacIntel,60.24096386,,,,,,,,,,,2,09,5,3,,,,,,,,,,,,,,,,,,,,,,,,,,,,,
64d523f4ad7f5e602c479ad1,TCN,2024-06-24_18h28.42.261,LearnStrategy,2023.2.3,MacIntel,60.24096386,,,,,,,,,,,8,06,5,4,,,,,,,,,,,,,,,,,,,,,,,,,,,,,
64d523f4ad7f5e602c479ad1,TCN,2024-06-24_18h28.42.261,LearnStrategy,2023.2.3,MacIntel,60.24096386,,,,,,,,,,,5,07,5,5,,,,,,,,,,,,,,,,,,,,,,,,,,,,,
64d523f4ad7f5e602c479ad1,TCN,2024-06-24_18h28.42.261,LearnStrategy,2023.2.3,MacIntel,60.24096386,,,,,,,,,,,7,06,5,6,,,,,,,,,,,,,,,,,,,,,,,,,,,,,
64d523f4ad7f5e602c479ad1,TCN,2024-06-24_18h28.42.261,LearnStrategy,2023.2.3,MacIntel,60.24096386,,,,,,,,,,,5,06,5,7,,,,,,,,,,,,,,,,,,,,,,,,,,,,,
64d523f4ad7f5e602c479ad1,TCN,2024-06-24_18h28.42.261,LearnStrategy,2023.2.3,MacIntel,60.24096386,,,,,,,,,,,2,14,5,8,,,,,,,,,,,,,,,,,,,,,,,,,,,,,
64d523f4ad7f5e602c479ad1,TCN,2024-06-24_18h28.42.261,LearnStrategy,2023.2.3,MacIntel,60.24096386,,,,,,,,,,,1,03,6,1,,,,,,,,,,,,,,,,,,,,,,,,,,,,,
64d523f4ad7f5e602c479ad1,TCN,2024-06-24_18h28.42.261,LearnStrategy,2023.2.3,MacIntel,60.24096386,,,,,,,,,,,3,02,6,2,,,,,,,,,,,,,,,,,,,,,,,,,,,,,
64d523f4ad7f5e602c479ad1,TCN,2024-06-24_18h28.42.261,LearnStrategy,2023.2.3,MacIntel,60.24096386,,,,,,,,,,,3,08,6,3,,,,,,,,,,,,,,,,,,,,,,,,,,,,,
64d523f4ad7f5e602c479ad1,TCN,2024-06-24_18h28.42.261,LearnStrategy,2023.2.3,MacIntel,60.24096386,,,,,,,,,,,8,15,6,4,,,,,,,,,,,,,,,,,,,,,,,,,,,,,
64d523f4ad7f5e602c479ad1,TCN,2024-06-24_18h28.42.261,LearnStrategy,2023.2.3,MacIntel,60.24096386,,,,,,,,,,,5,11,6,5,,,,,,,,,,,,,,,,,,,,,,,,,,,,,
64d523f4ad7f5e602c479ad1,TCN,2024-06-24_18h28.42.261,LearnStrategy,2023.2.3,MacIntel,60.24096386,,,,,,,,,,,8,14,6,6,,,,,,,,,,,,,,,,,,,,,,,,,,,,,
64d523f4ad7f5e602c479ad1,TCN,2024-06-24_18h28.42.261,LearnStrategy,2023.2.3,MacIntel,60.24096386,,,,,,,,,,,6,07,6,7,,,,,,,,,,,,,,,,,,,,,,,,,,,,,
64d523f4ad7f5e602c479ad1,TCN,2024-06-24_18h28.42.261,LearnStrategy,2023.2.3,MacIntel,60.24096386,,,,,,,,,,,3,10,6,8,,,,,,,,,,,,,,,,,,,,,,,,,,,,,