participant,condition,date,expName,psychopyVersion,OS,frameRate,block,phase,trial,learn_mouse.x,learn_mouse.y,learn_mouse.leftButton,learn_mouse.midButton,learn_mouse.rightButton,learn_mouse.time,learn_mouse.clicked_name,cat,token,row,col,t_select,cat_mouse_l.x,cat_mouse_l.y,cat_mouse_l.leftButton,cat_mouse_l.midButton,cat_mouse_l.rightButton,cat_mouse_l.time,cat_mouse_l.clicked_name,resp,t_resp,corr,train_trials.thisRepN,train_trials.thisTrialN,train_trials.thisN,train_trials.thisIndex,train_trials.ran,cat_mouse_t.x,cat_mouse_t.y,cat_mouse_t.leftButton,cat_mouse_t.midButton,cat_mouse_t.rightButton,cat_mouse_t.time,cat_mouse_t.clicked_name,test_trials.thisRepN,test_trials.thisTrialN,test_trials.thisN,test_trials.thisIndex,test_trials.ran,Bonus
650d90ebf26334f992c31579,SCN,2024-06-25_09h40.33.947,LearnStrategy,2023.2.3,Win32,60.24096386,,,,,,,,,,,,,,,,,,,,,,,,,,,,,,,,,,,,,,,,,,,
650d90ebf26334f992c31579,SCN,2024-06-25_09h40.33.947,LearnStrategy,2023.2.3,Win32,60.24096386,1,1,1,-0.388888889,-0.107407422,1,0,0,4.357,Obsidian_04,5,04,3,2,4.357,-0.388888889,-0.261111111,1,0,0,2.5564,Andesite_rect,1,2.556,0,0,0,0,0,1,,,,,,,,,,,,,
650d90ebf26334f992c31579,SCN,2024-06-25_09h40.33.947,LearnStrategy,2023.2.3,Win32,60.24096386,1,1,2,-0.241666667,-0.277777778,1,0,0,4.3656,Peridotite_15,7,15,2,3,4.366,0.376851908,-0.245370399,1,0,0,1.936,Gabbro_rect,4,1.936,0,1,0,1,0,1,,,,,,,,,,,,,
650d90ebf26334f992c31579,SCN,2024-06-25_09h40.33.947,LearnStrategy,2023.2.3,Win32,60.24096386,1,1,3,-0.532407379,0.400925922,1,0,0,1.7675,Peridotite_07,7,07,6,1,1.768,-0.366666667,-0.420370399,1,0,0,1.597,Obsidian_rect,5,1.597,0,2,0,2,0,1,,,,,,,,,,,,,
650d90ebf26334f992c31579,SCN,2024-06-25_09h40.33.947,LearnStrategy,2023.2.3,Win32,60.24096386,1,1,4,-0.389814801,0.381481478,1,0,0,0.9806,Pumice_16,8,16,6,2,0.981,-0.192592578,-0.248148176,1,0,0,1.7727,Basalt_rect,2,1.773,0,3,0,3,0,1,,,,,,,,,,,,,
650d90ebf26334f992c31579,SCN,2024-06-25_09h40.33.947,LearnStrategy,2023.2.3,Win32,60.24096386,1,1,5,-0.255555556,0.442592589,1,0,0,1.0474,Andesite_07,1,07,6,3,1.047,0.369444444,-0.236111111,1,0,0,4.204,Gabbro_rect,4,4.204,0,4,0,4,0,1,,,,,,,,,,,,,
650d90ebf26334f992c31579,SCN,2024-06-25_09h40.33.947,LearnStrategy,2023.2.3,Win32,60.24096386,1,1,6,-0.100925869,0.120370356,1,0,0,2.6816,Obsidian_06,5,06,4,4,2.682,-0.137962935,-0.402777778,1,0,0,2.5378,Pegmatite_rect,6,2.538,0,5,0,5,0,1,,,,,,,,,,,,,
650d90ebf26334f992c31579,SCN,2024-06-25_09h40.33.947,LearnStrategy,2023.2.3,Win32,60.24096386,1,1,7,0.540740797,-0.422222222,1,0,0,2.2798,Pegmatite_03,6,03,1,8,2.28,0.353703732,-0.384259288,1,0,0,1.0402,Pumice_rect,8,1.04,0,6,0,6,0,1,,,,,,,,,,,,,
650d90ebf26334f992c31579,SCN,2024-06-25_09h40.33.947,LearnStrategy,2023.2.3,Win32,60.24096386,1,1,8,0.065740797,-0.270370399,1,0,0,1.5619,Gabbro_13,4,13,2,5,1.562,-0.329629601,-0.267592621,1,0,0,1.7087,Andesite_rect,1,1.709,0,7,0,7,0,1,,,,,,,,,,,,,
650d90ebf26334f992c31579,SCN,2024-06-25_09h40.33.947,LearnStrategy,2023.2.3,Win32,60.24096386,1,1,9,0.528703732,-0.130555556,1,0,0,3.2805,Peridotite_13,7,13,3,8,3.281,0.105555556,-0.419444444,1,0,0,4.1578,Peridotite_rect,7,4.158,1,8,0,8,0,1,,,,,,,,,,,,,
650d90ebf26334f992c31579,SCN,2024-06-25_09h40.33.947,LearnStrategy,2023.2.3,Win32,60.24096386,1,1,10,-0.071296268,0.399074067,1,0,0,3.581,Basalt_16,2,16,6,4,3.581,-0.364814801,-0.257407464,1,0,0,2.0623,Andesite_rect,1,2.062,0,9,0,9,0,1,,,,,,,,,,,,,
650d90ebf26334f992c31579,SCN,2024-06-25_09h40.33.947,LearnStrategy,2023.2.3,Win32,60.24096386,1,1,11,0.547222222,0.217592578,1,0,0,3.6484,Obsidian_02,5,02,5,8,3.648,-0.351851824,-0.385185242,1,0,0,2.2306,Obsidian_rect,5,2.231,1,10,0,10,0,1,,,,,,,,,,,,,
650d90ebf26334f992c31579,SCN,2024-06-25_09h40.33.947,LearnStrategy,2023.2.3,Win32,60.24096386,1,1,12,-0.542592578,0.070370356,1,0,0,1.2463,Pumice_10,8,10,4,1,1.246,-0.073148092,-0.412963019,1,0,0,2.303,Pegmatite_rect,6,2.303,0,11,0,11,0,1,,,,,,,,,,,,,
650d90ebf26334f992c31579,SCN,2024-06-25_09h40.33.947,LearnStrategy,2023.2.3,Win32,60.24096386,1,1,13,-0.561111111,-0.234259288,1,0,0,3.7295,Pegmatite_08,6,08,2,1,3.73,0.185185242,-0.244444444,1,0,0,2.6311,Diorite_rect,3,2.631,0,12,0,12,0,1,,,,,,,,,,,,,
650d90ebf26334f992c31579,SCN,2024-06-25_09h40.33.947,LearnStrategy,2023.2.3,Win32,60.24096386,1,1,14,-0.359259245,0.085185157,1,0,0,4.7008,Diorite_14,3,14,4,2,4.701,-0.217592578,-0.387963019,1,0,0,1.8634,Pegmatite_rect,6,1.863,0,13,0,13,0,1,,,,,,,,,,,,,
650d90ebf26334f992c31579,SCN,2024-06-25_09h40.33.947,LearnStrategy,2023.2.3,Win32,60.24096386,1,1,15,-0.089814758,0.236111111,1,0,0,1.7145,Andesite_03,1,03,5,4,1.714,-0.335185157,-0.237037065,1,0,0,2.6667,Andesite_rect,1,2.667,1,14,0,14,0,1,,,,,,,,,,,,,
650d90ebf26334f992c31579,SCN,2024-06-25_09h40.33.947,LearnStrategy,2023.2.3,Win32,60.24096386,1,1,16,0.054629686,0.226851845,1,0,0,2.0798,Basalt_10,2,10,5,5,2.08,0.116666667,-0.245370399,1,0,0,2.5095,Diorite_rect,3,2.51,0,15,0,15,0,1,,,,,,,,,,,,,
650d90ebf26334f992c31579,SCN,2024-06-25_09h40.33.947,LearnStrategy,2023.2.3,Win32,60.24096386,1,2,1,,,,,,,,8,08,,,,,,,,,,,8,10.474,1,,,,,,0.40648151,-0.402777778,1,0,0,10.4744,Pumice_rect,0,0,0,0,1,
650d90ebf26334f992c31579,SCN,2024-06-25_09h40.33.947,LearnStrategy,2023.2.3,Win32,60.24096386,1,2,2,,,,,,,,1,05,,,,,,,,,,,6,5.973,0,,,,,,-0.129629601,-0.397222222,1,0,0,5.9731,Pegmatite_rect,1,0,1,0,1,
650d90ebf26334f992c31579,SCN,2024-06-25_09h40.33.947,LearnStrategy,2023.2.3,Win32,60.24096386,1,2,3,,,,,,,,7,10,,,,,,,,,,,7,2.58,1,,,,,,0.080555556,-0.386111111,1,0,0,2.5802,Peridotite_rect,2,0,2,0,1,
650d90ebf26334f992c31579,SCN,2024-06-25_09h40.33.947,LearnStrategy,2023.2.3,Win32,60.24096386,1,2,4,,,,,,,,2,08,,,,,,,,,,,2,1.473,1,,,,,,-0.078703647,-0.241666667,1,0,0,1.4729,Basalt_rect,3,0,3,0,1,
650d90ebf26334f992c31579,SCN,2024-06-25_09h40.33.947,LearnStrategy,2023.2.3,Win32,60.24096386,1,2,5,,,,,,,,5,09,,,,,,,,,,,5,4.154,1,,,,,,-0.412962935,-0.395370399,1,0,0,4.1541,Obsidian_rect,4,0,4,0,1,
650d90ebf26334f992c31579,SCN,2024-06-25_09h40.33.947,LearnStrategy,2023.2.3,Win32,60.24096386,1,2,6,,,,,,,,6,10,,,,,,,,,,,7,2.723,0,,,,,,0.060185242,-0.387963019,1,0,0,2.7234,Peridotite_rect,5,0,5,0,1,
650d90ebf26334f992c31579,SCN,2024-06-25_09h40.33.947,LearnStrategy,2023.2.3,Win32,60.24096386,1,2,7,,,,,,,,2,02,,,,,,,,,,,1,3.511,0,,,,,,-0.352777778,-0.254629686,1,0,0,3.511,Andesite_rect,6,0,6,0,1,
650d90ebf26334f992c31579,SCN,2024-06-25_09h40.33.947,LearnStrategy,2023.2.3,Win32,60.24096386,1,2,8,,,,,,,,4,16,,,,,,,,,,,2,2.48,0,,,,,,-0.171296268,-0.260185242,1,0,0,2.4799,Basalt_rect,7,0,7,0,1,
650d90ebf26334f992c31579,SCN,2024-06-25_09h40.33.947,LearnStrategy,2023.2.3,Win32,60.24096386,1,2,9,,,,,,,,8,13,,,,,,,,,,,8,2.238,1,,,,,,0.353703732,-0.401851908,1,0,0,2.2377,Pumice_rect,8,0,8,0,1,
650d90ebf26334f992c31579,SCN,2024-06-25_09h40.33.947,LearnStrategy,2023.2.3,Win32,60.24096386,1,2,10,,,,,,,,3,15,,,,,,,,,,,6,7.502,0,,,,,,-0.125925869,-0.385185242,1,0,0,7.5024,Pegmatite_rect,9,0,9,0,1,
650d90ebf26334f992c31579,SCN,2024-06-25_09h40.33.947,LearnStrategy,2023.2.3,Win32,60.24096386,1,2,11,,,,,,,,1,09,,,,,,,,,,,3,2.11,0,,,,,,0.062037065,-0.250925954,1,0,0,2.1096,Diorite_rect,10,0,10,0,1,
650d90ebf26334f992c31579,SCN,2024-06-25_09h40.33.947,LearnStrategy,2023.2.3,Win32,60.24096386,1,2,12,,,,,,,,7,16,,,,,,,,,,,4,3.166,0,,,,,,0.358333333,-0.241666667,1,0,0,3.1662,Gabbro_rect,11,0,11,0,1,
650d90ebf26334f992c31579,SCN,2024-06-25_09h40.33.947,LearnStrategy,2023.2.3,Win32,60.24096386,1,2,13,,,,,,,,4,01,,,,,,,,,,,3,2.494,0,,,,,,0.125925954,-0.252777778,1,0,0,2.4943,Diorite_rect,12,0,12,0,1,
650d90ebf26334f992c31579,SCN,2024-06-25_09h40.33.947,LearnStrategy,2023.2.3,Win32,60.24096386,1,2,14,,,,,,,,5,08,,,,,,,,,,,5,1.94,1,,,,,,-0.415740712,-0.384259288,1,0,0,1.9399,Obsidian_rect,13,0,13,0,1,
650d90ebf26334f992c31579,SCN,2024-06-25_09h40.33.947,LearnStrategy,2023.2.3,Win32,60.24096386,1,2,15,,,,,,,,3,08,,,,,,,,,,,6,3.156,0,,,,,,-0.170370314,-0.414814843,1,0,0,3.1555,Pegmatite_rect,14,0,14,0,1,
650d90ebf26334f992c31579,SCN,2024-06-25_09h40.33.947,LearnStrategy,2023.2.3,Win32,60.24096386,1,2,16,,,,,,,,6,12,,,,,,,,,,,7,1.607,0,,,,,,0.065740797,-0.404629686,1,0,0,1.6068,Peridotite_rect,15,0,15,0,1,
650d90ebf26334f992c31579,SCN,2024-06-25_09h40.33.947,LearnStrategy,2023.2.3,Win32,60.24096386,2,1,1,-0.508333333,0.409259256,1,0,0,5.8224,Peridotite_07,7,07,6,1,5.822,-0.458333333,-0.228703732,1,0,0,11.0001,Andesite_rect,1,11,0,0,0,0,0,1,,,,,,,,,,,,,
650d90ebf26334f992c31579,SCN,2024-06-25_09h40.33.947,LearnStrategy,2023.2.3,Win32,60.24096386,2,1,2,-0.383333333,0.405555556,1,0,0,0.9327,Pumice_16,8,16,6,2,0.933,0.105555556,-0.247222222,1,0,0,1.8702,Diorite_rect,3,1.87,0,1,0,1,0,1,,,,,,,,,,,,,
650d90ebf26334f992c31579,SCN,2024-06-25_09h40.33.947,LearnStrategy,2023.2.3,Win32,60.24096386,2,1,3,-0.237037023,0.396296289,1,0,0,1.5312,Andesite_07,1,07,6,3,1.531,0.362963019,-0.401851908,1,0,0,1.1765,Pumice_rect,8,1.177,0,2,0,2,0,1,,,,,,,,,,,,,
650d90ebf26334f992c31579,SCN,2024-06-25_09h40.33.947,LearnStrategy,2023.2.3,Win32,60.24096386,2,1,4,-0.09351849,0.443518517,1,0,0,1.0488,Basalt_16,2,16,6,4,1.049,-0.107407379,-0.249074131,1,0,0,1.6746,Basalt_rect,2,1.675,1,3,0,3,0,1,,,,,,,,,,,,,
650d90ebf26334f992c31579,SCN,2024-06-25_09h40.33.947,LearnStrategy,2023.2.3,Win32,60.24096386,2,1,5,0.080555556,0.435185183,1,0,0,1.1599,Diorite_02,3,02,6,5,1.16,0.386111111,-0.412037065,1,0,0,1.9248,Pumice_rect,8,1.925,0,4,0,4,0,1,,,,,,,,,,,,,
650d90ebf26334f992c31579,SCN,2024-06-25_09h40.33.947,LearnStrategy,2023.2.3,Win32,60.24096386,2,1,6,0.248148176,0.409259256,1,0,0,0.7815,Pegmatite_09,6,09,6,6,0.781,0.098148176,-0.397222222,1,0,0,1.7388,Peridotite_rect,7,1.739,0,5,0,5,0,1,,,,,,,,,,,,,
650d90ebf26334f992c31579,SCN,2024-06-25_09h40.33.947,LearnStrategy,2023.2.3,Win32,60.24096386,2,1,7,0.386111111,0.442592589,1,0,0,1.0151,Pegmatite_06,6,06,6,7,1.015,-0.137962935,-0.250925954,1,0,0,1.2714,Basalt_rect,2,1.271,0,6,0,6,0,1,,,,,,,,,,,,,
650d90ebf26334f992c31579,SCN,2024-06-25_09h40.33.947,LearnStrategy,2023.2.3,Win32,60.24096386,2,1,8,0.564814928,0.443518517,1,0,0,1.4146,Andesite_11,1,11,6,8,1.415,0.341666667,-0.271296353,1,0,0,2.4392,Gabbro_rect,4,2.439,0,7,0,7,0,1,,,,,,,,,,,,,
650d90ebf26334f992c31579,SCN,2024-06-25_09h40.33.947,LearnStrategy,2023.2.3,Win32,60.24096386,2,1,9,-0.547222222,0.226851845,1,0,0,1.0813,Obsidian_14,5,14,5,1,1.081,-0.388888889,-0.399074131,1,0,0,2.209,Obsidian_rect,5,2.209,1,8,0,8,0,1,,,,,,,,,,,,,
650d90ebf26334f992c31579,SCN,2024-06-25_09h40.33.947,LearnStrategy,2023.2.3,Win32,60.24096386,2,1,10,-0.400925912,0.213888889,1,0,0,1.3301,Basalt_05,2,05,5,2,1.33,-0.187037023,-0.258333333,1,0,0,1.4563,Basalt_rect,2,1.456,1,9,0,9,0,1,,,,,,,,,,,,,
650d90ebf26334f992c31579,SCN,2024-06-25_09h40.33.947,LearnStrategy,2023.2.3,Win32,60.24096386,2,1,11,-0.242592578,0.2324074,1,0,0,0.8144,Gabbro_08,4,08,5,3,0.814,-0.372222222,-0.263888889,1,0,0,1.1268,Andesite_rect,1,1.127,0,10,0,10,0,1,,,,,,,,,,,,,
650d90ebf26334f992c31579,SCN,2024-06-25_09h40.33.947,LearnStrategy,2023.2.3,Win32,60.24096386,2,1,12,0.088888889,0.237962956,1,0,0,1.5798,Basalt_10,2,10,5,5,1.58,-0.154629601,-0.25648151,1,0,0,1.3394,Basalt_rect,2,1.339,1,11,0,11,0,1,,,,,,,,,,,,,
650d90ebf26334f992c31579,SCN,2024-06-25_09h40.33.947,LearnStrategy,2023.2.3,Win32,60.24096386,2,1,13,-0.186111111,-0.286111111,1,0,0,1.632,Peridotite_15,7,15,2,3,1.632,-0.372222222,-0.266666667,1,0,0,3.586,Andesite_rect,1,3.586,0,12,0,12,0,1,,,,,,,,,,,,,
650d90ebf26334f992c31579,SCN,2024-06-25_09h40.33.947,LearnStrategy,2023.2.3,Win32,60.24096386,2,1,14,-0.046296268,0.085185157,1,0,0,1.5323,Obsidian_06,5,06,4,4,1.532,0.426851908,-0.400925954,1,0,0,1.7394,Pumice_rect,8,1.739,0,13,0,13,0,1,,,,,,,,,,,,,
650d90ebf26334f992c31579,SCN,2024-06-25_09h40.33.947,LearnStrategy,2023.2.3,Win32,60.24096386,2,1,15,-0.056481425,-0.15,1,0,0,1.231,Gabbro_03,4,03,3,4,1.231,0.339814843,-0.262963019,1,0,0,1.7597,Gabbro_rect,4,1.76,1,14,0,14,0,1,,,,,,,,,,,,,
650d90ebf26334f992c31579,SCN,2024-06-25_09h40.33.947,LearnStrategy,2023.2.3,Win32,60.24096386,2,1,16,-0.540740734,-0.254629686,1,0,0,1.3143,Pegmatite_08,6,08,2,1,1.314,-0.160185157,-0.257407464,1,0,0,0.7906,Basalt_rect,2,0.791,0,15,0,15,0,1,,,,,,,,,,,,,
650d90ebf26334f992c31579,SCN,2024-06-25_09h40.33.947,LearnStrategy,2023.2.3,Win32,60.24096386,2,2,1,,,,,,,,8,15,,,,,,,,,,,2,21.905,0,,,,,,-0.155555556,-0.238888889,1,0,0,21.9055,Basalt_rect,0,0,0,0,1,
650d90ebf26334f992c31579,SCN,2024-06-25_09h40.33.947,LearnStrategy,2023.2.3,Win32,60.24096386,2,2,2,,,,,,,,4,15,,,,,,,,,,,4,7.81,1,,,,,,0.389814843,-0.241666667,1,0,0,7.8099,Gabbro_rect,1,0,1,0,1,
650d90ebf26334f992c31579,SCN,2024-06-25_09h40.33.947,LearnStrategy,2023.2.3,Win32,60.24096386,2,2,3,,,,,,,,6,05,,,,,,,,,,,6,7.512,1,,,,,,-0.109259203,-0.398148176,1,0,0,7.5124,Pegmatite_rect,2,0,2,0,1,
650d90ebf26334f992c31579,SCN,2024-06-25_09h40.33.947,LearnStrategy,2023.2.3,Win32,60.24096386,2,2,4,,,,,,,,8,03,,,,,,,,,,,8,9.7,1,,,,,,0.303703732,-0.40648151,1,0,0,9.7005,Pumice_rect,3,0,3,0,1,
650d90ebf26334f992c31579,SCN,2024-06-25_09h40.33.947,LearnStrategy,2023.2.3,Win32,60.24096386,2,2,5,,,,,,,,3,12,,,,,,,,,,,1,7.162,0,,,,,,-0.446296268,-0.233333333,1,0,0,7.162,Andesite_rect,4,0,4,0,1,
650d90ebf26334f992c31579,SCN,2024-06-25_09h40.33.947,LearnStrategy,2023.2.3,Win32,60.24096386,2,2,6,,,,,,,,7,14,,,,,,,,,,,7,2.781,1,,,,,,0.082407464,-0.4,1,0,0,2.7814,Peridotite_rect,5,0,5,0,1,
650d90ebf26334f992c31579,SCN,2024-06-25_09h40.33.947,LearnStrategy,2023.2.3,Win32,60.24096386,2,2,7,,,,,,,,2,14,,,,,,,,,,,2,4.612,1,,,,,,-0.126851824,-0.267592621,1,0,0,4.6122,Basalt_rect,6,0,6,0,1,
650d90ebf26334f992c31579,SCN,2024-06-25_09h40.33.947,LearnStrategy,2023.2.3,Win32,60.24096386,2,2,8,,,,,,,,4,12,,,,,,,,,,,4,3.061,1,,,,,,0.393518575,-0.234259288,1,0,0,3.0611,Gabbro_rect,7,0,7,0,1,
650d90ebf26334f992c31579,SCN,2024-06-25_09h40.33.947,LearnStrategy,2023.2.3,Win32,60.24096386,2,2,9,,,,,,,,6,16,,,,,,,,,,,8,3.709,0,,,,,,0.358333333,-0.391666667,1,0,0,3.7091,Pumice_rect,8,0,8,0,1,
650d90ebf26334f992c31579,SCN,2024-06-25_09h40.33.947,LearnStrategy,2023.2.3,Win32,60.24096386,2,2,10,,,,,,,,1,10,,,,,,,,,,,4,5.859,0,,,,,,0.363888889,-0.264814843,1,0,0,5.8589,Gabbro_rect,9,0,9,0,1,
650d90ebf26334f992c31579,SCN,2024-06-25_09h40.33.947,LearnStrategy,2023.2.3,Win32,60.24096386,2,2,11,,,,,,,,7,04,,,,,,,,,,,1,4.982,0,,,,,,-0.325,-0.25648151,1,0,0,4.9819,Andesite_rect,10,0,10,0,1,
650d90ebf26334f992c31579,SCN,2024-06-25_09h40.33.947,LearnStrategy,2023.2.3,Win32,60.24096386,2,2,12,,,,,,,,2,09,,,,,,,,,,,8,3.927,0,,,,,,0.364814843,-0.398148176,1,0,0,3.9267,Pumice_rect,11,0,11,0,1,
650d90ebf26334f992c31579,SCN,2024-06-25_09h40.33.947,LearnStrategy,2023.2.3,Win32,60.24096386,2,2,13,,,,,,,,3,10,,,,,,,,,,,6,2.947,0,,,,,,-0.085185157,-0.396296353,1,0,0,2.9472,Pegmatite_rect,12,0,12,0,1,
650d90ebf26334f992c31579,SCN,2024-06-25_09h40.33.947,LearnStrategy,2023.2.3,Win32,60.24096386,2,2,14,,,,,,,,5,16,,,,,,,,,,,5,1.979,1,,,,,,-0.369444444,-0.382407464,1,0,0,1.9791,Obsidian_rect,13,0,13,0,1,
650d90ebf26334f992c31579,SCN,2024-06-25_09h40.33.947,LearnStrategy,2023.2.3,Win32,60.24096386,2,2,15,,,,,,,,1,14,,,,,,,,,,,4,6.389,0,,,,,,0.364814843,-0.248148176,1,0,0,6.3894,Gabbro_rect,14,0,14,0,1,
650d90ebf26334f992c31579,SCN,2024-06-25_09h40.33.947,LearnStrategy,2023.2.3,Win32,60.24096386,2,2,16,,,,,,,,5,12,,,,,,,,,,,5,2.031,1,,,,,,-0.405555556,-0.404629686,1,0,0,2.0308,Obsidian_rect,15,0,15,0,1,
650d90ebf26334f992c31579,SCN,2024-06-25_09h40.33.947,LearnStrategy,2023.2.3,Win32,60.24096386,3,1,1,0.596296353,-0.445370399,1,0,0,1.4099,Pegmatite_03,6,03,1,8,1.41,-0.112036981,-0.409259288,1,0,0,3.8911,Pegmatite_rect,6,3.891,1,0,0,0,0,1,,,,,,,,,,,,,
650d90ebf26334f992c31579,SCN,2024-06-25_09h40.33.947,LearnStrategy,2023.2.3,Win32,60.24096386,3,1,2,0.386111111,-0.457407464,1,0,0,1.0142,Pumice_14,8,14,1,7,1.014,0.347222222,-0.408333333,1,0,0,1.5881,Pumice_rect,8,1.588,1,1,0,1,0,1,,,,,,,,,,,,,
650d90ebf26334f992c31579,SCN,2024-06-25_09h40.33.947,LearnStrategy,2023.2.3,Win32,60.24096386,3,1,3,0.249074131,-0.437037065,1,0,0,1.0639,Diorite_16,3,16,1,6,1.064,-0.375925912,-0.269444444,1,0,0,1.2221,Andesite_rect,1,1.222,0,2,0,2,0,1,,,,,,,,,,,,,
650d90ebf26334f992c31579,SCN,2024-06-25_09h40.33.947,LearnStrategy,2023.2.3,Win32,60.24096386,3,1,4,0.116666667,-0.388888889,1,0,0,0.9645,Gabbro_05,4,05,1,5,0.964,0.4,-0.257407464,1,0,0,1.7219,Gabbro_rect,4,1.722,1,3,0,3,0,1,,,,,,,,,,,,,
650d90ebf26334f992c31579,SCN,2024-06-25_09h40.33.947,LearnStrategy,2023.2.3,Win32,60.24096386,3,1,5,-0.098148092,-0.427777778,1,0,0,0.9648,Peridotite_06,7,06,1,4,0.965,0.103703732,-0.407407464,1,0,0,1.4571,Peridotite_rect,7,1.457,1,4,0,4,0,1,,,,,,,,,,,,,
650d90ebf26334f992c31579,SCN,2024-06-25_09h40.33.947,LearnStrategy,2023.2.3,Win32,60.24096386,3,1,6,-0.236111111,-0.368518575,1,0,0,0.8625,Gabbro_11,4,11,1,3,0.862,-0.056481425,-0.404629686,1,0,0,2.7895,Pegmatite_rect,6,2.789,0,5,0,5,0,1,,,,,,,,,,,,,
650d90ebf26334f992c31579,SCN,2024-06-25_09h40.33.947,LearnStrategy,2023.2.3,Win32,60.24096386,3,1,7,-0.40370369,-0.441666667,1,0,0,1.1822,Andesite_06,1,06,1,2,1.182,0.343518575,-0.250925954,1,0,0,1.6705,Gabbro_rect,4,1.671,0,6,0,6,0,1,,,,,,,,,,,,,
650d90ebf26334f992c31579,SCN,2024-06-25_09h40.33.947,LearnStrategy,2023.2.3,Win32,60.24096386,3,1,8,-0.60370369,-0.420370399,1,0,0,1.0315,Diorite_09,3,09,1,1,1.032,0.343518575,-0.396296353,1,0,0,2.038,Pumice_rect,8,2.038,0,7,0,7,0,1,,,,,,,,,,,,,
650d90ebf26334f992c31579,SCN,2024-06-25_09h40.33.947,LearnStrategy,2023.2.3,Win32,60.24096386,3,1,9,0.399074131,-0.268518575,1,0,0,1.8313,Peridotite_08,7,08,2,7,1.831,-0.329629601,-0.252777778,1,0,0,1.5589,Andesite_rect,1,1.559,0,8,0,8,0,1,,,,,,,,,,,,,
650d90ebf26334f992c31579,SCN,2024-06-25_09h40.33.947,LearnStrategy,2023.2.3,Win32,60.24096386,3,1,10,0.068518575,-0.250925954,1,0,0,1.4947,Gabbro_13,4,13,2,5,1.495,0.332407464,-0.261111111,1,0,0,1.1405,Gabbro_rect,4,1.141,1,9,0,9,0,1,,,,,,,,,,,,,
650d90ebf26334f992c31579,SCN,2024-06-25_09h40.33.947,LearnStrategy,2023.2.3,Win32,60.24096386,3,1,11,-0.074074046,-0.233333333,1,0,0,1.0303,Basalt_01,2,01,2,4,1.03,-0.119444444,-0.264814843,1,0,0,1.2138,Basalt_rect,2,1.214,1,10,0,10,0,1,,,,,,,,,,,,,
650d90ebf26334f992c31579,SCN,2024-06-25_09h40.33.947,LearnStrategy,2023.2.3,Win32,60.24096386,3,1,12,-0.271296268,-0.262963019,1,0,0,1.2379,Peridotite_15,7,15,2,3,1.238,0.143518575,-0.412037065,1,0,0,0.9012,Peridotite_rect,7,0.901,1,11,0,11,0,1,,,,,,,,,,,,,
650d90ebf26334f992c31579,SCN,2024-06-25_09h40.33.947,LearnStrategy,2023.2.3,Win32,60.24096386,3,1,13,-0.375,-0.25,1,0,0,0.8468,Gabbro_14,4,14,2,2,0.847,-0.202777778,-0.400925954,1,0,0,2.4769,Pegmatite_rect,6,2.477,0,12,0,12,0,1,,,,,,,,,,,,,
650d90ebf26334f992c31579,SCN,2024-06-25_09h40.33.947,LearnStrategy,2023.2.3,Win32,60.24096386,3,1,14,-0.50370369,-0.270370399,1,0,0,2.1817,Pegmatite_08,6,08,2,1,2.182,0.133333333,-0.414814843,1,0,0,2.0399,Peridotite_rect,7,2.04,0,13,0,13,0,1,,,,,,,,,,,,,
650d90ebf26334f992c31579,SCN,2024-06-25_09h40.33.947,LearnStrategy,2023.2.3,Win32,60.24096386,3,1,15,0.569444444,-0.115740755,1,0,0,1.0961,Peridotite_13,7,13,3,8,1.096,0.127777778,-0.404629686,1,0,0,1.007,Peridotite_rect,7,1.007,1,14,0,14,0,1,,,,,,,,,,,,,
650d90ebf26334f992c31579,SCN,2024-06-25_09h40.33.947,LearnStrategy,2023.2.3,Win32,60.24096386,3,1,16,0.228703732,-0.120370399,1,0,0,2.2307,Pumice_06,8,06,3,6,2.231,0.35,-0.404629686,1,0,0,2.2483,Pumice_rect,8,2.248,1,15,0,15,0,1,,,,,,,,,,,,,
650d90ebf26334f992c31579,SCN,2024-06-25_09h40.33.947,LearnStrategy,2023.2.3,Win32,60.24096386,3,2,1,,,,,,,,2,06,,,,,,,,,,,4,8.605,0,,,,,,0.375,-0.237037065,1,0,0,8.6054,Gabbro_rect,0,0,0,0,1,
650d90ebf26334f992c31579,SCN,2024-06-25_09h40.33.947,LearnStrategy,2023.2.3,Win32,60.24096386,3,2,2,,,,,,,,3,06,,,,,,,,,,,4,3.609,0,,,,,,0.358333333,-0.264814843,1,0,0,3.6087,Gabbro_rect,1,0,1,0,1,
650d90ebf26334f992c31579,SCN,2024-06-25_09h40.33.947,LearnStrategy,2023.2.3,Win32,60.24096386,3,2,3,,,,,,,,7,12,,,,,,,,,,,7,5.092,1,,,,,,0.102777778,-0.395370399,1,0,0,5.092,Peridotite_rect,2,0,2,0,1,
650d90ebf26334f992c31579,SCN,2024-06-25_09h40.33.947,LearnStrategy,2023.2.3,Win32,60.24096386,3,2,4,,,,,,,,4,10,,,,,,,,,,,2,2.778,0,,,,,,-0.145370314,-0.238888889,1,0,0,2.7779,Basalt_rect,3,0,3,0,1,
650d90ebf26334f992c31579,SCN,2024-06-25_09h40.33.947,LearnStrategy,2023.2.3,Win32,60.24096386,3,2,5,,,,,,,,6,15,,,,,,,,,,,6,7.069,1,,,,,,-0.102777778,-0.40648151,1,0,0,7.0694,Pegmatite_rect,4,0,4,0,1,
650d90ebf26334f992c31579,SCN,2024-06-25_09h40.33.947,LearnStrategy,2023.2.3,Win32,60.24096386,3,2,6,,,,,,,,7,05,,,,,,,,,,,4,7.528,0,,,,,,0.330555556,-0.245370399,1,0,0,7.528,Gabbro_rect,5,0,5,0,1,
650d90ebf26334f992c31579,SCN,2024-06-25_09h40.33.947,LearnStrategy,2023.2.3,Win32,60.24096386,3,2,7,,,,,,,,5,07,,,,,,,,,,,5,1.154,1,,,,,,-0.341666667,-0.394444444,1,0,0,1.1537,Obsidian_rect,6,0,6,0,1,
650d90ebf26334f992c31579,SCN,2024-06-25_09h40.33.947,LearnStrategy,2023.2.3,Win32,60.24096386,3,2,8,,,,,,,,6,13,,,,,,,,,,,6,4.087,1,,,,,,-0.1,-0.402777778,1,0,0,4.0868,Pegmatite_rect,7,0,7,0,1,
650d90ebf26334f992c31579,SCN,2024-06-25_09h40.33.947,LearnStrategy,2023.2.3,Win32,60.24096386,3,2,9,,,,,,,,1,04,,,,,,,,,,,8,6.499,0,,,,,,0.355555556,-0.418518575,1,0,0,6.499,Pumice_rect,8,0,8,0,1,
650d90ebf26334f992c31579,SCN,2024-06-25_09h40.33.947,LearnStrategy,2023.2.3,Win32,60.24096386,3,2,10,,,,,,,,1,01,,,,,,,,,,,1,5.26,1,,,,,,-0.412037023,-0.239814843,1,0,0,5.2601,Andesite_rect,9,0,9,0,1,
650d90ebf26334f992c31579,SCN,2024-06-25_09h40.33.947,LearnStrategy,2023.2.3,Win32,60.24096386,3,2,11,,,,,,,,4,09,,,,,,,,,,,8,3.068,0,,,,,,0.369444444,-0.421296353,1,0,0,3.0681,Pumice_rect,10,0,10,0,1,
650d90ebf26334f992c31579,SCN,2024-06-25_09h40.33.947,LearnStrategy,2023.2.3,Win32,60.24096386,3,2,12,,,,,,,,8,05,,,,,,,,,,,8,4.802,1,,,,,,0.333333333,-0.398148176,1,0,0,4.8017,Pumice_rect,11,0,11,0,1,
650d90ebf26334f992c31579,SCN,2024-06-25_09h40.33.947,LearnStrategy,2023.2.3,Win32,60.24096386,3,2,13,,,,,,,,5,05,,,,,,,,,,,5,2.161,1,,,,,,-0.389814801,-0.407407464,1,0,0,2.1613,Obsidian_rect,12,0,12,0,1,
650d90ebf26334f992c31579,SCN,2024-06-25_09h40.33.947,LearnStrategy,2023.2.3,Win32,60.24096386,3,2,14,,,,,,,,3,13,,,,,,,,,,,7,13.428,0,,,,,,0.1,-0.40648151,1,0,0,13.4281,Peridotite_rect,13,0,13,0,1,
650d90ebf26334f992c31579,SCN,2024-06-25_09h40.33.947,LearnStrategy,2023.2.3,Win32,60.24096386,3,2,15,,,,,,,,8,02,,,,,,,,,,,8,1.586,1,,,,,,0.326851908,-0.399074131,1,0,0,1.5856,Pumice_rect,14,0,14,0,1,
650d90ebf26334f992c31579,SCN,2024-06-25_09h40.33.947,LearnStrategy,2023.2.3,Win32,60.24096386,3,2,16,,,,,,,,2,04,,,,,,,,,,,2,1.491,1,,,,,,-0.156481425,-0.251851908,1,0,0,1.491,Basalt_rect,15,0,15,0,1,
650d90ebf26334f992c31579,SCN,2024-06-25_09h40.33.947,LearnStrategy,2023.2.3,Win32,60.24096386,4,1,1,-0.507407379,0.411111111,1,0,0,1.0151,Peridotite_07,7,07,6,1,1.015,0.102777778,-0.262037065,1,0,0,1.3403,Diorite_rect,3,1.34,0,0,0,0,0,1,,,,,,,,,,,,,
650d90ebf26334f992c31579,SCN,2024-06-25_09h40.33.947,LearnStrategy,2023.2.3,Win32,60.24096386,4,1,2,-0.563888889,0.248148134,1,0,0,1.2318,Obsidian_14,5,14,5,1,1.232,-0.386111111,-0.414814843,1,0,0,1.6885,Obsidian_rect,5,1.688,1,1,0,1,0,1,,,,,,,,,,,,,
650d90ebf26334f992c31579,SCN,2024-06-25_09h40.33.947,LearnStrategy,2023.2.3,Win32,60.24096386,4,1,3,-0.572222222,0.096296268,1,0,0,1.2457,Pumice_10,8,10,4,1,1.246,0.322222222,-0.389814843,1,0,0,1.8376,Pumice_rect,8,1.838,1,2,0,2,0,1,,,,,,,,,,,,,
650d90ebf26334f992c31579,SCN,2024-06-25_09h40.33.947,LearnStrategy,2023.2.3,Win32,60.24096386,4,1,4,-0.527777778,-0.108333333,1,0,0,0.8322,Pegmatite_07,6,07,3,1,0.832,-0.190740712,-0.25,1,0,0,0.8717,Basalt_rect,2,0.872,0,3,0,3,0,1,,,,,,,,,,,,,
650d90ebf26334f992c31579,SCN,2024-06-25_09h40.33.947,LearnStrategy,2023.2.3,Win32,60.24096386,4,1,5,-0.584259245,-0.292592621,1,0,0,0.8331,Pegmatite_08,6,08,2,1,0.833,-0.320370356,-0.391666667,1,0,0,1.5901,Obsidian_rect,5,1.59,0,4,0,4,0,1,,,,,,,,,,,,,
650d90ebf26334f992c31579,SCN,2024-06-25_09h40.33.947,LearnStrategy,2023.2.3,Win32,60.24096386,4,1,6,-0.595370356,-0.426851908,1,0,0,0.9824,Diorite_09,3,09,1,1,0.982,0.085185242,-0.238888889,1,0,0,2.7036,Diorite_rect,3,2.704,1,5,0,5,0,1,,,,,,,,,,,,,
650d90ebf26334f992c31579,SCN,2024-06-25_09h40.33.947,LearnStrategy,2023.2.3,Win32,60.24096386,4,1,7,-0.4,0.229629623,1,0,0,0.8463,Basalt_05,2,05,5,2,0.846,-0.080555556,-0.258333333,1,0,0,1.0338,Basalt_rect,2,1.034,1,6,0,6,0,1,,,,,,,,,,,,,
650d90ebf26334f992c31579,SCN,2024-06-25_09h40.33.947,LearnStrategy,2023.2.3,Win32,60.24096386,4,1,8,-0.421296268,0.101851824,1,0,0,0.6627,Diorite_14,3,14,4,2,0.663,-0.132407379,-0.40648151,1,0,0,3.8243,Pegmatite_rect,6,3.824,0,7,0,7,0,1,,,,,,,,,,,,,
650d90ebf26334f992c31579,SCN,2024-06-25_09h40.33.947,LearnStrategy,2023.2.3,Win32,60.24096386,4,1,9,0.112037065,-0.120370399,1,0,0,2.3141,Obsidian_10,5,10,3,5,2.314,-0.365740712,-0.399074131,1,0,0,1.1213,Obsidian_rect,5,1.121,1,8,0,8,0,1,,,,,,,,,,,,,
650d90ebf26334f992c31579,SCN,2024-06-25_09h40.33.947,LearnStrategy,2023.2.3,Win32,60.24096386,4,1,10,0.376851908,-0.060185199,1,0,0,1.0143,Diorite_07,3,07,3,7,1.014,0.147222222,-0.25648151,1,0,0,0.8213,Diorite_rect,3,0.821,1,9,0,9,0,1,,,,,,,,,,,,,
650d90ebf26334f992c31579,SCN,2024-06-25_09h40.33.947,LearnStrategy,2023.2.3,Win32,60.24096386,4,1,11,0.411111111,0.2824074,1,0,0,1.1651,Diorite_11,3,11,5,7,1.165,0.122222222,-0.239814843,1,0,0,1.6035,Diorite_rect,3,1.603,1,10,0,10,0,1,,,,,,,,,,,,,
650d90ebf26334f992c31579,SCN,2024-06-25_09h40.33.947,LearnStrategy,2023.2.3,Win32,60.24096386,4,1,12,0.262963019,0.227777778,1,0,0,0.898,Pumice_09,8,09,5,6,0.898,0.370370399,-0.402777778,1,0,0,1.839,Pumice_rect,8,1.839,1,11,0,11,0,1,,,,,,,,,,,,,
650d90ebf26334f992c31579,SCN,2024-06-25_09h40.33.947,LearnStrategy,2023.2.3,Win32,60.24096386,4,1,13,-0.067592536,0.096296268,1,0,0,0.8803,Obsidian_06,5,06,4,4,0.88,-0.326851824,-0.421296353,1,0,0,1.1236,Obsidian_rect,5,1.124,1,12,0,12,0,1,,,,,,,,,,,,,
650d90ebf26334f992c31579,SCN,2024-06-25_09h40.33.947,LearnStrategy,2023.2.3,Win32,60.24096386,4,1,14,-0.25370369,0.080555556,1,0,0,0.7658,Basalt_11,2,11,4,3,0.766,0.441666667,-0.413888889,1,0,0,1.5068,Pumice_rect,8,1.507,0,13,0,13,0,1,,,,,,,,,,,,,
650d90ebf26334f992c31579,SCN,2024-06-25_09h40.33.947,LearnStrategy,2023.2.3,Win32,60.24096386,4,1,15,-0.227777778,-0.108333333,1,0,0,0.9388,Basalt_12,2,12,3,3,0.939,-0.137962935,-0.239814843,1,0,0,0.9821,Basalt_rect,2,0.982,1,14,0,14,0,1,,,,,,,,,,,,,
650d90ebf26334f992c31579,SCN,2024-06-25_09h40.33.947,LearnStrategy,2023.2.3,Win32,60.24096386,4,1,16,-0.199074046,-0.435185242,1,0,0,1.2802,Gabbro_11,4,11,1,3,1.28,-0.126851824,-0.237963019,1,0,0,0.8915,Basalt_rect,2,0.891,0,15,0,15,0,1,,,,,,,,,,,,,
650d90ebf26334f992c31579,SCN,2024-06-25_09h40.33.947,LearnStrategy,2023.2.3,Win32,60.24096386,4,2,1,,,,,,,,8,03,,,,,,,,,,,8,1.841,1,,,,,,0.323148176,-0.389814843,1,0,0,1.8408,Pumice_rect,0,0,0,0,1,
650d90ebf26334f992c31579,SCN,2024-06-25_09h40.33.947,LearnStrategy,2023.2.3,Win32,60.24096386,4,2,2,,,,,,,,3,10,,,,,,,,,,,3,11.561,1,,,,,,0.113888889,-0.243518575,1,0,0,11.5605,Diorite_rect,1,0,1,0,1,
650d90ebf26334f992c31579,SCN,2024-06-25_09h40.33.947,LearnStrategy,2023.2.3,Win32,60.24096386,4,2,3,,,,,,,,3,08,,,,,,,,,,,1,3.345,0,,,,,,-0.394444444,-0.270370399,1,0,0,3.3447,Andesite_rect,2,0,2,0,1,
650d90ebf26334f992c31579,SCN,2024-06-25_09h40.33.947,LearnStrategy,2023.2.3,Win32,60.24096386,4,2,4,,,,,,,,6,12,,,,,,,,,,,1,2.291,0,,,,,,-0.394444444,-0.270370399,1,0,0,2.2908,Andesite_rect,3,0,3,0,1,
650d90ebf26334f992c31579,SCN,2024-06-25_09h40.33.947,LearnStrategy,2023.2.3,Win32,60.24096386,4,2,5,,,,,,,,6,05,,,,,,,,,,,6,6.344,1,,,,,,-0.14351849,-0.387037065,1,0,0,6.3445,Pegmatite_rect,4,0,4,0,1,
650d90ebf26334f992c31579,SCN,2024-06-25_09h40.33.947,LearnStrategy,2023.2.3,Win32,60.24096386,4,2,6,,,,,,,,1,01,,,,,,,,,,,2,4.55,0,,,,,,-0.149074046,-0.250925954,1,0,0,4.5502,Basalt_rect,5,0,5,0,1,
650d90ebf26334f992c31579,SCN,2024-06-25_09h40.33.947,LearnStrategy,2023.2.3,Win32,60.24096386,4,2,7,,,,,,,,4,12,,,,,,,,,,,4,2.682,1,,,,,,0.395370399,-0.237963019,1,0,0,2.6817,Gabbro_rect,6,0,6,0,1,
650d90ebf26334f992c31579,SCN,2024-06-25_09h40.33.947,LearnStrategy,2023.2.3,Win32,60.24096386,4,2,8,,,,,,,,5,12,,,,,,,,,,,5,1.293,1,,,,,,-0.377777778,-0.391666667,1,0,0,1.2927,Obsidian_rect,7,0,7,0,1,
650d90ebf26334f992c31579,SCN,2024-06-25_09h40.33.947,LearnStrategy,2023.2.3,Win32,60.24096386,4,2,9,,,,,,,,5,16,,,,,,,,,,,5,0.881,1,,,,,,-0.444444444,-0.421296353,1,0,0,0.8815,Obsidian_rect,8,0,8,0,1,
650d90ebf26334f992c31579,SCN,2024-06-25_09h40.33.947,LearnStrategy,2023.2.3,Win32,60.24096386,4,2,10,,,,,,,,4,01,,,,,,,,,,,1,5.139,0,,,,,,-0.346296268,-0.269444444,1,0,0,5.1385,Andesite_rect,9,0,9,0,1,
650d90ebf26334f992c31579,SCN,2024-06-25_09h40.33.947,LearnStrategy,2023.2.3,Win32,60.24096386,4,2,11,,,,,,,,2,02,,,,,,,,,,,1,1.296,0,,,,,,-0.346296268,-0.269444444,1,0,0,1.296,Andesite_rect,10,0,10,0,1,
650d90ebf26334f992c31579,SCN,2024-06-25_09h40.33.947,LearnStrategy,2023.2.3,Win32,60.24096386,4,2,12,,,,,,,,1,14,,,,,,,,,,,2,3.708,0,,,,,,-0.157407379,-0.264814843,1,0,0,3.7079,Basalt_rect,11,0,11,0,1,
650d90ebf26334f992c31579,SCN,2024-06-25_09h40.33.947,LearnStrategy,2023.2.3,Win32,60.24096386,4,2,13,,,,,,,,2,09,,,,,,,,,,,6,7.562,0,,,,,,-0.079629601,-0.398148176,1,0,0,7.5622,Pegmatite_rect,12,0,12,0,1,
650d90ebf26334f992c31579,SCN,2024-06-25_09h40.33.947,LearnStrategy,2023.2.3,Win32,60.24096386,4,2,14,,,,,,,,7,05,,,,,,,,,,,7,1.756,1,,,,,,0.117592621,-0.382407464,1,0,0,1.7557,Peridotite_rect,13,0,13,0,1,
650d90ebf26334f992c31579,SCN,2024-06-25_09h40.33.947,LearnStrategy,2023.2.3,Win32,60.24096386,4,2,15,,,,,,,,7,10,,,,,,,,,,,7,1.242,1,,,,,,0.091666667,-0.391666667,1,0,0,1.2417,Peridotite_rect,14,0,14,0,1,
650d90ebf26334f992c31579,SCN,2024-06-25_09h40.33.947,LearnStrategy,2023.2.3,Win32,60.24096386,4,2,16,,,,,,,,8,02,,,,,,,,,,,8,2.306,1,,,,,,0.368518575,-0.404629686,1,0,0,2.3062,Pumice_rect,15,0,15,0,1,
650d90ebf26334f992c31579,SCN,2024-06-25_09h40.33.947,LearnStrategy,2023.2.3,Win32,60.24096386,5,1,1,-0.202777778,0.069444444,1,0,0,1.1797,Basalt_11,2,11,4,3,1.18,0.391666667,-0.405555556,1,0,0,1.7378,Pumice_rect,8,1.738,0,0,0,0,0,1,,,,,,,,,,,,,
650d90ebf26334f992c31579,SCN,2024-06-25_09h40.33.947,LearnStrategy,2023.2.3,Win32,60.24096386,5,1,2,-0.084259203,0.20370369,1,0,0,2.7125,Andesite_03,1,03,5,4,2.713,-0.087036981,-0.270370399,1,0,0,1.2216,Basalt_rect,2,1.222,0,1,0,1,0,1,,,,,,,,,,,,,
650d90ebf26334f992c31579,SCN,2024-06-25_09h40.33.947,LearnStrategy,2023.2.3,Win32,60.24096386,5,1,3,0.113888889,0.355555556,1,0,0,1.3807,Diorite_02,3,02,6,5,1.381,0.134259288,-0.262963019,1,0,0,1.5566,Diorite_rect,3,1.557,1,2,0,2,0,1,,,,,,,,,,,,,
650d90ebf26334f992c31579,SCN,2024-06-25_09h40.33.947,LearnStrategy,2023.2.3,Win32,60.24096386,5,1,4,0.388888889,0.224074067,1,0,0,1.0111,Diorite_11,3,11,5,7,1.011,0.115740797,-0.241666667,1,0,0,0.8109,Diorite_rect,3,0.811,1,3,0,3,0,1,,,,,,,,,,,,,
650d90ebf26334f992c31579,SCN,2024-06-25_09h40.33.947,LearnStrategy,2023.2.3,Win32,60.24096386,5,1,5,0.375925954,-0.125925954,1,0,0,1.1319,Diorite_07,3,07,3,7,1.132,0.112037065,-0.244444444,1,0,0,0.7403,Diorite_rect,3,0.74,1,4,0,4,0,1,,,,,,,,,,,,,
650d90ebf26334f992c31579,SCN,2024-06-25_09h40.33.947,LearnStrategy,2023.2.3,Win32,60.24096386,5,1,6,0.209259288,-0.394444444,1,0,0,1.499,Diorite_16,3,16,1,6,1.499,0.080555556,-0.25648151,1,0,0,1.3238,Diorite_rect,3,1.324,1,5,0,5,0,1,,,,,,,,,,,,,
650d90ebf26334f992c31579,SCN,2024-06-25_09h40.33.947,LearnStrategy,2023.2.3,Win32,60.24096386,5,1,7,-0.080555556,-0.412037065,1,0,0,0.9297,Peridotite_06,7,06,1,4,0.93,0.065740797,-0.388888889,1,0,0,2.0514,Peridotite_rect,7,2.051,1,6,0,6,0,1,,,,,,,,,,,,,
650d90ebf26334f992c31579,SCN,2024-06-25_09h40.33.947,LearnStrategy,2023.2.3,Win32,60.24096386,5,1,8,-0.233333333,-0.280555556,1,0,0,1.1508,Peridotite_15,7,15,2,3,1.151,0.123148176,-0.385185242,1,0,0,1.0793,Peridotite_rect,7,1.079,1,7,0,7,0,1,,,,,,,,,,,,,
650d90ebf26334f992c31579,SCN,2024-06-25_09h40.33.947,LearnStrategy,2023.2.3,Win32,60.24096386,5,1,9,-0.383333333,-0.40648151,1,0,0,1.5149,Andesite_06,1,06,1,2,1.515,-0.382407379,-0.258333333,1,0,0,2.0581,Andesite_rect,1,2.058,1,8,0,8,0,1,,,,,,,,,,,,,
650d90ebf26334f992c31579,SCN,2024-06-25_09h40.33.947,LearnStrategy,2023.2.3,Win32,60.24096386,5,1,10,-0.225925912,0.112037023,1,0,0,1.1482,Basalt_11,2,11,4,3,1.148,0.436111111,-0.416666667,1,0,0,1.1597,Pumice_rect,8,1.16,0,9,0,9,0,1,,,,,,,,,,,,,
650d90ebf26334f992c31579,SCN,2024-06-25_09h40.33.947,LearnStrategy,2023.2.3,Win32,60.24096386,5,1,11,-0.381481467,0.058333333,1,0,0,1.0957,Diorite_14,3,14,4,2,1.096,-0.438888889,-0.246296353,1,0,0,0.6754,Andesite_rect,1,0.675,0,10,0,10,0,1,,,,,,,,,,,,,
650d90ebf26334f992c31579,SCN,2024-06-25_09h40.33.947,LearnStrategy,2023.2.3,Win32,60.24096386,5,1,12,-0.538888889,0.062037023,1,0,0,1.6817,Pumice_10,8,10,4,1,1.682,0.387963019,-0.401851908,1,0,0,1.9189,Pumice_rect,8,1.919,1,11,0,11,0,1,,,,,,,,,,,,,
650d90ebf26334f992c31579,SCN,2024-06-25_09h40.33.947,LearnStrategy,2023.2.3,Win32,60.24096386,5,1,13,-0.525,-0.362037065,1,0,0,1.1675,Diorite_09,3,09,1,1,1.168,-0.37870369,-0.263888889,1,0,0,1.0141,Andesite_rect,1,1.014,0,12,0,12,0,1,,,,,,,,,,,,,
650d90ebf26334f992c31579,SCN,2024-06-25_09h40.33.947,LearnStrategy,2023.2.3,Win32,60.24096386,5,1,14,0.358333333,-0.122222222,1,0,0,1.5316,Diorite_07,3,07,3,7,1.532,0.092592621,-0.249074131,1,0,0,1.3587,Diorite_rect,3,1.359,1,13,0,13,0,1,,,,,,,,,,,,,
650d90ebf26334f992c31579,SCN,2024-06-25_09h40.33.947,LearnStrategy,2023.2.3,Win32,60.24096386,5,1,15,-0.225925912,0.375,1,0,0,1.5484,Andesite_07,1,07,6,3,1.548,-0.402777778,-0.251851908,1,0,0,2.076,Andesite_rect,1,2.076,1,14,0,14,0,1,,,,,,,,,,,,,
650d90ebf26334f992c31579,SCN,2024-06-25_09h40.33.947,LearnStrategy,2023.2.3,Win32,60.24096386,5,1,16,0.062963019,0.370370367,1,0,0,1.014,Diorite_02,3,02,6,5,1.014,0.104629686,-0.270370399,1,0,0,1.8051,Diorite_rect,3,1.805,1,15,0,15,0,1,,,,,,,,,,,,,
650d90ebf26334f992c31579,SCN,2024-06-25_09h40.33.947,LearnStrategy,2023.2.3,Win32,60.24096386,5,2,1,,,,,,,,2,08,,,,,,,,,,,2,2.708,1,,,,,,-0.149074046,-0.232407464,1,0,0,2.7075,Basalt_rect,0,0,0,0,1,
650d90ebf26334f992c31579,SCN,2024-06-25_09h40.33.947,LearnStrategy,2023.2.3,Win32,60.24096386,5,2,2,,,,,,,,6,16,,,,,,,,,,,6,3.505,1,,,,,,-0.158333333,-0.415740797,1,0,0,3.505,Pegmatite_rect,1,0,1,0,1,
650d90ebf26334f992c31579,SCN,2024-06-25_09h40.33.947,LearnStrategy,2023.2.3,Win32,60.24096386,5,2,3,,,,,,,,6,10,,,,,,,,,,,7,1.179,0,,,,,,0.113888889,-0.412963019,1,0,0,1.1789,Peridotite_rect,2,0,2,0,1,
650d90ebf26334f992c31579,SCN,2024-06-25_09h40.33.947,LearnStrategy,2023.2.3,Win32,60.24096386,5,2,4,,,,,,,,2,04,,,,,,,,,,,2,1.057,1,,,,,,-0.205555556,-0.267592621,1,0,0,1.0574,Basalt_rect,3,0,3,0,1,
650d90ebf26334f992c31579,SCN,2024-06-25_09h40.33.947,LearnStrategy,2023.2.3,Win32,60.24096386,5,2,5,,,,,,,,4,10,,,,,,,,,,,1,2.839,0,,,,,,-0.362037023,-0.25,1,0,0,2.8395,Andesite_rect,4,0,4,0,1,
650d90ebf26334f992c31579,SCN,2024-06-25_09h40.33.947,LearnStrategy,2023.2.3,Win32,60.24096386,5,2,6,,,,,,,,4,15,,,,,,,,,,,1,2.352,0,,,,,,-0.389814801,-0.234259288,1,0,0,2.3525,Andesite_rect,5,0,5,0,1,
650d90ebf26334f992c31579,SCN,2024-06-25_09h40.33.947,LearnStrategy,2023.2.3,Win32,60.24096386,5,2,7,,,,,,,,3,12,,,,,,,,,,,6,1.455,0,,,,,,-0.112962935,-0.408333333,1,0,0,1.4553,Pegmatite_rect,6,0,6,0,1,
650d90ebf26334f992c31579,SCN,2024-06-25_09h40.33.947,LearnStrategy,2023.2.3,Win32,60.24096386,5,2,8,,,,,,,,7,12,,,,,,,,,,,7,3.343,1,,,,,,0.121296353,-0.38148151,1,0,0,3.3435,Peridotite_rect,7,0,7,0,1,
650d90ebf26334f992c31579,SCN,2024-06-25_09h40.33.947,LearnStrategy,2023.2.3,Win32,60.24096386,5,2,9,,,,,,,,5,08,,,,,,,,,,,5,1.25,1,,,,,,-0.398148134,-0.404629686,1,0,0,1.2501,Obsidian_rect,8,0,8,0,1,
650d90ebf26334f992c31579,SCN,2024-06-25_09h40.33.947,LearnStrategy,2023.2.3,Win32,60.24096386,5,2,10,,,,,,,,8,15,,,,,,,,,,,8,1.324,1,,,,,,0.404629686,-0.391666667,1,0,0,1.324,Pumice_rect,9,0,9,0,1,
650d90ebf26334f992c31579,SCN,2024-06-25_09h40.33.947,LearnStrategy,2023.2.3,Win32,60.24096386,5,2,11,,,,,,,,3,06,,,,,,,,,,,3,1.449,1,,,,,,0.100925954,-0.262963019,1,0,0,1.4493,Diorite_rect,10,0,10,0,1,
650d90ebf26334f992c31579,SCN,2024-06-25_09h40.33.947,LearnStrategy,2023.2.3,Win32,60.24096386,5,2,12,,,,,,,,1,05,,,,,,,,,,,3,1.007,0,,,,,,0.095370399,-0.230555556,1,0,0,1.0075,Diorite_rect,11,0,11,0,1,
650d90ebf26334f992c31579,SCN,2024-06-25_09h40.33.947,LearnStrategy,2023.2.3,Win32,60.24096386,5,2,13,,,,,,,,1,04,,,,,,,,,,,2,1.56,0,,,,,,-0.186111111,-0.229629686,1,0,0,1.5596,Basalt_rect,12,0,12,0,1,
650d90ebf26334f992c31579,SCN,2024-06-25_09h40.33.947,LearnStrategy,2023.2.3,Win32,60.24096386,5,2,14,,,,,,,,8,08,,,,,,,,,,,8,1.262,1,,,,,,0.412037065,-0.403703732,1,0,0,1.2616,Pumice_rect,13,0,13,0,1,
650d90ebf26334f992c31579,SCN,2024-06-25_09h40.33.947,LearnStrategy,2023.2.3,Win32,60.24096386,5,2,15,,,,,,,,5,09,,,,,,,,,,,5,1.51,1,,,,,,-0.435185157,-0.385185242,1,0,0,1.5098,Obsidian_rect,14,0,14,0,1,
650d90ebf26334f992c31579,SCN,2024-06-25_09h40.33.947,LearnStrategy,2023.2.3,Win32,60.24096386,5,2,16,,,,,,,,7,14,,,,,,,,,,,7,1.891,1,,,,,,0.093518575,-0.405555556,1,0,0,1.891,Peridotite_rect,15,0,15,0,1,
650d90ebf26334f992c31579,SCN,2024-06-25_09h40.33.947,LearnStrategy,2023.2.3,Win32,60.24096386,6,1,1,-0.509259245,0.409259256,1,0,0,0.7987,Peridotite_07,7,07,6,1,0.799,-0.370370356,-0.237963019,1,0,0,1.7192,Andesite_rect,1,1.719,0,0,0,0,0,1,,,,,,,,,,,,,
650d90ebf26334f992c31579,SCN,2024-06-25_09h40.33.947,LearnStrategy,2023.2.3,Win32,60.24096386,6,1,2,-0.425925912,0.42685185,1,0,0,0.7851,Pumice_16,8,16,6,2,0.785,0.337037065,-0.378703732,1,0,0,1.655,Pumice_rect,8,1.655,1,1,0,1,0,1,,,,,,,,,,,,,
650d90ebf26334f992c31579,SCN,2024-06-25_09h40.33.947,LearnStrategy,2023.2.3,Win32,60.24096386,6,1,3,-0.238888889,0.419444444,1,0,0,0.8818,Andesite_07,1,07,6,3,0.882,-0.366666667,-0.25648151,1,0,0,1.4913,Andesite_rect,1,1.491,1,2,0,2,0,1,,,,,,,,,,,,,
650d90ebf26334f992c31579,SCN,2024-06-25_09h40.33.947,LearnStrategy,2023.2.3,Win32,60.24096386,6,1,4,0.047222222,0.441666667,1,0,0,1.1642,Diorite_02,3,02,6,5,1.164,-0.344444444,-0.239814843,1,0,0,1.7086,Andesite_rect,1,1.709,0,3,0,3,0,1,,,,,,,,,,,,,
650d90ebf26334f992c31579,SCN,2024-06-25_09h40.33.947,LearnStrategy,2023.2.3,Win32,60.24096386,6,1,5,0.370370399,0.390740734,1,0,0,1.316,Pegmatite_06,6,06,6,7,1.316,-0.182407379,-0.254629686,1,0,0,1.4247,Basalt_rect,2,1.425,0,4,0,4,0,1,,,,,,,,,,,,,
650d90ebf26334f992c31579,SCN,2024-06-25_09h40.33.947,LearnStrategy,2023.2.3,Win32,60.24096386,6,1,6,0.400925954,0.387962956,1,0,0,1.1303,Pegmatite_06,6,06,6,7,1.13,-0.076851824,-0.40648151,1,0,0,1.2089,Pegmatite_rect,6,1.209,1,5,0,5,0,1,,,,,,,,,,,,,
650d90ebf26334f992c31579,SCN,2024-06-25_09h40.33.947,LearnStrategy,2023.2.3,Win32,60.24096386,6,1,7,-0.5824074,-0.112037065,1,0,0,1.998,Pegmatite_07,6,07,3,1,1.998,-0.099074046,-0.407407464,1,0,0,1.2562,Pegmatite_rect,6,1.256,1,6,0,6,0,1,,,,,,,,,,,,,
650d90ebf26334f992c31579,SCN,2024-06-25_09h40.33.947,LearnStrategy,2023.2.3,Win32,60.24096386,6,1,8,-0.045370314,-0.401851908,1,0,0,1.6464,Peridotite_06,7,06,1,4,1.646,0.108333333,-0.38148151,1,0,0,0.6588,Peridotite_rect,7,0.659,1,7,0,7,0,1,,,,,,,,,,,,,
650d90ebf26334f992c31579,SCN,2024-06-25_09h40.33.947,LearnStrategy,2023.2.3,Win32,60.24096386,6,1,9,0.363888889,-0.129629644,1,0,0,1.2501,Diorite_07,3,07,3,7,1.25,-0.108333333,-0.387037065,1,0,0,1.5552,Pegmatite_rect,6,1.555,0,8,0,8,0,1,,,,,,,,,,,,,
650d90ebf26334f992c31579,SCN,2024-06-25_09h40.33.947,LearnStrategy,2023.2.3,Win32,60.24096386,6,1,10,-0.50370369,-0.137037065,1,0,0,1.7457,Pegmatite_07,6,07,3,1,1.746,-0.099074046,-0.40648151,1,0,0,1.6946,Pegmatite_rect,6,1.695,1,9,0,9,0,1,,,,,,,,,,,,,
650d90ebf26334f992c31579,SCN,2024-06-25_09h40.33.947,LearnStrategy,2023.2.3,Win32,60.24096386,6,1,11,-0.233333333,-0.38148151,1,0,0,0.9132,Gabbro_11,4,11,1,3,0.913,0.351851908,-0.386111111,1,0,0,2.5724,Pumice_rect,8,2.572,0,10,0,10,0,1,,,,,,,,,,,,,
650d90ebf26334f992c31579,SCN,2024-06-25_09h40.33.947,LearnStrategy,2023.2.3,Win32,60.24096386,6,1,12,-0.075,-0.25648151,1,0,0,0.7823,Basalt_01,2,01,2,4,0.782,0.362037065,-0.229629686,1,0,0,0.7904,Gabbro_rect,4,0.79,0,11,0,11,0,1,,,,,,,,,,,,,
650d90ebf26334f992c31579,SCN,2024-06-25_09h40.33.947,LearnStrategy,2023.2.3,Win32,60.24096386,6,1,13,0.283333333,-0.405555556,1,0,0,2.4976,Diorite_16,3,16,1,6,2.498,0.377777778,-0.23148151,1,0,0,0.6939,Gabbro_rect,4,0.694,0,12,0,12,0,1,,,,,,,,,,,,,
650d90ebf26334f992c31579,SCN,2024-06-25_09h40.33.947,LearnStrategy,2023.2.3,Win32,60.24096386,6,1,14,0.364814843,-0.122222222,1,0,0,1.2295,Diorite_07,3,07,3,7,1.23,0.060185242,-0.260185242,1,0,0,0.8598,Diorite_rect,3,0.86,1,13,0,13,0,1,,,,,,,,,,,,,
650d90ebf26334f992c31579,SCN,2024-06-25_09h40.33.947,LearnStrategy,2023.2.3,Win32,60.24096386,6,1,15,0.267592621,0.072222222,1,0,0,0.9317,Andesite_02,1,02,4,6,0.932,0.448148176,-0.229629686,1,0,0,2.2768,Gabbro_rect,4,2.277,0,14,0,14,0,1,,,,,,,,,,,,,
650d90ebf26334f992c31579,SCN,2024-06-25_09h40.33.947,LearnStrategy,2023.2.3,Win32,60.24096386,6,1,16,-0.270370356,0.055555556,1,0,0,0.8476,Basalt_11,2,11,4,3,0.848,0.345370399,-0.402777778,1,0,0,1.4399,Pumice_rect,8,1.44,0,15,0,15,0,1,,,,,,,,,,,,,
650d90ebf26334f992c31579,SCN,2024-06-25_09h40.33.947,LearnStrategy,2023.2.3,Win32,60.24096386,6,2,1,,,,,,,,8,05,,,,,,,,,,,8,1.741,1,,,,,,0.383333333,-0.393518575,1,0,0,1.7414,Pumice_rect,0,0,0,0,1,
650d90ebf26334f992c31579,SCN,2024-06-25_09h40.33.947,LearnStrategy,2023.2.3,Win32,60.24096386,6,2,2,,,,,,,,8,13,,,,,,,,,,,1,5.29,0,,,,,,-0.374074046,-0.253703732,1,0,0,5.2896,Andesite_rect,1,0,1,0,1,
650d90ebf26334f992c31579,SCN,2024-06-25_09h40.33.947,LearnStrategy,2023.2.3,Win32,60.24096386,6,2,3,,,,,,,,3,15,,,,,,,,,,,2,1.281,0,,,,,,-0.119444444,-0.268518575,1,0,0,1.2811,Basalt_rect,2,0,2,0,1,
650d90ebf26334f992c31579,SCN,2024-06-25_09h40.33.947,LearnStrategy,2023.2.3,Win32,60.24096386,6,2,4,,,,,,,,5,07,,,,,,,,,,,5,1.756,1,,,,,,-0.412037023,-0.399074131,1,0,0,1.7562,Obsidian_rect,3,0,3,0,1,
650d90ebf26334f992c31579,SCN,2024-06-25_09h40.33.947,LearnStrategy,2023.2.3,Win32,60.24096386,6,2,5,,,,,,,,3,13,,,,,,,,,,,3,1.645,1,,,,,,0.135185242,-0.243518575,1,0,0,1.6446,Diorite_rect,4,0,4,0,1,
650d90ebf26334f992c31579,SCN,2024-06-25_09h40.33.947,LearnStrategy,2023.2.3,Win32,60.24096386,6,2,6,,,,,,,,6,13,,,,,,,,,,,3,1.568,0,,,,,,0.115740797,-0.263888889,1,0,0,1.5683,Diorite_rect,5,0,5,0,1,
650d90ebf26334f992c31579,SCN,2024-06-25_09h40.33.947,LearnStrategy,2023.2.3,Win32,60.24096386,6,2,7,,,,,,,,7,04,,,,,,,,,,,7,1.69,1,,,,,,0.113888889,-0.4,1,0,0,1.6903,Peridotite_rect,6,0,6,0,1,
650d90ebf26334f992c31579,SCN,2024-06-25_09h40.33.947,LearnStrategy,2023.2.3,Win32,60.24096386,6,2,8,,,,,,,,6,15,,,,,,,,,,,6,2.605,1,,,,,,-0.162962935,-0.4,1,0,0,2.6055,Pegmatite_rect,7,0,7,0,1,
650d90ebf26334f992c31579,SCN,2024-06-25_09h40.33.947,LearnStrategy,2023.2.3,Win32,60.24096386,6,2,9,,,,,,,,5,05,,,,,,,,,,,5,1.241,1,,,,,,-0.363888889,-0.403703732,1,0,0,1.2413,Obsidian_rect,8,0,8,0,1,
650d90ebf26334f992c31579,SCN,2024-06-25_09h40.33.947,LearnStrategy,2023.2.3,Win32,60.24096386,6,2,10,,,,,,,,7,16,,,,,,,,,,,5,1.192,0,,,,,,-0.363888889,-0.403703732,1,0,0,1.1921,Obsidian_rect,9,0,9,0,1,
650d90ebf26334f992c31579,SCN,2024-06-25_09h40.33.947,LearnStrategy,2023.2.3,Win32,60.24096386,6,2,11,,,,,,,,2,06,,,,,,,,,,,4,4.226,0,,,,,,0.33148151,-0.251851908,1,0,0,4.2265,Gabbro_rect,10,0,10,0,1,
650d90ebf26334f992c31579,SCN,2024-06-25_09h40.33.947,LearnStrategy,2023.2.3,Win32,60.24096386,6,2,12,,,,,,,,4,09,,,,,,,,,,,4,1.164,1,,,,,,0.320370399,-0.251851908,1,0,0,1.1639,Gabbro_rect,11,0,11,0,1,
650d90ebf26334f992c31579,SCN,2024-06-25_09h40.33.947,LearnStrategy,2023.2.3,Win32,60.24096386,6,2,13,,,,,,,,2,14,,,,,,,,,,,1,2.163,0,,,,,,-0.370370356,-0.237037065,1,0,0,2.1628,Andesite_rect,12,0,12,0,1,
650d90ebf26334f992c31579,SCN,2024-06-25_09h40.33.947,LearnStrategy,2023.2.3,Win32,60.24096386,6,2,14,,,,,,,,1,10,,,,,,,,,,,3,1.324,0,,,,,,0.087037065,-0.235185242,1,0,0,1.3238,Diorite_rect,13,0,13,0,1,
650d90ebf26334f992c31579,SCN,2024-06-25_09h40.33.947,LearnStrategy,2023.2.3,Win32,60.24096386,6,2,15,,,,,,,,4,16,,,,,,,,,,,2,1.307,0,,,,,,-0.14351849,-0.250925954,1,0,0,1.3069,Basalt_rect,14,0,14,0,1,
650d90ebf26334f992c31579,SCN,2024-06-25_09h40.33.947,LearnStrategy,2023.2.3,Win32,60.24096386,6,2,16,,,,,,,,1,09,,,,,,,,,,,7,2.738,0,,,,,,0.058333333,-0.418518575,1,0,0,2.7383,Peridotite_rect,15,0,15,0,1,
650d90ebf26334f992c31579,SCN,2024-06-25_09h40.33.947,LearnStrategy,2023.2.3,Win32,60.24096386,7,1,1,-0.367592578,0.094444444,1,0,0,0.7824,Diorite_14,3,14,4,2,0.782,-0.182407379,-0.255555556,1,0,0,0.9536,Basalt_rect,2,0.954,0,0,0,0,0,1,,,,,,,,,,,,,
650d90ebf26334f992c31579,SCN,2024-06-25_09h40.33.947,LearnStrategy,2023.2.3,Win32,60.24096386,7,1,2,-0.224074046,0.098148134,1,0,0,1.2141,Basalt_11,2,11,4,3,1.214,-0.190740712,-0.242592621,1,0,0,0.8527,Basalt_rect,2,0.853,1,1,0,1,0,1,,,,,,,,,,,,,
650d90ebf26334f992c31579,SCN,2024-06-25_09h40.33.947,LearnStrategy,2023.2.3,Win32,60.24096386,7,1,3,-0.240740712,-0.120370399,1,0,0,0.8645,Basalt_12,2,12,3,3,0.865,-0.103703647,-0.265740797,1,0,0,1.3726,Basalt_rect,2,1.373,1,2,0,2,0,1,,,,,,,,,,,,,
650d90ebf26334f992c31579,SCN,2024-06-25_09h40.33.947,LearnStrategy,2023.2.3,Win32,60.24096386,7,1,4,-0.350925912,-0.428703732,1,0,0,1.53,Andesite_06,1,06,1,2,1.53,-0.39351849,-0.237037065,1,0,0,1.1895,Andesite_rect,1,1.189,1,3,0,3,0,1,,,,,,,,,,,,,
650d90ebf26334f992c31579,SCN,2024-06-25_09h40.33.947,LearnStrategy,2023.2.3,Win32,60.24096386,7,1,5,-0.256481467,-0.432407464,1,0,0,1.0041,Gabbro_11,4,11,1,3,1.004,-0.423148134,-0.242592621,1,0,0,1.0235,Andesite_rect,1,1.024,0,4,0,4,0,1,,,,,,,,,,,,,
650d90ebf26334f992c31579,SCN,2024-06-25_09h40.33.947,LearnStrategy,2023.2.3,Win32,60.24096386,7,1,6,-0.063888889,-0.232407464,1,0,0,1.5631,Basalt_01,2,01,2,4,1.563,-0.419444444,-0.245370399,1,0,0,1.359,Andesite_rect,1,1.359,0,5,0,5,0,1,,,,,,,,,,,,,
650d90ebf26334f992c31579,SCN,2024-06-25_09h40.33.947,LearnStrategy,2023.2.3,Win32,60.24096386,7,1,7,0.391666667,-0.208333333,1,0,0,0.9461,Peridotite_08,7,08,2,7,0.946,0.13148151,-0.410185242,1,0,0,1.4223,Peridotite_rect,7,1.422,1,6,0,6,0,1,,,,,,,,,,,,,
650d90ebf26334f992c31579,SCN,2024-06-25_09h40.33.947,LearnStrategy,2023.2.3,Win32,60.24096386,7,1,8,-0.094444444,0.261111111,1,0,0,3.6612,Andesite_03,1,03,5,4,3.661,-0.410185157,-0.262037065,1,0,0,1.71,Andesite_rect,1,1.71,1,7,0,7,0,1,,,,,,,,,,,,,
650d90ebf26334f992c31579,SCN,2024-06-25_09h40.33.947,LearnStrategy,2023.2.3,Win32,60.24096386,7,1,9,0.369444444,0.100925912,1,0,0,1.098,Andesite_16,1,16,4,7,1.098,-0.067592536,-0.407407464,1,0,0,2.6581,Pegmatite_rect,6,2.658,0,8,0,8,0,1,,,,,,,,,,,,,
650d90ebf26334f992c31579,SCN,2024-06-25_09h40.33.947,LearnStrategy,2023.2.3,Win32,60.24096386,7,1,10,0.447222222,0.080555556,1,0,0,1.5631,Andesite_16,1,16,4,7,1.563,-0.308333333,-0.230555556,1,0,0,1.5624,Andesite_rect,1,1.562,1,9,0,9,0,1,,,,,,,,,,,,,
650d90ebf26334f992c31579,SCN,2024-06-25_09h40.33.947,LearnStrategy,2023.2.3,Win32,60.24096386,7,1,11,-0.213888889,-0.109259288,1,0,0,0.8637,Basalt_12,2,12,3,3,0.864,-0.366666667,-0.259259288,1,0,0,1.1833,Andesite_rect,1,1.183,0,10,0,10,0,1,,,,,,,,,,,,,
650d90ebf26334f992c31579,SCN,2024-06-25_09h40.33.947,LearnStrategy,2023.2.3,Win32,60.24096386,7,1,12,-0.108333333,-0.116666667,1,0,0,1.0659,Gabbro_03,4,03,3,4,1.066,-0.346296268,-0.241666667,1,0,0,1.5813,Andesite_rect,1,1.581,0,11,0,11,0,1,,,,,,,,,,,,,
650d90ebf26334f992c31579,SCN,2024-06-25_09h40.33.947,LearnStrategy,2023.2.3,Win32,60.24096386,7,1,13,0.200925954,-0.221296353,1,0,0,0.8463,Peridotite_02,7,02,2,6,0.846,0.105555556,-0.397222222,1,0,0,1.0761,Peridotite_rect,7,1.076,1,12,0,12,0,1,,,,,,,,,,,,,
650d90ebf26334f992c31579,SCN,2024-06-25_09h40.33.947,LearnStrategy,2023.2.3,Win32,60.24096386,7,1,14,0.524074131,-0.253703732,1,0,0,0.9806,Obsidian_11,5,11,2,8,0.981,-0.45370369,-0.386111111,1,0,0,1.5518,Obsidian_rect,5,1.552,1,13,0,13,0,1,,,,,,,,,,,,,
650d90ebf26334f992c31579,SCN,2024-06-25_09h40.33.947,LearnStrategy,2023.2.3,Win32,60.24096386,7,1,15,0.264814843,-0.410185242,1,0,0,1.7633,Diorite_16,3,16,1,6,1.763,-0.388888889,-0.246296353,1,0,0,1.844,Andesite_rect,1,1.844,0,14,0,14,0,1,,,,,,,,,,,,,
650d90ebf26334f992c31579,SCN,2024-06-25_09h40.33.947,LearnStrategy,2023.2.3,Win32,60.24096386,7,1,16,-0.205555556,-0.417592621,1,0,0,1.2457,Gabbro_11,4,11,1,3,1.246,-0.362037023,-0.229629686,1,0,0,1.7924,Andesite_rect,1,1.792,0,15,0,15,0,1,,,,,,,,,,,,,
650d90ebf26334f992c31579,SCN,2024-06-25_09h40.33.947,LearnStrategy,2023.2.3,Win32,60.24096386,7,2,1,,,,,,,,6,15,,,,,,,,,,,6,12.608,1,,,,,,-0.137962935,-0.418518575,1,0,0,12.6079,Pegmatite_rect,0,0,0,0,1,
650d90ebf26334f992c31579,SCN,2024-06-25_09h40.33.947,LearnStrategy,2023.2.3,Win32,60.24096386,7,2,2,,,,,,,,6,05,,,,,,,,,,,6,0.821,1,,,,,,-0.137962935,-0.418518575,1,0,0,0.8211,Pegmatite_rect,1,0,1,0,1,
650d90ebf26334f992c31579,SCN,2024-06-25_09h40.33.947,LearnStrategy,2023.2.3,Win32,60.24096386,7,2,3,,,,,,,,4,10,,,,,,,,,,,4,5.806,1,,,,,,0.355555556,-0.237963019,1,0,0,5.8062,Gabbro_rect,2,0,2,0,1,
650d90ebf26334f992c31579,SCN,2024-06-25_09h40.33.947,LearnStrategy,2023.2.3,Win32,60.24096386,7,2,4,,,,,,,,3,10,,,,,,,,,,,1,3.497,0,,,,,,-0.383333333,-0.23148151,1,0,0,3.4967,Andesite_rect,3,0,3,0,1,
650d90ebf26334f992c31579,SCN,2024-06-25_09h40.33.947,LearnStrategy,2023.2.3,Win32,60.24096386,7,2,5,,,,,,,,7,05,,,,,,,,,,,7,2.045,1,,,,,,0.141666667,-0.412037065,1,0,0,2.045,Peridotite_rect,4,0,4,0,1,
650d90ebf26334f992c31579,SCN,2024-06-25_09h40.33.947,LearnStrategy,2023.2.3,Win32,60.24096386,7,2,6,,,,,,,,8,03,,,,,,,,,,,8,1.106,1,,,,,,0.324074131,-0.413888889,1,0,0,1.1065,Pumice_rect,5,0,5,0,1,
650d90ebf26334f992c31579,SCN,2024-06-25_09h40.33.947,LearnStrategy,2023.2.3,Win32,60.24096386,7,2,7,,,,,,,,1,10,,,,,,,,,,,1,12.268,1,,,,,,-0.416666667,-0.261111111,1,0,0,12.2677,Andesite_rect,6,0,6,0,1,
650d90ebf26334f992c31579,SCN,2024-06-25_09h40.33.947,LearnStrategy,2023.2.3,Win32,60.24096386,7,2,8,,,,,,,,7,16,,,,,,,,,,,6,2.53,0,,,,,,-0.183333333,-0.392592621,1,0,0,2.5298,Pegmatite_rect,7,0,7,0,1,
650d90ebf26334f992c31579,SCN,2024-06-25_09h40.33.947,LearnStrategy,2023.2.3,Win32,60.24096386,7,2,9,,,,,,,,8,02,,,,,,,,,,,8,1.541,1,,,,,,0.332407464,-0.404629686,1,0,0,1.5406,Pumice_rect,8,0,8,0,1,
650d90ebf26334f992c31579,SCN,2024-06-25_09h40.33.947,LearnStrategy,2023.2.3,Win32,60.24096386,7,2,10,,,,,,,,5,09,,,,,,,,,,,5,1.993,1,,,,,,-0.487037023,-0.412963019,1,0,0,1.993,Obsidian_rect,9,0,9,0,1,
650d90ebf26334f992c31579,SCN,2024-06-25_09h40.33.947,LearnStrategy,2023.2.3,Win32,60.24096386,7,2,11,,,,,,,,2,08,,,,,,,,,,,2,1.458,1,,,,,,-0.141666667,-0.257407464,1,0,0,1.4584,Basalt_rect,10,0,10,0,1,
650d90ebf26334f992c31579,SCN,2024-06-25_09h40.33.947,LearnStrategy,2023.2.3,Win32,60.24096386,7,2,12,,,,,,,,1,05,,,,,,,,,,,1,3.559,1,,,,,,-0.361111111,-0.246296353,1,0,0,3.559,Andesite_rect,11,0,11,0,1,
650d90ebf26334f992c31579,SCN,2024-06-25_09h40.33.947,LearnStrategy,2023.2.3,Win32,60.24096386,7,2,13,,,,,,,,3,15,,,,,,,,,,,4,5.652,0,,,,,,0.350925954,-0.260185242,1,0,0,5.6521,Gabbro_rect,12,0,12,0,1,
650d90ebf26334f992c31579,SCN,2024-06-25_09h40.33.947,LearnStrategy,2023.2.3,Win32,60.24096386,7,2,14,,,,,,,,2,06,,,,,,,,,,,2,1.614,1,,,,,,-0.095370314,-0.246296353,1,0,0,1.6139,Basalt_rect,13,0,13,0,1,
650d90ebf26334f992c31579,SCN,2024-06-25_09h40.33.947,LearnStrategy,2023.2.3,Win32,60.24096386,7,2,15,,,,,,,,5,05,,,,,,,,,,,5,1.29,1,,,,,,-0.412037023,-0.399074131,1,0,0,1.2896,Obsidian_rect,14,0,14,0,1,
650d90ebf26334f992c31579,SCN,2024-06-25_09h40.33.947,LearnStrategy,2023.2.3,Win32,60.24096386,7,2,16,,,,,,,,4,01,,,,,,,,,,,1,3.189,0,,,,,,-0.462962935,-0.254629686,1,0,0,3.1895,Andesite_rect,15,0,15,0,1,
650d90ebf26334f992c31579,SCN,2024-06-25_09h40.33.947,LearnStrategy,2023.2.3,Win32,60.24096386,8,1,1,-0.526851824,0.375925922,1,0,0,1.0298,Peridotite_07,7,07,6,1,1.03,0.150925954,-0.253703732,1,0,0,2.4646,Diorite_rect,3,2.465,0,0,0,0,0,1,,,,,,,,,,,,,
650d90ebf26334f992c31579,SCN,2024-06-25_09h40.33.947,LearnStrategy,2023.2.3,Win32,60.24096386,8,1,2,-0.366666667,0.25370369,1,0,0,0.9825,Basalt_05,2,05,5,2,0.983,-0.19351849,-0.242592621,1,0,0,1.2371,Basalt_rect,2,1.237,1,1,0,1,0,1,,,,,,,,,,,,,
650d90ebf26334f992c31579,SCN,2024-06-25_09h40.33.947,LearnStrategy,2023.2.3,Win32,60.24096386,8,1,3,-0.212962935,0.280555556,1,0,0,0.8168,Gabbro_08,4,08,5,3,0.817,0.126851908,-0.241666667,1,0,0,1.6885,Diorite_rect,3,1.688,0,2,0,2,0,1,,,,,,,,,,,,,
650d90ebf26334f992c31579,SCN,2024-06-25_09h40.33.947,LearnStrategy,2023.2.3,Win32,60.24096386,8,1,4,-0.059259203,0.275,1,0,0,0.7474,Andesite_03,1,03,5,4,0.747,-0.292592578,-0.267592621,1,0,0,2.2528,Andesite_rect,1,2.253,1,3,0,3,0,1,,,,,,,,,,,,,
650d90ebf26334f992c31579,SCN,2024-06-25_09h40.33.947,LearnStrategy,2023.2.3,Win32,60.24096386,8,1,5,0.225925954,0.226851845,1,0,0,1.1484,Pumice_09,8,09,5,6,1.148,0.379629686,-0.384259288,1,0,0,1.2728,Pumice_rect,8,1.273,1,4,0,4,0,1,,,,,,,,,,,,,
650d90ebf26334f992c31579,SCN,2024-06-25_09h40.33.947,LearnStrategy,2023.2.3,Win32,60.24096386,8,1,6,0.358333333,0.252777778,1,0,0,1.0316,Diorite_11,3,11,5,7,1.032,0.093518575,-0.259259288,1,0,0,1.937,Diorite_rect,3,1.937,1,5,0,5,0,1,,,,,,,,,,,,,
650d90ebf26334f992c31579,SCN,2024-06-25_09h40.33.947,LearnStrategy,2023.2.3,Win32,60.24096386,8,1,7,-0.507407379,-0.268518575,1,0,0,1.1142,Pegmatite_08,6,08,2,1,1.114,-0.201851824,-0.387963019,1,0,0,0.7544,Pegmatite_rect,6,0.754,1,6,0,6,0,1,,,,,,,,,,,,,
650d90ebf26334f992c31579,SCN,2024-06-25_09h40.33.947,LearnStrategy,2023.2.3,Win32,60.24096386,8,1,8,0.23148151,-0.425925954,1,0,0,1.2488,Diorite_16,3,16,1,6,1.249,0.107407464,-0.254629686,1,0,0,1.4704,Diorite_rect,3,1.47,1,7,0,7,0,1,,,,,,,,,,,,,
650d90ebf26334f992c31579,SCN,2024-06-25_09h40.33.947,LearnStrategy,2023.2.3,Win32,60.24096386,8,1,9,-0.224074046,-0.413888889,1,0,0,3.0967,Gabbro_11,4,11,1,3,3.097,-0.151851824,-0.250925954,1,0,0,0.7645,Basalt_rect,2,0.764,0,8,0,8,0,1,,,,,,,,,,,,,
650d90ebf26334f992c31579,SCN,2024-06-25_09h40.33.947,LearnStrategy,2023.2.3,Win32,60.24096386,8,1,10,0.548148261,0.086111111,1,0,0,1.4014,Pegmatite_11,6,11,4,8,1.401,-0.111111111,-0.4,1,0,0,0.9161,Pegmatite_rect,6,0.916,1,9,0,9,0,1,,,,,,,,,,,,,
650d90ebf26334f992c31579,SCN,2024-06-25_09h40.33.947,LearnStrategy,2023.2.3,Win32,60.24096386,8,1,11,-0.55370369,-0.236111111,1,0,0,0.831,Pegmatite_08,6,08,2,1,0.831,-0.125925869,-0.387963019,1,0,0,1.2855,Pegmatite_rect,6,1.285,1,10,0,10,0,1,,,,,,,,,,,,,
650d90ebf26334f992c31579,SCN,2024-06-25_09h40.33.947,LearnStrategy,2023.2.3,Win32,60.24096386,8,1,12,-0.534259245,0.04351849,1,0,0,0.9141,Pumice_10,8,10,4,1,0.914,0.351851908,-0.4,1,0,0,1.4729,Pumice_rect,8,1.473,1,11,0,11,0,1,,,,,,,,,,,,,
650d90ebf26334f992c31579,SCN,2024-06-25_09h40.33.947,LearnStrategy,2023.2.3,Win32,60.24096386,8,1,13,0.245370399,0.296296289,1,0,0,1.8668,Pumice_09,8,09,5,6,1.867,0.397222222,-0.405555556,1,0,0,1.3158,Pumice_rect,8,1.316,1,12,0,12,0,1,,,,,,,,,,,,,
650d90ebf26334f992c31579,SCN,2024-06-25_09h40.33.947,LearnStrategy,2023.2.3,Win32,60.24096386,8,1,14,0.090740797,0.2324074,1,0,0,1.0122,Basalt_10,2,10,5,5,1.012,-0.133333333,-0.258333333,1,0,0,3.0936,Basalt_rect,2,3.094,1,13,0,13,0,1,,,,,,,,,,,,,
650d90ebf26334f992c31579,SCN,2024-06-25_09h40.33.947,LearnStrategy,2023.2.3,Win32,60.24096386,8,1,15,0.208333333,-0.367592621,1,0,0,1.0475,Diorite_16,3,16,1,6,1.048,-0.124074046,-0.391666667,1,0,0,1.3344,Pegmatite_rect,6,1.334,0,14,0,14,0,1,,,,,,,,,,,,,
650d90ebf26334f992c31579,SCN,2024-06-25_09h40.33.947,LearnStrategy,2023.2.3,Win32,60.24096386,8,1,16,0.364814843,-0.138888889,1,0,0,1.3302,Diorite_07,3,07,3,7,1.33,0.130555556,-0.25648151,1,0,0,0.9224,Diorite_rect,3,0.922,1,15,0,15,0,1,,,,,,,,,,,,,
650d90ebf26334f992c31579,SCN,2024-06-25_09h40.33.947,LearnStrategy,2023.2.3,Win32,60.24096386,8,2,1,,,,,,,,1,04,,,,,,,,,,,1,6.36,1,,,,,,-0.422222222,-0.267592621,1,0,0,6.3597,Andesite_rect,0,0,0,0,1,
650d90ebf26334f992c31579,SCN,2024-06-25_09h40.33.947,LearnStrategy,2023.2.3,Win32,60.24096386,8,2,2,,,,,,,,8,05,,,,,,,,,,,8,1.976,1,,,,,,0.395370399,-0.399074131,1,0,0,1.9763,Pumice_rect,1,0,1,0,1,
650d90ebf26334f992c31579,SCN,2024-06-25_09h40.33.947,LearnStrategy,2023.2.3,Win32,60.24096386,8,2,3,,,,,,,,7,10,,,,,,,,,,,7,2.024,1,,,,,,0.134259288,-0.412963019,1,0,0,2.0245,Peridotite_rect,2,0,2,0,1,
650d90ebf26334f992c31579,SCN,2024-06-25_09h40.33.947,LearnStrategy,2023.2.3,Win32,60.24096386,8,2,4,,,,,,,,2,04,,,,,,,,,,,2,1.493,1,,,,,,-0.082407379,-0.270370399,1,0,0,1.4928,Basalt_rect,3,0,3,0,1,
650d90ebf26334f992c31579,SCN,2024-06-25_09h40.33.947,LearnStrategy,2023.2.3,Win32,60.24096386,8,2,5,,,,,,,,5,08,,,,,,,,,,,5,2.833,1,,,,,,-0.421296268,-0.4,1,0,0,2.8326,Obsidian_rect,4,0,4,0,1,
650d90ebf26334f992c31579,SCN,2024-06-25_09h40.33.947,LearnStrategy,2023.2.3,Win32,60.24096386,8,2,6,,,,,,,,3,08,,,,,,,,,,,6,13.172,0,,,,,,-0.202777778,-0.380555556,1,0,0,13.1721,Pegmatite_rect,5,0,5,0,1,
650d90ebf26334f992c31579,SCN,2024-06-25_09h40.33.947,LearnStrategy,2023.2.3,Win32,60.24096386,8,2,7,,,,,,,,2,09,,,,,,,,,,,2,2.388,1,,,,,,-0.155555556,-0.239814843,1,0,0,2.3883,Basalt_rect,6,0,6,0,1,
650d90ebf26334f992c31579,SCN,2024-06-25_09h40.33.947,LearnStrategy,2023.2.3,Win32,60.24096386,8,2,8,,,,,,,,5,07,,,,,,,,,,,5,1.343,1,,,,,,-0.470370356,-0.407407464,1,0,0,1.3432,Obsidian_rect,7,0,7,0,1,
650d90ebf26334f992c31579,SCN,2024-06-25_09h40.33.947,LearnStrategy,2023.2.3,Win32,60.24096386,8,2,9,,,,,,,,4,09,,,,,,,,,,,4,4.921,1,,,,,,0.358333333,-0.25648151,1,0,0,4.9214,Gabbro_rect,8,0,8,0,1,
650d90ebf26334f992c31579,SCN,2024-06-25_09h40.33.947,LearnStrategy,2023.2.3,Win32,60.24096386,8,2,10,,,,,,,,3,12,,,,,,,,,,,6,2.303,0,,,,,,-0.164814758,-0.400925954,1,0,0,2.303,Pegmatite_rect,9,0,9,0,1,
650d90ebf26334f992c31579,SCN,2024-06-25_09h40.33.947,LearnStrategy,2023.2.3,Win32,60.24096386,8,2,11,,,,,,,,6,16,,,,,,,,,,,1,7.46,0,,,,,,-0.376851824,-0.238888889,1,0,0,7.4597,Andesite_rect,10,0,10,0,1,
650d90ebf26334f992c31579,SCN,2024-06-25_09h40.33.947,LearnStrategy,2023.2.3,Win32,60.24096386,8,2,12,,,,,,,,7,04,,,,,,,,,,,7,1.948,1,,,,,,0.090740797,-0.383333333,1,0,0,1.9477,Peridotite_rect,11,0,11,0,1,
650d90ebf26334f992c31579,SCN,2024-06-25_09h40.33.947,LearnStrategy,2023.2.3,Win32,60.24096386,8,2,13,,,,,,,,1,01,,,,,,,,,,,4,1.455,0,,,,,,0.336111111,-0.23148151,1,0,0,1.4548,Gabbro_rect,12,0,12,0,1,
650d90ebf26334f992c31579,SCN,2024-06-25_09h40.33.947,LearnStrategy,2023.2.3,Win32,60.24096386,8,2,14,,,,,,,,8,08,,,,,,,,,,,8,1.193,1,,,,,,0.375,-0.405555556,1,0,0,1.1933,Pumice_rect,13,0,13,0,1,
650d90ebf26334f992c31579,SCN,2024-06-25_09h40.33.947,LearnStrategy,2023.2.3,Win32,60.24096386,8,2,15,,,,,,,,4,15,,,,,,,,,,,3,4.774,0,,,,,,0.084259288,-0.263888889,1,0,0,4.7743,Diorite_rect,14,0,14,0,1,
650d90ebf26334f992c31579,SCN,2024-06-25_09h40.33.947,LearnStrategy,2023.2.3,Win32,60.24096386,8,2,16,,,,,,,,6,12,,,,,,,,,,,6,1.298,1,,,,,,-0.105555556,-0.38148151,1,0,0,1.2976,Pegmatite_rect,15,0,15,0,1,
650d90ebf26334f992c31579,SCN,2024-06-25_09h40.33.947,LearnStrategy,2023.2.3,Win32,60.24096386,9,1,1,-0.522222222,-0.412963019,1,0,0,1.1971,Diorite_09,3,09,1,1,1.197,-0.101851824,-0.408333333,1,0,0,2.1389,Pegmatite_rect,6,2.139,0,0,0,0,0,1,,,,,,,,,,,,,
650d90ebf26334f992c31579,SCN,2024-06-25_09h40.33.947,LearnStrategy,2023.2.3,Win32,60.24096386,9,1,2,-0.245370356,-0.273148176,1,0,0,2.1981,Peridotite_15,7,15,2,3,2.198,0.110185242,-0.405555556,1,0,0,0.8917,Peridotite_rect,7,0.892,1,1,0,1,0,1,,,,,,,,,,,,,
650d90ebf26334f992c31579,SCN,2024-06-25_09h40.33.947,LearnStrategy,2023.2.3,Win32,60.24096386,9,1,3,0.258333333,-0.393518575,1,0,0,1.2978,Diorite_16,3,16,1,6,1.298,0.172222222,-0.246296353,1,0,0,1.1657,Diorite_rect,3,1.166,1,2,0,2,0,1,,,,,,,,,,,,,
650d90ebf26334f992c31579,SCN,2024-06-25_09h40.33.947,LearnStrategy,2023.2.3,Win32,60.24096386,9,1,4,0.362963019,-0.105555556,1,0,0,2.4154,Diorite_07,3,07,3,7,2.415,0.128703732,-0.259259288,1,0,0,0.7678,Diorite_rect,3,0.768,1,3,0,3,0,1,,,,,,,,,,,,,
650d90ebf26334f992c31579,SCN,2024-06-25_09h40.33.947,LearnStrategy,2023.2.3,Win32,60.24096386,9,1,5,-0.398148134,0.066666667,1,0,0,1.3294,Diorite_14,3,14,4,2,1.329,0.130555556,-0.25648151,1,0,0,1.406,Diorite_rect,3,1.406,1,4,0,4,0,1,,,,,,,,,,,,,
650d90ebf26334f992c31579,SCN,2024-06-25_09h40.33.947,LearnStrategy,2023.2.3,Win32,60.24096386,9,1,6,-0.561111111,0.09351849,1,0,0,0.9812,Pumice_10,8,10,4,1,0.981,0.388888889,-0.389814843,1,0,0,1.4401,Pumice_rect,8,1.44,1,5,0,5,0,1,,,,,,,,,,,,,
650d90ebf26334f992c31579,SCN,2024-06-25_09h40.33.947,LearnStrategy,2023.2.3,Win32,60.24096386,9,1,7,0.397222222,0.245370356,1,0,0,1.5484,Diorite_11,3,11,5,7,1.548,0.143518575,-0.411111111,1,0,0,1.1317,Peridotite_rect,7,1.132,0,6,0,6,0,1,,,,,,,,,,,,,
650d90ebf26334f992c31579,SCN,2024-06-25_09h40.33.947,LearnStrategy,2023.2.3,Win32,60.24096386,9,1,8,-0.238888889,0.360185178,1,0,0,1.2671,Andesite_07,1,07,6,3,1.267,0.092592621,-0.245370399,1,0,0,0.8139,Diorite_rect,3,0.814,0,7,0,7,0,1,,,,,,,,,,,,,
650d90ebf26334f992c31579,SCN,2024-06-25_09h40.33.947,LearnStrategy,2023.2.3,Win32,60.24096386,9,1,9,0.094444444,0.463888889,1,0,0,0.9647,Diorite_02,3,02,6,5,0.965,-0.338888889,-0.247222222,1,0,0,1.2053,Andesite_rect,1,1.205,0,8,0,8,0,1,,,,,,,,,,,,,
650d90ebf26334f992c31579,SCN,2024-06-25_09h40.33.947,LearnStrategy,2023.2.3,Win32,60.24096386,9,1,10,0.415740797,0.431481478,1,0,0,1.0632,Pegmatite_06,6,06,6,7,1.063,-0.310185157,-0.258333333,1,0,0,2.3886,Andesite_rect,1,2.389,0,9,0,9,0,1,,,,,,,,,,,,,
650d90ebf26334f992c31579,SCN,2024-06-25_09h40.33.947,LearnStrategy,2023.2.3,Win32,60.24096386,9,1,11,0.580555556,0.25,1,0,0,0.9463,Obsidian_02,5,02,5,8,0.946,-0.374074046,-0.387963019,1,0,0,0.9766,Obsidian_rect,5,0.977,1,10,0,10,0,1,,,,,,,,,,,,,
650d90ebf26334f992c31579,SCN,2024-06-25_09h40.33.947,LearnStrategy,2023.2.3,Win32,60.24096386,9,1,12,-0.587962956,0.109259245,1,0,0,0.7805,Pumice_10,8,10,4,1,0.781,0.405555556,-0.390740797,1,0,0,1.0722,Pumice_rect,8,1.072,1,11,0,11,0,1,,,,,,,,,,,,,
650d90ebf26334f992c31579,SCN,2024-06-25_09h40.33.947,LearnStrategy,2023.2.3,Win32,60.24096386,9,1,13,-0.425925912,0.134259245,1,0,0,1.4815,Diorite_14,3,14,4,2,1.482,-0.364814801,-0.239814843,1,0,0,0.8209,Andesite_rect,1,0.821,0,12,0,12,0,1,,,,,,,,,,,,,
650d90ebf26334f992c31579,SCN,2024-06-25_09h40.33.947,LearnStrategy,2023.2.3,Win32,60.24096386,9,1,14,0.062037065,-0.115740755,1,0,0,0.7645,Obsidian_10,5,10,3,5,0.764,-0.409259245,-0.397222222,1,0,0,1.3137,Obsidian_rect,5,1.314,1,13,0,13,0,1,,,,,,,,,,,,,
650d90ebf26334f992c31579,SCN,2024-06-25_09h40.33.947,LearnStrategy,2023.2.3,Win32,60.24096386,9,1,15,-0.236111111,-0.116666667,1,0,0,3.1548,Basalt_12,2,12,3,3,3.155,0.411111111,-0.413888889,1,0,0,0.8512,Pumice_rect,8,0.851,0,14,0,14,0,1,,,,,,,,,,,,,
650d90ebf26334f992c31579,SCN,2024-06-25_09h40.33.947,LearnStrategy,2023.2.3,Win32,60.24096386,9,1,16,-0.050925869,-0.260185242,1,0,0,0.7484,Basalt_01,2,01,2,4,0.748,-0.095370314,-0.38148151,1,0,0,5.6723,Pegmatite_rect,6,5.672,0,15,0,15,0,1,,,,,,,,,,,,,
650d90ebf26334f992c31579,SCN,2024-06-25_09h40.33.947,LearnStrategy,2023.2.3,Win32,60.24096386,9,2,1,,,,,,,,3,13,,,,,,,,,,,7,1.709,0,,,,,,0.075925954,-0.402777778,1,0,0,1.7086,Peridotite_rect,0,0,0,0,1,
650d90ebf26334f992c31579,SCN,2024-06-25_09h40.33.947,LearnStrategy,2023.2.3,Win32,60.24096386,9,2,2,,,,,,,,2,14,,,,,,,,,,,4,20.673,0,,,,,,0.368518575,-0.243518575,1,0,0,20.6728,Gabbro_rect,1,0,1,0,1,
650d90ebf26334f992c31579,SCN,2024-06-25_09h40.33.947,LearnStrategy,2023.2.3,Win32,60.24096386,9,2,3,,,,,,,,6,13,,,,,,,,,,,1,4.313,0,,,,,,-0.425925912,-0.243518575,1,0,0,4.3128,Andesite_rect,2,0,2,0,1,
650d90ebf26334f992c31579,SCN,2024-06-25_09h40.33.947,LearnStrategy,2023.2.3,Win32,60.24096386,9,2,4,,,,,,,,3,06,,,,,,,,,,,3,3.464,1,,,,,,0.087963019,-0.252777778,1,0,0,3.4636,Diorite_rect,3,0,3,0,1,
650d90ebf26334f992c31579,SCN,2024-06-25_09h40.33.947,LearnStrategy,2023.2.3,Win32,60.24096386,9,2,5,,,,,,,,4,16,,,,,,,,,,,2,1.312,0,,,,,,-0.11851849,-0.246296353,1,0,0,1.3121,Basalt_rect,4,0,4,0,1,
650d90ebf26334f992c31579,SCN,2024-06-25_09h40.33.947,LearnStrategy,2023.2.3,Win32,60.24096386,9,2,6,,,,,,,,5,12,,,,,,,,,,,5,1.556,1,,,,,,-0.414814801,-0.395370399,1,0,0,1.5563,Obsidian_rect,5,0,5,0,1,
650d90ebf26334f992c31579,SCN,2024-06-25_09h40.33.947,LearnStrategy,2023.2.3,Win32,60.24096386,9,2,7,,,,,,,,1,14,,,,,,,,,,,4,4.585,0,,,,,,0.384259288,-0.237963019,1,0,0,4.585,Gabbro_rect,6,0,6,0,1,
650d90ebf26334f992c31579,SCN,2024-06-25_09h40.33.947,LearnStrategy,2023.2.3,Win32,60.24096386,9,2,8,,,,,,,,7,12,,,,,,,,,,,7,1.793,1,,,,,,0.113888889,-0.415740797,1,0,0,1.7926,Peridotite_rect,7,0,7,0,1,
650d90ebf26334f992c31579,SCN,2024-06-25_09h40.33.947,LearnStrategy,2023.2.3,Win32,60.24096386,9,2,9,,,,,,,,4,12,,,,,,,,,,,1,3.292,0,,,,,,-0.375925912,-0.233333333,1,0,0,3.2922,Andesite_rect,8,0,8,0,1,
650d90ebf26334f992c31579,SCN,2024-06-25_09h40.33.947,LearnStrategy,2023.2.3,Win32,60.24096386,9,2,10,,,,,,,,8,15,,,,,,,,,,,8,1.429,1,,,,,,0.443518575,-0.399074131,1,0,0,1.429,Pumice_rect,9,0,9,0,1,
650d90ebf26334f992c31579,SCN,2024-06-25_09h40.33.947,LearnStrategy,2023.2.3,Win32,60.24096386,9,2,11,,,,,,,,7,14,,,,,,,,,,,7,1.24,1,,,,,,0.08148151,-0.385185242,1,0,0,1.2395,Peridotite_rect,10,0,10,0,1,
650d90ebf26334f992c31579,SCN,2024-06-25_09h40.33.947,LearnStrategy,2023.2.3,Win32,60.24096386,9,2,12,,,,,,,,5,16,,,,,,,,,,,5,1.205,1,,,,,,-0.496296268,-0.403703732,1,0,0,1.2052,Obsidian_rect,11,0,11,0,1,
650d90ebf26334f992c31579,SCN,2024-06-25_09h40.33.947,LearnStrategy,2023.2.3,Win32,60.24096386,9,2,13,,,,,,,,2,02,,,,,,,,,,,4,5.775,0,,,,,,0.377777778,-0.235185242,1,0,0,5.7746,Gabbro_rect,12,0,12,0,1,
650d90ebf26334f992c31579,SCN,2024-06-25_09h40.33.947,LearnStrategy,2023.2.3,Win32,60.24096386,9,2,14,,,,,,,,6,10,,,,,,,,,,,7,1.068,0,,,,,,0.134259288,-0.399074131,1,0,0,1.0682,Peridotite_rect,13,0,13,0,1,
650d90ebf26334f992c31579,SCN,2024-06-25_09h40.33.947,LearnStrategy,2023.2.3,Win32,60.24096386,9,2,15,,,,,,,,1,09,,,,,,,,,,,1,8.155,1,,,,,,-0.409259245,-0.248148176,1,0,0,8.1547,Andesite_rect,14,0,14,0,1,
650d90ebf26334f992c31579,SCN,2024-06-25_09h40.33.947,LearnStrategy,2023.2.3,Win32,60.24096386,9,2,16,,,,,,,,8,13,,,,,,,,,,,8,13.055,1,,,,,,0.301851908,-0.380555556,1,0,0,13.0546,Pumice_rect,15,0,15,0,1,
650d90ebf26334f992c31579,SCN,2024-06-25_09h40.33.947,LearnStrategy,2023.2.3,Win32,60.24096386,,,,,,,,,,,,,,,,,,,,,,,,,,,,,,,,,,,,,,,,,,,0
650d90ebf26334f992c31579,SCN,2024-06-25_09h40.33.947,LearnStrategy,2023.2.3,Win32,60.24096386,,,,,,,,,,,,,,,,,,,,,,,,,,,,,,,,,,,,,,,,,,,
650d90ebf26334f992c31579,SCN,2024-06-25_09h40.33.947,LearnStrategy,2023.2.3,Win32,60.24096386,,,,,,,,,,,3,09,1,1,,,,,,,,,,,,,,,,,,,,,,,,,,,,,
650d90ebf26334f992c31579,SCN,2024-06-25_09h40.33.947,LearnStrategy,2023.2.3,Win32,60.24096386,,,,,,,,,,,1,06,1,2,,,,,,,,,,,,,,,,,,,,,,,,,,,,,
650d90ebf26334f992c31579,SCN,2024-06-25_09h40.33.947,LearnStrategy,2023.2.3,Win32,60.24096386,,,,,,,,,,,4,11,1,3,,,,,,,,,,,,,,,,,,,,,,,,,,,,,
650d90ebf26334f992c31579,SCN,2024-06-25_09h40.33.947,LearnStrategy,2023.2.3,Win32,60.24096386,,,,,,,,,,,7,06,1,4,,,,,,,,,,,,,,,,,,,,,,,,,,,,,
650d90ebf26334f992c31579,SCN,2024-06-25_09h40.33.947,LearnStrategy,2023.2.3,Win32,60.24096386,,,,,,,,,,,4,05,1,5,,,,,,,,,,,,,,,,,,,,,,,,,,,,,
650d90ebf26334f992c31579,SCN,2024-06-25_09h40.33.947,LearnStrategy,2023.2.3,Win32,60.24096386,,,,,,,,,,,3,16,1,6,,,,,,,,,,,,,,,,,,,,,,,,,,,,,
650d90ebf26334f992c31579,SCN,2024-06-25_09h40.33.947,LearnStrategy,2023.2.3,Win32,60.24096386,,,,,,,,,,,8,14,1,7,,,,,,,,,,,,,,,,,,,,,,,,,,,,,
650d90ebf26334f992c31579,SCN,2024-06-25_09h40.33.947,LearnStrategy,2023.2.3,Win32,60.24096386,,,,,,,,,,,6,03,1,8,,,,,,,,,,,,,,,,,,,,,,,,,,,,,
650d90ebf26334f992c31579,SCN,2024-06-25_09h40.33.947,LearnStrategy,2023.2.3,Win32,60.24096386,,,,,,,,,,,6,08,2,1,,,,,,,,,,,,,,,,,,,,,,,,,,,,,
650d90ebf26334f992c31579,SCN,2024-06-25_09h40.33.947,LearnStrategy,2023.2.3,Win32,60.24096386,,,,,,,,,,,4,14,2,2,,,,,,,,,,,,,,,,,,,,,,,,,,,,,
650d90ebf26334f992c31579,SCN,2024-06-25_09h40.33.947,LearnStrategy,2023.2.3,Win32,60.24096386,,,,,,,,,,,7,15,2,3,,,,,,,,,,,,,,,,,,,,,,,,,,,,,
650d90ebf26334f992c31579,SCN,2024-06-25_09h40.33.947,LearnStrategy,2023.2.3,Win32,60.24096386,,,,,,,,,,,2,01,2,4,,,,,,,,,,,,,,,,,,,,,,,,,,,,,
650d90ebf26334f992c31579,SCN,2024-06-25_09h40.33.947,LearnStrategy,2023.2.3,Win32,60.24096386,,,,,,,,,,,4,13,2,5,,,,,,,,,,,,,,,,,,,,,,,,,,,,,
650d90ebf26334f992c31579,SCN,2024-06-25_09h40.33.947,LearnStrategy,2023.2.3,Win32,60.24096386,,,,,,,,,,,7,02,2,6,,,,,,,,,,,,,,,,,,,,,,,,,,,,,
650d90ebf26334f992c31579,SCN,2024-06-25_09h40.33.947,LearnStrategy,2023.2.3,Win32,60.24096386,,,,,,,,,,,7,08,2,7,,,,,,,,,,,,,,,,,,,,,,,,,,,,,
650d90ebf26334f992c31579,SCN,2024-06-25_09h40.33.947,LearnStrategy,2023.2.3,Win32,60.24096386,,,,,,,,,,,5,11,2,8,,,,,,,,,,,,,,,,,,,,,,,,,,,,,
650d90ebf26334f992c31579,SCN,2024-06-25_09h40.33.947,LearnStrategy,2023.2.3,Win32,60.24096386,,,,,,,,,,,6,07,3,1,,,,,,,,,,,,,,,,,,,,,,,,,,,,,
650d90ebf26334f992c31579,SCN,2024-06-25_09h40.33.947,LearnStrategy,2023.2.3,Win32,60.24096386,,,,,,,,,,,5,04,3,2,,,,,,,,,,,,,,,,,,,,,,,,,,,,,
650d90ebf26334f992c31579,SCN,2024-06-25_09h40.33.947,LearnStrategy,2023.2.3,Win32,60.24096386,,,,,,,,,,,2,12,3,3,,,,,,,,,,,,,,,,,,,,,,,,,,,,,
650d90ebf26334f992c31579,SCN,2024-06-25_09h40.33.947,LearnStrategy,2023.2.3,Win32,60.24096386,,,,,,,,,,,4,03,3,4,,,,,,,,,,,,,,,,,,,,,,,,,,,,,
650d90ebf26334f992c31579,SCN,2024-06-25_09h40.33.947,LearnStrategy,2023.2.3,Win32,60.24096386,,,,,,,,,,,5,10,3,5,,,,,,,,,,,,,,,,,,,,,,,,,,,,,
650d90ebf26334f992c31579,SCN,2024-06-25_09h40.33.947,LearnStrategy,2023.2.3,Win32,60.24096386,,,,,,,,,,,8,06,3,6,,,,,,,,,,,,,,,,,,,,,,,,,,,,,
650d90ebf26334f992c31579,SCN,2024-06-25_09h40.33.947,LearnStrategy,2023.2.3,Win32,60.24096386,,,,,,,,,,,3,07,3,7,,,,,,,,,,,,,,,,,,,,,,,,,,,,,
650d90ebf26334f992c31579,SCN,2024-06-25_09h40.33.947,LearnStrategy,2023.2.3,Win32,60.24096386,,,,,,,,,,,7,13,3,8,,,,,,,,,,,,,,,,,,,,,,,,,,,,,
650d90ebf26334f992c31579,SCN,2024-06-25_09h40.33.947,LearnStrategy,2023.2.3,Win32,60.24096386,,,,,,,,,,,8,10,4,1,,,,,,,,,,,,,,,,,,,,,,,,,,,,,
650d90ebf26334f992c31579,SCN,2024-06-25_09h40.33.947,LearnStrategy,2023.2.3,Win32,60.24096386,,,,,,,,,,,3,14,4,2,,,,,,,,,,,,,,,,,,,,,,,,,,,,,
650d90ebf26334f992c31579,SCN,2024-06-25_09h40.33.947,LearnStrategy,2023.2.3,Win32,60.24096386,,,,,,,,,,,2,11,4,3,,,,,,,,,,,,,,,,,,,,,,,,,,,,,
650d90ebf26334f992c31579,SCN,2024-06-25_09h40.33.947,LearnStrategy,2023.2.3,Win32,60.24096386,,,,,,,,,,,5,06,4,4,,,,,,,,,,,,,,,,,,,,,,,,,,,,,
650d90ebf26334f992c31579,SCN,2024-06-25_09h40.33.947,LearnStrategy,2023.2.3,Win32,60.24096386,,,,,,,,,,,8,04,4,5,,,,,,,,,,,,,,,,,,,,,,,,,,,,,
650d90ebf26334f992c31579,SCN,2024-06-25_09h40.33.947,LearnStrategy,2023.2.3,Win32,60.24096386,,,,,,,,,,,1,02,4,6,,,,,,,,,,,,,,,,,,,,,,,,,,,,,
650d90ebf26334f992c31579,SCN,2024-06-25_09h40.33.947,LearnStrategy,2023.2.3,Win32,60.24096386,,,,,,,,,,,1,16,4,7,,,,,,,,,,,,,,,,,,,,,,,,,,,,,
650d90ebf26334f992c31579,SCN,2024-06-25_09h40.33.947,LearnStrategy,2023.2.3,Win32,60.24096386,,,,,,,,,,,6,11,4,8,,,,,,,,,,,,,,,,,,,,,,,,,,,,,
650d90ebf26334f992c31579,SCN,2024-06-25_09h40.33.947,LearnStrategy,2023.2.3,Win32,60.24096386,,,,,,,,,,,5,14,5,1,,,,,,,,,,,,,,,,,,,,,,,,,,,,,
650d90ebf26334f992c31579,SCN,2024-06-25_09h40.33.947,LearnStrategy,2023.2.3,Win32,60.24096386,,,,,,,,,,,2,05,5,2,,,,,,,,,,,,,,,,,,,,,,,,,,,,,
650d90ebf26334f992c31579,SCN,2024-06-25_09h40.33.947,LearnStrategy,2023.2.3,Win32,60.24096386,,,,,,,,,,,4,08,5,3,,,,,,,,,,,,,,,,,,,,,,,,,,,,,
650d90ebf26334f992c31579,SCN,2024-06-25_09h40.33.947,LearnStrategy,2023.2.3,Win32,60.24096386,,,,,,,,,,,1,03,5,4,,,,,,,,,,,,,,,,,,,,,,,,,,,,,
650d90ebf26334f992c31579,SCN,2024-06-25_09h40.33.947,LearnStrategy,2023.2.3,Win32,60.24096386,,,,,,,,,,,2,10,5,5,,,,,,,,,,,,,,,,,,,,,,,,,,,,,
650d90ebf26334f992c31579,SCN,2024-06-25_09h40.33.947,LearnStrategy,2023.2.3,Win32,60.24096386,,,,,,,,,,,8,09,5,6,,,,,,,,,,,,,,,,,,,,,,,,,,,,,
650d90ebf26334f992c31579,SCN,2024-06-25_09h40.33.947,LearnStrategy,2023.2.3,Win32,60.24096386,,,,,,,,,,,3,11,5,7,,,,,,,,,,,,,,,,,,,,,,,,,,,,,
650d90ebf26334f992c31579,SCN,2024-06-25_09h40.33.947,LearnStrategy,2023.2.3,Win32,60.24096386,,,,,,,,,,,5,02,5,8,,,,,,,,,,,,,,,,,,,,,,,,,,,,,
650d90ebf26334f992c31579,SCN,2024-06-25_09h40.33.947,LearnStrategy,2023.2.3,Win32,60.24096386,,,,,,,,,,,7,07,6,1,,,,,,,,,,,,,,,,,,,,,,,,,,,,,
650d90ebf26334f992c31579,SCN,2024-06-25_09h40.33.947,LearnStrategy,2023.2.3,Win32,60.24096386,,,,,,,,,,,8,16,6,2,,,,,,,,,,,,,,,,,,,,,,,,,,,,,
650d90ebf26334f992c31579,SCN,2024-06-25_09h40.33.947,LearnStrategy,2023.2.3,Win32,60.24096386,,,,,,,,,,,1,07,6,3,,,,,,,,,,,,,,,,,,,,,,,,,,,,,
650d90ebf26334f992c31579,SCN,2024-06-25_09h40.33.947,LearnStrategy,2023.2.3,Win32,60.24096386,,,,,,,,,,,2,16,6,4,,,,,,,,,,,,,,,,,,,,,,,,,,,,,
650d90ebf26334f992c31579,SCN,2024-06-25_09h40.33.947,LearnStrategy,2023.2.3,Win32,60.24096386,,,,,,,,,,,3,02,6,5,,,,,,,,,,,,,,,,,,,,,,,,,,,,,
650d90ebf26334f992c31579,SCN,2024-06-25_09h40.33.947,LearnStrategy,2023.2.3,Win32,60.24096386,,,,,,,,,,,6,09,6,6,,,,,,,,,,,,,,,,,,,,,,,,,,,,,
650d90ebf26334f992c31579,SCN,2024-06-25_09h40.33.947,LearnStrategy,2023.2.3,Win32,60.24096386,,,,,,,,,,,6,06,6,7,,,,,,,,,,,,,,,,,,,,,,,,,,,,,
650d90ebf26334f992c31579,SCN,2024-06-25_09h40.33.947,LearnStrategy,2023.2.3,Win32,60.24096386,,,,,,,,,,,1,11,6,8,,,,,,,,,,,,,,,,,,,,,,,,,,,,,