participant,condition,date,expName,psychopyVersion,OS,frameRate,block,phase,trial,learn_mouse.x,learn_mouse.y,learn_mouse.leftButton,learn_mouse.midButton,learn_mouse.rightButton,learn_mouse.time,learn_mouse.clicked_name,cat,token,row,col,t_select,cat_mouse_l.x,cat_mouse_l.y,cat_mouse_l.leftButton,cat_mouse_l.midButton,cat_mouse_l.rightButton,cat_mouse_l.time,cat_mouse_l.clicked_name,resp,t_resp,corr,train_trials.thisRepN,train_trials.thisTrialN,train_trials.thisN,train_trials.thisIndex,train_trials.ran,cat_mouse_t.x,cat_mouse_t.y,cat_mouse_t.leftButton,cat_mouse_t.midButton,cat_mouse_t.rightButton,cat_mouse_t.time,cat_mouse_t.clicked_name,test_trials.thisRepN,test_trials.thisTrialN,test_trials.thisN,test_trials.thisIndex,test_trials.ran,Bonus
650ee274aa4447ac435b7830,SCN,2024-06-11_13h19.32.998,LearnStrategy,2023.2.3,Win32,147.0588235,,,,,,,,,,,,,,,,,,,,,,,,,,,,,,,,,,,,,,,,,,,
650ee274aa4447ac435b7830,SCN,2024-06-11_13h19.32.998,LearnStrategy,2023.2.3,Win32,147.0588235,1,1,1,-0.103703675,0.099074081,1,0,0,4.2452,Gabbro_10,4,10,4,4,4.245,-0.130555541,-0.271296325,1,0,0,4.4484,Basalt_rect,2,4.448,0,0,0,0,0,1,,,,,,,,,,,,,
650ee274aa4447ac435b7830,SCN,2024-06-11_13h19.32.998,LearnStrategy,2023.2.3,Win32,147.0588235,1,1,2,-0.22592594,-0.092592593,1,0,0,1.5301,Peridotite_02,7,02,3,3,1.53,0.10092594,-0.387037065,1,0,0,1.1332,Peridotite_rect,7,1.133,1,1,0,1,0,1,,,,,,,,,,,,,
650ee274aa4447ac435b7830,SCN,2024-06-11_13h19.32.998,LearnStrategy,2023.2.3,Win32,147.0588235,1,1,3,0.54814812,-0.272222236,1,0,0,3.3116,Basalt_06,2,06,2,8,3.312,0.15370369,-0.25462963,1,0,0,0.7967,Diorite_rect,3,0.797,0,2,0,2,0,1,,,,,,,,,,,,,
650ee274aa4447ac435b7830,SCN,2024-06-11_13h19.32.998,LearnStrategy,2023.2.3,Win32,147.0588235,1,1,4,-0.532407407,0.077777757,1,0,0,1.4557,Diorite_02,3,02,4,1,1.456,-0.134259259,-0.240740741,1,0,0,1.4332,Basalt_rect,2,1.433,0,3,0,3,0,1,,,,,,,,,,,,,
650ee274aa4447ac435b7830,SCN,2024-06-11_13h19.32.998,LearnStrategy,2023.2.3,Win32,147.0588235,1,1,5,-0.550925926,-0.366666653,1,0,0,1.6462,Andesite_03,1,03,1,1,1.646,-0.357407393,-0.390740783,1,0,0,4.4296,Obsidian_rect,5,4.43,0,4,0,4,0,1,,,,,,,,,,,,,
650ee274aa4447ac435b7830,SCN,2024-06-11_13h19.32.998,LearnStrategy,2023.2.3,Win32,147.0588235,1,1,6,-0.542592578,0.38148148,1,0,0,1.3523,Diorite_16,3,16,6,1,1.352,0.381481453,-0.388888889,1,0,0,2.3303,Pumice_rect,8,2.33,0,5,0,5,0,1,,,,,,,,,,,,,
650ee274aa4447ac435b7830,SCN,2024-06-11_13h19.32.998,LearnStrategy,2023.2.3,Win32,147.0588235,1,1,7,0.545370455,0.087962963,1,0,0,6.5398,Pumice_09,8,09,4,8,6.54,-0.352777764,-0.404629672,1,0,0,1.6913,Obsidian_rect,5,1.691,0,6,0,6,0,1,,,,,,,,,,,,,
650ee274aa4447ac435b7830,SCN,2024-06-11_13h19.32.998,LearnStrategy,2023.2.3,Win32,147.0588235,1,1,8,0.231481481,0.224999993,1,0,0,2.4083,Gabbro_11,4,11,5,6,2.408,-0.348148134,-0.386111153,1,0,0,1.6382,Obsidian_rect,5,1.638,0,7,0,7,0,1,,,,,,,,,,,,,
650ee274aa4447ac435b7830,SCN,2024-06-11_13h19.32.998,LearnStrategy,2023.2.3,Win32,147.0588235,1,1,9,-0.258333347,-0.402777778,1,0,0,6.0453,Pegmatite_08,6,08,1,3,6.045,0.130555541,-0.408333319,1,0,0,5.8131,Peridotite_rect,7,5.813,0,8,0,8,0,1,,,,,,,,,,,,,
650ee274aa4447ac435b7830,SCN,2024-06-11_13h19.32.998,LearnStrategy,2023.2.3,Win32,147.0588235,1,1,10,-0.091666681,0.24166667,1,0,0,2.4562,Obsidian_16,5,16,5,4,2.456,0.125925912,-0.385185171,1,0,0,2.7647,Peridotite_rect,7,2.765,0,9,0,9,0,1,,,,,,,,,,,,,
650ee274aa4447ac435b7830,SCN,2024-06-11_13h19.32.998,LearnStrategy,2023.2.3,Win32,147.0588235,1,1,11,0.384259259,-0.076851845,1,0,0,20.0177,Obsidian_02,5,02,3,7,20.018,-0.397222201,-0.384259259,1,0,0,2.1666,Obsidian_rect,5,2.167,1,10,0,10,0,1,,,,,,,,,,,,,
650ee274aa4447ac435b7830,SCN,2024-06-11_13h19.32.998,LearnStrategy,2023.2.3,Win32,147.0588235,1,1,12,0.569444444,-0.114814829,1,0,0,15.8068,Peridotite_12,7,12,3,8,15.807,0.115740741,-0.247222265,1,0,0,2.0522,Diorite_rect,3,2.052,0,11,0,11,0,1,,,,,,,,,,,,,
650ee274aa4447ac435b7830,SCN,2024-06-11_13h19.32.998,LearnStrategy,2023.2.3,Win32,147.0588235,1,1,13,-0.388888889,-0.404629672,1,0,0,2.5679,Obsidian_04,5,04,1,2,2.568,-0.375,-0.266666695,1,0,0,2.0394,Andesite_rect,1,2.039,0,12,0,12,0,1,,,,,,,,,,,,,
650ee274aa4447ac435b7830,SCN,2024-06-11_13h19.32.998,LearnStrategy,2023.2.3,Win32,147.0588235,1,1,14,0.263888889,-0.095370399,1,0,0,2.7311,Andesite_11,1,11,3,6,2.731,-0.109259217,-0.390740783,1,0,0,1.7982,Pegmatite_rect,6,1.798,0,13,0,13,0,1,,,,,,,,,,,,,
650ee274aa4447ac435b7830,SCN,2024-06-11_13h19.32.998,LearnStrategy,2023.2.3,Win32,147.0588235,1,1,15,-0.400925919,-0.134259259,1,0,0,2.3949,Basalt_02,2,02,3,2,2.395,-0.343518504,-0.390740783,1,0,0,2.1346,Obsidian_rect,5,2.135,0,14,0,14,0,1,,,,,,,,,,,,,
650ee274aa4447ac435b7830,SCN,2024-06-11_13h19.32.998,LearnStrategy,2023.2.3,Win32,147.0588235,1,1,16,0.121296282,0.26666666,1,0,0,2.8292,Basalt_01,2,01,5,5,2.829,-0.39166666,-0.252777806,1,0,0,1.3876,Andesite_rect,1,1.388,0,15,0,15,0,1,,,,,,,,,,,,,
650ee274aa4447ac435b7830,SCN,2024-06-11_13h19.32.998,LearnStrategy,2023.2.3,Win32,147.0588235,1,2,1,,,,,,,,1,05,,,,,,,,,,,2,2.399,0,,,,,,-0.131481453,-0.24537037,1,0,0,2.3991,Basalt_rect,0,0,0,0,1,
650ee274aa4447ac435b7830,SCN,2024-06-11_13h19.32.998,LearnStrategy,2023.2.3,Win32,147.0588235,1,2,2,,,,,,,,5,11,,,,,,,,,,,3,1.079,0,,,,,,0.160185213,-0.250925912,1,0,0,1.0794,Diorite_rect,1,0,1,0,1,
650ee274aa4447ac435b7830,SCN,2024-06-11_13h19.32.998,LearnStrategy,2023.2.3,Win32,147.0588235,1,2,3,,,,,,,,7,14,,,,,,,,,,,6,0.964,0,,,,,,-0.188888903,-0.413888931,1,0,0,0.9644,Pegmatite_rect,2,0,2,0,1,
650ee274aa4447ac435b7830,SCN,2024-06-11_13h19.32.998,LearnStrategy,2023.2.3,Win32,147.0588235,1,2,4,,,,,,,,4,03,,,,,,,,,,,5,1.454,0,,,,,,-0.337037016,-0.39907406,1,0,0,1.4543,Obsidian_rect,3,0,3,0,1,
650ee274aa4447ac435b7830,SCN,2024-06-11_13h19.32.998,LearnStrategy,2023.2.3,Win32,147.0588235,1,2,5,,,,,,,,8,06,,,,,,,,,,,2,1.025,0,,,,,,-0.127777735,-0.266666695,1,0,0,1.0255,Basalt_rect,4,0,4,0,1,
650ee274aa4447ac435b7830,SCN,2024-06-11_13h19.32.998,LearnStrategy,2023.2.3,Win32,147.0588235,1,2,6,,,,,,,,8,04,,,,,,,,,,,4,0.896,0,,,,,,0.323148233,-0.258333347,1,0,0,0.8964,Gabbro_rect,5,0,5,0,1,
650ee274aa4447ac435b7830,SCN,2024-06-11_13h19.32.998,LearnStrategy,2023.2.3,Win32,147.0588235,1,2,7,,,,,,,,3,10,,,,,,,,,,,7,1.051,0,,,,,,0.188888903,-0.392592607,1,0,0,1.0511,Peridotite_rect,6,0,6,0,1,
650ee274aa4447ac435b7830,SCN,2024-06-11_13h19.32.998,LearnStrategy,2023.2.3,Win32,147.0588235,1,2,8,,,,,,,,5,10,,,,,,,,,,,3,0.898,0,,,,,,0.185185185,-0.239814829,1,0,0,0.8977,Diorite_rect,7,0,7,0,1,
650ee274aa4447ac435b7830,SCN,2024-06-11_13h19.32.998,LearnStrategy,2023.2.3,Win32,147.0588235,1,2,9,,,,,,,,3,11,,,,,,,,,,,2,0.645,0,,,,,,-0.14444443,-0.261111153,1,0,0,0.6454,Basalt_rect,8,0,8,0,1,
650ee274aa4447ac435b7830,SCN,2024-06-11_13h19.32.998,LearnStrategy,2023.2.3,Win32,147.0588235,1,2,10,,,,,,,,2,09,,,,,,,,,,,6,0.714,0,,,,,,-0.080555527,-0.385185171,1,0,0,0.7141,Pegmatite_rect,9,0,9,0,1,
650ee274aa4447ac435b7830,SCN,2024-06-11_13h19.32.998,LearnStrategy,2023.2.3,Win32,147.0588235,1,2,11,,,,,,,,7,15,,,,,,,,,,,3,0.925,0,,,,,,0.132407436,-0.253703718,1,0,0,0.9248,Diorite_rect,10,0,10,0,1,
650ee274aa4447ac435b7830,SCN,2024-06-11_13h19.32.998,LearnStrategy,2023.2.3,Win32,147.0588235,1,2,12,,,,,,,,6,12,,,,,,,,,,,2,0.55,0,,,,,,-0.056481467,-0.259259259,1,0,0,0.5504,Basalt_rect,11,0,11,0,1,
650ee274aa4447ac435b7830,SCN,2024-06-11_13h19.32.998,LearnStrategy,2023.2.3,Win32,147.0588235,1,2,13,,,,,,,,4,09,,,,,,,,,,,7,0.621,0,,,,,,0.128703718,-0.411111125,1,0,0,0.6212,Peridotite_rect,12,0,12,0,1,
650ee274aa4447ac435b7830,SCN,2024-06-11_13h19.32.998,LearnStrategy,2023.2.3,Win32,147.0588235,1,2,14,,,,,,,,1,16,,,,,,,,,,,3,1.432,0,,,,,,0.085185228,-0.262962977,1,0,0,1.4316,Diorite_rect,13,0,13,0,1,
650ee274aa4447ac435b7830,SCN,2024-06-11_13h19.32.998,LearnStrategy,2023.2.3,Win32,147.0588235,1,2,15,,,,,,,,6,05,,,,,,,,,,,6,1.78,1,,,,,,-0.080555527,-0.388888889,1,0,0,1.78,Pegmatite_rect,14,0,14,0,1,
650ee274aa4447ac435b7830,SCN,2024-06-11_13h19.32.998,LearnStrategy,2023.2.3,Win32,147.0588235,1,2,16,,,,,,,,2,14,,,,,,,,,,,8,3.003,0,,,,,,0.366666723,-0.409259302,1,0,0,3.0032,Pumice_rect,15,0,15,0,1,
650ee274aa4447ac435b7830,SCN,2024-06-11_13h19.32.998,LearnStrategy,2023.2.3,Win32,147.0588235,2,1,1,-0.079629616,0.072222215,1,0,0,1.2764,Gabbro_10,4,10,4,4,1.276,0.328703704,-0.263888889,1,0,0,1.1362,Gabbro_rect,4,1.136,1,0,0,0,0,1,,,,,,,,,,,,,
650ee274aa4447ac435b7830,SCN,2024-06-11_13h19.32.998,LearnStrategy,2023.2.3,Win32,147.0588235,2,1,2,-0.249074088,0.243518511,1,0,0,1.2928,Andesite_01,1,01,5,3,1.293,-0.062962921,-0.248148176,1,0,0,1.6355,Basalt_rect,2,1.636,0,1,0,1,0,1,,,,,,,,,,,,,
650ee274aa4447ac435b7830,SCN,2024-06-11_13h19.32.998,LearnStrategy,2023.2.3,Win32,147.0588235,2,1,3,-0.530555548,0.251851841,1,0,0,0.9355,Peridotite_07,7,07,5,1,0.935,-0.36296297,-0.268518519,1,0,0,3.4942,Andesite_rect,1,3.494,0,2,0,2,0,1,,,,,,,,,,,,,
650ee274aa4447ac435b7830,SCN,2024-06-11_13h19.32.998,LearnStrategy,2023.2.3,Win32,147.0588235,2,1,4,0.037037037,0.412962958,1,0,0,2.6611,Gabbro_08,4,08,6,5,2.661,-0.384259259,-0.400000042,1,0,0,1.5888,Obsidian_rect,5,1.589,0,3,0,3,0,1,,,,,,,,,,,,,
650ee274aa4447ac435b7830,SCN,2024-06-11_13h19.32.998,LearnStrategy,2023.2.3,Win32,147.0588235,2,1,5,-0.390740748,-0.437037079,1,0,0,1.5795,Obsidian_04,5,04,1,2,1.579,-0.042592578,-0.412037037,1,0,0,1.2697,Pegmatite_rect,6,1.27,0,4,0,4,0,1,,,,,,,,,,,,,
650ee274aa4447ac435b7830,SCN,2024-06-11_13h19.32.998,LearnStrategy,2023.2.3,Win32,147.0588235,2,1,6,0.562037009,0.275925919,1,0,0,1.4143,Pumice_03,8,03,5,8,1.414,0.337962963,-0.25,1,0,0,1.2521,Gabbro_rect,4,1.252,0,5,0,5,0,1,,,,,,,,,,,,,
650ee274aa4447ac435b7830,SCN,2024-06-11_13h19.32.998,LearnStrategy,2023.2.3,Win32,147.0588235,2,1,7,-0.552777785,0.098148134,1,0,0,10.9112,Diorite_02,3,02,4,1,10.911,0.113888917,-0.397222236,1,0,0,3.6313,Peridotite_rect,7,3.631,0,6,0,6,0,1,,,,,,,,,,,,,
650ee274aa4447ac435b7830,SCN,2024-06-11_13h19.32.998,LearnStrategy,2023.2.3,Win32,147.0588235,2,1,8,-0.237962935,0.371296291,1,0,0,19.499,Pumice_08,8,08,6,3,19.499,-0.374074053,-0.409259302,1,0,0,1.8596,Obsidian_rect,5,1.86,0,7,0,7,0,1,,,,,,,,,,,,,
650ee274aa4447ac435b7830,SCN,2024-06-11_13h19.32.998,LearnStrategy,2023.2.3,Win32,147.0588235,2,1,9,-0.563888868,-0.08888891,1,0,0,17.4164,Obsidian_14,5,14,3,1,17.416,0.357407464,-0.256481524,1,0,0,1.9546,Gabbro_rect,4,1.955,0,8,0,8,0,1,,,,,,,,,,,,,
650ee274aa4447ac435b7830,SCN,2024-06-11_13h19.32.998,LearnStrategy,2023.2.3,Win32,147.0588235,2,1,10,-0.576851845,-0.389814801,1,0,0,13.7011,Andesite_03,1,03,1,1,13.701,-0.421296296,-0.238888917,1,0,0,1.2262,Andesite_rect,1,1.226,1,9,0,9,0,1,,,,,,,,,,,,,
650ee274aa4447ac435b7830,SCN,2024-06-11_13h19.32.998,LearnStrategy,2023.2.3,Win32,147.0588235,2,1,11,-0.109259217,-0.281481496,1,0,0,3.6196,Obsidian_06,5,06,2,4,3.62,-0.088888875,-0.406481496,1,0,0,3.4486,Pegmatite_rect,6,3.449,0,10,0,10,0,1,,,,,,,,,,,,,
650ee274aa4447ac435b7830,SCN,2024-06-11_13h19.32.998,LearnStrategy,2023.2.3,Win32,147.0588235,2,1,12,-0.089814787,0.255555559,1,0,0,3.4781,Obsidian_16,5,16,5,4,3.478,-0.374074053,-0.262962977,1,0,0,0.8575,Andesite_rect,1,0.857,0,11,0,11,0,1,,,,,,,,,,,,,
650ee274aa4447ac435b7830,SCN,2024-06-11_13h19.32.998,LearnStrategy,2023.2.3,Win32,147.0588235,2,1,13,-0.392592571,0.260185189,1,0,0,4.2971,Pumice_14,8,14,5,2,4.297,0.400925954,-0.264814801,1,0,0,1.5595,Gabbro_rect,4,1.559,0,12,0,12,0,1,,,,,,,,,,,,,
650ee274aa4447ac435b7830,SCN,2024-06-11_13h19.32.998,LearnStrategy,2023.2.3,Win32,147.0588235,2,1,14,0.343518575,0.414814817,1,0,0,4.3662,Pumice_05,8,05,6,7,4.366,-0.09629631,-0.262037065,1,0,0,2.7674,Basalt_rect,2,2.767,0,13,0,13,0,1,,,,,,,,,,,,,
650ee274aa4447ac435b7830,SCN,2024-06-11_13h19.32.998,LearnStrategy,2023.2.3,Win32,147.0588235,2,1,15,-0.508333312,0.097222222,1,0,0,2.3607,Diorite_02,3,02,4,1,2.361,-0.364814794,-0.406481496,1,0,0,15.0904,Obsidian_rect,5,15.09,0,14,0,14,0,1,,,,,,,,,,,,,
650ee274aa4447ac435b7830,SCN,2024-06-11_13h19.32.998,LearnStrategy,2023.2.3,Win32,147.0588235,2,1,16,0.511111083,-0.384259259,1,0,0,8.8176,Gabbro_12,4,12,1,8,8.818,0.14907406,-0.262037065,1,0,0,0.8232,Diorite_rect,3,0.823,0,15,0,15,0,1,,,,,,,,,,,,,
650ee274aa4447ac435b7830,SCN,2024-06-11_13h19.32.998,LearnStrategy,2023.2.3,Win32,147.0588235,2,2,1,,,,,,,,2,10,,,,,,,,,,,5,2.13,0,,,,,,-0.386111118,-0.407407407,1,0,0,2.1295,Obsidian_rect,0,0,0,0,1,
650ee274aa4447ac435b7830,SCN,2024-06-11_13h19.32.998,LearnStrategy,2023.2.3,Win32,147.0588235,2,2,2,,,,,,,,1,06,,,,,,,,,,,2,1.265,0,,,,,,-0.065740727,-0.23055557,1,0,0,1.2651,Basalt_rect,1,0,1,0,1,
650ee274aa4447ac435b7830,SCN,2024-06-11_13h19.32.998,LearnStrategy,2023.2.3,Win32,147.0588235,2,2,3,,,,,,,,5,09,,,,,,,,,,,4,0.587,0,,,,,,0.385185242,-0.266666695,1,0,0,0.5867,Gabbro_rect,2,0,2,0,1,
650ee274aa4447ac435b7830,SCN,2024-06-11_13h19.32.998,LearnStrategy,2023.2.3,Win32,147.0588235,2,2,4,,,,,,,,3,07,,,,,,,,,,,6,0.546,0,,,,,,-0.076851809,-0.397222236,1,0,0,0.5459,Pegmatite_rect,3,0,3,0,1,
650ee274aa4447ac435b7830,SCN,2024-06-11_13h19.32.998,LearnStrategy,2023.2.3,Win32,147.0588235,2,2,5,,,,,,,,8,02,,,,,,,,,,,2,2.19,0,,,,,,-0.178703661,-0.241666653,1,0,0,2.1896,Basalt_rect,4,0,4,0,1,
650ee274aa4447ac435b7830,SCN,2024-06-11_13h19.32.998,LearnStrategy,2023.2.3,Win32,147.0588235,2,2,6,,,,,,,,2,05,,,,,,,,,,,2,1.093,1,,,,,,-0.118518476,-0.239814829,1,0,0,1.0928,Basalt_rect,5,0,5,0,1,
650ee274aa4447ac435b7830,SCN,2024-06-11_13h19.32.998,LearnStrategy,2023.2.3,Win32,147.0588235,2,2,7,,,,,,,,7,10,,,,,,,,,,,2,0.342,0,,,,,,-0.118518476,-0.239814829,1,0,0,0.3417,Basalt_rect,6,0,6,0,1,
650ee274aa4447ac435b7830,SCN,2024-06-11_13h19.32.998,LearnStrategy,2023.2.3,Win32,147.0588235,2,2,8,,,,,,,,6,10,,,,,,,,,,,5,0.831,0,,,,,,-0.333333333,-0.380555541,1,0,0,0.8311,Obsidian_rect,7,0,7,0,1,
650ee274aa4447ac435b7830,SCN,2024-06-11_13h19.32.998,LearnStrategy,2023.2.3,Win32,147.0588235,2,2,9,,,,,,,,4,01,,,,,,,,,,,1,0.933,0,,,,,,-0.341666645,-0.255555541,1,0,0,0.9332,Andesite_rect,8,0,8,0,1,
650ee274aa4447ac435b7830,SCN,2024-06-11_13h19.32.998,LearnStrategy,2023.2.3,Win32,147.0588235,2,2,10,,,,,,,,8,15,,,,,,,,,,,6,0.431,0,,,,,,-0.103703675,-0.383333347,1,0,0,0.4311,Pegmatite_rect,9,0,9,0,1,
650ee274aa4447ac435b7830,SCN,2024-06-11_13h19.32.998,LearnStrategy,2023.2.3,Win32,147.0588235,2,2,11,,,,,,,,7,13,,,,,,,,,,,7,0.412,1,,,,,,0.178703732,-0.383333347,1,0,0,0.412,Peridotite_rect,10,0,10,0,1,
650ee274aa4447ac435b7830,SCN,2024-06-11_13h19.32.998,LearnStrategy,2023.2.3,Win32,147.0588235,2,2,12,,,,,,,,4,16,,,,,,,,,,,3,0.358,0,,,,,,0.137037065,-0.233333376,1,0,0,0.358,Diorite_rect,11,0,11,0,1,
650ee274aa4447ac435b7830,SCN,2024-06-11_13h19.32.998,LearnStrategy,2023.2.3,Win32,147.0588235,2,2,13,,,,,,,,3,15,,,,,,,,,,,5,0.828,0,,,,,,-0.351851852,-0.417592578,1,0,0,0.8285,Obsidian_rect,12,0,12,0,1,
650ee274aa4447ac435b7830,SCN,2024-06-11_13h19.32.998,LearnStrategy,2023.2.3,Win32,147.0588235,2,2,14,,,,,,,,1,07,,,,,,,,,,,7,0.308,0,,,,,,0.146296325,-0.385185171,1,0,0,0.3082,Peridotite_rect,13,0,13,0,1,
650ee274aa4447ac435b7830,SCN,2024-06-11_13h19.32.998,LearnStrategy,2023.2.3,Win32,147.0588235,2,2,15,,,,,,,,5,07,,,,,,,,,,,2,1.116,0,,,,,,-0.063888903,-0.250925912,1,0,0,1.1157,Basalt_rect,14,0,14,0,1,
650ee274aa4447ac435b7830,SCN,2024-06-11_13h19.32.998,LearnStrategy,2023.2.3,Win32,147.0588235,2,2,16,,,,,,,,6,16,,,,,,,,,,,4,1.426,0,,,,,,0.354629658,-0.237963005,1,0,0,1.4264,Gabbro_rect,15,0,15,0,1,
650ee274aa4447ac435b7830,SCN,2024-06-11_13h19.32.998,LearnStrategy,2023.2.3,Win32,147.0588235,3,1,1,0.086111139,-0.082407422,1,0,0,1.2619,Gabbro_13,4,13,3,5,1.262,-0.378703683,-0.265740783,1,0,0,3.1554,Andesite_rect,1,3.155,0,0,0,0,0,1,,,,,,,,,,,,,
650ee274aa4447ac435b7830,SCN,2024-06-11_13h19.32.998,LearnStrategy,2023.2.3,Win32,147.0588235,3,1,2,-0.085185157,-0.234259288,1,0,0,1.006,Obsidian_06,5,06,2,4,1.006,0.193518533,-0.386111153,1,0,0,1.1688,Peridotite_rect,7,1.169,0,1,0,1,0,1,,,,,,,,,,,,,
650ee274aa4447ac435b7830,SCN,2024-06-11_13h19.32.998,LearnStrategy,2023.2.3,Win32,147.0588235,3,1,3,-0.39444443,0.25833333,1,0,0,1.0613,Pumice_14,8,14,5,2,1.061,-0.386111118,-0.400000042,1,0,0,2.7103,Obsidian_rect,5,2.71,0,2,0,2,0,1,,,,,,,,,,,,,
650ee274aa4447ac435b7830,SCN,2024-06-11_13h19.32.998,LearnStrategy,2023.2.3,Win32,147.0588235,3,1,4,-0.417592578,0.240740741,1,0,0,1.1936,Pumice_14,8,14,5,2,1.194,0.409259231,-0.385185171,1,0,0,1.595,Pumice_rect,8,1.595,1,3,0,3,0,1,,,,,,,,,,,,,
650ee274aa4447ac435b7830,SCN,2024-06-11_13h19.32.998,LearnStrategy,2023.2.3,Win32,147.0588235,3,1,5,-0.555555556,0.27037036,1,0,0,1.6122,Peridotite_07,7,07,5,1,1.612,0.359259288,-0.406481496,1,0,0,2.1072,Pumice_rect,8,2.107,0,4,0,4,0,1,,,,,,,,,,,,,
650ee274aa4447ac435b7830,SCN,2024-06-11_13h19.32.998,LearnStrategy,2023.2.3,Win32,147.0588235,3,1,6,-0.247222194,0.259259259,1,0,0,2.2315,Andesite_01,1,01,5,3,2.231,-0.103703675,-0.260185171,1,0,0,1.5717,Basalt_rect,2,1.572,0,5,0,5,0,1,,,,,,,,,,,,,
650ee274aa4447ac435b7830,SCN,2024-06-11_13h19.32.998,LearnStrategy,2023.2.3,Win32,147.0588235,3,1,7,-0.371296282,0.090740734,1,0,0,1.5696,Peridotite_16,7,16,4,2,1.57,-0.158333319,-0.25462963,1,0,0,1.8372,Basalt_rect,2,1.837,0,6,0,6,0,1,,,,,,,,,,,,,
650ee274aa4447ac435b7830,SCN,2024-06-11_13h19.32.998,LearnStrategy,2023.2.3,Win32,147.0588235,3,1,8,-0.532407407,-0.076851845,1,0,0,4.7631,Obsidian_14,5,14,3,1,4.763,-0.363888882,-0.25462963,1,0,0,2.3008,Andesite_rect,1,2.301,0,7,0,7,0,1,,,,,,,,,,,,,
650ee274aa4447ac435b7830,SCN,2024-06-11_13h19.32.998,LearnStrategy,2023.2.3,Win32,147.0588235,3,1,9,-0.380555541,0.399074069,1,0,0,1.7976,Andesite_14,1,14,6,2,1.798,-0.077777792,-0.243518547,1,0,0,1.2397,Basalt_rect,2,1.24,0,8,0,8,0,1,,,,,,,,,,,,,
650ee274aa4447ac435b7830,SCN,2024-06-11_13h19.32.998,LearnStrategy,2023.2.3,Win32,147.0588235,3,1,10,0.265740783,0.26666666,1,0,0,1.1377,Gabbro_11,4,11,5,6,1.138,0.119444459,-0.25,1,0,0,1.1325,Diorite_rect,3,1.133,0,9,0,9,0,1,,,,,,,,,,,,,
650ee274aa4447ac435b7830,SCN,2024-06-11_13h19.32.998,LearnStrategy,2023.2.3,Win32,147.0588235,3,1,11,0.529629601,0.399999998,1,0,0,2.1652,Peridotite_08,7,08,6,8,2.165,0.389814871,-0.409259302,1,0,0,2.4567,Pumice_rect,8,2.457,0,10,0,10,0,1,,,,,,,,,,,,,
650ee274aa4447ac435b7830,SCN,2024-06-11_13h19.32.998,LearnStrategy,2023.2.3,Win32,147.0588235,3,1,12,-0.364814794,-0.116666653,1,0,0,1.93,Basalt_02,2,02,3,2,1.93,-0.203703704,-0.239814829,1,0,0,0.7414,Basalt_rect,2,0.741,1,11,0,11,0,1,,,,,,,,,,,,,
650ee274aa4447ac435b7830,SCN,2024-06-11_13h19.32.998,LearnStrategy,2023.2.3,Win32,147.0588235,3,1,13,-0.396296289,-0.288888931,1,0,0,1.8112,Basalt_12,2,12,2,2,1.811,-0.178703661,-0.255555541,1,0,0,0.7574,Basalt_rect,2,0.757,1,12,0,12,0,1,,,,,,,,,,,,,
650ee274aa4447ac435b7830,SCN,2024-06-11_13h19.32.998,LearnStrategy,2023.2.3,Win32,147.0588235,3,1,14,-0.586111104,-0.393518519,1,0,0,1.0603,Andesite_03,1,03,1,1,1.06,-0.12037037,-0.243518547,1,0,0,0.8919,Basalt_rect,2,0.892,0,13,0,13,0,1,,,,,,,,,,,,,
650ee274aa4447ac435b7830,SCN,2024-06-11_13h19.32.998,LearnStrategy,2023.2.3,Win32,147.0588235,3,1,15,0.244444459,-0.087962963,1,0,0,1.6725,Andesite_11,1,11,3,6,1.673,-0.107407393,-0.252777806,1,0,0,0.7331,Basalt_rect,2,0.733,0,14,0,14,0,1,,,,,,,,,,,,,
650ee274aa4447ac435b7830,SCN,2024-06-11_13h19.32.998,LearnStrategy,2023.2.3,Win32,147.0588235,3,1,16,-0.253703718,0.38148148,1,0,0,3.3211,Pumice_08,8,08,6,3,3.321,-0.128703718,-0.232407393,1,0,0,1.0607,Basalt_rect,2,1.061,0,15,0,15,0,1,,,,,,,,,,,,,
650ee274aa4447ac435b7830,SCN,2024-06-11_13h19.32.998,LearnStrategy,2023.2.3,Win32,147.0588235,3,2,1,,,,,,,,1,02,,,,,,,,,,,2,3.464,0,,,,,,-0.05277775,-0.258333347,1,0,0,3.4638,Basalt_rect,0,0,0,0,1,
650ee274aa4447ac435b7830,SCN,2024-06-11_13h19.32.998,LearnStrategy,2023.2.3,Win32,147.0588235,3,2,2,,,,,,,,2,08,,,,,,,,,,,5,2.078,0,,,,,,-0.362037023,-0.412962949,1,0,0,2.0778,Obsidian_rect,1,0,1,0,1,
650ee274aa4447ac435b7830,SCN,2024-06-11_13h19.32.998,LearnStrategy,2023.2.3,Win32,147.0588235,3,2,3,,,,,,,,7,05,,,,,,,,,,,6,0.579,0,,,,,,-0.152777778,-0.386111153,1,0,0,0.5791,Pegmatite_rect,2,0,2,0,1,
650ee274aa4447ac435b7830,SCN,2024-06-11_13h19.32.998,LearnStrategy,2023.2.3,Win32,147.0588235,3,2,4,,,,,,,,8,16,,,,,,,,,,,7,0.628,0,,,,,,0.080555598,-0.400000042,1,0,0,0.6276,Peridotite_rect,3,0,3,0,1,
650ee274aa4447ac435b7830,SCN,2024-06-11_13h19.32.998,LearnStrategy,2023.2.3,Win32,147.0588235,3,2,5,,,,,,,,3,06,,,,,,,,,,,2,2.017,0,,,,,,-0.087037051,-0.24537037,1,0,0,2.0167,Basalt_rect,4,0,4,0,1,
650ee274aa4447ac435b7830,SCN,2024-06-11_13h19.32.998,LearnStrategy,2023.2.3,Win32,147.0588235,3,2,6,,,,,,,,5,08,,,,,,,,,,,2,0.367,0,,,,,,-0.087962963,-0.243518547,1,0,0,0.3675,Basalt_rect,5,0,5,0,1,
650ee274aa4447ac435b7830,SCN,2024-06-11_13h19.32.998,LearnStrategy,2023.2.3,Win32,147.0588235,3,2,7,,,,,,,,2,04,,,,,,,,,,,1,2.46,0,,,,,,-0.364814794,-0.244444459,1,0,0,2.46,Andesite_rect,6,0,6,0,1,
650ee274aa4447ac435b7830,SCN,2024-06-11_13h19.32.998,LearnStrategy,2023.2.3,Win32,147.0588235,3,2,8,,,,,,,,4,05,,,,,,,,,,,1,1.205,0,,,,,,-0.36296297,-0.246296282,1,0,0,1.205,Andesite_rect,7,0,7,0,1,
650ee274aa4447ac435b7830,SCN,2024-06-11_13h19.32.998,LearnStrategy,2023.2.3,Win32,147.0588235,3,2,9,,,,,,,,4,14,,,,,,,,,,,4,1.674,1,,,,,,0.437962991,-0.26944443,1,0,0,1.6739,Gabbro_rect,8,0,8,0,1,
650ee274aa4447ac435b7830,SCN,2024-06-11_13h19.32.998,LearnStrategy,2023.2.3,Win32,147.0588235,3,2,10,,,,,,,,1,09,,,,,,,,,,,4,0.295,0,,,,,,0.438888974,-0.26944443,1,0,0,0.2945,Gabbro_rect,9,0,9,0,1,
650ee274aa4447ac435b7830,SCN,2024-06-11_13h19.32.998,LearnStrategy,2023.2.3,Win32,147.0588235,3,2,11,,,,,,,,5,12,,,,,,,,,,,8,1.863,0,,,,,,0.350000028,-0.400925954,1,0,0,1.8634,Pumice_rect,10,0,10,0,1,
650ee274aa4447ac435b7830,SCN,2024-06-11_13h19.32.998,LearnStrategy,2023.2.3,Win32,147.0588235,3,2,12,,,,,,,,7,04,,,,,,,,,,,8,2.175,0,,,,,,0.32222225,-0.410185213,1,0,0,2.1754,Pumice_rect,11,0,11,0,1,
650ee274aa4447ac435b7830,SCN,2024-06-11_13h19.32.998,LearnStrategy,2023.2.3,Win32,147.0588235,3,2,13,,,,,,,,8,13,,,,,,,,,,,8,0.511,1,,,,,,0.32222225,-0.410185213,1,0,0,0.5108,Pumice_rect,12,0,12,0,1,
650ee274aa4447ac435b7830,SCN,2024-06-11_13h19.32.998,LearnStrategy,2023.2.3,Win32,147.0588235,3,2,14,,,,,,,,6,06,,,,,,,,,,,8,1.031,0,,,,,,0.32222225,-0.410185213,1,0,0,1.0306,Pumice_rect,13,0,13,0,1,
650ee274aa4447ac435b7830,SCN,2024-06-11_13h19.32.998,LearnStrategy,2023.2.3,Win32,147.0588235,3,2,15,,,,,,,,6,13,,,,,,,,,,,8,0.952,0,,,,,,0.32222225,-0.410185213,1,0,0,0.9524,Pumice_rect,14,0,14,0,1,
650ee274aa4447ac435b7830,SCN,2024-06-11_13h19.32.998,LearnStrategy,2023.2.3,Win32,147.0588235,3,2,16,,,,,,,,3,09,,,,,,,,,,,3,3.219,1,,,,,,0.186111097,-0.248148176,1,0,0,3.2194,Diorite_rect,15,0,15,0,1,
650ee274aa4447ac435b7830,SCN,2024-06-11_13h19.32.998,LearnStrategy,2023.2.3,Win32,147.0588235,4,1,1,-0.208333333,-0.070370392,1,0,0,1.1208,Peridotite_02,7,02,3,3,1.121,-0.138888889,-0.241666653,1,0,0,0.7869,Basalt_rect,2,0.787,0,0,0,0,0,1,,,,,,,,,,,,,
650ee274aa4447ac435b7830,SCN,2024-06-11_13h19.32.998,LearnStrategy,2023.2.3,Win32,147.0588235,4,1,2,0.248148176,-0.089814822,1,0,0,0.8878,Andesite_11,1,11,3,6,0.888,-0.051851838,-0.232407393,1,0,0,1.1456,Basalt_rect,2,1.146,0,1,0,1,0,1,,,,,,,,,,,,,
650ee274aa4447ac435b7830,SCN,2024-06-11_13h19.32.998,LearnStrategy,2023.2.3,Win32,147.0588235,4,1,3,-0.40370369,-0.273148148,1,0,0,0.7911,Basalt_12,2,12,2,2,0.791,-0.195370356,-0.262037065,1,0,0,0.7293,Basalt_rect,2,0.729,1,2,0,2,0,1,,,,,,,,,,,,,
650ee274aa4447ac435b7830,SCN,2024-06-11_13h19.32.998,LearnStrategy,2023.2.3,Win32,147.0588235,4,1,4,-0.371296282,-0.10092594,1,0,0,0.6873,Basalt_02,2,02,3,2,0.687,-0.12962963,-0.25,1,0,0,1.54,Basalt_rect,2,1.54,1,3,0,3,0,1,,,,,,,,,,,,,
650ee274aa4447ac435b7830,SCN,2024-06-11_13h19.32.998,LearnStrategy,2023.2.3,Win32,147.0588235,4,1,5,-0.547222208,-0.396296325,1,0,0,2.1682,Andesite_03,1,03,1,1,2.168,-0.161111125,-0.243518547,1,0,0,0.9518,Basalt_rect,2,0.952,0,4,0,4,0,1,,,,,,,,,,,,,
650ee274aa4447ac435b7830,SCN,2024-06-11_13h19.32.998,LearnStrategy,2023.2.3,Win32,147.0588235,4,1,6,-0.22129631,0.088888875,1,0,0,3.5968,Andesite_10,1,10,4,3,3.597,-0.110185199,-0.239814829,1,0,0,0.9461,Basalt_rect,2,0.946,0,5,0,5,0,1,,,,,,,,,,,,,
650ee274aa4447ac435b7830,SCN,2024-06-11_13h19.32.998,LearnStrategy,2023.2.3,Win32,147.0588235,4,1,7,0.392592677,0.12962963,1,0,0,1.6127,Basalt_11,2,11,4,7,1.613,0.098148134,-0.24537037,1,0,0,0.9341,Diorite_rect,3,0.934,0,6,0,6,0,1,,,,,,,,,,,,,
650ee274aa4447ac435b7830,SCN,2024-06-11_13h19.32.998,LearnStrategy,2023.2.3,Win32,147.0588235,4,1,8,-0.577777757,0.081481474,1,0,0,9.9185,Diorite_02,3,02,4,1,9.918,-0.348148134,-0.266666695,1,0,0,1.5608,Andesite_rect,1,1.561,0,7,0,7,0,1,,,,,,,,,,,,,
650ee274aa4447ac435b7830,SCN,2024-06-11_13h19.32.998,LearnStrategy,2023.2.3,Win32,147.0588235,4,1,9,-0.542592578,0.248148141,1,0,0,0.915,Peridotite_07,7,07,5,1,0.915,0.14907406,-0.26944443,1,0,0,1.7295,Diorite_rect,3,1.73,0,8,0,8,0,1,,,,,,,,,,,,,
650ee274aa4447ac435b7830,SCN,2024-06-11_13h19.32.998,LearnStrategy,2023.2.3,Win32,147.0588235,4,1,10,-0.086111069,-0.081481474,1,0,0,0.6035,Andesite_04,1,04,3,4,0.604,0.339814787,-0.256481524,1,0,0,3.5445,Gabbro_rect,4,3.544,0,9,0,9,0,1,,,,,,,,,,,,,
650ee274aa4447ac435b7830,SCN,2024-06-11_13h19.32.998,LearnStrategy,2023.2.3,Win32,147.0588235,4,1,11,-0.433333326,0.43796296,1,0,0,1.3243,Andesite_14,1,14,6,2,1.324,0.077777792,-0.239814829,1,0,0,1.9605,Diorite_rect,3,1.96,0,10,0,10,0,1,,,,,,,,,,,,,
650ee274aa4447ac435b7830,SCN,2024-06-11_13h19.32.998,LearnStrategy,2023.2.3,Win32,147.0588235,4,1,12,0.065740727,-0.116666653,1,0,0,1.422,Gabbro_13,4,13,3,5,1.422,-0.325925933,-0.385185171,1,0,0,1.4118,Obsidian_rect,5,1.412,0,11,0,11,0,1,,,,,,,,,,,,,
650ee274aa4447ac435b7830,SCN,2024-06-11_13h19.32.998,LearnStrategy,2023.2.3,Win32,147.0588235,4,1,13,-0.558333326,-0.082407422,1,0,0,0.9341,Obsidian_14,5,14,3,1,0.934,-0.35833334,-0.258333347,1,0,0,1.9126,Andesite_rect,1,1.913,0,12,0,12,0,1,,,,,,,,,,,,,
650ee274aa4447ac435b7830,SCN,2024-06-11_13h19.32.998,LearnStrategy,2023.2.3,Win32,147.0588235,4,1,14,-0.103703675,-0.115740741,1,0,0,0.8466,Andesite_04,1,04,3,4,0.847,0.037962949,-0.255555541,1,0,0,0.852,Diorite_rect,3,0.852,0,13,0,13,0,1,,,,,,,,,,,,,
650ee274aa4447ac435b7830,SCN,2024-06-11_13h19.32.998,LearnStrategy,2023.2.3,Win32,147.0588235,4,1,15,-0.375,0.1175926,1,0,0,0.888,Peridotite_16,7,16,4,2,0.888,-0.137036995,-0.255555541,1,0,0,0.8222,Basalt_rect,2,0.822,0,14,0,14,0,1,,,,,,,,,,,,,
650ee274aa4447ac435b7830,SCN,2024-06-11_13h19.32.998,LearnStrategy,2023.2.3,Win32,147.0588235,4,1,16,-0.088888875,0.096296275,1,0,0,1.2421,Gabbro_10,4,10,4,4,1.242,-0.351851852,-0.259259259,1,0,0,2.3903,Andesite_rect,1,2.39,0,15,0,15,0,1,,,,,,,,,,,,,
650ee274aa4447ac435b7830,SCN,2024-06-11_13h19.32.998,LearnStrategy,2023.2.3,Win32,147.0588235,4,2,1,,,,,,,,3,11,,,,,,,,,,,2,5.119,0,,,,,,-0.165740755,-0.260185171,1,0,0,5.1192,Basalt_rect,0,0,0,0,1,
650ee274aa4447ac435b7830,SCN,2024-06-11_13h19.32.998,LearnStrategy,2023.2.3,Win32,147.0588235,4,2,2,,,,,,,,2,04,,,,,,,,,,,2,0.908,1,,,,,,-0.106481481,-0.247222265,1,0,0,0.9076,Basalt_rect,1,0,1,0,1,
650ee274aa4447ac435b7830,SCN,2024-06-11_13h19.32.998,LearnStrategy,2023.2.3,Win32,147.0588235,4,2,3,,,,,,,,1,02,,,,,,,,,,,2,0.275,0,,,,,,-0.106481481,-0.247222265,1,0,0,0.2754,Basalt_rect,2,0,2,0,1,
650ee274aa4447ac435b7830,SCN,2024-06-11_13h19.32.998,LearnStrategy,2023.2.3,Win32,147.0588235,4,2,4,,,,,,,,4,09,,,,,,,,,,,2,0.301,0,,,,,,-0.106481481,-0.247222265,1,0,0,0.3012,Basalt_rect,3,0,3,0,1,
650ee274aa4447ac435b7830,SCN,2024-06-11_13h19.32.998,LearnStrategy,2023.2.3,Win32,147.0588235,4,2,5,,,,,,,,2,08,,,,,,,,,,,3,0.758,0,,,,,,0.112037023,-0.259259259,1,0,0,0.7576,Diorite_rect,4,0,4,0,1,
650ee274aa4447ac435b7830,SCN,2024-06-11_13h19.32.998,LearnStrategy,2023.2.3,Win32,147.0588235,4,2,6,,,,,,,,6,12,,,,,,,,,,,3,0.244,0,,,,,,0.112037023,-0.259259259,1,0,0,0.2437,Diorite_rect,5,0,5,0,1,
650ee274aa4447ac435b7830,SCN,2024-06-11_13h19.32.998,LearnStrategy,2023.2.3,Win32,147.0588235,4,2,7,,,,,,,,4,03,,,,,,,,,,,3,0.249,0,,,,,,0.112037023,-0.259259259,1,0,0,0.2492,Diorite_rect,6,0,6,0,1,
650ee274aa4447ac435b7830,SCN,2024-06-11_13h19.32.998,LearnStrategy,2023.2.3,Win32,147.0588235,4,2,8,,,,,,,,8,06,,,,,,,,,,,5,0.473,0,,,,,,-0.375925912,-0.396296325,1,0,0,0.4732,Obsidian_rect,7,0,7,0,1,
650ee274aa4447ac435b7830,SCN,2024-06-11_13h19.32.998,LearnStrategy,2023.2.3,Win32,147.0588235,4,2,9,,,,,,,,3,15,,,,,,,,,,,1,1.5,0,,,,,,-0.35833334,-0.258333347,1,0,0,1.5002,Andesite_rect,8,0,8,0,1,
650ee274aa4447ac435b7830,SCN,2024-06-11_13h19.32.998,LearnStrategy,2023.2.3,Win32,147.0588235,4,2,10,,,,,,,,8,04,,,,,,,,,,,1,0.223,0,,,,,,-0.35833334,-0.257407436,1,0,0,0.223,Andesite_rect,9,0,9,0,1,
650ee274aa4447ac435b7830,SCN,2024-06-11_13h19.32.998,LearnStrategy,2023.2.3,Win32,147.0588235,4,2,11,,,,,,,,5,07,,,,,,,,,,,6,1.017,0,,,,,,-0.135185171,-0.390740783,1,0,0,1.017,Pegmatite_rect,10,0,10,0,1,
650ee274aa4447ac435b7830,SCN,2024-06-11_13h19.32.998,LearnStrategy,2023.2.3,Win32,147.0588235,4,2,12,,,,,,,,7,05,,,,,,,,,,,6,0.124,0,,,,,,-0.135185171,-0.390740783,1,0,0,0.1236,Pegmatite_rect,11,0,11,0,1,
650ee274aa4447ac435b7830,SCN,2024-06-11_13h19.32.998,LearnStrategy,2023.2.3,Win32,147.0588235,4,2,13,,,,,,,,7,15,,,,,,,,,,,7,0.554,1,,,,,,0.095370399,-0.405555584,1,0,0,0.554,Peridotite_rect,12,0,12,0,1,
650ee274aa4447ac435b7830,SCN,2024-06-11_13h19.32.998,LearnStrategy,2023.2.3,Win32,147.0588235,4,2,14,,,,,,,,6,13,,,,,,,,,,,7,0.281,0,,,,,,0.094444487,-0.400000042,1,0,0,0.2807,Peridotite_rect,13,0,13,0,1,
650ee274aa4447ac435b7830,SCN,2024-06-11_13h19.32.998,LearnStrategy,2023.2.3,Win32,147.0588235,4,2,15,,,,,,,,1,05,,,,,,,,,,,8,1.12,0,,,,,,0.374074159,-0.402777778,1,0,0,1.1202,Pumice_rect,14,0,14,0,1,
650ee274aa4447ac435b7830,SCN,2024-06-11_13h19.32.998,LearnStrategy,2023.2.3,Win32,147.0588235,4,2,16,,,,,,,,5,11,,,,,,,,,,,8,0.289,0,,,,,,0.372222194,-0.37962963,1,0,0,0.289,Pumice_rect,15,0,15,0,1,
650ee274aa4447ac435b7830,SCN,2024-06-11_13h19.32.998,LearnStrategy,2023.2.3,Win32,147.0588235,5,1,1,-0.41111109,0.11296297,1,0,0,1.2978,Peridotite_16,7,16,4,2,1.298,-0.362037023,-0.242592635,1,0,0,0.9396,Andesite_rect,1,0.94,0,0,0,0,0,1,,,,,,,,,,,,,
650ee274aa4447ac435b7830,SCN,2024-06-11_13h19.32.998,LearnStrategy,2023.2.3,Win32,147.0588235,5,1,2,0.066666709,-0.124074088,1,0,0,0.6108,Gabbro_13,4,13,3,5,0.611,0.114814829,-0.262962977,1,0,0,0.7791,Diorite_rect,3,0.779,0,1,0,1,0,1,,,,,,,,,,,,,
650ee274aa4447ac435b7830,SCN,2024-06-11_13h19.32.998,LearnStrategy,2023.2.3,Win32,147.0588235,5,1,3,-0.050925926,-0.086111104,1,0,0,0.7983,Andesite_04,1,04,3,4,0.798,-0.026851866,-0.260185171,1,0,0,0.7512,Basalt_rect,2,0.751,0,2,0,2,0,1,,,,,,,,,,,,,
650ee274aa4447ac435b7830,SCN,2024-06-11_13h19.32.998,LearnStrategy,2023.2.3,Win32,147.0588235,5,1,4,-0.39166666,0.286111108,1,0,0,1.4021,Pumice_14,8,14,5,2,1.402,-0.051851838,-0.247222265,1,0,0,1.2515,Basalt_rect,2,1.252,0,3,0,3,0,1,,,,,,,,,,,,,
650ee274aa4447ac435b7830,SCN,2024-06-11_13h19.32.998,LearnStrategy,2023.2.3,Win32,147.0588235,5,1,5,-0.566666674,0.060185185,1,0,0,0.9572,Diorite_02,3,02,4,1,0.957,-0.363888882,-0.239814829,1,0,0,3.5167,Andesite_rect,1,3.517,0,4,0,4,0,1,,,,,,,,,,,,,
650ee274aa4447ac435b7830,SCN,2024-06-11_13h19.32.998,LearnStrategy,2023.2.3,Win32,147.0588235,5,1,6,-0.584259245,0.263888889,1,0,0,1.7141,Peridotite_07,7,07,5,1,1.714,-0.373148141,-0.257407436,1,0,0,1.4495,Andesite_rect,1,1.449,0,5,0,5,0,1,,,,,,,,,,,,,
650ee274aa4447ac435b7830,SCN,2024-06-11_13h19.32.998,LearnStrategy,2023.2.3,Win32,147.0588235,5,1,7,-0.601851852,-0.12037037,1,0,0,1.7654,Obsidian_14,5,14,3,1,1.765,-0.40648146,-0.228703746,1,0,0,1.6208,Andesite_rect,1,1.621,0,6,0,6,0,1,,,,,,,,,,,,,
650ee274aa4447ac435b7830,SCN,2024-06-11_13h19.32.998,LearnStrategy,2023.2.3,Win32,147.0588235,5,1,8,-0.087962963,-0.094444487,1,0,0,1.9703,Andesite_04,1,04,3,4,1.97,-0.106481481,-0.228703746,1,0,0,1.519,Basalt_rect,2,1.519,0,7,0,7,0,1,,,,,,,,,,,,,
650ee274aa4447ac435b7830,SCN,2024-06-11_13h19.32.998,LearnStrategy,2023.2.3,Win32,147.0588235,5,1,9,-0.075925898,0.262962959,1,0,0,2.2659,Obsidian_16,5,16,5,4,2.266,-0.39166666,-0.237037023,1,0,0,1.1257,Andesite_rect,1,1.126,0,8,0,8,0,1,,,,,,,,,,,,,
650ee274aa4447ac435b7830,SCN,2024-06-11_13h19.32.998,LearnStrategy,2023.2.3,Win32,147.0588235,5,1,10,-0.425925926,-0.426851838,1,0,0,1.9625,Obsidian_04,5,04,1,2,1.963,-0.133333347,-0.396296325,1,0,0,0.9114,Pegmatite_rect,6,0.911,0,9,0,9,0,1,,,,,,,,,,,,,
650ee274aa4447ac435b7830,SCN,2024-06-11_13h19.32.998,LearnStrategy,2023.2.3,Win32,147.0588235,5,1,11,-0.071296268,-0.050925926,1,0,0,0.6778,Andesite_04,1,04,3,4,0.678,-0.17777775,-0.253703718,1,0,0,1.1346,Basalt_rect,2,1.135,0,10,0,10,0,1,,,,,,,,,,,,,
650ee274aa4447ac435b7830,SCN,2024-06-11_13h19.32.998,LearnStrategy,2023.2.3,Win32,147.0588235,5,1,12,-0.342592593,-0.113888917,1,0,0,0.6653,Basalt_02,2,02,3,2,0.665,-0.124074088,-0.234259288,1,0,0,2.2891,Basalt_rect,2,2.289,1,11,0,11,0,1,,,,,,,,,,,,,
650ee274aa4447ac435b7830,SCN,2024-06-11_13h19.32.998,LearnStrategy,2023.2.3,Win32,147.0588235,5,1,13,-0.384259259,-0.243518547,1,0,0,0.7789,Basalt_12,2,12,2,2,0.779,-0.14907406,-0.251851894,1,0,0,0.6313,Basalt_rect,2,0.631,1,12,0,12,0,1,,,,,,,,,,,,,
650ee274aa4447ac435b7830,SCN,2024-06-11_13h19.32.998,LearnStrategy,2023.2.3,Win32,147.0588235,5,1,14,-0.537962949,0.11296297,1,0,0,1.4033,Diorite_02,3,02,4,1,1.403,-0.365740741,-0.25,1,0,0,1.2117,Andesite_rect,1,1.212,0,13,0,13,0,1,,,,,,,,,,,,,
650ee274aa4447ac435b7830,SCN,2024-06-11_13h19.32.998,LearnStrategy,2023.2.3,Win32,147.0588235,5,1,15,-0.527777778,0.259259259,1,0,0,11.9916,Peridotite_07,7,07,5,1,11.992,-0.349074081,-0.263888889,1,0,0,0.808,Andesite_rect,1,0.808,0,14,0,14,0,1,,,,,,,,,,,,,
650ee274aa4447ac435b7830,SCN,2024-06-11_13h19.32.998,LearnStrategy,2023.2.3,Win32,147.0588235,5,1,16,-0.064814815,0.071296303,1,0,0,0.8874,Gabbro_10,4,10,4,4,0.887,0.337962963,-0.247222265,1,0,0,1.6216,Gabbro_rect,4,1.622,1,15,0,15,0,1,,,,,,,,,,,,,
650ee274aa4447ac435b7830,SCN,2024-06-11_13h19.32.998,LearnStrategy,2023.2.3,Win32,147.0588235,5,2,1,,,,,,,,8,02,,,,,,,,,,,3,4.524,0,,,,,,0.114814829,-0.239814829,1,0,0,4.5235,Diorite_rect,0,0,0,0,1,
650ee274aa4447ac435b7830,SCN,2024-06-11_13h19.32.998,LearnStrategy,2023.2.3,Win32,147.0588235,5,2,2,,,,,,,,3,06,,,,,,,,,,,3,0.545,1,,,,,,0.117592635,-0.244444459,1,0,0,0.5449,Diorite_rect,1,0,1,0,1,
650ee274aa4447ac435b7830,SCN,2024-06-11_13h19.32.998,LearnStrategy,2023.2.3,Win32,147.0588235,5,2,3,,,,,,,,6,05,,,,,,,,,,,3,0.33,0,,,,,,0.117592635,-0.244444459,1,0,0,0.3295,Diorite_rect,2,0,2,0,1,
650ee274aa4447ac435b7830,SCN,2024-06-11_13h19.32.998,LearnStrategy,2023.2.3,Win32,147.0588235,5,2,4,,,,,,,,4,01,,,,,,,,,,,3,0.648,0,,,,,,0.117592635,-0.244444459,1,0,0,0.6477,Diorite_rect,3,0,3,0,1,
650ee274aa4447ac435b7830,SCN,2024-06-11_13h19.32.998,LearnStrategy,2023.2.3,Win32,147.0588235,5,2,5,,,,,,,,7,10,,,,,,,,,,,3,0.416,0,,,,,,0.117592635,-0.244444459,1,0,0,0.4163,Diorite_rect,4,0,4,0,1,
650ee274aa4447ac435b7830,SCN,2024-06-11_13h19.32.998,LearnStrategy,2023.2.3,Win32,147.0588235,5,2,6,,,,,,,,5,12,,,,,,,,,,,4,0.33,0,,,,,,0.357407464,-0.252777806,1,0,0,0.3299,Gabbro_rect,5,0,5,0,1,
650ee274aa4447ac435b7830,SCN,2024-06-11_13h19.32.998,LearnStrategy,2023.2.3,Win32,147.0588235,5,2,7,,,,,,,,1,16,,,,,,,,,,,1,2.362,1,,,,,,-0.335185192,-0.24537037,1,0,0,2.362,Andesite_rect,6,0,6,0,1,
650ee274aa4447ac435b7830,SCN,2024-06-11_13h19.32.998,LearnStrategy,2023.2.3,Win32,147.0588235,5,2,8,,,,,,,,3,07,,,,,,,,,,,1,0.752,0,,,,,,-0.335185192,-0.24537037,1,0,0,0.7517,Andesite_rect,7,0,7,0,1,
650ee274aa4447ac435b7830,SCN,2024-06-11_13h19.32.998,LearnStrategy,2023.2.3,Win32,147.0588235,5,2,9,,,,,,,,2,05,,,,,,,,,,,1,0.674,0,,,,,,-0.335185192,-0.24537037,1,0,0,0.6744,Andesite_rect,8,0,8,0,1,
650ee274aa4447ac435b7830,SCN,2024-06-11_13h19.32.998,LearnStrategy,2023.2.3,Win32,147.0588235,5,2,10,,,,,,,,7,13,,,,,,,,,,,5,1.948,0,,,,,,-0.354629623,-0.386111153,1,0,0,1.9479,Obsidian_rect,9,0,9,0,1,
650ee274aa4447ac435b7830,SCN,2024-06-11_13h19.32.998,LearnStrategy,2023.2.3,Win32,147.0588235,5,2,11,,,,,,,,4,05,,,,,,,,,,,5,0.594,0,,,,,,-0.354629623,-0.386111153,1,0,0,0.5945,Obsidian_rect,10,0,10,0,1,
650ee274aa4447ac435b7830,SCN,2024-06-11_13h19.32.998,LearnStrategy,2023.2.3,Win32,147.0588235,5,2,12,,,,,,,,8,15,,,,,,,,,,,6,1.226,0,,,,,,-0.125925912,-0.396296325,1,0,0,1.2259,Pegmatite_rect,11,0,11,0,1,
650ee274aa4447ac435b7830,SCN,2024-06-11_13h19.32.998,LearnStrategy,2023.2.3,Win32,147.0588235,5,2,13,,,,,,,,5,10,,,,,,,,,,,7,1.008,0,,,,,,0.098148134,-0.39907406,1,0,0,1.0077,Peridotite_rect,12,0,12,0,1,
650ee274aa4447ac435b7830,SCN,2024-06-11_13h19.32.998,LearnStrategy,2023.2.3,Win32,147.0588235,5,2,14,,,,,,,,2,09,,,,,,,,,,,7,0.336,0,,,,,,0.098148134,-0.39907406,1,0,0,0.3356,Peridotite_rect,13,0,13,0,1,
650ee274aa4447ac435b7830,SCN,2024-06-11_13h19.32.998,LearnStrategy,2023.2.3,Win32,147.0588235,5,2,15,,,,,,,,6,16,,,,,,,,,,,8,1.133,0,,,,,,0.337037122,-0.414814843,1,0,0,1.1327,Pumice_rect,14,0,14,0,1,
650ee274aa4447ac435b7830,SCN,2024-06-11_13h19.32.998,LearnStrategy,2023.2.3,Win32,147.0588235,5,2,16,,,,,,,,1,06,,,,,,,,,,,8,0.505,0,,,,,,0.337037122,-0.414814843,1,0,0,0.5045,Pumice_rect,15,0,15,0,1,
650ee274aa4447ac435b7830,SCN,2024-06-11_13h19.32.998,LearnStrategy,2023.2.3,Win32,147.0588235,6,1,1,-0.064814815,0.2462963,1,0,0,8.8038,Obsidian_16,5,16,5,4,8.804,-0.371296282,-0.243518547,1,0,0,1.3381,Andesite_rect,1,1.338,0,0,0,0,0,1,,,,,,,,,,,,,
650ee274aa4447ac435b7830,SCN,2024-06-11_13h19.32.998,LearnStrategy,2023.2.3,Win32,147.0588235,6,1,2,-0.375,0.075925933,1,0,0,1.0969,Peridotite_16,7,16,4,2,1.097,-0.354629623,-0.387962977,1,0,0,6.9492,Obsidian_rect,5,6.949,0,1,0,1,0,1,,,,,,,,,,,,,
650ee274aa4447ac435b7830,SCN,2024-06-11_13h19.32.998,LearnStrategy,2023.2.3,Win32,147.0588235,6,1,3,-0.372222229,-0.095370399,1,0,0,1.7927,Basalt_02,2,02,3,2,1.793,-0.15370369,-0.232407393,1,0,0,0.8944,Basalt_rect,2,0.894,1,2,0,2,0,1,,,,,,,,,,,,,
650ee274aa4447ac435b7830,SCN,2024-06-11_13h19.32.998,LearnStrategy,2023.2.3,Win32,147.0588235,6,1,4,-0.375925912,-0.227777764,1,0,0,0.9292,Basalt_12,2,12,2,2,0.929,-0.102777764,-0.24537037,1,0,0,1.5408,Basalt_rect,2,1.541,1,3,0,3,0,1,,,,,,,,,,,,,
650ee274aa4447ac435b7830,SCN,2024-06-11_13h19.32.998,LearnStrategy,2023.2.3,Win32,147.0588235,6,1,5,-0.068518533,-0.08888891,1,0,0,2.7275,Andesite_04,1,04,3,4,2.727,0.123148176,-0.262962977,1,0,0,1.06,Diorite_rect,3,1.06,0,4,0,4,0,1,,,,,,,,,,,,,
650ee274aa4447ac435b7830,SCN,2024-06-11_13h19.32.998,LearnStrategy,2023.2.3,Win32,147.0588235,6,1,6,-0.573148127,0.133333312,1,0,0,2.4381,Diorite_02,3,02,4,1,2.438,-0.374074053,-0.258333347,1,0,0,1.5881,Andesite_rect,1,1.588,0,5,0,5,0,1,,,,,,,,,,,,,
650ee274aa4447ac435b7830,SCN,2024-06-11_13h19.32.998,LearnStrategy,2023.2.3,Win32,147.0588235,6,1,7,-0.557407414,0.275925919,1,0,0,1.3619,Peridotite_07,7,07,5,1,1.362,-0.354629623,-0.236111111,1,0,0,2.3322,Andesite_rect,1,2.332,0,6,0,6,0,1,,,,,,,,,,,,,
650ee274aa4447ac435b7830,SCN,2024-06-11_13h19.32.998,LearnStrategy,2023.2.3,Win32,147.0588235,6,1,8,0.224074116,0.2574074,1,0,0,3.7829,Gabbro_11,4,11,5,6,3.783,0.067592621,-0.252777806,1,0,0,1.9404,Diorite_rect,3,1.94,0,7,0,7,0,1,,,,,,,,,,,,,
650ee274aa4447ac435b7830,SCN,2024-06-11_13h19.32.998,LearnStrategy,2023.2.3,Win32,147.0588235,6,1,9,-0.556481467,0.410185187,1,0,0,1.7562,Diorite_16,3,16,6,1,1.756,-0.352777764,-0.397222236,1,0,0,2.0556,Obsidian_rect,5,2.056,0,8,0,8,0,1,,,,,,,,,,,,,
650ee274aa4447ac435b7830,SCN,2024-06-11_13h19.32.998,LearnStrategy,2023.2.3,Win32,147.0588235,6,1,10,-0.400925919,-0.400000042,1,0,0,8.3465,Obsidian_04,5,04,1,2,8.347,-0.37962963,-0.271296325,1,0,0,0.7927,Andesite_rect,1,0.793,0,9,0,9,0,1,,,,,,,,,,,,,
650ee274aa4447ac435b7830,SCN,2024-06-11_13h19.32.998,LearnStrategy,2023.2.3,Win32,147.0588235,6,1,11,-0.35833334,-0.126851894,1,0,0,15.7891,Basalt_02,2,02,3,2,15.789,-0.107407393,-0.247222265,1,0,0,0.6882,Basalt_rect,2,0.688,1,10,0,10,0,1,,,,,,,,,,,,,
650ee274aa4447ac435b7830,SCN,2024-06-11_13h19.32.998,LearnStrategy,2023.2.3,Win32,147.0588235,6,1,12,-0.371296282,-0.233333376,1,0,0,0.7513,Basalt_12,2,12,2,2,0.751,-0.14444443,-0.229629658,1,0,0,0.6928,Basalt_rect,2,0.693,1,11,0,11,0,1,,,,,,,,,,,,,
650ee274aa4447ac435b7830,SCN,2024-06-11_13h19.32.998,LearnStrategy,2023.2.3,Win32,147.0588235,6,1,13,0.110185199,-0.08425928,1,0,0,1.2248,Gabbro_13,4,13,3,5,1.225,0.349074046,-0.258333347,1,0,0,1.861,Gabbro_rect,4,1.861,1,12,0,12,0,1,,,,,,,,,,,,,
650ee274aa4447ac435b7830,SCN,2024-06-11_13h19.32.998,LearnStrategy,2023.2.3,Win32,147.0588235,6,1,14,0.586111139,-0.114814829,1,0,0,1.4637,Peridotite_12,7,12,3,8,1.464,0.443518603,-0.248148176,1,0,0,0.7467,Gabbro_rect,4,0.747,0,13,0,13,0,1,,,,,,,,,,,,,
650ee274aa4447ac435b7830,SCN,2024-06-11_13h19.32.998,LearnStrategy,2023.2.3,Win32,147.0588235,6,1,15,0.079629616,-0.43240745,1,0,0,2.2779,Pegmatite_07,6,07,1,5,2.278,0.176851838,-0.391666695,1,0,0,1.5746,Peridotite_rect,7,1.575,0,14,0,14,0,1,,,,,,,,,,,,,
650ee274aa4447ac435b7830,SCN,2024-06-11_13h19.32.998,LearnStrategy,2023.2.3,Win32,147.0588235,6,1,16,0.412037037,-0.255555541,1,0,0,1.0752,Diorite_08,3,08,2,7,1.075,0.150925954,-0.258333347,1,0,0,0.6703,Diorite_rect,3,0.67,1,15,0,15,0,1,,,,,,,,,,,,,
650ee274aa4447ac435b7830,SCN,2024-06-11_13h19.32.998,LearnStrategy,2023.2.3,Win32,147.0588235,6,2,1,,,,,,,,7,04,,,,,,,,,,,5,1.487,0,,,,,,-0.409259266,-0.398148148,1,0,0,1.487,Obsidian_rect,0,0,0,0,1,
650ee274aa4447ac435b7830,SCN,2024-06-11_13h19.32.998,LearnStrategy,2023.2.3,Win32,147.0588235,6,2,2,,,,,,,,3,09,,,,,,,,,,,3,2.864,1,,,,,,0.123148176,-0.244444459,1,0,0,2.8643,Diorite_rect,1,0,1,0,1,
650ee274aa4447ac435b7830,SCN,2024-06-11_13h19.32.998,LearnStrategy,2023.2.3,Win32,147.0588235,6,2,3,,,,,,,,1,07,,,,,,,,,,,7,3.531,0,,,,,,0.073148162,-0.387962977,1,0,0,3.5311,Peridotite_rect,2,0,2,0,1,
650ee274aa4447ac435b7830,SCN,2024-06-11_13h19.32.998,LearnStrategy,2023.2.3,Win32,147.0588235,6,2,4,,,,,,,,7,14,,,,,,,,,,,7,0.562,1,,,,,,0.073148162,-0.387962977,1,0,0,0.5618,Peridotite_rect,3,0,3,0,1,
650ee274aa4447ac435b7830,SCN,2024-06-11_13h19.32.998,LearnStrategy,2023.2.3,Win32,147.0588235,6,2,5,,,,,,,,8,16,,,,,,,,,,,7,0.56,0,,,,,,0.073148162,-0.387962977,1,0,0,0.5598,Peridotite_rect,4,0,4,0,1,
650ee274aa4447ac435b7830,SCN,2024-06-11_13h19.32.998,LearnStrategy,2023.2.3,Win32,147.0588235,6,2,6,,,,,,,,4,16,,,,,,,,,,,2,1.088,0,,,,,,-0.190740727,-0.238888917,1,0,0,1.0882,Basalt_rect,5,0,5,0,1,
650ee274aa4447ac435b7830,SCN,2024-06-11_13h19.32.998,LearnStrategy,2023.2.3,Win32,147.0588235,6,2,7,,,,,,,,6,10,,,,,,,,,,,1,1.88,0,,,,,,-0.344444452,-0.235185199,1,0,0,1.8799,Andesite_rect,6,0,6,0,1,
650ee274aa4447ac435b7830,SCN,2024-06-11_13h19.32.998,LearnStrategy,2023.2.3,Win32,147.0588235,6,2,8,,,,,,,,2,10,,,,,,,,,,,1,0.582,0,,,,,,-0.341666645,-0.262962977,1,0,0,0.5824,Andesite_rect,7,0,7,0,1,
650ee274aa4447ac435b7830,SCN,2024-06-11_13h19.32.998,LearnStrategy,2023.2.3,Win32,147.0588235,6,2,9,,,,,,,,8,13,,,,,,,,,,,3,0.807,0,,,,,,0.065740727,-0.270370413,1,0,0,0.8074,Diorite_rect,8,0,8,0,1,
650ee274aa4447ac435b7830,SCN,2024-06-11_13h19.32.998,LearnStrategy,2023.2.3,Win32,147.0588235,6,2,10,,,,,,,,5,09,,,,,,,,,,,1,1.541,0,,,,,,-0.422222208,-0.239814829,1,0,0,1.541,Andesite_rect,9,0,9,0,1,
650ee274aa4447ac435b7830,SCN,2024-06-11_13h19.32.998,LearnStrategy,2023.2.3,Win32,147.0588235,6,2,11,,,,,,,,2,14,,,,,,,,,,,5,1.115,0,,,,,,-0.364814794,-0.381481524,1,0,0,1.1147,Obsidian_rect,10,0,10,0,1,
650ee274aa4447ac435b7830,SCN,2024-06-11_13h19.32.998,LearnStrategy,2023.2.3,Win32,147.0588235,6,2,12,,,,,,,,1,09,,,,,,,,,,,5,0.585,0,,,,,,-0.364814794,-0.381481524,1,0,0,0.5854,Obsidian_rect,11,0,11,0,1,
650ee274aa4447ac435b7830,SCN,2024-06-11_13h19.32.998,LearnStrategy,2023.2.3,Win32,147.0588235,6,2,13,,,,,,,,4,14,,,,,,,,,,,5,0.483,0,,,,,,-0.364814794,-0.383333347,1,0,0,0.4828,Obsidian_rect,12,0,12,0,1,
650ee274aa4447ac435b7830,SCN,2024-06-11_13h19.32.998,LearnStrategy,2023.2.3,Win32,147.0588235,6,2,14,,,,,,,,3,10,,,,,,,,,,,2,0.707,0,,,,,,-0.152777778,-0.246296282,1,0,0,0.7072,Basalt_rect,13,0,13,0,1,
650ee274aa4447ac435b7830,SCN,2024-06-11_13h19.32.998,LearnStrategy,2023.2.3,Win32,147.0588235,6,2,15,,,,,,,,5,08,,,,,,,,,,,3,0.354,0,,,,,,0.062962991,-0.233333376,1,0,0,0.3543,Diorite_rect,14,0,14,0,1,
650ee274aa4447ac435b7830,SCN,2024-06-11_13h19.32.998,LearnStrategy,2023.2.3,Win32,147.0588235,6,2,16,,,,,,,,6,06,,,,,,,,,,,1,1.648,0,,,,,,-0.345370363,-0.238888917,1,0,0,1.6477,Andesite_rect,15,0,15,0,1,
650ee274aa4447ac435b7830,SCN,2024-06-11_13h19.32.998,LearnStrategy,2023.2.3,Win32,147.0588235,7,1,1,-0.068518533,0.066666674,1,0,0,1.6239,Gabbro_10,4,10,4,4,1.624,-0.124074088,-0.259259259,1,0,0,0.9183,Basalt_rect,2,0.918,0,0,0,0,0,1,,,,,,,,,,,,,
650ee274aa4447ac435b7830,SCN,2024-06-11_13h19.32.998,LearnStrategy,2023.2.3,Win32,147.0588235,7,1,2,-0.400000007,-0.286111125,1,0,0,1.6089,Basalt_12,2,12,2,2,1.609,-0.190740727,-0.260185171,1,0,0,0.6965,Basalt_rect,2,0.697,1,1,0,1,0,1,,,,,,,,,,,,,
650ee274aa4447ac435b7830,SCN,2024-06-11_13h19.32.998,LearnStrategy,2023.2.3,Win32,147.0588235,7,1,3,-0.412037037,-0.078703704,1,0,0,0.7159,Basalt_02,2,02,3,2,0.716,-0.171296296,-0.268518519,1,0,0,1.3297,Basalt_rect,2,1.33,1,2,0,2,0,1,,,,,,,,,,,,,
650ee274aa4447ac435b7830,SCN,2024-06-11_13h19.32.998,LearnStrategy,2023.2.3,Win32,147.0588235,7,1,4,0.529629601,-0.100000028,1,0,0,2.3103,Peridotite_12,7,12,3,8,2.31,0.425000085,-0.248148176,1,0,0,1.4696,Gabbro_rect,4,1.47,0,3,0,3,0,1,,,,,,,,,,,,,
650ee274aa4447ac435b7830,SCN,2024-06-11_13h19.32.998,LearnStrategy,2023.2.3,Win32,147.0588235,7,1,5,0.125925912,-0.239814829,1,0,0,3.59,Pegmatite_09,6,09,2,5,3.59,0.384259259,-0.257407436,1,0,0,0.601,Gabbro_rect,4,0.601,0,4,0,4,0,1,,,,,,,,,,,,,
650ee274aa4447ac435b7830,SCN,2024-06-11_13h19.32.998,LearnStrategy,2023.2.3,Win32,147.0588235,7,1,6,0.369444529,-0.242592635,1,0,0,1.4635,Diorite_08,3,08,2,7,1.463,0.375,-0.247222265,1,0,0,1.5274,Gabbro_rect,4,1.527,0,5,0,5,0,1,,,,,,,,,,,,,
650ee274aa4447ac435b7830,SCN,2024-06-11_13h19.32.998,LearnStrategy,2023.2.3,Win32,147.0588235,7,1,7,0.223148134,-0.286111125,1,0,0,0.8343,Diorite_14,3,14,2,6,0.834,0.167592578,-0.268518519,1,0,0,0.6319,Diorite_rect,3,0.632,1,6,0,6,0,1,,,,,,,,,,,,,
650ee274aa4447ac435b7830,SCN,2024-06-11_13h19.32.998,LearnStrategy,2023.2.3,Win32,147.0588235,7,1,8,0.038888931,-0.072222215,1,0,0,1.0678,Gabbro_13,4,13,3,5,1.068,-0.104629587,-0.233333376,1,0,0,0.634,Basalt_rect,2,0.634,0,7,0,7,0,1,,,,,,,,,,,,,
650ee274aa4447ac435b7830,SCN,2024-06-11_13h19.32.998,LearnStrategy,2023.2.3,Win32,147.0588235,7,1,9,-0.239814829,0.2462963,1,0,0,0.8386,Andesite_01,1,01,5,3,0.839,-0.352777764,-0.25,1,0,0,1.0786,Andesite_rect,1,1.079,1,8,0,8,0,1,,,,,,,,,,,,,
650ee274aa4447ac435b7830,SCN,2024-06-11_13h19.32.998,LearnStrategy,2023.2.3,Win32,147.0588235,7,1,10,0.546296296,0.419444446,1,0,0,1.6455,Peridotite_08,7,08,6,8,1.646,-0.375925912,-0.409259302,1,0,0,1.6104,Obsidian_rect,5,1.61,0,9,0,9,0,1,,,,,,,,,,,,,
650ee274aa4447ac435b7830,SCN,2024-06-11_13h19.32.998,LearnStrategy,2023.2.3,Win32,147.0588235,7,1,11,-0.250925912,0.393518519,1,0,0,2.1662,Pumice_08,8,08,6,3,2.166,0.333333333,-0.234259288,1,0,0,1.5799,Gabbro_rect,4,1.58,0,10,0,10,0,1,,,,,,,,,,,,,
650ee274aa4447ac435b7830,SCN,2024-06-11_13h19.32.998,LearnStrategy,2023.2.3,Win32,147.0588235,7,1,12,-0.37962963,-0.280555584,1,0,0,1.105,Basalt_12,2,12,2,2,1.105,-0.400000007,-0.401851866,1,0,0,0.8318,Obsidian_rect,5,0.832,0,11,0,11,0,1,,,,,,,,,,,,,
650ee274aa4447ac435b7830,SCN,2024-06-11_13h19.32.998,LearnStrategy,2023.2.3,Win32,147.0588235,7,1,13,-0.220370328,-0.071296303,1,0,0,0.7828,Peridotite_02,7,02,3,3,0.783,-0.054629644,-0.253703718,1,0,0,0.6701,Basalt_rect,2,0.67,0,12,0,12,0,1,,,,,,,,,,,,,
650ee274aa4447ac435b7830,SCN,2024-06-11_13h19.32.998,LearnStrategy,2023.2.3,Win32,147.0588235,7,1,14,-0.077777792,0.125,1,0,0,0.9517,Gabbro_10,4,10,4,4,0.952,0.392592677,-0.252777806,1,0,0,1.7941,Gabbro_rect,4,1.794,1,13,0,13,0,1,,,,,,,,,,,,,
650ee274aa4447ac435b7830,SCN,2024-06-11_13h19.32.998,LearnStrategy,2023.2.3,Win32,147.0588235,7,1,15,-0.06759255,0.090740734,1,0,0,1.1376,Gabbro_10,4,10,4,4,1.138,0.357407464,-0.250925912,1,0,0,1.6333,Gabbro_rect,4,1.633,1,14,0,14,0,1,,,,,,,,,,,,,
650ee274aa4447ac435b7830,SCN,2024-06-11_13h19.32.998,LearnStrategy,2023.2.3,Win32,147.0588235,7,1,16,0.420370455,0.25833333,1,0,0,1.0654,Basalt_16,2,16,5,7,1.065,-0.365740741,-0.271296325,1,0,0,2.2873,Andesite_rect,1,2.287,0,15,0,15,0,1,,,,,,,,,,,,,
650ee274aa4447ac435b7830,SCN,2024-06-11_13h19.32.998,LearnStrategy,2023.2.3,Win32,147.0588235,7,2,1,,,,,,,,3,06,,,,,,,,,,,1,5.702,0,,,,,,-0.389814801,-0.260185171,1,0,0,5.7023,Andesite_rect,0,0,0,0,1,
650ee274aa4447ac435b7830,SCN,2024-06-11_13h19.32.998,LearnStrategy,2023.2.3,Win32,147.0588235,7,2,2,,,,,,,,4,14,,,,,,,,,,,4,1.316,1,,,,,,0.445370427,-0.247222265,1,0,0,1.3159,Gabbro_rect,1,0,1,0,1,
650ee274aa4447ac435b7830,SCN,2024-06-11_13h19.32.998,LearnStrategy,2023.2.3,Win32,147.0588235,7,2,3,,,,,,,,5,10,,,,,,,,,,,4,0.28,0,,,,,,0.443518603,-0.249074088,1,0,0,0.2801,Gabbro_rect,2,0,2,0,1,
650ee274aa4447ac435b7830,SCN,2024-06-11_13h19.32.998,LearnStrategy,2023.2.3,Win32,147.0588235,7,2,4,,,,,,,,8,04,,,,,,,,,,,4,0.377,0,,,,,,0.443518603,-0.249074088,1,0,0,0.3768,Gabbro_rect,3,0,3,0,1,
650ee274aa4447ac435b7830,SCN,2024-06-11_13h19.32.998,LearnStrategy,2023.2.3,Win32,147.0588235,7,2,5,,,,,,,,2,14,,,,,,,,,,,4,0.019,0,,,,,,0.443518603,-0.249074088,1,0,0,0.0192,Gabbro_rect,4,0,4,0,1,
650ee274aa4447ac435b7830,SCN,2024-06-11_13h19.32.998,LearnStrategy,2023.2.3,Win32,147.0588235,7,2,6,,,,,,,,8,16,,,,,,,,,,,1,2.871,0,,,,,,-0.390740748,-0.244444459,1,0,0,2.8712,Andesite_rect,5,0,5,0,1,
650ee274aa4447ac435b7830,SCN,2024-06-11_13h19.32.998,LearnStrategy,2023.2.3,Win32,147.0588235,7,2,7,,,,,,,,5,09,,,,,,,,,,,5,1.492,1,,,,,,-0.420370349,-0.400000042,1,0,0,1.4923,Obsidian_rect,6,0,6,0,1,
650ee274aa4447ac435b7830,SCN,2024-06-11_13h19.32.998,LearnStrategy,2023.2.3,Win32,147.0588235,7,2,8,,,,,,,,4,16,,,,,,,,,,,2,1.312,0,,,,,,-0.195370356,-0.237963005,1,0,0,1.3124,Basalt_rect,7,0,7,0,1,
650ee274aa4447ac435b7830,SCN,2024-06-11_13h19.32.998,LearnStrategy,2023.2.3,Win32,147.0588235,7,2,9,,,,,,,,6,06,,,,,,,,,,,6,0.695,1,,,,,,-0.146296254,-0.400000042,1,0,0,0.6955,Pegmatite_rect,8,0,8,0,1,
650ee274aa4447ac435b7830,SCN,2024-06-11_13h19.32.998,LearnStrategy,2023.2.3,Win32,147.0588235,7,2,10,,,,,,,,6,05,,,,,,,,,,,7,0.717,0,,,,,,0.087037051,-0.415740755,1,0,0,0.7168,Peridotite_rect,9,0,9,0,1,
650ee274aa4447ac435b7830,SCN,2024-06-11_13h19.32.998,LearnStrategy,2023.2.3,Win32,147.0588235,7,2,11,,,,,,,,1,02,,,,,,,,,,,3,0.74,0,,,,,,0.092592593,-0.259259259,1,0,0,0.7399,Diorite_rect,10,0,10,0,1,
650ee274aa4447ac435b7830,SCN,2024-06-11_13h19.32.998,LearnStrategy,2023.2.3,Win32,147.0588235,7,2,12,,,,,,,,3,15,,,,,,,,,,,6,1.459,0,,,,,,-0.117592564,-0.397222236,1,0,0,1.4587,Pegmatite_rect,11,0,11,0,1,
650ee274aa4447ac435b7830,SCN,2024-06-11_13h19.32.998,LearnStrategy,2023.2.3,Win32,147.0588235,7,2,13,,,,,,,,7,15,,,,,,,,,,,2,1.139,0,,,,,,-0.081481439,-0.263888889,1,0,0,1.1394,Basalt_rect,12,0,12,0,1,
650ee274aa4447ac435b7830,SCN,2024-06-11_13h19.32.998,LearnStrategy,2023.2.3,Win32,147.0588235,7,2,14,,,,,,,,1,07,,,,,,,,,,,3,0.532,0,,,,,,0.132407436,-0.247222265,1,0,0,0.5322,Diorite_rect,13,0,13,0,1,
650ee274aa4447ac435b7830,SCN,2024-06-11_13h19.32.998,LearnStrategy,2023.2.3,Win32,147.0588235,7,2,15,,,,,,,,7,13,,,,,,,,,,,3,0.241,0,,,,,,0.132407436,-0.247222265,1,0,0,0.2413,Diorite_rect,14,0,14,0,1,
650ee274aa4447ac435b7830,SCN,2024-06-11_13h19.32.998,LearnStrategy,2023.2.3,Win32,147.0588235,7,2,16,,,,,,,,2,08,,,,,,,,,,,1,2.917,0,,,,,,-0.402777778,-0.249074088,1,0,0,2.9172,Andesite_rect,15,0,15,0,1,
650ee274aa4447ac435b7830,SCN,2024-06-11_13h19.32.998,LearnStrategy,2023.2.3,Win32,147.0588235,8,1,1,0.378703788,-0.109259288,1,0,0,6.2498,Obsidian_02,5,02,3,7,6.25,-0.36296297,-0.256481524,1,0,0,1.5113,Andesite_rect,1,1.511,0,0,0,0,0,1,,,,,,,,,,,,,
650ee274aa4447ac435b7830,SCN,2024-06-11_13h19.32.998,LearnStrategy,2023.2.3,Win32,147.0588235,8,1,2,-0.073148162,0.274999989,1,0,0,0.7656,Obsidian_16,5,16,5,4,0.766,-0.446296303,-0.385185171,1,0,0,0.7931,Obsidian_rect,5,0.793,1,1,0,1,0,1,,,,,,,,,,,,,
650ee274aa4447ac435b7830,SCN,2024-06-11_13h19.32.998,LearnStrategy,2023.2.3,Win32,147.0588235,8,1,3,0.419444473,-0.112963005,1,0,0,5.2415,Obsidian_02,5,02,3,7,5.242,-0.443518497,-0.409259302,1,0,0,1.7677,Obsidian_rect,5,1.768,1,2,0,2,0,1,,,,,,,,,,,,,
650ee274aa4447ac435b7830,SCN,2024-06-11_13h19.32.998,LearnStrategy,2023.2.3,Win32,147.0588235,8,1,4,-0.388888889,-0.134259259,1,0,0,1.3109,Basalt_02,2,02,3,2,1.311,-0.216666681,-0.237963005,1,0,0,0.7698,Basalt_rect,2,0.77,1,3,0,3,0,1,,,,,,,,,,,,,
650ee274aa4447ac435b7830,SCN,2024-06-11_13h19.32.998,LearnStrategy,2023.2.3,Win32,147.0588235,8,1,5,-0.436111097,-0.25,1,0,0,0.6954,Basalt_12,2,12,2,2,0.695,-0.205555527,-0.244444459,1,0,0,0.7871,Basalt_rect,2,0.787,1,4,0,4,0,1,,,,,,,,,,,,,
650ee274aa4447ac435b7830,SCN,2024-06-11_13h19.32.998,LearnStrategy,2023.2.3,Win32,147.0588235,8,1,6,-0.542592578,-0.061111132,1,0,0,1.4822,Obsidian_14,5,14,3,1,1.482,-0.383333312,-0.387962977,1,0,0,1.2002,Obsidian_rect,5,1.2,1,5,0,5,0,1,,,,,,,,,,,,,
650ee274aa4447ac435b7830,SCN,2024-06-11_13h19.32.998,LearnStrategy,2023.2.3,Win32,147.0588235,8,1,7,0.40370376,0.401851848,1,0,0,3.8508,Pumice_05,8,05,6,7,3.851,0.3648149,-0.256481524,1,0,0,0.9782,Gabbro_rect,4,0.978,0,6,0,6,0,1,,,,,,,,,,,,,
650ee274aa4447ac435b7830,SCN,2024-06-11_13h19.32.998,LearnStrategy,2023.2.3,Win32,147.0588235,8,1,8,-0.421296296,0.275925919,1,0,0,1.8924,Pumice_14,8,14,5,2,1.892,0.410185213,-0.400925954,1,0,0,1.7748,Pumice_rect,8,1.775,1,7,0,7,0,1,,,,,,,,,,,,,
650ee274aa4447ac435b7830,SCN,2024-06-11_13h19.32.998,LearnStrategy,2023.2.3,Win32,147.0588235,8,1,9,0.061111097,0.119444423,1,0,0,2.2277,Diorite_13,3,13,4,5,2.228,0.380555612,-0.411111125,1,0,0,1.2495,Pumice_rect,8,1.249,0,8,0,8,0,1,,,,,,,,,,,,,
650ee274aa4447ac435b7830,SCN,2024-06-11_13h19.32.998,LearnStrategy,2023.2.3,Win32,147.0588235,8,1,10,-0.112962935,0.086111104,1,0,0,1.026,Gabbro_10,4,10,4,4,1.026,-0.087037051,-0.239814829,1,0,0,0.7861,Basalt_rect,2,0.786,0,9,0,9,0,1,,,,,,,,,,,,,
650ee274aa4447ac435b7830,SCN,2024-06-11_13h19.32.998,LearnStrategy,2023.2.3,Win32,147.0588235,8,1,11,-0.506481489,0.24537037,1,0,0,1.0194,Peridotite_07,7,07,5,1,1.019,0.330555527,-0.262037065,1,0,0,1.0563,Gabbro_rect,4,1.056,0,10,0,10,0,1,,,,,,,,,,,,,
650ee274aa4447ac435b7830,SCN,2024-06-11_13h19.32.998,LearnStrategy,2023.2.3,Win32,147.0588235,8,1,12,-0.404629637,0.114814794,1,0,0,4.4809,Peridotite_16,7,16,4,2,4.481,0.372222194,-0.270370413,1,0,0,1.5288,Gabbro_rect,4,1.529,0,11,0,11,0,1,,,,,,,,,,,,,
650ee274aa4447ac435b7830,SCN,2024-06-11_13h19.32.998,LearnStrategy,2023.2.3,Win32,147.0588235,8,1,13,-0.534259266,0.399999998,1,0,0,3.0164,Diorite_16,3,16,6,1,3.016,-0.342592593,-0.409259302,1,0,0,2.735,Obsidian_rect,5,2.735,0,12,0,12,0,1,,,,,,,,,,,,,
650ee274aa4447ac435b7830,SCN,2024-06-11_13h19.32.998,LearnStrategy,2023.2.3,Win32,147.0588235,8,1,14,0.54814812,0.116666653,1,0,0,1.2701,Pumice_09,8,09,4,8,1.27,0.065740727,-0.262037065,1,0,0,1.3177,Diorite_rect,3,1.318,0,13,0,13,0,1,,,,,,,,,,,,,
650ee274aa4447ac435b7830,SCN,2024-06-11_13h19.32.998,LearnStrategy,2023.2.3,Win32,147.0588235,8,1,15,0.068518533,0.079629616,1,0,0,0.8603,Diorite_13,3,13,4,5,0.86,0.366666723,-0.393518519,1,0,0,2.1202,Pumice_rect,8,2.12,0,14,0,14,0,1,,,,,,,,,,,,,
650ee274aa4447ac435b7830,SCN,2024-06-11_13h19.32.998,LearnStrategy,2023.2.3,Win32,147.0588235,8,1,16,-0.529629637,0.119444423,1,0,0,2.1454,Diorite_02,3,02,4,1,2.145,0.180555556,-0.234259288,1,0,0,0.8758,Diorite_rect,3,0.876,1,15,0,15,0,1,,,,,,,,,,,,,
650ee274aa4447ac435b7830,SCN,2024-06-11_13h19.32.998,LearnStrategy,2023.2.3,Win32,147.0588235,8,2,1,,,,,,,,3,10,,,,,,,,,,,3,3.508,1,,,,,,0.065740727,-0.263888889,1,0,0,3.5085,Diorite_rect,0,0,0,0,1,
650ee274aa4447ac435b7830,SCN,2024-06-11_13h19.32.998,LearnStrategy,2023.2.3,Win32,147.0588235,8,2,2,,,,,,,,5,12,,,,,,,,,,,5,1.442,1,,,,,,-0.352777764,-0.40370369,1,0,0,1.4423,Obsidian_rect,1,0,1,0,1,
650ee274aa4447ac435b7830,SCN,2024-06-11_13h19.32.998,LearnStrategy,2023.2.3,Win32,147.0588235,8,2,3,,,,,,,,3,11,,,,,,,,,,,6,3.523,0,,,,,,-0.086111069,-0.387962977,1,0,0,3.5232,Pegmatite_rect,2,0,2,0,1,
650ee274aa4447ac435b7830,SCN,2024-06-11_13h19.32.998,LearnStrategy,2023.2.3,Win32,147.0588235,8,2,4,,,,,,,,8,02,,,,,,,,,,,6,0.825,0,,,,,,-0.086111069,-0.387962977,1,0,0,0.8252,Pegmatite_rect,3,0,3,0,1,
650ee274aa4447ac435b7830,SCN,2024-06-11_13h19.32.998,LearnStrategy,2023.2.3,Win32,147.0588235,8,2,5,,,,,,,,2,04,,,,,,,,,,,6,0.934,0,,,,,,-0.086111069,-0.387962977,1,0,0,0.9341,Pegmatite_rect,4,0,4,0,1,
650ee274aa4447ac435b7830,SCN,2024-06-11_13h19.32.998,LearnStrategy,2023.2.3,Win32,147.0588235,8,2,6,,,,,,,,6,12,,,,,,,,,,,7,0.796,0,,,,,,0.075925968,-0.420370384,1,0,0,0.7964,Peridotite_rect,5,0,5,0,1,
650ee274aa4447ac435b7830,SCN,2024-06-11_13h19.32.998,LearnStrategy,2023.2.3,Win32,147.0588235,8,2,7,,,,,,,,4,01,,,,,,,,,,,7,0.381,0,,,,,,0.075925968,-0.420370384,1,0,0,0.3809,Peridotite_rect,6,0,6,0,1,
650ee274aa4447ac435b7830,SCN,2024-06-11_13h19.32.998,LearnStrategy,2023.2.3,Win32,147.0588235,8,2,8,,,,,,,,2,09,,,,,,,,,,,7,0.325,0,,,,,,0.075925968,-0.420370384,1,0,0,0.3248,Peridotite_rect,7,0,7,0,1,
650ee274aa4447ac435b7830,SCN,2024-06-11_13h19.32.998,LearnStrategy,2023.2.3,Win32,147.0588235,8,2,9,,,,,,,,1,06,,,,,,,,,,,7,0.842,0,,,,,,0.069444444,-0.406481496,1,0,0,0.8416,Peridotite_rect,8,0,8,0,1,
650ee274aa4447ac435b7830,SCN,2024-06-11_13h19.32.998,LearnStrategy,2023.2.3,Win32,147.0588235,8,2,10,,,,,,,,8,15,,,,,,,,,,,3,1.467,0,,,,,,0.079629616,-0.249074088,1,0,0,1.467,Diorite_rect,9,0,9,0,1,
650ee274aa4447ac435b7830,SCN,2024-06-11_13h19.32.998,LearnStrategy,2023.2.3,Win32,147.0588235,8,2,11,,,,,,,,7,10,,,,,,,,,,,2,0.456,0,,,,,,-0.050925926,-0.253703718,1,0,0,0.4564,Basalt_rect,10,0,10,0,1,
650ee274aa4447ac435b7830,SCN,2024-06-11_13h19.32.998,LearnStrategy,2023.2.3,Win32,147.0588235,8,2,12,,,,,,,,5,07,,,,,,,,,,,5,1.757,1,,,,,,-0.315740727,-0.390740783,1,0,0,1.7571,Obsidian_rect,11,0,11,0,1,
650ee274aa4447ac435b7830,SCN,2024-06-11_13h19.32.998,LearnStrategy,2023.2.3,Win32,147.0588235,8,2,13,,,,,,,,6,13,,,,,,,,,,,4,1.436,0,,,,,,0.336111139,-0.232407393,1,0,0,1.4358,Gabbro_rect,12,0,12,0,1,
650ee274aa4447ac435b7830,SCN,2024-06-11_13h19.32.998,LearnStrategy,2023.2.3,Win32,147.0588235,8,2,14,,,,,,,,1,09,,,,,,,,,,,1,1.58,1,,,,,,-0.400000007,-0.243518547,1,0,0,1.5797,Andesite_rect,13,0,13,0,1,
650ee274aa4447ac435b7830,SCN,2024-06-11_13h19.32.998,LearnStrategy,2023.2.3,Win32,147.0588235,8,2,15,,,,,,,,7,05,,,,,,,,,,,7,0.748,1,,,,,,0.085185228,-0.39444443,1,0,0,0.7481,Peridotite_rect,14,0,14,0,1,
650ee274aa4447ac435b7830,SCN,2024-06-11_13h19.32.998,LearnStrategy,2023.2.3,Win32,147.0588235,8,2,16,,,,,,,,4,05,,,,,,,,,,,6,1.155,0,,,,,,-0.12037037,-0.404629672,1,0,0,1.1546,Pegmatite_rect,15,0,15,0,1,
650ee274aa4447ac435b7830,SCN,2024-06-11_13h19.32.998,LearnStrategy,2023.2.3,Win32,147.0588235,9,1,1,-0.084259245,0.2574074,1,0,0,2.6596,Obsidian_16,5,16,5,4,2.66,-0.336111104,-0.386111153,1,0,0,1.5763,Obsidian_rect,5,1.576,1,0,0,0,0,1,,,,,,,,,,,,,
650ee274aa4447ac435b7830,SCN,2024-06-11_13h19.32.998,LearnStrategy,2023.2.3,Win32,147.0588235,9,1,2,-0.52870369,-0.083333333,1,0,0,0.977,Obsidian_14,5,14,3,1,0.977,-0.361111111,-0.400925954,1,0,0,1.5781,Obsidian_rect,5,1.578,1,1,0,1,0,1,,,,,,,,,,,,,
650ee274aa4447ac435b7830,SCN,2024-06-11_13h19.32.998,LearnStrategy,2023.2.3,Win32,147.0588235,9,1,3,0.378703788,0.394444439,1,0,0,2.7769,Pumice_05,8,05,6,7,2.777,0.400925954,-0.232407393,1,0,0,0.8713,Gabbro_rect,4,0.871,0,2,0,2,0,1,,,,,,,,,,,,,
650ee274aa4447ac435b7830,SCN,2024-06-11_13h19.32.998,LearnStrategy,2023.2.3,Win32,147.0588235,9,1,4,-0.563888868,0.102777764,1,0,0,1.5691,Diorite_02,3,02,4,1,1.569,-0.319444444,-0.235185199,1,0,0,1.2695,Andesite_rect,1,1.269,0,3,0,3,0,1,,,,,,,,,,,,,
650ee274aa4447ac435b7830,SCN,2024-06-11_13h19.32.998,LearnStrategy,2023.2.3,Win32,147.0588235,9,1,5,-0.520370377,0.390740739,1,0,0,1.3562,Diorite_16,3,16,6,1,1.356,-0.363888882,-0.266666695,1,0,0,4.9937,Andesite_rect,1,4.994,0,4,0,4,0,1,,,,,,,,,,,,,
650ee274aa4447ac435b7830,SCN,2024-06-11_13h19.32.998,LearnStrategy,2023.2.3,Win32,147.0588235,9,1,6,0.395370342,-0.09629631,1,0,0,1.4009,Obsidian_02,5,02,3,7,1.401,-0.352777764,-0.412037037,1,0,0,0.8357,Obsidian_rect,5,0.836,1,5,0,5,0,1,,,,,,,,,,,,,
650ee274aa4447ac435b7830,SCN,2024-06-11_13h19.32.998,LearnStrategy,2023.2.3,Win32,147.0588235,9,1,7,-0.388888889,-0.226851852,1,0,0,0.9786,Basalt_12,2,12,2,2,0.979,-0.175925926,-0.258333347,1,0,0,1.4107,Basalt_rect,2,1.411,1,6,0,6,0,1,,,,,,,,,,,,,
650ee274aa4447ac435b7830,SCN,2024-06-11_13h19.32.998,LearnStrategy,2023.2.3,Win32,147.0588235,9,1,8,-0.386111118,-0.087037051,1,0,0,0.7629,Basalt_02,2,02,3,2,0.763,-0.151851866,-0.248148176,1,0,0,1.3547,Basalt_rect,2,1.355,1,7,0,7,0,1,,,,,,,,,,,,,
650ee274aa4447ac435b7830,SCN,2024-06-11_13h19.32.998,LearnStrategy,2023.2.3,Win32,147.0588235,9,1,9,0.051851838,0.092592593,1,0,0,1.0758,Diorite_13,3,13,4,5,1.076,0.429629714,-0.25462963,1,0,0,1.1086,Gabbro_rect,4,1.109,0,8,0,8,0,1,,,,,,,,,,,,,
650ee274aa4447ac435b7830,SCN,2024-06-11_13h19.32.998,LearnStrategy,2023.2.3,Win32,147.0588235,9,1,10,-0.239814829,0.099074081,1,0,0,2.3046,Andesite_10,1,10,4,3,2.305,0.314814815,-0.238888917,1,0,0,1.4058,Gabbro_rect,4,1.406,0,9,0,9,0,1,,,,,,,,,,,,,
650ee274aa4447ac435b7830,SCN,2024-06-11_13h19.32.998,LearnStrategy,2023.2.3,Win32,147.0588235,9,1,11,-0.387962942,0.085185192,1,0,0,4.2045,Peridotite_16,7,16,4,2,4.204,0.380555612,-0.253703718,1,0,0,1.3072,Gabbro_rect,4,1.307,0,10,0,10,0,1,,,,,,,,,,,,,
650ee274aa4447ac435b7830,SCN,2024-06-11_13h19.32.998,LearnStrategy,2023.2.3,Win32,147.0588235,9,1,12,-0.537962949,0.098148134,1,0,0,8.0979,Diorite_02,3,02,4,1,8.098,0.339814787,-0.237963005,1,0,0,1.0662,Gabbro_rect,4,1.066,0,11,0,11,0,1,,,,,,,,,,,,,
650ee274aa4447ac435b7830,SCN,2024-06-11_13h19.32.998,LearnStrategy,2023.2.3,Win32,147.0588235,9,1,13,-0.525925919,0.267592589,1,0,0,0.9452,Peridotite_07,7,07,5,1,0.945,0.406481566,-0.237963005,1,0,0,1.2677,Gabbro_rect,4,1.268,0,12,0,12,0,1,,,,,,,,,,,,,
650ee274aa4447ac435b7830,SCN,2024-06-11_13h19.32.998,LearnStrategy,2023.2.3,Win32,147.0588235,9,1,14,-0.51203703,0.429629631,1,0,0,1.0199,Diorite_16,3,16,6,1,1.02,0.385185242,-0.24537037,1,0,0,1.1627,Gabbro_rect,4,1.163,0,13,0,13,0,1,,,,,,,,,,,,,
650ee274aa4447ac435b7830,SCN,2024-06-11_13h19.32.998,LearnStrategy,2023.2.3,Win32,147.0588235,9,1,15,0.097222222,-0.256481524,1,0,0,4.0823,Pegmatite_09,6,09,2,5,4.082,0.354629658,-0.262962977,1,0,0,0.7262,Gabbro_rect,4,0.726,0,14,0,14,0,1,,,,,,,,,,,,,
650ee274aa4447ac435b7830,SCN,2024-06-11_13h19.32.998,LearnStrategy,2023.2.3,Win32,147.0588235,9,1,16,0.380555612,-0.392592607,1,0,0,1.1703,Diorite_12,3,12,1,7,1.17,0.350000028,-0.233333376,1,0,0,1.027,Gabbro_rect,4,1.027,0,15,0,15,0,1,,,,,,,,,,,,,
650ee274aa4447ac435b7830,SCN,2024-06-11_13h19.32.998,LearnStrategy,2023.2.3,Win32,147.0588235,9,2,1,,,,,,,,5,08,,,,,,,,,,,5,2.622,1,,,,,,-0.351851852,-0.389814801,1,0,0,2.6221,Obsidian_rect,0,0,0,0,1,
650ee274aa4447ac435b7830,SCN,2024-06-11_13h19.32.998,LearnStrategy,2023.2.3,Win32,147.0588235,9,2,2,,,,,,,,1,16,,,,,,,,,,,4,1.747,0,,,,,,0.329629686,-0.25,1,0,0,1.7469,Gabbro_rect,1,0,1,0,1,
650ee274aa4447ac435b7830,SCN,2024-06-11_13h19.32.998,LearnStrategy,2023.2.3,Win32,147.0588235,9,2,3,,,,,,,,8,13,,,,,,,,,,,4,2.109,0,,,,,,0.353703675,-0.265740783,1,0,0,2.1085,Gabbro_rect,2,0,2,0,1,
650ee274aa4447ac435b7830,SCN,2024-06-11_13h19.32.998,LearnStrategy,2023.2.3,Win32,147.0588235,9,2,4,,,,,,,,2,10,,,,,,,,,,,8,2.069,0,,,,,,0.359259288,-0.389814801,1,0,0,2.0687,Pumice_rect,3,0,3,0,1,
650ee274aa4447ac435b7830,SCN,2024-06-11_13h19.32.998,LearnStrategy,2023.2.3,Win32,147.0588235,9,2,5,,,,,,,,6,10,,,,,,,,,,,4,2.812,0,,,,,,0.353703675,-0.255555541,1,0,0,2.8121,Gabbro_rect,4,0,4,0,1,
650ee274aa4447ac435b7830,SCN,2024-06-11_13h19.32.998,LearnStrategy,2023.2.3,Win32,147.0588235,9,2,6,,,,,,,,2,05,,,,,,,,,,,7,2.289,0,,,,,,0.051851838,-0.401851866,1,0,0,2.289,Peridotite_rect,5,0,5,0,1,
650ee274aa4447ac435b7830,SCN,2024-06-11_13h19.32.998,LearnStrategy,2023.2.3,Win32,147.0588235,9,2,7,,,,,,,,6,16,,,,,,,,,,,6,0.951,1,,,,,,-0.078703704,-0.39444443,1,0,0,0.9511,Pegmatite_rect,6,0,6,0,1,
650ee274aa4447ac435b7830,SCN,2024-06-11_13h19.32.998,LearnStrategy,2023.2.3,Win32,147.0588235,9,2,8,,,,,,,,5,11,,,,,,,,,,,5,1.094,1,,,,,,-0.338888875,-0.410185213,1,0,0,1.094,Obsidian_rect,7,0,7,0,1,
650ee274aa4447ac435b7830,SCN,2024-06-11_13h19.32.998,LearnStrategy,2023.2.3,Win32,147.0588235,9,2,9,,,,,,,,7,04,,,,,,,,,,,3,3.019,0,,,,,,0.083333333,-0.262962977,1,0,0,3.0188,Diorite_rect,8,0,8,0,1,
650ee274aa4447ac435b7830,SCN,2024-06-11_13h19.32.998,LearnStrategy,2023.2.3,Win32,147.0588235,9,2,10,,,,,,,,8,06,,,,,,,,,,,7,5.381,0,,,,,,0.145370413,-0.389814801,1,0,0,5.3812,Peridotite_rect,9,0,9,0,1,
650ee274aa4447ac435b7830,SCN,2024-06-11_13h19.32.998,LearnStrategy,2023.2.3,Win32,147.0588235,9,2,11,,,,,,,,7,14,,,,,,,,,,,8,1.139,0,,,,,,0.351851852,-0.400925954,1,0,0,1.1395,Pumice_rect,10,0,10,0,1,
650ee274aa4447ac435b7830,SCN,2024-06-11_13h19.32.998,LearnStrategy,2023.2.3,Win32,147.0588235,9,2,12,,,,,,,,1,05,,,,,,,,,,,8,0.707,0,,,,,,0.351851852,-0.400925954,1,0,0,0.7068,Pumice_rect,11,0,11,0,1,
650ee274aa4447ac435b7830,SCN,2024-06-11_13h19.32.998,LearnStrategy,2023.2.3,Win32,147.0588235,9,2,13,,,,,,,,3,09,,,,,,,,,,,8,0.661,0,,,,,,0.351851852,-0.400925954,1,0,0,0.6612,Pumice_rect,12,0,12,0,1,
650ee274aa4447ac435b7830,SCN,2024-06-11_13h19.32.998,LearnStrategy,2023.2.3,Win32,147.0588235,9,2,14,,,,,,,,4,03,,,,,,,,,,,8,1.05,0,,,,,,0.351851852,-0.400925954,1,0,0,1.0497,Pumice_rect,13,0,13,0,1,
650ee274aa4447ac435b7830,SCN,2024-06-11_13h19.32.998,LearnStrategy,2023.2.3,Win32,147.0588235,9,2,15,,,,,,,,4,09,,,,,,,,,,,8,3.073,0,,,,,,0.362962935,-0.39444443,1,0,0,3.0726,Pumice_rect,14,0,14,0,1,
650ee274aa4447ac435b7830,SCN,2024-06-11_13h19.32.998,LearnStrategy,2023.2.3,Win32,147.0588235,9,2,16,,,,,,,,3,07,,,,,,,,,,,1,2.076,0,,,,,,-0.377777771,-0.267592607,1,0,0,2.0764,Andesite_rect,15,0,15,0,1,
650ee274aa4447ac435b7830,SCN,2024-06-11_13h19.32.998,LearnStrategy,2023.2.3,Win32,147.0588235,,,,,,,,,,,,,,,,,,,,,,,,,,,,,,,,,,,,,,,,,,,0
650ee274aa4447ac435b7830,SCN,2024-06-11_13h19.32.998,LearnStrategy,2023.2.3,Win32,147.0588235,,,,,,,,,,,,,,,,,,,,,,,,,,,,,,,,,,,,,,,,,,,
650ee274aa4447ac435b7830,SCN,2024-06-11_13h19.32.998,LearnStrategy,2023.2.3,Win32,147.0588235,,,,,,,,,,,1,03,1,1,,,,,,,,,,,,,,,,,,,,,,,,,,,,,
650ee274aa4447ac435b7830,SCN,2024-06-11_13h19.32.998,LearnStrategy,2023.2.3,Win32,147.0588235,,,,,,,,,,,5,04,1,2,,,,,,,,,,,,,,,,,,,,,,,,,,,,,
650ee274aa4447ac435b7830,SCN,2024-06-11_13h19.32.998,LearnStrategy,2023.2.3,Win32,147.0588235,,,,,,,,,,,6,08,1,3,,,,,,,,,,,,,,,,,,,,,,,,,,,,,
650ee274aa4447ac435b7830,SCN,2024-06-11_13h19.32.998,LearnStrategy,2023.2.3,Win32,147.0588235,,,,,,,,,,,6,03,1,4,,,,,,,,,,,,,,,,,,,,,,,,,,,,,
650ee274aa4447ac435b7830,SCN,2024-06-11_13h19.32.998,LearnStrategy,2023.2.3,Win32,147.0588235,,,,,,,,,,,6,07,1,5,,,,,,,,,,,,,,,,,,,,,,,,,,,,,
650ee274aa4447ac435b7830,SCN,2024-06-11_13h19.32.998,LearnStrategy,2023.2.3,Win32,147.0588235,,,,,,,,,,,5,05,1,6,,,,,,,,,,,,,,,,,,,,,,,,,,,,,
650ee274aa4447ac435b7830,SCN,2024-06-11_13h19.32.998,LearnStrategy,2023.2.3,Win32,147.0588235,,,,,,,,,,,3,12,1,7,,,,,,,,,,,,,,,,,,,,,,,,,,,,,
650ee274aa4447ac435b7830,SCN,2024-06-11_13h19.32.998,LearnStrategy,2023.2.3,Win32,147.0588235,,,,,,,,,,,4,12,1,8,,,,,,,,,,,,,,,,,,,,,,,,,,,,,
650ee274aa4447ac435b7830,SCN,2024-06-11_13h19.32.998,LearnStrategy,2023.2.3,Win32,147.0588235,,,,,,,,,,,4,15,2,1,,,,,,,,,,,,,,,,,,,,,,,,,,,,,
650ee274aa4447ac435b7830,SCN,2024-06-11_13h19.32.998,LearnStrategy,2023.2.3,Win32,147.0588235,,,,,,,,,,,2,12,2,2,,,,,,,,,,,,,,,,,,,,,,,,,,,,,
650ee274aa4447ac435b7830,SCN,2024-06-11_13h19.32.998,LearnStrategy,2023.2.3,Win32,147.0588235,,,,,,,,,,,7,06,2,3,,,,,,,,,,,,,,,,,,,,,,,,,,,,,
650ee274aa4447ac435b7830,SCN,2024-06-11_13h19.32.998,LearnStrategy,2023.2.3,Win32,147.0588235,,,,,,,,,,,5,06,2,4,,,,,,,,,,,,,,,,,,,,,,,,,,,,,
650ee274aa4447ac435b7830,SCN,2024-06-11_13h19.32.998,LearnStrategy,2023.2.3,Win32,147.0588235,,,,,,,,,,,6,09,2,5,,,,,,,,,,,,,,,,,,,,,,,,,,,,,
650ee274aa4447ac435b7830,SCN,2024-06-11_13h19.32.998,LearnStrategy,2023.2.3,Win32,147.0588235,,,,,,,,,,,3,14,2,6,,,,,,,,,,,,,,,,,,,,,,,,,,,,,
650ee274aa4447ac435b7830,SCN,2024-06-11_13h19.32.998,LearnStrategy,2023.2.3,Win32,147.0588235,,,,,,,,,,,3,08,2,7,,,,,,,,,,,,,,,,,,,,,,,,,,,,,
650ee274aa4447ac435b7830,SCN,2024-06-11_13h19.32.998,LearnStrategy,2023.2.3,Win32,147.0588235,,,,,,,,,,,2,06,2,8,,,,,,,,,,,,,,,,,,,,,,,,,,,,,
650ee274aa4447ac435b7830,SCN,2024-06-11_13h19.32.998,LearnStrategy,2023.2.3,Win32,147.0588235,,,,,,,,,,,5,14,3,1,,,,,,,,,,,,,,,,,,,,,,,,,,,,,
650ee274aa4447ac435b7830,SCN,2024-06-11_13h19.32.998,LearnStrategy,2023.2.3,Win32,147.0588235,,,,,,,,,,,2,02,3,2,,,,,,,,,,,,,,,,,,,,,,,,,,,,,
650ee274aa4447ac435b7830,SCN,2024-06-11_13h19.32.998,LearnStrategy,2023.2.3,Win32,147.0588235,,,,,,,,,,,7,02,3,3,,,,,,,,,,,,,,,,,,,,,,,,,,,,,
650ee274aa4447ac435b7830,SCN,2024-06-11_13h19.32.998,LearnStrategy,2023.2.3,Win32,147.0588235,,,,,,,,,,,1,04,3,4,,,,,,,,,,,,,,,,,,,,,,,,,,,,,
650ee274aa4447ac435b7830,SCN,2024-06-11_13h19.32.998,LearnStrategy,2023.2.3,Win32,147.0588235,,,,,,,,,,,4,13,3,5,,,,,,,,,,,,,,,,,,,,,,,,,,,,,
650ee274aa4447ac435b7830,SCN,2024-06-11_13h19.32.998,LearnStrategy,2023.2.3,Win32,147.0588235,,,,,,,,,,,1,11,3,6,,,,,,,,,,,,,,,,,,,,,,,,,,,,,
650ee274aa4447ac435b7830,SCN,2024-06-11_13h19.32.998,LearnStrategy,2023.2.3,Win32,147.0588235,,,,,,,,,,,5,02,3,7,,,,,,,,,,,,,,,,,,,,,,,,,,,,,
650ee274aa4447ac435b7830,SCN,2024-06-11_13h19.32.998,LearnStrategy,2023.2.3,Win32,147.0588235,,,,,,,,,,,7,12,3,8,,,,,,,,,,,,,,,,,,,,,,,,,,,,,
650ee274aa4447ac435b7830,SCN,2024-06-11_13h19.32.998,LearnStrategy,2023.2.3,Win32,147.0588235,,,,,,,,,,,3,02,4,1,,,,,,,,,,,,,,,,,,,,,,,,,,,,,
650ee274aa4447ac435b7830,SCN,2024-06-11_13h19.32.998,LearnStrategy,2023.2.3,Win32,147.0588235,,,,,,,,,,,7,16,4,2,,,,,,,,,,,,,,,,,,,,,,,,,,,,,
650ee274aa4447ac435b7830,SCN,2024-06-11_13h19.32.998,LearnStrategy,2023.2.3,Win32,147.0588235,,,,,,,,,,,1,10,4,3,,,,,,,,,,,,,,,,,,,,,,,,,,,,,
650ee274aa4447ac435b7830,SCN,2024-06-11_13h19.32.998,LearnStrategy,2023.2.3,Win32,147.0588235,,,,,,,,,,,4,10,4,4,,,,,,,,,,,,,,,,,,,,,,,,,,,,,
650ee274aa4447ac435b7830,SCN,2024-06-11_13h19.32.998,LearnStrategy,2023.2.3,Win32,147.0588235,,,,,,,,,,,3,13,4,5,,,,,,,,,,,,,,,,,,,,,,,,,,,,,
650ee274aa4447ac435b7830,SCN,2024-06-11_13h19.32.998,LearnStrategy,2023.2.3,Win32,147.0588235,,,,,,,,,,,6,15,4,6,,,,,,,,,,,,,,,,,,,,,,,,,,,,,
650ee274aa4447ac435b7830,SCN,2024-06-11_13h19.32.998,LearnStrategy,2023.2.3,Win32,147.0588235,,,,,,,,,,,2,11,4,7,,,,,,,,,,,,,,,,,,,,,,,,,,,,,
650ee274aa4447ac435b7830,SCN,2024-06-11_13h19.32.998,LearnStrategy,2023.2.3,Win32,147.0588235,,,,,,,,,,,8,09,4,8,,,,,,,,,,,,,,,,,,,,,,,,,,,,,
650ee274aa4447ac435b7830,SCN,2024-06-11_13h19.32.998,LearnStrategy,2023.2.3,Win32,147.0588235,,,,,,,,,,,7,07,5,1,,,,,,,,,,,,,,,,,,,,,,,,,,,,,
650ee274aa4447ac435b7830,SCN,2024-06-11_13h19.32.998,LearnStrategy,2023.2.3,Win32,147.0588235,,,,,,,,,,,8,14,5,2,,,,,,,,,,,,,,,,,,,,,,,,,,,,,
650ee274aa4447ac435b7830,SCN,2024-06-11_13h19.32.998,LearnStrategy,2023.2.3,Win32,147.0588235,,,,,,,,,,,1,01,5,3,,,,,,,,,,,,,,,,,,,,,,,,,,,,,
650ee274aa4447ac435b7830,SCN,2024-06-11_13h19.32.998,LearnStrategy,2023.2.3,Win32,147.0588235,,,,,,,,,,,5,16,5,4,,,,,,,,,,,,,,,,,,,,,,,,,,,,,
650ee274aa4447ac435b7830,SCN,2024-06-11_13h19.32.998,LearnStrategy,2023.2.3,Win32,147.0588235,,,,,,,,,,,2,01,5,5,,,,,,,,,,,,,,,,,,,,,,,,,,,,,
650ee274aa4447ac435b7830,SCN,2024-06-11_13h19.32.998,LearnStrategy,2023.2.3,Win32,147.0588235,,,,,,,,,,,4,11,5,6,,,,,,,,,,,,,,,,,,,,,,,,,,,,,
650ee274aa4447ac435b7830,SCN,2024-06-11_13h19.32.998,LearnStrategy,2023.2.3,Win32,147.0588235,,,,,,,,,,,2,16,5,7,,,,,,,,,,,,,,,,,,,,,,,,,,,,,
650ee274aa4447ac435b7830,SCN,2024-06-11_13h19.32.998,LearnStrategy,2023.2.3,Win32,147.0588235,,,,,,,,,,,8,03,5,8,,,,,,,,,,,,,,,,,,,,,,,,,,,,,
650ee274aa4447ac435b7830,SCN,2024-06-11_13h19.32.998,LearnStrategy,2023.2.3,Win32,147.0588235,,,,,,,,,,,3,16,6,1,,,,,,,,,,,,,,,,,,,,,,,,,,,,,
650ee274aa4447ac435b7830,SCN,2024-06-11_13h19.32.998,LearnStrategy,2023.2.3,Win32,147.0588235,,,,,,,,,,,1,14,6,2,,,,,,,,,,,,,,,,,,,,,,,,,,,,,
650ee274aa4447ac435b7830,SCN,2024-06-11_13h19.32.998,LearnStrategy,2023.2.3,Win32,147.0588235,,,,,,,,,,,8,08,6,3,,,,,,,,,,,,,,,,,,,,,,,,,,,,,
650ee274aa4447ac435b7830,SCN,2024-06-11_13h19.32.998,LearnStrategy,2023.2.3,Win32,147.0588235,,,,,,,,,,,6,11,6,4,,,,,,,,,,,,,,,,,,,,,,,,,,,,,
650ee274aa4447ac435b7830,SCN,2024-06-11_13h19.32.998,LearnStrategy,2023.2.3,Win32,147.0588235,,,,,,,,,,,4,08,6,5,,,,,,,,,,,,,,,,,,,,,,,,,,,,,
650ee274aa4447ac435b7830,SCN,2024-06-11_13h19.32.998,LearnStrategy,2023.2.3,Win32,147.0588235,,,,,,,,,,,8,10,6,6,,,,,,,,,,,,,,,,,,,,,,,,,,,,,
650ee274aa4447ac435b7830,SCN,2024-06-11_13h19.32.998,LearnStrategy,2023.2.3,Win32,147.0588235,,,,,,,,,,,8,05,6,7,,,,,,,,,,,,,,,,,,,,,,,,,,,,,
650ee274aa4447ac435b7830,SCN,2024-06-11_13h19.32.998,LearnStrategy,2023.2.3,Win32,147.0588235,,,,,,,,,,,7,08,6,8,,,,,,,,,,,,,,,,,,,,,,,,,,,,,