participant,condition,date,expName,psychopyVersion,OS,frameRate,block,phase,trial,learn_mouse.x,learn_mouse.y,learn_mouse.leftButton,learn_mouse.midButton,learn_mouse.rightButton,learn_mouse.time,learn_mouse.clicked_name,cat,token,row,col,t_select,cat_rec,token_rec,cat_mouse_l.x,cat_mouse_l.y,cat_mouse_l.leftButton,cat_mouse_l.midButton,cat_mouse_l.rightButton,cat_mouse_l.time,cat_mouse_l.clicked_name,resp,t_resp,corr,train_trials.thisRepN,train_trials.thisTrialN,train_trials.thisN,train_trials.thisIndex,train_trials.ran,cat_mouse_t.x,cat_mouse_t.y,cat_mouse_t.leftButton,cat_mouse_t.midButton,cat_mouse_t.rightButton,cat_mouse_t.time,cat_mouse_t.clicked_name,test_trials.thisRepN,test_trials.thisTrialN,test_trials.thisN,test_trials.thisIndex,test_trials.ran,Bonus
65172fc7765bc8a93b141b68,SCR,2024-06-24_14h56.12.762,LearnStrategy,2023.2.3,Win32,60.24096386,,,,,,,,,,,,,,,,,,,,,,,,,,,,,,,,,,,,,,,,,,,,,
65172fc7765bc8a93b141b68,SCR,2024-06-24_14h56.12.762,LearnStrategy,2023.2.3,Win32,60.24096386,1,1,1,-0.074074046,0.09351849,1,0,0,6.791,Diorite_09,3,09,4,4,6.791,3,16,-0.104629601,-0.269444444,1,0,0,14.9717,Basalt_rect,2,14.972,0,0,0,0,0,1,,,,,,,,,,,,,
65172fc7765bc8a93b141b68,SCR,2024-06-24_14h56.12.762,LearnStrategy,2023.2.3,Win32,60.24096386,1,1,2,0.4,0.129629601,1,0,0,2.6049,Peridotite_06,7,06,4,7,2.605,8,04,0.315740797,-0.393518575,1,0,0,3.5844,Pumice_rect,8,3.584,0,1,0,1,0,1,,,,,,,,,,,,,
65172fc7765bc8a93b141b68,SCR,2024-06-24_14h56.12.762,LearnStrategy,2023.2.3,Win32,60.24096386,1,1,3,-0.352777778,-0.092592621,1,0,0,3.696,Obsidian_05,5,05,3,2,3.696,5,07,-0.362962935,-0.390740797,1,0,0,4.4659,Obsidian_rect,5,4.466,1,2,0,2,0,1,,,,,,,,,,,,,
65172fc7765bc8a93b141b68,SCR,2024-06-24_14h56.12.762,LearnStrategy,2023.2.3,Win32,60.24096386,1,1,4,-0.104629601,-0.420370399,1,0,0,3.6607,Pumice_16,8,16,1,4,3.661,7,06,0.095370399,-0.407407464,1,0,0,4.313,Peridotite_rect,7,4.313,0,3,0,3,0,1,,,,,,,,,,,,,
65172fc7765bc8a93b141b68,SCR,2024-06-24_14h56.12.762,LearnStrategy,2023.2.3,Win32,60.24096386,1,1,5,-0.256481467,0.288888889,1,0,0,3.1298,Obsidian_02,5,02,5,3,3.13,7,10,-0.144444444,-0.399074131,1,0,0,5.1006,Pegmatite_rect,6,5.101,0,4,0,4,0,1,,,,,,,,,,,,,
65172fc7765bc8a93b141b68,SCR,2024-06-24_14h56.12.762,LearnStrategy,2023.2.3,Win32,60.24096386,1,1,6,-0.512962935,0.089814801,1,0,0,3.0564,Basalt_09,2,09,4,1,3.056,6,09,0.335185242,-0.250925954,1,0,0,8.0496,Gabbro_rect,4,8.05,0,5,0,5,0,1,,,,,,,,,,,,,
65172fc7765bc8a93b141b68,SCR,2024-06-24_14h56.12.762,LearnStrategy,2023.2.3,Win32,60.24096386,1,1,7,0.385185242,0.383333333,1,0,0,2.6641,Obsidian_14,5,14,6,7,2.664,8,13,-0.174074046,-0.416666667,1,0,0,3.9423,Pegmatite_rect,6,3.942,0,6,0,6,0,1,,,,,,,,,,,,,
65172fc7765bc8a93b141b68,SCR,2024-06-24_14h56.12.762,LearnStrategy,2023.2.3,Win32,60.24096386,1,1,8,0.548148261,0.437962961,1,0,0,1.8752,Obsidian_07,5,07,6,8,1.875,6,08,-0.397222222,-0.265740797,1,0,0,2.2096,Andesite_rect,1,2.21,0,7,0,7,0,1,,,,,,,,,,,,,
65172fc7765bc8a93b141b68,SCR,2024-06-24_14h56.12.762,LearnStrategy,2023.2.3,Win32,60.24096386,1,1,9,-0.397222222,-0.428703732,1,0,0,3.1939,Andesite_11,1,11,1,2,3.194,2,10,0.087037065,-0.234259288,1,0,0,7.0644,Diorite_rect,3,7.064,0,8,0,8,0,1,,,,,,,,,,,,,
65172fc7765bc8a93b141b68,SCR,2024-06-24_14h56.12.762,LearnStrategy,2023.2.3,Win32,60.24096386,1,1,10,-0.225925912,-0.112962977,1,0,0,16.7547,Pegmatite_16,6,16,3,3,16.755,1,01,-0.096296268,-0.262037065,1,0,0,2.4263,Basalt_rect,2,2.426,0,9,0,9,0,1,,,,,,,,,,,,,
65172fc7765bc8a93b141b68,SCR,2024-06-24_14h56.12.762,LearnStrategy,2023.2.3,Win32,60.24096386,1,1,11,0.040740797,0.234259245,1,0,0,4.4147,Diorite_12,3,12,5,5,4.415,2,09,-0.094444444,-0.398148176,1,0,0,2.8448,Pegmatite_rect,6,2.845,0,10,0,10,0,1,,,,,,,,,,,,,
65172fc7765bc8a93b141b68,SCR,2024-06-24_14h56.12.762,LearnStrategy,2023.2.3,Win32,60.24096386,1,1,12,0.514814843,-0.378703732,1,0,0,2.5352,Gabbro_08,4,08,1,8,2.535,4,08,-0.370370356,-0.419444444,1,0,0,3.6592,Obsidian_rect,5,3.659,0,11,0,11,0,1,,,,,,,,,,,,,
65172fc7765bc8a93b141b68,SCR,2024-06-24_14h56.12.762,LearnStrategy,2023.2.3,Win32,60.24096386,1,1,13,0.259259288,-0.435185242,1,0,0,3.8985,Peridotite_15,7,15,1,6,3.899,1,09,0.118518575,-0.393518575,1,0,0,2.6398,Peridotite_rect,7,2.64,1,12,0,12,0,1,,,,,,,,,,,,,
65172fc7765bc8a93b141b68,SCR,2024-06-24_14h56.12.762,LearnStrategy,2023.2.3,Win32,60.24096386,1,1,14,0.548148261,-0.265740797,1,0,0,1.6791,Gabbro_11,4,11,2,8,1.679,3,06,0.390740797,-0.265740797,1,0,0,4.7873,Gabbro_rect,4,4.787,1,13,0,13,0,1,,,,,,,,,,,,,
65172fc7765bc8a93b141b68,SCR,2024-06-24_14h56.12.762,LearnStrategy,2023.2.3,Win32,60.24096386,1,1,15,0.565740797,0.230555556,1,0,0,2.4766,Peridotite_14,7,14,5,8,2.477,4,12,0.346296353,-0.40648151,1,0,0,4.1937,Pumice_rect,8,4.194,0,14,0,14,0,1,,,,,,,,,,,,,
65172fc7765bc8a93b141b68,SCR,2024-06-24_14h56.12.762,LearnStrategy,2023.2.3,Win32,60.24096386,1,1,16,0.566666667,0.2324074,1,0,0,2.2561,Peridotite_14,7,14,5,8,2.256,5,14,-0.325,-0.410185242,1,0,0,3.0009,Obsidian_rect,5,3.001,0,15,0,15,0,1,,,,,,,,,,,,,
65172fc7765bc8a93b141b68,SCR,2024-06-24_14h56.12.762,LearnStrategy,2023.2.3,Win32,60.24096386,1,2,1,,,,,,,,5,12,,,,,,,,,,,,,5,6.04,1,,,,,,-0.386111111,-0.416666667,1,0,0,6.0405,Obsidian_rect,0,0,0,0,1,
65172fc7765bc8a93b141b68,SCR,2024-06-24_14h56.12.762,LearnStrategy,2023.2.3,Win32,60.24096386,1,2,2,,,,,,,,7,08,,,,,,,,,,,,,7,9.702,1,,,,,,0.089814843,-0.40648151,1,0,0,9.7022,Peridotite_rect,1,0,1,0,1,
65172fc7765bc8a93b141b68,SCR,2024-06-24_14h56.12.762,LearnStrategy,2023.2.3,Win32,60.24096386,1,2,3,,,,,,,,3,15,,,,,,,,,,,,,3,5.402,1,,,,,,0.099074131,-0.262037065,1,0,0,5.4023,Diorite_rect,2,0,2,0,1,
65172fc7765bc8a93b141b68,SCR,2024-06-24_14h56.12.762,LearnStrategy,2023.2.3,Win32,60.24096386,1,2,4,,,,,,,,4,05,,,,,,,,,,,,,4,13.979,1,,,,,,0.35,-0.257407464,1,0,0,13.9786,Gabbro_rect,3,0,3,0,1,
65172fc7765bc8a93b141b68,SCR,2024-06-24_14h56.12.762,LearnStrategy,2023.2.3,Win32,60.24096386,1,2,5,,,,,,,,1,10,,,,,,,,,,,,,7,12.889,0,,,,,,0.093518575,-0.386111111,1,0,0,12.8893,Peridotite_rect,4,0,4,0,1,
65172fc7765bc8a93b141b68,SCR,2024-06-24_14h56.12.762,LearnStrategy,2023.2.3,Win32,60.24096386,1,2,6,,,,,,,,4,13,,,,,,,,,,,,,7,28.32,0,,,,,,0.120370399,-0.408333333,1,0,0,28.3195,Peridotite_rect,5,0,5,0,1,
65172fc7765bc8a93b141b68,SCR,2024-06-24_14h56.12.762,LearnStrategy,2023.2.3,Win32,60.24096386,1,2,7,,,,,,,,5,06,,,,,,,,,,,,,5,8.341,1,,,,,,-0.402777778,-0.395370399,1,0,0,8.3408,Obsidian_rect,6,0,6,0,1,
65172fc7765bc8a93b141b68,SCR,2024-06-24_14h56.12.762,LearnStrategy,2023.2.3,Win32,60.24096386,1,2,8,,,,,,,,8,06,,,,,,,,,,,,,7,13.158,0,,,,,,0.115740797,-0.397222222,1,0,0,13.1582,Peridotite_rect,7,0,7,0,1,
65172fc7765bc8a93b141b68,SCR,2024-06-24_14h56.12.762,LearnStrategy,2023.2.3,Win32,60.24096386,1,2,9,,,,,,,,3,11,,,,,,,,,,,,,3,8.782,1,,,,,,0.095370399,-0.252777778,1,0,0,8.7818,Diorite_rect,8,0,8,0,1,
65172fc7765bc8a93b141b68,SCR,2024-06-24_14h56.12.762,LearnStrategy,2023.2.3,Win32,60.24096386,1,2,10,,,,,,,,1,07,,,,,,,,,,,,,3,7.171,0,,,,,,0.096296353,-0.236111111,1,0,0,7.1713,Diorite_rect,9,0,9,0,1,
65172fc7765bc8a93b141b68,SCR,2024-06-24_14h56.12.762,LearnStrategy,2023.2.3,Win32,60.24096386,1,2,11,,,,,,,,2,01,,,,,,,,,,,,,2,6.174,1,,,,,,-0.206481467,-0.255555556,1,0,0,6.174,Basalt_rect,10,0,10,0,1,
65172fc7765bc8a93b141b68,SCR,2024-06-24_14h56.12.762,LearnStrategy,2023.2.3,Win32,60.24096386,1,2,12,,,,,,,,7,05,,,,,,,,,,,,,2,3.45,0,,,,,,-0.206481467,-0.255555556,1,0,0,3.4497,Basalt_rect,11,0,11,0,1,
65172fc7765bc8a93b141b68,SCR,2024-06-24_14h56.12.762,LearnStrategy,2023.2.3,Win32,60.24096386,1,2,13,,,,,,,,6,15,,,,,,,,,,,,,6,31.795,1,,,,,,-0.083333333,-0.418518575,1,0,0,31.7954,Pegmatite_rect,12,0,12,0,1,
65172fc7765bc8a93b141b68,SCR,2024-06-24_14h56.12.762,LearnStrategy,2023.2.3,Win32,60.24096386,1,2,14,,,,,,,,2,14,,,,,,,,,,,,,4,17.449,0,,,,,,0.315740797,-0.253703732,1,0,0,17.4492,Gabbro_rect,13,0,13,0,1,
65172fc7765bc8a93b141b68,SCR,2024-06-24_14h56.12.762,LearnStrategy,2023.2.3,Win32,60.24096386,1,2,15,,,,,,,,8,03,,,,,,,,,,,,,6,20.903,0,,,,,,-0.081481425,-0.394444444,1,0,0,20.9027,Pegmatite_rect,14,0,14,0,1,
65172fc7765bc8a93b141b68,SCR,2024-06-24_14h56.12.762,LearnStrategy,2023.2.3,Win32,60.24096386,1,2,16,,,,,,,,6,11,,,,,,,,,,,,,6,22.64,1,,,,,,-0.101851824,-0.389814843,1,0,0,22.6399,Pegmatite_rect,15,0,15,0,1,
65172fc7765bc8a93b141b68,SCR,2024-06-24_14h56.12.762,LearnStrategy,2023.2.3,Win32,60.24096386,2,1,1,0.565740797,-0.075925954,1,0,0,2.8209,Andesite_03,1,03,3,8,2.821,8,13,0.105555556,-0.255555556,1,0,0,9.5414,Diorite_rect,3,9.541,0,0,0,0,0,1,,,,,,,,,,,,,
65172fc7765bc8a93b141b68,SCR,2024-06-24_14h56.12.762,LearnStrategy,2023.2.3,Win32,60.24096386,2,1,2,-0.120370314,-0.08148151,1,0,0,2.8446,Diorite_14,3,14,3,4,2.845,4,12,0.388888889,-0.271296353,1,0,0,12.3699,Gabbro_rect,4,12.37,0,1,0,1,0,1,,,,,,,,,,,,,
65172fc7765bc8a93b141b68,SCR,2024-06-24_14h56.12.762,LearnStrategy,2023.2.3,Win32,60.24096386,2,1,3,-0.231481467,-0.087962977,1,0,0,1.5103,Pegmatite_16,6,16,3,3,1.51,4,12,-0.170370314,-0.237037065,1,0,0,2.0897,Basalt_rect,2,2.09,0,2,0,2,0,1,,,,,,,,,,,,,
65172fc7765bc8a93b141b68,SCR,2024-06-24_14h56.12.762,LearnStrategy,2023.2.3,Win32,60.24096386,2,1,4,-0.215740712,-0.134259288,1,0,0,1.9007,Pegmatite_16,6,16,3,3,1.901,1,11,-0.173148092,-0.413888889,1,0,0,1.4067,Pegmatite_rect,6,1.407,1,3,0,3,0,1,,,,,,,,,,,,,
65172fc7765bc8a93b141b68,SCR,2024-06-24_14h56.12.762,LearnStrategy,2023.2.3,Win32,60.24096386,2,1,5,-0.382407379,-0.12129631,1,0,0,1.9163,Obsidian_05,5,05,3,2,1.916,3,12,-0.164814758,-0.40648151,1,0,0,1.6018,Pegmatite_rect,6,1.602,0,4,0,4,0,1,,,,,,,,,,,,,
65172fc7765bc8a93b141b68,SCR,2024-06-24_14h56.12.762,LearnStrategy,2023.2.3,Win32,60.24096386,2,1,6,-0.505555556,-0.1,1,0,0,1.6327,Peridotite_13,7,13,3,1,1.633,7,15,0.067592621,-0.384259288,1,0,0,12.9711,Peridotite_rect,7,12.971,1,5,0,5,0,1,,,,,,,,,,,,,
65172fc7765bc8a93b141b68,SCR,2024-06-24_14h56.12.762,LearnStrategy,2023.2.3,Win32,60.24096386,2,1,7,0.275,-0.438888889,1,0,0,1.9703,Peridotite_15,7,15,1,6,1.97,8,04,0.100925954,-0.389814843,1,0,0,8.3656,Peridotite_rect,7,8.366,1,6,0,6,0,1,,,,,,,,,,,,,
65172fc7765bc8a93b141b68,SCR,2024-06-24_14h56.12.762,LearnStrategy,2023.2.3,Win32,60.24096386,2,1,8,0.093518575,0.100925912,1,0,0,1.2751,Pumice_04,8,04,4,5,1.275,2,06,-0.111111111,-0.249074131,1,0,0,2.135,Basalt_rect,2,2.135,0,7,0,7,0,1,,,,,,,,,,,,,
65172fc7765bc8a93b141b68,SCR,2024-06-24_14h56.12.762,LearnStrategy,2023.2.3,Win32,60.24096386,2,1,9,0.058333333,0.125925912,1,0,0,1.4983,Pumice_04,8,04,4,5,1.498,1,14,0.361111111,-0.401851908,1,0,0,2.9177,Pumice_rect,8,2.918,1,8,0,8,0,1,,,,,,,,,,,,,
65172fc7765bc8a93b141b68,SCR,2024-06-24_14h56.12.762,LearnStrategy,2023.2.3,Win32,60.24096386,2,1,10,0.23148151,-0.094444444,1,0,0,2.6205,Andesite_14,1,14,3,6,2.62,1,09,0.387037065,-0.385185242,1,0,0,3.2491,Pumice_rect,8,3.249,0,9,0,9,0,1,,,,,,,,,,,,,
65172fc7765bc8a93b141b68,SCR,2024-06-24_14h56.12.762,LearnStrategy,2023.2.3,Win32,60.24096386,2,1,11,0.234259288,-0.115740755,1,0,0,2.2409,Andesite_14,1,14,3,6,2.241,8,13,0.343518575,-0.229629686,1,0,0,7.3205,Gabbro_rect,4,7.321,0,10,0,10,0,1,,,,,,,,,,,,,
65172fc7765bc8a93b141b68,SCR,2024-06-24_14h56.12.762,LearnStrategy,2023.2.3,Win32,60.24096386,2,1,12,-0.062962935,0.283333333,1,0,0,2.5794,Pegmatite_08,6,08,5,4,2.579,6,09,0.403703732,-0.405555556,1,0,0,2.4494,Pumice_rect,8,2.449,0,11,0,11,0,1,,,,,,,,,,,,,
65172fc7765bc8a93b141b68,SCR,2024-06-24_14h56.12.762,LearnStrategy,2023.2.3,Win32,60.24096386,2,1,13,-0.096296268,0.238888889,1,0,0,1.3327,Pegmatite_08,6,08,5,4,1.333,2,10,-0.148148092,-0.401851908,1,0,0,1.39,Pegmatite_rect,6,1.39,1,12,0,12,0,1,,,,,,,,,,,,,
65172fc7765bc8a93b141b68,SCR,2024-06-24_14h56.12.762,LearnStrategy,2023.2.3,Win32,60.24096386,2,1,14,0.113888889,-0.112037065,1,0,0,12.1314,Pegmatite_06,6,06,3,5,12.131,7,14,-0.087962935,-0.392592621,1,0,0,1.8626,Pegmatite_rect,6,1.863,1,13,0,13,0,1,,,,,,,,,,,,,
65172fc7765bc8a93b141b68,SCR,2024-06-24_14h56.12.762,LearnStrategy,2023.2.3,Win32,60.24096386,2,1,15,0.085185242,0.396296289,1,0,0,2.5024,Pumice_13,8,13,6,5,2.502,7,10,-0.408333333,-0.253703732,1,0,0,1.8122,Andesite_rect,1,1.812,0,14,0,14,0,1,,,,,,,,,,,,,
65172fc7765bc8a93b141b68,SCR,2024-06-24_14h56.12.762,LearnStrategy,2023.2.3,Win32,60.24096386,2,1,16,0.082407464,0.235185178,1,0,0,1.8124,Diorite_12,3,12,5,5,1.812,1,01,0.067592621,-0.399074131,1,0,0,2.0686,Peridotite_rect,7,2.069,0,15,0,15,0,1,,,,,,,,,,,,,
65172fc7765bc8a93b141b68,SCR,2024-06-24_14h56.12.762,LearnStrategy,2023.2.3,Win32,60.24096386,2,2,1,,,,,,,,1,05,,,,,,,,,,,,,1,12.373,1,,,,,,-0.382407379,-0.235185242,1,0,0,12.3726,Andesite_rect,0,0,0,0,1,
65172fc7765bc8a93b141b68,SCR,2024-06-24_14h56.12.762,LearnStrategy,2023.2.3,Win32,60.24096386,2,2,2,,,,,,,,2,02,,,,,,,,,,,,,2,9.905,1,,,,,,-0.11851849,-0.255555556,1,0,0,9.9051,Basalt_rect,1,0,1,0,1,
65172fc7765bc8a93b141b68,SCR,2024-06-24_14h56.12.762,LearnStrategy,2023.2.3,Win32,60.24096386,2,2,3,,,,,,,,8,09,,,,,,,,,,,,,7,23.06,0,,,,,,0.077777778,-0.392592621,1,0,0,23.06,Peridotite_rect,2,0,2,0,1,
65172fc7765bc8a93b141b68,SCR,2024-06-24_14h56.12.762,LearnStrategy,2023.2.3,Win32,60.24096386,2,2,4,,,,,,,,6,13,,,,,,,,,,,,,3,2.025,0,,,,,,0.1,-0.237037065,1,0,0,2.0254,Diorite_rect,3,0,3,0,1,
65172fc7765bc8a93b141b68,SCR,2024-06-24_14h56.12.762,LearnStrategy,2023.2.3,Win32,60.24096386,2,2,5,,,,,,,,8,08,,,,,,,,,,,,,1,5.838,0,,,,,,-0.366666667,-0.258333333,1,0,0,5.8384,Andesite_rect,4,0,4,0,1,
65172fc7765bc8a93b141b68,SCR,2024-06-24_14h56.12.762,LearnStrategy,2023.2.3,Win32,60.24096386,2,2,6,,,,,,,,7,02,,,,,,,,,,,,,1,3.973,0,,,,,,-0.360185157,-0.254629686,1,0,0,3.9727,Andesite_rect,5,0,5,0,1,
65172fc7765bc8a93b141b68,SCR,2024-06-24_14h56.12.762,LearnStrategy,2023.2.3,Win32,60.24096386,2,2,7,,,,,,,,4,03,,,,,,,,,,,,,3,26.666,0,,,,,,0.140740797,-0.269444444,1,0,0,26.6658,Diorite_rect,6,0,6,0,1,
65172fc7765bc8a93b141b68,SCR,2024-06-24_14h56.12.762,LearnStrategy,2023.2.3,Win32,60.24096386,2,2,8,,,,,,,,3,07,,,,,,,,,,,,,1,8.154,0,,,,,,-0.399074046,-0.250925954,1,0,0,8.1536,Andesite_rect,7,0,7,0,1,
65172fc7765bc8a93b141b68,SCR,2024-06-24_14h56.12.762,LearnStrategy,2023.2.3,Win32,60.24096386,2,2,9,,,,,,,,6,07,,,,,,,,,,,,,7,6.742,0,,,,,,0.075925954,-0.387037065,1,0,0,6.7415,Peridotite_rect,8,0,8,0,1,
65172fc7765bc8a93b141b68,SCR,2024-06-24_14h56.12.762,LearnStrategy,2023.2.3,Win32,60.24096386,2,2,10,,,,,,,,5,16,,,,,,,,,,,,,5,7.124,1,,,,,,-0.457407379,-0.388888889,1,0,0,7.1239,Obsidian_rect,9,0,9,0,1,
65172fc7765bc8a93b141b68,SCR,2024-06-24_14h56.12.762,LearnStrategy,2023.2.3,Win32,60.24096386,2,2,11,,,,,,,,4,01,,,,,,,,,,,,,1,9.683,0,,,,,,-0.461111111,-0.239814843,1,0,0,9.6827,Andesite_rect,10,0,10,0,1,
65172fc7765bc8a93b141b68,SCR,2024-06-24_14h56.12.762,LearnStrategy,2023.2.3,Win32,60.24096386,2,2,12,,,,,,,,2,11,,,,,,,,,,,,,1,9.178,0,,,,,,-0.333333333,-0.253703732,1,0,0,9.1782,Andesite_rect,11,0,11,0,1,
65172fc7765bc8a93b141b68,SCR,2024-06-24_14h56.12.762,LearnStrategy,2023.2.3,Win32,60.24096386,2,2,13,,,,,,,,1,16,,,,,,,,,,,,,1,6.47,1,,,,,,-0.373148134,-0.252777778,1,0,0,6.4704,Andesite_rect,12,0,12,0,1,
65172fc7765bc8a93b141b68,SCR,2024-06-24_14h56.12.762,LearnStrategy,2023.2.3,Win32,60.24096386,2,2,14,,,,,,,,7,16,,,,,,,,,,,,,7,8.819,1,,,,,,0.076851908,-0.417592621,1,0,0,8.8189,Peridotite_rect,13,0,13,0,1,
65172fc7765bc8a93b141b68,SCR,2024-06-24_14h56.12.762,LearnStrategy,2023.2.3,Win32,60.24096386,2,2,15,,,,,,,,3,02,,,,,,,,,,,,,3,11.371,1,,,,,,0.101851908,-0.263888889,1,0,0,11.3714,Diorite_rect,14,0,14,0,1,
65172fc7765bc8a93b141b68,SCR,2024-06-24_14h56.12.762,LearnStrategy,2023.2.3,Win32,60.24096386,2,2,16,,,,,,,,5,10,,,,,,,,,,,,,5,7.846,1,,,,,,-0.359259245,-0.384259288,1,0,0,7.8456,Obsidian_rect,15,0,15,0,1,
65172fc7765bc8a93b141b68,SCR,2024-06-24_14h56.12.762,LearnStrategy,2023.2.3,Win32,60.24096386,3,1,1,0.359259288,-0.258333333,1,0,0,1.6538,Basalt_12,2,12,2,7,1.654,2,06,0.116666667,-0.237037065,1,0,0,2.2484,Diorite_rect,3,2.248,0,0,0,0,0,1,,,,,,,,,,,,,
65172fc7765bc8a93b141b68,SCR,2024-06-24_14h56.12.762,LearnStrategy,2023.2.3,Win32,60.24096386,3,1,2,0.376851908,-0.246296353,1,0,0,1.3814,Basalt_12,2,12,2,7,1.381,4,10,-0.125,-0.245370399,1,0,0,1.4546,Basalt_rect,2,1.455,1,1,0,1,0,1,,,,,,,,,,,,,
65172fc7765bc8a93b141b68,SCR,2024-06-24_14h56.12.762,LearnStrategy,2023.2.3,Win32,60.24096386,3,1,3,-0.236111111,-0.116666667,1,0,0,1.9248,Pegmatite_16,6,16,3,3,1.925,4,14,0.105555556,-0.407407464,1,0,0,1.7879,Peridotite_rect,7,1.788,0,2,0,2,0,1,,,,,,,,,,,,,
65172fc7765bc8a93b141b68,SCR,2024-06-24_14h56.12.762,LearnStrategy,2023.2.3,Win32,60.24096386,3,1,4,-0.241666667,-0.101851866,1,0,0,1.2835,Pegmatite_16,6,16,3,3,1.284,3,06,-0.144444444,-0.389814843,1,0,0,1.5953,Pegmatite_rect,6,1.595,1,3,0,3,0,1,,,,,,,,,,,,,
65172fc7765bc8a93b141b68,SCR,2024-06-24_14h56.12.762,LearnStrategy,2023.2.3,Win32,60.24096386,3,1,5,-0.382407379,-0.110185199,1,0,0,1.604,Obsidian_05,5,05,3,2,1.604,8,16,-0.111111111,-0.412963019,1,0,0,1.1955,Pegmatite_rect,6,1.196,0,4,0,4,0,1,,,,,,,,,,,,,
65172fc7765bc8a93b141b68,SCR,2024-06-24_14h56.12.762,LearnStrategy,2023.2.3,Win32,60.24096386,3,1,6,-0.387962935,-0.101851866,1,0,0,1.3954,Obsidian_05,5,05,3,2,1.395,1,14,-0.350925912,-0.380555556,1,0,0,3.6293,Obsidian_rect,5,3.629,1,5,0,5,0,1,,,,,,,,,,,,,
65172fc7765bc8a93b141b68,SCR,2024-06-24_14h56.12.762,LearnStrategy,2023.2.3,Win32,60.24096386,3,1,7,-0.201851824,0.085185157,1,0,0,1.5451,Basalt_10,2,10,4,3,1.545,3,09,-0.172222222,-0.414814843,1,0,0,5.0024,Pegmatite_rect,6,5.002,0,6,0,6,0,1,,,,,,,,,,,,,
65172fc7765bc8a93b141b68,SCR,2024-06-24_14h56.12.762,LearnStrategy,2023.2.3,Win32,60.24096386,3,1,8,-0.235185157,0.104629601,1,0,0,1.3915,Basalt_10,2,10,4,3,1.391,8,16,-0.105555556,-0.258333333,1,0,0,1.3053,Basalt_rect,2,1.305,1,7,0,7,0,1,,,,,,,,,,,,,
65172fc7765bc8a93b141b68,SCR,2024-06-24_14h56.12.762,LearnStrategy,2023.2.3,Win32,60.24096386,3,1,9,-0.345370356,-0.118518533,1,0,0,1.596,Obsidian_05,5,05,3,2,1.596,7,15,-0.397222222,-0.391666667,1,0,0,1.8583,Obsidian_rect,5,1.858,1,8,0,8,0,1,,,,,,,,,,,,,
65172fc7765bc8a93b141b68,SCR,2024-06-24_14h56.12.762,LearnStrategy,2023.2.3,Win32,60.24096386,3,1,10,0.237963019,-0.273148176,1,0,0,1.6465,Gabbro_12,4,12,2,6,1.647,7,06,0.136111111,-0.391666667,1,0,0,2.1328,Peridotite_rect,7,2.133,0,9,0,9,0,1,,,,,,,,,,,,,
65172fc7765bc8a93b141b68,SCR,2024-06-24_14h56.12.762,LearnStrategy,2023.2.3,Win32,60.24096386,3,1,11,0.265740797,-0.295370399,1,0,0,1.7767,Gabbro_12,4,12,2,6,1.777,6,16,-0.115740712,-0.40648151,1,0,0,5.8145,Pegmatite_rect,6,5.814,0,10,0,10,0,1,,,,,,,,,,,,,
65172fc7765bc8a93b141b68,SCR,2024-06-24_14h56.12.762,LearnStrategy,2023.2.3,Win32,60.24096386,3,1,12,0.376851908,-0.263888889,1,0,0,2.2755,Basalt_12,2,12,2,7,2.275,2,12,0.40648151,-0.265740797,1,0,0,1.6786,Gabbro_rect,4,1.679,0,11,0,11,0,1,,,,,,,,,,,,,
65172fc7765bc8a93b141b68,SCR,2024-06-24_14h56.12.762,LearnStrategy,2023.2.3,Win32,60.24096386,3,1,13,0.411111111,-0.3,1,0,0,1.6811,Basalt_12,2,12,2,7,1.681,1,02,-0.195370356,-0.263888889,1,0,0,2.6975,Basalt_rect,2,2.697,1,12,0,12,0,1,,,,,,,,,,,,,
65172fc7765bc8a93b141b68,SCR,2024-06-24_14h56.12.762,LearnStrategy,2023.2.3,Win32,60.24096386,3,1,14,0.232407464,-0.10648151,1,0,0,1.8999,Andesite_14,1,14,3,6,1.9,4,12,0.121296353,-0.266666667,1,0,0,2.8701,Diorite_rect,3,2.87,0,13,0,13,0,1,,,,,,,,,,,,,
65172fc7765bc8a93b141b68,SCR,2024-06-24_14h56.12.762,LearnStrategy,2023.2.3,Win32,60.24096386,3,1,15,0.213888889,-0.118518533,1,0,0,1.4391,Andesite_14,1,14,3,6,1.439,8,14,-0.448148134,-0.259259288,1,0,0,1.3389,Andesite_rect,1,1.339,1,14,0,14,0,1,,,,,,,,,,,,,
65172fc7765bc8a93b141b68,SCR,2024-06-24_14h56.12.762,LearnStrategy,2023.2.3,Win32,60.24096386,3,1,16,0.396296353,-0.101851866,1,0,0,2.1063,Pumice_05,8,05,3,7,2.106,6,12,-0.123148092,-0.238888889,1,0,0,1.4997,Basalt_rect,2,1.5,0,15,0,15,0,1,,,,,,,,,,,,,
65172fc7765bc8a93b141b68,SCR,2024-06-24_14h56.12.762,LearnStrategy,2023.2.3,Win32,60.24096386,3,2,1,,,,,,,,2,08,,,,,,,,,,,,,6,7.574,0,,,,,,-0.065740712,-0.404629686,1,0,0,7.5738,Pegmatite_rect,0,0,0,0,1,
65172fc7765bc8a93b141b68,SCR,2024-06-24_14h56.12.762,LearnStrategy,2023.2.3,Win32,60.24096386,3,2,2,,,,,,,,6,05,,,,,,,,,,,,,6,12.929,1,,,,,,-0.158333333,-0.402777778,1,0,0,12.9291,Pegmatite_rect,1,0,1,0,1,
65172fc7765bc8a93b141b68,SCR,2024-06-24_14h56.12.762,LearnStrategy,2023.2.3,Win32,60.24096386,3,2,3,,,,,,,,6,10,,,,,,,,,,,,,6,14.768,1,,,,,,-0.123148092,-0.383333333,1,0,0,14.7682,Pegmatite_rect,2,0,2,0,1,
65172fc7765bc8a93b141b68,SCR,2024-06-24_14h56.12.762,LearnStrategy,2023.2.3,Win32,60.24096386,3,2,4,,,,,,,,8,15,,,,,,,,,,,,,8,7.556,1,,,,,,0.383333333,-0.389814843,1,0,0,7.5558,Pumice_rect,3,0,3,0,1,
65172fc7765bc8a93b141b68,SCR,2024-06-24_14h56.12.762,LearnStrategy,2023.2.3,Win32,60.24096386,3,2,5,,,,,,,,1,06,,,,,,,,,,,,,2,1.659,0,,,,,,-0.062962935,-0.234259288,1,0,0,1.6586,Basalt_rect,4,0,4,0,1,
65172fc7765bc8a93b141b68,SCR,2024-06-24_14h56.12.762,LearnStrategy,2023.2.3,Win32,60.24096386,3,2,6,,,,,,,,7,12,,,,,,,,,,,,,7,2.319,1,,,,,,0.08148151,-0.395370399,1,0,0,2.3189,Peridotite_rect,5,0,5,0,1,
65172fc7765bc8a93b141b68,SCR,2024-06-24_14h56.12.762,LearnStrategy,2023.2.3,Win32,60.24096386,3,2,7,,,,,,,,4,15,,,,,,,,,,,,,7,7.173,0,,,,,,0.121296353,-0.412037065,1,0,0,7.1728,Peridotite_rect,6,0,6,0,1,
65172fc7765bc8a93b141b68,SCR,2024-06-24_14h56.12.762,LearnStrategy,2023.2.3,Win32,60.24096386,3,2,8,,,,,,,,3,08,,,,,,,,,,,,,3,4.904,1,,,,,,0.103703732,-0.257407464,1,0,0,4.9038,Diorite_rect,7,0,7,0,1,
65172fc7765bc8a93b141b68,SCR,2024-06-24_14h56.12.762,LearnStrategy,2023.2.3,Win32,60.24096386,3,2,9,,,,,,,,5,08,,,,,,,,,,,,,5,8.023,1,,,,,,-0.457407379,-0.395370399,1,0,0,8.0227,Obsidian_rect,8,0,8,0,1,
65172fc7765bc8a93b141b68,SCR,2024-06-24_14h56.12.762,LearnStrategy,2023.2.3,Win32,60.24096386,3,2,10,,,,,,,,3,10,,,,,,,,,,,,,3,24.068,1,,,,,,0.075,-0.265740797,1,0,0,24.0678,Diorite_rect,9,0,9,0,1,
65172fc7765bc8a93b141b68,SCR,2024-06-24_14h56.12.762,LearnStrategy,2023.2.3,Win32,60.24096386,3,2,11,,,,,,,,8,10,,,,,,,,,,,,,2,4.828,0,,,,,,-0.155555556,-0.249074131,1,0,0,4.8281,Basalt_rect,10,0,10,0,1,
65172fc7765bc8a93b141b68,SCR,2024-06-24_14h56.12.762,LearnStrategy,2023.2.3,Win32,60.24096386,3,2,12,,,,,,,,7,04,,,,,,,,,,,,,7,3.021,1,,,,,,0.107407464,-0.408333333,1,0,0,3.021,Peridotite_rect,11,0,11,0,1,
65172fc7765bc8a93b141b68,SCR,2024-06-24_14h56.12.762,LearnStrategy,2023.2.3,Win32,60.24096386,3,2,13,,,,,,,,4,16,,,,,,,,,,,,,4,4.007,1,,,,,,0.343518575,-0.254629686,1,0,0,4.0072,Gabbro_rect,12,0,12,0,1,
65172fc7765bc8a93b141b68,SCR,2024-06-24_14h56.12.762,LearnStrategy,2023.2.3,Win32,60.24096386,3,2,14,,,,,,,,5,04,,,,,,,,,,,,,5,9.62,1,,,,,,-0.363888889,-0.400925954,1,0,0,9.6203,Obsidian_rect,13,0,13,0,1,
65172fc7765bc8a93b141b68,SCR,2024-06-24_14h56.12.762,LearnStrategy,2023.2.3,Win32,60.24096386,3,2,15,,,,,,,,1,04,,,,,,,,,,,,,4,12.78,0,,,,,,0.336111111,-0.237037065,1,0,0,12.7796,Gabbro_rect,14,0,14,0,1,
65172fc7765bc8a93b141b68,SCR,2024-06-24_14h56.12.762,LearnStrategy,2023.2.3,Win32,60.24096386,3,2,16,,,,,,,,2,04,,,,,,,,,,,,,4,9.175,0,,,,,,0.337963019,-0.259259288,1,0,0,9.1749,Gabbro_rect,15,0,15,0,1,
65172fc7765bc8a93b141b68,SCR,2024-06-24_14h56.12.762,LearnStrategy,2023.2.3,Win32,60.24096386,4,1,1,-0.572222222,0.421296295,1,0,0,2.5766,Pumice_14,8,14,6,1,2.577,4,14,-0.100925869,-0.253703732,1,0,0,2.0232,Basalt_rect,2,2.023,0,0,0,0,0,1,,,,,,,,,,,,,
65172fc7765bc8a93b141b68,SCR,2024-06-24_14h56.12.762,LearnStrategy,2023.2.3,Win32,60.24096386,4,1,2,-0.577777778,0.430555556,1,0,0,1.8021,Pumice_14,8,14,6,1,1.802,4,09,-0.153703647,-0.240740797,1,0,0,3.2538,Basalt_rect,2,3.254,0,1,0,1,0,1,,,,,,,,,,,,,
65172fc7765bc8a93b141b68,SCR,2024-06-24_14h56.12.762,LearnStrategy,2023.2.3,Win32,60.24096386,4,1,3,-0.558333333,0.413888889,1,0,0,1.792,Pumice_14,8,14,6,1,1.792,2,06,0.326851908,-0.4,1,0,0,3.5221,Pumice_rect,8,3.522,1,2,0,2,0,1,,,,,,,,,,,,,
65172fc7765bc8a93b141b68,SCR,2024-06-24_14h56.12.762,LearnStrategy,2023.2.3,Win32,60.24096386,4,1,4,-0.421296268,0.413888889,1,0,0,1.819,Peridotite_10,7,10,6,2,1.819,1,11,0.178703732,-0.23148151,1,0,0,7.9278,Diorite_rect,3,7.928,0,3,0,3,0,1,,,,,,,,,,,,,
65172fc7765bc8a93b141b68,SCR,2024-06-24_14h56.12.762,LearnStrategy,2023.2.3,Win32,60.24096386,4,1,5,-0.399074046,0.42685185,1,0,0,1.8398,Peridotite_10,7,10,6,2,1.84,4,12,0.134259288,-0.40648151,1,0,0,2.9363,Peridotite_rect,7,2.936,1,4,0,4,0,1,,,,,,,,,,,,,
65172fc7765bc8a93b141b68,SCR,2024-06-24_14h56.12.762,LearnStrategy,2023.2.3,Win32,60.24096386,4,1,6,-0.240740712,0.434259256,1,0,0,1.5948,Basalt_16,2,16,6,3,1.595,7,07,0.347222222,-0.413888889,1,0,0,2.1637,Pumice_rect,8,2.164,0,5,0,5,0,1,,,,,,,,,,,,,
65172fc7765bc8a93b141b68,SCR,2024-06-24_14h56.12.762,LearnStrategy,2023.2.3,Win32,60.24096386,4,1,7,-0.220370356,0.388888889,1,0,0,1.2953,Basalt_16,2,16,6,3,1.295,2,09,-0.134259203,-0.239814843,1,0,0,2.7866,Basalt_rect,2,2.787,1,6,0,6,0,1,,,,,,,,,,,,,
65172fc7765bc8a93b141b68,SCR,2024-06-24_14h56.12.762,LearnStrategy,2023.2.3,Win32,60.24096386,4,1,8,-0.568518511,0.421296295,1,0,0,1.9042,Pumice_14,8,14,6,1,1.904,1,03,0.379629686,-0.260185242,1,0,0,2.7306,Gabbro_rect,4,2.731,0,7,0,7,0,1,,,,,,,,,,,,,
65172fc7765bc8a93b141b68,SCR,2024-06-24_14h56.12.762,LearnStrategy,2023.2.3,Win32,60.24096386,4,1,9,-0.569444444,0.397222222,1,0,0,2.805,Pumice_14,8,14,6,1,2.805,8,02,0.412963019,-0.402777778,1,0,0,6.2528,Pumice_rect,8,6.253,1,8,0,8,0,1,,,,,,,,,,,,,
65172fc7765bc8a93b141b68,SCR,2024-06-24_14h56.12.762,LearnStrategy,2023.2.3,Win32,60.24096386,4,1,10,-0.411111111,0.405555556,1,0,0,1.3747,Peridotite_10,7,10,6,2,1.375,2,05,0.188888889,-0.262037065,1,0,0,3.8294,Diorite_rect,3,3.829,0,9,0,9,0,1,,,,,,,,,,,,,
65172fc7765bc8a93b141b68,SCR,2024-06-24_14h56.12.762,LearnStrategy,2023.2.3,Win32,60.24096386,4,1,11,-0.241666667,0.419444444,1,0,0,4.7187,Basalt_16,2,16,6,3,4.719,7,10,0.392592621,-0.416666667,1,0,0,1.4562,Pumice_rect,8,1.456,0,10,0,10,0,1,,,,,,,,,,,,,
65172fc7765bc8a93b141b68,SCR,2024-06-24_14h56.12.762,LearnStrategy,2023.2.3,Win32,60.24096386,4,1,12,-0.247222222,0.414814811,1,0,0,2.0392,Basalt_16,2,16,6,3,2.039,8,04,-0.137036981,-0.269444444,1,0,0,1.4982,Basalt_rect,2,1.498,1,11,0,11,0,1,,,,,,,,,,,,,
65172fc7765bc8a93b141b68,SCR,2024-06-24_14h56.12.762,LearnStrategy,2023.2.3,Win32,60.24096386,4,1,13,-0.064814758,0.425,1,0,0,2.1304,Obsidian_09,5,09,6,4,2.13,1,11,-0.349074046,-0.395370399,1,0,0,3.911,Obsidian_rect,5,3.911,1,12,0,12,0,1,,,,,,,,,,,,,
65172fc7765bc8a93b141b68,SCR,2024-06-24_14h56.12.762,LearnStrategy,2023.2.3,Win32,60.24096386,4,1,14,0.073148176,0.393518511,1,0,0,1.8402,Pumice_13,8,13,6,5,1.84,8,14,-0.171296268,-0.259259288,1,0,0,12.0456,Basalt_rect,2,12.046,0,13,0,13,0,1,,,,,,,,,,,,,
65172fc7765bc8a93b141b68,SCR,2024-06-24_14h56.12.762,LearnStrategy,2023.2.3,Win32,60.24096386,4,1,15,0.096296353,0.406481478,1,0,0,1.9397,Pumice_13,8,13,6,5,1.94,3,12,0.085185242,-0.398148176,1,0,0,7.3045,Peridotite_rect,7,7.304,0,14,0,14,0,1,,,,,,,,,,,,,
65172fc7765bc8a93b141b68,SCR,2024-06-24_14h56.12.762,LearnStrategy,2023.2.3,Win32,60.24096386,4,1,16,0.072222222,0.418518517,1,0,0,1.8931,Pumice_13,8,13,6,5,1.893,6,06,0.421296353,-0.408333333,1,0,0,2.0507,Pumice_rect,8,2.051,1,15,0,15,0,1,,,,,,,,,,,,,
65172fc7765bc8a93b141b68,SCR,2024-06-24_14h56.12.762,LearnStrategy,2023.2.3,Win32,60.24096386,4,2,1,,,,,,,,5,08,,,,,,,,,,,,,5,13.025,1,,,,,,-0.394444444,-0.404629686,1,0,0,13.025,Obsidian_rect,0,0,0,0,1,
65172fc7765bc8a93b141b68,SCR,2024-06-24_14h56.12.762,LearnStrategy,2023.2.3,Win32,60.24096386,4,2,2,,,,,,,,7,02,,,,,,,,,,,,,7,10.401,1,,,,,,0.162037065,-0.396296353,1,0,0,10.4008,Peridotite_rect,1,0,1,0,1,
65172fc7765bc8a93b141b68,SCR,2024-06-24_14h56.12.762,LearnStrategy,2023.2.3,Win32,60.24096386,4,2,3,,,,,,,,6,05,,,,,,,,,,,,,6,10.021,1,,,,,,-0.119444444,-0.402777778,1,0,0,10.0211,Pegmatite_rect,2,0,2,0,1,
65172fc7765bc8a93b141b68,SCR,2024-06-24_14h56.12.762,LearnStrategy,2023.2.3,Win32,60.24096386,4,2,4,,,,,,,,4,01,,,,,,,,,,,,,4,18.159,1,,,,,,0.354629686,-0.230555556,1,0,0,18.1591,Gabbro_rect,3,0,3,0,1,
65172fc7765bc8a93b141b68,SCR,2024-06-24_14h56.12.762,LearnStrategy,2023.2.3,Win32,60.24096386,4,2,5,,,,,,,,8,06,,,,,,,,,,,,,3,6.076,0,,,,,,0.111111111,-0.236111111,1,0,0,6.0763,Diorite_rect,4,0,4,0,1,
65172fc7765bc8a93b141b68,SCR,2024-06-24_14h56.12.762,LearnStrategy,2023.2.3,Win32,60.24096386,4,2,6,,,,,,,,8,03,,,,,,,,,,,,,7,5.566,0,,,,,,0.175,-0.387037065,1,0,0,5.5664,Peridotite_rect,5,0,5,0,1,
65172fc7765bc8a93b141b68,SCR,2024-06-24_14h56.12.762,LearnStrategy,2023.2.3,Win32,60.24096386,4,2,7,,,,,,,,6,11,,,,,,,,,,,,,6,7.046,1,,,,,,-0.111111111,-0.402777778,1,0,0,7.0465,Pegmatite_rect,6,0,6,0,1,
65172fc7765bc8a93b141b68,SCR,2024-06-24_14h56.12.762,LearnStrategy,2023.2.3,Win32,60.24096386,4,2,8,,,,,,,,1,10,,,,,,,,,,,,,4,10.644,0,,,,,,0.388888889,-0.249074131,1,0,0,10.6443,Gabbro_rect,7,0,7,0,1,
65172fc7765bc8a93b141b68,SCR,2024-06-24_14h56.12.762,LearnStrategy,2023.2.3,Win32,60.24096386,4,2,9,,,,,,,,1,05,,,,,,,,,,,,,7,6.205,0,,,,,,0.094444444,-0.4,1,0,0,6.2049,Peridotite_rect,8,0,8,0,1,
65172fc7765bc8a93b141b68,SCR,2024-06-24_14h56.12.762,LearnStrategy,2023.2.3,Win32,60.24096386,4,2,10,,,,,,,,2,02,,,,,,,,,,,,,2,6.645,1,,,,,,-0.073148092,-0.252777778,1,0,0,6.6452,Basalt_rect,9,0,9,0,1,
65172fc7765bc8a93b141b68,SCR,2024-06-24_14h56.12.762,LearnStrategy,2023.2.3,Win32,60.24096386,4,2,11,,,,,,,,3,15,,,,,,,,,,,,,3,10.005,1,,,,,,0.129629686,-0.253703732,1,0,0,10.0054,Diorite_rect,10,0,10,0,1,
65172fc7765bc8a93b141b68,SCR,2024-06-24_14h56.12.762,LearnStrategy,2023.2.3,Win32,60.24096386,4,2,12,,,,,,,,2,08,,,,,,,,,,,,,4,13.324,0,,,,,,0.312037065,-0.237037065,1,0,0,13.3243,Gabbro_rect,11,0,11,0,1,
65172fc7765bc8a93b141b68,SCR,2024-06-24_14h56.12.762,LearnStrategy,2023.2.3,Win32,60.24096386,4,2,13,,,,,,,,4,13,,,,,,,,,,,,,1,14.588,0,,,,,,-0.360185157,-0.248148176,1,0,0,14.5882,Andesite_rect,12,0,12,0,1,
65172fc7765bc8a93b141b68,SCR,2024-06-24_14h56.12.762,LearnStrategy,2023.2.3,Win32,60.24096386,4,2,14,,,,,,,,7,12,,,,,,,,,,,,,7,15.896,1,,,,,,0.103703732,-0.390740797,1,0,0,15.8962,Peridotite_rect,13,0,13,0,1,
65172fc7765bc8a93b141b68,SCR,2024-06-24_14h56.12.762,LearnStrategy,2023.2.3,Win32,60.24096386,4,2,15,,,,,,,,5,16,,,,,,,,,,,,,7,5.94,0,,,,,,0.1,-0.388888889,1,0,0,5.9396,Peridotite_rect,14,0,14,0,1,
65172fc7765bc8a93b141b68,SCR,2024-06-24_14h56.12.762,LearnStrategy,2023.2.3,Win32,60.24096386,4,2,16,,,,,,,,3,07,,,,,,,,,,,,,3,10.661,1,,,,,,0.054629686,-0.254629686,1,0,0,10.6607,Diorite_rect,15,0,15,0,1,
65172fc7765bc8a93b141b68,SCR,2024-06-24_14h56.12.762,LearnStrategy,2023.2.3,Win32,60.24096386,5,1,1,-0.232407379,0.362037034,1,0,0,1.4101,Basalt_16,2,16,6,3,1.41,1,11,0.398148176,-0.404629686,1,0,0,2.4623,Pumice_rect,8,2.462,0,0,0,0,0,1,,,,,,,,,,,,,
65172fc7765bc8a93b141b68,SCR,2024-06-24_14h56.12.762,LearnStrategy,2023.2.3,Win32,60.24096386,5,1,2,0.225,0.2574074,1,0,0,1.4707,Andesite_01,1,01,5,6,1.471,3,13,0.416666667,-0.397222222,1,0,0,2.763,Pumice_rect,8,2.763,0,1,0,1,0,1,,,,,,,,,,,,,
65172fc7765bc8a93b141b68,SCR,2024-06-24_14h56.12.762,LearnStrategy,2023.2.3,Win32,60.24096386,5,1,3,0.223148176,0.217592578,1,0,0,1.595,Andesite_01,1,01,5,6,1.595,4,10,-0.409259245,-0.249074131,1,0,0,1.366,Andesite_rect,1,1.366,1,2,0,2,0,1,,,,,,,,,,,,,
65172fc7765bc8a93b141b68,SCR,2024-06-24_14h56.12.762,LearnStrategy,2023.2.3,Win32,60.24096386,5,1,4,0.262963019,0.422222222,1,0,0,1.5114,Pegmatite_12,6,12,6,6,1.511,7,15,0.130555556,-0.408333333,1,0,0,1.7689,Peridotite_rect,7,1.769,0,3,0,3,0,1,,,,,,,,,,,,,
65172fc7765bc8a93b141b68,SCR,2024-06-24_14h56.12.762,LearnStrategy,2023.2.3,Win32,60.24096386,5,1,5,0.244444444,0.460185183,1,0,0,1.3462,Pegmatite_12,6,12,6,6,1.346,2,16,-0.15,-0.408333333,1,0,0,5.1704,Pegmatite_rect,6,5.17,1,4,0,4,0,1,,,,,,,,,,,,,
65172fc7765bc8a93b141b68,SCR,2024-06-24_14h56.12.762,LearnStrategy,2023.2.3,Win32,60.24096386,5,1,6,0.232407464,0.252777778,1,0,0,1.1912,Andesite_01,1,01,5,6,1.191,5,11,-0.420370356,-0.254629686,1,0,0,1.9629,Andesite_rect,1,1.963,1,5,0,5,0,1,,,,,,,,,,,,,
65172fc7765bc8a93b141b68,SCR,2024-06-24_14h56.12.762,LearnStrategy,2023.2.3,Win32,60.24096386,5,1,7,0.25648151,0.45,1,0,0,1.5683,Pegmatite_12,6,12,6,6,1.568,1,11,-0.085185157,-0.380555556,1,0,0,5.1815,Pegmatite_rect,6,5.182,1,6,0,6,0,1,,,,,,,,,,,,,
65172fc7765bc8a93b141b68,SCR,2024-06-24_14h56.12.762,LearnStrategy,2023.2.3,Win32,60.24096386,5,1,8,0.229629686,0.389814811,1,0,0,1.6394,Pegmatite_12,6,12,6,6,1.639,1,09,-0.184259245,-0.420370399,1,0,0,1.9331,Pegmatite_rect,6,1.933,1,7,0,7,0,1,,,,,,,,,,,,,
65172fc7765bc8a93b141b68,SCR,2024-06-24_14h56.12.762,LearnStrategy,2023.2.3,Win32,60.24096386,5,1,9,0.096296353,0.397222222,1,0,0,1.709,Pumice_13,8,13,6,5,1.709,2,05,0.390740797,-0.411111111,1,0,0,4.1561,Pumice_rect,8,4.156,1,8,0,8,0,1,,,,,,,,,,,,,
65172fc7765bc8a93b141b68,SCR,2024-06-24_14h56.12.762,LearnStrategy,2023.2.3,Win32,60.24096386,5,1,10,0.092592621,0.385185178,1,0,0,1.505,Pumice_13,8,13,6,5,1.505,4,12,0.450925954,-0.415740797,1,0,0,1.3954,Pumice_rect,8,1.395,1,9,0,9,0,1,,,,,,,,,,,,,
65172fc7765bc8a93b141b68,SCR,2024-06-24_14h56.12.762,LearnStrategy,2023.2.3,Win32,60.24096386,5,1,11,0.550926039,0.22870369,1,0,0,1.4959,Peridotite_14,7,14,5,8,1.496,8,16,-0.391666667,-0.265740797,1,0,0,2.079,Andesite_rect,1,2.079,0,10,0,10,0,1,,,,,,,,,,,,,
65172fc7765bc8a93b141b68,SCR,2024-06-24_14h56.12.762,LearnStrategy,2023.2.3,Win32,60.24096386,5,1,12,0.553703817,0.25,1,0,0,1.3008,Peridotite_14,7,14,5,8,1.301,8,16,0.055555556,-0.398148176,1,0,0,2.0249,Peridotite_rect,7,2.025,1,11,0,11,0,1,,,,,,,,,,,,,
65172fc7765bc8a93b141b68,SCR,2024-06-24_14h56.12.762,LearnStrategy,2023.2.3,Win32,60.24096386,5,1,13,0.367592621,0.121296268,1,0,0,1.53,Peridotite_06,7,06,4,7,1.53,8,02,0.404629686,-0.252777778,1,0,0,4.8816,Gabbro_rect,4,4.882,0,12,0,12,0,1,,,,,,,,,,,,,
65172fc7765bc8a93b141b68,SCR,2024-06-24_14h56.12.762,LearnStrategy,2023.2.3,Win32,60.24096386,5,1,14,0.375925954,0.134259245,1,0,0,3.5124,Peridotite_06,7,06,4,7,3.512,4,09,-0.375925912,-0.402777778,1,0,0,4.4708,Obsidian_rect,5,4.471,0,13,0,13,0,1,,,,,,,,,,,,,
65172fc7765bc8a93b141b68,SCR,2024-06-24_14h56.12.762,LearnStrategy,2023.2.3,Win32,60.24096386,5,1,15,0.428703732,0.117592578,1,0,0,1.794,Peridotite_06,7,06,4,7,1.794,2,16,-0.126851824,-0.394444444,1,0,0,1.9125,Pegmatite_rect,6,1.912,0,14,0,14,0,1,,,,,,,,,,,,,
65172fc7765bc8a93b141b68,SCR,2024-06-24_14h56.12.762,LearnStrategy,2023.2.3,Win32,60.24096386,5,1,16,0.371296353,0.055555556,1,0,0,1.701,Peridotite_06,7,06,4,7,1.701,6,09,0.087963019,-0.254629686,1,0,0,5.5433,Diorite_rect,3,5.543,0,15,0,15,0,1,,,,,,,,,,,,,
65172fc7765bc8a93b141b68,SCR,2024-06-24_14h56.12.762,LearnStrategy,2023.2.3,Win32,60.24096386,5,2,1,,,,,,,,2,14,,,,,,,,,,,,,8,13.443,0,,,,,,0.380555556,-0.386111111,1,0,0,13.4432,Pumice_rect,0,0,0,0,1,
65172fc7765bc8a93b141b68,SCR,2024-06-24_14h56.12.762,LearnStrategy,2023.2.3,Win32,60.24096386,5,2,2,,,,,,,,4,15,,,,,,,,,,,,,3,28.329,0,,,,,,0.103703732,-0.251851908,1,0,0,28.3292,Diorite_rect,1,0,1,0,1,
65172fc7765bc8a93b141b68,SCR,2024-06-24_14h56.12.762,LearnStrategy,2023.2.3,Win32,60.24096386,5,2,3,,,,,,,,4,16,,,,,,,,,,,,,2,5.441,0,,,,,,-0.137962935,-0.243518575,1,0,0,5.441,Basalt_rect,2,0,2,0,1,
65172fc7765bc8a93b141b68,SCR,2024-06-24_14h56.12.762,LearnStrategy,2023.2.3,Win32,60.24096386,5,2,4,,,,,,,,5,12,,,,,,,,,,,,,5,7.496,1,,,,,,-0.437962935,-0.390740797,1,0,0,7.4957,Obsidian_rect,3,0,3,0,1,
65172fc7765bc8a93b141b68,SCR,2024-06-24_14h56.12.762,LearnStrategy,2023.2.3,Win32,60.24096386,5,2,5,,,,,,,,7,08,,,,,,,,,,,,,7,11.654,1,,,,,,0.055555556,-0.38148151,1,0,0,11.6541,Peridotite_rect,4,0,4,0,1,
65172fc7765bc8a93b141b68,SCR,2024-06-24_14h56.12.762,LearnStrategy,2023.2.3,Win32,60.24096386,5,2,6,,,,,,,,3,10,,,,,,,,,,,,,3,11.2,1,,,,,,0.085185242,-0.260185242,1,0,0,11.1995,Diorite_rect,5,0,5,0,1,
65172fc7765bc8a93b141b68,SCR,2024-06-24_14h56.12.762,LearnStrategy,2023.2.3,Win32,60.24096386,5,2,7,,,,,,,,6,15,,,,,,,,,,,,,6,31.96,1,,,,,,-0.131481425,-0.383333333,1,0,0,31.9599,Pegmatite_rect,6,0,6,0,1,
65172fc7765bc8a93b141b68,SCR,2024-06-24_14h56.12.762,LearnStrategy,2023.2.3,Win32,60.24096386,5,2,8,,,,,,,,1,04,,,,,,,,,,,,,4,6.992,0,,,,,,0.340740797,-0.252777778,1,0,0,6.9918,Gabbro_rect,7,0,7,0,1,
65172fc7765bc8a93b141b68,SCR,2024-06-24_14h56.12.762,LearnStrategy,2023.2.3,Win32,60.24096386,5,2,9,,,,,,,,7,04,,,,,,,,,,,,,2,2.804,0,,,,,,-0.179629601,-0.243518575,1,0,0,2.8037,Basalt_rect,8,0,8,0,1,
65172fc7765bc8a93b141b68,SCR,2024-06-24_14h56.12.762,LearnStrategy,2023.2.3,Win32,60.24096386,5,2,10,,,,,,,,2,11,,,,,,,,,,,,,8,3.337,0,,,,,,0.377777778,-0.401851908,1,0,0,3.3373,Pumice_rect,9,0,9,0,1,
65172fc7765bc8a93b141b68,SCR,2024-06-24_14h56.12.762,LearnStrategy,2023.2.3,Win32,60.24096386,5,2,11,,,,,,,,3,02,,,,,,,,,,,,,7,3.464,0,,,,,,0.112037065,-0.4,1,0,0,3.4639,Peridotite_rect,10,0,10,0,1,
65172fc7765bc8a93b141b68,SCR,2024-06-24_14h56.12.762,LearnStrategy,2023.2.3,Win32,60.24096386,5,2,12,,,,,,,,5,04,,,,,,,,,,,,,5,2.918,1,,,,,,-0.434259245,-0.393518575,1,0,0,2.9176,Obsidian_rect,11,0,11,0,1,
65172fc7765bc8a93b141b68,SCR,2024-06-24_14h56.12.762,LearnStrategy,2023.2.3,Win32,60.24096386,5,2,13,,,,,,,,1,16,,,,,,,,,,,,,7,13.956,0,,,,,,0.061111111,-0.387963019,1,0,0,13.9555,Peridotite_rect,12,0,12,0,1,
65172fc7765bc8a93b141b68,SCR,2024-06-24_14h56.12.762,LearnStrategy,2023.2.3,Win32,60.24096386,5,2,14,,,,,,,,6,10,,,,,,,,,,,,,6,6.434,1,,,,,,-0.156481425,-0.389814843,1,0,0,6.4343,Pegmatite_rect,13,0,13,0,1,
65172fc7765bc8a93b141b68,SCR,2024-06-24_14h56.12.762,LearnStrategy,2023.2.3,Win32,60.24096386,5,2,15,,,,,,,,8,08,,,,,,,,,,,,,8,2.983,1,,,,,,0.376851908,-0.387963019,1,0,0,2.9828,Pumice_rect,14,0,14,0,1,
65172fc7765bc8a93b141b68,SCR,2024-06-24_14h56.12.762,LearnStrategy,2023.2.3,Win32,60.24096386,5,2,16,,,,,,,,8,10,,,,,,,,,,,,,8,1.519,1,,,,,,0.387963019,-0.388888889,1,0,0,1.5195,Pumice_rect,15,0,15,0,1,
65172fc7765bc8a93b141b68,SCR,2024-06-24_14h56.12.762,LearnStrategy,2023.2.3,Win32,60.24096386,6,1,1,0.270370399,-0.247222222,1,0,0,1.8979,Gabbro_12,4,12,2,6,1.898,2,10,0.120370399,-0.409259288,1,0,0,3.1282,Peridotite_rect,7,3.128,0,0,0,0,0,1,,,,,,,,,,,,,
65172fc7765bc8a93b141b68,SCR,2024-06-24_14h56.12.762,LearnStrategy,2023.2.3,Win32,60.24096386,6,1,2,0.258333333,-0.280555556,1,0,0,1.2601,Gabbro_12,4,12,2,6,1.26,2,10,0.379629686,-0.264814843,1,0,0,1.2915,Gabbro_rect,4,1.291,1,1,0,1,0,1,,,,,,,,,,,,,
65172fc7765bc8a93b141b68,SCR,2024-06-24_14h56.12.762,LearnStrategy,2023.2.3,Win32,60.24096386,6,1,3,0.214814843,-0.23148151,1,0,0,1.6487,Gabbro_12,4,12,2,6,1.649,1,01,0.369444444,-0.262963019,1,0,0,2.5706,Gabbro_rect,4,2.571,1,2,0,2,0,1,,,,,,,,,,,,,
65172fc7765bc8a93b141b68,SCR,2024-06-24_14h56.12.762,LearnStrategy,2023.2.3,Win32,60.24096386,6,1,4,0.432407464,-0.247222222,1,0,0,1.7422,Basalt_12,2,12,2,7,1.742,5,07,0.426851908,-0.414814843,1,0,0,1.808,Pumice_rect,8,1.808,0,3,0,3,0,1,,,,,,,,,,,,,
65172fc7765bc8a93b141b68,SCR,2024-06-24_14h56.12.762,LearnStrategy,2023.2.3,Win32,60.24096386,6,1,5,0.387037065,-0.247222222,1,0,0,3.1322,Basalt_12,2,12,2,7,3.132,7,07,-0.124074046,-0.250925954,1,0,0,2.7098,Basalt_rect,2,2.71,1,4,0,4,0,1,,,,,,,,,,,,,
65172fc7765bc8a93b141b68,SCR,2024-06-24_14h56.12.762,LearnStrategy,2023.2.3,Win32,60.24096386,6,1,6,0.426851908,-0.266666667,1,0,0,1.4256,Basalt_12,2,12,2,7,1.426,8,05,0.440740797,-0.411111111,1,0,0,2.0749,Pumice_rect,8,2.075,0,5,0,5,0,1,,,,,,,,,,,,,
65172fc7765bc8a93b141b68,SCR,2024-06-24_14h56.12.762,LearnStrategy,2023.2.3,Win32,60.24096386,6,1,7,0.426851908,-0.237037065,1,0,0,1.4079,Basalt_12,2,12,2,7,1.408,6,16,-0.147222222,-0.263888889,1,0,0,1.2349,Basalt_rect,2,1.235,1,6,0,6,0,1,,,,,,,,,,,,,
65172fc7765bc8a93b141b68,SCR,2024-06-24_14h56.12.762,LearnStrategy,2023.2.3,Win32,60.24096386,6,1,8,-0.067592536,-0.103703732,1,0,0,1.6778,Diorite_14,3,14,3,4,1.678,8,16,0.093518575,-0.421296353,1,0,0,1.4436,Peridotite_rect,7,1.444,0,7,0,7,0,1,,,,,,,,,,,,,
65172fc7765bc8a93b141b68,SCR,2024-06-24_14h56.12.762,LearnStrategy,2023.2.3,Win32,60.24096386,6,1,9,-0.106481425,-0.084259288,1,0,0,1.6906,Diorite_14,3,14,3,4,1.691,3,14,0.144444444,-0.25648151,1,0,0,1.9144,Diorite_rect,3,1.914,1,8,0,8,0,1,,,,,,,,,,,,,
65172fc7765bc8a93b141b68,SCR,2024-06-24_14h56.12.762,LearnStrategy,2023.2.3,Win32,60.24096386,6,1,10,-0.064814758,0.083333333,1,0,0,2.2468,Diorite_09,3,09,4,4,2.247,4,08,0.090740797,-0.251851908,1,0,0,2.1674,Diorite_rect,3,2.167,1,9,0,9,0,1,,,,,,,,,,,,,
65172fc7765bc8a93b141b68,SCR,2024-06-24_14h56.12.762,LearnStrategy,2023.2.3,Win32,60.24096386,6,1,11,-0.05,-0.087962977,1,0,0,1.3759,Diorite_14,3,14,3,4,1.376,4,12,0.115740797,-0.241666667,1,0,0,1.4562,Diorite_rect,3,1.456,1,10,0,10,0,1,,,,,,,,,,,,,
65172fc7765bc8a93b141b68,SCR,2024-06-24_14h56.12.762,LearnStrategy,2023.2.3,Win32,60.24096386,6,1,12,0.40648151,-0.23148151,1,0,0,1.3331,Basalt_12,2,12,2,7,1.333,2,12,-0.131481425,-0.236111111,1,0,0,2.4424,Basalt_rect,2,2.442,1,11,0,11,0,1,,,,,,,,,,,,,
65172fc7765bc8a93b141b68,SCR,2024-06-24_14h56.12.762,LearnStrategy,2023.2.3,Win32,60.24096386,6,1,13,0.393518575,-0.274074131,1,0,0,1.5427,Basalt_12,2,12,2,7,1.543,7,15,-0.106481425,-0.245370399,1,0,0,2.2766,Basalt_rect,2,2.277,1,12,0,12,0,1,,,,,,,,,,,,,
65172fc7765bc8a93b141b68,SCR,2024-06-24_14h56.12.762,LearnStrategy,2023.2.3,Win32,60.24096386,6,1,14,-0.051851824,-0.088888889,1,0,0,1.1801,Diorite_14,3,14,3,4,1.18,1,14,-0.062036981,-0.237963019,1,0,0,4.4394,Basalt_rect,2,4.439,0,13,0,13,0,1,,,,,,,,,,,,,
65172fc7765bc8a93b141b68,SCR,2024-06-24_14h56.12.762,LearnStrategy,2023.2.3,Win32,60.24096386,6,1,15,0.251851908,-0.109259288,1,0,0,1.8141,Andesite_14,1,14,3,6,1.814,1,14,0.127777778,-0.245370399,1,0,0,2.2132,Diorite_rect,3,2.213,0,14,0,14,0,1,,,,,,,,,,,,,
65172fc7765bc8a93b141b68,SCR,2024-06-24_14h56.12.762,LearnStrategy,2023.2.3,Win32,60.24096386,6,1,16,0.220370399,-0.104629644,1,0,0,3.0782,Andesite_14,1,14,3,6,3.078,4,12,-0.392592578,-0.250925954,1,0,0,1.8452,Andesite_rect,1,1.845,1,15,0,15,0,1,,,,,,,,,,,,,
65172fc7765bc8a93b141b68,SCR,2024-06-24_14h56.12.762,LearnStrategy,2023.2.3,Win32,60.24096386,6,2,1,,,,,,,,5,10,,,,,,,,,,,,,5,3.859,1,,,,,,-0.381481467,-0.391666667,1,0,0,3.8592,Obsidian_rect,0,0,0,0,1,
65172fc7765bc8a93b141b68,SCR,2024-06-24_14h56.12.762,LearnStrategy,2023.2.3,Win32,60.24096386,6,2,2,,,,,,,,1,07,,,,,,,,,,,,,3,2.59,0,,,,,,0.061111111,-0.243518575,1,0,0,2.5899,Diorite_rect,1,0,1,0,1,
65172fc7765bc8a93b141b68,SCR,2024-06-24_14h56.12.762,LearnStrategy,2023.2.3,Win32,60.24096386,6,2,3,,,,,,,,3,08,,,,,,,,,,,,,2,3.054,0,,,,,,-0.089814758,-0.264814843,1,0,0,3.0538,Basalt_rect,2,0,2,0,1,
65172fc7765bc8a93b141b68,SCR,2024-06-24_14h56.12.762,LearnStrategy,2023.2.3,Win32,60.24096386,6,2,4,,,,,,,,3,11,,,,,,,,,,,,,3,1.855,1,,,,,,0.037037065,-0.246296353,1,0,0,1.8548,Diorite_rect,3,0,3,0,1,
65172fc7765bc8a93b141b68,SCR,2024-06-24_14h56.12.762,LearnStrategy,2023.2.3,Win32,60.24096386,6,2,5,,,,,,,,2,01,,,,,,,,,,,,,3,4.003,0,,,,,,0.165740797,-0.255555556,1,0,0,4.0029,Diorite_rect,4,0,4,0,1,
65172fc7765bc8a93b141b68,SCR,2024-06-24_14h56.12.762,LearnStrategy,2023.2.3,Win32,60.24096386,6,2,6,,,,,,,,4,03,,,,,,,,,,,,,2,3.887,0,,,,,,-0.190740712,-0.250925954,1,0,0,3.8873,Basalt_rect,5,0,5,0,1,
65172fc7765bc8a93b141b68,SCR,2024-06-24_14h56.12.762,LearnStrategy,2023.2.3,Win32,60.24096386,6,2,7,,,,,,,,2,04,,,,,,,,,,,,,4,19.565,0,,,,,,0.378703732,-0.249074131,1,0,0,19.5648,Gabbro_rect,6,0,6,0,1,
65172fc7765bc8a93b141b68,SCR,2024-06-24_14h56.12.762,LearnStrategy,2023.2.3,Win32,60.24096386,6,2,8,,,,,,,,8,09,,,,,,,,,,,,,8,1.793,1,,,,,,0.380555556,-0.393518575,1,0,0,1.7934,Pumice_rect,7,0,7,0,1,
65172fc7765bc8a93b141b68,SCR,2024-06-24_14h56.12.762,LearnStrategy,2023.2.3,Win32,60.24096386,6,2,9,,,,,,,,5,06,,,,,,,,,,,,,5,2.625,1,,,,,,-0.35,-0.394444444,1,0,0,2.6245,Obsidian_rect,8,0,8,0,1,
65172fc7765bc8a93b141b68,SCR,2024-06-24_14h56.12.762,LearnStrategy,2023.2.3,Win32,60.24096386,6,2,10,,,,,,,,8,15,,,,,,,,,,,,,8,1.425,1,,,,,,0.338888889,-0.378703732,1,0,0,1.4252,Pumice_rect,9,0,9,0,1,
65172fc7765bc8a93b141b68,SCR,2024-06-24_14h56.12.762,LearnStrategy,2023.2.3,Win32,60.24096386,6,2,11,,,,,,,,6,13,,,,,,,,,,,,,3,2.332,0,,,,,,0.187963019,-0.25648151,1,0,0,2.3321,Diorite_rect,10,0,10,0,1,
65172fc7765bc8a93b141b68,SCR,2024-06-24_14h56.12.762,LearnStrategy,2023.2.3,Win32,60.24096386,6,2,12,,,,,,,,4,05,,,,,,,,,,,,,7,1.885,0,,,,,,0.099074131,-0.394444444,1,0,0,1.885,Peridotite_rect,11,0,11,0,1,
65172fc7765bc8a93b141b68,SCR,2024-06-24_14h56.12.762,LearnStrategy,2023.2.3,Win32,60.24096386,6,2,13,,,,,,,,7,05,,,,,,,,,,,,,6,1.929,0,,,,,,-0.059259203,-0.392592621,1,0,0,1.9288,Pegmatite_rect,12,0,12,0,1,
65172fc7765bc8a93b141b68,SCR,2024-06-24_14h56.12.762,LearnStrategy,2023.2.3,Win32,60.24096386,6,2,14,,,,,,,,7,16,,,,,,,,,,,,,7,15.906,1,,,,,,0.083333333,-0.393518575,1,0,0,15.9061,Peridotite_rect,13,0,13,0,1,
65172fc7765bc8a93b141b68,SCR,2024-06-24_14h56.12.762,LearnStrategy,2023.2.3,Win32,60.24096386,6,2,15,,,,,,,,1,06,,,,,,,,,,,,,3,17.446,0,,,,,,0.098148176,-0.244444444,1,0,0,17.4463,Diorite_rect,14,0,14,0,1,
65172fc7765bc8a93b141b68,SCR,2024-06-24_14h56.12.762,LearnStrategy,2023.2.3,Win32,60.24096386,6,2,16,,,,,,,,6,07,,,,,,,,,,,,,6,4.903,1,,,,,,-0.140740712,-0.402777778,1,0,0,4.9035,Pegmatite_rect,15,0,15,0,1,
65172fc7765bc8a93b141b68,SCR,2024-06-24_14h56.12.762,LearnStrategy,2023.2.3,Win32,60.24096386,7,1,1,-0.261111111,-0.097222222,1,0,0,1.2666,Pegmatite_16,6,16,3,3,1.267,3,14,-0.163888889,-0.267592621,1,0,0,1.1727,Basalt_rect,2,1.173,0,0,0,0,0,1,,,,,,,,,,,,,
65172fc7765bc8a93b141b68,SCR,2024-06-24_14h56.12.762,LearnStrategy,2023.2.3,Win32,60.24096386,7,1,2,-0.272222222,-0.124074088,1,0,0,2.1279,Pegmatite_16,6,16,3,3,2.128,7,10,-0.137036981,-0.408333333,1,0,0,2.5607,Pegmatite_rect,6,2.561,1,1,0,1,0,1,,,,,,,,,,,,,
65172fc7765bc8a93b141b68,SCR,2024-06-24_14h56.12.762,LearnStrategy,2023.2.3,Win32,60.24096386,7,1,3,-0.250925912,-0.269444444,1,0,0,1.857,Basalt_05,2,05,2,3,1.857,4,12,0.135185242,-0.400925954,1,0,0,2.799,Peridotite_rect,7,2.799,0,2,0,2,0,1,,,,,,,,,,,,,
65172fc7765bc8a93b141b68,SCR,2024-06-24_14h56.12.762,LearnStrategy,2023.2.3,Win32,60.24096386,7,1,4,-0.202777778,-0.25648151,1,0,0,1.4127,Basalt_05,2,05,2,3,1.413,1,09,-0.160185157,-0.243518575,1,0,0,1.7941,Basalt_rect,2,1.794,1,3,0,3,0,1,,,,,,,,,,,,,
65172fc7765bc8a93b141b68,SCR,2024-06-24_14h56.12.762,LearnStrategy,2023.2.3,Win32,60.24096386,7,1,5,-0.255555556,-0.411111111,1,0,0,1.5283,Andesite_09,1,09,1,3,1.528,4,12,0.122222222,-0.390740797,1,0,0,1.9612,Peridotite_rect,7,1.961,0,4,0,4,0,1,,,,,,,,,,,,,
65172fc7765bc8a93b141b68,SCR,2024-06-24_14h56.12.762,LearnStrategy,2023.2.3,Win32,60.24096386,7,1,6,-0.210185157,-0.364814843,1,0,0,8.661,Andesite_09,1,09,1,3,8.661,1,09,-0.120370314,-0.259259288,1,0,0,4.6123,Basalt_rect,2,4.612,0,5,0,5,0,1,,,,,,,,,,,,,
65172fc7765bc8a93b141b68,SCR,2024-06-24_14h56.12.762,LearnStrategy,2023.2.3,Win32,60.24096386,7,1,7,-0.266666667,0.050925912,1,0,0,2.2948,Basalt_10,2,10,4,3,2.295,2,10,-0.120370314,-0.234259288,1,0,0,4.9458,Basalt_rect,2,4.946,1,6,0,6,0,1,,,,,,,,,,,,,
65172fc7765bc8a93b141b68,SCR,2024-06-24_14h56.12.762,LearnStrategy,2023.2.3,Win32,60.24096386,7,1,8,-0.551851845,-0.266666667,1,0,0,2.1715,Gabbro_10,4,10,2,1,2.171,4,10,0.364814843,-0.25,1,0,0,3.1935,Gabbro_rect,4,3.193,1,7,0,7,0,1,,,,,,,,,,,,,
65172fc7765bc8a93b141b68,SCR,2024-06-24_14h56.12.762,LearnStrategy,2023.2.3,Win32,60.24096386,7,1,9,0.052777778,-0.4,1,0,0,1.885,Diorite_06,3,06,1,5,1.885,3,06,0.097222222,-0.390740797,1,0,0,1.2757,Peridotite_rect,7,1.276,0,8,0,8,0,1,,,,,,,,,,,,,
65172fc7765bc8a93b141b68,SCR,2024-06-24_14h56.12.762,LearnStrategy,2023.2.3,Win32,60.24096386,7,1,10,-0.57870369,0.115740712,1,0,0,12.5307,Basalt_09,2,09,4,1,12.531,2,09,0.127777778,-0.266666667,1,0,0,3.106,Diorite_rect,3,3.106,0,9,0,9,0,1,,,,,,,,,,,,,
65172fc7765bc8a93b141b68,SCR,2024-06-24_14h56.12.762,LearnStrategy,2023.2.3,Win32,60.24096386,7,1,11,-0.541666667,0.083333333,1,0,0,2.011,Basalt_09,2,09,4,1,2.011,1,02,-0.095370314,-0.249074131,1,0,0,1.8301,Basalt_rect,2,1.83,1,10,0,10,0,1,,,,,,,,,,,,,
65172fc7765bc8a93b141b68,SCR,2024-06-24_14h56.12.762,LearnStrategy,2023.2.3,Win32,60.24096386,7,1,12,-0.391666667,0.273148134,1,0,0,1.8333,Basalt_06,2,06,5,2,1.833,2,06,-0.188888889,-0.234259288,1,0,0,6.7665,Basalt_rect,2,6.767,1,11,0,11,0,1,,,,,,,,,,,,,
65172fc7765bc8a93b141b68,SCR,2024-06-24_14h56.12.762,LearnStrategy,2023.2.3,Win32,60.24096386,7,1,13,-0.212962935,-0.091666667,1,0,0,1.5904,Pegmatite_16,6,16,3,3,1.59,6,16,-0.382407379,-0.397222222,1,0,0,1.634,Obsidian_rect,5,1.634,0,12,0,12,0,1,,,,,,,,,,,,,
65172fc7765bc8a93b141b68,SCR,2024-06-24_14h56.12.762,LearnStrategy,2023.2.3,Win32,60.24096386,7,1,14,0.399074131,-0.086111111,1,0,0,1.4982,Pumice_05,8,05,3,7,1.498,8,05,0.43148151,-0.403703732,1,0,0,1.2293,Pumice_rect,8,1.229,1,13,0,13,0,1,,,,,,,,,,,,,
65172fc7765bc8a93b141b68,SCR,2024-06-24_14h56.12.762,LearnStrategy,2023.2.3,Win32,60.24096386,7,1,15,0.6,0.276851845,1,0,0,11.9128,Peridotite_14,7,14,5,8,11.913,7,14,0.360185242,-0.391666667,1,0,0,1.988,Pumice_rect,8,1.988,0,14,0,14,0,1,,,,,,,,,,,,,
65172fc7765bc8a93b141b68,SCR,2024-06-24_14h56.12.762,LearnStrategy,2023.2.3,Win32,60.24096386,7,1,16,0.555555556,0.2074074,1,0,0,2.0614,Peridotite_14,7,14,5,8,2.061,5,14,0.078703732,-0.4,1,0,0,1.6227,Peridotite_rect,7,1.623,1,15,0,15,0,1,,,,,,,,,,,,,
65172fc7765bc8a93b141b68,SCR,2024-06-24_14h56.12.762,LearnStrategy,2023.2.3,Win32,60.24096386,7,2,1,,,,,,,,6,11,,,,,,,,,,,,,5,3.286,0,,,,,,-0.347222222,-0.405555556,1,0,0,3.2862,Obsidian_rect,0,0,0,0,1,
65172fc7765bc8a93b141b68,SCR,2024-06-24_14h56.12.762,LearnStrategy,2023.2.3,Win32,60.24096386,7,2,2,,,,,,,,7,04,,,,,,,,,,,,,1,4.533,0,,,,,,-0.359259245,-0.241666667,1,0,0,4.5328,Andesite_rect,1,0,1,0,1,
65172fc7765bc8a93b141b68,SCR,2024-06-24_14h56.12.762,LearnStrategy,2023.2.3,Win32,60.24096386,7,2,3,,,,,,,,2,08,,,,,,,,,,,,,2,7.449,1,,,,,,-0.109259203,-0.263888889,1,0,0,7.4491,Basalt_rect,2,0,2,0,1,
65172fc7765bc8a93b141b68,SCR,2024-06-24_14h56.12.762,LearnStrategy,2023.2.3,Win32,60.24096386,7,2,4,,,,,,,,3,15,,,,,,,,,,,,,6,5.013,0,,,,,,-0.084259203,-0.389814843,1,0,0,5.0129,Pegmatite_rect,3,0,3,0,1,
65172fc7765bc8a93b141b68,SCR,2024-06-24_14h56.12.762,LearnStrategy,2023.2.3,Win32,60.24096386,7,2,5,,,,,,,,8,10,,,,,,,,,,,,,8,1.658,1,,,,,,0.375925954,-0.410185242,1,0,0,1.6577,Pumice_rect,4,0,4,0,1,
65172fc7765bc8a93b141b68,SCR,2024-06-24_14h56.12.762,LearnStrategy,2023.2.3,Win32,60.24096386,7,2,6,,,,,,,,3,10,,,,,,,,,,,,,7,1.818,0,,,,,,0.1,-0.395370399,1,0,0,1.8184,Peridotite_rect,5,0,5,0,1,
65172fc7765bc8a93b141b68,SCR,2024-06-24_14h56.12.762,LearnStrategy,2023.2.3,Win32,60.24096386,7,2,7,,,,,,,,1,05,,,,,,,,,,,,,7,2.037,0,,,,,,0.080555556,-0.390740797,1,0,0,2.0372,Peridotite_rect,6,0,6,0,1,
65172fc7765bc8a93b141b68,SCR,2024-06-24_14h56.12.762,LearnStrategy,2023.2.3,Win32,60.24096386,7,2,8,,,,,,,,5,08,,,,,,,,,,,,,5,2.27,1,,,,,,-0.366666667,-0.395370399,1,0,0,2.2701,Obsidian_rect,7,0,7,0,1,
65172fc7765bc8a93b141b68,SCR,2024-06-24_14h56.12.762,LearnStrategy,2023.2.3,Win32,60.24096386,7,2,9,,,,,,,,4,03,,,,,,,,,,,,,2,1.731,0,,,,,,-0.080555556,-0.260185242,1,0,0,1.7312,Basalt_rect,8,0,8,0,1,
65172fc7765bc8a93b141b68,SCR,2024-06-24_14h56.12.762,LearnStrategy,2023.2.3,Win32,60.24096386,7,2,10,,,,,,,,2,01,,,,,,,,,,,,,2,2.177,1,,,,,,-0.087036981,-0.238888889,1,0,0,2.1773,Basalt_rect,9,0,9,0,1,
65172fc7765bc8a93b141b68,SCR,2024-06-24_14h56.12.762,LearnStrategy,2023.2.3,Win32,60.24096386,7,2,11,,,,,,,,4,13,,,,,,,,,,,,,4,7.832,1,,,,,,0.317592621,-0.267592621,1,0,0,7.832,Gabbro_rect,10,0,10,0,1,
65172fc7765bc8a93b141b68,SCR,2024-06-24_14h56.12.762,LearnStrategy,2023.2.3,Win32,60.24096386,7,2,12,,,,,,,,5,12,,,,,,,,,,,,,5,1.642,1,,,,,,-0.397222222,-0.397222222,1,0,0,1.6416,Obsidian_rect,11,0,11,0,1,
65172fc7765bc8a93b141b68,SCR,2024-06-24_14h56.12.762,LearnStrategy,2023.2.3,Win32,60.24096386,7,2,13,,,,,,,,7,02,,,,,,,,,,,,,7,1.505,1,,,,,,0.061111111,-0.388888889,1,0,0,1.5051,Peridotite_rect,12,0,12,0,1,
65172fc7765bc8a93b141b68,SCR,2024-06-24_14h56.12.762,LearnStrategy,2023.2.3,Win32,60.24096386,7,2,14,,,,,,,,8,03,,,,,,,,,,,,,8,1.633,1,,,,,,0.338888889,-0.4,1,0,0,1.6334,Pumice_rect,13,0,13,0,1,
65172fc7765bc8a93b141b68,SCR,2024-06-24_14h56.12.762,LearnStrategy,2023.2.3,Win32,60.24096386,7,2,15,,,,,,,,6,13,,,,,,,,,,,,,3,1.604,0,,,,,,0.08148151,-0.25,1,0,0,1.6042,Diorite_rect,14,0,14,0,1,
65172fc7765bc8a93b141b68,SCR,2024-06-24_14h56.12.762,LearnStrategy,2023.2.3,Win32,60.24096386,7,2,16,,,,,,,,1,10,,,,,,,,,,,,,1,6.615,1,,,,,,-0.385185157,-0.25,1,0,0,6.6153,Andesite_rect,15,0,15,0,1,
65172fc7765bc8a93b141b68,SCR,2024-06-24_14h56.12.762,LearnStrategy,2023.2.3,Win32,60.24096386,8,1,1,-0.076851824,-0.087037065,1,0,0,1.3266,Diorite_14,3,14,3,4,1.327,3,14,0.087963019,-0.419444444,1,0,0,3.3257,Peridotite_rect,7,3.326,0,0,0,0,0,1,,,,,,,,,,,,,
65172fc7765bc8a93b141b68,SCR,2024-06-24_14h56.12.762,LearnStrategy,2023.2.3,Win32,60.24096386,8,1,2,-0.094444444,-0.074074088,1,0,0,1.3428,Diorite_14,3,14,3,4,1.343,2,06,0.176851908,-0.262037065,1,0,0,2.7592,Diorite_rect,3,2.759,1,1,0,1,0,1,,,,,,,,,,,,,
65172fc7765bc8a93b141b68,SCR,2024-06-24_14h56.12.762,LearnStrategy,2023.2.3,Win32,60.24096386,8,1,3,0.387037065,-0.261111111,1,0,0,1.7915,Basalt_12,2,12,2,7,1.792,2,12,0.370370399,-0.411111111,1,0,0,1.778,Pumice_rect,8,1.778,0,2,0,2,0,1,,,,,,,,,,,,,
65172fc7765bc8a93b141b68,SCR,2024-06-24_14h56.12.762,LearnStrategy,2023.2.3,Win32,60.24096386,8,1,4,-0.392592578,-0.405555556,1,0,0,3.2375,Andesite_11,1,11,1,2,3.238,1,11,-0.390740712,-0.257407464,1,0,0,8.2481,Andesite_rect,1,8.248,1,3,0,3,0,1,,,,,,,,,,,,,
65172fc7765bc8a93b141b68,SCR,2024-06-24_14h56.12.762,LearnStrategy,2023.2.3,Win32,60.24096386,8,1,5,-0.41851849,-0.418518575,1,0,0,1.7552,Andesite_11,1,11,1,2,1.755,1,11,-0.382407379,-0.242592621,1,0,0,1.2907,Andesite_rect,1,1.291,1,4,0,4,0,1,,,,,,,,,,,,,
65172fc7765bc8a93b141b68,SCR,2024-06-24_14h56.12.762,LearnStrategy,2023.2.3,Win32,60.24096386,8,1,6,0.53148151,-0.404629686,1,0,0,1.8127,Gabbro_08,4,08,1,8,1.813,4,08,-0.125,-0.414814843,1,0,0,2.745,Pegmatite_rect,6,2.745,0,5,0,5,0,1,,,,,,,,,,,,,
65172fc7765bc8a93b141b68,SCR,2024-06-24_14h56.12.762,LearnStrategy,2023.2.3,Win32,60.24096386,8,1,7,0.542592706,-0.258333333,1,0,0,1.4829,Gabbro_11,4,11,2,8,1.483,1,09,0.386111111,-0.262037065,1,0,0,1.7125,Gabbro_rect,4,1.713,1,6,0,6,0,1,,,,,,,,,,,,,
65172fc7765bc8a93b141b68,SCR,2024-06-24_14h56.12.762,LearnStrategy,2023.2.3,Win32,60.24096386,8,1,8,0.05648151,-0.257407464,1,0,0,1.5649,Pegmatite_09,6,09,2,5,1.565,6,09,0.114814843,-0.410185242,1,0,0,1.5039,Peridotite_rect,7,1.504,0,7,0,7,0,1,,,,,,,,,,,,,
65172fc7765bc8a93b141b68,SCR,2024-06-24_14h56.12.762,LearnStrategy,2023.2.3,Win32,60.24096386,8,1,9,0.083333333,-0.235185242,1,0,0,1.3831,Pegmatite_09,6,09,2,5,1.383,3,12,-0.131481425,-0.403703732,1,0,0,1.3687,Pegmatite_rect,6,1.369,1,8,0,8,0,1,,,,,,,,,,,,,
65172fc7765bc8a93b141b68,SCR,2024-06-24_14h56.12.762,LearnStrategy,2023.2.3,Win32,60.24096386,8,1,10,0.096296353,-0.144444444,1,0,0,1.1802,Pegmatite_06,6,06,3,5,1.18,7,10,0.120370399,-0.261111111,1,0,0,2.6574,Diorite_rect,3,2.657,0,9,0,9,0,1,,,,,,,,,,,,,
65172fc7765bc8a93b141b68,SCR,2024-06-24_14h56.12.762,LearnStrategy,2023.2.3,Win32,60.24096386,8,1,11,-0.533333333,0.394444444,1,0,0,2.5656,Pumice_14,8,14,6,1,2.566,8,14,0.382407464,-0.410185242,1,0,0,1.9086,Pumice_rect,8,1.909,1,10,0,10,0,1,,,,,,,,,,,,,
65172fc7765bc8a93b141b68,SCR,2024-06-24_14h56.12.762,LearnStrategy,2023.2.3,Win32,60.24096386,8,1,12,0.210185242,-0.257407464,1,0,0,2.746,Gabbro_12,4,12,2,6,2.746,4,08,-0.049074046,-0.232407464,1,0,0,1.2643,Basalt_rect,2,1.264,0,11,0,11,0,1,,,,,,,,,,,,,
65172fc7765bc8a93b141b68,SCR,2024-06-24_14h56.12.762,LearnStrategy,2023.2.3,Win32,60.24096386,8,1,13,-0.072222222,-0.107407422,1,0,0,1.0994,Diorite_14,3,14,3,4,1.099,6,03,-0.354629601,-0.269444444,1,0,0,1.738,Andesite_rect,1,1.738,0,12,0,12,0,1,,,,,,,,,,,,,
65172fc7765bc8a93b141b68,SCR,2024-06-24_14h56.12.762,LearnStrategy,2023.2.3,Win32,60.24096386,8,1,14,-0.104629601,-0.084259288,1,0,0,1.6638,Diorite_14,3,14,3,4,1.664,4,10,0.353703732,-0.386111111,1,0,0,1.791,Pumice_rect,8,1.791,0,13,0,13,0,1,,,,,,,,,,,,,
65172fc7765bc8a93b141b68,SCR,2024-06-24_14h56.12.762,LearnStrategy,2023.2.3,Win32,60.24096386,8,1,15,-0.073148092,-0.060185199,1,0,0,1.1933,Diorite_14,3,14,3,4,1.193,5,14,0.146296353,-0.243518575,1,0,0,1.7403,Diorite_rect,3,1.74,1,14,0,14,0,1,,,,,,,,,,,,,
65172fc7765bc8a93b141b68,SCR,2024-06-24_14h56.12.762,LearnStrategy,2023.2.3,Win32,60.24096386,8,1,16,0.425,0.067592578,1,0,0,1.2894,Peridotite_06,7,06,4,7,1.289,7,06,0.109259288,-0.410185242,1,0,0,1.9646,Peridotite_rect,7,1.965,1,15,0,15,0,1,,,,,,,,,,,,,
65172fc7765bc8a93b141b68,SCR,2024-06-24_14h56.12.762,LearnStrategy,2023.2.3,Win32,60.24096386,8,2,1,,,,,,,,3,07,,,,,,,,,,,,,4,5.345,0,,,,,,0.445370399,-0.25,1,0,0,5.3453,Gabbro_rect,0,0,0,0,1,
65172fc7765bc8a93b141b68,SCR,2024-06-24_14h56.12.762,LearnStrategy,2023.2.3,Win32,60.24096386,8,2,2,,,,,,,,2,02,,,,,,,,,,,,,2,2.078,1,,,,,,-0.128703647,-0.25,1,0,0,2.0782,Basalt_rect,1,0,1,0,1,
65172fc7765bc8a93b141b68,SCR,2024-06-24_14h56.12.762,LearnStrategy,2023.2.3,Win32,60.24096386,8,2,3,,,,,,,,5,06,,,,,,,,,,,,,5,2.022,1,,,,,,-0.336111111,-0.412037065,1,0,0,2.0219,Obsidian_rect,2,0,2,0,1,
65172fc7765bc8a93b141b68,SCR,2024-06-24_14h56.12.762,LearnStrategy,2023.2.3,Win32,60.24096386,8,2,4,,,,,,,,4,01,,,,,,,,,,,,,1,3.387,0,,,,,,-0.407407379,-0.230555556,1,0,0,3.3868,Andesite_rect,3,0,3,0,1,
65172fc7765bc8a93b141b68,SCR,2024-06-24_14h56.12.762,LearnStrategy,2023.2.3,Win32,60.24096386,8,2,5,,,,,,,,6,07,,,,,,,,,,,,,6,4.829,1,,,,,,-0.066666667,-0.418518575,1,0,0,4.8287,Pegmatite_rect,4,0,4,0,1,
65172fc7765bc8a93b141b68,SCR,2024-06-24_14h56.12.762,LearnStrategy,2023.2.3,Win32,60.24096386,8,2,6,,,,,,,,7,08,,,,,,,,,,,,,7,1.907,1,,,,,,0.137037065,-0.392592621,1,0,0,1.907,Peridotite_rect,5,0,5,0,1,
65172fc7765bc8a93b141b68,SCR,2024-06-24_14h56.12.762,LearnStrategy,2023.2.3,Win32,60.24096386,8,2,7,,,,,,,,4,16,,,,,,,,,,,,,3,2.031,0,,,,,,0.1,-0.253703732,1,0,0,2.031,Diorite_rect,6,0,6,0,1,
65172fc7765bc8a93b141b68,SCR,2024-06-24_14h56.12.762,LearnStrategy,2023.2.3,Win32,60.24096386,8,2,8,,,,,,,,8,06,,,,,,,,,,,,,8,1.813,1,,,,,,0.342592621,-0.380555556,1,0,0,1.8132,Pumice_rect,7,0,7,0,1,
65172fc7765bc8a93b141b68,SCR,2024-06-24_14h56.12.762,LearnStrategy,2023.2.3,Win32,60.24096386,8,2,9,,,,,,,,8,09,,,,,,,,,,,,,4,3.831,0,,,,,,0.385185242,-0.257407464,1,0,0,3.8306,Gabbro_rect,8,0,8,0,1,
65172fc7765bc8a93b141b68,SCR,2024-06-24_14h56.12.762,LearnStrategy,2023.2.3,Win32,60.24096386,8,2,10,,,,,,,,6,15,,,,,,,,,,,,,4,2.582,0,,,,,,0.364814843,-0.261111111,1,0,0,2.5822,Gabbro_rect,9,0,9,0,1,
65172fc7765bc8a93b141b68,SCR,2024-06-24_14h56.12.762,LearnStrategy,2023.2.3,Win32,60.24096386,8,2,11,,,,,,,,3,02,,,,,,,,,,,,,1,2.933,0,,,,,,-0.344444444,-0.252777778,1,0,0,2.9327,Andesite_rect,10,0,10,0,1,
65172fc7765bc8a93b141b68,SCR,2024-06-24_14h56.12.762,LearnStrategy,2023.2.3,Win32,60.24096386,8,2,12,,,,,,,,2,11,,,,,,,,,,,,,3,1.667,0,,,,,,0.15648151,-0.249074131,1,0,0,1.6673,Diorite_rect,11,0,11,0,1,
65172fc7765bc8a93b141b68,SCR,2024-06-24_14h56.12.762,LearnStrategy,2023.2.3,Win32,60.24096386,8,2,13,,,,,,,,7,05,,,,,,,,,,,,,7,1.671,1,,,,,,0.134259288,-0.412963019,1,0,0,1.6709,Peridotite_rect,12,0,12,0,1,
65172fc7765bc8a93b141b68,SCR,2024-06-24_14h56.12.762,LearnStrategy,2023.2.3,Win32,60.24096386,8,2,14,,,,,,,,5,16,,,,,,,,,,,,,5,1.865,1,,,,,,-0.371296268,-0.409259288,1,0,0,1.8649,Obsidian_rect,13,0,13,0,1,
65172fc7765bc8a93b141b68,SCR,2024-06-24_14h56.12.762,LearnStrategy,2023.2.3,Win32,60.24096386,8,2,15,,,,,,,,1,06,,,,,,,,,,,,,2,3.263,0,,,,,,-0.154629601,-0.262963019,1,0,0,3.2632,Basalt_rect,14,0,14,0,1,
65172fc7765bc8a93b141b68,SCR,2024-06-24_14h56.12.762,LearnStrategy,2023.2.3,Win32,60.24096386,8,2,16,,,,,,,,1,04,,,,,,,,,,,,,6,2.21,0,,,,,,-0.127777778,-0.390740797,1,0,0,2.2097,Pegmatite_rect,15,0,15,0,1,
65172fc7765bc8a93b141b68,SCR,2024-06-24_14h56.12.762,LearnStrategy,2023.2.3,Win32,60.24096386,9,1,1,0.078703732,0.087037023,1,0,0,1.3227,Pumice_04,8,04,4,5,1.323,8,04,0.352777778,-0.405555556,1,0,0,1.4428,Pumice_rect,8,1.443,1,0,0,0,0,1,,,,,,,,,,,,,
65172fc7765bc8a93b141b68,SCR,2024-06-24_14h56.12.762,LearnStrategy,2023.2.3,Win32,60.24096386,9,1,2,0.240740797,-0.235185242,1,0,0,1.3488,Gabbro_12,4,12,2,6,1.349,4,12,-0.105555556,-0.244444444,1,0,0,1.0457,Basalt_rect,2,1.046,0,1,0,1,0,1,,,,,,,,,,,,,
65172fc7765bc8a93b141b68,SCR,2024-06-24_14h56.12.762,LearnStrategy,2023.2.3,Win32,60.24096386,9,1,3,0.225925954,-0.252777778,1,0,0,1.4294,Gabbro_12,4,12,2,6,1.429,3,09,0.366666667,-0.262037065,1,0,0,3.4083,Gabbro_rect,4,3.408,1,2,0,2,0,1,,,,,,,,,,,,,
65172fc7765bc8a93b141b68,SCR,2024-06-24_14h56.12.762,LearnStrategy,2023.2.3,Win32,60.24096386,9,1,4,0.239814843,-0.237963019,1,0,0,1.6985,Gabbro_12,4,12,2,6,1.698,6,08,0.375,-0.244444444,1,0,0,3.73,Gabbro_rect,4,3.73,1,3,0,3,0,1,,,,,,,,,,,,,
65172fc7765bc8a93b141b68,SCR,2024-06-24_14h56.12.762,LearnStrategy,2023.2.3,Win32,60.24096386,9,1,5,-0.533333333,-0.268518575,1,0,0,2.3199,Gabbro_10,4,10,2,1,2.32,4,10,-0.174074046,-0.232407464,1,0,0,2.3812,Basalt_rect,2,2.381,0,4,0,4,0,1,,,,,,,,,,,,,
65172fc7765bc8a93b141b68,SCR,2024-06-24_14h56.12.762,LearnStrategy,2023.2.3,Win32,60.24096386,9,1,6,-0.541666667,-0.232407464,1,0,0,2.2996,Gabbro_10,4,10,2,1,2.3,4,08,0.341666667,-0.232407464,1,0,0,1.2606,Gabbro_rect,4,1.261,1,5,0,5,0,1,,,,,,,,,,,,,
65172fc7765bc8a93b141b68,SCR,2024-06-24_14h56.12.762,LearnStrategy,2023.2.3,Win32,60.24096386,9,1,7,0.237037065,-0.123148176,1,0,0,1.3176,Andesite_14,1,14,3,6,1.318,1,14,0.054629686,-0.248148176,1,0,0,1.8084,Diorite_rect,3,1.808,0,6,0,6,0,1,,,,,,,,,,,,,
65172fc7765bc8a93b141b68,SCR,2024-06-24_14h56.12.762,LearnStrategy,2023.2.3,Win32,60.24096386,9,1,8,0.250925954,-0.105555556,1,0,0,1.6337,Andesite_14,1,14,3,6,1.634,5,07,-0.380555556,-0.241666667,1,0,0,1.5269,Andesite_rect,1,1.527,1,7,0,7,0,1,,,,,,,,,,,,,
65172fc7765bc8a93b141b68,SCR,2024-06-24_14h56.12.762,LearnStrategy,2023.2.3,Win32,60.24096386,9,1,9,0.238888889,-0.112037065,1,0,0,1.5097,Andesite_14,1,14,3,6,1.51,6,12,-0.441666667,-0.265740797,1,0,0,1.4473,Andesite_rect,1,1.447,1,8,0,8,0,1,,,,,,,,,,,,,
65172fc7765bc8a93b141b68,SCR,2024-06-24_14h56.12.762,LearnStrategy,2023.2.3,Win32,60.24096386,9,1,10,0.212963019,0.4287037,1,0,0,3.0095,Pegmatite_12,6,12,6,6,3.01,1,11,0.142592621,-0.257407464,1,0,0,1.888,Diorite_rect,3,1.888,0,9,0,9,0,1,,,,,,,,,,,,,
65172fc7765bc8a93b141b68,SCR,2024-06-24_14h56.12.762,LearnStrategy,2023.2.3,Win32,60.24096386,9,1,11,0.228703732,-0.126851866,1,0,0,1.6622,Andesite_14,1,14,3,6,1.662,7,14,-0.155555556,-0.40648151,1,0,0,1.971,Pegmatite_rect,6,1.971,0,10,0,10,0,1,,,,,,,,,,,,,
65172fc7765bc8a93b141b68,SCR,2024-06-24_14h56.12.762,LearnStrategy,2023.2.3,Win32,60.24096386,9,1,12,0.242592621,-0.067592621,1,0,0,1.659,Andesite_14,1,14,3,6,1.659,3,09,0.104629686,-0.267592621,1,0,0,8.3737,Diorite_rect,3,8.374,0,11,0,11,0,1,,,,,,,,,,,,,
65172fc7765bc8a93b141b68,SCR,2024-06-24_14h56.12.762,LearnStrategy,2023.2.3,Win32,60.24096386,9,1,13,0.212037065,-0.111111111,1,0,0,1.1661,Andesite_14,1,14,3,6,1.166,1,03,-0.481481467,-0.247222222,1,0,0,1.3037,Andesite_rect,1,1.304,1,12,0,12,0,1,,,,,,,,,,,,,
65172fc7765bc8a93b141b68,SCR,2024-06-24_14h56.12.762,LearnStrategy,2023.2.3,Win32,60.24096386,9,1,14,0.553703817,0.096296268,1,0,0,1.6152,Diorite_13,3,13,4,8,1.615,3,13,-0.325925912,-0.250925954,1,0,0,4.3068,Andesite_rect,1,4.307,0,13,0,13,0,1,,,,,,,,,,,,,
65172fc7765bc8a93b141b68,SCR,2024-06-24_14h56.12.762,LearnStrategy,2023.2.3,Win32,60.24096386,9,1,15,0.233333333,-0.086111111,1,0,0,2.6276,Andesite_14,1,14,3,6,2.628,2,05,0.117592621,-0.248148176,1,0,0,2.1344,Diorite_rect,3,2.134,0,14,0,14,0,1,,,,,,,,,,,,,
65172fc7765bc8a93b141b68,SCR,2024-06-24_14h56.12.762,LearnStrategy,2023.2.3,Win32,60.24096386,9,1,16,0.212963019,-0.099074088,1,0,0,1.6614,Andesite_14,1,14,3,6,1.661,2,10,-0.455555556,-0.251851908,1,0,0,1.7513,Andesite_rect,1,1.751,1,15,0,15,0,1,,,,,,,,,,,,,
65172fc7765bc8a93b141b68,SCR,2024-06-24_14h56.12.762,LearnStrategy,2023.2.3,Win32,60.24096386,9,2,1,,,,,,,,2,14,,,,,,,,,,,,,3,6.14,0,,,,,,0.113888889,-0.262037065,1,0,0,6.1401,Diorite_rect,0,0,0,0,1,
65172fc7765bc8a93b141b68,SCR,2024-06-24_14h56.12.762,LearnStrategy,2023.2.3,Win32,60.24096386,9,2,2,,,,,,,,8,15,,,,,,,,,,,,,8,1.678,1,,,,,,0.369444444,-0.412037065,1,0,0,1.6783,Pumice_rect,1,0,1,0,1,
65172fc7765bc8a93b141b68,SCR,2024-06-24_14h56.12.762,LearnStrategy,2023.2.3,Win32,60.24096386,9,2,3,,,,,,,,5,04,,,,,,,,,,,,,5,2.084,1,,,,,,-0.450925912,-0.397222222,1,0,0,2.0836,Obsidian_rect,2,0,2,0,1,
65172fc7765bc8a93b141b68,SCR,2024-06-24_14h56.12.762,LearnStrategy,2023.2.3,Win32,60.24096386,9,2,4,,,,,,,,3,08,,,,,,,,,,,,,3,4.8,1,,,,,,0.128703732,-0.268518575,1,0,0,4.8001,Diorite_rect,3,0,3,0,1,
65172fc7765bc8a93b141b68,SCR,2024-06-24_14h56.12.762,LearnStrategy,2023.2.3,Win32,60.24096386,9,2,5,,,,,,,,6,05,,,,,,,,,,,,,1,9.629,0,,,,,,-0.390740712,-0.254629686,1,0,0,9.6294,Andesite_rect,4,0,4,0,1,
65172fc7765bc8a93b141b68,SCR,2024-06-24_14h56.12.762,LearnStrategy,2023.2.3,Win32,60.24096386,9,2,6,,,,,,,,3,11,,,,,,,,,,,,,3,4.444,1,,,,,,0.128703732,-0.269444444,1,0,0,4.4436,Diorite_rect,5,0,5,0,1,
65172fc7765bc8a93b141b68,SCR,2024-06-24_14h56.12.762,LearnStrategy,2023.2.3,Win32,60.24096386,9,2,7,,,,,,,,6,10,,,,,,,,,,,,,7,1.775,0,,,,,,0.120370399,-0.400925954,1,0,0,1.7748,Peridotite_rect,6,0,6,0,1,
65172fc7765bc8a93b141b68,SCR,2024-06-24_14h56.12.762,LearnStrategy,2023.2.3,Win32,60.24096386,9,2,8,,,,,,,,4,05,,,,,,,,,,,,,4,3.405,1,,,,,,0.370370399,-0.249074131,1,0,0,3.4054,Gabbro_rect,7,0,7,0,1,
65172fc7765bc8a93b141b68,SCR,2024-06-24_14h56.12.762,LearnStrategy,2023.2.3,Win32,60.24096386,9,2,9,,,,,,,,1,07,,,,,,,,,,,,,6,4,0,,,,,,-0.125,-0.403703732,1,0,0,3.9997,Pegmatite_rect,8,0,8,0,1,
65172fc7765bc8a93b141b68,SCR,2024-06-24_14h56.12.762,LearnStrategy,2023.2.3,Win32,60.24096386,9,2,10,,,,,,,,7,16,,,,,,,,,,,,,7,1.779,1,,,,,,0.118518575,-0.394444444,1,0,0,1.7788,Peridotite_rect,9,0,9,0,1,
65172fc7765bc8a93b141b68,SCR,2024-06-24_14h56.12.762,LearnStrategy,2023.2.3,Win32,60.24096386,9,2,11,,,,,,,,7,12,,,,,,,,,,,,,7,2.422,1,,,,,,0.132407464,-0.408333333,1,0,0,2.4217,Peridotite_rect,10,0,10,0,1,
65172fc7765bc8a93b141b68,SCR,2024-06-24_14h56.12.762,LearnStrategy,2023.2.3,Win32,60.24096386,9,2,12,,,,,,,,4,15,,,,,,,,,,,,,3,13.328,0,,,,,,0.093518575,-0.250925954,1,0,0,13.3276,Diorite_rect,11,0,11,0,1,
65172fc7765bc8a93b141b68,SCR,2024-06-24_14h56.12.762,LearnStrategy,2023.2.3,Win32,60.24096386,9,2,13,,,,,,,,8,08,,,,,,,,,,,,,8,1.528,1,,,,,,0.460185242,-0.417592621,1,0,0,1.528,Pumice_rect,12,0,12,0,1,
65172fc7765bc8a93b141b68,SCR,2024-06-24_14h56.12.762,LearnStrategy,2023.2.3,Win32,60.24096386,9,2,14,,,,,,,,1,16,,,,,,,,,,,,,1,5.266,1,,,,,,-0.364814801,-0.242592621,1,0,0,5.2664,Andesite_rect,13,0,13,0,1,
65172fc7765bc8a93b141b68,SCR,2024-06-24_14h56.12.762,LearnStrategy,2023.2.3,Win32,60.24096386,9,2,15,,,,,,,,5,10,,,,,,,,,,,,,5,4.119,1,,,,,,-0.376851824,-0.421296353,1,0,0,4.1185,Obsidian_rect,14,0,14,0,1,
65172fc7765bc8a93b141b68,SCR,2024-06-24_14h56.12.762,LearnStrategy,2023.2.3,Win32,60.24096386,9,2,16,,,,,,,,2,04,,,,,,,,,,,,,2,3.659,1,,,,,,-0.128703647,-0.252777778,1,0,0,3.659,Basalt_rect,15,0,15,0,1,
65172fc7765bc8a93b141b68,SCR,2024-06-24_14h56.12.762,LearnStrategy,2023.2.3,Win32,60.24096386,,,,,,,,,,,,,,,,,,,,,,,,,,,,,,,,,,,,,,,,,,,,,0
65172fc7765bc8a93b141b68,SCR,2024-06-24_14h56.12.762,LearnStrategy,2023.2.3,Win32,60.24096386,,,,,,,,,,,,,,,,,,,,,,,,,,,,,,,,,,,,,,,,,,,,,
65172fc7765bc8a93b141b68,SCR,2024-06-24_14h56.12.762,LearnStrategy,2023.2.3,Win32,60.24096386,,,,,,,,,,,5,11,1,1,,,,,,,,,,,,,,,,,,,,,,,,,,,,,,,
65172fc7765bc8a93b141b68,SCR,2024-06-24_14h56.12.762,LearnStrategy,2023.2.3,Win32,60.24096386,,,,,,,,,,,1,11,1,2,,,,,,,,,,,,,,,,,,,,,,,,,,,,,,,
65172fc7765bc8a93b141b68,SCR,2024-06-24_14h56.12.762,LearnStrategy,2023.2.3,Win32,60.24096386,,,,,,,,,,,1,09,1,3,,,,,,,,,,,,,,,,,,,,,,,,,,,,,,,
65172fc7765bc8a93b141b68,SCR,2024-06-24_14h56.12.762,LearnStrategy,2023.2.3,Win32,60.24096386,,,,,,,,,,,8,16,1,4,,,,,,,,,,,,,,,,,,,,,,,,,,,,,,,
65172fc7765bc8a93b141b68,SCR,2024-06-24_14h56.12.762,LearnStrategy,2023.2.3,Win32,60.24096386,,,,,,,,,,,3,06,1,5,,,,,,,,,,,,,,,,,,,,,,,,,,,,,,,
65172fc7765bc8a93b141b68,SCR,2024-06-24_14h56.12.762,LearnStrategy,2023.2.3,Win32,60.24096386,,,,,,,,,,,7,15,1,6,,,,,,,,,,,,,,,,,,,,,,,,,,,,,,,
65172fc7765bc8a93b141b68,SCR,2024-06-24_14h56.12.762,LearnStrategy,2023.2.3,Win32,60.24096386,,,,,,,,,,,1,02,1,7,,,,,,,,,,,,,,,,,,,,,,,,,,,,,,,
65172fc7765bc8a93b141b68,SCR,2024-06-24_14h56.12.762,LearnStrategy,2023.2.3,Win32,60.24096386,,,,,,,,,,,4,08,1,8,,,,,,,,,,,,,,,,,,,,,,,,,,,,,,,
65172fc7765bc8a93b141b68,SCR,2024-06-24_14h56.12.762,LearnStrategy,2023.2.3,Win32,60.24096386,,,,,,,,,,,4,10,2,1,,,,,,,,,,,,,,,,,,,,,,,,,,,,,,,
65172fc7765bc8a93b141b68,SCR,2024-06-24_14h56.12.762,LearnStrategy,2023.2.3,Win32,60.24096386,,,,,,,,,,,3,16,2,2,,,,,,,,,,,,,,,,,,,,,,,,,,,,,,,
65172fc7765bc8a93b141b68,SCR,2024-06-24_14h56.12.762,LearnStrategy,2023.2.3,Win32,60.24096386,,,,,,,,,,,2,05,2,3,,,,,,,,,,,,,,,,,,,,,,,,,,,,,,,
65172fc7765bc8a93b141b68,SCR,2024-06-24_14h56.12.762,LearnStrategy,2023.2.3,Win32,60.24096386,,,,,,,,,,,6,03,2,4,,,,,,,,,,,,,,,,,,,,,,,,,,,,,,,
65172fc7765bc8a93b141b68,SCR,2024-06-24_14h56.12.762,LearnStrategy,2023.2.3,Win32,60.24096386,,,,,,,,,,,6,09,2,5,,,,,,,,,,,,,,,,,,,,,,,,,,,,,,,
65172fc7765bc8a93b141b68,SCR,2024-06-24_14h56.12.762,LearnStrategy,2023.2.3,Win32,60.24096386,,,,,,,,,,,4,12,2,6,,,,,,,,,,,,,,,,,,,,,,,,,,,,,,,
65172fc7765bc8a93b141b68,SCR,2024-06-24_14h56.12.762,LearnStrategy,2023.2.3,Win32,60.24096386,,,,,,,,,,,2,12,2,7,,,,,,,,,,,,,,,,,,,,,,,,,,,,,,,
65172fc7765bc8a93b141b68,SCR,2024-06-24_14h56.12.762,LearnStrategy,2023.2.3,Win32,60.24096386,,,,,,,,,,,4,11,2,8,,,,,,,,,,,,,,,,,,,,,,,,,,,,,,,
65172fc7765bc8a93b141b68,SCR,2024-06-24_14h56.12.762,LearnStrategy,2023.2.3,Win32,60.24096386,,,,,,,,,,,7,13,3,1,,,,,,,,,,,,,,,,,,,,,,,,,,,,,,,
65172fc7765bc8a93b141b68,SCR,2024-06-24_14h56.12.762,LearnStrategy,2023.2.3,Win32,60.24096386,,,,,,,,,,,5,05,3,2,,,,,,,,,,,,,,,,,,,,,,,,,,,,,,,
65172fc7765bc8a93b141b68,SCR,2024-06-24_14h56.12.762,LearnStrategy,2023.2.3,Win32,60.24096386,,,,,,,,,,,6,16,3,3,,,,,,,,,,,,,,,,,,,,,,,,,,,,,,,
65172fc7765bc8a93b141b68,SCR,2024-06-24_14h56.12.762,LearnStrategy,2023.2.3,Win32,60.24096386,,,,,,,,,,,3,14,3,4,,,,,,,,,,,,,,,,,,,,,,,,,,,,,,,
65172fc7765bc8a93b141b68,SCR,2024-06-24_14h56.12.762,LearnStrategy,2023.2.3,Win32,60.24096386,,,,,,,,,,,6,06,3,5,,,,,,,,,,,,,,,,,,,,,,,,,,,,,,,
65172fc7765bc8a93b141b68,SCR,2024-06-24_14h56.12.762,LearnStrategy,2023.2.3,Win32,60.24096386,,,,,,,,,,,1,14,3,6,,,,,,,,,,,,,,,,,,,,,,,,,,,,,,,
65172fc7765bc8a93b141b68,SCR,2024-06-24_14h56.12.762,LearnStrategy,2023.2.3,Win32,60.24096386,,,,,,,,,,,8,05,3,7,,,,,,,,,,,,,,,,,,,,,,,,,,,,,,,
65172fc7765bc8a93b141b68,SCR,2024-06-24_14h56.12.762,LearnStrategy,2023.2.3,Win32,60.24096386,,,,,,,,,,,1,03,3,8,,,,,,,,,,,,,,,,,,,,,,,,,,,,,,,
65172fc7765bc8a93b141b68,SCR,2024-06-24_14h56.12.762,LearnStrategy,2023.2.3,Win32,60.24096386,,,,,,,,,,,2,09,4,1,,,,,,,,,,,,,,,,,,,,,,,,,,,,,,,
65172fc7765bc8a93b141b68,SCR,2024-06-24_14h56.12.762,LearnStrategy,2023.2.3,Win32,60.24096386,,,,,,,,,,,4,14,4,2,,,,,,,,,,,,,,,,,,,,,,,,,,,,,,,
65172fc7765bc8a93b141b68,SCR,2024-06-24_14h56.12.762,LearnStrategy,2023.2.3,Win32,60.24096386,,,,,,,,,,,2,10,4,3,,,,,,,,,,,,,,,,,,,,,,,,,,,,,,,
65172fc7765bc8a93b141b68,SCR,2024-06-24_14h56.12.762,LearnStrategy,2023.2.3,Win32,60.24096386,,,,,,,,,,,3,09,4,4,,,,,,,,,,,,,,,,,,,,,,,,,,,,,,,
65172fc7765bc8a93b141b68,SCR,2024-06-24_14h56.12.762,LearnStrategy,2023.2.3,Win32,60.24096386,,,,,,,,,,,8,04,4,5,,,,,,,,,,,,,,,,,,,,,,,,,,,,,,,
65172fc7765bc8a93b141b68,SCR,2024-06-24_14h56.12.762,LearnStrategy,2023.2.3,Win32,60.24096386,,,,,,,,,,,7,07,4,6,,,,,,,,,,,,,,,,,,,,,,,,,,,,,,,
65172fc7765bc8a93b141b68,SCR,2024-06-24_14h56.12.762,LearnStrategy,2023.2.3,Win32,60.24096386,,,,,,,,,,,7,06,4,7,,,,,,,,,,,,,,,,,,,,,,,,,,,,,,,
65172fc7765bc8a93b141b68,SCR,2024-06-24_14h56.12.762,LearnStrategy,2023.2.3,Win32,60.24096386,,,,,,,,,,,3,13,4,8,,,,,,,,,,,,,,,,,,,,,,,,,,,,,,,
65172fc7765bc8a93b141b68,SCR,2024-06-24_14h56.12.762,LearnStrategy,2023.2.3,Win32,60.24096386,,,,,,,,,,,4,09,5,1,,,,,,,,,,,,,,,,,,,,,,,,,,,,,,,
65172fc7765bc8a93b141b68,SCR,2024-06-24_14h56.12.762,LearnStrategy,2023.2.3,Win32,60.24096386,,,,,,,,,,,2,06,5,2,,,,,,,,,,,,,,,,,,,,,,,,,,,,,,,
65172fc7765bc8a93b141b68,SCR,2024-06-24_14h56.12.762,LearnStrategy,2023.2.3,Win32,60.24096386,,,,,,,,,,,5,02,5,3,,,,,,,,,,,,,,,,,,,,,,,,,,,,,,,
65172fc7765bc8a93b141b68,SCR,2024-06-24_14h56.12.762,LearnStrategy,2023.2.3,Win32,60.24096386,,,,,,,,,,,6,08,5,4,,,,,,,,,,,,,,,,,,,,,,,,,,,,,,,
65172fc7765bc8a93b141b68,SCR,2024-06-24_14h56.12.762,LearnStrategy,2023.2.3,Win32,60.24096386,,,,,,,,,,,3,12,5,5,,,,,,,,,,,,,,,,,,,,,,,,,,,,,,,
65172fc7765bc8a93b141b68,SCR,2024-06-24_14h56.12.762,LearnStrategy,2023.2.3,Win32,60.24096386,,,,,,,,,,,1,01,5,6,,,,,,,,,,,,,,,,,,,,,,,,,,,,,,,
65172fc7765bc8a93b141b68,SCR,2024-06-24_14h56.12.762,LearnStrategy,2023.2.3,Win32,60.24096386,,,,,,,,,,,8,02,5,7,,,,,,,,,,,,,,,,,,,,,,,,,,,,,,,
65172fc7765bc8a93b141b68,SCR,2024-06-24_14h56.12.762,LearnStrategy,2023.2.3,Win32,60.24096386,,,,,,,,,,,7,14,5,8,,,,,,,,,,,,,,,,,,,,,,,,,,,,,,,
65172fc7765bc8a93b141b68,SCR,2024-06-24_14h56.12.762,LearnStrategy,2023.2.3,Win32,60.24096386,,,,,,,,,,,8,14,6,1,,,,,,,,,,,,,,,,,,,,,,,,,,,,,,,
65172fc7765bc8a93b141b68,SCR,2024-06-24_14h56.12.762,LearnStrategy,2023.2.3,Win32,60.24096386,,,,,,,,,,,7,10,6,2,,,,,,,,,,,,,,,,,,,,,,,,,,,,,,,
65172fc7765bc8a93b141b68,SCR,2024-06-24_14h56.12.762,LearnStrategy,2023.2.3,Win32,60.24096386,,,,,,,,,,,2,16,6,3,,,,,,,,,,,,,,,,,,,,,,,,,,,,,,,
65172fc7765bc8a93b141b68,SCR,2024-06-24_14h56.12.762,LearnStrategy,2023.2.3,Win32,60.24096386,,,,,,,,,,,5,09,6,4,,,,,,,,,,,,,,,,,,,,,,,,,,,,,,,
65172fc7765bc8a93b141b68,SCR,2024-06-24_14h56.12.762,LearnStrategy,2023.2.3,Win32,60.24096386,,,,,,,,,,,8,13,6,5,,,,,,,,,,,,,,,,,,,,,,,,,,,,,,,
65172fc7765bc8a93b141b68,SCR,2024-06-24_14h56.12.762,LearnStrategy,2023.2.3,Win32,60.24096386,,,,,,,,,,,6,12,6,6,,,,,,,,,,,,,,,,,,,,,,,,,,,,,,,
65172fc7765bc8a93b141b68,SCR,2024-06-24_14h56.12.762,LearnStrategy,2023.2.3,Win32,60.24096386,,,,,,,,,,,5,14,6,7,,,,,,,,,,,,,,,,,,,,,,,,,,,,,,,
65172fc7765bc8a93b141b68,SCR,2024-06-24_14h56.12.762,LearnStrategy,2023.2.3,Win32,60.24096386,,,,,,,,,,,5,07,6,8,,,,,,,,,,,,,,,,,,,,,,,,,,,,,,,