participant,condition,date,expName,psychopyVersion,OS,frameRate,block,phase,trial,learn_mouse_2.x,learn_mouse_2.y,learn_mouse_2.leftButton,learn_mouse_2.midButton,learn_mouse_2.rightButton,learn_mouse_2.time,learn_mouse_2.clicked_name,cat,token,row,col,t_select,cat_mouse_l.x,cat_mouse_l.y,cat_mouse_l.leftButton,cat_mouse_l.midButton,cat_mouse_l.rightButton,cat_mouse_l.time,cat_mouse_l.clicked_name,resp,t_resp,corr,train_trials.thisRepN,train_trials.thisTrialN,train_trials.thisN,train_trials.thisIndex,train_trials.ran,cat_mouse_t.x,cat_mouse_t.y,cat_mouse_t.leftButton,cat_mouse_t.midButton,cat_mouse_t.rightButton,cat_mouse_t.time,cat_mouse_t.clicked_name,test_trials.thisRepN,test_trials.thisTrialN,test_trials.thisN,test_trials.thisIndex,test_trials.ran,Bonus
6518cf249463264599a7918d,TCR,2024-06-11_12h13.49.316,LearnStrategy,2023.2.3,Win32,59.88023952,,,,,,,,,,,,,,,,,,,,,,,,,,,,,,,,,,,,,,,,,,,
6518cf249463264599a7918d,TCR,2024-06-11_12h13.49.316,LearnStrategy,2023.2.3,Win32,59.88023952,1,1,1,0.035185185,0.009259259,1,0,0,2.7454,rock_grid_rect_2,5,14,-1,-1,2.745,-0.377777778,-0.412962963,1,0,0,12.3752,Obsidian_rect,5,12.375,1,0,0,0,0,1,,,,,,,,,,,,,
6518cf249463264599a7918d,TCR,2024-06-11_12h13.49.316,LearnStrategy,2023.2.3,Win32,59.88023952,1,1,2,0.031481481,0.007407407,1,0,0,1.2741,rock_grid_rect_2,1,04,-1,-1,1.274,-0.112037037,-0.267592593,1,0,0,4.3555,Basalt_rect,2,4.356,0,1,0,1,0,1,,,,,,,,,,,,,
6518cf249463264599a7918d,TCR,2024-06-11_12h13.49.316,LearnStrategy,2023.2.3,Win32,59.88023952,1,1,3,-0.073148148,0.006481481,1,0,0,1.1539,rock_grid_rect_2,2,12,-1,-1,1.154,-0.071296296,-0.401851852,1,0,0,8.5537,Pegmatite_rect,6,8.554,0,2,0,2,0,1,,,,,,,,,,,,,
6518cf249463264599a7918d,TCR,2024-06-11_12h13.49.316,LearnStrategy,2023.2.3,Win32,59.88023952,1,1,4,-0.150925926,0.016666667,1,0,0,1.3289,rock_grid_rect_2,8,09,-1,-1,1.329,0.146296296,-0.264814815,1,0,0,5.5207,Diorite_rect,3,5.521,0,3,0,3,0,1,,,,,,,,,,,,,
6518cf249463264599a7918d,TCR,2024-06-11_12h13.49.316,LearnStrategy,2023.2.3,Win32,59.88023952,1,1,5,0.00462963,0.001851852,1,0,0,1.0219,rock_grid_rect_2,4,15,-1,-1,1.022,0.094444444,-0.397222222,1,0,0,5.9086,Peridotite_rect,7,5.909,0,4,0,4,0,1,,,,,,,,,,,,,
6518cf249463264599a7918d,TCR,2024-06-11_12h13.49.316,LearnStrategy,2023.2.3,Win32,59.88023952,1,1,6,-0.069444444,0.007407407,1,0,0,1.0383,rock_grid_rect_2,6,12,-1,-1,1.038,0.07037037,-0.389814815,1,0,0,7.4083,Peridotite_rect,7,7.408,0,5,0,5,0,1,,,,,,,,,,,,,
6518cf249463264599a7918d,TCR,2024-06-11_12h13.49.316,LearnStrategy,2023.2.3,Win32,59.88023952,1,1,7,0.078703704,-0.010185185,1,0,0,0.9888,rock_grid_rect_2,7,12,-1,-1,0.989,0.125,-0.4,1,0,0,8.3756,Peridotite_rect,7,8.376,1,6,0,6,0,1,,,,,,,,,,,,,
6518cf249463264599a7918d,TCR,2024-06-11_12h13.49.316,LearnStrategy,2023.2.3,Win32,59.88023952,1,1,8,-0.063888889,0.010185185,1,0,0,0.9706,rock_grid_rect_2,6,13,-1,-1,0.971,0.417592593,-0.400925926,1,0,0,5.2572,Pumice_rect,8,5.257,0,7,0,7,0,1,,,,,,,,,,,,,
6518cf249463264599a7918d,TCR,2024-06-11_12h13.49.316,LearnStrategy,2023.2.3,Win32,59.88023952,1,1,9,-0.069444444,-0.009259259,1,0,0,1.5272,rock_grid_rect_2,2,08,-1,-1,1.527,-0.362037037,-0.401851852,1,0,0,7.2395,Obsidian_rect,5,7.24,0,8,0,8,0,1,,,,,,,,,,,,,
6518cf249463264599a7918d,TCR,2024-06-11_12h13.49.316,LearnStrategy,2023.2.3,Win32,59.88023952,1,1,10,-0.132407407,-0.00462963,1,0,0,1.3527,rock_grid_rect_2,3,14,-1,-1,1.353,0.342592593,-0.235185185,1,0,0,17.404,Gabbro_rect,4,17.404,0,9,0,9,0,1,,,,,,,,,,,,,
6518cf249463264599a7918d,TCR,2024-06-11_12h13.49.316,LearnStrategy,2023.2.3,Win32,59.88023952,1,1,11,-0.171296296,0.007407407,1,0,0,0.779,rock_grid_rect_2,4,13,-1,-1,0.779,0.373148148,-0.252777778,1,0,0,17.6852,Gabbro_rect,4,17.685,1,10,0,10,0,1,,,,,,,,,,,,,
6518cf249463264599a7918d,TCR,2024-06-11_12h13.49.316,LearnStrategy,2023.2.3,Win32,59.88023952,1,1,12,-0.175,-0.003703704,1,0,0,0.905,rock_grid_rect_2,3,07,-1,-1,0.905,0.09537037,-0.237037037,1,0,0,12.9585,Diorite_rect,3,12.958,1,11,0,11,0,1,,,,,,,,,,,,,
6518cf249463264599a7918d,TCR,2024-06-11_12h13.49.316,LearnStrategy,2023.2.3,Win32,59.88023952,1,1,13,-0.160185185,0.000925926,1,0,0,1.1387,rock_grid_rect_2,8,02,-1,-1,1.139,0.375925926,-0.4,1,0,0,2.887,Pumice_rect,8,2.887,1,12,0,12,0,1,,,,,,,,,,,,,
6518cf249463264599a7918d,TCR,2024-06-11_12h13.49.316,LearnStrategy,2023.2.3,Win32,59.88023952,1,1,14,-0.139814815,-0.015740741,1,0,0,0.8623,rock_grid_rect_2,7,14,-1,-1,0.862,0.112037037,-0.383333333,1,0,0,4.4552,Peridotite_rect,7,4.455,1,13,0,13,0,1,,,,,,,,,,,,,
6518cf249463264599a7918d,TCR,2024-06-11_12h13.49.316,LearnStrategy,2023.2.3,Win32,59.88023952,1,1,15,-0.017592593,-0.001851852,1,0,0,1.2295,rock_grid_rect_2,1,05,-1,-1,1.23,0.140740741,-0.413888889,1,0,0,29.8463,Peridotite_rect,7,29.846,0,14,0,14,0,1,,,,,,,,,,,,,
6518cf249463264599a7918d,TCR,2024-06-11_12h13.49.316,LearnStrategy,2023.2.3,Win32,59.88023952,1,1,16,-0.141666667,0.005555556,1,0,0,1.9886,rock_grid_rect_2,5,16,-1,-1,1.989,-0.424074074,-0.40462963,1,0,0,1.5574,Obsidian_rect,5,1.557,1,15,0,15,0,1,,,,,,,,,,,,,
6518cf249463264599a7918d,TCR,2024-06-11_12h13.49.316,LearnStrategy,2023.2.3,Win32,59.88023952,1,2,1,,,,,,,,8,04,,,,,,,,,,,8,3.237,1,,,,,,0.418518519,-0.396296296,1,0,0,3.2368,Pumice_rect,0,0,0,0,1,
6518cf249463264599a7918d,TCR,2024-06-11_12h13.49.316,LearnStrategy,2023.2.3,Win32,59.88023952,1,2,2,,,,,,,,7,13,,,,,,,,,,,7,5.108,1,,,,,,0.075925926,-0.390740741,1,0,0,5.1079,Peridotite_rect,1,0,1,0,1,
6518cf249463264599a7918d,TCR,2024-06-11_12h13.49.316,LearnStrategy,2023.2.3,Win32,59.88023952,1,2,3,,,,,,,,1,02,,,,,,,,,,,1,28.105,1,,,,,,-0.436111111,-0.242592593,1,0,0,28.1054,Andesite_rect,2,0,2,0,1,
6518cf249463264599a7918d,TCR,2024-06-11_12h13.49.316,LearnStrategy,2023.2.3,Win32,59.88023952,1,2,4,,,,,,,,5,11,,,,,,,,,,,5,2.626,1,,,,,,-0.372222222,-0.405555556,1,0,0,2.6258,Obsidian_rect,3,0,3,0,1,
6518cf249463264599a7918d,TCR,2024-06-11_12h13.49.316,LearnStrategy,2023.2.3,Win32,59.88023952,1,2,5,,,,,,,,7,02,,,,,,,,,,,7,4.074,1,,,,,,0.132407407,-0.389814815,1,0,0,4.074,Peridotite_rect,4,0,4,0,1,
6518cf249463264599a7918d,TCR,2024-06-11_12h13.49.316,LearnStrategy,2023.2.3,Win32,59.88023952,1,2,6,,,,,,,,3,16,,,,,,,,,,,1,28.219,0,,,,,,-0.361111111,-0.24537037,1,0,0,28.2192,Andesite_rect,5,0,5,0,1,
6518cf249463264599a7918d,TCR,2024-06-11_12h13.49.316,LearnStrategy,2023.2.3,Win32,59.88023952,1,2,7,,,,,,,,2,01,,,,,,,,,,,2,13.041,1,,,,,,-0.163888889,-0.246296296,1,0,0,13.0411,Basalt_rect,6,0,6,0,1,
6518cf249463264599a7918d,TCR,2024-06-11_12h13.49.316,LearnStrategy,2023.2.3,Win32,59.88023952,1,2,8,,,,,,,,6,07,,,,,,,,,,,6,11.342,1,,,,,,-0.111111111,-0.403703704,1,0,0,11.3419,Pegmatite_rect,7,0,7,0,1,
6518cf249463264599a7918d,TCR,2024-06-11_12h13.49.316,LearnStrategy,2023.2.3,Win32,59.88023952,1,2,9,,,,,,,,3,09,,,,,,,,,,,3,17.786,1,,,,,,0.131481481,-0.252777778,1,0,0,17.7861,Diorite_rect,8,0,8,0,1,
6518cf249463264599a7918d,TCR,2024-06-11_12h13.49.316,LearnStrategy,2023.2.3,Win32,59.88023952,1,2,10,,,,,,,,6,16,,,,,,,,,,,6,13.791,1,,,,,,-0.089814815,-0.398148148,1,0,0,13.7911,Pegmatite_rect,9,0,9,0,1,
6518cf249463264599a7918d,TCR,2024-06-11_12h13.49.316,LearnStrategy,2023.2.3,Win32,59.88023952,1,2,11,,,,,,,,4,14,,,,,,,,,,,4,7.015,1,,,,,,0.381481481,-0.250925926,1,0,0,7.0153,Gabbro_rect,10,0,10,0,1,
6518cf249463264599a7918d,TCR,2024-06-11_12h13.49.316,LearnStrategy,2023.2.3,Win32,59.88023952,1,2,12,,,,,,,,2,14,,,,,,,,,,,2,34.091,1,,,,,,-0.161111111,-0.25,1,0,0,34.0907,Basalt_rect,11,0,11,0,1,
6518cf249463264599a7918d,TCR,2024-06-11_12h13.49.316,LearnStrategy,2023.2.3,Win32,59.88023952,1,2,13,,,,,,,,5,08,,,,,,,,,,,5,1.469,1,,,,,,-0.42037037,-0.412037037,1,0,0,1.4693,Obsidian_rect,12,0,12,0,1,
6518cf249463264599a7918d,TCR,2024-06-11_12h13.49.316,LearnStrategy,2023.2.3,Win32,59.88023952,1,2,14,,,,,,,,4,05,,,,,,,,,,,7,7.158,0,,,,,,0.088888889,-0.414814815,1,0,0,7.158,Peridotite_rect,13,0,13,0,1,
6518cf249463264599a7918d,TCR,2024-06-11_12h13.49.316,LearnStrategy,2023.2.3,Win32,59.88023952,1,2,15,,,,,,,,8,16,,,,,,,,,,,8,4.592,1,,,,,,0.355555556,-0.385185185,1,0,0,4.5916,Pumice_rect,14,0,14,0,1,
6518cf249463264599a7918d,TCR,2024-06-11_12h13.49.316,LearnStrategy,2023.2.3,Win32,59.88023952,1,2,16,,,,,,,,1,14,,,,,,,,,,,6,23.091,0,,,,,,-0.111111111,-0.414814815,1,0,0,23.0912,Pegmatite_rect,15,0,15,0,1,
6518cf249463264599a7918d,TCR,2024-06-11_12h13.49.316,LearnStrategy,2023.2.3,Win32,59.88023952,2,1,1,-0.025,-0.009259259,1,0,0,2.0807,rock_grid_rect_2,4,12,-1,-1,2.081,-0.161111111,-0.268518519,1,0,0,14.6424,Basalt_rect,2,14.642,0,0,0,0,0,1,,,,,,,,,,,,,
6518cf249463264599a7918d,TCR,2024-06-11_12h13.49.316,LearnStrategy,2023.2.3,Win32,59.88023952,2,1,2,-0.149074074,-0.015740741,1,0,0,0.9545,rock_grid_rect_2,4,08,-1,-1,0.955,0.338888889,-0.257407407,1,0,0,3.8941,Gabbro_rect,4,3.894,1,1,0,1,0,1,,,,,,,,,,,,,
6518cf249463264599a7918d,TCR,2024-06-11_12h13.49.316,LearnStrategy,2023.2.3,Win32,59.88023952,2,1,3,-0.172222222,0,1,0,0,1.1302,rock_grid_rect_2,4,13,-1,-1,1.13,0.330555556,-0.251851852,1,0,0,12.9203,Gabbro_rect,4,12.92,1,2,0,2,0,1,,,,,,,,,,,,,
6518cf249463264599a7918d,TCR,2024-06-11_12h13.49.316,LearnStrategy,2023.2.3,Win32,59.88023952,2,1,4,0.005555556,-0.003703704,1,0,0,1.0371,rock_grid_rect_2,8,03,-1,-1,1.037,0.447222222,-0.412037037,1,0,0,1.769,Pumice_rect,8,1.769,1,3,0,3,0,1,,,,,,,,,,,,,
6518cf249463264599a7918d,TCR,2024-06-11_12h13.49.316,LearnStrategy,2023.2.3,Win32,59.88023952,2,1,5,-0.169444444,0.012037037,1,0,0,2.5809,rock_grid_rect_2,3,02,-1,-1,2.581,0.068518519,-0.243518519,1,0,0,7.8039,Diorite_rect,3,7.804,1,4,0,4,0,1,,,,,,,,,,,,,
6518cf249463264599a7918d,TCR,2024-06-11_12h13.49.316,LearnStrategy,2023.2.3,Win32,59.88023952,2,1,6,-0.022222222,-0.008333333,1,0,0,0.9691,rock_grid_rect_2,7,14,-1,-1,0.969,0.137037037,-0.408333333,1,0,0,2.1508,Peridotite_rect,7,2.151,1,5,0,5,0,1,,,,,,,,,,,,,
6518cf249463264599a7918d,TCR,2024-06-11_12h13.49.316,LearnStrategy,2023.2.3,Win32,59.88023952,2,1,7,-0.123148148,0.008333333,1,0,0,0.9812,rock_grid_rect_2,2,12,-1,-1,0.981,-0.133333333,-0.234259259,1,0,0,4.9913,Basalt_rect,2,4.991,1,6,0,6,0,1,,,,,,,,,,,,,
6518cf249463264599a7918d,TCR,2024-06-11_12h13.49.316,LearnStrategy,2023.2.3,Win32,59.88023952,2,1,8,-0.07962963,-0.016666667,1,0,0,0.7138,rock_grid_rect_2,3,06,-1,-1,0.714,-0.408333333,-0.238888889,1,0,0,22.5592,Andesite_rect,1,22.559,0,7,0,7,0,1,,,,,,,,,,,,,
6518cf249463264599a7918d,TCR,2024-06-11_12h13.49.316,LearnStrategy,2023.2.3,Win32,59.88023952,2,1,9,-0.137962963,-0.017592593,1,0,0,0.9546,rock_grid_rect_2,3,02,-1,-1,0.955,0.07962963,-0.25462963,1,0,0,2.5446,Diorite_rect,3,2.545,1,8,0,8,0,1,,,,,,,,,,,,,
6518cf249463264599a7918d,TCR,2024-06-11_12h13.49.316,LearnStrategy,2023.2.3,Win32,59.88023952,2,1,10,-0.194444444,0.001851852,1,0,0,1.5635,rock_grid_rect_2,1,01,-1,-1,1.564,-0.132407407,-0.260185185,1,0,0,12.359,Basalt_rect,2,12.359,0,9,0,9,0,1,,,,,,,,,,,,,
6518cf249463264599a7918d,TCR,2024-06-11_12h13.49.316,LearnStrategy,2023.2.3,Win32,59.88023952,2,1,11,-0.084259259,-0.002777778,1,0,0,0.9888,rock_grid_rect_2,6,11,-1,-1,0.989,-0.169444444,-0.388888889,1,0,0,16.059,Pegmatite_rect,6,16.059,1,10,0,10,0,1,,,,,,,,,,,,,
6518cf249463264599a7918d,TCR,2024-06-11_12h13.49.316,LearnStrategy,2023.2.3,Win32,59.88023952,2,1,12,-0.112037037,-0.002777778,1,0,0,1.1141,rock_grid_rect_2,4,15,-1,-1,1.114,0.318518519,-0.233333333,1,0,0,4.4882,Gabbro_rect,4,4.488,1,11,0,11,0,1,,,,,,,,,,,,,
6518cf249463264599a7918d,TCR,2024-06-11_12h13.49.316,LearnStrategy,2023.2.3,Win32,59.88023952,2,1,13,-0.173148148,-0.003703704,1,0,0,0.971,rock_grid_rect_2,3,02,-1,-1,0.971,-0.385185185,-0.237962963,1,0,0,4.271,Andesite_rect,1,4.271,0,12,0,12,0,1,,,,,,,,,,,,,
6518cf249463264599a7918d,TCR,2024-06-11_12h13.49.316,LearnStrategy,2023.2.3,Win32,59.88023952,2,1,14,-0.081481481,-0.008333333,1,0,0,0.9053,rock_grid_rect_2,1,04,-1,-1,0.905,-0.47037037,-0.24537037,1,0,0,22.6304,Andesite_rect,1,22.63,1,13,0,13,0,1,,,,,,,,,,,,,
6518cf249463264599a7918d,TCR,2024-06-11_12h13.49.316,LearnStrategy,2023.2.3,Win32,59.88023952,2,1,15,-0.125925926,-0.022222222,1,0,0,0.8807,rock_grid_rect_2,1,06,-1,-1,0.881,-0.417592593,-0.235185185,1,0,0,2.3413,Andesite_rect,1,2.341,1,14,0,14,0,1,,,,,,,,,,,,,
6518cf249463264599a7918d,TCR,2024-06-11_12h13.49.316,LearnStrategy,2023.2.3,Win32,59.88023952,2,1,16,-0.044444444,0.012037037,1,0,0,1.0314,rock_grid_rect_2,5,10,-1,-1,1.031,-0.35,-0.384259259,1,0,0,1.6761,Obsidian_rect,5,1.676,1,15,0,15,0,1,,,,,,,,,,,,,
6518cf249463264599a7918d,TCR,2024-06-11_12h13.49.316,LearnStrategy,2023.2.3,Win32,59.88023952,2,2,1,,,,,,,,4,09,,,,,,,,,,,2,34.903,0,,,,,,-0.091666667,-0.241666667,1,0,0,34.9026,Basalt_rect,0,0,0,0,1,
6518cf249463264599a7918d,TCR,2024-06-11_12h13.49.316,LearnStrategy,2023.2.3,Win32,59.88023952,2,2,2,,,,,,,,8,15,,,,,,,,,,,8,27.874,1,,,,,,0.385185185,-0.411111111,1,0,0,27.874,Pumice_rect,1,0,1,0,1,
6518cf249463264599a7918d,TCR,2024-06-11_12h13.49.316,LearnStrategy,2023.2.3,Win32,59.88023952,2,2,3,,,,,,,,4,10,,,,,,,,,,,2,17.908,0,,,,,,-0.165740741,-0.248148148,1,0,0,17.9077,Basalt_rect,2,0,2,0,1,
6518cf249463264599a7918d,TCR,2024-06-11_12h13.49.316,LearnStrategy,2023.2.3,Win32,59.88023952,2,2,4,,,,,,,,6,08,,,,,,,,,,,6,6.924,1,,,,,,-0.226851852,-0.408333333,1,0,0,6.9238,Pegmatite_rect,3,0,3,0,1,
6518cf249463264599a7918d,TCR,2024-06-11_12h13.49.316,LearnStrategy,2023.2.3,Win32,59.88023952,2,2,5,,,,,,,,1,10,,,,,,,,,,,1,2.742,1,,,,,,-0.389814815,-0.236111111,1,0,0,2.7416,Andesite_rect,4,0,4,0,1,
6518cf249463264599a7918d,TCR,2024-06-11_12h13.49.316,LearnStrategy,2023.2.3,Win32,59.88023952,2,2,6,,,,,,,,2,11,,,,,,,,,,,2,4.458,1,,,,,,-0.162037037,-0.246296296,1,0,0,4.4583,Basalt_rect,5,0,5,0,1,
6518cf249463264599a7918d,TCR,2024-06-11_12h13.49.316,LearnStrategy,2023.2.3,Win32,59.88023952,2,2,7,,,,,,,,6,15,,,,,,,,,,,6,5.814,1,,,,,,-0.192592593,-0.388888889,1,0,0,5.8144,Pegmatite_rect,6,0,6,0,1,
6518cf249463264599a7918d,TCR,2024-06-11_12h13.49.316,LearnStrategy,2023.2.3,Win32,59.88023952,2,2,8,,,,,,,,1,11,,,,,,,,,,,4,28.319,0,,,,,,0.481481481,-0.262962963,1,0,0,28.3185,Gabbro_rect,7,0,7,0,1,
6518cf249463264599a7918d,TCR,2024-06-11_12h13.49.316,LearnStrategy,2023.2.3,Win32,59.88023952,2,2,9,,,,,,,,5,02,,,,,,,,,,,5,1.235,1,,,,,,-0.371296296,-0.405555556,1,0,0,1.2347,Obsidian_rect,8,0,8,0,1,
6518cf249463264599a7918d,TCR,2024-06-11_12h13.49.316,LearnStrategy,2023.2.3,Win32,59.88023952,2,2,10,,,,,,,,8,13,,,,,,,,,,,4,36.982,0,,,,,,0.387037037,-0.262962963,1,0,0,36.9823,Gabbro_rect,9,0,9,0,1,
6518cf249463264599a7918d,TCR,2024-06-11_12h13.49.316,LearnStrategy,2023.2.3,Win32,59.88023952,2,2,11,,,,,,,,5,09,,,,,,,,,,,5,1.106,1,,,,,,-0.382407407,-0.405555556,1,0,0,1.1063,Obsidian_rect,10,0,10,0,1,
6518cf249463264599a7918d,TCR,2024-06-11_12h13.49.316,LearnStrategy,2023.2.3,Win32,59.88023952,2,2,12,,,,,,,,3,12,,,,,,,,,,,4,27.658,0,,,,,,0.387037037,-0.235185185,1,0,0,27.6581,Gabbro_rect,11,0,11,0,1,
6518cf249463264599a7918d,TCR,2024-06-11_12h13.49.316,LearnStrategy,2023.2.3,Win32,59.88023952,2,2,13,,,,,,,,3,15,,,,,,,,,,,4,21.308,0,,,,,,0.388888889,-0.248148148,1,0,0,21.308,Gabbro_rect,12,0,12,0,1,
6518cf249463264599a7918d,TCR,2024-06-11_12h13.49.316,LearnStrategy,2023.2.3,Win32,59.88023952,2,2,14,,,,,,,,2,06,,,,,,,,,,,2,2.742,1,,,,,,-0.124074074,-0.24537037,1,0,0,2.7422,Basalt_rect,13,0,13,0,1,
6518cf249463264599a7918d,TCR,2024-06-11_12h13.49.316,LearnStrategy,2023.2.3,Win32,59.88023952,2,2,15,,,,,,,,7,10,,,,,,,,,,,7,1.708,1,,,,,,0.1,-0.409259259,1,0,0,1.7079,Peridotite_rect,14,0,14,0,1,
6518cf249463264599a7918d,TCR,2024-06-11_12h13.49.316,LearnStrategy,2023.2.3,Win32,59.88023952,2,2,16,,,,,,,,7,06,,,,,,,,,,,7,1.266,1,,,,,,0.128703704,-0.397222222,1,0,0,1.2658,Peridotite_rect,15,0,15,0,1,
6518cf249463264599a7918d,TCR,2024-06-11_12h13.49.316,LearnStrategy,2023.2.3,Win32,59.88023952,3,1,1,0.010185185,-0.006481481,1,0,0,1.9811,rock_grid_rect_2,6,06,-1,-1,1.981,-0.138888889,-0.382407407,1,0,0,33.2591,Pegmatite_rect,6,33.259,1,0,0,0,0,1,,,,,,,,,,,,,
6518cf249463264599a7918d,TCR,2024-06-11_12h13.49.316,LearnStrategy,2023.2.3,Win32,59.88023952,3,1,2,-0.140740741,-0.011111111,1,0,0,0.9306,rock_grid_rect_2,3,13,-1,-1,0.931,0.068518519,-0.237962963,1,0,0,11.8761,Diorite_rect,3,11.876,1,1,0,1,0,1,,,,,,,,,,,,,
6518cf249463264599a7918d,TCR,2024-06-11_12h13.49.316,LearnStrategy,2023.2.3,Win32,59.88023952,3,1,3,-0.118518519,-0.012037037,1,0,0,0.9802,rock_grid_rect_2,4,12,-1,-1,0.98,-0.124074074,-0.257407407,1,0,0,1.8212,Basalt_rect,2,1.821,0,2,0,2,0,1,,,,,,,,,,,,,
6518cf249463264599a7918d,TCR,2024-06-11_12h13.49.316,LearnStrategy,2023.2.3,Win32,59.88023952,3,1,4,-0.075925926,-0.00462963,1,0,0,1.0056,rock_grid_rect_2,4,01,-1,-1,1.006,0.37037037,-0.242592593,1,0,0,4.543,Gabbro_rect,4,4.543,1,3,0,3,0,1,,,,,,,,,,,,,
6518cf249463264599a7918d,TCR,2024-06-11_12h13.49.316,LearnStrategy,2023.2.3,Win32,59.88023952,3,1,5,-0.024074074,0.007407407,1,0,0,0.9804,rock_grid_rect_2,1,06,-1,-1,0.98,-0.388888889,-0.237037037,1,0,0,4.4986,Andesite_rect,1,4.499,1,4,0,4,0,1,,,,,,,,,,,,,
6518cf249463264599a7918d,TCR,2024-06-11_12h13.49.316,LearnStrategy,2023.2.3,Win32,59.88023952,3,1,6,-0.04537037,-0.014814815,1,0,0,0.7974,rock_grid_rect_2,3,02,-1,-1,0.797,0.114814815,-0.24537037,1,0,0,3.9916,Diorite_rect,3,3.992,1,5,0,5,0,1,,,,,,,,,,,,,
6518cf249463264599a7918d,TCR,2024-06-11_12h13.49.316,LearnStrategy,2023.2.3,Win32,59.88023952,3,1,7,-0.041666667,-0.014814815,1,0,0,0.9803,rock_grid_rect_2,8,09,-1,-1,0.98,0.382407407,-0.410185185,1,0,0,1.6257,Pumice_rect,8,1.626,1,6,0,6,0,1,,,,,,,,,,,,,
6518cf249463264599a7918d,TCR,2024-06-11_12h13.49.316,LearnStrategy,2023.2.3,Win32,59.88023952,3,1,8,-0.062037037,-0.011111111,1,0,0,0.9311,rock_grid_rect_2,3,06,-1,-1,0.931,0.097222222,-0.241666667,1,0,0,4.1096,Diorite_rect,3,4.11,1,7,0,7,0,1,,,,,,,,,,,,,
6518cf249463264599a7918d,TCR,2024-06-11_12h13.49.316,LearnStrategy,2023.2.3,Win32,59.88023952,3,1,9,-0.05,-0.006481481,1,0,0,0.8633,rock_grid_rect_2,1,05,-1,-1,0.863,-0.376851852,-0.236111111,1,0,0,1.8441,Andesite_rect,1,1.844,1,8,0,8,0,1,,,,,,,,,,,,,
6518cf249463264599a7918d,TCR,2024-06-11_12h13.49.316,LearnStrategy,2023.2.3,Win32,59.88023952,3,1,10,-0.096296296,-0.014814815,1,0,0,0.8814,rock_grid_rect_2,5,10,-1,-1,0.881,-0.392592593,-0.412962963,1,0,0,1.2696,Obsidian_rect,5,1.27,1,9,0,9,0,1,,,,,,,,,,,,,
6518cf249463264599a7918d,TCR,2024-06-11_12h13.49.316,LearnStrategy,2023.2.3,Win32,59.88023952,3,1,11,-0.130555556,-0.000925926,1,0,0,0.798,rock_grid_rect_2,3,02,-1,-1,0.798,0.100925926,-0.228703704,1,0,0,2.437,Diorite_rect,3,2.437,1,10,0,10,0,1,,,,,,,,,,,,,
6518cf249463264599a7918d,TCR,2024-06-11_12h13.49.316,LearnStrategy,2023.2.3,Win32,59.88023952,3,1,12,-0.087962963,-0.008333333,1,0,0,0.9715,rock_grid_rect_2,4,01,-1,-1,0.972,-0.374074074,-0.243518519,1,0,0,4.7664,Andesite_rect,1,4.766,0,11,0,11,0,1,,,,,,,,,,,,,
6518cf249463264599a7918d,TCR,2024-06-11_12h13.49.316,LearnStrategy,2023.2.3,Win32,59.88023952,3,1,13,-0.110185185,0.010185185,1,0,0,1.297,rock_grid_rect_2,4,08,-1,-1,1.297,0.365740741,-0.232407407,1,0,0,2.242,Gabbro_rect,4,2.242,1,12,0,12,0,1,,,,,,,,,,,,,
6518cf249463264599a7918d,TCR,2024-06-11_12h13.49.316,LearnStrategy,2023.2.3,Win32,59.88023952,3,1,14,-0.073148148,-0.009259259,1,0,0,1.2312,rock_grid_rect_2,8,02,-1,-1,1.231,0.396296296,-0.398148148,1,0,0,1.4091,Pumice_rect,8,1.409,1,13,0,13,0,1,,,,,,,,,,,,,
6518cf249463264599a7918d,TCR,2024-06-11_12h13.49.316,LearnStrategy,2023.2.3,Win32,59.88023952,3,1,15,-0.084259259,-0.016666667,1,0,0,0.9312,rock_grid_rect_2,4,12,-1,-1,0.931,0.325925926,-0.249074074,1,0,0,2.5925,Gabbro_rect,4,2.592,1,14,0,14,0,1,,,,,,,,,,,,,
6518cf249463264599a7918d,TCR,2024-06-11_12h13.49.316,LearnStrategy,2023.2.3,Win32,59.88023952,3,1,16,-0.161111111,-0.023148148,1,0,0,0.8808,rock_grid_rect_2,7,14,-1,-1,0.881,0.111111111,-0.400925926,1,0,0,1.6423,Peridotite_rect,7,1.642,1,15,0,15,0,1,,,,,,,,,,,,,
6518cf249463264599a7918d,TCR,2024-06-11_12h13.49.316,LearnStrategy,2023.2.3,Win32,59.88023952,3,2,1,,,,,,,,2,05,,,,,,,,,,,2,2.944,1,,,,,,-0.147222222,-0.242592593,1,0,0,2.9435,Basalt_rect,0,0,0,0,1,
6518cf249463264599a7918d,TCR,2024-06-11_12h13.49.316,LearnStrategy,2023.2.3,Win32,59.88023952,3,2,2,,,,,,,,5,12,,,,,,,,,,,5,1.324,1,,,,,,-0.376851852,-0.391666667,1,0,0,1.3237,Obsidian_rect,1,0,1,0,1,
6518cf249463264599a7918d,TCR,2024-06-11_12h13.49.316,LearnStrategy,2023.2.3,Win32,59.88023952,3,2,3,,,,,,,,8,05,,,,,,,,,,,8,2.776,1,,,,,,0.350925926,-0.386111111,1,0,0,2.7757,Pumice_rect,2,0,2,0,1,
6518cf249463264599a7918d,TCR,2024-06-11_12h13.49.316,LearnStrategy,2023.2.3,Win32,59.88023952,3,2,4,,,,,,,,7,05,,,,,,,,,,,7,2.633,1,,,,,,0.094444444,-0.387962963,1,0,0,2.633,Peridotite_rect,3,0,3,0,1,
6518cf249463264599a7918d,TCR,2024-06-11_12h13.49.316,LearnStrategy,2023.2.3,Win32,59.88023952,3,2,5,,,,,,,,3,10,,,,,,,,,,,4,5.889,0,,,,,,0.325925926,-0.263888889,1,0,0,5.8889,Gabbro_rect,4,0,4,0,1,
6518cf249463264599a7918d,TCR,2024-06-11_12h13.49.316,LearnStrategy,2023.2.3,Win32,59.88023952,3,2,6,,,,,,,,5,05,,,,,,,,,,,5,3.434,1,,,,,,-0.394444444,-0.392592593,1,0,0,3.4339,Obsidian_rect,5,0,5,0,1,
6518cf249463264599a7918d,TCR,2024-06-11_12h13.49.316,LearnStrategy,2023.2.3,Win32,59.88023952,3,2,7,,,,,,,,3,11,,,,,,,,,,,3,6.27,1,,,,,,0.1,-0.247222222,1,0,0,6.2695,Diorite_rect,6,0,6,0,1,
6518cf249463264599a7918d,TCR,2024-06-11_12h13.49.316,LearnStrategy,2023.2.3,Win32,59.88023952,3,2,8,,,,,,,,2,02,,,,,,,,,,,2,3.198,1,,,,,,-0.117592593,-0.249074074,1,0,0,3.1978,Basalt_rect,7,0,7,0,1,
6518cf249463264599a7918d,TCR,2024-06-11_12h13.49.316,LearnStrategy,2023.2.3,Win32,59.88023952,3,2,9,,,,,,,,4,03,,,,,,,,,,,4,3.142,1,,,,,,0.37037037,-0.251851852,1,0,0,3.1423,Gabbro_rect,8,0,8,0,1,
6518cf249463264599a7918d,TCR,2024-06-11_12h13.49.316,LearnStrategy,2023.2.3,Win32,59.88023952,3,2,10,,,,,,,,1,03,,,,,,,,,,,1,2.942,1,,,,,,-0.361111111,-0.246296296,1,0,0,2.942,Andesite_rect,9,0,9,0,1,
6518cf249463264599a7918d,TCR,2024-06-11_12h13.49.316,LearnStrategy,2023.2.3,Win32,59.88023952,3,2,11,,,,,,,,4,11,,,,,,,,,,,4,4.536,1,,,,,,0.368518519,-0.25,1,0,0,4.5362,Gabbro_rect,10,0,10,0,1,
6518cf249463264599a7918d,TCR,2024-06-11_12h13.49.316,LearnStrategy,2023.2.3,Win32,59.88023952,3,2,12,,,,,,,,1,16,,,,,,,,,,,1,3.825,1,,,,,,-0.374074074,-0.235185185,1,0,0,3.8249,Andesite_rect,11,0,11,0,1,
6518cf249463264599a7918d,TCR,2024-06-11_12h13.49.316,LearnStrategy,2023.2.3,Win32,59.88023952,3,2,13,,,,,,,,7,08,,,,,,,,,,,7,1.954,1,,,,,,0.116666667,-0.392592593,1,0,0,1.9538,Peridotite_rect,12,0,12,0,1,
6518cf249463264599a7918d,TCR,2024-06-11_12h13.49.316,LearnStrategy,2023.2.3,Win32,59.88023952,3,2,14,,,,,,,,8,10,,,,,,,,,,,8,8.092,1,,,,,,0.407407407,-0.42037037,1,0,0,8.0919,Pumice_rect,13,0,13,0,1,
6518cf249463264599a7918d,TCR,2024-06-11_12h13.49.316,LearnStrategy,2023.2.3,Win32,59.88023952,3,2,15,,,,,,,,6,09,,,,,,,,,,,7,2.505,0,,,,,,0.12962963,-0.391666667,1,0,0,2.5054,Peridotite_rect,14,0,14,0,1,
6518cf249463264599a7918d,TCR,2024-06-11_12h13.49.316,LearnStrategy,2023.2.3,Win32,59.88023952,3,2,16,,,,,,,,6,05,,,,,,,,,,,6,23.499,1,,,,,,-0.103703704,-0.400925926,1,0,0,23.4993,Pegmatite_rect,15,0,15,0,1,
6518cf249463264599a7918d,TCR,2024-06-11_12h13.49.316,LearnStrategy,2023.2.3,Win32,59.88023952,4,1,1,-0.081481481,0.011111111,1,0,0,1.1138,rock_grid_rect_2,3,07,-1,-1,1.114,0.07037037,-0.243518519,1,0,0,4.5656,Diorite_rect,3,4.566,1,0,0,0,0,1,,,,,,,,,,,,,
6518cf249463264599a7918d,TCR,2024-06-11_12h13.49.316,LearnStrategy,2023.2.3,Win32,59.88023952,4,1,2,-0.188888889,0,1,0,0,1.4477,rock_grid_rect_2,3,14,-1,-1,1.448,0.067592593,-0.244444444,1,0,0,3.3716,Diorite_rect,3,3.372,1,1,0,1,0,1,,,,,,,,,,,,,
6518cf249463264599a7918d,TCR,2024-06-11_12h13.49.316,LearnStrategy,2023.2.3,Win32,59.88023952,4,1,3,-0.132407407,-0.010185185,1,0,0,0.8974,rock_grid_rect_2,7,12,-1,-1,0.897,0.10462963,-0.390740741,1,0,0,2.0257,Peridotite_rect,7,2.026,1,2,0,2,0,1,,,,,,,,,,,,,
6518cf249463264599a7918d,TCR,2024-06-11_12h13.49.316,LearnStrategy,2023.2.3,Win32,59.88023952,4,1,4,-0.033333333,0.00462963,1,0,0,0.7148,rock_grid_rect_2,4,16,-1,-1,0.715,0.35,-0.238888889,1,0,0,3.541,Gabbro_rect,4,3.541,1,3,0,3,0,1,,,,,,,,,,,,,
6518cf249463264599a7918d,TCR,2024-06-11_12h13.49.316,LearnStrategy,2023.2.3,Win32,59.88023952,4,1,5,-0.058333333,-0.009259259,1,0,0,0.914,rock_grid_rect_2,8,02,-1,-1,0.914,0.387962963,-0.387962963,1,0,0,1.3758,Pumice_rect,8,1.376,1,4,0,4,0,1,,,,,,,,,,,,,
6518cf249463264599a7918d,TCR,2024-06-11_12h13.49.316,LearnStrategy,2023.2.3,Win32,59.88023952,4,1,6,-0.075925926,0.002777778,1,0,0,0.8147,rock_grid_rect_2,4,16,-1,-1,0.815,0.384259259,-0.262962963,1,0,0,2.8766,Gabbro_rect,4,2.877,1,5,0,5,0,1,,,,,,,,,,,,,
6518cf249463264599a7918d,TCR,2024-06-11_12h13.49.316,LearnStrategy,2023.2.3,Win32,59.88023952,4,1,7,-0.117592593,-0.013888889,1,0,0,0.7205,rock_grid_rect_2,8,09,-1,-1,0.721,0.357407407,-0.42037037,1,0,0,1.3407,Pumice_rect,8,1.341,1,6,0,6,0,1,,,,,,,,,,,,,
6518cf249463264599a7918d,TCR,2024-06-11_12h13.49.316,LearnStrategy,2023.2.3,Win32,59.88023952,4,1,8,-0.084259259,0.002777778,1,0,0,1.231,rock_grid_rect_2,6,10,-1,-1,1.231,0.136111111,-0.416666667,1,0,0,1.5092,Peridotite_rect,7,1.509,0,7,0,7,0,1,,,,,,,,,,,,,
6518cf249463264599a7918d,TCR,2024-06-11_12h13.49.316,LearnStrategy,2023.2.3,Win32,59.88023952,4,1,9,-0.081481481,-0.010185185,1,0,0,0.8713,rock_grid_rect_2,2,10,-1,-1,0.871,-0.165740741,-0.247222222,1,0,0,3.7039,Basalt_rect,2,3.704,1,8,0,8,0,1,,,,,,,,,,,,,
6518cf249463264599a7918d,TCR,2024-06-11_12h13.49.316,LearnStrategy,2023.2.3,Win32,59.88023952,4,1,10,-0.066666667,-0.010185185,1,0,0,0.9174,rock_grid_rect_2,1,09,-1,-1,0.917,-0.367592593,-0.237037037,1,0,0,1.9698,Andesite_rect,1,1.97,1,9,0,9,0,1,,,,,,,,,,,,,
6518cf249463264599a7918d,TCR,2024-06-11_12h13.49.316,LearnStrategy,2023.2.3,Win32,59.88023952,4,1,11,-0.061111111,0,1,0,0,0.9634,rock_grid_rect_2,3,08,-1,-1,0.963,0.084259259,-0.237962963,1,0,0,4.3263,Diorite_rect,3,4.326,1,10,0,10,0,1,,,,,,,,,,,,,
6518cf249463264599a7918d,TCR,2024-06-11_12h13.49.316,LearnStrategy,2023.2.3,Win32,59.88023952,4,1,12,-0.083333333,-0.012962963,1,0,0,0.9144,rock_grid_rect_2,6,11,-1,-1,0.914,-0.146296296,-0.39537037,1,0,0,3.8006,Pegmatite_rect,6,3.801,1,11,0,11,0,1,,,,,,,,,,,,,
6518cf249463264599a7918d,TCR,2024-06-11_12h13.49.316,LearnStrategy,2023.2.3,Win32,59.88023952,4,1,13,-0.021296296,-0.009259259,1,0,0,0.8476,rock_grid_rect_2,4,08,-1,-1,0.848,0.392592593,-0.25462963,1,0,0,4.4604,Gabbro_rect,4,4.46,1,12,0,12,0,1,,,,,,,,,,,,,
6518cf249463264599a7918d,TCR,2024-06-11_12h13.49.316,LearnStrategy,2023.2.3,Win32,59.88023952,4,1,14,-0.047222222,0,1,0,0,0.7811,rock_grid_rect_2,5,07,-1,-1,0.781,-0.397222222,-0.389814815,1,0,0,2.7091,Obsidian_rect,5,2.709,1,13,0,13,0,1,,,,,,,,,,,,,
6518cf249463264599a7918d,TCR,2024-06-11_12h13.49.316,LearnStrategy,2023.2.3,Win32,59.88023952,4,1,15,-0.082407407,-0.015740741,1,0,0,0.8142,rock_grid_rect_2,3,08,-1,-1,0.814,0.098148148,-0.235185185,1,0,0,2.6426,Diorite_rect,3,2.643,1,14,0,14,0,1,,,,,,,,,,,,,
6518cf249463264599a7918d,TCR,2024-06-11_12h13.49.316,LearnStrategy,2023.2.3,Win32,59.88023952,4,1,16,-0.056481481,-0.012962963,1,0,0,0.898,rock_grid_rect_2,4,13,-1,-1,0.898,0.362037037,-0.248148148,1,0,0,3.7248,Gabbro_rect,4,3.725,1,15,0,15,0,1,,,,,,,,,,,,,
6518cf249463264599a7918d,TCR,2024-06-11_12h13.49.316,LearnStrategy,2023.2.3,Win32,59.88023952,4,2,1,,,,,,,,1,16,,,,,,,,,,,1,1.469,1,,,,,,-0.369444444,-0.247222222,1,0,0,1.4692,Andesite_rect,0,0,0,0,1,
6518cf249463264599a7918d,TCR,2024-06-11_12h13.49.316,LearnStrategy,2023.2.3,Win32,59.88023952,4,2,2,,,,,,,,8,04,,,,,,,,,,,8,1.592,1,,,,,,0.352777778,-0.405555556,1,0,0,1.5922,Pumice_rect,1,0,1,0,1,
6518cf249463264599a7918d,TCR,2024-06-11_12h13.49.316,LearnStrategy,2023.2.3,Win32,59.88023952,4,2,3,,,,,,,,4,14,,,,,,,,,,,4,4.117,1,,,,,,0.338888889,-0.262037037,1,0,0,4.1169,Gabbro_rect,2,0,2,0,1,
6518cf249463264599a7918d,TCR,2024-06-11_12h13.49.316,LearnStrategy,2023.2.3,Win32,59.88023952,4,2,4,,,,,,,,3,10,,,,,,,,,,,4,30.558,0,,,,,,0.328703704,-0.24537037,1,0,0,30.5583,Gabbro_rect,3,0,3,0,1,
6518cf249463264599a7918d,TCR,2024-06-11_12h13.49.316,LearnStrategy,2023.2.3,Win32,59.88023952,4,2,5,,,,,,,,7,10,,,,,,,,,,,7,1.541,1,,,,,,0.103703704,-0.396296296,1,0,0,1.5409,Peridotite_rect,4,0,4,0,1,
6518cf249463264599a7918d,TCR,2024-06-11_12h13.49.316,LearnStrategy,2023.2.3,Win32,59.88023952,4,2,6,,,,,,,,2,11,,,,,,,,,,,8,6.692,0,,,,,,0.325,-0.400925926,1,0,0,6.6922,Pumice_rect,5,0,5,0,1,
6518cf249463264599a7918d,TCR,2024-06-11_12h13.49.316,LearnStrategy,2023.2.3,Win32,59.88023952,4,2,7,,,,,,,,5,02,,,,,,,,,,,5,1.376,1,,,,,,-0.383333333,-0.392592593,1,0,0,1.3758,Obsidian_rect,6,0,6,0,1,
6518cf249463264599a7918d,TCR,2024-06-11_12h13.49.316,LearnStrategy,2023.2.3,Win32,59.88023952,4,2,8,,,,,,,,1,02,,,,,,,,,,,1,5.637,1,,,,,,-0.331481481,-0.243518519,1,0,0,5.6368,Andesite_rect,7,0,7,0,1,
6518cf249463264599a7918d,TCR,2024-06-11_12h13.49.316,LearnStrategy,2023.2.3,Win32,59.88023952,4,2,9,,,,,,,,7,05,,,,,,,,,,,7,3.192,1,,,,,,0.106481481,-0.4,1,0,0,3.1916,Peridotite_rect,8,0,8,0,1,
6518cf249463264599a7918d,TCR,2024-06-11_12h13.49.316,LearnStrategy,2023.2.3,Win32,59.88023952,4,2,10,,,,,,,,6,08,,,,,,,,,,,6,12.675,1,,,,,,-0.143518519,-0.396296296,1,0,0,12.6752,Pegmatite_rect,9,0,9,0,1,
6518cf249463264599a7918d,TCR,2024-06-11_12h13.49.316,LearnStrategy,2023.2.3,Win32,59.88023952,4,2,11,,,,,,,,2,06,,,,,,,,,,,2,3.407,1,,,,,,-0.121296296,-0.255555556,1,0,0,3.4071,Basalt_rect,10,0,10,0,1,
6518cf249463264599a7918d,TCR,2024-06-11_12h13.49.316,LearnStrategy,2023.2.3,Win32,59.88023952,4,2,12,,,,,,,,6,07,,,,,,,,,,,6,2.92,1,,,,,,-0.133333333,-0.388888889,1,0,0,2.9196,Pegmatite_rect,11,0,11,0,1,
6518cf249463264599a7918d,TCR,2024-06-11_12h13.49.316,LearnStrategy,2023.2.3,Win32,59.88023952,4,2,13,,,,,,,,3,16,,,,,,,,,,,1,5.594,0,,,,,,-0.391666667,-0.24537037,1,0,0,5.5943,Andesite_rect,12,0,12,0,1,
6518cf249463264599a7918d,TCR,2024-06-11_12h13.49.316,LearnStrategy,2023.2.3,Win32,59.88023952,4,2,14,,,,,,,,4,03,,,,,,,,,,,4,2.609,1,,,,,,0.380555556,-0.240740741,1,0,0,2.6089,Gabbro_rect,13,0,13,0,1,
6518cf249463264599a7918d,TCR,2024-06-11_12h13.49.316,LearnStrategy,2023.2.3,Win32,59.88023952,4,2,15,,,,,,,,8,10,,,,,,,,,,,8,3.933,1,,,,,,0.405555556,-0.406481481,1,0,0,3.9331,Pumice_rect,14,0,14,0,1,
6518cf249463264599a7918d,TCR,2024-06-11_12h13.49.316,LearnStrategy,2023.2.3,Win32,59.88023952,4,2,16,,,,,,,,5,12,,,,,,,,,,,5,1.169,1,,,,,,-0.439814815,-0.392592593,1,0,0,1.1688,Obsidian_rect,15,0,15,0,1,
6518cf249463264599a7918d,TCR,2024-06-11_12h13.49.316,LearnStrategy,2023.2.3,Win32,59.88023952,5,1,1,-0.066666667,-0.002777778,1,0,0,1.5732,rock_grid_rect_2,6,03,-1,-1,1.573,0.092592593,-0.40462963,1,0,0,1.6167,Peridotite_rect,7,1.617,0,0,0,0,0,1,,,,,,,,,,,,,
6518cf249463264599a7918d,TCR,2024-06-11_12h13.49.316,LearnStrategy,2023.2.3,Win32,59.88023952,5,1,2,0.066666667,-0.002777778,1,0,0,1.0717,rock_grid_rect_2,6,13,-1,-1,1.072,-0.118518519,-0.400925926,1,0,0,1.8092,Pegmatite_rect,6,1.809,1,1,0,1,0,1,,,,,,,,,,,,,
6518cf249463264599a7918d,TCR,2024-06-11_12h13.49.316,LearnStrategy,2023.2.3,Win32,59.88023952,5,1,3,-0.037037037,-0.008333333,1,0,0,0.8482,rock_grid_rect_2,4,01,-1,-1,0.848,0.346296296,-0.22962963,1,0,0,5.8601,Gabbro_rect,4,5.86,1,2,0,2,0,1,,,,,,,,,,,,,
6518cf249463264599a7918d,TCR,2024-06-11_12h13.49.316,LearnStrategy,2023.2.3,Win32,59.88023952,5,1,4,-0.076851852,-0.010185185,1,0,0,0.9475,rock_grid_rect_2,3,07,-1,-1,0.947,0.123148148,-0.262962963,1,0,0,3.0254,Diorite_rect,3,3.025,1,3,0,3,0,1,,,,,,,,,,,,,
6518cf249463264599a7918d,TCR,2024-06-11_12h13.49.316,LearnStrategy,2023.2.3,Win32,59.88023952,5,1,5,0.00462963,-0.010185185,1,0,0,0.9639,rock_grid_rect_2,8,14,-1,-1,0.964,0.371296296,-0.396296296,1,0,0,2.7362,Pumice_rect,8,2.736,1,4,0,4,0,1,,,,,,,,,,,,,
6518cf249463264599a7918d,TCR,2024-06-11_12h13.49.316,LearnStrategy,2023.2.3,Win32,59.88023952,5,1,6,-0.059259259,-0.002777778,1,0,0,1.1674,rock_grid_rect_2,3,14,-1,-1,1.167,0.112962963,-0.236111111,1,0,0,8.3694,Diorite_rect,3,8.369,1,5,0,5,0,1,,,,,,,,,,,,,
6518cf249463264599a7918d,TCR,2024-06-11_12h13.49.316,LearnStrategy,2023.2.3,Win32,59.88023952,5,1,7,0.023148148,-0.011111111,1,0,0,0.8305,rock_grid_rect_2,3,07,-1,-1,0.831,0.127777778,-0.236111111,1,0,0,1.7586,Diorite_rect,3,1.759,1,6,0,6,0,1,,,,,,,,,,,,,
6518cf249463264599a7918d,TCR,2024-06-11_12h13.49.316,LearnStrategy,2023.2.3,Win32,59.88023952,5,1,8,-0.030555556,-0.012037037,1,0,0,0.9481,rock_grid_rect_2,1,09,-1,-1,0.948,-0.390740741,-0.237037037,1,0,0,2.2922,Andesite_rect,1,2.292,1,7,0,7,0,1,,,,,,,,,,,,,
6518cf249463264599a7918d,TCR,2024-06-11_12h13.49.316,LearnStrategy,2023.2.3,Win32,59.88023952,5,1,9,-0.008333333,-0.008333333,1,0,0,0.5811,rock_grid_rect_2,2,04,-1,-1,0.581,-0.123148148,-0.235185185,1,0,0,1.9977,Basalt_rect,2,1.998,1,8,0,8,0,1,,,,,,,,,,,,,
6518cf249463264599a7918d,TCR,2024-06-11_12h13.49.316,LearnStrategy,2023.2.3,Win32,59.88023952,5,1,10,-0.025925926,-0.006481481,1,0,0,0.8315,rock_grid_rect_2,2,08,-1,-1,0.832,-0.124074074,-0.240740741,1,0,0,1.9927,Basalt_rect,2,1.993,1,9,0,9,0,1,,,,,,,,,,,,,
6518cf249463264599a7918d,TCR,2024-06-11_12h13.49.316,LearnStrategy,2023.2.3,Win32,59.88023952,5,1,11,-0.005555556,0.00462963,1,0,0,0.7476,rock_grid_rect_2,1,06,-1,-1,0.748,-0.369444444,-0.230555556,1,0,0,1.4762,Andesite_rect,1,1.476,1,10,0,10,0,1,,,,,,,,,,,,,
6518cf249463264599a7918d,TCR,2024-06-11_12h13.49.316,LearnStrategy,2023.2.3,Win32,59.88023952,5,1,12,-0.034259259,-0.021296296,1,0,0,0.7316,rock_grid_rect_2,3,06,-1,-1,0.732,0.109259259,-0.251851852,1,0,0,6.7745,Diorite_rect,3,6.774,1,11,0,11,0,1,,,,,,,,,,,,,
6518cf249463264599a7918d,TCR,2024-06-11_12h13.49.316,LearnStrategy,2023.2.3,Win32,59.88023952,5,1,13,-0.032407407,0.001851852,1,0,0,0.7645,rock_grid_rect_2,4,16,-1,-1,0.764,0.35,-0.242592593,1,0,0,1.9421,Gabbro_rect,4,1.942,1,12,0,12,0,1,,,,,,,,,,,,,
6518cf249463264599a7918d,TCR,2024-06-11_12h13.49.316,LearnStrategy,2023.2.3,Win32,59.88023952,5,1,14,-0.065740741,-0.02037037,1,0,0,0.7314,rock_grid_rect_2,7,12,-1,-1,0.731,0.087962963,-0.383333333,1,0,0,1.7532,Peridotite_rect,7,1.753,1,13,0,13,0,1,,,,,,,,,,,,,
6518cf249463264599a7918d,TCR,2024-06-11_12h13.49.316,LearnStrategy,2023.2.3,Win32,59.88023952,5,1,15,-0.097222222,-0.00462963,1,0,0,1.1883,rock_grid_rect_2,5,04,-1,-1,1.188,-0.390740741,-0.390740741,1,0,0,1.3689,Obsidian_rect,5,1.369,1,14,0,14,0,1,,,,,,,,,,,,,
6518cf249463264599a7918d,TCR,2024-06-11_12h13.49.316,LearnStrategy,2023.2.3,Win32,59.88023952,5,1,16,-0.048148148,-0.013888889,1,0,0,0.8312,rock_grid_rect_2,3,14,-1,-1,0.831,0.12037037,-0.243518519,1,0,0,2.1475,Diorite_rect,3,2.148,1,15,0,15,0,1,,,,,,,,,,,,,
6518cf249463264599a7918d,TCR,2024-06-11_12h13.49.316,LearnStrategy,2023.2.3,Win32,59.88023952,5,2,1,,,,,,,,5,05,,,,,,,,,,,5,2.132,1,,,,,,-0.402777778,-0.381481481,1,0,0,2.1316,Obsidian_rect,0,0,0,0,1,
6518cf249463264599a7918d,TCR,2024-06-11_12h13.49.316,LearnStrategy,2023.2.3,Win32,59.88023952,5,2,2,,,,,,,,6,09,,,,,,,,,,,6,6.194,1,,,,,,-0.115740741,-0.394444444,1,0,0,6.1945,Pegmatite_rect,1,0,1,0,1,
6518cf249463264599a7918d,TCR,2024-06-11_12h13.49.316,LearnStrategy,2023.2.3,Win32,59.88023952,5,2,3,,,,,,,,6,15,,,,,,,,,,,6,1.593,1,,,,,,-0.172222222,-0.397222222,1,0,0,1.5929,Pegmatite_rect,2,0,2,0,1,
6518cf249463264599a7918d,TCR,2024-06-11_12h13.49.316,LearnStrategy,2023.2.3,Win32,59.88023952,5,2,4,,,,,,,,2,01,,,,,,,,,,,4,5.359,0,,,,,,0.350925926,-0.263888889,1,0,0,5.3588,Gabbro_rect,3,0,3,0,1,
6518cf249463264599a7918d,TCR,2024-06-11_12h13.49.316,LearnStrategy,2023.2.3,Win32,59.88023952,5,2,5,,,,,,,,7,13,,,,,,,,,,,7,2.275,1,,,,,,0.10462963,-0.40462963,1,0,0,2.2751,Peridotite_rect,4,0,4,0,1,
6518cf249463264599a7918d,TCR,2024-06-11_12h13.49.316,LearnStrategy,2023.2.3,Win32,59.88023952,5,2,6,,,,,,,,7,06,,,,,,,,,,,6,2.609,0,,,,,,-0.163888889,-0.390740741,1,0,0,2.6094,Pegmatite_rect,5,0,5,0,1,
6518cf249463264599a7918d,TCR,2024-06-11_12h13.49.316,LearnStrategy,2023.2.3,Win32,59.88023952,5,2,7,,,,,,,,4,05,,,,,,,,,,,1,13.211,0,,,,,,-0.375,-0.233333333,1,0,0,13.2112,Andesite_rect,6,0,6,0,1,
6518cf249463264599a7918d,TCR,2024-06-11_12h13.49.316,LearnStrategy,2023.2.3,Win32,59.88023952,5,2,8,,,,,,,,1,11,,,,,,,,,,,1,1.209,1,,,,,,-0.386111111,-0.232407407,1,0,0,1.2087,Andesite_rect,7,0,7,0,1,
6518cf249463264599a7918d,TCR,2024-06-11_12h13.49.316,LearnStrategy,2023.2.3,Win32,59.88023952,5,2,9,,,,,,,,2,02,,,,,,,,,,,2,2.859,1,,,,,,-0.130555556,-0.22962963,1,0,0,2.8589,Basalt_rect,8,0,8,0,1,
6518cf249463264599a7918d,TCR,2024-06-11_12h13.49.316,LearnStrategy,2023.2.3,Win32,59.88023952,5,2,10,,,,,,,,4,10,,,,,,,,,,,2,5.279,0,,,,,,-0.112962963,-0.238888889,1,0,0,5.2791,Basalt_rect,9,0,9,0,1,
6518cf249463264599a7918d,TCR,2024-06-11_12h13.49.316,LearnStrategy,2023.2.3,Win32,59.88023952,5,2,11,,,,,,,,3,09,,,,,,,,,,,3,2.716,1,,,,,,0.105555556,-0.250925926,1,0,0,2.7161,Diorite_rect,10,0,10,0,1,
6518cf249463264599a7918d,TCR,2024-06-11_12h13.49.316,LearnStrategy,2023.2.3,Win32,59.88023952,5,2,12,,,,,,,,8,16,,,,,,,,,,,8,2.918,1,,,,,,0.40462963,-0.400925926,1,0,0,2.9176,Pumice_rect,11,0,11,0,1,
6518cf249463264599a7918d,TCR,2024-06-11_12h13.49.316,LearnStrategy,2023.2.3,Win32,59.88023952,5,2,13,,,,,,,,1,14,,,,,,,,,,,6,2.037,0,,,,,,-0.132407407,-0.389814815,1,0,0,2.0373,Pegmatite_rect,12,0,12,0,1,
6518cf249463264599a7918d,TCR,2024-06-11_12h13.49.316,LearnStrategy,2023.2.3,Win32,59.88023952,5,2,14,,,,,,,,8,05,,,,,,,,,,,8,2.387,1,,,,,,0.351851852,-0.415740741,1,0,0,2.3873,Pumice_rect,13,0,13,0,1,
6518cf249463264599a7918d,TCR,2024-06-11_12h13.49.316,LearnStrategy,2023.2.3,Win32,59.88023952,5,2,15,,,,,,,,3,15,,,,,,,,,,,3,2.975,1,,,,,,0.05,-0.24537037,1,0,0,2.9749,Diorite_rect,14,0,14,0,1,
6518cf249463264599a7918d,TCR,2024-06-11_12h13.49.316,LearnStrategy,2023.2.3,Win32,59.88023952,5,2,16,,,,,,,,5,11,,,,,,,,,,,5,1.412,1,,,,,,-0.375,-0.37962963,1,0,0,1.4124,Obsidian_rect,15,0,15,0,1,
6518cf249463264599a7918d,TCR,2024-06-11_12h13.49.316,LearnStrategy,2023.2.3,Win32,59.88023952,6,1,1,-0.037037037,-0.002777778,1,0,0,1.148,rock_grid_rect_2,5,07,-1,-1,1.148,-0.397222222,-0.378703704,1,0,0,1.5835,Obsidian_rect,5,1.584,1,0,0,0,0,1,,,,,,,,,,,,,
6518cf249463264599a7918d,TCR,2024-06-11_12h13.49.316,LearnStrategy,2023.2.3,Win32,59.88023952,6,1,2,-0.05,0.000925926,1,0,0,1.4978,rock_grid_rect_2,1,09,-1,-1,1.498,-0.362037037,-0.240740741,1,0,0,1.2243,Andesite_rect,1,1.224,1,1,0,1,0,1,,,,,,,,,,,,,
6518cf249463264599a7918d,TCR,2024-06-11_12h13.49.316,LearnStrategy,2023.2.3,Win32,59.88023952,6,1,3,-0.005555556,-0.014814815,1,0,0,1.0813,rock_grid_rect_2,2,10,-1,-1,1.081,-0.140740741,-0.242592593,1,0,0,3.4262,Basalt_rect,2,3.426,1,2,0,2,0,1,,,,,,,,,,,,,
6518cf249463264599a7918d,TCR,2024-06-11_12h13.49.316,LearnStrategy,2023.2.3,Win32,59.88023952,6,1,4,-0.031481481,-0.00462963,1,0,0,0.6478,rock_grid_rect_2,7,12,-1,-1,0.648,0.111111111,-0.400925926,1,0,0,1.6867,Peridotite_rect,7,1.687,1,3,0,3,0,1,,,,,,,,,,,,,
6518cf249463264599a7918d,TCR,2024-06-11_12h13.49.316,LearnStrategy,2023.2.3,Win32,59.88023952,6,1,5,-0.001851852,0.000925926,1,0,0,0.7546,rock_grid_rect_2,4,08,-1,-1,0.755,0.412962963,-0.251851852,1,0,0,5.3526,Gabbro_rect,4,5.353,1,4,0,4,0,1,,,,,,,,,,,,,
6518cf249463264599a7918d,TCR,2024-06-11_12h13.49.316,LearnStrategy,2023.2.3,Win32,59.88023952,6,1,6,-0.152777778,0,1,0,0,1.0147,rock_grid_rect_2,8,02,-1,-1,1.015,0.325925926,-0.401851852,1,0,0,1.3424,Pumice_rect,8,1.342,1,5,0,5,0,1,,,,,,,,,,,,,
6518cf249463264599a7918d,TCR,2024-06-11_12h13.49.316,LearnStrategy,2023.2.3,Win32,59.88023952,6,1,7,-0.137962963,-0.001851852,1,0,0,0.565,rock_grid_rect_2,6,12,-1,-1,0.565,-0.126851852,-0.388888889,1,0,0,1.4091,Pegmatite_rect,6,1.409,1,6,0,6,0,1,,,,,,,,,,,,,
6518cf249463264599a7918d,TCR,2024-06-11_12h13.49.316,LearnStrategy,2023.2.3,Win32,59.88023952,6,1,8,-0.059259259,-0.011111111,1,0,0,1.1481,rock_grid_rect_2,2,12,-1,-1,1.148,-0.135185185,-0.243518519,1,0,0,2.8235,Basalt_rect,2,2.823,1,7,0,7,0,1,,,,,,,,,,,,,
6518cf249463264599a7918d,TCR,2024-06-11_12h13.49.316,LearnStrategy,2023.2.3,Win32,59.88023952,6,1,9,-0.062037037,-0.024074074,1,0,0,0.7887,rock_grid_rect_2,2,08,-1,-1,0.789,0.334259259,-0.237037037,1,0,0,1.9813,Gabbro_rect,4,1.981,0,8,0,8,0,1,,,,,,,,,,,,,
6518cf249463264599a7918d,TCR,2024-06-11_12h13.49.316,LearnStrategy,2023.2.3,Win32,59.88023952,6,1,10,-0.032407407,0.003703704,1,0,0,0.9479,rock_grid_rect_2,3,06,-1,-1,0.948,0.119444444,-0.228703704,1,0,0,1.4684,Diorite_rect,3,1.468,1,9,0,9,0,1,,,,,,,,,,,,,
6518cf249463264599a7918d,TCR,2024-06-11_12h13.49.316,LearnStrategy,2023.2.3,Win32,59.88023952,6,1,11,-0.009259259,-0.018518519,1,0,0,0.7836,rock_grid_rect_2,3,13,-1,-1,0.784,0.100925926,-0.248148148,1,0,0,1.4697,Diorite_rect,3,1.47,1,10,0,10,0,1,,,,,,,,,,,,,
6518cf249463264599a7918d,TCR,2024-06-11_12h13.49.316,LearnStrategy,2023.2.3,Win32,59.88023952,6,1,12,-0.006481481,-0.014814815,1,0,0,0.6984,rock_grid_rect_2,4,13,-1,-1,0.698,0.425925926,-0.25462963,1,0,0,2.6087,Gabbro_rect,4,2.609,1,11,0,11,0,1,,,,,,,,,,,,,
6518cf249463264599a7918d,TCR,2024-06-11_12h13.49.316,LearnStrategy,2023.2.3,Win32,59.88023952,6,1,13,-0.047222222,-0.013888889,1,0,0,0.815,rock_grid_rect_2,7,15,-1,-1,0.815,0.069444444,-0.390740741,1,0,0,2.2072,Peridotite_rect,7,2.207,1,12,0,12,0,1,,,,,,,,,,,,,
6518cf249463264599a7918d,TCR,2024-06-11_12h13.49.316,LearnStrategy,2023.2.3,Win32,59.88023952,6,1,14,-0.033333333,0.002777778,1,0,0,0.7814,rock_grid_rect_2,4,01,-1,-1,0.781,0.340740741,-0.228703704,1,0,0,2.5087,Gabbro_rect,4,2.509,1,13,0,13,0,1,,,,,,,,,,,,,
6518cf249463264599a7918d,TCR,2024-06-11_12h13.49.316,LearnStrategy,2023.2.3,Win32,59.88023952,6,1,15,-0.090740741,-0.025,1,0,0,1.1145,rock_grid_rect_2,4,01,-1,-1,1.114,0.324074074,-0.234259259,1,0,0,1.5263,Gabbro_rect,4,1.526,1,14,0,14,0,1,,,,,,,,,,,,,
6518cf249463264599a7918d,TCR,2024-06-11_12h13.49.316,LearnStrategy,2023.2.3,Win32,59.88023952,6,1,16,-0.088888889,-0.019444444,1,0,0,0.7986,rock_grid_rect_2,3,08,-1,-1,0.799,0.155555556,-0.253703704,1,0,0,1.416,Diorite_rect,3,1.416,1,15,0,15,0,1,,,,,,,,,,,,,
6518cf249463264599a7918d,TCR,2024-06-11_12h13.49.316,LearnStrategy,2023.2.3,Win32,59.88023952,6,2,1,,,,,,,,8,13,,,,,,,,,,,4,18.409,0,,,,,,0.358333333,-0.242592593,1,0,0,18.4089,Gabbro_rect,0,0,0,0,1,
6518cf249463264599a7918d,TCR,2024-06-11_12h13.49.316,LearnStrategy,2023.2.3,Win32,59.88023952,6,2,2,,,,,,,,2,05,,,,,,,,,,,4,3.116,0,,,,,,0.359259259,-0.248148148,1,0,0,3.1159,Gabbro_rect,1,0,1,0,1,
6518cf249463264599a7918d,TCR,2024-06-11_12h13.49.316,LearnStrategy,2023.2.3,Win32,59.88023952,6,2,3,,,,,,,,4,09,,,,,,,,,,,3,15.869,0,,,,,,0.151851852,-0.257407407,1,0,0,15.8693,Diorite_rect,2,0,2,0,1,
6518cf249463264599a7918d,TCR,2024-06-11_12h13.49.316,LearnStrategy,2023.2.3,Win32,59.88023952,6,2,4,,,,,,,,5,08,,,,,,,,,,,5,1.209,1,,,,,,-0.425,-0.393518519,1,0,0,1.2094,Obsidian_rect,3,0,3,0,1,
6518cf249463264599a7918d,TCR,2024-06-11_12h13.49.316,LearnStrategy,2023.2.3,Win32,59.88023952,6,2,5,,,,,,,,6,16,,,,,,,,,,,6,1.392,1,,,,,,-0.153703704,-0.387962963,1,0,0,1.3921,Pegmatite_rect,4,0,4,0,1,
6518cf249463264599a7918d,TCR,2024-06-11_12h13.49.316,LearnStrategy,2023.2.3,Win32,59.88023952,6,2,6,,,,,,,,4,11,,,,,,,,,,,4,1.393,1,,,,,,0.349074074,-0.239814815,1,0,0,1.3931,Gabbro_rect,5,0,5,0,1,
6518cf249463264599a7918d,TCR,2024-06-11_12h13.49.316,LearnStrategy,2023.2.3,Win32,59.88023952,6,2,7,,,,,,,,3,12,,,,,,,,,,,3,2.075,1,,,,,,0.069444444,-0.239814815,1,0,0,2.0754,Diorite_rect,6,0,6,0,1,
6518cf249463264599a7918d,TCR,2024-06-11_12h13.49.316,LearnStrategy,2023.2.3,Win32,59.88023952,6,2,8,,,,,,,,8,15,,,,,,,,,,,8,3.176,1,,,,,,0.325925926,-0.384259259,1,0,0,3.1757,Pumice_rect,7,0,7,0,1,
6518cf249463264599a7918d,TCR,2024-06-11_12h13.49.316,LearnStrategy,2023.2.3,Win32,59.88023952,6,2,9,,,,,,,,6,05,,,,,,,,,,,6,1.399,1,,,,,,-0.193518519,-0.394444444,1,0,0,1.3992,Pegmatite_rect,8,0,8,0,1,
6518cf249463264599a7918d,TCR,2024-06-11_12h13.49.316,LearnStrategy,2023.2.3,Win32,59.88023952,6,2,10,,,,,,,,5,09,,,,,,,,,,,5,1.193,1,,,,,,-0.397222222,-0.387962963,1,0,0,1.1926,Obsidian_rect,9,0,9,0,1,
6518cf249463264599a7918d,TCR,2024-06-11_12h13.49.316,LearnStrategy,2023.2.3,Win32,59.88023952,6,2,11,,,,,,,,1,10,,,,,,,,,,,1,1.876,1,,,,,,-0.392592593,-0.241666667,1,0,0,1.8756,Andesite_rect,10,0,10,0,1,
6518cf249463264599a7918d,TCR,2024-06-11_12h13.49.316,LearnStrategy,2023.2.3,Win32,59.88023952,6,2,12,,,,,,,,1,03,,,,,,,,,,,1,1.443,1,,,,,,-0.386111111,-0.241666667,1,0,0,1.4425,Andesite_rect,11,0,11,0,1,
6518cf249463264599a7918d,TCR,2024-06-11_12h13.49.316,LearnStrategy,2023.2.3,Win32,59.88023952,6,2,13,,,,,,,,7,08,,,,,,,,,,,7,2.175,1,,,,,,0.089814815,-0.419444444,1,0,0,2.175,Peridotite_rect,12,0,12,0,1,
6518cf249463264599a7918d,TCR,2024-06-11_12h13.49.316,LearnStrategy,2023.2.3,Win32,59.88023952,6,2,14,,,,,,,,3,11,,,,,,,,,,,3,1.456,1,,,,,,0.094444444,-0.256481481,1,0,0,1.4555,Diorite_rect,13,0,13,0,1,
6518cf249463264599a7918d,TCR,2024-06-11_12h13.49.316,LearnStrategy,2023.2.3,Win32,59.88023952,6,2,15,,,,,,,,2,14,,,,,,,,,,,2,3.743,1,,,,,,-0.132407407,-0.248148148,1,0,0,3.7425,Basalt_rect,14,0,14,0,1,
6518cf249463264599a7918d,TCR,2024-06-11_12h13.49.316,LearnStrategy,2023.2.3,Win32,59.88023952,6,2,16,,,,,,,,7,02,,,,,,,,,,,7,2.438,1,,,,,,0.090740741,-0.387037037,1,0,0,2.4383,Peridotite_rect,15,0,15,0,1,
6518cf249463264599a7918d,TCR,2024-06-11_12h13.49.316,LearnStrategy,2023.2.3,Win32,59.88023952,7,1,1,-0.016666667,-0.002777778,1,0,0,1.1318,rock_grid_rect_2,8,06,-1,-1,1.132,0.410185185,-0.406481481,1,0,0,1.6251,Pumice_rect,8,1.625,1,0,0,0,0,1,,,,,,,,,,,,,
6518cf249463264599a7918d,TCR,2024-06-11_12h13.49.316,LearnStrategy,2023.2.3,Win32,59.88023952,7,1,2,-0.105555556,-0.000925926,1,0,0,1.7646,rock_grid_rect_2,4,01,-1,-1,1.765,0.471296296,-0.267592593,1,0,0,2.4924,Gabbro_rect,4,2.492,1,1,0,1,0,1,,,,,,,,,,,,,
6518cf249463264599a7918d,TCR,2024-06-11_12h13.49.316,LearnStrategy,2023.2.3,Win32,59.88023952,7,1,3,-0.131481481,-0.014814815,1,0,0,0.8982,rock_grid_rect_2,2,16,-1,-1,0.898,-0.166666667,-0.253703704,1,0,0,2.6552,Basalt_rect,2,2.655,1,2,0,2,0,1,,,,,,,,,,,,,
6518cf249463264599a7918d,TCR,2024-06-11_12h13.49.316,LearnStrategy,2023.2.3,Win32,59.88023952,7,1,4,-0.025925926,-0.00462963,1,0,0,0.8549,rock_grid_rect_2,1,01,-1,-1,0.855,-0.431481481,-0.242592593,1,0,0,2.9358,Andesite_rect,1,2.936,1,3,0,3,0,1,,,,,,,,,,,,,
6518cf249463264599a7918d,TCR,2024-06-11_12h13.49.316,LearnStrategy,2023.2.3,Win32,59.88023952,7,1,5,-0.060185185,-0.006481481,1,0,0,0.6982,rock_grid_rect_2,1,06,-1,-1,0.698,-0.403703704,-0.237037037,1,0,0,1.2744,Andesite_rect,1,1.274,1,4,0,4,0,1,,,,,,,,,,,,,
6518cf249463264599a7918d,TCR,2024-06-11_12h13.49.316,LearnStrategy,2023.2.3,Win32,59.88023952,7,1,6,-0.041666667,-0.007407407,1,0,0,0.7544,rock_grid_rect_2,3,13,-1,-1,0.754,0.10462963,-0.232407407,1,0,0,1.5857,Diorite_rect,3,1.586,1,5,0,5,0,1,,,,,,,,,,,,,
6518cf249463264599a7918d,TCR,2024-06-11_12h13.49.316,LearnStrategy,2023.2.3,Win32,59.88023952,7,1,7,-0.066666667,-0.012037037,1,0,0,0.8314,rock_grid_rect_2,2,16,-1,-1,0.831,0.417592593,-0.257407407,1,0,0,2.1429,Gabbro_rect,4,2.143,0,6,0,6,0,1,,,,,,,,,,,,,
6518cf249463264599a7918d,TCR,2024-06-11_12h13.49.316,LearnStrategy,2023.2.3,Win32,59.88023952,7,1,8,-0.155555556,-0.006481481,1,0,0,0.9396,rock_grid_rect_2,7,07,-1,-1,0.94,0.090740741,-0.398148148,1,0,0,2.7045,Peridotite_rect,7,2.704,1,7,0,7,0,1,,,,,,,,,,,,,
6518cf249463264599a7918d,TCR,2024-06-11_12h13.49.316,LearnStrategy,2023.2.3,Win32,59.88023952,7,1,9,-0.044444444,-0.00462963,1,0,0,0.9049,rock_grid_rect_2,4,12,-1,-1,0.905,0.382407407,-0.249074074,1,0,0,1.5359,Gabbro_rect,4,1.536,1,8,0,8,0,1,,,,,,,,,,,,,
6518cf249463264599a7918d,TCR,2024-06-11_12h13.49.316,LearnStrategy,2023.2.3,Win32,59.88023952,7,1,10,-0.126851852,-0.017592593,1,0,0,0.831,rock_grid_rect_2,8,03,-1,-1,0.831,0.338888889,-0.384259259,1,0,0,1.2939,Pumice_rect,8,1.294,1,9,0,9,0,1,,,,,,,,,,,,,
6518cf249463264599a7918d,TCR,2024-06-11_12h13.49.316,LearnStrategy,2023.2.3,Win32,59.88023952,7,1,11,-0.114814815,-0.005555556,1,0,0,0.6148,rock_grid_rect_2,3,13,-1,-1,0.615,0.072222222,-0.253703704,1,0,0,1.8772,Diorite_rect,3,1.877,1,10,0,10,0,1,,,,,,,,,,,,,
6518cf249463264599a7918d,TCR,2024-06-11_12h13.49.316,LearnStrategy,2023.2.3,Win32,59.88023952,7,1,12,-0.185185185,0.003703704,1,0,0,0.9811,rock_grid_rect_2,4,08,-1,-1,0.981,0.322222222,-0.262962963,1,0,0,2.1031,Gabbro_rect,4,2.103,1,11,0,11,0,1,,,,,,,,,,,,,
6518cf249463264599a7918d,TCR,2024-06-11_12h13.49.316,LearnStrategy,2023.2.3,Win32,59.88023952,7,1,13,-0.10462963,-0.019444444,1,0,0,0.9551,rock_grid_rect_2,4,01,-1,-1,0.955,0.341666667,-0.247222222,1,0,0,1.3688,Gabbro_rect,4,1.369,1,12,0,12,0,1,,,,,,,,,,,,,
6518cf249463264599a7918d,TCR,2024-06-11_12h13.49.316,LearnStrategy,2023.2.3,Win32,59.88023952,7,1,14,-0.158333333,-0.002777778,1,0,0,0.7317,rock_grid_rect_2,6,11,-1,-1,0.732,-0.136111111,-0.386111111,1,0,0,1.3752,Pegmatite_rect,6,1.375,1,13,0,13,0,1,,,,,,,,,,,,,
6518cf249463264599a7918d,TCR,2024-06-11_12h13.49.316,LearnStrategy,2023.2.3,Win32,59.88023952,7,1,15,-0.093518519,-0.013888889,1,0,0,0.6647,rock_grid_rect_2,2,10,-1,-1,0.665,0.376851852,-0.247222222,1,0,0,3.7423,Gabbro_rect,4,3.742,0,14,0,14,0,1,,,,,,,,,,,,,
6518cf249463264599a7918d,TCR,2024-06-11_12h13.49.316,LearnStrategy,2023.2.3,Win32,59.88023952,7,1,16,-0.082407407,-0.001851852,1,0,0,0.9228,rock_grid_rect_2,5,14,-1,-1,0.923,-0.442592593,-0.40462963,1,0,0,1.2095,Obsidian_rect,5,1.209,1,15,0,15,0,1,,,,,,,,,,,,,
6518cf249463264599a7918d,TCR,2024-06-11_12h13.49.316,LearnStrategy,2023.2.3,Win32,59.88023952,7,2,1,,,,,,,,3,15,,,,,,,,,,,3,1.392,1,,,,,,0.119444444,-0.22962963,1,0,0,1.3924,Diorite_rect,0,0,0,0,1,
6518cf249463264599a7918d,TCR,2024-06-11_12h13.49.316,LearnStrategy,2023.2.3,Win32,59.88023952,7,2,2,,,,,,,,3,16,,,,,,,,,,,1,13.397,0,,,,,,-0.336111111,-0.235185185,1,0,0,13.3973,Andesite_rect,1,0,1,0,1,
6518cf249463264599a7918d,TCR,2024-06-11_12h13.49.316,LearnStrategy,2023.2.3,Win32,59.88023952,7,2,3,,,,,,,,8,15,,,,,,,,,,,8,3.699,1,,,,,,0.398148148,-0.403703704,1,0,0,3.6992,Pumice_rect,2,0,2,0,1,
6518cf249463264599a7918d,TCR,2024-06-11_12h13.49.316,LearnStrategy,2023.2.3,Win32,59.88023952,7,2,4,,,,,,,,4,09,,,,,,,,,,,4,2.129,1,,,,,,0.351851852,-0.235185185,1,0,0,2.1291,Gabbro_rect,3,0,3,0,1,
6518cf249463264599a7918d,TCR,2024-06-11_12h13.49.316,LearnStrategy,2023.2.3,Win32,59.88023952,7,2,5,,,,,,,,5,09,,,,,,,,,,,5,1.242,1,,,,,,-0.363888889,-0.390740741,1,0,0,1.2419,Obsidian_rect,4,0,4,0,1,
6518cf249463264599a7918d,TCR,2024-06-11_12h13.49.316,LearnStrategy,2023.2.3,Win32,59.88023952,7,2,6,,,,,,,,7,08,,,,,,,,,,,7,2.176,1,,,,,,0.106481481,-0.40462963,1,0,0,2.1757,Peridotite_rect,5,0,5,0,1,
6518cf249463264599a7918d,TCR,2024-06-11_12h13.49.316,LearnStrategy,2023.2.3,Win32,59.88023952,7,2,7,,,,,,,,8,16,,,,,,,,,,,8,2.892,1,,,,,,0.363888889,-0.410185185,1,0,0,2.892,Pumice_rect,6,0,6,0,1,
6518cf249463264599a7918d,TCR,2024-06-11_12h13.49.316,LearnStrategy,2023.2.3,Win32,59.88023952,7,2,8,,,,,,,,1,11,,,,,,,,,,,1,1.477,1,,,,,,-0.365740741,-0.265740741,1,0,0,1.4772,Andesite_rect,7,0,7,0,1,
6518cf249463264599a7918d,TCR,2024-06-11_12h13.49.316,LearnStrategy,2023.2.3,Win32,59.88023952,7,2,9,,,,,,,,1,16,,,,,,,,,,,4,4.508,0,,,,,,0.352777778,-0.239814815,1,0,0,4.5081,Gabbro_rect,8,0,8,0,1,
6518cf249463264599a7918d,TCR,2024-06-11_12h13.49.316,LearnStrategy,2023.2.3,Win32,59.88023952,7,2,10,,,,,,,,2,05,,,,,,,,,,,4,2.979,0,,,,,,0.337037037,-0.25462963,1,0,0,2.9786,Gabbro_rect,9,0,9,0,1,
6518cf249463264599a7918d,TCR,2024-06-11_12h13.49.316,LearnStrategy,2023.2.3,Win32,59.88023952,7,2,11,,,,,,,,7,02,,,,,,,,,,,7,1.583,1,,,,,,0.100925926,-0.393518519,1,0,0,1.5829,Peridotite_rect,10,0,10,0,1,
6518cf249463264599a7918d,TCR,2024-06-11_12h13.49.316,LearnStrategy,2023.2.3,Win32,59.88023952,7,2,12,,,,,,,,5,02,,,,,,,,,,,5,1.226,1,,,,,,-0.406481481,-0.418518519,1,0,0,1.2256,Obsidian_rect,11,0,11,0,1,
6518cf249463264599a7918d,TCR,2024-06-11_12h13.49.316,LearnStrategy,2023.2.3,Win32,59.88023952,7,2,13,,,,,,,,6,15,,,,,,,,,,,6,1.342,1,,,,,,-0.153703704,-0.390740741,1,0,0,1.3423,Pegmatite_rect,12,0,12,0,1,
6518cf249463264599a7918d,TCR,2024-06-11_12h13.49.316,LearnStrategy,2023.2.3,Win32,59.88023952,7,2,14,,,,,,,,2,01,,,,,,,,,,,2,4.909,1,,,,,,-0.075925926,-0.259259259,1,0,0,4.9089,Basalt_rect,13,0,13,0,1,
6518cf249463264599a7918d,TCR,2024-06-11_12h13.49.316,LearnStrategy,2023.2.3,Win32,59.88023952,7,2,15,,,,,,,,4,11,,,,,,,,,,,4,3.678,1,,,,,,0.32962963,-0.25462963,1,0,0,3.6777,Gabbro_rect,14,0,14,0,1,
6518cf249463264599a7918d,TCR,2024-06-11_12h13.49.316,LearnStrategy,2023.2.3,Win32,59.88023952,7,2,16,,,,,,,,6,05,,,,,,,,,,,6,1.316,1,,,,,,-0.136111111,-0.391666667,1,0,0,1.3161,Pegmatite_rect,15,0,15,0,1,
6518cf249463264599a7918d,TCR,2024-06-11_12h13.49.316,LearnStrategy,2023.2.3,Win32,59.88023952,8,1,1,-0.039814815,-0.016666667,1,0,0,1.1819,rock_grid_rect_2,3,13,-1,-1,1.182,0.135185185,-0.24537037,1,0,0,1.0765,Diorite_rect,3,1.076,1,0,0,0,0,1,,,,,,,,,,,,,
6518cf249463264599a7918d,TCR,2024-06-11_12h13.49.316,LearnStrategy,2023.2.3,Win32,59.88023952,8,1,2,-0.012962963,-0.011111111,1,0,0,0.6316,rock_grid_rect_2,2,08,-1,-1,0.632,-0.137962963,-0.239814815,1,0,0,1.9194,Basalt_rect,2,1.919,1,1,0,1,0,1,,,,,,,,,,,,,
6518cf249463264599a7918d,TCR,2024-06-11_12h13.49.316,LearnStrategy,2023.2.3,Win32,59.88023952,8,1,3,-0.028703704,-0.00462963,1,0,0,1.0314,rock_grid_rect_2,2,04,-1,-1,1.031,-0.119444444,-0.244444444,1,0,0,1.5761,Basalt_rect,2,1.576,1,2,0,2,0,1,,,,,,,,,,,,,
6518cf249463264599a7918d,TCR,2024-06-11_12h13.49.316,LearnStrategy,2023.2.3,Win32,59.88023952,8,1,4,-0.017592593,-0.013888889,1,0,0,0.9972,rock_grid_rect_2,6,03,-1,-1,0.997,0.105555556,-0.40462963,1,0,0,2.2196,Peridotite_rect,7,2.22,0,3,0,3,0,1,,,,,,,,,,,,,
6518cf249463264599a7918d,TCR,2024-06-11_12h13.49.316,LearnStrategy,2023.2.3,Win32,59.88023952,8,1,5,0.014814815,-0.010185185,1,0,0,1.0549,rock_grid_rect_2,5,06,-1,-1,1.055,-0.433333333,-0.400925926,1,0,0,1.3683,Obsidian_rect,5,1.368,1,4,0,4,0,1,,,,,,,,,,,,,
6518cf249463264599a7918d,TCR,2024-06-11_12h13.49.316,LearnStrategy,2023.2.3,Win32,59.88023952,8,1,6,-0.023148148,-0.014814815,1,0,0,0.8812,rock_grid_rect_2,1,07,-1,-1,0.881,-0.365740741,-0.252777778,1,0,0,3.0594,Andesite_rect,1,3.059,1,5,0,5,0,1,,,,,,,,,,,,,
6518cf249463264599a7918d,TCR,2024-06-11_12h13.49.316,LearnStrategy,2023.2.3,Win32,59.88023952,8,1,7,0.005555556,-0.002777778,1,0,0,0.9481,rock_grid_rect_2,3,07,-1,-1,0.948,0.117592593,-0.24537037,1,0,0,1.4753,Diorite_rect,3,1.475,1,6,0,6,0,1,,,,,,,,,,,,,
6518cf249463264599a7918d,TCR,2024-06-11_12h13.49.316,LearnStrategy,2023.2.3,Win32,59.88023952,8,1,8,-0.035185185,-0.007407407,1,0,0,0.7482,rock_grid_rect_2,8,02,-1,-1,0.748,0.346296296,-0.405555556,1,0,0,1.2421,Pumice_rect,8,1.242,1,7,0,7,0,1,,,,,,,,,,,,,
6518cf249463264599a7918d,TCR,2024-06-11_12h13.49.316,LearnStrategy,2023.2.3,Win32,59.88023952,8,1,9,-0.04537037,0.000925926,1,0,0,0.7315,rock_grid_rect_2,1,06,-1,-1,0.732,-0.406481481,-0.250925926,1,0,0,1.3425,Andesite_rect,1,1.343,1,8,0,8,0,1,,,,,,,,,,,,,
6518cf249463264599a7918d,TCR,2024-06-11_12h13.49.316,LearnStrategy,2023.2.3,Win32,59.88023952,8,1,10,0.025925926,-0.006481481,1,0,0,0.8818,rock_grid_rect_2,4,16,-1,-1,0.882,0.346296296,-0.230555556,1,0,0,2.9979,Gabbro_rect,4,2.998,1,9,0,9,0,1,,,,,,,,,,,,,
6518cf249463264599a7918d,TCR,2024-06-11_12h13.49.316,LearnStrategy,2023.2.3,Win32,59.88023952,8,1,11,-0.033333333,-0.000925926,1,0,0,0.831,rock_grid_rect_2,2,04,-1,-1,0.831,-0.111111111,-0.251851852,1,0,0,1.2597,Basalt_rect,2,1.26,1,10,0,10,0,1,,,,,,,,,,,,,
6518cf249463264599a7918d,TCR,2024-06-11_12h13.49.316,LearnStrategy,2023.2.3,Win32,59.88023952,8,1,12,-0.055555556,-0.005555556,1,0,0,0.898,rock_grid_rect_2,3,13,-1,-1,0.898,0.118518519,-0.261111111,1,0,0,1.2353,Diorite_rect,3,1.235,1,11,0,11,0,1,,,,,,,,,,,,,
6518cf249463264599a7918d,TCR,2024-06-11_12h13.49.316,LearnStrategy,2023.2.3,Win32,59.88023952,8,1,13,-0.044444444,-0.009259259,1,0,0,1.015,rock_grid_rect_2,4,15,-1,-1,1.015,0.37037037,-0.237037037,1,0,0,2.9262,Gabbro_rect,4,2.926,1,12,0,12,0,1,,,,,,,,,,,,,
6518cf249463264599a7918d,TCR,2024-06-11_12h13.49.316,LearnStrategy,2023.2.3,Win32,59.88023952,8,1,14,-0.149074074,-0.013888889,1,0,0,0.7135,rock_grid_rect_2,7,14,-1,-1,0.713,0.109259259,-0.400925926,1,0,0,3.4096,Peridotite_rect,7,3.41,1,13,0,13,0,1,,,,,,,,,,,,,
6518cf249463264599a7918d,TCR,2024-06-11_12h13.49.316,LearnStrategy,2023.2.3,Win32,59.88023952,8,1,15,-0.068518519,0.014814815,1,0,0,0.6644,rock_grid_rect_2,1,01,-1,-1,0.664,0.375925926,-0.266666667,1,0,0,3.209,Gabbro_rect,4,3.209,0,14,0,14,0,1,,,,,,,,,,,,,
6518cf249463264599a7918d,TCR,2024-06-11_12h13.49.316,LearnStrategy,2023.2.3,Win32,59.88023952,8,1,16,-0.180555556,-0.00462963,1,0,0,1.1894,rock_grid_rect_2,4,16,-1,-1,1.189,0.35,-0.24537037,1,0,0,2.4422,Gabbro_rect,4,2.442,1,15,0,15,0,1,,,,,,,,,,,,,
6518cf249463264599a7918d,TCR,2024-06-11_12h13.49.316,LearnStrategy,2023.2.3,Win32,59.88023952,8,2,1,,,,,,,,4,03,,,,,,,,,,,4,3.092,1,,,,,,0.372222222,-0.231481481,1,0,0,3.092,Gabbro_rect,0,0,0,0,1,
6518cf249463264599a7918d,TCR,2024-06-11_12h13.49.316,LearnStrategy,2023.2.3,Win32,59.88023952,8,2,2,,,,,,,,8,10,,,,,,,,,,,8,8.617,1,,,,,,0.371296296,-0.408333333,1,0,0,8.617,Pumice_rect,1,0,1,0,1,
6518cf249463264599a7918d,TCR,2024-06-11_12h13.49.316,LearnStrategy,2023.2.3,Win32,59.88023952,8,2,3,,,,,,,,4,05,,,,,,,,,,,4,11.225,1,,,,,,0.341666667,-0.265740741,1,0,0,11.2247,Gabbro_rect,2,0,2,0,1,
6518cf249463264599a7918d,TCR,2024-06-11_12h13.49.316,LearnStrategy,2023.2.3,Win32,59.88023952,8,2,4,,,,,,,,2,14,,,,,,,,,,,4,3.516,0,,,,,,0.388888889,-0.259259259,1,0,0,3.5162,Gabbro_rect,3,0,3,0,1,
6518cf249463264599a7918d,TCR,2024-06-11_12h13.49.316,LearnStrategy,2023.2.3,Win32,59.88023952,8,2,5,,,,,,,,1,10,,,,,,,,,,,1,1.517,1,,,,,,-0.374074074,-0.240740741,1,0,0,1.5171,Andesite_rect,4,0,4,0,1,
6518cf249463264599a7918d,TCR,2024-06-11_12h13.49.316,LearnStrategy,2023.2.3,Win32,59.88023952,8,2,6,,,,,,,,6,08,,,,,,,,,,,6,1.493,1,,,,,,-0.148148148,-0.399074074,1,0,0,1.4925,Pegmatite_rect,5,0,5,0,1,
6518cf249463264599a7918d,TCR,2024-06-11_12h13.49.316,LearnStrategy,2023.2.3,Win32,59.88023952,8,2,7,,,,,,,,2,11,,,,,,,,,,,8,5.042,0,,,,,,0.381481481,-0.396296296,1,0,0,5.0421,Pumice_rect,6,0,6,0,1,
6518cf249463264599a7918d,TCR,2024-06-11_12h13.49.316,LearnStrategy,2023.2.3,Win32,59.88023952,8,2,8,,,,,,,,1,14,,,,,,,,,,,6,1.775,0,,,,,,-0.178703704,-0.391666667,1,0,0,1.7753,Pegmatite_rect,7,0,7,0,1,
6518cf249463264599a7918d,TCR,2024-06-11_12h13.49.316,LearnStrategy,2023.2.3,Win32,59.88023952,8,2,9,,,,,,,,7,06,,,,,,,,,,,7,3.791,1,,,,,,0.106481481,-0.388888889,1,0,0,3.7905,Peridotite_rect,8,0,8,0,1,
6518cf249463264599a7918d,TCR,2024-06-11_12h13.49.316,LearnStrategy,2023.2.3,Win32,59.88023952,8,2,10,,,,,,,,5,05,,,,,,,,,,,5,1.6,1,,,,,,-0.428703704,-0.391666667,1,0,0,1.6004,Obsidian_rect,9,0,9,0,1,
6518cf249463264599a7918d,TCR,2024-06-11_12h13.49.316,LearnStrategy,2023.2.3,Win32,59.88023952,8,2,11,,,,,,,,7,05,,,,,,,,,,,7,4.043,1,,,,,,0.139814815,-0.400925926,1,0,0,4.0433,Peridotite_rect,10,0,10,0,1,
6518cf249463264599a7918d,TCR,2024-06-11_12h13.49.316,LearnStrategy,2023.2.3,Win32,59.88023952,8,2,12,,,,,,,,6,09,,,,,,,,,,,6,1.917,1,,,,,,-0.132407407,-0.409259259,1,0,0,1.9172,Pegmatite_rect,11,0,11,0,1,
6518cf249463264599a7918d,TCR,2024-06-11_12h13.49.316,LearnStrategy,2023.2.3,Win32,59.88023952,8,2,13,,,,,,,,5,08,,,,,,,,,,,5,1.259,1,,,,,,-0.387962963,-0.410185185,1,0,0,1.2592,Obsidian_rect,12,0,12,0,1,
6518cf249463264599a7918d,TCR,2024-06-11_12h13.49.316,LearnStrategy,2023.2.3,Win32,59.88023952,8,2,14,,,,,,,,3,11,,,,,,,,,,,3,2.088,1,,,,,,0.090740741,-0.230555556,1,0,0,2.0877,Diorite_rect,13,0,13,0,1,
6518cf249463264599a7918d,TCR,2024-06-11_12h13.49.316,LearnStrategy,2023.2.3,Win32,59.88023952,8,2,15,,,,,,,,8,04,,,,,,,,,,,8,1.476,1,,,,,,0.374074074,-0.411111111,1,0,0,1.4759,Pumice_rect,14,0,14,0,1,
6518cf249463264599a7918d,TCR,2024-06-11_12h13.49.316,LearnStrategy,2023.2.3,Win32,59.88023952,8,2,16,,,,,,,,3,12,,,,,,,,,,,3,2.123,1,,,,,,0.112037037,-0.238888889,1,0,0,2.1228,Diorite_rect,15,0,15,0,1,
6518cf249463264599a7918d,TCR,2024-06-11_12h13.49.316,LearnStrategy,2023.2.3,Win32,59.88023952,9,1,1,-0.1,-0.005555556,1,0,0,1.4715,rock_grid_rect_2,3,06,-1,-1,1.472,0.119444444,-0.263888889,1,0,0,1.198,Diorite_rect,3,1.198,1,0,0,0,0,1,,,,,,,,,,,,,
6518cf249463264599a7918d,TCR,2024-06-11_12h13.49.316,LearnStrategy,2023.2.3,Win32,59.88023952,9,1,2,-0.028703704,-0.002777778,1,0,0,2.2048,rock_grid_rect_2,1,07,-1,-1,2.205,-0.377777778,-0.244444444,1,0,0,1.3859,Andesite_rect,1,1.386,1,1,0,1,0,1,,,,,,,,,,,,,
6518cf249463264599a7918d,TCR,2024-06-11_12h13.49.316,LearnStrategy,2023.2.3,Win32,59.88023952,9,1,3,-0.028703704,-0.012962963,1,0,0,0.7813,rock_grid_rect_2,2,10,-1,-1,0.781,-0.147222222,-0.230555556,1,0,0,2.0924,Basalt_rect,2,2.092,1,2,0,2,0,1,,,,,,,,,,,,,
6518cf249463264599a7918d,TCR,2024-06-11_12h13.49.316,LearnStrategy,2023.2.3,Win32,59.88023952,9,1,4,0.009259259,-0.015740741,1,0,0,0.7482,rock_grid_rect_2,3,07,-1,-1,0.748,0.151851852,-0.25,1,0,0,1.1754,Diorite_rect,3,1.175,1,3,0,3,0,1,,,,,,,,,,,,,
6518cf249463264599a7918d,TCR,2024-06-11_12h13.49.316,LearnStrategy,2023.2.3,Win32,59.88023952,9,1,5,-0.023148148,-0.001851852,1,0,0,0.6646,rock_grid_rect_2,2,10,-1,-1,0.665,-0.137037037,-0.237962963,1,0,0,1.3359,Basalt_rect,2,1.336,1,4,0,4,0,1,,,,,,,,,,,,,
6518cf249463264599a7918d,TCR,2024-06-11_12h13.49.316,LearnStrategy,2023.2.3,Win32,59.88023952,9,1,6,0.014814815,-0.014814815,1,0,0,0.9883,rock_grid_rect_2,6,11,-1,-1,0.988,-0.128703704,-0.393518519,1,0,0,1.2188,Pegmatite_rect,6,1.219,1,5,0,5,0,1,,,,,,,,,,,,,
6518cf249463264599a7918d,TCR,2024-06-11_12h13.49.316,LearnStrategy,2023.2.3,Win32,59.88023952,9,1,7,-0.039814815,-0.000925926,1,0,0,0.8148,rock_grid_rect_2,2,09,-1,-1,0.815,-0.138888889,-0.261111111,1,0,0,3.4428,Basalt_rect,2,3.443,1,6,0,6,0,1,,,,,,,,,,,,,
6518cf249463264599a7918d,TCR,2024-06-11_12h13.49.316,LearnStrategy,2023.2.3,Win32,59.88023952,9,1,8,0.014814815,-0.023148148,1,0,0,0.8644,rock_grid_rect_2,2,12,-1,-1,0.864,-0.119444444,-0.235185185,1,0,0,2.8059,Basalt_rect,2,2.806,1,7,0,7,0,1,,,,,,,,,,,,,
6518cf249463264599a7918d,TCR,2024-06-11_12h13.49.316,LearnStrategy,2023.2.3,Win32,59.88023952,9,1,9,-0.041666667,-0.002777778,1,0,0,0.7317,rock_grid_rect_2,1,09,-1,-1,0.732,-0.375,-0.262962963,1,0,0,1.1208,Andesite_rect,1,1.121,1,8,0,8,0,1,,,,,,,,,,,,,
6518cf249463264599a7918d,TCR,2024-06-11_12h13.49.316,LearnStrategy,2023.2.3,Win32,59.88023952,9,1,10,0.000925926,-0.015740741,1,0,0,0.7381,rock_grid_rect_2,2,10,-1,-1,0.738,-0.178703704,-0.237037037,1,0,0,2.686,Basalt_rect,2,2.686,1,9,0,9,0,1,,,,,,,,,,,,,
6518cf249463264599a7918d,TCR,2024-06-11_12h13.49.316,LearnStrategy,2023.2.3,Win32,59.88023952,9,1,11,0.011111111,-0.001851852,1,0,0,0.798,rock_grid_rect_2,8,08,-1,-1,0.798,0.413888889,-0.396296296,1,0,0,2.053,Pumice_rect,8,2.053,1,10,0,10,0,1,,,,,,,,,,,,,
6518cf249463264599a7918d,TCR,2024-06-11_12h13.49.316,LearnStrategy,2023.2.3,Win32,59.88023952,9,1,12,-0.048148148,-0.001851852,1,0,0,0.755,rock_grid_rect_2,7,04,-1,-1,0.755,0.332407407,-0.241666667,1,0,0,5.7525,Gabbro_rect,4,5.753,0,11,0,11,0,1,,,,,,,,,,,,,
6518cf249463264599a7918d,TCR,2024-06-11_12h13.49.316,LearnStrategy,2023.2.3,Win32,59.88023952,9,1,13,-0.075,-0.000925926,1,0,0,1.0468,rock_grid_rect_2,1,05,-1,-1,1.047,-0.417592593,-0.234259259,1,0,0,1.7016,Andesite_rect,1,1.702,1,12,0,12,0,1,,,,,,,,,,,,,
6518cf249463264599a7918d,TCR,2024-06-11_12h13.49.316,LearnStrategy,2023.2.3,Win32,59.88023952,9,1,14,-0.125925926,-0.017592593,1,0,0,0.8483,rock_grid_rect_2,4,13,-1,-1,0.848,0.344444444,-0.249074074,1,0,0,1.2434,Gabbro_rect,4,1.243,1,13,0,13,0,1,,,,,,,,,,,,,
6518cf249463264599a7918d,TCR,2024-06-11_12h13.49.316,LearnStrategy,2023.2.3,Win32,59.88023952,9,1,15,-0.142592593,-0.003703704,1,0,0,0.6147,rock_grid_rect_2,4,12,-1,-1,0.615,-0.146296296,-0.24537037,1,0,0,3.1203,Basalt_rect,2,3.12,0,14,0,14,0,1,,,,,,,,,,,,,
6518cf249463264599a7918d,TCR,2024-06-11_12h13.49.316,LearnStrategy,2023.2.3,Win32,59.88023952,9,1,16,-0.00462963,-0.012962963,1,0,0,1.2388,rock_grid_rect_2,5,07,-1,-1,1.239,-0.388888889,-0.398148148,1,0,0,1.6857,Obsidian_rect,5,1.686,1,15,0,15,0,1,,,,,,,,,,,,,
6518cf249463264599a7918d,TCR,2024-06-11_12h13.49.316,LearnStrategy,2023.2.3,Win32,59.88023952,9,2,1,,,,,,,,6,07,,,,,,,,,,,6,2.925,1,,,,,,-0.156481481,-0.388888889,1,0,0,2.9248,Pegmatite_rect,0,0,0,0,1,
6518cf249463264599a7918d,TCR,2024-06-11_12h13.49.316,LearnStrategy,2023.2.3,Win32,59.88023952,9,2,2,,,,,,,,7,13,,,,,,,,,,,7,2.216,1,,,,,,0.125,-0.405555556,1,0,0,2.2165,Peridotite_rect,1,0,1,0,1,
6518cf249463264599a7918d,TCR,2024-06-11_12h13.49.316,LearnStrategy,2023.2.3,Win32,59.88023952,9,2,3,,,,,,,,7,10,,,,,,,,,,,7,2.341,1,,,,,,0.102777778,-0.398148148,1,0,0,2.3414,Peridotite_rect,2,0,2,0,1,
6518cf249463264599a7918d,TCR,2024-06-11_12h13.49.316,LearnStrategy,2023.2.3,Win32,59.88023952,9,2,4,,,,,,,,8,13,,,,,,,,,,,2,17.328,0,,,,,,-0.161111111,-0.251851852,1,0,0,17.328,Basalt_rect,3,0,3,0,1,
6518cf249463264599a7918d,TCR,2024-06-11_12h13.49.316,LearnStrategy,2023.2.3,Win32,59.88023952,9,2,5,,,,,,,,2,02,,,,,,,,,,,2,2.247,1,,,,,,-0.112962963,-0.25462963,1,0,0,2.247,Basalt_rect,4,0,4,0,1,
6518cf249463264599a7918d,TCR,2024-06-11_12h13.49.316,LearnStrategy,2023.2.3,Win32,59.88023952,9,2,6,,,,,,,,5,12,,,,,,,,,,,5,1.273,1,,,,,,-0.426851852,-0.414814815,1,0,0,1.2732,Obsidian_rect,5,0,5,0,1,
6518cf249463264599a7918d,TCR,2024-06-11_12h13.49.316,LearnStrategy,2023.2.3,Win32,59.88023952,9,2,7,,,,,,,,1,02,,,,,,,,,,,1,1.942,1,,,,,,-0.376851852,-0.234259259,1,0,0,1.9424,Andesite_rect,6,0,6,0,1,
6518cf249463264599a7918d,TCR,2024-06-11_12h13.49.316,LearnStrategy,2023.2.3,Win32,59.88023952,9,2,8,,,,,,,,4,14,,,,,,,,,,,4,1.651,1,,,,,,0.34537037,-0.236111111,1,0,0,1.6511,Gabbro_rect,7,0,7,0,1,
6518cf249463264599a7918d,TCR,2024-06-11_12h13.49.316,LearnStrategy,2023.2.3,Win32,59.88023952,9,2,9,,,,,,,,5,11,,,,,,,,,,,5,1.923,1,,,,,,-0.382407407,-0.400925926,1,0,0,1.923,Obsidian_rect,8,0,8,0,1,
6518cf249463264599a7918d,TCR,2024-06-11_12h13.49.316,LearnStrategy,2023.2.3,Win32,59.88023952,9,2,10,,,,,,,,6,16,,,,,,,,,,,6,1.29,1,,,,,,-0.137962963,-0.388888889,1,0,0,1.2902,Pegmatite_rect,9,0,9,0,1,
6518cf249463264599a7918d,TCR,2024-06-11_12h13.49.316,LearnStrategy,2023.2.3,Win32,59.88023952,9,2,11,,,,,,,,3,09,,,,,,,,,,,3,1.233,1,,,,,,0.056481481,-0.25462963,1,0,0,1.2329,Diorite_rect,10,0,10,0,1,
6518cf249463264599a7918d,TCR,2024-06-11_12h13.49.316,LearnStrategy,2023.2.3,Win32,59.88023952,9,2,12,,,,,,,,3,10,,,,,,,,,,,3,1.625,1,,,,,,0.087037037,-0.241666667,1,0,0,1.6255,Diorite_rect,11,0,11,0,1,
6518cf249463264599a7918d,TCR,2024-06-11_12h13.49.316,LearnStrategy,2023.2.3,Win32,59.88023952,9,2,13,,,,,,,,2,06,,,,,,,,,,,2,2.594,1,,,,,,-0.102777778,-0.265740741,1,0,0,2.5938,Basalt_rect,12,0,12,0,1,
6518cf249463264599a7918d,TCR,2024-06-11_12h13.49.316,LearnStrategy,2023.2.3,Win32,59.88023952,9,2,14,,,,,,,,8,05,,,,,,,,,,,8,1.682,1,,,,,,0.35462963,-0.413888889,1,0,0,1.6822,Pumice_rect,13,0,13,0,1,
6518cf249463264599a7918d,TCR,2024-06-11_12h13.49.316,LearnStrategy,2023.2.3,Win32,59.88023952,9,2,15,,,,,,,,1,03,,,,,,,,,,,1,1.258,1,,,,,,-0.387962963,-0.244444444,1,0,0,1.2584,Andesite_rect,14,0,14,0,1,
6518cf249463264599a7918d,TCR,2024-06-11_12h13.49.316,LearnStrategy,2023.2.3,Win32,59.88023952,9,2,16,,,,,,,,4,10,,,,,,,,,,,4,4.208,1,,,,,,0.382407407,-0.243518519,1,0,0,4.2084,Gabbro_rect,15,0,15,0,1,
6518cf249463264599a7918d,TCR,2024-06-11_12h13.49.316,LearnStrategy,2023.2.3,Win32,59.88023952,,,,,,,,,,,,,,,,,,,,,,,,,,,,,,,,,,,,,,,,,,,1
6518cf249463264599a7918d,TCR,2024-06-11_12h13.49.316,LearnStrategy,2023.2.3,Win32,59.88023952,,,,,,,,,,,,,,,,,,,,,,,,,,,,,,,,,,,,,,,,,,,
6518cf249463264599a7918d,TCR,2024-06-11_12h13.49.316,LearnStrategy,2023.2.3,Win32,59.88023952,,,,,,,,,,,3,06,1,1,,,,,,,,,,,,,,,,,,,,,,,,,,,,,
6518cf249463264599a7918d,TCR,2024-06-11_12h13.49.316,LearnStrategy,2023.2.3,Win32,59.88023952,,,,,,,,,,,2,10,1,2,,,,,,,,,,,,,,,,,,,,,,,,,,,,,
6518cf249463264599a7918d,TCR,2024-06-11_12h13.49.316,LearnStrategy,2023.2.3,Win32,59.88023952,,,,,,,,,,,3,07,1,3,,,,,,,,,,,,,,,,,,,,,,,,,,,,,
6518cf249463264599a7918d,TCR,2024-06-11_12h13.49.316,LearnStrategy,2023.2.3,Win32,59.88023952,,,,,,,,,,,7,07,1,4,,,,,,,,,,,,,,,,,,,,,,,,,,,,,
6518cf249463264599a7918d,TCR,2024-06-11_12h13.49.316,LearnStrategy,2023.2.3,Win32,59.88023952,,,,,,,,,,,7,16,1,5,,,,,,,,,,,,,,,,,,,,,,,,,,,,,
6518cf249463264599a7918d,TCR,2024-06-11_12h13.49.316,LearnStrategy,2023.2.3,Win32,59.88023952,,,,,,,,,,,1,04,1,6,,,,,,,,,,,,,,,,,,,,,,,,,,,,,
6518cf249463264599a7918d,TCR,2024-06-11_12h13.49.316,LearnStrategy,2023.2.3,Win32,59.88023952,,,,,,,,,,,8,09,1,7,,,,,,,,,,,,,,,,,,,,,,,,,,,,,
6518cf249463264599a7918d,TCR,2024-06-11_12h13.49.316,LearnStrategy,2023.2.3,Win32,59.88023952,,,,,,,,,,,6,06,1,8,,,,,,,,,,,,,,,,,,,,,,,,,,,,,
6518cf249463264599a7918d,TCR,2024-06-11_12h13.49.316,LearnStrategy,2023.2.3,Win32,59.88023952,,,,,,,,,,,5,10,2,1,,,,,,,,,,,,,,,,,,,,,,,,,,,,,
6518cf249463264599a7918d,TCR,2024-06-11_12h13.49.316,LearnStrategy,2023.2.3,Win32,59.88023952,,,,,,,,,,,6,11,2,2,,,,,,,,,,,,,,,,,,,,,,,,,,,,,
6518cf249463264599a7918d,TCR,2024-06-11_12h13.49.316,LearnStrategy,2023.2.3,Win32,59.88023952,,,,,,,,,,,2,16,2,3,,,,,,,,,,,,,,,,,,,,,,,,,,,,,
6518cf249463264599a7918d,TCR,2024-06-11_12h13.49.316,LearnStrategy,2023.2.3,Win32,59.88023952,,,,,,,,,,,3,13,2,4,,,,,,,,,,,,,,,,,,,,,,,,,,,,,
6518cf249463264599a7918d,TCR,2024-06-11_12h13.49.316,LearnStrategy,2023.2.3,Win32,59.88023952,,,,,,,,,,,8,02,2,5,,,,,,,,,,,,,,,,,,,,,,,,,,,,,
6518cf249463264599a7918d,TCR,2024-06-11_12h13.49.316,LearnStrategy,2023.2.3,Win32,59.88023952,,,,,,,,,,,7,15,2,6,,,,,,,,,,,,,,,,,,,,,,,,,,,,,
6518cf249463264599a7918d,TCR,2024-06-11_12h13.49.316,LearnStrategy,2023.2.3,Win32,59.88023952,,,,,,,,,,,3,14,2,7,,,,,,,,,,,,,,,,,,,,,,,,,,,,,
6518cf249463264599a7918d,TCR,2024-06-11_12h13.49.316,LearnStrategy,2023.2.3,Win32,59.88023952,,,,,,,,,,,5,16,2,8,,,,,,,,,,,,,,,,,,,,,,,,,,,,,
6518cf249463264599a7918d,TCR,2024-06-11_12h13.49.316,LearnStrategy,2023.2.3,Win32,59.88023952,,,,,,,,,,,5,14,3,1,,,,,,,,,,,,,,,,,,,,,,,,,,,,,
6518cf249463264599a7918d,TCR,2024-06-11_12h13.49.316,LearnStrategy,2023.2.3,Win32,59.88023952,,,,,,,,,,,1,01,3,2,,,,,,,,,,,,,,,,,,,,,,,,,,,,,
6518cf249463264599a7918d,TCR,2024-06-11_12h13.49.316,LearnStrategy,2023.2.3,Win32,59.88023952,,,,,,,,,,,4,15,3,3,,,,,,,,,,,,,,,,,,,,,,,,,,,,,
6518cf249463264599a7918d,TCR,2024-06-11_12h13.49.316,LearnStrategy,2023.2.3,Win32,59.88023952,,,,,,,,,,,3,02,3,4,,,,,,,,,,,,,,,,,,,,,,,,,,,,,
6518cf249463264599a7918d,TCR,2024-06-11_12h13.49.316,LearnStrategy,2023.2.3,Win32,59.88023952,,,,,,,,,,,8,14,3,5,,,,,,,,,,,,,,,,,,,,,,,,,,,,,
6518cf249463264599a7918d,TCR,2024-06-11_12h13.49.316,LearnStrategy,2023.2.3,Win32,59.88023952,,,,,,,,,,,8,03,3,6,,,,,,,,,,,,,,,,,,,,,,,,,,,,,
6518cf249463264599a7918d,TCR,2024-06-11_12h13.49.316,LearnStrategy,2023.2.3,Win32,59.88023952,,,,,,,,,,,4,13,3,7,,,,,,,,,,,,,,,,,,,,,,,,,,,,,
6518cf249463264599a7918d,TCR,2024-06-11_12h13.49.316,LearnStrategy,2023.2.3,Win32,59.88023952,,,,,,,,,,,6,03,3,8,,,,,,,,,,,,,,,,,,,,,,,,,,,,,
6518cf249463264599a7918d,TCR,2024-06-11_12h13.49.316,LearnStrategy,2023.2.3,Win32,59.88023952,,,,,,,,,,,6,12,4,1,,,,,,,,,,,,,,,,,,,,,,,,,,,,,
6518cf249463264599a7918d,TCR,2024-06-11_12h13.49.316,LearnStrategy,2023.2.3,Win32,59.88023952,,,,,,,,,,,8,08,4,2,,,,,,,,,,,,,,,,,,,,,,,,,,,,,
6518cf249463264599a7918d,TCR,2024-06-11_12h13.49.316,LearnStrategy,2023.2.3,Win32,59.88023952,,,,,,,,,,,5,06,4,3,,,,,,,,,,,,,,,,,,,,,,,,,,,,,
6518cf249463264599a7918d,TCR,2024-06-11_12h13.49.316,LearnStrategy,2023.2.3,Win32,59.88023952,,,,,,,,,,,1,06,4,4,,,,,,,,,,,,,,,,,,,,,,,,,,,,,
6518cf249463264599a7918d,TCR,2024-06-11_12h13.49.316,LearnStrategy,2023.2.3,Win32,59.88023952,,,,,,,,,,,8,06,4,5,,,,,,,,,,,,,,,,,,,,,,,,,,,,,
6518cf249463264599a7918d,TCR,2024-06-11_12h13.49.316,LearnStrategy,2023.2.3,Win32,59.88023952,,,,,,,,,,,7,14,4,6,,,,,,,,,,,,,,,,,,,,,,,,,,,,,
6518cf249463264599a7918d,TCR,2024-06-11_12h13.49.316,LearnStrategy,2023.2.3,Win32,59.88023952,,,,,,,,,,,1,07,4,7,,,,,,,,,,,,,,,,,,,,,,,,,,,,,
6518cf249463264599a7918d,TCR,2024-06-11_12h13.49.316,LearnStrategy,2023.2.3,Win32,59.88023952,,,,,,,,,,,4,08,4,8,,,,,,,,,,,,,,,,,,,,,,,,,,,,,
6518cf249463264599a7918d,TCR,2024-06-11_12h13.49.316,LearnStrategy,2023.2.3,Win32,59.88023952,,,,,,,,,,,2,04,5,1,,,,,,,,,,,,,,,,,,,,,,,,,,,,,
6518cf249463264599a7918d,TCR,2024-06-11_12h13.49.316,LearnStrategy,2023.2.3,Win32,59.88023952,,,,,,,,,,,5,04,5,2,,,,,,,,,,,,,,,,,,,,,,,,,,,,,
6518cf249463264599a7918d,TCR,2024-06-11_12h13.49.316,LearnStrategy,2023.2.3,Win32,59.88023952,,,,,,,,,,,4,01,5,3,,,,,,,,,,,,,,,,,,,,,,,,,,,,,
6518cf249463264599a7918d,TCR,2024-06-11_12h13.49.316,LearnStrategy,2023.2.3,Win32,59.88023952,,,,,,,,,,,1,05,5,4,,,,,,,,,,,,,,,,,,,,,,,,,,,,,
6518cf249463264599a7918d,TCR,2024-06-11_12h13.49.316,LearnStrategy,2023.2.3,Win32,59.88023952,,,,,,,,,,,1,09,5,5,,,,,,,,,,,,,,,,,,,,,,,,,,,,,
6518cf249463264599a7918d,TCR,2024-06-11_12h13.49.316,LearnStrategy,2023.2.3,Win32,59.88023952,,,,,,,,,,,6,13,5,6,,,,,,,,,,,,,,,,,,,,,,,,,,,,,
6518cf249463264599a7918d,TCR,2024-06-11_12h13.49.316,LearnStrategy,2023.2.3,Win32,59.88023952,,,,,,,,,,,2,08,5,7,,,,,,,,,,,,,,,,,,,,,,,,,,,,,
6518cf249463264599a7918d,TCR,2024-06-11_12h13.49.316,LearnStrategy,2023.2.3,Win32,59.88023952,,,,,,,,,,,4,16,5,8,,,,,,,,,,,,,,,,,,,,,,,,,,,,,
6518cf249463264599a7918d,TCR,2024-06-11_12h13.49.316,LearnStrategy,2023.2.3,Win32,59.88023952,,,,,,,,,,,2,09,6,1,,,,,,,,,,,,,,,,,,,,,,,,,,,,,
6518cf249463264599a7918d,TCR,2024-06-11_12h13.49.316,LearnStrategy,2023.2.3,Win32,59.88023952,,,,,,,,,,,7,12,6,2,,,,,,,,,,,,,,,,,,,,,,,,,,,,,
6518cf249463264599a7918d,TCR,2024-06-11_12h13.49.316,LearnStrategy,2023.2.3,Win32,59.88023952,,,,,,,,,,,3,08,6,3,,,,,,,,,,,,,,,,,,,,,,,,,,,,,
6518cf249463264599a7918d,TCR,2024-06-11_12h13.49.316,LearnStrategy,2023.2.3,Win32,59.88023952,,,,,,,,,,,6,10,6,4,,,,,,,,,,,,,,,,,,,,,,,,,,,,,
6518cf249463264599a7918d,TCR,2024-06-11_12h13.49.316,LearnStrategy,2023.2.3,Win32,59.88023952,,,,,,,,,,,5,07,6,5,,,,,,,,,,,,,,,,,,,,,,,,,,,,,
6518cf249463264599a7918d,TCR,2024-06-11_12h13.49.316,LearnStrategy,2023.2.3,Win32,59.88023952,,,,,,,,,,,4,12,6,6,,,,,,,,,,,,,,,,,,,,,,,,,,,,,
6518cf249463264599a7918d,TCR,2024-06-11_12h13.49.316,LearnStrategy,2023.2.3,Win32,59.88023952,,,,,,,,,,,2,12,6,7,,,,,,,,,,,,,,,,,,,,,,,,,,,,,
6518cf249463264599a7918d,TCR,2024-06-11_12h13.49.316,LearnStrategy,2023.2.3,Win32,59.88023952,,,,,,,,,,,7,04,6,8,,,,,,,,,,,,,,,,,,,,,,,,,,,,,