participant,condition,date,expName,psychopyVersion,OS,frameRate,block,phase,trial,learn_mouse_2.x,learn_mouse_2.y,learn_mouse_2.leftButton,learn_mouse_2.midButton,learn_mouse_2.rightButton,learn_mouse_2.time,learn_mouse_2.clicked_name,cat,token,row,col,t_select,cat_mouse_l.x,cat_mouse_l.y,cat_mouse_l.leftButton,cat_mouse_l.midButton,cat_mouse_l.rightButton,cat_mouse_l.time,cat_mouse_l.clicked_name,resp,t_resp,corr,train_trials.thisRepN,train_trials.thisTrialN,train_trials.thisN,train_trials.thisIndex,train_trials.ran,cat_mouse_t.x,cat_mouse_t.y,cat_mouse_t.leftButton,cat_mouse_t.midButton,cat_mouse_t.rightButton,cat_mouse_t.time,cat_mouse_t.clicked_name,test_trials.thisRepN,test_trials.thisTrialN,test_trials.thisN,test_trials.thisIndex,test_trials.ran,Bonus
6529c6cd086dd362bc291f14,TCN,2024-06-20_13h32.05.758,LearnStrategy,2023.2.3,Win32,60.24096386,,,,,,,,,,,,,,,,,,,,,,,,,,,,,,,,,,,,,,,,,,,
6529c6cd086dd362bc291f14,TCN,2024-06-20_13h32.05.758,LearnStrategy,2023.2.3,Win32,60.24096386,1,1,1,0.098148176,0.002777778,1,0,0,5.6224,rock_grid_rect_2,2,14,-1,-1,5.622,-0.045370314,-0.249074131,1,0,0,7.6721,Basalt_rect,2,7.672,1,0,0,0,0,1,,,,,,,,,,,,,
6529c6cd086dd362bc291f14,TCN,2024-06-20_13h32.05.758,LearnStrategy,2023.2.3,Win32,60.24096386,1,1,2,0.117592621,0.023148134,1,0,0,2.0757,rock_grid_rect_2,6,11,-1,-1,2.076,0.329629686,-0.262037065,1,0,0,3.1457,Gabbro_rect,4,3.146,0,1,0,1,0,1,,,,,,,,,,,,,
6529c6cd086dd362bc291f14,TCN,2024-06-20_13h32.05.758,LearnStrategy,2023.2.3,Win32,60.24096386,1,1,3,0.107407464,-0.004629644,1,0,0,1.756,rock_grid_rect_2,5,08,-1,-1,1.756,-0.088888889,-0.387037065,1,0,0,3.3814,Pegmatite_rect,6,3.381,0,2,0,2,0,1,,,,,,,,,,,,,
6529c6cd086dd362bc291f14,TCN,2024-06-20_13h32.05.758,LearnStrategy,2023.2.3,Win32,60.24096386,1,1,4,0.052777778,0.010185157,1,0,0,1.4087,rock_grid_rect_2,4,14,-1,-1,1.409,0.140740797,-0.25648151,1,0,0,4.5772,Diorite_rect,3,4.577,0,3,0,3,0,1,,,,,,,,,,,,,
6529c6cd086dd362bc291f14,TCN,2024-06-20_13h32.05.758,LearnStrategy,2023.2.3,Win32,60.24096386,1,1,5,0.112963019,0.000925912,1,0,0,2.2075,rock_grid_rect_2,8,10,-1,-1,2.207,0.388888889,-0.411111111,1,0,0,6.2768,Pumice_rect,8,6.277,1,4,0,4,0,1,,,,,,,,,,,,,
6529c6cd086dd362bc291f14,TCN,2024-06-20_13h32.05.758,LearnStrategy,2023.2.3,Win32,60.24096386,1,1,6,0.059259288,-0.009259288,1,0,0,1.2782,rock_grid_rect_2,3,08,-1,-1,1.278,-0.448148134,-0.244444444,1,0,0,2.6519,Andesite_rect,1,2.652,0,5,0,5,0,1,,,,,,,,,,,,,
6529c6cd086dd362bc291f14,TCN,2024-06-20_13h32.05.758,LearnStrategy,2023.2.3,Win32,60.24096386,1,1,7,0.030555556,0.010185157,1,0,0,1.3569,rock_grid_rect_2,7,13,-1,-1,1.357,-0.112036981,-0.391666667,1,0,0,3.6786,Pegmatite_rect,6,3.679,0,6,0,6,0,1,,,,,,,,,,,,,
6529c6cd086dd362bc291f14,TCN,2024-06-20_13h32.05.758,LearnStrategy,2023.2.3,Win32,60.24096386,1,1,8,0.096296353,0.005555556,1,0,0,1.2424,rock_grid_rect_2,2,06,-1,-1,1.242,-0.112036981,-0.414814843,1,0,0,4.0298,Pegmatite_rect,6,4.03,0,7,0,7,0,1,,,,,,,,,,,,,
6529c6cd086dd362bc291f14,TCN,2024-06-20_13h32.05.758,LearnStrategy,2023.2.3,Win32,60.24096386,1,1,9,0.087037065,0.002777778,1,0,0,2.1062,rock_grid_rect_2,5,10,-1,-1,2.106,0.163888889,-0.266666667,1,0,0,2.8913,Diorite_rect,3,2.891,0,8,0,8,0,1,,,,,,,,,,,,,
6529c6cd086dd362bc291f14,TCN,2024-06-20_13h32.05.758,LearnStrategy,2023.2.3,Win32,60.24096386,1,1,10,0.112037065,0.011111111,1,0,0,1.5395,rock_grid_rect_2,1,09,-1,-1,1.539,0.312037065,-0.399074131,1,0,0,2.6147,Pumice_rect,8,2.615,0,9,0,9,0,1,,,,,,,,,,,,,
6529c6cd086dd362bc291f14,TCN,2024-06-20_13h32.05.758,LearnStrategy,2023.2.3,Win32,60.24096386,1,1,11,0.087963019,-0.007407422,1,0,0,1.6405,rock_grid_rect_2,6,13,-1,-1,1.64,0.355555556,-0.240740797,1,0,0,3.6985,Gabbro_rect,4,3.698,0,10,0,10,0,1,,,,,,,,,,,,,
6529c6cd086dd362bc291f14,TCN,2024-06-20_13h32.05.758,LearnStrategy,2023.2.3,Win32,60.24096386,1,1,12,0.001851908,0.001851824,1,0,0,1.3894,rock_grid_rect_2,4,01,-1,-1,1.389,-0.332407379,-0.389814843,1,0,0,3.9618,Obsidian_rect,5,3.962,0,11,0,11,0,1,,,,,,,,,,,,,
6529c6cd086dd362bc291f14,TCN,2024-06-20_13h32.05.758,LearnStrategy,2023.2.3,Win32,60.24096386,1,1,13,0.139814843,0.009259245,1,0,0,1.425,rock_grid_rect_2,3,15,-1,-1,1.425,0.174074131,-0.235185242,1,0,0,4.3291,Diorite_rect,3,4.329,1,12,0,12,0,1,,,,,,,,,,,,,
6529c6cd086dd362bc291f14,TCN,2024-06-20_13h32.05.758,LearnStrategy,2023.2.3,Win32,60.24096386,1,1,14,0.037037065,0.011111111,1,0,0,2.6924,rock_grid_rect_2,1,14,-1,-1,2.692,-0.125925869,-0.246296353,1,0,0,2.2637,Basalt_rect,2,2.264,0,13,0,13,0,1,,,,,,,,,,,,,
6529c6cd086dd362bc291f14,TCN,2024-06-20_13h32.05.758,LearnStrategy,2023.2.3,Win32,60.24096386,1,1,15,0.014814843,-0.013888889,1,0,0,3.8208,rock_grid_rect_2,8,14,-1,-1,3.821,-0.305555556,-0.418518575,1,0,0,2.7506,Obsidian_rect,5,2.751,0,14,0,14,0,1,,,,,,,,,,,,,
6529c6cd086dd362bc291f14,TCN,2024-06-20_13h32.05.758,LearnStrategy,2023.2.3,Win32,60.24096386,1,1,16,0.140740797,0.00370369,1,0,0,1.1402,rock_grid_rect_2,7,06,-1,-1,1.14,0.133333333,-0.253703732,1,0,0,4.6285,Diorite_rect,3,4.629,0,15,0,15,0,1,,,,,,,,,,,,,
6529c6cd086dd362bc291f14,TCN,2024-06-20_13h32.05.758,LearnStrategy,2023.2.3,Win32,60.24096386,1,2,1,,,,,,,,2,02,,,,,,,,,,,2,3.501,1,,,,,,-0.085185157,-0.252777778,1,0,0,3.5008,Basalt_rect,0,0,0,0,1,
6529c6cd086dd362bc291f14,TCN,2024-06-20_13h32.05.758,LearnStrategy,2023.2.3,Win32,60.24096386,1,2,2,,,,,,,,7,16,,,,,,,,,,,7,3.912,1,,,,,,0.126851908,-0.407407464,1,0,0,3.912,Peridotite_rect,1,0,1,0,1,
6529c6cd086dd362bc291f14,TCN,2024-06-20_13h32.05.758,LearnStrategy,2023.2.3,Win32,60.24096386,1,2,3,,,,,,,,8,02,,,,,,,,,,,8,3.069,1,,,,,,0.322222222,-0.398148176,1,0,0,3.0688,Pumice_rect,2,0,2,0,1,
6529c6cd086dd362bc291f14,TCN,2024-06-20_13h32.05.758,LearnStrategy,2023.2.3,Win32,60.24096386,1,2,4,,,,,,,,2,16,,,,,,,,,,,5,1.913,0,,,,,,-0.35370369,-0.387963019,1,0,0,1.9133,Obsidian_rect,3,0,3,0,1,
6529c6cd086dd362bc291f14,TCN,2024-06-20_13h32.05.758,LearnStrategy,2023.2.3,Win32,60.24096386,1,2,5,,,,,,,,7,04,,,,,,,,,,,1,2.494,0,,,,,,-0.337037023,-0.250925954,1,0,0,2.4936,Andesite_rect,4,0,4,0,1,
6529c6cd086dd362bc291f14,TCN,2024-06-20_13h32.05.758,LearnStrategy,2023.2.3,Win32,60.24096386,1,2,6,,,,,,,,6,08,,,,,,,,,,,6,4.343,1,,,,,,-0.079629601,-0.393518575,1,0,0,4.3431,Pegmatite_rect,5,0,5,0,1,
6529c6cd086dd362bc291f14,TCN,2024-06-20_13h32.05.758,LearnStrategy,2023.2.3,Win32,60.24096386,1,2,7,,,,,,,,4,12,,,,,,,,,,,2,7.275,0,,,,,,-0.080555556,-0.248148176,1,0,0,7.2747,Basalt_rect,6,0,6,0,1,
6529c6cd086dd362bc291f14,TCN,2024-06-20_13h32.05.758,LearnStrategy,2023.2.3,Win32,60.24096386,1,2,8,,,,,,,,5,09,,,,,,,,,,,4,2.063,0,,,,,,0.386111111,-0.236111111,1,0,0,2.0625,Gabbro_rect,7,0,7,0,1,
6529c6cd086dd362bc291f14,TCN,2024-06-20_13h32.05.758,LearnStrategy,2023.2.3,Win32,60.24096386,1,2,9,,,,,,,,5,16,,,,,,,,,,,7,1.748,0,,,,,,0.136111111,-0.384259288,1,0,0,1.7481,Peridotite_rect,8,0,8,0,1,
6529c6cd086dd362bc291f14,TCN,2024-06-20_13h32.05.758,LearnStrategy,2023.2.3,Win32,60.24096386,1,2,10,,,,,,,,1,11,,,,,,,,,,,2,3.629,0,,,,,,-0.1,-0.254629686,1,0,0,3.6288,Basalt_rect,9,0,9,0,1,
6529c6cd086dd362bc291f14,TCN,2024-06-20_13h32.05.758,LearnStrategy,2023.2.3,Win32,60.24096386,1,2,11,,,,,,,,1,01,,,,,,,,,,,6,2.353,0,,,,,,-0.201851824,-0.410185242,1,0,0,2.3529,Pegmatite_rect,10,0,10,0,1,
6529c6cd086dd362bc291f14,TCN,2024-06-20_13h32.05.758,LearnStrategy,2023.2.3,Win32,60.24096386,1,2,12,,,,,,,,3,13,,,,,,,,,,,3,3.902,1,,,,,,0.139814843,-0.25648151,1,0,0,3.902,Diorite_rect,11,0,11,0,1,
6529c6cd086dd362bc291f14,TCN,2024-06-20_13h32.05.758,LearnStrategy,2023.2.3,Win32,60.24096386,1,2,13,,,,,,,,4,15,,,,,,,,,,,1,2.378,0,,,,,,-0.341666667,-0.25,1,0,0,2.378,Andesite_rect,12,0,12,0,1,
6529c6cd086dd362bc291f14,TCN,2024-06-20_13h32.05.758,LearnStrategy,2023.2.3,Win32,60.24096386,1,2,14,,,,,,,,6,15,,,,,,,,,,,4,2.147,0,,,,,,0.410185242,-0.236111111,1,0,0,2.1467,Gabbro_rect,13,0,13,0,1,
6529c6cd086dd362bc291f14,TCN,2024-06-20_13h32.05.758,LearnStrategy,2023.2.3,Win32,60.24096386,1,2,15,,,,,,,,3,10,,,,,,,,,,,8,1.765,0,,,,,,0.337963019,-0.404629686,1,0,0,1.7653,Pumice_rect,14,0,14,0,1,
6529c6cd086dd362bc291f14,TCN,2024-06-20_13h32.05.758,LearnStrategy,2023.2.3,Win32,60.24096386,1,2,16,,,,,,,,8,15,,,,,,,,,,,3,3.13,0,,,,,,0.104629686,-0.254629686,1,0,0,3.1302,Diorite_rect,15,0,15,0,1,
6529c6cd086dd362bc291f14,TCN,2024-06-20_13h32.05.758,LearnStrategy,2023.2.3,Win32,60.24096386,2,1,1,0.046296353,0,1,0,0,3.5078,rock_grid_rect_2,8,09,-1,-1,3.508,-0.090740712,-0.25,1,0,0,1.5709,Basalt_rect,2,1.571,0,0,0,0,0,1,,,,,,,,,,,,,
6529c6cd086dd362bc291f14,TCN,2024-06-20_13h32.05.758,LearnStrategy,2023.2.3,Win32,60.24096386,2,1,2,0.114814843,0,1,0,0,1.3911,rock_grid_rect_2,5,04,-1,-1,1.391,0.360185242,-0.260185242,1,0,0,1.6905,Gabbro_rect,4,1.691,0,1,0,1,0,1,,,,,,,,,,,,,
6529c6cd086dd362bc291f14,TCN,2024-06-20_13h32.05.758,LearnStrategy,2023.2.3,Win32,60.24096386,2,1,3,0.038888889,0.005555556,1,0,0,1.4078,rock_grid_rect_2,1,02,-1,-1,1.408,-0.077777778,-0.260185242,1,0,0,4.6284,Basalt_rect,2,4.628,0,2,0,2,0,1,,,,,,,,,,,,,
6529c6cd086dd362bc291f14,TCN,2024-06-20_13h32.05.758,LearnStrategy,2023.2.3,Win32,60.24096386,2,1,4,0.117592621,-0.005555556,1,0,0,1.3904,rock_grid_rect_2,5,07,-1,-1,1.39,0.133333333,-0.402777778,1,0,0,1.2664,Peridotite_rect,7,1.266,0,3,0,3,0,1,,,,,,,,,,,,,
6529c6cd086dd362bc291f14,TCN,2024-06-20_13h32.05.758,LearnStrategy,2023.2.3,Win32,60.24096386,2,1,5,0.061111111,0.017592578,1,0,0,2.2572,rock_grid_rect_2,3,07,-1,-1,2.257,0.122222222,-0.242592621,1,0,0,1.6332,Diorite_rect,3,1.633,1,4,0,4,0,1,,,,,,,,,,,,,
6529c6cd086dd362bc291f14,TCN,2024-06-20_13h32.05.758,LearnStrategy,2023.2.3,Win32,60.24096386,2,1,6,0.095370399,0.006481467,1,0,0,1.824,rock_grid_rect_2,7,10,-1,-1,1.824,-0.076851824,-0.243518575,1,0,0,1.571,Basalt_rect,2,1.571,0,5,0,5,0,1,,,,,,,,,,,,,
6529c6cd086dd362bc291f14,TCN,2024-06-20_13h32.05.758,LearnStrategy,2023.2.3,Win32,60.24096386,2,1,7,0.051851908,-0.000925954,1,0,0,1.2909,rock_grid_rect_2,6,10,-1,-1,1.291,0.164814843,-0.254629686,1,0,0,3.7923,Diorite_rect,3,3.792,0,6,0,6,0,1,,,,,,,,,,,,,
6529c6cd086dd362bc291f14,TCN,2024-06-20_13h32.05.758,LearnStrategy,2023.2.3,Win32,60.24096386,2,1,8,0.069444444,0.001851824,1,0,0,1.3403,rock_grid_rect_2,8,08,-1,-1,1.34,-0.351851824,-0.232407464,1,0,0,3.147,Andesite_rect,1,3.147,0,7,0,7,0,1,,,,,,,,,,,,,
6529c6cd086dd362bc291f14,TCN,2024-06-20_13h32.05.758,LearnStrategy,2023.2.3,Win32,60.24096386,2,1,9,0.046296353,0.013888889,1,0,0,1.0902,rock_grid_rect_2,4,10,-1,-1,1.09,0.362037065,-0.234259288,1,0,0,3.1148,Gabbro_rect,4,3.115,1,8,0,8,0,1,,,,,,,,,,,,,
6529c6cd086dd362bc291f14,TCN,2024-06-20_13h32.05.758,LearnStrategy,2023.2.3,Win32,60.24096386,2,1,10,0.043518575,0.00370369,1,0,0,1.2928,rock_grid_rect_2,6,16,-1,-1,1.293,0.119444444,-0.399074131,1,0,0,2.7685,Peridotite_rect,7,2.769,0,9,0,9,0,1,,,,,,,,,,,,,
6529c6cd086dd362bc291f14,TCN,2024-06-20_13h32.05.758,LearnStrategy,2023.2.3,Win32,60.24096386,2,1,11,0.072222222,-0.007407422,1,0,0,3.9297,rock_grid_rect_2,7,12,-1,-1,3.93,0.125925954,-0.244444444,1,0,0,1.902,Diorite_rect,3,1.902,0,10,0,10,0,1,,,,,,,,,,,,,
6529c6cd086dd362bc291f14,TCN,2024-06-20_13h32.05.758,LearnStrategy,2023.2.3,Win32,60.24096386,2,1,12,0.105555556,-0.012962977,1,0,0,1.3746,rock_grid_rect_2,3,06,-1,-1,1.375,0.295370399,-0.397222222,1,0,0,3.0658,Pumice_rect,8,3.066,0,11,0,11,0,1,,,,,,,,,,,,,
6529c6cd086dd362bc291f14,TCN,2024-06-20_13h32.05.758,LearnStrategy,2023.2.3,Win32,60.24096386,2,1,13,0.013888889,-0.004629644,1,0,0,3.722,rock_grid_rect_2,4,09,-1,-1,3.722,-0.09351849,-0.262963019,1,0,0,2.5867,Basalt_rect,2,2.587,0,12,0,12,0,1,,,,,,,,,,,,,
6529c6cd086dd362bc291f14,TCN,2024-06-20_13h32.05.758,LearnStrategy,2023.2.3,Win32,60.24096386,2,1,14,0.035185242,-0.001851866,1,0,0,1.4387,rock_grid_rect_2,2,01,-1,-1,1.439,0.104629686,-0.413888889,1,0,0,2.0404,Peridotite_rect,7,2.04,0,13,0,13,0,1,,,,,,,,,,,,,
6529c6cd086dd362bc291f14,TCN,2024-06-20_13h32.05.758,LearnStrategy,2023.2.3,Win32,60.24096386,2,1,15,0.041666667,-0.008333333,1,0,0,1.3081,rock_grid_rect_2,2,05,-1,-1,1.308,-0.31851849,-0.251851908,1,0,0,3.3144,Andesite_rect,1,3.314,0,14,0,14,0,1,,,,,,,,,,,,,
6529c6cd086dd362bc291f14,TCN,2024-06-20_13h32.05.758,LearnStrategy,2023.2.3,Win32,60.24096386,2,1,16,0.065740797,0.012962935,1,0,0,2.0398,rock_grid_rect_2,1,03,-1,-1,2.04,0.337037065,-0.253703732,1,0,0,2.7424,Gabbro_rect,4,2.742,0,15,0,15,0,1,,,,,,,,,,,,,
6529c6cd086dd362bc291f14,TCN,2024-06-20_13h32.05.758,LearnStrategy,2023.2.3,Win32,60.24096386,2,2,1,,,,,,,,2,10,,,,,,,,,,,2,5.261,1,,,,,,-0.095370314,-0.255555556,1,0,0,5.2612,Basalt_rect,0,0,0,0,1,
6529c6cd086dd362bc291f14,TCN,2024-06-20_13h32.05.758,LearnStrategy,2023.2.3,Win32,60.24096386,2,2,2,,,,,,,,7,14,,,,,,,,,,,1,3.862,0,,,,,,-0.412037023,-0.230555556,1,0,0,3.8623,Andesite_rect,1,0,1,0,1,
6529c6cd086dd362bc291f14,TCN,2024-06-20_13h32.05.758,LearnStrategy,2023.2.3,Win32,60.24096386,2,2,3,,,,,,,,6,07,,,,,,,,,,,4,3.213,0,,,,,,0.332407464,-0.260185242,1,0,0,3.2133,Gabbro_rect,2,0,2,0,1,
6529c6cd086dd362bc291f14,TCN,2024-06-20_13h32.05.758,LearnStrategy,2023.2.3,Win32,60.24096386,2,2,4,,,,,,,,1,16,,,,,,,,,,,2,2.348,0,,,,,,-0.094444444,-0.251851908,1,0,0,2.3479,Basalt_rect,3,0,3,0,1,
6529c6cd086dd362bc291f14,TCN,2024-06-20_13h32.05.758,LearnStrategy,2023.2.3,Win32,60.24096386,2,2,5,,,,,,,,4,11,,,,,,,,,,,3,3.879,0,,,,,,0.102777778,-0.239814843,1,0,0,3.8791,Diorite_rect,4,0,4,0,1,
6529c6cd086dd362bc291f14,TCN,2024-06-20_13h32.05.758,LearnStrategy,2023.2.3,Win32,60.24096386,2,2,6,,,,,,,,8,06,,,,,,,,,,,2,1.703,0,,,,,,-0.175,-0.246296353,1,0,0,1.703,Basalt_rect,5,0,5,0,1,
6529c6cd086dd362bc291f14,TCN,2024-06-20_13h32.05.758,LearnStrategy,2023.2.3,Win32,60.24096386,2,2,7,,,,,,,,2,11,,,,,,,,,,,7,1.365,0,,,,,,0.075,-0.414814843,1,0,0,1.3653,Peridotite_rect,6,0,6,0,1,
6529c6cd086dd362bc291f14,TCN,2024-06-20_13h32.05.758,LearnStrategy,2023.2.3,Win32,60.24096386,2,2,8,,,,,,,,1,06,,,,,,,,,,,6,1.516,0,,,,,,-0.111111111,-0.390740797,1,0,0,1.5159,Pegmatite_rect,7,0,7,0,1,
6529c6cd086dd362bc291f14,TCN,2024-06-20_13h32.05.758,LearnStrategy,2023.2.3,Win32,60.24096386,2,2,9,,,,,,,,4,16,,,,,,,,,,,5,2.254,0,,,,,,-0.431481467,-0.404629686,1,0,0,2.2544,Obsidian_rect,8,0,8,0,1,
6529c6cd086dd362bc291f14,TCN,2024-06-20_13h32.05.758,LearnStrategy,2023.2.3,Win32,60.24096386,2,2,10,,,,,,,,7,08,,,,,,,,,,,4,1.698,0,,,,,,0.322222222,-0.245370399,1,0,0,1.6982,Gabbro_rect,9,0,9,0,1,
6529c6cd086dd362bc291f14,TCN,2024-06-20_13h32.05.758,LearnStrategy,2023.2.3,Win32,60.24096386,2,2,11,,,,,,,,5,11,,,,,,,,,,,3,2.08,0,,,,,,0.199074131,-0.246296353,1,0,0,2.0804,Diorite_rect,10,0,10,0,1,
6529c6cd086dd362bc291f14,TCN,2024-06-20_13h32.05.758,LearnStrategy,2023.2.3,Win32,60.24096386,2,2,12,,,,,,,,3,16,,,,,,,,,,,1,3.455,0,,,,,,-0.338888889,-0.241666667,1,0,0,3.4549,Andesite_rect,11,0,11,0,1,
6529c6cd086dd362bc291f14,TCN,2024-06-20_13h32.05.758,LearnStrategy,2023.2.3,Win32,60.24096386,2,2,13,,,,,,,,5,14,,,,,,,,,,,8,1.964,0,,,,,,0.40648151,-0.405555556,1,0,0,1.9637,Pumice_rect,12,0,12,0,1,
6529c6cd086dd362bc291f14,TCN,2024-06-20_13h32.05.758,LearnStrategy,2023.2.3,Win32,60.24096386,2,2,14,,,,,,,,6,12,,,,,,,,,,,2,2.084,0,,,,,,-0.049074046,-0.247222222,1,0,0,2.0839,Basalt_rect,13,0,13,0,1,
6529c6cd086dd362bc291f14,TCN,2024-06-20_13h32.05.758,LearnStrategy,2023.2.3,Win32,60.24096386,2,2,15,,,,,,,,3,14,,,,,,,,,,,6,2.032,0,,,,,,-0.156481425,-0.402777778,1,0,0,2.0319,Pegmatite_rect,14,0,14,0,1,
6529c6cd086dd362bc291f14,TCN,2024-06-20_13h32.05.758,LearnStrategy,2023.2.3,Win32,60.24096386,2,2,16,,,,,,,,8,03,,,,,,,,,,,1,3.168,0,,,,,,-0.32870369,-0.25648151,1,0,0,3.168,Andesite_rect,15,0,15,0,1,
6529c6cd086dd362bc291f14,TCN,2024-06-20_13h32.05.758,LearnStrategy,2023.2.3,Win32,60.24096386,3,1,1,0.059259288,0.017592578,1,0,0,1.5425,rock_grid_rect_2,6,03,-1,-1,1.543,-0.094444444,-0.258333333,1,0,0,2.0869,Basalt_rect,2,2.087,0,0,0,0,0,1,,,,,,,,,,,,,
6529c6cd086dd362bc291f14,TCN,2024-06-20_13h32.05.758,LearnStrategy,2023.2.3,Win32,60.24096386,3,1,2,0.1,0.000925912,1,0,0,1.1415,rock_grid_rect_2,6,05,-1,-1,1.141,0.144444444,-0.25,1,0,0,0.8001,Diorite_rect,3,0.8,0,1,0,1,0,1,,,,,,,,,,,,,
6529c6cd086dd362bc291f14,TCN,2024-06-20_13h32.05.758,LearnStrategy,2023.2.3,Win32,60.24096386,3,1,3,0.098148176,0.016666667,1,0,0,1.2415,rock_grid_rect_2,3,11,-1,-1,1.241,0.391666667,-0.260185242,1,0,0,1.465,Gabbro_rect,4,1.465,0,2,0,2,0,1,,,,,,,,,,,,,
6529c6cd086dd362bc291f14,TCN,2024-06-20_13h32.05.758,LearnStrategy,2023.2.3,Win32,60.24096386,3,1,4,0,0.012962935,1,0,0,1.3076,rock_grid_rect_2,7,07,-1,-1,1.308,-0.423148134,-0.257407464,1,0,0,1.882,Andesite_rect,1,1.882,0,3,0,3,0,1,,,,,,,,,,,,,
6529c6cd086dd362bc291f14,TCN,2024-06-20_13h32.05.758,LearnStrategy,2023.2.3,Win32,60.24096386,3,1,5,0.032407464,-0.000925954,1,0,0,1.3584,rock_grid_rect_2,5,02,-1,-1,1.358,-0.084259203,-0.239814843,1,0,0,1.566,Basalt_rect,2,1.566,0,4,0,4,0,1,,,,,,,,,,,,,
6529c6cd086dd362bc291f14,TCN,2024-06-20_13h32.05.758,LearnStrategy,2023.2.3,Win32,60.24096386,3,1,6,0.044444444,0,1,0,0,1.0084,rock_grid_rect_2,8,16,-1,-1,1.008,-0.061111111,-0.390740797,1,0,0,1.6495,Pegmatite_rect,6,1.649,0,5,0,5,0,1,,,,,,,,,,,,,
6529c6cd086dd362bc291f14,TCN,2024-06-20_13h32.05.758,LearnStrategy,2023.2.3,Win32,60.24096386,3,1,7,0.061111111,-0.002777778,1,0,0,1.1081,rock_grid_rect_2,7,15,-1,-1,1.108,0.091666667,-0.401851908,1,0,0,1.7641,Peridotite_rect,7,1.764,1,6,0,6,0,1,,,,,,,,,,,,,
6529c6cd086dd362bc291f14,TCN,2024-06-20_13h32.05.758,LearnStrategy,2023.2.3,Win32,60.24096386,3,1,8,0.066666667,0.012962935,1,0,0,1.192,rock_grid_rect_2,4,03,-1,-1,1.192,-0.1,-0.25,1,0,0,1.0676,Basalt_rect,2,1.068,0,7,0,7,0,1,,,,,,,,,,,,,
6529c6cd086dd362bc291f14,TCN,2024-06-20_13h32.05.758,LearnStrategy,2023.2.3,Win32,60.24096386,3,1,9,0.067592621,0.000925912,1,0,0,1.4753,rock_grid_rect_2,5,12,-1,-1,1.475,0.320370399,-0.405555556,1,0,0,1.0493,Pumice_rect,8,1.049,0,8,0,8,0,1,,,,,,,,,,,,,
6529c6cd086dd362bc291f14,TCN,2024-06-20_13h32.05.758,LearnStrategy,2023.2.3,Win32,60.24096386,3,1,10,0.045370399,0.001851824,1,0,0,1.1414,rock_grid_rect_2,2,08,-1,-1,1.141,0.109259288,-0.402777778,1,0,0,0.7987,Peridotite_rect,7,0.799,0,9,0,9,0,1,,,,,,,,,,,,,
6529c6cd086dd362bc291f14,TCN,2024-06-20_13h32.05.758,LearnStrategy,2023.2.3,Win32,60.24096386,3,1,11,0.063888889,-0.010185199,1,0,0,0.8756,rock_grid_rect_2,1,04,-1,-1,0.876,0.121296353,-0.259259288,1,0,0,1.5566,Diorite_rect,3,1.557,0,10,0,10,0,1,,,,,,,,,,,,,
6529c6cd086dd362bc291f14,TCN,2024-06-20_13h32.05.758,LearnStrategy,2023.2.3,Win32,60.24096386,3,1,12,0.103703732,-0.000925954,1,0,0,1.1087,rock_grid_rect_2,4,13,-1,-1,1.109,-0.159259203,-0.390740797,1,0,0,3.1814,Pegmatite_rect,6,3.181,0,11,0,11,0,1,,,,,,,,,,,,,
6529c6cd086dd362bc291f14,TCN,2024-06-20_13h32.05.758,LearnStrategy,2023.2.3,Win32,60.24096386,3,1,13,0.051851908,-0.003703732,1,0,0,1.2732,rock_grid_rect_2,2,12,-1,-1,1.273,0.348148176,-0.240740797,1,0,0,1.0998,Gabbro_rect,4,1.1,0,12,0,12,0,1,,,,,,,,,,,,,
6529c6cd086dd362bc291f14,TCN,2024-06-20_13h32.05.758,LearnStrategy,2023.2.3,Win32,60.24096386,3,1,14,0.03148151,0.002777778,1,0,0,1.2419,rock_grid_rect_2,3,02,-1,-1,1.242,0.112037065,-0.269444444,1,0,0,0.7662,Diorite_rect,3,0.766,1,13,0,13,0,1,,,,,,,,,,,,,
6529c6cd086dd362bc291f14,TCN,2024-06-20_13h32.05.758,LearnStrategy,2023.2.3,Win32,60.24096386,3,1,15,0.060185242,0.014814801,1,0,0,0.8918,rock_grid_rect_2,8,04,-1,-1,0.892,-0.107407379,-0.247222222,1,0,0,1.5212,Basalt_rect,2,1.521,0,14,0,14,0,1,,,,,,,,,,,,,
6529c6cd086dd362bc291f14,TCN,2024-06-20_13h32.05.758,LearnStrategy,2023.2.3,Win32,60.24096386,3,1,16,0.107407464,-0.002777778,1,0,0,1.4413,rock_grid_rect_2,1,10,-1,-1,1.441,-0.161111111,-0.263888889,1,0,0,1.749,Basalt_rect,2,1.749,0,15,0,15,0,1,,,,,,,,,,,,,
6529c6cd086dd362bc291f14,TCN,2024-06-20_13h32.05.758,LearnStrategy,2023.2.3,Win32,60.24096386,3,2,1,,,,,,,,6,06,,,,,,,,,,,3,2.48,0,,,,,,0.182407464,-0.269444444,1,0,0,2.4803,Diorite_rect,0,0,0,0,1,
6529c6cd086dd362bc291f14,TCN,2024-06-20_13h32.05.758,LearnStrategy,2023.2.3,Win32,60.24096386,3,2,2,,,,,,,,1,05,,,,,,,,,,,6,0.625,0,,,,,,-0.199074046,-0.396296353,1,0,0,0.6252,Pegmatite_rect,1,0,1,0,1,
6529c6cd086dd362bc291f14,TCN,2024-06-20_13h32.05.758,LearnStrategy,2023.2.3,Win32,60.24096386,3,2,3,,,,,,,,7,05,,,,,,,,,,,2,0.603,0,,,,,,-0.078703647,-0.251851908,1,0,0,0.6027,Basalt_rect,2,0,2,0,1,
6529c6cd086dd362bc291f14,TCN,2024-06-20_13h32.05.758,LearnStrategy,2023.2.3,Win32,60.24096386,3,2,4,,,,,,,,5,05,,,,,,,,,,,5,2.964,1,,,,,,-0.423148134,-0.395370399,1,0,0,2.9638,Obsidian_rect,3,0,3,0,1,
6529c6cd086dd362bc291f14,TCN,2024-06-20_13h32.05.758,LearnStrategy,2023.2.3,Win32,60.24096386,3,2,5,,,,,,,,3,12,,,,,,,,,,,8,1.035,0,,,,,,0.385185242,-0.410185242,1,0,0,1.0348,Pumice_rect,4,0,4,0,1,
6529c6cd086dd362bc291f14,TCN,2024-06-20_13h32.05.758,LearnStrategy,2023.2.3,Win32,60.24096386,3,2,6,,,,,,,,4,05,,,,,,,,,,,2,1.032,0,,,,,,-0.137962935,-0.251851908,1,0,0,1.0319,Basalt_rect,5,0,5,0,1,
6529c6cd086dd362bc291f14,TCN,2024-06-20_13h32.05.758,LearnStrategy,2023.2.3,Win32,60.24096386,3,2,7,,,,,,,,5,06,,,,,,,,,,,4,1.127,0,,,,,,0.405555556,-0.262037065,1,0,0,1.1274,Gabbro_rect,6,0,6,0,1,
6529c6cd086dd362bc291f14,TCN,2024-06-20_13h32.05.758,LearnStrategy,2023.2.3,Win32,60.24096386,3,2,8,,,,,,,,1,07,,,,,,,,,,,7,0.915,0,,,,,,0.141666667,-0.401851908,1,0,0,0.9154,Peridotite_rect,7,0,7,0,1,
6529c6cd086dd362bc291f14,TCN,2024-06-20_13h32.05.758,LearnStrategy,2023.2.3,Win32,60.24096386,3,2,9,,,,,,,,3,09,,,,,,,,,,,1,1.315,0,,,,,,-0.407407379,-0.244444444,1,0,0,1.3148,Andesite_rect,8,0,8,0,1,
6529c6cd086dd362bc291f14,TCN,2024-06-20_13h32.05.758,LearnStrategy,2023.2.3,Win32,60.24096386,3,2,10,,,,,,,,7,02,,,,,,,,,,,2,1.79,0,,,,,,-0.106481425,-0.255555556,1,0,0,1.7904,Basalt_rect,9,0,9,0,1,
6529c6cd086dd362bc291f14,TCN,2024-06-20_13h32.05.758,LearnStrategy,2023.2.3,Win32,60.24096386,3,2,11,,,,,,,,8,13,,,,,,,,,,,2,0.999,0,,,,,,-0.094444444,-0.246296353,1,0,0,0.9986,Basalt_rect,10,0,10,0,1,
6529c6cd086dd362bc291f14,TCN,2024-06-20_13h32.05.758,LearnStrategy,2023.2.3,Win32,60.24096386,3,2,12,,,,,,,,6,09,,,,,,,,,,,4,1.931,0,,,,,,0.362037065,-0.252777778,1,0,0,1.931,Gabbro_rect,11,0,11,0,1,
6529c6cd086dd362bc291f14,TCN,2024-06-20_13h32.05.758,LearnStrategy,2023.2.3,Win32,60.24096386,3,2,13,,,,,,,,2,09,,,,,,,,,,,3,1.205,0,,,,,,0.137963019,-0.253703732,1,0,0,1.2051,Diorite_rect,12,0,12,0,1,
6529c6cd086dd362bc291f14,TCN,2024-06-20_13h32.05.758,LearnStrategy,2023.2.3,Win32,60.24096386,3,2,14,,,,,,,,4,08,,,,,,,,,,,6,1.231,0,,,,,,-0.132407379,-0.383333333,1,0,0,1.2306,Pegmatite_rect,13,0,13,0,1,
6529c6cd086dd362bc291f14,TCN,2024-06-20_13h32.05.758,LearnStrategy,2023.2.3,Win32,60.24096386,3,2,15,,,,,,,,2,04,,,,,,,,,,,2,1.148,1,,,,,,-0.107407379,-0.254629686,1,0,0,1.1483,Basalt_rect,14,0,14,0,1,
6529c6cd086dd362bc291f14,TCN,2024-06-20_13h32.05.758,LearnStrategy,2023.2.3,Win32,60.24096386,3,2,16,,,,,,,,8,05,,,,,,,,,,,8,4.199,1,,,,,,0.380555556,-0.395370399,1,0,0,4.1994,Pumice_rect,15,0,15,0,1,
6529c6cd086dd362bc291f14,TCN,2024-06-20_13h32.05.758,LearnStrategy,2023.2.3,Win32,60.24096386,4,1,1,0.114814843,0.00370369,1,0,0,0.9928,rock_grid_rect_2,6,03,-1,-1,0.993,0.107407464,-0.233333333,1,0,0,0.6977,Diorite_rect,3,0.698,0,0,0,0,0,1,,,,,,,,,,,,,
6529c6cd086dd362bc291f14,TCN,2024-06-20_13h32.05.758,LearnStrategy,2023.2.3,Win32,60.24096386,4,1,2,0.103703732,0.008333333,1,0,0,0.9589,rock_grid_rect_2,6,05,-1,-1,0.959,-0.080555556,-0.244444444,1,0,0,0.6742,Basalt_rect,2,0.674,0,1,0,1,0,1,,,,,,,,,,,,,
6529c6cd086dd362bc291f14,TCN,2024-06-20_13h32.05.758,LearnStrategy,2023.2.3,Win32,60.24096386,4,1,3,0.078703732,0.019444444,1,0,0,0.8753,rock_grid_rect_2,2,12,-1,-1,0.875,0.094444444,-0.405555556,1,0,0,0.941,Peridotite_rect,7,0.941,0,2,0,2,0,1,,,,,,,,,,,,,
6529c6cd086dd362bc291f14,TCN,2024-06-20_13h32.05.758,LearnStrategy,2023.2.3,Win32,60.24096386,4,1,4,0.116666667,-0.008333333,1,0,0,0.925,rock_grid_rect_2,4,09,-1,-1,0.925,0.346296353,-0.410185242,1,0,0,0.9336,Pumice_rect,8,0.934,0,3,0,3,0,1,,,,,,,,,,,,,
6529c6cd086dd362bc291f14,TCN,2024-06-20_13h32.05.758,LearnStrategy,2023.2.3,Win32,60.24096386,4,1,5,0.065740797,0.019444444,1,0,0,1.0086,rock_grid_rect_2,1,03,-1,-1,1.009,-0.137036981,-0.238888889,1,0,0,0.9174,Basalt_rect,2,0.917,0,4,0,4,0,1,,,,,,,,,,,,,
6529c6cd086dd362bc291f14,TCN,2024-06-20_13h32.05.758,LearnStrategy,2023.2.3,Win32,60.24096386,4,1,6,0.064814843,-0.001851866,1,0,0,0.8248,rock_grid_rect_2,7,06,-1,-1,0.825,-0.342592578,-0.229629686,1,0,0,0.8328,Andesite_rect,1,0.833,0,5,0,5,0,1,,,,,,,,,,,,,
6529c6cd086dd362bc291f14,TCN,2024-06-20_13h32.05.758,LearnStrategy,2023.2.3,Win32,60.24096386,4,1,7,0.08148151,-0.020370399,1,0,0,1.0246,rock_grid_rect_2,3,06,-1,-1,1.025,-0.091666667,-0.251851908,1,0,0,1.2216,Basalt_rect,2,1.222,0,6,0,6,0,1,,,,,,,,,,,,,
6529c6cd086dd362bc291f14,TCN,2024-06-20_13h32.05.758,LearnStrategy,2023.2.3,Win32,60.24096386,4,1,8,0.063888889,0.002777778,1,0,0,0.9753,rock_grid_rect_2,4,13,-1,-1,0.975,0.38148151,-0.253703732,1,0,0,1.503,Gabbro_rect,4,1.503,1,7,0,7,0,1,,,,,,,,,,,,,
6529c6cd086dd362bc291f14,TCN,2024-06-20_13h32.05.758,LearnStrategy,2023.2.3,Win32,60.24096386,4,1,9,0.090740797,0.015740712,1,0,0,1.1418,rock_grid_rect_2,8,08,-1,-1,1.142,-0.199074046,-0.398148176,1,0,0,2.1321,Pegmatite_rect,6,2.132,0,8,0,8,0,1,,,,,,,,,,,,,
6529c6cd086dd362bc291f14,TCN,2024-06-20_13h32.05.758,LearnStrategy,2023.2.3,Win32,60.24096386,4,1,10,0.075,0.008333333,1,0,0,1.2921,rock_grid_rect_2,3,08,-1,-1,1.292,0.162037065,-0.416666667,1,0,0,0.9497,Peridotite_rect,7,0.95,0,9,0,9,0,1,,,,,,,,,,,,,
6529c6cd086dd362bc291f14,TCN,2024-06-20_13h32.05.758,LearnStrategy,2023.2.3,Win32,60.24096386,4,1,11,0.021296353,-0.002777778,1,0,0,0.892,rock_grid_rect_2,1,09,-1,-1,0.892,-0.104629601,-0.237037065,1,0,0,0.8336,Basalt_rect,2,0.834,0,10,0,10,0,1,,,,,,,,,,,,,
6529c6cd086dd362bc291f14,TCN,2024-06-20_13h32.05.758,LearnStrategy,2023.2.3,Win32,60.24096386,4,1,12,0.052777778,-0.010185199,1,0,0,0.8755,rock_grid_rect_2,5,07,-1,-1,0.875,0.359259288,-0.245370399,1,0,0,1.4984,Gabbro_rect,4,1.498,0,11,0,11,0,1,,,,,,,,,,,,,
6529c6cd086dd362bc291f14,TCN,2024-06-20_13h32.05.758,LearnStrategy,2023.2.3,Win32,60.24096386,4,1,13,0.033333333,-0.007407422,1,0,0,0.8916,rock_grid_rect_2,8,09,-1,-1,0.892,-0.092592536,-0.251851908,1,0,0,1.0661,Basalt_rect,2,1.066,0,12,0,12,0,1,,,,,,,,,,,,,
6529c6cd086dd362bc291f14,TCN,2024-06-20_13h32.05.758,LearnStrategy,2023.2.3,Win32,60.24096386,4,1,14,0.076851908,-0.012962977,1,0,0,0.9586,rock_grid_rect_2,5,02,-1,-1,0.959,-0.369444444,-0.402777778,1,0,0,0.8822,Obsidian_rect,5,0.882,1,13,0,13,0,1,,,,,,,,,,,,,
6529c6cd086dd362bc291f14,TCN,2024-06-20_13h32.05.758,LearnStrategy,2023.2.3,Win32,60.24096386,4,1,15,0.112037065,-0.010185199,1,0,0,1.2918,rock_grid_rect_2,7,13,-1,-1,1.292,0.144444444,-0.410185242,1,0,0,0.9822,Peridotite_rect,7,0.982,1,14,0,14,0,1,,,,,,,,,,,,,
6529c6cd086dd362bc291f14,TCN,2024-06-20_13h32.05.758,LearnStrategy,2023.2.3,Win32,60.24096386,4,1,16,0.091666667,-0.007407422,1,0,0,0.8593,rock_grid_rect_2,2,06,-1,-1,0.859,-0.094444444,-0.395370399,1,0,0,0.7582,Pegmatite_rect,6,0.758,0,15,0,15,0,1,,,,,,,,,,,,,
6529c6cd086dd362bc291f14,TCN,2024-06-20_13h32.05.758,LearnStrategy,2023.2.3,Win32,60.24096386,4,2,1,,,,,,,,1,07,,,,,,,,,,,3,1.155,0,,,,,,0.13148151,-0.251851908,1,0,0,1.1548,Diorite_rect,0,0,0,0,1,
6529c6cd086dd362bc291f14,TCN,2024-06-20_13h32.05.758,LearnStrategy,2023.2.3,Win32,60.24096386,4,2,2,,,,,,,,6,12,,,,,,,,,,,6,0.468,1,,,,,,-0.075,-0.397222222,1,0,0,0.4675,Pegmatite_rect,1,0,1,0,1,
6529c6cd086dd362bc291f14,TCN,2024-06-20_13h32.05.758,LearnStrategy,2023.2.3,Win32,60.24096386,4,2,3,,,,,,,,7,04,,,,,,,,,,,2,0.466,0,,,,,,-0.089814758,-0.258333333,1,0,0,0.4661,Basalt_rect,2,0,2,0,1,
6529c6cd086dd362bc291f14,TCN,2024-06-20_13h32.05.758,LearnStrategy,2023.2.3,Win32,60.24096386,4,2,4,,,,,,,,3,12,,,,,,,,,,,4,0.711,0,,,,,,0.378703732,-0.266666667,1,0,0,0.7107,Gabbro_rect,3,0,3,0,1,
6529c6cd086dd362bc291f14,TCN,2024-06-20_13h32.05.758,LearnStrategy,2023.2.3,Win32,60.24096386,4,2,5,,,,,,,,8,05,,,,,,,,,,,7,0.55,0,,,,,,0.18148151,-0.390740797,1,0,0,0.5501,Peridotite_rect,4,0,4,0,1,
6529c6cd086dd362bc291f14,TCN,2024-06-20_13h32.05.758,LearnStrategy,2023.2.3,Win32,60.24096386,4,2,6,,,,,,,,5,14,,,,,,,,,,,1,1.494,0,,,,,,-0.360185157,-0.237037065,1,0,0,1.4941,Andesite_rect,5,0,5,0,1,
6529c6cd086dd362bc291f14,TCN,2024-06-20_13h32.05.758,LearnStrategy,2023.2.3,Win32,60.24096386,4,2,7,,,,,,,,4,16,,,,,,,,,,,6,0.959,0,,,,,,-0.130555556,-0.391666667,1,0,0,0.959,Pegmatite_rect,6,0,6,0,1,
6529c6cd086dd362bc291f14,TCN,2024-06-20_13h32.05.758,LearnStrategy,2023.2.3,Win32,60.24096386,4,2,8,,,,,,,,8,06,,,,,,,,,,,3,1.856,0,,,,,,0.130555556,-0.269444444,1,0,0,1.856,Diorite_rect,7,0,7,0,1,
6529c6cd086dd362bc291f14,TCN,2024-06-20_13h32.05.758,LearnStrategy,2023.2.3,Win32,60.24096386,4,2,9,,,,,,,,3,09,,,,,,,,,,,8,1.574,0,,,,,,0.387037065,-0.383333333,1,0,0,1.574,Pumice_rect,8,0,8,0,1,
6529c6cd086dd362bc291f14,TCN,2024-06-20_13h32.05.758,LearnStrategy,2023.2.3,Win32,60.24096386,4,2,10,,,,,,,,7,16,,,,,,,,,,,7,0.767,1,,,,,,0.186111111,-0.391666667,1,0,0,0.7666,Peridotite_rect,9,0,9,0,1,
6529c6cd086dd362bc291f14,TCN,2024-06-20_13h32.05.758,LearnStrategy,2023.2.3,Win32,60.24096386,4,2,11,,,,,,,,4,05,,,,,,,,,,,5,1.228,0,,,,,,-0.425925912,-0.393518575,1,0,0,1.2285,Obsidian_rect,10,0,10,0,1,
6529c6cd086dd362bc291f14,TCN,2024-06-20_13h32.05.758,LearnStrategy,2023.2.3,Win32,60.24096386,4,2,12,,,,,,,,6,15,,,,,,,,,,,4,1.448,0,,,,,,0.414814843,-0.258333333,1,0,0,1.4483,Gabbro_rect,11,0,11,0,1,
6529c6cd086dd362bc291f14,TCN,2024-06-20_13h32.05.758,LearnStrategy,2023.2.3,Win32,60.24096386,4,2,13,,,,,,,,2,04,,,,,,,,,,,2,1.273,1,,,,,,-0.059259203,-0.252777778,1,0,0,1.2728,Basalt_rect,12,0,12,0,1,
6529c6cd086dd362bc291f14,TCN,2024-06-20_13h32.05.758,LearnStrategy,2023.2.3,Win32,60.24096386,4,2,14,,,,,,,,1,06,,,,,,,,,,,3,1.066,0,,,,,,0.166666667,-0.257407464,1,0,0,1.0663,Diorite_rect,13,0,13,0,1,
6529c6cd086dd362bc291f14,TCN,2024-06-20_13h32.05.758,LearnStrategy,2023.2.3,Win32,60.24096386,4,2,15,,,,,,,,5,05,,,,,,,,,,,1,1.495,0,,,,,,-0.448148134,-0.263888889,1,0,0,1.4949,Andesite_rect,14,0,14,0,1,
6529c6cd086dd362bc291f14,TCN,2024-06-20_13h32.05.758,LearnStrategy,2023.2.3,Win32,60.24096386,4,2,16,,,,,,,,2,16,,,,,,,,,,,6,1.314,0,,,,,,-0.164814758,-0.401851908,1,0,0,1.3144,Pegmatite_rect,15,0,15,0,1,
6529c6cd086dd362bc291f14,TCN,2024-06-20_13h32.05.758,LearnStrategy,2023.2.3,Win32,60.24096386,5,1,1,0.109259288,0.006481467,1,0,0,4.1422,rock_grid_rect_2,6,11,-1,-1,4.142,0.159259288,-0.258333333,1,0,0,1.6015,Diorite_rect,3,1.601,0,0,0,0,0,1,,,,,,,,,,,,,
6529c6cd086dd362bc291f14,TCN,2024-06-20_13h32.05.758,LearnStrategy,2023.2.3,Win32,60.24096386,5,1,2,0.080555556,-0.013888889,1,0,0,1.1419,rock_grid_rect_2,8,04,-1,-1,1.142,-0.107407379,-0.262963019,1,0,0,0.933,Basalt_rect,2,0.933,0,1,0,1,0,1,,,,,,,,,,,,,
6529c6cd086dd362bc291f14,TCN,2024-06-20_13h32.05.758,LearnStrategy,2023.2.3,Win32,60.24096386,5,1,3,0.040740797,0.007407379,1,0,0,0.8912,rock_grid_rect_2,4,03,-1,-1,0.891,-0.150925869,-0.386111111,1,0,0,1.0675,Pegmatite_rect,6,1.067,0,2,0,2,0,1,,,,,,,,,,,,,
6529c6cd086dd362bc291f14,TCN,2024-06-20_13h32.05.758,LearnStrategy,2023.2.3,Win32,60.24096386,5,1,4,0.064814843,-0.012037065,1,0,0,0.7915,rock_grid_rect_2,2,01,-1,-1,0.792,0.389814843,-0.405555556,1,0,0,0.8338,Pumice_rect,8,0.834,0,3,0,3,0,1,,,,,,,,,,,,,
6529c6cd086dd362bc291f14,TCN,2024-06-20_13h32.05.758,LearnStrategy,2023.2.3,Win32,60.24096386,5,1,5,0.060185242,0.005555556,1,0,0,0.8278,rock_grid_rect_2,8,10,-1,-1,0.828,0.098148176,-0.380555556,1,0,0,0.9024,Peridotite_rect,7,0.902,0,4,0,4,0,1,,,,,,,,,,,,,
6529c6cd086dd362bc291f14,TCN,2024-06-20_13h32.05.758,LearnStrategy,2023.2.3,Win32,60.24096386,5,1,6,0.084259288,0.004629601,1,0,0,1.0753,rock_grid_rect_2,6,16,-1,-1,1.075,0.339814843,-0.240740797,1,0,0,0.7504,Gabbro_rect,4,0.75,0,5,0,5,0,1,,,,,,,,,,,,,
6529c6cd086dd362bc291f14,TCN,2024-06-20_13h32.05.758,LearnStrategy,2023.2.3,Win32,60.24096386,5,1,7,0.083333333,0.004629601,1,0,0,0.7757,rock_grid_rect_2,4,01,-1,-1,0.776,0.162963019,-0.413888889,1,0,0,0.7494,Peridotite_rect,7,0.749,0,6,0,6,0,1,,,,,,,,,,,,,
6529c6cd086dd362bc291f14,TCN,2024-06-20_13h32.05.758,LearnStrategy,2023.2.3,Win32,60.24096386,5,1,8,0.039814843,-0.012037065,1,0,0,0.7594,rock_grid_rect_2,3,02,-1,-1,0.759,-0.382407379,-0.262963019,1,0,0,0.8493,Andesite_rect,1,0.849,0,7,0,7,0,1,,,,,,,,,,,,,
6529c6cd086dd362bc291f14,TCN,2024-06-20_13h32.05.758,LearnStrategy,2023.2.3,Win32,60.24096386,5,1,9,0.125925954,-0.001851866,1,0,0,1.1574,rock_grid_rect_2,3,11,-1,-1,1.157,-0.425,-0.395370399,1,0,0,1.5295,Obsidian_rect,5,1.53,0,8,0,8,0,1,,,,,,,,,,,,,
6529c6cd086dd362bc291f14,TCN,2024-06-20_13h32.05.758,LearnStrategy,2023.2.3,Win32,60.24096386,5,1,10,0.036111111,0.014814801,1,0,0,0.8422,rock_grid_rect_2,7,15,-1,-1,0.842,-0.1,-0.404629686,1,0,0,0.949,Pegmatite_rect,6,0.949,0,9,0,9,0,1,,,,,,,,,,,,,
6529c6cd086dd362bc291f14,TCN,2024-06-20_13h32.05.758,LearnStrategy,2023.2.3,Win32,60.24096386,5,1,11,0.050925954,-0.013888889,1,0,0,0.9581,rock_grid_rect_2,1,02,-1,-1,0.958,0.112963019,-0.230555556,1,0,0,1.515,Diorite_rect,3,1.515,0,10,0,10,0,1,,,,,,,,,,,,,
6529c6cd086dd362bc291f14,TCN,2024-06-20_13h32.05.758,LearnStrategy,2023.2.3,Win32,60.24096386,5,1,12,0.026851908,0.017592578,1,0,0,1.6242,rock_grid_rect_2,1,14,-1,-1,1.624,0.102777778,-0.232407464,1,0,0,0.7505,Diorite_rect,3,0.75,0,11,0,11,0,1,,,,,,,,,,,,,
6529c6cd086dd362bc291f14,TCN,2024-06-20_13h32.05.758,LearnStrategy,2023.2.3,Win32,60.24096386,5,1,13,0.076851908,0.021296268,1,0,0,1.008,rock_grid_rect_2,2,05,-1,-1,1.008,-0.077777778,-0.397222222,1,0,0,0.8487,Pegmatite_rect,6,0.849,0,12,0,12,0,1,,,,,,,,,,,,,
6529c6cd086dd362bc291f14,TCN,2024-06-20_13h32.05.758,LearnStrategy,2023.2.3,Win32,60.24096386,5,1,14,0.009259288,0.012962935,1,0,0,0.8927,rock_grid_rect_2,7,10,-1,-1,0.893,0.332407464,-0.238888889,1,0,0,1.7488,Gabbro_rect,4,1.749,0,13,0,13,0,1,,,,,,,,,,,,,
6529c6cd086dd362bc291f14,TCN,2024-06-20_13h32.05.758,LearnStrategy,2023.2.3,Win32,60.24096386,5,1,15,0.062037065,-0.010185199,1,0,0,0.9256,rock_grid_rect_2,5,04,-1,-1,0.926,0.336111111,-0.253703732,1,0,0,1.3388,Gabbro_rect,4,1.339,0,14,0,14,0,1,,,,,,,,,,,,,
6529c6cd086dd362bc291f14,TCN,2024-06-20_13h32.05.758,LearnStrategy,2023.2.3,Win32,60.24096386,5,1,16,0.059259288,0.005555556,1,0,0,1.0416,rock_grid_rect_2,5,08,-1,-1,1.042,0.086111111,-0.386111111,1,0,0,0.9924,Peridotite_rect,7,0.992,0,15,0,15,0,1,,,,,,,,,,,,,
6529c6cd086dd362bc291f14,TCN,2024-06-20_13h32.05.758,LearnStrategy,2023.2.3,Win32,60.24096386,5,2,1,,,,,,,,7,02,,,,,,,,,,,3,4.275,0,,,,,,0.110185242,-0.247222222,1,0,0,4.2749,Diorite_rect,0,0,0,0,1,
6529c6cd086dd362bc291f14,TCN,2024-06-20_13h32.05.758,LearnStrategy,2023.2.3,Win32,60.24096386,5,2,2,,,,,,,,2,09,,,,,,,,,,,6,0.954,0,,,,,,-0.105555556,-0.396296353,1,0,0,0.9535,Pegmatite_rect,1,0,1,0,1,
6529c6cd086dd362bc291f14,TCN,2024-06-20_13h32.05.758,LearnStrategy,2023.2.3,Win32,60.24096386,5,2,3,,,,,,,,3,14,,,,,,,,,,,4,1.443,0,,,,,,0.446296353,-0.260185242,1,0,0,1.4432,Gabbro_rect,2,0,2,0,1,
6529c6cd086dd362bc291f14,TCN,2024-06-20_13h32.05.758,LearnStrategy,2023.2.3,Win32,60.24096386,5,2,4,,,,,,,,3,16,,,,,,,,,,,2,1.165,0,,,,,,-0.103703647,-0.243518575,1,0,0,1.1648,Basalt_rect,3,0,3,0,1,
6529c6cd086dd362bc291f14,TCN,2024-06-20_13h32.05.758,LearnStrategy,2023.2.3,Win32,60.24096386,5,2,5,,,,,,,,7,08,,,,,,,,,,,2,0.615,0,,,,,,-0.111111111,-0.241666667,1,0,0,0.6154,Basalt_rect,4,0,4,0,1,
6529c6cd086dd362bc291f14,TCN,2024-06-20_13h32.05.758,LearnStrategy,2023.2.3,Win32,60.24096386,5,2,6,,,,,,,,8,15,,,,,,,,,,,7,0.737,0,,,,,,0.154629686,-0.413888889,1,0,0,0.7367,Peridotite_rect,5,0,5,0,1,
6529c6cd086dd362bc291f14,TCN,2024-06-20_13h32.05.758,LearnStrategy,2023.2.3,Win32,60.24096386,5,2,7,,,,,,,,6,08,,,,,,,,,,,1,0.912,0,,,,,,-0.463888889,-0.262037065,1,0,0,0.9123,Andesite_rect,6,0,6,0,1,
6529c6cd086dd362bc291f14,TCN,2024-06-20_13h32.05.758,LearnStrategy,2023.2.3,Win32,60.24096386,5,2,8,,,,,,,,5,06,,,,,,,,,,,8,0.934,0,,,,,,0.350925954,-0.40648151,1,0,0,0.9339,Pumice_rect,7,0,7,0,1,
6529c6cd086dd362bc291f14,TCN,2024-06-20_13h32.05.758,LearnStrategy,2023.2.3,Win32,60.24096386,5,2,9,,,,,,,,5,16,,,,,,,,,,,5,1.061,1,,,,,,-0.407407379,-0.395370399,1,0,0,1.0614,Obsidian_rect,8,0,8,0,1,
6529c6cd086dd362bc291f14,TCN,2024-06-20_13h32.05.758,LearnStrategy,2023.2.3,Win32,60.24096386,5,2,10,,,,,,,,1,01,,,,,,,,,,,4,1.302,0,,,,,,0.382407464,-0.237963019,1,0,0,1.302,Gabbro_rect,9,0,9,0,1,
6529c6cd086dd362bc291f14,TCN,2024-06-20_13h32.05.758,LearnStrategy,2023.2.3,Win32,60.24096386,5,2,11,,,,,,,,8,02,,,,,,,,,,,2,1.066,0,,,,,,-0.094444444,-0.255555556,1,0,0,1.0657,Basalt_rect,10,0,10,0,1,
6529c6cd086dd362bc291f14,TCN,2024-06-20_13h32.05.758,LearnStrategy,2023.2.3,Win32,60.24096386,5,2,12,,,,,,,,4,08,,,,,,,,,,,3,1.065,0,,,,,,0.084259288,-0.242592621,1,0,0,1.0653,Diorite_rect,11,0,11,0,1,
6529c6cd086dd362bc291f14,TCN,2024-06-20_13h32.05.758,LearnStrategy,2023.2.3,Win32,60.24096386,5,2,13,,,,,,,,4,11,,,,,,,,,,,2,2.747,0,,,,,,-0.137962935,-0.234259288,1,0,0,2.7472,Basalt_rect,12,0,12,0,1,
6529c6cd086dd362bc291f14,TCN,2024-06-20_13h32.05.758,LearnStrategy,2023.2.3,Win32,60.24096386,5,2,14,,,,,,,,1,11,,,,,,,,,,,7,1.069,0,,,,,,0.123148176,-0.404629686,1,0,0,1.069,Peridotite_rect,13,0,13,0,1,
6529c6cd086dd362bc291f14,TCN,2024-06-20_13h32.05.758,LearnStrategy,2023.2.3,Win32,60.24096386,5,2,15,,,,,,,,6,09,,,,,,,,,,,1,1.249,0,,,,,,-0.339814801,-0.246296353,1,0,0,1.2491,Andesite_rect,14,0,14,0,1,
6529c6cd086dd362bc291f14,TCN,2024-06-20_13h32.05.758,LearnStrategy,2023.2.3,Win32,60.24096386,5,2,16,,,,,,,,2,11,,,,,,,,,,,6,1.419,0,,,,,,-0.162962935,-0.398148176,1,0,0,1.4195,Pegmatite_rect,15,0,15,0,1,
6529c6cd086dd362bc291f14,TCN,2024-06-20_13h32.05.758,LearnStrategy,2023.2.3,Win32,60.24096386,6,1,1,0.1,0.007407379,1,0,0,4.406,rock_grid_rect_2,3,07,-1,-1,4.406,0.121296353,-0.249074131,1,0,0,1.0641,Diorite_rect,3,1.064,1,0,0,0,0,1,,,,,,,,,,,,,
6529c6cd086dd362bc291f14,TCN,2024-06-20_13h32.05.758,LearnStrategy,2023.2.3,Win32,60.24096386,6,1,2,0.032407464,-0.020370399,1,0,0,1.6916,rock_grid_rect_2,6,10,-1,-1,1.692,-0.109259203,-0.262037065,1,0,0,1.2329,Basalt_rect,2,1.233,0,1,0,1,0,1,,,,,,,,,,,,,
6529c6cd086dd362bc291f14,TCN,2024-06-20_13h32.05.758,LearnStrategy,2023.2.3,Win32,60.24096386,6,1,3,0.012037065,-0.010185199,1,0,0,0.9245,rock_grid_rect_2,6,13,-1,-1,0.925,0.403703732,-0.237037065,1,0,0,1.0333,Gabbro_rect,4,1.033,0,2,0,2,0,1,,,,,,,,,,,,,
6529c6cd086dd362bc291f14,TCN,2024-06-20_13h32.05.758,LearnStrategy,2023.2.3,Win32,60.24096386,6,1,4,0.100925954,0.000925912,1,0,0,1.2585,rock_grid_rect_2,5,10,-1,-1,1.258,-0.088888889,-0.238888889,1,0,0,1.2332,Basalt_rect,2,1.233,0,3,0,3,0,1,,,,,,,,,,,,,
6529c6cd086dd362bc291f14,TCN,2024-06-20_13h32.05.758,LearnStrategy,2023.2.3,Win32,60.24096386,6,1,5,0.098148176,0.019444444,1,0,0,0.9249,rock_grid_rect_2,7,12,-1,-1,0.925,0.374074131,-0.383333333,1,0,0,2.5481,Pumice_rect,8,2.548,0,4,0,4,0,1,,,,,,,,,,,,,
6529c6cd086dd362bc291f14,TCN,2024-06-20_13h32.05.758,LearnStrategy,2023.2.3,Win32,60.24096386,6,1,6,0.088888889,0.011111111,1,0,0,0.9579,rock_grid_rect_2,1,04,-1,-1,0.958,-0.35,-0.247222222,1,0,0,3.1302,Andesite_rect,1,3.13,1,5,0,5,0,1,,,,,,,,,,,,,
6529c6cd086dd362bc291f14,TCN,2024-06-20_13h32.05.758,LearnStrategy,2023.2.3,Win32,60.24096386,6,1,7,0.028703732,-0.001851866,1,0,0,1.1744,rock_grid_rect_2,3,15,-1,-1,1.174,-0.128703647,-0.259259288,1,0,0,1.7681,Basalt_rect,2,1.768,0,6,0,6,0,1,,,,,,,,,,,,,
6529c6cd086dd362bc291f14,TCN,2024-06-20_13h32.05.758,LearnStrategy,2023.2.3,Win32,60.24096386,6,1,8,0.039814843,0.016666667,1,0,0,1.0084,rock_grid_rect_2,7,07,-1,-1,1.008,0.399074131,-0.268518575,1,0,0,1.7832,Gabbro_rect,4,1.783,0,7,0,7,0,1,,,,,,,,,,,,,
6529c6cd086dd362bc291f14,TCN,2024-06-20_13h32.05.758,LearnStrategy,2023.2.3,Win32,60.24096386,6,1,9,0.1,0.017592578,1,0,0,1.6081,rock_grid_rect_2,2,14,-1,-1,1.608,-0.109259203,-0.389814843,1,0,0,1.0162,Pegmatite_rect,6,1.016,0,8,0,8,0,1,,,,,,,,,,,,,
6529c6cd086dd362bc291f14,TCN,2024-06-20_13h32.05.758,LearnStrategy,2023.2.3,Win32,60.24096386,6,1,10,0.062037065,0.006481467,1,0,0,0.8248,rock_grid_rect_2,5,12,-1,-1,0.825,0.104629686,-0.392592621,1,0,0,0.9051,Peridotite_rect,7,0.905,0,9,0,9,0,1,,,,,,,,,,,,,
6529c6cd086dd362bc291f14,TCN,2024-06-20_13h32.05.758,LearnStrategy,2023.2.3,Win32,60.24096386,6,1,11,0.038888889,-0.000925954,1,0,0,0.9421,rock_grid_rect_2,1,10,-1,-1,0.942,0.104629686,-0.393518575,1,0,0,0.7835,Peridotite_rect,7,0.784,0,10,0,10,0,1,,,,,,,,,,,,,
6529c6cd086dd362bc291f14,TCN,2024-06-20_13h32.05.758,LearnStrategy,2023.2.3,Win32,60.24096386,6,1,12,0.043518575,0.000925912,1,0,0,1.2757,rock_grid_rect_2,8,14,-1,-1,1.276,-0.116666667,-0.234259288,1,0,0,3.1143,Basalt_rect,2,3.114,0,11,0,11,0,1,,,,,,,,,,,,,
6529c6cd086dd362bc291f14,TCN,2024-06-20_13h32.05.758,LearnStrategy,2023.2.3,Win32,60.24096386,6,1,13,0.064814843,0.007407379,1,0,0,0.9062,rock_grid_rect_2,2,08,-1,-1,0.906,-0.091666667,-0.240740797,1,0,0,1.6562,Basalt_rect,2,1.656,1,12,0,12,0,1,,,,,,,,,,,,,
6529c6cd086dd362bc291f14,TCN,2024-06-20_13h32.05.758,LearnStrategy,2023.2.3,Win32,60.24096386,6,1,14,0.050925954,-0.011111111,1,0,0,0.8405,rock_grid_rect_2,4,14,-1,-1,0.841,0.151851908,-0.397222222,1,0,0,1.3658,Peridotite_rect,7,1.366,0,13,0,13,0,1,,,,,,,,,,,,,
6529c6cd086dd362bc291f14,TCN,2024-06-20_13h32.05.758,LearnStrategy,2023.2.3,Win32,60.24096386,6,1,15,0.101851908,0.004629601,1,0,0,1.6081,rock_grid_rect_2,8,16,-1,-1,1.608,0.393518575,-0.401851908,1,0,0,0.799,Pumice_rect,8,0.799,1,14,0,14,0,1,,,,,,,,,,,,,
6529c6cd086dd362bc291f14,TCN,2024-06-20_13h32.05.758,LearnStrategy,2023.2.3,Win32,60.24096386,6,1,16,0.057407464,-0.003703732,1,0,0,0.809,rock_grid_rect_2,4,10,-1,-1,0.809,0.129629686,-0.229629686,1,0,0,0.966,Diorite_rect,3,0.966,0,15,0,15,0,1,,,,,,,,,,,,,
6529c6cd086dd362bc291f14,TCN,2024-06-20_13h32.05.758,LearnStrategy,2023.2.3,Win32,60.24096386,6,2,1,,,,,,,,1,05,,,,,,,,,,,4,2.475,0,,,,,,0.378703732,-0.240740797,1,0,0,2.4749,Gabbro_rect,0,0,0,0,1,
6529c6cd086dd362bc291f14,TCN,2024-06-20_13h32.05.758,LearnStrategy,2023.2.3,Win32,60.24096386,6,2,2,,,,,,,,7,14,,,,,,,,,,,7,1.747,1,,,,,,0.146296353,-0.393518575,1,0,0,1.7474,Peridotite_rect,1,0,1,0,1,
6529c6cd086dd362bc291f14,TCN,2024-06-20_13h32.05.758,LearnStrategy,2023.2.3,Win32,60.24096386,6,2,3,,,,,,,,1,16,,,,,,,,,,,5,1.336,0,,,,,,-0.348148134,-0.408333333,1,0,0,1.3359,Obsidian_rect,2,0,2,0,1,
6529c6cd086dd362bc291f14,TCN,2024-06-20_13h32.05.758,LearnStrategy,2023.2.3,Win32,60.24096386,6,2,4,,,,,,,,2,10,,,,,,,,,,,2,1.149,1,,,,,,-0.138888889,-0.25,1,0,0,1.1486,Basalt_rect,3,0,3,0,1,
6529c6cd086dd362bc291f14,TCN,2024-06-20_13h32.05.758,LearnStrategy,2023.2.3,Win32,60.24096386,6,2,5,,,,,,,,8,03,,,,,,,,,,,1,1.614,0,,,,,,-0.379629601,-0.238888889,1,0,0,1.6144,Andesite_rect,4,0,4,0,1,
6529c6cd086dd362bc291f14,TCN,2024-06-20_13h32.05.758,LearnStrategy,2023.2.3,Win32,60.24096386,6,2,6,,,,,,,,4,12,,,,,,,,,,,2,1.899,0,,,,,,-0.14351849,-0.240740797,1,0,0,1.8992,Basalt_rect,5,0,5,0,1,
6529c6cd086dd362bc291f14,TCN,2024-06-20_13h32.05.758,LearnStrategy,2023.2.3,Win32,60.24096386,6,2,7,,,,,,,,7,05,,,,,,,,,,,3,1.149,0,,,,,,0.15648151,-0.240740797,1,0,0,1.1492,Diorite_rect,6,0,6,0,1,
6529c6cd086dd362bc291f14,TCN,2024-06-20_13h32.05.758,LearnStrategy,2023.2.3,Win32,60.24096386,6,2,8,,,,,,,,6,07,,,,,,,,,,,7,1.773,0,,,,,,0.143518575,-0.398148176,1,0,0,1.7726,Peridotite_rect,7,0,7,0,1,
6529c6cd086dd362bc291f14,TCN,2024-06-20_13h32.05.758,LearnStrategy,2023.2.3,Win32,60.24096386,6,2,9,,,,,,,,3,10,,,,,,,,,,,4,1.181,0,,,,,,0.387037065,-0.25,1,0,0,1.1815,Gabbro_rect,8,0,8,0,1,
6529c6cd086dd362bc291f14,TCN,2024-06-20_13h32.05.758,LearnStrategy,2023.2.3,Win32,60.24096386,6,2,10,,,,,,,,2,02,,,,,,,,,,,2,1.15,1,,,,,,-0.101851824,-0.259259288,1,0,0,1.15,Basalt_rect,9,0,9,0,1,
6529c6cd086dd362bc291f14,TCN,2024-06-20_13h32.05.758,LearnStrategy,2023.2.3,Win32,60.24096386,6,2,11,,,,,,,,5,11,,,,,,,,,,,6,1.366,0,,,,,,-0.129629601,-0.403703732,1,0,0,1.3657,Pegmatite_rect,10,0,10,0,1,
6529c6cd086dd362bc291f14,TCN,2024-06-20_13h32.05.758,LearnStrategy,2023.2.3,Win32,60.24096386,6,2,12,,,,,,,,8,13,,,,,,,,,,,1,3.164,0,,,,,,-0.362962935,-0.247222222,1,0,0,3.1643,Andesite_rect,11,0,11,0,1,
6529c6cd086dd362bc291f14,TCN,2024-06-20_13h32.05.758,LearnStrategy,2023.2.3,Win32,60.24096386,6,2,13,,,,,,,,5,09,,,,,,,,,,,7,1.226,0,,,,,,0.058333333,-0.394444444,1,0,0,1.2257,Peridotite_rect,12,0,12,0,1,
6529c6cd086dd362bc291f14,TCN,2024-06-20_13h32.05.758,LearnStrategy,2023.2.3,Win32,60.24096386,6,2,14,,,,,,,,3,13,,,,,,,,,,,3,1.29,1,,,,,,0.146296353,-0.250925954,1,0,0,1.2904,Diorite_rect,13,0,13,0,1,
6529c6cd086dd362bc291f14,TCN,2024-06-20_13h32.05.758,LearnStrategy,2023.2.3,Win32,60.24096386,6,2,15,,,,,,,,6,06,,,,,,,,,,,8,1.503,0,,,,,,0.330555556,-0.4,1,0,0,1.5027,Pumice_rect,14,0,14,0,1,
6529c6cd086dd362bc291f14,TCN,2024-06-20_13h32.05.758,LearnStrategy,2023.2.3,Win32,60.24096386,6,2,16,,,,,,,,4,15,,,,,,,,,,,3,1.182,0,,,,,,0.112963019,-0.250925954,1,0,0,1.1816,Diorite_rect,15,0,15,0,1,
6529c6cd086dd362bc291f14,TCN,2024-06-20_13h32.05.758,LearnStrategy,2023.2.3,Win32,60.24096386,7,1,1,0.096296353,-0.010185199,1,0,0,1.3766,rock_grid_rect_2,1,14,-1,-1,1.377,0.161111111,-0.23148151,1,0,0,2.8975,Diorite_rect,3,2.898,0,0,0,0,0,1,,,,,,,,,,,,,
6529c6cd086dd362bc291f14,TCN,2024-06-20_13h32.05.758,LearnStrategy,2023.2.3,Win32,60.24096386,7,1,2,0.055555556,0.017592578,1,0,0,1.2245,rock_grid_rect_2,8,14,-1,-1,1.224,-0.123148092,-0.255555556,1,0,0,1.3227,Basalt_rect,2,1.323,0,1,0,1,0,1,,,,,,,,,,,,,
6529c6cd086dd362bc291f14,TCN,2024-06-20_13h32.05.758,LearnStrategy,2023.2.3,Win32,60.24096386,7,1,3,0.069444444,-0.007407422,1,0,0,0.8253,rock_grid_rect_2,4,03,-1,-1,0.825,-0.09351849,-0.25648151,1,0,0,1.5206,Basalt_rect,2,1.521,0,2,0,2,0,1,,,,,,,,,,,,,
6529c6cd086dd362bc291f14,TCN,2024-06-20_13h32.05.758,LearnStrategy,2023.2.3,Win32,60.24096386,7,1,4,0.043518575,-0.002777778,1,0,0,0.8252,rock_grid_rect_2,4,13,-1,-1,0.825,0.332407464,-0.233333333,1,0,0,1.0422,Gabbro_rect,4,1.042,1,3,0,3,0,1,,,,,,,,,,,,,
6529c6cd086dd362bc291f14,TCN,2024-06-20_13h32.05.758,LearnStrategy,2023.2.3,Win32,60.24096386,7,1,5,0.05648151,-0.020370399,1,0,0,0.9752,rock_grid_rect_2,3,11,-1,-1,0.975,-0.111111111,-0.241666667,1,0,0,2.3666,Basalt_rect,2,2.367,0,4,0,4,0,1,,,,,,,,,,,,,
6529c6cd086dd362bc291f14,TCN,2024-06-20_13h32.05.758,LearnStrategy,2023.2.3,Win32,60.24096386,7,1,6,0.113888889,0.01851849,1,0,0,0.909,rock_grid_rect_2,6,16,-1,-1,0.909,0.176851908,-0.396296353,1,0,0,0.8512,Peridotite_rect,7,0.851,0,5,0,5,0,1,,,,,,,,,,,,,
6529c6cd086dd362bc291f14,TCN,2024-06-20_13h32.05.758,LearnStrategy,2023.2.3,Win32,60.24096386,7,1,7,0.100925954,-0.008333333,1,0,0,1.0256,rock_grid_rect_2,3,07,-1,-1,1.026,-0.130555556,-0.414814843,1,0,0,1.2497,Pegmatite_rect,6,1.25,0,6,0,6,0,1,,,,,,,,,,,,,
6529c6cd086dd362bc291f14,TCN,2024-06-20_13h32.05.758,LearnStrategy,2023.2.3,Win32,60.24096386,7,1,8,0.119444444,-0.008333333,1,0,0,0.9751,rock_grid_rect_2,8,16,-1,-1,0.975,-0.361111111,-0.237963019,1,0,0,0.8512,Andesite_rect,1,0.851,0,7,0,7,0,1,,,,,,,,,,,,,
6529c6cd086dd362bc291f14,TCN,2024-06-20_13h32.05.758,LearnStrategy,2023.2.3,Win32,60.24096386,7,1,9,0.126851908,-0.003703732,1,0,0,1.1422,rock_grid_rect_2,5,08,-1,-1,1.142,-0.351851824,-0.384259288,1,0,0,0.9823,Obsidian_rect,5,0.982,1,8,0,8,0,1,,,,,,,,,,,,,
6529c6cd086dd362bc291f14,TCN,2024-06-20_13h32.05.758,LearnStrategy,2023.2.3,Win32,60.24096386,7,1,10,0.119444444,-0.008333333,1,0,0,1.2579,rock_grid_rect_2,5,02,-1,-1,1.258,-0.154629601,-0.238888889,1,0,0,0.788,Basalt_rect,2,0.788,0,9,0,9,0,1,,,,,,,,,,,,,
6529c6cd086dd362bc291f14,TCN,2024-06-20_13h32.05.758,LearnStrategy,2023.2.3,Win32,60.24096386,7,1,11,0.136111111,0.002777778,1,0,0,0.9426,rock_grid_rect_2,2,01,-1,-1,0.943,-0.079629601,-0.251851908,1,0,0,1.066,Basalt_rect,2,1.066,1,10,0,10,0,1,,,,,,,,,,,,,
6529c6cd086dd362bc291f14,TCN,2024-06-20_13h32.05.758,LearnStrategy,2023.2.3,Win32,60.24096386,7,1,12,0.049074131,0.01851849,1,0,0,1.1927,rock_grid_rect_2,7,07,-1,-1,1.193,0.073148176,-0.240740797,1,0,0,0.6672,Diorite_rect,3,0.667,0,11,0,11,0,1,,,,,,,,,,,,,
6529c6cd086dd362bc291f14,TCN,2024-06-20_13h32.05.758,LearnStrategy,2023.2.3,Win32,60.24096386,7,1,13,0.091666667,0.007407379,1,0,0,0.9918,rock_grid_rect_2,6,13,-1,-1,0.992,0.097222222,-0.412963019,1,0,0,1.0508,Peridotite_rect,7,1.051,0,12,0,12,0,1,,,,,,,,,,,,,
6529c6cd086dd362bc291f14,TCN,2024-06-20_13h32.05.758,LearnStrategy,2023.2.3,Win32,60.24096386,7,1,14,0.088888889,0.000925912,1,0,0,1.1256,rock_grid_rect_2,7,13,-1,-1,1.126,0.118518575,-0.235185242,1,0,0,3.1878,Diorite_rect,3,3.188,0,13,0,13,0,1,,,,,,,,,,,,,
6529c6cd086dd362bc291f14,TCN,2024-06-20_13h32.05.758,LearnStrategy,2023.2.3,Win32,60.24096386,7,1,15,0.048148176,-0.009259288,1,0,0,0.7414,rock_grid_rect_2,1,03,-1,-1,0.741,0.377777778,-0.416666667,1,0,0,1.0239,Pumice_rect,8,1.024,0,14,0,14,0,1,,,,,,,,,,,,,
6529c6cd086dd362bc291f14,TCN,2024-06-20_13h32.05.758,LearnStrategy,2023.2.3,Win32,60.24096386,7,1,16,0.087963019,0.016666667,1,0,0,1.1088,rock_grid_rect_2,2,08,-1,-1,1.109,-0.162036981,-0.237037065,1,0,0,0.9565,Basalt_rect,2,0.957,1,15,0,15,0,1,,,,,,,,,,,,,
6529c6cd086dd362bc291f14,TCN,2024-06-20_13h32.05.758,LearnStrategy,2023.2.3,Win32,60.24096386,7,2,1,,,,,,,,1,05,,,,,,,,,,,4,1.83,0,,,,,,0.422222222,-0.240740797,1,0,0,1.8298,Gabbro_rect,0,0,0,0,1,
6529c6cd086dd362bc291f14,TCN,2024-06-20_13h32.05.758,LearnStrategy,2023.2.3,Win32,60.24096386,7,2,2,,,,,,,,8,03,,,,,,,,,,,7,0.633,0,,,,,,0.124074131,-0.387963019,1,0,0,0.6328,Peridotite_rect,1,0,1,0,1,
6529c6cd086dd362bc291f14,TCN,2024-06-20_13h32.05.758,LearnStrategy,2023.2.3,Win32,60.24096386,7,2,3,,,,,,,,1,07,,,,,,,,,,,2,0.932,0,,,,,,-0.103703647,-0.234259288,1,0,0,0.9318,Basalt_rect,2,0,2,0,1,
6529c6cd086dd362bc291f14,TCN,2024-06-20_13h32.05.758,LearnStrategy,2023.2.3,Win32,60.24096386,7,2,4,,,,,,,,2,11,,,,,,,,,,,1,0.916,0,,,,,,-0.382407379,-0.235185242,1,0,0,0.9159,Andesite_rect,3,0,3,0,1,
6529c6cd086dd362bc291f14,TCN,2024-06-20_13h32.05.758,LearnStrategy,2023.2.3,Win32,60.24096386,7,2,5,,,,,,,,4,05,,,,,,,,,,,6,0.741,0,,,,,,-0.166666667,-0.415740797,1,0,0,0.7405,Pegmatite_rect,4,0,4,0,1,
6529c6cd086dd362bc291f14,TCN,2024-06-20_13h32.05.758,LearnStrategy,2023.2.3,Win32,60.24096386,7,2,6,,,,,,,,8,15,,,,,,,,,,,3,1.299,0,,,,,,0.145370399,-0.252777778,1,0,0,1.2989,Diorite_rect,5,0,5,0,1,
6529c6cd086dd362bc291f14,TCN,2024-06-20_13h32.05.758,LearnStrategy,2023.2.3,Win32,60.24096386,7,2,7,,,,,,,,2,10,,,,,,,,,,,2,0.864,1,,,,,,-0.113888889,-0.243518575,1,0,0,0.864,Basalt_rect,6,0,6,0,1,
6529c6cd086dd362bc291f14,TCN,2024-06-20_13h32.05.758,LearnStrategy,2023.2.3,Win32,60.24096386,7,2,8,,,,,,,,7,02,,,,,,,,,,,4,1.308,0,,,,,,0.38148151,-0.267592621,1,0,0,1.3083,Gabbro_rect,7,0,7,0,1,
6529c6cd086dd362bc291f14,TCN,2024-06-20_13h32.05.758,LearnStrategy,2023.2.3,Win32,60.24096386,7,2,9,,,,,,,,3,10,,,,,,,,,,,7,1.07,0,,,,,,0.153703732,-0.404629686,1,0,0,1.0697,Peridotite_rect,8,0,8,0,1,
6529c6cd086dd362bc291f14,TCN,2024-06-20_13h32.05.758,LearnStrategy,2023.2.3,Win32,60.24096386,7,2,10,,,,,,,,5,16,,,,,,,,,,,8,1.431,0,,,,,,0.395370399,-0.410185242,1,0,0,1.4314,Pumice_rect,9,0,9,0,1,
6529c6cd086dd362bc291f14,TCN,2024-06-20_13h32.05.758,LearnStrategy,2023.2.3,Win32,60.24096386,7,2,11,,,,,,,,6,06,,,,,,,,,,,5,1.648,0,,,,,,-0.392592578,-0.389814843,1,0,0,1.6476,Obsidian_rect,10,0,10,0,1,
6529c6cd086dd362bc291f14,TCN,2024-06-20_13h32.05.758,LearnStrategy,2023.2.3,Win32,60.24096386,7,2,12,,,,,,,,6,12,,,,,,,,,,,3,1.651,0,,,,,,0.125,-0.248148176,1,0,0,1.6509,Diorite_rect,11,0,11,0,1,
6529c6cd086dd362bc291f14,TCN,2024-06-20_13h32.05.758,LearnStrategy,2023.2.3,Win32,60.24096386,7,2,13,,,,,,,,5,14,,,,,,,,,,,3,1.283,0,,,,,,0.127777778,-0.242592621,1,0,0,1.2828,Diorite_rect,12,0,12,0,1,
6529c6cd086dd362bc291f14,TCN,2024-06-20_13h32.05.758,LearnStrategy,2023.2.3,Win32,60.24096386,7,2,14,,,,,,,,3,16,,,,,,,,,,,2,1.206,0,,,,,,-0.102777778,-0.238888889,1,0,0,1.2057,Basalt_rect,13,0,13,0,1,
6529c6cd086dd362bc291f14,TCN,2024-06-20_13h32.05.758,LearnStrategy,2023.2.3,Win32,60.24096386,7,2,15,,,,,,,,7,04,,,,,,,,,,,7,0.982,1,,,,,,0.082407464,-0.392592621,1,0,0,0.9819,Peridotite_rect,14,0,14,0,1,
6529c6cd086dd362bc291f14,TCN,2024-06-20_13h32.05.758,LearnStrategy,2023.2.3,Win32,60.24096386,7,2,16,,,,,,,,4,15,,,,,,,,,,,4,1.216,1,,,,,,0.363888889,-0.255555556,1,0,0,1.2165,Gabbro_rect,15,0,15,0,1,
6529c6cd086dd362bc291f14,TCN,2024-06-20_13h32.05.758,LearnStrategy,2023.2.3,Win32,60.24096386,8,1,1,0.10648151,0.014814801,1,0,0,4.6582,rock_grid_rect_2,2,14,-1,-1,4.658,0.387037065,-0.244444444,1,0,0,4.5463,Gabbro_rect,4,4.546,0,0,0,0,0,1,,,,,,,,,,,,,
6529c6cd086dd362bc291f14,TCN,2024-06-20_13h32.05.758,LearnStrategy,2023.2.3,Win32,60.24096386,8,1,2,0.118518575,0.012037023,1,0,0,1.3259,rock_grid_rect_2,4,10,-1,-1,1.326,0.083333333,-0.23148151,1,0,0,1.215,Diorite_rect,3,1.215,0,1,0,1,0,1,,,,,,,,,,,,,
6529c6cd086dd362bc291f14,TCN,2024-06-20_13h32.05.758,LearnStrategy,2023.2.3,Win32,60.24096386,8,1,3,0.063888889,0.000925912,1,0,0,1.3895,rock_grid_rect_2,8,04,-1,-1,1.389,-0.098148092,-0.240740797,1,0,0,0.8492,Basalt_rect,2,0.849,0,2,0,2,0,1,,,,,,,,,,,,,
6529c6cd086dd362bc291f14,TCN,2024-06-20_13h32.05.758,LearnStrategy,2023.2.3,Win32,60.24096386,8,1,4,0.114814843,-0.015740755,1,0,0,1.244,rock_grid_rect_2,6,03,-1,-1,1.244,-0.094444444,-0.239814843,1,0,0,0.9162,Basalt_rect,2,0.916,0,3,0,3,0,1,,,,,,,,,,,,,
6529c6cd086dd362bc291f14,TCN,2024-06-20_13h32.05.758,LearnStrategy,2023.2.3,Win32,60.24096386,8,1,5,0.105555556,-0.015740755,1,0,0,0.8589,rock_grid_rect_2,1,04,-1,-1,0.859,0.090740797,-0.391666667,1,0,0,0.8539,Peridotite_rect,7,0.854,0,4,0,4,0,1,,,,,,,,,,,,,
6529c6cd086dd362bc291f14,TCN,2024-06-20_13h32.05.758,LearnStrategy,2023.2.3,Win32,60.24096386,8,1,6,0.076851908,-0.007407422,1,0,0,0.9929,rock_grid_rect_2,7,10,-1,-1,0.993,-0.122222222,-0.389814843,1,0,0,1.066,Pegmatite_rect,6,1.066,0,5,0,5,0,1,,,,,,,,,,,,,
6529c6cd086dd362bc291f14,TCN,2024-06-20_13h32.05.758,LearnStrategy,2023.2.3,Win32,60.24096386,8,1,7,0.082407464,0.001851824,1,0,0,1.0423,rock_grid_rect_2,1,10,-1,-1,1.042,0.098148176,-0.248148176,1,0,0,0.9823,Diorite_rect,3,0.982,0,6,0,6,0,1,,,,,,,,,,,,,
6529c6cd086dd362bc291f14,TCN,2024-06-20_13h32.05.758,LearnStrategy,2023.2.3,Win32,60.24096386,8,1,8,0.091666667,0.000925912,1,0,0,0.9072,rock_grid_rect_2,7,06,-1,-1,0.907,-0.125,-0.252777778,1,0,0,0.8509,Basalt_rect,2,0.851,0,7,0,7,0,1,,,,,,,,,,,,,
6529c6cd086dd362bc291f14,TCN,2024-06-20_13h32.05.758,LearnStrategy,2023.2.3,Win32,60.24096386,8,1,9,0.073148176,-0.007407422,1,0,0,0.7921,rock_grid_rect_2,5,10,-1,-1,0.792,-0.431481467,-0.415740797,1,0,0,1.9316,Obsidian_rect,5,1.932,1,8,0,8,0,1,,,,,,,,,,,,,
6529c6cd086dd362bc291f14,TCN,2024-06-20_13h32.05.758,LearnStrategy,2023.2.3,Win32,60.24096386,8,1,10,0.110185242,-0.012037065,1,0,0,1.0577,rock_grid_rect_2,5,12,-1,-1,1.058,0.418518575,-0.419444444,1,0,0,3.0654,Pumice_rect,8,3.065,0,9,0,9,0,1,,,,,,,,,,,,,
6529c6cd086dd362bc291f14,TCN,2024-06-20_13h32.05.758,LearnStrategy,2023.2.3,Win32,60.24096386,8,1,11,0.123148176,-0.003703732,1,0,0,1.1898,rock_grid_rect_2,2,06,-1,-1,1.19,-0.220370356,-0.263888889,1,0,0,1.556,Basalt_rect,2,1.556,1,10,0,10,0,1,,,,,,,,,,,,,
6529c6cd086dd362bc291f14,TCN,2024-06-20_13h32.05.758,LearnStrategy,2023.2.3,Win32,60.24096386,8,1,12,0.119444444,-0.008333333,1,0,0,1.0912,rock_grid_rect_2,6,05,-1,-1,1.091,-0.377777778,-0.251851908,1,0,0,1.7872,Andesite_rect,1,1.787,0,11,0,11,0,1,,,,,,,,,,,,,
6529c6cd086dd362bc291f14,TCN,2024-06-20_13h32.05.758,LearnStrategy,2023.2.3,Win32,60.24096386,8,1,13,0.091666667,-0.008333333,1,0,0,0.8755,rock_grid_rect_2,4,01,-1,-1,0.876,0.114814843,-0.417592621,1,0,0,2.5648,Peridotite_rect,7,2.565,0,12,0,12,0,1,,,,,,,,,,,,,
6529c6cd086dd362bc291f14,TCN,2024-06-20_13h32.05.758,LearnStrategy,2023.2.3,Win32,60.24096386,8,1,14,0.038888889,0.006481467,1,0,0,1.0754,rock_grid_rect_2,3,06,-1,-1,1.075,-0.158333333,-0.246296353,1,0,0,1.7661,Basalt_rect,2,1.766,0,13,0,13,0,1,,,,,,,,,,,,,
6529c6cd086dd362bc291f14,TCN,2024-06-20_13h32.05.758,LearnStrategy,2023.2.3,Win32,60.24096386,8,1,15,0.035185242,0.00370369,1,0,0,0.9424,rock_grid_rect_2,3,15,-1,-1,0.942,-0.140740712,-0.408333333,1,0,0,0.9342,Pegmatite_rect,6,0.934,0,14,0,14,0,1,,,,,,,,,,,,,
6529c6cd086dd362bc291f14,TCN,2024-06-20_13h32.05.758,LearnStrategy,2023.2.3,Win32,60.24096386,8,1,16,0.080555556,-0.002777778,1,0,0,0.8425,rock_grid_rect_2,8,08,-1,-1,0.842,0.104629686,-0.263888889,1,0,0,0.7004,Diorite_rect,3,0.7,0,15,0,15,0,1,,,,,,,,,,,,,
6529c6cd086dd362bc291f14,TCN,2024-06-20_13h32.05.758,LearnStrategy,2023.2.3,Win32,60.24096386,8,2,1,,,,,,,,5,06,,,,,,,,,,,3,1.945,0,,,,,,0.110185242,-0.258333333,1,0,0,1.945,Diorite_rect,0,0,0,0,1,
6529c6cd086dd362bc291f14,TCN,2024-06-20_13h32.05.758,LearnStrategy,2023.2.3,Win32,60.24096386,8,2,2,,,,,,,,2,04,,,,,,,,,,,2,0.964,1,,,,,,-0.116666667,-0.244444444,1,0,0,0.9645,Basalt_rect,1,0,1,0,1,
6529c6cd086dd362bc291f14,TCN,2024-06-20_13h32.05.758,LearnStrategy,2023.2.3,Win32,60.24096386,8,2,3,,,,,,,,4,11,,,,,,,,,,,2,1.166,0,,,,,,-0.128703647,-0.23148151,1,0,0,1.1657,Basalt_rect,2,0,2,0,1,
6529c6cd086dd362bc291f14,TCN,2024-06-20_13h32.05.758,LearnStrategy,2023.2.3,Win32,60.24096386,8,2,4,,,,,,,,7,05,,,,,,,,,,,4,1.04,0,,,,,,0.367592621,-0.243518575,1,0,0,1.0396,Gabbro_rect,3,0,3,0,1,
6529c6cd086dd362bc291f14,TCN,2024-06-20_13h32.05.758,LearnStrategy,2023.2.3,Win32,60.24096386,8,2,5,,,,,,,,7,14,,,,,,,,,,,5,1.682,0,,,,,,-0.430555556,-0.408333333,1,0,0,1.6822,Obsidian_rect,4,0,4,0,1,
6529c6cd086dd362bc291f14,TCN,2024-06-20_13h32.05.758,LearnStrategy,2023.2.3,Win32,60.24096386,8,2,6,,,,,,,,3,14,,,,,,,,,,,7,2.615,0,,,,,,0.072222222,-0.391666667,1,0,0,2.6151,Peridotite_rect,5,0,5,0,1,
6529c6cd086dd362bc291f14,TCN,2024-06-20_13h32.05.758,LearnStrategy,2023.2.3,Win32,60.24096386,8,2,7,,,,,,,,6,09,,,,,,,,,,,1,1.76,0,,,,,,-0.394444444,-0.242592621,1,0,0,1.7596,Andesite_rect,6,0,6,0,1,
6529c6cd086dd362bc291f14,TCN,2024-06-20_13h32.05.758,LearnStrategy,2023.2.3,Win32,60.24096386,8,2,8,,,,,,,,8,02,,,,,,,,,,,2,1.199,0,,,,,,-0.098148092,-0.234259288,1,0,0,1.1986,Basalt_rect,7,0,7,0,1,
6529c6cd086dd362bc291f14,TCN,2024-06-20_13h32.05.758,LearnStrategy,2023.2.3,Win32,60.24096386,8,2,9,,,,,,,,6,07,,,,,,,,,,,3,1.165,0,,,,,,0.099074131,-0.237963019,1,0,0,1.1653,Diorite_rect,8,0,8,0,1,
6529c6cd086dd362bc291f14,TCN,2024-06-20_13h32.05.758,LearnStrategy,2023.2.3,Win32,60.24096386,8,2,10,,,,,,,,1,01,,,,,,,,,,,6,1.047,0,,,,,,-0.175925869,-0.394444444,1,0,0,1.0469,Pegmatite_rect,9,0,9,0,1,
6529c6cd086dd362bc291f14,TCN,2024-06-20_13h32.05.758,LearnStrategy,2023.2.3,Win32,60.24096386,8,2,11,,,,,,,,8,05,,,,,,,,,,,4,1.116,0,,,,,,0.4,-0.234259288,1,0,0,1.1158,Gabbro_rect,10,0,10,0,1,
6529c6cd086dd362bc291f14,TCN,2024-06-20_13h32.05.758,LearnStrategy,2023.2.3,Win32,60.24096386,8,2,12,,,,,,,,4,08,,,,,,,,,,,7,1.092,0,,,,,,0.134259288,-0.384259288,1,0,0,1.0924,Peridotite_rect,11,0,11,0,1,
6529c6cd086dd362bc291f14,TCN,2024-06-20_13h32.05.758,LearnStrategy,2023.2.3,Win32,60.24096386,8,2,13,,,,,,,,5,09,,,,,,,,,,,5,0.984,1,,,,,,-0.432407379,-0.399074131,1,0,0,0.9842,Obsidian_rect,12,0,12,0,1,
6529c6cd086dd362bc291f14,TCN,2024-06-20_13h32.05.758,LearnStrategy,2023.2.3,Win32,60.24096386,8,2,14,,,,,,,,3,12,,,,,,,,,,,3,2.002,1,,,,,,0.163888889,-0.245370399,1,0,0,2.0024,Diorite_rect,13,0,13,0,1,
6529c6cd086dd362bc291f14,TCN,2024-06-20_13h32.05.758,LearnStrategy,2023.2.3,Win32,60.24096386,8,2,15,,,,,,,,2,09,,,,,,,,,,,2,1.004,1,,,,,,-0.085185157,-0.245370399,1,0,0,1.0038,Basalt_rect,14,0,14,0,1,
6529c6cd086dd362bc291f14,TCN,2024-06-20_13h32.05.758,LearnStrategy,2023.2.3,Win32,60.24096386,8,2,16,,,,,,,,1,16,,,,,,,,,,,8,1.065,0,,,,,,0.350925954,-0.402777778,1,0,0,1.0651,Pumice_rect,15,0,15,0,1,
6529c6cd086dd362bc291f14,TCN,2024-06-20_13h32.05.758,LearnStrategy,2023.2.3,Win32,60.24096386,9,1,1,0.148148176,-0.003703732,1,0,0,5.1748,rock_grid_rect_2,7,12,-1,-1,5.175,0.137037065,-0.258333333,1,0,0,2.2476,Diorite_rect,3,2.248,0,0,0,0,0,1,,,,,,,,,,,,,
6529c6cd086dd362bc291f14,TCN,2024-06-20_13h32.05.758,LearnStrategy,2023.2.3,Win32,60.24096386,9,1,2,0.094444444,0.006481467,1,0,0,0.9258,rock_grid_rect_2,2,12,-1,-1,0.926,-0.164814758,-0.264814843,1,0,0,0.918,Basalt_rect,2,0.918,1,1,0,1,0,1,,,,,,,,,,,,,
6529c6cd086dd362bc291f14,TCN,2024-06-20_13h32.05.758,LearnStrategy,2023.2.3,Win32,60.24096386,9,1,3,0.010185242,0.01851849,1,0,0,0.809,rock_grid_rect_2,5,07,-1,-1,0.809,-0.365740712,-0.242592621,1,0,0,1.5163,Andesite_rect,1,1.516,0,2,0,2,0,1,,,,,,,,,,,,,
6529c6cd086dd362bc291f14,TCN,2024-06-20_13h32.05.758,LearnStrategy,2023.2.3,Win32,60.24096386,9,1,4,0.063888889,-0.007407422,1,0,0,0.9925,rock_grid_rect_2,2,05,-1,-1,0.993,0.175,-0.410185242,1,0,0,1.2387,Peridotite_rect,7,1.239,0,3,0,3,0,1,,,,,,,,,,,,,
6529c6cd086dd362bc291f14,TCN,2024-06-20_13h32.05.758,LearnStrategy,2023.2.3,Win32,60.24096386,9,1,5,0.064814843,-0.008333333,1,0,0,0.7594,rock_grid_rect_2,5,04,-1,-1,0.759,-0.35,-0.387037065,1,0,0,1.8971,Obsidian_rect,5,1.897,1,4,0,4,0,1,,,,,,,,,,,,,
6529c6cd086dd362bc291f14,TCN,2024-06-20_13h32.05.758,LearnStrategy,2023.2.3,Win32,60.24096386,9,1,6,0.065740797,0,1,0,0,1.0589,rock_grid_rect_2,4,14,-1,-1,1.059,0.140740797,-0.4,1,0,0,1.4338,Peridotite_rect,7,1.434,0,5,0,5,0,1,,,,,,,,,,,,,
6529c6cd086dd362bc291f14,TCN,2024-06-20_13h32.05.758,LearnStrategy,2023.2.3,Win32,60.24096386,9,1,7,0.089814843,0.002777778,1,0,0,0.8252,rock_grid_rect_2,7,15,-1,-1,0.825,0.151851908,-0.258333333,1,0,0,0.8486,Diorite_rect,3,0.849,0,6,0,6,0,1,,,,,,,,,,,,,
6529c6cd086dd362bc291f14,TCN,2024-06-20_13h32.05.758,LearnStrategy,2023.2.3,Win32,60.24096386,9,1,8,0.044444444,-0.003703732,1,0,0,0.8923,rock_grid_rect_2,3,08,-1,-1,0.892,0.422222222,-0.397222222,1,0,0,1.466,Pumice_rect,8,1.466,0,7,0,7,0,1,,,,,,,,,,,,,
6529c6cd086dd362bc291f14,TCN,2024-06-20_13h32.05.758,LearnStrategy,2023.2.3,Win32,60.24096386,9,1,9,0.049074131,-0.001851866,1,0,0,1.1917,rock_grid_rect_2,6,11,-1,-1,1.192,-0.398148134,-0.258333333,1,0,0,3.9742,Andesite_rect,1,3.974,0,8,0,8,0,1,,,,,,,,,,,,,
6529c6cd086dd362bc291f14,TCN,2024-06-20_13h32.05.758,LearnStrategy,2023.2.3,Win32,60.24096386,9,1,10,0.119444444,-0.001851866,1,0,0,1.341,rock_grid_rect_2,4,09,-1,-1,1.341,0.128703732,-0.257407464,1,0,0,0.6479,Diorite_rect,3,0.648,0,9,0,9,0,1,,,,,,,,,,,,,
6529c6cd086dd362bc291f14,TCN,2024-06-20_13h32.05.758,LearnStrategy,2023.2.3,Win32,60.24096386,9,1,11,0.087963019,0.002777778,1,0,0,0.9252,rock_grid_rect_2,8,10,-1,-1,0.925,-0.078703647,-0.393518575,1,0,0,0.8245,Pegmatite_rect,6,0.824,0,10,0,10,0,1,,,,,,,,,,,,,
6529c6cd086dd362bc291f14,TCN,2024-06-20_13h32.05.758,LearnStrategy,2023.2.3,Win32,60.24096386,9,1,12,0.093518575,0.00370369,1,0,0,0.8593,rock_grid_rect_2,1,02,-1,-1,0.859,0.113888889,-0.395370399,1,0,0,1.4503,Peridotite_rect,7,1.45,0,11,0,11,0,1,,,,,,,,,,,,,
6529c6cd086dd362bc291f14,TCN,2024-06-20_13h32.05.758,LearnStrategy,2023.2.3,Win32,60.24096386,9,1,13,0.058333333,-0.004629644,1,0,0,1.2105,rock_grid_rect_2,1,09,-1,-1,1.211,-0.145370314,-0.236111111,1,0,0,1.2376,Basalt_rect,2,1.238,0,12,0,12,0,1,,,,,,,,,,,,,
6529c6cd086dd362bc291f14,TCN,2024-06-20_13h32.05.758,LearnStrategy,2023.2.3,Win32,60.24096386,9,1,14,0.027777778,-0.001851866,1,0,0,0.8962,rock_grid_rect_2,6,10,-1,-1,0.896,-0.360185157,-0.235185242,1,0,0,1.6343,Andesite_rect,1,1.634,0,13,0,13,0,1,,,,,,,,,,,,,
6529c6cd086dd362bc291f14,TCN,2024-06-20_13h32.05.758,LearnStrategy,2023.2.3,Win32,60.24096386,9,1,15,0.062963019,0.007407379,1,0,0,1.0916,rock_grid_rect_2,3,02,-1,-1,1.092,0.345370399,-0.259259288,1,0,0,0.7834,Gabbro_rect,4,0.783,0,14,0,14,0,1,,,,,,,,,,,,,
6529c6cd086dd362bc291f14,TCN,2024-06-20_13h32.05.758,LearnStrategy,2023.2.3,Win32,60.24096386,9,1,16,0.017592621,-0.001851866,1,0,0,0.9085,rock_grid_rect_2,8,09,-1,-1,0.909,0.153703732,-0.404629686,1,0,0,0.8723,Peridotite_rect,7,0.872,0,15,0,15,0,1,,,,,,,,,,,,,
6529c6cd086dd362bc291f14,TCN,2024-06-20_13h32.05.758,LearnStrategy,2023.2.3,Win32,60.24096386,9,2,1,,,,,,,,4,16,,,,,,,,,,,2,1.681,0,,,,,,-0.135185157,-0.243518575,1,0,0,1.6807,Basalt_rect,0,0,0,0,1,
6529c6cd086dd362bc291f14,TCN,2024-06-20_13h32.05.758,LearnStrategy,2023.2.3,Win32,60.24096386,9,2,2,,,,,,,,7,16,,,,,,,,,,,7,0.832,1,,,,,,0.116666667,-0.404629686,1,0,0,0.8322,Peridotite_rect,1,0,1,0,1,
6529c6cd086dd362bc291f14,TCN,2024-06-20_13h32.05.758,LearnStrategy,2023.2.3,Win32,60.24096386,9,2,3,,,,,,,,3,13,,,,,,,,,,,4,0.815,0,,,,,,0.423148176,-0.247222222,1,0,0,0.8153,Gabbro_rect,2,0,2,0,1,
6529c6cd086dd362bc291f14,TCN,2024-06-20_13h32.05.758,LearnStrategy,2023.2.3,Win32,60.24096386,9,2,4,,,,,,,,6,08,,,,,,,,,,,1,0.983,0,,,,,,-0.459259245,-0.255555556,1,0,0,0.9831,Andesite_rect,3,0,3,0,1,
6529c6cd086dd362bc291f14,TCN,2024-06-20_13h32.05.758,LearnStrategy,2023.2.3,Win32,60.24096386,9,2,5,,,,,,,,2,02,,,,,,,,,,,2,1.349,1,,,,,,-0.091666667,-0.260185242,1,0,0,1.3491,Basalt_rect,4,0,4,0,1,
6529c6cd086dd362bc291f14,TCN,2024-06-20_13h32.05.758,LearnStrategy,2023.2.3,Win32,60.24096386,9,2,6,,,,,,,,6,15,,,,,,,,,,,5,1.231,0,,,,,,-0.37870369,-0.397222222,1,0,0,1.2308,Obsidian_rect,5,0,5,0,1,
6529c6cd086dd362bc291f14,TCN,2024-06-20_13h32.05.758,LearnStrategy,2023.2.3,Win32,60.24096386,9,2,7,,,,,,,,3,09,,,,,,,,,,,3,1.125,1,,,,,,0.218518575,-0.250925954,1,0,0,1.1252,Diorite_rect,6,0,6,0,1,
6529c6cd086dd362bc291f14,TCN,2024-06-20_13h32.05.758,LearnStrategy,2023.2.3,Win32,60.24096386,9,2,8,,,,,,,,2,16,,,,,,,,,,,7,0.948,0,,,,,,0.133333333,-0.407407464,1,0,0,0.9484,Peridotite_rect,7,0,7,0,1,
6529c6cd086dd362bc291f14,TCN,2024-06-20_13h32.05.758,LearnStrategy,2023.2.3,Win32,60.24096386,9,2,9,,,,,,,,1,06,,,,,,,,,,,8,0.849,0,,,,,,0.343518575,-0.399074131,1,0,0,0.8489,Pumice_rect,8,0,8,0,1,
6529c6cd086dd362bc291f14,TCN,2024-06-20_13h32.05.758,LearnStrategy,2023.2.3,Win32,60.24096386,9,2,10,,,,,,,,8,06,,,,,,,,,,,2,1.111,0,,,,,,-0.14351849,-0.245370399,1,0,0,1.111,Basalt_rect,9,0,9,0,1,
6529c6cd086dd362bc291f14,TCN,2024-06-20_13h32.05.758,LearnStrategy,2023.2.3,Win32,60.24096386,9,2,11,,,,,,,,5,11,,,,,,,,,,,5,1.773,1,,,,,,-0.45,-0.399074131,1,0,0,1.7734,Obsidian_rect,10,0,10,0,1,
6529c6cd086dd362bc291f14,TCN,2024-06-20_13h32.05.758,LearnStrategy,2023.2.3,Win32,60.24096386,9,2,12,,,,,,,,4,12,,,,,,,,,,,2,1.182,0,,,,,,-0.116666667,-0.262963019,1,0,0,1.1816,Basalt_rect,11,0,11,0,1,
6529c6cd086dd362bc291f14,TCN,2024-06-20_13h32.05.758,LearnStrategy,2023.2.3,Win32,60.24096386,9,2,13,,,,,,,,1,11,,,,,,,,,,,4,1.665,0,,,,,,0.342592621,-0.258333333,1,0,0,1.6651,Gabbro_rect,12,0,12,0,1,
6529c6cd086dd362bc291f14,TCN,2024-06-20_13h32.05.758,LearnStrategy,2023.2.3,Win32,60.24096386,9,2,14,,,,,,,,7,08,,,,,,,,,,,6,2.048,0,,,,,,-0.160185157,-0.396296353,1,0,0,2.0481,Pegmatite_rect,13,0,13,0,1,
6529c6cd086dd362bc291f14,TCN,2024-06-20_13h32.05.758,LearnStrategy,2023.2.3,Win32,60.24096386,9,2,15,,,,,,,,5,05,,,,,,,,,,,7,1.15,0,,,,,,0.075,-0.401851908,1,0,0,1.1496,Peridotite_rect,14,0,14,0,1,
6529c6cd086dd362bc291f14,TCN,2024-06-20_13h32.05.758,LearnStrategy,2023.2.3,Win32,60.24096386,9,2,16,,,,,,,,8,13,,,,,,,,,,,8,1.529,1,,,,,,0.355555556,-0.386111111,1,0,0,1.5288,Pumice_rect,15,0,15,0,1,
6529c6cd086dd362bc291f14,TCN,2024-06-20_13h32.05.758,LearnStrategy,2023.2.3,Win32,60.24096386,,,,,,,,,,,,,,,,,,,,,,,,,,,,,,,,,,,,,,,,,,,0
6529c6cd086dd362bc291f14,TCN,2024-06-20_13h32.05.758,LearnStrategy,2023.2.3,Win32,60.24096386,,,,,,,,,,,,,,,,,,,,,,,,,,,,,,,,,,,,,,,,,,,
6529c6cd086dd362bc291f14,TCN,2024-06-20_13h32.05.758,LearnStrategy,2023.2.3,Win32,60.24096386,,,,,,,,,,,2,14,1,1,,,,,,,,,,,,,,,,,,,,,,,,,,,,,
6529c6cd086dd362bc291f14,TCN,2024-06-20_13h32.05.758,LearnStrategy,2023.2.3,Win32,60.24096386,,,,,,,,,,,3,11,1,2,,,,,,,,,,,,,,,,,,,,,,,,,,,,,
6529c6cd086dd362bc291f14,TCN,2024-06-20_13h32.05.758,LearnStrategy,2023.2.3,Win32,60.24096386,,,,,,,,,,,5,12,1,3,,,,,,,,,,,,,,,,,,,,,,,,,,,,,
6529c6cd086dd362bc291f14,TCN,2024-06-20_13h32.05.758,LearnStrategy,2023.2.3,Win32,60.24096386,,,,,,,,,,,7,15,1,4,,,,,,,,,,,,,,,,,,,,,,,,,,,,,
6529c6cd086dd362bc291f14,TCN,2024-06-20_13h32.05.758,LearnStrategy,2023.2.3,Win32,60.24096386,,,,,,,,,,,5,04,1,5,,,,,,,,,,,,,,,,,,,,,,,,,,,,,
6529c6cd086dd362bc291f14,TCN,2024-06-20_13h32.05.758,LearnStrategy,2023.2.3,Win32,60.24096386,,,,,,,,,,,3,02,1,6,,,,,,,,,,,,,,,,,,,,,,,,,,,,,
6529c6cd086dd362bc291f14,TCN,2024-06-20_13h32.05.758,LearnStrategy,2023.2.3,Win32,60.24096386,,,,,,,,,,,4,03,1,7,,,,,,,,,,,,,,,,,,,,,,,,,,,,,
6529c6cd086dd362bc291f14,TCN,2024-06-20_13h32.05.758,LearnStrategy,2023.2.3,Win32,60.24096386,,,,,,,,,,,1,09,1,8,,,,,,,,,,,,,,,,,,,,,,,,,,,,,
6529c6cd086dd362bc291f14,TCN,2024-06-20_13h32.05.758,LearnStrategy,2023.2.3,Win32,60.24096386,,,,,,,,,,,1,02,2,1,,,,,,,,,,,,,,,,,,,,,,,,,,,,,
6529c6cd086dd362bc291f14,TCN,2024-06-20_13h32.05.758,LearnStrategy,2023.2.3,Win32,60.24096386,,,,,,,,,,,5,07,2,2,,,,,,,,,,,,,,,,,,,,,,,,,,,,,
6529c6cd086dd362bc291f14,TCN,2024-06-20_13h32.05.758,LearnStrategy,2023.2.3,Win32,60.24096386,,,,,,,,,,,5,02,2,3,,,,,,,,,,,,,,,,,,,,,,,,,,,,,
6529c6cd086dd362bc291f14,TCN,2024-06-20_13h32.05.758,LearnStrategy,2023.2.3,Win32,60.24096386,,,,,,,,,,,6,11,2,4,,,,,,,,,,,,,,,,,,,,,,,,,,,,,
6529c6cd086dd362bc291f14,TCN,2024-06-20_13h32.05.758,LearnStrategy,2023.2.3,Win32,60.24096386,,,,,,,,,,,3,08,2,5,,,,,,,,,,,,,,,,,,,,,,,,,,,,,
6529c6cd086dd362bc291f14,TCN,2024-06-20_13h32.05.758,LearnStrategy,2023.2.3,Win32,60.24096386,,,,,,,,,,,6,10,2,6,,,,,,,,,,,,,,,,,,,,,,,,,,,,,
6529c6cd086dd362bc291f14,TCN,2024-06-20_13h32.05.758,LearnStrategy,2023.2.3,Win32,60.24096386,,,,,,,,,,,6,16,2,7,,,,,,,,,,,,,,,,,,,,,,,,,,,,,
6529c6cd086dd362bc291f14,TCN,2024-06-20_13h32.05.758,LearnStrategy,2023.2.3,Win32,60.24096386,,,,,,,,,,,7,13,2,8,,,,,,,,,,,,,,,,,,,,,,,,,,,,,
6529c6cd086dd362bc291f14,TCN,2024-06-20_13h32.05.758,LearnStrategy,2023.2.3,Win32,60.24096386,,,,,,,,,,,4,01,3,1,,,,,,,,,,,,,,,,,,,,,,,,,,,,,
6529c6cd086dd362bc291f14,TCN,2024-06-20_13h32.05.758,LearnStrategy,2023.2.3,Win32,60.24096386,,,,,,,,,,,1,04,3,2,,,,,,,,,,,,,,,,,,,,,,,,,,,,,
6529c6cd086dd362bc291f14,TCN,2024-06-20_13h32.05.758,LearnStrategy,2023.2.3,Win32,60.24096386,,,,,,,,,,,3,07,3,3,,,,,,,,,,,,,,,,,,,,,,,,,,,,,
6529c6cd086dd362bc291f14,TCN,2024-06-20_13h32.05.758,LearnStrategy,2023.2.3,Win32,60.24096386,,,,,,,,,,,6,05,3,4,,,,,,,,,,,,,,,,,,,,,,,,,,,,,
6529c6cd086dd362bc291f14,TCN,2024-06-20_13h32.05.758,LearnStrategy,2023.2.3,Win32,60.24096386,,,,,,,,,,,2,12,3,5,,,,,,,,,,,,,,,,,,,,,,,,,,,,,
6529c6cd086dd362bc291f14,TCN,2024-06-20_13h32.05.758,LearnStrategy,2023.2.3,Win32,60.24096386,,,,,,,,,,,7,12,3,6,,,,,,,,,,,,,,,,,,,,,,,,,,,,,
6529c6cd086dd362bc291f14,TCN,2024-06-20_13h32.05.758,LearnStrategy,2023.2.3,Win32,60.24096386,,,,,,,,,,,6,03,3,7,,,,,,,,,,,,,,,,,,,,,,,,,,,,,
6529c6cd086dd362bc291f14,TCN,2024-06-20_13h32.05.758,LearnStrategy,2023.2.3,Win32,60.24096386,,,,,,,,,,,1,14,3,8,,,,,,,,,,,,,,,,,,,,,,,,,,,,,
6529c6cd086dd362bc291f14,TCN,2024-06-20_13h32.05.758,LearnStrategy,2023.2.3,Win32,60.24096386,,,,,,,,,,,3,15,4,1,,,,,,,,,,,,,,,,,,,,,,,,,,,,,
6529c6cd086dd362bc291f14,TCN,2024-06-20_13h32.05.758,LearnStrategy,2023.2.3,Win32,60.24096386,,,,,,,,,,,7,10,4,2,,,,,,,,,,,,,,,,,,,,,,,,,,,,,
6529c6cd086dd362bc291f14,TCN,2024-06-20_13h32.05.758,LearnStrategy,2023.2.3,Win32,60.24096386,,,,,,,,,,,8,14,4,3,,,,,,,,,,,,,,,,,,,,,,,,,,,,,
6529c6cd086dd362bc291f14,TCN,2024-06-20_13h32.05.758,LearnStrategy,2023.2.3,Win32,60.24096386,,,,,,,,,,,8,04,4,4,,,,,,,,,,,,,,,,,,,,,,,,,,,,,
6529c6cd086dd362bc291f14,TCN,2024-06-20_13h32.05.758,LearnStrategy,2023.2.3,Win32,60.24096386,,,,,,,,,,,6,13,4,5,,,,,,,,,,,,,,,,,,,,,,,,,,,,,
6529c6cd086dd362bc291f14,TCN,2024-06-20_13h32.05.758,LearnStrategy,2023.2.3,Win32,60.24096386,,,,,,,,,,,2,05,4,6,,,,,,,,,,,,,,,,,,,,,,,,,,,,,
6529c6cd086dd362bc291f14,TCN,2024-06-20_13h32.05.758,LearnStrategy,2023.2.3,Win32,60.24096386,,,,,,,,,,,5,10,4,7,,,,,,,,,,,,,,,,,,,,,,,,,,,,,
6529c6cd086dd362bc291f14,TCN,2024-06-20_13h32.05.758,LearnStrategy,2023.2.3,Win32,60.24096386,,,,,,,,,,,8,09,4,8,,,,,,,,,,,,,,,,,,,,,,,,,,,,,
6529c6cd086dd362bc291f14,TCN,2024-06-20_13h32.05.758,LearnStrategy,2023.2.3,Win32,60.24096386,,,,,,,,,,,8,16,5,1,,,,,,,,,,,,,,,,,,,,,,,,,,,,,
6529c6cd086dd362bc291f14,TCN,2024-06-20_13h32.05.758,LearnStrategy,2023.2.3,Win32,60.24096386,,,,,,,,,,,8,08,5,2,,,,,,,,,,,,,,,,,,,,,,,,,,,,,
6529c6cd086dd362bc291f14,TCN,2024-06-20_13h32.05.758,LearnStrategy,2023.2.3,Win32,60.24096386,,,,,,,,,,,4,10,5,3,,,,,,,,,,,,,,,,,,,,,,,,,,,,,
6529c6cd086dd362bc291f14,TCN,2024-06-20_13h32.05.758,LearnStrategy,2023.2.3,Win32,60.24096386,,,,,,,,,,,1,10,5,4,,,,,,,,,,,,,,,,,,,,,,,,,,,,,
6529c6cd086dd362bc291f14,TCN,2024-06-20_13h32.05.758,LearnStrategy,2023.2.3,Win32,60.24096386,,,,,,,,,,,8,10,5,5,,,,,,,,,,,,,,,,,,,,,,,,,,,,,
6529c6cd086dd362bc291f14,TCN,2024-06-20_13h32.05.758,LearnStrategy,2023.2.3,Win32,60.24096386,,,,,,,,,,,2,06,5,6,,,,,,,,,,,,,,,,,,,,,,,,,,,,,
6529c6cd086dd362bc291f14,TCN,2024-06-20_13h32.05.758,LearnStrategy,2023.2.3,Win32,60.24096386,,,,,,,,,,,4,13,5,7,,,,,,,,,,,,,,,,,,,,,,,,,,,,,
6529c6cd086dd362bc291f14,TCN,2024-06-20_13h32.05.758,LearnStrategy,2023.2.3,Win32,60.24096386,,,,,,,,,,,5,08,5,8,,,,,,,,,,,,,,,,,,,,,,,,,,,,,
6529c6cd086dd362bc291f14,TCN,2024-06-20_13h32.05.758,LearnStrategy,2023.2.3,Win32,60.24096386,,,,,,,,,,,2,01,6,1,,,,,,,,,,,,,,,,,,,,,,,,,,,,,
6529c6cd086dd362bc291f14,TCN,2024-06-20_13h32.05.758,LearnStrategy,2023.2.3,Win32,60.24096386,,,,,,,,,,,7,07,6,2,,,,,,,,,,,,,,,,,,,,,,,,,,,,,
6529c6cd086dd362bc291f14,TCN,2024-06-20_13h32.05.758,LearnStrategy,2023.2.3,Win32,60.24096386,,,,,,,,,,,7,06,6,3,,,,,,,,,,,,,,,,,,,,,,,,,,,,,
6529c6cd086dd362bc291f14,TCN,2024-06-20_13h32.05.758,LearnStrategy,2023.2.3,Win32,60.24096386,,,,,,,,,,,3,06,6,4,,,,,,,,,,,,,,,,,,,,,,,,,,,,,
6529c6cd086dd362bc291f14,TCN,2024-06-20_13h32.05.758,LearnStrategy,2023.2.3,Win32,60.24096386,,,,,,,,,,,1,03,6,5,,,,,,,,,,,,,,,,,,,,,,,,,,,,,
6529c6cd086dd362bc291f14,TCN,2024-06-20_13h32.05.758,LearnStrategy,2023.2.3,Win32,60.24096386,,,,,,,,,,,2,08,6,6,,,,,,,,,,,,,,,,,,,,,,,,,,,,,
6529c6cd086dd362bc291f14,TCN,2024-06-20_13h32.05.758,LearnStrategy,2023.2.3,Win32,60.24096386,,,,,,,,,,,4,09,6,7,,,,,,,,,,,,,,,,,,,,,,,,,,,,,
6529c6cd086dd362bc291f14,TCN,2024-06-20_13h32.05.758,LearnStrategy,2023.2.3,Win32,60.24096386,,,,,,,,,,,4,14,6,8,,,,,,,,,,,,,,,,,,,,,,,,,,,,,