participant,condition,date,expName,psychopyVersion,OS,frameRate,block,phase,trial,learn_mouse.x,learn_mouse.y,learn_mouse.leftButton,learn_mouse.midButton,learn_mouse.rightButton,learn_mouse.time,learn_mouse.clicked_name,cat,token,row,col,t_select,cat_mouse_l.x,cat_mouse_l.y,cat_mouse_l.leftButton,cat_mouse_l.midButton,cat_mouse_l.rightButton,cat_mouse_l.time,cat_mouse_l.clicked_name,resp,t_resp,corr,train_trials.thisRepN,train_trials.thisTrialN,train_trials.thisN,train_trials.thisIndex,train_trials.ran,cat_mouse_t.x,cat_mouse_t.y,cat_mouse_t.leftButton,cat_mouse_t.midButton,cat_mouse_t.rightButton,cat_mouse_t.time,cat_mouse_t.clicked_name,test_trials.thisRepN,test_trials.thisTrialN,test_trials.thisN,test_trials.thisIndex,test_trials.ran,Bonus
652d8a4cd08c6435db58fd9b,SCN,2024-06-20_15h27.58.864,LearnStrategy,2023.2.3,MacIntel,63.29113924,,,,,,,,,,,,,,,,,,,,,,,,,,,,,,,,,,,,,,,,,,,
652d8a4cd08c6435db58fd9b,SCN,2024-06-20_15h27.58.864,LearnStrategy,2023.2.3,MacIntel,63.29113924,1,1,1,-0.058906182,-0.107849325,1,0,0,5.1628,Diorite_08,3,08,3,4,5.163,0.140081041,-0.413936768,1,0,0,14.9453,Peridotite_rect,7,14.945,0,0,0,0,0,1,,,,,,,,,,,,,
652d8a4cd08c6435db58fd9b,SCN,2024-06-20_15h27.58.864,LearnStrategy,2023.2.3,MacIntel,63.29113924,1,1,2,0.210341051,-0.093747355,1,0,0,1.5316,Obsidian_06,5,06,3,6,1.532,-0.158291016,-0.27107666,1,0,0,2.7123,Basalt_rect,2,2.712,0,1,0,1,0,1,,,,,,,,,,,,,
652d8a4cd08c6435db58fd9b,SCN,2024-06-20_15h27.58.864,LearnStrategy,2023.2.3,MacIntel,63.29113924,1,1,3,-0.20472602,-0.264407891,1,0,0,1.2284,Diorite_14,3,14,2,3,1.228,-0.34630388,-0.240108439,1,0,0,3.9838,Andesite_rect,1,3.984,0,2,0,2,0,1,,,,,,,,,,,,,
652d8a4cd08c6435db58fd9b,SCN,2024-06-20_15h27.58.864,LearnStrategy,2023.2.3,MacIntel,63.29113924,1,1,4,0.080966526,0.22057212,1,0,0,1.1641,Pumice_05,8,05,5,5,1.164,0.401346164,-0.386376343,1,0,0,3.5844,Pumice_rect,8,3.584,1,3,0,3,0,1,,,,,,,,,,,,,
652d8a4cd08c6435db58fd9b,SCN,2024-06-20_15h27.58.864,LearnStrategy,2023.2.3,MacIntel,63.29113924,1,1,5,-0.062923109,-0.412235175,1,0,0,2.0128,Andesite_07,1,07,1,4,2.013,-0.062923109,-0.412235175,1,0,0,1.0124,Pegmatite_rect,6,1.012,0,4,0,4,0,1,,,,,,,,,,,,,
652d8a4cd08c6435db58fd9b,SCN,2024-06-20_15h27.58.864,LearnStrategy,2023.2.3,MacIntel,63.29113924,1,1,6,-0.359894579,-0.262868517,1,0,0,3.5984,Gabbro_08,4,08,2,2,3.598,-0.175792508,-0.379594794,1,0,0,2.2547,Pegmatite_rect,6,2.255,0,5,0,5,0,1,,,,,,,,,,,,,
652d8a4cd08c6435db58fd9b,SCN,2024-06-20_15h27.58.864,LearnStrategy,2023.2.3,MacIntel,63.29113924,1,1,7,0.190168389,0.108264092,1,0,0,2.5628,Obsidian_09,5,09,4,6,2.563,-0.341307949,-0.390163371,1,0,0,2.7167,Obsidian_rect,5,2.717,1,6,0,6,0,1,,,,,,,,,,,,,
652d8a4cd08c6435db58fd9b,SCN,2024-06-20_15h27.58.864,LearnStrategy,2023.2.3,MacIntel,63.29113924,1,1,8,0.395932617,-0.421554226,1,0,0,0.9296,Pegmatite_09,6,09,1,7,0.93,-0.097632311,-0.415309245,1,0,0,4.8129,Pegmatite_rect,6,4.813,1,7,0,7,0,1,,,,,,,,,,,,,
652d8a4cd08c6435db58fd9b,SCN,2024-06-20_15h27.58.864,LearnStrategy,2023.2.3,MacIntel,63.29113924,1,1,9,-0.546985745,-0.262303738,1,0,0,1.8135,Peridotite_05,7,05,2,1,1.814,-0.410288696,-0.251909383,1,0,0,0.9517,Andesite_rect,1,0.952,0,8,0,8,0,1,,,,,,,,,,,,,
652d8a4cd08c6435db58fd9b,SCN,2024-06-20_15h27.58.864,LearnStrategy,2023.2.3,MacIntel,63.29113924,1,1,10,-0.201760932,-0.124539524,1,0,0,1.3308,Pumice_10,8,10,3,3,1.331,-0.335880941,-0.263098145,1,0,0,0.9677,Andesite_rect,1,0.968,0,9,0,9,0,1,,,,,,,,,,,,,
652d8a4cd08c6435db58fd9b,SCN,2024-06-20_15h27.58.864,LearnStrategy,2023.2.3,MacIntel,63.29113924,1,1,11,-0.539085303,0.061754422,1,0,0,0.8998,Pegmatite_06,6,06,4,1,0.9,-0.306188965,-0.232027859,1,0,0,1.0655,Andesite_rect,1,1.066,0,10,0,10,0,1,,,,,,,,,,,,,
652d8a4cd08c6435db58fd9b,SCN,2024-06-20_15h27.58.864,LearnStrategy,2023.2.3,MacIntel,63.29113924,1,1,12,0.076508993,-0.092849664,1,0,0,1.831,Basalt_04,2,04,3,5,1.831,-0.386803385,-0.254465603,1,0,0,0.8046,Andesite_rect,1,0.805,0,11,0,11,0,1,,,,,,,,,,,,,
652d8a4cd08c6435db58fd9b,SCN,2024-06-20_15h27.58.864,LearnStrategy,2023.2.3,MacIntel,63.29113924,1,1,13,0.380191108,-0.113758952,1,0,0,1.1981,Basalt_10,2,10,3,7,1.198,-0.419185859,-0.262810872,1,0,0,1.8888,Andesite_rect,1,1.889,0,12,0,12,0,1,,,,,,,,,,,,,
652d8a4cd08c6435db58fd9b,SCN,2024-06-20_15h27.58.864,LearnStrategy,2023.2.3,MacIntel,63.29113924,1,1,14,-0.244933234,-0.425148248,1,0,0,1.3328,Gabbro_01,4,01,1,3,1.333,-0.38185947,-0.258372464,1,0,0,1.0477,Andesite_rect,1,1.048,0,13,0,13,0,1,,,,,,,,,,,,,
652d8a4cd08c6435db58fd9b,SCN,2024-06-20_15h27.58.864,LearnStrategy,2023.2.3,MacIntel,63.29113924,1,1,15,-0.227112223,0.05342848,1,0,0,1.0463,Pegmatite_08,6,08,4,3,1.046,-0.333534478,-0.241049262,1,0,0,0.9493,Andesite_rect,1,0.949,0,14,0,14,0,1,,,,,,,,,,,,,
652d8a4cd08c6435db58fd9b,SCN,2024-06-20_15h27.58.864,LearnStrategy,2023.2.3,MacIntel,63.29113924,1,1,16,-0.366678128,0.267912733,1,0,0,2.397,Gabbro_03,4,03,5,2,2.397,-0.374554409,-0.238517388,1,0,0,0.8173,Andesite_rect,1,0.817,0,15,0,15,0,1,,,,,,,,,,,,,
652d8a4cd08c6435db58fd9b,SCN,2024-06-20_15h27.58.864,LearnStrategy,2023.2.3,MacIntel,63.29113924,1,2,1,,,,,,,,7,14,,,,,,,,,,,7,7.948,1,,,,,,0.131541748,-0.409042223,1,0,0,7.9479,Peridotite_rect,0,0,0,0,1,
652d8a4cd08c6435db58fd9b,SCN,2024-06-20_15h27.58.864,LearnStrategy,2023.2.3,MacIntel,63.29113924,1,2,2,,,,,,,,8,15,,,,,,,,,,,8,2.546,1,,,,,,0.350576714,-0.406474609,1,0,0,2.5463,Pumice_rect,1,0,1,0,1,
652d8a4cd08c6435db58fd9b,SCN,2024-06-20_15h27.58.864,LearnStrategy,2023.2.3,MacIntel,63.29113924,1,2,3,,,,,,,,6,05,,,,,,,,,,,6,6.889,1,,,,,,-0.124821167,-0.406091173,1,0,0,6.8894,Pegmatite_rect,2,0,2,0,1,
652d8a4cd08c6435db58fd9b,SCN,2024-06-20_15h27.58.864,LearnStrategy,2023.2.3,MacIntel,63.29113924,1,2,4,,,,,,,,7,15,,,,,,,,,,,7,4.429,1,,,,,,0.168358765,-0.407224664,1,0,0,4.4288,Peridotite_rect,3,0,3,0,1,
652d8a4cd08c6435db58fd9b,SCN,2024-06-20_15h27.58.864,LearnStrategy,2023.2.3,MacIntel,63.29113924,1,2,5,,,,,,,,3,16,,,,,,,,,,,1,5.088,0,,,,,,-0.354561564,-0.263493652,1,0,0,5.0879,Andesite_rect,4,0,4,0,1,
652d8a4cd08c6435db58fd9b,SCN,2024-06-20_15h27.58.864,LearnStrategy,2023.2.3,MacIntel,63.29113924,1,2,6,,,,,,,,5,14,,,,,,,,,,,5,1.742,1,,,,,,-0.374932658,-0.414136217,1,0,0,1.7421,Obsidian_rect,5,0,5,0,1,
652d8a4cd08c6435db58fd9b,SCN,2024-06-20_15h27.58.864,LearnStrategy,2023.2.3,MacIntel,63.29113924,1,2,7,,,,,,,,1,14,,,,,,,,,,,3,5.302,0,,,,,,0.212874417,-0.245670776,1,0,0,5.3021,Diorite_rect,6,0,6,0,1,
652d8a4cd08c6435db58fd9b,SCN,2024-06-20_15h27.58.864,LearnStrategy,2023.2.3,MacIntel,63.29113924,1,2,8,,,,,,,,6,11,,,,,,,,,,,6,10.948,1,,,,,,-0.059232788,-0.419197795,1,0,0,10.9484,Pegmatite_rect,7,0,7,0,1,
652d8a4cd08c6435db58fd9b,SCN,2024-06-20_15h27.58.864,LearnStrategy,2023.2.3,MacIntel,63.29113924,1,2,9,,,,,,,,2,06,,,,,,,,,,,4,5.265,0,,,,,,0.382544217,-0.252781304,1,0,0,5.2647,Gabbro_rect,8,0,8,0,1,
652d8a4cd08c6435db58fd9b,SCN,2024-06-20_15h27.58.864,LearnStrategy,2023.2.3,MacIntel,63.29113924,1,2,10,,,,,,,,2,08,,,,,,,,,,,5,2.332,0,,,,,,-0.371595561,-0.386512044,1,0,0,2.3325,Obsidian_rect,9,0,9,0,1,
652d8a4cd08c6435db58fd9b,SCN,2024-06-20_15h27.58.864,LearnStrategy,2023.2.3,MacIntel,63.29113924,1,2,11,,,,,,,,8,09,,,,,,,,,,,8,2.004,1,,,,,,0.383375515,-0.406131592,1,0,0,2.0039,Pumice_rect,10,0,10,0,1,
652d8a4cd08c6435db58fd9b,SCN,2024-06-20_15h27.58.864,LearnStrategy,2023.2.3,MacIntel,63.29113924,1,2,12,,,,,,,,1,11,,,,,,,,,,,4,13.786,0,,,,,,0.357476264,-0.249373576,1,0,0,13.7865,Gabbro_rect,11,0,11,0,1,
652d8a4cd08c6435db58fd9b,SCN,2024-06-20_15h27.58.864,LearnStrategy,2023.2.3,MacIntel,63.29113924,1,2,13,,,,,,,,3,09,,,,,,,,,,,1,4.099,0,,,,,,-0.365630527,-0.258618707,1,0,0,4.099,Andesite_rect,12,0,12,0,1,
652d8a4cd08c6435db58fd9b,SCN,2024-06-20_15h27.58.864,LearnStrategy,2023.2.3,MacIntel,63.29113924,1,2,14,,,,,,,,4,16,,,,,,,,,,,2,8.105,0,,,,,,-0.134857652,-0.234864027,1,0,0,8.1045,Basalt_rect,13,0,13,0,1,
652d8a4cd08c6435db58fd9b,SCN,2024-06-20_15h27.58.864,LearnStrategy,2023.2.3,MacIntel,63.29113924,1,2,15,,,,,,,,4,12,,,,,,,,,,,2,2.672,0,,,,,,-0.134857652,-0.234864027,1,0,0,2.6715,Basalt_rect,14,0,14,0,1,
652d8a4cd08c6435db58fd9b,SCN,2024-06-20_15h27.58.864,LearnStrategy,2023.2.3,MacIntel,63.29113924,1,2,16,,,,,,,,5,12,,,,,,,,,,,5,1.302,1,,,,,,-0.360369297,-0.393957723,1,0,0,1.3024,Obsidian_rect,15,0,15,0,1,
652d8a4cd08c6435db58fd9b,SCN,2024-06-20_15h27.58.864,LearnStrategy,2023.2.3,MacIntel,63.29113924,2,1,1,0.403337131,-0.402922092,1,0,0,4.1651,Pegmatite_09,6,09,1,7,4.165,-0.085646701,-0.415981852,1,0,0,5.8767,Pegmatite_rect,6,5.877,1,0,0,0,0,1,,,,,,,,,,,,,
652d8a4cd08c6435db58fd9b,SCN,2024-06-20_15h27.58.864,LearnStrategy,2023.2.3,MacIntel,63.29113924,2,1,2,-0.066109551,0.072668559,1,0,0,1.3783,Pegmatite_13,6,13,4,4,1.378,0.37933119,-0.245481635,1,0,0,3.9226,Gabbro_rect,4,3.923,0,1,0,1,0,1,,,,,,,,,,,,,
652d8a4cd08c6435db58fd9b,SCN,2024-06-20_15h27.58.864,LearnStrategy,2023.2.3,MacIntel,63.29113924,2,1,3,-0.374675564,-0.12739468,1,0,0,1.8114,Gabbro_09,4,09,3,2,1.811,-0.129910007,-0.230657959,1,0,0,1.816,Basalt_rect,2,1.816,0,2,0,2,0,1,,,,,,,,,,,,,
652d8a4cd08c6435db58fd9b,SCN,2024-06-20_15h27.58.864,LearnStrategy,2023.2.3,MacIntel,63.29113924,2,1,4,0.100325046,-0.402486098,1,0,0,1.4658,Andesite_01,1,01,1,5,1.466,0.108403524,-0.266956177,1,0,0,1.2151,Diorite_rect,3,1.215,0,3,0,3,0,1,,,,,,,,,,,,,
652d8a4cd08c6435db58fd9b,SCN,2024-06-20_15h27.58.864,LearnStrategy,2023.2.3,MacIntel,63.29113924,2,1,5,-0.221414524,-0.405149333,1,0,0,1.9635,Gabbro_01,4,01,1,3,1.964,0.115116306,-0.415457221,1,0,0,2.7654,Peridotite_rect,7,2.765,0,4,0,4,0,1,,,,,,,,,,,,,
652d8a4cd08c6435db58fd9b,SCN,2024-06-20_15h27.58.864,LearnStrategy,2023.2.3,MacIntel,63.29113924,2,1,6,-0.348581034,0.079695401,1,0,0,3.6989,Pegmatite_16,6,16,4,2,3.699,0.142537299,-0.408163249,1,0,0,2.6212,Peridotite_rect,7,2.621,0,5,0,5,0,1,,,,,,,,,,,,,
652d8a4cd08c6435db58fd9b,SCN,2024-06-20_15h27.58.864,LearnStrategy,2023.2.3,MacIntel,63.29113924,2,1,7,0.083236559,0.425640615,1,0,0,1.1331,Diorite_02,3,02,6,5,1.133,-0.372859226,-0.267918905,1,0,0,2.0376,Andesite_rect,1,2.038,0,6,0,6,0,1,,,,,,,,,,,,,
652d8a4cd08c6435db58fd9b,SCN,2024-06-20_15h27.58.864,LearnStrategy,2023.2.3,MacIntel,63.29113924,2,1,8,-0.542003377,0.375292884,1,0,0,2.0475,Pegmatite_07,6,07,6,1,2.048,-0.072659098,-0.407138672,1,0,0,3.6641,Pegmatite_rect,6,3.664,1,7,0,7,0,1,,,,,,,,,,,,,
652d8a4cd08c6435db58fd9b,SCN,2024-06-20_15h27.58.864,LearnStrategy,2023.2.3,MacIntel,63.29113924,2,1,9,0.39202379,-0.282196994,1,0,0,2.1979,Andesite_06,1,06,2,7,2.198,0.213078817,-0.252360026,1,0,0,6.2209,Diorite_rect,3,6.221,0,8,0,8,0,1,,,,,,,,,,,,,
652d8a4cd08c6435db58fd9b,SCN,2024-06-20_15h27.58.864,LearnStrategy,2023.2.3,MacIntel,63.29113924,2,1,10,0.264857652,-0.45548584,1,0,0,1.3954,Pumice_13,8,13,1,6,1.395,0.344765761,-0.391222331,1,0,0,0.9832,Pumice_rect,8,0.983,1,9,0,9,0,1,,,,,,,,,,,,,
652d8a4cd08c6435db58fd9b,SCN,2024-06-20_15h27.58.864,LearnStrategy,2023.2.3,MacIntel,63.29113924,2,1,11,0.432542046,-0.297524685,1,0,0,0.7833,Andesite_06,1,06,2,7,0.783,-0.297092556,-0.240239665,1,0,0,2.2854,Andesite_rect,1,2.285,1,10,0,10,0,1,,,,,,,,,,,,,
652d8a4cd08c6435db58fd9b,SCN,2024-06-20_15h27.58.864,LearnStrategy,2023.2.3,MacIntel,63.29113924,2,1,12,0.071681315,-0.112543674,1,0,0,0.6684,Basalt_04,2,04,3,5,0.668,-0.364136251,-0.417065498,1,0,0,2.55,Obsidian_rect,5,2.55,0,11,0,11,0,1,,,,,,,,,,,,,
652d8a4cd08c6435db58fd9b,SCN,2024-06-20_15h27.58.864,LearnStrategy,2023.2.3,MacIntel,63.29113924,2,1,13,0.388460015,0.101877035,1,0,0,5.03,Peridotite_02,7,02,4,7,5.03,0.154675157,-0.248077664,1,0,0,1.8429,Diorite_rect,3,1.843,0,12,0,12,0,1,,,,,,,,,,,,,
652d8a4cd08c6435db58fd9b,SCN,2024-06-20_15h27.58.864,LearnStrategy,2023.2.3,MacIntel,63.29113924,2,1,14,0.530496284,-0.262143351,1,0,0,1.4132,Gabbro_05,4,05,2,8,1.413,-0.424853448,-0.250501709,1,0,0,0.8948,Andesite_rect,1,0.895,0,13,0,13,0,1,,,,,,,,,,,,,
652d8a4cd08c6435db58fd9b,SCN,2024-06-20_15h27.58.864,LearnStrategy,2023.2.3,MacIntel,63.29113924,2,1,15,-0.547340698,0.238564996,1,0,0,1.5295,Gabbro_14,4,14,5,1,1.529,0.386315918,-0.259795668,1,0,0,2.0156,Gabbro_rect,4,2.016,1,14,0,14,0,1,,,,,,,,,,,,,
652d8a4cd08c6435db58fd9b,SCN,2024-06-20_15h27.58.864,LearnStrategy,2023.2.3,MacIntel,63.29113924,2,1,16,-0.08852044,0.089807536,1,0,0,0.8969,Pegmatite_13,6,13,4,4,0.897,-0.366003554,-0.257204725,1,0,0,4.0703,Andesite_rect,1,4.07,0,15,0,15,0,1,,,,,,,,,,,,,
652d8a4cd08c6435db58fd9b,SCN,2024-06-20_15h27.58.864,LearnStrategy,2023.2.3,MacIntel,63.29113924,2,2,1,,,,,,,,2,14,,,,,,,,,,,8,5.378,0,,,,,,0.364771186,-0.412514716,1,0,0,5.3776,Pumice_rect,0,0,0,0,1,
652d8a4cd08c6435db58fd9b,SCN,2024-06-20_15h27.58.864,LearnStrategy,2023.2.3,MacIntel,63.29113924,2,2,2,,,,,,,,7,12,,,,,,,,,,,4,27.188,0,,,,,,0.364811605,-0.257701077,1,0,0,27.1875,Gabbro_rect,1,0,1,0,1,
652d8a4cd08c6435db58fd9b,SCN,2024-06-20_15h27.58.864,LearnStrategy,2023.2.3,MacIntel,63.29113924,2,2,3,,,,,,,,6,12,,,,,,,,,,,6,11.385,1,,,,,,-0.140284831,-0.418972914,1,0,0,11.3852,Pegmatite_rect,2,0,2,0,1,
652d8a4cd08c6435db58fd9b,SCN,2024-06-20_15h27.58.864,LearnStrategy,2023.2.3,MacIntel,63.29113924,2,2,4,,,,,,,,6,15,,,,,,,,,,,6,7.142,1,,,,,,-0.052442017,-0.386906535,1,0,0,7.1416,Pegmatite_rect,3,0,3,0,1,
652d8a4cd08c6435db58fd9b,SCN,2024-06-20_15h27.58.864,LearnStrategy,2023.2.3,MacIntel,63.29113924,2,2,5,,,,,,,,5,08,,,,,,,,,,,5,2.33,1,,,,,,-0.389079522,-0.385333659,1,0,0,2.3304,Obsidian_rect,4,0,4,0,1,
652d8a4cd08c6435db58fd9b,SCN,2024-06-20_15h27.58.864,LearnStrategy,2023.2.3,MacIntel,63.29113924,2,2,6,,,,,,,,4,13,,,,,,,,,,,2,7.637,0,,,,,,-0.10478658,-0.27082723,1,0,0,7.637,Basalt_rect,5,0,5,0,1,
652d8a4cd08c6435db58fd9b,SCN,2024-06-20_15h27.58.864,LearnStrategy,2023.2.3,MacIntel,63.29113924,2,2,7,,,,,,,,3,12,,,,,,,,,,,1,7.874,0,,,,,,-0.383693509,-0.263447808,1,0,0,7.8738,Andesite_rect,6,0,6,0,1,
652d8a4cd08c6435db58fd9b,SCN,2024-06-20_15h27.58.864,LearnStrategy,2023.2.3,MacIntel,63.29113924,2,2,8,,,,,,,,1,16,,,,,,,,,,,4,3.65,0,,,,,,0.415437283,-0.260943332,1,0,0,3.6497,Gabbro_rect,7,0,7,0,1,
652d8a4cd08c6435db58fd9b,SCN,2024-06-20_15h27.58.864,LearnStrategy,2023.2.3,MacIntel,63.29113924,2,2,9,,,,,,,,8,06,,,,,,,,,,,8,1.105,1,,,,,,0.366364475,-0.41831231,1,0,0,1.1047,Pumice_rect,8,0,8,0,1,
652d8a4cd08c6435db58fd9b,SCN,2024-06-20_15h27.58.864,LearnStrategy,2023.2.3,MacIntel,63.29113924,2,2,10,,,,,,,,1,09,,,,,,,,,,,3,4.367,0,,,,,,0.147960612,-0.248993259,1,0,0,4.3668,Diorite_rect,9,0,9,0,1,
652d8a4cd08c6435db58fd9b,SCN,2024-06-20_15h27.58.864,LearnStrategy,2023.2.3,MacIntel,63.29113924,2,2,11,,,,,,,,5,16,,,,,,,,,,,5,1.04,1,,,,,,-0.382419976,-0.400616252,1,0,0,1.0399,Obsidian_rect,10,0,10,0,1,
652d8a4cd08c6435db58fd9b,SCN,2024-06-20_15h27.58.864,LearnStrategy,2023.2.3,MacIntel,63.29113924,2,2,12,,,,,,,,3,11,,,,,,,,,,,7,5.853,0,,,,,,0.152877808,-0.404755249,1,0,0,5.8526,Peridotite_rect,11,0,11,0,1,
652d8a4cd08c6435db58fd9b,SCN,2024-06-20_15h27.58.864,LearnStrategy,2023.2.3,MacIntel,63.29113924,2,2,13,,,,,,,,8,02,,,,,,,,,,,8,1.3,1,,,,,,0.365440131,-0.409476725,1,0,0,1.2999,Pumice_rect,12,0,12,0,1,
652d8a4cd08c6435db58fd9b,SCN,2024-06-20_15h27.58.864,LearnStrategy,2023.2.3,MacIntel,63.29113924,2,2,14,,,,,,,,7,08,,,,,,,,,,,6,10.032,0,,,,,,-0.09648641,-0.405879584,1,0,0,10.0325,Pegmatite_rect,13,0,13,0,1,
652d8a4cd08c6435db58fd9b,SCN,2024-06-20_15h27.58.864,LearnStrategy,2023.2.3,MacIntel,63.29113924,2,2,15,,,,,,,,2,12,,,,,,,,,,,8,1.613,0,,,,,,0.456377224,-0.39378696,1,0,0,1.6125,Pumice_rect,14,0,14,0,1,
652d8a4cd08c6435db58fd9b,SCN,2024-06-20_15h27.58.864,LearnStrategy,2023.2.3,MacIntel,63.29113924,2,2,16,,,,,,,,4,15,,,,,,,,,,,1,4.8,0,,,,,,-0.364057041,-0.251435683,1,0,0,4.8002,Andesite_rect,15,0,15,0,1,
652d8a4cd08c6435db58fd9b,SCN,2024-06-20_15h27.58.864,LearnStrategy,2023.2.3,MacIntel,63.29113924,3,1,1,-0.061803792,-0.073078478,1,0,0,1.5633,Diorite_08,3,08,3,4,1.563,0.112853054,-0.240639038,1,0,0,1.4343,Diorite_rect,3,1.434,1,0,0,0,0,1,,,,,,,,,,,,,
652d8a4cd08c6435db58fd9b,SCN,2024-06-20_15h27.58.864,LearnStrategy,2023.2.3,MacIntel,63.29113924,3,1,2,-0.19923584,-0.110059679,1,0,0,1.8816,Pumice_10,8,10,3,3,1.882,-0.165099759,-0.247514784,1,0,0,1.2325,Basalt_rect,2,1.232,0,1,0,1,0,1,,,,,,,,,,,,,
652d8a4cd08c6435db58fd9b,SCN,2024-06-20_15h27.58.864,LearnStrategy,2023.2.3,MacIntel,63.29113924,3,1,3,0.244959581,-0.089551324,1,0,0,0.6333,Obsidian_06,5,06,3,6,0.633,-0.397943556,-0.384369236,1,0,0,2.9828,Obsidian_rect,5,2.983,1,2,0,2,0,1,,,,,,,,,,,,,
652d8a4cd08c6435db58fd9b,SCN,2024-06-20_15h27.58.864,LearnStrategy,2023.2.3,MacIntel,63.29113924,3,1,4,0.56221951,0.10326928,1,0,0,1.6142,Peridotite_16,7,16,4,8,1.614,0.13036282,-0.253031345,1,0,0,2.4864,Diorite_rect,3,2.486,0,3,0,3,0,1,,,,,,,,,,,,,
652d8a4cd08c6435db58fd9b,SCN,2024-06-20_15h27.58.864,LearnStrategy,2023.2.3,MacIntel,63.29113924,3,1,5,0.41974962,-0.410128309,1,0,0,0.9317,Pegmatite_09,6,09,1,7,0.932,-0.355418905,-0.251732246,1,0,0,1.5446,Andesite_rect,1,1.545,0,4,0,4,0,1,,,,,,,,,,,,,
652d8a4cd08c6435db58fd9b,SCN,2024-06-20_15h27.58.864,LearnStrategy,2023.2.3,MacIntel,63.29113924,3,1,6,-0.20879381,-0.102839016,1,0,0,1.3816,Pumice_10,8,10,3,3,1.382,0.366365153,-0.397100966,1,0,0,1.2954,Pumice_rect,8,1.295,1,5,0,5,0,1,,,,,,,,,,,,,
652d8a4cd08c6435db58fd9b,SCN,2024-06-20_15h27.58.864,LearnStrategy,2023.2.3,MacIntel,63.29113924,3,1,7,0.264201728,0.256459198,1,0,0,1.3304,Andesite_05,1,05,5,6,1.33,0.107602132,-0.247860175,1,0,0,6.3441,Diorite_rect,3,6.344,0,6,0,6,0,1,,,,,,,,,,,,,
652d8a4cd08c6435db58fd9b,SCN,2024-06-20_15h27.58.864,LearnStrategy,2023.2.3,MacIntel,63.29113924,3,1,8,-0.235290493,0.219146101,1,0,0,1.9151,Basalt_09,2,09,5,3,1.915,-0.101185099,-0.240661553,1,0,0,1.2191,Basalt_rect,2,1.219,1,7,0,7,0,1,,,,,,,,,,,,,
652d8a4cd08c6435db58fd9b,SCN,2024-06-20_15h27.58.864,LearnStrategy,2023.2.3,MacIntel,63.29113924,3,1,9,0.222071601,-0.261015557,1,0,0,1.9845,Peridotite_04,7,04,2,6,1.985,-0.153942057,-0.408568793,1,0,0,1.8653,Pegmatite_rect,6,1.865,0,8,0,8,0,1,,,,,,,,,,,,,
652d8a4cd08c6435db58fd9b,SCN,2024-06-20_15h27.58.864,LearnStrategy,2023.2.3,MacIntel,63.29113924,3,1,10,-0.375039673,-0.102443102,1,0,0,2.7326,Gabbro_09,4,09,3,2,2.733,-0.379156765,-0.243484836,1,0,0,2.1049,Andesite_rect,1,2.105,0,9,0,9,0,1,,,,,,,,,,,,,
652d8a4cd08c6435db58fd9b,SCN,2024-06-20_15h27.58.864,LearnStrategy,2023.2.3,MacIntel,63.29113924,3,1,11,0.574314236,-0.112603692,1,0,0,1.3654,Diorite_07,3,07,3,8,1.365,0.126867201,-0.386202393,1,0,0,1.5143,Peridotite_rect,7,1.514,0,10,0,10,0,1,,,,,,,,,,,,,
652d8a4cd08c6435db58fd9b,SCN,2024-06-20_15h27.58.864,LearnStrategy,2023.2.3,MacIntel,63.29113924,3,1,12,0.26211141,0.272616458,1,0,0,1.931,Andesite_05,1,05,5,6,1.931,0.08290351,-0.404583198,1,0,0,2.3931,Peridotite_rect,7,2.393,0,11,0,11,0,1,,,,,,,,,,,,,
652d8a4cd08c6435db58fd9b,SCN,2024-06-20_15h27.58.864,LearnStrategy,2023.2.3,MacIntel,63.29113924,3,1,13,-0.097073296,0.089143405,1,0,0,1.2665,Pegmatite_13,6,13,4,4,1.266,-0.202762451,-0.392172309,1,0,0,1.2792,Pegmatite_rect,6,1.279,1,12,0,12,0,1,,,,,,,,,,,,,
652d8a4cd08c6435db58fd9b,SCN,2024-06-20_15h27.58.864,LearnStrategy,2023.2.3,MacIntel,63.29113924,3,1,14,-0.201197917,0.383211941,1,0,0,1.4994,Basalt_02,2,02,6,3,1.499,-0.127306586,-0.246783447,1,0,0,3.2481,Basalt_rect,2,3.248,1,13,0,13,0,1,,,,,,,,,,,,,
652d8a4cd08c6435db58fd9b,SCN,2024-06-20_15h27.58.864,LearnStrategy,2023.2.3,MacIntel,63.29113924,3,1,15,0.236370511,-0.42842258,1,0,0,1.0329,Pumice_13,8,13,1,6,1.033,0.366982015,-0.39223131,1,0,0,0.9055,Pumice_rect,8,0.905,1,14,0,14,0,1,,,,,,,,,,,,,
652d8a4cd08c6435db58fd9b,SCN,2024-06-20_15h27.58.864,LearnStrategy,2023.2.3,MacIntel,63.29113924,3,1,16,0.542577176,-0.414825643,1,0,0,1.4803,Diorite_10,3,10,1,8,1.48,0.361393094,-0.25226298,1,0,0,1.3366,Gabbro_rect,4,1.337,0,15,0,15,0,1,,,,,,,,,,,,,
652d8a4cd08c6435db58fd9b,SCN,2024-06-20_15h27.58.864,LearnStrategy,2023.2.3,MacIntel,63.29113924,3,2,1,,,,,,,,8,08,,,,,,,,,,,8,5.045,1,,,,,,0.391796332,-0.413703071,1,0,0,5.0448,Pumice_rect,0,0,0,0,1,
652d8a4cd08c6435db58fd9b,SCN,2024-06-20_15h27.58.864,LearnStrategy,2023.2.3,MacIntel,63.29113924,3,2,2,,,,,,,,8,16,,,,,,,,,,,8,0.972,1,,,,,,0.390274116,-0.411453586,1,0,0,0.9718,Pumice_rect,1,0,1,0,1,
652d8a4cd08c6435db58fd9b,SCN,2024-06-20_15h27.58.864,LearnStrategy,2023.2.3,MacIntel,63.29113924,3,2,3,,,,,,,,7,13,,,,,,,,,,,3,10.47,0,,,,,,0.119373576,-0.246390584,1,0,0,10.4703,Diorite_rect,2,0,2,0,1,
652d8a4cd08c6435db58fd9b,SCN,2024-06-20_15h27.58.864,LearnStrategy,2023.2.3,MacIntel,63.29113924,3,2,4,,,,,,,,4,10,,,,,,,,,,,4,3.694,1,,,,,,0.359146864,-0.233179253,1,0,0,3.6945,Gabbro_rect,3,0,3,0,1,
652d8a4cd08c6435db58fd9b,SCN,2024-06-20_15h27.58.864,LearnStrategy,2023.2.3,MacIntel,63.29113924,3,2,5,,,,,,,,4,11,,,,,,,,,,,2,1.972,0,,,,,,-0.085432332,-0.252516208,1,0,0,1.9723,Basalt_rect,4,0,4,0,1,
652d8a4cd08c6435db58fd9b,SCN,2024-06-20_15h27.58.864,LearnStrategy,2023.2.3,MacIntel,63.29113924,3,2,6,,,,,,,,2,01,,,,,,,,,,,2,10.851,1,,,,,,-0.091061401,-0.265439046,1,0,0,10.8511,Basalt_rect,5,0,5,0,1,
652d8a4cd08c6435db58fd9b,SCN,2024-06-20_15h27.58.864,LearnStrategy,2023.2.3,MacIntel,63.29113924,3,2,7,,,,,,,,1,02,,,,,,,,,,,4,5.95,0,,,,,,0.411758084,-0.247116631,1,0,0,5.9501,Gabbro_rect,6,0,6,0,1,
652d8a4cd08c6435db58fd9b,SCN,2024-06-20_15h27.58.864,LearnStrategy,2023.2.3,MacIntel,63.29113924,3,2,8,,,,,,,,3,15,,,,,,,,,,,1,7.197,0,,,,,,-0.392181498,-0.248987698,1,0,0,7.1968,Andesite_rect,7,0,7,0,1,
652d8a4cd08c6435db58fd9b,SCN,2024-06-20_15h27.58.864,LearnStrategy,2023.2.3,MacIntel,63.29113924,3,2,9,,,,,,,,5,02,,,,,,,,,,,5,0.952,1,,,,,,-0.360246887,-0.401026272,1,0,0,0.9515,Obsidian_rect,8,0,8,0,1,
652d8a4cd08c6435db58fd9b,SCN,2024-06-20_15h27.58.864,LearnStrategy,2023.2.3,MacIntel,63.29113924,3,2,10,,,,,,,,1,10,,,,,,,,,,,3,10.262,0,,,,,,0.101022678,-0.242125041,1,0,0,10.2619,Diorite_rect,9,0,9,0,1,
652d8a4cd08c6435db58fd9b,SCN,2024-06-20_15h27.58.864,LearnStrategy,2023.2.3,MacIntel,63.29113924,3,2,11,,,,,,,,6,10,,,,,,,,,,,6,13.098,1,,,,,,-0.128784993,-0.394040188,1,0,0,13.0976,Pegmatite_rect,10,0,10,0,1,
652d8a4cd08c6435db58fd9b,SCN,2024-06-20_15h27.58.864,LearnStrategy,2023.2.3,MacIntel,63.29113924,3,2,12,,,,,,,,7,06,,,,,,,,,,,7,5.938,1,,,,,,0.129663154,-0.413856676,1,0,0,5.9377,Peridotite_rect,11,0,11,0,1,
652d8a4cd08c6435db58fd9b,SCN,2024-06-20_15h27.58.864,LearnStrategy,2023.2.3,MacIntel,63.29113924,3,2,13,,,,,,,,5,05,,,,,,,,,,,5,2.117,1,,,,,,-0.402432081,-0.392802395,1,0,0,2.1173,Obsidian_rect,12,0,12,0,1,
652d8a4cd08c6435db58fd9b,SCN,2024-06-20_15h27.58.864,LearnStrategy,2023.2.3,MacIntel,63.29113924,3,2,14,,,,,,,,2,05,,,,,,,,,,,2,1.499,1,,,,,,-0.099269002,-0.257375149,1,0,0,1.4994,Basalt_rect,13,0,13,0,1,
652d8a4cd08c6435db58fd9b,SCN,2024-06-20_15h27.58.864,LearnStrategy,2023.2.3,MacIntel,63.29113924,3,2,15,,,,,,,,6,03,,,,,,,,,,,6,2.451,1,,,,,,-0.136175334,-0.397776421,1,0,0,2.4509,Pegmatite_rect,14,0,14,0,1,
652d8a4cd08c6435db58fd9b,SCN,2024-06-20_15h27.58.864,LearnStrategy,2023.2.3,MacIntel,63.29113924,3,2,16,,,,,,,,3,06,,,,,,,,,,,1,2.933,0,,,,,,-0.368275011,-0.270144314,1,0,0,2.9327,Andesite_rect,15,0,15,0,1,
652d8a4cd08c6435db58fd9b,SCN,2024-06-20_15h27.58.864,LearnStrategy,2023.2.3,MacIntel,63.29113924,4,1,1,-0.437906494,-0.123094822,1,0,0,6.9303,Gabbro_09,4,09,3,2,6.93,-0.435140652,-0.242043389,1,0,0,1.2655,Andesite_rect,1,1.265,0,0,0,0,0,1,,,,,,,,,,,,,
652d8a4cd08c6435db58fd9b,SCN,2024-06-20_15h27.58.864,LearnStrategy,2023.2.3,MacIntel,63.29113924,4,1,2,-0.534929894,0.408869714,1,0,0,2.2284,Pegmatite_07,6,07,6,1,2.228,-0.140926514,-0.414075385,1,0,0,2.0712,Pegmatite_rect,6,2.071,1,1,0,1,0,1,,,,,,,,,,,,,
652d8a4cd08c6435db58fd9b,SCN,2024-06-20_15h27.58.864,LearnStrategy,2023.2.3,MacIntel,63.29113924,4,1,3,0.069054159,0.366150021,1,0,0,1.3994,Diorite_02,3,02,6,5,1.399,-0.366788771,-0.261713392,1,0,0,2.1662,Andesite_rect,1,2.166,0,2,0,2,0,1,,,,,,,,,,,,,
652d8a4cd08c6435db58fd9b,SCN,2024-06-20_15h27.58.864,LearnStrategy,2023.2.3,MacIntel,63.29113924,4,1,4,0.549478488,0.068804084,1,0,0,0.9281,Peridotite_16,7,16,4,8,0.928,-0.150957031,-0.403130018,1,0,0,1.9016,Pegmatite_rect,6,1.902,0,3,0,3,0,1,,,,,,,,,,,,,
652d8a4cd08c6435db58fd9b,SCN,2024-06-20_15h27.58.864,LearnStrategy,2023.2.3,MacIntel,63.29113924,4,1,5,-0.357538995,-0.433004422,1,0,0,3.515,Peridotite_07,7,07,1,2,3.515,-0.41644121,-0.258346693,1,0,0,1.7502,Andesite_rect,1,1.75,0,4,0,4,0,1,,,,,,,,,,,,,
652d8a4cd08c6435db58fd9b,SCN,2024-06-20_15h27.58.864,LearnStrategy,2023.2.3,MacIntel,63.29113924,4,1,6,-0.553324924,-0.099901733,1,0,0,0.963,Pumice_14,8,14,3,1,0.963,0.369997287,-0.396775174,1,0,0,1.0504,Pumice_rect,8,1.05,1,5,0,5,0,1,,,,,,,,,,,,,
652d8a4cd08c6435db58fd9b,SCN,2024-06-20_15h27.58.864,LearnStrategy,2023.2.3,MacIntel,63.29113924,4,1,7,0.374851481,0.056670634,1,0,0,1.1148,Peridotite_02,7,02,4,7,1.115,-0.167887438,-0.406215007,1,0,0,2.9186,Pegmatite_rect,6,2.919,0,6,0,6,0,1,,,,,,,,,,,,,
652d8a4cd08c6435db58fd9b,SCN,2024-06-20_15h27.58.864,LearnStrategy,2023.2.3,MacIntel,63.29113924,4,1,8,0.392508952,0.08198544,1,0,0,2.33,Peridotite_02,7,02,4,7,2.33,-0.383670417,-0.255961304,1,0,0,1.2239,Andesite_rect,1,1.224,0,7,0,7,0,1,,,,,,,,,,,,,
652d8a4cd08c6435db58fd9b,SCN,2024-06-20_15h27.58.864,LearnStrategy,2023.2.3,MacIntel,63.29113924,4,1,9,-0.056524929,0.059689704,1,0,0,0.7304,Pegmatite_13,6,13,4,4,0.73,-0.359615987,-0.237408312,1,0,0,1.1034,Andesite_rect,1,1.103,0,8,0,8,0,1,,,,,,,,,,,,,
652d8a4cd08c6435db58fd9b,SCN,2024-06-20_15h27.58.864,LearnStrategy,2023.2.3,MacIntel,63.29113924,4,1,10,-0.061747911,-0.258227946,1,0,0,1.114,Basalt_16,2,16,2,4,1.114,-0.09879225,-0.26504069,1,0,0,1.0795,Basalt_rect,2,1.079,1,9,0,9,0,1,,,,,,,,,,,,,
652d8a4cd08c6435db58fd9b,SCN,2024-06-20_15h27.58.864,LearnStrategy,2023.2.3,MacIntel,63.29113924,4,1,11,-0.215459459,-0.406824341,1,0,0,0.9137,Gabbro_01,4,01,1,3,0.914,0.344597846,-0.268168606,1,0,0,2.6064,Gabbro_rect,4,2.606,1,10,0,10,0,1,,,,,,,,,,,,,
652d8a4cd08c6435db58fd9b,SCN,2024-06-20_15h27.58.864,LearnStrategy,2023.2.3,MacIntel,63.29113924,4,1,12,0.091130642,0.078243306,1,0,0,1.3138,Peridotite_10,7,10,4,5,1.314,-0.149482829,-0.398899197,1,0,0,1.37,Pegmatite_rect,6,1.37,0,11,0,11,0,1,,,,,,,,,,,,,
652d8a4cd08c6435db58fd9b,SCN,2024-06-20_15h27.58.864,LearnStrategy,2023.2.3,MacIntel,63.29113924,4,1,13,0.242576497,0.410920868,1,0,0,1.2648,Diorite_13,3,13,6,6,1.265,-0.402361857,-0.270635647,1,0,0,1.9533,Andesite_rect,1,1.953,0,12,0,12,0,1,,,,,,,,,,,,,
652d8a4cd08c6435db58fd9b,SCN,2024-06-20_15h27.58.864,LearnStrategy,2023.2.3,MacIntel,63.29113924,4,1,14,0.355863308,0.090419176,1,0,0,1.4475,Peridotite_02,7,02,4,7,1.447,-0.384546136,-0.252767537,1,0,0,1.3835,Andesite_rect,1,1.384,0,13,0,13,0,1,,,,,,,,,,,,,
652d8a4cd08c6435db58fd9b,SCN,2024-06-20_15h27.58.864,LearnStrategy,2023.2.3,MacIntel,63.29113924,4,1,15,0.517735596,0.411812541,1,0,0,1.0139,Basalt_11,2,11,6,8,1.014,0.399427762,-0.387346124,1,0,0,1.2843,Pumice_rect,8,1.284,0,14,0,14,0,1,,,,,,,,,,,,,
652d8a4cd08c6435db58fd9b,SCN,2024-06-20_15h27.58.864,LearnStrategy,2023.2.3,MacIntel,63.29113924,4,1,16,-0.385896505,0.379029066,1,0,0,9.8648,Obsidian_10,5,10,6,2,9.865,-0.381621399,-0.390627916,1,0,0,0.9388,Obsidian_rect,5,0.939,1,15,0,15,0,1,,,,,,,,,,,,,
652d8a4cd08c6435db58fd9b,SCN,2024-06-20_15h27.58.864,LearnStrategy,2023.2.3,MacIntel,63.29113924,4,2,1,,,,,,,,1,02,,,,,,,,,,,3,7.396,0,,,,,,0.140110338,-0.2478734,1,0,0,7.3962,Diorite_rect,0,0,0,0,1,
652d8a4cd08c6435db58fd9b,SCN,2024-06-20_15h27.58.864,LearnStrategy,2023.2.3,MacIntel,63.29113924,4,2,2,,,,,,,,8,09,,,,,,,,,,,8,1.211,1,,,,,,0.303498739,-0.399847887,1,0,0,1.2109,Pumice_rect,1,0,1,0,1,
652d8a4cd08c6435db58fd9b,SCN,2024-06-20_15h27.58.864,LearnStrategy,2023.2.3,MacIntel,63.29113924,4,2,3,,,,,,,,2,14,,,,,,,,,,,8,14.904,0,,,,,,0.385034722,-0.400814752,1,0,0,14.9038,Pumice_rect,2,0,2,0,1,
652d8a4cd08c6435db58fd9b,SCN,2024-06-20_15h27.58.864,LearnStrategy,2023.2.3,MacIntel,63.29113924,4,2,4,,,,,,,,5,12,,,,,,,,,,,5,1.571,1,,,,,,-0.384361267,-0.399998372,1,0,0,1.5711,Obsidian_rect,3,0,3,0,1,
652d8a4cd08c6435db58fd9b,SCN,2024-06-20_15h27.58.864,LearnStrategy,2023.2.3,MacIntel,63.29113924,4,2,5,,,,,,,,5,14,,,,,,,,,,,5,1.15,1,,,,,,-0.384056803,-0.397934909,1,0,0,1.1498,Obsidian_rect,4,0,4,0,1,
652d8a4cd08c6435db58fd9b,SCN,2024-06-20_15h27.58.864,LearnStrategy,2023.2.3,MacIntel,63.29113924,4,2,6,,,,,,,,6,12,,,,,,,,,,,7,15.331,0,,,,,,0.115197008,-0.410951063,1,0,0,15.3305,Peridotite_rect,5,0,5,0,1,
652d8a4cd08c6435db58fd9b,SCN,2024-06-20_15h27.58.864,LearnStrategy,2023.2.3,MacIntel,63.29113924,4,2,7,,,,,,,,1,14,,,,,,,,,,,7,27.463,0,,,,,,0.100728421,-0.401788127,1,0,0,27.4631,Peridotite_rect,6,0,6,0,1,
652d8a4cd08c6435db58fd9b,SCN,2024-06-20_15h27.58.864,LearnStrategy,2023.2.3,MacIntel,63.29113924,4,2,8,,,,,,,,3,09,,,,,,,,,,,1,17.457,0,,,,,,-0.363623352,-0.262607015,1,0,0,17.4569,Andesite_rect,7,0,7,0,1,
652d8a4cd08c6435db58fd9b,SCN,2024-06-20_15h27.58.864,LearnStrategy,2023.2.3,MacIntel,63.29113924,4,2,9,,,,,,,,8,02,,,,,,,,,,,8,1.082,1,,,,,,0.403872342,-0.4012913,1,0,0,1.082,Pumice_rect,8,0,8,0,1,
652d8a4cd08c6435db58fd9b,SCN,2024-06-20_15h27.58.864,LearnStrategy,2023.2.3,MacIntel,63.29113924,4,2,10,,,,,,,,2,12,,,,,,,,,,,8,1.967,0,,,,,,0.403567844,-0.406162448,1,0,0,1.9672,Pumice_rect,9,0,9,0,1,
652d8a4cd08c6435db58fd9b,SCN,2024-06-20_15h27.58.864,LearnStrategy,2023.2.3,MacIntel,63.29113924,4,2,11,,,,,,,,3,16,,,,,,,,,,,1,17.807,0,,,,,,-0.39032742,-0.256494073,1,0,0,17.8066,Andesite_rect,10,0,10,0,1,
652d8a4cd08c6435db58fd9b,SCN,2024-06-20_15h27.58.864,LearnStrategy,2023.2.3,MacIntel,63.29113924,4,2,12,,,,,,,,7,08,,,,,,,,,,,7,17.351,1,,,,,,0.194841783,-0.41742391,1,0,0,17.3512,Peridotite_rect,11,0,11,0,1,
652d8a4cd08c6435db58fd9b,SCN,2024-06-20_15h27.58.864,LearnStrategy,2023.2.3,MacIntel,63.29113924,4,2,13,,,,,,,,6,03,,,,,,,,,,,7,27.408,0,,,,,,0.080942044,-0.407282444,1,0,0,27.4075,Peridotite_rect,12,0,12,0,1,
652d8a4cd08c6435db58fd9b,SCN,2024-06-20_15h27.58.864,LearnStrategy,2023.2.3,MacIntel,63.29113924,4,2,14,,,,,,,,4,10,,,,,,,,,,,4,17.029,1,,,,,,0.363717719,-0.255074666,1,0,0,17.0287,Gabbro_rect,13,0,13,0,1,
652d8a4cd08c6435db58fd9b,SCN,2024-06-20_15h27.58.864,LearnStrategy,2023.2.3,MacIntel,63.29113924,4,2,15,,,,,,,,7,12,,,,,,,,,,,3,2.4,0,,,,,,0.177264404,-0.246933322,1,0,0,2.4,Diorite_rect,14,0,14,0,1,
652d8a4cd08c6435db58fd9b,SCN,2024-06-20_15h27.58.864,LearnStrategy,2023.2.3,MacIntel,63.29113924,4,2,16,,,,,,,,4,13,,,,,,,,,,,4,61.171,1,,,,,,0.509608154,-0.246627875,1,0,0,61.1713,Gabbro_rect,15,0,15,0,1,
652d8a4cd08c6435db58fd9b,SCN,2024-06-20_15h27.58.864,LearnStrategy,2023.2.3,MacIntel,63.29113924,5,1,1,-0.083580051,0.24608451,1,0,0,3.0515,Obsidian_07,5,07,5,4,3.052,-0.37256897,-0.399326782,1,0,0,2.7973,Obsidian_rect,5,2.797,1,0,0,0,0,1,,,,,,,,,,,,,
652d8a4cd08c6435db58fd9b,SCN,2024-06-20_15h27.58.864,LearnStrategy,2023.2.3,MacIntel,63.29113924,5,1,2,0.567200792,0.235375807,1,0,0,2.2127,Andesite_03,1,03,5,8,2.213,-0.052158271,-0.249200914,1,0,0,1.0022,Basalt_rect,2,1.002,0,1,0,1,0,1,,,,,,,,,,,,,
652d8a4cd08c6435db58fd9b,SCN,2024-06-20_15h27.58.864,LearnStrategy,2023.2.3,MacIntel,63.29113924,5,1,3,0.553420275,-0.076776869,1,0,0,2.9318,Diorite_07,3,07,3,8,2.932,-0.312472805,-0.251737942,1,0,0,1.1251,Andesite_rect,1,1.125,0,2,0,2,0,1,,,,,,,,,,,,,
652d8a4cd08c6435db58fd9b,SCN,2024-06-20_15h27.58.864,LearnStrategy,2023.2.3,MacIntel,63.29113924,5,1,4,-0.39562049,-0.11332194,1,0,0,1.1979,Gabbro_09,4,09,3,2,1.198,0.36332506,-0.262858209,1,0,0,1.4844,Gabbro_rect,4,1.484,1,3,0,3,0,1,,,,,,,,,,,,,
652d8a4cd08c6435db58fd9b,SCN,2024-06-20_15h27.58.864,LearnStrategy,2023.2.3,MacIntel,63.29113924,5,1,5,-0.107711792,-0.27582506,1,0,0,0.4973,Basalt_16,2,16,2,4,0.497,-0.106483832,-0.242624376,1,0,0,0.9842,Basalt_rect,2,0.984,1,4,0,4,0,1,,,,,,,,,,,,,
652d8a4cd08c6435db58fd9b,SCN,2024-06-20_15h27.58.864,LearnStrategy,2023.2.3,MacIntel,63.29113924,5,1,6,0.083158027,-0.142159153,1,0,0,1.1822,Basalt_04,2,04,3,5,1.182,-0.169925673,-0.27152025,1,0,0,1.3038,Basalt_rect,2,1.304,1,5,0,5,0,1,,,,,,,,,,,,,
652d8a4cd08c6435db58fd9b,SCN,2024-06-20_15h27.58.864,LearnStrategy,2023.2.3,MacIntel,63.29113924,5,1,7,0.054369439,0.089322611,1,0,0,1.1134,Peridotite_10,7,10,4,5,1.113,-0.109813436,-0.38885376,1,0,0,1.4002,Pegmatite_rect,6,1.4,0,6,0,6,0,1,,,,,,,,,,,,,
652d8a4cd08c6435db58fd9b,SCN,2024-06-20_15h27.58.864,LearnStrategy,2023.2.3,MacIntel,63.29113924,5,1,8,-0.508142192,0.084522332,1,0,0,1.6623,Pegmatite_06,6,06,4,1,1.662,-0.347937113,-0.238978746,1,0,0,0.937,Andesite_rect,1,0.937,0,7,0,7,0,1,,,,,,,,,,,,,
652d8a4cd08c6435db58fd9b,SCN,2024-06-20_15h27.58.864,LearnStrategy,2023.2.3,MacIntel,63.29113924,5,1,9,-0.515120171,0.255674472,1,0,0,2.5991,Gabbro_14,4,14,5,1,2.599,0.224102783,-0.248052029,1,0,0,1.4513,Diorite_rect,3,1.451,0,8,0,8,0,1,,,,,,,,,,,,,
652d8a4cd08c6435db58fd9b,SCN,2024-06-20_15h27.58.864,LearnStrategy,2023.2.3,MacIntel,63.29113924,5,1,10,0.257010362,0.444884966,1,0,0,1.016,Diorite_13,3,13,6,6,1.016,-0.352779846,-0.257934502,1,0,0,1.2522,Andesite_rect,1,1.252,0,9,0,9,0,1,,,,,,,,,,,,,
652d8a4cd08c6435db58fd9b,SCN,2024-06-20_15h27.58.864,LearnStrategy,2023.2.3,MacIntel,63.29113924,5,1,11,0.431264106,-0.263206651,1,0,0,2.165,Andesite_06,1,06,2,7,2.165,0.205656264,-0.240022922,1,0,0,0.9004,Diorite_rect,3,0.9,0,10,0,10,0,1,,,,,,,,,,,,,
652d8a4cd08c6435db58fd9b,SCN,2024-06-20_15h27.58.864,LearnStrategy,2023.2.3,MacIntel,63.29113924,5,1,12,0.087230292,-0.385362413,1,0,0,1.3974,Andesite_01,1,01,1,5,1.397,-0.3865723,-0.247747531,1,0,0,0.9134,Andesite_rect,1,0.913,1,11,0,11,0,1,,,,,,,,,,,,,
652d8a4cd08c6435db58fd9b,SCN,2024-06-20_15h27.58.864,LearnStrategy,2023.2.3,MacIntel,63.29113924,5,1,13,0.084577365,-0.127166206,1,0,0,1.0128,Basalt_04,2,04,3,5,1.013,-0.125173204,-0.270444268,1,0,0,0.7011,Basalt_rect,2,0.701,1,12,0,12,0,1,,,,,,,,,,,,,
652d8a4cd08c6435db58fd9b,SCN,2024-06-20_15h27.58.864,LearnStrategy,2023.2.3,MacIntel,63.29113924,5,1,14,0.404802653,-0.099783054,1,0,0,0.8488,Basalt_10,2,10,3,7,0.849,-0.18050137,-0.249367811,1,0,0,0.7995,Basalt_rect,2,0.8,1,13,0,13,0,1,,,,,,,,,,,,,
652d8a4cd08c6435db58fd9b,SCN,2024-06-20_15h27.58.864,LearnStrategy,2023.2.3,MacIntel,63.29113924,5,1,15,0.409429118,0.072544963,1,0,0,1.7813,Peridotite_02,7,02,4,7,1.781,-0.097915107,-0.405350817,1,0,0,1.4689,Pegmatite_rect,6,1.469,0,14,0,14,0,1,,,,,,,,,,,,,
652d8a4cd08c6435db58fd9b,SCN,2024-06-20_15h27.58.864,LearnStrategy,2023.2.3,MacIntel,63.29113924,5,1,16,0.281059367,0.23490409,1,0,0,1.2294,Andesite_05,1,05,5,6,1.229,-0.128214586,-0.394335531,1,0,0,4.3341,Pegmatite_rect,6,4.334,0,15,0,15,0,1,,,,,,,,,,,,,
652d8a4cd08c6435db58fd9b,SCN,2024-06-20_15h27.58.864,LearnStrategy,2023.2.3,MacIntel,63.29113924,5,2,1,,,,,,,,5,05,,,,,,,,,,,5,1.233,1,,,,,,-0.380577867,-0.389062161,1,0,0,1.2329,Obsidian_rect,0,0,0,0,1,
652d8a4cd08c6435db58fd9b,SCN,2024-06-20_15h27.58.864,LearnStrategy,2023.2.3,MacIntel,63.29113924,5,2,2,,,,,,,,8,06,,,,,,,,,,,8,1.07,1,,,,,,0.359490696,-0.404965888,1,0,0,1.07,Pumice_rect,1,0,1,0,1,
652d8a4cd08c6435db58fd9b,SCN,2024-06-20_15h27.58.864,LearnStrategy,2023.2.3,MacIntel,63.29113924,5,2,3,,,,,,,,1,10,,,,,,,,,,,3,14.299,0,,,,,,0.150372586,-0.261972182,1,0,0,14.2985,Diorite_rect,2,0,2,0,1,
652d8a4cd08c6435db58fd9b,SCN,2024-06-20_15h27.58.864,LearnStrategy,2023.2.3,MacIntel,63.29113924,5,2,4,,,,,,,,2,01,,,,,,,,,,,2,1.14,1,,,,,,-0.112582804,-0.260340915,1,0,0,1.1399,Basalt_rect,3,0,3,0,1,
652d8a4cd08c6435db58fd9b,SCN,2024-06-20_15h27.58.864,LearnStrategy,2023.2.3,MacIntel,63.29113924,5,2,5,,,,,,,,3,12,,,,,,,,,,,1,9.203,0,,,,,,-0.323901638,-0.258868612,1,0,0,9.2026,Andesite_rect,4,0,4,0,1,
652d8a4cd08c6435db58fd9b,SCN,2024-06-20_15h27.58.864,LearnStrategy,2023.2.3,MacIntel,63.29113924,5,2,6,,,,,,,,7,13,,,,,,,,,,,7,4.995,1,,,,,,0.164754367,-0.410923598,1,0,0,4.9946,Peridotite_rect,5,0,5,0,1,
652d8a4cd08c6435db58fd9b,SCN,2024-06-20_15h27.58.864,LearnStrategy,2023.2.3,MacIntel,63.29113924,5,2,7,,,,,,,,5,08,,,,,,,,,,,5,1.491,1,,,,,,-0.354764438,-0.399676988,1,0,0,1.4908,Obsidian_rect,6,0,6,0,1,
652d8a4cd08c6435db58fd9b,SCN,2024-06-20_15h27.58.864,LearnStrategy,2023.2.3,MacIntel,63.29113924,5,2,8,,,,,,,,4,11,,,,,,,,,,,4,4.974,1,,,,,,0.379847548,-0.239602119,1,0,0,4.9744,Gabbro_rect,7,0,7,0,1,
652d8a4cd08c6435db58fd9b,SCN,2024-06-20_15h27.58.864,LearnStrategy,2023.2.3,MacIntel,63.29113924,5,2,9,,,,,,,,6,10,,,,,,,,,,,6,2.462,1,,,,,,-0.068599786,-0.409895426,1,0,0,2.4618,Pegmatite_rect,8,0,8,0,1,
652d8a4cd08c6435db58fd9b,SCN,2024-06-20_15h27.58.864,LearnStrategy,2023.2.3,MacIntel,63.29113924,5,2,10,,,,,,,,4,12,,,,,,,,,,,4,3.949,1,,,,,,0.426624349,-0.254582248,1,0,0,3.9495,Gabbro_rect,9,0,9,0,1,
652d8a4cd08c6435db58fd9b,SCN,2024-06-20_15h27.58.864,LearnStrategy,2023.2.3,MacIntel,63.29113924,5,2,11,,,,,,,,1,11,,,,,,,,,,,3,7.145,0,,,,,,0.188836738,-0.259318848,1,0,0,7.1449,Diorite_rect,10,0,10,0,1,
652d8a4cd08c6435db58fd9b,SCN,2024-06-20_15h27.58.864,LearnStrategy,2023.2.3,MacIntel,63.29113924,5,2,12,,,,,,,,3,06,,,,,,,,,,,7,1.826,0,,,,,,0.132000054,-0.404807061,1,0,0,1.8258,Peridotite_rect,11,0,11,0,1,
652d8a4cd08c6435db58fd9b,SCN,2024-06-20_15h27.58.864,LearnStrategy,2023.2.3,MacIntel,63.29113924,5,2,13,,,,,,,,2,08,,,,,,,,,,,2,3.001,1,,,,,,-0.159173109,-0.253261515,1,0,0,3.001,Basalt_rect,12,0,12,0,1,
652d8a4cd08c6435db58fd9b,SCN,2024-06-20_15h27.58.864,LearnStrategy,2023.2.3,MacIntel,63.29113924,5,2,14,,,,,,,,8,08,,,,,,,,,,,8,1.167,1,,,,,,0.329136759,-0.404220242,1,0,0,1.1672,Pumice_rect,13,0,13,0,1,
652d8a4cd08c6435db58fd9b,SCN,2024-06-20_15h27.58.864,LearnStrategy,2023.2.3,MacIntel,63.29113924,5,2,15,,,,,,,,7,14,,,,,,,,,,,6,1.882,0,,,,,,-0.080829061,-0.410270793,1,0,0,1.8823,Pegmatite_rect,14,0,14,0,1,
652d8a4cd08c6435db58fd9b,SCN,2024-06-20_15h27.58.864,LearnStrategy,2023.2.3,MacIntel,63.29113924,5,2,16,,,,,,,,6,05,,,,,,,,,,,5,1.884,0,,,,,,-0.331266819,-0.41489502,1,0,0,1.8838,Obsidian_rect,15,0,15,0,1,
652d8a4cd08c6435db58fd9b,SCN,2024-06-20_15h27.58.864,LearnStrategy,2023.2.3,MacIntel,63.29113924,6,1,1,0.060813124,0.107901611,1,0,0,1.2819,Peridotite_10,7,10,4,5,1.282,0.135223253,-0.390671522,1,0,0,2.2202,Peridotite_rect,7,2.22,1,0,0,0,0,1,,,,,,,,,,,,,
652d8a4cd08c6435db58fd9b,SCN,2024-06-20_15h27.58.864,LearnStrategy,2023.2.3,MacIntel,63.29113924,6,1,2,-0.059401245,0.071019864,1,0,0,0.8483,Pegmatite_13,6,13,4,4,0.848,-0.10780816,-0.40091512,1,0,0,1.0067,Pegmatite_rect,6,1.007,1,1,0,1,0,1,,,,,,,,,,,,,
652d8a4cd08c6435db58fd9b,SCN,2024-06-20_15h27.58.864,LearnStrategy,2023.2.3,MacIntel,63.29113924,6,1,3,0.22870714,0.251629113,1,0,0,1.1471,Andesite_05,1,05,5,6,1.147,-0.336622687,-0.229090508,1,0,0,1.4561,Andesite_rect,1,1.456,1,2,0,2,0,1,,,,,,,,,,,,,
652d8a4cd08c6435db58fd9b,SCN,2024-06-20_15h27.58.864,LearnStrategy,2023.2.3,MacIntel,63.29113924,6,1,4,-0.264482286,-0.437153252,1,0,0,1.6619,Gabbro_01,4,01,1,3,1.662,0.100968899,-0.271004367,1,0,0,2.0364,Diorite_rect,3,2.036,0,3,0,3,0,1,,,,,,,,,,,,,
652d8a4cd08c6435db58fd9b,SCN,2024-06-20_15h27.58.864,LearnStrategy,2023.2.3,MacIntel,63.29113924,6,1,5,-0.398808424,-0.442152574,1,0,0,1.0309,Peridotite_07,7,07,1,2,1.031,-0.141195814,-0.418776313,1,0,0,1.3515,Pegmatite_rect,6,1.351,0,4,0,4,0,1,,,,,,,,,,,,,
652d8a4cd08c6435db58fd9b,SCN,2024-06-20_15h27.58.864,LearnStrategy,2023.2.3,MacIntel,63.29113924,6,1,6,0.214121229,0.233467373,1,0,0,3.478,Andesite_05,1,05,5,6,3.478,-0.424953512,-0.24986674,1,0,0,1.3445,Andesite_rect,1,1.345,1,5,0,5,0,1,,,,,,,,,,,,,
652d8a4cd08c6435db58fd9b,SCN,2024-06-20_15h27.58.864,LearnStrategy,2023.2.3,MacIntel,63.29113924,6,1,7,0.555677897,0.235745968,1,0,0,1.1975,Andesite_03,1,03,5,8,1.197,0.17527615,-0.243874512,1,0,0,1.3029,Diorite_rect,3,1.303,0,6,0,6,0,1,,,,,,,,,,,,,
652d8a4cd08c6435db58fd9b,SCN,2024-06-20_15h27.58.864,LearnStrategy,2023.2.3,MacIntel,63.29113924,6,1,8,0.50600925,0.252591587,1,0,0,1.5434,Andesite_03,1,03,5,8,1.543,-0.357981771,-0.24160414,1,0,0,5.3371,Andesite_rect,1,5.337,1,7,0,7,0,1,,,,,,,,,,,,,
652d8a4cd08c6435db58fd9b,SCN,2024-06-20_15h27.58.864,LearnStrategy,2023.2.3,MacIntel,63.29113924,6,1,9,-0.53160965,0.366253238,1,0,0,1.399,Pegmatite_07,6,07,6,1,1.399,0.085408461,-0.413089667,1,0,0,2.4963,Peridotite_rect,7,2.496,0,8,0,8,0,1,,,,,,,,,,,,,
652d8a4cd08c6435db58fd9b,SCN,2024-06-20_15h27.58.864,LearnStrategy,2023.2.3,MacIntel,63.29113924,6,1,10,-0.511144986,-0.12062127,1,0,0,1.0154,Pumice_14,8,14,3,1,1.015,0.43095147,-0.391380615,1,0,0,0.9048,Pumice_rect,8,0.905,1,9,0,9,0,1,,,,,,,,,,,,,
652d8a4cd08c6435db58fd9b,SCN,2024-06-20_15h27.58.864,LearnStrategy,2023.2.3,MacIntel,63.29113924,6,1,11,0.232763604,0.045656094,1,0,0,1.1484,Obsidian_09,5,09,4,6,1.148,-0.381641269,-0.383114217,1,0,0,1.0951,Obsidian_rect,5,1.095,1,10,0,10,0,1,,,,,,,,,,,,,
652d8a4cd08c6435db58fd9b,SCN,2024-06-20_15h27.58.864,LearnStrategy,2023.2.3,MacIntel,63.29113924,6,1,12,-0.38776947,-0.419376289,1,0,0,1.0665,Peridotite_07,7,07,1,2,1.067,-0.068923272,-0.39404975,1,0,0,1.3362,Pegmatite_rect,6,1.336,0,11,0,11,0,1,,,,,,,,,,,,,
652d8a4cd08c6435db58fd9b,SCN,2024-06-20_15h27.58.864,LearnStrategy,2023.2.3,MacIntel,63.29113924,6,1,13,0.241371257,-0.392857327,1,0,0,0.9979,Pumice_13,8,13,1,6,0.998,0.367600233,-0.404212104,1,0,0,0.7138,Pumice_rect,8,0.714,1,12,0,12,0,1,,,,,,,,,,,,,
652d8a4cd08c6435db58fd9b,SCN,2024-06-20_15h27.58.864,LearnStrategy,2023.2.3,MacIntel,63.29113924,6,1,14,0.093225572,-0.139752943,1,0,0,0.9648,Basalt_04,2,04,3,5,0.965,-0.090417752,-0.244603475,1,0,0,0.651,Basalt_rect,2,0.651,1,13,0,13,0,1,,,,,,,,,,,,,
652d8a4cd08c6435db58fd9b,SCN,2024-06-20_15h27.58.864,LearnStrategy,2023.2.3,MacIntel,63.29113924,6,1,15,0.243910455,-0.133672418,1,0,0,0.7326,Obsidian_06,5,06,3,6,0.733,-0.389697198,-0.384926554,1,0,0,0.8386,Obsidian_rect,5,0.839,1,14,0,14,0,1,,,,,,,,,,,,,
652d8a4cd08c6435db58fd9b,SCN,2024-06-20_15h27.58.864,LearnStrategy,2023.2.3,MacIntel,63.29113924,6,1,16,0.377902832,-0.125973646,1,0,0,0.9154,Basalt_10,2,10,3,7,0.915,-0.084507175,-0.229730971,1,0,0,1.0807,Basalt_rect,2,1.081,1,15,0,15,0,1,,,,,,,,,,,,,
652d8a4cd08c6435db58fd9b,SCN,2024-06-20_15h27.58.864,LearnStrategy,2023.2.3,MacIntel,63.29113924,6,2,1,,,,,,,,6,11,,,,,,,,,,,5,2.833,0,,,,,,-0.3668534,-0.38981486,1,0,0,2.833,Obsidian_rect,0,0,0,0,1,
652d8a4cd08c6435db58fd9b,SCN,2024-06-20_15h27.58.864,LearnStrategy,2023.2.3,MacIntel,63.29113924,6,2,2,,,,,,,,1,09,,,,,,,,,,,3,16.772,0,,,,,,0.115008613,-0.241954481,1,0,0,16.7724,Diorite_rect,1,0,1,0,1,
652d8a4cd08c6435db58fd9b,SCN,2024-06-20_15h27.58.864,LearnStrategy,2023.2.3,MacIntel,63.29113924,6,2,3,,,,,,,,2,05,,,,,,,,,,,2,1.314,1,,,,,,-0.090563151,-0.256612481,1,0,0,1.3136,Basalt_rect,2,0,2,0,1,
652d8a4cd08c6435db58fd9b,SCN,2024-06-20_15h27.58.864,LearnStrategy,2023.2.3,MacIntel,63.29113924,6,2,4,,,,,,,,6,15,,,,,,,,,,,7,5.182,0,,,,,,0.108424072,-0.407757704,1,0,0,5.1821,Peridotite_rect,3,0,3,0,1,
652d8a4cd08c6435db58fd9b,SCN,2024-06-20_15h27.58.864,LearnStrategy,2023.2.3,MacIntel,63.29113924,6,2,5,,,,,,,,3,15,,,,,,,,,,,3,4.586,1,,,,,,0.121899753,-0.25797621,1,0,0,4.5858,Diorite_rect,4,0,4,0,1,
652d8a4cd08c6435db58fd9b,SCN,2024-06-20_15h27.58.864,LearnStrategy,2023.2.3,MacIntel,63.29113924,6,2,6,,,,,,,,5,02,,,,,,,,,,,5,1.206,1,,,,,,-0.411328328,-0.393373617,1,0,0,1.2061,Obsidian_rect,5,0,5,0,1,
652d8a4cd08c6435db58fd9b,SCN,2024-06-20_15h27.58.864,LearnStrategy,2023.2.3,MacIntel,63.29113924,6,2,7,,,,,,,,8,16,,,,,,,,,,,8,1.356,1,,,,,,0.342822944,-0.413218452,1,0,0,1.3558,Pumice_rect,6,0,6,0,1,
652d8a4cd08c6435db58fd9b,SCN,2024-06-20_15h27.58.864,LearnStrategy,2023.2.3,MacIntel,63.29113924,6,2,8,,,,,,,,8,15,,,,,,,,,,,8,0.623,1,,,,,,0.342822944,-0.413218452,1,0,0,0.6235,Pumice_rect,7,0,7,0,1,
652d8a4cd08c6435db58fd9b,SCN,2024-06-20_15h27.58.864,LearnStrategy,2023.2.3,MacIntel,63.29113924,6,2,9,,,,,,,,7,15,,,,,,,,,,,7,6.857,1,,,,,,0.162607015,-0.393581611,1,0,0,6.8571,Peridotite_rect,8,0,8,0,1,
652d8a4cd08c6435db58fd9b,SCN,2024-06-20_15h27.58.864,LearnStrategy,2023.2.3,MacIntel,63.29113924,6,2,10,,,,,,,,5,16,,,,,,,,,,,5,1.124,1,,,,,,-0.383411323,-0.409314304,1,0,0,1.1237,Obsidian_rect,9,0,9,0,1,
652d8a4cd08c6435db58fd9b,SCN,2024-06-20_15h27.58.864,LearnStrategy,2023.2.3,MacIntel,63.29113924,6,2,11,,,,,,,,2,06,,,,,,,,,,,2,1.318,1,,,,,,-0.16154263,-0.269854465,1,0,0,1.3181,Basalt_rect,10,0,10,0,1,
652d8a4cd08c6435db58fd9b,SCN,2024-06-20_15h27.58.864,LearnStrategy,2023.2.3,MacIntel,63.29113924,6,2,12,,,,,,,,1,16,,,,,,,,,,,3,6.07,0,,,,,,0.193863458,-0.265360718,1,0,0,6.0701,Diorite_rect,11,0,11,0,1,
652d8a4cd08c6435db58fd9b,SCN,2024-06-20_15h27.58.864,LearnStrategy,2023.2.3,MacIntel,63.29113924,6,2,13,,,,,,,,7,06,,,,,,,,,,,7,5.895,1,,,,,,0.12535163,-0.420134006,1,0,0,5.8947,Peridotite_rect,12,0,12,0,1,
652d8a4cd08c6435db58fd9b,SCN,2024-06-20_15h27.58.864,LearnStrategy,2023.2.3,MacIntel,63.29113924,6,2,14,,,,,,,,4,16,,,,,,,,,,,2,1.097,0,,,,,,-0.072809109,-0.260699666,1,0,0,1.0969,Basalt_rect,13,0,13,0,1,
652d8a4cd08c6435db58fd9b,SCN,2024-06-20_15h27.58.864,LearnStrategy,2023.2.3,MacIntel,63.29113924,6,2,15,,,,,,,,3,11,,,,,,,,,,,3,3.394,1,,,,,,0.153453437,-0.236767171,1,0,0,3.3942,Diorite_rect,14,0,14,0,1,
652d8a4cd08c6435db58fd9b,SCN,2024-06-20_15h27.58.864,LearnStrategy,2023.2.3,MacIntel,63.29113924,6,2,16,,,,,,,,4,15,,,,,,,,,,,4,3.523,1,,,,,,0.373685167,-0.266119927,1,0,0,3.5227,Gabbro_rect,15,0,15,0,1,
652d8a4cd08c6435db58fd9b,SCN,2024-06-20_15h27.58.864,LearnStrategy,2023.2.3,MacIntel,63.29113924,7,1,1,-0.38275706,0.224451379,1,0,0,1.4987,Gabbro_03,4,03,5,2,1.499,0.366417101,-0.236433377,1,0,0,1.6707,Gabbro_rect,4,1.671,1,0,0,0,0,1,,,,,,,,,,,,,
652d8a4cd08c6435db58fd9b,SCN,2024-06-20_15h27.58.864,LearnStrategy,2023.2.3,MacIntel,63.29113924,7,1,2,-0.079827338,0.092128703,1,0,0,0.8653,Pegmatite_13,6,13,4,4,0.865,0.125477431,-0.391797892,1,0,0,1.823,Peridotite_rect,7,1.823,0,1,0,1,0,1,,,,,,,,,,,,,
652d8a4cd08c6435db58fd9b,SCN,2024-06-20_15h27.58.864,LearnStrategy,2023.2.3,MacIntel,63.29113924,7,1,3,-0.078383314,0.070539076,1,0,0,0.9812,Pegmatite_13,6,13,4,4,0.981,-0.146266344,-0.397080146,1,0,0,1.0221,Pegmatite_rect,6,1.022,1,2,0,2,0,1,,,,,,,,,,,,,
652d8a4cd08c6435db58fd9b,SCN,2024-06-20_15h27.58.864,LearnStrategy,2023.2.3,MacIntel,63.29113924,7,1,4,-0.552020298,0.102645704,1,0,0,1.2655,Pegmatite_06,6,06,4,1,1.265,0.134010959,-0.401019151,1,0,0,1.4048,Peridotite_rect,7,1.405,0,3,0,3,0,1,,,,,,,,,,,,,
652d8a4cd08c6435db58fd9b,SCN,2024-06-20_15h27.58.864,LearnStrategy,2023.2.3,MacIntel,63.29113924,7,1,5,-0.393278164,0.088567505,1,0,0,5.0824,Pegmatite_16,6,16,4,2,5.082,-0.10649136,-0.412608575,1,0,0,1.2257,Pegmatite_rect,6,1.226,1,4,0,4,0,1,,,,,,,,,,,,,
652d8a4cd08c6435db58fd9b,SCN,2024-06-20_15h27.58.864,LearnStrategy,2023.2.3,MacIntel,63.29113924,7,1,6,0.189526706,-0.424492866,1,0,0,1.9142,Pumice_13,8,13,1,6,1.914,0.356239556,-0.411394179,1,0,0,1.1872,Pumice_rect,8,1.187,1,5,0,5,0,1,,,,,,,,,,,,,
652d8a4cd08c6435db58fd9b,SCN,2024-06-20_15h27.58.864,LearnStrategy,2023.2.3,MacIntel,63.29113924,7,1,7,0.375874973,-0.236505805,1,0,0,1.1464,Andesite_06,1,06,2,7,1.146,0.44104872,-0.245098741,1,0,0,1.1054,Gabbro_rect,4,1.105,0,6,0,6,0,1,,,,,,,,,,,,,
652d8a4cd08c6435db58fd9b,SCN,2024-06-20_15h27.58.864,LearnStrategy,2023.2.3,MacIntel,63.29113924,7,1,8,0.559734022,-0.083451063,1,0,0,1.18,Diorite_07,3,07,3,8,1.18,-0.458142598,-0.240174967,1,0,0,1.0698,Andesite_rect,1,1.07,0,7,0,7,0,1,,,,,,,,,,,,,
652d8a4cd08c6435db58fd9b,SCN,2024-06-20_15h27.58.864,LearnStrategy,2023.2.3,MacIntel,63.29113924,7,1,9,0.546902805,-0.26620124,1,0,0,1.0153,Gabbro_05,4,05,2,8,1.015,0.141372477,-0.257307604,1,0,0,1.7319,Diorite_rect,3,1.732,0,8,0,8,0,1,,,,,,,,,,,,,
652d8a4cd08c6435db58fd9b,SCN,2024-06-20_15h27.58.864,LearnStrategy,2023.2.3,MacIntel,63.29113924,7,1,10,-0.514352214,-0.266295234,1,0,0,1.1978,Peridotite_05,7,05,2,1,1.198,-0.189456312,-0.407108968,1,0,0,1.0918,Pegmatite_rect,6,1.092,0,9,0,9,0,1,,,,,,,,,,,,,
652d8a4cd08c6435db58fd9b,SCN,2024-06-20_15h27.58.864,LearnStrategy,2023.2.3,MacIntel,63.29113924,7,1,11,-0.432678528,-0.133055691,1,0,0,0.8302,Gabbro_09,4,09,3,2,0.83,0.121719699,-0.271656901,1,0,0,1.3211,Diorite_rect,3,1.321,0,10,0,10,0,1,,,,,,,,,,,,,
652d8a4cd08c6435db58fd9b,SCN,2024-06-20_15h27.58.864,LearnStrategy,2023.2.3,MacIntel,63.29113924,7,1,12,-0.068411526,0.088200073,1,0,0,0.6472,Pegmatite_13,6,13,4,4,0.647,-0.190449083,-0.403578627,1,0,0,1.1859,Pegmatite_rect,6,1.186,1,11,0,11,0,1,,,,,,,,,,,,,
652d8a4cd08c6435db58fd9b,SCN,2024-06-20_15h27.58.864,LearnStrategy,2023.2.3,MacIntel,63.29113924,7,1,13,0.119204102,0.108368734,1,0,0,0.8967,Peridotite_10,7,10,4,5,0.897,0.149778171,-0.394285278,1,0,0,1.97,Peridotite_rect,7,1.97,1,12,0,12,0,1,,,,,,,,,,,,,
652d8a4cd08c6435db58fd9b,SCN,2024-06-20_15h27.58.864,LearnStrategy,2023.2.3,MacIntel,63.29113924,7,1,14,-0.218453776,0.245489434,1,0,0,1.2826,Basalt_09,2,09,5,3,1.283,-0.149390259,-0.229562988,1,0,0,0.7103,Basalt_rect,2,0.71,1,13,0,13,0,1,,,,,,,,,,,,,
652d8a4cd08c6435db58fd9b,SCN,2024-06-20_15h27.58.864,LearnStrategy,2023.2.3,MacIntel,63.29113924,7,1,15,-0.029305556,0.247414059,1,0,0,1.6964,Obsidian_07,5,07,5,4,1.696,-0.351058892,-0.389747043,1,0,0,0.9366,Obsidian_rect,5,0.937,1,14,0,14,0,1,,,,,,,,,,,,,
652d8a4cd08c6435db58fd9b,SCN,2024-06-20_15h27.58.864,LearnStrategy,2023.2.3,MacIntel,63.29113924,7,1,16,0.058455336,0.060523071,1,0,0,1.2491,Peridotite_10,7,10,4,5,1.249,0.139888034,-0.411455485,1,0,0,1.4547,Peridotite_rect,7,1.455,1,15,0,15,0,1,,,,,,,,,,,,,
652d8a4cd08c6435db58fd9b,SCN,2024-06-20_15h27.58.864,LearnStrategy,2023.2.3,MacIntel,63.29113924,7,2,1,,,,,,,,2,05,,,,,,,,,,,2,1.585,1,,,,,,-0.103469781,-0.270894572,1,0,0,1.5855,Basalt_rect,0,0,0,0,1,
652d8a4cd08c6435db58fd9b,SCN,2024-06-20_15h27.58.864,LearnStrategy,2023.2.3,MacIntel,63.29113924,7,2,2,,,,,,,,6,11,,,,,,,,,,,6,8.534,1,,,,,,-0.089262695,-0.393472697,1,0,0,8.5343,Pegmatite_rect,1,0,1,0,1,
652d8a4cd08c6435db58fd9b,SCN,2024-06-20_15h27.58.864,LearnStrategy,2023.2.3,MacIntel,63.29113924,7,2,3,,,,,,,,3,15,,,,,,,,,,,3,2.515,1,,,,,,0.183050062,-0.255402425,1,0,0,2.5152,Diorite_rect,2,0,2,0,1,
652d8a4cd08c6435db58fd9b,SCN,2024-06-20_15h27.58.864,LearnStrategy,2023.2.3,MacIntel,63.29113924,7,2,4,,,,,,,,8,15,,,,,,,,,,,8,1.003,1,,,,,,0.378405084,-0.379586521,1,0,0,1.0027,Pumice_rect,3,0,3,0,1,
652d8a4cd08c6435db58fd9b,SCN,2024-06-20_15h27.58.864,LearnStrategy,2023.2.3,MacIntel,63.29113924,7,2,5,,,,,,,,4,12,,,,,,,,,,,2,1.149,0,,,,,,-0.15333313,-0.243457235,1,0,0,1.1493,Basalt_rect,4,0,4,0,1,
652d8a4cd08c6435db58fd9b,SCN,2024-06-20_15h27.58.864,LearnStrategy,2023.2.3,MacIntel,63.29113924,7,2,6,,,,,,,,2,14,,,,,,,,,,,8,6.687,0,,,,,,0.432427572,-0.400489705,1,0,0,6.6874,Pumice_rect,5,0,5,0,1,
652d8a4cd08c6435db58fd9b,SCN,2024-06-20_15h27.58.864,LearnStrategy,2023.2.3,MacIntel,63.29113924,7,2,7,,,,,,,,8,16,,,,,,,,,,,8,0.724,1,,,,,,0.430905355,-0.401403063,1,0,0,0.7236,Pumice_rect,6,0,6,0,1,
652d8a4cd08c6435db58fd9b,SCN,2024-06-20_15h27.58.864,LearnStrategy,2023.2.3,MacIntel,63.29113924,7,2,8,,,,,,,,6,10,,,,,,,,,,,6,4.797,1,,,,,,-0.07489129,-0.414812351,1,0,0,4.7972,Pegmatite_rect,7,0,7,0,1,
652d8a4cd08c6435db58fd9b,SCN,2024-06-20_15h27.58.864,LearnStrategy,2023.2.3,MacIntel,63.29113924,7,2,9,,,,,,,,3,09,,,,,,,,,,,1,2.631,0,,,,,,-0.313088481,-0.261447822,1,0,0,2.631,Andesite_rect,8,0,8,0,1,
652d8a4cd08c6435db58fd9b,SCN,2024-06-20_15h27.58.864,LearnStrategy,2023.2.3,MacIntel,63.29113924,7,2,10,,,,,,,,5,08,,,,,,,,,,,5,0.962,1,,,,,,-0.347384915,-0.41336358,1,0,0,0.9617,Obsidian_rect,9,0,9,0,1,
652d8a4cd08c6435db58fd9b,SCN,2024-06-20_15h27.58.864,LearnStrategy,2023.2.3,MacIntel,63.29113924,7,2,11,,,,,,,,5,14,,,,,,,,,,,5,0.849,1,,,,,,-0.348594598,-0.388576592,1,0,0,0.849,Obsidian_rect,10,0,10,0,1,
652d8a4cd08c6435db58fd9b,SCN,2024-06-20_15h27.58.864,LearnStrategy,2023.2.3,MacIntel,63.29113924,7,2,12,,,,,,,,7,14,,,,,,,,,,,3,3.938,0,,,,,,0.138084446,-0.242237278,1,0,0,3.9378,Diorite_rect,11,0,11,0,1,
652d8a4cd08c6435db58fd9b,SCN,2024-06-20_15h27.58.864,LearnStrategy,2023.2.3,MacIntel,63.29113924,7,2,13,,,,,,,,1,11,,,,,,,,,,,1,1.992,1,,,,,,-0.323973796,-0.262177192,1,0,0,1.992,Andesite_rect,12,0,12,0,1,
652d8a4cd08c6435db58fd9b,SCN,2024-06-20_15h27.58.864,LearnStrategy,2023.2.3,MacIntel,63.29113924,7,2,14,,,,,,,,7,13,,,,,,,,,,,7,11.872,1,,,,,,0.144527249,-0.404337633,1,0,0,11.8724,Peridotite_rect,13,0,13,0,1,
652d8a4cd08c6435db58fd9b,SCN,2024-06-20_15h27.58.864,LearnStrategy,2023.2.3,MacIntel,63.29113924,7,2,15,,,,,,,,1,02,,,,,,,,,,,3,6.018,0,,,,,,0.132024333,-0.25910909,1,0,0,6.0185,Diorite_rect,14,0,14,0,1,
652d8a4cd08c6435db58fd9b,SCN,2024-06-20_15h27.58.864,LearnStrategy,2023.2.3,MacIntel,63.29113924,7,2,16,,,,,,,,4,10,,,,,,,,,,,4,4.535,1,,,,,,0.332507528,-0.250153876,1,0,0,4.5355,Gabbro_rect,15,0,15,0,1,
652d8a4cd08c6435db58fd9b,SCN,2024-06-20_15h27.58.864,LearnStrategy,2023.2.3,MacIntel,63.29113924,8,1,1,-0.071003282,0.073798082,1,0,0,1.1153,Pegmatite_13,6,13,4,4,1.115,-0.362956645,-0.255257907,1,0,0,2.8099,Andesite_rect,1,2.81,0,0,0,0,0,1,,,,,,,,,,,,,
652d8a4cd08c6435db58fd9b,SCN,2024-06-20_15h27.58.864,LearnStrategy,2023.2.3,MacIntel,63.29113924,8,1,2,0.561877306,-0.081222399,1,0,0,1.2631,Diorite_07,3,07,3,8,1.263,-0.398614536,-0.247678765,1,0,0,0.7741,Andesite_rect,1,0.774,0,1,0,1,0,1,,,,,,,,,,,,,
652d8a4cd08c6435db58fd9b,SCN,2024-06-20_15h27.58.864,LearnStrategy,2023.2.3,MacIntel,63.29113924,8,1,3,-0.261825256,-0.43057746,1,0,0,0.9661,Gabbro_01,4,01,1,3,0.966,0.125435859,-0.269354791,1,0,0,2.0891,Diorite_rect,3,2.089,0,2,0,2,0,1,,,,,,,,,,,,,
652d8a4cd08c6435db58fd9b,SCN,2024-06-20_15h27.58.864,LearnStrategy,2023.2.3,MacIntel,63.29113924,8,1,4,0.091847534,-0.412487793,1,0,0,0.6287,Andesite_01,1,01,1,5,0.629,-0.379778103,-0.271243829,1,0,0,0.7552,Andesite_rect,1,0.755,1,3,0,3,0,1,,,,,,,,,,,,,
652d8a4cd08c6435db58fd9b,SCN,2024-06-20_15h27.58.864,LearnStrategy,2023.2.3,MacIntel,63.29113924,8,1,5,-0.084243978,0.124958564,1,0,0,0.6136,Pegmatite_13,6,13,4,4,0.614,-0.087740479,-0.406817288,1,0,0,2.4549,Pegmatite_rect,6,2.455,1,4,0,4,0,1,,,,,,,,,,,,,
652d8a4cd08c6435db58fd9b,SCN,2024-06-20_15h27.58.864,LearnStrategy,2023.2.3,MacIntel,63.29113924,8,1,6,0.065015191,0.215088671,1,0,0,1.8646,Pumice_05,8,05,5,5,1.865,0.406602919,-0.402856445,1,0,0,0.9223,Pumice_rect,8,0.922,1,5,0,5,0,1,,,,,,,,,,,,,
652d8a4cd08c6435db58fd9b,SCN,2024-06-20_15h27.58.864,LearnStrategy,2023.2.3,MacIntel,63.29113924,8,1,7,0.372921143,0.237879893,1,0,0,0.9138,Andesite_04,1,04,5,7,0.914,0.113131443,-0.247043593,1,0,0,1.5699,Diorite_rect,3,1.57,0,6,0,6,0,1,,,,,,,,,,,,,
652d8a4cd08c6435db58fd9b,SCN,2024-06-20_15h27.58.864,LearnStrategy,2023.2.3,MacIntel,63.29113924,8,1,8,-0.387326592,-0.376690335,1,0,0,1.0644,Peridotite_07,7,07,1,2,1.064,0.085334676,-0.402774455,1,0,0,2.0516,Peridotite_rect,7,2.052,1,7,0,7,0,1,,,,,,,,,,,,,
652d8a4cd08c6435db58fd9b,SCN,2024-06-20_15h27.58.864,LearnStrategy,2023.2.3,MacIntel,63.29113924,8,1,9,-0.534163954,0.235184309,1,0,0,1.2475,Gabbro_14,4,14,5,1,1.247,0.19513482,-0.243282471,1,0,0,1.1381,Diorite_rect,3,1.138,0,8,0,8,0,1,,,,,,,,,,,,,
652d8a4cd08c6435db58fd9b,SCN,2024-06-20_15h27.58.864,LearnStrategy,2023.2.3,MacIntel,63.29113924,8,1,10,0.063914931,0.059724358,1,0,0,0.6638,Peridotite_10,7,10,4,5,0.664,0.118483955,-0.394747586,1,0,0,1.0051,Peridotite_rect,7,1.005,1,9,0,9,0,1,,,,,,,,,,,,,
652d8a4cd08c6435db58fd9b,SCN,2024-06-20_15h27.58.864,LearnStrategy,2023.2.3,MacIntel,63.29113924,8,1,11,0.218925713,0.391583523,1,0,0,0.9654,Diorite_13,3,13,6,6,0.965,-0.343955044,-0.24458374,1,0,0,1.2824,Andesite_rect,1,1.282,0,10,0,10,0,1,,,,,,,,,,,,,
652d8a4cd08c6435db58fd9b,SCN,2024-06-20_15h27.58.864,LearnStrategy,2023.2.3,MacIntel,63.29113924,8,1,12,0.256028307,0.053661601,1,0,0,0.782,Obsidian_09,5,09,4,6,0.782,-0.408033786,-0.390938246,1,0,0,1.2381,Obsidian_rect,5,1.238,1,11,0,11,0,1,,,,,,,,,,,,,
652d8a4cd08c6435db58fd9b,SCN,2024-06-20_15h27.58.864,LearnStrategy,2023.2.3,MacIntel,63.29113924,8,1,13,0.406124946,0.101423069,1,0,0,1.281,Peridotite_02,7,02,4,7,1.281,0.089188368,-0.398679945,1,0,0,0.7734,Peridotite_rect,7,0.773,1,12,0,12,0,1,,,,,,,,,,,,,
652d8a4cd08c6435db58fd9b,SCN,2024-06-20_15h27.58.864,LearnStrategy,2023.2.3,MacIntel,63.29113924,8,1,14,0.579492052,-0.242750041,1,0,0,0.7332,Gabbro_05,4,05,2,8,0.733,0.408632812,-0.246557549,1,0,0,1.5908,Gabbro_rect,4,1.591,1,13,0,13,0,1,,,,,,,,,,,,,
652d8a4cd08c6435db58fd9b,SCN,2024-06-20_15h27.58.864,LearnStrategy,2023.2.3,MacIntel,63.29113924,8,1,15,0.371524794,-0.41953559,1,0,0,1.2146,Pegmatite_09,6,09,1,7,1.215,0.154194065,-0.413668755,1,0,0,0.7381,Peridotite_rect,7,0.738,0,14,0,14,0,1,,,,,,,,,,,,,
652d8a4cd08c6435db58fd9b,SCN,2024-06-20_15h27.58.864,LearnStrategy,2023.2.3,MacIntel,63.29113924,8,1,16,-0.218792589,0.065437317,1,0,0,0.8481,Pegmatite_08,6,08,4,3,0.848,-0.378705648,-0.408579576,1,0,0,0.9733,Obsidian_rect,5,0.973,0,15,0,15,0,1,,,,,,,,,,,,,
652d8a4cd08c6435db58fd9b,SCN,2024-06-20_15h27.58.864,LearnStrategy,2023.2.3,MacIntel,63.29113924,8,2,1,,,,,,,,7,12,,,,,,,,,,,7,2.533,1,,,,,,0.098895738,-0.3970676,1,0,0,2.5327,Peridotite_rect,0,0,0,0,1,
652d8a4cd08c6435db58fd9b,SCN,2024-06-20_15h27.58.864,LearnStrategy,2023.2.3,MacIntel,63.29113924,8,2,2,,,,,,,,1,14,,,,,,,,,,,1,4.648,1,,,,,,-0.418538581,-0.25067749,1,0,0,4.648,Andesite_rect,1,0,1,0,1,
652d8a4cd08c6435db58fd9b,SCN,2024-06-20_15h27.58.864,LearnStrategy,2023.2.3,MacIntel,63.29113924,8,2,3,,,,,,,,7,06,,,,,,,,,,,7,4.745,1,,,,,,0.109580349,-0.404927097,1,0,0,4.7453,Peridotite_rect,2,0,2,0,1,
652d8a4cd08c6435db58fd9b,SCN,2024-06-20_15h27.58.864,LearnStrategy,2023.2.3,MacIntel,63.29113924,8,2,4,,,,,,,,2,12,,,,,,,,,,,8,1.954,0,,,,,,0.403044027,-0.405387912,1,0,0,1.954,Pumice_rect,3,0,3,0,1,
652d8a4cd08c6435db58fd9b,SCN,2024-06-20_15h27.58.864,LearnStrategy,2023.2.3,MacIntel,63.29113924,8,2,5,,,,,,,,4,15,,,,,,,,,,,1,4.183,0,,,,,,-0.331637302,-0.252844984,1,0,0,4.1829,Andesite_rect,4,0,4,0,1,
652d8a4cd08c6435db58fd9b,SCN,2024-06-20_15h27.58.864,LearnStrategy,2023.2.3,MacIntel,63.29113924,8,2,6,,,,,,,,6,03,,,,,,,,,,,6,4.749,1,,,,,,-0.101978963,-0.3881427,1,0,0,4.749,Pegmatite_rect,5,0,5,0,1,
652d8a4cd08c6435db58fd9b,SCN,2024-06-20_15h27.58.864,LearnStrategy,2023.2.3,MacIntel,63.29113924,8,2,7,,,,,,,,8,06,,,,,,,,,,,8,2.176,1,,,,,,0.38074707,-0.39954522,1,0,0,2.1757,Pumice_rect,6,0,6,0,1,
652d8a4cd08c6435db58fd9b,SCN,2024-06-20_15h27.58.864,LearnStrategy,2023.2.3,MacIntel,63.29113924,8,2,8,,,,,,,,8,09,,,,,,,,,,,8,0.637,1,,,,,,0.38074707,-0.39954522,1,0,0,0.6371,Pumice_rect,7,0,7,0,1,
652d8a4cd08c6435db58fd9b,SCN,2024-06-20_15h27.58.864,LearnStrategy,2023.2.3,MacIntel,63.29113924,8,2,9,,,,,,,,5,05,,,,,,,,,,,5,1.104,1,,,,,,-0.371166721,-0.391005046,1,0,0,1.1036,Obsidian_rect,8,0,8,0,1,
652d8a4cd08c6435db58fd9b,SCN,2024-06-20_15h27.58.864,LearnStrategy,2023.2.3,MacIntel,63.29113924,8,2,10,,,,,,,,4,16,,,,,,,,,,,2,1.326,0,,,,,,-0.165775282,-0.267015381,1,0,0,1.3257,Basalt_rect,9,0,9,0,1,
652d8a4cd08c6435db58fd9b,SCN,2024-06-20_15h27.58.864,LearnStrategy,2023.2.3,MacIntel,63.29113924,8,2,11,,,,,,,,5,02,,,,,,,,,,,5,1.047,1,,,,,,-0.35345147,-0.384085626,1,0,0,1.0465,Obsidian_rect,10,0,10,0,1,
652d8a4cd08c6435db58fd9b,SCN,2024-06-20_15h27.58.864,LearnStrategy,2023.2.3,MacIntel,63.29113924,8,2,12,,,,,,,,6,05,,,,,,,,,,,6,2.484,1,,,,,,-0.100348579,-0.40976827,1,0,0,2.484,Pegmatite_rect,11,0,11,0,1,
652d8a4cd08c6435db58fd9b,SCN,2024-06-20_15h27.58.864,LearnStrategy,2023.2.3,MacIntel,63.29113924,8,2,13,,,,,,,,3,11,,,,,,,,,,,4,3.129,0,,,,,,0.336472304,-0.271185438,1,0,0,3.1288,Gabbro_rect,12,0,12,0,1,
652d8a4cd08c6435db58fd9b,SCN,2024-06-20_15h27.58.864,LearnStrategy,2023.2.3,MacIntel,63.29113924,8,2,14,,,,,,,,2,08,,,,,,,,,,,2,2.838,1,,,,,,-0.129886068,-0.257994317,1,0,0,2.8381,Basalt_rect,13,0,13,0,1,
652d8a4cd08c6435db58fd9b,SCN,2024-06-20_15h27.58.864,LearnStrategy,2023.2.3,MacIntel,63.29113924,8,2,15,,,,,,,,3,06,,,,,,,,,,,3,3.724,1,,,,,,0.172148641,-0.256336195,1,0,0,3.7236,Diorite_rect,14,0,14,0,1,
652d8a4cd08c6435db58fd9b,SCN,2024-06-20_15h27.58.864,LearnStrategy,2023.2.3,MacIntel,63.29113924,8,2,16,,,,,,,,1,16,,,,,,,,,,,3,2.116,0,,,,,,0.170930854,-0.259076199,1,0,0,2.1158,Diorite_rect,15,0,15,0,1,
652d8a4cd08c6435db58fd9b,SCN,2024-06-20_15h27.58.864,LearnStrategy,2023.2.3,MacIntel,63.29113924,9,1,1,-0.063731554,0.244012468,1,0,0,0.7165,Obsidian_07,5,07,5,4,0.716,-0.377563137,-0.38950297,1,0,0,1.0151,Obsidian_rect,5,1.015,1,0,0,0,0,1,,,,,,,,,,,,,
652d8a4cd08c6435db58fd9b,SCN,2024-06-20_15h27.58.864,LearnStrategy,2023.2.3,MacIntel,63.29113924,9,1,2,0.416593153,-0.110783013,1,0,0,1.6659,Basalt_10,2,10,3,7,1.666,-0.15337009,-0.243285522,1,0,0,1.0225,Basalt_rect,2,1.022,1,1,0,1,0,1,,,,,,,,,,,,,
652d8a4cd08c6435db58fd9b,SCN,2024-06-20_15h27.58.864,LearnStrategy,2023.2.3,MacIntel,63.29113924,9,1,3,-0.09461263,0.079589708,1,0,0,1.7479,Pegmatite_13,6,13,4,4,1.748,-0.078559502,-0.403386637,1,0,0,1.2246,Pegmatite_rect,6,1.225,1,2,0,2,0,1,,,,,,,,,,,,,
652d8a4cd08c6435db58fd9b,SCN,2024-06-20_15h27.58.864,LearnStrategy,2023.2.3,MacIntel,63.29113924,9,1,4,-0.083232422,-0.425775011,1,0,0,1.0796,Andesite_07,1,07,1,4,1.08,-0.393952433,-0.251550429,1,0,0,0.9351,Andesite_rect,1,0.935,1,3,0,3,0,1,,,,,,,,,,,,,
652d8a4cd08c6435db58fd9b,SCN,2024-06-20_15h27.58.864,LearnStrategy,2023.2.3,MacIntel,63.29113924,9,1,5,0.388667399,-0.403393962,1,0,0,0.765,Pegmatite_09,6,09,1,7,0.765,0.107826063,-0.398771566,1,0,0,1.0339,Peridotite_rect,7,1.034,0,4,0,4,0,1,,,,,,,,,,,,,
652d8a4cd08c6435db58fd9b,SCN,2024-06-20_15h27.58.864,LearnStrategy,2023.2.3,MacIntel,63.29113924,9,1,6,-0.396786397,-0.254572415,1,0,0,0.7811,Gabbro_08,4,08,2,2,0.781,0.162541504,-0.245391235,1,0,0,1.2555,Diorite_rect,3,1.255,0,5,0,5,0,1,,,,,,,,,,,,,
652d8a4cd08c6435db58fd9b,SCN,2024-06-20_15h27.58.864,LearnStrategy,2023.2.3,MacIntel,63.29113924,9,1,7,-0.348847894,-0.140362752,1,0,0,0.9819,Gabbro_09,4,09,3,2,0.982,-0.173738403,-0.252229818,1,0,0,1.4724,Basalt_rect,2,1.472,0,6,0,6,0,1,,,,,,,,,,,,,
652d8a4cd08c6435db58fd9b,SCN,2024-06-20_15h27.58.864,LearnStrategy,2023.2.3,MacIntel,63.29113924,9,1,8,-0.251930339,-0.113005846,1,0,0,0.5813,Pumice_10,8,10,3,3,0.581,0.428537598,-0.389382731,1,0,0,1.0374,Pumice_rect,8,1.037,1,7,0,7,0,1,,,,,,,,,,,,,
652d8a4cd08c6435db58fd9b,SCN,2024-06-20_15h27.58.864,LearnStrategy,2023.2.3,MacIntel,63.29113924,9,1,9,0.363768311,-0.072849867,1,0,0,2.2487,Basalt_10,2,10,3,7,2.249,-0.126398519,-0.259879489,1,0,0,4.071,Basalt_rect,2,4.071,1,8,0,8,0,1,,,,,,,,,,,,,
652d8a4cd08c6435db58fd9b,SCN,2024-06-20_15h27.58.864,LearnStrategy,2023.2.3,MacIntel,63.29113924,9,1,10,0.548705105,-0.239139269,1,0,0,1.0676,Gabbro_05,4,05,2,8,1.068,0.393960368,-0.265217963,1,0,0,3.3552,Gabbro_rect,4,3.355,1,9,0,9,0,1,,,,,,,,,,,,,
652d8a4cd08c6435db58fd9b,SCN,2024-06-20_15h27.58.864,LearnStrategy,2023.2.3,MacIntel,63.29113924,9,1,11,0.44547526,0.243473596,1,0,0,1.049,Andesite_04,1,04,5,7,1.049,-0.376021288,-0.246331516,1,0,0,1.0309,Andesite_rect,1,1.031,1,10,0,10,0,1,,,,,,,,,,,,,
652d8a4cd08c6435db58fd9b,SCN,2024-06-20_15h27.58.864,LearnStrategy,2023.2.3,MacIntel,63.29113924,9,1,12,0.439514296,-0.104034424,1,0,0,0.6982,Basalt_10,2,10,3,7,0.698,-0.13699273,-0.253739353,1,0,0,1.2867,Basalt_rect,2,1.287,1,11,0,11,0,1,,,,,,,,,,,,,
652d8a4cd08c6435db58fd9b,SCN,2024-06-20_15h27.58.864,LearnStrategy,2023.2.3,MacIntel,63.29113924,9,1,13,0.070625271,-0.113116048,1,0,0,0.6486,Basalt_04,2,04,3,5,0.649,-0.155598484,-0.265136719,1,0,0,0.8576,Basalt_rect,2,0.858,1,12,0,12,0,1,,,,,,,,,,,,,
652d8a4cd08c6435db58fd9b,SCN,2024-06-20_15h27.58.864,LearnStrategy,2023.2.3,MacIntel,63.29113924,9,1,14,0.219585503,-0.116385498,1,0,0,0.7139,Obsidian_06,5,06,3,6,0.714,-0.342437948,-0.388459405,1,0,0,0.7849,Obsidian_rect,5,0.785,1,13,0,13,0,1,,,,,,,,,,,,,
652d8a4cd08c6435db58fd9b,SCN,2024-06-20_15h27.58.864,LearnStrategy,2023.2.3,MacIntel,63.29113924,9,1,15,0.240889282,0.08367608,1,0,0,1.0157,Obsidian_09,5,09,4,6,1.016,-0.399099867,-0.404356961,1,0,0,0.9868,Obsidian_rect,5,0.987,1,14,0,14,0,1,,,,,,,,,,,,,
652d8a4cd08c6435db58fd9b,SCN,2024-06-20_15h27.58.864,LearnStrategy,2023.2.3,MacIntel,63.29113924,9,1,16,0.073971354,0.119040256,1,0,0,0.8134,Peridotite_10,7,10,4,5,0.813,0.124691705,-0.38558119,1,0,0,1.4335,Peridotite_rect,7,1.434,1,15,0,15,0,1,,,,,,,,,,,,,
652d8a4cd08c6435db58fd9b,SCN,2024-06-20_15h27.58.864,LearnStrategy,2023.2.3,MacIntel,63.29113924,9,2,1,,,,,,,,2,06,,,,,,,,,,,2,1.338,1,,,,,,-0.119083049,-0.254207967,1,0,0,1.3376,Basalt_rect,0,0,0,0,1,
652d8a4cd08c6435db58fd9b,SCN,2024-06-20_15h27.58.864,LearnStrategy,2023.2.3,MacIntel,63.29113924,9,2,2,,,,,,,,7,15,,,,,,,,,,,7,1.249,1,,,,,,0.1195794,-0.407474297,1,0,0,1.2491,Peridotite_rect,1,0,1,0,1,
652d8a4cd08c6435db58fd9b,SCN,2024-06-20_15h27.58.864,LearnStrategy,2023.2.3,MacIntel,63.29113924,9,2,3,,,,,,,,8,02,,,,,,,,,,,8,1.07,1,,,,,,0.355889214,-0.408271484,1,0,0,1.0703,Pumice_rect,2,0,2,0,1,
652d8a4cd08c6435db58fd9b,SCN,2024-06-20_15h27.58.864,LearnStrategy,2023.2.3,MacIntel,63.29113924,9,2,4,,,,,,,,8,08,,,,,,,,,,,8,0.782,1,,,,,,0.355889214,-0.412821248,1,0,0,0.7823,Pumice_rect,3,0,3,0,1,
652d8a4cd08c6435db58fd9b,SCN,2024-06-20_15h27.58.864,LearnStrategy,2023.2.3,MacIntel,63.29113924,9,2,5,,,,,,,,6,12,,,,,,,,,,,6,7.499,1,,,,,,-0.140676676,-0.410602688,1,0,0,7.4989,Pegmatite_rect,4,0,4,0,1,
652d8a4cd08c6435db58fd9b,SCN,2024-06-20_15h27.58.864,LearnStrategy,2023.2.3,MacIntel,63.29113924,9,2,6,,,,,,,,1,09,,,,,,,,,,,1,5.809,1,,,,,,-0.399951952,-0.247197333,1,0,0,5.8092,Andesite_rect,5,0,5,0,1,
652d8a4cd08c6435db58fd9b,SCN,2024-06-20_15h27.58.864,LearnStrategy,2023.2.3,MacIntel,63.29113924,9,2,7,,,,,,,,5,12,,,,,,,,,,,5,1.072,1,,,,,,-0.356624112,-0.41805915,1,0,0,1.072,Obsidian_rect,6,0,6,0,1,
652d8a4cd08c6435db58fd9b,SCN,2024-06-20_15h27.58.864,LearnStrategy,2023.2.3,MacIntel,63.29113924,9,2,8,,,,,,,,4,13,,,,,,,,,,,3,7.11,0,,,,,,0.095942518,-0.266064317,1,0,0,7.1104,Diorite_rect,7,0,7,0,1,
652d8a4cd08c6435db58fd9b,SCN,2024-06-20_15h27.58.864,LearnStrategy,2023.2.3,MacIntel,63.29113924,9,2,9,,,,,,,,1,10,,,,,,,,,,,8,2.411,0,,,,,,0.406385091,-0.412329305,1,0,0,2.4113,Pumice_rect,8,0,8,0,1,
652d8a4cd08c6435db58fd9b,SCN,2024-06-20_15h27.58.864,LearnStrategy,2023.2.3,MacIntel,63.29113924,9,2,10,,,,,,,,6,15,,,,,,,,,,,6,2.359,1,,,,,,-0.108186578,-0.409495239,1,0,0,2.3593,Pegmatite_rect,9,0,9,0,1,
652d8a4cd08c6435db58fd9b,SCN,2024-06-20_15h27.58.864,LearnStrategy,2023.2.3,MacIntel,63.29113924,9,2,11,,,,,,,,3,12,,,,,,,,,,,3,2.768,1,,,,,,0.098962809,-0.265655721,1,0,0,2.7683,Diorite_rect,10,0,10,0,1,
652d8a4cd08c6435db58fd9b,SCN,2024-06-20_15h27.58.864,LearnStrategy,2023.2.3,MacIntel,63.29113924,9,2,12,,,,,,,,2,01,,,,,,,,,,,2,1.28,1,,,,,,-0.097803819,-0.271847263,1,0,0,1.2797,Basalt_rect,11,0,11,0,1,
652d8a4cd08c6435db58fd9b,SCN,2024-06-20_15h27.58.864,LearnStrategy,2023.2.3,MacIntel,63.29113924,9,2,13,,,,,,,,3,16,,,,,,,,,,,3,3.705,1,,,,,,0.126249797,-0.256646864,1,0,0,3.7052,Diorite_rect,12,0,12,0,1,
652d8a4cd08c6435db58fd9b,SCN,2024-06-20_15h27.58.864,LearnStrategy,2023.2.3,MacIntel,63.29113924,9,2,14,,,,,,,,4,11,,,,,,,,,,,2,0.972,0,,,,,,-0.088233643,-0.266083035,1,0,0,0.9719,Basalt_rect,13,0,13,0,1,
652d8a4cd08c6435db58fd9b,SCN,2024-06-20_15h27.58.864,LearnStrategy,2023.2.3,MacIntel,63.29113924,9,2,15,,,,,,,,7,08,,,,,,,,,,,7,1.267,1,,,,,,0.153403049,-0.398221096,1,0,0,1.2668,Peridotite_rect,14,0,14,0,1,
652d8a4cd08c6435db58fd9b,SCN,2024-06-20_15h27.58.864,LearnStrategy,2023.2.3,MacIntel,63.29113924,9,2,16,,,,,,,,5,16,,,,,,,,,,,5,1.096,1,,,,,,-0.398799778,-0.386627875,1,0,0,1.0961,Obsidian_rect,15,0,15,0,1,
652d8a4cd08c6435db58fd9b,SCN,2024-06-20_15h27.58.864,LearnStrategy,2023.2.3,MacIntel,63.29113924,,,,,,,,,,,,,,,,,,,,,,,,,,,,,,,,,,,,,,,,,,,1
652d8a4cd08c6435db58fd9b,SCN,2024-06-20_15h27.58.864,LearnStrategy,2023.2.3,MacIntel,63.29113924,,,,,,,,,,,,,,,,,,,,,,,,,,,,,,,,,,,,,,,,,,,
652d8a4cd08c6435db58fd9b,SCN,2024-06-20_15h27.58.864,LearnStrategy,2023.2.3,MacIntel,63.29113924,,,,,,,,,,,5,11,1,1,,,,,,,,,,,,,,,,,,,,,,,,,,,,,
652d8a4cd08c6435db58fd9b,SCN,2024-06-20_15h27.58.864,LearnStrategy,2023.2.3,MacIntel,63.29113924,,,,,,,,,,,7,07,1,2,,,,,,,,,,,,,,,,,,,,,,,,,,,,,
652d8a4cd08c6435db58fd9b,SCN,2024-06-20_15h27.58.864,LearnStrategy,2023.2.3,MacIntel,63.29113924,,,,,,,,,,,4,01,1,3,,,,,,,,,,,,,,,,,,,,,,,,,,,,,
652d8a4cd08c6435db58fd9b,SCN,2024-06-20_15h27.58.864,LearnStrategy,2023.2.3,MacIntel,63.29113924,,,,,,,,,,,1,07,1,4,,,,,,,,,,,,,,,,,,,,,,,,,,,,,
652d8a4cd08c6435db58fd9b,SCN,2024-06-20_15h27.58.864,LearnStrategy,2023.2.3,MacIntel,63.29113924,,,,,,,,,,,1,01,1,5,,,,,,,,,,,,,,,,,,,,,,,,,,,,,
652d8a4cd08c6435db58fd9b,SCN,2024-06-20_15h27.58.864,LearnStrategy,2023.2.3,MacIntel,63.29113924,,,,,,,,,,,8,13,1,6,,,,,,,,,,,,,,,,,,,,,,,,,,,,,
652d8a4cd08c6435db58fd9b,SCN,2024-06-20_15h27.58.864,LearnStrategy,2023.2.3,MacIntel,63.29113924,,,,,,,,,,,6,09,1,7,,,,,,,,,,,,,,,,,,,,,,,,,,,,,
652d8a4cd08c6435db58fd9b,SCN,2024-06-20_15h27.58.864,LearnStrategy,2023.2.3,MacIntel,63.29113924,,,,,,,,,,,3,10,1,8,,,,,,,,,,,,,,,,,,,,,,,,,,,,,
652d8a4cd08c6435db58fd9b,SCN,2024-06-20_15h27.58.864,LearnStrategy,2023.2.3,MacIntel,63.29113924,,,,,,,,,,,7,05,2,1,,,,,,,,,,,,,,,,,,,,,,,,,,,,,
652d8a4cd08c6435db58fd9b,SCN,2024-06-20_15h27.58.864,LearnStrategy,2023.2.3,MacIntel,63.29113924,,,,,,,,,,,4,08,2,2,,,,,,,,,,,,,,,,,,,,,,,,,,,,,
652d8a4cd08c6435db58fd9b,SCN,2024-06-20_15h27.58.864,LearnStrategy,2023.2.3,MacIntel,63.29113924,,,,,,,,,,,3,14,2,3,,,,,,,,,,,,,,,,,,,,,,,,,,,,,
652d8a4cd08c6435db58fd9b,SCN,2024-06-20_15h27.58.864,LearnStrategy,2023.2.3,MacIntel,63.29113924,,,,,,,,,,,2,16,2,4,,,,,,,,,,,,,,,,,,,,,,,,,,,,,
652d8a4cd08c6435db58fd9b,SCN,2024-06-20_15h27.58.864,LearnStrategy,2023.2.3,MacIntel,63.29113924,,,,,,,,,,,8,04,2,5,,,,,,,,,,,,,,,,,,,,,,,,,,,,,
652d8a4cd08c6435db58fd9b,SCN,2024-06-20_15h27.58.864,LearnStrategy,2023.2.3,MacIntel,63.29113924,,,,,,,,,,,7,04,2,6,,,,,,,,,,,,,,,,,,,,,,,,,,,,,
652d8a4cd08c6435db58fd9b,SCN,2024-06-20_15h27.58.864,LearnStrategy,2023.2.3,MacIntel,63.29113924,,,,,,,,,,,1,06,2,7,,,,,,,,,,,,,,,,,,,,,,,,,,,,,
652d8a4cd08c6435db58fd9b,SCN,2024-06-20_15h27.58.864,LearnStrategy,2023.2.3,MacIntel,63.29113924,,,,,,,,,,,4,05,2,8,,,,,,,,,,,,,,,,,,,,,,,,,,,,,
652d8a4cd08c6435db58fd9b,SCN,2024-06-20_15h27.58.864,LearnStrategy,2023.2.3,MacIntel,63.29113924,,,,,,,,,,,8,14,3,1,,,,,,,,,,,,,,,,,,,,,,,,,,,,,
652d8a4cd08c6435db58fd9b,SCN,2024-06-20_15h27.58.864,LearnStrategy,2023.2.3,MacIntel,63.29113924,,,,,,,,,,,4,09,3,2,,,,,,,,,,,,,,,,,,,,,,,,,,,,,
652d8a4cd08c6435db58fd9b,SCN,2024-06-20_15h27.58.864,LearnStrategy,2023.2.3,MacIntel,63.29113924,,,,,,,,,,,8,10,3,3,,,,,,,,,,,,,,,,,,,,,,,,,,,,,
652d8a4cd08c6435db58fd9b,SCN,2024-06-20_15h27.58.864,LearnStrategy,2023.2.3,MacIntel,63.29113924,,,,,,,,,,,3,08,3,4,,,,,,,,,,,,,,,,,,,,,,,,,,,,,
652d8a4cd08c6435db58fd9b,SCN,2024-06-20_15h27.58.864,LearnStrategy,2023.2.3,MacIntel,63.29113924,,,,,,,,,,,2,04,3,5,,,,,,,,,,,,,,,,,,,,,,,,,,,,,
652d8a4cd08c6435db58fd9b,SCN,2024-06-20_15h27.58.864,LearnStrategy,2023.2.3,MacIntel,63.29113924,,,,,,,,,,,5,06,3,6,,,,,,,,,,,,,,,,,,,,,,,,,,,,,
652d8a4cd08c6435db58fd9b,SCN,2024-06-20_15h27.58.864,LearnStrategy,2023.2.3,MacIntel,63.29113924,,,,,,,,,,,2,10,3,7,,,,,,,,,,,,,,,,,,,,,,,,,,,,,
652d8a4cd08c6435db58fd9b,SCN,2024-06-20_15h27.58.864,LearnStrategy,2023.2.3,MacIntel,63.29113924,,,,,,,,,,,3,07,3,8,,,,,,,,,,,,,,,,,,,,,,,,,,,,,
652d8a4cd08c6435db58fd9b,SCN,2024-06-20_15h27.58.864,LearnStrategy,2023.2.3,MacIntel,63.29113924,,,,,,,,,,,6,06,4,1,,,,,,,,,,,,,,,,,,,,,,,,,,,,,
652d8a4cd08c6435db58fd9b,SCN,2024-06-20_15h27.58.864,LearnStrategy,2023.2.3,MacIntel,63.29113924,,,,,,,,,,,6,16,4,2,,,,,,,,,,,,,,,,,,,,,,,,,,,,,
652d8a4cd08c6435db58fd9b,SCN,2024-06-20_15h27.58.864,LearnStrategy,2023.2.3,MacIntel,63.29113924,,,,,,,,,,,6,08,4,3,,,,,,,,,,,,,,,,,,,,,,,,,,,,,
652d8a4cd08c6435db58fd9b,SCN,2024-06-20_15h27.58.864,LearnStrategy,2023.2.3,MacIntel,63.29113924,,,,,,,,,,,6,13,4,4,,,,,,,,,,,,,,,,,,,,,,,,,,,,,
652d8a4cd08c6435db58fd9b,SCN,2024-06-20_15h27.58.864,LearnStrategy,2023.2.3,MacIntel,63.29113924,,,,,,,,,,,7,10,4,5,,,,,,,,,,,,,,,,,,,,,,,,,,,,,
652d8a4cd08c6435db58fd9b,SCN,2024-06-20_15h27.58.864,LearnStrategy,2023.2.3,MacIntel,63.29113924,,,,,,,,,,,5,09,4,6,,,,,,,,,,,,,,,,,,,,,,,,,,,,,
652d8a4cd08c6435db58fd9b,SCN,2024-06-20_15h27.58.864,LearnStrategy,2023.2.3,MacIntel,63.29113924,,,,,,,,,,,7,02,4,7,,,,,,,,,,,,,,,,,,,,,,,,,,,,,
652d8a4cd08c6435db58fd9b,SCN,2024-06-20_15h27.58.864,LearnStrategy,2023.2.3,MacIntel,63.29113924,,,,,,,,,,,7,16,4,8,,,,,,,,,,,,,,,,,,,,,,,,,,,,,
652d8a4cd08c6435db58fd9b,SCN,2024-06-20_15h27.58.864,LearnStrategy,2023.2.3,MacIntel,63.29113924,,,,,,,,,,,4,14,5,1,,,,,,,,,,,,,,,,,,,,,,,,,,,,,
652d8a4cd08c6435db58fd9b,SCN,2024-06-20_15h27.58.864,LearnStrategy,2023.2.3,MacIntel,63.29113924,,,,,,,,,,,4,03,5,2,,,,,,,,,,,,,,,,,,,,,,,,,,,,,
652d8a4cd08c6435db58fd9b,SCN,2024-06-20_15h27.58.864,LearnStrategy,2023.2.3,MacIntel,63.29113924,,,,,,,,,,,2,09,5,3,,,,,,,,,,,,,,,,,,,,,,,,,,,,,
652d8a4cd08c6435db58fd9b,SCN,2024-06-20_15h27.58.864,LearnStrategy,2023.2.3,MacIntel,63.29113924,,,,,,,,,,,5,07,5,4,,,,,,,,,,,,,,,,,,,,,,,,,,,,,
652d8a4cd08c6435db58fd9b,SCN,2024-06-20_15h27.58.864,LearnStrategy,2023.2.3,MacIntel,63.29113924,,,,,,,,,,,8,05,5,5,,,,,,,,,,,,,,,,,,,,,,,,,,,,,
652d8a4cd08c6435db58fd9b,SCN,2024-06-20_15h27.58.864,LearnStrategy,2023.2.3,MacIntel,63.29113924,,,,,,,,,,,1,05,5,6,,,,,,,,,,,,,,,,,,,,,,,,,,,,,
652d8a4cd08c6435db58fd9b,SCN,2024-06-20_15h27.58.864,LearnStrategy,2023.2.3,MacIntel,63.29113924,,,,,,,,,,,1,04,5,7,,,,,,,,,,,,,,,,,,,,,,,,,,,,,
652d8a4cd08c6435db58fd9b,SCN,2024-06-20_15h27.58.864,LearnStrategy,2023.2.3,MacIntel,63.29113924,,,,,,,,,,,1,03,5,8,,,,,,,,,,,,,,,,,,,,,,,,,,,,,
652d8a4cd08c6435db58fd9b,SCN,2024-06-20_15h27.58.864,LearnStrategy,2023.2.3,MacIntel,63.29113924,,,,,,,,,,,6,07,6,1,,,,,,,,,,,,,,,,,,,,,,,,,,,,,
652d8a4cd08c6435db58fd9b,SCN,2024-06-20_15h27.58.864,LearnStrategy,2023.2.3,MacIntel,63.29113924,,,,,,,,,,,5,10,6,2,,,,,,,,,,,,,,,,,,,,,,,,,,,,,
652d8a4cd08c6435db58fd9b,SCN,2024-06-20_15h27.58.864,LearnStrategy,2023.2.3,MacIntel,63.29113924,,,,,,,,,,,2,02,6,3,,,,,,,,,,,,,,,,,,,,,,,,,,,,,
652d8a4cd08c6435db58fd9b,SCN,2024-06-20_15h27.58.864,LearnStrategy,2023.2.3,MacIntel,63.29113924,,,,,,,,,,,5,04,6,4,,,,,,,,,,,,,,,,,,,,,,,,,,,,,
652d8a4cd08c6435db58fd9b,SCN,2024-06-20_15h27.58.864,LearnStrategy,2023.2.3,MacIntel,63.29113924,,,,,,,,,,,3,02,6,5,,,,,,,,,,,,,,,,,,,,,,,,,,,,,
652d8a4cd08c6435db58fd9b,SCN,2024-06-20_15h27.58.864,LearnStrategy,2023.2.3,MacIntel,63.29113924,,,,,,,,,,,3,13,6,6,,,,,,,,,,,,,,,,,,,,,,,,,,,,,
652d8a4cd08c6435db58fd9b,SCN,2024-06-20_15h27.58.864,LearnStrategy,2023.2.3,MacIntel,63.29113924,,,,,,,,,,,8,03,6,7,,,,,,,,,,,,,,,,,,,,,,,,,,,,,
652d8a4cd08c6435db58fd9b,SCN,2024-06-20_15h27.58.864,LearnStrategy,2023.2.3,MacIntel,63.29113924,,,,,,,,,,,2,11,6,8,,,,,,,,,,,,,,,,,,,,,,,,,,,,,