participant,condition,date,expName,psychopyVersion,OS,frameRate,block,phase,trial,learn_mouse.x,learn_mouse.y,learn_mouse.leftButton,learn_mouse.midButton,learn_mouse.rightButton,learn_mouse.time,learn_mouse.clicked_name,cat,token,row,col,t_select,cat_rec,token_rec,cat_mouse_l.x,cat_mouse_l.y,cat_mouse_l.leftButton,cat_mouse_l.midButton,cat_mouse_l.rightButton,cat_mouse_l.time,cat_mouse_l.clicked_name,resp,t_resp,corr,train_trials.thisRepN,train_trials.thisTrialN,train_trials.thisN,train_trials.thisIndex,train_trials.ran,cat_mouse_t.x,cat_mouse_t.y,cat_mouse_t.leftButton,cat_mouse_t.midButton,cat_mouse_t.rightButton,cat_mouse_t.time,cat_mouse_t.clicked_name,test_trials.thisRepN,test_trials.thisTrialN,test_trials.thisN,test_trials.thisIndex,test_trials.ran,Bonus
652ece1281c00c38eaafed26,SCR,2024-06-24_11h45.09.336,LearnStrategy,2023.2.3,MacIntel,75.18796992,,,,,,,,,,,,,,,,,,,,,,,,,,,,,,,,,,,,,,,,,,,,,
652ece1281c00c38eaafed26,SCR,2024-06-24_11h45.09.336,LearnStrategy,2023.2.3,MacIntel,75.18796992,1,1,1,-0.241218171,-0.412995515,1,0,0,2.1333,Obsidian_10,5,10,1,3,2.133,5,10,-0.10608724,-0.239554398,1,0,0,6.8445,Basalt_rect,2,6.845,0,0,0,0,0,1,,,,,,,,,,,,,
652ece1281c00c38eaafed26,SCR,2024-06-24_11h45.09.336,LearnStrategy,2023.2.3,MacIntel,75.18796992,1,1,2,0.54911386,-0.099757668,1,0,0,1.4867,Gabbro_03,4,03,3,8,1.487,4,03,0.347265625,-0.407617187,1,0,0,5.182,Pumice_rect,8,5.182,0,1,0,1,0,1,,,,,,,,,,,,,
652ece1281c00c38eaafed26,SCR,2024-06-24_11h45.09.336,LearnStrategy,2023.2.3,MacIntel,75.18796992,1,1,3,0.054810475,-0.085543258,1,0,0,1.3821,Peridotite_12,7,12,3,5,1.382,7,12,-0.424327257,-0.244071904,1,0,0,3.4858,Andesite_rect,1,3.486,0,2,0,2,0,1,,,,,,,,,,,,,
652ece1281c00c38eaafed26,SCR,2024-06-24_11h45.09.336,LearnStrategy,2023.2.3,MacIntel,75.18796992,1,1,4,0.067013889,0.397395833,1,0,0,2.502,Pegmatite_12,6,12,6,5,2.502,6,12,-0.076041667,-0.390046296,1,0,0,4.0455,Pegmatite_rect,6,4.046,1,3,0,3,0,1,,,,,,,,,,,,,
652ece1281c00c38eaafed26,SCR,2024-06-24_11h45.09.336,LearnStrategy,2023.2.3,MacIntel,75.18796992,1,1,5,-0.387167245,0.254231771,1,0,0,1.4551,Obsidian_16,5,16,5,2,1.455,5,16,-0.390075231,-0.419639757,1,0,0,6.899,Obsidian_rect,5,6.899,1,4,0,4,0,1,,,,,,,,,,,,,
652ece1281c00c38eaafed26,SCR,2024-06-24_11h45.09.336,LearnStrategy,2023.2.3,MacIntel,75.18796992,1,1,6,-0.238849103,0.2760489,1,0,0,0.9683,Gabbro_15,4,15,5,3,0.968,4,15,0.460955584,-0.259801794,1,0,0,2.9639,Gabbro_rect,4,2.964,1,5,0,5,0,1,,,,,,,,,,,,,
652ece1281c00c38eaafed26,SCR,2024-06-24_11h45.09.336,LearnStrategy,2023.2.3,MacIntel,75.18796992,1,1,7,0.542104311,-0.290389902,1,0,0,1.1291,Peridotite_06,7,06,2,8,1.129,7,06,-0.351555266,-0.253421586,1,0,0,2.2597,Andesite_rect,1,2.26,0,6,0,6,0,1,,,,,,,,,,,,,
652ece1281c00c38eaafed26,SCR,2024-06-24_11h45.09.336,LearnStrategy,2023.2.3,MacIntel,75.18796992,1,1,8,-0.519198495,-0.089894387,1,0,0,1.0106,Andesite_07,1,07,3,1,1.011,1,07,-0.117708333,-0.24615162,1,0,0,2.3398,Basalt_rect,2,2.34,0,7,0,7,0,1,,,,,,,,,,,,,
652ece1281c00c38eaafed26,SCR,2024-06-24_11h45.09.336,LearnStrategy,2023.2.3,MacIntel,75.18796992,1,1,9,0.391818576,-0.423296441,1,0,0,0.9848,Diorite_02,3,02,1,7,0.985,3,02,0.403559028,-0.404097946,1,0,0,3.8332,Pumice_rect,8,3.833,0,8,0,8,0,1,,,,,,,,,,,,,
652ece1281c00c38eaafed26,SCR,2024-06-24_11h45.09.336,LearnStrategy,2023.2.3,MacIntel,75.18796992,1,1,10,0.239196325,0.070920139,1,0,0,1.1819,Pegmatite_10,6,10,4,6,1.182,6,10,-0.090295862,-0.378736256,1,0,0,3.6076,Pegmatite_rect,6,3.608,1,9,0,9,0,1,,,,,,,,,,,,,
652ece1281c00c38eaafed26,SCR,2024-06-24_11h45.09.336,LearnStrategy,2023.2.3,MacIntel,75.18796992,1,1,11,0.195203993,0.250477431,1,0,0,1.3043,Basalt_10,2,10,5,6,1.304,2,10,-0.370247396,-0.406383825,1,0,0,2.5002,Obsidian_rect,5,2.5,0,10,0,10,0,1,,,,,,,,,,,,,
652ece1281c00c38eaafed26,SCR,2024-06-24_11h45.09.336,LearnStrategy,2023.2.3,MacIntel,75.18796992,1,1,12,0.080635127,0.084859664,1,0,0,0.8215,Pumice_09,8,09,4,5,0.821,8,09,0.106637008,-0.396556713,1,0,0,5.4117,Peridotite_rect,7,5.412,0,11,0,11,0,1,,,,,,,,,,,,,
652ece1281c00c38eaafed26,SCR,2024-06-24_11h45.09.336,LearnStrategy,2023.2.3,MacIntel,75.18796992,1,1,13,0.525625723,-0.376945891,1,0,0,1.4102,Andesite_09,1,09,1,8,1.41,1,09,0.177694589,-0.261490885,1,0,0,4.075,Diorite_rect,3,4.075,0,12,0,12,0,1,,,,,,,,,,,,,
652ece1281c00c38eaafed26,SCR,2024-06-24_11h45.09.336,LearnStrategy,2023.2.3,MacIntel,75.18796992,1,1,14,-0.088827402,0.44801794,1,0,0,1.2487,Basalt_06,2,06,6,4,1.249,2,06,-0.181655093,-0.265245226,1,0,0,2.8059,Basalt_rect,2,2.806,1,13,0,13,0,1,,,,,,,,,,,,,
652ece1281c00c38eaafed26,SCR,2024-06-24_11h45.09.336,LearnStrategy,2023.2.3,MacIntel,75.18796992,1,1,15,-0.045222078,0.07770544,1,0,0,0.6885,Pumice_10,8,10,4,4,0.689,8,10,0.38510923,-0.382280816,1,0,0,1.4743,Pumice_rect,8,1.474,1,14,0,14,0,1,,,,,,,,,,,,,
652ece1281c00c38eaafed26,SCR,2024-06-24_11h45.09.336,LearnStrategy,2023.2.3,MacIntel,75.18796992,1,1,16,-0.598687066,0.116384549,1,0,0,1.0382,Diorite_09,3,09,4,1,1.038,3,09,-0.361801939,-0.258416522,1,0,0,2.2865,Andesite_rect,1,2.287,0,15,0,15,0,1,,,,,,,,,,,,,
652ece1281c00c38eaafed26,SCR,2024-06-24_11h45.09.336,LearnStrategy,2023.2.3,MacIntel,75.18796992,1,2,1,,,,,,,,3,08,,,,,,,,,,,,,6,9.505,0,,,,,,-0.175491898,-0.400972946,1,0,0,9.5047,Pegmatite_rect,0,0,0,0,1,
652ece1281c00c38eaafed26,SCR,2024-06-24_11h45.09.336,LearnStrategy,2023.2.3,MacIntel,75.18796992,1,2,2,,,,,,,,5,14,,,,,,,,,,,,,5,2.332,1,,,,,,-0.363874421,-0.404578993,1,0,0,2.332,Obsidian_rect,1,0,1,0,1,
652ece1281c00c38eaafed26,SCR,2024-06-24_11h45.09.336,LearnStrategy,2023.2.3,MacIntel,75.18796992,1,2,3,,,,,,,,7,07,,,,,,,,,,,,,1,4.407,0,,,,,,-0.336306424,-0.255403646,1,0,0,4.407,Andesite_rect,2,0,2,0,1,
652ece1281c00c38eaafed26,SCR,2024-06-24_11h45.09.336,LearnStrategy,2023.2.3,MacIntel,75.18796992,1,2,4,,,,,,,,6,09,,,,,,,,,,,,,3,2.797,0,,,,,,0.20942202,-0.249287471,1,0,0,2.7969,Diorite_rect,3,0,3,0,1,
652ece1281c00c38eaafed26,SCR,2024-06-24_11h45.09.336,LearnStrategy,2023.2.3,MacIntel,75.18796992,1,2,5,,,,,,,,2,12,,,,,,,,,,,,,8,1.825,0,,,,,,0.364854601,-0.381933594,1,0,0,1.8253,Pumice_rect,4,0,4,0,1,
652ece1281c00c38eaafed26,SCR,2024-06-24_11h45.09.336,LearnStrategy,2023.2.3,MacIntel,75.18796992,1,2,6,,,,,,,,5,08,,,,,,,,,,,,,5,2.112,1,,,,,,-0.439113137,-0.416822193,1,0,0,2.1118,Obsidian_rect,5,0,5,0,1,
652ece1281c00c38eaafed26,SCR,2024-06-24_11h45.09.336,LearnStrategy,2023.2.3,MacIntel,75.18796992,1,2,7,,,,,,,,4,01,,,,,,,,,,,,,4,1.971,1,,,,,,0.359555845,-0.243373843,1,0,0,1.9713,Gabbro_rect,6,0,6,0,1,
652ece1281c00c38eaafed26,SCR,2024-06-24_11h45.09.336,LearnStrategy,2023.2.3,MacIntel,75.18796992,1,2,8,,,,,,,,3,15,,,,,,,,,,,,,4,6.126,0,,,,,,0.363183594,-0.230946181,1,0,0,6.1259,Gabbro_rect,7,0,7,0,1,
652ece1281c00c38eaafed26,SCR,2024-06-24_11h45.09.336,LearnStrategy,2023.2.3,MacIntel,75.18796992,1,2,9,,,,,,,,1,01,,,,,,,,,,,,,2,2.81,0,,,,,,-0.09848452,-0.24770327,1,0,0,2.81,Basalt_rect,8,0,8,0,1,
652ece1281c00c38eaafed26,SCR,2024-06-24_11h45.09.336,LearnStrategy,2023.2.3,MacIntel,75.18796992,1,2,10,,,,,,,,6,16,,,,,,,,,,,,,7,6.118,0,,,,,,0.153226273,-0.417755353,1,0,0,6.1183,Peridotite_rect,9,0,9,0,1,
652ece1281c00c38eaafed26,SCR,2024-06-24_11h45.09.336,LearnStrategy,2023.2.3,MacIntel,75.18796992,1,2,11,,,,,,,,8,05,,,,,,,,,,,,,8,1.328,1,,,,,,0.392299624,-0.388769531,1,0,0,1.3282,Pumice_rect,10,0,10,0,1,
652ece1281c00c38eaafed26,SCR,2024-06-24_11h45.09.336,LearnStrategy,2023.2.3,MacIntel,75.18796992,1,2,12,,,,,,,,7,04,,,,,,,,,,,,,3,2.702,0,,,,,,0.086639178,-0.233025897,1,0,0,2.7025,Diorite_rect,11,0,11,0,1,
652ece1281c00c38eaafed26,SCR,2024-06-24_11h45.09.336,LearnStrategy,2023.2.3,MacIntel,75.18796992,1,2,13,,,,,,,,1,02,,,,,,,,,,,,,1,3.144,1,,,,,,-0.310991753,-0.228399884,1,0,0,3.1437,Andesite_rect,12,0,12,0,1,
652ece1281c00c38eaafed26,SCR,2024-06-24_11h45.09.336,LearnStrategy,2023.2.3,MacIntel,75.18796992,1,2,14,,,,,,,,2,08,,,,,,,,,,,,,2,6.101,1,,,,,,-0.164029948,-0.258282697,1,0,0,6.1013,Basalt_rect,13,0,13,0,1,
652ece1281c00c38eaafed26,SCR,2024-06-24_11h45.09.336,LearnStrategy,2023.2.3,MacIntel,75.18796992,1,2,15,,,,,,,,4,11,,,,,,,,,,,,,3,2.158,0,,,,,,0.107096354,-0.238085938,1,0,0,2.1582,Diorite_rect,14,0,14,0,1,
652ece1281c00c38eaafed26,SCR,2024-06-24_11h45.09.336,LearnStrategy,2023.2.3,MacIntel,75.18796992,1,2,16,,,,,,,,8,08,,,,,,,,,,,,,8,1.138,1,,,,,,0.355870226,-0.380016638,1,0,0,1.138,Pumice_rect,15,0,15,0,1,
652ece1281c00c38eaafed26,SCR,2024-06-24_11h45.09.336,LearnStrategy,2023.2.3,MacIntel,75.18796992,2,1,1,0.578363715,0.261816406,1,0,0,1.2121,Gabbro_09,4,09,5,8,1.212,4,09,-0.102835648,-0.254770689,1,0,0,6.144,Basalt_rect,2,6.144,0,0,0,0,0,1,,,,,,,,,,,,,
652ece1281c00c38eaafed26,SCR,2024-06-24_11h45.09.336,LearnStrategy,2023.2.3,MacIntel,75.18796992,2,1,2,0.559563079,0.065784144,1,0,0,1.1034,Andesite_06,1,06,4,8,1.103,1,06,-0.319889323,-0.231788918,1,0,0,1.6094,Andesite_rect,1,1.609,1,1,0,1,0,1,,,,,,,,,,,,,
652ece1281c00c38eaafed26,SCR,2024-06-24_11h45.09.336,LearnStrategy,2023.2.3,MacIntel,75.18796992,2,1,3,0.190780527,-0.402293113,1,0,0,1.1286,Andesite_16,1,16,1,6,1.129,1,16,-0.354517506,-0.234986256,1,0,0,2.02,Andesite_rect,1,2.02,1,2,0,2,0,1,,,,,,,,,,,,,
652ece1281c00c38eaafed26,SCR,2024-06-24_11h45.09.336,LearnStrategy,2023.2.3,MacIntel,75.18796992,2,1,4,0.05641276,0.381528501,1,0,0,1.5959,Pegmatite_12,6,12,6,5,1.596,6,12,0.292513021,-0.23733724,1,0,0,1.9712,Gabbro_rect,4,1.971,0,3,0,3,0,1,,,,,,,,,,,,,
652ece1281c00c38eaafed26,SCR,2024-06-24_11h45.09.336,LearnStrategy,2023.2.3,MacIntel,75.18796992,2,1,5,-0.538049769,-0.277423322,1,0,0,1.3034,Pumice_15,8,15,2,1,1.303,8,15,0.40931713,-0.411841725,1,0,0,1.9422,Pumice_rect,8,1.942,1,4,0,4,0,1,,,,,,,,,,,,,
652ece1281c00c38eaafed26,SCR,2024-06-24_11h45.09.336,LearnStrategy,2023.2.3,MacIntel,75.18796992,2,1,6,0.0911386,-0.288961227,1,0,0,1.0352,Diorite_07,3,07,2,5,1.035,3,07,0.056835938,-0.40057147,1,0,0,2.2071,Peridotite_rect,7,2.207,0,5,0,5,0,1,,,,,,,,,,,,,
652ece1281c00c38eaafed26,SCR,2024-06-24_11h45.09.336,LearnStrategy,2023.2.3,MacIntel,75.18796992,2,1,7,0.074030671,-0.081640625,1,0,0,0.7312,Peridotite_12,7,12,3,5,0.731,7,12,0.110246672,-0.254759838,1,0,0,5.5941,Diorite_rect,3,5.594,0,6,0,6,0,1,,,,,,,,,,,,,
652ece1281c00c38eaafed26,SCR,2024-06-24_11h45.09.336,LearnStrategy,2023.2.3,MacIntel,75.18796992,2,1,8,0.571082899,0.390574363,1,0,0,1.3171,Pegmatite_08,6,08,6,8,1.317,6,08,-0.33348886,-0.266370081,1,0,0,1.7571,Andesite_rect,1,1.757,0,7,0,7,0,1,,,,,,,,,,,,,
652ece1281c00c38eaafed26,SCR,2024-06-24_11h45.09.336,LearnStrategy,2023.2.3,MacIntel,75.18796992,2,1,9,0.104354745,0.292657697,1,0,0,0.8664,Basalt_16,2,16,5,5,0.866,2,16,-0.136537905,-0.229152199,1,0,0,2.861,Basalt_rect,2,2.861,1,8,0,8,0,1,,,,,,,,,,,,,
652ece1281c00c38eaafed26,SCR,2024-06-24_11h45.09.336,LearnStrategy,2023.2.3,MacIntel,75.18796992,2,1,10,0.201468461,0.065010127,1,0,0,0.9575,Pegmatite_10,6,10,4,6,0.957,6,10,0.168164062,-0.2645761,1,0,0,4.006,Diorite_rect,3,4.006,0,9,0,9,0,1,,,,,,,,,,,,,
652ece1281c00c38eaafed26,SCR,2024-06-24_11h45.09.336,LearnStrategy,2023.2.3,MacIntel,75.18796992,2,1,11,-0.377662037,-0.266482205,1,0,0,1.1706,Diorite_13,3,13,2,2,1.171,3,13,0.372967303,-0.258141638,1,0,0,3.1427,Gabbro_rect,4,3.143,0,10,0,10,0,1,,,,,,,,,,,,,
652ece1281c00c38eaafed26,SCR,2024-06-24_11h45.09.336,LearnStrategy,2023.2.3,MacIntel,75.18796992,2,1,12,0.093496817,0.22349537,1,0,0,1.038,Basalt_16,2,16,5,5,1.038,2,16,-0.124504485,-0.235583044,1,0,0,1.7539,Basalt_rect,2,1.754,1,11,0,11,0,1,,,,,,,,,,,,,
652ece1281c00c38eaafed26,SCR,2024-06-24_11h45.09.336,LearnStrategy,2023.2.3,MacIntel,75.18796992,2,1,13,0.071686921,-0.450437645,1,0,0,1.4896,Peridotite_08,7,08,1,5,1.49,7,08,-0.070052083,-0.414872685,1,0,0,3.5162,Pegmatite_rect,6,3.516,0,12,0,12,0,1,,,,,,,,,,,,,
652ece1281c00c38eaafed26,SCR,2024-06-24_11h45.09.336,LearnStrategy,2023.2.3,MacIntel,75.18796992,2,1,14,-0.045862269,-0.102712674,1,0,0,0.6788,Gabbro_05,4,05,3,4,0.679,4,05,0.058919271,-0.398723235,1,0,0,3.0846,Peridotite_rect,7,3.085,0,13,0,13,0,1,,,,,,,,,,,,,
652ece1281c00c38eaafed26,SCR,2024-06-24_11h45.09.336,LearnStrategy,2023.2.3,MacIntel,75.18796992,2,1,15,0.058308015,-0.393930845,1,0,0,0.7574,Peridotite_08,7,08,1,5,0.757,7,08,0.403407118,-0.245999711,1,0,0,1.5926,Gabbro_rect,4,1.593,0,14,0,14,0,1,,,,,,,,,,,,,
652ece1281c00c38eaafed26,SCR,2024-06-24_11h45.09.336,LearnStrategy,2023.2.3,MacIntel,75.18796992,2,1,16,0.406253617,-0.441391782,1,0,0,1.3028,Diorite_02,3,02,1,7,1.303,3,02,0.162923177,-0.257291667,1,0,0,4.2071,Diorite_rect,3,4.207,1,15,0,15,0,1,,,,,,,,,,,,,
652ece1281c00c38eaafed26,SCR,2024-06-24_11h45.09.336,LearnStrategy,2023.2.3,MacIntel,75.18796992,2,2,1,,,,,,,,8,03,,,,,,,,,,,,,8,3.529,1,,,,,,0.37130353,-0.395692274,1,0,0,3.5295,Pumice_rect,0,0,0,0,1,
652ece1281c00c38eaafed26,SCR,2024-06-24_11h45.09.336,LearnStrategy,2023.2.3,MacIntel,75.18796992,2,2,2,,,,,,,,4,10,,,,,,,,,,,,,2,2.681,0,,,,,,-0.110257523,-0.265407986,1,0,0,2.6815,Basalt_rect,1,0,1,0,1,
652ece1281c00c38eaafed26,SCR,2024-06-24_11h45.09.336,LearnStrategy,2023.2.3,MacIntel,75.18796992,2,2,3,,,,,,,,2,05,,,,,,,,,,,,,5,3.754,0,,,,,,-0.381467014,-0.400831887,1,0,0,3.754,Obsidian_rect,2,0,2,0,1,
652ece1281c00c38eaafed26,SCR,2024-06-24_11h45.09.336,LearnStrategy,2023.2.3,MacIntel,75.18796992,2,2,4,,,,,,,,3,10,,,,,,,,,,,,,4,9.772,0,,,,,,0.380045573,-0.243663194,1,0,0,9.7715,Gabbro_rect,3,0,3,0,1,
652ece1281c00c38eaafed26,SCR,2024-06-24_11h45.09.336,LearnStrategy,2023.2.3,MacIntel,75.18796992,2,2,5,,,,,,,,2,09,,,,,,,,,,,,,2,1.489,1,,,,,,-0.142560041,-0.263404225,1,0,0,1.4889,Basalt_rect,4,0,4,0,1,
652ece1281c00c38eaafed26,SCR,2024-06-24_11h45.09.336,LearnStrategy,2023.2.3,MacIntel,75.18796992,2,2,6,,,,,,,,8,13,,,,,,,,,,,,,8,1.222,1,,,,,,0.359371383,-0.388577836,1,0,0,1.2225,Pumice_rect,5,0,5,0,1,
652ece1281c00c38eaafed26,SCR,2024-06-24_11h45.09.336,LearnStrategy,2023.2.3,MacIntel,75.18796992,2,2,7,,,,,,,,6,13,,,,,,,,,,,,,6,6.596,1,,,,,,-0.097996238,-0.402687355,1,0,0,6.5963,Pegmatite_rect,6,0,6,0,1,
652ece1281c00c38eaafed26,SCR,2024-06-24_11h45.09.336,LearnStrategy,2023.2.3,MacIntel,75.18796992,2,2,8,,,,,,,,5,02,,,,,,,,,,,,,5,1.129,1,,,,,,-0.333047598,-0.403302228,1,0,0,1.1289,Obsidian_rect,7,0,7,0,1,
652ece1281c00c38eaafed26,SCR,2024-06-24_11h45.09.336,LearnStrategy,2023.2.3,MacIntel,75.18796992,2,2,9,,,,,,,,3,06,,,,,,,,,,,,,2,3.325,0,,,,,,-0.159006076,-0.246216725,1,0,0,3.3254,Basalt_rect,8,0,8,0,1,
652ece1281c00c38eaafed26,SCR,2024-06-24_11h45.09.336,LearnStrategy,2023.2.3,MacIntel,75.18796992,2,2,10,,,,,,,,6,15,,,,,,,,,,,,,3,3.477,0,,,,,,0.089051649,-0.239196325,1,0,0,3.4771,Diorite_rect,9,0,9,0,1,
652ece1281c00c38eaafed26,SCR,2024-06-24_11h45.09.336,LearnStrategy,2023.2.3,MacIntel,75.18796992,2,2,11,,,,,,,,1,05,,,,,,,,,,,,,7,3.93,0,,,,,,0.09526548,-0.400842737,1,0,0,3.9298,Peridotite_rect,10,0,10,0,1,
652ece1281c00c38eaafed26,SCR,2024-06-24_11h45.09.336,LearnStrategy,2023.2.3,MacIntel,75.18796992,2,2,12,,,,,,,,4,16,,,,,,,,,,,,,2,6.095,0,,,,,,-0.196495226,-0.258492477,1,0,0,6.0951,Basalt_rect,11,0,11,0,1,
652ece1281c00c38eaafed26,SCR,2024-06-24_11h45.09.336,LearnStrategy,2023.2.3,MacIntel,75.18796992,2,2,13,,,,,,,,7,05,,,,,,,,,,,,,4,7.437,0,,,,,,0.318836806,-0.270442708,1,0,0,7.4374,Gabbro_rect,12,0,12,0,1,
652ece1281c00c38eaafed26,SCR,2024-06-24_11h45.09.336,LearnStrategy,2023.2.3,MacIntel,75.18796992,2,2,14,,,,,,,,5,07,,,,,,,,,,,,,5,1.277,1,,,,,,-0.331843171,-0.418117043,1,0,0,1.2772,Obsidian_rect,13,0,13,0,1,
652ece1281c00c38eaafed26,SCR,2024-06-24_11h45.09.336,LearnStrategy,2023.2.3,MacIntel,75.18796992,2,2,15,,,,,,,,1,04,,,,,,,,,,,,,1,1.433,1,,,,,,-0.404951534,-0.251406973,1,0,0,1.4332,Andesite_rect,14,0,14,0,1,
652ece1281c00c38eaafed26,SCR,2024-06-24_11h45.09.336,LearnStrategy,2023.2.3,MacIntel,75.18796992,2,2,16,,,,,,,,7,15,,,,,,,,,,,,,3,2.178,0,,,,,,0.147207755,-0.261498119,1,0,0,2.1779,Diorite_rect,15,0,15,0,1,
652ece1281c00c38eaafed26,SCR,2024-06-24_11h45.09.336,LearnStrategy,2023.2.3,MacIntel,75.18796992,3,1,1,-0.36245298,-0.224254919,1,0,0,1.2518,Diorite_13,3,13,2,2,1.252,3,13,-0.455910012,-0.229557292,1,0,0,6.2235,Andesite_rect,1,6.224,0,0,0,0,0,1,,,,,,,,,,,,,
652ece1281c00c38eaafed26,SCR,2024-06-24_11h45.09.336,LearnStrategy,2023.2.3,MacIntel,75.18796992,3,1,2,-0.27020761,0.142928964,1,0,0,1.3717,Peridotite_13,7,13,4,3,1.372,7,13,-0.358297164,-0.241051794,1,0,0,2.8023,Andesite_rect,1,2.802,0,1,0,1,0,1,,,,,,,,,,,,,
652ece1281c00c38eaafed26,SCR,2024-06-24_11h45.09.336,LearnStrategy,2023.2.3,MacIntel,75.18796992,3,1,3,0.246755642,0.441247106,1,0,0,1.1419,Basalt_01,2,01,6,6,1.142,2,01,-0.074782986,-0.234215856,1,0,0,2.1688,Basalt_rect,2,2.169,1,2,0,2,0,1,,,,,,,,,,,,,
652ece1281c00c38eaafed26,SCR,2024-06-24_11h45.09.336,LearnStrategy,2023.2.3,MacIntel,75.18796992,3,1,4,0.394773582,-0.26030816,1,0,0,1.3844,Diorite_14,3,14,2,7,1.384,3,14,0.380327691,-0.268258102,1,0,0,1.953,Gabbro_rect,4,1.953,0,3,0,3,0,1,,,,,,,,,,,,,
652ece1281c00c38eaafed26,SCR,2024-06-24_11h45.09.336,LearnStrategy,2023.2.3,MacIntel,75.18796992,3,1,5,0.111697049,-0.273781105,1,0,0,1.2521,Diorite_07,3,07,2,5,1.252,3,07,0.132483362,-0.241525608,1,0,0,0.845,Diorite_rect,3,0.845,1,4,0,4,0,1,,,,,,,,,,,,,
652ece1281c00c38eaafed26,SCR,2024-06-24_11h45.09.336,LearnStrategy,2023.2.3,MacIntel,75.18796992,3,1,6,0.061346209,0.217737269,1,0,0,1.3435,Basalt_16,2,16,5,5,1.344,2,16,-0.041272425,-0.253725405,1,0,0,1.6073,Basalt_rect,2,1.607,1,5,0,5,0,1,,,,,,,,,,,,,
652ece1281c00c38eaafed26,SCR,2024-06-24_11h45.09.336,LearnStrategy,2023.2.3,MacIntel,75.18796992,3,1,7,0.510543258,0.212648293,1,0,0,1.2767,Gabbro_09,4,09,5,8,1.277,4,09,0.436754919,-0.239380787,1,0,0,2.5808,Gabbro_rect,4,2.581,1,6,0,6,0,1,,,,,,,,,,,,,
652ece1281c00c38eaafed26,SCR,2024-06-24_11h45.09.336,LearnStrategy,2023.2.3,MacIntel,75.18796992,3,1,8,-0.189662905,0.226182726,1,0,0,0.9176,Gabbro_15,4,15,5,3,0.918,4,15,0.091051794,-0.245949074,1,0,0,2.3821,Diorite_rect,3,2.382,0,7,0,7,0,1,,,,,,,,,,,,,
652ece1281c00c38eaafed26,SCR,2024-06-24_11h45.09.336,LearnStrategy,2023.2.3,MacIntel,75.18796992,3,1,9,0.22438151,0.098357928,1,0,0,0.7289,Pegmatite_10,6,10,4,6,0.729,6,10,0.12385706,-0.396459057,1,0,0,4.0352,Peridotite_rect,7,4.035,0,8,0,8,0,1,,,,,,,,,,,,,
652ece1281c00c38eaafed26,SCR,2024-06-24_11h45.09.336,LearnStrategy,2023.2.3,MacIntel,75.18796992,3,1,10,-0.207443576,-0.443898293,1,0,0,1.2254,Obsidian_10,5,10,1,3,1.225,5,10,-0.328240741,-0.406311487,1,0,0,0.9926,Obsidian_rect,5,0.993,1,9,0,9,0,1,,,,,,,,,,,,,
652ece1281c00c38eaafed26,SCR,2024-06-24_11h45.09.336,LearnStrategy,2023.2.3,MacIntel,75.18796992,3,1,11,0.35661169,0.047171586,1,0,0,0.8133,Peridotite_14,7,14,4,7,0.813,7,14,-0.034168837,-0.407302517,1,0,0,3.2326,Pegmatite_rect,6,3.233,0,10,0,10,0,1,,,,,,,,,,,,,
652ece1281c00c38eaafed26,SCR,2024-06-24_11h45.09.336,LearnStrategy,2023.2.3,MacIntel,75.18796992,3,1,12,-0.552202691,0.440411603,1,0,0,1.278,Gabbro_13,4,13,6,1,1.278,4,13,0.399023438,-0.265404369,1,0,0,2.0066,Gabbro_rect,4,2.007,1,11,0,11,0,1,,,,,,,,,,,,,
652ece1281c00c38eaafed26,SCR,2024-06-24_11h45.09.336,LearnStrategy,2023.2.3,MacIntel,75.18796992,3,1,13,-0.559385851,-0.093070023,1,0,0,1.1189,Andesite_07,1,07,3,1,1.119,1,07,-0.375282118,-0.244773582,1,0,0,1.4188,Andesite_rect,1,1.419,1,12,0,12,0,1,,,,,,,,,,,,,
652ece1281c00c38eaafed26,SCR,2024-06-24_11h45.09.336,LearnStrategy,2023.2.3,MacIntel,75.18796992,3,1,14,0.285923032,0.095402922,1,0,0,2.6236,Pegmatite_10,6,10,4,6,2.624,6,10,0.135941117,-0.407635272,1,0,0,3.5562,Peridotite_rect,7,3.556,0,13,0,13,0,1,,,,,,,,,,,,,
652ece1281c00c38eaafed26,SCR,2024-06-24_11h45.09.336,LearnStrategy,2023.2.3,MacIntel,75.18796992,3,1,15,0.10441985,-0.425039786,1,0,0,1.4637,Peridotite_08,7,08,1,5,1.464,7,08,0.333691406,-0.269354022,1,0,0,2.6341,Gabbro_rect,4,2.634,0,14,0,14,0,1,,,,,,,,,,,,,
652ece1281c00c38eaafed26,SCR,2024-06-24_11h45.09.336,LearnStrategy,2023.2.3,MacIntel,75.18796992,3,1,16,0.543341291,-0.419542101,1,0,0,1.4235,Andesite_09,1,09,1,8,1.423,1,09,0.176443142,-0.395070168,1,0,0,1.7411,Peridotite_rect,7,1.741,0,15,0,15,0,1,,,,,,,,,,,,,
652ece1281c00c38eaafed26,SCR,2024-06-24_11h45.09.336,LearnStrategy,2023.2.3,MacIntel,75.18796992,3,2,1,,,,,,,,2,11,,,,,,,,,,,,,8,7.498,0,,,,,,0.418185764,-0.407353154,1,0,0,7.4979,Pumice_rect,0,0,0,0,1,
652ece1281c00c38eaafed26,SCR,2024-06-24_11h45.09.336,LearnStrategy,2023.2.3,MacIntel,75.18796992,3,2,2,,,,,,,,1,03,,,,,,,,,,,,,4,2.841,0,,,,,,0.403837529,-0.265570747,1,0,0,2.8411,Gabbro_rect,1,0,1,0,1,
652ece1281c00c38eaafed26,SCR,2024-06-24_11h45.09.336,LearnStrategy,2023.2.3,MacIntel,75.18796992,3,2,3,,,,,,,,1,11,,,,,,,,,,,,,1,2.015,1,,,,,,-0.394415509,-0.235807292,1,0,0,2.0145,Andesite_rect,2,0,2,0,1,
652ece1281c00c38eaafed26,SCR,2024-06-24_11h45.09.336,LearnStrategy,2023.2.3,MacIntel,75.18796992,3,2,4,,,,,,,,6,06,,,,,,,,,,,,,6,3.713,1,,,,,,-0.058897569,-0.39854239,1,0,0,3.7129,Pegmatite_rect,3,0,3,0,1,
652ece1281c00c38eaafed26,SCR,2024-06-24_11h45.09.336,LearnStrategy,2023.2.3,MacIntel,75.18796992,3,2,5,,,,,,,,8,02,,,,,,,,,,,,,8,1.263,1,,,,,,0.396223958,-0.419610822,1,0,0,1.2627,Pumice_rect,4,0,4,0,1,
652ece1281c00c38eaafed26,SCR,2024-06-24_11h45.09.336,LearnStrategy,2023.2.3,MacIntel,75.18796992,3,2,6,,,,,,,,5,04,,,,,,,,,,,,,5,1.448,1,,,,,,-0.351953125,-0.400083189,1,0,0,1.4477,Obsidian_rect,5,0,5,0,1,
652ece1281c00c38eaafed26,SCR,2024-06-24_11h45.09.336,LearnStrategy,2023.2.3,MacIntel,75.18796992,3,2,7,,,,,,,,4,14,,,,,,,,,,,,,4,2.097,1,,,,,,0.408123553,-0.253645833,1,0,0,2.0967,Gabbro_rect,6,0,6,0,1,
652ece1281c00c38eaafed26,SCR,2024-06-24_11h45.09.336,LearnStrategy,2023.2.3,MacIntel,75.18796992,3,2,8,,,,,,,,5,05,,,,,,,,,,,,,5,1.88,1,,,,,,-0.427806713,-0.388002749,1,0,0,1.8803,Obsidian_rect,7,0,7,0,1,
652ece1281c00c38eaafed26,SCR,2024-06-24_11h45.09.336,LearnStrategy,2023.2.3,MacIntel,75.18796992,3,2,9,,,,,,,,3,16,,,,,,,,,,,,,1,1.259,0,,,,,,-0.339453125,-0.252817564,1,0,0,1.2594,Andesite_rect,8,0,8,0,1,
652ece1281c00c38eaafed26,SCR,2024-06-24_11h45.09.336,LearnStrategy,2023.2.3,MacIntel,75.18796992,3,2,10,,,,,,,,3,11,,,,,,,,,,,,,4,2.69,0,,,,,,0.404712818,-0.257486979,1,0,0,2.6901,Gabbro_rect,9,0,9,0,1,
652ece1281c00c38eaafed26,SCR,2024-06-24_11h45.09.336,LearnStrategy,2023.2.3,MacIntel,75.18796992,3,2,11,,,,,,,,7,16,,,,,,,,,,,,,6,2.183,0,,,,,,-0.08760489,-0.4033818,1,0,0,2.1825,Pegmatite_rect,10,0,10,0,1,
652ece1281c00c38eaafed26,SCR,2024-06-24_11h45.09.336,LearnStrategy,2023.2.3,MacIntel,75.18796992,3,2,12,,,,,,,,7,02,,,,,,,,,,,,,7,1.684,1,,,,,,0.074916811,-0.393352141,1,0,0,1.6843,Peridotite_rect,11,0,11,0,1,
652ece1281c00c38eaafed26,SCR,2024-06-24_11h45.09.336,LearnStrategy,2023.2.3,MacIntel,75.18796992,3,2,13,,,,,,,,2,14,,,,,,,,,,,,,8,5.395,0,,,,,,0.362727865,-0.418496817,1,0,0,5.3947,Pumice_rect,12,0,12,0,1,
652ece1281c00c38eaafed26,SCR,2024-06-24_11h45.09.336,LearnStrategy,2023.2.3,MacIntel,75.18796992,3,2,14,,,,,,,,6,07,,,,,,,,,,,,,6,3.831,1,,,,,,-0.120193142,-0.39233941,1,0,0,3.8314,Pegmatite_rect,13,0,13,0,1,
652ece1281c00c38eaafed26,SCR,2024-06-24_11h45.09.336,LearnStrategy,2023.2.3,MacIntel,75.18796992,3,2,15,,,,,,,,8,14,,,,,,,,,,,,,8,1.461,1,,,,,,0.379861111,-0.385561343,1,0,0,1.4613,Pumice_rect,14,0,14,0,1,
652ece1281c00c38eaafed26,SCR,2024-06-24_11h45.09.336,LearnStrategy,2023.2.3,MacIntel,75.18796992,3,2,16,,,,,,,,4,12,,,,,,,,,,,,,4,2.663,1,,,,,,0.376526331,-0.26838831,1,0,0,2.6631,Gabbro_rect,15,0,15,0,1,
652ece1281c00c38eaafed26,SCR,2024-06-24_11h45.09.336,LearnStrategy,2023.2.3,MacIntel,75.18796992,4,1,1,-0.508510561,0.0669307,1,0,0,1.1853,Diorite_09,3,09,4,1,1.185,3,09,0.428862847,-0.242733652,1,0,0,1.2737,Gabbro_rect,4,1.274,0,0,0,0,0,1,,,,,,,,,,,,,
652ece1281c00c38eaafed26,SCR,2024-06-24_11h45.09.336,LearnStrategy,2023.2.3,MacIntel,75.18796992,4,1,2,0.200021701,-0.085532407,1,0,0,0.9949,Pumice_06,8,06,3,6,0.995,8,06,0.41021412,-0.396484375,1,0,0,0.8352,Pumice_rect,8,0.835,1,1,0,1,0,1,,,,,,,,,,,,,
652ece1281c00c38eaafed26,SCR,2024-06-24_11h45.09.336,LearnStrategy,2023.2.3,MacIntel,75.18796992,4,1,3,0.57375217,-0.088465712,1,0,0,1.1315,Gabbro_03,4,03,3,8,1.131,4,03,0.4080693,-0.247638166,1,0,0,2.4177,Gabbro_rect,4,2.418,1,2,0,2,0,1,,,,,,,,,,,,,
652ece1281c00c38eaafed26,SCR,2024-06-24_11h45.09.336,LearnStrategy,2023.2.3,MacIntel,75.18796992,4,1,4,0.57677228,-0.239029948,1,0,0,0.957,Peridotite_06,7,06,2,8,0.957,7,06,-0.12687717,-0.389677373,1,0,0,3.1644,Pegmatite_rect,6,3.164,0,3,0,3,0,1,,,,,,,,,,,,,
652ece1281c00c38eaafed26,SCR,2024-06-24_11h45.09.336,LearnStrategy,2023.2.3,MacIntel,75.18796992,4,1,5,-0.254694734,-0.122594763,1,0,0,0.8627,Basalt_04,2,04,3,3,0.863,2,04,-0.143334057,-0.261512587,1,0,0,1.393,Basalt_rect,2,1.393,1,4,0,4,0,1,,,,,,,,,,,,,
652ece1281c00c38eaafed26,SCR,2024-06-24_11h45.09.336,LearnStrategy,2023.2.3,MacIntel,75.18796992,4,1,6,0.368815104,-0.221321615,1,0,0,1.3982,Diorite_14,3,14,2,7,1.398,3,14,-0.156155961,-0.384472656,1,0,0,2.5,Pegmatite_rect,6,2.5,0,5,0,5,0,1,,,,,,,,,,,,,
652ece1281c00c38eaafed26,SCR,2024-06-24_11h45.09.336,LearnStrategy,2023.2.3,MacIntel,75.18796992,4,1,7,-0.042205584,-0.10474537,1,0,0,2.9445,Gabbro_05,4,05,3,4,2.944,4,05,-0.404275174,-0.231608073,1,0,0,3.2516,Andesite_rect,1,3.252,0,6,0,6,0,1,,,,,,,,,,,,,
652ece1281c00c38eaafed26,SCR,2024-06-24_11h45.09.336,LearnStrategy,2023.2.3,MacIntel,75.18796992,4,1,8,0.422272859,-0.431817853,1,0,0,1.0794,Diorite_02,3,02,1,7,1.079,3,02,0.393869358,-0.253946036,1,0,0,1.2077,Gabbro_rect,4,1.208,0,7,0,7,0,1,,,,,,,,,,,,,
652ece1281c00c38eaafed26,SCR,2024-06-24_11h45.09.336,LearnStrategy,2023.2.3,MacIntel,75.18796992,4,1,9,0.203016493,0.2177011,1,0,0,1.1181,Basalt_10,2,10,5,6,1.118,2,10,-0.123372396,-0.265559896,1,0,0,3.7173,Basalt_rect,2,3.717,1,8,0,8,0,1,,,,,,,,,,,,,
652ece1281c00c38eaafed26,SCR,2024-06-24_11h45.09.336,LearnStrategy,2023.2.3,MacIntel,75.18796992,4,1,10,0.566858362,-0.425831887,1,0,0,1.0114,Andesite_09,1,09,1,8,1.011,1,09,0.466605179,-0.261136429,1,0,0,2.2074,Gabbro_rect,4,2.207,0,9,0,9,0,1,,,,,,,,,,,,,
652ece1281c00c38eaafed26,SCR,2024-06-24_11h45.09.336,LearnStrategy,2023.2.3,MacIntel,75.18796992,4,1,11,-0.246075666,0.452615017,1,0,0,1.4507,Pegmatite_11,6,11,6,3,1.451,6,11,0.125585937,-0.259707755,1,0,0,1.2089,Diorite_rect,3,1.209,0,10,0,10,0,1,,,,,,,,,,,,,
652ece1281c00c38eaafed26,SCR,2024-06-24_11h45.09.336,LearnStrategy,2023.2.3,MacIntel,75.18796992,4,1,12,0.124649161,-0.136711516,1,0,0,0.7468,Peridotite_12,7,12,3,5,0.747,7,12,0.087387876,-0.414713542,1,0,0,2.5374,Peridotite_rect,7,2.537,1,11,0,11,0,1,,,,,,,,,,,,,
652ece1281c00c38eaafed26,SCR,2024-06-24_11h45.09.336,LearnStrategy,2023.2.3,MacIntel,75.18796992,4,1,13,-0.514388021,-0.106828704,1,0,0,1.3065,Andesite_07,1,07,3,1,1.306,1,07,0.092198351,-0.396321615,1,0,0,1.3624,Peridotite_rect,7,1.362,0,12,0,12,0,1,,,,,,,,,,,,,
652ece1281c00c38eaafed26,SCR,2024-06-24_11h45.09.336,LearnStrategy,2023.2.3,MacIntel,75.18796992,4,1,14,-0.224175347,-0.11281467,1,0,0,0.8532,Basalt_04,2,04,3,3,0.853,2,04,-0.10791739,-0.270120804,1,0,0,0.8579,Basalt_rect,2,0.858,1,13,0,13,0,1,,,,,,,,,,,,,
652ece1281c00c38eaafed26,SCR,2024-06-24_11h45.09.336,LearnStrategy,2023.2.3,MacIntel,75.18796992,4,1,15,-0.514366319,0.087272135,1,0,0,1.2354,Diorite_09,3,09,4,1,1.235,3,09,-0.371755642,-0.256188513,1,0,0,2.9532,Andesite_rect,1,2.953,0,14,0,14,0,1,,,,,,,,,,,,,
652ece1281c00c38eaafed26,SCR,2024-06-24_11h45.09.336,LearnStrategy,2023.2.3,MacIntel,75.18796992,4,1,16,0.105519387,-0.079014757,1,0,0,0.5463,Peridotite_12,7,12,3,5,0.546,7,12,-0.070974392,-0.405396412,1,0,0,2.1292,Pegmatite_rect,6,2.129,0,15,0,15,0,1,,,,,,,,,,,,,
652ece1281c00c38eaafed26,SCR,2024-06-24_11h45.09.336,LearnStrategy,2023.2.3,MacIntel,75.18796992,4,2,1,,,,,,,,1,02,,,,,,,,,,,,,7,3.343,0,,,,,,0.093319589,-0.39448423,1,0,0,3.3431,Peridotite_rect,0,0,0,0,1,
652ece1281c00c38eaafed26,SCR,2024-06-24_11h45.09.336,LearnStrategy,2023.2.3,MacIntel,75.18796992,4,2,2,,,,,,,,8,13,,,,,,,,,,,,,8,1.243,1,,,,,,0.381749132,-0.417874711,1,0,0,1.2431,Pumice_rect,1,0,1,0,1,
652ece1281c00c38eaafed26,SCR,2024-06-24_11h45.09.336,LearnStrategy,2023.2.3,MacIntel,75.18796992,4,2,3,,,,,,,,4,16,,,,,,,,,,,,,2,1.182,0,,,,,,-0.091399016,-0.236899595,1,0,0,1.1816,Basalt_rect,2,0,2,0,1,
652ece1281c00c38eaafed26,SCR,2024-06-24_11h45.09.336,LearnStrategy,2023.2.3,MacIntel,75.18796992,4,2,4,,,,,,,,2,09,,,,,,,,,,,,,2,1.155,1,,,,,,-0.085865162,-0.244042969,1,0,0,1.1547,Basalt_rect,3,0,3,0,1,
652ece1281c00c38eaafed26,SCR,2024-06-24_11h45.09.336,LearnStrategy,2023.2.3,MacIntel,75.18796992,4,2,5,,,,,,,,7,16,,,,,,,,,,,,,6,3.236,0,,,,,,-0.109143519,-0.405067274,1,0,0,3.2356,Pegmatite_rect,4,0,4,0,1,
652ece1281c00c38eaafed26,SCR,2024-06-24_11h45.09.336,LearnStrategy,2023.2.3,MacIntel,75.18796992,4,2,6,,,,,,,,7,07,,,,,,,,,,,,,1,2.866,0,,,,,,-0.364442274,-0.270175058,1,0,0,2.8657,Andesite_rect,5,0,5,0,1,
652ece1281c00c38eaafed26,SCR,2024-06-24_11h45.09.336,LearnStrategy,2023.2.3,MacIntel,75.18796992,4,2,7,,,,,,,,2,11,,,,,,,,,,,,,8,1.715,0,,,,,,0.451613137,-0.404618779,1,0,0,1.715,Pumice_rect,6,0,6,0,1,
652ece1281c00c38eaafed26,SCR,2024-06-24_11h45.09.336,LearnStrategy,2023.2.3,MacIntel,75.18796992,4,2,8,,,,,,,,8,08,,,,,,,,,,,,,8,0.834,1,,,,,,0.43161169,-0.411733218,1,0,0,0.8337,Pumice_rect,7,0,7,0,1,
652ece1281c00c38eaafed26,SCR,2024-06-24_11h45.09.336,LearnStrategy,2023.2.3,MacIntel,75.18796992,4,2,9,,,,,,,,5,14,,,,,,,,,,,,,5,1.245,1,,,,,,-0.340172888,-0.41624349,1,0,0,1.2449,Obsidian_rect,8,0,8,0,1,
652ece1281c00c38eaafed26,SCR,2024-06-24_11h45.09.336,LearnStrategy,2023.2.3,MacIntel,75.18796992,4,2,10,,,,,,,,6,06,,,,,,,,,,,,,7,2.863,0,,,,,,0.152991175,-0.408362269,1,0,0,2.8629,Peridotite_rect,9,0,9,0,1,
652ece1281c00c38eaafed26,SCR,2024-06-24_11h45.09.336,LearnStrategy,2023.2.3,MacIntel,75.18796992,4,2,11,,,,,,,,3,16,,,,,,,,,,,,,3,2.491,1,,,,,,0.173010706,-0.249555122,1,0,0,2.4909,Diorite_rect,10,0,10,0,1,
652ece1281c00c38eaafed26,SCR,2024-06-24_11h45.09.336,LearnStrategy,2023.2.3,MacIntel,75.18796992,4,2,12,,,,,,,,3,11,,,,,,,,,,,,,4,1.11,0,,,,,,0.365165654,-0.25297309,1,0,0,1.1101,Gabbro_rect,11,0,11,0,1,
652ece1281c00c38eaafed26,SCR,2024-06-24_11h45.09.336,LearnStrategy,2023.2.3,MacIntel,75.18796992,4,2,13,,,,,,,,1,03,,,,,,,,,,,,,1,2.206,1,,,,,,-0.402879051,-0.238295718,1,0,0,2.2057,Andesite_rect,12,0,12,0,1,
652ece1281c00c38eaafed26,SCR,2024-06-24_11h45.09.336,LearnStrategy,2023.2.3,MacIntel,75.18796992,4,2,14,,,,,,,,4,11,,,,,,,,,,,,,6,5.914,0,,,,,,-0.116688368,-0.415878183,1,0,0,5.914,Pegmatite_rect,13,0,13,0,1,
652ece1281c00c38eaafed26,SCR,2024-06-24_11h45.09.336,LearnStrategy,2023.2.3,MacIntel,75.18796992,4,2,15,,,,,,,,5,08,,,,,,,,,,,,,5,0.94,1,,,,,,-0.327987558,-0.409986256,1,0,0,0.9402,Obsidian_rect,14,0,14,0,1,
652ece1281c00c38eaafed26,SCR,2024-06-24_11h45.09.336,LearnStrategy,2023.2.3,MacIntel,75.18796992,4,2,16,,,,,,,,6,07,,,,,,,,,,,,,4,2.955,0,,,,,,0.423726852,-0.262333623,1,0,0,2.9555,Gabbro_rect,15,0,15,0,1,
652ece1281c00c38eaafed26,SCR,2024-06-24_11h45.09.336,LearnStrategy,2023.2.3,MacIntel,75.18796992,5,1,1,-0.357204861,0.09275897,1,0,0,0.8935,Diorite_12,3,12,4,2,0.894,3,12,0.485521557,-0.254043692,1,0,0,2.9493,Gabbro_rect,4,2.949,0,0,0,0,0,1,,,,,,,,,,,,,
652ece1281c00c38eaafed26,SCR,2024-06-24_11h45.09.336,LearnStrategy,2023.2.3,MacIntel,75.18796992,5,1,2,0.066807726,-0.085243056,1,0,0,0.6116,Peridotite_12,7,12,3,5,0.612,7,12,-0.336140046,-0.243287037,1,0,0,1.0994,Andesite_rect,1,1.099,0,1,0,1,0,1,,,,,,,,,,,,,
652ece1281c00c38eaafed26,SCR,2024-06-24_11h45.09.336,LearnStrategy,2023.2.3,MacIntel,75.18796992,5,1,3,0.2231807,0.374663628,1,0,0,1.6774,Basalt_01,2,01,6,6,1.677,2,01,-0.100578704,-0.267664931,1,0,0,2.8579,Basalt_rect,2,2.858,1,2,0,2,0,1,,,,,,,,,,,,,
652ece1281c00c38eaafed26,SCR,2024-06-24_11h45.09.336,LearnStrategy,2023.2.3,MacIntel,75.18796992,5,1,4,0.589988426,-0.260745804,1,0,0,0.8919,Peridotite_06,7,06,2,8,0.892,7,06,-0.357269965,-0.24301577,1,0,0,1.1951,Andesite_rect,1,1.195,0,3,0,3,0,1,,,,,,,,,,,,,
652ece1281c00c38eaafed26,SCR,2024-06-24_11h45.09.336,LearnStrategy,2023.2.3,MacIntel,75.18796992,5,1,5,-0.065823929,0.099584057,1,0,0,0.613,Pumice_10,8,10,4,4,0.613,8,10,0.385485388,-0.419422743,1,0,0,0.9262,Pumice_rect,8,0.926,1,4,0,4,0,1,,,,,,,,,,,,,
652ece1281c00c38eaafed26,SCR,2024-06-24_11h45.09.336,LearnStrategy,2023.2.3,MacIntel,75.18796992,5,1,6,-0.56494864,-0.120656105,1,0,0,3.8807,Andesite_07,1,07,3,1,3.881,2,06,-0.40796441,-0.250180845,1,0,0,3.7709,Andesite_rect,1,3.771,1,5,0,5,0,1,,,,,,,,,,,,,
652ece1281c00c38eaafed26,SCR,2024-06-24_11h45.09.336,LearnStrategy,2023.2.3,MacIntel,75.18796992,5,1,7,0.359646267,0.377842882,1,0,0,2.1566,Gabbro_08,4,08,6,7,2.157,4,08,-0.132881221,-0.408203125,1,0,0,3.1521,Pegmatite_rect,6,3.152,0,6,0,6,0,1,,,,,,,,,,,,,
652ece1281c00c38eaafed26,SCR,2024-06-24_11h45.09.336,LearnStrategy,2023.2.3,MacIntel,75.18796992,5,1,8,0.381286169,-0.235702402,1,0,0,9.3057,Diorite_14,3,14,2,7,9.306,1,07,-0.359407552,-0.231199363,1,0,0,3.4447,Andesite_rect,1,3.445,0,7,0,7,0,1,,,,,,,,,,,,,
652ece1281c00c38eaafed26,SCR,2024-06-24_11h45.09.336,LearnStrategy,2023.2.3,MacIntel,75.18796992,5,1,9,-0.395959925,-0.253356481,1,0,0,1.5999,Diorite_13,3,13,2,2,1.6,3,13,0.084190538,-0.397475405,1,0,0,3.8227,Peridotite_rect,7,3.823,0,8,0,8,0,1,,,,,,,,,,,,,
652ece1281c00c38eaafed26,SCR,2024-06-24_11h45.09.336,LearnStrategy,2023.2.3,MacIntel,75.18796992,5,1,10,-0.501754196,0.097565828,1,0,0,1.7987,Diorite_09,3,09,4,1,1.799,3,14,0.173231337,-0.235619213,1,0,0,2.7663,Diorite_rect,3,2.766,1,9,0,9,0,1,,,,,,,,,,,,,
652ece1281c00c38eaafed26,SCR,2024-06-24_11h45.09.336,LearnStrategy,2023.2.3,MacIntel,75.18796992,5,1,11,0.538093171,0.267144097,1,0,0,2.7565,Gabbro_09,4,09,5,8,2.756,4,09,0.138454861,-0.252137587,1,0,0,3.7518,Diorite_rect,3,3.752,0,10,0,10,0,1,,,,,,,,,,,,,
652ece1281c00c38eaafed26,SCR,2024-06-24_11h45.09.336,LearnStrategy,2023.2.3,MacIntel,75.18796992,5,1,12,0.57271412,-0.144205729,1,0,0,1.1565,Gabbro_03,4,03,3,8,1.157,4,03,0.397934751,-0.242191117,1,0,0,5.5282,Gabbro_rect,4,5.528,1,11,0,11,0,1,,,,,,,,,,,,,
652ece1281c00c38eaafed26,SCR,2024-06-24_11h45.09.336,LearnStrategy,2023.2.3,MacIntel,75.18796992,5,1,13,0.087796586,-0.452130353,1,0,0,1.103,Peridotite_08,7,08,1,5,1.103,7,08,0.167353877,-0.246730324,1,0,0,3.3382,Diorite_rect,3,3.338,0,12,0,12,0,1,,,,,,,,,,,,,
652ece1281c00c38eaafed26,SCR,2024-06-24_11h45.09.336,LearnStrategy,2023.2.3,MacIntel,75.18796992,5,1,14,0.554976852,0.40354456,1,0,0,1.3455,Pegmatite_08,6,08,6,8,1.346,6,08,-0.107790799,-0.411939381,1,0,0,2.207,Pegmatite_rect,6,2.207,1,13,0,13,0,1,,,,,,,,,,,,,
652ece1281c00c38eaafed26,SCR,2024-06-24_11h45.09.336,LearnStrategy,2023.2.3,MacIntel,75.18796992,5,1,15,-0.428978588,-0.104275174,1,0,0,1.3571,Andesite_14,1,14,3,2,1.357,1,14,0.098213252,-0.399070457,1,0,0,2.0715,Peridotite_rect,7,2.072,0,14,0,14,0,1,,,,,,,,,,,,,
652ece1281c00c38eaafed26,SCR,2024-06-24_11h45.09.336,LearnStrategy,2023.2.3,MacIntel,75.18796992,5,1,16,0.224305556,-0.256119792,1,0,0,3.2396,Pegmatite_05,6,05,2,6,3.24,6,05,-0.36021412,-0.4205693,1,0,0,3.9119,Obsidian_rect,5,3.912,0,15,0,15,0,1,,,,,,,,,,,,,
652ece1281c00c38eaafed26,SCR,2024-06-24_11h45.09.336,LearnStrategy,2023.2.3,MacIntel,75.18796992,5,2,1,,,,,,,,4,14,,,,,,,,,,,,,4,3.973,1,,,,,,0.399826389,-0.237235966,1,0,0,3.9725,Gabbro_rect,0,0,0,0,1,
652ece1281c00c38eaafed26,SCR,2024-06-24_11h45.09.336,LearnStrategy,2023.2.3,MacIntel,75.18796992,5,2,2,,,,,,,,3,15,,,,,,,,,,,,,4,1.903,0,,,,,,0.388418692,-0.249164497,1,0,0,1.9027,Gabbro_rect,1,0,1,0,1,
652ece1281c00c38eaafed26,SCR,2024-06-24_11h45.09.336,LearnStrategy,2023.2.3,MacIntel,75.18796992,5,2,3,,,,,,,,8,14,,,,,,,,,,,,,8,1.027,1,,,,,,0.434790943,-0.383297164,1,0,0,1.0272,Pumice_rect,2,0,2,0,1,
652ece1281c00c38eaafed26,SCR,2024-06-24_11h45.09.336,LearnStrategy,2023.2.3,MacIntel,75.18796992,5,2,4,,,,,,,,3,10,,,,,,,,,,,,,4,4.676,0,,,,,,0.354365596,-0.260861545,1,0,0,4.6761,Gabbro_rect,3,0,3,0,1,
652ece1281c00c38eaafed26,SCR,2024-06-24_11h45.09.336,LearnStrategy,2023.2.3,MacIntel,75.18796992,5,2,5,,,,,,,,2,14,,,,,,,,,,,,,8,2.078,0,,,,,,0.354712818,-0.383405671,1,0,0,2.0784,Pumice_rect,4,0,4,0,1,
652ece1281c00c38eaafed26,SCR,2024-06-24_11h45.09.336,LearnStrategy,2023.2.3,MacIntel,75.18796992,5,2,6,,,,,,,,6,16,,,,,,,,,,,,,6,3.873,1,,,,,,-0.11682581,-0.392053675,1,0,0,3.8729,Pegmatite_rect,5,0,5,0,1,
652ece1281c00c38eaafed26,SCR,2024-06-24_11h45.09.336,LearnStrategy,2023.2.3,MacIntel,75.18796992,5,2,7,,,,,,,,1,05,,,,,,,,,,,,,1,4.963,1,,,,,,-0.325871672,-0.23547092,1,0,0,4.9631,Andesite_rect,6,0,6,0,1,
652ece1281c00c38eaafed26,SCR,2024-06-24_11h45.09.336,LearnStrategy,2023.2.3,MacIntel,75.18796992,5,2,8,,,,,,,,6,15,,,,,,,,,,,,,6,4.859,1,,,,,,-0.09432147,-0.409986256,1,0,0,4.8587,Pegmatite_rect,7,0,7,0,1,
652ece1281c00c38eaafed26,SCR,2024-06-24_11h45.09.336,LearnStrategy,2023.2.3,MacIntel,75.18796992,5,2,9,,,,,,,,5,04,,,,,,,,,,,,,5,1.09,1,,,,,,-0.29885706,-0.412055122,1,0,0,1.0896,Obsidian_rect,8,0,8,0,1,
652ece1281c00c38eaafed26,SCR,2024-06-24_11h45.09.336,LearnStrategy,2023.2.3,MacIntel,75.18796992,5,2,10,,,,,,,,2,08,,,,,,,,,,,,,2,1.005,1,,,,,,-0.133141638,-0.2588614,1,0,0,1.0046,Basalt_rect,9,0,9,0,1,
652ece1281c00c38eaafed26,SCR,2024-06-24_11h45.09.336,LearnStrategy,2023.2.3,MacIntel,75.18796992,5,2,11,,,,,,,,7,04,,,,,,,,,,,,,1,2.634,0,,,,,,-0.33359375,-0.263009983,1,0,0,2.6336,Andesite_rect,10,0,10,0,1,
652ece1281c00c38eaafed26,SCR,2024-06-24_11h45.09.336,LearnStrategy,2023.2.3,MacIntel,75.18796992,5,2,12,,,,,,,,5,02,,,,,,,,,,,,,5,2.108,1,,,,,,-0.36400463,-0.404727286,1,0,0,2.1079,Obsidian_rect,11,0,11,0,1,
652ece1281c00c38eaafed26,SCR,2024-06-24_11h45.09.336,LearnStrategy,2023.2.3,MacIntel,75.18796992,5,2,13,,,,,,,,7,02,,,,,,,,,,,,,7,2.33,1,,,,,,0.139001013,-0.409262876,1,0,0,2.3296,Peridotite_rect,12,0,12,0,1,
652ece1281c00c38eaafed26,SCR,2024-06-24_11h45.09.336,LearnStrategy,2023.2.3,MacIntel,75.18796992,5,2,14,,,,,,,,4,12,,,,,,,,,,,,,3,2.843,0,,,,,,0.196238426,-0.244563802,1,0,0,2.8432,Diorite_rect,13,0,13,0,1,
652ece1281c00c38eaafed26,SCR,2024-06-24_11h45.09.336,LearnStrategy,2023.2.3,MacIntel,75.18796992,5,2,15,,,,,,,,1,01,,,,,,,,,,,,,3,1.647,0,,,,,,0.196882234,-0.244563802,1,0,0,1.6465,Diorite_rect,14,0,14,0,1,
652ece1281c00c38eaafed26,SCR,2024-06-24_11h45.09.336,LearnStrategy,2023.2.3,MacIntel,75.18796992,5,2,16,,,,,,,,8,03,,,,,,,,,,,,,8,1.109,1,,,,,,0.387094907,-0.409714988,1,0,0,1.1095,Pumice_rect,15,0,15,0,1,
652ece1281c00c38eaafed26,SCR,2024-06-24_11h45.09.336,LearnStrategy,2023.2.3,MacIntel,75.18796992,6,1,1,-0.569614439,0.209136285,1,0,0,1.5098,Basalt_02,2,02,5,1,1.51,2,02,-0.074359809,-0.270424624,1,0,0,1.8436,Basalt_rect,2,1.844,1,0,0,0,0,1,,,,,,,,,,,,,
652ece1281c00c38eaafed26,SCR,2024-06-24_11h45.09.336,LearnStrategy,2023.2.3,MacIntel,75.18796992,6,1,2,0.068641493,-0.225065104,1,0,0,1.2796,Diorite_07,3,07,2,5,1.28,3,07,-0.325292969,-0.256253617,1,0,0,1.8322,Andesite_rect,1,1.832,0,1,0,1,0,1,,,,,,,,,,,,,
652ece1281c00c38eaafed26,SCR,2024-06-24_11h45.09.336,LearnStrategy,2023.2.3,MacIntel,75.18796992,6,1,3,0.391189236,-0.097363281,1,0,0,1.9718,Andesite_10,1,10,3,7,1.972,1,10,-0.113773148,-0.403457755,1,0,0,2.0715,Pegmatite_rect,6,2.072,0,2,0,2,0,1,,,,,,,,,,,,,
652ece1281c00c38eaafed26,SCR,2024-06-24_11h45.09.336,LearnStrategy,2023.2.3,MacIntel,75.18796992,6,1,4,-0.076616753,0.412941262,1,0,0,1.7973,Basalt_06,2,06,6,4,1.797,2,06,-0.125795718,-0.252535446,1,0,0,0.9529,Basalt_rect,2,0.953,1,3,0,3,0,1,,,,,,,,,,,,,
652ece1281c00c38eaafed26,SCR,2024-06-24_11h45.09.336,LearnStrategy,2023.2.3,MacIntel,75.18796992,6,1,5,0.39697989,-0.383297164,1,0,0,1.5287,Diorite_02,3,02,1,7,1.529,3,02,0.212322772,-0.266084346,1,0,0,1.5015,Diorite_rect,3,1.501,1,4,0,4,0,1,,,,,,,,,,,,,
652ece1281c00c38eaafed26,SCR,2024-06-24_11h45.09.336,LearnStrategy,2023.2.3,MacIntel,75.18796992,6,1,6,0.265657552,-0.100875289,1,0,0,0.8358,Pumice_06,8,06,3,6,0.836,8,06,0.388610388,-0.393840422,1,0,0,1.7687,Pumice_rect,8,1.769,1,5,0,5,0,1,,,,,,,,,,,,,
652ece1281c00c38eaafed26,SCR,2024-06-24_11h45.09.336,LearnStrategy,2023.2.3,MacIntel,75.18796992,6,1,7,-0.223860677,0.435792824,1,0,0,1.6636,Pegmatite_11,6,11,6,3,1.664,6,11,-0.324124711,-0.246809896,1,0,0,4.4979,Andesite_rect,1,4.498,0,6,0,6,0,1,,,,,,,,,,,,,
652ece1281c00c38eaafed26,SCR,2024-06-24_11h45.09.336,LearnStrategy,2023.2.3,MacIntel,75.18796992,6,1,8,0.099960214,-0.256474248,1,0,0,0.9021,Diorite_07,3,07,2,5,0.902,3,07,0.109027778,-0.266380932,1,0,0,4.0725,Diorite_rect,3,4.072,1,7,0,7,0,1,,,,,,,,,,,,,
652ece1281c00c38eaafed26,SCR,2024-06-24_11h45.09.336,LearnStrategy,2023.2.3,MacIntel,75.18796992,6,1,9,0.40536386,-0.0932364,1,0,0,0.8754,Andesite_10,1,10,3,7,0.875,1,10,-0.354130498,-0.242708333,1,0,0,7.3044,Andesite_rect,1,7.304,1,8,0,8,0,1,,,,,,,,,,,,,
652ece1281c00c38eaafed26,SCR,2024-06-24_11h45.09.336,LearnStrategy,2023.2.3,MacIntel,75.18796992,6,1,10,0.410760272,0.289312066,1,0,0,1.119,Peridotite_10,7,10,5,7,1.119,7,10,0.360105613,-0.260467303,1,0,0,5.2596,Gabbro_rect,4,5.26,0,9,0,9,0,1,,,,,,,,,,,,,
652ece1281c00c38eaafed26,SCR,2024-06-24_11h45.09.336,LearnStrategy,2023.2.3,MacIntel,75.18796992,6,1,11,0.38129702,0.428432436,1,0,0,1.1457,Gabbro_08,4,08,6,7,1.146,4,08,0.11879702,-0.410058594,1,0,0,2.3789,Peridotite_rect,7,2.379,0,10,0,10,0,1,,,,,,,,,,,,,
652ece1281c00c38eaafed26,SCR,2024-06-24_11h45.09.336,LearnStrategy,2023.2.3,MacIntel,75.18796992,6,1,12,0.502350984,-0.114568866,1,0,0,1.2614,Gabbro_03,4,03,3,8,1.261,4,03,0.412145544,-0.234516059,1,0,0,1.2605,Gabbro_rect,4,1.26,1,11,0,11,0,1,,,,,,,,,,,,,
652ece1281c00c38eaafed26,SCR,2024-06-24_11h45.09.336,LearnStrategy,2023.2.3,MacIntel,75.18796992,6,1,13,0.099092159,-0.08207827,1,0,0,0.917,Peridotite_12,7,12,3,5,0.917,7,12,-0.369361256,-0.228895399,1,0,0,2.0589,Andesite_rect,1,2.059,0,12,0,12,0,1,,,,,,,,,,,,,
652ece1281c00c38eaafed26,SCR,2024-06-24_11h45.09.336,LearnStrategy,2023.2.3,MacIntel,75.18796992,6,1,14,-0.247627315,0.460170718,1,0,0,1.1837,Pegmatite_11,6,11,6,3,1.184,6,11,-0.165382668,-0.388111256,1,0,0,0.9948,Pegmatite_rect,6,0.995,1,13,0,13,0,1,,,,,,,,,,,,,
652ece1281c00c38eaafed26,SCR,2024-06-24_11h45.09.336,LearnStrategy,2023.2.3,MacIntel,75.18796992,6,1,15,0.395236545,0.413122106,1,0,0,1.131,Gabbro_08,4,08,6,7,1.131,4,08,0.099804688,-0.383760127,1,0,0,2.527,Peridotite_rect,7,2.527,0,14,0,14,0,1,,,,,,,,,,,,,
652ece1281c00c38eaafed26,SCR,2024-06-24_11h45.09.336,LearnStrategy,2023.2.3,MacIntel,75.18796992,6,1,16,0.413049769,0.105280671,1,0,0,0.8878,Peridotite_14,7,14,4,7,0.888,7,14,0.162275752,-0.390245226,1,0,0,3.5296,Peridotite_rect,7,3.53,1,15,0,15,0,1,,,,,,,,,,,,,
652ece1281c00c38eaafed26,SCR,2024-06-24_11h45.09.336,LearnStrategy,2023.2.3,MacIntel,75.18796992,6,2,1,,,,,,,,2,12,,,,,,,,,,,,,8,2.406,0,,,,,,0.356257234,-0.383470775,1,0,0,2.4063,Pumice_rect,0,0,0,0,1,
652ece1281c00c38eaafed26,SCR,2024-06-24_11h45.09.336,LearnStrategy,2023.2.3,MacIntel,75.18796992,6,2,2,,,,,,,,8,02,,,,,,,,,,,,,8,0.876,1,,,,,,0.3598886,-0.384035012,1,0,0,0.8756,Pumice_rect,1,0,1,0,1,
652ece1281c00c38eaafed26,SCR,2024-06-24_11h45.09.336,LearnStrategy,2023.2.3,MacIntel,75.18796992,6,2,3,,,,,,,,6,13,,,,,,,,,,,,,6,5.192,1,,,,,,-0.154730903,-0.38004919,1,0,0,5.1921,Pegmatite_rect,2,0,2,0,1,
652ece1281c00c38eaafed26,SCR,2024-06-24_11h45.09.336,LearnStrategy,2023.2.3,MacIntel,75.18796992,6,2,4,,,,,,,,6,09,,,,,,,,,,,,,6,2.189,1,,,,,,-0.105320457,-0.398672598,1,0,0,2.1891,Pegmatite_rect,3,0,3,0,1,
652ece1281c00c38eaafed26,SCR,2024-06-24_11h45.09.336,LearnStrategy,2023.2.3,MacIntel,75.18796992,6,2,5,,,,,,,,4,01,,,,,,,,,,,,,4,2.396,1,,,,,,0.340313947,-0.260347946,1,0,0,2.3963,Gabbro_rect,4,0,4,0,1,
652ece1281c00c38eaafed26,SCR,2024-06-24_11h45.09.336,LearnStrategy,2023.2.3,MacIntel,75.18796992,6,2,6,,,,,,,,5,05,,,,,,,,,,,,,5,1.866,1,,,,,,-0.362800203,-0.401956742,1,0,0,1.8657,Obsidian_rect,5,0,5,0,1,
652ece1281c00c38eaafed26,SCR,2024-06-24_11h45.09.336,LearnStrategy,2023.2.3,MacIntel,75.18796992,6,2,7,,,,,,,,5,07,,,,,,,,,,,,,5,1.096,1,,,,,,-0.363946759,-0.391988571,1,0,0,1.0963,Obsidian_rect,6,0,6,0,1,
652ece1281c00c38eaafed26,SCR,2024-06-24_11h45.09.336,LearnStrategy,2023.2.3,MacIntel,75.18796992,6,2,8,,,,,,,,3,08,,,,,,,,,,,,,4,4.463,0,,,,,,0.357743779,-0.268160446,1,0,0,4.4631,Gabbro_rect,7,0,7,0,1,
652ece1281c00c38eaafed26,SCR,2024-06-24_11h45.09.336,LearnStrategy,2023.2.3,MacIntel,75.18796992,6,2,9,,,,,,,,1,04,,,,,,,,,,,,,1,1.839,1,,,,,,-0.36833044,-0.229937066,1,0,0,1.8393,Andesite_rect,8,0,8,0,1,
652ece1281c00c38eaafed26,SCR,2024-06-24_11h45.09.336,LearnStrategy,2023.2.3,MacIntel,75.18796992,6,2,10,,,,,,,,3,06,,,,,,,,,,,,,4,2.235,0,,,,,,0.39718967,-0.235427517,1,0,0,2.235,Gabbro_rect,9,0,9,0,1,
652ece1281c00c38eaafed26,SCR,2024-06-24_11h45.09.336,LearnStrategy,2023.2.3,MacIntel,75.18796992,6,2,11,,,,,,,,4,10,,,,,,,,,,,,,2,3.272,0,,,,,,-0.067661314,-0.242270689,1,0,0,3.2716,Basalt_rect,10,0,10,0,1,
652ece1281c00c38eaafed26,SCR,2024-06-24_11h45.09.336,LearnStrategy,2023.2.3,MacIntel,75.18796992,6,2,12,,,,,,,,8,05,,,,,,,,,,,,,8,1.039,1,,,,,,0.37635272,-0.408709491,1,0,0,1.0394,Pumice_rect,11,0,11,0,1,
652ece1281c00c38eaafed26,SCR,2024-06-24_11h45.09.336,LearnStrategy,2023.2.3,MacIntel,75.18796992,6,2,13,,,,,,,,7,15,,,,,,,,,,,,,3,3.646,0,,,,,,0.092314091,-0.260279225,1,0,0,3.6459,Diorite_rect,12,0,12,0,1,
652ece1281c00c38eaafed26,SCR,2024-06-24_11h45.09.336,LearnStrategy,2023.2.3,MacIntel,75.18796992,6,2,14,,,,,,,,2,05,,,,,,,,,,,,,2,1.077,1,,,,,,-0.095236545,-0.233156105,1,0,0,1.0771,Basalt_rect,13,0,13,0,1,
652ece1281c00c38eaafed26,SCR,2024-06-24_11h45.09.336,LearnStrategy,2023.2.3,MacIntel,75.18796992,6,2,15,,,,,,,,7,05,,,,,,,,,,,,,4,4.7,0,,,,,,0.330642361,-0.25625,1,0,0,4.7001,Gabbro_rect,14,0,14,0,1,
652ece1281c00c38eaafed26,SCR,2024-06-24_11h45.09.336,LearnStrategy,2023.2.3,MacIntel,75.18796992,6,2,16,,,,,,,,1,11,,,,,,,,,,,,,7,4.611,0,,,,,,0.058166956,-0.411783854,1,0,0,4.6105,Peridotite_rect,15,0,15,0,1,
652ece1281c00c38eaafed26,SCR,2024-06-24_11h45.09.336,LearnStrategy,2023.2.3,MacIntel,75.18796992,7,1,1,-0.20776548,0.084544994,1,0,0,1.5059,Peridotite_13,7,13,4,3,1.506,7,13,0.129984086,-0.252311198,1,0,0,3.0367,Diorite_rect,3,3.037,0,0,0,0,0,1,,,,,,,,,,,,,
652ece1281c00c38eaafed26,SCR,2024-06-24_11h45.09.336,LearnStrategy,2023.2.3,MacIntel,75.18796992,7,1,2,0.410865162,-0.255099826,1,0,0,1.0364,Diorite_14,3,14,2,7,1.036,3,14,-0.377039931,-0.267223669,1,0,0,1.4076,Andesite_rect,1,1.408,0,1,0,1,0,1,,,,,,,,,,,,,
652ece1281c00c38eaafed26,SCR,2024-06-24_11h45.09.336,LearnStrategy,2023.2.3,MacIntel,75.18796992,7,1,3,-0.057313368,-0.141424334,1,0,0,1.4259,Gabbro_05,4,05,3,4,1.426,4,05,0.37218967,-0.233087384,1,0,0,3.2467,Gabbro_rect,4,3.247,1,2,0,2,0,1,,,,,,,,,,,,,
652ece1281c00c38eaafed26,SCR,2024-06-24_11h45.09.336,LearnStrategy,2023.2.3,MacIntel,75.18796992,7,1,4,0.361917679,-0.249667245,1,0,0,1.5866,Diorite_14,3,14,2,7,1.587,3,14,0.221925637,-0.255027488,1,0,0,1.1144,Diorite_rect,3,1.114,1,3,0,3,0,1,,,,,,,,,,,,,
652ece1281c00c38eaafed26,SCR,2024-06-24_11h45.09.336,LearnStrategy,2023.2.3,MacIntel,75.18796992,7,1,5,0.110731337,0.397204138,1,0,0,10.8563,Pegmatite_12,6,12,6,5,10.856,2,10,-0.154626013,-0.417599826,1,0,0,1.6624,Pegmatite_rect,6,1.662,1,4,0,4,0,1,,,,,,,,,,,,,
652ece1281c00c38eaafed26,SCR,2024-06-24_11h45.09.336,LearnStrategy,2023.2.3,MacIntel,75.18796992,7,1,6,-0.066142216,-0.28536603,1,0,0,4.3039,Pegmatite_03,6,03,2,4,4.304,1,07,-0.112105758,-0.383275463,1,0,0,1.8633,Pegmatite_rect,6,1.863,1,5,0,5,0,1,,,,,,,,,,,,,
652ece1281c00c38eaafed26,SCR,2024-06-24_11h45.09.336,LearnStrategy,2023.2.3,MacIntel,75.18796992,7,1,7,-0.394089988,-0.143724682,1,0,0,6.4382,Andesite_14,1,14,3,2,6.438,1,16,-0.389507378,-0.25843099,1,0,0,2.5192,Andesite_rect,1,2.519,1,6,0,6,0,1,,,,,,,,,,,,,
652ece1281c00c38eaafed26,SCR,2024-06-24_11h45.09.336,LearnStrategy,2023.2.3,MacIntel,75.18796992,7,1,8,-0.245269097,0.268793403,1,0,0,9.4405,Gabbro_15,4,15,5,3,9.44,7,08,0.136505353,-0.254557292,1,0,0,3.3581,Diorite_rect,3,3.358,0,7,0,7,0,1,,,,,,,,,,,,,
652ece1281c00c38eaafed26,SCR,2024-06-24_11h45.09.336,LearnStrategy,2023.2.3,MacIntel,75.18796992,7,1,9,0.531987847,0.236798322,1,0,0,4.0404,Gabbro_09,4,09,5,8,4.04,4,13,0.364427807,-0.238187211,1,0,0,2.5312,Gabbro_rect,4,2.531,1,8,0,8,0,1,,,,,,,,,,,,,
652ece1281c00c38eaafed26,SCR,2024-06-24_11h45.09.336,LearnStrategy,2023.2.3,MacIntel,75.18796992,7,1,10,0.272880498,-0.248574942,1,0,0,4.2648,Pegmatite_05,6,05,2,6,4.265,4,09,0.17125651,-0.228899016,1,0,0,2.544,Diorite_rect,3,2.544,0,9,0,9,0,1,,,,,,,,,,,,,
652ece1281c00c38eaafed26,SCR,2024-06-24_11h45.09.336,LearnStrategy,2023.2.3,MacIntel,75.18796992,7,1,11,-0.097312645,-0.417664931,1,0,0,4.3872,Pumice_16,8,16,1,4,4.387,3,14,0.386056858,-0.381593605,1,0,0,1.4918,Pumice_rect,8,1.492,1,10,0,10,0,1,,,,,,,,,,,,,
652ece1281c00c38eaafed26,SCR,2024-06-24_11h45.09.336,LearnStrategy,2023.2.3,MacIntel,75.18796992,7,1,12,-0.371755642,0.121748409,1,0,0,5.0377,Diorite_12,3,12,4,2,5.038,8,09,0.376066985,-0.241156684,1,0,0,3.9654,Gabbro_rect,4,3.965,0,11,0,11,0,1,,,,,,,,,,,,,
652ece1281c00c38eaafed26,SCR,2024-06-24_11h45.09.336,LearnStrategy,2023.2.3,MacIntel,75.18796992,7,1,13,-0.207226562,0.23676577,1,0,0,1.8239,Gabbro_15,4,15,5,3,1.824,6,03,0.154853877,-0.253316696,1,0,0,1.4209,Diorite_rect,3,1.421,0,12,0,12,0,1,,,,,,,,,,,,,
652ece1281c00c38eaafed26,SCR,2024-06-24_11h45.09.336,LearnStrategy,2023.2.3,MacIntel,75.18796992,7,1,14,-0.521535012,0.390936053,1,0,0,3.8547,Gabbro_13,4,13,6,1,3.855,3,07,0.17781033,-0.236830874,1,0,0,1.5437,Diorite_rect,3,1.544,0,13,0,13,0,1,,,,,,,,,,,,,
652ece1281c00c38eaafed26,SCR,2024-06-24_11h45.09.336,LearnStrategy,2023.2.3,MacIntel,75.18796992,7,1,15,0.271893084,0.066688368,1,0,0,3.5455,Pegmatite_10,6,10,4,6,3.546,7,13,-0.121274595,-0.386610243,1,0,0,1.4403,Pegmatite_rect,6,1.44,1,14,0,14,0,1,,,,,,,,,,,,,
652ece1281c00c38eaafed26,SCR,2024-06-24_11h45.09.336,LearnStrategy,2023.2.3,MacIntel,75.18796992,7,1,16,0.54535952,-0.134519676,1,0,0,4.4236,Gabbro_03,4,03,3,8,4.424,2,02,0.409729456,-0.257881221,1,0,0,1.1573,Gabbro_rect,4,1.157,1,15,0,15,0,1,,,,,,,,,,,,,
652ece1281c00c38eaafed26,SCR,2024-06-24_11h45.09.336,LearnStrategy,2023.2.3,MacIntel,75.18796992,7,2,1,,,,,,,,5,02,,,,,,,,,,,,,5,1.156,1,,,,,,-0.347417535,-0.416851128,1,0,0,1.156,Obsidian_rect,0,0,0,0,1,
652ece1281c00c38eaafed26,SCR,2024-06-24_11h45.09.336,LearnStrategy,2023.2.3,MacIntel,75.18796992,7,2,2,,,,,,,,6,07,,,,,,,,,,,,,6,1.462,1,,,,,,-0.17629485,-0.400021701,1,0,0,1.4619,Pegmatite_rect,1,0,1,0,1,
652ece1281c00c38eaafed26,SCR,2024-06-24_11h45.09.336,LearnStrategy,2023.2.3,MacIntel,75.18796992,7,2,3,,,,,,,,8,02,,,,,,,,,,,,,8,1.327,1,,,,,,0.454072627,-0.416952402,1,0,0,1.3265,Pumice_rect,2,0,2,0,1,
652ece1281c00c38eaafed26,SCR,2024-06-24_11h45.09.336,LearnStrategy,2023.2.3,MacIntel,75.18796992,7,2,4,,,,,,,,8,03,,,,,,,,,,,,,8,1.017,1,,,,,,0.445811632,-0.416413484,1,0,0,1.0168,Pumice_rect,3,0,3,0,1,
652ece1281c00c38eaafed26,SCR,2024-06-24_11h45.09.336,LearnStrategy,2023.2.3,MacIntel,75.18796992,7,2,5,,,,,,,,2,09,,,,,,,,,,,,,2,3.398,1,,,,,,-0.100962095,-0.265332031,1,0,0,3.3979,Basalt_rect,4,0,4,0,1,
652ece1281c00c38eaafed26,SCR,2024-06-24_11h45.09.336,LearnStrategy,2023.2.3,MacIntel,75.18796992,7,2,6,,,,,,,,4,14,,,,,,,,,,,,,4,4.079,1,,,,,,0.377785012,-0.263874421,1,0,0,4.0786,Gabbro_rect,5,0,5,0,1,
652ece1281c00c38eaafed26,SCR,2024-06-24_11h45.09.336,LearnStrategy,2023.2.3,MacIntel,75.18796992,7,2,7,,,,,,,,5,05,,,,,,,,,,,,,5,1.333,1,,,,,,-0.369495081,-0.392003038,1,0,0,1.333,Obsidian_rect,6,0,6,0,1,
652ece1281c00c38eaafed26,SCR,2024-06-24_11h45.09.336,LearnStrategy,2023.2.3,MacIntel,75.18796992,7,2,8,,,,,,,,7,04,,,,,,,,,,,,,6,2.443,0,,,,,,-0.117418981,-0.409157986,1,0,0,2.4434,Pegmatite_rect,7,0,7,0,1,
652ece1281c00c38eaafed26,SCR,2024-06-24_11h45.09.336,LearnStrategy,2023.2.3,MacIntel,75.18796992,7,2,9,,,,,,,,6,06,,,,,,,,,,,,,7,6.138,0,,,,,,0.149511719,-0.420156973,1,0,0,6.1384,Peridotite_rect,8,0,8,0,1,
652ece1281c00c38eaafed26,SCR,2024-06-24_11h45.09.336,LearnStrategy,2023.2.3,MacIntel,75.18796992,7,2,10,,,,,,,,3,10,,,,,,,,,,,,,4,2.956,0,,,,,,0.350394242,-0.267013889,1,0,0,2.956,Gabbro_rect,9,0,9,0,1,
652ece1281c00c38eaafed26,SCR,2024-06-24_11h45.09.336,LearnStrategy,2023.2.3,MacIntel,75.18796992,7,2,11,,,,,,,,3,11,,,,,,,,,,,,,1,2.821,0,,,,,,-0.373433883,-0.260828993,1,0,0,2.8206,Andesite_rect,10,0,10,0,1,
652ece1281c00c38eaafed26,SCR,2024-06-24_11h45.09.336,LearnStrategy,2023.2.3,MacIntel,75.18796992,7,2,12,,,,,,,,1,05,,,,,,,,,,,,,1,3.665,1,,,,,,-0.394769965,-0.263100405,1,0,0,3.6651,Andesite_rect,11,0,11,0,1,
652ece1281c00c38eaafed26,SCR,2024-06-24_11h45.09.336,LearnStrategy,2023.2.3,MacIntel,75.18796992,7,2,13,,,,,,,,4,16,,,,,,,,,,,,,2,4.563,0,,,,,,-0.149121094,-0.257042101,1,0,0,4.5635,Basalt_rect,12,0,12,0,1,
652ece1281c00c38eaafed26,SCR,2024-06-24_11h45.09.336,LearnStrategy,2023.2.3,MacIntel,75.18796992,7,2,14,,,,,,,,1,03,,,,,,,,,,,,,1,2.876,1,,,,,,-0.334646267,-0.237836372,1,0,0,2.8763,Andesite_rect,13,0,13,0,1,
652ece1281c00c38eaafed26,SCR,2024-06-24_11h45.09.336,LearnStrategy,2023.2.3,MacIntel,75.18796992,7,2,15,,,,,,,,7,16,,,,,,,,,,,,,3,3.499,0,,,,,,0.143156829,-0.258340567,1,0,0,3.4989,Diorite_rect,14,0,14,0,1,
652ece1281c00c38eaafed26,SCR,2024-06-24_11h45.09.336,LearnStrategy,2023.2.3,MacIntel,75.18796992,7,2,16,,,,,,,,2,12,,,,,,,,,,,,,8,1.785,0,,,,,,0.380638744,-0.412011719,1,0,0,1.785,Pumice_rect,15,0,15,0,1,
652ece1281c00c38eaafed26,SCR,2024-06-24_11h45.09.336,LearnStrategy,2023.2.3,MacIntel,75.18796992,8,1,1,-0.076508247,-0.085702402,1,0,0,5.1722,Gabbro_05,4,05,3,4,5.172,7,08,0.174887876,-0.396487992,1,0,0,2.1033,Peridotite_rect,7,2.103,0,0,0,0,0,1,,,,,,,,,,,,,
652ece1281c00c38eaafed26,SCR,2024-06-24_11h45.09.336,LearnStrategy,2023.2.3,MacIntel,75.18796992,8,1,2,-0.219628906,0.225083189,1,0,0,1.6638,Gabbro_15,4,15,5,3,1.664,4,05,0.378786892,-0.257349537,1,0,0,4.6347,Gabbro_rect,4,4.635,1,1,0,1,0,1,,,,,,,,,,,,,
652ece1281c00c38eaafed26,SCR,2024-06-24_11h45.09.336,LearnStrategy,2023.2.3,MacIntel,75.18796992,8,1,3,-0.534114583,0.403186487,1,0,0,3.466,Gabbro_13,4,13,6,1,3.466,8,04,0.421173322,-0.25422092,1,0,0,1.9662,Gabbro_rect,4,1.966,1,2,0,2,0,1,,,,,,,,,,,,,
652ece1281c00c38eaafed26,SCR,2024-06-24_11h45.09.336,LearnStrategy,2023.2.3,MacIntel,75.18796992,8,1,4,0.387749566,0.406597222,1,0,0,3.9049,Gabbro_08,4,08,6,7,3.905,3,07,0.41813151,-0.255356626,1,0,0,1.5068,Gabbro_rect,4,1.507,1,3,0,3,0,1,,,,,,,,,,,,,
652ece1281c00c38eaafed26,SCR,2024-06-24_11h45.09.336,LearnStrategy,2023.2.3,MacIntel,75.18796992,8,1,5,0.533539497,0.23479456,1,0,0,2.4271,Gabbro_09,4,09,5,8,2.427,3,14,0.107953559,-0.229137731,1,0,0,2.4863,Diorite_rect,3,2.486,0,4,0,4,0,1,,,,,,,,,,,,,
652ece1281c00c38eaafed26,SCR,2024-06-24_11h45.09.336,LearnStrategy,2023.2.3,MacIntel,75.18796992,8,1,6,0.088093171,0.228103299,1,0,0,2.7031,Basalt_16,2,16,5,5,2.703,4,15,0.422786458,-0.260662616,1,0,0,2.7838,Gabbro_rect,4,2.784,0,5,0,5,0,1,,,,,,,,,,,,,
652ece1281c00c38eaafed26,SCR,2024-06-24_11h45.09.336,LearnStrategy,2023.2.3,MacIntel,75.18796992,8,1,7,-0.211953848,0.235677083,1,0,0,2.5441,Gabbro_15,4,15,5,3,2.544,6,08,0.406969763,-0.257606337,1,0,0,2.0431,Gabbro_rect,4,2.043,1,6,0,6,0,1,,,,,,,,,,,,,
652ece1281c00c38eaafed26,SCR,2024-06-24_11h45.09.336,LearnStrategy,2023.2.3,MacIntel,75.18796992,8,1,8,0.563917824,0.079278791,1,0,0,4.4277,Andesite_06,1,06,4,8,4.428,3,14,-0.378240741,-0.249851707,1,0,0,1.9226,Andesite_rect,1,1.923,1,7,0,7,0,1,,,,,,,,,,,,,
652ece1281c00c38eaafed26,SCR,2024-06-24_11h45.09.336,LearnStrategy,2023.2.3,MacIntel,75.18796992,8,1,9,0.359827112,0.070710359,1,0,0,1.1436,Peridotite_14,7,14,4,7,1.144,6,12,0.176276765,-0.417932581,1,0,0,2.5146,Peridotite_rect,7,2.515,1,8,0,8,0,1,,,,,,,,,,,,,
652ece1281c00c38eaafed26,SCR,2024-06-24_11h45.09.336,LearnStrategy,2023.2.3,MacIntel,75.18796992,8,1,10,-0.047410301,0.076453993,1,0,0,1.9325,Pumice_10,8,10,4,4,1.933,7,08,0.395967159,-0.401323785,1,0,0,1.9938,Pumice_rect,8,1.994,1,9,0,9,0,1,,,,,,,,,,,,,
652ece1281c00c38eaafed26,SCR,2024-06-24_11h45.09.336,LearnStrategy,2023.2.3,MacIntel,75.18796992,8,1,11,-0.523697917,0.117932581,1,0,0,2.6126,Diorite_09,3,09,4,1,2.613,7,13,0.396733941,-0.250343605,1,0,0,2.6871,Gabbro_rect,4,2.687,0,10,0,10,0,1,,,,,,,,,,,,,
652ece1281c00c38eaafed26,SCR,2024-06-24_11h45.09.336,LearnStrategy,2023.2.3,MacIntel,75.18796992,8,1,12,0.097356047,-0.237058738,1,0,0,3.7066,Diorite_07,3,07,2,5,3.707,2,16,0.468366609,-0.24052011,1,0,0,1.8118,Gabbro_rect,4,1.812,0,11,0,11,0,1,,,,,,,,,,,,,
652ece1281c00c38eaafed26,SCR,2024-06-24_11h45.09.336,LearnStrategy,2023.2.3,MacIntel,75.18796992,8,1,13,-0.405088976,-0.264756944,1,0,0,5.0641,Diorite_13,3,13,2,2,5.064,1,09,0.152864583,-0.253363715,1,0,0,1.2775,Diorite_rect,3,1.278,1,12,0,12,0,1,,,,,,,,,,,,,
652ece1281c00c38eaafed26,SCR,2024-06-24_11h45.09.336,LearnStrategy,2023.2.3,MacIntel,75.18796992,8,1,14,-0.532175926,-0.111389612,1,0,0,1.9316,Andesite_07,1,07,3,1,1.932,3,14,-0.397262008,-0.245095486,1,0,0,0.6458,Andesite_rect,1,0.646,1,13,0,13,0,1,,,,,,,,,,,,,
652ece1281c00c38eaafed26,SCR,2024-06-24_11h45.09.336,LearnStrategy,2023.2.3,MacIntel,75.18796992,8,1,15,0.103320312,-0.418612558,1,0,0,3.0409,Peridotite_08,7,08,1,5,3.041,2,02,0.100853588,-0.414923322,1,0,0,5.5345,Peridotite_rect,7,5.534,1,14,0,14,0,1,,,,,,,,,,,,,
652ece1281c00c38eaafed26,SCR,2024-06-24_11h45.09.336,LearnStrategy,2023.2.3,MacIntel,75.18796992,8,1,16,0.228403501,-0.438802083,1,0,0,1.9028,Andesite_16,1,16,1,6,1.903,4,15,-0.369386574,-0.240393519,1,0,0,3.9404,Andesite_rect,1,3.94,1,15,0,15,0,1,,,,,,,,,,,,,
652ece1281c00c38eaafed26,SCR,2024-06-24_11h45.09.336,LearnStrategy,2023.2.3,MacIntel,75.18796992,8,2,1,,,,,,,,8,08,,,,,,,,,,,,,8,1.502,1,,,,,,0.383333333,-0.411230469,1,0,0,1.5021,Pumice_rect,0,0,0,0,1,
652ece1281c00c38eaafed26,SCR,2024-06-24_11h45.09.336,LearnStrategy,2023.2.3,MacIntel,75.18796992,8,2,2,,,,,,,,2,05,,,,,,,,,,,,,2,0.951,1,,,,,,-0.100922309,-0.26666305,1,0,0,0.9514,Basalt_rect,1,0,1,0,1,
652ece1281c00c38eaafed26,SCR,2024-06-24_11h45.09.336,LearnStrategy,2023.2.3,MacIntel,75.18796992,8,2,3,,,,,,,,5,14,,,,,,,,,,,,,5,1.39,1,,,,,,-0.359570312,-0.381597222,1,0,0,1.3901,Obsidian_rect,2,0,2,0,1,
652ece1281c00c38eaafed26,SCR,2024-06-24_11h45.09.336,LearnStrategy,2023.2.3,MacIntel,75.18796992,8,2,4,,,,,,,,3,08,,,,,,,,,,,,,3,4.684,1,,,,,,0.129003906,-0.258308015,1,0,0,4.6841,Diorite_rect,3,0,3,0,1,
652ece1281c00c38eaafed26,SCR,2024-06-24_11h45.09.336,LearnStrategy,2023.2.3,MacIntel,75.18796992,8,2,5,,,,,,,,1,11,,,,,,,,,,,,,1,4.926,1,,,,,,-0.382928241,-0.2497432,1,0,0,4.9263,Andesite_rect,4,0,4,0,1,
652ece1281c00c38eaafed26,SCR,2024-06-24_11h45.09.336,LearnStrategy,2023.2.3,MacIntel,75.18796992,8,2,6,,,,,,,,7,05,,,,,,,,,,,,,3,4.851,0,,,,,,0.071404803,-0.24546441,1,0,0,4.851,Diorite_rect,5,0,5,0,1,
652ece1281c00c38eaafed26,SCR,2024-06-24_11h45.09.336,LearnStrategy,2023.2.3,MacIntel,75.18796992,8,2,7,,,,,,,,4,11,,,,,,,,,,,,,4,3.011,1,,,,,,0.4106807,-0.267332176,1,0,0,3.0106,Gabbro_rect,6,0,6,0,1,
652ece1281c00c38eaafed26,SCR,2024-06-24_11h45.09.336,LearnStrategy,2023.2.3,MacIntel,75.18796992,8,2,8,,,,,,,,7,15,,,,,,,,,,,,,7,6.223,1,,,,,,0.144415509,-0.399938513,1,0,0,6.2225,Peridotite_rect,7,0,7,0,1,
652ece1281c00c38eaafed26,SCR,2024-06-24_11h45.09.336,LearnStrategy,2023.2.3,MacIntel,75.18796992,8,2,9,,,,,,,,8,05,,,,,,,,,,,,,8,0.982,1,,,,,,0.459071181,-0.405862992,1,0,0,0.982,Pumice_rect,8,0,8,0,1,
652ece1281c00c38eaafed26,SCR,2024-06-24_11h45.09.336,LearnStrategy,2023.2.3,MacIntel,75.18796992,8,2,10,,,,,,,,6,13,,,,,,,,,,,,,6,1.551,1,,,,,,-0.135297309,-0.411270255,1,0,0,1.5515,Pegmatite_rect,9,0,9,0,1,
652ece1281c00c38eaafed26,SCR,2024-06-24_11h45.09.336,LearnStrategy,2023.2.3,MacIntel,75.18796992,8,2,11,,,,,,,,4,01,,,,,,,,,,,,,3,5.033,0,,,,,,0.093608941,-0.270363137,1,0,0,5.0329,Diorite_rect,10,0,10,0,1,
652ece1281c00c38eaafed26,SCR,2024-06-24_11h45.09.336,LearnStrategy,2023.2.3,MacIntel,75.18796992,8,2,12,,,,,,,,3,16,,,,,,,,,,,,,3,3.663,1,,,,,,0.163364439,-0.268406395,1,0,0,3.6629,Diorite_rect,11,0,11,0,1,
652ece1281c00c38eaafed26,SCR,2024-06-24_11h45.09.336,LearnStrategy,2023.2.3,MacIntel,75.18796992,8,2,13,,,,,,,,6,15,,,,,,,,,,,,,6,4.482,1,,,,,,-0.076793981,-0.391644965,1,0,0,4.4823,Pegmatite_rect,12,0,12,0,1,
652ece1281c00c38eaafed26,SCR,2024-06-24_11h45.09.336,LearnStrategy,2023.2.3,MacIntel,75.18796992,8,2,14,,,,,,,,2,11,,,,,,,,,,,,,8,2.026,0,,,,,,0.418594473,-0.416583478,1,0,0,2.026,Pumice_rect,13,0,13,0,1,
652ece1281c00c38eaafed26,SCR,2024-06-24_11h45.09.336,LearnStrategy,2023.2.3,MacIntel,75.18796992,8,2,15,,,,,,,,5,04,,,,,,,,,,,,,5,1.084,1,,,,,,-0.357494213,-0.394466146,1,0,0,1.0844,Obsidian_rect,14,0,14,0,1,
652ece1281c00c38eaafed26,SCR,2024-06-24_11h45.09.336,LearnStrategy,2023.2.3,MacIntel,75.18796992,8,2,16,,,,,,,,1,04,,,,,,,,,,,,,1,5.807,1,,,,,,-0.361809172,-0.257269965,1,0,0,5.807,Andesite_rect,15,0,15,0,1,
652ece1281c00c38eaafed26,SCR,2024-06-24_11h45.09.336,LearnStrategy,2023.2.3,MacIntel,75.18796992,9,1,1,0.091811343,-0.092335793,1,0,0,1.2539,Peridotite_12,7,12,3,5,1.254,7,12,-0.079868345,-0.416163918,1,0,0,7.4863,Pegmatite_rect,6,7.486,0,0,0,0,0,1,,,,,,,,,,,,,
652ece1281c00c38eaafed26,SCR,2024-06-24_11h45.09.336,LearnStrategy,2023.2.3,MacIntel,75.18796992,9,1,2,-0.373773872,-0.273455584,1,0,0,6.468,Diorite_13,3,13,2,2,6.468,2,10,0.165216291,-0.260394965,1,0,0,2.1822,Diorite_rect,3,2.182,1,1,0,1,0,1,,,,,,,,,,,,,
652ece1281c00c38eaafed26,SCR,2024-06-24_11h45.09.336,LearnStrategy,2023.2.3,MacIntel,75.18796992,9,1,3,0.077054398,-0.104018374,1,0,0,1.5703,Peridotite_12,7,12,3,5,1.57,7,14,0.147735822,-0.399421296,1,0,0,1.8731,Peridotite_rect,7,1.873,1,2,0,2,0,1,,,,,,,,,,,,,
652ece1281c00c38eaafed26,SCR,2024-06-24_11h45.09.336,LearnStrategy,2023.2.3,MacIntel,75.18796992,9,1,4,0.253298611,-0.435901331,1,0,0,2.2882,Andesite_16,1,16,1,6,2.288,1,07,-0.116811343,-0.405750868,1,0,0,3.2867,Pegmatite_rect,6,3.287,0,3,0,3,0,1,,,,,,,,,,,,,
652ece1281c00c38eaafed26,SCR,2024-06-24_11h45.09.336,LearnStrategy,2023.2.3,MacIntel,75.18796992,9,1,5,-0.520891204,0.379832176,1,0,0,2.5733,Gabbro_13,4,13,6,1,2.573,7,08,0.419068287,-0.25707827,1,0,0,2.2102,Gabbro_rect,4,2.21,1,4,0,4,0,1,,,,,,,,,,,,,
652ece1281c00c38eaafed26,SCR,2024-06-24_11h45.09.336,LearnStrategy,2023.2.3,MacIntel,75.18796992,9,1,6,0.546343316,-0.107642506,1,0,0,2.0532,Gabbro_03,4,03,3,8,2.053,8,04,0.424656395,-0.253996672,1,0,0,0.6468,Gabbro_rect,4,0.647,1,5,0,5,0,1,,,,,,,,,,,,,
652ece1281c00c38eaafed26,SCR,2024-06-24_11h45.09.336,LearnStrategy,2023.2.3,MacIntel,75.18796992,9,1,7,-0.562745949,0.079618779,1,0,0,2.625,Diorite_09,3,09,4,1,2.625,2,02,0.189076968,-0.263198061,1,0,0,0.8876,Diorite_rect,3,0.888,1,6,0,6,0,1,,,,,,,,,,,,,
652ece1281c00c38eaafed26,SCR,2024-06-24_11h45.09.336,LearnStrategy,2023.2.3,MacIntel,75.18796992,9,1,8,0.076616753,-0.066992187,1,0,0,1.1825,Peridotite_12,7,12,3,5,1.182,2,04,0.173672598,-0.24239728,1,0,0,1.9423,Diorite_rect,3,1.942,0,7,0,7,0,1,,,,,,,,,,,,,
652ece1281c00c38eaafed26,SCR,2024-06-24_11h45.09.336,LearnStrategy,2023.2.3,MacIntel,75.18796992,9,1,9,0.216355613,-0.24765625,1,0,0,1.5699,Pegmatite_05,6,05,2,6,1.57,3,07,-0.176486545,-0.395695891,1,0,0,2.6226,Pegmatite_rect,6,2.623,1,8,0,8,0,1,,,,,,,,,,,,,
652ece1281c00c38eaafed26,SCR,2024-06-24_11h45.09.336,LearnStrategy,2023.2.3,MacIntel,75.18796992,9,1,10,-0.409769242,-0.260427517,1,0,0,4.3307,Diorite_13,3,13,2,2,4.331,4,15,0.097594763,-0.248549624,1,0,0,1.5986,Diorite_rect,3,1.599,1,9,0,9,0,1,,,,,,,,,,,,,
652ece1281c00c38eaafed26,SCR,2024-06-24_11h45.09.336,LearnStrategy,2023.2.3,MacIntel,75.18796992,9,1,11,0.406781684,0.38177445,1,0,0,4.3462,Gabbro_08,4,08,6,7,4.346,6,11,0.065133102,-0.398477286,1,0,0,4.8343,Peridotite_rect,7,4.834,0,10,0,10,0,1,,,,,,,,,,,,,
652ece1281c00c38eaafed26,SCR,2024-06-24_11h45.09.336,LearnStrategy,2023.2.3,MacIntel,75.18796992,9,1,12,0.408839699,-0.109078414,1,0,0,1.9706,Andesite_10,1,10,3,7,1.971,3,12,-0.458767361,-0.250730613,1,0,0,4.5137,Andesite_rect,1,4.514,1,11,0,11,0,1,,,,,,,,,,,,,
652ece1281c00c38eaafed26,SCR,2024-06-24_11h45.09.336,LearnStrategy,2023.2.3,MacIntel,75.18796992,9,1,13,0.208362269,-0.420330584,1,0,0,3.1195,Andesite_16,1,16,1,6,3.12,4,13,0.171925637,-0.419245515,1,0,0,1.9526,Peridotite_rect,7,1.953,0,12,0,12,0,1,,,,,,,,,,,,,
652ece1281c00c38eaafed26,SCR,2024-06-24_11h45.09.336,LearnStrategy,2023.2.3,MacIntel,75.18796992,9,1,14,0.3908818,0.130157697,1,0,0,7.7043,Peridotite_14,7,14,4,7,7.704,7,14,0.171010561,-0.385923032,1,0,0,1.0355,Peridotite_rect,7,1.035,1,13,0,13,0,1,,,,,,,,,,,,,
652ece1281c00c38eaafed26,SCR,2024-06-24_11h45.09.336,LearnStrategy,2023.2.3,MacIntel,75.18796992,9,1,15,0.381618924,-0.412749566,1,0,0,2.1561,Diorite_02,3,02,1,7,2.156,3,02,0.143431713,-0.245558449,1,0,0,1.4863,Diorite_rect,3,1.486,1,14,0,14,0,1,,,,,,,,,,,,,
652ece1281c00c38eaafed26,SCR,2024-06-24_11h45.09.336,LearnStrategy,2023.2.3,MacIntel,75.18796992,9,1,16,-0.557848669,0.423256655,1,0,0,2.3595,Gabbro_13,4,13,6,1,2.36,4,13,0.414265046,-0.243681279,1,0,0,1.8984,Gabbro_rect,4,1.898,1,15,0,15,0,1,,,,,,,,,,,,,
652ece1281c00c38eaafed26,SCR,2024-06-24_11h45.09.336,LearnStrategy,2023.2.3,MacIntel,75.18796992,9,2,1,,,,,,,,2,14,,,,,,,,,,,,,8,6.062,0,,,,,,0.399175347,-0.417003038,1,0,0,6.0615,Pumice_rect,0,0,0,0,1,
652ece1281c00c38eaafed26,SCR,2024-06-24_11h45.09.336,LearnStrategy,2023.2.3,MacIntel,75.18796992,9,2,2,,,,,,,,8,13,,,,,,,,,,,,,8,0.809,1,,,,,,0.378117766,-0.404904514,1,0,0,0.8093,Pumice_rect,1,0,1,0,1,
652ece1281c00c38eaafed26,SCR,2024-06-24_11h45.09.336,LearnStrategy,2023.2.3,MacIntel,75.18796992,9,2,3,,,,,,,,5,07,,,,,,,,,,,,,5,1.445,1,,,,,,-0.455291522,-0.416377315,1,0,0,1.4445,Obsidian_rect,2,0,2,0,1,
652ece1281c00c38eaafed26,SCR,2024-06-24_11h45.09.336,LearnStrategy,2023.2.3,MacIntel,75.18796992,9,2,4,,,,,,,,1,02,,,,,,,,,,,,,6,2.057,0,,,,,,-0.127983941,-0.418927228,1,0,0,2.0574,Pegmatite_rect,3,0,3,0,1,
652ece1281c00c38eaafed26,SCR,2024-06-24_11h45.09.336,LearnStrategy,2023.2.3,MacIntel,75.18796992,9,2,5,,,,,,,,6,16,,,,,,,,,,,,,3,1.384,0,,,,,,0.125292969,-0.250387008,1,0,0,1.3837,Diorite_rect,4,0,4,0,1,
652ece1281c00c38eaafed26,SCR,2024-06-24_11h45.09.336,LearnStrategy,2023.2.3,MacIntel,75.18796992,9,2,6,,,,,,,,5,08,,,,,,,,,,,,,5,1.071,1,,,,,,-0.428739873,-0.385818142,1,0,0,1.0711,Obsidian_rect,5,0,5,0,1,
652ece1281c00c38eaafed26,SCR,2024-06-24_11h45.09.336,LearnStrategy,2023.2.3,MacIntel,75.18796992,9,2,7,,,,,,,,6,09,,,,,,,,,,,,,6,2.077,1,,,,,,-0.131524884,-0.408550347,1,0,0,2.0775,Pegmatite_rect,6,0,6,0,1,
652ece1281c00c38eaafed26,SCR,2024-06-24_11h45.09.336,LearnStrategy,2023.2.3,MacIntel,75.18796992,9,2,8,,,,,,,,4,12,,,,,,,,,,,,,4,2.347,1,,,,,,0.428399884,-0.264572483,1,0,0,2.3474,Gabbro_rect,7,0,7,0,1,
652ece1281c00c38eaafed26,SCR,2024-06-24_11h45.09.336,LearnStrategy,2023.2.3,MacIntel,75.18796992,9,2,9,,,,,,,,8,14,,,,,,,,,,,,,8,3.218,1,,,,,,0.403103299,-0.413556134,1,0,0,3.2184,Pumice_rect,8,0,8,0,1,
652ece1281c00c38eaafed26,SCR,2024-06-24_11h45.09.336,LearnStrategy,2023.2.3,MacIntel,75.18796992,9,2,10,,,,,,,,7,02,,,,,,,,,,,,,7,6.212,1,,,,,,0.145543981,-0.388621238,1,0,0,6.2124,Peridotite_rect,9,0,9,0,1,
652ece1281c00c38eaafed26,SCR,2024-06-24_11h45.09.336,LearnStrategy,2023.2.3,MacIntel,75.18796992,9,2,11,,,,,,,,2,08,,,,,,,,,,,,,2,1.21,1,,,,,,-0.112568721,-0.24286386,1,0,0,1.2098,Basalt_rect,10,0,10,0,1,
652ece1281c00c38eaafed26,SCR,2024-06-24_11h45.09.336,LearnStrategy,2023.2.3,MacIntel,75.18796992,9,2,12,,,,,,,,3,06,,,,,,,,,,,,,3,2.604,1,,,,,,0.10620298,-0.254777922,1,0,0,2.6036,Diorite_rect,11,0,11,0,1,
652ece1281c00c38eaafed26,SCR,2024-06-24_11h45.09.336,LearnStrategy,2023.2.3,MacIntel,75.18796992,9,2,13,,,,,,,,4,10,,,,,,,,,,,,,4,4.158,1,,,,,,0.382696759,-0.241540075,1,0,0,4.158,Gabbro_rect,12,0,12,0,1,
652ece1281c00c38eaafed26,SCR,2024-06-24_11h45.09.336,LearnStrategy,2023.2.3,MacIntel,75.18796992,9,2,14,,,,,,,,1,01,,,,,,,,,,,,,4,3.609,0,,,,,,0.385930266,-0.234353299,1,0,0,3.6089,Gabbro_rect,13,0,13,0,1,
652ece1281c00c38eaafed26,SCR,2024-06-24_11h45.09.336,LearnStrategy,2023.2.3,MacIntel,75.18796992,9,2,15,,,,,,,,7,07,,,,,,,,,,,,,7,3.585,1,,,,,,0.146632668,-0.39437934,1,0,0,3.5851,Peridotite_rect,14,0,14,0,1,
652ece1281c00c38eaafed26,SCR,2024-06-24_11h45.09.336,LearnStrategy,2023.2.3,MacIntel,75.18796992,9,2,16,,,,,,,,3,15,,,,,,,,,,,,,4,2.543,0,,,,,,0.380277054,-0.243898293,1,0,0,2.5431,Gabbro_rect,15,0,15,0,1,
652ece1281c00c38eaafed26,SCR,2024-06-24_11h45.09.336,LearnStrategy,2023.2.3,MacIntel,75.18796992,,,,,,,,,,,,,,,,,,,,,,,,,,,,,,,,,,,,,,,,,,,,,1
652ece1281c00c38eaafed26,SCR,2024-06-24_11h45.09.336,LearnStrategy,2023.2.3,MacIntel,75.18796992,,,,,,,,,,,,,,,,,,,,,,,,,,,,,,,,,,,,,,,,,,,,,
652ece1281c00c38eaafed26,SCR,2024-06-24_11h45.09.336,LearnStrategy,2023.2.3,MacIntel,75.18796992,,,,,,,,,,,5,06,1,1,,,,,,,,,,,,,,,,,,,,,,,,,,,,,,,
652ece1281c00c38eaafed26,SCR,2024-06-24_11h45.09.336,LearnStrategy,2023.2.3,MacIntel,75.18796992,,,,,,,,,,,5,09,1,2,,,,,,,,,,,,,,,,,,,,,,,,,,,,,,,
652ece1281c00c38eaafed26,SCR,2024-06-24_11h45.09.336,LearnStrategy,2023.2.3,MacIntel,75.18796992,,,,,,,,,,,5,10,1,3,,,,,,,,,,,,,,,,,,,,,,,,,,,,,,,
652ece1281c00c38eaafed26,SCR,2024-06-24_11h45.09.336,LearnStrategy,2023.2.3,MacIntel,75.18796992,,,,,,,,,,,8,16,1,4,,,,,,,,,,,,,,,,,,,,,,,,,,,,,,,
652ece1281c00c38eaafed26,SCR,2024-06-24_11h45.09.336,LearnStrategy,2023.2.3,MacIntel,75.18796992,,,,,,,,,,,7,08,1,5,,,,,,,,,,,,,,,,,,,,,,,,,,,,,,,
652ece1281c00c38eaafed26,SCR,2024-06-24_11h45.09.336,LearnStrategy,2023.2.3,MacIntel,75.18796992,,,,,,,,,,,1,16,1,6,,,,,,,,,,,,,,,,,,,,,,,,,,,,,,,
652ece1281c00c38eaafed26,SCR,2024-06-24_11h45.09.336,LearnStrategy,2023.2.3,MacIntel,75.18796992,,,,,,,,,,,3,02,1,7,,,,,,,,,,,,,,,,,,,,,,,,,,,,,,,
652ece1281c00c38eaafed26,SCR,2024-06-24_11h45.09.336,LearnStrategy,2023.2.3,MacIntel,75.18796992,,,,,,,,,,,1,09,1,8,,,,,,,,,,,,,,,,,,,,,,,,,,,,,,,
652ece1281c00c38eaafed26,SCR,2024-06-24_11h45.09.336,LearnStrategy,2023.2.3,MacIntel,75.18796992,,,,,,,,,,,8,15,2,1,,,,,,,,,,,,,,,,,,,,,,,,,,,,,,,
652ece1281c00c38eaafed26,SCR,2024-06-24_11h45.09.336,LearnStrategy,2023.2.3,MacIntel,75.18796992,,,,,,,,,,,3,13,2,2,,,,,,,,,,,,,,,,,,,,,,,,,,,,,,,
652ece1281c00c38eaafed26,SCR,2024-06-24_11h45.09.336,LearnStrategy,2023.2.3,MacIntel,75.18796992,,,,,,,,,,,5,11,2,3,,,,,,,,,,,,,,,,,,,,,,,,,,,,,,,
652ece1281c00c38eaafed26,SCR,2024-06-24_11h45.09.336,LearnStrategy,2023.2.3,MacIntel,75.18796992,,,,,,,,,,,6,03,2,4,,,,,,,,,,,,,,,,,,,,,,,,,,,,,,,
652ece1281c00c38eaafed26,SCR,2024-06-24_11h45.09.336,LearnStrategy,2023.2.3,MacIntel,75.18796992,,,,,,,,,,,3,07,2,5,,,,,,,,,,,,,,,,,,,,,,,,,,,,,,,
652ece1281c00c38eaafed26,SCR,2024-06-24_11h45.09.336,LearnStrategy,2023.2.3,MacIntel,75.18796992,,,,,,,,,,,6,05,2,6,,,,,,,,,,,,,,,,,,,,,,,,,,,,,,,
652ece1281c00c38eaafed26,SCR,2024-06-24_11h45.09.336,LearnStrategy,2023.2.3,MacIntel,75.18796992,,,,,,,,,,,3,14,2,7,,,,,,,,,,,,,,,,,,,,,,,,,,,,,,,
652ece1281c00c38eaafed26,SCR,2024-06-24_11h45.09.336,LearnStrategy,2023.2.3,MacIntel,75.18796992,,,,,,,,,,,7,06,2,8,,,,,,,,,,,,,,,,,,,,,,,,,,,,,,,
652ece1281c00c38eaafed26,SCR,2024-06-24_11h45.09.336,LearnStrategy,2023.2.3,MacIntel,75.18796992,,,,,,,,,,,1,07,3,1,,,,,,,,,,,,,,,,,,,,,,,,,,,,,,,
652ece1281c00c38eaafed26,SCR,2024-06-24_11h45.09.336,LearnStrategy,2023.2.3,MacIntel,75.18796992,,,,,,,,,,,1,14,3,2,,,,,,,,,,,,,,,,,,,,,,,,,,,,,,,
652ece1281c00c38eaafed26,SCR,2024-06-24_11h45.09.336,LearnStrategy,2023.2.3,MacIntel,75.18796992,,,,,,,,,,,2,04,3,3,,,,,,,,,,,,,,,,,,,,,,,,,,,,,,,
652ece1281c00c38eaafed26,SCR,2024-06-24_11h45.09.336,LearnStrategy,2023.2.3,MacIntel,75.18796992,,,,,,,,,,,4,05,3,4,,,,,,,,,,,,,,,,,,,,,,,,,,,,,,,
652ece1281c00c38eaafed26,SCR,2024-06-24_11h45.09.336,LearnStrategy,2023.2.3,MacIntel,75.18796992,,,,,,,,,,,7,12,3,5,,,,,,,,,,,,,,,,,,,,,,,,,,,,,,,
652ece1281c00c38eaafed26,SCR,2024-06-24_11h45.09.336,LearnStrategy,2023.2.3,MacIntel,75.18796992,,,,,,,,,,,8,06,3,6,,,,,,,,,,,,,,,,,,,,,,,,,,,,,,,
652ece1281c00c38eaafed26,SCR,2024-06-24_11h45.09.336,LearnStrategy,2023.2.3,MacIntel,75.18796992,,,,,,,,,,,1,10,3,7,,,,,,,,,,,,,,,,,,,,,,,,,,,,,,,
652ece1281c00c38eaafed26,SCR,2024-06-24_11h45.09.336,LearnStrategy,2023.2.3,MacIntel,75.18796992,,,,,,,,,,,4,03,3,8,,,,,,,,,,,,,,,,,,,,,,,,,,,,,,,
652ece1281c00c38eaafed26,SCR,2024-06-24_11h45.09.336,LearnStrategy,2023.2.3,MacIntel,75.18796992,,,,,,,,,,,3,09,4,1,,,,,,,,,,,,,,,,,,,,,,,,,,,,,,,
652ece1281c00c38eaafed26,SCR,2024-06-24_11h45.09.336,LearnStrategy,2023.2.3,MacIntel,75.18796992,,,,,,,,,,,3,12,4,2,,,,,,,,,,,,,,,,,,,,,,,,,,,,,,,
652ece1281c00c38eaafed26,SCR,2024-06-24_11h45.09.336,LearnStrategy,2023.2.3,MacIntel,75.18796992,,,,,,,,,,,7,13,4,3,,,,,,,,,,,,,,,,,,,,,,,,,,,,,,,
652ece1281c00c38eaafed26,SCR,2024-06-24_11h45.09.336,LearnStrategy,2023.2.3,MacIntel,75.18796992,,,,,,,,,,,8,10,4,4,,,,,,,,,,,,,,,,,,,,,,,,,,,,,,,
652ece1281c00c38eaafed26,SCR,2024-06-24_11h45.09.336,LearnStrategy,2023.2.3,MacIntel,75.18796992,,,,,,,,,,,8,09,4,5,,,,,,,,,,,,,,,,,,,,,,,,,,,,,,,
652ece1281c00c38eaafed26,SCR,2024-06-24_11h45.09.336,LearnStrategy,2023.2.3,MacIntel,75.18796992,,,,,,,,,,,6,10,4,6,,,,,,,,,,,,,,,,,,,,,,,,,,,,,,,
652ece1281c00c38eaafed26,SCR,2024-06-24_11h45.09.336,LearnStrategy,2023.2.3,MacIntel,75.18796992,,,,,,,,,,,7,14,4,7,,,,,,,,,,,,,,,,,,,,,,,,,,,,,,,
652ece1281c00c38eaafed26,SCR,2024-06-24_11h45.09.336,LearnStrategy,2023.2.3,MacIntel,75.18796992,,,,,,,,,,,1,06,4,8,,,,,,,,,,,,,,,,,,,,,,,,,,,,,,,
652ece1281c00c38eaafed26,SCR,2024-06-24_11h45.09.336,LearnStrategy,2023.2.3,MacIntel,75.18796992,,,,,,,,,,,2,02,5,1,,,,,,,,,,,,,,,,,,,,,,,,,,,,,,,
652ece1281c00c38eaafed26,SCR,2024-06-24_11h45.09.336,LearnStrategy,2023.2.3,MacIntel,75.18796992,,,,,,,,,,,5,16,5,2,,,,,,,,,,,,,,,,,,,,,,,,,,,,,,,
652ece1281c00c38eaafed26,SCR,2024-06-24_11h45.09.336,LearnStrategy,2023.2.3,MacIntel,75.18796992,,,,,,,,,,,4,15,5,3,,,,,,,,,,,,,,,,,,,,,,,,,,,,,,,
652ece1281c00c38eaafed26,SCR,2024-06-24_11h45.09.336,LearnStrategy,2023.2.3,MacIntel,75.18796992,,,,,,,,,,,8,04,5,4,,,,,,,,,,,,,,,,,,,,,,,,,,,,,,,
652ece1281c00c38eaafed26,SCR,2024-06-24_11h45.09.336,LearnStrategy,2023.2.3,MacIntel,75.18796992,,,,,,,,,,,2,16,5,5,,,,,,,,,,,,,,,,,,,,,,,,,,,,,,,
652ece1281c00c38eaafed26,SCR,2024-06-24_11h45.09.336,LearnStrategy,2023.2.3,MacIntel,75.18796992,,,,,,,,,,,2,10,5,6,,,,,,,,,,,,,,,,,,,,,,,,,,,,,,,
652ece1281c00c38eaafed26,SCR,2024-06-24_11h45.09.336,LearnStrategy,2023.2.3,MacIntel,75.18796992,,,,,,,,,,,7,10,5,7,,,,,,,,,,,,,,,,,,,,,,,,,,,,,,,
652ece1281c00c38eaafed26,SCR,2024-06-24_11h45.09.336,LearnStrategy,2023.2.3,MacIntel,75.18796992,,,,,,,,,,,4,09,5,8,,,,,,,,,,,,,,,,,,,,,,,,,,,,,,,
652ece1281c00c38eaafed26,SCR,2024-06-24_11h45.09.336,LearnStrategy,2023.2.3,MacIntel,75.18796992,,,,,,,,,,,4,13,6,1,,,,,,,,,,,,,,,,,,,,,,,,,,,,,,,
652ece1281c00c38eaafed26,SCR,2024-06-24_11h45.09.336,LearnStrategy,2023.2.3,MacIntel,75.18796992,,,,,,,,,,,5,12,6,2,,,,,,,,,,,,,,,,,,,,,,,,,,,,,,,
652ece1281c00c38eaafed26,SCR,2024-06-24_11h45.09.336,LearnStrategy,2023.2.3,MacIntel,75.18796992,,,,,,,,,,,6,11,6,3,,,,,,,,,,,,,,,,,,,,,,,,,,,,,,,
652ece1281c00c38eaafed26,SCR,2024-06-24_11h45.09.336,LearnStrategy,2023.2.3,MacIntel,75.18796992,,,,,,,,,,,2,06,6,4,,,,,,,,,,,,,,,,,,,,,,,,,,,,,,,
652ece1281c00c38eaafed26,SCR,2024-06-24_11h45.09.336,LearnStrategy,2023.2.3,MacIntel,75.18796992,,,,,,,,,,,6,12,6,5,,,,,,,,,,,,,,,,,,,,,,,,,,,,,,,
652ece1281c00c38eaafed26,SCR,2024-06-24_11h45.09.336,LearnStrategy,2023.2.3,MacIntel,75.18796992,,,,,,,,,,,2,01,6,6,,,,,,,,,,,,,,,,,,,,,,,,,,,,,,,
652ece1281c00c38eaafed26,SCR,2024-06-24_11h45.09.336,LearnStrategy,2023.2.3,MacIntel,75.18796992,,,,,,,,,,,4,08,6,7,,,,,,,,,,,,,,,,,,,,,,,,,,,,,,,
652ece1281c00c38eaafed26,SCR,2024-06-24_11h45.09.336,LearnStrategy,2023.2.3,MacIntel,75.18796992,,,,,,,,,,,6,08,6,8,,,,,,,,,,,,,,,,,,,,,,,,,,,,,,,