participant,condition,date,expName,psychopyVersion,OS,frameRate,block,phase,trial,learn_mouse.x,learn_mouse.y,learn_mouse.leftButton,learn_mouse.midButton,learn_mouse.rightButton,learn_mouse.time,learn_mouse.clicked_name,cat,token,row,col,t_select,cat_rec,token_rec,cat_mouse_l.x,cat_mouse_l.y,cat_mouse_l.leftButton,cat_mouse_l.midButton,cat_mouse_l.rightButton,cat_mouse_l.time,cat_mouse_l.clicked_name,resp,t_resp,corr,train_trials.thisRepN,train_trials.thisTrialN,train_trials.thisN,train_trials.thisIndex,train_trials.ran,cat_mouse_t.x,cat_mouse_t.y,cat_mouse_t.leftButton,cat_mouse_t.midButton,cat_mouse_t.rightButton,cat_mouse_t.time,cat_mouse_t.clicked_name,test_trials.thisRepN,test_trials.thisTrialN,test_trials.thisN,test_trials.thisIndex,test_trials.ran,Bonus
653feb348f4df4e625de5909,SCR,2024-06-24_16h46.02.672,LearnStrategy,2023.2.3,Win32,59.88023952,,,,,,,,,,,,,,,,,,,,,,,,,,,,,,,,,,,,,,,,,,,,,
653feb348f4df4e625de5909,SCR,2024-06-24_16h46.02.672,LearnStrategy,2023.2.3,Win32,59.88023952,1,1,1,0.06375,-0.07875,1,0,0,8.2681,Andesite_05,1,05,3,5,8.268,5,16,0.14,-0.2525,1,0,0,18.2639,Diorite_rect,3,18.264,0,0,0,0,0,1,,,,,,,,,,,,,
653feb348f4df4e625de5909,SCR,2024-06-24_16h46.02.672,LearnStrategy,2023.2.3,Win32,59.88023952,1,1,2,-0.06625,0.08875,1,0,0,4.1264,Diorite_08,3,08,4,4,4.126,1,16,-0.15375,-0.245,1,0,0,4.626,Basalt_rect,2,4.626,0,1,0,1,0,1,,,,,,,,,,,,,
653feb348f4df4e625de5909,SCR,2024-06-24_16h46.02.672,LearnStrategy,2023.2.3,Win32,59.88023952,1,1,3,-0.23375,0.40625,1,0,0,4.4569,Andesite_01,1,01,6,3,4.457,6,06,-0.375,-0.39875,1,0,0,4.4192,Obsidian_rect,5,4.419,0,2,0,2,0,1,,,,,,,,,,,,,
653feb348f4df4e625de5909,SCR,2024-06-24_16h46.02.672,LearnStrategy,2023.2.3,Win32,59.88023952,1,1,4,-0.395,-0.225,1,0,0,3.1912,Basalt_04,2,04,2,2,3.191,3,08,-0.3825,-0.40375,1,0,0,2.6109,Obsidian_rect,5,2.611,0,3,0,3,0,1,,,,,,,,,,,,,
653feb348f4df4e625de5909,SCR,2024-06-24_16h46.02.672,LearnStrategy,2023.2.3,Win32,59.88023952,1,1,5,-0.37875,-0.39625,1,0,0,5.3884,Diorite_14,3,14,1,2,5.388,4,10,-0.35375,-0.24125,1,0,0,3.8842,Andesite_rect,1,3.884,0,4,0,4,0,1,,,,,,,,,,,,,
653feb348f4df4e625de5909,SCR,2024-06-24_16h46.02.672,LearnStrategy,2023.2.3,Win32,59.88023952,1,1,6,0.52875,0.25375,1,0,0,11.2314,Andesite_06,1,06,5,8,11.231,8,08,-0.36625,-0.24125,1,0,0,7.4111,Andesite_rect,1,7.411,1,5,0,5,0,1,,,,,,,,,,,,,
653feb348f4df4e625de5909,SCR,2024-06-24_16h46.02.672,LearnStrategy,2023.2.3,Win32,59.88023952,1,1,7,0.07,0.08625,1,0,0,3.4045,Peridotite_05,7,05,4,5,3.404,2,05,-0.32,-0.24375,1,0,0,2.8161,Andesite_rect,1,2.816,0,6,0,6,0,1,,,,,,,,,,,,,
653feb348f4df4e625de5909,SCR,2024-06-24_16h46.02.672,LearnStrategy,2023.2.3,Win32,59.88023952,1,1,8,0.5525,-0.26125,1,0,0,19.3725,Andesite_16,1,16,2,8,19.372,2,08,0.15125,-0.41375,1,0,0,3.1421,Peridotite_rect,7,3.142,0,7,0,7,0,1,,,,,,,,,,,,,
653feb348f4df4e625de5909,SCR,2024-06-24_16h46.02.672,LearnStrategy,2023.2.3,Win32,59.88023952,1,1,9,-0.25,0.08875,1,0,0,1.6015,Obsidian_14,5,14,4,3,1.601,3,07,-0.38625,-0.39375,1,0,0,2.8385,Obsidian_rect,5,2.838,1,8,0,8,0,1,,,,,,,,,,,,,
653feb348f4df4e625de5909,SCR,2024-06-24_16h46.02.672,LearnStrategy,2023.2.3,Win32,59.88023952,1,1,10,-0.565,0.11125,1,0,0,2.1734,Obsidian_04,5,04,4,1,2.173,5,14,-0.36375,-0.40125,1,0,0,2.144,Obsidian_rect,5,2.144,1,9,0,9,0,1,,,,,,,,,,,,,
653feb348f4df4e625de5909,SCR,2024-06-24_16h46.02.672,LearnStrategy,2023.2.3,Win32,59.88023952,1,1,11,0.39,0.42,1,0,0,2.6892,Obsidian_02,5,02,6,7,2.689,7,15,-0.36375,-0.395,1,0,0,2.7235,Obsidian_rect,5,2.723,1,10,0,10,0,1,,,,,,,,,,,,,
653feb348f4df4e625de5909,SCR,2024-06-24_16h46.02.672,LearnStrategy,2023.2.3,Win32,59.88023952,1,1,12,-0.5675,0.2675,1,0,0,6.0311,Peridotite_10,7,10,5,1,6.031,8,03,-0.13125,-0.25375,1,0,0,3.6196,Basalt_rect,2,3.62,0,11,0,11,0,1,,,,,,,,,,,,,
653feb348f4df4e625de5909,SCR,2024-06-24_16h46.02.672,LearnStrategy,2023.2.3,Win32,59.88023952,1,1,13,-0.53125,-0.41875,1,0,0,4.9671,Peridotite_12,7,12,1,1,4.967,6,16,0.08375,-0.405,1,0,0,3.3891,Peridotite_rect,7,3.389,1,12,0,12,0,1,,,,,,,,,,,,,
653feb348f4df4e625de5909,SCR,2024-06-24_16h46.02.672,LearnStrategy,2023.2.3,Win32,59.88023952,1,1,14,0.23875,0.25,1,0,0,14.6765,Pumice_09,8,09,5,6,14.677,1,11,0.455,-0.40125,1,0,0,4.2646,Pumice_rect,8,4.265,1,13,0,13,0,1,,,,,,,,,,,,,
653feb348f4df4e625de5909,SCR,2024-06-24_16h46.02.672,LearnStrategy,2023.2.3,Win32,59.88023952,1,1,15,0.38875,-0.27375,1,0,0,3.3872,Pumice_10,8,10,2,7,3.387,4,12,0.34375,-0.40625,1,0,0,1.8434,Pumice_rect,8,1.843,1,14,0,14,0,1,,,,,,,,,,,,,
653feb348f4df4e625de5909,SCR,2024-06-24_16h46.02.672,LearnStrategy,2023.2.3,Win32,59.88023952,1,1,16,0.5575,-0.1,1,0,0,5.7161,Pumice_03,8,03,3,8,5.716,7,05,0.43,-0.38625,1,0,0,2.9855,Pumice_rect,8,2.986,1,15,0,15,0,1,,,,,,,,,,,,,
653feb348f4df4e625de5909,SCR,2024-06-24_16h46.02.672,LearnStrategy,2023.2.3,Win32,59.88023952,1,2,1,,,,,,,,6,15,,,,,,,,,,,,,4,11.118,0,,,,,,0.34625,-0.23625,1,0,0,11.1177,Gabbro_rect,0,0,0,0,1,
653feb348f4df4e625de5909,SCR,2024-06-24_16h46.02.672,LearnStrategy,2023.2.3,Win32,59.88023952,1,2,2,,,,,,,,4,13,,,,,,,,,,,,,6,9.839,0,,,,,,-0.07125,-0.395,1,0,0,9.8385,Pegmatite_rect,1,0,1,0,1,
653feb348f4df4e625de5909,SCR,2024-06-24_16h46.02.672,LearnStrategy,2023.2.3,Win32,59.88023952,1,2,3,,,,,,,,2,09,,,,,,,,,,,,,3,12.879,0,,,,,,0.15625,-0.24875,1,0,0,12.8794,Diorite_rect,2,0,2,0,1,
653feb348f4df4e625de5909,SCR,2024-06-24_16h46.02.672,LearnStrategy,2023.2.3,Win32,59.88023952,1,2,4,,,,,,,,8,14,,,,,,,,,,,,,8,3.38,1,,,,,,0.3675,-0.39,1,0,0,3.3799,Pumice_rect,3,0,3,0,1,
653feb348f4df4e625de5909,SCR,2024-06-24_16h46.02.672,LearnStrategy,2023.2.3,Win32,59.88023952,1,2,5,,,,,,,,8,15,,,,,,,,,,,,,8,1.507,1,,,,,,0.3675,-0.39,1,0,0,1.5068,Pumice_rect,4,0,4,0,1,
653feb348f4df4e625de5909,SCR,2024-06-24_16h46.02.672,LearnStrategy,2023.2.3,Win32,59.88023952,1,2,6,,,,,,,,3,12,,,,,,,,,,,,,1,4.465,0,,,,,,-0.35625,-0.23875,1,0,0,4.4651,Andesite_rect,5,0,5,0,1,
653feb348f4df4e625de5909,SCR,2024-06-24_16h46.02.672,LearnStrategy,2023.2.3,Win32,59.88023952,1,2,7,,,,,,,,3,02,,,,,,,,,,,,,1,2.861,0,,,,,,-0.35625,-0.23875,1,0,0,2.8608,Andesite_rect,6,0,6,0,1,
653feb348f4df4e625de5909,SCR,2024-06-24_16h46.02.672,LearnStrategy,2023.2.3,Win32,59.88023952,1,2,8,,,,,,,,5,06,,,,,,,,,,,,,5,3.57,1,,,,,,-0.3725,-0.385,1,0,0,3.5698,Obsidian_rect,7,0,7,0,1,
653feb348f4df4e625de5909,SCR,2024-06-24_16h46.02.672,LearnStrategy,2023.2.3,Win32,59.88023952,1,2,9,,,,,,,,7,07,,,,,,,,,,,,,3,4.267,0,,,,,,0.12,-0.2425,1,0,0,4.2666,Diorite_rect,8,0,8,0,1,
653feb348f4df4e625de5909,SCR,2024-06-24_16h46.02.672,LearnStrategy,2023.2.3,Win32,59.88023952,1,2,10,,,,,,,,5,08,,,,,,,,,,,,,5,1.974,1,,,,,,-0.35375,-0.37875,1,0,0,1.9743,Obsidian_rect,9,0,9,0,1,
653feb348f4df4e625de5909,SCR,2024-06-24_16h46.02.672,LearnStrategy,2023.2.3,Win32,59.88023952,1,2,11,,,,,,,,1,10,,,,,,,,,,,,,7,4.923,0,,,,,,0.09875,-0.395,1,0,0,4.9234,Peridotite_rect,10,0,10,0,1,
653feb348f4df4e625de5909,SCR,2024-06-24_16h46.02.672,LearnStrategy,2023.2.3,Win32,59.88023952,1,2,12,,,,,,,,6,03,,,,,,,,,,,,,7,7.461,0,,,,,,0.09875,-0.395,1,0,0,7.461,Peridotite_rect,11,0,11,0,1,
653feb348f4df4e625de5909,SCR,2024-06-24_16h46.02.672,LearnStrategy,2023.2.3,Win32,59.88023952,1,2,13,,,,,,,,1,14,,,,,,,,,,,,,3,2.799,0,,,,,,0.11,-0.24,1,0,0,2.7989,Diorite_rect,12,0,12,0,1,
653feb348f4df4e625de5909,SCR,2024-06-24_16h46.02.672,LearnStrategy,2023.2.3,Win32,59.88023952,1,2,14,,,,,,,,4,01,,,,,,,,,,,,,3,2.064,0,,,,,,0.1025,-0.24125,1,0,0,2.0636,Diorite_rect,13,0,13,0,1,
653feb348f4df4e625de5909,SCR,2024-06-24_16h46.02.672,LearnStrategy,2023.2.3,Win32,59.88023952,1,2,15,,,,,,,,2,02,,,,,,,,,,,,,7,3.57,0,,,,,,0.1225,-0.4,1,0,0,3.5701,Peridotite_rect,14,0,14,0,1,
653feb348f4df4e625de5909,SCR,2024-06-24_16h46.02.672,LearnStrategy,2023.2.3,Win32,59.88023952,1,2,16,,,,,,,,7,04,,,,,,,,,,,,,1,4.109,0,,,,,,-0.3625,-0.25125,1,0,0,4.1093,Andesite_rect,15,0,15,0,1,
653feb348f4df4e625de5909,SCR,2024-06-24_16h46.02.672,LearnStrategy,2023.2.3,Win32,59.88023952,2,1,1,-0.05875,0.09375,1,0,0,9.8017,Diorite_08,3,08,4,4,9.802,2,05,-0.11875,-0.26,1,0,0,3.1838,Basalt_rect,2,3.184,0,0,0,0,0,1,,,,,,,,,,,,,
653feb348f4df4e625de5909,SCR,2024-06-24_16h46.02.672,LearnStrategy,2023.2.3,Win32,59.88023952,2,1,2,0.08375,0.235,1,0,0,1.7832,Obsidian_05,5,05,5,5,1.783,7,02,0.0975,-0.2425,1,0,0,1.7882,Diorite_rect,3,1.788,0,1,0,1,0,1,,,,,,,,,,,,,
653feb348f4df4e625de5909,SCR,2024-06-24_16h46.02.672,LearnStrategy,2023.2.3,Win32,59.88023952,2,1,3,-0.0775,0.25625,1,0,0,2.9274,Pegmatite_16,6,16,5,4,2.927,3,14,0.115,-0.24875,1,0,0,1.9652,Diorite_rect,3,1.965,0,2,0,2,0,1,,,,,,,,,,,,,
653feb348f4df4e625de5909,SCR,2024-06-24_16h46.02.672,LearnStrategy,2023.2.3,Win32,59.88023952,2,1,4,-0.37625,0.26375,1,0,0,1.7944,Pegmatite_13,6,13,5,2,1.794,6,13,-0.10125,-0.405,1,0,0,2.3266,Pegmatite_rect,6,2.327,1,3,0,3,0,1,,,,,,,,,,,,,
653feb348f4df4e625de5909,SCR,2024-06-24_16h46.02.672,LearnStrategy,2023.2.3,Win32,59.88023952,2,1,5,-0.4275,0.41125,1,0,0,5.5174,Diorite_07,3,07,6,2,5.517,1,11,-0.14875,-0.40125,1,0,0,1.513,Pegmatite_rect,6,1.513,0,4,0,4,0,1,,,,,,,,,,,,,
653feb348f4df4e625de5909,SCR,2024-06-24_16h46.02.672,LearnStrategy,2023.2.3,Win32,59.88023952,2,1,6,0.52625,0.405,1,0,0,14.3816,Diorite_09,3,09,6,8,14.382,1,06,0.1175,-0.235,1,0,0,4.0068,Diorite_rect,3,4.007,1,5,0,5,0,1,,,,,,,,,,,,,
653feb348f4df4e625de5909,SCR,2024-06-24_16h46.02.672,LearnStrategy,2023.2.3,Win32,59.88023952,2,1,7,-0.0575,-0.25875,1,0,0,12.4546,Peridotite_15,7,15,2,4,12.455,6,11,0.13875,-0.2425,1,0,0,2.5132,Diorite_rect,3,2.513,0,6,0,6,0,1,,,,,,,,,,,,,
653feb348f4df4e625de5909,SCR,2024-06-24_16h46.02.672,LearnStrategy,2023.2.3,Win32,59.88023952,2,1,8,0.39375,0.08125,1,0,0,2.4385,Diorite_13,3,13,4,7,2.438,7,14,0.1475,-0.2425,1,0,0,1.7352,Diorite_rect,3,1.735,1,7,0,7,0,1,,,,,,,,,,,,,
653feb348f4df4e625de5909,SCR,2024-06-24_16h46.02.672,LearnStrategy,2023.2.3,Win32,59.88023952,2,1,9,0.5675,0.4275,1,0,0,1.55,Diorite_09,3,09,6,8,1.55,4,05,0.10625,-0.23375,1,0,0,1.3548,Diorite_rect,3,1.355,1,8,0,8,0,1,,,,,,,,,,,,,
653feb348f4df4e625de5909,SCR,2024-06-24_16h46.02.672,LearnStrategy,2023.2.3,Win32,59.88023952,2,1,10,-0.3925,0.2575,1,0,0,1.5706,Pegmatite_13,6,13,5,2,1.571,3,09,0.09625,-0.23,1,0,0,1.4084,Diorite_rect,3,1.408,0,9,0,9,0,1,,,,,,,,,,,,,
653feb348f4df4e625de5909,SCR,2024-06-24_16h46.02.672,LearnStrategy,2023.2.3,Win32,59.88023952,2,1,11,0.0725,0.2275,1,0,0,1.2984,Obsidian_05,5,05,5,5,1.298,1,03,-0.4225,-0.3975,1,0,0,1.5197,Obsidian_rect,5,1.52,1,10,0,10,0,1,,,,,,,,,,,,,
653feb348f4df4e625de5909,SCR,2024-06-24_16h46.02.672,LearnStrategy,2023.2.3,Win32,59.88023952,2,1,12,-0.09125,0.26125,1,0,0,1.0701,Pegmatite_16,6,16,5,4,1.07,6,09,0.16625,-0.25875,1,0,0,2.5521,Diorite_rect,3,2.552,0,11,0,11,0,1,,,,,,,,,,,,,
653feb348f4df4e625de5909,SCR,2024-06-24_16h46.02.672,LearnStrategy,2023.2.3,Win32,59.88023952,2,1,13,-0.0575,0.24625,1,0,0,1.7128,Pegmatite_16,6,16,5,4,1.713,4,11,-0.0925,-0.4075,1,0,0,1.9563,Pegmatite_rect,6,1.956,1,12,0,12,0,1,,,,,,,,,,,,,
653feb348f4df4e625de5909,SCR,2024-06-24_16h46.02.672,LearnStrategy,2023.2.3,Win32,59.88023952,2,1,14,-0.38625,0.255,1,0,0,1.2305,Pegmatite_13,6,13,5,2,1.231,3,08,-0.14875,-0.3925,1,0,0,1.0483,Pegmatite_rect,6,1.048,1,13,0,13,0,1,,,,,,,,,,,,,
653feb348f4df4e625de5909,SCR,2024-06-24_16h46.02.672,LearnStrategy,2023.2.3,Win32,59.88023952,2,1,15,-0.06875,0.24875,1,0,0,2.4207,Pegmatite_16,6,16,5,4,2.421,2,08,0.12375,-0.23125,1,0,0,2.1688,Diorite_rect,3,2.169,0,14,0,14,0,1,,,,,,,,,,,,,
653feb348f4df4e625de5909,SCR,2024-06-24_16h46.02.672,LearnStrategy,2023.2.3,Win32,59.88023952,2,1,16,-0.03875,0.075,1,0,0,1.6796,Diorite_08,3,08,4,4,1.68,7,05,-0.36875,-0.2325,1,0,0,4.9596,Andesite_rect,1,4.96,0,15,0,15,0,1,,,,,,,,,,,,,
653feb348f4df4e625de5909,SCR,2024-06-24_16h46.02.672,LearnStrategy,2023.2.3,Win32,59.88023952,2,2,1,,,,,,,,7,13,,,,,,,,,,,,,7,8.309,1,,,,,,0.13,-0.40875,1,0,0,8.309,Peridotite_rect,0,0,0,0,1,
653feb348f4df4e625de5909,SCR,2024-06-24_16h46.02.672,LearnStrategy,2023.2.3,Win32,59.88023952,2,2,2,,,,,,,,6,12,,,,,,,,,,,,,6,5.074,1,,,,,,-0.13625,-0.4025,1,0,0,5.074,Pegmatite_rect,1,0,1,0,1,
653feb348f4df4e625de5909,SCR,2024-06-24_16h46.02.672,LearnStrategy,2023.2.3,Win32,59.88023952,2,2,3,,,,,,,,7,16,,,,,,,,,,,,,7,10.237,1,,,,,,0.14,-0.40625,1,0,0,10.2366,Peridotite_rect,2,0,2,0,1,
653feb348f4df4e625de5909,SCR,2024-06-24_16h46.02.672,LearnStrategy,2023.2.3,Win32,59.88023952,2,2,4,,,,,,,,4,03,,,,,,,,,,,,,3,6.361,0,,,,,,0.10125,-0.24,1,0,0,6.3611,Diorite_rect,3,0,3,0,1,
653feb348f4df4e625de5909,SCR,2024-06-24_16h46.02.672,LearnStrategy,2023.2.3,Win32,59.88023952,2,2,5,,,,,,,,2,01,,,,,,,,,,,,,7,5.819,0,,,,,,0.10125,-0.395,1,0,0,5.8194,Peridotite_rect,4,0,4,0,1,
653feb348f4df4e625de5909,SCR,2024-06-24_16h46.02.672,LearnStrategy,2023.2.3,Win32,59.88023952,2,2,6,,,,,,,,1,02,,,,,,,,,,,,,3,5.939,0,,,,,,0.13,-0.26,1,0,0,5.9389,Diorite_rect,5,0,5,0,1,
653feb348f4df4e625de5909,SCR,2024-06-24_16h46.02.672,LearnStrategy,2023.2.3,Win32,59.88023952,2,2,7,,,,,,,,3,15,,,,,,,,,,,,,1,6.48,0,,,,,,-0.32875,-0.23375,1,0,0,6.4803,Andesite_rect,6,0,6,0,1,
653feb348f4df4e625de5909,SCR,2024-06-24_16h46.02.672,LearnStrategy,2023.2.3,Win32,59.88023952,2,2,8,,,,,,,,2,10,,,,,,,,,,,,,7,7.574,0,,,,,,0.18875,-0.40375,1,0,0,7.5744,Peridotite_rect,7,0,7,0,1,
653feb348f4df4e625de5909,SCR,2024-06-24_16h46.02.672,LearnStrategy,2023.2.3,Win32,59.88023952,2,2,9,,,,,,,,4,16,,,,,,,,,,,,,4,4.682,1,,,,,,0.3775,-0.23375,1,0,0,4.6823,Gabbro_rect,8,0,8,0,1,
653feb348f4df4e625de5909,SCR,2024-06-24_16h46.02.672,LearnStrategy,2023.2.3,Win32,59.88023952,2,2,10,,,,,,,,3,16,,,,,,,,,,,,,6,4.056,0,,,,,,-0.12625,-0.3975,1,0,0,4.0562,Pegmatite_rect,9,0,9,0,1,
653feb348f4df4e625de5909,SCR,2024-06-24_16h46.02.672,LearnStrategy,2023.2.3,Win32,59.88023952,2,2,11,,,,,,,,1,07,,,,,,,,,,,,,3,6.086,0,,,,,,0.11875,-0.2425,1,0,0,6.0858,Diorite_rect,10,0,10,0,1,
653feb348f4df4e625de5909,SCR,2024-06-24_16h46.02.672,LearnStrategy,2023.2.3,Win32,59.88023952,2,2,12,,,,,,,,5,12,,,,,,,,,,,,,5,1.962,1,,,,,,-0.39125,-0.39375,1,0,0,1.9625,Obsidian_rect,11,0,11,0,1,
653feb348f4df4e625de5909,SCR,2024-06-24_16h46.02.672,LearnStrategy,2023.2.3,Win32,59.88023952,2,2,13,,,,,,,,8,02,,,,,,,,,,,,,8,2.331,1,,,,,,0.3725,-0.38,1,0,0,2.3308,Pumice_rect,12,0,12,0,1,
653feb348f4df4e625de5909,SCR,2024-06-24_16h46.02.672,LearnStrategy,2023.2.3,Win32,59.88023952,2,2,14,,,,,,,,6,10,,,,,,,,,,,,,7,23.176,0,,,,,,0.13375,-0.38875,1,0,0,23.1755,Peridotite_rect,13,0,13,0,1,
653feb348f4df4e625de5909,SCR,2024-06-24_16h46.02.672,LearnStrategy,2023.2.3,Win32,59.88023952,2,2,15,,,,,,,,5,07,,,,,,,,,,,,,5,5.768,1,,,,,,-0.44625,-0.3975,1,0,0,5.7682,Obsidian_rect,14,0,14,0,1,
653feb348f4df4e625de5909,SCR,2024-06-24_16h46.02.672,LearnStrategy,2023.2.3,Win32,59.88023952,2,2,16,,,,,,,,8,16,,,,,,,,,,,,,8,4.226,1,,,,,,0.3525,-0.38,1,0,0,4.2261,Pumice_rect,15,0,15,0,1,
653feb348f4df4e625de5909,SCR,2024-06-24_16h46.02.672,LearnStrategy,2023.2.3,Win32,59.88023952,3,1,1,0.23375,-0.2475,1,0,0,4.7929,Andesite_03,1,03,2,6,4.793,1,03,0.155,-0.395,1,0,0,3.1232,Peridotite_rect,7,3.123,0,0,0,0,0,1,,,,,,,,,,,,,
653feb348f4df4e625de5909,SCR,2024-06-24_16h46.02.672,LearnStrategy,2023.2.3,Win32,59.88023952,3,1,2,-0.25125,-0.0975,1,0,0,2.2226,Gabbro_12,4,12,3,3,2.223,6,06,-0.3625,-0.2425,1,0,0,1.7405,Andesite_rect,1,1.74,0,1,0,1,0,1,,,,,,,,,,,,,
653feb348f4df4e625de5909,SCR,2024-06-24_16h46.02.672,LearnStrategy,2023.2.3,Win32,59.88023952,3,1,3,-0.09625,-0.39375,1,0,0,3.1193,Andesite_11,1,11,1,4,3.119,2,08,0.37,-0.23125,1,0,0,2.0015,Gabbro_rect,4,2.002,0,2,0,2,0,1,,,,,,,,,,,,,
653feb348f4df4e625de5909,SCR,2024-06-24_16h46.02.672,LearnStrategy,2023.2.3,Win32,59.88023952,3,1,4,0.25,-0.42125,1,0,0,4.8393,Gabbro_10,4,10,1,6,4.839,1,11,0.39375,-0.2425,1,0,0,3.3998,Gabbro_rect,4,3.4,1,3,0,3,0,1,,,,,,,,,,,,,
653feb348f4df4e625de5909,SCR,2024-06-24_16h46.02.672,LearnStrategy,2023.2.3,Win32,59.88023952,3,1,5,-0.5525,-0.40875,1,0,0,5.2837,Peridotite_12,7,12,1,1,5.284,4,05,-0.125,-0.405,1,0,0,2.3841,Pegmatite_rect,6,2.384,0,4,0,4,0,1,,,,,,,,,,,,,
653feb348f4df4e625de5909,SCR,2024-06-24_16h46.02.672,LearnStrategy,2023.2.3,Win32,59.88023952,3,1,6,-0.425,-0.2925,1,0,0,2.2476,Basalt_04,2,04,2,2,2.248,2,05,0.345,-0.23625,1,0,0,1.8388,Gabbro_rect,4,1.839,0,5,0,5,0,1,,,,,,,,,,,,,
653feb348f4df4e625de5909,SCR,2024-06-24_16h46.02.672,LearnStrategy,2023.2.3,Win32,59.88023952,3,1,7,-0.5,0.3925,1,0,0,5.6965,Basalt_16,2,16,6,1,5.697,6,09,0.3675,-0.23625,1,0,0,4.3069,Gabbro_rect,4,4.307,0,6,0,6,0,1,,,,,,,,,,,,,
653feb348f4df4e625de5909,SCR,2024-06-24_16h46.02.672,LearnStrategy,2023.2.3,Win32,59.88023952,3,1,8,0.2375,0.21875,1,0,0,3.1834,Pumice_09,8,09,5,6,3.183,4,12,0.355,-0.385,1,0,0,1.4386,Pumice_rect,8,1.439,1,7,0,7,0,1,,,,,,,,,,,,,
653feb348f4df4e625de5909,SCR,2024-06-24_16h46.02.672,LearnStrategy,2023.2.3,Win32,59.88023952,3,1,9,0.22875,0.07,1,0,0,2.4959,Pumice_06,8,06,4,6,2.496,7,02,0.40875,-0.40375,1,0,0,1.8732,Pumice_rect,8,1.873,1,8,0,8,0,1,,,,,,,,,,,,,
653feb348f4df4e625de5909,SCR,2024-06-24_16h46.02.672,LearnStrategy,2023.2.3,Win32,59.88023952,3,1,10,0.56,0.10375,1,0,0,1.9709,Basalt_11,2,11,4,8,1.971,3,11,0.38625,-0.255,1,0,0,1.7085,Gabbro_rect,4,1.709,0,9,0,9,0,1,,,,,,,,,,,,,
653feb348f4df4e625de5909,SCR,2024-06-24_16h46.02.672,LearnStrategy,2023.2.3,Win32,59.88023952,3,1,11,0.0525,-0.42625,1,0,0,1.6899,Basalt_12,2,12,1,5,1.69,3,09,-0.165,-0.2525,1,0,0,3.8782,Basalt_rect,2,3.878,1,10,0,10,0,1,,,,,,,,,,,,,
653feb348f4df4e625de5909,SCR,2024-06-24_16h46.02.672,LearnStrategy,2023.2.3,Win32,59.88023952,3,1,12,0.56625,-0.2475,1,0,0,1.979,Andesite_16,1,16,2,8,1.979,3,14,-0.10625,-0.23625,1,0,0,2.4153,Basalt_rect,2,2.415,0,11,0,11,0,1,,,,,,,,,,,,,
653feb348f4df4e625de5909,SCR,2024-06-24_16h46.02.672,LearnStrategy,2023.2.3,Win32,59.88023952,3,1,13,0.37875,0.09625,1,0,0,2.8134,Diorite_13,3,13,4,7,2.813,3,07,-0.4125,-0.25,1,0,0,2.0095,Andesite_rect,1,2.01,0,12,0,12,0,1,,,,,,,,,,,,,
653feb348f4df4e625de5909,SCR,2024-06-24_16h46.02.672,LearnStrategy,2023.2.3,Win32,59.88023952,3,1,14,-0.09,0.09125,1,0,0,1.4918,Diorite_08,3,08,4,4,1.492,7,10,0.13,-0.2475,1,0,0,3.06,Diorite_rect,3,3.06,1,13,0,13,0,1,,,,,,,,,,,,,
653feb348f4df4e625de5909,SCR,2024-06-24_16h46.02.672,LearnStrategy,2023.2.3,Win32,59.88023952,3,1,15,0.53125,0.25375,1,0,0,1.7753,Andesite_06,1,06,5,8,1.775,2,12,-0.38875,-0.23875,1,0,0,2.0312,Andesite_rect,1,2.031,1,14,0,14,0,1,,,,,,,,,,,,,
653feb348f4df4e625de5909,SCR,2024-06-24_16h46.02.672,LearnStrategy,2023.2.3,Win32,59.88023952,3,1,16,-0.37375,0.09625,1,0,0,2.5731,Gabbro_05,4,05,4,2,2.573,1,01,-0.33625,-0.2425,1,0,0,6.7716,Andesite_rect,1,6.772,0,15,0,15,0,1,,,,,,,,,,,,,
653feb348f4df4e625de5909,SCR,2024-06-24_16h46.02.672,LearnStrategy,2023.2.3,Win32,59.88023952,3,2,1,,,,,,,,6,05,,,,,,,,,,,,,6,16.897,1,,,,,,-0.09375,-0.39375,1,0,0,16.8967,Pegmatite_rect,0,0,0,0,1,
653feb348f4df4e625de5909,SCR,2024-06-24_16h46.02.672,LearnStrategy,2023.2.3,Win32,59.88023952,3,2,2,,,,,,,,5,09,,,,,,,,,,,,,5,2.033,1,,,,,,-0.3425,-0.40625,1,0,0,2.0326,Obsidian_rect,1,0,1,0,1,
653feb348f4df4e625de5909,SCR,2024-06-24_16h46.02.672,LearnStrategy,2023.2.3,Win32,59.88023952,3,2,3,,,,,,,,1,09,,,,,,,,,,,,,4,15.694,0,,,,,,0.37,-0.25,1,0,0,15.6942,Gabbro_rect,2,0,2,0,1,
653feb348f4df4e625de5909,SCR,2024-06-24_16h46.02.672,LearnStrategy,2023.2.3,Win32,59.88023952,3,2,4,,,,,,,,4,14,,,,,,,,,,,,,4,13.488,1,,,,,,0.36625,-0.2375,1,0,0,13.4877,Gabbro_rect,3,0,3,0,1,
653feb348f4df4e625de5909,SCR,2024-06-24_16h46.02.672,LearnStrategy,2023.2.3,Win32,59.88023952,3,2,5,,,,,,,,7,08,,,,,,,,,,,,,2,4.098,0,,,,,,-0.1225,-0.2475,1,0,0,4.0983,Basalt_rect,4,0,4,0,1,
653feb348f4df4e625de5909,SCR,2024-06-24_16h46.02.672,LearnStrategy,2023.2.3,Win32,59.88023952,3,2,6,,,,,,,,8,04,,,,,,,,,,,,,8,2.365,1,,,,,,0.42375,-0.39625,1,0,0,2.3648,Pumice_rect,5,0,5,0,1,
653feb348f4df4e625de5909,SCR,2024-06-24_16h46.02.672,LearnStrategy,2023.2.3,Win32,59.88023952,3,2,7,,,,,,,,3,10,,,,,,,,,,,,,1,8.816,0,,,,,,-0.3775,-0.255,1,0,0,8.8165,Andesite_rect,6,0,6,0,1,
653feb348f4df4e625de5909,SCR,2024-06-24_16h46.02.672,LearnStrategy,2023.2.3,Win32,59.88023952,3,2,8,,,,,,,,2,06,,,,,,,,,,,,,2,6.681,1,,,,,,-0.135,-0.2375,1,0,0,6.6809,Basalt_rect,7,0,7,0,1,
653feb348f4df4e625de5909,SCR,2024-06-24_16h46.02.672,LearnStrategy,2023.2.3,Win32,59.88023952,3,2,9,,,,,,,,5,11,,,,,,,,,,,,,5,1.706,1,,,,,,-0.40375,-0.39,1,0,0,1.7063,Obsidian_rect,8,0,8,0,1,
653feb348f4df4e625de5909,SCR,2024-06-24_16h46.02.672,LearnStrategy,2023.2.3,Win32,59.88023952,3,2,10,,,,,,,,3,06,,,,,,,,,,,,,3,3.707,1,,,,,,0.085,-0.25625,1,0,0,3.7071,Diorite_rect,9,0,9,0,1,
653feb348f4df4e625de5909,SCR,2024-06-24_16h46.02.672,LearnStrategy,2023.2.3,Win32,59.88023952,3,2,11,,,,,,,,7,06,,,,,,,,,,,,,6,3.601,0,,,,,,-0.09375,-0.39125,1,0,0,3.6009,Pegmatite_rect,10,0,10,0,1,
653feb348f4df4e625de5909,SCR,2024-06-24_16h46.02.672,LearnStrategy,2023.2.3,Win32,59.88023952,3,2,12,,,,,,,,8,05,,,,,,,,,,,,,8,1.643,1,,,,,,0.35625,-0.40625,1,0,0,1.6432,Pumice_rect,11,0,11,0,1,
653feb348f4df4e625de5909,SCR,2024-06-24_16h46.02.672,LearnStrategy,2023.2.3,Win32,59.88023952,3,2,13,,,,,,,,6,07,,,,,,,,,,,,,6,4.006,1,,,,,,-0.12,-0.38375,1,0,0,4.0056,Pegmatite_rect,12,0,12,0,1,
653feb348f4df4e625de5909,SCR,2024-06-24_16h46.02.672,LearnStrategy,2023.2.3,Win32,59.88023952,3,2,14,,,,,,,,1,04,,,,,,,,,,,,,3,6.929,0,,,,,,0.08,-0.25375,1,0,0,6.9287,Diorite_rect,13,0,13,0,1,
653feb348f4df4e625de5909,SCR,2024-06-24_16h46.02.672,LearnStrategy,2023.2.3,Win32,59.88023952,3,2,15,,,,,,,,2,14,,,,,,,,,,,,,2,3.372,1,,,,,,-0.12,-0.2375,1,0,0,3.3723,Basalt_rect,14,0,14,0,1,
653feb348f4df4e625de5909,SCR,2024-06-24_16h46.02.672,LearnStrategy,2023.2.3,Win32,59.88023952,3,2,16,,,,,,,,4,08,,,,,,,,,,,,,2,2.306,0,,,,,,-0.12,-0.2375,1,0,0,2.306,Basalt_rect,15,0,15,0,1,
653feb348f4df4e625de5909,SCR,2024-06-24_16h46.02.672,LearnStrategy,2023.2.3,Win32,59.88023952,4,1,1,0.095,-0.25625,1,0,0,5.6929,Peridotite_14,7,14,2,5,5.693,7,14,-0.12375,-0.4125,1,0,0,9.4404,Pegmatite_rect,6,9.44,0,0,0,0,0,1,,,,,,,,,,,,,
653feb348f4df4e625de5909,SCR,2024-06-24_16h46.02.672,LearnStrategy,2023.2.3,Win32,59.88023952,4,1,2,0.55625,0.26375,1,0,0,14.4145,Andesite_06,1,06,5,8,14.415,1,06,-0.09125,-0.24875,1,0,0,11.3848,Basalt_rect,2,11.385,0,1,0,1,0,1,,,,,,,,,,,,,
653feb348f4df4e625de5909,SCR,2024-06-24_16h46.02.672,LearnStrategy,2023.2.3,Win32,59.88023952,4,1,3,-0.4025,0.39875,1,0,0,3.6925,Diorite_07,3,07,6,2,3.693,3,07,0.0775,-0.23625,1,0,0,5.0997,Diorite_rect,3,5.1,1,2,0,2,0,1,,,,,,,,,,,,,
653feb348f4df4e625de5909,SCR,2024-06-24_16h46.02.672,LearnStrategy,2023.2.3,Win32,59.88023952,4,1,4,0.23625,-0.25,1,0,0,2.6441,Andesite_03,1,03,2,6,2.644,1,03,-0.0875,-0.415,1,0,0,2.0481,Pegmatite_rect,6,2.048,0,3,0,3,0,1,,,,,,,,,,,,,
653feb348f4df4e625de5909,SCR,2024-06-24_16h46.02.672,LearnStrategy,2023.2.3,Win32,59.88023952,4,1,5,0.37125,0.085,1,0,0,1.4754,Diorite_13,3,13,4,7,1.475,3,13,0.12875,-0.2425,1,0,0,8.6475,Diorite_rect,3,8.647,1,4,0,4,0,1,,,,,,,,,,,,,
653feb348f4df4e625de5909,SCR,2024-06-24_16h46.02.672,LearnStrategy,2023.2.3,Win32,59.88023952,4,1,6,-0.54625,-0.27375,1,0,0,1.401,Gabbro_09,4,09,2,1,1.401,4,09,-0.1125,-0.235,1,0,0,4.0144,Basalt_rect,2,4.014,0,5,0,5,0,1,,,,,,,,,,,,,
653feb348f4df4e625de5909,SCR,2024-06-24_16h46.02.672,LearnStrategy,2023.2.3,Win32,59.88023952,4,1,7,-0.0725,-0.08875,1,0,0,4.1819,Basalt_05,2,05,3,4,4.182,2,05,-0.11875,-0.26375,1,0,0,4.7136,Basalt_rect,2,4.714,1,6,0,6,0,1,,,,,,,,,,,,,
653feb348f4df4e625de5909,SCR,2024-06-24_16h46.02.672,LearnStrategy,2023.2.3,Win32,59.88023952,4,1,8,-0.58625,0.38125,1,0,0,1.9193,Basalt_16,2,16,6,1,1.919,2,16,0.335,-0.24375,1,0,0,9.218,Gabbro_rect,4,9.218,0,7,0,7,0,1,,,,,,,,,,,,,
653feb348f4df4e625de5909,SCR,2024-06-24_16h46.02.672,LearnStrategy,2023.2.3,Win32,59.88023952,4,1,9,0.37125,0.27625,1,0,0,2.9403,Pegmatite_08,6,08,5,7,2.94,6,08,-0.15,-0.38625,1,0,0,4.1979,Pegmatite_rect,6,4.198,1,8,0,8,0,1,,,,,,,,,,,,,
653feb348f4df4e625de5909,SCR,2024-06-24_16h46.02.672,LearnStrategy,2023.2.3,Win32,59.88023952,4,1,10,-0.25125,0.39125,1,0,0,1.7749,Andesite_01,1,01,6,3,1.775,1,01,-0.37375,-0.25875,1,0,0,12.7317,Andesite_rect,1,12.732,1,9,0,9,0,1,,,,,,,,,,,,,
653feb348f4df4e625de5909,SCR,2024-06-24_16h46.02.672,LearnStrategy,2023.2.3,Win32,59.88023952,4,1,11,0.08625,-0.24875,1,0,0,2.6483,Peridotite_14,7,14,2,5,2.648,7,14,-0.11875,-0.2525,1,0,0,2.8551,Basalt_rect,2,2.855,0,10,0,10,0,1,,,,,,,,,,,,,
653feb348f4df4e625de5909,SCR,2024-06-24_16h46.02.672,LearnStrategy,2023.2.3,Win32,59.88023952,4,1,12,-0.5675,-0.0825,1,0,0,1.756,Pegmatite_06,6,06,3,1,1.756,6,06,-0.16125,-0.4025,1,0,0,15.533,Pegmatite_rect,6,15.533,1,11,0,11,0,1,,,,,,,,,,,,,
653feb348f4df4e625de5909,SCR,2024-06-24_16h46.02.672,LearnStrategy,2023.2.3,Win32,59.88023952,4,1,13,-0.10625,-0.265,1,0,0,1.4249,Peridotite_15,7,15,2,4,1.425,7,15,0.07375,-0.405,1,0,0,12.3883,Peridotite_rect,7,12.388,1,12,0,12,0,1,,,,,,,,,,,,,
653feb348f4df4e625de5909,SCR,2024-06-24_16h46.02.672,LearnStrategy,2023.2.3,Win32,59.88023952,4,1,14,-0.06,0.06375,1,0,0,0.9711,Diorite_08,3,08,4,4,0.971,3,08,0.10125,-0.24625,1,0,0,7.4913,Diorite_rect,3,7.491,1,13,0,13,0,1,,,,,,,,,,,,,
653feb348f4df4e625de5909,SCR,2024-06-24_16h46.02.672,LearnStrategy,2023.2.3,Win32,59.88023952,4,1,15,-0.21375,0.3875,1,0,0,1.543,Andesite_01,1,01,6,3,1.543,1,01,-0.44625,-0.255,1,0,0,1.964,Andesite_rect,1,1.964,1,14,0,14,0,1,,,,,,,,,,,,,
653feb348f4df4e625de5909,SCR,2024-06-24_16h46.02.672,LearnStrategy,2023.2.3,Win32,59.88023952,4,1,16,0.2075,-0.39875,1,0,0,1.4241,Gabbro_10,4,10,1,6,1.424,4,10,0.35875,-0.25375,1,0,0,10.0823,Gabbro_rect,4,10.082,1,15,0,15,0,1,,,,,,,,,,,,,
653feb348f4df4e625de5909,SCR,2024-06-24_16h46.02.672,LearnStrategy,2023.2.3,Win32,59.88023952,4,2,1,,,,,,,,1,09,,,,,,,,,,,,,2,4.709,0,,,,,,-0.1,-0.245,1,0,0,4.7086,Basalt_rect,0,0,0,0,1,
653feb348f4df4e625de5909,SCR,2024-06-24_16h46.02.672,LearnStrategy,2023.2.3,Win32,59.88023952,4,2,2,,,,,,,,8,05,,,,,,,,,,,,,8,3.253,1,,,,,,0.38125,-0.39875,1,0,0,3.2533,Pumice_rect,1,0,1,0,1,
653feb348f4df4e625de5909,SCR,2024-06-24_16h46.02.672,LearnStrategy,2023.2.3,Win32,59.88023952,4,2,3,,,,,,,,2,01,,,,,,,,,,,,,2,7.409,1,,,,,,-0.1175,-0.23375,1,0,0,7.4095,Basalt_rect,2,0,2,0,1,
653feb348f4df4e625de5909,SCR,2024-06-24_16h46.02.672,LearnStrategy,2023.2.3,Win32,59.88023952,4,2,4,,,,,,,,6,07,,,,,,,,,,,,,6,3.108,1,,,,,,-0.1125,-0.405,1,0,0,3.1078,Pegmatite_rect,3,0,3,0,1,
653feb348f4df4e625de5909,SCR,2024-06-24_16h46.02.672,LearnStrategy,2023.2.3,Win32,59.88023952,4,2,5,,,,,,,,8,16,,,,,,,,,,,,,8,7.833,1,,,,,,0.33,-0.4025,1,0,0,7.8328,Pumice_rect,4,0,4,0,1,
653feb348f4df4e625de5909,SCR,2024-06-24_16h46.02.672,LearnStrategy,2023.2.3,Win32,59.88023952,4,2,6,,,,,,,,1,02,,,,,,,,,,,,,1,5.299,1,,,,,,-0.38875,-0.2475,1,0,0,5.2992,Andesite_rect,5,0,5,0,1,
653feb348f4df4e625de5909,SCR,2024-06-24_16h46.02.672,LearnStrategy,2023.2.3,Win32,59.88023952,4,2,7,,,,,,,,4,16,,,,,,,,,,,,,4,5.918,1,,,,,,0.34375,-0.23125,1,0,0,5.9178,Gabbro_rect,6,0,6,0,1,
653feb348f4df4e625de5909,SCR,2024-06-24_16h46.02.672,LearnStrategy,2023.2.3,Win32,59.88023952,4,2,8,,,,,,,,2,09,,,,,,,,,,,,,2,9.991,1,,,,,,-0.1625,-0.24875,1,0,0,9.9912,Basalt_rect,7,0,7,0,1,
653feb348f4df4e625de5909,SCR,2024-06-24_16h46.02.672,LearnStrategy,2023.2.3,Win32,59.88023952,4,2,9,,,,,,,,5,12,,,,,,,,,,,,,5,1.654,1,,,,,,-0.42,-0.40125,1,0,0,1.654,Obsidian_rect,8,0,8,0,1,
653feb348f4df4e625de5909,SCR,2024-06-24_16h46.02.672,LearnStrategy,2023.2.3,Win32,59.88023952,4,2,10,,,,,,,,6,05,,,,,,,,,,,,,6,2.86,1,,,,,,-0.11,-0.4025,1,0,0,2.8598,Pegmatite_rect,9,0,9,0,1,
653feb348f4df4e625de5909,SCR,2024-06-24_16h46.02.672,LearnStrategy,2023.2.3,Win32,59.88023952,4,2,11,,,,,,,,7,16,,,,,,,,,,,,,7,16.934,1,,,,,,0.15875,-0.40625,1,0,0,16.9335,Peridotite_rect,10,0,10,0,1,
653feb348f4df4e625de5909,SCR,2024-06-24_16h46.02.672,LearnStrategy,2023.2.3,Win32,59.88023952,4,2,12,,,,,,,,5,11,,,,,,,,,,,,,5,2.506,1,,,,,,-0.3375,-0.40125,1,0,0,2.5062,Obsidian_rect,11,0,11,0,1,
653feb348f4df4e625de5909,SCR,2024-06-24_16h46.02.672,LearnStrategy,2023.2.3,Win32,59.88023952,4,2,13,,,,,,,,3,16,,,,,,,,,,,,,3,5.545,1,,,,,,0.11125,-0.26375,1,0,0,5.5449,Diorite_rect,12,0,12,0,1,
653feb348f4df4e625de5909,SCR,2024-06-24_16h46.02.672,LearnStrategy,2023.2.3,Win32,59.88023952,4,2,14,,,,,,,,3,15,,,,,,,,,,,,,1,2.989,0,,,,,,-0.345,-0.2575,1,0,0,2.9891,Andesite_rect,13,0,13,0,1,
653feb348f4df4e625de5909,SCR,2024-06-24_16h46.02.672,LearnStrategy,2023.2.3,Win32,59.88023952,4,2,15,,,,,,,,7,06,,,,,,,,,,,,,6,5.934,0,,,,,,-0.09125,-0.41,1,0,0,5.9341,Pegmatite_rect,14,0,14,0,1,
653feb348f4df4e625de5909,SCR,2024-06-24_16h46.02.672,LearnStrategy,2023.2.3,Win32,59.88023952,4,2,16,,,,,,,,4,08,,,,,,,,,,,,,2,2.853,0,,,,,,-0.1275,-0.2325,1,0,0,2.8527,Basalt_rect,15,0,15,0,1,
653feb348f4df4e625de5909,SCR,2024-06-24_16h46.02.672,LearnStrategy,2023.2.3,Win32,59.88023952,5,1,1,0.0675,-0.1025,1,0,0,4.2207,Andesite_05,1,05,3,5,4.221,1,05,0.10625,-0.2525,1,0,0,6.1441,Diorite_rect,3,6.144,0,0,0,0,0,1,,,,,,,,,,,,,
653feb348f4df4e625de5909,SCR,2024-06-24_16h46.02.672,LearnStrategy,2023.2.3,Win32,59.88023952,5,1,2,-0.08375,-0.0975,1,0,0,1.0426,Basalt_05,2,05,3,4,1.043,2,05,-0.13875,-0.23875,1,0,0,2.5755,Basalt_rect,2,2.576,1,1,0,1,0,1,,,,,,,,,,,,,
653feb348f4df4e625de5909,SCR,2024-06-24_16h46.02.672,LearnStrategy,2023.2.3,Win32,59.88023952,5,1,3,0.23125,-0.39625,1,0,0,1.2399,Gabbro_10,4,10,1,6,1.24,4,10,0.11875,-0.415,1,0,0,3.6644,Peridotite_rect,7,3.664,0,2,0,2,0,1,,,,,,,,,,,,,
653feb348f4df4e625de5909,SCR,2024-06-24_16h46.02.672,LearnStrategy,2023.2.3,Win32,59.88023952,5,1,4,-0.25125,0.2725,1,0,0,1.4139,Pegmatite_09,6,09,5,3,1.414,6,09,-0.125,-0.4,1,0,0,3.524,Pegmatite_rect,6,3.524,1,3,0,3,0,1,,,,,,,,,,,,,
653feb348f4df4e625de5909,SCR,2024-06-24_16h46.02.672,LearnStrategy,2023.2.3,Win32,59.88023952,5,1,5,0.03125,0.09,1,0,0,1.1444,Peridotite_05,7,05,4,5,1.144,7,05,-0.41375,-0.24375,1,0,0,12.9871,Andesite_rect,1,12.987,0,4,0,4,0,1,,,,,,,,,,,,,
653feb348f4df4e625de5909,SCR,2024-06-24_16h46.02.672,LearnStrategy,2023.2.3,Win32,59.88023952,5,1,6,0.40125,-0.10375,1,0,0,1.2918,Gabbro_11,4,11,3,7,1.292,4,11,-0.09625,-0.25,1,0,0,3.7471,Basalt_rect,2,3.747,0,5,0,5,0,1,,,,,,,,,,,,,
653feb348f4df4e625de5909,SCR,2024-06-24_16h46.02.672,LearnStrategy,2023.2.3,Win32,59.88023952,5,1,7,0.52875,0.26,1,0,0,1.5056,Andesite_06,1,06,5,8,1.506,1,06,0.0875,-0.24875,1,0,0,2.8669,Diorite_rect,3,2.867,0,6,0,6,0,1,,,,,,,,,,,,,
653feb348f4df4e625de5909,SCR,2024-06-24_16h46.02.672,LearnStrategy,2023.2.3,Win32,59.88023952,5,1,8,0.10125,-0.40125,1,0,0,1.5924,Basalt_12,2,12,1,5,1.592,2,12,0.41625,-0.40625,1,0,0,2.3057,Pumice_rect,8,2.306,0,7,0,7,0,1,,,,,,,,,,,,,
653feb348f4df4e625de5909,SCR,2024-06-24_16h46.02.672,LearnStrategy,2023.2.3,Win32,59.88023952,5,1,9,-0.2425,0.4225,1,0,0,2.2705,Andesite_01,1,01,6,3,2.27,1,01,0.38375,-0.23375,1,0,0,4.3119,Gabbro_rect,4,4.312,0,8,0,8,0,1,,,,,,,,,,,,,
653feb348f4df4e625de5909,SCR,2024-06-24_16h46.02.672,LearnStrategy,2023.2.3,Win32,59.88023952,5,1,10,0.36625,-0.41375,1,0,0,1.1893,Diorite_11,3,11,1,7,1.189,3,11,0.105,-0.25625,1,0,0,5.5007,Diorite_rect,3,5.501,1,9,0,9,0,1,,,,,,,,,,,,,
653feb348f4df4e625de5909,SCR,2024-06-24_16h46.02.672,LearnStrategy,2023.2.3,Win32,59.88023952,5,1,11,0.42625,-0.125,1,0,0,1.2691,Gabbro_11,4,11,3,7,1.269,4,11,0.3825,-0.23125,1,0,0,15.8809,Gabbro_rect,4,15.881,1,10,0,10,0,1,,,,,,,,,,,,,
653feb348f4df4e625de5909,SCR,2024-06-24_16h46.02.672,LearnStrategy,2023.2.3,Win32,59.88023952,5,1,12,-0.10625,-0.4025,1,0,0,1.39,Andesite_11,1,11,1,4,1.39,1,11,-0.15375,-0.40375,1,0,0,4.7256,Pegmatite_rect,6,4.726,0,11,0,11,0,1,,,,,,,,,,,,,
653feb348f4df4e625de5909,SCR,2024-06-24_16h46.02.672,LearnStrategy,2023.2.3,Win32,59.88023952,5,1,13,0.05625,0.10125,1,0,0,0.9284,Peridotite_05,7,05,4,5,0.928,7,05,-0.38625,-0.235,1,0,0,3.3927,Andesite_rect,1,3.393,0,12,0,12,0,1,,,,,,,,,,,,,
653feb348f4df4e625de5909,SCR,2024-06-24_16h46.02.672,LearnStrategy,2023.2.3,Win32,59.88023952,5,1,14,0.5275,0.39875,1,0,0,1.8768,Diorite_09,3,09,6,8,1.877,3,09,0.1125,-0.24625,1,0,0,2.6984,Diorite_rect,3,2.698,1,13,0,13,0,1,,,,,,,,,,,,,
653feb348f4df4e625de5909,SCR,2024-06-24_16h46.02.672,LearnStrategy,2023.2.3,Win32,59.88023952,5,1,15,-0.55,-0.4125,1,0,0,1.2422,Peridotite_12,7,12,1,1,1.242,7,12,0.10875,-0.25625,1,0,0,2.751,Diorite_rect,3,2.751,0,14,0,14,0,1,,,,,,,,,,,,,
653feb348f4df4e625de5909,SCR,2024-06-24_16h46.02.672,LearnStrategy,2023.2.3,Win32,59.88023952,5,1,16,0.375,0.105,1,0,0,0.9799,Diorite_13,3,13,4,7,0.98,3,13,0.13625,-0.25875,1,0,0,1.9218,Diorite_rect,3,1.922,1,15,0,15,0,1,,,,,,,,,,,,,
653feb348f4df4e625de5909,SCR,2024-06-24_16h46.02.672,LearnStrategy,2023.2.3,Win32,59.88023952,5,2,1,,,,,,,,4,13,,,,,,,,,,,,,7,5.978,0,,,,,,0.14125,-0.4025,1,0,0,5.9783,Peridotite_rect,0,0,0,0,1,
653feb348f4df4e625de5909,SCR,2024-06-24_16h46.02.672,LearnStrategy,2023.2.3,Win32,59.88023952,5,2,2,,,,,,,,3,12,,,,,,,,,,,,,3,4.236,1,,,,,,0.1175,-0.23,1,0,0,4.2356,Diorite_rect,1,0,1,0,1,
653feb348f4df4e625de5909,SCR,2024-06-24_16h46.02.672,LearnStrategy,2023.2.3,Win32,59.88023952,5,2,3,,,,,,,,2,10,,,,,,,,,,,,,2,2.305,1,,,,,,-0.125,-0.24125,1,0,0,2.3048,Basalt_rect,2,0,2,0,1,
653feb348f4df4e625de5909,SCR,2024-06-24_16h46.02.672,LearnStrategy,2023.2.3,Win32,59.88023952,5,2,4,,,,,,,,5,08,,,,,,,,,,,,,5,2.79,1,,,,,,-0.35875,-0.39125,1,0,0,2.7901,Obsidian_rect,3,0,3,0,1,
653feb348f4df4e625de5909,SCR,2024-06-24_16h46.02.672,LearnStrategy,2023.2.3,Win32,59.88023952,5,2,5,,,,,,,,8,14,,,,,,,,,,,,,8,1.765,1,,,,,,0.38875,-0.395,1,0,0,1.7654,Pumice_rect,4,0,4,0,1,
653feb348f4df4e625de5909,SCR,2024-06-24_16h46.02.672,LearnStrategy,2023.2.3,Win32,59.88023952,5,2,6,,,,,,,,6,12,,,,,,,,,,,,,6,2.264,1,,,,,,-0.1175,-0.39125,1,0,0,2.2635,Pegmatite_rect,5,0,5,0,1,
653feb348f4df4e625de5909,SCR,2024-06-24_16h46.02.672,LearnStrategy,2023.2.3,Win32,59.88023952,5,2,7,,,,,,,,1,04,,,,,,,,,,,,,7,5.828,0,,,,,,0.135,-0.405,1,0,0,5.8279,Peridotite_rect,6,0,6,0,1,
653feb348f4df4e625de5909,SCR,2024-06-24_16h46.02.672,LearnStrategy,2023.2.3,Win32,59.88023952,5,2,8,,,,,,,,8,15,,,,,,,,,,,,,8,2.191,1,,,,,,0.3575,-0.40125,1,0,0,2.1914,Pumice_rect,7,0,7,0,1,
653feb348f4df4e625de5909,SCR,2024-06-24_16h46.02.672,LearnStrategy,2023.2.3,Win32,59.88023952,5,2,9,,,,,,,,7,08,,,,,,,,,,,,,3,5.446,0,,,,,,0.105,-0.24,1,0,0,5.4458,Diorite_rect,8,0,8,0,1,
653feb348f4df4e625de5909,SCR,2024-06-24_16h46.02.672,LearnStrategy,2023.2.3,Win32,59.88023952,5,2,10,,,,,,,,1,14,,,,,,,,,,,,,6,4.369,0,,,,,,-0.10125,-0.3975,1,0,0,4.3687,Pegmatite_rect,9,0,9,0,1,
653feb348f4df4e625de5909,SCR,2024-06-24_16h46.02.672,LearnStrategy,2023.2.3,Win32,59.88023952,5,2,11,,,,,,,,6,10,,,,,,,,,,,,,4,7.648,0,,,,,,0.37625,-0.23625,1,0,0,7.6475,Gabbro_rect,10,0,10,0,1,
653feb348f4df4e625de5909,SCR,2024-06-24_16h46.02.672,LearnStrategy,2023.2.3,Win32,59.88023952,5,2,12,,,,,,,,2,06,,,,,,,,,,,,,2,2.858,1,,,,,,-0.11375,-0.24875,1,0,0,2.858,Basalt_rect,11,0,11,0,1,
653feb348f4df4e625de5909,SCR,2024-06-24_16h46.02.672,LearnStrategy,2023.2.3,Win32,59.88023952,5,2,13,,,,,,,,7,07,,,,,,,,,,,,,7,4.556,1,,,,,,0.11625,-0.41125,1,0,0,4.5555,Peridotite_rect,12,0,12,0,1,
653feb348f4df4e625de5909,SCR,2024-06-24_16h46.02.672,LearnStrategy,2023.2.3,Win32,59.88023952,5,2,14,,,,,,,,4,01,,,,,,,,,,,,,1,4.404,0,,,,,,-0.38375,-0.245,1,0,0,4.4043,Andesite_rect,13,0,13,0,1,
653feb348f4df4e625de5909,SCR,2024-06-24_16h46.02.672,LearnStrategy,2023.2.3,Win32,59.88023952,5,2,15,,,,,,,,5,09,,,,,,,,,,,,,5,1.423,1,,,,,,-0.35875,-0.38625,1,0,0,1.4228,Obsidian_rect,14,0,14,0,1,
653feb348f4df4e625de5909,SCR,2024-06-24_16h46.02.672,LearnStrategy,2023.2.3,Win32,59.88023952,5,2,16,,,,,,,,3,06,,,,,,,,,,,,,4,9.975,0,,,,,,0.35875,-0.2575,1,0,0,9.9747,Gabbro_rect,15,0,15,0,1,
653feb348f4df4e625de5909,SCR,2024-06-24_16h46.02.672,LearnStrategy,2023.2.3,Win32,59.88023952,6,1,1,-0.05125,0.0925,1,0,0,1.0194,Diorite_08,3,08,4,4,1.019,3,08,0.15,-0.23375,1,0,0,4.3032,Diorite_rect,3,4.303,1,0,0,0,0,1,,,,,,,,,,,,,
653feb348f4df4e625de5909,SCR,2024-06-24_16h46.02.672,LearnStrategy,2023.2.3,Win32,59.88023952,6,1,2,-0.0925,-0.38625,1,0,0,1.4738,Andesite_11,1,11,1,4,1.474,1,11,-0.14375,-0.39375,1,0,0,7.5371,Pegmatite_rect,6,7.537,0,1,0,1,0,1,,,,,,,,,,,,,
653feb348f4df4e625de5909,SCR,2024-06-24_16h46.02.672,LearnStrategy,2023.2.3,Win32,59.88023952,6,1,3,-0.08,0.285,1,0,0,1.1357,Pegmatite_16,6,16,5,4,1.136,6,16,-0.1175,-0.4025,1,0,0,4.4823,Pegmatite_rect,6,4.482,1,2,0,2,0,1,,,,,,,,,,,,,
653feb348f4df4e625de5909,SCR,2024-06-24_16h46.02.672,LearnStrategy,2023.2.3,Win32,59.88023952,6,1,4,-0.07125,-0.2325,1,0,0,1.0377,Peridotite_15,7,15,2,4,1.038,7,15,0.1275,-0.3925,1,0,0,7.8722,Peridotite_rect,7,7.872,1,3,0,3,0,1,,,,,,,,,,,,,
653feb348f4df4e625de5909,SCR,2024-06-24_16h46.02.672,LearnStrategy,2023.2.3,Win32,59.88023952,6,1,5,-0.08875,0.095,1,0,0,1.0378,Diorite_08,3,08,4,4,1.038,3,08,-0.425,-0.24875,1,0,0,6.106,Andesite_rect,1,6.106,0,4,0,4,0,1,,,,,,,,,,,,,
653feb348f4df4e625de5909,SCR,2024-06-24_16h46.02.672,LearnStrategy,2023.2.3,Win32,59.88023952,6,1,6,0.57125,-0.2825,1,0,0,1.2764,Andesite_16,1,16,2,8,1.276,1,16,-0.40375,-0.23125,1,0,0,8.3498,Andesite_rect,1,8.35,1,5,0,5,0,1,,,,,,,,,,,,,
653feb348f4df4e625de5909,SCR,2024-06-24_16h46.02.672,LearnStrategy,2023.2.3,Win32,59.88023952,6,1,7,0.0975,-0.2525,1,0,0,1.0907,Peridotite_14,7,14,2,5,1.091,7,14,-0.1375,-0.245,1,0,0,3.5465,Basalt_rect,2,3.546,0,6,0,6,0,1,,,,,,,,,,,,,
653feb348f4df4e625de5909,SCR,2024-06-24_16h46.02.672,LearnStrategy,2023.2.3,Win32,59.88023952,6,1,8,-0.04875,0.085,1,0,0,1.0455,Diorite_08,3,08,4,4,1.045,3,08,0.1425,-0.24625,1,0,0,4.2739,Diorite_rect,3,4.274,1,7,0,7,0,1,,,,,,,,,,,,,
653feb348f4df4e625de5909,SCR,2024-06-24_16h46.02.672,LearnStrategy,2023.2.3,Win32,59.88023952,6,1,9,-0.3825,0.10625,1,0,0,1.7241,Gabbro_05,4,05,4,2,1.724,4,05,0.42,-0.24625,1,0,0,4.5985,Gabbro_rect,4,4.599,1,8,0,8,0,1,,,,,,,,,,,,,
653feb348f4df4e625de5909,SCR,2024-06-24_16h46.02.672,LearnStrategy,2023.2.3,Win32,59.88023952,6,1,10,-0.40625,-0.11625,1,0,0,1.2113,Basalt_08,2,08,3,2,1.211,2,08,-0.15125,-0.25,1,0,0,2.4194,Basalt_rect,2,2.419,1,9,0,9,0,1,,,,,,,,,,,,,
653feb348f4df4e625de5909,SCR,2024-06-24_16h46.02.672,LearnStrategy,2023.2.3,Win32,59.88023952,6,1,11,0.1975,-0.255,1,0,0,1.1255,Andesite_03,1,03,2,6,1.125,1,03,0.11,-0.40125,1,0,0,3.6208,Peridotite_rect,7,3.621,0,10,0,10,0,1,,,,,,,,,,,,,
653feb348f4df4e625de5909,SCR,2024-06-24_16h46.02.672,LearnStrategy,2023.2.3,Win32,59.88023952,6,1,12,0.2375,-0.265,1,0,0,1.0195,Andesite_03,1,03,2,6,1.019,1,03,-0.36375,-0.25625,1,0,0,1.5665,Andesite_rect,1,1.566,1,11,0,11,0,1,,,,,,,,,,,,,
653feb348f4df4e625de5909,SCR,2024-06-24_16h46.02.672,LearnStrategy,2023.2.3,Win32,59.88023952,6,1,13,0.09125,0.11375,1,0,0,1.4896,Peridotite_05,7,05,4,5,1.49,7,05,0.36875,-0.24625,1,0,0,13.4308,Gabbro_rect,4,13.431,0,12,0,12,0,1,,,,,,,,,,,,,
653feb348f4df4e625de5909,SCR,2024-06-24_16h46.02.672,LearnStrategy,2023.2.3,Win32,59.88023952,6,1,14,-0.27125,0.235,1,0,0,2.4247,Pegmatite_09,6,09,5,3,2.425,6,09,0.38,-0.26375,1,0,0,10.1021,Gabbro_rect,4,10.102,0,13,0,13,0,1,,,,,,,,,,,,,
653feb348f4df4e625de5909,SCR,2024-06-24_16h46.02.672,LearnStrategy,2023.2.3,Win32,59.88023952,6,1,15,0.3725,-0.085,1,0,0,1.1452,Gabbro_11,4,11,3,7,1.145,4,11,-0.1675,-0.245,1,0,0,9.3866,Basalt_rect,2,9.387,0,14,0,14,0,1,,,,,,,,,,,,,
653feb348f4df4e625de5909,SCR,2024-06-24_16h46.02.672,LearnStrategy,2023.2.3,Win32,59.88023952,6,1,16,0.39,-0.0875,1,0,0,0.9801,Gabbro_11,4,11,3,7,0.98,4,11,0.4025,-0.23875,1,0,0,1.6497,Gabbro_rect,4,1.65,1,15,0,15,0,1,,,,,,,,,,,,,
653feb348f4df4e625de5909,SCR,2024-06-24_16h46.02.672,LearnStrategy,2023.2.3,Win32,59.88023952,6,2,1,,,,,,,,3,10,,,,,,,,,,,,,1,9.096,0,,,,,,-0.35625,-0.2475,1,0,0,9.0963,Andesite_rect,0,0,0,0,1,
653feb348f4df4e625de5909,SCR,2024-06-24_16h46.02.672,LearnStrategy,2023.2.3,Win32,59.88023952,6,2,2,,,,,,,,4,14,,,,,,,,,,,,,4,5.856,1,,,,,,0.395,-0.24125,1,0,0,5.8563,Gabbro_rect,1,0,1,0,1,
653feb348f4df4e625de5909,SCR,2024-06-24_16h46.02.672,LearnStrategy,2023.2.3,Win32,59.88023952,6,2,3,,,,,,,,4,03,,,,,,,,,,,,,7,4.8,0,,,,,,0.15,-0.40375,1,0,0,4.7998,Peridotite_rect,2,0,2,0,1,
653feb348f4df4e625de5909,SCR,2024-06-24_16h46.02.672,LearnStrategy,2023.2.3,Win32,59.88023952,6,2,4,,,,,,,,5,06,,,,,,,,,,,,,5,4.698,1,,,,,,-0.415,-0.3825,1,0,0,4.698,Obsidian_rect,3,0,3,0,1,
653feb348f4df4e625de5909,SCR,2024-06-24_16h46.02.672,LearnStrategy,2023.2.3,Win32,59.88023952,6,2,5,,,,,,,,6,03,,,,,,,,,,,,,7,2.576,0,,,,,,0.14625,-0.3975,1,0,0,2.5756,Peridotite_rect,4,0,4,0,1,
653feb348f4df4e625de5909,SCR,2024-06-24_16h46.02.672,LearnStrategy,2023.2.3,Win32,59.88023952,6,2,6,,,,,,,,8,04,,,,,,,,,,,,,8,1.933,1,,,,,,0.35625,-0.3875,1,0,0,1.9327,Pumice_rect,5,0,5,0,1,
653feb348f4df4e625de5909,SCR,2024-06-24_16h46.02.672,LearnStrategy,2023.2.3,Win32,59.88023952,6,2,7,,,,,,,,1,10,,,,,,,,,,,,,8,8.097,0,,,,,,0.35625,-0.3875,1,0,0,8.0966,Pumice_rect,6,0,6,0,1,
653feb348f4df4e625de5909,SCR,2024-06-24_16h46.02.672,LearnStrategy,2023.2.3,Win32,59.88023952,6,2,8,,,,,,,,1,07,,,,,,,,,,,,,3,2.64,0,,,,,,0.12125,-0.23375,1,0,0,2.6397,Diorite_rect,7,0,7,0,1,
653feb348f4df4e625de5909,SCR,2024-06-24_16h46.02.672,LearnStrategy,2023.2.3,Win32,59.88023952,6,2,9,,,,,,,,7,04,,,,,,,,,,,,,6,3.1,0,,,,,,-0.07875,-0.39125,1,0,0,3.1003,Pegmatite_rect,8,0,8,0,1,
653feb348f4df4e625de5909,SCR,2024-06-24_16h46.02.672,LearnStrategy,2023.2.3,Win32,59.88023952,6,2,10,,,,,,,,3,02,,,,,,,,,,,,,1,6.608,0,,,,,,-0.36,-0.23375,1,0,0,6.6078,Andesite_rect,9,0,9,0,1,
653feb348f4df4e625de5909,SCR,2024-06-24_16h46.02.672,LearnStrategy,2023.2.3,Win32,59.88023952,6,2,11,,,,,,,,5,07,,,,,,,,,,,,,5,6.279,1,,,,,,-0.41,-0.4,1,0,0,6.279,Obsidian_rect,10,0,10,0,1,
653feb348f4df4e625de5909,SCR,2024-06-24_16h46.02.672,LearnStrategy,2023.2.3,Win32,59.88023952,6,2,12,,,,,,,,2,02,,,,,,,,,,,,,4,6.026,0,,,,,,0.36875,-0.24125,1,0,0,6.0256,Gabbro_rect,11,0,11,0,1,
653feb348f4df4e625de5909,SCR,2024-06-24_16h46.02.672,LearnStrategy,2023.2.3,Win32,59.88023952,6,2,13,,,,,,,,2,14,,,,,,,,,,,,,7,7.361,0,,,,,,0.12125,-0.385,1,0,0,7.3609,Peridotite_rect,12,0,12,0,1,
653feb348f4df4e625de5909,SCR,2024-06-24_16h46.02.672,LearnStrategy,2023.2.3,Win32,59.88023952,6,2,14,,,,,,,,6,15,,,,,,,,,,,,,6,4.075,1,,,,,,-0.12875,-0.39375,1,0,0,4.0748,Pegmatite_rect,13,0,13,0,1,
653feb348f4df4e625de5909,SCR,2024-06-24_16h46.02.672,LearnStrategy,2023.2.3,Win32,59.88023952,6,2,15,,,,,,,,7,13,,,,,,,,,,,,,4,10.652,0,,,,,,0.3625,-0.23125,1,0,0,10.652,Gabbro_rect,14,0,14,0,1,
653feb348f4df4e625de5909,SCR,2024-06-24_16h46.02.672,LearnStrategy,2023.2.3,Win32,59.88023952,6,2,16,,,,,,,,8,02,,,,,,,,,,,,,8,1.659,1,,,,,,0.355,-0.4,1,0,0,1.6594,Pumice_rect,15,0,15,0,1,
653feb348f4df4e625de5909,SCR,2024-06-24_16h46.02.672,LearnStrategy,2023.2.3,Win32,59.88023952,7,1,1,0.245,-0.24375,1,0,0,1.492,Andesite_03,1,03,2,6,1.492,1,03,0.145,-0.38375,1,0,0,3.3176,Peridotite_rect,7,3.318,0,0,0,0,0,1,,,,,,,,,,,,,
653feb348f4df4e625de5909,SCR,2024-06-24_16h46.02.672,LearnStrategy,2023.2.3,Win32,59.88023952,7,1,2,-0.07625,-0.20875,1,0,0,1.0614,Peridotite_15,7,15,2,4,1.061,7,15,0.14625,-0.40625,1,0,0,6.7826,Peridotite_rect,7,6.783,1,1,0,1,0,1,,,,,,,,,,,,,
653feb348f4df4e625de5909,SCR,2024-06-24_16h46.02.672,LearnStrategy,2023.2.3,Win32,59.88023952,7,1,3,-0.4175,0.1225,1,0,0,1.4637,Gabbro_05,4,05,4,2,1.464,4,05,0.385,-0.2425,1,0,0,4.1191,Gabbro_rect,4,4.119,1,2,0,2,0,1,,,,,,,,,,,,,
653feb348f4df4e625de5909,SCR,2024-06-24_16h46.02.672,LearnStrategy,2023.2.3,Win32,59.88023952,7,1,4,-0.55,-0.39,1,0,0,1.4789,Peridotite_12,7,12,1,1,1.479,7,12,0.08375,-0.23625,1,0,0,8.9365,Diorite_rect,3,8.936,0,3,0,3,0,1,,,,,,,,,,,,,
653feb348f4df4e625de5909,SCR,2024-06-24_16h46.02.672,LearnStrategy,2023.2.3,Win32,59.88023952,7,1,5,-0.53625,-0.41,1,0,0,1.4849,Peridotite_12,7,12,1,1,1.485,7,12,0.14,-0.38125,1,0,0,1.4421,Peridotite_rect,7,1.442,1,4,0,4,0,1,,,,,,,,,,,,,
653feb348f4df4e625de5909,SCR,2024-06-24_16h46.02.672,LearnStrategy,2023.2.3,Win32,59.88023952,7,1,6,-0.54125,0.39625,1,0,0,2.0211,Basalt_16,2,16,6,1,2.021,2,16,-0.10875,-0.2525,1,0,0,2.388,Basalt_rect,2,2.388,1,5,0,5,0,1,,,,,,,,,,,,,
653feb348f4df4e625de5909,SCR,2024-06-24_16h46.02.672,LearnStrategy,2023.2.3,Win32,59.88023952,7,1,7,-0.5625,-0.09,1,0,0,1.1947,Pegmatite_06,6,06,3,1,1.195,6,06,0.17,-0.4,1,0,0,3.3587,Peridotite_rect,7,3.359,0,6,0,6,0,1,,,,,,,,,,,,,
653feb348f4df4e625de5909,SCR,2024-06-24_16h46.02.672,LearnStrategy,2023.2.3,Win32,59.88023952,7,1,8,-0.41125,-0.41375,1,0,0,1.641,Diorite_14,3,14,1,2,1.641,3,14,0.12625,-0.24875,1,0,0,3.9299,Diorite_rect,3,3.93,1,7,0,7,0,1,,,,,,,,,,,,,
653feb348f4df4e625de5909,SCR,2024-06-24_16h46.02.672,LearnStrategy,2023.2.3,Win32,59.88023952,7,1,9,-0.1925,0.255,1,0,0,1.34,Pegmatite_09,6,09,5,3,1.34,6,09,0.16625,-0.40625,1,0,0,1.9397,Peridotite_rect,7,1.94,0,8,0,8,0,1,,,,,,,,,,,,,
653feb348f4df4e625de5909,SCR,2024-06-24_16h46.02.672,LearnStrategy,2023.2.3,Win32,59.88023952,7,1,10,0.53,-0.225,1,0,0,1.1296,Andesite_16,1,16,2,8,1.13,1,16,0.1075,-0.25625,1,0,0,4.7268,Diorite_rect,3,4.727,0,9,0,9,0,1,,,,,,,,,,,,,
653feb348f4df4e625de5909,SCR,2024-06-24_16h46.02.672,LearnStrategy,2023.2.3,Win32,59.88023952,7,1,11,0.54625,-0.26875,1,0,0,0.9997,Andesite_16,1,16,2,8,1,1,16,-0.37,-0.245,1,0,0,1.1759,Andesite_rect,1,1.176,1,10,0,10,0,1,,,,,,,,,,,,,
653feb348f4df4e625de5909,SCR,2024-06-24_16h46.02.672,LearnStrategy,2023.2.3,Win32,59.88023952,7,1,12,0.41125,-0.08875,1,0,0,1.2353,Gabbro_11,4,11,3,7,1.235,4,11,-0.12125,-0.23375,1,0,0,2.2863,Basalt_rect,2,2.286,0,11,0,11,0,1,,,,,,,,,,,,,
653feb348f4df4e625de5909,SCR,2024-06-24_16h46.02.672,LearnStrategy,2023.2.3,Win32,59.88023952,7,1,13,-0.355,-0.25,1,0,0,1.569,Basalt_04,2,04,2,2,1.569,2,04,-0.17375,-0.2625,1,0,0,2.2388,Basalt_rect,2,2.239,1,12,0,12,0,1,,,,,,,,,,,,,
653feb348f4df4e625de5909,SCR,2024-06-24_16h46.02.672,LearnStrategy,2023.2.3,Win32,59.88023952,7,1,14,-0.095,0.04375,1,0,0,1.3933,Diorite_08,3,08,4,4,1.393,3,08,-0.15875,-0.38875,1,0,0,3.3611,Pegmatite_rect,6,3.361,0,13,0,13,0,1,,,,,,,,,,,,,
653feb348f4df4e625de5909,SCR,2024-06-24_16h46.02.672,LearnStrategy,2023.2.3,Win32,59.88023952,7,1,15,-0.38875,0.4075,1,0,0,2.8964,Diorite_07,3,07,6,2,2.896,3,07,-0.115,-0.39,1,0,0,3.308,Pegmatite_rect,6,3.308,0,14,0,14,0,1,,,,,,,,,,,,,
653feb348f4df4e625de5909,SCR,2024-06-24_16h46.02.672,LearnStrategy,2023.2.3,Win32,59.88023952,7,1,16,-0.58,-0.25875,1,0,0,1.0894,Gabbro_09,4,09,2,1,1.089,4,09,0.355,-0.23,1,0,0,6.8736,Gabbro_rect,4,6.874,1,15,0,15,0,1,,,,,,,,,,,,,
653feb348f4df4e625de5909,SCR,2024-06-24_16h46.02.672,LearnStrategy,2023.2.3,Win32,59.88023952,7,2,1,,,,,,,,6,15,,,,,,,,,,,,,6,2.815,1,,,,,,-0.13875,-0.4025,1,0,0,2.8154,Pegmatite_rect,0,0,0,0,1,
653feb348f4df4e625de5909,SCR,2024-06-24_16h46.02.672,LearnStrategy,2023.2.3,Win32,59.88023952,7,2,2,,,,,,,,8,04,,,,,,,,,,,,,8,4.204,1,,,,,,0.35125,-0.3875,1,0,0,4.2041,Pumice_rect,1,0,1,0,1,
653feb348f4df4e625de5909,SCR,2024-06-24_16h46.02.672,LearnStrategy,2023.2.3,Win32,59.88023952,7,2,3,,,,,,,,3,12,,,,,,,,,,,,,7,11.077,0,,,,,,0.145,-0.4075,1,0,0,11.077,Peridotite_rect,2,0,2,0,1,
653feb348f4df4e625de5909,SCR,2024-06-24_16h46.02.672,LearnStrategy,2023.2.3,Win32,59.88023952,7,2,4,,,,,,,,4,16,,,,,,,,,,,,,4,3.436,1,,,,,,0.33125,-0.2525,1,0,0,3.4362,Gabbro_rect,3,0,3,0,1,
653feb348f4df4e625de5909,SCR,2024-06-24_16h46.02.672,LearnStrategy,2023.2.3,Win32,59.88023952,7,2,5,,,,,,,,5,12,,,,,,,,,,,,,5,2.473,1,,,,,,-0.35875,-0.40375,1,0,0,2.4728,Obsidian_rect,4,0,4,0,1,
653feb348f4df4e625de5909,SCR,2024-06-24_16h46.02.672,LearnStrategy,2023.2.3,Win32,59.88023952,7,2,6,,,,,,,,7,06,,,,,,,,,,,,,6,19.164,0,,,,,,-0.12875,-0.39,1,0,0,19.1644,Pegmatite_rect,5,0,5,0,1,
653feb348f4df4e625de5909,SCR,2024-06-24_16h46.02.672,LearnStrategy,2023.2.3,Win32,59.88023952,7,2,7,,,,,,,,2,09,,,,,,,,,,,,,4,6.923,0,,,,,,0.33625,-0.25125,1,0,0,6.9235,Gabbro_rect,6,0,6,0,1,
653feb348f4df4e625de5909,SCR,2024-06-24_16h46.02.672,LearnStrategy,2023.2.3,Win32,59.88023952,7,2,8,,,,,,,,4,13,,,,,,,,,,,,,3,3.697,0,,,,,,0.0875,-0.245,1,0,0,3.6971,Diorite_rect,7,0,7,0,1,
653feb348f4df4e625de5909,SCR,2024-06-24_16h46.02.672,LearnStrategy,2023.2.3,Win32,59.88023952,7,2,9,,,,,,,,1,02,,,,,,,,,,,,,1,2.16,1,,,,,,-0.41,-0.245,1,0,0,2.1601,Andesite_rect,8,0,8,0,1,
653feb348f4df4e625de5909,SCR,2024-06-24_16h46.02.672,LearnStrategy,2023.2.3,Win32,59.88023952,7,2,10,,,,,,,,3,02,,,,,,,,,,,,,6,6.09,0,,,,,,-0.13625,-0.38375,1,0,0,6.0905,Pegmatite_rect,9,0,9,0,1,
653feb348f4df4e625de5909,SCR,2024-06-24_16h46.02.672,LearnStrategy,2023.2.3,Win32,59.88023952,7,2,11,,,,,,,,7,16,,,,,,,,,,,,,7,5.464,1,,,,,,0.165,-0.38875,1,0,0,5.4636,Peridotite_rect,10,0,10,0,1,
653feb348f4df4e625de5909,SCR,2024-06-24_16h46.02.672,LearnStrategy,2023.2.3,Win32,59.88023952,7,2,12,,,,,,,,5,07,,,,,,,,,,,,,5,1.992,1,,,,,,-0.4575,-0.3825,1,0,0,1.9916,Obsidian_rect,11,0,11,0,1,
653feb348f4df4e625de5909,SCR,2024-06-24_16h46.02.672,LearnStrategy,2023.2.3,Win32,59.88023952,7,2,13,,,,,,,,6,12,,,,,,,,,,,,,6,1.672,1,,,,,,-0.1675,-0.39875,1,0,0,1.6718,Pegmatite_rect,12,0,12,0,1,
653feb348f4df4e625de5909,SCR,2024-06-24_16h46.02.672,LearnStrategy,2023.2.3,Win32,59.88023952,7,2,14,,,,,,,,2,14,,,,,,,,,,,,,7,6.632,0,,,,,,0.11875,-0.38375,1,0,0,6.6325,Peridotite_rect,13,0,13,0,1,
653feb348f4df4e625de5909,SCR,2024-06-24_16h46.02.672,LearnStrategy,2023.2.3,Win32,59.88023952,7,2,15,,,,,,,,1,09,,,,,,,,,,,,,4,5.413,0,,,,,,0.33,-0.25375,1,0,0,5.4131,Gabbro_rect,14,0,14,0,1,
653feb348f4df4e625de5909,SCR,2024-06-24_16h46.02.672,LearnStrategy,2023.2.3,Win32,59.88023952,7,2,16,,,,,,,,8,02,,,,,,,,,,,,,8,1.68,1,,,,,,0.34875,-0.3925,1,0,0,1.68,Pumice_rect,15,0,15,0,1,
653feb348f4df4e625de5909,SCR,2024-06-24_16h46.02.672,LearnStrategy,2023.2.3,Win32,59.88023952,8,1,1,-0.4175,0.12,1,0,0,1.4093,Gabbro_05,4,05,4,2,1.409,4,05,0.35125,-0.2525,1,0,0,12.9812,Gabbro_rect,4,12.981,1,0,0,0,0,1,,,,,,,,,,,,,
653feb348f4df4e625de5909,SCR,2024-06-24_16h46.02.672,LearnStrategy,2023.2.3,Win32,59.88023952,8,1,2,-0.59625,0.39625,1,0,0,2.0186,Basalt_16,2,16,6,1,2.019,2,16,-0.135,-0.25625,1,0,0,4.8262,Basalt_rect,2,4.826,1,1,0,1,0,1,,,,,,,,,,,,,
653feb348f4df4e625de5909,SCR,2024-06-24_16h46.02.672,LearnStrategy,2023.2.3,Win32,59.88023952,8,1,3,0.36875,-0.4175,1,0,0,1.2286,Diorite_11,3,11,1,7,1.229,3,11,-0.32625,-0.25875,1,0,0,33.3795,Andesite_rect,1,33.38,0,2,0,2,0,1,,,,,,,,,,,,,
653feb348f4df4e625de5909,SCR,2024-06-24_16h46.02.672,LearnStrategy,2023.2.3,Win32,59.88023952,8,1,4,-0.555,-0.40875,1,0,0,1.4375,Peridotite_12,7,12,1,1,1.438,7,12,0.15125,-0.42,1,0,0,4.298,Peridotite_rect,7,4.298,1,3,0,3,0,1,,,,,,,,,,,,,
653feb348f4df4e625de5909,SCR,2024-06-24_16h46.02.672,LearnStrategy,2023.2.3,Win32,59.88023952,8,1,5,-0.22125,-0.43625,1,0,0,1.3633,Gabbro_15,4,15,1,3,1.363,4,15,0.36,-0.23125,1,0,0,3.9211,Gabbro_rect,4,3.921,1,4,0,4,0,1,,,,,,,,,,,,,
653feb348f4df4e625de5909,SCR,2024-06-24_16h46.02.672,LearnStrategy,2023.2.3,Win32,59.88023952,8,1,6,-0.56375,0.245,1,0,0,1.8512,Peridotite_10,7,10,5,1,1.851,7,10,0.125,-0.39125,1,0,0,5.3315,Peridotite_rect,7,5.331,1,5,0,5,0,1,,,,,,,,,,,,,
653feb348f4df4e625de5909,SCR,2024-06-24_16h46.02.672,LearnStrategy,2023.2.3,Win32,59.88023952,8,1,7,-0.53875,-0.235,1,0,0,1.4269,Gabbro_09,4,09,2,1,1.427,4,09,0.33,-0.2375,1,0,0,6.6657,Gabbro_rect,4,6.666,1,6,0,6,0,1,,,,,,,,,,,,,
653feb348f4df4e625de5909,SCR,2024-06-24_16h46.02.672,LearnStrategy,2023.2.3,Win32,59.88023952,8,1,8,0.42125,-0.45125,1,0,0,1.3807,Diorite_11,3,11,1,7,1.381,3,11,0.11,-0.24875,1,0,0,4.153,Diorite_rect,3,4.153,1,7,0,7,0,1,,,,,,,,,,,,,
653feb348f4df4e625de5909,SCR,2024-06-24_16h46.02.672,LearnStrategy,2023.2.3,Win32,59.88023952,8,1,9,0.1025,0.385,1,0,0,4.4334,Pegmatite_11,6,11,6,5,4.433,6,11,-0.1225,-0.40125,1,0,0,1.9242,Pegmatite_rect,6,1.924,1,8,0,8,0,1,,,,,,,,,,,,,
653feb348f4df4e625de5909,SCR,2024-06-24_16h46.02.672,LearnStrategy,2023.2.3,Win32,59.88023952,8,1,10,0.06875,-0.09375,1,0,0,0.8617,Andesite_05,1,05,3,5,0.862,1,05,-0.37125,-0.24875,1,0,0,4.7412,Andesite_rect,1,4.741,1,9,0,9,0,1,,,,,,,,,,,,,
653feb348f4df4e625de5909,SCR,2024-06-24_16h46.02.672,LearnStrategy,2023.2.3,Win32,59.88023952,8,1,11,-0.36875,-0.41875,1,0,0,1.3239,Diorite_14,3,14,1,2,1.324,3,14,-0.17,-0.40375,1,0,0,10.2796,Pegmatite_rect,6,10.28,0,10,0,10,0,1,,,,,,,,,,,,,
653feb348f4df4e625de5909,SCR,2024-06-24_16h46.02.672,LearnStrategy,2023.2.3,Win32,59.88023952,8,1,12,-0.08125,-0.115,1,0,0,0.7784,Basalt_05,2,05,3,4,0.778,2,05,-0.15375,-0.24625,1,0,0,4.965,Basalt_rect,2,4.965,1,11,0,11,0,1,,,,,,,,,,,,,
653feb348f4df4e625de5909,SCR,2024-06-24_16h46.02.672,LearnStrategy,2023.2.3,Win32,59.88023952,8,1,13,0.0625,-0.08,1,0,0,0.8899,Andesite_05,1,05,3,5,0.89,1,05,0.135,-0.23875,1,0,0,7.963,Diorite_rect,3,7.963,0,12,0,12,0,1,,,,,,,,,,,,,
653feb348f4df4e625de5909,SCR,2024-06-24_16h46.02.672,LearnStrategy,2023.2.3,Win32,59.88023952,8,1,14,0.51875,0.08,1,0,0,1.7423,Basalt_11,2,11,4,8,1.742,2,11,-0.1425,-0.2525,1,0,0,3.4489,Basalt_rect,2,3.449,1,13,0,13,0,1,,,,,,,,,,,,,
653feb348f4df4e625de5909,SCR,2024-06-24_16h46.02.672,LearnStrategy,2023.2.3,Win32,59.88023952,8,1,15,-0.0775,-0.41,1,0,0,1.4601,Andesite_11,1,11,1,4,1.46,1,11,-0.12,-0.405,1,0,0,2.2732,Pegmatite_rect,6,2.273,0,14,0,14,0,1,,,,,,,,,,,,,
653feb348f4df4e625de5909,SCR,2024-06-24_16h46.02.672,LearnStrategy,2023.2.3,Win32,59.88023952,8,1,16,0.11,-0.3,1,0,0,0.9009,Peridotite_14,7,14,2,5,0.901,7,14,-0.3425,-0.24625,1,0,0,4.6861,Andesite_rect,1,4.686,0,15,0,15,0,1,,,,,,,,,,,,,
653feb348f4df4e625de5909,SCR,2024-06-24_16h46.02.672,LearnStrategy,2023.2.3,Win32,59.88023952,8,2,1,,,,,,,,3,10,,,,,,,,,,,,,7,10.054,0,,,,,,0.1325,-0.4075,1,0,0,10.0543,Peridotite_rect,0,0,0,0,1,
653feb348f4df4e625de5909,SCR,2024-06-24_16h46.02.672,LearnStrategy,2023.2.3,Win32,59.88023952,8,2,2,,,,,,,,6,10,,,,,,,,,,,,,6,5.416,1,,,,,,-0.12375,-0.405,1,0,0,5.4156,Pegmatite_rect,1,0,1,0,1,
653feb348f4df4e625de5909,SCR,2024-06-24_16h46.02.672,LearnStrategy,2023.2.3,Win32,59.88023952,8,2,3,,,,,,,,2,02,,,,,,,,,,,,,4,6.209,0,,,,,,0.3475,-0.24,1,0,0,6.2095,Gabbro_rect,2,0,2,0,1,
653feb348f4df4e625de5909,SCR,2024-06-24_16h46.02.672,LearnStrategy,2023.2.3,Win32,59.88023952,8,2,4,,,,,,,,8,16,,,,,,,,,,,,,2,6.026,0,,,,,,-0.11125,-0.24125,1,0,0,6.026,Basalt_rect,3,0,3,0,1,
653feb348f4df4e625de5909,SCR,2024-06-24_16h46.02.672,LearnStrategy,2023.2.3,Win32,59.88023952,8,2,5,,,,,,,,1,04,,,,,,,,,,,,,1,13.268,1,,,,,,-0.375,-0.25125,1,0,0,13.2677,Andesite_rect,4,0,4,0,1,
653feb348f4df4e625de5909,SCR,2024-06-24_16h46.02.672,LearnStrategy,2023.2.3,Win32,59.88023952,8,2,6,,,,,,,,4,14,,,,,,,,,,,,,7,3.796,0,,,,,,0.095,-0.3975,1,0,0,3.7965,Peridotite_rect,5,0,5,0,1,
653feb348f4df4e625de5909,SCR,2024-06-24_16h46.02.672,LearnStrategy,2023.2.3,Win32,59.88023952,8,2,7,,,,,,,,6,03,,,,,,,,,,,,,6,1.915,1,,,,,,-0.13625,-0.39625,1,0,0,1.9154,Pegmatite_rect,6,0,6,0,1,
653feb348f4df4e625de5909,SCR,2024-06-24_16h46.02.672,LearnStrategy,2023.2.3,Win32,59.88023952,8,2,8,,,,,,,,8,14,,,,,,,,,,,,,8,3.307,1,,,,,,0.3325,-0.3875,1,0,0,3.3067,Pumice_rect,7,0,7,0,1,
653feb348f4df4e625de5909,SCR,2024-06-24_16h46.02.672,LearnStrategy,2023.2.3,Win32,59.88023952,8,2,9,,,,,,,,3,15,,,,,,,,,,,,,3,2.848,1,,,,,,0.095,-0.24,1,0,0,2.8484,Diorite_rect,8,0,8,0,1,
653feb348f4df4e625de5909,SCR,2024-06-24_16h46.02.672,LearnStrategy,2023.2.3,Win32,59.88023952,8,2,10,,,,,,,,4,01,,,,,,,,,,,,,7,5.958,0,,,,,,0.10375,-0.38875,1,0,0,5.9577,Peridotite_rect,9,0,9,0,1,
653feb348f4df4e625de5909,SCR,2024-06-24_16h46.02.672,LearnStrategy,2023.2.3,Win32,59.88023952,8,2,11,,,,,,,,7,07,,,,,,,,,,,,,1,6.992,0,,,,,,-0.38875,-0.24125,1,0,0,6.9924,Andesite_rect,10,0,10,0,1,
653feb348f4df4e625de5909,SCR,2024-06-24_16h46.02.672,LearnStrategy,2023.2.3,Win32,59.88023952,8,2,12,,,,,,,,5,06,,,,,,,,,,,,,5,1.989,1,,,,,,-0.37625,-0.3825,1,0,0,1.9892,Obsidian_rect,11,0,11,0,1,
653feb348f4df4e625de5909,SCR,2024-06-24_16h46.02.672,LearnStrategy,2023.2.3,Win32,59.88023952,8,2,13,,,,,,,,2,01,,,,,,,,,,,,,4,4.48,0,,,,,,0.34,-0.23625,1,0,0,4.4799,Gabbro_rect,12,0,12,0,1,
653feb348f4df4e625de5909,SCR,2024-06-24_16h46.02.672,LearnStrategy,2023.2.3,Win32,59.88023952,8,2,14,,,,,,,,5,08,,,,,,,,,,,,,5,1.889,1,,,,,,-0.385,-0.3925,1,0,0,1.8893,Obsidian_rect,13,0,13,0,1,
653feb348f4df4e625de5909,SCR,2024-06-24_16h46.02.672,LearnStrategy,2023.2.3,Win32,59.88023952,8,2,15,,,,,,,,7,04,,,,,,,,,,,,,6,2.018,0,,,,,,-0.1575,-0.3975,1,0,0,2.0177,Pegmatite_rect,14,0,14,0,1,
653feb348f4df4e625de5909,SCR,2024-06-24_16h46.02.672,LearnStrategy,2023.2.3,Win32,59.88023952,8,2,16,,,,,,,,1,07,,,,,,,,,,,,,3,5.109,0,,,,,,0.13,-0.2475,1,0,0,5.1091,Diorite_rect,15,0,15,0,1,
653feb348f4df4e625de5909,SCR,2024-06-24_16h46.02.672,LearnStrategy,2023.2.3,Win32,59.88023952,9,1,1,-0.3775,-0.07625,1,0,0,1.5227,Basalt_08,2,08,3,2,1.523,2,08,-0.09625,-0.24875,1,0,0,3.5437,Basalt_rect,2,3.544,1,0,0,0,0,1,,,,,,,,,,,,,
653feb348f4df4e625de5909,SCR,2024-06-24_16h46.02.672,LearnStrategy,2023.2.3,Win32,59.88023952,9,1,2,-0.1025,0.22625,1,0,0,1.2472,Pegmatite_16,6,16,5,4,1.247,6,16,-0.12375,-0.41,1,0,0,1.2909,Pegmatite_rect,6,1.291,1,1,0,1,0,1,,,,,,,,,,,,,
653feb348f4df4e625de5909,SCR,2024-06-24_16h46.02.672,LearnStrategy,2023.2.3,Win32,59.88023952,9,1,3,0.21375,-0.4025,1,0,0,1.1563,Gabbro_10,4,10,1,6,1.156,4,10,0.08125,-0.39375,1,0,0,2.2152,Peridotite_rect,7,2.215,0,2,0,2,0,1,,,,,,,,,,,,,
653feb348f4df4e625de5909,SCR,2024-06-24_16h46.02.672,LearnStrategy,2023.2.3,Win32,59.88023952,9,1,4,0.5175,0.09125,1,0,0,2.0079,Basalt_11,2,11,4,8,2.008,2,11,-0.13875,-0.2325,1,0,0,3.4756,Basalt_rect,2,3.476,1,3,0,3,0,1,,,,,,,,,,,,,
653feb348f4df4e625de5909,SCR,2024-06-24_16h46.02.672,LearnStrategy,2023.2.3,Win32,59.88023952,9,1,5,0.37625,-0.44,1,0,0,1.1323,Diorite_11,3,11,1,7,1.132,3,11,-0.36375,-0.24875,1,0,0,3.45,Andesite_rect,1,3.45,0,4,0,4,0,1,,,,,,,,,,,,,
653feb348f4df4e625de5909,SCR,2024-06-24_16h46.02.672,LearnStrategy,2023.2.3,Win32,59.88023952,9,1,6,0.22125,-0.1175,1,0,0,0.9413,Pumice_08,8,08,3,6,0.941,8,08,-0.12,-0.2475,1,0,0,4.2505,Basalt_rect,2,4.25,0,5,0,5,0,1,,,,,,,,,,,,,
653feb348f4df4e625de5909,SCR,2024-06-24_16h46.02.672,LearnStrategy,2023.2.3,Win32,59.88023952,9,1,7,-0.375,-0.40625,1,0,0,1.2769,Diorite_14,3,14,1,2,1.277,3,14,-0.11875,-0.39875,1,0,0,2.9434,Pegmatite_rect,6,2.943,0,6,0,6,0,1,,,,,,,,,,,,,
653feb348f4df4e625de5909,SCR,2024-06-24_16h46.02.672,LearnStrategy,2023.2.3,Win32,59.88023952,9,1,8,0.06875,-0.2575,1,0,0,0.852,Peridotite_14,7,14,2,5,0.852,7,14,0.135,-0.39125,1,0,0,4.8511,Peridotite_rect,7,4.851,1,7,0,7,0,1,,,,,,,,,,,,,
653feb348f4df4e625de5909,SCR,2024-06-24_16h46.02.672,LearnStrategy,2023.2.3,Win32,59.88023952,9,1,9,-0.0525,0.0775,1,0,0,0.8917,Diorite_08,3,08,4,4,0.892,3,08,-0.44375,-0.24,1,0,0,3.5912,Andesite_rect,1,3.591,0,8,0,8,0,1,,,,,,,,,,,,,
653feb348f4df4e625de5909,SCR,2024-06-24_16h46.02.672,LearnStrategy,2023.2.3,Win32,59.88023952,9,1,10,-0.54,-0.255,1,0,0,1.2014,Gabbro_09,4,09,2,1,1.201,4,09,0.42875,-0.25,1,0,0,3.0792,Gabbro_rect,4,3.079,1,9,0,9,0,1,,,,,,,,,,,,,
653feb348f4df4e625de5909,SCR,2024-06-24_16h46.02.672,LearnStrategy,2023.2.3,Win32,59.88023952,9,1,11,-0.23125,-0.28875,1,0,0,0.9427,Peridotite_02,7,02,2,3,0.943,7,02,0.105,-0.25875,1,0,0,5.2188,Diorite_rect,3,5.219,0,10,0,10,0,1,,,,,,,,,,,,,
653feb348f4df4e625de5909,SCR,2024-06-24_16h46.02.672,LearnStrategy,2023.2.3,Win32,59.88023952,9,1,12,-0.2025,-0.245,1,0,0,0.9797,Peridotite_02,7,02,2,3,0.98,7,02,0.15375,-0.39125,1,0,0,1.9102,Peridotite_rect,7,1.91,1,11,0,11,0,1,,,,,,,,,,,,,
653feb348f4df4e625de5909,SCR,2024-06-24_16h46.02.672,LearnStrategy,2023.2.3,Win32,59.88023952,9,1,13,-0.21875,0.405,1,0,0,1.7793,Andesite_01,1,01,6,3,1.779,1,01,-0.43125,-0.25375,1,0,0,12.4869,Andesite_rect,1,12.487,1,12,0,12,0,1,,,,,,,,,,,,,
653feb348f4df4e625de5909,SCR,2024-06-24_16h46.02.672,LearnStrategy,2023.2.3,Win32,59.88023952,9,1,14,0.09625,-0.08875,1,0,0,0.8263,Andesite_05,1,05,3,5,0.826,1,05,0.14875,-0.4075,1,0,0,4.3574,Peridotite_rect,7,4.357,0,13,0,13,0,1,,,,,,,,,,,,,
653feb348f4df4e625de5909,SCR,2024-06-24_16h46.02.672,LearnStrategy,2023.2.3,Win32,59.88023952,9,1,15,0.51125,0.05375,1,0,0,1.4404,Basalt_11,2,11,4,8,1.44,2,11,-0.12625,-0.25375,1,0,0,2.5147,Basalt_rect,2,2.515,1,14,0,14,0,1,,,,,,,,,,,,,
653feb348f4df4e625de5909,SCR,2024-06-24_16h46.02.672,LearnStrategy,2023.2.3,Win32,59.88023952,9,1,16,-0.21625,-0.40375,1,0,0,1.1558,Gabbro_15,4,15,1,3,1.156,4,15,0.1425,-0.25125,1,0,0,2.7154,Diorite_rect,3,2.715,0,15,0,15,0,1,,,,,,,,,,,,,
653feb348f4df4e625de5909,SCR,2024-06-24_16h46.02.672,LearnStrategy,2023.2.3,Win32,59.88023952,9,2,1,,,,,,,,4,03,,,,,,,,,,,,,1,5.048,0,,,,,,-0.38125,-0.25125,1,0,0,5.0477,Andesite_rect,0,0,0,0,1,
653feb348f4df4e625de5909,SCR,2024-06-24_16h46.02.672,LearnStrategy,2023.2.3,Win32,59.88023952,9,2,2,,,,,,,,7,08,,,,,,,,,,,,,7,11.993,1,,,,,,0.16125,-0.39875,1,0,0,11.9928,Peridotite_rect,1,0,1,0,1,
653feb348f4df4e625de5909,SCR,2024-06-24_16h46.02.672,LearnStrategy,2023.2.3,Win32,59.88023952,9,2,3,,,,,,,,4,08,,,,,,,,,,,,,4,11.024,1,,,,,,0.335,-0.23375,1,0,0,11.0239,Gabbro_rect,2,0,2,0,1,
653feb348f4df4e625de5909,SCR,2024-06-24_16h46.02.672,LearnStrategy,2023.2.3,Win32,59.88023952,9,2,4,,,,,,,,3,06,,,,,,,,,,,,,3,3.811,1,,,,,,0.10875,-0.2525,1,0,0,3.8105,Diorite_rect,3,0,3,0,1,
653feb348f4df4e625de5909,SCR,2024-06-24_16h46.02.672,LearnStrategy,2023.2.3,Win32,59.88023952,9,2,5,,,,,,,,5,11,,,,,,,,,,,,,5,1.867,1,,,,,,-0.32625,-0.3975,1,0,0,1.8675,Obsidian_rect,4,0,4,0,1,
653feb348f4df4e625de5909,SCR,2024-06-24_16h46.02.672,LearnStrategy,2023.2.3,Win32,59.88023952,9,2,6,,,,,,,,1,10,,,,,,,,,,,,,2,2.685,0,,,,,,-0.1425,-0.24125,1,0,0,2.6846,Basalt_rect,5,0,5,0,1,
653feb348f4df4e625de5909,SCR,2024-06-24_16h46.02.672,LearnStrategy,2023.2.3,Win32,59.88023952,9,2,7,,,,,,,,2,10,,,,,,,,,,,,,2,2.807,1,,,,,,-0.1425,-0.24125,1,0,0,2.8067,Basalt_rect,6,0,6,0,1,
653feb348f4df4e625de5909,SCR,2024-06-24_16h46.02.672,LearnStrategy,2023.2.3,Win32,59.88023952,9,2,8,,,,,,,,6,05,,,,,,,,,,,,,6,1.87,1,,,,,,-0.13375,-0.4075,1,0,0,1.8696,Pegmatite_rect,7,0,7,0,1,
653feb348f4df4e625de5909,SCR,2024-06-24_16h46.02.672,LearnStrategy,2023.2.3,Win32,59.88023952,9,2,9,,,,,,,,6,07,,,,,,,,,,,,,6,1.317,1,,,,,,-0.13375,-0.4075,1,0,0,1.3168,Pegmatite_rect,8,0,8,0,1,
653feb348f4df4e625de5909,SCR,2024-06-24_16h46.02.672,LearnStrategy,2023.2.3,Win32,59.88023952,9,2,10,,,,,,,,8,15,,,,,,,,,,,,,8,3.001,1,,,,,,0.33375,-0.38375,1,0,0,3.0014,Pumice_rect,9,0,9,0,1,
653feb348f4df4e625de5909,SCR,2024-06-24_16h46.02.672,LearnStrategy,2023.2.3,Win32,59.88023952,9,2,11,,,,,,,,1,14,,,,,,,,,,,,,6,2.667,0,,,,,,-0.0975,-0.40625,1,0,0,2.6672,Pegmatite_rect,10,0,10,0,1,
653feb348f4df4e625de5909,SCR,2024-06-24_16h46.02.672,LearnStrategy,2023.2.3,Win32,59.88023952,9,2,12,,,,,,,,5,09,,,,,,,,,,,,,5,1.48,1,,,,,,-0.335,-0.40875,1,0,0,1.48,Obsidian_rect,11,0,11,0,1,
653feb348f4df4e625de5909,SCR,2024-06-24_16h46.02.672,LearnStrategy,2023.2.3,Win32,59.88023952,9,2,13,,,,,,,,3,16,,,,,,,,,,,,,3,5.477,1,,,,,,0.1125,-0.235,1,0,0,5.4772,Diorite_rect,12,0,12,0,1,
653feb348f4df4e625de5909,SCR,2024-06-24_16h46.02.672,LearnStrategy,2023.2.3,Win32,59.88023952,9,2,14,,,,,,,,8,05,,,,,,,,,,,,,8,1.766,1,,,,,,0.41875,-0.41625,1,0,0,1.7656,Pumice_rect,13,0,13,0,1,
653feb348f4df4e625de5909,SCR,2024-06-24_16h46.02.672,LearnStrategy,2023.2.3,Win32,59.88023952,9,2,15,,,,,,,,2,06,,,,,,,,,,,,,4,2.137,0,,,,,,0.4275,-0.2475,1,0,0,2.1368,Gabbro_rect,14,0,14,0,1,
653feb348f4df4e625de5909,SCR,2024-06-24_16h46.02.672,LearnStrategy,2023.2.3,Win32,59.88023952,9,2,16,,,,,,,,7,13,,,,,,,,,,,,,7,3.115,1,,,,,,0.14875,-0.41375,1,0,0,3.1148,Peridotite_rect,15,0,15,0,1,
653feb348f4df4e625de5909,SCR,2024-06-24_16h46.02.672,LearnStrategy,2023.2.3,Win32,59.88023952,,,,,,,,,,,,,,,,,,,,,,,,,,,,,,,,,,,,,,,,,,,,,0
653feb348f4df4e625de5909,SCR,2024-06-24_16h46.02.672,LearnStrategy,2023.2.3,Win32,59.88023952,,,,,,,,,,,,,,,,,,,,,,,,,,,,,,,,,,,,,,,,,,,,,
653feb348f4df4e625de5909,SCR,2024-06-24_16h46.02.672,LearnStrategy,2023.2.3,Win32,59.88023952,,,,,,,,,,,7,12,1,1,,,,,,,,,,,,,,,,,,,,,,,,,,,,,,,
653feb348f4df4e625de5909,SCR,2024-06-24_16h46.02.672,LearnStrategy,2023.2.3,Win32,59.88023952,,,,,,,,,,,3,14,1,2,,,,,,,,,,,,,,,,,,,,,,,,,,,,,,,
653feb348f4df4e625de5909,SCR,2024-06-24_16h46.02.672,LearnStrategy,2023.2.3,Win32,59.88023952,,,,,,,,,,,4,15,1,3,,,,,,,,,,,,,,,,,,,,,,,,,,,,,,,
653feb348f4df4e625de5909,SCR,2024-06-24_16h46.02.672,LearnStrategy,2023.2.3,Win32,59.88023952,,,,,,,,,,,1,11,1,4,,,,,,,,,,,,,,,,,,,,,,,,,,,,,,,
653feb348f4df4e625de5909,SCR,2024-06-24_16h46.02.672,LearnStrategy,2023.2.3,Win32,59.88023952,,,,,,,,,,,2,12,1,5,,,,,,,,,,,,,,,,,,,,,,,,,,,,,,,
653feb348f4df4e625de5909,SCR,2024-06-24_16h46.02.672,LearnStrategy,2023.2.3,Win32,59.88023952,,,,,,,,,,,4,10,1,6,,,,,,,,,,,,,,,,,,,,,,,,,,,,,,,
653feb348f4df4e625de5909,SCR,2024-06-24_16h46.02.672,LearnStrategy,2023.2.3,Win32,59.88023952,,,,,,,,,,,3,11,1,7,,,,,,,,,,,,,,,,,,,,,,,,,,,,,,,
653feb348f4df4e625de5909,SCR,2024-06-24_16h46.02.672,LearnStrategy,2023.2.3,Win32,59.88023952,,,,,,,,,,,8,13,1,8,,,,,,,,,,,,,,,,,,,,,,,,,,,,,,,
653feb348f4df4e625de5909,SCR,2024-06-24_16h46.02.672,LearnStrategy,2023.2.3,Win32,59.88023952,,,,,,,,,,,4,09,2,1,,,,,,,,,,,,,,,,,,,,,,,,,,,,,,,
653feb348f4df4e625de5909,SCR,2024-06-24_16h46.02.672,LearnStrategy,2023.2.3,Win32,59.88023952,,,,,,,,,,,2,04,2,2,,,,,,,,,,,,,,,,,,,,,,,,,,,,,,,
653feb348f4df4e625de5909,SCR,2024-06-24_16h46.02.672,LearnStrategy,2023.2.3,Win32,59.88023952,,,,,,,,,,,7,02,2,3,,,,,,,,,,,,,,,,,,,,,,,,,,,,,,,
653feb348f4df4e625de5909,SCR,2024-06-24_16h46.02.672,LearnStrategy,2023.2.3,Win32,59.88023952,,,,,,,,,,,7,15,2,4,,,,,,,,,,,,,,,,,,,,,,,,,,,,,,,
653feb348f4df4e625de5909,SCR,2024-06-24_16h46.02.672,LearnStrategy,2023.2.3,Win32,59.88023952,,,,,,,,,,,7,14,2,5,,,,,,,,,,,,,,,,,,,,,,,,,,,,,,,
653feb348f4df4e625de5909,SCR,2024-06-24_16h46.02.672,LearnStrategy,2023.2.3,Win32,59.88023952,,,,,,,,,,,1,03,2,6,,,,,,,,,,,,,,,,,,,,,,,,,,,,,,,
653feb348f4df4e625de5909,SCR,2024-06-24_16h46.02.672,LearnStrategy,2023.2.3,Win32,59.88023952,,,,,,,,,,,8,10,2,7,,,,,,,,,,,,,,,,,,,,,,,,,,,,,,,
653feb348f4df4e625de5909,SCR,2024-06-24_16h46.02.672,LearnStrategy,2023.2.3,Win32,59.88023952,,,,,,,,,,,1,16,2,8,,,,,,,,,,,,,,,,,,,,,,,,,,,,,,,
653feb348f4df4e625de5909,SCR,2024-06-24_16h46.02.672,LearnStrategy,2023.2.3,Win32,59.88023952,,,,,,,,,,,6,06,3,1,,,,,,,,,,,,,,,,,,,,,,,,,,,,,,,
653feb348f4df4e625de5909,SCR,2024-06-24_16h46.02.672,LearnStrategy,2023.2.3,Win32,59.88023952,,,,,,,,,,,2,08,3,2,,,,,,,,,,,,,,,,,,,,,,,,,,,,,,,
653feb348f4df4e625de5909,SCR,2024-06-24_16h46.02.672,LearnStrategy,2023.2.3,Win32,59.88023952,,,,,,,,,,,4,12,3,3,,,,,,,,,,,,,,,,,,,,,,,,,,,,,,,
653feb348f4df4e625de5909,SCR,2024-06-24_16h46.02.672,LearnStrategy,2023.2.3,Win32,59.88023952,,,,,,,,,,,2,05,3,4,,,,,,,,,,,,,,,,,,,,,,,,,,,,,,,
653feb348f4df4e625de5909,SCR,2024-06-24_16h46.02.672,LearnStrategy,2023.2.3,Win32,59.88023952,,,,,,,,,,,1,05,3,5,,,,,,,,,,,,,,,,,,,,,,,,,,,,,,,
653feb348f4df4e625de5909,SCR,2024-06-24_16h46.02.672,LearnStrategy,2023.2.3,Win32,59.88023952,,,,,,,,,,,8,08,3,6,,,,,,,,,,,,,,,,,,,,,,,,,,,,,,,
653feb348f4df4e625de5909,SCR,2024-06-24_16h46.02.672,LearnStrategy,2023.2.3,Win32,59.88023952,,,,,,,,,,,4,11,3,7,,,,,,,,,,,,,,,,,,,,,,,,,,,,,,,
653feb348f4df4e625de5909,SCR,2024-06-24_16h46.02.672,LearnStrategy,2023.2.3,Win32,59.88023952,,,,,,,,,,,8,03,3,8,,,,,,,,,,,,,,,,,,,,,,,,,,,,,,,
653feb348f4df4e625de5909,SCR,2024-06-24_16h46.02.672,LearnStrategy,2023.2.3,Win32,59.88023952,,,,,,,,,,,5,04,4,1,,,,,,,,,,,,,,,,,,,,,,,,,,,,,,,
653feb348f4df4e625de5909,SCR,2024-06-24_16h46.02.672,LearnStrategy,2023.2.3,Win32,59.88023952,,,,,,,,,,,4,05,4,2,,,,,,,,,,,,,,,,,,,,,,,,,,,,,,,
653feb348f4df4e625de5909,SCR,2024-06-24_16h46.02.672,LearnStrategy,2023.2.3,Win32,59.88023952,,,,,,,,,,,5,14,4,3,,,,,,,,,,,,,,,,,,,,,,,,,,,,,,,
653feb348f4df4e625de5909,SCR,2024-06-24_16h46.02.672,LearnStrategy,2023.2.3,Win32,59.88023952,,,,,,,,,,,3,08,4,4,,,,,,,,,,,,,,,,,,,,,,,,,,,,,,,
653feb348f4df4e625de5909,SCR,2024-06-24_16h46.02.672,LearnStrategy,2023.2.3,Win32,59.88023952,,,,,,,,,,,7,05,4,5,,,,,,,,,,,,,,,,,,,,,,,,,,,,,,,
653feb348f4df4e625de5909,SCR,2024-06-24_16h46.02.672,LearnStrategy,2023.2.3,Win32,59.88023952,,,,,,,,,,,8,06,4,6,,,,,,,,,,,,,,,,,,,,,,,,,,,,,,,
653feb348f4df4e625de5909,SCR,2024-06-24_16h46.02.672,LearnStrategy,2023.2.3,Win32,59.88023952,,,,,,,,,,,3,13,4,7,,,,,,,,,,,,,,,,,,,,,,,,,,,,,,,
653feb348f4df4e625de5909,SCR,2024-06-24_16h46.02.672,LearnStrategy,2023.2.3,Win32,59.88023952,,,,,,,,,,,2,11,4,8,,,,,,,,,,,,,,,,,,,,,,,,,,,,,,,
653feb348f4df4e625de5909,SCR,2024-06-24_16h46.02.672,LearnStrategy,2023.2.3,Win32,59.88023952,,,,,,,,,,,7,10,5,1,,,,,,,,,,,,,,,,,,,,,,,,,,,,,,,
653feb348f4df4e625de5909,SCR,2024-06-24_16h46.02.672,LearnStrategy,2023.2.3,Win32,59.88023952,,,,,,,,,,,6,13,5,2,,,,,,,,,,,,,,,,,,,,,,,,,,,,,,,
653feb348f4df4e625de5909,SCR,2024-06-24_16h46.02.672,LearnStrategy,2023.2.3,Win32,59.88023952,,,,,,,,,,,6,09,5,3,,,,,,,,,,,,,,,,,,,,,,,,,,,,,,,
653feb348f4df4e625de5909,SCR,2024-06-24_16h46.02.672,LearnStrategy,2023.2.3,Win32,59.88023952,,,,,,,,,,,6,16,5,4,,,,,,,,,,,,,,,,,,,,,,,,,,,,,,,
653feb348f4df4e625de5909,SCR,2024-06-24_16h46.02.672,LearnStrategy,2023.2.3,Win32,59.88023952,,,,,,,,,,,5,05,5,5,,,,,,,,,,,,,,,,,,,,,,,,,,,,,,,
653feb348f4df4e625de5909,SCR,2024-06-24_16h46.02.672,LearnStrategy,2023.2.3,Win32,59.88023952,,,,,,,,,,,8,09,5,6,,,,,,,,,,,,,,,,,,,,,,,,,,,,,,,
653feb348f4df4e625de5909,SCR,2024-06-24_16h46.02.672,LearnStrategy,2023.2.3,Win32,59.88023952,,,,,,,,,,,6,08,5,7,,,,,,,,,,,,,,,,,,,,,,,,,,,,,,,
653feb348f4df4e625de5909,SCR,2024-06-24_16h46.02.672,LearnStrategy,2023.2.3,Win32,59.88023952,,,,,,,,,,,1,06,5,8,,,,,,,,,,,,,,,,,,,,,,,,,,,,,,,
653feb348f4df4e625de5909,SCR,2024-06-24_16h46.02.672,LearnStrategy,2023.2.3,Win32,59.88023952,,,,,,,,,,,2,16,6,1,,,,,,,,,,,,,,,,,,,,,,,,,,,,,,,
653feb348f4df4e625de5909,SCR,2024-06-24_16h46.02.672,LearnStrategy,2023.2.3,Win32,59.88023952,,,,,,,,,,,3,07,6,2,,,,,,,,,,,,,,,,,,,,,,,,,,,,,,,
653feb348f4df4e625de5909,SCR,2024-06-24_16h46.02.672,LearnStrategy,2023.2.3,Win32,59.88023952,,,,,,,,,,,1,01,6,3,,,,,,,,,,,,,,,,,,,,,,,,,,,,,,,
653feb348f4df4e625de5909,SCR,2024-06-24_16h46.02.672,LearnStrategy,2023.2.3,Win32,59.88023952,,,,,,,,,,,5,16,6,4,,,,,,,,,,,,,,,,,,,,,,,,,,,,,,,
653feb348f4df4e625de5909,SCR,2024-06-24_16h46.02.672,LearnStrategy,2023.2.3,Win32,59.88023952,,,,,,,,,,,6,11,6,5,,,,,,,,,,,,,,,,,,,,,,,,,,,,,,,
653feb348f4df4e625de5909,SCR,2024-06-24_16h46.02.672,LearnStrategy,2023.2.3,Win32,59.88023952,,,,,,,,,,,5,10,6,6,,,,,,,,,,,,,,,,,,,,,,,,,,,,,,,
653feb348f4df4e625de5909,SCR,2024-06-24_16h46.02.672,LearnStrategy,2023.2.3,Win32,59.88023952,,,,,,,,,,,5,02,6,7,,,,,,,,,,,,,,,,,,,,,,,,,,,,,,,
653feb348f4df4e625de5909,SCR,2024-06-24_16h46.02.672,LearnStrategy,2023.2.3,Win32,59.88023952,,,,,,,,,,,3,09,6,8,,,,,,,,,,,,,,,,,,,,,,,,,,,,,,,