participant,condition,date,expName,psychopyVersion,OS,frameRate,block,phase,trial,learn_mouse.x,learn_mouse.y,learn_mouse.leftButton,learn_mouse.midButton,learn_mouse.rightButton,learn_mouse.time,learn_mouse.clicked_name,cat,token,row,col,t_select,cat_rec,token_rec,cat_mouse_l.x,cat_mouse_l.y,cat_mouse_l.leftButton,cat_mouse_l.midButton,cat_mouse_l.rightButton,cat_mouse_l.time,cat_mouse_l.clicked_name,resp,t_resp,corr,train_trials.thisRepN,train_trials.thisTrialN,train_trials.thisN,train_trials.thisIndex,train_trials.ran,cat_mouse_t.x,cat_mouse_t.y,cat_mouse_t.leftButton,cat_mouse_t.midButton,cat_mouse_t.rightButton,cat_mouse_t.time,cat_mouse_t.clicked_name,test_trials.thisRepN,test_trials.thisTrialN,test_trials.thisN,test_trials.thisIndex,test_trials.ran,Bonus
6544d818cdf50c46906dbf07,SCR,2024-06-25_12h59.45.816,LearnStrategy,2023.2.3,Win32,60.97560976,,,,,,,,,,,,,,,,,,,,,,,,,,,,,,,,,,,,,,,,,,,,,
6544d818cdf50c46906dbf07,SCR,2024-06-25_12h59.45.816,LearnStrategy,2023.2.3,Win32,60.97560976,1,1,1,-0.204800378,0.246442985,1,0,0,104.8977,Gabbro_05,4,05,5,3,104.898,4,05,-0.423192569,-0.244013909,1,0,0,38.7944,Andesite_rect,1,38.794,0,0,0,0,0,1,,,,,,,,,,,,,
6544d818cdf50c46906dbf07,SCR,2024-06-25_12h59.45.816,LearnStrategy,2023.2.3,Win32,60.97560976,1,1,2,-0.098380468,-0.114459253,1,0,0,46.0755,Obsidian_10,5,10,3,4,46.076,6,08,-0.132619906,-0.4115096,1,0,0,186.7415,Pegmatite_rect,6,186.741,0,1,0,1,0,1,,,,,,,,,,,,,
6544d818cdf50c46906dbf07,SCR,2024-06-25_12h59.45.816,LearnStrategy,2023.2.3,Win32,60.97560976,1,1,3,0.212550607,0.110410596,1,0,0,7.5563,Basalt_02,2,02,4,6,7.556,5,07,-0.116888354,-0.249566379,1,0,0,9.2009,Basalt_rect,2,9.201,1,2,0,2,0,1,,,,,,,,,,,,,
6544d818cdf50c46906dbf07,SCR,2024-06-25_12h59.45.816,LearnStrategy,2023.2.3,Win32,60.97560976,1,1,4,0.10242915,0.251995331,1,0,0,4.9424,Basalt_12,2,12,5,5,4.942,3,13,-0.356564467,-0.228282406,1,0,0,10.8876,Andesite_rect,1,10.888,0,3,0,3,0,1,,,,,,,,,,,,,
6544d818cdf50c46906dbf07,SCR,2024-06-25_12h59.45.816,LearnStrategy,2023.2.3,Win32,60.97560976,1,1,5,-0.39358009,-0.256969375,1,0,0,5.6911,Diorite_08,3,08,2,2,5.691,4,15,0.333776806,-0.40225578,1,0,0,5.2112,Pumice_rect,8,5.211,0,4,0,4,0,1,,,,,,,,,,,,,
6544d818cdf50c46906dbf07,SCR,2024-06-25_12h59.45.816,LearnStrategy,2023.2.3,Win32,60.97560976,1,1,6,0.069115124,-0.397628871,1,0,0,5.6069,Diorite_07,3,07,1,5,5.607,7,14,-0.080797994,-0.385598668,1,0,0,2.417,Pegmatite_rect,6,2.417,0,5,0,5,0,1,,,,,,,,,,,,,
6544d818cdf50c46906dbf07,SCR,2024-06-25_12h59.45.816,LearnStrategy,2023.2.3,Win32,60.97560976,1,1,7,0.509601052,-0.091324557,1,0,0,4.8482,Obsidian_06,5,06,3,8,4.848,8,16,-0.159456199,-0.403181142,1,0,0,5.9545,Pegmatite_rect,6,5.954,0,6,0,6,0,1,,,,,,,,,,,,,
6544d818cdf50c46906dbf07,SCR,2024-06-25_12h59.45.816,LearnStrategy,2023.2.3,Win32,60.97560976,1,1,8,-0.564777279,-0.406882591,1,0,0,7.8897,Obsidian_16,5,16,1,1,7.89,3,10,0.340254539,-0.392076401,1,0,0,6.0558,Pumice_rect,8,6.056,0,7,0,7,0,1,,,,,,,,,,,,,
6544d818cdf50c46906dbf07,SCR,2024-06-25_12h59.45.816,LearnStrategy,2023.2.3,Win32,60.97560976,1,1,9,-0.065066442,0.255696928,1,0,0,13.3363,Peridotite_16,7,16,5,4,13.336,6,05,0.371718038,-0.24493942,1,0,0,6.4238,Gabbro_rect,4,6.424,0,8,0,8,0,1,,,,,,,,,,,,,
6544d818cdf50c46906dbf07,SCR,2024-06-25_12h59.45.816,LearnStrategy,2023.2.3,Win32,60.97560976,1,1,10,-0.208501925,0.090977398,1,0,0,16.7153,Pumice_09,8,09,4,3,16.715,5,06,0.08762296,-0.262521795,1,0,0,5.2643,Diorite_rect,3,5.264,0,9,0,9,0,1,,,,,,,,,,,,,
6544d818cdf50c46906dbf07,SCR,2024-06-25_12h59.45.816,LearnStrategy,2023.2.3,Win32,60.97560976,1,1,11,0.550318371,-0.421688979,1,0,0,9.8046,Andesite_06,1,06,1,8,9.805,7,10,-0.360265965,-0.389300315,1,0,0,7.1422,Obsidian_rect,5,7.142,0,10,0,10,0,1,,,,,,,,,,,,,
6544d818cdf50c46906dbf07,SCR,2024-06-25_12h59.45.816,LearnStrategy,2023.2.3,Win32,60.97560976,1,1,12,-0.531463228,0.408386348,1,0,0,8.9219,Pumice_15,8,15,6,1,8.922,1,04,0.110757706,-0.262521795,1,0,0,4.4345,Diorite_rect,3,4.435,0,11,0,11,0,1,,,,,,,,,,,,,
6544d818cdf50c46906dbf07,SCR,2024-06-25_12h59.45.816,LearnStrategy,2023.2.3,Win32,60.97560976,1,1,13,-0.538866347,0.095604381,1,0,0,10.1857,Gabbro_09,4,09,4,1,10.186,2,10,-0.387102357,-0.409658776,1,0,0,9.1595,Obsidian_rect,5,9.159,0,12,0,12,0,1,,,,,,,,,,,,,
6544d818cdf50c46906dbf07,SCR,2024-06-25_12h59.45.816,LearnStrategy,2023.2.3,Win32,60.97560976,1,1,14,-0.221457342,0.418565628,1,0,0,4.5414,Diorite_15,3,15,6,3,4.541,1,02,0.133892452,-0.405031867,1,0,0,19.5596,Peridotite_rect,7,19.56,0,13,0,13,0,1,,,,,,,,,,,,,
6544d818cdf50c46906dbf07,SCR,2024-06-25_12h59.45.816,LearnStrategy,2023.2.3,Win32,60.97560976,1,1,15,-0.219606568,0.440775012,1,0,0,4.5596,Diorite_15,3,15,6,3,4.56,8,03,-0.365818385,-0.247715605,1,0,0,5.2954,Andesite_rect,1,5.295,0,14,0,14,0,1,,,,,,,,,,,,,
6544d818cdf50c46906dbf07,SCR,2024-06-25_12h59.45.816,LearnStrategy,2023.2.3,Win32,60.97560976,1,1,16,0.391151237,0.256622314,1,0,0,7.5578,Pegmatite_16,6,16,5,7,7.558,2,01,0.402255681,-0.395778048,1,0,0,9.1754,Pumice_rect,8,9.175,0,15,0,15,0,1,,,,,,,,,,,,,
6544d818cdf50c46906dbf07,SCR,2024-06-25_12h59.45.816,LearnStrategy,2023.2.3,Win32,60.97560976,1,2,1,,,,,,,,7,08,,,,,,,,,,,,,4,28.655,0,,,,,,0.407808151,-0.242163185,1,0,0,28.6548,Gabbro_rect,0,0,0,0,1,
6544d818cdf50c46906dbf07,SCR,2024-06-25_12h59.45.816,LearnStrategy,2023.2.3,Win32,60.97560976,1,2,2,,,,,,,,2,06,,,,,,,,,,,,,2,30.591,1,,,,,,-0.12521686,-0.250491642,1,0,0,30.5911,Basalt_rect,1,0,1,0,1,
6544d818cdf50c46906dbf07,SCR,2024-06-25_12h59.45.816,LearnStrategy,2023.2.3,Win32,60.97560976,1,2,3,,,,,,,,5,11,,,,,,,,,,,,,5,19.504,1,,,,,,-0.334355034,-0.394852587,1,0,0,19.5036,Obsidian_rect,2,0,2,0,1,
6544d818cdf50c46906dbf07,SCR,2024-06-25_12h59.45.816,LearnStrategy,2023.2.3,Win32,60.97560976,1,2,4,,,,,,,,4,01,,,,,,,,,,,,,1,15.17,0,,,,,,-0.375072204,-0.237536176,1,0,0,15.1702,Andesite_rect,3,0,3,0,1,
6544d818cdf50c46906dbf07,SCR,2024-06-25_12h59.45.816,LearnStrategy,2023.2.3,Win32,60.97560976,1,2,5,,,,,,,,8,02,,,,,,,,,,,,,8,12.855,1,,,,,,0.350433819,-0.388374854,1,0,0,12.8553,Pumice_rect,4,0,4,0,1,
6544d818cdf50c46906dbf07,SCR,2024-06-25_12h59.45.816,LearnStrategy,2023.2.3,Win32,60.97560976,1,2,6,,,,,,,,6,13,,,,,,,,,,,,,8,26.738,0,,,,,,0.344881448,-0.396703311,1,0,0,26.7384,Pumice_rect,5,0,5,0,1,
6544d818cdf50c46906dbf07,SCR,2024-06-25_12h59.45.816,LearnStrategy,2023.2.3,Win32,60.97560976,1,2,7,,,,,,,,4,11,,,,,,,,,,,,,1,53.025,0,,,,,,-0.331578849,-0.243088596,1,0,0,53.0246,Andesite_rect,6,0,6,0,1,
6544d818cdf50c46906dbf07,SCR,2024-06-25_12h59.45.816,LearnStrategy,2023.2.3,Win32,60.97560976,1,2,8,,,,,,,,3,12,,,,,,,,,,,,,3,18.1,1,,,,,,0.132041826,-0.254193189,1,0,0,18.0997,Diorite_rect,7,0,7,0,1,
6544d818cdf50c46906dbf07,SCR,2024-06-25_12h59.45.816,LearnStrategy,2023.2.3,Win32,60.97560976,1,2,9,,,,,,,,1,07,,,,,,,,,,,,,3,33.263,0,,,,,,0.083921511,-0.245864732,1,0,0,33.2628,Diorite_rect,8,0,8,0,1,
6544d818cdf50c46906dbf07,SCR,2024-06-25_12h59.45.816,LearnStrategy,2023.2.3,Win32,60.97560976,1,2,10,,,,,,,,2,05,,,,,,,,,,,,,2,15.99,1,,,,,,-0.075245722,-0.256044062,1,0,0,15.9896,Basalt_rect,9,0,9,0,1,
6544d818cdf50c46906dbf07,SCR,2024-06-25_12h59.45.816,LearnStrategy,2023.2.3,Win32,60.97560976,1,2,11,,,,,,,,7,05,,,,,,,,,,,,,2,6.437,0,,,,,,-0.075245722,-0.256044062,1,0,0,6.4368,Basalt_rect,10,0,10,0,1,
6544d818cdf50c46906dbf07,SCR,2024-06-25_12h59.45.816,LearnStrategy,2023.2.3,Win32,60.97560976,1,2,12,,,,,,,,6,15,,,,,,,,,,,,,6,18.535,1,,,,,,-0.076171183,-0.383747944,1,0,0,18.5355,Pegmatite_rect,11,0,11,0,1,
6544d818cdf50c46906dbf07,SCR,2024-06-25_12h59.45.816,LearnStrategy,2023.2.3,Win32,60.97560976,1,2,13,,,,,,,,8,08,,,,,,,,,,,,,2,15.574,0,,,,,,-0.092828196,-0.252342416,1,0,0,15.5744,Basalt_rect,12,0,12,0,1,
6544d818cdf50c46906dbf07,SCR,2024-06-25_12h59.45.816,LearnStrategy,2023.2.3,Win32,60.97560976,1,2,14,,,,,,,,5,08,,,,,,,,,,,,,5,13.384,1,,,,,,-0.369519933,-0.405031867,1,0,0,13.3838,Obsidian_rect,13,0,13,0,1,
6544d818cdf50c46906dbf07,SCR,2024-06-25_12h59.45.816,LearnStrategy,2023.2.3,Win32,60.97560976,1,2,15,,,,,,,,1,11,,,,,,,,,,,,,2,14.662,0,,,,,,-0.115962893,-0.25511865,1,0,0,14.662,Basalt_rect,14,0,14,0,1,
6544d818cdf50c46906dbf07,SCR,2024-06-25_12h59.45.816,LearnStrategy,2023.2.3,Win32,60.97560976,1,2,16,,,,,,,,3,02,,,,,,,,,,,,,4,9.545,0,,,,,,0.353210004,-0.260670922,1,0,0,9.5449,Gabbro_rect,15,0,15,0,1,
6544d818cdf50c46906dbf07,SCR,2024-06-25_12h59.45.816,LearnStrategy,2023.2.3,Win32,60.97560976,2,1,1,-0.528687092,-0.10798152,1,0,0,15.0017,Andesite_05,1,05,3,1,15.002,6,16,-0.407460868,-0.406882591,1,0,0,15.5445,Obsidian_rect,5,15.544,0,0,0,0,0,1,,,,,,,,,,,,,
6544d818cdf50c46906dbf07,SCR,2024-06-25_12h59.45.816,LearnStrategy,2023.2.3,Win32,60.97560976,2,1,2,0.246790094,-0.089473783,1,0,0,2.7104,Pegmatite_07,6,07,3,6,2.71,6,03,0.372643203,-0.259745609,1,0,0,8.5422,Gabbro_rect,4,8.542,0,1,0,1,0,1,,,,,,,,,,,,,
6544d818cdf50c46906dbf07,SCR,2024-06-25_12h59.45.816,LearnStrategy,2023.2.3,Win32,60.97560976,2,1,3,0.401330418,0.420416414,1,0,0,4.4108,Gabbro_10,4,10,6,7,4.411,4,15,0.041353567,-0.253267877,1,0,0,5.4153,Diorite_rect,3,5.415,0,2,0,2,0,1,,,,,,,,,,,,,
6544d818cdf50c46906dbf07,SCR,2024-06-25_12h59.45.816,LearnStrategy,2023.2.3,Win32,60.97560976,2,1,4,0.225506271,0.400983216,1,0,0,4.3917,Andesite_02,1,02,6,6,4.392,8,15,-0.419490972,-0.259745609,1,0,0,3.601,Andesite_rect,1,3.601,1,3,0,3,0,1,,,,,,,,,,,,,
6544d818cdf50c46906dbf07,SCR,2024-06-25_12h59.45.816,LearnStrategy,2023.2.3,Win32,60.97560976,2,1,5,-0.065066442,0.088201237,1,0,0,8.4576,Pumice_16,8,16,4,4,8.458,7,14,-0.050260252,-0.236610864,1,0,0,2.3148,Basalt_rect,2,2.315,0,4,0,4,0,1,,,,,,,,,,,,,
6544d818cdf50c46906dbf07,SCR,2024-06-25_12h59.45.816,LearnStrategy,2023.2.3,Win32,60.97560976,2,1,6,0.38189722,-0.099653063,1,0,0,3.1762,Peridotite_04,7,04,3,7,3.176,4,16,0.188490499,-0.380046397,1,0,0,5.1,Peridotite_rect,7,5.1,1,5,0,5,0,1,,,,,,,,,,,,,
6544d818cdf50c46906dbf07,SCR,2024-06-25_12h59.45.816,LearnStrategy,2023.2.3,Win32,60.97560976,2,1,7,-0.386176896,-0.395778048,1,0,0,2.7262,Andesite_04,1,04,1,2,2.726,7,06,-0.366743698,-0.241237724,1,0,0,5.333,Andesite_rect,1,5.333,1,6,0,6,0,1,,,,,,,,,,,,,
6544d818cdf50c46906dbf07,SCR,2024-06-25_12h59.45.816,LearnStrategy,2023.2.3,Win32,60.97560976,2,1,8,0.382822483,-0.218102978,1,0,0,2.8612,Gabbro_03,4,03,2,7,2.861,1,02,-0.401908597,-0.254193189,1,0,0,3.9466,Andesite_rect,1,3.947,0,7,0,7,0,1,,,,,,,,,,,,,
6544d818cdf50c46906dbf07,SCR,2024-06-25_12h59.45.816,LearnStrategy,2023.2.3,Win32,60.97560976,2,1,9,0.364314647,0.089126649,1,0,0,6.7075,Basalt_01,2,01,4,7,6.707,8,10,0.105205335,-0.242163185,1,0,0,3.4022,Diorite_rect,3,3.402,0,8,0,8,0,1,,,,,,,,,,,,,
6544d818cdf50c46906dbf07,SCR,2024-06-25_12h59.45.816,LearnStrategy,2023.2.3,Win32,60.97560976,2,1,10,0.264372667,-0.242163185,1,0,0,4.1755,Andesite_09,1,09,2,6,4.176,2,12,-0.378773851,-0.247715605,1,0,0,4.4147,Andesite_rect,1,4.415,1,9,0,9,0,1,,,,,,,,,,,,,
6544d818cdf50c46906dbf07,SCR,2024-06-25_12h59.45.816,LearnStrategy,2023.2.3,Win32,60.97560976,2,1,11,-0.398207049,-0.403181142,1,0,0,3.208,Andesite_04,1,04,1,2,3.208,1,14,-0.323250342,-0.23938695,1,0,0,2.0367,Andesite_rect,1,2.037,1,10,0,10,0,1,,,,,,,,,,,,,
6544d818cdf50c46906dbf07,SCR,2024-06-25_12h59.45.816,LearnStrategy,2023.2.3,Win32,60.97560976,2,1,12,-0.071544224,0.272353916,1,0,0,5.0249,Peridotite_16,7,16,5,4,5.025,4,10,0.045980477,-0.389300315,1,0,0,3.7684,Peridotite_rect,7,3.768,1,11,0,11,0,1,,,,,,,,,,,,,
6544d818cdf50c46906dbf07,SCR,2024-06-25_12h59.45.816,LearnStrategy,2023.2.3,Win32,60.97560976,2,1,13,-0.079872731,0.38247541,1,0,0,3.6942,Obsidian_02,5,02,6,4,3.694,7,10,-0.128918358,-0.403181142,1,0,0,2.9715,Pegmatite_rect,6,2.971,0,12,0,12,0,1,,,,,,,,,,,,,
6544d818cdf50c46906dbf07,SCR,2024-06-25_12h59.45.816,LearnStrategy,2023.2.3,Win32,60.97560976,2,1,14,0.383747845,0.265876183,1,0,0,4.7754,Pegmatite_16,6,16,5,7,4.775,3,16,-0.110410621,-0.249566379,1,0,0,3.7807,Basalt_rect,2,3.781,0,13,0,13,0,1,,,,,,,,,,,,,
6544d818cdf50c46906dbf07,SCR,2024-06-25_12h59.45.816,LearnStrategy,2023.2.3,Win32,60.97560976,2,1,15,0.570676734,-0.273626388,1,0,0,2.7948,Pegmatite_09,6,09,2,8,2.795,1,09,-0.390803905,-0.419838254,1,0,0,5.2148,Obsidian_rect,5,5.215,0,14,0,14,0,1,,,,,,,,,,,,,
6544d818cdf50c46906dbf07,SCR,2024-06-25_12h59.45.816,LearnStrategy,2023.2.3,Win32,60.97560976,2,1,16,0.5641991,-0.231058444,1,0,0,3.1778,Pegmatite_09,6,09,2,8,3.178,3,15,-0.123366037,-0.40225578,1,0,0,4.6396,Pegmatite_rect,6,4.64,1,15,0,15,0,1,,,,,,,,,,,,,
6544d818cdf50c46906dbf07,SCR,2024-06-25_12h59.45.816,LearnStrategy,2023.2.3,Win32,60.97560976,2,2,1,,,,,,,,6,10,,,,,,,,,,,,,6,18.096,1,,,,,,-0.119664391,-0.397628871,1,0,0,18.0958,Pegmatite_rect,0,0,0,0,1,
6544d818cdf50c46906dbf07,SCR,2024-06-25_12h59.45.816,LearnStrategy,2023.2.3,Win32,60.97560976,2,2,2,,,,,,,,7,15,,,,,,,,,,,,,6,6.189,0,,,,,,-0.10948516,-0.40225578,1,0,0,6.1887,Pegmatite_rect,1,0,1,0,1,
6544d818cdf50c46906dbf07,SCR,2024-06-25_12h59.45.816,LearnStrategy,2023.2.3,Win32,60.97560976,2,2,3,,,,,,,,8,13,,,,,,,,,,,,,3,5.53,0,,,,,,0.060786765,-0.236610864,1,0,0,5.5303,Diorite_rect,2,0,2,0,1,
6544d818cdf50c46906dbf07,SCR,2024-06-25_12h59.45.816,LearnStrategy,2023.2.3,Win32,60.97560976,2,2,4,,,,,,,,3,11,,,,,,,,,,,,,1,3.975,0,,,,,,-0.344534413,-0.24493942,1,0,0,3.9754,Andesite_rect,3,0,3,0,1,
6544d818cdf50c46906dbf07,SCR,2024-06-25_12h59.45.816,LearnStrategy,2023.2.3,Win32,60.97560976,2,2,5,,,,,,,,2,11,,,,,,,,,,,,,1,2.331,0,,,,,,-0.360265965,-0.256044062,1,0,0,2.3307,Andesite_rect,4,0,4,0,1,
6544d818cdf50c46906dbf07,SCR,2024-06-25_12h59.45.816,LearnStrategy,2023.2.3,Win32,60.97560976,2,2,6,,,,,,,,6,12,,,,,,,,,,,,,5,2.94,0,,,,,,-0.360265965,-0.387449393,1,0,0,2.94,Obsidian_rect,5,0,5,0,1,
6544d818cdf50c46906dbf07,SCR,2024-06-25_12h59.45.816,LearnStrategy,2023.2.3,Win32,60.97560976,2,2,7,,,,,,,,2,04,,,,,,,,,,,,,3,2.314,0,,,,,,0.034875834,-0.241237724,1,0,0,2.3145,Diorite_rect,6,0,6,0,1,
6544d818cdf50c46906dbf07,SCR,2024-06-25_12h59.45.816,LearnStrategy,2023.2.3,Win32,60.97560976,2,2,8,,,,,,,,5,05,,,,,,,,,,,,,6,3.112,0,,,,,,-0.119664391,-0.415211246,1,0,0,3.1117,Pegmatite_rect,7,0,7,0,1,
6544d818cdf50c46906dbf07,SCR,2024-06-25_12h59.45.816,LearnStrategy,2023.2.3,Win32,60.97560976,2,2,9,,,,,,,,5,14,,,,,,,,,,,,,7,3.283,0,,,,,,0.078369042,-0.382822582,1,0,0,3.2832,Peridotite_rect,8,0,8,0,1,
6544d818cdf50c46906dbf07,SCR,2024-06-25_12h59.45.816,LearnStrategy,2023.2.3,Win32,60.97560976,2,2,10,,,,,,,,4,13,,,,,,,,,,,,,1,2.686,0,,,,,,-0.363967611,-0.235685452,1,0,0,2.686,Andesite_rect,9,0,9,0,1,
6544d818cdf50c46906dbf07,SCR,2024-06-25_12h59.45.816,LearnStrategy,2023.2.3,Win32,60.97560976,2,2,11,,,,,,,,1,03,,,,,,,,,,,,,1,2.004,1,,,,,,-0.335280495,-0.247715605,1,0,0,2.0042,Andesite_rect,10,0,10,0,1,
6544d818cdf50c46906dbf07,SCR,2024-06-25_12h59.45.816,LearnStrategy,2023.2.3,Win32,60.97560976,2,2,12,,,,,,,,7,12,,,,,,,,,,,,,4,5.566,0,,,,,,0.38189722,-0.250491642,1,0,0,5.5656,Gabbro_rect,11,0,11,0,1,
6544d818cdf50c46906dbf07,SCR,2024-06-25_12h59.45.816,LearnStrategy,2023.2.3,Win32,60.97560976,2,2,13,,,,,,,,4,12,,,,,,,,,,,,,1,2.49,0,,,,,,-0.38802767,-0.238461637,1,0,0,2.49,Andesite_rect,12,0,12,0,1,
6544d818cdf50c46906dbf07,SCR,2024-06-25_12h59.45.816,LearnStrategy,2023.2.3,Win32,60.97560976,2,2,14,,,,,,,,3,09,,,,,,,,,,,,,1,2.279,0,,,,,,-0.3630422,-0.261596383,1,0,0,2.2787,Andesite_rect,13,0,13,0,1,
6544d818cdf50c46906dbf07,SCR,2024-06-25_12h59.45.816,LearnStrategy,2023.2.3,Win32,60.97560976,2,2,15,,,,,,,,8,05,,,,,,,,,,,,,3,2.79,0,,,,,,0.050607485,-0.251417103,1,0,0,2.7899,Diorite_rect,14,0,14,0,1,
6544d818cdf50c46906dbf07,SCR,2024-06-25_12h59.45.816,LearnStrategy,2023.2.3,Win32,60.97560976,2,2,16,,,,,,,,1,01,,,,,,,,,,,,,5,3.195,0,,,,,,-0.339907454,-0.386524031,1,0,0,3.1945,Obsidian_rect,15,0,15,0,1,
6544d818cdf50c46906dbf07,SCR,2024-06-25_12h59.45.816,LearnStrategy,2023.2.3,Win32,60.97560976,3,1,1,-0.536090211,0.392654691,1,0,0,6.393,Pumice_15,8,15,6,1,6.393,7,06,-0.313996523,-0.268999577,1,0,0,5.0167,Andesite_rect,1,5.017,0,0,0,0,0,1,,,,,,,,,,,,,
6544d818cdf50c46906dbf07,SCR,2024-06-25_12h59.45.816,LearnStrategy,2023.2.3,Win32,60.97560976,3,1,2,-0.397281637,0.416714861,1,0,0,2.4437,Pumice_03,8,03,6,2,2.444,6,07,0.121862348,-0.243088596,1,0,0,4.8479,Diorite_rect,3,4.848,0,1,0,1,0,1,,,,,,,,,,,,,
6544d818cdf50c46906dbf07,SCR,2024-06-25_12h59.45.816,LearnStrategy,2023.2.3,Win32,60.97560976,3,1,3,-0.225159037,0.427819546,1,0,0,5.0081,Diorite_15,3,15,6,3,5.008,7,14,0.082995951,-0.248640967,1,0,0,2.6548,Diorite_rect,3,2.655,1,2,0,2,0,1,,,,,,,,,,,,,
6544d818cdf50c46906dbf07,SCR,2024-06-25_12h59.45.816,LearnStrategy,2023.2.3,Win32,60.97560976,3,1,4,0.402255681,0.413938675,1,0,0,4.4925,Gabbro_10,4,10,6,7,4.492,2,08,0.104279973,-0.228282406,1,0,0,2.5475,Diorite_rect,3,2.548,0,3,0,3,0,1,,,,,,,,,,,,,
6544d818cdf50c46906dbf07,SCR,2024-06-25_12h59.45.816,LearnStrategy,2023.2.3,Win32,60.97560976,3,1,5,0.530885173,0.080798142,1,0,0,2.362,Andesite_14,1,14,4,8,2.362,3,16,-0.177038722,-0.238461637,1,0,0,2.4667,Basalt_rect,2,2.467,0,4,0,4,0,1,,,,,,,,,,,,,
6544d818cdf50c46906dbf07,SCR,2024-06-25_12h59.45.816,LearnStrategy,2023.2.3,Win32,60.97560976,3,1,6,-0.232562083,0.261249274,1,0,0,3.4275,Gabbro_05,4,05,5,3,3.427,4,15,-0.111335934,-0.254193189,1,0,0,5.3308,Basalt_rect,2,5.331,0,5,0,5,0,1,,,,,,,,,,,,,
6544d818cdf50c46906dbf07,SCR,2024-06-25_12h59.45.816,LearnStrategy,2023.2.3,Win32,60.97560976,3,1,7,0.232909366,0.246442985,1,0,0,3.9772,Diorite_10,3,10,5,6,3.977,2,01,-0.337131269,-0.231058444,1,0,0,2.579,Andesite_rect,1,2.579,0,6,0,6,0,1,,,,,,,,,,,,,
6544d818cdf50c46906dbf07,SCR,2024-06-25_12h59.45.816,LearnStrategy,2023.2.3,Win32,60.97560976,3,1,8,0.372643203,-0.07744363,1,0,0,2.0108,Peridotite_04,7,04,3,7,2.011,1,09,0.299537319,-0.240312411,1,0,0,4.8977,Gabbro_rect,4,4.898,0,7,0,7,0,1,,,,,,,,,,,,,
6544d818cdf50c46906dbf07,SCR,2024-06-25_12h59.45.816,LearnStrategy,2023.2.3,Win32,60.97560976,3,1,9,-0.213128885,0.107634435,1,0,0,2.6441,Pumice_09,8,09,4,3,2.644,3,08,0.090399244,-0.251417103,1,0,0,3.2315,Diorite_rect,3,3.231,0,8,0,8,0,1,,,,,,,,,,,,,
6544d818cdf50c46906dbf07,SCR,2024-06-25_12h59.45.816,LearnStrategy,2023.2.3,Win32,60.97560976,3,1,10,0.271775762,-0.280104121,1,0,0,3.3934,Andesite_09,1,09,2,6,3.393,4,10,-0.375072204,-0.235685452,1,0,0,3.4867,Andesite_rect,1,3.487,1,9,0,9,0,1,,,,,,,,,,,,,
6544d818cdf50c46906dbf07,SCR,2024-06-25_12h59.45.816,LearnStrategy,2023.2.3,Win32,60.97560976,3,1,11,0.093175429,-0.121862447,1,0,0,4.2454,Pumice_06,8,06,3,5,4.245,1,04,-0.188143414,-0.263447107,1,0,0,2.4513,Basalt_rect,2,2.451,0,10,0,10,0,1,,,,,,,,,,,,,
6544d818cdf50c46906dbf07,SCR,2024-06-25_12h59.45.816,LearnStrategy,2023.2.3,Win32,60.97560976,3,1,12,0.372643203,0.097455106,1,0,0,6.7584,Basalt_01,2,01,4,7,6.758,4,15,-0.328802762,-0.256044062,1,0,0,2.8771,Andesite_rect,1,2.877,0,11,0,11,0,1,,,,,,,,,,,,,
6544d818cdf50c46906dbf07,SCR,2024-06-25_12h59.45.816,LearnStrategy,2023.2.3,Win32,60.97560976,3,1,13,0.524407341,0.400983216,1,0,0,3.3782,Pumice_10,8,10,6,8,3.378,5,12,0.347657634,-0.384673405,1,0,0,4.2573,Pumice_rect,8,4.257,1,12,0,12,0,1,,,,,,,,,,,,,
6544d818cdf50c46906dbf07,SCR,2024-06-25_12h59.45.816,LearnStrategy,2023.2.3,Win32,60.97560976,3,1,14,0.080219964,0.092828171,1,0,0,2.3772,Peridotite_10,7,10,4,5,2.377,8,09,-0.45465587,-0.421688979,1,0,0,4.3175,Obsidian_rect,5,4.318,0,13,0,13,0,1,,,,,,,,,,,,,
6544d818cdf50c46906dbf07,SCR,2024-06-25_12h59.45.816,LearnStrategy,2023.2.3,Win32,60.97560976,3,1,15,-0.065066442,0.097455106,1,0,0,1.9941,Pumice_16,8,16,4,4,1.994,5,07,-0.119664391,-0.262521795,1,0,0,4.842,Basalt_rect,2,4.842,0,14,0,14,0,1,,,,,,,,,,,,,
6544d818cdf50c46906dbf07,SCR,2024-06-25_12h59.45.816,LearnStrategy,2023.2.3,Win32,60.97560976,3,1,16,0.527183625,0.288085592,1,0,0,2.91,Diorite_13,3,13,5,8,2.91,8,15,0.110757706,-0.397628871,1,0,0,2.7999,Peridotite_rect,7,2.8,0,15,0,15,0,1,,,,,,,,,,,,,
6544d818cdf50c46906dbf07,SCR,2024-06-25_12h59.45.816,LearnStrategy,2023.2.3,Win32,60.97560976,3,2,1,,,,,,,,3,14,,,,,,,,,,,,,8,9.172,0,,,,,,0.372643203,-0.391151138,1,0,0,9.1718,Pumice_rect,0,0,0,0,1,
6544d818cdf50c46906dbf07,SCR,2024-06-25_12h59.45.816,LearnStrategy,2023.2.3,Win32,60.97560976,3,2,2,,,,,,,,3,06,,,,,,,,,,,,,3,5.439,1,,,,,,0.157027197,-0.254193189,1,0,0,5.4387,Diorite_rect,1,0,1,0,1,
6544d818cdf50c46906dbf07,SCR,2024-06-25_12h59.45.816,LearnStrategy,2023.2.3,Win32,60.97560976,3,2,3,,,,,,,,2,14,,,,,,,,,,,,,2,2.806,1,,,,,,-0.071544224,-0.24493942,1,0,0,2.8056,Basalt_rect,2,0,2,0,1,
6544d818cdf50c46906dbf07,SCR,2024-06-25_12h59.45.816,LearnStrategy,2023.2.3,Win32,60.97560976,3,2,4,,,,,,,,2,09,,,,,,,,,,,,,1,2.035,0,,,,,,-0.404684782,-0.25511865,1,0,0,2.0353,Andesite_rect,3,0,3,0,1,
6544d818cdf50c46906dbf07,SCR,2024-06-25_12h59.45.816,LearnStrategy,2023.2.3,Win32,60.97560976,3,2,5,,,,,,,,6,06,,,,,,,,,,,,,2,3.4,0,,,,,,-0.051185515,-0.23938695,1,0,0,3.3998,Basalt_rect,4,0,4,0,1,
6544d818cdf50c46906dbf07,SCR,2024-06-25_12h59.45.816,LearnStrategy,2023.2.3,Win32,60.97560976,3,2,6,,,,,,,,5,04,,,,,,,,,,,,,6,2.051,0,,,,,,-0.108559847,-0.396703311,1,0,0,2.0512,Pegmatite_rect,5,0,5,0,1,
6544d818cdf50c46906dbf07,SCR,2024-06-25_12h59.45.816,LearnStrategy,2023.2.3,Win32,60.97560976,3,2,7,,,,,,,,8,14,,,,,,,,,,,,,3,1.769,0,,,,,,0.107056158,-0.24493942,1,0,0,1.7693,Diorite_rect,6,0,6,0,1,
6544d818cdf50c46906dbf07,SCR,2024-06-25_12h59.45.816,LearnStrategy,2023.2.3,Win32,60.97560976,3,2,8,,,,,,,,7,02,,,,,,,,,,,,,7,2.249,1,,,,,,0.127414719,-0.387449393,1,0,0,2.2495,Peridotite_rect,7,0,7,0,1,
6544d818cdf50c46906dbf07,SCR,2024-06-25_12h59.45.816,LearnStrategy,2023.2.3,Win32,60.97560976,3,2,9,,,,,,,,7,13,,,,,,,,,,,,,8,3.059,0,,,,,,0.350433819,-0.380971858,1,0,0,3.0588,Pumice_rect,8,0,8,0,1,
6544d818cdf50c46906dbf07,SCR,2024-06-25_12h59.45.816,LearnStrategy,2023.2.3,Win32,60.97560976,3,2,10,,,,,,,,5,09,,,,,,,,,,,,,6,2.076,0,,,,,,-0.08449964,-0.395778048,1,0,0,2.076,Pegmatite_rect,9,0,9,0,1,
6544d818cdf50c46906dbf07,SCR,2024-06-25_12h59.45.816,LearnStrategy,2023.2.3,Win32,60.97560976,3,2,11,,,,,,,,6,11,,,,,,,,,,,,,4,3.456,0,,,,,,0.357837211,-0.244013909,1,0,0,3.4557,Gabbro_rect,10,0,10,0,1,
6544d818cdf50c46906dbf07,SCR,2024-06-25_12h59.45.816,LearnStrategy,2023.2.3,Win32,60.97560976,3,2,12,,,,,,,,4,08,,,,,,,,,,,,,1,2.682,0,,,,,,-0.370445344,-0.256969375,1,0,0,2.6816,Andesite_rect,11,0,11,0,1,
6544d818cdf50c46906dbf07,SCR,2024-06-25_12h59.45.816,LearnStrategy,2023.2.3,Win32,60.97560976,3,2,13,,,,,,,,1,10,,,,,,,,,,,,,5,3.848,0,,,,,,-0.392654629,-0.395778048,1,0,0,3.8485,Obsidian_rect,12,0,12,0,1,
6544d818cdf50c46906dbf07,SCR,2024-06-25_12h59.45.816,LearnStrategy,2023.2.3,Win32,60.97560976,3,2,14,,,,,,,,4,14,,,,,,,,,,,,,2,2.86,0,,,,,,-0.05951417,-0.247715605,1,0,0,2.8597,Basalt_rect,13,0,13,0,1,
6544d818cdf50c46906dbf07,SCR,2024-06-25_12h59.45.816,LearnStrategy,2023.2.3,Win32,60.97560976,3,2,15,,,,,,,,8,04,,,,,,,,,,,,,3,4.009,0,,,,,,0.068189762,-0.237536176,1,0,0,4.009,Diorite_rect,14,0,14,0,1,
6544d818cdf50c46906dbf07,SCR,2024-06-25_12h59.45.816,LearnStrategy,2023.2.3,Win32,60.97560976,3,2,16,,,,,,,,1,16,,,,,,,,,,,,,1,2.623,1,,,,,,-0.351012146,-0.262521795,1,0,0,2.623,Andesite_rect,15,0,15,0,1,
6544d818cdf50c46906dbf07,SCR,2024-06-25_12h59.45.816,LearnStrategy,2023.2.3,Win32,60.97560976,4,1,1,-0.093753509,-0.103354561,1,0,0,4.1934,Obsidian_10,5,10,3,4,4.193,4,03,-0.07894727,-0.405957229,1,0,0,9.1776,Pegmatite_rect,6,9.178,0,0,0,0,0,1,,,,,,,,,,,,,
6544d818cdf50c46906dbf07,SCR,2024-06-25_12h59.45.816,LearnStrategy,2023.2.3,Win32,60.97560976,4,1,2,0.10242915,-0.095026055,1,0,0,2.145,Pumice_06,8,06,3,5,2.145,7,06,-0.33805668,-0.238461637,1,0,0,2.2319,Andesite_rect,1,2.232,0,1,0,1,0,1,,,,,,,,,,,,,
6544d818cdf50c46906dbf07,SCR,2024-06-25_12h59.45.816,LearnStrategy,2023.2.3,Win32,60.97560976,4,1,3,0.365240207,-0.103354561,1,0,0,2.0946,Peridotite_04,7,04,3,7,2.095,1,04,0.116310175,-0.417062069,1,0,0,3.1552,Peridotite_rect,7,3.155,1,2,0,2,0,1,,,,,,,,,,,,,
6544d818cdf50c46906dbf07,SCR,2024-06-25_12h59.45.816,LearnStrategy,2023.2.3,Win32,60.97560976,4,1,4,0.386524031,-0.09780229,1,0,0,2.0132,Peridotite_04,7,04,3,7,2.013,2,12,0.065413576,-0.249566379,1,0,0,2.1875,Diorite_rect,3,2.188,0,3,0,3,0,1,,,,,,,,,,,,,
6544d818cdf50c46906dbf07,SCR,2024-06-25_12h59.45.816,LearnStrategy,2023.2.3,Win32,60.97560976,4,1,5,-0.102081966,0.105783612,1,0,0,1.6956,Pumice_16,8,16,4,4,1.696,8,06,-0.145575371,-0.249566379,1,0,0,2.5352,Basalt_rect,2,2.535,0,4,0,4,0,1,,,,,,,,,,,,,
6544d818cdf50c46906dbf07,SCR,2024-06-25_12h59.45.816,LearnStrategy,2023.2.3,Win32,60.97560976,4,1,6,-0.38802767,-0.083921363,1,0,0,5.226,Peridotite_07,7,07,3,2,5.226,1,04,0.113533891,-0.389300315,1,0,0,4.0025,Peridotite_rect,7,4.003,1,5,0,5,0,1,,,,,,,,,,,,,
6544d818cdf50c46906dbf07,SCR,2024-06-25_12h59.45.816,LearnStrategy,2023.2.3,Win32,60.97560976,4,1,7,-0.542567944,-0.085772137,1,0,0,3.0619,Andesite_05,1,05,3,1,3.062,5,12,0.392076401,-0.395778048,1,0,0,4.1072,Pumice_rect,8,4.107,0,6,0,6,0,1,,,,,,,,,,,,,
6544d818cdf50c46906dbf07,SCR,2024-06-25_12h59.45.816,LearnStrategy,2023.2.3,Win32,60.97560976,4,1,8,-0.409311741,-0.096876829,1,0,0,1.6269,Peridotite_07,7,07,3,2,1.627,3,16,-0.352862919,-0.249566379,1,0,0,1.9919,Andesite_rect,1,1.992,0,7,0,7,0,1,,,,,,,,,,,,,
6544d818cdf50c46906dbf07,SCR,2024-06-25_12h59.45.816,LearnStrategy,2023.2.3,Win32,60.97560976,4,1,9,-0.210352798,-0.088548322,1,0,0,2.3618,Basalt_16,2,16,3,3,2.362,3,08,-0.067842578,-0.264372618,1,0,0,5.1317,Basalt_rect,2,5.132,1,8,0,8,0,1,,,,,,,,,,,,,
6544d818cdf50c46906dbf07,SCR,2024-06-25_12h59.45.816,LearnStrategy,2023.2.3,Win32,60.97560976,4,1,10,-0.068767989,-0.096876829,1,0,0,2.6118,Obsidian_10,5,10,3,4,2.612,7,14,-0.091902735,-0.396703311,1,0,0,3.2191,Pegmatite_rect,6,3.219,0,9,0,9,0,1,,,,,,,,,,,,,
6544d818cdf50c46906dbf07,SCR,2024-06-25_12h59.45.816,LearnStrategy,2023.2.3,Win32,60.97560976,4,1,11,0.099653162,-0.08299605,1,0,0,2.8932,Pumice_06,8,06,3,5,2.893,6,08,0.101503788,-0.253267877,1,0,0,2.7004,Diorite_rect,3,2.7,0,10,0,10,0,1,,,,,,,,,,,,,
6544d818cdf50c46906dbf07,SCR,2024-06-25_12h59.45.816,LearnStrategy,2023.2.3,Win32,60.97560976,4,1,12,0.21440143,-0.093175331,1,0,0,1.9458,Pegmatite_07,6,07,3,6,1.946,6,03,-0.090051961,-0.381897121,1,0,0,3.6374,Pegmatite_rect,6,3.637,1,11,0,11,0,1,,,,,,,,,,,,,
6544d818cdf50c46906dbf07,SCR,2024-06-25_12h59.45.816,LearnStrategy,2023.2.3,Win32,60.97560976,4,1,13,0.377270409,-0.120936986,1,0,0,2.2786,Peridotite_04,7,04,3,7,2.279,4,16,0.121862348,-0.389300315,1,0,0,2.0714,Peridotite_rect,7,2.071,1,12,0,12,0,1,,,,,,,,,,,,,
6544d818cdf50c46906dbf07,SCR,2024-06-25_12h59.45.816,LearnStrategy,2023.2.3,Win32,60.97560976,4,1,14,0.5641991,-0.091324557,1,0,0,1.9964,Obsidian_06,5,06,3,8,1.996,5,07,-0.152978516,-0.396703311,1,0,0,2.5252,Pegmatite_rect,6,2.525,0,13,0,13,0,1,,,,,,,,,,,,,
6544d818cdf50c46906dbf07,SCR,2024-06-25_12h59.45.816,LearnStrategy,2023.2.3,Win32,60.97560976,4,1,15,-0.556448772,-0.277328034,1,0,0,2.561,Gabbro_15,4,15,2,1,2.561,2,02,-0.38802767,-0.231058444,1,0,0,2.0722,Andesite_rect,1,2.072,0,14,0,14,0,1,,,,,,,,,,,,,
6544d818cdf50c46906dbf07,SCR,2024-06-25_12h59.45.816,LearnStrategy,2023.2.3,Win32,60.97560976,4,1,16,-0.381549937,-0.227356995,1,0,0,1.9634,Diorite_08,3,08,2,2,1.963,8,15,0.137593999,-0.241237724,1,0,0,3.7598,Diorite_rect,3,3.76,1,15,0,15,0,1,,,,,,,,,,,,,
6544d818cdf50c46906dbf07,SCR,2024-06-25_12h59.45.816,LearnStrategy,2023.2.3,Win32,60.97560976,4,2,1,,,,,,,,1,11,,,,,,,,,,,,,1,3.828,1,,,,,,-0.375072204,-0.251417103,1,0,0,3.8275,Andesite_rect,0,0,0,0,1,
6544d818cdf50c46906dbf07,SCR,2024-06-25_12h59.45.816,LearnStrategy,2023.2.3,Win32,60.97560976,4,2,2,,,,,,,,6,13,,,,,,,,,,,,,2,4.256,0,,,,,,-0.112261395,-0.241237724,1,0,0,4.2563,Basalt_rect,1,0,1,0,1,
6544d818cdf50c46906dbf07,SCR,2024-06-25_12h59.45.816,LearnStrategy,2023.2.3,Win32,60.97560976,4,2,3,,,,,,,,5,04,,,,,,,,,,,,,5,3.771,1,,,,,,-0.390803905,-0.394852587,1,0,0,3.7705,Obsidian_rect,2,0,2,0,1,
6544d818cdf50c46906dbf07,SCR,2024-06-25_12h59.45.816,LearnStrategy,2023.2.3,Win32,60.97560976,4,2,4,,,,,,,,8,13,,,,,,,,,,,,,3,2.462,0,,,,,,0.073742231,-0.245864732,1,0,0,2.4618,Diorite_rect,3,0,3,0,1,
6544d818cdf50c46906dbf07,SCR,2024-06-25_12h59.45.816,LearnStrategy,2023.2.3,Win32,60.97560976,4,2,5,,,,,,,,2,04,,,,,,,,,,,,,2,2.899,1,,,,,,-0.096529694,-0.243088596,1,0,0,2.8992,Basalt_rect,4,0,4,0,1,
6544d818cdf50c46906dbf07,SCR,2024-06-25_12h59.45.816,LearnStrategy,2023.2.3,Win32,60.97560976,4,2,6,,,,,,,,4,08,,,,,,,,,,,,,1,2.501,0,,,,,,-0.369519933,-0.241237724,1,0,0,2.5013,Andesite_rect,5,0,5,0,1,
6544d818cdf50c46906dbf07,SCR,2024-06-25_12h59.45.816,LearnStrategy,2023.2.3,Win32,60.97560976,4,2,7,,,,,,,,3,02,,,,,,,,,,,,,2,1.36,0,,,,,,-0.210352798,-0.23013318,1,0,0,1.3602,Basalt_rect,6,0,6,0,1,
6544d818cdf50c46906dbf07,SCR,2024-06-25_12h59.45.816,LearnStrategy,2023.2.3,Win32,60.97560976,4,2,8,,,,,,,,5,14,,,,,,,,,,,,,5,6.635,1,,,,,,-0.330653536,-0.399479595,1,0,0,6.6349,Obsidian_rect,7,0,7,0,1,
6544d818cdf50c46906dbf07,SCR,2024-06-25_12h59.45.816,LearnStrategy,2023.2.3,Win32,60.97560976,4,2,9,,,,,,,,2,06,,,,,,,,,,,,,1,2.31,0,,,,,,-0.345459775,-0.23938695,1,0,0,2.3098,Andesite_rect,8,0,8,0,1,
6544d818cdf50c46906dbf07,SCR,2024-06-25_12h59.45.816,LearnStrategy,2023.2.3,Win32,60.97560976,4,2,10,,,,,,,,8,05,,,,,,,,,,,,,3,2.656,0,,,,,,0.082995951,-0.242163185,1,0,0,2.6564,Diorite_rect,9,0,9,0,1,
6544d818cdf50c46906dbf07,SCR,2024-06-25_12h59.45.816,LearnStrategy,2023.2.3,Win32,60.97560976,4,2,11,,,,,,,,3,09,,,,,,,,,,,,,1,5.581,0,,,,,,-0.346385187,-0.248640967,1,0,0,5.5813,Andesite_rect,10,0,10,0,1,
6544d818cdf50c46906dbf07,SCR,2024-06-25_12h59.45.816,LearnStrategy,2023.2.3,Win32,60.97560976,4,2,12,,,,,,,,1,03,,,,,,,,,,,,,8,5.449,0,,,,,,0.373568664,-0.392076401,1,0,0,5.4489,Pumice_rect,11,0,11,0,1,
6544d818cdf50c46906dbf07,SCR,2024-06-25_12h59.45.816,LearnStrategy,2023.2.3,Win32,60.97560976,4,2,13,,,,,,,,7,13,,,,,,,,,,,,,7,4.014,1,,,,,,0.150549465,-0.410584336,1,0,0,4.0135,Peridotite_rect,12,0,12,0,1,
6544d818cdf50c46906dbf07,SCR,2024-06-25_12h59.45.816,LearnStrategy,2023.2.3,Win32,60.97560976,4,2,14,,,,,,,,7,02,,,,,,,,,,,,,5,3.948,0,,,,,,-0.382475398,-0.386524031,1,0,0,3.9481,Obsidian_rect,13,0,13,0,1,
6544d818cdf50c46906dbf07,SCR,2024-06-25_12h59.45.816,LearnStrategy,2023.2.3,Win32,60.97560976,4,2,15,,,,,,,,6,11,,,,,,,,,,,,,7,3.864,0,,,,,,0.09780224,-0.388374854,1,0,0,3.8643,Peridotite_rect,14,0,14,0,1,
6544d818cdf50c46906dbf07,SCR,2024-06-25_12h59.45.816,LearnStrategy,2023.2.3,Win32,60.97560976,4,2,16,,,,,,,,4,13,,,,,,,,,,,,,2,5.542,0,,,,,,-0.092828196,-0.249566379,1,0,0,5.5422,Basalt_rect,15,0,15,0,1,
6544d818cdf50c46906dbf07,SCR,2024-06-25_12h59.45.816,LearnStrategy,2023.2.3,Win32,60.97560976,5,1,1,0.070966046,-0.093175331,1,0,0,5.2115,Pumice_06,8,06,3,5,5.211,4,10,0.130190904,-0.234759991,1,0,0,2.0431,Diorite_rect,3,2.043,0,0,0,0,0,1,,,,,,,,,,,,,
6544d818cdf50c46906dbf07,SCR,2024-06-25_12h59.45.816,LearnStrategy,2023.2.3,Win32,60.97560976,5,1,2,0.248641016,-0.126489307,1,0,0,1.8456,Pegmatite_07,6,07,3,6,1.846,8,10,0.175535034,-0.410584336,1,0,0,3.4939,Peridotite_rect,7,3.494,0,1,0,1,0,1,,,,,,,,,,,,,
6544d818cdf50c46906dbf07,SCR,2024-06-25_12h59.45.816,LearnStrategy,2023.2.3,Win32,60.97560976,5,1,3,0.383747845,-0.10798152,1,0,0,2.4616,Peridotite_04,7,04,3,7,2.462,4,15,-0.350086734,-0.389300315,1,0,0,8.5765,Obsidian_rect,5,8.577,0,2,0,2,0,1,,,,,,,,,,,,,
6544d818cdf50c46906dbf07,SCR,2024-06-25_12h59.45.816,LearnStrategy,2023.2.3,Win32,60.97560976,5,1,4,0.064488313,-0.247715605,1,0,0,2.3455,Peridotite_06,7,06,2,5,2.345,5,07,-0.230711309,-0.405031867,1,0,0,4.0784,Pegmatite_rect,6,4.078,0,3,0,3,0,1,,,,,,,,,,,,,
6544d818cdf50c46906dbf07,SCR,2024-06-25_12h59.45.816,LearnStrategy,2023.2.3,Win32,60.97560976,5,1,5,0.519780234,-0.237536176,1,0,0,4.6262,Pegmatite_09,6,09,2,8,4.626,3,13,0.173684211,-0.403181142,1,0,0,3.3445,Peridotite_rect,7,3.345,0,4,0,4,0,1,,,,,,,,,,,,,
6544d818cdf50c46906dbf07,SCR,2024-06-25_12h59.45.816,LearnStrategy,2023.2.3,Win32,60.97560976,5,1,6,-0.400983136,-0.244013909,1,0,0,2.6443,Diorite_08,3,08,2,2,2.644,4,10,0.115384615,-0.23938695,1,0,0,1.9174,Diorite_rect,3,1.917,1,5,0,5,0,1,,,,,,,,,,,,,
6544d818cdf50c46906dbf07,SCR,2024-06-25_12h59.45.816,LearnStrategy,2023.2.3,Win32,60.97560976,5,1,7,-0.23163677,-0.233834678,1,0,0,1.8446,Peridotite_14,7,14,2,3,1.845,7,07,0.348583194,-0.264372618,1,0,0,3.1958,Gabbro_rect,4,3.196,0,6,0,6,0,1,,,,,,,,,,,,,
6544d818cdf50c46906dbf07,SCR,2024-06-25_12h59.45.816,LearnStrategy,2023.2.3,Win32,60.97560976,5,1,8,-0.065991755,-0.228282406,1,0,0,2.6289,Obsidian_07,5,07,2,4,2.629,1,09,0.107056158,-0.400405056,1,0,0,4.0268,Peridotite_rect,7,4.027,0,7,0,7,0,1,,,,,,,,,,,,,
6544d818cdf50c46906dbf07,SCR,2024-06-25_12h59.45.816,LearnStrategy,2023.2.3,Win32,60.97560976,5,1,9,0.095951417,-0.246790193,1,0,0,1.8476,Peridotite_06,7,06,2,5,1.848,8,16,-0.105783662,-0.238461637,1,0,0,2.6664,Basalt_rect,2,2.666,0,8,0,8,0,1,,,,,,,,,,,,,
6544d818cdf50c46906dbf07,SCR,2024-06-25_12h59.45.816,LearnStrategy,2023.2.3,Win32,60.97560976,5,1,10,0.081145227,-0.235685452,1,0,0,1.6138,Peridotite_06,7,06,2,5,1.614,6,16,0.119086361,-0.403181142,1,0,0,2.9865,Peridotite_rect,7,2.986,1,9,0,9,0,1,,,,,,,,,,,,,
6544d818cdf50c46906dbf07,SCR,2024-06-25_12h59.45.816,LearnStrategy,2023.2.3,Win32,60.97560976,5,1,11,0.243088547,-0.246790193,1,0,0,2.2945,Andesite_09,1,09,2,6,2.294,2,12,0.151475025,-0.243088596,1,0,0,3.7518,Diorite_rect,3,3.752,0,10,0,10,0,1,,,,,,,,,,,,,
6544d818cdf50c46906dbf07,SCR,2024-06-25_12h59.45.816,LearnStrategy,2023.2.3,Win32,60.97560976,5,1,12,0.389300315,-0.252342416,1,0,0,2.695,Gabbro_03,4,03,2,7,2.695,3,16,-0.413013288,-0.266223392,1,0,0,3.4805,Andesite_rect,1,3.481,0,11,0,11,0,1,,,,,,,,,,,,,
6544d818cdf50c46906dbf07,SCR,2024-06-25_12h59.45.816,LearnStrategy,2023.2.3,Win32,60.97560976,5,1,13,0.222730085,-0.24493942,1,0,0,5.9762,Andesite_09,1,09,2,6,5.976,7,06,0.080219964,-0.245864732,1,0,0,3.386,Diorite_rect,3,3.386,0,12,0,12,0,1,,,,,,,,,,,,,
6544d818cdf50c46906dbf07,SCR,2024-06-25_12h59.45.816,LearnStrategy,2023.2.3,Win32,60.97560976,5,1,14,0.574378282,-0.231058444,1,0,0,5.343,Pegmatite_09,6,09,2,8,5.343,2,10,-0.076171183,-0.390225578,1,0,0,2.3975,Pegmatite_rect,6,2.398,1,13,0,13,0,1,,,,,,,,,,,,,
6544d818cdf50c46906dbf07,SCR,2024-06-25_12h59.45.816,LearnStrategy,2023.2.3,Win32,60.97560976,5,1,15,0.238461736,-0.245864732,1,0,0,2.1454,Andesite_09,1,09,2,6,2.145,6,05,-0.457432006,-0.263447107,1,0,0,4.6014,Andesite_rect,1,4.601,1,14,0,14,0,1,,,,,,,,,,,,,
6544d818cdf50c46906dbf07,SCR,2024-06-25_12h59.45.816,LearnStrategy,2023.2.3,Win32,60.97560976,5,1,16,0.574378282,-0.267148803,1,0,0,2.5287,Pegmatite_09,6,09,2,8,2.529,1,09,-0.06969345,-0.387449393,1,0,0,2.4276,Pegmatite_rect,6,2.428,1,15,0,15,0,1,,,,,,,,,,,,,
6544d818cdf50c46906dbf07,SCR,2024-06-25_12h59.45.816,LearnStrategy,2023.2.3,Win32,60.97560976,5,2,1,,,,,,,,8,02,,,,,,,,,,,,,3,3.097,0,,,,,,0.129265641,-0.256044062,1,0,0,3.0975,Diorite_rect,0,0,0,0,1,
6544d818cdf50c46906dbf07,SCR,2024-06-25_12h59.45.816,LearnStrategy,2023.2.3,Win32,60.97560976,5,2,2,,,,,,,,6,06,,,,,,,,,,,,,6,2.134,1,,,,,,-0.136321552,-0.393001763,1,0,0,2.1336,Pegmatite_rect,1,0,1,0,1,
6544d818cdf50c46906dbf07,SCR,2024-06-25_12h59.45.816,LearnStrategy,2023.2.3,Win32,60.97560976,5,2,3,,,,,,,,1,10,,,,,,,,,,,,,5,4.453,0,,,,,,-0.388953131,-0.404106603,1,0,0,4.4532,Obsidian_rect,2,0,2,0,1,
6544d818cdf50c46906dbf07,SCR,2024-06-25_12h59.45.816,LearnStrategy,2023.2.3,Win32,60.97560976,5,2,4,,,,,,,,5,11,,,,,,,,,,,,,5,3.764,1,,,,,,-0.388953131,-0.404106603,1,0,0,3.7642,Obsidian_rect,3,0,3,0,1,
6544d818cdf50c46906dbf07,SCR,2024-06-25_12h59.45.816,LearnStrategy,2023.2.3,Win32,60.97560976,5,2,5,,,,,,,,2,05,,,,,,,,,,,,,2,7.559,1,,,,,,-0.106708974,-0.229207769,1,0,0,7.5588,Basalt_rect,4,0,4,0,1,
6544d818cdf50c46906dbf07,SCR,2024-06-25_12h59.45.816,LearnStrategy,2023.2.3,Win32,60.97560976,5,2,6,,,,,,,,2,11,,,,,,,,,,,,,1,2.245,0,,,,,,-0.351012146,-0.249566379,1,0,0,2.2454,Andesite_rect,5,0,5,0,1,
6544d818cdf50c46906dbf07,SCR,2024-06-25_12h59.45.816,LearnStrategy,2023.2.3,Win32,60.97560976,5,2,7,,,,,,,,1,16,,,,,,,,,,,,,1,1.601,1,,,,,,-0.321399568,-0.242163185,1,0,0,1.6015,Andesite_rect,6,0,6,0,1,
6544d818cdf50c46906dbf07,SCR,2024-06-25_12h59.45.816,LearnStrategy,2023.2.3,Win32,60.97560976,5,2,8,,,,,,,,4,11,,,,,,,,,,,,,3,2.625,0,,,,,,0.109832442,-0.23938695,1,0,0,2.6255,Diorite_rect,7,0,7,0,1,
6544d818cdf50c46906dbf07,SCR,2024-06-25_12h59.45.816,LearnStrategy,2023.2.3,Win32,60.97560976,5,2,9,,,,,,,,5,09,,,,,,,,,,,,,5,3.075,1,,,,,,-0.38340081,-0.405031867,1,0,0,3.0745,Obsidian_rect,8,0,8,0,1,
6544d818cdf50c46906dbf07,SCR,2024-06-25_12h59.45.816,LearnStrategy,2023.2.3,Win32,60.97560976,5,2,10,,,,,,,,3,11,,,,,,,,,,,,,1,2.112,0,,,,,,-0.331578849,-0.265297931,1,0,0,2.1117,Andesite_rect,9,0,9,0,1,
6544d818cdf50c46906dbf07,SCR,2024-06-25_12h59.45.816,LearnStrategy,2023.2.3,Win32,60.97560976,5,2,11,,,,,,,,4,01,,,,,,,,,,,,,1,1.388,0,,,,,,-0.331578849,-0.265297931,1,0,0,1.388,Andesite_rect,10,0,10,0,1,
6544d818cdf50c46906dbf07,SCR,2024-06-25_12h59.45.816,LearnStrategy,2023.2.3,Win32,60.97560976,5,2,12,,,,,,,,7,12,,,,,,,,,,,,,7,2.66,1,,,,,,0.096876977,-0.4115096,1,0,0,2.6603,Peridotite_rect,11,0,11,0,1,
6544d818cdf50c46906dbf07,SCR,2024-06-25_12h59.45.816,LearnStrategy,2023.2.3,Win32,60.97560976,5,2,13,,,,,,,,3,06,,,,,,,,,,,,,3,2.875,1,,,,,,0.10798152,-0.242163185,1,0,0,2.8753,Diorite_rect,12,0,12,0,1,
6544d818cdf50c46906dbf07,SCR,2024-06-25_12h59.45.816,LearnStrategy,2023.2.3,Win32,60.97560976,5,2,14,,,,,,,,6,15,,,,,,,,,,,,,6,1.831,1,,,,,,-0.092828196,-0.404106603,1,0,0,1.8307,Pegmatite_rect,13,0,13,0,1,
6544d818cdf50c46906dbf07,SCR,2024-06-25_12h59.45.816,LearnStrategy,2023.2.3,Win32,60.97560976,5,2,15,,,,,,,,7,15,,,,,,,,,,,,,7,2.511,1,,,,,,0.113533891,-0.421688979,1,0,0,2.5114,Peridotite_rect,14,0,14,0,1,
6544d818cdf50c46906dbf07,SCR,2024-06-25_12h59.45.816,LearnStrategy,2023.2.3,Win32,60.97560976,5,2,16,,,,,,,,8,08,,,,,,,,,,,,,3,2.623,0,,,,,,0.132041826,-0.241237724,1,0,0,2.6234,Diorite_rect,15,0,15,0,1,
6544d818cdf50c46906dbf07,SCR,2024-06-25_12h59.45.816,LearnStrategy,2023.2.3,Win32,60.97560976,6,1,1,-0.53794096,0.402833996,1,0,0,4.5445,Pumice_15,8,15,6,1,4.544,5,16,0.155176572,-0.251417103,1,0,0,2.7339,Diorite_rect,3,2.734,0,0,0,0,0,1,,,,,,,,,,,,,
6544d818cdf50c46906dbf07,SCR,2024-06-25_12h59.45.816,LearnStrategy,2023.2.3,Win32,60.97560976,6,1,2,-0.541642557,0.381550024,1,0,0,1.7813,Pumice_15,8,15,6,1,1.781,6,07,0.417062069,-0.421688979,1,0,0,3.1565,Pumice_rect,8,3.156,1,1,0,1,0,1,,,,,,,,,,,,,
6544d818cdf50c46906dbf07,SCR,2024-06-25_12h59.45.816,LearnStrategy,2023.2.3,Win32,60.97560976,6,1,3,-0.243666775,0.406535549,1,0,0,2.212,Diorite_15,3,15,6,3,2.212,8,03,-0.20109883,-0.256969375,1,0,0,5.8167,Basalt_rect,2,5.817,0,2,0,2,0,1,,,,,,,,,,,,,
6544d818cdf50c46906dbf07,SCR,2024-06-25_12h59.45.816,LearnStrategy,2023.2.3,Win32,60.97560976,6,1,4,0.241237724,-0.105205335,1,0,0,1.5968,Pegmatite_07,6,07,3,6,1.597,8,06,-0.089126649,-0.389300315,1,0,0,2.6303,Pegmatite_rect,6,2.63,1,3,0,3,0,1,,,,,,,,,,,,,
6544d818cdf50c46906dbf07,SCR,2024-06-25_12h59.45.816,LearnStrategy,2023.2.3,Win32,60.97560976,6,1,5,0.254193189,0.402833996,1,0,0,2.7787,Andesite_02,1,02,6,6,2.779,2,16,0.093175429,-0.243088596,1,0,0,2.8877,Diorite_rect,3,2.888,0,4,0,4,0,1,,,,,,,,,,,,,
6544d818cdf50c46906dbf07,SCR,2024-06-25_12h59.45.816,LearnStrategy,2023.2.3,Win32,60.97560976,6,1,6,0.38744959,0.091902785,1,0,0,2.0111,Basalt_01,2,01,4,7,2.011,8,15,0.36616547,-0.235685452,1,0,0,4.5701,Gabbro_rect,4,4.57,0,5,0,5,0,1,,,,,,,,,,,,,
6544d818cdf50c46906dbf07,SCR,2024-06-25_12h59.45.816,LearnStrategy,2023.2.3,Win32,60.97560976,6,1,7,0.389300315,-0.095951516,1,0,0,1.9802,Peridotite_04,7,04,3,7,1.98,2,02,-0.10948516,-0.410584336,1,0,0,5.7479,Pegmatite_rect,6,5.748,0,6,0,6,0,1,,,,,,,,,,,,,
6544d818cdf50c46906dbf07,SCR,2024-06-25_12h59.45.816,LearnStrategy,2023.2.3,Win32,60.97560976,6,1,8,0.405957229,-0.27547726,1,0,0,3.5458,Gabbro_03,4,03,2,7,3.546,3,10,-0.128918358,-0.26992484,1,0,0,5.9477,Basalt_rect,2,5.948,0,7,0,7,0,1,,,,,,,,,,,,,
6544d818cdf50c46906dbf07,SCR,2024-06-25_12h59.45.816,LearnStrategy,2023.2.3,Win32,60.97560976,6,1,9,0.561422816,-0.4115096,1,0,0,3.5609,Andesite_06,1,06,1,8,3.561,1,04,-0.351012146,-0.262521795,1,0,0,5.1357,Andesite_rect,1,5.136,1,8,0,8,0,1,,,,,,,,,,,,,
6544d818cdf50c46906dbf07,SCR,2024-06-25_12h59.45.816,LearnStrategy,2023.2.3,Win32,60.97560976,6,1,10,-0.238114454,0.242741462,1,0,0,3.077,Gabbro_05,4,05,5,3,3.077,7,10,-0.086350463,-0.392076401,1,0,0,2.7885,Pegmatite_rect,6,2.789,0,9,0,9,0,1,,,,,,,,,,,,,
6544d818cdf50c46906dbf07,SCR,2024-06-25_12h59.45.816,LearnStrategy,2023.2.3,Win32,60.97560976,6,1,11,0.061712029,0.252920718,1,0,0,2.0127,Basalt_12,2,12,5,5,2.013,6,03,0.068189762,-0.24493942,1,0,0,2.0765,Diorite_rect,3,2.076,0,10,0,10,0,1,,,,,,,,,,,,,
6544d818cdf50c46906dbf07,SCR,2024-06-25_12h59.45.816,LearnStrategy,2023.2.3,Win32,60.97560976,6,1,12,0.253267827,-0.258820148,1,0,0,2.9297,Andesite_09,1,09,2,6,2.93,3,15,0.041353567,-0.253267877,1,0,0,2.3631,Diorite_rect,3,2.363,0,11,0,11,0,1,,,,,,,,,,,,,
6544d818cdf50c46906dbf07,SCR,2024-06-25_12h59.45.816,LearnStrategy,2023.2.3,Win32,60.97560976,6,1,13,-0.23163677,0.097455106,1,0,0,2.0919,Pumice_09,8,09,4,3,2.092,4,09,0.099653162,-0.267148803,1,0,0,2.3803,Diorite_rect,3,2.38,0,12,0,12,0,1,,,,,,,,,,,,,
6544d818cdf50c46906dbf07,SCR,2024-06-25_12h59.45.816,LearnStrategy,2023.2.3,Win32,60.97560976,6,1,14,-0.077096496,0.117813691,1,0,0,1.9278,Pumice_16,8,16,4,4,1.928,1,06,-0.141873774,-0.246790193,1,0,0,2.507,Basalt_rect,2,2.507,0,13,0,13,0,1,,,,,,,,,,,,,
6544d818cdf50c46906dbf07,SCR,2024-06-25_12h59.45.816,LearnStrategy,2023.2.3,Win32,60.97560976,6,1,15,-0.214979658,0.385251583,1,0,0,2.3114,Diorite_15,3,15,6,3,2.311,4,16,-0.358415241,-0.253267877,1,0,0,3.0135,Andesite_rect,1,3.014,0,14,0,14,0,1,,,,,,,,,,,,,
6544d818cdf50c46906dbf07,SCR,2024-06-25_12h59.45.816,LearnStrategy,2023.2.3,Win32,60.97560976,6,1,16,0.068189762,0.072469636,1,0,0,1.928,Peridotite_10,7,10,4,5,1.928,4,16,0.101503788,-0.390225578,1,0,0,2.5982,Peridotite_rect,7,2.598,1,15,0,15,0,1,,,,,,,,,,,,,
6544d818cdf50c46906dbf07,SCR,2024-06-25_12h59.45.816,LearnStrategy,2023.2.3,Win32,60.97560976,6,2,1,,,,,,,,7,05,,,,,,,,,,,,,7,5.308,1,,,,,,0.148698839,-0.405957229,1,0,0,5.3077,Peridotite_rect,0,0,0,0,1,
6544d818cdf50c46906dbf07,SCR,2024-06-25_12h59.45.816,LearnStrategy,2023.2.3,Win32,60.97560976,6,2,2,,,,,,,,5,05,,,,,,,,,,,,,5,3.69,1,,,,,,-0.351012146,-0.397628871,1,0,0,3.6904,Obsidian_rect,1,0,1,0,1,
6544d818cdf50c46906dbf07,SCR,2024-06-25_12h59.45.816,LearnStrategy,2023.2.3,Win32,60.97560976,6,2,3,,,,,,,,7,08,,,,,,,,,,,,,2,2.71,0,,,,,,-0.17056099,-0.248640967,1,0,0,2.7097,Basalt_rect,2,0,2,0,1,
6544d818cdf50c46906dbf07,SCR,2024-06-25_12h59.45.816,LearnStrategy,2023.2.3,Win32,60.97560976,6,2,4,,,,,,,,1,01,,,,,,,,,,,,,2,3.685,0,,,,,,-0.071544224,-0.252342416,1,0,0,3.6849,Basalt_rect,3,0,3,0,1,
6544d818cdf50c46906dbf07,SCR,2024-06-25_12h59.45.816,LearnStrategy,2023.2.3,Win32,60.97560976,6,2,5,,,,,,,,4,14,,,,,,,,,,,,,8,4.102,0,,,,,,0.367090832,-0.420763518,1,0,0,4.1021,Pumice_rect,4,0,4,0,1,
6544d818cdf50c46906dbf07,SCR,2024-06-25_12h59.45.816,LearnStrategy,2023.2.3,Win32,60.97560976,6,2,6,,,,,,,,3,12,,,,,,,,,,,,,1,2.93,0,,,,,,-0.329728075,-0.250491642,1,0,0,2.93,Andesite_rect,5,0,5,0,1,
6544d818cdf50c46906dbf07,SCR,2024-06-25_12h59.45.816,LearnStrategy,2023.2.3,Win32,60.97560976,6,2,7,,,,,,,,3,14,,,,,,,,,,,,,1,2.63,0,,,,,,-0.359340652,-0.257894836,1,0,0,2.6304,Andesite_rect,6,0,6,0,1,
6544d818cdf50c46906dbf07,SCR,2024-06-25_12h59.45.816,LearnStrategy,2023.2.3,Win32,60.97560976,6,2,8,,,,,,,,5,08,,,,,,,,,,,,,5,2.49,1,,,,,,-0.363967611,-0.388374854,1,0,0,2.49,Obsidian_rect,7,0,7,0,1,
6544d818cdf50c46906dbf07,SCR,2024-06-25_12h59.45.816,LearnStrategy,2023.2.3,Win32,60.97560976,6,2,9,,,,,,,,8,14,,,,,,,,,,,,,1,1.802,0,,,,,,-0.334355034,-0.268074165,1,0,0,1.8015,Andesite_rect,8,0,8,0,1,
6544d818cdf50c46906dbf07,SCR,2024-06-25_12h59.45.816,LearnStrategy,2023.2.3,Win32,60.97560976,6,2,10,,,,,,,,6,10,,,,,,,,,,,,,6,2.045,1,,,,,,-0.131694593,-0.396703311,1,0,0,2.0446,Pegmatite_rect,9,0,9,0,1,
6544d818cdf50c46906dbf07,SCR,2024-06-25_12h59.45.816,LearnStrategy,2023.2.3,Win32,60.97560976,6,2,11,,,,,,,,2,14,,,,,,,,,,,,,2,2.258,1,,,,,,-0.095604381,-0.267148803,1,0,0,2.2583,Basalt_rect,10,0,10,0,1,
6544d818cdf50c46906dbf07,SCR,2024-06-25_12h59.45.816,LearnStrategy,2023.2.3,Win32,60.97560976,6,2,12,,,,,,,,2,09,,,,,,,,,,,,,8,3.866,0,,,,,,0.410584435,-0.412434962,1,0,0,3.8659,Pumice_rect,11,0,11,0,1,
6544d818cdf50c46906dbf07,SCR,2024-06-25_12h59.45.816,LearnStrategy,2023.2.3,Win32,60.97560976,6,2,13,,,,,,,,8,04,,,,,,,,,,,,,8,2.267,1,,,,,,0.324522888,-0.384673405,1,0,0,2.2673,Pumice_rect,12,0,12,0,1,
6544d818cdf50c46906dbf07,SCR,2024-06-25_12h59.45.816,LearnStrategy,2023.2.3,Win32,60.97560976,6,2,14,,,,,,,,6,12,,,,,,,,,,,,,3,4.708,0,,,,,,0.115384615,-0.240312411,1,0,0,4.7083,Diorite_rect,13,0,13,0,1,
6544d818cdf50c46906dbf07,SCR,2024-06-25_12h59.45.816,LearnStrategy,2023.2.3,Win32,60.97560976,6,2,15,,,,,,,,1,07,,,,,,,,,,,,,4,5.392,0,,,,,,0.393001862,-0.253267877,1,0,0,5.3919,Gabbro_rect,14,0,14,0,1,
6544d818cdf50c46906dbf07,SCR,2024-06-25_12h59.45.816,LearnStrategy,2023.2.3,Win32,60.97560976,6,2,16,,,,,,,,4,12,,,,,,,,,,,,,2,3.79,0,,,,,,-0.203875065,-0.249566379,1,0,0,3.79,Basalt_rect,15,0,15,0,1,
6544d818cdf50c46906dbf07,SCR,2024-06-25_12h59.45.816,LearnStrategy,2023.2.3,Win32,60.97560976,7,1,1,0.084846775,0.389878518,1,0,0,3.3487,Pegmatite_08,6,08,6,5,3.349,3,15,-0.106708974,-0.386524031,1,0,0,3.3076,Pegmatite_rect,6,3.308,1,0,0,0,0,1,,,,,,,,,,,,,
6544d818cdf50c46906dbf07,SCR,2024-06-25_12h59.45.816,LearnStrategy,2023.2.3,Win32,60.97560976,7,1,2,0.231984003,-0.117235488,1,0,0,1.7617,Pegmatite_07,6,07,3,6,1.762,2,12,0.068189762,-0.399479595,1,0,0,3.5279,Peridotite_rect,7,3.528,0,1,0,1,0,1,,,,,,,,,,,,,
6544d818cdf50c46906dbf07,SCR,2024-06-25_12h59.45.816,LearnStrategy,2023.2.3,Win32,60.97560976,7,1,3,0.065413576,0.095604381,1,0,0,1.6621,Peridotite_10,7,10,4,5,1.662,4,03,-0.088201188,-0.241237724,1,0,0,2.9154,Basalt_rect,2,2.915,0,2,0,2,0,1,,,,,,,,,,,,,
6544d818cdf50c46906dbf07,SCR,2024-06-25_12h59.45.816,LearnStrategy,2023.2.3,Win32,60.97560976,7,1,4,0.368016392,-0.101503788,1,0,0,2.7118,Peridotite_04,7,04,3,7,2.712,5,16,0.082070589,-0.407808052,1,0,0,4.2204,Peridotite_rect,7,4.22,1,3,0,3,0,1,,,,,,,,,,,,,
6544d818cdf50c46906dbf07,SCR,2024-06-25_12h59.45.816,LearnStrategy,2023.2.3,Win32,60.97560976,7,1,5,0.397628871,-0.08299605,1,0,0,3.9607,Peridotite_04,7,04,3,7,3.961,8,09,0.157952757,-0.396703311,1,0,0,2.6974,Peridotite_rect,7,2.697,1,4,0,4,0,1,,,,,,,,,,,,,
6544d818cdf50c46906dbf07,SCR,2024-06-25_12h59.45.816,LearnStrategy,2023.2.3,Win32,60.97560976,7,1,6,-0.07894727,0.248293808,1,0,0,2.079,Peridotite_16,7,16,5,4,2.079,7,07,-0.096529694,-0.40225578,1,0,0,2.8235,Pegmatite_rect,6,2.823,0,5,0,5,0,1,,,,,,,,,,,,,
6544d818cdf50c46906dbf07,SCR,2024-06-25_12h59.45.816,LearnStrategy,2023.2.3,Win32,60.97560976,7,1,7,0.232909366,-0.090399096,1,0,0,1.8293,Pegmatite_07,6,07,3,6,1.829,1,02,-0.115962893,-0.381897121,1,0,0,3.4647,Pegmatite_rect,6,3.465,1,6,0,6,0,1,,,,,,,,,,,,,
6544d818cdf50c46906dbf07,SCR,2024-06-25_12h59.45.816,LearnStrategy,2023.2.3,Win32,60.97560976,7,1,8,0.058935843,0.095604381,1,0,0,1.8955,Peridotite_10,7,10,4,5,1.896,2,08,-0.098380468,-0.244013909,1,0,0,2.1561,Basalt_rect,2,2.156,0,7,0,7,0,1,,,,,,,,,,,,,
6544d818cdf50c46906dbf07,SCR,2024-06-25_12h59.45.816,LearnStrategy,2023.2.3,Win32,60.97560976,7,1,9,0.229207818,-0.253267877,1,0,0,2.2295,Andesite_09,1,09,2,6,2.229,4,03,0.186639676,-0.261596383,1,0,0,1.5753,Diorite_rect,3,1.575,0,8,0,8,0,1,,,,,,,,,,,,,
6544d818cdf50c46906dbf07,SCR,2024-06-25_12h59.45.816,LearnStrategy,2023.2.3,Win32,60.97560976,7,1,10,-0.081723405,0.257547701,1,0,0,2.1461,Peridotite_16,7,16,5,4,2.146,1,06,-0.091902735,-0.404106603,1,0,0,2.5507,Pegmatite_rect,6,2.551,0,9,0,9,0,1,,,,,,,,,,,,,
6544d818cdf50c46906dbf07,SCR,2024-06-25_12h59.45.816,LearnStrategy,2023.2.3,Win32,60.97560976,7,1,11,-0.08449964,0.225159037,1,0,0,2.0116,Peridotite_16,7,16,5,4,2.012,6,08,-0.090977422,-0.410584336,1,0,0,3.7557,Pegmatite_rect,6,3.756,0,10,0,10,0,1,,,,,,,,,,,,,
6544d818cdf50c46906dbf07,SCR,2024-06-25_12h59.45.816,LearnStrategy,2023.2.3,Win32,60.97560976,7,1,12,-0.221457342,0.248293808,1,0,0,2.8607,Gabbro_05,4,05,5,3,2.861,4,16,-0.079872731,-0.252342416,1,0,0,3.5584,Basalt_rect,2,3.558,0,11,0,11,0,1,,,,,,,,,,,,,
6544d818cdf50c46906dbf07,SCR,2024-06-25_12h59.45.816,LearnStrategy,2023.2.3,Win32,60.97560976,7,1,13,-0.219606568,0.416714861,1,0,0,3.1598,Diorite_15,3,15,6,3,3.16,8,15,0.152400288,-0.261596383,1,0,0,5.1019,Diorite_rect,3,5.102,1,12,0,12,0,1,,,,,,,,,,,,,
6544d818cdf50c46906dbf07,SCR,2024-06-25_12h59.45.816,LearnStrategy,2023.2.3,Win32,60.97560976,7,1,14,0.082070589,0.252920718,1,0,0,1.7456,Basalt_12,2,12,5,5,1.746,3,15,0.119086361,-0.242163185,1,0,0,2.8182,Diorite_rect,3,2.818,0,13,0,13,0,1,,,,,,,,,,,,,
6544d818cdf50c46906dbf07,SCR,2024-06-25_12h59.45.816,LearnStrategy,2023.2.3,Win32,60.97560976,7,1,15,0.385598668,0.102082114,1,0,0,2.1124,Basalt_01,2,01,4,7,2.112,3,15,0.426315987,-0.404106603,1,0,0,4.5628,Pumice_rect,8,4.563,0,14,0,14,0,1,,,,,,,,,,,,,
6544d818cdf50c46906dbf07,SCR,2024-06-25_12h59.45.816,LearnStrategy,2023.2.3,Win32,60.97560976,7,1,16,-0.259398426,0.415789461,1,0,0,3.8951,Diorite_15,3,15,6,3,3.895,1,02,-0.341758228,-0.254193189,1,0,0,2.7082,Andesite_rect,1,2.708,0,15,0,15,0,1,,,,,,,,,,,,,
6544d818cdf50c46906dbf07,SCR,2024-06-25_12h59.45.816,LearnStrategy,2023.2.3,Win32,60.97560976,7,2,1,,,,,,,,7,08,,,,,,,,,,,,,7,2.234,1,,,,,,0.167206478,-0.384673405,1,0,0,2.2342,Peridotite_rect,0,0,0,0,1,
6544d818cdf50c46906dbf07,SCR,2024-06-25_12h59.45.816,LearnStrategy,2023.2.3,Win32,60.97560976,7,2,2,,,,,,,,1,10,,,,,,,,,,,,,4,2.633,0,,,,,,0.393001862,-0.267148803,1,0,0,2.6326,Gabbro_rect,1,0,1,0,1,
6544d818cdf50c46906dbf07,SCR,2024-06-25_12h59.45.816,LearnStrategy,2023.2.3,Win32,60.97560976,7,2,3,,,,,,,,8,02,,,,,,,,,,,,,1,2.657,0,,,,,,-0.335280495,-0.261596383,1,0,0,2.6568,Andesite_rect,2,0,2,0,1,
6544d818cdf50c46906dbf07,SCR,2024-06-25_12h59.45.816,LearnStrategy,2023.2.3,Win32,60.97560976,7,2,4,,,,,,,,5,11,,,,,,,,,,,,,5,4.087,1,,,,,,-0.331578849,-0.413360324,1,0,0,4.0871,Obsidian_rect,3,0,3,0,1,
6544d818cdf50c46906dbf07,SCR,2024-06-25_12h59.45.816,LearnStrategy,2023.2.3,Win32,60.97560976,7,2,5,,,,,,,,7,05,,,,,,,,,,,,,6,3.075,0,,,,,,-0.179814858,-0.414285785,1,0,0,3.0746,Pegmatite_rect,4,0,4,0,1,
6544d818cdf50c46906dbf07,SCR,2024-06-25_12h59.45.816,LearnStrategy,2023.2.3,Win32,60.97560976,7,2,6,,,,,,,,3,11,,,,,,,,,,,,,3,2.039,1,,,,,,0.073742231,-0.249566379,1,0,0,2.039,Diorite_rect,5,0,5,0,1,
6544d818cdf50c46906dbf07,SCR,2024-06-25_12h59.45.816,LearnStrategy,2023.2.3,Win32,60.97560976,7,2,7,,,,,,,,5,09,,,,,,,,,,,,,5,2.006,1,,,,,,-0.372296118,-0.393927126,1,0,0,2.0065,Obsidian_rect,6,0,6,0,1,
6544d818cdf50c46906dbf07,SCR,2024-06-25_12h59.45.816,LearnStrategy,2023.2.3,Win32,60.97560976,7,2,8,,,,,,,,4,11,,,,,,,,,,,,,1,2.894,0,,,,,,-0.427819478,-0.241237724,1,0,0,2.8943,Andesite_rect,7,0,7,0,1,
6544d818cdf50c46906dbf07,SCR,2024-06-25_12h59.45.816,LearnStrategy,2023.2.3,Win32,60.97560976,7,2,9,,,,,,,,6,11,,,,,,,,,,,,,6,1.885,1,,,,,,-0.103932839,-0.40225578,1,0,0,1.8852,Pegmatite_rect,8,0,8,0,1,
6544d818cdf50c46906dbf07,SCR,2024-06-25_12h59.45.816,LearnStrategy,2023.2.3,Win32,60.97560976,7,2,10,,,,,,,,4,14,,,,,,,,,,,,,2,2.512,0,,,,,,-0.083574179,-0.244013909,1,0,0,2.5117,Basalt_rect,9,0,9,0,1,
6544d818cdf50c46906dbf07,SCR,2024-06-25_12h59.45.816,LearnStrategy,2023.2.3,Win32,60.97560976,7,2,11,,,,,,,,8,08,,,,,,,,,,,,,1,2.035,0,,,,,,-0.314921835,-0.244013909,1,0,0,2.035,Andesite_rect,10,0,10,0,1,
6544d818cdf50c46906dbf07,SCR,2024-06-25_12h59.45.816,LearnStrategy,2023.2.3,Win32,60.97560976,7,2,12,,,,,,,,2,11,,,,,,,,,,,,,3,3.82,0,,,,,,0.066338938,-0.232909217,1,0,0,3.8202,Diorite_rect,11,0,11,0,1,
6544d818cdf50c46906dbf07,SCR,2024-06-25_12h59.45.816,LearnStrategy,2023.2.3,Win32,60.97560976,7,2,13,,,,,,,,3,06,,,,,,,,,,,,,1,4.278,0,,,,,,-0.396356275,-0.242163185,1,0,0,4.2782,Andesite_rect,12,0,12,0,1,
6544d818cdf50c46906dbf07,SCR,2024-06-25_12h59.45.816,LearnStrategy,2023.2.3,Win32,60.97560976,7,2,14,,,,,,,,6,13,,,,,,,,,,,,,6,2.51,1,,,,,,-0.160381561,-0.412434962,1,0,0,2.51,Pegmatite_rect,13,0,13,0,1,
6544d818cdf50c46906dbf07,SCR,2024-06-25_12h59.45.816,LearnStrategy,2023.2.3,Win32,60.97560976,7,2,15,,,,,,,,2,14,,,,,,,,,,,,,7,3.18,0,,,,,,0.127414719,-0.401330319,1,0,0,3.1802,Peridotite_rect,14,0,14,0,1,
6544d818cdf50c46906dbf07,SCR,2024-06-25_12h59.45.816,LearnStrategy,2023.2.3,Win32,60.97560976,7,2,16,,,,,,,,1,03,,,,,,,,,,,,,8,3.154,0,,,,,,0.353210004,-0.409658776,1,0,0,3.1543,Pumice_rect,15,0,15,0,1,
6544d818cdf50c46906dbf07,SCR,2024-06-25_12h59.45.816,LearnStrategy,2023.2.3,Win32,60.97560976,8,1,1,-0.053036437,0.047484067,1,0,0,4.0112,Pumice_16,8,16,4,4,4.011,8,10,-0.107634386,-0.234759991,1,0,0,7.1023,Basalt_rect,2,7.102,0,0,0,0,0,1,,,,,,,,,,,,,
6544d818cdf50c46906dbf07,SCR,2024-06-25_12h59.45.816,LearnStrategy,2023.2.3,Win32,60.97560976,8,1,2,-0.044707782,0.22886061,1,0,0,2.2116,Peridotite_16,7,16,5,4,2.212,7,04,-0.126142173,-0.394852587,1,0,0,3.771,Pegmatite_rect,6,3.771,0,1,0,1,0,1,,,,,,,,,,,,,
6544d818cdf50c46906dbf07,SCR,2024-06-25_12h59.45.816,LearnStrategy,2023.2.3,Win32,60.97560976,8,1,3,0.527183625,0.074320409,1,0,0,2.3954,Andesite_14,1,14,4,8,2.395,1,02,0.147773279,-0.259745609,1,0,0,2.6316,Diorite_rect,3,2.632,0,2,0,2,0,1,,,,,,,,,,,,,
6544d818cdf50c46906dbf07,SCR,2024-06-25_12h59.45.816,LearnStrategy,2023.2.3,Win32,60.97560976,8,1,4,-0.105783662,0.103932863,1,0,0,1.5625,Pumice_16,8,16,4,4,1.563,2,02,-0.137246865,-0.258820148,1,0,0,3.0489,Basalt_rect,2,3.049,0,3,0,3,0,1,,,,,,,,,,,,,
6544d818cdf50c46906dbf07,SCR,2024-06-25_12h59.45.816,LearnStrategy,2023.2.3,Win32,60.97560976,8,1,5,-0.081723405,0.415789461,1,0,0,2.68,Obsidian_02,5,02,6,4,2.68,1,14,-0.339907454,-0.406882591,1,0,0,3.1094,Obsidian_rect,5,3.109,1,4,0,4,0,1,,,,,,,,,,,,,
6544d818cdf50c46906dbf07,SCR,2024-06-25_12h59.45.816,LearnStrategy,2023.2.3,Win32,60.97560976,8,1,6,-0.091902735,0.245517598,1,0,0,2.611,Peridotite_16,7,16,5,4,2.611,4,15,-0.106708974,-0.385598668,1,0,0,2.0604,Pegmatite_rect,6,2.06,0,5,0,5,0,1,,,,,,,,,,,,,
6544d818cdf50c46906dbf07,SCR,2024-06-25_12h59.45.816,LearnStrategy,2023.2.3,Win32,60.97560976,8,1,7,-0.102081966,0.412087901,1,0,0,7.7078,Obsidian_02,5,02,6,4,7.708,4,16,-0.410237103,-0.415211246,1,0,0,2.5214,Obsidian_rect,5,2.521,1,6,0,6,0,1,,,,,,,,,,,,,
6544d818cdf50c46906dbf07,SCR,2024-06-25_12h59.45.816,LearnStrategy,2023.2.3,Win32,60.97560976,8,1,8,-0.38802767,0.218681305,1,0,0,2.6281,Obsidian_12,5,12,5,2,2.628,4,16,0.091324507,-0.407808052,1,0,0,3.6876,Peridotite_rect,7,3.688,0,7,0,7,0,1,,,,,,,,,,,,,
6544d818cdf50c46906dbf07,SCR,2024-06-25_12h59.45.816,LearnStrategy,2023.2.3,Win32,60.97560976,8,1,9,-0.211278111,0.233487519,1,0,0,2.613,Gabbro_05,4,05,5,3,2.613,5,16,0.368941754,-0.393927126,1,0,0,4.746,Pumice_rect,8,4.746,0,8,0,8,0,1,,,,,,,,,,,,,
6544d818cdf50c46906dbf07,SCR,2024-06-25_12h59.45.816,LearnStrategy,2023.2.3,Win32,60.97560976,8,1,10,0.21440143,0.097455106,1,0,0,2.1951,Basalt_02,2,02,4,6,2.195,1,14,0.10242915,-0.251417103,1,0,0,2.0737,Diorite_rect,3,2.074,0,9,0,9,0,1,,,,,,,,,,,,,
6544d818cdf50c46906dbf07,SCR,2024-06-25_12h59.45.816,LearnStrategy,2023.2.3,Win32,60.97560976,8,1,11,0.212550607,0.146500832,1,0,0,2.1615,Basalt_02,2,02,4,6,2.162,2,01,-0.128918358,-0.25511865,1,0,0,4.6086,Basalt_rect,2,4.609,1,10,0,10,0,1,,,,,,,,,,,,,
6544d818cdf50c46906dbf07,SCR,2024-06-25_12h59.45.816,LearnStrategy,2023.2.3,Win32,60.97560976,8,1,12,0.222730085,0.060439532,1,0,0,1.8138,Basalt_02,2,02,4,6,1.814,8,16,-0.337131269,-0.259745609,1,0,0,2.5689,Andesite_rect,1,2.569,0,11,0,11,0,1,,,,,,,,,,,,,
6544d818cdf50c46906dbf07,SCR,2024-06-25_12h59.45.816,LearnStrategy,2023.2.3,Win32,60.97560976,8,1,13,0.377270409,-0.086697598,1,0,0,2.2275,Peridotite_04,7,04,3,7,2.227,3,13,0.333776806,-0.415211246,1,0,0,4.1825,Pumice_rect,8,4.182,0,12,0,12,0,1,,,,,,,,,,,,,
6544d818cdf50c46906dbf07,SCR,2024-06-25_12h59.45.816,LearnStrategy,2023.2.3,Win32,60.97560976,8,1,14,0.082995951,0.26217466,1,0,0,2.2131,Basalt_12,2,12,5,5,2.213,8,16,0.10798152,-0.253267877,1,0,0,3.3742,Diorite_rect,3,3.374,0,13,0,13,0,1,,,,,,,,,,,,,
6544d818cdf50c46906dbf07,SCR,2024-06-25_12h59.45.816,LearnStrategy,2023.2.3,Win32,60.97560976,8,1,15,-0.074320311,0.095604381,1,0,0,2.1127,Pumice_16,8,16,4,4,2.113,3,15,-0.088201188,-0.243088596,1,0,0,2.3839,Basalt_rect,2,2.384,0,14,0,14,0,1,,,,,,,,,,,,,
6544d818cdf50c46906dbf07,SCR,2024-06-25_12h59.45.816,LearnStrategy,2023.2.3,Win32,60.97560976,8,1,16,0.070040486,0.116888304,1,0,0,1.6789,Peridotite_10,7,10,4,5,1.679,6,07,0.095951417,-0.241237724,1,0,0,2.6574,Diorite_rect,3,2.657,0,15,0,15,0,1,,,,,,,,,,,,,
6544d818cdf50c46906dbf07,SCR,2024-06-25_12h59.45.816,LearnStrategy,2023.2.3,Win32,60.97560976,8,2,1,,,,,,,,2,04,,,,,,,,,,,,,2,5.382,1,,,,,,-0.126142173,-0.233834678,1,0,0,5.3819,Basalt_rect,0,0,0,0,1,
6544d818cdf50c46906dbf07,SCR,2024-06-25_12h59.45.816,LearnStrategy,2023.2.3,Win32,60.97560976,8,2,2,,,,,,,,4,01,,,,,,,,,,,,,3,4.915,0,,,,,,0.085772137,-0.251417103,1,0,0,4.915,Diorite_rect,1,0,1,0,1,
6544d818cdf50c46906dbf07,SCR,2024-06-25_12h59.45.816,LearnStrategy,2023.2.3,Win32,60.97560976,8,2,3,,,,,,,,6,10,,,,,,,,,,,,,6,3.013,1,,,,,,-0.11503758,-0.414285785,1,0,0,3.0131,Pegmatite_rect,2,0,2,0,1,
6544d818cdf50c46906dbf07,SCR,2024-06-25_12h59.45.816,LearnStrategy,2023.2.3,Win32,60.97560976,8,2,4,,,,,,,,3,02,,,,,,,,,,,,,7,3.77,0,,,,,,0.070040486,-0.4115096,1,0,0,3.7695,Peridotite_rect,3,0,3,0,1,
6544d818cdf50c46906dbf07,SCR,2024-06-25_12h59.45.816,LearnStrategy,2023.2.3,Win32,60.97560976,8,2,5,,,,,,,,6,15,,,,,,,,,,,,,6,1.507,1,,,,,,-0.077096496,-0.405031867,1,0,0,1.5066,Pegmatite_rect,4,0,4,0,1,
6544d818cdf50c46906dbf07,SCR,2024-06-25_12h59.45.816,LearnStrategy,2023.2.3,Win32,60.97560976,8,2,6,,,,,,,,5,05,,,,,,,,,,,,,5,1.887,1,,,,,,-0.355639006,-0.385598668,1,0,0,1.8869,Obsidian_rect,5,0,5,0,1,
6544d818cdf50c46906dbf07,SCR,2024-06-25_12h59.45.816,LearnStrategy,2023.2.3,Win32,60.97560976,8,2,7,,,,,,,,7,15,,,,,,,,,,,,,6,2.254,0,,,,,,-0.168710216,-0.403181142,1,0,0,2.2541,Pegmatite_rect,6,0,6,0,1,
6544d818cdf50c46906dbf07,SCR,2024-06-25_12h59.45.816,LearnStrategy,2023.2.3,Win32,60.97560976,8,2,8,,,,,,,,8,04,,,,,,,,,,,,,8,3.729,1,,,,,,0.415211147,-0.410584336,1,0,0,3.7292,Pumice_rect,7,0,7,0,1,
6544d818cdf50c46906dbf07,SCR,2024-06-25_12h59.45.816,LearnStrategy,2023.2.3,Win32,60.97560976,8,2,9,,,,,,,,1,07,,,,,,,,,,,,,4,2.889,0,,,,,,0.374494125,-0.270850301,1,0,0,2.8892,Gabbro_rect,8,0,8,0,1,
6544d818cdf50c46906dbf07,SCR,2024-06-25_12h59.45.816,LearnStrategy,2023.2.3,Win32,60.97560976,8,2,10,,,,,,,,2,09,,,,,,,,,,,,,2,3.855,1,,,,,,-0.106708974,-0.244013909,1,0,0,3.8551,Basalt_rect,9,0,9,0,1,
6544d818cdf50c46906dbf07,SCR,2024-06-25_12h59.45.816,LearnStrategy,2023.2.3,Win32,60.97560976,8,2,11,,,,,,,,7,13,,,,,,,,,,,,,6,1.922,0,,,,,,-0.090977422,-0.399479595,1,0,0,1.9218,Pegmatite_rect,10,0,10,0,1,
6544d818cdf50c46906dbf07,SCR,2024-06-25_12h59.45.816,LearnStrategy,2023.2.3,Win32,60.97560976,8,2,12,,,,,,,,1,11,,,,,,,,,,,,,1,2.097,1,,,,,,-0.318623383,-0.248640967,1,0,0,2.0966,Andesite_rect,11,0,11,0,1,
6544d818cdf50c46906dbf07,SCR,2024-06-25_12h59.45.816,LearnStrategy,2023.2.3,Win32,60.97560976,8,2,13,,,,,,,,5,04,,,,,,,,,,,,,5,2.074,1,,,,,,-0.355639006,-0.382822582,1,0,0,2.0742,Obsidian_rect,12,0,12,0,1,
6544d818cdf50c46906dbf07,SCR,2024-06-25_12h59.45.816,LearnStrategy,2023.2.3,Win32,60.97560976,8,2,14,,,,,,,,3,12,,,,,,,,,,,,,2,5.575,0,,,,,,-0.080797994,-0.23938695,1,0,0,5.5752,Basalt_rect,13,0,13,0,1,
6544d818cdf50c46906dbf07,SCR,2024-06-25_12h59.45.816,LearnStrategy,2023.2.3,Win32,60.97560976,8,2,15,,,,,,,,4,13,,,,,,,,,,,,,3,3.143,0,,,,,,0.104279973,-0.268074165,1,0,0,3.143,Diorite_rect,14,0,14,0,1,
6544d818cdf50c46906dbf07,SCR,2024-06-25_12h59.45.816,LearnStrategy,2023.2.3,Win32,60.97560976,8,2,16,,,,,,,,8,05,,,,,,,,,,,,,8,4.71,1,,,,,,0.390225578,-0.389300315,1,0,0,4.7102,Pumice_rect,15,0,15,0,1,
6544d818cdf50c46906dbf07,SCR,2024-06-25_12h59.45.816,LearnStrategy,2023.2.3,Win32,60.97560976,9,1,1,-0.075245722,0.094678995,1,0,0,2.7786,Pumice_16,8,16,4,4,2.779,7,06,0.395777949,-0.254193189,1,0,0,4.3651,Gabbro_rect,4,4.365,0,0,0,0,0,1,,,,,,,,,,,,,
6544d818cdf50c46906dbf07,SCR,2024-06-25_12h59.45.816,LearnStrategy,2023.2.3,Win32,60.97560976,9,1,2,-0.080797994,0.102082114,1,0,0,1.4962,Pumice_16,8,16,4,4,1.496,4,05,0.32544825,-0.393001763,1,0,0,1.9903,Pumice_rect,8,1.99,1,1,0,1,0,1,,,,,,,,,,,,,
6544d818cdf50c46906dbf07,SCR,2024-06-25_12h59.45.816,LearnStrategy,2023.2.3,Win32,60.97560976,9,1,3,0.235685551,0.240890688,1,0,0,1.8784,Diorite_10,3,10,5,6,1.878,2,10,0.062637391,-0.244013909,1,0,0,1.8606,Diorite_rect,3,1.861,1,2,0,2,0,1,,,,,,,,,,,,,
6544d818cdf50c46906dbf07,SCR,2024-06-25_12h59.45.816,LearnStrategy,2023.2.3,Win32,60.97560976,9,1,4,0.077443778,0.103007476,1,0,0,1.4477,Peridotite_10,7,10,4,5,1.448,3,13,-0.090977422,-0.383747944,1,0,0,4.5462,Pegmatite_rect,6,4.546,0,3,0,3,0,1,,,,,,,,,,,,,
6544d818cdf50c46906dbf07,SCR,2024-06-25_12h59.45.816,LearnStrategy,2023.2.3,Win32,60.97560976,9,1,5,0.243088547,-0.102429249,1,0,0,2.6119,Pegmatite_07,6,07,3,6,2.612,1,04,-0.105783662,-0.407808052,1,0,0,6.873,Pegmatite_rect,6,6.873,1,4,0,4,0,1,,,,,,,,,,,,,
6544d818cdf50c46906dbf07,SCR,2024-06-25_12h59.45.816,LearnStrategy,2023.2.3,Win32,60.97560976,9,1,6,0.428166711,-0.124638533,1,0,0,3.8767,Peridotite_04,7,04,3,7,3.877,8,10,-0.09467892,-0.387449393,1,0,0,4.6365,Pegmatite_rect,6,4.637,0,5,0,5,0,1,,,,,,,,,,,,,
6544d818cdf50c46906dbf07,SCR,2024-06-25_12h59.45.816,LearnStrategy,2023.2.3,Win32,60.97560976,9,1,7,0.068189762,0.082648916,1,0,0,2.1438,Peridotite_10,7,10,4,5,2.144,8,03,-0.112261395,-0.256969375,1,0,0,2.7136,Basalt_rect,2,2.714,0,6,0,6,0,1,,,,,,,,,,,,,
6544d818cdf50c46906dbf07,SCR,2024-06-25_12h59.45.816,LearnStrategy,2023.2.3,Win32,60.97560976,9,1,8,-0.047484067,0.106708999,1,0,0,1.7983,Pumice_16,8,16,4,4,1.798,4,15,0.341179901,-0.414285785,1,0,0,2.9395,Pumice_rect,8,2.939,1,7,0,7,0,1,,,,,,,,,,,,,
6544d818cdf50c46906dbf07,SCR,2024-06-25_12h59.45.816,LearnStrategy,2023.2.3,Win32,60.97560976,9,1,9,0.408733513,0.088201237,1,0,0,1.9785,Basalt_01,2,01,4,7,1.978,3,07,0.148698839,-0.259745609,1,0,0,2.2996,Diorite_rect,3,2.3,0,8,0,8,0,1,,,,,,,,,,,,,
6544d818cdf50c46906dbf07,SCR,2024-06-25_12h59.45.816,LearnStrategy,2023.2.3,Win32,60.97560976,9,1,10,0.399479496,-0.094100643,1,0,0,1.8961,Peridotite_04,7,04,3,7,1.896,3,07,-0.101156604,-0.390225578,1,0,0,2.3258,Pegmatite_rect,6,2.326,0,9,0,9,0,1,,,,,,,,,,,,,
6544d818cdf50c46906dbf07,SCR,2024-06-25_12h59.45.816,LearnStrategy,2023.2.3,Win32,60.97560976,9,1,11,0.066338938,-0.237536176,1,0,0,1.8798,Peridotite_06,7,06,2,5,1.88,1,14,-0.145575371,-0.399479595,1,0,0,2.3672,Pegmatite_rect,6,2.367,0,10,0,10,0,1,,,,,,,,,,,,,
6544d818cdf50c46906dbf07,SCR,2024-06-25_12h59.45.816,LearnStrategy,2023.2.3,Win32,60.97560976,9,1,12,0.105205335,0.232562132,1,0,0,2.0803,Basalt_12,2,12,5,5,2.08,6,07,0.110757706,-0.245864732,1,0,0,2.6558,Diorite_rect,3,2.656,0,11,0,11,0,1,,,,,,,,,,,,,
6544d818cdf50c46906dbf07,SCR,2024-06-25_12h59.45.816,LearnStrategy,2023.2.3,Win32,60.97560976,9,1,13,-0.103932839,0.080798142,1,0,0,1.4801,Pumice_16,8,16,4,4,1.48,4,03,0.407808151,-0.405957229,1,0,0,3.8328,Pumice_rect,8,3.833,1,12,0,12,0,1,,,,,,,,,,,,,
6544d818cdf50c46906dbf07,SCR,2024-06-25_12h59.45.816,LearnStrategy,2023.2.3,Win32,60.97560976,9,1,14,-0.242741462,0.232562132,1,0,0,1.7981,Gabbro_05,4,05,5,3,1.798,1,14,-0.103932839,-0.249566379,1,0,0,3.1367,Basalt_rect,2,3.137,0,13,0,13,0,1,,,,,,,,,,,,,
6544d818cdf50c46906dbf07,SCR,2024-06-25_12h59.45.816,LearnStrategy,2023.2.3,Win32,60.97560976,9,1,15,0.374494125,0.253846154,1,0,0,3.3459,Pegmatite_16,6,16,5,7,3.346,2,08,0.074667494,-0.241237724,1,0,0,2.0008,Diorite_rect,3,2.001,0,14,0,14,0,1,,,,,,,,,,,,,
6544d818cdf50c46906dbf07,SCR,2024-06-25_12h59.45.816,LearnStrategy,2023.2.3,Win32,60.97560976,9,1,16,-0.083574179,0.092828171,1,0,0,1.5792,Pumice_16,8,16,4,4,1.579,7,14,0.373568664,-0.400405056,1,0,0,2.1919,Pumice_rect,8,2.192,1,15,0,15,0,1,,,,,,,,,,,,,
6544d818cdf50c46906dbf07,SCR,2024-06-25_12h59.45.816,LearnStrategy,2023.2.3,Win32,60.97560976,9,2,1,,,,,,,,7,12,,,,,,,,,,,,,7,8.212,1,,,,,,0.088548322,-0.397628871,1,0,0,8.2123,Peridotite_rect,0,0,0,0,1,
6544d818cdf50c46906dbf07,SCR,2024-06-25_12h59.45.816,LearnStrategy,2023.2.3,Win32,60.97560976,9,2,2,,,,,,,,8,14,,,,,,,,,,,,,8,2.177,1,,,,,,0.360613099,-0.400405056,1,0,0,2.1775,Pumice_rect,1,0,1,0,1,
6544d818cdf50c46906dbf07,SCR,2024-06-25_12h59.45.816,LearnStrategy,2023.2.3,Win32,60.97560976,9,2,3,,,,,,,,6,12,,,,,,,,,,,,,3,3.926,0,,,,,,0.149624103,-0.242163185,1,0,0,3.9262,Diorite_rect,2,0,2,0,1,
6544d818cdf50c46906dbf07,SCR,2024-06-25_12h59.45.816,LearnStrategy,2023.2.3,Win32,60.97560976,9,2,4,,,,,,,,6,06,,,,,,,,,,,,,6,6.284,1,,,,,,-0.119664391,-0.393927126,1,0,0,6.2837,Pegmatite_rect,3,0,3,0,1,
6544d818cdf50c46906dbf07,SCR,2024-06-25_12h59.45.816,LearnStrategy,2023.2.3,Win32,60.97560976,9,2,5,,,,,,,,7,02,,,,,,,,,,,,,7,2.89,1,,,,,,0.060786765,-0.395778048,1,0,0,2.89,Peridotite_rect,4,0,4,0,1,
6544d818cdf50c46906dbf07,SCR,2024-06-25_12h59.45.816,LearnStrategy,2023.2.3,Win32,60.97560976,9,2,6,,,,,,,,2,06,,,,,,,,,,,,,4,4.17,0,,,,,,0.328224435,-0.248640967,1,0,0,4.1702,Gabbro_rect,5,0,5,0,1,
6544d818cdf50c46906dbf07,SCR,2024-06-25_12h59.45.816,LearnStrategy,2023.2.3,Win32,60.97560976,9,2,7,,,,,,,,1,01,,,,,,,,,,,,,2,5.385,0,,,,,,-0.07894727,-0.244013909,1,0,0,5.3846,Basalt_rect,6,0,6,0,1,
6544d818cdf50c46906dbf07,SCR,2024-06-25_12h59.45.816,LearnStrategy,2023.2.3,Win32,60.97560976,9,2,8,,,,,,,,5,08,,,,,,,,,,,,,5,2.227,1,,,,,,-0.414864062,-0.409658776,1,0,0,2.2273,Obsidian_rect,7,0,7,0,1,
6544d818cdf50c46906dbf07,SCR,2024-06-25_12h59.45.816,LearnStrategy,2023.2.3,Win32,60.97560976,9,2,9,,,,,,,,5,14,,,,,,,,,,,,,5,1.599,1,,,,,,-0.399132362,-0.387449393,1,0,0,1.5986,Obsidian_rect,8,0,8,0,1,
6544d818cdf50c46906dbf07,SCR,2024-06-25_12h59.45.816,LearnStrategy,2023.2.3,Win32,60.97560976,9,2,10,,,,,,,,3,14,,,,,,,,,,,,,3,3.01,1,,,,,,0.118160801,-0.246790193,1,0,0,3.0097,Diorite_rect,9,0,9,0,1,
6544d818cdf50c46906dbf07,SCR,2024-06-25_12h59.45.816,LearnStrategy,2023.2.3,Win32,60.97560976,9,2,11,,,,,,,,2,05,,,,,,,,,,,,,4,3.76,0,,,,,,0.417062069,-0.235685452,1,0,0,3.7596,Gabbro_rect,10,0,10,0,1,
6544d818cdf50c46906dbf07,SCR,2024-06-25_12h59.45.816,LearnStrategy,2023.2.3,Win32,60.97560976,9,2,12,,,,,,,,3,09,,,,,,,,,,,,,3,3.76,1,,,,,,0.146847917,-0.260670922,1,0,0,3.76,Diorite_rect,11,0,11,0,1,
6544d818cdf50c46906dbf07,SCR,2024-06-25_12h59.45.816,LearnStrategy,2023.2.3,Win32,60.97560976,9,2,13,,,,,,,,1,16,,,,,,,,,,,,,1,4.636,1,,,,,,-0.315847296,-0.257894836,1,0,0,4.636,Andesite_rect,12,0,12,0,1,
6544d818cdf50c46906dbf07,SCR,2024-06-25_12h59.45.816,LearnStrategy,2023.2.3,Win32,60.97560976,9,2,14,,,,,,,,4,12,,,,,,,,,,,,,1,4.203,0,,,,,,-0.344534413,-0.261596383,1,0,0,4.2029,Andesite_rect,13,0,13,0,1,
6544d818cdf50c46906dbf07,SCR,2024-06-25_12h59.45.816,LearnStrategy,2023.2.3,Win32,60.97560976,9,2,15,,,,,,,,4,08,,,,,,,,,,,,,2,4.086,0,,,,,,-0.20109883,-0.248640967,1,0,0,4.0863,Basalt_rect,14,0,14,0,1,
6544d818cdf50c46906dbf07,SCR,2024-06-25_12h59.45.816,LearnStrategy,2023.2.3,Win32,60.97560976,9,2,16,,,,,,,,8,13,,,,,,,,,,,,,8,3.51,1,,,,,,0.343956086,-0.406882591,1,0,0,3.5102,Pumice_rect,15,0,15,0,1,
6544d818cdf50c46906dbf07,SCR,2024-06-25_12h59.45.816,LearnStrategy,2023.2.3,Win32,60.97560976,,,,,,,,,,,,,,,,,,,,,,,,,,,,,,,,,,,,,,,,,,,,,0
6544d818cdf50c46906dbf07,SCR,2024-06-25_12h59.45.816,LearnStrategy,2023.2.3,Win32,60.97560976,,,,,,,,,,,,,,,,,,,,,,,,,,,,,,,,,,,,,,,,,,,,,
6544d818cdf50c46906dbf07,SCR,2024-06-25_12h59.45.816,LearnStrategy,2023.2.3,Win32,60.97560976,,,,,,,,,,,5,16,1,1,,,,,,,,,,,,,,,,,,,,,,,,,,,,,,,
6544d818cdf50c46906dbf07,SCR,2024-06-25_12h59.45.816,LearnStrategy,2023.2.3,Win32,60.97560976,,,,,,,,,,,1,04,1,2,,,,,,,,,,,,,,,,,,,,,,,,,,,,,,,
6544d818cdf50c46906dbf07,SCR,2024-06-25_12h59.45.816,LearnStrategy,2023.2.3,Win32,60.97560976,,,,,,,,,,,3,16,1,3,,,,,,,,,,,,,,,,,,,,,,,,,,,,,,,
6544d818cdf50c46906dbf07,SCR,2024-06-25_12h59.45.816,LearnStrategy,2023.2.3,Win32,60.97560976,,,,,,,,,,,6,05,1,4,,,,,,,,,,,,,,,,,,,,,,,,,,,,,,,
6544d818cdf50c46906dbf07,SCR,2024-06-25_12h59.45.816,LearnStrategy,2023.2.3,Win32,60.97560976,,,,,,,,,,,3,07,1,5,,,,,,,,,,,,,,,,,,,,,,,,,,,,,,,
6544d818cdf50c46906dbf07,SCR,2024-06-25_12h59.45.816,LearnStrategy,2023.2.3,Win32,60.97560976,,,,,,,,,,,6,03,1,6,,,,,,,,,,,,,,,,,,,,,,,,,,,,,,,
6544d818cdf50c46906dbf07,SCR,2024-06-25_12h59.45.816,LearnStrategy,2023.2.3,Win32,60.97560976,,,,,,,,,,,2,10,1,7,,,,,,,,,,,,,,,,,,,,,,,,,,,,,,,
6544d818cdf50c46906dbf07,SCR,2024-06-25_12h59.45.816,LearnStrategy,2023.2.3,Win32,60.97560976,,,,,,,,,,,1,06,1,8,,,,,,,,,,,,,,,,,,,,,,,,,,,,,,,
6544d818cdf50c46906dbf07,SCR,2024-06-25_12h59.45.816,LearnStrategy,2023.2.3,Win32,60.97560976,,,,,,,,,,,4,15,2,1,,,,,,,,,,,,,,,,,,,,,,,,,,,,,,,
6544d818cdf50c46906dbf07,SCR,2024-06-25_12h59.45.816,LearnStrategy,2023.2.3,Win32,60.97560976,,,,,,,,,,,3,08,2,2,,,,,,,,,,,,,,,,,,,,,,,,,,,,,,,
6544d818cdf50c46906dbf07,SCR,2024-06-25_12h59.45.816,LearnStrategy,2023.2.3,Win32,60.97560976,,,,,,,,,,,7,14,2,3,,,,,,,,,,,,,,,,,,,,,,,,,,,,,,,
6544d818cdf50c46906dbf07,SCR,2024-06-25_12h59.45.816,LearnStrategy,2023.2.3,Win32,60.97560976,,,,,,,,,,,5,07,2,4,,,,,,,,,,,,,,,,,,,,,,,,,,,,,,,
6544d818cdf50c46906dbf07,SCR,2024-06-25_12h59.45.816,LearnStrategy,2023.2.3,Win32,60.97560976,,,,,,,,,,,7,06,2,5,,,,,,,,,,,,,,,,,,,,,,,,,,,,,,,
6544d818cdf50c46906dbf07,SCR,2024-06-25_12h59.45.816,LearnStrategy,2023.2.3,Win32,60.97560976,,,,,,,,,,,1,09,2,6,,,,,,,,,,,,,,,,,,,,,,,,,,,,,,,
6544d818cdf50c46906dbf07,SCR,2024-06-25_12h59.45.816,LearnStrategy,2023.2.3,Win32,60.97560976,,,,,,,,,,,4,03,2,7,,,,,,,,,,,,,,,,,,,,,,,,,,,,,,,
6544d818cdf50c46906dbf07,SCR,2024-06-25_12h59.45.816,LearnStrategy,2023.2.3,Win32,60.97560976,,,,,,,,,,,6,09,2,8,,,,,,,,,,,,,,,,,,,,,,,,,,,,,,,
6544d818cdf50c46906dbf07,SCR,2024-06-25_12h59.45.816,LearnStrategy,2023.2.3,Win32,60.97560976,,,,,,,,,,,1,05,3,1,,,,,,,,,,,,,,,,,,,,,,,,,,,,,,,
6544d818cdf50c46906dbf07,SCR,2024-06-25_12h59.45.816,LearnStrategy,2023.2.3,Win32,60.97560976,,,,,,,,,,,7,07,3,2,,,,,,,,,,,,,,,,,,,,,,,,,,,,,,,
6544d818cdf50c46906dbf07,SCR,2024-06-25_12h59.45.816,LearnStrategy,2023.2.3,Win32,60.97560976,,,,,,,,,,,2,16,3,3,,,,,,,,,,,,,,,,,,,,,,,,,,,,,,,
6544d818cdf50c46906dbf07,SCR,2024-06-25_12h59.45.816,LearnStrategy,2023.2.3,Win32,60.97560976,,,,,,,,,,,5,10,3,4,,,,,,,,,,,,,,,,,,,,,,,,,,,,,,,
6544d818cdf50c46906dbf07,SCR,2024-06-25_12h59.45.816,LearnStrategy,2023.2.3,Win32,60.97560976,,,,,,,,,,,8,06,3,5,,,,,,,,,,,,,,,,,,,,,,,,,,,,,,,
6544d818cdf50c46906dbf07,SCR,2024-06-25_12h59.45.816,LearnStrategy,2023.2.3,Win32,60.97560976,,,,,,,,,,,6,07,3,6,,,,,,,,,,,,,,,,,,,,,,,,,,,,,,,
6544d818cdf50c46906dbf07,SCR,2024-06-25_12h59.45.816,LearnStrategy,2023.2.3,Win32,60.97560976,,,,,,,,,,,7,04,3,7,,,,,,,,,,,,,,,,,,,,,,,,,,,,,,,
6544d818cdf50c46906dbf07,SCR,2024-06-25_12h59.45.816,LearnStrategy,2023.2.3,Win32,60.97560976,,,,,,,,,,,5,06,3,8,,,,,,,,,,,,,,,,,,,,,,,,,,,,,,,
6544d818cdf50c46906dbf07,SCR,2024-06-25_12h59.45.816,LearnStrategy,2023.2.3,Win32,60.97560976,,,,,,,,,,,4,09,4,1,,,,,,,,,,,,,,,,,,,,,,,,,,,,,,,
6544d818cdf50c46906dbf07,SCR,2024-06-25_12h59.45.816,LearnStrategy,2023.2.3,Win32,60.97560976,,,,,,,,,,,4,16,4,2,,,,,,,,,,,,,,,,,,,,,,,,,,,,,,,
6544d818cdf50c46906dbf07,SCR,2024-06-25_12h59.45.816,LearnStrategy,2023.2.3,Win32,60.97560976,,,,,,,,,,,8,09,4,3,,,,,,,,,,,,,,,,,,,,,,,,,,,,,,,
6544d818cdf50c46906dbf07,SCR,2024-06-25_12h59.45.816,LearnStrategy,2023.2.3,Win32,60.97560976,,,,,,,,,,,8,16,4,4,,,,,,,,,,,,,,,,,,,,,,,,,,,,,,,
6544d818cdf50c46906dbf07,SCR,2024-06-25_12h59.45.816,LearnStrategy,2023.2.3,Win32,60.97560976,,,,,,,,,,,7,10,4,5,,,,,,,,,,,,,,,,,,,,,,,,,,,,,,,
6544d818cdf50c46906dbf07,SCR,2024-06-25_12h59.45.816,LearnStrategy,2023.2.3,Win32,60.97560976,,,,,,,,,,,2,02,4,6,,,,,,,,,,,,,,,,,,,,,,,,,,,,,,,
6544d818cdf50c46906dbf07,SCR,2024-06-25_12h59.45.816,LearnStrategy,2023.2.3,Win32,60.97560976,,,,,,,,,,,2,01,4,7,,,,,,,,,,,,,,,,,,,,,,,,,,,,,,,
6544d818cdf50c46906dbf07,SCR,2024-06-25_12h59.45.816,LearnStrategy,2023.2.3,Win32,60.97560976,,,,,,,,,,,1,14,4,8,,,,,,,,,,,,,,,,,,,,,,,,,,,,,,,
6544d818cdf50c46906dbf07,SCR,2024-06-25_12h59.45.816,LearnStrategy,2023.2.3,Win32,60.97560976,,,,,,,,,,,2,08,5,1,,,,,,,,,,,,,,,,,,,,,,,,,,,,,,,
6544d818cdf50c46906dbf07,SCR,2024-06-25_12h59.45.816,LearnStrategy,2023.2.3,Win32,60.97560976,,,,,,,,,,,5,12,5,2,,,,,,,,,,,,,,,,,,,,,,,,,,,,,,,
6544d818cdf50c46906dbf07,SCR,2024-06-25_12h59.45.816,LearnStrategy,2023.2.3,Win32,60.97560976,,,,,,,,,,,4,05,5,3,,,,,,,,,,,,,,,,,,,,,,,,,,,,,,,
6544d818cdf50c46906dbf07,SCR,2024-06-25_12h59.45.816,LearnStrategy,2023.2.3,Win32,60.97560976,,,,,,,,,,,7,16,5,4,,,,,,,,,,,,,,,,,,,,,,,,,,,,,,,
6544d818cdf50c46906dbf07,SCR,2024-06-25_12h59.45.816,LearnStrategy,2023.2.3,Win32,60.97560976,,,,,,,,,,,2,12,5,5,,,,,,,,,,,,,,,,,,,,,,,,,,,,,,,
6544d818cdf50c46906dbf07,SCR,2024-06-25_12h59.45.816,LearnStrategy,2023.2.3,Win32,60.97560976,,,,,,,,,,,3,10,5,6,,,,,,,,,,,,,,,,,,,,,,,,,,,,,,,
6544d818cdf50c46906dbf07,SCR,2024-06-25_12h59.45.816,LearnStrategy,2023.2.3,Win32,60.97560976,,,,,,,,,,,6,16,5,7,,,,,,,,,,,,,,,,,,,,,,,,,,,,,,,
6544d818cdf50c46906dbf07,SCR,2024-06-25_12h59.45.816,LearnStrategy,2023.2.3,Win32,60.97560976,,,,,,,,,,,3,13,5,8,,,,,,,,,,,,,,,,,,,,,,,,,,,,,,,
6544d818cdf50c46906dbf07,SCR,2024-06-25_12h59.45.816,LearnStrategy,2023.2.3,Win32,60.97560976,,,,,,,,,,,8,15,6,1,,,,,,,,,,,,,,,,,,,,,,,,,,,,,,,
6544d818cdf50c46906dbf07,SCR,2024-06-25_12h59.45.816,LearnStrategy,2023.2.3,Win32,60.97560976,,,,,,,,,,,8,03,6,2,,,,,,,,,,,,,,,,,,,,,,,,,,,,,,,
6544d818cdf50c46906dbf07,SCR,2024-06-25_12h59.45.816,LearnStrategy,2023.2.3,Win32,60.97560976,,,,,,,,,,,3,15,6,3,,,,,,,,,,,,,,,,,,,,,,,,,,,,,,,
6544d818cdf50c46906dbf07,SCR,2024-06-25_12h59.45.816,LearnStrategy,2023.2.3,Win32,60.97560976,,,,,,,,,,,5,02,6,4,,,,,,,,,,,,,,,,,,,,,,,,,,,,,,,
6544d818cdf50c46906dbf07,SCR,2024-06-25_12h59.45.816,LearnStrategy,2023.2.3,Win32,60.97560976,,,,,,,,,,,6,08,6,5,,,,,,,,,,,,,,,,,,,,,,,,,,,,,,,
6544d818cdf50c46906dbf07,SCR,2024-06-25_12h59.45.816,LearnStrategy,2023.2.3,Win32,60.97560976,,,,,,,,,,,1,02,6,6,,,,,,,,,,,,,,,,,,,,,,,,,,,,,,,
6544d818cdf50c46906dbf07,SCR,2024-06-25_12h59.45.816,LearnStrategy,2023.2.3,Win32,60.97560976,,,,,,,,,,,4,10,6,7,,,,,,,,,,,,,,,,,,,,,,,,,,,,,,,
6544d818cdf50c46906dbf07,SCR,2024-06-25_12h59.45.816,LearnStrategy,2023.2.3,Win32,60.97560976,,,,,,,,,,,8,10,6,8,,,,,,,,,,,,,,,,,,,,,,,,,,,,,,,