participant,condition,date,expName,psychopyVersion,OS,frameRate,block,phase,trial,learn_mouse.x,learn_mouse.y,learn_mouse.leftButton,learn_mouse.midButton,learn_mouse.rightButton,learn_mouse.time,learn_mouse.clicked_name,cat,token,row,col,t_select,cat_rec,token_rec,cat_mouse_l.x,cat_mouse_l.y,cat_mouse_l.leftButton,cat_mouse_l.midButton,cat_mouse_l.rightButton,cat_mouse_l.time,cat_mouse_l.clicked_name,resp,t_resp,corr,train_trials.thisRepN,train_trials.thisTrialN,train_trials.thisN,train_trials.thisIndex,train_trials.ran,cat_mouse_t.x,cat_mouse_t.y,cat_mouse_t.leftButton,cat_mouse_t.midButton,cat_mouse_t.rightButton,cat_mouse_t.time,cat_mouse_t.clicked_name,test_trials.thisRepN,test_trials.thisTrialN,test_trials.thisN,test_trials.thisIndex,test_trials.ran,Bonus
65465ac216a26bebcc8d8b02,SCR,2024-06-25_14h25.14.842,LearnStrategy,2023.2.3,MacIntel,59.03187721,,,,,,,,,,,,,,,,,,,,,,,,,,,,,,,,,,,,,,,,,,,,,
65465ac216a26bebcc8d8b02,SCR,2024-06-25_14h25.14.842,LearnStrategy,2023.2.3,MacIntel,59.03187721,1,1,1,-0.55,-0.262222222,1,0,0,8.664,Pegmatite_11,6,11,2,1,8.664,5,08,-0.452222222,-0.413333333,1,0,0,8.906,Obsidian_rect,5,8.906,0,0,0,0,0,1,,,,,,,,,,,,,
65465ac216a26bebcc8d8b02,SCR,2024-06-25_14h25.14.842,LearnStrategy,2023.2.3,MacIntel,59.03187721,1,1,2,0.383333333,0.085555556,1,0,0,5.62,Andesite_01,1,01,4,7,5.62,4,13,-0.082222222,-0.23,1,0,0,4.313,Basalt_rect,2,4.313,0,1,0,1,0,1,,,,,,,,,,,,,
65465ac216a26bebcc8d8b02,SCR,2024-06-25_14h25.14.842,LearnStrategy,2023.2.3,MacIntel,59.03187721,1,1,3,-0.228888889,0.253333333,1,0,0,3.767,Obsidian_08,5,08,5,3,3.767,2,09,-0.431111111,-0.416666667,1,0,0,2.222,Obsidian_rect,5,2.222,1,2,0,2,0,1,,,,,,,,,,,,,
65465ac216a26bebcc8d8b02,SCR,2024-06-25_14h25.14.842,LearnStrategy,2023.2.3,MacIntel,59.03187721,1,1,4,-0.242222222,0.421111111,1,0,0,5.452,Pumice_05,8,05,6,3,5.452,3,11,0.381111111,-0.405555556,1,0,0,2.108,Pumice_rect,8,2.108,1,3,0,3,0,1,,,,,,,,,,,,,
65465ac216a26bebcc8d8b02,SCR,2024-06-25_14h25.14.842,LearnStrategy,2023.2.3,MacIntel,59.03187721,1,1,5,-0.075555556,-0.364444444,1,0,0,4.284,Diorite_07,3,07,1,4,4.284,3,13,-0.093333333,-0.394444444,1,0,0,4.051,Pegmatite_rect,6,4.051,0,4,0,4,0,1,,,,,,,,,,,,,
65465ac216a26bebcc8d8b02,SCR,2024-06-25_14h25.14.842,LearnStrategy,2023.2.3,MacIntel,59.03187721,1,1,6,0.077777778,-0.091111111,1,0,0,2.933,Basalt_09,2,09,3,5,2.933,5,09,-0.102222222,-0.261111111,1,0,0,3.27,Basalt_rect,2,3.27,1,5,0,5,0,1,,,,,,,,,,,,,
65465ac216a26bebcc8d8b02,SCR,2024-06-25_14h25.14.842,LearnStrategy,2023.2.3,MacIntel,59.03187721,1,1,7,-0.431111111,0.276666667,1,0,0,4.216,Diorite_02,3,02,5,2,4.216,8,16,-0.341111111,-0.257777778,1,0,0,3.968,Andesite_rect,1,3.968,0,6,0,6,0,1,,,,,,,,,,,,,
65465ac216a26bebcc8d8b02,SCR,2024-06-25_14h25.14.842,LearnStrategy,2023.2.3,MacIntel,59.03187721,1,1,8,0.368888889,0.41,1,0,0,2.248,Pegmatite_09,6,09,6,7,2.248,4,09,0.137777778,-0.402222222,1,0,0,4.58,Peridotite_rect,7,4.58,0,7,0,7,0,1,,,,,,,,,,,,,
65465ac216a26bebcc8d8b02,SCR,2024-06-25_14h25.14.842,LearnStrategy,2023.2.3,MacIntel,59.03187721,1,1,9,-0.22,-0.267777778,1,0,0,2.748,Obsidian_07,5,07,2,3,2.748,7,16,-0.33,-0.393333333,1,0,0,3.178,Obsidian_rect,5,3.178,1,8,0,8,0,1,,,,,,,,,,,,,
65465ac216a26bebcc8d8b02,SCR,2024-06-25_14h25.14.842,LearnStrategy,2023.2.3,MacIntel,59.03187721,1,1,10,-0.4,-0.428888889,1,0,0,2.565,Pumice_16,8,16,1,2,2.565,1,05,0.368888889,-0.415555556,1,0,0,2.156,Pumice_rect,8,2.156,1,9,0,9,0,1,,,,,,,,,,,,,
65465ac216a26bebcc8d8b02,SCR,2024-06-25_14h25.14.842,LearnStrategy,2023.2.3,MacIntel,59.03187721,1,1,11,0.394444444,-0.098888889,1,0,0,1.763,Peridotite_06,7,06,3,7,1.763,2,01,0.1,-0.408888889,1,0,0,1.671,Peridotite_rect,7,1.671,1,10,0,10,0,1,,,,,,,,,,,,,
65465ac216a26bebcc8d8b02,SCR,2024-06-25_14h25.14.842,LearnStrategy,2023.2.3,MacIntel,59.03187721,1,1,12,-0.541111111,0.421111111,1,0,0,2.915,Gabbro_12,4,12,6,1,2.915,6,09,-0.376666667,-0.232222222,1,0,0,6.296,Andesite_rect,1,6.296,0,11,0,11,0,1,,,,,,,,,,,,,
65465ac216a26bebcc8d8b02,SCR,2024-06-25_14h25.14.842,LearnStrategy,2023.2.3,MacIntel,59.03187721,1,1,13,0.357777778,-0.245555556,1,0,0,2.616,Diorite_12,3,12,2,7,2.616,6,05,0.077777778,-0.267777778,1,0,0,3.857,Diorite_rect,3,3.857,1,12,0,12,0,1,,,,,,,,,,,,,
65465ac216a26bebcc8d8b02,SCR,2024-06-25_14h25.14.842,LearnStrategy,2023.2.3,MacIntel,59.03187721,1,1,14,-0.526666667,-0.117777778,1,0,0,1.596,Pumice_02,8,02,3,1,1.596,7,08,0.355555556,-0.415555556,1,0,0,2.004,Pumice_rect,8,2.004,1,13,0,13,0,1,,,,,,,,,,,,,
65465ac216a26bebcc8d8b02,SCR,2024-06-25_14h25.14.842,LearnStrategy,2023.2.3,MacIntel,59.03187721,1,1,15,0.56,0.102222222,1,0,0,3.532,Pegmatite_08,6,08,4,8,3.532,8,02,-0.038888889,-0.266666667,1,0,0,4.271,Basalt_rect,2,4.271,0,14,0,14,0,1,,,,,,,,,,,,,
65465ac216a26bebcc8d8b02,SCR,2024-06-25_14h25.14.842,LearnStrategy,2023.2.3,MacIntel,59.03187721,1,1,16,0.402222222,0.088888889,1,0,0,3.566,Andesite_01,1,01,4,7,3.566,1,01,0.382222222,-0.263333333,1,0,0,4.951,Gabbro_rect,4,4.951,0,15,0,15,0,1,,,,,,,,,,,,,
65465ac216a26bebcc8d8b02,SCR,2024-06-25_14h25.14.842,LearnStrategy,2023.2.3,MacIntel,59.03187721,1,2,1,,,,,,,,8,14,,,,,,,,,,,,,8,1.499,1,,,,,,0.434444444,-0.413333333,1,0,0,1.499,Pumice_rect,0,0,0,0,1,
65465ac216a26bebcc8d8b02,SCR,2024-06-25_14h25.14.842,LearnStrategy,2023.2.3,MacIntel,59.03187721,1,2,2,,,,,,,,5,05,,,,,,,,,,,,,5,3.657,1,,,,,,-0.326666667,-0.395555556,1,0,0,3.657,Obsidian_rect,1,0,1,0,1,
65465ac216a26bebcc8d8b02,SCR,2024-06-25_14h25.14.842,LearnStrategy,2023.2.3,MacIntel,59.03187721,1,2,3,,,,,,,,3,09,,,,,,,,,,,,,6,3.149,0,,,,,,-0.162222222,-0.415555556,1,0,0,3.149,Pegmatite_rect,2,0,2,0,1,
65465ac216a26bebcc8d8b02,SCR,2024-06-25_14h25.14.842,LearnStrategy,2023.2.3,MacIntel,59.03187721,1,2,4,,,,,,,,1,03,,,,,,,,,,,,,4,3.053,0,,,,,,0.326666667,-0.246666667,1,0,0,3.053,Gabbro_rect,3,0,3,0,1,
65465ac216a26bebcc8d8b02,SCR,2024-06-25_14h25.14.842,LearnStrategy,2023.2.3,MacIntel,59.03187721,1,2,5,,,,,,,,5,10,,,,,,,,,,,,,5,2.084,1,,,,,,-0.364444444,-0.396666667,1,0,0,2.084,Obsidian_rect,4,0,4,0,1,
65465ac216a26bebcc8d8b02,SCR,2024-06-25_14h25.14.842,LearnStrategy,2023.2.3,MacIntel,59.03187721,1,2,6,,,,,,,,1,07,,,,,,,,,,,,,6,3.332,0,,,,,,-0.067777778,-0.402222222,1,0,0,3.332,Pegmatite_rect,5,0,5,0,1,
65465ac216a26bebcc8d8b02,SCR,2024-06-25_14h25.14.842,LearnStrategy,2023.2.3,MacIntel,59.03187721,1,2,7,,,,,,,,3,14,,,,,,,,,,,,,6,1.856,0,,,,,,-0.066666667,-0.404444444,1,0,0,1.856,Pegmatite_rect,6,0,6,0,1,
65465ac216a26bebcc8d8b02,SCR,2024-06-25_14h25.14.842,LearnStrategy,2023.2.3,MacIntel,59.03187721,1,2,8,,,,,,,,7,15,,,,,,,,,,,,,7,1.798,1,,,,,,0.146666667,-0.402222222,1,0,0,1.798,Peridotite_rect,7,0,7,0,1,
65465ac216a26bebcc8d8b02,SCR,2024-06-25_14h25.14.842,LearnStrategy,2023.2.3,MacIntel,59.03187721,1,2,9,,,,,,,,7,13,,,,,,,,,,,,,7,1.272,1,,,,,,0.146666667,-0.402222222,1,0,0,1.272,Peridotite_rect,8,0,8,0,1,
65465ac216a26bebcc8d8b02,SCR,2024-06-25_14h25.14.842,LearnStrategy,2023.2.3,MacIntel,59.03187721,1,2,10,,,,,,,,8,09,,,,,,,,,,,,,8,1.369,1,,,,,,0.381111111,-0.398888889,1,0,0,1.369,Pumice_rect,9,0,9,0,1,
65465ac216a26bebcc8d8b02,SCR,2024-06-25_14h25.14.842,LearnStrategy,2023.2.3,MacIntel,59.03187721,1,2,11,,,,,,,,2,05,,,,,,,,,,,,,2,2.647,1,,,,,,-0.068888889,-0.254444444,1,0,0,2.647,Basalt_rect,10,0,10,0,1,
65465ac216a26bebcc8d8b02,SCR,2024-06-25_14h25.14.842,LearnStrategy,2023.2.3,MacIntel,59.03187721,1,2,12,,,,,,,,6,03,,,,,,,,,,,,,7,2.74,0,,,,,,0.15,-0.401111111,1,0,0,2.74,Peridotite_rect,11,0,11,0,1,
65465ac216a26bebcc8d8b02,SCR,2024-06-25_14h25.14.842,LearnStrategy,2023.2.3,MacIntel,59.03187721,1,2,13,,,,,,,,2,16,,,,,,,,,,,,,4,5.048,0,,,,,,0.338888889,-0.24,1,0,0,5.048,Gabbro_rect,12,0,12,0,1,
65465ac216a26bebcc8d8b02,SCR,2024-06-25_14h25.14.842,LearnStrategy,2023.2.3,MacIntel,59.03187721,1,2,14,,,,,,,,6,15,,,,,,,,,,,,,2,5.222,0,,,,,,-0.174444444,-0.264444444,1,0,0,5.222,Basalt_rect,13,0,13,0,1,
65465ac216a26bebcc8d8b02,SCR,2024-06-25_14h25.14.842,LearnStrategy,2023.2.3,MacIntel,59.03187721,1,2,15,,,,,,,,4,05,,,,,,,,,,,,,3,4.953,0,,,,,,0.122222222,-0.263333333,1,0,0,4.953,Diorite_rect,14,0,14,0,1,
65465ac216a26bebcc8d8b02,SCR,2024-06-25_14h25.14.842,LearnStrategy,2023.2.3,MacIntel,59.03187721,1,2,16,,,,,,,,4,14,,,,,,,,,,,,,3,2.429,0,,,,,,0.122222222,-0.263333333,1,0,0,2.429,Diorite_rect,15,0,15,0,1,
65465ac216a26bebcc8d8b02,SCR,2024-06-25_14h25.14.842,LearnStrategy,2023.2.3,MacIntel,59.03187721,2,1,1,-0.415555556,-0.053333333,1,0,0,2.063,Andesite_09,1,09,3,2,2.063,1,09,-0.393333333,-0.255555556,1,0,0,4.199,Andesite_rect,1,4.199,1,0,0,0,0,1,,,,,,,,,,,,,
65465ac216a26bebcc8d8b02,SCR,2024-06-25_14h25.14.842,LearnStrategy,2023.2.3,MacIntel,59.03187721,2,1,2,0.07,-0.271111111,1,0,0,1.032,Diorite_11,3,11,2,5,1.032,3,11,-0.094444444,-0.402222222,1,0,0,2.356,Pegmatite_rect,6,2.356,0,1,0,1,0,1,,,,,,,,,,,,,
65465ac216a26bebcc8d8b02,SCR,2024-06-25_14h25.14.842,LearnStrategy,2023.2.3,MacIntel,59.03187721,2,1,3,-0.201111111,0.073333333,1,0,0,1.212,Basalt_11,2,11,4,3,1.212,2,11,-0.137777778,-0.241111111,1,0,0,3.053,Basalt_rect,2,3.053,1,2,0,2,0,1,,,,,,,,,,,,,
65465ac216a26bebcc8d8b02,SCR,2024-06-25_14h25.14.842,LearnStrategy,2023.2.3,MacIntel,59.03187721,2,1,4,0.045555556,-0.412222222,1,0,0,2.771,Diorite_15,3,15,1,5,2.771,3,15,0.035555556,-0.271111111,1,0,0,2.721,Diorite_rect,3,2.721,1,3,0,3,0,1,,,,,,,,,,,,,
65465ac216a26bebcc8d8b02,SCR,2024-06-25_14h25.14.842,LearnStrategy,2023.2.3,MacIntel,59.03187721,2,1,5,-0.398888889,0.096666667,1,0,0,2.112,Pegmatite_06,6,06,4,2,2.112,6,06,0.17,-0.237777778,1,0,0,4.385,Diorite_rect,3,4.385,0,4,0,4,0,1,,,,,,,,,,,,,
65465ac216a26bebcc8d8b02,SCR,2024-06-25_14h25.14.842,LearnStrategy,2023.2.3,MacIntel,59.03187721,2,1,6,0.355555556,0.241111111,1,0,0,1.3,Pegmatite_05,6,05,5,7,1.3,6,05,-0.353333333,-0.228888889,1,0,0,4.188,Andesite_rect,1,4.188,0,5,0,5,0,1,,,,,,,,,,,,,
65465ac216a26bebcc8d8b02,SCR,2024-06-25_14h25.14.842,LearnStrategy,2023.2.3,MacIntel,59.03187721,2,1,7,0.368888889,0.392222222,1,0,0,1.368,Pegmatite_09,6,09,6,7,1.368,6,09,0.117777778,-0.4,1,0,0,1.583,Peridotite_rect,7,1.583,0,6,0,6,0,1,,,,,,,,,,,,,
65465ac216a26bebcc8d8b02,SCR,2024-06-25_14h25.14.842,LearnStrategy,2023.2.3,MacIntel,59.03187721,2,1,8,0.267777778,-0.294444444,1,0,0,1.804,Pegmatite_12,6,12,2,6,1.804,6,12,0.12,-0.251111111,1,0,0,3.837,Diorite_rect,3,3.837,0,7,0,7,0,1,,,,,,,,,,,,,
65465ac216a26bebcc8d8b02,SCR,2024-06-25_14h25.14.842,LearnStrategy,2023.2.3,MacIntel,59.03187721,2,1,9,0.274444444,0.401111111,1,0,0,1.533,Basalt_04,2,04,6,6,1.533,2,04,-0.151111111,-0.247777778,1,0,0,4.901,Basalt_rect,2,4.901,1,8,0,8,0,1,,,,,,,,,,,,,
65465ac216a26bebcc8d8b02,SCR,2024-06-25_14h25.14.842,LearnStrategy,2023.2.3,MacIntel,59.03187721,2,1,10,-0.207777778,-0.377777778,1,0,0,1.199,Peridotite_08,7,08,1,3,1.199,7,08,0.083333333,-0.385555556,1,0,0,2.385,Peridotite_rect,7,2.385,1,9,0,9,0,1,,,,,,,,,,,,,
65465ac216a26bebcc8d8b02,SCR,2024-06-25_14h25.14.842,LearnStrategy,2023.2.3,MacIntel,59.03187721,2,1,11,0.232222222,-0.096666667,1,0,0,0.866,Gabbro_09,4,09,3,6,0.866,4,09,-0.072222222,-0.234444444,1,0,0,2.774,Basalt_rect,2,2.774,0,10,0,10,0,1,,,,,,,,,,,,,
65465ac216a26bebcc8d8b02,SCR,2024-06-25_14h25.14.842,LearnStrategy,2023.2.3,MacIntel,59.03187721,2,1,12,0.398888889,-0.256666667,1,0,0,1.179,Diorite_12,3,12,2,7,1.179,3,12,0.171111111,-0.26,1,0,0,2.73,Diorite_rect,3,2.73,1,11,0,11,0,1,,,,,,,,,,,,,
65465ac216a26bebcc8d8b02,SCR,2024-06-25_14h25.14.842,LearnStrategy,2023.2.3,MacIntel,59.03187721,2,1,13,0.075555556,0.416666667,1,0,0,1.463,Gabbro_08,4,08,6,5,1.463,4,08,-0.181111111,-0.233333333,1,0,0,1.747,Basalt_rect,2,1.747,0,12,0,12,0,1,,,,,,,,,,,,,
65465ac216a26bebcc8d8b02,SCR,2024-06-25_14h25.14.842,LearnStrategy,2023.2.3,MacIntel,59.03187721,2,1,14,0.366666667,0.09,1,0,0,1.078,Andesite_01,1,01,4,7,1.078,1,01,0.083333333,-0.261111111,1,0,0,4.748,Diorite_rect,3,4.748,0,13,0,13,0,1,,,,,,,,,,,,,
65465ac216a26bebcc8d8b02,SCR,2024-06-25_14h25.14.842,LearnStrategy,2023.2.3,MacIntel,59.03187721,2,1,15,0.418888889,-0.398888889,1,0,0,1.178,Andesite_14,1,14,1,7,1.178,1,14,-0.094444444,-0.406666667,1,0,0,3.829,Pegmatite_rect,6,3.829,0,14,0,14,0,1,,,,,,,,,,,,,
65465ac216a26bebcc8d8b02,SCR,2024-06-25_14h25.14.842,LearnStrategy,2023.2.3,MacIntel,59.03187721,2,1,16,-0.103333333,0.283333333,1,0,0,1.266,Gabbro_13,4,13,5,4,1.266,4,13,-0.435555556,-0.236666667,1,0,0,2.791,Andesite_rect,1,2.791,0,15,0,15,0,1,,,,,,,,,,,,,
65465ac216a26bebcc8d8b02,SCR,2024-06-25_14h25.14.842,LearnStrategy,2023.2.3,MacIntel,59.03187721,2,2,1,,,,,,,,6,13,,,,,,,,,,,,,6,4.444,1,,,,,,-0.101111111,-0.402222222,1,0,0,4.444,Pegmatite_rect,0,0,0,0,1,
65465ac216a26bebcc8d8b02,SCR,2024-06-25_14h25.14.842,LearnStrategy,2023.2.3,MacIntel,59.03187721,2,2,2,,,,,,,,5,12,,,,,,,,,,,,,5,3.31,1,,,,,,-0.354444444,-0.392222222,1,0,0,3.31,Obsidian_rect,1,0,1,0,1,
65465ac216a26bebcc8d8b02,SCR,2024-06-25_14h25.14.842,LearnStrategy,2023.2.3,MacIntel,59.03187721,2,2,3,,,,,,,,2,08,,,,,,,,,,,,,2,1.591,1,,,,,,-0.196666667,-0.258888889,1,0,0,1.591,Basalt_rect,2,0,2,0,1,
65465ac216a26bebcc8d8b02,SCR,2024-06-25_14h25.14.842,LearnStrategy,2023.2.3,MacIntel,59.03187721,2,2,4,,,,,,,,2,12,,,,,,,,,,,,,4,3.691,0,,,,,,0.392222222,-0.271111111,1,0,0,3.691,Gabbro_rect,3,0,3,0,1,
65465ac216a26bebcc8d8b02,SCR,2024-06-25_14h25.14.842,LearnStrategy,2023.2.3,MacIntel,59.03187721,2,2,5,,,,,,,,8,15,,,,,,,,,,,,,1,3.697,0,,,,,,-0.333333333,-0.247777778,1,0,0,3.697,Andesite_rect,4,0,4,0,1,
65465ac216a26bebcc8d8b02,SCR,2024-06-25_14h25.14.842,LearnStrategy,2023.2.3,MacIntel,59.03187721,2,2,6,,,,,,,,1,02,,,,,,,,,,,,,6,2.862,0,,,,,,-0.058888889,-0.414444444,1,0,0,2.862,Pegmatite_rect,5,0,5,0,1,
65465ac216a26bebcc8d8b02,SCR,2024-06-25_14h25.14.842,LearnStrategy,2023.2.3,MacIntel,59.03187721,2,2,7,,,,,,,,4,03,,,,,,,,,,,,,6,2.397,0,,,,,,-0.058888889,-0.412222222,1,0,0,2.397,Pegmatite_rect,6,0,6,0,1,
65465ac216a26bebcc8d8b02,SCR,2024-06-25_14h25.14.842,LearnStrategy,2023.2.3,MacIntel,59.03187721,2,2,8,,,,,,,,6,16,,,,,,,,,,,,,3,2.276,0,,,,,,0.093333333,-0.266666667,1,0,0,2.276,Diorite_rect,7,0,7,0,1,
65465ac216a26bebcc8d8b02,SCR,2024-06-25_14h25.14.842,LearnStrategy,2023.2.3,MacIntel,59.03187721,2,2,9,,,,,,,,3,06,,,,,,,,,,,,,6,1.972,0,,,,,,-0.031111111,-0.401111111,0,0,1,1.972,Pegmatite_rect,8,0,8,0,1,
65465ac216a26bebcc8d8b02,SCR,2024-06-25_14h25.14.842,LearnStrategy,2023.2.3,MacIntel,59.03187721,2,2,10,,,,,,,,1,06,,,,,,,,,,,,,6,2.427,0,,,,,,-0.202222222,-0.388888889,1,0,0,2.427,Pegmatite_rect,9,0,9,0,1,
65465ac216a26bebcc8d8b02,SCR,2024-06-25_14h25.14.842,LearnStrategy,2023.2.3,MacIntel,59.03187721,2,2,11,,,,,,,,8,13,,,,,,,,,,,,,8,2.48,1,,,,,,0.293333333,-0.395555556,1,0,0,2.48,Pumice_rect,10,0,10,0,1,
65465ac216a26bebcc8d8b02,SCR,2024-06-25_14h25.14.842,LearnStrategy,2023.2.3,MacIntel,59.03187721,2,2,12,,,,,,,,7,05,,,,,,,,,,,,,4,3.054,0,,,,,,0.31,-0.237777778,1,0,0,3.054,Gabbro_rect,11,0,11,0,1,
65465ac216a26bebcc8d8b02,SCR,2024-06-25_14h25.14.842,LearnStrategy,2023.2.3,MacIntel,59.03187721,2,2,13,,,,,,,,5,06,,,,,,,,,,,,,5,1.747,1,,,,,,-0.462222222,-0.406666667,1,0,0,1.747,Obsidian_rect,12,0,12,0,1,
65465ac216a26bebcc8d8b02,SCR,2024-06-25_14h25.14.842,LearnStrategy,2023.2.3,MacIntel,59.03187721,2,2,14,,,,,,,,3,08,,,,,,,,,,,,,6,1.681,0,,,,,,-0.228888889,-0.404444444,1,0,0,1.681,Pegmatite_rect,13,0,13,0,1,
65465ac216a26bebcc8d8b02,SCR,2024-06-25_14h25.14.842,LearnStrategy,2023.2.3,MacIntel,59.03187721,2,2,15,,,,,,,,4,10,,,,,,,,,,,,,4,1.927,1,,,,,,0.317777778,-0.238888889,1,0,0,1.927,Gabbro_rect,14,0,14,0,1,
65465ac216a26bebcc8d8b02,SCR,2024-06-25_14h25.14.842,LearnStrategy,2023.2.3,MacIntel,59.03187721,2,2,16,,,,,,,,7,02,,,,,,,,,,,,,7,1.567,1,,,,,,0.174444444,-0.42,1,0,0,1.567,Peridotite_rect,15,0,15,0,1,
65465ac216a26bebcc8d8b02,SCR,2024-06-25_14h25.14.842,LearnStrategy,2023.2.3,MacIntel,59.03187721,3,1,1,0.397777778,-0.258888889,1,0,0,1.314,Diorite_12,3,12,2,7,1.314,3,12,0.377777778,-0.245555556,1,0,0,1.117,Gabbro_rect,4,1.117,0,0,0,0,0,1,,,,,,,,,,,,,
65465ac216a26bebcc8d8b02,SCR,2024-06-25_14h25.14.842,LearnStrategy,2023.2.3,MacIntel,59.03187721,3,1,2,0.52,0.063333333,1,0,0,1.078,Pegmatite_08,6,08,4,8,1.078,6,08,-0.06,-0.404444444,1,0,0,3.038,Pegmatite_rect,6,3.038,1,1,0,1,0,1,,,,,,,,,,,,,
65465ac216a26bebcc8d8b02,SCR,2024-06-25_14h25.14.842,LearnStrategy,2023.2.3,MacIntel,59.03187721,3,1,3,0.26,-0.418888889,1,0,0,1.746,Gabbro_16,4,16,1,6,1.746,4,16,0.392222222,-0.263333333,1,0,0,1.565,Gabbro_rect,4,1.565,1,2,0,2,0,1,,,,,,,,,,,,,
65465ac216a26bebcc8d8b02,SCR,2024-06-25_14h25.14.842,LearnStrategy,2023.2.3,MacIntel,59.03187721,3,1,4,0.035555556,-0.24,1,0,0,1.03,Diorite_11,3,11,2,5,1.03,3,11,-0.124444444,-0.42,1,0,0,1.012,Pegmatite_rect,6,1.012,0,3,0,3,0,1,,,,,,,,,,,,,
65465ac216a26bebcc8d8b02,SCR,2024-06-25_14h25.14.842,LearnStrategy,2023.2.3,MacIntel,59.03187721,3,1,5,0.402222222,-0.432222222,1,0,0,1.567,Andesite_14,1,14,1,7,1.567,1,14,0.104444444,-0.25,1,0,0,8.118,Diorite_rect,3,8.118,0,4,0,4,0,1,,,,,,,,,,,,,
65465ac216a26bebcc8d8b02,SCR,2024-06-25_14h25.14.842,LearnStrategy,2023.2.3,MacIntel,59.03187721,3,1,6,-0.227777778,-0.378888889,1,0,0,1.183,Peridotite_08,7,08,1,3,1.183,7,08,0.411111111,-0.245555556,1,0,0,2.648,Gabbro_rect,4,2.648,0,5,0,5,0,1,,,,,,,,,,,,,
65465ac216a26bebcc8d8b02,SCR,2024-06-25_14h25.14.842,LearnStrategy,2023.2.3,MacIntel,59.03187721,3,1,7,0.202222222,0.077777778,1,0,0,1.048,Basalt_14,2,14,4,6,1.048,2,14,0.336666667,-0.395555556,1,0,0,2.822,Pumice_rect,8,2.822,0,6,0,6,0,1,,,,,,,,,,,,,
65465ac216a26bebcc8d8b02,SCR,2024-06-25_14h25.14.842,LearnStrategy,2023.2.3,MacIntel,59.03187721,3,1,8,-0.564444444,-0.401111111,1,0,0,1.275,Pumice_04,8,04,1,1,1.275,8,04,0.356666667,-0.403333333,1,0,0,1.212,Pumice_rect,8,1.212,1,7,0,7,0,1,,,,,,,,,,,,,
65465ac216a26bebcc8d8b02,SCR,2024-06-25_14h25.14.842,LearnStrategy,2023.2.3,MacIntel,59.03187721,3,1,9,-0.373333333,-0.111111111,1,0,0,0.899,Andesite_09,1,09,3,2,0.899,1,09,-0.344444444,-0.236666667,1,0,0,5.709,Andesite_rect,1,5.709,1,8,0,8,0,1,,,,,,,,,,,,,
65465ac216a26bebcc8d8b02,SCR,2024-06-25_14h25.14.842,LearnStrategy,2023.2.3,MacIntel,59.03187721,3,1,10,0.076666667,-0.43,1,0,0,1.049,Diorite_15,3,15,1,5,1.049,3,15,-0.091111111,-0.408888889,1,0,0,1.351,Pegmatite_rect,6,1.351,0,9,0,9,0,1,,,,,,,,,,,,,
65465ac216a26bebcc8d8b02,SCR,2024-06-25_14h25.14.842,LearnStrategy,2023.2.3,MacIntel,59.03187721,3,1,11,0.522222222,-0.255555556,1,0,0,1.214,Andesite_11,1,11,2,8,1.214,1,11,-0.377777778,-0.241111111,1,0,0,4.398,Andesite_rect,1,4.398,1,10,0,10,0,1,,,,,,,,,,,,,
65465ac216a26bebcc8d8b02,SCR,2024-06-25_14h25.14.842,LearnStrategy,2023.2.3,MacIntel,59.03187721,3,1,12,0.565555556,0.105555556,1,0,0,1.016,Pegmatite_08,6,08,4,8,1.016,6,08,-0.122222222,-0.404444444,1,0,0,2.643,Pegmatite_rect,6,2.643,1,11,0,11,0,1,,,,,,,,,,,,,
65465ac216a26bebcc8d8b02,SCR,2024-06-25_14h25.14.842,LearnStrategy,2023.2.3,MacIntel,59.03187721,3,1,13,-0.067777778,-0.255555556,1,0,0,1.031,Basalt_10,2,10,2,4,1.031,2,10,0.36,-0.24,1,0,0,1.473,Gabbro_rect,4,1.473,0,12,0,12,0,1,,,,,,,,,,,,,
65465ac216a26bebcc8d8b02,SCR,2024-06-25_14h25.14.842,LearnStrategy,2023.2.3,MacIntel,59.03187721,3,1,14,-0.547777778,-0.217777778,1,0,0,1.246,Pegmatite_11,6,11,2,1,1.246,6,11,-0.071111111,-0.406666667,1,0,0,3.049,Pegmatite_rect,6,3.049,1,13,0,13,0,1,,,,,,,,,,,,,
65465ac216a26bebcc8d8b02,SCR,2024-06-25_14h25.14.842,LearnStrategy,2023.2.3,MacIntel,59.03187721,3,1,15,-0.561111111,0.41,1,0,0,1.78,Gabbro_12,4,12,6,1,1.78,4,12,0.434444444,-0.241111111,1,0,0,4.27,Gabbro_rect,4,4.27,1,14,0,14,0,1,,,,,,,,,,,,,
65465ac216a26bebcc8d8b02,SCR,2024-06-25_14h25.14.842,LearnStrategy,2023.2.3,MacIntel,59.03187721,3,1,16,-0.103333333,0.246666667,1,0,0,0.831,Gabbro_13,4,13,5,4,0.831,4,13,-0.397777778,-0.244444444,1,0,0,3.345,Andesite_rect,1,3.345,0,15,0,15,0,1,,,,,,,,,,,,,
65465ac216a26bebcc8d8b02,SCR,2024-06-25_14h25.14.842,LearnStrategy,2023.2.3,MacIntel,59.03187721,3,2,1,,,,,,,,4,01,,,,,,,,,,,,,4,2.101,1,,,,,,0.331111111,-0.256666667,1,0,0,2.101,Gabbro_rect,0,0,0,0,1,
65465ac216a26bebcc8d8b02,SCR,2024-06-25_14h25.14.842,LearnStrategy,2023.2.3,MacIntel,59.03187721,3,2,2,,,,,,,,4,11,,,,,,,,,,,,,4,2.468,1,,,,,,0.331111111,-0.26,1,0,0,2.468,Gabbro_rect,1,0,1,0,1,
65465ac216a26bebcc8d8b02,SCR,2024-06-25_14h25.14.842,LearnStrategy,2023.2.3,MacIntel,59.03187721,3,2,3,,,,,,,,2,06,,,,,,,,,,,,,2,2.437,1,,,,,,-0.087777778,-0.253333333,1,0,0,2.437,Basalt_rect,2,0,2,0,1,
65465ac216a26bebcc8d8b02,SCR,2024-06-25_14h25.14.842,LearnStrategy,2023.2.3,MacIntel,59.03187721,3,2,4,,,,,,,,8,06,,,,,,,,,,,,,8,1.392,1,,,,,,0.344444444,-0.398888889,1,0,0,1.392,Pumice_rect,3,0,3,0,1,
65465ac216a26bebcc8d8b02,SCR,2024-06-25_14h25.14.842,LearnStrategy,2023.2.3,MacIntel,59.03187721,3,2,5,,,,,,,,1,16,,,,,,,,,,,,,1,2.923,1,,,,,,-0.374444444,-0.248888889,1,0,0,2.923,Andesite_rect,4,0,4,0,1,
65465ac216a26bebcc8d8b02,SCR,2024-06-25_14h25.14.842,LearnStrategy,2023.2.3,MacIntel,59.03187721,3,2,6,,,,,,,,1,10,,,,,,,,,,,,,1,1.468,1,,,,,,-0.374444444,-0.248888889,1,0,0,1.468,Andesite_rect,5,0,5,0,1,
65465ac216a26bebcc8d8b02,SCR,2024-06-25_14h25.14.842,LearnStrategy,2023.2.3,MacIntel,59.03187721,3,2,7,,,,,,,,8,03,,,,,,,,,,,,,8,1.45,1,,,,,,0.32,-0.393333333,1,0,0,1.45,Pumice_rect,6,0,6,0,1,
65465ac216a26bebcc8d8b02,SCR,2024-06-25_14h25.14.842,LearnStrategy,2023.2.3,MacIntel,59.03187721,3,2,8,,,,,,,,5,11,,,,,,,,,,,,,5,1.742,1,,,,,,-0.347777778,-0.408888889,1,0,0,1.742,Obsidian_rect,7,0,7,0,1,
65465ac216a26bebcc8d8b02,SCR,2024-06-25_14h25.14.842,LearnStrategy,2023.2.3,MacIntel,59.03187721,3,2,9,,,,,,,,3,10,,,,,,,,,,,,,3,3.871,1,,,,,,0.183333333,-0.233333333,1,0,0,3.871,Diorite_rect,8,0,8,0,1,
65465ac216a26bebcc8d8b02,SCR,2024-06-25_14h25.14.842,LearnStrategy,2023.2.3,MacIntel,59.03187721,3,2,10,,,,,,,,7,04,,,,,,,,,,,,,6,2.835,0,,,,,,-0.113333333,-0.416666667,1,0,0,2.835,Pegmatite_rect,9,0,9,0,1,
65465ac216a26bebcc8d8b02,SCR,2024-06-25_14h25.14.842,LearnStrategy,2023.2.3,MacIntel,59.03187721,3,2,11,,,,,,,,3,16,,,,,,,,,,,,,1,2.136,0,,,,,,-0.31,-0.252222222,1,0,0,2.136,Andesite_rect,10,0,10,0,1,
65465ac216a26bebcc8d8b02,SCR,2024-06-25_14h25.14.842,LearnStrategy,2023.2.3,MacIntel,59.03187721,3,2,12,,,,,,,,6,07,,,,,,,,,,,,,6,2.184,1,,,,,,-0.117777778,-0.412222222,1,0,0,2.184,Pegmatite_rect,11,0,11,0,1,
65465ac216a26bebcc8d8b02,SCR,2024-06-25_14h25.14.842,LearnStrategy,2023.2.3,MacIntel,59.03187721,3,2,13,,,,,,,,2,02,,,,,,,,,,,,,4,3.091,0,,,,,,0.315555556,-0.25,1,0,0,3.091,Gabbro_rect,12,0,12,0,1,
65465ac216a26bebcc8d8b02,SCR,2024-06-25_14h25.14.842,LearnStrategy,2023.2.3,MacIntel,59.03187721,3,2,14,,,,,,,,7,07,,,,,,,,,,,,,7,2.142,1,,,,,,0.134444444,-0.413333333,1,0,0,2.142,Peridotite_rect,13,0,13,0,1,
65465ac216a26bebcc8d8b02,SCR,2024-06-25_14h25.14.842,LearnStrategy,2023.2.3,MacIntel,59.03187721,3,2,15,,,,,,,,5,02,,,,,,,,,,,,,5,1.594,1,,,,,,-0.321111111,-0.401111111,1,0,0,1.594,Obsidian_rect,14,0,14,0,1,
65465ac216a26bebcc8d8b02,SCR,2024-06-25_14h25.14.842,LearnStrategy,2023.2.3,MacIntel,59.03187721,3,2,16,,,,,,,,6,10,,,,,,,,,,,,,7,1.19,0,,,,,,0.15,-0.411111111,1,0,0,1.19,Peridotite_rect,15,0,15,0,1,
65465ac216a26bebcc8d8b02,SCR,2024-06-25_14h25.14.842,LearnStrategy,2023.2.3,MacIntel,59.03187721,4,1,1,0.428888889,0.228888889,1,0,0,0.966,Pegmatite_05,6,05,5,7,0.966,6,05,-0.184444444,-0.414444444,1,0,0,1.65,Pegmatite_rect,6,1.65,1,0,0,0,0,1,,,,,,,,,,,,,
65465ac216a26bebcc8d8b02,SCR,2024-06-25_14h25.14.842,LearnStrategy,2023.2.3,MacIntel,59.03187721,4,1,2,0.045555556,-0.294444444,1,0,0,1.467,Diorite_11,3,11,2,5,1.467,3,11,-0.435555556,-0.254444444,1,0,0,1.162,Andesite_rect,1,1.162,0,1,0,1,0,1,,,,,,,,,,,,,
65465ac216a26bebcc8d8b02,SCR,2024-06-25_14h25.14.842,LearnStrategy,2023.2.3,MacIntel,59.03187721,4,1,3,0.065555556,-0.225555556,1,0,0,0.849,Diorite_11,3,11,2,5,0.849,3,11,0.115555556,-0.26,1,0,0,0.814,Diorite_rect,3,0.814,1,2,0,2,0,1,,,,,,,,,,,,,
65465ac216a26bebcc8d8b02,SCR,2024-06-25_14h25.14.842,LearnStrategy,2023.2.3,MacIntel,59.03187721,4,1,4,0.528888889,-0.106666667,1,0,0,1.112,Gabbro_15,4,15,3,8,1.112,4,15,0.168888889,-0.243333333,1,0,0,1.254,Diorite_rect,3,1.254,0,3,0,3,0,1,,,,,,,,,,,,,
65465ac216a26bebcc8d8b02,SCR,2024-06-25_14h25.14.842,LearnStrategy,2023.2.3,MacIntel,59.03187721,4,1,5,0.22,0.1,1,0,0,0.75,Basalt_14,2,14,4,6,0.75,2,14,0.4,-0.4,1,0,0,2.115,Pumice_rect,8,2.115,0,4,0,4,0,1,,,,,,,,,,,,,
65465ac216a26bebcc8d8b02,SCR,2024-06-25_14h25.14.842,LearnStrategy,2023.2.3,MacIntel,59.03187721,4,1,6,-0.531111111,0.413333333,1,0,0,1.396,Gabbro_12,4,12,6,1,1.396,4,12,0.332222222,-0.267777778,1,0,0,3.268,Gabbro_rect,4,3.268,1,5,0,5,0,1,,,,,,,,,,,,,
65465ac216a26bebcc8d8b02,SCR,2024-06-25_14h25.14.842,LearnStrategy,2023.2.3,MacIntel,59.03187721,4,1,7,0.37,-0.261111111,1,0,0,1.3,Diorite_12,3,12,2,7,1.3,3,12,0.092222222,-0.268888889,1,0,0,2.2,Diorite_rect,3,2.2,1,6,0,6,0,1,,,,,,,,,,,,,
65465ac216a26bebcc8d8b02,SCR,2024-06-25_14h25.14.842,LearnStrategy,2023.2.3,MacIntel,59.03187721,4,1,8,-0.531111111,0.104444444,1,0,0,1.062,Andesite_04,1,04,4,1,1.062,1,04,-0.423333333,-0.252222222,1,0,0,2.686,Andesite_rect,1,2.686,1,7,0,7,0,1,,,,,,,,,,,,,
65465ac216a26bebcc8d8b02,SCR,2024-06-25_14h25.14.842,LearnStrategy,2023.2.3,MacIntel,59.03187721,4,1,9,-0.381111111,-0.08,1,0,0,0.983,Andesite_09,1,09,3,2,0.983,1,09,-0.392222222,-0.243333333,1,0,0,1.444,Andesite_rect,1,1.444,1,8,0,8,0,1,,,,,,,,,,,,,
65465ac216a26bebcc8d8b02,SCR,2024-06-25_14h25.14.842,LearnStrategy,2023.2.3,MacIntel,59.03187721,4,1,10,0.563333333,0.457777778,1,0,0,1.08,Obsidian_14,5,14,6,8,1.08,5,14,-0.382222222,-0.39,1,0,0,1.604,Obsidian_rect,5,1.604,1,9,0,9,0,1,,,,,,,,,,,,,
65465ac216a26bebcc8d8b02,SCR,2024-06-25_14h25.14.842,LearnStrategy,2023.2.3,MacIntel,59.03187721,4,1,11,0.22,-0.262222222,1,0,0,0.998,Pegmatite_12,6,12,2,6,0.998,6,12,-0.038888889,-0.416666667,1,0,0,1.261,Pegmatite_rect,6,1.261,1,10,0,10,0,1,,,,,,,,,,,,,
65465ac216a26bebcc8d8b02,SCR,2024-06-25_14h25.14.842,LearnStrategy,2023.2.3,MacIntel,59.03187721,4,1,12,-0.584444444,0.301111111,1,0,0,1.263,Peridotite_14,7,14,5,1,1.263,7,14,0.09,-0.397777778,1,0,0,2.062,Peridotite_rect,7,2.062,1,11,0,11,0,1,,,,,,,,,,,,,
65465ac216a26bebcc8d8b02,SCR,2024-06-25_14h25.14.842,LearnStrategy,2023.2.3,MacIntel,59.03187721,4,1,13,-0.24,0.082222222,1,0,0,0.812,Basalt_11,2,11,4,3,0.812,2,11,-0.144444444,-0.242222222,1,0,0,1.79,Basalt_rect,2,1.79,1,12,0,12,0,1,,,,,,,,,,,,,
65465ac216a26bebcc8d8b02,SCR,2024-06-25_14h25.14.842,LearnStrategy,2023.2.3,MacIntel,59.03187721,4,1,14,0.374444444,0.268888889,1,0,0,1.234,Pegmatite_05,6,05,5,7,1.234,6,05,-0.191111111,-0.413333333,1,0,0,1.589,Pegmatite_rect,6,1.589,1,13,0,13,0,1,,,,,,,,,,,,,
65465ac216a26bebcc8d8b02,SCR,2024-06-25_14h25.14.842,LearnStrategy,2023.2.3,MacIntel,59.03187721,4,1,15,-0.547777778,-0.097777778,1,0,0,1.368,Pumice_02,8,02,3,1,1.368,8,02,0.332222222,-0.391111111,1,0,0,1.813,Pumice_rect,8,1.813,1,14,0,14,0,1,,,,,,,,,,,,,
65465ac216a26bebcc8d8b02,SCR,2024-06-25_14h25.14.842,LearnStrategy,2023.2.3,MacIntel,59.03187721,4,1,16,-0.064444444,0.435555556,1,0,0,1.163,Peridotite_12,7,12,6,4,1.163,7,12,0.163333333,-0.405555556,1,0,0,1.526,Peridotite_rect,7,1.526,1,15,0,15,0,1,,,,,,,,,,,,,
65465ac216a26bebcc8d8b02,SCR,2024-06-25_14h25.14.842,LearnStrategy,2023.2.3,MacIntel,59.03187721,4,2,1,,,,,,,,7,07,,,,,,,,,,,,,7,1.631,1,,,,,,0.03,-0.397777778,1,0,0,1.631,Peridotite_rect,0,0,0,0,1,
65465ac216a26bebcc8d8b02,SCR,2024-06-25_14h25.14.842,LearnStrategy,2023.2.3,MacIntel,59.03187721,4,2,2,,,,,,,,4,14,,,,,,,,,,,,,4,3.294,1,,,,,,0.363333333,-0.266666667,1,0,0,3.294,Gabbro_rect,1,0,1,0,1,
65465ac216a26bebcc8d8b02,SCR,2024-06-25_14h25.14.842,LearnStrategy,2023.2.3,MacIntel,59.03187721,4,2,3,,,,,,,,2,12,,,,,,,,,,,,,8,4.469,0,,,,,,0.394444444,-0.402222222,1,0,0,4.469,Pumice_rect,2,0,2,0,1,
65465ac216a26bebcc8d8b02,SCR,2024-06-25_14h25.14.842,LearnStrategy,2023.2.3,MacIntel,59.03187721,4,2,4,,,,,,,,4,10,,,,,,,,,,,,,2,2.005,0,,,,,,-0.088888889,-0.263333333,1,0,0,2.005,Basalt_rect,3,0,3,0,1,
65465ac216a26bebcc8d8b02,SCR,2024-06-25_14h25.14.842,LearnStrategy,2023.2.3,MacIntel,59.03187721,4,2,5,,,,,,,,1,10,,,,,,,,,,,,,4,4.027,0,,,,,,0.367777778,-0.248888889,1,0,0,4.027,Gabbro_rect,4,0,4,0,1,
65465ac216a26bebcc8d8b02,SCR,2024-06-25_14h25.14.842,LearnStrategy,2023.2.3,MacIntel,59.03187721,4,2,6,,,,,,,,6,10,,,,,,,,,,,,,7,3.203,0,,,,,,0.065555556,-0.412222222,1,0,0,3.203,Peridotite_rect,5,0,5,0,1,
65465ac216a26bebcc8d8b02,SCR,2024-06-25_14h25.14.842,LearnStrategy,2023.2.3,MacIntel,59.03187721,4,2,7,,,,,,,,2,05,,,,,,,,,,,,,2,1.808,1,,,,,,-0.147777778,-0.252222222,1,0,0,1.808,Basalt_rect,6,0,6,0,1,
65465ac216a26bebcc8d8b02,SCR,2024-06-25_14h25.14.842,LearnStrategy,2023.2.3,MacIntel,59.03187721,4,2,8,,,,,,,,1,16,,,,,,,,,,,,,3,2.98,0,,,,,,0.12,-0.261111111,1,0,0,2.98,Diorite_rect,7,0,7,0,1,
65465ac216a26bebcc8d8b02,SCR,2024-06-25_14h25.14.842,LearnStrategy,2023.2.3,MacIntel,59.03187721,4,2,9,,,,,,,,6,15,,,,,,,,,,,,,6,1.194,1,,,,,,-0.068888889,-0.384444444,1,0,0,1.194,Pegmatite_rect,8,0,8,0,1,
65465ac216a26bebcc8d8b02,SCR,2024-06-25_14h25.14.842,LearnStrategy,2023.2.3,MacIntel,59.03187721,4,2,10,,,,,,,,3,16,,,,,,,,,,,,,1,2.451,0,,,,,,-0.307777778,-0.263333333,1,0,0,2.451,Andesite_rect,9,0,9,0,1,
65465ac216a26bebcc8d8b02,SCR,2024-06-25_14h25.14.842,LearnStrategy,2023.2.3,MacIntel,59.03187721,4,2,11,,,,,,,,8,09,,,,,,,,,,,,,8,2.085,1,,,,,,0.38,-0.41,1,0,0,2.085,Pumice_rect,10,0,10,0,1,
65465ac216a26bebcc8d8b02,SCR,2024-06-25_14h25.14.842,LearnStrategy,2023.2.3,MacIntel,59.03187721,4,2,12,,,,,,,,3,08,,,,,,,,,,,,,1,1.719,0,,,,,,-0.357777778,-0.256666667,1,0,0,1.719,Andesite_rect,11,0,11,0,1,
65465ac216a26bebcc8d8b02,SCR,2024-06-25_14h25.14.842,LearnStrategy,2023.2.3,MacIntel,59.03187721,4,2,13,,,,,,,,5,11,,,,,,,,,,,,,5,1.299,1,,,,,,-0.408888889,-0.406666667,1,0,0,1.299,Obsidian_rect,12,0,12,0,1,
65465ac216a26bebcc8d8b02,SCR,2024-06-25_14h25.14.842,LearnStrategy,2023.2.3,MacIntel,59.03187721,4,2,14,,,,,,,,5,05,,,,,,,,,,,,,5,1.403,1,,,,,,-0.408888889,-0.407777778,1,0,0,1.403,Obsidian_rect,13,0,13,0,1,
65465ac216a26bebcc8d8b02,SCR,2024-06-25_14h25.14.842,LearnStrategy,2023.2.3,MacIntel,59.03187721,4,2,15,,,,,,,,8,15,,,,,,,,,,,,,8,2.881,1,,,,,,0.327777778,-0.397777778,1,0,0,2.881,Pumice_rect,14,0,14,0,1,
65465ac216a26bebcc8d8b02,SCR,2024-06-25_14h25.14.842,LearnStrategy,2023.2.3,MacIntel,59.03187721,4,2,16,,,,,,,,7,05,,,,,,,,,,,,,7,1.202,1,,,,,,0.144444444,-0.392222222,1,0,0,1.202,Peridotite_rect,15,0,15,0,1,
65465ac216a26bebcc8d8b02,SCR,2024-06-25_14h25.14.842,LearnStrategy,2023.2.3,MacIntel,59.03187721,5,1,1,-0.4,-0.255555556,1,0,0,0.996,Pumice_08,8,08,2,2,0.996,8,08,0.327777778,-0.381111111,1,0,0,1.337,Pumice_rect,8,1.337,1,0,0,0,0,1,,,,,,,,,,,,,
65465ac216a26bebcc8d8b02,SCR,2024-06-25_14h25.14.842,LearnStrategy,2023.2.3,MacIntel,59.03187721,5,1,2,-0.374444444,0.26,1,0,0,0.977,Diorite_02,3,02,5,2,0.977,3,02,0.198888889,-0.235555556,1,0,0,1.215,Diorite_rect,3,1.215,1,1,0,1,0,1,,,,,,,,,,,,,
65465ac216a26bebcc8d8b02,SCR,2024-06-25_14h25.14.842,LearnStrategy,2023.2.3,MacIntel,59.03187721,5,1,3,-0.1,-0.453333333,1,0,0,0.879,Diorite_07,3,07,1,4,0.879,3,07,-0.326666667,-0.24,1,0,0,1.143,Andesite_rect,1,1.143,0,2,0,2,0,1,,,,,,,,,,,,,
65465ac216a26bebcc8d8b02,SCR,2024-06-25_14h25.14.842,LearnStrategy,2023.2.3,MacIntel,59.03187721,5,1,4,0.064444444,-0.114444444,1,0,0,0.717,Basalt_09,2,09,3,5,0.717,2,09,-0.096666667,-0.266666667,1,0,0,1.034,Basalt_rect,2,1.034,1,3,0,3,0,1,,,,,,,,,,,,,
65465ac216a26bebcc8d8b02,SCR,2024-06-25_14h25.14.842,LearnStrategy,2023.2.3,MacIntel,59.03187721,5,1,5,-0.07,0.456666667,1,0,0,0.916,Peridotite_12,7,12,6,4,0.916,7,12,0.156666667,-0.393333333,1,0,0,1.662,Peridotite_rect,7,1.662,1,4,0,4,0,1,,,,,,,,,,,,,
65465ac216a26bebcc8d8b02,SCR,2024-06-25_14h25.14.842,LearnStrategy,2023.2.3,MacIntel,59.03187721,5,1,6,-0.598888889,-0.248888889,1,0,0,1.199,Pegmatite_11,6,11,2,1,1.199,6,11,-0.191111111,-0.42,1,0,0,0.879,Pegmatite_rect,6,0.879,1,5,0,5,0,1,,,,,,,,,,,,,
65465ac216a26bebcc8d8b02,SCR,2024-06-25_14h25.14.842,LearnStrategy,2023.2.3,MacIntel,59.03187721,5,1,7,0.273333333,-0.091111111,1,0,0,0.867,Gabbro_09,4,09,3,6,0.867,4,09,-0.091111111,-0.26,1,0,0,2.077,Basalt_rect,2,2.077,0,6,0,6,0,1,,,,,,,,,,,,,
65465ac216a26bebcc8d8b02,SCR,2024-06-25_14h25.14.842,LearnStrategy,2023.2.3,MacIntel,59.03187721,5,1,8,0.367777778,-0.248888889,1,0,0,0.9,Diorite_12,3,12,2,7,0.9,3,12,0.153333333,-0.251111111,1,0,0,1.713,Diorite_rect,3,1.713,1,7,0,7,0,1,,,,,,,,,,,,,
65465ac216a26bebcc8d8b02,SCR,2024-06-25_14h25.14.842,LearnStrategy,2023.2.3,MacIntel,59.03187721,5,1,9,0.063333333,-0.262222222,1,0,0,0.877,Diorite_11,3,11,2,5,0.877,3,11,0.063333333,-0.262222222,1,0,0,0.585,Diorite_rect,3,0.585,1,8,0,8,0,1,,,,,,,,,,,,,
65465ac216a26bebcc8d8b02,SCR,2024-06-25_14h25.14.842,LearnStrategy,2023.2.3,MacIntel,59.03187721,5,1,10,-0.256666667,0.12,1,0,0,0.948,Basalt_11,2,11,4,3,0.948,2,11,-0.077777778,-0.244444444,1,0,0,1.958,Basalt_rect,2,1.958,1,9,0,9,0,1,,,,,,,,,,,,,
65465ac216a26bebcc8d8b02,SCR,2024-06-25_14h25.14.842,LearnStrategy,2023.2.3,MacIntel,59.03187721,5,1,11,0.405555556,0.076666667,1,0,0,1.115,Andesite_01,1,01,4,7,1.115,1,01,0.112222222,-0.256666667,1,0,0,1.716,Diorite_rect,3,1.716,0,10,0,10,0,1,,,,,,,,,,,,,
65465ac216a26bebcc8d8b02,SCR,2024-06-25_14h25.14.842,LearnStrategy,2023.2.3,MacIntel,59.03187721,5,1,12,0.375555556,0.113333333,1,0,0,0.917,Andesite_01,1,01,4,7,0.917,1,01,-0.343333333,-0.245555556,1,0,0,2.007,Andesite_rect,1,2.007,1,11,0,11,0,1,,,,,,,,,,,,,
65465ac216a26bebcc8d8b02,SCR,2024-06-25_14h25.14.842,LearnStrategy,2023.2.3,MacIntel,59.03187721,5,1,13,0.391111111,0.242222222,1,0,0,0.933,Pegmatite_05,6,05,5,7,0.933,6,05,-0.182222222,-0.416666667,1,0,0,1.372,Pegmatite_rect,6,1.372,1,12,0,12,0,1,,,,,,,,,,,,,
65465ac216a26bebcc8d8b02,SCR,2024-06-25_14h25.14.842,LearnStrategy,2023.2.3,MacIntel,59.03187721,5,1,14,0.577777778,-0.235555556,1,0,0,1.384,Andesite_11,1,11,2,8,1.384,1,11,-0.038888889,-0.255555556,1,0,0,2.44,Basalt_rect,2,2.44,0,13,0,13,0,1,,,,,,,,,,,,,
65465ac216a26bebcc8d8b02,SCR,2024-06-25_14h25.14.842,LearnStrategy,2023.2.3,MacIntel,59.03187721,5,1,15,0.548888889,0.108888889,1,0,0,1.033,Pegmatite_08,6,08,4,8,1.033,6,08,-0.098888889,-0.396666667,1,0,0,1.098,Pegmatite_rect,6,1.098,1,14,0,14,0,1,,,,,,,,,,,,,
65465ac216a26bebcc8d8b02,SCR,2024-06-25_14h25.14.842,LearnStrategy,2023.2.3,MacIntel,59.03187721,5,1,16,0.582222222,-0.077777778,1,0,0,0.98,Gabbro_15,4,15,3,8,0.98,4,15,0.128888889,-0.248888889,1,0,0,1.253,Diorite_rect,3,1.253,0,15,0,15,0,1,,,,,,,,,,,,,
65465ac216a26bebcc8d8b02,SCR,2024-06-25_14h25.14.842,LearnStrategy,2023.2.3,MacIntel,59.03187721,5,2,1,,,,,,,,8,06,,,,,,,,,,,,,8,1.559,1,,,,,,0.342222222,-0.394444444,1,0,0,1.559,Pumice_rect,0,0,0,0,1,
65465ac216a26bebcc8d8b02,SCR,2024-06-25_14h25.14.842,LearnStrategy,2023.2.3,MacIntel,59.03187721,5,2,2,,,,,,,,2,16,,,,,,,,,,,,,4,2.846,0,,,,,,0.36,-0.235555556,1,0,0,2.846,Gabbro_rect,1,0,1,0,1,
65465ac216a26bebcc8d8b02,SCR,2024-06-25_14h25.14.842,LearnStrategy,2023.2.3,MacIntel,59.03187721,5,2,3,,,,,,,,1,02,,,,,,,,,,,,,1,3.146,1,,,,,,-0.374444444,-0.268888889,1,0,0,3.146,Andesite_rect,2,0,2,0,1,
65465ac216a26bebcc8d8b02,SCR,2024-06-25_14h25.14.842,LearnStrategy,2023.2.3,MacIntel,59.03187721,5,2,4,,,,,,,,3,06,,,,,,,,,,,,,3,1.152,1,,,,,,0.147777778,-0.253333333,1,0,0,1.152,Diorite_rect,3,0,3,0,1,
65465ac216a26bebcc8d8b02,SCR,2024-06-25_14h25.14.842,LearnStrategy,2023.2.3,MacIntel,59.03187721,5,2,5,,,,,,,,7,13,,,,,,,,,,,,,7,1.16,1,,,,,,0.186666667,-0.411111111,1,0,0,1.16,Peridotite_rect,4,0,4,0,1,
65465ac216a26bebcc8d8b02,SCR,2024-06-25_14h25.14.842,LearnStrategy,2023.2.3,MacIntel,59.03187721,5,2,6,,,,,,,,6,16,,,,,,,,,,,,,6,1.404,1,,,,,,-0.101111111,-0.408888889,1,0,0,1.404,Pegmatite_rect,5,0,5,0,1,
65465ac216a26bebcc8d8b02,SCR,2024-06-25_14h25.14.842,LearnStrategy,2023.2.3,MacIntel,59.03187721,5,2,7,,,,,,,,8,14,,,,,,,,,,,,,8,1.307,1,,,,,,0.32,-0.412222222,1,0,0,1.307,Pumice_rect,6,0,6,0,1,
65465ac216a26bebcc8d8b02,SCR,2024-06-25_14h25.14.842,LearnStrategy,2023.2.3,MacIntel,59.03187721,5,2,8,,,,,,,,1,03,,,,,,,,,,,,,1,2.267,1,,,,,,-0.331111111,-0.26,1,0,0,2.267,Andesite_rect,7,0,7,0,1,
65465ac216a26bebcc8d8b02,SCR,2024-06-25_14h25.14.842,LearnStrategy,2023.2.3,MacIntel,59.03187721,5,2,9,,,,,,,,2,08,,,,,,,,,,,,,2,1.646,1,,,,,,-0.148888889,-0.247777778,1,0,0,1.646,Basalt_rect,8,0,8,0,1,
65465ac216a26bebcc8d8b02,SCR,2024-06-25_14h25.14.842,LearnStrategy,2023.2.3,MacIntel,59.03187721,5,2,10,,,,,,,,5,02,,,,,,,,,,,,,5,1.125,1,,,,,,-0.344444444,-0.4,1,0,0,1.125,Obsidian_rect,9,0,9,0,1,
65465ac216a26bebcc8d8b02,SCR,2024-06-25_14h25.14.842,LearnStrategy,2023.2.3,MacIntel,59.03187721,5,2,11,,,,,,,,3,09,,,,,,,,,,,,,3,1.696,1,,,,,,0.116666667,-0.267777778,1,0,0,1.696,Diorite_rect,10,0,10,0,1,
65465ac216a26bebcc8d8b02,SCR,2024-06-25_14h25.14.842,LearnStrategy,2023.2.3,MacIntel,59.03187721,5,2,12,,,,,,,,6,13,,,,,,,,,,,,,6,1.885,1,,,,,,-0.135555556,-0.408888889,1,0,0,1.885,Pegmatite_rect,11,0,11,0,1,
65465ac216a26bebcc8d8b02,SCR,2024-06-25_14h25.14.842,LearnStrategy,2023.2.3,MacIntel,59.03187721,5,2,13,,,,,,,,5,10,,,,,,,,,,,,,5,1.494,1,,,,,,-0.328888889,-0.393333333,1,0,0,1.494,Obsidian_rect,12,0,12,0,1,
65465ac216a26bebcc8d8b02,SCR,2024-06-25_14h25.14.842,LearnStrategy,2023.2.3,MacIntel,59.03187721,5,2,14,,,,,,,,7,04,,,,,,,,,,,,,1,4.707,0,,,,,,-0.326666667,-0.245555556,1,0,0,4.707,Andesite_rect,13,0,13,0,1,
65465ac216a26bebcc8d8b02,SCR,2024-06-25_14h25.14.842,LearnStrategy,2023.2.3,MacIntel,59.03187721,5,2,15,,,,,,,,4,11,,,,,,,,,,,,,4,2.797,1,,,,,,0.36,-0.25,1,0,0,2.797,Gabbro_rect,14,0,14,0,1,
65465ac216a26bebcc8d8b02,SCR,2024-06-25_14h25.14.842,LearnStrategy,2023.2.3,MacIntel,59.03187721,5,2,16,,,,,,,,4,03,,,,,,,,,,,,,3,2.283,0,,,,,,0.171111111,-0.238888889,1,0,0,2.283,Diorite_rect,15,0,15,0,1,
65465ac216a26bebcc8d8b02,SCR,2024-06-25_14h25.14.842,LearnStrategy,2023.2.3,MacIntel,59.03187721,6,1,1,0.05,0.246666667,1,0,0,1.263,Peridotite_16,7,16,5,5,1.263,7,16,0.103333333,-0.394444444,1,0,0,2.34,Peridotite_rect,7,2.34,1,0,0,0,0,1,,,,,,,,,,,,,
65465ac216a26bebcc8d8b02,SCR,2024-06-25_14h25.14.842,LearnStrategy,2023.2.3,MacIntel,59.03187721,6,1,2,-0.573333333,0.114444444,1,0,0,1.129,Andesite_04,1,04,4,1,1.129,1,04,-0.34,-0.24,1,0,0,2.098,Andesite_rect,1,2.098,1,1,0,1,0,1,,,,,,,,,,,,,
65465ac216a26bebcc8d8b02,SCR,2024-06-25_14h25.14.842,LearnStrategy,2023.2.3,MacIntel,59.03187721,6,1,3,-0.034444444,-0.44,1,0,0,1.033,Diorite_07,3,07,1,4,1.033,3,07,0.093333333,-0.257777778,1,0,0,2.614,Diorite_rect,3,2.614,1,2,0,2,0,1,,,,,,,,,,,,,
65465ac216a26bebcc8d8b02,SCR,2024-06-25_14h25.14.842,LearnStrategy,2023.2.3,MacIntel,59.03187721,6,1,4,0.028888889,-0.095555556,1,0,0,0.884,Basalt_09,2,09,3,5,0.884,2,09,0.36,-0.245555556,1,0,0,3.259,Gabbro_rect,4,3.259,0,3,0,3,0,1,,,,,,,,,,,,,
65465ac216a26bebcc8d8b02,SCR,2024-06-25_14h25.14.842,LearnStrategy,2023.2.3,MacIntel,59.03187721,6,1,5,0.197777778,-0.231111111,1,0,0,1.082,Pegmatite_12,6,12,2,6,1.082,6,12,-0.144444444,-0.406666667,1,0,0,1.136,Pegmatite_rect,6,1.136,1,4,0,4,0,1,,,,,,,,,,,,,
65465ac216a26bebcc8d8b02,SCR,2024-06-25_14h25.14.842,LearnStrategy,2023.2.3,MacIntel,59.03187721,6,1,6,0.402222222,-0.423333333,1,0,0,0.897,Andesite_14,1,14,1,7,0.897,1,14,-0.343333333,-0.241111111,1,0,0,1.713,Andesite_rect,1,1.713,1,5,0,5,0,1,,,,,,,,,,,,,
65465ac216a26bebcc8d8b02,SCR,2024-06-25_14h25.14.842,LearnStrategy,2023.2.3,MacIntel,59.03187721,6,1,7,-0.571111111,-0.201111111,1,0,0,1.267,Pegmatite_11,6,11,2,1,1.267,6,11,-0.174444444,-0.401111111,1,0,0,1.53,Pegmatite_rect,6,1.53,1,6,0,6,0,1,,,,,,,,,,,,,
65465ac216a26bebcc8d8b02,SCR,2024-06-25_14h25.14.842,LearnStrategy,2023.2.3,MacIntel,59.03187721,6,1,8,0.071111111,0.414444444,1,0,0,1.045,Gabbro_08,4,08,6,5,1.045,4,08,0.351111111,-0.271111111,1,0,0,2.187,Gabbro_rect,4,2.187,1,7,0,7,0,1,,,,,,,,,,,,,
65465ac216a26bebcc8d8b02,SCR,2024-06-25_14h25.14.842,LearnStrategy,2023.2.3,MacIntel,59.03187721,6,1,9,-0.251111111,0.097777778,1,0,0,0.716,Basalt_11,2,11,4,3,0.716,2,11,0.418888889,-0.23,1,0,0,2.052,Gabbro_rect,4,2.052,0,8,0,8,0,1,,,,,,,,,,,,,
65465ac216a26bebcc8d8b02,SCR,2024-06-25_14h25.14.842,LearnStrategy,2023.2.3,MacIntel,59.03187721,6,1,10,-0.08,0.237777778,1,0,0,0.816,Gabbro_13,4,13,5,4,0.816,4,13,0.138888889,-0.246666667,1,0,0,1.932,Diorite_rect,3,1.932,0,9,0,9,0,1,,,,,,,,,,,,,
65465ac216a26bebcc8d8b02,SCR,2024-06-25_14h25.14.842,LearnStrategy,2023.2.3,MacIntel,59.03187721,6,1,11,0.506666667,-0.074444444,1,0,0,0.966,Gabbro_15,4,15,3,8,0.966,4,15,0.09,-0.254444444,1,0,0,2.758,Diorite_rect,3,2.758,0,10,0,10,0,1,,,,,,,,,,,,,
65465ac216a26bebcc8d8b02,SCR,2024-06-25_14h25.14.842,LearnStrategy,2023.2.3,MacIntel,59.03187721,6,1,12,-0.196666667,0.075555556,1,0,0,0.752,Basalt_11,2,11,4,3,0.752,2,11,0.416666667,-0.231111111,1,0,0,1.152,Gabbro_rect,4,1.152,0,11,0,11,0,1,,,,,,,,,,,,,
65465ac216a26bebcc8d8b02,SCR,2024-06-25_14h25.14.842,LearnStrategy,2023.2.3,MacIntel,59.03187721,6,1,13,0.403333333,-0.265555556,1,0,0,1.116,Diorite_12,3,12,2,7,1.116,3,12,0.056666667,-0.236666667,1,0,0,1.415,Diorite_rect,3,1.415,1,12,0,12,0,1,,,,,,,,,,,,,
65465ac216a26bebcc8d8b02,SCR,2024-06-25_14h25.14.842,LearnStrategy,2023.2.3,MacIntel,59.03187721,6,1,14,0.381111111,-0.135555556,1,0,0,0.962,Peridotite_06,7,06,3,7,0.962,7,06,0.14,-0.384444444,1,0,0,0.955,Peridotite_rect,7,0.955,1,13,0,13,0,1,,,,,,,,,,,,,
65465ac216a26bebcc8d8b02,SCR,2024-06-25_14h25.14.842,LearnStrategy,2023.2.3,MacIntel,59.03187721,6,1,15,-0.036666667,0.046666667,1,0,0,0.847,Pumice_10,8,10,4,4,0.847,8,10,0.357777778,-0.408888889,1,0,0,1.754,Pumice_rect,8,1.754,1,14,0,14,0,1,,,,,,,,,,,,,
65465ac216a26bebcc8d8b02,SCR,2024-06-25_14h25.14.842,LearnStrategy,2023.2.3,MacIntel,59.03187721,6,1,16,0.372222222,-0.257777778,1,0,0,0.918,Diorite_12,3,12,2,7,0.918,3,12,-0.295555556,-0.261111111,1,0,0,2.686,Andesite_rect,1,2.686,0,15,0,15,0,1,,,,,,,,,,,,,
65465ac216a26bebcc8d8b02,SCR,2024-06-25_14h25.14.842,LearnStrategy,2023.2.3,MacIntel,59.03187721,6,2,1,,,,,,,,1,07,,,,,,,,,,,,,3,3.201,0,,,,,,0.153333333,-0.245555556,1,0,0,3.201,Diorite_rect,0,0,0,0,1,
65465ac216a26bebcc8d8b02,SCR,2024-06-25_14h25.14.842,LearnStrategy,2023.2.3,MacIntel,59.03187721,6,2,2,,,,,,,,8,13,,,,,,,,,,,,,8,8.414,1,,,,,,0.391111111,-0.388888889,1,0,0,8.414,Pumice_rect,1,0,1,0,1,
65465ac216a26bebcc8d8b02,SCR,2024-06-25_14h25.14.842,LearnStrategy,2023.2.3,MacIntel,59.03187721,6,2,3,,,,,,,,4,01,,,,,,,,,,,,,4,2.602,1,,,,,,0.38,-0.245555556,1,0,0,2.602,Gabbro_rect,2,0,2,0,1,
65465ac216a26bebcc8d8b02,SCR,2024-06-25_14h25.14.842,LearnStrategy,2023.2.3,MacIntel,59.03187721,6,2,4,,,,,,,,6,07,,,,,,,,,,,,,6,4.57,1,,,,,,-0.122222222,-0.407777778,1,0,0,4.57,Pegmatite_rect,3,0,3,0,1,
65465ac216a26bebcc8d8b02,SCR,2024-06-25_14h25.14.842,LearnStrategy,2023.2.3,MacIntel,59.03187721,6,2,5,,,,,,,,5,12,,,,,,,,,,,,,5,3.437,1,,,,,,-0.43,-0.396666667,1,0,0,3.437,Obsidian_rect,4,0,4,0,1,
65465ac216a26bebcc8d8b02,SCR,2024-06-25_14h25.14.842,LearnStrategy,2023.2.3,MacIntel,59.03187721,6,2,6,,,,,,,,1,06,,,,,,,,,,,,,3,7.316,0,,,,,,0.122222222,-0.27,1,0,0,7.316,Diorite_rect,5,0,5,0,1,
65465ac216a26bebcc8d8b02,SCR,2024-06-25_14h25.14.842,LearnStrategy,2023.2.3,MacIntel,59.03187721,6,2,7,,,,,,,,7,02,,,,,,,,,,,,,7,1.379,1,,,,,,0.126666667,-0.416666667,1,0,0,1.379,Peridotite_rect,6,0,6,0,1,
65465ac216a26bebcc8d8b02,SCR,2024-06-25_14h25.14.842,LearnStrategy,2023.2.3,MacIntel,59.03187721,6,2,8,,,,,,,,5,06,,,,,,,,,,,,,5,1.461,1,,,,,,-0.353333333,-0.407777778,1,0,0,1.461,Obsidian_rect,7,0,7,0,1,
65465ac216a26bebcc8d8b02,SCR,2024-06-25_14h25.14.842,LearnStrategy,2023.2.3,MacIntel,59.03187721,6,2,9,,,,,,,,4,05,,,,,,,,,,,,,4,8.769,1,,,,,,0.373333333,-0.268888889,1,0,0,8.769,Gabbro_rect,8,0,8,0,1,
65465ac216a26bebcc8d8b02,SCR,2024-06-25_14h25.14.842,LearnStrategy,2023.2.3,MacIntel,59.03187721,6,2,10,,,,,,,,6,03,,,,,,,,,,,,,7,1.534,0,,,,,,0.172222222,-0.406666667,1,0,0,1.534,Peridotite_rect,9,0,9,0,1,
65465ac216a26bebcc8d8b02,SCR,2024-06-25_14h25.14.842,LearnStrategy,2023.2.3,MacIntel,59.03187721,6,2,11,,,,,,,,3,14,,,,,,,,,,,,,1,2.743,0,,,,,,-0.404444444,-0.24,1,0,0,2.743,Andesite_rect,10,0,10,0,1,
65465ac216a26bebcc8d8b02,SCR,2024-06-25_14h25.14.842,LearnStrategy,2023.2.3,MacIntel,59.03187721,6,2,12,,,,,,,,8,03,,,,,,,,,,,,,8,2.699,1,,,,,,0.421111111,-0.401111111,1,0,0,2.699,Pumice_rect,11,0,11,0,1,
65465ac216a26bebcc8d8b02,SCR,2024-06-25_14h25.14.842,LearnStrategy,2023.2.3,MacIntel,59.03187721,6,2,13,,,,,,,,2,06,,,,,,,,,,,,,4,2.467,0,,,,,,0.361111111,-0.264444444,1,0,0,2.467,Gabbro_rect,12,0,12,0,1,
65465ac216a26bebcc8d8b02,SCR,2024-06-25_14h25.14.842,LearnStrategy,2023.2.3,MacIntel,59.03187721,6,2,14,,,,,,,,3,10,,,,,,,,,,,,,3,2.357,1,,,,,,0.11,-0.262222222,1,0,0,2.357,Diorite_rect,13,0,13,0,1,
65465ac216a26bebcc8d8b02,SCR,2024-06-25_14h25.14.842,LearnStrategy,2023.2.3,MacIntel,59.03187721,6,2,15,,,,,,,,7,15,,,,,,,,,,,,,7,1.776,1,,,,,,0.096666667,-0.383333333,1,0,0,1.776,Peridotite_rect,14,0,14,0,1,
65465ac216a26bebcc8d8b02,SCR,2024-06-25_14h25.14.842,LearnStrategy,2023.2.3,MacIntel,59.03187721,6,2,16,,,,,,,,2,02,,,,,,,,,,,,,4,7.394,0,,,,,,0.412222222,-0.268888889,1,0,0,7.394,Gabbro_rect,15,0,15,0,1,
65465ac216a26bebcc8d8b02,SCR,2024-06-25_14h25.14.842,LearnStrategy,2023.2.3,MacIntel,59.03187721,7,1,1,0.384444444,-0.253333333,1,0,0,1.952,Diorite_12,3,12,2,7,1.952,3,12,0.152222222,-0.253333333,1,0,0,2.817,Diorite_rect,3,2.817,1,0,0,0,0,1,,,,,,,,,,,,,
65465ac216a26bebcc8d8b02,SCR,2024-06-25_14h25.14.842,LearnStrategy,2023.2.3,MacIntel,59.03187721,7,1,2,0.385555556,0.43,1,0,0,1.447,Pegmatite_09,6,09,6,7,1.447,6,09,0.178888889,-0.414444444,1,0,0,2.138,Peridotite_rect,7,2.138,0,1,0,1,0,1,,,,,,,,,,,,,
65465ac216a26bebcc8d8b02,SCR,2024-06-25_14h25.14.842,LearnStrategy,2023.2.3,MacIntel,59.03187721,7,1,3,-0.103333333,-0.13,1,0,0,1.367,Diorite_13,3,13,3,4,1.367,3,13,0.07,-0.253333333,1,0,0,1.751,Diorite_rect,3,1.751,1,2,0,2,0,1,,,,,,,,,,,,,
65465ac216a26bebcc8d8b02,SCR,2024-06-25_14h25.14.842,LearnStrategy,2023.2.3,MacIntel,59.03187721,7,1,4,-0.203333333,-0.264444444,1,0,0,1.197,Obsidian_07,5,07,2,3,1.197,5,07,-0.317777778,-0.4,1,0,0,1.416,Obsidian_rect,5,1.416,1,3,0,3,0,1,,,,,,,,,,,,,
65465ac216a26bebcc8d8b02,SCR,2024-06-25_14h25.14.842,LearnStrategy,2023.2.3,MacIntel,59.03187721,7,1,5,0.561111111,0.278888889,1,0,0,1.031,Basalt_01,2,01,5,8,1.031,2,01,0.431111111,-0.247777778,1,0,0,1.277,Gabbro_rect,4,1.277,0,4,0,4,0,1,,,,,,,,,,,,,
65465ac216a26bebcc8d8b02,SCR,2024-06-25_14h25.14.842,LearnStrategy,2023.2.3,MacIntel,59.03187721,7,1,6,0.042222222,0.441111111,1,0,0,0.818,Gabbro_08,4,08,6,5,0.818,4,08,0.31,-0.247777778,1,0,0,1.835,Gabbro_rect,4,1.835,1,5,0,5,0,1,,,,,,,,,,,,,
65465ac216a26bebcc8d8b02,SCR,2024-06-25_14h25.14.842,LearnStrategy,2023.2.3,MacIntel,59.03187721,7,1,7,0.061111111,0.128888889,1,0,0,0.75,Andesite_05,1,05,4,5,0.75,1,05,-0.404444444,-0.253333333,1,0,0,1.54,Andesite_rect,1,1.54,1,6,0,6,0,1,,,,,,,,,,,,,
65465ac216a26bebcc8d8b02,SCR,2024-06-25_14h25.14.842,LearnStrategy,2023.2.3,MacIntel,59.03187721,7,1,8,0.218888889,-0.285555556,1,0,0,0.959,Pegmatite_12,6,12,2,6,0.959,6,12,-0.074444444,-0.387777778,1,0,0,1.055,Pegmatite_rect,6,1.055,1,7,0,7,0,1,,,,,,,,,,,,,
65465ac216a26bebcc8d8b02,SCR,2024-06-25_14h25.14.842,LearnStrategy,2023.2.3,MacIntel,59.03187721,7,1,9,-0.212222222,-0.403333333,1,0,0,1.032,Peridotite_08,7,08,1,3,1.032,7,08,0.075555556,-0.418888889,1,0,0,2.29,Peridotite_rect,7,2.29,1,8,0,8,0,1,,,,,,,,,,,,,
65465ac216a26bebcc8d8b02,SCR,2024-06-25_14h25.14.842,LearnStrategy,2023.2.3,MacIntel,59.03187721,7,1,10,0.55,0.253333333,1,0,0,0.881,Basalt_01,2,01,5,8,0.881,2,01,-0.15,-0.27,1,0,0,2.164,Basalt_rect,2,2.164,1,9,0,9,0,1,,,,,,,,,,,,,
65465ac216a26bebcc8d8b02,SCR,2024-06-25_14h25.14.842,LearnStrategy,2023.2.3,MacIntel,59.03187721,7,1,11,0.052222222,-0.246666667,1,0,0,0.832,Diorite_11,3,11,2,5,0.832,3,11,0.073333333,-0.231111111,1,0,0,0.842,Diorite_rect,3,0.842,1,10,0,10,0,1,,,,,,,,,,,,,
65465ac216a26bebcc8d8b02,SCR,2024-06-25_14h25.14.842,LearnStrategy,2023.2.3,MacIntel,59.03187721,7,1,12,0.256666667,0.418888889,1,0,0,1.217,Basalt_04,2,04,6,6,1.217,2,04,-0.055555556,-0.25,1,0,0,1.939,Basalt_rect,2,1.939,1,11,0,11,0,1,,,,,,,,,,,,,
65465ac216a26bebcc8d8b02,SCR,2024-06-25_14h25.14.842,LearnStrategy,2023.2.3,MacIntel,59.03187721,7,1,13,-0.547777778,0.088888889,1,0,0,1.183,Andesite_04,1,04,4,1,1.183,1,04,-0.376666667,-0.247777778,1,0,0,2.181,Andesite_rect,1,2.181,1,12,0,12,0,1,,,,,,,,,,,,,
65465ac216a26bebcc8d8b02,SCR,2024-06-25_14h25.14.842,LearnStrategy,2023.2.3,MacIntel,59.03187721,7,1,14,0.541111111,-0.1,1,0,0,1.099,Gabbro_15,4,15,3,8,1.099,4,15,0.195555556,-0.258888889,1,0,0,1.096,Diorite_rect,3,1.096,0,13,0,13,0,1,,,,,,,,,,,,,
65465ac216a26bebcc8d8b02,SCR,2024-06-25_14h25.14.842,LearnStrategy,2023.2.3,MacIntel,59.03187721,7,1,15,-0.573333333,-0.095555556,1,0,0,1.034,Pumice_02,8,02,3,1,1.034,8,02,0.365555556,-0.39,1,0,0,1.311,Pumice_rect,8,1.311,1,14,0,14,0,1,,,,,,,,,,,,,
65465ac216a26bebcc8d8b02,SCR,2024-06-25_14h25.14.842,LearnStrategy,2023.2.3,MacIntel,59.03187721,7,1,16,0.377777778,-0.397777778,1,0,0,0.978,Andesite_14,1,14,1,7,0.978,1,14,-0.328888889,-0.251111111,1,0,0,2.967,Andesite_rect,1,2.967,1,15,0,15,0,1,,,,,,,,,,,,,
65465ac216a26bebcc8d8b02,SCR,2024-06-25_14h25.14.842,LearnStrategy,2023.2.3,MacIntel,59.03187721,7,2,1,,,,,,,,2,02,,,,,,,,,,,,,2,4.545,1,,,,,,-0.158888889,-0.26,1,0,0,4.545,Basalt_rect,0,0,0,0,1,
65465ac216a26bebcc8d8b02,SCR,2024-06-25_14h25.14.842,LearnStrategy,2023.2.3,MacIntel,59.03187721,7,2,2,,,,,,,,8,06,,,,,,,,,,,,,8,1.314,1,,,,,,0.33,-0.402222222,1,0,0,1.314,Pumice_rect,1,0,1,0,1,
65465ac216a26bebcc8d8b02,SCR,2024-06-25_14h25.14.842,LearnStrategy,2023.2.3,MacIntel,59.03187721,7,2,3,,,,,,,,3,10,,,,,,,,,,,,,3,1.434,1,,,,,,0.124444444,-0.25,1,0,0,1.434,Diorite_rect,2,0,2,0,1,
65465ac216a26bebcc8d8b02,SCR,2024-06-25_14h25.14.842,LearnStrategy,2023.2.3,MacIntel,59.03187721,7,2,4,,,,,,,,6,15,,,,,,,,,,,,,6,1.461,1,,,,,,-0.155555556,-0.408888889,1,0,0,1.461,Pegmatite_rect,3,0,3,0,1,
65465ac216a26bebcc8d8b02,SCR,2024-06-25_14h25.14.842,LearnStrategy,2023.2.3,MacIntel,59.03187721,7,2,5,,,,,,,,8,14,,,,,,,,,,,,,8,1.231,1,,,,,,0.392222222,-0.421111111,1,0,0,1.231,Pumice_rect,4,0,4,0,1,
65465ac216a26bebcc8d8b02,SCR,2024-06-25_14h25.14.842,LearnStrategy,2023.2.3,MacIntel,59.03187721,7,2,6,,,,,,,,1,06,,,,,,,,,,,,,3,2.276,0,,,,,,0.207777778,-0.253333333,1,0,0,2.276,Diorite_rect,5,0,5,0,1,
65465ac216a26bebcc8d8b02,SCR,2024-06-25_14h25.14.842,LearnStrategy,2023.2.3,MacIntel,59.03187721,7,2,7,,,,,,,,4,10,,,,,,,,,,,,,2,2.915,0,,,,,,-0.044444444,-0.266666667,1,0,0,2.915,Basalt_rect,6,0,6,0,1,
65465ac216a26bebcc8d8b02,SCR,2024-06-25_14h25.14.842,LearnStrategy,2023.2.3,MacIntel,59.03187721,7,2,8,,,,,,,,5,11,,,,,,,,,,,,,5,1.555,1,,,,,,-0.348888889,-0.413333333,1,0,0,1.555,Obsidian_rect,7,0,7,0,1,
65465ac216a26bebcc8d8b02,SCR,2024-06-25_14h25.14.842,LearnStrategy,2023.2.3,MacIntel,59.03187721,7,2,9,,,,,,,,6,03,,,,,,,,,,,,,7,1.761,0,,,,,,0.12,-0.417777778,1,0,0,1.761,Peridotite_rect,8,0,8,0,1,
65465ac216a26bebcc8d8b02,SCR,2024-06-25_14h25.14.842,LearnStrategy,2023.2.3,MacIntel,59.03187721,7,2,10,,,,,,,,2,16,,,,,,,,,,,,,4,3.071,0,,,,,,0.327777778,-0.261111111,1,0,0,3.071,Gabbro_rect,9,0,9,0,1,
65465ac216a26bebcc8d8b02,SCR,2024-06-25_14h25.14.842,LearnStrategy,2023.2.3,MacIntel,59.03187721,7,2,11,,,,,,,,3,16,,,,,,,,,,,,,3,2.198,1,,,,,,0.063333333,-0.25,1,0,0,2.198,Diorite_rect,10,0,10,0,1,
65465ac216a26bebcc8d8b02,SCR,2024-06-25_14h25.14.842,LearnStrategy,2023.2.3,MacIntel,59.03187721,7,2,12,,,,,,,,1,16,,,,,,,,,,,,,3,2.849,0,,,,,,0.054444444,-0.245555556,1,0,0,2.849,Diorite_rect,11,0,11,0,1,
65465ac216a26bebcc8d8b02,SCR,2024-06-25_14h25.14.842,LearnStrategy,2023.2.3,MacIntel,59.03187721,7,2,13,,,,,,,,5,12,,,,,,,,,,,,,5,1.058,1,,,,,,-0.414444444,-0.4,1,0,0,1.058,Obsidian_rect,12,0,12,0,1,
65465ac216a26bebcc8d8b02,SCR,2024-06-25_14h25.14.842,LearnStrategy,2023.2.3,MacIntel,59.03187721,7,2,14,,,,,,,,7,05,,,,,,,,,,,,,4,3.241,0,,,,,,0.436666667,-0.232222222,1,0,0,3.241,Gabbro_rect,13,0,13,0,1,
65465ac216a26bebcc8d8b02,SCR,2024-06-25_14h25.14.842,LearnStrategy,2023.2.3,MacIntel,59.03187721,7,2,15,,,,,,,,4,01,,,,,,,,,,,,,4,2.52,1,,,,,,0.436666667,-0.232222222,1,0,0,2.52,Gabbro_rect,14,0,14,0,1,
65465ac216a26bebcc8d8b02,SCR,2024-06-25_14h25.14.842,LearnStrategy,2023.2.3,MacIntel,59.03187721,7,2,16,,,,,,,,7,02,,,,,,,,,,,,,7,2.604,1,,,,,,0.115555556,-0.388888889,1,0,0,2.604,Peridotite_rect,15,0,15,0,1,
65465ac216a26bebcc8d8b02,SCR,2024-06-25_14h25.14.842,LearnStrategy,2023.2.3,MacIntel,59.03187721,8,1,1,0.062222222,0.264444444,1,0,0,1.032,Peridotite_16,7,16,5,5,1.032,7,16,0.104444444,-0.394444444,1,0,0,3.146,Peridotite_rect,7,3.146,1,0,0,0,0,1,,,,,,,,,,,,,
65465ac216a26bebcc8d8b02,SCR,2024-06-25_14h25.14.842,LearnStrategy,2023.2.3,MacIntel,59.03187721,8,1,2,-0.066666667,0.224444444,1,0,0,1.133,Gabbro_13,4,13,5,4,1.133,4,13,-0.391111111,-0.248888889,1,0,0,1.859,Andesite_rect,1,1.859,0,1,0,1,0,1,,,,,,,,,,,,,
65465ac216a26bebcc8d8b02,SCR,2024-06-25_14h25.14.842,LearnStrategy,2023.2.3,MacIntel,59.03187721,8,1,3,-0.395555556,-0.387777778,1,0,0,1.046,Pumice_16,8,16,1,2,1.046,8,16,0.448888889,-0.408888889,1,0,0,1.166,Pumice_rect,8,1.166,1,2,0,2,0,1,,,,,,,,,,,,,
65465ac216a26bebcc8d8b02,SCR,2024-06-25_14h25.14.842,LearnStrategy,2023.2.3,MacIntel,59.03187721,8,1,4,-0.357777778,0.076666667,1,0,0,0.915,Pegmatite_06,6,06,4,2,0.915,6,06,-0.193333333,-0.418888889,1,0,0,2.3,Pegmatite_rect,6,2.3,1,3,0,3,0,1,,,,,,,,,,,,,
65465ac216a26bebcc8d8b02,SCR,2024-06-25_14h25.14.842,LearnStrategy,2023.2.3,MacIntel,59.03187721,8,1,5,-0.497777778,-0.235555556,1,0,0,1.084,Pegmatite_11,6,11,2,1,1.084,6,11,-0.132222222,-0.388888889,1,0,0,1.056,Pegmatite_rect,6,1.056,1,4,0,4,0,1,,,,,,,,,,,,,
65465ac216a26bebcc8d8b02,SCR,2024-06-25_14h25.14.842,LearnStrategy,2023.2.3,MacIntel,59.03187721,8,1,6,-0.351111111,0.242222222,1,0,0,0.95,Diorite_02,3,02,5,2,0.95,3,02,0.111111111,-0.234444444,1,0,0,1.813,Diorite_rect,3,1.813,1,5,0,5,0,1,,,,,,,,,,,,,
65465ac216a26bebcc8d8b02,SCR,2024-06-25_14h25.14.842,LearnStrategy,2023.2.3,MacIntel,59.03187721,8,1,7,0.403333333,-0.43,1,0,0,1.4,Andesite_14,1,14,1,7,1.4,1,14,-0.101111111,-0.4,1,0,0,2.337,Pegmatite_rect,6,2.337,0,6,0,6,0,1,,,,,,,,,,,,,
65465ac216a26bebcc8d8b02,SCR,2024-06-25_14h25.14.842,LearnStrategy,2023.2.3,MacIntel,59.03187721,8,1,8,0.561111111,-0.265555556,1,0,0,1.015,Andesite_11,1,11,2,8,1.015,1,11,-0.376666667,-0.236666667,1,0,0,1.516,Andesite_rect,1,1.516,1,7,0,7,0,1,,,,,,,,,,,,,
65465ac216a26bebcc8d8b02,SCR,2024-06-25_14h25.14.842,LearnStrategy,2023.2.3,MacIntel,59.03187721,8,1,9,0.08,-0.088888889,1,0,0,0.548,Basalt_09,2,09,3,5,0.548,2,09,0.453333333,-0.256666667,1,0,0,1.406,Gabbro_rect,4,1.406,0,8,0,8,0,1,,,,,,,,,,,,,
65465ac216a26bebcc8d8b02,SCR,2024-06-25_14h25.14.842,LearnStrategy,2023.2.3,MacIntel,59.03187721,8,1,10,0.516666667,0.234444444,1,0,0,0.841,Basalt_01,2,01,5,8,0.841,2,01,0.397777778,-0.233333333,1,0,0,1.589,Gabbro_rect,4,1.589,0,9,0,9,0,1,,,,,,,,,,,,,
65465ac216a26bebcc8d8b02,SCR,2024-06-25_14h25.14.842,LearnStrategy,2023.2.3,MacIntel,59.03187721,8,1,11,0.551111111,-0.27,1,0,0,1.148,Andesite_11,1,11,2,8,1.148,1,11,-0.395555556,-0.248888889,1,0,0,0.986,Andesite_rect,1,0.986,1,10,0,10,0,1,,,,,,,,,,,,,
65465ac216a26bebcc8d8b02,SCR,2024-06-25_14h25.14.842,LearnStrategy,2023.2.3,MacIntel,59.03187721,8,1,12,-0.108888889,-0.396666667,1,0,0,1.003,Diorite_07,3,07,1,4,1.003,3,07,-0.325555556,-0.242222222,1,0,0,1.756,Andesite_rect,1,1.756,0,11,0,11,0,1,,,,,,,,,,,,,
65465ac216a26bebcc8d8b02,SCR,2024-06-25_14h25.14.842,LearnStrategy,2023.2.3,MacIntel,59.03187721,8,1,13,0.355555556,0.094444444,0,0,1,1.132,Andesite_01,1,01,4,7,1.132,1,01,0.062222222,-0.253333333,1,0,0,1.153,Diorite_rect,3,1.153,0,12,0,12,0,1,,,,,,,,,,,,,
65465ac216a26bebcc8d8b02,SCR,2024-06-25_14h25.14.842,LearnStrategy,2023.2.3,MacIntel,59.03187721,8,1,14,-0.246666667,-0.385555556,1,0,0,0.899,Peridotite_08,7,08,1,3,0.899,7,08,0.167777778,-0.378888889,1,0,0,1.011,Peridotite_rect,7,1.011,1,13,0,13,0,1,,,,,,,,,,,,,
65465ac216a26bebcc8d8b02,SCR,2024-06-25_14h25.14.842,LearnStrategy,2023.2.3,MacIntel,59.03187721,8,1,15,0.208888889,0.07,1,0,0,1.299,Basalt_14,2,14,4,6,1.299,2,14,0.33,-0.25,1,0,0,2.435,Gabbro_rect,4,2.435,0,14,0,14,0,1,,,,,,,,,,,,,
65465ac216a26bebcc8d8b02,SCR,2024-06-25_14h25.14.842,LearnStrategy,2023.2.3,MacIntel,59.03187721,8,1,16,0.213333333,-0.424444444,1,0,0,1.083,Gabbro_16,4,16,1,6,1.083,4,16,-0.15,-0.257777778,1,0,0,1.036,Basalt_rect,2,1.036,0,15,0,15,0,1,,,,,,,,,,,,,
65465ac216a26bebcc8d8b02,SCR,2024-06-25_14h25.14.842,LearnStrategy,2023.2.3,MacIntel,59.03187721,8,2,1,,,,,,,,3,14,,,,,,,,,,,,,3,2.279,1,,,,,,0.142222222,-0.252222222,1,0,0,2.279,Diorite_rect,0,0,0,0,1,
65465ac216a26bebcc8d8b02,SCR,2024-06-25_14h25.14.842,LearnStrategy,2023.2.3,MacIntel,59.03187721,8,2,2,,,,,,,,4,14,,,,,,,,,,,,,4,3.454,1,,,,,,0.355555556,-0.262222222,1,0,0,3.454,Gabbro_rect,1,0,1,0,1,
65465ac216a26bebcc8d8b02,SCR,2024-06-25_14h25.14.842,LearnStrategy,2023.2.3,MacIntel,59.03187721,8,2,3,,,,,,,,4,05,,,,,,,,,,,,,4,2.911,1,,,,,,0.424444444,-0.265555556,1,0,0,2.911,Gabbro_rect,2,0,2,0,1,
65465ac216a26bebcc8d8b02,SCR,2024-06-25_14h25.14.842,LearnStrategy,2023.2.3,MacIntel,59.03187721,8,2,4,,,,,,,,1,07,,,,,,,,,,,,,1,1.75,1,,,,,,-0.406666667,-0.26,1,0,0,1.75,Andesite_rect,3,0,3,0,1,
65465ac216a26bebcc8d8b02,SCR,2024-06-25_14h25.14.842,LearnStrategy,2023.2.3,MacIntel,59.03187721,8,2,5,,,,,,,,5,02,,,,,,,,,,,,,5,0.96,1,,,,,,-0.442222222,-0.408888889,1,0,0,0.96,Obsidian_rect,4,0,4,0,1,
65465ac216a26bebcc8d8b02,SCR,2024-06-25_14h25.14.842,LearnStrategy,2023.2.3,MacIntel,59.03187721,8,2,6,,,,,,,,7,04,,,,,,,,,,,,,1,1.748,0,,,,,,-0.406666667,-0.253333333,1,0,0,1.748,Andesite_rect,5,0,5,0,1,
65465ac216a26bebcc8d8b02,SCR,2024-06-25_14h25.14.842,LearnStrategy,2023.2.3,MacIntel,59.03187721,8,2,7,,,,,,,,3,08,,,,,,,,,,,,,3,1.331,1,,,,,,0.202222222,-0.228888889,1,0,0,1.331,Diorite_rect,6,0,6,0,1,
65465ac216a26bebcc8d8b02,SCR,2024-06-25_14h25.14.842,LearnStrategy,2023.2.3,MacIntel,59.03187721,8,2,8,,,,,,,,1,10,,,,,,,,,,,,,1,4.248,1,,,,,,-0.376666667,-0.252222222,1,0,0,4.248,Andesite_rect,7,0,7,0,1,
65465ac216a26bebcc8d8b02,SCR,2024-06-25_14h25.14.842,LearnStrategy,2023.2.3,MacIntel,59.03187721,8,2,9,,,,,,,,2,08,,,,,,,,,,,,,2,1.683,1,,,,,,-0.165555556,-0.236666667,1,0,0,1.683,Basalt_rect,8,0,8,0,1,
65465ac216a26bebcc8d8b02,SCR,2024-06-25_14h25.14.842,LearnStrategy,2023.2.3,MacIntel,59.03187721,8,2,10,,,,,,,,5,10,,,,,,,,,,,,,5,1.132,1,,,,,,-0.371111111,-0.408888889,1,0,0,1.132,Obsidian_rect,9,0,9,0,1,
65465ac216a26bebcc8d8b02,SCR,2024-06-25_14h25.14.842,LearnStrategy,2023.2.3,MacIntel,59.03187721,8,2,11,,,,,,,,6,10,,,,,,,,,,,,,6,2.904,1,,,,,,-0.104444444,-0.417777778,1,0,0,2.904,Pegmatite_rect,10,0,10,0,1,
65465ac216a26bebcc8d8b02,SCR,2024-06-25_14h25.14.842,LearnStrategy,2023.2.3,MacIntel,59.03187721,8,2,12,,,,,,,,7,15,,,,,,,,,,,,,7,1.378,1,,,,,,0.178888889,-0.412222222,1,0,0,1.378,Peridotite_rect,11,0,11,0,1,
65465ac216a26bebcc8d8b02,SCR,2024-06-25_14h25.14.842,LearnStrategy,2023.2.3,MacIntel,59.03187721,8,2,13,,,,,,,,6,13,,,,,,,,,,,,,6,2.674,1,,,,,,-0.027777778,-0.411111111,1,0,0,2.674,Pegmatite_rect,12,0,12,0,1,
65465ac216a26bebcc8d8b02,SCR,2024-06-25_14h25.14.842,LearnStrategy,2023.2.3,MacIntel,59.03187721,8,2,14,,,,,,,,2,05,,,,,,,,,,,,,2,2.082,1,,,,,,-0.094444444,-0.246666667,1,0,0,2.082,Basalt_rect,13,0,13,0,1,
65465ac216a26bebcc8d8b02,SCR,2024-06-25_14h25.14.842,LearnStrategy,2023.2.3,MacIntel,59.03187721,8,2,15,,,,,,,,8,13,,,,,,,,,,,,,8,1.903,1,,,,,,0.393333333,-0.417777778,1,0,0,1.903,Pumice_rect,14,0,14,0,1,
65465ac216a26bebcc8d8b02,SCR,2024-06-25_14h25.14.842,LearnStrategy,2023.2.3,MacIntel,59.03187721,8,2,16,,,,,,,,8,09,,,,,,,,,,,,,8,1.391,1,,,,,,0.393333333,-0.417777778,1,0,0,1.391,Pumice_rect,15,0,15,0,1,
65465ac216a26bebcc8d8b02,SCR,2024-06-25_14h25.14.842,LearnStrategy,2023.2.3,MacIntel,59.03187721,9,1,1,0.574444444,0.255555556,1,0,0,1.13,Basalt_01,2,01,5,8,1.13,2,01,0.397777778,-0.254444444,1,0,0,2.28,Gabbro_rect,4,2.28,0,0,0,0,0,1,,,,,,,,,,,,,
65465ac216a26bebcc8d8b02,SCR,2024-06-25_14h25.14.842,LearnStrategy,2023.2.3,MacIntel,59.03187721,9,1,2,0.062222222,0.411111111,1,0,0,0.948,Gabbro_08,4,08,6,5,0.948,4,08,0.373333333,-0.251111111,1,0,0,2.512,Gabbro_rect,4,2.512,1,1,0,1,0,1,,,,,,,,,,,,,
65465ac216a26bebcc8d8b02,SCR,2024-06-25_14h25.14.842,LearnStrategy,2023.2.3,MacIntel,59.03187721,9,1,3,0.565555556,-0.447777778,1,0,0,1.028,Obsidian_04,5,04,1,8,1.028,5,04,-0.35,-0.4,1,0,0,1.262,Obsidian_rect,5,1.262,1,2,0,2,0,1,,,,,,,,,,,,,
65465ac216a26bebcc8d8b02,SCR,2024-06-25_14h25.14.842,LearnStrategy,2023.2.3,MacIntel,59.03187721,9,1,4,-0.551111111,0.237777778,1,0,0,1.082,Peridotite_14,7,14,5,1,1.082,7,14,0.082222222,-0.414444444,1,0,0,3.126,Peridotite_rect,7,3.126,1,3,0,3,0,1,,,,,,,,,,,,,
65465ac216a26bebcc8d8b02,SCR,2024-06-25_14h25.14.842,LearnStrategy,2023.2.3,MacIntel,59.03187721,9,1,5,-0.375555556,-0.403333333,1,0,0,1.401,Pumice_16,8,16,1,2,1.401,8,16,0.325555556,-0.39,1,0,0,1.179,Pumice_rect,8,1.179,1,4,0,4,0,1,,,,,,,,,,,,,
65465ac216a26bebcc8d8b02,SCR,2024-06-25_14h25.14.842,LearnStrategy,2023.2.3,MacIntel,59.03187721,9,1,6,0.384444444,0.404444444,1,0,0,1.497,Pegmatite_09,6,09,6,7,1.497,6,09,-0.211111111,-0.421111111,1,0,0,1.215,Pegmatite_rect,6,1.215,1,5,0,5,0,1,,,,,,,,,,,,,
65465ac216a26bebcc8d8b02,SCR,2024-06-25_14h25.14.842,LearnStrategy,2023.2.3,MacIntel,59.03187721,9,1,7,0.072222222,0.204444444,1,0,0,0.917,Peridotite_16,7,16,5,5,0.917,7,16,0.072222222,-0.401111111,1,0,0,3.733,Peridotite_rect,7,3.733,1,6,0,6,0,1,,,,,,,,,,,,,
65465ac216a26bebcc8d8b02,SCR,2024-06-25_14h25.14.842,LearnStrategy,2023.2.3,MacIntel,59.03187721,9,1,8,-0.078888889,0.224444444,1,0,0,0.999,Gabbro_13,4,13,5,4,0.999,4,13,0.371111111,-0.256666667,1,0,0,2.234,Gabbro_rect,4,2.234,1,7,0,7,0,1,,,,,,,,,,,,,
65465ac216a26bebcc8d8b02,SCR,2024-06-25_14h25.14.842,LearnStrategy,2023.2.3,MacIntel,59.03187721,9,1,9,0.362222222,-0.113333333,1,0,0,1.786,Peridotite_06,7,06,3,7,1.786,7,06,0.157777778,-0.4,1,0,0,1.547,Peridotite_rect,7,1.547,1,8,0,8,0,1,,,,,,,,,,,,,
65465ac216a26bebcc8d8b02,SCR,2024-06-25_14h25.14.842,LearnStrategy,2023.2.3,MacIntel,59.03187721,9,1,10,0.073333333,0.092222222,1,0,0,0.666,Andesite_05,1,05,4,5,0.666,1,05,-0.328888889,-0.258888889,1,0,0,2.648,Andesite_rect,1,2.648,1,9,0,9,0,1,,,,,,,,,,,,,
65465ac216a26bebcc8d8b02,SCR,2024-06-25_14h25.14.842,LearnStrategy,2023.2.3,MacIntel,59.03187721,9,1,11,-0.555555556,-0.254444444,1,0,0,1.015,Pegmatite_11,6,11,2,1,1.015,6,11,-0.151111111,-0.383333333,1,0,0,1.052,Pegmatite_rect,6,1.052,1,10,0,10,0,1,,,,,,,,,,,,,
65465ac216a26bebcc8d8b02,SCR,2024-06-25_14h25.14.842,LearnStrategy,2023.2.3,MacIntel,59.03187721,9,1,12,0.127777778,-0.452222222,1,0,0,1.383,Diorite_15,3,15,1,5,1.383,3,15,0.09,-0.254444444,1,0,0,1.437,Diorite_rect,3,1.437,1,11,0,11,0,1,,,,,,,,,,,,,
65465ac216a26bebcc8d8b02,SCR,2024-06-25_14h25.14.842,LearnStrategy,2023.2.3,MacIntel,59.03187721,9,1,13,-0.063333333,-0.117777778,1,0,0,0.693,Diorite_13,3,13,3,4,0.693,3,13,0.088888889,-0.271111111,1,0,0,1.44,Diorite_rect,3,1.44,1,12,0,12,0,1,,,,,,,,,,,,,
65465ac216a26bebcc8d8b02,SCR,2024-06-25_14h25.14.842,LearnStrategy,2023.2.3,MacIntel,59.03187721,9,1,14,-0.058888889,-0.248888889,1,0,0,0.766,Basalt_10,2,10,2,4,0.766,2,10,-0.063333333,-0.242222222,1,0,0,2.503,Basalt_rect,2,2.503,1,13,0,13,0,1,,,,,,,,,,,,,
65465ac216a26bebcc8d8b02,SCR,2024-06-25_14h25.14.842,LearnStrategy,2023.2.3,MacIntel,59.03187721,9,1,15,0.381111111,0.131111111,1,0,0,1.083,Andesite_01,1,01,4,7,1.083,1,01,-0.395555556,-0.251111111,1,0,0,3.292,Andesite_rect,1,3.292,1,14,0,14,0,1,,,,,,,,,,,,,
65465ac216a26bebcc8d8b02,SCR,2024-06-25_14h25.14.842,LearnStrategy,2023.2.3,MacIntel,59.03187721,9,1,16,-0.416666667,-0.123333333,1,0,0,0.949,Andesite_09,1,09,3,2,0.949,1,09,-0.395555556,-0.233333333,1,0,0,1.468,Andesite_rect,1,1.468,1,15,0,15,0,1,,,,,,,,,,,,,
65465ac216a26bebcc8d8b02,SCR,2024-06-25_14h25.14.842,LearnStrategy,2023.2.3,MacIntel,59.03187721,9,2,1,,,,,,,,3,09,,,,,,,,,,,,,3,1.529,1,,,,,,0.083333333,-0.236666667,1,0,0,1.529,Diorite_rect,0,0,0,0,1,
65465ac216a26bebcc8d8b02,SCR,2024-06-25_14h25.14.842,LearnStrategy,2023.2.3,MacIntel,59.03187721,9,2,2,,,,,,,,3,06,,,,,,,,,,,,,1,2.469,0,,,,,,-0.321111111,-0.256666667,1,0,0,2.469,Andesite_rect,1,0,1,0,1,
65465ac216a26bebcc8d8b02,SCR,2024-06-25_14h25.14.842,LearnStrategy,2023.2.3,MacIntel,59.03187721,9,2,3,,,,,,,,5,06,,,,,,,,,,,,,5,0.984,1,,,,,,-0.341111111,-0.407777778,1,0,0,0.984,Obsidian_rect,2,0,2,0,1,
65465ac216a26bebcc8d8b02,SCR,2024-06-25_14h25.14.842,LearnStrategy,2023.2.3,MacIntel,59.03187721,9,2,4,,,,,,,,1,03,,,,,,,,,,,,,1,2.104,1,,,,,,-0.335555556,-0.262222222,1,0,0,2.104,Andesite_rect,3,0,3,0,1,
65465ac216a26bebcc8d8b02,SCR,2024-06-25_14h25.14.842,LearnStrategy,2023.2.3,MacIntel,59.03187721,9,2,5,,,,,,,,5,05,,,,,,,,,,,,,5,2.134,1,,,,,,-0.327777778,-0.382222222,1,0,0,2.134,Obsidian_rect,4,0,4,0,1,
65465ac216a26bebcc8d8b02,SCR,2024-06-25_14h25.14.842,LearnStrategy,2023.2.3,MacIntel,59.03187721,9,2,6,,,,,,,,2,06,,,,,,,,,,,,,2,2.134,1,,,,,,-0.075555556,-0.253333333,1,0,0,2.134,Basalt_rect,5,0,5,0,1,
65465ac216a26bebcc8d8b02,SCR,2024-06-25_14h25.14.842,LearnStrategy,2023.2.3,MacIntel,59.03187721,9,2,7,,,,,,,,6,07,,,,,,,,,,,,,6,1.623,1,,,,,,-0.098888889,-0.396666667,1,0,0,1.623,Pegmatite_rect,6,0,6,0,1,
65465ac216a26bebcc8d8b02,SCR,2024-06-25_14h25.14.842,LearnStrategy,2023.2.3,MacIntel,59.03187721,9,2,8,,,,,,,,1,02,,,,,,,,,,,,,1,2.089,1,,,,,,-0.385555556,-0.26,1,0,0,2.089,Andesite_rect,7,0,7,0,1,
65465ac216a26bebcc8d8b02,SCR,2024-06-25_14h25.14.842,LearnStrategy,2023.2.3,MacIntel,59.03187721,9,2,9,,,,,,,,8,15,,,,,,,,,,,,,8,1.718,1,,,,,,0.403333333,-0.418888889,1,0,0,1.718,Pumice_rect,8,0,8,0,1,
65465ac216a26bebcc8d8b02,SCR,2024-06-25_14h25.14.842,LearnStrategy,2023.2.3,MacIntel,59.03187721,9,2,10,,,,,,,,8,03,,,,,,,,,,,,,8,1.339,1,,,,,,0.396666667,-0.385555556,1,0,0,1.339,Pumice_rect,9,0,9,0,1,
65465ac216a26bebcc8d8b02,SCR,2024-06-25_14h25.14.842,LearnStrategy,2023.2.3,MacIntel,59.03187721,9,2,11,,,,,,,,7,07,,,,,,,,,,,,,7,1.659,1,,,,,,0.151111111,-0.397777778,1,0,0,1.659,Peridotite_rect,10,0,10,0,1,
65465ac216a26bebcc8d8b02,SCR,2024-06-25_14h25.14.842,LearnStrategy,2023.2.3,MacIntel,59.03187721,9,2,12,,,,,,,,4,03,,,,,,,,,,,,,4,3.684,1,,,,,,0.367777778,-0.255555556,1,0,0,3.684,Gabbro_rect,11,0,11,0,1,
65465ac216a26bebcc8d8b02,SCR,2024-06-25_14h25.14.842,LearnStrategy,2023.2.3,MacIntel,59.03187721,9,2,13,,,,,,,,4,11,,,,,,,,,,,,,4,1.389,1,,,,,,0.367777778,-0.255555556,1,0,0,1.389,Gabbro_rect,12,0,12,0,1,
65465ac216a26bebcc8d8b02,SCR,2024-06-25_14h25.14.842,LearnStrategy,2023.2.3,MacIntel,59.03187721,9,2,14,,,,,,,,7,13,,,,,,,,,,,,,7,1.044,1,,,,,,0.19,-0.394444444,1,0,0,1.044,Peridotite_rect,13,0,13,0,1,
65465ac216a26bebcc8d8b02,SCR,2024-06-25_14h25.14.842,LearnStrategy,2023.2.3,MacIntel,59.03187721,9,2,15,,,,,,,,6,16,,,,,,,,,,,,,6,0.967,1,,,,,,-0.148888889,-0.394444444,1,0,0,0.967,Pegmatite_rect,14,0,14,0,1,
65465ac216a26bebcc8d8b02,SCR,2024-06-25_14h25.14.842,LearnStrategy,2023.2.3,MacIntel,59.03187721,9,2,16,,,,,,,,2,12,,,,,,,,,,,,,8,3.096,0,,,,,,0.373333333,-0.4,1,0,0,3.096,Pumice_rect,15,0,15,0,1,
65465ac216a26bebcc8d8b02,SCR,2024-06-25_14h25.14.842,LearnStrategy,2023.2.3,MacIntel,59.03187721,,,,,,,,,,,,,,,,,,,,,,,,,,,,,,,,,,,,,,,,,,,,,1
65465ac216a26bebcc8d8b02,SCR,2024-06-25_14h25.14.842,LearnStrategy,2023.2.3,MacIntel,59.03187721,,,,,,,,,,,,,,,,,,,,,,,,,,,,,,,,,,,,,,,,,,,,,
65465ac216a26bebcc8d8b02,SCR,2024-06-25_14h25.14.842,LearnStrategy,2023.2.3,MacIntel,59.03187721,,,,,,,,,,,8,04,1,1,,,,,,,,,,,,,,,,,,,,,,,,,,,,,,,
65465ac216a26bebcc8d8b02,SCR,2024-06-25_14h25.14.842,LearnStrategy,2023.2.3,MacIntel,59.03187721,,,,,,,,,,,8,16,1,2,,,,,,,,,,,,,,,,,,,,,,,,,,,,,,,
65465ac216a26bebcc8d8b02,SCR,2024-06-25_14h25.14.842,LearnStrategy,2023.2.3,MacIntel,59.03187721,,,,,,,,,,,7,08,1,3,,,,,,,,,,,,,,,,,,,,,,,,,,,,,,,
65465ac216a26bebcc8d8b02,SCR,2024-06-25_14h25.14.842,LearnStrategy,2023.2.3,MacIntel,59.03187721,,,,,,,,,,,3,07,1,4,,,,,,,,,,,,,,,,,,,,,,,,,,,,,,,
65465ac216a26bebcc8d8b02,SCR,2024-06-25_14h25.14.842,LearnStrategy,2023.2.3,MacIntel,59.03187721,,,,,,,,,,,3,15,1,5,,,,,,,,,,,,,,,,,,,,,,,,,,,,,,,
65465ac216a26bebcc8d8b02,SCR,2024-06-25_14h25.14.842,LearnStrategy,2023.2.3,MacIntel,59.03187721,,,,,,,,,,,4,16,1,6,,,,,,,,,,,,,,,,,,,,,,,,,,,,,,,
65465ac216a26bebcc8d8b02,SCR,2024-06-25_14h25.14.842,LearnStrategy,2023.2.3,MacIntel,59.03187721,,,,,,,,,,,1,14,1,7,,,,,,,,,,,,,,,,,,,,,,,,,,,,,,,
65465ac216a26bebcc8d8b02,SCR,2024-06-25_14h25.14.842,LearnStrategy,2023.2.3,MacIntel,59.03187721,,,,,,,,,,,5,04,1,8,,,,,,,,,,,,,,,,,,,,,,,,,,,,,,,
65465ac216a26bebcc8d8b02,SCR,2024-06-25_14h25.14.842,LearnStrategy,2023.2.3,MacIntel,59.03187721,,,,,,,,,,,6,11,2,1,,,,,,,,,,,,,,,,,,,,,,,,,,,,,,,
65465ac216a26bebcc8d8b02,SCR,2024-06-25_14h25.14.842,LearnStrategy,2023.2.3,MacIntel,59.03187721,,,,,,,,,,,8,08,2,2,,,,,,,,,,,,,,,,,,,,,,,,,,,,,,,
65465ac216a26bebcc8d8b02,SCR,2024-06-25_14h25.14.842,LearnStrategy,2023.2.3,MacIntel,59.03187721,,,,,,,,,,,5,07,2,3,,,,,,,,,,,,,,,,,,,,,,,,,,,,,,,
65465ac216a26bebcc8d8b02,SCR,2024-06-25_14h25.14.842,LearnStrategy,2023.2.3,MacIntel,59.03187721,,,,,,,,,,,2,10,2,4,,,,,,,,,,,,,,,,,,,,,,,,,,,,,,,
65465ac216a26bebcc8d8b02,SCR,2024-06-25_14h25.14.842,LearnStrategy,2023.2.3,MacIntel,59.03187721,,,,,,,,,,,3,11,2,5,,,,,,,,,,,,,,,,,,,,,,,,,,,,,,,
65465ac216a26bebcc8d8b02,SCR,2024-06-25_14h25.14.842,LearnStrategy,2023.2.3,MacIntel,59.03187721,,,,,,,,,,,6,12,2,6,,,,,,,,,,,,,,,,,,,,,,,,,,,,,,,
65465ac216a26bebcc8d8b02,SCR,2024-06-25_14h25.14.842,LearnStrategy,2023.2.3,MacIntel,59.03187721,,,,,,,,,,,3,12,2,7,,,,,,,,,,,,,,,,,,,,,,,,,,,,,,,
65465ac216a26bebcc8d8b02,SCR,2024-06-25_14h25.14.842,LearnStrategy,2023.2.3,MacIntel,59.03187721,,,,,,,,,,,1,11,2,8,,,,,,,,,,,,,,,,,,,,,,,,,,,,,,,
65465ac216a26bebcc8d8b02,SCR,2024-06-25_14h25.14.842,LearnStrategy,2023.2.3,MacIntel,59.03187721,,,,,,,,,,,8,02,3,1,,,,,,,,,,,,,,,,,,,,,,,,,,,,,,,
65465ac216a26bebcc8d8b02,SCR,2024-06-25_14h25.14.842,LearnStrategy,2023.2.3,MacIntel,59.03187721,,,,,,,,,,,1,09,3,2,,,,,,,,,,,,,,,,,,,,,,,,,,,,,,,
65465ac216a26bebcc8d8b02,SCR,2024-06-25_14h25.14.842,LearnStrategy,2023.2.3,MacIntel,59.03187721,,,,,,,,,,,5,16,3,3,,,,,,,,,,,,,,,,,,,,,,,,,,,,,,,
65465ac216a26bebcc8d8b02,SCR,2024-06-25_14h25.14.842,LearnStrategy,2023.2.3,MacIntel,59.03187721,,,,,,,,,,,3,13,3,4,,,,,,,,,,,,,,,,,,,,,,,,,,,,,,,
65465ac216a26bebcc8d8b02,SCR,2024-06-25_14h25.14.842,LearnStrategy,2023.2.3,MacIntel,59.03187721,,,,,,,,,,,2,09,3,5,,,,,,,,,,,,,,,,,,,,,,,,,,,,,,,
65465ac216a26bebcc8d8b02,SCR,2024-06-25_14h25.14.842,LearnStrategy,2023.2.3,MacIntel,59.03187721,,,,,,,,,,,4,09,3,6,,,,,,,,,,,,,,,,,,,,,,,,,,,,,,,
65465ac216a26bebcc8d8b02,SCR,2024-06-25_14h25.14.842,LearnStrategy,2023.2.3,MacIntel,59.03187721,,,,,,,,,,,7,06,3,7,,,,,,,,,,,,,,,,,,,,,,,,,,,,,,,
65465ac216a26bebcc8d8b02,SCR,2024-06-25_14h25.14.842,LearnStrategy,2023.2.3,MacIntel,59.03187721,,,,,,,,,,,4,15,3,8,,,,,,,,,,,,,,,,,,,,,,,,,,,,,,,
65465ac216a26bebcc8d8b02,SCR,2024-06-25_14h25.14.842,LearnStrategy,2023.2.3,MacIntel,59.03187721,,,,,,,,,,,1,04,4,1,,,,,,,,,,,,,,,,,,,,,,,,,,,,,,,
65465ac216a26bebcc8d8b02,SCR,2024-06-25_14h25.14.842,LearnStrategy,2023.2.3,MacIntel,59.03187721,,,,,,,,,,,6,06,4,2,,,,,,,,,,,,,,,,,,,,,,,,,,,,,,,
65465ac216a26bebcc8d8b02,SCR,2024-06-25_14h25.14.842,LearnStrategy,2023.2.3,MacIntel,59.03187721,,,,,,,,,,,2,11,4,3,,,,,,,,,,,,,,,,,,,,,,,,,,,,,,,
65465ac216a26bebcc8d8b02,SCR,2024-06-25_14h25.14.842,LearnStrategy,2023.2.3,MacIntel,59.03187721,,,,,,,,,,,8,10,4,4,,,,,,,,,,,,,,,,,,,,,,,,,,,,,,,
65465ac216a26bebcc8d8b02,SCR,2024-06-25_14h25.14.842,LearnStrategy,2023.2.3,MacIntel,59.03187721,,,,,,,,,,,1,05,4,5,,,,,,,,,,,,,,,,,,,,,,,,,,,,,,,
65465ac216a26bebcc8d8b02,SCR,2024-06-25_14h25.14.842,LearnStrategy,2023.2.3,MacIntel,59.03187721,,,,,,,,,,,2,14,4,6,,,,,,,,,,,,,,,,,,,,,,,,,,,,,,,
65465ac216a26bebcc8d8b02,SCR,2024-06-25_14h25.14.842,LearnStrategy,2023.2.3,MacIntel,59.03187721,,,,,,,,,,,1,01,4,7,,,,,,,,,,,,,,,,,,,,,,,,,,,,,,,
65465ac216a26bebcc8d8b02,SCR,2024-06-25_14h25.14.842,LearnStrategy,2023.2.3,MacIntel,59.03187721,,,,,,,,,,,6,08,4,8,,,,,,,,,,,,,,,,,,,,,,,,,,,,,,,
65465ac216a26bebcc8d8b02,SCR,2024-06-25_14h25.14.842,LearnStrategy,2023.2.3,MacIntel,59.03187721,,,,,,,,,,,7,14,5,1,,,,,,,,,,,,,,,,,,,,,,,,,,,,,,,
65465ac216a26bebcc8d8b02,SCR,2024-06-25_14h25.14.842,LearnStrategy,2023.2.3,MacIntel,59.03187721,,,,,,,,,,,3,02,5,2,,,,,,,,,,,,,,,,,,,,,,,,,,,,,,,
65465ac216a26bebcc8d8b02,SCR,2024-06-25_14h25.14.842,LearnStrategy,2023.2.3,MacIntel,59.03187721,,,,,,,,,,,5,08,5,3,,,,,,,,,,,,,,,,,,,,,,,,,,,,,,,
65465ac216a26bebcc8d8b02,SCR,2024-06-25_14h25.14.842,LearnStrategy,2023.2.3,MacIntel,59.03187721,,,,,,,,,,,4,13,5,4,,,,,,,,,,,,,,,,,,,,,,,,,,,,,,,
65465ac216a26bebcc8d8b02,SCR,2024-06-25_14h25.14.842,LearnStrategy,2023.2.3,MacIntel,59.03187721,,,,,,,,,,,7,16,5,5,,,,,,,,,,,,,,,,,,,,,,,,,,,,,,,
65465ac216a26bebcc8d8b02,SCR,2024-06-25_14h25.14.842,LearnStrategy,2023.2.3,MacIntel,59.03187721,,,,,,,,,,,7,10,5,6,,,,,,,,,,,,,,,,,,,,,,,,,,,,,,,
65465ac216a26bebcc8d8b02,SCR,2024-06-25_14h25.14.842,LearnStrategy,2023.2.3,MacIntel,59.03187721,,,,,,,,,,,6,05,5,7,,,,,,,,,,,,,,,,,,,,,,,,,,,,,,,
65465ac216a26bebcc8d8b02,SCR,2024-06-25_14h25.14.842,LearnStrategy,2023.2.3,MacIntel,59.03187721,,,,,,,,,,,2,01,5,8,,,,,,,,,,,,,,,,,,,,,,,,,,,,,,,
65465ac216a26bebcc8d8b02,SCR,2024-06-25_14h25.14.842,LearnStrategy,2023.2.3,MacIntel,59.03187721,,,,,,,,,,,4,12,6,1,,,,,,,,,,,,,,,,,,,,,,,,,,,,,,,
65465ac216a26bebcc8d8b02,SCR,2024-06-25_14h25.14.842,LearnStrategy,2023.2.3,MacIntel,59.03187721,,,,,,,,,,,5,09,6,2,,,,,,,,,,,,,,,,,,,,,,,,,,,,,,,
65465ac216a26bebcc8d8b02,SCR,2024-06-25_14h25.14.842,LearnStrategy,2023.2.3,MacIntel,59.03187721,,,,,,,,,,,8,05,6,3,,,,,,,,,,,,,,,,,,,,,,,,,,,,,,,
65465ac216a26bebcc8d8b02,SCR,2024-06-25_14h25.14.842,LearnStrategy,2023.2.3,MacIntel,59.03187721,,,,,,,,,,,7,12,6,4,,,,,,,,,,,,,,,,,,,,,,,,,,,,,,,
65465ac216a26bebcc8d8b02,SCR,2024-06-25_14h25.14.842,LearnStrategy,2023.2.3,MacIntel,59.03187721,,,,,,,,,,,4,08,6,5,,,,,,,,,,,,,,,,,,,,,,,,,,,,,,,
65465ac216a26bebcc8d8b02,SCR,2024-06-25_14h25.14.842,LearnStrategy,2023.2.3,MacIntel,59.03187721,,,,,,,,,,,2,04,6,6,,,,,,,,,,,,,,,,,,,,,,,,,,,,,,,
65465ac216a26bebcc8d8b02,SCR,2024-06-25_14h25.14.842,LearnStrategy,2023.2.3,MacIntel,59.03187721,,,,,,,,,,,6,09,6,7,,,,,,,,,,,,,,,,,,,,,,,,,,,,,,,
65465ac216a26bebcc8d8b02,SCR,2024-06-25_14h25.14.842,LearnStrategy,2023.2.3,MacIntel,59.03187721,,,,,,,,,,,5,14,6,8,,,,,,,,,,,,,,,,,,,,,,,,,,,,,,,