participant,condition,date,expName,psychopyVersion,OS,frameRate,block,phase,trial,learn_mouse.x,learn_mouse.y,learn_mouse.leftButton,learn_mouse.midButton,learn_mouse.rightButton,learn_mouse.time,learn_mouse.clicked_name,cat,token,row,col,t_select,cat_rec,token_rec,cat_mouse_l.x,cat_mouse_l.y,cat_mouse_l.leftButton,cat_mouse_l.midButton,cat_mouse_l.rightButton,cat_mouse_l.time,cat_mouse_l.clicked_name,resp,t_resp,corr,train_trials.thisRepN,train_trials.thisTrialN,train_trials.thisN,train_trials.thisIndex,train_trials.ran,cat_mouse_t.x,cat_mouse_t.y,cat_mouse_t.leftButton,cat_mouse_t.midButton,cat_mouse_t.rightButton,cat_mouse_t.time,cat_mouse_t.clicked_name,test_trials.thisRepN,test_trials.thisTrialN,test_trials.thisN,test_trials.thisIndex,test_trials.ran,Bonus
654a4e699c84b61cf7eed3f7,SCR,2024-06-24_18h31.44.403,LearnStrategy,2023.2.3,Win32,59.88023952,,,,,,,,,,,,,,,,,,,,,,,,,,,,,,,,,,,,,,,,,,,,,
654a4e699c84b61cf7eed3f7,SCR,2024-06-24_18h31.44.403,LearnStrategy,2023.2.3,Win32,59.88023952,1,1,1,0.106666667,0.067777778,1,0,0,17.8246,Obsidian_12,5,12,4,5,17.825,6,05,-0.363333333,-0.413333333,1,0,0,3.8517,Obsidian_rect,5,3.852,1,0,0,0,0,1,,,,,,,,,,,,,
654a4e699c84b61cf7eed3f7,SCR,2024-06-24_18h31.44.403,LearnStrategy,2023.2.3,Win32,59.88023952,1,1,2,0.427777778,0.212222222,1,0,0,6.031,Obsidian_11,5,11,5,7,6.031,5,12,-0.374444444,-0.407777778,1,0,0,1.08,Obsidian_rect,5,1.08,1,1,0,1,0,1,,,,,,,,,,,,,
654a4e699c84b61cf7eed3f7,SCR,2024-06-24_18h31.44.403,LearnStrategy,2023.2.3,Win32,59.88023952,1,1,3,0.417777778,-0.095555556,1,0,0,2.4399,Diorite_02,3,02,3,7,2.44,1,06,-0.057777778,-0.242222222,1,0,0,2.7426,Basalt_rect,2,2.743,0,2,0,2,0,1,,,,,,,,,,,,,
654a4e699c84b61cf7eed3f7,SCR,2024-06-24_18h31.44.403,LearnStrategy,2023.2.3,Win32,59.88023952,1,1,4,0.572222222,-0.116666667,1,0,0,2.3191,Gabbro_14,4,14,3,8,2.319,8,16,0.35,-0.411111111,1,0,0,4.9529,Pumice_rect,8,4.953,0,3,0,3,0,1,,,,,,,,,,,,,
654a4e699c84b61cf7eed3f7,SCR,2024-06-24_18h31.44.403,LearnStrategy,2023.2.3,Win32,59.88023952,1,1,5,0.526666667,0.088888889,1,0,0,19.6469,Pumice_10,8,10,4,8,19.647,4,10,-0.197777778,-0.25,1,0,0,1.7051,Basalt_rect,2,1.705,0,4,0,4,0,1,,,,,,,,,,,,,
654a4e699c84b61cf7eed3f7,SCR,2024-06-24_18h31.44.403,LearnStrategy,2023.2.3,Win32,59.88023952,1,1,6,0.242222222,-0.398888889,1,0,0,2.9487,Peridotite_15,7,15,1,6,2.949,7,15,0.183333333,-0.384444444,1,0,0,2.5105,Peridotite_rect,7,2.511,1,5,0,5,0,1,,,,,,,,,,,,,
654a4e699c84b61cf7eed3f7,SCR,2024-06-24_18h31.44.403,LearnStrategy,2023.2.3,Win32,59.88023952,1,1,7,-0.558888889,0.268888889,1,0,0,6.5978,Pegmatite_12,6,12,5,1,6.598,6,12,-0.343333333,-0.245555556,1,0,0,2.0884,Andesite_rect,1,2.088,0,6,0,6,0,1,,,,,,,,,,,,,
654a4e699c84b61cf7eed3f7,SCR,2024-06-24_18h31.44.403,LearnStrategy,2023.2.3,Win32,59.88023952,1,1,8,-0.072222222,-0.118888889,1,0,0,1.6305,Diorite_10,3,10,3,4,1.63,3,10,-0.122222222,-0.413333333,1,0,0,4.661,Pegmatite_rect,6,4.661,0,7,0,7,0,1,,,,,,,,,,,,,
654a4e699c84b61cf7eed3f7,SCR,2024-06-24_18h31.44.403,LearnStrategy,2023.2.3,Win32,59.88023952,1,1,9,-0.377777778,-0.442222222,1,0,0,1.765,Peridotite_08,7,08,1,2,1.765,7,08,-0.095555556,-0.253333333,1,0,0,6.8771,Basalt_rect,2,6.877,0,8,0,8,0,1,,,,,,,,,,,,,
654a4e699c84b61cf7eed3f7,SCR,2024-06-24_18h31.44.403,LearnStrategy,2023.2.3,Win32,59.88023952,1,1,10,-0.592222222,-0.095555556,1,0,0,0.9812,Diorite_15,3,15,3,1,0.981,3,15,0.313333333,-0.247777778,1,0,0,2.9108,Gabbro_rect,4,2.911,0,9,0,9,0,1,,,,,,,,,,,,,
654a4e699c84b61cf7eed3f7,SCR,2024-06-24_18h31.44.403,LearnStrategy,2023.2.3,Win32,59.88023952,1,1,11,0.514444444,-0.408888889,1,0,0,1.4147,Gabbro_11,4,11,1,8,1.415,8,13,-0.122222222,-0.242222222,1,0,0,3.3109,Basalt_rect,2,3.311,0,10,0,10,0,1,,,,,,,,,,,,,
654a4e699c84b61cf7eed3f7,SCR,2024-06-24_18h31.44.403,LearnStrategy,2023.2.3,Win32,59.88023952,1,1,12,0.232222222,0.436666667,1,0,0,6.8482,Basalt_12,2,12,6,6,6.848,5,16,-0.097777778,-0.247777778,1,0,0,5.2388,Basalt_rect,2,5.239,1,11,0,11,0,1,,,,,,,,,,,,,
654a4e699c84b61cf7eed3f7,SCR,2024-06-24_18h31.44.403,LearnStrategy,2023.2.3,Win32,59.88023952,1,1,13,0.214444444,0.407777778,1,0,0,0.9816,Basalt_12,2,12,6,6,0.982,2,12,-0.091111111,-0.25,1,0,0,1.4281,Basalt_rect,2,1.428,1,12,0,12,0,1,,,,,,,,,,,,,
654a4e699c84b61cf7eed3f7,SCR,2024-06-24_18h31.44.403,LearnStrategy,2023.2.3,Win32,59.88023952,1,1,14,-0.531111111,-0.253333333,1,0,0,0.9817,Basalt_16,2,16,2,1,0.982,2,16,0.38,-0.24,1,0,0,1.6117,Gabbro_rect,4,1.612,0,13,0,13,0,1,,,,,,,,,,,,,
654a4e699c84b61cf7eed3f7,SCR,2024-06-24_18h31.44.403,LearnStrategy,2023.2.3,Win32,59.88023952,1,1,15,-0.225555556,0.111111111,1,0,0,0.8984,Andesite_02,1,02,4,3,0.898,1,02,0.204444444,-0.237777778,1,0,0,4.5604,Diorite_rect,3,4.56,0,14,0,14,0,1,,,,,,,,,,,,,
654a4e699c84b61cf7eed3f7,SCR,2024-06-24_18h31.44.403,LearnStrategy,2023.2.3,Win32,59.88023952,1,1,16,0.555555556,0.412222222,1,0,0,0.931,Gabbro_03,4,03,6,8,0.931,4,03,-0.096666667,-0.396666667,1,0,0,1.4281,Pegmatite_rect,6,1.428,0,15,0,15,0,1,,,,,,,,,,,,,
654a4e699c84b61cf7eed3f7,SCR,2024-06-24_18h31.44.403,LearnStrategy,2023.2.3,Win32,59.88023952,1,2,1,,,,,,,,2,01,,,,,,,,,,,,,3,2.794,0,,,,,,0.217777778,-0.233333333,1,0,0,2.7938,Diorite_rect,0,0,0,0,1,
654a4e699c84b61cf7eed3f7,SCR,2024-06-24_18h31.44.403,LearnStrategy,2023.2.3,Win32,59.88023952,1,2,2,,,,,,,,8,06,,,,,,,,,,,,,3,6.461,0,,,,,,0.165555556,-0.255555556,1,0,0,6.4606,Diorite_rect,1,0,1,0,1,
654a4e699c84b61cf7eed3f7,SCR,2024-06-24_18h31.44.403,LearnStrategy,2023.2.3,Win32,59.88023952,1,2,3,,,,,,,,7,12,,,,,,,,,,,,,2,2.711,0,,,,,,-0.1,-0.235555556,1,0,0,2.711,Basalt_rect,2,0,2,0,1,
654a4e699c84b61cf7eed3f7,SCR,2024-06-24_18h31.44.403,LearnStrategy,2023.2.3,Win32,59.88023952,1,2,4,,,,,,,,1,03,,,,,,,,,,,,,2,2.236,0,,,,,,-0.084444444,-0.228888889,1,0,0,2.236,Basalt_rect,3,0,3,0,1,
654a4e699c84b61cf7eed3f7,SCR,2024-06-24_18h31.44.403,LearnStrategy,2023.2.3,Win32,59.88023952,1,2,5,,,,,,,,5,14,,,,,,,,,,,,,5,1.805,1,,,,,,-0.327777778,-0.391111111,1,0,0,1.8046,Obsidian_rect,4,0,4,0,1,
654a4e699c84b61cf7eed3f7,SCR,2024-06-24_18h31.44.403,LearnStrategy,2023.2.3,Win32,59.88023952,1,2,6,,,,,,,,2,09,,,,,,,,,,,,,3,2.483,0,,,,,,0.187777778,-0.237777778,1,0,0,2.4833,Diorite_rect,5,0,5,0,1,
654a4e699c84b61cf7eed3f7,SCR,2024-06-24_18h31.44.403,LearnStrategy,2023.2.3,Win32,59.88023952,1,2,7,,,,,,,,1,11,,,,,,,,,,,,,2,3.474,0,,,,,,-0.07,-0.27,1,0,0,3.4737,Basalt_rect,6,0,6,0,1,
654a4e699c84b61cf7eed3f7,SCR,2024-06-24_18h31.44.403,LearnStrategy,2023.2.3,Win32,59.88023952,1,2,8,,,,,,,,4,15,,,,,,,,,,,,,4,1.786,1,,,,,,0.396666667,-0.233333333,1,0,0,1.7858,Gabbro_rect,7,0,7,0,1,
654a4e699c84b61cf7eed3f7,SCR,2024-06-24_18h31.44.403,LearnStrategy,2023.2.3,Win32,59.88023952,1,2,9,,,,,,,,3,16,,,,,,,,,,,,,3,1.89,1,,,,,,0.205555556,-0.236666667,1,0,0,1.8897,Diorite_rect,8,0,8,0,1,
654a4e699c84b61cf7eed3f7,SCR,2024-06-24_18h31.44.403,LearnStrategy,2023.2.3,Win32,59.88023952,1,2,10,,,,,,,,3,12,,,,,,,,,,,,,7,2.305,0,,,,,,0.043333333,-0.385555556,1,0,0,2.3047,Peridotite_rect,9,0,9,0,1,
654a4e699c84b61cf7eed3f7,SCR,2024-06-24_18h31.44.403,LearnStrategy,2023.2.3,Win32,59.88023952,1,2,11,,,,,,,,8,09,,,,,,,,,,,,,7,2.086,0,,,,,,0.113333333,-0.383333333,1,0,0,2.0857,Peridotite_rect,10,0,10,0,1,
654a4e699c84b61cf7eed3f7,SCR,2024-06-24_18h31.44.403,LearnStrategy,2023.2.3,Win32,59.88023952,1,2,12,,,,,,,,7,04,,,,,,,,,,,,,7,4.032,1,,,,,,0.121111111,-0.382222222,1,0,0,4.0315,Peridotite_rect,11,0,11,0,1,
654a4e699c84b61cf7eed3f7,SCR,2024-06-24_18h31.44.403,LearnStrategy,2023.2.3,Win32,59.88023952,1,2,13,,,,,,,,6,15,,,,,,,,,,,,,3,3.269,0,,,,,,0.078888889,-0.271111111,1,0,0,3.2692,Diorite_rect,12,0,12,0,1,
654a4e699c84b61cf7eed3f7,SCR,2024-06-24_18h31.44.403,LearnStrategy,2023.2.3,Win32,59.88023952,1,2,14,,,,,,,,6,03,,,,,,,,,,,,,2,1.073,0,,,,,,-0.062222222,-0.265555556,1,0,0,1.0734,Basalt_rect,13,0,13,0,1,
654a4e699c84b61cf7eed3f7,SCR,2024-06-24_18h31.44.403,LearnStrategy,2023.2.3,Win32,59.88023952,1,2,15,,,,,,,,4,05,,,,,,,,,,,,,2,3.118,0,,,,,,-0.064444444,-0.265555556,1,0,0,3.1182,Basalt_rect,14,0,14,0,1,
654a4e699c84b61cf7eed3f7,SCR,2024-06-24_18h31.44.403,LearnStrategy,2023.2.3,Win32,59.88023952,1,2,16,,,,,,,,5,04,,,,,,,,,,,,,5,1.17,1,,,,,,-0.352222222,-0.396666667,1,0,0,1.1699,Obsidian_rect,15,0,15,0,1,
654a4e699c84b61cf7eed3f7,SCR,2024-06-24_18h31.44.403,LearnStrategy,2023.2.3,Win32,59.88023952,2,1,1,-0.114444444,0.383333333,1,0,0,2.3149,Pegmatite_05,6,05,6,4,2.315,6,05,-0.087777778,-0.391111111,1,0,0,3.2102,Pegmatite_rect,6,3.21,1,0,0,0,0,1,,,,,,,,,,,,,
654a4e699c84b61cf7eed3f7,SCR,2024-06-24_18h31.44.403,LearnStrategy,2023.2.3,Win32,59.88023952,2,1,2,0.072222222,0.427777778,1,0,0,0.8641,Basalt_02,2,02,6,5,0.864,2,02,0.136666667,-0.237777778,1,0,0,0.9454,Diorite_rect,3,0.945,0,1,0,1,0,1,,,,,,,,,,,,,
654a4e699c84b61cf7eed3f7,SCR,2024-06-24_18h31.44.403,LearnStrategy,2023.2.3,Win32,59.88023952,2,1,3,-0.371111111,0.1,1,0,0,0.7322,Pumice_16,8,16,4,2,0.732,8,16,0.211111111,-0.237777778,1,0,0,1.761,Diorite_rect,3,1.761,0,2,0,2,0,1,,,,,,,,,,,,,
654a4e699c84b61cf7eed3f7,SCR,2024-06-24_18h31.44.403,LearnStrategy,2023.2.3,Win32,59.88023952,2,1,4,0.062222222,0.378888889,1,0,0,0.7988,Basalt_02,2,02,6,5,0.799,2,02,-0.127777778,-0.256666667,1,0,0,3.3111,Basalt_rect,2,3.311,1,3,0,3,0,1,,,,,,,,,,,,,
654a4e699c84b61cf7eed3f7,SCR,2024-06-24_18h31.44.403,LearnStrategy,2023.2.3,Win32,59.88023952,2,1,5,-0.506666667,-0.403333333,1,0,0,0.8626,Basalt_05,2,05,1,1,0.863,2,05,0.183333333,-0.253333333,1,0,0,4.9608,Diorite_rect,3,4.961,0,4,0,4,0,1,,,,,,,,,,,,,
654a4e699c84b61cf7eed3f7,SCR,2024-06-24_18h31.44.403,LearnStrategy,2023.2.3,Win32,59.88023952,2,1,6,-0.234444444,0.073333333,1,0,0,0.7479,Andesite_02,1,02,4,3,0.748,1,02,-0.055555556,-0.23,1,0,0,1.7434,Basalt_rect,2,1.743,0,5,0,5,0,1,,,,,,,,,,,,,
654a4e699c84b61cf7eed3f7,SCR,2024-06-24_18h31.44.403,LearnStrategy,2023.2.3,Win32,59.88023952,2,1,7,-0.218888889,0.385555556,1,0,0,0.7983,Diorite_06,3,06,6,3,0.798,3,06,0.375555556,-0.258888889,1,0,0,1.4268,Gabbro_rect,4,1.427,0,6,0,6,0,1,,,,,,,,,,,,,
654a4e699c84b61cf7eed3f7,SCR,2024-06-24_18h31.44.403,LearnStrategy,2023.2.3,Win32,59.88023952,2,1,8,-0.543333333,-0.088888889,1,0,0,0.9654,Diorite_15,3,15,3,1,0.965,3,15,0.328888889,-0.398888889,1,0,0,1.144,Pumice_rect,8,1.144,0,7,0,7,0,1,,,,,,,,,,,,,
654a4e699c84b61cf7eed3f7,SCR,2024-06-24_18h31.44.403,LearnStrategy,2023.2.3,Win32,59.88023952,2,1,9,0.416666667,-0.294444444,1,0,0,0.9149,Pumice_04,8,04,2,7,0.915,8,04,-0.041111111,-0.228888889,1,0,0,3.3803,Basalt_rect,2,3.38,0,8,0,8,0,1,,,,,,,,,,,,,
654a4e699c84b61cf7eed3f7,SCR,2024-06-24_18h31.44.403,LearnStrategy,2023.2.3,Win32,59.88023952,2,1,10,0.526666667,-0.247777778,1,0,0,1.1143,Andesite_04,1,04,2,8,1.114,1,04,0.127777778,-0.264444444,1,0,0,1.0442,Diorite_rect,3,1.044,0,9,0,9,0,1,,,,,,,,,,,,,
654a4e699c84b61cf7eed3f7,SCR,2024-06-24_18h31.44.403,LearnStrategy,2023.2.3,Win32,59.88023952,2,1,11,-0.37,-0.221111111,1,0,0,1.331,Peridotite_16,7,16,2,2,1.331,7,16,-0.111111111,-0.251111111,1,0,0,3.1819,Basalt_rect,2,3.182,0,10,0,10,0,1,,,,,,,,,,,,,
654a4e699c84b61cf7eed3f7,SCR,2024-06-24_18h31.44.403,LearnStrategy,2023.2.3,Win32,59.88023952,2,1,12,-0.388888889,0.115555556,1,0,0,0.9477,Pumice_16,8,16,4,2,0.948,8,16,0.448888889,-0.401111111,1,0,0,0.728,Pumice_rect,8,0.728,1,11,0,11,0,1,,,,,,,,,,,,,
654a4e699c84b61cf7eed3f7,SCR,2024-06-24_18h31.44.403,LearnStrategy,2023.2.3,Win32,59.88023952,2,1,13,-0.105555556,-0.234444444,1,0,0,0.8149,Pegmatite_09,6,09,2,4,0.815,6,09,0.361111111,-0.396666667,1,0,0,1.1448,Pumice_rect,8,1.145,0,12,0,12,0,1,,,,,,,,,,,,,
654a4e699c84b61cf7eed3f7,SCR,2024-06-24_18h31.44.403,LearnStrategy,2023.2.3,Win32,59.88023952,2,1,14,0.505555556,0.377777778,1,0,0,1.2826,Gabbro_03,4,03,6,8,1.283,4,03,0.124444444,-0.238888889,1,0,0,2.094,Diorite_rect,3,2.094,0,13,0,13,0,1,,,,,,,,,,,,,
654a4e699c84b61cf7eed3f7,SCR,2024-06-24_18h31.44.403,LearnStrategy,2023.2.3,Win32,59.88023952,2,1,15,0.077777778,-0.261111111,1,0,0,0.7801,Peridotite_02,7,02,2,5,0.78,7,02,-0.118888889,-0.235555556,1,0,0,3.0116,Basalt_rect,2,3.012,0,14,0,14,0,1,,,,,,,,,,,,,
654a4e699c84b61cf7eed3f7,SCR,2024-06-24_18h31.44.403,LearnStrategy,2023.2.3,Win32,59.88023952,2,1,16,0.228888889,-0.26,1,0,0,0.7641,Pegmatite_13,6,13,2,6,0.764,6,13,-0.077777778,-0.394444444,1,0,0,2.3943,Pegmatite_rect,6,2.394,1,15,0,15,0,1,,,,,,,,,,,,,
654a4e699c84b61cf7eed3f7,SCR,2024-06-24_18h31.44.403,LearnStrategy,2023.2.3,Win32,59.88023952,2,2,1,,,,,,,,2,10,,,,,,,,,,,,,5,2.328,0,,,,,,-0.356666667,-0.404444444,1,0,0,2.3276,Obsidian_rect,0,0,0,0,1,
654a4e699c84b61cf7eed3f7,SCR,2024-06-24_18h31.44.403,LearnStrategy,2023.2.3,Win32,59.88023952,2,2,2,,,,,,,,7,13,,,,,,,,,,,,,7,3.394,1,,,,,,0.121111111,-0.385555556,1,0,0,3.3941,Peridotite_rect,1,0,1,0,1,
654a4e699c84b61cf7eed3f7,SCR,2024-06-24_18h31.44.403,LearnStrategy,2023.2.3,Win32,59.88023952,2,2,3,,,,,,,,3,09,,,,,,,,,,,,,2,1.711,0,,,,,,-0.056666667,-0.235555556,1,0,0,1.7112,Basalt_rect,2,0,2,0,1,
654a4e699c84b61cf7eed3f7,SCR,2024-06-24_18h31.44.403,LearnStrategy,2023.2.3,Win32,59.88023952,2,2,4,,,,,,,,1,05,,,,,,,,,,,,,2,1.062,0,,,,,,-0.056666667,-0.235555556,1,0,0,1.0619,Basalt_rect,3,0,3,0,1,
654a4e699c84b61cf7eed3f7,SCR,2024-06-24_18h31.44.403,LearnStrategy,2023.2.3,Win32,59.88023952,2,2,5,,,,,,,,8,15,,,,,,,,,,,,,4,1.945,0,,,,,,0.397777778,-0.246666667,1,0,0,1.9451,Gabbro_rect,4,0,4,0,1,
654a4e699c84b61cf7eed3f7,SCR,2024-06-24_18h31.44.403,LearnStrategy,2023.2.3,Win32,59.88023952,2,2,6,,,,,,,,3,11,,,,,,,,,,,,,7,2.261,0,,,,,,0.115555556,-0.4,1,0,0,2.2613,Peridotite_rect,5,0,5,0,1,
654a4e699c84b61cf7eed3f7,SCR,2024-06-24_18h31.44.403,LearnStrategy,2023.2.3,Win32,59.88023952,2,2,7,,,,,,,,4,12,,,,,,,,,,,,,3,1.628,0,,,,,,0.083333333,-0.266666667,1,0,0,1.6283,Diorite_rect,6,0,6,0,1,
654a4e699c84b61cf7eed3f7,SCR,2024-06-24_18h31.44.403,LearnStrategy,2023.2.3,Win32,59.88023952,2,2,8,,,,,,,,8,05,,,,,,,,,,,,,1,2.461,0,,,,,,-0.392222222,-0.232222222,1,0,0,2.4613,Andesite_rect,7,0,7,0,1,
654a4e699c84b61cf7eed3f7,SCR,2024-06-24_18h31.44.403,LearnStrategy,2023.2.3,Win32,59.88023952,2,2,9,,,,,,,,5,07,,,,,,,,,,,,,7,4.245,0,,,,,,0.116666667,-0.405555556,1,0,0,4.2446,Peridotite_rect,8,0,8,0,1,
654a4e699c84b61cf7eed3f7,SCR,2024-06-24_18h31.44.403,LearnStrategy,2023.2.3,Win32,59.88023952,2,2,10,,,,,,,,5,06,,,,,,,,,,,,,5,1.545,1,,,,,,-0.362222222,-0.396666667,1,0,0,1.5452,Obsidian_rect,9,0,9,0,1,
654a4e699c84b61cf7eed3f7,SCR,2024-06-24_18h31.44.403,LearnStrategy,2023.2.3,Win32,59.88023952,2,2,11,,,,,,,,6,10,,,,,,,,,,,,,6,2.361,1,,,,,,-0.096666667,-0.395555556,1,0,0,2.3615,Pegmatite_rect,10,0,10,0,1,
654a4e699c84b61cf7eed3f7,SCR,2024-06-24_18h31.44.403,LearnStrategy,2023.2.3,Win32,59.88023952,2,2,12,,,,,,,,6,11,,,,,,,,,,,,,2,0.995,0,,,,,,-0.068888889,-0.27,1,0,0,0.995,Basalt_rect,11,0,11,0,1,
654a4e699c84b61cf7eed3f7,SCR,2024-06-24_18h31.44.403,LearnStrategy,2023.2.3,Win32,59.88023952,2,2,13,,,,,,,,7,10,,,,,,,,,,,,,7,1.594,1,,,,,,0.1,-0.391111111,1,0,0,1.5944,Peridotite_rect,12,0,12,0,1,
654a4e699c84b61cf7eed3f7,SCR,2024-06-24_18h31.44.403,LearnStrategy,2023.2.3,Win32,59.88023952,2,2,14,,,,,,,,1,10,,,,,,,,,,,,,2,1.311,0,,,,,,-0.072222222,-0.247777778,1,0,0,1.311,Basalt_rect,13,0,13,0,1,
654a4e699c84b61cf7eed3f7,SCR,2024-06-24_18h31.44.403,LearnStrategy,2023.2.3,Win32,59.88023952,2,2,15,,,,,,,,4,16,,,,,,,,,,,,,6,1.212,0,,,,,,-0.145555556,-0.394444444,1,0,0,1.2118,Pegmatite_rect,14,0,14,0,1,
654a4e699c84b61cf7eed3f7,SCR,2024-06-24_18h31.44.403,LearnStrategy,2023.2.3,Win32,59.88023952,2,2,16,,,,,,,,2,14,,,,,,,,,,,,,6,1.844,0,,,,,,-0.113333333,-0.395555556,1,0,0,1.8443,Pegmatite_rect,15,0,15,0,1,
654a4e699c84b61cf7eed3f7,SCR,2024-06-24_18h31.44.403,LearnStrategy,2023.2.3,Win32,59.88023952,3,1,1,-0.355555556,0.126666667,1,0,0,0.8489,Pumice_16,8,16,4,2,0.849,8,16,0.362222222,-0.254444444,1,0,0,2.2946,Gabbro_rect,4,2.295,0,0,0,0,0,1,,,,,,,,,,,,,
654a4e699c84b61cf7eed3f7,SCR,2024-06-24_18h31.44.403,LearnStrategy,2023.2.3,Win32,59.88023952,3,1,2,-0.043333333,-0.068888889,1,0,0,0.8147,Diorite_10,3,10,3,4,0.815,3,10,0.11,-0.228888889,1,0,0,1.7781,Diorite_rect,3,1.778,1,1,0,1,0,1,,,,,,,,,,,,,
654a4e699c84b61cf7eed3f7,SCR,2024-06-24_18h31.44.403,LearnStrategy,2023.2.3,Win32,59.88023952,3,1,3,0.246666667,-0.115555556,1,0,0,0.7489,Obsidian_16,5,16,3,6,0.749,5,16,-0.465555556,-0.412222222,1,0,0,1.7101,Obsidian_rect,5,1.71,1,2,0,2,0,1,,,,,,,,,,,,,
654a4e699c84b61cf7eed3f7,SCR,2024-06-24_18h31.44.403,LearnStrategy,2023.2.3,Win32,59.88023952,3,1,4,-0.06,-0.247777778,1,0,0,0.6989,Pegmatite_09,6,09,2,4,0.699,6,09,0.073333333,-0.264444444,1,0,0,1.4439,Diorite_rect,3,1.444,0,3,0,3,0,1,,,,,,,,,,,,,
654a4e699c84b61cf7eed3f7,SCR,2024-06-24_18h31.44.403,LearnStrategy,2023.2.3,Win32,59.88023952,3,1,5,0.193333333,0.392222222,1,0,0,1.0156,Basalt_12,2,12,6,6,1.016,2,12,-0.163333333,-0.417777778,1,0,0,0.9441,Pegmatite_rect,6,0.944,0,4,0,4,0,1,,,,,,,,,,,,,
654a4e699c84b61cf7eed3f7,SCR,2024-06-24_18h31.44.403,LearnStrategy,2023.2.3,Win32,59.88023952,3,1,6,0.564444444,-0.111111111,1,0,0,0.8485,Gabbro_14,4,14,3,8,0.848,4,14,0.36,-0.41,1,0,0,1.2285,Pumice_rect,8,1.229,0,5,0,5,0,1,,,,,,,,,,,,,
654a4e699c84b61cf7eed3f7,SCR,2024-06-24_18h31.44.403,LearnStrategy,2023.2.3,Win32,59.88023952,3,1,7,-0.097777778,0.096666667,1,0,0,0.715,Andesite_09,1,09,4,4,0.715,1,09,0.122222222,-0.252222222,1,0,0,0.8615,Diorite_rect,3,0.861,0,6,0,6,0,1,,,,,,,,,,,,,
654a4e699c84b61cf7eed3f7,SCR,2024-06-24_18h31.44.403,LearnStrategy,2023.2.3,Win32,59.88023952,3,1,8,-0.231111111,0.071111111,1,0,0,0.732,Andesite_02,1,02,4,3,0.732,1,02,0.13,-0.383333333,1,0,0,1.6776,Peridotite_rect,7,1.678,0,7,0,7,0,1,,,,,,,,,,,,,
654a4e699c84b61cf7eed3f7,SCR,2024-06-24_18h31.44.403,LearnStrategy,2023.2.3,Win32,59.88023952,3,1,9,-0.4,-0.417777778,1,0,0,1.1657,Peridotite_08,7,08,1,2,1.166,7,08,-0.346666667,-0.384444444,1,0,0,0.8614,Obsidian_rect,5,0.861,0,8,0,8,0,1,,,,,,,,,,,,,
654a4e699c84b61cf7eed3f7,SCR,2024-06-24_18h31.44.403,LearnStrategy,2023.2.3,Win32,59.88023952,3,1,10,0.367777778,-0.423333333,1,0,0,0.9646,Basalt_06,2,06,1,7,0.965,2,06,0.121111111,-0.248888889,1,0,0,1.0107,Diorite_rect,3,1.011,0,9,0,9,0,1,,,,,,,,,,,,,
654a4e699c84b61cf7eed3f7,SCR,2024-06-24_18h31.44.403,LearnStrategy,2023.2.3,Win32,59.88023952,3,1,11,-0.237777778,0.391111111,1,0,0,0.8822,Diorite_06,3,06,6,3,0.882,3,06,0.093333333,-0.241111111,1,0,0,0.961,Diorite_rect,3,0.961,1,10,0,10,0,1,,,,,,,,,,,,,
654a4e699c84b61cf7eed3f7,SCR,2024-06-24_18h31.44.403,LearnStrategy,2023.2.3,Win32,59.88023952,3,1,12,-0.062222222,-0.407777778,1,0,0,0.7813,Andesite_14,1,14,1,4,0.781,1,14,-0.096666667,-0.414444444,1,0,0,0.9619,Pegmatite_rect,6,0.962,0,11,0,11,0,1,,,,,,,,,,,,,
654a4e699c84b61cf7eed3f7,SCR,2024-06-24_18h31.44.403,LearnStrategy,2023.2.3,Win32,59.88023952,3,1,13,0.226666667,0.436666667,1,0,0,1.0318,Basalt_12,2,12,6,6,1.032,2,12,0.104444444,-0.242222222,1,0,0,1.8935,Diorite_rect,3,1.894,0,12,0,12,0,1,,,,,,,,,,,,,
654a4e699c84b61cf7eed3f7,SCR,2024-06-24_18h31.44.403,LearnStrategy,2023.2.3,Win32,59.88023952,3,1,14,-0.347777778,0.084444444,1,0,0,0.9153,Pumice_16,8,16,4,2,0.915,8,16,0.386666667,-0.24,1,0,0,0.7282,Gabbro_rect,4,0.728,0,13,0,13,0,1,,,,,,,,,,,,,
654a4e699c84b61cf7eed3f7,SCR,2024-06-24_18h31.44.403,LearnStrategy,2023.2.3,Win32,59.88023952,3,1,15,0.548888889,0.255555556,1,0,0,0.9987,Pegmatite_06,6,06,5,8,0.999,6,06,0.316666667,-0.401111111,1,0,0,2.1113,Pumice_rect,8,2.111,0,14,0,14,0,1,,,,,,,,,,,,,
654a4e699c84b61cf7eed3f7,SCR,2024-06-24_18h31.44.403,LearnStrategy,2023.2.3,Win32,59.88023952,3,1,16,0.532222222,-0.1,1,0,0,0.7319,Gabbro_14,4,14,3,8,0.732,4,14,-0.05,-0.25,1,0,0,0.7618,Basalt_rect,2,0.762,0,15,0,15,0,1,,,,,,,,,,,,,
654a4e699c84b61cf7eed3f7,SCR,2024-06-24_18h31.44.403,LearnStrategy,2023.2.3,Win32,59.88023952,3,2,1,,,,,,,,3,08,,,,,,,,,,,,,2,4.495,0,,,,,,-0.054444444,-0.266666667,1,0,0,4.495,Basalt_rect,0,0,0,0,1,
654a4e699c84b61cf7eed3f7,SCR,2024-06-24_18h31.44.403,LearnStrategy,2023.2.3,Win32,59.88023952,3,2,2,,,,,,,,5,10,,,,,,,,,,,,,5,1.74,1,,,,,,-0.378888889,-0.418888889,1,0,0,1.7398,Obsidian_rect,1,0,1,0,1,
654a4e699c84b61cf7eed3f7,SCR,2024-06-24_18h31.44.403,LearnStrategy,2023.2.3,Win32,59.88023952,3,2,3,,,,,,,,6,07,,,,,,,,,,,,,7,2.262,0,,,,,,0.165555556,-0.406666667,1,0,0,2.2617,Peridotite_rect,2,0,2,0,1,
654a4e699c84b61cf7eed3f7,SCR,2024-06-24_18h31.44.403,LearnStrategy,2023.2.3,Win32,59.88023952,3,2,4,,,,,,,,1,01,,,,,,,,,,,,,1,4.199,1,,,,,,-0.404444444,-0.257777778,1,0,0,4.1986,Andesite_rect,3,0,3,0,1,
654a4e699c84b61cf7eed3f7,SCR,2024-06-24_18h31.44.403,LearnStrategy,2023.2.3,Win32,59.88023952,3,2,5,,,,,,,,2,04,,,,,,,,,,,,,5,1.573,0,,,,,,-0.393333333,-0.38,1,0,0,1.5729,Obsidian_rect,4,0,4,0,1,
654a4e699c84b61cf7eed3f7,SCR,2024-06-24_18h31.44.403,LearnStrategy,2023.2.3,Win32,59.88023952,3,2,6,,,,,,,,4,13,,,,,,,,,,,,,7,1.662,0,,,,,,0.073333333,-0.385555556,1,0,0,1.6618,Peridotite_rect,5,0,5,0,1,
654a4e699c84b61cf7eed3f7,SCR,2024-06-24_18h31.44.403,LearnStrategy,2023.2.3,Win32,59.88023952,3,2,7,,,,,,,,7,06,,,,,,,,,,,,,3,1.907,0,,,,,,0.081111111,-0.256666667,1,0,0,1.9069,Diorite_rect,6,0,6,0,1,
654a4e699c84b61cf7eed3f7,SCR,2024-06-24_18h31.44.403,LearnStrategy,2023.2.3,Win32,59.88023952,3,2,8,,,,,,,,7,05,,,,,,,,,,,,,3,1.495,0,,,,,,0.081111111,-0.256666667,1,0,0,1.4952,Diorite_rect,7,0,7,0,1,
654a4e699c84b61cf7eed3f7,SCR,2024-06-24_18h31.44.403,LearnStrategy,2023.2.3,Win32,59.88023952,3,2,9,,,,,,,,2,11,,,,,,,,,,,,,3,1.178,0,,,,,,0.081111111,-0.256666667,1,0,0,1.1781,Diorite_rect,8,0,8,0,1,
654a4e699c84b61cf7eed3f7,SCR,2024-06-24_18h31.44.403,LearnStrategy,2023.2.3,Win32,59.88023952,3,2,10,,,,,,,,4,08,,,,,,,,,,,,,3,1.012,0,,,,,,0.081111111,-0.256666667,1,0,0,1.0117,Diorite_rect,9,0,9,0,1,
654a4e699c84b61cf7eed3f7,SCR,2024-06-24_18h31.44.403,LearnStrategy,2023.2.3,Win32,59.88023952,3,2,11,,,,,,,,8,14,,,,,,,,,,,,,4,1.162,0,,,,,,0.343333333,-0.244444444,1,0,0,1.1619,Gabbro_rect,10,0,10,0,1,
654a4e699c84b61cf7eed3f7,SCR,2024-06-24_18h31.44.403,LearnStrategy,2023.2.3,Win32,59.88023952,3,2,12,,,,,,,,8,03,,,,,,,,,,,,,8,2.561,1,,,,,,0.371111111,-0.388888889,1,0,0,2.5608,Pumice_rect,11,0,11,0,1,
654a4e699c84b61cf7eed3f7,SCR,2024-06-24_18h31.44.403,LearnStrategy,2023.2.3,Win32,59.88023952,3,2,13,,,,,,,,6,08,,,,,,,,,,,,,3,1.123,0,,,,,,0.205555556,-0.268888889,1,0,0,1.1232,Diorite_rect,12,0,12,0,1,
654a4e699c84b61cf7eed3f7,SCR,2024-06-24_18h31.44.403,LearnStrategy,2023.2.3,Win32,59.88023952,3,2,14,,,,,,,,3,13,,,,,,,,,,,,,3,0.995,1,,,,,,0.187777778,-0.255555556,1,0,0,0.9948,Diorite_rect,13,0,13,0,1,
654a4e699c84b61cf7eed3f7,SCR,2024-06-24_18h31.44.403,LearnStrategy,2023.2.3,Win32,59.88023952,3,2,15,,,,,,,,1,07,,,,,,,,,,,,,6,1.362,0,,,,,,-0.095555556,-0.38,1,0,0,1.362,Pegmatite_rect,14,0,14,0,1,
654a4e699c84b61cf7eed3f7,SCR,2024-06-24_18h31.44.403,LearnStrategy,2023.2.3,Win32,59.88023952,3,2,16,,,,,,,,5,09,,,,,,,,,,,,,5,1.945,1,,,,,,-0.343333333,-0.401111111,1,0,0,1.9447,Obsidian_rect,15,0,15,0,1,
654a4e699c84b61cf7eed3f7,SCR,2024-06-24_18h31.44.403,LearnStrategy,2023.2.3,Win32,59.88023952,4,1,1,-0.376666667,0.107777778,1,0,0,0.8822,Pumice_16,8,16,4,2,0.882,8,16,0.355555556,-0.25,1,0,0,1.7113,Gabbro_rect,4,1.711,0,0,0,0,0,1,,,,,,,,,,,,,
654a4e699c84b61cf7eed3f7,SCR,2024-06-24_18h31.44.403,LearnStrategy,2023.2.3,Win32,59.88023952,4,1,2,-0.578888889,0.236666667,1,0,0,0.865,Pegmatite_12,6,12,5,1,0.865,6,12,-0.114444444,-0.248888889,1,0,0,2.0938,Basalt_rect,2,2.094,0,1,0,1,0,1,,,,,,,,,,,,,
654a4e699c84b61cf7eed3f7,SCR,2024-06-24_18h31.44.403,LearnStrategy,2023.2.3,Win32,59.88023952,4,1,3,-0.217777778,-0.083333333,1,0,0,0.7151,Gabbro_09,4,09,3,3,0.715,4,09,0.103333333,-0.243333333,1,0,0,1.0115,Diorite_rect,3,1.011,0,2,0,2,0,1,,,,,,,,,,,,,
654a4e699c84b61cf7eed3f7,SCR,2024-06-24_18h31.44.403,LearnStrategy,2023.2.3,Win32,59.88023952,4,1,4,-0.125555556,0.284444444,1,0,0,0.8314,Basalt_08,2,08,5,4,0.831,2,08,-0.396666667,-0.397777778,1,0,0,0.9112,Obsidian_rect,5,0.911,0,3,0,3,0,1,,,,,,,,,,,,,
654a4e699c84b61cf7eed3f7,SCR,2024-06-24_18h31.44.403,LearnStrategy,2023.2.3,Win32,59.88023952,4,1,5,0.076666667,-0.421111111,1,0,0,0.8651,Pegmatite_16,6,16,1,5,0.865,6,16,0.153333333,-0.395555556,1,0,0,0.8283,Peridotite_rect,7,0.828,0,4,0,4,0,1,,,,,,,,,,,,,
654a4e699c84b61cf7eed3f7,SCR,2024-06-24_18h31.44.403,LearnStrategy,2023.2.3,Win32,59.88023952,4,1,6,0.4,-0.306666667,1,0,0,0.7321,Pumice_04,8,04,2,7,0.732,8,04,0.341111111,-0.406666667,1,0,0,1.1614,Pumice_rect,8,1.161,1,5,0,5,0,1,,,,,,,,,,,,,
654a4e699c84b61cf7eed3f7,SCR,2024-06-24_18h31.44.403,LearnStrategy,2023.2.3,Win32,59.88023952,4,1,7,0.351111111,-0.124444444,1,0,0,0.7317,Diorite_02,3,02,3,7,0.732,3,02,0.142222222,-0.235555556,1,0,0,1.5272,Diorite_rect,3,1.527,1,6,0,6,0,1,,,,,,,,,,,,,
654a4e699c84b61cf7eed3f7,SCR,2024-06-24_18h31.44.403,LearnStrategy,2023.2.3,Win32,59.88023952,4,1,8,-0.072222222,-0.417777778,1,0,0,0.8158,Andesite_14,1,14,1,4,0.816,1,14,-0.052222222,-0.418888889,1,0,0,1.6281,Pegmatite_rect,6,1.628,0,7,0,7,0,1,,,,,,,,,,,,,
654a4e699c84b61cf7eed3f7,SCR,2024-06-24_18h31.44.403,LearnStrategy,2023.2.3,Win32,59.88023952,4,1,9,0.375555556,0.245555556,1,0,0,1.1654,Obsidian_11,5,11,5,7,1.165,5,11,-0.364444444,-0.397777778,1,0,0,1.2943,Obsidian_rect,5,1.294,1,8,0,8,0,1,,,,,,,,,,,,,
654a4e699c84b61cf7eed3f7,SCR,2024-06-24_18h31.44.403,LearnStrategy,2023.2.3,Win32,59.88023952,4,1,10,-0.351111111,0.41,1,0,0,0.9485,Peridotite_14,7,14,6,2,0.948,7,14,0.098888889,-0.243333333,1,0,0,0.9611,Diorite_rect,3,0.961,0,9,0,9,0,1,,,,,,,,,,,,,
654a4e699c84b61cf7eed3f7,SCR,2024-06-24_18h31.44.403,LearnStrategy,2023.2.3,Win32,59.88023952,4,1,11,-0.238888889,-0.233333333,1,0,0,0.698,Diorite_07,3,07,2,3,0.698,3,07,0.078888889,-0.263333333,1,0,0,1.8778,Diorite_rect,3,1.878,1,10,0,10,0,1,,,,,,,,,,,,,
654a4e699c84b61cf7eed3f7,SCR,2024-06-24_18h31.44.403,LearnStrategy,2023.2.3,Win32,59.88023952,4,1,12,-0.531111111,-0.397777778,1,0,0,0.8155,Basalt_05,2,05,1,1,0.816,2,05,-0.057777778,-0.252222222,1,0,0,1.6611,Basalt_rect,2,1.661,1,11,0,11,0,1,,,,,,,,,,,,,
654a4e699c84b61cf7eed3f7,SCR,2024-06-24_18h31.44.403,LearnStrategy,2023.2.3,Win32,59.88023952,4,1,13,-0.562222222,-0.274444444,1,0,0,0.7155,Basalt_16,2,16,2,1,0.716,2,16,0.19,-0.262222222,1,0,0,1.1778,Diorite_rect,3,1.178,0,12,0,12,0,1,,,,,,,,,,,,,
654a4e699c84b61cf7eed3f7,SCR,2024-06-24_18h31.44.403,LearnStrategy,2023.2.3,Win32,59.88023952,4,1,14,0.051111111,-0.242222222,1,0,0,0.6655,Peridotite_02,7,02,2,5,0.665,7,02,0.321111111,-0.388888889,1,0,0,1.2948,Pumice_rect,8,1.295,0,13,0,13,0,1,,,,,,,,,,,,,
654a4e699c84b61cf7eed3f7,SCR,2024-06-24_18h31.44.403,LearnStrategy,2023.2.3,Win32,59.88023952,4,1,15,0.357777778,0.061111111,1,0,0,0.8154,Andesite_16,1,16,4,7,0.815,1,16,0.203333333,-0.271111111,1,0,0,0.6445,Diorite_rect,3,0.644,0,14,0,14,0,1,,,,,,,,,,,,,
654a4e699c84b61cf7eed3f7,SCR,2024-06-24_18h31.44.403,LearnStrategy,2023.2.3,Win32,59.88023952,4,1,16,0.532222222,-0.385555556,1,0,0,0.9651,Gabbro_11,4,11,1,8,0.965,4,11,0.108888889,-0.232222222,1,0,0,0.7614,Diorite_rect,3,0.761,0,15,0,15,0,1,,,,,,,,,,,,,
654a4e699c84b61cf7eed3f7,SCR,2024-06-24_18h31.44.403,LearnStrategy,2023.2.3,Win32,59.88023952,4,2,1,,,,,,,,6,11,,,,,,,,,,,,,3,0.895,0,,,,,,0.171111111,-0.228888889,1,0,0,0.8951,Diorite_rect,0,0,0,0,1,
654a4e699c84b61cf7eed3f7,SCR,2024-06-24_18h31.44.403,LearnStrategy,2023.2.3,Win32,59.88023952,4,2,2,,,,,,,,7,13,,,,,,,,,,,,,8,0.745,0,,,,,,0.376666667,-0.4,1,0,0,0.745,Pumice_rect,1,0,1,0,1,
654a4e699c84b61cf7eed3f7,SCR,2024-06-24_18h31.44.403,LearnStrategy,2023.2.3,Win32,59.88023952,4,2,3,,,,,,,,5,06,,,,,,,,,,,,,3,0.779,0,,,,,,0.142222222,-0.246666667,1,0,0,0.7787,Diorite_rect,2,0,2,0,1,
654a4e699c84b61cf7eed3f7,SCR,2024-06-24_18h31.44.403,LearnStrategy,2023.2.3,Win32,59.88023952,4,2,4,,,,,,,,6,07,,,,,,,,,,,,,3,0.928,0,,,,,,0.171111111,-0.262222222,1,0,0,0.9277,Diorite_rect,3,0,3,0,1,
654a4e699c84b61cf7eed3f7,SCR,2024-06-24_18h31.44.403,LearnStrategy,2023.2.3,Win32,59.88023952,4,2,5,,,,,,,,5,07,,,,,,,,,,,,,7,0.845,0,,,,,,0.138888889,-0.402222222,1,0,0,0.8449,Peridotite_rect,4,0,4,0,1,
654a4e699c84b61cf7eed3f7,SCR,2024-06-24_18h31.44.403,LearnStrategy,2023.2.3,Win32,59.88023952,4,2,6,,,,,,,,8,05,,,,,,,,,,,,,2,1.031,0,,,,,,-0.082222222,-0.25,1,0,0,1.0306,Basalt_rect,5,0,5,0,1,
654a4e699c84b61cf7eed3f7,SCR,2024-06-24_18h31.44.403,LearnStrategy,2023.2.3,Win32,59.88023952,4,2,7,,,,,,,,3,08,,,,,,,,,,,,,4,1.411,0,,,,,,0.372222222,-0.236666667,1,0,0,1.4114,Gabbro_rect,6,0,6,0,1,
654a4e699c84b61cf7eed3f7,SCR,2024-06-24_18h31.44.403,LearnStrategy,2023.2.3,Win32,59.88023952,4,2,8,,,,,,,,1,03,,,,,,,,,,,,,3,2.544,0,,,,,,0.087777778,-0.258888889,1,0,0,2.5443,Diorite_rect,7,0,7,0,1,
654a4e699c84b61cf7eed3f7,SCR,2024-06-24_18h31.44.403,LearnStrategy,2023.2.3,Win32,59.88023952,4,2,9,,,,,,,,4,15,,,,,,,,,,,,,2,0.79,0,,,,,,-0.104444444,-0.247777778,1,0,0,0.7902,Basalt_rect,8,0,8,0,1,
654a4e699c84b61cf7eed3f7,SCR,2024-06-24_18h31.44.403,LearnStrategy,2023.2.3,Win32,59.88023952,4,2,10,,,,,,,,7,10,,,,,,,,,,,,,2,0.712,0,,,,,,-0.127777778,-0.231111111,1,0,0,0.7121,Basalt_rect,9,0,9,0,1,
654a4e699c84b61cf7eed3f7,SCR,2024-06-24_18h31.44.403,LearnStrategy,2023.2.3,Win32,59.88023952,4,2,11,,,,,,,,3,11,,,,,,,,,,,,,2,0.678,0,,,,,,-0.127777778,-0.231111111,1,0,0,0.6784,Basalt_rect,10,0,10,0,1,
654a4e699c84b61cf7eed3f7,SCR,2024-06-24_18h31.44.403,LearnStrategy,2023.2.3,Win32,59.88023952,4,2,12,,,,,,,,2,11,,,,,,,,,,,,,2,1.62,1,,,,,,-0.126666667,-0.234444444,1,0,0,1.6196,Basalt_rect,11,0,11,0,1,
654a4e699c84b61cf7eed3f7,SCR,2024-06-24_18h31.44.403,LearnStrategy,2023.2.3,Win32,59.88023952,4,2,13,,,,,,,,4,05,,,,,,,,,,,,,3,1.745,0,,,,,,0.107777778,-0.233333333,1,0,0,1.745,Diorite_rect,12,0,12,0,1,
654a4e699c84b61cf7eed3f7,SCR,2024-06-24_18h31.44.403,LearnStrategy,2023.2.3,Win32,59.88023952,4,2,14,,,,,,,,2,09,,,,,,,,,,,,,8,0.977,0,,,,,,0.32,-0.384444444,1,0,0,0.9769,Pumice_rect,13,0,13,0,1,
654a4e699c84b61cf7eed3f7,SCR,2024-06-24_18h31.44.403,LearnStrategy,2023.2.3,Win32,59.88023952,4,2,15,,,,,,,,8,09,,,,,,,,,,,,,3,0.711,0,,,,,,0.168888889,-0.248888889,1,0,0,0.7114,Diorite_rect,14,0,14,0,1,
654a4e699c84b61cf7eed3f7,SCR,2024-06-24_18h31.44.403,LearnStrategy,2023.2.3,Win32,59.88023952,4,2,16,,,,,,,,1,05,,,,,,,,,,,,,3,0.529,0,,,,,,0.152222222,-0.234444444,1,0,0,0.5286,Diorite_rect,15,0,15,0,1,
654a4e699c84b61cf7eed3f7,SCR,2024-06-24_18h31.44.403,LearnStrategy,2023.2.3,Win32,59.88023952,5,1,1,-0.101111111,-0.076666667,1,0,0,0.599,Diorite_10,3,10,3,4,0.599,3,10,0.112222222,-0.241111111,1,0,0,0.9276,Diorite_rect,3,0.928,1,0,0,0,0,1,,,,,,,,,,,,,
654a4e699c84b61cf7eed3f7,SCR,2024-06-24_18h31.44.403,LearnStrategy,2023.2.3,Win32,59.88023952,5,1,2,-0.351111111,-0.234444444,1,0,0,0.8156,Peridotite_16,7,16,2,2,0.816,7,16,-0.081111111,-0.255555556,1,0,0,3.6779,Basalt_rect,2,3.678,0,1,0,1,0,1,,,,,,,,,,,,,
654a4e699c84b61cf7eed3f7,SCR,2024-06-24_18h31.44.403,LearnStrategy,2023.2.3,Win32,59.88023952,5,1,3,-0.556666667,-0.252222222,1,0,0,0.7322,Basalt_16,2,16,2,1,0.732,2,16,0.371111111,-0.401111111,1,0,0,2.3113,Pumice_rect,8,2.311,0,2,0,2,0,1,,,,,,,,,,,,,
654a4e699c84b61cf7eed3f7,SCR,2024-06-24_18h31.44.403,LearnStrategy,2023.2.3,Win32,59.88023952,5,1,4,0.068888889,-0.264444444,1,0,0,0.7153,Peridotite_02,7,02,2,5,0.715,7,02,0.068888889,-0.264444444,1,0,0,0.7618,Diorite_rect,3,0.762,0,3,0,3,0,1,,,,,,,,,,,,,
654a4e699c84b61cf7eed3f7,SCR,2024-06-24_18h31.44.403,LearnStrategy,2023.2.3,Win32,59.88023952,5,1,5,-0.361111111,0.113333333,1,0,0,0.7653,Pumice_16,8,16,4,2,0.765,8,16,0.403333333,-0.253333333,1,0,0,1.5113,Gabbro_rect,4,1.511,0,4,0,4,0,1,,,,,,,,,,,,,
654a4e699c84b61cf7eed3f7,SCR,2024-06-24_18h31.44.403,LearnStrategy,2023.2.3,Win32,59.88023952,5,1,6,-0.065555556,0.107777778,1,0,0,0.5655,Andesite_09,1,09,4,4,0.566,1,09,-0.09,-0.264444444,1,0,0,2.1446,Basalt_rect,2,2.145,0,5,0,5,0,1,,,,,,,,,,,,,
654a4e699c84b61cf7eed3f7,SCR,2024-06-24_18h31.44.403,LearnStrategy,2023.2.3,Win32,59.88023952,5,1,7,0.532222222,0.233333333,1,0,0,0.8155,Pegmatite_06,6,06,5,8,0.816,6,06,-0.075555556,-0.396666667,1,0,0,2.999,Pegmatite_rect,6,2.999,1,6,0,6,0,1,,,,,,,,,,,,,
654a4e699c84b61cf7eed3f7,SCR,2024-06-24_18h31.44.403,LearnStrategy,2023.2.3,Win32,59.88023952,5,1,8,0.563333333,-0.295555556,1,0,0,0.882,Andesite_04,1,04,2,8,0.882,1,04,0.166666667,-0.243333333,1,0,0,2.4615,Diorite_rect,3,2.462,0,7,0,7,0,1,,,,,,,,,,,,,
654a4e699c84b61cf7eed3f7,SCR,2024-06-24_18h31.44.403,LearnStrategy,2023.2.3,Win32,59.88023952,5,1,9,0.396666667,0.236666667,1,0,0,0.865,Obsidian_11,5,11,5,7,0.865,5,11,-0.342222222,-0.383333333,1,0,0,1.1114,Obsidian_rect,5,1.111,1,8,0,8,0,1,,,,,,,,,,,,,
654a4e699c84b61cf7eed3f7,SCR,2024-06-24_18h31.44.403,LearnStrategy,2023.2.3,Win32,59.88023952,5,1,10,-0.526666667,0.246666667,1,0,0,0.8484,Pegmatite_12,6,12,5,1,0.848,6,12,-0.126666667,-0.247777778,1,0,0,4.2949,Basalt_rect,2,4.295,0,9,0,9,0,1,,,,,,,,,,,,,
654a4e699c84b61cf7eed3f7,SCR,2024-06-24_18h31.44.403,LearnStrategy,2023.2.3,Win32,59.88023952,5,1,11,0.541111111,-0.388888889,1,0,0,0.8822,Gabbro_11,4,11,1,8,0.882,4,11,0.166666667,-0.244444444,1,0,0,0.9115,Diorite_rect,3,0.912,0,10,0,10,0,1,,,,,,,,,,,,,
654a4e699c84b61cf7eed3f7,SCR,2024-06-24_18h31.44.403,LearnStrategy,2023.2.3,Win32,59.88023952,5,1,12,0.575555556,0.398888889,1,0,0,0.8485,Gabbro_03,4,03,6,8,0.849,4,03,0.171111111,-0.383333333,1,0,0,3.3612,Peridotite_rect,7,3.361,0,11,0,11,0,1,,,,,,,,,,,,,
654a4e699c84b61cf7eed3f7,SCR,2024-06-24_18h31.44.403,LearnStrategy,2023.2.3,Win32,59.88023952,5,1,13,0.387777778,-0.12,1,0,0,0.782,Diorite_02,3,02,3,7,0.782,3,02,0.168888889,-0.246666667,1,0,0,0.8281,Diorite_rect,3,0.828,1,12,0,12,0,1,,,,,,,,,,,,,
654a4e699c84b61cf7eed3f7,SCR,2024-06-24_18h31.44.403,LearnStrategy,2023.2.3,Win32,59.88023952,5,1,14,0.403333333,-0.273333333,1,0,0,0.8151,Pumice_04,8,04,2,7,0.815,8,04,0.37,-0.234444444,1,0,0,3.8608,Gabbro_rect,4,3.861,0,13,0,13,0,1,,,,,,,,,,,,,
654a4e699c84b61cf7eed3f7,SCR,2024-06-24_18h31.44.403,LearnStrategy,2023.2.3,Win32,59.88023952,5,1,15,-0.067777778,0.252222222,1,0,0,0.6485,Basalt_08,2,08,5,4,0.649,2,08,-0.324444444,-0.378888889,1,0,0,1.1949,Obsidian_rect,5,1.195,0,14,0,14,0,1,,,,,,,,,,,,,
654a4e699c84b61cf7eed3f7,SCR,2024-06-24_18h31.44.403,LearnStrategy,2023.2.3,Win32,59.88023952,5,1,16,-0.516666667,-0.088888889,1,0,0,0.8156,Diorite_15,3,15,3,1,0.816,3,15,-0.076666667,-0.232222222,1,0,0,1.1773,Basalt_rect,2,1.177,0,15,0,15,0,1,,,,,,,,,,,,,
654a4e699c84b61cf7eed3f7,SCR,2024-06-24_18h31.44.403,LearnStrategy,2023.2.3,Win32,59.88023952,5,2,1,,,,,,,,2,04,,,,,,,,,,,,,3,1.361,0,,,,,,0.141111111,-0.261111111,1,0,0,1.3615,Diorite_rect,0,0,0,0,1,
654a4e699c84b61cf7eed3f7,SCR,2024-06-24_18h31.44.403,LearnStrategy,2023.2.3,Win32,59.88023952,5,2,2,,,,,,,,8,14,,,,,,,,,,,,,3,0.828,0,,,,,,0.16,-0.264444444,1,0,0,0.8285,Diorite_rect,1,0,1,0,1,
654a4e699c84b61cf7eed3f7,SCR,2024-06-24_18h31.44.403,LearnStrategy,2023.2.3,Win32,59.88023952,5,2,3,,,,,,,,2,14,,,,,,,,,,,,,8,0.861,0,,,,,,0.398888889,-0.395555556,1,0,0,0.8614,Pumice_rect,2,0,2,0,1,
654a4e699c84b61cf7eed3f7,SCR,2024-06-24_18h31.44.403,LearnStrategy,2023.2.3,Win32,59.88023952,5,2,4,,,,,,,,3,09,,,,,,,,,,,,,7,1.078,0,,,,,,0.153333333,-0.411111111,1,0,0,1.078,Peridotite_rect,3,0,3,0,1,
654a4e699c84b61cf7eed3f7,SCR,2024-06-24_18h31.44.403,LearnStrategy,2023.2.3,Win32,59.88023952,5,2,5,,,,,,,,4,08,,,,,,,,,,,,,2,0.561,0,,,,,,-0.071111111,-0.244444444,1,0,0,0.5607,Basalt_rect,4,0,4,0,1,
654a4e699c84b61cf7eed3f7,SCR,2024-06-24_18h31.44.403,LearnStrategy,2023.2.3,Win32,59.88023952,5,2,6,,,,,,,,5,10,,,,,,,,,,,,,5,1.411,1,,,,,,-0.338888889,-0.403333333,1,0,0,1.411,Obsidian_rect,5,0,5,0,1,
654a4e699c84b61cf7eed3f7,SCR,2024-06-24_18h31.44.403,LearnStrategy,2023.2.3,Win32,59.88023952,5,2,7,,,,,,,,3,13,,,,,,,,,,,,,3,1.595,1,,,,,,0.081111111,-0.25,1,0,0,1.5951,Diorite_rect,6,0,6,0,1,
654a4e699c84b61cf7eed3f7,SCR,2024-06-24_18h31.44.403,LearnStrategy,2023.2.3,Win32,59.88023952,5,2,8,,,,,,,,4,12,,,,,,,,,,,,,2,1.312,0,,,,,,-0.108888889,-0.263333333,1,0,0,1.3118,Basalt_rect,7,0,7,0,1,
654a4e699c84b61cf7eed3f7,SCR,2024-06-24_18h31.44.403,LearnStrategy,2023.2.3,Win32,59.88023952,5,2,9,,,,,,,,1,10,,,,,,,,,,,,,2,1.097,0,,,,,,-0.108888889,-0.263333333,1,0,0,1.097,Basalt_rect,8,0,8,0,1,
654a4e699c84b61cf7eed3f7,SCR,2024-06-24_18h31.44.403,LearnStrategy,2023.2.3,Win32,59.88023952,5,2,10,,,,,,,,8,06,,,,,,,,,,,,,7,2.845,0,,,,,,0.173333333,-0.414444444,1,0,0,2.8449,Peridotite_rect,9,0,9,0,1,
654a4e699c84b61cf7eed3f7,SCR,2024-06-24_18h31.44.403,LearnStrategy,2023.2.3,Win32,59.88023952,5,2,11,,,,,,,,6,03,,,,,,,,,,,,,6,3.307,1,,,,,,-0.082222222,-0.378888889,1,0,0,3.3068,Pegmatite_rect,10,0,10,0,1,
654a4e699c84b61cf7eed3f7,SCR,2024-06-24_18h31.44.403,LearnStrategy,2023.2.3,Win32,59.88023952,5,2,12,,,,,,,,7,04,,,,,,,,,,,,,7,1.74,1,,,,,,0.084444444,-0.386666667,1,0,0,1.7402,Peridotite_rect,11,0,11,0,1,
654a4e699c84b61cf7eed3f7,SCR,2024-06-24_18h31.44.403,LearnStrategy,2023.2.3,Win32,59.88023952,5,2,13,,,,,,,,7,05,,,,,,,,,,,,,2,1.562,0,,,,,,-0.095555556,-0.244444444,1,0,0,1.5619,Basalt_rect,12,0,12,0,1,
654a4e699c84b61cf7eed3f7,SCR,2024-06-24_18h31.44.403,LearnStrategy,2023.2.3,Win32,59.88023952,5,2,14,,,,,,,,5,14,,,,,,,,,,,,,5,1.912,1,,,,,,-0.343333333,-0.394444444,1,0,0,1.9118,Obsidian_rect,13,0,13,0,1,
654a4e699c84b61cf7eed3f7,SCR,2024-06-24_18h31.44.403,LearnStrategy,2023.2.3,Win32,59.88023952,5,2,15,,,,,,,,6,10,,,,,,,,,,,,,7,1.594,0,,,,,,0.175555556,-0.383333333,1,0,0,1.5944,Peridotite_rect,14,0,14,0,1,
654a4e699c84b61cf7eed3f7,SCR,2024-06-24_18h31.44.403,LearnStrategy,2023.2.3,Win32,59.88023952,5,2,16,,,,,,,,1,07,,,,,,,,,,,,,2,1.945,0,,,,,,-0.084444444,-0.248888889,1,0,0,1.945,Basalt_rect,15,0,15,0,1,
654a4e699c84b61cf7eed3f7,SCR,2024-06-24_18h31.44.403,LearnStrategy,2023.2.3,Win32,59.88023952,6,1,1,0.23,0.405555556,1,0,0,0.8152,Basalt_12,2,12,6,6,0.815,2,12,0.181111111,-0.238888889,1,0,0,1.1614,Diorite_rect,3,1.161,0,0,0,0,0,1,,,,,,,,,,,,,
654a4e699c84b61cf7eed3f7,SCR,2024-06-24_18h31.44.403,LearnStrategy,2023.2.3,Win32,59.88023952,6,1,2,-0.366666667,-0.252222222,1,0,0,0.9654,Peridotite_16,7,16,2,2,0.965,7,16,-0.31,-0.392222222,1,0,0,2.478,Obsidian_rect,5,2.478,0,1,0,1,0,1,,,,,,,,,,,,,
654a4e699c84b61cf7eed3f7,SCR,2024-06-24_18h31.44.403,LearnStrategy,2023.2.3,Win32,59.88023952,6,1,3,0.084444444,-0.091111111,1,0,0,0.6488,Obsidian_05,5,05,3,5,0.649,5,05,-0.04,-0.241111111,1,0,0,0.9114,Basalt_rect,2,0.911,0,2,0,2,0,1,,,,,,,,,,,,,
654a4e699c84b61cf7eed3f7,SCR,2024-06-24_18h31.44.403,LearnStrategy,2023.2.3,Win32,59.88023952,6,1,4,-0.206666667,0.128888889,1,0,0,0.9653,Andesite_02,1,02,4,3,0.965,1,02,-0.057777778,-0.263333333,1,0,0,1.0776,Basalt_rect,2,1.078,0,3,0,3,0,1,,,,,,,,,,,,,
654a4e699c84b61cf7eed3f7,SCR,2024-06-24_18h31.44.403,LearnStrategy,2023.2.3,Win32,59.88023952,6,1,5,-0.506666667,-0.246666667,1,0,0,0.9322,Basalt_16,2,16,2,1,0.932,2,16,0.193333333,-0.401111111,1,0,0,0.9948,Peridotite_rect,7,0.995,0,4,0,4,0,1,,,,,,,,,,,,,
654a4e699c84b61cf7eed3f7,SCR,2024-06-24_18h31.44.403,LearnStrategy,2023.2.3,Win32,59.88023952,6,1,6,-0.247777778,-0.238888889,1,0,0,0.865,Diorite_07,3,07,2,3,0.865,3,07,0.424444444,-0.386666667,1,0,0,1.4447,Pumice_rect,8,1.445,0,5,0,5,0,1,,,,,,,,,,,,,
654a4e699c84b61cf7eed3f7,SCR,2024-06-24_18h31.44.403,LearnStrategy,2023.2.3,Win32,59.88023952,6,1,7,0.284444444,0.085555556,1,0,0,0.7986,Pumice_13,8,13,4,6,0.799,8,13,-0.134444444,-0.393333333,1,0,0,1.8618,Pegmatite_rect,6,1.862,0,6,0,6,0,1,,,,,,,,,,,,,
654a4e699c84b61cf7eed3f7,SCR,2024-06-24_18h31.44.403,LearnStrategy,2023.2.3,Win32,59.88023952,6,1,8,0.574444444,-0.411111111,1,0,0,0.9985,Gabbro_11,4,11,1,8,0.998,4,11,0.168888889,-0.38,1,0,0,1.0614,Peridotite_rect,7,1.061,0,7,0,7,0,1,,,,,,,,,,,,,
654a4e699c84b61cf7eed3f7,SCR,2024-06-24_18h31.44.403,LearnStrategy,2023.2.3,Win32,59.88023952,6,1,9,-0.355555556,-0.074444444,1,0,0,0.8823,Gabbro_10,4,10,3,2,0.882,4,10,-0.376666667,-0.401111111,1,0,0,1.428,Obsidian_rect,5,1.428,0,8,0,8,0,1,,,,,,,,,,,,,
654a4e699c84b61cf7eed3f7,SCR,2024-06-24_18h31.44.403,LearnStrategy,2023.2.3,Win32,59.88023952,6,1,10,-0.571111111,0.281111111,1,0,0,0.7485,Pegmatite_12,6,12,5,1,0.748,6,12,-0.102222222,-0.26,1,0,0,1.228,Basalt_rect,2,1.228,0,9,0,9,0,1,,,,,,,,,,,,,
654a4e699c84b61cf7eed3f7,SCR,2024-06-24_18h31.44.403,LearnStrategy,2023.2.3,Win32,59.88023952,6,1,11,0.072222222,-0.388888889,1,0,0,0.8487,Pegmatite_16,6,16,1,5,0.849,6,16,0.085555556,-0.395555556,1,0,0,2.8446,Peridotite_rect,7,2.845,0,10,0,10,0,1,,,,,,,,,,,,,
654a4e699c84b61cf7eed3f7,SCR,2024-06-24_18h31.44.403,LearnStrategy,2023.2.3,Win32,59.88023952,6,1,12,0.083333333,-0.255555556,1,0,0,0.6649,Peridotite_02,7,02,2,5,0.665,7,02,-0.068888889,-0.233333333,1,0,0,1.2784,Basalt_rect,2,1.278,0,11,0,11,0,1,,,,,,,,,,,,,
654a4e699c84b61cf7eed3f7,SCR,2024-06-24_18h31.44.403,LearnStrategy,2023.2.3,Win32,59.88023952,6,1,13,-0.047777778,-0.386666667,1,0,0,0.8824,Andesite_14,1,14,1,4,0.882,1,14,0.136666667,-0.233333333,1,0,0,1.8114,Diorite_rect,3,1.811,0,12,0,12,0,1,,,,,,,,,,,,,
654a4e699c84b61cf7eed3f7,SCR,2024-06-24_18h31.44.403,LearnStrategy,2023.2.3,Win32,59.88023952,6,1,14,-0.532222222,-0.086666667,1,0,0,0.7322,Diorite_15,3,15,3,1,0.732,3,15,-0.364444444,-0.247777778,1,0,0,0.9119,Andesite_rect,1,0.912,0,13,0,13,0,1,,,,,,,,,,,,,
654a4e699c84b61cf7eed3f7,SCR,2024-06-24_18h31.44.403,LearnStrategy,2023.2.3,Win32,59.88023952,6,1,15,0.44,-0.3,1,0,0,0.8989,Pumice_04,8,04,2,7,0.899,8,04,0.38,-0.23,1,0,0,1.545,Gabbro_rect,4,1.545,0,14,0,14,0,1,,,,,,,,,,,,,
654a4e699c84b61cf7eed3f7,SCR,2024-06-24_18h31.44.403,LearnStrategy,2023.2.3,Win32,59.88023952,6,1,16,0.353333333,-0.416666667,1,0,0,0.8824,Basalt_06,2,06,1,7,0.882,2,06,-0.395555556,-0.394444444,1,0,0,0.8109,Obsidian_rect,5,0.811,0,15,0,15,0,1,,,,,,,,,,,,,
654a4e699c84b61cf7eed3f7,SCR,2024-06-24_18h31.44.403,LearnStrategy,2023.2.3,Win32,59.88023952,6,2,1,,,,,,,,5,09,,,,,,,,,,,,,5,1.228,1,,,,,,-0.387777778,-0.393333333,1,0,0,1.2284,Obsidian_rect,0,0,0,0,1,
654a4e699c84b61cf7eed3f7,SCR,2024-06-24_18h31.44.403,LearnStrategy,2023.2.3,Win32,59.88023952,6,2,2,,,,,,,,8,15,,,,,,,,,,,,,4,2.01,0,,,,,,0.36,-0.258888889,1,0,0,2.0105,Gabbro_rect,1,0,1,0,1,
654a4e699c84b61cf7eed3f7,SCR,2024-06-24_18h31.44.403,LearnStrategy,2023.2.3,Win32,59.88023952,6,2,3,,,,,,,,3,16,,,,,,,,,,,,,2,1.361,0,,,,,,-0.131111111,-0.247777778,1,0,0,1.3613,Basalt_rect,2,0,2,0,1,
654a4e699c84b61cf7eed3f7,SCR,2024-06-24_18h31.44.403,LearnStrategy,2023.2.3,Win32,59.88023952,6,2,4,,,,,,,,4,16,,,,,,,,,,,,,7,1.595,0,,,,,,0.09,-0.391111111,1,0,0,1.595,Peridotite_rect,3,0,3,0,1,
654a4e699c84b61cf7eed3f7,SCR,2024-06-24_18h31.44.403,LearnStrategy,2023.2.3,Win32,59.88023952,6,2,5,,,,,,,,1,11,,,,,,,,,,,,,3,3.895,0,,,,,,0.128888889,-0.252222222,1,0,0,3.8949,Diorite_rect,4,0,4,0,1,
654a4e699c84b61cf7eed3f7,SCR,2024-06-24_18h31.44.403,LearnStrategy,2023.2.3,Win32,59.88023952,6,2,6,,,,,,,,2,01,,,,,,,,,,,,,2,2.074,1,,,,,,-0.102222222,-0.241111111,1,0,0,2.0737,Basalt_rect,5,0,5,0,1,
654a4e699c84b61cf7eed3f7,SCR,2024-06-24_18h31.44.403,LearnStrategy,2023.2.3,Win32,59.88023952,6,2,7,,,,,,,,7,12,,,,,,,,,,,,,6,2.678,0,,,,,,-0.078888889,-0.416666667,1,0,0,2.6782,Pegmatite_rect,6,0,6,0,1,
654a4e699c84b61cf7eed3f7,SCR,2024-06-24_18h31.44.403,LearnStrategy,2023.2.3,Win32,59.88023952,6,2,8,,,,,,,,2,10,,,,,,,,,,,,,7,2.323,0,,,,,,0.078888889,-0.397777778,1,0,0,2.3235,Peridotite_rect,7,0,7,0,1,
654a4e699c84b61cf7eed3f7,SCR,2024-06-24_18h31.44.403,LearnStrategy,2023.2.3,Win32,59.88023952,6,2,9,,,,,,,,4,13,,,,,,,,,,,,,3,1.278,0,,,,,,0.068888889,-0.26,1,0,0,1.2781,Diorite_rect,8,0,8,0,1,
654a4e699c84b61cf7eed3f7,SCR,2024-06-24_18h31.44.403,LearnStrategy,2023.2.3,Win32,59.88023952,6,2,10,,,,,,,,7,06,,,,,,,,,,,,,7,2.178,1,,,,,,0.134444444,-0.404444444,1,0,0,2.1784,Peridotite_rect,9,0,9,0,1,
654a4e699c84b61cf7eed3f7,SCR,2024-06-24_18h31.44.403,LearnStrategy,2023.2.3,Win32,59.88023952,6,2,11,,,,,,,,6,15,,,,,,,,,,,,,6,1.374,1,,,,,,-0.066666667,-0.42,1,0,0,1.3737,Pegmatite_rect,10,0,10,0,1,
654a4e699c84b61cf7eed3f7,SCR,2024-06-24_18h31.44.403,LearnStrategy,2023.2.3,Win32,59.88023952,6,2,12,,,,,,,,8,03,,,,,,,,,,,,,4,1.428,0,,,,,,0.351111111,-0.268888889,1,0,0,1.4282,Gabbro_rect,11,0,11,0,1,
654a4e699c84b61cf7eed3f7,SCR,2024-06-24_18h31.44.403,LearnStrategy,2023.2.3,Win32,59.88023952,6,2,13,,,,,,,,3,12,,,,,,,,,,,,,6,1.762,0,,,,,,-0.077777778,-0.386666667,1,0,0,1.7616,Pegmatite_rect,12,0,12,0,1,
654a4e699c84b61cf7eed3f7,SCR,2024-06-24_18h31.44.403,LearnStrategy,2023.2.3,Win32,59.88023952,6,2,14,,,,,,,,5,04,,,,,,,,,,,,,5,1.09,1,,,,,,-0.352222222,-0.39,1,0,0,1.0903,Obsidian_rect,13,0,13,0,1,
654a4e699c84b61cf7eed3f7,SCR,2024-06-24_18h31.44.403,LearnStrategy,2023.2.3,Win32,59.88023952,6,2,15,,,,,,,,1,01,,,,,,,,,,,,,6,0.812,0,,,,,,-0.178888889,-0.41,1,0,0,0.8121,Pegmatite_rect,14,0,14,0,1,
654a4e699c84b61cf7eed3f7,SCR,2024-06-24_18h31.44.403,LearnStrategy,2023.2.3,Win32,59.88023952,6,2,16,,,,,,,,6,08,,,,,,,,,,,,,7,1.111,0,,,,,,0.145555556,-0.384444444,1,0,0,1.1115,Peridotite_rect,15,0,15,0,1,
654a4e699c84b61cf7eed3f7,SCR,2024-06-24_18h31.44.403,LearnStrategy,2023.2.3,Win32,59.88023952,7,1,1,-0.243333333,0.384444444,1,0,0,1.1822,Diorite_06,3,06,6,3,1.182,3,06,-0.121111111,-0.233333333,1,0,0,1.6113,Basalt_rect,2,1.611,0,0,0,0,0,1,,,,,,,,,,,,,
654a4e699c84b61cf7eed3f7,SCR,2024-06-24_18h31.44.403,LearnStrategy,2023.2.3,Win32,59.88023952,7,1,2,0.586666667,-0.107777778,1,0,0,0.8655,Gabbro_14,4,14,3,8,0.865,4,14,-0.092222222,-0.271111111,1,0,0,0.7781,Basalt_rect,2,0.778,0,1,0,1,0,1,,,,,,,,,,,,,
654a4e699c84b61cf7eed3f7,SCR,2024-06-24_18h31.44.403,LearnStrategy,2023.2.3,Win32,59.88023952,7,1,3,-0.234444444,0.237777778,1,0,0,0.765,Diorite_14,3,14,5,3,0.765,3,14,-0.087777778,-0.398888889,1,0,0,2.0284,Pegmatite_rect,6,2.028,0,2,0,2,0,1,,,,,,,,,,,,,
654a4e699c84b61cf7eed3f7,SCR,2024-06-24_18h31.44.403,LearnStrategy,2023.2.3,Win32,59.88023952,7,1,4,0.37,-0.227777778,1,0,0,1.4153,Pumice_04,8,04,2,7,1.415,8,04,-0.12,-0.23,1,0,0,0.7949,Basalt_rect,2,0.795,0,3,0,3,0,1,,,,,,,,,,,,,
654a4e699c84b61cf7eed3f7,SCR,2024-06-24_18h31.44.403,LearnStrategy,2023.2.3,Win32,59.88023952,7,1,5,-0.073333333,0.355555556,1,0,0,1.0989,Pegmatite_05,6,05,6,4,1.099,6,05,-0.333333333,-0.255555556,1,0,0,1.0438,Andesite_rect,1,1.044,0,4,0,4,0,1,,,,,,,,,,,,,
654a4e699c84b61cf7eed3f7,SCR,2024-06-24_18h31.44.403,LearnStrategy,2023.2.3,Win32,59.88023952,7,1,6,-0.354444444,0.367777778,1,0,0,1.3318,Peridotite_14,7,14,6,2,1.332,7,14,-0.122222222,-0.241111111,1,0,0,1.1278,Basalt_rect,2,1.128,0,5,0,5,0,1,,,,,,,,,,,,,
654a4e699c84b61cf7eed3f7,SCR,2024-06-24_18h31.44.403,LearnStrategy,2023.2.3,Win32,59.88023952,7,1,7,-0.107777778,0.287777778,1,0,0,0.7324,Basalt_08,2,08,5,4,0.732,2,08,0.134444444,-0.233333333,1,0,0,2.4268,Diorite_rect,3,2.427,0,6,0,6,0,1,,,,,,,,,,,,,
654a4e699c84b61cf7eed3f7,SCR,2024-06-24_18h31.44.403,LearnStrategy,2023.2.3,Win32,59.88023952,7,1,8,-0.083333333,-0.423333333,1,0,0,0.7983,Andesite_14,1,14,1,4,0.798,1,14,-0.075555556,-0.241111111,1,0,0,1.8113,Basalt_rect,2,1.811,0,7,0,7,0,1,,,,,,,,,,,,,
654a4e699c84b61cf7eed3f7,SCR,2024-06-24_18h31.44.403,LearnStrategy,2023.2.3,Win32,59.88023952,7,1,9,0.555555556,-0.393333333,1,0,0,0.7988,Gabbro_11,4,11,1,8,0.799,4,11,-0.086666667,-0.252222222,1,0,0,3.4112,Basalt_rect,2,3.411,0,8,0,8,0,1,,,,,,,,,,,,,
654a4e699c84b61cf7eed3f7,SCR,2024-06-24_18h31.44.403,LearnStrategy,2023.2.3,Win32,59.88023952,7,1,10,0.248888889,0.24,1,0,0,0.8318,Gabbro_01,4,01,5,6,0.832,4,01,0.388888889,-0.256666667,1,0,0,1.0449,Gabbro_rect,4,1.045,1,9,0,9,0,1,,,,,,,,,,,,,
654a4e699c84b61cf7eed3f7,SCR,2024-06-24_18h31.44.403,LearnStrategy,2023.2.3,Win32,59.88023952,7,1,11,-0.384444444,-0.43,1,0,0,0.849,Peridotite_08,7,08,1,2,0.849,7,08,0.483333333,-0.24,1,0,0,0.7612,Gabbro_rect,4,0.761,0,10,0,10,0,1,,,,,,,,,,,,,
654a4e699c84b61cf7eed3f7,SCR,2024-06-24_18h31.44.403,LearnStrategy,2023.2.3,Win32,59.88023952,7,1,12,-0.384444444,0.076666667,1,0,0,0.6657,Pumice_16,8,16,4,2,0.666,8,16,0.444444444,-0.384444444,1,0,0,0.8776,Pumice_rect,8,0.878,1,11,0,11,0,1,,,,,,,,,,,,,
654a4e699c84b61cf7eed3f7,SCR,2024-06-24_18h31.44.403,LearnStrategy,2023.2.3,Win32,59.88023952,7,1,13,0.354444444,0.26,1,0,0,0.9822,Obsidian_11,5,11,5,7,0.982,5,11,-0.462222222,-0.404444444,1,0,0,0.9779,Obsidian_rect,5,0.978,1,12,0,12,0,1,,,,,,,,,,,,,
654a4e699c84b61cf7eed3f7,SCR,2024-06-24_18h31.44.403,LearnStrategy,2023.2.3,Win32,59.88023952,7,1,14,0.067777778,-0.435555556,1,0,0,0.7989,Pegmatite_16,6,16,1,5,0.799,6,16,-0.066666667,-0.255555556,1,0,0,4.7611,Basalt_rect,2,4.761,0,13,0,13,0,1,,,,,,,,,,,,,
654a4e699c84b61cf7eed3f7,SCR,2024-06-24_18h31.44.403,LearnStrategy,2023.2.3,Win32,59.88023952,7,1,15,0.242222222,0.426666667,1,0,0,0.8154,Basalt_12,2,12,6,6,0.815,2,12,-0.1,-0.251111111,1,0,0,4.2276,Basalt_rect,2,4.228,1,14,0,14,0,1,,,,,,,,,,,,,
654a4e699c84b61cf7eed3f7,SCR,2024-06-24_18h31.44.403,LearnStrategy,2023.2.3,Win32,59.88023952,7,1,16,0.353333333,0.125555556,1,0,0,0.8482,Andesite_16,1,16,4,7,0.848,1,16,0.126666667,-0.415555556,1,0,0,2.411,Peridotite_rect,7,2.411,0,15,0,15,0,1,,,,,,,,,,,,,
654a4e699c84b61cf7eed3f7,SCR,2024-06-24_18h31.44.403,LearnStrategy,2023.2.3,Win32,59.88023952,7,2,1,,,,,,,,5,04,,,,,,,,,,,,,5,1.05,1,,,,,,-0.397777778,-0.415555556,1,0,0,1.0504,Obsidian_rect,0,0,0,0,1,
654a4e699c84b61cf7eed3f7,SCR,2024-06-24_18h31.44.403,LearnStrategy,2023.2.3,Win32,59.88023952,7,2,2,,,,,,,,3,12,,,,,,,,,,,,,6,1.102,0,,,,,,-0.087777778,-0.388888889,1,0,0,1.1021,Pegmatite_rect,1,0,1,0,1,
654a4e699c84b61cf7eed3f7,SCR,2024-06-24_18h31.44.403,LearnStrategy,2023.2.3,Win32,59.88023952,7,2,3,,,,,,,,8,05,,,,,,,,,,,,,4,1.218,0,,,,,,0.297777778,-0.238888889,1,0,0,1.2176,Gabbro_rect,2,0,2,0,1,
654a4e699c84b61cf7eed3f7,SCR,2024-06-24_18h31.44.403,LearnStrategy,2023.2.3,Win32,59.88023952,7,2,4,,,,,,,,4,05,,,,,,,,,,,,,7,1.904,0,,,,,,0.162222222,-0.391111111,1,0,0,1.9038,Peridotite_rect,3,0,3,0,1,
654a4e699c84b61cf7eed3f7,SCR,2024-06-24_18h31.44.403,LearnStrategy,2023.2.3,Win32,59.88023952,7,2,5,,,,,,,,1,01,,,,,,,,,,,,,5,1.402,0,,,,,,-0.347777778,-0.39,1,0,0,1.4022,Obsidian_rect,4,0,4,0,1,
654a4e699c84b61cf7eed3f7,SCR,2024-06-24_18h31.44.403,LearnStrategy,2023.2.3,Win32,59.88023952,7,2,6,,,,,,,,2,09,,,,,,,,,,,,,6,0.995,0,,,,,,-0.181111111,-0.407777778,1,0,0,0.9953,Pegmatite_rect,5,0,5,0,1,
654a4e699c84b61cf7eed3f7,SCR,2024-06-24_18h31.44.403,LearnStrategy,2023.2.3,Win32,59.88023952,7,2,7,,,,,,,,6,10,,,,,,,,,,,,,7,1.078,0,,,,,,0.053333333,-0.378888889,1,0,0,1.0784,Peridotite_rect,6,0,6,0,1,
654a4e699c84b61cf7eed3f7,SCR,2024-06-24_18h31.44.403,LearnStrategy,2023.2.3,Win32,59.88023952,7,2,8,,,,,,,,1,03,,,,,,,,,,,,,3,1.045,0,,,,,,0.134444444,-0.263333333,1,0,0,1.0447,Diorite_rect,7,0,7,0,1,
654a4e699c84b61cf7eed3f7,SCR,2024-06-24_18h31.44.403,LearnStrategy,2023.2.3,Win32,59.88023952,7,2,9,,,,,,,,6,15,,,,,,,,,,,,,6,0.878,1,,,,,,-0.134444444,-0.417777778,1,0,0,0.8784,Pegmatite_rect,8,0,8,0,1,
654a4e699c84b61cf7eed3f7,SCR,2024-06-24_18h31.44.403,LearnStrategy,2023.2.3,Win32,59.88023952,7,2,10,,,,,,,,2,14,,,,,,,,,,,,,7,0.345,0,,,,,,0.093333333,-0.391111111,1,0,0,0.3452,Peridotite_rect,9,0,9,0,1,
654a4e699c84b61cf7eed3f7,SCR,2024-06-24_18h31.44.403,LearnStrategy,2023.2.3,Win32,59.88023952,7,2,11,,,,,,,,7,04,,,,,,,,,,,,,2,2.293,0,,,,,,-0.11,-0.262222222,1,0,0,2.2933,Basalt_rect,10,0,10,0,1,
654a4e699c84b61cf7eed3f7,SCR,2024-06-24_18h31.44.403,LearnStrategy,2023.2.3,Win32,59.88023952,7,2,12,,,,,,,,8,06,,,,,,,,,,,,,3,0.39,0,,,,,,0.107777778,-0.235555556,1,0,0,0.3904,Diorite_rect,11,0,11,0,1,
654a4e699c84b61cf7eed3f7,SCR,2024-06-24_18h31.44.403,LearnStrategy,2023.2.3,Win32,59.88023952,7,2,13,,,,,,,,5,14,,,,,,,,,,,,,3,8.312,0,,,,,,0.148888889,-0.264444444,1,0,0,8.3116,Diorite_rect,12,0,12,0,1,
654a4e699c84b61cf7eed3f7,SCR,2024-06-24_18h31.44.403,LearnStrategy,2023.2.3,Win32,59.88023952,7,2,14,,,,,,,,7,10,,,,,,,,,,,,,7,5.254,1,,,,,,0.163333333,-0.378888889,1,0,0,5.2539,Peridotite_rect,13,0,13,0,1,
654a4e699c84b61cf7eed3f7,SCR,2024-06-24_18h31.44.403,LearnStrategy,2023.2.3,Win32,59.88023952,7,2,15,,,,,,,,4,16,,,,,,,,,,,,,6,0.823,0,,,,,,-0.107777778,-0.382222222,1,0,0,0.8234,Pegmatite_rect,14,0,14,0,1,
654a4e699c84b61cf7eed3f7,SCR,2024-06-24_18h31.44.403,LearnStrategy,2023.2.3,Win32,59.88023952,7,2,16,,,,,,,,3,16,,,,,,,,,,,,,6,2.877,0,,,,,,-0.104444444,-0.402222222,1,0,0,2.8766,Pegmatite_rect,15,0,15,0,1,
654a4e699c84b61cf7eed3f7,SCR,2024-06-24_18h31.44.403,LearnStrategy,2023.2.3,Win32,59.88023952,8,1,1,0.424444444,-0.404444444,1,0,0,1.3818,Basalt_06,2,06,1,7,1.382,2,06,-0.103333333,-0.407777778,1,0,0,1.1945,Pegmatite_rect,6,1.195,0,0,0,0,0,1,,,,,,,,,,,,,
654a4e699c84b61cf7eed3f7,SCR,2024-06-24_18h31.44.403,LearnStrategy,2023.2.3,Win32,59.88023952,8,1,2,-0.543333333,-0.232222222,1,0,0,0.9818,Basalt_16,2,16,2,1,0.982,2,16,0.145555556,-0.265555556,1,0,0,0.8445,Diorite_rect,3,0.844,0,1,0,1,0,1,,,,,,,,,,,,,
654a4e699c84b61cf7eed3f7,SCR,2024-06-24_18h31.44.403,LearnStrategy,2023.2.3,Win32,59.88023952,8,1,3,-0.56,0.233333333,1,0,0,0.8653,Pegmatite_12,6,12,5,1,0.865,6,12,-0.094444444,-0.237777778,1,0,0,1.7607,Basalt_rect,2,1.761,0,2,0,2,0,1,,,,,,,,,,,,,
654a4e699c84b61cf7eed3f7,SCR,2024-06-24_18h31.44.403,LearnStrategy,2023.2.3,Win32,59.88023952,8,1,4,-0.516666667,0.088888889,1,0,0,1.182,Andesite_06,1,06,4,1,1.182,1,06,0.201111111,-0.231111111,1,0,0,0.7943,Diorite_rect,3,0.794,0,3,0,3,0,1,,,,,,,,,,,,,
654a4e699c84b61cf7eed3f7,SCR,2024-06-24_18h31.44.403,LearnStrategy,2023.2.3,Win32,59.88023952,8,1,5,-0.232222222,0.392222222,1,0,0,0.9985,Diorite_06,3,06,6,3,0.999,3,06,-0.1,-0.262222222,1,0,0,0.7101,Basalt_rect,2,0.71,0,4,0,4,0,1,,,,,,,,,,,,,
654a4e699c84b61cf7eed3f7,SCR,2024-06-24_18h31.44.403,LearnStrategy,2023.2.3,Win32,59.88023952,8,1,6,0.604444444,0.122222222,1,0,0,0.682,Pumice_10,8,10,4,8,0.682,8,10,0.126666667,-0.257777778,1,0,0,0.778,Diorite_rect,3,0.778,0,5,0,5,0,1,,,,,,,,,,,,,
654a4e699c84b61cf7eed3f7,SCR,2024-06-24_18h31.44.403,LearnStrategy,2023.2.3,Win32,59.88023952,8,1,7,-0.074444444,0.066666667,1,0,0,0.5154,Andesite_09,1,09,4,4,0.515,1,09,0.374444444,-0.251111111,1,0,0,0.6778,Gabbro_rect,4,0.678,0,6,0,6,0,1,,,,,,,,,,,,,
654a4e699c84b61cf7eed3f7,SCR,2024-06-24_18h31.44.403,LearnStrategy,2023.2.3,Win32,59.88023952,8,1,8,0.093333333,-0.27,1,0,0,0.6152,Peridotite_02,7,02,2,5,0.615,7,02,-0.047777778,-0.244444444,1,0,0,0.7118,Basalt_rect,2,0.712,0,7,0,7,0,1,,,,,,,,,,,,,
654a4e699c84b61cf7eed3f7,SCR,2024-06-24_18h31.44.403,LearnStrategy,2023.2.3,Win32,59.88023952,8,1,9,-0.39,-0.095555556,1,0,0,0.8821,Gabbro_10,4,10,3,2,0.882,4,10,-0.143333333,-0.234444444,1,0,0,2.0437,Basalt_rect,2,2.044,0,8,0,8,0,1,,,,,,,,,,,,,
654a4e699c84b61cf7eed3f7,SCR,2024-06-24_18h31.44.403,LearnStrategy,2023.2.3,Win32,59.88023952,8,1,10,-0.251111111,-0.277777778,1,0,0,0.8156,Diorite_07,3,07,2,3,0.816,3,07,0.201111111,-0.384444444,1,0,0,1.5782,Peridotite_rect,7,1.578,0,9,0,9,0,1,,,,,,,,,,,,,
654a4e699c84b61cf7eed3f7,SCR,2024-06-24_18h31.44.403,LearnStrategy,2023.2.3,Win32,59.88023952,8,1,11,0.253333333,0.265555556,1,0,0,0.782,Gabbro_01,4,01,5,6,0.782,4,01,0.38,-0.25,1,0,0,2.0111,Gabbro_rect,4,2.011,1,10,0,10,0,1,,,,,,,,,,,,,
654a4e699c84b61cf7eed3f7,SCR,2024-06-24_18h31.44.403,LearnStrategy,2023.2.3,Win32,59.88023952,8,1,12,0.074444444,0.074444444,1,0,0,0.5653,Obsidian_12,5,12,4,5,0.565,5,12,-0.347777778,-0.382222222,1,0,0,1.0985,Obsidian_rect,5,1.099,1,11,0,11,0,1,,,,,,,,,,,,,
654a4e699c84b61cf7eed3f7,SCR,2024-06-24_18h31.44.403,LearnStrategy,2023.2.3,Win32,59.88023952,8,1,13,-0.085555556,-0.267777778,1,0,0,0.7988,Pegmatite_09,6,09,2,4,0.799,6,09,-0.097777778,-0.258888889,1,0,0,1.3109,Basalt_rect,2,1.311,0,12,0,12,0,1,,,,,,,,,,,,,
654a4e699c84b61cf7eed3f7,SCR,2024-06-24_18h31.44.403,LearnStrategy,2023.2.3,Win32,59.88023952,8,1,14,0.052222222,0.252222222,1,0,0,0.631,Pumice_02,8,02,5,5,0.631,8,02,0.123333333,-0.258888889,1,0,0,1.145,Diorite_rect,3,1.145,0,13,0,13,0,1,,,,,,,,,,,,,
654a4e699c84b61cf7eed3f7,SCR,2024-06-24_18h31.44.403,LearnStrategy,2023.2.3,Win32,59.88023952,8,1,15,-0.395555556,0.398888889,1,0,0,0.7488,Peridotite_14,7,14,6,2,0.749,7,14,0.135555556,-0.391111111,1,0,0,1.6113,Peridotite_rect,7,1.611,1,14,0,14,0,1,,,,,,,,,,,,,
654a4e699c84b61cf7eed3f7,SCR,2024-06-24_18h31.44.403,LearnStrategy,2023.2.3,Win32,59.88023952,8,1,16,-0.548888889,-0.077777778,1,0,0,0.7322,Diorite_15,3,15,3,1,0.732,3,15,0.203333333,-0.385555556,1,0,0,0.6448,Peridotite_rect,7,0.645,0,15,0,15,0,1,,,,,,,,,,,,,
654a4e699c84b61cf7eed3f7,SCR,2024-06-24_18h31.44.403,LearnStrategy,2023.2.3,Win32,59.88023952,8,2,1,,,,,,,,7,13,,,,,,,,,,,,,7,1.978,1,,,,,,0.125555556,-0.384444444,1,0,0,1.9782,Peridotite_rect,0,0,0,0,1,
654a4e699c84b61cf7eed3f7,SCR,2024-06-24_18h31.44.403,LearnStrategy,2023.2.3,Win32,59.88023952,8,2,2,,,,,,,,1,10,,,,,,,,,,,,,3,1.332,0,,,,,,0.153333333,-0.247777778,1,0,0,1.332,Diorite_rect,1,0,1,0,1,
654a4e699c84b61cf7eed3f7,SCR,2024-06-24_18h31.44.403,LearnStrategy,2023.2.3,Win32,59.88023952,8,2,3,,,,,,,,4,13,,,,,,,,,,,,,6,1.295,0,,,,,,-0.064444444,-0.385555556,1,0,0,1.2952,Pegmatite_rect,2,0,2,0,1,
654a4e699c84b61cf7eed3f7,SCR,2024-06-24_18h31.44.403,LearnStrategy,2023.2.3,Win32,59.88023952,8,2,4,,,,,,,,8,14,,,,,,,,,,,,,4,0.928,0,,,,,,0.367777778,-0.246666667,1,0,0,0.9284,Gabbro_rect,3,0,3,0,1,
654a4e699c84b61cf7eed3f7,SCR,2024-06-24_18h31.44.403,LearnStrategy,2023.2.3,Win32,59.88023952,8,2,5,,,,,,,,1,07,,,,,,,,,,,,,2,0.945,0,,,,,,-0.071111111,-0.27,1,0,0,0.9449,Basalt_rect,4,0,4,0,1,
654a4e699c84b61cf7eed3f7,SCR,2024-06-24_18h31.44.403,LearnStrategy,2023.2.3,Win32,59.88023952,8,2,6,,,,,,,,8,09,,,,,,,,,,,,,4,1.682,0,,,,,,0.372222222,-0.235555556,1,0,0,1.6824,Gabbro_rect,5,0,5,0,1,
654a4e699c84b61cf7eed3f7,SCR,2024-06-24_18h31.44.403,LearnStrategy,2023.2.3,Win32,59.88023952,8,2,7,,,,,,,,4,12,,,,,,,,,,,,,3,0.745,0,,,,,,0.142222222,-0.248888889,1,0,0,0.7449,Diorite_rect,6,0,6,0,1,
654a4e699c84b61cf7eed3f7,SCR,2024-06-24_18h31.44.403,LearnStrategy,2023.2.3,Win32,59.88023952,8,2,8,,,,,,,,2,01,,,,,,,,,,,,,3,1.044,0,,,,,,0.117777778,-0.258888889,1,0,0,1.0444,Diorite_rect,7,0,7,0,1,
654a4e699c84b61cf7eed3f7,SCR,2024-06-24_18h31.44.403,LearnStrategy,2023.2.3,Win32,59.88023952,8,2,9,,,,,,,,6,07,,,,,,,,,,,,,7,0.962,0,,,,,,0.116666667,-0.385555556,1,0,0,0.9619,Peridotite_rect,8,0,8,0,1,
654a4e699c84b61cf7eed3f7,SCR,2024-06-24_18h31.44.403,LearnStrategy,2023.2.3,Win32,59.88023952,8,2,10,,,,,,,,3,13,,,,,,,,,,,,,6,1.097,0,,,,,,-0.075555556,-0.405555556,1,0,0,1.097,Pegmatite_rect,9,0,9,0,1,
654a4e699c84b61cf7eed3f7,SCR,2024-06-24_18h31.44.403,LearnStrategy,2023.2.3,Win32,59.88023952,8,2,11,,,,,,,,5,07,,,,,,,,,,,,,5,0.995,1,,,,,,-0.353333333,-0.388888889,1,0,0,0.9955,Obsidian_rect,10,0,10,0,1,
654a4e699c84b61cf7eed3f7,SCR,2024-06-24_18h31.44.403,LearnStrategy,2023.2.3,Win32,59.88023952,8,2,12,,,,,,,,2,11,,,,,,,,,,,,,7,0.745,0,,,,,,0.1,-0.383333333,1,0,0,0.7452,Peridotite_rect,11,0,11,0,1,
654a4e699c84b61cf7eed3f7,SCR,2024-06-24_18h31.44.403,LearnStrategy,2023.2.3,Win32,59.88023952,8,2,13,,,,,,,,6,08,,,,,,,,,,,,,2,0.662,0,,,,,,-0.082222222,-0.245555556,1,0,0,0.6616,Basalt_rect,12,0,12,0,1,
654a4e699c84b61cf7eed3f7,SCR,2024-06-24_18h31.44.403,LearnStrategy,2023.2.3,Win32,59.88023952,8,2,14,,,,,,,,7,12,,,,,,,,,,,,,2,0.779,0,,,,,,-0.081111111,-0.245555556,1,0,0,0.7786,Basalt_rect,13,0,13,0,1,
654a4e699c84b61cf7eed3f7,SCR,2024-06-24_18h31.44.403,LearnStrategy,2023.2.3,Win32,59.88023952,8,2,15,,,,,,,,5,10,,,,,,,,,,,,,5,1.312,1,,,,,,-0.365555556,-0.385555556,1,0,0,1.3116,Obsidian_rect,14,0,14,0,1,
654a4e699c84b61cf7eed3f7,SCR,2024-06-24_18h31.44.403,LearnStrategy,2023.2.3,Win32,59.88023952,8,2,16,,,,,,,,3,09,,,,,,,,,,,,,6,0.345,0,,,,,,-0.136666667,-0.402222222,1,0,0,0.3451,Pegmatite_rect,15,0,15,0,1,
654a4e699c84b61cf7eed3f7,SCR,2024-06-24_18h31.44.403,LearnStrategy,2023.2.3,Win32,59.88023952,9,1,1,-0.048888889,-0.441111111,1,0,0,1.1657,Andesite_14,1,14,1,4,1.166,1,14,0.37,-0.257777778,1,0,0,0.6948,Gabbro_rect,4,0.695,0,0,0,0,0,1,,,,,,,,,,,,,
654a4e699c84b61cf7eed3f7,SCR,2024-06-24_18h31.44.403,LearnStrategy,2023.2.3,Win32,59.88023952,9,1,2,-0.387777778,0.381111111,1,0,0,1.0817,Peridotite_14,7,14,6,2,1.082,7,14,0.157777778,-0.244444444,1,0,0,1.4134,Diorite_rect,3,1.413,0,1,0,1,0,1,,,,,,,,,,,,,
654a4e699c84b61cf7eed3f7,SCR,2024-06-24_18h31.44.403,LearnStrategy,2023.2.3,Win32,59.88023952,9,1,3,-0.035555556,-0.095555556,1,0,0,0.6323,Diorite_10,3,10,3,4,0.632,3,10,0.111111111,-0.391111111,1,0,0,0.6949,Peridotite_rect,7,0.695,0,2,0,2,0,1,,,,,,,,,,,,,
654a4e699c84b61cf7eed3f7,SCR,2024-06-24_18h31.44.403,LearnStrategy,2023.2.3,Win32,59.88023952,9,1,4,-0.093333333,0.29,1,0,0,0.6651,Basalt_08,2,08,5,4,0.665,2,08,-0.425555556,-0.397777778,1,0,0,0.7282,Obsidian_rect,5,0.728,0,3,0,3,0,1,,,,,,,,,,,,,
654a4e699c84b61cf7eed3f7,SCR,2024-06-24_18h31.44.403,LearnStrategy,2023.2.3,Win32,59.88023952,9,1,5,-0.4,0.082222222,1,0,0,0.6823,Pumice_16,8,16,4,2,0.682,8,16,0.396666667,-0.235555556,1,0,0,1.3279,Gabbro_rect,4,1.328,0,4,0,4,0,1,,,,,,,,,,,,,
654a4e699c84b61cf7eed3f7,SCR,2024-06-24_18h31.44.403,LearnStrategy,2023.2.3,Win32,59.88023952,9,1,6,-0.35,-0.11,1,0,0,0.6322,Gabbro_10,4,10,3,2,0.632,4,10,-0.055555556,-0.253333333,1,0,0,0.9117,Basalt_rect,2,0.912,0,5,0,5,0,1,,,,,,,,,,,,,
654a4e699c84b61cf7eed3f7,SCR,2024-06-24_18h31.44.403,LearnStrategy,2023.2.3,Win32,59.88023952,9,1,7,-0.1,0.416666667,1,0,0,0.9155,Pegmatite_05,6,05,6,4,0.915,6,05,-0.087777778,-0.241111111,1,0,0,0.8115,Basalt_rect,2,0.811,0,6,0,6,0,1,,,,,,,,,,,,,
654a4e699c84b61cf7eed3f7,SCR,2024-06-24_18h31.44.403,LearnStrategy,2023.2.3,Win32,59.88023952,9,1,8,-0.12,0.426666667,1,0,0,0.6481,Pegmatite_05,6,05,6,4,0.648,6,05,0.105555556,-0.42,1,0,0,0.645,Peridotite_rect,7,0.645,0,7,0,7,0,1,,,,,,,,,,,,,
654a4e699c84b61cf7eed3f7,SCR,2024-06-24_18h31.44.403,LearnStrategy,2023.2.3,Win32,59.88023952,9,1,9,0.09,0.125555556,1,0,0,0.9155,Obsidian_12,5,12,4,5,0.916,5,12,-0.347777778,-0.405555556,1,0,0,1.4945,Obsidian_rect,5,1.495,1,8,0,8,0,1,,,,,,,,,,,,,
654a4e699c84b61cf7eed3f7,SCR,2024-06-24_18h31.44.403,LearnStrategy,2023.2.3,Win32,59.88023952,9,1,10,0.225555556,0.398888889,1,0,0,0.7487,Basalt_12,2,12,6,6,0.749,2,12,0.145555556,-0.255555556,1,0,0,0.5448,Diorite_rect,3,0.545,0,9,0,9,0,1,,,,,,,,,,,,,
654a4e699c84b61cf7eed3f7,SCR,2024-06-24_18h31.44.403,LearnStrategy,2023.2.3,Win32,59.88023952,9,1,11,0.227777778,0.087777778,1,0,0,0.7158,Pumice_13,8,13,4,6,0.716,8,13,0.377777778,-0.245555556,1,0,0,0.6278,Gabbro_rect,4,0.628,0,10,0,10,0,1,,,,,,,,,,,,,
654a4e699c84b61cf7eed3f7,SCR,2024-06-24_18h31.44.403,LearnStrategy,2023.2.3,Win32,59.88023952,9,1,12,-0.208888889,-0.085555556,1,0,0,0.7991,Gabbro_09,4,09,3,3,0.799,4,09,0.343333333,-0.391111111,1,0,0,0.9591,Pumice_rect,8,0.959,0,11,0,11,0,1,,,,,,,,,,,,,
654a4e699c84b61cf7eed3f7,SCR,2024-06-24_18h31.44.403,LearnStrategy,2023.2.3,Win32,59.88023952,9,1,13,-0.41,-0.24,1,0,0,0.7324,Peridotite_16,7,16,2,2,0.732,7,16,-0.067777778,-0.39,1,0,0,0.7947,Pegmatite_rect,6,0.795,0,12,0,12,0,1,,,,,,,,,,,,,
654a4e699c84b61cf7eed3f7,SCR,2024-06-24_18h31.44.403,LearnStrategy,2023.2.3,Win32,59.88023952,9,1,14,-0.257777778,-0.255555556,1,0,0,0.7984,Diorite_07,3,07,2,3,0.798,3,07,0.163333333,-0.401111111,1,0,0,1.2451,Peridotite_rect,7,1.245,0,13,0,13,0,1,,,,,,,,,,,,,
654a4e699c84b61cf7eed3f7,SCR,2024-06-24_18h31.44.403,LearnStrategy,2023.2.3,Win32,59.88023952,9,1,15,-0.247777778,0.227777778,1,0,0,0.9321,Diorite_14,3,14,5,3,0.932,3,14,-0.095555556,-0.242222222,1,0,0,0.731,Basalt_rect,2,0.731,0,14,0,14,0,1,,,,,,,,,,,,,
654a4e699c84b61cf7eed3f7,SCR,2024-06-24_18h31.44.403,LearnStrategy,2023.2.3,Win32,59.88023952,9,1,16,-0.203333333,0.091111111,1,0,0,0.5821,Andesite_02,1,02,4,3,0.582,1,02,-0.081111111,-0.413333333,1,0,0,1.8108,Pegmatite_rect,6,1.811,0,15,0,15,0,1,,,,,,,,,,,,,
654a4e699c84b61cf7eed3f7,SCR,2024-06-24_18h31.44.403,LearnStrategy,2023.2.3,Win32,59.88023952,9,2,1,,,,,,,,1,11,,,,,,,,,,,,,2,1.032,0,,,,,,-0.122222222,-0.258888889,1,0,0,1.0322,Basalt_rect,0,0,0,0,1,
654a4e699c84b61cf7eed3f7,SCR,2024-06-24_18h31.44.403,LearnStrategy,2023.2.3,Win32,59.88023952,9,2,2,,,,,,,,5,06,,,,,,,,,,,,,5,1.012,1,,,,,,-0.305555556,-0.383333333,1,0,0,1.0123,Obsidian_rect,1,0,1,0,1,
654a4e699c84b61cf7eed3f7,SCR,2024-06-24_18h31.44.403,LearnStrategy,2023.2.3,Win32,59.88023952,9,2,3,,,,,,,,4,08,,,,,,,,,,,,,7,1.845,0,,,,,,0.18,-0.415555556,1,0,0,1.8449,Peridotite_rect,2,0,2,0,1,
654a4e699c84b61cf7eed3f7,SCR,2024-06-24_18h31.44.403,LearnStrategy,2023.2.3,Win32,59.88023952,9,2,4,,,,,,,,7,06,,,,,,,,,,,,,6,0.812,0,,,,,,-0.095555556,-0.407777778,1,0,0,0.8117,Pegmatite_rect,3,0,3,0,1,
654a4e699c84b61cf7eed3f7,SCR,2024-06-24_18h31.44.403,LearnStrategy,2023.2.3,Win32,59.88023952,9,2,5,,,,,,,,4,15,,,,,,,,,,,,,6,0.762,0,,,,,,-0.095555556,-0.407777778,1,0,0,0.7617,Pegmatite_rect,4,0,4,0,1,
654a4e699c84b61cf7eed3f7,SCR,2024-06-24_18h31.44.403,LearnStrategy,2023.2.3,Win32,59.88023952,9,2,6,,,,,,,,2,10,,,,,,,,,,,,,7,0.812,0,,,,,,0.091111111,-0.397777778,1,0,0,0.812,Peridotite_rect,5,0,5,0,1,
654a4e699c84b61cf7eed3f7,SCR,2024-06-24_18h31.44.403,LearnStrategy,2023.2.3,Win32,59.88023952,9,2,7,,,,,,,,6,03,,,,,,,,,,,,,6,2.295,1,,,,,,-0.078888889,-0.401111111,1,0,0,2.2946,Pegmatite_rect,6,0,6,0,1,
654a4e699c84b61cf7eed3f7,SCR,2024-06-24_18h31.44.403,LearnStrategy,2023.2.3,Win32,59.88023952,9,2,8,,,,,,,,8,03,,,,,,,,,,,,,7,0.913,0,,,,,,0.152222222,-0.393333333,1,0,0,0.9132,Peridotite_rect,7,0,7,0,1,
654a4e699c84b61cf7eed3f7,SCR,2024-06-24_18h31.44.403,LearnStrategy,2023.2.3,Win32,59.88023952,9,2,9,,,,,,,,6,11,,,,,,,,,,,,,6,1.185,1,,,,,,-0.088888889,-0.411111111,1,0,0,1.1853,Pegmatite_rect,8,0,8,0,1,
654a4e699c84b61cf7eed3f7,SCR,2024-06-24_18h31.44.403,LearnStrategy,2023.2.3,Win32,59.88023952,9,2,10,,,,,,,,2,04,,,,,,,,,,,,,5,1.352,0,,,,,,-0.381111111,-0.416666667,1,0,0,1.3524,Obsidian_rect,9,0,9,0,1,
654a4e699c84b61cf7eed3f7,SCR,2024-06-24_18h31.44.403,LearnStrategy,2023.2.3,Win32,59.88023952,9,2,11,,,,,,,,1,05,,,,,,,,,,,,,2,0.97,0,,,,,,-0.087777778,-0.25,1,0,0,0.9696,Basalt_rect,10,0,10,0,1,
654a4e699c84b61cf7eed3f7,SCR,2024-06-24_18h31.44.403,LearnStrategy,2023.2.3,Win32,59.88023952,9,2,12,,,,,,,,5,09,,,,,,,,,,,,,5,2.952,1,,,,,,-0.342222222,-0.417777778,1,0,0,2.9523,Obsidian_rect,11,0,11,0,1,
654a4e699c84b61cf7eed3f7,SCR,2024-06-24_18h31.44.403,LearnStrategy,2023.2.3,Win32,59.88023952,9,2,13,,,,,,,,8,15,,,,,,,,,,,,,4,1.519,0,,,,,,0.418888889,-0.256666667,1,0,0,1.5186,Gabbro_rect,12,0,12,0,1,
654a4e699c84b61cf7eed3f7,SCR,2024-06-24_18h31.44.403,LearnStrategy,2023.2.3,Win32,59.88023952,9,2,14,,,,,,,,3,11,,,,,,,,,,,,,6,1.986,0,,,,,,-0.075555556,-0.398888889,1,0,0,1.9856,Pegmatite_rect,13,0,13,0,1,
654a4e699c84b61cf7eed3f7,SCR,2024-06-24_18h31.44.403,LearnStrategy,2023.2.3,Win32,59.88023952,9,2,15,,,,,,,,3,08,,,,,,,,,,,,,7,0.714,0,,,,,,0.177777778,-0.415555556,1,0,0,0.7142,Peridotite_rect,14,0,14,0,1,
654a4e699c84b61cf7eed3f7,SCR,2024-06-24_18h31.44.403,LearnStrategy,2023.2.3,Win32,59.88023952,9,2,16,,,,,,,,7,05,,,,,,,,,,,,,2,1.041,0,,,,,,-0.068888889,-0.243333333,1,0,0,1.0414,Basalt_rect,15,0,15,0,1,
654a4e699c84b61cf7eed3f7,SCR,2024-06-24_18h31.44.403,LearnStrategy,2023.2.3,Win32,59.88023952,,,,,,,,,,,,,,,,,,,,,,,,,,,,,,,,,,,,,,,,,,,,,0
654a4e699c84b61cf7eed3f7,SCR,2024-06-24_18h31.44.403,LearnStrategy,2023.2.3,Win32,59.88023952,,,,,,,,,,,,,,,,,,,,,,,,,,,,,,,,,,,,,,,,,,,,,
654a4e699c84b61cf7eed3f7,SCR,2024-06-24_18h31.44.403,LearnStrategy,2023.2.3,Win32,59.88023952,,,,,,,,,,,2,05,1,1,,,,,,,,,,,,,,,,,,,,,,,,,,,,,,,
654a4e699c84b61cf7eed3f7,SCR,2024-06-24_18h31.44.403,LearnStrategy,2023.2.3,Win32,59.88023952,,,,,,,,,,,7,08,1,2,,,,,,,,,,,,,,,,,,,,,,,,,,,,,,,
654a4e699c84b61cf7eed3f7,SCR,2024-06-24_18h31.44.403,LearnStrategy,2023.2.3,Win32,59.88023952,,,,,,,,,,,7,07,1,3,,,,,,,,,,,,,,,,,,,,,,,,,,,,,,,
654a4e699c84b61cf7eed3f7,SCR,2024-06-24_18h31.44.403,LearnStrategy,2023.2.3,Win32,59.88023952,,,,,,,,,,,1,14,1,4,,,,,,,,,,,,,,,,,,,,,,,,,,,,,,,
654a4e699c84b61cf7eed3f7,SCR,2024-06-24_18h31.44.403,LearnStrategy,2023.2.3,Win32,59.88023952,,,,,,,,,,,6,16,1,5,,,,,,,,,,,,,,,,,,,,,,,,,,,,,,,
654a4e699c84b61cf7eed3f7,SCR,2024-06-24_18h31.44.403,LearnStrategy,2023.2.3,Win32,59.88023952,,,,,,,,,,,7,15,1,6,,,,,,,,,,,,,,,,,,,,,,,,,,,,,,,
654a4e699c84b61cf7eed3f7,SCR,2024-06-24_18h31.44.403,LearnStrategy,2023.2.3,Win32,59.88023952,,,,,,,,,,,2,06,1,7,,,,,,,,,,,,,,,,,,,,,,,,,,,,,,,
654a4e699c84b61cf7eed3f7,SCR,2024-06-24_18h31.44.403,LearnStrategy,2023.2.3,Win32,59.88023952,,,,,,,,,,,4,11,1,8,,,,,,,,,,,,,,,,,,,,,,,,,,,,,,,
654a4e699c84b61cf7eed3f7,SCR,2024-06-24_18h31.44.403,LearnStrategy,2023.2.3,Win32,59.88023952,,,,,,,,,,,2,16,2,1,,,,,,,,,,,,,,,,,,,,,,,,,,,,,,,
654a4e699c84b61cf7eed3f7,SCR,2024-06-24_18h31.44.403,LearnStrategy,2023.2.3,Win32,59.88023952,,,,,,,,,,,7,16,2,2,,,,,,,,,,,,,,,,,,,,,,,,,,,,,,,
654a4e699c84b61cf7eed3f7,SCR,2024-06-24_18h31.44.403,LearnStrategy,2023.2.3,Win32,59.88023952,,,,,,,,,,,3,07,2,3,,,,,,,,,,,,,,,,,,,,,,,,,,,,,,,
654a4e699c84b61cf7eed3f7,SCR,2024-06-24_18h31.44.403,LearnStrategy,2023.2.3,Win32,59.88023952,,,,,,,,,,,6,09,2,4,,,,,,,,,,,,,,,,,,,,,,,,,,,,,,,
654a4e699c84b61cf7eed3f7,SCR,2024-06-24_18h31.44.403,LearnStrategy,2023.2.3,Win32,59.88023952,,,,,,,,,,,7,02,2,5,,,,,,,,,,,,,,,,,,,,,,,,,,,,,,,
654a4e699c84b61cf7eed3f7,SCR,2024-06-24_18h31.44.403,LearnStrategy,2023.2.3,Win32,59.88023952,,,,,,,,,,,6,13,2,6,,,,,,,,,,,,,,,,,,,,,,,,,,,,,,,
654a4e699c84b61cf7eed3f7,SCR,2024-06-24_18h31.44.403,LearnStrategy,2023.2.3,Win32,59.88023952,,,,,,,,,,,8,04,2,7,,,,,,,,,,,,,,,,,,,,,,,,,,,,,,,
654a4e699c84b61cf7eed3f7,SCR,2024-06-24_18h31.44.403,LearnStrategy,2023.2.3,Win32,59.88023952,,,,,,,,,,,1,04,2,8,,,,,,,,,,,,,,,,,,,,,,,,,,,,,,,
654a4e699c84b61cf7eed3f7,SCR,2024-06-24_18h31.44.403,LearnStrategy,2023.2.3,Win32,59.88023952,,,,,,,,,,,3,15,3,1,,,,,,,,,,,,,,,,,,,,,,,,,,,,,,,
654a4e699c84b61cf7eed3f7,SCR,2024-06-24_18h31.44.403,LearnStrategy,2023.2.3,Win32,59.88023952,,,,,,,,,,,4,10,3,2,,,,,,,,,,,,,,,,,,,,,,,,,,,,,,,
654a4e699c84b61cf7eed3f7,SCR,2024-06-24_18h31.44.403,LearnStrategy,2023.2.3,Win32,59.88023952,,,,,,,,,,,4,09,3,3,,,,,,,,,,,,,,,,,,,,,,,,,,,,,,,
654a4e699c84b61cf7eed3f7,SCR,2024-06-24_18h31.44.403,LearnStrategy,2023.2.3,Win32,59.88023952,,,,,,,,,,,3,10,3,4,,,,,,,,,,,,,,,,,,,,,,,,,,,,,,,
654a4e699c84b61cf7eed3f7,SCR,2024-06-24_18h31.44.403,LearnStrategy,2023.2.3,Win32,59.88023952,,,,,,,,,,,5,05,3,5,,,,,,,,,,,,,,,,,,,,,,,,,,,,,,,
654a4e699c84b61cf7eed3f7,SCR,2024-06-24_18h31.44.403,LearnStrategy,2023.2.3,Win32,59.88023952,,,,,,,,,,,5,16,3,6,,,,,,,,,,,,,,,,,,,,,,,,,,,,,,,
654a4e699c84b61cf7eed3f7,SCR,2024-06-24_18h31.44.403,LearnStrategy,2023.2.3,Win32,59.88023952,,,,,,,,,,,3,02,3,7,,,,,,,,,,,,,,,,,,,,,,,,,,,,,,,
654a4e699c84b61cf7eed3f7,SCR,2024-06-24_18h31.44.403,LearnStrategy,2023.2.3,Win32,59.88023952,,,,,,,,,,,4,14,3,8,,,,,,,,,,,,,,,,,,,,,,,,,,,,,,,
654a4e699c84b61cf7eed3f7,SCR,2024-06-24_18h31.44.403,LearnStrategy,2023.2.3,Win32,59.88023952,,,,,,,,,,,1,06,4,1,,,,,,,,,,,,,,,,,,,,,,,,,,,,,,,
654a4e699c84b61cf7eed3f7,SCR,2024-06-24_18h31.44.403,LearnStrategy,2023.2.3,Win32,59.88023952,,,,,,,,,,,8,16,4,2,,,,,,,,,,,,,,,,,,,,,,,,,,,,,,,
654a4e699c84b61cf7eed3f7,SCR,2024-06-24_18h31.44.403,LearnStrategy,2023.2.3,Win32,59.88023952,,,,,,,,,,,1,02,4,3,,,,,,,,,,,,,,,,,,,,,,,,,,,,,,,
654a4e699c84b61cf7eed3f7,SCR,2024-06-24_18h31.44.403,LearnStrategy,2023.2.3,Win32,59.88023952,,,,,,,,,,,1,09,4,4,,,,,,,,,,,,,,,,,,,,,,,,,,,,,,,
654a4e699c84b61cf7eed3f7,SCR,2024-06-24_18h31.44.403,LearnStrategy,2023.2.3,Win32,59.88023952,,,,,,,,,,,5,12,4,5,,,,,,,,,,,,,,,,,,,,,,,,,,,,,,,
654a4e699c84b61cf7eed3f7,SCR,2024-06-24_18h31.44.403,LearnStrategy,2023.2.3,Win32,59.88023952,,,,,,,,,,,8,13,4,6,,,,,,,,,,,,,,,,,,,,,,,,,,,,,,,
654a4e699c84b61cf7eed3f7,SCR,2024-06-24_18h31.44.403,LearnStrategy,2023.2.3,Win32,59.88023952,,,,,,,,,,,1,16,4,7,,,,,,,,,,,,,,,,,,,,,,,,,,,,,,,
654a4e699c84b61cf7eed3f7,SCR,2024-06-24_18h31.44.403,LearnStrategy,2023.2.3,Win32,59.88023952,,,,,,,,,,,8,10,4,8,,,,,,,,,,,,,,,,,,,,,,,,,,,,,,,
654a4e699c84b61cf7eed3f7,SCR,2024-06-24_18h31.44.403,LearnStrategy,2023.2.3,Win32,59.88023952,,,,,,,,,,,6,12,5,1,,,,,,,,,,,,,,,,,,,,,,,,,,,,,,,
654a4e699c84b61cf7eed3f7,SCR,2024-06-24_18h31.44.403,LearnStrategy,2023.2.3,Win32,59.88023952,,,,,,,,,,,5,02,5,2,,,,,,,,,,,,,,,,,,,,,,,,,,,,,,,
654a4e699c84b61cf7eed3f7,SCR,2024-06-24_18h31.44.403,LearnStrategy,2023.2.3,Win32,59.88023952,,,,,,,,,,,3,14,5,3,,,,,,,,,,,,,,,,,,,,,,,,,,,,,,,
654a4e699c84b61cf7eed3f7,SCR,2024-06-24_18h31.44.403,LearnStrategy,2023.2.3,Win32,59.88023952,,,,,,,,,,,2,08,5,4,,,,,,,,,,,,,,,,,,,,,,,,,,,,,,,
654a4e699c84b61cf7eed3f7,SCR,2024-06-24_18h31.44.403,LearnStrategy,2023.2.3,Win32,59.88023952,,,,,,,,,,,8,02,5,5,,,,,,,,,,,,,,,,,,,,,,,,,,,,,,,
654a4e699c84b61cf7eed3f7,SCR,2024-06-24_18h31.44.403,LearnStrategy,2023.2.3,Win32,59.88023952,,,,,,,,,,,4,01,5,6,,,,,,,,,,,,,,,,,,,,,,,,,,,,,,,
654a4e699c84b61cf7eed3f7,SCR,2024-06-24_18h31.44.403,LearnStrategy,2023.2.3,Win32,59.88023952,,,,,,,,,,,5,11,5,7,,,,,,,,,,,,,,,,,,,,,,,,,,,,,,,
654a4e699c84b61cf7eed3f7,SCR,2024-06-24_18h31.44.403,LearnStrategy,2023.2.3,Win32,59.88023952,,,,,,,,,,,6,06,5,8,,,,,,,,,,,,,,,,,,,,,,,,,,,,,,,
654a4e699c84b61cf7eed3f7,SCR,2024-06-24_18h31.44.403,LearnStrategy,2023.2.3,Win32,59.88023952,,,,,,,,,,,5,08,6,1,,,,,,,,,,,,,,,,,,,,,,,,,,,,,,,
654a4e699c84b61cf7eed3f7,SCR,2024-06-24_18h31.44.403,LearnStrategy,2023.2.3,Win32,59.88023952,,,,,,,,,,,7,14,6,2,,,,,,,,,,,,,,,,,,,,,,,,,,,,,,,
654a4e699c84b61cf7eed3f7,SCR,2024-06-24_18h31.44.403,LearnStrategy,2023.2.3,Win32,59.88023952,,,,,,,,,,,3,06,6,3,,,,,,,,,,,,,,,,,,,,,,,,,,,,,,,
654a4e699c84b61cf7eed3f7,SCR,2024-06-24_18h31.44.403,LearnStrategy,2023.2.3,Win32,59.88023952,,,,,,,,,,,6,05,6,4,,,,,,,,,,,,,,,,,,,,,,,,,,,,,,,
654a4e699c84b61cf7eed3f7,SCR,2024-06-24_18h31.44.403,LearnStrategy,2023.2.3,Win32,59.88023952,,,,,,,,,,,2,02,6,5,,,,,,,,,,,,,,,,,,,,,,,,,,,,,,,
654a4e699c84b61cf7eed3f7,SCR,2024-06-24_18h31.44.403,LearnStrategy,2023.2.3,Win32,59.88023952,,,,,,,,,,,2,12,6,6,,,,,,,,,,,,,,,,,,,,,,,,,,,,,,,
654a4e699c84b61cf7eed3f7,SCR,2024-06-24_18h31.44.403,LearnStrategy,2023.2.3,Win32,59.88023952,,,,,,,,,,,8,08,6,7,,,,,,,,,,,,,,,,,,,,,,,,,,,,,,,
654a4e699c84b61cf7eed3f7,SCR,2024-06-24_18h31.44.403,LearnStrategy,2023.2.3,Win32,59.88023952,,,,,,,,,,,4,03,6,8,,,,,,,,,,,,,,,,,,,,,,,,,,,,,,,