participant,condition,date,expName,psychopyVersion,OS,frameRate,block,phase,trial,learn_mouse.x,learn_mouse.y,learn_mouse.leftButton,learn_mouse.midButton,learn_mouse.rightButton,learn_mouse.time,learn_mouse.clicked_name,cat,token,row,col,t_select,cat_mouse_l.x,cat_mouse_l.y,cat_mouse_l.leftButton,cat_mouse_l.midButton,cat_mouse_l.rightButton,cat_mouse_l.time,cat_mouse_l.clicked_name,resp,t_resp,corr,train_trials.thisRepN,train_trials.thisTrialN,train_trials.thisN,train_trials.thisIndex,train_trials.ran,cat_mouse_t.x,cat_mouse_t.y,cat_mouse_t.leftButton,cat_mouse_t.midButton,cat_mouse_t.rightButton,cat_mouse_t.time,cat_mouse_t.clicked_name,test_trials.thisRepN,test_trials.thisTrialN,test_trials.thisN,test_trials.thisIndex,test_trials.ran,Bonus
654a9787b481c48995414b44,SCN,2024-06-24_14h33.09.204,LearnStrategy,2023.2.3,Win32,14.99250375,,,,,,,,,,,,,,,,,,,,,,,,,,,,,,,,,,,,,,,,,,,
654a9787b481c48995414b44,SCN,2024-06-24_14h33.09.204,LearnStrategy,2023.2.3,Win32,14.99250375,1,1,1,-0.54537037,0.406481481,1,0,0,4.7773,Andesite_05,1,05,6,1,4.777,-0.125,-0.256481481,1,0,0,13.1494,Basalt_rect,2,13.149,0,0,0,0,0,1,,,,,,,,,,,,,
654a9787b481c48995414b44,SCN,2024-06-24_14h33.09.204,LearnStrategy,2023.2.3,Win32,14.99250375,1,1,2,-0.223148148,0.247222222,1,0,0,5.7276,Obsidian_05,5,05,5,3,5.728,0.359259259,-0.408333333,1,0,0,3.4804,Pumice_rect,8,3.48,0,1,0,1,0,1,,,,,,,,,,,,,
654a9787b481c48995414b44,SCN,2024-06-24_14h33.09.204,LearnStrategy,2023.2.3,Win32,14.99250375,1,1,3,-0.072222222,0.237037037,1,0,0,7.0363,Pumice_16,8,16,5,4,7.036,0.376851852,-0.25462963,1,0,0,3.317,Gabbro_rect,4,3.317,0,2,0,2,0,1,,,,,,,,,,,,,
654a9787b481c48995414b44,SCN,2024-06-24_14h33.09.204,LearnStrategy,2023.2.3,Win32,14.99250375,1,1,4,0.571296296,0.099074074,1,0,0,2.8039,Pumice_14,8,14,4,8,2.804,0.4,-0.416666667,1,0,0,7.8327,Pumice_rect,8,7.833,1,3,0,3,0,1,,,,,,,,,,,,,
654a9787b481c48995414b44,SCN,2024-06-24_14h33.09.204,LearnStrategy,2023.2.3,Win32,14.99250375,1,1,5,-0.091666667,-0.106481481,1,0,0,1.6762,Gabbro_14,4,14,3,4,1.676,0.338888889,-0.421296296,1,0,0,2.0768,Pumice_rect,8,2.077,0,4,0,4,0,1,,,,,,,,,,,,,
654a9787b481c48995414b44,SCN,2024-06-24_14h33.09.204,LearnStrategy,2023.2.3,Win32,14.99250375,1,1,6,0.537037037,-0.126851852,1,0,0,1.9572,Obsidian_16,5,16,3,8,1.957,-0.365740741,-0.400925926,1,0,0,2.3732,Obsidian_rect,5,2.373,1,5,0,5,0,1,,,,,,,,,,,,,
654a9787b481c48995414b44,SCN,2024-06-24_14h33.09.204,LearnStrategy,2023.2.3,Win32,14.99250375,1,1,7,-0.234259259,0.410185185,1,0,0,4.6688,Gabbro_12,4,12,6,3,4.669,-0.376851852,-0.255555556,1,0,0,1.509,Andesite_rect,1,1.509,0,6,0,6,0,1,,,,,,,,,,,,,
654a9787b481c48995414b44,SCN,2024-06-24_14h33.09.204,LearnStrategy,2023.2.3,Win32,14.99250375,1,1,8,0.546296296,0.107407407,1,0,0,12.2319,Pumice_14,8,14,4,8,12.232,0.367592593,-0.255555556,1,0,0,2.4023,Gabbro_rect,4,2.402,0,7,0,7,0,1,,,,,,,,,,,,,
654a9787b481c48995414b44,SCN,2024-06-24_14h33.09.204,LearnStrategy,2023.2.3,Win32,14.99250375,1,1,9,-0.243518519,-0.39537037,1,0,0,7.7562,Basalt_14,2,14,1,3,7.756,0.358333333,-0.255555556,1,0,0,1.2642,Gabbro_rect,4,1.264,0,8,0,8,0,1,,,,,,,,,,,,,
654a9787b481c48995414b44,SCN,2024-06-24_14h33.09.204,LearnStrategy,2023.2.3,Win32,14.99250375,1,1,10,-0.235185185,-0.112962963,1,0,0,7.6851,Pumice_13,8,13,3,3,7.685,-0.121296296,-0.246296296,1,0,0,5.5246,Basalt_rect,2,5.525,0,9,0,9,0,1,,,,,,,,,,,,,
654a9787b481c48995414b44,SCN,2024-06-24_14h33.09.204,LearnStrategy,2023.2.3,Win32,14.99250375,1,1,11,-0.550925926,-0.276851852,1,0,0,2.0904,Peridotite_06,7,06,2,1,2.09,0.052777778,-0.235185185,1,0,0,2.1659,Diorite_rect,3,2.166,0,10,0,10,0,1,,,,,,,,,,,,,
654a9787b481c48995414b44,SCN,2024-06-24_14h33.09.204,LearnStrategy,2023.2.3,Win32,14.99250375,1,1,12,-0.216666667,0.082407407,1,0,0,5.1452,Pegmatite_10,6,10,4,3,5.145,0.087962963,-0.387037037,1,0,0,1.9023,Peridotite_rect,7,1.902,0,11,0,11,0,1,,,,,,,,,,,,,
654a9787b481c48995414b44,SCN,2024-06-24_14h33.09.204,LearnStrategy,2023.2.3,Win32,14.99250375,1,1,13,0.537962963,0.392592593,1,0,0,5.52,Andesite_11,1,11,6,8,5.52,-0.337037037,-0.252777778,1,0,0,3.2487,Andesite_rect,1,3.249,1,12,0,12,0,1,,,,,,,,,,,,,
654a9787b481c48995414b44,SCN,2024-06-24_14h33.09.204,LearnStrategy,2023.2.3,Win32,14.99250375,1,1,14,0.076851852,0.241666667,1,0,0,3.7454,Basalt_09,2,09,5,5,3.745,0.072222222,-0.256481481,1,0,0,1.809,Diorite_rect,3,1.809,0,13,0,13,0,1,,,,,,,,,,,,,
654a9787b481c48995414b44,SCN,2024-06-24_14h33.09.204,LearnStrategy,2023.2.3,Win32,14.99250375,1,1,15,-0.400925926,-0.239814815,1,0,0,3.1377,Basalt_01,2,01,2,2,3.138,-0.105555556,-0.263888889,1,0,0,1.7435,Basalt_rect,2,1.743,1,14,0,14,0,1,,,,,,,,,,,,,
654a9787b481c48995414b44,SCN,2024-06-24_14h33.09.204,LearnStrategy,2023.2.3,Win32,14.99250375,1,1,16,0.078703704,0.090740741,1,0,0,1.4811,Pumice_09,8,09,4,5,1.481,0.112037037,-0.260185185,1,0,0,6.0146,Diorite_rect,3,6.015,0,15,0,15,0,1,,,,,,,,,,,,,
654a9787b481c48995414b44,SCN,2024-06-24_14h33.09.204,LearnStrategy,2023.2.3,Win32,14.99250375,1,2,1,,,,,,,,2,12,,,,,,,,,,,2,8.068,1,,,,,,-0.097222222,-0.239814815,1,0,0,8.0676,Basalt_rect,0,0,0,0,1,
654a9787b481c48995414b44,SCN,2024-06-24_14h33.09.204,LearnStrategy,2023.2.3,Win32,14.99250375,1,2,2,,,,,,,,7,16,,,,,,,,,,,7,4.553,1,,,,,,0.1,-0.401851852,1,0,0,4.5528,Peridotite_rect,1,0,1,0,1,
654a9787b481c48995414b44,SCN,2024-06-24_14h33.09.204,LearnStrategy,2023.2.3,Win32,14.99250375,1,2,3,,,,,,,,8,15,,,,,,,,,,,8,1.617,1,,,,,,0.385185185,-0.394444444,1,0,0,1.6171,Pumice_rect,2,0,2,0,1,
654a9787b481c48995414b44,SCN,2024-06-24_14h33.09.204,LearnStrategy,2023.2.3,Win32,14.99250375,1,2,4,,,,,,,,3,13,,,,,,,,,,,3,7.273,1,,,,,,0.176851852,-0.264814815,1,0,0,7.2728,Diorite_rect,3,0,3,0,1,
654a9787b481c48995414b44,SCN,2024-06-24_14h33.09.204,LearnStrategy,2023.2.3,Win32,14.99250375,1,2,5,,,,,,,,8,06,,,,,,,,,,,8,1.818,1,,,,,,0.384259259,-0.417592593,1,0,0,1.8178,Pumice_rect,4,0,4,0,1,
654a9787b481c48995414b44,SCN,2024-06-24_14h33.09.204,LearnStrategy,2023.2.3,Win32,14.99250375,1,2,6,,,,,,,,5,12,,,,,,,,,,,5,1.572,1,,,,,,-0.387962963,-0.400925926,1,0,0,1.5717,Obsidian_rect,5,0,5,0,1,
654a9787b481c48995414b44,SCN,2024-06-24_14h33.09.204,LearnStrategy,2023.2.3,Win32,14.99250375,1,2,7,,,,,,,,1,01,,,,,,,,,,,1,9.161,1,,,,,,-0.375,-0.244444444,1,0,0,9.1615,Andesite_rect,6,0,6,0,1,
654a9787b481c48995414b44,SCN,2024-06-24_14h33.09.204,LearnStrategy,2023.2.3,Win32,14.99250375,1,2,8,,,,,,,,4,10,,,,,,,,,,,2,2.288,0,,,,,,-0.224074074,-0.251851852,1,0,0,2.288,Basalt_rect,7,0,7,0,1,
654a9787b481c48995414b44,SCN,2024-06-24_14h33.09.204,LearnStrategy,2023.2.3,Win32,14.99250375,1,2,9,,,,,,,,6,15,,,,,,,,,,,6,4.418,1,,,,,,-0.088888889,-0.405555556,1,0,0,4.4179,Pegmatite_rect,8,0,8,0,1,
654a9787b481c48995414b44,SCN,2024-06-24_14h33.09.204,LearnStrategy,2023.2.3,Win32,14.99250375,1,2,10,,,,,,,,7,13,,,,,,,,,,,7,2.487,1,,,,,,0.125,-0.383333333,1,0,0,2.4865,Peridotite_rect,9,0,9,0,1,
654a9787b481c48995414b44,SCN,2024-06-24_14h33.09.204,LearnStrategy,2023.2.3,Win32,14.99250375,1,2,11,,,,,,,,2,05,,,,,,,,,,,5,1.82,0,,,,,,-0.385185185,-0.39537037,1,0,0,1.8196,Obsidian_rect,10,0,10,0,1,
654a9787b481c48995414b44,SCN,2024-06-24_14h33.09.204,LearnStrategy,2023.2.3,Win32,14.99250375,1,2,12,,,,,,,,1,14,,,,,,,,,,,1,1.892,1,,,,,,-0.396296296,-0.243518519,1,0,0,1.8921,Andesite_rect,11,0,11,0,1,
654a9787b481c48995414b44,SCN,2024-06-24_14h33.09.204,LearnStrategy,2023.2.3,Win32,14.99250375,1,2,13,,,,,,,,6,12,,,,,,,,,,,2,2.429,0,,,,,,-0.150925926,-0.265740741,1,0,0,2.4295,Basalt_rect,12,0,12,0,1,
654a9787b481c48995414b44,SCN,2024-06-24_14h33.09.204,LearnStrategy,2023.2.3,Win32,14.99250375,1,2,14,,,,,,,,3,07,,,,,,,,,,,3,1.86,1,,,,,,0.115740741,-0.258333333,1,0,0,1.8599,Diorite_rect,13,0,13,0,1,
654a9787b481c48995414b44,SCN,2024-06-24_14h33.09.204,LearnStrategy,2023.2.3,Win32,14.99250375,1,2,15,,,,,,,,4,03,,,,,,,,,,,1,2.741,0,,,,,,-0.386111111,-0.25,1,0,0,2.7406,Andesite_rect,14,0,14,0,1,
654a9787b481c48995414b44,SCN,2024-06-24_14h33.09.204,LearnStrategy,2023.2.3,Win32,14.99250375,1,2,16,,,,,,,,5,14,,,,,,,,,,,5,1.283,1,,,,,,-0.367592593,-0.399074074,1,0,0,1.283,Obsidian_rect,15,0,15,0,1,
654a9787b481c48995414b44,SCN,2024-06-24_14h33.09.204,LearnStrategy,2023.2.3,Win32,14.99250375,2,1,1,-0.534259259,0.208333333,1,0,0,3.3445,Peridotite_14,7,14,5,1,3.344,-0.1,-0.39537037,1,0,0,4.2388,Pegmatite_rect,6,4.239,0,0,0,0,0,1,,,,,,,,,,,,,
654a9787b481c48995414b44,SCN,2024-06-24_14h33.09.204,LearnStrategy,2023.2.3,Win32,14.99250375,2,1,2,0.548148148,-0.412962963,1,0,0,8.1453,Pegmatite_11,6,11,1,8,8.145,0.138888889,-0.25462963,1,0,0,2.8714,Diorite_rect,3,2.871,0,1,0,1,0,1,,,,,,,,,,,,,
654a9787b481c48995414b44,SCN,2024-06-24_14h33.09.204,LearnStrategy,2023.2.3,Win32,14.99250375,2,1,3,0.388888889,0.391666667,1,0,0,4.8015,Obsidian_07,5,07,6,7,4.801,-0.107407407,-0.4,1,0,0,1.8519,Pegmatite_rect,6,1.852,0,2,0,2,0,1,,,,,,,,,,,,,
654a9787b481c48995414b44,SCN,2024-06-24_14h33.09.204,LearnStrategy,2023.2.3,Win32,14.99250375,2,1,4,-0.226851852,0.22962963,1,0,0,3.9755,Obsidian_05,5,05,5,3,3.975,-0.396296296,-0.406481481,1,0,0,1.4059,Obsidian_rect,5,1.406,1,3,0,3,0,1,,,,,,,,,,,,,
654a9787b481c48995414b44,SCN,2024-06-24_14h33.09.204,LearnStrategy,2023.2.3,Win32,14.99250375,2,1,5,0.405555556,-0.109259259,1,0,0,4.0325,Pegmatite_05,6,05,3,7,4.032,0.19537037,-0.252777778,1,0,0,1.3431,Diorite_rect,3,1.343,0,4,0,4,0,1,,,,,,,,,,,,,
654a9787b481c48995414b44,SCN,2024-06-24_14h33.09.204,LearnStrategy,2023.2.3,Win32,14.99250375,2,1,6,-0.075,0.074074074,1,0,0,10.0321,Andesite_16,1,16,4,4,10.032,-0.391666667,-0.261111111,1,0,0,2.5134,Andesite_rect,1,2.513,1,5,0,5,0,1,,,,,,,,,,,,,
654a9787b481c48995414b44,SCN,2024-06-24_14h33.09.204,LearnStrategy,2023.2.3,Win32,14.99250375,2,1,7,0.234259259,0.265740741,1,0,0,4.8669,Gabbro_01,4,01,5,6,4.867,-0.362962963,-0.256481481,1,0,0,1.8449,Andesite_rect,1,1.845,0,6,0,6,0,1,,,,,,,,,,,,,
654a9787b481c48995414b44,SCN,2024-06-24_14h33.09.204,LearnStrategy,2023.2.3,Win32,14.99250375,2,1,8,0.396296296,0.237037037,1,0,0,3.7026,Pegmatite_07,6,07,5,7,3.703,0.161111111,-0.264814815,1,0,0,2.6197,Diorite_rect,3,2.62,0,7,0,7,0,1,,,,,,,,,,,,,
654a9787b481c48995414b44,SCN,2024-06-24_14h33.09.204,LearnStrategy,2023.2.3,Win32,14.99250375,2,1,9,-0.387962963,0.111111111,1,0,0,2.4349,Gabbro_16,4,16,4,2,2.435,0.349074074,-0.247222222,1,0,0,10.6125,Gabbro_rect,4,10.613,1,8,0,8,0,1,,,,,,,,,,,,,
654a9787b481c48995414b44,SCN,2024-06-24_14h33.09.204,LearnStrategy,2023.2.3,Win32,14.99250375,2,1,10,-0.412962963,-0.253703704,1,0,0,3.9065,Basalt_01,2,01,2,2,3.907,-0.362037037,-0.258333333,1,0,0,3.5653,Andesite_rect,1,3.565,0,9,0,9,0,1,,,,,,,,,,,,,
654a9787b481c48995414b44,SCN,2024-06-24_14h33.09.204,LearnStrategy,2023.2.3,Win32,14.99250375,2,1,11,0.086111111,-0.413888889,1,0,0,3.2013,Gabbro_11,4,11,1,5,3.201,-0.10462963,-0.262962963,1,0,0,3.6434,Basalt_rect,2,3.643,0,10,0,10,0,1,,,,,,,,,,,,,
654a9787b481c48995414b44,SCN,2024-06-24_14h33.09.204,LearnStrategy,2023.2.3,Win32,14.99250375,2,1,12,-0.378703704,-0.413888889,1,0,0,3.2272,Gabbro_09,4,09,1,2,3.227,0.157407407,-0.248148148,1,0,0,6.6283,Diorite_rect,3,6.628,0,11,0,11,0,1,,,,,,,,,,,,,
654a9787b481c48995414b44,SCN,2024-06-24_14h33.09.204,LearnStrategy,2023.2.3,Win32,14.99250375,2,1,13,-0.07962963,-0.411111111,1,0,0,2.2807,Pegmatite_16,6,16,1,4,2.281,-0.165740741,-0.401851852,1,0,0,3.0536,Pegmatite_rect,6,3.054,1,12,0,12,0,1,,,,,,,,,,,,,
654a9787b481c48995414b44,SCN,2024-06-24_14h33.09.204,LearnStrategy,2023.2.3,Win32,14.99250375,2,1,14,-0.538888889,-0.403703704,1,0,0,2.619,Pumice_02,8,02,1,1,2.619,0.410185185,-0.405555556,1,0,0,2.4733,Pumice_rect,8,2.473,1,13,0,13,0,1,,,,,,,,,,,,,
654a9787b481c48995414b44,SCN,2024-06-24_14h33.09.204,LearnStrategy,2023.2.3,Win32,14.99250375,2,1,15,0.221296296,0.108333333,1,0,0,2.1024,Diorite_02,3,02,4,6,2.102,-0.061111111,-0.250925926,1,0,0,9.1372,Basalt_rect,2,9.137,0,14,0,14,0,1,,,,,,,,,,,,,
654a9787b481c48995414b44,SCN,2024-06-24_14h33.09.204,LearnStrategy,2023.2.3,Win32,14.99250375,2,1,16,-0.07962963,0.383333333,1,0,0,7.9745,Pegmatite_13,6,13,6,4,7.975,0.15,-0.234259259,1,0,0,2.2559,Diorite_rect,3,2.256,0,15,0,15,0,1,,,,,,,,,,,,,
654a9787b481c48995414b44,SCN,2024-06-24_14h33.09.204,LearnStrategy,2023.2.3,Win32,14.99250375,2,2,1,,,,,,,,3,16,,,,,,,,,,,2,9.351,0,,,,,,-0.124074074,-0.237962963,1,0,0,9.3513,Basalt_rect,0,0,0,0,1,
654a9787b481c48995414b44,SCN,2024-06-24_14h33.09.204,LearnStrategy,2023.2.3,Win32,14.99250375,2,2,2,,,,,,,,3,09,,,,,,,,,,,3,6.057,1,,,,,,0.1,-0.261111111,1,0,0,6.0569,Diorite_rect,1,0,1,0,1,
654a9787b481c48995414b44,SCN,2024-06-24_14h33.09.204,LearnStrategy,2023.2.3,Win32,14.99250375,2,2,3,,,,,,,,8,04,,,,,,,,,,,8,9.496,1,,,,,,0.47037037,-0.37962963,1,0,0,9.4957,Pumice_rect,2,0,2,0,1,
654a9787b481c48995414b44,SCN,2024-06-24_14h33.09.204,LearnStrategy,2023.2.3,Win32,14.99250375,2,2,4,,,,,,,,6,06,,,,,,,,,,,6,2.627,1,,,,,,-0.157407407,-0.393518519,1,0,0,2.6272,Pegmatite_rect,3,0,3,0,1,
654a9787b481c48995414b44,SCN,2024-06-24_14h33.09.204,LearnStrategy,2023.2.3,Win32,14.99250375,2,2,5,,,,,,,,1,09,,,,,,,,,,,1,1.704,1,,,,,,-0.349074074,-0.255555556,1,0,0,1.7044,Andesite_rect,4,0,4,0,1,
654a9787b481c48995414b44,SCN,2024-06-24_14h33.09.204,LearnStrategy,2023.2.3,Win32,14.99250375,2,2,6,,,,,,,,1,10,,,,,,,,,,,4,4.748,0,,,,,,0.357407407,-0.235185185,1,0,0,4.7483,Gabbro_rect,5,0,5,0,1,
654a9787b481c48995414b44,SCN,2024-06-24_14h33.09.204,LearnStrategy,2023.2.3,Win32,14.99250375,2,2,7,,,,,,,,7,04,,,,,,,,,,,3,3.939,0,,,,,,0.12037037,-0.24537037,1,0,0,3.9389,Diorite_rect,6,0,6,0,1,
654a9787b481c48995414b44,SCN,2024-06-24_14h33.09.204,LearnStrategy,2023.2.3,Win32,14.99250375,2,2,8,,,,,,,,2,02,,,,,,,,,,,2,2.335,1,,,,,,-0.150925926,-0.271296296,1,0,0,2.3352,Basalt_rect,7,0,7,0,1,
654a9787b481c48995414b44,SCN,2024-06-24_14h33.09.204,LearnStrategy,2023.2.3,Win32,14.99250375,2,2,9,,,,,,,,5,02,,,,,,,,,,,5,1.397,1,,,,,,-0.337037037,-0.39537037,1,0,0,1.3974,Obsidian_rect,8,0,8,0,1,
654a9787b481c48995414b44,SCN,2024-06-24_14h33.09.204,LearnStrategy,2023.2.3,Win32,14.99250375,2,2,10,,,,,,,,5,06,,,,,,,,,,,5,1.385,1,,,,,,-0.4,-0.42037037,1,0,0,1.3847,Obsidian_rect,9,0,9,0,1,
654a9787b481c48995414b44,SCN,2024-06-24_14h33.09.204,LearnStrategy,2023.2.3,Win32,14.99250375,2,2,11,,,,,,,,8,03,,,,,,,,,,,8,1.269,1,,,,,,0.427777778,-0.37962963,1,0,0,1.2691,Pumice_rect,10,0,10,0,1,
654a9787b481c48995414b44,SCN,2024-06-24_14h33.09.204,LearnStrategy,2023.2.3,Win32,14.99250375,2,2,12,,,,,,,,6,09,,,,,,,,,,,6,3.862,1,,,,,,-0.117592593,-0.401851852,1,0,0,3.862,Pegmatite_rect,11,0,11,0,1,
654a9787b481c48995414b44,SCN,2024-06-24_14h33.09.204,LearnStrategy,2023.2.3,Win32,14.99250375,2,2,13,,,,,,,,4,05,,,,,,,,,,,7,3.549,0,,,,,,0.108333333,-0.389814815,1,0,0,3.5491,Peridotite_rect,12,0,12,0,1,
654a9787b481c48995414b44,SCN,2024-06-24_14h33.09.204,LearnStrategy,2023.2.3,Win32,14.99250375,2,2,14,,,,,,,,7,15,,,,,,,,,,,7,1.124,1,,,,,,0.108333333,-0.389814815,1,0,0,1.1241,Peridotite_rect,13,0,13,0,1,
654a9787b481c48995414b44,SCN,2024-06-24_14h33.09.204,LearnStrategy,2023.2.3,Win32,14.99250375,2,2,15,,,,,,,,4,08,,,,,,,,,,,4,2.32,1,,,,,,0.357407407,-0.237037037,1,0,0,2.3203,Gabbro_rect,14,0,14,0,1,
654a9787b481c48995414b44,SCN,2024-06-24_14h33.09.204,LearnStrategy,2023.2.3,Win32,14.99250375,2,2,16,,,,,,,,2,06,,,,,,,,,,,5,1.392,0,,,,,,-0.349074074,-0.401851852,1,0,0,1.3923,Obsidian_rect,15,0,15,0,1,
654a9787b481c48995414b44,SCN,2024-06-24_14h33.09.204,LearnStrategy,2023.2.3,Win32,14.99250375,3,1,1,-0.385185185,0.390740741,1,0,0,2.3906,Peridotite_08,7,08,6,2,2.391,0.071296296,-0.40462963,1,0,0,3.3832,Peridotite_rect,7,3.383,1,0,0,0,0,1,,,,,,,,,,,,,
654a9787b481c48995414b44,SCN,2024-06-24_14h33.09.204,LearnStrategy,2023.2.3,Win32,14.99250375,3,1,2,-0.244444444,0.400925926,1,0,0,1.7782,Gabbro_12,4,12,6,3,1.778,-0.103703704,-0.241666667,1,0,0,1.6159,Basalt_rect,2,1.616,0,1,0,1,0,1,,,,,,,,,,,,,
654a9787b481c48995414b44,SCN,2024-06-24_14h33.09.204,LearnStrategy,2023.2.3,Win32,14.99250375,3,1,3,-0.090740741,0.403703704,1,0,0,5.4229,Pegmatite_13,6,13,6,4,5.423,-0.123148148,-0.409259259,1,0,0,3.7141,Pegmatite_rect,6,3.714,1,2,0,2,0,1,,,,,,,,,,,,,
654a9787b481c48995414b44,SCN,2024-06-24_14h33.09.204,LearnStrategy,2023.2.3,Win32,14.99250375,3,1,4,0.063888889,0.411111111,1,0,0,2.0762,Basalt_10,2,10,6,5,2.076,-0.424074074,-0.405555556,1,0,0,2.5508,Obsidian_rect,5,2.551,0,3,0,3,0,1,,,,,,,,,,,,,
654a9787b481c48995414b44,SCN,2024-06-24_14h33.09.204,LearnStrategy,2023.2.3,Win32,14.99250375,3,1,5,0.540740741,0.403703704,1,0,0,11.0486,Andesite_11,1,11,6,8,11.049,-0.1,-0.255555556,1,0,0,2.0502,Basalt_rect,2,2.05,0,4,0,4,0,1,,,,,,,,,,,,,
654a9787b481c48995414b44,SCN,2024-06-24_14h33.09.204,LearnStrategy,2023.2.3,Win32,14.99250375,3,1,6,-0.578703704,0.222222222,1,0,0,2.7543,Peridotite_14,7,14,5,1,2.754,0.099074074,-0.405555556,1,0,0,1.9846,Peridotite_rect,7,1.985,1,5,0,5,0,1,,,,,,,,,,,,,
654a9787b481c48995414b44,SCN,2024-06-24_14h33.09.204,LearnStrategy,2023.2.3,Win32,14.99250375,3,1,7,-0.392592593,0.239814815,1,0,0,1.6675,Diorite_15,3,15,5,2,1.668,0.137037037,-0.248148148,1,0,0,2.9693,Diorite_rect,3,2.969,1,6,0,6,0,1,,,,,,,,,,,,,
654a9787b481c48995414b44,SCN,2024-06-24_14h33.09.204,LearnStrategy,2023.2.3,Win32,14.99250375,3,1,8,0.069444444,0.256481481,1,0,0,3.868,Basalt_09,2,09,5,5,3.868,-0.10462963,-0.265740741,1,0,0,1.9589,Basalt_rect,2,1.959,1,7,0,7,0,1,,,,,,,,,,,,,
654a9787b481c48995414b44,SCN,2024-06-24_14h33.09.204,LearnStrategy,2023.2.3,Win32,14.99250375,3,1,9,0.244444444,0.25462963,1,0,0,1.512,Gabbro_01,4,01,5,6,1.512,0.142592593,-0.410185185,1,0,0,1.8422,Peridotite_rect,7,1.842,0,8,0,8,0,1,,,,,,,,,,,,,
654a9787b481c48995414b44,SCN,2024-06-24_14h33.09.204,LearnStrategy,2023.2.3,Win32,14.99250375,3,1,10,0.375,0.238888889,1,0,0,7.8277,Pegmatite_07,6,07,5,7,7.828,-0.134259259,-0.396296296,1,0,0,2.3534,Pegmatite_rect,6,2.353,1,9,0,9,0,1,,,,,,,,,,,,,
654a9787b481c48995414b44,SCN,2024-06-24_14h33.09.204,LearnStrategy,2023.2.3,Win32,14.99250375,3,1,11,0.55462963,0.259259259,1,0,0,2.8875,Peridotite_02,7,02,5,8,2.887,0.147222222,-0.412037037,1,0,0,1.1517,Peridotite_rect,7,1.152,1,10,0,10,0,1,,,,,,,,,,,,,
654a9787b481c48995414b44,SCN,2024-06-24_14h33.09.204,LearnStrategy,2023.2.3,Win32,14.99250375,3,1,12,-0.550925926,0.10462963,1,0,0,1.953,Diorite_08,3,08,4,1,1.953,0.12037037,-0.264814815,1,0,0,2.4731,Diorite_rect,3,2.473,1,11,0,11,0,1,,,,,,,,,,,,,
654a9787b481c48995414b44,SCN,2024-06-24_14h33.09.204,LearnStrategy,2023.2.3,Win32,14.99250375,3,1,13,-0.398148148,0.107407407,1,0,0,2.2158,Gabbro_16,4,16,4,2,2.216,-0.116666667,-0.25,1,0,0,5.2441,Basalt_rect,2,5.244,0,12,0,12,0,1,,,,,,,,,,,,,
654a9787b481c48995414b44,SCN,2024-06-24_14h33.09.204,LearnStrategy,2023.2.3,Win32,14.99250375,3,1,14,-0.059259259,0.102777778,1,0,0,3.8972,Andesite_16,1,16,4,4,3.897,-0.403703704,-0.258333333,1,0,0,1.1134,Andesite_rect,1,1.113,1,13,0,13,0,1,,,,,,,,,,,,,
654a9787b481c48995414b44,SCN,2024-06-24_14h33.09.204,LearnStrategy,2023.2.3,Win32,14.99250375,3,1,15,0.264814815,0.09537037,1,0,0,2.6179,Diorite_02,3,02,4,6,2.618,0.130555556,-0.241666667,1,0,0,1.3887,Diorite_rect,3,1.389,1,14,0,14,0,1,,,,,,,,,,,,,
654a9787b481c48995414b44,SCN,2024-06-24_14h33.09.204,LearnStrategy,2023.2.3,Win32,14.99250375,3,1,16,0.403703704,0.096296296,1,0,0,2.3508,Peridotite_12,7,12,4,7,2.351,0.187037037,-0.255555556,1,0,0,2.2185,Diorite_rect,3,2.218,0,15,0,15,0,1,,,,,,,,,,,,,
654a9787b481c48995414b44,SCN,2024-06-24_14h33.09.204,LearnStrategy,2023.2.3,Win32,14.99250375,3,2,1,,,,,,,,6,03,,,,,,,,,,,6,4.076,1,,,,,,-0.124074074,-0.416666667,1,0,0,4.0763,Pegmatite_rect,0,0,0,0,1,
654a9787b481c48995414b44,SCN,2024-06-24_14h33.09.204,LearnStrategy,2023.2.3,Win32,14.99250375,3,2,2,,,,,,,,4,15,,,,,,,,,,,3,2.012,0,,,,,,0.164814815,-0.238888889,1,0,0,2.0117,Diorite_rect,1,0,1,0,1,
654a9787b481c48995414b44,SCN,2024-06-24_14h33.09.204,LearnStrategy,2023.2.3,Win32,14.99250375,3,2,3,,,,,,,,1,07,,,,,,,,,,,1,2.583,1,,,,,,-0.416666667,-0.247222222,1,0,0,2.5831,Andesite_rect,2,0,2,0,1,
654a9787b481c48995414b44,SCN,2024-06-24_14h33.09.204,LearnStrategy,2023.2.3,Win32,14.99250375,3,2,4,,,,,,,,3,11,,,,,,,,,,,4,3.507,0,,,,,,0.371296296,-0.255555556,1,0,0,3.507,Gabbro_rect,3,0,3,0,1,
654a9787b481c48995414b44,SCN,2024-06-24_14h33.09.204,LearnStrategy,2023.2.3,Win32,14.99250375,3,2,5,,,,,,,,1,03,,,,,,,,,,,2,1.607,0,,,,,,-0.17037037,-0.241666667,1,0,0,1.6073,Basalt_rect,4,0,4,0,1,
654a9787b481c48995414b44,SCN,2024-06-24_14h33.09.204,LearnStrategy,2023.2.3,Win32,14.99250375,3,2,6,,,,,,,,5,10,,,,,,,,,,,5,1.257,1,,,,,,-0.400925926,-0.399074074,1,0,0,1.2567,Obsidian_rect,5,0,5,0,1,
654a9787b481c48995414b44,SCN,2024-06-24_14h33.09.204,LearnStrategy,2023.2.3,Win32,14.99250375,3,2,7,,,,,,,,8,08,,,,,,,,,,,8,2.302,1,,,,,,0.411111111,-0.396296296,1,0,0,2.3016,Pumice_rect,6,0,6,0,1,
654a9787b481c48995414b44,SCN,2024-06-24_14h33.09.204,LearnStrategy,2023.2.3,Win32,14.99250375,3,2,8,,,,,,,,5,04,,,,,,,,,,,5,1.42,1,,,,,,-0.405555556,-0.393518519,1,0,0,1.42,Obsidian_rect,7,0,7,0,1,
654a9787b481c48995414b44,SCN,2024-06-24_14h33.09.204,LearnStrategy,2023.2.3,Win32,14.99250375,3,2,9,,,,,,,,8,10,,,,,,,,,,,8,1.387,1,,,,,,0.373148148,-0.39537037,1,0,0,1.3874,Pumice_rect,8,0,8,0,1,
654a9787b481c48995414b44,SCN,2024-06-24_14h33.09.204,LearnStrategy,2023.2.3,Win32,14.99250375,3,2,10,,,,,,,,7,05,,,,,,,,,,,7,1.793,1,,,,,,0.142592593,-0.405555556,1,0,0,1.793,Peridotite_rect,9,0,9,0,1,
654a9787b481c48995414b44,SCN,2024-06-24_14h33.09.204,LearnStrategy,2023.2.3,Win32,14.99250375,3,2,11,,,,,,,,3,06,,,,,,,,,,,2,6.862,0,,,,,,-0.131481481,-0.233333333,1,0,0,6.862,Basalt_rect,10,0,10,0,1,
654a9787b481c48995414b44,SCN,2024-06-24_14h33.09.204,LearnStrategy,2023.2.3,Win32,14.99250375,3,2,12,,,,,,,,2,08,,,,,,,,,,,5,1.766,0,,,,,,-0.385185185,-0.399074074,1,0,0,1.7659,Obsidian_rect,11,0,11,0,1,
654a9787b481c48995414b44,SCN,2024-06-24_14h33.09.204,LearnStrategy,2023.2.3,Win32,14.99250375,3,2,13,,,,,,,,2,16,,,,,,,,,,,4,2.503,0,,,,,,0.399074074,-0.25,1,0,0,2.5028,Gabbro_rect,12,0,12,0,1,
654a9787b481c48995414b44,SCN,2024-06-24_14h33.09.204,LearnStrategy,2023.2.3,Win32,14.99250375,3,2,14,,,,,,,,6,08,,,,,,,,,,,6,2.757,1,,,,,,-0.141666667,-0.4,1,0,0,2.7572,Pegmatite_rect,13,0,13,0,1,
654a9787b481c48995414b44,SCN,2024-06-24_14h33.09.204,LearnStrategy,2023.2.3,Win32,14.99250375,3,2,15,,,,,,,,7,10,,,,,,,,,,,7,1.433,1,,,,,,0.133333333,-0.387037037,1,0,0,1.4332,Peridotite_rect,14,0,14,0,1,
654a9787b481c48995414b44,SCN,2024-06-24_14h33.09.204,LearnStrategy,2023.2.3,Win32,14.99250375,3,2,16,,,,,,,,4,13,,,,,,,,,,,3,2.605,0,,,,,,0.139814815,-0.241666667,1,0,0,2.6048,Diorite_rect,15,0,15,0,1,
654a9787b481c48995414b44,SCN,2024-06-24_14h33.09.204,LearnStrategy,2023.2.3,Win32,14.99250375,4,1,1,-0.383333333,-0.096296296,1,0,0,3.6686,Diorite_12,3,12,3,2,3.669,0.159259259,-0.25,1,0,0,1.4314,Diorite_rect,3,1.431,1,0,0,0,0,1,,,,,,,,,,,,,
654a9787b481c48995414b44,SCN,2024-06-24_14h33.09.204,LearnStrategy,2023.2.3,Win32,14.99250375,4,1,2,-0.24537037,-0.122222222,1,0,0,1.4914,Pumice_13,8,13,3,3,1.491,0.367592593,-0.405555556,1,0,0,1.2766,Pumice_rect,8,1.277,1,1,0,1,0,1,,,,,,,,,,,,,
654a9787b481c48995414b44,SCN,2024-06-24_14h33.09.204,LearnStrategy,2023.2.3,Win32,14.99250375,4,1,3,-0.060185185,-0.099074074,1,0,0,1.1148,Gabbro_14,4,14,3,4,1.115,0.397222222,-0.255555556,1,0,0,2.0218,Gabbro_rect,4,2.022,1,2,0,2,0,1,,,,,,,,,,,,,
654a9787b481c48995414b44,SCN,2024-06-24_14h33.09.204,LearnStrategy,2023.2.3,Win32,14.99250375,4,1,4,0.096296296,-0.098148148,1,0,0,1.3849,Basalt_11,2,11,3,5,1.385,-0.159259259,-0.242592593,1,0,0,2.7086,Basalt_rect,2,2.709,1,3,0,3,0,1,,,,,,,,,,,,,
654a9787b481c48995414b44,SCN,2024-06-24_14h33.09.204,LearnStrategy,2023.2.3,Win32,14.99250375,4,1,5,0.400925926,-0.119444444,1,0,0,1.785,Pegmatite_05,6,05,3,7,1.785,-0.146296296,-0.409259259,1,0,0,2.6122,Pegmatite_rect,6,2.612,1,4,0,4,0,1,,,,,,,,,,,,,
654a9787b481c48995414b44,SCN,2024-06-24_14h33.09.204,LearnStrategy,2023.2.3,Win32,14.99250375,4,1,6,-0.05462963,-0.282407407,1,0,0,5.0155,Diorite_10,3,10,2,4,5.015,-0.339814815,-0.249074074,1,0,0,0.9551,Andesite_rect,1,0.955,0,5,0,5,0,1,,,,,,,,,,,,,
654a9787b481c48995414b44,SCN,2024-06-24_14h33.09.204,LearnStrategy,2023.2.3,Win32,14.99250375,4,1,7,0.086111111,-0.275925926,1,0,0,1.3683,Andesite_06,1,06,2,5,1.368,-0.4,-0.251851852,1,0,0,1.1007,Andesite_rect,1,1.101,1,6,0,6,0,1,,,,,,,,,,,,,
654a9787b481c48995414b44,SCN,2024-06-24_14h33.09.204,LearnStrategy,2023.2.3,Win32,14.99250375,4,1,8,0.25462963,-0.273148148,1,0,0,1.3971,Andesite_02,1,02,2,6,1.397,-0.114814815,-0.230555556,1,0,0,3.7884,Basalt_rect,2,3.788,0,7,0,7,0,1,,,,,,,,,,,,,
654a9787b481c48995414b44,SCN,2024-06-24_14h33.09.204,LearnStrategy,2023.2.3,Win32,14.99250375,4,1,9,0.425925926,-0.248148148,1,0,0,1.9463,Diorite_14,3,14,2,7,1.946,0.17962963,-0.246296296,1,0,0,2.3103,Diorite_rect,3,2.31,1,8,0,8,0,1,,,,,,,,,,,,,
654a9787b481c48995414b44,SCN,2024-06-24_14h33.09.204,LearnStrategy,2023.2.3,Win32,14.99250375,4,1,10,0.568518519,-0.269444444,1,0,0,1.1194,Basalt_04,2,04,2,8,1.119,-0.155555556,-0.259259259,1,0,0,2.7129,Basalt_rect,2,2.713,1,9,0,9,0,1,,,,,,,,,,,,,
654a9787b481c48995414b44,SCN,2024-06-24_14h33.09.204,LearnStrategy,2023.2.3,Win32,14.99250375,4,1,11,-0.562962963,-0.437962963,1,0,0,1.9575,Pumice_02,8,02,1,1,1.957,0.396296296,-0.392592593,1,0,0,3.4235,Pumice_rect,8,3.423,1,10,0,10,0,1,,,,,,,,,,,,,
654a9787b481c48995414b44,SCN,2024-06-24_14h33.09.204,LearnStrategy,2023.2.3,Win32,14.99250375,4,1,12,-0.397222222,-0.427777778,1,0,0,2.7618,Gabbro_09,4,09,1,2,2.762,0.364814815,-0.25462963,1,0,0,3.7194,Gabbro_rect,4,3.719,1,11,0,11,0,1,,,,,,,,,,,,,
654a9787b481c48995414b44,SCN,2024-06-24_14h33.09.204,LearnStrategy,2023.2.3,Win32,14.99250375,4,1,13,-0.064814815,-0.412037037,1,0,0,2.649,Pegmatite_16,6,16,1,4,2.649,-0.109259259,-0.406481481,1,0,0,1.1014,Pegmatite_rect,6,1.101,1,12,0,12,0,1,,,,,,,,,,,,,
654a9787b481c48995414b44,SCN,2024-06-24_14h33.09.204,LearnStrategy,2023.2.3,Win32,14.99250375,4,1,14,0.080555556,-0.403703704,1,0,0,2.7527,Gabbro_11,4,11,1,5,2.753,-0.132407407,-0.235185185,1,0,0,1.4228,Basalt_rect,2,1.423,0,13,0,13,0,1,,,,,,,,,,,,,
654a9787b481c48995414b44,SCN,2024-06-24_14h33.09.204,LearnStrategy,2023.2.3,Win32,14.99250375,4,1,15,0.236111111,-0.413888889,1,0,0,1.2005,Andesite_04,1,04,1,6,1.2,-0.375,-0.244444444,1,0,0,4.3608,Andesite_rect,1,4.361,1,14,0,14,0,1,,,,,,,,,,,,,
654a9787b481c48995414b44,SCN,2024-06-24_14h33.09.204,LearnStrategy,2023.2.3,Win32,14.99250375,4,1,16,0.424074074,-0.416666667,1,0,0,1.3649,Peridotite_07,7,07,1,7,1.365,0.168518519,-0.4,1,0,0,1.8874,Peridotite_rect,7,1.887,1,15,0,15,0,1,,,,,,,,,,,,,
654a9787b481c48995414b44,SCN,2024-06-24_14h33.09.204,LearnStrategy,2023.2.3,Win32,14.99250375,4,2,1,,,,,,,,4,13,,,,,,,,,,,3,2.783,0,,,,,,0.137037037,-0.248148148,1,0,0,2.7833,Diorite_rect,0,0,0,0,1,
654a9787b481c48995414b44,SCN,2024-06-24_14h33.09.204,LearnStrategy,2023.2.3,Win32,14.99250375,4,2,2,,,,,,,,5,02,,,,,,,,,,,5,1.865,1,,,,,,-0.403703704,-0.386111111,1,0,0,1.8646,Obsidian_rect,1,0,1,0,1,
654a9787b481c48995414b44,SCN,2024-06-24_14h33.09.204,LearnStrategy,2023.2.3,Win32,14.99250375,4,2,3,,,,,,,,4,03,,,,,,,,,,,1,5.736,0,,,,,,-0.381481481,-0.238888889,1,0,0,5.7355,Andesite_rect,2,0,2,0,1,
654a9787b481c48995414b44,SCN,2024-06-24_14h33.09.204,LearnStrategy,2023.2.3,Win32,14.99250375,4,2,4,,,,,,,,2,02,,,,,,,,,,,2,1.441,1,,,,,,-0.133333333,-0.237037037,1,0,0,1.4409,Basalt_rect,3,0,3,0,1,
654a9787b481c48995414b44,SCN,2024-06-24_14h33.09.204,LearnStrategy,2023.2.3,Win32,14.99250375,4,2,5,,,,,,,,8,10,,,,,,,,,,,8,2.867,1,,,,,,0.40462963,-0.402777778,1,0,0,2.8669,Pumice_rect,4,0,4,0,1,
654a9787b481c48995414b44,SCN,2024-06-24_14h33.09.204,LearnStrategy,2023.2.3,Win32,14.99250375,4,2,6,,,,,,,,1,10,,,,,,,,,,,2,7.478,0,,,,,,-0.156481481,-0.241666667,1,0,0,7.4782,Basalt_rect,5,0,5,0,1,
654a9787b481c48995414b44,SCN,2024-06-24_14h33.09.204,LearnStrategy,2023.2.3,Win32,14.99250375,4,2,7,,,,,,,,6,03,,,,,,,,,,,6,1.863,1,,,,,,-0.136111111,-0.392592593,1,0,0,1.863,Pegmatite_rect,6,0,6,0,1,
654a9787b481c48995414b44,SCN,2024-06-24_14h33.09.204,LearnStrategy,2023.2.3,Win32,14.99250375,4,2,8,,,,,,,,7,16,,,,,,,,,,,7,1.548,1,,,,,,0.141666667,-0.391666667,1,0,0,1.548,Peridotite_rect,7,0,7,0,1,
654a9787b481c48995414b44,SCN,2024-06-24_14h33.09.204,LearnStrategy,2023.2.3,Win32,14.99250375,4,2,9,,,,,,,,8,15,,,,,,,,,,,8,1.237,1,,,,,,0.415740741,-0.380555556,1,0,0,1.2366,Pumice_rect,8,0,8,0,1,
654a9787b481c48995414b44,SCN,2024-06-24_14h33.09.204,LearnStrategy,2023.2.3,Win32,14.99250375,4,2,10,,,,,,,,6,09,,,,,,,,,,,6,2.281,1,,,,,,-0.137962963,-0.398148148,1,0,0,2.2815,Pegmatite_rect,9,0,9,0,1,
654a9787b481c48995414b44,SCN,2024-06-24_14h33.09.204,LearnStrategy,2023.2.3,Win32,14.99250375,4,2,11,,,,,,,,2,05,,,,,,,,,,,2,3.275,1,,,,,,-0.143518519,-0.251851852,1,0,0,3.2751,Basalt_rect,10,0,10,0,1,
654a9787b481c48995414b44,SCN,2024-06-24_14h33.09.204,LearnStrategy,2023.2.3,Win32,14.99250375,4,2,12,,,,,,,,3,13,,,,,,,,,,,3,1.974,1,,,,,,0.178703704,-0.240740741,1,0,0,1.9742,Diorite_rect,11,0,11,0,1,
654a9787b481c48995414b44,SCN,2024-06-24_14h33.09.204,LearnStrategy,2023.2.3,Win32,14.99250375,4,2,13,,,,,,,,1,07,,,,,,,,,,,3,2.556,0,,,,,,0.153703704,-0.25,1,0,0,2.5563,Diorite_rect,12,0,12,0,1,
654a9787b481c48995414b44,SCN,2024-06-24_14h33.09.204,LearnStrategy,2023.2.3,Win32,14.99250375,4,2,14,,,,,,,,7,04,,,,,,,,,,,7,4.212,1,,,,,,0.140740741,-0.390740741,1,0,0,4.2118,Peridotite_rect,13,0,13,0,1,
654a9787b481c48995414b44,SCN,2024-06-24_14h33.09.204,LearnStrategy,2023.2.3,Win32,14.99250375,4,2,15,,,,,,,,3,09,,,,,,,,,,,3,3.245,1,,,,,,0.100925926,-0.235185185,1,0,0,3.2445,Diorite_rect,14,0,14,0,1,
654a9787b481c48995414b44,SCN,2024-06-24_14h33.09.204,LearnStrategy,2023.2.3,Win32,14.99250375,4,2,16,,,,,,,,5,04,,,,,,,,,,,5,1.15,1,,,,,,-0.415740741,-0.407407407,1,0,0,1.1497,Obsidian_rect,15,0,15,0,1,
654a9787b481c48995414b44,SCN,2024-06-24_14h33.09.204,LearnStrategy,2023.2.3,Win32,14.99250375,5,1,1,-0.398148148,0.402777778,1,0,0,3.5601,Peridotite_08,7,08,6,2,3.56,0.17037037,-0.415740741,1,0,0,1.7723,Peridotite_rect,7,1.772,1,0,0,0,0,1,,,,,,,,,,,,,
654a9787b481c48995414b44,SCN,2024-06-24_14h33.09.204,LearnStrategy,2023.2.3,Win32,14.99250375,5,1,2,-0.240740741,0.417592593,1,0,0,1.6307,Gabbro_12,4,12,6,3,1.631,0.387037037,-0.251851852,1,0,0,2.0502,Gabbro_rect,4,2.05,1,1,0,1,0,1,,,,,,,,,,,,,
654a9787b481c48995414b44,SCN,2024-06-24_14h33.09.204,LearnStrategy,2023.2.3,Win32,14.99250375,5,1,3,-0.525,0.419444444,1,0,0,1.2862,Andesite_05,1,05,6,1,1.286,-0.401851852,-0.255555556,1,0,0,2.3329,Andesite_rect,1,2.333,1,2,0,2,0,1,,,,,,,,,,,,,
654a9787b481c48995414b44,SCN,2024-06-24_14h33.09.204,LearnStrategy,2023.2.3,Win32,14.99250375,5,1,4,0.557407407,0.412037037,1,0,0,1.6433,Andesite_11,1,11,6,8,1.643,-0.402777778,-0.240740741,1,0,0,4.2062,Andesite_rect,1,4.206,1,3,0,3,0,1,,,,,,,,,,,,,
654a9787b481c48995414b44,SCN,2024-06-24_14h33.09.204,LearnStrategy,2023.2.3,Win32,14.99250375,5,1,5,0.263888889,0.239814815,1,0,0,4.1659,Gabbro_01,4,01,5,6,4.166,0.163888889,-0.416666667,1,0,0,1.2827,Peridotite_rect,7,1.283,0,4,0,4,0,1,,,,,,,,,,,,,
654a9787b481c48995414b44,SCN,2024-06-24_14h33.09.204,LearnStrategy,2023.2.3,Win32,14.99250375,5,1,6,-0.083333333,0.077777778,1,0,0,3.4929,Andesite_16,1,16,4,4,3.493,-0.372222222,-0.228703704,1,0,0,1.6573,Andesite_rect,1,1.657,1,5,0,5,0,1,,,,,,,,,,,,,
654a9787b481c48995414b44,SCN,2024-06-24_14h33.09.204,LearnStrategy,2023.2.3,Win32,14.99250375,5,1,7,0.078703704,-0.106481481,1,0,0,3.0372,Basalt_11,2,11,3,5,3.037,-0.162962963,-0.255555556,1,0,0,1.5855,Basalt_rect,2,1.585,1,6,0,6,0,1,,,,,,,,,,,,,
654a9787b481c48995414b44,SCN,2024-06-24_14h33.09.204,LearnStrategy,2023.2.3,Win32,14.99250375,5,1,8,0.074074074,-0.274074074,1,0,0,2.0829,Andesite_06,1,06,2,5,2.083,-0.402777778,-0.24537037,1,0,0,2.3544,Andesite_rect,1,2.354,1,7,0,7,0,1,,,,,,,,,,,,,
654a9787b481c48995414b44,SCN,2024-06-24_14h33.09.204,LearnStrategy,2023.2.3,Win32,14.99250375,5,1,9,0.233333333,-0.42962963,1,0,0,1.6216,Andesite_04,1,04,1,6,1.622,0.123148148,-0.237962963,1,0,0,1.1024,Diorite_rect,3,1.102,0,8,0,8,0,1,,,,,,,,,,,,,
654a9787b481c48995414b44,SCN,2024-06-24_14h33.09.204,LearnStrategy,2023.2.3,Win32,14.99250375,5,1,10,0.078703704,-0.407407407,1,0,0,2.1042,Gabbro_11,4,11,1,5,2.104,-0.114814815,-0.249074074,1,0,0,1.3904,Basalt_rect,2,1.39,0,9,0,9,0,1,,,,,,,,,,,,,
654a9787b481c48995414b44,SCN,2024-06-24_14h33.09.204,LearnStrategy,2023.2.3,Win32,14.99250375,5,1,11,0.514814815,-0.222222222,1,0,0,3.121,Basalt_04,2,04,2,8,3.121,-0.137962963,-0.250925926,1,0,0,1.1209,Basalt_rect,2,1.121,1,10,0,10,0,1,,,,,,,,,,,,,
654a9787b481c48995414b44,SCN,2024-06-24_14h33.09.204,LearnStrategy,2023.2.3,Win32,14.99250375,5,1,12,0.542592593,0.262962963,1,0,0,2.0969,Peridotite_02,7,02,5,8,2.097,0.113888889,-0.401851852,1,0,0,1.7855,Peridotite_rect,7,1.786,1,11,0,11,0,1,,,,,,,,,,,,,
654a9787b481c48995414b44,SCN,2024-06-24_14h33.09.204,LearnStrategy,2023.2.3,Win32,14.99250375,5,1,13,-0.577777778,0.228703704,1,0,0,1.4211,Peridotite_14,7,14,5,1,1.421,0.097222222,-0.397222222,1,0,0,1.8934,Peridotite_rect,7,1.893,1,12,0,12,0,1,,,,,,,,,,,,,
654a9787b481c48995414b44,SCN,2024-06-24_14h33.09.204,LearnStrategy,2023.2.3,Win32,14.99250375,5,1,14,-0.393518519,-0.098148148,1,0,0,3.9042,Diorite_12,3,12,3,2,3.904,0.15,-0.248148148,1,0,0,2.4475,Diorite_rect,3,2.447,1,13,0,13,0,1,,,,,,,,,,,,,
654a9787b481c48995414b44,SCN,2024-06-24_14h33.09.204,LearnStrategy,2023.2.3,Win32,14.99250375,5,1,15,-0.413888889,0.225,1,0,0,3.4382,Diorite_15,3,15,5,2,3.438,0.130555556,-0.248148148,1,0,0,2.2637,Diorite_rect,3,2.264,1,14,0,14,0,1,,,,,,,,,,,,,
654a9787b481c48995414b44,SCN,2024-06-24_14h33.09.204,LearnStrategy,2023.2.3,Win32,14.99250375,5,1,16,0.382407407,0.244444444,1,0,0,2.0555,Pegmatite_07,6,07,5,7,2.056,-0.15462963,-0.412037037,1,0,0,2.813,Pegmatite_rect,6,2.813,1,15,0,15,0,1,,,,,,,,,,,,,
654a9787b481c48995414b44,SCN,2024-06-24_14h33.09.204,LearnStrategy,2023.2.3,Win32,14.99250375,5,2,1,,,,,,,,4,08,,,,,,,,,,,4,4.18,1,,,,,,0.42037037,-0.248148148,1,0,0,4.1803,Gabbro_rect,0,0,0,0,1,
654a9787b481c48995414b44,SCN,2024-06-24_14h33.09.204,LearnStrategy,2023.2.3,Win32,14.99250375,5,2,2,,,,,,,,5,06,,,,,,,,,,,5,1.456,1,,,,,,-0.373148148,-0.388888889,1,0,0,1.4559,Obsidian_rect,1,0,1,0,1,
654a9787b481c48995414b44,SCN,2024-06-24_14h33.09.204,LearnStrategy,2023.2.3,Win32,14.99250375,5,2,3,,,,,,,,2,12,,,,,,,,,,,2,13.284,1,,,,,,-0.093518519,-0.249074074,1,0,0,13.2839,Basalt_rect,2,0,2,0,1,
654a9787b481c48995414b44,SCN,2024-06-24_14h33.09.204,LearnStrategy,2023.2.3,Win32,14.99250375,5,2,4,,,,,,,,5,14,,,,,,,,,,,5,1.916,1,,,,,,-0.392592593,-0.4,1,0,0,1.9159,Obsidian_rect,3,0,3,0,1,
654a9787b481c48995414b44,SCN,2024-06-24_14h33.09.204,LearnStrategy,2023.2.3,Win32,14.99250375,5,2,5,,,,,,,,6,08,,,,,,,,,,,6,1.957,1,,,,,,-0.139814815,-0.402777778,1,0,0,1.9572,Pegmatite_rect,4,0,4,0,1,
654a9787b481c48995414b44,SCN,2024-06-24_14h33.09.204,LearnStrategy,2023.2.3,Win32,14.99250375,5,2,6,,,,,,,,8,08,,,,,,,,,,,8,1.398,1,,,,,,0.415740741,-0.393518519,1,0,0,1.3982,Pumice_rect,5,0,5,0,1,
654a9787b481c48995414b44,SCN,2024-06-24_14h33.09.204,LearnStrategy,2023.2.3,Win32,14.99250375,5,2,7,,,,,,,,1,09,,,,,,,,,,,1,4.06,1,,,,,,-0.37962963,-0.243518519,1,0,0,4.0597,Andesite_rect,6,0,6,0,1,
654a9787b481c48995414b44,SCN,2024-06-24_14h33.09.204,LearnStrategy,2023.2.3,Win32,14.99250375,5,2,8,,,,,,,,2,08,,,,,,,,,,,2,1.769,1,,,,,,-0.146296296,-0.250925926,1,0,0,1.7691,Basalt_rect,7,0,7,0,1,
654a9787b481c48995414b44,SCN,2024-06-24_14h33.09.204,LearnStrategy,2023.2.3,Win32,14.99250375,5,2,9,,,,,,,,7,05,,,,,,,,,,,7,2.522,1,,,,,,0.12037037,-0.403703704,1,0,0,2.522,Peridotite_rect,8,0,8,0,1,
654a9787b481c48995414b44,SCN,2024-06-24_14h33.09.204,LearnStrategy,2023.2.3,Win32,14.99250375,5,2,10,,,,,,,,3,11,,,,,,,,,,,3,1.128,1,,,,,,0.133333333,-0.252777778,1,0,0,1.1284,Diorite_rect,9,0,9,0,1,
654a9787b481c48995414b44,SCN,2024-06-24_14h33.09.204,LearnStrategy,2023.2.3,Win32,14.99250375,5,2,11,,,,,,,,1,01,,,,,,,,,,,3,2.846,0,,,,,,0.166666667,-0.252777778,1,0,0,2.8461,Diorite_rect,10,0,10,0,1,
654a9787b481c48995414b44,SCN,2024-06-24_14h33.09.204,LearnStrategy,2023.2.3,Win32,14.99250375,5,2,12,,,,,,,,3,06,,,,,,,,,,,1,1.556,0,,,,,,-0.402777778,-0.263888889,1,0,0,1.5562,Andesite_rect,11,0,11,0,1,
654a9787b481c48995414b44,SCN,2024-06-24_14h33.09.204,LearnStrategy,2023.2.3,Win32,14.99250375,5,2,13,,,,,,,,8,03,,,,,,,,,,,8,1.412,1,,,,,,0.424074074,-0.393518519,1,0,0,1.4121,Pumice_rect,12,0,12,0,1,
654a9787b481c48995414b44,SCN,2024-06-24_14h33.09.204,LearnStrategy,2023.2.3,Win32,14.99250375,5,2,14,,,,,,,,6,12,,,,,,,,,,,6,2.271,1,,,,,,-0.135185185,-0.397222222,1,0,0,2.271,Pegmatite_rect,13,0,13,0,1,
654a9787b481c48995414b44,SCN,2024-06-24_14h33.09.204,LearnStrategy,2023.2.3,Win32,14.99250375,5,2,15,,,,,,,,4,10,,,,,,,,,,,4,1.722,1,,,,,,0.406481481,-0.236111111,1,0,0,1.7218,Gabbro_rect,14,0,14,0,1,
654a9787b481c48995414b44,SCN,2024-06-24_14h33.09.204,LearnStrategy,2023.2.3,Win32,14.99250375,5,2,16,,,,,,,,7,15,,,,,,,,,,,7,1.283,1,,,,,,0.122222222,-0.407407407,1,0,0,1.2833,Peridotite_rect,15,0,15,0,1,
654a9787b481c48995414b44,SCN,2024-06-24_14h33.09.204,LearnStrategy,2023.2.3,Win32,14.99250375,6,1,1,-0.230555556,0.399074074,1,0,0,5.6506,Gabbro_12,4,12,6,3,5.651,0.386111111,-0.242592593,1,0,0,1.2768,Gabbro_rect,4,1.277,1,0,0,0,0,1,,,,,,,,,,,,,
654a9787b481c48995414b44,SCN,2024-06-24_14h33.09.204,LearnStrategy,2023.2.3,Win32,14.99250375,6,1,2,-0.376851852,0.390740741,1,0,0,1.3951,Peridotite_08,7,08,6,2,1.395,0.180555556,-0.407407407,1,0,0,1.5579,Peridotite_rect,7,1.558,1,1,0,1,0,1,,,,,,,,,,,,,
654a9787b481c48995414b44,SCN,2024-06-24_14h33.09.204,LearnStrategy,2023.2.3,Win32,14.99250375,6,1,3,-0.093518519,0.415740741,1,0,0,2.0643,Pegmatite_13,6,13,6,4,2.064,0.121296296,-0.256481481,1,0,0,1.7344,Diorite_rect,3,1.734,0,2,0,2,0,1,,,,,,,,,,,,,
654a9787b481c48995414b44,SCN,2024-06-24_14h33.09.204,LearnStrategy,2023.2.3,Win32,14.99250375,6,1,4,0.57037037,0.441666667,1,0,0,2.2355,Andesite_11,1,11,6,8,2.236,-0.361111111,-0.248148148,1,0,0,1.2817,Andesite_rect,1,1.282,1,3,0,3,0,1,,,,,,,,,,,,,
654a9787b481c48995414b44,SCN,2024-06-24_14h33.09.204,LearnStrategy,2023.2.3,Win32,14.99250375,6,1,5,0.396296296,0.24537037,1,0,0,2.58,Pegmatite_07,6,07,5,7,2.58,-0.135185185,-0.401851852,1,0,0,1.5842,Pegmatite_rect,6,1.584,1,4,0,4,0,1,,,,,,,,,,,,,
654a9787b481c48995414b44,SCN,2024-06-24_14h33.09.204,LearnStrategy,2023.2.3,Win32,14.99250375,6,1,6,0.083333333,0.259259259,1,0,0,1.2697,Basalt_09,2,09,5,5,1.27,-0.136111111,-0.252777778,1,0,0,1.3937,Basalt_rect,2,1.394,1,5,0,5,0,1,,,,,,,,,,,,,
654a9787b481c48995414b44,SCN,2024-06-24_14h33.09.204,LearnStrategy,2023.2.3,Win32,14.99250375,6,1,7,-0.40462963,0.227777778,1,0,0,1.8112,Diorite_15,3,15,5,2,1.811,0.135185185,-0.239814815,1,0,0,1.163,Diorite_rect,3,1.163,1,6,0,6,0,1,,,,,,,,,,,,,
654a9787b481c48995414b44,SCN,2024-06-24_14h33.09.204,LearnStrategy,2023.2.3,Win32,14.99250375,6,1,8,-0.55,0.237037037,1,0,0,1.687,Peridotite_14,7,14,5,1,1.687,0.112037037,-0.39537037,1,0,0,2.6028,Peridotite_rect,7,2.603,1,7,0,7,0,1,,,,,,,,,,,,,
654a9787b481c48995414b44,SCN,2024-06-24_14h33.09.204,LearnStrategy,2023.2.3,Win32,14.99250375,6,1,9,-0.062037037,-0.106481481,1,0,0,3.7063,Gabbro_14,4,14,3,4,3.706,0.37037037,-0.246296296,1,0,0,2.4174,Gabbro_rect,4,2.417,1,8,0,8,0,1,,,,,,,,,,,,,
654a9787b481c48995414b44,SCN,2024-06-24_14h33.09.204,LearnStrategy,2023.2.3,Win32,14.99250375,6,1,10,0.534259259,-0.262037037,1,0,0,2.7794,Basalt_04,2,04,2,8,2.779,-0.126851852,-0.231481481,1,0,0,1.9098,Basalt_rect,2,1.91,1,9,0,9,0,1,,,,,,,,,,,,,
654a9787b481c48995414b44,SCN,2024-06-24_14h33.09.204,LearnStrategy,2023.2.3,Win32,14.99250375,6,1,11,0.243518519,-0.25462963,1,0,0,2.0893,Andesite_02,1,02,2,6,2.089,-0.364814815,-0.249074074,1,0,0,1.9255,Andesite_rect,1,1.926,1,10,0,10,0,1,,,,,,,,,,,,,
654a9787b481c48995414b44,SCN,2024-06-24_14h33.09.204,LearnStrategy,2023.2.3,Win32,14.99250375,6,1,12,0.075925926,-0.266666667,1,0,0,1.6411,Andesite_06,1,06,2,5,1.641,-0.364814815,-0.236111111,1,0,0,2.0525,Andesite_rect,1,2.053,1,11,0,11,0,1,,,,,,,,,,,,,
654a9787b481c48995414b44,SCN,2024-06-24_14h33.09.204,LearnStrategy,2023.2.3,Win32,14.99250375,6,1,13,-0.094444444,-0.269444444,1,0,0,2.3219,Diorite_10,3,10,2,4,2.322,0.134259259,-0.247222222,1,0,0,1.8384,Diorite_rect,3,1.838,1,12,0,12,0,1,,,,,,,,,,,,,
654a9787b481c48995414b44,SCN,2024-06-24_14h33.09.204,LearnStrategy,2023.2.3,Win32,14.99250375,6,1,14,-0.376851852,-0.255555556,1,0,0,1.7837,Basalt_01,2,01,2,2,1.784,-0.109259259,-0.234259259,1,0,0,1.357,Basalt_rect,2,1.357,1,13,0,13,0,1,,,,,,,,,,,,,
654a9787b481c48995414b44,SCN,2024-06-24_14h33.09.204,LearnStrategy,2023.2.3,Win32,14.99250375,6,1,15,-0.534259259,-0.409259259,1,0,0,3.0332,Pumice_02,8,02,1,1,3.033,0.378703704,-0.410185185,1,0,0,2.0817,Pumice_rect,8,2.082,1,14,0,14,0,1,,,,,,,,,,,,,
654a9787b481c48995414b44,SCN,2024-06-24_14h33.09.204,LearnStrategy,2023.2.3,Win32,14.99250375,6,1,16,-0.39537037,-0.40462963,1,0,0,1.8483,Gabbro_09,4,09,1,2,1.848,0.392592593,-0.234259259,1,0,0,2.0247,Gabbro_rect,4,2.025,1,15,0,15,0,1,,,,,,,,,,,,,
654a9787b481c48995414b44,SCN,2024-06-24_14h33.09.204,LearnStrategy,2023.2.3,Win32,14.99250375,6,2,1,,,,,,,,8,06,,,,,,,,,,,8,1.986,1,,,,,,0.388888889,-0.399074074,1,0,0,1.9859,Pumice_rect,0,0,0,0,1,
654a9787b481c48995414b44,SCN,2024-06-24_14h33.09.204,LearnStrategy,2023.2.3,Win32,14.99250375,6,2,2,,,,,,,,6,15,,,,,,,,,,,6,2.129,1,,,,,,-0.140740741,-0.401851852,1,0,0,2.1286,Pegmatite_rect,1,0,1,0,1,
654a9787b481c48995414b44,SCN,2024-06-24_14h33.09.204,LearnStrategy,2023.2.3,Win32,14.99250375,6,2,3,,,,,,,,3,07,,,,,,,,,,,3,2.168,1,,,,,,0.150925926,-0.250925926,1,0,0,2.1677,Diorite_rect,2,0,2,0,1,
654a9787b481c48995414b44,SCN,2024-06-24_14h33.09.204,LearnStrategy,2023.2.3,Win32,14.99250375,6,2,4,,,,,,,,7,10,,,,,,,,,,,7,1.424,1,,,,,,0.133333333,-0.415740741,1,0,0,1.4241,Peridotite_rect,3,0,3,0,1,
654a9787b481c48995414b44,SCN,2024-06-24_14h33.09.204,LearnStrategy,2023.2.3,Win32,14.99250375,6,2,5,,,,,,,,2,16,,,,,,,,,,,4,6.742,0,,,,,,0.40462963,-0.257407407,1,0,0,6.7422,Gabbro_rect,4,0,4,0,1,
654a9787b481c48995414b44,SCN,2024-06-24_14h33.09.204,LearnStrategy,2023.2.3,Win32,14.99250375,6,2,6,,,,,,,,8,04,,,,,,,,,,,8,1.247,1,,,,,,0.380555556,-0.406481481,1,0,0,1.2467,Pumice_rect,5,0,5,0,1,
654a9787b481c48995414b44,SCN,2024-06-24_14h33.09.204,LearnStrategy,2023.2.3,Win32,14.99250375,6,2,7,,,,,,,,7,13,,,,,,,,,,,7,1.799,1,,,,,,0.131481481,-0.399074074,1,0,0,1.7991,Peridotite_rect,6,0,6,0,1,
654a9787b481c48995414b44,SCN,2024-06-24_14h33.09.204,LearnStrategy,2023.2.3,Win32,14.99250375,6,2,8,,,,,,,,3,16,,,,,,,,,,,1,5.624,0,,,,,,-0.400925926,-0.253703704,1,0,0,5.6241,Andesite_rect,7,0,7,0,1,
654a9787b481c48995414b44,SCN,2024-06-24_14h33.09.204,LearnStrategy,2023.2.3,Win32,14.99250375,6,2,9,,,,,,,,5,10,,,,,,,,,,,5,2.523,1,,,,,,-0.393518519,-0.397222222,1,0,0,2.5227,Obsidian_rect,8,0,8,0,1,
654a9787b481c48995414b44,SCN,2024-06-24_14h33.09.204,LearnStrategy,2023.2.3,Win32,14.99250375,6,2,10,,,,,,,,4,05,,,,,,,,,,,7,7.167,0,,,,,,0.165740741,-0.408333333,1,0,0,7.1666,Peridotite_rect,9,0,9,0,1,
654a9787b481c48995414b44,SCN,2024-06-24_14h33.09.204,LearnStrategy,2023.2.3,Win32,14.99250375,6,2,11,,,,,,,,1,03,,,,,,,,,,,1,1.578,1,,,,,,-0.383333333,-0.257407407,1,0,0,1.5775,Andesite_rect,10,0,10,0,1,
654a9787b481c48995414b44,SCN,2024-06-24_14h33.09.204,LearnStrategy,2023.2.3,Win32,14.99250375,6,2,12,,,,,,,,1,14,,,,,,,,,,,1,5.047,1,,,,,,-0.362037037,-0.24537037,1,0,0,5.0467,Andesite_rect,11,0,11,0,1,
654a9787b481c48995414b44,SCN,2024-06-24_14h33.09.204,LearnStrategy,2023.2.3,Win32,14.99250375,6,2,13,,,,,,,,5,12,,,,,,,,,,,5,1.269,1,,,,,,-0.375,-0.405555556,1,0,0,1.2694,Obsidian_rect,12,0,12,0,1,
654a9787b481c48995414b44,SCN,2024-06-24_14h33.09.204,LearnStrategy,2023.2.3,Win32,14.99250375,6,2,14,,,,,,,,4,15,,,,,,,,,,,3,1.886,0,,,,,,0.131481481,-0.242592593,1,0,0,1.8861,Diorite_rect,13,0,13,0,1,
654a9787b481c48995414b44,SCN,2024-06-24_14h33.09.204,LearnStrategy,2023.2.3,Win32,14.99250375,6,2,15,,,,,,,,6,06,,,,,,,,,,,6,1.723,1,,,,,,-0.118518519,-0.396296296,1,0,0,1.7229,Pegmatite_rect,14,0,14,0,1,
654a9787b481c48995414b44,SCN,2024-06-24_14h33.09.204,LearnStrategy,2023.2.3,Win32,14.99250375,6,2,16,,,,,,,,2,06,,,,,,,,,,,2,3.067,1,,,,,,-0.136111111,-0.253703704,1,0,0,3.0674,Basalt_rect,15,0,15,0,1,
654a9787b481c48995414b44,SCN,2024-06-24_14h33.09.204,LearnStrategy,2023.2.3,Win32,14.99250375,7,1,1,0.557407407,-0.246296296,1,0,0,3.4389,Basalt_04,2,04,2,8,3.439,-0.144444444,-0.237962963,1,0,0,2.4788,Basalt_rect,2,2.479,1,0,0,0,0,1,,,,,,,,,,,,,
654a9787b481c48995414b44,SCN,2024-06-24_14h33.09.204,LearnStrategy,2023.2.3,Win32,14.99250375,7,1,2,-0.373148148,-0.262037037,1,0,0,3.7699,Basalt_01,2,01,2,2,3.77,-0.102777778,-0.237962963,1,0,0,1.3843,Basalt_rect,2,1.384,1,1,0,1,0,1,,,,,,,,,,,,,
654a9787b481c48995414b44,SCN,2024-06-24_14h33.09.204,LearnStrategy,2023.2.3,Win32,14.99250375,7,1,3,0.078703704,0.25,1,0,0,2.2554,Basalt_09,2,09,5,5,2.255,-0.107407407,-0.251851852,1,0,0,1.1153,Basalt_rect,2,1.115,1,2,0,2,0,1,,,,,,,,,,,,,
654a9787b481c48995414b44,SCN,2024-06-24_14h33.09.204,LearnStrategy,2023.2.3,Win32,14.99250375,7,1,4,-0.244444444,0.423148148,1,0,0,4.1519,Gabbro_12,4,12,6,3,4.152,0.380555556,-0.246296296,1,0,0,1.5219,Gabbro_rect,4,1.522,1,3,0,3,0,1,,,,,,,,,,,,,
654a9787b481c48995414b44,SCN,2024-06-24_14h33.09.204,LearnStrategy,2023.2.3,Win32,14.99250375,7,1,5,-0.087962963,0.419444444,1,0,0,2.6326,Pegmatite_13,6,13,6,4,2.633,-0.136111111,-0.415740741,1,0,0,1.7195,Pegmatite_rect,6,1.719,1,4,0,4,0,1,,,,,,,,,,,,,
654a9787b481c48995414b44,SCN,2024-06-24_14h33.09.204,LearnStrategy,2023.2.3,Win32,14.99250375,7,1,6,0.25462963,0.244444444,1,0,0,7.5654,Gabbro_01,4,01,5,6,7.565,0.40462963,-0.257407407,1,0,0,3.1358,Gabbro_rect,4,3.136,1,5,0,5,0,1,,,,,,,,,,,,,
654a9787b481c48995414b44,SCN,2024-06-24_14h33.09.204,LearnStrategy,2023.2.3,Win32,14.99250375,7,1,7,0.387037037,0.258333333,1,0,0,1.5448,Pegmatite_07,6,07,5,7,1.545,-0.139814815,-0.411111111,1,0,0,1.3936,Pegmatite_rect,6,1.394,1,6,0,6,0,1,,,,,,,,,,,,,
654a9787b481c48995414b44,SCN,2024-06-24_14h33.09.204,LearnStrategy,2023.2.3,Win32,14.99250375,7,1,8,0.567592593,0.268518519,1,0,0,1.3875,Peridotite_02,7,02,5,8,1.388,0.12037037,-0.412037037,1,0,0,1.2959,Peridotite_rect,7,1.296,1,7,0,7,0,1,,,,,,,,,,,,,
654a9787b481c48995414b44,SCN,2024-06-24_14h33.09.204,LearnStrategy,2023.2.3,Win32,14.99250375,7,1,9,0.392592593,0.090740741,1,0,0,5.417,Peridotite_12,7,12,4,7,5.417,0.137037037,-0.418518519,1,0,0,3.4915,Peridotite_rect,7,3.492,1,8,0,8,0,1,,,,,,,,,,,,,
654a9787b481c48995414b44,SCN,2024-06-24_14h33.09.204,LearnStrategy,2023.2.3,Win32,14.99250375,7,1,10,0.405555556,-0.115740741,1,0,0,1.9124,Pegmatite_05,6,05,3,7,1.912,-0.126851852,-0.400925926,1,0,0,2.4461,Pegmatite_rect,6,2.446,1,9,0,9,0,1,,,,,,,,,,,,,
654a9787b481c48995414b44,SCN,2024-06-24_14h33.09.204,LearnStrategy,2023.2.3,Win32,14.99250375,7,1,11,0.074074074,-0.094444444,1,0,0,2.9169,Basalt_11,2,11,3,5,2.917,-0.142592593,-0.24537037,1,0,0,1.2888,Basalt_rect,2,1.289,1,10,0,10,0,1,,,,,,,,,,,,,
654a9787b481c48995414b44,SCN,2024-06-24_14h33.09.204,LearnStrategy,2023.2.3,Win32,14.99250375,7,1,12,-0.076851852,-0.124074074,1,0,0,1.5254,Gabbro_14,4,14,3,4,1.525,0.403703704,-0.257407407,1,0,0,3.2653,Gabbro_rect,4,3.265,1,11,0,11,0,1,,,,,,,,,,,,,
654a9787b481c48995414b44,SCN,2024-06-24_14h33.09.204,LearnStrategy,2023.2.3,Win32,14.99250375,7,1,13,-0.424074074,-0.101851852,1,0,0,1.6548,Diorite_12,3,12,3,2,1.655,0.142592593,-0.265740741,1,0,0,1.1466,Diorite_rect,3,1.147,1,12,0,12,0,1,,,,,,,,,,,,,
654a9787b481c48995414b44,SCN,2024-06-24_14h33.09.204,LearnStrategy,2023.2.3,Win32,14.99250375,7,1,14,-0.068518519,-0.262962963,1,0,0,3.7343,Diorite_10,3,10,2,4,3.734,0.136111111,-0.230555556,1,0,0,1.2805,Diorite_rect,3,1.28,1,13,0,13,0,1,,,,,,,,,,,,,
654a9787b481c48995414b44,SCN,2024-06-24_14h33.09.204,LearnStrategy,2023.2.3,Win32,14.99250375,7,1,15,0.253703704,-0.25,1,0,0,2.2196,Andesite_02,1,02,2,6,2.22,-0.42962963,-0.248148148,1,0,0,2.0528,Andesite_rect,1,2.053,1,14,0,14,0,1,,,,,,,,,,,,,
654a9787b481c48995414b44,SCN,2024-06-24_14h33.09.204,LearnStrategy,2023.2.3,Win32,14.99250375,7,1,16,0.533333333,-0.424074074,1,0,0,2.4858,Pegmatite_11,6,11,1,8,2.486,-0.157407407,-0.390740741,1,0,0,2.0691,Pegmatite_rect,6,2.069,1,15,0,15,0,1,,,,,,,,,,,,,
654a9787b481c48995414b44,SCN,2024-06-24_14h33.09.204,LearnStrategy,2023.2.3,Win32,14.99250375,7,2,1,,,,,,,,5,06,,,,,,,,,,,5,1.381,1,,,,,,-0.384259259,-0.397222222,1,0,0,1.3813,Obsidian_rect,0,0,0,0,1,
654a9787b481c48995414b44,SCN,2024-06-24_14h33.09.204,LearnStrategy,2023.2.3,Win32,14.99250375,7,2,2,,,,,,,,2,16,,,,,,,,,,,4,7.168,0,,,,,,0.415740741,-0.241666667,1,0,0,7.168,Gabbro_rect,1,0,1,0,1,
654a9787b481c48995414b44,SCN,2024-06-24_14h33.09.204,LearnStrategy,2023.2.3,Win32,14.99250375,7,2,3,,,,,,,,7,05,,,,,,,,,,,7,1.432,1,,,,,,0.106481481,-0.400925926,1,0,0,1.4323,Peridotite_rect,2,0,2,0,1,
654a9787b481c48995414b44,SCN,2024-06-24_14h33.09.204,LearnStrategy,2023.2.3,Win32,14.99250375,7,2,4,,,,,,,,8,10,,,,,,,,,,,8,1.258,1,,,,,,0.406481481,-0.40462963,1,0,0,1.2576,Pumice_rect,3,0,3,0,1,
654a9787b481c48995414b44,SCN,2024-06-24_14h33.09.204,LearnStrategy,2023.2.3,Win32,14.99250375,7,2,5,,,,,,,,4,10,,,,,,,,,,,4,2.605,1,,,,,,0.380555556,-0.249074074,1,0,0,2.6051,Gabbro_rect,4,0,4,0,1,
654a9787b481c48995414b44,SCN,2024-06-24_14h33.09.204,LearnStrategy,2023.2.3,Win32,14.99250375,7,2,6,,,,,,,,6,06,,,,,,,,,,,6,2.024,1,,,,,,-0.119444444,-0.399074074,1,0,0,2.0239,Pegmatite_rect,5,0,5,0,1,
654a9787b481c48995414b44,SCN,2024-06-24_14h33.09.204,LearnStrategy,2023.2.3,Win32,14.99250375,7,2,7,,,,,,,,2,08,,,,,,,,,,,2,1.885,1,,,,,,-0.134259259,-0.252777778,1,0,0,1.8852,Basalt_rect,6,0,6,0,1,
654a9787b481c48995414b44,SCN,2024-06-24_14h33.09.204,LearnStrategy,2023.2.3,Win32,14.99250375,7,2,8,,,,,,,,3,11,,,,,,,,,,,3,1.257,1,,,,,,0.143518519,-0.24537037,1,0,0,1.2568,Diorite_rect,7,0,7,0,1,
654a9787b481c48995414b44,SCN,2024-06-24_14h33.09.204,LearnStrategy,2023.2.3,Win32,14.99250375,7,2,9,,,,,,,,8,08,,,,,,,,,,,8,1.402,1,,,,,,0.402777778,-0.394444444,1,0,0,1.4022,Pumice_rect,8,0,8,0,1,
654a9787b481c48995414b44,SCN,2024-06-24_14h33.09.204,LearnStrategy,2023.2.3,Win32,14.99250375,7,2,10,,,,,,,,5,10,,,,,,,,,,,5,1.286,1,,,,,,-0.380555556,-0.391666667,1,0,0,1.2863,Obsidian_rect,9,0,9,0,1,
654a9787b481c48995414b44,SCN,2024-06-24_14h33.09.204,LearnStrategy,2023.2.3,Win32,14.99250375,7,2,11,,,,,,,,3,13,,,,,,,,,,,3,1.86,1,,,,,,0.160185185,-0.239814815,1,0,0,1.8595,Diorite_rect,10,0,10,0,1,
654a9787b481c48995414b44,SCN,2024-06-24_14h33.09.204,LearnStrategy,2023.2.3,Win32,14.99250375,7,2,12,,,,,,,,7,10,,,,,,,,,,,7,1.304,1,,,,,,0.138888889,-0.389814815,1,0,0,1.3041,Peridotite_rect,11,0,11,0,1,
654a9787b481c48995414b44,SCN,2024-06-24_14h33.09.204,LearnStrategy,2023.2.3,Win32,14.99250375,7,2,13,,,,,,,,6,15,,,,,,,,,,,6,1.12,1,,,,,,-0.136111111,-0.403703704,1,0,0,1.1198,Pegmatite_rect,12,0,12,0,1,
654a9787b481c48995414b44,SCN,2024-06-24_14h33.09.204,LearnStrategy,2023.2.3,Win32,14.99250375,7,2,14,,,,,,,,1,10,,,,,,,,,,,4,3.063,0,,,,,,0.382407407,-0.250925926,1,0,0,3.0634,Gabbro_rect,13,0,13,0,1,
654a9787b481c48995414b44,SCN,2024-06-24_14h33.09.204,LearnStrategy,2023.2.3,Win32,14.99250375,7,2,15,,,,,,,,1,14,,,,,,,,,,,1,1.601,1,,,,,,-0.415740741,-0.249074074,1,0,0,1.6009,Andesite_rect,14,0,14,0,1,
654a9787b481c48995414b44,SCN,2024-06-24_14h33.09.204,LearnStrategy,2023.2.3,Win32,14.99250375,7,2,16,,,,,,,,4,13,,,,,,,,,,,3,2.026,0,,,,,,0.114814815,-0.261111111,1,0,0,2.0258,Diorite_rect,15,0,15,0,1,
654a9787b481c48995414b44,SCN,2024-06-24_14h33.09.204,LearnStrategy,2023.2.3,Win32,14.99250375,8,1,1,0.235185185,0.081481481,1,0,0,1.9388,Diorite_02,3,02,4,6,1.939,0.148148148,-0.249074074,1,0,0,1.1159,Diorite_rect,3,1.116,1,0,0,0,0,1,,,,,,,,,,,,,
654a9787b481c48995414b44,SCN,2024-06-24_14h33.09.204,LearnStrategy,2023.2.3,Win32,14.99250375,8,1,2,-0.389814815,-0.423148148,1,0,0,2.4833,Gabbro_09,4,09,1,2,2.483,0.42037037,-0.251851852,1,0,0,1.9786,Gabbro_rect,4,1.979,1,1,0,1,0,1,,,,,,,,,,,,,
654a9787b481c48995414b44,SCN,2024-06-24_14h33.09.204,LearnStrategy,2023.2.3,Win32,14.99250375,8,1,3,-0.250925926,-0.432407407,1,0,0,1.3977,Basalt_14,2,14,1,3,1.398,0.413888889,-0.411111111,1,0,0,2.2717,Pumice_rect,8,2.272,0,2,0,2,0,1,,,,,,,,,,,,,
654a9787b481c48995414b44,SCN,2024-06-24_14h33.09.204,LearnStrategy,2023.2.3,Win32,14.99250375,8,1,4,-0.080555556,-0.426851852,1,0,0,1.2792,Pegmatite_16,6,16,1,4,1.279,-0.119444444,-0.393518519,1,0,0,1.2761,Pegmatite_rect,6,1.276,1,3,0,3,0,1,,,,,,,,,,,,,
654a9787b481c48995414b44,SCN,2024-06-24_14h33.09.204,LearnStrategy,2023.2.3,Win32,14.99250375,8,1,5,-0.576851852,-0.412037037,1,0,0,1.665,Pumice_02,8,02,1,1,1.665,0.397222222,-0.403703704,1,0,0,1.1184,Pumice_rect,8,1.118,1,4,0,4,0,1,,,,,,,,,,,,,
654a9787b481c48995414b44,SCN,2024-06-24_14h33.09.204,LearnStrategy,2023.2.3,Win32,14.99250375,8,1,6,0.407407407,0.101851852,1,0,0,5.677,Peridotite_12,7,12,4,7,5.677,0.109259259,-0.391666667,1,0,0,1.7484,Peridotite_rect,7,1.748,1,5,0,5,0,1,,,,,,,,,,,,,
654a9787b481c48995414b44,SCN,2024-06-24_14h33.09.204,LearnStrategy,2023.2.3,Win32,14.99250375,8,1,7,0.559259259,0.423148148,1,0,0,5.0562,Andesite_11,1,11,6,8,5.056,-0.388888889,-0.260185185,1,0,0,1.2656,Andesite_rect,1,1.266,1,6,0,6,0,1,,,,,,,,,,,,,
654a9787b481c48995414b44,SCN,2024-06-24_14h33.09.204,LearnStrategy,2023.2.3,Win32,14.99250375,8,1,8,0.534259259,0.099074074,1,0,0,1.5065,Pumice_14,8,14,4,8,1.506,0.412037037,-0.401851852,1,0,0,1.1352,Pumice_rect,8,1.135,1,7,0,7,0,1,,,,,,,,,,,,,
654a9787b481c48995414b44,SCN,2024-06-24_14h33.09.204,LearnStrategy,2023.2.3,Win32,14.99250375,8,1,9,0.086111111,-0.094444444,1,0,0,1.6345,Basalt_11,2,11,3,5,1.634,-0.115740741,-0.24537037,1,0,0,0.9706,Basalt_rect,2,0.971,1,8,0,8,0,1,,,,,,,,,,,,,
654a9787b481c48995414b44,SCN,2024-06-24_14h33.09.204,LearnStrategy,2023.2.3,Win32,14.99250375,8,1,10,0.408333333,-0.115740741,1,0,0,0.9637,Pegmatite_05,6,05,3,7,0.964,-0.098148148,-0.387962963,1,0,0,1.0934,Pegmatite_rect,6,1.093,1,9,0,9,0,1,,,,,,,,,,,,,
654a9787b481c48995414b44,SCN,2024-06-24_14h33.09.204,LearnStrategy,2023.2.3,Win32,14.99250375,8,1,11,-0.065740741,0.258333333,1,0,0,0.9948,Pumice_16,8,16,5,4,0.995,0.381481481,-0.389814815,1,0,0,1.7948,Pumice_rect,8,1.795,1,10,0,10,0,1,,,,,,,,,,,,,
654a9787b481c48995414b44,SCN,2024-06-24_14h33.09.204,LearnStrategy,2023.2.3,Win32,14.99250375,8,1,12,0.255555556,-0.263888889,1,0,0,0.9659,Andesite_02,1,02,2,6,0.966,-0.334259259,-0.25462963,1,0,0,1.3472,Andesite_rect,1,1.347,1,11,0,11,0,1,,,,,,,,,,,,,
654a9787b481c48995414b44,SCN,2024-06-24_14h33.09.204,LearnStrategy,2023.2.3,Win32,14.99250375,8,1,13,-0.525,0.400925926,1,0,0,0.9625,Andesite_05,1,05,6,1,0.962,-0.375,-0.27037037,1,0,0,3.5437,Andesite_rect,1,3.544,1,12,0,12,0,1,,,,,,,,,,,,,
654a9787b481c48995414b44,SCN,2024-06-24_14h33.09.204,LearnStrategy,2023.2.3,Win32,14.99250375,8,1,14,0.24537037,0.244444444,1,0,0,3.8947,Gabbro_01,4,01,5,6,3.895,0.146296296,-0.40462963,1,0,0,1.4696,Peridotite_rect,7,1.47,0,13,0,13,0,1,,,,,,,,,,,,,
654a9787b481c48995414b44,SCN,2024-06-24_14h33.09.204,LearnStrategy,2023.2.3,Win32,14.99250375,8,1,15,-0.05,0.083333333,1,0,0,5.4956,Andesite_16,1,16,4,4,5.496,0.144444444,-0.386111111,1,0,0,1.8181,Peridotite_rect,7,1.818,0,14,0,14,0,1,,,,,,,,,,,,,
654a9787b481c48995414b44,SCN,2024-06-24_14h33.09.204,LearnStrategy,2023.2.3,Win32,14.99250375,8,1,16,0.252777778,0.233333333,1,0,0,5.5972,Gabbro_01,4,01,5,6,5.597,-0.350925926,-0.27037037,1,0,0,1.3233,Andesite_rect,1,1.323,0,15,0,15,0,1,,,,,,,,,,,,,
654a9787b481c48995414b44,SCN,2024-06-24_14h33.09.204,LearnStrategy,2023.2.3,Win32,14.99250375,8,2,1,,,,,,,,4,15,,,,,,,,,,,3,1.326,0,,,,,,0.124074074,-0.258333333,1,0,0,1.3264,Diorite_rect,0,0,0,0,1,
654a9787b481c48995414b44,SCN,2024-06-24_14h33.09.204,LearnStrategy,2023.2.3,Win32,14.99250375,8,2,2,,,,,,,,8,03,,,,,,,,,,,8,1.123,1,,,,,,0.405555556,-0.398148148,1,0,0,1.123,Pumice_rect,1,0,1,0,1,
654a9787b481c48995414b44,SCN,2024-06-24_14h33.09.204,LearnStrategy,2023.2.3,Win32,14.99250375,8,2,3,,,,,,,,3,07,,,,,,,,,,,3,2.791,1,,,,,,0.147222222,-0.250925926,1,0,0,2.7912,Diorite_rect,2,0,2,0,1,
654a9787b481c48995414b44,SCN,2024-06-24_14h33.09.204,LearnStrategy,2023.2.3,Win32,14.99250375,8,2,4,,,,,,,,7,15,,,,,,,,,,,7,1.419,1,,,,,,0.128703704,-0.411111111,1,0,0,1.4195,Peridotite_rect,3,0,3,0,1,
654a9787b481c48995414b44,SCN,2024-06-24_14h33.09.204,LearnStrategy,2023.2.3,Win32,14.99250375,8,2,5,,,,,,,,8,04,,,,,,,,,,,8,1.123,1,,,,,,0.389814815,-0.386111111,1,0,0,1.123,Pumice_rect,4,0,4,0,1,
654a9787b481c48995414b44,SCN,2024-06-24_14h33.09.204,LearnStrategy,2023.2.3,Win32,14.99250375,8,2,6,,,,,,,,6,09,,,,,,,,,,,6,1.503,1,,,,,,-0.086111111,-0.419444444,1,0,0,1.5034,Pegmatite_rect,5,0,5,0,1,
654a9787b481c48995414b44,SCN,2024-06-24_14h33.09.204,LearnStrategy,2023.2.3,Win32,14.99250375,8,2,7,,,,,,,,3,06,,,,,,,,,,,3,9.998,1,,,,,,0.146296296,-0.243518519,1,0,0,9.9978,Diorite_rect,6,0,6,0,1,
654a9787b481c48995414b44,SCN,2024-06-24_14h33.09.204,LearnStrategy,2023.2.3,Win32,14.99250375,8,2,8,,,,,,,,5,02,,,,,,,,,,,5,1.646,1,,,,,,-0.394444444,-0.390740741,1,0,0,1.6459,Obsidian_rect,7,0,7,0,1,
654a9787b481c48995414b44,SCN,2024-06-24_14h33.09.204,LearnStrategy,2023.2.3,Win32,14.99250375,8,2,9,,,,,,,,2,12,,,,,,,,,,,2,3.892,1,,,,,,-0.12037037,-0.239814815,1,0,0,3.8917,Basalt_rect,8,0,8,0,1,
654a9787b481c48995414b44,SCN,2024-06-24_14h33.09.204,LearnStrategy,2023.2.3,Win32,14.99250375,8,2,10,,,,,,,,1,09,,,,,,,,,,,1,3.68,1,,,,,,-0.402777778,-0.241666667,1,0,0,3.6796,Andesite_rect,9,0,9,0,1,
654a9787b481c48995414b44,SCN,2024-06-24_14h33.09.204,LearnStrategy,2023.2.3,Win32,14.99250375,8,2,11,,,,,,,,5,14,,,,,,,,,,,5,1.117,1,,,,,,-0.409259259,-0.399074074,1,0,0,1.1171,Obsidian_rect,10,0,10,0,1,
654a9787b481c48995414b44,SCN,2024-06-24_14h33.09.204,LearnStrategy,2023.2.3,Win32,14.99250375,8,2,12,,,,,,,,2,02,,,,,,,,,,,2,2.007,1,,,,,,-0.138888889,-0.235185185,1,0,0,2.007,Basalt_rect,11,0,11,0,1,
654a9787b481c48995414b44,SCN,2024-06-24_14h33.09.204,LearnStrategy,2023.2.3,Win32,14.99250375,8,2,13,,,,,,,,1,01,,,,,,,,,,,3,1.445,0,,,,,,0.160185185,-0.256481481,1,0,0,1.4449,Diorite_rect,12,0,12,0,1,
654a9787b481c48995414b44,SCN,2024-06-24_14h33.09.204,LearnStrategy,2023.2.3,Win32,14.99250375,8,2,14,,,,,,,,6,12,,,,,,,,,,,6,1.733,1,,,,,,-0.153703704,-0.388888889,1,0,0,1.7332,Pegmatite_rect,13,0,13,0,1,
654a9787b481c48995414b44,SCN,2024-06-24_14h33.09.204,LearnStrategy,2023.2.3,Win32,14.99250375,8,2,15,,,,,,,,4,08,,,,,,,,,,,4,1.444,1,,,,,,0.397222222,-0.233333333,1,0,0,1.4438,Gabbro_rect,14,0,14,0,1,
654a9787b481c48995414b44,SCN,2024-06-24_14h33.09.204,LearnStrategy,2023.2.3,Win32,14.99250375,8,2,16,,,,,,,,7,13,,,,,,,,,,,7,1.15,1,,,,,,0.131481481,-0.387037037,1,0,0,1.1501,Peridotite_rect,15,0,15,0,1,
654a9787b481c48995414b44,SCN,2024-06-24_14h33.09.204,LearnStrategy,2023.2.3,Win32,14.99250375,9,1,1,-0.09537037,-0.268518519,1,0,0,1.802,Diorite_10,3,10,2,4,1.802,0.116666667,-0.232407407,1,0,0,1.2636,Diorite_rect,3,1.264,1,0,0,0,0,1,,,,,,,,,,,,,
654a9787b481c48995414b44,SCN,2024-06-24_14h33.09.204,LearnStrategy,2023.2.3,Win32,14.99250375,9,1,2,-0.243518519,0.25,1,0,0,1.3964,Obsidian_05,5,05,5,3,1.396,0.165740741,-0.246296296,1,0,0,1.0147,Diorite_rect,3,1.015,0,1,0,1,0,1,,,,,,,,,,,,,
654a9787b481c48995414b44,SCN,2024-06-24_14h33.09.204,LearnStrategy,2023.2.3,Win32,14.99250375,9,1,3,-0.559259259,0.098148148,1,0,0,5.281,Diorite_08,3,08,4,1,5.281,0.139814815,-0.256481481,1,0,0,1.104,Diorite_rect,3,1.104,1,2,0,2,0,1,,,,,,,,,,,,,
654a9787b481c48995414b44,SCN,2024-06-24_14h33.09.204,LearnStrategy,2023.2.3,Win32,14.99250375,9,1,4,0.418518519,-0.266666667,1,0,0,3.6206,Diorite_14,3,14,2,7,3.621,0.143518519,-0.259259259,1,0,0,0.8554,Diorite_rect,3,0.855,1,3,0,3,0,1,,,,,,,,,,,,,
654a9787b481c48995414b44,SCN,2024-06-24_14h33.09.204,LearnStrategy,2023.2.3,Win32,14.99250375,9,1,5,0.397222222,0.090740741,1,0,0,2.4124,Peridotite_12,7,12,4,7,2.412,0.116666667,-0.398148148,1,0,0,2.9669,Peridotite_rect,7,2.967,1,4,0,4,0,1,,,,,,,,,,,,,
654a9787b481c48995414b44,SCN,2024-06-24_14h33.09.204,LearnStrategy,2023.2.3,Win32,14.99250375,9,1,6,0.250925926,0.108333333,1,0,0,1.63,Diorite_02,3,02,4,6,1.63,0.138888889,-0.258333333,1,0,0,0.9945,Diorite_rect,3,0.995,1,5,0,5,0,1,,,,,,,,,,,,,
654a9787b481c48995414b44,SCN,2024-06-24_14h33.09.204,LearnStrategy,2023.2.3,Win32,14.99250375,9,1,7,0.053703704,0.243518519,1,0,0,2.0523,Basalt_09,2,09,5,5,2.052,-0.126851852,-0.25462963,1,0,0,1.662,Basalt_rect,2,1.662,1,6,0,6,0,1,,,,,,,,,,,,,
654a9787b481c48995414b44,SCN,2024-06-24_14h33.09.204,LearnStrategy,2023.2.3,Win32,14.99250375,9,1,8,-0.232407407,-0.412037037,1,0,0,1.4133,Basalt_14,2,14,1,3,1.413,0.367592593,-0.235185185,1,0,0,2.4303,Gabbro_rect,4,2.43,0,7,0,7,0,1,,,,,,,,,,,,,
654a9787b481c48995414b44,SCN,2024-06-24_14h33.09.204,LearnStrategy,2023.2.3,Win32,14.99250375,9,1,9,-0.4,-0.423148148,1,0,0,1.6387,Gabbro_09,4,09,1,2,1.639,0.385185185,-0.267592593,1,0,0,1.6793,Gabbro_rect,4,1.679,1,8,0,8,0,1,,,,,,,,,,,,,
654a9787b481c48995414b44,SCN,2024-06-24_14h33.09.204,LearnStrategy,2023.2.3,Win32,14.99250375,9,1,10,0.399074074,-0.401851852,1,0,0,3.6973,Peridotite_07,7,07,1,7,3.697,0.131481481,-0.384259259,1,0,0,2.8751,Peridotite_rect,7,2.875,1,9,0,9,0,1,,,,,,,,,,,,,
654a9787b481c48995414b44,SCN,2024-06-24_14h33.09.204,LearnStrategy,2023.2.3,Win32,14.99250375,9,1,11,0.075925926,0.415740741,1,0,0,3.5989,Basalt_10,2,10,6,5,3.599,-0.134259259,-0.264814815,1,0,0,1.2754,Basalt_rect,2,1.275,1,10,0,10,0,1,,,,,,,,,,,,,
654a9787b481c48995414b44,SCN,2024-06-24_14h33.09.204,LearnStrategy,2023.2.3,Win32,14.99250375,9,1,12,-0.256481481,0.422222222,1,0,0,1.9597,Gabbro_12,4,12,6,3,1.96,0.387962963,-0.253703704,1,0,0,2.6125,Gabbro_rect,4,2.613,1,11,0,11,0,1,,,,,,,,,,,,,
654a9787b481c48995414b44,SCN,2024-06-24_14h33.09.204,LearnStrategy,2023.2.3,Win32,14.99250375,9,1,13,-0.393518519,0.412962963,1,0,0,1.3889,Peridotite_08,7,08,6,2,1.389,0.136111111,-0.39537037,1,0,0,2.2206,Peridotite_rect,7,2.221,1,12,0,12,0,1,,,,,,,,,,,,,
654a9787b481c48995414b44,SCN,2024-06-24_14h33.09.204,LearnStrategy,2023.2.3,Win32,14.99250375,9,1,14,-0.383333333,0.240740741,1,0,0,3.1553,Diorite_15,3,15,5,2,3.155,0.139814815,-0.237962963,1,0,0,1.1098,Diorite_rect,3,1.11,1,13,0,13,0,1,,,,,,,,,,,,,
654a9787b481c48995414b44,SCN,2024-06-24_14h33.09.204,LearnStrategy,2023.2.3,Win32,14.99250375,9,1,15,-0.537037037,0.232407407,1,0,0,3.0308,Peridotite_14,7,14,5,1,3.031,0.132407407,-0.398148148,1,0,0,2.1145,Peridotite_rect,7,2.114,1,14,0,14,0,1,,,,,,,,,,,,,
654a9787b481c48995414b44,SCN,2024-06-24_14h33.09.204,LearnStrategy,2023.2.3,Win32,14.99250375,9,1,16,0.552777778,0.262037037,1,0,0,1.8005,Peridotite_02,7,02,5,8,1.8,0.144444444,-0.412037037,1,0,0,1.2486,Peridotite_rect,7,1.249,1,15,0,15,0,1,,,,,,,,,,,,,
654a9787b481c48995414b44,SCN,2024-06-24_14h33.09.204,LearnStrategy,2023.2.3,Win32,14.99250375,9,2,1,,,,,,,,2,06,,,,,,,,,,,2,3.257,1,,,,,,-0.116666667,-0.243518519,1,0,0,3.2572,Basalt_rect,0,0,0,0,1,
654a9787b481c48995414b44,SCN,2024-06-24_14h33.09.204,LearnStrategy,2023.2.3,Win32,14.99250375,9,2,2,,,,,,,,4,03,,,,,,,,,,,4,2.447,1,,,,,,0.408333333,-0.257407407,1,0,0,2.447,Gabbro_rect,1,0,1,0,1,
654a9787b481c48995414b44,SCN,2024-06-24_14h33.09.204,LearnStrategy,2023.2.3,Win32,14.99250375,9,2,3,,,,,,,,5,04,,,,,,,,,,,5,1.691,1,,,,,,-0.408333333,-0.393518519,1,0,0,1.6908,Obsidian_rect,2,0,2,0,1,
654a9787b481c48995414b44,SCN,2024-06-24_14h33.09.204,LearnStrategy,2023.2.3,Win32,14.99250375,9,2,4,,,,,,,,7,16,,,,,,,,,,,7,1.421,1,,,,,,0.134259259,-0.4,1,0,0,1.4214,Peridotite_rect,3,0,3,0,1,
654a9787b481c48995414b44,SCN,2024-06-24_14h33.09.204,LearnStrategy,2023.2.3,Win32,14.99250375,9,2,5,,,,,,,,6,08,,,,,,,,,,,6,1.789,1,,,,,,-0.140740741,-0.400925926,1,0,0,1.789,Pegmatite_rect,4,0,4,0,1,
654a9787b481c48995414b44,SCN,2024-06-24_14h33.09.204,LearnStrategy,2023.2.3,Win32,14.99250375,9,2,6,,,,,,,,2,05,,,,,,,,,,,2,2.055,1,,,,,,-0.109259259,-0.247222222,1,0,0,2.0545,Basalt_rect,5,0,5,0,1,
654a9787b481c48995414b44,SCN,2024-06-24_14h33.09.204,LearnStrategy,2023.2.3,Win32,14.99250375,9,2,7,,,,,,,,1,03,,,,,,,,,,,1,1.423,1,,,,,,-0.371296296,-0.238888889,1,0,0,1.4228,Andesite_rect,6,0,6,0,1,
654a9787b481c48995414b44,SCN,2024-06-24_14h33.09.204,LearnStrategy,2023.2.3,Win32,14.99250375,9,2,8,,,,,,,,8,06,,,,,,,,,,,8,2.008,1,,,,,,0.381481481,-0.4,1,0,0,2.0079,Pumice_rect,7,0,7,0,1,
654a9787b481c48995414b44,SCN,2024-06-24_14h33.09.204,LearnStrategy,2023.2.3,Win32,14.99250375,9,2,9,,,,,,,,3,09,,,,,,,,,,,3,1.597,1,,,,,,0.126851852,-0.251851852,1,0,0,1.5969,Diorite_rect,8,0,8,0,1,
654a9787b481c48995414b44,SCN,2024-06-24_14h33.09.204,LearnStrategy,2023.2.3,Win32,14.99250375,9,2,10,,,,,,,,5,12,,,,,,,,,,,5,1.681,1,,,,,,-0.366666667,-0.391666667,1,0,0,1.6806,Obsidian_rect,9,0,9,0,1,
654a9787b481c48995414b44,SCN,2024-06-24_14h33.09.204,LearnStrategy,2023.2.3,Win32,14.99250375,9,2,11,,,,,,,,3,16,,,,,,,,,,,3,1.262,1,,,,,,0.090740741,-0.251851852,1,0,0,1.2623,Diorite_rect,10,0,10,0,1,
654a9787b481c48995414b44,SCN,2024-06-24_14h33.09.204,LearnStrategy,2023.2.3,Win32,14.99250375,9,2,12,,,,,,,,1,07,,,,,,,,,,,1,3.112,1,,,,,,-0.397222222,-0.248148148,1,0,0,3.1116,Andesite_rect,11,0,11,0,1,
654a9787b481c48995414b44,SCN,2024-06-24_14h33.09.204,LearnStrategy,2023.2.3,Win32,14.99250375,9,2,13,,,,,,,,4,05,,,,,,,,,,,7,2.817,0,,,,,,0.108333333,-0.414814815,1,0,0,2.8168,Peridotite_rect,12,0,12,0,1,
654a9787b481c48995414b44,SCN,2024-06-24_14h33.09.204,LearnStrategy,2023.2.3,Win32,14.99250375,9,2,14,,,,,,,,6,03,,,,,,,,,,,6,2.319,1,,,,,,-0.119444444,-0.399074074,1,0,0,2.3192,Pegmatite_rect,13,0,13,0,1,
654a9787b481c48995414b44,SCN,2024-06-24_14h33.09.204,LearnStrategy,2023.2.3,Win32,14.99250375,9,2,15,,,,,,,,7,04,,,,,,,,,,,7,4.901,1,,,,,,0.125925926,-0.402777778,1,0,0,4.9007,Peridotite_rect,14,0,14,0,1,
654a9787b481c48995414b44,SCN,2024-06-24_14h33.09.204,LearnStrategy,2023.2.3,Win32,14.99250375,9,2,16,,,,,,,,8,15,,,,,,,,,,,8,3.54,1,,,,,,0.396296296,-0.389814815,1,0,0,3.54,Pumice_rect,15,0,15,0,1,
654a9787b481c48995414b44,SCN,2024-06-24_14h33.09.204,LearnStrategy,2023.2.3,Win32,14.99250375,,,,,,,,,,,,,,,,,,,,,,,,,,,,,,,,,,,,,,,,,,,1
654a9787b481c48995414b44,SCN,2024-06-24_14h33.09.204,LearnStrategy,2023.2.3,Win32,14.99250375,,,,,,,,,,,,,,,,,,,,,,,,,,,,,,,,,,,,,,,,,,,
654a9787b481c48995414b44,SCN,2024-06-24_14h33.09.204,LearnStrategy,2023.2.3,Win32,14.99250375,,,,,,,,,,,8,02,1,1,,,,,,,,,,,,,,,,,,,,,,,,,,,,,
654a9787b481c48995414b44,SCN,2024-06-24_14h33.09.204,LearnStrategy,2023.2.3,Win32,14.99250375,,,,,,,,,,,4,09,1,2,,,,,,,,,,,,,,,,,,,,,,,,,,,,,
654a9787b481c48995414b44,SCN,2024-06-24_14h33.09.204,LearnStrategy,2023.2.3,Win32,14.99250375,,,,,,,,,,,2,14,1,3,,,,,,,,,,,,,,,,,,,,,,,,,,,,,
654a9787b481c48995414b44,SCN,2024-06-24_14h33.09.204,LearnStrategy,2023.2.3,Win32,14.99250375,,,,,,,,,,,6,16,1,4,,,,,,,,,,,,,,,,,,,,,,,,,,,,,
654a9787b481c48995414b44,SCN,2024-06-24_14h33.09.204,LearnStrategy,2023.2.3,Win32,14.99250375,,,,,,,,,,,4,11,1,5,,,,,,,,,,,,,,,,,,,,,,,,,,,,,
654a9787b481c48995414b44,SCN,2024-06-24_14h33.09.204,LearnStrategy,2023.2.3,Win32,14.99250375,,,,,,,,,,,1,04,1,6,,,,,,,,,,,,,,,,,,,,,,,,,,,,,
654a9787b481c48995414b44,SCN,2024-06-24_14h33.09.204,LearnStrategy,2023.2.3,Win32,14.99250375,,,,,,,,,,,7,07,1,7,,,,,,,,,,,,,,,,,,,,,,,,,,,,,
654a9787b481c48995414b44,SCN,2024-06-24_14h33.09.204,LearnStrategy,2023.2.3,Win32,14.99250375,,,,,,,,,,,6,11,1,8,,,,,,,,,,,,,,,,,,,,,,,,,,,,,
654a9787b481c48995414b44,SCN,2024-06-24_14h33.09.204,LearnStrategy,2023.2.3,Win32,14.99250375,,,,,,,,,,,7,06,2,1,,,,,,,,,,,,,,,,,,,,,,,,,,,,,
654a9787b481c48995414b44,SCN,2024-06-24_14h33.09.204,LearnStrategy,2023.2.3,Win32,14.99250375,,,,,,,,,,,2,01,2,2,,,,,,,,,,,,,,,,,,,,,,,,,,,,,
654a9787b481c48995414b44,SCN,2024-06-24_14h33.09.204,LearnStrategy,2023.2.3,Win32,14.99250375,,,,,,,,,,,5,11,2,3,,,,,,,,,,,,,,,,,,,,,,,,,,,,,
654a9787b481c48995414b44,SCN,2024-06-24_14h33.09.204,LearnStrategy,2023.2.3,Win32,14.99250375,,,,,,,,,,,3,10,2,4,,,,,,,,,,,,,,,,,,,,,,,,,,,,,
654a9787b481c48995414b44,SCN,2024-06-24_14h33.09.204,LearnStrategy,2023.2.3,Win32,14.99250375,,,,,,,,,,,1,06,2,5,,,,,,,,,,,,,,,,,,,,,,,,,,,,,
654a9787b481c48995414b44,SCN,2024-06-24_14h33.09.204,LearnStrategy,2023.2.3,Win32,14.99250375,,,,,,,,,,,1,02,2,6,,,,,,,,,,,,,,,,,,,,,,,,,,,,,
654a9787b481c48995414b44,SCN,2024-06-24_14h33.09.204,LearnStrategy,2023.2.3,Win32,14.99250375,,,,,,,,,,,3,14,2,7,,,,,,,,,,,,,,,,,,,,,,,,,,,,,
654a9787b481c48995414b44,SCN,2024-06-24_14h33.09.204,LearnStrategy,2023.2.3,Win32,14.99250375,,,,,,,,,,,2,04,2,8,,,,,,,,,,,,,,,,,,,,,,,,,,,,,
654a9787b481c48995414b44,SCN,2024-06-24_14h33.09.204,LearnStrategy,2023.2.3,Win32,14.99250375,,,,,,,,,,,5,08,3,1,,,,,,,,,,,,,,,,,,,,,,,,,,,,,
654a9787b481c48995414b44,SCN,2024-06-24_14h33.09.204,LearnStrategy,2023.2.3,Win32,14.99250375,,,,,,,,,,,3,12,3,2,,,,,,,,,,,,,,,,,,,,,,,,,,,,,
654a9787b481c48995414b44,SCN,2024-06-24_14h33.09.204,LearnStrategy,2023.2.3,Win32,14.99250375,,,,,,,,,,,8,13,3,3,,,,,,,,,,,,,,,,,,,,,,,,,,,,,
654a9787b481c48995414b44,SCN,2024-06-24_14h33.09.204,LearnStrategy,2023.2.3,Win32,14.99250375,,,,,,,,,,,4,14,3,4,,,,,,,,,,,,,,,,,,,,,,,,,,,,,
654a9787b481c48995414b44,SCN,2024-06-24_14h33.09.204,LearnStrategy,2023.2.3,Win32,14.99250375,,,,,,,,,,,2,11,3,5,,,,,,,,,,,,,,,,,,,,,,,,,,,,,
654a9787b481c48995414b44,SCN,2024-06-24_14h33.09.204,LearnStrategy,2023.2.3,Win32,14.99250375,,,,,,,,,,,5,09,3,6,,,,,,,,,,,,,,,,,,,,,,,,,,,,,
654a9787b481c48995414b44,SCN,2024-06-24_14h33.09.204,LearnStrategy,2023.2.3,Win32,14.99250375,,,,,,,,,,,6,05,3,7,,,,,,,,,,,,,,,,,,,,,,,,,,,,,
654a9787b481c48995414b44,SCN,2024-06-24_14h33.09.204,LearnStrategy,2023.2.3,Win32,14.99250375,,,,,,,,,,,5,16,3,8,,,,,,,,,,,,,,,,,,,,,,,,,,,,,
654a9787b481c48995414b44,SCN,2024-06-24_14h33.09.204,LearnStrategy,2023.2.3,Win32,14.99250375,,,,,,,,,,,3,08,4,1,,,,,,,,,,,,,,,,,,,,,,,,,,,,,
654a9787b481c48995414b44,SCN,2024-06-24_14h33.09.204,LearnStrategy,2023.2.3,Win32,14.99250375,,,,,,,,,,,4,16,4,2,,,,,,,,,,,,,,,,,,,,,,,,,,,,,
654a9787b481c48995414b44,SCN,2024-06-24_14h33.09.204,LearnStrategy,2023.2.3,Win32,14.99250375,,,,,,,,,,,6,10,4,3,,,,,,,,,,,,,,,,,,,,,,,,,,,,,
654a9787b481c48995414b44,SCN,2024-06-24_14h33.09.204,LearnStrategy,2023.2.3,Win32,14.99250375,,,,,,,,,,,1,16,4,4,,,,,,,,,,,,,,,,,,,,,,,,,,,,,
654a9787b481c48995414b44,SCN,2024-06-24_14h33.09.204,LearnStrategy,2023.2.3,Win32,14.99250375,,,,,,,,,,,8,09,4,5,,,,,,,,,,,,,,,,,,,,,,,,,,,,,
654a9787b481c48995414b44,SCN,2024-06-24_14h33.09.204,LearnStrategy,2023.2.3,Win32,14.99250375,,,,,,,,,,,3,02,4,6,,,,,,,,,,,,,,,,,,,,,,,,,,,,,
654a9787b481c48995414b44,SCN,2024-06-24_14h33.09.204,LearnStrategy,2023.2.3,Win32,14.99250375,,,,,,,,,,,7,12,4,7,,,,,,,,,,,,,,,,,,,,,,,,,,,,,
654a9787b481c48995414b44,SCN,2024-06-24_14h33.09.204,LearnStrategy,2023.2.3,Win32,14.99250375,,,,,,,,,,,8,14,4,8,,,,,,,,,,,,,,,,,,,,,,,,,,,,,
654a9787b481c48995414b44,SCN,2024-06-24_14h33.09.204,LearnStrategy,2023.2.3,Win32,14.99250375,,,,,,,,,,,7,14,5,1,,,,,,,,,,,,,,,,,,,,,,,,,,,,,
654a9787b481c48995414b44,SCN,2024-06-24_14h33.09.204,LearnStrategy,2023.2.3,Win32,14.99250375,,,,,,,,,,,3,15,5,2,,,,,,,,,,,,,,,,,,,,,,,,,,,,,
654a9787b481c48995414b44,SCN,2024-06-24_14h33.09.204,LearnStrategy,2023.2.3,Win32,14.99250375,,,,,,,,,,,5,05,5,3,,,,,,,,,,,,,,,,,,,,,,,,,,,,,
654a9787b481c48995414b44,SCN,2024-06-24_14h33.09.204,LearnStrategy,2023.2.3,Win32,14.99250375,,,,,,,,,,,8,16,5,4,,,,,,,,,,,,,,,,,,,,,,,,,,,,,
654a9787b481c48995414b44,SCN,2024-06-24_14h33.09.204,LearnStrategy,2023.2.3,Win32,14.99250375,,,,,,,,,,,2,09,5,5,,,,,,,,,,,,,,,,,,,,,,,,,,,,,
654a9787b481c48995414b44,SCN,2024-06-24_14h33.09.204,LearnStrategy,2023.2.3,Win32,14.99250375,,,,,,,,,,,4,01,5,6,,,,,,,,,,,,,,,,,,,,,,,,,,,,,
654a9787b481c48995414b44,SCN,2024-06-24_14h33.09.204,LearnStrategy,2023.2.3,Win32,14.99250375,,,,,,,,,,,6,07,5,7,,,,,,,,,,,,,,,,,,,,,,,,,,,,,
654a9787b481c48995414b44,SCN,2024-06-24_14h33.09.204,LearnStrategy,2023.2.3,Win32,14.99250375,,,,,,,,,,,7,02,5,8,,,,,,,,,,,,,,,,,,,,,,,,,,,,,
654a9787b481c48995414b44,SCN,2024-06-24_14h33.09.204,LearnStrategy,2023.2.3,Win32,14.99250375,,,,,,,,,,,1,05,6,1,,,,,,,,,,,,,,,,,,,,,,,,,,,,,
654a9787b481c48995414b44,SCN,2024-06-24_14h33.09.204,LearnStrategy,2023.2.3,Win32,14.99250375,,,,,,,,,,,7,08,6,2,,,,,,,,,,,,,,,,,,,,,,,,,,,,,
654a9787b481c48995414b44,SCN,2024-06-24_14h33.09.204,LearnStrategy,2023.2.3,Win32,14.99250375,,,,,,,,,,,4,12,6,3,,,,,,,,,,,,,,,,,,,,,,,,,,,,,
654a9787b481c48995414b44,SCN,2024-06-24_14h33.09.204,LearnStrategy,2023.2.3,Win32,14.99250375,,,,,,,,,,,6,13,6,4,,,,,,,,,,,,,,,,,,,,,,,,,,,,,
654a9787b481c48995414b44,SCN,2024-06-24_14h33.09.204,LearnStrategy,2023.2.3,Win32,14.99250375,,,,,,,,,,,2,10,6,5,,,,,,,,,,,,,,,,,,,,,,,,,,,,,
654a9787b481c48995414b44,SCN,2024-06-24_14h33.09.204,LearnStrategy,2023.2.3,Win32,14.99250375,,,,,,,,,,,8,05,6,6,,,,,,,,,,,,,,,,,,,,,,,,,,,,,
654a9787b481c48995414b44,SCN,2024-06-24_14h33.09.204,LearnStrategy,2023.2.3,Win32,14.99250375,,,,,,,,,,,5,07,6,7,,,,,,,,,,,,,,,,,,,,,,,,,,,,,
654a9787b481c48995414b44,SCN,2024-06-24_14h33.09.204,LearnStrategy,2023.2.3,Win32,14.99250375,,,,,,,,,,,1,11,6,8,,,,,,,,,,,,,,,,,,,,,,,,,,,,,