participant,condition,date,expName,psychopyVersion,OS,frameRate,block,phase,trial,learn_mouse_2.x,learn_mouse_2.y,learn_mouse_2.leftButton,learn_mouse_2.midButton,learn_mouse_2.rightButton,learn_mouse_2.time,learn_mouse_2.clicked_name,cat,token,row,col,t_select,cat_mouse_l.x,cat_mouse_l.y,cat_mouse_l.leftButton,cat_mouse_l.midButton,cat_mouse_l.rightButton,cat_mouse_l.time,cat_mouse_l.clicked_name,resp,t_resp,corr,train_trials.thisRepN,train_trials.thisTrialN,train_trials.thisN,train_trials.thisIndex,train_trials.ran,cat_mouse_t.x,cat_mouse_t.y,cat_mouse_t.leftButton,cat_mouse_t.midButton,cat_mouse_t.rightButton,cat_mouse_t.time,cat_mouse_t.clicked_name,test_trials.thisRepN,test_trials.thisTrialN,test_trials.thisN,test_trials.thisIndex,test_trials.ran,Bonus
655a655f62fde845d4789149,TCN,2024-06-20_15h36.18.212,LearnStrategy,2023.2.3,Linux x86_64,59.88023952,,,,,,,,,,,,,,,,,,,,,,,,,,,,,,,,,,,,,,,,,,,
655a655f62fde845d4789149,TCN,2024-06-20_15h36.18.212,LearnStrategy,2023.2.3,Linux x86_64,59.88023952,1,1,1,0.081014492,0.004204291,1,0,0,2.0089,rock_grid_rect_2,6,12,-1,-1,2.009,-0.044086244,-0.245498163,1,0,0,4.957,Basalt_rect,2,4.957,0,0,0,0,0,1,,,,,,,,,,,,,
655a655f62fde845d4789149,TCN,2024-06-20_15h36.18.212,LearnStrategy,2023.2.3,Linux x86_64,59.88023952,1,1,2,-0.008658798,0.001469753,1,0,0,1.6169,rock_grid_rect_2,4,16,-1,-1,1.617,0.162210888,-0.250359005,1,0,0,1.4096,Diorite_rect,3,1.41,0,1,0,1,0,1,,,,,,,,,,,,,
655a655f62fde845d4789149,TCN,2024-06-20_15h36.18.212,LearnStrategy,2023.2.3,Linux x86_64,59.88023952,1,1,3,0.070462262,-0.005880744,1,0,0,1.8151,rock_grid_rect_2,7,08,-1,-1,1.815,-0.162072005,-0.416822787,1,0,0,2.6026,Pegmatite_rect,6,2.603,0,2,0,2,0,1,,,,,,,,,,,,,
655a655f62fde845d4789149,TCN,2024-06-20_15h36.18.212,LearnStrategy,2023.2.3,Linux x86_64,59.88023952,1,1,4,0.026344158,0.000757677,1,0,0,1.8954,rock_grid_rect_2,5,04,-1,-1,1.895,0.384717588,-0.418345911,1,0,0,2.2467,Pumice_rect,8,2.247,0,3,0,3,0,1,,,,,,,,,,,,,
655a655f62fde845d4789149,TCN,2024-06-20_15h36.18.212,LearnStrategy,2023.2.3,Linux x86_64,59.88023952,1,1,5,0.062478101,-0.003893888,1,0,0,1.5644,rock_grid_rect_2,8,04,-1,-1,1.564,-0.367664231,-0.241797483,1,0,0,1.8031,Andesite_rect,1,1.803,0,4,0,4,0,1,,,,,,,,,,,,,
655a655f62fde845d4789149,TCN,2024-06-20_15h36.18.212,LearnStrategy,2023.2.3,Linux x86_64,59.88023952,1,1,6,0.157004604,-0.014923484,1,0,0,1.1317,rock_grid_rect_2,8,02,-1,-1,1.132,-0.035731916,-0.401310038,1,0,0,2.2177,Pegmatite_rect,6,2.218,0,5,0,5,0,1,,,,,,,,,,,,,
655a655f62fde845d4789149,TCN,2024-06-20_15h36.18.212,LearnStrategy,2023.2.3,Linux x86_64,59.88023952,1,1,7,0.140346739,0.007228427,1,0,0,1.4459,rock_grid_rect_2,1,09,-1,-1,1.446,-0.129064701,-0.253315043,1,0,0,1.0302,Basalt_rect,2,1.03,0,6,0,6,0,1,,,,,,,,,,,,,
655a655f62fde845d4789149,TCN,2024-06-20_15h36.18.212,LearnStrategy,2023.2.3,Linux x86_64,59.88023952,1,1,8,-0.028954824,0.003840588,1,0,0,1.3661,rock_grid_rect_2,3,12,-1,-1,1.366,0.408970444,-0.249826996,1,0,0,2.9127,Gabbro_rect,4,2.913,0,7,0,7,0,1,,,,,,,,,,,,,
655a655f62fde845d4789149,TCN,2024-06-20_15h36.18.212,LearnStrategy,2023.2.3,Linux x86_64,59.88023952,1,1,9,-0.022023378,-0.001251044,1,0,0,3.6427,rock_grid_rect_2,1,07,-1,-1,3.643,0.213812298,-0.410350305,1,0,0,2.053,Peridotite_rect,7,2.053,0,8,0,8,0,1,,,,,,,,,,,,,
655a655f62fde845d4789149,TCN,2024-06-20_15h36.18.212,LearnStrategy,2023.2.3,Linux x86_64,59.88023952,1,1,10,-0.045445972,0.018066018,1,0,0,1.1593,rock_grid_rect_2,4,12,-1,-1,1.159,-0.110707389,-0.25145128,1,0,0,1.7519,Basalt_rect,2,1.752,0,9,0,9,0,1,,,,,,,,,,,,,
655a655f62fde845d4789149,TCN,2024-06-20_15h36.18.212,LearnStrategy,2023.2.3,Linux x86_64,59.88023952,1,1,11,-0.049761242,-0.009923829,1,0,0,1.8145,rock_grid_rect_2,3,11,-1,-1,1.815,-0.400977276,-0.399907218,1,0,0,3.9401,Obsidian_rect,5,3.94,0,10,0,10,0,1,,,,,,,,,,,,,
655a655f62fde845d4789149,TCN,2024-06-20_15h36.18.212,LearnStrategy,2023.2.3,Linux x86_64,59.88023952,1,1,12,0.002346957,0.004066679,1,0,0,1.2813,rock_grid_rect_2,2,14,-1,-1,1.281,0.130059913,-0.263481493,1,0,0,1.9541,Diorite_rect,3,1.954,0,11,0,11,0,1,,,,,,,,,,,,,
655a655f62fde845d4789149,TCN,2024-06-20_15h36.18.212,LearnStrategy,2023.2.3,Linux x86_64,59.88023952,1,1,13,-0.031053967,-0.004048771,1,0,0,1.1347,rock_grid_rect_2,6,15,-1,-1,1.135,-0.127004906,-0.379170806,1,0,0,1.9372,Pegmatite_rect,6,1.937,1,12,0,12,0,1,,,,,,,,,,,,,
655a655f62fde845d4789149,TCN,2024-06-20_15h36.18.212,LearnStrategy,2023.2.3,Linux x86_64,59.88023952,1,1,14,0.06868977,0.002163852,1,0,0,1.2377,rock_grid_rect_2,2,04,-1,-1,1.238,0.394914698,-0.265385734,1,0,0,1.3491,Gabbro_rect,4,1.349,0,13,0,13,0,1,,,,,,,,,,,,,
655a655f62fde845d4789149,TCN,2024-06-20_15h36.18.212,LearnStrategy,2023.2.3,Linux x86_64,59.88023952,1,1,15,-0.110295826,-0.008928758,1,0,0,2.0112,rock_grid_rect_2,5,11,-1,-1,2.011,0.388512364,-0.401282346,1,0,0,2.9325,Pumice_rect,8,2.933,0,14,0,14,0,1,,,,,,,,,,,,,
655a655f62fde845d4789149,TCN,2024-06-20_15h36.18.212,LearnStrategy,2023.2.3,Linux x86_64,59.88023952,1,1,16,-0.066757414,-0.004351475,1,0,0,1.0927,rock_grid_rect_2,7,10,-1,-1,1.093,-0.127139833,-0.240022659,1,0,0,1.2641,Basalt_rect,2,1.264,0,15,0,15,0,1,,,,,,,,,,,,,
655a655f62fde845d4789149,TCN,2024-06-20_15h36.18.212,LearnStrategy,2023.2.3,Linux x86_64,59.88023952,1,2,1,,,,,,,,8,14,,,,,,,,,,,7,7.525,0,,,,,,0.173856311,-0.40773865,1,0,0,7.5251,Peridotite_rect,0,0,0,0,1,
655a655f62fde845d4789149,TCN,2024-06-20_15h36.18.212,LearnStrategy,2023.2.3,Linux x86_64,59.88023952,1,2,2,,,,,,,,1,03,,,,,,,,,,,1,8.071,1,,,,,,-0.346849124,-0.23190131,1,0,0,8.0713,Andesite_rect,1,0,1,0,1,
655a655f62fde845d4789149,TCN,2024-06-20_15h36.18.212,LearnStrategy,2023.2.3,Linux x86_64,59.88023952,1,2,3,,,,,,,,8,13,,,,,,,,,,,8,24.592,1,,,,,,0.323630015,-0.406652874,1,0,0,24.5923,Pumice_rect,2,0,2,0,1,
655a655f62fde845d4789149,TCN,2024-06-20_15h36.18.212,LearnStrategy,2023.2.3,Linux x86_64,59.88023952,1,2,4,,,,,,,,3,13,,,,,,,,,,,3,6.911,1,,,,,,0.140508228,-0.255126529,1,0,0,6.9114,Diorite_rect,3,0,3,0,1,
655a655f62fde845d4789149,TCN,2024-06-20_15h36.18.212,LearnStrategy,2023.2.3,Linux x86_64,59.88023952,1,2,5,,,,,,,,3,06,,,,,,,,,,,3,3.574,1,,,,,,0.140508228,-0.255126529,1,0,0,3.574,Diorite_rect,4,0,4,0,1,
655a655f62fde845d4789149,TCN,2024-06-20_15h36.18.212,LearnStrategy,2023.2.3,Linux x86_64,59.88023952,1,2,6,,,,,,,,7,05,,,,,,,,,,,7,13.117,1,,,,,,0.10639551,-0.381599285,1,0,0,13.1165,Peridotite_rect,5,0,5,0,1,
655a655f62fde845d4789149,TCN,2024-06-20_15h36.18.212,LearnStrategy,2023.2.3,Linux x86_64,59.88023952,1,2,7,,,,,,,,6,11,,,,,,,,,,,6,5.728,1,,,,,,-0.109536701,-0.401214529,1,0,0,5.7282,Pegmatite_rect,6,0,6,0,1,
655a655f62fde845d4789149,TCN,2024-06-20_15h36.18.212,LearnStrategy,2023.2.3,Linux x86_64,59.88023952,1,2,8,,,,,,,,1,10,,,,,,,,,,,4,12.228,0,,,,,,0.436824516,-0.233651197,1,0,0,12.2279,Gabbro_rect,7,0,7,0,1,
655a655f62fde845d4789149,TCN,2024-06-20_15h36.18.212,LearnStrategy,2023.2.3,Linux x86_64,59.88023952,1,2,9,,,,,,,,7,14,,,,,,,,,,,1,9.125,0,,,,,,-0.406868193,-0.247280191,1,0,0,9.1248,Andesite_rect,8,0,8,0,1,
655a655f62fde845d4789149,TCN,2024-06-20_15h36.18.212,LearnStrategy,2023.2.3,Linux x86_64,59.88023952,1,2,10,,,,,,,,4,01,,,,,,,,,,,7,6.342,0,,,,,,0.163341593,-0.388633163,1,0,0,6.3425,Peridotite_rect,9,0,9,0,1,
655a655f62fde845d4789149,TCN,2024-06-20_15h36.18.212,LearnStrategy,2023.2.3,Linux x86_64,59.88023952,1,2,11,,,,,,,,4,03,,,,,,,,,,,1,5.083,0,,,,,,-0.322535656,-0.244106646,1,0,0,5.0829,Andesite_rect,10,0,10,0,1,
655a655f62fde845d4789149,TCN,2024-06-20_15h36.18.212,LearnStrategy,2023.2.3,Linux x86_64,59.88023952,1,2,12,,,,,,,,2,01,,,,,,,,,,,2,6.515,1,,,,,,-0.158638566,-0.252885253,1,0,0,6.5149,Basalt_rect,11,0,11,0,1,
655a655f62fde845d4789149,TCN,2024-06-20_15h36.18.212,LearnStrategy,2023.2.3,Linux x86_64,59.88023952,1,2,13,,,,,,,,5,16,,,,,,,,,,,5,7.932,1,,,,,,-0.388194331,-0.381052582,1,0,0,7.9323,Obsidian_rect,12,0,12,0,1,
655a655f62fde845d4789149,TCN,2024-06-20_15h36.18.212,LearnStrategy,2023.2.3,Linux x86_64,59.88023952,1,2,14,,,,,,,,2,16,,,,,,,,,,,8,12.038,0,,,,,,0.384128853,-0.399802243,1,0,0,12.0381,Pumice_rect,13,0,13,0,1,
655a655f62fde845d4789149,TCN,2024-06-20_15h36.18.212,LearnStrategy,2023.2.3,Linux x86_64,59.88023952,1,2,15,,,,,,,,5,08,,,,,,,,,,,5,6.65,1,,,,,,-0.358480701,-0.390683139,1,0,0,6.6503,Obsidian_rect,14,0,14,0,1,
655a655f62fde845d4789149,TCN,2024-06-20_15h36.18.212,LearnStrategy,2023.2.3,Linux x86_64,59.88023952,1,2,16,,,,,,,,6,06,,,,,,,,,,,3,7.405,0,,,,,,0.107760182,-0.233256587,1,0,0,7.4048,Diorite_rect,15,0,15,0,1,
655a655f62fde845d4789149,TCN,2024-06-20_15h36.18.212,LearnStrategy,2023.2.3,Linux x86_64,59.88023952,2,1,1,0.071786315,-0.003259623,1,0,0,2.6626,rock_grid_rect_2,2,02,-1,-1,2.663,-0.073011822,-0.240627713,1,0,0,4.8756,Basalt_rect,2,4.876,1,0,0,0,0,1,,,,,,,,,,,,,
655a655f62fde845d4789149,TCN,2024-06-20_15h36.18.212,LearnStrategy,2023.2.3,Linux x86_64,59.88023952,2,1,2,0.039710857,-0.019691997,1,0,0,1.7194,rock_grid_rect_2,8,09,-1,-1,1.719,0.372806549,-0.400518841,1,0,0,2.6164,Pumice_rect,8,2.616,1,1,0,1,0,1,,,,,,,,,,,,,
655a655f62fde845d4789149,TCN,2024-06-20_15h36.18.212,LearnStrategy,2023.2.3,Linux x86_64,59.88023952,2,1,3,-0.021448559,0.002301569,1,0,0,1.9591,rock_grid_rect_2,7,12,-1,-1,1.959,0.152657968,-0.240174682,1,0,0,3.143,Diorite_rect,3,3.143,0,2,0,2,0,1,,,,,,,,,,,,,
655a655f62fde845d4789149,TCN,2024-06-20_15h36.18.212,LearnStrategy,2023.2.3,Linux x86_64,59.88023952,2,1,4,-0.015867445,-0.00498754,1,0,0,1.4438,rock_grid_rect_2,2,10,-1,-1,1.444,0.343890579,-0.250892286,1,0,0,5.7724,Gabbro_rect,4,5.772,0,3,0,3,0,1,,,,,,,,,,,,,
655a655f62fde845d4789149,TCN,2024-06-20_15h36.18.212,LearnStrategy,2023.2.3,Linux x86_64,59.88023952,2,1,5,-0.13364693,-0.003278167,1,0,0,1.0264,rock_grid_rect_2,4,10,-1,-1,1.026,-0.356109796,-0.240539056,1,0,0,10.2336,Andesite_rect,1,10.234,0,4,0,4,0,1,,,,,,,,,,,,,
655a655f62fde845d4789149,TCN,2024-06-20_15h36.18.212,LearnStrategy,2023.2.3,Linux x86_64,59.88023952,2,1,6,0.065455613,0.001149707,1,0,0,1.7976,rock_grid_rect_2,6,16,-1,-1,1.798,-0.090639185,-0.398893356,1,0,0,7.9989,Pegmatite_rect,6,7.999,1,5,0,5,0,1,,,,,,,,,,,,,
655a655f62fde845d4789149,TCN,2024-06-20_15h36.18.212,LearnStrategy,2023.2.3,Linux x86_64,59.88023952,2,1,7,0.046160168,-0.008016975,1,0,0,1.1092,rock_grid_rect_2,7,02,-1,-1,1.109,-0.107516748,-0.405671791,1,0,0,7.2373,Pegmatite_rect,6,7.237,0,6,0,6,0,1,,,,,,,,,,,,,
655a655f62fde845d4789149,TCN,2024-06-20_15h36.18.212,LearnStrategy,2023.2.3,Linux x86_64,59.88023952,2,1,8,0.052690223,-0.002539176,1,0,0,1.1489,rock_grid_rect_2,5,02,-1,-1,1.149,-0.376681398,-0.398421817,1,0,0,6.325,Obsidian_rect,5,6.325,1,7,0,7,0,1,,,,,,,,,,,,,
655a655f62fde845d4789149,TCN,2024-06-20_15h36.18.212,LearnStrategy,2023.2.3,Linux x86_64,59.88023952,2,1,9,0.09872486,0.002044148,1,0,0,1.1432,rock_grid_rect_2,1,01,-1,-1,1.143,-0.35607458,-0.247133538,1,0,0,5.44,Andesite_rect,1,5.44,1,8,0,8,0,1,,,,,,,,,,,,,
655a655f62fde845d4789149,TCN,2024-06-20_15h36.18.212,LearnStrategy,2023.2.3,Linux x86_64,59.88023952,2,1,10,0.106152005,-0.010834129,1,0,0,1.326,rock_grid_rect_2,4,08,-1,-1,1.326,-0.108200497,-0.254339713,1,0,0,11.6803,Basalt_rect,2,11.68,0,9,0,9,0,1,,,,,,,,,,,,,
655a655f62fde845d4789149,TCN,2024-06-20_15h36.18.212,LearnStrategy,2023.2.3,Linux x86_64,59.88023952,2,1,11,0.011284086,-0.001238328,1,0,0,1.3091,rock_grid_rect_2,8,05,-1,-1,1.309,0.418148323,-0.394485968,1,0,0,1.8061,Pumice_rect,8,1.806,1,10,0,10,0,1,,,,,,,,,,,,,
655a655f62fde845d4789149,TCN,2024-06-20_15h36.18.212,LearnStrategy,2023.2.3,Linux x86_64,59.88023952,2,1,12,0.082064735,-0.011605722,1,0,0,1.2616,rock_grid_rect_2,3,07,-1,-1,1.262,0.110215364,-0.262208656,1,0,0,9.5937,Diorite_rect,3,9.594,1,11,0,11,0,1,,,,,,,,,,,,,
655a655f62fde845d4789149,TCN,2024-06-20_15h36.18.212,LearnStrategy,2023.2.3,Linux x86_64,59.88023952,2,1,13,-0.114846477,0.00093891,1,0,0,9.092,rock_grid_rect_2,6,09,-1,-1,9.092,0.142350868,-0.244065744,1,0,0,10.68,Diorite_rect,3,10.68,0,12,0,12,0,1,,,,,,,,,,,,,
655a655f62fde845d4789149,TCN,2024-06-20_15h36.18.212,LearnStrategy,2023.2.3,Linux x86_64,59.88023952,2,1,14,-0.016112999,-0.013071096,1,0,0,5.1769,rock_grid_rect_2,3,10,-1,-1,5.177,0.190182085,-0.248711409,1,0,0,3.675,Diorite_rect,3,3.675,1,13,0,13,0,1,,,,,,,,,,,,,
655a655f62fde845d4789149,TCN,2024-06-20_15h36.18.212,LearnStrategy,2023.2.3,Linux x86_64,59.88023952,2,1,15,-0.005346722,-0.005220554,1,0,0,3.3765,rock_grid_rect_2,1,05,-1,-1,3.376,-0.345779419,-0.245934875,1,0,0,8.5544,Andesite_rect,1,8.554,1,14,0,14,0,1,,,,,,,,,,,,,
655a655f62fde845d4789149,TCN,2024-06-20_15h36.18.212,LearnStrategy,2023.2.3,Linux x86_64,59.88023952,2,1,16,0.036888334,0.000278367,1,0,0,3.8766,rock_grid_rect_2,5,05,-1,-1,3.877,-0.427516125,-0.387975551,1,0,0,2.3617,Obsidian_rect,5,2.362,1,15,0,15,0,1,,,,,,,,,,,,,
655a655f62fde845d4789149,TCN,2024-06-20_15h36.18.212,LearnStrategy,2023.2.3,Linux x86_64,59.88023952,2,2,1,,,,,,,,4,13,,,,,,,,,,,3,20.582,0,,,,,,0.16714414,-0.236795072,1,0,0,20.582,Diorite_rect,0,0,0,0,1,
655a655f62fde845d4789149,TCN,2024-06-20_15h36.18.212,LearnStrategy,2023.2.3,Linux x86_64,59.88023952,2,2,2,,,,,,,,4,15,,,,,,,,,,,2,7.421,0,,,,,,-0.064076953,-0.254484742,1,0,0,7.4214,Basalt_rect,1,0,1,0,1,
655a655f62fde845d4789149,TCN,2024-06-20_15h36.18.212,LearnStrategy,2023.2.3,Linux x86_64,59.88023952,2,2,3,,,,,,,,2,06,,,,,,,,,,,2,3.018,1,,,,,,-0.102954299,-0.257191693,1,0,0,3.0182,Basalt_rect,2,0,2,0,1,
655a655f62fde845d4789149,TCN,2024-06-20_15h36.18.212,LearnStrategy,2023.2.3,Linux x86_64,59.88023952,2,2,4,,,,,,,,6,10,,,,,,,,,,,3,4.887,0,,,,,,0.115437967,-0.255341636,1,0,0,4.8873,Diorite_rect,3,0,3,0,1,
655a655f62fde845d4789149,TCN,2024-06-20_15h36.18.212,LearnStrategy,2023.2.3,Linux x86_64,59.88023952,2,2,5,,,,,,,,5,06,,,,,,,,,,,5,2.034,1,,,,,,-0.363167374,-0.403897391,1,0,0,2.034,Obsidian_rect,4,0,4,0,1,
655a655f62fde845d4789149,TCN,2024-06-20_15h36.18.212,LearnStrategy,2023.2.3,Linux x86_64,59.88023952,2,2,6,,,,,,,,3,08,,,,,,,,,,,3,8.412,1,,,,,,0.058541333,-0.246021341,1,0,0,8.412,Diorite_rect,5,0,5,0,1,
655a655f62fde845d4789149,TCN,2024-06-20_15h36.18.212,LearnStrategy,2023.2.3,Linux x86_64,59.88023952,2,2,7,,,,,,,,1,02,,,,,,,,,,,1,12.166,1,,,,,,-0.352811566,-0.239755207,1,0,0,12.1665,Andesite_rect,6,0,6,0,1,
655a655f62fde845d4789149,TCN,2024-06-20_15h36.18.212,LearnStrategy,2023.2.3,Linux x86_64,59.88023952,2,2,8,,,,,,,,6,05,,,,,,,,,,,3,4.364,0,,,,,,0.076378928,-0.235193041,1,0,0,4.364,Diorite_rect,7,0,7,0,1,
655a655f62fde845d4789149,TCN,2024-06-20_15h36.18.212,LearnStrategy,2023.2.3,Linux x86_64,59.88023952,2,2,9,,,,,,,,1,04,,,,,,,,,,,2,2.094,0,,,,,,-0.118206165,-0.237983492,1,0,0,2.0937,Basalt_rect,8,0,8,0,1,
655a655f62fde845d4789149,TCN,2024-06-20_15h36.18.212,LearnStrategy,2023.2.3,Linux x86_64,59.88023952,2,2,10,,,,,,,,8,08,,,,,,,,,,,8,1.357,1,,,,,,0.357036308,-0.380182619,1,0,0,1.3574,Pumice_rect,9,0,9,0,1,
655a655f62fde845d4789149,TCN,2024-06-20_15h36.18.212,LearnStrategy,2023.2.3,Linux x86_64,59.88023952,2,2,11,,,,,,,,3,15,,,,,,,,,,,3,7.317,1,,,,,,0.148766977,-0.255495071,1,0,0,7.3168,Diorite_rect,10,0,10,0,1,
655a655f62fde845d4789149,TCN,2024-06-20_15h36.18.212,LearnStrategy,2023.2.3,Linux x86_64,59.88023952,2,2,12,,,,,,,,7,04,,,,,,,,,,,6,2.346,0,,,,,,-0.107758769,-0.415190873,1,0,0,2.3462,Pegmatite_rect,11,0,11,0,1,
655a655f62fde845d4789149,TCN,2024-06-20_15h36.18.212,LearnStrategy,2023.2.3,Linux x86_64,59.88023952,2,2,13,,,,,,,,7,16,,,,,,,,,,,7,7.119,1,,,,,,0.122360229,-0.394613125,1,0,0,7.1188,Peridotite_rect,12,0,12,0,1,
655a655f62fde845d4789149,TCN,2024-06-20_15h36.18.212,LearnStrategy,2023.2.3,Linux x86_64,59.88023952,2,2,14,,,,,,,,2,12,,,,,,,,,,,8,1.636,0,,,,,,0.408518756,-0.40672719,1,0,0,1.6356,Pumice_rect,13,0,13,0,1,
655a655f62fde845d4789149,TCN,2024-06-20_15h36.18.212,LearnStrategy,2023.2.3,Linux x86_64,59.88023952,2,2,15,,,,,,,,8,06,,,,,,,,,,,8,0.879,1,,,,,,0.408518756,-0.40672719,1,0,0,0.8792,Pumice_rect,14,0,14,0,1,
655a655f62fde845d4789149,TCN,2024-06-20_15h36.18.212,LearnStrategy,2023.2.3,Linux x86_64,59.88023952,2,2,16,,,,,,,,5,07,,,,,,,,,,,5,1.36,1,,,,,,-0.405303778,-0.400647764,1,0,0,1.3602,Obsidian_rect,15,0,15,0,1,
655a655f62fde845d4789149,TCN,2024-06-20_15h36.18.212,LearnStrategy,2023.2.3,Linux x86_64,59.88023952,3,1,1,-0.011307398,-0.013181227,1,0,0,1.6297,rock_grid_rect_2,8,10,-1,-1,1.63,0.358431498,-0.407647875,1,0,0,1.5381,Pumice_rect,8,1.538,1,0,0,0,0,1,,,,,,,,,,,,,
655a655f62fde845d4789149,TCN,2024-06-20_15h36.18.212,LearnStrategy,2023.2.3,Linux x86_64,59.88023952,3,1,2,-0.013304604,-0.011216623,1,0,0,1.3451,rock_grid_rect_2,2,05,-1,-1,1.345,-0.115482684,-0.249083696,1,0,0,1.1199,Basalt_rect,2,1.12,1,1,0,1,0,1,,,,,,,,,,,,,
655a655f62fde845d4789149,TCN,2024-06-20_15h36.18.212,LearnStrategy,2023.2.3,Linux x86_64,59.88023952,3,1,3,0.021961,-4.36218E-05,1,0,0,1.1967,rock_grid_rect_2,3,16,-1,-1,1.197,-0.362459536,-0.241373839,1,0,0,7.3079,Andesite_rect,1,7.308,0,2,0,2,0,1,,,,,,,,,,,,,
655a655f62fde845d4789149,TCN,2024-06-20_15h36.18.212,LearnStrategy,2023.2.3,Linux x86_64,59.88023952,3,1,4,0.036055106,-0.018798793,1,0,0,1.5818,rock_grid_rect_2,3,09,-1,-1,1.582,-0.351695626,-0.249194463,1,0,0,3.5162,Andesite_rect,1,3.516,0,3,0,3,0,1,,,,,,,,,,,,,
655a655f62fde845d4789149,TCN,2024-06-20_15h36.18.212,LearnStrategy,2023.2.3,Linux x86_64,59.88023952,3,1,5,0.103057296,-0.005909001,1,0,0,1.2095,rock_grid_rect_2,6,07,-1,-1,1.21,-0.170791414,-0.415189884,1,0,0,7.3729,Pegmatite_rect,6,7.373,1,4,0,4,0,1,,,,,,,,,,,,,
655a655f62fde845d4789149,TCN,2024-06-20_15h36.18.212,LearnStrategy,2023.2.3,Linux x86_64,59.88023952,3,1,6,0.044562163,-0.001117353,1,0,0,1.3251,rock_grid_rect_2,6,13,-1,-1,1.325,0.124687831,-0.392471313,1,0,0,11.3349,Peridotite_rect,7,11.335,0,5,0,5,0,1,,,,,,,,,,,,,
655a655f62fde845d4789149,TCN,2024-06-20_15h36.18.212,LearnStrategy,2023.2.3,Linux x86_64,59.88023952,3,1,7,-0.019837344,0.011333607,1,0,0,1.0931,rock_grid_rect_2,1,06,-1,-1,1.093,-0.331381268,-0.260791637,1,0,0,13.8053,Andesite_rect,1,13.805,1,6,0,6,0,1,,,,,,,,,,,,,
655a655f62fde845d4789149,TCN,2024-06-20_15h36.18.212,LearnStrategy,2023.2.3,Linux x86_64,59.88023952,3,1,8,0.075919257,-0.000551012,1,0,0,3.7986,rock_grid_rect_2,8,15,-1,-1,3.799,0.363306399,-0.415712922,1,0,0,1.8422,Pumice_rect,8,1.842,1,7,0,7,0,1,,,,,,,,,,,,,
655a655f62fde845d4789149,TCN,2024-06-20_15h36.18.212,LearnStrategy,2023.2.3,Linux x86_64,59.88023952,3,1,9,0.015442389,-0.013446207,1,0,0,1.4482,rock_grid_rect_2,5,14,-1,-1,1.448,-0.371592946,-0.398960043,1,0,0,1.4428,Obsidian_rect,5,1.443,1,8,0,8,0,1,,,,,,,,,,,,,
655a655f62fde845d4789149,TCN,2024-06-20_15h36.18.212,LearnStrategy,2023.2.3,Linux x86_64,59.88023952,3,1,10,0.03504965,-0.002876953,1,0,0,1.3451,rock_grid_rect_2,4,14,-1,-1,1.345,-0.085147504,-0.236978602,1,0,0,1.2504,Basalt_rect,2,1.25,0,9,0,9,0,1,,,,,,,,,,,,,
655a655f62fde845d4789149,TCN,2024-06-20_15h36.18.212,LearnStrategy,2023.2.3,Linux x86_64,59.88023952,3,1,11,0.139690187,0.007182298,1,0,0,0.9614,rock_grid_rect_2,2,09,-1,-1,0.961,-0.11568352,-0.268868835,1,0,0,1.3379,Basalt_rect,2,1.338,1,10,0,10,0,1,,,,,,,,,,,,,
655a655f62fde845d4789149,TCN,2024-06-20_15h36.18.212,LearnStrategy,2023.2.3,Linux x86_64,59.88023952,3,1,12,0.103626393,0.008592994,1,0,0,0.9623,rock_grid_rect_2,7,15,-1,-1,0.962,0.440580439,-0.238363125,1,0,0,2.6843,Gabbro_rect,4,2.684,0,11,0,11,0,1,,,,,,,,,,,,,
655a655f62fde845d4789149,TCN,2024-06-20_15h36.18.212,LearnStrategy,2023.2.3,Linux x86_64,59.88023952,3,1,13,0.001352663,0.001583982,1,0,0,1.1434,rock_grid_rect_2,7,07,-1,-1,1.143,0.130827303,-0.407607608,1,0,0,1.54,Peridotite_rect,7,1.54,1,12,0,12,0,1,,,,,,,,,,,,,
655a655f62fde845d4789149,TCN,2024-06-20_15h36.18.212,LearnStrategy,2023.2.3,Linux x86_64,59.88023952,3,1,14,0.025375296,0.00276336,1,0,0,1.1784,rock_grid_rect_2,1,11,-1,-1,1.178,-0.105663653,-0.263200195,1,0,0,1.4138,Basalt_rect,2,1.414,0,13,0,13,0,1,,,,,,,,,,,,,
655a655f62fde845d4789149,TCN,2024-06-20_15h36.18.212,LearnStrategy,2023.2.3,Linux x86_64,59.88023952,3,1,15,0.09006804,-0.002888326,1,0,0,1.0783,rock_grid_rect_2,4,11,-1,-1,1.078,-0.110429764,-0.246346862,1,0,0,1.2213,Basalt_rect,2,1.221,0,14,0,14,0,1,,,,,,,,,,,,,
655a655f62fde845d4789149,TCN,2024-06-20_15h36.18.212,LearnStrategy,2023.2.3,Linux x86_64,59.88023952,3,1,16,0.010062818,0.00621559,1,0,0,0.9953,rock_grid_rect_2,5,10,-1,-1,0.995,-0.313334995,-0.402270776,1,0,0,2.6531,Obsidian_rect,5,2.653,1,15,0,15,0,1,,,,,,,,,,,,,
655a655f62fde845d4789149,TCN,2024-06-20_15h36.18.212,LearnStrategy,2023.2.3,Linux x86_64,59.88023952,3,2,1,,,,,,,,8,16,,,,,,,,,,,8,1.405,1,,,,,,0.349688495,-0.41791711,1,0,0,1.4054,Pumice_rect,0,0,0,0,1,
655a655f62fde845d4789149,TCN,2024-06-20_15h36.18.212,LearnStrategy,2023.2.3,Linux x86_64,59.88023952,3,2,2,,,,,,,,1,16,,,,,,,,,,,1,4.443,1,,,,,,-0.380432729,-0.269998197,1,0,0,4.4429,Andesite_rect,1,0,1,0,1,
655a655f62fde845d4789149,TCN,2024-06-20_15h36.18.212,LearnStrategy,2023.2.3,Linux x86_64,59.88023952,3,2,3,,,,,,,,7,06,,,,,,,,,,,4,2.085,0,,,,,,0.457661523,-0.271030002,1,0,0,2.0853,Gabbro_rect,2,0,2,0,1,
655a655f62fde845d4789149,TCN,2024-06-20_15h36.18.212,LearnStrategy,2023.2.3,Linux x86_64,59.88023952,3,2,4,,,,,,,,4,09,,,,,,,,,,,7,1.68,0,,,,,,0.143526007,-0.393734685,1,0,0,1.6804,Peridotite_rect,3,0,3,0,1,
655a655f62fde845d4789149,TCN,2024-06-20_15h36.18.212,LearnStrategy,2023.2.3,Linux x86_64,59.88023952,3,2,5,,,,,,,,3,14,,,,,,,,,,,6,1.157,0,,,,,,-0.040482486,-0.414415359,1,0,0,1.1566,Pegmatite_rect,4,0,4,0,1,
655a655f62fde845d4789149,TCN,2024-06-20_15h36.18.212,LearnStrategy,2023.2.3,Linux x86_64,59.88023952,3,2,6,,,,,,,,8,03,,,,,,,,,,,8,1.682,1,,,,,,0.318894563,-0.396909078,1,0,0,1.6817,Pumice_rect,5,0,5,0,1,
655a655f62fde845d4789149,TCN,2024-06-20_15h36.18.212,LearnStrategy,2023.2.3,Linux x86_64,59.88023952,3,2,7,,,,,,,,2,08,,,,,,,,,,,2,2.392,1,,,,,,-0.160954723,-0.24937778,1,0,0,2.3924,Basalt_rect,6,0,6,0,1,
655a655f62fde845d4789149,TCN,2024-06-20_15h36.18.212,LearnStrategy,2023.2.3,Linux x86_64,59.88023952,3,2,8,,,,,,,,5,09,,,,,,,,,,,5,1.329,1,,,,,,-0.337975573,-0.397087733,1,0,0,1.3288,Obsidian_rect,7,0,7,0,1,
655a655f62fde845d4789149,TCN,2024-06-20_15h36.18.212,LearnStrategy,2023.2.3,Linux x86_64,59.88023952,3,2,9,,,,,,,,3,02,,,,,,,,,,,1,10.559,0,,,,,,-0.367266832,-0.248272295,1,0,0,10.5593,Andesite_rect,8,0,8,0,1,
655a655f62fde845d4789149,TCN,2024-06-20_15h36.18.212,LearnStrategy,2023.2.3,Linux x86_64,59.88023952,3,2,10,,,,,,,,6,03,,,,,,,,,,,6,6.544,1,,,,,,-0.176667743,-0.400068778,1,0,0,6.5436,Pegmatite_rect,9,0,9,0,1,
655a655f62fde845d4789149,TCN,2024-06-20_15h36.18.212,LearnStrategy,2023.2.3,Linux x86_64,59.88023952,3,2,11,,,,,,,,2,11,,,,,,,,,,,8,3.769,0,,,,,,0.367263088,-0.396111312,1,0,0,3.7688,Pumice_rect,10,0,10,0,1,
655a655f62fde845d4789149,TCN,2024-06-20_15h36.18.212,LearnStrategy,2023.2.3,Linux x86_64,59.88023952,3,2,12,,,,,,,,6,08,,,,,,,,,,,6,3.466,1,,,,,,-0.06468236,-0.38239366,1,0,0,3.4657,Pegmatite_rect,11,0,11,0,1,
655a655f62fde845d4789149,TCN,2024-06-20_15h36.18.212,LearnStrategy,2023.2.3,Linux x86_64,59.88023952,3,2,13,,,,,,,,4,05,,,,,,,,,,,7,7.955,0,,,,,,0.09163143,-0.408491558,1,0,0,7.9549,Peridotite_rect,12,0,12,0,1,
655a655f62fde845d4789149,TCN,2024-06-20_15h36.18.212,LearnStrategy,2023.2.3,Linux x86_64,59.88023952,3,2,14,,,,,,,,5,12,,,,,,,,,,,5,1.058,1,,,,,,-0.45927189,-0.410039549,1,0,0,1.0577,Obsidian_rect,13,0,13,0,1,
655a655f62fde845d4789149,TCN,2024-06-20_15h36.18.212,LearnStrategy,2023.2.3,Linux x86_64,59.88023952,3,2,15,,,,,,,,1,14,,,,,,,,,,,3,13.414,0,,,,,,0.057365417,-0.26941137,1,0,0,13.4137,Diorite_rect,14,0,14,0,1,
655a655f62fde845d4789149,TCN,2024-06-20_15h36.18.212,LearnStrategy,2023.2.3,Linux x86_64,59.88023952,3,2,16,,,,,,,,7,13,,,,,,,,,,,6,2.826,0,,,,,,-0.137232251,-0.391791379,1,0,0,2.826,Pegmatite_rect,15,0,15,0,1,
655a655f62fde845d4789149,TCN,2024-06-20_15h36.18.212,LearnStrategy,2023.2.3,Linux x86_64,59.88023952,4,1,1,0.110088702,0.002133122,1,0,0,2.3795,rock_grid_rect_2,3,07,-1,-1,2.38,-0.089878153,-0.404221358,1,0,0,3.0322,Pegmatite_rect,6,3.032,0,0,0,0,0,1,,,,,,,,,,,,,
655a655f62fde845d4789149,TCN,2024-06-20_15h36.18.212,LearnStrategy,2023.2.3,Linux x86_64,59.88023952,4,1,2,0.07964445,-0.013879564,1,0,0,1.3598,rock_grid_rect_2,7,08,-1,-1,1.36,0.115747169,-0.40493951,1,0,0,1.5766,Peridotite_rect,7,1.577,1,1,0,1,0,1,,,,,,,,,,,,,
655a655f62fde845d4789149,TCN,2024-06-20_15h36.18.212,LearnStrategy,2023.2.3,Linux x86_64,59.88023952,4,1,3,0.050254539,-0.013122559,1,0,0,1.3125,rock_grid_rect_2,1,01,-1,-1,1.313,-0.106819435,-0.409136242,1,0,0,1.2388,Pegmatite_rect,6,1.239,0,2,0,2,0,1,,,,,,,,,,,,,
655a655f62fde845d4789149,TCN,2024-06-20_15h36.18.212,LearnStrategy,2023.2.3,Linux x86_64,59.88023952,4,1,4,-0.027240824,0.002289383,1,0,0,0.9965,rock_grid_rect_2,4,12,-1,-1,0.996,-0.161389457,-0.240961781,1,0,0,1.2172,Basalt_rect,2,1.217,0,3,0,3,0,1,,,,,,,,,,,,,
655a655f62fde845d4789149,TCN,2024-06-20_15h36.18.212,LearnStrategy,2023.2.3,Linux x86_64,59.88023952,4,1,5,0.111816053,0.008842468,1,0,0,1.0103,rock_grid_rect_2,4,16,-1,-1,1.01,-0.087666194,-0.262086091,1,0,0,1.368,Basalt_rect,2,1.368,0,4,0,4,0,1,,,,,,,,,,,,,
655a655f62fde845d4789149,TCN,2024-06-20_15h36.18.212,LearnStrategy,2023.2.3,Linux x86_64,59.88023952,4,1,6,0.023959619,-0.015491026,1,0,0,1.0124,rock_grid_rect_2,7,07,-1,-1,1.012,0.128933518,-0.250119457,1,0,0,2.4244,Diorite_rect,3,2.424,0,5,0,5,0,1,,,,,,,,,,,,,
655a655f62fde845d4789149,TCN,2024-06-20_15h36.18.212,LearnStrategy,2023.2.3,Linux x86_64,59.88023952,4,1,7,0.015525677,-0.004039694,1,0,0,1.0087,rock_grid_rect_2,5,05,-1,-1,1.009,-0.351806641,-0.400208085,1,0,0,1.1885,Obsidian_rect,5,1.188,1,6,0,6,0,1,,,,,,,,,,,,,
655a655f62fde845d4789149,TCN,2024-06-20_15h36.18.212,LearnStrategy,2023.2.3,Linux x86_64,59.88023952,4,1,8,0.025838993,0.008318583,1,0,0,1.1273,rock_grid_rect_2,2,10,-1,-1,1.127,-0.096728643,-0.238631708,1,0,0,1.2295,Basalt_rect,2,1.23,1,7,0,7,0,1,,,,,,,,,,,,,
655a655f62fde845d4789149,TCN,2024-06-20_15h36.18.212,LearnStrategy,2023.2.3,Linux x86_64,59.88023952,4,1,9,0.039892338,0.002140504,1,0,0,1.3953,rock_grid_rect_2,8,15,-1,-1,1.395,0.413310722,-0.397256851,1,0,0,1.9668,Pumice_rect,8,1.967,1,8,0,8,0,1,,,,,,,,,,,,,
655a655f62fde845d4789149,TCN,2024-06-20_15h36.18.212,LearnStrategy,2023.2.3,Linux x86_64,59.88023952,4,1,10,-0.011104513,-0.00675152,1,0,0,0.9462,rock_grid_rect_2,6,13,-1,-1,0.946,0.381776598,-0.247134385,1,0,0,2.7545,Gabbro_rect,4,2.755,0,9,0,9,0,1,,,,,,,,,,,,,
655a655f62fde845d4789149,TCN,2024-06-20_15h36.18.212,LearnStrategy,2023.2.3,Linux x86_64,59.88023952,4,1,11,-0.035407243,0.012053596,1,0,0,1.0809,rock_grid_rect_2,6,12,-1,-1,1.081,-0.34077436,-0.266457522,1,0,0,2.4104,Andesite_rect,1,2.41,0,10,0,10,0,1,,,,,,,,,,,,,
655a655f62fde845d4789149,TCN,2024-06-20_15h36.18.212,LearnStrategy,2023.2.3,Linux x86_64,59.88023952,4,1,12,0.002943887,0.001465974,1,0,0,1.0439,rock_grid_rect_2,5,10,-1,-1,1.044,-0.374873691,-0.387949061,1,0,0,1.216,Obsidian_rect,5,1.216,1,11,0,11,0,1,,,,,,,,,,,,,
655a655f62fde845d4789149,TCN,2024-06-20_15h36.18.212,LearnStrategy,2023.2.3,Linux x86_64,59.88023952,4,1,13,0.030791247,-0.011751705,1,0,0,0.9115,rock_grid_rect_2,3,09,-1,-1,0.912,0.08727985,-0.388444335,1,0,0,1.297,Peridotite_rect,7,1.297,0,12,0,12,0,1,,,,,,,,,,,,,
655a655f62fde845d4789149,TCN,2024-06-20_15h36.18.212,LearnStrategy,2023.2.3,Linux x86_64,59.88023952,4,1,14,0.033296868,0.013097445,1,0,0,0.9619,rock_grid_rect_2,2,05,-1,-1,0.962,-0.107841562,-0.24092752,1,0,0,1.0064,Basalt_rect,2,1.006,1,13,0,13,0,1,,,,,,,,,,,,,
655a655f62fde845d4789149,TCN,2024-06-20_15h36.18.212,LearnStrategy,2023.2.3,Linux x86_64,59.88023952,4,1,15,0.053997676,-0.013645031,1,0,0,0.8783,rock_grid_rect_2,1,09,-1,-1,0.878,-0.103587045,-0.396539971,1,0,0,2.9946,Pegmatite_rect,6,2.995,0,14,0,14,0,1,,,,,,,,,,,,,
655a655f62fde845d4789149,TCN,2024-06-20_15h36.18.212,LearnStrategy,2023.2.3,Linux x86_64,59.88023952,4,1,16,-0.019572435,0.004619916,1,0,0,1.0253,rock_grid_rect_2,8,04,-1,-1,1.025,0.36429271,-0.388978958,1,0,0,1.2557,Pumice_rect,8,1.256,1,15,0,15,0,1,,,,,,,,,,,,,
655a655f62fde845d4789149,TCN,2024-06-20_15h36.18.212,LearnStrategy,2023.2.3,Linux x86_64,59.88023952,4,2,1,,,,,,,,4,09,,,,,,,,,,,1,7.461,0,,,,,,-0.364838212,-0.269172598,1,0,0,7.4613,Andesite_rect,0,0,0,0,1,
655a655f62fde845d4789149,TCN,2024-06-20_15h36.18.212,LearnStrategy,2023.2.3,Linux x86_64,59.88023952,4,2,2,,,,,,,,8,13,,,,,,,,,,,8,1.748,1,,,,,,0.357425407,-0.394070661,1,0,0,1.7483,Pumice_rect,1,0,1,0,1,
655a655f62fde845d4789149,TCN,2024-06-20_15h36.18.212,LearnStrategy,2023.2.3,Linux x86_64,59.88023952,4,2,3,,,,,,,,7,13,,,,,,,,,,,6,1.803,0,,,,,,-0.038764177,-0.380723671,1,0,0,1.8035,Pegmatite_rect,2,0,2,0,1,
655a655f62fde845d4789149,TCN,2024-06-20_15h36.18.212,LearnStrategy,2023.2.3,Linux x86_64,59.88023952,4,2,4,,,,,,,,1,14,,,,,,,,,,,7,2.345,0,,,,,,0.076285398,-0.40153892,1,0,0,2.3454,Peridotite_rect,3,0,3,0,1,
655a655f62fde845d4789149,TCN,2024-06-20_15h36.18.212,LearnStrategy,2023.2.3,Linux x86_64,59.88023952,4,2,5,,,,,,,,3,02,,,,,,,,,,,1,5.511,0,,,,,,-0.365873266,-0.270646484,1,0,0,5.511,Andesite_rect,4,0,4,0,1,
655a655f62fde845d4789149,TCN,2024-06-20_15h36.18.212,LearnStrategy,2023.2.3,Linux x86_64,59.88023952,4,2,6,,,,,,,,6,10,,,,,,,,,,,6,5.784,1,,,,,,-0.060503995,-0.39690816,1,0,0,5.7836,Pegmatite_rect,5,0,5,0,1,
655a655f62fde845d4789149,TCN,2024-06-20_15h36.18.212,LearnStrategy,2023.2.3,Linux x86_64,59.88023952,4,2,7,,,,,,,,7,05,,,,,,,,,,,7,9.186,1,,,,,,0.048888242,-0.401702245,1,0,0,9.1856,Peridotite_rect,6,0,6,0,1,
655a655f62fde845d4789149,TCN,2024-06-20_15h36.18.212,LearnStrategy,2023.2.3,Linux x86_64,59.88023952,4,2,8,,,,,,,,5,09,,,,,,,,,,,5,1.24,1,,,,,,-0.387055185,-0.39655749,1,0,0,1.2399,Obsidian_rect,7,0,7,0,1,
655a655f62fde845d4789149,TCN,2024-06-20_15h36.18.212,LearnStrategy,2023.2.3,Linux x86_64,59.88023952,4,2,9,,,,,,,,1,04,,,,,,,,,,,1,5.174,1,,,,,,-0.344836765,-0.271646712,1,0,0,5.1743,Andesite_rect,8,0,8,0,1,
655a655f62fde845d4789149,TCN,2024-06-20_15h36.18.212,LearnStrategy,2023.2.3,Linux x86_64,59.88023952,4,2,10,,,,,,,,2,12,,,,,,,,,,,8,1.72,0,,,,,,0.36369903,-0.403863695,1,0,0,1.7199,Pumice_rect,9,0,9,0,1,
655a655f62fde845d4789149,TCN,2024-06-20_15h36.18.212,LearnStrategy,2023.2.3,Linux x86_64,59.88023952,4,2,11,,,,,,,,5,16,,,,,,,,,,,5,1.212,1,,,,,,-0.347373609,-0.408144986,1,0,0,1.2121,Obsidian_rect,10,0,10,0,1,
655a655f62fde845d4789149,TCN,2024-06-20_15h36.18.212,LearnStrategy,2023.2.3,Linux x86_64,59.88023952,4,2,12,,,,,,,,8,08,,,,,,,,,,,8,1.328,1,,,,,,0.325278529,-0.404399095,1,0,0,1.3283,Pumice_rect,11,0,11,0,1,
655a655f62fde845d4789149,TCN,2024-06-20_15h36.18.212,LearnStrategy,2023.2.3,Linux x86_64,59.88023952,4,2,13,,,,,,,,2,01,,,,,,,,,,,2,1.06,1,,,,,,-0.184935181,-0.234970375,1,0,0,1.0601,Basalt_rect,12,0,12,0,1,
655a655f62fde845d4789149,TCN,2024-06-20_15h36.18.212,LearnStrategy,2023.2.3,Linux x86_64,59.88023952,4,2,14,,,,,,,,3,14,,,,,,,,,,,3,1.653,1,,,,,,0.157442799,-0.259538933,1,0,0,1.6531,Diorite_rect,13,0,13,0,1,
655a655f62fde845d4789149,TCN,2024-06-20_15h36.18.212,LearnStrategy,2023.2.3,Linux x86_64,59.88023952,4,2,15,,,,,,,,4,01,,,,,,,,,,,4,2.02,1,,,,,,0.408563543,-0.251200641,1,0,0,2.0196,Gabbro_rect,14,0,14,0,1,
655a655f62fde845d4789149,TCN,2024-06-20_15h36.18.212,LearnStrategy,2023.2.3,Linux x86_64,59.88023952,4,2,16,,,,,,,,6,03,,,,,,,,,,,6,5.776,1,,,,,,-0.165124257,-0.415515123,1,0,0,5.7759,Pegmatite_rect,15,0,15,0,1,
655a655f62fde845d4789149,TCN,2024-06-20_15h36.18.212,LearnStrategy,2023.2.3,Linux x86_64,59.88023952,5,1,1,0.191996822,0.011141777,1,0,0,1.4466,rock_grid_rect_2,6,07,-1,-1,1.447,-0.14155296,-0.390642166,1,0,0,3.0937,Pegmatite_rect,6,3.094,1,0,0,0,0,1,,,,,,,,,,,,,
655a655f62fde845d4789149,TCN,2024-06-20_15h36.18.212,LearnStrategy,2023.2.3,Linux x86_64,59.88023952,5,1,2,0.081355483,-0.003371874,1,0,0,1.3483,rock_grid_rect_2,3,12,-1,-1,1.348,0.143473095,-0.230148104,1,0,0,2.8188,Diorite_rect,3,2.819,1,1,0,1,0,1,,,,,,,,,,,,,
655a655f62fde845d4789149,TCN,2024-06-20_15h36.18.212,LearnStrategy,2023.2.3,Linux x86_64,59.88023952,5,1,3,0.092886395,-0.021385299,1,0,0,1.1271,rock_grid_rect_2,1,07,-1,-1,1.127,0.084670455,-0.401551635,1,0,0,1.4921,Peridotite_rect,7,1.492,0,2,0,2,0,1,,,,,,,,,,,,,
655a655f62fde845d4789149,TCN,2024-06-20_15h36.18.212,LearnStrategy,2023.2.3,Linux x86_64,59.88023952,5,1,4,0.004788363,0.013070001,1,0,0,0.9948,rock_grid_rect_2,7,15,-1,-1,0.995,-0.353261312,-0.248283316,1,0,0,1.9147,Andesite_rect,1,1.915,0,3,0,3,0,1,,,,,,,,,,,,,
655a655f62fde845d4789149,TCN,2024-06-20_15h36.18.212,LearnStrategy,2023.2.3,Linux x86_64,59.88023952,5,1,5,-0.01181108,0.008940626,1,0,0,0.994,rock_grid_rect_2,8,02,-1,-1,0.994,0.383999719,-0.41051794,1,0,0,1.6477,Pumice_rect,8,1.648,1,4,0,4,0,1,,,,,,,,,,,,,
655a655f62fde845d4789149,TCN,2024-06-20_15h36.18.212,LearnStrategy,2023.2.3,Linux x86_64,59.88023952,5,1,6,-0.002829022,-0.00650314,1,0,0,0.8605,rock_grid_rect_2,5,14,-1,-1,0.861,-0.387246026,-0.380278552,1,0,0,1.2793,Obsidian_rect,5,1.279,1,5,0,5,0,1,,,,,,,,,,,,,
655a655f62fde845d4789149,TCN,2024-06-20_15h36.18.212,LearnStrategy,2023.2.3,Linux x86_64,59.88023952,5,1,7,0.058076576,0.002884935,1,0,0,0.8941,rock_grid_rect_2,2,09,-1,-1,0.894,-0.069633484,-0.245411131,1,0,0,1.4356,Basalt_rect,2,1.436,1,6,0,6,0,1,,,,,,,,,,,,,
655a655f62fde845d4789149,TCN,2024-06-20_15h36.18.212,LearnStrategy,2023.2.3,Linux x86_64,59.88023952,5,1,8,0.027899283,-0.024271259,1,0,0,1.0935,rock_grid_rect_2,3,11,-1,-1,1.093,0.419905486,-0.254705076,1,0,0,1.842,Gabbro_rect,4,1.842,0,7,0,7,0,1,,,,,,,,,,,,,
655a655f62fde845d4789149,TCN,2024-06-20_15h36.18.212,LearnStrategy,2023.2.3,Linux x86_64,59.88023952,5,1,9,0.137020676,0.000840964,1,0,0,1.1284,rock_grid_rect_2,1,06,-1,-1,1.128,-0.341181367,-0.251011177,1,0,0,2.9172,Andesite_rect,1,2.917,1,8,0,8,0,1,,,,,,,,,,,,,
655a655f62fde845d4789149,TCN,2024-06-20_15h36.18.212,LearnStrategy,2023.2.3,Linux x86_64,59.88023952,5,1,10,0.039886969,-0.02198848,1,0,0,1.5422,rock_grid_rect_2,6,09,-1,-1,1.542,-0.142625667,-0.415431199,1,0,0,1.7712,Pegmatite_rect,6,1.771,1,9,0,9,0,1,,,,,,,,,,,,,
655a655f62fde845d4789149,TCN,2024-06-20_15h36.18.212,LearnStrategy,2023.2.3,Linux x86_64,59.88023952,5,1,11,0.049892284,0.01919319,1,0,0,1.2787,rock_grid_rect_2,7,10,-1,-1,1.279,0.126982724,-0.404276459,1,0,0,1.5617,Peridotite_rect,7,1.562,1,10,0,10,0,1,,,,,,,,,,,,,
655a655f62fde845d4789149,TCN,2024-06-20_15h36.18.212,LearnStrategy,2023.2.3,Linux x86_64,59.88023952,5,1,12,0.043207169,-0.018502023,1,0,0,0.8956,rock_grid_rect_2,4,10,-1,-1,0.896,0.112044087,-0.399873522,1,0,0,1.4162,Peridotite_rect,7,1.416,0,11,0,11,0,1,,,,,,,,,,,,,
655a655f62fde845d4789149,TCN,2024-06-20_15h36.18.212,LearnStrategy,2023.2.3,Linux x86_64,59.88023952,5,1,13,0.016761427,0.015566049,1,0,0,1.0115,rock_grid_rect_2,4,11,-1,-1,1.012,-0.111432323,-0.253915222,1,0,0,1.118,Basalt_rect,2,1.118,0,12,0,12,0,1,,,,,,,,,,,,,
655a655f62fde845d4789149,TCN,2024-06-20_15h36.18.212,LearnStrategy,2023.2.3,Linux x86_64,59.88023952,5,1,14,0.003380881,0.024236079,1,0,0,0.8609,rock_grid_rect_2,5,11,-1,-1,0.861,-0.334099416,-0.379633939,1,0,0,1.0513,Obsidian_rect,5,1.051,1,13,0,13,0,1,,,,,,,,,,,,,
655a655f62fde845d4789149,TCN,2024-06-20_15h36.18.212,LearnStrategy,2023.2.3,Linux x86_64,59.88023952,5,1,15,0.030503238,-0.009489342,1,0,0,0.9942,rock_grid_rect_2,2,04,-1,-1,0.994,-0.176417527,-0.245898211,1,0,0,1.0018,Basalt_rect,2,1.002,1,14,0,14,0,1,,,,,,,,,,,,,
655a655f62fde845d4789149,TCN,2024-06-20_15h36.18.212,LearnStrategy,2023.2.3,Linux x86_64,59.88023952,5,1,16,0.034664931,-0.003579104,1,0,0,0.8451,rock_grid_rect_2,8,10,-1,-1,0.845,0.365155114,-0.414636612,1,0,0,1.3389,Pumice_rect,8,1.339,1,15,0,15,0,1,,,,,,,,,,,,,
655a655f62fde845d4789149,TCN,2024-06-20_15h36.18.212,LearnStrategy,2023.2.3,Linux x86_64,59.88023952,5,2,1,,,,,,,,8,03,,,,,,,,,,,8,2.724,1,,,,,,0.360855526,-0.380980951,1,0,0,2.7241,Pumice_rect,0,0,0,0,1,
655a655f62fde845d4789149,TCN,2024-06-20_15h36.18.212,LearnStrategy,2023.2.3,Linux x86_64,59.88023952,5,2,2,,,,,,,,7,16,,,,,,,,,,,6,4.014,0,,,,,,-0.104831201,-0.405725691,1,0,0,4.0136,Pegmatite_rect,1,0,1,0,1,
655a655f62fde845d4789149,TCN,2024-06-20_15h36.18.212,LearnStrategy,2023.2.3,Linux x86_64,59.88023952,5,2,3,,,,,,,,6,06,,,,,,,,,,,6,1.127,1,,,,,,-0.104831201,-0.405725691,1,0,0,1.1274,Pegmatite_rect,2,0,2,0,1,
655a655f62fde845d4789149,TCN,2024-06-20_15h36.18.212,LearnStrategy,2023.2.3,Linux x86_64,59.88023952,5,2,4,,,,,,,,2,16,,,,,,,,,,,4,7.057,0,,,,,,0.405596274,-0.262250194,1,0,0,7.0574,Gabbro_rect,3,0,3,0,1,
655a655f62fde845d4789149,TCN,2024-06-20_15h36.18.212,LearnStrategy,2023.2.3,Linux x86_64,59.88023952,5,2,5,,,,,,,,1,02,,,,,,,,,,,1,4.199,1,,,,,,-0.40069626,-0.262056139,1,0,0,4.1994,Andesite_rect,4,0,4,0,1,
655a655f62fde845d4789149,TCN,2024-06-20_15h36.18.212,LearnStrategy,2023.2.3,Linux x86_64,59.88023952,5,2,6,,,,,,,,2,08,,,,,,,,,,,2,1.612,1,,,,,,-0.156965114,-0.264752353,1,0,0,1.6122,Basalt_rect,5,0,5,0,1,
655a655f62fde845d4789149,TCN,2024-06-20_15h36.18.212,LearnStrategy,2023.2.3,Linux x86_64,59.88023952,5,2,7,,,,,,,,6,11,,,,,,,,,,,6,1.742,1,,,,,,-0.069303513,-0.389776936,1,0,0,1.7415,Pegmatite_rect,6,0,6,0,1,
655a655f62fde845d4789149,TCN,2024-06-20_15h36.18.212,LearnStrategy,2023.2.3,Linux x86_64,59.88023952,5,2,8,,,,,,,,4,15,,,,,,,,,,,3,3.175,0,,,,,,0.073624999,-0.25037815,1,0,0,3.1749,Diorite_rect,7,0,7,0,1,
655a655f62fde845d4789149,TCN,2024-06-20_15h36.18.212,LearnStrategy,2023.2.3,Linux x86_64,59.88023952,5,2,9,,,,,,,,5,06,,,,,,,,,,,5,1.587,1,,,,,,-0.418364172,-0.394041061,1,0,0,1.5869,Obsidian_rect,8,0,8,0,1,
655a655f62fde845d4789149,TCN,2024-06-20_15h36.18.212,LearnStrategy,2023.2.3,Linux x86_64,59.88023952,5,2,10,,,,,,,,7,06,,,,,,,,,,,7,1.925,1,,,,,,0.129316683,-0.393559703,1,0,0,1.9245,Peridotite_rect,9,0,9,0,1,
655a655f62fde845d4789149,TCN,2024-06-20_15h36.18.212,LearnStrategy,2023.2.3,Linux x86_64,59.88023952,5,2,11,,,,,,,,3,13,,,,,,,,,,,6,2.451,0,,,,,,-0.064004757,-0.38769171,1,0,0,2.4509,Pegmatite_rect,10,0,10,0,1,
655a655f62fde845d4789149,TCN,2024-06-20_15h36.18.212,LearnStrategy,2023.2.3,Linux x86_64,59.88023952,5,2,12,,,,,,,,4,05,,,,,,,,,,,7,4.113,0,,,,,,0.151198917,-0.407613966,1,0,0,4.1133,Peridotite_rect,11,0,11,0,1,
655a655f62fde845d4789149,TCN,2024-06-20_15h36.18.212,LearnStrategy,2023.2.3,Linux x86_64,59.88023952,5,2,13,,,,,,,,3,08,,,,,,,,,,,6,1.666,0,,,,,,-0.10263443,-0.410894465,1,0,0,1.6658,Pegmatite_rect,12,0,12,0,1,
655a655f62fde845d4789149,TCN,2024-06-20_15h36.18.212,LearnStrategy,2023.2.3,Linux x86_64,59.88023952,5,2,14,,,,,,,,1,16,,,,,,,,,,,4,6.514,0,,,,,,0.418813494,-0.235618874,1,0,0,6.5137,Gabbro_rect,13,0,13,0,1,
655a655f62fde845d4789149,TCN,2024-06-20_15h36.18.212,LearnStrategy,2023.2.3,Linux x86_64,59.88023952,5,2,15,,,,,,,,8,14,,,,,,,,,,,8,4.703,1,,,,,,0.368860598,-0.420906844,1,0,0,4.7035,Pumice_rect,14,0,14,0,1,
655a655f62fde845d4789149,TCN,2024-06-20_15h36.18.212,LearnStrategy,2023.2.3,Linux x86_64,59.88023952,5,2,16,,,,,,,,5,08,,,,,,,,,,,5,1.97,1,,,,,,-0.380934079,-0.399742904,1,0,0,1.9696,Obsidian_rect,15,0,15,0,1,
655a655f62fde845d4789149,TCN,2024-06-20_15h36.18.212,LearnStrategy,2023.2.3,Linux x86_64,59.88023952,6,1,1,-0.02427306,0.01346468,1,0,0,9.5788,rock_grid_rect_2,7,12,-1,-1,9.579,0.065239376,-0.262211129,1,0,0,11.8753,Diorite_rect,3,11.875,0,0,0,0,0,1,,,,,,,,,,,,,
655a655f62fde845d4789149,TCN,2024-06-20_15h36.18.212,LearnStrategy,2023.2.3,Linux x86_64,59.88023952,6,1,2,-0.054299319,-0.005221579,1,0,0,1.0917,rock_grid_rect_2,5,04,-1,-1,1.092,-0.362992287,-0.403759709,1,0,0,1.4836,Obsidian_rect,5,1.484,1,1,0,1,0,1,,,,,,,,,,,,,
655a655f62fde845d4789149,TCN,2024-06-20_15h36.18.212,LearnStrategy,2023.2.3,Linux x86_64,59.88023952,6,1,3,0.053167272,-0.011868194,1,0,0,1.3785,rock_grid_rect_2,6,15,-1,-1,1.379,-0.077382688,-0.393598768,1,0,0,2.1531,Pegmatite_rect,6,2.153,1,2,0,2,0,1,,,,,,,,,,,,,
655a655f62fde845d4789149,TCN,2024-06-20_15h36.18.212,LearnStrategy,2023.2.3,Linux x86_64,59.88023952,6,1,4,0.011870208,0.020370201,1,0,0,1.3089,rock_grid_rect_2,4,08,-1,-1,1.309,-0.40126963,-0.26822408,1,0,0,3.3882,Andesite_rect,1,3.388,0,3,0,3,0,1,,,,,,,,,,,,,
655a655f62fde845d4789149,TCN,2024-06-20_15h36.18.212,LearnStrategy,2023.2.3,Linux x86_64,59.88023952,6,1,5,0.076872861,-0.00616607,1,0,0,1.3428,rock_grid_rect_2,8,09,-1,-1,1.343,0.357229021,-0.402437493,1,0,0,1.2299,Pumice_rect,8,1.23,1,4,0,4,0,1,,,,,,,,,,,,,
655a655f62fde845d4789149,TCN,2024-06-20_15h36.18.212,LearnStrategy,2023.2.3,Linux x86_64,59.88023952,6,1,6,0.001613688,0.009295817,1,0,0,1.6787,rock_grid_rect_2,2,02,-1,-1,1.679,-0.089415656,-0.245842545,1,0,0,1.3975,Basalt_rect,2,1.398,1,5,0,5,0,1,,,,,,,,,,,,,
655a655f62fde845d4789149,TCN,2024-06-20_15h36.18.212,LearnStrategy,2023.2.3,Linux x86_64,59.88023952,6,1,7,0.010972482,0.006190583,1,0,0,1.0285,rock_grid_rect_2,1,05,-1,-1,1.028,0.128954781,-0.24948657,1,0,0,2.5814,Diorite_rect,3,2.581,0,6,0,6,0,1,,,,,,,,,,,,,
655a655f62fde845d4789149,TCN,2024-06-20_15h36.18.212,LearnStrategy,2023.2.3,Linux x86_64,59.88023952,6,1,8,0.051881578,-0.007046276,1,0,0,0.9604,rock_grid_rect_2,3,16,-1,-1,0.96,0.079608281,-0.242800041,1,0,0,1.1967,Diorite_rect,3,1.197,1,7,0,7,0,1,,,,,,,,,,,,,
655a655f62fde845d4789149,TCN,2024-06-20_15h36.18.212,LearnStrategy,2023.2.3,Linux x86_64,59.88023952,6,1,9,0.049949434,-0.005331039,1,0,0,3.5099,rock_grid_rect_2,4,14,-1,-1,3.51,0.434000792,-0.237416091,1,0,0,2.6112,Gabbro_rect,4,2.611,1,8,0,8,0,1,,,,,,,,,,,,,
655a655f62fde845d4789149,TCN,2024-06-20_15h36.18.212,LearnStrategy,2023.2.3,Linux x86_64,59.88023952,6,1,10,-0.00039143,0.005109434,1,0,0,1.8422,rock_grid_rect_2,8,05,-1,-1,1.842,0.401137882,-0.406305525,1,0,0,1.6062,Pumice_rect,8,1.606,1,9,0,9,0,1,,,,,,,,,,,,,
655a655f62fde845d4789149,TCN,2024-06-20_15h36.18.212,LearnStrategy,2023.2.3,Linux x86_64,59.88023952,6,1,11,-0.02140688,0.001244333,1,0,0,2.662,rock_grid_rect_2,3,10,-1,-1,2.662,-0.114905251,-0.417188998,1,0,0,10.9901,Pegmatite_rect,6,10.99,0,10,0,10,0,1,,,,,,,,,,,,,
655a655f62fde845d4789149,TCN,2024-06-20_15h36.18.212,LearnStrategy,2023.2.3,Linux x86_64,59.88023952,6,1,12,0.051453131,0.005459538,1,0,0,1.4241,rock_grid_rect_2,5,02,-1,-1,1.424,-0.360179089,-0.402778272,1,0,0,7.0343,Obsidian_rect,5,7.034,1,11,0,11,0,1,,,,,,,,,,,,,
655a655f62fde845d4789149,TCN,2024-06-20_15h36.18.212,LearnStrategy,2023.2.3,Linux x86_64,59.88023952,6,1,13,0.147022318,0.021891029,1,0,0,1.2765,rock_grid_rect_2,7,02,-1,-1,1.276,0.186448274,-0.233316139,1,0,0,2.9415,Diorite_rect,3,2.941,0,12,0,12,0,1,,,,,,,,,,,,,
655a655f62fde845d4789149,TCN,2024-06-20_15h36.18.212,LearnStrategy,2023.2.3,Linux x86_64,59.88023952,6,1,14,-0.061613648,-0.0249981,1,0,0,1.7305,rock_grid_rect_2,6,16,-1,-1,1.73,-0.119447214,-0.383022379,1,0,0,1.7801,Pegmatite_rect,6,1.78,1,13,0,13,0,1,,,,,,,,,,,,,
655a655f62fde845d4789149,TCN,2024-06-20_15h36.18.212,LearnStrategy,2023.2.3,Linux x86_64,59.88023952,6,1,15,0.07142731,0.010007434,1,0,0,1.412,rock_grid_rect_2,2,14,-1,-1,1.412,0.489247075,-0.255398998,1,0,0,10.6439,Gabbro_rect,4,10.644,0,14,0,14,0,1,,,,,,,,,,,,,
655a655f62fde845d4789149,TCN,2024-06-20_15h36.18.212,LearnStrategy,2023.2.3,Linux x86_64,59.88023952,6,1,16,0.059675217,0.002725389,1,0,0,4.5262,rock_grid_rect_2,1,11,-1,-1,4.526,-0.138641428,-0.262112723,1,0,0,2.5881,Basalt_rect,2,2.588,0,15,0,15,0,1,,,,,,,,,,,,,
655a655f62fde845d4789149,TCN,2024-06-20_15h36.18.212,LearnStrategy,2023.2.3,Linux x86_64,59.88023952,6,2,1,,,,,,,,1,10,,,,,,,,,,,1,2.951,1,,,,,,-0.343754133,-0.24119476,1,0,0,2.9506,Andesite_rect,0,0,0,0,1,
655a655f62fde845d4789149,TCN,2024-06-20_15h36.18.212,LearnStrategy,2023.2.3,Linux x86_64,59.88023952,6,2,2,,,,,,,,7,14,,,,,,,,,,,4,1.492,0,,,,,,0.338236491,-0.247889978,1,0,0,1.4917,Gabbro_rect,1,0,1,0,1,
655a655f62fde845d4789149,TCN,2024-06-20_15h36.18.212,LearnStrategy,2023.2.3,Linux x86_64,59.88023952,6,2,3,,,,,,,,6,08,,,,,,,,,,,6,1.555,1,,,,,,-0.149783664,-0.381889838,1,0,0,1.5547,Pegmatite_rect,2,0,2,0,1,
655a655f62fde845d4789149,TCN,2024-06-20_15h36.18.212,LearnStrategy,2023.2.3,Linux x86_64,59.88023952,6,2,4,,,,,,,,5,12,,,,,,,,,,,5,1.168,1,,,,,,-0.331303561,-0.397167135,1,0,0,1.1677,Obsidian_rect,3,0,3,0,1,
655a655f62fde845d4789149,TCN,2024-06-20_15h36.18.212,LearnStrategy,2023.2.3,Linux x86_64,59.88023952,6,2,5,,,,,,,,1,03,,,,,,,,,,,2,1.55,0,,,,,,-0.096326757,-0.263224778,1,0,0,1.5503,Basalt_rect,4,0,4,0,1,
655a655f62fde845d4789149,TCN,2024-06-20_15h36.18.212,LearnStrategy,2023.2.3,Linux x86_64,59.88023952,6,2,6,,,,,,,,4,13,,,,,,,,,,,7,1.46,0,,,,,,0.113536058,-0.391777251,1,0,0,1.4596,Peridotite_rect,5,0,5,0,1,
655a655f62fde845d4789149,TCN,2024-06-20_15h36.18.212,LearnStrategy,2023.2.3,Linux x86_64,59.88023952,6,2,7,,,,,,,,5,07,,,,,,,,,,,5,1.473,1,,,,,,-0.400391791,-0.400653698,1,0,0,1.4732,Obsidian_rect,6,0,6,0,1,
655a655f62fde845d4789149,TCN,2024-06-20_15h36.18.212,LearnStrategy,2023.2.3,Linux x86_64,59.88023952,6,2,8,,,,,,,,4,03,,,,,,,,,,,4,3.141,1,,,,,,0.32856482,-0.233431357,1,0,0,3.1408,Gabbro_rect,7,0,7,0,1,
655a655f62fde845d4789149,TCN,2024-06-20_15h36.18.212,LearnStrategy,2023.2.3,Linux x86_64,59.88023952,6,2,9,,,,,,,,8,16,,,,,,,,,,,8,1.889,1,,,,,,0.336829857,-0.386395772,1,0,0,1.8888,Pumice_rect,8,0,8,0,1,
655a655f62fde845d4789149,TCN,2024-06-20_15h36.18.212,LearnStrategy,2023.2.3,Linux x86_64,59.88023952,6,2,10,,,,,,,,2,11,,,,,,,,,,,8,3.02,0,,,,,,0.391436965,-0.396379753,1,0,0,3.0202,Pumice_rect,9,0,9,0,1,
655a655f62fde845d4789149,TCN,2024-06-20_15h36.18.212,LearnStrategy,2023.2.3,Linux x86_64,59.88023952,6,2,11,,,,,,,,6,05,,,,,,,,,,,6,2.131,1,,,,,,-0.14252592,-0.398165597,1,0,0,2.131,Pegmatite_rect,10,0,10,0,1,
655a655f62fde845d4789149,TCN,2024-06-20_15h36.18.212,LearnStrategy,2023.2.3,Linux x86_64,59.88023952,6,2,12,,,,,,,,8,06,,,,,,,,,,,8,1.209,1,,,,,,0.375219133,-0.402763013,1,0,0,1.209,Pumice_rect,11,0,11,0,1,
655a655f62fde845d4789149,TCN,2024-06-20_15h36.18.212,LearnStrategy,2023.2.3,Linux x86_64,59.88023952,6,2,13,,,,,,,,3,15,,,,,,,,,,,4,1.832,0,,,,,,0.414124524,-0.253536366,1,0,0,1.8316,Gabbro_rect,12,0,12,0,1,
655a655f62fde845d4789149,TCN,2024-06-20_15h36.18.212,LearnStrategy,2023.2.3,Linux x86_64,59.88023952,6,2,14,,,,,,,,2,06,,,,,,,,,,,2,1.309,1,,,,,,-0.13168229,-0.231779028,1,0,0,1.3088,Basalt_rect,13,0,13,0,1,
655a655f62fde845d4789149,TCN,2024-06-20_15h36.18.212,LearnStrategy,2023.2.3,Linux x86_64,59.88023952,6,2,15,,,,,,,,7,04,,,,,,,,,,,3,4.639,0,,,,,,0.175976153,-0.259644826,1,0,0,4.6392,Diorite_rect,14,0,14,0,1,
655a655f62fde845d4789149,TCN,2024-06-20_15h36.18.212,LearnStrategy,2023.2.3,Linux x86_64,59.88023952,6,2,16,,,,,,,,3,06,,,,,,,,,,,7,3.734,0,,,,,,0.085928952,-0.396313067,1,0,0,3.7343,Peridotite_rect,15,0,15,0,1,
655a655f62fde845d4789149,TCN,2024-06-20_15h36.18.212,LearnStrategy,2023.2.3,Linux x86_64,59.88023952,7,1,1,0.043380808,-0.000237465,1,0,0,2.1125,rock_grid_rect_2,7,12,-1,-1,2.112,0.038767709,-0.389825256,1,0,0,2.1882,Peridotite_rect,7,2.188,1,0,0,0,0,1,,,,,,,,,,,,,
655a655f62fde845d4789149,TCN,2024-06-20_15h36.18.212,LearnStrategy,2023.2.3,Linux x86_64,59.88023952,7,1,2,0.016375789,-0.018382567,1,0,0,1.2426,rock_grid_rect_2,8,10,-1,-1,1.243,0.341476864,-0.385651765,1,0,0,2.5452,Pumice_rect,8,2.545,1,1,0,1,0,1,,,,,,,,,,,,,
655a655f62fde845d4789149,TCN,2024-06-20_15h36.18.212,LearnStrategy,2023.2.3,Linux x86_64,59.88023952,7,1,3,-0.081688492,0.005303206,1,0,0,1.6431,rock_grid_rect_2,5,10,-1,-1,1.643,-0.38601734,-0.397645244,1,0,0,1.3415,Obsidian_rect,5,1.341,1,2,0,2,0,1,,,,,,,,,,,,,
655a655f62fde845d4789149,TCN,2024-06-20_15h36.18.212,LearnStrategy,2023.2.3,Linux x86_64,59.88023952,7,1,4,0.035058128,0.010768184,1,0,0,1.4451,rock_grid_rect_2,3,09,-1,-1,1.445,0.14933904,-0.261649238,1,0,0,5.6811,Diorite_rect,3,5.681,1,3,0,3,0,1,,,,,,,,,,,,,
655a655f62fde845d4789149,TCN,2024-06-20_15h36.18.212,LearnStrategy,2023.2.3,Linux x86_64,59.88023952,7,1,5,0.055225584,-0.013130471,1,0,0,1.0422,rock_grid_rect_2,7,02,-1,-1,1.042,0.383609772,-0.241732138,1,0,0,3.7322,Gabbro_rect,4,3.732,0,4,0,4,0,1,,,,,,,,,,,,,
655a655f62fde845d4789149,TCN,2024-06-20_15h36.18.212,LearnStrategy,2023.2.3,Linux x86_64,59.88023952,7,1,6,-0.03209326,-0.005208333,1,0,0,2.093,rock_grid_rect_2,6,09,-1,-1,2.093,-0.14560431,-0.38547424,1,0,0,4.0754,Pegmatite_rect,6,4.075,1,5,0,5,0,1,,,,,,,,,,,,,
655a655f62fde845d4789149,TCN,2024-06-20_15h36.18.212,LearnStrategy,2023.2.3,Linux x86_64,59.88023952,7,1,7,-0.034684428,0.002619461,1,0,0,5.3132,rock_grid_rect_2,2,04,-1,-1,5.313,-0.104779208,-0.26164182,1,0,0,1.8448,Basalt_rect,2,1.845,1,6,0,6,0,1,,,,,,,,,,,,,
655a655f62fde845d4789149,TCN,2024-06-20_15h36.18.212,LearnStrategy,2023.2.3,Linux x86_64,59.88023952,7,1,8,0.000909028,0.000446743,1,0,0,1.1838,rock_grid_rect_2,1,09,-1,-1,1.184,0.403079987,-0.240422496,1,0,0,2.8258,Gabbro_rect,4,2.826,0,7,0,7,0,1,,,,,,,,,,,,,
655a655f62fde845d4789149,TCN,2024-06-20_15h36.18.212,LearnStrategy,2023.2.3,Linux x86_64,59.88023952,7,1,9,-0.017087089,-0.009822987,1,0,0,1.0098,rock_grid_rect_2,6,07,-1,-1,1.01,-0.166774397,-0.410808563,1,0,0,1.2176,Pegmatite_rect,6,1.218,1,8,0,8,0,1,,,,,,,,,,,,,
655a655f62fde845d4789149,TCN,2024-06-20_15h36.18.212,LearnStrategy,2023.2.3,Linux x86_64,59.88023952,7,1,10,0.048435847,-0.013864588,1,0,0,1.0457,rock_grid_rect_2,3,12,-1,-1,1.046,0.093644107,-0.244696087,1,0,0,3.1781,Diorite_rect,3,3.178,1,9,0,9,0,1,,,,,,,,,,,,,
655a655f62fde845d4789149,TCN,2024-06-20_15h36.18.212,LearnStrategy,2023.2.3,Linux x86_64,59.88023952,7,1,11,0.016679057,-0.009600498,1,0,0,1.0584,rock_grid_rect_2,4,14,-1,-1,1.058,0.441559544,-0.243624016,1,0,0,2.358,Gabbro_rect,4,2.358,1,10,0,10,0,1,,,,,,,,,,,,,
655a655f62fde845d4789149,TCN,2024-06-20_15h36.18.212,LearnStrategy,2023.2.3,Linux x86_64,59.88023952,7,1,12,0.01578663,-0.022862646,1,0,0,0.9767,rock_grid_rect_2,5,11,-1,-1,0.977,-0.456387661,-0.396254999,1,0,0,2.2882,Obsidian_rect,5,2.288,1,11,0,11,0,1,,,,,,,,,,,,,
655a655f62fde845d4789149,TCN,2024-06-20_15h36.18.212,LearnStrategy,2023.2.3,Linux x86_64,59.88023952,7,1,13,0.015875287,0.006261649,1,0,0,1.2111,rock_grid_rect_2,1,11,-1,-1,1.211,-0.423397523,-0.266384902,1,0,0,1.5236,Andesite_rect,1,1.524,1,12,0,12,0,1,,,,,,,,,,,,,
655a655f62fde845d4789149,TCN,2024-06-20_15h36.18.212,LearnStrategy,2023.2.3,Linux x86_64,59.88023952,7,1,14,0.013136051,-0.00757115,1,0,0,1.0762,rock_grid_rect_2,4,11,-1,-1,1.076,-0.079850303,-0.256403605,1,0,0,1.3566,Basalt_rect,2,1.357,0,13,0,13,0,1,,,,,,,,,,,,,
655a655f62fde845d4789149,TCN,2024-06-20_15h36.18.212,LearnStrategy,2023.2.3,Linux x86_64,59.88023952,7,1,15,0.000683255,-0.000552495,1,0,0,1.1152,rock_grid_rect_2,2,09,-1,-1,1.115,0.416300314,-0.246383384,1,0,0,2.2652,Gabbro_rect,4,2.265,0,14,0,14,0,1,,,,,,,,,,,,,
655a655f62fde845d4789149,TCN,2024-06-20_15h36.18.212,LearnStrategy,2023.2.3,Linux x86_64,59.88023952,7,1,16,0.01380327,-0.012431745,1,0,0,1.0421,rock_grid_rect_2,8,04,-1,-1,1.042,0.366296698,-0.388561319,1,0,0,1.3279,Pumice_rect,8,1.328,1,15,0,15,0,1,,,,,,,,,,,,,
655a655f62fde845d4789149,TCN,2024-06-20_15h36.18.212,LearnStrategy,2023.2.3,Linux x86_64,59.88023952,7,2,1,,,,,,,,5,08,,,,,,,,,,,5,1.509,1,,,,,,-0.382270142,-0.402681916,1,0,0,1.5085,Obsidian_rect,0,0,0,0,1,
655a655f62fde845d4789149,TCN,2024-06-20_15h36.18.212,LearnStrategy,2023.2.3,Linux x86_64,59.88023952,7,2,2,,,,,,,,4,01,,,,,,,,,,,1,3.105,0,,,,,,-0.382872299,-0.268543597,1,0,0,3.105,Andesite_rect,1,0,1,0,1,
655a655f62fde845d4789149,TCN,2024-06-20_15h36.18.212,LearnStrategy,2023.2.3,Linux x86_64,59.88023952,7,2,3,,,,,,,,5,07,,,,,,,,,,,5,1.194,1,,,,,,-0.444738247,-0.389545229,1,0,0,1.1944,Obsidian_rect,2,0,2,0,1,
655a655f62fde845d4789149,TCN,2024-06-20_15h36.18.212,LearnStrategy,2023.2.3,Linux x86_64,59.88023952,7,2,4,,,,,,,,8,14,,,,,,,,,,,8,1.22,1,,,,,,0.389495708,-0.391298365,1,0,0,1.2199,Pumice_rect,3,0,3,0,1,
655a655f62fde845d4789149,TCN,2024-06-20_15h36.18.212,LearnStrategy,2023.2.3,Linux x86_64,59.88023952,7,2,5,,,,,,,,2,06,,,,,,,,,,,2,1.258,1,,,,,,-0.088009799,-0.246767609,1,0,0,1.2584,Basalt_rect,4,0,4,0,1,
655a655f62fde845d4789149,TCN,2024-06-20_15h36.18.212,LearnStrategy,2023.2.3,Linux x86_64,59.88023952,7,2,6,,,,,,,,1,10,,,,,,,,,,,1,3.778,1,,,,,,-0.350143645,-0.233332387,1,0,0,3.7778,Andesite_rect,5,0,5,0,1,
655a655f62fde845d4789149,TCN,2024-06-20_15h36.18.212,LearnStrategy,2023.2.3,Linux x86_64,59.88023952,7,2,7,,,,,,,,2,01,,,,,,,,,,,2,1.556,1,,,,,,-0.162936175,-0.252143507,1,0,0,1.5555,Basalt_rect,6,0,6,0,1,
655a655f62fde845d4789149,TCN,2024-06-20_15h36.18.212,LearnStrategy,2023.2.3,Linux x86_64,59.88023952,7,2,8,,,,,,,,3,08,,,,,,,,,,,3,3.599,1,,,,,,0.08972394,-0.26724992,1,0,0,3.5989,Diorite_rect,7,0,7,0,1,
655a655f62fde845d4789149,TCN,2024-06-20_15h36.18.212,LearnStrategy,2023.2.3,Linux x86_64,59.88023952,7,2,9,,,,,,,,8,03,,,,,,,,,,,8,1.599,1,,,,,,0.349078002,-0.410789772,1,0,0,1.5994,Pumice_rect,8,0,8,0,1,
655a655f62fde845d4789149,TCN,2024-06-20_15h36.18.212,LearnStrategy,2023.2.3,Linux x86_64,59.88023952,7,2,10,,,,,,,,6,10,,,,,,,,,,,6,1.348,1,,,,,,-0.18286267,-0.409661116,1,0,0,1.3475,Pegmatite_rect,9,0,9,0,1,
655a655f62fde845d4789149,TCN,2024-06-20_15h36.18.212,LearnStrategy,2023.2.3,Linux x86_64,59.88023952,7,2,11,,,,,,,,3,14,,,,,,,,,,,7,1.433,0,,,,,,0.057475549,-0.412724248,1,0,0,1.4332,Peridotite_rect,10,0,10,0,1,
655a655f62fde845d4789149,TCN,2024-06-20_15h36.18.212,LearnStrategy,2023.2.3,Linux x86_64,59.88023952,7,2,12,,,,,,,,7,14,,,,,,,,,,,7,1.936,1,,,,,,0.122750671,-0.394785704,1,0,0,1.9361,Peridotite_rect,11,0,11,0,1,
655a655f62fde845d4789149,TCN,2024-06-20_15h36.18.212,LearnStrategy,2023.2.3,Linux x86_64,59.88023952,7,2,13,,,,,,,,1,14,,,,,,,,,,,3,2.032,0,,,,,,0.123305356,-0.258559616,1,0,0,2.0322,Diorite_rect,12,0,12,0,1,
655a655f62fde845d4789149,TCN,2024-06-20_15h36.18.212,LearnStrategy,2023.2.3,Linux x86_64,59.88023952,7,2,14,,,,,,,,7,13,,,,,,,,,,,4,2.265,0,,,,,,0.339095645,-0.262997027,1,0,0,2.2655,Gabbro_rect,13,0,13,0,1,
655a655f62fde845d4789149,TCN,2024-06-20_15h36.18.212,LearnStrategy,2023.2.3,Linux x86_64,59.88023952,7,2,15,,,,,,,,6,11,,,,,,,,,,,6,1.094,1,,,,,,-0.128632228,-0.394083588,1,0,0,1.094,Pegmatite_rect,14,0,14,0,1,
655a655f62fde845d4789149,TCN,2024-06-20_15h36.18.212,LearnStrategy,2023.2.3,Linux x86_64,59.88023952,7,2,16,,,,,,,,4,05,,,,,,,,,,,7,1.863,0,,,,,,0.100209201,-0.406637616,1,0,0,1.8634,Peridotite_rect,15,0,15,0,1,
655a655f62fde845d4789149,TCN,2024-06-20_15h36.18.212,LearnStrategy,2023.2.3,Linux x86_64,59.88023952,8,1,1,-0.028010969,0.000246401,1,0,0,4.912,rock_grid_rect_2,8,09,-1,-1,4.912,0.379131035,-0.420065209,1,0,0,3.2301,Pumice_rect,8,3.23,1,0,0,0,0,1,,,,,,,,,,,,,
655a655f62fde845d4789149,TCN,2024-06-20_15h36.18.212,LearnStrategy,2023.2.3,Linux x86_64,59.88023952,8,1,2,0.01404621,0.002130226,1,0,0,1.3511,rock_grid_rect_2,3,11,-1,-1,1.351,0.367052855,-0.246130272,1,0,0,4.1895,Gabbro_rect,4,4.189,0,1,0,1,0,1,,,,,,,,,,,,,
655a655f62fde845d4789149,TCN,2024-06-20_15h36.18.212,LearnStrategy,2023.2.3,Linux x86_64,59.88023952,8,1,3,0.099739357,-0.008679425,1,0,0,1.2756,rock_grid_rect_2,2,02,-1,-1,1.276,-0.156916654,-0.248935205,1,0,0,1.2258,Basalt_rect,2,1.226,1,2,0,2,0,1,,,,,,,,,,,,,
655a655f62fde845d4789149,TCN,2024-06-20_15h36.18.212,LearnStrategy,2023.2.3,Linux x86_64,59.88023952,8,1,4,-0.021625519,-0.013253106,1,0,0,1.828,rock_grid_rect_2,6,16,-1,-1,1.828,-0.088750486,-0.41084777,1,0,0,1.9129,Pegmatite_rect,6,1.913,1,3,0,3,0,1,,,,,,,,,,,,,
655a655f62fde845d4789149,TCN,2024-06-20_15h36.18.212,LearnStrategy,2023.2.3,Linux x86_64,59.88023952,8,1,5,0.041308156,0.007038752,1,0,0,1.2441,rock_grid_rect_2,3,07,-1,-1,1.244,0.108948319,-0.266064114,1,0,0,1.8721,Diorite_rect,3,1.872,1,4,0,4,0,1,,,,,,,,,,,,,
655a655f62fde845d4789149,TCN,2024-06-20_15h36.18.212,LearnStrategy,2023.2.3,Linux x86_64,59.88023952,8,1,6,0.023016965,-0.011923896,1,0,0,1.0446,rock_grid_rect_2,7,08,-1,-1,1.045,-0.441358778,-0.258460999,1,0,0,2.2968,Andesite_rect,1,2.297,0,5,0,5,0,1,,,,,,,,,,,,,
655a655f62fde845d4789149,TCN,2024-06-20_15h36.18.212,LearnStrategy,2023.2.3,Linux x86_64,59.88023952,8,1,7,0.0483207,0.006719342,1,0,0,1.2257,rock_grid_rect_2,5,05,-1,-1,1.226,-0.362810488,-0.412676705,1,0,0,1.4349,Obsidian_rect,5,1.435,1,6,0,6,0,1,,,,,,,,,,,,,
655a655f62fde845d4789149,TCN,2024-06-20_15h36.18.212,LearnStrategy,2023.2.3,Linux x86_64,59.88023952,8,1,8,0.027583158,-0.023904377,1,0,0,1.8623,rock_grid_rect_2,6,12,-1,-1,1.862,-0.074388504,-0.395025677,1,0,0,1.6116,Pegmatite_rect,6,1.612,1,7,0,7,0,1,,,,,,,,,,,,,
655a655f62fde845d4789149,TCN,2024-06-20_15h36.18.212,LearnStrategy,2023.2.3,Linux x86_64,59.88023952,8,1,9,0.003770546,-0.006914563,1,0,0,2.2952,rock_grid_rect_2,1,07,-1,-1,2.295,0.17361867,-0.262059671,1,0,0,1.2132,Diorite_rect,3,1.213,0,8,0,8,0,1,,,,,,,,,,,,,
655a655f62fde845d4789149,TCN,2024-06-20_15h36.18.212,LearnStrategy,2023.2.3,Linux x86_64,59.88023952,8,1,10,0.037594901,0.002017728,1,0,0,1.2073,rock_grid_rect_2,1,05,-1,-1,1.207,0.11070195,-0.270405522,1,0,0,1.4094,Diorite_rect,3,1.409,0,9,0,9,0,1,,,,,,,,,,,,,
655a655f62fde845d4789149,TCN,2024-06-20_15h36.18.212,LearnStrategy,2023.2.3,Linux x86_64,59.88023952,8,1,11,0.022785681,0.005583869,1,0,0,0.9092,rock_grid_rect_2,4,16,-1,-1,0.909,0.446045911,-0.259653515,1,0,0,1.6808,Gabbro_rect,4,1.681,1,10,0,10,0,1,,,,,,,,,,,,,
655a655f62fde845d4789149,TCN,2024-06-20_15h36.18.212,LearnStrategy,2023.2.3,Linux x86_64,59.88023952,8,1,12,0.055859389,-0.00126768,1,0,0,1.0811,rock_grid_rect_2,8,05,-1,-1,1.081,0.371182477,-0.419672366,1,0,0,2.3586,Pumice_rect,8,2.359,1,11,0,11,0,1,,,,,,,,,,,,,
655a655f62fde845d4789149,TCN,2024-06-20_15h36.18.212,LearnStrategy,2023.2.3,Linux x86_64,59.88023952,8,1,13,0.006277508,-0.003533999,1,0,0,1.0617,rock_grid_rect_2,2,10,-1,-1,1.062,-0.389507541,-0.260371738,1,0,0,3.2149,Andesite_rect,1,3.215,0,12,0,12,0,1,,,,,,,,,,,,,
655a655f62fde845d4789149,TCN,2024-06-20_15h36.18.212,LearnStrategy,2023.2.3,Linux x86_64,59.88023952,8,1,14,-0.06122469,0.003156627,1,0,0,0.9424,rock_grid_rect_2,4,10,-1,-1,0.942,-0.360114239,-0.25167557,1,0,0,2.8202,Andesite_rect,1,2.82,0,13,0,13,0,1,,,,,,,,,,,,,
655a655f62fde845d4789149,TCN,2024-06-20_15h36.18.212,LearnStrategy,2023.2.3,Linux x86_64,59.88023952,8,1,15,-0.041028129,-0.019945003,1,0,0,1.0594,rock_grid_rect_2,7,07,-1,-1,1.059,0.14559329,-0.405634492,1,0,0,1.8476,Peridotite_rect,7,1.848,1,14,0,14,0,1,,,,,,,,,,,,,
655a655f62fde845d4789149,TCN,2024-06-20_15h36.18.212,LearnStrategy,2023.2.3,Linux x86_64,59.88023952,8,1,16,0.069547794,0.006817217,1,0,0,1.9118,rock_grid_rect_2,5,04,-1,-1,1.912,-0.421164795,-0.409900453,1,0,0,1.8775,Obsidian_rect,5,1.877,1,15,0,15,0,1,,,,,,,,,,,,,
655a655f62fde845d4789149,TCN,2024-06-20_15h36.18.212,LearnStrategy,2023.2.3,Linux x86_64,59.88023952,8,2,1,,,,,,,,7,16,,,,,,,,,,,7,3.468,1,,,,,,0.093741452,-0.415503255,1,0,0,3.4683,Peridotite_rect,0,0,0,0,1,
655a655f62fde845d4789149,TCN,2024-06-20_15h36.18.212,LearnStrategy,2023.2.3,Linux x86_64,59.88023952,8,2,2,,,,,,,,3,15,,,,,,,,,,,3,2.68,1,,,,,,0.090360218,-0.253716292,1,0,0,2.6804,Diorite_rect,1,0,1,0,1,
655a655f62fde845d4789149,TCN,2024-06-20_15h36.18.212,LearnStrategy,2023.2.3,Linux x86_64,59.88023952,8,2,3,,,,,,,,2,11,,,,,,,,,,,1,3.188,0,,,,,,-0.328833792,-0.255106749,1,0,0,3.1885,Andesite_rect,2,0,2,0,1,
655a655f62fde845d4789149,TCN,2024-06-20_15h36.18.212,LearnStrategy,2023.2.3,Linux x86_64,59.88023952,8,2,4,,,,,,,,5,16,,,,,,,,,,,5,1.035,1,,,,,,-0.394698355,-0.390397178,1,0,0,1.0355,Obsidian_rect,3,0,3,0,1,
655a655f62fde845d4789149,TCN,2024-06-20_15h36.18.212,LearnStrategy,2023.2.3,Linux x86_64,59.88023952,8,2,5,,,,,,,,4,03,,,,,,,,,,,4,2.67,1,,,,,,0.389110283,-0.26004544,1,0,0,2.6704,Gabbro_rect,4,0,4,0,1,
655a655f62fde845d4789149,TCN,2024-06-20_15h36.18.212,LearnStrategy,2023.2.3,Linux x86_64,59.88023952,8,2,6,,,,,,,,3,13,,,,,,,,,,,3,2.583,1,,,,,,0.11757893,-0.23384843,1,0,0,2.5829,Diorite_rect,5,0,5,0,1,
655a655f62fde845d4789149,TCN,2024-06-20_15h36.18.212,LearnStrategy,2023.2.3,Linux x86_64,59.88023952,8,2,7,,,,,,,,1,02,,,,,,,,,,,1,1.694,1,,,,,,-0.417437412,-0.257555997,1,0,0,1.6938,Andesite_rect,6,0,6,0,1,
655a655f62fde845d4789149,TCN,2024-06-20_15h36.18.212,LearnStrategy,2023.2.3,Linux x86_64,59.88023952,8,2,8,,,,,,,,7,05,,,,,,,,,,,7,3.425,1,,,,,,0.148618698,-0.40978135,1,0,0,3.425,Peridotite_rect,7,0,7,0,1,
655a655f62fde845d4789149,TCN,2024-06-20_15h36.18.212,LearnStrategy,2023.2.3,Linux x86_64,59.88023952,8,2,9,,,,,,,,2,08,,,,,,,,,,,2,1.479,1,,,,,,-0.132313905,-0.249073099,1,0,0,1.4789,Basalt_rect,8,0,8,0,1,
655a655f62fde845d4789149,TCN,2024-06-20_15h36.18.212,LearnStrategy,2023.2.3,Linux x86_64,59.88023952,8,2,10,,,,,,,,5,06,,,,,,,,,,,5,1.715,1,,,,,,-0.417905772,-0.389948739,1,0,0,1.7149,Obsidian_rect,9,0,9,0,1,
655a655f62fde845d4789149,TCN,2024-06-20_15h36.18.212,LearnStrategy,2023.2.3,Linux x86_64,59.88023952,8,2,11,,,,,,,,8,06,,,,,,,,,,,8,1.459,1,,,,,,0.358233417,-0.402472107,1,0,0,1.4587,Pumice_rect,10,0,10,0,1,
655a655f62fde845d4789149,TCN,2024-06-20_15h36.18.212,LearnStrategy,2023.2.3,Linux x86_64,59.88023952,8,2,12,,,,,,,,6,06,,,,,,,,,,,6,1.159,1,,,,,,-0.067322978,-0.38623718,1,0,0,1.1587,Pegmatite_rect,11,0,11,0,1,
655a655f62fde845d4789149,TCN,2024-06-20_15h36.18.212,LearnStrategy,2023.2.3,Linux x86_64,59.88023952,8,2,13,,,,,,,,1,16,,,,,,,,,,,7,2.825,0,,,,,,0.198942891,-0.404446567,1,0,0,2.8246,Peridotite_rect,12,0,12,0,1,
655a655f62fde845d4789149,TCN,2024-06-20_15h36.18.212,LearnStrategy,2023.2.3,Linux x86_64,59.88023952,8,2,14,,,,,,,,8,08,,,,,,,,,,,8,1.324,1,,,,,,0.374407592,-0.39501056,1,0,0,1.3238,Pumice_rect,13,0,13,0,1,
655a655f62fde845d4789149,TCN,2024-06-20_15h36.18.212,LearnStrategy,2023.2.3,Linux x86_64,59.88023952,8,2,15,,,,,,,,6,03,,,,,,,,,,,6,1.083,1,,,,,,-0.129022598,-0.389535904,1,0,0,1.0832,Pegmatite_rect,14,0,14,0,1,
655a655f62fde845d4789149,TCN,2024-06-20_15h36.18.212,LearnStrategy,2023.2.3,Linux x86_64,59.88023952,8,2,16,,,,,,,,4,13,,,,,,,,,,,6,1.48,0,,,,,,-0.129022598,-0.389535904,1,0,0,1.48,Pegmatite_rect,15,0,15,0,1,
655a655f62fde845d4789149,TCN,2024-06-20_15h36.18.212,LearnStrategy,2023.2.3,Linux x86_64,59.88023952,9,1,1,0.06942085,0.023471161,1,0,0,0.8976,rock_grid_rect_2,4,08,-1,-1,0.898,0.454881315,-0.246629291,1,0,0,1.8568,Gabbro_rect,4,1.857,1,0,0,0,0,1,,,,,,,,,,,,,
655a655f62fde845d4789149,TCN,2024-06-20_15h36.18.212,LearnStrategy,2023.2.3,Linux x86_64,59.88023952,9,1,2,0.019583243,0.006690237,1,0,0,1.2453,rock_grid_rect_2,5,14,-1,-1,1.245,-0.367761117,-0.394858466,1,0,0,1.2943,Obsidian_rect,5,1.294,1,1,0,1,0,1,,,,,,,,,,,,,
655a655f62fde845d4789149,TCN,2024-06-20_15h36.18.212,LearnStrategy,2023.2.3,Linux x86_64,59.88023952,9,1,3,0.011060856,-0.005202081,1,0,0,2.179,rock_grid_rect_2,6,13,-1,-1,2.179,-0.142556155,-0.409166972,1,0,0,7.1114,Pegmatite_rect,6,7.111,1,2,0,2,0,1,,,,,,,,,,,,,
655a655f62fde845d4789149,TCN,2024-06-20_15h36.18.212,LearnStrategy,2023.2.3,Linux x86_64,59.88023952,9,1,4,0.061790749,0.000259399,1,0,0,1.6765,rock_grid_rect_2,1,06,-1,-1,1.676,-0.348323328,-0.257215641,1,0,0,8.1855,Andesite_rect,1,8.185,1,3,0,3,0,1,,,,,,,,,,,,,
655a655f62fde845d4789149,TCN,2024-06-20_15h36.18.212,LearnStrategy,2023.2.3,Linux x86_64,59.88023952,9,1,5,0.024541996,-0.010781465,1,0,0,1.1755,rock_grid_rect_2,2,05,-1,-1,1.176,-0.102729797,-0.25660642,1,0,0,1.1449,Basalt_rect,2,1.145,1,4,0,4,0,1,,,,,,,,,,,,,
655a655f62fde845d4789149,TCN,2024-06-20_15h36.18.212,LearnStrategy,2023.2.3,Linux x86_64,59.88023952,9,1,6,0.002432859,0.008117429,1,0,0,1.5955,rock_grid_rect_2,3,10,-1,-1,1.595,0.183173427,-0.400953999,1,0,0,2.3954,Peridotite_rect,7,2.395,0,5,0,5,0,1,,,,,,,,,,,,,
655a655f62fde845d4789149,TCN,2024-06-20_15h36.18.212,LearnStrategy,2023.2.3,Linux x86_64,59.88023952,9,1,7,0.091645347,-0.00026219,1,0,0,1.9453,rock_grid_rect_2,7,15,-1,-1,1.945,0.0687205,-0.410156603,1,0,0,2.0021,Peridotite_rect,7,2.002,1,6,0,6,0,1,,,,,,,,,,,,,
655a655f62fde845d4789149,TCN,2024-06-20_15h36.18.212,LearnStrategy,2023.2.3,Linux x86_64,59.88023952,9,1,8,0.018631759,-0.003394056,1,0,0,1.0315,rock_grid_rect_2,7,10,-1,-1,1.032,0.128502316,-0.401606736,1,0,0,1.3106,Peridotite_rect,7,1.311,1,7,0,7,0,1,,,,,,,,,,,,,
655a655f62fde845d4789149,TCN,2024-06-20_15h36.18.212,LearnStrategy,2023.2.3,Linux x86_64,59.88023952,9,1,9,0.078413363,0.000187627,1,0,0,0.9656,rock_grid_rect_2,8,02,-1,-1,0.966,0.368490996,-0.394922822,1,0,0,2.0662,Pumice_rect,8,2.066,1,8,0,8,0,1,,,,,,,,,,,,,
655a655f62fde845d4789149,TCN,2024-06-20_15h36.18.212,LearnStrategy,2023.2.3,Linux x86_64,59.88023952,9,1,10,0.018111547,-0.002207509,1,0,0,0.9277,rock_grid_rect_2,3,16,-1,-1,0.928,0.364606222,-0.266379674,1,0,0,1.7798,Gabbro_rect,4,1.78,0,9,0,9,0,1,,,,,,,,,,,,,
655a655f62fde845d4789149,TCN,2024-06-20_15h36.18.212,LearnStrategy,2023.2.3,Linux x86_64,59.88023952,9,1,11,0.011919587,-0.017878497,1,0,0,0.9953,rock_grid_rect_2,1,01,-1,-1,0.995,-0.367626543,-0.259171309,1,0,0,3.2779,Andesite_rect,1,3.278,1,10,0,10,0,1,,,,,,,,,,,,,
655a655f62fde845d4789149,TCN,2024-06-20_15h36.18.212,LearnStrategy,2023.2.3,Linux x86_64,59.88023952,9,1,12,-0.000834924,0.000244035,1,0,0,1.1586,rock_grid_rect_2,4,12,-1,-1,1.159,-0.16151188,-0.256646686,1,0,0,1.3838,Basalt_rect,2,1.384,0,11,0,11,0,1,,,,,,,,,,,,,
655a655f62fde845d4789149,TCN,2024-06-20_15h36.18.212,LearnStrategy,2023.2.3,Linux x86_64,59.88023952,9,1,13,0.100596816,0.018560798,1,0,0,1.1121,rock_grid_rect_2,5,02,-1,-1,1.112,-0.400158388,-0.399456589,1,0,0,2.1566,Obsidian_rect,5,2.157,1,12,0,12,0,1,,,,,,,,,,,,,
655a655f62fde845d4789149,TCN,2024-06-20_15h36.18.212,LearnStrategy,2023.2.3,Linux x86_64,59.88023952,9,1,14,0.08693801,-0.021529833,1,0,0,2.1954,rock_grid_rect_2,2,14,-1,-1,2.195,0.476646565,-0.255283426,1,0,0,3.851,Gabbro_rect,4,3.851,0,13,0,13,0,1,,,,,,,,,,,,,
655a655f62fde845d4789149,TCN,2024-06-20_15h36.18.212,LearnStrategy,2023.2.3,Linux x86_64,59.88023952,9,1,15,0.054914616,0.00476604,1,0,0,0.8592,rock_grid_rect_2,6,15,-1,-1,0.859,-0.167207577,-0.412474526,1,0,0,2.2366,Pegmatite_rect,6,2.237,1,14,0,14,0,1,,,,,,,,,,,,,
655a655f62fde845d4789149,TCN,2024-06-20_15h36.18.212,LearnStrategy,2023.2.3,Linux x86_64,59.88023952,9,1,16,0.085059484,-0.003455798,1,0,0,1.4428,rock_grid_rect_2,8,15,-1,-1,1.443,0.402355477,-0.402410225,1,0,0,2.0576,Pumice_rect,8,2.058,1,15,0,15,0,1,,,,,,,,,,,,,
655a655f62fde845d4789149,TCN,2024-06-20_15h36.18.212,LearnStrategy,2023.2.3,Linux x86_64,59.88023952,9,2,1,,,,,,,,1,03,,,,,,,,,,,1,3.085,1,,,,,,-0.348644292,-0.258953236,1,0,0,3.0849,Andesite_rect,0,0,0,0,1,
655a655f62fde845d4789149,TCN,2024-06-20_15h36.18.212,LearnStrategy,2023.2.3,Linux x86_64,59.88023952,9,2,2,,,,,,,,3,06,,,,,,,,,,,3,2.425,1,,,,,,0.193340725,-0.269040355,1,0,0,2.4247,Diorite_rect,1,0,1,0,1,
655a655f62fde845d4789149,TCN,2024-06-20_15h36.18.212,LearnStrategy,2023.2.3,Linux x86_64,59.88023952,9,2,3,,,,,,,,4,15,,,,,,,,,,,6,2.052,0,,,,,,-0.107106597,-0.413683361,1,0,0,2.0518,Pegmatite_rect,2,0,2,0,1,
655a655f62fde845d4789149,TCN,2024-06-20_15h36.18.212,LearnStrategy,2023.2.3,Linux x86_64,59.88023952,9,2,4,,,,,,,,6,08,,,,,,,,,,,6,1.011,1,,,,,,-0.110726745,-0.410580458,1,0,0,1.0109,Pegmatite_rect,3,0,3,0,1,
655a655f62fde845d4789149,TCN,2024-06-20_15h36.18.212,LearnStrategy,2023.2.3,Linux x86_64,59.88023952,9,2,5,,,,,,,,3,02,,,,,,,,,,,3,1.351,1,,,,,,0.121555823,-0.262458731,1,0,0,1.3508,Diorite_rect,4,0,4,0,1,
655a655f62fde845d4789149,TCN,2024-06-20_15h36.18.212,LearnStrategy,2023.2.3,Linux x86_64,59.88023952,9,2,6,,,,,,,,5,12,,,,,,,,,,,5,1.234,1,,,,,,-0.43376686,-0.380492316,1,0,0,1.2338,Obsidian_rect,5,0,5,0,1,
655a655f62fde845d4789149,TCN,2024-06-20_15h36.18.212,LearnStrategy,2023.2.3,Linux x86_64,59.88023952,9,2,7,,,,,,,,5,09,,,,,,,,,,,5,1.044,1,,,,,,-0.323891251,-0.378760091,1,0,0,1.0444,Obsidian_rect,6,0,6,0,1,
655a655f62fde845d4789149,TCN,2024-06-20_15h36.18.212,LearnStrategy,2023.2.3,Linux x86_64,59.88023952,9,2,8,,,,,,,,2,16,,,,,,,,,,,4,2.044,0,,,,,,0.395776819,-0.254981924,1,0,0,2.0439,Gabbro_rect,7,0,7,0,1,
655a655f62fde845d4789149,TCN,2024-06-20_15h36.18.212,LearnStrategy,2023.2.3,Linux x86_64,59.88023952,9,2,9,,,,,,,,8,16,,,,,,,,,,,8,1.6,1,,,,,,0.386931101,-0.415058772,1,0,0,1.5995,Pumice_rect,8,0,8,0,1,
655a655f62fde845d4789149,TCN,2024-06-20_15h36.18.212,LearnStrategy,2023.2.3,Linux x86_64,59.88023952,9,2,10,,,,,,,,7,06,,,,,,,,,,,7,2.461,1,,,,,,0.090749811,-0.403474596,1,0,0,2.4607,Peridotite_rect,9,0,9,0,1,
655a655f62fde845d4789149,TCN,2024-06-20_15h36.18.212,LearnStrategy,2023.2.3,Linux x86_64,59.88023952,9,2,11,,,,,,,,8,13,,,,,,,,,,,8,1.459,1,,,,,,0.352993577,-0.407804348,1,0,0,1.4588,Pumice_rect,10,0,10,0,1,
655a655f62fde845d4789149,TCN,2024-06-20_15h36.18.212,LearnStrategy,2023.2.3,Linux x86_64,59.88023952,9,2,12,,,,,,,,4,09,,,,,,,,,,,7,3.528,0,,,,,,0.168664438,-0.391742353,1,0,0,3.5283,Peridotite_rect,11,0,11,0,1,
655a655f62fde845d4789149,TCN,2024-06-20_15h36.18.212,LearnStrategy,2023.2.3,Linux x86_64,59.88023952,9,2,13,,,,,,,,1,04,,,,,,,,,,,4,1.521,0,,,,,,0.431043696,-0.250422937,1,0,0,1.5211,Gabbro_rect,12,0,12,0,1,
655a655f62fde845d4789149,TCN,2024-06-20_15h36.18.212,LearnStrategy,2023.2.3,Linux x86_64,59.88023952,9,2,14,,,,,,,,2,12,,,,,,,,,,,8,1.234,0,,,,,,0.364177421,-0.380582951,1,0,0,1.2336,Pumice_rect,13,0,13,0,1,
655a655f62fde845d4789149,TCN,2024-06-20_15h36.18.212,LearnStrategy,2023.2.3,Linux x86_64,59.88023952,9,2,15,,,,,,,,7,04,,,,,,,,,,,1,4.8,0,,,,,,-0.415614905,-0.241499442,1,0,0,4.7999,Andesite_rect,14,0,14,0,1,
655a655f62fde845d4789149,TCN,2024-06-20_15h36.18.212,LearnStrategy,2023.2.3,Linux x86_64,59.88023952,9,2,16,,,,,,,,6,05,,,,,,,,,,,6,1.393,1,,,,,,-0.170362755,-0.411996559,1,0,0,1.3931,Pegmatite_rect,15,0,15,0,1,
655a655f62fde845d4789149,TCN,2024-06-20_15h36.18.212,LearnStrategy,2023.2.3,Linux x86_64,59.88023952,,,,,,,,,,,,,,,,,,,,,,,,,,,,,,,,,,,,,,,,,,,1
655a655f62fde845d4789149,TCN,2024-06-20_15h36.18.212,LearnStrategy,2023.2.3,Linux x86_64,59.88023952,,,,,,,,,,,,,,,,,,,,,,,,,,,,,,,,,,,,,,,,,,,
655a655f62fde845d4789149,TCN,2024-06-20_15h36.18.212,LearnStrategy,2023.2.3,Linux x86_64,59.88023952,,,,,,,,,,,2,02,1,1,,,,,,,,,,,,,,,,,,,,,,,,,,,,,
655a655f62fde845d4789149,TCN,2024-06-20_15h36.18.212,LearnStrategy,2023.2.3,Linux x86_64,59.88023952,,,,,,,,,,,5,04,1,2,,,,,,,,,,,,,,,,,,,,,,,,,,,,,
655a655f62fde845d4789149,TCN,2024-06-20_15h36.18.212,LearnStrategy,2023.2.3,Linux x86_64,59.88023952,,,,,,,,,,,8,05,1,3,,,,,,,,,,,,,,,,,,,,,,,,,,,,,
655a655f62fde845d4789149,TCN,2024-06-20_15h36.18.212,LearnStrategy,2023.2.3,Linux x86_64,59.88023952,,,,,,,,,,,7,08,1,4,,,,,,,,,,,,,,,,,,,,,,,,,,,,,
655a655f62fde845d4789149,TCN,2024-06-20_15h36.18.212,LearnStrategy,2023.2.3,Linux x86_64,59.88023952,,,,,,,,,,,2,04,1,5,,,,,,,,,,,,,,,,,,,,,,,,,,,,,
655a655f62fde845d4789149,TCN,2024-06-20_15h36.18.212,LearnStrategy,2023.2.3,Linux x86_64,59.88023952,,,,,,,,,,,7,02,1,6,,,,,,,,,,,,,,,,,,,,,,,,,,,,,
655a655f62fde845d4789149,TCN,2024-06-20_15h36.18.212,LearnStrategy,2023.2.3,Linux x86_64,59.88023952,,,,,,,,,,,1,11,1,7,,,,,,,,,,,,,,,,,,,,,,,,,,,,,
655a655f62fde845d4789149,TCN,2024-06-20_15h36.18.212,LearnStrategy,2023.2.3,Linux x86_64,59.88023952,,,,,,,,,,,5,14,1,8,,,,,,,,,,,,,,,,,,,,,,,,,,,,,
655a655f62fde845d4789149,TCN,2024-06-20_15h36.18.212,LearnStrategy,2023.2.3,Linux x86_64,59.88023952,,,,,,,,,,,1,09,2,1,,,,,,,,,,,,,,,,,,,,,,,,,,,,,
655a655f62fde845d4789149,TCN,2024-06-20_15h36.18.212,LearnStrategy,2023.2.3,Linux x86_64,59.88023952,,,,,,,,,,,7,15,2,2,,,,,,,,,,,,,,,,,,,,,,,,,,,,,
655a655f62fde845d4789149,TCN,2024-06-20_15h36.18.212,LearnStrategy,2023.2.3,Linux x86_64,59.88023952,,,,,,,,,,,1,06,2,3,,,,,,,,,,,,,,,,,,,,,,,,,,,,,
655a655f62fde845d4789149,TCN,2024-06-20_15h36.18.212,LearnStrategy,2023.2.3,Linux x86_64,59.88023952,,,,,,,,,,,2,09,2,4,,,,,,,,,,,,,,,,,,,,,,,,,,,,,
655a655f62fde845d4789149,TCN,2024-06-20_15h36.18.212,LearnStrategy,2023.2.3,Linux x86_64,59.88023952,,,,,,,,,,,3,12,2,5,,,,,,,,,,,,,,,,,,,,,,,,,,,,,
655a655f62fde845d4789149,TCN,2024-06-20_15h36.18.212,LearnStrategy,2023.2.3,Linux x86_64,59.88023952,,,,,,,,,,,1,01,2,6,,,,,,,,,,,,,,,,,,,,,,,,,,,,,
655a655f62fde845d4789149,TCN,2024-06-20_15h36.18.212,LearnStrategy,2023.2.3,Linux x86_64,59.88023952,,,,,,,,,,,4,08,2,7,,,,,,,,,,,,,,,,,,,,,,,,,,,,,
655a655f62fde845d4789149,TCN,2024-06-20_15h36.18.212,LearnStrategy,2023.2.3,Linux x86_64,59.88023952,,,,,,,,,,,5,11,2,8,,,,,,,,,,,,,,,,,,,,,,,,,,,,,
655a655f62fde845d4789149,TCN,2024-06-20_15h36.18.212,LearnStrategy,2023.2.3,Linux x86_64,59.88023952,,,,,,,,,,,5,05,3,1,,,,,,,,,,,,,,,,,,,,,,,,,,,,,
655a655f62fde845d4789149,TCN,2024-06-20_15h36.18.212,LearnStrategy,2023.2.3,Linux x86_64,59.88023952,,,,,,,,,,,3,09,3,2,,,,,,,,,,,,,,,,,,,,,,,,,,,,,
655a655f62fde845d4789149,TCN,2024-06-20_15h36.18.212,LearnStrategy,2023.2.3,Linux x86_64,59.88023952,,,,,,,,,,,7,12,3,3,,,,,,,,,,,,,,,,,,,,,,,,,,,,,
655a655f62fde845d4789149,TCN,2024-06-20_15h36.18.212,LearnStrategy,2023.2.3,Linux x86_64,59.88023952,,,,,,,,,,,4,11,3,4,,,,,,,,,,,,,,,,,,,,,,,,,,,,,
655a655f62fde845d4789149,TCN,2024-06-20_15h36.18.212,LearnStrategy,2023.2.3,Linux x86_64,59.88023952,,,,,,,,,,,6,13,3,5,,,,,,,,,,,,,,,,,,,,,,,,,,,,,
655a655f62fde845d4789149,TCN,2024-06-20_15h36.18.212,LearnStrategy,2023.2.3,Linux x86_64,59.88023952,,,,,,,,,,,3,16,3,6,,,,,,,,,,,,,,,,,,,,,,,,,,,,,
655a655f62fde845d4789149,TCN,2024-06-20_15h36.18.212,LearnStrategy,2023.2.3,Linux x86_64,59.88023952,,,,,,,,,,,7,10,3,7,,,,,,,,,,,,,,,,,,,,,,,,,,,,,
655a655f62fde845d4789149,TCN,2024-06-20_15h36.18.212,LearnStrategy,2023.2.3,Linux x86_64,59.88023952,,,,,,,,,,,4,16,3,8,,,,,,,,,,,,,,,,,,,,,,,,,,,,,
655a655f62fde845d4789149,TCN,2024-06-20_15h36.18.212,LearnStrategy,2023.2.3,Linux x86_64,59.88023952,,,,,,,,,,,8,02,4,1,,,,,,,,,,,,,,,,,,,,,,,,,,,,,
655a655f62fde845d4789149,TCN,2024-06-20_15h36.18.212,LearnStrategy,2023.2.3,Linux x86_64,59.88023952,,,,,,,,,,,1,07,4,2,,,,,,,,,,,,,,,,,,,,,,,,,,,,,
655a655f62fde845d4789149,TCN,2024-06-20_15h36.18.212,LearnStrategy,2023.2.3,Linux x86_64,59.88023952,,,,,,,,,,,6,07,4,3,,,,,,,,,,,,,,,,,,,,,,,,,,,,,
655a655f62fde845d4789149,TCN,2024-06-20_15h36.18.212,LearnStrategy,2023.2.3,Linux x86_64,59.88023952,,,,,,,,,,,2,10,4,4,,,,,,,,,,,,,,,,,,,,,,,,,,,,,
655a655f62fde845d4789149,TCN,2024-06-20_15h36.18.212,LearnStrategy,2023.2.3,Linux x86_64,59.88023952,,,,,,,,,,,3,11,4,5,,,,,,,,,,,,,,,,,,,,,,,,,,,,,
655a655f62fde845d4789149,TCN,2024-06-20_15h36.18.212,LearnStrategy,2023.2.3,Linux x86_64,59.88023952,,,,,,,,,,,5,10,4,6,,,,,,,,,,,,,,,,,,,,,,,,,,,,,
655a655f62fde845d4789149,TCN,2024-06-20_15h36.18.212,LearnStrategy,2023.2.3,Linux x86_64,59.88023952,,,,,,,,,,,6,09,4,7,,,,,,,,,,,,,,,,,,,,,,,,,,,,,
655a655f62fde845d4789149,TCN,2024-06-20_15h36.18.212,LearnStrategy,2023.2.3,Linux x86_64,59.88023952,,,,,,,,,,,6,16,4,8,,,,,,,,,,,,,,,,,,,,,,,,,,,,,
655a655f62fde845d4789149,TCN,2024-06-20_15h36.18.212,LearnStrategy,2023.2.3,Linux x86_64,59.88023952,,,,,,,,,,,8,04,5,1,,,,,,,,,,,,,,,,,,,,,,,,,,,,,
655a655f62fde845d4789149,TCN,2024-06-20_15h36.18.212,LearnStrategy,2023.2.3,Linux x86_64,59.88023952,,,,,,,,,,,3,10,5,2,,,,,,,,,,,,,,,,,,,,,,,,,,,,,
655a655f62fde845d4789149,TCN,2024-06-20_15h36.18.212,LearnStrategy,2023.2.3,Linux x86_64,59.88023952,,,,,,,,,,,3,07,5,3,,,,,,,,,,,,,,,,,,,,,,,,,,,,,
655a655f62fde845d4789149,TCN,2024-06-20_15h36.18.212,LearnStrategy,2023.2.3,Linux x86_64,59.88023952,,,,,,,,,,,2,05,5,4,,,,,,,,,,,,,,,,,,,,,,,,,,,,,
655a655f62fde845d4789149,TCN,2024-06-20_15h36.18.212,LearnStrategy,2023.2.3,Linux x86_64,59.88023952,,,,,,,,,,,4,14,5,5,,,,,,,,,,,,,,,,,,,,,,,,,,,,,
655a655f62fde845d4789149,TCN,2024-06-20_15h36.18.212,LearnStrategy,2023.2.3,Linux x86_64,59.88023952,,,,,,,,,,,6,12,5,6,,,,,,,,,,,,,,,,,,,,,,,,,,,,,
655a655f62fde845d4789149,TCN,2024-06-20_15h36.18.212,LearnStrategy,2023.2.3,Linux x86_64,59.88023952,,,,,,,,,,,8,09,5,7,,,,,,,,,,,,,,,,,,,,,,,,,,,,,
655a655f62fde845d4789149,TCN,2024-06-20_15h36.18.212,LearnStrategy,2023.2.3,Linux x86_64,59.88023952,,,,,,,,,,,6,15,5,8,,,,,,,,,,,,,,,,,,,,,,,,,,,,,
655a655f62fde845d4789149,TCN,2024-06-20_15h36.18.212,LearnStrategy,2023.2.3,Linux x86_64,59.88023952,,,,,,,,,,,4,12,6,1,,,,,,,,,,,,,,,,,,,,,,,,,,,,,
655a655f62fde845d4789149,TCN,2024-06-20_15h36.18.212,LearnStrategy,2023.2.3,Linux x86_64,59.88023952,,,,,,,,,,,7,07,6,2,,,,,,,,,,,,,,,,,,,,,,,,,,,,,
655a655f62fde845d4789149,TCN,2024-06-20_15h36.18.212,LearnStrategy,2023.2.3,Linux x86_64,59.88023952,,,,,,,,,,,5,02,6,3,,,,,,,,,,,,,,,,,,,,,,,,,,,,,
655a655f62fde845d4789149,TCN,2024-06-20_15h36.18.212,LearnStrategy,2023.2.3,Linux x86_64,59.88023952,,,,,,,,,,,8,10,6,4,,,,,,,,,,,,,,,,,,,,,,,,,,,,,
655a655f62fde845d4789149,TCN,2024-06-20_15h36.18.212,LearnStrategy,2023.2.3,Linux x86_64,59.88023952,,,,,,,,,,,2,14,6,5,,,,,,,,,,,,,,,,,,,,,,,,,,,,,
655a655f62fde845d4789149,TCN,2024-06-20_15h36.18.212,LearnStrategy,2023.2.3,Linux x86_64,59.88023952,,,,,,,,,,,4,10,6,6,,,,,,,,,,,,,,,,,,,,,,,,,,,,,
655a655f62fde845d4789149,TCN,2024-06-20_15h36.18.212,LearnStrategy,2023.2.3,Linux x86_64,59.88023952,,,,,,,,,,,1,05,6,7,,,,,,,,,,,,,,,,,,,,,,,,,,,,,
655a655f62fde845d4789149,TCN,2024-06-20_15h36.18.212,LearnStrategy,2023.2.3,Linux x86_64,59.88023952,,,,,,,,,,,8,15,6,8,,,,,,,,,,,,,,,,,,,,,,,,,,,,,