participant,condition,date,expName,psychopyVersion,OS,frameRate,block,phase,trial,learn_mouse_2.x,learn_mouse_2.y,learn_mouse_2.leftButton,learn_mouse_2.midButton,learn_mouse_2.rightButton,learn_mouse_2.time,learn_mouse_2.clicked_name,cat,token,row,col,t_select,cat_mouse_l.x,cat_mouse_l.y,cat_mouse_l.leftButton,cat_mouse_l.midButton,cat_mouse_l.rightButton,cat_mouse_l.time,cat_mouse_l.clicked_name,resp,t_resp,corr,train_trials.thisRepN,train_trials.thisTrialN,train_trials.thisN,train_trials.thisIndex,train_trials.ran,cat_mouse_t.x,cat_mouse_t.y,cat_mouse_t.leftButton,cat_mouse_t.midButton,cat_mouse_t.rightButton,cat_mouse_t.time,cat_mouse_t.clicked_name,test_trials.thisRepN,test_trials.thisTrialN,test_trials.thisN,test_trials.thisIndex,test_trials.ran,Bonus
655fd989a5ef07b413f74e24,TCN,2024-06-25_11h24.47.680,LearnStrategy,2023.2.3,Win32,16.10305958,,,,,,,,,,,,,,,,,,,,,,,,,,,,,,,,,,,,,,,,,,,
655fd989a5ef07b413f74e24,TCN,2024-06-25_11h24.47.680,LearnStrategy,2023.2.3,Win32,16.10305958,1,1,1,0.087037065,0.002777778,1,0,0,4.0957,rock_grid_rect_2,5,10,-1,-1,4.096,0.105555556,-0.249074131,1,0,0,5.9541,Diorite_rect,3,5.954,0,0,0,0,0,1,,,,,,,,,,,,,
655fd989a5ef07b413f74e24,TCN,2024-06-25_11h24.47.680,LearnStrategy,2023.2.3,Win32,16.10305958,1,1,2,0.111111111,0.010185157,1,0,0,3.5925,rock_grid_rect_2,4,16,-1,-1,3.592,-0.097222222,-0.247222222,1,0,0,3.0671,Basalt_rect,2,3.067,0,1,0,1,0,1,,,,,,,,,,,,,
655fd989a5ef07b413f74e24,TCN,2024-06-25_11h24.47.680,LearnStrategy,2023.2.3,Win32,16.10305958,1,1,3,0.047222222,-0.004629644,1,0,0,2.1463,rock_grid_rect_2,2,10,-1,-1,2.146,-0.155555556,-0.270370399,1,0,0,3.7271,Basalt_rect,2,3.727,1,2,0,2,0,1,,,,,,,,,,,,,
655fd989a5ef07b413f74e24,TCN,2024-06-25_11h24.47.680,LearnStrategy,2023.2.3,Win32,16.10305958,1,1,4,0.038888889,0.024074046,1,0,0,1.7265,rock_grid_rect_2,6,11,-1,-1,1.726,0.108333333,-0.243518575,1,0,0,4.1629,Diorite_rect,3,4.163,0,3,0,3,0,1,,,,,,,,,,,,,
655fd989a5ef07b413f74e24,TCN,2024-06-25_11h24.47.680,LearnStrategy,2023.2.3,Win32,16.10305958,1,1,5,0.088888889,-0.023148176,1,0,0,2.8114,rock_grid_rect_2,8,06,-1,-1,2.811,0.083333333,-0.398148176,1,0,0,4.1607,Peridotite_rect,7,4.161,0,4,0,4,0,1,,,,,,,,,,,,,
655fd989a5ef07b413f74e24,TCN,2024-06-25_11h24.47.680,LearnStrategy,2023.2.3,Win32,16.10305958,1,1,6,0.127777778,0.001851824,1,0,0,2.0325,rock_grid_rect_2,3,09,-1,-1,2.032,-0.394444444,-0.382407464,1,0,0,3.2245,Obsidian_rect,5,3.224,0,5,0,5,0,1,,,,,,,,,,,,,
655fd989a5ef07b413f74e24,TCN,2024-06-25_11h24.47.680,LearnStrategy,2023.2.3,Win32,16.10305958,1,1,7,0.087037065,-0.014814843,1,0,0,1.7194,rock_grid_rect_2,5,08,-1,-1,1.719,0.394444444,-0.257407464,1,0,0,3.2864,Gabbro_rect,4,3.286,0,6,0,6,0,1,,,,,,,,,,,,,
655fd989a5ef07b413f74e24,TCN,2024-06-25_11h24.47.680,LearnStrategy,2023.2.3,Win32,16.10305958,1,1,8,0.017592621,-0.011111111,1,0,0,1.6576,rock_grid_rect_2,2,06,-1,-1,1.658,-0.32870369,-0.235185242,1,0,0,3.7244,Andesite_rect,1,3.724,0,7,0,7,0,1,,,,,,,,,,,,,
655fd989a5ef07b413f74e24,TCN,2024-06-25_11h24.47.680,LearnStrategy,2023.2.3,Win32,16.10305958,1,1,9,-0.057407379,0.011111111,1,0,0,1.6164,rock_grid_rect_2,4,11,-1,-1,1.616,-0.434259245,-0.236111111,1,0,0,2.4565,Andesite_rect,1,2.457,0,8,0,8,0,1,,,,,,,,,,,,,
655fd989a5ef07b413f74e24,TCN,2024-06-25_11h24.47.680,LearnStrategy,2023.2.3,Win32,16.10305958,1,1,10,0.050925954,-0.002777778,1,0,0,2.8883,rock_grid_rect_2,6,15,-1,-1,2.888,0.111111111,-0.380555556,1,0,0,5.2273,Peridotite_rect,7,5.227,0,9,0,9,0,1,,,,,,,,,,,,,
655fd989a5ef07b413f74e24,TCN,2024-06-25_11h24.47.680,LearnStrategy,2023.2.3,Win32,16.10305958,1,1,11,0.039814843,0.008333333,1,0,0,1.9081,rock_grid_rect_2,7,07,-1,-1,1.908,0.113888889,-0.242592621,1,0,0,4.9372,Diorite_rect,3,4.937,0,10,0,10,0,1,,,,,,,,,,,,,
655fd989a5ef07b413f74e24,TCN,2024-06-25_11h24.47.680,LearnStrategy,2023.2.3,Win32,16.10305958,1,1,12,0.010185242,0.006481467,1,0,0,1.9725,rock_grid_rect_2,1,14,-1,-1,1.973,-0.138888889,-0.251851908,1,0,0,3.8509,Basalt_rect,2,3.851,0,11,0,11,0,1,,,,,,,,,,,,,
655fd989a5ef07b413f74e24,TCN,2024-06-25_11h24.47.680,LearnStrategy,2023.2.3,Win32,16.10305958,1,1,13,-0.002777778,-0.001851866,1,0,0,1.7001,rock_grid_rect_2,1,04,-1,-1,1.7,0.135185242,-0.242592621,1,0,0,4.481,Diorite_rect,3,4.481,0,12,0,12,0,1,,,,,,,,,,,,,
655fd989a5ef07b413f74e24,TCN,2024-06-25_11h24.47.680,LearnStrategy,2023.2.3,Win32,16.10305958,1,1,14,-0.010185157,-0.007407422,1,0,0,1.5333,rock_grid_rect_2,7,05,-1,-1,1.533,-0.410185157,-0.236111111,1,0,0,2.5352,Andesite_rect,1,2.535,0,13,0,13,0,1,,,,,,,,,,,,,
655fd989a5ef07b413f74e24,TCN,2024-06-25_11h24.47.680,LearnStrategy,2023.2.3,Win32,16.10305958,1,1,15,0.099074131,-0.018518533,1,0,0,2.0126,rock_grid_rect_2,8,03,-1,-1,2.013,-0.078703647,-0.391666667,1,0,0,3.4186,Pegmatite_rect,6,3.419,0,14,0,14,0,1,,,,,,,,,,,,,
655fd989a5ef07b413f74e24,TCN,2024-06-25_11h24.47.680,LearnStrategy,2023.2.3,Win32,16.10305958,1,1,16,0.050925954,-0.003703732,1,0,0,2.7016,rock_grid_rect_2,3,13,-1,-1,2.702,-0.329629601,-0.405555556,1,0,0,4.1008,Obsidian_rect,5,4.101,0,15,0,15,0,1,,,,,,,,,,,,,
655fd989a5ef07b413f74e24,TCN,2024-06-25_11h24.47.680,LearnStrategy,2023.2.3,Win32,16.10305958,1,2,1,,,,,,,,3,06,,,,,,,,,,,2,8.709,0,,,,,,-0.101851824,-0.248148176,1,0,0,8.709,Basalt_rect,0,0,0,0,1,
655fd989a5ef07b413f74e24,TCN,2024-06-25_11h24.47.680,LearnStrategy,2023.2.3,Win32,16.10305958,1,2,2,,,,,,,,2,09,,,,,,,,,,,8,6.633,0,,,,,,0.367592621,-0.401851908,1,0,0,6.6326,Pumice_rect,1,0,1,0,1,
655fd989a5ef07b413f74e24,TCN,2024-06-25_11h24.47.680,LearnStrategy,2023.2.3,Win32,16.10305958,1,2,3,,,,,,,,2,11,,,,,,,,,,,7,6.289,0,,,,,,0.112963019,-0.404629686,1,0,0,6.2895,Peridotite_rect,2,0,2,0,1,
655fd989a5ef07b413f74e24,TCN,2024-06-25_11h24.47.680,LearnStrategy,2023.2.3,Win32,16.10305958,1,2,4,,,,,,,,4,14,,,,,,,,,,,1,4.705,0,,,,,,-0.363888889,-0.243518575,1,0,0,4.7052,Andesite_rect,3,0,3,0,1,
655fd989a5ef07b413f74e24,TCN,2024-06-25_11h24.47.680,LearnStrategy,2023.2.3,Win32,16.10305958,1,2,5,,,,,,,,5,09,,,,,,,,,,,3,4.852,0,,,,,,0.088888889,-0.235185242,1,0,0,4.8519,Diorite_rect,4,0,4,0,1,
655fd989a5ef07b413f74e24,TCN,2024-06-25_11h24.47.680,LearnStrategy,2023.2.3,Win32,16.10305958,1,2,6,,,,,,,,1,16,,,,,,,,,,,4,3.123,0,,,,,,0.363888889,-0.234259288,1,0,0,3.1234,Gabbro_rect,5,0,5,0,1,
655fd989a5ef07b413f74e24,TCN,2024-06-25_11h24.47.680,LearnStrategy,2023.2.3,Win32,16.10305958,1,2,7,,,,,,,,4,12,,,,,,,,,,,5,4.848,0,,,,,,-0.383333333,-0.401851908,1,0,0,4.8477,Obsidian_rect,6,0,6,0,1,
655fd989a5ef07b413f74e24,TCN,2024-06-25_11h24.47.680,LearnStrategy,2023.2.3,Win32,16.10305958,1,2,8,,,,,,,,3,12,,,,,,,,,,,6,6.189,0,,,,,,-0.151851824,-0.388888889,1,0,0,6.1885,Pegmatite_rect,7,0,7,0,1,
655fd989a5ef07b413f74e24,TCN,2024-06-25_11h24.47.680,LearnStrategy,2023.2.3,Win32,16.10305958,1,2,9,,,,,,,,7,13,,,,,,,,,,,2,3.646,0,,,,,,-0.136111111,-0.234259288,1,0,0,3.6459,Basalt_rect,8,0,8,0,1,
655fd989a5ef07b413f74e24,TCN,2024-06-25_11h24.47.680,LearnStrategy,2023.2.3,Win32,16.10305958,1,2,10,,,,,,,,6,16,,,,,,,,,,,7,4.581,0,,,,,,0.114814843,-0.397222222,1,0,0,4.5811,Peridotite_rect,9,0,9,0,1,
655fd989a5ef07b413f74e24,TCN,2024-06-25_11h24.47.680,LearnStrategy,2023.2.3,Win32,16.10305958,1,2,11,,,,,,,,8,10,,,,,,,,,,,2,3.54,0,,,,,,-0.077777778,-0.257407464,1,0,0,3.5403,Basalt_rect,10,0,10,0,1,
655fd989a5ef07b413f74e24,TCN,2024-06-25_11h24.47.680,LearnStrategy,2023.2.3,Win32,16.10305958,1,2,12,,,,,,,,1,06,,,,,,,,,,,3,2.864,0,,,,,,0.082407464,-0.252777778,1,0,0,2.864,Diorite_rect,11,0,11,0,1,
655fd989a5ef07b413f74e24,TCN,2024-06-25_11h24.47.680,LearnStrategy,2023.2.3,Win32,16.10305958,1,2,13,,,,,,,,6,09,,,,,,,,,,,3,1.098,0,,,,,,0.082407464,-0.252777778,1,0,0,1.0983,Diorite_rect,12,0,12,0,1,
655fd989a5ef07b413f74e24,TCN,2024-06-25_11h24.47.680,LearnStrategy,2023.2.3,Win32,16.10305958,1,2,14,,,,,,,,8,04,,,,,,,,,,,1,4.957,0,,,,,,-0.346296268,-0.234259288,1,0,0,4.9567,Andesite_rect,13,0,13,0,1,
655fd989a5ef07b413f74e24,TCN,2024-06-25_11h24.47.680,LearnStrategy,2023.2.3,Win32,16.10305958,1,2,15,,,,,,,,5,14,,,,,,,,,,,7,6.415,0,,,,,,0.090740797,-0.396296353,1,0,0,6.4146,Peridotite_rect,14,0,14,0,1,
655fd989a5ef07b413f74e24,TCN,2024-06-25_11h24.47.680,LearnStrategy,2023.2.3,Win32,16.10305958,1,2,16,,,,,,,,7,06,,,,,,,,,,,8,4.707,0,,,,,,0.4,-0.395370399,1,0,0,4.707,Pumice_rect,15,0,15,0,1,
655fd989a5ef07b413f74e24,TCN,2024-06-25_11h24.47.680,LearnStrategy,2023.2.3,Win32,16.10305958,2,1,1,0.062037065,0.000925912,1,0,0,3.8935,rock_grid_rect_2,4,15,-1,-1,3.894,-0.34351849,-0.237037065,1,0,0,5.9546,Andesite_rect,1,5.955,0,0,0,0,0,1,,,,,,,,,,,,,
655fd989a5ef07b413f74e24,TCN,2024-06-25_11h24.47.680,LearnStrategy,2023.2.3,Win32,16.10305958,2,1,2,0.026851908,0.002777778,1,0,0,9.2318,rock_grid_rect_2,6,12,-1,-1,9.232,-0.176851824,-0.246296353,1,0,0,3.109,Basalt_rect,2,3.109,0,1,0,1,0,1,,,,,,,,,,,,,
655fd989a5ef07b413f74e24,TCN,2024-06-25_11h24.47.680,LearnStrategy,2023.2.3,Win32,16.10305958,2,1,3,0.062963019,0.010185157,1,0,0,2.0756,rock_grid_rect_2,1,11,-1,-1,2.076,0.141666667,-0.23148151,1,0,0,3.3922,Diorite_rect,3,3.392,0,2,0,2,0,1,,,,,,,,,,,,,
655fd989a5ef07b413f74e24,TCN,2024-06-25_11h24.47.680,LearnStrategy,2023.2.3,Win32,16.10305958,2,1,4,0.124074131,0.002777778,1,0,0,1.6806,rock_grid_rect_2,5,07,-1,-1,1.681,-0.073148092,-0.243518575,1,0,0,3.0379,Basalt_rect,2,3.038,0,3,0,3,0,1,,,,,,,,,,,,,
655fd989a5ef07b413f74e24,TCN,2024-06-25_11h24.47.680,LearnStrategy,2023.2.3,Win32,16.10305958,2,1,5,0.133333333,0.022222222,1,0,0,2.93,rock_grid_rect_2,2,16,-1,-1,2.93,0.385185242,-0.387963019,1,0,0,3.977,Pumice_rect,8,3.977,0,4,0,4,0,1,,,,,,,,,,,,,
655fd989a5ef07b413f74e24,TCN,2024-06-25_11h24.47.680,LearnStrategy,2023.2.3,Win32,16.10305958,2,1,6,-0.024074046,0.012962935,1,0,0,2.2518,rock_grid_rect_2,1,02,-1,-1,2.252,-0.144444444,-0.398148176,1,0,0,3.9241,Pegmatite_rect,6,3.924,0,5,0,5,0,1,,,,,,,,,,,,,
655fd989a5ef07b413f74e24,TCN,2024-06-25_11h24.47.680,LearnStrategy,2023.2.3,Win32,16.10305958,2,1,7,0.035185242,-0.018518533,1,0,0,1.6382,rock_grid_rect_2,3,10,-1,-1,1.638,-0.36851849,-0.244444444,1,0,0,3.8953,Andesite_rect,1,3.895,0,6,0,6,0,1,,,,,,,,,,,,,
655fd989a5ef07b413f74e24,TCN,2024-06-25_11h24.47.680,LearnStrategy,2023.2.3,Win32,16.10305958,2,1,8,0.041666667,-0.02129631,1,0,0,1.659,rock_grid_rect_2,2,08,-1,-1,1.659,0.372222222,-0.391666667,1,0,0,5.9245,Pumice_rect,8,5.924,0,7,0,7,0,1,,,,,,,,,,,,,
655fd989a5ef07b413f74e24,TCN,2024-06-25_11h24.47.680,LearnStrategy,2023.2.3,Win32,16.10305958,2,1,9,0.039814843,0.016666667,1,0,0,1.7837,rock_grid_rect_2,7,16,-1,-1,1.784,-0.372222222,-0.241666667,1,0,0,3.0618,Andesite_rect,1,3.062,0,8,0,8,0,1,,,,,,,,,,,,,
655fd989a5ef07b413f74e24,TCN,2024-06-25_11h24.47.680,LearnStrategy,2023.2.3,Win32,16.10305958,2,1,10,0.050925954,0.01851849,1,0,0,1.7213,rock_grid_rect_2,5,16,-1,-1,1.721,-0.34351849,-0.241666667,1,0,0,3.5612,Andesite_rect,1,3.561,0,9,0,9,0,1,,,,,,,,,,,,,
655fd989a5ef07b413f74e24,TCN,2024-06-25_11h24.47.680,LearnStrategy,2023.2.3,Win32,16.10305958,2,1,11,0.058333333,0.001851824,1,0,0,1.6365,rock_grid_rect_2,6,13,-1,-1,1.636,-0.114814758,-0.258333333,1,0,0,2.0013,Basalt_rect,2,2.001,0,10,0,10,0,1,,,,,,,,,,,,,
655fd989a5ef07b413f74e24,TCN,2024-06-25_11h24.47.680,LearnStrategy,2023.2.3,Win32,16.10305958,2,1,12,0.019444444,0.012037023,1,0,0,1.7433,rock_grid_rect_2,8,09,-1,-1,1.743,-0.088888889,-0.4,1,0,0,5.3788,Pegmatite_rect,6,5.379,0,11,0,11,0,1,,,,,,,,,,,,,
655fd989a5ef07b413f74e24,TCN,2024-06-25_11h24.47.680,LearnStrategy,2023.2.3,Win32,16.10305958,2,1,13,0.068518575,0.016666667,1,0,0,2.097,rock_grid_rect_2,3,11,-1,-1,2.097,0.150925954,-0.247222222,1,0,0,10.1649,Diorite_rect,3,10.165,1,12,0,12,0,1,,,,,,,,,,,,,
655fd989a5ef07b413f74e24,TCN,2024-06-25_11h24.47.680,LearnStrategy,2023.2.3,Win32,16.10305958,2,1,14,0.080555556,-0.001851866,1,0,0,1.7276,rock_grid_rect_2,4,01,-1,-1,1.728,0.117592621,-0.230555556,1,0,0,2.7499,Diorite_rect,3,2.75,0,13,0,13,0,1,,,,,,,,,,,,,
655fd989a5ef07b413f74e24,TCN,2024-06-25_11h24.47.680,LearnStrategy,2023.2.3,Win32,16.10305958,2,1,15,0.120370399,0.000925912,1,0,0,1.8855,rock_grid_rect_2,7,10,-1,-1,1.885,0.141666667,-0.247222222,1,0,0,3.2765,Diorite_rect,3,3.277,0,14,0,14,0,1,,,,,,,,,,,,,
655fd989a5ef07b413f74e24,TCN,2024-06-25_11h24.47.680,LearnStrategy,2023.2.3,Win32,16.10305958,2,1,16,0.066666667,0.001851824,1,0,0,2.3242,rock_grid_rect_2,8,02,-1,-1,2.324,0.378703732,-0.247222222,1,0,0,4.6742,Gabbro_rect,4,4.674,0,15,0,15,0,1,,,,,,,,,,,,,
655fd989a5ef07b413f74e24,TCN,2024-06-25_11h24.47.680,LearnStrategy,2023.2.3,Win32,16.10305958,2,2,1,,,,,,,,4,10,,,,,,,,,,,2,15.398,0,,,,,,-0.109259203,-0.255555556,1,0,0,15.3978,Basalt_rect,0,0,0,0,1,
655fd989a5ef07b413f74e24,TCN,2024-06-25_11h24.47.680,LearnStrategy,2023.2.3,Win32,16.10305958,2,2,2,,,,,,,,5,04,,,,,,,,,,,2,17.517,0,,,,,,-0.109259203,-0.255555556,1,0,0,17.5168,Basalt_rect,1,0,1,0,1,
655fd989a5ef07b413f74e24,TCN,2024-06-25_11h24.47.680,LearnStrategy,2023.2.3,Win32,16.10305958,2,2,3,,,,,,,,5,12,,,,,,,,,,,2,6.579,0,,,,,,-0.176851824,-0.237037065,1,0,0,6.5788,Basalt_rect,2,0,2,0,1,
655fd989a5ef07b413f74e24,TCN,2024-06-25_11h24.47.680,LearnStrategy,2023.2.3,Win32,16.10305958,2,2,4,,,,,,,,6,05,,,,,,,,,,,1,2.85,0,,,,,,-0.367592578,-0.23148151,1,0,0,2.8496,Andesite_rect,3,0,3,0,1,
655fd989a5ef07b413f74e24,TCN,2024-06-25_11h24.47.680,LearnStrategy,2023.2.3,Win32,16.10305958,2,2,5,,,,,,,,6,07,,,,,,,,,,,1,4.19,0,,,,,,-0.367592578,-0.23148151,1,0,0,4.1895,Andesite_rect,4,0,4,0,1,
655fd989a5ef07b413f74e24,TCN,2024-06-25_11h24.47.680,LearnStrategy,2023.2.3,Win32,16.10305958,2,2,6,,,,,,,,7,08,,,,,,,,,,,7,8.581,1,,,,,,0.102777778,-0.404629686,1,0,0,8.5809,Peridotite_rect,5,0,5,0,1,
655fd989a5ef07b413f74e24,TCN,2024-06-25_11h24.47.680,LearnStrategy,2023.2.3,Win32,16.10305958,2,2,7,,,,,,,,8,08,,,,,,,,,,,8,12.538,1,,,,,,0.352777778,-0.397222222,1,0,0,12.5381,Pumice_rect,6,0,6,0,1,
655fd989a5ef07b413f74e24,TCN,2024-06-25_11h24.47.680,LearnStrategy,2023.2.3,Win32,16.10305958,2,2,8,,,,,,,,3,14,,,,,,,,,,,5,11.01,0,,,,,,-0.381481467,-0.393518575,1,0,0,11.0103,Obsidian_rect,7,0,7,0,1,
655fd989a5ef07b413f74e24,TCN,2024-06-25_11h24.47.680,LearnStrategy,2023.2.3,Win32,16.10305958,2,2,9,,,,,,,,2,05,,,,,,,,,,,1,4.508,0,,,,,,-0.339814801,-0.262037065,1,0,0,4.5083,Andesite_rect,8,0,8,0,1,
655fd989a5ef07b413f74e24,TCN,2024-06-25_11h24.47.680,LearnStrategy,2023.2.3,Win32,16.10305958,2,2,10,,,,,,,,1,05,,,,,,,,,,,1,2.162,1,,,,,,-0.339814801,-0.262037065,1,0,0,2.1622,Andesite_rect,9,0,9,0,1,
655fd989a5ef07b413f74e24,TCN,2024-06-25_11h24.47.680,LearnStrategy,2023.2.3,Win32,16.10305958,2,2,11,,,,,,,,4,13,,,,,,,,,,,3,1.839,0,,,,,,0.109259288,-0.238888889,1,0,0,1.8386,Diorite_rect,10,0,10,0,1,
655fd989a5ef07b413f74e24,TCN,2024-06-25_11h24.47.680,LearnStrategy,2023.2.3,Win32,16.10305958,2,2,12,,,,,,,,8,15,,,,,,,,,,,8,2.831,1,,,,,,0.368518575,-0.399074131,1,0,0,2.8306,Pumice_rect,11,0,11,0,1,
655fd989a5ef07b413f74e24,TCN,2024-06-25_11h24.47.680,LearnStrategy,2023.2.3,Win32,16.10305958,2,2,13,,,,,,,,7,15,,,,,,,,,,,4,4.423,0,,,,,,0.40648151,-0.234259288,1,0,0,4.423,Gabbro_rect,12,0,12,0,1,
655fd989a5ef07b413f74e24,TCN,2024-06-25_11h24.47.680,LearnStrategy,2023.2.3,Win32,16.10305958,2,2,14,,,,,,,,3,07,,,,,,,,,,,7,5.434,0,,,,,,0.157407464,-0.387037065,1,0,0,5.4342,Peridotite_rect,13,0,13,0,1,
655fd989a5ef07b413f74e24,TCN,2024-06-25_11h24.47.680,LearnStrategy,2023.2.3,Win32,16.10305958,2,2,15,,,,,,,,1,07,,,,,,,,,,,2,8.269,0,,,,,,-0.097222222,-0.245370399,1,0,0,8.269,Basalt_rect,14,0,14,0,1,
655fd989a5ef07b413f74e24,TCN,2024-06-25_11h24.47.680,LearnStrategy,2023.2.3,Win32,16.10305958,2,2,16,,,,,,,,2,01,,,,,,,,,,,5,6.413,0,,,,,,-0.339814801,-0.410185242,1,0,0,6.413,Obsidian_rect,15,0,15,0,1,
655fd989a5ef07b413f74e24,TCN,2024-06-25_11h24.47.680,LearnStrategy,2023.2.3,Win32,16.10305958,3,1,1,0.091666667,0.002777778,1,0,0,6.8089,rock_grid_rect_2,1,10,-1,-1,6.809,-0.133333333,-0.399074131,1,0,0,11.4106,Pegmatite_rect,6,11.411,0,0,0,0,0,1,,,,,,,,,,,,,
655fd989a5ef07b413f74e24,TCN,2024-06-25_11h24.47.680,LearnStrategy,2023.2.3,Win32,16.10305958,3,1,2,-0.019444444,0.020370356,1,0,0,1.9718,rock_grid_rect_2,8,05,-1,-1,1.972,-0.406481467,-0.235185242,1,0,0,2.0185,Andesite_rect,1,2.019,0,1,0,1,0,1,,,,,,,,,,,,,
655fd989a5ef07b413f74e24,TCN,2024-06-25_11h24.47.680,LearnStrategy,2023.2.3,Win32,16.10305958,3,1,3,0.037963019,0.005555556,1,0,0,1.6294,rock_grid_rect_2,3,15,-1,-1,1.629,-0.34351849,-0.4,1,0,0,4.7081,Obsidian_rect,5,4.708,0,2,0,2,0,1,,,,,,,,,,,,,
655fd989a5ef07b413f74e24,TCN,2024-06-25_11h24.47.680,LearnStrategy,2023.2.3,Win32,16.10305958,3,1,4,0.065740797,0.010185157,1,0,0,1.824,rock_grid_rect_2,6,10,-1,-1,1.824,0.137963019,-0.246296353,1,0,0,5.0784,Diorite_rect,3,5.078,0,3,0,3,0,1,,,,,,,,,,,,,
655fd989a5ef07b413f74e24,TCN,2024-06-25_11h24.47.680,LearnStrategy,2023.2.3,Win32,16.10305958,3,1,5,0.167592621,0.012037023,1,0,0,7.187,rock_grid_rect_2,8,16,-1,-1,7.187,0.134259288,-0.242592621,1,0,0,3.2098,Diorite_rect,3,3.21,0,4,0,4,0,1,,,,,,,,,,,,,
655fd989a5ef07b413f74e24,TCN,2024-06-25_11h24.47.680,LearnStrategy,2023.2.3,Win32,16.10305958,3,1,6,0.134259288,0.011111111,1,0,0,2.1387,rock_grid_rect_2,3,16,-1,-1,2.139,-0.335185157,-0.254629686,1,0,0,3.081,Andesite_rect,1,3.081,0,5,0,5,0,1,,,,,,,,,,,,,
655fd989a5ef07b413f74e24,TCN,2024-06-25_11h24.47.680,LearnStrategy,2023.2.3,Win32,16.10305958,3,1,7,0.138888889,0.002777778,1,0,0,3.9309,rock_grid_rect_2,2,12,-1,-1,3.931,0.159259288,-0.401851908,1,0,0,4.7236,Peridotite_rect,7,4.724,0,6,0,6,0,1,,,,,,,,,,,,,
655fd989a5ef07b413f74e24,TCN,2024-06-25_11h24.47.680,LearnStrategy,2023.2.3,Win32,16.10305958,3,1,8,0.114814843,0.014814801,1,0,0,1.7222,rock_grid_rect_2,7,14,-1,-1,1.722,-0.086111111,-0.237963019,1,0,0,1.4957,Basalt_rect,2,1.496,0,7,0,7,0,1,,,,,,,,,,,,,
655fd989a5ef07b413f74e24,TCN,2024-06-25_11h24.47.680,LearnStrategy,2023.2.3,Win32,16.10305958,3,1,9,0.147222222,0.009259245,1,0,0,2.3054,rock_grid_rect_2,5,11,-1,-1,2.305,-0.097222222,-0.238888889,1,0,0,2.9196,Basalt_rect,2,2.92,0,8,0,8,0,1,,,,,,,,,,,,,
655fd989a5ef07b413f74e24,TCN,2024-06-25_11h24.47.680,LearnStrategy,2023.2.3,Win32,16.10305958,3,1,10,0.130555556,-0.00648151,1,0,0,1.4932,rock_grid_rect_2,6,08,-1,-1,1.493,0.350925954,-0.234259288,1,0,0,1.665,Gabbro_rect,4,1.665,0,9,0,9,0,1,,,,,,,,,,,,,
655fd989a5ef07b413f74e24,TCN,2024-06-25_11h24.47.680,LearnStrategy,2023.2.3,Win32,16.10305958,3,1,11,0.136111111,0.010185157,1,0,0,1.8065,rock_grid_rect_2,5,05,-1,-1,1.807,-0.109259203,-0.252777778,1,0,0,2.5776,Basalt_rect,2,2.578,0,10,0,10,0,1,,,,,,,,,,,,,
655fd989a5ef07b413f74e24,TCN,2024-06-25_11h24.47.680,LearnStrategy,2023.2.3,Win32,16.10305958,3,1,12,0.107407464,0.001851824,1,0,0,1.3663,rock_grid_rect_2,4,03,-1,-1,1.366,-0.125925869,-0.242592621,1,0,0,3.3336,Basalt_rect,2,3.334,0,11,0,11,0,1,,,,,,,,,,,,,
655fd989a5ef07b413f74e24,TCN,2024-06-25_11h24.47.680,LearnStrategy,2023.2.3,Win32,16.10305958,3,1,13,0.090740797,0.016666667,1,0,0,1.6803,rock_grid_rect_2,2,02,-1,-1,1.68,-0.354629601,-0.230555556,1,0,0,2.6249,Andesite_rect,1,2.625,0,12,0,12,0,1,,,,,,,,,,,,,
655fd989a5ef07b413f74e24,TCN,2024-06-25_11h24.47.680,LearnStrategy,2023.2.3,Win32,16.10305958,3,1,14,0.034259288,-0.005555556,1,0,0,7.034,rock_grid_rect_2,7,12,-1,-1,7.034,0.325925954,-0.266666667,1,0,0,3.457,Gabbro_rect,4,3.457,0,13,0,13,0,1,,,,,,,,,,,,,
655fd989a5ef07b413f74e24,TCN,2024-06-25_11h24.47.680,LearnStrategy,2023.2.3,Win32,16.10305958,3,1,15,0.079629686,0.004629601,1,0,0,3.0754,rock_grid_rect_2,4,08,-1,-1,3.075,-0.125,-0.240740797,1,0,0,2.3963,Basalt_rect,2,2.396,0,14,0,14,0,1,,,,,,,,,,,,,
655fd989a5ef07b413f74e24,TCN,2024-06-25_11h24.47.680,LearnStrategy,2023.2.3,Win32,16.10305958,3,1,16,0.075925954,-0.011111111,1,0,0,1.5567,rock_grid_rect_2,1,09,-1,-1,1.557,-0.086111111,-0.380555556,1,0,0,3.9198,Pegmatite_rect,6,3.92,0,15,0,15,0,1,,,,,,,,,,,,,
655fd989a5ef07b413f74e24,TCN,2024-06-25_11h24.47.680,LearnStrategy,2023.2.3,Win32,16.10305958,3,2,1,,,,,,,,4,09,,,,,,,,,,,1,1.744,0,,,,,,-0.350925912,-0.251851908,1,0,0,1.7444,Andesite_rect,0,0,0,0,1,
655fd989a5ef07b413f74e24,TCN,2024-06-25_11h24.47.680,LearnStrategy,2023.2.3,Win32,16.10305958,3,2,2,,,,,,,,3,08,,,,,,,,,,,1,4.351,0,,,,,,-0.350925912,-0.251851908,1,0,0,4.3512,Andesite_rect,1,0,1,0,1,
655fd989a5ef07b413f74e24,TCN,2024-06-25_11h24.47.680,LearnStrategy,2023.2.3,Win32,16.10305958,3,2,3,,,,,,,,5,02,,,,,,,,,,,3,7.85,0,,,,,,0.067592621,-0.260185242,1,0,0,7.8503,Diorite_rect,2,0,2,0,1,
655fd989a5ef07b413f74e24,TCN,2024-06-25_11h24.47.680,LearnStrategy,2023.2.3,Win32,16.10305958,3,2,4,,,,,,,,3,02,,,,,,,,,,,2,3.978,0,,,,,,-0.183333333,-0.236111111,1,0,0,3.9783,Basalt_rect,3,0,3,0,1,
655fd989a5ef07b413f74e24,TCN,2024-06-25_11h24.47.680,LearnStrategy,2023.2.3,Win32,16.10305958,3,2,5,,,,,,,,4,05,,,,,,,,,,,1,2.771,0,,,,,,-0.389814801,-0.267592621,1,0,0,2.7707,Andesite_rect,4,0,4,0,1,
655fd989a5ef07b413f74e24,TCN,2024-06-25_11h24.47.680,LearnStrategy,2023.2.3,Win32,16.10305958,3,2,6,,,,,,,,2,04,,,,,,,,,,,4,2.27,0,,,,,,0.354629686,-0.243518575,1,0,0,2.2701,Gabbro_rect,5,0,5,0,1,
655fd989a5ef07b413f74e24,TCN,2024-06-25_11h24.47.680,LearnStrategy,2023.2.3,Win32,16.10305958,3,2,7,,,,,,,,8,13,,,,,,,,,,,8,3.759,1,,,,,,0.346296353,-0.389814843,1,0,0,3.7586,Pumice_rect,6,0,6,0,1,
655fd989a5ef07b413f74e24,TCN,2024-06-25_11h24.47.680,LearnStrategy,2023.2.3,Win32,16.10305958,3,2,8,,,,,,,,1,01,,,,,,,,,,,5,7.247,0,,,,,,-0.367592578,-0.4,1,0,0,7.2474,Obsidian_rect,7,0,7,0,1,
655fd989a5ef07b413f74e24,TCN,2024-06-25_11h24.47.680,LearnStrategy,2023.2.3,Win32,16.10305958,3,2,9,,,,,,,,7,02,,,,,,,,,,,5,1.247,0,,,,,,-0.367592578,-0.4,1,0,0,1.2473,Obsidian_rect,8,0,8,0,1,
655fd989a5ef07b413f74e24,TCN,2024-06-25_11h24.47.680,LearnStrategy,2023.2.3,Win32,16.10305958,3,2,10,,,,,,,,6,03,,,,,,,,,,,6,3.612,1,,,,,,-0.135185157,-0.38148151,1,0,0,3.6119,Pegmatite_rect,9,0,9,0,1,
655fd989a5ef07b413f74e24,TCN,2024-06-25_11h24.47.680,LearnStrategy,2023.2.3,Win32,16.10305958,3,2,11,,,,,,,,8,14,,,,,,,,,,,8,2.146,1,,,,,,0.360185242,-0.408333333,1,0,0,2.1455,Pumice_rect,10,0,10,0,1,
655fd989a5ef07b413f74e24,TCN,2024-06-25_11h24.47.680,LearnStrategy,2023.2.3,Win32,16.10305958,3,2,12,,,,,,,,7,04,,,,,,,,,,,4,2.358,0,,,,,,0.377777778,-0.240740797,1,0,0,2.3575,Gabbro_rect,11,0,11,0,1,
655fd989a5ef07b413f74e24,TCN,2024-06-25_11h24.47.680,LearnStrategy,2023.2.3,Win32,16.10305958,3,2,13,,,,,,,,5,06,,,,,,,,,,,5,8.959,1,,,,,,-0.362962935,-0.382407464,1,0,0,8.9586,Obsidian_rect,12,0,12,0,1,
655fd989a5ef07b413f74e24,TCN,2024-06-25_11h24.47.680,LearnStrategy,2023.2.3,Win32,16.10305958,3,2,14,,,,,,,,1,03,,,,,,,,,,,1,9.645,1,,,,,,-0.405555556,-0.249074131,1,0,0,9.6447,Andesite_rect,13,0,13,0,1,
655fd989a5ef07b413f74e24,TCN,2024-06-25_11h24.47.680,LearnStrategy,2023.2.3,Win32,16.10305958,3,2,15,,,,,,,,6,06,,,,,,,,,,,6,4.792,1,,,,,,-0.087036981,-0.403703732,1,0,0,4.7921,Pegmatite_rect,14,0,14,0,1,
655fd989a5ef07b413f74e24,TCN,2024-06-25_11h24.47.680,LearnStrategy,2023.2.3,Win32,16.10305958,3,2,16,,,,,,,,2,14,,,,,,,,,,,8,4.498,0,,,,,,0.354629686,-0.386111111,1,0,0,4.4981,Pumice_rect,15,0,15,0,1,
655fd989a5ef07b413f74e24,TCN,2024-06-25_11h24.47.680,LearnStrategy,2023.2.3,Win32,16.10305958,4,1,1,0.103703732,0.008333333,1,0,0,6.4738,rock_grid_rect_2,5,10,-1,-1,6.474,-0.366666667,-0.4,1,0,0,11.3286,Obsidian_rect,5,11.329,1,0,0,0,0,1,,,,,,,,,,,,,
655fd989a5ef07b413f74e24,TCN,2024-06-25_11h24.47.680,LearnStrategy,2023.2.3,Win32,16.10305958,4,1,2,0.051851908,0.00370369,1,0,0,2.6889,rock_grid_rect_2,5,05,-1,-1,2.689,-0.347222222,-0.413888889,1,0,0,6.6033,Obsidian_rect,5,6.603,1,1,0,1,0,1,,,,,,,,,,,,,
655fd989a5ef07b413f74e24,TCN,2024-06-25_11h24.47.680,LearnStrategy,2023.2.3,Win32,16.10305958,4,1,3,0.073148176,-0.002777778,1,0,0,2.5063,rock_grid_rect_2,4,03,-1,-1,2.506,-0.15,-0.243518575,1,0,0,4.5506,Basalt_rect,2,4.551,0,2,0,2,0,1,,,,,,,,,,,,,
655fd989a5ef07b413f74e24,TCN,2024-06-25_11h24.47.680,LearnStrategy,2023.2.3,Win32,16.10305958,4,1,4,0.022222222,0.015740712,1,0,0,1.7278,rock_grid_rect_2,7,10,-1,-1,1.728,0.377777778,-0.25,1,0,0,4.0494,Gabbro_rect,4,4.049,0,3,0,3,0,1,,,,,,,,,,,,,
655fd989a5ef07b413f74e24,TCN,2024-06-25_11h24.47.680,LearnStrategy,2023.2.3,Win32,16.10305958,4,1,5,0.038888889,-0.009259288,1,0,0,1.7229,rock_grid_rect_2,7,05,-1,-1,1.723,-0.35370369,-0.242592621,1,0,0,6.4567,Andesite_rect,1,6.457,0,4,0,4,0,1,,,,,,,,,,,,,
655fd989a5ef07b413f74e24,TCN,2024-06-25_11h24.47.680,LearnStrategy,2023.2.3,Win32,16.10305958,4,1,6,0.138888889,0.001851824,1,0,0,1.9624,rock_grid_rect_2,3,13,-1,-1,1.962,0.185185242,-0.396296353,1,0,0,3.645,Peridotite_rect,7,3.645,0,5,0,5,0,1,,,,,,,,,,,,,
655fd989a5ef07b413f74e24,TCN,2024-06-25_11h24.47.680,LearnStrategy,2023.2.3,Win32,16.10305958,4,1,7,0.141666667,0,1,0,0,1.5545,rock_grid_rect_2,2,10,-1,-1,1.554,-0.411111111,-0.254629686,1,0,0,5.9569,Andesite_rect,1,5.957,0,6,0,6,0,1,,,,,,,,,,,,,
655fd989a5ef07b413f74e24,TCN,2024-06-25_11h24.47.680,LearnStrategy,2023.2.3,Win32,16.10305958,4,1,8,0.05648151,0.01851849,1,0,0,5.1376,rock_grid_rect_2,2,06,-1,-1,5.138,-0.120370314,-0.235185242,1,0,0,6.1631,Basalt_rect,2,6.163,1,7,0,7,0,1,,,,,,,,,,,,,
655fd989a5ef07b413f74e24,TCN,2024-06-25_11h24.47.680,LearnStrategy,2023.2.3,Win32,16.10305958,4,1,9,-0.004629601,-0.008333333,1,0,0,2.6593,rock_grid_rect_2,6,10,-1,-1,2.659,-0.423148134,-0.389814843,1,0,0,4.0004,Obsidian_rect,5,4,0,8,0,8,0,1,,,,,,,,,,,,,
655fd989a5ef07b413f74e24,TCN,2024-06-25_11h24.47.680,LearnStrategy,2023.2.3,Win32,16.10305958,4,1,10,0.035185242,-0.007407422,1,0,0,1.6177,rock_grid_rect_2,1,11,-1,-1,1.618,0.107407464,-0.404629686,1,0,0,4.9515,Peridotite_rect,7,4.952,0,9,0,9,0,1,,,,,,,,,,,,,
655fd989a5ef07b413f74e24,TCN,2024-06-25_11h24.47.680,LearnStrategy,2023.2.3,Win32,16.10305958,4,1,11,0.049074131,-0.00648151,1,0,0,1.991,rock_grid_rect_2,6,11,-1,-1,1.991,-0.396296268,-0.266666667,1,0,0,3.499,Andesite_rect,1,3.499,0,10,0,10,0,1,,,,,,,,,,,,,
655fd989a5ef07b413f74e24,TCN,2024-06-25_11h24.47.680,LearnStrategy,2023.2.3,Win32,16.10305958,4,1,12,0.113888889,-0.012037065,1,0,0,1.7921,rock_grid_rect_2,8,09,-1,-1,1.792,0.401851908,-0.411111111,1,0,0,4.0597,Pumice_rect,8,4.06,1,11,0,11,0,1,,,,,,,,,,,,,
655fd989a5ef07b413f74e24,TCN,2024-06-25_11h24.47.680,LearnStrategy,2023.2.3,Win32,16.10305958,4,1,13,0.140740797,-0.013888889,1,0,0,3.5621,rock_grid_rect_2,4,15,-1,-1,3.562,0.318518575,-0.250925954,1,0,0,3.9344,Gabbro_rect,4,3.934,1,12,0,12,0,1,,,,,,,,,,,,,
655fd989a5ef07b413f74e24,TCN,2024-06-25_11h24.47.680,LearnStrategy,2023.2.3,Win32,16.10305958,4,1,14,0.143518575,0.011111111,1,0,0,1.5189,rock_grid_rect_2,1,14,-1,-1,1.519,-0.392592578,-0.240740797,1,0,0,3.413,Andesite_rect,1,3.413,1,13,0,13,0,1,,,,,,,,,,,,,
655fd989a5ef07b413f74e24,TCN,2024-06-25_11h24.47.680,LearnStrategy,2023.2.3,Win32,16.10305958,4,1,15,0.025925954,-0.014814843,1,0,0,3.389,rock_grid_rect_2,3,16,-1,-1,3.389,-0.4,-0.237963019,1,0,0,3.1254,Andesite_rect,1,3.125,0,14,0,14,0,1,,,,,,,,,,,,,
655fd989a5ef07b413f74e24,TCN,2024-06-25_11h24.47.680,LearnStrategy,2023.2.3,Win32,16.10305958,4,1,16,0.054629686,-0.014814843,1,0,0,3.6165,rock_grid_rect_2,8,02,-1,-1,3.617,0.355555556,-0.388888889,1,0,0,2.6422,Pumice_rect,8,2.642,1,15,0,15,0,1,,,,,,,,,,,,,
655fd989a5ef07b413f74e24,TCN,2024-06-25_11h24.47.680,LearnStrategy,2023.2.3,Win32,16.10305958,4,2,1,,,,,,,,5,02,,,,,,,,,,,5,2.407,1,,,,,,-0.412037023,-0.408333333,1,0,0,2.4075,Obsidian_rect,0,0,0,0,1,
655fd989a5ef07b413f74e24,TCN,2024-06-25_11h24.47.680,LearnStrategy,2023.2.3,Win32,16.10305958,4,2,2,,,,,,,,5,06,,,,,,,,,,,5,0.931,1,,,,,,-0.412037023,-0.408333333,1,0,0,0.931,Obsidian_rect,1,0,1,0,1,
655fd989a5ef07b413f74e24,TCN,2024-06-25_11h24.47.680,LearnStrategy,2023.2.3,Win32,16.10305958,4,2,3,,,,,,,,4,05,,,,,,,,,,,2,3.977,0,,,,,,-0.161111111,-0.239814843,1,0,0,3.9773,Basalt_rect,2,0,2,0,1,
655fd989a5ef07b413f74e24,TCN,2024-06-25_11h24.47.680,LearnStrategy,2023.2.3,Win32,16.10305958,4,2,4,,,,,,,,2,11,,,,,,,,,,,8,5.197,0,,,,,,0.385185242,-0.405555556,1,0,0,5.1968,Pumice_rect,3,0,3,0,1,
655fd989a5ef07b413f74e24,TCN,2024-06-25_11h24.47.680,LearnStrategy,2023.2.3,Win32,16.10305958,4,2,5,,,,,,,,2,14,,,,,,,,,,,8,1.961,0,,,,,,0.385185242,-0.405555556,1,0,0,1.9611,Pumice_rect,4,0,4,0,1,
655fd989a5ef07b413f74e24,TCN,2024-06-25_11h24.47.680,LearnStrategy,2023.2.3,Win32,16.10305958,4,2,6,,,,,,,,3,08,,,,,,,,,,,1,3.416,0,,,,,,-0.352777778,-0.237963019,1,0,0,3.4157,Andesite_rect,5,0,5,0,1,
655fd989a5ef07b413f74e24,TCN,2024-06-25_11h24.47.680,LearnStrategy,2023.2.3,Win32,16.10305958,4,2,7,,,,,,,,8,10,,,,,,,,,,,8,2.897,1,,,,,,0.359259288,-0.380555556,1,0,0,2.8965,Pumice_rect,6,0,6,0,1,
655fd989a5ef07b413f74e24,TCN,2024-06-25_11h24.47.680,LearnStrategy,2023.2.3,Win32,16.10305958,4,2,8,,,,,,,,8,14,,,,,,,,,,,8,0.857,1,,,,,,0.359259288,-0.380555556,1,0,0,0.8569,Pumice_rect,7,0,7,0,1,
655fd989a5ef07b413f74e24,TCN,2024-06-25_11h24.47.680,LearnStrategy,2023.2.3,Win32,16.10305958,4,2,9,,,,,,,,6,16,,,,,,,,,,,1,2.458,0,,,,,,-0.4,-0.238888889,1,0,0,2.4576,Andesite_rect,8,0,8,0,1,
655fd989a5ef07b413f74e24,TCN,2024-06-25_11h24.47.680,LearnStrategy,2023.2.3,Win32,16.10305958,4,2,10,,,,,,,,1,03,,,,,,,,,,,2,3.434,0,,,,,,-0.094444444,-0.257407464,1,0,0,3.4341,Basalt_rect,9,0,9,0,1,
655fd989a5ef07b413f74e24,TCN,2024-06-25_11h24.47.680,LearnStrategy,2023.2.3,Win32,16.10305958,4,2,11,,,,,,,,3,07,,,,,,,,,,,3,2.019,1,,,,,,0.136111111,-0.25648151,1,0,0,2.0191,Diorite_rect,10,0,10,0,1,
655fd989a5ef07b413f74e24,TCN,2024-06-25_11h24.47.680,LearnStrategy,2023.2.3,Win32,16.10305958,4,2,12,,,,,,,,7,13,,,,,,,,,,,4,3.022,0,,,,,,0.334259288,-0.252777778,1,0,0,3.0222,Gabbro_rect,11,0,11,0,1,
655fd989a5ef07b413f74e24,TCN,2024-06-25_11h24.47.680,LearnStrategy,2023.2.3,Win32,16.10305958,4,2,13,,,,,,,,1,01,,,,,,,,,,,6,3.894,0,,,,,,-0.150925869,-0.413888889,1,0,0,3.8943,Pegmatite_rect,12,0,12,0,1,
655fd989a5ef07b413f74e24,TCN,2024-06-25_11h24.47.680,LearnStrategy,2023.2.3,Win32,16.10305958,4,2,14,,,,,,,,4,10,,,,,,,,,,,7,2.935,0,,,,,,0.037963019,-0.400925954,1,0,0,2.9352,Peridotite_rect,13,0,13,0,1,
655fd989a5ef07b413f74e24,TCN,2024-06-25_11h24.47.680,LearnStrategy,2023.2.3,Win32,16.10305958,4,2,15,,,,,,,,7,02,,,,,,,,,,,4,2.205,0,,,,,,0.340740797,-0.247222222,1,0,0,2.205,Gabbro_rect,14,0,14,0,1,
655fd989a5ef07b413f74e24,TCN,2024-06-25_11h24.47.680,LearnStrategy,2023.2.3,Win32,16.10305958,4,2,16,,,,,,,,6,06,,,,,,,,,,,4,1.434,0,,,,,,0.340740797,-0.247222222,1,0,0,1.4339,Gabbro_rect,15,0,15,0,1,
655fd989a5ef07b413f74e24,TCN,2024-06-25_11h24.47.680,LearnStrategy,2023.2.3,Win32,16.10305958,5,1,1,0.159259288,0.000925912,1,0,0,3.079,rock_grid_rect_2,8,05,-1,-1,3.079,0.386111111,-0.4,1,0,0,2.9533,Pumice_rect,8,2.953,1,0,0,0,0,1,,,,,,,,,,,,,
655fd989a5ef07b413f74e24,TCN,2024-06-25_11h24.47.680,LearnStrategy,2023.2.3,Win32,16.10305958,5,1,2,0.039814843,-0.001851866,1,0,0,1.9732,rock_grid_rect_2,4,11,-1,-1,1.973,-0.115740712,-0.229629686,1,0,0,2.1594,Basalt_rect,2,2.159,0,1,0,1,0,1,,,,,,,,,,,,,
655fd989a5ef07b413f74e24,TCN,2024-06-25_11h24.47.680,LearnStrategy,2023.2.3,Win32,16.10305958,5,1,3,0.125,-0.003703732,1,0,0,1.5983,rock_grid_rect_2,5,11,-1,-1,1.598,-0.420370356,-0.398148176,1,0,0,2.0408,Obsidian_rect,5,2.041,1,2,0,2,0,1,,,,,,,,,,,,,
655fd989a5ef07b413f74e24,TCN,2024-06-25_11h24.47.680,LearnStrategy,2023.2.3,Win32,16.10305958,5,1,4,0.061111111,-0.011111111,1,0,0,1.7434,rock_grid_rect_2,3,11,-1,-1,1.743,-0.116666667,-0.249074131,1,0,0,2.2913,Basalt_rect,2,2.291,0,3,0,3,0,1,,,,,,,,,,,,,
655fd989a5ef07b413f74e24,TCN,2024-06-25_11h24.47.680,LearnStrategy,2023.2.3,Win32,16.10305958,5,1,5,0.15,-0.008333333,1,0,0,1.5989,rock_grid_rect_2,2,16,-1,-1,1.599,0.119444444,-0.237037065,1,0,0,3.9898,Diorite_rect,3,3.99,0,4,0,4,0,1,,,,,,,,,,,,,
655fd989a5ef07b413f74e24,TCN,2024-06-25_11h24.47.680,LearnStrategy,2023.2.3,Win32,16.10305958,5,1,6,0.136111111,-0.008333333,1,0,0,2.042,rock_grid_rect_2,4,08,-1,-1,2.042,-0.39351849,-0.25648151,1,0,0,2.9486,Andesite_rect,1,2.949,0,5,0,5,0,1,,,,,,,,,,,,,
655fd989a5ef07b413f74e24,TCN,2024-06-25_11h24.47.680,LearnStrategy,2023.2.3,Win32,16.10305958,5,1,7,0.148148176,-0.014814843,1,0,0,3.1392,rock_grid_rect_2,2,02,-1,-1,3.139,-0.125,-0.233333333,1,0,0,3.0238,Basalt_rect,2,3.024,1,6,0,6,0,1,,,,,,,,,,,,,
655fd989a5ef07b413f74e24,TCN,2024-06-25_11h24.47.680,LearnStrategy,2023.2.3,Win32,16.10305958,5,1,8,0.143518575,-0.018518533,1,0,0,10.9993,rock_grid_rect_2,6,08,-1,-1,10.999,-0.337037023,-0.382407464,1,0,0,4.9893,Obsidian_rect,5,4.989,0,7,0,7,0,1,,,,,,,,,,,,,
655fd989a5ef07b413f74e24,TCN,2024-06-25_11h24.47.680,LearnStrategy,2023.2.3,Win32,16.10305958,5,1,9,0.142592621,-0.013888889,1,0,0,2.261,rock_grid_rect_2,6,13,-1,-1,2.261,-0.137036981,-0.387963019,1,0,0,3.4907,Pegmatite_rect,6,3.491,1,8,0,8,0,1,,,,,,,,,,,,,
655fd989a5ef07b413f74e24,TCN,2024-06-25_11h24.47.680,LearnStrategy,2023.2.3,Win32,16.10305958,5,1,10,0.164814843,-0.001851866,1,0,0,1.6787,rock_grid_rect_2,7,14,-1,-1,1.679,-0.083333333,-0.382407464,1,0,0,3.1868,Pegmatite_rect,6,3.187,0,9,0,9,0,1,,,,,,,,,,,,,
655fd989a5ef07b413f74e24,TCN,2024-06-25_11h24.47.680,LearnStrategy,2023.2.3,Win32,16.10305958,5,1,11,0.049074131,-0.018518533,1,0,0,2.1384,rock_grid_rect_2,5,16,-1,-1,2.138,-0.408333333,-0.410185242,1,0,0,4.1846,Obsidian_rect,5,4.185,1,10,0,10,0,1,,,,,,,,,,,,,
655fd989a5ef07b413f74e24,TCN,2024-06-25_11h24.47.680,LearnStrategy,2023.2.3,Win32,16.10305958,5,1,12,0.126851908,0.000925912,1,0,0,2.064,rock_grid_rect_2,1,10,-1,-1,2.064,-0.337037023,-0.249074131,1,0,0,2.9162,Andesite_rect,1,2.916,1,11,0,11,0,1,,,,,,,,,,,,,
655fd989a5ef07b413f74e24,TCN,2024-06-25_11h24.47.680,LearnStrategy,2023.2.3,Win32,16.10305958,5,1,13,0.094444444,-0.012962977,1,0,0,1.8466,rock_grid_rect_2,7,12,-1,-1,1.847,-0.32870369,-0.252777778,1,0,0,2.6442,Andesite_rect,1,2.644,0,12,0,12,0,1,,,,,,,,,,,,,
655fd989a5ef07b413f74e24,TCN,2024-06-25_11h24.47.680,LearnStrategy,2023.2.3,Win32,16.10305958,5,1,14,0.159259288,0.002777778,1,0,0,1.8684,rock_grid_rect_2,8,16,-1,-1,1.868,0.420370399,-0.412963019,1,0,0,2.0166,Pumice_rect,8,2.017,1,13,0,13,0,1,,,,,,,,,,,,,
655fd989a5ef07b413f74e24,TCN,2024-06-25_11h24.47.680,LearnStrategy,2023.2.3,Win32,16.10305958,5,1,15,0.135185242,-0.003703732,1,0,0,2.1807,rock_grid_rect_2,1,02,-1,-1,2.181,-0.116666667,-0.236111111,1,0,0,3.4357,Basalt_rect,2,3.436,0,14,0,14,0,1,,,,,,,,,,,,,
655fd989a5ef07b413f74e24,TCN,2024-06-25_11h24.47.680,LearnStrategy,2023.2.3,Win32,16.10305958,5,1,16,0.085185242,0.004629601,1,0,0,1.9062,rock_grid_rect_2,3,15,-1,-1,1.906,-0.154629601,-0.254629686,1,0,0,3.5159,Basalt_rect,2,3.516,0,15,0,15,0,1,,,,,,,,,,,,,
655fd989a5ef07b413f74e24,TCN,2024-06-25_11h24.47.680,LearnStrategy,2023.2.3,Win32,16.10305958,5,2,1,,,,,,,,2,09,,,,,,,,,,,3,3.226,0,,,,,,0.089814843,-0.249074131,1,0,0,3.2257,Diorite_rect,0,0,0,0,1,
655fd989a5ef07b413f74e24,TCN,2024-06-25_11h24.47.680,LearnStrategy,2023.2.3,Win32,16.10305958,5,2,2,,,,,,,,2,05,,,,,,,,,,,2,3.353,1,,,,,,-0.126851824,-0.249074131,1,0,0,3.3526,Basalt_rect,1,0,1,0,1,
655fd989a5ef07b413f74e24,TCN,2024-06-25_11h24.47.680,LearnStrategy,2023.2.3,Win32,16.10305958,5,2,3,,,,,,,,4,12,,,,,,,,,,,2,2.753,0,,,,,,-0.126851824,-0.249074131,1,0,0,2.7528,Basalt_rect,2,0,2,0,1,
655fd989a5ef07b413f74e24,TCN,2024-06-25_11h24.47.680,LearnStrategy,2023.2.3,Win32,16.10305958,5,2,4,,,,,,,,1,05,,,,,,,,,,,3,2.263,0,,,,,,0.08148151,-0.255555556,1,0,0,2.2631,Diorite_rect,3,0,3,0,1,
655fd989a5ef07b413f74e24,TCN,2024-06-25_11h24.47.680,LearnStrategy,2023.2.3,Win32,16.10305958,5,2,5,,,,,,,,3,02,,,,,,,,,,,1,2.786,0,,,,,,-0.322222222,-0.244444444,1,0,0,2.7856,Andesite_rect,4,0,4,0,1,
655fd989a5ef07b413f74e24,TCN,2024-06-25_11h24.47.680,LearnStrategy,2023.2.3,Win32,16.10305958,5,2,6,,,,,,,,7,08,,,,,,,,,,,4,3.395,0,,,,,,0.38148151,-0.258333333,1,0,0,3.3948,Gabbro_rect,5,0,5,0,1,
655fd989a5ef07b413f74e24,TCN,2024-06-25_11h24.47.680,LearnStrategy,2023.2.3,Win32,16.10305958,5,2,7,,,,,,,,6,05,,,,,,,,,,,6,6.929,1,,,,,,-0.065740712,-0.412963019,1,0,0,6.929,Pegmatite_rect,6,0,6,0,1,
655fd989a5ef07b413f74e24,TCN,2024-06-25_11h24.47.680,LearnStrategy,2023.2.3,Win32,16.10305958,5,2,8,,,,,,,,5,04,,,,,,,,,,,5,1.769,1,,,,,,-0.352777778,-0.396296353,1,0,0,1.7687,Obsidian_rect,7,0,7,0,1,
655fd989a5ef07b413f74e24,TCN,2024-06-25_11h24.47.680,LearnStrategy,2023.2.3,Win32,16.10305958,5,2,9,,,,,,,,8,15,,,,,,,,,,,8,1.994,1,,,,,,0.396296353,-0.413888889,1,0,0,1.9942,Pumice_rect,8,0,8,0,1,
655fd989a5ef07b413f74e24,TCN,2024-06-25_11h24.47.680,LearnStrategy,2023.2.3,Win32,16.10305958,5,2,10,,,,,,,,7,04,,,,,,,,,,,7,2.596,1,,,,,,0.107407464,-0.404629686,1,0,0,2.5959,Peridotite_rect,9,0,9,0,1,
655fd989a5ef07b413f74e24,TCN,2024-06-25_11h24.47.680,LearnStrategy,2023.2.3,Win32,16.10305958,5,2,11,,,,,,,,4,09,,,,,,,,,,,6,2.653,0,,,,,,-0.119444444,-0.391666667,1,0,0,2.653,Pegmatite_rect,10,0,10,0,1,
655fd989a5ef07b413f74e24,TCN,2024-06-25_11h24.47.680,LearnStrategy,2023.2.3,Win32,16.10305958,5,2,12,,,,,,,,6,03,,,,,,,,,,,4,3.083,0,,,,,,0.392592621,-0.233333333,1,0,0,3.0835,Gabbro_rect,11,0,11,0,1,
655fd989a5ef07b413f74e24,TCN,2024-06-25_11h24.47.680,LearnStrategy,2023.2.3,Win32,16.10305958,5,2,13,,,,,,,,3,06,,,,,,,,,,,2,6.681,0,,,,,,-0.181481467,-0.236111111,1,0,0,6.6813,Basalt_rect,12,0,12,0,1,
655fd989a5ef07b413f74e24,TCN,2024-06-25_11h24.47.680,LearnStrategy,2023.2.3,Win32,16.10305958,5,2,14,,,,,,,,1,16,,,,,,,,,,,1,3.102,1,,,,,,-0.34351849,-0.262037065,1,0,0,3.1018,Andesite_rect,13,0,13,0,1,
655fd989a5ef07b413f74e24,TCN,2024-06-25_11h24.47.680,LearnStrategy,2023.2.3,Win32,16.10305958,5,2,15,,,,,,,,5,14,,,,,,,,,,,5,1.77,1,,,,,,-0.436111111,-0.383333333,1,0,0,1.7699,Obsidian_rect,14,0,14,0,1,
655fd989a5ef07b413f74e24,TCN,2024-06-25_11h24.47.680,LearnStrategy,2023.2.3,Win32,16.10305958,5,2,16,,,,,,,,8,04,,,,,,,,,,,8,2.048,1,,,,,,0.312963019,-0.387963019,1,0,0,2.0481,Pumice_rect,15,0,15,0,1,
655fd989a5ef07b413f74e24,TCN,2024-06-25_11h24.47.680,LearnStrategy,2023.2.3,Win32,16.10305958,6,1,1,0.102777778,0.006481467,1,0,0,2.0353,rock_grid_rect_2,7,07,-1,-1,2.035,0.325925954,-0.247222222,1,0,0,6.017,Gabbro_rect,4,6.017,0,0,0,0,0,1,,,,,,,,,,,,,
655fd989a5ef07b413f74e24,TCN,2024-06-25_11h24.47.680,LearnStrategy,2023.2.3,Win32,16.10305958,6,1,2,0.129629686,-0.015740755,1,0,0,1.7407,rock_grid_rect_2,6,15,-1,-1,1.741,0.387037065,-0.233333333,1,0,0,2.5388,Gabbro_rect,4,2.539,0,1,0,1,0,1,,,,,,,,,,,,,
655fd989a5ef07b413f74e24,TCN,2024-06-25_11h24.47.680,LearnStrategy,2023.2.3,Win32,16.10305958,6,1,3,0.108333333,-0.018518533,1,0,0,1.4104,rock_grid_rect_2,5,07,-1,-1,1.41,-0.406481467,-0.394444444,1,0,0,2.4788,Obsidian_rect,5,2.479,1,2,0,2,0,1,,,,,,,,,,,,,
655fd989a5ef07b413f74e24,TCN,2024-06-25_11h24.47.680,LearnStrategy,2023.2.3,Win32,16.10305958,6,1,4,0.1,-0.003703732,1,0,0,1.5557,rock_grid_rect_2,8,06,-1,-1,1.556,0.338888889,-0.396296353,1,0,0,1.8446,Pumice_rect,8,1.845,1,3,0,3,0,1,,,,,,,,,,,,,
655fd989a5ef07b413f74e24,TCN,2024-06-25_11h24.47.680,LearnStrategy,2023.2.3,Win32,16.10305958,6,1,5,0.154629686,-0.009259288,1,0,0,2.6422,rock_grid_rect_2,2,12,-1,-1,2.642,0.348148176,-0.393518575,1,0,0,2.3509,Pumice_rect,8,2.351,0,4,0,4,0,1,,,,,,,,,,,,,
655fd989a5ef07b413f74e24,TCN,2024-06-25_11h24.47.680,LearnStrategy,2023.2.3,Win32,16.10305958,6,1,6,0.145370399,-0.005555556,1,0,0,1.4537,rock_grid_rect_2,1,04,-1,-1,1.454,-0.35370369,-0.232407464,1,0,0,4.1518,Andesite_rect,1,4.152,1,5,0,5,0,1,,,,,,,,,,,,,
655fd989a5ef07b413f74e24,TCN,2024-06-25_11h24.47.680,LearnStrategy,2023.2.3,Win32,16.10305958,6,1,7,0.054629686,0.010185157,1,0,0,1.6555,rock_grid_rect_2,6,12,-1,-1,1.656,-0.121296268,-0.390740797,1,0,0,4.5563,Pegmatite_rect,6,4.556,1,6,0,6,0,1,,,,,,,,,,,,,
655fd989a5ef07b413f74e24,TCN,2024-06-25_11h24.47.680,LearnStrategy,2023.2.3,Win32,16.10305958,6,1,8,0.084259288,-0.003703732,1,0,0,1.6368,rock_grid_rect_2,4,01,-1,-1,1.637,-0.137036981,-0.241666667,1,0,0,2.2329,Basalt_rect,2,2.233,0,7,0,7,0,1,,,,,,,,,,,,,
655fd989a5ef07b413f74e24,TCN,2024-06-25_11h24.47.680,LearnStrategy,2023.2.3,Win32,16.10305958,6,1,9,0.097222222,-0.009259288,1,0,0,1.7022,rock_grid_rect_2,3,10,-1,-1,1.702,-0.121296268,-0.25,1,0,0,3.6437,Basalt_rect,2,3.644,0,8,0,8,0,1,,,,,,,,,,,,,
655fd989a5ef07b413f74e24,TCN,2024-06-25_11h24.47.680,LearnStrategy,2023.2.3,Win32,16.10305958,6,1,10,0.078703732,-0.004629644,1,0,0,3.5954,rock_grid_rect_2,5,08,-1,-1,3.595,-0.409259245,-0.402777778,1,0,0,3.2062,Obsidian_rect,5,3.206,1,9,0,9,0,1,,,,,,,,,,,,,
655fd989a5ef07b413f74e24,TCN,2024-06-25_11h24.47.680,LearnStrategy,2023.2.3,Win32,16.10305958,6,1,11,0.147222222,0.01851849,1,0,0,2.3855,rock_grid_rect_2,7,16,-1,-1,2.385,0.095370399,-0.410185242,1,0,0,3.8728,Peridotite_rect,7,3.873,1,10,0,10,0,1,,,,,,,,,,,,,
655fd989a5ef07b413f74e24,TCN,2024-06-25_11h24.47.680,LearnStrategy,2023.2.3,Win32,16.10305958,6,1,12,0.128703732,-0.012037065,1,0,0,2.0344,rock_grid_rect_2,4,16,-1,-1,2.034,-0.074074046,-0.250925954,1,0,0,7.3717,Basalt_rect,2,7.372,0,11,0,11,0,1,,,,,,,,,,,,,
655fd989a5ef07b413f74e24,TCN,2024-06-25_11h24.47.680,LearnStrategy,2023.2.3,Win32,16.10305958,6,1,13,0.159259288,-0.010185199,1,0,0,1.9907,rock_grid_rect_2,8,03,-1,-1,1.991,0.389814843,-0.394444444,1,0,0,2.2482,Pumice_rect,8,2.248,1,12,0,12,0,1,,,,,,,,,,,,,
655fd989a5ef07b413f74e24,TCN,2024-06-25_11h24.47.680,LearnStrategy,2023.2.3,Win32,16.10305958,6,1,14,0.133333333,-0.001851866,1,0,0,2.0563,rock_grid_rect_2,1,09,-1,-1,2.056,-0.160185157,-0.260185242,1,0,0,2.4321,Basalt_rect,2,2.432,0,13,0,13,0,1,,,,,,,,,,,,,
655fd989a5ef07b413f74e24,TCN,2024-06-25_11h24.47.680,LearnStrategy,2023.2.3,Win32,16.10305958,6,1,15,0.079629686,0.011111111,1,0,0,1.3685,rock_grid_rect_2,3,09,-1,-1,1.369,-0.341666667,-0.243518575,1,0,0,2.0618,Andesite_rect,1,2.062,0,14,0,14,0,1,,,,,,,,,,,,,
655fd989a5ef07b413f74e24,TCN,2024-06-25_11h24.47.680,LearnStrategy,2023.2.3,Win32,16.10305958,6,1,16,0.118518575,-0.002777778,1,0,0,1.3067,rock_grid_rect_2,2,08,-1,-1,1.307,-0.119444444,-0.245370399,1,0,0,3.001,Basalt_rect,2,3.001,1,15,0,15,0,1,,,,,,,,,,,,,
655fd989a5ef07b413f74e24,TCN,2024-06-25_11h24.47.680,LearnStrategy,2023.2.3,Win32,16.10305958,6,2,1,,,,,,,,5,09,,,,,,,,,,,5,1.672,1,,,,,,-0.389814801,-0.411111111,1,0,0,1.6725,Obsidian_rect,0,0,0,0,1,
655fd989a5ef07b413f74e24,TCN,2024-06-25_11h24.47.680,LearnStrategy,2023.2.3,Win32,16.10305958,6,2,2,,,,,,,,4,14,,,,,,,,,,,3,3.435,0,,,,,,0.166666667,-0.232407464,1,0,0,3.4347,Diorite_rect,1,0,1,0,1,
655fd989a5ef07b413f74e24,TCN,2024-06-25_11h24.47.680,LearnStrategy,2023.2.3,Win32,16.10305958,6,2,3,,,,,,,,6,09,,,,,,,,,,,7,3.64,0,,,,,,0.1,-0.398148176,1,0,0,3.6405,Peridotite_rect,2,0,2,0,1,
655fd989a5ef07b413f74e24,TCN,2024-06-25_11h24.47.680,LearnStrategy,2023.2.3,Win32,16.10305958,6,2,4,,,,,,,,1,07,,,,,,,,,,,6,7.042,0,,,,,,-0.150925869,-0.410185242,1,0,0,7.0423,Pegmatite_rect,3,0,3,0,1,
655fd989a5ef07b413f74e24,TCN,2024-06-25_11h24.47.680,LearnStrategy,2023.2.3,Win32,16.10305958,6,2,5,,,,,,,,6,07,,,,,,,,,,,7,4.579,0,,,,,,0.119444444,-0.383333333,1,0,0,4.5791,Peridotite_rect,4,0,4,0,1,
655fd989a5ef07b413f74e24,TCN,2024-06-25_11h24.47.680,LearnStrategy,2023.2.3,Win32,16.10305958,6,2,6,,,,,,,,3,14,,,,,,,,,,,2,2.442,0,,,,,,-0.079629601,-0.260185242,1,0,0,2.4424,Basalt_rect,5,0,5,0,1,
655fd989a5ef07b413f74e24,TCN,2024-06-25_11h24.47.680,LearnStrategy,2023.2.3,Win32,16.10305958,6,2,7,,,,,,,,8,08,,,,,,,,,,,8,1.789,1,,,,,,0.376851908,-0.416666667,1,0,0,1.789,Pumice_rect,6,0,6,0,1,
655fd989a5ef07b413f74e24,TCN,2024-06-25_11h24.47.680,LearnStrategy,2023.2.3,Win32,16.10305958,6,2,8,,,,,,,,4,13,,,,,,,,,,,1,2.756,0,,,,,,-0.355555556,-0.248148176,1,0,0,2.7559,Andesite_rect,7,0,7,0,1,
655fd989a5ef07b413f74e24,TCN,2024-06-25_11h24.47.680,LearnStrategy,2023.2.3,Win32,16.10305958,6,2,9,,,,,,,,3,12,,,,,,,,,,,3,3.309,1,,,,,,0.094444444,-0.23148151,1,0,0,3.3086,Diorite_rect,8,0,8,0,1,
655fd989a5ef07b413f74e24,TCN,2024-06-25_11h24.47.680,LearnStrategy,2023.2.3,Win32,16.10305958,6,2,10,,,,,,,,1,06,,,,,,,,,,,4,3.959,0,,,,,,0.337037065,-0.237963019,1,0,0,3.9592,Gabbro_rect,9,0,9,0,1,
655fd989a5ef07b413f74e24,TCN,2024-06-25_11h24.47.680,LearnStrategy,2023.2.3,Win32,16.10305958,6,2,11,,,,,,,,7,15,,,,,,,,,,,6,3.5,0,,,,,,-0.084259203,-0.40648151,1,0,0,3.5001,Pegmatite_rect,10,0,10,0,1,
655fd989a5ef07b413f74e24,TCN,2024-06-25_11h24.47.680,LearnStrategy,2023.2.3,Win32,16.10305958,6,2,12,,,,,,,,2,01,,,,,,,,,,,2,3.717,1,,,,,,-0.110185157,-0.247222222,1,0,0,3.717,Basalt_rect,11,0,11,0,1,
655fd989a5ef07b413f74e24,TCN,2024-06-25_11h24.47.680,LearnStrategy,2023.2.3,Win32,16.10305958,6,2,13,,,,,,,,8,13,,,,,,,,,,,8,2.291,1,,,,,,0.336111111,-0.391666667,1,0,0,2.2905,Pumice_rect,12,0,12,0,1,
655fd989a5ef07b413f74e24,TCN,2024-06-25_11h24.47.680,LearnStrategy,2023.2.3,Win32,16.10305958,6,2,14,,,,,,,,5,12,,,,,,,,,,,5,1.93,1,,,,,,-0.375,-0.400925954,1,0,0,1.9297,Obsidian_rect,13,0,13,0,1,
655fd989a5ef07b413f74e24,TCN,2024-06-25_11h24.47.680,LearnStrategy,2023.2.3,Win32,16.10305958,6,2,15,,,,,,,,7,06,,,,,,,,,,,3,4.516,0,,,,,,0.183333333,-0.25648151,1,0,0,4.5161,Diorite_rect,14,0,14,0,1,
655fd989a5ef07b413f74e24,TCN,2024-06-25_11h24.47.680,LearnStrategy,2023.2.3,Win32,16.10305958,6,2,16,,,,,,,,2,04,,,,,,,,,,,2,1.869,1,,,,,,-0.103703647,-0.243518575,1,0,0,1.8687,Basalt_rect,15,0,15,0,1,
655fd989a5ef07b413f74e24,TCN,2024-06-25_11h24.47.680,LearnStrategy,2023.2.3,Win32,16.10305958,7,1,1,0.121296353,-0.009259288,1,0,0,1.7028,rock_grid_rect_2,4,01,-1,-1,1.703,0.098148176,-0.246296353,1,0,0,6.3519,Diorite_rect,3,6.352,0,0,0,0,0,1,,,,,,,,,,,,,
655fd989a5ef07b413f74e24,TCN,2024-06-25_11h24.47.680,LearnStrategy,2023.2.3,Win32,16.10305958,7,1,2,0.170370399,-0.005555556,1,0,0,1.6363,rock_grid_rect_2,7,12,-1,-1,1.636,0.088888889,-0.396296353,1,0,0,3.8734,Peridotite_rect,7,3.873,1,1,0,1,0,1,,,,,,,,,,,,,
655fd989a5ef07b413f74e24,TCN,2024-06-25_11h24.47.680,LearnStrategy,2023.2.3,Win32,16.10305958,7,1,3,0.137963019,-0.001851866,1,0,0,1.7826,rock_grid_rect_2,7,07,-1,-1,1.783,0.073148176,-0.405555556,1,0,0,1.8113,Peridotite_rect,7,1.811,1,2,0,2,0,1,,,,,,,,,,,,,
655fd989a5ef07b413f74e24,TCN,2024-06-25_11h24.47.680,LearnStrategy,2023.2.3,Win32,16.10305958,7,1,4,0.173148176,-0.018518533,1,0,0,1.7225,rock_grid_rect_2,6,11,-1,-1,1.723,-0.077777778,-0.378703732,1,0,0,1.7082,Pegmatite_rect,6,1.708,1,3,0,3,0,1,,,,,,,,,,,,,
655fd989a5ef07b413f74e24,TCN,2024-06-25_11h24.47.680,LearnStrategy,2023.2.3,Win32,16.10305958,7,1,5,0.078703732,-0.008333333,1,0,0,1.3675,rock_grid_rect_2,1,11,-1,-1,1.368,-0.14351849,-0.398148176,1,0,0,3.3316,Pegmatite_rect,6,3.332,0,4,0,4,0,1,,,,,,,,,,,,,
655fd989a5ef07b413f74e24,TCN,2024-06-25_11h24.47.680,LearnStrategy,2023.2.3,Win32,16.10305958,7,1,6,0.033333333,-0.02129631,1,0,0,1.6159,rock_grid_rect_2,6,15,-1,-1,1.616,0.370370399,-0.240740797,1,0,0,4.1041,Gabbro_rect,4,4.104,0,5,0,5,0,1,,,,,,,,,,,,,
655fd989a5ef07b413f74e24,TCN,2024-06-25_11h24.47.680,LearnStrategy,2023.2.3,Win32,16.10305958,7,1,7,0.166666667,0.005555556,1,0,0,1.6997,rock_grid_rect_2,5,11,-1,-1,1.7,-0.374074046,-0.404629686,1,0,0,1.8734,Obsidian_rect,5,1.873,1,6,0,6,0,1,,,,,,,,,,,,,
655fd989a5ef07b413f74e24,TCN,2024-06-25_11h24.47.680,LearnStrategy,2023.2.3,Win32,16.10305958,7,1,8,0.122222222,0.012037023,1,0,0,1.3895,rock_grid_rect_2,1,02,-1,-1,1.389,-0.325925912,-0.267592621,1,0,0,2.0626,Andesite_rect,1,2.063,1,7,0,7,0,1,,,,,,,,,,,,,
655fd989a5ef07b413f74e24,TCN,2024-06-25_11h24.47.680,LearnStrategy,2023.2.3,Win32,16.10305958,7,1,9,0.090740797,-0.008333333,1,0,0,1.5554,rock_grid_rect_2,8,16,-1,-1,1.555,0.348148176,-0.385185242,1,0,0,3.5022,Pumice_rect,8,3.502,1,8,0,8,0,1,,,,,,,,,,,,,
655fd989a5ef07b413f74e24,TCN,2024-06-25_11h24.47.680,LearnStrategy,2023.2.3,Win32,16.10305958,7,1,10,0.13148151,0.00370369,1,0,0,1.5534,rock_grid_rect_2,5,07,-1,-1,1.553,-0.384259245,-0.388888889,1,0,0,2.9994,Obsidian_rect,5,2.999,1,9,0,9,0,1,,,,,,,,,,,,,
655fd989a5ef07b413f74e24,TCN,2024-06-25_11h24.47.680,LearnStrategy,2023.2.3,Win32,16.10305958,7,1,11,0.087037065,-0.008333333,1,0,0,2.3885,rock_grid_rect_2,2,08,-1,-1,2.389,-0.112036981,-0.251851908,1,0,0,1.9717,Basalt_rect,2,1.972,1,10,0,10,0,1,,,,,,,,,,,,,
655fd989a5ef07b413f74e24,TCN,2024-06-25_11h24.47.680,LearnStrategy,2023.2.3,Win32,16.10305958,7,1,12,0.098148176,0.005555556,1,0,0,1.5975,rock_grid_rect_2,3,15,-1,-1,1.598,0.358333333,-0.234259288,1,0,0,4.6871,Gabbro_rect,4,4.687,0,11,0,11,0,1,,,,,,,,,,,,,
655fd989a5ef07b413f74e24,TCN,2024-06-25_11h24.47.680,LearnStrategy,2023.2.3,Win32,16.10305958,7,1,13,0.114814843,-0.001851866,1,0,0,1.2819,rock_grid_rect_2,4,11,-1,-1,1.282,0.082407464,-0.250925954,1,0,0,1.3982,Diorite_rect,3,1.398,0,12,0,12,0,1,,,,,,,,,,,,,
655fd989a5ef07b413f74e24,TCN,2024-06-25_11h24.47.680,LearnStrategy,2023.2.3,Win32,16.10305958,7,1,14,0.099074131,-0.012037065,1,0,0,2.2229,rock_grid_rect_2,2,06,-1,-1,2.223,-0.165740712,-0.246296353,1,0,0,2.3324,Basalt_rect,2,2.332,1,13,0,13,0,1,,,,,,,,,,,,,
655fd989a5ef07b413f74e24,TCN,2024-06-25_11h24.47.680,LearnStrategy,2023.2.3,Win32,16.10305958,7,1,15,0.096296353,0.005555556,1,0,0,1.4937,rock_grid_rect_2,8,06,-1,-1,1.494,0.342592621,-0.385185242,1,0,0,2.778,Pumice_rect,8,2.778,1,14,0,14,0,1,,,,,,,,,,,,,
655fd989a5ef07b413f74e24,TCN,2024-06-25_11h24.47.680,LearnStrategy,2023.2.3,Win32,16.10305958,7,1,16,0.153703732,-0.011111111,1,0,0,2.556,rock_grid_rect_2,3,11,-1,-1,2.556,0.124074131,-0.255555556,1,0,0,4.684,Diorite_rect,3,4.684,1,15,0,15,0,1,,,,,,,,,,,,,
655fd989a5ef07b413f74e24,TCN,2024-06-25_11h24.47.680,LearnStrategy,2023.2.3,Win32,16.10305958,7,2,1,,,,,,,,8,08,,,,,,,,,,,8,3.397,1,,,,,,0.360185242,-0.391666667,1,0,0,3.3966,Pumice_rect,0,0,0,0,1,
655fd989a5ef07b413f74e24,TCN,2024-06-25_11h24.47.680,LearnStrategy,2023.2.3,Win32,16.10305958,7,2,2,,,,,,,,7,08,,,,,,,,,,,6,4.486,0,,,,,,-0.069444444,-0.410185242,1,0,0,4.4859,Pegmatite_rect,1,0,1,0,1,
655fd989a5ef07b413f74e24,TCN,2024-06-25_11h24.47.680,LearnStrategy,2023.2.3,Win32,16.10305958,7,2,3,,,,,,,,2,01,,,,,,,,,,,2,1.75,1,,,,,,-0.1,-0.263888889,1,0,0,1.7504,Basalt_rect,2,0,2,0,1,
655fd989a5ef07b413f74e24,TCN,2024-06-25_11h24.47.680,LearnStrategy,2023.2.3,Win32,16.10305958,7,2,4,,,,,,,,4,09,,,,,,,,,,,7,7.225,0,,,,,,0.094444444,-0.403703732,1,0,0,7.2246,Peridotite_rect,3,0,3,0,1,
655fd989a5ef07b413f74e24,TCN,2024-06-25_11h24.47.680,LearnStrategy,2023.2.3,Win32,16.10305958,7,2,5,,,,,,,,1,07,,,,,,,,,,,1,1.835,1,,,,,,-0.347222222,-0.267592621,1,0,0,1.8346,Andesite_rect,4,0,4,0,1,
655fd989a5ef07b413f74e24,TCN,2024-06-25_11h24.47.680,LearnStrategy,2023.2.3,Win32,16.10305958,7,2,6,,,,,,,,6,03,,,,,,,,,,,6,5.393,1,,,,,,-0.133333333,-0.404629686,1,0,0,5.393,Pegmatite_rect,5,0,5,0,1,
655fd989a5ef07b413f74e24,TCN,2024-06-25_11h24.47.680,LearnStrategy,2023.2.3,Win32,16.10305958,7,2,7,,,,,,,,7,13,,,,,,,,,,,7,2.152,1,,,,,,0.068518575,-0.394444444,1,0,0,2.1517,Peridotite_rect,6,0,6,0,1,
655fd989a5ef07b413f74e24,TCN,2024-06-25_11h24.47.680,LearnStrategy,2023.2.3,Win32,16.10305958,7,2,8,,,,,,,,1,16,,,,,,,,,,,1,3.855,1,,,,,,-0.332407379,-0.242592621,1,0,0,3.8547,Andesite_rect,7,0,7,0,1,
655fd989a5ef07b413f74e24,TCN,2024-06-25_11h24.47.680,LearnStrategy,2023.2.3,Win32,16.10305958,7,2,9,,,,,,,,5,09,,,,,,,,,,,5,1.603,1,,,,,,-0.446296268,-0.398148176,1,0,0,1.6027,Obsidian_rect,8,0,8,0,1,
655fd989a5ef07b413f74e24,TCN,2024-06-25_11h24.47.680,LearnStrategy,2023.2.3,Win32,16.10305958,7,2,10,,,,,,,,2,05,,,,,,,,,,,2,3.125,1,,,,,,-0.169444444,-0.266666667,1,0,0,3.1247,Basalt_rect,9,0,9,0,1,
655fd989a5ef07b413f74e24,TCN,2024-06-25_11h24.47.680,LearnStrategy,2023.2.3,Win32,16.10305958,7,2,11,,,,,,,,5,14,,,,,,,,,,,5,1.647,1,,,,,,-0.409259245,-0.397222222,1,0,0,1.6471,Obsidian_rect,10,0,10,0,1,
655fd989a5ef07b413f74e24,TCN,2024-06-25_11h24.47.680,LearnStrategy,2023.2.3,Win32,16.10305958,7,2,12,,,,,,,,8,15,,,,,,,,,,,8,2.728,1,,,,,,0.354629686,-0.407407464,1,0,0,2.7282,Pumice_rect,11,0,11,0,1,
655fd989a5ef07b413f74e24,TCN,2024-06-25_11h24.47.680,LearnStrategy,2023.2.3,Win32,16.10305958,7,2,13,,,,,,,,3,14,,,,,,,,,,,4,4.553,0,,,,,,0.409259288,-0.237963019,1,0,0,4.5526,Gabbro_rect,12,0,12,0,1,
655fd989a5ef07b413f74e24,TCN,2024-06-25_11h24.47.680,LearnStrategy,2023.2.3,Win32,16.10305958,7,2,14,,,,,,,,6,09,,,,,,,,,,,6,3.317,1,,,,,,-0.095370314,-0.397222222,1,0,0,3.3174,Pegmatite_rect,13,0,13,0,1,
655fd989a5ef07b413f74e24,TCN,2024-06-25_11h24.47.680,LearnStrategy,2023.2.3,Win32,16.10305958,7,2,15,,,,,,,,3,08,,,,,,,,,,,3,3.08,1,,,,,,0.209259288,-0.241666667,1,0,0,3.0803,Diorite_rect,14,0,14,0,1,
655fd989a5ef07b413f74e24,TCN,2024-06-25_11h24.47.680,LearnStrategy,2023.2.3,Win32,16.10305958,7,2,16,,,,,,,,4,13,,,,,,,,,,,4,1.447,1,,,,,,0.363888889,-0.244444444,1,0,0,1.4475,Gabbro_rect,15,0,15,0,1,
655fd989a5ef07b413f74e24,TCN,2024-06-25_11h24.47.680,LearnStrategy,2023.2.3,Win32,16.10305958,8,1,1,0.112963019,0.014814801,1,0,0,4.495,rock_grid_rect_2,6,08,-1,-1,4.495,-0.112962935,-0.408333333,1,0,0,6.7331,Pegmatite_rect,6,6.733,1,0,0,0,0,1,,,,,,,,,,,,,
655fd989a5ef07b413f74e24,TCN,2024-06-25_11h24.47.680,LearnStrategy,2023.2.3,Win32,16.10305958,8,1,2,0.130555556,0.006481467,1,0,0,1.6967,rock_grid_rect_2,2,16,-1,-1,1.697,0.142592621,-0.252777778,1,0,0,4.6845,Diorite_rect,3,4.684,0,1,0,1,0,1,,,,,,,,,,,,,
655fd989a5ef07b413f74e24,TCN,2024-06-25_11h24.47.680,LearnStrategy,2023.2.3,Win32,16.10305958,8,1,3,0.121296353,-0.018518533,1,0,0,1.8661,rock_grid_rect_2,4,08,-1,-1,1.866,-0.358333333,-0.261111111,1,0,0,3.2692,Andesite_rect,1,3.269,0,2,0,2,0,1,,,,,,,,,,,,,
655fd989a5ef07b413f74e24,TCN,2024-06-25_11h24.47.680,LearnStrategy,2023.2.3,Win32,16.10305958,8,1,4,0.187963019,0.008333333,1,0,0,1.5808,rock_grid_rect_2,3,16,-1,-1,1.581,-0.348148134,-0.235185242,1,0,0,4.1717,Andesite_rect,1,4.172,0,3,0,3,0,1,,,,,,,,,,,,,
655fd989a5ef07b413f74e24,TCN,2024-06-25_11h24.47.680,LearnStrategy,2023.2.3,Win32,16.10305958,8,1,5,0.065740797,-0.005555556,1,0,0,2.6161,rock_grid_rect_2,1,14,-1,-1,2.616,0.162963019,-0.255555556,1,0,0,1.9987,Diorite_rect,3,1.999,0,4,0,4,0,1,,,,,,,,,,,,,
655fd989a5ef07b413f74e24,TCN,2024-06-25_11h24.47.680,LearnStrategy,2023.2.3,Win32,16.10305958,8,1,6,0.141666667,0.006481467,1,0,0,2.7228,rock_grid_rect_2,3,13,-1,-1,2.723,-0.101851824,-0.404629686,1,0,0,4.3111,Pegmatite_rect,6,4.311,0,5,0,5,0,1,,,,,,,,,,,,,
655fd989a5ef07b413f74e24,TCN,2024-06-25_11h24.47.680,LearnStrategy,2023.2.3,Win32,16.10305958,8,1,7,0.005555556,0.000925912,1,0,0,1.9077,rock_grid_rect_2,8,09,-1,-1,1.908,0.365740797,-0.386111111,1,0,0,1.876,Pumice_rect,8,1.876,1,6,0,6,0,1,,,,,,,,,,,,,
655fd989a5ef07b413f74e24,TCN,2024-06-25_11h24.47.680,LearnStrategy,2023.2.3,Win32,16.10305958,8,1,8,0.175,0.006481467,1,0,0,1.8488,rock_grid_rect_2,2,12,-1,-1,1.849,-0.357407379,-0.234259288,1,0,0,4.6625,Andesite_rect,1,4.662,0,7,0,7,0,1,,,,,,,,,,,,,
655fd989a5ef07b413f74e24,TCN,2024-06-25_11h24.47.680,LearnStrategy,2023.2.3,Win32,16.10305958,8,1,9,-0.022222222,-0.000925954,1,0,0,1.5346,rock_grid_rect_2,8,02,-1,-1,1.535,0.409259288,-0.378703732,1,0,0,3.0598,Pumice_rect,8,3.06,1,8,0,8,0,1,,,,,,,,,,,,,
655fd989a5ef07b413f74e24,TCN,2024-06-25_11h24.47.680,LearnStrategy,2023.2.3,Win32,16.10305958,8,1,10,0.144444444,0.001851824,1,0,0,1.6788,rock_grid_rect_2,7,10,-1,-1,1.679,-0.108333333,-0.385185242,1,0,0,5.0204,Pegmatite_rect,6,5.02,0,9,0,9,0,1,,,,,,,,,,,,,
655fd989a5ef07b413f74e24,TCN,2024-06-25_11h24.47.680,LearnStrategy,2023.2.3,Win32,16.10305958,8,1,11,0.140740797,0.021296268,1,0,0,1.4479,rock_grid_rect_2,4,03,-1,-1,1.448,-0.135185157,-0.242592621,1,0,0,1.9994,Basalt_rect,2,1.999,0,10,0,10,0,1,,,,,,,,,,,,,
655fd989a5ef07b413f74e24,TCN,2024-06-25_11h24.47.680,LearnStrategy,2023.2.3,Win32,16.10305958,8,1,12,0.135185242,0.005555556,1,0,0,2.3064,rock_grid_rect_2,5,16,-1,-1,2.306,-0.412962935,-0.391666667,1,0,0,1.8141,Obsidian_rect,5,1.814,1,11,0,11,0,1,,,,,,,,,,,,,
655fd989a5ef07b413f74e24,TCN,2024-06-25_11h24.47.680,LearnStrategy,2023.2.3,Win32,16.10305958,8,1,13,0.073148176,-0.013888889,1,0,0,1.5565,rock_grid_rect_2,5,05,-1,-1,1.556,-0.425,-0.412963019,1,0,0,1.8723,Obsidian_rect,5,1.872,1,12,0,12,0,1,,,,,,,,,,,,,
655fd989a5ef07b413f74e24,TCN,2024-06-25_11h24.47.680,LearnStrategy,2023.2.3,Win32,16.10305958,8,1,14,0.060185242,0.002777778,1,0,0,1.7027,rock_grid_rect_2,6,10,-1,-1,1.703,0.101851908,-0.384259288,1,0,0,3.7066,Peridotite_rect,7,3.707,0,13,0,13,0,1,,,,,,,,,,,,,
655fd989a5ef07b413f74e24,TCN,2024-06-25_11h24.47.680,LearnStrategy,2023.2.3,Win32,16.10305958,8,1,15,0.149074131,-0.015740755,1,0,0,1.6372,rock_grid_rect_2,7,14,-1,-1,1.637,0.157407464,-0.241666667,1,0,0,2.4409,Diorite_rect,3,2.441,0,14,0,14,0,1,,,,,,,,,,,,,
655fd989a5ef07b413f74e24,TCN,2024-06-25_11h24.47.680,LearnStrategy,2023.2.3,Win32,16.10305958,8,1,16,0.128703732,-0.00648151,1,0,0,1.7225,rock_grid_rect_2,1,10,-1,-1,1.723,0.162963019,-0.386111111,1,0,0,3.4778,Peridotite_rect,7,3.478,0,15,0,15,0,1,,,,,,,,,,,,,
655fd989a5ef07b413f74e24,TCN,2024-06-25_11h24.47.680,LearnStrategy,2023.2.3,Win32,16.10305958,8,2,1,,,,,,,,3,07,,,,,,,,,,,7,4.504,0,,,,,,0.087037065,-0.412963019,1,0,0,4.5041,Peridotite_rect,0,0,0,0,1,
655fd989a5ef07b413f74e24,TCN,2024-06-25_11h24.47.680,LearnStrategy,2023.2.3,Win32,16.10305958,8,2,2,,,,,,,,4,05,,,,,,,,,,,6,1.962,0,,,,,,-0.051851824,-0.399074131,1,0,0,1.9616,Pegmatite_rect,1,0,1,0,1,
655fd989a5ef07b413f74e24,TCN,2024-06-25_11h24.47.680,LearnStrategy,2023.2.3,Win32,16.10305958,8,2,3,,,,,,,,2,04,,,,,,,,,,,2,4.111,1,,,,,,-0.137036981,-0.230555556,1,0,0,4.1111,Basalt_rect,2,0,2,0,1,
655fd989a5ef07b413f74e24,TCN,2024-06-25_11h24.47.680,LearnStrategy,2023.2.3,Win32,16.10305958,8,2,4,,,,,,,,7,04,,,,,,,,,,,3,3.08,0,,,,,,0.143518575,-0.240740797,1,0,0,3.0803,Diorite_rect,3,0,3,0,1,
655fd989a5ef07b413f74e24,TCN,2024-06-25_11h24.47.680,LearnStrategy,2023.2.3,Win32,16.10305958,8,2,5,,,,,,,,8,10,,,,,,,,,,,8,1.679,1,,,,,,0.369444444,-0.386111111,1,0,0,1.6795,Pumice_rect,4,0,4,0,1,
655fd989a5ef07b413f74e24,TCN,2024-06-25_11h24.47.680,LearnStrategy,2023.2.3,Win32,16.10305958,8,2,6,,,,,,,,6,05,,,,,,,,,,,6,5.357,1,,,,,,-0.135185157,-0.387037065,1,0,0,5.3573,Pegmatite_rect,5,0,5,0,1,
655fd989a5ef07b413f74e24,TCN,2024-06-25_11h24.47.680,LearnStrategy,2023.2.3,Win32,16.10305958,8,2,7,,,,,,,,5,12,,,,,,,,,,,5,1.668,1,,,,,,-0.391666667,-0.399074131,1,0,0,1.6677,Obsidian_rect,6,0,6,0,1,
655fd989a5ef07b413f74e24,TCN,2024-06-25_11h24.47.680,LearnStrategy,2023.2.3,Win32,16.10305958,8,2,8,,,,,,,,2,14,,,,,,,,,,,8,3.292,0,,,,,,0.375925954,-0.391666667,1,0,0,3.2924,Pumice_rect,7,0,7,0,1,
655fd989a5ef07b413f74e24,TCN,2024-06-25_11h24.47.680,LearnStrategy,2023.2.3,Win32,16.10305958,8,2,9,,,,,,,,7,02,,,,,,,,,,,7,1.768,1,,,,,,0.183333333,-0.401851908,1,0,0,1.7677,Peridotite_rect,8,0,8,0,1,
655fd989a5ef07b413f74e24,TCN,2024-06-25_11h24.47.680,LearnStrategy,2023.2.3,Win32,16.10305958,8,2,10,,,,,,,,3,12,,,,,,,,,,,3,2.252,1,,,,,,0.210185242,-0.248148176,1,0,0,2.2522,Diorite_rect,9,0,9,0,1,
655fd989a5ef07b413f74e24,TCN,2024-06-25_11h24.47.680,LearnStrategy,2023.2.3,Win32,16.10305958,8,2,11,,,,,,,,5,04,,,,,,,,,,,5,1.997,1,,,,,,-0.32870369,-0.387963019,1,0,0,1.9972,Obsidian_rect,10,0,10,0,1,
655fd989a5ef07b413f74e24,TCN,2024-06-25_11h24.47.680,LearnStrategy,2023.2.3,Win32,16.10305958,8,2,12,,,,,,,,1,05,,,,,,,,,,,1,2.007,1,,,,,,-0.425,-0.25648151,1,0,0,2.0068,Andesite_rect,11,0,11,0,1,
655fd989a5ef07b413f74e24,TCN,2024-06-25_11h24.47.680,LearnStrategy,2023.2.3,Win32,16.10305958,8,2,13,,,,,,,,6,06,,,,,,,,,,,4,3.58,0,,,,,,0.342592621,-0.25648151,1,0,0,3.5804,Gabbro_rect,12,0,12,0,1,
655fd989a5ef07b413f74e24,TCN,2024-06-25_11h24.47.680,LearnStrategy,2023.2.3,Win32,16.10305958,8,2,14,,,,,,,,1,06,,,,,,,,,,,2,3.249,0,,,,,,-0.152777778,-0.254629686,1,0,0,3.2486,Basalt_rect,13,0,13,0,1,
655fd989a5ef07b413f74e24,TCN,2024-06-25_11h24.47.680,LearnStrategy,2023.2.3,Win32,16.10305958,8,2,15,,,,,,,,8,13,,,,,,,,,,,8,2.114,1,,,,,,0.333333333,-0.396296353,1,0,0,2.114,Pumice_rect,14,0,14,0,1,
655fd989a5ef07b413f74e24,TCN,2024-06-25_11h24.47.680,LearnStrategy,2023.2.3,Win32,16.10305958,8,2,16,,,,,,,,4,10,,,,,,,,,,,3,4.562,0,,,,,,0.147222222,-0.251851908,1,0,0,4.5617,Diorite_rect,15,0,15,0,1,
655fd989a5ef07b413f74e24,TCN,2024-06-25_11h24.47.680,LearnStrategy,2023.2.3,Win32,16.10305958,9,1,1,0.026851908,-0.007407422,1,0,0,1.8077,rock_grid_rect_2,5,08,-1,-1,1.808,-0.405555556,-0.395370399,1,0,0,2.1491,Obsidian_rect,5,2.149,1,0,0,0,0,1,,,,,,,,,,,,,
655fd989a5ef07b413f74e24,TCN,2024-06-25_11h24.47.680,LearnStrategy,2023.2.3,Win32,16.10305958,9,1,2,0.096296353,-0.001851866,1,0,0,1.7224,rock_grid_rect_2,6,13,-1,-1,1.722,0.125,-0.248148176,1,0,0,2.2294,Diorite_rect,3,2.229,0,1,0,1,0,1,,,,,,,,,,,,,
655fd989a5ef07b413f74e24,TCN,2024-06-25_11h24.47.680,LearnStrategy,2023.2.3,Win32,16.10305958,9,1,3,0.180555556,0.004629601,1,0,0,2.16,rock_grid_rect_2,5,10,-1,-1,2.16,-0.404629601,-0.410185242,1,0,0,2.7505,Obsidian_rect,5,2.751,1,2,0,2,0,1,,,,,,,,,,,,,
655fd989a5ef07b413f74e24,TCN,2024-06-25_11h24.47.680,LearnStrategy,2023.2.3,Win32,16.10305958,9,1,4,0.094444444,0.005555556,1,0,0,1.6797,rock_grid_rect_2,8,03,-1,-1,1.68,0.341666667,-0.390740797,1,0,0,1.8698,Pumice_rect,8,1.87,1,3,0,3,0,1,,,,,,,,,,,,,
655fd989a5ef07b413f74e24,TCN,2024-06-25_11h24.47.680,LearnStrategy,2023.2.3,Win32,16.10305958,9,1,5,0.155555556,-0.012037065,1,0,0,2.2439,rock_grid_rect_2,7,16,-1,-1,2.244,0.402777778,-0.244444444,1,0,0,4.3959,Gabbro_rect,4,4.396,0,4,0,4,0,1,,,,,,,,,,,,,
655fd989a5ef07b413f74e24,TCN,2024-06-25_11h24.47.680,LearnStrategy,2023.2.3,Win32,16.10305958,9,1,6,0.147222222,0.016666667,1,0,0,1.471,rock_grid_rect_2,1,04,-1,-1,1.471,-0.131481425,-0.241666667,1,0,0,1.789,Basalt_rect,2,1.789,0,5,0,5,0,1,,,,,,,,,,,,,
655fd989a5ef07b413f74e24,TCN,2024-06-25_11h24.47.680,LearnStrategy,2023.2.3,Win32,16.10305958,9,1,7,0.122222222,-0.025,1,0,0,1.6193,rock_grid_rect_2,4,15,-1,-1,1.619,0.112037065,-0.245370399,1,0,0,3.4985,Diorite_rect,3,3.499,0,6,0,6,0,1,,,,,,,,,,,,,
655fd989a5ef07b413f74e24,TCN,2024-06-25_11h24.47.680,LearnStrategy,2023.2.3,Win32,16.10305958,9,1,8,0.113888889,-0.009259288,1,0,0,1.2193,rock_grid_rect_2,7,05,-1,-1,1.219,0.119444444,-0.248148176,1,0,0,2.5842,Diorite_rect,3,2.584,0,7,0,7,0,1,,,,,,,,,,,,,
655fd989a5ef07b413f74e24,TCN,2024-06-25_11h24.47.680,LearnStrategy,2023.2.3,Win32,16.10305958,9,1,9,0.152777778,-0.005555556,1,0,0,1.5561,rock_grid_rect_2,3,09,-1,-1,1.556,-0.164814758,-0.259259288,1,0,0,3.4375,Basalt_rect,2,3.438,0,8,0,8,0,1,,,,,,,,,,,,,
655fd989a5ef07b413f74e24,TCN,2024-06-25_11h24.47.680,LearnStrategy,2023.2.3,Win32,16.10305958,9,1,10,0.095370399,-0.005555556,1,0,0,1.3896,rock_grid_rect_2,8,05,-1,-1,1.39,0.360185242,-0.388888889,1,0,0,1.8327,Pumice_rect,8,1.833,1,9,0,9,0,1,,,,,,,,,,,,,
655fd989a5ef07b413f74e24,TCN,2024-06-25_11h24.47.680,LearnStrategy,2023.2.3,Win32,16.10305958,9,1,11,0.168518575,-0.024074088,1,0,0,1.8276,rock_grid_rect_2,1,09,-1,-1,1.828,-0.106481425,-0.244444444,1,0,0,1.7892,Basalt_rect,2,1.789,0,10,0,10,0,1,,,,,,,,,,,,,
655fd989a5ef07b413f74e24,TCN,2024-06-25_11h24.47.680,LearnStrategy,2023.2.3,Win32,16.10305958,9,1,12,0.058333333,0.009259245,1,0,0,1.9944,rock_grid_rect_2,2,02,-1,-1,1.994,-0.162962935,-0.244444444,1,0,0,1.5399,Basalt_rect,2,1.54,1,11,0,11,0,1,,,,,,,,,,,,,
655fd989a5ef07b413f74e24,TCN,2024-06-25_11h24.47.680,LearnStrategy,2023.2.3,Win32,16.10305958,9,1,13,0.039814843,0.024074046,1,0,0,1.2653,rock_grid_rect_2,3,10,-1,-1,1.265,0.139814843,-0.25,1,0,0,2.4871,Diorite_rect,3,2.487,1,12,0,12,0,1,,,,,,,,,,,,,
655fd989a5ef07b413f74e24,TCN,2024-06-25_11h24.47.680,LearnStrategy,2023.2.3,Win32,16.10305958,9,1,14,0.150925954,-0.003703732,1,0,0,1.9396,rock_grid_rect_2,2,10,-1,-1,1.94,-0.164814758,-0.25,1,0,0,2.8862,Basalt_rect,2,2.886,1,13,0,13,0,1,,,,,,,,,,,,,
655fd989a5ef07b413f74e24,TCN,2024-06-25_11h24.47.680,LearnStrategy,2023.2.3,Win32,16.10305958,9,1,15,0.05,0.016666667,1,0,0,1.3457,rock_grid_rect_2,4,16,-1,-1,1.346,0.365740797,-0.259259288,1,0,0,5.2261,Gabbro_rect,4,5.226,1,14,0,14,0,1,,,,,,,,,,,,,
655fd989a5ef07b413f74e24,TCN,2024-06-25_11h24.47.680,LearnStrategy,2023.2.3,Win32,16.10305958,9,1,16,0.087037065,0.019444444,1,0,0,1.6148,rock_grid_rect_2,6,12,-1,-1,1.615,-0.074074046,-0.405555556,1,0,0,4.5139,Pegmatite_rect,6,4.514,1,15,0,15,0,1,,,,,,,,,,,,,
655fd989a5ef07b413f74e24,TCN,2024-06-25_11h24.47.680,LearnStrategy,2023.2.3,Win32,16.10305958,9,2,1,,,,,,,,1,01,,,,,,,,,,,4,5.127,0,,,,,,0.326851908,-0.245370399,1,0,0,5.1267,Gabbro_rect,0,0,0,0,1,
655fd989a5ef07b413f74e24,TCN,2024-06-25_11h24.47.680,LearnStrategy,2023.2.3,Win32,16.10305958,9,2,2,,,,,,,,8,04,,,,,,,,,,,8,2.289,1,,,,,,0.408333333,-0.418518575,1,0,0,2.2885,Pumice_rect,1,0,1,0,1,
655fd989a5ef07b413f74e24,TCN,2024-06-25_11h24.47.680,LearnStrategy,2023.2.3,Win32,16.10305958,9,2,3,,,,,,,,5,02,,,,,,,,,,,5,1.85,1,,,,,,-0.35370369,-0.394444444,1,0,0,1.8498,Obsidian_rect,2,0,2,0,1,
655fd989a5ef07b413f74e24,TCN,2024-06-25_11h24.47.680,LearnStrategy,2023.2.3,Win32,16.10305958,9,2,4,,,,,,,,6,07,,,,,,,,,,,6,6.083,1,,,,,,-0.056481425,-0.408333333,1,0,0,6.0833,Pegmatite_rect,3,0,3,0,1,
655fd989a5ef07b413f74e24,TCN,2024-06-25_11h24.47.680,LearnStrategy,2023.2.3,Win32,16.10305958,9,2,5,,,,,,,,3,02,,,,,,,,,,,3,2.707,1,,,,,,0.207407464,-0.262037065,1,0,0,2.7067,Diorite_rect,4,0,4,0,1,
655fd989a5ef07b413f74e24,TCN,2024-06-25_11h24.47.680,LearnStrategy,2023.2.3,Win32,16.10305958,9,2,6,,,,,,,,7,15,,,,,,,,,,,7,2.75,1,,,,,,0.076851908,-0.397222222,1,0,0,2.7502,Peridotite_rect,5,0,5,0,1,
655fd989a5ef07b413f74e24,TCN,2024-06-25_11h24.47.680,LearnStrategy,2023.2.3,Win32,16.10305958,9,2,7,,,,,,,,5,06,,,,,,,,,,,5,1.811,1,,,,,,-0.422222222,-0.40648151,1,0,0,1.8114,Obsidian_rect,6,0,6,0,1,
655fd989a5ef07b413f74e24,TCN,2024-06-25_11h24.47.680,LearnStrategy,2023.2.3,Win32,16.10305958,9,2,8,,,,,,,,2,09,,,,,,,,,,,2,1.635,1,,,,,,-0.165740712,-0.241666667,1,0,0,1.6354,Basalt_rect,7,0,7,0,1,
655fd989a5ef07b413f74e24,TCN,2024-06-25_11h24.47.680,LearnStrategy,2023.2.3,Win32,16.10305958,9,2,9,,,,,,,,2,11,,,,,,,,,,,1,2.271,0,,,,,,-0.362037023,-0.241666667,1,0,0,2.2714,Andesite_rect,8,0,8,0,1,
655fd989a5ef07b413f74e24,TCN,2024-06-25_11h24.47.680,LearnStrategy,2023.2.3,Win32,16.10305958,9,2,10,,,,,,,,4,12,,,,,,,,,,,2,2.363,0,,,,,,-0.189814801,-0.250925954,1,0,0,2.3633,Basalt_rect,9,0,9,0,1,
655fd989a5ef07b413f74e24,TCN,2024-06-25_11h24.47.680,LearnStrategy,2023.2.3,Win32,16.10305958,9,2,11,,,,,,,,4,14,,,,,,,,,,,3,2.575,0,,,,,,0.125925954,-0.239814843,1,0,0,2.5753,Diorite_rect,10,0,10,0,1,
655fd989a5ef07b413f74e24,TCN,2024-06-25_11h24.47.680,LearnStrategy,2023.2.3,Win32,16.10305958,9,2,12,,,,,,,,1,03,,,,,,,,,,,1,2.31,1,,,,,,-0.32870369,-0.253703732,1,0,0,2.3098,Andesite_rect,11,0,11,0,1,
655fd989a5ef07b413f74e24,TCN,2024-06-25_11h24.47.680,LearnStrategy,2023.2.3,Win32,16.10305958,9,2,13,,,,,,,,8,14,,,,,,,,,,,8,2.6,1,,,,,,0.352777778,-0.391666667,1,0,0,2.5999,Pumice_rect,12,0,12,0,1,
655fd989a5ef07b413f74e24,TCN,2024-06-25_11h24.47.680,LearnStrategy,2023.2.3,Win32,16.10305958,9,2,14,,,,,,,,7,06,,,,,,,,,,,7,1.684,1,,,,,,0.163888889,-0.399074131,1,0,0,1.6838,Peridotite_rect,13,0,13,0,1,
655fd989a5ef07b413f74e24,TCN,2024-06-25_11h24.47.680,LearnStrategy,2023.2.3,Win32,16.10305958,9,2,15,,,,,,,,3,06,,,,,,,,,,,3,3.497,1,,,,,,0.146296353,-0.25,1,0,0,3.4975,Diorite_rect,14,0,14,0,1,
655fd989a5ef07b413f74e24,TCN,2024-06-25_11h24.47.680,LearnStrategy,2023.2.3,Win32,16.10305958,9,2,16,,,,,,,,6,16,,,,,,,,,,,6,4.583,1,,,,,,-0.121296268,-0.40648151,1,0,0,4.5834,Pegmatite_rect,15,0,15,0,1,
655fd989a5ef07b413f74e24,TCN,2024-06-25_11h24.47.680,LearnStrategy,2023.2.3,Win32,16.10305958,,,,,,,,,,,,,,,,,,,,,,,,,,,,,,,,,,,,,,,,,,,1
655fd989a5ef07b413f74e24,TCN,2024-06-25_11h24.47.680,LearnStrategy,2023.2.3,Win32,16.10305958,,,,,,,,,,,,,,,,,,,,,,,,,,,,,,,,,,,,,,,,,,,
655fd989a5ef07b413f74e24,TCN,2024-06-25_11h24.47.680,LearnStrategy,2023.2.3,Win32,16.10305958,,,,,,,,,,,8,09,1,1,,,,,,,,,,,,,,,,,,,,,,,,,,,,,
655fd989a5ef07b413f74e24,TCN,2024-06-25_11h24.47.680,LearnStrategy,2023.2.3,Win32,16.10305958,,,,,,,,,,,6,12,1,2,,,,,,,,,,,,,,,,,,,,,,,,,,,,,
655fd989a5ef07b413f74e24,TCN,2024-06-25_11h24.47.680,LearnStrategy,2023.2.3,Win32,16.10305958,,,,,,,,,,,8,06,1,3,,,,,,,,,,,,,,,,,,,,,,,,,,,,,
655fd989a5ef07b413f74e24,TCN,2024-06-25_11h24.47.680,LearnStrategy,2023.2.3,Win32,16.10305958,,,,,,,,,,,7,14,1,4,,,,,,,,,,,,,,,,,,,,,,,,,,,,,
655fd989a5ef07b413f74e24,TCN,2024-06-25_11h24.47.680,LearnStrategy,2023.2.3,Win32,16.10305958,,,,,,,,,,,3,13,1,5,,,,,,,,,,,,,,,,,,,,,,,,,,,,,
655fd989a5ef07b413f74e24,TCN,2024-06-25_11h24.47.680,LearnStrategy,2023.2.3,Win32,16.10305958,,,,,,,,,,,6,10,1,6,,,,,,,,,,,,,,,,,,,,,,,,,,,,,
655fd989a5ef07b413f74e24,TCN,2024-06-25_11h24.47.680,LearnStrategy,2023.2.3,Win32,16.10305958,,,,,,,,,,,4,08,1,7,,,,,,,,,,,,,,,,,,,,,,,,,,,,,
655fd989a5ef07b413f74e24,TCN,2024-06-25_11h24.47.680,LearnStrategy,2023.2.3,Win32,16.10305958,,,,,,,,,,,8,03,1,8,,,,,,,,,,,,,,,,,,,,,,,,,,,,,
655fd989a5ef07b413f74e24,TCN,2024-06-25_11h24.47.680,LearnStrategy,2023.2.3,Win32,16.10305958,,,,,,,,,,,3,11,2,1,,,,,,,,,,,,,,,,,,,,,,,,,,,,,
655fd989a5ef07b413f74e24,TCN,2024-06-25_11h24.47.680,LearnStrategy,2023.2.3,Win32,16.10305958,,,,,,,,,,,1,14,2,2,,,,,,,,,,,,,,,,,,,,,,,,,,,,,
655fd989a5ef07b413f74e24,TCN,2024-06-25_11h24.47.680,LearnStrategy,2023.2.3,Win32,16.10305958,,,,,,,,,,,2,02,2,3,,,,,,,,,,,,,,,,,,,,,,,,,,,,,
655fd989a5ef07b413f74e24,TCN,2024-06-25_11h24.47.680,LearnStrategy,2023.2.3,Win32,16.10305958,,,,,,,,,,,3,10,2,4,,,,,,,,,,,,,,,,,,,,,,,,,,,,,
655fd989a5ef07b413f74e24,TCN,2024-06-25_11h24.47.680,LearnStrategy,2023.2.3,Win32,16.10305958,,,,,,,,,,,7,12,2,5,,,,,,,,,,,,,,,,,,,,,,,,,,,,,
655fd989a5ef07b413f74e24,TCN,2024-06-25_11h24.47.680,LearnStrategy,2023.2.3,Win32,16.10305958,,,,,,,,,,,3,15,2,6,,,,,,,,,,,,,,,,,,,,,,,,,,,,,
655fd989a5ef07b413f74e24,TCN,2024-06-25_11h24.47.680,LearnStrategy,2023.2.3,Win32,16.10305958,,,,,,,,,,,8,05,2,7,,,,,,,,,,,,,,,,,,,,,,,,,,,,,
655fd989a5ef07b413f74e24,TCN,2024-06-25_11h24.47.680,LearnStrategy,2023.2.3,Win32,16.10305958,,,,,,,,,,,2,16,2,8,,,,,,,,,,,,,,,,,,,,,,,,,,,,,
655fd989a5ef07b413f74e24,TCN,2024-06-25_11h24.47.680,LearnStrategy,2023.2.3,Win32,16.10305958,,,,,,,,,,,6,11,3,1,,,,,,,,,,,,,,,,,,,,,,,,,,,,,
655fd989a5ef07b413f74e24,TCN,2024-06-25_11h24.47.680,LearnStrategy,2023.2.3,Win32,16.10305958,,,,,,,,,,,5,10,3,2,,,,,,,,,,,,,,,,,,,,,,,,,,,,,
655fd989a5ef07b413f74e24,TCN,2024-06-25_11h24.47.680,LearnStrategy,2023.2.3,Win32,16.10305958,,,,,,,,,,,1,10,3,3,,,,,,,,,,,,,,,,,,,,,,,,,,,,,
655fd989a5ef07b413f74e24,TCN,2024-06-25_11h24.47.680,LearnStrategy,2023.2.3,Win32,16.10305958,,,,,,,,,,,5,11,3,4,,,,,,,,,,,,,,,,,,,,,,,,,,,,,
655fd989a5ef07b413f74e24,TCN,2024-06-25_11h24.47.680,LearnStrategy,2023.2.3,Win32,16.10305958,,,,,,,,,,,7,10,3,5,,,,,,,,,,,,,,,,,,,,,,,,,,,,,
655fd989a5ef07b413f74e24,TCN,2024-06-25_11h24.47.680,LearnStrategy,2023.2.3,Win32,16.10305958,,,,,,,,,,,1,02,3,6,,,,,,,,,,,,,,,,,,,,,,,,,,,,,
655fd989a5ef07b413f74e24,TCN,2024-06-25_11h24.47.680,LearnStrategy,2023.2.3,Win32,16.10305958,,,,,,,,,,,4,11,3,7,,,,,,,,,,,,,,,,,,,,,,,,,,,,,
655fd989a5ef07b413f74e24,TCN,2024-06-25_11h24.47.680,LearnStrategy,2023.2.3,Win32,16.10305958,,,,,,,,,,,7,16,3,8,,,,,,,,,,,,,,,,,,,,,,,,,,,,,
655fd989a5ef07b413f74e24,TCN,2024-06-25_11h24.47.680,LearnStrategy,2023.2.3,Win32,16.10305958,,,,,,,,,,,2,08,4,1,,,,,,,,,,,,,,,,,,,,,,,,,,,,,
655fd989a5ef07b413f74e24,TCN,2024-06-25_11h24.47.680,LearnStrategy,2023.2.3,Win32,16.10305958,,,,,,,,,,,7,07,4,2,,,,,,,,,,,,,,,,,,,,,,,,,,,,,
655fd989a5ef07b413f74e24,TCN,2024-06-25_11h24.47.680,LearnStrategy,2023.2.3,Win32,16.10305958,,,,,,,,,,,7,05,4,3,,,,,,,,,,,,,,,,,,,,,,,,,,,,,
655fd989a5ef07b413f74e24,TCN,2024-06-25_11h24.47.680,LearnStrategy,2023.2.3,Win32,16.10305958,,,,,,,,,,,3,16,4,4,,,,,,,,,,,,,,,,,,,,,,,,,,,,,
655fd989a5ef07b413f74e24,TCN,2024-06-25_11h24.47.680,LearnStrategy,2023.2.3,Win32,16.10305958,,,,,,,,,,,5,16,4,5,,,,,,,,,,,,,,,,,,,,,,,,,,,,,
655fd989a5ef07b413f74e24,TCN,2024-06-25_11h24.47.680,LearnStrategy,2023.2.3,Win32,16.10305958,,,,,,,,,,,5,07,4,6,,,,,,,,,,,,,,,,,,,,,,,,,,,,,
655fd989a5ef07b413f74e24,TCN,2024-06-25_11h24.47.680,LearnStrategy,2023.2.3,Win32,16.10305958,,,,,,,,,,,8,16,4,7,,,,,,,,,,,,,,,,,,,,,,,,,,,,,
655fd989a5ef07b413f74e24,TCN,2024-06-25_11h24.47.680,LearnStrategy,2023.2.3,Win32,16.10305958,,,,,,,,,,,2,12,4,8,,,,,,,,,,,,,,,,,,,,,,,,,,,,,
655fd989a5ef07b413f74e24,TCN,2024-06-25_11h24.47.680,LearnStrategy,2023.2.3,Win32,16.10305958,,,,,,,,,,,2,10,5,1,,,,,,,,,,,,,,,,,,,,,,,,,,,,,
655fd989a5ef07b413f74e24,TCN,2024-06-25_11h24.47.680,LearnStrategy,2023.2.3,Win32,16.10305958,,,,,,,,,,,5,05,5,2,,,,,,,,,,,,,,,,,,,,,,,,,,,,,
655fd989a5ef07b413f74e24,TCN,2024-06-25_11h24.47.680,LearnStrategy,2023.2.3,Win32,16.10305958,,,,,,,,,,,2,06,5,3,,,,,,,,,,,,,,,,,,,,,,,,,,,,,
655fd989a5ef07b413f74e24,TCN,2024-06-25_11h24.47.680,LearnStrategy,2023.2.3,Win32,16.10305958,,,,,,,,,,,6,15,5,4,,,,,,,,,,,,,,,,,,,,,,,,,,,,,
655fd989a5ef07b413f74e24,TCN,2024-06-25_11h24.47.680,LearnStrategy,2023.2.3,Win32,16.10305958,,,,,,,,,,,1,11,5,5,,,,,,,,,,,,,,,,,,,,,,,,,,,,,
655fd989a5ef07b413f74e24,TCN,2024-06-25_11h24.47.680,LearnStrategy,2023.2.3,Win32,16.10305958,,,,,,,,,,,5,08,5,6,,,,,,,,,,,,,,,,,,,,,,,,,,,,,
655fd989a5ef07b413f74e24,TCN,2024-06-25_11h24.47.680,LearnStrategy,2023.2.3,Win32,16.10305958,,,,,,,,,,,6,13,5,7,,,,,,,,,,,,,,,,,,,,,,,,,,,,,
655fd989a5ef07b413f74e24,TCN,2024-06-25_11h24.47.680,LearnStrategy,2023.2.3,Win32,16.10305958,,,,,,,,,,,4,03,5,8,,,,,,,,,,,,,,,,,,,,,,,,,,,,,
655fd989a5ef07b413f74e24,TCN,2024-06-25_11h24.47.680,LearnStrategy,2023.2.3,Win32,16.10305958,,,,,,,,,,,8,02,6,1,,,,,,,,,,,,,,,,,,,,,,,,,,,,,
655fd989a5ef07b413f74e24,TCN,2024-06-25_11h24.47.680,LearnStrategy,2023.2.3,Win32,16.10305958,,,,,,,,,,,1,09,6,2,,,,,,,,,,,,,,,,,,,,,,,,,,,,,
655fd989a5ef07b413f74e24,TCN,2024-06-25_11h24.47.680,LearnStrategy,2023.2.3,Win32,16.10305958,,,,,,,,,,,4,01,6,3,,,,,,,,,,,,,,,,,,,,,,,,,,,,,
655fd989a5ef07b413f74e24,TCN,2024-06-25_11h24.47.680,LearnStrategy,2023.2.3,Win32,16.10305958,,,,,,,,,,,3,09,6,4,,,,,,,,,,,,,,,,,,,,,,,,,,,,,
655fd989a5ef07b413f74e24,TCN,2024-06-25_11h24.47.680,LearnStrategy,2023.2.3,Win32,16.10305958,,,,,,,,,,,6,08,6,5,,,,,,,,,,,,,,,,,,,,,,,,,,,,,
655fd989a5ef07b413f74e24,TCN,2024-06-25_11h24.47.680,LearnStrategy,2023.2.3,Win32,16.10305958,,,,,,,,,,,4,15,6,6,,,,,,,,,,,,,,,,,,,,,,,,,,,,,
655fd989a5ef07b413f74e24,TCN,2024-06-25_11h24.47.680,LearnStrategy,2023.2.3,Win32,16.10305958,,,,,,,,,,,4,16,6,7,,,,,,,,,,,,,,,,,,,,,,,,,,,,,
655fd989a5ef07b413f74e24,TCN,2024-06-25_11h24.47.680,LearnStrategy,2023.2.3,Win32,16.10305958,,,,,,,,,,,1,04,6,8,,,,,,,,,,,,,,,,,,,,,,,,,,,,,