participant,condition,date,expName,psychopyVersion,OS,frameRate,block,phase,trial,learn_mouse_2.x,learn_mouse_2.y,learn_mouse_2.leftButton,learn_mouse_2.midButton,learn_mouse_2.rightButton,learn_mouse_2.time,learn_mouse_2.clicked_name,cat,token,row,col,t_select,cat_mouse_l.x,cat_mouse_l.y,cat_mouse_l.leftButton,cat_mouse_l.midButton,cat_mouse_l.rightButton,cat_mouse_l.time,cat_mouse_l.clicked_name,resp,t_resp,corr,train_trials.thisRepN,train_trials.thisTrialN,train_trials.thisN,train_trials.thisIndex,train_trials.ran,cat_mouse_t.x,cat_mouse_t.y,cat_mouse_t.leftButton,cat_mouse_t.midButton,cat_mouse_t.rightButton,cat_mouse_t.time,cat_mouse_t.clicked_name,test_trials.thisRepN,test_trials.thisTrialN,test_trials.thisN,test_trials.thisIndex,test_trials.ran,Bonus
655f8da6abba5f374f3145dc,TCN,2024-06-12_13h43.12.802,LearnStrategy,2023.2.3,MacIntel,58.13953488,,,,,,,,,,,,,,,,,,,,,,,,,,,,,,,,,,,,,,,,,,,
655f8da6abba5f374f3145dc,TCN,2024-06-12_13h43.12.802,LearnStrategy,2023.2.3,MacIntel,58.13953488,1,1,1,0.007608507,-0.001141493,1,0,0,2.9684,rock_grid_rect_2,5,04,-1,-1,2.968,-0.338289931,-0.403771701,1,0,0,5.8198,Obsidian_rect,5,5.82,1,0,0,0,0,1,,,,,,,,,,,,,
655f8da6abba5f374f3145dc,TCN,2024-06-12_13h43.12.802,LearnStrategy,2023.2.3,MacIntel,58.13953488,1,1,2,-0.007447917,-9.11458E-05,1,0,0,10.7545,rock_grid_rect_2,4,09,-1,-1,10.755,0.232873264,-0.243159722,1,0,0,7.9497,Diorite_rect,3,7.95,0,1,0,1,0,1,,,,,,,,,,,,,
655f8da6abba5f374f3145dc,TCN,2024-06-12_13h43.12.802,LearnStrategy,2023.2.3,MacIntel,58.13953488,1,1,3,-0.037161458,-0.013628472,1,0,0,4.6536,rock_grid_rect_2,8,16,-1,-1,4.654,-0.398576389,-0.233667535,1,0,0,1.8291,Andesite_rect,1,1.829,0,2,0,2,0,1,,,,,,,,,,,,,
655f8da6abba5f374f3145dc,TCN,2024-06-12_13h43.12.802,LearnStrategy,2023.2.3,MacIntel,58.13953488,1,1,4,-0.01952691,-0.004097222,1,0,0,1.2335,rock_grid_rect_2,8,03,-1,-1,1.233,0.363168403,-0.247039931,1,0,0,2.5627,Gabbro_rect,4,2.563,0,3,0,3,0,1,,,,,,,,,,,,,
655f8da6abba5f374f3145dc,TCN,2024-06-12_13h43.12.802,LearnStrategy,2023.2.3,MacIntel,58.13953488,1,1,5,0.034973958,0.00797309,1,0,0,2.1691,rock_grid_rect_2,6,09,-1,-1,2.169,-0.203415799,-0.264869792,1,0,0,8.3244,Basalt_rect,2,8.324,0,4,0,4,0,1,,,,,,,,,,,,,
655f8da6abba5f374f3145dc,TCN,2024-06-12_13h43.12.802,LearnStrategy,2023.2.3,MacIntel,58.13953488,1,1,6,0.038263889,0.010742188,1,0,0,1.9046,rock_grid_rect_2,2,05,-1,-1,1.905,-0.415737847,-0.400980903,1,0,0,5.5186,Obsidian_rect,5,5.519,0,5,0,5,0,1,,,,,,,,,,,,,
655f8da6abba5f374f3145dc,TCN,2024-06-12_13h43.12.802,LearnStrategy,2023.2.3,MacIntel,58.13953488,1,1,7,0.134266493,0.010594618,1,0,0,2.579,rock_grid_rect_2,7,07,-1,-1,2.579,-0.065607639,-0.245481771,1,0,0,4.0547,Basalt_rect,2,4.055,0,6,0,6,0,1,,,,,,,,,,,,,
655f8da6abba5f374f3145dc,TCN,2024-06-12_13h43.12.802,LearnStrategy,2023.2.3,MacIntel,58.13953488,1,1,8,0.034131944,-0.000169271,1,0,0,1.7129,rock_grid_rect_2,1,07,-1,-1,1.713,0.385264757,-0.229652778,1,0,0,3.6257,Gabbro_rect,4,3.626,0,7,0,7,0,1,,,,,,,,,,,,,
655f8da6abba5f374f3145dc,TCN,2024-06-12_13h43.12.802,LearnStrategy,2023.2.3,MacIntel,58.13953488,1,1,9,-0.115646701,0.0071875,1,0,0,1.1507,rock_grid_rect_2,2,10,-1,-1,1.151,0.382230903,-0.236671007,1,0,0,7.2502,Gabbro_rect,4,7.25,0,8,0,8,0,1,,,,,,,,,,,,,
655f8da6abba5f374f3145dc,TCN,2024-06-12_13h43.12.802,LearnStrategy,2023.2.3,MacIntel,58.13953488,1,1,10,-0.005898438,0.003125,1,0,0,1.3683,rock_grid_rect_2,7,16,-1,-1,1.368,-0.36016059,-0.24421875,1,0,0,2.846,Andesite_rect,1,2.846,0,9,0,9,0,1,,,,,,,,,,,,,
655f8da6abba5f374f3145dc,TCN,2024-06-12_13h43.12.802,LearnStrategy,2023.2.3,MacIntel,58.13953488,1,1,11,0.066827257,0.003780382,1,0,0,2.699,rock_grid_rect_2,4,16,-1,-1,2.699,0.107243924,-0.258897569,1,0,0,7.1729,Diorite_rect,3,7.173,0,10,0,10,0,1,,,,,,,,,,,,,
655f8da6abba5f374f3145dc,TCN,2024-06-12_13h43.12.802,LearnStrategy,2023.2.3,MacIntel,58.13953488,1,1,12,0.01984809,-0.01468316,1,0,0,2.4954,rock_grid_rect_2,3,06,-1,-1,2.495,0.085846354,-0.392699653,1,0,0,5.6375,Peridotite_rect,7,5.637,0,11,0,11,0,1,,,,,,,,,,,,,
655f8da6abba5f374f3145dc,TCN,2024-06-12_13h43.12.802,LearnStrategy,2023.2.3,MacIntel,58.13953488,1,1,13,0.096193576,0.008567708,1,0,0,1.6988,rock_grid_rect_2,5,02,-1,-1,1.699,-0.359392361,-0.393072917,1,0,0,1.8802,Obsidian_rect,5,1.88,1,12,0,12,0,1,,,,,,,,,,,,,
655f8da6abba5f374f3145dc,TCN,2024-06-12_13h43.12.802,LearnStrategy,2023.2.3,MacIntel,58.13953488,1,1,14,-0.000386285,-0.015998264,1,0,0,1.1928,rock_grid_rect_2,1,14,-1,-1,1.193,0.189913194,-0.410763889,1,0,0,8.8755,Peridotite_rect,7,8.875,0,13,0,13,0,1,,,,,,,,,,,,,
655f8da6abba5f374f3145dc,TCN,2024-06-12_13h43.12.802,LearnStrategy,2023.2.3,MacIntel,58.13953488,1,1,15,0.018476563,-0.020833333,1,0,0,0.9471,rock_grid_rect_2,6,12,-1,-1,0.947,-0.125030382,-0.261736111,1,0,0,4.0379,Basalt_rect,2,4.038,0,14,0,14,0,1,,,,,,,,,,,,,
655f8da6abba5f374f3145dc,TCN,2024-06-12_13h43.12.802,LearnStrategy,2023.2.3,MacIntel,58.13953488,1,1,16,0.031432292,-0.007139757,1,0,0,0.9861,rock_grid_rect_2,3,02,-1,-1,0.986,-0.361297743,-0.260021701,1,0,0,2.5615,Andesite_rect,1,2.562,0,15,0,15,0,1,,,,,,,,,,,,,
655f8da6abba5f374f3145dc,TCN,2024-06-12_13h43.12.802,LearnStrategy,2023.2.3,MacIntel,58.13953488,1,2,1,,,,,,,,3,16,,,,,,,,,,,3,5.769,1,,,,,,0.111861979,-0.260134549,1,0,0,5.7693,Diorite_rect,0,0,0,0,1,
655f8da6abba5f374f3145dc,TCN,2024-06-12_13h43.12.802,LearnStrategy,2023.2.3,MacIntel,58.13953488,1,2,2,,,,,,,,7,06,,,,,,,,,,,6,12.886,0,,,,,,-0.0721875,-0.388198785,1,0,0,12.8857,Pegmatite_rect,1,0,1,0,1,
655f8da6abba5f374f3145dc,TCN,2024-06-12_13h43.12.802,LearnStrategy,2023.2.3,MacIntel,58.13953488,1,2,3,,,,,,,,4,14,,,,,,,,,,,7,11.974,0,,,,,,0.072144097,-0.399631076,1,0,0,11.9738,Peridotite_rect,2,0,2,0,1,
655f8da6abba5f374f3145dc,TCN,2024-06-12_13h43.12.802,LearnStrategy,2023.2.3,MacIntel,58.13953488,1,2,4,,,,,,,,4,01,,,,,,,,,,,1,6.044,0,,,,,,-0.331289063,-0.266158854,1,0,0,6.0438,Andesite_rect,3,0,3,0,1,
655f8da6abba5f374f3145dc,TCN,2024-06-12_13h43.12.802,LearnStrategy,2023.2.3,MacIntel,58.13953488,1,2,5,,,,,,,,3,07,,,,,,,,,,,3,10.925,1,,,,,,0.187070313,-0.247000868,1,0,0,10.9247,Diorite_rect,4,0,4,0,1,
655f8da6abba5f374f3145dc,TCN,2024-06-12_13h43.12.802,LearnStrategy,2023.2.3,MacIntel,58.13953488,1,2,6,,,,,,,,5,06,,,,,,,,,,,5,10.221,1,,,,,,-0.341944444,-0.397291667,1,0,0,10.2214,Obsidian_rect,5,0,5,0,1,
655f8da6abba5f374f3145dc,TCN,2024-06-12_13h43.12.802,LearnStrategy,2023.2.3,MacIntel,58.13953488,1,2,7,,,,,,,,5,16,,,,,,,,,,,5,6.973,1,,,,,,-0.341996528,-0.400017361,1,0,0,6.9726,Obsidian_rect,6,0,6,0,1,
655f8da6abba5f374f3145dc,TCN,2024-06-12_13h43.12.802,LearnStrategy,2023.2.3,MacIntel,58.13953488,1,2,8,,,,,,,,2,01,,,,,,,,,,,2,3.99,1,,,,,,-0.110282118,-0.259184028,1,0,0,3.9896,Basalt_rect,7,0,7,0,1,
655f8da6abba5f374f3145dc,TCN,2024-06-12_13h43.12.802,LearnStrategy,2023.2.3,MacIntel,58.13953488,1,2,9,,,,,,,,6,16,,,,,,,,,,,4,22.287,0,,,,,,0.389366319,-0.245277778,1,0,0,22.2872,Gabbro_rect,8,0,8,0,1,
655f8da6abba5f374f3145dc,TCN,2024-06-12_13h43.12.802,LearnStrategy,2023.2.3,MacIntel,58.13953488,1,2,10,,,,,,,,1,04,,,,,,,,,,,1,10.055,1,,,,,,-0.323081597,-0.26718316,1,0,0,10.0555,Andesite_rect,9,0,9,0,1,
655f8da6abba5f374f3145dc,TCN,2024-06-12_13h43.12.802,LearnStrategy,2023.2.3,MacIntel,58.13953488,1,2,11,,,,,,,,7,12,,,,,,,,,,,3,6.749,0,,,,,,0.095082465,-0.245711806,1,0,0,6.7491,Diorite_rect,10,0,10,0,1,
655f8da6abba5f374f3145dc,TCN,2024-06-12_13h43.12.802,LearnStrategy,2023.2.3,MacIntel,58.13953488,1,2,12,,,,,,,,6,15,,,,,,,,,,,6,7.838,1,,,,,,-0.066362847,-0.395121528,1,0,0,7.8383,Pegmatite_rect,11,0,11,0,1,
655f8da6abba5f374f3145dc,TCN,2024-06-12_13h43.12.802,LearnStrategy,2023.2.3,MacIntel,58.13953488,1,2,13,,,,,,,,8,06,,,,,,,,,,,8,3.402,1,,,,,,0.377916667,-0.394305556,1,0,0,3.402,Pumice_rect,12,0,12,0,1,
655f8da6abba5f374f3145dc,TCN,2024-06-12_13h43.12.802,LearnStrategy,2023.2.3,MacIntel,58.13953488,1,2,14,,,,,,,,1,01,,,,,,,,,,,3,7.118,0,,,,,,0.196809896,-0.269270833,1,0,0,7.1176,Diorite_rect,13,0,13,0,1,
655f8da6abba5f374f3145dc,TCN,2024-06-12_13h43.12.802,LearnStrategy,2023.2.3,MacIntel,58.13953488,1,2,15,,,,,,,,2,02,,,,,,,,,,,2,6.359,1,,,,,,-0.170551215,-0.242265625,1,0,0,6.3594,Basalt_rect,14,0,14,0,1,
655f8da6abba5f374f3145dc,TCN,2024-06-12_13h43.12.802,LearnStrategy,2023.2.3,MacIntel,58.13953488,1,2,16,,,,,,,,8,05,,,,,,,,,,,8,7.273,1,,,,,,0.395052083,-0.387669271,1,0,0,7.2734,Pumice_rect,15,0,15,0,1,
655f8da6abba5f374f3145dc,TCN,2024-06-12_13h43.12.802,LearnStrategy,2023.2.3,MacIntel,58.13953488,2,1,1,0.025069444,-0.000750868,1,0,0,5.8307,rock_grid_rect_2,1,09,-1,-1,5.831,0.152304688,-0.245234375,1,0,0,10.2559,Diorite_rect,3,10.256,0,0,0,0,0,1,,,,,,,,,,,,,
655f8da6abba5f374f3145dc,TCN,2024-06-12_13h43.12.802,LearnStrategy,2023.2.3,MacIntel,58.13953488,2,1,2,-0.034921875,0.003398437,1,0,0,0.9673,rock_grid_rect_2,5,12,-1,-1,0.967,-0.315208333,-0.406480035,1,0,0,4.5108,Obsidian_rect,5,4.511,1,1,0,1,0,1,,,,,,,,,,,,,
655f8da6abba5f374f3145dc,TCN,2024-06-12_13h43.12.802,LearnStrategy,2023.2.3,MacIntel,58.13953488,2,1,3,-0.017269965,-0.017929687,1,0,0,1.0183,rock_grid_rect_2,2,14,-1,-1,1.018,0.393611111,-0.413897569,1,0,0,2.0376,Pumice_rect,8,2.038,0,2,0,2,0,1,,,,,,,,,,,,,
655f8da6abba5f374f3145dc,TCN,2024-06-12_13h43.12.802,LearnStrategy,2023.2.3,MacIntel,58.13953488,2,1,4,0.036480035,-0.00921875,1,0,0,1.1168,rock_grid_rect_2,4,15,-1,-1,1.117,0.16437934,-0.266857639,1,0,0,2.34,Diorite_rect,3,2.34,0,3,0,3,0,1,,,,,,,,,,,,,
655f8da6abba5f374f3145dc,TCN,2024-06-12_13h43.12.802,LearnStrategy,2023.2.3,MacIntel,58.13953488,2,1,5,0.023671875,-0.016822917,1,0,0,1.2515,rock_grid_rect_2,7,08,-1,-1,1.251,-0.346388889,-0.252951389,1,0,0,5.1316,Andesite_rect,1,5.132,0,4,0,4,0,1,,,,,,,,,,,,,
655f8da6abba5f374f3145dc,TCN,2024-06-12_13h43.12.802,LearnStrategy,2023.2.3,MacIntel,58.13953488,2,1,6,0.016302083,-0.017417535,1,0,0,1.1712,rock_grid_rect_2,6,13,-1,-1,1.171,0.319518229,-0.242105035,1,0,0,4.8751,Gabbro_rect,4,4.875,0,5,0,5,0,1,,,,,,,,,,,,,
655f8da6abba5f374f3145dc,TCN,2024-06-12_13h43.12.802,LearnStrategy,2023.2.3,MacIntel,58.13953488,2,1,7,0.03437066,0.000386285,1,0,0,1.0441,rock_grid_rect_2,1,11,-1,-1,1.044,-0.08484809,-0.252621528,1,0,0,3.6561,Basalt_rect,2,3.656,0,6,0,6,0,1,,,,,,,,,,,,,
655f8da6abba5f374f3145dc,TCN,2024-06-12_13h43.12.802,LearnStrategy,2023.2.3,MacIntel,58.13953488,2,1,8,0.021844618,-0.001119792,1,0,0,0.9015,rock_grid_rect_2,3,10,-1,-1,0.901,-0.328671875,-0.246948785,1,0,0,10.5927,Andesite_rect,1,10.593,0,7,0,7,0,1,,,,,,,,,,,,,
655f8da6abba5f374f3145dc,TCN,2024-06-12_13h43.12.802,LearnStrategy,2023.2.3,MacIntel,58.13953488,2,1,9,-0.014001736,-0.009123264,1,0,0,1.2432,rock_grid_rect_2,8,04,-1,-1,1.243,0.417586806,-0.394796007,1,0,0,1.6769,Pumice_rect,8,1.677,1,8,0,8,0,1,,,,,,,,,,,,,
655f8da6abba5f374f3145dc,TCN,2024-06-12_13h43.12.802,LearnStrategy,2023.2.3,MacIntel,58.13953488,2,1,10,0.026996528,0.004982639,1,0,0,1.0464,rock_grid_rect_2,3,13,-1,-1,1.046,0.05280816,-0.38687934,1,0,0,4.4936,Peridotite_rect,7,4.494,0,9,0,9,0,1,,,,,,,,,,,,,
655f8da6abba5f374f3145dc,TCN,2024-06-12_13h43.12.802,LearnStrategy,2023.2.3,MacIntel,58.13953488,2,1,11,0.009878472,-0.010533854,1,0,0,1.1139,rock_grid_rect_2,8,09,-1,-1,1.114,0.417734375,-0.403897569,1,0,0,1.3835,Pumice_rect,8,1.384,1,10,0,10,0,1,,,,,,,,,,,,,
655f8da6abba5f374f3145dc,TCN,2024-06-12_13h43.12.802,LearnStrategy,2023.2.3,MacIntel,58.13953488,2,1,12,0.023450521,-0.005625,1,0,0,1.0804,rock_grid_rect_2,7,15,-1,-1,1.08,0.348580729,-0.256757813,1,0,0,1.4415,Gabbro_rect,4,1.442,0,11,0,11,0,1,,,,,,,,,,,,,
655f8da6abba5f374f3145dc,TCN,2024-06-12_13h43.12.802,LearnStrategy,2023.2.3,MacIntel,58.13953488,2,1,13,0.036202257,0.005360243,1,0,0,1.0174,rock_grid_rect_2,4,03,-1,-1,1.017,-0.123103299,-0.392022569,1,0,0,2.6074,Pegmatite_rect,6,2.607,0,12,0,12,0,1,,,,,,,,,,,,,
655f8da6abba5f374f3145dc,TCN,2024-06-12_13h43.12.802,LearnStrategy,2023.2.3,MacIntel,58.13953488,2,1,14,-0.016102431,0.002760417,1,0,0,1.1673,rock_grid_rect_2,2,04,-1,-1,1.167,-0.07640625,-0.261493056,1,0,0,16.3614,Basalt_rect,2,16.361,1,13,0,13,0,1,,,,,,,,,,,,,
655f8da6abba5f374f3145dc,TCN,2024-06-12_13h43.12.802,LearnStrategy,2023.2.3,MacIntel,58.13953488,2,1,15,0.016970486,0.016736111,1,0,0,1.0485,rock_grid_rect_2,6,03,-1,-1,1.048,0.119487847,-0.257764757,1,0,0,5.9129,Diorite_rect,3,5.913,0,14,0,14,0,1,,,,,,,,,,,,,
655f8da6abba5f374f3145dc,TCN,2024-06-12_13h43.12.802,LearnStrategy,2023.2.3,MacIntel,58.13953488,2,1,16,0.012699653,-0.001015625,1,0,0,1.0835,rock_grid_rect_2,5,09,-1,-1,1.083,-0.329210069,-0.396427951,1,0,0,1.6532,Obsidian_rect,5,1.653,1,15,0,15,0,1,,,,,,,,,,,,,
655f8da6abba5f374f3145dc,TCN,2024-06-12_13h43.12.802,LearnStrategy,2023.2.3,MacIntel,58.13953488,2,2,1,,,,,,,,7,02,,,,,,,,,,,7,16.291,1,,,,,,0.169787326,-0.386332465,1,0,0,16.2913,Peridotite_rect,0,0,0,0,1,
655f8da6abba5f374f3145dc,TCN,2024-06-12_13h43.12.802,LearnStrategy,2023.2.3,MacIntel,58.13953488,2,2,2,,,,,,,,6,10,,,,,,,,,,,6,6.063,1,,,,,,-0.11,-0.408645833,1,0,0,6.0627,Pegmatite_rect,1,0,1,0,1,
655f8da6abba5f374f3145dc,TCN,2024-06-12_13h43.12.802,LearnStrategy,2023.2.3,MacIntel,58.13953488,2,2,3,,,,,,,,1,05,,,,,,,,,,,3,7.59,0,,,,,,0.085902778,-0.241671007,1,0,0,7.5896,Diorite_rect,2,0,2,0,1,
655f8da6abba5f374f3145dc,TCN,2024-06-12_13h43.12.802,LearnStrategy,2023.2.3,MacIntel,58.13953488,2,2,4,,,,,,,,4,11,,,,,,,,,,,1,12.452,0,,,,,,-0.367690972,-0.241176215,1,0,0,12.4519,Andesite_rect,3,0,3,0,1,
655f8da6abba5f374f3145dc,TCN,2024-06-12_13h43.12.802,LearnStrategy,2023.2.3,MacIntel,58.13953488,2,2,5,,,,,,,,5,10,,,,,,,,,,,5,4.332,1,,,,,,-0.376931424,-0.395069444,1,0,0,4.3323,Obsidian_rect,4,0,4,0,1,
655f8da6abba5f374f3145dc,TCN,2024-06-12_13h43.12.802,LearnStrategy,2023.2.3,MacIntel,58.13953488,2,2,6,,,,,,,,2,09,,,,,,,,,,,2,7.462,1,,,,,,-0.102756076,-0.235130208,1,0,0,7.4623,Basalt_rect,5,0,5,0,1,
655f8da6abba5f374f3145dc,TCN,2024-06-12_13h43.12.802,LearnStrategy,2023.2.3,MacIntel,58.13953488,2,2,7,,,,,,,,1,16,,,,,,,,,,,3,10.903,0,,,,,,0.162022569,-0.266458333,1,0,0,10.9034,Diorite_rect,6,0,6,0,1,
655f8da6abba5f374f3145dc,TCN,2024-06-12_13h43.12.802,LearnStrategy,2023.2.3,MacIntel,58.13953488,2,2,8,,,,,,,,5,05,,,,,,,,,,,5,4.314,1,,,,,,-0.348320313,-0.391992187,1,0,0,4.3137,Obsidian_rect,7,0,7,0,1,
655f8da6abba5f374f3145dc,TCN,2024-06-12_13h43.12.802,LearnStrategy,2023.2.3,MacIntel,58.13953488,2,2,9,,,,,,,,2,12,,,,,,,,,,,2,10.072,1,,,,,,-0.155763889,-0.266536458,1,0,0,10.0725,Basalt_rect,8,0,8,0,1,
655f8da6abba5f374f3145dc,TCN,2024-06-12_13h43.12.802,LearnStrategy,2023.2.3,MacIntel,58.13953488,2,2,10,,,,,,,,8,14,,,,,,,,,,,8,1.283,1,,,,,,0.413111979,-0.400347222,1,0,0,1.2831,Pumice_rect,9,0,9,0,1,
655f8da6abba5f374f3145dc,TCN,2024-06-12_13h43.12.802,LearnStrategy,2023.2.3,MacIntel,58.13953488,2,2,11,,,,,,,,7,04,,,,,,,,,,,6,21.119,0,,,,,,-0.059071181,-0.394826389,1,0,0,21.1189,Pegmatite_rect,10,0,10,0,1,
655f8da6abba5f374f3145dc,TCN,2024-06-12_13h43.12.802,LearnStrategy,2023.2.3,MacIntel,58.13953488,2,2,12,,,,,,,,4,10,,,,,,,,,,,2,9.505,0,,,,,,-0.10328559,-0.255377604,1,0,0,9.5055,Basalt_rect,11,0,11,0,1,
655f8da6abba5f374f3145dc,TCN,2024-06-12_13h43.12.802,LearnStrategy,2023.2.3,MacIntel,58.13953488,2,2,13,,,,,,,,8,02,,,,,,,,,,,8,1.654,1,,,,,,0.354414063,-0.399509549,1,0,0,1.6536,Pumice_rect,12,0,12,0,1,
655f8da6abba5f374f3145dc,TCN,2024-06-12_13h43.12.802,LearnStrategy,2023.2.3,MacIntel,58.13953488,2,2,14,,,,,,,,3,15,,,,,,,,,,,4,3.025,0,,,,,,0.381601562,-0.256957465,1,0,0,3.0252,Gabbro_rect,13,0,13,0,1,
655f8da6abba5f374f3145dc,TCN,2024-06-12_13h43.12.802,LearnStrategy,2023.2.3,MacIntel,58.13953488,2,2,15,,,,,,,,6,06,,,,,,,,,,,6,4.772,1,,,,,,-0.09875434,-0.394140625,1,0,0,4.7723,Pegmatite_rect,14,0,14,0,1,
655f8da6abba5f374f3145dc,TCN,2024-06-12_13h43.12.802,LearnStrategy,2023.2.3,MacIntel,58.13953488,2,2,16,,,,,,,,3,11,,,,,,,,,,,3,11.504,1,,,,,,0.088567708,-0.263962674,1,0,0,11.5036,Diorite_rect,15,0,15,0,1,
655f8da6abba5f374f3145dc,TCN,2024-06-12_13h43.12.802,LearnStrategy,2023.2.3,MacIntel,58.13953488,3,1,1,0.076171875,-0.008576389,1,0,0,2.1119,rock_grid_rect_2,1,02,-1,-1,2.112,-0.149231771,-0.233450521,1,0,0,15.4922,Basalt_rect,2,15.492,0,0,0,0,0,1,,,,,,,,,,,,,
655f8da6abba5f374f3145dc,TCN,2024-06-12_13h43.12.802,LearnStrategy,2023.2.3,MacIntel,58.13953488,3,1,2,0.000655382,-0.010520833,1,0,0,2.416,rock_grid_rect_2,1,10,-1,-1,2.416,0.393480903,-0.239574653,1,0,0,12.7101,Gabbro_rect,4,12.71,0,1,0,1,0,1,,,,,,,,,,,,,
655f8da6abba5f374f3145dc,TCN,2024-06-12_13h43.12.802,LearnStrategy,2023.2.3,MacIntel,58.13953488,3,1,3,0.034921875,0.000538194,1,0,0,0.9952,rock_grid_rect_2,2,11,-1,-1,0.995,-0.070993924,-0.262261285,1,0,0,5.3921,Basalt_rect,2,5.392,1,2,0,2,0,1,,,,,,,,,,,,,
655f8da6abba5f374f3145dc,TCN,2024-06-12_13h43.12.802,LearnStrategy,2023.2.3,MacIntel,58.13953488,3,1,4,0.027317708,0.00703125,1,0,0,1.413,rock_grid_rect_2,4,13,-1,-1,1.413,0.370099826,-0.237113715,1,0,0,5.373,Gabbro_rect,4,5.373,1,3,0,3,0,1,,,,,,,,,,,,,
655f8da6abba5f374f3145dc,TCN,2024-06-12_13h43.12.802,LearnStrategy,2023.2.3,MacIntel,58.13953488,3,1,5,0.001740451,-0.012521701,1,0,0,1.1125,rock_grid_rect_2,6,11,-1,-1,1.112,-0.095724826,-0.414761285,1,0,0,4.1332,Pegmatite_rect,6,4.133,1,4,0,4,0,1,,,,,,,,,,,,,
655f8da6abba5f374f3145dc,TCN,2024-06-12_13h43.12.802,LearnStrategy,2023.2.3,MacIntel,58.13953488,3,1,6,-0.010950521,-0.020503472,1,0,0,1.312,rock_grid_rect_2,8,15,-1,-1,1.312,0.347599826,-0.405403646,1,0,0,3.6343,Pumice_rect,8,3.634,1,5,0,5,0,1,,,,,,,,,,,,,
655f8da6abba5f374f3145dc,TCN,2024-06-12_13h43.12.802,LearnStrategy,2023.2.3,MacIntel,58.13953488,3,1,7,-0.057352431,0.016202257,1,0,0,0.863,rock_grid_rect_2,8,08,-1,-1,0.863,-0.363346354,-0.266280382,1,0,0,16.4386,Andesite_rect,1,16.439,0,6,0,6,0,1,,,,,,,,,,,,,
655f8da6abba5f374f3145dc,TCN,2024-06-12_13h43.12.802,LearnStrategy,2023.2.3,MacIntel,58.13953488,3,1,8,-0.024340278,-0.013233507,1,0,0,1.0353,rock_grid_rect_2,5,08,-1,-1,1.035,-0.364552951,-0.398693576,1,0,0,1.2197,Obsidian_rect,5,1.22,1,7,0,7,0,1,,,,,,,,,,,,,
655f8da6abba5f374f3145dc,TCN,2024-06-12_13h43.12.802,LearnStrategy,2023.2.3,MacIntel,58.13953488,3,1,9,0.000117187,-0.007699653,1,0,0,1.0311,rock_grid_rect_2,6,05,-1,-1,1.031,-0.060212674,-0.394266493,1,0,0,12.3676,Pegmatite_rect,6,12.368,1,8,0,8,0,1,,,,,,,,,,,,,
655f8da6abba5f374f3145dc,TCN,2024-06-12_13h43.12.802,LearnStrategy,2023.2.3,MacIntel,58.13953488,3,1,10,0.043532986,-0.000269097,1,0,0,0.93,rock_grid_rect_2,2,08,-1,-1,0.93,-0.091345486,-0.255052083,1,0,0,4.915,Basalt_rect,2,4.915,1,9,0,9,0,1,,,,,,,,,,,,,
655f8da6abba5f374f3145dc,TCN,2024-06-12_13h43.12.802,LearnStrategy,2023.2.3,MacIntel,58.13953488,3,1,11,-0.018224826,0.012278646,1,0,0,0.9794,rock_grid_rect_2,4,08,-1,-1,0.979,0.107530382,-0.396063368,1,0,0,13.5402,Peridotite_rect,7,13.54,0,10,0,10,0,1,,,,,,,,,,,,,
655f8da6abba5f374f3145dc,TCN,2024-06-12_13h43.12.802,LearnStrategy,2023.2.3,MacIntel,58.13953488,3,1,12,0.033450521,0.01374566,1,0,0,1.1995,rock_grid_rect_2,3,09,-1,-1,1.199,0.190568576,-0.251006944,1,0,0,5.6103,Diorite_rect,3,5.61,1,11,0,11,0,1,,,,,,,,,,,,,
655f8da6abba5f374f3145dc,TCN,2024-06-12_13h43.12.802,LearnStrategy,2023.2.3,MacIntel,58.13953488,3,1,13,0.018346354,0.002309028,1,0,0,0.931,rock_grid_rect_2,5,11,-1,-1,0.931,-0.368585069,-0.414210069,1,0,0,1.2703,Obsidian_rect,5,1.27,1,12,0,12,0,1,,,,,,,,,,,,,
655f8da6abba5f374f3145dc,TCN,2024-06-12_13h43.12.802,LearnStrategy,2023.2.3,MacIntel,58.13953488,3,1,14,-0.004383681,-0.006228299,1,0,0,3.2982,rock_grid_rect_2,7,05,-1,-1,3.298,0.07952691,-0.389192708,1,0,0,8.1996,Peridotite_rect,7,8.2,1,13,0,13,0,1,,,,,,,,,,,,,
655f8da6abba5f374f3145dc,TCN,2024-06-12_13h43.12.802,LearnStrategy,2023.2.3,MacIntel,58.13953488,3,1,15,0.019626736,-0.00484375,1,0,0,1.0622,rock_grid_rect_2,7,10,-1,-1,1.062,0.106332465,-0.379144965,1,0,0,6.0905,Peridotite_rect,7,6.091,1,14,0,14,0,1,,,,,,,,,,,,,
655f8da6abba5f374f3145dc,TCN,2024-06-12_13h43.12.802,LearnStrategy,2023.2.3,MacIntel,58.13953488,3,1,16,0.032109375,0.002404514,1,0,0,0.9954,rock_grid_rect_2,3,12,-1,-1,0.995,0.108424479,-0.262018229,1,0,0,4.6233,Diorite_rect,3,4.623,1,15,0,15,0,1,,,,,,,,,,,,,
655f8da6abba5f374f3145dc,TCN,2024-06-12_13h43.12.802,LearnStrategy,2023.2.3,MacIntel,58.13953488,3,2,1,,,,,,,,5,14,,,,,,,,,,,5,1.337,1,,,,,,-0.351614583,-0.395368924,1,0,0,1.3371,Obsidian_rect,0,0,0,0,1,
655f8da6abba5f374f3145dc,TCN,2024-06-12_13h43.12.802,LearnStrategy,2023.2.3,MacIntel,58.13953488,3,2,2,,,,,,,,6,07,,,,,,,,,,,6,4.964,1,,,,,,-0.067647569,-0.401896701,1,0,0,4.964,Pegmatite_rect,1,0,1,0,1,
655f8da6abba5f374f3145dc,TCN,2024-06-12_13h43.12.802,LearnStrategy,2023.2.3,MacIntel,58.13953488,3,2,3,,,,,,,,4,12,,,,,,,,,,,2,20.291,0,,,,,,-0.080646701,-0.250920139,1,0,0,20.2914,Basalt_rect,2,0,2,0,1,
655f8da6abba5f374f3145dc,TCN,2024-06-12_13h43.12.802,LearnStrategy,2023.2.3,MacIntel,58.13953488,3,2,4,,,,,,,,1,06,,,,,,,,,,,1,10.37,1,,,,,,-0.328828125,-0.257395833,1,0,0,10.37,Andesite_rect,3,0,3,0,1,
655f8da6abba5f374f3145dc,TCN,2024-06-12_13h43.12.802,LearnStrategy,2023.2.3,MacIntel,58.13953488,3,2,5,,,,,,,,3,14,,,,,,,,,,,3,5.889,1,,,,,,0.104405382,-0.254752604,1,0,0,5.8893,Diorite_rect,4,0,4,0,1,
655f8da6abba5f374f3145dc,TCN,2024-06-12_13h43.12.802,LearnStrategy,2023.2.3,MacIntel,58.13953488,3,2,6,,,,,,,,2,06,,,,,,,,,,,2,4.934,1,,,,,,-0.137391493,-0.255264757,1,0,0,4.9342,Basalt_rect,5,0,5,0,1,
655f8da6abba5f374f3145dc,TCN,2024-06-12_13h43.12.802,LearnStrategy,2023.2.3,MacIntel,58.13953488,3,2,7,,,,,,,,2,16,,,,,,,,,,,8,4.938,0,,,,,,0.403893229,-0.387122396,1,0,0,4.9385,Pumice_rect,6,0,6,0,1,
655f8da6abba5f374f3145dc,TCN,2024-06-12_13h43.12.802,LearnStrategy,2023.2.3,MacIntel,58.13953488,3,2,8,,,,,,,,6,08,,,,,,,,,,,6,11.723,1,,,,,,-0.050516493,-0.398389757,1,0,0,11.7226,Pegmatite_rect,7,0,7,0,1,
655f8da6abba5f374f3145dc,TCN,2024-06-12_13h43.12.802,LearnStrategy,2023.2.3,MacIntel,58.13953488,3,2,9,,,,,,,,8,13,,,,,,,,,,,8,1.702,1,,,,,,0.40969184,-0.392421875,1,0,0,1.702,Pumice_rect,8,0,8,0,1,
655f8da6abba5f374f3145dc,TCN,2024-06-12_13h43.12.802,LearnStrategy,2023.2.3,MacIntel,58.13953488,3,2,10,,,,,,,,4,05,,,,,,,,,,,2,14.224,0,,,,,,-0.111888021,-0.265907118,1,0,0,14.2237,Basalt_rect,9,0,9,0,1,
655f8da6abba5f374f3145dc,TCN,2024-06-12_13h43.12.802,LearnStrategy,2023.2.3,MacIntel,58.13953488,3,2,11,,,,,,,,5,07,,,,,,,,,,,5,5.142,1,,,,,,-0.349626736,-0.392981771,1,0,0,5.1417,Obsidian_rect,10,0,10,0,1,
655f8da6abba5f374f3145dc,TCN,2024-06-12_13h43.12.802,LearnStrategy,2023.2.3,MacIntel,58.13953488,3,2,12,,,,,,,,8,10,,,,,,,,,,,8,2.909,1,,,,,,0.358155382,-0.396918403,1,0,0,2.9094,Pumice_rect,11,0,11,0,1,
655f8da6abba5f374f3145dc,TCN,2024-06-12_13h43.12.802,LearnStrategy,2023.2.3,MacIntel,58.13953488,3,2,13,,,,,,,,7,13,,,,,,,,,,,7,7.344,1,,,,,,0.147200521,-0.399444444,1,0,0,7.3439,Peridotite_rect,12,0,12,0,1,
655f8da6abba5f374f3145dc,TCN,2024-06-12_13h43.12.802,LearnStrategy,2023.2.3,MacIntel,58.13953488,3,2,14,,,,,,,,1,03,,,,,,,,,,,2,16.923,0,,,,,,-0.090086806,-0.267795139,1,0,0,16.9234,Basalt_rect,13,0,13,0,1,
655f8da6abba5f374f3145dc,TCN,2024-06-12_13h43.12.802,LearnStrategy,2023.2.3,MacIntel,58.13953488,3,2,15,,,,,,,,3,08,,,,,,,,,,,3,3.389,1,,,,,,0.095286458,-0.247881944,1,0,0,3.3888,Diorite_rect,14,0,14,0,1,
655f8da6abba5f374f3145dc,TCN,2024-06-12_13h43.12.802,LearnStrategy,2023.2.3,MacIntel,58.13953488,3,2,16,,,,,,,,7,14,,,,,,,,,,,7,17.503,1,,,,,,0.149192708,-0.403142361,1,0,0,17.5025,Peridotite_rect,15,0,15,0,1,
655f8da6abba5f374f3145dc,TCN,2024-06-12_13h43.12.802,LearnStrategy,2023.2.3,MacIntel,58.13953488,4,1,1,0.122434896,0.000724826,1,0,0,1.7305,rock_grid_rect_2,3,10,-1,-1,1.73,0.125577257,-0.390368924,1,0,0,3.2953,Peridotite_rect,7,3.295,0,0,0,0,0,1,,,,,,,,,,,,,
655f8da6abba5f374f3145dc,TCN,2024-06-12_13h43.12.802,LearnStrategy,2023.2.3,MacIntel,58.13953488,4,1,2,0.066974826,-0.017721354,1,0,0,1.5681,rock_grid_rect_2,3,02,-1,-1,1.568,0.127686632,-0.234487847,1,0,0,6.6555,Diorite_rect,3,6.656,1,1,0,1,0,1,,,,,,,,,,,,,
655f8da6abba5f374f3145dc,TCN,2024-06-12_13h43.12.802,LearnStrategy,2023.2.3,MacIntel,58.13953488,4,1,3,0.001210937,0.009748264,1,0,0,0.9955,rock_grid_rect_2,2,05,-1,-1,0.995,-0.089101562,-0.259735243,1,0,0,4.8596,Basalt_rect,2,4.86,1,2,0,2,0,1,,,,,,,,,,,,,
655f8da6abba5f374f3145dc,TCN,2024-06-12_13h43.12.802,LearnStrategy,2023.2.3,MacIntel,58.13953488,4,1,4,0.007669271,-0.018650174,1,0,0,1.0708,rock_grid_rect_2,5,11,-1,-1,1.071,-0.360555556,-0.390121528,1,0,0,2.8469,Obsidian_rect,5,2.847,1,3,0,3,0,1,,,,,,,,,,,,,
655f8da6abba5f374f3145dc,TCN,2024-06-12_13h43.12.802,LearnStrategy,2023.2.3,MacIntel,58.13953488,4,1,5,0.009791667,-0.007669271,1,0,0,1.1964,rock_grid_rect_2,4,16,-1,-1,1.196,-0.103294271,-0.247005208,1,0,0,14.2623,Basalt_rect,2,14.262,0,4,0,4,0,1,,,,,,,,,,,,,
655f8da6abba5f374f3145dc,TCN,2024-06-12_13h43.12.802,LearnStrategy,2023.2.3,MacIntel,58.13953488,4,1,6,-0.013467882,-0.013315972,1,0,0,1.4269,rock_grid_rect_2,1,07,-1,-1,1.427,0.119518229,-0.235898438,1,0,0,3.6624,Diorite_rect,3,3.662,0,5,0,5,0,1,,,,,,,,,,,,,
655f8da6abba5f374f3145dc,TCN,2024-06-12_13h43.12.802,LearnStrategy,2023.2.3,MacIntel,58.13953488,4,1,7,0.021046007,0.003207465,1,0,0,1.1751,rock_grid_rect_2,6,03,-1,-1,1.175,-0.064483507,-0.389292535,1,0,0,4.1156,Pegmatite_rect,6,4.116,1,6,0,6,0,1,,,,,,,,,,,,,
655f8da6abba5f374f3145dc,TCN,2024-06-12_13h43.12.802,LearnStrategy,2023.2.3,MacIntel,58.13953488,4,1,8,-0.034036458,-0.0153125,1,0,0,0.946,rock_grid_rect_2,7,05,-1,-1,0.946,0.135169271,-0.397400174,1,0,0,4.0741,Peridotite_rect,7,4.074,1,7,0,7,0,1,,,,,,,,,,,,,
655f8da6abba5f374f3145dc,TCN,2024-06-12_13h43.12.802,LearnStrategy,2023.2.3,MacIntel,58.13953488,4,1,9,-0.01750434,0.00641059,1,0,0,0.8952,rock_grid_rect_2,8,03,-1,-1,0.895,0.425451389,-0.408684896,1,0,0,1.9584,Pumice_rect,8,1.958,1,8,0,8,0,1,,,,,,,,,,,,,
655f8da6abba5f374f3145dc,TCN,2024-06-12_13h43.12.802,LearnStrategy,2023.2.3,MacIntel,58.13953488,4,1,10,-0.064739583,0.015794271,1,0,0,1.2476,rock_grid_rect_2,1,11,-1,-1,1.248,-0.367582465,-0.268125,1,0,0,6.7443,Andesite_rect,1,6.744,1,9,0,9,0,1,,,,,,,,,,,,,
655f8da6abba5f374f3145dc,TCN,2024-06-12_13h43.12.802,LearnStrategy,2023.2.3,MacIntel,58.13953488,4,1,11,-0.060820313,0.000512153,1,0,0,0.8851,rock_grid_rect_2,6,11,-1,-1,0.885,-0.089522569,-0.3940625,1,0,0,8.7446,Pegmatite_rect,6,8.745,1,10,0,10,0,1,,,,,,,,,,,,,
655f8da6abba5f374f3145dc,TCN,2024-06-12_13h43.12.802,LearnStrategy,2023.2.3,MacIntel,58.13953488,4,1,12,-0.052921007,-0.014292535,1,0,0,1.3303,rock_grid_rect_2,2,11,-1,-1,1.33,0.393242188,-0.404657118,1,0,0,5.891,Pumice_rect,8,5.891,0,11,0,11,0,1,,,,,,,,,,,,,
655f8da6abba5f374f3145dc,TCN,2024-06-12_13h43.12.802,LearnStrategy,2023.2.3,MacIntel,58.13953488,4,1,13,-0.040972222,0.013841146,1,0,0,1.3305,rock_grid_rect_2,5,08,-1,-1,1.33,-0.373953993,-0.417903646,1,0,0,1.5206,Obsidian_rect,5,1.521,1,12,0,12,0,1,,,,,,,,,,,,,
655f8da6abba5f374f3145dc,TCN,2024-06-12_13h43.12.802,LearnStrategy,2023.2.3,MacIntel,58.13953488,4,1,14,-0.053563368,0.001705729,1,0,0,1.2633,rock_grid_rect_2,7,08,-1,-1,1.263,0.111150174,-0.41249566,1,0,0,4.0453,Peridotite_rect,7,4.045,1,13,0,13,0,1,,,,,,,,,,,,,
655f8da6abba5f374f3145dc,TCN,2024-06-12_13h43.12.802,LearnStrategy,2023.2.3,MacIntel,58.13953488,4,1,15,-0.07015191,0.016831597,1,0,0,1.0964,rock_grid_rect_2,4,15,-1,-1,1.096,0.359921875,-0.235013021,1,0,0,4.9744,Gabbro_rect,4,4.974,1,14,0,14,0,1,,,,,,,,,,,,,
655f8da6abba5f374f3145dc,TCN,2024-06-12_13h43.12.802,LearnStrategy,2023.2.3,MacIntel,58.13953488,4,1,16,-0.08109375,0.006341146,1,0,0,1.3469,rock_grid_rect_2,8,04,-1,-1,1.347,0.314188368,-0.387864583,1,0,0,1.3752,Pumice_rect,8,1.375,1,15,0,15,0,1,,,,,,,,,,,,,
655f8da6abba5f374f3145dc,TCN,2024-06-12_13h43.12.802,LearnStrategy,2023.2.3,MacIntel,58.13953488,4,2,1,,,,,,,,2,02,,,,,,,,,,,2,11.482,1,,,,,,-0.126753472,-0.248572049,1,0,0,11.4817,Basalt_rect,0,0,0,0,1,
655f8da6abba5f374f3145dc,TCN,2024-06-12_13h43.12.802,LearnStrategy,2023.2.3,MacIntel,58.13953488,4,2,2,,,,,,,,6,16,,,,,,,,,,,6,5.788,1,,,,,,-0.100225694,-0.416102431,1,0,0,5.7875,Pegmatite_rect,1,0,1,0,1,
655f8da6abba5f374f3145dc,TCN,2024-06-12_13h43.12.802,LearnStrategy,2023.2.3,MacIntel,58.13953488,4,2,3,,,,,,,,7,06,,,,,,,,,,,7,20.521,1,,,,,,0.086657986,-0.408645833,1,0,0,20.5213,Peridotite_rect,2,0,2,0,1,
655f8da6abba5f374f3145dc,TCN,2024-06-12_13h43.12.802,LearnStrategy,2023.2.3,MacIntel,58.13953488,4,2,4,,,,,,,,2,01,,,,,,,,,,,2,4.122,1,,,,,,-0.125052083,-0.260655382,1,0,0,4.1218,Basalt_rect,3,0,3,0,1,
655f8da6abba5f374f3145dc,TCN,2024-06-12_13h43.12.802,LearnStrategy,2023.2.3,MacIntel,58.13953488,4,2,5,,,,,,,,1,05,,,,,,,,,,,1,30.296,1,,,,,,-0.35952691,-0.259904514,1,0,0,30.2965,Andesite_rect,4,0,4,0,1,
655f8da6abba5f374f3145dc,TCN,2024-06-12_13h43.12.802,LearnStrategy,2023.2.3,MacIntel,58.13953488,4,2,6,,,,,,,,8,05,,,,,,,,,,,8,1.573,1,,,,,,0.336046007,-0.383177083,1,0,0,1.5733,Pumice_rect,5,0,5,0,1,
655f8da6abba5f374f3145dc,TCN,2024-06-12_13h43.12.802,LearnStrategy,2023.2.3,MacIntel,58.13953488,4,2,7,,,,,,,,4,11,,,,,,,,,,,3,17.826,0,,,,,,0.171514757,-0.253858507,1,0,0,17.8259,Diorite_rect,6,0,6,0,1,
655f8da6abba5f374f3145dc,TCN,2024-06-12_13h43.12.802,LearnStrategy,2023.2.3,MacIntel,58.13953488,4,2,8,,,,,,,,8,02,,,,,,,,,,,8,1.336,1,,,,,,0.383828125,-0.414743924,1,0,0,1.3364,Pumice_rect,7,0,7,0,1,
655f8da6abba5f374f3145dc,TCN,2024-06-12_13h43.12.802,LearnStrategy,2023.2.3,MacIntel,58.13953488,4,2,9,,,,,,,,6,06,,,,,,,,,,,6,4.47,1,,,,,,-0.077118056,-0.384704861,1,0,0,4.4704,Pegmatite_rect,8,0,8,0,1,
655f8da6abba5f374f3145dc,TCN,2024-06-12_13h43.12.802,LearnStrategy,2023.2.3,MacIntel,58.13953488,4,2,10,,,,,,,,3,16,,,,,,,,,,,3,8.439,1,,,,,,0.111180556,-0.267009549,1,0,0,8.4394,Diorite_rect,9,0,9,0,1,
655f8da6abba5f374f3145dc,TCN,2024-06-12_13h43.12.802,LearnStrategy,2023.2.3,MacIntel,58.13953488,4,2,11,,,,,,,,5,06,,,,,,,,,,,5,1.777,1,,,,,,-0.378493924,-0.396124132,1,0,0,1.7767,Obsidian_rect,10,0,10,0,1,
655f8da6abba5f374f3145dc,TCN,2024-06-12_13h43.12.802,LearnStrategy,2023.2.3,MacIntel,58.13953488,4,2,12,,,,,,,,4,12,,,,,,,,,,,2,13.256,0,,,,,,-0.154001736,-0.241866319,1,0,0,13.2557,Basalt_rect,11,0,11,0,1,
655f8da6abba5f374f3145dc,TCN,2024-06-12_13h43.12.802,LearnStrategy,2023.2.3,MacIntel,58.13953488,4,2,13,,,,,,,,7,04,,,,,,,,,,,1,24.456,0,,,,,,-0.374904514,-0.2434375,1,0,0,24.4559,Andesite_rect,12,0,12,0,1,
655f8da6abba5f374f3145dc,TCN,2024-06-12_13h43.12.802,LearnStrategy,2023.2.3,MacIntel,58.13953488,4,2,14,,,,,,,,1,06,,,,,,,,,,,1,8.442,1,,,,,,-0.388741319,-0.259709201,1,0,0,8.442,Andesite_rect,13,0,13,0,1,
655f8da6abba5f374f3145dc,TCN,2024-06-12_13h43.12.802,LearnStrategy,2023.2.3,MacIntel,58.13953488,4,2,15,,,,,,,,3,14,,,,,,,,,,,4,4.26,0,,,,,,0.344570312,-0.255724826,1,0,0,4.2596,Gabbro_rect,14,0,14,0,1,
655f8da6abba5f374f3145dc,TCN,2024-06-12_13h43.12.802,LearnStrategy,2023.2.3,MacIntel,58.13953488,4,2,16,,,,,,,,5,16,,,,,,,,,,,5,1.564,1,,,,,,-0.329626736,-0.384700521,1,0,0,1.5643,Obsidian_rect,15,0,15,0,1,
655f8da6abba5f374f3145dc,TCN,2024-06-12_13h43.12.802,LearnStrategy,2023.2.3,MacIntel,58.13953488,5,1,1,0.094253472,-0.005520833,1,0,0,7.7468,rock_grid_rect_2,2,04,-1,-1,7.747,-0.07233941,-0.232443576,1,0,0,5.3918,Basalt_rect,2,5.392,1,0,0,0,0,1,,,,,,,,,,,,,
655f8da6abba5f374f3145dc,TCN,2024-06-12_13h43.12.802,LearnStrategy,2023.2.3,MacIntel,58.13953488,5,1,2,-0.003524306,0.002265625,1,0,0,0.8962,rock_grid_rect_2,3,06,-1,-1,0.896,-0.317994792,-0.228858507,1,0,0,9.3897,Andesite_rect,1,9.39,0,1,0,1,0,1,,,,,,,,,,,,,
655f8da6abba5f374f3145dc,TCN,2024-06-12_13h43.12.802,LearnStrategy,2023.2.3,MacIntel,58.13953488,5,1,3,0.009696181,0.008719618,1,0,0,1.3971,rock_grid_rect_2,5,02,-1,-1,1.397,-0.394518229,-0.396614583,1,0,0,1.2731,Obsidian_rect,5,1.273,1,2,0,2,0,1,,,,,,,,,,,,,
655f8da6abba5f374f3145dc,TCN,2024-06-12_13h43.12.802,LearnStrategy,2023.2.3,MacIntel,58.13953488,5,1,4,-0.038020833,-0.003055556,1,0,0,1.0636,rock_grid_rect_2,2,10,-1,-1,1.064,-0.093619792,-0.247135417,1,0,0,4.7835,Basalt_rect,2,4.784,1,3,0,3,0,1,,,,,,,,,,,,,
655f8da6abba5f374f3145dc,TCN,2024-06-12_13h43.12.802,LearnStrategy,2023.2.3,MacIntel,58.13953488,5,1,5,-0.020868056,0.008645833,1,0,0,1.3283,rock_grid_rect_2,8,08,-1,-1,1.328,0.396753472,-0.397608507,1,0,0,19.7649,Pumice_rect,8,19.765,1,4,0,4,0,1,,,,,,,,,,,,,
655f8da6abba5f374f3145dc,TCN,2024-06-12_13h43.12.802,LearnStrategy,2023.2.3,MacIntel,58.13953488,5,1,6,-0.069162326,-0.002903646,1,0,0,1.1429,rock_grid_rect_2,7,07,-1,-1,1.143,0.150846354,-0.41890191,1,0,0,4.4919,Peridotite_rect,7,4.492,1,5,0,5,0,1,,,,,,,,,,,,,
655f8da6abba5f374f3145dc,TCN,2024-06-12_13h43.12.802,LearnStrategy,2023.2.3,MacIntel,58.13953488,5,1,7,0.009856771,-0.00266059,1,0,0,1.6799,rock_grid_rect_2,1,02,-1,-1,1.68,-0.34546441,-0.244878472,1,0,0,18.5966,Andesite_rect,1,18.597,1,6,0,6,0,1,,,,,,,,,,,,,
655f8da6abba5f374f3145dc,TCN,2024-06-12_13h43.12.802,LearnStrategy,2023.2.3,MacIntel,58.13953488,5,1,8,-0.013372396,0.00015191,1,0,0,1.3345,rock_grid_rect_2,4,08,-1,-1,1.335,-0.175859375,-0.228867188,1,0,0,10.7724,Basalt_rect,2,10.772,0,7,0,7,0,1,,,,,,,,,,,,,
655f8da6abba5f374f3145dc,TCN,2024-06-12_13h43.12.802,LearnStrategy,2023.2.3,MacIntel,58.13953488,5,1,9,-0.063298611,-0.010842014,1,0,0,1.0159,rock_grid_rect_2,1,10,-1,-1,1.016,-0.323732639,-0.237118056,1,0,0,17.068,Andesite_rect,1,17.068,1,8,0,8,0,1,,,,,,,,,,,,,
655f8da6abba5f374f3145dc,TCN,2024-06-12_13h43.12.802,LearnStrategy,2023.2.3,MacIntel,58.13953488,5,1,10,-0.030789931,-0.002404514,1,0,0,1.0636,rock_grid_rect_2,3,09,-1,-1,1.064,0.128511285,-0.261106771,1,0,0,9.9004,Diorite_rect,3,9.9,1,9,0,9,0,1,,,,,,,,,,,,,
655f8da6abba5f374f3145dc,TCN,2024-06-12_13h43.12.802,LearnStrategy,2023.2.3,MacIntel,58.13953488,5,1,11,0.004327257,0.00328125,1,0,0,1.262,rock_grid_rect_2,4,13,-1,-1,1.262,0.347157118,-0.249713542,1,0,0,5.5916,Gabbro_rect,4,5.592,1,10,0,10,0,1,,,,,,,,,,,,,
655f8da6abba5f374f3145dc,TCN,2024-06-12_13h43.12.802,LearnStrategy,2023.2.3,MacIntel,58.13953488,5,1,12,-0.04562934,-0.016015625,1,0,0,1.4618,rock_grid_rect_2,5,12,-1,-1,1.462,-0.42921875,-0.421944444,1,0,0,1.6468,Obsidian_rect,5,1.647,1,11,0,11,0,1,,,,,,,,,,,,,
655f8da6abba5f374f3145dc,TCN,2024-06-12_13h43.12.802,LearnStrategy,2023.2.3,MacIntel,58.13953488,5,1,13,-0.009140625,-0.001028646,1,0,0,1.0642,rock_grid_rect_2,8,15,-1,-1,1.064,0.356111111,-0.389088542,1,0,0,3.7905,Pumice_rect,8,3.79,1,12,0,12,0,1,,,,,,,,,,,,,
655f8da6abba5f374f3145dc,TCN,2024-06-12_13h43.12.802,LearnStrategy,2023.2.3,MacIntel,58.13953488,5,1,14,-0.019796007,0.010842014,1,0,0,0.8109,rock_grid_rect_2,6,09,-1,-1,0.811,-0.121892361,-0.395164931,1,0,0,6.907,Pegmatite_rect,6,6.907,1,13,0,13,0,1,,,,,,,,,,,,,
655f8da6abba5f374f3145dc,TCN,2024-06-12_13h43.12.802,LearnStrategy,2023.2.3,MacIntel,58.13953488,5,1,15,-0.076002604,-0.006063368,1,0,0,1.2806,rock_grid_rect_2,6,05,-1,-1,1.281,-0.109904514,-0.404197049,1,0,0,2.3433,Pegmatite_rect,6,2.343,1,14,0,14,0,1,,,,,,,,,,,,,
655f8da6abba5f374f3145dc,TCN,2024-06-12_13h43.12.802,LearnStrategy,2023.2.3,MacIntel,58.13953488,5,1,16,-0.029739583,-0.006861979,1,0,0,1.2629,rock_grid_rect_2,7,16,-1,-1,1.263,0.117725694,-0.402109375,1,0,0,14.7115,Peridotite_rect,7,14.711,1,15,0,15,0,1,,,,,,,,,,,,,
655f8da6abba5f374f3145dc,TCN,2024-06-12_13h43.12.802,LearnStrategy,2023.2.3,MacIntel,58.13953488,5,2,1,,,,,,,,1,03,,,,,,,,,,,2,6.189,0,,,,,,-0.093802083,-0.249722222,1,0,0,6.1889,Basalt_rect,0,0,0,0,1,
655f8da6abba5f374f3145dc,TCN,2024-06-12_13h43.12.802,LearnStrategy,2023.2.3,MacIntel,58.13953488,5,2,2,,,,,,,,8,10,,,,,,,,,,,8,2.064,1,,,,,,0.380360243,-0.412508681,1,0,0,2.0637,Pumice_rect,1,0,1,0,1,
655f8da6abba5f374f3145dc,TCN,2024-06-12_13h43.12.802,LearnStrategy,2023.2.3,MacIntel,58.13953488,5,2,3,,,,,,,,4,14,,,,,,,,,,,2,10.319,0,,,,,,-0.095030382,-0.266610243,1,0,0,10.3187,Basalt_rect,2,0,2,0,1,
655f8da6abba5f374f3145dc,TCN,2024-06-12_13h43.12.802,LearnStrategy,2023.2.3,MacIntel,58.13953488,5,2,4,,,,,,,,4,01,,,,,,,,,,,1,10.238,0,,,,,,-0.355390625,-0.248988715,1,0,0,10.2375,Andesite_rect,3,0,3,0,1,
655f8da6abba5f374f3145dc,TCN,2024-06-12_13h43.12.802,LearnStrategy,2023.2.3,MacIntel,58.13953488,5,2,5,,,,,,,,7,02,,,,,,,,,,,7,4.811,1,,,,,,0.130946181,-0.415034722,1,0,0,4.8105,Peridotite_rect,4,0,4,0,1,
655f8da6abba5f374f3145dc,TCN,2024-06-12_13h43.12.802,LearnStrategy,2023.2.3,MacIntel,58.13953488,5,2,6,,,,,,,,2,09,,,,,,,,,,,2,3.539,1,,,,,,-0.13672309,-0.24077691,1,0,0,3.5389,Basalt_rect,5,0,5,0,1,
655f8da6abba5f374f3145dc,TCN,2024-06-12_13h43.12.802,LearnStrategy,2023.2.3,MacIntel,58.13953488,5,2,7,,,,,,,,3,08,,,,,,,,,,,3,8.745,1,,,,,,0.133168403,-0.239392361,1,0,0,8.7452,Diorite_rect,6,0,6,0,1,
655f8da6abba5f374f3145dc,TCN,2024-06-12_13h43.12.802,LearnStrategy,2023.2.3,MacIntel,58.13953488,5,2,8,,,,,,,,6,15,,,,,,,,,,,6,7.306,1,,,,,,-0.090295139,-0.3959375,1,0,0,7.3057,Pegmatite_rect,7,0,7,0,1,
655f8da6abba5f374f3145dc,TCN,2024-06-12_13h43.12.802,LearnStrategy,2023.2.3,MacIntel,58.13953488,5,2,9,,,,,,,,6,08,,,,,,,,,,,6,2.571,1,,,,,,-0.090295139,-0.3959375,1,0,0,2.571,Pegmatite_rect,8,0,8,0,1,
655f8da6abba5f374f3145dc,TCN,2024-06-12_13h43.12.802,LearnStrategy,2023.2.3,MacIntel,58.13953488,5,2,10,,,,,,,,5,10,,,,,,,,,,,5,1.463,1,,,,,,-0.361649306,-0.391831597,1,0,0,1.4626,Obsidian_rect,9,0,9,0,1,
655f8da6abba5f374f3145dc,TCN,2024-06-12_13h43.12.802,LearnStrategy,2023.2.3,MacIntel,58.13953488,5,2,11,,,,,,,,5,07,,,,,,,,,,,5,1.804,1,,,,,,-0.425234375,-0.404973958,1,0,0,1.8041,Obsidian_rect,10,0,10,0,1,
655f8da6abba5f374f3145dc,TCN,2024-06-12_13h43.12.802,LearnStrategy,2023.2.3,MacIntel,58.13953488,5,2,12,,,,,,,,2,12,,,,,,,,,,,8,36.088,0,,,,,,0.386944444,-0.408819444,1,0,0,36.0884,Pumice_rect,11,0,11,0,1,
655f8da6abba5f374f3145dc,TCN,2024-06-12_13h43.12.802,LearnStrategy,2023.2.3,MacIntel,58.13953488,5,2,13,,,,,,,,1,01,,,,,,,,,,,4,22.823,0,,,,,,0.341944444,-0.242530382,1,0,0,22.8228,Gabbro_rect,12,0,12,0,1,
655f8da6abba5f374f3145dc,TCN,2024-06-12_13h43.12.802,LearnStrategy,2023.2.3,MacIntel,58.13953488,5,2,14,,,,,,,,3,11,,,,,,,,,,,4,5.05,0,,,,,,0.339023438,-0.247578125,1,0,0,5.0502,Gabbro_rect,13,0,13,0,1,
655f8da6abba5f374f3145dc,TCN,2024-06-12_13h43.12.802,LearnStrategy,2023.2.3,MacIntel,58.13953488,5,2,15,,,,,,,,8,13,,,,,,,,,,,8,2.236,1,,,,,,0.346631944,-0.410655382,1,0,0,2.236,Pumice_rect,14,0,14,0,1,
655f8da6abba5f374f3145dc,TCN,2024-06-12_13h43.12.802,LearnStrategy,2023.2.3,MacIntel,58.13953488,5,2,16,,,,,,,,7,13,,,,,,,,,,,7,14.204,1,,,,,,0.096653646,-0.395143229,1,0,0,14.2037,Peridotite_rect,15,0,15,0,1,
655f8da6abba5f374f3145dc,TCN,2024-06-12_13h43.12.802,LearnStrategy,2023.2.3,MacIntel,58.13953488,6,1,1,0.04421875,-0.016085069,1,0,0,2.6643,rock_grid_rect_2,1,09,-1,-1,2.664,-0.349657118,-0.22874566,1,0,0,14.8646,Andesite_rect,1,14.865,1,0,0,0,0,1,,,,,,,,,,,,,
655f8da6abba5f374f3145dc,TCN,2024-06-12_13h43.12.802,LearnStrategy,2023.2.3,MacIntel,58.13953488,6,1,2,-0.026427951,-0.006180556,1,0,0,2.3798,rock_grid_rect_2,5,09,-1,-1,2.38,-0.373107639,-0.380360243,1,0,0,1.3148,Obsidian_rect,5,1.315,1,1,0,1,0,1,,,,,,,,,,,,,
655f8da6abba5f374f3145dc,TCN,2024-06-12_13h43.12.802,LearnStrategy,2023.2.3,MacIntel,58.13953488,6,1,3,-0.015750868,0.0090625,1,0,0,1.3957,rock_grid_rect_2,7,15,-1,-1,1.396,0.122517361,-0.403580729,1,0,0,6.5717,Peridotite_rect,7,6.572,1,2,0,2,0,1,,,,,,,,,,,,,
655f8da6abba5f374f3145dc,TCN,2024-06-12_13h43.12.802,LearnStrategy,2023.2.3,MacIntel,58.13953488,6,1,4,-0.011996528,-3.90625E-05,1,0,0,1.1129,rock_grid_rect_2,6,12,-1,-1,1.113,0.116232639,-0.385303819,1,0,0,3.9919,Peridotite_rect,7,3.992,0,3,0,3,0,1,,,,,,,,,,,,,
655f8da6abba5f374f3145dc,TCN,2024-06-12_13h43.12.802,LearnStrategy,2023.2.3,MacIntel,58.13953488,6,1,5,-0.00233941,0.006145833,1,0,0,1.1302,rock_grid_rect_2,5,04,-1,-1,1.13,-0.395342882,-0.413472222,1,0,0,2.265,Obsidian_rect,5,2.265,1,4,0,4,0,1,,,,,,,,,,,,,
655f8da6abba5f374f3145dc,TCN,2024-06-12_13h43.12.802,LearnStrategy,2023.2.3,MacIntel,58.13953488,6,1,6,-0.028619792,-0.014991319,1,0,0,1.1145,rock_grid_rect_2,3,12,-1,-1,1.114,0.144036458,-0.243229167,1,0,0,4.3756,Diorite_rect,3,4.376,1,5,0,5,0,1,,,,,,,,,,,,,
655f8da6abba5f374f3145dc,TCN,2024-06-12_13h43.12.802,LearnStrategy,2023.2.3,MacIntel,58.13953488,6,1,7,-0.014578993,0.014947917,1,0,0,0.7461,rock_grid_rect_2,3,13,-1,-1,0.746,0.102465278,-0.255802951,1,0,0,7.0935,Diorite_rect,3,7.093,1,6,0,6,0,1,,,,,,,,,,,,,
655f8da6abba5f374f3145dc,TCN,2024-06-12_13h43.12.802,LearnStrategy,2023.2.3,MacIntel,58.13953488,6,1,8,-0.01,0.003003472,1,0,0,1.0123,rock_grid_rect_2,1,14,-1,-1,1.012,-0.357217882,-0.238459201,1,0,0,6.5476,Andesite_rect,1,6.548,1,7,0,7,0,1,,,,,,,,,,,,,
655f8da6abba5f374f3145dc,TCN,2024-06-12_13h43.12.802,LearnStrategy,2023.2.3,MacIntel,58.13953488,6,1,9,0.034895833,-0.012977431,1,0,0,1.1624,rock_grid_rect_2,7,10,-1,-1,1.162,0.147196181,-0.418237847,1,0,0,2.8606,Peridotite_rect,7,2.861,1,8,0,8,0,1,,,,,,,,,,,,,
655f8da6abba5f374f3145dc,TCN,2024-06-12_13h43.12.802,LearnStrategy,2023.2.3,MacIntel,58.13953488,6,1,10,-0.005907118,0.014605035,1,0,0,0.7462,rock_grid_rect_2,2,08,-1,-1,0.746,-0.161046007,-0.256601562,1,0,0,3.4443,Basalt_rect,2,3.444,1,9,0,9,0,1,,,,,,,,,,,,,
655f8da6abba5f374f3145dc,TCN,2024-06-12_13h43.12.802,LearnStrategy,2023.2.3,MacIntel,58.13953488,6,1,11,-0.060685764,0.018363715,1,0,0,0.8107,rock_grid_rect_2,6,13,-1,-1,0.811,-0.089878472,-0.400438368,1,0,0,4.2385,Pegmatite_rect,6,4.238,1,10,0,10,0,1,,,,,,,,,,,,,
655f8da6abba5f374f3145dc,TCN,2024-06-12_13h43.12.802,LearnStrategy,2023.2.3,MacIntel,58.13953488,6,1,12,-0.00062934,0.006271701,1,0,0,1.5466,rock_grid_rect_2,4,03,-1,-1,1.547,0.343172743,-0.263368056,1,0,0,5.2853,Gabbro_rect,4,5.285,1,11,0,11,0,1,,,,,,,,,,,,,
655f8da6abba5f374f3145dc,TCN,2024-06-12_13h43.12.802,LearnStrategy,2023.2.3,MacIntel,58.13953488,6,1,13,0.035490451,0.009240451,1,0,0,1.4633,rock_grid_rect_2,4,09,-1,-1,1.463,0.092517361,-0.409509549,1,0,0,22.0049,Peridotite_rect,7,22.005,0,12,0,12,0,1,,,,,,,,,,,,,
655f8da6abba5f374f3145dc,TCN,2024-06-12_13h43.12.802,LearnStrategy,2023.2.3,MacIntel,58.13953488,6,1,14,-0.015017361,0.003450521,1,0,0,0.9954,rock_grid_rect_2,8,09,-1,-1,0.995,0.377534722,-0.411523437,1,0,0,3.4444,Pumice_rect,8,3.444,1,13,0,13,0,1,,,,,,,,,,,,,
655f8da6abba5f374f3145dc,TCN,2024-06-12_13h43.12.802,LearnStrategy,2023.2.3,MacIntel,58.13953488,6,1,15,0.046445313,0.001232639,1,0,0,1.0126,rock_grid_rect_2,8,16,-1,-1,1.013,0.349210069,-0.386336806,1,0,0,1.1701,Pumice_rect,8,1.17,1,14,0,14,0,1,,,,,,,,,,,,,
655f8da6abba5f374f3145dc,TCN,2024-06-12_13h43.12.802,LearnStrategy,2023.2.3,MacIntel,58.13953488,6,1,16,-0.008546007,-0.002686632,1,0,0,0.8132,rock_grid_rect_2,2,14,-1,-1,0.813,-0.061636285,-0.253602431,1,0,0,6.0523,Basalt_rect,2,6.052,1,15,0,15,0,1,,,,,,,,,,,,,
655f8da6abba5f374f3145dc,TCN,2024-06-12_13h43.12.802,LearnStrategy,2023.2.3,MacIntel,58.13953488,6,2,1,,,,,,,,4,10,,,,,,,,,,,4,8.338,1,,,,,,0.407374132,-0.254552951,1,0,0,8.3384,Gabbro_rect,0,0,0,0,1,
655f8da6abba5f374f3145dc,TCN,2024-06-12_13h43.12.802,LearnStrategy,2023.2.3,MacIntel,58.13953488,6,2,2,,,,,,,,2,06,,,,,,,,,,,2,3.297,1,,,,,,-0.0765625,-0.22969184,1,0,0,3.2973,Basalt_rect,1,0,1,0,1,
655f8da6abba5f374f3145dc,TCN,2024-06-12_13h43.12.802,LearnStrategy,2023.2.3,MacIntel,58.13953488,6,2,3,,,,,,,,7,14,,,,,,,,,,,3,40.78,0,,,,,,0.067634549,-0.26718316,1,0,0,40.7804,Diorite_rect,2,0,2,0,1,
655f8da6abba5f374f3145dc,TCN,2024-06-12_13h43.12.802,LearnStrategy,2023.2.3,MacIntel,58.13953488,6,2,4,,,,,,,,1,16,,,,,,,,,,,1,7.576,1,,,,,,-0.333524306,-0.265290799,1,0,0,7.5763,Andesite_rect,3,0,3,0,1,
655f8da6abba5f374f3145dc,TCN,2024-06-12_13h43.12.802,LearnStrategy,2023.2.3,MacIntel,58.13953488,6,2,5,,,,,,,,2,16,,,,,,,,,,,2,4.04,1,,,,,,-0.145842014,-0.230481771,1,0,0,4.0398,Basalt_rect,4,0,4,0,1,
655f8da6abba5f374f3145dc,TCN,2024-06-12_13h43.12.802,LearnStrategy,2023.2.3,MacIntel,58.13953488,6,2,6,,,,,,,,6,10,,,,,,,,,,,6,8.649,1,,,,,,-0.065381944,-0.397022569,1,0,0,8.6494,Pegmatite_rect,5,0,5,0,1,
655f8da6abba5f374f3145dc,TCN,2024-06-12_13h43.12.802,LearnStrategy,2023.2.3,MacIntel,58.13953488,6,2,7,,,,,,,,8,14,,,,,,,,,,,8,1.073,1,,,,,,0.417005208,-0.40859809,1,0,0,1.0727,Pumice_rect,6,0,6,0,1,
655f8da6abba5f374f3145dc,TCN,2024-06-12_13h43.12.802,LearnStrategy,2023.2.3,MacIntel,58.13953488,6,2,8,,,,,,,,3,07,,,,,,,,,,,3,4.118,1,,,,,,0.137981771,-0.265269097,1,0,0,4.1183,Diorite_rect,7,0,7,0,1,
655f8da6abba5f374f3145dc,TCN,2024-06-12_13h43.12.802,LearnStrategy,2023.2.3,MacIntel,58.13953488,6,2,9,,,,,,,,8,06,,,,,,,,,,,8,2.129,1,,,,,,0.371158854,-0.408519965,1,0,0,2.1286,Pumice_rect,8,0,8,0,1,
655f8da6abba5f374f3145dc,TCN,2024-06-12_13h43.12.802,LearnStrategy,2023.2.3,MacIntel,58.13953488,6,2,10,,,,,,,,5,05,,,,,,,,,,,5,1.138,1,,,,,,-0.366840278,-0.393693576,1,0,0,1.1383,Obsidian_rect,9,0,9,0,1,
655f8da6abba5f374f3145dc,TCN,2024-06-12_13h43.12.802,LearnStrategy,2023.2.3,MacIntel,58.13953488,6,2,11,,,,,,,,6,07,,,,,,,,,,,6,4.472,1,,,,,,-0.095091146,-0.405651042,1,0,0,4.4716,Pegmatite_rect,10,0,10,0,1,
655f8da6abba5f374f3145dc,TCN,2024-06-12_13h43.12.802,LearnStrategy,2023.2.3,MacIntel,58.13953488,6,2,12,,,,,,,,4,05,,,,,,,,,,,4,5.57,1,,,,,,0.353975694,-0.254648437,1,0,0,5.5701,Gabbro_rect,11,0,11,0,1,
655f8da6abba5f374f3145dc,TCN,2024-06-12_13h43.12.802,LearnStrategy,2023.2.3,MacIntel,58.13953488,6,2,13,,,,,,,,1,04,,,,,,,,,,,1,13.369,1,,,,,,-0.341067708,-0.259769965,1,0,0,13.3692,Andesite_rect,12,0,12,0,1,
655f8da6abba5f374f3145dc,TCN,2024-06-12_13h43.12.802,LearnStrategy,2023.2.3,MacIntel,58.13953488,6,2,14,,,,,,,,7,12,,,,,,,,,,,7,4.049,1,,,,,,0.106801215,-0.384127604,1,0,0,4.0494,Peridotite_rect,13,0,13,0,1,
655f8da6abba5f374f3145dc,TCN,2024-06-12_13h43.12.802,LearnStrategy,2023.2.3,MacIntel,58.13953488,6,2,15,,,,,,,,3,15,,,,,,,,,,,4,10.043,0,,,,,,0.35733941,-0.251762153,1,0,0,10.0425,Gabbro_rect,14,0,14,0,1,
655f8da6abba5f374f3145dc,TCN,2024-06-12_13h43.12.802,LearnStrategy,2023.2.3,MacIntel,58.13953488,6,2,16,,,,,,,,5,14,,,,,,,,,,,5,1.275,1,,,,,,-0.333606771,-0.401679687,1,0,0,1.2747,Obsidian_rect,15,0,15,0,1,
655f8da6abba5f374f3145dc,TCN,2024-06-12_13h43.12.802,LearnStrategy,2023.2.3,MacIntel,58.13953488,7,1,1,0.046467014,0.004856771,1,0,0,1.8632,rock_grid_rect_2,1,02,-1,-1,1.863,-0.343789063,-0.231801215,1,0,0,10.4386,Andesite_rect,1,10.439,1,0,0,0,0,1,,,,,,,,,,,,,
655f8da6abba5f374f3145dc,TCN,2024-06-12_13h43.12.802,LearnStrategy,2023.2.3,MacIntel,58.13953488,7,1,2,0.004309896,-0.009574653,1,0,0,0.7963,rock_grid_rect_2,8,08,-1,-1,0.796,0.341692708,-0.392139757,1,0,0,3.7437,Pumice_rect,8,3.744,1,1,0,1,0,1,,,,,,,,,,,,,
655f8da6abba5f374f3145dc,TCN,2024-06-12_13h43.12.802,LearnStrategy,2023.2.3,MacIntel,58.13953488,7,1,3,-0.025876736,0.005824653,1,0,0,0.696,rock_grid_rect_2,7,07,-1,-1,0.696,0.094934896,-0.388949653,1,0,0,5.0082,Peridotite_rect,7,5.008,1,2,0,2,0,1,,,,,,,,,,,,,
655f8da6abba5f374f3145dc,TCN,2024-06-12_13h43.12.802,LearnStrategy,2023.2.3,MacIntel,58.13953488,7,1,4,0.033680556,-0.0153125,1,0,0,0.9969,rock_grid_rect_2,4,03,-1,-1,0.997,0.351857639,-0.240407986,1,0,0,6.7856,Gabbro_rect,4,6.786,1,3,0,3,0,1,,,,,,,,,,,,,
655f8da6abba5f374f3145dc,TCN,2024-06-12_13h43.12.802,LearnStrategy,2023.2.3,MacIntel,58.13953488,7,1,5,-0.066206597,0.001588542,1,0,0,0.9648,rock_grid_rect_2,5,09,-1,-1,0.965,-0.344678819,-0.388858507,1,0,0,2.3929,Obsidian_rect,5,2.393,1,4,0,4,0,1,,,,,,,,,,,,,
655f8da6abba5f374f3145dc,TCN,2024-06-12_13h43.12.802,LearnStrategy,2023.2.3,MacIntel,58.13953488,7,1,6,-0.006345486,-0.020911458,1,0,0,0.9796,rock_grid_rect_2,7,10,-1,-1,0.98,0.084305556,-0.381519097,1,0,0,8.239,Peridotite_rect,7,8.239,1,5,0,5,0,1,,,,,,,,,,,,,
655f8da6abba5f374f3145dc,TCN,2024-06-12_13h43.12.802,LearnStrategy,2023.2.3,MacIntel,58.13953488,7,1,7,0.010690104,-0.006553819,1,0,0,1.023,rock_grid_rect_2,3,10,-1,-1,1.023,0.185642361,-0.251484375,1,0,0,6.6887,Diorite_rect,3,6.689,1,6,0,6,0,1,,,,,,,,,,,,,
655f8da6abba5f374f3145dc,TCN,2024-06-12_13h43.12.802,LearnStrategy,2023.2.3,MacIntel,58.13953488,7,1,8,-0.052473958,-0.011037326,1,0,0,1.1953,rock_grid_rect_2,8,16,-1,-1,1.195,0.344466146,-0.396111111,1,0,0,1.3074,Pumice_rect,8,1.307,1,7,0,7,0,1,,,,,,,,,,,,,
655f8da6abba5f374f3145dc,TCN,2024-06-12_13h43.12.802,LearnStrategy,2023.2.3,MacIntel,58.13953488,7,1,9,0.028385417,-0.020651042,1,0,0,0.8126,rock_grid_rect_2,3,12,-1,-1,0.813,0.172756076,-0.247265625,1,0,0,4.5691,Diorite_rect,3,4.569,1,8,0,8,0,1,,,,,,,,,,,,,
655f8da6abba5f374f3145dc,TCN,2024-06-12_13h43.12.802,LearnStrategy,2023.2.3,MacIntel,58.13953488,7,1,10,-0.010690104,-0.020143229,1,0,0,1.0781,rock_grid_rect_2,4,09,-1,-1,1.078,0.34094184,-0.264587674,1,0,0,4.1451,Gabbro_rect,4,4.145,1,9,0,9,0,1,,,,,,,,,,,,,
655f8da6abba5f374f3145dc,TCN,2024-06-12_13h43.12.802,LearnStrategy,2023.2.3,MacIntel,58.13953488,7,1,11,-0.045651042,0.001653646,1,0,0,0.8283,rock_grid_rect_2,5,04,-1,-1,0.828,-0.354166667,-0.392773437,1,0,0,1.007,Obsidian_rect,5,1.007,1,10,0,10,0,1,,,,,,,,,,,,,
655f8da6abba5f374f3145dc,TCN,2024-06-12_13h43.12.802,LearnStrategy,2023.2.3,MacIntel,58.13953488,7,1,12,0.015338542,0.014835069,1,0,0,1.1818,rock_grid_rect_2,2,05,-1,-1,1.182,-0.125811632,-0.242209201,1,0,0,4.0065,Basalt_rect,2,4.006,1,11,0,11,0,1,,,,,,,,,,,,,
655f8da6abba5f374f3145dc,TCN,2024-06-12_13h43.12.802,LearnStrategy,2023.2.3,MacIntel,58.13953488,7,1,13,0.001336806,-0.005065104,1,0,0,0.9465,rock_grid_rect_2,2,10,-1,-1,0.947,-0.104991319,-0.268802083,1,0,0,5.2916,Basalt_rect,2,5.292,1,12,0,12,0,1,,,,,,,,,,,,,
655f8da6abba5f374f3145dc,TCN,2024-06-12_13h43.12.802,LearnStrategy,2023.2.3,MacIntel,58.13953488,7,1,14,-0.058125,0.01906684,1,0,0,2.0459,rock_grid_rect_2,6,13,-1,-1,2.046,-0.065460069,-0.393684896,1,0,0,5.0915,Pegmatite_rect,6,5.091,1,13,0,13,0,1,,,,,,,,,,,,,
655f8da6abba5f374f3145dc,TCN,2024-06-12_13h43.12.802,LearnStrategy,2023.2.3,MacIntel,58.13953488,7,1,15,-0.033715278,-0.024427083,1,0,0,0.7155,rock_grid_rect_2,1,11,-1,-1,0.715,-0.393389757,-0.251493056,1,0,0,4.3806,Andesite_rect,1,4.381,1,14,0,14,0,1,,,,,,,,,,,,,
655f8da6abba5f374f3145dc,TCN,2024-06-12_13h43.12.802,LearnStrategy,2023.2.3,MacIntel,58.13953488,7,1,16,-0.005138889,-0.000659722,1,0,0,0.7457,rock_grid_rect_2,6,09,-1,-1,0.746,-0.05219184,-0.403346354,1,0,0,3.5239,Pegmatite_rect,6,3.524,1,15,0,15,0,1,,,,,,,,,,,,,
655f8da6abba5f374f3145dc,TCN,2024-06-12_13h43.12.802,LearnStrategy,2023.2.3,MacIntel,58.13953488,7,2,1,,,,,,,,6,16,,,,,,,,,,,6,2.872,1,,,,,,-0.106857639,-0.40140191,1,0,0,2.8718,Pegmatite_rect,0,0,0,0,1,
655f8da6abba5f374f3145dc,TCN,2024-06-12_13h43.12.802,LearnStrategy,2023.2.3,MacIntel,58.13953488,7,2,2,,,,,,,,8,06,,,,,,,,,,,8,1.293,1,,,,,,0.436080729,-0.399340278,1,0,0,1.2933,Pumice_rect,1,0,1,0,1,
655f8da6abba5f374f3145dc,TCN,2024-06-12_13h43.12.802,LearnStrategy,2023.2.3,MacIntel,58.13953488,7,2,3,,,,,,,,5,06,,,,,,,,,,,5,1.211,1,,,,,,-0.349283854,-0.387352431,1,0,0,1.2105,Obsidian_rect,2,0,2,0,1,
655f8da6abba5f374f3145dc,TCN,2024-06-12_13h43.12.802,LearnStrategy,2023.2.3,MacIntel,58.13953488,7,2,4,,,,,,,,2,09,,,,,,,,,,,2,3.022,1,,,,,,-0.124431424,-0.241618924,1,0,0,3.022,Basalt_rect,3,0,3,0,1,
655f8da6abba5f374f3145dc,TCN,2024-06-12_13h43.12.802,LearnStrategy,2023.2.3,MacIntel,58.13953488,7,2,5,,,,,,,,3,08,,,,,,,,,,,3,5.993,1,,,,,,0.177226562,-0.230598958,1,0,0,5.9927,Diorite_rect,4,0,4,0,1,
655f8da6abba5f374f3145dc,TCN,2024-06-12_13h43.12.802,LearnStrategy,2023.2.3,MacIntel,58.13953488,7,2,6,,,,,,,,8,10,,,,,,,,,,,8,1.405,1,,,,,,0.383554687,-0.406679687,1,0,0,1.4053,Pumice_rect,5,0,5,0,1,
655f8da6abba5f374f3145dc,TCN,2024-06-12_13h43.12.802,LearnStrategy,2023.2.3,MacIntel,58.13953488,7,2,7,,,,,,,,7,04,,,,,,,,,,,1,18.128,0,,,,,,-0.316228299,-0.245928819,1,0,0,18.1283,Andesite_rect,6,0,6,0,1,
655f8da6abba5f374f3145dc,TCN,2024-06-12_13h43.12.802,LearnStrategy,2023.2.3,MacIntel,58.13953488,7,2,8,,,,,,,,7,02,,,,,,,,,,,7,4.176,1,,,,,,0.119401042,-0.404717882,1,0,0,4.1763,Peridotite_rect,7,0,7,0,1,
655f8da6abba5f374f3145dc,TCN,2024-06-12_13h43.12.802,LearnStrategy,2023.2.3,MacIntel,58.13953488,7,2,9,,,,,,,,5,10,,,,,,,,,,,5,1.321,1,,,,,,-0.3321875,-0.385664063,1,0,0,1.3207,Obsidian_rect,8,0,8,0,1,
655f8da6abba5f374f3145dc,TCN,2024-06-12_13h43.12.802,LearnStrategy,2023.2.3,MacIntel,58.13953488,7,2,10,,,,,,,,4,14,,,,,,,,,,,2,5.317,0,,,,,,-0.123710938,-0.25078559,1,0,0,5.3168,Basalt_rect,9,0,9,0,1,
655f8da6abba5f374f3145dc,TCN,2024-06-12_13h43.12.802,LearnStrategy,2023.2.3,MacIntel,58.13953488,7,2,11,,,,,,,,6,10,,,,,,,,,,,6,5.071,1,,,,,,-0.113198785,-0.406072049,1,0,0,5.0711,Pegmatite_rect,10,0,10,0,1,
655f8da6abba5f374f3145dc,TCN,2024-06-12_13h43.12.802,LearnStrategy,2023.2.3,MacIntel,58.13953488,7,2,12,,,,,,,,1,06,,,,,,,,,,,1,6.968,1,,,,,,-0.310251736,-0.258272569,1,0,0,6.9675,Andesite_rect,11,0,11,0,1,
655f8da6abba5f374f3145dc,TCN,2024-06-12_13h43.12.802,LearnStrategy,2023.2.3,MacIntel,58.13953488,7,2,13,,,,,,,,1,16,,,,,,,,,,,1,6.873,1,,,,,,-0.345186632,-0.249184028,1,0,0,6.8729,Andesite_rect,12,0,12,0,1,
655f8da6abba5f374f3145dc,TCN,2024-06-12_13h43.12.802,LearnStrategy,2023.2.3,MacIntel,58.13953488,7,2,14,,,,,,,,4,05,,,,,,,,,,,4,6.155,1,,,,,,0.393993056,-0.247252604,1,0,0,6.1549,Gabbro_rect,13,0,13,0,1,
655f8da6abba5f374f3145dc,TCN,2024-06-12_13h43.12.802,LearnStrategy,2023.2.3,MacIntel,58.13953488,7,2,15,,,,,,,,2,12,,,,,,,,,,,8,2.123,0,,,,,,0.38312066,-0.398302951,1,0,0,2.1228,Pumice_rect,14,0,14,0,1,
655f8da6abba5f374f3145dc,TCN,2024-06-12_13h43.12.802,LearnStrategy,2023.2.3,MacIntel,58.13953488,7,2,16,,,,,,,,3,11,,,,,,,,,,,3,5.377,1,,,,,,0.165950521,-0.250607639,1,0,0,5.377,Diorite_rect,15,0,15,0,1,
655f8da6abba5f374f3145dc,TCN,2024-06-12_13h43.12.802,LearnStrategy,2023.2.3,MacIntel,58.13953488,8,1,1,0.039375,-0.023246528,1,0,0,1.3997,rock_grid_rect_2,1,09,-1,-1,1.4,-0.365703125,-0.248858507,1,0,0,5.2926,Andesite_rect,1,5.293,1,0,0,0,0,1,,,,,,,,,,,,,
655f8da6abba5f374f3145dc,TCN,2024-06-12_13h43.12.802,LearnStrategy,2023.2.3,MacIntel,58.13953488,8,1,2,-0.022743056,-0.021354167,1,0,0,0.7455,rock_grid_rect_2,7,16,-1,-1,0.745,0.082469618,-0.391532118,1,0,0,5.6951,Peridotite_rect,7,5.695,1,1,0,1,0,1,,,,,,,,,,,,,
655f8da6abba5f374f3145dc,TCN,2024-06-12_13h43.12.802,LearnStrategy,2023.2.3,MacIntel,58.13953488,8,1,3,-0.011050347,-0.014835069,1,0,0,1.1118,rock_grid_rect_2,8,03,-1,-1,1.112,0.360047743,-0.391788194,1,0,0,1.4622,Pumice_rect,8,1.462,1,2,0,2,0,1,,,,,,,,,,,,,
655f8da6abba5f374f3145dc,TCN,2024-06-12_13h43.12.802,LearnStrategy,2023.2.3,MacIntel,58.13953488,8,1,4,-0.03687066,-0.007052951,1,0,0,0.9296,rock_grid_rect_2,5,11,-1,-1,0.93,-0.340802951,-0.38140625,1,0,0,0.9398,Obsidian_rect,5,0.94,1,3,0,3,0,1,,,,,,,,,,,,,
655f8da6abba5f374f3145dc,TCN,2024-06-12_13h43.12.802,LearnStrategy,2023.2.3,MacIntel,58.13953488,8,1,5,0.01266059,-0.002152778,1,0,0,0.8662,rock_grid_rect_2,2,08,-1,-1,0.866,-0.100868056,-0.251284722,1,0,0,2.3878,Basalt_rect,2,2.388,1,4,0,4,0,1,,,,,,,,,,,,,
655f8da6abba5f374f3145dc,TCN,2024-06-12_13h43.12.802,LearnStrategy,2023.2.3,MacIntel,58.13953488,8,1,6,0.013971354,-0.015907118,1,0,0,0.9809,rock_grid_rect_2,4,08,-1,-1,0.981,0.330017361,-0.251953125,1,0,0,10.572,Gabbro_rect,4,10.572,1,5,0,5,0,1,,,,,,,,,,,,,
655f8da6abba5f374f3145dc,TCN,2024-06-12_13h43.12.802,LearnStrategy,2023.2.3,MacIntel,58.13953488,8,1,7,-0.14905816,0.013658854,1,0,0,0.8092,rock_grid_rect_2,3,13,-1,-1,0.809,0.120060764,-0.259166667,1,0,0,3.1213,Diorite_rect,3,3.121,1,6,0,6,0,1,,,,,,,,,,,,,
655f8da6abba5f374f3145dc,TCN,2024-06-12_13h43.12.802,LearnStrategy,2023.2.3,MacIntel,58.13953488,8,1,8,-0.019483507,0.013697917,1,0,0,1.0139,rock_grid_rect_2,6,03,-1,-1,1.014,-0.076480035,-0.392834201,1,0,0,4.348,Pegmatite_rect,6,4.348,1,7,0,7,0,1,,,,,,,,,,,,,
655f8da6abba5f374f3145dc,TCN,2024-06-12_13h43.12.802,LearnStrategy,2023.2.3,MacIntel,58.13953488,8,1,9,0.00452691,0.001319444,1,0,0,1.5948,rock_grid_rect_2,8,09,-1,-1,1.595,0.372851563,-0.416076389,1,0,0,1.2307,Pumice_rect,8,1.231,1,8,0,8,0,1,,,,,,,,,,,,,
655f8da6abba5f374f3145dc,TCN,2024-06-12_13h43.12.802,LearnStrategy,2023.2.3,MacIntel,58.13953488,8,1,10,0.010802951,-0.007152778,1,0,0,0.8295,rock_grid_rect_2,6,12,-1,-1,0.829,-0.083689236,-0.403181424,1,0,0,6.9954,Pegmatite_rect,6,6.995,1,9,0,9,0,1,,,,,,,,,,,,,
655f8da6abba5f374f3145dc,TCN,2024-06-12_13h43.12.802,LearnStrategy,2023.2.3,MacIntel,58.13953488,8,1,11,0.004166667,-0.014348958,1,0,0,0.7808,rock_grid_rect_2,1,10,-1,-1,0.781,-0.121445312,-0.263836806,1,0,0,19.7846,Basalt_rect,2,19.785,0,10,0,10,0,1,,,,,,,,,,,,,
655f8da6abba5f374f3145dc,TCN,2024-06-12_13h43.12.802,LearnStrategy,2023.2.3,MacIntel,58.13953488,8,1,12,-0.056215278,0.012304687,1,0,0,1.4297,rock_grid_rect_2,2,14,-1,-1,1.43,0.33405816,-0.397552083,1,0,0,1.7904,Pumice_rect,8,1.79,0,11,0,11,0,1,,,,,,,,,,,,,
655f8da6abba5f374f3145dc,TCN,2024-06-12_13h43.12.802,LearnStrategy,2023.2.3,MacIntel,58.13953488,8,1,13,0.017204861,0.006336806,1,0,0,1.0125,rock_grid_rect_2,4,15,-1,-1,1.012,0.364401042,-0.238836806,1,0,0,4.4322,Gabbro_rect,4,4.432,1,12,0,12,0,1,,,,,,,,,,,,,
655f8da6abba5f374f3145dc,TCN,2024-06-12_13h43.12.802,LearnStrategy,2023.2.3,MacIntel,58.13953488,8,1,14,-0.009036458,-0.007795139,1,0,0,0.8796,rock_grid_rect_2,3,02,-1,-1,0.88,0.206336806,-0.25468316,1,0,0,7.9807,Diorite_rect,3,7.981,1,13,0,13,0,1,,,,,,,,,,,,,
655f8da6abba5f374f3145dc,TCN,2024-06-12_13h43.12.802,LearnStrategy,2023.2.3,MacIntel,58.13953488,8,1,15,-0.001267361,-0.008858507,1,0,0,0.7483,rock_grid_rect_2,5,12,-1,-1,0.748,-0.348741319,-0.382938368,1,0,0,0.9718,Obsidian_rect,5,0.972,1,14,0,14,0,1,,,,,,,,,,,,,
655f8da6abba5f374f3145dc,TCN,2024-06-12_13h43.12.802,LearnStrategy,2023.2.3,MacIntel,58.13953488,8,1,16,0.012413194,-0.006892361,1,0,0,0.8972,rock_grid_rect_2,7,08,-1,-1,0.897,0.12546441,-0.401302083,1,0,0,4.3511,Peridotite_rect,7,4.351,1,15,0,15,0,1,,,,,,,,,,,,,
655f8da6abba5f374f3145dc,TCN,2024-06-12_13h43.12.802,LearnStrategy,2023.2.3,MacIntel,58.13953488,8,2,1,,,,,,,,2,06,,,,,,,,,,,2,3.83,1,,,,,,-0.076983507,-0.234335938,1,0,0,3.8301,Basalt_rect,0,0,0,0,1,
655f8da6abba5f374f3145dc,TCN,2024-06-12_13h43.12.802,LearnStrategy,2023.2.3,MacIntel,58.13953488,8,2,2,,,,,,,,6,06,,,,,,,,,,,6,3.838,1,,,,,,-0.072647569,-0.386297743,1,0,0,3.838,Pegmatite_rect,1,0,1,0,1,
655f8da6abba5f374f3145dc,TCN,2024-06-12_13h43.12.802,LearnStrategy,2023.2.3,MacIntel,58.13953488,8,2,3,,,,,,,,8,02,,,,,,,,,,,8,1.665,1,,,,,,0.356857639,-0.394791667,1,0,0,1.6651,Pumice_rect,2,0,2,0,1,
655f8da6abba5f374f3145dc,TCN,2024-06-12_13h43.12.802,LearnStrategy,2023.2.3,MacIntel,58.13953488,8,2,4,,,,,,,,4,01,,,,,,,,,,,4,3.787,1,,,,,,0.318993056,-0.246236979,1,0,0,3.7872,Gabbro_rect,3,0,3,0,1,
655f8da6abba5f374f3145dc,TCN,2024-06-12_13h43.12.802,LearnStrategy,2023.2.3,MacIntel,58.13953488,8,2,5,,,,,,,,1,05,,,,,,,,,,,1,18.64,1,,,,,,-0.455559896,-0.259088542,1,0,0,18.6397,Andesite_rect,4,0,4,0,1,
655f8da6abba5f374f3145dc,TCN,2024-06-12_13h43.12.802,LearnStrategy,2023.2.3,MacIntel,58.13953488,8,2,6,,,,,,,,3,07,,,,,,,,,,,3,17.32,1,,,,,,0.074965278,-0.251354167,1,0,0,17.32,Diorite_rect,5,0,5,0,1,
655f8da6abba5f374f3145dc,TCN,2024-06-12_13h43.12.802,LearnStrategy,2023.2.3,MacIntel,58.13953488,8,2,7,,,,,,,,5,14,,,,,,,,,,,5,8.478,1,,,,,,-0.430846354,-0.406354167,1,0,0,8.4782,Obsidian_rect,6,0,6,0,1,
655f8da6abba5f374f3145dc,TCN,2024-06-12_13h43.12.802,LearnStrategy,2023.2.3,MacIntel,58.13953488,8,2,8,,,,,,,,7,06,,,,,,,,,,,7,5.1,1,,,,,,0.141306424,-0.399392361,1,0,0,5.0999,Peridotite_rect,7,0,7,0,1,
655f8da6abba5f374f3145dc,TCN,2024-06-12_13h43.12.802,LearnStrategy,2023.2.3,MacIntel,58.13953488,8,2,9,,,,,,,,3,15,,,,,,,,,,,3,14.004,1,,,,,,0.114136285,-0.251011285,1,0,0,14.0039,Diorite_rect,8,0,8,0,1,
655f8da6abba5f374f3145dc,TCN,2024-06-12_13h43.12.802,LearnStrategy,2023.2.3,MacIntel,58.13953488,8,2,10,,,,,,,,4,11,,,,,,,,,,,2,3.772,0,,,,,,-0.085277778,-0.25983941,1,0,0,3.7722,Basalt_rect,9,0,9,0,1,
655f8da6abba5f374f3145dc,TCN,2024-06-12_13h43.12.802,LearnStrategy,2023.2.3,MacIntel,58.13953488,8,2,11,,,,,,,,2,02,,,,,,,,,,,2,2.051,1,,,,,,-0.057868924,-0.265967882,1,0,0,2.0511,Basalt_rect,10,0,10,0,1,
655f8da6abba5f374f3145dc,TCN,2024-06-12_13h43.12.802,LearnStrategy,2023.2.3,MacIntel,58.13953488,8,2,12,,,,,,,,8,13,,,,,,,,,,,8,1.308,1,,,,,,0.339665799,-0.387096354,1,0,0,1.308,Pumice_rect,11,0,11,0,1,
655f8da6abba5f374f3145dc,TCN,2024-06-12_13h43.12.802,LearnStrategy,2023.2.3,MacIntel,58.13953488,8,2,13,,,,,,,,7,14,,,,,,,,,,,7,10.689,1,,,,,,0.102630208,-0.388615451,1,0,0,10.6893,Peridotite_rect,12,0,12,0,1,
655f8da6abba5f374f3145dc,TCN,2024-06-12_13h43.12.802,LearnStrategy,2023.2.3,MacIntel,58.13953488,8,2,14,,,,,,,,6,15,,,,,,,,,,,6,5.36,1,,,,,,-0.065095486,-0.405221354,1,0,0,5.3597,Pegmatite_rect,13,0,13,0,1,
655f8da6abba5f374f3145dc,TCN,2024-06-12_13h43.12.802,LearnStrategy,2023.2.3,MacIntel,58.13953488,8,2,15,,,,,,,,5,16,,,,,,,,,,,5,0.999,1,,,,,,-0.337417535,-0.389787326,1,0,0,0.9985,Obsidian_rect,14,0,14,0,1,
655f8da6abba5f374f3145dc,TCN,2024-06-12_13h43.12.802,LearnStrategy,2023.2.3,MacIntel,58.13953488,8,2,16,,,,,,,,1,04,,,,,,,,,,,1,9.017,1,,,,,,-0.312517361,-0.263415799,1,0,0,9.017,Andesite_rect,15,0,15,0,1,
655f8da6abba5f374f3145dc,TCN,2024-06-12_13h43.12.802,LearnStrategy,2023.2.3,MacIntel,58.13953488,9,1,1,-0.033077257,-0.00297309,1,0,0,1.3317,rock_grid_rect_2,4,13,-1,-1,1.332,0.372795139,-0.249709201,1,0,0,7.956,Gabbro_rect,4,7.956,1,0,0,0,0,1,,,,,,,,,,,,,
655f8da6abba5f374f3145dc,TCN,2024-06-12_13h43.12.802,LearnStrategy,2023.2.3,MacIntel,58.13953488,9,1,2,0.039353299,-0.018454861,1,0,0,1.2638,rock_grid_rect_2,6,05,-1,-1,1.264,-0.063580729,-0.409570312,1,0,0,4.5754,Pegmatite_rect,6,4.575,1,1,0,1,0,1,,,,,,,,,,,,,
655f8da6abba5f374f3145dc,TCN,2024-06-12_13h43.12.802,LearnStrategy,2023.2.3,MacIntel,58.13953488,9,1,3,0.000112847,0.014761285,1,0,0,1.099,rock_grid_rect_2,4,16,-1,-1,1.099,-0.116449653,-0.245026042,1,0,0,6.7775,Basalt_rect,2,6.778,0,2,0,2,0,1,,,,,,,,,,,,,
655f8da6abba5f374f3145dc,TCN,2024-06-12_13h43.12.802,LearnStrategy,2023.2.3,MacIntel,58.13953488,9,1,4,-0.009348958,-0.001631944,1,0,0,1.0149,rock_grid_rect_2,1,07,-1,-1,1.015,-0.333875868,-0.236901042,1,0,0,9.7146,Andesite_rect,1,9.715,1,3,0,3,0,1,,,,,,,,,,,,,
655f8da6abba5f374f3145dc,TCN,2024-06-12_13h43.12.802,LearnStrategy,2023.2.3,MacIntel,58.13953488,9,1,5,-0.038268229,-0.000577257,1,0,0,0.7952,rock_grid_rect_2,3,09,-1,-1,0.795,0.136145833,-0.266388889,1,0,0,3.5824,Diorite_rect,3,3.582,1,4,0,4,0,1,,,,,,,,,,,,,
655f8da6abba5f374f3145dc,TCN,2024-06-12_13h43.12.802,LearnStrategy,2023.2.3,MacIntel,58.13953488,9,1,6,0.008667535,-0.005889757,1,0,0,0.7816,rock_grid_rect_2,7,15,-1,-1,0.782,0.137630208,-0.393415799,1,0,0,10.4053,Peridotite_rect,7,10.405,1,5,0,5,0,1,,,,,,,,,,,,,
655f8da6abba5f374f3145dc,TCN,2024-06-12_13h43.12.802,LearnStrategy,2023.2.3,MacIntel,58.13953488,9,1,7,0.037096354,-0.010013021,1,0,0,0.8967,rock_grid_rect_2,6,11,-1,-1,0.897,-0.047860243,-0.381579861,1,0,0,4.2575,Pegmatite_rect,6,4.258,1,6,0,6,0,1,,,,,,,,,,,,,
655f8da6abba5f374f3145dc,TCN,2024-06-12_13h43.12.802,LearnStrategy,2023.2.3,MacIntel,58.13953488,9,1,8,0.010238715,-0.020863715,1,0,0,1.1298,rock_grid_rect_2,8,04,-1,-1,1.13,0.376206597,-0.41250434,1,0,0,1.8024,Pumice_rect,8,1.802,1,7,0,7,0,1,,,,,,,,,,,,,
655f8da6abba5f374f3145dc,TCN,2024-06-12_13h43.12.802,LearnStrategy,2023.2.3,MacIntel,58.13953488,9,1,9,0.008381076,0.003988715,1,0,0,1.0641,rock_grid_rect_2,3,06,-1,-1,1.064,0.335043403,-0.237743056,1,0,0,4.2429,Gabbro_rect,4,4.243,0,8,0,8,0,1,,,,,,,,,,,,,
655f8da6abba5f374f3145dc,TCN,2024-06-12_13h43.12.802,LearnStrategy,2023.2.3,MacIntel,58.13953488,9,1,10,0.032265625,0.001323785,1,0,0,1.5969,rock_grid_rect_2,7,05,-1,-1,1.597,0.10187934,-0.410499132,1,0,0,6.2852,Peridotite_rect,7,6.285,1,9,0,9,0,1,,,,,,,,,,,,,
655f8da6abba5f374f3145dc,TCN,2024-06-12_13h43.12.802,LearnStrategy,2023.2.3,MacIntel,58.13953488,9,1,11,0.025447049,-0.017730035,1,0,0,1.0124,rock_grid_rect_2,2,04,-1,-1,1.012,-0.203997396,-0.232391493,1,0,0,1.269,Basalt_rect,2,1.269,1,10,0,10,0,1,,,,,,,,,,,,,
655f8da6abba5f374f3145dc,TCN,2024-06-12_13h43.12.802,LearnStrategy,2023.2.3,MacIntel,58.13953488,9,1,12,-0.031896701,0.006163194,1,0,0,0.78,rock_grid_rect_2,5,08,-1,-1,0.78,-0.367326389,-0.393780382,1,0,0,1.8898,Obsidian_rect,5,1.89,1,11,0,11,0,1,,,,,,,,,,,,,
655f8da6abba5f374f3145dc,TCN,2024-06-12_13h43.12.802,LearnStrategy,2023.2.3,MacIntel,58.13953488,9,1,13,0.002769097,-0.002986111,1,0,0,0.8134,rock_grid_rect_2,1,14,-1,-1,0.813,-0.328572049,-0.244939236,1,0,0,4.8162,Andesite_rect,1,4.816,1,12,0,12,0,1,,,,,,,,,,,,,
655f8da6abba5f374f3145dc,TCN,2024-06-12_13h43.12.802,LearnStrategy,2023.2.3,MacIntel,58.13953488,9,1,14,-0.006263021,-0.015625,1,0,0,0.9471,rock_grid_rect_2,2,11,-1,-1,0.947,0.363563368,-0.403602431,1,0,0,1.5039,Pumice_rect,8,1.504,0,13,0,13,0,1,,,,,,,,,,,,,
655f8da6abba5f374f3145dc,TCN,2024-06-12_13h43.12.802,LearnStrategy,2023.2.3,MacIntel,58.13953488,9,1,15,0.061358507,0.011675347,1,0,0,1.0991,rock_grid_rect_2,5,02,-1,-1,1.099,-0.366987847,-0.400243056,1,0,0,2.2809,Obsidian_rect,5,2.281,1,14,0,14,0,1,,,,,,,,,,,,,
655f8da6abba5f374f3145dc,TCN,2024-06-12_13h43.12.802,LearnStrategy,2023.2.3,MacIntel,58.13953488,9,1,16,0.009461806,-0.000972222,1,0,0,0.7963,rock_grid_rect_2,8,15,-1,-1,0.796,0.391388889,-0.387703993,1,0,0,1.6819,Pumice_rect,8,1.682,1,15,0,15,0,1,,,,,,,,,,,,,
655f8da6abba5f374f3145dc,TCN,2024-06-12_13h43.12.802,LearnStrategy,2023.2.3,MacIntel,58.13953488,9,2,1,,,,,,,,8,05,,,,,,,,,,,8,1.976,1,,,,,,0.396527778,-0.388389757,1,0,0,1.9758,Pumice_rect,0,0,0,0,1,
655f8da6abba5f374f3145dc,TCN,2024-06-12_13h43.12.802,LearnStrategy,2023.2.3,MacIntel,58.13953488,9,2,2,,,,,,,,5,07,,,,,,,,,,,5,1.2,1,,,,,,-0.339171007,-0.388953993,1,0,0,1.2001,Obsidian_rect,1,0,1,0,1,
655f8da6abba5f374f3145dc,TCN,2024-06-12_13h43.12.802,LearnStrategy,2023.2.3,MacIntel,58.13953488,9,2,3,,,,,,,,7,13,,,,,,,,,,,7,4.785,1,,,,,,0.131280382,-0.403363715,1,0,0,4.7847,Peridotite_rect,2,0,2,0,1,
655f8da6abba5f374f3145dc,TCN,2024-06-12_13h43.12.802,LearnStrategy,2023.2.3,MacIntel,58.13953488,9,2,4,,,,,,,,4,12,,,,,,,,,,,7,35.417,0,,,,,,0.160750868,-0.411236979,1,0,0,35.4169,Peridotite_rect,3,0,3,0,1,
655f8da6abba5f374f3145dc,TCN,2024-06-12_13h43.12.802,LearnStrategy,2023.2.3,MacIntel,58.13953488,9,2,5,,,,,,,,7,12,,,,,,,,,,,7,6.168,1,,,,,,0.112048611,-0.396506076,1,0,0,6.1684,Peridotite_rect,4,0,4,0,1,
655f8da6abba5f374f3145dc,TCN,2024-06-12_13h43.12.802,LearnStrategy,2023.2.3,MacIntel,58.13953488,9,2,6,,,,,,,,1,03,,,,,,,,,,,1,17.396,1,,,,,,-0.362256944,-0.247391493,1,0,0,17.3956,Andesite_rect,5,0,5,0,1,
655f8da6abba5f374f3145dc,TCN,2024-06-12_13h43.12.802,LearnStrategy,2023.2.3,MacIntel,58.13953488,9,2,7,,,,,,,,8,14,,,,,,,,,,,8,1.016,1,,,,,,0.350967882,-0.395902778,1,0,0,1.0164,Pumice_rect,6,0,6,0,1,
655f8da6abba5f374f3145dc,TCN,2024-06-12_13h43.12.802,LearnStrategy,2023.2.3,MacIntel,58.13953488,9,2,8,,,,,,,,6,07,,,,,,,,,,,6,3.072,1,,,,,,-0.119817708,-0.389353299,1,0,0,3.0724,Pegmatite_rect,7,0,7,0,1,
655f8da6abba5f374f3145dc,TCN,2024-06-12_13h43.12.802,LearnStrategy,2023.2.3,MacIntel,58.13953488,9,2,9,,,,,,,,3,16,,,,,,,,,,,4,3.688,0,,,,,,0.336388889,-0.228832465,1,0,0,3.6884,Gabbro_rect,8,0,8,0,1,
655f8da6abba5f374f3145dc,TCN,2024-06-12_13h43.12.802,LearnStrategy,2023.2.3,MacIntel,58.13953488,9,2,10,,,,,,,,4,10,,,,,,,,,,,4,19.836,1,,,,,,0.3553125,-0.26515191,1,0,0,19.8364,Gabbro_rect,9,0,9,0,1,
655f8da6abba5f374f3145dc,TCN,2024-06-12_13h43.12.802,LearnStrategy,2023.2.3,MacIntel,58.13953488,9,2,11,,,,,,,,2,01,,,,,,,,,,,2,1.298,1,,,,,,-0.091380208,-0.245850694,1,0,0,1.2977,Basalt_rect,10,0,10,0,1,
655f8da6abba5f374f3145dc,TCN,2024-06-12_13h43.12.802,LearnStrategy,2023.2.3,MacIntel,58.13953488,9,2,12,,,,,,,,1,01,,,,,,,,,,,1,19.434,1,,,,,,-0.369813368,-0.255959201,1,0,0,19.4342,Andesite_rect,11,0,11,0,1,
655f8da6abba5f374f3145dc,TCN,2024-06-12_13h43.12.802,LearnStrategy,2023.2.3,MacIntel,58.13953488,9,2,13,,,,,,,,3,14,,,,,,,,,,,3,11.227,1,,,,,,0.14140191,-0.258190104,1,0,0,11.2269,Diorite_rect,12,0,12,0,1,
655f8da6abba5f374f3145dc,TCN,2024-06-12_13h43.12.802,LearnStrategy,2023.2.3,MacIntel,58.13953488,9,2,14,,,,,,,,6,08,,,,,,,,,,,6,3.499,1,,,,,,-0.091388889,-0.406467014,1,0,0,3.4988,Pegmatite_rect,13,0,13,0,1,
655f8da6abba5f374f3145dc,TCN,2024-06-12_13h43.12.802,LearnStrategy,2023.2.3,MacIntel,58.13953488,9,2,15,,,,,,,,5,05,,,,,,,,,,,5,1.697,1,,,,,,-0.33937066,-0.395538194,1,0,0,1.6973,Obsidian_rect,14,0,14,0,1,
655f8da6abba5f374f3145dc,TCN,2024-06-12_13h43.12.802,LearnStrategy,2023.2.3,MacIntel,58.13953488,9,2,16,,,,,,,,2,16,,,,,,,,,,,2,3.792,1,,,,,,-0.069157986,-0.253988715,1,0,0,3.792,Basalt_rect,15,0,15,0,1,
655f8da6abba5f374f3145dc,TCN,2024-06-12_13h43.12.802,LearnStrategy,2023.2.3,MacIntel,58.13953488,,,,,,,,,,,,,,,,,,,,,,,,,,,,,,,,,,,,,,,,,,,1
655f8da6abba5f374f3145dc,TCN,2024-06-12_13h43.12.802,LearnStrategy,2023.2.3,MacIntel,58.13953488,,,,,,,,,,,,,,,,,,,,,,,,,,,,,,,,,,,,,,,,,,,
655f8da6abba5f374f3145dc,TCN,2024-06-12_13h43.12.802,LearnStrategy,2023.2.3,MacIntel,58.13953488,,,,,,,,,,,1,07,1,1,,,,,,,,,,,,,,,,,,,,,,,,,,,,,
655f8da6abba5f374f3145dc,TCN,2024-06-12_13h43.12.802,LearnStrategy,2023.2.3,MacIntel,58.13953488,,,,,,,,,,,2,11,1,2,,,,,,,,,,,,,,,,,,,,,,,,,,,,,
655f8da6abba5f374f3145dc,TCN,2024-06-12_13h43.12.802,LearnStrategy,2023.2.3,MacIntel,58.13953488,,,,,,,,,,,7,10,1,3,,,,,,,,,,,,,,,,,,,,,,,,,,,,,
655f8da6abba5f374f3145dc,TCN,2024-06-12_13h43.12.802,LearnStrategy,2023.2.3,MacIntel,58.13953488,,,,,,,,,,,1,11,1,4,,,,,,,,,,,,,,,,,,,,,,,,,,,,,
655f8da6abba5f374f3145dc,TCN,2024-06-12_13h43.12.802,LearnStrategy,2023.2.3,MacIntel,58.13953488,,,,,,,,,,,8,16,1,5,,,,,,,,,,,,,,,,,,,,,,,,,,,,,
655f8da6abba5f374f3145dc,TCN,2024-06-12_13h43.12.802,LearnStrategy,2023.2.3,MacIntel,58.13953488,,,,,,,,,,,3,10,1,6,,,,,,,,,,,,,,,,,,,,,,,,,,,,,
655f8da6abba5f374f3145dc,TCN,2024-06-12_13h43.12.802,LearnStrategy,2023.2.3,MacIntel,58.13953488,,,,,,,,,,,5,11,1,7,,,,,,,,,,,,,,,,,,,,,,,,,,,,,
655f8da6abba5f374f3145dc,TCN,2024-06-12_13h43.12.802,LearnStrategy,2023.2.3,MacIntel,58.13953488,,,,,,,,,,,2,05,1,8,,,,,,,,,,,,,,,,,,,,,,,,,,,,,
655f8da6abba5f374f3145dc,TCN,2024-06-12_13h43.12.802,LearnStrategy,2023.2.3,MacIntel,58.13953488,,,,,,,,,,,1,02,2,1,,,,,,,,,,,,,,,,,,,,,,,,,,,,,
655f8da6abba5f374f3145dc,TCN,2024-06-12_13h43.12.802,LearnStrategy,2023.2.3,MacIntel,58.13953488,,,,,,,,,,,4,15,2,2,,,,,,,,,,,,,,,,,,,,,,,,,,,,,
655f8da6abba5f374f3145dc,TCN,2024-06-12_13h43.12.802,LearnStrategy,2023.2.3,MacIntel,58.13953488,,,,,,,,,,,5,02,2,3,,,,,,,,,,,,,,,,,,,,,,,,,,,,,
655f8da6abba5f374f3145dc,TCN,2024-06-12_13h43.12.802,LearnStrategy,2023.2.3,MacIntel,58.13953488,,,,,,,,,,,6,12,2,4,,,,,,,,,,,,,,,,,,,,,,,,,,,,,
655f8da6abba5f374f3145dc,TCN,2024-06-12_13h43.12.802,LearnStrategy,2023.2.3,MacIntel,58.13953488,,,,,,,,,,,1,14,2,5,,,,,,,,,,,,,,,,,,,,,,,,,,,,,
655f8da6abba5f374f3145dc,TCN,2024-06-12_13h43.12.802,LearnStrategy,2023.2.3,MacIntel,58.13953488,,,,,,,,,,,5,12,2,6,,,,,,,,,,,,,,,,,,,,,,,,,,,,,
655f8da6abba5f374f3145dc,TCN,2024-06-12_13h43.12.802,LearnStrategy,2023.2.3,MacIntel,58.13953488,,,,,,,,,,,7,08,2,7,,,,,,,,,,,,,,,,,,,,,,,,,,,,,
655f8da6abba5f374f3145dc,TCN,2024-06-12_13h43.12.802,LearnStrategy,2023.2.3,MacIntel,58.13953488,,,,,,,,,,,2,04,2,8,,,,,,,,,,,,,,,,,,,,,,,,,,,,,
655f8da6abba5f374f3145dc,TCN,2024-06-12_13h43.12.802,LearnStrategy,2023.2.3,MacIntel,58.13953488,,,,,,,,,,,2,10,3,1,,,,,,,,,,,,,,,,,,,,,,,,,,,,,
655f8da6abba5f374f3145dc,TCN,2024-06-12_13h43.12.802,LearnStrategy,2023.2.3,MacIntel,58.13953488,,,,,,,,,,,3,09,3,2,,,,,,,,,,,,,,,,,,,,,,,,,,,,,
655f8da6abba5f374f3145dc,TCN,2024-06-12_13h43.12.802,LearnStrategy,2023.2.3,MacIntel,58.13953488,,,,,,,,,,,8,08,3,3,,,,,,,,,,,,,,,,,,,,,,,,,,,,,
655f8da6abba5f374f3145dc,TCN,2024-06-12_13h43.12.802,LearnStrategy,2023.2.3,MacIntel,58.13953488,,,,,,,,,,,4,16,3,4,,,,,,,,,,,,,,,,,,,,,,,,,,,,,
655f8da6abba5f374f3145dc,TCN,2024-06-12_13h43.12.802,LearnStrategy,2023.2.3,MacIntel,58.13953488,,,,,,,,,,,7,05,3,5,,,,,,,,,,,,,,,,,,,,,,,,,,,,,
655f8da6abba5f374f3145dc,TCN,2024-06-12_13h43.12.802,LearnStrategy,2023.2.3,MacIntel,58.13953488,,,,,,,,,,,5,08,3,6,,,,,,,,,,,,,,,,,,,,,,,,,,,,,
655f8da6abba5f374f3145dc,TCN,2024-06-12_13h43.12.802,LearnStrategy,2023.2.3,MacIntel,58.13953488,,,,,,,,,,,4,13,3,7,,,,,,,,,,,,,,,,,,,,,,,,,,,,,
655f8da6abba5f374f3145dc,TCN,2024-06-12_13h43.12.802,LearnStrategy,2023.2.3,MacIntel,58.13953488,,,,,,,,,,,6,09,3,8,,,,,,,,,,,,,,,,,,,,,,,,,,,,,
655f8da6abba5f374f3145dc,TCN,2024-06-12_13h43.12.802,LearnStrategy,2023.2.3,MacIntel,58.13953488,,,,,,,,,,,3,06,4,1,,,,,,,,,,,,,,,,,,,,,,,,,,,,,
655f8da6abba5f374f3145dc,TCN,2024-06-12_13h43.12.802,LearnStrategy,2023.2.3,MacIntel,58.13953488,,,,,,,,,,,5,09,4,2,,,,,,,,,,,,,,,,,,,,,,,,,,,,,
655f8da6abba5f374f3145dc,TCN,2024-06-12_13h43.12.802,LearnStrategy,2023.2.3,MacIntel,58.13953488,,,,,,,,,,,3,12,4,3,,,,,,,,,,,,,,,,,,,,,,,,,,,,,
655f8da6abba5f374f3145dc,TCN,2024-06-12_13h43.12.802,LearnStrategy,2023.2.3,MacIntel,58.13953488,,,,,,,,,,,7,15,4,4,,,,,,,,,,,,,,,,,,,,,,,,,,,,,
655f8da6abba5f374f3145dc,TCN,2024-06-12_13h43.12.802,LearnStrategy,2023.2.3,MacIntel,58.13953488,,,,,,,,,,,6,13,4,5,,,,,,,,,,,,,,,,,,,,,,,,,,,,,
655f8da6abba5f374f3145dc,TCN,2024-06-12_13h43.12.802,LearnStrategy,2023.2.3,MacIntel,58.13953488,,,,,,,,,,,8,04,4,6,,,,,,,,,,,,,,,,,,,,,,,,,,,,,
655f8da6abba5f374f3145dc,TCN,2024-06-12_13h43.12.802,LearnStrategy,2023.2.3,MacIntel,58.13953488,,,,,,,,,,,6,05,4,7,,,,,,,,,,,,,,,,,,,,,,,,,,,,,
655f8da6abba5f374f3145dc,TCN,2024-06-12_13h43.12.802,LearnStrategy,2023.2.3,MacIntel,58.13953488,,,,,,,,,,,4,03,4,8,,,,,,,,,,,,,,,,,,,,,,,,,,,,,
655f8da6abba5f374f3145dc,TCN,2024-06-12_13h43.12.802,LearnStrategy,2023.2.3,MacIntel,58.13953488,,,,,,,,,,,8,03,5,1,,,,,,,,,,,,,,,,,,,,,,,,,,,,,
655f8da6abba5f374f3145dc,TCN,2024-06-12_13h43.12.802,LearnStrategy,2023.2.3,MacIntel,58.13953488,,,,,,,,,,,8,15,5,2,,,,,,,,,,,,,,,,,,,,,,,,,,,,,
655f8da6abba5f374f3145dc,TCN,2024-06-12_13h43.12.802,LearnStrategy,2023.2.3,MacIntel,58.13953488,,,,,,,,,,,4,08,5,3,,,,,,,,,,,,,,,,,,,,,,,,,,,,,
655f8da6abba5f374f3145dc,TCN,2024-06-12_13h43.12.802,LearnStrategy,2023.2.3,MacIntel,58.13953488,,,,,,,,,,,1,10,5,4,,,,,,,,,,,,,,,,,,,,,,,,,,,,,
655f8da6abba5f374f3145dc,TCN,2024-06-12_13h43.12.802,LearnStrategy,2023.2.3,MacIntel,58.13953488,,,,,,,,,,,8,09,5,5,,,,,,,,,,,,,,,,,,,,,,,,,,,,,
655f8da6abba5f374f3145dc,TCN,2024-06-12_13h43.12.802,LearnStrategy,2023.2.3,MacIntel,58.13953488,,,,,,,,,,,2,08,5,6,,,,,,,,,,,,,,,,,,,,,,,,,,,,,
655f8da6abba5f374f3145dc,TCN,2024-06-12_13h43.12.802,LearnStrategy,2023.2.3,MacIntel,58.13953488,,,,,,,,,,,6,11,5,7,,,,,,,,,,,,,,,,,,,,,,,,,,,,,
655f8da6abba5f374f3145dc,TCN,2024-06-12_13h43.12.802,LearnStrategy,2023.2.3,MacIntel,58.13953488,,,,,,,,,,,7,07,5,8,,,,,,,,,,,,,,,,,,,,,,,,,,,,,
655f8da6abba5f374f3145dc,TCN,2024-06-12_13h43.12.802,LearnStrategy,2023.2.3,MacIntel,58.13953488,,,,,,,,,,,1,09,6,1,,,,,,,,,,,,,,,,,,,,,,,,,,,,,
655f8da6abba5f374f3145dc,TCN,2024-06-12_13h43.12.802,LearnStrategy,2023.2.3,MacIntel,58.13953488,,,,,,,,,,,2,14,6,2,,,,,,,,,,,,,,,,,,,,,,,,,,,,,
655f8da6abba5f374f3145dc,TCN,2024-06-12_13h43.12.802,LearnStrategy,2023.2.3,MacIntel,58.13953488,,,,,,,,,,,7,16,6,3,,,,,,,,,,,,,,,,,,,,,,,,,,,,,
655f8da6abba5f374f3145dc,TCN,2024-06-12_13h43.12.802,LearnStrategy,2023.2.3,MacIntel,58.13953488,,,,,,,,,,,3,02,6,4,,,,,,,,,,,,,,,,,,,,,,,,,,,,,
655f8da6abba5f374f3145dc,TCN,2024-06-12_13h43.12.802,LearnStrategy,2023.2.3,MacIntel,58.13953488,,,,,,,,,,,3,13,6,5,,,,,,,,,,,,,,,,,,,,,,,,,,,,,
655f8da6abba5f374f3145dc,TCN,2024-06-12_13h43.12.802,LearnStrategy,2023.2.3,MacIntel,58.13953488,,,,,,,,,,,5,04,6,6,,,,,,,,,,,,,,,,,,,,,,,,,,,,,
655f8da6abba5f374f3145dc,TCN,2024-06-12_13h43.12.802,LearnStrategy,2023.2.3,MacIntel,58.13953488,,,,,,,,,,,4,09,6,7,,,,,,,,,,,,,,,,,,,,,,,,,,,,,
655f8da6abba5f374f3145dc,TCN,2024-06-12_13h43.12.802,LearnStrategy,2023.2.3,MacIntel,58.13953488,,,,,,,,,,,6,03,6,8,,,,,,,,,,,,,,,,,,,,,,,,,,,,,