participant,condition,date,expName,psychopyVersion,OS,frameRate,block,phase,trial,learn_mouse_2.x,learn_mouse_2.y,learn_mouse_2.leftButton,learn_mouse_2.midButton,learn_mouse_2.rightButton,learn_mouse_2.time,learn_mouse_2.clicked_name,cat,token,row,col,t_select,cat_mouse_l.x,cat_mouse_l.y,cat_mouse_l.leftButton,cat_mouse_l.midButton,cat_mouse_l.rightButton,cat_mouse_l.time,cat_mouse_l.clicked_name,resp,t_resp,corr,train_trials.thisRepN,train_trials.thisTrialN,train_trials.thisN,train_trials.thisIndex,train_trials.ran,cat_mouse_t.x,cat_mouse_t.y,cat_mouse_t.leftButton,cat_mouse_t.midButton,cat_mouse_t.rightButton,cat_mouse_t.time,cat_mouse_t.clicked_name,test_trials.thisRepN,test_trials.thisTrialN,test_trials.thisN,test_trials.thisIndex,test_trials.ran,Bonus
655f907c54cc7835ee7b0daa,TCN,2024-06-24_17h32.50.841,LearnStrategy,2023.2.3,MacIntel,59.88023952,,,,,,,,,,,,,,,,,,,,,,,,,,,,,,,,,,,,,,,,,,,
655f907c54cc7835ee7b0daa,TCN,2024-06-24_17h32.50.841,LearnStrategy,2023.2.3,MacIntel,59.88023952,1,1,1,-0.060984158,0.013725111,1,0,0,7.01,rock_grid_rect_2,7,13,-1,-1,7.01,0.098718872,-0.392660048,1,0,0,6.1941,Peridotite_rect,7,6.194,1,0,0,0,0,1,,,,,,,,,,,,,
655f907c54cc7835ee7b0daa,TCN,2024-06-24_17h32.50.841,LearnStrategy,2023.2.3,MacIntel,59.88023952,1,1,2,0.064917399,0.003425429,1,0,0,3.109,rock_grid_rect_2,3,08,-1,-1,3.109,-0.204861654,-0.258303494,1,0,0,6.7323,Basalt_rect,2,6.732,0,1,0,1,0,1,,,,,,,,,,,,,
655f907c54cc7835ee7b0daa,TCN,2024-06-24_17h32.50.841,LearnStrategy,2023.2.3,MacIntel,59.88023952,1,1,3,0.079814996,0.002625122,1,0,0,2.3962,rock_grid_rect_2,1,04,-1,-1,2.396,0.368463677,-0.401678942,1,0,0,6.1333,Pumice_rect,8,6.133,0,2,0,2,0,1,,,,,,,,,,,,,
655f907c54cc7835ee7b0daa,TCN,2024-06-24_17h32.50.841,LearnStrategy,2023.2.3,MacIntel,59.88023952,1,1,4,-0.039848565,-0.00387224,1,0,0,3.762,rock_grid_rect_2,5,11,-1,-1,3.762,-0.356062724,-0.398933851,1,0,0,2.5084,Obsidian_rect,5,2.508,1,3,0,3,0,1,,,,,,,,,,,,,
655f907c54cc7835ee7b0daa,TCN,2024-06-24_17h32.50.841,LearnStrategy,2023.2.3,MacIntel,59.88023952,1,1,5,0.024915839,0.013740845,1,0,0,2.1078,rock_grid_rect_2,2,04,-1,-1,2.108,-0.138804864,-0.252284342,1,0,0,2.0531,Basalt_rect,2,2.053,1,4,0,4,0,1,,,,,,,,,,,,,
655f907c54cc7835ee7b0daa,TCN,2024-06-24_17h32.50.841,LearnStrategy,2023.2.3,MacIntel,59.88023952,1,1,6,0.015335422,0.010281542,1,0,0,1.5309,rock_grid_rect_2,8,04,-1,-1,1.531,0.385608181,-0.393747559,1,0,0,2.286,Pumice_rect,8,2.286,1,5,0,5,0,1,,,,,,,,,,,,,
655f907c54cc7835ee7b0daa,TCN,2024-06-24_17h32.50.841,LearnStrategy,2023.2.3,MacIntel,59.88023952,1,1,7,0.045746935,0.013232897,1,0,0,1.804,rock_grid_rect_2,3,12,-1,-1,1.804,0.419350586,-0.260597195,1,0,0,5.7211,Gabbro_rect,4,5.721,0,6,0,6,0,1,,,,,,,,,,,,,
655f907c54cc7835ee7b0daa,TCN,2024-06-24_17h32.50.841,LearnStrategy,2023.2.3,MacIntel,59.88023952,1,1,8,0.108204685,-0.00598999,1,0,0,2.1455,rock_grid_rect_2,4,09,-1,-1,2.145,-0.333561062,-0.389945882,1,0,0,9.7763,Obsidian_rect,5,9.776,0,7,0,7,0,1,,,,,,,,,,,,,
655f907c54cc7835ee7b0daa,TCN,2024-06-24_17h32.50.841,LearnStrategy,2023.2.3,MacIntel,59.88023952,1,1,9,0.063585273,0.00525316,1,0,0,1.7926,rock_grid_rect_2,6,10,-1,-1,1.793,0.144790107,-0.407396851,1,0,0,2.5279,Peridotite_rect,7,2.528,0,8,0,8,0,1,,,,,,,,,,,,,
655f907c54cc7835ee7b0daa,TCN,2024-06-24_17h32.50.841,LearnStrategy,2023.2.3,MacIntel,59.88023952,1,1,10,0.033569132,0.000585666,1,0,0,1.5061,rock_grid_rect_2,2,05,-1,-1,1.506,-0.145365194,-0.243740438,1,0,0,2.283,Basalt_rect,2,2.283,1,9,0,9,0,1,,,,,,,,,,,,,
655f907c54cc7835ee7b0daa,TCN,2024-06-24_17h32.50.841,LearnStrategy,2023.2.3,MacIntel,59.88023952,1,1,11,0.046669312,0.004166395,1,0,0,1.3266,rock_grid_rect_2,1,09,-1,-1,1.327,-0.379439324,-0.245780911,1,0,0,6.0584,Andesite_rect,1,6.058,1,10,0,10,0,1,,,,,,,,,,,,,
655f907c54cc7835ee7b0daa,TCN,2024-06-24_17h32.50.841,LearnStrategy,2023.2.3,MacIntel,59.88023952,1,1,12,0.029842055,-0.007320421,1,0,0,1.3568,rock_grid_rect_2,7,14,-1,-1,1.357,0.139787869,-0.252309231,1,0,0,5.755,Diorite_rect,3,5.755,0,11,0,11,0,1,,,,,,,,,,,,,
655f907c54cc7835ee7b0daa,TCN,2024-06-24_17h32.50.841,LearnStrategy,2023.2.3,MacIntel,59.88023952,1,1,13,0.032327474,0.006268853,1,0,0,1.3889,rock_grid_rect_2,4,11,-1,-1,1.389,-0.326277635,-0.247747125,1,0,0,9.5076,Andesite_rect,1,9.508,0,12,0,12,0,1,,,,,,,,,,,,,
655f907c54cc7835ee7b0daa,TCN,2024-06-24_17h32.50.841,LearnStrategy,2023.2.3,MacIntel,59.88023952,1,1,14,0.080730726,0.002873264,1,0,0,1.3795,rock_grid_rect_2,6,05,-1,-1,1.379,-0.353869561,-0.420857205,1,0,0,3.0535,Obsidian_rect,5,3.053,0,13,0,13,0,1,,,,,,,,,,,,,
655f907c54cc7835ee7b0daa,TCN,2024-06-24_17h32.50.841,LearnStrategy,2023.2.3,MacIntel,59.88023952,1,1,15,0.069183011,0.017136705,1,0,0,1.1774,rock_grid_rect_2,8,08,-1,-1,1.177,0.354486084,-0.399623142,1,0,0,1.6155,Pumice_rect,8,1.615,1,14,0,14,0,1,,,,,,,,,,,,,
655f907c54cc7835ee7b0daa,TCN,2024-06-24_17h32.50.841,LearnStrategy,2023.2.3,MacIntel,59.88023952,1,1,16,0.087651503,0.015886637,1,0,0,1.3262,rock_grid_rect_2,5,02,-1,-1,1.326,-0.379220174,-0.405794406,1,0,0,1.6762,Obsidian_rect,5,1.676,1,15,0,15,0,1,,,,,,,,,,,,,
655f907c54cc7835ee7b0daa,TCN,2024-06-24_17h32.50.841,LearnStrategy,2023.2.3,MacIntel,59.88023952,1,2,1,,,,,,,,8,02,,,,,,,,,,,8,2.728,1,,,,,,0.365046929,-0.382922499,1,0,0,2.7278,Pumice_rect,0,0,0,0,1,
655f907c54cc7835ee7b0daa,TCN,2024-06-24_17h32.50.841,LearnStrategy,2023.2.3,MacIntel,59.88023952,1,2,2,,,,,,,,5,09,,,,,,,,,,,5,2.395,1,,,,,,-0.329924316,-0.390574205,1,0,0,2.3945,Obsidian_rect,1,0,1,0,1,
655f907c54cc7835ee7b0daa,TCN,2024-06-24_17h32.50.841,LearnStrategy,2023.2.3,MacIntel,59.88023952,1,2,3,,,,,,,,5,16,,,,,,,,,,,5,1.458,1,,,,,,-0.329924316,-0.390574205,1,0,0,1.4578,Obsidian_rect,2,0,2,0,1,
655f907c54cc7835ee7b0daa,TCN,2024-06-24_17h32.50.841,LearnStrategy,2023.2.3,MacIntel,59.88023952,1,2,4,,,,,,,,3,13,,,,,,,,,,,3,4.362,1,,,,,,0.181334635,-0.249197523,1,0,0,4.3616,Diorite_rect,3,0,3,0,1,
655f907c54cc7835ee7b0daa,TCN,2024-06-24_17h32.50.841,LearnStrategy,2023.2.3,MacIntel,59.88023952,1,2,5,,,,,,,,8,09,,,,,,,,,,,8,1.452,1,,,,,,0.362648383,-0.397424181,1,0,0,1.4524,Pumice_rect,4,0,4,0,1,
655f907c54cc7835ee7b0daa,TCN,2024-06-24_17h32.50.841,LearnStrategy,2023.2.3,MacIntel,59.88023952,1,2,6,,,,,,,,3,09,,,,,,,,,,,6,3.934,0,,,,,,-0.074949273,-0.410487874,1,0,0,3.9336,Pegmatite_rect,5,0,5,0,1,
655f907c54cc7835ee7b0daa,TCN,2024-06-24_17h32.50.841,LearnStrategy,2023.2.3,MacIntel,59.88023952,1,2,7,,,,,,,,1,16,,,,,,,,,,,3,3.332,0,,,,,,0.158154161,-0.236700033,1,0,0,3.3324,Diorite_rect,6,0,6,0,1,
655f907c54cc7835ee7b0daa,TCN,2024-06-24_17h32.50.841,LearnStrategy,2023.2.3,MacIntel,59.88023952,1,2,8,,,,,,,,4,13,,,,,,,,,,,4,2.04,1,,,,,,0.340584039,-0.250999078,1,0,0,2.0401,Gabbro_rect,7,0,7,0,1,
655f907c54cc7835ee7b0daa,TCN,2024-06-24_17h32.50.841,LearnStrategy,2023.2.3,MacIntel,59.88023952,1,2,9,,,,,,,,7,16,,,,,,,,,,,7,1.644,1,,,,,,0.082043118,-0.41144477,1,0,0,1.644,Peridotite_rect,8,0,8,0,1,
655f907c54cc7835ee7b0daa,TCN,2024-06-24_17h32.50.841,LearnStrategy,2023.2.3,MacIntel,59.88023952,1,2,10,,,,,,,,2,06,,,,,,,,,,,2,1.996,1,,,,,,-0.085333184,-0.264508735,1,0,0,1.9956,Basalt_rect,9,0,9,0,1,
655f907c54cc7835ee7b0daa,TCN,2024-06-24_17h32.50.841,LearnStrategy,2023.2.3,MacIntel,59.88023952,1,2,11,,,,,,,,4,12,,,,,,,,,,,1,4.41,0,,,,,,-0.374576246,-0.239329088,1,0,0,4.4099,Andesite_rect,10,0,10,0,1,
655f907c54cc7835ee7b0daa,TCN,2024-06-24_17h32.50.841,LearnStrategy,2023.2.3,MacIntel,59.88023952,1,2,12,,,,,,,,6,03,,,,,,,,,,,6,4.393,1,,,,,,-0.117057766,-0.411612956,1,0,0,4.393,Pegmatite_rect,11,0,11,0,1,
655f907c54cc7835ee7b0daa,TCN,2024-06-24_17h32.50.841,LearnStrategy,2023.2.3,MacIntel,59.88023952,1,2,13,,,,,,,,1,02,,,,,,,,,,,1,7.028,1,,,,,,-0.409469604,-0.258666382,1,0,0,7.0281,Andesite_rect,12,0,12,0,1,
655f907c54cc7835ee7b0daa,TCN,2024-06-24_17h32.50.841,LearnStrategy,2023.2.3,MacIntel,59.88023952,1,2,14,,,,,,,,2,16,,,,,,,,,,,4,3.56,0,,,,,,0.375897352,-0.258591987,1,0,0,3.5598,Gabbro_rect,13,0,13,0,1,
655f907c54cc7835ee7b0daa,TCN,2024-06-24_17h32.50.841,LearnStrategy,2023.2.3,MacIntel,59.88023952,1,2,15,,,,,,,,7,10,,,,,,,,,,,7,2.991,1,,,,,,0.130668403,-0.394821031,1,0,0,2.9908,Peridotite_rect,14,0,14,0,1,
655f907c54cc7835ee7b0daa,TCN,2024-06-24_17h32.50.841,LearnStrategy,2023.2.3,MacIntel,59.88023952,1,2,16,,,,,,,,6,09,,,,,,,,,,,6,6.76,1,,,,,,-0.066424696,-0.392527059,1,0,0,6.7598,Pegmatite_rect,15,0,15,0,1,
655f907c54cc7835ee7b0daa,TCN,2024-06-24_17h32.50.841,LearnStrategy,2023.2.3,MacIntel,59.88023952,2,1,1,0.027829183,3.32303E-05,1,0,0,1.56,rock_grid_rect_2,8,15,-1,-1,1.56,0.397911784,-0.400291273,1,0,0,2.6019,Pumice_rect,8,2.602,1,0,0,0,0,1,,,,,,,,,,,,,
655f907c54cc7835ee7b0daa,TCN,2024-06-24_17h32.50.841,LearnStrategy,2023.2.3,MacIntel,59.88023952,2,1,2,0.083254869,0.011905857,1,0,0,1.0322,rock_grid_rect_2,7,08,-1,-1,1.032,-0.117500949,-0.380585802,1,0,0,3.3362,Pegmatite_rect,6,3.336,0,1,0,1,0,1,,,,,,,,,,,,,
655f907c54cc7835ee7b0daa,TCN,2024-06-24_17h32.50.841,LearnStrategy,2023.2.3,MacIntel,59.88023952,2,1,3,0.064234823,0.000879822,1,0,0,1.3558,rock_grid_rect_2,6,15,-1,-1,1.356,0.198658447,-0.244022488,1,0,0,3.3272,Diorite_rect,3,3.327,0,2,0,2,0,1,,,,,,,,,,,,,
655f907c54cc7835ee7b0daa,TCN,2024-06-24_17h32.50.841,LearnStrategy,2023.2.3,MacIntel,59.88023952,2,1,4,-0.006311306,-0.002513021,1,0,0,1.1468,rock_grid_rect_2,8,14,-1,-1,1.147,0.372042101,-0.400699192,1,0,0,1.7477,Pumice_rect,8,1.748,1,3,0,3,0,1,,,,,,,,,,,,,
655f907c54cc7835ee7b0daa,TCN,2024-06-24_17h32.50.841,LearnStrategy,2023.2.3,MacIntel,59.88023952,2,1,5,0.075796916,0.008112522,1,0,0,0.9803,rock_grid_rect_2,2,02,-1,-1,0.98,-0.115150282,-0.252123549,1,0,0,1.6102,Basalt_rect,2,1.61,1,4,0,4,0,1,,,,,,,,,,,,,
655f907c54cc7835ee7b0daa,TCN,2024-06-24_17h32.50.841,LearnStrategy,2023.2.3,MacIntel,59.88023952,2,1,6,0.027199707,-0.006867032,1,0,0,1.3585,rock_grid_rect_2,1,11,-1,-1,1.358,0.187310927,-0.233175863,1,0,0,2.6234,Diorite_rect,3,2.623,0,5,0,5,0,1,,,,,,,,,,,,,
655f907c54cc7835ee7b0daa,TCN,2024-06-24_17h32.50.841,LearnStrategy,2023.2.3,MacIntel,59.88023952,2,1,7,0.052366808,-0.006042921,1,0,0,1.9587,rock_grid_rect_2,7,04,-1,-1,1.959,0.382830811,-0.24787184,1,0,0,4.3813,Gabbro_rect,4,4.381,0,6,0,6,0,1,,,,,,,,,,,,,
655f907c54cc7835ee7b0daa,TCN,2024-06-24_17h32.50.841,LearnStrategy,2023.2.3,MacIntel,59.88023952,2,1,8,0.13263638,-0.003132765,1,0,0,1.4286,rock_grid_rect_2,4,05,-1,-1,1.429,-0.359765489,-0.250305311,1,0,0,3.7535,Andesite_rect,1,3.754,0,7,0,7,0,1,,,,,,,,,,,,,
655f907c54cc7835ee7b0daa,TCN,2024-06-24_17h32.50.841,LearnStrategy,2023.2.3,MacIntel,59.88023952,2,1,9,0.134551053,0.004768032,1,0,0,1.157,rock_grid_rect_2,1,03,-1,-1,1.157,0.212682834,-0.257904595,1,0,0,5.1855,Diorite_rect,3,5.185,0,8,0,8,0,1,,,,,,,,,,,,,
655f907c54cc7835ee7b0daa,TCN,2024-06-24_17h32.50.841,LearnStrategy,2023.2.3,MacIntel,59.88023952,2,1,10,0.03314365,0.012085503,1,0,0,1.1411,rock_grid_rect_2,5,12,-1,-1,1.141,-0.357451613,-0.393122898,1,0,0,1.5197,Obsidian_rect,5,1.52,1,9,0,9,0,1,,,,,,,,,,,,,
655f907c54cc7835ee7b0daa,TCN,2024-06-24_17h32.50.841,LearnStrategy,2023.2.3,MacIntel,59.88023952,2,1,11,0.071538289,-0.023244493,1,0,0,1.081,rock_grid_rect_2,3,06,-1,-1,1.081,0.17111613,-0.228081936,1,0,0,3.4947,Diorite_rect,3,3.495,1,10,0,10,0,1,,,,,,,,,,,,,
655f907c54cc7835ee7b0daa,TCN,2024-06-24_17h32.50.841,LearnStrategy,2023.2.3,MacIntel,59.88023952,2,1,12,0.098083767,0.021378038,1,0,0,1.013,rock_grid_rect_2,6,08,-1,-1,1.013,-0.396195441,-0.259408637,1,0,0,5.1171,Andesite_rect,1,5.117,0,11,0,11,0,1,,,,,,,,,,,,,
655f907c54cc7835ee7b0daa,TCN,2024-06-24_17h32.50.841,LearnStrategy,2023.2.3,MacIntel,59.88023952,2,1,13,0.068660143,-0.006767103,1,0,0,1.0777,rock_grid_rect_2,2,11,-1,-1,1.078,0.326749403,-0.252844103,1,0,0,3.8324,Gabbro_rect,4,3.832,0,12,0,12,0,1,,,,,,,,,,,,,
655f907c54cc7835ee7b0daa,TCN,2024-06-24_17h32.50.841,LearnStrategy,2023.2.3,MacIntel,59.88023952,2,1,14,0.076188965,0.006411336,1,0,0,0.9746,rock_grid_rect_2,5,06,-1,-1,0.975,-0.391588711,-0.404631076,1,0,0,2.8574,Obsidian_rect,5,2.857,1,13,0,13,0,1,,,,,,,,,,,,,
655f907c54cc7835ee7b0daa,TCN,2024-06-24_17h32.50.841,LearnStrategy,2023.2.3,MacIntel,59.88023952,2,1,15,0.042525499,0.011150513,1,0,0,1.2783,rock_grid_rect_2,3,10,-1,-1,1.278,0.196859063,-0.256216634,1,0,0,4.5734,Diorite_rect,3,4.573,1,14,0,14,0,1,,,,,,,,,,,,,
655f907c54cc7835ee7b0daa,TCN,2024-06-24_17h32.50.841,LearnStrategy,2023.2.3,MacIntel,59.88023952,2,1,16,0.102297702,-0.016200019,1,0,0,0.9175,rock_grid_rect_2,4,14,-1,-1,0.918,-0.341737264,-0.258986884,1,0,0,4.8226,Andesite_rect,1,4.823,0,15,0,15,0,1,,,,,,,,,,,,,
655f907c54cc7835ee7b0daa,TCN,2024-06-24_17h32.50.841,LearnStrategy,2023.2.3,MacIntel,59.88023952,2,2,1,,,,,,,,1,01,,,,,,,,,,,2,5.421,0,,,,,,-0.089318915,-0.259304131,1,0,0,5.421,Basalt_rect,0,0,0,0,1,
655f907c54cc7835ee7b0daa,TCN,2024-06-24_17h32.50.841,LearnStrategy,2023.2.3,MacIntel,59.88023952,2,2,2,,,,,,,,2,12,,,,,,,,,,,8,1.763,0,,,,,,0.402766791,-0.398559163,1,0,0,1.7633,Pumice_rect,1,0,1,0,1,
655f907c54cc7835ee7b0daa,TCN,2024-06-24_17h32.50.841,LearnStrategy,2023.2.3,MacIntel,59.88023952,2,2,3,,,,,,,,8,06,,,,,,,,,,,8,0.88,1,,,,,,0.402766791,-0.398559163,1,0,0,0.8799,Pumice_rect,2,0,2,0,1,
655f907c54cc7835ee7b0daa,TCN,2024-06-24_17h32.50.841,LearnStrategy,2023.2.3,MacIntel,59.88023952,2,2,4,,,,,,,,7,05,,,,,,,,,,,7,2.044,1,,,,,,0.146817627,-0.400312636,1,0,0,2.0438,Peridotite_rect,3,0,3,0,1,
655f907c54cc7835ee7b0daa,TCN,2024-06-24_17h32.50.841,LearnStrategy,2023.2.3,MacIntel,59.88023952,2,2,5,,,,,,,,1,07,,,,,,,,,,,3,5.648,0,,,,,,0.141409234,-0.251619602,1,0,0,5.6481,Diorite_rect,4,0,4,0,1,
655f907c54cc7835ee7b0daa,TCN,2024-06-24_17h32.50.841,LearnStrategy,2023.2.3,MacIntel,59.88023952,2,2,6,,,,,,,,7,12,,,,,,,,,,,6,3.098,0,,,,,,-0.150613064,-0.398864339,1,0,0,3.0975,Pegmatite_rect,5,0,5,0,1,
655f907c54cc7835ee7b0daa,TCN,2024-06-24_17h32.50.841,LearnStrategy,2023.2.3,MacIntel,59.88023952,2,2,7,,,,,,,,5,04,,,,,,,,,,,5,1.086,1,,,,,,-0.341757406,-0.387391968,1,0,0,1.0856,Obsidian_rect,6,0,6,0,1,
655f907c54cc7835ee7b0daa,TCN,2024-06-24_17h32.50.841,LearnStrategy,2023.2.3,MacIntel,59.88023952,2,2,8,,,,,,,,3,15,,,,,,,,,,,1,3.153,0,,,,,,-0.372355923,-0.239350925,1,0,0,3.1526,Andesite_rect,7,0,7,0,1,
655f907c54cc7835ee7b0daa,TCN,2024-06-24_17h32.50.841,LearnStrategy,2023.2.3,MacIntel,59.88023952,2,2,9,,,,,,,,4,10,,,,,,,,,,,2,2.259,0,,,,,,-0.119168091,-0.252996487,1,0,0,2.2587,Basalt_rect,8,0,8,0,1,
655f907c54cc7835ee7b0daa,TCN,2024-06-24_17h32.50.841,LearnStrategy,2023.2.3,MacIntel,59.88023952,2,2,10,,,,,,,,8,16,,,,,,,,,,,8,3.157,1,,,,,,0.365012885,-0.399325833,1,0,0,3.1573,Pumice_rect,9,0,9,0,1,
655f907c54cc7835ee7b0daa,TCN,2024-06-24_17h32.50.841,LearnStrategy,2023.2.3,MacIntel,59.88023952,2,2,11,,,,,,,,2,08,,,,,,,,,,,2,2.22,1,,,,,,-0.1013876,-0.246298082,1,0,0,2.2198,Basalt_rect,10,0,10,0,1,
655f907c54cc7835ee7b0daa,TCN,2024-06-24_17h32.50.841,LearnStrategy,2023.2.3,MacIntel,59.88023952,2,2,12,,,,,,,,3,16,,,,,,,,,,,3,3.139,1,,,,,,0.179091729,-0.243630439,1,0,0,3.1394,Diorite_rect,11,0,11,0,1,
655f907c54cc7835ee7b0daa,TCN,2024-06-24_17h32.50.841,LearnStrategy,2023.2.3,MacIntel,59.88023952,2,2,13,,,,,,,,6,16,,,,,,,,,,,4,5.433,0,,,,,,0.371745199,-0.246849976,1,0,0,5.4328,Gabbro_rect,12,0,12,0,1,
655f907c54cc7835ee7b0daa,TCN,2024-06-24_17h32.50.841,LearnStrategy,2023.2.3,MacIntel,59.88023952,2,2,14,,,,,,,,6,13,,,,,,,,,,,1,2.136,0,,,,,,-0.410485602,-0.239583198,1,0,0,2.1361,Andesite_rect,13,0,13,0,1,
655f907c54cc7835ee7b0daa,TCN,2024-06-24_17h32.50.841,LearnStrategy,2023.2.3,MacIntel,59.88023952,2,2,15,,,,,,,,4,15,,,,,,,,,,,1,1.025,0,,,,,,-0.409930047,-0.239583198,1,0,0,1.0255,Andesite_rect,14,0,14,0,1,
655f907c54cc7835ee7b0daa,TCN,2024-06-24_17h32.50.841,LearnStrategy,2023.2.3,MacIntel,59.88023952,2,2,16,,,,,,,,5,05,,,,,,,,,,,5,1.297,1,,,,,,-0.384405043,-0.401700846,1,0,0,1.2972,Obsidian_rect,15,0,15,0,1,
655f907c54cc7835ee7b0daa,TCN,2024-06-24_17h32.50.841,LearnStrategy,2023.2.3,MacIntel,59.88023952,3,1,1,0.015899387,0.014550781,1,0,0,1.2266,rock_grid_rect_2,6,11,-1,-1,1.227,-0.32973504,-0.269086236,1,0,0,4.5425,Andesite_rect,1,4.543,0,0,0,0,0,1,,,,,,,,,,,,,
655f907c54cc7835ee7b0daa,TCN,2024-06-24_17h32.50.841,LearnStrategy,2023.2.3,MacIntel,59.88023952,3,1,2,0.025728963,-0.002567613,1,0,0,1.2042,rock_grid_rect_2,4,01,-1,-1,1.204,0.36728597,-0.238650716,1,0,0,2.84,Gabbro_rect,4,2.84,1,1,0,1,0,1,,,,,,,,,,,,,
655f907c54cc7835ee7b0daa,TCN,2024-06-24_17h32.50.841,LearnStrategy,2023.2.3,MacIntel,59.88023952,3,1,3,0.004292263,-0.012824131,1,0,0,1.0774,rock_grid_rect_2,1,05,-1,-1,1.077,0.089227905,-0.245252414,1,0,0,1.9555,Diorite_rect,3,1.956,0,2,0,2,0,1,,,,,,,,,,,,,
655f907c54cc7835ee7b0daa,TCN,2024-06-24_17h32.50.841,LearnStrategy,2023.2.3,MacIntel,59.88023952,3,1,4,0.052579617,-0.011827664,1,0,0,1.0611,rock_grid_rect_2,6,07,-1,-1,1.061,-0.144420234,-0.382955594,1,0,0,4.0764,Pegmatite_rect,6,4.076,1,3,0,3,0,1,,,,,,,,,,,,,
655f907c54cc7835ee7b0daa,TCN,2024-06-24_17h32.50.841,LearnStrategy,2023.2.3,MacIntel,59.88023952,3,1,5,0.054833306,-0.006092394,1,0,0,1.0292,rock_grid_rect_2,1,14,-1,-1,1.029,0.171462538,-0.267274916,1,0,0,2.026,Diorite_rect,3,2.026,0,4,0,4,0,1,,,,,,,,,,,,,
655f907c54cc7835ee7b0daa,TCN,2024-06-24_17h32.50.841,LearnStrategy,2023.2.3,MacIntel,59.88023952,3,1,6,0.076621297,-0.009120755,1,0,0,1.4108,rock_grid_rect_2,7,02,-1,-1,1.411,0.099202067,-0.413856744,1,0,0,6.771,Peridotite_rect,7,6.771,1,5,0,5,0,1,,,,,,,,,,,,,
655f907c54cc7835ee7b0daa,TCN,2024-06-24_17h32.50.841,LearnStrategy,2023.2.3,MacIntel,59.88023952,3,1,7,0.079808892,0.010442912,1,0,0,1.1516,rock_grid_rect_2,3,07,-1,-1,1.152,0.141192898,-0.250200806,1,0,0,8.2226,Diorite_rect,3,8.223,1,6,0,6,0,1,,,,,,,,,,,,,
655f907c54cc7835ee7b0daa,TCN,2024-06-24_17h32.50.841,LearnStrategy,2023.2.3,MacIntel,59.88023952,3,1,8,0.022886895,-0.003287591,1,0,0,1.0911,rock_grid_rect_2,8,05,-1,-1,1.091,0.370187174,-0.387502306,1,0,0,1.5444,Pumice_rect,8,1.544,1,7,0,7,0,1,,,,,,,,,,,,,
655f907c54cc7835ee7b0daa,TCN,2024-06-24_17h32.50.841,LearnStrategy,2023.2.3,MacIntel,59.88023952,3,1,9,0.022274645,-0.002827081,1,0,0,1.1308,rock_grid_rect_2,2,14,-1,-1,1.131,0.426193169,-0.259156833,1,0,0,3.843,Gabbro_rect,4,3.843,0,8,0,8,0,1,,,,,,,,,,,,,
655f907c54cc7835ee7b0daa,TCN,2024-06-24_17h32.50.841,LearnStrategy,2023.2.3,MacIntel,59.88023952,3,1,10,-0.002686293,-0.004616699,1,0,0,1.2595,rock_grid_rect_2,7,07,-1,-1,1.26,-0.141982761,-0.403301324,1,0,0,2.6622,Pegmatite_rect,6,2.662,0,9,0,9,0,1,,,,,,,,,,,,,
655f907c54cc7835ee7b0daa,TCN,2024-06-24_17h32.50.841,LearnStrategy,2023.2.3,MacIntel,59.88023952,3,1,11,0.074452515,-0.018084717,1,0,0,3.3043,rock_grid_rect_2,8,03,-1,-1,3.304,0.383368462,-0.408991835,1,0,0,1.6211,Pumice_rect,8,1.621,1,10,0,10,0,1,,,,,,,,,,,,,
655f907c54cc7835ee7b0daa,TCN,2024-06-24_17h32.50.841,LearnStrategy,2023.2.3,MacIntel,59.88023952,3,1,12,0.118019884,0.002241753,1,0,0,0.8981,rock_grid_rect_2,3,02,-1,-1,0.898,0.182228665,-0.269561564,1,0,0,1.373,Diorite_rect,3,1.373,1,11,0,11,0,1,,,,,,,,,,,,,
655f907c54cc7835ee7b0daa,TCN,2024-06-24_17h32.50.841,LearnStrategy,2023.2.3,MacIntel,59.88023952,3,1,13,0.106761,0.004854533,1,0,0,0.9264,rock_grid_rect_2,5,08,-1,-1,0.926,-0.348812832,-0.40833218,1,0,0,1.0784,Obsidian_rect,5,1.078,1,12,0,12,0,1,,,,,,,,,,,,,
655f907c54cc7835ee7b0daa,TCN,2024-06-24_17h32.50.841,LearnStrategy,2023.2.3,MacIntel,59.88023952,3,1,14,0.113948025,0.000556539,1,0,0,6.8454,rock_grid_rect_2,4,03,-1,-1,6.845,-0.39134769,-0.268389214,1,0,0,4.5232,Andesite_rect,1,4.523,0,13,0,13,0,1,,,,,,,,,,,,,
655f907c54cc7835ee7b0daa,TCN,2024-06-24_17h32.50.841,LearnStrategy,2023.2.3,MacIntel,59.88023952,3,1,15,-3.9605E-05,0.015956217,1,0,0,0.8614,rock_grid_rect_2,5,14,-1,-1,0.861,-0.366030477,-0.382584975,1,0,0,1.1756,Obsidian_rect,5,1.176,1,14,0,14,0,1,,,,,,,,,,,,,
655f907c54cc7835ee7b0daa,TCN,2024-06-24_17h32.50.841,LearnStrategy,2023.2.3,MacIntel,59.88023952,3,1,16,0.030928277,0.01376492,1,0,0,0.8782,rock_grid_rect_2,2,01,-1,-1,0.878,-0.097644246,-0.260650974,1,0,0,1.4263,Basalt_rect,2,1.426,1,15,0,15,0,1,,,,,,,,,,,,,
655f907c54cc7835ee7b0daa,TCN,2024-06-24_17h32.50.841,LearnStrategy,2023.2.3,MacIntel,59.88023952,3,2,1,,,,,,,,3,11,,,,,,,,,,,3,1.732,1,,,,,,0.171710273,-0.240417277,1,0,0,1.7316,Diorite_rect,0,0,0,0,1,
655f907c54cc7835ee7b0daa,TCN,2024-06-24_17h32.50.841,LearnStrategy,2023.2.3,MacIntel,59.88023952,3,2,2,,,,,,,,1,10,,,,,,,,,,,1,6.661,1,,,,,,-0.374886034,-0.24092726,1,0,0,6.6613,Andesite_rect,1,0,1,0,1,
655f907c54cc7835ee7b0daa,TCN,2024-06-24_17h32.50.841,LearnStrategy,2023.2.3,MacIntel,59.88023952,3,2,3,,,,,,,,6,06,,,,,,,,,,,4,2.413,0,,,,,,0.444943305,-0.258825819,1,0,0,2.4135,Gabbro_rect,2,0,2,0,1,
655f907c54cc7835ee7b0daa,TCN,2024-06-24_17h32.50.841,LearnStrategy,2023.2.3,MacIntel,59.88023952,3,2,4,,,,,,,,2,09,,,,,,,,,,,2,2.208,1,,,,,,-0.102081841,-0.23697876,1,0,0,2.2076,Basalt_rect,3,0,3,0,1,
655f907c54cc7835ee7b0daa,TCN,2024-06-24_17h32.50.841,LearnStrategy,2023.2.3,MacIntel,59.88023952,3,2,5,,,,,,,,5,10,,,,,,,,,,,5,1.032,1,,,,,,-0.362875841,-0.396075372,1,0,0,1.0324,Obsidian_rect,4,0,4,0,1,
655f907c54cc7835ee7b0daa,TCN,2024-06-24_17h32.50.841,LearnStrategy,2023.2.3,MacIntel,59.88023952,3,2,6,,,,,,,,8,10,,,,,,,,,,,8,1.171,1,,,,,,0.411194661,-0.407253757,1,0,0,1.1707,Pumice_rect,5,0,5,0,1,
655f907c54cc7835ee7b0daa,TCN,2024-06-24_17h32.50.841,LearnStrategy,2023.2.3,MacIntel,59.88023952,3,2,7,,,,,,,,2,10,,,,,,,,,,,2,3.68,1,,,,,,-0.117888116,-0.257270372,1,0,0,3.6803,Basalt_rect,6,0,6,0,1,
655f907c54cc7835ee7b0daa,TCN,2024-06-24_17h32.50.841,LearnStrategy,2023.2.3,MacIntel,59.88023952,3,2,8,,,,,,,,1,06,,,,,,,,,,,3,1.424,0,,,,,,0.164895087,-0.239883084,1,0,0,1.4236,Diorite_rect,7,0,7,0,1,
655f907c54cc7835ee7b0daa,TCN,2024-06-24_17h32.50.841,LearnStrategy,2023.2.3,MacIntel,59.88023952,3,2,9,,,,,,,,8,13,,,,,,,,,,,4,5.739,0,,,,,,0.408510607,-0.255700005,1,0,0,5.739,Gabbro_rect,8,0,8,0,1,
655f907c54cc7835ee7b0daa,TCN,2024-06-24_17h32.50.841,LearnStrategy,2023.2.3,MacIntel,59.88023952,3,2,10,,,,,,,,6,12,,,,,,,,,,,3,4.096,0,,,,,,0.123697849,-0.262556898,1,0,0,4.0957,Diorite_rect,9,0,9,0,1,
655f907c54cc7835ee7b0daa,TCN,2024-06-24_17h32.50.841,LearnStrategy,2023.2.3,MacIntel,59.88023952,3,2,11,,,,,,,,4,16,,,,,,,,,,,4,6.407,1,,,,,,0.45799018,-0.244317966,1,0,0,6.4074,Gabbro_rect,10,0,10,0,1,
655f907c54cc7835ee7b0daa,TCN,2024-06-24_17h32.50.841,LearnStrategy,2023.2.3,MacIntel,59.88023952,3,2,12,,,,,,,,3,14,,,,,,,,,,,3,1.689,1,,,,,,0.173883396,-0.257378269,1,0,0,1.6895,Diorite_rect,11,0,11,0,1,
655f907c54cc7835ee7b0daa,TCN,2024-06-24_17h32.50.841,LearnStrategy,2023.2.3,MacIntel,59.88023952,3,2,13,,,,,,,,5,07,,,,,,,,,,,5,1.444,1,,,,,,-0.361916267,-0.393591851,1,0,0,1.4442,Obsidian_rect,12,0,12,0,1,
655f907c54cc7835ee7b0daa,TCN,2024-06-24_17h32.50.841,LearnStrategy,2023.2.3,MacIntel,59.88023952,3,2,14,,,,,,,,4,08,,,,,,,,,,,6,11.272,0,,,,,,-0.087492811,-0.409779053,1,0,0,11.2723,Pegmatite_rect,13,0,13,0,1,
655f907c54cc7835ee7b0daa,TCN,2024-06-24_17h32.50.841,LearnStrategy,2023.2.3,MacIntel,59.88023952,3,2,15,,,,,,,,7,06,,,,,,,,,,,7,2.174,1,,,,,,0.101943495,-0.419253472,1,0,0,2.1743,Peridotite_rect,14,0,14,0,1,
655f907c54cc7835ee7b0daa,TCN,2024-06-24_17h32.50.841,LearnStrategy,2023.2.3,MacIntel,59.88023952,3,2,16,,,,,,,,7,15,,,,,,,,,,,7,1.363,1,,,,,,0.116782769,-0.411360135,1,0,0,1.3626,Peridotite_rect,15,0,15,0,1,
655f907c54cc7835ee7b0daa,TCN,2024-06-24_17h32.50.841,LearnStrategy,2023.2.3,MacIntel,59.88023952,4,1,1,0.040663995,-0.000463799,1,0,0,1.1782,rock_grid_rect_2,3,10,-1,-1,1.178,0.162588298,-0.252504408,1,0,0,2.299,Diorite_rect,3,2.299,1,0,0,0,0,1,,,,,,,,,,,,,
655f907c54cc7835ee7b0daa,TCN,2024-06-24_17h32.50.841,LearnStrategy,2023.2.3,MacIntel,59.88023952,4,1,2,0.106582031,-0.00315623,1,0,0,0.9258,rock_grid_rect_2,3,06,-1,-1,0.926,0.154903768,-0.259289958,1,0,0,1.6618,Diorite_rect,3,1.662,1,1,0,1,0,1,,,,,,,,,,,,,
655f907c54cc7835ee7b0daa,TCN,2024-06-24_17h32.50.841,LearnStrategy,2023.2.3,MacIntel,59.88023952,4,1,3,0.108385959,-0.0135869,1,0,0,0.9129,rock_grid_rect_2,6,10,-1,-1,0.913,0.126471151,-0.41164605,1,0,0,1.4049,Peridotite_rect,7,1.405,0,2,0,2,0,1,,,,,,,,,,,,,
655f907c54cc7835ee7b0daa,TCN,2024-06-24_17h32.50.841,LearnStrategy,2023.2.3,MacIntel,59.88023952,4,1,4,0.052357178,-0.012751363,1,0,0,1.2072,rock_grid_rect_2,4,09,-1,-1,1.207,-0.337174072,-0.255597331,1,0,0,7.4441,Andesite_rect,1,7.444,0,3,0,3,0,1,,,,,,,,,,,,,
655f907c54cc7835ee7b0daa,TCN,2024-06-24_17h32.50.841,LearnStrategy,2023.2.3,MacIntel,59.88023952,4,1,5,0.029177517,-0.007349718,1,0,0,2.0628,rock_grid_rect_2,7,02,-1,-1,2.063,0.148505927,-0.405706109,1,0,0,1.8535,Peridotite_rect,7,1.853,1,4,0,4,0,1,,,,,,,,,,,,,
655f907c54cc7835ee7b0daa,TCN,2024-06-24_17h32.50.841,LearnStrategy,2023.2.3,MacIntel,59.88023952,4,1,6,0.094095323,-0.012087097,1,0,0,1.0952,rock_grid_rect_2,8,04,-1,-1,1.095,0.415687934,-0.3961124,1,0,0,1.2019,Pumice_rect,8,1.202,1,5,0,5,0,1,,,,,,,,,,,,,
655f907c54cc7835ee7b0daa,TCN,2024-06-24_17h32.50.841,LearnStrategy,2023.2.3,MacIntel,59.88023952,4,1,7,0.091512926,-0.009219699,1,0,0,1.0623,rock_grid_rect_2,1,14,-1,-1,1.062,0.103393487,-0.254105903,1,0,0,2.9795,Diorite_rect,3,2.979,0,6,0,6,0,1,,,,,,,,,,,,,
655f907c54cc7835ee7b0daa,TCN,2024-06-24_17h32.50.841,LearnStrategy,2023.2.3,MacIntel,59.88023952,4,1,8,0.001831258,0.013098653,1,0,0,1.2122,rock_grid_rect_2,5,12,-1,-1,1.212,-0.375459357,-0.406339044,1,0,0,1.0482,Obsidian_rect,5,1.048,1,7,0,7,0,1,,,,,,,,,,,,,
655f907c54cc7835ee7b0daa,TCN,2024-06-24_17h32.50.841,LearnStrategy,2023.2.3,MacIntel,59.88023952,4,1,9,0.023299764,0.012672628,1,0,0,0.9529,rock_grid_rect_2,2,14,-1,-1,0.953,0.357248942,-0.244772407,1,0,0,3.2619,Gabbro_rect,4,3.262,0,8,0,8,0,1,,,,,,,,,,,,,
655f907c54cc7835ee7b0daa,TCN,2024-06-24_17h32.50.841,LearnStrategy,2023.2.3,MacIntel,59.88023952,4,1,10,0.039027846,-0.005907084,1,0,0,0.9276,rock_grid_rect_2,1,03,-1,-1,0.928,-0.366367391,-0.250031738,1,0,0,2.144,Andesite_rect,1,2.144,1,9,0,9,0,1,,,,,,,,,,,,,
655f907c54cc7835ee7b0daa,TCN,2024-06-24_17h32.50.841,LearnStrategy,2023.2.3,MacIntel,59.88023952,4,1,11,0.010847914,0.007904833,1,0,0,1.1264,rock_grid_rect_2,8,14,-1,-1,1.126,0.378680013,-0.420456543,1,0,0,1.2034,Pumice_rect,8,1.203,1,10,0,10,0,1,,,,,,,,,,,,,
655f907c54cc7835ee7b0daa,TCN,2024-06-24_17h32.50.841,LearnStrategy,2023.2.3,MacIntel,59.88023952,4,1,12,0.082062785,-0.009821133,1,0,0,0.973,rock_grid_rect_2,6,11,-1,-1,0.973,-0.189060059,-0.404840088,1,0,0,2.4278,Pegmatite_rect,6,2.428,1,11,0,11,0,1,,,,,,,,,,,,,
655f907c54cc7835ee7b0daa,TCN,2024-06-24_17h32.50.841,LearnStrategy,2023.2.3,MacIntel,59.88023952,4,1,13,0.019046292,-0.000882263,1,0,0,1.0991,rock_grid_rect_2,4,03,-1,-1,1.099,-0.402687412,-0.243788113,1,0,0,15.7049,Andesite_rect,1,15.705,0,12,0,12,0,1,,,,,,,,,,,,,
655f907c54cc7835ee7b0daa,TCN,2024-06-24_17h32.50.841,LearnStrategy,2023.2.3,MacIntel,59.88023952,4,1,14,0.019384766,0.000471157,1,0,0,0.8138,rock_grid_rect_2,7,08,-1,-1,0.814,-0.092643907,-0.386544732,1,0,0,2.1096,Pegmatite_rect,6,2.11,0,13,0,13,0,1,,,,,,,,,,,,,
655f907c54cc7835ee7b0daa,TCN,2024-06-24_17h32.50.841,LearnStrategy,2023.2.3,MacIntel,59.88023952,4,1,15,0.117455241,-0.015686273,1,0,0,1.0319,rock_grid_rect_2,2,05,-1,-1,1.032,-0.132719455,-0.244768948,1,0,0,1.1258,Basalt_rect,2,1.126,1,14,0,14,0,1,,,,,,,,,,,,,
655f907c54cc7835ee7b0daa,TCN,2024-06-24_17h32.50.841,LearnStrategy,2023.2.3,MacIntel,59.88023952,4,1,16,0.041589559,0.007300144,1,0,0,1.0139,rock_grid_rect_2,5,14,-1,-1,1.014,-0.408479818,-0.412117581,1,0,0,1.2963,Obsidian_rect,5,1.296,1,15,0,15,0,1,,,,,,,,,,,,,
655f907c54cc7835ee7b0daa,TCN,2024-06-24_17h32.50.841,LearnStrategy,2023.2.3,MacIntel,59.88023952,4,2,1,,,,,,,,8,10,,,,,,,,,,,8,1.426,1,,,,,,0.434771593,-0.396101888,1,0,0,1.4264,Pumice_rect,0,0,0,0,1,
655f907c54cc7835ee7b0daa,TCN,2024-06-24_17h32.50.841,LearnStrategy,2023.2.3,MacIntel,59.88023952,4,2,2,,,,,,,,8,16,,,,,,,,,,,2,4.024,0,,,,,,-0.089922689,-0.259221056,1,0,0,4.0243,Basalt_rect,1,0,1,0,1,
655f907c54cc7835ee7b0daa,TCN,2024-06-24_17h32.50.841,LearnStrategy,2023.2.3,MacIntel,59.88023952,4,2,3,,,,,,,,3,09,,,,,,,,,,,3,1.195,1,,,,,,0.127089572,-0.261988593,1,0,0,1.1947,Diorite_rect,2,0,2,0,1,
655f907c54cc7835ee7b0daa,TCN,2024-06-24_17h32.50.841,LearnStrategy,2023.2.3,MacIntel,59.88023952,4,2,4,,,,,,,,1,01,,,,,,,,,,,4,4.199,0,,,,,,0.39949056,-0.248257785,1,0,0,4.1992,Gabbro_rect,3,0,3,0,1,
655f907c54cc7835ee7b0daa,TCN,2024-06-24_17h32.50.841,LearnStrategy,2023.2.3,MacIntel,59.88023952,4,2,5,,,,,,,,7,05,,,,,,,,,,,6,2.762,0,,,,,,-0.167933214,-0.407879571,1,0,0,2.762,Pegmatite_rect,4,0,4,0,1,
655f907c54cc7835ee7b0daa,TCN,2024-06-24_17h32.50.841,LearnStrategy,2023.2.3,MacIntel,59.88023952,4,2,6,,,,,,,,4,10,,,,,,,,,,,2,4.804,0,,,,,,-0.102252672,-0.26285414,1,0,0,4.8045,Basalt_rect,5,0,5,0,1,
655f907c54cc7835ee7b0daa,TCN,2024-06-24_17h32.50.841,LearnStrategy,2023.2.3,MacIntel,59.88023952,4,2,7,,,,,,,,4,13,,,,,,,,,,,1,3.176,0,,,,,,-0.357772997,-0.252908596,1,0,0,3.1756,Andesite_rect,6,0,6,0,1,
655f907c54cc7835ee7b0daa,TCN,2024-06-24_17h32.50.841,LearnStrategy,2023.2.3,MacIntel,59.88023952,4,2,8,,,,,,,,3,13,,,,,,,,,,,3,1.404,1,,,,,,0.124651421,-0.246074693,1,0,0,1.4038,Diorite_rect,7,0,7,0,1,
655f907c54cc7835ee7b0daa,TCN,2024-06-24_17h32.50.841,LearnStrategy,2023.2.3,MacIntel,59.88023952,4,2,9,,,,,,,,2,12,,,,,,,,,,,8,1.578,0,,,,,,0.389673665,-0.401708035,1,0,0,1.5777,Pumice_rect,8,0,8,0,1,
655f907c54cc7835ee7b0daa,TCN,2024-06-24_17h32.50.841,LearnStrategy,2023.2.3,MacIntel,59.88023952,4,2,10,,,,,,,,5,04,,,,,,,,,,,5,1.095,1,,,,,,-0.42387302,-0.401216498,1,0,0,1.0945,Obsidian_rect,9,0,9,0,1,
655f907c54cc7835ee7b0daa,TCN,2024-06-24_17h32.50.841,LearnStrategy,2023.2.3,MacIntel,59.88023952,4,2,11,,,,,,,,6,03,,,,,,,,,,,7,4.075,0,,,,,,0.131658461,-0.393704563,1,0,0,4.0752,Peridotite_rect,10,0,10,0,1,
655f907c54cc7835ee7b0daa,TCN,2024-06-24_17h32.50.841,LearnStrategy,2023.2.3,MacIntel,59.88023952,4,2,12,,,,,,,,7,06,,,,,,,,,,,6,1.663,0,,,,,,-0.132547268,-0.399818793,1,0,0,1.663,Pegmatite_rect,11,0,11,0,1,
655f907c54cc7835ee7b0daa,TCN,2024-06-24_17h32.50.841,LearnStrategy,2023.2.3,MacIntel,59.88023952,4,2,13,,,,,,,,5,09,,,,,,,,,,,5,0.996,1,,,,,,-0.409380934,-0.41149448,1,0,0,0.9961,Obsidian_rect,12,0,12,0,1,
655f907c54cc7835ee7b0daa,TCN,2024-06-24_17h32.50.841,LearnStrategy,2023.2.3,MacIntel,59.88023952,4,2,14,,,,,,,,1,02,,,,,,,,,,,1,4.256,1,,,,,,-0.366170485,-0.253140191,1,0,0,4.2563,Andesite_rect,13,0,13,0,1,
655f907c54cc7835ee7b0daa,TCN,2024-06-24_17h32.50.841,LearnStrategy,2023.2.3,MacIntel,59.88023952,4,2,15,,,,,,,,2,10,,,,,,,,,,,2,1.275,1,,,,,,-0.136670058,-0.260412937,1,0,0,1.275,Basalt_rect,14,0,14,0,1,
655f907c54cc7835ee7b0daa,TCN,2024-06-24_17h32.50.841,LearnStrategy,2023.2.3,MacIntel,59.88023952,4,2,16,,,,,,,,6,16,,,,,,,,,,,4,3.628,0,,,,,,0.394141303,-0.245817871,1,0,0,3.628,Gabbro_rect,15,0,15,0,1,
655f907c54cc7835ee7b0daa,TCN,2024-06-24_17h32.50.841,LearnStrategy,2023.2.3,MacIntel,59.88023952,5,1,1,0.035957574,0.010479329,1,0,0,1.1421,rock_grid_rect_2,6,08,-1,-1,1.142,-0.191155667,-0.415644192,1,0,0,1.4513,Pegmatite_rect,6,1.451,1,0,0,0,0,1,,,,,,,,,,,,,
655f907c54cc7835ee7b0daa,TCN,2024-06-24_17h32.50.841,LearnStrategy,2023.2.3,MacIntel,59.88023952,5,1,2,0.038245171,-0.006739977,1,0,0,1.2145,rock_grid_rect_2,2,11,-1,-1,1.215,0.360920817,-0.391390991,1,0,0,1.6803,Pumice_rect,8,1.68,0,1,0,1,0,1,,,,,,,,,,,,,
655f907c54cc7835ee7b0daa,TCN,2024-06-24_17h32.50.841,LearnStrategy,2023.2.3,MacIntel,59.88023952,5,1,3,0.008506944,-0.002112257,1,0,0,1.1284,rock_grid_rect_2,5,06,-1,-1,1.128,-0.383717211,-0.41096483,1,0,0,1.0159,Obsidian_rect,5,1.016,1,2,0,2,0,1,,,,,,,,,,,,,
655f907c54cc7835ee7b0daa,TCN,2024-06-24_17h32.50.841,LearnStrategy,2023.2.3,MacIntel,59.88023952,5,1,4,0.051905585,-0.005708143,1,0,0,1.1434,rock_grid_rect_2,4,14,-1,-1,1.143,0.322804905,-0.247786051,1,0,0,3.327,Gabbro_rect,4,3.327,1,3,0,3,0,1,,,,,,,,,,,,,
655f907c54cc7835ee7b0daa,TCN,2024-06-24_17h32.50.841,LearnStrategy,2023.2.3,MacIntel,59.88023952,5,1,5,0.092187364,-0.001060045,1,0,0,0.9417,rock_grid_rect_2,1,05,-1,-1,0.942,-0.349622871,-0.24411282,1,0,0,2.2927,Andesite_rect,1,2.293,1,4,0,4,0,1,,,,,,,,,,,,,
655f907c54cc7835ee7b0daa,TCN,2024-06-24_17h32.50.841,LearnStrategy,2023.2.3,MacIntel,59.88023952,5,1,6,0.080153741,-0.008559502,1,0,0,1.0642,rock_grid_rect_2,7,14,-1,-1,1.064,-0.028047011,-0.381399061,1,0,0,2.2139,Pegmatite_rect,6,2.214,0,5,0,5,0,1,,,,,,,,,,,,,
655f907c54cc7835ee7b0daa,TCN,2024-06-24_17h32.50.841,LearnStrategy,2023.2.3,MacIntel,59.88023952,5,1,7,0.126690945,-0.021199036,1,0,0,0.9254,rock_grid_rect_2,2,04,-1,-1,0.925,-0.12867357,-0.258818495,1,0,0,1.1859,Basalt_rect,2,1.186,1,6,0,6,0,1,,,,,,,,,,,,,
655f907c54cc7835ee7b0daa,TCN,2024-06-24_17h32.50.841,LearnStrategy,2023.2.3,MacIntel,59.88023952,5,1,8,0.045911187,-0.016620687,1,0,0,0.9642,rock_grid_rect_2,8,05,-1,-1,0.964,0.367635769,-0.388147447,1,0,0,1.9608,Pumice_rect,8,1.961,1,7,0,7,0,1,,,,,,,,,,,,,
655f907c54cc7835ee7b0daa,TCN,2024-06-24_17h32.50.841,LearnStrategy,2023.2.3,MacIntel,59.88023952,5,1,9,0.05769321,-0.01216078,1,0,0,1.0285,rock_grid_rect_2,8,03,-1,-1,1.029,0.373671604,-0.405432265,1,0,0,3.3261,Pumice_rect,8,3.326,1,8,0,8,0,1,,,,,,,,,,,,,
655f907c54cc7835ee7b0daa,TCN,2024-06-24_17h32.50.841,LearnStrategy,2023.2.3,MacIntel,59.88023952,5,1,10,0.087682427,-0.00857388,1,0,0,0.8967,rock_grid_rect_2,4,11,-1,-1,0.897,0.354953749,-0.230660739,1,0,0,6.0599,Gabbro_rect,4,6.06,1,9,0,9,0,1,,,,,,,,,,,,,
655f907c54cc7835ee7b0daa,TCN,2024-06-24_17h32.50.841,LearnStrategy,2023.2.3,MacIntel,59.88023952,5,1,11,0.076594306,0.004287482,1,0,0,0.8291,rock_grid_rect_2,1,09,-1,-1,0.829,0.1276926,-0.241507704,1,0,0,1.2988,Diorite_rect,3,1.299,0,10,0,10,0,1,,,,,,,,,,,,,
655f907c54cc7835ee7b0daa,TCN,2024-06-24_17h32.50.841,LearnStrategy,2023.2.3,MacIntel,59.88023952,5,1,12,0.033290202,-0.008156535,1,0,0,0.8796,rock_grid_rect_2,6,15,-1,-1,0.88,-0.160007324,-0.409565633,1,0,0,2.1357,Pegmatite_rect,6,2.136,1,11,0,11,0,1,,,,,,,,,,,,,
655f907c54cc7835ee7b0daa,TCN,2024-06-24_17h32.50.841,LearnStrategy,2023.2.3,MacIntel,59.88023952,5,1,13,0.073621216,0.009851617,1,0,0,0.8635,rock_grid_rect_2,3,02,-1,-1,0.863,0.136090359,-0.264890272,1,0,0,1.4498,Diorite_rect,3,1.45,1,12,0,12,0,1,,,,,,,,,,,,,
655f907c54cc7835ee7b0daa,TCN,2024-06-24_17h32.50.841,LearnStrategy,2023.2.3,MacIntel,59.88023952,5,1,14,0.127498983,0.008988749,1,0,0,0.8304,rock_grid_rect_2,3,07,-1,-1,0.83,0.106021661,-0.249200846,1,0,0,1.3548,Diorite_rect,3,1.355,1,13,0,13,0,1,,,,,,,,,,,,,
655f907c54cc7835ee7b0daa,TCN,2024-06-24_17h32.50.841,LearnStrategy,2023.2.3,MacIntel,59.88023952,5,1,15,0.169019911,0.013043789,1,0,0,0.8397,rock_grid_rect_2,5,08,-1,-1,0.84,-0.333499044,-0.39971422,1,0,0,1.2324,Obsidian_rect,5,1.232,1,14,0,14,0,1,,,,,,,,,,,,,
655f907c54cc7835ee7b0daa,TCN,2024-06-24_17h32.50.841,LearnStrategy,2023.2.3,MacIntel,59.88023952,5,1,16,0.080949978,-0.00879069,1,0,0,0.8649,rock_grid_rect_2,7,07,-1,-1,0.865,0.110096436,-0.412573107,1,0,0,1.3738,Peridotite_rect,7,1.374,1,15,0,15,0,1,,,,,,,,,,,,,
655f907c54cc7835ee7b0daa,TCN,2024-06-24_17h32.50.841,LearnStrategy,2023.2.3,MacIntel,59.88023952,5,2,1,,,,,,,,1,10,,,,,,,,,,,1,5.643,1,,,,,,-0.388520949,-0.252943522,1,0,0,5.6426,Andesite_rect,0,0,0,0,1,
655f907c54cc7835ee7b0daa,TCN,2024-06-24_17h32.50.841,LearnStrategy,2023.2.3,MacIntel,59.88023952,5,2,2,,,,,,,,1,06,,,,,,,,,,,4,3.446,0,,,,,,0.398402371,-0.244330783,1,0,0,3.4459,Gabbro_rect,1,0,1,0,1,
655f907c54cc7835ee7b0daa,TCN,2024-06-24_17h32.50.841,LearnStrategy,2023.2.3,MacIntel,59.88023952,5,2,3,,,,,,,,7,16,,,,,,,,,,,7,1.279,1,,,,,,0.18428833,-0.421155396,1,0,0,1.2789,Peridotite_rect,2,0,2,0,1,
655f907c54cc7835ee7b0daa,TCN,2024-06-24_17h32.50.841,LearnStrategy,2023.2.3,MacIntel,59.88023952,5,2,4,,,,,,,,8,09,,,,,,,,,,,8,0.963,1,,,,,,0.375204536,-0.419012587,1,0,0,0.9628,Pumice_rect,3,0,3,0,1,
655f907c54cc7835ee7b0daa,TCN,2024-06-24_17h32.50.841,LearnStrategy,2023.2.3,MacIntel,59.88023952,5,2,5,,,,,,,,4,16,,,,,,,,,,,4,7.838,1,,,,,,0.400666775,-0.261931898,1,0,0,7.8379,Gabbro_rect,4,0,4,0,1,
655f907c54cc7835ee7b0daa,TCN,2024-06-24_17h32.50.841,LearnStrategy,2023.2.3,MacIntel,59.88023952,5,2,6,,,,,,,,2,16,,,,,,,,,,,2,2.511,1,,,,,,-0.06763421,-0.264228448,1,0,0,2.5111,Basalt_rect,5,0,5,0,1,
655f907c54cc7835ee7b0daa,TCN,2024-06-24_17h32.50.841,LearnStrategy,2023.2.3,MacIntel,59.88023952,5,2,7,,,,,,,,6,13,,,,,,,,,,,6,1.756,1,,,,,,-0.085533515,-0.419498834,1,0,0,1.7563,Pegmatite_rect,6,0,6,0,1,
655f907c54cc7835ee7b0daa,TCN,2024-06-24_17h32.50.841,LearnStrategy,2023.2.3,MacIntel,59.88023952,5,2,8,,,,,,,,2,09,,,,,,,,,,,2,1.129,1,,,,,,-0.089478963,-0.245282728,1,0,0,1.1286,Basalt_rect,7,0,7,0,1,
655f907c54cc7835ee7b0daa,TCN,2024-06-24_17h32.50.841,LearnStrategy,2023.2.3,MacIntel,59.88023952,5,2,9,,,,,,,,6,12,,,,,,,,,,,3,1.193,0,,,,,,0.146568468,-0.26655877,1,0,0,1.193,Diorite_rect,8,0,8,0,1,
655f907c54cc7835ee7b0daa,TCN,2024-06-24_17h32.50.841,LearnStrategy,2023.2.3,MacIntel,59.88023952,5,2,10,,,,,,,,3,11,,,,,,,,,,,1,3.66,0,,,,,,-0.319744737,-0.260858493,1,0,0,3.6602,Andesite_rect,9,0,9,0,1,
655f907c54cc7835ee7b0daa,TCN,2024-06-24_17h32.50.841,LearnStrategy,2023.2.3,MacIntel,59.88023952,5,2,11,,,,,,,,4,08,,,,,,,,,,,4,3.615,1,,,,,,0.332274916,-0.243284573,1,0,0,3.6149,Gabbro_rect,10,0,10,0,1,
655f907c54cc7835ee7b0daa,TCN,2024-06-24_17h32.50.841,LearnStrategy,2023.2.3,MacIntel,59.88023952,5,2,12,,,,,,,,3,14,,,,,,,,,,,3,0.989,1,,,,,,0.115306193,-0.246837023,1,0,0,0.9893,Diorite_rect,11,0,11,0,1,
655f907c54cc7835ee7b0daa,TCN,2024-06-24_17h32.50.841,LearnStrategy,2023.2.3,MacIntel,59.88023952,5,2,13,,,,,,,,8,06,,,,,,,,,,,8,0.991,1,,,,,,0.403863118,-0.401767646,1,0,0,0.9909,Pumice_rect,12,0,12,0,1,
655f907c54cc7835ee7b0daa,TCN,2024-06-24_17h32.50.841,LearnStrategy,2023.2.3,MacIntel,59.88023952,5,2,14,,,,,,,,5,16,,,,,,,,,,,5,0.993,1,,,,,,-0.422216254,-0.406149224,1,0,0,0.9934,Obsidian_rect,13,0,13,0,1,
655f907c54cc7835ee7b0daa,TCN,2024-06-24_17h32.50.841,LearnStrategy,2023.2.3,MacIntel,59.88023952,5,2,15,,,,,,,,7,10,,,,,,,,,,,7,1.353,1,,,,,,0.124201185,-0.382236396,1,0,0,1.3534,Peridotite_rect,14,0,14,0,1,
655f907c54cc7835ee7b0daa,TCN,2024-06-24_17h32.50.841,LearnStrategy,2023.2.3,MacIntel,59.88023952,5,2,16,,,,,,,,5,10,,,,,,,,,,,5,1.074,1,,,,,,-0.374828152,-0.390283813,1,0,0,1.074,Obsidian_rect,15,0,15,0,1,
655f907c54cc7835ee7b0daa,TCN,2024-06-24_17h32.50.841,LearnStrategy,2023.2.3,MacIntel,59.88023952,6,1,1,0.04728536,0.001849874,1,0,0,0.8317,rock_grid_rect_2,3,08,-1,-1,0.832,0.120384318,-0.256695082,1,0,0,1.4713,Diorite_rect,3,1.471,1,0,0,0,0,1,,,,,,,,,,,,,
655f907c54cc7835ee7b0daa,TCN,2024-06-24_17h32.50.841,LearnStrategy,2023.2.3,MacIntel,59.88023952,6,1,2,0.135621745,-0.011681552,1,0,0,0.8782,rock_grid_rect_2,1,11,-1,-1,0.878,-0.390957269,-0.236712986,1,0,0,1.8499,Andesite_rect,1,1.85,1,1,0,1,0,1,,,,,,,,,,,,,
655f907c54cc7835ee7b0daa,TCN,2024-06-24_17h32.50.841,LearnStrategy,2023.2.3,MacIntel,59.88023952,6,1,3,0.094659966,0.008588664,1,0,0,0.7745,rock_grid_rect_2,3,12,-1,-1,0.774,0.310767754,-0.252854275,1,0,0,6.8959,Gabbro_rect,4,6.896,0,2,0,2,0,1,,,,,,,,,,,,,
655f907c54cc7835ee7b0daa,TCN,2024-06-24_17h32.50.841,LearnStrategy,2023.2.3,MacIntel,59.88023952,6,1,4,0.087848646,-0.021346673,1,0,0,0.8115,rock_grid_rect_2,6,07,-1,-1,0.812,-0.113341268,-0.400135973,1,0,0,1.2688,Pegmatite_rect,6,1.269,1,3,0,3,0,1,,,,,,,,,,,,,
655f907c54cc7835ee7b0daa,TCN,2024-06-24_17h32.50.841,LearnStrategy,2023.2.3,MacIntel,59.88023952,6,1,5,-0.007539944,-0.024121908,1,0,0,1.0303,rock_grid_rect_2,8,15,-1,-1,1.03,0.374947917,-0.405438436,1,0,0,1.2292,Pumice_rect,8,1.229,1,4,0,4,0,1,,,,,,,,,,,,,
655f907c54cc7835ee7b0daa,TCN,2024-06-24_17h32.50.841,LearnStrategy,2023.2.3,MacIntel,59.88023952,6,1,6,0.103682522,-0.021201308,1,0,0,1.2424,rock_grid_rect_2,6,05,-1,-1,1.242,-0.346569553,-0.392317369,1,0,0,2.5932,Obsidian_rect,5,2.593,0,5,0,5,0,1,,,,,,,,,,,,,
655f907c54cc7835ee7b0daa,TCN,2024-06-24_17h32.50.841,LearnStrategy,2023.2.3,MacIntel,59.88023952,6,1,7,0.111644558,0.024410502,1,0,0,0.7623,rock_grid_rect_2,5,02,-1,-1,0.762,-0.390261637,-0.397752618,1,0,0,2.15,Obsidian_rect,5,2.15,1,6,0,6,0,1,,,,,,,,,,,,,
655f907c54cc7835ee7b0daa,TCN,2024-06-24_17h32.50.841,LearnStrategy,2023.2.3,MacIntel,59.88023952,6,1,8,0.035289714,-0.00322642,1,0,0,0.7973,rock_grid_rect_2,4,01,-1,-1,0.797,-0.162689684,-0.390741916,1,0,0,3.442,Pegmatite_rect,6,3.442,0,7,0,7,0,1,,,,,,,,,,,,,
655f907c54cc7835ee7b0daa,TCN,2024-06-24_17h32.50.841,LearnStrategy,2023.2.3,MacIntel,59.88023952,6,1,9,0.075158827,0.019123569,1,0,0,0.7607,rock_grid_rect_2,2,01,-1,-1,0.761,-0.091063639,-0.255749783,1,0,0,1.0089,Basalt_rect,2,1.009,1,8,0,8,0,1,,,,,,,,,,,,,
655f907c54cc7835ee7b0daa,TCN,2024-06-24_17h32.50.841,LearnStrategy,2023.2.3,MacIntel,59.88023952,6,1,10,0.031576809,0.006649204,1,0,0,1.1944,rock_grid_rect_2,2,02,-1,-1,1.194,-0.111574571,-0.265592448,1,0,0,1.2754,Basalt_rect,2,1.275,1,9,0,9,0,1,,,,,,,,,,,,,
655f907c54cc7835ee7b0daa,TCN,2024-06-24_17h32.50.841,LearnStrategy,2023.2.3,MacIntel,59.88023952,6,1,11,0.018101603,0.018927138,1,0,0,0.7816,rock_grid_rect_2,8,08,-1,-1,0.782,0.411492649,-0.400495063,1,0,0,2.8568,Pumice_rect,8,2.857,1,10,0,10,0,1,,,,,,,,,,,,,
655f907c54cc7835ee7b0daa,TCN,2024-06-24_17h32.50.841,LearnStrategy,2023.2.3,MacIntel,59.88023952,6,1,12,0.080735406,-0.002210965,1,0,0,0.7934,rock_grid_rect_2,7,13,-1,-1,0.793,0.132066515,-0.407793443,1,0,0,1.3654,Peridotite_rect,7,1.365,1,11,0,11,0,1,,,,,,,,,,,,,
655f907c54cc7835ee7b0daa,TCN,2024-06-24_17h32.50.841,LearnStrategy,2023.2.3,MacIntel,59.88023952,6,1,13,-0.001840685,-0.001311103,1,0,0,0.7479,rock_grid_rect_2,5,11,-1,-1,0.748,-0.405106099,-0.408177626,1,0,0,1.0796,Obsidian_rect,5,1.08,1,12,0,12,0,1,,,,,,,,,,,,,
655f907c54cc7835ee7b0daa,TCN,2024-06-24_17h32.50.841,LearnStrategy,2023.2.3,MacIntel,59.88023952,6,1,14,0.102596368,0.012890082,1,0,0,0.8427,rock_grid_rect_2,4,05,-1,-1,0.843,-0.354805637,-0.238567234,1,0,0,6.4443,Andesite_rect,1,6.444,0,13,0,13,0,1,,,,,,,,,,,,,
655f907c54cc7835ee7b0daa,TCN,2024-06-24_17h32.50.841,LearnStrategy,2023.2.3,MacIntel,59.88023952,6,1,15,0.097705824,0.00794281,1,0,0,0.7644,rock_grid_rect_2,1,04,-1,-1,0.764,-0.42149509,-0.25893792,1,0,0,2.1804,Andesite_rect,1,2.18,1,14,0,14,0,1,,,,,,,,,,,,,
655f907c54cc7835ee7b0daa,TCN,2024-06-24_17h32.50.841,LearnStrategy,2023.2.3,MacIntel,59.88023952,6,1,16,0.044309896,0.004126655,1,0,0,1.0472,rock_grid_rect_2,7,04,-1,-1,1.047,0.157020331,-0.409912448,1,0,0,2.4432,Peridotite_rect,7,2.443,1,15,0,15,0,1,,,,,,,,,,,,,
655f907c54cc7835ee7b0daa,TCN,2024-06-24_17h32.50.841,LearnStrategy,2023.2.3,MacIntel,59.88023952,6,2,1,,,,,,,,5,07,,,,,,,,,,,5,2.657,1,,,,,,-0.351965705,-0.3931859,1,0,0,2.6565,Obsidian_rect,0,0,0,0,1,
655f907c54cc7835ee7b0daa,TCN,2024-06-24_17h32.50.841,LearnStrategy,2023.2.3,MacIntel,59.88023952,6,2,2,,,,,,,,3,15,,,,,,,,,,,3,10.93,1,,,,,,0.171483154,-0.258699544,1,0,0,10.9298,Diorite_rect,1,0,1,0,1,
655f907c54cc7835ee7b0daa,TCN,2024-06-24_17h32.50.841,LearnStrategy,2023.2.3,MacIntel,59.88023952,6,2,3,,,,,,,,7,15,,,,,,,,,,,7,1.245,1,,,,,,0.139812961,-0.410438707,1,0,0,1.2451,Peridotite_rect,2,0,2,0,1,
655f907c54cc7835ee7b0daa,TCN,2024-06-24_17h32.50.841,LearnStrategy,2023.2.3,MacIntel,59.88023952,6,2,4,,,,,,,,6,06,,,,,,,,,,,6,5.959,1,,,,,,-0.131099108,-0.379948391,1,0,0,5.9586,Pegmatite_rect,3,0,3,0,1,
655f907c54cc7835ee7b0daa,TCN,2024-06-24_17h32.50.841,LearnStrategy,2023.2.3,MacIntel,59.88023952,6,2,5,,,,,,,,8,13,,,,,,,,,,,8,1.397,1,,,,,,0.384782172,-0.39695733,1,0,0,1.3971,Pumice_rect,4,0,4,0,1,
655f907c54cc7835ee7b0daa,TCN,2024-06-24_17h32.50.841,LearnStrategy,2023.2.3,MacIntel,59.88023952,6,2,6,,,,,,,,1,16,,,,,,,,,,,1,4.115,1,,,,,,-0.330344103,-0.246760457,1,0,0,4.1152,Andesite_rect,5,0,5,0,1,
655f907c54cc7835ee7b0daa,TCN,2024-06-24_17h32.50.841,LearnStrategy,2023.2.3,MacIntel,59.88023952,6,2,7,,,,,,,,2,06,,,,,,,,,,,2,1.08,1,,,,,,-0.114832628,-0.266333618,1,0,0,1.0801,Basalt_rect,6,0,6,0,1,
655f907c54cc7835ee7b0daa,TCN,2024-06-24_17h32.50.841,LearnStrategy,2023.2.3,MacIntel,59.88023952,6,2,8,,,,,,,,6,09,,,,,,,,,,,7,1.923,0,,,,,,0.087308214,-0.411631063,1,0,0,1.923,Peridotite_rect,7,0,7,0,1,
655f907c54cc7835ee7b0daa,TCN,2024-06-24_17h32.50.841,LearnStrategy,2023.2.3,MacIntel,59.88023952,6,2,9,,,,,,,,8,02,,,,,,,,,,,8,1.05,1,,,,,,0.365251872,-0.399590793,1,0,0,1.0499,Pumice_rect,8,0,8,0,1,
655f907c54cc7835ee7b0daa,TCN,2024-06-24_17h32.50.841,LearnStrategy,2023.2.3,MacIntel,59.88023952,6,2,10,,,,,,,,1,07,,,,,,,,,,,1,4.374,1,,,,,,-0.425201552,-0.259776747,1,0,0,4.3735,Andesite_rect,9,0,9,0,1,
655f907c54cc7835ee7b0daa,TCN,2024-06-24_17h32.50.841,LearnStrategy,2023.2.3,MacIntel,59.88023952,6,2,11,,,,,,,,7,12,,,,,,,,,,,7,2.315,1,,,,,,0.07785692,-0.401319851,1,0,0,2.3155,Peridotite_rect,10,0,10,0,1,
655f907c54cc7835ee7b0daa,TCN,2024-06-24_17h32.50.841,LearnStrategy,2023.2.3,MacIntel,59.88023952,6,2,12,,,,,,,,5,05,,,,,,,,,,,5,0.967,1,,,,,,-0.384277547,-0.399174127,1,0,0,0.9671,Obsidian_rect,11,0,11,0,1,
655f907c54cc7835ee7b0daa,TCN,2024-06-24_17h32.50.841,LearnStrategy,2023.2.3,MacIntel,59.88023952,6,2,13,,,,,,,,4,15,,,,,,,,,,,4,1.562,1,,,,,,0.350377197,-0.257395087,1,0,0,1.5624,Gabbro_rect,12,0,12,0,1,
655f907c54cc7835ee7b0daa,TCN,2024-06-24_17h32.50.841,LearnStrategy,2023.2.3,MacIntel,59.88023952,6,2,14,,,,,,,,3,16,,,,,,,,,,,3,2.372,1,,,,,,0.137835354,-0.256630927,1,0,0,2.3723,Diorite_rect,13,0,13,0,1,
655f907c54cc7835ee7b0daa,TCN,2024-06-24_17h32.50.841,LearnStrategy,2023.2.3,MacIntel,59.88023952,6,2,15,,,,,,,,2,08,,,,,,,,,,,2,1.546,1,,,,,,-0.111445313,-0.256472304,1,0,0,1.5457,Basalt_rect,14,0,14,0,1,
655f907c54cc7835ee7b0daa,TCN,2024-06-24_17h32.50.841,LearnStrategy,2023.2.3,MacIntel,59.88023952,6,2,16,,,,,,,,4,12,,,,,,,,,,,4,4.079,1,,,,,,0.471564535,-0.23895718,1,0,0,4.0794,Gabbro_rect,15,0,15,0,1,
655f907c54cc7835ee7b0daa,TCN,2024-06-24_17h32.50.841,LearnStrategy,2023.2.3,MacIntel,59.88023952,7,1,1,0.043261312,-0.003384196,1,0,0,1.1133,rock_grid_rect_2,8,05,-1,-1,1.113,0.362588704,-0.391699083,1,0,0,1.0768,Pumice_rect,8,1.077,1,0,0,0,0,1,,,,,,,,,,,,,
655f907c54cc7835ee7b0daa,TCN,2024-06-24_17h32.50.841,LearnStrategy,2023.2.3,MacIntel,59.88023952,7,1,2,0.100215318,-0.013771091,1,0,0,1.0418,rock_grid_rect_2,1,09,-1,-1,1.042,-0.363899943,-0.254584418,1,0,0,10.7536,Andesite_rect,1,10.754,1,1,0,1,0,1,,,,,,,,,,,,,
655f907c54cc7835ee7b0daa,TCN,2024-06-24_17h32.50.841,LearnStrategy,2023.2.3,MacIntel,59.88023952,7,1,3,0.073031345,-0.01661889,1,0,0,0.9278,rock_grid_rect_2,8,15,-1,-1,0.928,0.380275065,-0.400122002,1,0,0,1.1918,Pumice_rect,8,1.192,1,2,0,2,0,1,,,,,,,,,,,,,
655f907c54cc7835ee7b0daa,TCN,2024-06-24_17h32.50.841,LearnStrategy,2023.2.3,MacIntel,59.88023952,7,1,4,0.061133491,0.003313904,1,0,0,0.9311,rock_grid_rect_2,3,08,-1,-1,0.931,0.157931112,-0.245591702,1,0,0,1.0583,Diorite_rect,3,1.058,1,3,0,3,0,1,,,,,,,,,,,,,
655f907c54cc7835ee7b0daa,TCN,2024-06-24_17h32.50.841,LearnStrategy,2023.2.3,MacIntel,59.88023952,7,1,5,0.075095554,-0.004620429,1,0,0,0.8547,rock_grid_rect_2,2,04,-1,-1,0.855,-0.133090413,-0.258853828,1,0,0,1.049,Basalt_rect,2,1.049,1,4,0,4,0,1,,,,,,,,,,,,,
655f907c54cc7835ee7b0daa,TCN,2024-06-24_17h32.50.841,LearnStrategy,2023.2.3,MacIntel,59.88023952,7,1,6,0.022925686,-0.011866014,1,0,0,0.8871,rock_grid_rect_2,4,01,-1,-1,0.887,0.37295695,-0.253561605,1,0,0,2.6996,Gabbro_rect,4,2.7,1,5,0,5,0,1,,,,,,,,,,,,,
655f907c54cc7835ee7b0daa,TCN,2024-06-24_17h32.50.841,LearnStrategy,2023.2.3,MacIntel,59.88023952,7,1,7,0.040384047,-0.00937049,1,0,0,0.7756,rock_grid_rect_2,5,02,-1,-1,0.776,-0.417929755,-0.408950806,1,0,0,1.257,Obsidian_rect,5,1.257,1,6,0,6,0,1,,,,,,,,,,,,,
655f907c54cc7835ee7b0daa,TCN,2024-06-24_17h32.50.841,LearnStrategy,2023.2.3,MacIntel,59.88023952,7,1,8,0.09244595,0.008892008,1,0,0,0.996,rock_grid_rect_2,4,05,-1,-1,0.996,0.392386339,-0.242414415,1,0,0,5.9792,Gabbro_rect,4,5.979,1,7,0,7,0,1,,,,,,,,,,,,,
655f907c54cc7835ee7b0daa,TCN,2024-06-24_17h32.50.841,LearnStrategy,2023.2.3,MacIntel,59.88023952,7,1,9,0.099264323,0.008950433,1,0,0,0.7807,rock_grid_rect_2,3,06,-1,-1,0.781,0.126387397,-0.26573995,1,0,0,1.0615,Diorite_rect,3,1.061,1,8,0,8,0,1,,,,,,,,,,,,,
655f907c54cc7835ee7b0daa,TCN,2024-06-24_17h32.50.841,LearnStrategy,2023.2.3,MacIntel,59.88023952,7,1,10,0.044443834,0.001160007,1,0,0,0.7973,rock_grid_rect_2,6,08,-1,-1,0.797,-0.130862155,-0.40149292,1,0,0,1.5102,Pegmatite_rect,6,1.51,1,9,0,9,0,1,,,,,,,,,,,,,
655f907c54cc7835ee7b0daa,TCN,2024-06-24_17h32.50.841,LearnStrategy,2023.2.3,MacIntel,59.88023952,7,1,11,0.03517334,-0.023839959,1,0,0,0.9316,rock_grid_rect_2,7,14,-1,-1,0.932,0.132610406,-0.418231269,1,0,0,1.6941,Peridotite_rect,7,1.694,1,10,0,10,0,1,,,,,,,,,,,,,
655f907c54cc7835ee7b0daa,TCN,2024-06-24_17h32.50.841,LearnStrategy,2023.2.3,MacIntel,59.88023952,7,1,12,0.118999363,-0.014583164,1,0,0,0.8404,rock_grid_rect_2,6,15,-1,-1,0.84,-0.122652927,-0.401694404,1,0,0,1.69,Pegmatite_rect,6,1.69,1,11,0,11,0,1,,,,,,,,,,,,,
655f907c54cc7835ee7b0daa,TCN,2024-06-24_17h32.50.841,LearnStrategy,2023.2.3,MacIntel,59.88023952,7,1,13,0.048612332,0.002986891,1,0,0,0.6625,rock_grid_rect_2,5,08,-1,-1,0.662,-0.370263774,-0.404210273,1,0,0,1.9865,Obsidian_rect,5,1.986,1,12,0,12,0,1,,,,,,,,,,,,,
655f907c54cc7835ee7b0daa,TCN,2024-06-24_17h32.50.841,LearnStrategy,2023.2.3,MacIntel,59.88023952,7,1,14,0.035370348,-0.00568512,1,0,0,0.9421,rock_grid_rect_2,2,11,-1,-1,0.942,-0.108025174,-0.247160238,1,0,0,2.7006,Basalt_rect,2,2.701,1,13,0,13,0,1,,,,,,,,,,,,,
655f907c54cc7835ee7b0daa,TCN,2024-06-24_17h32.50.841,LearnStrategy,2023.2.3,MacIntel,59.88023952,7,1,15,0.044351942,0.008397285,1,0,0,0.9615,rock_grid_rect_2,1,11,-1,-1,0.961,-0.35929484,-0.254915229,1,0,0,1.7632,Andesite_rect,1,1.763,1,14,0,14,0,1,,,,,,,,,,,,,
655f907c54cc7835ee7b0daa,TCN,2024-06-24_17h32.50.841,LearnStrategy,2023.2.3,MacIntel,59.88023952,7,1,16,0.039936591,0.001761475,1,0,0,0.7253,rock_grid_rect_2,7,04,-1,-1,0.725,0.117236938,-0.387799004,1,0,0,1.3367,Peridotite_rect,7,1.337,1,15,0,15,0,1,,,,,,,,,,,,,
655f907c54cc7835ee7b0daa,TCN,2024-06-24_17h32.50.841,LearnStrategy,2023.2.3,MacIntel,59.88023952,7,2,1,,,,,,,,1,06,,,,,,,,,,,1,3.392,1,,,,,,-0.352575412,-0.247392375,1,0,0,3.3916,Andesite_rect,0,0,0,0,1,
655f907c54cc7835ee7b0daa,TCN,2024-06-24_17h32.50.841,LearnStrategy,2023.2.3,MacIntel,59.88023952,7,2,2,,,,,,,,1,02,,,,,,,,,,,4,3.698,0,,,,,,0.354248183,-0.256574436,1,0,0,3.6977,Gabbro_rect,1,0,1,0,1,
655f907c54cc7835ee7b0daa,TCN,2024-06-24_17h32.50.841,LearnStrategy,2023.2.3,MacIntel,59.88023952,7,2,3,,,,,,,,2,10,,,,,,,,,,,2,1.639,1,,,,,,-0.105827501,-0.25192749,1,0,0,1.6389,Basalt_rect,2,0,2,0,1,
655f907c54cc7835ee7b0daa,TCN,2024-06-24_17h32.50.841,LearnStrategy,2023.2.3,MacIntel,59.88023952,7,2,4,,,,,,,,2,09,,,,,,,,,,,2,2.257,1,,,,,,-0.105827501,-0.25192749,1,0,0,2.2572,Basalt_rect,3,0,3,0,1,
655f907c54cc7835ee7b0daa,TCN,2024-06-24_17h32.50.841,LearnStrategy,2023.2.3,MacIntel,59.88023952,7,2,5,,,,,,,,5,04,,,,,,,,,,,5,1.939,1,,,,,,-0.357775235,-0.402335883,1,0,0,1.9394,Obsidian_rect,4,0,4,0,1,
655f907c54cc7835ee7b0daa,TCN,2024-06-24_17h32.50.841,LearnStrategy,2023.2.3,MacIntel,59.88023952,7,2,6,,,,,,,,8,09,,,,,,,,,,,8,1.206,1,,,,,,0.414421387,-0.398950941,1,0,0,1.2062,Pumice_rect,5,0,5,0,1,
655f907c54cc7835ee7b0daa,TCN,2024-06-24_17h32.50.841,LearnStrategy,2023.2.3,MacIntel,59.88023952,7,2,7,,,,,,,,5,07,,,,,,,,,,,5,1.256,1,,,,,,-0.329227431,-0.386372477,1,0,0,1.2559,Obsidian_rect,6,0,6,0,1,
655f907c54cc7835ee7b0daa,TCN,2024-06-24_17h32.50.841,LearnStrategy,2023.2.3,MacIntel,59.88023952,7,2,8,,,,,,,,7,06,,,,,,,,,,,7,1.997,1,,,,,,0.122405124,-0.416563789,1,0,0,1.9975,Peridotite_rect,7,0,7,0,1,
655f907c54cc7835ee7b0daa,TCN,2024-06-24_17h32.50.841,LearnStrategy,2023.2.3,MacIntel,59.88023952,7,2,9,,,,,,,,6,09,,,,,,,,,,,7,1.941,0,,,,,,0.122405124,-0.416563789,1,0,0,1.9412,Peridotite_rect,8,0,8,0,1,
655f907c54cc7835ee7b0daa,TCN,2024-06-24_17h32.50.841,LearnStrategy,2023.2.3,MacIntel,59.88023952,7,2,10,,,,,,,,8,16,,,,,,,,,,,8,1.294,1,,,,,,0.37000434,-0.38910414,1,0,0,1.2937,Pumice_rect,9,0,9,0,1,
655f907c54cc7835ee7b0daa,TCN,2024-06-24_17h32.50.841,LearnStrategy,2023.2.3,MacIntel,59.88023952,7,2,11,,,,,,,,4,16,,,,,,,,,,,4,1.443,1,,,,,,0.423576389,-0.231252713,1,0,0,1.4427,Gabbro_rect,10,0,10,0,1,
655f907c54cc7835ee7b0daa,TCN,2024-06-24_17h32.50.841,LearnStrategy,2023.2.3,MacIntel,59.88023952,7,2,12,,,,,,,,7,10,,,,,,,,,,,7,1.353,1,,,,,,0.160741848,-0.407224121,1,0,0,1.3528,Peridotite_rect,11,0,11,0,1,
655f907c54cc7835ee7b0daa,TCN,2024-06-24_17h32.50.841,LearnStrategy,2023.2.3,MacIntel,59.88023952,7,2,13,,,,,,,,3,16,,,,,,,,,,,1,2.123,0,,,,,,-0.405240479,-0.250888401,1,0,0,2.1228,Andesite_rect,12,0,12,0,1,
655f907c54cc7835ee7b0daa,TCN,2024-06-24_17h32.50.841,LearnStrategy,2023.2.3,MacIntel,59.88023952,7,2,14,,,,,,,,4,13,,,,,,,,,,,4,4.984,1,,,,,,0.429119873,-0.243521932,1,0,0,4.9844,Gabbro_rect,13,0,13,0,1,
655f907c54cc7835ee7b0daa,TCN,2024-06-24_17h32.50.841,LearnStrategy,2023.2.3,MacIntel,59.88023952,7,2,15,,,,,,,,3,13,,,,,,,,,,,3,1.046,1,,,,,,0.146267225,-0.251478068,1,0,0,1.0465,Diorite_rect,14,0,14,0,1,
655f907c54cc7835ee7b0daa,TCN,2024-06-24_17h32.50.841,LearnStrategy,2023.2.3,MacIntel,59.88023952,7,2,16,,,,,,,,6,12,,,,,,,,,,,1,9.609,0,,,,,,-0.350863749,-0.25897739,1,0,0,9.6092,Andesite_rect,15,0,15,0,1,
655f907c54cc7835ee7b0daa,TCN,2024-06-24_17h32.50.841,LearnStrategy,2023.2.3,MacIntel,59.88023952,8,1,1,0.072881198,0.006159498,1,0,0,1.1716,rock_grid_rect_2,8,14,-1,-1,1.172,0.405530056,-0.403473375,1,0,0,1.2544,Pumice_rect,8,1.254,1,0,0,0,0,1,,,,,,,,,,,,,
655f907c54cc7835ee7b0daa,TCN,2024-06-24_17h32.50.841,LearnStrategy,2023.2.3,MacIntel,59.88023952,8,1,2,0.147624647,0.008654683,1,0,0,1.5734,rock_grid_rect_2,7,02,-1,-1,1.573,0.186026611,-0.401554498,1,0,0,1.1154,Peridotite_rect,7,1.115,1,1,0,1,0,1,,,,,,,,,,,,,
655f907c54cc7835ee7b0daa,TCN,2024-06-24_17h32.50.841,LearnStrategy,2023.2.3,MacIntel,59.88023952,8,1,3,0.073112929,-0.015647108,1,0,0,0.9422,rock_grid_rect_2,3,10,-1,-1,0.942,-0.341023187,-0.240220405,1,0,0,3.3847,Andesite_rect,1,3.385,0,2,0,2,0,1,,,,,,,,,,,,,
655f907c54cc7835ee7b0daa,TCN,2024-06-24_17h32.50.841,LearnStrategy,2023.2.3,MacIntel,59.88023952,8,1,4,0.074193793,-0.022875231,1,0,0,1.064,rock_grid_rect_2,6,10,-1,-1,1.064,0.082989502,-0.410878296,1,0,0,1.1778,Peridotite_rect,7,1.178,0,3,0,3,0,1,,,,,,,,,,,,,
655f907c54cc7835ee7b0daa,TCN,2024-06-24_17h32.50.841,LearnStrategy,2023.2.3,MacIntel,59.88023952,8,1,5,0.047278985,-0.012748142,1,0,0,1.1442,rock_grid_rect_2,5,14,-1,-1,1.144,-0.406567993,-0.420592787,1,0,0,1.1811,Obsidian_rect,5,1.181,1,4,0,4,0,1,,,,,,,,,,,,,
655f907c54cc7835ee7b0daa,TCN,2024-06-24_17h32.50.841,LearnStrategy,2023.2.3,MacIntel,59.88023952,8,1,6,0.028674045,0.002719116,1,0,0,0.9226,rock_grid_rect_2,4,03,-1,-1,0.923,-0.398951755,-0.243065253,1,0,0,5.3341,Andesite_rect,1,5.334,0,5,0,5,0,1,,,,,,,,,,,,,
655f907c54cc7835ee7b0daa,TCN,2024-06-24_17h32.50.841,LearnStrategy,2023.2.3,MacIntel,59.88023952,8,1,7,0.025080905,-0.020058255,1,0,0,0.9935,rock_grid_rect_2,5,12,-1,-1,0.994,-0.395996297,-0.406693319,1,0,0,1.2204,Obsidian_rect,5,1.22,1,6,0,6,0,1,,,,,,,,,,,,,
655f907c54cc7835ee7b0daa,TCN,2024-06-24_17h32.50.841,LearnStrategy,2023.2.3,MacIntel,59.88023952,8,1,8,0.087113512,0.003082716,1,0,0,0.8312,rock_grid_rect_2,6,05,-1,-1,0.831,-0.383172811,-0.259921536,1,0,0,5.4692,Andesite_rect,1,5.469,0,7,0,7,0,1,,,,,,,,,,,,,
655f907c54cc7835ee7b0daa,TCN,2024-06-24_17h32.50.841,LearnStrategy,2023.2.3,MacIntel,59.88023952,8,1,9,0.016823595,0.002351718,1,0,0,0.7811,rock_grid_rect_2,2,01,-1,-1,0.781,-0.087571275,-0.245628052,1,0,0,0.8699,Basalt_rect,2,0.87,1,8,0,8,0,1,,,,,,,,,,,,,
655f907c54cc7835ee7b0daa,TCN,2024-06-24_17h32.50.841,LearnStrategy,2023.2.3,MacIntel,59.88023952,8,1,10,0.068564724,0.003245036,1,0,0,0.8462,rock_grid_rect_2,1,05,-1,-1,0.846,-0.357354499,-0.246243218,1,0,0,2.0388,Andesite_rect,1,2.039,1,9,0,9,0,1,,,,,,,,,,,,,
655f907c54cc7835ee7b0daa,TCN,2024-06-24_17h32.50.841,LearnStrategy,2023.2.3,MacIntel,59.88023952,8,1,11,0.027058512,-0.003035583,1,0,0,0.9752,rock_grid_rect_2,8,08,-1,-1,0.975,0.36642022,-0.399430813,1,0,0,1.0774,Pumice_rect,8,1.077,1,10,0,10,0,1,,,,,,,,,,,,,
655f907c54cc7835ee7b0daa,TCN,2024-06-24_17h32.50.841,LearnStrategy,2023.2.3,MacIntel,59.88023952,8,1,12,0.129027846,0.000765008,1,0,0,1.1227,rock_grid_rect_2,3,12,-1,-1,1.123,0.156395264,-0.265107558,1,0,0,4.6335,Diorite_rect,3,4.634,1,11,0,11,0,1,,,,,,,,,,,,,
655f907c54cc7835ee7b0daa,TCN,2024-06-24_17h32.50.841,LearnStrategy,2023.2.3,MacIntel,59.88023952,8,1,13,0.066691488,-0.008768548,1,0,0,0.8456,rock_grid_rect_2,4,14,-1,-1,0.846,0.411496718,-0.263434448,1,0,0,1.4407,Gabbro_rect,4,1.441,1,12,0,12,0,1,,,,,,,,,,,,,
655f907c54cc7835ee7b0daa,TCN,2024-06-24_17h32.50.841,LearnStrategy,2023.2.3,MacIntel,59.88023952,8,1,14,0.077248671,0.003027615,1,0,0,0.7463,rock_grid_rect_2,1,04,-1,-1,0.746,-0.402077094,-0.252848579,1,0,0,1.6232,Andesite_rect,1,1.623,1,13,0,13,0,1,,,,,,,,,,,,,
655f907c54cc7835ee7b0daa,TCN,2024-06-24_17h32.50.841,LearnStrategy,2023.2.3,MacIntel,59.88023952,8,1,15,0.014040256,-0.007537265,1,0,0,0.6762,rock_grid_rect_2,2,02,-1,-1,0.676,-0.116041056,-0.24275194,1,0,0,1.1547,Basalt_rect,2,1.155,1,14,0,14,0,1,,,,,,,,,,,,,
655f907c54cc7835ee7b0daa,TCN,2024-06-24_17h32.50.841,LearnStrategy,2023.2.3,MacIntel,59.88023952,8,1,16,0.024939372,0.000363193,1,0,0,0.8282,rock_grid_rect_2,7,08,-1,-1,0.828,0.139453125,-0.402714098,1,0,0,1.1877,Peridotite_rect,7,1.188,1,15,0,15,0,1,,,,,,,,,,,,,
655f907c54cc7835ee7b0daa,TCN,2024-06-24_17h32.50.841,LearnStrategy,2023.2.3,MacIntel,59.88023952,8,2,1,,,,,,,,8,06,,,,,,,,,,,8,1.136,1,,,,,,0.394275716,-0.401843262,1,0,0,1.1361,Pumice_rect,0,0,0,0,1,
655f907c54cc7835ee7b0daa,TCN,2024-06-24_17h32.50.841,LearnStrategy,2023.2.3,MacIntel,59.88023952,8,2,2,,,,,,,,5,05,,,,,,,,,,,5,1.114,1,,,,,,-0.356263936,-0.410075616,1,0,0,1.1141,Obsidian_rect,1,0,1,0,1,
655f907c54cc7835ee7b0daa,TCN,2024-06-24_17h32.50.841,LearnStrategy,2023.2.3,MacIntel,59.88023952,8,2,3,,,,,,,,3,14,,,,,,,,,,,3,5.203,1,,,,,,0.140309041,-0.25843689,1,0,0,5.2028,Diorite_rect,2,0,2,0,1,
655f907c54cc7835ee7b0daa,TCN,2024-06-24_17h32.50.841,LearnStrategy,2023.2.3,MacIntel,59.88023952,8,2,4,,,,,,,,6,03,,,,,,,,,,,7,3.528,0,,,,,,0.108082208,-0.409787191,1,0,0,3.5278,Peridotite_rect,3,0,3,0,1,
655f907c54cc7835ee7b0daa,TCN,2024-06-24_17h32.50.841,LearnStrategy,2023.2.3,MacIntel,59.88023952,8,2,5,,,,,,,,4,10,,,,,,,,,,,4,2.519,1,,,,,,0.35340427,-0.252744276,1,0,0,2.5189,Gabbro_rect,4,0,4,0,1,
655f907c54cc7835ee7b0daa,TCN,2024-06-24_17h32.50.841,LearnStrategy,2023.2.3,MacIntel,59.88023952,8,2,6,,,,,,,,1,16,,,,,,,,,,,1,2.22,1,,,,,,-0.366796841,-0.254703301,1,0,0,2.2202,Andesite_rect,5,0,5,0,1,
655f907c54cc7835ee7b0daa,TCN,2024-06-24_17h32.50.841,LearnStrategy,2023.2.3,MacIntel,59.88023952,8,2,7,,,,,,,,2,16,,,,,,,,,,,2,1.574,1,,,,,,-0.085963067,-0.256624959,1,0,0,1.574,Basalt_rect,6,0,6,0,1,
655f907c54cc7835ee7b0daa,TCN,2024-06-24_17h32.50.841,LearnStrategy,2023.2.3,MacIntel,59.88023952,8,2,8,,,,,,,,1,10,,,,,,,,,,,4,3.622,0,,,,,,0.366587592,-0.254700521,1,0,0,3.622,Gabbro_rect,7,0,7,0,1,
655f907c54cc7835ee7b0daa,TCN,2024-06-24_17h32.50.841,LearnStrategy,2023.2.3,MacIntel,59.88023952,8,2,9,,,,,,,,2,06,,,,,,,,,,,2,1.175,1,,,,,,-0.131826308,-0.254206679,1,0,0,1.1754,Basalt_rect,8,0,8,0,1,
655f907c54cc7835ee7b0daa,TCN,2024-06-24_17h32.50.841,LearnStrategy,2023.2.3,MacIntel,59.88023952,8,2,10,,,,,,,,6,06,,,,,,,,,,,6,2.467,1,,,,,,-0.137430623,-0.407427504,1,0,0,2.4671,Pegmatite_rect,9,0,9,0,1,
655f907c54cc7835ee7b0daa,TCN,2024-06-24_17h32.50.841,LearnStrategy,2023.2.3,MacIntel,59.88023952,8,2,11,,,,,,,,3,11,,,,,,,,,,,3,1.362,1,,,,,,0.144452922,-0.251575589,1,0,0,1.3617,Diorite_rect,10,0,10,0,1,
655f907c54cc7835ee7b0daa,TCN,2024-06-24_17h32.50.841,LearnStrategy,2023.2.3,MacIntel,59.88023952,8,2,12,,,,,,,,5,10,,,,,,,,,,,5,1.171,1,,,,,,-0.394478149,-0.405442437,1,0,0,1.1713,Obsidian_rect,11,0,11,0,1,
655f907c54cc7835ee7b0daa,TCN,2024-06-24_17h32.50.841,LearnStrategy,2023.2.3,MacIntel,59.88023952,8,2,13,,,,,,,,7,12,,,,,,,,,,,7,1.335,1,,,,,,0.120665487,-0.390717231,1,0,0,1.3348,Peridotite_rect,12,0,12,0,1,
655f907c54cc7835ee7b0daa,TCN,2024-06-24_17h32.50.841,LearnStrategy,2023.2.3,MacIntel,59.88023952,8,2,14,,,,,,,,4,08,,,,,,,,,,,4,3.163,1,,,,,,0.444014757,-0.252247111,1,0,0,3.1628,Gabbro_rect,13,0,13,0,1,
655f907c54cc7835ee7b0daa,TCN,2024-06-24_17h32.50.841,LearnStrategy,2023.2.3,MacIntel,59.88023952,8,2,15,,,,,,,,7,15,,,,,,,,,,,7,2.058,1,,,,,,0.131383667,-0.403846436,1,0,0,2.0585,Peridotite_rect,14,0,14,0,1,
655f907c54cc7835ee7b0daa,TCN,2024-06-24_17h32.50.841,LearnStrategy,2023.2.3,MacIntel,59.88023952,8,2,16,,,,,,,,8,10,,,,,,,,,,,8,1.59,1,,,,,,0.370638428,-0.4129992,1,0,0,1.5904,Pumice_rect,15,0,15,0,1,
655f907c54cc7835ee7b0daa,TCN,2024-06-24_17h32.50.841,LearnStrategy,2023.2.3,MacIntel,59.88023952,9,1,1,0.007241821,-0.006195747,1,0,0,1.0942,rock_grid_rect_2,3,02,-1,-1,1.094,0.12769755,-0.248757256,1,0,0,1.1065,Diorite_rect,3,1.106,1,0,0,0,0,1,,,,,,,,,,,,,
655f907c54cc7835ee7b0daa,TCN,2024-06-24_17h32.50.841,LearnStrategy,2023.2.3,MacIntel,59.88023952,9,1,2,0.104271376,-0.014025743,1,0,0,1.0779,rock_grid_rect_2,2,05,-1,-1,1.078,-0.138585883,-0.266686062,1,0,0,0.943,Basalt_rect,2,0.943,1,1,0,1,0,1,,,,,,,,,,,,,
655f907c54cc7835ee7b0daa,TCN,2024-06-24_17h32.50.841,LearnStrategy,2023.2.3,MacIntel,59.88023952,9,1,3,0.045071615,0.00462816,1,0,0,1.0043,rock_grid_rect_2,4,11,-1,-1,1.004,0.361372748,-0.248855116,1,0,0,2.9859,Gabbro_rect,4,2.986,1,2,0,2,0,1,,,,,,,,,,,,,
655f907c54cc7835ee7b0daa,TCN,2024-06-24_17h32.50.841,LearnStrategy,2023.2.3,MacIntel,59.88023952,9,1,4,0.092100288,-0.018827955,1,0,0,0.9751,rock_grid_rect_2,1,14,-1,-1,0.975,-0.350746528,-0.232078451,1,0,0,2.6952,Andesite_rect,1,2.695,1,3,0,3,0,1,,,,,,,,,,,,,
655f907c54cc7835ee7b0daa,TCN,2024-06-24_17h32.50.841,LearnStrategy,2023.2.3,MacIntel,59.88023952,9,1,5,0.097269491,0.006770901,1,0,0,0.974,rock_grid_rect_2,7,13,-1,-1,0.974,0.131890055,-0.407181396,1,0,0,1.1826,Peridotite_rect,7,1.183,1,4,0,4,0,1,,,,,,,,,,,,,
655f907c54cc7835ee7b0daa,TCN,2024-06-24_17h32.50.841,LearnStrategy,2023.2.3,MacIntel,59.88023952,9,1,6,0.085720011,-0.003857286,1,0,0,1.1267,rock_grid_rect_2,5,06,-1,-1,1.127,-0.378950331,-0.395716281,1,0,0,1.0565,Obsidian_rect,5,1.056,1,5,0,5,0,1,,,,,,,,,,,,,
655f907c54cc7835ee7b0daa,TCN,2024-06-24_17h32.50.841,LearnStrategy,2023.2.3,MacIntel,59.88023952,9,1,7,0.00653083,0.020420668,1,0,0,8.6895,rock_grid_rect_2,7,07,-1,-1,8.689,0.133150363,-0.396193576,1,0,0,3.0506,Peridotite_rect,7,3.051,1,6,0,6,0,1,,,,,,,,,,,,,
655f907c54cc7835ee7b0daa,TCN,2024-06-24_17h32.50.841,LearnStrategy,2023.2.3,MacIntel,59.88023952,9,1,8,0.060992567,-0.014285414,1,0,0,1.0556,rock_grid_rect_2,2,14,-1,-1,1.056,-0.062315267,-0.256985135,1,0,0,3.9536,Basalt_rect,2,3.954,1,7,0,7,0,1,,,,,,,,,,,,,
655f907c54cc7835ee7b0daa,TCN,2024-06-24_17h32.50.841,LearnStrategy,2023.2.3,MacIntel,59.88023952,9,1,9,0.117618612,-0.010235799,1,0,0,1.4946,rock_grid_rect_2,4,09,-1,-1,1.495,0.357541233,-0.24219401,1,0,0,1.7613,Gabbro_rect,4,1.761,1,8,0,8,0,1,,,,,,,,,,,,,
655f907c54cc7835ee7b0daa,TCN,2024-06-24_17h32.50.841,LearnStrategy,2023.2.3,MacIntel,59.88023952,9,1,10,0.03740092,-0.017070652,1,0,0,0.7943,rock_grid_rect_2,3,07,-1,-1,0.794,0.147279188,-0.239808214,1,0,0,1.0559,Diorite_rect,3,1.056,1,9,0,9,0,1,,,,,,,,,,,,,
655f907c54cc7835ee7b0daa,TCN,2024-06-24_17h32.50.841,LearnStrategy,2023.2.3,MacIntel,59.88023952,9,1,11,0.069852159,0.014629957,1,0,0,0.9126,rock_grid_rect_2,8,04,-1,-1,0.913,0.385937636,-0.411086629,1,0,0,1.1693,Pumice_rect,8,1.169,1,10,0,10,0,1,,,,,,,,,,,,,
655f907c54cc7835ee7b0daa,TCN,2024-06-24_17h32.50.841,LearnStrategy,2023.2.3,MacIntel,59.88023952,9,1,12,0.107449544,-0.013054776,1,0,0,1.4497,rock_grid_rect_2,5,11,-1,-1,1.45,-0.363551704,-0.396847941,1,0,0,1.1303,Obsidian_rect,5,1.13,1,11,0,11,0,1,,,,,,,,,,,,,
655f907c54cc7835ee7b0daa,TCN,2024-06-24_17h32.50.841,LearnStrategy,2023.2.3,MacIntel,59.88023952,9,1,13,0.092142402,-0.00226905,1,0,0,0.9532,rock_grid_rect_2,6,11,-1,-1,0.953,-0.112494168,-0.415209351,1,0,0,1.4922,Pegmatite_rect,6,1.492,1,12,0,12,0,1,,,,,,,,,,,,,
655f907c54cc7835ee7b0daa,TCN,2024-06-24_17h32.50.841,LearnStrategy,2023.2.3,MacIntel,59.88023952,9,1,14,0.018880615,0.001497633,1,0,0,1.0111,rock_grid_rect_2,6,07,-1,-1,1.011,-0.118126763,-0.402076891,1,0,0,1.657,Pegmatite_rect,6,1.657,1,13,0,13,0,1,,,,,,,,,,,,,
655f907c54cc7835ee7b0daa,TCN,2024-06-24_17h32.50.841,LearnStrategy,2023.2.3,MacIntel,59.88023952,9,1,15,0.009244656,-0.008960232,1,0,0,0.8928,rock_grid_rect_2,8,03,-1,-1,0.893,0.416016981,-0.402783203,1,0,0,1.0625,Pumice_rect,8,1.063,1,14,0,14,0,1,,,,,,,,,,,,,
655f907c54cc7835ee7b0daa,TCN,2024-06-24_17h32.50.841,LearnStrategy,2023.2.3,MacIntel,59.88023952,9,1,16,0.075063612,-0.011463691,1,0,0,0.9811,rock_grid_rect_2,1,03,-1,-1,0.981,-0.332786085,-0.249586995,1,0,0,4.3099,Andesite_rect,1,4.31,1,15,0,15,0,1,,,,,,,,,,,,,
655f907c54cc7835ee7b0daa,TCN,2024-06-24_17h32.50.841,LearnStrategy,2023.2.3,MacIntel,59.88023952,9,2,1,,,,,,,,3,09,,,,,,,,,,,3,1.14,1,,,,,,0.128668349,-0.231998834,1,0,0,1.1405,Diorite_rect,0,0,0,0,1,
655f907c54cc7835ee7b0daa,TCN,2024-06-24_17h32.50.841,LearnStrategy,2023.2.3,MacIntel,59.88023952,9,2,2,,,,,,,,6,13,,,,,,,,,,,6,1.478,1,,,,,,-0.128016832,-0.406207004,1,0,0,1.4781,Pegmatite_rect,1,0,1,0,1,
655f907c54cc7835ee7b0daa,TCN,2024-06-24_17h32.50.841,LearnStrategy,2023.2.3,MacIntel,59.88023952,9,2,3,,,,,,,,5,16,,,,,,,,,,,5,0.977,1,,,,,,-0.406979709,-0.406138848,1,0,0,0.9768,Obsidian_rect,2,0,2,0,1,
655f907c54cc7835ee7b0daa,TCN,2024-06-24_17h32.50.841,LearnStrategy,2023.2.3,MacIntel,59.88023952,9,2,4,,,,,,,,8,02,,,,,,,,,,,8,1.005,1,,,,,,0.39398641,-0.411284044,1,0,0,1.0051,Pumice_rect,3,0,3,0,1,
655f907c54cc7835ee7b0daa,TCN,2024-06-24_17h32.50.841,LearnStrategy,2023.2.3,MacIntel,59.88023952,9,2,5,,,,,,,,3,15,,,,,,,,,,,3,1.123,1,,,,,,0.085296292,-0.256023356,1,0,0,1.1233,Diorite_rect,4,0,4,0,1,
655f907c54cc7835ee7b0daa,TCN,2024-06-24_17h32.50.841,LearnStrategy,2023.2.3,MacIntel,59.88023952,9,2,6,,,,,,,,7,05,,,,,,,,,,,7,2.144,1,,,,,,0.12205363,-0.417074721,1,0,0,2.1439,Peridotite_rect,5,0,5,0,1,
655f907c54cc7835ee7b0daa,TCN,2024-06-24_17h32.50.841,LearnStrategy,2023.2.3,MacIntel,59.88023952,9,2,7,,,,,,,,7,16,,,,,,,,,,,7,1.907,1,,,,,,0.082943319,-0.419016452,1,0,0,1.907,Peridotite_rect,6,0,6,0,1,
655f907c54cc7835ee7b0daa,TCN,2024-06-24_17h32.50.841,LearnStrategy,2023.2.3,MacIntel,59.88023952,9,2,8,,,,,,,,2,12,,,,,,,,,,,2,1.898,1,,,,,,-0.107064752,-0.245336914,1,0,0,1.8975,Basalt_rect,7,0,7,0,1,
655f907c54cc7835ee7b0daa,TCN,2024-06-24_17h32.50.841,LearnStrategy,2023.2.3,MacIntel,59.88023952,9,2,9,,,,,,,,8,13,,,,,,,,,,,4,9.855,0,,,,,,0.350995822,-0.250863647,1,0,0,9.8548,Gabbro_rect,8,0,8,0,1,
655f907c54cc7835ee7b0daa,TCN,2024-06-24_17h32.50.841,LearnStrategy,2023.2.3,MacIntel,59.88023952,9,2,10,,,,,,,,2,08,,,,,,,,,,,2,0.914,1,,,,,,-0.108445231,-0.246716715,1,0,0,0.9141,Basalt_rect,9,0,9,0,1,
655f907c54cc7835ee7b0daa,TCN,2024-06-24_17h32.50.841,LearnStrategy,2023.2.3,MacIntel,59.88023952,9,2,11,,,,,,,,4,15,,,,,,,,,,,4,5.007,1,,,,,,0.413773193,-0.251340129,1,0,0,5.0075,Gabbro_rect,10,0,10,0,1,
655f907c54cc7835ee7b0daa,TCN,2024-06-24_17h32.50.841,LearnStrategy,2023.2.3,MacIntel,59.88023952,9,2,12,,,,,,,,4,12,,,,,,,,,,,4,10.45,1,,,,,,0.452002224,-0.238374634,1,0,0,10.4496,Gabbro_rect,11,0,11,0,1,
655f907c54cc7835ee7b0daa,TCN,2024-06-24_17h32.50.841,LearnStrategy,2023.2.3,MacIntel,59.88023952,9,2,13,,,,,,,,1,01,,,,,,,,,,,3,1.212,0,,,,,,0.125846625,-0.261349962,1,0,0,1.2124,Diorite_rect,12,0,12,0,1,
655f907c54cc7835ee7b0daa,TCN,2024-06-24_17h32.50.841,LearnStrategy,2023.2.3,MacIntel,59.88023952,9,2,14,,,,,,,,6,16,,,,,,,,,,,6,1.129,1,,,,,,-0.146075846,-0.413710802,1,0,0,1.1287,Pegmatite_rect,13,0,13,0,1,
655f907c54cc7835ee7b0daa,TCN,2024-06-24_17h32.50.841,LearnStrategy,2023.2.3,MacIntel,59.88023952,9,2,15,,,,,,,,1,07,,,,,,,,,,,1,2.043,1,,,,,,-0.368319329,-0.258693237,1,0,0,2.0431,Andesite_rect,14,0,14,0,1,
655f907c54cc7835ee7b0daa,TCN,2024-06-24_17h32.50.841,LearnStrategy,2023.2.3,MacIntel,59.88023952,9,2,16,,,,,,,,5,09,,,,,,,,,,,5,1.159,1,,,,,,-0.410858154,-0.399264391,1,0,0,1.1593,Obsidian_rect,15,0,15,0,1,
655f907c54cc7835ee7b0daa,TCN,2024-06-24_17h32.50.841,LearnStrategy,2023.2.3,MacIntel,59.88023952,,,,,,,,,,,,,,,,,,,,,,,,,,,,,,,,,,,,,,,,,,,1
655f907c54cc7835ee7b0daa,TCN,2024-06-24_17h32.50.841,LearnStrategy,2023.2.3,MacIntel,59.88023952,,,,,,,,,,,,,,,,,,,,,,,,,,,,,,,,,,,,,,,,,,,
655f907c54cc7835ee7b0daa,TCN,2024-06-24_17h32.50.841,LearnStrategy,2023.2.3,MacIntel,59.88023952,,,,,,,,,,,1,03,1,1,,,,,,,,,,,,,,,,,,,,,,,,,,,,,
655f907c54cc7835ee7b0daa,TCN,2024-06-24_17h32.50.841,LearnStrategy,2023.2.3,MacIntel,59.88023952,,,,,,,,,,,7,14,1,2,,,,,,,,,,,,,,,,,,,,,,,,,,,,,
655f907c54cc7835ee7b0daa,TCN,2024-06-24_17h32.50.841,LearnStrategy,2023.2.3,MacIntel,59.88023952,,,,,,,,,,,6,05,1,3,,,,,,,,,,,,,,,,,,,,,,,,,,,,,
655f907c54cc7835ee7b0daa,TCN,2024-06-24_17h32.50.841,LearnStrategy,2023.2.3,MacIntel,59.88023952,,,,,,,,,,,6,08,1,4,,,,,,,,,,,,,,,,,,,,,,,,,,,,,
655f907c54cc7835ee7b0daa,TCN,2024-06-24_17h32.50.841,LearnStrategy,2023.2.3,MacIntel,59.88023952,,,,,,,,,,,8,14,1,5,,,,,,,,,,,,,,,,,,,,,,,,,,,,,
655f907c54cc7835ee7b0daa,TCN,2024-06-24_17h32.50.841,LearnStrategy,2023.2.3,MacIntel,59.88023952,,,,,,,,,,,8,04,1,6,,,,,,,,,,,,,,,,,,,,,,,,,,,,,
655f907c54cc7835ee7b0daa,TCN,2024-06-24_17h32.50.841,LearnStrategy,2023.2.3,MacIntel,59.88023952,,,,,,,,,,,3,10,1,7,,,,,,,,,,,,,,,,,,,,,,,,,,,,,
655f907c54cc7835ee7b0daa,TCN,2024-06-24_17h32.50.841,LearnStrategy,2023.2.3,MacIntel,59.88023952,,,,,,,,,,,4,14,1,8,,,,,,,,,,,,,,,,,,,,,,,,,,,,,
655f907c54cc7835ee7b0daa,TCN,2024-06-24_17h32.50.841,LearnStrategy,2023.2.3,MacIntel,59.88023952,,,,,,,,,,,7,13,2,1,,,,,,,,,,,,,,,,,,,,,,,,,,,,,
655f907c54cc7835ee7b0daa,TCN,2024-06-24_17h32.50.841,LearnStrategy,2023.2.3,MacIntel,59.88023952,,,,,,,,,,,4,11,2,2,,,,,,,,,,,,,,,,,,,,,,,,,,,,,
655f907c54cc7835ee7b0daa,TCN,2024-06-24_17h32.50.841,LearnStrategy,2023.2.3,MacIntel,59.88023952,,,,,,,,,,,6,11,2,3,,,,,,,,,,,,,,,,,,,,,,,,,,,,,
655f907c54cc7835ee7b0daa,TCN,2024-06-24_17h32.50.841,LearnStrategy,2023.2.3,MacIntel,59.88023952,,,,,,,,,,,1,09,2,4,,,,,,,,,,,,,,,,,,,,,,,,,,,,,
655f907c54cc7835ee7b0daa,TCN,2024-06-24_17h32.50.841,LearnStrategy,2023.2.3,MacIntel,59.88023952,,,,,,,,,,,2,11,2,5,,,,,,,,,,,,,,,,,,,,,,,,,,,,,
655f907c54cc7835ee7b0daa,TCN,2024-06-24_17h32.50.841,LearnStrategy,2023.2.3,MacIntel,59.88023952,,,,,,,,,,,1,14,2,6,,,,,,,,,,,,,,,,,,,,,,,,,,,,,
655f907c54cc7835ee7b0daa,TCN,2024-06-24_17h32.50.841,LearnStrategy,2023.2.3,MacIntel,59.88023952,,,,,,,,,,,7,08,2,7,,,,,,,,,,,,,,,,,,,,,,,,,,,,,
655f907c54cc7835ee7b0daa,TCN,2024-06-24_17h32.50.841,LearnStrategy,2023.2.3,MacIntel,59.88023952,,,,,,,,,,,7,02,2,8,,,,,,,,,,,,,,,,,,,,,,,,,,,,,
655f907c54cc7835ee7b0daa,TCN,2024-06-24_17h32.50.841,LearnStrategy,2023.2.3,MacIntel,59.88023952,,,,,,,,,,,6,07,3,1,,,,,,,,,,,,,,,,,,,,,,,,,,,,,
655f907c54cc7835ee7b0daa,TCN,2024-06-24_17h32.50.841,LearnStrategy,2023.2.3,MacIntel,59.88023952,,,,,,,,,,,3,08,3,2,,,,,,,,,,,,,,,,,,,,,,,,,,,,,
655f907c54cc7835ee7b0daa,TCN,2024-06-24_17h32.50.841,LearnStrategy,2023.2.3,MacIntel,59.88023952,,,,,,,,,,,3,07,3,3,,,,,,,,,,,,,,,,,,,,,,,,,,,,,
655f907c54cc7835ee7b0daa,TCN,2024-06-24_17h32.50.841,LearnStrategy,2023.2.3,MacIntel,59.88023952,,,,,,,,,,,3,06,3,4,,,,,,,,,,,,,,,,,,,,,,,,,,,,,
655f907c54cc7835ee7b0daa,TCN,2024-06-24_17h32.50.841,LearnStrategy,2023.2.3,MacIntel,59.88023952,,,,,,,,,,,8,08,3,5,,,,,,,,,,,,,,,,,,,,,,,,,,,,,
655f907c54cc7835ee7b0daa,TCN,2024-06-24_17h32.50.841,LearnStrategy,2023.2.3,MacIntel,59.88023952,,,,,,,,,,,7,07,3,6,,,,,,,,,,,,,,,,,,,,,,,,,,,,,
655f907c54cc7835ee7b0daa,TCN,2024-06-24_17h32.50.841,LearnStrategy,2023.2.3,MacIntel,59.88023952,,,,,,,,,,,2,14,3,7,,,,,,,,,,,,,,,,,,,,,,,,,,,,,
655f907c54cc7835ee7b0daa,TCN,2024-06-24_17h32.50.841,LearnStrategy,2023.2.3,MacIntel,59.88023952,,,,,,,,,,,4,01,3,8,,,,,,,,,,,,,,,,,,,,,,,,,,,,,
655f907c54cc7835ee7b0daa,TCN,2024-06-24_17h32.50.841,LearnStrategy,2023.2.3,MacIntel,59.88023952,,,,,,,,,,,2,04,4,1,,,,,,,,,,,,,,,,,,,,,,,,,,,,,
655f907c54cc7835ee7b0daa,TCN,2024-06-24_17h32.50.841,LearnStrategy,2023.2.3,MacIntel,59.88023952,,,,,,,,,,,4,05,4,2,,,,,,,,,,,,,,,,,,,,,,,,,,,,,
655f907c54cc7835ee7b0daa,TCN,2024-06-24_17h32.50.841,LearnStrategy,2023.2.3,MacIntel,59.88023952,,,,,,,,,,,2,05,4,3,,,,,,,,,,,,,,,,,,,,,,,,,,,,,
655f907c54cc7835ee7b0daa,TCN,2024-06-24_17h32.50.841,LearnStrategy,2023.2.3,MacIntel,59.88023952,,,,,,,,,,,7,04,4,4,,,,,,,,,,,,,,,,,,,,,,,,,,,,,
655f907c54cc7835ee7b0daa,TCN,2024-06-24_17h32.50.841,LearnStrategy,2023.2.3,MacIntel,59.88023952,,,,,,,,,,,1,11,4,5,,,,,,,,,,,,,,,,,,,,,,,,,,,,,
655f907c54cc7835ee7b0daa,TCN,2024-06-24_17h32.50.841,LearnStrategy,2023.2.3,MacIntel,59.88023952,,,,,,,,,,,5,11,4,6,,,,,,,,,,,,,,,,,,,,,,,,,,,,,
655f907c54cc7835ee7b0daa,TCN,2024-06-24_17h32.50.841,LearnStrategy,2023.2.3,MacIntel,59.88023952,,,,,,,,,,,5,02,4,7,,,,,,,,,,,,,,,,,,,,,,,,,,,,,
655f907c54cc7835ee7b0daa,TCN,2024-06-24_17h32.50.841,LearnStrategy,2023.2.3,MacIntel,59.88023952,,,,,,,,,,,3,12,4,8,,,,,,,,,,,,,,,,,,,,,,,,,,,,,
655f907c54cc7835ee7b0daa,TCN,2024-06-24_17h32.50.841,LearnStrategy,2023.2.3,MacIntel,59.88023952,,,,,,,,,,,3,02,5,1,,,,,,,,,,,,,,,,,,,,,,,,,,,,,
655f907c54cc7835ee7b0daa,TCN,2024-06-24_17h32.50.841,LearnStrategy,2023.2.3,MacIntel,59.88023952,,,,,,,,,,,2,02,5,2,,,,,,,,,,,,,,,,,,,,,,,,,,,,,
655f907c54cc7835ee7b0daa,TCN,2024-06-24_17h32.50.841,LearnStrategy,2023.2.3,MacIntel,59.88023952,,,,,,,,,,,5,14,5,3,,,,,,,,,,,,,,,,,,,,,,,,,,,,,
655f907c54cc7835ee7b0daa,TCN,2024-06-24_17h32.50.841,LearnStrategy,2023.2.3,MacIntel,59.88023952,,,,,,,,,,,1,04,5,4,,,,,,,,,,,,,,,,,,,,,,,,,,,,,
655f907c54cc7835ee7b0daa,TCN,2024-06-24_17h32.50.841,LearnStrategy,2023.2.3,MacIntel,59.88023952,,,,,,,,,,,8,15,5,5,,,,,,,,,,,,,,,,,,,,,,,,,,,,,
655f907c54cc7835ee7b0daa,TCN,2024-06-24_17h32.50.841,LearnStrategy,2023.2.3,MacIntel,59.88023952,,,,,,,,,,,8,03,5,6,,,,,,,,,,,,,,,,,,,,,,,,,,,,,
655f907c54cc7835ee7b0daa,TCN,2024-06-24_17h32.50.841,LearnStrategy,2023.2.3,MacIntel,59.88023952,,,,,,,,,,,4,09,5,7,,,,,,,,,,,,,,,,,,,,,,,,,,,,,
655f907c54cc7835ee7b0daa,TCN,2024-06-24_17h32.50.841,LearnStrategy,2023.2.3,MacIntel,59.88023952,,,,,,,,,,,5,12,5,8,,,,,,,,,,,,,,,,,,,,,,,,,,,,,
655f907c54cc7835ee7b0daa,TCN,2024-06-24_17h32.50.841,LearnStrategy,2023.2.3,MacIntel,59.88023952,,,,,,,,,,,6,15,6,1,,,,,,,,,,,,,,,,,,,,,,,,,,,,,
655f907c54cc7835ee7b0daa,TCN,2024-06-24_17h32.50.841,LearnStrategy,2023.2.3,MacIntel,59.88023952,,,,,,,,,,,8,05,6,2,,,,,,,,,,,,,,,,,,,,,,,,,,,,,
655f907c54cc7835ee7b0daa,TCN,2024-06-24_17h32.50.841,LearnStrategy,2023.2.3,MacIntel,59.88023952,,,,,,,,,,,5,08,6,3,,,,,,,,,,,,,,,,,,,,,,,,,,,,,
655f907c54cc7835ee7b0daa,TCN,2024-06-24_17h32.50.841,LearnStrategy,2023.2.3,MacIntel,59.88023952,,,,,,,,,,,2,01,6,4,,,,,,,,,,,,,,,,,,,,,,,,,,,,,
655f907c54cc7835ee7b0daa,TCN,2024-06-24_17h32.50.841,LearnStrategy,2023.2.3,MacIntel,59.88023952,,,,,,,,,,,6,10,6,5,,,,,,,,,,,,,,,,,,,,,,,,,,,,,
655f907c54cc7835ee7b0daa,TCN,2024-06-24_17h32.50.841,LearnStrategy,2023.2.3,MacIntel,59.88023952,,,,,,,,,,,1,05,6,6,,,,,,,,,,,,,,,,,,,,,,,,,,,,,
655f907c54cc7835ee7b0daa,TCN,2024-06-24_17h32.50.841,LearnStrategy,2023.2.3,MacIntel,59.88023952,,,,,,,,,,,5,06,6,7,,,,,,,,,,,,,,,,,,,,,,,,,,,,,
655f907c54cc7835ee7b0daa,TCN,2024-06-24_17h32.50.841,LearnStrategy,2023.2.3,MacIntel,59.88023952,,,,,,,,,,,4,03,6,8,,,,,,,,,,,,,,,,,,,,,,,,,,,,,