participant,condition,date,expName,psychopyVersion,OS,frameRate,block,phase,trial,learn_mouse.x,learn_mouse.y,learn_mouse.leftButton,learn_mouse.midButton,learn_mouse.rightButton,learn_mouse.time,learn_mouse.clicked_name,cat,token,row,col,t_select,cat_mouse_l.x,cat_mouse_l.y,cat_mouse_l.leftButton,cat_mouse_l.midButton,cat_mouse_l.rightButton,cat_mouse_l.time,cat_mouse_l.clicked_name,resp,t_resp,corr,train_trials.thisRepN,train_trials.thisTrialN,train_trials.thisN,train_trials.thisIndex,train_trials.ran,cat_mouse_t.x,cat_mouse_t.y,cat_mouse_t.leftButton,cat_mouse_t.midButton,cat_mouse_t.rightButton,cat_mouse_t.time,cat_mouse_t.clicked_name,test_trials.thisRepN,test_trials.thisTrialN,test_trials.thisN,test_trials.thisIndex,test_trials.ran,Bonus
655fd680f3dda8307b3db029,SCN,2024-06-20_14h00.05.506,LearnStrategy,2023.2.3,Win32,59.88023952,,,,,,,,,,,,,,,,,,,,,,,,,,,,,,,,,,,,,,,,,,,
655fd680f3dda8307b3db029,SCN,2024-06-20_14h00.05.506,LearnStrategy,2023.2.3,Win32,59.88023952,1,1,1,-0.060185168,0.074074003,1,0,0,6.1863,Basalt_01,2,01,4,4,6.186,-0.096296204,-0.262963136,1,0,0,2.4731,Basalt_rect,2,2.473,1,0,0,0,0,1,,,,,,,,,,,,,
655fd680f3dda8307b3db029,SCN,2024-06-20_14h00.05.506,LearnStrategy,2023.2.3,Win32,59.88023952,1,1,2,0.07870388,-0.110185199,1,0,0,2.5773,Andesite_05,1,05,3,5,2.577,0.110185199,-0.246296459,1,0,0,1.6659,Diorite_rect,3,1.666,0,1,0,1,0,1,,,,,,,,,,,,,
655fd680f3dda8307b3db029,SCN,2024-06-20_14h00.05.506,LearnStrategy,2023.2.3,Win32,59.88023952,1,1,3,0.375926124,0.096296257,1,0,0,2.2754,Pumice_13,8,13,4,7,2.275,-0.076851739,-0.254629771,1,0,0,1.3469,Basalt_rect,2,1.347,0,2,0,2,0,1,,,,,,,,,,,,,
655fd680f3dda8307b3db029,SCN,2024-06-20_14h00.05.506,LearnStrategy,2023.2.3,Win32,59.88023952,1,1,4,-0.262037012,-0.106481499,1,0,0,1.4102,Diorite_15,3,15,3,3,1.41,0.380555577,-0.26851866,1,0,0,2.2277,Gabbro_rect,4,2.228,0,3,0,3,0,1,,,,,,,,,,,,,
655fd680f3dda8307b3db029,SCN,2024-06-20_14h00.05.506,LearnStrategy,2023.2.3,Win32,59.88023952,1,1,5,-0.056481308,0.066666656,1,0,0,1.2203,Basalt_01,2,01,4,4,1.22,-0.085185157,-0.242592706,1,0,0,0.799,Basalt_rect,2,0.799,1,4,0,4,0,1,,,,,,,,,,,,,
655fd680f3dda8307b3db029,SCN,2024-06-20_14h00.05.506,LearnStrategy,2023.2.3,Win32,59.88023952,1,1,6,-0.214814716,-0.118518617,1,0,0,2.7592,Diorite_15,3,15,3,3,2.759,0.371296353,-0.247222318,1,0,0,0.919,Gabbro_rect,4,0.919,0,5,0,5,0,1,,,,,,,,,,,,,
655fd680f3dda8307b3db029,SCN,2024-06-20_14h00.05.506,LearnStrategy,2023.2.3,Win32,59.88023952,1,1,7,-0.568518506,-0.112962988,1,0,0,6.4044,Obsidian_02,5,02,3,1,6.404,-0.448148092,-0.412037108,1,0,0,1.2312,Obsidian_rect,5,1.231,1,6,0,6,0,1,,,,,,,,,,,,,
655fd680f3dda8307b3db029,SCN,2024-06-20_14h00.05.506,LearnStrategy,2023.2.3,Win32,59.88023952,1,1,8,0.396296501,0.236111058,1,0,0,5.0045,Diorite_06,3,06,5,7,5.005,0.362037235,-0.407407549,1,0,0,1.5128,Pumice_rect,8,1.513,0,7,0,7,0,1,,,,,,,,,,,,,
655fd680f3dda8307b3db029,SCN,2024-06-20_14h00.05.506,LearnStrategy,2023.2.3,Win32,59.88023952,1,1,9,0.411111302,-0.421296438,1,0,0,2.6912,Pegmatite_06,6,06,1,7,2.691,0.401852078,-0.262963136,1,0,0,1.8046,Gabbro_rect,4,1.805,0,8,0,8,0,1,,,,,,,,,,,,,
655fd680f3dda8307b3db029,SCN,2024-06-20_14h00.05.506,LearnStrategy,2023.2.3,Win32,59.88023952,1,1,10,0.514815013,0.095370319,1,0,0,1.0275,Basalt_04,2,04,4,8,1.028,0.120370547,-0.409259266,1,0,0,1.3848,Peridotite_rect,7,1.385,0,9,0,9,0,1,,,,,,,,,,,,,
655fd680f3dda8307b3db029,SCN,2024-06-20_14h00.05.506,LearnStrategy,2023.2.3,Win32,59.88023952,1,1,11,-0.213888804,0.266666651,1,0,0,1.0621,Gabbro_12,4,12,5,3,1.062,-0.063888868,-0.254629771,1,0,0,1.2913,Basalt_rect,2,1.291,0,10,0,10,0,1,,,,,,,,,,,,,
655fd680f3dda8307b3db029,SCN,2024-06-20_14h00.05.506,LearnStrategy,2023.2.3,Win32,59.88023952,1,1,12,0.247222265,-0.086111122,1,0,0,1.0947,Pegmatite_08,6,08,3,6,1.095,0.158333355,-0.265740818,1,0,0,0.8148,Diorite_rect,3,0.815,0,11,0,11,0,1,,,,,,,,,,,,,
655fd680f3dda8307b3db029,SCN,2024-06-20_14h00.05.506,LearnStrategy,2023.2.3,Win32,59.88023952,1,1,13,-0.086111016,-0.063888974,1,0,0,0.8258,Andesite_09,1,09,3,4,0.826,-0.086111016,-0.237963041,1,0,0,1.1401,Basalt_rect,2,1.14,0,12,0,12,0,1,,,,,,,,,,,,,
655fd680f3dda8307b3db029,SCN,2024-06-20_14h00.05.506,LearnStrategy,2023.2.3,Win32,59.88023952,1,1,14,-0.223148134,0.224999958,1,0,0,1.4774,Gabbro_12,4,12,5,3,1.477,-0.062036885,-0.241666688,1,0,0,1.0639,Basalt_rect,2,1.064,0,13,0,13,0,1,,,,,,,,,,,,,
655fd680f3dda8307b3db029,SCN,2024-06-20_14h00.05.506,LearnStrategy,2023.2.3,Win32,59.88023952,1,1,15,0.540740967,0.097222169,1,0,0,1.3594,Basalt_04,2,04,4,8,1.359,0.114814864,-0.241666688,1,0,0,1.1131,Diorite_rect,3,1.113,0,14,0,14,0,1,,,,,,,,,,,,,
655fd680f3dda8307b3db029,SCN,2024-06-20_14h00.05.506,LearnStrategy,2023.2.3,Win32,59.88023952,1,1,16,0.564815097,-0.403703902,1,0,0,1.6903,Basalt_12,2,12,1,8,1.69,0.131481489,-0.404629707,1,0,0,2.0665,Peridotite_rect,7,2.067,0,15,0,15,0,1,,,,,,,,,,,,,
655fd680f3dda8307b3db029,SCN,2024-06-20_14h00.05.506,LearnStrategy,2023.2.3,Win32,59.88023952,1,2,1,,,,,,,,5,09,,,,,,,,,,,5,2.578,1,,,,,,-0.391666571,-0.397222413,1,0,0,2.5785,Obsidian_rect,0,0,0,0,1,
655fd680f3dda8307b3db029,SCN,2024-06-20_14h00.05.506,LearnStrategy,2023.2.3,Win32,59.88023952,1,2,2,,,,,,,,2,06,,,,,,,,,,,2,1.188,1,,,,,,-0.15740739,-0.254629771,1,0,0,1.1878,Basalt_rect,1,0,1,0,1,
655fd680f3dda8307b3db029,SCN,2024-06-20_14h00.05.506,LearnStrategy,2023.2.3,Win32,59.88023952,1,2,3,,,,,,,,6,15,,,,,,,,,,,1,2.065,0,,,,,,-0.387962871,-0.233333429,1,0,0,2.0647,Andesite_rect,2,0,2,0,1,
655fd680f3dda8307b3db029,SCN,2024-06-20_14h00.05.506,LearnStrategy,2023.2.3,Win32,59.88023952,1,2,4,,,,,,,,8,02,,,,,,,,,,,7,0.69,0,,,,,,0.115740776,-0.385185348,1,0,0,0.69,Peridotite_rect,3,0,3,0,1,
655fd680f3dda8307b3db029,SCN,2024-06-20_14h00.05.506,LearnStrategy,2023.2.3,Win32,59.88023952,1,2,5,,,,,,,,4,08,,,,,,,,,,,3,0.878,0,,,,,,0.140740924,-0.257407559,1,0,0,0.8778,Diorite_rect,4,0,4,0,1,
655fd680f3dda8307b3db029,SCN,2024-06-20_14h00.05.506,LearnStrategy,2023.2.3,Win32,59.88023952,1,2,6,,,,,,,,7,15,,,,,,,,,,,2,0.65,0,,,,,,-0.141666571,-0.255555577,1,0,0,0.6502,Basalt_rect,5,0,5,0,1,
655fd680f3dda8307b3db029,SCN,2024-06-20_14h00.05.506,LearnStrategy,2023.2.3,Win32,59.88023952,1,2,7,,,,,,,,1,07,,,,,,,,,,,5,1.717,0,,,,,,-0.365740723,-0.381481595,1,0,0,1.7173,Obsidian_rect,6,0,6,0,1,
655fd680f3dda8307b3db029,SCN,2024-06-20_14h00.05.506,LearnStrategy,2023.2.3,Win32,59.88023952,1,2,8,,,,,,,,5,10,,,,,,,,,,,5,1.258,1,,,,,,-0.375925912,-0.389815013,1,0,0,1.2578,Obsidian_rect,7,0,7,0,1,
655fd680f3dda8307b3db029,SCN,2024-06-20_14h00.05.506,LearnStrategy,2023.2.3,Win32,59.88023952,1,2,9,,,,,,,,3,07,,,,,,,,,,,4,0.684,0,,,,,,0.318518533,-0.262037065,1,0,0,0.6841,Gabbro_rect,8,0,8,0,1,
655fd680f3dda8307b3db029,SCN,2024-06-20_14h00.05.506,LearnStrategy,2023.2.3,Win32,59.88023952,1,2,10,,,,,,,,1,10,,,,,,,,,,,8,1.284,0,,,,,,0.293518702,-0.389815013,1,0,0,1.2843,Pumice_rect,9,0,9,0,1,
655fd680f3dda8307b3db029,SCN,2024-06-20_14h00.05.506,LearnStrategy,2023.2.3,Win32,59.88023952,1,2,11,,,,,,,,6,12,,,,,,,,,,,3,0.998,0,,,,,,0.124074088,-0.246296459,1,0,0,0.9983,Diorite_rect,10,0,10,0,1,
655fd680f3dda8307b3db029,SCN,2024-06-20_14h00.05.506,LearnStrategy,2023.2.3,Win32,59.88023952,1,2,12,,,,,,,,2,05,,,,,,,,,,,2,2.03,1,,,,,,-0.099999905,-0.241666688,1,0,0,2.03,Basalt_rect,11,0,11,0,1,
655fd680f3dda8307b3db029,SCN,2024-06-20_14h00.05.506,LearnStrategy,2023.2.3,Win32,59.88023952,1,2,13,,,,,,,,7,10,,,,,,,,,,,7,1.266,1,,,,,,0.137037065,-0.399074131,1,0,0,1.2656,Peridotite_rect,12,0,12,0,1,
655fd680f3dda8307b3db029,SCN,2024-06-20_14h00.05.506,LearnStrategy,2023.2.3,Win32,59.88023952,1,2,14,,,,,,,,4,03,,,,,,,,,,,2,1.433,0,,,,,,-0.086111016,-0.252777894,1,0,0,1.4325,Basalt_rect,13,0,13,0,1,
655fd680f3dda8307b3db029,SCN,2024-06-20_14h00.05.506,LearnStrategy,2023.2.3,Win32,59.88023952,1,2,15,,,,,,,,3,09,,,,,,,,,,,1,1.231,0,,,,,,-0.437962903,-0.247222318,1,0,0,1.2315,Andesite_rect,14,0,14,0,1,
655fd680f3dda8307b3db029,SCN,2024-06-20_14h00.05.506,LearnStrategy,2023.2.3,Win32,59.88023952,1,2,16,,,,,,,,8,06,,,,,,,,,,,6,0.826,0,,,,,,-0.095370293,-0.411111302,1,0,0,0.8262,Pegmatite_rect,15,0,15,0,1,
655fd680f3dda8307b3db029,SCN,2024-06-20_14h00.05.506,LearnStrategy,2023.2.3,Win32,59.88023952,2,1,1,0.531481531,0.107407331,1,0,0,1.5912,Basalt_04,2,04,4,8,1.591,-0.139814642,-0.24351867,1,0,0,0.8317,Basalt_rect,2,0.832,1,0,0,0,0,1,,,,,,,,,,,,,
655fd680f3dda8307b3db029,SCN,2024-06-20_14h00.05.506,LearnStrategy,2023.2.3,Win32,59.88023952,2,1,2,-0.063888868,0.091666619,1,0,0,1.012,Basalt_01,2,01,4,4,1.012,-0.124999894,-0.252777894,1,0,0,0.7536,Basalt_rect,2,0.754,1,1,0,1,0,1,,,,,,,,,,,,,
655fd680f3dda8307b3db029,SCN,2024-06-20_14h00.05.506,LearnStrategy,2023.2.3,Win32,59.88023952,2,1,3,-0.208333227,-0.109259288,1,0,0,1.3419,Diorite_15,3,15,3,3,1.342,0.363889058,-0.402777778,1,0,0,1.2175,Pumice_rect,8,1.217,0,2,0,2,0,1,,,,,,,,,,,,,
655fd680f3dda8307b3db029,SCN,2024-06-20_14h00.05.506,LearnStrategy,2023.2.3,Win32,59.88023952,2,1,4,0.085185369,-0.283333355,1,0,0,2.0101,Peridotite_06,7,06,2,5,2.01,0.349074258,-0.23240757,1,0,0,1.3851,Gabbro_rect,4,1.385,0,3,0,3,0,1,,,,,,,,,,,,,
655fd680f3dda8307b3db029,SCN,2024-06-20_14h00.05.506,LearnStrategy,2023.2.3,Win32,59.88023952,2,1,5,-0.05555545,-0.087963051,1,0,0,0.9277,Andesite_09,1,09,3,4,0.928,0.124074088,-0.258333418,1,0,0,1.4064,Diorite_rect,3,1.406,0,4,0,4,0,1,,,,,,,,,,,,,
655fd680f3dda8307b3db029,SCN,2024-06-20_14h00.05.506,LearnStrategy,2023.2.3,Win32,59.88023952,2,1,6,-0.432407379,0.44537036,1,0,0,1.4586,Gabbro_14,4,14,6,2,1.459,0.097222222,-0.412037108,1,0,0,1.9626,Peridotite_rect,7,1.963,0,5,0,5,0,1,,,,,,,,,,,,,
655fd680f3dda8307b3db029,SCN,2024-06-20_14h00.05.506,LearnStrategy,2023.2.3,Win32,59.88023952,2,1,7,0.411111302,0.245370362,1,0,0,1.5758,Diorite_06,3,06,5,7,1.576,0.129629665,-0.411111302,1,0,0,2.467,Peridotite_rect,7,2.467,0,6,0,6,0,1,,,,,,,,,,,,,
655fd680f3dda8307b3db029,SCN,2024-06-20_14h00.05.506,LearnStrategy,2023.2.3,Win32,59.88023952,2,1,8,0.239814864,0.243518511,1,0,0,1.2108,Gabbro_10,4,10,5,6,1.211,0.171296332,-0.242592706,1,0,0,2.4957,Diorite_rect,3,2.496,0,7,0,7,0,1,,,,,,,,,,,,,
655fd680f3dda8307b3db029,SCN,2024-06-20_14h00.05.506,LearnStrategy,2023.2.3,Win32,59.88023952,2,1,9,-0.584259245,-0.113888899,1,0,0,1.7758,Obsidian_02,5,02,3,1,1.776,-0.426851749,-0.385185348,1,0,0,1.2481,Obsidian_rect,5,1.248,1,8,0,8,0,1,,,,,,,,,,,,,
655fd680f3dda8307b3db029,SCN,2024-06-20_14h00.05.506,LearnStrategy,2023.2.3,Win32,59.88023952,2,1,10,0.56388908,0.08333328,1,0,0,0.9931,Basalt_04,2,04,4,8,0.993,-0.090740628,-0.235185358,1,0,0,0.7849,Basalt_rect,2,0.785,1,9,0,9,0,1,,,,,,,,,,,,,
655fd680f3dda8307b3db029,SCN,2024-06-20_14h00.05.506,LearnStrategy,2023.2.3,Win32,59.88023952,2,1,11,0.538888931,-0.259259277,1,0,0,1.1759,Pumice_08,8,08,2,8,1.176,0.382407612,-0.239814917,1,0,0,1.4771,Gabbro_rect,4,1.477,0,10,0,10,0,1,,,,,,,,,,,,,
655fd680f3dda8307b3db029,SCN,2024-06-20_14h00.05.506,LearnStrategy,2023.2.3,Win32,59.88023952,2,1,12,-0.053703626,0.240740697,1,0,0,1.9599,Pegmatite_10,6,10,5,4,1.96,-0.111111005,-0.406481637,1,0,0,1.0182,Pegmatite_rect,6,1.018,1,11,0,11,0,1,,,,,,,,,,,,,
655fd680f3dda8307b3db029,SCN,2024-06-20_14h00.05.506,LearnStrategy,2023.2.3,Win32,59.88023952,2,1,13,0.412963019,0.419444442,1,0,0,1.3258,Obsidian_16,5,16,6,7,1.326,-0.389814801,-0.395370377,1,0,0,1.4641,Obsidian_rect,5,1.464,1,12,0,12,0,1,,,,,,,,,,,,,
655fd680f3dda8307b3db029,SCN,2024-06-20_14h00.05.506,LearnStrategy,2023.2.3,Win32,59.88023952,2,1,14,-0.072222127,0.409259246,1,0,0,1.1599,Pumice_04,8,04,6,4,1.16,0.154629813,-0.406481637,1,0,0,1.2931,Peridotite_rect,7,1.293,0,13,0,13,0,1,,,,,,,,,,,,,
655fd680f3dda8307b3db029,SCN,2024-06-20_14h00.05.506,LearnStrategy,2023.2.3,Win32,59.88023952,2,1,15,-0.222222116,0.371296273,1,0,0,1.4433,Peridotite_02,7,02,6,3,1.443,0.387962977,-0.412963019,1,0,0,1.7468,Pumice_rect,8,1.747,0,14,0,14,0,1,,,,,,,,,,,,,
655fd680f3dda8307b3db029,SCN,2024-06-20_14h00.05.506,LearnStrategy,2023.2.3,Win32,59.88023952,2,1,16,0.362037235,-0.079629739,1,0,0,2.4081,Obsidian_07,5,07,3,7,2.408,0.186111132,-0.407407549,1,0,0,2.0527,Peridotite_rect,7,2.053,0,15,0,15,0,1,,,,,,,,,,,,,
655fd680f3dda8307b3db029,SCN,2024-06-20_14h00.05.506,LearnStrategy,2023.2.3,Win32,59.88023952,2,2,1,,,,,,,,8,14,,,,,,,,,,,3,2.029,0,,,,,,0.169444614,-0.257407559,1,0,0,2.0294,Diorite_rect,0,0,0,0,1,
655fd680f3dda8307b3db029,SCN,2024-06-20_14h00.05.506,LearnStrategy,2023.2.3,Win32,59.88023952,2,2,2,,,,,,,,3,12,,,,,,,,,,,6,0.355,0,,,,,,-0.112036864,-0.392592748,1,0,0,0.355,Pegmatite_rect,1,0,1,0,1,
655fd680f3dda8307b3db029,SCN,2024-06-20_14h00.05.506,LearnStrategy,2023.2.3,Win32,59.88023952,2,2,3,,,,,,,,4,11,,,,,,,,,,,2,0.919,0,,,,,,-0.14444436,-0.250926018,1,0,0,0.9194,Basalt_rect,2,0,2,0,1,
655fd680f3dda8307b3db029,SCN,2024-06-20_14h00.05.506,LearnStrategy,2023.2.3,Win32,59.88023952,2,2,4,,,,,,,,1,01,,,,,,,,,,,1,1.248,1,,,,,,-0.349999905,-0.240740882,1,0,0,1.2484,Andesite_rect,3,0,3,0,1,
655fd680f3dda8307b3db029,SCN,2024-06-20_14h00.05.506,LearnStrategy,2023.2.3,Win32,59.88023952,2,2,5,,,,,,,,3,02,,,,,,,,,,,7,1.25,0,,,,,,0.062963168,-0.392592748,1,0,0,1.2501,Peridotite_rect,4,0,4,0,1,
655fd680f3dda8307b3db029,SCN,2024-06-20_14h00.05.506,LearnStrategy,2023.2.3,Win32,59.88023952,2,2,6,,,,,,,,7,08,,,,,,,,,,,4,1.104,0,,,,,,0.33148151,-0.250926018,1,0,0,1.1044,Gabbro_rect,5,0,5,0,1,
655fd680f3dda8307b3db029,SCN,2024-06-20_14h00.05.506,LearnStrategy,2023.2.3,Win32,59.88023952,2,2,7,,,,,,,,6,05,,,,,,,,,,,8,1.032,0,,,,,,0.347222434,-0.399074131,1,0,0,1.0317,Pumice_rect,6,0,6,0,1,
655fd680f3dda8307b3db029,SCN,2024-06-20_14h00.05.506,LearnStrategy,2023.2.3,Win32,59.88023952,2,2,8,,,,,,,,6,11,,,,,,,,,,,2,0.929,0,,,,,,-0.114814652,-0.239814917,1,0,0,0.9294,Basalt_rect,7,0,7,0,1,
655fd680f3dda8307b3db029,SCN,2024-06-20_14h00.05.506,LearnStrategy,2023.2.3,Win32,59.88023952,2,2,9,,,,,,,,5,06,,,,,,,,,,,6,2.879,0,,,,,,-0.112036864,-0.420370526,1,0,0,2.8791,Pegmatite_rect,8,0,8,0,1,
655fd680f3dda8307b3db029,SCN,2024-06-20_14h00.05.506,LearnStrategy,2023.2.3,Win32,59.88023952,2,2,10,,,,,,,,4,09,,,,,,,,,,,1,1.399,0,,,,,,-0.364814811,-0.261111206,1,0,0,1.3993,Andesite_rect,9,0,9,0,1,
655fd680f3dda8307b3db029,SCN,2024-06-20_14h00.05.506,LearnStrategy,2023.2.3,Win32,59.88023952,2,2,11,,,,,,,,5,14,,,,,,,,,,,7,1.381,0,,,,,,0.092592769,-0.411111302,1,0,0,1.3812,Peridotite_rect,10,0,10,0,1,
655fd680f3dda8307b3db029,SCN,2024-06-20_14h00.05.506,LearnStrategy,2023.2.3,Win32,59.88023952,2,2,12,,,,,,,,2,14,,,,,,,,,,,6,1.15,0,,,,,,-0.100925763,-0.399074131,1,0,0,1.15,Pegmatite_rect,11,0,11,0,1,
655fd680f3dda8307b3db029,SCN,2024-06-20_14h00.05.506,LearnStrategy,2023.2.3,Win32,59.88023952,2,2,13,,,,,,,,8,09,,,,,,,,,,,3,1.582,0,,,,,,0.195370568,-0.245370388,1,0,0,1.5815,Diorite_rect,12,0,12,0,1,
655fd680f3dda8307b3db029,SCN,2024-06-20_14h00.05.506,LearnStrategy,2023.2.3,Win32,59.88023952,2,2,14,,,,,,,,2,02,,,,,,,,,,,2,1.481,1,,,,,,-0.070370197,-0.245370388,1,0,0,1.4811,Basalt_rect,13,0,13,0,1,
655fd680f3dda8307b3db029,SCN,2024-06-20_14h00.05.506,LearnStrategy,2023.2.3,Win32,59.88023952,2,2,15,,,,,,,,1,04,,,,,,,,,,,8,3.498,0,,,,,,0.407407443,-0.387963136,1,0,0,3.4983,Pumice_rect,14,0,14,0,1,
655fd680f3dda8307b3db029,SCN,2024-06-20_14h00.05.506,LearnStrategy,2023.2.3,Win32,59.88023952,2,2,16,,,,,,,,7,05,,,,,,,,,,,7,2.517,1,,,,,,0.121296353,-0.385185348,1,0,0,2.5168,Peridotite_rect,15,0,15,0,1,
655fd680f3dda8307b3db029,SCN,2024-06-20_14h00.05.506,LearnStrategy,2023.2.3,Win32,59.88023952,3,1,1,0.564815097,0.145370324,1,0,0,1.2438,Basalt_04,2,04,4,8,1.244,-0.143518501,-0.254629771,1,0,0,0.7336,Basalt_rect,2,0.734,1,0,0,0,0,1,,,,,,,,,,,,,
655fd680f3dda8307b3db029,SCN,2024-06-20_14h00.05.506,LearnStrategy,2023.2.3,Win32,59.88023952,3,1,2,0.423148367,0.398148146,1,0,0,1.2096,Obsidian_16,5,16,6,7,1.21,-0.413888878,-0.403703902,1,0,0,1.4157,Obsidian_rect,5,1.416,1,1,0,1,0,1,,,,,,,,,,,,,
655fd680f3dda8307b3db029,SCN,2024-06-20_14h00.05.506,LearnStrategy,2023.2.3,Win32,59.88023952,3,1,3,-0.244444423,-0.09444454,1,0,0,0.9422,Diorite_15,3,15,3,3,0.942,0.106481658,-0.248148176,1,0,0,3.6459,Diorite_rect,3,3.646,1,2,0,2,0,1,,,,,,,,,,,,,
655fd680f3dda8307b3db029,SCN,2024-06-20_14h00.05.506,LearnStrategy,2023.2.3,Win32,59.88023952,3,1,4,-0.592592584,0.416666653,1,0,0,1.6088,Andesite_03,1,03,6,1,1.609,0.122222265,-0.421296438,1,0,0,1.4484,Peridotite_rect,7,1.448,0,3,0,3,0,1,,,,,,,,,,,,,
655fd680f3dda8307b3db029,SCN,2024-06-20_14h00.05.506,LearnStrategy,2023.2.3,Win32,59.88023952,3,1,5,-0.058333238,0.226851808,1,0,0,1.7104,Pegmatite_10,6,10,5,4,1.71,-0.171296279,-0.39351866,1,0,0,3.5001,Pegmatite_rect,6,3.5,1,4,0,4,0,1,,,,,,,,,,,,,
655fd680f3dda8307b3db029,SCN,2024-06-20_14h00.05.506,LearnStrategy,2023.2.3,Win32,59.88023952,3,1,6,-0.064814674,0.052777767,1,0,0,2.9904,Basalt_01,2,01,4,4,2.99,-0.137962871,-0.23240757,1,0,0,0.8495,Basalt_rect,2,0.85,1,5,0,5,0,1,,,,,,,,,,,,,
655fd680f3dda8307b3db029,SCN,2024-06-20_14h00.05.506,LearnStrategy,2023.2.3,Win32,59.88023952,3,1,7,0.240740776,-0.273148166,1,0,0,1.2785,Andesite_14,1,14,2,6,1.279,-0.10648134,-0.384259383,1,0,0,1.4102,Pegmatite_rect,6,1.41,0,6,0,6,0,1,,,,,,,,,,,,,
655fd680f3dda8307b3db029,SCN,2024-06-20_14h00.05.506,LearnStrategy,2023.2.3,Win32,59.88023952,3,1,8,0.436111132,0.429629617,1,0,0,2.0917,Obsidian_16,5,16,6,7,2.092,-0.384259171,-0.406481637,1,0,0,1.2533,Obsidian_rect,5,1.253,1,7,0,7,0,1,,,,,,,,,,,,,
655fd680f3dda8307b3db029,SCN,2024-06-20_14h00.05.506,LearnStrategy,2023.2.3,Win32,59.88023952,3,1,9,0.101851887,-0.423148155,1,0,0,0.9601,Peridotite_14,7,14,1,5,0.96,0.371296353,-0.400925954,1,0,0,2.347,Pumice_rect,8,2.347,0,8,0,8,0,1,,,,,,,,,,,,,
655fd680f3dda8307b3db029,SCN,2024-06-20_14h00.05.506,LearnStrategy,2023.2.3,Win32,59.88023952,3,1,10,-0.092592451,0.111111058,1,0,0,1.0588,Basalt_01,2,01,4,4,1.059,-0.150925848,-0.245370388,1,0,0,0.747,Basalt_rect,2,0.747,1,9,0,9,0,1,,,,,,,,,,,,,
655fd680f3dda8307b3db029,SCN,2024-06-20_14h00.05.506,LearnStrategy,2023.2.3,Win32,59.88023952,3,1,11,-0.40370369,0.278703663,1,0,0,1.2278,Gabbro_13,4,13,5,2,1.228,0.40277799,-0.238889005,1,0,0,1.4141,Gabbro_rect,4,1.414,1,10,0,10,0,1,,,,,,,,,,,,,
655fd680f3dda8307b3db029,SCN,2024-06-20_14h00.05.506,LearnStrategy,2023.2.3,Win32,59.88023952,3,1,12,0.547222455,0.398148146,1,0,0,3.2777,Pumice_03,8,03,6,8,3.278,0.139815013,-0.255555577,1,0,0,1.4269,Diorite_rect,3,1.427,0,11,0,11,0,1,,,,,,,,,,,,,
655fd680f3dda8307b3db029,SCN,2024-06-20_14h00.05.506,LearnStrategy,2023.2.3,Win32,59.88023952,3,1,13,0.059259309,-0.403703902,1,0,0,1.1764,Peridotite_14,7,14,1,5,1.176,0.086111281,-0.395370377,1,0,0,1.0645,Peridotite_rect,7,1.064,1,12,0,12,0,1,,,,,,,,,,,,,
655fd680f3dda8307b3db029,SCN,2024-06-20_14h00.05.506,LearnStrategy,2023.2.3,Win32,59.88023952,3,1,14,0.380555577,0.08333328,1,0,0,1.8948,Pumice_13,8,13,4,7,1.895,0.135185242,-0.402777778,1,0,0,1.1805,Peridotite_rect,7,1.18,0,13,0,13,0,1,,,,,,,,,,,,,
655fd680f3dda8307b3db029,SCN,2024-06-20_14h00.05.506,LearnStrategy,2023.2.3,Win32,59.88023952,3,1,15,0.548148473,-0.421296438,1,0,0,1.1763,Basalt_12,2,12,1,8,1.176,-0.102777693,-0.241666688,1,0,0,1.5313,Basalt_rect,2,1.531,1,14,0,14,0,1,,,,,,,,,,,,,
655fd680f3dda8307b3db029,SCN,2024-06-20_14h00.05.506,LearnStrategy,2023.2.3,Win32,59.88023952,3,1,16,-0.12314807,0.42407406,1,0,0,1.4081,Pumice_04,8,04,6,4,1.408,0.105555746,-0.383333418,1,0,0,1.5306,Peridotite_rect,7,1.531,0,15,0,15,0,1,,,,,,,,,,,,,
655fd680f3dda8307b3db029,SCN,2024-06-20_14h00.05.506,LearnStrategy,2023.2.3,Win32,59.88023952,3,2,1,,,,,,,,4,16,,,,,,,,,,,4,1.144,1,,,,,,0.353703923,-0.241666688,1,0,0,1.1445,Gabbro_rect,0,0,0,0,1,
655fd680f3dda8307b3db029,SCN,2024-06-20_14h00.05.506,LearnStrategy,2023.2.3,Win32,59.88023952,3,2,2,,,,,,,,6,07,,,,,,,,,,,3,2.447,0,,,,,,0.08888891,-0.262037065,1,0,0,2.4472,Diorite_rect,1,0,1,0,1,
655fd680f3dda8307b3db029,SCN,2024-06-20_14h00.05.506,LearnStrategy,2023.2.3,Win32,59.88023952,3,2,3,,,,,,,,2,11,,,,,,,,,,,7,2.014,0,,,,,,0.125926124,-0.387037065,1,0,0,2.0141,Peridotite_rect,2,0,2,0,1,
655fd680f3dda8307b3db029,SCN,2024-06-20_14h00.05.506,LearnStrategy,2023.2.3,Win32,59.88023952,3,2,4,,,,,,,,1,06,,,,,,,,,,,1,1.732,1,,,,,,-0.425925891,-0.246296459,1,0,0,1.7323,Andesite_rect,3,0,3,0,1,
655fd680f3dda8307b3db029,SCN,2024-06-20_14h00.05.506,LearnStrategy,2023.2.3,Win32,59.88023952,3,2,5,,,,,,,,7,04,,,,,,,,,,,6,1.082,0,,,,,,-0.173147996,-0.385185348,1,0,0,1.0824,Pegmatite_rect,4,0,4,0,1,
655fd680f3dda8307b3db029,SCN,2024-06-20_14h00.05.506,LearnStrategy,2023.2.3,Win32,59.88023952,3,2,6,,,,,,,,3,10,,,,,,,,,,,4,1.449,0,,,,,,0.387962977,-0.257407559,1,0,0,1.4486,Gabbro_rect,5,0,5,0,1,
655fd680f3dda8307b3db029,SCN,2024-06-20_14h00.05.506,LearnStrategy,2023.2.3,Win32,59.88023952,3,2,7,,,,,,,,5,11,,,,,,,,,,,5,1.713,1,,,,,,-0.41481479,-0.392592748,1,0,0,1.7127,Obsidian_rect,6,0,6,0,1,
655fd680f3dda8307b3db029,SCN,2024-06-20_14h00.05.506,LearnStrategy,2023.2.3,Win32,59.88023952,3,2,8,,,,,,,,4,15,,,,,,,,,,,7,3.13,0,,,,,,0.077777969,-0.401851972,1,0,0,3.1303,Peridotite_rect,7,0,7,0,1,
655fd680f3dda8307b3db029,SCN,2024-06-20_14h00.05.506,LearnStrategy,2023.2.3,Win32,59.88023952,3,2,9,,,,,,,,8,10,,,,,,,,,,,2,1.284,0,,,,,,-0.081481404,-0.262963136,1,0,0,1.2837,Basalt_rect,8,0,8,0,1,
655fd680f3dda8307b3db029,SCN,2024-06-20_14h00.05.506,LearnStrategy,2023.2.3,Win32,59.88023952,3,2,10,,,,,,,,2,10,,,,,,,,,,,5,2.365,0,,,,,,-0.39814806,-0.407407549,1,0,0,2.3653,Obsidian_rect,9,0,9,0,1,
655fd680f3dda8307b3db029,SCN,2024-06-20_14h00.05.506,LearnStrategy,2023.2.3,Win32,59.88023952,3,2,11,,,,,,,,6,09,,,,,,,,,,,6,1.352,1,,,,,,-0.152777672,-0.387963136,1,0,0,1.3518,Pegmatite_rect,10,0,10,0,1,
655fd680f3dda8307b3db029,SCN,2024-06-20_14h00.05.506,LearnStrategy,2023.2.3,Win32,59.88023952,3,2,12,,,,,,,,5,12,,,,,,,,,,,5,1.213,1,,,,,,-0.45833328,-0.385185348,1,0,0,1.2132,Obsidian_rect,11,0,11,0,1,
655fd680f3dda8307b3db029,SCN,2024-06-20_14h00.05.506,LearnStrategy,2023.2.3,Win32,59.88023952,3,2,13,,,,,,,,1,02,,,,,,,,,,,8,1.233,0,,,,,,0.372222265,-0.41018539,1,0,0,1.2325,Pumice_rect,12,0,12,0,1,
655fd680f3dda8307b3db029,SCN,2024-06-20_14h00.05.506,LearnStrategy,2023.2.3,Win32,59.88023952,3,2,14,,,,,,,,7,13,,,,,,,,,,,7,0.968,1,,,,,,0.110185199,-0.387963136,1,0,0,0.9677,Peridotite_rect,13,0,13,0,1,
655fd680f3dda8307b3db029,SCN,2024-06-20_14h00.05.506,LearnStrategy,2023.2.3,Win32,59.88023952,3,2,15,,,,,,,,8,15,,,,,,,,,,,1,1.12,0,,,,,,-0.449074003,-0.247222318,1,0,0,1.1205,Andesite_rect,14,0,14,0,1,
655fd680f3dda8307b3db029,SCN,2024-06-20_14h00.05.506,LearnStrategy,2023.2.3,Win32,59.88023952,3,2,16,,,,,,,,3,16,,,,,,,,,,,6,1.283,0,,,,,,-0.103703552,-0.416666667,1,0,0,1.2829,Pegmatite_rect,15,0,15,0,1,
655fd680f3dda8307b3db029,SCN,2024-06-20_14h00.05.506,LearnStrategy,2023.2.3,Win32,59.88023952,4,1,1,-0.069444338,0.087036981,1,0,0,1.2767,Basalt_01,2,01,4,4,1.277,-0.119444423,-0.257407559,1,0,0,1.3977,Basalt_rect,2,1.398,1,0,0,0,0,1,,,,,,,,,,,,,
655fd680f3dda8307b3db029,SCN,2024-06-20_14h00.05.506,LearnStrategy,2023.2.3,Win32,59.88023952,4,1,2,0.594444487,-0.102777799,1,0,0,1.6607,Obsidian_05,5,05,3,8,1.661,-0.338888804,-0.386111206,1,0,0,1.2781,Obsidian_rect,5,1.278,1,1,0,1,0,1,,,,,,,,,,,,,
655fd680f3dda8307b3db029,SCN,2024-06-20_14h00.05.506,LearnStrategy,2023.2.3,Win32,59.88023952,4,1,3,-0.087036875,0.237962961,1,0,0,1.2087,Pegmatite_10,6,10,5,4,1.209,-0.082407316,-0.398148219,1,0,0,1.1977,Pegmatite_rect,6,1.198,1,2,0,2,0,1,,,,,,,,,,,,,
655fd680f3dda8307b3db029,SCN,2024-06-20_14h00.05.506,LearnStrategy,2023.2.3,Win32,59.88023952,4,1,4,-0.600925922,0.394444433,1,0,0,2.026,Andesite_03,1,03,6,1,2.026,0.369444635,-0.399074131,1,0,0,1.5306,Pumice_rect,8,1.531,0,3,0,3,0,1,,,,,,,,,,,,,
655fd680f3dda8307b3db029,SCN,2024-06-20_14h00.05.506,LearnStrategy,2023.2.3,Win32,59.88023952,4,1,5,-0.530555513,-0.23240757,1,0,0,1.6945,Basalt_08,2,08,2,1,1.695,0.153703902,-0.39351866,1,0,0,1.4383,Peridotite_rect,7,1.438,0,4,0,4,0,1,,,,,,,,,,,,,
655fd680f3dda8307b3db029,SCN,2024-06-20_14h00.05.506,LearnStrategy,2023.2.3,Win32,59.88023952,4,1,6,0.423148367,0.416666653,1,0,0,2.1747,Obsidian_16,5,16,6,7,2.175,-0.375925912,-0.402777778,1,0,0,1.1719,Obsidian_rect,5,1.172,1,5,0,5,0,1,,,,,,,,,,,,,
655fd680f3dda8307b3db029,SCN,2024-06-20_14h00.05.506,LearnStrategy,2023.2.3,Win32,59.88023952,4,1,7,0.390740924,-0.267592695,1,0,0,1.21,Basalt_16,2,16,2,7,1.21,-0.117592441,-0.256481595,1,0,0,1.0975,Basalt_rect,2,1.097,1,6,0,6,0,1,,,,,,,,,,,,,
655fd680f3dda8307b3db029,SCN,2024-06-20_14h00.05.506,LearnStrategy,2023.2.3,Win32,59.88023952,4,1,8,0.093518575,-0.444444444,1,0,0,1.0601,Peridotite_14,7,14,1,5,1.06,0.073148198,-0.398148219,1,0,0,0.867,Peridotite_rect,7,0.867,1,7,0,7,0,1,,,,,,,,,,,,,
655fd680f3dda8307b3db029,SCN,2024-06-20_14h00.05.506,LearnStrategy,2023.2.3,Win32,59.88023952,4,1,9,-0.569444391,0.113888847,1,0,0,1.0754,Andesite_16,1,16,4,1,1.075,-0.193518427,-0.404629707,1,0,0,1.2142,Pegmatite_rect,6,1.214,0,8,0,8,0,1,,,,,,,,,,,,,
655fd680f3dda8307b3db029,SCN,2024-06-20_14h00.05.506,LearnStrategy,2023.2.3,Win32,59.88023952,4,1,10,0.215740946,0.076851765,1,0,0,1.276,Obsidian_08,5,08,4,6,1.276,-0.325925827,-0.402777778,1,0,0,1.4676,Obsidian_rect,5,1.468,1,9,0,9,0,1,,,,,,,,,,,,,
655fd680f3dda8307b3db029,SCN,2024-06-20_14h00.05.506,LearnStrategy,2023.2.3,Win32,59.88023952,4,1,11,0.542592896,0.282407377,1,0,0,1.4416,Andesite_11,1,11,5,8,1.442,0.376852036,-0.237963041,1,0,0,1.3769,Gabbro_rect,4,1.377,0,10,0,10,0,1,,,,,,,,,,,,,
655fd680f3dda8307b3db029,SCN,2024-06-20_14h00.05.506,LearnStrategy,2023.2.3,Win32,59.88023952,4,1,12,-0.086111016,0.254629585,1,0,0,0.9447,Pegmatite_10,6,10,5,4,0.945,-0.121296194,-0.387963136,1,0,0,0.9974,Pegmatite_rect,6,0.997,1,11,0,11,0,1,,,,,,,,,,,,,
655fd680f3dda8307b3db029,SCN,2024-06-20_14h00.05.506,LearnStrategy,2023.2.3,Win32,59.88023952,4,1,13,-0.519444386,-0.25185193,1,0,0,1.109,Basalt_08,2,08,2,1,1.109,-0.391666571,-0.267592695,1,0,0,1.0809,Andesite_rect,1,1.081,0,12,0,12,0,1,,,,,,,,,,,,,
655fd680f3dda8307b3db029,SCN,2024-06-20_14h00.05.506,LearnStrategy,2023.2.3,Win32,59.88023952,4,1,14,0.064814991,-0.420370526,1,0,0,1.0014,Peridotite_14,7,14,1,5,1.001,-0.109259182,-0.412037108,1,0,0,0.9394,Pegmatite_rect,6,0.939,0,13,0,13,0,1,,,,,,,,,,,,,
655fd680f3dda8307b3db029,SCN,2024-06-20_14h00.05.506,LearnStrategy,2023.2.3,Win32,59.88023952,4,1,15,0.409259478,-0.381481595,1,0,0,1.1628,Pegmatite_06,6,06,1,7,1.163,0.139815013,-0.396296501,1,0,0,1.0951,Peridotite_rect,7,1.095,0,14,0,14,0,1,,,,,,,,,,,,,
655fd680f3dda8307b3db029,SCN,2024-06-20_14h00.05.506,LearnStrategy,2023.2.3,Win32,59.88023952,4,1,16,0.209259457,0.08333328,1,0,0,1.0422,Obsidian_08,5,08,4,6,1.042,-0.352777693,-0.39166673,1,0,0,1.0873,Obsidian_rect,5,1.087,1,15,0,15,0,1,,,,,,,,,,,,,
655fd680f3dda8307b3db029,SCN,2024-06-20_14h00.05.506,LearnStrategy,2023.2.3,Win32,59.88023952,4,2,1,,,,,,,,3,07,,,,,,,,,,,3,1.149,1,,,,,,0.119444635,-0.25185193,1,0,0,1.1487,Diorite_rect,0,0,0,0,1,
655fd680f3dda8307b3db029,SCN,2024-06-20_14h00.05.506,LearnStrategy,2023.2.3,Win32,59.88023952,4,2,2,,,,,,,,1,10,,,,,,,,,,,6,0.384,0,,,,,,-0.112036864,-0.378703806,1,0,0,0.3841,Pegmatite_rect,1,0,1,0,1,
655fd680f3dda8307b3db029,SCN,2024-06-20_14h00.05.506,LearnStrategy,2023.2.3,Win32,59.88023952,4,2,3,,,,,,,,3,09,,,,,,,,,,,1,1.616,0,,,,,,-0.335185157,-0.240740882,1,0,0,1.6162,Andesite_rect,2,0,2,0,1,
655fd680f3dda8307b3db029,SCN,2024-06-20_14h00.05.506,LearnStrategy,2023.2.3,Win32,59.88023952,4,2,4,,,,,,,,2,10,,,,,,,,,,,3,0.512,0,,,,,,0.194444656,-0.270370483,1,0,0,0.5119,Diorite_rect,3,0,3,0,1,
655fd680f3dda8307b3db029,SCN,2024-06-20_14h00.05.506,LearnStrategy,2023.2.3,Win32,59.88023952,4,2,5,,,,,,,,6,05,,,,,,,,,,,7,0.366,0,,,,,,0.133333524,-0.415740861,1,0,0,0.3659,Peridotite_rect,4,0,4,0,1,
655fd680f3dda8307b3db029,SCN,2024-06-20_14h00.05.506,LearnStrategy,2023.2.3,Win32,59.88023952,4,2,6,,,,,,,,2,06,,,,,,,,,,,2,0.449,1,,,,,,-0.086111016,-0.245370388,1,0,0,0.4493,Basalt_rect,5,0,5,0,1,
655fd680f3dda8307b3db029,SCN,2024-06-20_14h00.05.506,LearnStrategy,2023.2.3,Win32,59.88023952,4,2,7,,,,,,,,5,09,,,,,,,,,,,5,1.601,1,,,,,,-0.448148092,-0.394444466,1,0,0,1.601,Obsidian_rect,6,0,6,0,1,
655fd680f3dda8307b3db029,SCN,2024-06-20_14h00.05.506,LearnStrategy,2023.2.3,Win32,59.88023952,4,2,8,,,,,,,,1,02,,,,,,,,,,,6,1.198,0,,,,,,-0.12314807,-0.406481637,1,0,0,1.1983,Pegmatite_rect,7,0,7,0,1,
655fd680f3dda8307b3db029,SCN,2024-06-20_14h00.05.506,LearnStrategy,2023.2.3,Win32,59.88023952,4,2,9,,,,,,,,8,02,,,,,,,,,,,2,1.216,0,,,,,,-0.085185157,-0.262963136,1,0,0,1.2158,Basalt_rect,8,0,8,0,1,
655fd680f3dda8307b3db029,SCN,2024-06-20_14h00.05.506,LearnStrategy,2023.2.3,Win32,59.88023952,4,2,10,,,,,,,,8,09,,,,,,,,,,,3,0.748,0,,,,,,0.138889101,-0.260185348,1,0,0,0.7481,Diorite_rect,9,0,9,0,1,
655fd680f3dda8307b3db029,SCN,2024-06-20_14h00.05.506,LearnStrategy,2023.2.3,Win32,59.88023952,4,2,11,,,,,,,,6,09,,,,,,,,,,,6,0.883,1,,,,,,-0.137036959,-0.409259266,1,0,0,0.8825,Pegmatite_rect,10,0,10,0,1,
655fd680f3dda8307b3db029,SCN,2024-06-20_14h00.05.506,LearnStrategy,2023.2.3,Win32,59.88023952,4,2,12,,,,,,,,4,16,,,,,,,,,,,2,1.2,0,,,,,,-0.074999915,-0.255555577,1,0,0,1.1996,Basalt_rect,11,0,11,0,1,
655fd680f3dda8307b3db029,SCN,2024-06-20_14h00.05.506,LearnStrategy,2023.2.3,Win32,59.88023952,4,2,13,,,,,,,,7,04,,,,,,,,,,,1,1.097,0,,,,,,-0.364814811,-0.23055564,1,0,0,1.0973,Andesite_rect,12,0,12,0,1,
655fd680f3dda8307b3db029,SCN,2024-06-20_14h00.05.506,LearnStrategy,2023.2.3,Win32,59.88023952,4,2,14,,,,,,,,5,06,,,,,,,,,,,5,1.266,1,,,,,,-0.413888878,-0.397222413,1,0,0,1.2663,Obsidian_rect,13,0,13,0,1,
655fd680f3dda8307b3db029,SCN,2024-06-20_14h00.05.506,LearnStrategy,2023.2.3,Win32,59.88023952,4,2,15,,,,,,,,7,13,,,,,,,,,,,7,0.814,1,,,,,,0.143518554,-0.412963019,1,0,0,0.8141,Peridotite_rect,14,0,14,0,1,
655fd680f3dda8307b3db029,SCN,2024-06-20_14h00.05.506,LearnStrategy,2023.2.3,Win32,59.88023952,4,2,16,,,,,,,,4,15,,,,,,,,,,,4,1.083,1,,,,,,0.375000212,-0.250000106,1,0,0,1.0828,Gabbro_rect,15,0,15,0,1,
655fd680f3dda8307b3db029,SCN,2024-06-20_14h00.05.506,LearnStrategy,2023.2.3,Win32,59.88023952,5,1,1,-0.082407316,0.111111058,1,0,0,1.0568,Basalt_01,2,01,4,4,1.057,-0.15185176,-0.234259288,1,0,0,0.7624,Basalt_rect,2,0.762,1,0,0,0,0,1,,,,,,,,,,,,,
655fd680f3dda8307b3db029,SCN,2024-06-20_14h00.05.506,LearnStrategy,2023.2.3,Win32,59.88023952,5,1,2,-0.069444338,0.277777778,1,0,0,0.8103,Pegmatite_10,6,10,5,4,0.81,-0.146296183,-0.402777778,1,0,0,0.9014,Pegmatite_rect,6,0.901,1,1,0,1,0,1,,,,,,,,,,,,,
655fd680f3dda8307b3db029,SCN,2024-06-20_14h00.05.506,LearnStrategy,2023.2.3,Win32,59.88023952,5,1,3,0.395370589,0.439814813,1,0,0,1.2256,Obsidian_16,5,16,6,7,1.226,-0.388888889,-0.401851972,1,0,0,1.1339,Obsidian_rect,5,1.134,1,2,0,2,0,1,,,,,,,,,,,,,
655fd680f3dda8307b3db029,SCN,2024-06-20_14h00.05.506,LearnStrategy,2023.2.3,Win32,59.88023952,5,1,4,0.413888931,-0.412037108,1,0,0,1.1603,Pegmatite_06,6,06,1,7,1.16,-0.326851845,-0.240740882,1,0,0,1.2164,Andesite_rect,1,1.216,0,3,0,3,0,1,,,,,,,,,,,,,
655fd680f3dda8307b3db029,SCN,2024-06-20_14h00.05.506,LearnStrategy,2023.2.3,Win32,59.88023952,5,1,5,-0.553703652,-0.091666751,1,0,0,2.0596,Obsidian_02,5,02,3,1,2.06,-0.421296226,-0.378703806,1,0,0,0.9653,Obsidian_rect,5,0.965,1,4,0,4,0,1,,,,,,,,,,,,,
655fd680f3dda8307b3db029,SCN,2024-06-20_14h00.05.506,LearnStrategy,2023.2.3,Win32,59.88023952,5,1,6,-0.116666582,0.090740654,1,0,0,1.1916,Basalt_01,2,01,4,4,1.192,-0.095370293,-0.239814917,1,0,0,0.7854,Basalt_rect,2,0.785,1,5,0,5,0,1,,,,,,,,,,,,,
655fd680f3dda8307b3db029,SCN,2024-06-20_14h00.05.506,LearnStrategy,2023.2.3,Win32,59.88023952,5,1,7,0.562963168,0.130555497,1,0,0,1.2081,Basalt_04,2,04,4,8,1.208,-0.075925774,-0.253703806,1,0,0,0.9868,Basalt_rect,2,0.987,1,6,0,6,0,1,,,,,,,,,,,,,
655fd680f3dda8307b3db029,SCN,2024-06-20_14h00.05.506,LearnStrategy,2023.2.3,Win32,59.88023952,5,1,8,0.404629813,0.267592563,1,0,0,1.5599,Diorite_06,3,06,5,7,1.56,-0.104629517,-0.403703902,1,0,0,1.5287,Pegmatite_rect,6,1.529,0,7,0,7,0,1,,,,,,,,,,,,,
655fd680f3dda8307b3db029,SCN,2024-06-20_14h00.05.506,LearnStrategy,2023.2.3,Win32,59.88023952,5,1,9,0.390740924,-0.265740818,1,0,0,1.2257,Basalt_16,2,16,2,7,1.226,0.194444656,-0.399074131,1,0,0,0.7655,Peridotite_rect,7,0.765,0,8,0,8,0,1,,,,,,,,,,,,,
655fd680f3dda8307b3db029,SCN,2024-06-20_14h00.05.506,LearnStrategy,2023.2.3,Win32,59.88023952,5,1,10,-0.426851749,-0.099074099,1,0,0,1.1922,Pumice_05,8,05,3,2,1.192,0.348148346,-0.379629771,1,0,0,1.2135,Pumice_rect,8,1.214,1,9,0,9,0,1,,,,,,,,,,,,,
655fd680f3dda8307b3db029,SCN,2024-06-20_14h00.05.506,LearnStrategy,2023.2.3,Win32,59.88023952,5,1,11,0.262962977,0.399074064,1,0,0,1.4101,Peridotite_16,7,16,6,6,1.41,-0.349999905,-0.255555577,1,0,0,1.5859,Andesite_rect,1,1.586,0,10,0,10,0,1,,,,,,,,,,,,,
655fd680f3dda8307b3db029,SCN,2024-06-20_14h00.05.506,LearnStrategy,2023.2.3,Win32,59.88023952,5,1,12,0.412037214,0.426851849,1,0,0,1.0766,Obsidian_16,5,16,6,7,1.077,-0.3824074,-0.395370377,1,0,0,1.1178,Obsidian_rect,5,1.118,1,11,0,11,0,1,,,,,,,,,,,,,
655fd680f3dda8307b3db029,SCN,2024-06-20_14h00.05.506,LearnStrategy,2023.2.3,Win32,59.88023952,5,1,13,0.240740776,-0.416666667,1,0,0,1.7911,Gabbro_05,4,05,1,6,1.791,0.17777782,-0.260185348,1,0,0,1.5304,Diorite_rect,3,1.53,0,12,0,12,0,1,,,,,,,,,,,,,
655fd680f3dda8307b3db029,SCN,2024-06-20_14h00.05.506,LearnStrategy,2023.2.3,Win32,59.88023952,5,1,14,0.555555767,-0.270370483,1,0,0,1.1094,Pumice_08,8,08,2,8,1.109,0.161111302,-0.39351866,1,0,0,1.7122,Peridotite_rect,7,1.712,0,13,0,13,0,1,,,,,,,,,,,,,
655fd680f3dda8307b3db029,SCN,2024-06-20_14h00.05.506,LearnStrategy,2023.2.3,Win32,59.88023952,5,1,15,-0.05555545,0.229629623,1,0,0,0.9253,Pegmatite_10,6,10,5,4,0.925,-0.171296279,-0.412037108,1,0,0,1.2713,Pegmatite_rect,6,1.271,1,14,0,14,0,1,,,,,,,,,,,,,
655fd680f3dda8307b3db029,SCN,2024-06-20_14h00.05.506,LearnStrategy,2023.2.3,Win32,59.88023952,5,1,16,-0.10648134,0.391666664,1,0,0,1.0282,Pumice_04,8,04,6,4,1.028,0.122222265,-0.228703817,1,0,0,1.0976,Diorite_rect,3,1.098,0,15,0,15,0,1,,,,,,,,,,,,,
655fd680f3dda8307b3db029,SCN,2024-06-20_14h00.05.506,LearnStrategy,2023.2.3,Win32,59.88023952,5,2,1,,,,,,,,1,04,,,,,,,,,,,3,0.898,0,,,,,,0.140740924,-0.241666688,1,0,0,0.8981,Diorite_rect,0,0,0,0,1,
655fd680f3dda8307b3db029,SCN,2024-06-20_14h00.05.506,LearnStrategy,2023.2.3,Win32,59.88023952,5,2,2,,,,,,,,7,10,,,,,,,,,,,4,2.147,0,,,,,,0.394444466,-0.250000106,1,0,0,2.1472,Gabbro_rect,1,0,1,0,1,
655fd680f3dda8307b3db029,SCN,2024-06-20_14h00.05.506,LearnStrategy,2023.2.3,Win32,59.88023952,5,2,3,,,,,,,,4,11,,,,,,,,,,,2,1.335,0,,,,,,-0.050925785,-0.246296459,1,0,0,1.3351,Basalt_rect,2,0,2,0,1,
655fd680f3dda8307b3db029,SCN,2024-06-20_14h00.05.506,LearnStrategy,2023.2.3,Win32,59.88023952,5,2,4,,,,,,,,1,06,,,,,,,,,,,6,0.712,0,,,,,,-0.126851824,-0.392592748,1,0,0,0.7117,Pegmatite_rect,3,0,3,0,1,
655fd680f3dda8307b3db029,SCN,2024-06-20_14h00.05.506,LearnStrategy,2023.2.3,Win32,59.88023952,5,2,5,,,,,,,,5,10,,,,,,,,,,,5,1.279,1,,,,,,-0.342592504,-0.395370377,1,0,0,1.2791,Obsidian_rect,4,0,4,0,1,
655fd680f3dda8307b3db029,SCN,2024-06-20_14h00.05.506,LearnStrategy,2023.2.3,Win32,59.88023952,5,2,6,,,,,,,,2,02,,,,,,,,,,,2,0.891,1,,,,,,-0.119444423,-0.257407559,1,0,0,0.8909,Basalt_rect,5,0,5,0,1,
655fd680f3dda8307b3db029,SCN,2024-06-20_14h00.05.506,LearnStrategy,2023.2.3,Win32,59.88023952,5,2,7,,,,,,,,3,02,,,,,,,,,,,7,0.851,0,,,,,,0.069444444,-0.419444508,1,0,0,0.8505,Peridotite_rect,6,0,6,0,1,
655fd680f3dda8307b3db029,SCN,2024-06-20_14h00.05.506,LearnStrategy,2023.2.3,Win32,59.88023952,5,2,8,,,,,,,,4,03,,,,,,,,,,,2,3.44,0,,,,,,-0.05555545,-0.245370388,1,0,0,3.44,Basalt_rect,7,0,7,0,1,
655fd680f3dda8307b3db029,SCN,2024-06-20_14h00.05.506,LearnStrategy,2023.2.3,Win32,59.88023952,5,2,9,,,,,,,,6,11,,,,,,,,,,,1,0.903,0,,,,,,-0.40925916,-0.25185193,1,0,0,0.9026,Andesite_rect,8,0,8,0,1,
655fd680f3dda8307b3db029,SCN,2024-06-20_14h00.05.506,LearnStrategy,2023.2.3,Win32,59.88023952,5,2,10,,,,,,,,5,11,,,,,,,,,,,5,1.468,1,,,,,,-0.374999894,-0.389815013,1,0,0,1.468,Obsidian_rect,9,0,9,0,1,
655fd680f3dda8307b3db029,SCN,2024-06-20_14h00.05.506,LearnStrategy,2023.2.3,Win32,59.88023952,5,2,11,,,,,,,,8,15,,,,,,,,,,,7,0.632,0,,,,,,0.108333376,-0.407407549,1,0,0,0.632,Peridotite_rect,10,0,10,0,1,
655fd680f3dda8307b3db029,SCN,2024-06-20_14h00.05.506,LearnStrategy,2023.2.3,Win32,59.88023952,5,2,12,,,,,,,,7,15,,,,,,,,,,,3,0.699,0,,,,,,0.140740924,-0.267592695,1,0,0,0.6992,Diorite_rect,11,0,11,0,1,
655fd680f3dda8307b3db029,SCN,2024-06-20_14h00.05.506,LearnStrategy,2023.2.3,Win32,59.88023952,5,2,13,,,,,,,,8,14,,,,,,,,,,,4,0.783,0,,,,,,0.412963019,-0.234259288,1,0,0,0.7832,Gabbro_rect,12,0,12,0,1,
655fd680f3dda8307b3db029,SCN,2024-06-20_14h00.05.506,LearnStrategy,2023.2.3,Win32,59.88023952,5,2,14,,,,,,,,3,10,,,,,,,,,,,3,0.716,1,,,,,,0.169444614,-0.256481595,1,0,0,0.716,Diorite_rect,13,0,13,0,1,
655fd680f3dda8307b3db029,SCN,2024-06-20_14h00.05.506,LearnStrategy,2023.2.3,Win32,59.88023952,5,2,15,,,,,,,,6,12,,,,,,,,,,,5,1.666,0,,,,,,-0.389814801,-0.39166673,1,0,0,1.6656,Obsidian_rect,14,0,14,0,1,
655fd680f3dda8307b3db029,SCN,2024-06-20_14h00.05.506,LearnStrategy,2023.2.3,Win32,59.88023952,5,2,16,,,,,,,,2,14,,,,,,,,,,,2,1.016,1,,,,,,-0.076851739,-0.26851866,1,0,0,1.0159,Basalt_rect,15,0,15,0,1,
655fd680f3dda8307b3db029,SCN,2024-06-20_14h00.05.506,LearnStrategy,2023.2.3,Win32,59.88023952,6,1,1,-0.061111026,0.231481473,1,0,0,1.2927,Pegmatite_10,6,10,5,4,1.293,-0.3787037,-0.395370377,1,0,0,0.8991,Obsidian_rect,5,0.899,0,0,0,0,0,1,,,,,,,,,,,,,
655fd680f3dda8307b3db029,SCN,2024-06-20_14h00.05.506,LearnStrategy,2023.2.3,Win32,59.88023952,6,1,2,-0.103703552,0.088888831,1,0,0,0.9098,Basalt_01,2,01,4,4,0.91,-0.141666571,-0.247222318,1,0,0,0.7324,Basalt_rect,2,0.732,1,1,0,1,0,1,,,,,,,,,,,,,
655fd680f3dda8307b3db029,SCN,2024-06-20_14h00.05.506,LearnStrategy,2023.2.3,Win32,59.88023952,6,1,3,0.561111344,0.094444434,1,0,0,1.0423,Basalt_04,2,04,4,8,1.042,-0.105555534,-0.264814907,1,0,0,1.0025,Basalt_rect,2,1.003,1,2,0,2,0,1,,,,,,,,,,,,,
655fd680f3dda8307b3db029,SCN,2024-06-20_14h00.05.506,LearnStrategy,2023.2.3,Win32,59.88023952,6,1,4,-0.03055546,0.237037023,1,0,0,1.044,Pegmatite_10,6,10,5,4,1.044,-0.095370293,-0.396296501,1,0,0,1.231,Pegmatite_rect,6,1.231,1,3,0,3,0,1,,,,,,,,,,,,,
655fd680f3dda8307b3db029,SCN,2024-06-20_14h00.05.506,LearnStrategy,2023.2.3,Win32,59.88023952,6,1,5,0.524074131,-0.392592748,1,0,0,1.2262,Basalt_12,2,12,1,8,1.226,-0.079629527,-0.256481595,1,0,0,1.1484,Basalt_rect,2,1.148,1,4,0,4,0,1,,,,,,,,,,,,,
655fd680f3dda8307b3db029,SCN,2024-06-20_14h00.05.506,LearnStrategy,2023.2.3,Win32,59.88023952,6,1,6,0.392592642,0.415740728,1,0,0,2.0247,Obsidian_16,5,16,6,7,2.025,-0.469444434,-0.387963136,1,0,0,1.0646,Obsidian_rect,5,1.065,1,5,0,5,0,1,,,,,,,,,,,,,
655fd680f3dda8307b3db029,SCN,2024-06-20_14h00.05.506,LearnStrategy,2023.2.3,Win32,59.88023952,6,1,7,-0.547222217,-0.112037129,1,0,0,0.876,Obsidian_02,5,02,3,1,0.876,-0.395370271,-0.398148219,1,0,0,1.4327,Obsidian_rect,5,1.433,1,6,0,6,0,1,,,,,,,,,,,,,
655fd680f3dda8307b3db029,SCN,2024-06-20_14h00.05.506,LearnStrategy,2023.2.3,Win32,59.88023952,6,1,8,-0.546296252,0.232407358,1,0,0,1.1589,Pegmatite_16,6,16,5,1,1.159,-0.132407294,-0.233333429,1,0,0,0.9642,Basalt_rect,2,0.964,0,7,0,7,0,1,,,,,,,,,,,,,
655fd680f3dda8307b3db029,SCN,2024-06-20_14h00.05.506,LearnStrategy,2023.2.3,Win32,59.88023952,6,1,9,0.355555746,-0.083333439,1,0,0,0.8613,Obsidian_07,5,07,3,7,0.861,0.107407464,-0.401851972,1,0,0,0.932,Peridotite_rect,7,0.932,0,8,0,8,0,1,,,,,,,,,,,,,
655fd680f3dda8307b3db029,SCN,2024-06-20_14h00.05.506,LearnStrategy,2023.2.3,Win32,59.88023952,6,1,10,0.547222455,0.262036986,1,0,0,1.3082,Andesite_11,1,11,5,8,1.308,0.369444635,-0.255555577,1,0,0,1.8133,Gabbro_rect,4,1.813,0,9,0,9,0,1,,,,,,,,,,,,,
655fd680f3dda8307b3db029,SCN,2024-06-20_14h00.05.506,LearnStrategy,2023.2.3,Win32,59.88023952,6,1,11,0.074074109,-0.106481499,1,0,0,0.7599,Andesite_05,1,05,3,5,0.76,-0.073147986,-0.39166673,1,0,0,0.9709,Pegmatite_rect,6,0.971,0,10,0,10,0,1,,,,,,,,,,,,,
655fd680f3dda8307b3db029,SCN,2024-06-20_14h00.05.506,LearnStrategy,2023.2.3,Win32,59.88023952,6,1,12,0.076852057,-0.102777799,1,0,0,0.811,Andesite_05,1,05,3,5,0.811,0.359259288,-0.239814917,1,0,0,1.3632,Gabbro_rect,4,1.363,0,11,0,11,0,1,,,,,,,,,,,,,
655fd680f3dda8307b3db029,SCN,2024-06-20_14h00.05.506,LearnStrategy,2023.2.3,Win32,59.88023952,6,1,13,0.258333524,0.28611109,1,0,0,1.2427,Gabbro_10,4,10,5,6,1.243,0.112037235,-0.399074131,1,0,0,1.1481,Peridotite_rect,7,1.148,0,12,0,12,0,1,,,,,,,,,,,,,
655fd680f3dda8307b3db029,SCN,2024-06-20_14h00.05.506,LearnStrategy,2023.2.3,Win32,59.88023952,6,1,14,-0.088888804,0.261111101,1,0,0,1.2253,Pegmatite_10,6,10,5,4,1.225,-0.122222106,-0.400925954,1,0,0,1.2335,Pegmatite_rect,6,1.234,1,13,0,13,0,1,,,,,,,,,,,,,
655fd680f3dda8307b3db029,SCN,2024-06-20_14h00.05.506,LearnStrategy,2023.2.3,Win32,59.88023952,6,1,15,0.55370405,-0.405555619,1,0,0,1.3597,Basalt_12,2,12,1,8,1.36,-0.124073982,-0.241666688,1,0,0,1.0978,Basalt_rect,2,1.098,1,14,0,14,0,1,,,,,,,,,,,,,
655fd680f3dda8307b3db029,SCN,2024-06-20_14h00.05.506,LearnStrategy,2023.2.3,Win32,59.88023952,6,1,16,0.1175926,0.428703692,1,0,0,1.1765,Diorite_14,3,14,6,5,1.177,0.135185242,-0.238889005,1,0,0,1.3775,Diorite_rect,3,1.378,1,15,0,15,0,1,,,,,,,,,,,,,
655fd680f3dda8307b3db029,SCN,2024-06-20_14h00.05.506,LearnStrategy,2023.2.3,Win32,59.88023952,6,2,1,,,,,,,,7,08,,,,,,,,,,,3,0.915,0,,,,,,0.137037065,-0.250000106,1,0,0,0.9149,Diorite_rect,0,0,0,0,1,
655fd680f3dda8307b3db029,SCN,2024-06-20_14h00.05.506,LearnStrategy,2023.2.3,Win32,59.88023952,6,2,2,,,,,,,,2,11,,,,,,,,,,,6,0.584,0,,,,,,-0.119444423,-0.383333418,1,0,0,0.5838,Pegmatite_rect,1,0,1,0,1,
655fd680f3dda8307b3db029,SCN,2024-06-20_14h00.05.506,LearnStrategy,2023.2.3,Win32,59.88023952,6,2,3,,,,,,,,8,06,,,,,,,,,,,2,1.597,0,,,,,,-0.16759242,-0.229629782,1,0,0,1.5975,Basalt_rect,2,0,2,0,1,
655fd680f3dda8307b3db029,SCN,2024-06-20_14h00.05.506,LearnStrategy,2023.2.3,Win32,59.88023952,6,2,4,,,,,,,,4,09,,,,,,,,,,,5,1.63,0,,,,,,-0.374999894,-0.400000148,1,0,0,1.63,Obsidian_rect,3,0,3,0,1,
655fd680f3dda8307b3db029,SCN,2024-06-20_14h00.05.506,LearnStrategy,2023.2.3,Win32,59.88023952,6,2,5,,,,,,,,7,05,,,,,,,,,,,2,0.901,0,,,,,,-0.204629527,-0.271296448,1,0,0,0.901,Basalt_rect,4,0,4,0,1,
655fd680f3dda8307b3db029,SCN,2024-06-20_14h00.05.506,LearnStrategy,2023.2.3,Win32,59.88023952,6,2,6,,,,,,,,5,12,,,,,,,,,,,5,1.289,1,,,,,,-0.412036949,-0.401851972,1,0,0,1.289,Obsidian_rect,5,0,5,0,1,
655fd680f3dda8307b3db029,SCN,2024-06-20_14h00.05.506,LearnStrategy,2023.2.3,Win32,59.88023952,6,2,7,,,,,,,,4,08,,,,,,,,,,,3,1.079,0,,,,,,0.132407612,-0.237963041,1,0,0,1.0787,Diorite_rect,6,0,6,0,1,
655fd680f3dda8307b3db029,SCN,2024-06-20_14h00.05.506,LearnStrategy,2023.2.3,Win32,59.88023952,6,2,8,,,,,,,,6,07,,,,,,,,,,,4,0.601,0,,,,,,0.372222265,-0.250000106,1,0,0,0.6009,Gabbro_rect,7,0,7,0,1,
655fd680f3dda8307b3db029,SCN,2024-06-20_14h00.05.506,LearnStrategy,2023.2.3,Win32,59.88023952,6,2,9,,,,,,,,1,07,,,,,,,,,,,7,0.627,0,,,,,,0.153703902,-0.39351866,1,0,0,0.627,Peridotite_rect,8,0,8,0,1,
655fd680f3dda8307b3db029,SCN,2024-06-20_14h00.05.506,LearnStrategy,2023.2.3,Win32,59.88023952,6,2,10,,,,,,,,8,10,,,,,,,,,,,1,1.445,0,,,,,,-0.462036981,-0.234259288,1,0,0,1.4452,Andesite_rect,9,0,9,0,1,
655fd680f3dda8307b3db029,SCN,2024-06-20_14h00.05.506,LearnStrategy,2023.2.3,Win32,59.88023952,6,2,11,,,,,,,,2,05,,,,,,,,,,,2,2.62,1,,,,,,-0.125925753,-0.25185193,1,0,0,2.6204,Basalt_rect,10,0,10,0,1,
655fd680f3dda8307b3db029,SCN,2024-06-20_14h00.05.506,LearnStrategy,2023.2.3,Win32,59.88023952,6,2,12,,,,,,,,6,15,,,,,,,,,,,5,1.764,0,,,,,,-0.39814806,-0.409259266,1,0,0,1.7642,Obsidian_rect,11,0,11,0,1,
655fd680f3dda8307b3db029,SCN,2024-06-20_14h00.05.506,LearnStrategy,2023.2.3,Win32,59.88023952,6,2,13,,,,,,,,3,16,,,,,,,,,,,8,1.443,0,,,,,,0.336111281,-0.39166673,1,0,0,1.4433,Pumice_rect,12,0,12,0,1,
655fd680f3dda8307b3db029,SCN,2024-06-20_14h00.05.506,LearnStrategy,2023.2.3,Win32,59.88023952,6,2,14,,,,,,,,5,14,,,,,,,,,,,5,2.142,1,,,,,,-0.442592515,-0.405555619,1,0,0,2.1417,Obsidian_rect,13,0,13,0,1,
655fd680f3dda8307b3db029,SCN,2024-06-20_14h00.05.506,LearnStrategy,2023.2.3,Win32,59.88023952,6,2,15,,,,,,,,1,01,,,,,,,,,,,7,4.699,0,,,,,,0.077777969,-0.409259266,1,0,0,4.6987,Peridotite_rect,14,0,14,0,1,
655fd680f3dda8307b3db029,SCN,2024-06-20_14h00.05.506,LearnStrategy,2023.2.3,Win32,59.88023952,6,2,16,,,,,,,,3,12,,,,,,,,,,,3,2.17,1,,,,,,0.168518702,-0.262963136,1,0,0,2.1702,Diorite_rect,15,0,15,0,1,
655fd680f3dda8307b3db029,SCN,2024-06-20_14h00.05.506,LearnStrategy,2023.2.3,Win32,59.88023952,7,1,1,-0.099074046,0.06851848,1,0,0,1.1095,Basalt_01,2,01,4,4,1.109,-0.126851824,-0.229629782,1,0,0,0.6614,Basalt_rect,2,0.661,1,0,0,0,0,1,,,,,,,,,,,,,
655fd680f3dda8307b3db029,SCN,2024-06-20_14h00.05.506,LearnStrategy,2023.2.3,Win32,59.88023952,7,1,2,-0.074999915,0.25555555,1,0,0,0.7741,Pegmatite_10,6,10,5,4,0.774,-0.105555534,-0.383333418,1,0,0,1.1528,Pegmatite_rect,6,1.153,1,1,0,1,0,1,,,,,,,,,,,,,
655fd680f3dda8307b3db029,SCN,2024-06-20_14h00.05.506,LearnStrategy,2023.2.3,Win32,59.88023952,7,1,3,0.538888931,0.109259208,1,0,0,1.0943,Basalt_04,2,04,4,8,1.094,-0.094444328,-0.247222318,1,0,0,1.1387,Basalt_rect,2,1.139,1,2,0,2,0,1,,,,,,,,,,,,,
655fd680f3dda8307b3db029,SCN,2024-06-20_14h00.05.506,LearnStrategy,2023.2.3,Win32,59.88023952,7,1,4,0.3814817,0.387037012,1,0,0,2.1096,Obsidian_16,5,16,6,7,2.11,-0.361111005,-0.384259383,1,0,0,1.5464,Obsidian_rect,5,1.546,1,3,0,3,0,1,,,,,,,,,,,,,
655fd680f3dda8307b3db029,SCN,2024-06-20_14h00.05.506,LearnStrategy,2023.2.3,Win32,59.88023952,7,1,5,-0.230555534,0.254629585,1,0,0,1.8266,Gabbro_12,4,12,5,3,1.827,-0.133333312,-0.250000106,1,0,0,0.9308,Basalt_rect,2,0.931,0,4,0,4,0,1,,,,,,,,,,,,,
655fd680f3dda8307b3db029,SCN,2024-06-20_14h00.05.506,LearnStrategy,2023.2.3,Win32,59.88023952,7,1,6,0.558333503,0.129629559,1,0,0,0.8926,Basalt_04,2,04,4,8,0.893,-0.102777693,-0.236111217,1,0,0,0.9376,Basalt_rect,2,0.938,1,5,0,5,0,1,,,,,,,,,,,,,
655fd680f3dda8307b3db029,SCN,2024-06-20_14h00.05.506,LearnStrategy,2023.2.3,Win32,59.88023952,7,1,7,-0.377777682,-0.392592748,1,0,0,2.6246,Basalt_09,2,09,1,2,2.625,-0.102777693,-0.247222318,1,0,0,0.8833,Basalt_rect,2,0.883,1,6,0,6,0,1,,,,,,,,,,,,,
655fd680f3dda8307b3db029,SCN,2024-06-20_14h00.05.506,LearnStrategy,2023.2.3,Win32,59.88023952,7,1,8,-0.576851845,0.102777719,1,0,0,1.1594,Andesite_16,1,16,4,1,1.159,0.123148176,-0.388888889,1,0,0,2.0669,Peridotite_rect,7,2.067,0,7,0,7,0,1,,,,,,,,,,,,,
655fd680f3dda8307b3db029,SCN,2024-06-20_14h00.05.506,LearnStrategy,2023.2.3,Win32,59.88023952,7,1,9,0.554629856,-0.277777884,1,0,0,1.1264,Pumice_08,8,08,2,8,1.126,0.151851866,-0.254629771,1,0,0,0.8998,Diorite_rect,3,0.9,0,8,0,8,0,1,,,,,,,,,,,,,
655fd680f3dda8307b3db029,SCN,2024-06-20_14h00.05.506,LearnStrategy,2023.2.3,Win32,59.88023952,7,1,10,-0.374073982,-0.086111122,1,0,0,1.992,Pumice_05,8,05,3,2,1.992,0.387962977,-0.402777778,1,0,0,1.6455,Pumice_rect,8,1.645,1,9,0,9,0,1,,,,,,,,,,,,,
655fd680f3dda8307b3db029,SCN,2024-06-20_14h00.05.506,LearnStrategy,2023.2.3,Win32,59.88023952,7,1,11,0.42037042,0.258333286,1,0,0,1.1586,Diorite_06,3,06,5,7,1.159,-0.082407316,-0.261111206,1,0,0,1.1167,Basalt_rect,2,1.117,0,10,0,10,0,1,,,,,,,,,,,,,
655fd680f3dda8307b3db029,SCN,2024-06-20_14h00.05.506,LearnStrategy,2023.2.3,Win32,59.88023952,7,1,12,0.074074109,-0.437037044,1,0,0,0.9268,Peridotite_14,7,14,1,5,0.927,0.137037065,-0.41018539,1,0,0,0.8339,Peridotite_rect,7,0.834,1,11,0,11,0,1,,,,,,,,,,,,,
655fd680f3dda8307b3db029,SCN,2024-06-20_14h00.05.506,LearnStrategy,2023.2.3,Win32,59.88023952,7,1,13,-0.057407379,-0.078703721,1,0,0,0.8106,Andesite_09,1,09,3,4,0.811,-0.094444328,-0.258333418,1,0,0,1.0643,Basalt_rect,2,1.064,0,12,0,12,0,1,,,,,,,,,,,,,
655fd680f3dda8307b3db029,SCN,2024-06-20_14h00.05.506,LearnStrategy,2023.2.3,Win32,59.88023952,7,1,14,0.512963189,-0.375000106,1,0,0,1.2087,Basalt_12,2,12,1,8,1.209,0.146296501,-0.247222318,1,0,0,0.7818,Diorite_rect,3,0.782,0,13,0,13,0,1,,,,,,,,,,,,,
655fd680f3dda8307b3db029,SCN,2024-06-20_14h00.05.506,LearnStrategy,2023.2.3,Win32,59.88023952,7,1,15,-0.056481308,-0.09444454,1,0,0,0.7594,Andesite_09,1,09,3,4,0.759,-0.067592515,-0.242592706,1,0,0,0.75,Basalt_rect,2,0.75,0,14,0,14,0,1,,,,,,,,,,,,,
655fd680f3dda8307b3db029,SCN,2024-06-20_14h00.05.506,LearnStrategy,2023.2.3,Win32,59.88023952,7,1,16,-0.065740638,0.093518443,1,0,0,0.7918,Basalt_01,2,01,4,4,0.792,-0.097222116,-0.228703817,1,0,0,0.821,Basalt_rect,2,0.821,1,15,0,15,0,1,,,,,,,,,,,,,
655fd680f3dda8307b3db029,SCN,2024-06-20_14h00.05.506,LearnStrategy,2023.2.3,Win32,59.88023952,7,2,1,,,,,,,,1,06,,,,,,,,,,,3,0.702,0,,,,,,0.185185221,-0.229629782,1,0,0,0.702,Diorite_rect,0,0,0,0,1,
655fd680f3dda8307b3db029,SCN,2024-06-20_14h00.05.506,LearnStrategy,2023.2.3,Win32,59.88023952,7,2,2,,,,,,,,4,09,,,,,,,,,,,2,1.945,0,,,,,,-0.135185083,-0.263888995,1,0,0,1.9451,Basalt_rect,1,0,1,0,1,
655fd680f3dda8307b3db029,SCN,2024-06-20_14h00.05.506,LearnStrategy,2023.2.3,Win32,59.88023952,7,2,3,,,,,,,,1,04,,,,,,,,,,,7,0.378,0,,,,,,0.138889101,-0.400925954,1,0,0,0.3784,Peridotite_rect,2,0,2,0,1,
655fd680f3dda8307b3db029,SCN,2024-06-20_14h00.05.506,LearnStrategy,2023.2.3,Win32,59.88023952,7,2,4,,,,,,,,5,14,,,,,,,,,,,4,0.366,0,,,,,,0.355555746,-0.236111217,1,0,0,0.3661,Gabbro_rect,3,0,3,0,1,
655fd680f3dda8307b3db029,SCN,2024-06-20_14h00.05.506,LearnStrategy,2023.2.3,Win32,59.88023952,7,2,5,,,,,,,,7,13,,,,,,,,,,,2,1.973,0,,,,,,-0.147222201,-0.239814917,1,0,0,1.9732,Basalt_rect,4,0,4,0,1,
655fd680f3dda8307b3db029,SCN,2024-06-20_14h00.05.506,LearnStrategy,2023.2.3,Win32,59.88023952,7,2,6,,,,,,,,8,10,,,,,,,,,,,6,0.483,0,,,,,,-0.120370229,-0.380555577,1,0,0,0.4829,Pegmatite_rect,5,0,5,0,1,
655fd680f3dda8307b3db029,SCN,2024-06-20_14h00.05.506,LearnStrategy,2023.2.3,Win32,59.88023952,7,2,7,,,,,,,,5,06,,,,,,,,,,,5,1.117,1,,,,,,-0.366666582,-0.384259383,1,0,0,1.1166,Obsidian_rect,6,0,6,0,1,
655fd680f3dda8307b3db029,SCN,2024-06-20_14h00.05.506,LearnStrategy,2023.2.3,Win32,59.88023952,7,2,8,,,,,,,,2,10,,,,,,,,,,,2,1.731,1,,,,,,-0.15185176,-0.259259277,1,0,0,1.7311,Basalt_rect,7,0,7,0,1,
655fd680f3dda8307b3db029,SCN,2024-06-20_14h00.05.506,LearnStrategy,2023.2.3,Win32,59.88023952,7,2,9,,,,,,,,4,11,,,,,,,,,,,2,0.951,0,,,,,,-0.150925848,-0.24351867,1,0,0,0.9505,Basalt_rect,8,0,8,0,1,
655fd680f3dda8307b3db029,SCN,2024-06-20_14h00.05.506,LearnStrategy,2023.2.3,Win32,59.88023952,7,2,10,,,,,,,,3,16,,,,,,,,,,,5,1.33,0,,,,,,-0.395370271,-0.383333418,1,0,0,1.33,Obsidian_rect,9,0,9,0,1,
655fd680f3dda8307b3db029,SCN,2024-06-20_14h00.05.506,LearnStrategy,2023.2.3,Win32,59.88023952,7,2,11,,,,,,,,3,02,,,,,,,,,,,3,1.448,1,,,,,,0.126852036,-0.246296459,1,0,0,1.4483,Diorite_rect,10,0,10,0,1,
655fd680f3dda8307b3db029,SCN,2024-06-20_14h00.05.506,LearnStrategy,2023.2.3,Win32,59.88023952,7,2,12,,,,,,,,6,09,,,,,,,,,,,7,0.548,0,,,,,,0.134259436,-0.39351866,1,0,0,0.5485,Peridotite_rect,11,0,11,0,1,
655fd680f3dda8307b3db029,SCN,2024-06-20_14h00.05.506,LearnStrategy,2023.2.3,Win32,59.88023952,7,2,13,,,,,,,,2,06,,,,,,,,,,,2,0.949,1,,,,,,-0.163888772,-0.271296448,1,0,0,0.9487,Basalt_rect,12,0,12,0,1,
655fd680f3dda8307b3db029,SCN,2024-06-20_14h00.05.506,LearnStrategy,2023.2.3,Win32,59.88023952,7,2,14,,,,,,,,6,05,,,,,,,,,,,4,0.949,0,,,,,,0.343518575,-0.265740818,1,0,0,0.9488,Gabbro_rect,13,0,13,0,1,
655fd680f3dda8307b3db029,SCN,2024-06-20_14h00.05.506,LearnStrategy,2023.2.3,Win32,59.88023952,7,2,15,,,,,,,,7,10,,,,,,,,,,,6,0.982,0,,,,,,-0.051851749,-0.387963136,1,0,0,0.9822,Pegmatite_rect,14,0,14,0,1,
655fd680f3dda8307b3db029,SCN,2024-06-20_14h00.05.506,LearnStrategy,2023.2.3,Win32,59.88023952,7,2,16,,,,,,,,8,09,,,,,,,,,,,3,0.732,0,,,,,,0.137962977,-0.266666783,1,0,0,0.7318,Diorite_rect,15,0,15,0,1,
655fd680f3dda8307b3db029,SCN,2024-06-20_14h00.05.506,LearnStrategy,2023.2.3,Win32,59.88023952,8,1,1,0.046296438,-0.10185194,1,0,0,0.6609,Andesite_05,1,05,3,5,0.661,0.065740797,-0.245370388,1,0,0,0.6149,Diorite_rect,3,0.615,0,0,0,0,0,1,,,,,,,,,,,,,
655fd680f3dda8307b3db029,SCN,2024-06-20_14h00.05.506,LearnStrategy,2023.2.3,Win32,59.88023952,8,1,2,-0.079629527,0.094444434,1,0,0,0.7771,Basalt_01,2,01,4,4,0.777,-0.130555471,-0.244444529,1,0,0,0.7479,Basalt_rect,2,0.748,1,1,0,1,0,1,,,,,,,,,,,,,
655fd680f3dda8307b3db029,SCN,2024-06-20_14h00.05.506,LearnStrategy,2023.2.3,Win32,59.88023952,8,1,3,-0.053703626,0.230555508,1,0,0,0.8603,Pegmatite_10,6,10,5,4,0.86,-0.125925753,-0.398148219,1,0,0,1.0471,Pegmatite_rect,6,1.047,1,2,0,2,0,1,,,,,,,,,,,,,
655fd680f3dda8307b3db029,SCN,2024-06-20_14h00.05.506,LearnStrategy,2023.2.3,Win32,59.88023952,8,1,4,0.422222243,0.397222208,1,0,0,1.3925,Obsidian_16,5,16,6,7,1.393,-0.380555471,-0.41018539,1,0,0,1.0158,Obsidian_rect,5,1.016,1,3,0,3,0,1,,,,,,,,,,,,,
655fd680f3dda8307b3db029,SCN,2024-06-20_14h00.05.506,LearnStrategy,2023.2.3,Win32,59.88023952,8,1,5,0.525925954,-0.134259277,1,0,0,0.9429,Obsidian_05,5,05,3,8,0.943,0.165740755,-0.396296501,1,0,0,1.1166,Peridotite_rect,7,1.117,0,4,0,4,0,1,,,,,,,,,,,,,
655fd680f3dda8307b3db029,SCN,2024-06-20_14h00.05.506,LearnStrategy,2023.2.3,Win32,59.88023952,8,1,6,-0.537037028,0.423148135,1,0,0,1.7777,Andesite_03,1,03,6,1,1.778,0.320370568,-0.381481595,1,0,0,1.3471,Pumice_rect,8,1.347,0,5,0,5,0,1,,,,,,,,,,,,,
655fd680f3dda8307b3db029,SCN,2024-06-20_14h00.05.506,LearnStrategy,2023.2.3,Win32,59.88023952,8,1,7,0.377777947,-0.269444466,1,0,0,1.1756,Basalt_16,2,16,2,7,1.176,-0.124073982,-0.234259288,1,0,0,0.8821,Basalt_rect,2,0.882,1,6,0,6,0,1,,,,,,,,,,,,,
655fd680f3dda8307b3db029,SCN,2024-06-20_14h00.05.506,LearnStrategy,2023.2.3,Win32,59.88023952,8,1,8,0.209259457,0.085185104,1,0,0,0.8277,Obsidian_08,5,08,4,6,0.828,-0.374999894,-0.404629707,1,0,0,2.1689,Obsidian_rect,5,2.169,1,7,0,7,0,1,,,,,,,,,,,,,
655fd680f3dda8307b3db029,SCN,2024-06-20_14h00.05.506,LearnStrategy,2023.2.3,Win32,59.88023952,8,1,9,0.370370547,-0.414814843,1,0,0,1.2803,Pegmatite_06,6,06,1,7,1.28,0.157407443,-0.406481637,1,0,0,0.8783,Peridotite_rect,7,0.878,0,8,0,8,0,1,,,,,,,,,,,,,
655fd680f3dda8307b3db029,SCN,2024-06-20_14h00.05.506,LearnStrategy,2023.2.3,Win32,59.88023952,8,1,10,0.412037214,0.262962951,1,0,0,1.5417,Diorite_06,3,06,5,7,1.542,-0.069444338,-0.269444466,1,0,0,0.9126,Basalt_rect,2,0.913,0,9,0,9,0,1,,,,,,,,,,,,,
655fd680f3dda8307b3db029,SCN,2024-06-20_14h00.05.506,LearnStrategy,2023.2.3,Win32,59.88023952,8,1,11,0.521296501,-0.260185348,1,0,0,1.5607,Pumice_08,8,08,2,8,1.561,0.118518723,-0.401851972,1,0,0,1.0143,Peridotite_rect,7,1.014,0,10,0,10,0,1,,,,,,,,,,,,,
655fd680f3dda8307b3db029,SCN,2024-06-20_14h00.05.506,LearnStrategy,2023.2.3,Win32,59.88023952,8,1,12,0.080555598,0.417592578,1,0,0,0.9912,Diorite_14,3,14,6,5,0.991,-0.331481457,-0.237963041,1,0,0,1.2641,Andesite_rect,1,1.264,0,11,0,11,0,1,,,,,,,,,,,,,
655fd680f3dda8307b3db029,SCN,2024-06-20_14h00.05.506,LearnStrategy,2023.2.3,Win32,59.88023952,8,1,13,0.558333503,0.289814777,1,0,0,1.6092,Andesite_11,1,11,5,8,1.609,-0.376851824,-0.400000148,1,0,0,1.8834,Obsidian_rect,5,1.883,0,12,0,12,0,1,,,,,,,,,,,,,
655fd680f3dda8307b3db029,SCN,2024-06-20_14h00.05.506,LearnStrategy,2023.2.3,Win32,59.88023952,8,1,14,0.568518745,0.412037035,1,0,0,1.1935,Pumice_03,8,03,6,8,1.193,0.133333524,-0.392592748,1,0,0,1.264,Peridotite_rect,7,1.264,0,13,0,13,0,1,,,,,,,,,,,,,
655fd680f3dda8307b3db029,SCN,2024-06-20_14h00.05.506,LearnStrategy,2023.2.3,Win32,59.88023952,8,1,15,-0.085185157,0.264814801,1,0,0,1.376,Pegmatite_10,6,10,5,4,1.376,-0.176851749,-0.399074131,1,0,0,1.0011,Pegmatite_rect,6,1.001,1,14,0,14,0,1,,,,,,,,,,,,,
655fd680f3dda8307b3db029,SCN,2024-06-20_14h00.05.506,LearnStrategy,2023.2.3,Win32,59.88023952,8,1,16,-0.599999958,-0.263888995,1,0,0,1.2589,Basalt_08,2,08,2,1,1.259,0.091666857,-0.257407559,1,0,0,0.9315,Diorite_rect,3,0.932,0,15,0,15,0,1,,,,,,,,,,,,,
655fd680f3dda8307b3db029,SCN,2024-06-20_14h00.05.506,LearnStrategy,2023.2.3,Win32,59.88023952,8,2,1,,,,,,,,4,03,,,,,,,,,,,3,0.752,0,,,,,,0.138889101,-0.244444529,1,0,0,0.7518,Diorite_rect,0,0,0,0,1,
655fd680f3dda8307b3db029,SCN,2024-06-20_14h00.05.506,LearnStrategy,2023.2.3,Win32,59.88023952,8,2,2,,,,,,,,3,09,,,,,,,,,,,2,0.389,0,,,,,,-0.078703562,-0.231481499,1,0,0,0.3894,Basalt_rect,1,0,1,0,1,
655fd680f3dda8307b3db029,SCN,2024-06-20_14h00.05.506,LearnStrategy,2023.2.3,Win32,59.88023952,8,2,3,,,,,,,,4,16,,,,,,,,,,,5,1.268,0,,,,,,-0.440740638,-0.384259383,1,0,0,1.2679,Obsidian_rect,2,0,2,0,1,
655fd680f3dda8307b3db029,SCN,2024-06-20_14h00.05.506,LearnStrategy,2023.2.3,Win32,59.88023952,8,2,4,,,,,,,,2,14,,,,,,,,,,,7,0.485,0,,,,,,0.114814864,-0.397222413,1,0,0,0.4849,Peridotite_rect,3,0,3,0,1,
655fd680f3dda8307b3db029,SCN,2024-06-20_14h00.05.506,LearnStrategy,2023.2.3,Win32,59.88023952,8,2,5,,,,,,,,8,02,,,,,,,,,,,4,0.647,0,,,,,,0.348148346,-0.255555577,1,0,0,0.6467,Gabbro_rect,4,0,4,0,1,
655fd680f3dda8307b3db029,SCN,2024-06-20_14h00.05.506,LearnStrategy,2023.2.3,Win32,59.88023952,8,2,6,,,,,,,,7,04,,,,,,,,,,,3,0.75,0,,,,,,0.166666879,-0.238889005,1,0,0,0.7501,Diorite_rect,5,0,5,0,1,
655fd680f3dda8307b3db029,SCN,2024-06-20_14h00.05.506,LearnStrategy,2023.2.3,Win32,59.88023952,8,2,7,,,,,,,,6,07,,,,,,,,,,,2,0.583,0,,,,,,-0.122222106,-0.250926018,1,0,0,0.5828,Basalt_rect,6,0,6,0,1,
655fd680f3dda8307b3db029,SCN,2024-06-20_14h00.05.506,LearnStrategy,2023.2.3,Win32,59.88023952,8,2,8,,,,,,,,6,15,,,,,,,,,,,5,0.816,0,,,,,,-0.354629623,-0.402777778,1,0,0,0.8164,Obsidian_rect,7,0,7,0,1,
655fd680f3dda8307b3db029,SCN,2024-06-20_14h00.05.506,LearnStrategy,2023.2.3,Win32,59.88023952,8,2,9,,,,,,,,8,15,,,,,,,,,,,7,0.817,0,,,,,,0.069444444,-0.403703902,1,0,0,0.8169,Peridotite_rect,8,0,8,0,1,
655fd680f3dda8307b3db029,SCN,2024-06-20_14h00.05.506,LearnStrategy,2023.2.3,Win32,59.88023952,8,2,10,,,,,,,,7,05,,,,,,,,,,,2,0.725,0,,,,,,-0.074074056,-0.269444466,1,0,0,0.7249,Basalt_rect,9,0,9,0,1,
655fd680f3dda8307b3db029,SCN,2024-06-20_14h00.05.506,LearnStrategy,2023.2.3,Win32,59.88023952,8,2,11,,,,,,,,5,11,,,,,,,,,,,3,0.778,0,,,,,,0.140740924,-0.262963136,1,0,0,0.7784,Diorite_rect,10,0,10,0,1,
655fd680f3dda8307b3db029,SCN,2024-06-20_14h00.05.506,LearnStrategy,2023.2.3,Win32,59.88023952,8,2,12,,,,,,,,2,05,,,,,,,,,,,7,0.871,0,,,,,,0.17777782,-0.387037065,1,0,0,0.8706,Peridotite_rect,11,0,11,0,1,
655fd680f3dda8307b3db029,SCN,2024-06-20_14h00.05.506,LearnStrategy,2023.2.3,Win32,59.88023952,8,2,13,,,,,,,,1,10,,,,,,,,,,,4,1.14,0,,,,,,0.386111153,-0.236111217,1,0,0,1.1399,Gabbro_rect,12,0,12,0,1,
655fd680f3dda8307b3db029,SCN,2024-06-20_14h00.05.506,LearnStrategy,2023.2.3,Win32,59.88023952,8,2,14,,,,,,,,1,02,,,,,,,,,,,2,1.032,0,,,,,,-0.068518427,-0.244444529,1,0,0,1.0323,Basalt_rect,13,0,13,0,1,
655fd680f3dda8307b3db029,SCN,2024-06-20_14h00.05.506,LearnStrategy,2023.2.3,Win32,59.88023952,8,2,15,,,,,,,,3,07,,,,,,,,,,,7,0.59,0,,,,,,0.115740776,-0.384259383,1,0,0,0.5904,Peridotite_rect,14,0,14,0,1,
655fd680f3dda8307b3db029,SCN,2024-06-20_14h00.05.506,LearnStrategy,2023.2.3,Win32,59.88023952,8,2,16,,,,,,,,5,12,,,,,,,,,,,5,1.081,1,,,,,,-0.416666667,-0.400000148,1,0,0,1.0814,Obsidian_rect,15,0,15,0,1,
655fd680f3dda8307b3db029,SCN,2024-06-20_14h00.05.506,LearnStrategy,2023.2.3,Win32,59.88023952,9,1,1,-0.084259086,0.069444391,1,0,0,1.2291,Basalt_01,2,01,4,4,1.229,-0.141666571,-0.250000106,1,0,0,0.7281,Basalt_rect,2,0.728,1,0,0,0,0,1,,,,,,,,,,,,,
655fd680f3dda8307b3db029,SCN,2024-06-20_14h00.05.506,LearnStrategy,2023.2.3,Win32,59.88023952,9,1,2,0.569444656,0.42407406,1,0,0,0.9931,Pumice_03,8,03,6,8,0.993,0.405555725,-0.416666667,1,0,0,1.2233,Pumice_rect,8,1.223,1,1,0,1,0,1,,,,,,,,,,,,,
655fd680f3dda8307b3db029,SCN,2024-06-20_14h00.05.506,LearnStrategy,2023.2.3,Win32,59.88023952,9,1,3,0.555555767,0.107407331,1,0,0,0.9586,Basalt_04,2,04,4,8,0.959,-0.15185176,-0.262963136,1,0,0,0.9196,Basalt_rect,2,0.92,1,2,0,2,0,1,,,,,,,,,,,,,
655fd680f3dda8307b3db029,SCN,2024-06-20_14h00.05.506,LearnStrategy,2023.2.3,Win32,59.88023952,9,1,4,-0.374073982,0.227777772,1,0,0,1.2433,Gabbro_13,4,13,5,2,1.243,0.126852036,-0.41018539,1,0,0,1.364,Peridotite_rect,7,1.364,0,3,0,3,0,1,,,,,,,,,,,,,
655fd680f3dda8307b3db029,SCN,2024-06-20_14h00.05.506,LearnStrategy,2023.2.3,Win32,59.88023952,9,1,5,0.376852036,0.2537037,1,0,0,2.0418,Diorite_06,3,06,5,7,2.042,-0.138888783,-0.407407549,1,0,0,0.9365,Pegmatite_rect,6,0.937,0,4,0,4,0,1,,,,,,,,,,,,,
655fd680f3dda8307b3db029,SCN,2024-06-20_14h00.05.506,LearnStrategy,2023.2.3,Win32,59.88023952,9,1,6,-0.201851739,-0.103703711,1,0,0,1.0091,Diorite_15,3,15,3,3,1.009,-0.375925912,-0.229629782,1,0,0,1.2571,Andesite_rect,1,1.257,0,5,0,5,0,1,,,,,,,,,,,,,
655fd680f3dda8307b3db029,SCN,2024-06-20_14h00.05.506,LearnStrategy,2023.2.3,Win32,59.88023952,9,1,7,-0.57962958,-0.419444508,1,0,0,1.2595,Diorite_08,3,08,1,1,1.259,-0.402777778,-0.395370377,1,0,0,1.0977,Obsidian_rect,5,1.098,0,6,0,6,0,1,,,,,,,,,,,,,
655fd680f3dda8307b3db029,SCN,2024-06-20_14h00.05.506,LearnStrategy,2023.2.3,Win32,59.88023952,9,1,8,0.263889101,0.071296215,1,0,0,1.2088,Obsidian_08,5,08,4,6,1.209,-0.389814801,-0.383333418,1,0,0,1.4469,Obsidian_rect,5,1.447,1,7,0,7,0,1,,,,,,,,,,,,,
655fd680f3dda8307b3db029,SCN,2024-06-20_14h00.05.506,LearnStrategy,2023.2.3,Win32,59.88023952,9,1,9,0.247222265,-0.448148198,1,0,0,0.9761,Gabbro_05,4,05,1,6,0.976,-0.125925753,-0.239814917,1,0,0,0.933,Basalt_rect,2,0.933,0,8,0,8,0,1,,,,,,,,,,,,,
655fd680f3dda8307b3db029,SCN,2024-06-20_14h00.05.506,LearnStrategy,2023.2.3,Win32,59.88023952,9,1,10,0.554629856,0.105555508,1,0,0,1.4613,Basalt_04,2,04,4,8,1.461,-0.14259243,-0.237963041,1,0,0,0.9164,Basalt_rect,2,0.916,1,9,0,9,0,1,,,,,,,,,,,,,
655fd680f3dda8307b3db029,SCN,2024-06-20_14h00.05.506,LearnStrategy,2023.2.3,Win32,59.88023952,9,1,11,-0.084259086,0.079629554,1,0,0,0.726,Basalt_01,2,01,4,4,0.726,-0.117592441,-0.242592706,1,0,0,0.9478,Basalt_rect,2,0.948,1,10,0,10,0,1,,,,,,,,,,,,,
655fd680f3dda8307b3db029,SCN,2024-06-20_14h00.05.506,LearnStrategy,2023.2.3,Win32,59.88023952,9,1,12,0.375926124,0.383333325,1,0,0,1.0429,Obsidian_16,5,16,6,7,1.043,-0.093518416,-0.239814917,1,0,0,1.228,Basalt_rect,2,1.228,0,11,0,11,0,1,,,,,,,,,,,,,
655fd680f3dda8307b3db029,SCN,2024-06-20_14h00.05.506,LearnStrategy,2023.2.3,Win32,59.88023952,9,1,13,0.224074258,-0.238889005,1,0,0,0.8748,Andesite_14,1,14,2,6,0.875,0.100925975,-0.389815013,1,0,0,0.8052,Peridotite_rect,7,0.805,0,12,0,12,0,1,,,,,,,,,,,,,
655fd680f3dda8307b3db029,SCN,2024-06-20_14h00.05.506,LearnStrategy,2023.2.3,Win32,59.88023952,9,1,14,-0.358333323,0.233333323,1,0,0,1.2934,Gabbro_13,4,13,5,2,1.293,-0.147222201,-0.25185193,1,0,0,0.7944,Basalt_rect,2,0.794,0,13,0,13,0,1,,,,,,,,,,,,,
655fd680f3dda8307b3db029,SCN,2024-06-20_14h00.05.506,LearnStrategy,2023.2.3,Win32,59.88023952,9,1,15,0.214814822,-0.408333355,1,0,0,1.0604,Gabbro_05,4,05,1,6,1.06,0.105555746,-0.235185358,1,0,0,0.9821,Diorite_rect,3,0.982,0,14,0,14,0,1,,,,,,,,,,,,,
655fd680f3dda8307b3db029,SCN,2024-06-20_14h00.05.506,LearnStrategy,2023.2.3,Win32,59.88023952,9,1,16,0.249074088,-0.120370388,1,0,0,1.1111,Pegmatite_08,6,08,3,6,1.111,-0.15185176,-0.399074131,1,0,0,0.894,Pegmatite_rect,6,0.894,1,15,0,15,0,1,,,,,,,,,,,,,
655fd680f3dda8307b3db029,SCN,2024-06-20_14h00.05.506,LearnStrategy,2023.2.3,Win32,59.88023952,9,2,1,,,,,,,,4,08,,,,,,,,,,,3,1.763,0,,,,,,0.127777947,-0.249074247,1,0,0,1.7632,Diorite_rect,0,0,0,0,1,
655fd680f3dda8307b3db029,SCN,2024-06-20_14h00.05.506,LearnStrategy,2023.2.3,Win32,59.88023952,9,2,2,,,,,,,,7,15,,,,,,,,,,,6,1.486,0,,,,,,-0.115740723,-0.399074131,1,0,0,1.4856,Pegmatite_rect,1,0,1,0,1,
655fd680f3dda8307b3db029,SCN,2024-06-20_14h00.05.506,LearnStrategy,2023.2.3,Win32,59.88023952,9,2,3,,,,,,,,2,02,,,,,,,,,,,2,1.014,1,,,,,,-0.10648134,-0.233333429,1,0,0,1.0145,Basalt_rect,2,0,2,0,1,
655fd680f3dda8307b3db029,SCN,2024-06-20_14h00.05.506,LearnStrategy,2023.2.3,Win32,59.88023952,9,2,4,,,,,,,,1,01,,,,,,,,,,,7,1.158,0,,,,,,0.104629834,-0.41759279,1,0,0,1.1578,Peridotite_rect,3,0,3,0,1,
655fd680f3dda8307b3db029,SCN,2024-06-20_14h00.05.506,LearnStrategy,2023.2.3,Win32,59.88023952,9,2,5,,,,,,,,4,15,,,,,,,,,,,4,0.917,1,,,,,,0.337962998,-0.261111206,1,0,0,0.9172,Gabbro_rect,4,0,4,0,1,
655fd680f3dda8307b3db029,SCN,2024-06-20_14h00.05.506,LearnStrategy,2023.2.3,Win32,59.88023952,9,2,6,,,,,,,,2,11,,,,,,,,,,,2,1.182,1,,,,,,-0.118518405,-0.231481499,1,0,0,1.1818,Basalt_rect,5,0,5,0,1,
655fd680f3dda8307b3db029,SCN,2024-06-20_14h00.05.506,LearnStrategy,2023.2.3,Win32,59.88023952,9,2,7,,,,,,,,1,07,,,,,,,,,,,3,2.813,0,,,,,,0.164814843,-0.255555577,1,0,0,2.8135,Diorite_rect,6,0,6,0,1,
655fd680f3dda8307b3db029,SCN,2024-06-20_14h00.05.506,LearnStrategy,2023.2.3,Win32,59.88023952,9,2,8,,,,,,,,3,10,,,,,,,,,,,7,0.9,0,,,,,,0.127777947,-0.416666667,1,0,0,0.9005,Peridotite_rect,7,0,7,0,1,
655fd680f3dda8307b3db029,SCN,2024-06-20_14h00.05.506,LearnStrategy,2023.2.3,Win32,59.88023952,9,2,9,,,,,,,,6,12,,,,,,,,,,,5,2.43,0,,,,,,-0.3824074,-0.404629707,1,0,0,2.4303,Obsidian_rect,8,0,8,0,1,
655fd680f3dda8307b3db029,SCN,2024-06-20_14h00.05.506,LearnStrategy,2023.2.3,Win32,59.88023952,9,2,10,,,,,,,,7,08,,,,,,,,,,,6,0.938,0,,,,,,-0.16111109,-0.39166673,1,0,0,0.938,Pegmatite_rect,9,0,9,0,1,
655fd680f3dda8307b3db029,SCN,2024-06-20_14h00.05.506,LearnStrategy,2023.2.3,Win32,59.88023952,9,2,11,,,,,,,,8,06,,,,,,,,,,,8,1.782,1,,,,,,0.357407464,-0.380555577,1,0,0,1.7816,Pumice_rect,10,0,10,0,1,
655fd680f3dda8307b3db029,SCN,2024-06-20_14h00.05.506,LearnStrategy,2023.2.3,Win32,59.88023952,9,2,12,,,,,,,,6,11,,,,,,,,,,,2,1.286,0,,,,,,-0.074074056,-0.250926018,1,0,0,1.2861,Basalt_rect,11,0,11,0,1,
655fd680f3dda8307b3db029,SCN,2024-06-20_14h00.05.506,LearnStrategy,2023.2.3,Win32,59.88023952,9,2,13,,,,,,,,5,10,,,,,,,,,,,5,1.148,1,,,,,,-0.40370369,-0.398148219,1,0,0,1.148,Obsidian_rect,12,0,12,0,1,
655fd680f3dda8307b3db029,SCN,2024-06-20_14h00.05.506,LearnStrategy,2023.2.3,Win32,59.88023952,9,2,14,,,,,,,,5,09,,,,,,,,,,,5,0.983,1,,,,,,-0.338888804,-0.389815013,1,0,0,0.9834,Obsidian_rect,13,0,13,0,1,
655fd680f3dda8307b3db029,SCN,2024-06-20_14h00.05.506,LearnStrategy,2023.2.3,Win32,59.88023952,9,2,15,,,,,,,,8,14,,,,,,,,,,,7,1.314,0,,,,,,0.126852036,-0.39166673,1,0,0,1.314,Peridotite_rect,14,0,14,0,1,
655fd680f3dda8307b3db029,SCN,2024-06-20_14h00.05.506,LearnStrategy,2023.2.3,Win32,59.88023952,9,2,16,,,,,,,,3,12,,,,,,,,,,,7,0.966,0,,,,,,0.119444635,-0.388888889,1,0,0,0.9661,Peridotite_rect,15,0,15,0,1,
655fd680f3dda8307b3db029,SCN,2024-06-20_14h00.05.506,LearnStrategy,2023.2.3,Win32,59.88023952,,,,,,,,,,,,,,,,,,,,,,,,,,,,,,,,,,,,,,,,,,,0
655fd680f3dda8307b3db029,SCN,2024-06-20_14h00.05.506,LearnStrategy,2023.2.3,Win32,59.88023952,,,,,,,,,,,,,,,,,,,,,,,,,,,,,,,,,,,,,,,,,,,
655fd680f3dda8307b3db029,SCN,2024-06-20_14h00.05.506,LearnStrategy,2023.2.3,Win32,59.88023952,,,,,,,,,,,3,08,1,1,,,,,,,,,,,,,,,,,,,,,,,,,,,,,
655fd680f3dda8307b3db029,SCN,2024-06-20_14h00.05.506,LearnStrategy,2023.2.3,Win32,59.88023952,,,,,,,,,,,2,09,1,2,,,,,,,,,,,,,,,,,,,,,,,,,,,,,
655fd680f3dda8307b3db029,SCN,2024-06-20_14h00.05.506,LearnStrategy,2023.2.3,Win32,59.88023952,,,,,,,,,,,5,04,1,3,,,,,,,,,,,,,,,,,,,,,,,,,,,,,
655fd680f3dda8307b3db029,SCN,2024-06-20_14h00.05.506,LearnStrategy,2023.2.3,Win32,59.88023952,,,,,,,,,,,8,16,1,4,,,,,,,,,,,,,,,,,,,,,,,,,,,,,
655fd680f3dda8307b3db029,SCN,2024-06-20_14h00.05.506,LearnStrategy,2023.2.3,Win32,59.88023952,,,,,,,,,,,7,14,1,5,,,,,,,,,,,,,,,,,,,,,,,,,,,,,
655fd680f3dda8307b3db029,SCN,2024-06-20_14h00.05.506,LearnStrategy,2023.2.3,Win32,59.88023952,,,,,,,,,,,4,05,1,6,,,,,,,,,,,,,,,,,,,,,,,,,,,,,
655fd680f3dda8307b3db029,SCN,2024-06-20_14h00.05.506,LearnStrategy,2023.2.3,Win32,59.88023952,,,,,,,,,,,6,06,1,7,,,,,,,,,,,,,,,,,,,,,,,,,,,,,
655fd680f3dda8307b3db029,SCN,2024-06-20_14h00.05.506,LearnStrategy,2023.2.3,Win32,59.88023952,,,,,,,,,,,2,12,1,8,,,,,,,,,,,,,,,,,,,,,,,,,,,,,
655fd680f3dda8307b3db029,SCN,2024-06-20_14h00.05.506,LearnStrategy,2023.2.3,Win32,59.88023952,,,,,,,,,,,2,08,2,1,,,,,,,,,,,,,,,,,,,,,,,,,,,,,
655fd680f3dda8307b3db029,SCN,2024-06-20_14h00.05.506,LearnStrategy,2023.2.3,Win32,59.88023952,,,,,,,,,,,6,13,2,2,,,,,,,,,,,,,,,,,,,,,,,,,,,,,
655fd680f3dda8307b3db029,SCN,2024-06-20_14h00.05.506,LearnStrategy,2023.2.3,Win32,59.88023952,,,,,,,,,,,3,13,2,3,,,,,,,,,,,,,,,,,,,,,,,,,,,,,
655fd680f3dda8307b3db029,SCN,2024-06-20_14h00.05.506,LearnStrategy,2023.2.3,Win32,59.88023952,,,,,,,,,,,7,07,2,4,,,,,,,,,,,,,,,,,,,,,,,,,,,,,
655fd680f3dda8307b3db029,SCN,2024-06-20_14h00.05.506,LearnStrategy,2023.2.3,Win32,59.88023952,,,,,,,,,,,7,06,2,5,,,,,,,,,,,,,,,,,,,,,,,,,,,,,
655fd680f3dda8307b3db029,SCN,2024-06-20_14h00.05.506,LearnStrategy,2023.2.3,Win32,59.88023952,,,,,,,,,,,1,14,2,6,,,,,,,,,,,,,,,,,,,,,,,,,,,,,
655fd680f3dda8307b3db029,SCN,2024-06-20_14h00.05.506,LearnStrategy,2023.2.3,Win32,59.88023952,,,,,,,,,,,2,16,2,7,,,,,,,,,,,,,,,,,,,,,,,,,,,,,
655fd680f3dda8307b3db029,SCN,2024-06-20_14h00.05.506,LearnStrategy,2023.2.3,Win32,59.88023952,,,,,,,,,,,8,08,2,8,,,,,,,,,,,,,,,,,,,,,,,,,,,,,
655fd680f3dda8307b3db029,SCN,2024-06-20_14h00.05.506,LearnStrategy,2023.2.3,Win32,59.88023952,,,,,,,,,,,5,02,3,1,,,,,,,,,,,,,,,,,,,,,,,,,,,,,
655fd680f3dda8307b3db029,SCN,2024-06-20_14h00.05.506,LearnStrategy,2023.2.3,Win32,59.88023952,,,,,,,,,,,8,05,3,2,,,,,,,,,,,,,,,,,,,,,,,,,,,,,
655fd680f3dda8307b3db029,SCN,2024-06-20_14h00.05.506,LearnStrategy,2023.2.3,Win32,59.88023952,,,,,,,,,,,3,15,3,3,,,,,,,,,,,,,,,,,,,,,,,,,,,,,
655fd680f3dda8307b3db029,SCN,2024-06-20_14h00.05.506,LearnStrategy,2023.2.3,Win32,59.88023952,,,,,,,,,,,1,09,3,4,,,,,,,,,,,,,,,,,,,,,,,,,,,,,
655fd680f3dda8307b3db029,SCN,2024-06-20_14h00.05.506,LearnStrategy,2023.2.3,Win32,59.88023952,,,,,,,,,,,1,05,3,5,,,,,,,,,,,,,,,,,,,,,,,,,,,,,
655fd680f3dda8307b3db029,SCN,2024-06-20_14h00.05.506,LearnStrategy,2023.2.3,Win32,59.88023952,,,,,,,,,,,6,08,3,6,,,,,,,,,,,,,,,,,,,,,,,,,,,,,
655fd680f3dda8307b3db029,SCN,2024-06-20_14h00.05.506,LearnStrategy,2023.2.3,Win32,59.88023952,,,,,,,,,,,5,07,3,7,,,,,,,,,,,,,,,,,,,,,,,,,,,,,
655fd680f3dda8307b3db029,SCN,2024-06-20_14h00.05.506,LearnStrategy,2023.2.3,Win32,59.88023952,,,,,,,,,,,5,05,3,8,,,,,,,,,,,,,,,,,,,,,,,,,,,,,
655fd680f3dda8307b3db029,SCN,2024-06-20_14h00.05.506,LearnStrategy,2023.2.3,Win32,59.88023952,,,,,,,,,,,1,16,4,1,,,,,,,,,,,,,,,,,,,,,,,,,,,,,
655fd680f3dda8307b3db029,SCN,2024-06-20_14h00.05.506,LearnStrategy,2023.2.3,Win32,59.88023952,,,,,,,,,,,4,01,4,2,,,,,,,,,,,,,,,,,,,,,,,,,,,,,
655fd680f3dda8307b3db029,SCN,2024-06-20_14h00.05.506,LearnStrategy,2023.2.3,Win32,59.88023952,,,,,,,,,,,6,03,4,3,,,,,,,,,,,,,,,,,,,,,,,,,,,,,
655fd680f3dda8307b3db029,SCN,2024-06-20_14h00.05.506,LearnStrategy,2023.2.3,Win32,59.88023952,,,,,,,,,,,2,01,4,4,,,,,,,,,,,,,,,,,,,,,,,,,,,,,
655fd680f3dda8307b3db029,SCN,2024-06-20_14h00.05.506,LearnStrategy,2023.2.3,Win32,59.88023952,,,,,,,,,,,3,11,4,5,,,,,,,,,,,,,,,,,,,,,,,,,,,,,
655fd680f3dda8307b3db029,SCN,2024-06-20_14h00.05.506,LearnStrategy,2023.2.3,Win32,59.88023952,,,,,,,,,,,5,08,4,6,,,,,,,,,,,,,,,,,,,,,,,,,,,,,
655fd680f3dda8307b3db029,SCN,2024-06-20_14h00.05.506,LearnStrategy,2023.2.3,Win32,59.88023952,,,,,,,,,,,8,13,4,7,,,,,,,,,,,,,,,,,,,,,,,,,,,,,
655fd680f3dda8307b3db029,SCN,2024-06-20_14h00.05.506,LearnStrategy,2023.2.3,Win32,59.88023952,,,,,,,,,,,2,04,4,8,,,,,,,,,,,,,,,,,,,,,,,,,,,,,
655fd680f3dda8307b3db029,SCN,2024-06-20_14h00.05.506,LearnStrategy,2023.2.3,Win32,59.88023952,,,,,,,,,,,6,16,5,1,,,,,,,,,,,,,,,,,,,,,,,,,,,,,
655fd680f3dda8307b3db029,SCN,2024-06-20_14h00.05.506,LearnStrategy,2023.2.3,Win32,59.88023952,,,,,,,,,,,4,13,5,2,,,,,,,,,,,,,,,,,,,,,,,,,,,,,
655fd680f3dda8307b3db029,SCN,2024-06-20_14h00.05.506,LearnStrategy,2023.2.3,Win32,59.88023952,,,,,,,,,,,4,12,5,3,,,,,,,,,,,,,,,,,,,,,,,,,,,,,
655fd680f3dda8307b3db029,SCN,2024-06-20_14h00.05.506,LearnStrategy,2023.2.3,Win32,59.88023952,,,,,,,,,,,6,10,5,4,,,,,,,,,,,,,,,,,,,,,,,,,,,,,
655fd680f3dda8307b3db029,SCN,2024-06-20_14h00.05.506,LearnStrategy,2023.2.3,Win32,59.88023952,,,,,,,,,,,7,12,5,5,,,,,,,,,,,,,,,,,,,,,,,,,,,,,
655fd680f3dda8307b3db029,SCN,2024-06-20_14h00.05.506,LearnStrategy,2023.2.3,Win32,59.88023952,,,,,,,,,,,4,10,5,6,,,,,,,,,,,,,,,,,,,,,,,,,,,,,
655fd680f3dda8307b3db029,SCN,2024-06-20_14h00.05.506,LearnStrategy,2023.2.3,Win32,59.88023952,,,,,,,,,,,3,06,5,7,,,,,,,,,,,,,,,,,,,,,,,,,,,,,
655fd680f3dda8307b3db029,SCN,2024-06-20_14h00.05.506,LearnStrategy,2023.2.3,Win32,59.88023952,,,,,,,,,,,1,11,5,8,,,,,,,,,,,,,,,,,,,,,,,,,,,,,
655fd680f3dda8307b3db029,SCN,2024-06-20_14h00.05.506,LearnStrategy,2023.2.3,Win32,59.88023952,,,,,,,,,,,1,03,6,1,,,,,,,,,,,,,,,,,,,,,,,,,,,,,
655fd680f3dda8307b3db029,SCN,2024-06-20_14h00.05.506,LearnStrategy,2023.2.3,Win32,59.88023952,,,,,,,,,,,4,14,6,2,,,,,,,,,,,,,,,,,,,,,,,,,,,,,
655fd680f3dda8307b3db029,SCN,2024-06-20_14h00.05.506,LearnStrategy,2023.2.3,Win32,59.88023952,,,,,,,,,,,7,02,6,3,,,,,,,,,,,,,,,,,,,,,,,,,,,,,
655fd680f3dda8307b3db029,SCN,2024-06-20_14h00.05.506,LearnStrategy,2023.2.3,Win32,59.88023952,,,,,,,,,,,8,04,6,4,,,,,,,,,,,,,,,,,,,,,,,,,,,,,
655fd680f3dda8307b3db029,SCN,2024-06-20_14h00.05.506,LearnStrategy,2023.2.3,Win32,59.88023952,,,,,,,,,,,3,14,6,5,,,,,,,,,,,,,,,,,,,,,,,,,,,,,
655fd680f3dda8307b3db029,SCN,2024-06-20_14h00.05.506,LearnStrategy,2023.2.3,Win32,59.88023952,,,,,,,,,,,7,16,6,6,,,,,,,,,,,,,,,,,,,,,,,,,,,,,
655fd680f3dda8307b3db029,SCN,2024-06-20_14h00.05.506,LearnStrategy,2023.2.3,Win32,59.88023952,,,,,,,,,,,5,16,6,7,,,,,,,,,,,,,,,,,,,,,,,,,,,,,
655fd680f3dda8307b3db029,SCN,2024-06-20_14h00.05.506,LearnStrategy,2023.2.3,Win32,59.88023952,,,,,,,,,,,8,03,6,8,,,,,,,,,,,,,,,,,,,,,,,,,,,,,