participant,condition,date,expName,psychopyVersion,OS,frameRate,block,phase,trial,learn_mouse.x,learn_mouse.y,learn_mouse.leftButton,learn_mouse.midButton,learn_mouse.rightButton,learn_mouse.time,learn_mouse.clicked_name,cat,token,row,col,t_select,cat_mouse_l.x,cat_mouse_l.y,cat_mouse_l.leftButton,cat_mouse_l.midButton,cat_mouse_l.rightButton,cat_mouse_l.time,cat_mouse_l.clicked_name,resp,t_resp,corr,train_trials.thisRepN,train_trials.thisTrialN,train_trials.thisN,train_trials.thisIndex,train_trials.ran,cat_mouse_t.x,cat_mouse_t.y,cat_mouse_t.leftButton,cat_mouse_t.midButton,cat_mouse_t.rightButton,cat_mouse_t.time,cat_mouse_t.clicked_name,test_trials.thisRepN,test_trials.thisTrialN,test_trials.thisN,test_trials.thisIndex,test_trials.ran,Bonus
6568969ced46d80283d0d447,SCN,2024-06-26_12h35.19.485,LearnStrategy,2023.2.3,Win32,60.24096386,,,,,,,,,,,,,,,,,,,,,,,,,,,,,,,,,,,,,,,,,,,
6568969ced46d80283d0d447,SCN,2024-06-26_12h35.19.485,LearnStrategy,2023.2.3,Win32,60.24096386,1,1,1,-0.38,0.39,1,0,0,4.6123,Diorite_16,3,16,6,2,4.612,-0.146666667,-0.395555556,1,0,0,9.9749,Pegmatite_rect,6,9.975,0,0,0,0,0,1,,,,,,,,,,,,,
6568969ced46d80283d0d447,SCN,2024-06-26_12h35.19.485,LearnStrategy,2023.2.3,Win32,60.24096386,1,1,2,0.072222222,0.096666667,1,0,0,2.5795,Gabbro_12,4,12,4,5,2.579,-0.344444444,-0.41,1,0,0,5.1899,Obsidian_rect,5,5.19,0,1,0,1,0,1,,,,,,,,,,,,,
6568969ced46d80283d0d447,SCN,2024-06-26_12h35.19.485,LearnStrategy,2023.2.3,Win32,60.24096386,1,1,3,0.555555556,0.243333333,1,0,0,4.4294,Obsidian_08,5,08,5,8,4.429,-0.36,-0.411111111,1,0,0,4.04,Obsidian_rect,5,4.04,1,2,0,2,0,1,,,,,,,,,,,,,
6568969ced46d80283d0d447,SCN,2024-06-26_12h35.19.485,LearnStrategy,2023.2.3,Win32,60.24096386,1,1,4,-0.066666667,-0.258888889,1,0,0,6.7929,Diorite_02,3,02,2,4,6.793,-0.316666667,-0.266666667,1,0,0,3.5537,Andesite_rect,1,3.554,0,3,0,3,0,1,,,,,,,,,,,,,
6568969ced46d80283d0d447,SCN,2024-06-26_12h35.19.485,LearnStrategy,2023.2.3,Win32,60.24096386,1,1,5,-0.537777778,0.098888889,1,0,0,3.0442,Pegmatite_15,6,15,4,1,3.044,0.098888889,-0.405555556,1,0,0,4.8453,Peridotite_rect,7,4.845,0,4,0,4,0,1,,,,,,,,,,,,,
6568969ced46d80283d0d447,SCN,2024-06-26_12h35.19.485,LearnStrategy,2023.2.3,Win32,60.24096386,1,1,6,-0.387777778,0.24,1,0,0,4.7931,Basalt_14,2,14,5,2,4.793,-0.196666667,-0.256666667,1,0,0,5.1264,Basalt_rect,2,5.126,1,5,0,5,0,1,,,,,,,,,,,,,
6568969ced46d80283d0d447,SCN,2024-06-26_12h35.19.485,LearnStrategy,2023.2.3,Win32,60.24096386,1,1,7,0.1,-0.247777778,1,0,0,5.4001,Diorite_14,3,14,2,5,5.4,0.131111111,-0.242222222,1,0,0,4.0369,Diorite_rect,3,4.037,1,6,0,6,0,1,,,,,,,,,,,,,
6568969ced46d80283d0d447,SCN,2024-06-26_12h35.19.485,LearnStrategy,2023.2.3,Win32,60.24096386,1,1,8,0.554444444,-0.406666667,1,0,0,3.47,Pumice_02,8,02,1,8,3.47,0.401111111,-0.398888889,1,0,0,3.2856,Pumice_rect,8,3.286,1,7,0,7,0,1,,,,,,,,,,,,,
6568969ced46d80283d0d447,SCN,2024-06-26_12h35.19.485,LearnStrategy,2023.2.3,Win32,60.24096386,1,1,9,-0.072222222,0.245555556,1,0,0,4.3643,Diorite_09,3,09,5,4,4.364,0.145555556,-0.257777778,1,0,0,2.5322,Diorite_rect,3,2.532,1,8,0,8,0,1,,,,,,,,,,,,,
6568969ced46d80283d0d447,SCN,2024-06-26_12h35.19.485,LearnStrategy,2023.2.3,Win32,60.24096386,1,1,10,-0.397777778,-0.275555556,1,0,0,3.6211,Pegmatite_09,6,09,2,2,3.621,-0.367777778,-0.395555556,1,0,0,3.396,Obsidian_rect,5,3.396,0,9,0,9,0,1,,,,,,,,,,,,,
6568969ced46d80283d0d447,SCN,2024-06-26_12h35.19.485,LearnStrategy,2023.2.3,Win32,60.24096386,1,1,11,0.073333333,0.253333333,1,0,0,2.9688,Pegmatite_07,6,07,5,5,2.969,-0.101111111,-0.26,1,0,0,5.7413,Basalt_rect,2,5.741,0,10,0,10,0,1,,,,,,,,,,,,,
6568969ced46d80283d0d447,SCN,2024-06-26_12h35.19.485,LearnStrategy,2023.2.3,Win32,60.24096386,1,1,12,0.532222222,0.267777778,1,0,0,2.8298,Obsidian_08,5,08,5,8,2.83,-0.397777778,-0.405555556,1,0,0,3.8069,Obsidian_rect,5,3.807,1,11,0,11,0,1,,,,,,,,,,,,,
6568969ced46d80283d0d447,SCN,2024-06-26_12h35.19.485,LearnStrategy,2023.2.3,Win32,60.24096386,1,1,13,-0.567777778,-0.107777778,1,0,0,1.4461,Gabbro_01,4,01,3,1,1.446,0.125555556,-0.397777778,1,0,0,5.773,Peridotite_rect,7,5.773,0,12,0,12,0,1,,,,,,,,,,,,,
6568969ced46d80283d0d447,SCN,2024-06-26_12h35.19.485,LearnStrategy,2023.2.3,Win32,60.24096386,1,1,14,0.378888889,0.24,1,0,0,4.3293,Diorite_15,3,15,5,7,4.329,0.097777778,-0.256666667,1,0,0,1.8977,Diorite_rect,3,1.898,1,13,0,13,0,1,,,,,,,,,,,,,
6568969ced46d80283d0d447,SCN,2024-06-26_12h35.19.485,LearnStrategy,2023.2.3,Win32,60.24096386,1,1,15,0.221111111,-0.11,1,0,0,5.0444,Obsidian_14,5,14,3,6,5.044,-0.364444444,-0.396666667,1,0,0,5.3899,Obsidian_rect,5,5.39,1,14,0,14,0,1,,,,,,,,,,,,,
6568969ced46d80283d0d447,SCN,2024-06-26_12h35.19.485,LearnStrategy,2023.2.3,Win32,60.24096386,1,1,16,-0.231111111,-0.105555556,1,0,0,2.897,Peridotite_13,7,13,3,3,2.897,0.334444444,-0.261111111,1,0,0,9.9156,Gabbro_rect,4,9.916,0,15,0,15,0,1,,,,,,,,,,,,,
6568969ced46d80283d0d447,SCN,2024-06-26_12h35.19.485,LearnStrategy,2023.2.3,Win32,60.24096386,1,2,1,,,,,,,,1,16,,,,,,,,,,,3,2.314,0,,,,,,0.137777778,-0.256666667,1,0,0,2.314,Diorite_rect,0,0,0,0,1,
6568969ced46d80283d0d447,SCN,2024-06-26_12h35.19.485,LearnStrategy,2023.2.3,Win32,60.24096386,1,2,2,,,,,,,,5,12,,,,,,,,,,,5,1.756,1,,,,,,-0.408888889,-0.404444444,1,0,0,1.7563,Obsidian_rect,1,0,1,0,1,
6568969ced46d80283d0d447,SCN,2024-06-26_12h35.19.485,LearnStrategy,2023.2.3,Win32,60.24096386,1,2,3,,,,,,,,7,05,,,,,,,,,,,3,10.865,0,,,,,,0.136666667,-0.271111111,1,0,0,10.8649,Diorite_rect,2,0,2,0,1,
6568969ced46d80283d0d447,SCN,2024-06-26_12h35.19.485,LearnStrategy,2023.2.3,Win32,60.24096386,1,2,4,,,,,,,,5,10,,,,,,,,,,,5,1.535,1,,,,,,-0.376666667,-0.402222222,1,0,0,1.5347,Obsidian_rect,3,0,3,0,1,
6568969ced46d80283d0d447,SCN,2024-06-26_12h35.19.485,LearnStrategy,2023.2.3,Win32,60.24096386,1,2,5,,,,,,,,6,16,,,,,,,,,,,6,15.421,1,,,,,,-0.08,-0.395555556,1,0,0,15.4215,Pegmatite_rect,4,0,4,0,1,
6568969ced46d80283d0d447,SCN,2024-06-26_12h35.19.485,LearnStrategy,2023.2.3,Win32,60.24096386,1,2,6,,,,,,,,3,06,,,,,,,,,,,3,1.386,1,,,,,,0.15,-0.236666667,1,0,0,1.3863,Diorite_rect,5,0,5,0,1,
6568969ced46d80283d0d447,SCN,2024-06-26_12h35.19.485,LearnStrategy,2023.2.3,Win32,60.24096386,1,2,7,,,,,,,,6,12,,,,,,,,,,,3,3.626,0,,,,,,0.132222222,-0.253333333,1,0,0,3.6264,Diorite_rect,6,0,6,0,1,
6568969ced46d80283d0d447,SCN,2024-06-26_12h35.19.485,LearnStrategy,2023.2.3,Win32,60.24096386,1,2,8,,,,,,,,4,03,,,,,,,,,,,3,1.064,0,,,,,,0.132222222,-0.253333333,1,0,0,1.0636,Diorite_rect,7,0,7,0,1,
6568969ced46d80283d0d447,SCN,2024-06-26_12h35.19.485,LearnStrategy,2023.2.3,Win32,60.24096386,1,2,9,,,,,,,,2,06,,,,,,,,,,,5,16.288,0,,,,,,-0.331111111,-0.402222222,1,0,0,16.2878,Obsidian_rect,8,0,8,0,1,
6568969ced46d80283d0d447,SCN,2024-06-26_12h35.19.485,LearnStrategy,2023.2.3,Win32,60.24096386,1,2,10,,,,,,,,1,03,,,,,,,,,,,3,5.566,0,,,,,,0.088888889,-0.266666667,1,0,0,5.5659,Diorite_rect,9,0,9,0,1,
6568969ced46d80283d0d447,SCN,2024-06-26_12h35.19.485,LearnStrategy,2023.2.3,Win32,60.24096386,1,2,11,,,,,,,,2,02,,,,,,,,,,,5,5.492,0,,,,,,-0.356666667,-0.413333333,1,0,0,5.4915,Obsidian_rect,10,0,10,0,1,
6568969ced46d80283d0d447,SCN,2024-06-26_12h35.19.485,LearnStrategy,2023.2.3,Win32,60.24096386,1,2,12,,,,,,,,7,15,,,,,,,,,,,3,4.924,0,,,,,,0.137777778,-0.256666667,1,0,0,4.9242,Diorite_rect,11,0,11,0,1,
6568969ced46d80283d0d447,SCN,2024-06-26_12h35.19.485,LearnStrategy,2023.2.3,Win32,60.24096386,1,2,13,,,,,,,,8,06,,,,,,,,,,,8,1.309,1,,,,,,0.375555556,-0.395555556,1,0,0,1.3086,Pumice_rect,12,0,12,0,1,
6568969ced46d80283d0d447,SCN,2024-06-26_12h35.19.485,LearnStrategy,2023.2.3,Win32,60.24096386,1,2,14,,,,,,,,3,13,,,,,,,,,,,3,1.337,1,,,,,,0.167777778,-0.245555556,1,0,0,1.3372,Diorite_rect,13,0,13,0,1,
6568969ced46d80283d0d447,SCN,2024-06-26_12h35.19.485,LearnStrategy,2023.2.3,Win32,60.24096386,1,2,15,,,,,,,,8,14,,,,,,,,,,,8,1.328,1,,,,,,0.396666667,-0.388888889,1,0,0,1.3281,Pumice_rect,14,0,14,0,1,
6568969ced46d80283d0d447,SCN,2024-06-26_12h35.19.485,LearnStrategy,2023.2.3,Win32,60.24096386,1,2,16,,,,,,,,4,10,,,,,,,,,,,6,9.428,0,,,,,,-0.072222222,-0.406666667,1,0,0,9.4277,Pegmatite_rect,15,0,15,0,1,
6568969ced46d80283d0d447,SCN,2024-06-26_12h35.19.485,LearnStrategy,2023.2.3,Win32,60.24096386,2,1,1,-0.54,-0.405555556,1,0,0,4.8611,Gabbro_16,4,16,1,1,4.861,-0.075555556,-0.396666667,1,0,0,5.5844,Pegmatite_rect,6,5.584,0,0,0,0,0,1,,,,,,,,,,,,,
6568969ced46d80283d0d447,SCN,2024-06-26_12h35.19.485,LearnStrategy,2023.2.3,Win32,60.24096386,2,1,2,-0.532222222,0.402222222,1,0,0,2.2633,Pegmatite_06,6,06,6,1,2.263,0.367777778,-0.248888889,1,0,0,3.8042,Gabbro_rect,4,3.804,0,1,0,1,0,1,,,,,,,,,,,,,
6568969ced46d80283d0d447,SCN,2024-06-26_12h35.19.485,LearnStrategy,2023.2.3,Win32,60.24096386,2,1,3,-0.217777778,0.391111111,1,0,0,3.2947,Andesite_11,1,11,6,3,3.295,-0.111111111,-0.397777778,1,0,0,4.5414,Pegmatite_rect,6,4.541,0,2,0,2,0,1,,,,,,,,,,,,,
6568969ced46d80283d0d447,SCN,2024-06-26_12h35.19.485,LearnStrategy,2023.2.3,Win32,60.24096386,2,1,4,0.095555556,0.401111111,1,0,0,1.9421,Peridotite_08,7,08,6,5,1.942,0.383333333,-0.257777778,1,0,0,2.8649,Gabbro_rect,4,2.865,0,3,0,3,0,1,,,,,,,,,,,,,
6568969ced46d80283d0d447,SCN,2024-06-26_12h35.19.485,LearnStrategy,2023.2.3,Win32,60.24096386,2,1,5,0.251111111,0.431111111,1,0,0,1.5554,Basalt_11,2,11,6,6,1.555,-0.351111111,-0.262222222,1,0,0,6.2056,Andesite_rect,1,6.206,0,4,0,4,0,1,,,,,,,,,,,,,
6568969ced46d80283d0d447,SCN,2024-06-26_12h35.19.485,LearnStrategy,2023.2.3,Win32,60.24096386,2,1,6,0.392222222,0.416666667,1,0,0,1.9297,Peridotite_07,7,07,6,7,1.93,0.147777778,-0.262222222,1,0,0,1.7758,Diorite_rect,3,1.776,0,5,0,5,0,1,,,,,,,,,,,,,
6568969ced46d80283d0d447,SCN,2024-06-26_12h35.19.485,LearnStrategy,2023.2.3,Win32,60.24096386,2,1,7,0.555555556,0.422222222,1,0,0,0.9348,Peridotite_14,7,14,6,8,0.935,0.358888889,-0.254444444,1,0,0,2.1782,Gabbro_rect,4,2.178,0,6,0,6,0,1,,,,,,,,,,,,,
6568969ced46d80283d0d447,SCN,2024-06-26_12h35.19.485,LearnStrategy,2023.2.3,Win32,60.24096386,2,1,8,-0.541111111,0.256666667,1,0,0,1.1336,Andesite_10,1,10,5,1,1.134,-0.153333333,-0.256666667,1,0,0,3.8635,Basalt_rect,2,3.864,0,7,0,7,0,1,,,,,,,,,,,,,
6568969ced46d80283d0d447,SCN,2024-06-26_12h35.19.485,LearnStrategy,2023.2.3,Win32,60.24096386,2,1,9,-0.373333333,0.237777778,1,0,0,1.2958,Basalt_14,2,14,5,2,1.296,-0.372222222,-0.388888889,1,0,0,2.408,Obsidian_rect,5,2.408,0,8,0,8,0,1,,,,,,,,,,,,,
6568969ced46d80283d0d447,SCN,2024-06-26_12h35.19.485,LearnStrategy,2023.2.3,Win32,60.24096386,2,1,10,-0.09,0.253333333,1,0,0,2.177,Diorite_09,3,09,5,4,2.177,0.126666667,-0.251111111,1,0,0,1.4889,Diorite_rect,3,1.489,1,9,0,9,0,1,,,,,,,,,,,,,
6568969ced46d80283d0d447,SCN,2024-06-26_12h35.19.485,LearnStrategy,2023.2.3,Win32,60.24096386,2,1,11,0.058888889,0.241111111,1,0,0,4.7287,Pegmatite_07,6,07,5,5,4.729,-0.372222222,-0.25,1,0,0,3.9084,Andesite_rect,1,3.908,0,10,0,10,0,1,,,,,,,,,,,,,
6568969ced46d80283d0d447,SCN,2024-06-26_12h35.19.485,LearnStrategy,2023.2.3,Win32,60.24096386,2,1,12,0.371111111,0.248888889,1,0,0,2.9592,Diorite_15,3,15,5,7,2.959,0.148888889,-0.26,1,0,0,1.3222,Diorite_rect,3,1.322,1,11,0,11,0,1,,,,,,,,,,,,,
6568969ced46d80283d0d447,SCN,2024-06-26_12h35.19.485,LearnStrategy,2023.2.3,Win32,60.24096386,2,1,13,0.573333333,0.246666667,1,0,0,1.2805,Obsidian_08,5,08,5,8,1.28,-0.386666667,-0.417777778,1,0,0,1.1522,Obsidian_rect,5,1.152,1,12,0,12,0,1,,,,,,,,,,,,,
6568969ced46d80283d0d447,SCN,2024-06-26_12h35.19.485,LearnStrategy,2023.2.3,Win32,60.24096386,2,1,14,-0.545555556,-0.097777778,1,0,0,1.0114,Gabbro_01,4,01,3,1,1.011,-0.408888889,-0.254444444,1,0,0,3.2288,Andesite_rect,1,3.229,0,13,0,13,0,1,,,,,,,,,,,,,
6568969ced46d80283d0d447,SCN,2024-06-26_12h35.19.485,LearnStrategy,2023.2.3,Win32,60.24096386,2,1,15,-0.228888889,-0.101111111,1,0,0,1.8791,Peridotite_13,7,13,3,3,1.879,-0.088888889,-0.413333333,1,0,0,4.9198,Pegmatite_rect,6,4.92,0,14,0,14,0,1,,,,,,,,,,,,,
6568969ced46d80283d0d447,SCN,2024-06-26_12h35.19.485,LearnStrategy,2023.2.3,Win32,60.24096386,2,1,16,-0.065555556,-0.103333333,1,0,0,1.266,Pegmatite_08,6,08,3,4,1.266,-0.415555556,-0.393333333,1,0,0,2.4625,Obsidian_rect,5,2.463,0,15,0,15,0,1,,,,,,,,,,,,,
6568969ced46d80283d0d447,SCN,2024-06-26_12h35.19.485,LearnStrategy,2023.2.3,Win32,60.24096386,2,2,1,,,,,,,,8,04,,,,,,,,,,,8,2.101,1,,,,,,0.423333333,-0.407777778,1,0,0,2.1008,Pumice_rect,0,0,0,0,1,
6568969ced46d80283d0d447,SCN,2024-06-26_12h35.19.485,LearnStrategy,2023.2.3,Win32,60.24096386,2,2,2,,,,,,,,7,06,,,,,,,,,,,7,4.664,1,,,,,,0.1,-0.396666667,1,0,0,4.6641,Peridotite_rect,1,0,1,0,1,
6568969ced46d80283d0d447,SCN,2024-06-26_12h35.19.485,LearnStrategy,2023.2.3,Win32,60.24096386,2,2,3,,,,,,,,4,13,,,,,,,,,,,3,1.548,0,,,,,,0.147777778,-0.241111111,1,0,0,1.5485,Diorite_rect,2,0,2,0,1,
6568969ced46d80283d0d447,SCN,2024-06-26_12h35.19.485,LearnStrategy,2023.2.3,Win32,60.24096386,2,2,4,,,,,,,,4,05,,,,,,,,,,,2,4.578,0,,,,,,-0.125555556,-0.262222222,1,0,0,4.5777,Basalt_rect,3,0,3,0,1,
6568969ced46d80283d0d447,SCN,2024-06-26_12h35.19.485,LearnStrategy,2023.2.3,Win32,60.24096386,2,2,5,,,,,,,,5,07,,,,,,,,,,,5,1.253,1,,,,,,-0.374444444,-0.392222222,1,0,0,1.2528,Obsidian_rect,4,0,4,0,1,
6568969ced46d80283d0d447,SCN,2024-06-26_12h35.19.485,LearnStrategy,2023.2.3,Win32,60.24096386,2,2,6,,,,,,,,5,06,,,,,,,,,,,5,1.109,1,,,,,,-0.402222222,-0.401111111,1,0,0,1.1086,Obsidian_rect,5,0,5,0,1,
6568969ced46d80283d0d447,SCN,2024-06-26_12h35.19.485,LearnStrategy,2023.2.3,Win32,60.24096386,2,2,7,,,,,,,,1,06,,,,,,,,,,,3,1.647,0,,,,,,0.148888889,-0.255555556,1,0,0,1.6466,Diorite_rect,6,0,6,0,1,
6568969ced46d80283d0d447,SCN,2024-06-26_12h35.19.485,LearnStrategy,2023.2.3,Win32,60.24096386,2,2,8,,,,,,,,1,05,,,,,,,,,,,7,10.942,0,,,,,,0.081111111,-0.393333333,1,0,0,10.9416,Peridotite_rect,7,0,7,0,1,
6568969ced46d80283d0d447,SCN,2024-06-26_12h35.19.485,LearnStrategy,2023.2.3,Win32,60.24096386,2,2,9,,,,,,,,7,10,,,,,,,,,,,1,4.766,0,,,,,,-0.341111111,-0.235555556,1,0,0,4.766,Andesite_rect,8,0,8,0,1,
6568969ced46d80283d0d447,SCN,2024-06-26_12h35.19.485,LearnStrategy,2023.2.3,Win32,60.24096386,2,2,10,,,,,,,,3,12,,,,,,,,,,,3,1.461,1,,,,,,0.124444444,-0.251111111,1,0,0,1.4613,Diorite_rect,9,0,9,0,1,
6568969ced46d80283d0d447,SCN,2024-06-26_12h35.19.485,LearnStrategy,2023.2.3,Win32,60.24096386,2,2,11,,,,,,,,6,11,,,,,,,,,,,1,4.278,0,,,,,,-0.344444444,-0.258888889,1,0,0,4.2779,Andesite_rect,10,0,10,0,1,
6568969ced46d80283d0d447,SCN,2024-06-26_12h35.19.485,LearnStrategy,2023.2.3,Win32,60.24096386,2,2,12,,,,,,,,6,05,,,,,,,,,,,6,4.401,1,,,,,,-0.093333333,-0.397777778,1,0,0,4.4008,Pegmatite_rect,11,0,11,0,1,
6568969ced46d80283d0d447,SCN,2024-06-26_12h35.19.485,LearnStrategy,2023.2.3,Win32,60.24096386,2,2,13,,,,,,,,2,12,,,,,,,,,,,8,1.543,0,,,,,,0.371111111,-0.408888889,1,0,0,1.5428,Pumice_rect,12,0,12,0,1,
6568969ced46d80283d0d447,SCN,2024-06-26_12h35.19.485,LearnStrategy,2023.2.3,Win32,60.24096386,2,2,14,,,,,,,,8,10,,,,,,,,,,,8,1.01,1,,,,,,0.387777778,-0.395555556,1,0,0,1.0095,Pumice_rect,13,0,13,0,1,
6568969ced46d80283d0d447,SCN,2024-06-26_12h35.19.485,LearnStrategy,2023.2.3,Win32,60.24096386,2,2,15,,,,,,,,3,07,,,,,,,,,,,3,1.515,1,,,,,,0.15,-0.253333333,1,0,0,1.5147,Diorite_rect,14,0,14,0,1,
6568969ced46d80283d0d447,SCN,2024-06-26_12h35.19.485,LearnStrategy,2023.2.3,Win32,60.24096386,2,2,16,,,,,,,,2,16,,,,,,,,,,,2,2.001,1,,,,,,-0.148888889,-0.245555556,1,0,0,2.0009,Basalt_rect,15,0,15,0,1,
6568969ced46d80283d0d447,SCN,2024-06-26_12h35.19.485,LearnStrategy,2023.2.3,Win32,60.24096386,3,1,1,-0.542222222,0.398888889,1,0,0,3.5795,Pegmatite_06,6,06,6,1,3.579,-0.113333333,-0.411111111,1,0,0,6.6001,Pegmatite_rect,6,6.6,1,0,0,0,0,1,,,,,,,,,,,,,
6568969ced46d80283d0d447,SCN,2024-06-26_12h35.19.485,LearnStrategy,2023.2.3,Win32,60.24096386,3,1,2,-0.391111111,0.403333333,1,0,0,1.0589,Diorite_16,3,16,6,2,1.059,0.128888889,-0.263333333,1,0,0,1.0219,Diorite_rect,3,1.022,1,1,0,1,0,1,,,,,,,,,,,,,
6568969ced46d80283d0d447,SCN,2024-06-26_12h35.19.485,LearnStrategy,2023.2.3,Win32,60.24096386,3,1,3,-0.246666667,0.426666667,1,0,0,0.8463,Andesite_11,1,11,6,3,0.846,0.062222222,-0.411111111,1,0,0,3.5869,Peridotite_rect,7,3.587,0,2,0,2,0,1,,,,,,,,,,,,,
6568969ced46d80283d0d447,SCN,2024-06-26_12h35.19.485,LearnStrategy,2023.2.3,Win32,60.24096386,3,1,4,-0.202222222,0.416666667,1,0,0,1.2198,Andesite_11,1,11,6,3,1.22,-0.397777778,-0.244444444,1,0,0,1.7775,Andesite_rect,1,1.777,1,3,0,3,0,1,,,,,,,,,,,,,
6568969ced46d80283d0d447,SCN,2024-06-26_12h35.19.485,LearnStrategy,2023.2.3,Win32,60.24096386,3,1,5,-0.065555556,0.414444444,1,0,0,0.9303,Gabbro_14,4,14,6,4,0.93,-0.15,-0.261111111,1,0,0,1.8258,Basalt_rect,2,1.826,0,4,0,4,0,1,,,,,,,,,,,,,
6568969ced46d80283d0d447,SCN,2024-06-26_12h35.19.485,LearnStrategy,2023.2.3,Win32,60.24096386,3,1,6,0.057777778,0.415555556,1,0,0,0.913,Peridotite_08,7,08,6,5,0.913,-0.374444444,-0.235555556,1,0,0,1.576,Andesite_rect,1,1.576,0,5,0,5,0,1,,,,,,,,,,,,,
6568969ced46d80283d0d447,SCN,2024-06-26_12h35.19.485,LearnStrategy,2023.2.3,Win32,60.24096386,3,1,7,0.086666667,0.397777778,1,0,0,0.9296,Peridotite_08,7,08,6,5,0.93,0.097777778,-0.401111111,1,0,0,1.8711,Peridotite_rect,7,1.871,1,6,0,6,0,1,,,,,,,,,,,,,
6568969ced46d80283d0d447,SCN,2024-06-26_12h35.19.485,LearnStrategy,2023.2.3,Win32,60.24096386,3,1,8,0.221111111,0.403333333,1,0,0,1.2465,Basalt_11,2,11,6,6,1.246,-0.121111111,-0.401111111,1,0,0,4.0909,Pegmatite_rect,6,4.091,0,7,0,7,0,1,,,,,,,,,,,,,
6568969ced46d80283d0d447,SCN,2024-06-26_12h35.19.485,LearnStrategy,2023.2.3,Win32,60.24096386,3,1,9,0.231111111,0.405555556,1,0,0,1.2183,Basalt_11,2,11,6,6,1.218,-0.163333333,-0.256666667,1,0,0,1.6683,Basalt_rect,2,1.668,1,8,0,8,0,1,,,,,,,,,,,,,
6568969ced46d80283d0d447,SCN,2024-06-26_12h35.19.485,LearnStrategy,2023.2.3,Win32,60.24096386,3,1,10,0.401111111,0.412222222,1,0,0,0.9436,Peridotite_07,7,07,6,7,0.944,-0.352222222,-0.247777778,1,0,0,1.9247,Andesite_rect,1,1.925,0,9,0,9,0,1,,,,,,,,,,,,,
6568969ced46d80283d0d447,SCN,2024-06-26_12h35.19.485,LearnStrategy,2023.2.3,Win32,60.24096386,3,1,11,0.528888889,0.405555556,1,0,0,1.3779,Peridotite_14,7,14,6,8,1.378,0.168888889,-0.246666667,1,0,0,2.6485,Diorite_rect,3,2.649,0,10,0,10,0,1,,,,,,,,,,,,,
6568969ced46d80283d0d447,SCN,2024-06-26_12h35.19.485,LearnStrategy,2023.2.3,Win32,60.24096386,3,1,12,-0.567777778,0.248888889,1,0,0,1.1469,Andesite_10,1,10,5,1,1.147,-0.094444444,-0.406666667,1,0,0,2.881,Pegmatite_rect,6,2.881,0,11,0,11,0,1,,,,,,,,,,,,,
6568969ced46d80283d0d447,SCN,2024-06-26_12h35.19.485,LearnStrategy,2023.2.3,Win32,60.24096386,3,1,13,-0.397777778,0.235555556,1,0,0,1.2961,Basalt_14,2,14,5,2,1.296,-0.181111111,-0.254444444,1,0,0,1.1126,Basalt_rect,2,1.113,1,12,0,12,0,1,,,,,,,,,,,,,
6568969ced46d80283d0d447,SCN,2024-06-26_12h35.19.485,LearnStrategy,2023.2.3,Win32,60.24096386,3,1,14,-0.214444444,0.257777778,1,0,0,1.4478,Basalt_04,2,04,5,3,1.448,-0.152222222,-0.261111111,1,0,0,3.3415,Basalt_rect,2,3.341,1,13,0,13,0,1,,,,,,,,,,,,,
6568969ced46d80283d0d447,SCN,2024-06-26_12h35.19.485,LearnStrategy,2023.2.3,Win32,60.24096386,3,1,15,-0.092222222,0.265555556,1,0,0,0.8293,Diorite_09,3,09,5,4,0.829,0.142222222,-0.242222222,1,0,0,0.9457,Diorite_rect,3,0.946,1,14,0,14,0,1,,,,,,,,,,,,,
6568969ced46d80283d0d447,SCN,2024-06-26_12h35.19.485,LearnStrategy,2023.2.3,Win32,60.24096386,3,1,16,0.087777778,0.246666667,1,0,0,0.9797,Pegmatite_07,6,07,5,5,0.98,-0.347777778,-0.251111111,1,0,0,4.0173,Andesite_rect,1,4.017,0,15,0,15,0,1,,,,,,,,,,,,,
6568969ced46d80283d0d447,SCN,2024-06-26_12h35.19.485,LearnStrategy,2023.2.3,Win32,60.24096386,3,2,1,,,,,,,,7,04,,,,,,,,,,,6,6.086,0,,,,,,-0.135555556,-0.408888889,1,0,0,6.0864,Pegmatite_rect,0,0,0,0,1,
6568969ced46d80283d0d447,SCN,2024-06-26_12h35.19.485,LearnStrategy,2023.2.3,Win32,60.24096386,3,2,2,,,,,,,,1,04,,,,,,,,,,,1,4.768,1,,,,,,-0.326666667,-0.243333333,1,0,0,4.7679,Andesite_rect,1,0,1,0,1,
6568969ced46d80283d0d447,SCN,2024-06-26_12h35.19.485,LearnStrategy,2023.2.3,Win32,60.24096386,3,2,3,,,,,,,,3,11,,,,,,,,,,,3,1.414,1,,,,,,0.156666667,-0.252222222,1,0,0,1.4138,Diorite_rect,2,0,2,0,1,
6568969ced46d80283d0d447,SCN,2024-06-26_12h35.19.485,LearnStrategy,2023.2.3,Win32,60.24096386,3,2,4,,,,,,,,3,10,,,,,,,,,,,3,0.955,1,,,,,,0.151111111,-0.235555556,1,0,0,0.955,Diorite_rect,3,0,3,0,1,
6568969ced46d80283d0d447,SCN,2024-06-26_12h35.19.485,LearnStrategy,2023.2.3,Win32,60.24096386,3,2,5,,,,,,,,7,02,,,,,,,,,,,7,4.807,1,,,,,,0.095555556,-0.401111111,1,0,0,4.8074,Peridotite_rect,4,0,4,0,1,
6568969ced46d80283d0d447,SCN,2024-06-26_12h35.19.485,LearnStrategy,2023.2.3,Win32,60.24096386,3,2,6,,,,,,,,4,09,,,,,,,,,,,6,5.363,0,,,,,,-0.117777778,-0.395555556,1,0,0,5.3632,Pegmatite_rect,5,0,5,0,1,
6568969ced46d80283d0d447,SCN,2024-06-26_12h35.19.485,LearnStrategy,2023.2.3,Win32,60.24096386,3,2,7,,,,,,,,6,10,,,,,,,,,,,1,16.667,0,,,,,,-0.381111111,-0.262222222,1,0,0,16.6673,Andesite_rect,6,0,6,0,1,
6568969ced46d80283d0d447,SCN,2024-06-26_12h35.19.485,LearnStrategy,2023.2.3,Win32,60.24096386,3,2,8,,,,,,,,8,03,,,,,,,,,,,8,1.468,1,,,,,,0.427777778,-0.4,1,0,0,1.4675,Pumice_rect,7,0,7,0,1,
6568969ced46d80283d0d447,SCN,2024-06-26_12h35.19.485,LearnStrategy,2023.2.3,Win32,60.24096386,3,2,9,,,,,,,,8,09,,,,,,,,,,,8,1.09,1,,,,,,0.411111111,-0.387777778,1,0,0,1.0897,Pumice_rect,8,0,8,0,1,
6568969ced46d80283d0d447,SCN,2024-06-26_12h35.19.485,LearnStrategy,2023.2.3,Win32,60.24096386,3,2,10,,,,,,,,6,13,,,,,,,,,,,1,8.281,0,,,,,,-0.36,-0.26,1,0,0,8.2813,Andesite_rect,9,0,9,0,1,
6568969ced46d80283d0d447,SCN,2024-06-26_12h35.19.485,LearnStrategy,2023.2.3,Win32,60.24096386,3,2,11,,,,,,,,2,01,,,,,,,,,,,2,3.467,1,,,,,,-0.106666667,-0.255555556,1,0,0,3.4671,Basalt_rect,10,0,10,0,1,
6568969ced46d80283d0d447,SCN,2024-06-26_12h35.19.485,LearnStrategy,2023.2.3,Win32,60.24096386,3,2,12,,,,,,,,2,10,,,,,,,,,,,2,1.776,1,,,,,,-0.153333333,-0.255555556,1,0,0,1.776,Basalt_rect,11,0,11,0,1,
6568969ced46d80283d0d447,SCN,2024-06-26_12h35.19.485,LearnStrategy,2023.2.3,Win32,60.24096386,3,2,13,,,,,,,,1,01,,,,,,,,,,,3,1.106,0,,,,,,0.131111111,-0.238888889,1,0,0,1.1055,Diorite_rect,12,0,12,0,1,
6568969ced46d80283d0d447,SCN,2024-06-26_12h35.19.485,LearnStrategy,2023.2.3,Win32,60.24096386,3,2,14,,,,,,,,5,02,,,,,,,,,,,5,1.302,1,,,,,,-0.378888889,-0.404444444,1,0,0,1.3021,Obsidian_rect,13,0,13,0,1,
6568969ced46d80283d0d447,SCN,2024-06-26_12h35.19.485,LearnStrategy,2023.2.3,Win32,60.24096386,3,2,15,,,,,,,,4,15,,,,,,,,,,,3,1.295,0,,,,,,0.138888889,-0.236666667,1,0,0,1.2949,Diorite_rect,14,0,14,0,1,
6568969ced46d80283d0d447,SCN,2024-06-26_12h35.19.485,LearnStrategy,2023.2.3,Win32,60.24096386,3,2,16,,,,,,,,5,09,,,,,,,,,,,5,1.148,1,,,,,,-0.376666667,-0.407777778,1,0,0,1.1476,Obsidian_rect,15,0,15,0,1,
6568969ced46d80283d0d447,SCN,2024-06-26_12h35.19.485,LearnStrategy,2023.2.3,Win32,60.24096386,4,1,1,-0.531111111,-0.422222222,1,0,0,1.6019,Gabbro_16,4,16,1,1,1.602,-0.136666667,-0.251111111,1,0,0,1.5333,Basalt_rect,2,1.533,0,0,0,0,0,1,,,,,,,,,,,,,
6568969ced46d80283d0d447,SCN,2024-06-26_12h35.19.485,LearnStrategy,2023.2.3,Win32,60.24096386,4,1,2,-0.375555556,-0.4,1,0,0,1.147,Basalt_05,2,05,1,2,1.147,0.384444444,-0.241111111,1,0,0,3.8526,Gabbro_rect,4,3.853,0,1,0,1,0,1,,,,,,,,,,,,,
6568969ced46d80283d0d447,SCN,2024-06-26_12h35.19.485,LearnStrategy,2023.2.3,Win32,60.24096386,4,1,3,-0.233333333,-0.405555556,1,0,0,0.9941,Obsidian_04,5,04,1,3,0.994,-0.386666667,-0.39,1,0,0,1.9645,Obsidian_rect,5,1.964,1,2,0,2,0,1,,,,,,,,,,,,,
6568969ced46d80283d0d447,SCN,2024-06-26_12h35.19.485,LearnStrategy,2023.2.3,Win32,60.24096386,4,1,4,-0.095555556,-0.407777778,1,0,0,1.0312,Gabbro_08,4,08,1,4,1.031,0.066666667,-0.402222222,1,0,0,4.5237,Peridotite_rect,7,4.524,0,3,0,3,0,1,,,,,,,,,,,,,
6568969ced46d80283d0d447,SCN,2024-06-26_12h35.19.485,LearnStrategy,2023.2.3,Win32,60.24096386,4,1,5,0.065555556,-0.405555556,1,0,0,1.0339,Pumice_16,8,16,1,5,1.034,0.396666667,-0.386666667,1,0,0,1.538,Pumice_rect,8,1.538,1,4,0,4,0,1,,,,,,,,,,,,,
6568969ced46d80283d0d447,SCN,2024-06-26_12h35.19.485,LearnStrategy,2023.2.3,Win32,60.24096386,4,1,6,0.228888889,-0.385555556,1,0,0,1.0632,Andesite_09,1,09,1,6,1.063,-0.358888889,-0.258888889,1,0,0,2.2145,Andesite_rect,1,2.214,1,5,0,5,0,1,,,,,,,,,,,,,
6568969ced46d80283d0d447,SCN,2024-06-26_12h35.19.485,LearnStrategy,2023.2.3,Win32,60.24096386,4,1,7,0.377777778,-0.396666667,1,0,0,1.1198,Peridotite_12,7,12,1,7,1.12,0.056666667,-0.416666667,1,0,0,5.1187,Peridotite_rect,7,5.119,1,6,0,6,0,1,,,,,,,,,,,,,
6568969ced46d80283d0d447,SCN,2024-06-26_12h35.19.485,LearnStrategy,2023.2.3,Win32,60.24096386,4,1,8,0.548888889,-0.402222222,1,0,0,1.6444,Pumice_02,8,02,1,8,1.644,0.398888889,-0.397777778,1,0,0,1.0828,Pumice_rect,8,1.083,1,7,0,7,0,1,,,,,,,,,,,,,
6568969ced46d80283d0d447,SCN,2024-06-26_12h35.19.485,LearnStrategy,2023.2.3,Win32,60.24096386,4,1,9,-0.567777778,-0.292222222,1,0,0,1.0814,Pegmatite_03,6,03,2,1,1.081,-0.417777778,-0.255555556,1,0,0,2.6209,Andesite_rect,1,2.621,0,8,0,8,0,1,,,,,,,,,,,,,
6568969ced46d80283d0d447,SCN,2024-06-26_12h35.19.485,LearnStrategy,2023.2.3,Win32,60.24096386,4,1,10,-0.401111111,-0.254444444,1,0,0,0.9764,Pegmatite_09,6,09,2,2,0.976,-0.078888889,-0.404444444,1,0,0,2.9993,Pegmatite_rect,6,2.999,1,9,0,9,0,1,,,,,,,,,,,,,
6568969ced46d80283d0d447,SCN,2024-06-26_12h35.19.485,LearnStrategy,2023.2.3,Win32,60.24096386,4,1,11,-0.261111111,-0.243333333,1,0,0,1.4428,Andesite_07,1,07,2,3,1.443,0.124444444,-0.24,1,0,0,1.1931,Diorite_rect,3,1.193,0,10,0,10,0,1,,,,,,,,,,,,,
6568969ced46d80283d0d447,SCN,2024-06-26_12h35.19.485,LearnStrategy,2023.2.3,Win32,60.24096386,4,1,12,0.226666667,-0.255555556,1,0,0,1.4805,Obsidian_05,5,05,2,6,1.481,-0.344444444,-0.261111111,1,0,0,1.8167,Andesite_rect,1,1.817,0,11,0,11,0,1,,,,,,,,,,,,,
6568969ced46d80283d0d447,SCN,2024-06-26_12h35.19.485,LearnStrategy,2023.2.3,Win32,60.24096386,4,1,13,0.396666667,-0.26,1,0,0,1.3273,Peridotite_16,7,16,2,7,1.327,0.08,-0.401111111,1,0,0,4.3442,Peridotite_rect,7,4.344,1,12,0,12,0,1,,,,,,,,,,,,,
6568969ced46d80283d0d447,SCN,2024-06-26_12h35.19.485,LearnStrategy,2023.2.3,Win32,60.24096386,4,1,14,0.518888889,-0.266666667,1,0,0,1.7454,Basalt_08,2,08,2,8,1.745,-0.133333333,-0.258888889,1,0,0,3.3381,Basalt_rect,2,3.338,1,13,0,13,0,1,,,,,,,,,,,,,
6568969ced46d80283d0d447,SCN,2024-06-26_12h35.19.485,LearnStrategy,2023.2.3,Win32,60.24096386,4,1,15,0.554444444,-0.094444444,1,0,0,1.1624,Diorite_08,3,08,3,8,1.162,0.161111111,-0.243333333,1,0,0,1.1488,Diorite_rect,3,1.149,1,14,0,14,0,1,,,,,,,,,,,,,
6568969ced46d80283d0d447,SCN,2024-06-26_12h35.19.485,LearnStrategy,2023.2.3,Win32,60.24096386,4,1,16,0.391111111,-0.092222222,1,0,0,0.9037,Basalt_09,2,09,3,7,0.904,-0.324444444,-0.258888889,1,0,0,3.021,Andesite_rect,1,3.021,0,15,0,15,0,1,,,,,,,,,,,,,
6568969ced46d80283d0d447,SCN,2024-06-26_12h35.19.485,LearnStrategy,2023.2.3,Win32,60.24096386,4,2,1,,,,,,,,6,16,,,,,,,,,,,7,5.983,0,,,,,,0.093333333,-0.406666667,1,0,0,5.9835,Peridotite_rect,0,0,0,0,1,
6568969ced46d80283d0d447,SCN,2024-06-26_12h35.19.485,LearnStrategy,2023.2.3,Win32,60.24096386,4,2,2,,,,,,,,7,02,,,,,,,,,,,7,2.377,1,,,,,,0.093333333,-0.406666667,1,0,0,2.3771,Peridotite_rect,1,0,1,0,1,
6568969ced46d80283d0d447,SCN,2024-06-26_12h35.19.485,LearnStrategy,2023.2.3,Win32,60.24096386,4,2,3,,,,,,,,5,10,,,,,,,,,,,5,1.193,1,,,,,,-0.408888889,-0.398888889,1,0,0,1.1929,Obsidian_rect,2,0,2,0,1,
6568969ced46d80283d0d447,SCN,2024-06-26_12h35.19.485,LearnStrategy,2023.2.3,Win32,60.24096386,4,2,4,,,,,,,,8,14,,,,,,,,,,,8,1.493,1,,,,,,0.38,-0.392222222,1,0,0,1.4933,Pumice_rect,3,0,3,0,1,
6568969ced46d80283d0d447,SCN,2024-06-26_12h35.19.485,LearnStrategy,2023.2.3,Win32,60.24096386,4,2,5,,,,,,,,6,11,,,,,,,,,,,7,2.201,0,,,,,,0.072222222,-0.401111111,1,0,0,2.2006,Peridotite_rect,4,0,4,0,1,
6568969ced46d80283d0d447,SCN,2024-06-26_12h35.19.485,LearnStrategy,2023.2.3,Win32,60.24096386,4,2,6,,,,,,,,4,13,,,,,,,,,,,7,4.444,0,,,,,,0.084444444,-0.398888889,1,0,0,4.4437,Peridotite_rect,5,0,5,0,1,
6568969ced46d80283d0d447,SCN,2024-06-26_12h35.19.485,LearnStrategy,2023.2.3,Win32,60.24096386,4,2,7,,,,,,,,4,15,,,,,,,,,,,3,1.333,0,,,,,,0.13,-0.25,1,0,0,1.3327,Diorite_rect,6,0,6,0,1,
6568969ced46d80283d0d447,SCN,2024-06-26_12h35.19.485,LearnStrategy,2023.2.3,Win32,60.24096386,4,2,8,,,,,,,,1,04,,,,,,,,,,,1,1.775,1,,,,,,-0.377777778,-0.253333333,1,0,0,1.7751,Andesite_rect,7,0,7,0,1,
6568969ced46d80283d0d447,SCN,2024-06-26_12h35.19.485,LearnStrategy,2023.2.3,Win32,60.24096386,4,2,9,,,,,,,,8,09,,,,,,,,,,,8,1.971,1,,,,,,0.364444444,-0.408888889,1,0,0,1.9706,Pumice_rect,8,0,8,0,1,
6568969ced46d80283d0d447,SCN,2024-06-26_12h35.19.485,LearnStrategy,2023.2.3,Win32,60.24096386,4,2,10,,,,,,,,5,07,,,,,,,,,,,5,1.242,1,,,,,,-0.376666667,-0.401111111,1,0,0,1.2425,Obsidian_rect,9,0,9,0,1,
6568969ced46d80283d0d447,SCN,2024-06-26_12h35.19.485,LearnStrategy,2023.2.3,Win32,60.24096386,4,2,11,,,,,,,,2,06,,,,,,,,,,,4,1.577,0,,,,,,0.385555556,-0.251111111,1,0,0,1.5774,Gabbro_rect,10,0,10,0,1,
6568969ced46d80283d0d447,SCN,2024-06-26_12h35.19.485,LearnStrategy,2023.2.3,Win32,60.24096386,4,2,12,,,,,,,,7,15,,,,,,,,,,,7,5.129,1,,,,,,0.081111111,-0.391111111,1,0,0,5.1294,Peridotite_rect,11,0,11,0,1,
6568969ced46d80283d0d447,SCN,2024-06-26_12h35.19.485,LearnStrategy,2023.2.3,Win32,60.24096386,4,2,13,,,,,,,,3,11,,,,,,,,,,,3,1.291,1,,,,,,0.133333333,-0.234444444,1,0,0,1.2914,Diorite_rect,12,0,12,0,1,
6568969ced46d80283d0d447,SCN,2024-06-26_12h35.19.485,LearnStrategy,2023.2.3,Win32,60.24096386,4,2,14,,,,,,,,2,16,,,,,,,,,,,4,2.982,0,,,,,,0.38,-0.256666667,1,0,0,2.9823,Gabbro_rect,13,0,13,0,1,
6568969ced46d80283d0d447,SCN,2024-06-26_12h35.19.485,LearnStrategy,2023.2.3,Win32,60.24096386,4,2,15,,,,,,,,3,12,,,,,,,,,,,3,1.175,1,,,,,,0.122222222,-0.25,1,0,0,1.1747,Diorite_rect,14,0,14,0,1,
6568969ced46d80283d0d447,SCN,2024-06-26_12h35.19.485,LearnStrategy,2023.2.3,Win32,60.24096386,4,2,16,,,,,,,,1,06,,,,,,,,,,,7,6.593,0,,,,,,0.114444444,-0.403333333,1,0,0,6.5933,Peridotite_rect,15,0,15,0,1,
6568969ced46d80283d0d447,SCN,2024-06-26_12h35.19.485,LearnStrategy,2023.2.3,Win32,60.24096386,5,1,1,-0.552222222,-0.114444444,1,0,0,5.8702,Gabbro_01,4,01,3,1,5.87,-0.395555556,-0.251111111,1,0,0,1.8887,Andesite_rect,1,1.889,0,0,0,0,0,1,,,,,,,,,,,,,
6568969ced46d80283d0d447,SCN,2024-06-26_12h35.19.485,LearnStrategy,2023.2.3,Win32,60.24096386,5,1,2,-0.244444444,-0.102222222,1,0,0,1.5821,Peridotite_13,7,13,3,3,1.582,0.117777778,-0.401111111,1,0,0,2.5988,Peridotite_rect,7,2.599,1,1,0,1,0,1,,,,,,,,,,,,,
6568969ced46d80283d0d447,SCN,2024-06-26_12h35.19.485,LearnStrategy,2023.2.3,Win32,60.24096386,5,1,3,-0.058888889,-0.104444444,1,0,0,2.3815,Pegmatite_08,6,08,3,4,2.381,-0.395555556,-0.387777778,1,0,0,3.3732,Obsidian_rect,5,3.373,0,2,0,2,0,1,,,,,,,,,,,,,
6568969ced46d80283d0d447,SCN,2024-06-26_12h35.19.485,LearnStrategy,2023.2.3,Win32,60.24096386,5,1,4,0.24,-0.114444444,1,0,0,0.9939,Obsidian_14,5,14,3,6,0.994,-0.394444444,-0.395555556,1,0,0,4.8079,Obsidian_rect,5,4.808,1,3,0,3,0,1,,,,,,,,,,,,,
6568969ced46d80283d0d447,SCN,2024-06-26_12h35.19.485,LearnStrategy,2023.2.3,Win32,60.24096386,5,1,5,0.374444444,-0.1,1,0,0,1.2539,Basalt_09,2,09,3,7,1.254,0.37,-0.245555556,1,0,0,1.506,Gabbro_rect,4,1.506,0,4,0,4,0,1,,,,,,,,,,,,,
6568969ced46d80283d0d447,SCN,2024-06-26_12h35.19.485,LearnStrategy,2023.2.3,Win32,60.24096386,5,1,6,0.218888889,-0.104444444,1,0,0,2.5959,Obsidian_14,5,14,3,6,2.596,0.336666667,-0.257777778,1,0,0,2.3053,Gabbro_rect,4,2.305,0,5,0,5,0,1,,,,,,,,,,,,,
6568969ced46d80283d0d447,SCN,2024-06-26_12h35.19.485,LearnStrategy,2023.2.3,Win32,60.24096386,5,1,7,-0.23,0.086666667,1,0,0,2.3523,Gabbro_11,4,11,4,3,2.352,-0.36,-0.257777778,1,0,0,2.06,Andesite_rect,1,2.06,0,6,0,6,0,1,,,,,,,,,,,,,
6568969ced46d80283d0d447,SCN,2024-06-26_12h35.19.485,LearnStrategy,2023.2.3,Win32,60.24096386,5,1,8,0.078888889,-0.101111111,1,0,0,1.1463,Andesite_02,1,02,3,5,1.146,0.115555556,-0.398888889,1,0,0,1.929,Peridotite_rect,7,1.929,0,7,0,7,0,1,,,,,,,,,,,,,
6568969ced46d80283d0d447,SCN,2024-06-26_12h35.19.485,LearnStrategy,2023.2.3,Win32,60.24096386,5,1,9,-0.238888889,-0.261111111,1,0,0,2.1463,Andesite_07,1,07,2,3,2.146,0.115555556,-0.234444444,1,0,0,0.8125,Diorite_rect,3,0.813,0,8,0,8,0,1,,,,,,,,,,,,,
6568969ced46d80283d0d447,SCN,2024-06-26_12h35.19.485,LearnStrategy,2023.2.3,Win32,60.24096386,5,1,10,0.518888889,-0.087777778,1,0,0,1.1624,Diorite_08,3,08,3,8,1.162,0.18,-0.251111111,1,0,0,1.2754,Diorite_rect,3,1.275,1,9,0,9,0,1,,,,,,,,,,,,,
6568969ced46d80283d0d447,SCN,2024-06-26_12h35.19.485,LearnStrategy,2023.2.3,Win32,60.24096386,5,1,11,0.591111111,0.108888889,1,0,0,0.9298,Obsidian_11,5,11,4,8,0.93,-0.433333333,-0.403333333,1,0,0,1.0063,Obsidian_rect,5,1.006,1,10,0,10,0,1,,,,,,,,,,,,,
6568969ced46d80283d0d447,SCN,2024-06-26_12h35.19.485,LearnStrategy,2023.2.3,Win32,60.24096386,5,1,12,0.535555556,0.271111111,1,0,0,1.0448,Obsidian_08,5,08,5,8,1.045,-0.375555556,-0.413333333,1,0,0,0.9933,Obsidian_rect,5,0.993,1,11,0,11,0,1,,,,,,,,,,,,,
6568969ced46d80283d0d447,SCN,2024-06-26_12h35.19.485,LearnStrategy,2023.2.3,Win32,60.24096386,5,1,13,0.541111111,0.39,1,0,0,1.2817,Peridotite_14,7,14,6,8,1.282,0.111111111,-0.396666667,1,0,0,2.3115,Peridotite_rect,7,2.312,1,12,0,12,0,1,,,,,,,,,,,,,
6568969ced46d80283d0d447,SCN,2024-06-26_12h35.19.485,LearnStrategy,2023.2.3,Win32,60.24096386,5,1,14,0.404444444,0.406666667,1,0,0,1.4674,Peridotite_07,7,07,6,7,1.467,0.067777778,-0.413333333,1,0,0,2.6308,Peridotite_rect,7,2.631,1,13,0,13,0,1,,,,,,,,,,,,,
6568969ced46d80283d0d447,SCN,2024-06-26_12h35.19.485,LearnStrategy,2023.2.3,Win32,60.24096386,5,1,15,0.236666667,0.421111111,1,0,0,1.6465,Basalt_11,2,11,6,6,1.647,-0.324444444,-0.255555556,1,0,0,3.3008,Andesite_rect,1,3.301,0,14,0,14,0,1,,,,,,,,,,,,,
6568969ced46d80283d0d447,SCN,2024-06-26_12h35.19.485,LearnStrategy,2023.2.3,Win32,60.24096386,5,1,16,-0.537777778,-0.403333333,1,0,0,1.6473,Gabbro_16,4,16,1,1,1.647,0.388888889,-0.244444444,1,0,0,2.2724,Gabbro_rect,4,2.272,1,15,0,15,0,1,,,,,,,,,,,,,
6568969ced46d80283d0d447,SCN,2024-06-26_12h35.19.485,LearnStrategy,2023.2.3,Win32,60.24096386,5,2,1,,,,,,,,3,06,,,,,,,,,,,3,6.51,1,,,,,,0.121111111,-0.252222222,1,0,0,6.5097,Diorite_rect,0,0,0,0,1,
6568969ced46d80283d0d447,SCN,2024-06-26_12h35.19.485,LearnStrategy,2023.2.3,Win32,60.24096386,5,2,2,,,,,,,,4,03,,,,,,,,,,,7,2.33,0,,,,,,0.078888889,-0.396666667,1,0,0,2.3298,Peridotite_rect,1,0,1,0,1,
6568969ced46d80283d0d447,SCN,2024-06-26_12h35.19.485,LearnStrategy,2023.2.3,Win32,60.24096386,5,2,3,,,,,,,,3,10,,,,,,,,,,,3,2.947,1,,,,,,0.087777778,-0.252222222,1,0,0,2.9474,Diorite_rect,2,0,2,0,1,
6568969ced46d80283d0d447,SCN,2024-06-26_12h35.19.485,LearnStrategy,2023.2.3,Win32,60.24096386,5,2,4,,,,,,,,2,10,,,,,,,,,,,4,10.953,0,,,,,,0.324444444,-0.251111111,1,0,0,10.9527,Gabbro_rect,3,0,3,0,1,
6568969ced46d80283d0d447,SCN,2024-06-26_12h35.19.485,LearnStrategy,2023.2.3,Win32,60.24096386,5,2,5,,,,,,,,6,13,,,,,,,,,,,7,1.98,0,,,,,,0.085555556,-0.385555556,1,0,0,1.9803,Peridotite_rect,4,0,4,0,1,
6568969ced46d80283d0d447,SCN,2024-06-26_12h35.19.485,LearnStrategy,2023.2.3,Win32,60.24096386,5,2,6,,,,,,,,5,12,,,,,,,,,,,5,1.39,1,,,,,,-0.427777778,-0.406666667,1,0,0,1.3901,Obsidian_rect,5,0,5,0,1,
6568969ced46d80283d0d447,SCN,2024-06-26_12h35.19.485,LearnStrategy,2023.2.3,Win32,60.24096386,5,2,7,,,,,,,,7,10,,,,,,,,,,,7,2.926,1,,,,,,0.067777778,-0.398888889,1,0,0,2.9255,Peridotite_rect,6,0,6,0,1,
6568969ced46d80283d0d447,SCN,2024-06-26_12h35.19.485,LearnStrategy,2023.2.3,Win32,60.24096386,5,2,8,,,,,,,,1,05,,,,,,,,,,,1,11.22,1,,,,,,-0.376666667,-0.241111111,1,0,0,11.2203,Andesite_rect,7,0,7,0,1,
6568969ced46d80283d0d447,SCN,2024-06-26_12h35.19.485,LearnStrategy,2023.2.3,Win32,60.24096386,5,2,9,,,,,,,,6,10,,,,,,,,,,,7,12.35,0,,,,,,0.055555556,-0.403333333,1,0,0,12.3497,Peridotite_rect,8,0,8,0,1,
6568969ced46d80283d0d447,SCN,2024-06-26_12h35.19.485,LearnStrategy,2023.2.3,Win32,60.24096386,5,2,10,,,,,,,,8,06,,,,,,,,,,,8,1.336,1,,,,,,0.378888889,-0.403333333,1,0,0,1.3361,Pumice_rect,9,0,9,0,1,
6568969ced46d80283d0d447,SCN,2024-06-26_12h35.19.485,LearnStrategy,2023.2.3,Win32,60.24096386,5,2,11,,,,,,,,4,10,,,,,,,,,,,2,2.743,0,,,,,,-0.116666667,-0.255555556,1,0,0,2.7428,Basalt_rect,10,0,10,0,1,
6568969ced46d80283d0d447,SCN,2024-06-26_12h35.19.485,LearnStrategy,2023.2.3,Win32,60.24096386,5,2,12,,,,,,,,1,16,,,,,,,,,,,2,7.23,0,,,,,,-0.125555556,-0.251111111,1,0,0,7.2302,Basalt_rect,11,0,11,0,1,
6568969ced46d80283d0d447,SCN,2024-06-26_12h35.19.485,LearnStrategy,2023.2.3,Win32,60.24096386,5,2,13,,,,,,,,2,01,,,,,,,,,,,4,1.813,0,,,,,,0.396666667,-0.257777778,1,0,0,1.8126,Gabbro_rect,12,0,12,0,1,
6568969ced46d80283d0d447,SCN,2024-06-26_12h35.19.485,LearnStrategy,2023.2.3,Win32,60.24096386,5,2,14,,,,,,,,5,02,,,,,,,,,,,5,1.341,1,,,,,,-0.363333333,-0.394444444,1,0,0,1.3409,Obsidian_rect,13,0,13,0,1,
6568969ced46d80283d0d447,SCN,2024-06-26_12h35.19.485,LearnStrategy,2023.2.3,Win32,60.24096386,5,2,15,,,,,,,,7,05,,,,,,,,,,,7,3.621,1,,,,,,0.103333333,-0.41,1,0,0,3.6214,Peridotite_rect,14,0,14,0,1,
6568969ced46d80283d0d447,SCN,2024-06-26_12h35.19.485,LearnStrategy,2023.2.3,Win32,60.24096386,5,2,16,,,,,,,,8,04,,,,,,,,,,,8,1.197,1,,,,,,0.39,-0.387777778,1,0,0,1.1966,Pumice_rect,15,0,15,0,1,
6568969ced46d80283d0d447,SCN,2024-06-26_12h35.19.485,LearnStrategy,2023.2.3,Win32,60.24096386,6,1,1,-0.553333333,-0.101111111,1,0,0,1.3202,Gabbro_01,4,01,3,1,1.32,0.097777778,-0.4,1,0,0,2.1842,Peridotite_rect,7,2.184,0,0,0,0,0,1,,,,,,,,,,,,,
6568969ced46d80283d0d447,SCN,2024-06-26_12h35.19.485,LearnStrategy,2023.2.3,Win32,60.24096386,6,1,2,-0.262222222,-0.083333333,1,0,0,1.2464,Peridotite_13,7,13,3,3,1.246,0.126666667,-0.401111111,1,0,0,1.8551,Peridotite_rect,7,1.855,1,1,0,1,0,1,,,,,,,,,,,,,
6568969ced46d80283d0d447,SCN,2024-06-26_12h35.19.485,LearnStrategy,2023.2.3,Win32,60.24096386,6,1,3,0.097777778,-0.107777778,1,0,0,0.8941,Andesite_02,1,02,3,5,0.894,-0.168888889,-0.258888889,1,0,0,3.2045,Basalt_rect,2,3.204,0,2,0,2,0,1,,,,,,,,,,,,,
6568969ced46d80283d0d447,SCN,2024-06-26_12h35.19.485,LearnStrategy,2023.2.3,Win32,60.24096386,6,1,4,0.243333333,-0.095555556,1,0,0,1.212,Obsidian_14,5,14,3,6,1.212,0.387777778,-0.245555556,1,0,0,2.8606,Gabbro_rect,4,2.861,0,3,0,3,0,1,,,,,,,,,,,,,
6568969ced46d80283d0d447,SCN,2024-06-26_12h35.19.485,LearnStrategy,2023.2.3,Win32,60.24096386,6,1,5,0.058888889,0.117777778,1,0,0,1.8202,Gabbro_12,4,12,4,5,1.82,-0.353333333,-0.243333333,1,0,0,1.7901,Andesite_rect,1,1.79,0,4,0,4,0,1,,,,,,,,,,,,,
6568969ced46d80283d0d447,SCN,2024-06-26_12h35.19.485,LearnStrategy,2023.2.3,Win32,60.24096386,6,1,6,-0.083333333,0.266666667,1,0,0,1.7199,Diorite_09,3,09,5,4,1.72,0.14,-0.254444444,1,0,0,1.0969,Diorite_rect,3,1.097,1,5,0,5,0,1,,,,,,,,,,,,,
6568969ced46d80283d0d447,SCN,2024-06-26_12h35.19.485,LearnStrategy,2023.2.3,Win32,60.24096386,6,1,7,0.211111111,0.26,1,0,0,1.4297,Andesite_14,1,14,5,6,1.43,-0.356666667,-0.241111111,1,0,0,1.3923,Andesite_rect,1,1.392,1,6,0,6,0,1,,,,,,,,,,,,,
6568969ced46d80283d0d447,SCN,2024-06-26_12h35.19.485,LearnStrategy,2023.2.3,Win32,60.24096386,6,1,8,0.375555556,0.272222222,1,0,0,1.0964,Diorite_15,3,15,5,7,1.096,0.111111111,-0.262222222,1,0,0,1.2913,Diorite_rect,3,1.291,1,7,0,7,0,1,,,,,,,,,,,,,
6568969ced46d80283d0d447,SCN,2024-06-26_12h35.19.485,LearnStrategy,2023.2.3,Win32,60.24096386,6,1,9,-0.226666667,0.264444444,1,0,0,1.1266,Basalt_04,2,04,5,3,1.127,-0.123333333,-0.231111111,1,0,0,1.4671,Basalt_rect,2,1.467,1,8,0,8,0,1,,,,,,,,,,,,,
6568969ced46d80283d0d447,SCN,2024-06-26_12h35.19.485,LearnStrategy,2023.2.3,Win32,60.24096386,6,1,10,-0.092222222,0.404444444,1,0,0,1.4431,Gabbro_14,4,14,6,4,1.443,0.402222222,-0.256666667,1,0,0,2.5973,Gabbro_rect,4,2.597,1,9,0,9,0,1,,,,,,,,,,,,,
6568969ced46d80283d0d447,SCN,2024-06-26_12h35.19.485,LearnStrategy,2023.2.3,Win32,60.24096386,6,1,11,-0.38,0.243333333,1,0,0,1.0802,Basalt_14,2,14,5,2,1.08,0.418888889,-0.237777778,1,0,0,1.8828,Gabbro_rect,4,1.883,0,10,0,10,0,1,,,,,,,,,,,,,
6568969ced46d80283d0d447,SCN,2024-06-26_12h35.19.485,LearnStrategy,2023.2.3,Win32,60.24096386,6,1,12,-0.264444444,0.24,1,0,0,1.1467,Basalt_04,2,04,5,3,1.147,-0.141111111,-0.243333333,1,0,0,2.9862,Basalt_rect,2,2.986,1,11,0,11,0,1,,,,,,,,,,,,,
6568969ced46d80283d0d447,SCN,2024-06-26_12h35.19.485,LearnStrategy,2023.2.3,Win32,60.24096386,6,1,13,-0.381111111,0.264444444,1,0,0,0.9794,Basalt_14,2,14,5,2,0.979,-0.088888889,-0.256666667,1,0,0,2.0526,Basalt_rect,2,2.053,1,12,0,12,0,1,,,,,,,,,,,,,
6568969ced46d80283d0d447,SCN,2024-06-26_12h35.19.485,LearnStrategy,2023.2.3,Win32,60.24096386,6,1,14,-0.063333333,0.408888889,1,0,0,0.8954,Gabbro_14,4,14,6,4,0.895,0.381111111,-0.257777778,1,0,0,2.2563,Gabbro_rect,4,2.256,1,13,0,13,0,1,,,,,,,,,,,,,
6568969ced46d80283d0d447,SCN,2024-06-26_12h35.19.485,LearnStrategy,2023.2.3,Win32,60.24096386,6,1,15,-0.255555556,0.264444444,1,0,0,1.849,Basalt_04,2,04,5,3,1.849,-0.118888889,-0.252222222,1,0,0,2.8622,Basalt_rect,2,2.862,1,14,0,14,0,1,,,,,,,,,,,,,
6568969ced46d80283d0d447,SCN,2024-06-26_12h35.19.485,LearnStrategy,2023.2.3,Win32,60.24096386,6,1,16,-0.091111111,0.402222222,1,0,0,1.0304,Gabbro_14,4,14,6,4,1.03,0.395555556,-0.248888889,1,0,0,2.8801,Gabbro_rect,4,2.88,1,15,0,15,0,1,,,,,,,,,,,,,
6568969ced46d80283d0d447,SCN,2024-06-26_12h35.19.485,LearnStrategy,2023.2.3,Win32,60.24096386,6,2,1,,,,,,,,1,03,,,,,,,,,,,1,4.209,1,,,,,,-0.374444444,-0.244444444,1,0,0,4.2089,Andesite_rect,0,0,0,0,1,
6568969ced46d80283d0d447,SCN,2024-06-26_12h35.19.485,LearnStrategy,2023.2.3,Win32,60.24096386,6,2,2,,,,,,,,8,10,,,,,,,,,,,8,1.477,1,,,,,,0.374444444,-0.407777778,1,0,0,1.4767,Pumice_rect,1,0,1,0,1,
6568969ced46d80283d0d447,SCN,2024-06-26_12h35.19.485,LearnStrategy,2023.2.3,Win32,60.24096386,6,2,3,,,,,,,,4,05,,,,,,,,,,,7,2.814,0,,,,,,0.104444444,-0.406666667,1,0,0,2.8143,Peridotite_rect,2,0,2,0,1,
6568969ced46d80283d0d447,SCN,2024-06-26_12h35.19.485,LearnStrategy,2023.2.3,Win32,60.24096386,6,2,4,,,,,,,,3,07,,,,,,,,,,,3,2.109,1,,,,,,0.116666667,-0.243333333,1,0,0,2.1094,Diorite_rect,3,0,3,0,1,
6568969ced46d80283d0d447,SCN,2024-06-26_12h35.19.485,LearnStrategy,2023.2.3,Win32,60.24096386,6,2,5,,,,,,,,1,01,,,,,,,,,,,4,3.794,0,,,,,,0.391111111,-0.245555556,1,0,0,3.7938,Gabbro_rect,4,0,4,0,1,
6568969ced46d80283d0d447,SCN,2024-06-26_12h35.19.485,LearnStrategy,2023.2.3,Win32,60.24096386,6,2,6,,,,,,,,7,04,,,,,,,,,,,7,9.498,1,,,,,,0.096666667,-0.415555556,1,0,0,9.4984,Peridotite_rect,5,0,5,0,1,
6568969ced46d80283d0d447,SCN,2024-06-26_12h35.19.485,LearnStrategy,2023.2.3,Win32,60.24096386,6,2,7,,,,,,,,4,09,,,,,,,,,,,4,4.504,1,,,,,,0.37,-0.264444444,1,0,0,4.5043,Gabbro_rect,6,0,6,0,1,
6568969ced46d80283d0d447,SCN,2024-06-26_12h35.19.485,LearnStrategy,2023.2.3,Win32,60.24096386,6,2,8,,,,,,,,6,12,,,,,,,,,,,1,3.232,0,,,,,,-0.348888889,-0.246666667,1,0,0,3.2319,Andesite_rect,7,0,7,0,1,
6568969ced46d80283d0d447,SCN,2024-06-26_12h35.19.485,LearnStrategy,2023.2.3,Win32,60.24096386,6,2,9,,,,,,,,2,12,,,,,,,,,,,8,1.713,0,,,,,,0.384444444,-0.398888889,1,0,0,1.7125,Pumice_rect,8,0,8,0,1,
6568969ced46d80283d0d447,SCN,2024-06-26_12h35.19.485,LearnStrategy,2023.2.3,Win32,60.24096386,6,2,10,,,,,,,,2,02,,,,,,,,,,,2,1.998,1,,,,,,-0.141111111,-0.252222222,1,0,0,1.9983,Basalt_rect,9,0,9,0,1,
6568969ced46d80283d0d447,SCN,2024-06-26_12h35.19.485,LearnStrategy,2023.2.3,Win32,60.24096386,6,2,11,,,,,,,,8,03,,,,,,,,,,,8,1.223,1,,,,,,0.403333333,-0.4,1,0,0,1.223,Pumice_rect,10,0,10,0,1,
6568969ced46d80283d0d447,SCN,2024-06-26_12h35.19.485,LearnStrategy,2023.2.3,Win32,60.24096386,6,2,12,,,,,,,,5,09,,,,,,,,,,,5,1.489,1,,,,,,-0.348888889,-0.391111111,1,0,0,1.4886,Obsidian_rect,11,0,11,0,1,
6568969ced46d80283d0d447,SCN,2024-06-26_12h35.19.485,LearnStrategy,2023.2.3,Win32,60.24096386,6,2,13,,,,,,,,5,06,,,,,,,,,,,5,1.143,1,,,,,,-0.354444444,-0.395555556,1,0,0,1.143,Obsidian_rect,12,0,12,0,1,
6568969ced46d80283d0d447,SCN,2024-06-26_12h35.19.485,LearnStrategy,2023.2.3,Win32,60.24096386,6,2,14,,,,,,,,7,06,,,,,,,,,,,7,2.105,1,,,,,,0.094444444,-0.397777778,1,0,0,2.1052,Peridotite_rect,13,0,13,0,1,
6568969ced46d80283d0d447,SCN,2024-06-26_12h35.19.485,LearnStrategy,2023.2.3,Win32,60.24096386,6,2,15,,,,,,,,6,05,,,,,,,,,,,6,5.897,1,,,,,,-0.115555556,-0.397777778,1,0,0,5.8971,Pegmatite_rect,14,0,14,0,1,
6568969ced46d80283d0d447,SCN,2024-06-26_12h35.19.485,LearnStrategy,2023.2.3,Win32,60.24096386,6,2,16,,,,,,,,3,13,,,,,,,,,,,3,1.556,1,,,,,,0.138888889,-0.253333333,1,0,0,1.5556,Diorite_rect,15,0,15,0,1,
6568969ced46d80283d0d447,SCN,2024-06-26_12h35.19.485,LearnStrategy,2023.2.3,Win32,60.24096386,7,1,1,-0.541111111,-0.254444444,1,0,0,2.373,Pegmatite_03,6,03,2,1,2.373,0.113333333,-0.386666667,1,0,0,3.5362,Peridotite_rect,7,3.536,0,0,0,0,0,1,,,,,,,,,,,,,
6568969ced46d80283d0d447,SCN,2024-06-26_12h35.19.485,LearnStrategy,2023.2.3,Win32,60.24096386,7,1,2,-0.534444444,-0.266666667,1,0,0,2.9448,Pegmatite_03,6,03,2,1,2.945,-0.095555556,-0.396666667,1,0,0,2.0622,Pegmatite_rect,6,2.062,1,1,0,1,0,1,,,,,,,,,,,,,
6568969ced46d80283d0d447,SCN,2024-06-26_12h35.19.485,LearnStrategy,2023.2.3,Win32,60.24096386,7,1,3,-0.413333333,-0.255555556,1,0,0,0.8484,Pegmatite_09,6,09,2,2,0.848,0.078888889,-0.405555556,1,0,0,2.581,Peridotite_rect,7,2.581,0,2,0,2,0,1,,,,,,,,,,,,,
6568969ced46d80283d0d447,SCN,2024-06-26_12h35.19.485,LearnStrategy,2023.2.3,Win32,60.24096386,7,1,4,-0.24,-0.257777778,1,0,0,1.3827,Andesite_07,1,07,2,3,1.383,0.161111111,-0.242222222,1,0,0,1.0058,Diorite_rect,3,1.006,0,3,0,3,0,1,,,,,,,,,,,,,
6568969ced46d80283d0d447,SCN,2024-06-26_12h35.19.485,LearnStrategy,2023.2.3,Win32,60.24096386,7,1,5,-0.074444444,-0.262222222,1,0,0,0.9376,Diorite_02,3,02,2,4,0.938,0.165555556,-0.23,1,0,0,1.2178,Diorite_rect,3,1.218,1,4,0,4,0,1,,,,,,,,,,,,,
6568969ced46d80283d0d447,SCN,2024-06-26_12h35.19.485,LearnStrategy,2023.2.3,Win32,60.24096386,7,1,6,0.213333333,-0.257777778,1,0,0,1.5953,Obsidian_05,5,05,2,6,1.595,-0.375555556,-0.391111111,1,0,0,1.539,Obsidian_rect,5,1.539,1,5,0,5,0,1,,,,,,,,,,,,,
6568969ced46d80283d0d447,SCN,2024-06-26_12h35.19.485,LearnStrategy,2023.2.3,Win32,60.24096386,7,1,7,0.377777778,-0.255555556,1,0,0,1.3042,Peridotite_16,7,16,2,7,1.304,0.138888889,-0.397777778,1,0,0,3.604,Peridotite_rect,7,3.604,1,6,0,6,0,1,,,,,,,,,,,,,
6568969ced46d80283d0d447,SCN,2024-06-26_12h35.19.485,LearnStrategy,2023.2.3,Win32,60.24096386,7,1,8,0.542222222,-0.251111111,1,0,0,1.5217,Basalt_08,2,08,2,8,1.522,-0.122222222,-0.243333333,1,0,0,1.4387,Basalt_rect,2,1.439,1,7,0,7,0,1,,,,,,,,,,,,,
6568969ced46d80283d0d447,SCN,2024-06-26_12h35.19.485,LearnStrategy,2023.2.3,Win32,60.24096386,7,1,9,0.398888889,0.075555556,1,0,0,1.9967,Pumice_13,8,13,4,7,1.997,0.4,-0.407777778,1,0,0,2.0856,Pumice_rect,8,2.086,1,8,0,8,0,1,,,,,,,,,,,,,
6568969ced46d80283d0d447,SCN,2024-06-26_12h35.19.485,LearnStrategy,2023.2.3,Win32,60.24096386,7,1,10,0.087777778,0.095555556,1,0,0,0.953,Gabbro_12,4,12,4,5,0.953,0.12,-0.247777778,1,0,0,2.8085,Diorite_rect,3,2.808,0,9,0,9,0,1,,,,,,,,,,,,,
6568969ced46d80283d0d447,SCN,2024-06-26_12h35.19.485,LearnStrategy,2023.2.3,Win32,60.24096386,7,1,11,0.097777778,-0.263333333,1,0,0,2.9132,Diorite_14,3,14,2,5,2.913,0.116666667,-0.258888889,1,0,0,2.9571,Diorite_rect,3,2.957,1,10,0,10,0,1,,,,,,,,,,,,,
6568969ced46d80283d0d447,SCN,2024-06-26_12h35.19.485,LearnStrategy,2023.2.3,Win32,60.24096386,7,1,12,-0.082222222,0.397777778,1,0,0,1.5376,Gabbro_14,4,14,6,4,1.538,0.375555556,-0.247777778,1,0,0,1.9985,Gabbro_rect,4,1.998,1,11,0,11,0,1,,,,,,,,,,,,,
6568969ced46d80283d0d447,SCN,2024-06-26_12h35.19.485,LearnStrategy,2023.2.3,Win32,60.24096386,7,1,13,-0.242222222,0.258888889,1,0,0,1.0868,Basalt_04,2,04,5,3,1.087,-0.142222222,-0.248888889,1,0,0,1.0666,Basalt_rect,2,1.067,1,12,0,12,0,1,,,,,,,,,,,,,
6568969ced46d80283d0d447,SCN,2024-06-26_12h35.19.485,LearnStrategy,2023.2.3,Win32,60.24096386,7,1,14,-0.395555556,0.24,1,0,0,1.0207,Basalt_14,2,14,5,2,1.021,0.378888889,-0.257777778,1,0,0,2.6097,Gabbro_rect,4,2.61,0,13,0,13,0,1,,,,,,,,,,,,,
6568969ced46d80283d0d447,SCN,2024-06-26_12h35.19.485,LearnStrategy,2023.2.3,Win32,60.24096386,7,1,15,-0.383333333,0.24,1,0,0,1.6129,Basalt_14,2,14,5,2,1.613,-0.118888889,-0.254444444,1,0,0,3.2218,Basalt_rect,2,3.222,1,14,0,14,0,1,,,,,,,,,,,,,
6568969ced46d80283d0d447,SCN,2024-06-26_12h35.19.485,LearnStrategy,2023.2.3,Win32,60.24096386,7,1,16,-0.236666667,0.26,1,0,0,0.9808,Basalt_04,2,04,5,3,0.981,-0.111111111,-0.244444444,1,0,0,1.79,Basalt_rect,2,1.79,1,15,0,15,0,1,,,,,,,,,,,,,
6568969ced46d80283d0d447,SCN,2024-06-26_12h35.19.485,LearnStrategy,2023.2.3,Win32,60.24096386,7,2,1,,,,,,,,6,11,,,,,,,,,,,6,7.009,1,,,,,,-0.113333333,-0.392222222,1,0,0,7.0093,Pegmatite_rect,0,0,0,0,1,
6568969ced46d80283d0d447,SCN,2024-06-26_12h35.19.485,LearnStrategy,2023.2.3,Win32,60.24096386,7,2,2,,,,,,,,5,12,,,,,,,,,,,5,1.013,1,,,,,,-0.375555556,-0.402222222,1,0,0,1.0132,Obsidian_rect,1,0,1,0,1,
6568969ced46d80283d0d447,SCN,2024-06-26_12h35.19.485,LearnStrategy,2023.2.3,Win32,60.24096386,7,2,3,,,,,,,,3,10,,,,,,,,,,,3,1.274,1,,,,,,0.143333333,-0.233333333,1,0,0,1.2737,Diorite_rect,2,0,2,0,1,
6568969ced46d80283d0d447,SCN,2024-06-26_12h35.19.485,LearnStrategy,2023.2.3,Win32,60.24096386,7,2,4,,,,,,,,8,03,,,,,,,,,,,8,1.245,1,,,,,,0.388888889,-0.395555556,1,0,0,1.2446,Pumice_rect,3,0,3,0,1,
6568969ced46d80283d0d447,SCN,2024-06-26_12h35.19.485,LearnStrategy,2023.2.3,Win32,60.24096386,7,2,5,,,,,,,,7,06,,,,,,,,,,,7,1.742,1,,,,,,0.137777778,-0.4,1,0,0,1.742,Peridotite_rect,4,0,4,0,1,
6568969ced46d80283d0d447,SCN,2024-06-26_12h35.19.485,LearnStrategy,2023.2.3,Win32,60.24096386,7,2,6,,,,,,,,2,06,,,,,,,,,,,2,1.335,1,,,,,,-0.112222222,-0.233333333,1,0,0,1.3349,Basalt_rect,5,0,5,0,1,
6568969ced46d80283d0d447,SCN,2024-06-26_12h35.19.485,LearnStrategy,2023.2.3,Win32,60.24096386,7,2,7,,,,,,,,6,05,,,,,,,,,,,6,1.894,1,,,,,,-0.093333333,-0.4,1,0,0,1.8942,Pegmatite_rect,6,0,6,0,1,
6568969ced46d80283d0d447,SCN,2024-06-26_12h35.19.485,LearnStrategy,2023.2.3,Win32,60.24096386,7,2,8,,,,,,,,5,07,,,,,,,,,,,5,1.071,1,,,,,,-0.347777778,-0.405555556,1,0,0,1.0712,Obsidian_rect,7,0,7,0,1,
6568969ced46d80283d0d447,SCN,2024-06-26_12h35.19.485,LearnStrategy,2023.2.3,Win32,60.24096386,7,2,9,,,,,,,,4,09,,,,,,,,,,,4,2.34,1,,,,,,0.394444444,-0.252222222,1,0,0,2.34,Gabbro_rect,8,0,8,0,1,
6568969ced46d80283d0d447,SCN,2024-06-26_12h35.19.485,LearnStrategy,2023.2.3,Win32,60.24096386,7,2,10,,,,,,,,1,05,,,,,,,,,,,1,1.762,1,,,,,,-0.412222222,-0.254444444,1,0,0,1.7622,Andesite_rect,9,0,9,0,1,
6568969ced46d80283d0d447,SCN,2024-06-26_12h35.19.485,LearnStrategy,2023.2.3,Win32,60.24096386,7,2,11,,,,,,,,4,05,,,,,,,,,,,7,4.665,0,,,,,,0.106666667,-0.405555556,1,0,0,4.6649,Peridotite_rect,10,0,10,0,1,
6568969ced46d80283d0d447,SCN,2024-06-26_12h35.19.485,LearnStrategy,2023.2.3,Win32,60.24096386,7,2,12,,,,,,,,7,10,,,,,,,,,,,1,4.051,0,,,,,,-0.371111111,-0.26,1,0,0,4.0505,Andesite_rect,11,0,11,0,1,
6568969ced46d80283d0d447,SCN,2024-06-26_12h35.19.485,LearnStrategy,2023.2.3,Win32,60.24096386,7,2,13,,,,,,,,3,11,,,,,,,,,,,3,1.114,1,,,,,,0.117777778,-0.251111111,1,0,0,1.1142,Diorite_rect,12,0,12,0,1,
6568969ced46d80283d0d447,SCN,2024-06-26_12h35.19.485,LearnStrategy,2023.2.3,Win32,60.24096386,7,2,14,,,,,,,,8,14,,,,,,,,,,,8,1.356,1,,,,,,0.396666667,-0.412222222,1,0,0,1.3563,Pumice_rect,13,0,13,0,1,
6568969ced46d80283d0d447,SCN,2024-06-26_12h35.19.485,LearnStrategy,2023.2.3,Win32,60.24096386,7,2,15,,,,,,,,1,01,,,,,,,,,,,4,3.95,0,,,,,,0.381111111,-0.245555556,1,0,0,3.9502,Gabbro_rect,14,0,14,0,1,
6568969ced46d80283d0d447,SCN,2024-06-26_12h35.19.485,LearnStrategy,2023.2.3,Win32,60.24096386,7,2,16,,,,,,,,2,10,,,,,,,,,,,2,1.451,1,,,,,,-0.131111111,-0.243333333,1,0,0,1.4513,Basalt_rect,15,0,15,0,1,
6568969ced46d80283d0d447,SCN,2024-06-26_12h35.19.485,LearnStrategy,2023.2.3,Win32,60.24096386,8,1,1,-0.535555556,0.083333333,1,0,0,1.2293,Pegmatite_15,6,15,4,1,1.229,-0.096666667,-0.404444444,1,0,0,2.3015,Pegmatite_rect,6,2.302,1,0,0,0,0,1,,,,,,,,,,,,,
6568969ced46d80283d0d447,SCN,2024-06-26_12h35.19.485,LearnStrategy,2023.2.3,Win32,60.24096386,8,1,2,-0.388888889,0.082222222,1,0,0,1.0878,Pumice_08,8,08,4,2,1.088,0.438888889,-0.396666667,1,0,0,1.3088,Pumice_rect,8,1.309,1,1,0,1,0,1,,,,,,,,,,,,,
6568969ced46d80283d0d447,SCN,2024-06-26_12h35.19.485,LearnStrategy,2023.2.3,Win32,60.24096386,8,1,3,-0.246666667,0.082222222,1,0,0,0.9265,Gabbro_11,4,11,4,3,0.927,0.366666667,-0.236666667,1,0,0,4.4043,Gabbro_rect,4,4.404,1,2,0,2,0,1,,,,,,,,,,,,,
6568969ced46d80283d0d447,SCN,2024-06-26_12h35.19.485,LearnStrategy,2023.2.3,Win32,60.24096386,8,1,4,-0.098888889,0.098888889,1,0,0,0.9126,Pumice_05,8,05,4,4,0.913,0.405555556,-0.39,1,0,0,1.1215,Pumice_rect,8,1.121,1,3,0,3,0,1,,,,,,,,,,,,,
6568969ced46d80283d0d447,SCN,2024-06-26_12h35.19.485,LearnStrategy,2023.2.3,Win32,60.24096386,8,1,5,0.058888889,0.102222222,1,0,0,0.7357,Gabbro_12,4,12,4,5,0.736,0.381111111,-0.26,1,0,0,1.7008,Gabbro_rect,4,1.701,1,4,0,4,0,1,,,,,,,,,,,,,
6568969ced46d80283d0d447,SCN,2024-06-26_12h35.19.485,LearnStrategy,2023.2.3,Win32,60.24096386,8,1,6,0.222222222,0.098888889,1,0,0,0.7881,Pumice_15,8,15,4,6,0.788,0.357777778,-0.42,1,0,0,1.0458,Pumice_rect,8,1.046,1,5,0,5,0,1,,,,,,,,,,,,,
6568969ced46d80283d0d447,SCN,2024-06-26_12h35.19.485,LearnStrategy,2023.2.3,Win32,60.24096386,8,1,7,-0.082222222,0.243333333,1,0,0,1.9614,Diorite_09,3,09,5,4,1.961,0.12,-0.235555556,1,0,0,1.2089,Diorite_rect,3,1.209,1,6,0,6,0,1,,,,,,,,,,,,,
6568969ced46d80283d0d447,SCN,2024-06-26_12h35.19.485,LearnStrategy,2023.2.3,Win32,60.24096386,8,1,8,-0.085555556,-0.262222222,1,0,0,1.2638,Diorite_02,3,02,2,4,1.264,0.116666667,-0.247777778,1,0,0,1.4274,Diorite_rect,3,1.427,1,7,0,7,0,1,,,,,,,,,,,,,
6568969ced46d80283d0d447,SCN,2024-06-26_12h35.19.485,LearnStrategy,2023.2.3,Win32,60.24096386,8,1,9,-0.234444444,-0.09,1,0,0,0.8778,Peridotite_13,7,13,3,3,0.878,0.101111111,-0.418888889,1,0,0,1.3894,Peridotite_rect,7,1.389,1,8,0,8,0,1,,,,,,,,,,,,,
6568969ced46d80283d0d447,SCN,2024-06-26_12h35.19.485,LearnStrategy,2023.2.3,Win32,60.24096386,8,1,10,-0.524444444,-0.12,1,0,0,2.0201,Gabbro_01,4,01,3,1,2.02,-0.377777778,-0.266666667,1,0,0,1.7082,Andesite_rect,1,1.708,0,9,0,9,0,1,,,,,,,,,,,,,
6568969ced46d80283d0d447,SCN,2024-06-26_12h35.19.485,LearnStrategy,2023.2.3,Win32,60.24096386,8,1,11,-0.248888889,-0.266666667,1,0,0,1.2578,Andesite_07,1,07,2,3,1.258,-0.345555556,-0.233333333,1,0,0,1.0783,Andesite_rect,1,1.078,1,10,0,10,0,1,,,,,,,,,,,,,
6568969ced46d80283d0d447,SCN,2024-06-26_12h35.19.485,LearnStrategy,2023.2.3,Win32,60.24096386,8,1,12,-0.074444444,-0.25,1,0,0,1.1775,Diorite_02,3,02,2,4,1.178,0.115555556,-0.253333333,1,0,0,1.2939,Diorite_rect,3,1.294,1,11,0,11,0,1,,,,,,,,,,,,,
6568969ced46d80283d0d447,SCN,2024-06-26_12h35.19.485,LearnStrategy,2023.2.3,Win32,60.24096386,8,1,13,0.087777778,-0.277777778,1,0,0,1.6147,Diorite_14,3,14,2,5,1.615,-0.328888889,-0.26,1,0,0,1.6266,Andesite_rect,1,1.627,0,12,0,12,0,1,,,,,,,,,,,,,
6568969ced46d80283d0d447,SCN,2024-06-26_12h35.19.485,LearnStrategy,2023.2.3,Win32,60.24096386,8,1,14,0.221111111,-0.266666667,1,0,0,1.4151,Obsidian_05,5,05,2,6,1.415,-0.367777778,-0.388888889,1,0,0,1.4466,Obsidian_rect,5,1.447,1,13,0,13,0,1,,,,,,,,,,,,,
6568969ced46d80283d0d447,SCN,2024-06-26_12h35.19.485,LearnStrategy,2023.2.3,Win32,60.24096386,8,1,15,0.38,-0.28,1,0,0,0.9782,Peridotite_16,7,16,2,7,0.978,0.372222222,-0.257777778,1,0,0,4.244,Gabbro_rect,4,4.244,0,14,0,14,0,1,,,,,,,,,,,,,
6568969ced46d80283d0d447,SCN,2024-06-26_12h35.19.485,LearnStrategy,2023.2.3,Win32,60.24096386,8,1,16,0.388888889,-0.412222222,1,0,0,1.8479,Peridotite_12,7,12,1,7,1.848,0.105555556,-0.397777778,1,0,0,2.6178,Peridotite_rect,7,2.618,1,15,0,15,0,1,,,,,,,,,,,,,
6568969ced46d80283d0d447,SCN,2024-06-26_12h35.19.485,LearnStrategy,2023.2.3,Win32,60.24096386,8,2,1,,,,,,,,5,02,,,,,,,,,,,5,1.259,1,,,,,,-0.418888889,-0.406666667,1,0,0,1.2591,Obsidian_rect,0,0,0,0,1,
6568969ced46d80283d0d447,SCN,2024-06-26_12h35.19.485,LearnStrategy,2023.2.3,Win32,60.24096386,8,2,2,,,,,,,,2,01,,,,,,,,,,,2,1.44,1,,,,,,-0.101111111,-0.246666667,1,0,0,1.4402,Basalt_rect,1,0,1,0,1,
6568969ced46d80283d0d447,SCN,2024-06-26_12h35.19.485,LearnStrategy,2023.2.3,Win32,60.24096386,8,2,3,,,,,,,,1,03,,,,,,,,,,,4,6.883,0,,,,,,0.398888889,-0.258888889,1,0,0,6.8833,Gabbro_rect,2,0,2,0,1,
6568969ced46d80283d0d447,SCN,2024-06-26_12h35.19.485,LearnStrategy,2023.2.3,Win32,60.24096386,8,2,4,,,,,,,,7,05,,,,,,,,,,,7,1.463,1,,,,,,0.116666667,-0.393333333,1,0,0,1.463,Peridotite_rect,3,0,3,0,1,
6568969ced46d80283d0d447,SCN,2024-06-26_12h35.19.485,LearnStrategy,2023.2.3,Win32,60.24096386,8,2,5,,,,,,,,4,03,,,,,,,,,,,3,1.317,0,,,,,,0.151111111,-0.242222222,1,0,0,1.3167,Diorite_rect,4,0,4,0,1,
6568969ced46d80283d0d447,SCN,2024-06-26_12h35.19.485,LearnStrategy,2023.2.3,Win32,60.24096386,8,2,6,,,,,,,,3,06,,,,,,,,,,,7,7.476,0,,,,,,0.105555556,-0.398888889,1,0,0,7.476,Peridotite_rect,5,0,5,0,1,
6568969ced46d80283d0d447,SCN,2024-06-26_12h35.19.485,LearnStrategy,2023.2.3,Win32,60.24096386,8,2,7,,,,,,,,8,09,,,,,,,,,,,8,1.152,1,,,,,,0.35,-0.39,1,0,0,1.1518,Pumice_rect,6,0,6,0,1,
6568969ced46d80283d0d447,SCN,2024-06-26_12h35.19.485,LearnStrategy,2023.2.3,Win32,60.24096386,8,2,8,,,,,,,,4,13,,,,,,,,,,,4,2.354,1,,,,,,0.397777778,-0.245555556,1,0,0,2.3542,Gabbro_rect,7,0,7,0,1,
6568969ced46d80283d0d447,SCN,2024-06-26_12h35.19.485,LearnStrategy,2023.2.3,Win32,60.24096386,8,2,9,,,,,,,,6,16,,,,,,,,,,,7,1.726,0,,,,,,0.072222222,-0.393333333,1,0,0,1.726,Peridotite_rect,8,0,8,0,1,
6568969ced46d80283d0d447,SCN,2024-06-26_12h35.19.485,LearnStrategy,2023.2.3,Win32,60.24096386,8,2,10,,,,,,,,1,04,,,,,,,,,,,1,7.558,1,,,,,,-0.367777778,-0.264444444,1,0,0,7.558,Andesite_rect,9,0,9,0,1,
6568969ced46d80283d0d447,SCN,2024-06-26_12h35.19.485,LearnStrategy,2023.2.3,Win32,60.24096386,8,2,11,,,,,,,,2,02,,,,,,,,,,,2,1.188,1,,,,,,-0.126666667,-0.247777778,1,0,0,1.1875,Basalt_rect,10,0,10,0,1,
6568969ced46d80283d0d447,SCN,2024-06-26_12h35.19.485,LearnStrategy,2023.2.3,Win32,60.24096386,8,2,12,,,,,,,,7,04,,,,,,,,,,,7,1.476,1,,,,,,0.13,-0.387777778,1,0,0,1.4762,Peridotite_rect,11,0,11,0,1,
6568969ced46d80283d0d447,SCN,2024-06-26_12h35.19.485,LearnStrategy,2023.2.3,Win32,60.24096386,8,2,13,,,,,,,,5,06,,,,,,,,,,,5,1.165,1,,,,,,-0.38,-0.412222222,1,0,0,1.1647,Obsidian_rect,12,0,12,0,1,
6568969ced46d80283d0d447,SCN,2024-06-26_12h35.19.485,LearnStrategy,2023.2.3,Win32,60.24096386,8,2,14,,,,,,,,8,06,,,,,,,,,,,8,1.221,1,,,,,,0.362222222,-0.383333333,1,0,0,1.2208,Pumice_rect,13,0,13,0,1,
6568969ced46d80283d0d447,SCN,2024-06-26_12h35.19.485,LearnStrategy,2023.2.3,Win32,60.24096386,8,2,15,,,,,,,,3,07,,,,,,,,,,,3,8.688,1,,,,,,0.153333333,-0.254444444,1,0,0,8.6883,Diorite_rect,14,0,14,0,1,
6568969ced46d80283d0d447,SCN,2024-06-26_12h35.19.485,LearnStrategy,2023.2.3,Win32,60.24096386,8,2,16,,,,,,,,6,12,,,,,,,,,,,6,5.66,1,,,,,,-0.086666667,-0.402222222,1,0,0,5.66,Pegmatite_rect,15,0,15,0,1,
6568969ced46d80283d0d447,SCN,2024-06-26_12h35.19.485,LearnStrategy,2023.2.3,Win32,60.24096386,9,1,1,-0.536666667,-0.273333333,1,0,0,1.3464,Pegmatite_03,6,03,2,1,1.346,-0.352222222,-0.247777778,1,0,0,6.1596,Andesite_rect,1,6.16,0,0,0,0,0,1,,,,,,,,,,,,,
6568969ced46d80283d0d447,SCN,2024-06-26_12h35.19.485,LearnStrategy,2023.2.3,Win32,60.24096386,9,1,2,-0.53,0.094444444,1,0,0,1.2463,Pegmatite_15,6,15,4,1,1.246,-0.078888889,-0.394444444,1,0,0,2.2624,Pegmatite_rect,6,2.262,1,1,0,1,0,1,,,,,,,,,,,,,
6568969ced46d80283d0d447,SCN,2024-06-26_12h35.19.485,LearnStrategy,2023.2.3,Win32,60.24096386,9,1,3,-0.377777778,-0.088888889,1,0,0,1.1027,Obsidian_16,5,16,3,2,1.103,-0.13,-0.255555556,1,0,0,2.9414,Basalt_rect,2,2.941,0,2,0,2,0,1,,,,,,,,,,,,,
6568969ced46d80283d0d447,SCN,2024-06-26_12h35.19.485,LearnStrategy,2023.2.3,Win32,60.24096386,9,1,4,-0.563333333,-0.11,1,0,0,2.0025,Gabbro_01,4,01,3,1,2.003,0.076666667,-0.406666667,1,0,0,5.203,Peridotite_rect,7,5.203,0,3,0,3,0,1,,,,,,,,,,,,,
6568969ced46d80283d0d447,SCN,2024-06-26_12h35.19.485,LearnStrategy,2023.2.3,Win32,60.24096386,9,1,5,-0.106666667,0.098888889,1,0,0,0.9099,Pumice_05,8,05,4,4,0.91,0.397777778,-0.401111111,1,0,0,0.8576,Pumice_rect,8,0.858,1,4,0,4,0,1,,,,,,,,,,,,,
6568969ced46d80283d0d447,SCN,2024-06-26_12h35.19.485,LearnStrategy,2023.2.3,Win32,60.24096386,9,1,6,0.084444444,0.102222222,1,0,0,0.7466,Gabbro_12,4,12,4,5,0.747,0.36,-0.232222222,1,0,0,1.6434,Gabbro_rect,4,1.643,1,5,0,5,0,1,,,,,,,,,,,,,
6568969ced46d80283d0d447,SCN,2024-06-26_12h35.19.485,LearnStrategy,2023.2.3,Win32,60.24096386,9,1,7,-0.071111111,0.252222222,1,0,0,0.8961,Diorite_09,3,09,5,4,0.896,0.171111111,-0.255555556,1,0,0,1.1784,Diorite_rect,3,1.178,1,6,0,6,0,1,,,,,,,,,,,,,
6568969ced46d80283d0d447,SCN,2024-06-26_12h35.19.485,LearnStrategy,2023.2.3,Win32,60.24096386,9,1,8,-0.246666667,0.257777778,1,0,0,1.0482,Basalt_04,2,04,5,3,1.048,-0.143333333,-0.24,1,0,0,1.357,Basalt_rect,2,1.357,1,7,0,7,0,1,,,,,,,,,,,,,
6568969ced46d80283d0d447,SCN,2024-06-26_12h35.19.485,LearnStrategy,2023.2.3,Win32,60.24096386,9,1,9,-0.377777778,0.251111111,1,0,0,1.0027,Basalt_14,2,14,5,2,1.003,-0.082222222,-0.232222222,1,0,0,5.5311,Basalt_rect,2,5.531,1,8,0,8,0,1,,,,,,,,,,,,,
6568969ced46d80283d0d447,SCN,2024-06-26_12h35.19.485,LearnStrategy,2023.2.3,Win32,60.24096386,9,1,10,-0.062222222,0.408888889,1,0,0,0.8773,Gabbro_14,4,14,6,4,0.877,0.414444444,-0.257777778,1,0,0,1.2718,Gabbro_rect,4,1.272,1,9,0,9,0,1,,,,,,,,,,,,,
6568969ced46d80283d0d447,SCN,2024-06-26_12h35.19.485,LearnStrategy,2023.2.3,Win32,60.24096386,9,1,11,0.243333333,0.404444444,1,0,0,1.005,Basalt_11,2,11,6,6,1.005,0.04,-0.411111111,1,0,0,2.542,Peridotite_rect,7,2.542,0,10,0,10,0,1,,,,,,,,,,,,,
6568969ced46d80283d0d447,SCN,2024-06-26_12h35.19.485,LearnStrategy,2023.2.3,Win32,60.24096386,9,1,12,0.384444444,0.411111111,1,0,0,1.1356,Peridotite_07,7,07,6,7,1.136,0.088888889,-0.411111111,1,0,0,1.8682,Peridotite_rect,7,1.868,1,11,0,11,0,1,,,,,,,,,,,,,
6568969ced46d80283d0d447,SCN,2024-06-26_12h35.19.485,LearnStrategy,2023.2.3,Win32,60.24096386,9,1,13,0.531111111,0.415555556,1,0,0,1.0265,Peridotite_14,7,14,6,8,1.026,0.121111111,-0.394444444,1,0,0,3.6164,Peridotite_rect,7,3.616,1,12,0,12,0,1,,,,,,,,,,,,,
6568969ced46d80283d0d447,SCN,2024-06-26_12h35.19.485,LearnStrategy,2023.2.3,Win32,60.24096386,9,1,14,-0.533333333,0.227777778,1,0,0,1.5831,Andesite_10,1,10,5,1,1.583,-0.11,-0.236666667,1,0,0,3.3989,Basalt_rect,2,3.399,0,13,0,13,0,1,,,,,,,,,,,,,
6568969ced46d80283d0d447,SCN,2024-06-26_12h35.19.485,LearnStrategy,2023.2.3,Win32,60.24096386,9,1,15,-0.564444444,-0.254444444,1,0,0,2.9773,Pegmatite_03,6,03,2,1,2.977,-0.147777778,-0.396666667,1,0,0,1.973,Pegmatite_rect,6,1.973,1,14,0,14,0,1,,,,,,,,,,,,,
6568969ced46d80283d0d447,SCN,2024-06-26_12h35.19.485,LearnStrategy,2023.2.3,Win32,60.24096386,9,1,16,0.09,-0.098888889,1,0,0,0.9293,Andesite_02,1,02,3,5,0.929,-0.353333333,-0.237777778,1,0,0,2.9067,Andesite_rect,1,2.907,1,15,0,15,0,1,,,,,,,,,,,,,
6568969ced46d80283d0d447,SCN,2024-06-26_12h35.19.485,LearnStrategy,2023.2.3,Win32,60.24096386,9,2,1,,,,,,,,6,10,,,,,,,,,,,6,6.358,1,,,,,,-0.111111111,-0.418888889,1,0,0,6.3584,Pegmatite_rect,0,0,0,0,1,
6568969ced46d80283d0d447,SCN,2024-06-26_12h35.19.485,LearnStrategy,2023.2.3,Win32,60.24096386,9,2,2,,,,,,,,2,12,,,,,,,,,,,8,13.607,0,,,,,,0.377777778,-0.402222222,1,0,0,13.6073,Pumice_rect,1,0,1,0,1,
6568969ced46d80283d0d447,SCN,2024-06-26_12h35.19.485,LearnStrategy,2023.2.3,Win32,60.24096386,9,2,3,,,,,,,,7,02,,,,,,,,,,,7,1.319,1,,,,,,0.171111111,-0.392222222,1,0,0,1.3189,Peridotite_rect,2,0,2,0,1,
6568969ced46d80283d0d447,SCN,2024-06-26_12h35.19.485,LearnStrategy,2023.2.3,Win32,60.24096386,9,2,4,,,,,,,,3,13,,,,,,,,,,,3,1.853,1,,,,,,0.154444444,-0.256666667,1,0,0,1.8532,Diorite_rect,3,0,3,0,1,
6568969ced46d80283d0d447,SCN,2024-06-26_12h35.19.485,LearnStrategy,2023.2.3,Win32,60.24096386,9,2,5,,,,,,,,7,15,,,,,,,,,,,1,4.321,0,,,,,,-0.318888889,-0.26,1,0,0,4.3205,Andesite_rect,4,0,4,0,1,
6568969ced46d80283d0d447,SCN,2024-06-26_12h35.19.485,LearnStrategy,2023.2.3,Win32,60.24096386,9,2,6,,,,,,,,8,04,,,,,,,,,,,8,1.28,1,,,,,,0.414444444,-0.402222222,1,0,0,1.2804,Pumice_rect,5,0,5,0,1,
6568969ced46d80283d0d447,SCN,2024-06-26_12h35.19.485,LearnStrategy,2023.2.3,Win32,60.24096386,9,2,7,,,,,,,,4,10,,,,,,,,,,,4,2.492,1,,,,,,0.395555556,-0.245555556,1,0,0,2.4915,Gabbro_rect,6,0,6,0,1,
6568969ced46d80283d0d447,SCN,2024-06-26_12h35.19.485,LearnStrategy,2023.2.3,Win32,60.24096386,9,2,8,,,,,,,,1,06,,,,,,,,,,,1,2.128,1,,,,,,-0.356666667,-0.255555556,1,0,0,2.1282,Andesite_rect,7,0,7,0,1,
6568969ced46d80283d0d447,SCN,2024-06-26_12h35.19.485,LearnStrategy,2023.2.3,Win32,60.24096386,9,2,9,,,,,,,,4,15,,,,,,,,,,,4,2.114,1,,,,,,0.408888889,-0.246666667,1,0,0,2.1143,Gabbro_rect,8,0,8,0,1,
6568969ced46d80283d0d447,SCN,2024-06-26_12h35.19.485,LearnStrategy,2023.2.3,Win32,60.24096386,9,2,10,,,,,,,,6,13,,,,,,,,,,,2,22.652,0,,,,,,-0.127777778,-0.251111111,1,0,0,22.6519,Basalt_rect,9,0,9,0,1,
6568969ced46d80283d0d447,SCN,2024-06-26_12h35.19.485,LearnStrategy,2023.2.3,Win32,60.24096386,9,2,11,,,,,,,,1,16,,,,,,,,,,,1,2.486,1,,,,,,-0.406666667,-0.252222222,1,0,0,2.4865,Andesite_rect,10,0,10,0,1,
6568969ced46d80283d0d447,SCN,2024-06-26_12h35.19.485,LearnStrategy,2023.2.3,Win32,60.24096386,9,2,12,,,,,,,,2,16,,,,,,,,,,,2,5.819,1,,,,,,-0.118888889,-0.252222222,1,0,0,5.8193,Basalt_rect,11,0,11,0,1,
6568969ced46d80283d0d447,SCN,2024-06-26_12h35.19.485,LearnStrategy,2023.2.3,Win32,60.24096386,9,2,13,,,,,,,,5,10,,,,,,,,,,,5,1.178,1,,,,,,-0.363333333,-0.392222222,1,0,0,1.1785,Obsidian_rect,12,0,12,0,1,
6568969ced46d80283d0d447,SCN,2024-06-26_12h35.19.485,LearnStrategy,2023.2.3,Win32,60.24096386,9,2,14,,,,,,,,8,10,,,,,,,,,,,8,1.142,1,,,,,,0.414444444,-0.392222222,1,0,0,1.1417,Pumice_rect,13,0,13,0,1,
6568969ced46d80283d0d447,SCN,2024-06-26_12h35.19.485,LearnStrategy,2023.2.3,Win32,60.24096386,9,2,15,,,,,,,,5,09,,,,,,,,,,,5,1.105,1,,,,,,-0.408888889,-0.394444444,1,0,0,1.1053,Obsidian_rect,14,0,14,0,1,
6568969ced46d80283d0d447,SCN,2024-06-26_12h35.19.485,LearnStrategy,2023.2.3,Win32,60.24096386,9,2,16,,,,,,,,3,12,,,,,,,,,,,3,1.231,1,,,,,,0.134444444,-0.242222222,1,0,0,1.231,Diorite_rect,15,0,15,0,1,
6568969ced46d80283d0d447,SCN,2024-06-26_12h35.19.485,LearnStrategy,2023.2.3,Win32,60.24096386,,,,,,,,,,,,,,,,,,,,,,,,,,,,,,,,,,,,,,,,,,,1
6568969ced46d80283d0d447,SCN,2024-06-26_12h35.19.485,LearnStrategy,2023.2.3,Win32,60.24096386,,,,,,,,,,,,,,,,,,,,,,,,,,,,,,,,,,,,,,,,,,,
6568969ced46d80283d0d447,SCN,2024-06-26_12h35.19.485,LearnStrategy,2023.2.3,Win32,60.24096386,,,,,,,,,,,4,16,1,1,,,,,,,,,,,,,,,,,,,,,,,,,,,,,
6568969ced46d80283d0d447,SCN,2024-06-26_12h35.19.485,LearnStrategy,2023.2.3,Win32,60.24096386,,,,,,,,,,,2,05,1,2,,,,,,,,,,,,,,,,,,,,,,,,,,,,,
6568969ced46d80283d0d447,SCN,2024-06-26_12h35.19.485,LearnStrategy,2023.2.3,Win32,60.24096386,,,,,,,,,,,5,04,1,3,,,,,,,,,,,,,,,,,,,,,,,,,,,,,
6568969ced46d80283d0d447,SCN,2024-06-26_12h35.19.485,LearnStrategy,2023.2.3,Win32,60.24096386,,,,,,,,,,,4,08,1,4,,,,,,,,,,,,,,,,,,,,,,,,,,,,,
6568969ced46d80283d0d447,SCN,2024-06-26_12h35.19.485,LearnStrategy,2023.2.3,Win32,60.24096386,,,,,,,,,,,8,16,1,5,,,,,,,,,,,,,,,,,,,,,,,,,,,,,
6568969ced46d80283d0d447,SCN,2024-06-26_12h35.19.485,LearnStrategy,2023.2.3,Win32,60.24096386,,,,,,,,,,,1,09,1,6,,,,,,,,,,,,,,,,,,,,,,,,,,,,,
6568969ced46d80283d0d447,SCN,2024-06-26_12h35.19.485,LearnStrategy,2023.2.3,Win32,60.24096386,,,,,,,,,,,7,12,1,7,,,,,,,,,,,,,,,,,,,,,,,,,,,,,
6568969ced46d80283d0d447,SCN,2024-06-26_12h35.19.485,LearnStrategy,2023.2.3,Win32,60.24096386,,,,,,,,,,,8,02,1,8,,,,,,,,,,,,,,,,,,,,,,,,,,,,,
6568969ced46d80283d0d447,SCN,2024-06-26_12h35.19.485,LearnStrategy,2023.2.3,Win32,60.24096386,,,,,,,,,,,6,03,2,1,,,,,,,,,,,,,,,,,,,,,,,,,,,,,
6568969ced46d80283d0d447,SCN,2024-06-26_12h35.19.485,LearnStrategy,2023.2.3,Win32,60.24096386,,,,,,,,,,,6,09,2,2,,,,,,,,,,,,,,,,,,,,,,,,,,,,,
6568969ced46d80283d0d447,SCN,2024-06-26_12h35.19.485,LearnStrategy,2023.2.3,Win32,60.24096386,,,,,,,,,,,1,07,2,3,,,,,,,,,,,,,,,,,,,,,,,,,,,,,
6568969ced46d80283d0d447,SCN,2024-06-26_12h35.19.485,LearnStrategy,2023.2.3,Win32,60.24096386,,,,,,,,,,,3,02,2,4,,,,,,,,,,,,,,,,,,,,,,,,,,,,,
6568969ced46d80283d0d447,SCN,2024-06-26_12h35.19.485,LearnStrategy,2023.2.3,Win32,60.24096386,,,,,,,,,,,3,14,2,5,,,,,,,,,,,,,,,,,,,,,,,,,,,,,
6568969ced46d80283d0d447,SCN,2024-06-26_12h35.19.485,LearnStrategy,2023.2.3,Win32,60.24096386,,,,,,,,,,,5,05,2,6,,,,,,,,,,,,,,,,,,,,,,,,,,,,,
6568969ced46d80283d0d447,SCN,2024-06-26_12h35.19.485,LearnStrategy,2023.2.3,Win32,60.24096386,,,,,,,,,,,7,16,2,7,,,,,,,,,,,,,,,,,,,,,,,,,,,,,
6568969ced46d80283d0d447,SCN,2024-06-26_12h35.19.485,LearnStrategy,2023.2.3,Win32,60.24096386,,,,,,,,,,,2,08,2,8,,,,,,,,,,,,,,,,,,,,,,,,,,,,,
6568969ced46d80283d0d447,SCN,2024-06-26_12h35.19.485,LearnStrategy,2023.2.3,Win32,60.24096386,,,,,,,,,,,4,01,3,1,,,,,,,,,,,,,,,,,,,,,,,,,,,,,
6568969ced46d80283d0d447,SCN,2024-06-26_12h35.19.485,LearnStrategy,2023.2.3,Win32,60.24096386,,,,,,,,,,,5,16,3,2,,,,,,,,,,,,,,,,,,,,,,,,,,,,,
6568969ced46d80283d0d447,SCN,2024-06-26_12h35.19.485,LearnStrategy,2023.2.3,Win32,60.24096386,,,,,,,,,,,7,13,3,3,,,,,,,,,,,,,,,,,,,,,,,,,,,,,
6568969ced46d80283d0d447,SCN,2024-06-26_12h35.19.485,LearnStrategy,2023.2.3,Win32,60.24096386,,,,,,,,,,,6,08,3,4,,,,,,,,,,,,,,,,,,,,,,,,,,,,,
6568969ced46d80283d0d447,SCN,2024-06-26_12h35.19.485,LearnStrategy,2023.2.3,Win32,60.24096386,,,,,,,,,,,1,02,3,5,,,,,,,,,,,,,,,,,,,,,,,,,,,,,
6568969ced46d80283d0d447,SCN,2024-06-26_12h35.19.485,LearnStrategy,2023.2.3,Win32,60.24096386,,,,,,,,,,,5,14,3,6,,,,,,,,,,,,,,,,,,,,,,,,,,,,,
6568969ced46d80283d0d447,SCN,2024-06-26_12h35.19.485,LearnStrategy,2023.2.3,Win32,60.24096386,,,,,,,,,,,2,09,3,7,,,,,,,,,,,,,,,,,,,,,,,,,,,,,
6568969ced46d80283d0d447,SCN,2024-06-26_12h35.19.485,LearnStrategy,2023.2.3,Win32,60.24096386,,,,,,,,,,,3,08,3,8,,,,,,,,,,,,,,,,,,,,,,,,,,,,,
6568969ced46d80283d0d447,SCN,2024-06-26_12h35.19.485,LearnStrategy,2023.2.3,Win32,60.24096386,,,,,,,,,,,6,15,4,1,,,,,,,,,,,,,,,,,,,,,,,,,,,,,
6568969ced46d80283d0d447,SCN,2024-06-26_12h35.19.485,LearnStrategy,2023.2.3,Win32,60.24096386,,,,,,,,,,,8,08,4,2,,,,,,,,,,,,,,,,,,,,,,,,,,,,,
6568969ced46d80283d0d447,SCN,2024-06-26_12h35.19.485,LearnStrategy,2023.2.3,Win32,60.24096386,,,,,,,,,,,4,11,4,3,,,,,,,,,,,,,,,,,,,,,,,,,,,,,
6568969ced46d80283d0d447,SCN,2024-06-26_12h35.19.485,LearnStrategy,2023.2.3,Win32,60.24096386,,,,,,,,,,,8,05,4,4,,,,,,,,,,,,,,,,,,,,,,,,,,,,,
6568969ced46d80283d0d447,SCN,2024-06-26_12h35.19.485,LearnStrategy,2023.2.3,Win32,60.24096386,,,,,,,,,,,4,12,4,5,,,,,,,,,,,,,,,,,,,,,,,,,,,,,
6568969ced46d80283d0d447,SCN,2024-06-26_12h35.19.485,LearnStrategy,2023.2.3,Win32,60.24096386,,,,,,,,,,,8,15,4,6,,,,,,,,,,,,,,,,,,,,,,,,,,,,,
6568969ced46d80283d0d447,SCN,2024-06-26_12h35.19.485,LearnStrategy,2023.2.3,Win32,60.24096386,,,,,,,,,,,8,13,4,7,,,,,,,,,,,,,,,,,,,,,,,,,,,,,
6568969ced46d80283d0d447,SCN,2024-06-26_12h35.19.485,LearnStrategy,2023.2.3,Win32,60.24096386,,,,,,,,,,,5,11,4,8,,,,,,,,,,,,,,,,,,,,,,,,,,,,,
6568969ced46d80283d0d447,SCN,2024-06-26_12h35.19.485,LearnStrategy,2023.2.3,Win32,60.24096386,,,,,,,,,,,1,10,5,1,,,,,,,,,,,,,,,,,,,,,,,,,,,,,
6568969ced46d80283d0d447,SCN,2024-06-26_12h35.19.485,LearnStrategy,2023.2.3,Win32,60.24096386,,,,,,,,,,,2,14,5,2,,,,,,,,,,,,,,,,,,,,,,,,,,,,,
6568969ced46d80283d0d447,SCN,2024-06-26_12h35.19.485,LearnStrategy,2023.2.3,Win32,60.24096386,,,,,,,,,,,2,04,5,3,,,,,,,,,,,,,,,,,,,,,,,,,,,,,
6568969ced46d80283d0d447,SCN,2024-06-26_12h35.19.485,LearnStrategy,2023.2.3,Win32,60.24096386,,,,,,,,,,,3,09,5,4,,,,,,,,,,,,,,,,,,,,,,,,,,,,,
6568969ced46d80283d0d447,SCN,2024-06-26_12h35.19.485,LearnStrategy,2023.2.3,Win32,60.24096386,,,,,,,,,,,6,07,5,5,,,,,,,,,,,,,,,,,,,,,,,,,,,,,
6568969ced46d80283d0d447,SCN,2024-06-26_12h35.19.485,LearnStrategy,2023.2.3,Win32,60.24096386,,,,,,,,,,,1,14,5,6,,,,,,,,,,,,,,,,,,,,,,,,,,,,,
6568969ced46d80283d0d447,SCN,2024-06-26_12h35.19.485,LearnStrategy,2023.2.3,Win32,60.24096386,,,,,,,,,,,3,15,5,7,,,,,,,,,,,,,,,,,,,,,,,,,,,,,
6568969ced46d80283d0d447,SCN,2024-06-26_12h35.19.485,LearnStrategy,2023.2.3,Win32,60.24096386,,,,,,,,,,,5,08,5,8,,,,,,,,,,,,,,,,,,,,,,,,,,,,,
6568969ced46d80283d0d447,SCN,2024-06-26_12h35.19.485,LearnStrategy,2023.2.3,Win32,60.24096386,,,,,,,,,,,6,06,6,1,,,,,,,,,,,,,,,,,,,,,,,,,,,,,
6568969ced46d80283d0d447,SCN,2024-06-26_12h35.19.485,LearnStrategy,2023.2.3,Win32,60.24096386,,,,,,,,,,,3,16,6,2,,,,,,,,,,,,,,,,,,,,,,,,,,,,,
6568969ced46d80283d0d447,SCN,2024-06-26_12h35.19.485,LearnStrategy,2023.2.3,Win32,60.24096386,,,,,,,,,,,1,11,6,3,,,,,,,,,,,,,,,,,,,,,,,,,,,,,
6568969ced46d80283d0d447,SCN,2024-06-26_12h35.19.485,LearnStrategy,2023.2.3,Win32,60.24096386,,,,,,,,,,,4,14,6,4,,,,,,,,,,,,,,,,,,,,,,,,,,,,,
6568969ced46d80283d0d447,SCN,2024-06-26_12h35.19.485,LearnStrategy,2023.2.3,Win32,60.24096386,,,,,,,,,,,7,08,6,5,,,,,,,,,,,,,,,,,,,,,,,,,,,,,
6568969ced46d80283d0d447,SCN,2024-06-26_12h35.19.485,LearnStrategy,2023.2.3,Win32,60.24096386,,,,,,,,,,,2,11,6,6,,,,,,,,,,,,,,,,,,,,,,,,,,,,,
6568969ced46d80283d0d447,SCN,2024-06-26_12h35.19.485,LearnStrategy,2023.2.3,Win32,60.24096386,,,,,,,,,,,7,07,6,7,,,,,,,,,,,,,,,,,,,,,,,,,,,,,
6568969ced46d80283d0d447,SCN,2024-06-26_12h35.19.485,LearnStrategy,2023.2.3,Win32,60.24096386,,,,,,,,,,,7,14,6,8,,,,,,,,,,,,,,,,,,,,,,,,,,,,,