participant,condition,date,expName,psychopyVersion,OS,frameRate,block,phase,trial,learn_mouse_2.x,learn_mouse_2.y,learn_mouse_2.leftButton,learn_mouse_2.midButton,learn_mouse_2.rightButton,learn_mouse_2.time,learn_mouse_2.clicked_name,cat,token,row,col,t_select,cat_mouse_l.x,cat_mouse_l.y,cat_mouse_l.leftButton,cat_mouse_l.midButton,cat_mouse_l.rightButton,cat_mouse_l.time,cat_mouse_l.clicked_name,resp,t_resp,corr,train_trials.thisRepN,train_trials.thisTrialN,train_trials.thisN,train_trials.thisIndex,train_trials.ran,cat_mouse_t.x,cat_mouse_t.y,cat_mouse_t.leftButton,cat_mouse_t.midButton,cat_mouse_t.rightButton,cat_mouse_t.time,cat_mouse_t.clicked_name,test_trials.thisRepN,test_trials.thisTrialN,test_trials.thisN,test_trials.thisIndex,test_trials.ran,Bonus
65772daa307b28b9a9ec187f,TCR,2024-06-24_11h47.51.707,LearnStrategy,2023.2.3,Win32,142.8571429,,,,,,,,,,,,,,,,,,,,,,,,,,,,,,,,,,,,,,,,,,,
65772daa307b28b9a9ec187f,TCR,2024-06-24_11h47.51.707,LearnStrategy,2023.2.3,Win32,142.8571429,1,1,1,0.147222222,-0.009722222,1,0,0,1.6241,rock_grid_rect_2,2,11,-1,-1,1.624,-0.098611111,-0.252083333,1,0,0,27.0884,Basalt_rect,2,27.088,1,0,0,0,0,1,,,,,,,,,,,,,
65772daa307b28b9a9ec187f,TCR,2024-06-24_11h47.51.707,LearnStrategy,2023.2.3,Win32,142.8571429,1,1,2,0.127083333,0.002083333,1,0,0,2.6715,rock_grid_rect_2,6,08,-1,-1,2.671,0.413194444,-0.254861111,1,0,0,39.4906,Gabbro_rect,4,39.491,0,1,0,1,0,1,,,,,,,,,,,,,
65772daa307b28b9a9ec187f,TCR,2024-06-24_11h47.51.707,LearnStrategy,2023.2.3,Win32,142.8571429,1,1,3,-0.020138889,0,1,0,0,1.0792,rock_grid_rect_2,3,14,-1,-1,1.079,0.158333333,-0.240277778,1,0,0,8.1576,Diorite_rect,3,8.158,1,2,0,2,0,1,,,,,,,,,,,,,
65772daa307b28b9a9ec187f,TCR,2024-06-24_11h47.51.707,LearnStrategy,2023.2.3,Win32,142.8571429,1,1,4,-0.011111111,0.003472222,1,0,0,0.8469,rock_grid_rect_2,5,07,-1,-1,0.847,-0.417361111,-0.408333333,1,0,0,23.6869,Obsidian_rect,5,23.687,1,3,0,3,0,1,,,,,,,,,,,,,
65772daa307b28b9a9ec187f,TCR,2024-06-24_11h47.51.707,LearnStrategy,2023.2.3,Win32,142.8571429,1,1,5,0.180555556,0,1,0,0,0.5688,rock_grid_rect_2,4,16,-1,-1,0.569,0.104861111,-0.395138889,1,0,0,16.254,Peridotite_rect,7,16.254,0,4,0,4,0,1,,,,,,,,,,,,,
65772daa307b28b9a9ec187f,TCR,2024-06-24_11h47.51.707,LearnStrategy,2023.2.3,Win32,142.8571429,1,1,6,-0.003472222,0.009027778,1,0,0,4.3281,rock_grid_rect_2,2,08,-1,-1,4.328,-0.372222222,-0.268055556,1,0,0,20.3292,Andesite_rect,1,20.329,0,5,0,5,0,1,,,,,,,,,,,,,
65772daa307b28b9a9ec187f,TCR,2024-06-24_11h47.51.707,LearnStrategy,2023.2.3,Win32,142.8571429,1,1,7,-0.054861111,0.011111111,1,0,0,9.5292,rock_grid_rect_2,3,07,-1,-1,9.529,0.175694444,-0.244444444,1,0,0,8.324,Diorite_rect,3,8.324,1,6,0,6,0,1,,,,,,,,,,,,,
65772daa307b28b9a9ec187f,TCR,2024-06-24_11h47.51.707,LearnStrategy,2023.2.3,Win32,142.8571429,1,1,8,0.047916667,-0.022916667,1,0,0,0.6177,rock_grid_rect_2,8,05,-1,-1,0.618,-0.343055556,-0.243055556,1,0,0,12.801,Andesite_rect,1,12.801,0,7,0,7,0,1,,,,,,,,,,,,,
65772daa307b28b9a9ec187f,TCR,2024-06-24_11h47.51.707,LearnStrategy,2023.2.3,Win32,142.8571429,1,1,9,0.185416667,-0.003472222,1,0,0,0.9095,rock_grid_rect_2,1,09,-1,-1,0.909,-0.329861111,-0.270138889,1,0,0,5.1335,Andesite_rect,1,5.134,1,8,0,8,0,1,,,,,,,,,,,,,
65772daa307b28b9a9ec187f,TCR,2024-06-24_11h47.51.707,LearnStrategy,2023.2.3,Win32,142.8571429,1,1,10,0.040972222,-0.016666667,1,0,0,0.9581,rock_grid_rect_2,7,08,-1,-1,0.958,0.4,-0.252777778,1,0,0,10.556,Gabbro_rect,4,10.556,0,9,0,9,0,1,,,,,,,,,,,,,
65772daa307b28b9a9ec187f,TCR,2024-06-24_11h47.51.707,LearnStrategy,2023.2.3,Win32,142.8571429,1,1,11,0.051388889,0.011805556,1,0,0,0.5341,rock_grid_rect_2,4,12,-1,-1,0.534,0.399305556,-0.235416667,1,0,0,5.5507,Gabbro_rect,4,5.551,1,10,0,10,0,1,,,,,,,,,,,,,
65772daa307b28b9a9ec187f,TCR,2024-06-24_11h47.51.707,LearnStrategy,2023.2.3,Win32,142.8571429,1,1,12,0.065277778,-0.013888889,1,0,0,0.6592,rock_grid_rect_2,1,03,-1,-1,0.659,-0.372916667,-0.247916667,1,0,0,19.5581,Andesite_rect,1,19.558,1,11,0,11,0,1,,,,,,,,,,,,,
65772daa307b28b9a9ec187f,TCR,2024-06-24_11h47.51.707,LearnStrategy,2023.2.3,Win32,142.8571429,1,1,13,0.098611111,-0.006944444,1,0,0,0.6175,rock_grid_rect_2,8,08,-1,-1,0.618,0.395138889,-0.391666667,1,0,0,2.2903,Pumice_rect,8,2.29,1,12,0,12,0,1,,,,,,,,,,,,,
65772daa307b28b9a9ec187f,TCR,2024-06-24_11h47.51.707,LearnStrategy,2023.2.3,Win32,142.8571429,1,1,14,0.036111111,-0.014583333,1,0,0,0.9512,rock_grid_rect_2,7,04,-1,-1,0.951,-0.097916667,-0.395833333,1,0,0,8.0324,Pegmatite_rect,6,8.032,0,13,0,13,0,1,,,,,,,,,,,,,
65772daa307b28b9a9ec187f,TCR,2024-06-24_11h47.51.707,LearnStrategy,2023.2.3,Win32,142.8571429,1,1,15,-0.106944444,-0.013888889,1,0,0,0.9124,rock_grid_rect_2,5,14,-1,-1,0.912,-0.377777778,-0.417361111,1,0,0,1.6995,Obsidian_rect,5,1.7,1,14,0,14,0,1,,,,,,,,,,,,,
65772daa307b28b9a9ec187f,TCR,2024-06-24_11h47.51.707,LearnStrategy,2023.2.3,Win32,142.8571429,1,1,16,0.017361111,-0.007638889,1,0,0,0.6453,rock_grid_rect_2,6,10,-1,-1,0.645,-0.070138889,-0.390972222,1,0,0,13.8609,Pegmatite_rect,6,13.861,1,15,0,15,0,1,,,,,,,,,,,,,
65772daa307b28b9a9ec187f,TCR,2024-06-24_11h47.51.707,LearnStrategy,2023.2.3,Win32,142.8571429,1,2,1,,,,,,,,7,13,,,,,,,,,,,7,10.451,1,,,,,,0.166666667,-0.411111111,1,0,0,10.4509,Peridotite_rect,0,0,0,0,1,
65772daa307b28b9a9ec187f,TCR,2024-06-24_11h47.51.707,LearnStrategy,2023.2.3,Win32,142.8571429,1,2,2,,,,,,,,7,02,,,,,,,,,,,6,6.744,0,,,,,,-0.096527778,-0.390277778,1,0,0,6.7439,Pegmatite_rect,1,0,1,0,1,
65772daa307b28b9a9ec187f,TCR,2024-06-24_11h47.51.707,LearnStrategy,2023.2.3,Win32,142.8571429,1,2,3,,,,,,,,6,16,,,,,,,,,,,3,7.075,0,,,,,,0.100694444,-0.235416667,1,0,0,7.0749,Diorite_rect,2,0,2,0,1,
65772daa307b28b9a9ec187f,TCR,2024-06-24_11h47.51.707,LearnStrategy,2023.2.3,Win32,142.8571429,1,2,4,,,,,,,,8,06,,,,,,,,,,,8,4.056,1,,,,,,0.355555556,-0.394444444,1,0,0,4.0559,Pumice_rect,3,0,3,0,1,
65772daa307b28b9a9ec187f,TCR,2024-06-24_11h47.51.707,LearnStrategy,2023.2.3,Win32,142.8571429,1,2,5,,,,,,,,8,10,,,,,,,,,,,8,3.069,1,,,,,,0.355555556,-0.394444444,1,0,0,3.0692,Pumice_rect,4,0,4,0,1,
65772daa307b28b9a9ec187f,TCR,2024-06-24_11h47.51.707,LearnStrategy,2023.2.3,Win32,142.8571429,1,2,6,,,,,,,,2,02,,,,,,,,,,,1,14.333,0,,,,,,-0.372222222,-0.259027778,1,0,0,14.3332,Andesite_rect,5,0,5,0,1,
65772daa307b28b9a9ec187f,TCR,2024-06-24_11h47.51.707,LearnStrategy,2023.2.3,Win32,142.8571429,1,2,7,,,,,,,,1,06,,,,,,,,,,,2,2.184,0,,,,,,-0.1375,-0.265277778,1,0,0,2.1844,Basalt_rect,6,0,6,0,1,
65772daa307b28b9a9ec187f,TCR,2024-06-24_11h47.51.707,LearnStrategy,2023.2.3,Win32,142.8571429,1,2,8,,,,,,,,3,09,,,,,,,,,,,4,13.037,0,,,,,,0.347222222,-0.244444444,1,0,0,13.0368,Gabbro_rect,7,0,7,0,1,
65772daa307b28b9a9ec187f,TCR,2024-06-24_11h47.51.707,LearnStrategy,2023.2.3,Win32,142.8571429,1,2,9,,,,,,,,1,07,,,,,,,,,,,3,27.087,0,,,,,,0.138888889,-0.263888889,1,0,0,27.0872,Diorite_rect,8,0,8,0,1,
65772daa307b28b9a9ec187f,TCR,2024-06-24_11h47.51.707,LearnStrategy,2023.2.3,Win32,142.8571429,1,2,10,,,,,,,,3,08,,,,,,,,,,,3,4.099,1,,,,,,0.164583333,-0.228472222,1,0,0,4.0991,Diorite_rect,9,0,9,0,1,
65772daa307b28b9a9ec187f,TCR,2024-06-24_11h47.51.707,LearnStrategy,2023.2.3,Win32,142.8571429,1,2,11,,,,,,,,5,05,,,,,,,,,,,5,3.799,1,,,,,,-0.428472222,-0.40625,1,0,0,3.7986,Obsidian_rect,10,0,10,0,1,
65772daa307b28b9a9ec187f,TCR,2024-06-24_11h47.51.707,LearnStrategy,2023.2.3,Win32,142.8571429,1,2,12,,,,,,,,2,04,,,,,,,,,,,2,8.477,1,,,,,,-0.079861111,-0.254166667,1,0,0,8.4768,Basalt_rect,11,0,11,0,1,
65772daa307b28b9a9ec187f,TCR,2024-06-24_11h47.51.707,LearnStrategy,2023.2.3,Win32,142.8571429,1,2,13,,,,,,,,4,08,,,,,,,,,,,1,7.065,0,,,,,,-0.389583333,-0.241666667,1,0,0,7.0655,Andesite_rect,12,0,12,0,1,
65772daa307b28b9a9ec187f,TCR,2024-06-24_11h47.51.707,LearnStrategy,2023.2.3,Win32,142.8571429,1,2,14,,,,,,,,5,04,,,,,,,,,,,5,0.956,1,,,,,,-0.334027778,-0.394444444,1,0,0,0.9556,Obsidian_rect,13,0,13,0,1,
65772daa307b28b9a9ec187f,TCR,2024-06-24_11h47.51.707,LearnStrategy,2023.2.3,Win32,142.8571429,1,2,15,,,,,,,,6,09,,,,,,,,,,,6,18.916,1,,,,,,-0.150694444,-0.404861111,1,0,0,18.916,Pegmatite_rect,14,0,14,0,1,
65772daa307b28b9a9ec187f,TCR,2024-06-24_11h47.51.707,LearnStrategy,2023.2.3,Win32,142.8571429,1,2,16,,,,,,,,4,09,,,,,,,,,,,2,9.422,0,,,,,,-0.147916667,-0.25625,1,0,0,9.4224,Basalt_rect,15,0,15,0,1,
65772daa307b28b9a9ec187f,TCR,2024-06-24_11h47.51.707,LearnStrategy,2023.2.3,Win32,142.8571429,2,1,1,-0.005555556,0.021527778,1,0,0,1.2297,rock_grid_rect_2,6,06,-1,-1,1.23,0.151388889,-0.399305556,1,0,0,25.0514,Peridotite_rect,7,25.051,0,0,0,0,0,1,,,,,,,,,,,,,
65772daa307b28b9a9ec187f,TCR,2024-06-24_11h47.51.707,LearnStrategy,2023.2.3,Win32,142.8571429,2,1,2,0.01875,0.003472222,1,0,0,0.8394,rock_grid_rect_2,1,14,-1,-1,0.839,0.061805556,-0.41875,1,0,0,2.5962,Peridotite_rect,7,2.596,0,1,0,1,0,1,,,,,,,,,,,,,
65772daa307b28b9a9ec187f,TCR,2024-06-24_11h47.51.707,LearnStrategy,2023.2.3,Win32,142.8571429,2,1,3,0.044444444,0.005555556,1,0,0,93.2448,rock_grid_rect_2,7,16,-1,-1,93.245,0.070138889,-0.411805556,1,0,0,4.5147,Peridotite_rect,7,4.515,1,2,0,2,0,1,,,,,,,,,,,,,
65772daa307b28b9a9ec187f,TCR,2024-06-24_11h47.51.707,LearnStrategy,2023.2.3,Win32,142.8571429,2,1,4,-0.095138889,-0.005555556,1,0,0,1.1043,rock_grid_rect_2,1,14,-1,-1,1.104,-0.361805556,-0.263194444,1,0,0,2.0888,Andesite_rect,1,2.089,1,3,0,3,0,1,,,,,,,,,,,,,
65772daa307b28b9a9ec187f,TCR,2024-06-24_11h47.51.707,LearnStrategy,2023.2.3,Win32,142.8571429,2,1,5,-0.078472222,-0.021527778,1,0,0,0.7566,rock_grid_rect_2,2,12,-1,-1,0.757,0.36875,-0.382638889,1,0,0,4.2091,Pumice_rect,8,4.209,0,4,0,4,0,1,,,,,,,,,,,,,
65772daa307b28b9a9ec187f,TCR,2024-06-24_11h47.51.707,LearnStrategy,2023.2.3,Win32,142.8571429,2,1,6,0.01875,0.004166667,1,0,0,1.1529,rock_grid_rect_2,4,10,-1,-1,1.153,0.419444444,-0.401388889,1,0,0,1.1918,Pumice_rect,8,1.192,0,5,0,5,0,1,,,,,,,,,,,,,
65772daa307b28b9a9ec187f,TCR,2024-06-24_11h47.51.707,LearnStrategy,2023.2.3,Win32,142.8571429,2,1,7,-0.031944444,-0.00625,1,0,0,1.0277,rock_grid_rect_2,6,10,-1,-1,1.028,-0.065972222,-0.388194444,1,0,0,2.3944,Pegmatite_rect,6,2.394,1,6,0,6,0,1,,,,,,,,,,,,,
65772daa307b28b9a9ec187f,TCR,2024-06-24_11h47.51.707,LearnStrategy,2023.2.3,Win32,142.8571429,2,1,8,-0.043055556,-0.014583333,1,0,0,0.7914,rock_grid_rect_2,4,16,-1,-1,0.791,0.357638889,-0.386805556,1,0,0,3.1453,Pumice_rect,8,3.145,0,7,0,7,0,1,,,,,,,,,,,,,
65772daa307b28b9a9ec187f,TCR,2024-06-24_11h47.51.707,LearnStrategy,2023.2.3,Win32,142.8571429,2,1,9,0.059722222,-0.004861111,1,0,0,0.4786,rock_grid_rect_2,1,11,-1,-1,0.479,-0.3125,-0.256944444,1,0,0,2.315,Andesite_rect,1,2.315,1,8,0,8,0,1,,,,,,,,,,,,,
65772daa307b28b9a9ec187f,TCR,2024-06-24_11h47.51.707,LearnStrategy,2023.2.3,Win32,142.8571429,2,1,10,-0.0375,0.020833333,1,0,0,0.4647,rock_grid_rect_2,3,16,-1,-1,0.465,0.1625,-0.243055556,1,0,0,2.2211,Diorite_rect,3,2.221,1,9,0,9,0,1,,,,,,,,,,,,,
65772daa307b28b9a9ec187f,TCR,2024-06-24_11h47.51.707,LearnStrategy,2023.2.3,Win32,142.8571429,2,1,11,0.023611111,0.018055556,1,0,0,0.5412,rock_grid_rect_2,4,11,-1,-1,0.541,-0.066666667,-0.23125,1,0,0,3.8402,Basalt_rect,2,3.84,0,10,0,10,0,1,,,,,,,,,,,,,
65772daa307b28b9a9ec187f,TCR,2024-06-24_11h47.51.707,LearnStrategy,2023.2.3,Win32,142.8571429,2,1,12,0.070138889,-0.013194444,1,0,0,0.4716,rock_grid_rect_2,4,12,-1,-1,0.472,-0.125694444,-0.238194444,1,0,0,1.3396,Basalt_rect,2,1.34,0,11,0,11,0,1,,,,,,,,,,,,,
65772daa307b28b9a9ec187f,TCR,2024-06-24_11h47.51.707,LearnStrategy,2023.2.3,Win32,142.8571429,2,1,13,0.005555556,-0.00625,1,0,0,0.5135,rock_grid_rect_2,1,03,-1,-1,0.514,-0.377083333,-0.235416667,1,0,0,1.5149,Andesite_rect,1,1.515,1,12,0,12,0,1,,,,,,,,,,,,,
65772daa307b28b9a9ec187f,TCR,2024-06-24_11h47.51.707,LearnStrategy,2023.2.3,Win32,142.8571429,2,1,14,-0.008333333,-0.013194444,1,0,0,0.5696,rock_grid_rect_2,3,16,-1,-1,0.57,0.113194444,-0.228472222,1,0,0,2.1294,Diorite_rect,3,2.129,1,13,0,13,0,1,,,,,,,,,,,,,
65772daa307b28b9a9ec187f,TCR,2024-06-24_11h47.51.707,LearnStrategy,2023.2.3,Win32,142.8571429,2,1,15,0.0875,0.020833333,1,0,0,0.6108,rock_grid_rect_2,7,08,-1,-1,0.611,-0.06875,-0.386111111,1,0,0,4.0491,Pegmatite_rect,6,4.049,0,14,0,14,0,1,,,,,,,,,,,,,
65772daa307b28b9a9ec187f,TCR,2024-06-24_11h47.51.707,LearnStrategy,2023.2.3,Win32,142.8571429,2,1,16,-0.029166667,0.0125,1,0,0,0.9096,rock_grid_rect_2,2,01,-1,-1,0.91,-0.102777778,-0.265972222,1,0,0,2.1026,Basalt_rect,2,2.103,1,15,0,15,0,1,,,,,,,,,,,,,
65772daa307b28b9a9ec187f,TCR,2024-06-24_11h47.51.707,LearnStrategy,2023.2.3,Win32,142.8571429,2,2,1,,,,,,,,1,04,,,,,,,,,,,4,2.151,0,,,,,,0.316666667,-0.244444444,1,0,0,2.151,Gabbro_rect,0,0,0,0,1,
65772daa307b28b9a9ec187f,TCR,2024-06-24_11h47.51.707,LearnStrategy,2023.2.3,Win32,142.8571429,2,2,2,,,,,,,,3,02,,,,,,,,,,,3,1.88,1,,,,,,0.11875,-0.241666667,1,0,0,1.88,Diorite_rect,1,0,1,0,1,
65772daa307b28b9a9ec187f,TCR,2024-06-24_11h47.51.707,LearnStrategy,2023.2.3,Win32,142.8571429,2,2,3,,,,,,,,2,06,,,,,,,,,,,2,3.959,1,,,,,,-0.163888889,-0.248611111,1,0,0,3.9586,Basalt_rect,2,0,2,0,1,
65772daa307b28b9a9ec187f,TCR,2024-06-24_11h47.51.707,LearnStrategy,2023.2.3,Win32,142.8571429,2,2,4,,,,,,,,7,10,,,,,,,,,,,7,3.395,1,,,,,,0.029861111,-0.390972222,1,0,0,3.3953,Peridotite_rect,3,0,3,0,1,
65772daa307b28b9a9ec187f,TCR,2024-06-24_11h47.51.707,LearnStrategy,2023.2.3,Win32,142.8571429,2,2,5,,,,,,,,4,01,,,,,,,,,,,7,3.806,0,,,,,,0.155555556,-0.394444444,1,0,0,3.8056,Peridotite_rect,4,0,4,0,1,
65772daa307b28b9a9ec187f,TCR,2024-06-24_11h47.51.707,LearnStrategy,2023.2.3,Win32,142.8571429,2,2,6,,,,,,,,4,03,,,,,,,,,,,4,4.147,1,,,,,,0.372916667,-0.234722222,1,0,0,4.1467,Gabbro_rect,5,0,5,0,1,
65772daa307b28b9a9ec187f,TCR,2024-06-24_11h47.51.707,LearnStrategy,2023.2.3,Win32,142.8571429,2,2,7,,,,,,,,6,05,,,,,,,,,,,3,4.758,0,,,,,,0.109027778,-0.238194444,1,0,0,4.7578,Diorite_rect,6,0,6,0,1,
65772daa307b28b9a9ec187f,TCR,2024-06-24_11h47.51.707,LearnStrategy,2023.2.3,Win32,142.8571429,2,2,8,,,,,,,,8,14,,,,,,,,,,,8,3.467,1,,,,,,0.350694444,-0.408333333,1,0,0,3.4673,Pumice_rect,7,0,7,0,1,
65772daa307b28b9a9ec187f,TCR,2024-06-24_11h47.51.707,LearnStrategy,2023.2.3,Win32,142.8571429,2,2,9,,,,,,,,5,11,,,,,,,,,,,5,1.164,1,,,,,,-0.342361111,-0.394444444,1,0,0,1.164,Obsidian_rect,8,0,8,0,1,
65772daa307b28b9a9ec187f,TCR,2024-06-24_11h47.51.707,LearnStrategy,2023.2.3,Win32,142.8571429,2,2,10,,,,,,,,7,15,,,,,,,,,,,7,1.727,1,,,,,,0.055555556,-0.3875,1,0,0,1.7271,Peridotite_rect,9,0,9,0,1,
65772daa307b28b9a9ec187f,TCR,2024-06-24_11h47.51.707,LearnStrategy,2023.2.3,Win32,142.8571429,2,2,11,,,,,,,,2,10,,,,,,,,,,,2,5.62,1,,,,,,-0.14375,-0.259027778,1,0,0,5.6201,Basalt_rect,10,0,10,0,1,
65772daa307b28b9a9ec187f,TCR,2024-06-24_11h47.51.707,LearnStrategy,2023.2.3,Win32,142.8571429,2,2,12,,,,,,,,1,10,,,,,,,,,,,1,3.041,1,,,,,,-0.379861111,-0.251388889,1,0,0,3.041,Andesite_rect,11,0,11,0,1,
65772daa307b28b9a9ec187f,TCR,2024-06-24_11h47.51.707,LearnStrategy,2023.2.3,Win32,142.8571429,2,2,13,,,,,,,,3,12,,,,,,,,,,,3,1.171,1,,,,,,0.138888889,-0.245833333,1,0,0,1.171,Diorite_rect,12,0,12,0,1,
65772daa307b28b9a9ec187f,TCR,2024-06-24_11h47.51.707,LearnStrategy,2023.2.3,Win32,142.8571429,2,2,14,,,,,,,,5,09,,,,,,,,,,,5,9.089,1,,,,,,-0.394444444,-0.409027778,1,0,0,9.0888,Obsidian_rect,13,0,13,0,1,
65772daa307b28b9a9ec187f,TCR,2024-06-24_11h47.51.707,LearnStrategy,2023.2.3,Win32,142.8571429,2,2,15,,,,,,,,8,04,,,,,,,,,,,8,2.888,1,,,,,,0.333333333,-0.382638889,1,0,0,2.8881,Pumice_rect,14,0,14,0,1,
65772daa307b28b9a9ec187f,TCR,2024-06-24_11h47.51.707,LearnStrategy,2023.2.3,Win32,142.8571429,2,2,16,,,,,,,,6,15,,,,,,,,,,,4,6.169,0,,,,,,0.298611111,-0.257638889,1,0,0,6.1693,Gabbro_rect,15,0,15,0,1,
65772daa307b28b9a9ec187f,TCR,2024-06-24_11h47.51.707,LearnStrategy,2023.2.3,Win32,142.8571429,3,1,1,0.038888889,-0.002083333,1,0,0,1.5527,rock_grid_rect_2,7,04,-1,-1,1.553,0.083333333,-0.401388889,1,0,0,3.7751,Peridotite_rect,7,3.775,1,0,0,0,0,1,,,,,,,,,,,,,
65772daa307b28b9a9ec187f,TCR,2024-06-24_11h47.51.707,LearnStrategy,2023.2.3,Win32,142.8571429,3,1,2,0.009722222,-0.006944444,1,0,0,0.7221,rock_grid_rect_2,3,15,-1,-1,0.722,0.33125,-0.234027778,1,0,0,3.1663,Gabbro_rect,4,3.166,0,1,0,1,0,1,,,,,,,,,,,,,
65772daa307b28b9a9ec187f,TCR,2024-06-24_11h47.51.707,LearnStrategy,2023.2.3,Win32,142.8571429,3,1,3,0.063194444,0.010416667,1,0,0,1.2504,rock_grid_rect_2,6,10,-1,-1,1.25,-0.079861111,-0.415972222,1,0,0,1.421,Pegmatite_rect,6,1.421,1,2,0,2,0,1,,,,,,,,,,,,,
65772daa307b28b9a9ec187f,TCR,2024-06-24_11h47.51.707,LearnStrategy,2023.2.3,Win32,142.8571429,3,1,4,-0.01875,-0.008333333,1,0,0,0.722,rock_grid_rect_2,1,11,-1,-1,0.722,-0.375,-0.24375,1,0,0,1.0742,Andesite_rect,1,1.074,1,3,0,3,0,1,,,,,,,,,,,,,
65772daa307b28b9a9ec187f,TCR,2024-06-24_11h47.51.707,LearnStrategy,2023.2.3,Win32,142.8571429,3,1,5,-0.033333333,-0.013194444,1,0,0,0.4926,rock_grid_rect_2,4,12,-1,-1,0.493,-0.066666667,-0.259027778,1,0,0,1.0391,Basalt_rect,2,1.039,0,4,0,4,0,1,,,,,,,,,,,,,
65772daa307b28b9a9ec187f,TCR,2024-06-24_11h47.51.707,LearnStrategy,2023.2.3,Win32,142.8571429,3,1,6,0.036805556,-0.007638889,1,0,0,0.5481,rock_grid_rect_2,2,08,-1,-1,0.548,-0.104861111,-0.270833333,1,0,0,1.936,Basalt_rect,2,1.936,1,5,0,5,0,1,,,,,,,,,,,,,
65772daa307b28b9a9ec187f,TCR,2024-06-24_11h47.51.707,LearnStrategy,2023.2.3,Win32,142.8571429,3,1,7,0.011805556,0.006944444,1,0,0,0.4856,rock_grid_rect_2,4,14,-1,-1,0.486,0.335416667,-0.246527778,1,0,0,1.5465,Gabbro_rect,4,1.547,1,6,0,6,0,1,,,,,,,,,,,,,
65772daa307b28b9a9ec187f,TCR,2024-06-24_11h47.51.707,LearnStrategy,2023.2.3,Win32,142.8571429,3,1,8,0.027083333,-0.004861111,1,0,0,0.5413,rock_grid_rect_2,1,02,-1,-1,0.541,0.130555556,-0.236111111,1,0,0,1.9733,Diorite_rect,3,1.973,0,7,0,7,0,1,,,,,,,,,,,,,
65772daa307b28b9a9ec187f,TCR,2024-06-24_11h47.51.707,LearnStrategy,2023.2.3,Win32,142.8571429,3,1,9,0.052083333,-0.004861111,1,0,0,0.5137,rock_grid_rect_2,4,12,-1,-1,0.514,0.332638889,-0.253472222,1,0,0,3.201,Gabbro_rect,4,3.201,1,8,0,8,0,1,,,,,,,,,,,,,
65772daa307b28b9a9ec187f,TCR,2024-06-24_11h47.51.707,LearnStrategy,2023.2.3,Win32,142.8571429,3,1,10,0.026388889,-0.025,1,0,0,0.5273,rock_grid_rect_2,6,10,-1,-1,0.527,-0.054861111,-0.39375,1,0,0,0.914,Pegmatite_rect,6,0.914,1,9,0,9,0,1,,,,,,,,,,,,,
65772daa307b28b9a9ec187f,TCR,2024-06-24_11h47.51.707,LearnStrategy,2023.2.3,Win32,142.8571429,3,1,11,0.103472222,-0.006944444,1,0,0,0.4786,rock_grid_rect_2,1,14,-1,-1,0.479,-0.416666667,-0.2375,1,0,0,1.5814,Andesite_rect,1,1.581,1,10,0,10,0,1,,,,,,,,,,,,,
65772daa307b28b9a9ec187f,TCR,2024-06-24_11h47.51.707,LearnStrategy,2023.2.3,Win32,142.8571429,3,1,12,0.064583333,-0.003472222,1,0,0,0.4367,rock_grid_rect_2,6,13,-1,-1,0.437,0.078472222,-0.25625,1,0,0,1.5704,Diorite_rect,3,1.57,0,11,0,11,0,1,,,,,,,,,,,,,
65772daa307b28b9a9ec187f,TCR,2024-06-24_11h47.51.707,LearnStrategy,2023.2.3,Win32,142.8571429,3,1,13,0.088888889,-0.004861111,1,0,0,0.4514,rock_grid_rect_2,5,07,-1,-1,0.451,-0.452777778,-0.409027778,1,0,0,1.3411,Obsidian_rect,5,1.341,1,12,0,12,0,1,,,,,,,,,,,,,
65772daa307b28b9a9ec187f,TCR,2024-06-24_11h47.51.707,LearnStrategy,2023.2.3,Win32,142.8571429,3,1,14,0.042361111,0,1,0,0,0.4926,rock_grid_rect_2,6,08,-1,-1,0.493,0.072222222,-0.234027778,1,0,0,1.0613,Diorite_rect,3,1.061,0,13,0,13,0,1,,,,,,,,,,,,,
65772daa307b28b9a9ec187f,TCR,2024-06-24_11h47.51.707,LearnStrategy,2023.2.3,Win32,142.8571429,3,1,15,0.129861111,0.015972222,1,0,0,0.6388,rock_grid_rect_2,4,10,-1,-1,0.639,-0.092361111,-0.240277778,1,0,0,2.5337,Basalt_rect,2,2.534,0,14,0,14,0,1,,,,,,,,,,,,,
65772daa307b28b9a9ec187f,TCR,2024-06-24_11h47.51.707,LearnStrategy,2023.2.3,Win32,142.8571429,3,1,16,0.109722222,-0.025,1,0,0,0.4369,rock_grid_rect_2,3,15,-1,-1,0.437,0.335416667,-0.242361111,1,0,0,1.192,Gabbro_rect,4,1.192,0,15,0,15,0,1,,,,,,,,,,,,,
65772daa307b28b9a9ec187f,TCR,2024-06-24_11h47.51.707,LearnStrategy,2023.2.3,Win32,142.8571429,3,2,1,,,,,,,,4,15,,,,,,,,,,,3,1.032,0,,,,,,0.115972222,-0.247916667,1,0,0,1.0321,Diorite_rect,0,0,0,0,1,
65772daa307b28b9a9ec187f,TCR,2024-06-24_11h47.51.707,LearnStrategy,2023.2.3,Win32,142.8571429,3,2,2,,,,,,,,4,05,,,,,,,,,,,7,2.368,0,,,,,,0.090972222,-0.419444444,1,0,0,2.3684,Peridotite_rect,1,0,1,0,1,
65772daa307b28b9a9ec187f,TCR,2024-06-24_11h47.51.707,LearnStrategy,2023.2.3,Win32,142.8571429,3,2,3,,,,,,,,6,12,,,,,,,,,,,3,1.887,0,,,,,,0.083333333,-0.2625,1,0,0,1.8873,Diorite_rect,2,0,2,0,1,
65772daa307b28b9a9ec187f,TCR,2024-06-24_11h47.51.707,LearnStrategy,2023.2.3,Win32,142.8571429,3,2,4,,,,,,,,2,05,,,,,,,,,,,8,3.75,0,,,,,,0.323611111,-0.415972222,1,0,0,3.75,Pumice_rect,3,0,3,0,1,
65772daa307b28b9a9ec187f,TCR,2024-06-24_11h47.51.707,LearnStrategy,2023.2.3,Win32,142.8571429,3,2,5,,,,,,,,5,08,,,,,,,,,,,5,1.039,1,,,,,,-0.390277778,-0.394444444,1,0,0,1.0388,Obsidian_rect,4,0,4,0,1,
65772daa307b28b9a9ec187f,TCR,2024-06-24_11h47.51.707,LearnStrategy,2023.2.3,Win32,142.8571429,3,2,6,,,,,,,,6,07,,,,,,,,,,,6,5.613,1,,,,,,-0.130555556,-0.415972222,1,0,0,5.6129,Pegmatite_rect,5,0,5,0,1,
65772daa307b28b9a9ec187f,TCR,2024-06-24_11h47.51.707,LearnStrategy,2023.2.3,Win32,142.8571429,3,2,7,,,,,,,,7,12,,,,,,,,,,,6,2.179,0,,,,,,-0.063888889,-0.401388889,1,0,0,2.1792,Pegmatite_rect,6,0,6,0,1,
65772daa307b28b9a9ec187f,TCR,2024-06-24_11h47.51.707,LearnStrategy,2023.2.3,Win32,142.8571429,3,2,8,,,,,,,,8,02,,,,,,,,,,,8,1.581,1,,,,,,0.338194444,-0.400694444,1,0,0,1.5811,Pumice_rect,7,0,7,0,1,
65772daa307b28b9a9ec187f,TCR,2024-06-24_11h47.51.707,LearnStrategy,2023.2.3,Win32,142.8571429,3,2,9,,,,,,,,7,06,,,,,,,,,,,7,3.587,1,,,,,,0.056944444,-0.379166667,1,0,0,3.5866,Peridotite_rect,8,0,8,0,1,
65772daa307b28b9a9ec187f,TCR,2024-06-24_11h47.51.707,LearnStrategy,2023.2.3,Win32,142.8571429,3,2,10,,,,,,,,5,12,,,,,,,,,,,5,1.018,1,,,,,,-0.341666667,-0.408333333,1,0,0,1.0181,Obsidian_rect,9,0,9,0,1,
65772daa307b28b9a9ec187f,TCR,2024-06-24_11h47.51.707,LearnStrategy,2023.2.3,Win32,142.8571429,3,2,11,,,,,,,,1,05,,,,,,,,,,,4,4.702,0,,,,,,0.39375,-0.248611111,1,0,0,4.7021,Gabbro_rect,10,0,10,0,1,
65772daa307b28b9a9ec187f,TCR,2024-06-24_11h47.51.707,LearnStrategy,2023.2.3,Win32,142.8571429,3,2,12,,,,,,,,3,11,,,,,,,,,,,3,2.207,1,,,,,,0.072916667,-0.247222222,1,0,0,2.2065,Diorite_rect,11,0,11,0,1,
65772daa307b28b9a9ec187f,TCR,2024-06-24_11h47.51.707,LearnStrategy,2023.2.3,Win32,142.8571429,3,2,13,,,,,,,,2,16,,,,,,,,,,,2,4.327,1,,,,,,-0.09375,-0.250694444,1,0,0,4.3271,Basalt_rect,12,0,12,0,1,
65772daa307b28b9a9ec187f,TCR,2024-06-24_11h47.51.707,LearnStrategy,2023.2.3,Win32,142.8571429,3,2,14,,,,,,,,1,01,,,,,,,,,,,4,3.215,0,,,,,,0.386805556,-0.252083333,1,0,0,3.2147,Gabbro_rect,13,0,13,0,1,
65772daa307b28b9a9ec187f,TCR,2024-06-24_11h47.51.707,LearnStrategy,2023.2.3,Win32,142.8571429,3,2,15,,,,,,,,8,03,,,,,,,,,,,8,2.249,1,,,,,,0.394444444,-0.394444444,1,0,0,2.2485,Pumice_rect,14,0,14,0,1,
65772daa307b28b9a9ec187f,TCR,2024-06-24_11h47.51.707,LearnStrategy,2023.2.3,Win32,142.8571429,3,2,16,,,,,,,,3,10,,,,,,,,,,,3,1.282,1,,,,,,0.148611111,-0.265972222,1,0,0,1.2822,Diorite_rect,15,0,15,0,1,
65772daa307b28b9a9ec187f,TCR,2024-06-24_11h47.51.707,LearnStrategy,2023.2.3,Win32,142.8571429,4,1,1,0.005555556,-0.002777778,1,0,0,0.6809,rock_grid_rect_2,7,14,-1,-1,0.681,0.126388889,-0.391666667,1,0,0,1.8829,Peridotite_rect,7,1.883,1,0,0,0,0,1,,,,,,,,,,,,,
65772daa307b28b9a9ec187f,TCR,2024-06-24_11h47.51.707,LearnStrategy,2023.2.3,Win32,142.8571429,4,1,2,-0.081944444,0.011805556,1,0,0,0.8422,rock_grid_rect_2,4,11,-1,-1,0.842,-0.407638889,-0.245138889,1,0,0,3.0267,Andesite_rect,1,3.027,0,1,0,1,0,1,,,,,,,,,,,,,
65772daa307b28b9a9ec187f,TCR,2024-06-24_11h47.51.707,LearnStrategy,2023.2.3,Win32,142.8571429,4,1,3,0.068055556,0.003472222,1,0,0,0.5482,rock_grid_rect_2,1,16,-1,-1,0.548,-0.423611111,-0.269444444,1,0,0,1.2686,Andesite_rect,1,1.269,1,2,0,2,0,1,,,,,,,,,,,,,
65772daa307b28b9a9ec187f,TCR,2024-06-24_11h47.51.707,LearnStrategy,2023.2.3,Win32,142.8571429,4,1,4,0.027083333,0.001388889,1,0,0,0.5066,rock_grid_rect_2,3,16,-1,-1,0.507,0.103472222,-0.236111111,1,0,0,0.9699,Diorite_rect,3,0.97,1,3,0,3,0,1,,,,,,,,,,,,,
65772daa307b28b9a9ec187f,TCR,2024-06-24_11h47.51.707,LearnStrategy,2023.2.3,Win32,142.8571429,4,1,5,-0.001388889,0.017361111,1,0,0,0.6108,rock_grid_rect_2,6,13,-1,-1,0.611,0.435416667,-0.251388889,1,0,0,1.3325,Gabbro_rect,4,1.332,0,4,0,4,0,1,,,,,,,,,,,,,
65772daa307b28b9a9ec187f,TCR,2024-06-24_11h47.51.707,LearnStrategy,2023.2.3,Win32,142.8571429,4,1,6,-0.004861111,-0.009027778,1,0,0,0.6456,rock_grid_rect_2,2,11,-1,-1,0.646,-0.410416667,-0.261805556,1,0,0,1.5049,Andesite_rect,1,1.505,0,5,0,5,0,1,,,,,,,,,,,,,
65772daa307b28b9a9ec187f,TCR,2024-06-24_11h47.51.707,LearnStrategy,2023.2.3,Win32,142.8571429,4,1,7,-0.063888889,-0.018055556,1,0,0,0.8541,rock_grid_rect_2,4,12,-1,-1,0.854,0.350694444,-0.253472222,1,0,0,1.2479,Gabbro_rect,4,1.248,1,6,0,6,0,1,,,,,,,,,,,,,
65772daa307b28b9a9ec187f,TCR,2024-06-24_11h47.51.707,LearnStrategy,2023.2.3,Win32,142.8571429,4,1,8,-0.013194444,-0.002777778,1,0,0,0.5829,rock_grid_rect_2,4,10,-1,-1,0.583,0.355555556,-0.404861111,1,0,0,1.2197,Pumice_rect,8,1.22,0,7,0,7,0,1,,,,,,,,,,,,,
65772daa307b28b9a9ec187f,TCR,2024-06-24_11h47.51.707,LearnStrategy,2023.2.3,Win32,142.8571429,4,1,9,0.050694444,0.013194444,1,0,0,0.576,rock_grid_rect_2,2,14,-1,-1,0.576,0.379861111,-0.402777778,1,0,0,1.1087,Pumice_rect,8,1.109,0,8,0,8,0,1,,,,,,,,,,,,,
65772daa307b28b9a9ec187f,TCR,2024-06-24_11h47.51.707,LearnStrategy,2023.2.3,Win32,142.8571429,4,1,10,0.029166667,-0.002777778,1,0,0,0.7916,rock_grid_rect_2,6,06,-1,-1,0.792,0.146527778,-0.255555556,1,0,0,1.5766,Diorite_rect,3,1.577,0,9,0,9,0,1,,,,,,,,,,,,,
65772daa307b28b9a9ec187f,TCR,2024-06-24_11h47.51.707,LearnStrategy,2023.2.3,Win32,142.8571429,4,1,11,0.147222222,0.0125,1,0,0,2.2302,rock_grid_rect_2,6,03,-1,-1,2.23,0.050694444,-0.409722222,1,0,0,2.5477,Peridotite_rect,7,2.548,0,10,0,10,0,1,,,,,,,,,,,,,
65772daa307b28b9a9ec187f,TCR,2024-06-24_11h47.51.707,LearnStrategy,2023.2.3,Win32,142.8571429,4,1,12,-0.046527778,0.003472222,1,0,0,0.8749,rock_grid_rect_2,1,02,-1,-1,0.875,0.348611111,-0.252777778,1,0,0,3.1175,Gabbro_rect,4,3.118,0,11,0,11,0,1,,,,,,,,,,,,,
65772daa307b28b9a9ec187f,TCR,2024-06-24_11h47.51.707,LearnStrategy,2023.2.3,Win32,142.8571429,4,1,13,0.018055556,-0.013888889,1,0,0,0.5272,rock_grid_rect_2,1,16,-1,-1,0.527,-0.411805556,-0.258333333,1,0,0,1.0262,Andesite_rect,1,1.026,1,12,0,12,0,1,,,,,,,,,,,,,
65772daa307b28b9a9ec187f,TCR,2024-06-24_11h47.51.707,LearnStrategy,2023.2.3,Win32,142.8571429,4,1,14,-0.003472222,0.007638889,1,0,0,0.4578,rock_grid_rect_2,4,14,-1,-1,0.458,0.332638889,-0.4,1,0,0,2.814,Pumice_rect,8,2.814,0,13,0,13,0,1,,,,,,,,,,,,,
65772daa307b28b9a9ec187f,TCR,2024-06-24_11h47.51.707,LearnStrategy,2023.2.3,Win32,142.8571429,4,1,15,0.027777778,-0.013888889,1,0,0,0.409,rock_grid_rect_2,7,04,-1,-1,0.409,0.047916667,-0.397222222,1,0,0,1.483,Peridotite_rect,7,1.483,1,14,0,14,0,1,,,,,,,,,,,,,
65772daa307b28b9a9ec187f,TCR,2024-06-24_11h47.51.707,LearnStrategy,2023.2.3,Win32,142.8571429,4,1,16,-0.030555556,0.013888889,1,0,0,0.4926,rock_grid_rect_2,8,15,-1,-1,0.493,0.325694444,-0.38125,1,0,0,1.345,Pumice_rect,8,1.345,1,15,0,15,0,1,,,,,,,,,,,,,
65772daa307b28b9a9ec187f,TCR,2024-06-24_11h47.51.707,LearnStrategy,2023.2.3,Win32,142.8571429,4,2,1,,,,,,,,8,14,,,,,,,,,,,8,0.837,1,,,,,,0.35625,-0.398611111,1,0,0,0.8374,Pumice_rect,0,0,0,0,1,
65772daa307b28b9a9ec187f,TCR,2024-06-24_11h47.51.707,LearnStrategy,2023.2.3,Win32,142.8571429,4,2,2,,,,,,,,1,07,,,,,,,,,,,3,1.283,0,,,,,,0.130555556,-0.259027778,1,0,0,1.2825,Diorite_rect,1,0,1,0,1,
65772daa307b28b9a9ec187f,TCR,2024-06-24_11h47.51.707,LearnStrategy,2023.2.3,Win32,142.8571429,4,2,3,,,,,,,,1,01,,,,,,,,,,,4,1.838,0,,,,,,0.323611111,-0.250694444,1,0,0,1.8383,Gabbro_rect,2,0,2,0,1,
65772daa307b28b9a9ec187f,TCR,2024-06-24_11h47.51.707,LearnStrategy,2023.2.3,Win32,142.8571429,4,2,4,,,,,,,,3,10,,,,,,,,,,,3,1.101,1,,,,,,0.15625,-0.240972222,1,0,0,1.1015,Diorite_rect,3,0,3,0,1,
65772daa307b28b9a9ec187f,TCR,2024-06-24_11h47.51.707,LearnStrategy,2023.2.3,Win32,142.8571429,4,2,5,,,,,,,,6,07,,,,,,,,,,,7,6.819,0,,,,,,0.108333333,-0.39375,1,0,0,6.8193,Peridotite_rect,4,0,4,0,1,
65772daa307b28b9a9ec187f,TCR,2024-06-24_11h47.51.707,LearnStrategy,2023.2.3,Win32,142.8571429,4,2,6,,,,,,,,7,12,,,,,,,,,,,6,1.185,0,,,,,,-0.0625,-0.403472222,1,0,0,1.1847,Pegmatite_rect,5,0,5,0,1,
65772daa307b28b9a9ec187f,TCR,2024-06-24_11h47.51.707,LearnStrategy,2023.2.3,Win32,142.8571429,4,2,7,,,,,,,,4,03,,,,,,,,,,,4,2.916,1,,,,,,0.402777778,-0.258333333,1,0,0,2.9162,Gabbro_rect,6,0,6,0,1,
65772daa307b28b9a9ec187f,TCR,2024-06-24_11h47.51.707,LearnStrategy,2023.2.3,Win32,142.8571429,4,2,8,,,,,,,,5,09,,,,,,,,,,,5,1.027,1,,,,,,-0.38125,-0.411805556,1,0,0,1.0266,Obsidian_rect,7,0,7,0,1,
65772daa307b28b9a9ec187f,TCR,2024-06-24_11h47.51.707,LearnStrategy,2023.2.3,Win32,142.8571429,4,2,9,,,,,,,,2,04,,,,,,,,,,,2,2.193,1,,,,,,-0.16875,-0.265277778,1,0,0,2.1928,Basalt_rect,8,0,8,0,1,
65772daa307b28b9a9ec187f,TCR,2024-06-24_11h47.51.707,LearnStrategy,2023.2.3,Win32,142.8571429,4,2,10,,,,,,,,5,12,,,,,,,,,,,5,1.424,1,,,,,,-0.320138889,-0.394444444,1,0,0,1.4244,Obsidian_rect,9,0,9,0,1,
65772daa307b28b9a9ec187f,TCR,2024-06-24_11h47.51.707,LearnStrategy,2023.2.3,Win32,142.8571429,4,2,11,,,,,,,,3,12,,,,,,,,,,,3,1.122,1,,,,,,0.115277778,-0.259722222,1,0,0,1.1224,Diorite_rect,10,0,10,0,1,
65772daa307b28b9a9ec187f,TCR,2024-06-24_11h47.51.707,LearnStrategy,2023.2.3,Win32,142.8571429,4,2,12,,,,,,,,2,05,,,,,,,,,,,2,2.728,1,,,,,,-0.071527778,-0.268055556,1,0,0,2.7281,Basalt_rect,11,0,11,0,1,
65772daa307b28b9a9ec187f,TCR,2024-06-24_11h47.51.707,LearnStrategy,2023.2.3,Win32,142.8571429,4,2,13,,,,,,,,6,15,,,,,,,,,,,7,2.742,0,,,,,,0.124305556,-0.411111111,1,0,0,2.7422,Peridotite_rect,12,0,12,0,1,
65772daa307b28b9a9ec187f,TCR,2024-06-24_11h47.51.707,LearnStrategy,2023.2.3,Win32,142.8571429,4,2,14,,,,,,,,8,03,,,,,,,,,,,4,1.553,0,,,,,,0.409027778,-0.229166667,1,0,0,1.5532,Gabbro_rect,13,0,13,0,1,
65772daa307b28b9a9ec187f,TCR,2024-06-24_11h47.51.707,LearnStrategy,2023.2.3,Win32,142.8571429,4,2,15,,,,,,,,7,15,,,,,,,,,,,7,3.223,1,,,,,,0.06875,-0.399305556,1,0,0,3.2229,Peridotite_rect,14,0,14,0,1,
65772daa307b28b9a9ec187f,TCR,2024-06-24_11h47.51.707,LearnStrategy,2023.2.3,Win32,142.8571429,4,2,16,,,,,,,,4,15,,,,,,,,,,,2,3.091,0,,,,,,-0.107638889,-0.258333333,1,0,0,3.0909,Basalt_rect,15,0,15,0,1,
65772daa307b28b9a9ec187f,TCR,2024-06-24_11h47.51.707,LearnStrategy,2023.2.3,Win32,142.8571429,5,1,1,0.011111111,-0.008333333,1,0,0,0.7432,rock_grid_rect_2,4,11,-1,-1,0.743,0.336111111,-0.268055556,1,0,0,1.7172,Gabbro_rect,4,1.717,1,0,0,0,0,1,,,,,,,,,,,,,
65772daa307b28b9a9ec187f,TCR,2024-06-24_11h47.51.707,LearnStrategy,2023.2.3,Win32,142.8571429,5,1,2,-0.010416667,0,1,0,0,0.9723,rock_grid_rect_2,4,16,-1,-1,0.972,-0.065972222,-0.25625,1,0,0,1.5673,Basalt_rect,2,1.567,0,1,0,1,0,1,,,,,,,,,,,,,
65772daa307b28b9a9ec187f,TCR,2024-06-24_11h47.51.707,LearnStrategy,2023.2.3,Win32,142.8571429,5,1,3,0.036805556,0,1,0,0,0.6037,rock_grid_rect_2,1,09,-1,-1,0.604,-0.369444444,-0.247222222,1,0,0,1.0375,Andesite_rect,1,1.038,1,2,0,2,0,1,,,,,,,,,,,,,
65772daa307b28b9a9ec187f,TCR,2024-06-24_11h47.51.707,LearnStrategy,2023.2.3,Win32,142.8571429,5,1,4,0.004861111,-0.017361111,1,0,0,0.4773,rock_grid_rect_2,7,05,-1,-1,0.477,0.107638889,-0.389583333,1,0,0,1.2685,Peridotite_rect,7,1.268,1,3,0,3,0,1,,,,,,,,,,,,,
65772daa307b28b9a9ec187f,TCR,2024-06-24_11h47.51.707,LearnStrategy,2023.2.3,Win32,142.8571429,5,1,5,0.05625,0.001388889,1,0,0,0.715,rock_grid_rect_2,1,16,-1,-1,0.715,-0.43125,-0.233333333,1,0,0,1.1366,Andesite_rect,1,1.137,1,4,0,4,0,1,,,,,,,,,,,,,
65772daa307b28b9a9ec187f,TCR,2024-06-24_11h47.51.707,LearnStrategy,2023.2.3,Win32,142.8571429,5,1,6,0.025694444,0.010416667,1,0,0,0.423,rock_grid_rect_2,1,09,-1,-1,0.423,-0.352777778,-0.236805556,1,0,0,0.9694,Andesite_rect,1,0.969,1,5,0,5,0,1,,,,,,,,,,,,,
65772daa307b28b9a9ec187f,TCR,2024-06-24_11h47.51.707,LearnStrategy,2023.2.3,Win32,142.8571429,5,1,7,0.05625,0.013888889,1,0,0,0.423,rock_grid_rect_2,2,11,-1,-1,0.423,-0.405555556,-0.267361111,1,0,0,0.9214,Andesite_rect,1,0.921,0,6,0,6,0,1,,,,,,,,,,,,,
65772daa307b28b9a9ec187f,TCR,2024-06-24_11h47.51.707,LearnStrategy,2023.2.3,Win32,142.8571429,5,1,8,0.002777778,0.004861111,1,0,0,0.6246,rock_grid_rect_2,4,12,-1,-1,0.625,0.311805556,-0.234027778,1,0,0,1.0463,Gabbro_rect,4,1.046,1,7,0,7,0,1,,,,,,,,,,,,,
65772daa307b28b9a9ec187f,TCR,2024-06-24_11h47.51.707,LearnStrategy,2023.2.3,Win32,142.8571429,5,1,9,0.04375,0.002777778,1,0,0,0.5829,rock_grid_rect_2,6,11,-1,-1,0.583,-0.085416667,-0.389583333,1,0,0,1.3383,Pegmatite_rect,6,1.338,1,8,0,8,0,1,,,,,,,,,,,,,
65772daa307b28b9a9ec187f,TCR,2024-06-24_11h47.51.707,LearnStrategy,2023.2.3,Win32,142.8571429,5,1,10,0.053472222,0.001388889,1,0,0,0.5342,rock_grid_rect_2,3,15,-1,-1,0.534,0.086111111,-0.263888889,1,0,0,1.1238,Diorite_rect,3,1.124,1,9,0,9,0,1,,,,,,,,,,,,,
65772daa307b28b9a9ec187f,TCR,2024-06-24_11h47.51.707,LearnStrategy,2023.2.3,Win32,142.8571429,5,1,11,0.109027778,0.011805556,1,0,0,0.5202,rock_grid_rect_2,1,09,-1,-1,0.52,-0.395833333,-0.230555556,1,0,0,0.8934,Andesite_rect,1,0.893,1,10,0,10,0,1,,,,,,,,,,,,,
65772daa307b28b9a9ec187f,TCR,2024-06-24_11h47.51.707,LearnStrategy,2023.2.3,Win32,142.8571429,5,1,12,0.061805556,0.007638889,1,0,0,0.5758,rock_grid_rect_2,6,10,-1,-1,0.576,-0.063888889,-0.3875,1,0,0,1.0644,Pegmatite_rect,6,1.064,1,11,0,11,0,1,,,,,,,,,,,,,
65772daa307b28b9a9ec187f,TCR,2024-06-24_11h47.51.707,LearnStrategy,2023.2.3,Win32,142.8571429,5,1,13,0.116666667,-0.010416667,1,0,0,0.4788,rock_grid_rect_2,7,16,-1,-1,0.479,0.109027778,-0.404861111,1,0,0,1.0876,Peridotite_rect,7,1.088,1,12,0,12,0,1,,,,,,,,,,,,,
65772daa307b28b9a9ec187f,TCR,2024-06-24_11h47.51.707,LearnStrategy,2023.2.3,Win32,142.8571429,5,1,14,0.081944444,0.013888889,1,0,0,0.5552,rock_grid_rect_2,5,06,-1,-1,0.555,-0.429166667,-0.383333333,1,0,0,0.8461,Obsidian_rect,5,0.846,1,13,0,13,0,1,,,,,,,,,,,,,
65772daa307b28b9a9ec187f,TCR,2024-06-24_11h47.51.707,LearnStrategy,2023.2.3,Win32,142.8571429,5,1,15,0.005555556,0.006944444,1,0,0,0.6314,rock_grid_rect_2,6,06,-1,-1,0.631,0.325,-0.248611111,1,0,0,1.8921,Gabbro_rect,4,1.892,0,14,0,14,0,1,,,,,,,,,,,,,
65772daa307b28b9a9ec187f,TCR,2024-06-24_11h47.51.707,LearnStrategy,2023.2.3,Win32,142.8571429,5,1,16,0.066666667,0.010416667,1,0,0,0.6873,rock_grid_rect_2,8,13,-1,-1,0.687,0.497222222,-0.241666667,1,0,0,2.7585,Gabbro_rect,4,2.759,0,15,0,15,0,1,,,,,,,,,,,,,
65772daa307b28b9a9ec187f,TCR,2024-06-24_11h47.51.707,LearnStrategy,2023.2.3,Win32,142.8571429,5,2,1,,,,,,,,2,16,,,,,,,,,,,2,2.659,1,,,,,,-0.139583333,-0.238194444,1,0,0,2.6592,Basalt_rect,0,0,0,0,1,
65772daa307b28b9a9ec187f,TCR,2024-06-24_11h47.51.707,LearnStrategy,2023.2.3,Win32,142.8571429,5,2,2,,,,,,,,7,10,,,,,,,,,,,7,1.026,1,,,,,,0.168055556,-0.417361111,1,0,0,1.0261,Peridotite_rect,1,0,1,0,1,
65772daa307b28b9a9ec187f,TCR,2024-06-24_11h47.51.707,LearnStrategy,2023.2.3,Win32,142.8571429,5,2,3,,,,,,,,8,10,,,,,,,,,,,4,2.715,0,,,,,,0.38125,-0.248611111,1,0,0,2.7145,Gabbro_rect,2,0,2,0,1,
65772daa307b28b9a9ec187f,TCR,2024-06-24_11h47.51.707,LearnStrategy,2023.2.3,Win32,142.8571429,5,2,4,,,,,,,,3,09,,,,,,,,,,,3,0.943,1,,,,,,0.228472222,-0.231944444,1,0,0,0.9428,Diorite_rect,3,0,3,0,1,
65772daa307b28b9a9ec187f,TCR,2024-06-24_11h47.51.707,LearnStrategy,2023.2.3,Win32,142.8571429,5,2,5,,,,,,,,4,01,,,,,,,,,,,7,1.456,0,,,,,,0.200694444,-0.388194444,1,0,0,1.4557,Peridotite_rect,4,0,4,0,1,
65772daa307b28b9a9ec187f,TCR,2024-06-24_11h47.51.707,LearnStrategy,2023.2.3,Win32,142.8571429,5,2,6,,,,,,,,6,12,,,,,,,,,,,3,0.997,0,,,,,,0.139583333,-0.259027778,1,0,0,0.9971,Diorite_rect,5,0,5,0,1,
65772daa307b28b9a9ec187f,TCR,2024-06-24_11h47.51.707,LearnStrategy,2023.2.3,Win32,142.8571429,5,2,7,,,,,,,,2,10,,,,,,,,,,,2,4.939,1,,,,,,-0.091666667,-0.247916667,1,0,0,4.939,Basalt_rect,6,0,6,0,1,
65772daa307b28b9a9ec187f,TCR,2024-06-24_11h47.51.707,LearnStrategy,2023.2.3,Win32,142.8571429,5,2,8,,,,,,,,6,16,,,,,,,,,,,7,4.522,0,,,,,,0.154861111,-0.3875,1,0,0,4.5219,Peridotite_rect,7,0,7,0,1,
65772daa307b28b9a9ec187f,TCR,2024-06-24_11h47.51.707,LearnStrategy,2023.2.3,Win32,142.8571429,5,2,9,,,,,,,,1,04,,,,,,,,,,,4,1.776,0,,,,,,0.359027778,-0.260416667,1,0,0,1.7755,Gabbro_rect,8,0,8,0,1,
65772daa307b28b9a9ec187f,TCR,2024-06-24_11h47.51.707,LearnStrategy,2023.2.3,Win32,142.8571429,5,2,10,,,,,,,,5,04,,,,,,,,,,,5,1.046,1,,,,,,-0.408333333,-0.378472222,1,0,0,1.0459,Obsidian_rect,9,0,9,0,1,
65772daa307b28b9a9ec187f,TCR,2024-06-24_11h47.51.707,LearnStrategy,2023.2.3,Win32,142.8571429,5,2,11,,,,,,,,8,02,,,,,,,,,,,8,1.282,1,,,,,,0.4125,-0.383333333,1,0,0,1.2823,Pumice_rect,10,0,10,0,1,
65772daa307b28b9a9ec187f,TCR,2024-06-24_11h47.51.707,LearnStrategy,2023.2.3,Win32,142.8571429,5,2,12,,,,,,,,5,05,,,,,,,,,,,5,1.046,1,,,,,,-0.421527778,-0.420833333,1,0,0,1.0457,Obsidian_rect,11,0,11,0,1,
65772daa307b28b9a9ec187f,TCR,2024-06-24_11h47.51.707,LearnStrategy,2023.2.3,Win32,142.8571429,5,2,13,,,,,,,,4,05,,,,,,,,,,,4,7.608,1,,,,,,0.370833333,-0.239583333,1,0,0,7.6081,Gabbro_rect,12,0,12,0,1,
65772daa307b28b9a9ec187f,TCR,2024-06-24_11h47.51.707,LearnStrategy,2023.2.3,Win32,142.8571429,5,2,14,,,,,,,,3,02,,,,,,,,,,,3,0.754,1,,,,,,0.089583333,-0.265277778,1,0,0,0.7539,Diorite_rect,13,0,13,0,1,
65772daa307b28b9a9ec187f,TCR,2024-06-24_11h47.51.707,LearnStrategy,2023.2.3,Win32,142.8571429,5,2,15,,,,,,,,7,02,,,,,,,,,,,7,1.366,1,,,,,,0.138888889,-0.403472222,1,0,0,1.3658,Peridotite_rect,14,0,14,0,1,
65772daa307b28b9a9ec187f,TCR,2024-06-24_11h47.51.707,LearnStrategy,2023.2.3,Win32,142.8571429,5,2,16,,,,,,,,1,06,,,,,,,,,,,1,1.045,1,,,,,,-0.375,-0.228472222,1,0,0,1.0454,Andesite_rect,15,0,15,0,1,
65772daa307b28b9a9ec187f,TCR,2024-06-24_11h47.51.707,LearnStrategy,2023.2.3,Win32,142.8571429,6,1,1,0.015277778,-0.015972222,1,0,0,0.6526,rock_grid_rect_2,7,14,-1,-1,0.653,0.128472222,-0.394444444,1,0,0,1.2546,Peridotite_rect,7,1.255,1,0,0,0,0,1,,,,,,,,,,,,,
65772daa307b28b9a9ec187f,TCR,2024-06-24_11h47.51.707,LearnStrategy,2023.2.3,Win32,142.8571429,6,1,2,0.027777778,0.005555556,1,0,0,0.6901,rock_grid_rect_2,1,02,-1,-1,0.69,0.043055556,-0.414583333,1,0,0,2.371,Peridotite_rect,7,2.371,0,1,0,1,0,1,,,,,,,,,,,,,
65772daa307b28b9a9ec187f,TCR,2024-06-24_11h47.51.707,LearnStrategy,2023.2.3,Win32,142.8571429,6,1,3,0.025694444,-0.022222222,1,0,0,0.6385,rock_grid_rect_2,1,03,-1,-1,0.639,-0.390972222,-0.229166667,1,0,0,0.921,Andesite_rect,1,0.921,1,2,0,2,0,1,,,,,,,,,,,,,
65772daa307b28b9a9ec187f,TCR,2024-06-24_11h47.51.707,LearnStrategy,2023.2.3,Win32,142.8571429,6,1,4,-0.017361111,-0.019444444,1,0,0,0.4501,rock_grid_rect_2,4,16,-1,-1,0.45,0.327083333,-0.239583333,1,0,0,1.0116,Gabbro_rect,4,1.012,1,3,0,3,0,1,,,,,,,,,,,,,
65772daa307b28b9a9ec187f,TCR,2024-06-24_11h47.51.707,LearnStrategy,2023.2.3,Win32,142.8571429,6,1,5,-0.004166667,0.005555556,1,0,0,0.4093,rock_grid_rect_2,4,10,-1,-1,0.409,-0.120138889,-0.236111111,1,0,0,1.1921,Basalt_rect,2,1.192,0,4,0,4,0,1,,,,,,,,,,,,,
65772daa307b28b9a9ec187f,TCR,2024-06-24_11h47.51.707,LearnStrategy,2023.2.3,Win32,142.8571429,6,1,6,0.054166667,-0.015972222,1,0,0,0.4162,rock_grid_rect_2,1,16,-1,-1,0.416,-0.390277778,-0.25,1,0,0,0.8372,Andesite_rect,1,0.837,1,5,0,5,0,1,,,,,,,,,,,,,
65772daa307b28b9a9ec187f,TCR,2024-06-24_11h47.51.707,LearnStrategy,2023.2.3,Win32,142.8571429,6,1,7,0.001388889,0.000694444,1,0,0,0.4023,rock_grid_rect_2,8,08,-1,-1,0.402,0.354861111,-0.394444444,1,0,0,1.067,Pumice_rect,8,1.067,1,6,0,6,0,1,,,,,,,,,,,,,
65772daa307b28b9a9ec187f,TCR,2024-06-24_11h47.51.707,LearnStrategy,2023.2.3,Win32,142.8571429,6,1,8,-0.017361111,0.022222222,1,0,0,0.3884,rock_grid_rect_2,6,13,-1,-1,0.388,0.085416667,-0.388194444,1,0,0,1.1225,Peridotite_rect,7,1.122,0,7,0,7,0,1,,,,,,,,,,,,,
65772daa307b28b9a9ec187f,TCR,2024-06-24_11h47.51.707,LearnStrategy,2023.2.3,Win32,142.8571429,6,1,9,0.082638889,0.009027778,1,0,0,0.6456,rock_grid_rect_2,6,10,-1,-1,0.646,-0.122222222,-0.38125,1,0,0,0.8728,Pegmatite_rect,6,0.873,1,8,0,8,0,1,,,,,,,,,,,,,
65772daa307b28b9a9ec187f,TCR,2024-06-24_11h47.51.707,LearnStrategy,2023.2.3,Win32,142.8571429,6,1,10,0.133333333,0.016666667,1,0,0,0.3882,rock_grid_rect_2,7,16,-1,-1,0.388,0.04375,-0.403472222,1,0,0,1.3172,Peridotite_rect,7,1.317,1,9,0,9,0,1,,,,,,,,,,,,,
65772daa307b28b9a9ec187f,TCR,2024-06-24_11h47.51.707,LearnStrategy,2023.2.3,Win32,142.8571429,6,1,11,0.024305556,0.011111111,1,0,0,0.4021,rock_grid_rect_2,2,14,-1,-1,0.402,0.352777778,-0.403472222,1,0,0,2.089,Pumice_rect,8,2.089,0,10,0,10,0,1,,,,,,,,,,,,,
65772daa307b28b9a9ec187f,TCR,2024-06-24_11h47.51.707,LearnStrategy,2023.2.3,Win32,142.8571429,6,1,12,0.008333333,-0.014583333,1,0,0,0.5481,rock_grid_rect_2,6,03,-1,-1,0.548,-0.106944444,-0.402083333,1,0,0,1.6648,Pegmatite_rect,6,1.665,1,11,0,11,0,1,,,,,,,,,,,,,
65772daa307b28b9a9ec187f,TCR,2024-06-24_11h47.51.707,LearnStrategy,2023.2.3,Win32,142.8571429,6,1,13,-0.022222222,-0.020833333,1,0,0,0.4788,rock_grid_rect_2,6,11,-1,-1,0.479,0.079166667,-0.418055556,1,0,0,0.7889,Peridotite_rect,7,0.789,0,12,0,12,0,1,,,,,,,,,,,,,
65772daa307b28b9a9ec187f,TCR,2024-06-24_11h47.51.707,LearnStrategy,2023.2.3,Win32,142.8571429,6,1,14,0.021527778,-0.011111111,1,0,0,0.4929,rock_grid_rect_2,3,16,-1,-1,0.493,0.063194444,-0.2375,1,0,0,0.8735,Diorite_rect,3,0.873,1,13,0,13,0,1,,,,,,,,,,,,,
65772daa307b28b9a9ec187f,TCR,2024-06-24_11h47.51.707,LearnStrategy,2023.2.3,Win32,142.8571429,6,1,15,0.036805556,-0.0125,1,0,0,0.6387,rock_grid_rect_2,8,15,-1,-1,0.639,0.33125,-0.399305556,1,0,0,1.4077,Pumice_rect,8,1.408,1,14,0,14,0,1,,,,,,,,,,,,,
65772daa307b28b9a9ec187f,TCR,2024-06-24_11h47.51.707,LearnStrategy,2023.2.3,Win32,142.8571429,6,1,16,-0.006944444,-0.009722222,1,0,0,0.4299,rock_grid_rect_2,4,14,-1,-1,0.43,-0.070138889,-0.234722222,1,0,0,1.9221,Basalt_rect,2,1.922,0,15,0,15,0,1,,,,,,,,,,,,,
65772daa307b28b9a9ec187f,TCR,2024-06-24_11h47.51.707,LearnStrategy,2023.2.3,Win32,142.8571429,6,2,1,,,,,,,,8,04,,,,,,,,,,,8,0.963,1,,,,,,0.318055556,-0.4,1,0,0,0.9626,Pumice_rect,0,0,0,0,1,
65772daa307b28b9a9ec187f,TCR,2024-06-24_11h47.51.707,LearnStrategy,2023.2.3,Win32,142.8571429,6,2,2,,,,,,,,3,11,,,,,,,,,,,3,1.282,1,,,,,,0.106944444,-0.234027778,1,0,0,1.2824,Diorite_rect,1,0,1,0,1,
65772daa307b28b9a9ec187f,TCR,2024-06-24_11h47.51.707,LearnStrategy,2023.2.3,Win32,142.8571429,6,2,3,,,,,,,,4,08,,,,,,,,,,,4,4.758,1,,,,,,0.406944444,-0.244444444,1,0,0,4.7582,Gabbro_rect,2,0,2,0,1,
65772daa307b28b9a9ec187f,TCR,2024-06-24_11h47.51.707,LearnStrategy,2023.2.3,Win32,142.8571429,6,2,4,,,,,,,,1,05,,,,,,,,,,,1,4.063,1,,,,,,-0.381944444,-0.231944444,1,0,0,4.063,Andesite_rect,3,0,3,0,1,
65772daa307b28b9a9ec187f,TCR,2024-06-24_11h47.51.707,LearnStrategy,2023.2.3,Win32,142.8571429,6,2,5,,,,,,,,2,06,,,,,,,,,,,2,3.995,1,,,,,,-0.113888889,-0.268055556,1,0,0,3.9954,Basalt_rect,4,0,4,0,1,
65772daa307b28b9a9ec187f,TCR,2024-06-24_11h47.51.707,LearnStrategy,2023.2.3,Win32,142.8571429,6,2,6,,,,,,,,8,06,,,,,,,,,,,8,0.909,1,,,,,,0.320833333,-0.381944444,1,0,0,0.9086,Pumice_rect,5,0,5,0,1,
65772daa307b28b9a9ec187f,TCR,2024-06-24_11h47.51.707,LearnStrategy,2023.2.3,Win32,142.8571429,6,2,7,,,,,,,,7,06,,,,,,,,,,,7,0.88,1,,,,,,0.143055556,-0.389583333,1,0,0,0.8804,Peridotite_rect,6,0,6,0,1,
65772daa307b28b9a9ec187f,TCR,2024-06-24_11h47.51.707,LearnStrategy,2023.2.3,Win32,142.8571429,6,2,8,,,,,,,,6,09,,,,,,,,,,,6,0.977,1,,,,,,-0.091666667,-0.386805556,1,0,0,0.9766,Pegmatite_rect,7,0,7,0,1,
65772daa307b28b9a9ec187f,TCR,2024-06-24_11h47.51.707,LearnStrategy,2023.2.3,Win32,142.8571429,6,2,9,,,,,,,,4,09,,,,,,,,,,,2,3.764,0,,,,,,-0.131944444,-0.244444444,1,0,0,3.7639,Basalt_rect,8,0,8,0,1,
65772daa307b28b9a9ec187f,TCR,2024-06-24_11h47.51.707,LearnStrategy,2023.2.3,Win32,142.8571429,6,2,10,,,,,,,,6,05,,,,,,,,,,,3,0.872,0,,,,,,0.123611111,-0.229166667,1,0,0,0.8721,Diorite_rect,9,0,9,0,1,
65772daa307b28b9a9ec187f,TCR,2024-06-24_11h47.51.707,LearnStrategy,2023.2.3,Win32,142.8571429,6,2,11,,,,,,,,1,10,,,,,,,,,,,4,2.864,0,,,,,,0.38125,-0.261111111,1,0,0,2.864,Gabbro_rect,10,0,10,0,1,
65772daa307b28b9a9ec187f,TCR,2024-06-24_11h47.51.707,LearnStrategy,2023.2.3,Win32,142.8571429,6,2,12,,,,,,,,7,13,,,,,,,,,,,7,1.277,1,,,,,,0.074305556,-0.390277778,1,0,0,1.2772,Peridotite_rect,11,0,11,0,1,
65772daa307b28b9a9ec187f,TCR,2024-06-24_11h47.51.707,LearnStrategy,2023.2.3,Win32,142.8571429,6,2,13,,,,,,,,5,11,,,,,,,,,,,5,1.025,1,,,,,,-0.408333333,-0.419444444,1,0,0,1.0252,Obsidian_rect,12,0,12,0,1,
65772daa307b28b9a9ec187f,TCR,2024-06-24_11h47.51.707,LearnStrategy,2023.2.3,Win32,142.8571429,6,2,14,,,,,,,,2,02,,,,,,,,,,,1,0.972,0,,,,,,-0.399305556,-0.270138889,1,0,0,0.9717,Andesite_rect,13,0,13,0,1,
65772daa307b28b9a9ec187f,TCR,2024-06-24_11h47.51.707,LearnStrategy,2023.2.3,Win32,142.8571429,6,2,15,,,,,,,,5,08,,,,,,,,,,,5,0.761,1,,,,,,-0.350694444,-0.388888889,1,0,0,0.7609,Obsidian_rect,14,0,14,0,1,
65772daa307b28b9a9ec187f,TCR,2024-06-24_11h47.51.707,LearnStrategy,2023.2.3,Win32,142.8571429,6,2,16,,,,,,,,3,08,,,,,,,,,,,3,0.942,1,,,,,,0.099305556,-0.265972222,1,0,0,0.942,Diorite_rect,15,0,15,0,1,
65772daa307b28b9a9ec187f,TCR,2024-06-24_11h47.51.707,LearnStrategy,2023.2.3,Win32,142.8571429,7,1,1,-0.008333333,-0.003472222,1,0,0,1.0405,rock_grid_rect_2,2,12,-1,-1,1.041,-0.095833333,-0.25625,1,0,0,1.8349,Basalt_rect,2,1.835,1,0,0,0,0,1,,,,,,,,,,,,,
65772daa307b28b9a9ec187f,TCR,2024-06-24_11h47.51.707,LearnStrategy,2023.2.3,Win32,142.8571429,7,1,2,-0.036111111,-0.016666667,1,0,0,0.6629,rock_grid_rect_2,6,13,-1,-1,0.663,0.102777778,-0.3875,1,0,0,1.7238,Peridotite_rect,7,1.724,0,1,0,1,0,1,,,,,,,,,,,,,
65772daa307b28b9a9ec187f,TCR,2024-06-24_11h47.51.707,LearnStrategy,2023.2.3,Win32,142.8571429,7,1,3,-0.002083333,0.013194444,1,0,0,0.5273,rock_grid_rect_2,8,15,-1,-1,0.527,0.31875,-0.414583333,1,0,0,0.9209,Pumice_rect,8,0.921,1,2,0,2,0,1,,,,,,,,,,,,,
65772daa307b28b9a9ec187f,TCR,2024-06-24_11h47.51.707,LearnStrategy,2023.2.3,Win32,142.8571429,7,1,4,0.020833333,0.018055556,1,0,0,0.8124,rock_grid_rect_2,7,08,-1,-1,0.812,0.111111111,-0.405555556,1,0,0,1.3864,Peridotite_rect,7,1.386,1,3,0,3,0,1,,,,,,,,,,,,,
65772daa307b28b9a9ec187f,TCR,2024-06-24_11h47.51.707,LearnStrategy,2023.2.3,Win32,142.8571429,7,1,5,0.038888889,0.009027778,1,0,0,0.4657,rock_grid_rect_2,6,11,-1,-1,0.466,-0.065972222,-0.400694444,1,0,0,1.8028,Pegmatite_rect,6,1.803,1,4,0,4,0,1,,,,,,,,,,,,,
65772daa307b28b9a9ec187f,TCR,2024-06-24_11h47.51.707,LearnStrategy,2023.2.3,Win32,142.8571429,7,1,6,-0.024305556,-0.014583333,1,0,0,0.8403,rock_grid_rect_2,1,16,-1,-1,0.84,-0.351388889,-0.235416667,1,0,0,1.0741,Andesite_rect,1,1.074,1,5,0,5,0,1,,,,,,,,,,,,,
65772daa307b28b9a9ec187f,TCR,2024-06-24_11h47.51.707,LearnStrategy,2023.2.3,Win32,142.8571429,7,1,7,-0.020833333,-0.009722222,1,0,0,0.4996,rock_grid_rect_2,6,10,-1,-1,0.5,-0.065972222,-0.404166667,1,0,0,1.2965,Pegmatite_rect,6,1.297,1,6,0,6,0,1,,,,,,,,,,,,,
65772daa307b28b9a9ec187f,TCR,2024-06-24_11h47.51.707,LearnStrategy,2023.2.3,Win32,142.8571429,7,1,8,0.018055556,-0.011805556,1,0,0,0.5274,rock_grid_rect_2,4,16,-1,-1,0.527,0.349305556,-0.228472222,1,0,0,1.6509,Gabbro_rect,4,1.651,1,7,0,7,0,1,,,,,,,,,,,,,
65772daa307b28b9a9ec187f,TCR,2024-06-24_11h47.51.707,LearnStrategy,2023.2.3,Win32,142.8571429,7,1,9,0.038888889,0.004166667,1,0,0,0.4232,rock_grid_rect_2,5,10,-1,-1,0.423,-0.369444444,-0.405555556,1,0,0,1.5119,Obsidian_rect,5,1.512,1,8,0,8,0,1,,,,,,,,,,,,,
65772daa307b28b9a9ec187f,TCR,2024-06-24_11h47.51.707,LearnStrategy,2023.2.3,Win32,142.8571429,7,1,10,-0.069444444,0,1,0,0,0.6107,rock_grid_rect_2,3,06,-1,-1,0.611,0.106944444,-0.248611111,1,0,0,1.0461,Diorite_rect,3,1.046,1,9,0,9,0,1,,,,,,,,,,,,,
65772daa307b28b9a9ec187f,TCR,2024-06-24_11h47.51.707,LearnStrategy,2023.2.3,Win32,142.8571429,7,1,11,0.079861111,-0.003472222,1,0,0,0.7082,rock_grid_rect_2,4,10,-1,-1,0.708,-0.0625,-0.252083333,1,0,0,0.9977,Basalt_rect,2,0.998,0,10,0,10,0,1,,,,,,,,,,,,,
65772daa307b28b9a9ec187f,TCR,2024-06-24_11h47.51.707,LearnStrategy,2023.2.3,Win32,142.8571429,7,1,12,0.050694444,-0.0125,1,0,0,0.5691,rock_grid_rect_2,1,09,-1,-1,0.569,-0.291666667,-0.236805556,1,0,0,1.1973,Andesite_rect,1,1.197,1,11,0,11,0,1,,,,,,,,,,,,,
65772daa307b28b9a9ec187f,TCR,2024-06-24_11h47.51.707,LearnStrategy,2023.2.3,Win32,142.8571429,7,1,13,0.029861111,-0.013194444,1,0,0,0.6108,rock_grid_rect_2,2,08,-1,-1,0.611,-0.160416667,-0.252777778,1,0,0,1.5326,Basalt_rect,2,1.533,1,12,0,12,0,1,,,,,,,,,,,,,
65772daa307b28b9a9ec187f,TCR,2024-06-24_11h47.51.707,LearnStrategy,2023.2.3,Win32,142.8571429,7,1,14,0.000694444,-0.010416667,1,0,0,0.4439,rock_grid_rect_2,4,16,-1,-1,0.444,0.334722222,-0.250694444,1,0,0,1.1574,Gabbro_rect,4,1.157,1,13,0,13,0,1,,,,,,,,,,,,,
65772daa307b28b9a9ec187f,TCR,2024-06-24_11h47.51.707,LearnStrategy,2023.2.3,Win32,142.8571429,7,1,15,0,0.002083333,1,0,0,0.6941,rock_grid_rect_2,6,10,-1,-1,0.694,-0.054861111,-0.385416667,1,0,0,0.9419,Pegmatite_rect,6,0.942,1,14,0,14,0,1,,,,,,,,,,,,,
65772daa307b28b9a9ec187f,TCR,2024-06-24_11h47.51.707,LearnStrategy,2023.2.3,Win32,142.8571429,7,1,16,0.026388889,-0.006944444,1,0,0,0.437,rock_grid_rect_2,1,03,-1,-1,0.437,-0.463194444,-0.231944444,1,0,0,0.9697,Andesite_rect,1,0.97,1,15,0,15,0,1,,,,,,,,,,,,,
65772daa307b28b9a9ec187f,TCR,2024-06-24_11h47.51.707,LearnStrategy,2023.2.3,Win32,142.8571429,7,2,1,,,,,,,,7,02,,,,,,,,,,,7,2.137,1,,,,,,0.070138889,-0.3875,1,0,0,2.1374,Peridotite_rect,0,0,0,0,1,
65772daa307b28b9a9ec187f,TCR,2024-06-24_11h47.51.707,LearnStrategy,2023.2.3,Win32,142.8571429,7,2,2,,,,,,,,6,05,,,,,,,,,,,3,0.858,0,,,,,,0.125694444,-0.231944444,1,0,0,0.8583,Diorite_rect,1,0,1,0,1,
65772daa307b28b9a9ec187f,TCR,2024-06-24_11h47.51.707,LearnStrategy,2023.2.3,Win32,142.8571429,7,2,3,,,,,,,,3,08,,,,,,,,,,,3,0.745,1,,,,,,0.125694444,-0.231944444,1,0,0,0.7448,Diorite_rect,2,0,2,0,1,
65772daa307b28b9a9ec187f,TCR,2024-06-24_11h47.51.707,LearnStrategy,2023.2.3,Win32,142.8571429,7,2,4,,,,,,,,3,09,,,,,,,,,,,3,0.65,1,,,,,,0.127777778,-0.238194444,1,0,0,0.65,Diorite_rect,3,0,3,0,1,
65772daa307b28b9a9ec187f,TCR,2024-06-24_11h47.51.707,LearnStrategy,2023.2.3,Win32,142.8571429,7,2,5,,,,,,,,1,05,,,,,,,,,,,1,2.693,1,,,,,,-0.413194444,-0.240277778,1,0,0,2.6934,Andesite_rect,4,0,4,0,1,
65772daa307b28b9a9ec187f,TCR,2024-06-24_11h47.51.707,LearnStrategy,2023.2.3,Win32,142.8571429,7,2,6,,,,,,,,5,12,,,,,,,,,,,5,1.421,1,,,,,,-0.327777778,-0.401388889,1,0,0,1.4212,Obsidian_rect,5,0,5,0,1,
65772daa307b28b9a9ec187f,TCR,2024-06-24_11h47.51.707,LearnStrategy,2023.2.3,Win32,142.8571429,7,2,7,,,,,,,,8,06,,,,,,,,,,,8,0.987,1,,,,,,0.4125,-0.420833333,1,0,0,0.9873,Pumice_rect,6,0,6,0,1,
65772daa307b28b9a9ec187f,TCR,2024-06-24_11h47.51.707,LearnStrategy,2023.2.3,Win32,142.8571429,7,2,8,,,,,,,,7,12,,,,,,,,,,,7,3.166,1,,,,,,0.081944444,-0.394444444,1,0,0,3.166,Peridotite_rect,7,0,7,0,1,
65772daa307b28b9a9ec187f,TCR,2024-06-24_11h47.51.707,LearnStrategy,2023.2.3,Win32,142.8571429,7,2,9,,,,,,,,2,06,,,,,,,,,,,2,1.255,1,,,,,,-0.145138889,-0.255555556,1,0,0,1.2545,Basalt_rect,8,0,8,0,1,
65772daa307b28b9a9ec187f,TCR,2024-06-24_11h47.51.707,LearnStrategy,2023.2.3,Win32,142.8571429,7,2,10,,,,,,,,1,06,,,,,,,,,,,1,1.234,1,,,,,,-0.348611111,-0.251388889,1,0,0,1.2336,Andesite_rect,9,0,9,0,1,
65772daa307b28b9a9ec187f,TCR,2024-06-24_11h47.51.707,LearnStrategy,2023.2.3,Win32,142.8571429,7,2,11,,,,,,,,6,16,,,,,,,,,,,4,1.657,0,,,,,,0.404166667,-0.253472222,1,0,0,1.6574,Gabbro_rect,10,0,10,0,1,
65772daa307b28b9a9ec187f,TCR,2024-06-24_11h47.51.707,LearnStrategy,2023.2.3,Win32,142.8571429,7,2,12,,,,,,,,2,05,,,,,,,,,,,2,3.72,1,,,,,,-0.078472222,-0.25,1,0,0,3.7203,Basalt_rect,11,0,11,0,1,
65772daa307b28b9a9ec187f,TCR,2024-06-24_11h47.51.707,LearnStrategy,2023.2.3,Win32,142.8571429,7,2,13,,,,,,,,8,02,,,,,,,,,,,8,0.983,1,,,,,,0.388888889,-0.386805556,1,0,0,0.9833,Pumice_rect,12,0,12,0,1,
65772daa307b28b9a9ec187f,TCR,2024-06-24_11h47.51.707,LearnStrategy,2023.2.3,Win32,142.8571429,7,2,14,,,,,,,,4,03,,,,,,,,,,,4,1.65,1,,,,,,0.336805556,-0.238194444,1,0,0,1.6505,Gabbro_rect,13,0,13,0,1,
65772daa307b28b9a9ec187f,TCR,2024-06-24_11h47.51.707,LearnStrategy,2023.2.3,Win32,142.8571429,7,2,15,,,,,,,,5,05,,,,,,,,,,,5,0.984,1,,,,,,-0.384027778,-0.402083333,1,0,0,0.9838,Obsidian_rect,14,0,14,0,1,
65772daa307b28b9a9ec187f,TCR,2024-06-24_11h47.51.707,LearnStrategy,2023.2.3,Win32,142.8571429,7,2,16,,,,,,,,4,08,,,,,,,,,,,4,2.137,1,,,,,,0.393055556,-0.260416667,1,0,0,2.1372,Gabbro_rect,15,0,15,0,1,
65772daa307b28b9a9ec187f,TCR,2024-06-24_11h47.51.707,LearnStrategy,2023.2.3,Win32,142.8571429,8,1,1,-0.002777778,-0.000694444,1,0,0,0.6392,rock_grid_rect_2,4,10,-1,-1,0.639,0.373611111,-0.263194444,1,0,0,1.5075,Gabbro_rect,4,1.507,1,0,0,0,0,1,,,,,,,,,,,,,
65772daa307b28b9a9ec187f,TCR,2024-06-24_11h47.51.707,LearnStrategy,2023.2.3,Win32,142.8571429,8,1,2,-0.057638889,0.00625,1,0,0,0.5889,rock_grid_rect_2,1,11,-1,-1,0.589,-0.390277778,-0.242361111,1,0,0,0.8651,Andesite_rect,1,0.865,1,1,0,1,0,1,,,,,,,,,,,,,
65772daa307b28b9a9ec187f,TCR,2024-06-24_11h47.51.707,LearnStrategy,2023.2.3,Win32,142.8571429,8,1,3,-0.011111111,0.021527778,1,0,0,0.5343,rock_grid_rect_2,2,14,-1,-1,0.534,0.374305556,-0.384722222,1,0,0,1.3172,Pumice_rect,8,1.317,0,2,0,2,0,1,,,,,,,,,,,,,
65772daa307b28b9a9ec187f,TCR,2024-06-24_11h47.51.707,LearnStrategy,2023.2.3,Win32,142.8571429,8,1,4,-0.015277778,-0.021527778,1,0,0,0.5273,rock_grid_rect_2,1,03,-1,-1,0.527,-0.423611111,-0.233333333,1,0,0,0.9351,Andesite_rect,1,0.935,1,3,0,3,0,1,,,,,,,,,,,,,
65772daa307b28b9a9ec187f,TCR,2024-06-24_11h47.51.707,LearnStrategy,2023.2.3,Win32,142.8571429,8,1,5,-0.023611111,0.002777778,1,0,0,0.9306,rock_grid_rect_2,5,16,-1,-1,0.931,-0.339583333,-0.384027778,1,0,0,0.8932,Obsidian_rect,5,0.893,1,4,0,4,0,1,,,,,,,,,,,,,
65772daa307b28b9a9ec187f,TCR,2024-06-24_11h47.51.707,LearnStrategy,2023.2.3,Win32,142.8571429,8,1,6,-0.024305556,0.002777778,1,0,0,0.6108,rock_grid_rect_2,4,12,-1,-1,0.611,0.454166667,-0.26875,1,0,0,0.8856,Gabbro_rect,4,0.886,1,5,0,5,0,1,,,,,,,,,,,,,
65772daa307b28b9a9ec187f,TCR,2024-06-24_11h47.51.707,LearnStrategy,2023.2.3,Win32,142.8571429,8,1,7,-0.033333333,-0.021527778,1,0,0,0.7151,rock_grid_rect_2,6,13,-1,-1,0.715,0.086805556,-0.393055556,1,0,0,2.2626,Peridotite_rect,7,2.263,0,6,0,6,0,1,,,,,,,,,,,,,
65772daa307b28b9a9ec187f,TCR,2024-06-24_11h47.51.707,LearnStrategy,2023.2.3,Win32,142.8571429,8,1,8,-0.004166667,-0.006944444,1,0,0,0.5551,rock_grid_rect_2,6,03,-1,-1,0.555,0.086805556,-0.419444444,1,0,0,0.7541,Peridotite_rect,7,0.754,0,7,0,7,0,1,,,,,,,,,,,,,
65772daa307b28b9a9ec187f,TCR,2024-06-24_11h47.51.707,LearnStrategy,2023.2.3,Win32,142.8571429,8,1,9,-0.008333333,0.013194444,1,0,0,0.4094,rock_grid_rect_2,6,03,-1,-1,0.409,-0.04375,-0.386111111,1,0,0,0.7647,Pegmatite_rect,6,0.765,1,8,0,8,0,1,,,,,,,,,,,,,
65772daa307b28b9a9ec187f,TCR,2024-06-24_11h47.51.707,LearnStrategy,2023.2.3,Win32,142.8571429,8,1,10,-0.013888889,0.002083333,1,0,0,0.4301,rock_grid_rect_2,3,07,-1,-1,0.43,0.072222222,-0.240277778,1,0,0,0.7404,Diorite_rect,3,0.74,1,9,0,9,0,1,,,,,,,,,,,,,
65772daa307b28b9a9ec187f,TCR,2024-06-24_11h47.51.707,LearnStrategy,2023.2.3,Win32,142.8571429,8,1,11,0.061111111,-0.006944444,1,0,0,0.5485,rock_grid_rect_2,4,13,-1,-1,0.549,0.4,-0.256944444,1,0,0,1.3249,Gabbro_rect,4,1.325,1,10,0,10,0,1,,,,,,,,,,,,,
65772daa307b28b9a9ec187f,TCR,2024-06-24_11h47.51.707,LearnStrategy,2023.2.3,Win32,142.8571429,8,1,12,-0.017361111,0.005555556,1,0,0,0.8681,rock_grid_rect_2,7,07,-1,-1,0.868,0.066666667,-0.400694444,1,0,0,1.9795,Peridotite_rect,7,1.979,1,11,0,11,0,1,,,,,,,,,,,,,
65772daa307b28b9a9ec187f,TCR,2024-06-24_11h47.51.707,LearnStrategy,2023.2.3,Win32,142.8571429,8,1,13,-0.047916667,-0.009027778,1,0,0,0.4996,rock_grid_rect_2,6,08,-1,-1,0.5,-0.061805556,-0.406944444,1,0,0,0.9049,Pegmatite_rect,6,0.905,1,12,0,12,0,1,,,,,,,,,,,,,
65772daa307b28b9a9ec187f,TCR,2024-06-24_11h47.51.707,LearnStrategy,2023.2.3,Win32,142.8571429,8,1,14,0.0375,-0.002777778,1,0,0,0.454,rock_grid_rect_2,6,13,-1,-1,0.454,-0.080555556,-0.421527778,1,0,0,0.8289,Pegmatite_rect,6,0.829,1,13,0,13,0,1,,,,,,,,,,,,,
65772daa307b28b9a9ec187f,TCR,2024-06-24_11h47.51.707,LearnStrategy,2023.2.3,Win32,142.8571429,8,1,15,0.017361111,-0.021527778,1,0,0,0.4718,rock_grid_rect_2,8,13,-1,-1,0.472,0.38125,-0.40625,1,0,0,2.2139,Pumice_rect,8,2.214,1,14,0,14,0,1,,,,,,,,,,,,,
65772daa307b28b9a9ec187f,TCR,2024-06-24_11h47.51.707,LearnStrategy,2023.2.3,Win32,142.8571429,8,1,16,0.025694444,-0.002777778,1,0,0,0.6943,rock_grid_rect_2,1,16,-1,-1,0.694,-0.408333333,-0.254861111,1,0,0,0.8023,Andesite_rect,1,0.802,1,15,0,15,0,1,,,,,,,,,,,,,
65772daa307b28b9a9ec187f,TCR,2024-06-24_11h47.51.707,LearnStrategy,2023.2.3,Win32,142.8571429,8,2,1,,,,,,,,2,10,,,,,,,,,,,2,23.041,1,,,,,,-0.120138889,-0.248611111,1,0,0,23.0407,Basalt_rect,0,0,0,0,1,
65772daa307b28b9a9ec187f,TCR,2024-06-24_11h47.51.707,LearnStrategy,2023.2.3,Win32,142.8571429,8,2,2,,,,,,,,7,06,,,,,,,,,,,6,6.287,0,,,,,,-0.095138889,-0.392361111,1,0,0,6.2875,Pegmatite_rect,1,0,1,0,1,
65772daa307b28b9a9ec187f,TCR,2024-06-24_11h47.51.707,LearnStrategy,2023.2.3,Win32,142.8571429,8,2,3,,,,,,,,1,10,,,,,,,,,,,4,3.305,0,,,,,,0.33125,-0.246527778,1,0,0,3.3052,Gabbro_rect,2,0,2,0,1,
65772daa307b28b9a9ec187f,TCR,2024-06-24_11h47.51.707,LearnStrategy,2023.2.3,Win32,142.8571429,8,2,4,,,,,,,,1,04,,,,,,,,,,,4,0.747,0,,,,,,0.325694444,-0.245138889,1,0,0,0.7473,Gabbro_rect,3,0,3,0,1,
65772daa307b28b9a9ec187f,TCR,2024-06-24_11h47.51.707,LearnStrategy,2023.2.3,Win32,142.8571429,8,2,5,,,,,,,,6,09,,,,,,,,,,,7,0.976,0,,,,,,0.069444444,-0.413888889,1,0,0,0.9761,Peridotite_rect,4,0,4,0,1,
65772daa307b28b9a9ec187f,TCR,2024-06-24_11h47.51.707,LearnStrategy,2023.2.3,Win32,142.8571429,8,2,6,,,,,,,,4,09,,,,,,,,,,,2,3.729,0,,,,,,-0.083333333,-0.245833333,1,0,0,3.7295,Basalt_rect,5,0,5,0,1,
65772daa307b28b9a9ec187f,TCR,2024-06-24_11h47.51.707,LearnStrategy,2023.2.3,Win32,142.8571429,8,2,7,,,,,,,,8,03,,,,,,,,,,,8,1.365,1,,,,,,0.345833333,-0.390972222,1,0,0,1.3652,Pumice_rect,6,0,6,0,1,
65772daa307b28b9a9ec187f,TCR,2024-06-24_11h47.51.707,LearnStrategy,2023.2.3,Win32,142.8571429,8,2,8,,,,,,,,5,11,,,,,,,,,,,5,1.421,1,,,,,,-0.377083333,-0.395833333,1,0,0,1.4212,Obsidian_rect,7,0,7,0,1,
65772daa307b28b9a9ec187f,TCR,2024-06-24_11h47.51.707,LearnStrategy,2023.2.3,Win32,142.8571429,8,2,9,,,,,,,,7,15,,,,,,,,,,,7,2.721,1,,,,,,0.092361111,-0.402777778,1,0,0,2.7213,Peridotite_rect,8,0,8,0,1,
65772daa307b28b9a9ec187f,TCR,2024-06-24_11h47.51.707,LearnStrategy,2023.2.3,Win32,142.8571429,8,2,10,,,,,,,,6,12,,,,,,,,,,,3,1.376,0,,,,,,0.136111111,-0.251388889,1,0,0,1.376,Diorite_rect,9,0,9,0,1,
65772daa307b28b9a9ec187f,TCR,2024-06-24_11h47.51.707,LearnStrategy,2023.2.3,Win32,142.8571429,8,2,11,,,,,,,,4,15,,,,,,,,,,,4,0.837,1,,,,,,0.418055556,-0.254166667,1,0,0,0.8371,Gabbro_rect,10,0,10,0,1,
65772daa307b28b9a9ec187f,TCR,2024-06-24_11h47.51.707,LearnStrategy,2023.2.3,Win32,142.8571429,8,2,12,,,,,,,,5,04,,,,,,,,,,,5,1.227,1,,,,,,-0.438194444,-0.389583333,1,0,0,1.2267,Obsidian_rect,11,0,11,0,1,
65772daa307b28b9a9ec187f,TCR,2024-06-24_11h47.51.707,LearnStrategy,2023.2.3,Win32,142.8571429,8,2,13,,,,,,,,2,04,,,,,,,,,,,2,1.199,1,,,,,,-0.174305556,-0.233333333,1,0,0,1.1987,Basalt_rect,12,0,12,0,1,
65772daa307b28b9a9ec187f,TCR,2024-06-24_11h47.51.707,LearnStrategy,2023.2.3,Win32,142.8571429,8,2,14,,,,,,,,8,10,,,,,,,,,,,8,2.554,1,,,,,,0.372222222,-0.39375,1,0,0,2.5545,Pumice_rect,13,0,13,0,1,
65772daa307b28b9a9ec187f,TCR,2024-06-24_11h47.51.707,LearnStrategy,2023.2.3,Win32,142.8571429,8,2,15,,,,,,,,3,11,,,,,,,,,,,3,0.837,1,,,,,,0.127083333,-0.260416667,1,0,0,0.8374,Diorite_rect,14,0,14,0,1,
65772daa307b28b9a9ec187f,TCR,2024-06-24_11h47.51.707,LearnStrategy,2023.2.3,Win32,142.8571429,8,2,16,,,,,,,,3,10,,,,,,,,,,,3,1.845,1,,,,,,0.161805556,-0.2375,1,0,0,1.8455,Diorite_rect,15,0,15,0,1,
65772daa307b28b9a9ec187f,TCR,2024-06-24_11h47.51.707,LearnStrategy,2023.2.3,Win32,142.8571429,9,1,1,-0.120833333,0.011111111,1,0,0,0.6909,rock_grid_rect_2,4,10,-1,-1,0.691,0.346527778,-0.2375,1,0,0,2.8641,Gabbro_rect,4,2.864,1,0,0,0,0,1,,,,,,,,,,,,,
65772daa307b28b9a9ec187f,TCR,2024-06-24_11h47.51.707,LearnStrategy,2023.2.3,Win32,142.8571429,9,1,2,0.100694444,-0.014583333,1,0,0,0.8679,rock_grid_rect_2,6,08,-1,-1,0.868,-0.119444444,-0.388194444,1,0,0,2.5616,Pegmatite_rect,6,2.562,1,1,0,1,0,1,,,,,,,,,,,,,
65772daa307b28b9a9ec187f,TCR,2024-06-24_11h47.51.707,LearnStrategy,2023.2.3,Win32,142.8571429,9,1,3,0.118055556,-0.017361111,1,0,0,0.4441,rock_grid_rect_2,6,13,-1,-1,0.444,-0.095833333,-0.417361111,1,0,0,0.8932,Pegmatite_rect,6,0.893,1,2,0,2,0,1,,,,,,,,,,,,,
65772daa307b28b9a9ec187f,TCR,2024-06-24_11h47.51.707,LearnStrategy,2023.2.3,Win32,142.8571429,9,1,4,0.077777778,0.013194444,1,0,0,0.3883,rock_grid_rect_2,4,16,-1,-1,0.388,0.324305556,-0.250694444,1,0,0,0.8443,Gabbro_rect,4,0.844,1,3,0,3,0,1,,,,,,,,,,,,,
65772daa307b28b9a9ec187f,TCR,2024-06-24_11h47.51.707,LearnStrategy,2023.2.3,Win32,142.8571429,9,1,5,0.069444444,-0.011805556,1,0,0,0.6317,rock_grid_rect_2,6,11,-1,-1,0.632,-0.049305556,-0.410416667,1,0,0,1.3723,Pegmatite_rect,6,1.372,1,4,0,4,0,1,,,,,,,,,,,,,
65772daa307b28b9a9ec187f,TCR,2024-06-24_11h47.51.707,LearnStrategy,2023.2.3,Win32,142.8571429,9,1,6,0.106944444,-0.024305556,1,0,0,0.4023,rock_grid_rect_2,1,02,-1,-1,0.402,0.10625,-0.397916667,1,0,0,1.4994,Peridotite_rect,7,1.499,0,5,0,5,0,1,,,,,,,,,,,,,
65772daa307b28b9a9ec187f,TCR,2024-06-24_11h47.51.707,LearnStrategy,2023.2.3,Win32,142.8571429,9,1,7,0.077777778,0.011111111,1,0,0,0.4856,rock_grid_rect_2,2,09,-1,-1,0.486,-0.397916667,-0.245138889,1,0,0,1.1088,Andesite_rect,1,1.109,0,6,0,6,0,1,,,,,,,,,,,,,
65772daa307b28b9a9ec187f,TCR,2024-06-24_11h47.51.707,LearnStrategy,2023.2.3,Win32,142.8571429,9,1,8,-0.000694444,0.023611111,1,0,0,0.3818,rock_grid_rect_2,1,16,-1,-1,0.382,-0.345833333,-0.26875,1,0,0,0.8961,Andesite_rect,1,0.896,1,7,0,7,0,1,,,,,,,,,,,,,
65772daa307b28b9a9ec187f,TCR,2024-06-24_11h47.51.707,LearnStrategy,2023.2.3,Win32,142.8571429,9,1,9,0.011111111,-0.022916667,1,0,0,0.4656,rock_grid_rect_2,6,13,-1,-1,0.466,-0.075,-0.411805556,1,0,0,2.1093,Pegmatite_rect,6,2.109,1,8,0,8,0,1,,,,,,,,,,,,,
65772daa307b28b9a9ec187f,TCR,2024-06-24_11h47.51.707,LearnStrategy,2023.2.3,Win32,142.8571429,9,1,10,-0.023611111,0.002777778,1,0,0,0.611,rock_grid_rect_2,3,06,-1,-1,0.611,0.102777778,-0.259027778,1,0,0,0.9014,Diorite_rect,3,0.901,1,9,0,9,0,1,,,,,,,,,,,,,
65772daa307b28b9a9ec187f,TCR,2024-06-24_11h47.51.707,LearnStrategy,2023.2.3,Win32,142.8571429,9,1,11,0.035416667,0.0125,1,0,0,0.5065,rock_grid_rect_2,6,13,-1,-1,0.506,-0.115972222,-0.415972222,1,0,0,0.8723,Pegmatite_rect,6,0.872,1,10,0,10,0,1,,,,,,,,,,,,,
65772daa307b28b9a9ec187f,TCR,2024-06-24_11h47.51.707,LearnStrategy,2023.2.3,Win32,142.8571429,9,1,12,0.096527778,0.021527778,1,0,0,0.3744,rock_grid_rect_2,1,11,-1,-1,0.374,-0.470833333,-0.244444444,1,0,0,0.8589,Andesite_rect,1,0.859,1,11,0,11,0,1,,,,,,,,,,,,,
65772daa307b28b9a9ec187f,TCR,2024-06-24_11h47.51.707,LearnStrategy,2023.2.3,Win32,142.8571429,9,1,13,0.002083333,0.011805556,1,0,0,0.4093,rock_grid_rect_2,7,04,-1,-1,0.409,0.145833333,-0.397916667,1,0,0,0.8538,Peridotite_rect,7,0.854,1,12,0,12,0,1,,,,,,,,,,,,,
65772daa307b28b9a9ec187f,TCR,2024-06-24_11h47.51.707,LearnStrategy,2023.2.3,Win32,142.8571429,9,1,14,0.1125,0.016666667,1,0,0,0.3884,rock_grid_rect_2,4,10,-1,-1,0.388,-0.129166667,-0.25,1,0,0,0.8321,Basalt_rect,2,0.832,0,13,0,13,0,1,,,,,,,,,,,,,
65772daa307b28b9a9ec187f,TCR,2024-06-24_11h47.51.707,LearnStrategy,2023.2.3,Win32,142.8571429,9,1,15,0.079861111,0.001388889,1,0,0,0.5482,rock_grid_rect_2,8,09,-1,-1,0.548,0.424305556,-0.420833333,1,0,0,0.9001,Pumice_rect,8,0.9,1,14,0,14,0,1,,,,,,,,,,,,,
65772daa307b28b9a9ec187f,TCR,2024-06-24_11h47.51.707,LearnStrategy,2023.2.3,Win32,142.8571429,9,1,16,0.034027778,0.006944444,1,0,0,0.5204,rock_grid_rect_2,7,16,-1,-1,0.52,-0.055555556,-0.232638889,1,0,0,1.9567,Basalt_rect,2,1.957,0,15,0,15,0,1,,,,,,,,,,,,,
65772daa307b28b9a9ec187f,TCR,2024-06-24_11h47.51.707,LearnStrategy,2023.2.3,Win32,142.8571429,9,2,1,,,,,,,,7,13,,,,,,,,,,,7,2.603,1,,,,,,0.069444444,-0.409027778,1,0,0,2.6032,Peridotite_rect,0,0,0,0,1,
65772daa307b28b9a9ec187f,TCR,2024-06-24_11h47.51.707,LearnStrategy,2023.2.3,Win32,142.8571429,9,2,2,,,,,,,,4,05,,,,,,,,,,,4,1.345,1,,,,,,0.334722222,-0.244444444,1,0,0,1.3449,Gabbro_rect,1,0,1,0,1,
65772daa307b28b9a9ec187f,TCR,2024-06-24_11h47.51.707,LearnStrategy,2023.2.3,Win32,142.8571429,9,2,3,,,,,,,,7,10,,,,,,,,,,,7,1.525,1,,,,,,0.135416667,-0.394444444,1,0,0,1.5254,Peridotite_rect,2,0,2,0,1,
65772daa307b28b9a9ec187f,TCR,2024-06-24_11h47.51.707,LearnStrategy,2023.2.3,Win32,142.8571429,9,2,4,,,,,,,,3,12,,,,,,,,,,,3,1.053,1,,,,,,0.09375,-0.263888889,1,0,0,1.0528,Diorite_rect,3,0,3,0,1,
65772daa307b28b9a9ec187f,TCR,2024-06-24_11h47.51.707,LearnStrategy,2023.2.3,Win32,142.8571429,9,2,5,,,,,,,,3,02,,,,,,,,,,,3,0.733,1,,,,,,0.09375,-0.263888889,1,0,0,0.733,Diorite_rect,4,0,4,0,1,
65772daa307b28b9a9ec187f,TCR,2024-06-24_11h47.51.707,LearnStrategy,2023.2.3,Win32,142.8571429,9,2,6,,,,,,,,4,01,,,,,,,,,,,7,1.026,0,,,,,,0.122222222,-0.379166667,1,0,0,1.0259,Peridotite_rect,5,0,5,0,1,
65772daa307b28b9a9ec187f,TCR,2024-06-24_11h47.51.707,LearnStrategy,2023.2.3,Win32,142.8571429,9,2,7,,,,,,,,8,14,,,,,,,,,,,8,1.484,1,,,,,,0.334027778,-0.3875,1,0,0,1.4839,Pumice_rect,6,0,6,0,1,
65772daa307b28b9a9ec187f,TCR,2024-06-24_11h47.51.707,LearnStrategy,2023.2.3,Win32,142.8571429,9,2,8,,,,,,,,8,04,,,,,,,,,,,8,0.58,1,,,,,,0.334027778,-0.388194444,1,0,0,0.5802,Pumice_rect,7,0,7,0,1,
65772daa307b28b9a9ec187f,TCR,2024-06-24_11h47.51.707,LearnStrategy,2023.2.3,Win32,142.8571429,9,2,9,,,,,,,,6,07,,,,,,,,,,,6,2.145,1,,,,,,-0.083333333,-0.388888889,1,0,0,2.145,Pegmatite_rect,8,0,8,0,1,
65772daa307b28b9a9ec187f,TCR,2024-06-24_11h47.51.707,LearnStrategy,2023.2.3,Win32,142.8571429,9,2,10,,,,,,,,1,07,,,,,,,,,,,1,7.782,1,,,,,,-0.340972222,-0.2375,1,0,0,7.7822,Andesite_rect,9,0,9,0,1,
65772daa307b28b9a9ec187f,TCR,2024-06-24_11h47.51.707,LearnStrategy,2023.2.3,Win32,142.8571429,9,2,11,,,,,,,,2,16,,,,,,,,,,,4,2.137,0,,,,,,0.367361111,-0.232638889,1,0,0,2.1373,Gabbro_rect,10,0,10,0,1,
65772daa307b28b9a9ec187f,TCR,2024-06-24_11h47.51.707,LearnStrategy,2023.2.3,Win32,142.8571429,9,2,12,,,,,,,,5,08,,,,,,,,,,,5,1.112,1,,,,,,-0.344444444,-0.395833333,1,0,0,1.1118,Obsidian_rect,11,0,11,0,1,
65772daa307b28b9a9ec187f,TCR,2024-06-24_11h47.51.707,LearnStrategy,2023.2.3,Win32,142.8571429,9,2,13,,,,,,,,5,09,,,,,,,,,,,5,0.425,1,,,,,,-0.34375,-0.396527778,1,0,0,0.4254,Obsidian_rect,12,0,12,0,1,
65772daa307b28b9a9ec187f,TCR,2024-06-24_11h47.51.707,LearnStrategy,2023.2.3,Win32,142.8571429,9,2,14,,,,,,,,1,01,,,,,,,,,,,2,2.874,0,,,,,,-0.077777778,-0.241666667,1,0,0,2.8742,Basalt_rect,13,0,13,0,1,
65772daa307b28b9a9ec187f,TCR,2024-06-24_11h47.51.707,LearnStrategy,2023.2.3,Win32,142.8571429,9,2,15,,,,,,,,6,15,,,,,,,,,,,6,1.185,1,,,,,,-0.110416667,-0.393055556,1,0,0,1.1851,Pegmatite_rect,14,0,14,0,1,
65772daa307b28b9a9ec187f,TCR,2024-06-24_11h47.51.707,LearnStrategy,2023.2.3,Win32,142.8571429,9,2,16,,,,,,,,2,02,,,,,,,,,,,2,2.937,1,,,,,,-0.120833333,-0.2625,1,0,0,2.9369,Basalt_rect,15,0,15,0,1,
65772daa307b28b9a9ec187f,TCR,2024-06-24_11h47.51.707,LearnStrategy,2023.2.3,Win32,142.8571429,,,,,,,,,,,,,,,,,,,,,,,,,,,,,,,,,,,,,,,,,,,1
65772daa307b28b9a9ec187f,TCR,2024-06-24_11h47.51.707,LearnStrategy,2023.2.3,Win32,142.8571429,,,,,,,,,,,,,,,,,,,,,,,,,,,,,,,,,,,,,,,,,,,
65772daa307b28b9a9ec187f,TCR,2024-06-24_11h47.51.707,LearnStrategy,2023.2.3,Win32,142.8571429,,,,,,,,,,,6,06,1,1,,,,,,,,,,,,,,,,,,,,,,,,,,,,,
65772daa307b28b9a9ec187f,TCR,2024-06-24_11h47.51.707,LearnStrategy,2023.2.3,Win32,142.8571429,,,,,,,,,,,4,13,1,2,,,,,,,,,,,,,,,,,,,,,,,,,,,,,
65772daa307b28b9a9ec187f,TCR,2024-06-24_11h47.51.707,LearnStrategy,2023.2.3,Win32,142.8571429,,,,,,,,,,,5,10,1,3,,,,,,,,,,,,,,,,,,,,,,,,,,,,,
65772daa307b28b9a9ec187f,TCR,2024-06-24_11h47.51.707,LearnStrategy,2023.2.3,Win32,142.8571429,,,,,,,,,,,4,12,1,4,,,,,,,,,,,,,,,,,,,,,,,,,,,,,
65772daa307b28b9a9ec187f,TCR,2024-06-24_11h47.51.707,LearnStrategy,2023.2.3,Win32,142.8571429,,,,,,,,,,,4,14,1,5,,,,,,,,,,,,,,,,,,,,,,,,,,,,,
65772daa307b28b9a9ec187f,TCR,2024-06-24_11h47.51.707,LearnStrategy,2023.2.3,Win32,142.8571429,,,,,,,,,,,7,16,1,6,,,,,,,,,,,,,,,,,,,,,,,,,,,,,
65772daa307b28b9a9ec187f,TCR,2024-06-24_11h47.51.707,LearnStrategy,2023.2.3,Win32,142.8571429,,,,,,,,,,,1,16,1,7,,,,,,,,,,,,,,,,,,,,,,,,,,,,,
65772daa307b28b9a9ec187f,TCR,2024-06-24_11h47.51.707,LearnStrategy,2023.2.3,Win32,142.8571429,,,,,,,,,,,6,10,1,8,,,,,,,,,,,,,,,,,,,,,,,,,,,,,
65772daa307b28b9a9ec187f,TCR,2024-06-24_11h47.51.707,LearnStrategy,2023.2.3,Win32,142.8571429,,,,,,,,,,,8,15,2,1,,,,,,,,,,,,,,,,,,,,,,,,,,,,,
65772daa307b28b9a9ec187f,TCR,2024-06-24_11h47.51.707,LearnStrategy,2023.2.3,Win32,142.8571429,,,,,,,,,,,1,11,2,2,,,,,,,,,,,,,,,,,,,,,,,,,,,,,
65772daa307b28b9a9ec187f,TCR,2024-06-24_11h47.51.707,LearnStrategy,2023.2.3,Win32,142.8571429,,,,,,,,,,,2,09,2,3,,,,,,,,,,,,,,,,,,,,,,,,,,,,,
65772daa307b28b9a9ec187f,TCR,2024-06-24_11h47.51.707,LearnStrategy,2023.2.3,Win32,142.8571429,,,,,,,,,,,2,14,2,4,,,,,,,,,,,,,,,,,,,,,,,,,,,,,
65772daa307b28b9a9ec187f,TCR,2024-06-24_11h47.51.707,LearnStrategy,2023.2.3,Win32,142.8571429,,,,,,,,,,,7,14,2,5,,,,,,,,,,,,,,,,,,,,,,,,,,,,,
65772daa307b28b9a9ec187f,TCR,2024-06-24_11h47.51.707,LearnStrategy,2023.2.3,Win32,142.8571429,,,,,,,,,,,3,07,2,6,,,,,,,,,,,,,,,,,,,,,,,,,,,,,
65772daa307b28b9a9ec187f,TCR,2024-06-24_11h47.51.707,LearnStrategy,2023.2.3,Win32,142.8571429,,,,,,,,,,,5,14,2,7,,,,,,,,,,,,,,,,,,,,,,,,,,,,,
65772daa307b28b9a9ec187f,TCR,2024-06-24_11h47.51.707,LearnStrategy,2023.2.3,Win32,142.8571429,,,,,,,,,,,2,12,2,8,,,,,,,,,,,,,,,,,,,,,,,,,,,,,
65772daa307b28b9a9ec187f,TCR,2024-06-24_11h47.51.707,LearnStrategy,2023.2.3,Win32,142.8571429,,,,,,,,,,,6,13,3,1,,,,,,,,,,,,,,,,,,,,,,,,,,,,,
65772daa307b28b9a9ec187f,TCR,2024-06-24_11h47.51.707,LearnStrategy,2023.2.3,Win32,142.8571429,,,,,,,,,,,3,15,3,2,,,,,,,,,,,,,,,,,,,,,,,,,,,,,
65772daa307b28b9a9ec187f,TCR,2024-06-24_11h47.51.707,LearnStrategy,2023.2.3,Win32,142.8571429,,,,,,,,,,,3,13,3,3,,,,,,,,,,,,,,,,,,,,,,,,,,,,,
65772daa307b28b9a9ec187f,TCR,2024-06-24_11h47.51.707,LearnStrategy,2023.2.3,Win32,142.8571429,,,,,,,,,,,8,13,3,4,,,,,,,,,,,,,,,,,,,,,,,,,,,,,
65772daa307b28b9a9ec187f,TCR,2024-06-24_11h47.51.707,LearnStrategy,2023.2.3,Win32,142.8571429,,,,,,,,,,,2,11,3,5,,,,,,,,,,,,,,,,,,,,,,,,,,,,,
65772daa307b28b9a9ec187f,TCR,2024-06-24_11h47.51.707,LearnStrategy,2023.2.3,Win32,142.8571429,,,,,,,,,,,3,14,3,6,,,,,,,,,,,,,,,,,,,,,,,,,,,,,
65772daa307b28b9a9ec187f,TCR,2024-06-24_11h47.51.707,LearnStrategy,2023.2.3,Win32,142.8571429,,,,,,,,,,,2,01,3,7,,,,,,,,,,,,,,,,,,,,,,,,,,,,,
65772daa307b28b9a9ec187f,TCR,2024-06-24_11h47.51.707,LearnStrategy,2023.2.3,Win32,142.8571429,,,,,,,,,,,5,16,3,8,,,,,,,,,,,,,,,,,,,,,,,,,,,,,
65772daa307b28b9a9ec187f,TCR,2024-06-24_11h47.51.707,LearnStrategy,2023.2.3,Win32,142.8571429,,,,,,,,,,,1,09,4,1,,,,,,,,,,,,,,,,,,,,,,,,,,,,,
65772daa307b28b9a9ec187f,TCR,2024-06-24_11h47.51.707,LearnStrategy,2023.2.3,Win32,142.8571429,,,,,,,,,,,3,06,4,2,,,,,,,,,,,,,,,,,,,,,,,,,,,,,
65772daa307b28b9a9ec187f,TCR,2024-06-24_11h47.51.707,LearnStrategy,2023.2.3,Win32,142.8571429,,,,,,,,,,,8,08,4,3,,,,,,,,,,,,,,,,,,,,,,,,,,,,,
65772daa307b28b9a9ec187f,TCR,2024-06-24_11h47.51.707,LearnStrategy,2023.2.3,Win32,142.8571429,,,,,,,,,,,1,14,4,4,,,,,,,,,,,,,,,,,,,,,,,,,,,,,
65772daa307b28b9a9ec187f,TCR,2024-06-24_11h47.51.707,LearnStrategy,2023.2.3,Win32,142.8571429,,,,,,,,,,,6,11,4,5,,,,,,,,,,,,,,,,,,,,,,,,,,,,,
65772daa307b28b9a9ec187f,TCR,2024-06-24_11h47.51.707,LearnStrategy,2023.2.3,Win32,142.8571429,,,,,,,,,,,8,16,4,6,,,,,,,,,,,,,,,,,,,,,,,,,,,,,
65772daa307b28b9a9ec187f,TCR,2024-06-24_11h47.51.707,LearnStrategy,2023.2.3,Win32,142.8571429,,,,,,,,,,,7,08,4,7,,,,,,,,,,,,,,,,,,,,,,,,,,,,,
65772daa307b28b9a9ec187f,TCR,2024-06-24_11h47.51.707,LearnStrategy,2023.2.3,Win32,142.8571429,,,,,,,,,,,8,05,4,8,,,,,,,,,,,,,,,,,,,,,,,,,,,,,
65772daa307b28b9a9ec187f,TCR,2024-06-24_11h47.51.707,LearnStrategy,2023.2.3,Win32,142.8571429,,,,,,,,,,,5,02,5,1,,,,,,,,,,,,,,,,,,,,,,,,,,,,,
65772daa307b28b9a9ec187f,TCR,2024-06-24_11h47.51.707,LearnStrategy,2023.2.3,Win32,142.8571429,,,,,,,,,,,1,03,5,2,,,,,,,,,,,,,,,,,,,,,,,,,,,,,
65772daa307b28b9a9ec187f,TCR,2024-06-24_11h47.51.707,LearnStrategy,2023.2.3,Win32,142.8571429,,,,,,,,,,,6,03,5,3,,,,,,,,,,,,,,,,,,,,,,,,,,,,,
65772daa307b28b9a9ec187f,TCR,2024-06-24_11h47.51.707,LearnStrategy,2023.2.3,Win32,142.8571429,,,,,,,,,,,2,08,5,4,,,,,,,,,,,,,,,,,,,,,,,,,,,,,
65772daa307b28b9a9ec187f,TCR,2024-06-24_11h47.51.707,LearnStrategy,2023.2.3,Win32,142.8571429,,,,,,,,,,,7,04,5,5,,,,,,,,,,,,,,,,,,,,,,,,,,,,,
65772daa307b28b9a9ec187f,TCR,2024-06-24_11h47.51.707,LearnStrategy,2023.2.3,Win32,142.8571429,,,,,,,,,,,8,09,5,6,,,,,,,,,,,,,,,,,,,,,,,,,,,,,
65772daa307b28b9a9ec187f,TCR,2024-06-24_11h47.51.707,LearnStrategy,2023.2.3,Win32,142.8571429,,,,,,,,,,,7,05,5,7,,,,,,,,,,,,,,,,,,,,,,,,,,,,,
65772daa307b28b9a9ec187f,TCR,2024-06-24_11h47.51.707,LearnStrategy,2023.2.3,Win32,142.8571429,,,,,,,,,,,4,16,5,8,,,,,,,,,,,,,,,,,,,,,,,,,,,,,
65772daa307b28b9a9ec187f,TCR,2024-06-24_11h47.51.707,LearnStrategy,2023.2.3,Win32,142.8571429,,,,,,,,,,,7,07,6,1,,,,,,,,,,,,,,,,,,,,,,,,,,,,,
65772daa307b28b9a9ec187f,TCR,2024-06-24_11h47.51.707,LearnStrategy,2023.2.3,Win32,142.8571429,,,,,,,,,,,3,16,6,2,,,,,,,,,,,,,,,,,,,,,,,,,,,,,
65772daa307b28b9a9ec187f,TCR,2024-06-24_11h47.51.707,LearnStrategy,2023.2.3,Win32,142.8571429,,,,,,,,,,,4,11,6,3,,,,,,,,,,,,,,,,,,,,,,,,,,,,,
65772daa307b28b9a9ec187f,TCR,2024-06-24_11h47.51.707,LearnStrategy,2023.2.3,Win32,142.8571429,,,,,,,,,,,5,06,6,4,,,,,,,,,,,,,,,,,,,,,,,,,,,,,
65772daa307b28b9a9ec187f,TCR,2024-06-24_11h47.51.707,LearnStrategy,2023.2.3,Win32,142.8571429,,,,,,,,,,,4,10,6,5,,,,,,,,,,,,,,,,,,,,,,,,,,,,,
65772daa307b28b9a9ec187f,TCR,2024-06-24_11h47.51.707,LearnStrategy,2023.2.3,Win32,142.8571429,,,,,,,,,,,6,08,6,6,,,,,,,,,,,,,,,,,,,,,,,,,,,,,
65772daa307b28b9a9ec187f,TCR,2024-06-24_11h47.51.707,LearnStrategy,2023.2.3,Win32,142.8571429,,,,,,,,,,,5,07,6,7,,,,,,,,,,,,,,,,,,,,,,,,,,,,,
65772daa307b28b9a9ec187f,TCR,2024-06-24_11h47.51.707,LearnStrategy,2023.2.3,Win32,142.8571429,,,,,,,,,,,1,02,6,8,,,,,,,,,,,,,,,,,,,,,,,,,,,,,