participant,condition,date,expName,psychopyVersion,OS,frameRate,block,phase,trial,learn_mouse_2.x,learn_mouse_2.y,learn_mouse_2.leftButton,learn_mouse_2.midButton,learn_mouse_2.rightButton,learn_mouse_2.time,learn_mouse_2.clicked_name,cat,token,row,col,t_select,cat_mouse_l.x,cat_mouse_l.y,cat_mouse_l.leftButton,cat_mouse_l.midButton,cat_mouse_l.rightButton,cat_mouse_l.time,cat_mouse_l.clicked_name,resp,t_resp,corr,train_trials.thisRepN,train_trials.thisTrialN,train_trials.thisN,train_trials.thisIndex,train_trials.ran,cat_mouse_t.x,cat_mouse_t.y,cat_mouse_t.leftButton,cat_mouse_t.midButton,cat_mouse_t.rightButton,cat_mouse_t.time,cat_mouse_t.clicked_name,test_trials.thisRepN,test_trials.thisTrialN,test_trials.thisN,test_trials.thisIndex,test_trials.ran,Bonus
65819ebb9baf5002d202f320,TCN,2024-06-24_17h36.13.856,LearnStrategy,2023.2.3,Win32,59.88023952,,,,,,,,,,,,,,,,,,,,,,,,,,,,,,,,,,,,,,,,,,,
65819ebb9baf5002d202f320,TCN,2024-06-24_17h36.13.856,LearnStrategy,2023.2.3,Win32,59.88023952,1,1,1,-0.006481453,-0.003703718,1,0,0,2.3268,rock_grid_rect_2,7,15,-1,-1,2.327,0.110185199,-0.419444473,1,0,0,13.2351,Peridotite_rect,7,13.235,1,0,0,0,0,1,,,,,,,,,,,,,
65819ebb9baf5002d202f320,TCN,2024-06-24_17h36.13.856,LearnStrategy,2023.2.3,Win32,59.88023952,1,1,2,0.012962977,0.001851859,1,0,0,1.247,rock_grid_rect_2,5,05,-1,-1,1.247,-0.458333333,-0.392592607,1,0,0,3.8731,Obsidian_rect,5,3.873,1,1,0,1,0,1,,,,,,,,,,,,,
65819ebb9baf5002d202f320,TCN,2024-06-24_17h36.13.856,LearnStrategy,2023.2.3,Win32,59.88023952,1,1,3,0.009259259,-0.006481489,1,0,0,1.2138,rock_grid_rect_2,5,07,-1,-1,1.214,-0.381481489,-0.255555541,1,0,0,11.1849,Andesite_rect,1,11.185,0,2,0,2,0,1,,,,,,,,,,,,,
65819ebb9baf5002d202f320,TCN,2024-06-24_17h36.13.856,LearnStrategy,2023.2.3,Win32,59.88023952,1,1,4,0.022222236,-0.008333347,1,0,0,1.0965,rock_grid_rect_2,6,06,-1,-1,1.096,-0.074074074,-0.410185213,1,0,0,10.1448,Pegmatite_rect,6,10.145,1,3,0,3,0,1,,,,,,,,,,,,,
65819ebb9baf5002d202f320,TCN,2024-06-24_17h36.13.856,LearnStrategy,2023.2.3,Win32,59.88023952,1,1,5,0.021296325,0,1,0,0,1.1195,rock_grid_rect_2,4,10,-1,-1,1.12,-0.110185199,-0.257407436,1,0,0,6.3663,Basalt_rect,2,6.366,0,4,0,4,0,1,,,,,,,,,,,,,
65819ebb9baf5002d202f320,TCN,2024-06-24_17h36.13.856,LearnStrategy,2023.2.3,Win32,59.88023952,1,1,6,-0.006481453,-0.014814836,1,0,0,1.1472,rock_grid_rect_2,3,11,-1,-1,1.147,0.104629658,-0.267592607,1,0,0,8.6611,Diorite_rect,3,8.661,1,5,0,5,0,1,,,,,,,,,,,,,
65819ebb9baf5002d202f320,TCN,2024-06-24_17h36.13.856,LearnStrategy,2023.2.3,Win32,59.88023952,1,1,7,-0.016666624,0.018518519,1,0,0,0.9632,rock_grid_rect_2,4,16,-1,-1,0.963,0.387963048,-0.259259259,1,0,0,11.2349,Gabbro_rect,4,11.235,1,6,0,6,0,1,,,,,,,,,,,,,
65819ebb9baf5002d202f320,TCN,2024-06-24_17h36.13.856,LearnStrategy,2023.2.3,Win32,59.88023952,1,1,8,0.009259259,-0.014814836,1,0,0,1.1141,rock_grid_rect_2,1,02,-1,-1,1.114,0.083333333,-0.380555541,1,0,0,8.6786,Peridotite_rect,7,8.679,0,7,0,7,0,1,,,,,,,,,,,,,
65819ebb9baf5002d202f320,TCN,2024-06-24_17h36.13.856,LearnStrategy,2023.2.3,Win32,59.88023952,1,1,9,-0.001851824,0,1,0,0,1.1209,rock_grid_rect_2,2,10,-1,-1,1.121,0.332407492,-0.271296325,1,0,0,5.066,Gabbro_rect,4,5.066,0,8,0,8,0,1,,,,,,,,,,,,,
65819ebb9baf5002d202f320,TCN,2024-06-24_17h36.13.856,LearnStrategy,2023.2.3,Win32,59.88023952,1,1,10,-0.012962977,0.013888889,1,0,0,1.0804,rock_grid_rect_2,6,15,-1,-1,1.08,0.122222265,-0.40370369,1,0,0,8.4538,Peridotite_rect,7,8.454,0,9,0,9,0,1,,,,,,,,,,,,,
65819ebb9baf5002d202f320,TCN,2024-06-24_17h36.13.856,LearnStrategy,2023.2.3,Win32,59.88023952,1,1,11,0.025925954,0.014814801,1,0,0,1.6527,rock_grid_rect_2,2,04,-1,-1,1.653,-0.076851809,-0.255555541,1,0,0,2.1196,Basalt_rect,2,2.12,1,10,0,10,0,1,,,,,,,,,,,,,
65819ebb9baf5002d202f320,TCN,2024-06-24_17h36.13.856,LearnStrategy,2023.2.3,Win32,59.88023952,1,1,12,0.027777778,-0.000925947,1,0,0,1.1128,rock_grid_rect_2,3,08,-1,-1,1.113,0.18240745,-0.39907406,1,0,0,11.6354,Peridotite_rect,7,11.635,0,11,0,11,0,1,,,,,,,,,,,,,
65819ebb9baf5002d202f320,TCN,2024-06-24_17h36.13.856,LearnStrategy,2023.2.3,Win32,59.88023952,1,1,13,0.02870369,-0.008333347,1,0,0,0.9807,rock_grid_rect_2,7,06,-1,-1,0.981,-0.366666653,-0.249074088,1,0,0,5.9896,Andesite_rect,1,5.99,0,12,0,12,0,1,,,,,,,,,,,,,
65819ebb9baf5002d202f320,TCN,2024-06-24_17h36.13.856,LearnStrategy,2023.2.3,Win32,59.88023952,1,1,14,0.036111125,-0.015740748,1,0,0,1.0972,rock_grid_rect_2,8,13,-1,-1,1.097,0.346296381,-0.404629672,1,0,0,3.1256,Pumice_rect,8,3.126,1,13,0,13,0,1,,,,,,,,,,,,,
65819ebb9baf5002d202f320,TCN,2024-06-24_17h36.13.856,LearnStrategy,2023.2.3,Win32,59.88023952,1,1,15,-0.02407406,-0.013888889,1,0,0,0.9642,rock_grid_rect_2,1,01,-1,-1,0.964,0.147222236,-0.260185171,1,0,0,6.6397,Diorite_rect,3,6.64,0,14,0,14,0,1,,,,,,,,,,,,,
65819ebb9baf5002d202f320,TCN,2024-06-24_17h36.13.856,LearnStrategy,2023.2.3,Win32,59.88023952,1,1,16,-0.006481453,-0.008333347,1,0,0,0.9967,rock_grid_rect_2,8,02,-1,-1,0.997,0.312962991,-0.405555584,1,0,0,3.8087,Pumice_rect,8,3.809,1,15,0,15,0,1,,,,,,,,,,,,,
65819ebb9baf5002d202f320,TCN,2024-06-24_17h36.13.856,LearnStrategy,2023.2.3,Win32,59.88023952,1,2,1,,,,,,,,5,12,,,,,,,,,,,5,2.695,1,,,,,,-0.39166666,-0.411111125,1,0,0,2.6951,Obsidian_rect,0,0,0,0,1,
65819ebb9baf5002d202f320,TCN,2024-06-24_17h36.13.856,LearnStrategy,2023.2.3,Win32,59.88023952,1,2,2,,,,,,,,3,13,,,,,,,,,,,7,8.487,0,,,,,,0.183333362,-0.390740783,1,0,0,8.4874,Peridotite_rect,1,0,1,0,1,
65819ebb9baf5002d202f320,TCN,2024-06-24_17h36.13.856,LearnStrategy,2023.2.3,Win32,59.88023952,1,2,3,,,,,,,,7,05,,,,,,,,,,,6,7.722,0,,,,,,-0.099999958,-0.416666667,1,0,0,7.7222,Pegmatite_rect,2,0,2,0,1,
65819ebb9baf5002d202f320,TCN,2024-06-24_17h36.13.856,LearnStrategy,2023.2.3,Win32,59.88023952,1,2,4,,,,,,,,6,11,,,,,,,,,,,6,4.014,1,,,,,,-0.142592607,-0.409259302,1,0,0,4.014,Pegmatite_rect,3,0,3,0,1,
65819ebb9baf5002d202f320,TCN,2024-06-24_17h36.13.856,LearnStrategy,2023.2.3,Win32,59.88023952,1,2,5,,,,,,,,7,08,,,,,,,,,,,1,12.033,0,,,,,,-0.353703711,-0.266666695,1,0,0,12.033,Andesite_rect,4,0,4,0,1,
65819ebb9baf5002d202f320,TCN,2024-06-24_17h36.13.856,LearnStrategy,2023.2.3,Win32,59.88023952,1,2,6,,,,,,,,8,14,,,,,,,,,,,8,1.407,1,,,,,,0.328703704,-0.412962949,1,0,0,1.4066,Pumice_rect,5,0,5,0,1,
65819ebb9baf5002d202f320,TCN,2024-06-24_17h36.13.856,LearnStrategy,2023.2.3,Win32,59.88023952,1,2,7,,,,,,,,8,09,,,,,,,,,,,8,0.777,1,,,,,,0.328703704,-0.412037037,1,0,0,0.7766,Pumice_rect,6,0,6,0,1,
65819ebb9baf5002d202f320,TCN,2024-06-24_17h36.13.856,LearnStrategy,2023.2.3,Win32,59.88023952,1,2,8,,,,,,,,6,12,,,,,,,,,,,7,3.392,0,,,,,,0.131481524,-0.400000042,1,0,0,3.3919,Peridotite_rect,7,0,7,0,1,
65819ebb9baf5002d202f320,TCN,2024-06-24_17h36.13.856,LearnStrategy,2023.2.3,Win32,59.88023952,1,2,9,,,,,,,,2,05,,,,,,,,,,,2,5.522,1,,,,,,-0.110185199,-0.253703718,1,0,0,5.5224,Basalt_rect,8,0,8,0,1,
65819ebb9baf5002d202f320,TCN,2024-06-24_17h36.13.856,LearnStrategy,2023.2.3,Win32,59.88023952,1,2,10,,,,,,,,4,14,,,,,,,,,,,3,10.628,0,,,,,,0.150925954,-0.264814801,1,0,0,10.6284,Diorite_rect,9,0,9,0,1,
65819ebb9baf5002d202f320,TCN,2024-06-24_17h36.13.856,LearnStrategy,2023.2.3,Win32,59.88023952,1,2,11,,,,,,,,1,16,,,,,,,,,,,1,1.39,1,,,,,,-0.323148127,-0.259259259,1,0,0,1.3901,Andesite_rect,10,0,10,0,1,
65819ebb9baf5002d202f320,TCN,2024-06-24_17h36.13.856,LearnStrategy,2023.2.3,Win32,59.88023952,1,2,12,,,,,,,,3,10,,,,,,,,,,,1,5.306,0,,,,,,-0.348148134,-0.271296325,1,0,0,5.3063,Andesite_rect,11,0,11,0,1,
65819ebb9baf5002d202f320,TCN,2024-06-24_17h36.13.856,LearnStrategy,2023.2.3,Win32,59.88023952,1,2,13,,,,,,,,1,14,,,,,,,,,,,7,4.472,0,,,,,,0.080555598,-0.406481496,1,0,0,4.4721,Peridotite_rect,12,0,12,0,1,
65819ebb9baf5002d202f320,TCN,2024-06-24_17h36.13.856,LearnStrategy,2023.2.3,Win32,59.88023952,1,2,14,,,,,,,,4,01,,,,,,,,,,,1,10.283,0,,,,,,-0.333333333,-0.256481524,1,0,0,10.2832,Andesite_rect,13,0,13,0,1,
65819ebb9baf5002d202f320,TCN,2024-06-24_17h36.13.856,LearnStrategy,2023.2.3,Win32,59.88023952,1,2,15,,,,,,,,5,14,,,,,,,,,,,5,1.058,1,,,,,,-0.324999986,-0.393518519,1,0,0,1.0584,Obsidian_rect,14,0,14,0,1,
65819ebb9baf5002d202f320,TCN,2024-06-24_17h36.13.856,LearnStrategy,2023.2.3,Win32,59.88023952,1,2,16,,,,,,,,2,09,,,,,,,,,,,2,1.976,1,,,,,,-0.113888847,-0.248148176,1,0,0,1.9759,Basalt_rect,15,0,15,0,1,
65819ebb9baf5002d202f320,TCN,2024-06-24_17h36.13.856,LearnStrategy,2023.2.3,Win32,59.88023952,2,1,1,0.032407407,0.013888889,1,0,0,1.5805,rock_grid_rect_2,3,07,-1,-1,1.581,0.111111111,-0.413888931,1,0,0,4.0747,Peridotite_rect,7,4.075,0,0,0,0,0,1,,,,,,,,,,,,,
65819ebb9baf5002d202f320,TCN,2024-06-24_17h36.13.856,LearnStrategy,2023.2.3,Win32,59.88023952,2,1,2,-0.000925912,-0.003703718,1,0,0,1.1807,rock_grid_rect_2,7,07,-1,-1,1.181,-0.070370356,-0.391666695,1,0,0,4.7072,Pegmatite_rect,6,4.707,0,1,0,1,0,1,,,,,,,,,,,,,
65819ebb9baf5002d202f320,TCN,2024-06-24_17h36.13.856,LearnStrategy,2023.2.3,Win32,59.88023952,2,1,3,0.039814843,0.009259259,1,0,0,1.1973,rock_grid_rect_2,7,10,-1,-1,1.197,0.056481467,-0.391666695,1,0,0,2.7803,Peridotite_rect,7,2.78,1,2,0,2,0,1,,,,,,,,,,,,,
65819ebb9baf5002d202f320,TCN,2024-06-24_17h36.13.856,LearnStrategy,2023.2.3,Win32,59.88023952,2,1,4,0.001851894,-0.011111118,1,0,0,1.3306,rock_grid_rect_2,5,06,-1,-1,1.331,-0.369444423,-0.413888931,1,0,0,1.3763,Obsidian_rect,5,1.376,1,3,0,3,0,1,,,,,,,,,,,,,
65819ebb9baf5002d202f320,TCN,2024-06-24_17h36.13.856,LearnStrategy,2023.2.3,Win32,59.88023952,2,1,5,0.038888931,0.013888889,1,0,0,1.1644,rock_grid_rect_2,6,09,-1,-1,1.164,0.044444473,-0.249074088,1,0,0,10.5366,Diorite_rect,3,10.537,0,4,0,4,0,1,,,,,,,,,,,,,
65819ebb9baf5002d202f320,TCN,2024-06-24_17h36.13.856,LearnStrategy,2023.2.3,Win32,59.88023952,2,1,6,-0.009259259,0.003703683,1,0,0,1.0638,rock_grid_rect_2,5,08,-1,-1,1.064,-0.325925933,-0.402777778,1,0,0,1.1778,Obsidian_rect,5,1.178,1,5,0,5,0,1,,,,,,,,,,,,,
65819ebb9baf5002d202f320,TCN,2024-06-24_17h36.13.856,LearnStrategy,2023.2.3,Win32,59.88023952,2,1,7,0.009259259,0.005555541,1,0,0,1.1311,rock_grid_rect_2,2,14,-1,-1,1.131,-0.205555527,-0.248148176,1,0,0,1.5256,Basalt_rect,2,1.526,1,6,0,6,0,1,,,,,,,,,,,,,
65819ebb9baf5002d202f320,TCN,2024-06-24_17h36.13.856,LearnStrategy,2023.2.3,Win32,59.88023952,2,1,8,-0.015740712,-0.003703718,1,0,0,1.0141,rock_grid_rect_2,3,16,-1,-1,1.014,-0.366666653,-0.234259288,1,0,0,8.9036,Andesite_rect,1,8.904,0,7,0,7,0,1,,,,,,,,,,,,,
65819ebb9baf5002d202f320,TCN,2024-06-24_17h36.13.856,LearnStrategy,2023.2.3,Win32,59.88023952,2,1,9,-0.00462963,-0.002777771,1,0,0,1.0641,rock_grid_rect_2,1,03,-1,-1,1.064,0.05740745,-0.415740755,1,0,0,7.5923,Peridotite_rect,7,7.592,0,8,0,8,0,1,,,,,,,,,,,,,
65819ebb9baf5002d202f320,TCN,2024-06-24_17h36.13.856,LearnStrategy,2023.2.3,Win32,59.88023952,2,1,10,0.002777806,-0.0074074,1,0,0,1.0638,rock_grid_rect_2,4,09,-1,-1,1.064,-0.099074046,-0.40370369,1,0,0,8.1871,Pegmatite_rect,6,8.187,0,9,0,9,0,1,,,,,,,,,,,,,
65819ebb9baf5002d202f320,TCN,2024-06-24_17h36.13.856,LearnStrategy,2023.2.3,Win32,59.88023952,2,1,11,-0.035185143,-0.014814836,1,0,0,1.5458,rock_grid_rect_2,1,10,-1,-1,1.546,-0.215740698,-0.228703746,1,0,0,3.824,Basalt_rect,2,3.824,0,10,0,10,0,1,,,,,,,,,,,,,
65819ebb9baf5002d202f320,TCN,2024-06-24_17h36.13.856,LearnStrategy,2023.2.3,Win32,59.88023952,2,1,12,0.012037065,-0.012962977,1,0,0,1.0134,rock_grid_rect_2,8,16,-1,-1,1.013,0.425000085,-0.405555584,1,0,0,2.6589,Pumice_rect,8,2.659,1,11,0,11,0,1,,,,,,,,,,,,,
65819ebb9baf5002d202f320,TCN,2024-06-24_17h36.13.856,LearnStrategy,2023.2.3,Win32,59.88023952,2,1,13,-0.007407365,-0.01203703,1,0,0,1.0301,rock_grid_rect_2,2,11,-1,-1,1.03,0.342592593,-0.401851866,1,0,0,1.3595,Pumice_rect,8,1.36,0,12,0,12,0,1,,,,,,,,,,,,,
65819ebb9baf5002d202f320,TCN,2024-06-24_17h36.13.856,LearnStrategy,2023.2.3,Win32,59.88023952,2,1,14,0.013888889,0.006481489,1,0,0,1.0811,rock_grid_rect_2,8,04,-1,-1,1.081,0.413888861,-0.411111125,1,0,0,1.1601,Pumice_rect,8,1.16,1,13,0,13,0,1,,,,,,,,,,,,,
65819ebb9baf5002d202f320,TCN,2024-06-24_17h36.13.856,LearnStrategy,2023.2.3,Win32,59.88023952,2,1,15,0.014814801,0.012962942,1,0,0,1.0813,rock_grid_rect_2,6,08,-1,-1,1.081,0.088888875,-0.400000042,1,0,0,3.6917,Peridotite_rect,7,3.692,0,14,0,14,0,1,,,,,,,,,,,,,
65819ebb9baf5002d202f320,TCN,2024-06-24_17h36.13.856,LearnStrategy,2023.2.3,Win32,59.88023952,2,1,16,0.018518519,0.003703683,1,0,0,1.0691,rock_grid_rect_2,4,12,-1,-1,1.069,-0.412037037,-0.23055557,1,0,0,7.9326,Andesite_rect,1,7.933,0,15,0,15,0,1,,,,,,,,,,,,,
65819ebb9baf5002d202f320,TCN,2024-06-24_17h36.13.856,LearnStrategy,2023.2.3,Win32,59.88023952,2,2,1,,,,,,,,1,04,,,,,,,,,,,4,6.023,0,,,,,,0.318518603,-0.249074088,1,0,0,6.0227,Gabbro_rect,0,0,0,0,1,
65819ebb9baf5002d202f320,TCN,2024-06-24_17h36.13.856,LearnStrategy,2023.2.3,Win32,59.88023952,2,2,2,,,,,,,,8,08,,,,,,,,,,,8,1.245,1,,,,,,0.3648149,-0.40370369,1,0,0,1.2454,Pumice_rect,1,0,1,0,1,
65819ebb9baf5002d202f320,TCN,2024-06-24_17h36.13.856,LearnStrategy,2023.2.3,Win32,59.88023952,2,2,3,,,,,,,,6,10,,,,,,,,,,,7,2.128,0,,,,,,0.045370384,-0.420370384,1,0,0,2.1281,Peridotite_rect,2,0,2,0,1,
65819ebb9baf5002d202f320,TCN,2024-06-24_17h36.13.856,LearnStrategy,2023.2.3,Win32,59.88023952,2,2,4,,,,,,,,1,05,,,,,,,,,,,1,5.107,1,,,,,,-0.298148155,-0.26944443,1,0,0,5.107,Andesite_rect,3,0,3,0,1,
65819ebb9baf5002d202f320,TCN,2024-06-24_17h36.13.856,LearnStrategy,2023.2.3,Win32,59.88023952,2,2,5,,,,,,,,5,04,,,,,,,,,,,5,1.033,1,,,,,,-0.342592593,-0.383333347,1,0,0,1.0332,Obsidian_rect,4,0,4,0,1,
65819ebb9baf5002d202f320,TCN,2024-06-24_17h36.13.856,LearnStrategy,2023.2.3,Win32,59.88023952,2,2,6,,,,,,,,3,02,,,,,,,,,,,7,8.139,0,,,,,,0.07685188,-0.412962949,1,0,0,8.1394,Peridotite_rect,5,0,5,0,1,
65819ebb9baf5002d202f320,TCN,2024-06-24_17h36.13.856,LearnStrategy,2023.2.3,Win32,59.88023952,2,2,7,,,,,,,,4,08,,,,,,,,,,,3,4.675,0,,,,,,0.030555584,-0.253703718,1,0,0,4.6748,Diorite_rect,6,0,6,0,1,
65819ebb9baf5002d202f320,TCN,2024-06-24_17h36.13.856,LearnStrategy,2023.2.3,Win32,59.88023952,2,2,8,,,,,,,,6,07,,,,,,,,,,,7,2.043,0,,,,,,0.037037037,-0.410185213,1,0,0,2.0426,Peridotite_rect,7,0,7,0,1,
65819ebb9baf5002d202f320,TCN,2024-06-24_17h36.13.856,LearnStrategy,2023.2.3,Win32,59.88023952,2,2,9,,,,,,,,8,03,,,,,,,,,,,8,2.308,1,,,,,,0.312962991,-0.398148148,1,0,0,2.3084,Pumice_rect,8,0,8,0,1,
65819ebb9baf5002d202f320,TCN,2024-06-24_17h36.13.856,LearnStrategy,2023.2.3,Win32,59.88023952,2,2,10,,,,,,,,7,16,,,,,,,,,,,6,2.633,0,,,,,,-0.074999986,-0.392592607,1,0,0,2.6331,Pegmatite_rect,9,0,9,0,1,
65819ebb9baf5002d202f320,TCN,2024-06-24_17h36.13.856,LearnStrategy,2023.2.3,Win32,59.88023952,2,2,11,,,,,,,,5,02,,,,,,,,,,,5,1.061,1,,,,,,-0.312037044,-0.40370369,1,0,0,1.0609,Obsidian_rect,10,0,10,0,1,
65819ebb9baf5002d202f320,TCN,2024-06-24_17h36.13.856,LearnStrategy,2023.2.3,Win32,59.88023952,2,2,12,,,,,,,,3,12,,,,,,,,,,,7,1.974,0,,,,,,0.078703704,-0.412037037,1,0,0,1.9741,Peridotite_rect,11,0,11,0,1,
65819ebb9baf5002d202f320,TCN,2024-06-24_17h36.13.856,LearnStrategy,2023.2.3,Win32,59.88023952,2,2,13,,,,,,,,2,16,,,,,,,,,,,2,6.705,1,,,,,,-0.047222208,-0.261111153,1,0,0,6.7053,Basalt_rect,12,0,12,0,1,
65819ebb9baf5002d202f320,TCN,2024-06-24_17h36.13.856,LearnStrategy,2023.2.3,Win32,59.88023952,2,2,14,,,,,,,,4,03,,,,,,,,,,,7,3.221,0,,,,,,0.050000014,-0.378703718,1,0,0,3.2207,Peridotite_rect,13,0,13,0,1,
65819ebb9baf5002d202f320,TCN,2024-06-24_17h36.13.856,LearnStrategy,2023.2.3,Win32,59.88023952,2,2,15,,,,,,,,7,02,,,,,,,,,,,7,1.299,1,,,,,,0.029629672,-0.408333319,1,0,0,1.299,Peridotite_rect,14,0,14,0,1,
65819ebb9baf5002d202f320,TCN,2024-06-24_17h36.13.856,LearnStrategy,2023.2.3,Win32,59.88023952,2,2,16,,,,,,,,2,02,,,,,,,,,,,6,6.289,0,,,,,,-0.102777764,-0.409259302,1,0,0,6.2892,Pegmatite_rect,15,0,15,0,1,
65819ebb9baf5002d202f320,TCN,2024-06-24_17h36.13.856,LearnStrategy,2023.2.3,Win32,59.88023952,3,1,1,-0.024999972,-0.0074074,1,0,0,1.5864,rock_grid_rect_2,7,13,-1,-1,1.586,-0.38703703,-0.270370413,1,0,0,7.6997,Andesite_rect,1,7.7,0,0,0,0,0,1,,,,,,,,,,,,,
65819ebb9baf5002d202f320,TCN,2024-06-24_17h36.13.856,LearnStrategy,2023.2.3,Win32,59.88023952,3,1,2,0.005555541,-0.009259259,1,0,0,1.2955,rock_grid_rect_2,3,09,-1,-1,1.295,-0.084259245,-0.412962949,1,0,0,3.0415,Pegmatite_rect,6,3.041,0,1,0,1,0,1,,,,,,,,,,,,,
65819ebb9baf5002d202f320,TCN,2024-06-24_17h36.13.856,LearnStrategy,2023.2.3,Win32,59.88023952,3,1,3,-0.001851824,0,1,0,0,1.0805,rock_grid_rect_2,5,11,-1,-1,1.081,-0.313888868,-0.388888889,1,0,0,1.1264,Obsidian_rect,5,1.126,1,2,0,2,0,1,,,,,,,,,,,,,
65819ebb9baf5002d202f320,TCN,2024-06-24_17h36.13.856,LearnStrategy,2023.2.3,Win32,59.88023952,3,1,4,0.036111125,-0.003703718,1,0,0,0.981,rock_grid_rect_2,2,06,-1,-1,0.981,-0.061111097,-0.252777806,1,0,0,1.5429,Basalt_rect,2,1.543,1,3,0,3,0,1,,,,,,,,,,,,,
65819ebb9baf5002d202f320,TCN,2024-06-24_17h36.13.856,LearnStrategy,2023.2.3,Win32,59.88023952,3,1,5,-0.013888889,0.023148148,1,0,0,1.1637,rock_grid_rect_2,5,10,-1,-1,1.164,-0.331481474,-0.418518561,1,0,0,1.2268,Obsidian_rect,5,1.227,1,4,0,4,0,1,,,,,,,,,,,,,
65819ebb9baf5002d202f320,TCN,2024-06-24_17h36.13.856,LearnStrategy,2023.2.3,Win32,59.88023952,3,1,6,0.011111153,-0.01666666,1,0,0,0.8976,rock_grid_rect_2,6,05,-1,-1,0.898,0.091666681,-0.39444443,1,0,0,1.5774,Peridotite_rect,7,1.577,0,5,0,5,0,1,,,,,,,,,,,,,
65819ebb9baf5002d202f320,TCN,2024-06-24_17h36.13.856,LearnStrategy,2023.2.3,Win32,59.88023952,3,1,7,-0.015740712,0.008333312,1,0,0,0.8477,rock_grid_rect_2,7,14,-1,-1,0.848,0.046296296,-0.411111125,1,0,0,2.9094,Peridotite_rect,7,2.909,1,6,0,6,0,1,,,,,,,,,,,,,
65819ebb9baf5002d202f320,TCN,2024-06-24_17h36.13.856,LearnStrategy,2023.2.3,Win32,59.88023952,3,1,8,0.010185171,-0.020370377,1,0,0,1.4462,rock_grid_rect_2,6,03,-1,-1,1.446,0.075925968,-0.421296296,1,0,0,3.04,Peridotite_rect,7,3.04,0,7,0,7,0,1,,,,,,,,,,,,,
65819ebb9baf5002d202f320,TCN,2024-06-24_17h36.13.856,LearnStrategy,2023.2.3,Win32,59.88023952,3,1,9,0,-0.012962977,1,0,0,1.1804,rock_grid_rect_2,4,11,-1,-1,1.18,-0.157407407,-0.260185171,1,0,0,2.0595,Basalt_rect,2,2.06,0,8,0,8,0,1,,,,,,,,,,,,,
65819ebb9baf5002d202f320,TCN,2024-06-24_17h36.13.856,LearnStrategy,2023.2.3,Win32,59.88023952,3,1,10,0.008333347,0.018518519,1,0,0,1.5638,rock_grid_rect_2,8,06,-1,-1,1.564,0.388888889,-0.410185213,1,0,0,1.8437,Pumice_rect,8,1.844,1,9,0,9,0,1,,,,,,,,,,,,,
65819ebb9baf5002d202f320,TCN,2024-06-24_17h36.13.856,LearnStrategy,2023.2.3,Win32,59.88023952,3,1,11,-0.006481453,-0.00462963,1,0,0,1.0311,rock_grid_rect_2,4,15,-1,-1,1.031,-0.139814801,-0.407407407,1,0,0,4.4984,Pegmatite_rect,6,4.498,0,10,0,10,0,1,,,,,,,,,,,,,
65819ebb9baf5002d202f320,TCN,2024-06-24_17h36.13.856,LearnStrategy,2023.2.3,Win32,59.88023952,3,1,12,-0.003703718,-0.024074095,1,0,0,1.2004,rock_grid_rect_2,8,15,-1,-1,1.2,0.321296268,-0.39907406,1,0,0,1.3957,Pumice_rect,8,1.396,1,11,0,11,0,1,,,,,,,,,,,,,
65819ebb9baf5002d202f320,TCN,2024-06-24_17h36.13.856,LearnStrategy,2023.2.3,Win32,59.88023952,3,1,13,-0.089814787,0.017592571,1,0,0,0.8667,rock_grid_rect_2,1,07,-1,-1,0.867,-0.037962949,-0.415740755,1,0,0,2.3197,Pegmatite_rect,6,2.32,0,12,0,12,0,1,,,,,,,,,,,,,
65819ebb9baf5002d202f320,TCN,2024-06-24_17h36.13.856,LearnStrategy,2023.2.3,Win32,59.88023952,3,1,14,0.025000042,0.0074074,1,0,0,1.1296,rock_grid_rect_2,1,11,-1,-1,1.13,-0.073148162,-0.261111153,1,0,0,1.6518,Basalt_rect,2,1.652,0,13,0,13,0,1,,,,,,,,,,,,,
65819ebb9baf5002d202f320,TCN,2024-06-24_17h36.13.856,LearnStrategy,2023.2.3,Win32,59.88023952,3,1,15,0.021296325,-0.009259259,1,0,0,0.9713,rock_grid_rect_2,2,12,-1,-1,0.971,-0.062962921,-0.260185171,1,0,0,1.3896,Basalt_rect,2,1.39,1,14,0,14,0,1,,,,,,,,,,,,,
65819ebb9baf5002d202f320,TCN,2024-06-24_17h36.13.856,LearnStrategy,2023.2.3,Win32,59.88023952,3,1,16,0.008333347,-0.002777771,1,0,0,0.9828,rock_grid_rect_2,3,15,-1,-1,0.983,-0.362037023,-0.235185199,1,0,0,3.4449,Andesite_rect,1,3.445,0,15,0,15,0,1,,,,,,,,,,,,,
65819ebb9baf5002d202f320,TCN,2024-06-24_17h36.13.856,LearnStrategy,2023.2.3,Win32,59.88023952,3,2,1,,,,,,,,6,13,,,,,,,,,,,7,1.89,0,,,,,,0.031481496,-0.413888931,1,0,0,1.8901,Peridotite_rect,0,0,0,0,1,
65819ebb9baf5002d202f320,TCN,2024-06-24_17h36.13.856,LearnStrategy,2023.2.3,Win32,59.88023952,3,2,2,,,,,,,,5,09,,,,,,,,,,,5,0.995,1,,,,,,-0.342592593,-0.388888889,1,0,0,0.9952,Obsidian_rect,1,0,1,0,1,
65819ebb9baf5002d202f320,TCN,2024-06-24_17h36.13.856,LearnStrategy,2023.2.3,Win32,59.88023952,3,2,3,,,,,,,,5,16,,,,,,,,,,,5,1.077,1,,,,,,-0.303703697,-0.381481524,1,0,0,1.0768,Obsidian_rect,2,0,2,0,1,
65819ebb9baf5002d202f320,TCN,2024-06-24_17h36.13.856,LearnStrategy,2023.2.3,Win32,59.88023952,3,2,4,,,,,,,,7,04,,,,,,,,,,,3,3.833,0,,,,,,0.087962963,-0.228703746,1,0,0,3.8331,Diorite_rect,3,0,3,0,1,
65819ebb9baf5002d202f320,TCN,2024-06-24_17h36.13.856,LearnStrategy,2023.2.3,Win32,59.88023952,3,2,5,,,,,,,,4,13,,,,,,,,,,,6,1.782,0,,,,,,-0.055555556,-0.401851866,1,0,0,1.7818,Pegmatite_rect,4,0,4,0,1,
65819ebb9baf5002d202f320,TCN,2024-06-24_17h36.13.856,LearnStrategy,2023.2.3,Win32,59.88023952,3,2,6,,,,,,,,7,12,,,,,,,,,,,7,1.532,1,,,,,,0.067592621,-0.392592607,1,0,0,1.5317,Peridotite_rect,5,0,5,0,1,
65819ebb9baf5002d202f320,TCN,2024-06-24_17h36.13.856,LearnStrategy,2023.2.3,Win32,59.88023952,3,2,7,,,,,,,,4,05,,,,,,,,,,,1,3.408,0,,,,,,-0.369444423,-0.242592635,1,0,0,3.4075,Andesite_rect,6,0,6,0,1,
65819ebb9baf5002d202f320,TCN,2024-06-24_17h36.13.856,LearnStrategy,2023.2.3,Win32,59.88023952,3,2,8,,,,,,,,3,14,,,,,,,,,,,7,1.91,0,,,,,,0.041666667,-0.40370369,1,0,0,1.9098,Peridotite_rect,7,0,7,0,1,
65819ebb9baf5002d202f320,TCN,2024-06-24_17h36.13.856,LearnStrategy,2023.2.3,Win32,59.88023952,3,2,9,,,,,,,,2,01,,,,,,,,,,,2,2.709,1,,,,,,-0.117592564,-0.271296325,1,0,0,2.7086,Basalt_rect,8,0,8,0,1,
65819ebb9baf5002d202f320,TCN,2024-06-24_17h36.13.856,LearnStrategy,2023.2.3,Win32,59.88023952,3,2,10,,,,,,,,8,05,,,,,,,,,,,8,1.144,1,,,,,,0.336111139,-0.412962949,1,0,0,1.1435,Pumice_rect,9,0,9,0,1,
65819ebb9baf5002d202f320,TCN,2024-06-24_17h36.13.856,LearnStrategy,2023.2.3,Win32,59.88023952,3,2,11,,,,,,,,3,06,,,,,,,,,,,4,2.743,0,,,,,,0.347222222,-0.253703718,1,0,0,2.7426,Gabbro_rect,10,0,10,0,1,
65819ebb9baf5002d202f320,TCN,2024-06-24_17h36.13.856,LearnStrategy,2023.2.3,Win32,59.88023952,3,2,12,,,,,,,,6,16,,,,,,,,,,,7,1.192,0,,,,,,0.143518519,-0.417592578,1,0,0,1.192,Peridotite_rect,11,0,11,0,1,
65819ebb9baf5002d202f320,TCN,2024-06-24_17h36.13.856,LearnStrategy,2023.2.3,Win32,59.88023952,3,2,13,,,,,,,,2,08,,,,,,,,,,,2,2.835,1,,,,,,-0.06759255,-0.264814801,1,0,0,2.8347,Basalt_rect,12,0,12,0,1,
65819ebb9baf5002d202f320,TCN,2024-06-24_17h36.13.856,LearnStrategy,2023.2.3,Win32,59.88023952,3,2,14,,,,,,,,1,09,,,,,,,,,,,4,4.884,0,,,,,,0.333333333,-0.255555541,1,0,0,4.8843,Gabbro_rect,13,0,13,0,1,
65819ebb9baf5002d202f320,TCN,2024-06-24_17h36.13.856,LearnStrategy,2023.2.3,Win32,59.88023952,3,2,15,,,,,,,,8,10,,,,,,,,,,,8,1.792,1,,,,,,0.36018527,-0.390740783,1,0,0,1.7921,Pumice_rect,14,0,14,0,1,
65819ebb9baf5002d202f320,TCN,2024-06-24_17h36.13.856,LearnStrategy,2023.2.3,Win32,59.88023952,3,2,16,,,,,,,,1,06,,,,,,,,,,,2,1.809,0,,,,,,-0.05277775,-0.255555541,1,0,0,1.8089,Basalt_rect,15,0,15,0,1,
65819ebb9baf5002d202f320,TCN,2024-06-24_17h36.13.856,LearnStrategy,2023.2.3,Win32,59.88023952,4,1,1,0.017592607,0.010185171,1,0,0,1.2641,rock_grid_rect_2,8,16,-1,-1,1.264,0.342592593,-0.39444443,1,0,0,1.2611,Pumice_rect,8,1.261,1,0,0,0,0,1,,,,,,,,,,,,,
65819ebb9baf5002d202f320,TCN,2024-06-24_17h36.13.856,LearnStrategy,2023.2.3,Win32,59.88023952,4,1,2,-0.020370342,0.009259259,1,0,0,1.0639,rock_grid_rect_2,2,12,-1,-1,1.064,-0.073148162,-0.250925912,1,0,0,3.5114,Basalt_rect,2,3.511,1,1,0,1,0,1,,,,,,,,,,,,,
65819ebb9baf5002d202f320,TCN,2024-06-24_17h36.13.856,LearnStrategy,2023.2.3,Win32,59.88023952,4,1,3,-0.002777735,-0.017592607,1,0,0,1.0973,rock_grid_rect_2,3,11,-1,-1,1.097,-0.119444459,-0.378703718,1,0,0,3.0756,Pegmatite_rect,6,3.076,0,2,0,2,0,1,,,,,,,,,,,,,
65819ebb9baf5002d202f320,TCN,2024-06-24_17h36.13.856,LearnStrategy,2023.2.3,Win32,59.88023952,4,1,4,0,-0.01666666,1,0,0,1.1309,rock_grid_rect_2,4,10,-1,-1,1.131,-0.066666638,-0.237963005,1,0,0,2.793,Basalt_rect,2,2.793,0,3,0,3,0,1,,,,,,,,,,,,,
65819ebb9baf5002d202f320,TCN,2024-06-24_17h36.13.856,LearnStrategy,2023.2.3,Win32,59.88023952,4,1,5,0.011111153,-0.013888889,1,0,0,1.58,rock_grid_rect_2,2,06,-1,-1,1.58,-0.347222222,-0.261111153,1,0,0,4.9783,Andesite_rect,1,4.978,0,4,0,4,0,1,,,,,,,,,,,,,
65819ebb9baf5002d202f320,TCN,2024-06-24_17h36.13.856,LearnStrategy,2023.2.3,Win32,59.88023952,4,1,6,0.044444473,-0.009259259,1,0,0,1.1465,rock_grid_rect_2,4,15,-1,-1,1.147,-0.121296282,-0.417592578,1,0,0,3.14,Pegmatite_rect,6,3.14,0,5,0,5,0,1,,,,,,,,,,,,,
65819ebb9baf5002d202f320,TCN,2024-06-24_17h36.13.856,LearnStrategy,2023.2.3,Win32,59.88023952,4,1,7,0.046296296,-0.005555577,1,0,0,1.0975,rock_grid_rect_2,1,11,-1,-1,1.098,-0.07222218,-0.250925912,1,0,0,2.5252,Basalt_rect,2,2.525,0,6,0,6,0,1,,,,,,,,,,,,,
65819ebb9baf5002d202f320,TCN,2024-06-24_17h36.13.856,LearnStrategy,2023.2.3,Win32,59.88023952,4,1,8,-0.023148148,-0.0074074,1,0,0,0.9637,rock_grid_rect_2,5,11,-1,-1,0.964,-0.339814822,-0.415740755,1,0,0,1.011,Obsidian_rect,5,1.011,1,7,0,7,0,1,,,,,,,,,,,,,
65819ebb9baf5002d202f320,TCN,2024-06-24_17h36.13.856,LearnStrategy,2023.2.3,Win32,59.88023952,4,1,9,-0.012962977,-0.019444466,1,0,0,0.965,rock_grid_rect_2,6,03,-1,-1,0.965,0.062037079,-0.405555584,1,0,0,1.9533,Peridotite_rect,7,1.953,0,8,0,8,0,1,,,,,,,,,,,,,
65819ebb9baf5002d202f320,TCN,2024-06-24_17h36.13.856,LearnStrategy,2023.2.3,Win32,59.88023952,4,1,10,0.022222236,-0.00462963,1,0,0,1.2139,rock_grid_rect_2,7,07,-1,-1,1.214,-0.082407422,-0.234259288,1,0,0,2.4283,Basalt_rect,2,2.428,0,9,0,9,0,1,,,,,,,,,,,,,
65819ebb9baf5002d202f320,TCN,2024-06-24_17h36.13.856,LearnStrategy,2023.2.3,Win32,59.88023952,4,1,11,0.001851894,-0.015740748,1,0,0,1.5966,rock_grid_rect_2,8,04,-1,-1,1.597,0.499074159,-0.389814801,1,0,0,1.2433,Pumice_rect,8,1.243,1,10,0,10,0,1,,,,,,,,,,,,,
65819ebb9baf5002d202f320,TCN,2024-06-24_17h36.13.856,LearnStrategy,2023.2.3,Win32,59.88023952,4,1,12,0.007407436,-0.012962977,1,0,0,1.3143,rock_grid_rect_2,3,08,-1,-1,1.314,0.118518547,-0.378703718,1,0,0,1.5596,Peridotite_rect,7,1.56,0,11,0,11,0,1,,,,,,,,,,,,,
65819ebb9baf5002d202f320,TCN,2024-06-24_17h36.13.856,LearnStrategy,2023.2.3,Win32,59.88023952,4,1,13,-0.05277775,0,1,0,0,1.0143,rock_grid_rect_2,5,10,-1,-1,1.014,-0.395370377,-0.396296325,1,0,0,1.0432,Obsidian_rect,5,1.043,1,12,0,12,0,1,,,,,,,,,,,,,
65819ebb9baf5002d202f320,TCN,2024-06-24_17h36.13.856,LearnStrategy,2023.2.3,Win32,59.88023952,4,1,14,-0.013888889,-0.009259259,1,0,0,0.8979,rock_grid_rect_2,6,05,-1,-1,0.898,0.140740783,-0.420370384,1,0,0,1.8103,Peridotite_rect,7,1.81,0,13,0,13,0,1,,,,,,,,,,,,,
65819ebb9baf5002d202f320,TCN,2024-06-24_17h36.13.856,LearnStrategy,2023.2.3,Win32,59.88023952,4,1,15,-0.013888889,-0.006481489,1,0,0,1.2977,rock_grid_rect_2,7,06,-1,-1,1.298,0.10092594,-0.391666695,1,0,0,2.1435,Peridotite_rect,7,2.143,1,14,0,14,0,1,,,,,,,,,,,,,
65819ebb9baf5002d202f320,TCN,2024-06-24_17h36.13.856,LearnStrategy,2023.2.3,Win32,59.88023952,4,1,16,-0.000925912,-0.013888889,1,0,0,1.197,rock_grid_rect_2,1,10,-1,-1,1.197,-0.071296268,-0.243518547,1,0,0,1.5226,Basalt_rect,2,1.523,0,15,0,15,0,1,,,,,,,,,,,,,
65819ebb9baf5002d202f320,TCN,2024-06-24_17h36.13.856,LearnStrategy,2023.2.3,Win32,59.88023952,4,2,1,,,,,,,,6,11,,,,,,,,,,,7,5.714,0,,,,,,0.062037079,-0.393518519,1,0,0,5.7138,Peridotite_rect,0,0,0,0,1,
65819ebb9baf5002d202f320,TCN,2024-06-24_17h36.13.856,LearnStrategy,2023.2.3,Win32,59.88023952,4,2,2,,,,,,,,3,12,,,,,,,,,,,3,5.605,1,,,,,,0.145370413,-0.233333376,1,0,0,5.6047,Diorite_rect,1,0,1,0,1,
65819ebb9baf5002d202f320,TCN,2024-06-24_17h36.13.856,LearnStrategy,2023.2.3,Win32,59.88023952,4,2,3,,,,,,,,2,05,,,,,,,,,,,2,2.53,1,,,,,,-0.095370328,-0.229629658,1,0,0,2.5296,Basalt_rect,2,0,2,0,1,
65819ebb9baf5002d202f320,TCN,2024-06-24_17h36.13.856,LearnStrategy,2023.2.3,Win32,59.88023952,4,2,4,,,,,,,,7,12,,,,,,,,,,,7,3.026,1,,,,,,0.07685188,-0.383333347,1,0,0,3.0256,Peridotite_rect,3,0,3,0,1,
65819ebb9baf5002d202f320,TCN,2024-06-24_17h36.13.856,LearnStrategy,2023.2.3,Win32,59.88023952,4,2,5,,,,,,,,8,14,,,,,,,,,,,8,0.994,1,,,,,,0.324074074,-0.395370413,1,0,0,0.9942,Pumice_rect,4,0,4,0,1,
65819ebb9baf5002d202f320,TCN,2024-06-24_17h36.13.856,LearnStrategy,2023.2.3,Win32,59.88023952,4,2,6,,,,,,,,1,04,,,,,,,,,,,2,1.86,0,,,,,,-0.085185157,-0.243518547,1,0,0,1.8596,Basalt_rect,5,0,5,0,1,
65819ebb9baf5002d202f320,TCN,2024-06-24_17h36.13.856,LearnStrategy,2023.2.3,Win32,59.88023952,4,2,7,,,,,,,,2,02,,,,,,,,,,,2,1.7,1,,,,,,-0.091666681,-0.251851894,1,0,0,1.6997,Basalt_rect,6,0,6,0,1,
65819ebb9baf5002d202f320,TCN,2024-06-24_17h36.13.856,LearnStrategy,2023.2.3,Win32,59.88023952,4,2,8,,,,,,,,8,10,,,,,,,,,,,8,1.302,1,,,,,,0.32685188,-0.400925954,1,0,0,1.302,Pumice_rect,7,0,7,0,1,
65819ebb9baf5002d202f320,TCN,2024-06-24_17h36.13.856,LearnStrategy,2023.2.3,Win32,59.88023952,4,2,9,,,,,,,,4,03,,,,,,,,,,,4,3.407,1,,,,,,0.32222225,-0.265740783,1,0,0,3.4066,Gabbro_rect,8,0,8,0,1,
65819ebb9baf5002d202f320,TCN,2024-06-24_17h36.13.856,LearnStrategy,2023.2.3,Win32,59.88023952,4,2,10,,,,,,,,3,10,,,,,,,,,,,4,4.024,0,,,,,,0.314814815,-0.259259259,1,0,0,4.0243,Gabbro_rect,9,0,9,0,1,
65819ebb9baf5002d202f320,TCN,2024-06-24_17h36.13.856,LearnStrategy,2023.2.3,Win32,59.88023952,4,2,11,,,,,,,,1,06,,,,,,,,,,,2,2.676,0,,,,,,-0.09629631,-0.235185199,1,0,0,2.6756,Basalt_rect,10,0,10,0,1,
65819ebb9baf5002d202f320,TCN,2024-06-24_17h36.13.856,LearnStrategy,2023.2.3,Win32,59.88023952,4,2,12,,,,,,,,5,14,,,,,,,,,,,5,1.044,1,,,,,,-0.357407393,-0.40370369,1,0,0,1.0438,Obsidian_rect,11,0,11,0,1,
65819ebb9baf5002d202f320,TCN,2024-06-24_17h36.13.856,LearnStrategy,2023.2.3,Win32,59.88023952,4,2,13,,,,,,,,6,10,,,,,,,,,,,3,4.69,0,,,,,,0.075925968,-0.267592607,1,0,0,4.6898,Diorite_rect,12,0,12,0,1,
65819ebb9baf5002d202f320,TCN,2024-06-24_17h36.13.856,LearnStrategy,2023.2.3,Win32,59.88023952,4,2,14,,,,,,,,5,04,,,,,,,,,,,5,1.492,1,,,,,,-0.340740734,-0.402777778,1,0,0,1.4923,Obsidian_rect,13,0,13,0,1,
65819ebb9baf5002d202f320,TCN,2024-06-24_17h36.13.856,LearnStrategy,2023.2.3,Win32,59.88023952,4,2,15,,,,,,,,7,05,,,,,,,,,,,1,5.195,0,,,,,,-0.321296303,-0.263888889,1,0,0,5.1945,Andesite_rect,14,0,14,0,1,
65819ebb9baf5002d202f320,TCN,2024-06-24_17h36.13.856,LearnStrategy,2023.2.3,Win32,59.88023952,4,2,16,,,,,,,,4,08,,,,,,,,,,,6,8.405,0,,,,,,-0.059259273,-0.408333319,1,0,0,8.4046,Pegmatite_rect,15,0,15,0,1,
65819ebb9baf5002d202f320,TCN,2024-06-24_17h36.13.856,LearnStrategy,2023.2.3,Win32,59.88023952,5,1,1,0.020370413,-0.0074074,1,0,0,1.4475,rock_grid_rect_2,5,07,-1,-1,1.447,-0.355555534,-0.392592607,1,0,0,1.2791,Obsidian_rect,5,1.279,1,0,0,0,0,1,,,,,,,,,,,,,
65819ebb9baf5002d202f320,TCN,2024-06-24_17h36.13.856,LearnStrategy,2023.2.3,Win32,59.88023952,5,1,2,0.016666695,-0.015740748,1,0,0,1.181,rock_grid_rect_2,7,15,-1,-1,1.181,0.088888875,-0.409259302,1,0,0,2.3599,Peridotite_rect,7,2.36,1,1,0,1,0,1,,,,,,,,,,,,,
65819ebb9baf5002d202f320,TCN,2024-06-24_17h36.13.856,LearnStrategy,2023.2.3,Win32,59.88023952,5,1,3,-0.01944443,0.02407406,1,0,0,1.0139,rock_grid_rect_2,7,14,-1,-1,1.014,0.336111139,-0.249074088,1,0,0,2.1577,Gabbro_rect,4,2.158,0,2,0,2,0,1,,,,,,,,,,,,,
65819ebb9baf5002d202f320,TCN,2024-06-24_17h36.13.856,LearnStrategy,2023.2.3,Win32,59.88023952,5,1,4,0.027777778,0.001851859,1,0,0,0.9878,rock_grid_rect_2,3,16,-1,-1,0.988,-0.078703704,-0.415740755,1,0,0,2.8201,Pegmatite_rect,6,2.82,0,3,0,3,0,1,,,,,,,,,,,,,
65819ebb9baf5002d202f320,TCN,2024-06-24_17h36.13.856,LearnStrategy,2023.2.3,Win32,59.88023952,5,1,5,-0.012036995,0.012962942,1,0,0,1.1145,rock_grid_rect_2,5,08,-1,-1,1.114,-0.454629616,-0.378703718,1,0,0,1.1593,Obsidian_rect,5,1.159,1,4,0,4,0,1,,,,,,,,,,,,,
65819ebb9baf5002d202f320,TCN,2024-06-24_17h36.13.856,LearnStrategy,2023.2.3,Win32,59.88023952,5,1,6,0.002777806,-0.01203703,1,0,0,1.1642,rock_grid_rect_2,6,09,-1,-1,1.164,-0.071296268,-0.413888931,1,0,0,3.4585,Pegmatite_rect,6,3.458,1,5,0,5,0,1,,,,,,,,,,,,,
65819ebb9baf5002d202f320,TCN,2024-06-24_17h36.13.856,LearnStrategy,2023.2.3,Win32,59.88023952,5,1,7,0.002777806,0.01666666,1,0,0,0.9142,rock_grid_rect_2,4,11,-1,-1,0.914,-0.130555541,-0.237037023,1,0,0,1.11,Basalt_rect,2,1.11,0,6,0,6,0,1,,,,,,,,,,,,,
65819ebb9baf5002d202f320,TCN,2024-06-24_17h36.13.856,LearnStrategy,2023.2.3,Win32,59.88023952,5,1,8,0.038888931,-0.013888889,1,0,0,1.1475,rock_grid_rect_2,8,13,-1,-1,1.147,0.309259344,-0.398148148,1,0,0,1.7095,Pumice_rect,8,1.709,1,7,0,7,0,1,,,,,,,,,,,,,
65819ebb9baf5002d202f320,TCN,2024-06-24_17h36.13.856,LearnStrategy,2023.2.3,Win32,59.88023952,5,1,9,-0.003703718,-0.012962977,1,0,0,1.0306,rock_grid_rect_2,2,11,-1,-1,1.031,-0.097222222,-0.25,1,0,0,1.177,Basalt_rect,2,1.177,1,8,0,8,0,1,,,,,,,,,,,,,
65819ebb9baf5002d202f320,TCN,2024-06-24_17h36.13.856,LearnStrategy,2023.2.3,Win32,59.88023952,5,1,10,-0.010185171,-0.014814836,1,0,0,0.9646,rock_grid_rect_2,4,16,-1,-1,0.965,-0.329629616,-0.261111153,1,0,0,4.0901,Andesite_rect,1,4.09,0,9,0,9,0,1,,,,,,,,,,,,,
65819ebb9baf5002d202f320,TCN,2024-06-24_17h36.13.856,LearnStrategy,2023.2.3,Win32,59.88023952,5,1,11,0.049074102,0.010185171,1,0,0,0.9469,rock_grid_rect_2,3,15,-1,-1,0.947,-0.058333291,-0.419444473,1,0,0,2.4916,Pegmatite_rect,6,2.492,0,10,0,10,0,1,,,,,,,,,,,,,
65819ebb9baf5002d202f320,TCN,2024-06-24_17h36.13.856,LearnStrategy,2023.2.3,Win32,59.88023952,5,1,12,0.021296325,0.009259259,1,0,0,1.0969,rock_grid_rect_2,6,15,-1,-1,1.097,0.099074116,-0.387037065,1,0,0,1.4094,Peridotite_rect,7,1.409,0,11,0,11,0,1,,,,,,,,,,,,,
65819ebb9baf5002d202f320,TCN,2024-06-24_17h36.13.856,LearnStrategy,2023.2.3,Win32,59.88023952,5,1,13,0.029629672,-0.008333347,1,0,0,1.1972,rock_grid_rect_2,2,10,-1,-1,1.197,-0.360185164,-0.409259302,1,0,0,1.227,Obsidian_rect,5,1.227,0,12,0,12,0,1,,,,,,,,,,,,,
65819ebb9baf5002d202f320,TCN,2024-06-24_17h36.13.856,LearnStrategy,2023.2.3,Win32,59.88023952,5,1,14,0.045370384,0.009259259,1,0,0,1.2141,rock_grid_rect_2,8,15,-1,-1,1.214,0.332407492,-0.390740783,1,0,0,1.1266,Pumice_rect,8,1.127,1,13,0,13,0,1,,,,,,,,,,,,,
65819ebb9baf5002d202f320,TCN,2024-06-24_17h36.13.856,LearnStrategy,2023.2.3,Win32,59.88023952,5,1,15,-0.000925912,0.01203703,1,0,0,0.9648,rock_grid_rect_2,1,07,-1,-1,0.965,0.155555584,-0.262037065,1,0,0,3.1417,Diorite_rect,3,3.142,0,14,0,14,0,1,,,,,,,,,,,,,
65819ebb9baf5002d202f320,TCN,2024-06-24_17h36.13.856,LearnStrategy,2023.2.3,Win32,59.88023952,5,1,16,0.011111153,-0.005555577,1,0,0,0.964,rock_grid_rect_2,1,03,-1,-1,0.964,-0.137962977,-0.236111111,1,0,0,3.6255,Basalt_rect,2,3.626,0,15,0,15,0,1,,,,,,,,,,,,,
65819ebb9baf5002d202f320,TCN,2024-06-24_17h36.13.856,LearnStrategy,2023.2.3,Win32,59.88023952,5,2,1,,,,,,,,8,09,,,,,,,,,,,8,1.726,1,,,,,,0.405555584,-0.419444473,1,0,0,1.7262,Pumice_rect,0,0,0,0,1,
65819ebb9baf5002d202f320,TCN,2024-06-24_17h36.13.856,LearnStrategy,2023.2.3,Win32,59.88023952,5,2,2,,,,,,,,1,05,,,,,,,,,,,1,6.208,1,,,,,,-0.339814822,-0.264814801,1,0,0,6.2085,Andesite_rect,1,0,1,0,1,
65819ebb9baf5002d202f320,TCN,2024-06-24_17h36.13.856,LearnStrategy,2023.2.3,Win32,59.88023952,5,2,3,,,,,,,,2,09,,,,,,,,,,,4,1.868,0,,,,,,0.386111083,-0.244444459,1,0,0,1.8684,Gabbro_rect,2,0,2,0,1,
65819ebb9baf5002d202f320,TCN,2024-06-24_17h36.13.856,LearnStrategy,2023.2.3,Win32,59.88023952,5,2,4,,,,,,,,7,16,,,,,,,,,,,6,2.476,0,,,,,,-0.080555527,-0.388888889,1,0,0,2.4756,Pegmatite_rect,3,0,3,0,1,
65819ebb9baf5002d202f320,TCN,2024-06-24_17h36.13.856,LearnStrategy,2023.2.3,Win32,59.88023952,5,2,5,,,,,,,,4,14,,,,,,,,,,,3,3.192,0,,,,,,0.147222236,-0.262037065,1,0,0,3.1922,Diorite_rect,4,0,4,0,1,
65819ebb9baf5002d202f320,TCN,2024-06-24_17h36.13.856,LearnStrategy,2023.2.3,Win32,59.88023952,5,2,6,,,,,,,,5,02,,,,,,,,,,,5,2.659,1,,,,,,-0.373148141,-0.400925954,1,0,0,2.6587,Obsidian_rect,5,0,5,0,1,
65819ebb9baf5002d202f320,TCN,2024-06-24_17h36.13.856,LearnStrategy,2023.2.3,Win32,59.88023952,5,2,7,,,,,,,,5,16,,,,,,,,,,,5,0.993,1,,,,,,-0.372222229,-0.395370413,1,0,0,0.9926,Obsidian_rect,6,0,6,0,1,
65819ebb9baf5002d202f320,TCN,2024-06-24_17h36.13.856,LearnStrategy,2023.2.3,Win32,59.88023952,5,2,8,,,,,,,,3,06,,,,,,,,,,,4,3.009,0,,,,,,0.362962935,-0.25,1,0,0,3.0094,Gabbro_rect,7,0,7,0,1,
65819ebb9baf5002d202f320,TCN,2024-06-24_17h36.13.856,LearnStrategy,2023.2.3,Win32,59.88023952,5,2,9,,,,,,,,4,05,,,,,,,,,,,3,2.26,0,,,,,,0.212037051,-0.250925912,1,0,0,2.2603,Diorite_rect,8,0,8,0,1,
65819ebb9baf5002d202f320,TCN,2024-06-24_17h36.13.856,LearnStrategy,2023.2.3,Win32,59.88023952,5,2,10,,,,,,,,7,02,,,,,,,,,,,7,1.352,1,,,,,,0.126851894,-0.404629672,1,0,0,1.3525,Peridotite_rect,9,0,9,0,1,
65819ebb9baf5002d202f320,TCN,2024-06-24_17h36.13.856,LearnStrategy,2023.2.3,Win32,59.88023952,5,2,11,,,,,,,,8,08,,,,,,,,,,,8,1.278,1,,,,,,0.323148233,-0.408333319,1,0,0,1.2775,Pumice_rect,10,0,10,0,1,
65819ebb9baf5002d202f320,TCN,2024-06-24_17h36.13.856,LearnStrategy,2023.2.3,Win32,59.88023952,5,2,12,,,,,,,,1,14,,,,,,,,,,,1,5.123,1,,,,,,-0.385185171,-0.255555541,1,0,0,5.1235,Andesite_rect,11,0,11,0,1,
65819ebb9baf5002d202f320,TCN,2024-06-24_17h36.13.856,LearnStrategy,2023.2.3,Win32,59.88023952,5,2,13,,,,,,,,2,16,,,,,,,,,,,8,1.293,0,,,,,,0.37962963,-0.404629672,1,0,0,1.2926,Pumice_rect,12,0,12,0,1,
65819ebb9baf5002d202f320,TCN,2024-06-24_17h36.13.856,LearnStrategy,2023.2.3,Win32,59.88023952,5,2,14,,,,,,,,6,07,,,,,,,,,,,7,1.047,0,,,,,,0.207407422,-0.391666695,1,0,0,1.0469,Peridotite_rect,13,0,13,0,1,
65819ebb9baf5002d202f320,TCN,2024-06-24_17h36.13.856,LearnStrategy,2023.2.3,Win32,59.88023952,5,2,15,,,,,,,,3,13,,,,,,,,,,,4,1.56,0,,,,,,0.342592593,-0.266666695,1,0,0,1.5599,Gabbro_rect,14,0,14,0,1,
65819ebb9baf5002d202f320,TCN,2024-06-24_17h36.13.856,LearnStrategy,2023.2.3,Win32,59.88023952,5,2,16,,,,,,,,6,16,,,,,,,,,,,6,10.286,1,,,,,,-0.148148148,-0.393518519,1,0,0,10.2858,Pegmatite_rect,15,0,15,0,1,
65819ebb9baf5002d202f320,TCN,2024-06-24_17h36.13.856,LearnStrategy,2023.2.3,Win32,59.88023952,6,1,1,0.031481496,-0.01666666,1,0,0,1.0973,rock_grid_rect_2,4,12,-1,-1,1.097,0.470370399,-0.258333347,1,0,0,5.4317,Gabbro_rect,4,5.432,1,0,0,0,0,1,,,,,,,,,,,,,
65819ebb9baf5002d202f320,TCN,2024-06-24_17h36.13.856,LearnStrategy,2023.2.3,Win32,59.88023952,6,1,2,-0.090740698,0.003703683,1,0,0,1.0345,rock_grid_rect_2,5,06,-1,-1,1.034,-0.306481467,-0.392592607,1,0,0,1.1038,Obsidian_rect,5,1.104,1,1,0,1,0,1,,,,,,,,,,,,,
65819ebb9baf5002d202f320,TCN,2024-06-24_17h36.13.856,LearnStrategy,2023.2.3,Win32,59.88023952,6,1,3,0.042592578,-0.023148148,1,0,0,1.1307,rock_grid_rect_2,8,06,-1,-1,1.131,0.392592677,-0.421296296,1,0,0,1.0699,Pumice_rect,8,1.07,1,2,0,2,0,1,,,,,,,,,,,,,
65819ebb9baf5002d202f320,TCN,2024-06-24_17h36.13.856,LearnStrategy,2023.2.3,Win32,59.88023952,6,1,4,0.032407407,-0.022222236,1,0,0,1.2646,rock_grid_rect_2,3,09,-1,-1,1.265,0.058333362,-0.401851866,1,0,0,1.3309,Peridotite_rect,7,1.331,0,3,0,3,0,1,,,,,,,,,,,,,
65819ebb9baf5002d202f320,TCN,2024-06-24_17h36.13.856,LearnStrategy,2023.2.3,Win32,59.88023952,6,1,5,-0.005555541,-0.012962977,1,0,0,1.0146,rock_grid_rect_2,4,09,-1,-1,1.015,-0.099999958,-0.421296296,1,0,0,2.6937,Pegmatite_rect,6,2.694,0,4,0,4,0,1,,,,,,,,,,,,,
65819ebb9baf5002d202f320,TCN,2024-06-24_17h36.13.856,LearnStrategy,2023.2.3,Win32,59.88023952,6,1,6,0.026851866,0.014814801,1,0,0,1.0867,rock_grid_rect_2,8,02,-1,-1,1.087,0.384259259,-0.400000042,1,0,0,0.9637,Pumice_rect,8,0.964,1,5,0,5,0,1,,,,,,,,,,,,,
65819ebb9baf5002d202f320,TCN,2024-06-24_17h36.13.856,LearnStrategy,2023.2.3,Win32,59.88023952,6,1,7,-0.074999986,-0.022222236,1,0,0,0.9978,rock_grid_rect_2,1,02,-1,-1,0.998,-0.311111097,-0.251851894,1,0,0,4.7906,Andesite_rect,1,4.791,1,6,0,6,0,1,,,,,,,,,,,,,
65819ebb9baf5002d202f320,TCN,2024-06-24_17h36.13.856,LearnStrategy,2023.2.3,Win32,59.88023952,6,1,8,0.016666695,0.00462963,1,0,0,1.1639,rock_grid_rect_2,6,06,-1,-1,1.164,-0.061111097,-0.416666667,1,0,0,1.3025,Pegmatite_rect,6,1.303,1,7,0,7,0,1,,,,,,,,,,,,,
65819ebb9baf5002d202f320,TCN,2024-06-24_17h36.13.856,LearnStrategy,2023.2.3,Win32,59.88023952,6,1,9,0.010185171,-0.01203703,1,0,0,1.0381,rock_grid_rect_2,3,07,-1,-1,1.038,0.055555556,-0.381481524,1,0,0,1.4375,Peridotite_rect,7,1.438,0,8,0,8,0,1,,,,,,,,,,,,,
65819ebb9baf5002d202f320,TCN,2024-06-24_17h36.13.856,LearnStrategy,2023.2.3,Win32,59.88023952,6,1,10,0.026851866,-0.009259259,1,0,0,1.1478,rock_grid_rect_2,2,14,-1,-1,1.148,0.463888945,-0.401851866,1,0,0,3.4258,Pumice_rect,8,3.426,0,9,0,9,0,1,,,,,,,,,,,,,
65819ebb9baf5002d202f320,TCN,2024-06-24_17h36.13.856,LearnStrategy,2023.2.3,Win32,59.88023952,6,1,11,0.017592607,0.0074074,1,0,0,1.064,rock_grid_rect_2,6,08,-1,-1,1.064,0.05740745,-0.387962977,1,0,0,2.0593,Peridotite_rect,7,2.059,0,10,0,10,0,1,,,,,,,,,,,,,
65819ebb9baf5002d202f320,TCN,2024-06-24_17h36.13.856,LearnStrategy,2023.2.3,Win32,59.88023952,6,1,12,0.02870369,-0.01203703,1,0,0,1.531,rock_grid_rect_2,7,10,-1,-1,1.531,0.095370399,-0.398148148,1,0,0,1.2758,Peridotite_rect,7,1.276,1,11,0,11,0,1,,,,,,,,,,,,,
65819ebb9baf5002d202f320,TCN,2024-06-24_17h36.13.856,LearnStrategy,2023.2.3,Win32,59.88023952,6,1,13,-0.000925912,0.006481489,1,0,0,0.9474,rock_grid_rect_2,1,01,-1,-1,0.947,0.316666638,-0.25462963,1,0,0,3.6423,Gabbro_rect,4,3.642,0,12,0,12,0,1,,,,,,,,,,,,,
65819ebb9baf5002d202f320,TCN,2024-06-24_17h36.13.856,LearnStrategy,2023.2.3,Win32,59.88023952,6,1,14,0.022222236,-0.001851859,1,0,0,1.1291,rock_grid_rect_2,5,05,-1,-1,1.129,-0.372222229,-0.385185171,1,0,0,1.4102,Obsidian_rect,5,1.41,1,13,0,13,0,1,,,,,,,,,,,,,
65819ebb9baf5002d202f320,TCN,2024-06-24_17h36.13.856,LearnStrategy,2023.2.3,Win32,59.88023952,6,1,15,0.017592607,-0.017592607,1,0,0,1.2314,rock_grid_rect_2,7,13,-1,-1,1.231,0.381481453,-0.250925912,1,0,0,3.3929,Gabbro_rect,4,3.393,0,14,0,14,0,1,,,,,,,,,,,,,
65819ebb9baf5002d202f320,TCN,2024-06-24_17h36.13.856,LearnStrategy,2023.2.3,Win32,59.88023952,6,1,16,-0.000925912,-0.005555577,1,0,0,1.097,rock_grid_rect_2,2,04,-1,-1,1.097,-0.042592578,-0.235185199,1,0,0,1.41,Basalt_rect,2,1.41,1,15,0,15,0,1,,,,,,,,,,,,,
65819ebb9baf5002d202f320,TCN,2024-06-24_17h36.13.856,LearnStrategy,2023.2.3,Win32,59.88023952,6,2,1,,,,,,,,5,09,,,,,,,,,,,5,0.996,1,,,,,,-0.324999986,-0.407407407,1,0,0,0.9964,Obsidian_rect,0,0,0,0,1,
65819ebb9baf5002d202f320,TCN,2024-06-24_17h36.13.856,LearnStrategy,2023.2.3,Win32,59.88023952,6,2,2,,,,,,,,8,03,,,,,,,,,,,8,1.096,1,,,,,,0.371296353,-0.388888889,1,0,0,1.0956,Pumice_rect,1,0,1,0,1,
65819ebb9baf5002d202f320,TCN,2024-06-24_17h36.13.856,LearnStrategy,2023.2.3,Win32,59.88023952,6,2,3,,,,,,,,6,12,,,,,,,,,,,7,2.744,0,,,,,,0.187037079,-0.400000042,1,0,0,2.744,Peridotite_rect,2,0,2,0,1,
65819ebb9baf5002d202f320,TCN,2024-06-24_17h36.13.856,LearnStrategy,2023.2.3,Win32,59.88023952,6,2,4,,,,,,,,5,12,,,,,,,,,,,5,0.994,1,,,,,,-0.355555534,-0.39907406,1,0,0,0.9935,Obsidian_rect,3,0,3,0,1,
65819ebb9baf5002d202f320,TCN,2024-06-24_17h36.13.856,LearnStrategy,2023.2.3,Win32,59.88023952,6,2,5,,,,,,,,4,13,,,,,,,,,,,6,4.974,0,,,,,,-0.115740741,-0.387037065,1,0,0,4.974,Pegmatite_rect,4,0,4,0,1,
65819ebb9baf5002d202f320,TCN,2024-06-24_17h36.13.856,LearnStrategy,2023.2.3,Win32,59.88023952,6,2,6,,,,,,,,7,08,,,,,,,,,,,4,1.11,0,,,,,,0.291666667,-0.236111111,1,0,0,1.1099,Gabbro_rect,5,0,5,0,1,
65819ebb9baf5002d202f320,TCN,2024-06-24_17h36.13.856,LearnStrategy,2023.2.3,Win32,59.88023952,6,2,7,,,,,,,,4,01,,,,,,,,,,,1,3.349,0,,,,,,-0.385185171,-0.256481524,1,0,0,3.3487,Andesite_rect,6,0,6,0,1,
65819ebb9baf5002d202f320,TCN,2024-06-24_17h36.13.856,LearnStrategy,2023.2.3,Win32,59.88023952,6,2,8,,,,,,,,1,16,,,,,,,,,,,3,6.98,0,,,,,,0.10092594,-0.244444459,1,0,0,6.98,Diorite_rect,7,0,7,0,1,
65819ebb9baf5002d202f320,TCN,2024-06-24_17h36.13.856,LearnStrategy,2023.2.3,Win32,59.88023952,6,2,9,,,,,,,,2,08,,,,,,,,,,,2,1.575,1,,,,,,-0.128703718,-0.270370413,1,0,0,1.5747,Basalt_rect,8,0,8,0,1,
65819ebb9baf5002d202f320,TCN,2024-06-24_17h36.13.856,LearnStrategy,2023.2.3,Win32,59.88023952,6,2,10,,,,,,,,6,13,,,,,,,,,,,7,1.776,0,,,,,,0.060185185,-0.392592607,1,0,0,1.7756,Peridotite_rect,9,0,9,0,1,
65819ebb9baf5002d202f320,TCN,2024-06-24_17h36.13.856,LearnStrategy,2023.2.3,Win32,59.88023952,6,2,11,,,,,,,,1,09,,,,,,,,,,,2,2.006,0,,,,,,-0.12962963,-0.266666695,1,0,0,2.0061,Basalt_rect,10,0,10,0,1,
65819ebb9baf5002d202f320,TCN,2024-06-24_17h36.13.856,LearnStrategy,2023.2.3,Win32,59.88023952,6,2,12,,,,,,,,3,02,,,,,,,,,,,4,3.052,0,,,,,,0.348148205,-0.259259259,1,0,0,3.0522,Gabbro_rect,11,0,11,0,1,
65819ebb9baf5002d202f320,TCN,2024-06-24_17h36.13.856,LearnStrategy,2023.2.3,Win32,59.88023952,6,2,13,,,,,,,,2,01,,,,,,,,,,,2,3.775,1,,,,,,-0.116666653,-0.260185171,1,0,0,3.7752,Basalt_rect,12,0,12,0,1,
65819ebb9baf5002d202f320,TCN,2024-06-24_17h36.13.856,LearnStrategy,2023.2.3,Win32,59.88023952,6,2,14,,,,,,,,8,05,,,,,,,,,,,8,1.11,1,,,,,,0.346296381,-0.381481524,1,0,0,1.1098,Pumice_rect,13,0,13,0,1,
65819ebb9baf5002d202f320,TCN,2024-06-24_17h36.13.856,LearnStrategy,2023.2.3,Win32,59.88023952,6,2,15,,,,,,,,3,14,,,,,,,,,,,7,1.094,0,,,,,,0.097222222,-0.408333319,1,0,0,1.0942,Peridotite_rect,14,0,14,0,1,
65819ebb9baf5002d202f320,TCN,2024-06-24_17h36.13.856,LearnStrategy,2023.2.3,Win32,59.88023952,6,2,16,,,,,,,,7,04,,,,,,,,,,,7,1.311,1,,,,,,0.068518533,-0.39444443,1,0,0,1.3112,Peridotite_rect,15,0,15,0,1,
65819ebb9baf5002d202f320,TCN,2024-06-24_17h36.13.856,LearnStrategy,2023.2.3,Win32,59.88023952,7,1,1,0.021296325,-0.003703718,1,0,0,1.1475,rock_grid_rect_2,8,16,-1,-1,1.148,0.358333305,-0.397222236,1,0,0,1.0426,Pumice_rect,8,1.043,1,0,0,0,0,1,,,,,,,,,,,,,
65819ebb9baf5002d202f320,TCN,2024-06-24_17h36.13.856,LearnStrategy,2023.2.3,Win32,59.88023952,7,1,2,0.012962977,-0.014814836,1,0,0,1.0645,rock_grid_rect_2,3,16,-1,-1,1.064,0.065740727,-0.243518547,1,0,0,3.2577,Diorite_rect,3,3.258,1,1,0,1,0,1,,,,,,,,,,,,,
65819ebb9baf5002d202f320,TCN,2024-06-24_17h36.13.856,LearnStrategy,2023.2.3,Win32,59.88023952,7,1,3,-0.045370384,0.021296289,1,0,0,0.9305,rock_grid_rect_2,5,08,-1,-1,0.931,-0.363888882,-0.411111125,1,0,0,1.7437,Obsidian_rect,5,1.744,1,2,0,2,0,1,,,,,,,,,,,,,
65819ebb9baf5002d202f320,TCN,2024-06-24_17h36.13.856,LearnStrategy,2023.2.3,Win32,59.88023952,7,1,4,-0.026851866,-0.00462963,1,0,0,0.9307,rock_grid_rect_2,6,09,-1,-1,0.931,0.09629631,-0.411111125,1,0,0,1.6273,Peridotite_rect,7,1.627,0,3,0,3,0,1,,,,,,,,,,,,,
65819ebb9baf5002d202f320,TCN,2024-06-24_17h36.13.856,LearnStrategy,2023.2.3,Win32,59.88023952,7,1,5,-0.029629601,-0.009259259,1,0,0,0.9812,rock_grid_rect_2,2,14,-1,-1,0.981,-0.099074046,-0.243518547,1,0,0,3.3757,Basalt_rect,2,3.376,1,4,0,4,0,1,,,,,,,,,,,,,
65819ebb9baf5002d202f320,TCN,2024-06-24_17h36.13.856,LearnStrategy,2023.2.3,Win32,59.88023952,7,1,6,-0.012962977,0.002777771,1,0,0,0.9135,rock_grid_rect_2,4,16,-1,-1,0.913,0.383333418,-0.251851894,1,0,0,2.8426,Gabbro_rect,4,2.843,1,5,0,5,0,1,,,,,,,,,,,,,
65819ebb9baf5002d202f320,TCN,2024-06-24_17h36.13.856,LearnStrategy,2023.2.3,Win32,59.88023952,7,1,7,0.016666695,-0.013888889,1,0,0,0.9635,rock_grid_rect_2,3,07,-1,-1,0.964,0.088888875,-0.256481524,1,0,0,2.3622,Diorite_rect,3,2.362,1,6,0,6,0,1,,,,,,,,,,,,,
65819ebb9baf5002d202f320,TCN,2024-06-24_17h36.13.856,LearnStrategy,2023.2.3,Win32,59.88023952,7,1,8,-0.008333347,-0.002777771,1,0,0,1.003,rock_grid_rect_2,1,07,-1,-1,1.003,-0.082407422,-0.389814801,1,0,0,3.2694,Pegmatite_rect,6,3.269,0,7,0,7,0,1,,,,,,,,,,,,,
65819ebb9baf5002d202f320,TCN,2024-06-24_17h36.13.856,LearnStrategy,2023.2.3,Win32,59.88023952,7,1,9,-0.012036995,0.011111118,1,0,0,1.014,rock_grid_rect_2,6,06,-1,-1,1.014,0.102777764,-0.421296296,1,0,0,1.3686,Peridotite_rect,7,1.369,0,8,0,8,0,1,,,,,,,,,,,,,
65819ebb9baf5002d202f320,TCN,2024-06-24_17h36.13.856,LearnStrategy,2023.2.3,Win32,59.88023952,7,1,10,-0.04351849,-0.00462963,1,0,0,1.1212,rock_grid_rect_2,7,13,-1,-1,1.121,0.318518603,-0.228703746,1,0,0,2.9712,Gabbro_rect,4,2.971,0,9,0,9,0,1,,,,,,,,,,,,,
65819ebb9baf5002d202f320,TCN,2024-06-24_17h36.13.856,LearnStrategy,2023.2.3,Win32,59.88023952,7,1,11,-0.040740755,-0.002777771,1,0,0,0.9974,rock_grid_rect_2,1,01,-1,-1,0.997,0.335185157,-0.261111153,1,0,0,3.3756,Gabbro_rect,4,3.376,0,10,0,10,0,1,,,,,,,,,,,,,
65819ebb9baf5002d202f320,TCN,2024-06-24_17h36.13.856,LearnStrategy,2023.2.3,Win32,59.88023952,7,1,12,-0.098148134,-0.01203703,1,0,0,0.9311,rock_grid_rect_2,4,10,-1,-1,0.931,0.381481453,-0.255555541,1,0,0,3.8077,Gabbro_rect,4,3.808,1,11,0,11,0,1,,,,,,,,,,,,,
65819ebb9baf5002d202f320,TCN,2024-06-24_17h36.13.856,LearnStrategy,2023.2.3,Win32,59.88023952,7,1,13,0.031481496,0.006481489,1,0,0,1.0145,rock_grid_rect_2,5,11,-1,-1,1.014,-0.304629608,-0.393518519,1,0,0,1.2436,Obsidian_rect,5,1.244,1,12,0,12,0,1,,,,,,,,,,,,,
65819ebb9baf5002d202f320,TCN,2024-06-24_17h36.13.856,LearnStrategy,2023.2.3,Win32,59.88023952,7,1,14,0.010185171,-0.003703718,1,0,0,0.9971,rock_grid_rect_2,7,15,-1,-1,0.997,0.112963005,-0.388888889,1,0,0,1.5707,Peridotite_rect,7,1.571,1,13,0,13,0,1,,,,,,,,,,,,,
65819ebb9baf5002d202f320,TCN,2024-06-24_17h36.13.856,LearnStrategy,2023.2.3,Win32,59.88023952,7,1,15,-0.013888889,-0.00462963,1,0,0,0.9203,rock_grid_rect_2,8,04,-1,-1,0.92,0.325000057,-0.378703718,1,0,0,1.0381,Pumice_rect,8,1.038,1,14,0,14,0,1,,,,,,,,,,,,,
65819ebb9baf5002d202f320,TCN,2024-06-24_17h36.13.856,LearnStrategy,2023.2.3,Win32,59.88023952,7,1,16,0.012037065,-0.008333347,1,0,0,0.9483,rock_grid_rect_2,2,06,-1,-1,0.948,-0.094444416,-0.238888917,1,0,0,1.3938,Basalt_rect,2,1.394,1,15,0,15,0,1,,,,,,,,,,,,,
65819ebb9baf5002d202f320,TCN,2024-06-24_17h36.13.856,LearnStrategy,2023.2.3,Win32,59.88023952,7,2,1,,,,,,,,5,14,,,,,,,,,,,5,2.025,1,,,,,,-0.298148155,-0.421296296,1,0,0,2.0253,Obsidian_rect,0,0,0,0,1,
65819ebb9baf5002d202f320,TCN,2024-06-24_17h36.13.856,LearnStrategy,2023.2.3,Win32,59.88023952,7,2,2,,,,,,,,6,16,,,,,,,,,,,7,1.953,0,,,,,,0.141666695,-0.391666695,1,0,0,1.9527,Peridotite_rect,1,0,1,0,1,
65819ebb9baf5002d202f320,TCN,2024-06-24_17h36.13.856,LearnStrategy,2023.2.3,Win32,59.88023952,7,2,3,,,,,,,,4,08,,,,,,,,,,,4,6.389,1,,,,,,0.345370399,-0.24537037,1,0,0,6.3888,Gabbro_rect,2,0,2,0,1,
65819ebb9baf5002d202f320,TCN,2024-06-24_17h36.13.856,LearnStrategy,2023.2.3,Win32,59.88023952,7,2,4,,,,,,,,1,16,,,,,,,,,,,1,2.399,1,,,,,,-0.323148127,-0.259259259,1,0,0,2.3994,Andesite_rect,3,0,3,0,1,
65819ebb9baf5002d202f320,TCN,2024-06-24_17h36.13.856,LearnStrategy,2023.2.3,Win32,59.88023952,7,2,5,,,,,,,,2,09,,,,,,,,,,,2,1.694,1,,,,,,-0.099999958,-0.248148176,1,0,0,1.6939,Basalt_rect,4,0,4,0,1,
65819ebb9baf5002d202f320,TCN,2024-06-24_17h36.13.856,LearnStrategy,2023.2.3,Win32,59.88023952,7,2,6,,,,,,,,8,09,,,,,,,,,,,8,1.877,1,,,,,,0.351851852,-0.391666695,1,0,0,1.8769,Pumice_rect,5,0,5,0,1,
65819ebb9baf5002d202f320,TCN,2024-06-24_17h36.13.856,LearnStrategy,2023.2.3,Win32,59.88023952,7,2,7,,,,,,,,8,03,,,,,,,,,,,8,1.909,1,,,,,,0.412963019,-0.410185213,1,0,0,1.9095,Pumice_rect,6,0,6,0,1,
65819ebb9baf5002d202f320,TCN,2024-06-24_17h36.13.856,LearnStrategy,2023.2.3,Win32,59.88023952,7,2,8,,,,,,,,6,10,,,,,,,,,,,3,6.383,0,,,,,,0.101851852,-0.262962977,1,0,0,6.3832,Diorite_rect,7,0,7,0,1,
65819ebb9baf5002d202f320,TCN,2024-06-24_17h36.13.856,LearnStrategy,2023.2.3,Win32,59.88023952,7,2,9,,,,,,,,5,16,,,,,,,,,,,5,0.952,1,,,,,,-0.390740748,-0.408333319,1,0,0,0.9518,Obsidian_rect,8,0,8,0,1,
65819ebb9baf5002d202f320,TCN,2024-06-24_17h36.13.856,LearnStrategy,2023.2.3,Win32,59.88023952,7,2,10,,,,,,,,7,16,,,,,,,,,,,4,6.552,0,,,,,,0.328703704,-0.25,1,0,0,6.5518,Gabbro_rect,9,0,9,0,1,
65819ebb9baf5002d202f320,TCN,2024-06-24_17h36.13.856,LearnStrategy,2023.2.3,Win32,59.88023952,7,2,11,,,,,,,,3,06,,,,,,,,,,,1,2.276,0,,,,,,-0.345370363,-0.26944443,1,0,0,2.2758,Andesite_rect,10,0,10,0,1,
65819ebb9baf5002d202f320,TCN,2024-06-24_17h36.13.856,LearnStrategy,2023.2.3,Win32,59.88023952,7,2,12,,,,,,,,4,01,,,,,,,,,,,3,2.526,0,,,,,,0.074074074,-0.229629658,1,0,0,2.5262,Diorite_rect,11,0,11,0,1,
65819ebb9baf5002d202f320,TCN,2024-06-24_17h36.13.856,LearnStrategy,2023.2.3,Win32,59.88023952,7,2,13,,,,,,,,1,06,,,,,,,,,,,2,1.459,0,,,,,,-0.152777778,-0.262962977,1,0,0,1.459,Basalt_rect,12,0,12,0,1,
65819ebb9baf5002d202f320,TCN,2024-06-24_17h36.13.856,LearnStrategy,2023.2.3,Win32,59.88023952,7,2,14,,,,,,,,7,12,,,,,,,,,,,7,1.476,1,,,,,,0.070370356,-0.411111125,1,0,0,1.4755,Peridotite_rect,13,0,13,0,1,
65819ebb9baf5002d202f320,TCN,2024-06-24_17h36.13.856,LearnStrategy,2023.2.3,Win32,59.88023952,7,2,15,,,,,,,,3,10,,,,,,,,,,,4,4.224,0,,,,,,0.41851849,-0.25462963,1,0,0,4.2242,Gabbro_rect,14,0,14,0,1,
65819ebb9baf5002d202f320,TCN,2024-06-24_17h36.13.856,LearnStrategy,2023.2.3,Win32,59.88023952,7,2,16,,,,,,,,2,01,,,,,,,,,,,2,1.193,1,,,,,,-0.106481481,-0.261111153,1,0,0,1.1934,Basalt_rect,15,0,15,0,1,
65819ebb9baf5002d202f320,TCN,2024-06-24_17h36.13.856,LearnStrategy,2023.2.3,Win32,59.88023952,8,1,1,0.014814801,-0.01666666,1,0,0,1.164,rock_grid_rect_2,7,06,-1,-1,1.164,0.092592593,-0.400000042,1,0,0,1.1437,Peridotite_rect,7,1.144,1,0,0,0,0,1,,,,,,,,,,,,,
65819ebb9baf5002d202f320,TCN,2024-06-24_17h36.13.856,LearnStrategy,2023.2.3,Win32,59.88023952,8,1,2,-0.079629616,-0.000925947,1,0,0,0.9308,rock_grid_rect_2,7,14,-1,-1,0.931,-0.060185185,-0.39444443,1,0,0,1.3267,Pegmatite_rect,6,1.327,0,1,0,1,0,1,,,,,,,,,,,,,
65819ebb9baf5002d202f320,TCN,2024-06-24_17h36.13.856,LearnStrategy,2023.2.3,Win32,59.88023952,8,1,3,-0.016666624,0.001851859,1,0,0,1.0647,rock_grid_rect_2,2,11,-1,-1,1.065,-0.044444402,-0.25462963,1,0,0,1.0678,Basalt_rect,2,1.068,1,2,0,2,0,1,,,,,,,,,,,,,
65819ebb9baf5002d202f320,TCN,2024-06-24_17h36.13.856,LearnStrategy,2023.2.3,Win32,59.88023952,8,1,4,-0.008333347,-0.022222236,1,0,0,0.9519,rock_grid_rect_2,5,07,-1,-1,0.952,-0.347222222,-0.400925954,1,0,0,1.0026,Obsidian_rect,5,1.003,1,3,0,3,0,1,,,,,,,,,,,,,
65819ebb9baf5002d202f320,TCN,2024-06-24_17h36.13.856,LearnStrategy,2023.2.3,Win32,59.88023952,8,1,5,0.013888889,-0.022222236,1,0,0,0.9811,rock_grid_rect_2,3,08,-1,-1,0.981,-0.29351849,-0.243518547,1,0,0,2.8267,Andesite_rect,1,2.827,0,4,0,4,0,1,,,,,,,,,,,,,
65819ebb9baf5002d202f320,TCN,2024-06-24_17h36.13.856,LearnStrategy,2023.2.3,Win32,59.88023952,8,1,6,0.030555584,0,1,0,0,1.0472,rock_grid_rect_2,2,04,-1,-1,1.047,-0.040740755,-0.240740741,1,0,0,1.1763,Basalt_rect,2,1.176,1,5,0,5,0,1,,,,,,,,,,,,,
65819ebb9baf5002d202f320,TCN,2024-06-24_17h36.13.856,LearnStrategy,2023.2.3,Win32,59.88023952,8,1,7,-0.00462963,0.001851859,1,0,0,1.0146,rock_grid_rect_2,8,13,-1,-1,1.015,0.323148233,-0.380555541,1,0,0,1.1933,Pumice_rect,8,1.193,1,6,0,6,0,1,,,,,,,,,,,,,
65819ebb9baf5002d202f320,TCN,2024-06-24_17h36.13.856,LearnStrategy,2023.2.3,Win32,59.88023952,8,1,8,0.012037065,-0.020370377,1,0,0,1.431,rock_grid_rect_2,1,02,-1,-1,1.431,0.378703788,-0.398148148,1,0,0,2.0586,Pumice_rect,8,2.059,0,7,0,7,0,1,,,,,,,,,,,,,
65819ebb9baf5002d202f320,TCN,2024-06-24_17h36.13.856,LearnStrategy,2023.2.3,Win32,59.88023952,8,1,9,-0.147222236,0.008333312,1,0,0,1.365,rock_grid_rect_2,6,08,-1,-1,1.365,0.084259245,-0.412962949,1,0,0,1.6094,Peridotite_rect,7,1.609,0,8,0,8,0,1,,,,,,,,,,,,,
65819ebb9baf5002d202f320,TCN,2024-06-24_17h36.13.856,LearnStrategy,2023.2.3,Win32,59.88023952,8,1,10,0.023148148,-0.024074095,1,0,0,1.0808,rock_grid_rect_2,1,03,-1,-1,1.081,0.337037122,-0.256481524,1,0,0,4.381,Gabbro_rect,4,4.381,0,9,0,9,0,1,,,,,,,,,,,,,
65819ebb9baf5002d202f320,TCN,2024-06-24_17h36.13.856,LearnStrategy,2023.2.3,Win32,59.88023952,8,1,11,-0.026851866,0.00462963,1,0,0,0.8137,rock_grid_rect_2,4,12,-1,-1,0.814,0.430555556,-0.268518519,1,0,0,3.2593,Gabbro_rect,4,3.259,1,10,0,10,0,1,,,,,,,,,,,,,
65819ebb9baf5002d202f320,TCN,2024-06-24_17h36.13.856,LearnStrategy,2023.2.3,Win32,59.88023952,8,1,12,-0.001851824,-0.001851859,1,0,0,0.8971,rock_grid_rect_2,8,15,-1,-1,0.897,0.350000028,-0.406481496,1,0,0,1.1444,Pumice_rect,8,1.144,1,11,0,11,0,1,,,,,,,,,,,,,
65819ebb9baf5002d202f320,TCN,2024-06-24_17h36.13.856,LearnStrategy,2023.2.3,Win32,59.88023952,8,1,13,-0.017592607,0.023148148,1,0,0,0.8982,rock_grid_rect_2,6,05,-1,-1,0.898,0.05277782,-0.407407407,1,0,0,1.4432,Peridotite_rect,7,1.443,0,12,0,12,0,1,,,,,,,,,,,,,
65819ebb9baf5002d202f320,TCN,2024-06-24_17h36.13.856,LearnStrategy,2023.2.3,Win32,59.88023952,8,1,14,-0.084259245,0.005555541,1,0,0,0.998,rock_grid_rect_2,4,09,-1,-1,0.998,0.305555556,-0.252777806,1,0,0,4.4907,Gabbro_rect,4,4.491,1,13,0,13,0,1,,,,,,,,,,,,,
65819ebb9baf5002d202f320,TCN,2024-06-24_17h36.13.856,LearnStrategy,2023.2.3,Win32,59.88023952,8,1,15,0.015740783,0.001851859,1,0,0,0.897,rock_grid_rect_2,5,10,-1,-1,0.897,-0.349999993,-0.398148148,1,0,0,1.3275,Obsidian_rect,5,1.327,1,14,0,14,0,1,,,,,,,,,,,,,
65819ebb9baf5002d202f320,TCN,2024-06-24_17h36.13.856,LearnStrategy,2023.2.3,Win32,59.88023952,8,1,16,0.014814801,0.010185171,1,0,0,1.0309,rock_grid_rect_2,3,09,-1,-1,1.031,-0.093518504,-0.400000042,1,0,0,1.8753,Pegmatite_rect,6,1.875,0,15,0,15,0,1,,,,,,,,,,,,,
65819ebb9baf5002d202f320,TCN,2024-06-24_17h36.13.856,LearnStrategy,2023.2.3,Win32,59.88023952,8,2,1,,,,,,,,1,04,,,,,,,,,,,4,5.704,0,,,,,,0.339814787,-0.256481524,1,0,0,5.7037,Gabbro_rect,0,0,0,0,1,
65819ebb9baf5002d202f320,TCN,2024-06-24_17h36.13.856,LearnStrategy,2023.2.3,Win32,59.88023952,8,2,2,,,,,,,,2,08,,,,,,,,,,,2,1.376,1,,,,,,-0.066666638,-0.266666695,1,0,0,1.3761,Basalt_rect,1,0,1,0,1,
65819ebb9baf5002d202f320,TCN,2024-06-24_17h36.13.856,LearnStrategy,2023.2.3,Win32,59.88023952,8,2,3,,,,,,,,6,13,,,,,,,,,,,7,1.158,0,,,,,,0.08148151,-0.419444473,1,0,0,1.1584,Peridotite_rect,2,0,2,0,1,
65819ebb9baf5002d202f320,TCN,2024-06-24_17h36.13.856,LearnStrategy,2023.2.3,Win32,59.88023952,8,2,4,,,,,,,,3,02,,,,,,,,,,,3,2.71,1,,,,,,0.10555557,-0.252777806,1,0,0,2.7099,Diorite_rect,3,0,3,0,1,
65819ebb9baf5002d202f320,TCN,2024-06-24_17h36.13.856,LearnStrategy,2023.2.3,Win32,59.88023952,8,2,5,,,,,,,,5,09,,,,,,,,,,,5,1.057,1,,,,,,-0.362037023,-0.39907406,1,0,0,1.0566,Obsidian_rect,4,0,4,0,1,
65819ebb9baf5002d202f320,TCN,2024-06-24_17h36.13.856,LearnStrategy,2023.2.3,Win32,59.88023952,8,2,6,,,,,,,,4,03,,,,,,,,,,,4,3.381,1,,,,,,0.325000057,-0.253703718,1,0,0,3.3811,Gabbro_rect,5,0,5,0,1,
65819ebb9baf5002d202f320,TCN,2024-06-24_17h36.13.856,LearnStrategy,2023.2.3,Win32,59.88023952,8,2,7,,,,,,,,8,08,,,,,,,,,,,8,1.31,1,,,,,,0.340740769,-0.410185213,1,0,0,1.3104,Pumice_rect,6,0,6,0,1,
65819ebb9baf5002d202f320,TCN,2024-06-24_17h36.13.856,LearnStrategy,2023.2.3,Win32,59.88023952,8,2,8,,,,,,,,7,05,,,,,,,,,,,4,5.306,0,,,,,,0.353703675,-0.271296325,1,0,0,5.3059,Gabbro_rect,7,0,7,0,1,
65819ebb9baf5002d202f320,TCN,2024-06-24_17h36.13.856,LearnStrategy,2023.2.3,Win32,59.88023952,8,2,9,,,,,,,,1,14,,,,,,,,,,,1,2.331,1,,,,,,-0.378703683,-0.259259259,1,0,0,2.3307,Andesite_rect,8,0,8,0,1,
65819ebb9baf5002d202f320,TCN,2024-06-24_17h36.13.856,LearnStrategy,2023.2.3,Win32,59.88023952,8,2,10,,,,,,,,5,04,,,,,,,,,,,5,0.974,1,,,,,,-0.373148141,-0.412962949,1,0,0,0.9739,Obsidian_rect,9,0,9,0,1,
65819ebb9baf5002d202f320,TCN,2024-06-24_17h36.13.856,LearnStrategy,2023.2.3,Win32,59.88023952,8,2,11,,,,,,,,8,14,,,,,,,,,,,8,1.127,1,,,,,,0.351851852,-0.39444443,1,0,0,1.1269,Pumice_rect,10,0,10,0,1,
65819ebb9baf5002d202f320,TCN,2024-06-24_17h36.13.856,LearnStrategy,2023.2.3,Win32,59.88023952,8,2,12,,,,,,,,7,08,,,,,,,,,,,3,2.608,0,,,,,,0.10555557,-0.268518519,1,0,0,2.6081,Diorite_rect,11,0,11,0,1,
65819ebb9baf5002d202f320,TCN,2024-06-24_17h36.13.856,LearnStrategy,2023.2.3,Win32,59.88023952,8,2,13,,,,,,,,3,14,,,,,,,,,,,3,4.922,1,,,,,,0.159259302,-0.266666695,1,0,0,4.9217,Diorite_rect,12,0,12,0,1,
65819ebb9baf5002d202f320,TCN,2024-06-24_17h36.13.856,LearnStrategy,2023.2.3,Win32,59.88023952,8,2,14,,,,,,,,6,12,,,,,,,,,,,7,1.143,0,,,,,,0.155555584,-0.393518519,1,0,0,1.1433,Peridotite_rect,13,0,13,0,1,
65819ebb9baf5002d202f320,TCN,2024-06-24_17h36.13.856,LearnStrategy,2023.2.3,Win32,59.88023952,8,2,15,,,,,,,,2,16,,,,,,,,,,,8,2.476,0,,,,,,0.369444529,-0.406481496,1,0,0,2.4757,Pumice_rect,14,0,14,0,1,
65819ebb9baf5002d202f320,TCN,2024-06-24_17h36.13.856,LearnStrategy,2023.2.3,Win32,59.88023952,8,2,16,,,,,,,,4,14,,,,,,,,,,,4,1.975,1,,,,,,0.341666751,-0.270370413,1,0,0,1.9754,Gabbro_rect,15,0,15,0,1,
65819ebb9baf5002d202f320,TCN,2024-06-24_17h36.13.856,LearnStrategy,2023.2.3,Win32,59.88023952,9,1,1,0.003703718,0.01666666,1,0,0,0.6981,rock_grid_rect_2,8,06,-1,-1,0.698,0.350000028,-0.387962977,1,0,0,1.9268,Pumice_rect,8,1.927,1,0,0,0,0,1,,,,,,,,,,,,,
65819ebb9baf5002d202f320,TCN,2024-06-24_17h36.13.856,LearnStrategy,2023.2.3,Win32,59.88023952,9,1,2,0.00462963,0.008333312,1,0,0,1.1139,rock_grid_rect_2,1,10,-1,-1,1.114,-0.110185199,-0.241666653,1,0,0,1.2265,Basalt_rect,2,1.226,0,1,0,1,0,1,,,,,,,,,,,,,
65819ebb9baf5002d202f320,TCN,2024-06-24_17h36.13.856,LearnStrategy,2023.2.3,Win32,59.88023952,9,1,3,0.02407406,-0.00462963,1,0,0,0.9143,rock_grid_rect_2,7,10,-1,-1,0.914,0.155555584,-0.406481496,1,0,0,1.1757,Peridotite_rect,7,1.176,1,2,0,2,0,1,,,,,,,,,,,,,
65819ebb9baf5002d202f320,TCN,2024-06-24_17h36.13.856,LearnStrategy,2023.2.3,Win32,59.88023952,9,1,4,0.007407436,-0.006481489,1,0,0,0.9808,rock_grid_rect_2,3,15,-1,-1,0.981,0.084259245,-0.250925912,1,0,0,2.209,Diorite_rect,3,2.209,1,3,0,3,0,1,,,,,,,,,,,,,
65819ebb9baf5002d202f320,TCN,2024-06-24_17h36.13.856,LearnStrategy,2023.2.3,Win32,59.88023952,9,1,5,0.009259259,0.010185171,1,0,0,0.9636,rock_grid_rect_2,7,07,-1,-1,0.964,-0.029629601,-0.40370369,1,0,0,2.9261,Pegmatite_rect,6,2.926,0,4,0,4,0,1,,,,,,,,,,,,,
65819ebb9baf5002d202f320,TCN,2024-06-24_17h36.13.856,LearnStrategy,2023.2.3,Win32,59.88023952,9,1,6,-0.018518519,0.015740748,1,0,0,1.097,rock_grid_rect_2,6,03,-1,-1,1.097,0.187037079,-0.409259302,1,0,0,1.327,Peridotite_rect,7,1.327,0,5,0,5,0,1,,,,,,,,,,,,,
65819ebb9baf5002d202f320,TCN,2024-06-24_17h36.13.856,LearnStrategy,2023.2.3,Win32,59.88023952,9,1,7,0.017592607,-0.006481489,1,0,0,1.0144,rock_grid_rect_2,1,11,-1,-1,1.014,-0.074074074,-0.248148176,1,0,0,1.6608,Basalt_rect,2,1.661,0,6,0,6,0,1,,,,,,,,,,,,,
65819ebb9baf5002d202f320,TCN,2024-06-24_17h36.13.856,LearnStrategy,2023.2.3,Win32,59.88023952,9,1,8,0.003703718,0.011111118,1,0,0,0.8811,rock_grid_rect_2,3,11,-1,-1,0.881,0.09629631,-0.383333347,1,0,0,1.7096,Peridotite_rect,7,1.71,0,7,0,7,0,1,,,,,,,,,,,,,
65819ebb9baf5002d202f320,TCN,2024-06-24_17h36.13.856,LearnStrategy,2023.2.3,Win32,59.88023952,9,1,9,-0.025925884,0.010185171,1,0,0,0.8644,rock_grid_rect_2,2,12,-1,-1,0.864,-0.076851809,-0.228703746,1,0,0,1.2432,Basalt_rect,2,1.243,1,8,0,8,0,1,,,,,,,,,,,,,
65819ebb9baf5002d202f320,TCN,2024-06-24_17h36.13.856,LearnStrategy,2023.2.3,Win32,59.88023952,9,1,10,0.026851866,0.003703683,1,0,0,0.931,rock_grid_rect_2,4,15,-1,-1,0.931,0.309259344,-0.231481481,1,0,0,1.6272,Gabbro_rect,4,1.627,1,9,0,9,0,1,,,,,,,,,,,,,
65819ebb9baf5002d202f320,TCN,2024-06-24_17h36.13.856,LearnStrategy,2023.2.3,Win32,59.88023952,9,1,11,0.025000042,-0.022222236,1,0,0,0.9814,rock_grid_rect_2,2,10,-1,-1,0.981,-0.349999993,-0.383333347,1,0,0,1.1515,Obsidian_rect,5,1.152,0,10,0,10,0,1,,,,,,,,,,,,,
65819ebb9baf5002d202f320,TCN,2024-06-24_17h36.13.856,LearnStrategy,2023.2.3,Win32,59.88023952,9,1,12,0.00462963,-0.014814836,1,0,0,1.5336,rock_grid_rect_2,5,05,-1,-1,1.534,-0.311111097,-0.386111153,1,0,0,1.1454,Obsidian_rect,5,1.145,1,11,0,11,0,1,,,,,,,,,,,,,
65819ebb9baf5002d202f320,TCN,2024-06-24_17h36.13.856,LearnStrategy,2023.2.3,Win32,59.88023952,9,1,13,-0.010185171,-0.008333347,1,0,0,1.0209,rock_grid_rect_2,8,02,-1,-1,1.021,0.325925898,-0.378703718,1,0,0,1.9367,Pumice_rect,8,1.937,1,12,0,12,0,1,,,,,,,,,,,,,
65819ebb9baf5002d202f320,TCN,2024-06-24_17h36.13.856,LearnStrategy,2023.2.3,Win32,59.88023952,9,1,14,-0.012036995,-0.009259259,1,0,0,0.9313,rock_grid_rect_2,4,11,-1,-1,0.931,0.377777806,-0.241666653,1,0,0,1.3272,Gabbro_rect,4,1.327,1,13,0,13,0,1,,,,,,,,,,,,,
65819ebb9baf5002d202f320,TCN,2024-06-24_17h36.13.856,LearnStrategy,2023.2.3,Win32,59.88023952,9,1,15,0.026851866,-0.008333347,1,0,0,0.9144,rock_grid_rect_2,6,15,-1,-1,0.914,0.193518533,-0.418518561,1,0,0,1.9088,Peridotite_rect,7,1.909,0,14,0,14,0,1,,,,,,,,,,,,,
65819ebb9baf5002d202f320,TCN,2024-06-24_17h36.13.856,LearnStrategy,2023.2.3,Win32,59.88023952,9,1,16,-0.06759255,0.005555541,1,0,0,0.9814,rock_grid_rect_2,5,06,-1,-1,0.981,-0.341666645,-0.392592607,1,0,0,1.1266,Obsidian_rect,5,1.127,1,15,0,15,0,1,,,,,,,,,,,,,
65819ebb9baf5002d202f320,TCN,2024-06-24_17h36.13.856,LearnStrategy,2023.2.3,Win32,59.88023952,9,2,1,,,,,,,,3,12,,,,,,,,,,,6,4.908,0,,,,,,-0.117592564,-0.418518561,1,0,0,4.9082,Pegmatite_rect,0,0,0,0,1,
65819ebb9baf5002d202f320,TCN,2024-06-24_17h36.13.856,LearnStrategy,2023.2.3,Win32,59.88023952,9,2,2,,,,,,,,8,05,,,,,,,,,,,8,1.071,1,,,,,,0.371296353,-0.395370413,1,0,0,1.0705,Pumice_rect,1,0,1,0,1,
65819ebb9baf5002d202f320,TCN,2024-06-24_17h36.13.856,LearnStrategy,2023.2.3,Win32,59.88023952,9,2,3,,,,,,,,7,04,,,,,,,,,,,7,1.111,1,,,,,,0.212037051,-0.405555584,1,0,0,1.1109,Peridotite_rect,2,0,2,0,1,
65819ebb9baf5002d202f320,TCN,2024-06-24_17h36.13.856,LearnStrategy,2023.2.3,Win32,59.88023952,9,2,4,,,,,,,,1,09,,,,,,,,,,,4,2.11,0,,,,,,0.361111111,-0.257407436,1,0,0,2.1096,Gabbro_rect,3,0,3,0,1,
65819ebb9baf5002d202f320,TCN,2024-06-24_17h36.13.856,LearnStrategy,2023.2.3,Win32,59.88023952,9,2,5,,,,,,,,2,05,,,,,,,,,,,2,1.677,1,,,,,,-0.081481439,-0.259259259,1,0,0,1.6772,Basalt_rect,4,0,4,0,1,
65819ebb9baf5002d202f320,TCN,2024-06-24_17h36.13.856,LearnStrategy,2023.2.3,Win32,59.88023952,9,2,6,,,,,,,,3,13,,,,,,,,,,,7,0.994,0,,,,,,0.060185185,-0.398148148,1,0,0,0.9942,Peridotite_rect,5,0,5,0,1,
65819ebb9baf5002d202f320,TCN,2024-06-24_17h36.13.856,LearnStrategy,2023.2.3,Win32,59.88023952,9,2,7,,,,,,,,7,02,,,,,,,,,,,7,1.76,1,,,,,,0.033333319,-0.387037065,1,0,0,1.7597,Peridotite_rect,6,0,6,0,1,
65819ebb9baf5002d202f320,TCN,2024-06-24_17h36.13.856,LearnStrategy,2023.2.3,Win32,59.88023952,9,2,8,,,,,,,,6,07,,,,,,,,,,,6,1.908,1,,,,,,-0.207407422,-0.410185213,1,0,0,1.9082,Pegmatite_rect,7,0,7,0,1,
65819ebb9baf5002d202f320,TCN,2024-06-24_17h36.13.856,LearnStrategy,2023.2.3,Win32,59.88023952,9,2,9,,,,,,,,5,02,,,,,,,,,,,5,0.795,1,,,,,,-0.349999993,-0.401851866,1,0,0,0.7953,Obsidian_rect,8,0,8,0,1,
65819ebb9baf5002d202f320,TCN,2024-06-24_17h36.13.856,LearnStrategy,2023.2.3,Win32,59.88023952,9,2,10,,,,,,,,1,05,,,,,,,,,,,3,4.372,0,,,,,,0.180555556,-0.264814801,1,0,0,4.3723,Diorite_rect,9,0,9,0,1,
65819ebb9baf5002d202f320,TCN,2024-06-24_17h36.13.856,LearnStrategy,2023.2.3,Win32,59.88023952,9,2,11,,,,,,,,2,02,,,,,,,,,,,4,2.503,0,,,,,,0.341666751,-0.250925912,1,0,0,2.5034,Gabbro_rect,10,0,10,0,1,
65819ebb9baf5002d202f320,TCN,2024-06-24_17h36.13.856,LearnStrategy,2023.2.3,Win32,59.88023952,9,2,12,,,,,,,,8,10,,,,,,,,,,,8,1.504,1,,,,,,0.353703675,-0.412037037,1,0,0,1.5042,Pumice_rect,11,0,11,0,1,
65819ebb9baf5002d202f320,TCN,2024-06-24_17h36.13.856,LearnStrategy,2023.2.3,Win32,59.88023952,9,2,13,,,,,,,,6,11,,,,,,,,,,,7,0.882,0,,,,,,0.09629631,-0.404629672,1,0,0,0.882,Peridotite_rect,12,0,12,0,1,
65819ebb9baf5002d202f320,TCN,2024-06-24_17h36.13.856,LearnStrategy,2023.2.3,Win32,59.88023952,9,2,14,,,,,,,,4,05,,,,,,,,,,,1,1.575,0,,,,,,-0.347222222,-0.266666695,1,0,0,1.5755,Andesite_rect,13,0,13,0,1,
65819ebb9baf5002d202f320,TCN,2024-06-24_17h36.13.856,LearnStrategy,2023.2.3,Win32,59.88023952,9,2,15,,,,,,,,4,13,,,,,,,,,,,6,2.492,0,,,,,,-0.140740712,-0.389814801,1,0,0,2.4923,Pegmatite_rect,14,0,14,0,1,
65819ebb9baf5002d202f320,TCN,2024-06-24_17h36.13.856,LearnStrategy,2023.2.3,Win32,59.88023952,9,2,16,,,,,,,,5,12,,,,,,,,,,,5,0.805,1,,,,,,-0.351851852,-0.393518519,1,0,0,0.8054,Obsidian_rect,15,0,15,0,1,
65819ebb9baf5002d202f320,TCN,2024-06-24_17h36.13.856,LearnStrategy,2023.2.3,Win32,59.88023952,,,,,,,,,,,,,,,,,,,,,,,,,,,,,,,,,,,,,,,,,,,0
65819ebb9baf5002d202f320,TCN,2024-06-24_17h36.13.856,LearnStrategy,2023.2.3,Win32,59.88023952,,,,,,,,,,,,,,,,,,,,,,,,,,,,,,,,,,,,,,,,,,,
65819ebb9baf5002d202f320,TCN,2024-06-24_17h36.13.856,LearnStrategy,2023.2.3,Win32,59.88023952,,,,,,,,,,,3,15,1,1,,,,,,,,,,,,,,,,,,,,,,,,,,,,,
65819ebb9baf5002d202f320,TCN,2024-06-24_17h36.13.856,LearnStrategy,2023.2.3,Win32,59.88023952,,,,,,,,,,,1,10,1,2,,,,,,,,,,,,,,,,,,,,,,,,,,,,,
65819ebb9baf5002d202f320,TCN,2024-06-24_17h36.13.856,LearnStrategy,2023.2.3,Win32,59.88023952,,,,,,,,,,,4,16,1,3,,,,,,,,,,,,,,,,,,,,,,,,,,,,,
65819ebb9baf5002d202f320,TCN,2024-06-24_17h36.13.856,LearnStrategy,2023.2.3,Win32,59.88023952,,,,,,,,,,,7,14,1,4,,,,,,,,,,,,,,,,,,,,,,,,,,,,,
65819ebb9baf5002d202f320,TCN,2024-06-24_17h36.13.856,LearnStrategy,2023.2.3,Win32,59.88023952,,,,,,,,,,,3,07,1,5,,,,,,,,,,,,,,,,,,,,,,,,,,,,,
65819ebb9baf5002d202f320,TCN,2024-06-24_17h36.13.856,LearnStrategy,2023.2.3,Win32,59.88023952,,,,,,,,,,,2,12,1,6,,,,,,,,,,,,,,,,,,,,,,,,,,,,,
65819ebb9baf5002d202f320,TCN,2024-06-24_17h36.13.856,LearnStrategy,2023.2.3,Win32,59.88023952,,,,,,,,,,,2,04,1,7,,,,,,,,,,,,,,,,,,,,,,,,,,,,,
65819ebb9baf5002d202f320,TCN,2024-06-24_17h36.13.856,LearnStrategy,2023.2.3,Win32,59.88023952,,,,,,,,,,,5,08,1,8,,,,,,,,,,,,,,,,,,,,,,,,,,,,,
65819ebb9baf5002d202f320,TCN,2024-06-24_17h36.13.856,LearnStrategy,2023.2.3,Win32,59.88023952,,,,,,,,,,,1,03,2,1,,,,,,,,,,,,,,,,,,,,,,,,,,,,,
65819ebb9baf5002d202f320,TCN,2024-06-24_17h36.13.856,LearnStrategy,2023.2.3,Win32,59.88023952,,,,,,,,,,,6,05,2,2,,,,,,,,,,,,,,,,,,,,,,,,,,,,,
65819ebb9baf5002d202f320,TCN,2024-06-24_17h36.13.856,LearnStrategy,2023.2.3,Win32,59.88023952,,,,,,,,,,,6,15,2,3,,,,,,,,,,,,,,,,,,,,,,,,,,,,,
65819ebb9baf5002d202f320,TCN,2024-06-24_17h36.13.856,LearnStrategy,2023.2.3,Win32,59.88023952,,,,,,,,,,,6,03,2,4,,,,,,,,,,,,,,,,,,,,,,,,,,,,,
65819ebb9baf5002d202f320,TCN,2024-06-24_17h36.13.856,LearnStrategy,2023.2.3,Win32,59.88023952,,,,,,,,,,,8,13,2,5,,,,,,,,,,,,,,,,,,,,,,,,,,,,,
65819ebb9baf5002d202f320,TCN,2024-06-24_17h36.13.856,LearnStrategy,2023.2.3,Win32,59.88023952,,,,,,,,,,,5,07,2,6,,,,,,,,,,,,,,,,,,,,,,,,,,,,,
65819ebb9baf5002d202f320,TCN,2024-06-24_17h36.13.856,LearnStrategy,2023.2.3,Win32,59.88023952,,,,,,,,,,,5,10,2,7,,,,,,,,,,,,,,,,,,,,,,,,,,,,,
65819ebb9baf5002d202f320,TCN,2024-06-24_17h36.13.856,LearnStrategy,2023.2.3,Win32,59.88023952,,,,,,,,,,,1,01,2,8,,,,,,,,,,,,,,,,,,,,,,,,,,,,,
65819ebb9baf5002d202f320,TCN,2024-06-24_17h36.13.856,LearnStrategy,2023.2.3,Win32,59.88023952,,,,,,,,,,,2,14,3,1,,,,,,,,,,,,,,,,,,,,,,,,,,,,,
65819ebb9baf5002d202f320,TCN,2024-06-24_17h36.13.856,LearnStrategy,2023.2.3,Win32,59.88023952,,,,,,,,,,,8,02,3,2,,,,,,,,,,,,,,,,,,,,,,,,,,,,,
65819ebb9baf5002d202f320,TCN,2024-06-24_17h36.13.856,LearnStrategy,2023.2.3,Win32,59.88023952,,,,,,,,,,,6,09,3,3,,,,,,,,,,,,,,,,,,,,,,,,,,,,,
65819ebb9baf5002d202f320,TCN,2024-06-24_17h36.13.856,LearnStrategy,2023.2.3,Win32,59.88023952,,,,,,,,,,,7,06,3,4,,,,,,,,,,,,,,,,,,,,,,,,,,,,,
65819ebb9baf5002d202f320,TCN,2024-06-24_17h36.13.856,LearnStrategy,2023.2.3,Win32,59.88023952,,,,,,,,,,,6,08,3,5,,,,,,,,,,,,,,,,,,,,,,,,,,,,,
65819ebb9baf5002d202f320,TCN,2024-06-24_17h36.13.856,LearnStrategy,2023.2.3,Win32,59.88023952,,,,,,,,,,,7,15,3,6,,,,,,,,,,,,,,,,,,,,,,,,,,,,,
65819ebb9baf5002d202f320,TCN,2024-06-24_17h36.13.856,LearnStrategy,2023.2.3,Win32,59.88023952,,,,,,,,,,,3,08,3,7,,,,,,,,,,,,,,,,,,,,,,,,,,,,,
65819ebb9baf5002d202f320,TCN,2024-06-24_17h36.13.856,LearnStrategy,2023.2.3,Win32,59.88023952,,,,,,,,,,,1,11,3,8,,,,,,,,,,,,,,,,,,,,,,,,,,,,,
65819ebb9baf5002d202f320,TCN,2024-06-24_17h36.13.856,LearnStrategy,2023.2.3,Win32,59.88023952,,,,,,,,,,,5,05,4,1,,,,,,,,,,,,,,,,,,,,,,,,,,,,,
65819ebb9baf5002d202f320,TCN,2024-06-24_17h36.13.856,LearnStrategy,2023.2.3,Win32,59.88023952,,,,,,,,,,,3,11,4,2,,,,,,,,,,,,,,,,,,,,,,,,,,,,,
65819ebb9baf5002d202f320,TCN,2024-06-24_17h36.13.856,LearnStrategy,2023.2.3,Win32,59.88023952,,,,,,,,,,,8,06,4,3,,,,,,,,,,,,,,,,,,,,,,,,,,,,,
65819ebb9baf5002d202f320,TCN,2024-06-24_17h36.13.856,LearnStrategy,2023.2.3,Win32,59.88023952,,,,,,,,,,,8,16,4,4,,,,,,,,,,,,,,,,,,,,,,,,,,,,,
65819ebb9baf5002d202f320,TCN,2024-06-24_17h36.13.856,LearnStrategy,2023.2.3,Win32,59.88023952,,,,,,,,,,,3,16,4,5,,,,,,,,,,,,,,,,,,,,,,,,,,,,,
65819ebb9baf5002d202f320,TCN,2024-06-24_17h36.13.856,LearnStrategy,2023.2.3,Win32,59.88023952,,,,,,,,,,,2,06,4,6,,,,,,,,,,,,,,,,,,,,,,,,,,,,,
65819ebb9baf5002d202f320,TCN,2024-06-24_17h36.13.856,LearnStrategy,2023.2.3,Win32,59.88023952,,,,,,,,,,,5,06,4,7,,,,,,,,,,,,,,,,,,,,,,,,,,,,,
65819ebb9baf5002d202f320,TCN,2024-06-24_17h36.13.856,LearnStrategy,2023.2.3,Win32,59.88023952,,,,,,,,,,,8,04,4,8,,,,,,,,,,,,,,,,,,,,,,,,,,,,,
65819ebb9baf5002d202f320,TCN,2024-06-24_17h36.13.856,LearnStrategy,2023.2.3,Win32,59.88023952,,,,,,,,,,,2,11,5,1,,,,,,,,,,,,,,,,,,,,,,,,,,,,,
65819ebb9baf5002d202f320,TCN,2024-06-24_17h36.13.856,LearnStrategy,2023.2.3,Win32,59.88023952,,,,,,,,,,,2,10,5,2,,,,,,,,,,,,,,,,,,,,,,,,,,,,,
65819ebb9baf5002d202f320,TCN,2024-06-24_17h36.13.856,LearnStrategy,2023.2.3,Win32,59.88023952,,,,,,,,,,,7,07,5,3,,,,,,,,,,,,,,,,,,,,,,,,,,,,,
65819ebb9baf5002d202f320,TCN,2024-06-24_17h36.13.856,LearnStrategy,2023.2.3,Win32,59.88023952,,,,,,,,,,,1,02,5,4,,,,,,,,,,,,,,,,,,,,,,,,,,,,,
65819ebb9baf5002d202f320,TCN,2024-06-24_17h36.13.856,LearnStrategy,2023.2.3,Win32,59.88023952,,,,,,,,,,,1,07,5,5,,,,,,,,,,,,,,,,,,,,,,,,,,,,,
65819ebb9baf5002d202f320,TCN,2024-06-24_17h36.13.856,LearnStrategy,2023.2.3,Win32,59.88023952,,,,,,,,,,,5,11,5,6,,,,,,,,,,,,,,,,,,,,,,,,,,,,,
65819ebb9baf5002d202f320,TCN,2024-06-24_17h36.13.856,LearnStrategy,2023.2.3,Win32,59.88023952,,,,,,,,,,,4,10,5,7,,,,,,,,,,,,,,,,,,,,,,,,,,,,,
65819ebb9baf5002d202f320,TCN,2024-06-24_17h36.13.856,LearnStrategy,2023.2.3,Win32,59.88023952,,,,,,,,,,,4,11,5,8,,,,,,,,,,,,,,,,,,,,,,,,,,,,,
65819ebb9baf5002d202f320,TCN,2024-06-24_17h36.13.856,LearnStrategy,2023.2.3,Win32,59.88023952,,,,,,,,,,,6,06,6,1,,,,,,,,,,,,,,,,,,,,,,,,,,,,,
65819ebb9baf5002d202f320,TCN,2024-06-24_17h36.13.856,LearnStrategy,2023.2.3,Win32,59.88023952,,,,,,,,,,,4,12,6,2,,,,,,,,,,,,,,,,,,,,,,,,,,,,,
65819ebb9baf5002d202f320,TCN,2024-06-24_17h36.13.856,LearnStrategy,2023.2.3,Win32,59.88023952,,,,,,,,,,,4,09,6,3,,,,,,,,,,,,,,,,,,,,,,,,,,,,,
65819ebb9baf5002d202f320,TCN,2024-06-24_17h36.13.856,LearnStrategy,2023.2.3,Win32,59.88023952,,,,,,,,,,,3,09,6,4,,,,,,,,,,,,,,,,,,,,,,,,,,,,,
65819ebb9baf5002d202f320,TCN,2024-06-24_17h36.13.856,LearnStrategy,2023.2.3,Win32,59.88023952,,,,,,,,,,,7,13,6,5,,,,,,,,,,,,,,,,,,,,,,,,,,,,,
65819ebb9baf5002d202f320,TCN,2024-06-24_17h36.13.856,LearnStrategy,2023.2.3,Win32,59.88023952,,,,,,,,,,,8,15,6,6,,,,,,,,,,,,,,,,,,,,,,,,,,,,,
65819ebb9baf5002d202f320,TCN,2024-06-24_17h36.13.856,LearnStrategy,2023.2.3,Win32,59.88023952,,,,,,,,,,,7,10,6,7,,,,,,,,,,,,,,,,,,,,,,,,,,,,,
65819ebb9baf5002d202f320,TCN,2024-06-24_17h36.13.856,LearnStrategy,2023.2.3,Win32,59.88023952,,,,,,,,,,,4,15,6,8,,,,,,,,,,,,,,,,,,,,,,,,,,,,,