participant,condition,date,expName,psychopyVersion,OS,frameRate,block,phase,trial,learn_mouse.x,learn_mouse.y,learn_mouse.leftButton,learn_mouse.midButton,learn_mouse.rightButton,learn_mouse.time,learn_mouse.clicked_name,cat,token,row,col,t_select,cat_rec,token_rec,cat_mouse_l.x,cat_mouse_l.y,cat_mouse_l.leftButton,cat_mouse_l.midButton,cat_mouse_l.rightButton,cat_mouse_l.time,cat_mouse_l.clicked_name,resp,t_resp,corr,train_trials.thisRepN,train_trials.thisTrialN,train_trials.thisN,train_trials.thisIndex,train_trials.ran,cat_mouse_t.x,cat_mouse_t.y,cat_mouse_t.leftButton,cat_mouse_t.midButton,cat_mouse_t.rightButton,cat_mouse_t.time,cat_mouse_t.clicked_name,test_trials.thisRepN,test_trials.thisTrialN,test_trials.thisN,test_trials.thisIndex,test_trials.ran,Bonus
65978a6c375b6513561ed3fa,SCR,2024-06-25_11h41.18.527,LearnStrategy,2023.2.3,Win32,59.88023952,,,,,,,,,,,,,,,,,,,,,,,,,,,,,,,,,,,,,,,,,,,,,
65978a6c375b6513561ed3fa,SCR,2024-06-25_11h41.18.527,LearnStrategy,2023.2.3,Win32,59.88023952,1,1,1,-0.565740741,0.396296296,1,0,0,3.8528,Diorite_14,3,14,6,1,3.853,7,06,-0.346296296,-0.250925926,1,0,0,6.7247,Andesite_rect,1,6.725,0,0,0,0,0,1,,,,,,,,,,,,,
65978a6c375b6513561ed3fa,SCR,2024-06-25_11h41.18.527,LearnStrategy,2023.2.3,Win32,59.88023952,1,1,2,-0.387037037,0.409259259,1,0,0,3.711,Diorite_09,3,09,6,2,3.711,5,07,0.106481481,-0.263888889,1,0,0,1.4175,Diorite_rect,3,1.418,1,1,0,1,0,1,,,,,,,,,,,,,
65978a6c375b6513561ed3fa,SCR,2024-06-25_11h41.18.527,LearnStrategy,2023.2.3,Win32,59.88023952,1,1,3,-0.243518519,0.262037037,1,0,0,2.8768,Diorite_13,3,13,5,3,2.877,2,01,0.119444444,-0.249074074,1,0,0,1.1623,Diorite_rect,3,1.162,1,2,0,2,0,1,,,,,,,,,,,,,
65978a6c375b6513561ed3fa,SCR,2024-06-25_11h41.18.527,LearnStrategy,2023.2.3,Win32,59.88023952,1,1,4,-0.234259259,-0.114814815,1,0,0,16.7794,Obsidian_12,5,12,3,3,16.779,6,06,-0.131481481,-0.260185185,1,0,0,4.796,Basalt_rect,2,4.796,0,3,0,3,0,1,,,,,,,,,,,,,
65978a6c375b6513561ed3fa,SCR,2024-06-25_11h41.18.527,LearnStrategy,2023.2.3,Win32,59.88023952,1,1,5,-0.396296296,-0.408333333,1,0,0,1.6954,Obsidian_09,5,09,1,2,1.695,2,02,-0.399074074,-0.398148148,1,0,0,1.8004,Obsidian_rect,5,1.8,1,4,0,4,0,1,,,,,,,,,,,,,
65978a6c375b6513561ed3fa,SCR,2024-06-25_11h41.18.527,LearnStrategy,2023.2.3,Win32,59.88023952,1,1,6,0.217592593,-0.264814815,1,0,0,1.6285,Obsidian_08,5,08,2,6,1.629,6,03,-0.327777778,-0.392592593,1,0,0,1.2049,Obsidian_rect,5,1.205,1,5,0,5,0,1,,,,,,,,,,,,,
65978a6c375b6513561ed3fa,SCR,2024-06-25_11h41.18.527,LearnStrategy,2023.2.3,Win32,59.88023952,1,1,7,-0.375,-0.237037037,1,0,0,4.0133,Basalt_01,2,01,2,2,4.013,4,01,0.424074074,-0.40462963,1,0,0,1.8476,Pumice_rect,8,1.848,0,6,0,6,0,1,,,,,,,,,,,,,
65978a6c375b6513561ed3fa,SCR,2024-06-25_11h41.18.527,LearnStrategy,2023.2.3,Win32,59.88023952,1,1,8,0.108333333,-0.27037037,1,0,0,10.5492,Basalt_09,2,09,2,5,10.549,5,06,-0.081481481,-0.256481481,1,0,0,1.1452,Basalt_rect,2,1.145,1,7,0,7,0,1,,,,,,,,,,,,,
65978a6c375b6513561ed3fa,SCR,2024-06-25_11h41.18.527,LearnStrategy,2023.2.3,Win32,59.88023952,1,1,9,0.07037037,-0.437037037,1,0,0,1.4833,Basalt_16,2,16,1,5,1.483,1,03,-0.127777778,-0.255555556,1,0,0,1.5194,Basalt_rect,2,1.519,1,8,0,8,0,1,,,,,,,,,,,,,
65978a6c375b6513561ed3fa,SCR,2024-06-25_11h41.18.527,LearnStrategy,2023.2.3,Win32,59.88023952,1,1,10,-0.064814815,-0.278703704,1,0,0,5.0509,Pumice_04,8,04,2,4,5.051,4,13,0.350925926,-0.387962963,1,0,0,3.8553,Pumice_rect,8,3.855,1,9,0,9,0,1,,,,,,,,,,,,,
65978a6c375b6513561ed3fa,SCR,2024-06-25_11h41.18.527,LearnStrategy,2023.2.3,Win32,59.88023952,1,1,11,-0.100925926,0.25,1,0,0,8.2549,Gabbro_13,4,13,5,4,8.255,3,06,0.330555556,-0.388888889,1,0,0,3.1556,Pumice_rect,8,3.156,0,10,0,10,0,1,,,,,,,,,,,,,
65978a6c375b6513561ed3fa,SCR,2024-06-25_11h41.18.527,LearnStrategy,2023.2.3,Win32,59.88023952,1,1,12,-0.4,-0.126851852,1,0,0,4.8669,Andesite_04,1,04,3,2,4.867,7,10,0.37962963,-0.419444444,1,0,0,1.3864,Pumice_rect,8,1.386,0,11,0,11,0,1,,,,,,,,,,,,,
65978a6c375b6513561ed3fa,SCR,2024-06-25_11h41.18.527,LearnStrategy,2023.2.3,Win32,59.88023952,1,1,13,0.386111111,-0.089814815,1,0,0,2.1974,Diorite_08,3,08,3,7,2.197,8,04,0.411111111,-0.386111111,1,0,0,3.1592,Pumice_rect,8,3.159,0,12,0,12,0,1,,,,,,,,,,,,,
65978a6c375b6513561ed3fa,SCR,2024-06-25_11h41.18.527,LearnStrategy,2023.2.3,Win32,59.88023952,1,1,14,-0.587037037,-0.415740741,1,0,0,2.8308,Pumice_14,8,14,1,1,2.831,3,14,0.342592593,-0.405555556,1,0,0,4.7237,Pumice_rect,8,4.724,1,13,0,13,0,1,,,,,,,,,,,,,
65978a6c375b6513561ed3fa,SCR,2024-06-25_11h41.18.527,LearnStrategy,2023.2.3,Win32,59.88023952,1,1,15,0.251851852,-0.112037037,1,0,0,6.6624,Peridotite_15,7,15,3,6,6.662,8,14,0.17037037,-0.406481481,1,0,0,6.2593,Peridotite_rect,7,6.259,1,14,0,14,0,1,,,,,,,,,,,,,
65978a6c375b6513561ed3fa,SCR,2024-06-25_11h41.18.527,LearnStrategy,2023.2.3,Win32,59.88023952,1,1,16,-0.531481481,-0.25,1,0,0,10.6054,Andesite_06,1,06,2,1,10.605,1,04,0.207407407,-0.410185185,1,0,0,4.3831,Peridotite_rect,7,4.383,0,15,0,15,0,1,,,,,,,,,,,,,
65978a6c375b6513561ed3fa,SCR,2024-06-25_11h41.18.527,LearnStrategy,2023.2.3,Win32,59.88023952,1,2,1,,,,,,,,2,14,,,,,,,,,,,,,1,11.37,0,,,,,,-0.338888889,-0.257407407,1,0,0,11.3695,Andesite_rect,0,0,0,0,1,
65978a6c375b6513561ed3fa,SCR,2024-06-25_11h41.18.527,LearnStrategy,2023.2.3,Win32,59.88023952,1,2,2,,,,,,,,5,05,,,,,,,,,,,,,5,6.653,1,,,,,,-0.336111111,-0.388888889,1,0,0,6.6528,Obsidian_rect,1,0,1,0,1,
65978a6c375b6513561ed3fa,SCR,2024-06-25_11h41.18.527,LearnStrategy,2023.2.3,Win32,59.88023952,1,2,3,,,,,,,,3,10,,,,,,,,,,,,,6,8.946,0,,,,,,-0.073148148,-0.409259259,1,0,0,8.9456,Pegmatite_rect,2,0,2,0,1,
65978a6c375b6513561ed3fa,SCR,2024-06-25_11h41.18.527,LearnStrategy,2023.2.3,Win32,59.88023952,1,2,4,,,,,,,,4,05,,,,,,,,,,,,,7,4.948,0,,,,,,0.187037037,-0.415740741,1,0,0,4.9483,Peridotite_rect,3,0,3,0,1,
65978a6c375b6513561ed3fa,SCR,2024-06-25_11h41.18.527,LearnStrategy,2023.2.3,Win32,59.88023952,1,2,5,,,,,,,,4,10,,,,,,,,,,,,,8,1.833,0,,,,,,0.39537037,-0.409259259,1,0,0,1.8333,Pumice_rect,4,0,4,0,1,
65978a6c375b6513561ed3fa,SCR,2024-06-25_11h41.18.527,LearnStrategy,2023.2.3,Win32,59.88023952,1,2,6,,,,,,,,7,05,,,,,,,,,,,,,7,4.437,1,,,,,,0.112962963,-0.389814815,1,0,0,4.437,Peridotite_rect,5,0,5,0,1,
65978a6c375b6513561ed3fa,SCR,2024-06-25_11h41.18.527,LearnStrategy,2023.2.3,Win32,59.88023952,1,2,7,,,,,,,,7,08,,,,,,,,,,,,,7,3.463,1,,,,,,0.111111111,-0.386111111,1,0,0,3.4633,Peridotite_rect,6,0,6,0,1,
65978a6c375b6513561ed3fa,SCR,2024-06-25_11h41.18.527,LearnStrategy,2023.2.3,Win32,59.88023952,1,2,8,,,,,,,,1,09,,,,,,,,,,,,,3,3.917,0,,,,,,0.125,-0.244444444,1,0,0,3.9175,Diorite_rect,7,0,7,0,1,
65978a6c375b6513561ed3fa,SCR,2024-06-25_11h41.18.527,LearnStrategy,2023.2.3,Win32,59.88023952,1,2,9,,,,,,,,3,07,,,,,,,,,,,,,4,2.152,0,,,,,,0.368518519,-0.251851852,1,0,0,2.1517,Gabbro_rect,8,0,8,0,1,
65978a6c375b6513561ed3fa,SCR,2024-06-25_11h41.18.527,LearnStrategy,2023.2.3,Win32,59.88023952,1,2,10,,,,,,,,2,04,,,,,,,,,,,,,2,7.637,1,,,,,,-0.073148148,-0.243518519,1,0,0,7.6374,Basalt_rect,9,0,9,0,1,
65978a6c375b6513561ed3fa,SCR,2024-06-25_11h41.18.527,LearnStrategy,2023.2.3,Win32,59.88023952,1,2,11,,,,,,,,6,11,,,,,,,,,,,,,4,5.05,0,,,,,,0.387037037,-0.236111111,1,0,0,5.0496,Gabbro_rect,10,0,10,0,1,
65978a6c375b6513561ed3fa,SCR,2024-06-25_11h41.18.527,LearnStrategy,2023.2.3,Win32,59.88023952,1,2,12,,,,,,,,1,01,,,,,,,,,,,,,3,2.033,0,,,,,,0.112037037,-0.262037037,1,0,0,2.0334,Diorite_rect,11,0,11,0,1,
65978a6c375b6513561ed3fa,SCR,2024-06-25_11h41.18.527,LearnStrategy,2023.2.3,Win32,59.88023952,1,2,13,,,,,,,,8,16,,,,,,,,,,,,,8,2.651,1,,,,,,0.340740741,-0.42037037,1,0,0,2.6513,Pumice_rect,12,0,12,0,1,
65978a6c375b6513561ed3fa,SCR,2024-06-25_11h41.18.527,LearnStrategy,2023.2.3,Win32,59.88023952,1,2,14,,,,,,,,5,04,,,,,,,,,,,,,5,4.512,1,,,,,,-0.350925926,-0.392592593,1,0,0,4.5118,Obsidian_rect,13,0,13,0,1,
65978a6c375b6513561ed3fa,SCR,2024-06-25_11h41.18.527,LearnStrategy,2023.2.3,Win32,59.88023952,1,2,15,,,,,,,,8,08,,,,,,,,,,,,,8,8.153,1,,,,,,0.324074074,-0.397222222,1,0,0,8.1534,Pumice_rect,14,0,14,0,1,
65978a6c375b6513561ed3fa,SCR,2024-06-25_11h41.18.527,LearnStrategy,2023.2.3,Win32,59.88023952,1,2,16,,,,,,,,6,08,,,,,,,,,,,,,5,6.641,0,,,,,,-0.323148148,-0.383333333,1,0,0,6.6407,Obsidian_rect,15,0,15,0,1,
65978a6c375b6513561ed3fa,SCR,2024-06-25_11h41.18.527,LearnStrategy,2023.2.3,Win32,59.88023952,2,1,1,0.065740741,0.080555556,1,0,0,2.6465,Pegmatite_07,6,07,4,5,2.647,1,10,-0.064814815,-0.237037037,1,0,0,1.9448,Basalt_rect,2,1.945,0,0,0,0,0,1,,,,,,,,,,,,,
65978a6c375b6513561ed3fa,SCR,2024-06-25_11h41.18.527,LearnStrategy,2023.2.3,Win32,59.88023952,2,1,2,0.377777778,0.10462963,1,0,0,4.032,Pegmatite_15,6,15,4,7,4.032,1,10,-0.132407407,-0.398148148,1,0,0,1.3933,Pegmatite_rect,6,1.393,1,1,0,1,0,1,,,,,,,,,,,,,
65978a6c375b6513561ed3fa,SCR,2024-06-25_11h41.18.527,LearnStrategy,2023.2.3,Win32,59.88023952,2,1,3,0.396296296,-0.411111111,1,0,0,8.6727,Peridotite_14,7,14,1,7,8.673,2,09,0.386111111,-0.239814815,1,0,0,2.0579,Gabbro_rect,4,2.058,0,2,0,2,0,1,,,,,,,,,,,,,
65978a6c375b6513561ed3fa,SCR,2024-06-25_11h41.18.527,LearnStrategy,2023.2.3,Win32,59.88023952,2,1,4,0.372222222,0.383333333,1,0,0,2.0134,Pumice_15,8,15,6,7,2.013,6,03,0.411111111,-0.407407407,1,0,0,2.2949,Pumice_rect,8,2.295,1,3,0,3,0,1,,,,,,,,,,,,,
65978a6c375b6513561ed3fa,SCR,2024-06-25_11h41.18.527,LearnStrategy,2023.2.3,Win32,59.88023952,2,1,5,0.408333333,0.253703704,1,0,0,2.2111,Peridotite_06,7,06,5,7,2.211,6,05,-0.097222222,-0.385185185,1,0,0,5.4481,Pegmatite_rect,6,5.448,0,4,0,4,0,1,,,,,,,,,,,,,
65978a6c375b6513561ed3fa,SCR,2024-06-25_11h41.18.527,LearnStrategy,2023.2.3,Win32,59.88023952,2,1,6,-0.083333333,0.081481481,1,0,0,12.8735,Peridotite_12,7,12,4,4,12.874,3,08,0.1,-0.392592593,1,0,0,1.9241,Peridotite_rect,7,1.924,1,5,0,5,0,1,,,,,,,,,,,,,
65978a6c375b6513561ed3fa,SCR,2024-06-25_11h41.18.527,LearnStrategy,2023.2.3,Win32,59.88023952,2,1,7,-0.390740741,0.078703704,1,0,0,1.9733,Diorite_06,3,06,4,2,1.973,6,06,0.087037037,-0.402777778,1,0,0,2.0052,Peridotite_rect,7,2.005,0,6,0,6,0,1,,,,,,,,,,,,,
65978a6c375b6513561ed3fa,SCR,2024-06-25_11h41.18.527,LearnStrategy,2023.2.3,Win32,59.88023952,2,1,8,-0.066666667,-0.087037037,1,0,0,1.7468,Peridotite_10,7,10,3,4,1.747,4,01,-0.380555556,-0.230555556,1,0,0,4.8246,Andesite_rect,1,4.825,0,7,0,7,0,1,,,,,,,,,,,,,
65978a6c375b6513561ed3fa,SCR,2024-06-25_11h41.18.527,LearnStrategy,2023.2.3,Win32,59.88023952,2,1,9,0.372222222,-0.119444444,1,0,0,1.8429,Diorite_08,3,08,3,7,1.843,3,06,0.138888889,-0.412962963,1,0,0,2.9723,Peridotite_rect,7,2.972,0,8,0,8,0,1,,,,,,,,,,,,,
65978a6c375b6513561ed3fa,SCR,2024-06-25_11h41.18.527,LearnStrategy,2023.2.3,Win32,59.88023952,2,1,10,-0.068518519,0.25,1,0,0,2.8109,Gabbro_13,4,13,5,4,2.811,3,13,0.343518519,-0.260185185,1,0,0,2.8255,Gabbro_rect,4,2.826,1,9,0,9,0,1,,,,,,,,,,,,,
65978a6c375b6513561ed3fa,SCR,2024-06-25_11h41.18.527,LearnStrategy,2023.2.3,Win32,59.88023952,2,1,11,0.227777778,0.415740741,1,0,0,6.6835,Pegmatite_09,6,09,6,6,6.684,4,01,-0.067592593,-0.409259259,1,0,0,16.2293,Pegmatite_rect,6,16.229,1,10,0,10,0,1,,,,,,,,,,,,,
65978a6c375b6513561ed3fa,SCR,2024-06-25_11h41.18.527,LearnStrategy,2023.2.3,Win32,59.88023952,2,1,12,-0.276851852,0.250925926,1,0,0,2.4791,Diorite_13,3,13,5,3,2.479,4,03,0.162962963,-0.261111111,1,0,0,1.6599,Diorite_rect,3,1.66,1,11,0,11,0,1,,,,,,,,,,,,,
65978a6c375b6513561ed3fa,SCR,2024-06-25_11h41.18.527,LearnStrategy,2023.2.3,Win32,59.88023952,2,1,13,0.230555556,0.075925926,1,0,0,1.862,Andesite_16,1,16,4,6,1.862,7,15,-0.127777778,-0.388888889,1,0,0,9.1065,Pegmatite_rect,6,9.106,0,12,0,12,0,1,,,,,,,,,,,,,
65978a6c375b6513561ed3fa,SCR,2024-06-25_11h41.18.527,LearnStrategy,2023.2.3,Win32,59.88023952,2,1,14,0.222222222,0.248148148,1,0,0,5.4977,Obsidian_06,5,06,5,6,5.498,2,02,-0.394444444,-0.42037037,1,0,0,6.8437,Obsidian_rect,5,6.844,1,13,0,13,0,1,,,,,,,,,,,,,
65978a6c375b6513561ed3fa,SCR,2024-06-25_11h41.18.527,LearnStrategy,2023.2.3,Win32,59.88023952,2,1,15,-0.239814815,-0.286111111,1,0,0,1.2794,Pumice_10,8,10,2,3,1.279,1,07,0.388888889,-0.408333333,1,0,0,4.5351,Pumice_rect,8,4.535,1,14,0,14,0,1,,,,,,,,,,,,,
65978a6c375b6513561ed3fa,SCR,2024-06-25_11h41.18.527,LearnStrategy,2023.2.3,Win32,59.88023952,2,1,16,0.085185185,-0.249074074,1,0,0,1.7408,Basalt_09,2,09,2,5,1.741,5,08,-0.101851852,-0.249074074,1,0,0,3.958,Basalt_rect,2,3.958,1,15,0,15,0,1,,,,,,,,,,,,,
65978a6c375b6513561ed3fa,SCR,2024-06-25_11h41.18.527,LearnStrategy,2023.2.3,Win32,59.88023952,2,2,1,,,,,,,,5,11,,,,,,,,,,,,,5,3.873,1,,,,,,-0.348148148,-0.412962963,1,0,0,3.8726,Obsidian_rect,0,0,0,0,1,
65978a6c375b6513561ed3fa,SCR,2024-06-25_11h41.18.527,LearnStrategy,2023.2.3,Win32,59.88023952,2,2,2,,,,,,,,8,13,,,,,,,,,,,,,8,6.827,1,,,,,,0.375925926,-0.393518519,1,0,0,6.8267,Pumice_rect,1,0,1,0,1,
65978a6c375b6513561ed3fa,SCR,2024-06-25_11h41.18.527,LearnStrategy,2023.2.3,Win32,59.88023952,2,2,3,,,,,,,,5,02,,,,,,,,,,,,,2,4.252,0,,,,,,-0.134259259,-0.237962963,1,0,0,4.2524,Basalt_rect,2,0,2,0,1,
65978a6c375b6513561ed3fa,SCR,2024-06-25_11h41.18.527,LearnStrategy,2023.2.3,Win32,59.88023952,2,2,4,,,,,,,,7,07,,,,,,,,,,,,,1,9.208,0,,,,,,-0.372222222,-0.262962963,1,0,0,9.2078,Andesite_rect,3,0,3,0,1,
65978a6c375b6513561ed3fa,SCR,2024-06-25_11h41.18.527,LearnStrategy,2023.2.3,Win32,59.88023952,2,2,5,,,,,,,,4,12,,,,,,,,,,,,,2,4.905,0,,,,,,-0.171296296,-0.236111111,1,0,0,4.9048,Basalt_rect,4,0,4,0,1,
65978a6c375b6513561ed3fa,SCR,2024-06-25_11h41.18.527,LearnStrategy,2023.2.3,Win32,59.88023952,2,2,6,,,,,,,,6,10,,,,,,,,,,,,,6,7.488,1,,,,,,-0.064814815,-0.393518519,1,0,0,7.4883,Pegmatite_rect,5,0,5,0,1,
65978a6c375b6513561ed3fa,SCR,2024-06-25_11h41.18.527,LearnStrategy,2023.2.3,Win32,59.88023952,2,2,7,,,,,,,,2,11,,,,,,,,,,,,,8,3.136,0,,,,,,0.375925926,-0.406481481,1,0,0,3.1357,Pumice_rect,6,0,6,0,1,
65978a6c375b6513561ed3fa,SCR,2024-06-25_11h41.18.527,LearnStrategy,2023.2.3,Win32,59.88023952,2,2,8,,,,,,,,3,11,,,,,,,,,,,,,3,2.385,1,,,,,,0.117592593,-0.263888889,1,0,0,2.3852,Diorite_rect,7,0,7,0,1,
65978a6c375b6513561ed3fa,SCR,2024-06-25_11h41.18.527,LearnStrategy,2023.2.3,Win32,59.88023952,2,2,9,,,,,,,,1,02,,,,,,,,,,,,,3,3.718,0,,,,,,0.117592593,-0.258333333,1,0,0,3.7184,Diorite_rect,8,0,8,0,1,
65978a6c375b6513561ed3fa,SCR,2024-06-25_11h41.18.527,LearnStrategy,2023.2.3,Win32,59.88023952,2,2,10,,,,,,,,8,02,,,,,,,,,,,,,8,1.7,1,,,,,,0.338888889,-0.39537037,1,0,0,1.7005,Pumice_rect,9,0,9,0,1,
65978a6c375b6513561ed3fa,SCR,2024-06-25_11h41.18.527,LearnStrategy,2023.2.3,Win32,59.88023952,2,2,11,,,,,,,,7,04,,,,,,,,,,,,,3,2.385,0,,,,,,0.133333333,-0.261111111,1,0,0,2.3849,Diorite_rect,10,0,10,0,1,
65978a6c375b6513561ed3fa,SCR,2024-06-25_11h41.18.527,LearnStrategy,2023.2.3,Win32,59.88023952,2,2,12,,,,,,,,2,08,,,,,,,,,,,,,2,4.168,1,,,,,,-0.090740741,-0.250925926,1,0,0,4.1677,Basalt_rect,11,0,11,0,1,
65978a6c375b6513561ed3fa,SCR,2024-06-25_11h41.18.527,LearnStrategy,2023.2.3,Win32,59.88023952,2,2,13,,,,,,,,3,02,,,,,,,,,,,,,4,6.506,0,,,,,,0.351851852,-0.247222222,1,0,0,6.5057,Gabbro_rect,12,0,12,0,1,
65978a6c375b6513561ed3fa,SCR,2024-06-25_11h41.18.527,LearnStrategy,2023.2.3,Win32,59.88023952,2,2,14,,,,,,,,4,15,,,,,,,,,,,,,4,1.067,1,,,,,,0.351851852,-0.247222222,1,0,0,1.0673,Gabbro_rect,13,0,13,0,1,
65978a6c375b6513561ed3fa,SCR,2024-06-25_11h41.18.527,LearnStrategy,2023.2.3,Win32,59.88023952,2,2,15,,,,,,,,6,13,,,,,,,,,,,,,6,3.219,1,,,,,,-0.152777778,-0.412962963,1,0,0,3.2191,Pegmatite_rect,14,0,14,0,1,
65978a6c375b6513561ed3fa,SCR,2024-06-25_11h41.18.527,LearnStrategy,2023.2.3,Win32,59.88023952,2,2,16,,,,,,,,1,05,,,,,,,,,,,,,4,11.527,0,,,,,,0.401851852,-0.25462963,1,0,0,11.5268,Gabbro_rect,15,0,15,0,1,
65978a6c375b6513561ed3fa,SCR,2024-06-25_11h41.18.527,LearnStrategy,2023.2.3,Win32,59.88023952,3,1,1,0.064814815,-0.094444444,1,0,0,3.0608,Diorite_12,3,12,3,5,3.061,1,06,0.158333333,-0.392592593,1,0,0,5.5893,Peridotite_rect,7,5.589,0,0,0,0,0,1,,,,,,,,,,,,,
65978a6c375b6513561ed3fa,SCR,2024-06-25_11h41.18.527,LearnStrategy,2023.2.3,Win32,59.88023952,3,1,2,-0.077777778,-0.094444444,1,0,0,0.9258,Peridotite_10,7,10,3,4,0.926,1,06,0.090740741,-0.398148148,1,0,0,4.7305,Peridotite_rect,7,4.731,1,1,0,1,0,1,,,,,,,,,,,,,
65978a6c375b6513561ed3fa,SCR,2024-06-25_11h41.18.527,LearnStrategy,2023.2.3,Win32,59.88023952,3,1,3,0.224074074,0.07037037,1,0,0,3.5506,Andesite_16,1,16,4,6,3.551,2,16,0.133333333,-0.405555556,1,0,0,1.3284,Peridotite_rect,7,1.328,0,2,0,2,0,1,,,,,,,,,,,,,
65978a6c375b6513561ed3fa,SCR,2024-06-25_11h41.18.527,LearnStrategy,2023.2.3,Win32,59.88023952,3,1,4,-0.402777778,-0.09537037,1,0,0,1.7486,Andesite_04,1,04,3,2,1.749,3,08,0.347222222,-0.237962963,1,0,0,2.5967,Gabbro_rect,4,2.597,0,3,0,3,0,1,,,,,,,,,,,,,
65978a6c375b6513561ed3fa,SCR,2024-06-25_11h41.18.527,LearnStrategy,2023.2.3,Win32,59.88023952,3,1,5,-0.235185185,-0.273148148,1,0,0,1.797,Pumice_10,8,10,2,3,1.797,1,06,0.350925926,-0.414814815,1,0,0,2.4255,Pumice_rect,8,2.426,1,4,0,4,0,1,,,,,,,,,,,,,
65978a6c375b6513561ed3fa,SCR,2024-06-25_11h41.18.527,LearnStrategy,2023.2.3,Win32,59.88023952,3,1,6,-0.077777778,-0.102777778,1,0,0,2.0808,Peridotite_10,7,10,3,4,2.081,7,15,0.15462963,-0.397222222,1,0,0,5.4324,Peridotite_rect,7,5.432,1,5,0,5,0,1,,,,,,,,,,,,,
65978a6c375b6513561ed3fa,SCR,2024-06-25_11h41.18.527,LearnStrategy,2023.2.3,Win32,59.88023952,3,1,7,0.05462963,-0.10462963,1,0,0,1.7139,Diorite_12,3,12,3,5,1.714,4,13,0.094444444,-0.241666667,1,0,0,1.0913,Diorite_rect,3,1.091,1,6,0,6,0,1,,,,,,,,,,,,,
65978a6c375b6513561ed3fa,SCR,2024-06-25_11h41.18.527,LearnStrategy,2023.2.3,Win32,59.88023952,3,1,8,0.25462963,0.273148148,1,0,0,1.2135,Obsidian_06,5,06,5,6,1.214,3,12,-0.203703704,-0.239814815,1,0,0,1.3249,Basalt_rect,2,1.325,0,7,0,7,0,1,,,,,,,,,,,,,
65978a6c375b6513561ed3fa,SCR,2024-06-25_11h41.18.527,LearnStrategy,2023.2.3,Win32,59.88023952,3,1,9,-0.546296296,-0.405555556,1,0,0,5.8511,Pumice_14,8,14,1,1,5.851,5,10,0.40462963,-0.412962963,1,0,0,1.2059,Pumice_rect,8,1.206,1,8,0,8,0,1,,,,,,,,,,,,,
65978a6c375b6513561ed3fa,SCR,2024-06-25_11h41.18.527,LearnStrategy,2023.2.3,Win32,59.88023952,3,1,10,0.387037037,0.106481481,1,0,0,1.5779,Pegmatite_15,6,15,4,7,1.578,7,10,-0.162037037,-0.412962963,1,0,0,5.031,Pegmatite_rect,6,5.031,1,9,0,9,0,1,,,,,,,,,,,,,
65978a6c375b6513561ed3fa,SCR,2024-06-25_11h41.18.527,LearnStrategy,2023.2.3,Win32,59.88023952,3,1,11,0.081481481,0.083333333,1,0,0,1.2933,Pegmatite_07,6,07,4,5,1.293,6,09,-0.119444444,-0.400925926,1,0,0,0.844,Pegmatite_rect,6,0.844,1,10,0,10,0,1,,,,,,,,,,,,,
65978a6c375b6513561ed3fa,SCR,2024-06-25_11h41.18.527,LearnStrategy,2023.2.3,Win32,59.88023952,3,1,12,-0.197222222,0.080555556,1,0,0,1.5461,Basalt_12,2,12,4,3,1.546,3,09,0.405555556,-0.386111111,1,0,0,1.8117,Pumice_rect,8,1.812,0,11,0,11,0,1,,,,,,,,,,,,,
65978a6c375b6513561ed3fa,SCR,2024-06-25_11h41.18.527,LearnStrategy,2023.2.3,Win32,59.88023952,3,1,13,0.532407407,0.090740741,1,0,0,1.5664,Andesite_07,1,07,4,8,1.566,4,08,0.126851852,-0.247222222,1,0,0,1.2171,Diorite_rect,3,1.217,0,12,0,12,0,1,,,,,,,,,,,,,
65978a6c375b6513561ed3fa,SCR,2024-06-25_11h41.18.527,LearnStrategy,2023.2.3,Win32,59.88023952,3,1,14,0.403703704,-0.115740741,1,0,0,2.3281,Diorite_08,3,08,3,7,2.328,2,01,-0.347222222,-0.25,1,0,0,2.1117,Andesite_rect,1,2.112,0,13,0,13,0,1,,,,,,,,,,,,,
65978a6c375b6513561ed3fa,SCR,2024-06-25_11h41.18.527,LearnStrategy,2023.2.3,Win32,59.88023952,3,1,15,-0.101851852,0.246296296,1,0,0,1.7263,Gabbro_13,4,13,5,4,1.726,4,14,0.374074074,-0.25462963,1,0,0,1.8448,Gabbro_rect,4,1.845,1,14,0,14,0,1,,,,,,,,,,,,,
65978a6c375b6513561ed3fa,SCR,2024-06-25_11h41.18.527,LearnStrategy,2023.2.3,Win32,59.88023952,3,1,16,0.566666667,-0.273148148,1,0,0,0.9642,Gabbro_08,4,08,2,8,0.964,8,15,0.212962963,-0.387962963,1,0,0,1.8276,Peridotite_rect,7,1.828,0,15,0,15,0,1,,,,,,,,,,,,,
65978a6c375b6513561ed3fa,SCR,2024-06-25_11h41.18.527,LearnStrategy,2023.2.3,Win32,59.88023952,3,2,1,,,,,,,,4,16,,,,,,,,,,,,,4,4.457,1,,,,,,0.34537037,-0.240740741,1,0,0,4.4575,Gabbro_rect,0,0,0,0,1,
65978a6c375b6513561ed3fa,SCR,2024-06-25_11h41.18.527,LearnStrategy,2023.2.3,Win32,59.88023952,3,2,2,,,,,,,,8,09,,,,,,,,,,,,,8,1.276,1,,,,,,0.318518519,-0.39537037,1,0,0,1.2763,Pumice_rect,1,0,1,0,1,
65978a6c375b6513561ed3fa,SCR,2024-06-25_11h41.18.527,LearnStrategy,2023.2.3,Win32,59.88023952,3,2,3,,,,,,,,3,16,,,,,,,,,,,,,1,4.954,0,,,,,,-0.374074074,-0.248148148,1,0,0,4.9545,Andesite_rect,2,0,2,0,1,
65978a6c375b6513561ed3fa,SCR,2024-06-25_11h41.18.527,LearnStrategy,2023.2.3,Win32,59.88023952,3,2,4,,,,,,,,5,14,,,,,,,,,,,,,5,6.341,1,,,,,,-0.380555556,-0.391666667,1,0,0,6.3405,Obsidian_rect,3,0,3,0,1,
65978a6c375b6513561ed3fa,SCR,2024-06-25_11h41.18.527,LearnStrategy,2023.2.3,Win32,59.88023952,3,2,5,,,,,,,,5,16,,,,,,,,,,,,,5,1.124,1,,,,,,-0.366666667,-0.388888889,1,0,0,1.1241,Obsidian_rect,4,0,4,0,1,
65978a6c375b6513561ed3fa,SCR,2024-06-25_11h41.18.527,LearnStrategy,2023.2.3,Win32,59.88023952,3,2,6,,,,,,,,8,05,,,,,,,,,,,,,8,1.266,1,,,,,,0.355555556,-0.412962963,1,0,0,1.2662,Pumice_rect,5,0,5,0,1,
65978a6c375b6513561ed3fa,SCR,2024-06-25_11h41.18.527,LearnStrategy,2023.2.3,Win32,59.88023952,3,2,7,,,,,,,,6,16,,,,,,,,,,,,,6,3.801,1,,,,,,-0.090740741,-0.407407407,1,0,0,3.8012,Pegmatite_rect,6,0,6,0,1,
65978a6c375b6513561ed3fa,SCR,2024-06-25_11h41.18.527,LearnStrategy,2023.2.3,Win32,59.88023952,3,2,8,,,,,,,,7,13,,,,,,,,,,,,,7,10.158,1,,,,,,0.09537037,-0.388888889,1,0,0,10.158,Peridotite_rect,7,0,7,0,1,
65978a6c375b6513561ed3fa,SCR,2024-06-25_11h41.18.527,LearnStrategy,2023.2.3,Win32,59.88023952,3,2,9,,,,,,,,7,16,,,,,,,,,,,,,1,8.457,0,,,,,,-0.312962963,-0.255555556,1,0,0,8.457,Andesite_rect,8,0,8,0,1,
65978a6c375b6513561ed3fa,SCR,2024-06-25_11h41.18.527,LearnStrategy,2023.2.3,Win32,59.88023952,3,2,10,,,,,,,,1,11,,,,,,,,,,,,,1,2.656,1,,,,,,-0.339814815,-0.251851852,1,0,0,2.656,Andesite_rect,9,0,9,0,1,
65978a6c375b6513561ed3fa,SCR,2024-06-25_11h41.18.527,LearnStrategy,2023.2.3,Win32,59.88023952,3,2,11,,,,,,,,4,09,,,,,,,,,,,,,4,5.785,1,,,,,,0.357407407,-0.249074074,1,0,0,5.785,Gabbro_rect,10,0,10,0,1,
65978a6c375b6513561ed3fa,SCR,2024-06-25_11h41.18.527,LearnStrategy,2023.2.3,Win32,59.88023952,3,2,12,,,,,,,,1,14,,,,,,,,,,,,,6,3.631,0,,,,,,-0.103703704,-0.415740741,1,0,0,3.6314,Pegmatite_rect,11,0,11,0,1,
65978a6c375b6513561ed3fa,SCR,2024-06-25_11h41.18.527,LearnStrategy,2023.2.3,Win32,59.88023952,3,2,13,,,,,,,,6,12,,,,,,,,,,,,,4,1.756,0,,,,,,0.356481481,-0.243518519,1,0,0,1.7557,Gabbro_rect,12,0,12,0,1,
65978a6c375b6513561ed3fa,SCR,2024-06-25_11h41.18.527,LearnStrategy,2023.2.3,Win32,59.88023952,3,2,14,,,,,,,,3,15,,,,,,,,,,,,,4,2.669,0,,,,,,0.355555556,-0.243518519,1,0,0,2.6695,Gabbro_rect,13,0,13,0,1,
65978a6c375b6513561ed3fa,SCR,2024-06-25_11h41.18.527,LearnStrategy,2023.2.3,Win32,59.88023952,3,2,15,,,,,,,,2,06,,,,,,,,,,,,,2,3.802,1,,,,,,-0.093518519,-0.262037037,1,0,0,3.8024,Basalt_rect,14,0,14,0,1,
65978a6c375b6513561ed3fa,SCR,2024-06-25_11h41.18.527,LearnStrategy,2023.2.3,Win32,59.88023952,3,2,16,,,,,,,,2,10,,,,,,,,,,,,,2,1.142,1,,,,,,-0.093518519,-0.255555556,1,0,0,1.1418,Basalt_rect,15,0,15,0,1,
65978a6c375b6513561ed3fa,SCR,2024-06-25_11h41.18.527,LearnStrategy,2023.2.3,Win32,59.88023952,4,1,1,-0.538888889,0.386111111,1,0,0,2.7317,Diorite_14,3,14,6,1,2.732,4,03,0.346296296,-0.235185185,1,0,0,2.3255,Gabbro_rect,4,2.325,0,0,0,0,0,1,,,,,,,,,,,,,
65978a6c375b6513561ed3fa,SCR,2024-06-25_11h41.18.527,LearnStrategy,2023.2.3,Win32,59.88023952,4,1,2,-0.383333333,0.402777778,1,0,0,1.1295,Diorite_09,3,09,6,2,1.13,8,10,0.092592593,-0.252777778,1,0,0,0.9856,Diorite_rect,3,0.986,1,1,0,1,0,1,,,,,,,,,,,,,
65978a6c375b6513561ed3fa,SCR,2024-06-25_11h41.18.527,LearnStrategy,2023.2.3,Win32,59.88023952,4,1,3,-0.224074074,0.40462963,1,0,0,0.8743,Andesite_10,1,10,6,3,0.874,1,16,0.383333333,-0.25462963,1,0,0,2.045,Gabbro_rect,4,2.045,0,2,0,2,0,1,,,,,,,,,,,,,
65978a6c375b6513561ed3fa,SCR,2024-06-25_11h41.18.527,LearnStrategy,2023.2.3,Win32,59.88023952,4,1,4,-0.037962963,0.440740741,1,0,0,0.8105,Pegmatite_06,6,06,6,4,0.81,1,10,-0.343518519,-0.253703704,1,0,0,2.8124,Andesite_rect,1,2.812,0,3,0,3,0,1,,,,,,,,,,,,,
65978a6c375b6513561ed3fa,SCR,2024-06-25_11h41.18.527,LearnStrategy,2023.2.3,Win32,59.88023952,4,1,5,0.073148148,0.089814815,1,0,0,1.3434,Pegmatite_07,6,07,4,5,1.343,7,06,-0.128703704,-0.418518519,1,0,0,0.8607,Pegmatite_rect,6,0.861,1,4,0,4,0,1,,,,,,,,,,,,,
65978a6c375b6513561ed3fa,SCR,2024-06-25_11h41.18.527,LearnStrategy,2023.2.3,Win32,59.88023952,4,1,6,0.241666667,0.418518519,1,0,0,1.4473,Pegmatite_09,6,09,6,6,1.447,3,13,-0.071296296,-0.388888889,1,0,0,2.2625,Pegmatite_rect,6,2.262,1,5,0,5,0,1,,,,,,,,,,,,,
65978a6c375b6513561ed3fa,SCR,2024-06-25_11h41.18.527,LearnStrategy,2023.2.3,Win32,59.88023952,4,1,7,0.215740741,-0.111111111,1,0,0,0.9959,Peridotite_15,7,15,3,6,0.996,3,12,0.09537037,-0.398148148,1,0,0,3.8853,Peridotite_rect,7,3.885,1,6,0,6,0,1,,,,,,,,,,,,,
65978a6c375b6513561ed3fa,SCR,2024-06-25_11h41.18.527,LearnStrategy,2023.2.3,Win32,59.88023952,4,1,8,0.125925926,0.410185185,1,0,0,2.5009,Peridotite_02,7,02,6,5,2.501,6,07,-0.077777778,-0.4,1,0,0,8.0036,Pegmatite_rect,6,8.004,0,7,0,7,0,1,,,,,,,,,,,,,
65978a6c375b6513561ed3fa,SCR,2024-06-25_11h41.18.527,LearnStrategy,2023.2.3,Win32,59.88023952,4,1,9,0.059259259,0.075,1,0,0,0.7758,Pegmatite_07,6,07,4,5,0.776,1,04,-0.081481481,-0.410185185,1,0,0,3.8304,Pegmatite_rect,6,3.83,1,8,0,8,0,1,,,,,,,,,,,,,
65978a6c375b6513561ed3fa,SCR,2024-06-25_11h41.18.527,LearnStrategy,2023.2.3,Win32,59.88023952,4,1,10,-0.583333333,0.062037037,1,0,0,3.3296,Basalt_05,2,05,4,1,3.33,2,05,-0.1,-0.25,1,0,0,10.5538,Basalt_rect,2,10.554,1,9,0,9,0,1,,,,,,,,,,,,,
65978a6c375b6513561ed3fa,SCR,2024-06-25_11h41.18.527,LearnStrategy,2023.2.3,Win32,59.88023952,4,1,11,-0.101851852,-0.091666667,1,0,0,5.9689,Peridotite_10,7,10,3,4,5.969,5,12,-0.076851852,-0.402777778,1,0,0,17.0409,Pegmatite_rect,6,17.041,0,10,0,10,0,1,,,,,,,,,,,,,
65978a6c375b6513561ed3fa,SCR,2024-06-25_11h41.18.527,LearnStrategy,2023.2.3,Win32,59.88023952,4,1,12,-0.371296296,0.385185185,1,0,0,4.4844,Diorite_09,3,09,6,2,4.484,3,09,0.086111111,-0.231481481,1,0,0,5.1787,Diorite_rect,3,5.179,1,11,0,11,0,1,,,,,,,,,,,,,
65978a6c375b6513561ed3fa,SCR,2024-06-25_11h41.18.527,LearnStrategy,2023.2.3,Win32,59.88023952,4,1,13,0.562037037,-0.287037037,1,0,0,1.2427,Gabbro_08,4,08,2,8,1.243,4,08,-0.103703704,-0.401851852,1,0,0,5.5686,Pegmatite_rect,6,5.569,0,12,0,12,0,1,,,,,,,,,,,,,
65978a6c375b6513561ed3fa,SCR,2024-06-25_11h41.18.527,LearnStrategy,2023.2.3,Win32,59.88023952,4,1,14,0.251851852,-0.118518519,1,0,0,0.8455,Peridotite_15,7,15,3,6,0.845,7,15,-0.091666667,-0.400925926,1,0,0,10.3172,Pegmatite_rect,6,10.317,0,13,0,13,0,1,,,,,,,,,,,,,
65978a6c375b6513561ed3fa,SCR,2024-06-25_11h41.18.527,LearnStrategy,2023.2.3,Win32,59.88023952,4,1,15,-0.357407407,0.093518519,1,0,0,1.1131,Diorite_06,3,06,4,2,1.113,3,06,-0.085185185,-0.399074074,1,0,0,6.6606,Pegmatite_rect,6,6.661,0,14,0,14,0,1,,,,,,,,,,,,,
65978a6c375b6513561ed3fa,SCR,2024-06-25_11h41.18.527,LearnStrategy,2023.2.3,Win32,59.88023952,4,1,16,-0.073148148,0.389814815,1,0,0,1.9826,Pegmatite_06,6,06,6,4,1.983,6,06,-0.072222222,-0.391666667,1,0,0,7.2863,Pegmatite_rect,6,7.286,1,15,0,15,0,1,,,,,,,,,,,,,
65978a6c375b6513561ed3fa,SCR,2024-06-25_11h41.18.527,LearnStrategy,2023.2.3,Win32,59.88023952,4,2,1,,,,,,,,3,07,,,,,,,,,,,,,3,3.236,1,,,,,,0.139814815,-0.239814815,1,0,0,3.2359,Diorite_rect,0,0,0,0,1,
65978a6c375b6513561ed3fa,SCR,2024-06-25_11h41.18.527,LearnStrategy,2023.2.3,Win32,59.88023952,4,2,2,,,,,,,,1,11,,,,,,,,,,,,,4,3.227,0,,,,,,0.4,-0.247222222,1,0,0,3.2274,Gabbro_rect,1,0,1,0,1,
65978a6c375b6513561ed3fa,SCR,2024-06-25_11h41.18.527,LearnStrategy,2023.2.3,Win32,59.88023952,4,2,3,,,,,,,,2,10,,,,,,,,,,,,,2,4.09,1,,,,,,-0.09537037,-0.22962963,1,0,0,4.0897,Basalt_rect,2,0,2,0,1,
65978a6c375b6513561ed3fa,SCR,2024-06-25_11h41.18.527,LearnStrategy,2023.2.3,Win32,59.88023952,4,2,4,,,,,,,,8,08,,,,,,,,,,,,,8,1.482,1,,,,,,0.415740741,-0.412962963,1,0,0,1.4823,Pumice_rect,3,0,3,0,1,
65978a6c375b6513561ed3fa,SCR,2024-06-25_11h41.18.527,LearnStrategy,2023.2.3,Win32,59.88023952,4,2,5,,,,,,,,5,02,,,,,,,,,,,,,5,2.203,1,,,,,,-0.361111111,-0.390740741,1,0,0,2.2031,Obsidian_rect,4,0,4,0,1,
65978a6c375b6513561ed3fa,SCR,2024-06-25_11h41.18.527,LearnStrategy,2023.2.3,Win32,59.88023952,4,2,6,,,,,,,,2,14,,,,,,,,,,,,,7,11.241,0,,,,,,0.146296296,-0.391666667,1,0,0,11.2415,Peridotite_rect,5,0,5,0,1,
65978a6c375b6513561ed3fa,SCR,2024-06-25_11h41.18.527,LearnStrategy,2023.2.3,Win32,59.88023952,4,2,7,,,,,,,,4,10,,,,,,,,,,,,,7,8.077,0,,,,,,0.149074074,-0.401851852,1,0,0,8.0766,Peridotite_rect,6,0,6,0,1,
65978a6c375b6513561ed3fa,SCR,2024-06-25_11h41.18.527,LearnStrategy,2023.2.3,Win32,59.88023952,4,2,8,,,,,,,,4,12,,,,,,,,,,,,,4,2.946,1,,,,,,0.363888889,-0.252777778,1,0,0,2.9459,Gabbro_rect,7,0,7,0,1,
65978a6c375b6513561ed3fa,SCR,2024-06-25_11h41.18.527,LearnStrategy,2023.2.3,Win32,59.88023952,4,2,9,,,,,,,,6,08,,,,,,,,,,,,,6,3.107,1,,,,,,-0.087962963,-0.390740741,1,0,0,3.1071,Pegmatite_rect,8,0,8,0,1,
65978a6c375b6513561ed3fa,SCR,2024-06-25_11h41.18.527,LearnStrategy,2023.2.3,Win32,59.88023952,4,2,10,,,,,,,,5,11,,,,,,,,,,,,,5,1.302,1,,,,,,-0.375925926,-0.410185185,1,0,0,1.3015,Obsidian_rect,9,0,9,0,1,
65978a6c375b6513561ed3fa,SCR,2024-06-25_11h41.18.527,LearnStrategy,2023.2.3,Win32,59.88023952,4,2,11,,,,,,,,3,10,,,,,,,,,,,,,3,3.234,1,,,,,,0.077777778,-0.241666667,1,0,0,3.2336,Diorite_rect,10,0,10,0,1,
65978a6c375b6513561ed3fa,SCR,2024-06-25_11h41.18.527,LearnStrategy,2023.2.3,Win32,59.88023952,4,2,12,,,,,,,,8,16,,,,,,,,,,,,,8,1.198,1,,,,,,0.338888889,-0.380555556,1,0,0,1.198,Pumice_rect,11,0,11,0,1,
65978a6c375b6513561ed3fa,SCR,2024-06-25_11h41.18.527,LearnStrategy,2023.2.3,Win32,59.88023952,4,2,13,,,,,,,,7,13,,,,,,,,,,,,,6,5.888,0,,,,,,-0.117592593,-0.400925926,1,0,0,5.8882,Pegmatite_rect,12,0,12,0,1,
65978a6c375b6513561ed3fa,SCR,2024-06-25_11h41.18.527,LearnStrategy,2023.2.3,Win32,59.88023952,4,2,14,,,,,,,,6,11,,,,,,,,,,,,,6,1.583,1,,,,,,-0.116666667,-0.401851852,1,0,0,1.5829,Pegmatite_rect,13,0,13,0,1,
65978a6c375b6513561ed3fa,SCR,2024-06-25_11h41.18.527,LearnStrategy,2023.2.3,Win32,59.88023952,4,2,15,,,,,,,,1,05,,,,,,,,,,,,,4,1.491,0,,,,,,0.394444444,-0.24537037,1,0,0,1.4906,Gabbro_rect,14,0,14,0,1,
65978a6c375b6513561ed3fa,SCR,2024-06-25_11h41.18.527,LearnStrategy,2023.2.3,Win32,59.88023952,4,2,16,,,,,,,,7,07,,,,,,,,,,,,,1,7.196,0,,,,,,-0.356481481,-0.238888889,1,0,0,7.1956,Andesite_rect,15,0,15,0,1,
65978a6c375b6513561ed3fa,SCR,2024-06-25_11h41.18.527,LearnStrategy,2023.2.3,Win32,59.88023952,5,1,1,-0.1,-0.094444444,1,0,0,1.0802,Peridotite_10,7,10,3,4,1.08,7,10,0.132407407,-0.405555556,1,0,0,4.7867,Peridotite_rect,7,4.787,1,0,0,0,0,1,,,,,,,,,,,,,
65978a6c375b6513561ed3fa,SCR,2024-06-25_11h41.18.527,LearnStrategy,2023.2.3,Win32,59.88023952,5,1,2,0.358333333,0.238888889,1,0,0,1.4317,Peridotite_06,7,06,5,7,1.432,7,06,0.096296296,-0.406481481,1,0,0,1.8241,Peridotite_rect,7,1.824,1,1,0,1,0,1,,,,,,,,,,,,,
65978a6c375b6513561ed3fa,SCR,2024-06-25_11h41.18.527,LearnStrategy,2023.2.3,Win32,59.88023952,5,1,3,-0.349074074,-0.242592593,1,0,0,1.7167,Basalt_01,2,01,2,2,1.717,2,01,-0.141666667,-0.238888889,1,0,0,4.3127,Basalt_rect,2,4.313,1,2,0,2,0,1,,,,,,,,,,,,,
65978a6c375b6513561ed3fa,SCR,2024-06-25_11h41.18.527,LearnStrategy,2023.2.3,Win32,59.88023952,5,1,4,0.385185185,-0.29537037,1,0,0,0.9473,Gabbro_14,4,14,2,7,0.947,4,14,0.375925926,-0.241666667,1,0,0,4.4968,Gabbro_rect,4,4.497,1,3,0,3,0,1,,,,,,,,,,,,,
65978a6c375b6513561ed3fa,SCR,2024-06-25_11h41.18.527,LearnStrategy,2023.2.3,Win32,59.88023952,5,1,5,-0.54537037,-0.436111111,1,0,0,1.3103,Pumice_14,8,14,1,1,1.31,8,14,0.401851852,-0.403703704,1,0,0,0.8101,Pumice_rect,8,0.81,1,4,0,4,0,1,,,,,,,,,,,,,
65978a6c375b6513561ed3fa,SCR,2024-06-25_11h41.18.527,LearnStrategy,2023.2.3,Win32,59.88023952,5,1,6,0.500925926,0.053703704,1,0,0,0.9136,Andesite_07,1,07,4,8,0.914,1,07,0.162962963,-0.25462963,1,0,0,2.4218,Diorite_rect,3,2.422,0,5,0,5,0,1,,,,,,,,,,,,,
65978a6c375b6513561ed3fa,SCR,2024-06-25_11h41.18.527,LearnStrategy,2023.2.3,Win32,59.88023952,5,1,7,-0.412962963,0.419444444,1,0,0,1.2963,Diorite_09,3,09,6,2,1.296,3,09,0.098148148,-0.231481481,1,0,0,0.9103,Diorite_rect,3,0.91,1,6,0,6,0,1,,,,,,,,,,,,,
65978a6c375b6513561ed3fa,SCR,2024-06-25_11h41.18.527,LearnStrategy,2023.2.3,Win32,59.88023952,5,1,8,-0.39537037,-0.293518519,1,0,0,1.0062,Basalt_01,2,01,2,2,1.006,2,01,-0.205555556,-0.265740741,1,0,0,0.9636,Basalt_rect,2,0.964,1,7,0,7,0,1,,,,,,,,,,,,,
65978a6c375b6513561ed3fa,SCR,2024-06-25_11h41.18.527,LearnStrategy,2023.2.3,Win32,59.88023952,5,1,9,-0.444444444,0.135185185,1,0,0,0.9159,Diorite_06,3,06,4,2,0.916,3,06,0.341666667,-0.242592593,1,0,0,1.7076,Gabbro_rect,4,1.708,0,8,0,8,0,1,,,,,,,,,,,,,
65978a6c375b6513561ed3fa,SCR,2024-06-25_11h41.18.527,LearnStrategy,2023.2.3,Win32,59.88023952,5,1,10,-0.381481481,-0.110185185,1,0,0,0.8309,Andesite_04,1,04,3,2,0.831,1,04,0.099074074,-0.237037037,1,0,0,2.3928,Diorite_rect,3,2.393,0,9,0,9,0,1,,,,,,,,,,,,,
65978a6c375b6513561ed3fa,SCR,2024-06-25_11h41.18.527,LearnStrategy,2023.2.3,Win32,59.88023952,5,1,11,-0.240740741,0.434259259,1,0,0,1.4963,Andesite_10,1,10,6,3,1.496,1,10,0.137962963,-0.403703704,1,0,0,2.6452,Peridotite_rect,7,2.645,0,10,0,10,0,1,,,,,,,,,,,,,
65978a6c375b6513561ed3fa,SCR,2024-06-25_11h41.18.527,LearnStrategy,2023.2.3,Win32,59.88023952,5,1,12,-0.525,-0.055555556,1,0,0,1.1771,Gabbro_11,4,11,3,1,1.177,4,11,-0.381481481,-0.248148148,1,0,0,1.1504,Andesite_rect,1,1.15,0,11,0,11,0,1,,,,,,,,,,,,,
65978a6c375b6513561ed3fa,SCR,2024-06-25_11h41.18.527,LearnStrategy,2023.2.3,Win32,59.88023952,5,1,13,0.201851852,0.425,1,0,0,1.1596,Pegmatite_09,6,09,6,6,1.16,6,09,-0.089814815,-0.410185185,1,0,0,1.6615,Pegmatite_rect,6,1.661,1,12,0,12,0,1,,,,,,,,,,,,,
65978a6c375b6513561ed3fa,SCR,2024-06-25_11h41.18.527,LearnStrategy,2023.2.3,Win32,59.88023952,5,1,14,-0.042592593,0.084259259,1,0,0,0.6624,Peridotite_12,7,12,4,4,0.662,7,12,-0.083333333,-0.412962963,1,0,0,1.4276,Pegmatite_rect,6,1.428,0,13,0,13,0,1,,,,,,,,,,,,,
65978a6c375b6513561ed3fa,SCR,2024-06-25_11h41.18.527,LearnStrategy,2023.2.3,Win32,59.88023952,5,1,15,-0.424074074,-0.122222222,1,0,0,0.996,Andesite_04,1,04,3,2,0.996,1,04,-0.372222222,-0.262037037,1,0,0,1.5115,Andesite_rect,1,1.512,1,14,0,14,0,1,,,,,,,,,,,,,
65978a6c375b6513561ed3fa,SCR,2024-06-25_11h41.18.527,LearnStrategy,2023.2.3,Win32,59.88023952,5,1,16,0.234259259,-0.232407407,1,0,0,0.8312,Obsidian_08,5,08,2,6,0.831,5,08,-0.353703704,-0.4,1,0,0,1.1709,Obsidian_rect,5,1.171,1,15,0,15,0,1,,,,,,,,,,,,,
65978a6c375b6513561ed3fa,SCR,2024-06-25_11h41.18.527,LearnStrategy,2023.2.3,Win32,59.88023952,5,2,1,,,,,,,,3,16,,,,,,,,,,,,,4,3.097,0,,,,,,0.401851852,-0.230555556,1,0,0,3.0974,Gabbro_rect,0,0,0,0,1,
65978a6c375b6513561ed3fa,SCR,2024-06-25_11h41.18.527,LearnStrategy,2023.2.3,Win32,59.88023952,5,2,2,,,,,,,,2,11,,,,,,,,,,,,,8,1.603,0,,,,,,0.363888889,-0.391666667,1,0,0,1.6027,Pumice_rect,1,0,1,0,1,
65978a6c375b6513561ed3fa,SCR,2024-06-25_11h41.18.527,LearnStrategy,2023.2.3,Win32,59.88023952,5,2,3,,,,,,,,1,14,,,,,,,,,,,,,6,1.701,0,,,,,,-0.117592593,-0.412037037,1,0,0,1.7015,Pegmatite_rect,2,0,2,0,1,
65978a6c375b6513561ed3fa,SCR,2024-06-25_11h41.18.527,LearnStrategy,2023.2.3,Win32,59.88023952,5,2,4,,,,,,,,5,14,,,,,,,,,,,,,5,1.552,1,,,,,,-0.337962963,-0.387962963,1,0,0,1.5519,Obsidian_rect,3,0,3,0,1,
65978a6c375b6513561ed3fa,SCR,2024-06-25_11h41.18.527,LearnStrategy,2023.2.3,Win32,59.88023952,5,2,5,,,,,,,,6,13,,,,,,,,,,,,,6,2.46,1,,,,,,-0.197222222,-0.389814815,1,0,0,2.4601,Pegmatite_rect,4,0,4,0,1,
65978a6c375b6513561ed3fa,SCR,2024-06-25_11h41.18.527,LearnStrategy,2023.2.3,Win32,59.88023952,5,2,6,,,,,,,,4,15,,,,,,,,,,,,,4,1.288,1,,,,,,0.344444444,-0.258333333,1,0,0,1.2879,Gabbro_rect,5,0,5,0,1,
65978a6c375b6513561ed3fa,SCR,2024-06-25_11h41.18.527,LearnStrategy,2023.2.3,Win32,59.88023952,5,2,7,,,,,,,,8,13,,,,,,,,,,,,,8,1.465,1,,,,,,0.361111111,-0.396296296,1,0,0,1.4649,Pumice_rect,6,0,6,0,1,
65978a6c375b6513561ed3fa,SCR,2024-06-25_11h41.18.527,LearnStrategy,2023.2.3,Win32,59.88023952,5,2,8,,,,,,,,7,04,,,,,,,,,,,,,1,6.156,0,,,,,,-0.337962963,-0.236111111,1,0,0,6.1556,Andesite_rect,7,0,7,0,1,
65978a6c375b6513561ed3fa,SCR,2024-06-25_11h41.18.527,LearnStrategy,2023.2.3,Win32,59.88023952,5,2,9,,,,,,,,3,15,,,,,,,,,,,,,4,3.219,0,,,,,,0.365740741,-0.24537037,1,0,0,3.2187,Gabbro_rect,8,0,8,0,1,
65978a6c375b6513561ed3fa,SCR,2024-06-25_11h41.18.527,LearnStrategy,2023.2.3,Win32,59.88023952,5,2,10,,,,,,,,2,06,,,,,,,,,,,,,2,1.418,1,,,,,,-0.077777778,-0.255555556,1,0,0,1.4183,Basalt_rect,9,0,9,0,1,
65978a6c375b6513561ed3fa,SCR,2024-06-25_11h41.18.527,LearnStrategy,2023.2.3,Win32,59.88023952,5,2,11,,,,,,,,7,05,,,,,,,,,,,,,1,2.203,0,,,,,,-0.342592593,-0.247222222,1,0,0,2.2028,Andesite_rect,10,0,10,0,1,
65978a6c375b6513561ed3fa,SCR,2024-06-25_11h41.18.527,LearnStrategy,2023.2.3,Win32,59.88023952,5,2,12,,,,,,,,6,10,,,,,,,,,,,,,6,1.817,1,,,,,,-0.173148148,-0.387962963,1,0,0,1.8174,Pegmatite_rect,11,0,11,0,1,
65978a6c375b6513561ed3fa,SCR,2024-06-25_11h41.18.527,LearnStrategy,2023.2.3,Win32,59.88023952,5,2,13,,,,,,,,8,09,,,,,,,,,,,,,8,1.266,1,,,,,,0.332407407,-0.406481481,1,0,0,1.2658,Pumice_rect,12,0,12,0,1,
65978a6c375b6513561ed3fa,SCR,2024-06-25_11h41.18.527,LearnStrategy,2023.2.3,Win32,59.88023952,5,2,14,,,,,,,,1,01,,,,,,,,,,,,,7,12.252,0,,,,,,0.096296296,-0.397222222,1,0,0,12.2516,Peridotite_rect,13,0,13,0,1,
65978a6c375b6513561ed3fa,SCR,2024-06-25_11h41.18.527,LearnStrategy,2023.2.3,Win32,59.88023952,5,2,15,,,,,,,,5,05,,,,,,,,,,,,,7,1.456,0,,,,,,0.096296296,-0.397222222,1,0,0,1.4555,Peridotite_rect,14,0,14,0,1,
65978a6c375b6513561ed3fa,SCR,2024-06-25_11h41.18.527,LearnStrategy,2023.2.3,Win32,59.88023952,5,2,16,,,,,,,,4,05,,,,,,,,,,,,,4,1.528,1,,,,,,0.373148148,-0.25,1,0,0,1.5277,Gabbro_rect,15,0,15,0,1,
65978a6c375b6513561ed3fa,SCR,2024-06-25_11h41.18.527,LearnStrategy,2023.2.3,Win32,59.88023952,6,1,1,-0.538888889,0.286111111,1,0,0,1.3984,Basalt_02,2,02,5,1,1.398,2,02,-0.171296296,-0.25,1,0,0,1.4612,Basalt_rect,2,1.461,1,0,0,0,0,1,,,,,,,,,,,,,
65978a6c375b6513561ed3fa,SCR,2024-06-25_11h41.18.527,LearnStrategy,2023.2.3,Win32,59.88023952,6,1,2,-0.410185185,-0.427777778,1,0,0,1.047,Obsidian_09,5,09,1,2,1.047,5,09,-0.394444444,-0.405555556,1,0,0,1.3324,Obsidian_rect,5,1.332,1,1,0,1,0,1,,,,,,,,,,,,,
65978a6c375b6513561ed3fa,SCR,2024-06-25_11h41.18.527,LearnStrategy,2023.2.3,Win32,59.88023952,6,1,3,0.199074074,-0.383333333,1,0,0,4.0693,Gabbro_01,4,01,1,6,4.069,4,01,0.356481481,-0.241666667,1,0,0,3.1623,Gabbro_rect,4,3.162,1,2,0,2,0,1,,,,,,,,,,,,,
65978a6c375b6513561ed3fa,SCR,2024-06-25_11h41.18.527,LearnStrategy,2023.2.3,Win32,59.88023952,6,1,4,-0.443518519,0.244444444,1,0,0,1.2301,Andesite_03,1,03,5,2,1.23,1,03,-0.412037037,-0.248148148,1,0,0,2.6442,Andesite_rect,1,2.644,1,3,0,3,0,1,,,,,,,,,,,,,
65978a6c375b6513561ed3fa,SCR,2024-06-25_11h41.18.527,LearnStrategy,2023.2.3,Win32,59.88023952,6,1,5,-0.281481481,0.401851852,1,0,0,0.9286,Andesite_10,1,10,6,3,0.929,1,10,0.371296296,-0.418518519,1,0,0,2.6627,Pumice_rect,8,2.663,0,4,0,4,0,1,,,,,,,,,,,,,
65978a6c375b6513561ed3fa,SCR,2024-06-25_11h41.18.527,LearnStrategy,2023.2.3,Win32,59.88023952,6,1,6,-0.386111111,-0.099074074,1,0,0,0.8111,Andesite_04,1,04,3,2,0.811,1,04,-0.390740741,-0.239814815,1,0,0,1.0938,Andesite_rect,1,1.094,1,5,0,5,0,1,,,,,,,,,,,,,
65978a6c375b6513561ed3fa,SCR,2024-06-25_11h41.18.527,LearnStrategy,2023.2.3,Win32,59.88023952,6,1,7,0.4,-0.441666667,1,0,0,1.0741,Peridotite_14,7,14,1,7,1.074,7,14,0.168518519,-0.248148148,1,0,0,1.5655,Diorite_rect,3,1.566,0,6,0,6,0,1,,,,,,,,,,,,,
65978a6c375b6513561ed3fa,SCR,2024-06-25_11h41.18.527,LearnStrategy,2023.2.3,Win32,59.88023952,6,1,8,-0.244444444,0.281481481,1,0,0,1.0938,Diorite_13,3,13,5,3,1.094,3,13,0.116666667,-0.260185185,1,0,0,1.3947,Diorite_rect,3,1.395,1,7,0,7,0,1,,,,,,,,,,,,,
65978a6c375b6513561ed3fa,SCR,2024-06-25_11h41.18.527,LearnStrategy,2023.2.3,Win32,59.88023952,6,1,9,-0.249074074,0.447222222,1,0,0,0.9286,Andesite_10,1,10,6,3,0.929,1,10,0.147222222,-0.261111111,1,0,0,2.0784,Diorite_rect,3,2.078,0,8,0,8,0,1,,,,,,,,,,,,,
65978a6c375b6513561ed3fa,SCR,2024-06-25_11h41.18.527,LearnStrategy,2023.2.3,Win32,59.88023952,6,1,10,0.065740741,-0.088888889,1,0,0,1.1132,Diorite_12,3,12,3,5,1.113,3,12,0.093518519,-0.268518519,1,0,0,2.6124,Diorite_rect,3,2.612,1,9,0,9,0,1,,,,,,,,,,,,,
65978a6c375b6513561ed3fa,SCR,2024-06-25_11h41.18.527,LearnStrategy,2023.2.3,Win32,59.88023952,6,1,11,-0.538888889,0.078703704,1,0,0,1.5487,Basalt_05,2,05,4,1,1.549,2,05,-0.144444444,-0.239814815,1,0,0,1.2608,Basalt_rect,2,1.261,1,10,0,10,0,1,,,,,,,,,,,,,
65978a6c375b6513561ed3fa,SCR,2024-06-25_11h41.18.527,LearnStrategy,2023.2.3,Win32,59.88023952,6,1,12,0.373148148,-0.083333333,1,0,0,0.978,Diorite_08,3,08,3,7,0.978,3,08,0.149074074,-0.237037037,1,0,0,0.8944,Diorite_rect,3,0.894,1,11,0,11,0,1,,,,,,,,,,,,,
65978a6c375b6513561ed3fa,SCR,2024-06-25_11h41.18.527,LearnStrategy,2023.2.3,Win32,59.88023952,6,1,13,-0.030555556,-0.097222222,1,0,0,0.6321,Peridotite_10,7,10,3,4,0.632,7,10,0.107407407,-0.388888889,1,0,0,4.3673,Peridotite_rect,7,4.367,1,12,0,12,0,1,,,,,,,,,,,,,
65978a6c375b6513561ed3fa,SCR,2024-06-25_11h41.18.527,LearnStrategy,2023.2.3,Win32,59.88023952,6,1,14,0.42962963,-0.4,1,0,0,0.896,Peridotite_14,7,14,1,7,0.896,7,14,0.09537037,-0.246296296,1,0,0,1.6434,Diorite_rect,3,1.643,0,13,0,13,0,1,,,,,,,,,,,,,
65978a6c375b6513561ed3fa,SCR,2024-06-25_11h41.18.527,LearnStrategy,2023.2.3,Win32,59.88023952,6,1,15,0.598148148,-0.272222222,1,0,0,0.8739,Gabbro_08,4,08,2,8,0.874,4,08,0.35,-0.246296296,1,0,0,2.1597,Gabbro_rect,4,2.16,1,14,0,14,0,1,,,,,,,,,,,,,
65978a6c375b6513561ed3fa,SCR,2024-06-25_11h41.18.527,LearnStrategy,2023.2.3,Win32,59.88023952,6,1,16,0.087037037,0.084259259,1,0,0,0.6125,Pegmatite_07,6,07,4,5,0.612,6,07,-0.075,-0.392592593,1,0,0,1.7488,Pegmatite_rect,6,1.749,1,15,0,15,0,1,,,,,,,,,,,,,
65978a6c375b6513561ed3fa,SCR,2024-06-25_11h41.18.527,LearnStrategy,2023.2.3,Win32,59.88023952,6,2,1,,,,,,,,8,05,,,,,,,,,,,,,8,1.303,1,,,,,,0.39537037,-0.40462963,1,0,0,1.3032,Pumice_rect,0,0,0,0,1,
65978a6c375b6513561ed3fa,SCR,2024-06-25_11h41.18.527,LearnStrategy,2023.2.3,Win32,59.88023952,6,2,2,,,,,,,,1,09,,,,,,,,,,,,,3,4.036,0,,,,,,0.097222222,-0.271296296,1,0,0,4.0362,Diorite_rect,1,0,1,0,1,
65978a6c375b6513561ed3fa,SCR,2024-06-25_11h41.18.527,LearnStrategy,2023.2.3,Win32,59.88023952,6,2,3,,,,,,,,2,08,,,,,,,,,,,,,2,1.517,1,,,,,,-0.10462963,-0.251851852,1,0,0,1.5166,Basalt_rect,2,0,2,0,1,
65978a6c375b6513561ed3fa,SCR,2024-06-25_11h41.18.527,LearnStrategy,2023.2.3,Win32,59.88023952,6,2,4,,,,,,,,3,02,,,,,,,,,,,,,4,3.19,0,,,,,,0.35,-0.269444444,1,0,0,3.1903,Gabbro_rect,3,0,3,0,1,
65978a6c375b6513561ed3fa,SCR,2024-06-25_11h41.18.527,LearnStrategy,2023.2.3,Win32,59.88023952,6,2,5,,,,,,,,4,16,,,,,,,,,,,,,2,1.5,0,,,,,,-0.076851852,-0.255555556,1,0,0,1.5001,Basalt_rect,4,0,4,0,1,
65978a6c375b6513561ed3fa,SCR,2024-06-25_11h41.18.527,LearnStrategy,2023.2.3,Win32,59.88023952,6,2,6,,,,,,,,4,09,,,,,,,,,,,,,4,2.918,1,,,,,,0.347222222,-0.256481481,1,0,0,2.9182,Gabbro_rect,5,0,5,0,1,
65978a6c375b6513561ed3fa,SCR,2024-06-25_11h41.18.527,LearnStrategy,2023.2.3,Win32,59.88023952,6,2,7,,,,,,,,1,02,,,,,,,,,,,,,1,2.968,1,,,,,,-0.374074074,-0.248148148,1,0,0,2.9685,Andesite_rect,6,0,6,0,1,
65978a6c375b6513561ed3fa,SCR,2024-06-25_11h41.18.527,LearnStrategy,2023.2.3,Win32,59.88023952,6,2,8,,,,,,,,5,16,,,,,,,,,,,,,5,1.149,1,,,,,,-0.386111111,-0.410185185,1,0,0,1.1487,Obsidian_rect,7,0,7,0,1,
65978a6c375b6513561ed3fa,SCR,2024-06-25_11h41.18.527,LearnStrategy,2023.2.3,Win32,59.88023952,6,2,9,,,,,,,,8,02,,,,,,,,,,,,,8,1.11,1,,,,,,0.352777778,-0.413888889,1,0,0,1.1104,Pumice_rect,8,0,8,0,1,
65978a6c375b6513561ed3fa,SCR,2024-06-25_11h41.18.527,LearnStrategy,2023.2.3,Win32,59.88023952,6,2,10,,,,,,,,5,04,,,,,,,,,,,,,5,1.031,1,,,,,,-0.359259259,-0.385185185,1,0,0,1.0311,Obsidian_rect,9,0,9,0,1,
65978a6c375b6513561ed3fa,SCR,2024-06-25_11h41.18.527,LearnStrategy,2023.2.3,Win32,59.88023952,6,2,11,,,,,,,,3,11,,,,,,,,,,,,,4,3.46,0,,,,,,0.316666667,-0.239814815,1,0,0,3.4599,Gabbro_rect,10,0,10,0,1,
65978a6c375b6513561ed3fa,SCR,2024-06-25_11h41.18.527,LearnStrategy,2023.2.3,Win32,59.88023952,6,2,12,,,,,,,,2,04,,,,,,,,,,,,,2,1.163,1,,,,,,-0.141666667,-0.266666667,1,0,0,1.1627,Basalt_rect,11,0,11,0,1,
65978a6c375b6513561ed3fa,SCR,2024-06-25_11h41.18.527,LearnStrategy,2023.2.3,Win32,59.88023952,6,2,13,,,,,,,,6,16,,,,,,,,,,,,,6,1.652,1,,,,,,-0.132407407,-0.405555556,1,0,0,1.6517,Pegmatite_rect,12,0,12,0,1,
65978a6c375b6513561ed3fa,SCR,2024-06-25_11h41.18.527,LearnStrategy,2023.2.3,Win32,59.88023952,6,2,14,,,,,,,,6,12,,,,,,,,,,,,,4,1.79,0,,,,,,0.357407407,-0.236111111,1,0,0,1.7903,Gabbro_rect,13,0,13,0,1,
65978a6c375b6513561ed3fa,SCR,2024-06-25_11h41.18.527,LearnStrategy,2023.2.3,Win32,59.88023952,6,2,15,,,,,,,,7,08,,,,,,,,,,,,,3,2.056,0,,,,,,0.164814815,-0.25,1,0,0,2.0562,Diorite_rect,14,0,14,0,1,
65978a6c375b6513561ed3fa,SCR,2024-06-25_11h41.18.527,LearnStrategy,2023.2.3,Win32,59.88023952,6,2,16,,,,,,,,7,16,,,,,,,,,,,,,4,5.472,0,,,,,,0.360185185,-0.271296296,1,0,0,5.4719,Gabbro_rect,15,0,15,0,1,
65978a6c375b6513561ed3fa,SCR,2024-06-25_11h41.18.527,LearnStrategy,2023.2.3,Win32,59.88023952,7,1,1,0.440740741,0.096296296,1,0,0,0.9084,Pegmatite_15,6,15,4,7,0.908,6,15,-0.110185185,-0.412962963,1,0,0,1.4477,Pegmatite_rect,6,1.448,1,0,0,0,0,1,,,,,,,,,,,,,
65978a6c375b6513561ed3fa,SCR,2024-06-25_11h41.18.527,LearnStrategy,2023.2.3,Win32,59.88023952,7,1,2,-0.04537037,0.074074074,1,0,0,0.697,Peridotite_12,7,12,4,4,0.697,7,12,0.380555556,-0.253703704,1,0,0,1.2117,Gabbro_rect,4,1.212,0,1,0,1,0,1,,,,,,,,,,,,,
65978a6c375b6513561ed3fa,SCR,2024-06-25_11h41.18.527,LearnStrategy,2023.2.3,Win32,59.88023952,7,1,3,0.086111111,-0.425,1,0,0,0.7973,Basalt_16,2,16,1,5,0.797,2,16,-0.07037037,-0.243518519,1,0,0,0.9209,Basalt_rect,2,0.921,1,2,0,2,0,1,,,,,,,,,,,,,
65978a6c375b6513561ed3fa,SCR,2024-06-25_11h41.18.527,LearnStrategy,2023.2.3,Win32,59.88023952,7,1,4,-0.588888889,0.374074074,1,0,0,1.5637,Diorite_14,3,14,6,1,1.564,3,14,0.312037037,-0.248148148,1,0,0,1.5447,Gabbro_rect,4,1.545,0,3,0,3,0,1,,,,,,,,,,,,,
65978a6c375b6513561ed3fa,SCR,2024-06-25_11h41.18.527,LearnStrategy,2023.2.3,Win32,59.88023952,7,1,5,0.583333333,0.463888889,1,0,0,1.3776,Pumice_06,8,06,6,8,1.378,8,06,0.477777778,-0.403703704,1,0,0,1.3084,Pumice_rect,8,1.308,1,4,0,4,0,1,,,,,,,,,,,,,
65978a6c375b6513561ed3fa,SCR,2024-06-25_11h41.18.527,LearnStrategy,2023.2.3,Win32,59.88023952,7,1,6,-0.065740741,0.222222222,1,0,0,0.6794,Gabbro_13,4,13,5,4,0.679,4,13,0.369444444,-0.260185185,1,0,0,0.9068,Gabbro_rect,4,0.907,1,5,0,5,0,1,,,,,,,,,,,,,
65978a6c375b6513561ed3fa,SCR,2024-06-25_11h41.18.527,LearnStrategy,2023.2.3,Win32,59.88023952,7,1,7,0.193518519,0.075,1,0,0,1.0464,Andesite_16,1,16,4,6,1.046,1,16,-0.116666667,-0.25462963,1,0,0,1.0776,Basalt_rect,2,1.078,0,6,0,6,0,1,,,,,,,,,,,,,
65978a6c375b6513561ed3fa,SCR,2024-06-25_11h41.18.527,LearnStrategy,2023.2.3,Win32,59.88023952,7,1,8,0.382407407,-0.369444444,1,0,0,0.8654,Peridotite_14,7,14,1,7,0.865,7,14,0.094444444,-0.266666667,1,0,0,1.7651,Diorite_rect,3,1.765,0,7,0,7,0,1,,,,,,,,,,,,,
65978a6c375b6513561ed3fa,SCR,2024-06-25_11h41.18.527,LearnStrategy,2023.2.3,Win32,59.88023952,7,1,9,0.512037037,-0.397222222,1,0,0,0.8829,Gabbro_03,4,03,1,8,0.883,4,03,0.375925926,-0.241666667,1,0,0,3.4636,Gabbro_rect,4,3.464,1,8,0,8,0,1,,,,,,,,,,,,,
65978a6c375b6513561ed3fa,SCR,2024-06-25_11h41.18.527,LearnStrategy,2023.2.3,Win32,59.88023952,7,1,10,-0.576851852,-0.237037037,1,0,0,1.231,Andesite_06,1,06,2,1,1.231,1,06,-0.309259259,-0.239814815,1,0,0,3.3667,Andesite_rect,1,3.367,1,9,0,9,0,1,,,,,,,,,,,,,
65978a6c375b6513561ed3fa,SCR,2024-06-25_11h41.18.527,LearnStrategy,2023.2.3,Win32,59.88023952,7,1,11,-0.04537037,0.060185185,1,0,0,0.6958,Peridotite_12,7,12,4,4,0.696,7,12,0.14537037,-0.25,1,0,0,1.9113,Diorite_rect,3,1.911,0,10,0,10,0,1,,,,,,,,,,,,,
65978a6c375b6513561ed3fa,SCR,2024-06-25_11h41.18.527,LearnStrategy,2023.2.3,Win32,59.88023952,7,1,12,0.564814815,-0.107407407,1,0,0,1.8625,Obsidian_07,5,07,3,8,1.862,5,07,-0.396296296,-0.415740741,1,0,0,0.9431,Obsidian_rect,5,0.943,1,11,0,11,0,1,,,,,,,,,,,,,
65978a6c375b6513561ed3fa,SCR,2024-06-25_11h41.18.527,LearnStrategy,2023.2.3,Win32,59.88023952,7,1,13,-0.262962963,0.225,1,0,0,1.1007,Diorite_13,3,13,5,3,1.101,3,13,0.42037037,-0.255555556,1,0,0,1.1647,Gabbro_rect,4,1.165,0,12,0,12,0,1,,,,,,,,,,,,,
65978a6c375b6513561ed3fa,SCR,2024-06-25_11h41.18.527,LearnStrategy,2023.2.3,Win32,59.88023952,7,1,14,-0.408333333,0.24537037,1,0,0,0.7809,Andesite_03,1,03,5,2,0.781,1,03,-0.353703704,-0.266666667,1,0,0,1.1806,Andesite_rect,1,1.181,1,13,0,13,0,1,,,,,,,,,,,,,
65978a6c375b6513561ed3fa,SCR,2024-06-25_11h41.18.527,LearnStrategy,2023.2.3,Win32,59.88023952,7,1,15,-0.063888889,-0.097222222,1,0,0,0.5576,Peridotite_10,7,10,3,4,0.558,7,10,0.083333333,-0.408333333,1,0,0,1.2107,Peridotite_rect,7,1.211,1,14,0,14,0,1,,,,,,,,,,,,,
65978a6c375b6513561ed3fa,SCR,2024-06-25_11h41.18.527,LearnStrategy,2023.2.3,Win32,59.88023952,7,1,16,-0.208333333,0.214814815,1,0,0,0.8807,Diorite_13,3,13,5,3,0.881,3,13,0.322222222,-0.236111111,1,0,0,2.2282,Gabbro_rect,4,2.228,0,15,0,15,0,1,,,,,,,,,,,,,
65978a6c375b6513561ed3fa,SCR,2024-06-25_11h41.18.527,LearnStrategy,2023.2.3,Win32,59.88023952,7,2,1,,,,,,,,4,09,,,,,,,,,,,,,4,2.072,1,,,,,,0.469444444,-0.261111111,1,0,0,2.0717,Gabbro_rect,0,0,0,0,1,
65978a6c375b6513561ed3fa,SCR,2024-06-25_11h41.18.527,LearnStrategy,2023.2.3,Win32,59.88023952,7,2,2,,,,,,,,7,08,,,,,,,,,,,,,7,1.714,1,,,,,,0.097222222,-0.394444444,1,0,0,1.7137,Peridotite_rect,1,0,1,0,1,
65978a6c375b6513561ed3fa,SCR,2024-06-25_11h41.18.527,LearnStrategy,2023.2.3,Win32,59.88023952,7,2,3,,,,,,,,1,09,,,,,,,,,,,,,2,1.7,0,,,,,,-0.133333333,-0.263888889,1,0,0,1.7002,Basalt_rect,2,0,2,0,1,
65978a6c375b6513561ed3fa,SCR,2024-06-25_11h41.18.527,LearnStrategy,2023.2.3,Win32,59.88023952,7,2,4,,,,,,,,5,05,,,,,,,,,,,,,5,2.119,1,,,,,,-0.312962963,-0.381481481,1,0,0,2.1191,Obsidian_rect,3,0,3,0,1,
65978a6c375b6513561ed3fa,SCR,2024-06-25_11h41.18.527,LearnStrategy,2023.2.3,Win32,59.88023952,7,2,5,,,,,,,,8,02,,,,,,,,,,,,,8,1.351,1,,,,,,0.35462963,-0.403703704,1,0,0,1.3508,Pumice_rect,4,0,4,0,1,
65978a6c375b6513561ed3fa,SCR,2024-06-25_11h41.18.527,LearnStrategy,2023.2.3,Win32,59.88023952,7,2,6,,,,,,,,4,12,,,,,,,,,,,,,2,2.953,0,,,,,,-0.093518519,-0.25,1,0,0,2.9533,Basalt_rect,5,0,5,0,1,
65978a6c375b6513561ed3fa,SCR,2024-06-25_11h41.18.527,LearnStrategy,2023.2.3,Win32,59.88023952,7,2,7,,,,,,,,2,06,,,,,,,,,,,,,2,0.988,1,,,,,,-0.093518519,-0.25,1,0,0,0.9876,Basalt_rect,6,0,6,0,1,
65978a6c375b6513561ed3fa,SCR,2024-06-25_11h41.18.527,LearnStrategy,2023.2.3,Win32,59.88023952,7,2,8,,,,,,,,2,10,,,,,,,,,,,,,2,0.912,1,,,,,,-0.094444444,-0.25,1,0,0,0.9116,Basalt_rect,7,0,7,0,1,
65978a6c375b6513561ed3fa,SCR,2024-06-25_11h41.18.527,LearnStrategy,2023.2.3,Win32,59.88023952,7,2,9,,,,,,,,3,07,,,,,,,,,,,,,3,1.883,1,,,,,,0.058333333,-0.264814815,1,0,0,1.8831,Diorite_rect,8,0,8,0,1,
65978a6c375b6513561ed3fa,SCR,2024-06-25_11h41.18.527,LearnStrategy,2023.2.3,Win32,59.88023952,7,2,10,,,,,,,,3,02,,,,,,,,,,,,,3,1.622,1,,,,,,0.153703704,-0.269444444,1,0,0,1.6218,Diorite_rect,9,0,9,0,1,
65978a6c375b6513561ed3fa,SCR,2024-06-25_11h41.18.527,LearnStrategy,2023.2.3,Win32,59.88023952,7,2,11,,,,,,,,1,01,,,,,,,,,,,,,4,2.851,0,,,,,,0.361111111,-0.253703704,1,0,0,2.8515,Gabbro_rect,10,0,10,0,1,
65978a6c375b6513561ed3fa,SCR,2024-06-25_11h41.18.527,LearnStrategy,2023.2.3,Win32,59.88023952,7,2,12,,,,,,,,5,14,,,,,,,,,,,,,5,1.933,1,,,,,,-0.330555556,-0.390740741,1,0,0,1.9332,Obsidian_rect,11,0,11,0,1,
65978a6c375b6513561ed3fa,SCR,2024-06-25_11h41.18.527,LearnStrategy,2023.2.3,Win32,59.88023952,7,2,13,,,,,,,,6,11,,,,,,,,,,,,,7,1.835,0,,,,,,0.105555556,-0.413888889,1,0,0,1.8346,Peridotite_rect,12,0,12,0,1,
65978a6c375b6513561ed3fa,SCR,2024-06-25_11h41.18.527,LearnStrategy,2023.2.3,Win32,59.88023952,7,2,14,,,,,,,,8,09,,,,,,,,,,,,,8,4.115,1,,,,,,0.316666667,-0.400925926,1,0,0,4.1145,Pumice_rect,13,0,13,0,1,
65978a6c375b6513561ed3fa,SCR,2024-06-25_11h41.18.527,LearnStrategy,2023.2.3,Win32,59.88023952,7,2,15,,,,,,,,7,16,,,,,,,,,,,,,4,1.2,0,,,,,,0.381481481,-0.255555556,1,0,0,1.2004,Gabbro_rect,14,0,14,0,1,
65978a6c375b6513561ed3fa,SCR,2024-06-25_11h41.18.527,LearnStrategy,2023.2.3,Win32,59.88023952,7,2,16,,,,,,,,6,13,,,,,,,,,,,,,6,1.216,1,,,,,,-0.114814815,-0.400925926,1,0,0,1.2163,Pegmatite_rect,15,0,15,0,1,
65978a6c375b6513561ed3fa,SCR,2024-06-25_11h41.18.527,LearnStrategy,2023.2.3,Win32,59.88023952,8,1,1,0.099074074,0.418518519,1,0,0,1.0658,Peridotite_02,7,02,6,5,1.066,7,02,-0.075,-0.392592593,1,0,0,2.7177,Pegmatite_rect,6,2.718,0,0,0,0,0,1,,,,,,,,,,,,,
65978a6c375b6513561ed3fa,SCR,2024-06-25_11h41.18.527,LearnStrategy,2023.2.3,Win32,59.88023952,8,1,2,0.413888889,-0.241666667,1,0,0,0.9283,Gabbro_14,4,14,2,7,0.928,4,14,-0.051851852,-0.244444444,1,0,0,1.304,Basalt_rect,2,1.304,0,1,0,1,0,1,,,,,,,,,,,,,
65978a6c375b6513561ed3fa,SCR,2024-06-25_11h41.18.527,LearnStrategy,2023.2.3,Win32,59.88023952,8,1,3,0.546296296,0.107407407,1,0,0,0.7964,Andesite_07,1,07,4,8,0.796,1,07,0.19537037,-0.246296296,1,0,0,1.0319,Diorite_rect,3,1.032,0,2,0,2,0,1,,,,,,,,,,,,,
65978a6c375b6513561ed3fa,SCR,2024-06-25_11h41.18.527,LearnStrategy,2023.2.3,Win32,59.88023952,8,1,4,-0.234259259,-0.393518519,1,0,0,1.1606,Pegmatite_03,6,03,1,3,1.161,6,03,-0.186111111,-0.386111111,1,0,0,1.5115,Pegmatite_rect,6,1.511,1,3,0,3,0,1,,,,,,,,,,,,,
65978a6c375b6513561ed3fa,SCR,2024-06-25_11h41.18.527,LearnStrategy,2023.2.3,Win32,59.88023952,8,1,5,0.421296296,-0.257407407,1,0,0,0.7296,Gabbro_14,4,14,2,7,0.73,4,14,0.381481481,-0.232407407,1,0,0,1.0276,Gabbro_rect,4,1.028,1,4,0,4,0,1,,,,,,,,,,,,,
65978a6c375b6513561ed3fa,SCR,2024-06-25_11h41.18.527,LearnStrategy,2023.2.3,Win32,59.88023952,8,1,6,-0.530555556,0.064814815,1,0,0,1.279,Basalt_05,2,05,4,1,1.279,2,05,-0.162037037,-0.243518519,1,0,0,0.6605,Basalt_rect,2,0.66,1,5,0,5,0,1,,,,,,,,,,,,,
65978a6c375b6513561ed3fa,SCR,2024-06-25_11h41.18.527,LearnStrategy,2023.2.3,Win32,59.88023952,8,1,7,0.253703704,-0.101851852,1,0,0,0.7131,Peridotite_15,7,15,3,6,0.713,7,15,0.111111111,-0.418518519,1,0,0,1.4761,Peridotite_rect,7,1.476,1,6,0,6,0,1,,,,,,,,,,,,,
65978a6c375b6513561ed3fa,SCR,2024-06-25_11h41.18.527,LearnStrategy,2023.2.3,Win32,59.88023952,8,1,8,0.375925926,0.050925926,1,0,0,0.8076,Pegmatite_15,6,15,4,7,0.808,6,15,-0.173148148,-0.411111111,1,0,0,1.6053,Pegmatite_rect,6,1.605,1,7,0,7,0,1,,,,,,,,,,,,,
65978a6c375b6513561ed3fa,SCR,2024-06-25_11h41.18.527,LearnStrategy,2023.2.3,Win32,59.88023952,8,1,9,-0.35462963,-0.423148148,1,0,0,1.1303,Obsidian_09,5,09,1,2,1.13,5,09,-0.401851852,-0.405555556,1,0,0,0.4091,Obsidian_rect,5,0.409,1,8,0,8,0,1,,,,,,,,,,,,,
65978a6c375b6513561ed3fa,SCR,2024-06-25_11h41.18.527,LearnStrategy,2023.2.3,Win32,59.88023952,8,1,10,-0.558333333,0.375925926,1,0,0,1.1975,Diorite_14,3,14,6,1,1.198,3,14,0.084259259,-0.22962963,1,0,0,1.9243,Diorite_rect,3,1.924,1,9,0,9,0,1,,,,,,,,,,,,,
65978a6c375b6513561ed3fa,SCR,2024-06-25_11h41.18.527,LearnStrategy,2023.2.3,Win32,59.88023952,8,1,11,-0.52037037,0.377777778,1,0,0,1.033,Diorite_14,3,14,6,1,1.033,3,14,0.164814815,-0.251851852,1,0,0,0.8934,Diorite_rect,3,0.893,1,10,0,10,0,1,,,,,,,,,,,,,
65978a6c375b6513561ed3fa,SCR,2024-06-25_11h41.18.527,LearnStrategy,2023.2.3,Win32,59.88023952,8,1,12,-0.052777778,-0.065740741,1,0,0,0.6308,Peridotite_10,7,10,3,4,0.631,7,10,0.081481481,-0.397222222,1,0,0,1.6518,Peridotite_rect,7,1.652,1,11,0,11,0,1,,,,,,,,,,,,,
65978a6c375b6513561ed3fa,SCR,2024-06-25_11h41.18.527,LearnStrategy,2023.2.3,Win32,59.88023952,8,1,13,-0.355555556,-0.077777778,1,0,0,0.896,Andesite_04,1,04,3,2,0.896,1,04,-0.333333333,-0.235185185,1,0,0,1.044,Andesite_rect,1,1.044,1,12,0,12,0,1,,,,,,,,,,,,,
65978a6c375b6513561ed3fa,SCR,2024-06-25_11h41.18.527,LearnStrategy,2023.2.3,Win32,59.88023952,8,1,14,0.200925926,0.098148148,1,0,0,0.6465,Andesite_16,1,16,4,6,0.646,1,16,0.108333333,-0.387962963,1,0,0,2.4125,Peridotite_rect,7,2.412,0,13,0,13,0,1,,,,,,,,,,,,,
65978a6c375b6513561ed3fa,SCR,2024-06-25_11h41.18.527,LearnStrategy,2023.2.3,Win32,59.88023952,8,1,15,0.215740741,0.085185185,1,0,0,0.863,Andesite_16,1,16,4,6,0.863,1,16,-0.382407407,-0.249074074,1,0,0,1.1439,Andesite_rect,1,1.144,1,14,0,14,0,1,,,,,,,,,,,,,
65978a6c375b6513561ed3fa,SCR,2024-06-25_11h41.18.527,LearnStrategy,2023.2.3,Win32,59.88023952,8,1,16,0.541666667,-0.248148148,1,0,0,0.9328,Gabbro_08,4,08,2,8,0.933,4,08,-0.369444444,-0.241666667,1,0,0,1.7446,Andesite_rect,1,1.745,0,15,0,15,0,1,,,,,,,,,,,,,
65978a6c375b6513561ed3fa,SCR,2024-06-25_11h41.18.527,LearnStrategy,2023.2.3,Win32,59.88023952,8,2,1,,,,,,,,5,02,,,,,,,,,,,,,5,1.281,1,,,,,,-0.468518519,-0.408333333,1,0,0,1.2809,Obsidian_rect,0,0,0,0,1,
65978a6c375b6513561ed3fa,SCR,2024-06-25_11h41.18.527,LearnStrategy,2023.2.3,Win32,59.88023952,8,2,2,,,,,,,,5,16,,,,,,,,,,,,,5,0.864,1,,,,,,-0.35,-0.398148148,1,0,0,0.8644,Obsidian_rect,1,0,1,0,1,
65978a6c375b6513561ed3fa,SCR,2024-06-25_11h41.18.527,LearnStrategy,2023.2.3,Win32,59.88023952,8,2,3,,,,,,,,2,14,,,,,,,,,,,,,4,1.485,0,,,,,,0.363888889,-0.248148148,1,0,0,1.4849,Gabbro_rect,2,0,2,0,1,
65978a6c375b6513561ed3fa,SCR,2024-06-25_11h41.18.527,LearnStrategy,2023.2.3,Win32,59.88023952,8,2,4,,,,,,,,7,04,,,,,,,,,,,,,1,4.803,0,,,,,,-0.397222222,-0.242592593,1,0,0,4.8026,Andesite_rect,3,0,3,0,1,
65978a6c375b6513561ed3fa,SCR,2024-06-25_11h41.18.527,LearnStrategy,2023.2.3,Win32,59.88023952,8,2,5,,,,,,,,3,15,,,,,,,,,,,,,4,3.922,0,,,,,,0.375925926,-0.253703704,1,0,0,3.9221,Gabbro_rect,4,0,4,0,1,
65978a6c375b6513561ed3fa,SCR,2024-06-25_11h41.18.527,LearnStrategy,2023.2.3,Win32,59.88023952,8,2,6,,,,,,,,4,05,,,,,,,,,,,,,4,1.354,1,,,,,,0.375925926,-0.253703704,1,0,0,1.3542,Gabbro_rect,5,0,5,0,1,
65978a6c375b6513561ed3fa,SCR,2024-06-25_11h41.18.527,LearnStrategy,2023.2.3,Win32,59.88023952,8,2,7,,,,,,,,1,05,,,,,,,,,,,,,3,2.852,0,,,,,,0.152777778,-0.27037037,1,0,0,2.8518,Diorite_rect,6,0,6,0,1,
65978a6c375b6513561ed3fa,SCR,2024-06-25_11h41.18.527,LearnStrategy,2023.2.3,Win32,59.88023952,8,2,8,,,,,,,,4,10,,,,,,,,,,,,,7,6.673,0,,,,,,0.102777778,-0.413888889,1,0,0,6.673,Peridotite_rect,7,0,7,0,1,
65978a6c375b6513561ed3fa,SCR,2024-06-25_11h41.18.527,LearnStrategy,2023.2.3,Win32,59.88023952,8,2,9,,,,,,,,6,10,,,,,,,,,,,,,6,1.389,1,,,,,,-0.174074074,-0.413888889,1,0,0,1.3895,Pegmatite_rect,8,0,8,0,1,
65978a6c375b6513561ed3fa,SCR,2024-06-25_11h41.18.527,LearnStrategy,2023.2.3,Win32,59.88023952,8,2,10,,,,,,,,7,13,,,,,,,,,,,,,7,1.636,1,,,,,,0.07962963,-0.403703704,1,0,0,1.6355,Peridotite_rect,9,0,9,0,1,
65978a6c375b6513561ed3fa,SCR,2024-06-25_11h41.18.527,LearnStrategy,2023.2.3,Win32,59.88023952,8,2,11,,,,,,,,3,10,,,,,,,,,,,,,1,15.215,0,,,,,,-0.34537037,-0.244444444,1,0,0,15.2146,Andesite_rect,10,0,10,0,1,
65978a6c375b6513561ed3fa,SCR,2024-06-25_11h41.18.527,LearnStrategy,2023.2.3,Win32,59.88023952,8,2,12,,,,,,,,1,11,,,,,,,,,,,,,1,2.215,1,,,,,,-0.332407407,-0.246296296,1,0,0,2.215,Andesite_rect,11,0,11,0,1,
65978a6c375b6513561ed3fa,SCR,2024-06-25_11h41.18.527,LearnStrategy,2023.2.3,Win32,59.88023952,8,2,13,,,,,,,,8,13,,,,,,,,,,,,,8,1.635,1,,,,,,0.350925926,-0.386111111,1,0,0,1.6353,Pumice_rect,12,0,12,0,1,
65978a6c375b6513561ed3fa,SCR,2024-06-25_11h41.18.527,LearnStrategy,2023.2.3,Win32,59.88023952,8,2,14,,,,,,,,2,04,,,,,,,,,,,,,2,1.117,1,,,,,,-0.10462963,-0.240740741,1,0,0,1.1175,Basalt_rect,13,0,13,0,1,
65978a6c375b6513561ed3fa,SCR,2024-06-25_11h41.18.527,LearnStrategy,2023.2.3,Win32,59.88023952,8,2,15,,,,,,,,8,05,,,,,,,,,,,,,8,0.986,1,,,,,,0.408333333,-0.4,1,0,0,0.9861,Pumice_rect,14,0,14,0,1,
65978a6c375b6513561ed3fa,SCR,2024-06-25_11h41.18.527,LearnStrategy,2023.2.3,Win32,59.88023952,8,2,16,,,,,,,,6,16,,,,,,,,,,,,,6,1.217,1,,,,,,-0.155555556,-0.392592593,1,0,0,1.2174,Pegmatite_rect,15,0,15,0,1,
65978a6c375b6513561ed3fa,SCR,2024-06-25_11h41.18.527,LearnStrategy,2023.2.3,Win32,59.88023952,9,1,1,-0.042592593,0.284259259,1,0,0,0.6134,Gabbro_13,4,13,5,4,0.613,4,13,0.4,-0.237962963,1,0,0,0.8329,Gabbro_rect,4,0.833,1,0,0,0,0,1,,,,,,,,,,,,,
65978a6c375b6513561ed3fa,SCR,2024-06-25_11h41.18.527,LearnStrategy,2023.2.3,Win32,59.88023952,9,1,2,0.07962963,-0.257407407,1,0,0,0.6606,Basalt_09,2,09,2,5,0.661,2,09,-0.121296296,-0.261111111,1,0,0,0.7264,Basalt_rect,2,0.726,1,1,0,1,0,1,,,,,,,,,,,,,
65978a6c375b6513561ed3fa,SCR,2024-06-25_11h41.18.527,LearnStrategy,2023.2.3,Win32,59.88023952,9,1,3,0.57037037,0.078703704,1,0,0,1.0061,Andesite_07,1,07,4,8,1.006,1,07,0.183333333,-0.249074074,1,0,0,0.9526,Diorite_rect,3,0.953,0,2,0,2,0,1,,,,,,,,,,,,,
65978a6c375b6513561ed3fa,SCR,2024-06-25_11h41.18.527,LearnStrategy,2023.2.3,Win32,59.88023952,9,1,4,-0.446296296,-0.301851852,1,0,0,0.7966,Basalt_01,2,01,2,2,0.797,2,01,-0.168518519,-0.251851852,1,0,0,0.8207,Basalt_rect,2,0.821,1,3,0,3,0,1,,,,,,,,,,,,,
65978a6c375b6513561ed3fa,SCR,2024-06-25_11h41.18.527,LearnStrategy,2023.2.3,Win32,59.88023952,9,1,5,-0.523148148,0.383333333,1,0,0,1.1131,Diorite_14,3,14,6,1,1.113,3,14,-0.142592593,-0.243518519,1,0,0,1.2614,Basalt_rect,2,1.261,0,4,0,4,0,1,,,,,,,,,,,,,
65978a6c375b6513561ed3fa,SCR,2024-06-25_11h41.18.527,LearnStrategy,2023.2.3,Win32,59.88023952,9,1,6,-0.364814815,-0.45,1,0,0,1.0642,Obsidian_09,5,09,1,2,1.064,5,09,-0.39537037,-0.399074074,1,0,0,0.5708,Obsidian_rect,5,0.571,1,5,0,5,0,1,,,,,,,,,,,,,
65978a6c375b6513561ed3fa,SCR,2024-06-25_11h41.18.527,LearnStrategy,2023.2.3,Win32,59.88023952,9,1,7,0.405555556,-0.199074074,1,0,0,0.9462,Gabbro_14,4,14,2,7,0.946,4,14,0.402777778,-0.247222222,1,0,0,0.7776,Gabbro_rect,4,0.778,1,6,0,6,0,1,,,,,,,,,,,,,
65978a6c375b6513561ed3fa,SCR,2024-06-25_11h41.18.527,LearnStrategy,2023.2.3,Win32,59.88023952,9,1,8,0.411111111,0.238888889,1,0,0,0.863,Peridotite_06,7,06,5,7,0.863,7,06,-0.07962963,-0.407407407,1,0,0,1.3437,Pegmatite_rect,6,1.344,0,7,0,7,0,1,,,,,,,,,,,,,
65978a6c375b6513561ed3fa,SCR,2024-06-25_11h41.18.527,LearnStrategy,2023.2.3,Win32,59.88023952,9,1,9,-0.372222222,0.087962963,1,0,0,0.7639,Diorite_06,3,06,4,2,0.764,3,06,0.346296296,-0.258333333,1,0,0,1.9174,Gabbro_rect,4,1.917,0,8,0,8,0,1,,,,,,,,,,,,,
65978a6c375b6513561ed3fa,SCR,2024-06-25_11h41.18.527,LearnStrategy,2023.2.3,Win32,59.88023952,9,1,10,-0.267592593,0.388888889,1,0,0,1.0132,Andesite_10,1,10,6,3,1.013,1,10,0.390740741,-0.269444444,1,0,0,1.5618,Gabbro_rect,4,1.562,0,9,0,9,0,1,,,,,,,,,,,,,
65978a6c375b6513561ed3fa,SCR,2024-06-25_11h41.18.527,LearnStrategy,2023.2.3,Win32,59.88023952,9,1,11,-0.074074074,0.22962963,1,0,0,0.6298,Gabbro_13,4,13,5,4,0.63,4,13,0.446296296,-0.264814815,1,0,0,1.1771,Gabbro_rect,4,1.177,1,10,0,10,0,1,,,,,,,,,,,,,
65978a6c375b6513561ed3fa,SCR,2024-06-25_11h41.18.527,LearnStrategy,2023.2.3,Win32,59.88023952,9,1,12,0.380555556,-0.098148148,1,0,0,0.9157,Diorite_08,3,08,3,7,0.916,3,08,0.089814815,-0.240740741,1,0,0,1.2337,Diorite_rect,3,1.234,1,11,0,11,0,1,,,,,,,,,,,,,
65978a6c375b6513561ed3fa,SCR,2024-06-25_11h41.18.527,LearnStrategy,2023.2.3,Win32,59.88023952,9,1,13,-0.376851852,-0.093518519,1,0,0,1.543,Andesite_04,1,04,3,2,1.543,1,04,-0.363888889,-0.234259259,1,0,0,1.2772,Andesite_rect,1,1.277,1,12,0,12,0,1,,,,,,,,,,,,,
65978a6c375b6513561ed3fa,SCR,2024-06-25_11h41.18.527,LearnStrategy,2023.2.3,Win32,59.88023952,9,1,14,-0.107407407,-0.099074074,1,0,0,0.5657,Peridotite_10,7,10,3,4,0.566,7,10,0.089814815,-0.391666667,1,0,0,1.0938,Peridotite_rect,7,1.094,1,13,0,13,0,1,,,,,,,,,,,,,
65978a6c375b6513561ed3fa,SCR,2024-06-25_11h41.18.527,LearnStrategy,2023.2.3,Win32,59.88023952,9,1,15,0.224074074,0.402777778,1,0,0,1.0125,Pegmatite_09,6,09,6,6,1.013,6,09,-0.075925926,-0.4,1,0,0,2.546,Pegmatite_rect,6,2.546,1,14,0,14,0,1,,,,,,,,,,,,,
65978a6c375b6513561ed3fa,SCR,2024-06-25_11h41.18.527,LearnStrategy,2023.2.3,Win32,59.88023952,9,1,16,-0.09537037,0.112037037,1,0,0,0.583,Peridotite_12,7,12,4,4,0.583,7,12,-0.099074074,-0.392592593,1,0,0,2.0881,Pegmatite_rect,6,2.088,0,15,0,15,0,1,,,,,,,,,,,,,
65978a6c375b6513561ed3fa,SCR,2024-06-25_11h41.18.527,LearnStrategy,2023.2.3,Win32,59.88023952,9,2,1,,,,,,,,3,11,,,,,,,,,,,,,3,3.136,1,,,,,,0.117592593,-0.243518519,1,0,0,3.1355,Diorite_rect,0,0,0,0,1,
65978a6c375b6513561ed3fa,SCR,2024-06-25_11h41.18.527,LearnStrategy,2023.2.3,Win32,59.88023952,9,2,2,,,,,,,,5,11,,,,,,,,,,,,,5,1.094,1,,,,,,-0.369444444,-0.403703704,1,0,0,1.0938,Obsidian_rect,1,0,1,0,1,
65978a6c375b6513561ed3fa,SCR,2024-06-25_11h41.18.527,LearnStrategy,2023.2.3,Win32,59.88023952,9,2,3,,,,,,,,2,11,,,,,,,,,,,,,8,1.814,0,,,,,,0.337037037,-0.39537037,1,0,0,1.8144,Pumice_rect,2,0,2,0,1,
65978a6c375b6513561ed3fa,SCR,2024-06-25_11h41.18.527,LearnStrategy,2023.2.3,Win32,59.88023952,9,2,4,,,,,,,,5,04,,,,,,,,,,,,,5,1.078,1,,,,,,-0.340740741,-0.390740741,1,0,0,1.0778,Obsidian_rect,3,0,3,0,1,
65978a6c375b6513561ed3fa,SCR,2024-06-25_11h41.18.527,LearnStrategy,2023.2.3,Win32,59.88023952,9,2,5,,,,,,,,7,07,,,,,,,,,,,,,6,1.771,0,,,,,,-0.151851852,-0.408333333,1,0,0,1.7711,Pegmatite_rect,4,0,4,0,1,
65978a6c375b6513561ed3fa,SCR,2024-06-25_11h41.18.527,LearnStrategy,2023.2.3,Win32,59.88023952,9,2,6,,,,,,,,8,16,,,,,,,,,,,,,8,1.483,1,,,,,,0.353703704,-0.391666667,1,0,0,1.4833,Pumice_rect,5,0,5,0,1,
65978a6c375b6513561ed3fa,SCR,2024-06-25_11h41.18.527,LearnStrategy,2023.2.3,Win32,59.88023952,9,2,7,,,,,,,,6,12,,,,,,,,,,,,,7,5.204,0,,,,,,0.112962963,-0.403703704,1,0,0,5.2042,Peridotite_rect,6,0,6,0,1,
65978a6c375b6513561ed3fa,SCR,2024-06-25_11h41.18.527,LearnStrategy,2023.2.3,Win32,59.88023952,9,2,8,,,,,,,,7,05,,,,,,,,,,,,,1,2.718,0,,,,,,-0.341666667,-0.252777778,1,0,0,2.7182,Andesite_rect,7,0,7,0,1,
65978a6c375b6513561ed3fa,SCR,2024-06-25_11h41.18.527,LearnStrategy,2023.2.3,Win32,59.88023952,9,2,9,,,,,,,,1,02,,,,,,,,,,,,,3,1.984,0,,,,,,0.100925926,-0.256481481,1,0,0,1.9839,Diorite_rect,8,0,8,0,1,
65978a6c375b6513561ed3fa,SCR,2024-06-25_11h41.18.527,LearnStrategy,2023.2.3,Win32,59.88023952,9,2,10,,,,,,,,4,15,,,,,,,,,,,,,4,1.287,1,,,,,,0.323148148,-0.25,1,0,0,1.2872,Gabbro_rect,9,0,9,0,1,
65978a6c375b6513561ed3fa,SCR,2024-06-25_11h41.18.527,LearnStrategy,2023.2.3,Win32,59.88023952,9,2,11,,,,,,,,3,16,,,,,,,,,,,,,4,0.883,0,,,,,,0.323148148,-0.25,1,0,0,0.8835,Gabbro_rect,10,0,10,0,1,
65978a6c375b6513561ed3fa,SCR,2024-06-25_11h41.18.527,LearnStrategy,2023.2.3,Win32,59.88023952,9,2,12,,,,,,,,1,14,,,,,,,,,,,,,6,1.414,0,,,,,,-0.125925926,-0.416666667,1,0,0,1.414,Pegmatite_rect,11,0,11,0,1,
65978a6c375b6513561ed3fa,SCR,2024-06-25_11h41.18.527,LearnStrategy,2023.2.3,Win32,59.88023952,9,2,13,,,,,,,,2,08,,,,,,,,,,,,,2,1.952,1,,,,,,-0.1,-0.248148148,1,0,0,1.9518,Basalt_rect,12,0,12,0,1,
65978a6c375b6513561ed3fa,SCR,2024-06-25_11h41.18.527,LearnStrategy,2023.2.3,Win32,59.88023952,9,2,14,,,,,,,,8,08,,,,,,,,,,,,,8,1.2,1,,,,,,0.32962963,-0.405555556,1,0,0,1.2003,Pumice_rect,13,0,13,0,1,
65978a6c375b6513561ed3fa,SCR,2024-06-25_11h41.18.527,LearnStrategy,2023.2.3,Win32,59.88023952,9,2,15,,,,,,,,4,16,,,,,,,,,,,,,2,2.87,0,,,,,,-0.088888889,-0.266666667,1,0,0,2.8701,Basalt_rect,14,0,14,0,1,
65978a6c375b6513561ed3fa,SCR,2024-06-25_11h41.18.527,LearnStrategy,2023.2.3,Win32,59.88023952,9,2,16,,,,,,,,6,08,,,,,,,,,,,,,6,1.051,1,,,,,,-0.12037037,-0.411111111,1,0,0,1.0512,Pegmatite_rect,15,0,15,0,1,
65978a6c375b6513561ed3fa,SCR,2024-06-25_11h41.18.527,LearnStrategy,2023.2.3,Win32,59.88023952,,,,,,,,,,,,,,,,,,,,,,,,,,,,,,,,,,,,,,,,,,,,,0
65978a6c375b6513561ed3fa,SCR,2024-06-25_11h41.18.527,LearnStrategy,2023.2.3,Win32,59.88023952,,,,,,,,,,,,,,,,,,,,,,,,,,,,,,,,,,,,,,,,,,,,,
65978a6c375b6513561ed3fa,SCR,2024-06-25_11h41.18.527,LearnStrategy,2023.2.3,Win32,59.88023952,,,,,,,,,,,8,14,1,1,,,,,,,,,,,,,,,,,,,,,,,,,,,,,,,
65978a6c375b6513561ed3fa,SCR,2024-06-25_11h41.18.527,LearnStrategy,2023.2.3,Win32,59.88023952,,,,,,,,,,,5,09,1,2,,,,,,,,,,,,,,,,,,,,,,,,,,,,,,,
65978a6c375b6513561ed3fa,SCR,2024-06-25_11h41.18.527,LearnStrategy,2023.2.3,Win32,59.88023952,,,,,,,,,,,6,03,1,3,,,,,,,,,,,,,,,,,,,,,,,,,,,,,,,
65978a6c375b6513561ed3fa,SCR,2024-06-25_11h41.18.527,LearnStrategy,2023.2.3,Win32,59.88023952,,,,,,,,,,,6,05,1,4,,,,,,,,,,,,,,,,,,,,,,,,,,,,,,,
65978a6c375b6513561ed3fa,SCR,2024-06-25_11h41.18.527,LearnStrategy,2023.2.3,Win32,59.88023952,,,,,,,,,,,2,16,1,5,,,,,,,,,,,,,,,,,,,,,,,,,,,,,,,
65978a6c375b6513561ed3fa,SCR,2024-06-25_11h41.18.527,LearnStrategy,2023.2.3,Win32,59.88023952,,,,,,,,,,,4,01,1,6,,,,,,,,,,,,,,,,,,,,,,,,,,,,,,,
65978a6c375b6513561ed3fa,SCR,2024-06-25_11h41.18.527,LearnStrategy,2023.2.3,Win32,59.88023952,,,,,,,,,,,7,14,1,7,,,,,,,,,,,,,,,,,,,,,,,,,,,,,,,
65978a6c375b6513561ed3fa,SCR,2024-06-25_11h41.18.527,LearnStrategy,2023.2.3,Win32,59.88023952,,,,,,,,,,,4,03,1,8,,,,,,,,,,,,,,,,,,,,,,,,,,,,,,,
65978a6c375b6513561ed3fa,SCR,2024-06-25_11h41.18.527,LearnStrategy,2023.2.3,Win32,59.88023952,,,,,,,,,,,1,06,2,1,,,,,,,,,,,,,,,,,,,,,,,,,,,,,,,
65978a6c375b6513561ed3fa,SCR,2024-06-25_11h41.18.527,LearnStrategy,2023.2.3,Win32,59.88023952,,,,,,,,,,,2,01,2,2,,,,,,,,,,,,,,,,,,,,,,,,,,,,,,,
65978a6c375b6513561ed3fa,SCR,2024-06-25_11h41.18.527,LearnStrategy,2023.2.3,Win32,59.88023952,,,,,,,,,,,8,10,2,3,,,,,,,,,,,,,,,,,,,,,,,,,,,,,,,
65978a6c375b6513561ed3fa,SCR,2024-06-25_11h41.18.527,LearnStrategy,2023.2.3,Win32,59.88023952,,,,,,,,,,,8,04,2,4,,,,,,,,,,,,,,,,,,,,,,,,,,,,,,,
65978a6c375b6513561ed3fa,SCR,2024-06-25_11h41.18.527,LearnStrategy,2023.2.3,Win32,59.88023952,,,,,,,,,,,2,09,2,5,,,,,,,,,,,,,,,,,,,,,,,,,,,,,,,
65978a6c375b6513561ed3fa,SCR,2024-06-25_11h41.18.527,LearnStrategy,2023.2.3,Win32,59.88023952,,,,,,,,,,,5,08,2,6,,,,,,,,,,,,,,,,,,,,,,,,,,,,,,,
65978a6c375b6513561ed3fa,SCR,2024-06-25_11h41.18.527,LearnStrategy,2023.2.3,Win32,59.88023952,,,,,,,,,,,4,14,2,7,,,,,,,,,,,,,,,,,,,,,,,,,,,,,,,
65978a6c375b6513561ed3fa,SCR,2024-06-25_11h41.18.527,LearnStrategy,2023.2.3,Win32,59.88023952,,,,,,,,,,,4,08,2,8,,,,,,,,,,,,,,,,,,,,,,,,,,,,,,,
65978a6c375b6513561ed3fa,SCR,2024-06-25_11h41.18.527,LearnStrategy,2023.2.3,Win32,59.88023952,,,,,,,,,,,4,11,3,1,,,,,,,,,,,,,,,,,,,,,,,,,,,,,,,
65978a6c375b6513561ed3fa,SCR,2024-06-25_11h41.18.527,LearnStrategy,2023.2.3,Win32,59.88023952,,,,,,,,,,,1,04,3,2,,,,,,,,,,,,,,,,,,,,,,,,,,,,,,,
65978a6c375b6513561ed3fa,SCR,2024-06-25_11h41.18.527,LearnStrategy,2023.2.3,Win32,59.88023952,,,,,,,,,,,5,12,3,3,,,,,,,,,,,,,,,,,,,,,,,,,,,,,,,
65978a6c375b6513561ed3fa,SCR,2024-06-25_11h41.18.527,LearnStrategy,2023.2.3,Win32,59.88023952,,,,,,,,,,,7,10,3,4,,,,,,,,,,,,,,,,,,,,,,,,,,,,,,,
65978a6c375b6513561ed3fa,SCR,2024-06-25_11h41.18.527,LearnStrategy,2023.2.3,Win32,59.88023952,,,,,,,,,,,3,12,3,5,,,,,,,,,,,,,,,,,,,,,,,,,,,,,,,
65978a6c375b6513561ed3fa,SCR,2024-06-25_11h41.18.527,LearnStrategy,2023.2.3,Win32,59.88023952,,,,,,,,,,,7,15,3,6,,,,,,,,,,,,,,,,,,,,,,,,,,,,,,,
65978a6c375b6513561ed3fa,SCR,2024-06-25_11h41.18.527,LearnStrategy,2023.2.3,Win32,59.88023952,,,,,,,,,,,3,08,3,7,,,,,,,,,,,,,,,,,,,,,,,,,,,,,,,
65978a6c375b6513561ed3fa,SCR,2024-06-25_11h41.18.527,LearnStrategy,2023.2.3,Win32,59.88023952,,,,,,,,,,,5,07,3,8,,,,,,,,,,,,,,,,,,,,,,,,,,,,,,,
65978a6c375b6513561ed3fa,SCR,2024-06-25_11h41.18.527,LearnStrategy,2023.2.3,Win32,59.88023952,,,,,,,,,,,2,05,4,1,,,,,,,,,,,,,,,,,,,,,,,,,,,,,,,
65978a6c375b6513561ed3fa,SCR,2024-06-25_11h41.18.527,LearnStrategy,2023.2.3,Win32,59.88023952,,,,,,,,,,,3,06,4,2,,,,,,,,,,,,,,,,,,,,,,,,,,,,,,,
65978a6c375b6513561ed3fa,SCR,2024-06-25_11h41.18.527,LearnStrategy,2023.2.3,Win32,59.88023952,,,,,,,,,,,2,12,4,3,,,,,,,,,,,,,,,,,,,,,,,,,,,,,,,
65978a6c375b6513561ed3fa,SCR,2024-06-25_11h41.18.527,LearnStrategy,2023.2.3,Win32,59.88023952,,,,,,,,,,,7,12,4,4,,,,,,,,,,,,,,,,,,,,,,,,,,,,,,,
65978a6c375b6513561ed3fa,SCR,2024-06-25_11h41.18.527,LearnStrategy,2023.2.3,Win32,59.88023952,,,,,,,,,,,6,07,4,5,,,,,,,,,,,,,,,,,,,,,,,,,,,,,,,
65978a6c375b6513561ed3fa,SCR,2024-06-25_11h41.18.527,LearnStrategy,2023.2.3,Win32,59.88023952,,,,,,,,,,,1,16,4,6,,,,,,,,,,,,,,,,,,,,,,,,,,,,,,,
65978a6c375b6513561ed3fa,SCR,2024-06-25_11h41.18.527,LearnStrategy,2023.2.3,Win32,59.88023952,,,,,,,,,,,6,15,4,7,,,,,,,,,,,,,,,,,,,,,,,,,,,,,,,
65978a6c375b6513561ed3fa,SCR,2024-06-25_11h41.18.527,LearnStrategy,2023.2.3,Win32,59.88023952,,,,,,,,,,,1,07,4,8,,,,,,,,,,,,,,,,,,,,,,,,,,,,,,,
65978a6c375b6513561ed3fa,SCR,2024-06-25_11h41.18.527,LearnStrategy,2023.2.3,Win32,59.88023952,,,,,,,,,,,2,02,5,1,,,,,,,,,,,,,,,,,,,,,,,,,,,,,,,
65978a6c375b6513561ed3fa,SCR,2024-06-25_11h41.18.527,LearnStrategy,2023.2.3,Win32,59.88023952,,,,,,,,,,,1,03,5,2,,,,,,,,,,,,,,,,,,,,,,,,,,,,,,,
65978a6c375b6513561ed3fa,SCR,2024-06-25_11h41.18.527,LearnStrategy,2023.2.3,Win32,59.88023952,,,,,,,,,,,3,13,5,3,,,,,,,,,,,,,,,,,,,,,,,,,,,,,,,
65978a6c375b6513561ed3fa,SCR,2024-06-25_11h41.18.527,LearnStrategy,2023.2.3,Win32,59.88023952,,,,,,,,,,,4,13,5,4,,,,,,,,,,,,,,,,,,,,,,,,,,,,,,,
65978a6c375b6513561ed3fa,SCR,2024-06-25_11h41.18.527,LearnStrategy,2023.2.3,Win32,59.88023952,,,,,,,,,,,5,10,5,5,,,,,,,,,,,,,,,,,,,,,,,,,,,,,,,
65978a6c375b6513561ed3fa,SCR,2024-06-25_11h41.18.527,LearnStrategy,2023.2.3,Win32,59.88023952,,,,,,,,,,,5,06,5,6,,,,,,,,,,,,,,,,,,,,,,,,,,,,,,,
65978a6c375b6513561ed3fa,SCR,2024-06-25_11h41.18.527,LearnStrategy,2023.2.3,Win32,59.88023952,,,,,,,,,,,7,06,5,7,,,,,,,,,,,,,,,,,,,,,,,,,,,,,,,
65978a6c375b6513561ed3fa,SCR,2024-06-25_11h41.18.527,LearnStrategy,2023.2.3,Win32,59.88023952,,,,,,,,,,,8,03,5,8,,,,,,,,,,,,,,,,,,,,,,,,,,,,,,,
65978a6c375b6513561ed3fa,SCR,2024-06-25_11h41.18.527,LearnStrategy,2023.2.3,Win32,59.88023952,,,,,,,,,,,3,14,6,1,,,,,,,,,,,,,,,,,,,,,,,,,,,,,,,
65978a6c375b6513561ed3fa,SCR,2024-06-25_11h41.18.527,LearnStrategy,2023.2.3,Win32,59.88023952,,,,,,,,,,,3,09,6,2,,,,,,,,,,,,,,,,,,,,,,,,,,,,,,,
65978a6c375b6513561ed3fa,SCR,2024-06-25_11h41.18.527,LearnStrategy,2023.2.3,Win32,59.88023952,,,,,,,,,,,1,10,6,3,,,,,,,,,,,,,,,,,,,,,,,,,,,,,,,
65978a6c375b6513561ed3fa,SCR,2024-06-25_11h41.18.527,LearnStrategy,2023.2.3,Win32,59.88023952,,,,,,,,,,,6,06,6,4,,,,,,,,,,,,,,,,,,,,,,,,,,,,,,,
65978a6c375b6513561ed3fa,SCR,2024-06-25_11h41.18.527,LearnStrategy,2023.2.3,Win32,59.88023952,,,,,,,,,,,7,02,6,5,,,,,,,,,,,,,,,,,,,,,,,,,,,,,,,
65978a6c375b6513561ed3fa,SCR,2024-06-25_11h41.18.527,LearnStrategy,2023.2.3,Win32,59.88023952,,,,,,,,,,,6,09,6,6,,,,,,,,,,,,,,,,,,,,,,,,,,,,,,,
65978a6c375b6513561ed3fa,SCR,2024-06-25_11h41.18.527,LearnStrategy,2023.2.3,Win32,59.88023952,,,,,,,,,,,8,15,6,7,,,,,,,,,,,,,,,,,,,,,,,,,,,,,,,
65978a6c375b6513561ed3fa,SCR,2024-06-25_11h41.18.527,LearnStrategy,2023.2.3,Win32,59.88023952,,,,,,,,,,,8,06,6,8,,,,,,,,,,,,,,,,,,,,,,,,,,,,,,,