participant,condition,date,expName,psychopyVersion,OS,frameRate,block,phase,trial,learn_mouse.x,learn_mouse.y,learn_mouse.leftButton,learn_mouse.midButton,learn_mouse.rightButton,learn_mouse.time,learn_mouse.clicked_name,cat,token,row,col,t_select,cat_mouse_l.x,cat_mouse_l.y,cat_mouse_l.leftButton,cat_mouse_l.midButton,cat_mouse_l.rightButton,cat_mouse_l.time,cat_mouse_l.clicked_name,resp,t_resp,corr,train_trials.thisRepN,train_trials.thisTrialN,train_trials.thisN,train_trials.thisIndex,train_trials.ran,cat_mouse_t.x,cat_mouse_t.y,cat_mouse_t.leftButton,cat_mouse_t.midButton,cat_mouse_t.rightButton,cat_mouse_t.time,cat_mouse_t.clicked_name,test_trials.thisRepN,test_trials.thisTrialN,test_trials.thisN,test_trials.thisIndex,test_trials.ran,Bonus,blocks.thisRepN,blocks.thisTrialN,blocks.thisN,blocks.thisIndex,blocks.ran,blocks.order,train_trials.order
659ed4d20445e9c16df76aee,SCN,2024-06-24_15h01.01.347,LearnStrategy,2023.2.3,Win32,60.24096386,,,,,,,,,,,,,,,,,,,,,,,,,,,,,,,,,,,,,,,,,,,,,,,,,,
659ed4d20445e9c16df76aee,SCN,2024-06-24_15h01.01.347,LearnStrategy,2023.2.3,Win32,60.24096386,1,1,1,0.091805573,-0.118518562,1,0,0,0.8913,Peridotite_04,7,04,3,5,0.891,0.141805573,-0.255555573,1,0,0,0.9857,Diorite_rect,3,0.986,0,0,0,0,0,1,,,,,,,,,,,,,,,,,,,,
659ed4d20445e9c16df76aee,SCN,2024-06-24_15h01.01.347,LearnStrategy,2023.2.3,Win32,60.24096386,1,1,2,-0.073935165,0.144444427,1,0,0,1.0434,Basalt_09,2,09,4,4,1.043,-0.11652771,-0.406481552,1,0,0,0.6523,Pegmatite_rect,6,0.652,0,1,0,1,0,1,,,,,,,,,,,,,,,,,,,,
659ed4d20445e9c16df76aee,SCN,2024-06-24_15h01.01.347,LearnStrategy,2023.2.3,Win32,60.24096386,1,1,3,-0.3544907,0.098148117,1,0,0,1.0458,Pegmatite_10,6,10,4,2,1.046,-0.123009186,-0.392592545,1,0,0,0.741,Pegmatite_rect,6,0.741,1,2,0,2,0,1,,,,,,,,,,,,,,,,,,,,
659ed4d20445e9c16df76aee,SCN,2024-06-24_15h01.01.347,LearnStrategy,2023.2.3,Win32,60.24096386,1,1,4,0.3797686,0.09907402,1,0,0,1.1777,Obsidian_08,5,08,4,7,1.178,-0.359120331,-0.394444504,1,0,0,1.4935,Obsidian_rect,5,1.493,1,3,0,3,0,1,,,,,,,,,,,,,,,,,,,,
659ed4d20445e9c16df76aee,SCN,2024-06-24_15h01.01.347,LearnStrategy,2023.2.3,Win32,60.24096386,1,1,5,0.407546387,0.411111107,1,0,0,1.2411,Peridotite_13,7,13,6,7,1.241,-0.052638855,-0.403703766,1,0,0,1.2053,Pegmatite_rect,6,1.205,0,4,0,4,0,1,,,,,,,,,,,,,,,,,,,,
659ed4d20445e9c16df76aee,SCN,2024-06-24_15h01.01.347,LearnStrategy,2023.2.3,Win32,60.24096386,1,1,6,-0.076712952,0.279629612,1,0,0,0.9785,Gabbro_09,4,09,5,4,0.978,-0.377638855,-0.40092598,1,0,0,0.997,Obsidian_rect,5,0.997,0,5,0,5,0,1,,,,,,,,,,,,,,,,,,,,
659ed4d20445e9c16df76aee,SCN,2024-06-24_15h01.01.347,LearnStrategy,2023.2.3,Win32,60.24096386,1,1,7,-0.244305496,0.409259253,1,0,0,0.9114,Obsidian_06,5,06,6,3,0.911,-0.398009224,-0.401851959,1,0,0,0.9155,Obsidian_rect,5,0.916,1,6,0,6,0,1,,,,,,,,,,,,,,,,,,,,
659ed4d20445e9c16df76aee,SCN,2024-06-24_15h01.01.347,LearnStrategy,2023.2.3,Win32,60.24096386,1,1,8,0.565879517,0.125,1,0,0,1.2075,Pumice_16,8,16,4,8,1.207,0.388101807,-0.405555573,1,0,0,0.9391,Pumice_rect,8,0.939,1,7,0,7,0,1,,,,,,,,,,,,,,,,,,,,
659ed4d20445e9c16df76aee,SCN,2024-06-24_15h01.01.347,LearnStrategy,2023.2.3,Win32,60.24096386,1,1,9,0.230694504,0.107407379,1,0,0,0.8111,Pumice_10,8,10,4,6,0.811,-0.057268448,-0.412037048,1,0,0,0.686,Pegmatite_rect,6,0.686,0,8,0,8,0,1,,,,,,,,,,,,,,,,,,,,
659ed4d20445e9c16df76aee,SCN,2024-06-24_15h01.01.347,LearnStrategy,2023.2.3,Win32,60.24096386,1,1,10,0.376064911,0.090740738,1,0,0,0.8441,Obsidian_08,5,08,4,7,0.844,-0.408194427,-0.412037048,1,0,0,1.8052,Obsidian_rect,5,1.805,1,9,0,9,0,1,,,,,,,,,,,,,,,,,,,,
659ed4d20445e9c16df76aee,SCN,2024-06-24_15h01.01.347,LearnStrategy,2023.2.3,Win32,60.24096386,1,1,11,-0.424861107,0.065740738,1,0,0,0.9594,Pegmatite_10,6,10,4,2,0.959,-0.199861069,-0.389814835,1,0,0,0.8313,Pegmatite_rect,6,0.831,1,10,0,10,0,1,,,,,,,,,,,,,,,,,,,,
659ed4d20445e9c16df76aee,SCN,2024-06-24_15h01.01.347,LearnStrategy,2023.2.3,Win32,60.24096386,1,1,12,-0.064675827,0.35833333,1,0,0,1.0653,Diorite_02,3,02,6,4,1.065,-0.100786972,-0.240740814,1,0,0,0.8669,Basalt_rect,2,0.867,0,11,0,11,0,1,,,,,,,,,,,,,,,,,,,,
659ed4d20445e9c16df76aee,SCN,2024-06-24_15h01.01.347,LearnStrategy,2023.2.3,Win32,60.24096386,1,1,13,0.364027863,0.395370369,1,0,0,1.0396,Peridotite_13,7,13,6,7,1.04,-0.093379593,-0.400000076,1,0,0,1.3718,Pegmatite_rect,6,1.372,0,12,0,12,0,1,,,,,,,,,,,,,,,,,,,,
659ed4d20445e9c16df76aee,SCN,2024-06-24_15h01.01.347,LearnStrategy,2023.2.3,Win32,60.24096386,1,1,14,-0.361898117,0.392592583,1,0,0,1.2121,Obsidian_09,5,09,6,2,1.212,-0.390601845,-0.42129631,1,0,0,1.1198,Obsidian_rect,5,1.12,1,13,0,13,0,1,,,,,,,,,,,,,,,,,,,,
659ed4d20445e9c16df76aee,SCN,2024-06-24_15h01.01.347,LearnStrategy,2023.2.3,Win32,60.24096386,1,1,15,-0.545231476,-0.378703766,1,0,0,0.9244,Obsidian_07,5,07,1,1,0.924,-0.388749962,-0.411111069,1,0,0,0.8397,Obsidian_rect,5,0.84,1,14,0,14,0,1,,,,,,,,,,,,,,,,,,,,
659ed4d20445e9c16df76aee,SCN,2024-06-24_15h01.01.347,LearnStrategy,2023.2.3,Win32,60.24096386,1,1,16,-0.539675903,0.119444427,1,0,0,1.0606,Pumice_15,8,15,4,1,1.061,0.43069458,-0.415740814,1,0,0,0.9972,Pumice_rect,8,0.997,1,15,0,15,0,1,,,,,,,,,,,,,,,,,,,,
659ed4d20445e9c16df76aee,SCN,2024-06-24_15h01.01.347,LearnStrategy,2023.2.3,Win32,60.24096386,1,2,1,,,,,,,,7,14,,,,,,,,,,,3,0.761,0,,,,,,0.122361145,-0.25092598,1,0,0,0.7607,Diorite_rect,0,0,0,0,1,,,,,,,,
659ed4d20445e9c16df76aee,SCN,2024-06-24_15h01.01.347,LearnStrategy,2023.2.3,Win32,60.24096386,1,2,2,,,,,,,,7,10,,,,,,,,,,,2,0.755,0,,,,,,-0.074861069,-0.25092598,1,0,0,0.7549,Basalt_rect,1,0,1,0,1,,,,,,,,
659ed4d20445e9c16df76aee,SCN,2024-06-24_15h01.01.347,LearnStrategy,2023.2.3,Win32,60.24096386,1,2,3,,,,,,,,6,16,,,,,,,,,,,6,0.934,1,,,,,,-0.135046234,-0.410185318,1,0,0,0.9338,Pegmatite_rect,2,0,2,0,1,,,,,,,,
659ed4d20445e9c16df76aee,SCN,2024-06-24_15h01.01.347,LearnStrategy,2023.2.3,Win32,60.24096386,1,2,4,,,,,,,,8,06,,,,,,,,,,,8,1.272,1,,,,,,0.420509338,-0.390740814,1,0,0,1.2718,Pumice_rect,3,0,3,0,1,,,,,,,,
659ed4d20445e9c16df76aee,SCN,2024-06-24_15h01.01.347,LearnStrategy,2023.2.3,Win32,60.24096386,1,2,5,,,,,,,,3,06,,,,,,,,,,,3,2.629,1,,,,,,0.139953766,-0.2435186,1,0,0,2.6295,Diorite_rect,4,0,4,0,1,,,,,,,,
659ed4d20445e9c16df76aee,SCN,2024-06-24_15h01.01.347,LearnStrategy,2023.2.3,Win32,60.24096386,1,2,6,,,,,,,,2,10,,,,,,,,,,,5,1.169,0,,,,,,-0.42578701,-0.400000076,1,0,0,1.1693,Obsidian_rect,5,0,5,0,1,,,,,,,,
659ed4d20445e9c16df76aee,SCN,2024-06-24_15h01.01.347,LearnStrategy,2023.2.3,Win32,60.24096386,1,2,7,,,,,,,,2,14,,,,,,,,,,,4,1.048,0,,,,,,0.380694504,-0.251851959,1,0,0,1.0479,Gabbro_rect,6,0,6,0,1,,,,,,,,
659ed4d20445e9c16df76aee,SCN,2024-06-24_15h01.01.347,LearnStrategy,2023.2.3,Win32,60.24096386,1,2,8,,,,,,,,1,09,,,,,,,,,,,6,1.048,0,,,,,,-0.107268448,-0.402777786,1,0,0,1.0482,Pegmatite_rect,7,0,7,0,1,,,,,,,,
659ed4d20445e9c16df76aee,SCN,2024-06-24_15h01.01.347,LearnStrategy,2023.2.3,Win32,60.24096386,1,2,9,,,,,,,,5,10,,,,,,,,,,,5,0.965,1,,,,,,-0.337824059,-0.399074173,1,0,0,0.9655,Obsidian_rect,8,0,8,0,1,,,,,,,,
659ed4d20445e9c16df76aee,SCN,2024-06-24_15h01.01.347,LearnStrategy,2023.2.3,Win32,60.24096386,1,2,10,,,,,,,,3,11,,,,,,,,,,,2,0.582,0,,,,,,-0.140601807,-0.242592621,1,0,0,0.5817,Basalt_rect,9,0,9,0,1,,,,,,,,
659ed4d20445e9c16df76aee,SCN,2024-06-24_15h01.01.347,LearnStrategy,2023.2.3,Win32,60.24096386,1,2,11,,,,,,,,1,10,,,,,,,,,,,7,0.73,0,,,,,,0.101064835,-0.39722229,1,0,0,0.7305,Peridotite_rect,10,0,10,0,1,,,,,,,,
659ed4d20445e9c16df76aee,SCN,2024-06-24_15h01.01.347,LearnStrategy,2023.2.3,Win32,60.24096386,1,2,12,,,,,,,,4,10,,,,,,,,,,,1,0.914,0,,,,,,-0.362824059,-0.2435186,1,0,0,0.9143,Andesite_rect,11,0,11,0,1,,,,,,,,
659ed4d20445e9c16df76aee,SCN,2024-06-24_15h01.01.347,LearnStrategy,2023.2.3,Win32,60.24096386,1,2,13,,,,,,,,8,02,,,,,,,,,,,8,1.393,1,,,,,,0.3297686,-0.400000076,1,0,0,1.3935,Pumice_rect,12,0,12,0,1,,,,,,,,
659ed4d20445e9c16df76aee,SCN,2024-06-24_15h01.01.347,LearnStrategy,2023.2.3,Win32,60.24096386,1,2,14,,,,,,,,6,11,,,,,,,,,,,3,0.892,0,,,,,,0.11217598,-0.237037048,1,0,0,0.8925,Diorite_rect,13,0,13,0,1,,,,,,,,
659ed4d20445e9c16df76aee,SCN,2024-06-24_15h01.01.347,LearnStrategy,2023.2.3,Win32,60.24096386,1,2,15,,,,,,,,5,14,,,,,,,,,,,5,0.893,1,,,,,,-0.363749962,-0.408333282,1,0,0,0.8931,Obsidian_rect,14,0,14,0,1,,,,,,,,
659ed4d20445e9c16df76aee,SCN,2024-06-24_15h01.01.347,LearnStrategy,2023.2.3,Win32,60.24096386,1,2,16,,,,,,,,4,11,,,,,,,,,,,6,1.015,0,,,,,,-0.173935242,-0.407407532,1,0,0,1.0147,Pegmatite_rect,15,0,15,0,1,,,,,,,,
659ed4d20445e9c16df76aee,SCN,2024-06-24_15h01.01.347,LearnStrategy,2023.2.3,Win32,60.24096386,2,1,1,-0.233194504,-0.103703728,1,0,0,0.7783,Basalt_06,2,06,3,3,0.778,-0.14152771,-0.256481552,1,0,0,0.9151,Basalt_rect,2,0.915,1,0,0,0,0,1,,,,,,,,,,,,,,,,,,,,
659ed4d20445e9c16df76aee,SCN,2024-06-24_15h01.01.347,LearnStrategy,2023.2.3,Win32,60.24096386,2,1,2,-0.410046272,0.06203701,1,0,0,0.9242,Pegmatite_10,6,10,4,2,0.924,-0.167453613,-0.399074173,1,0,0,0.7728,Pegmatite_rect,6,0.773,1,1,0,1,0,1,,,,,,,,,,,,,,,,,,,,
659ed4d20445e9c16df76aee,SCN,2024-06-24_15h01.01.347,LearnStrategy,2023.2.3,Win32,60.24096386,2,1,3,0.094583359,-0.412037048,1,0,0,1.0583,Pumice_13,8,13,1,5,1.058,0.429768524,-0.385185318,1,0,0,0.6854,Pumice_rect,8,0.685,1,2,0,2,0,1,,,,,,,,,,,,,,,,,,,,
659ed4d20445e9c16df76aee,SCN,2024-06-24_15h01.01.347,LearnStrategy,2023.2.3,Win32,60.24096386,2,1,4,0.400139008,0.437037034,1,0,0,0.944,Peridotite_13,7,13,6,7,0.944,-0.111898041,-0.393518524,1,0,0,1.9966,Pegmatite_rect,6,1.997,0,3,0,3,0,1,,,,,,,,,,,,,,,,,,,,
659ed4d20445e9c16df76aee,SCN,2024-06-24_15h01.01.347,LearnStrategy,2023.2.3,Win32,60.24096386,2,1,5,-0.239675903,0.066666641,1,0,0,0.9288,Pumice_14,8,14,4,3,0.929,0.380694504,-0.391666718,1,0,0,0.7956,Pumice_rect,8,0.796,1,4,0,4,0,1,,,,,,,,,,,,,,,,,,,,
659ed4d20445e9c16df76aee,SCN,2024-06-24_15h01.01.347,LearnStrategy,2023.2.3,Win32,60.24096386,2,1,6,-0.552638855,0.059259224,1,0,0,0.9757,Pumice_15,8,15,4,1,0.976,0.351064911,-0.40092598,1,0,0,1.1767,Pumice_rect,8,1.177,1,5,0,5,0,1,,,,,,,,,,,,,,,,,,,,
659ed4d20445e9c16df76aee,SCN,2024-06-24_15h01.01.347,LearnStrategy,2023.2.3,Win32,60.24096386,2,1,7,-0.546157379,-0.416666718,1,0,0,0.7747,Obsidian_07,5,07,1,1,0.775,-0.396157379,-0.388888931,1,0,0,0.9076,Obsidian_rect,5,0.908,1,6,0,6,0,1,,,,,,,,,,,,,,,,,,,,
659ed4d20445e9c16df76aee,SCN,2024-06-24_15h01.01.347,LearnStrategy,2023.2.3,Win32,60.24096386,2,1,8,0.102916718,-0.429629745,1,0,0,0.9431,Pumice_13,8,13,1,5,0.943,0.35847229,-0.402777786,1,0,0,1.5358,Pumice_rect,8,1.536,1,7,0,7,0,1,,,,,,,,,,,,,,,,,,,,
659ed4d20445e9c16df76aee,SCN,2024-06-24_15h01.01.347,LearnStrategy,2023.2.3,Win32,60.24096386,2,1,9,-0.523935127,0.070370331,1,0,0,0.7932,Pumice_15,8,15,4,1,0.793,0.352916718,-0.382407532,1,0,0,0.7943,Pumice_rect,8,0.794,1,8,0,8,0,1,,,,,,,,,,,,,,,,,,,,
659ed4d20445e9c16df76aee,SCN,2024-06-24_15h01.01.347,LearnStrategy,2023.2.3,Win32,60.24096386,2,1,10,-0.057268448,-0.11203701,1,0,0,0.6432,Peridotite_05,7,05,3,4,0.643,-0.077638855,-0.233333359,1,0,0,1.2828,Basalt_rect,2,1.283,0,9,0,9,0,1,,,,,,,,,,,,,,,,,,,,
659ed4d20445e9c16df76aee,SCN,2024-06-24_15h01.01.347,LearnStrategy,2023.2.3,Win32,60.24096386,2,1,11,0.251064758,0.083333359,1,0,0,0.7431,Pumice_10,8,10,4,6,0.743,0.369583282,-0.382407532,1,0,0,0.6657,Pumice_rect,8,0.666,1,10,0,10,0,1,,,,,,,,,,,,,,,,,,,,
659ed4d20445e9c16df76aee,SCN,2024-06-24_15h01.01.347,LearnStrategy,2023.2.3,Win32,60.24096386,2,1,12,-0.269305534,0.095370369,1,0,0,0.946,Pumice_14,8,14,4,3,0.946,0.341805649,-0.393518524,1,0,0,0.8184,Pumice_rect,8,0.818,1,11,0,11,0,1,,,,,,,,,,,,,,,,,,,,
659ed4d20445e9c16df76aee,SCN,2024-06-24_15h01.01.347,LearnStrategy,2023.2.3,Win32,60.24096386,2,1,13,-0.243379593,0.244444427,1,0,0,1.0261,Pegmatite_15,6,15,5,3,1.026,-0.415601845,-0.404629745,1,0,0,1.6181,Obsidian_rect,5,1.618,0,12,0,12,0,1,,,,,,,,,,,,,,,,,,,,
659ed4d20445e9c16df76aee,SCN,2024-06-24_15h01.01.347,LearnStrategy,2023.2.3,Win32,60.24096386,2,1,14,0.418657532,0.133333321,1,0,0,0.9756,Obsidian_08,5,08,4,7,0.976,-0.369305534,-0.391666718,1,0,0,0.7853,Obsidian_rect,5,0.785,1,13,0,13,0,1,,,,,,,,,,,,,,,,,,,,
659ed4d20445e9c16df76aee,SCN,2024-06-24_15h01.01.347,LearnStrategy,2023.2.3,Win32,60.24096386,2,1,15,0.588101959,0.268518505,1,0,0,0.9602,Gabbro_15,4,15,5,8,0.96,-0.315601807,-0.382407532,1,0,0,1.1965,Obsidian_rect,5,1.196,0,14,0,14,0,1,,,,,,,,,,,,,,,,,,,,
659ed4d20445e9c16df76aee,SCN,2024-06-24_15h01.01.347,LearnStrategy,2023.2.3,Win32,60.24096386,2,1,16,-0.263749962,0.092592583,1,0,0,1.1268,Pumice_14,8,14,4,3,1.127,0.302916718,-0.382407532,1,0,0,0.7796,Pumice_rect,8,0.78,1,15,0,15,0,1,,,,,,,,,,,,,,,,,,,,
659ed4d20445e9c16df76aee,SCN,2024-06-24_15h01.01.347,LearnStrategy,2023.2.3,Win32,60.24096386,2,2,1,,,,,,,,2,05,,,,,,,,,,,3,0.974,0,,,,,,0.099213028,-0.233333359,1,0,0,0.9744,Diorite_rect,0,0,0,0,1,,,,,,,,
659ed4d20445e9c16df76aee,SCN,2024-06-24_15h01.01.347,LearnStrategy,2023.2.3,Win32,60.24096386,2,2,2,,,,,,,,3,09,,,,,,,,,,,6,0.381,0,,,,,,-0.121157379,-0.409259338,1,0,0,0.3808,Pegmatite_rect,1,0,1,0,1,,,,,,,,
659ed4d20445e9c16df76aee,SCN,2024-06-24_15h01.01.347,LearnStrategy,2023.2.3,Win32,60.24096386,2,2,3,,,,,,,,8,09,,,,,,,,,,,2,0.349,0,,,,,,-0.11375,-0.231481552,1,0,0,0.3487,Basalt_rect,2,0,2,0,1,,,,,,,,
659ed4d20445e9c16df76aee,SCN,2024-06-24_15h01.01.347,LearnStrategy,2023.2.3,Win32,60.24096386,2,2,4,,,,,,,,1,04,,,,,,,,,,,8,0.733,0,,,,,,0.364027863,-0.40092598,1,0,0,0.7328,Pumice_rect,3,0,3,0,1,,,,,,,,
659ed4d20445e9c16df76aee,SCN,2024-06-24_15h01.01.347,LearnStrategy,2023.2.3,Win32,60.24096386,2,2,5,,,,,,,,2,11,,,,,,,,,,,4,1.366,0,,,,,,0.421435242,-0.262037048,1,0,0,1.366,Gabbro_rect,4,0,4,0,1,,,,,,,,
659ed4d20445e9c16df76aee,SCN,2024-06-24_15h01.01.347,LearnStrategy,2023.2.3,Win32,60.24096386,2,2,6,,,,,,,,7,12,,,,,,,,,,,4,0.85,0,,,,,,0.3047686,-0.249074173,1,0,0,0.8499,Gabbro_rect,5,0,5,0,1,,,,,,,,
659ed4d20445e9c16df76aee,SCN,2024-06-24_15h01.01.347,LearnStrategy,2023.2.3,Win32,60.24096386,2,2,7,,,,,,,,5,05,,,,,,,,,,,5,0.877,1,,,,,,-0.412824059,-0.407407532,1,0,0,0.8768,Obsidian_rect,6,0,6,0,1,,,,,,,,
659ed4d20445e9c16df76aee,SCN,2024-06-24_15h01.01.347,LearnStrategy,2023.2.3,Win32,60.24096386,2,2,8,,,,,,,,4,14,,,,,,,,,,,1,0.731,0,,,,,,-0.335046272,-0.263888931,1,0,0,0.7314,Andesite_rect,7,0,7,0,1,,,,,,,,
659ed4d20445e9c16df76aee,SCN,2024-06-24_15h01.01.347,LearnStrategy,2023.2.3,Win32,60.24096386,2,2,9,,,,,,,,6,12,,,,,,,,,,,2,0.581,0,,,,,,-0.122083282,-0.2435186,1,0,0,0.5813,Basalt_rect,8,0,8,0,1,,,,,,,,
659ed4d20445e9c16df76aee,SCN,2024-06-24_15h01.01.347,LearnStrategy,2023.2.3,Win32,60.24096386,2,2,10,,,,,,,,1,07,,,,,,,,,,,7,0.415,0,,,,,,0.099213028,-0.383333282,1,0,0,0.4146,Peridotite_rect,9,0,9,0,1,,,,,,,,
659ed4d20445e9c16df76aee,SCN,2024-06-24_15h01.01.347,LearnStrategy,2023.2.3,Win32,60.24096386,2,2,11,,,,,,,,7,08,,,,,,,,,,,6,0.326,0,,,,,,-0.065601807,-0.40092598,1,0,0,0.3261,Pegmatite_rect,10,0,10,0,1,,,,,,,,
659ed4d20445e9c16df76aee,SCN,2024-06-24_15h01.01.347,LearnStrategy,2023.2.3,Win32,60.24096386,2,2,12,,,,,,,,6,09,,,,,,,,,,,3,1.129,0,,,,,,0.160324097,-0.246296387,1,0,0,1.1288,Diorite_rect,11,0,11,0,1,,,,,,,,
659ed4d20445e9c16df76aee,SCN,2024-06-24_15h01.01.347,LearnStrategy,2023.2.3,Win32,60.24096386,2,2,13,,,,,,,,4,08,,,,,,,,,,,8,0.991,0,,,,,,0.389027863,-0.387037048,1,0,0,0.9907,Pumice_rect,12,0,12,0,1,,,,,,,,
659ed4d20445e9c16df76aee,SCN,2024-06-24_15h01.01.347,LearnStrategy,2023.2.3,Win32,60.24096386,2,2,14,,,,,,,,3,08,,,,,,,,,,,2,0.791,0,,,,,,-0.050786972,-0.266666718,1,0,0,0.791,Basalt_rect,13,0,13,0,1,,,,,,,,
659ed4d20445e9c16df76aee,SCN,2024-06-24_15h01.01.347,LearnStrategy,2023.2.3,Win32,60.24096386,2,2,15,,,,,,,,8,03,,,,,,,,,,,5,4.165,0,,,,,,-0.34245369,-0.393518524,1,0,0,4.1646,Obsidian_rect,14,0,14,0,1,,,,,,,,
659ed4d20445e9c16df76aee,SCN,2024-06-24_15h01.01.347,LearnStrategy,2023.2.3,Win32,60.24096386,2,2,16,,,,,,,,5,04,,,,,,,,,,,5,3.069,1,,,,,,-0.413749962,-0.420370331,1,0,0,3.0689,Obsidian_rect,15,0,15,0,1,,,,,,,,
659ed4d20445e9c16df76aee,SCN,2024-06-24_15h01.01.347,LearnStrategy,2023.2.3,Win32,60.24096386,3,1,1,-0.044305496,-0.273148193,1,0,0,0.5437,Peridotite_15,7,15,2,4,0.544,-0.094305496,-0.253703766,1,0,0,0.7779,Basalt_rect,2,0.778,0,0,0,0,0,1,,,,,,,,,,,,,,,,,,,,
659ed4d20445e9c16df76aee,SCN,2024-06-24_15h01.01.347,LearnStrategy,2023.2.3,Win32,60.24096386,3,1,2,-0.050786972,0.085185127,1,0,0,0.7303,Basalt_09,2,09,4,4,0.73,-0.117453613,-0.262963028,1,0,0,0.5538,Basalt_rect,2,0.554,1,1,0,1,0,1,,,,,,,,,,,,,,,,,,,,
659ed4d20445e9c16df76aee,SCN,2024-06-24_15h01.01.347,LearnStrategy,2023.2.3,Win32,60.24096386,3,1,3,-0.389675903,0.077777748,1,0,0,0.8927,Pegmatite_10,6,10,4,2,0.893,-0.154490738,-0.399074173,1,0,0,0.7724,Pegmatite_rect,6,0.772,1,2,0,2,0,1,,,,,,,,,,,,,,,,,,,,
659ed4d20445e9c16df76aee,SCN,2024-06-24_15h01.01.347,LearnStrategy,2023.2.3,Win32,60.24096386,3,1,4,-0.568379631,0.214814796,1,0,0,1.0433,Basalt_08,2,08,5,1,1.043,-0.371157379,-0.405555573,1,0,0,1.7459,Obsidian_rect,5,1.746,0,3,0,3,0,1,,,,,,,,,,,,,,,,,,,,
659ed4d20445e9c16df76aee,SCN,2024-06-24_15h01.01.347,LearnStrategy,2023.2.3,Win32,60.24096386,3,1,5,0.364953766,-0.384259338,1,0,0,0.7972,Gabbro_12,4,12,1,7,0.797,-0.189675903,-0.240740814,1,0,0,0.9096,Basalt_rect,2,0.91,0,4,0,4,0,1,,,,,,,,,,,,,,,,,,,,
659ed4d20445e9c16df76aee,SCN,2024-06-24_15h01.01.347,LearnStrategy,2023.2.3,Win32,60.24096386,3,1,6,0.582546387,-0.085185204,1,0,0,0.844,Obsidian_12,5,12,3,8,0.844,-0.40078701,-0.412037048,1,0,0,0.6966,Obsidian_rect,5,0.697,1,5,0,5,0,1,,,,,,,,,,,,,,,,,,,,
659ed4d20445e9c16df76aee,SCN,2024-06-24_15h01.01.347,LearnStrategy,2023.2.3,Win32,60.24096386,3,1,7,-0.564675903,0.068518486,1,0,0,0.8124,Pumice_15,8,15,4,1,0.812,0.35847229,-0.387963028,1,0,0,0.8775,Pumice_rect,8,0.877,1,6,0,6,0,1,,,,,,,,,,,,,,,,,,,,
659ed4d20445e9c16df76aee,SCN,2024-06-24_15h01.01.347,LearnStrategy,2023.2.3,Win32,60.24096386,3,1,8,-0.060972214,0.079629593,1,0,0,1.2121,Basalt_09,2,09,4,4,1.212,0.364953766,-0.244444504,1,0,0,2.0437,Gabbro_rect,4,2.044,0,7,0,7,0,1,,,,,,,,,,,,,,,,,,,,
659ed4d20445e9c16df76aee,SCN,2024-06-24_15h01.01.347,LearnStrategy,2023.2.3,Win32,60.24096386,3,1,9,-0.514675903,0.252777767,1,0,0,1.4762,Basalt_08,2,08,5,1,1.476,-0.122083282,-0.239814758,1,0,0,0.6986,Basalt_rect,2,0.699,1,8,0,8,0,1,,,,,,,,,,,,,,,,,,,,
659ed4d20445e9c16df76aee,SCN,2024-06-24_15h01.01.347,LearnStrategy,2023.2.3,Win32,60.24096386,3,1,10,-0.104490738,0.084259224,1,0,0,0.6765,Basalt_09,2,09,4,4,0.677,0.122361145,-0.392592545,1,0,0,1.7973,Peridotite_rect,7,1.797,0,9,0,9,0,1,,,,,,,,,,,,,,,,,,,,
659ed4d20445e9c16df76aee,SCN,2024-06-24_15h01.01.347,LearnStrategy,2023.2.3,Win32,60.24096386,3,1,11,-0.505416641,-0.092592621,1,0,0,0.9762,Diorite_10,3,10,3,1,0.976,-0.153564758,-0.40092598,1,0,0,1.4186,Pegmatite_rect,6,1.419,0,10,0,10,0,1,,,,,,,,,,,,,,,,,,,,
659ed4d20445e9c16df76aee,SCN,2024-06-24_15h01.01.347,LearnStrategy,2023.2.3,Win32,60.24096386,3,1,12,0.516805573,0.437037034,1,0,0,1.0915,Diorite_07,3,07,6,8,1.092,0.080694504,-0.39629631,1,0,0,1.0453,Peridotite_rect,7,1.045,0,11,0,11,0,1,,,,,,,,,,,,,,,,,,,,
659ed4d20445e9c16df76aee,SCN,2024-06-24_15h01.01.347,LearnStrategy,2023.2.3,Win32,60.24096386,3,1,13,-0.398935165,0.257407398,1,0,0,0.8748,Gabbro_16,4,16,5,2,0.875,-0.3794907,-0.386111069,1,0,0,0.9391,Obsidian_rect,5,0.939,0,12,0,12,0,1,,,,,,,,,,,,,,,,,,,,
659ed4d20445e9c16df76aee,SCN,2024-06-24_15h01.01.347,LearnStrategy,2023.2.3,Win32,60.24096386,3,1,14,-0.545231476,0.274074059,1,0,0,0.7423,Basalt_08,2,08,5,1,0.742,-0.075786972,-0.234259262,1,0,0,1.3626,Basalt_rect,2,1.363,1,13,0,13,0,1,,,,,,,,,,,,,,,,,,,,
659ed4d20445e9c16df76aee,SCN,2024-06-24_15h01.01.347,LearnStrategy,2023.2.3,Win32,60.24096386,3,1,15,0.526064911,-0.094444466,1,0,0,1.1774,Obsidian_12,5,12,3,8,1.177,-0.374861069,-0.40092598,1,0,0,0.8218,Obsidian_rect,5,0.822,1,14,0,14,0,1,,,,,,,,,,,,,,,,,,,,
659ed4d20445e9c16df76aee,SCN,2024-06-24_15h01.01.347,LearnStrategy,2023.2.3,Win32,60.24096386,3,1,16,-0.523935127,-0.254629745,1,0,0,0.9095,Pumice_08,8,08,2,1,0.91,0.090879669,-0.406481552,1,0,0,1.756,Peridotite_rect,7,1.756,0,15,0,15,0,1,,,,,,,,,,,,,,,,,,,,
659ed4d20445e9c16df76aee,SCN,2024-06-24_15h01.01.347,LearnStrategy,2023.2.3,Win32,60.24096386,3,2,1,,,,,,,,2,01,,,,,,,,,,,2,2.461,1,,,,,,-0.08875,-0.234259262,1,0,0,2.4612,Basalt_rect,0,0,0,0,1,,,,,,,,
659ed4d20445e9c16df76aee,SCN,2024-06-24_15h01.01.347,LearnStrategy,2023.2.3,Win32,60.24096386,3,2,2,,,,,,,,1,16,,,,,,,,,,,3,0.799,0,,,,,,0.189953766,-0.248148193,1,0,0,0.7988,Diorite_rect,1,0,1,0,1,,,,,,,,
659ed4d20445e9c16df76aee,SCN,2024-06-24_15h01.01.347,LearnStrategy,2023.2.3,Win32,60.24096386,3,2,3,,,,,,,,4,13,,,,,,,,,,,4,1.147,1,,,,,,0.351064911,-0.229629745,1,0,0,1.1465,Gabbro_rect,2,0,2,0,1,,,,,,,,
659ed4d20445e9c16df76aee,SCN,2024-06-24_15h01.01.347,LearnStrategy,2023.2.3,Win32,60.24096386,3,2,4,,,,,,,,5,02,,,,,,,,,,,5,0.816,1,,,,,,-0.405416641,-0.383333282,1,0,0,0.816,Obsidian_rect,3,0,3,0,1,,,,,,,,
659ed4d20445e9c16df76aee,SCN,2024-06-24_15h01.01.347,LearnStrategy,2023.2.3,Win32,60.24096386,3,2,5,,,,,,,,3,13,,,,,,,,,,,8,1.77,0,,,,,,0.370509338,-0.409259338,1,0,0,1.7699,Pumice_rect,4,0,4,0,1,,,,,,,,
659ed4d20445e9c16df76aee,SCN,2024-06-24_15h01.01.347,LearnStrategy,2023.2.3,Win32,60.24096386,3,2,6,,,,,,,,4,03,,,,,,,,,,,2,1.898,0,,,,,,-0.101712952,-0.241666718,1,0,0,1.8981,Basalt_rect,5,0,5,0,1,,,,,,,,
659ed4d20445e9c16df76aee,SCN,2024-06-24_15h01.01.347,LearnStrategy,2023.2.3,Win32,60.24096386,3,2,7,,,,,,,,1,05,,,,,,,,,,,6,0.342,0,,,,,,-0.122083282,-0.385185318,1,0,0,0.3417,Pegmatite_rect,6,0,6,0,1,,,,,,,,
659ed4d20445e9c16df76aee,SCN,2024-06-24_15h01.01.347,LearnStrategy,2023.2.3,Win32,60.24096386,3,2,8,,,,,,,,6,05,,,,,,,,,,,1,0.802,0,,,,,,-0.360046272,-0.254629745,1,0,0,0.8024,Andesite_rect,7,0,7,0,1,,,,,,,,
659ed4d20445e9c16df76aee,SCN,2024-06-24_15h01.01.347,LearnStrategy,2023.2.3,Win32,60.24096386,3,2,9,,,,,,,,8,04,,,,,,,,,,,3,0.366,0,,,,,,0.101064835,-0.237037048,1,0,0,0.3657,Diorite_rect,8,0,8,0,1,,,,,,,,
659ed4d20445e9c16df76aee,SCN,2024-06-24_15h01.01.347,LearnStrategy,2023.2.3,Win32,60.24096386,3,2,10,,,,,,,,2,12,,,,,,,,,,,6,1.182,0,,,,,,-0.090601807,-0.388888931,1,0,0,1.1823,Pegmatite_rect,9,0,9,0,1,,,,,,,,
659ed4d20445e9c16df76aee,SCN,2024-06-24_15h01.01.347,LearnStrategy,2023.2.3,Win32,60.24096386,3,2,11,,,,,,,,7,06,,,,,,,,,,,5,1.266,0,,,,,,-0.344305534,-0.39629631,1,0,0,1.2663,Obsidian_rect,10,0,10,0,1,,,,,,,,
659ed4d20445e9c16df76aee,SCN,2024-06-24_15h01.01.347,LearnStrategy,2023.2.3,Win32,60.24096386,3,2,12,,,,,,,,7,07,,,,,,,,,,,7,0.382,1,,,,,,0.13717598,-0.388888931,1,0,0,0.3822,Peridotite_rect,11,0,11,0,1,,,,,,,,
659ed4d20445e9c16df76aee,SCN,2024-06-24_15h01.01.347,LearnStrategy,2023.2.3,Win32,60.24096386,3,2,13,,,,,,,,6,06,,,,,,,,,,,2,0.691,0,,,,,,-0.070231476,-0.253703766,1,0,0,0.6913,Basalt_rect,12,0,12,0,1,,,,,,,,
659ed4d20445e9c16df76aee,SCN,2024-06-24_15h01.01.347,LearnStrategy,2023.2.3,Win32,60.24096386,3,2,14,,,,,,,,3,12,,,,,,,,,,,4,0.535,0,,,,,,0.384398193,-0.231481552,1,0,0,0.5351,Gabbro_rect,13,0,13,0,1,,,,,,,,
659ed4d20445e9c16df76aee,SCN,2024-06-24_15h01.01.347,LearnStrategy,2023.2.3,Win32,60.24096386,3,2,15,,,,,,,,5,16,,,,,,,,,,,5,0.836,1,,,,,,-0.395231514,-0.412037048,1,0,0,0.8356,Obsidian_rect,14,0,14,0,1,,,,,,,,
659ed4d20445e9c16df76aee,SCN,2024-06-24_15h01.01.347,LearnStrategy,2023.2.3,Win32,60.24096386,3,2,16,,,,,,,,8,05,,,,,,,,,,,8,1.115,1,,,,,,0.36032402,-0.405555573,1,0,0,1.1154,Pumice_rect,15,0,15,0,1,,,,,,,,
659ed4d20445e9c16df76aee,SCN,2024-06-24_15h01.01.347,LearnStrategy,2023.2.3,Win32,60.24096386,4,1,1,0.034398193,-0.228703766,1,0,0,0.5954,Basalt_02,2,02,2,5,0.595,-0.148935242,-0.407407532,1,0,0,0.6538,Pegmatite_rect,6,0.654,0,0,0,0,0,1,,,,,,,,,,,,,,,,,,,,
659ed4d20445e9c16df76aee,SCN,2024-06-24_15h01.01.347,LearnStrategy,2023.2.3,Win32,60.24096386,4,1,2,-0.044305496,0.111111107,1,0,0,0.6776,Basalt_09,2,09,4,4,0.678,-0.114675827,-0.410185318,1,0,0,1.3479,Pegmatite_rect,6,1.348,0,1,0,1,0,1,,,,,,,,,,,,,,,,,,,,
659ed4d20445e9c16df76aee,SCN,2024-06-24_15h01.01.347,LearnStrategy,2023.2.3,Win32,60.24096386,4,1,3,-0.395231514,0.083333359,1,0,0,1.9589,Pegmatite_10,6,10,4,2,1.959,-0.359120331,-0.399074173,1,0,0,0.7541,Obsidian_rect,5,0.754,0,2,0,2,0,1,,,,,,,,,,,,,,,,,,,,
659ed4d20445e9c16df76aee,SCN,2024-06-24_15h01.01.347,LearnStrategy,2023.2.3,Win32,60.24096386,4,1,4,-0.543379631,0.047222214,1,0,0,1.0268,Pumice_15,8,15,4,1,1.027,0.423287048,-0.393518524,1,0,0,1.4995,Pumice_rect,8,1.5,1,3,0,3,0,1,,,,,,,,,,,,,,,,,,,,
659ed4d20445e9c16df76aee,SCN,2024-06-24_15h01.01.347,LearnStrategy,2023.2.3,Win32,60.24096386,4,1,5,-0.570231495,0.290740738,1,0,0,0.8608,Basalt_08,2,08,5,1,0.861,-0.205416641,-0.255555573,1,0,0,0.7999,Basalt_rect,2,0.8,1,4,0,4,0,1,,,,,,,,,,,,,,,,,,,,
659ed4d20445e9c16df76aee,SCN,2024-06-24_15h01.01.347,LearnStrategy,2023.2.3,Win32,60.24096386,4,1,6,0.554768524,0.199999981,1,0,0,1.0116,Gabbro_15,4,15,5,8,1.012,0.150138931,-0.254629745,1,0,0,1.5995,Diorite_rect,3,1.599,0,5,0,5,0,1,,,,,,,,,,,,,,,,,,,,
659ed4d20445e9c16df76aee,SCN,2024-06-24_15h01.01.347,LearnStrategy,2023.2.3,Win32,60.24096386,4,1,7,-0.386898117,0.456481481,1,0,0,0.9608,Obsidian_09,5,09,6,2,0.961,-0.402638855,-0.408333282,1,0,0,1.3006,Obsidian_rect,5,1.301,1,6,0,6,0,1,,,,,,,,,,,,,,,,,,,,
659ed4d20445e9c16df76aee,SCN,2024-06-24_15h01.01.347,LearnStrategy,2023.2.3,Win32,60.24096386,4,1,8,0.554768524,-0.427777786,1,0,0,0.9768,Peridotite_02,7,02,1,8,0.977,0.151990814,-0.392592545,1,0,0,0.6506,Peridotite_rect,7,0.651,1,7,0,7,0,1,,,,,,,,,,,,,,,,,,,,
659ed4d20445e9c16df76aee,SCN,2024-06-24_15h01.01.347,LearnStrategy,2023.2.3,Win32,60.24096386,4,1,9,-0.373935165,0.081481476,1,0,0,1.16,Pegmatite_10,6,10,4,2,1.16,-0.127638855,-0.420370331,1,0,0,0.8154,Pegmatite_rect,6,0.815,1,8,0,8,0,1,,,,,,,,,,,,,,,,,,,,
659ed4d20445e9c16df76aee,SCN,2024-06-24_15h01.01.347,LearnStrategy,2023.2.3,Win32,60.24096386,4,1,10,-0.56375,0.098148117,1,0,0,1.0428,Pumice_15,8,15,4,1,1.043,0.397360992,-0.406481552,1,0,0,0.8902,Pumice_rect,8,0.89,1,9,0,9,0,1,,,,,,,,,,,,,,,,,,,,
659ed4d20445e9c16df76aee,SCN,2024-06-24_15h01.01.347,LearnStrategy,2023.2.3,Win32,60.24096386,4,1,11,0.527916718,0.397222214,1,0,0,1.1936,Diorite_07,3,07,6,8,1.194,-0.099861069,-0.40092598,1,0,0,0.9006,Pegmatite_rect,6,0.901,0,10,0,10,0,1,,,,,,,,,,,,,,,,,,,,
659ed4d20445e9c16df76aee,SCN,2024-06-24_15h01.01.347,LearnStrategy,2023.2.3,Win32,60.24096386,4,1,12,-0.059120255,0.082407341,1,0,0,0.9092,Basalt_09,2,09,4,4,0.909,-0.122083282,-0.388888931,1,0,0,0.7687,Pegmatite_rect,6,0.769,0,11,0,11,0,1,,,,,,,,,,,,,,,,,,,,
659ed4d20445e9c16df76aee,SCN,2024-06-24_15h01.01.347,LearnStrategy,2023.2.3,Win32,60.24096386,4,1,13,0.375138931,0.082407341,1,0,0,1.6422,Obsidian_08,5,08,4,7,1.642,-0.096157379,-0.411111069,1,0,0,0.7076,Pegmatite_rect,6,0.708,0,12,0,12,0,1,,,,,,,,,,,,,,,,,,,,
659ed4d20445e9c16df76aee,SCN,2024-06-24_15h01.01.347,LearnStrategy,2023.2.3,Win32,60.24096386,,,,,,,,,,,,,,,,,,,,,,,,,,13,0,13,0,1,,,,,,,,,,,,,,3,0,3,0,1,8,15
659ed4d20445e9c16df76aee,SCN,2024-06-24_15h01.01.347,LearnStrategy,2023.2.3,Win32,60.24096386,,,,,,,,,,,5,07,1,1,,,,,,,,,,,,13,0,13,0,1,,,,,,,,,,,,,,3,0,3,0,1,8,15
659ed4d20445e9c16df76aee,SCN,2024-06-24_15h01.01.347,LearnStrategy,2023.2.3,Win32,60.24096386,,,,,,,,,,,4,05,1,2,,,,,,,,,,,,13,0,13,0,1,,,,,,,,,,,,,,3,0,3,0,1,8,15
659ed4d20445e9c16df76aee,SCN,2024-06-24_15h01.01.347,LearnStrategy,2023.2.3,Win32,60.24096386,,,,,,,,,,,7,16,1,3,,,,,,,,,,,,13,0,13,0,1,,,,,,,,,,,,,,3,0,3,0,1,8,15
659ed4d20445e9c16df76aee,SCN,2024-06-24_15h01.01.347,LearnStrategy,2023.2.3,Win32,60.24096386,,,,,,,,,,,2,16,1,4,,,,,,,,,,,,13,0,13,0,1,,,,,,,,,,,,,,3,0,3,0,1,8,15
659ed4d20445e9c16df76aee,SCN,2024-06-24_15h01.01.347,LearnStrategy,2023.2.3,Win32,60.24096386,,,,,,,,,,,8,13,1,5,,,,,,,,,,,,13,0,13,0,1,,,,,,,,,,,,,,3,0,3,0,1,8,15
659ed4d20445e9c16df76aee,SCN,2024-06-24_15h01.01.347,LearnStrategy,2023.2.3,Win32,60.24096386,,,,,,,,,,,1,14,1,6,,,,,,,,,,,,13,0,13,0,1,,,,,,,,,,,,,,3,0,3,0,1,8,15
659ed4d20445e9c16df76aee,SCN,2024-06-24_15h01.01.347,LearnStrategy,2023.2.3,Win32,60.24096386,,,,,,,,,,,4,12,1,7,,,,,,,,,,,,13,0,13,0,1,,,,,,,,,,,,,,3,0,3,0,1,8,15
659ed4d20445e9c16df76aee,SCN,2024-06-24_15h01.01.347,LearnStrategy,2023.2.3,Win32,60.24096386,,,,,,,,,,,7,02,1,8,,,,,,,,,,,,13,0,13,0,1,,,,,,,,,,,,,,3,0,3,0,1,8,15
659ed4d20445e9c16df76aee,SCN,2024-06-24_15h01.01.347,LearnStrategy,2023.2.3,Win32,60.24096386,,,,,,,,,,,8,08,2,1,,,,,,,,,,,,13,0,13,0,1,,,,,,,,,,,,,,3,0,3,0,1,8,15
659ed4d20445e9c16df76aee,SCN,2024-06-24_15h01.01.347,LearnStrategy,2023.2.3,Win32,60.24096386,,,,,,,,,,,3,14,2,2,,,,,,,,,,,,13,0,13,0,1,,,,,,,,,,,,,,3,0,3,0,1,8,15
659ed4d20445e9c16df76aee,SCN,2024-06-24_15h01.01.347,LearnStrategy,2023.2.3,Win32,60.24096386,,,,,,,,,,,6,13,2,3,,,,,,,,,,,,13,0,13,0,1,,,,,,,,,,,,,,3,0,3,0,1,8,15
659ed4d20445e9c16df76aee,SCN,2024-06-24_15h01.01.347,LearnStrategy,2023.2.3,Win32,60.24096386,,,,,,,,,,,7,15,2,4,,,,,,,,,,,,13,0,13,0,1,,,,,,,,,,,,,,3,0,3,0,1,8,15
659ed4d20445e9c16df76aee,SCN,2024-06-24_15h01.01.347,LearnStrategy,2023.2.3,Win32,60.24096386,,,,,,,,,,,2,02,2,5,,,,,,,,,,,,13,0,13,0,1,,,,,,,,,,,,,,3,0,3,0,1,8,15
659ed4d20445e9c16df76aee,SCN,2024-06-24_15h01.01.347,LearnStrategy,2023.2.3,Win32,60.24096386,,,,,,,,,,,4,01,2,6,,,,,,,,,,,,13,0,13,0,1,,,,,,,,,,,,,,3,0,3,0,1,8,15
659ed4d20445e9c16df76aee,SCN,2024-06-24_15h01.01.347,LearnStrategy,2023.2.3,Win32,60.24096386,,,,,,,,,,,3,16,2,7,,,,,,,,,,,,13,0,13,0,1,,,,,,,,,,,,,,3,0,3,0,1,8,15
659ed4d20445e9c16df76aee,SCN,2024-06-24_15h01.01.347,LearnStrategy,2023.2.3,Win32,60.24096386,,,,,,,,,,,1,03,2,8,,,,,,,,,,,,13,0,13,0,1,,,,,,,,,,,,,,3,0,3,0,1,8,15
659ed4d20445e9c16df76aee,SCN,2024-06-24_15h01.01.347,LearnStrategy,2023.2.3,Win32,60.24096386,,,,,,,,,,,3,10,3,1,,,,,,,,,,,,13,0,13,0,1,,,,,,,,,,,,,,3,0,3,0,1,8,15
659ed4d20445e9c16df76aee,SCN,2024-06-24_15h01.01.347,LearnStrategy,2023.2.3,Win32,60.24096386,,,,,,,,,,,1,11,3,2,,,,,,,,,,,,13,0,13,0,1,,,,,,,,,,,,,,3,0,3,0,1,8,15
659ed4d20445e9c16df76aee,SCN,2024-06-24_15h01.01.347,LearnStrategy,2023.2.3,Win32,60.24096386,,,,,,,,,,,2,06,3,3,,,,,,,,,,,,13,0,13,0,1,,,,,,,,,,,,,,3,0,3,0,1,8,15
659ed4d20445e9c16df76aee,SCN,2024-06-24_15h01.01.347,LearnStrategy,2023.2.3,Win32,60.24096386,,,,,,,,,,,7,05,3,4,,,,,,,,,,,,13,0,13,0,1,,,,,,,,,,,,,,3,0,3,0,1,8,15
659ed4d20445e9c16df76aee,SCN,2024-06-24_15h01.01.347,LearnStrategy,2023.2.3,Win32,60.24096386,,,,,,,,,,,7,04,3,5,,,,,,,,,,,,13,0,13,0,1,,,,,,,,,,,,,,3,0,3,0,1,8,15
659ed4d20445e9c16df76aee,SCN,2024-06-24_15h01.01.347,LearnStrategy,2023.2.3,Win32,60.24096386,,,,,,,,,,,6,07,3,6,,,,,,,,,,,,13,0,13,0,1,,,,,,,,,,,,,,3,0,3,0,1,8,15
659ed4d20445e9c16df76aee,SCN,2024-06-24_15h01.01.347,LearnStrategy,2023.2.3,Win32,60.24096386,,,,,,,,,,,6,08,3,7,,,,,,,,,,,,13,0,13,0,1,,,,,,,,,,,,,,3,0,3,0,1,8,15
659ed4d20445e9c16df76aee,SCN,2024-06-24_15h01.01.347,LearnStrategy,2023.2.3,Win32,60.24096386,,,,,,,,,,,5,12,3,8,,,,,,,,,,,,13,0,13,0,1,,,,,,,,,,,,,,3,0,3,0,1,8,15
659ed4d20445e9c16df76aee,SCN,2024-06-24_15h01.01.347,LearnStrategy,2023.2.3,Win32,60.24096386,,,,,,,,,,,8,15,4,1,,,,,,,,,,,,13,0,13,0,1,,,,,,,,,,,,,,3,0,3,0,1,8,15
659ed4d20445e9c16df76aee,SCN,2024-06-24_15h01.01.347,LearnStrategy,2023.2.3,Win32,60.24096386,,,,,,,,,,,6,10,4,2,,,,,,,,,,,,13,0,13,0,1,,,,,,,,,,,,,,3,0,3,0,1,8,15
659ed4d20445e9c16df76aee,SCN,2024-06-24_15h01.01.347,LearnStrategy,2023.2.3,Win32,60.24096386,,,,,,,,,,,8,14,4,3,,,,,,,,,,,,13,0,13,0,1,,,,,,,,,,,,,,3,0,3,0,1,8,15
659ed4d20445e9c16df76aee,SCN,2024-06-24_15h01.01.347,LearnStrategy,2023.2.3,Win32,60.24096386,,,,,,,,,,,2,09,4,4,,,,,,,,,,,,13,0,13,0,1,,,,,,,,,,,,,,3,0,3,0,1,8,15
659ed4d20445e9c16df76aee,SCN,2024-06-24_15h01.01.347,LearnStrategy,2023.2.3,Win32,60.24096386,,,,,,,,,,,1,02,4,5,,,,,,,,,,,,13,0,13,0,1,,,,,,,,,,,,,,3,0,3,0,1,8,15
659ed4d20445e9c16df76aee,SCN,2024-06-24_15h01.01.347,LearnStrategy,2023.2.3,Win32,60.24096386,,,,,,,,,,,8,10,4,6,,,,,,,,,,,,13,0,13,0,1,,,,,,,,,,,,,,3,0,3,0,1,8,15
659ed4d20445e9c16df76aee,SCN,2024-06-24_15h01.01.347,LearnStrategy,2023.2.3,Win32,60.24096386,,,,,,,,,,,5,08,4,7,,,,,,,,,,,,13,0,13,0,1,,,,,,,,,,,,,,3,0,3,0,1,8,15
659ed4d20445e9c16df76aee,SCN,2024-06-24_15h01.01.347,LearnStrategy,2023.2.3,Win32,60.24096386,,,,,,,,,,,8,16,4,8,,,,,,,,,,,,13,0,13,0,1,,,,,,,,,,,,,,3,0,3,0,1,8,15
659ed4d20445e9c16df76aee,SCN,2024-06-24_15h01.01.347,LearnStrategy,2023.2.3,Win32,60.24096386,,,,,,,,,,,2,08,5,1,,,,,,,,,,,,13,0,13,0,1,,,,,,,,,,,,,,3,0,3,0,1,8,15
659ed4d20445e9c16df76aee,SCN,2024-06-24_15h01.01.347,LearnStrategy,2023.2.3,Win32,60.24096386,,,,,,,,,,,4,16,5,2,,,,,,,,,,,,13,0,13,0,1,,,,,,,,,,,,,,3,0,3,0,1,8,15
659ed4d20445e9c16df76aee,SCN,2024-06-24_15h01.01.347,LearnStrategy,2023.2.3,Win32,60.24096386,,,,,,,,,,,6,15,5,3,,,,,,,,,,,,13,0,13,0,1,,,,,,,,,,,,,,3,0,3,0,1,8,15
659ed4d20445e9c16df76aee,SCN,2024-06-24_15h01.01.347,LearnStrategy,2023.2.3,Win32,60.24096386,,,,,,,,,,,4,09,5,4,,,,,,,,,,,,13,0,13,0,1,,,,,,,,,,,,,,3,0,3,0,1,8,15
659ed4d20445e9c16df76aee,SCN,2024-06-24_15h01.01.347,LearnStrategy,2023.2.3,Win32,60.24096386,,,,,,,,,,,1,01,5,5,,,,,,,,,,,,13,0,13,0,1,,,,,,,,,,,,,,3,0,3,0,1,8,15
659ed4d20445e9c16df76aee,SCN,2024-06-24_15h01.01.347,LearnStrategy,2023.2.3,Win32,60.24096386,,,,,,,,,,,5,11,5,6,,,,,,,,,,,,13,0,13,0,1,,,,,,,,,,,,,,3,0,3,0,1,8,15
659ed4d20445e9c16df76aee,SCN,2024-06-24_15h01.01.347,LearnStrategy,2023.2.3,Win32,60.24096386,,,,,,,,,,,6,03,5,7,,,,,,,,,,,,13,0,13,0,1,,,,,,,,,,,,,,3,0,3,0,1,8,15
659ed4d20445e9c16df76aee,SCN,2024-06-24_15h01.01.347,LearnStrategy,2023.2.3,Win32,60.24096386,,,,,,,,,,,4,15,5,8,,,,,,,,,,,,13,0,13,0,1,,,,,,,,,,,,,,3,0,3,0,1,8,15
659ed4d20445e9c16df76aee,SCN,2024-06-24_15h01.01.347,LearnStrategy,2023.2.3,Win32,60.24096386,,,,,,,,,,,2,04,6,1,,,,,,,,,,,,13,0,13,0,1,,,,,,,,,,,,,,3,0,3,0,1,8,15
659ed4d20445e9c16df76aee,SCN,2024-06-24_15h01.01.347,LearnStrategy,2023.2.3,Win32,60.24096386,,,,,,,,,,,5,09,6,2,,,,,,,,,,,,13,0,13,0,1,,,,,,,,,,,,,,3,0,3,0,1,8,15
659ed4d20445e9c16df76aee,SCN,2024-06-24_15h01.01.347,LearnStrategy,2023.2.3,Win32,60.24096386,,,,,,,,,,,5,06,6,3,,,,,,,,,,,,13,0,13,0,1,,,,,,,,,,,,,,3,0,3,0,1,8,15
659ed4d20445e9c16df76aee,SCN,2024-06-24_15h01.01.347,LearnStrategy,2023.2.3,Win32,60.24096386,,,,,,,,,,,3,02,6,4,,,,,,,,,,,,13,0,13,0,1,,,,,,,,,,,,,,3,0,3,0,1,8,15
659ed4d20445e9c16df76aee,SCN,2024-06-24_15h01.01.347,LearnStrategy,2023.2.3,Win32,60.24096386,,,,,,,,,,,1,06,6,5,,,,,,,,,,,,13,0,13,0,1,,,,,,,,,,,,,,3,0,3,0,1,8,15
659ed4d20445e9c16df76aee,SCN,2024-06-24_15h01.01.347,LearnStrategy,2023.2.3,Win32,60.24096386,,,,,,,,,,,3,15,6,6,,,,,,,,,,,,13,0,13,0,1,,,,,,,,,,,,,,3,0,3,0,1,8,15
659ed4d20445e9c16df76aee,SCN,2024-06-24_15h01.01.347,LearnStrategy,2023.2.3,Win32,60.24096386,,,,,,,,,,,7,13,6,7,,,,,,,,,,,,13,0,13,0,1,,,,,,,,,,,,,,3,0,3,0,1,8,15
659ed4d20445e9c16df76aee,SCN,2024-06-24_15h01.01.347,LearnStrategy,2023.2.3,Win32,60.24096386,,,,,,,,,,,3,07,6,8,,,,,,,,,,,,13,0,13,0,1,,,,,,,,,,,,,,3,0,3,0,1,8,15