participant,condition,date,expName,psychopyVersion,OS,frameRate,block,phase,trial,learn_mouse.x,learn_mouse.y,learn_mouse.leftButton,learn_mouse.midButton,learn_mouse.rightButton,learn_mouse.time,learn_mouse.clicked_name,cat,token,row,col,t_select,cat_rec,token_rec,cat_mouse_l.x,cat_mouse_l.y,cat_mouse_l.leftButton,cat_mouse_l.midButton,cat_mouse_l.rightButton,cat_mouse_l.time,cat_mouse_l.clicked_name,resp,t_resp,corr,train_trials.thisRepN,train_trials.thisTrialN,train_trials.thisN,train_trials.thisIndex,train_trials.ran,cat_mouse_t.x,cat_mouse_t.y,cat_mouse_t.leftButton,cat_mouse_t.midButton,cat_mouse_t.rightButton,cat_mouse_t.time,cat_mouse_t.clicked_name,test_trials.thisRepN,test_trials.thisTrialN,test_trials.thisN,test_trials.thisIndex,test_trials.ran,Bonus
65a29cdffc75f965e7fbcdc7,SCR,2024-06-24_12h18.31.608,LearnStrategy,2023.2.3,Win32,59.88023952,,,,,,,,,,,,,,,,,,,,,,,,,,,,,,,,,,,,,,,,,,,,,
65a29cdffc75f965e7fbcdc7,SCR,2024-06-24_12h18.31.608,LearnStrategy,2023.2.3,Win32,59.88023952,1,1,1,-0.534259266,0.413888887,1,0,0,3.0325,Andesite_06,1,06,6,1,3.032,7,07,0.354629658,-0.391666695,1,0,0,9.0958,Pumice_rect,8,9.096,0,0,0,0,0,1,,,,,,,,,,,,,
65a29cdffc75f965e7fbcdc7,SCR,2024-06-24_12h18.31.608,LearnStrategy,2023.2.3,Win32,59.88023952,1,1,2,-0.368518511,0.419444446,1,0,0,1.1567,Pumice_08,8,08,6,2,1.157,8,09,-0.107407393,-0.237963005,1,0,0,3.5862,Basalt_rect,2,3.586,0,1,0,1,0,1,,,,,,,,,,,,,
65a29cdffc75f965e7fbcdc7,SCR,2024-06-24_12h18.31.608,LearnStrategy,2023.2.3,Win32,59.88023952,1,1,3,-0.212037051,0.400925928,1,0,0,0.9566,Diorite_10,3,10,6,3,0.957,3,13,-0.10092594,-0.398148148,1,0,0,4.9769,Pegmatite_rect,6,4.977,0,2,0,2,0,1,,,,,,,,,,,,,
65a29cdffc75f965e7fbcdc7,SCR,2024-06-24_12h18.31.608,LearnStrategy,2023.2.3,Win32,59.88023952,1,1,4,-0.099999958,0.419444446,1,0,0,1.057,Pegmatite_16,6,16,6,4,1.057,1,10,-0.340740734,-0.393518519,1,0,0,3.8356,Obsidian_rect,5,3.836,0,3,0,3,0,1,,,,,,,,,,,,,
65a29cdffc75f965e7fbcdc7,SCR,2024-06-24_12h18.31.608,LearnStrategy,2023.2.3,Win32,59.88023952,1,1,5,0.062962991,0.401851848,1,0,0,0.9901,Gabbro_09,4,09,6,5,0.99,6,03,-0.124074088,-0.250925912,1,0,0,2.0909,Basalt_rect,2,2.091,0,4,0,4,0,1,,,,,,,,,,,,,
65a29cdffc75f965e7fbcdc7,SCR,2024-06-24_12h18.31.608,LearnStrategy,2023.2.3,Win32,59.88023952,1,1,6,0.27870369,0.401851848,1,0,0,0.8119,Andesite_10,1,10,6,6,0.812,4,14,0.141666695,-0.397222236,1,0,0,3.2093,Peridotite_rect,7,3.209,0,5,0,5,0,1,,,,,,,,,,,,,
65a29cdffc75f965e7fbcdc7,SCR,2024-06-24_12h18.31.608,LearnStrategy,2023.2.3,Win32,59.88023952,1,1,7,0.411111196,0.425925926,1,0,0,2.2119,Pegmatite_03,6,03,6,7,2.212,5,12,0.139814801,-0.39907406,1,0,0,3.6096,Peridotite_rect,7,3.61,0,6,0,6,0,1,,,,,,,,,,,,,
65a29cdffc75f965e7fbcdc7,SCR,2024-06-24_12h18.31.608,LearnStrategy,2023.2.3,Win32,59.88023952,1,1,8,0.549074102,0.445370369,1,0,0,0.9273,Basalt_16,2,16,6,8,0.927,1,09,-0.082407422,-0.250925912,1,0,0,1.8871,Basalt_rect,2,1.887,1,7,0,7,0,1,,,,,,,,,,,,,
65a29cdffc75f965e7fbcdc7,SCR,2024-06-24_12h18.31.608,LearnStrategy,2023.2.3,Win32,59.88023952,1,1,9,-0.520370377,0.244444441,1,0,0,0.9461,Basalt_08,2,08,5,1,0.946,7,04,-0.372222229,-0.412037037,1,0,0,2.4457,Obsidian_rect,5,2.446,0,8,0,8,0,1,,,,,,,,,,,,,
65a29cdffc75f965e7fbcdc7,SCR,2024-06-24_12h18.31.608,LearnStrategy,2023.2.3,Win32,59.88023952,1,1,10,-0.374074053,0.242592582,1,0,0,0.8628,Pegmatite_08,6,08,5,2,0.863,2,04,0.125,-0.261111153,1,0,0,3.9421,Diorite_rect,3,3.942,0,9,0,9,0,1,,,,,,,,,,,,,
65a29cdffc75f965e7fbcdc7,SCR,2024-06-24_12h18.31.608,LearnStrategy,2023.2.3,Win32,59.88023952,1,1,11,-0.22592594,0.255555559,1,0,0,1.4116,Pegmatite_12,6,12,5,3,1.412,6,08,-0.175925926,-0.237963005,1,0,0,4.809,Basalt_rect,2,4.809,0,10,0,10,0,1,,,,,,,,,,,,,
65a29cdffc75f965e7fbcdc7,SCR,2024-06-24_12h18.31.608,LearnStrategy,2023.2.3,Win32,59.88023952,1,1,12,-0.090740698,0.252777771,1,0,0,1.045,Pumice_16,8,16,5,4,1.045,3,08,0.354629658,-0.421296296,1,0,0,3.3966,Pumice_rect,8,3.397,1,11,0,11,0,1,,,,,,,,,,,,,
65a29cdffc75f965e7fbcdc7,SCR,2024-06-24_12h18.31.608,LearnStrategy,2023.2.3,Win32,59.88023952,1,1,13,0.087037051,0.231481481,1,0,0,1.7792,Obsidian_14,5,14,5,5,1.779,8,14,-0.368518511,-0.386111153,1,0,0,2.7405,Obsidian_rect,5,2.74,1,12,0,12,0,1,,,,,,,,,,,,,
65a29cdffc75f965e7fbcdc7,SCR,2024-06-24_12h18.31.608,LearnStrategy,2023.2.3,Win32,59.88023952,1,1,14,0.251851894,0.239814811,1,0,0,0.7791,Gabbro_10,4,10,5,6,0.779,4,09,0.083333333,-0.246296282,1,0,0,3.1426,Diorite_rect,3,3.143,0,13,0,13,0,1,,,,,,,,,,,,,
65a29cdffc75f965e7fbcdc7,SCR,2024-06-24_12h18.31.608,LearnStrategy,2023.2.3,Win32,59.88023952,1,1,15,0.347222222,0.26203703,1,0,0,1.6114,Obsidian_06,5,06,5,7,1.611,2,16,-0.345370363,-0.395370413,1,0,0,1.525,Obsidian_rect,5,1.525,1,14,0,14,0,1,,,,,,,,,,,,,
65a29cdffc75f965e7fbcdc7,SCR,2024-06-24_12h18.31.608,LearnStrategy,2023.2.3,Win32,59.88023952,1,1,16,0.590740769,0.25462963,1,0,0,0.8129,Basalt_05,2,05,5,8,0.813,5,11,-0.094444416,-0.234259288,1,0,0,3.4405,Basalt_rect,2,3.44,1,15,0,15,0,1,,,,,,,,,,,,,
65a29cdffc75f965e7fbcdc7,SCR,2024-06-24_12h18.31.608,LearnStrategy,2023.2.3,Win32,59.88023952,1,2,1,,,,,,,,3,12,,,,,,,,,,,,,6,7.768,0,,,,,,-0.162037037,-0.390740783,1,0,0,7.7678,Pegmatite_rect,0,0,0,0,1,
65a29cdffc75f965e7fbcdc7,SCR,2024-06-24_12h18.31.608,LearnStrategy,2023.2.3,Win32,59.88023952,1,2,2,,,,,,,,5,16,,,,,,,,,,,,,5,2.136,1,,,,,,-0.375,-0.39444443,1,0,0,2.136,Obsidian_rect,1,0,1,0,1,
65a29cdffc75f965e7fbcdc7,SCR,2024-06-24_12h18.31.608,LearnStrategy,2023.2.3,Win32,59.88023952,1,2,3,,,,,,,,7,15,,,,,,,,,,,,,7,5.585,1,,,,,,0.097222222,-0.383333347,1,0,0,5.585,Peridotite_rect,2,0,2,0,1,
65a29cdffc75f965e7fbcdc7,SCR,2024-06-24_12h18.31.608,LearnStrategy,2023.2.3,Win32,59.88023952,1,2,4,,,,,,,,8,05,,,,,,,,,,,,,8,3.391,1,,,,,,0.371296353,-0.39444443,1,0,0,3.3915,Pumice_rect,3,0,3,0,1,
65a29cdffc75f965e7fbcdc7,SCR,2024-06-24_12h18.31.608,LearnStrategy,2023.2.3,Win32,59.88023952,1,2,5,,,,,,,,5,10,,,,,,,,,,,,,5,1.529,1,,,,,,-0.339814822,-0.400000042,1,0,0,1.5287,Obsidian_rect,4,0,4,0,1,
65a29cdffc75f965e7fbcdc7,SCR,2024-06-24_12h18.31.608,LearnStrategy,2023.2.3,Win32,59.88023952,1,2,6,,,,,,,,4,15,,,,,,,,,,,,,3,4.803,0,,,,,,0.103703746,-0.261111153,1,0,0,4.803,Diorite_rect,5,0,5,0,1,
65a29cdffc75f965e7fbcdc7,SCR,2024-06-24_12h18.31.608,LearnStrategy,2023.2.3,Win32,59.88023952,1,2,7,,,,,,,,6,15,,,,,,,,,,,,,6,5.476,1,,,,,,-0.076851809,-0.407407407,1,0,0,5.4756,Pegmatite_rect,6,0,6,0,1,
65a29cdffc75f965e7fbcdc7,SCR,2024-06-24_12h18.31.608,LearnStrategy,2023.2.3,Win32,59.88023952,1,2,8,,,,,,,,2,12,,,,,,,,,,,,,8,2.04,0,,,,,,0.385185242,-0.389814801,1,0,0,2.0399,Pumice_rect,7,0,7,0,1,
65a29cdffc75f965e7fbcdc7,SCR,2024-06-24_12h18.31.608,LearnStrategy,2023.2.3,Win32,59.88023952,1,2,9,,,,,,,,8,02,,,,,,,,,,,,,8,2.053,1,,,,,,0.385185242,-0.389814801,1,0,0,2.0534,Pumice_rect,8,0,8,0,1,
65a29cdffc75f965e7fbcdc7,SCR,2024-06-24_12h18.31.608,LearnStrategy,2023.2.3,Win32,59.88023952,1,2,10,,,,,,,,4,01,,,,,,,,,,,,,2,2.076,0,,,,,,-0.119444459,-0.262962977,1,0,0,2.0761,Basalt_rect,9,0,9,0,1,
65a29cdffc75f965e7fbcdc7,SCR,2024-06-24_12h18.31.608,LearnStrategy,2023.2.3,Win32,59.88023952,1,2,11,,,,,,,,6,05,,,,,,,,,,,,,2,2.981,0,,,,,,-0.118518476,-0.262962977,1,0,0,2.981,Basalt_rect,10,0,10,0,1,
65a29cdffc75f965e7fbcdc7,SCR,2024-06-24_12h18.31.608,LearnStrategy,2023.2.3,Win32,59.88023952,1,2,12,,,,,,,,7,10,,,,,,,,,,,,,1,3.618,0,,,,,,-0.351851852,-0.251851894,1,0,0,3.6182,Andesite_rect,11,0,11,0,1,
65a29cdffc75f965e7fbcdc7,SCR,2024-06-24_12h18.31.608,LearnStrategy,2023.2.3,Win32,59.88023952,1,2,13,,,,,,,,1,16,,,,,,,,,,,,,1,1.436,1,,,,,,-0.340740734,-0.249074088,1,0,0,1.4357,Andesite_rect,12,0,12,0,1,
65a29cdffc75f965e7fbcdc7,SCR,2024-06-24_12h18.31.608,LearnStrategy,2023.2.3,Win32,59.88023952,1,2,14,,,,,,,,1,07,,,,,,,,,,,,,6,3.042,0,,,,,,-0.117592564,-0.392592607,1,0,0,3.0423,Pegmatite_rect,13,0,13,0,1,
65a29cdffc75f965e7fbcdc7,SCR,2024-06-24_12h18.31.608,LearnStrategy,2023.2.3,Win32,59.88023952,1,2,15,,,,,,,,2,11,,,,,,,,,,,,,8,5.291,0,,,,,,0.369444529,-0.411111125,1,0,0,5.2906,Pumice_rect,14,0,14,0,1,
65a29cdffc75f965e7fbcdc7,SCR,2024-06-24_12h18.31.608,LearnStrategy,2023.2.3,Win32,59.88023952,1,2,16,,,,,,,,3,11,,,,,,,,,,,,,2,1.654,0,,,,,,-0.14907406,-0.258333347,1,0,0,1.6535,Basalt_rect,15,0,15,0,1,
65a29cdffc75f965e7fbcdc7,SCR,2024-06-24_12h18.31.608,LearnStrategy,2023.2.3,Win32,59.88023952,2,1,1,0.237037023,-0.075000021,1,0,0,2.2131,Gabbro_03,4,03,3,6,2.213,8,09,-0.097222222,-0.256481524,1,0,0,0.9237,Basalt_rect,2,0.924,0,0,0,0,0,1,,,,,,,,,,,,,
65a29cdffc75f965e7fbcdc7,SCR,2024-06-24_12h18.31.608,LearnStrategy,2023.2.3,Win32,59.88023952,2,1,2,0.412037037,-0.092592593,1,0,0,1.3291,Diorite_15,3,15,3,7,1.329,7,14,0.420370455,-0.249074088,1,0,0,1.3152,Gabbro_rect,4,1.315,0,1,0,1,0,1,,,,,,,,,,,,,
65a29cdffc75f965e7fbcdc7,SCR,2024-06-24_12h18.31.608,LearnStrategy,2023.2.3,Win32,59.88023952,2,1,3,0.375925982,-0.251851894,1,0,0,2.7953,Obsidian_07,5,07,2,7,2.795,1,06,-0.347222222,-0.404629672,1,0,0,1.8093,Obsidian_rect,5,1.809,1,2,0,2,0,1,,,,,,,,,,,,,
65a29cdffc75f965e7fbcdc7,SCR,2024-06-24_12h18.31.608,LearnStrategy,2023.2.3,Win32,59.88023952,2,1,4,-0.527777778,-0.106481481,1,0,0,1.2528,Peridotite_14,7,14,3,1,1.253,3,13,-0.340740734,-0.238888917,1,0,0,1.6024,Andesite_rect,1,1.602,0,3,0,3,0,1,,,,,,,,,,,,,
65a29cdffc75f965e7fbcdc7,SCR,2024-06-24_12h18.31.608,LearnStrategy,2023.2.3,Win32,59.88023952,2,1,5,0.074999986,-0.078703704,1,0,0,1.2808,Peridotite_13,7,13,3,5,1.281,6,08,0.078703704,-0.397222236,1,0,0,1.998,Peridotite_rect,7,1.998,1,4,0,4,0,1,,,,,,,,,,,,,
65a29cdffc75f965e7fbcdc7,SCR,2024-06-24_12h18.31.608,LearnStrategy,2023.2.3,Win32,59.88023952,2,1,6,-0.050925926,-0.095370399,1,0,0,0.8459,Pegmatite_09,6,09,3,4,0.846,3,14,0.090740769,-0.385185171,1,0,0,2.8425,Peridotite_rect,7,2.843,0,5,0,5,0,1,,,,,,,,,,,,,
65a29cdffc75f965e7fbcdc7,SCR,2024-06-24_12h18.31.608,LearnStrategy,2023.2.3,Win32,59.88023952,2,1,7,0.409259231,0.401851848,1,0,0,1.7794,Pegmatite_03,6,03,6,7,1.779,7,05,-0.119444459,-0.416666667,1,0,0,1.4014,Pegmatite_rect,6,1.401,1,6,0,6,0,1,,,,,,,,,,,,,
65a29cdffc75f965e7fbcdc7,SCR,2024-06-24_12h18.31.608,LearnStrategy,2023.2.3,Win32,59.88023952,2,1,8,-0.223148134,-0.42777782,1,0,0,1.4684,Diorite_08,3,08,1,3,1.468,1,02,-0.155555513,-0.24537037,1,0,0,1.4021,Basalt_rect,2,1.402,0,7,0,7,0,1,,,,,,,,,,,,,
65a29cdffc75f965e7fbcdc7,SCR,2024-06-24_12h18.31.608,LearnStrategy,2023.2.3,Win32,59.88023952,2,1,9,0.422222279,0.053703697,1,0,0,1.3787,Andesite_11,1,11,4,7,1.379,2,08,0.150925954,-0.258333347,1,0,0,1.6702,Diorite_rect,3,1.67,0,8,0,8,0,1,,,,,,,,,,,,,
65a29cdffc75f965e7fbcdc7,SCR,2024-06-24_12h18.31.608,LearnStrategy,2023.2.3,Win32,59.88023952,2,1,10,-0.543518526,-0.248148176,1,0,0,1.7739,Diorite_09,3,09,2,1,1.774,4,03,-0.194444444,-0.243518547,1,0,0,1.5104,Basalt_rect,2,1.51,0,9,0,9,0,1,,,,,,,,,,,,,
65a29cdffc75f965e7fbcdc7,SCR,2024-06-24_12h18.31.608,LearnStrategy,2023.2.3,Win32,59.88023952,2,1,11,-0.526851831,-0.39444443,1,0,0,1.4136,Peridotite_12,7,12,1,1,1.414,2,04,0.067592621,-0.393518519,1,0,0,1.6806,Peridotite_rect,7,1.681,1,10,0,10,0,1,,,,,,,,,,,,,
65a29cdffc75f965e7fbcdc7,SCR,2024-06-24_12h18.31.608,LearnStrategy,2023.2.3,Win32,59.88023952,2,1,12,0.574074074,0.397222219,1,0,0,1.1418,Basalt_16,2,16,6,8,1.142,6,09,0.352777834,-0.391666695,1,0,0,3.2556,Pumice_rect,8,3.256,0,11,0,11,0,1,,,,,,,,,,,,,
65a29cdffc75f965e7fbcdc7,SCR,2024-06-24_12h18.31.608,LearnStrategy,2023.2.3,Win32,59.88023952,2,1,13,-0.032407407,0.2537037,1,0,0,1.2953,Pumice_16,8,16,5,4,1.295,4,14,0.382407436,-0.410185213,1,0,0,1.9216,Pumice_rect,8,1.922,1,12,0,12,0,1,,,,,,,,,,,,,
65a29cdffc75f965e7fbcdc7,SCR,2024-06-24_12h18.31.608,LearnStrategy,2023.2.3,Win32,59.88023952,2,1,14,-0.380555541,0.238888882,1,0,0,1.8133,Pegmatite_08,6,08,5,2,1.813,3,08,-0.201851809,-0.246296282,1,0,0,3.5742,Basalt_rect,2,3.574,0,13,0,13,0,1,,,,,,,,,,,,,
65a29cdffc75f965e7fbcdc7,SCR,2024-06-24_12h18.31.608,LearnStrategy,2023.2.3,Win32,59.88023952,2,1,15,-0.068518533,0.099074081,1,0,0,1.0296,Pegmatite_07,6,07,4,4,1.03,2,04,-0.113888847,-0.398148148,1,0,0,1.7902,Pegmatite_rect,6,1.79,1,14,0,14,0,1,,,,,,,,,,,,,
65a29cdffc75f965e7fbcdc7,SCR,2024-06-24_12h18.31.608,LearnStrategy,2023.2.3,Win32,59.88023952,2,1,16,-0.404629637,-0.236111111,1,0,0,2.1626,Andesite_02,1,02,2,2,2.163,4,08,-0.40370369,-0.235185199,1,0,0,2.6013,Andesite_rect,1,2.601,1,15,0,15,0,1,,,,,,,,,,,,,
65a29cdffc75f965e7fbcdc7,SCR,2024-06-24_12h18.31.608,LearnStrategy,2023.2.3,Win32,59.88023952,2,2,1,,,,,,,,1,01,,,,,,,,,,,,,4,6.036,0,,,,,,0.349074046,-0.255555541,1,0,0,6.0361,Gabbro_rect,0,0,0,0,1,
65a29cdffc75f965e7fbcdc7,SCR,2024-06-24_12h18.31.608,LearnStrategy,2023.2.3,Win32,59.88023952,2,2,2,,,,,,,,8,06,,,,,,,,,,,,,8,1.528,1,,,,,,0.362037094,-0.400925954,1,0,0,1.5283,Pumice_rect,1,0,1,0,1,
65a29cdffc75f965e7fbcdc7,SCR,2024-06-24_12h18.31.608,LearnStrategy,2023.2.3,Win32,59.88023952,2,2,3,,,,,,,,4,13,,,,,,,,,,,,,4,1.721,1,,,,,,0.385185242,-0.242592635,1,0,0,1.7208,Gabbro_rect,2,0,2,0,1,
65a29cdffc75f965e7fbcdc7,SCR,2024-06-24_12h18.31.608,LearnStrategy,2023.2.3,Win32,59.88023952,2,2,4,,,,,,,,7,16,,,,,,,,,,,,,7,1.886,1,,,,,,0.142592607,-0.391666695,1,0,0,1.8862,Peridotite_rect,3,0,3,0,1,
65a29cdffc75f965e7fbcdc7,SCR,2024-06-24_12h18.31.608,LearnStrategy,2023.2.3,Win32,59.88023952,2,2,5,,,,,,,,2,02,,,,,,,,,,,,,2,1.498,1,,,,,,-0.158333319,-0.261111153,1,0,0,1.4984,Basalt_rect,4,0,4,0,1,
65a29cdffc75f965e7fbcdc7,SCR,2024-06-24_12h18.31.608,LearnStrategy,2023.2.3,Win32,59.88023952,2,2,6,,,,,,,,7,06,,,,,,,,,,,,,7,1.558,1,,,,,,0.069444444,-0.387037065,1,0,0,1.5582,Peridotite_rect,5,0,5,0,1,
65a29cdffc75f965e7fbcdc7,SCR,2024-06-24_12h18.31.608,LearnStrategy,2023.2.3,Win32,59.88023952,2,2,7,,,,,,,,4,12,,,,,,,,,,,,,2,2.099,0,,,,,,-0.090740698,-0.255555541,1,0,0,2.0991,Basalt_rect,6,0,6,0,1,
65a29cdffc75f965e7fbcdc7,SCR,2024-06-24_12h18.31.608,LearnStrategy,2023.2.3,Win32,59.88023952,2,2,8,,,,,,,,3,06,,,,,,,,,,,,,1,4.083,0,,,,,,-0.339814822,-0.263888889,1,0,0,4.0826,Andesite_rect,7,0,7,0,1,
65a29cdffc75f965e7fbcdc7,SCR,2024-06-24_12h18.31.608,LearnStrategy,2023.2.3,Win32,59.88023952,2,2,9,,,,,,,,8,04,,,,,,,,,,,,,8,1.404,1,,,,,,0.350926011,-0.401851866,1,0,0,1.4042,Pumice_rect,8,0,8,0,1,
65a29cdffc75f965e7fbcdc7,SCR,2024-06-24_12h18.31.608,LearnStrategy,2023.2.3,Win32,59.88023952,2,2,10,,,,,,,,2,01,,,,,,,,,,,,,2,1.348,1,,,,,,-0.099074046,-0.260185171,1,0,0,1.3481,Basalt_rect,9,0,9,0,1,
65a29cdffc75f965e7fbcdc7,SCR,2024-06-24_12h18.31.608,LearnStrategy,2023.2.3,Win32,59.88023952,2,2,11,,,,,,,,1,14,,,,,,,,,,,,,1,1.787,1,,,,,,-0.355555534,-0.251851894,1,0,0,1.7869,Andesite_rect,10,0,10,0,1,
65a29cdffc75f965e7fbcdc7,SCR,2024-06-24_12h18.31.608,LearnStrategy,2023.2.3,Win32,59.88023952,2,2,12,,,,,,,,5,08,,,,,,,,,,,,,5,1.102,1,,,,,,-0.357407393,-0.413888931,1,0,0,1.1024,Obsidian_rect,11,0,11,0,1,
65a29cdffc75f965e7fbcdc7,SCR,2024-06-24_12h18.31.608,LearnStrategy,2023.2.3,Win32,59.88023952,2,2,13,,,,,,,,6,11,,,,,,,,,,,,,6,2.114,1,,,,,,-0.085185157,-0.396296325,1,0,0,2.1136,Pegmatite_rect,12,0,12,0,1,
65a29cdffc75f965e7fbcdc7,SCR,2024-06-24_12h18.31.608,LearnStrategy,2023.2.3,Win32,59.88023952,2,2,14,,,,,,,,5,02,,,,,,,,,,,,,5,1.151,1,,,,,,-0.326851845,-0.387962977,1,0,0,1.1511,Obsidian_rect,13,0,13,0,1,
65a29cdffc75f965e7fbcdc7,SCR,2024-06-24_12h18.31.608,LearnStrategy,2023.2.3,Win32,59.88023952,2,2,15,,,,,,,,3,07,,,,,,,,,,,,,1,2.278,0,,,,,,-0.330555563,-0.259259259,1,0,0,2.2777,Andesite_rect,14,0,14,0,1,
65a29cdffc75f965e7fbcdc7,SCR,2024-06-24_12h18.31.608,LearnStrategy,2023.2.3,Win32,59.88023952,2,2,16,,,,,,,,6,06,,,,,,,,,,,,,2,1.225,0,,,,,,-0.169444402,-0.252777806,1,0,0,1.2245,Basalt_rect,15,0,15,0,1,
65a29cdffc75f965e7fbcdc7,SCR,2024-06-24_12h18.31.608,LearnStrategy,2023.2.3,Win32,59.88023952,3,1,1,0.265740783,0.113888882,1,0,0,1.2635,Pumice_13,8,13,4,6,1.263,4,09,0.381481453,-0.386111153,1,0,0,1.2842,Pumice_rect,8,1.284,1,0,0,0,0,1,,,,,,,,,,,,,
65a29cdffc75f965e7fbcdc7,SCR,2024-06-24_12h18.31.608,LearnStrategy,2023.2.3,Win32,59.88023952,3,1,2,0.246296282,-0.087962963,1,0,0,2.3409,Gabbro_03,4,03,3,6,2.341,4,14,-0.088888875,-0.263888889,1,0,0,1.017,Basalt_rect,2,1.017,0,1,0,1,0,1,,,,,,,,,,,,,
65a29cdffc75f965e7fbcdc7,SCR,2024-06-24_12h18.31.608,LearnStrategy,2023.2.3,Win32,59.88023952,3,1,3,-0.40370369,0.081481474,1,0,0,1.9127,Andesite_09,1,09,4,2,1.913,4,05,0.335185157,-0.239814829,1,0,0,1.1093,Gabbro_rect,4,1.109,0,2,0,2,0,1,,,,,,,,,,,,,
65a29cdffc75f965e7fbcdc7,SCR,2024-06-24_12h18.31.608,LearnStrategy,2023.2.3,Win32,59.88023952,3,1,4,-0.222222222,-0.08425928,1,0,0,1.8966,Gabbro_14,4,14,3,3,1.897,3,08,0.358333305,-0.253703718,1,0,0,3.7403,Gabbro_rect,4,3.74,1,3,0,3,0,1,,,,,,,,,,,,,
65a29cdffc75f965e7fbcdc7,SCR,2024-06-24_12h18.31.608,LearnStrategy,2023.2.3,Win32,59.88023952,3,1,5,-0.224074046,0.274999989,1,0,0,1.3805,Pegmatite_12,6,12,5,3,1.38,8,14,-0.366666653,-0.260185171,1,0,0,1.9447,Andesite_rect,1,1.945,0,4,0,4,0,1,,,,,,,,,,,,,
65a29cdffc75f965e7fbcdc7,SCR,2024-06-24_12h18.31.608,LearnStrategy,2023.2.3,Win32,59.88023952,3,1,6,-0.257407365,-0.39907406,1,0,0,1.4134,Diorite_08,3,08,1,3,1.413,1,02,-0.378703683,-0.258333347,1,0,0,0.9499,Andesite_rect,1,0.95,0,5,0,5,0,1,,,,,,,,,,,,,
65a29cdffc75f965e7fbcdc7,SCR,2024-06-24_12h18.31.608,LearnStrategy,2023.2.3,Win32,59.88023952,3,1,7,0.059259273,-0.429629644,1,0,0,0.9791,Pumice_09,8,09,1,5,0.979,1,10,0.356481481,-0.404629672,1,0,0,0.9809,Pumice_rect,8,0.981,1,6,0,6,0,1,,,,,,,,,,,,,
65a29cdffc75f965e7fbcdc7,SCR,2024-06-24_12h18.31.608,LearnStrategy,2023.2.3,Win32,59.88023952,3,1,8,0.536111196,-0.240740741,1,0,0,3.1947,Peridotite_07,7,07,2,8,3.195,6,12,0.183333362,-0.387962977,1,0,0,1.6326,Peridotite_rect,7,1.633,1,7,0,7,0,1,,,,,,,,,,,,,
65a29cdffc75f965e7fbcdc7,SCR,2024-06-24_12h18.31.608,LearnStrategy,2023.2.3,Win32,59.88023952,3,1,9,-0.420370349,-0.12962963,1,0,0,1.7137,Andesite_04,1,04,3,2,1.714,6,03,-0.187962921,-0.231481481,1,0,0,1.2327,Basalt_rect,2,1.233,0,8,0,8,0,1,,,,,,,,,,,,,
65a29cdffc75f965e7fbcdc7,SCR,2024-06-24_12h18.31.608,LearnStrategy,2023.2.3,Win32,59.88023952,3,1,10,-0.52407406,-0.121296282,1,0,0,1.1245,Peridotite_14,7,14,3,1,1.125,3,10,0.041666667,-0.401851866,1,0,0,1.1966,Peridotite_rect,7,1.197,1,9,0,9,0,1,,,,,,,,,,,,,
65a29cdffc75f965e7fbcdc7,SCR,2024-06-24_12h18.31.608,LearnStrategy,2023.2.3,Win32,59.88023952,3,1,11,-0.530555548,0.099999993,1,0,0,1.1961,Peridotite_04,7,04,4,1,1.196,3,09,0.082407422,-0.378703718,1,0,0,1.5363,Peridotite_rect,7,1.536,1,10,0,10,0,1,,,,,,,,,,,,,
65a29cdffc75f965e7fbcdc7,SCR,2024-06-24_12h18.31.608,LearnStrategy,2023.2.3,Win32,59.88023952,3,1,12,-0.377777771,0.284259249,1,0,0,2.1125,Pegmatite_08,6,08,5,2,2.112,2,08,-0.395370377,-0.239814829,1,0,0,4.3327,Andesite_rect,1,4.333,0,11,0,11,0,1,,,,,,,,,,,,,
65a29cdffc75f965e7fbcdc7,SCR,2024-06-24_12h18.31.608,LearnStrategy,2023.2.3,Win32,59.88023952,3,1,13,-0.073148162,0.400925928,1,0,0,2.5783,Pegmatite_16,6,16,6,4,2.578,2,10,0.377777806,-0.260185171,1,0,0,2.7637,Gabbro_rect,4,2.764,0,12,0,12,0,1,,,,,,,,,,,,,
65a29cdffc75f965e7fbcdc7,SCR,2024-06-24_12h18.31.608,LearnStrategy,2023.2.3,Win32,59.88023952,3,1,14,0.437962991,0.395370369,1,0,0,1.6789,Pegmatite_03,6,03,6,7,1.679,3,08,0.134259259,-0.393518519,1,0,0,1.6334,Peridotite_rect,7,1.633,0,13,0,13,0,1,,,,,,,,,,,,,
65a29cdffc75f965e7fbcdc7,SCR,2024-06-24_12h18.31.608,LearnStrategy,2023.2.3,Win32,59.88023952,3,1,15,0.553703732,0.392592589,1,0,0,1.5066,Basalt_16,2,16,6,8,1.507,7,13,-0.085185157,-0.238888917,1,0,0,1.5672,Basalt_rect,2,1.567,1,14,0,14,0,1,,,,,,,,,,,,,
65a29cdffc75f965e7fbcdc7,SCR,2024-06-24_12h18.31.608,LearnStrategy,2023.2.3,Win32,59.88023952,3,1,16,0.555555556,0.239814811,1,0,0,0.713,Basalt_05,2,05,5,8,0.713,1,11,-0.07222218,-0.242592635,1,0,0,1.2562,Basalt_rect,2,1.256,1,15,0,15,0,1,,,,,,,,,,,,,
65a29cdffc75f965e7fbcdc7,SCR,2024-06-24_12h18.31.608,LearnStrategy,2023.2.3,Win32,59.88023952,3,2,1,,,,,,,,1,03,,,,,,,,,,,,,2,2.118,0,,,,,,-0.098148134,-0.238888917,1,0,0,2.1183,Basalt_rect,0,0,0,0,1,
65a29cdffc75f965e7fbcdc7,SCR,2024-06-24_12h18.31.608,LearnStrategy,2023.2.3,Win32,59.88023952,3,2,2,,,,,,,,8,03,,,,,,,,,,,,,8,2.471,1,,,,,,0.398148148,-0.398148148,1,0,0,2.471,Pumice_rect,1,0,1,0,1,
65a29cdffc75f965e7fbcdc7,SCR,2024-06-24_12h18.31.608,LearnStrategy,2023.2.3,Win32,59.88023952,3,2,3,,,,,,,,1,05,,,,,,,,,,,,,6,3.637,0,,,,,,-0.093518504,-0.396296325,1,0,0,3.6373,Pegmatite_rect,2,0,2,0,1,
65a29cdffc75f965e7fbcdc7,SCR,2024-06-24_12h18.31.608,LearnStrategy,2023.2.3,Win32,59.88023952,3,2,4,,,,,,,,6,10,,,,,,,,,,,,,6,1.027,1,,,,,,-0.093518504,-0.396296325,1,0,0,1.0266,Pegmatite_rect,3,0,3,0,1,
65a29cdffc75f965e7fbcdc7,SCR,2024-06-24_12h18.31.608,LearnStrategy,2023.2.3,Win32,59.88023952,3,2,5,,,,,,,,6,13,,,,,,,,,,,,,6,1.241,1,,,,,,-0.093518504,-0.396296325,1,0,0,1.2406,Pegmatite_rect,4,0,4,0,1,
65a29cdffc75f965e7fbcdc7,SCR,2024-06-24_12h18.31.608,LearnStrategy,2023.2.3,Win32,59.88023952,3,2,6,,,,,,,,4,11,,,,,,,,,,,,,2,2.042,0,,,,,,-0.080555527,-0.263888889,1,0,0,2.0418,Basalt_rect,5,0,5,0,1,
65a29cdffc75f965e7fbcdc7,SCR,2024-06-24_12h18.31.608,LearnStrategy,2023.2.3,Win32,59.88023952,3,2,7,,,,,,,,7,08,,,,,,,,,,,,,7,1.485,1,,,,,,0.078703704,-0.390740783,1,0,0,1.485,Peridotite_rect,6,0,6,0,1,
65a29cdffc75f965e7fbcdc7,SCR,2024-06-24_12h18.31.608,LearnStrategy,2023.2.3,Win32,59.88023952,3,2,8,,,,,,,,7,02,,,,,,,,,,,,,7,0.674,1,,,,,,0.078703704,-0.390740783,1,0,0,0.6736,Peridotite_rect,7,0,7,0,1,
65a29cdffc75f965e7fbcdc7,SCR,2024-06-24_12h18.31.608,LearnStrategy,2023.2.3,Win32,59.88023952,3,2,9,,,,,,,,2,14,,,,,,,,,,,,,3,4.758,0,,,,,,0.173148191,-0.260185171,1,0,0,4.758,Diorite_rect,8,0,8,0,1,
65a29cdffc75f965e7fbcdc7,SCR,2024-06-24_12h18.31.608,LearnStrategy,2023.2.3,Win32,59.88023952,3,2,10,,,,,,,,2,06,,,,,,,,,,,,,2,1.393,1,,,,,,-0.107407393,-0.270370413,1,0,0,1.3925,Basalt_rect,9,0,9,0,1,
65a29cdffc75f965e7fbcdc7,SCR,2024-06-24_12h18.31.608,LearnStrategy,2023.2.3,Win32,59.88023952,3,2,11,,,,,,,,3,16,,,,,,,,,,,,,6,2.081,0,,,,,,-0.14444443,-0.402777778,1,0,0,2.0812,Pegmatite_rect,10,0,10,0,1,
65a29cdffc75f965e7fbcdc7,SCR,2024-06-24_12h18.31.608,LearnStrategy,2023.2.3,Win32,59.88023952,3,2,12,,,,,,,,5,04,,,,,,,,,,,,,5,0.987,1,,,,,,-0.355555534,-0.388888889,1,0,0,0.9875,Obsidian_rect,11,0,11,0,1,
65a29cdffc75f965e7fbcdc7,SCR,2024-06-24_12h18.31.608,LearnStrategy,2023.2.3,Win32,59.88023952,3,2,13,,,,,,,,4,16,,,,,,,,,,,,,4,2.24,1,,,,,,0.438888974,-0.258333347,1,0,0,2.2403,Gabbro_rect,12,0,12,0,1,
65a29cdffc75f965e7fbcdc7,SCR,2024-06-24_12h18.31.608,LearnStrategy,2023.2.3,Win32,59.88023952,3,2,14,,,,,,,,5,05,,,,,,,,,,,,,5,1.473,1,,,,,,-0.345370363,-0.402777778,1,0,0,1.4729,Obsidian_rect,13,0,13,0,1,
65a29cdffc75f965e7fbcdc7,SCR,2024-06-24_12h18.31.608,LearnStrategy,2023.2.3,Win32,59.88023952,3,2,15,,,,,,,,3,02,,,,,,,,,,,,,6,1.753,0,,,,,,-0.151851866,-0.387962977,1,0,0,1.7535,Pegmatite_rect,14,0,14,0,1,
65a29cdffc75f965e7fbcdc7,SCR,2024-06-24_12h18.31.608,LearnStrategy,2023.2.3,Win32,59.88023952,3,2,16,,,,,,,,8,15,,,,,,,,,,,,,8,1.574,1,,,,,,0.3648149,-0.404629672,1,0,0,1.5743,Pumice_rect,15,0,15,0,1,
65a29cdffc75f965e7fbcdc7,SCR,2024-06-24_12h18.31.608,LearnStrategy,2023.2.3,Win32,59.88023952,4,1,1,-0.074074074,0.374074071,1,0,0,9.6952,Pegmatite_16,6,16,6,4,9.695,3,10,-0.125,-0.393518519,1,0,0,1.6736,Pegmatite_rect,6,1.674,1,0,0,0,0,1,,,,,,,,,,,,,
65a29cdffc75f965e7fbcdc7,SCR,2024-06-24_12h18.31.608,LearnStrategy,2023.2.3,Win32,59.88023952,4,1,2,0.357407464,0.374074071,1,0,0,1.2799,Pegmatite_03,6,03,6,7,1.28,4,09,0.091666681,-0.402777778,1,0,0,2.0323,Peridotite_rect,7,2.032,0,1,0,1,0,1,,,,,,,,,,,,,
65a29cdffc75f965e7fbcdc7,SCR,2024-06-24_12h18.31.608,LearnStrategy,2023.2.3,Win32,59.88023952,4,1,3,0.107407393,0.411111108,1,0,0,1.9795,Gabbro_09,4,09,6,5,1.98,6,12,-0.125925912,-0.240740741,1,0,0,1.3441,Basalt_rect,2,1.344,0,2,0,2,0,1,,,,,,,,,,,,,
65a29cdffc75f965e7fbcdc7,SCR,2024-06-24_12h18.31.608,LearnStrategy,2023.2.3,Win32,59.88023952,4,1,4,0.262962977,0.37685185,1,0,0,0.7974,Andesite_10,1,10,6,6,0.797,3,08,-0.084259245,-0.242592635,1,0,0,2.6166,Basalt_rect,2,2.617,0,3,0,3,0,1,,,,,,,,,,,,,
65a29cdffc75f965e7fbcdc7,SCR,2024-06-24_12h18.31.608,LearnStrategy,2023.2.3,Win32,59.88023952,4,1,5,-0.373148141,0.264814818,1,0,0,2.5405,Pegmatite_08,6,08,5,2,2.54,2,16,-0.132407365,-0.419444473,1,0,0,2.5141,Pegmatite_rect,6,2.514,1,4,0,4,0,1,,,,,,,,,,,,,
65a29cdffc75f965e7fbcdc7,SCR,2024-06-24_12h18.31.608,LearnStrategy,2023.2.3,Win32,59.88023952,4,1,6,-0.398148148,0.457407408,1,0,0,1.8463,Pumice_08,8,08,6,2,1.846,3,14,0.337037122,-0.381481524,1,0,0,2.136,Pumice_rect,8,2.136,1,5,0,5,0,1,,,,,,,,,,,,,
65a29cdffc75f965e7fbcdc7,SCR,2024-06-24_12h18.31.608,LearnStrategy,2023.2.3,Win32,59.88023952,4,1,7,-0.219444416,-0.101851852,1,0,0,2.3789,Gabbro_14,4,14,3,3,2.379,1,02,0.357407464,-0.26944443,1,0,0,1.732,Gabbro_rect,4,1.732,1,6,0,6,0,1,,,,,,,,,,,,,
65a29cdffc75f965e7fbcdc7,SCR,2024-06-24_12h18.31.608,LearnStrategy,2023.2.3,Win32,59.88023952,4,1,8,-0.063888903,-0.400000042,1,0,0,1.9635,Diorite_13,3,13,1,4,1.964,1,02,-0.158333319,-0.390740783,1,0,0,1.4981,Pegmatite_rect,6,1.498,0,7,0,7,0,1,,,,,,,,,,,,,
65a29cdffc75f965e7fbcdc7,SCR,2024-06-24_12h18.31.608,LearnStrategy,2023.2.3,Win32,59.88023952,4,1,9,-0.224999958,-0.417592578,1,0,0,1.7133,Diorite_08,3,08,1,3,1.713,7,14,0.09629631,-0.236111111,1,0,0,1.163,Diorite_rect,3,1.163,1,8,0,8,0,1,,,,,,,,,,,,,
65a29cdffc75f965e7fbcdc7,SCR,2024-06-24_12h18.31.608,LearnStrategy,2023.2.3,Win32,59.88023952,4,1,10,-0.337962963,-0.385185171,1,0,0,1.4135,Peridotite_05,7,05,1,2,1.413,2,04,0.102777764,-0.378703718,1,0,0,1.902,Peridotite_rect,7,1.902,1,9,0,9,0,1,,,,,,,,,,,,,
65a29cdffc75f965e7fbcdc7,SCR,2024-06-24_12h18.31.608,LearnStrategy,2023.2.3,Win32,59.88023952,4,1,11,-0.49537037,-0.377777806,1,0,0,1.0036,Peridotite_12,7,12,1,1,1.004,3,10,0.079629616,-0.40370369,1,0,0,1.3356,Peridotite_rect,7,1.336,1,10,0,10,0,1,,,,,,,,,,,,,
65a29cdffc75f965e7fbcdc7,SCR,2024-06-24_12h18.31.608,LearnStrategy,2023.2.3,Win32,59.88023952,4,1,12,0.599074046,-0.23055557,1,0,0,1.1798,Peridotite_07,7,07,2,8,1.18,8,16,0.092592593,-0.243518547,1,0,0,1.3442,Diorite_rect,3,1.344,0,11,0,11,0,1,,,,,,,,,,,,,
65a29cdffc75f965e7fbcdc7,SCR,2024-06-24_12h18.31.608,LearnStrategy,2023.2.3,Win32,59.88023952,4,1,13,0.25462963,-0.240740741,1,0,0,2.0127,Diorite_14,3,14,2,6,2.013,4,14,-0.087962963,-0.385185171,1,0,0,2.0405,Pegmatite_rect,6,2.04,0,12,0,12,0,1,,,,,,,,,,,,,
65a29cdffc75f965e7fbcdc7,SCR,2024-06-24_12h18.31.608,LearnStrategy,2023.2.3,Win32,59.88023952,4,1,14,-0.050000014,-0.237963005,1,0,0,2.8119,Gabbro_08,4,08,2,4,2.812,4,03,-0.344444452,-0.237963005,1,0,0,3.1281,Andesite_rect,1,3.128,0,13,0,13,0,1,,,,,,,,,,,,,
65a29cdffc75f965e7fbcdc7,SCR,2024-06-24_12h18.31.608,LearnStrategy,2023.2.3,Win32,59.88023952,4,1,15,-0.364814794,-0.262037065,1,0,0,0.8956,Andesite_02,1,02,2,2,0.896,1,06,-0.138888889,-0.397222236,1,0,0,2.007,Pegmatite_rect,6,2.007,0,14,0,14,0,1,,,,,,,,,,,,,
65a29cdffc75f965e7fbcdc7,SCR,2024-06-24_12h18.31.608,LearnStrategy,2023.2.3,Win32,59.88023952,4,1,16,-0.37962963,-0.24537037,1,0,0,1.5128,Andesite_02,1,02,2,2,1.513,6,09,-0.388888889,-0.263888889,1,0,0,1.6116,Andesite_rect,1,1.612,1,15,0,15,0,1,,,,,,,,,,,,,
65a29cdffc75f965e7fbcdc7,SCR,2024-06-24_12h18.31.608,LearnStrategy,2023.2.3,Win32,59.88023952,4,2,1,,,,,,,,3,11,,,,,,,,,,,,,1,3.024,0,,,,,,-0.335185192,-0.252777806,1,0,0,3.0242,Andesite_rect,0,0,0,0,1,
65a29cdffc75f965e7fbcdc7,SCR,2024-06-24_12h18.31.608,LearnStrategy,2023.2.3,Win32,59.88023952,4,2,2,,,,,,,,2,01,,,,,,,,,,,,,2,1.687,1,,,,,,-0.138888889,-0.249074088,1,0,0,1.6872,Basalt_rect,1,0,1,0,1,
65a29cdffc75f965e7fbcdc7,SCR,2024-06-24_12h18.31.608,LearnStrategy,2023.2.3,Win32,59.88023952,4,2,3,,,,,,,,8,02,,,,,,,,,,,,,8,1.458,1,,,,,,0.452777863,-0.420370384,1,0,0,1.4584,Pumice_rect,2,0,2,0,1,
65a29cdffc75f965e7fbcdc7,SCR,2024-06-24_12h18.31.608,LearnStrategy,2023.2.3,Win32,59.88023952,4,2,4,,,,,,,,1,03,,,,,,,,,,,,,6,3.102,0,,,,,,-0.107407393,-0.392592607,1,0,0,3.102,Pegmatite_rect,3,0,3,0,1,
65a29cdffc75f965e7fbcdc7,SCR,2024-06-24_12h18.31.608,LearnStrategy,2023.2.3,Win32,59.88023952,4,2,5,,,,,,,,7,15,,,,,,,,,,,,,7,1.851,1,,,,,,0.102777764,-0.400000042,1,0,0,1.8515,Peridotite_rect,4,0,4,0,1,
65a29cdffc75f965e7fbcdc7,SCR,2024-06-24_12h18.31.608,LearnStrategy,2023.2.3,Win32,59.88023952,4,2,6,,,,,,,,1,14,,,,,,,,,,,,,1,2.076,1,,,,,,-0.360185164,-0.233333376,1,0,0,2.0761,Andesite_rect,5,0,5,0,1,
65a29cdffc75f965e7fbcdc7,SCR,2024-06-24_12h18.31.608,LearnStrategy,2023.2.3,Win32,59.88023952,4,2,7,,,,,,,,6,10,,,,,,,,,,,,,6,1.994,1,,,,,,-0.106481481,-0.406481496,1,0,0,1.9942,Pegmatite_rect,6,0,6,0,1,
65a29cdffc75f965e7fbcdc7,SCR,2024-06-24_12h18.31.608,LearnStrategy,2023.2.3,Win32,59.88023952,4,2,8,,,,,,,,7,06,,,,,,,,,,,,,7,1.788,1,,,,,,0.130555541,-0.39907406,1,0,0,1.7881,Peridotite_rect,7,0,7,0,1,
65a29cdffc75f965e7fbcdc7,SCR,2024-06-24_12h18.31.608,LearnStrategy,2023.2.3,Win32,59.88023952,4,2,9,,,,,,,,6,06,,,,,,,,,,,,,6,1.998,1,,,,,,-0.10092594,-0.37962963,1,0,0,1.9984,Pegmatite_rect,8,0,8,0,1,
65a29cdffc75f965e7fbcdc7,SCR,2024-06-24_12h18.31.608,LearnStrategy,2023.2.3,Win32,59.88023952,4,2,10,,,,,,,,5,05,,,,,,,,,,,,,5,1.089,1,,,,,,-0.385185171,-0.381481524,1,0,0,1.0891,Obsidian_rect,9,0,9,0,1,
65a29cdffc75f965e7fbcdc7,SCR,2024-06-24_12h18.31.608,LearnStrategy,2023.2.3,Win32,59.88023952,4,2,11,,,,,,,,4,01,,,,,,,,,,,,,6,1.719,0,,,,,,-0.145370342,-0.385185171,1,0,0,1.7192,Pegmatite_rect,10,0,10,0,1,
65a29cdffc75f965e7fbcdc7,SCR,2024-06-24_12h18.31.608,LearnStrategy,2023.2.3,Win32,59.88023952,4,2,12,,,,,,,,2,11,,,,,,,,,,,,,8,1.869,0,,,,,,0.358333305,-0.401851866,1,0,0,1.8686,Pumice_rect,11,0,11,0,1,
65a29cdffc75f965e7fbcdc7,SCR,2024-06-24_12h18.31.608,LearnStrategy,2023.2.3,Win32,59.88023952,4,2,13,,,,,,,,8,06,,,,,,,,,,,,,8,0.992,1,,,,,,0.358333305,-0.40370369,1,0,0,0.9924,Pumice_rect,12,0,12,0,1,
65a29cdffc75f965e7fbcdc7,SCR,2024-06-24_12h18.31.608,LearnStrategy,2023.2.3,Win32,59.88023952,4,2,14,,,,,,,,3,16,,,,,,,,,,,,,1,2.611,0,,,,,,-0.349999993,-0.244444459,1,0,0,2.6106,Andesite_rect,13,0,13,0,1,
65a29cdffc75f965e7fbcdc7,SCR,2024-06-24_12h18.31.608,LearnStrategy,2023.2.3,Win32,59.88023952,4,2,15,,,,,,,,4,15,,,,,,,,,,,,,4,2.473,1,,,,,,0.401851937,-0.244444459,1,0,0,2.4731,Gabbro_rect,14,0,14,0,1,
65a29cdffc75f965e7fbcdc7,SCR,2024-06-24_12h18.31.608,LearnStrategy,2023.2.3,Win32,59.88023952,4,2,16,,,,,,,,5,08,,,,,,,,,,,,,5,1.283,1,,,,,,-0.316666674,-0.400925954,1,0,0,1.2831,Obsidian_rect,15,0,15,0,1,
65a29cdffc75f965e7fbcdc7,SCR,2024-06-24_12h18.31.608,LearnStrategy,2023.2.3,Win32,59.88023952,5,1,1,0.199999986,0.10833334,1,0,0,1.0927,Pumice_13,8,13,4,6,1.093,3,10,0.350000028,-0.398148148,1,0,0,1.5178,Pumice_rect,8,1.518,1,0,0,0,0,1,,,,,,,,,,,,,
65a29cdffc75f965e7fbcdc7,SCR,2024-06-24_12h18.31.608,LearnStrategy,2023.2.3,Win32,59.88023952,5,1,2,-0.214814787,0.12037037,1,0,0,1.2796,Obsidian_12,5,12,4,3,1.28,7,07,-0.387962942,-0.397222236,1,0,0,1.0272,Obsidian_rect,5,1.027,1,1,0,1,0,1,,,,,,,,,,,,,
65a29cdffc75f965e7fbcdc7,SCR,2024-06-24_12h18.31.608,LearnStrategy,2023.2.3,Win32,59.88023952,5,1,3,-0.081481439,0.102777764,1,0,0,0.6134,Pegmatite_07,6,07,4,4,0.613,1,10,-0.16851849,-0.393518519,1,0,0,2.1923,Pegmatite_rect,6,2.192,1,2,0,2,0,1,,,,,,,,,,,,,
65a29cdffc75f965e7fbcdc7,SCR,2024-06-24_12h18.31.608,LearnStrategy,2023.2.3,Win32,59.88023952,5,1,4,0.440740797,0.390740739,1,0,0,1.1963,Pegmatite_03,6,03,6,7,1.196,4,08,0.125925912,-0.400000042,1,0,0,1.5112,Peridotite_rect,7,1.511,0,3,0,3,0,1,,,,,,,,,,,,,
65a29cdffc75f965e7fbcdc7,SCR,2024-06-24_12h18.31.608,LearnStrategy,2023.2.3,Win32,59.88023952,5,1,5,0.397222307,0.415740737,1,0,0,1.1299,Pegmatite_03,6,03,6,7,1.13,2,08,-0.087037051,-0.388888889,1,0,0,1.0339,Pegmatite_rect,6,1.034,1,4,0,4,0,1,,,,,,,,,,,,,
65a29cdffc75f965e7fbcdc7,SCR,2024-06-24_12h18.31.608,LearnStrategy,2023.2.3,Win32,59.88023952,5,1,6,0.244444459,0.406481478,1,0,0,0.8625,Andesite_10,1,10,6,6,0.862,2,16,0.387037065,-0.248148176,1,0,0,2.0924,Gabbro_rect,4,2.092,0,5,0,5,0,1,,,,,,,,,,,,,
65a29cdffc75f965e7fbcdc7,SCR,2024-06-24_12h18.31.608,LearnStrategy,2023.2.3,Win32,59.88023952,5,1,7,0.102777764,0.425925926,1,0,0,1.0922,Gabbro_09,4,09,6,5,1.092,1,09,-0.350925905,-0.228703746,1,0,0,1.2608,Andesite_rect,1,1.261,0,6,0,6,0,1,,,,,,,,,,,,,
65a29cdffc75f965e7fbcdc7,SCR,2024-06-24_12h18.31.608,LearnStrategy,2023.2.3,Win32,59.88023952,5,1,8,-0.074999986,0.400925928,1,0,0,1.2959,Pegmatite_16,6,16,6,4,1.296,3,13,-0.125925912,-0.389814801,1,0,0,1.1961,Pegmatite_rect,6,1.196,1,7,0,7,0,1,,,,,,,,,,,,,
65a29cdffc75f965e7fbcdc7,SCR,2024-06-24_12h18.31.608,LearnStrategy,2023.2.3,Win32,59.88023952,5,1,9,-0.224074046,0.400925928,1,0,0,0.832,Diorite_10,3,10,6,3,0.832,3,09,-0.337037016,-0.234259288,1,0,0,1.3507,Andesite_rect,1,1.351,0,8,0,8,0,1,,,,,,,,,,,,,
65a29cdffc75f965e7fbcdc7,SCR,2024-06-24_12h18.31.608,LearnStrategy,2023.2.3,Win32,59.88023952,5,1,10,-0.365740741,0.417592587,1,0,0,1.2291,Pumice_08,8,08,6,2,1.229,4,14,0.344444416,-0.402777778,1,0,0,1.1959,Pumice_rect,8,1.196,1,9,0,9,0,1,,,,,,,,,,,,,
65a29cdffc75f965e7fbcdc7,SCR,2024-06-24_12h18.31.608,LearnStrategy,2023.2.3,Win32,59.88023952,5,1,11,-0.576851845,0.408333328,1,0,0,0.9631,Andesite_06,1,06,6,1,0.963,2,04,0.170370384,-0.251851894,1,0,0,1.8314,Diorite_rect,3,1.831,0,10,0,10,0,1,,,,,,,,,,,,,
65a29cdffc75f965e7fbcdc7,SCR,2024-06-24_12h18.31.608,LearnStrategy,2023.2.3,Win32,59.88023952,5,1,12,-0.518518519,0.255555559,1,0,0,2.0967,Basalt_08,2,08,5,1,2.097,3,10,0.36018527,-0.258333347,1,0,0,1.4507,Gabbro_rect,4,1.451,0,11,0,11,0,1,,,,,,,,,,,,,
65a29cdffc75f965e7fbcdc7,SCR,2024-06-24_12h18.31.608,LearnStrategy,2023.2.3,Win32,59.88023952,5,1,13,-0.51203703,0.085185192,1,0,0,1.1433,Peridotite_04,7,04,4,1,1.143,4,03,0.08148151,-0.419444473,1,0,0,1.2576,Peridotite_rect,7,1.258,1,12,0,12,0,1,,,,,,,,,,,,,
65a29cdffc75f965e7fbcdc7,SCR,2024-06-24_12h18.31.608,LearnStrategy,2023.2.3,Win32,59.88023952,5,1,14,-0.3824074,-0.108333376,1,0,0,1.2792,Andesite_04,1,04,3,2,1.279,6,16,-0.201851809,-0.410185213,1,0,0,1.757,Pegmatite_rect,6,1.757,0,13,0,13,0,1,,,,,,,,,,,,,
65a29cdffc75f965e7fbcdc7,SCR,2024-06-24_12h18.31.608,LearnStrategy,2023.2.3,Win32,59.88023952,5,1,15,-0.371296282,0.107407393,1,0,0,1.2293,Andesite_09,1,09,4,2,1.229,8,08,-0.402777778,-0.255555541,1,0,0,1.096,Andesite_rect,1,1.096,1,14,0,14,0,1,,,,,,,,,,,,,
65a29cdffc75f965e7fbcdc7,SCR,2024-06-24_12h18.31.608,LearnStrategy,2023.2.3,Win32,59.88023952,5,1,16,-0.237962935,-0.10555557,1,0,0,1.413,Gabbro_14,4,14,3,3,1.413,1,02,-0.351851852,-0.262037065,1,0,0,2.1156,Andesite_rect,1,2.116,0,15,0,15,0,1,,,,,,,,,,,,,
65a29cdffc75f965e7fbcdc7,SCR,2024-06-24_12h18.31.608,LearnStrategy,2023.2.3,Win32,59.88023952,5,2,1,,,,,,,,3,07,,,,,,,,,,,,,6,2.524,0,,,,,,-0.150925884,-0.391666695,1,0,0,2.5239,Pegmatite_rect,0,0,0,0,1,
65a29cdffc75f965e7fbcdc7,SCR,2024-06-24_12h18.31.608,LearnStrategy,2023.2.3,Win32,59.88023952,5,2,2,,,,,,,,1,05,,,,,,,,,,,,,6,1.955,0,,,,,,-0.150925884,-0.391666695,1,0,0,1.9553,Pegmatite_rect,1,0,1,0,1,
65a29cdffc75f965e7fbcdc7,SCR,2024-06-24_12h18.31.608,LearnStrategy,2023.2.3,Win32,59.88023952,5,2,3,,,,,,,,5,10,,,,,,,,,,,,,5,0.979,1,,,,,,-0.337962963,-0.386111153,1,0,0,0.9788,Obsidian_rect,2,0,2,0,1,
65a29cdffc75f965e7fbcdc7,SCR,2024-06-24_12h18.31.608,LearnStrategy,2023.2.3,Win32,59.88023952,5,2,4,,,,,,,,6,15,,,,,,,,,,,,,6,2.226,1,,,,,,-0.174074032,-0.388888889,1,0,0,2.226,Pegmatite_rect,3,0,3,0,1,
65a29cdffc75f965e7fbcdc7,SCR,2024-06-24_12h18.31.608,LearnStrategy,2023.2.3,Win32,59.88023952,5,2,5,,,,,,,,7,08,,,,,,,,,,,,,7,1.525,1,,,,,,0.122222265,-0.396296325,1,0,0,1.525,Peridotite_rect,4,0,4,0,1,
65a29cdffc75f965e7fbcdc7,SCR,2024-06-24_12h18.31.608,LearnStrategy,2023.2.3,Win32,59.88023952,5,2,6,,,,,,,,6,05,,,,,,,,,,,,,1,1.505,0,,,,,,-0.349999993,-0.258333347,1,0,0,1.5053,Andesite_rect,5,0,5,0,1,
65a29cdffc75f965e7fbcdc7,SCR,2024-06-24_12h18.31.608,LearnStrategy,2023.2.3,Win32,59.88023952,5,2,7,,,,,,,,2,06,,,,,,,,,,,,,2,1.213,1,,,,,,-0.176851838,-0.25,1,0,0,1.2127,Basalt_rect,6,0,6,0,1,
65a29cdffc75f965e7fbcdc7,SCR,2024-06-24_12h18.31.608,LearnStrategy,2023.2.3,Win32,59.88023952,5,2,8,,,,,,,,4,11,,,,,,,,,,,,,4,1.627,1,,,,,,0.345370399,-0.270370413,1,0,0,1.6267,Gabbro_rect,7,0,7,0,1,
65a29cdffc75f965e7fbcdc7,SCR,2024-06-24_12h18.31.608,LearnStrategy,2023.2.3,Win32,59.88023952,5,2,9,,,,,,,,5,04,,,,,,,,,,,,,5,1.306,1,,,,,,-0.332407386,-0.390740783,1,0,0,1.3061,Obsidian_rect,8,0,8,0,1,
65a29cdffc75f965e7fbcdc7,SCR,2024-06-24_12h18.31.608,LearnStrategy,2023.2.3,Win32,59.88023952,5,2,10,,,,,,,,2,02,,,,,,,,,,,,,4,1.74,0,,,,,,0.362962935,-0.250925912,1,0,0,1.7401,Gabbro_rect,9,0,9,0,1,
65a29cdffc75f965e7fbcdc7,SCR,2024-06-24_12h18.31.608,LearnStrategy,2023.2.3,Win32,59.88023952,5,2,11,,,,,,,,8,05,,,,,,,,,,,,,8,1.797,1,,,,,,0.352777834,-0.39907406,1,0,0,1.7972,Pumice_rect,10,0,10,0,1,
65a29cdffc75f965e7fbcdc7,SCR,2024-06-24_12h18.31.608,LearnStrategy,2023.2.3,Win32,59.88023952,5,2,12,,,,,,,,8,04,,,,,,,,,,,,,8,0.792,1,,,,,,0.352777834,-0.39907406,1,0,0,0.792,Pumice_rect,11,0,11,0,1,
65a29cdffc75f965e7fbcdc7,SCR,2024-06-24_12h18.31.608,LearnStrategy,2023.2.3,Win32,59.88023952,5,2,13,,,,,,,,3,06,,,,,,,,,,,,,6,2.655,0,,,,,,-0.159259231,-0.397222236,1,0,0,2.6552,Pegmatite_rect,12,0,12,0,1,
65a29cdffc75f965e7fbcdc7,SCR,2024-06-24_12h18.31.608,LearnStrategy,2023.2.3,Win32,59.88023952,5,2,14,,,,,,,,1,07,,,,,,,,,,,,,6,0.741,0,,,,,,-0.158333319,-0.396296325,1,0,0,0.7411,Pegmatite_rect,13,0,13,0,1,
65a29cdffc75f965e7fbcdc7,SCR,2024-06-24_12h18.31.608,LearnStrategy,2023.2.3,Win32,59.88023952,5,2,15,,,,,,,,4,13,,,,,,,,,,,,,3,2.619,0,,,,,,0.112963005,-0.258333347,1,0,0,2.6188,Diorite_rect,14,0,14,0,1,
65a29cdffc75f965e7fbcdc7,SCR,2024-06-24_12h18.31.608,LearnStrategy,2023.2.3,Win32,59.88023952,5,2,16,,,,,,,,7,10,,,,,,,,,,,,,7,1.473,1,,,,,,0.124074088,-0.401851866,1,0,0,1.4734,Peridotite_rect,15,0,15,0,1,
65a29cdffc75f965e7fbcdc7,SCR,2024-06-24_12h18.31.608,LearnStrategy,2023.2.3,Win32,59.88023952,6,1,1,-0.06759255,0.104629623,1,0,0,1.1625,Pegmatite_07,6,07,4,4,1.163,4,10,0.112037023,-0.262037065,1,0,0,1.0984,Diorite_rect,3,1.098,0,0,0,0,0,1,,,,,,,,,,,,,
65a29cdffc75f965e7fbcdc7,SCR,2024-06-24_12h18.31.608,LearnStrategy,2023.2.3,Win32,59.88023952,6,1,2,-0.090740698,0.080555563,1,0,0,0.5133,Pegmatite_07,6,07,4,4,0.513,1,06,-0.099074046,-0.39444443,1,0,0,1.8622,Pegmatite_rect,6,1.862,1,1,0,1,0,1,,,,,,,,,,,,,
65a29cdffc75f965e7fbcdc7,SCR,2024-06-24_12h18.31.608,LearnStrategy,2023.2.3,Win32,59.88023952,6,1,3,-0.211111069,0.247222212,1,0,0,0.9971,Pegmatite_12,6,12,5,3,0.997,1,04,-0.36296297,-0.241666653,1,0,0,1.2906,Andesite_rect,1,1.291,0,2,0,2,0,1,,,,,,,,,,,,,
65a29cdffc75f965e7fbcdc7,SCR,2024-06-24_12h18.31.608,LearnStrategy,2023.2.3,Win32,59.88023952,6,1,4,-0.212037051,0.233333323,1,0,0,0.8626,Pegmatite_12,6,12,5,3,0.863,2,05,-0.139814801,-0.421296296,1,0,0,1.1921,Pegmatite_rect,6,1.192,1,3,0,3,0,1,,,,,,,,,,,,,
65a29cdffc75f965e7fbcdc7,SCR,2024-06-24_12h18.31.608,LearnStrategy,2023.2.3,Win32,59.88023952,6,1,5,-0.060185185,0.38333333,1,0,0,1.7463,Pegmatite_16,6,16,6,4,1.746,3,14,-0.165740755,-0.391666695,1,0,0,1.2739,Pegmatite_rect,6,1.274,1,4,0,4,0,1,,,,,,,,,,,,,
65a29cdffc75f965e7fbcdc7,SCR,2024-06-24_12h18.31.608,LearnStrategy,2023.2.3,Win32,59.88023952,6,1,6,0.371296353,-0.103703746,1,0,0,2.2625,Diorite_15,3,15,3,7,2.262,3,08,0.365740741,-0.261111153,1,0,0,2.1853,Gabbro_rect,4,2.185,0,5,0,5,0,1,,,,,,,,,,,,,
65a29cdffc75f965e7fbcdc7,SCR,2024-06-24_12h18.31.608,LearnStrategy,2023.2.3,Win32,59.88023952,6,1,7,0.371296353,-0.055555556,1,0,0,1.4254,Diorite_15,3,15,3,7,1.425,6,16,0.179629644,-0.228703746,1,0,0,1.0267,Diorite_rect,3,1.027,1,6,0,6,0,1,,,,,,,,,,,,,
65a29cdffc75f965e7fbcdc7,SCR,2024-06-24_12h18.31.608,LearnStrategy,2023.2.3,Win32,59.88023952,6,1,8,-0.057407379,0.125925912,1,0,0,2.2132,Pegmatite_07,6,07,4,4,2.213,1,10,-0.135185171,-0.39907406,1,0,0,1.0126,Pegmatite_rect,6,1.013,1,7,0,7,0,1,,,,,,,,,,,,,
65a29cdffc75f965e7fbcdc7,SCR,2024-06-24_12h18.31.608,LearnStrategy,2023.2.3,Win32,59.88023952,6,1,9,-0.39166666,0.112037023,1,0,0,0.9598,Andesite_09,1,09,4,2,0.96,2,08,-0.334259245,-0.231481481,1,0,0,1.5633,Andesite_rect,1,1.563,1,8,0,8,0,1,,,,,,,,,,,,,
65a29cdffc75f965e7fbcdc7,SCR,2024-06-24_12h18.31.608,LearnStrategy,2023.2.3,Win32,59.88023952,6,1,10,-0.537037037,-0.23055557,1,0,0,1.6966,Diorite_09,3,09,2,1,1.697,7,14,-0.41574072,-0.24537037,1,0,0,0.8664,Andesite_rect,1,0.866,0,9,0,9,0,1,,,,,,,,,,,,,
65a29cdffc75f965e7fbcdc7,SCR,2024-06-24_12h18.31.608,LearnStrategy,2023.2.3,Win32,59.88023952,6,1,11,-0.51944443,-0.40370369,1,0,0,1.0972,Peridotite_12,7,12,1,1,1.097,1,10,0.045370384,-0.412962949,1,0,0,1.3197,Peridotite_rect,7,1.32,1,10,0,10,0,1,,,,,,,,,,,,,
65a29cdffc75f965e7fbcdc7,SCR,2024-06-24_12h18.31.608,LearnStrategy,2023.2.3,Win32,59.88023952,6,1,12,0.394444501,0.441666665,1,0,0,4.1411,Pegmatite_03,6,03,6,7,4.141,3,15,0.115740741,-0.404629672,1,0,0,1.6511,Peridotite_rect,7,1.651,0,11,0,11,0,1,,,,,,,,,,,,,
65a29cdffc75f965e7fbcdc7,SCR,2024-06-24_12h18.31.608,LearnStrategy,2023.2.3,Win32,59.88023952,6,1,13,0.282407407,0.365740741,1,0,0,0.9626,Andesite_10,1,10,6,6,0.963,8,10,0.385185242,-0.228703746,1,0,0,1.3937,Gabbro_rect,4,1.394,0,12,0,12,0,1,,,,,,,,,,,,,
65a29cdffc75f965e7fbcdc7,SCR,2024-06-24_12h18.31.608,LearnStrategy,2023.2.3,Win32,59.88023952,6,1,14,0.085185228,0.375925921,1,0,0,0.6634,Gabbro_09,4,09,6,5,0.663,3,14,0.40370376,-0.249074088,1,0,0,2.5619,Gabbro_rect,4,2.562,1,13,0,13,0,1,,,,,,,,,,,,,
65a29cdffc75f965e7fbcdc7,SCR,2024-06-24_12h18.31.608,LearnStrategy,2023.2.3,Win32,59.88023952,6,1,15,-0.062962921,0.403703698,1,0,0,0.9306,Pegmatite_16,6,16,6,4,0.931,4,14,-0.111111111,-0.391666695,1,0,0,1.5072,Pegmatite_rect,6,1.507,1,14,0,14,0,1,,,,,,,,,,,,,
65a29cdffc75f965e7fbcdc7,SCR,2024-06-24_12h18.31.608,LearnStrategy,2023.2.3,Win32,59.88023952,6,1,16,-0.201851809,0.437037035,1,0,0,1.3466,Diorite_10,3,10,6,3,1.347,6,12,0.367592564,-0.233333376,1,0,0,1.7534,Gabbro_rect,4,1.753,0,15,0,15,0,1,,,,,,,,,,,,,
65a29cdffc75f965e7fbcdc7,SCR,2024-06-24_12h18.31.608,LearnStrategy,2023.2.3,Win32,59.88023952,6,2,1,,,,,,,,1,01,,,,,,,,,,,,,3,6.226,0,,,,,,0.145370413,-0.246296282,1,0,0,6.2264,Diorite_rect,0,0,0,0,1,
65a29cdffc75f965e7fbcdc7,SCR,2024-06-24_12h18.31.608,LearnStrategy,2023.2.3,Win32,59.88023952,6,2,2,,,,,,,,5,16,,,,,,,,,,,,,5,1.235,1,,,,,,-0.341666645,-0.386111153,1,0,0,1.2348,Obsidian_rect,1,0,1,0,1,
65a29cdffc75f965e7fbcdc7,SCR,2024-06-24_12h18.31.608,LearnStrategy,2023.2.3,Win32,59.88023952,6,2,3,,,,,,,,8,03,,,,,,,,,,,,,8,1.359,1,,,,,,0.307407379,-0.386111153,1,0,0,1.3589,Pumice_rect,2,0,2,0,1,
65a29cdffc75f965e7fbcdc7,SCR,2024-06-24_12h18.31.608,LearnStrategy,2023.2.3,Win32,59.88023952,6,2,4,,,,,,,,7,02,,,,,,,,,,,,,7,0.995,1,,,,,,0.145370413,-0.390740783,1,0,0,0.9949,Peridotite_rect,3,0,3,0,1,
65a29cdffc75f965e7fbcdc7,SCR,2024-06-24_12h18.31.608,LearnStrategy,2023.2.3,Win32,59.88023952,6,2,5,,,,,,,,4,16,,,,,,,,,,,,,4,1.461,1,,,,,,0.384259259,-0.260185171,1,0,0,1.4613,Gabbro_rect,4,0,4,0,1,
65a29cdffc75f965e7fbcdc7,SCR,2024-06-24_12h18.31.608,LearnStrategy,2023.2.3,Win32,59.88023952,6,2,6,,,,,,,,8,15,,,,,,,,,,,,,8,1.677,1,,,,,,0.406481566,-0.400925954,1,0,0,1.6772,Pumice_rect,5,0,5,0,1,
65a29cdffc75f965e7fbcdc7,SCR,2024-06-24_12h18.31.608,LearnStrategy,2023.2.3,Win32,59.88023952,6,2,7,,,,,,,,4,12,,,,,,,,,,,,,4,3.472,1,,,,,,0.353703675,-0.259259259,1,0,0,3.472,Gabbro_rect,6,0,6,0,1,
65a29cdffc75f965e7fbcdc7,SCR,2024-06-24_12h18.31.608,LearnStrategy,2023.2.3,Win32,59.88023952,6,2,8,,,,,,,,6,13,,,,,,,,,,,,,6,4.66,1,,,,,,-0.132407365,-0.405555584,1,0,0,4.6603,Pegmatite_rect,7,0,7,0,1,
65a29cdffc75f965e7fbcdc7,SCR,2024-06-24_12h18.31.608,LearnStrategy,2023.2.3,Win32,59.88023952,6,2,9,,,,,,,,2,14,,,,,,,,,,,,,3,2.009,0,,,,,,0.099074116,-0.25462963,1,0,0,2.0094,Diorite_rect,8,0,8,0,1,
65a29cdffc75f965e7fbcdc7,SCR,2024-06-24_12h18.31.608,LearnStrategy,2023.2.3,Win32,59.88023952,6,2,10,,,,,,,,3,12,,,,,,,,,,,,,6,1.625,0,,,,,,-0.095370328,-0.400000042,1,0,0,1.6246,Pegmatite_rect,9,0,9,0,1,
65a29cdffc75f965e7fbcdc7,SCR,2024-06-24_12h18.31.608,LearnStrategy,2023.2.3,Win32,59.88023952,6,2,11,,,,,,,,1,16,,,,,,,,,,,,,1,1.206,1,,,,,,-0.349074081,-0.24537037,1,0,0,1.2058,Andesite_rect,10,0,10,0,1,
65a29cdffc75f965e7fbcdc7,SCR,2024-06-24_12h18.31.608,LearnStrategy,2023.2.3,Win32,59.88023952,6,2,12,,,,,,,,5,02,,,,,,,,,,,,,5,1.459,1,,,,,,-0.37037037,-0.37962963,1,0,0,1.4589,Obsidian_rect,11,0,11,0,1,
65a29cdffc75f965e7fbcdc7,SCR,2024-06-24_12h18.31.608,LearnStrategy,2023.2.3,Win32,59.88023952,6,2,13,,,,,,,,2,12,,,,,,,,,,,,,8,2.392,0,,,,,,0.36018527,-0.39907406,1,0,0,2.3918,Pumice_rect,12,0,12,0,1,
65a29cdffc75f965e7fbcdc7,SCR,2024-06-24_12h18.31.608,LearnStrategy,2023.2.3,Win32,59.88023952,6,2,14,,,,,,,,7,16,,,,,,,,,,,,,7,1.532,1,,,,,,0.172222208,-0.401851866,1,0,0,1.5323,Peridotite_rect,13,0,13,0,1,
65a29cdffc75f965e7fbcdc7,SCR,2024-06-24_12h18.31.608,LearnStrategy,2023.2.3,Win32,59.88023952,6,2,15,,,,,,,,3,02,,,,,,,,,,,,,6,1.737,0,,,,,,-0.110185199,-0.381481524,1,0,0,1.7371,Pegmatite_rect,14,0,14,0,1,
65a29cdffc75f965e7fbcdc7,SCR,2024-06-24_12h18.31.608,LearnStrategy,2023.2.3,Win32,59.88023952,6,2,16,,,,,,,,6,11,,,,,,,,,,,,,6,1.265,1,,,,,,-0.111111111,-0.381481524,1,0,0,1.2653,Pegmatite_rect,15,0,15,0,1,
65a29cdffc75f965e7fbcdc7,SCR,2024-06-24_12h18.31.608,LearnStrategy,2023.2.3,Win32,59.88023952,7,1,1,0.059259273,-0.112037023,1,0,0,0.8635,Peridotite_13,7,13,3,5,0.863,3,10,0.116666653,-0.23055557,1,0,0,1.3532,Diorite_rect,3,1.353,0,0,0,0,0,1,,,,,,,,,,,,,
65a29cdffc75f965e7fbcdc7,SCR,2024-06-24_12h18.31.608,LearnStrategy,2023.2.3,Win32,59.88023952,7,1,2,-0.070370356,-0.078703704,1,0,0,0.6702,Pegmatite_09,6,09,3,4,0.67,6,08,-0.121296282,-0.378703718,1,0,0,1.6174,Pegmatite_rect,6,1.617,1,1,0,1,0,1,,,,,,,,,,,,,
65a29cdffc75f965e7fbcdc7,SCR,2024-06-24_12h18.31.608,LearnStrategy,2023.2.3,Win32,59.88023952,7,1,3,0.224074116,-0.25,1,0,0,1.5796,Diorite_14,3,14,2,6,1.58,3,15,0.069444444,-0.261111153,1,0,0,2.2808,Diorite_rect,3,2.281,1,2,0,2,0,1,,,,,,,,,,,,,
65a29cdffc75f965e7fbcdc7,SCR,2024-06-24_12h18.31.608,LearnStrategy,2023.2.3,Win32,59.88023952,7,1,4,-0.239814829,0.2574074,1,0,0,1.2299,Pegmatite_12,6,12,5,3,1.23,4,09,0.083333333,-0.249074088,1,0,0,1.1797,Diorite_rect,3,1.18,0,3,0,3,0,1,,,,,,,,,,,,,
65a29cdffc75f965e7fbcdc7,SCR,2024-06-24_12h18.31.608,LearnStrategy,2023.2.3,Win32,59.88023952,7,1,5,-0.228703675,-0.423148191,1,0,0,1.0805,Diorite_08,3,08,1,3,1.081,6,08,0.131481524,-0.235185199,1,0,0,0.8409,Diorite_rect,3,0.841,1,4,0,4,0,1,,,,,,,,,,,,,
65a29cdffc75f965e7fbcdc7,SCR,2024-06-24_12h18.31.608,LearnStrategy,2023.2.3,Win32,59.88023952,7,1,6,0.386111083,0.115740741,1,0,0,2.2967,Andesite_11,1,11,4,7,2.297,2,04,0.398148148,-0.248148176,1,0,0,1.315,Gabbro_rect,4,1.315,0,5,0,5,0,1,,,,,,,,,,,,,
65a29cdffc75f965e7fbcdc7,SCR,2024-06-24_12h18.31.608,LearnStrategy,2023.2.3,Win32,59.88023952,7,1,7,-0.551851838,0.410185187,1,0,0,0.9131,Andesite_06,1,06,6,1,0.913,1,06,-0.412962949,-0.232407393,1,0,0,1.0874,Andesite_rect,1,1.087,1,6,0,6,0,1,,,,,,,,,,,,,
65a29cdffc75f965e7fbcdc7,SCR,2024-06-24_12h18.31.608,LearnStrategy,2023.2.3,Win32,59.88023952,7,1,8,0.577777863,0.060185185,1,0,0,0.9472,Gabbro_05,4,05,4,8,0.947,2,16,-0.39166666,-0.24537037,1,0,0,1.3237,Andesite_rect,1,1.324,0,7,0,7,0,1,,,,,,,,,,,,,
65a29cdffc75f965e7fbcdc7,SCR,2024-06-24_12h18.31.608,LearnStrategy,2023.2.3,Win32,59.88023952,7,1,9,0.540740826,-0.089814822,1,0,0,1.1791,Pumice_10,8,10,3,8,1.179,1,02,0.479629658,-0.400000042,1,0,0,1.1178,Pumice_rect,8,1.118,1,8,0,8,0,1,,,,,,,,,,,,,
65a29cdffc75f965e7fbcdc7,SCR,2024-06-24_12h18.31.608,LearnStrategy,2023.2.3,Win32,59.88023952,7,1,10,0.553703732,-0.248148176,1,0,0,0.8592,Peridotite_07,7,07,2,8,0.859,8,14,-0.349074081,-0.246296282,1,0,0,1.492,Andesite_rect,1,1.492,0,9,0,9,0,1,,,,,,,,,,,,,
65a29cdffc75f965e7fbcdc7,SCR,2024-06-24_12h18.31.608,LearnStrategy,2023.2.3,Win32,59.88023952,7,1,11,0.390740712,-0.266666695,1,0,0,1.2803,Obsidian_07,5,07,2,7,1.28,4,03,-0.3824074,-0.400000042,1,0,0,1.3502,Obsidian_rect,5,1.35,1,10,0,10,0,1,,,,,,,,,,,,,
65a29cdffc75f965e7fbcdc7,SCR,2024-06-24_12h18.31.608,LearnStrategy,2023.2.3,Win32,59.88023952,7,1,12,0.345370399,-0.366666653,1,0,0,0.9929,Basalt_04,2,04,1,7,0.993,1,06,-0.044444402,-0.243518547,1,0,0,2.0393,Basalt_rect,2,2.039,1,11,0,11,0,1,,,,,,,,,,,,,
65a29cdffc75f965e7fbcdc7,SCR,2024-06-24_12h18.31.608,LearnStrategy,2023.2.3,Win32,59.88023952,7,1,13,0.27870369,0.430555556,1,0,0,0.9595,Andesite_10,1,10,6,6,0.96,2,05,-0.088888875,-0.395370413,1,0,0,1.8455,Pegmatite_rect,6,1.846,0,12,0,12,0,1,,,,,,,,,,,,,
65a29cdffc75f965e7fbcdc7,SCR,2024-06-24_12h18.31.608,LearnStrategy,2023.2.3,Win32,59.88023952,7,1,14,-0.53148146,0.419444446,1,0,0,1.2306,Andesite_06,1,06,6,1,1.231,3,13,-0.390740748,-0.231481481,1,0,0,2.0548,Andesite_rect,1,2.055,1,13,0,13,0,1,,,,,,,,,,,,,
65a29cdffc75f965e7fbcdc7,SCR,2024-06-24_12h18.31.608,LearnStrategy,2023.2.3,Win32,59.88023952,7,1,15,-0.127777735,0.432407406,1,0,0,1.393,Pegmatite_16,6,16,6,4,1.393,3,14,-0.183333291,-0.40370369,1,0,0,1.1389,Pegmatite_rect,6,1.139,1,14,0,14,0,1,,,,,,,,,,,,,
65a29cdffc75f965e7fbcdc7,SCR,2024-06-24_12h18.31.608,LearnStrategy,2023.2.3,Win32,59.88023952,7,1,16,0.499074159,0.396296298,1,0,0,0.7309,Basalt_16,2,16,6,8,0.731,3,09,-0.044444402,-0.257407436,1,0,0,2.4933,Basalt_rect,2,2.493,1,15,0,15,0,1,,,,,,,,,,,,,
65a29cdffc75f965e7fbcdc7,SCR,2024-06-24_12h18.31.608,LearnStrategy,2023.2.3,Win32,59.88023952,7,2,1,,,,,,,,2,06,,,,,,,,,,,,,2,1.864,1,,,,,,-0.09629631,-0.233333376,1,0,0,1.8637,Basalt_rect,0,0,0,0,1,
65a29cdffc75f965e7fbcdc7,SCR,2024-06-24_12h18.31.608,LearnStrategy,2023.2.3,Win32,59.88023952,7,2,2,,,,,,,,7,15,,,,,,,,,,,,,7,1.153,1,,,,,,0.123148176,-0.382407436,1,0,0,1.1526,Peridotite_rect,1,0,1,0,1,
65a29cdffc75f965e7fbcdc7,SCR,2024-06-24_12h18.31.608,LearnStrategy,2023.2.3,Win32,59.88023952,7,2,3,,,,,,,,7,08,,,,,,,,,,,,,7,2.315,1,,,,,,0.119444459,-0.387962977,1,0,0,2.3151,Peridotite_rect,2,0,2,0,1,
65a29cdffc75f965e7fbcdc7,SCR,2024-06-24_12h18.31.608,LearnStrategy,2023.2.3,Win32,59.88023952,7,2,4,,,,,,,,1,03,,,,,,,,,,,,,2,3.194,0,,,,,,-0.070370356,-0.249074088,1,0,0,3.1936,Basalt_rect,3,0,3,0,1,
65a29cdffc75f965e7fbcdc7,SCR,2024-06-24_12h18.31.608,LearnStrategy,2023.2.3,Win32,59.88023952,7,2,5,,,,,,,,8,02,,,,,,,,,,,,,8,1.427,1,,,,,,0.353703675,-0.420370384,1,0,0,1.4272,Pumice_rect,4,0,4,0,1,
65a29cdffc75f965e7fbcdc7,SCR,2024-06-24_12h18.31.608,LearnStrategy,2023.2.3,Win32,59.88023952,7,2,6,,,,,,,,4,11,,,,,,,,,,,,,4,1.582,1,,,,,,0.37962963,-0.244444459,1,0,0,1.5817,Gabbro_rect,5,0,5,0,1,
65a29cdffc75f965e7fbcdc7,SCR,2024-06-24_12h18.31.608,LearnStrategy,2023.2.3,Win32,59.88023952,7,2,7,,,,,,,,5,10,,,,,,,,,,,,,5,1.257,1,,,,,,-0.366666653,-0.39444443,1,0,0,1.2574,Obsidian_rect,6,0,6,0,1,
65a29cdffc75f965e7fbcdc7,SCR,2024-06-24_12h18.31.608,LearnStrategy,2023.2.3,Win32,59.88023952,7,2,8,,,,,,,,1,07,,,,,,,,,,,,,6,1.561,0,,,,,,-0.143518519,-0.411111125,1,0,0,1.5614,Pegmatite_rect,7,0,7,0,1,
65a29cdffc75f965e7fbcdc7,SCR,2024-06-24_12h18.31.608,LearnStrategy,2023.2.3,Win32,59.88023952,7,2,9,,,,,,,,6,11,,,,,,,,,,,,,6,1.756,1,,,,,,-0.143518519,-0.411111125,1,0,0,1.7556,Pegmatite_rect,8,0,8,0,1,
65a29cdffc75f965e7fbcdc7,SCR,2024-06-24_12h18.31.608,LearnStrategy,2023.2.3,Win32,59.88023952,7,2,10,,,,,,,,5,05,,,,,,,,,,,,,5,1.067,1,,,,,,-0.328703704,-0.391666695,1,0,0,1.0674,Obsidian_rect,9,0,9,0,1,
65a29cdffc75f965e7fbcdc7,SCR,2024-06-24_12h18.31.608,LearnStrategy,2023.2.3,Win32,59.88023952,7,2,11,,,,,,,,4,01,,,,,,,,,,,,,7,4.084,0,,,,,,0.095370399,-0.412037037,1,0,0,4.0837,Peridotite_rect,10,0,10,0,1,
65a29cdffc75f965e7fbcdc7,SCR,2024-06-24_12h18.31.608,LearnStrategy,2023.2.3,Win32,59.88023952,7,2,12,,,,,,,,3,12,,,,,,,,,,,,,3,3.052,1,,,,,,0.087962963,-0.251851894,1,0,0,3.0523,Diorite_rect,11,0,11,0,1,
65a29cdffc75f965e7fbcdc7,SCR,2024-06-24_12h18.31.608,LearnStrategy,2023.2.3,Win32,59.88023952,7,2,13,,,,,,,,3,02,,,,,,,,,,,,,1,2.317,0,,,,,,-0.359259252,-0.264814801,1,0,0,2.3174,Andesite_rect,12,0,12,0,1,
65a29cdffc75f965e7fbcdc7,SCR,2024-06-24_12h18.31.608,LearnStrategy,2023.2.3,Win32,59.88023952,7,2,14,,,,,,,,6,15,,,,,,,,,,,,,6,2.005,1,,,,,,-0.097222222,-0.392592607,1,0,0,2.0048,Pegmatite_rect,13,0,13,0,1,
65a29cdffc75f965e7fbcdc7,SCR,2024-06-24_12h18.31.608,LearnStrategy,2023.2.3,Win32,59.88023952,7,2,15,,,,,,,,8,06,,,,,,,,,,,,,8,1.176,1,,,,,,0.343518575,-0.411111125,1,0,0,1.1763,Pumice_rect,14,0,14,0,1,
65a29cdffc75f965e7fbcdc7,SCR,2024-06-24_12h18.31.608,LearnStrategy,2023.2.3,Win32,59.88023952,7,2,16,,,,,,,,2,02,,,,,,,,,,,,,2,2.807,1,,,,,,-0.091666681,-0.240740741,1,0,0,2.8075,Basalt_rect,15,0,15,0,1,
65a29cdffc75f965e7fbcdc7,SCR,2024-06-24_12h18.31.608,LearnStrategy,2023.2.3,Win32,59.88023952,8,1,1,-0.582407386,0.418518517,1,0,0,1.0319,Andesite_06,1,06,6,1,1.032,4,03,-0.413888896,-0.237037023,1,0,0,1.1229,Andesite_rect,1,1.123,1,0,0,0,0,1,,,,,,,,,,,,,
65a29cdffc75f965e7fbcdc7,SCR,2024-06-24_12h18.31.608,LearnStrategy,2023.2.3,Win32,59.88023952,8,1,2,0.248148176,0.391666668,1,0,0,1.1311,Andesite_10,1,10,6,6,1.131,1,02,-0.368518511,-0.24537037,1,0,0,1.2534,Andesite_rect,1,1.253,1,1,0,1,0,1,,,,,,,,,,,,,
65a29cdffc75f965e7fbcdc7,SCR,2024-06-24_12h18.31.608,LearnStrategy,2023.2.3,Win32,59.88023952,8,1,3,-0.576851845,0.26203703,1,0,0,1.241,Basalt_08,2,08,5,1,1.241,5,12,-0.15370369,-0.246296282,1,0,0,1.2297,Basalt_rect,2,1.23,1,2,0,2,0,1,,,,,,,,,,,,,
65a29cdffc75f965e7fbcdc7,SCR,2024-06-24_12h18.31.608,LearnStrategy,2023.2.3,Win32,59.88023952,8,1,4,-0.510185171,0.097222222,1,0,0,0.997,Peridotite_04,7,04,4,1,0.997,1,10,-0.187962921,-0.396296325,1,0,0,1.374,Pegmatite_rect,6,1.374,0,3,0,3,0,1,,,,,,,,,,,,,
65a29cdffc75f965e7fbcdc7,SCR,2024-06-24_12h18.31.608,LearnStrategy,2023.2.3,Win32,59.88023952,8,1,5,-0.3824074,-0.102777764,1,0,0,0.9314,Andesite_04,1,04,3,2,0.931,3,09,-0.166666667,-0.391666695,1,0,0,1.2513,Pegmatite_rect,6,1.251,0,4,0,4,0,1,,,,,,,,,,,,,
65a29cdffc75f965e7fbcdc7,SCR,2024-06-24_12h18.31.608,LearnStrategy,2023.2.3,Win32,59.88023952,8,1,6,-0.404629637,-0.080555563,1,0,0,0.7645,Andesite_04,1,04,3,2,0.764,1,11,-0.432407414,-0.231481481,1,0,0,0.8684,Andesite_rect,1,0.868,1,5,0,5,0,1,,,,,,,,,,,,,
65a29cdffc75f965e7fbcdc7,SCR,2024-06-24_12h18.31.608,LearnStrategy,2023.2.3,Win32,59.88023952,8,1,7,-0.080555527,-0.098148134,1,0,0,0.8637,Pegmatite_09,6,09,3,4,0.864,1,11,-0.083333333,-0.391666695,1,0,0,1.7132,Pegmatite_rect,6,1.713,1,6,0,6,0,1,,,,,,,,,,,,,
65a29cdffc75f965e7fbcdc7,SCR,2024-06-24_12h18.31.608,LearnStrategy,2023.2.3,Win32,59.88023952,8,1,8,-0.070370356,0.130555541,1,0,0,1.3135,Pegmatite_07,6,07,4,4,1.313,2,08,-0.162037037,-0.388888889,1,0,0,1.4366,Pegmatite_rect,6,1.437,1,7,0,7,0,1,,,,,,,,,,,,,
65a29cdffc75f965e7fbcdc7,SCR,2024-06-24_12h18.31.608,LearnStrategy,2023.2.3,Win32,59.88023952,8,1,9,-0.198148162,-0.102777764,1,0,0,1.4767,Gabbro_14,4,14,3,3,1.477,8,09,0.373148176,-0.248148176,1,0,0,1.313,Gabbro_rect,4,1.313,1,8,0,8,0,1,,,,,,,,,,,,,
65a29cdffc75f965e7fbcdc7,SCR,2024-06-24_12h18.31.608,LearnStrategy,2023.2.3,Win32,59.88023952,8,1,10,-0.251851824,-0.248148176,1,0,0,1.0959,Basalt_10,2,10,2,3,1.096,2,05,-0.16851849,-0.235185199,1,0,0,0.9759,Basalt_rect,2,0.976,1,9,0,9,0,1,,,,,,,,,,,,,
65a29cdffc75f965e7fbcdc7,SCR,2024-06-24_12h18.31.608,LearnStrategy,2023.2.3,Win32,59.88023952,8,1,11,0.243518547,-0.075000021,1,0,0,1.2135,Gabbro_03,4,03,3,6,1.214,3,14,-0.375925912,-0.239814829,1,0,0,2.1595,Andesite_rect,1,2.159,0,10,0,10,0,1,,,,,,,,,,,,,
65a29cdffc75f965e7fbcdc7,SCR,2024-06-24_12h18.31.608,LearnStrategy,2023.2.3,Win32,59.88023952,8,1,12,0.247222265,-0.063888903,1,0,0,0.6463,Gabbro_03,4,03,3,6,0.646,3,10,0.395370342,-0.253703718,1,0,0,1.1629,Gabbro_rect,4,1.163,1,11,0,11,0,1,,,,,,,,,,,,,
65a29cdffc75f965e7fbcdc7,SCR,2024-06-24_12h18.31.608,LearnStrategy,2023.2.3,Win32,59.88023952,8,1,13,0.240740741,-0.072222215,1,0,0,1.0806,Gabbro_03,4,03,3,6,1.081,7,14,0.395370342,-0.239814829,1,0,0,1.2249,Gabbro_rect,4,1.225,1,12,0,12,0,1,,,,,,,,,,,,,
65a29cdffc75f965e7fbcdc7,SCR,2024-06-24_12h18.31.608,LearnStrategy,2023.2.3,Win32,59.88023952,8,1,14,0.40370376,-0.097222222,1,0,0,0.9623,Diorite_15,3,15,3,7,0.962,6,07,0.405555584,-0.25462963,1,0,0,1.0588,Gabbro_rect,4,1.059,0,13,0,13,0,1,,,,,,,,,,,,,
65a29cdffc75f965e7fbcdc7,SCR,2024-06-24_12h18.31.608,LearnStrategy,2023.2.3,Win32,59.88023952,8,1,15,0.373148176,-0.075925933,1,0,0,0.9306,Diorite_15,3,15,3,7,0.931,3,09,0.162037037,-0.24537037,1,0,0,0.9346,Diorite_rect,3,0.935,1,14,0,14,0,1,,,,,,,,,,,,,
65a29cdffc75f965e7fbcdc7,SCR,2024-06-24_12h18.31.608,LearnStrategy,2023.2.3,Win32,59.88023952,8,1,16,0.248148176,-0.232407393,1,0,0,1.1628,Diorite_14,3,14,2,6,1.163,4,14,0.173148191,-0.232407393,1,0,0,0.6322,Diorite_rect,3,0.632,1,15,0,15,0,1,,,,,,,,,,,,,
65a29cdffc75f965e7fbcdc7,SCR,2024-06-24_12h18.31.608,LearnStrategy,2023.2.3,Win32,59.88023952,8,2,1,,,,,,,,3,11,,,,,,,,,,,,,3,1.359,1,,,,,,0.141666695,-0.239814829,1,0,0,1.3586,Diorite_rect,0,0,0,0,1,
65a29cdffc75f965e7fbcdc7,SCR,2024-06-24_12h18.31.608,LearnStrategy,2023.2.3,Win32,59.88023952,8,2,2,,,,,,,,8,03,,,,,,,,,,,,,8,1.187,1,,,,,,0.346296381,-0.385185171,1,0,0,1.1871,Pumice_rect,1,0,1,0,1,
65a29cdffc75f965e7fbcdc7,SCR,2024-06-24_12h18.31.608,LearnStrategy,2023.2.3,Win32,59.88023952,8,2,3,,,,,,,,7,02,,,,,,,,,,,,,7,1.115,1,,,,,,0.135185171,-0.406481496,1,0,0,1.1151,Peridotite_rect,2,0,2,0,1,
65a29cdffc75f965e7fbcdc7,SCR,2024-06-24_12h18.31.608,LearnStrategy,2023.2.3,Win32,59.88023952,8,2,4,,,,,,,,8,04,,,,,,,,,,,,,8,1.122,1,,,,,,0.335185157,-0.395370413,1,0,0,1.1219,Pumice_rect,3,0,3,0,1,
65a29cdffc75f965e7fbcdc7,SCR,2024-06-24_12h18.31.608,LearnStrategy,2023.2.3,Win32,59.88023952,8,2,5,,,,,,,,4,16,,,,,,,,,,,,,4,4.84,1,,,,,,0.396296325,-0.268518519,1,0,0,4.84,Gabbro_rect,4,0,4,0,1,
65a29cdffc75f965e7fbcdc7,SCR,2024-06-24_12h18.31.608,LearnStrategy,2023.2.3,Win32,59.88023952,8,2,6,,,,,,,,4,13,,,,,,,,,,,,,1,3.483,0,,,,,,-0.354629623,-0.243518547,1,0,0,3.4834,Andesite_rect,5,0,5,0,1,
65a29cdffc75f965e7fbcdc7,SCR,2024-06-24_12h18.31.608,LearnStrategy,2023.2.3,Win32,59.88023952,8,2,7,,,,,,,,1,01,,,,,,,,,,,,,1,4.165,1,,,,,,-0.341666645,-0.244444459,1,0,0,4.1654,Andesite_rect,6,0,6,0,1,
65a29cdffc75f965e7fbcdc7,SCR,2024-06-24_12h18.31.608,LearnStrategy,2023.2.3,Win32,59.88023952,8,2,8,,,,,,,,7,16,,,,,,,,,,,,,7,1.39,1,,,,,,0.119444459,-0.412962949,1,0,0,1.3904,Peridotite_rect,7,0,7,0,1,
65a29cdffc75f965e7fbcdc7,SCR,2024-06-24_12h18.31.608,LearnStrategy,2023.2.3,Win32,59.88023952,8,2,9,,,,,,,,2,14,,,,,,,,,,,,,4,8.673,0,,,,,,0.351851852,-0.270370413,1,0,0,8.6727,Gabbro_rect,8,0,8,0,1,
65a29cdffc75f965e7fbcdc7,SCR,2024-06-24_12h18.31.608,LearnStrategy,2023.2.3,Win32,59.88023952,8,2,10,,,,,,,,6,13,,,,,,,,,,,,,6,4.238,1,,,,,,-0.122222194,-0.412037037,1,0,0,4.2377,Pegmatite_rect,9,0,9,0,1,
65a29cdffc75f965e7fbcdc7,SCR,2024-06-24_12h18.31.608,LearnStrategy,2023.2.3,Win32,59.88023952,8,2,11,,,,,,,,6,06,,,,,,,,,,,,,6,10.177,1,,,,,,-0.125925912,-0.387962977,1,0,0,10.1773,Pegmatite_rect,10,0,10,0,1,
65a29cdffc75f965e7fbcdc7,SCR,2024-06-24_12h18.31.608,LearnStrategy,2023.2.3,Win32,59.88023952,8,2,12,,,,,,,,5,04,,,,,,,,,,,,,5,1.837,1,,,,,,-0.36296297,-0.400000042,1,0,0,1.8373,Obsidian_rect,11,0,11,0,1,
65a29cdffc75f965e7fbcdc7,SCR,2024-06-24_12h18.31.608,LearnStrategy,2023.2.3,Win32,59.88023952,8,2,13,,,,,,,,2,01,,,,,,,,,,,,,2,2.188,1,,,,,,-0.10555557,-0.240740741,1,0,0,2.1879,Basalt_rect,12,0,12,0,1,
65a29cdffc75f965e7fbcdc7,SCR,2024-06-24_12h18.31.608,LearnStrategy,2023.2.3,Win32,59.88023952,8,2,14,,,,,,,,5,08,,,,,,,,,,,,,5,1.211,1,,,,,,-0.375,-0.400000042,1,0,0,1.2106,Obsidian_rect,13,0,13,0,1,
65a29cdffc75f965e7fbcdc7,SCR,2024-06-24_12h18.31.608,LearnStrategy,2023.2.3,Win32,59.88023952,8,2,15,,,,,,,,3,07,,,,,,,,,,,,,1,3.141,0,,,,,,-0.349074081,-0.252777806,1,0,0,3.1415,Andesite_rect,14,0,14,0,1,
65a29cdffc75f965e7fbcdc7,SCR,2024-06-24_12h18.31.608,LearnStrategy,2023.2.3,Win32,59.88023952,8,2,16,,,,,,,,1,05,,,,,,,,,,,,,7,1.187,0,,,,,,0.106481481,-0.395370413,1,0,0,1.1868,Peridotite_rect,15,0,15,0,1,
65a29cdffc75f965e7fbcdc7,SCR,2024-06-24_12h18.31.608,LearnStrategy,2023.2.3,Win32,59.88023952,9,1,1,0.251851894,0.38148148,1,0,0,1.2142,Andesite_10,1,10,6,6,1.214,1,06,-0.326851845,-0.228703746,1,0,0,2.2943,Andesite_rect,1,2.294,1,0,0,0,0,1,,,,,,,,,,,,,
65a29cdffc75f965e7fbcdc7,SCR,2024-06-24_12h18.31.608,LearnStrategy,2023.2.3,Win32,59.88023952,9,1,2,-0.570370356,0.38148148,1,0,0,0.9132,Andesite_06,1,06,6,1,0.913,2,05,-0.413888896,-0.251851894,1,0,0,1.2454,Andesite_rect,1,1.245,1,1,0,1,0,1,,,,,,,,,,,,,
65a29cdffc75f965e7fbcdc7,SCR,2024-06-24_12h18.31.608,LearnStrategy,2023.2.3,Win32,59.88023952,9,1,3,-0.058333291,0.412037037,1,0,0,1.2134,Pegmatite_16,6,16,6,4,1.213,1,11,-0.180555556,-0.421296296,1,0,0,1.2263,Pegmatite_rect,6,1.226,1,2,0,2,0,1,,,,,,,,,,,,,
65a29cdffc75f965e7fbcdc7,SCR,2024-06-24_12h18.31.608,LearnStrategy,2023.2.3,Win32,59.88023952,9,1,4,-0.056481467,0.091666645,1,0,0,0.714,Pegmatite_07,6,07,4,4,0.714,3,14,-0.130555541,-0.390740783,1,0,0,1.489,Pegmatite_rect,6,1.489,1,3,0,3,0,1,,,,,,,,,,,,,
65a29cdffc75f965e7fbcdc7,SCR,2024-06-24_12h18.31.608,LearnStrategy,2023.2.3,Win32,59.88023952,9,1,5,0.237037023,0.073148127,1,0,0,0.7812,Pumice_13,8,13,4,6,0.781,1,04,0.352777834,-0.393518519,1,0,0,1.0407,Pumice_rect,8,1.041,1,4,0,4,0,1,,,,,,,,,,,,,
65a29cdffc75f965e7fbcdc7,SCR,2024-06-24_12h18.31.608,LearnStrategy,2023.2.3,Win32,59.88023952,9,1,6,0.560185185,0.363888891,1,0,0,1.3787,Basalt_16,2,16,6,8,1.379,3,10,0.410185213,-0.236111111,1,0,0,1.3423,Gabbro_rect,4,1.342,0,5,0,5,0,1,,,,,,,,,,,,,
65a29cdffc75f965e7fbcdc7,SCR,2024-06-24_12h18.31.608,LearnStrategy,2023.2.3,Win32,59.88023952,9,1,7,0.253703718,0.239814811,1,0,0,1.0309,Gabbro_10,4,10,5,6,1.031,2,05,0.387037065,-0.234259288,1,0,0,1.4075,Gabbro_rect,4,1.408,1,6,0,6,0,1,,,,,,,,,,,,,
65a29cdffc75f965e7fbcdc7,SCR,2024-06-24_12h18.31.608,LearnStrategy,2023.2.3,Win32,59.88023952,9,1,8,0.368518547,-0.384259259,1,0,0,1.2402,Basalt_04,2,04,1,7,1.24,6,03,-0.121296282,-0.236111111,1,0,0,1.051,Basalt_rect,2,1.051,1,7,0,7,0,1,,,,,,,,,,,,,
65a29cdffc75f965e7fbcdc7,SCR,2024-06-24_12h18.31.608,LearnStrategy,2023.2.3,Win32,59.88023952,9,1,9,-0.354629623,-0.094444487,1,0,0,1.6456,Andesite_04,1,04,3,2,1.646,2,09,-0.155555513,-0.411111125,1,0,0,2.1135,Pegmatite_rect,6,2.113,0,8,0,8,0,1,,,,,,,,,,,,,
65a29cdffc75f965e7fbcdc7,SCR,2024-06-24_12h18.31.608,LearnStrategy,2023.2.3,Win32,59.88023952,9,1,10,-0.416666667,-0.10092594,1,0,0,0.8207,Andesite_04,1,04,3,2,0.821,7,07,-0.452777757,-0.236111111,1,0,0,0.5323,Andesite_rect,1,0.532,1,9,0,9,0,1,,,,,,,,,,,,,
65a29cdffc75f965e7fbcdc7,SCR,2024-06-24_12h18.31.608,LearnStrategy,2023.2.3,Win32,59.88023952,9,1,11,-0.552777785,-0.097222222,1,0,0,0.7634,Peridotite_14,7,14,3,1,0.763,1,09,0.098148134,-0.406481496,1,0,0,1.2472,Peridotite_rect,7,1.247,1,10,0,10,0,1,,,,,,,,,,,,,
65a29cdffc75f965e7fbcdc7,SCR,2024-06-24_12h18.31.608,LearnStrategy,2023.2.3,Win32,59.88023952,9,1,12,-0.37037037,-0.26944443,1,0,0,1.0632,Andesite_02,1,02,2,2,1.063,3,09,-0.3675926,-0.258333347,1,0,0,0.9238,Andesite_rect,1,0.924,1,11,0,11,0,1,,,,,,,,,,,,,
65a29cdffc75f965e7fbcdc7,SCR,2024-06-24_12h18.31.608,LearnStrategy,2023.2.3,Win32,59.88023952,9,1,13,-0.373148141,-0.410185213,1,0,0,1.2471,Peridotite_05,7,05,1,2,1.247,4,03,-0.148148148,-0.413888931,1,0,0,1.0086,Pegmatite_rect,6,1.009,0,12,0,12,0,1,,,,,,,,,,,,,
65a29cdffc75f965e7fbcdc7,SCR,2024-06-24_12h18.31.608,LearnStrategy,2023.2.3,Win32,59.88023952,9,1,14,-0.508333312,-0.389814801,1,0,0,1.2468,Peridotite_12,7,12,1,1,1.247,3,15,0.05740745,-0.37962963,1,0,0,1.4404,Peridotite_rect,7,1.44,1,13,0,13,0,1,,,,,,,,,,,,,
65a29cdffc75f965e7fbcdc7,SCR,2024-06-24_12h18.31.608,LearnStrategy,2023.2.3,Win32,59.88023952,9,1,15,0.264814801,-0.23055557,1,0,0,0.8802,Diorite_14,3,14,2,6,0.88,8,10,-0.363888882,-0.243518547,1,0,0,2.1855,Andesite_rect,1,2.185,0,14,0,14,0,1,,,,,,,,,,,,,
65a29cdffc75f965e7fbcdc7,SCR,2024-06-24_12h18.31.608,LearnStrategy,2023.2.3,Win32,59.88023952,9,1,16,0.204629616,-0.087037051,1,0,0,1.2596,Gabbro_03,4,03,3,6,1.26,4,03,-0.102777764,-0.241666653,1,0,0,1.3944,Basalt_rect,2,1.394,0,15,0,15,0,1,,,,,,,,,,,,,
65a29cdffc75f965e7fbcdc7,SCR,2024-06-24_12h18.31.608,LearnStrategy,2023.2.3,Win32,59.88023952,9,2,1,,,,,,,,4,15,,,,,,,,,,,,,4,1.964,1,,,,,,0.3648149,-0.228703746,1,0,0,1.9636,Gabbro_rect,0,0,0,0,1,
65a29cdffc75f965e7fbcdc7,SCR,2024-06-24_12h18.31.608,LearnStrategy,2023.2.3,Win32,59.88023952,9,2,2,,,,,,,,8,15,,,,,,,,,,,,,8,1.178,1,,,,,,0.330555527,-0.406481496,1,0,0,1.1782,Pumice_rect,1,0,1,0,1,
65a29cdffc75f965e7fbcdc7,SCR,2024-06-24_12h18.31.608,LearnStrategy,2023.2.3,Win32,59.88023952,9,2,3,,,,,,,,5,16,,,,,,,,,,,,,5,1.242,1,,,,,,-0.39444443,-0.391666695,1,0,0,1.2417,Obsidian_rect,2,0,2,0,1,
65a29cdffc75f965e7fbcdc7,SCR,2024-06-24_12h18.31.608,LearnStrategy,2023.2.3,Win32,59.88023952,9,2,4,,,,,,,,3,06,,,,,,,,,,,,,3,4.519,1,,,,,,0.094444487,-0.257407436,1,0,0,4.5194,Diorite_rect,3,0,3,0,1,
65a29cdffc75f965e7fbcdc7,SCR,2024-06-24_12h18.31.608,LearnStrategy,2023.2.3,Win32,59.88023952,9,2,5,,,,,,,,6,10,,,,,,,,,,,,,6,4.564,1,,,,,,-0.064814815,-0.391666695,1,0,0,4.5644,Pegmatite_rect,4,0,4,0,1,
65a29cdffc75f965e7fbcdc7,SCR,2024-06-24_12h18.31.608,LearnStrategy,2023.2.3,Win32,59.88023952,9,2,6,,,,,,,,1,16,,,,,,,,,,,,,3,1.639,0,,,,,,0.130555541,-0.260185171,1,0,0,1.639,Diorite_rect,5,0,5,0,1,
65a29cdffc75f965e7fbcdc7,SCR,2024-06-24_12h18.31.608,LearnStrategy,2023.2.3,Win32,59.88023952,9,2,7,,,,,,,,2,11,,,,,,,,,,,,,8,1.311,0,,,,,,0.348148205,-0.406481496,1,0,0,1.3108,Pumice_rect,6,0,6,0,1,
65a29cdffc75f965e7fbcdc7,SCR,2024-06-24_12h18.31.608,LearnStrategy,2023.2.3,Win32,59.88023952,9,2,8,,,,,,,,8,05,,,,,,,,,,,,,8,1.165,1,,,,,,0.330555527,-0.388888889,1,0,0,1.1645,Pumice_rect,7,0,7,0,1,
65a29cdffc75f965e7fbcdc7,SCR,2024-06-24_12h18.31.608,LearnStrategy,2023.2.3,Win32,59.88023952,9,2,9,,,,,,,,2,12,,,,,,,,,,,,,8,0.897,0,,,,,,0.330555527,-0.388888889,1,0,0,0.8968,Pumice_rect,8,0,8,0,1,
65a29cdffc75f965e7fbcdc7,SCR,2024-06-24_12h18.31.608,LearnStrategy,2023.2.3,Win32,59.88023952,9,2,10,,,,,,,,7,06,,,,,,,,,,,,,7,1.185,1,,,,,,0.14907406,-0.39907406,1,0,0,1.1852,Peridotite_rect,9,0,9,0,1,
65a29cdffc75f965e7fbcdc7,SCR,2024-06-24_12h18.31.608,LearnStrategy,2023.2.3,Win32,59.88023952,9,2,11,,,,,,,,1,14,,,,,,,,,,,,,3,3.812,0,,,,,,0.074074074,-0.261111153,1,0,0,3.8121,Diorite_rect,10,0,10,0,1,
65a29cdffc75f965e7fbcdc7,SCR,2024-06-24_12h18.31.608,LearnStrategy,2023.2.3,Win32,59.88023952,9,2,12,,,,,,,,4,12,,,,,,,,,,,,,2,1.263,0,,,,,,-0.112037023,-0.258333347,1,0,0,1.2631,Basalt_rect,11,0,11,0,1,
65a29cdffc75f965e7fbcdc7,SCR,2024-06-24_12h18.31.608,LearnStrategy,2023.2.3,Win32,59.88023952,9,2,13,,,,,,,,5,02,,,,,,,,,,,,,5,1.114,1,,,,,,-0.326851845,-0.387962977,1,0,0,1.1142,Obsidian_rect,12,0,12,0,1,
65a29cdffc75f965e7fbcdc7,SCR,2024-06-24_12h18.31.608,LearnStrategy,2023.2.3,Win32,59.88023952,9,2,14,,,,,,,,6,05,,,,,,,,,,,,,3,7.577,0,,,,,,0.196296339,-0.259259259,1,0,0,7.5765,Diorite_rect,13,0,13,0,1,
65a29cdffc75f965e7fbcdc7,SCR,2024-06-24_12h18.31.608,LearnStrategy,2023.2.3,Win32,59.88023952,9,2,15,,,,,,,,3,16,,,,,,,,,,,,,1,2.627,0,,,,,,-0.337037016,-0.240740741,1,0,0,2.6267,Andesite_rect,14,0,14,0,1,
65a29cdffc75f965e7fbcdc7,SCR,2024-06-24_12h18.31.608,LearnStrategy,2023.2.3,Win32,59.88023952,9,2,16,,,,,,,,7,10,,,,,,,,,,,,,7,1.153,1,,,,,,0.099074116,-0.401851866,1,0,0,1.153,Peridotite_rect,15,0,15,0,1,
65a29cdffc75f965e7fbcdc7,SCR,2024-06-24_12h18.31.608,LearnStrategy,2023.2.3,Win32,59.88023952,,,,,,,,,,,,,,,,,,,,,,,,,,,,,,,,,,,,,,,,,,,,,1
65a29cdffc75f965e7fbcdc7,SCR,2024-06-24_12h18.31.608,LearnStrategy,2023.2.3,Win32,59.88023952,,,,,,,,,,,,,,,,,,,,,,,,,,,,,,,,,,,,,,,,,,,,,
65a29cdffc75f965e7fbcdc7,SCR,2024-06-24_12h18.31.608,LearnStrategy,2023.2.3,Win32,59.88023952,,,,,,,,,,,7,12,1,1,,,,,,,,,,,,,,,,,,,,,,,,,,,,,,,
65a29cdffc75f965e7fbcdc7,SCR,2024-06-24_12h18.31.608,LearnStrategy,2023.2.3,Win32,59.88023952,,,,,,,,,,,7,05,1,2,,,,,,,,,,,,,,,,,,,,,,,,,,,,,,,
65a29cdffc75f965e7fbcdc7,SCR,2024-06-24_12h18.31.608,LearnStrategy,2023.2.3,Win32,59.88023952,,,,,,,,,,,3,08,1,3,,,,,,,,,,,,,,,,,,,,,,,,,,,,,,,
65a29cdffc75f965e7fbcdc7,SCR,2024-06-24_12h18.31.608,LearnStrategy,2023.2.3,Win32,59.88023952,,,,,,,,,,,3,13,1,4,,,,,,,,,,,,,,,,,,,,,,,,,,,,,,,
65a29cdffc75f965e7fbcdc7,SCR,2024-06-24_12h18.31.608,LearnStrategy,2023.2.3,Win32,59.88023952,,,,,,,,,,,8,09,1,5,,,,,,,,,,,,,,,,,,,,,,,,,,,,,,,
65a29cdffc75f965e7fbcdc7,SCR,2024-06-24_12h18.31.608,LearnStrategy,2023.2.3,Win32,59.88023952,,,,,,,,,,,5,11,1,6,,,,,,,,,,,,,,,,,,,,,,,,,,,,,,,
65a29cdffc75f965e7fbcdc7,SCR,2024-06-24_12h18.31.608,LearnStrategy,2023.2.3,Win32,59.88023952,,,,,,,,,,,2,04,1,7,,,,,,,,,,,,,,,,,,,,,,,,,,,,,,,
65a29cdffc75f965e7fbcdc7,SCR,2024-06-24_12h18.31.608,LearnStrategy,2023.2.3,Win32,59.88023952,,,,,,,,,,,2,09,1,8,,,,,,,,,,,,,,,,,,,,,,,,,,,,,,,
65a29cdffc75f965e7fbcdc7,SCR,2024-06-24_12h18.31.608,LearnStrategy,2023.2.3,Win32,59.88023952,,,,,,,,,,,3,09,2,1,,,,,,,,,,,,,,,,,,,,,,,,,,,,,,,
65a29cdffc75f965e7fbcdc7,SCR,2024-06-24_12h18.31.608,LearnStrategy,2023.2.3,Win32,59.88023952,,,,,,,,,,,1,02,2,2,,,,,,,,,,,,,,,,,,,,,,,,,,,,,,,
65a29cdffc75f965e7fbcdc7,SCR,2024-06-24_12h18.31.608,LearnStrategy,2023.2.3,Win32,59.88023952,,,,,,,,,,,2,10,2,3,,,,,,,,,,,,,,,,,,,,,,,,,,,,,,,
65a29cdffc75f965e7fbcdc7,SCR,2024-06-24_12h18.31.608,LearnStrategy,2023.2.3,Win32,59.88023952,,,,,,,,,,,4,08,2,4,,,,,,,,,,,,,,,,,,,,,,,,,,,,,,,
65a29cdffc75f965e7fbcdc7,SCR,2024-06-24_12h18.31.608,LearnStrategy,2023.2.3,Win32,59.88023952,,,,,,,,,,,5,09,2,5,,,,,,,,,,,,,,,,,,,,,,,,,,,,,,,
65a29cdffc75f965e7fbcdc7,SCR,2024-06-24_12h18.31.608,LearnStrategy,2023.2.3,Win32,59.88023952,,,,,,,,,,,3,14,2,6,,,,,,,,,,,,,,,,,,,,,,,,,,,,,,,
65a29cdffc75f965e7fbcdc7,SCR,2024-06-24_12h18.31.608,LearnStrategy,2023.2.3,Win32,59.88023952,,,,,,,,,,,5,07,2,7,,,,,,,,,,,,,,,,,,,,,,,,,,,,,,,
65a29cdffc75f965e7fbcdc7,SCR,2024-06-24_12h18.31.608,LearnStrategy,2023.2.3,Win32,59.88023952,,,,,,,,,,,7,07,2,8,,,,,,,,,,,,,,,,,,,,,,,,,,,,,,,
65a29cdffc75f965e7fbcdc7,SCR,2024-06-24_12h18.31.608,LearnStrategy,2023.2.3,Win32,59.88023952,,,,,,,,,,,7,14,3,1,,,,,,,,,,,,,,,,,,,,,,,,,,,,,,,
65a29cdffc75f965e7fbcdc7,SCR,2024-06-24_12h18.31.608,LearnStrategy,2023.2.3,Win32,59.88023952,,,,,,,,,,,1,04,3,2,,,,,,,,,,,,,,,,,,,,,,,,,,,,,,,
65a29cdffc75f965e7fbcdc7,SCR,2024-06-24_12h18.31.608,LearnStrategy,2023.2.3,Win32,59.88023952,,,,,,,,,,,4,14,3,3,,,,,,,,,,,,,,,,,,,,,,,,,,,,,,,
65a29cdffc75f965e7fbcdc7,SCR,2024-06-24_12h18.31.608,LearnStrategy,2023.2.3,Win32,59.88023952,,,,,,,,,,,6,09,3,4,,,,,,,,,,,,,,,,,,,,,,,,,,,,,,,
65a29cdffc75f965e7fbcdc7,SCR,2024-06-24_12h18.31.608,LearnStrategy,2023.2.3,Win32,59.88023952,,,,,,,,,,,7,13,3,5,,,,,,,,,,,,,,,,,,,,,,,,,,,,,,,
65a29cdffc75f965e7fbcdc7,SCR,2024-06-24_12h18.31.608,LearnStrategy,2023.2.3,Win32,59.88023952,,,,,,,,,,,4,03,3,6,,,,,,,,,,,,,,,,,,,,,,,,,,,,,,,
65a29cdffc75f965e7fbcdc7,SCR,2024-06-24_12h18.31.608,LearnStrategy,2023.2.3,Win32,59.88023952,,,,,,,,,,,3,15,3,7,,,,,,,,,,,,,,,,,,,,,,,,,,,,,,,
65a29cdffc75f965e7fbcdc7,SCR,2024-06-24_12h18.31.608,LearnStrategy,2023.2.3,Win32,59.88023952,,,,,,,,,,,8,10,3,8,,,,,,,,,,,,,,,,,,,,,,,,,,,,,,,
65a29cdffc75f965e7fbcdc7,SCR,2024-06-24_12h18.31.608,LearnStrategy,2023.2.3,Win32,59.88023952,,,,,,,,,,,7,04,4,1,,,,,,,,,,,,,,,,,,,,,,,,,,,,,,,
65a29cdffc75f965e7fbcdc7,SCR,2024-06-24_12h18.31.608,LearnStrategy,2023.2.3,Win32,59.88023952,,,,,,,,,,,1,09,4,2,,,,,,,,,,,,,,,,,,,,,,,,,,,,,,,
65a29cdffc75f965e7fbcdc7,SCR,2024-06-24_12h18.31.608,LearnStrategy,2023.2.3,Win32,59.88023952,,,,,,,,,,,5,12,4,3,,,,,,,,,,,,,,,,,,,,,,,,,,,,,,,
65a29cdffc75f965e7fbcdc7,SCR,2024-06-24_12h18.31.608,LearnStrategy,2023.2.3,Win32,59.88023952,,,,,,,,,,,6,07,4,4,,,,,,,,,,,,,,,,,,,,,,,,,,,,,,,
65a29cdffc75f965e7fbcdc7,SCR,2024-06-24_12h18.31.608,LearnStrategy,2023.2.3,Win32,59.88023952,,,,,,,,,,,8,14,4,5,,,,,,,,,,,,,,,,,,,,,,,,,,,,,,,
65a29cdffc75f965e7fbcdc7,SCR,2024-06-24_12h18.31.608,LearnStrategy,2023.2.3,Win32,59.88023952,,,,,,,,,,,8,13,4,6,,,,,,,,,,,,,,,,,,,,,,,,,,,,,,,
65a29cdffc75f965e7fbcdc7,SCR,2024-06-24_12h18.31.608,LearnStrategy,2023.2.3,Win32,59.88023952,,,,,,,,,,,1,11,4,7,,,,,,,,,,,,,,,,,,,,,,,,,,,,,,,
65a29cdffc75f965e7fbcdc7,SCR,2024-06-24_12h18.31.608,LearnStrategy,2023.2.3,Win32,59.88023952,,,,,,,,,,,4,05,4,8,,,,,,,,,,,,,,,,,,,,,,,,,,,,,,,
65a29cdffc75f965e7fbcdc7,SCR,2024-06-24_12h18.31.608,LearnStrategy,2023.2.3,Win32,59.88023952,,,,,,,,,,,2,08,5,1,,,,,,,,,,,,,,,,,,,,,,,,,,,,,,,
65a29cdffc75f965e7fbcdc7,SCR,2024-06-24_12h18.31.608,LearnStrategy,2023.2.3,Win32,59.88023952,,,,,,,,,,,6,08,5,2,,,,,,,,,,,,,,,,,,,,,,,,,,,,,,,
65a29cdffc75f965e7fbcdc7,SCR,2024-06-24_12h18.31.608,LearnStrategy,2023.2.3,Win32,59.88023952,,,,,,,,,,,6,12,5,3,,,,,,,,,,,,,,,,,,,,,,,,,,,,,,,
65a29cdffc75f965e7fbcdc7,SCR,2024-06-24_12h18.31.608,LearnStrategy,2023.2.3,Win32,59.88023952,,,,,,,,,,,8,16,5,4,,,,,,,,,,,,,,,,,,,,,,,,,,,,,,,
65a29cdffc75f965e7fbcdc7,SCR,2024-06-24_12h18.31.608,LearnStrategy,2023.2.3,Win32,59.88023952,,,,,,,,,,,5,14,5,5,,,,,,,,,,,,,,,,,,,,,,,,,,,,,,,
65a29cdffc75f965e7fbcdc7,SCR,2024-06-24_12h18.31.608,LearnStrategy,2023.2.3,Win32,59.88023952,,,,,,,,,,,4,10,5,6,,,,,,,,,,,,,,,,,,,,,,,,,,,,,,,
65a29cdffc75f965e7fbcdc7,SCR,2024-06-24_12h18.31.608,LearnStrategy,2023.2.3,Win32,59.88023952,,,,,,,,,,,5,06,5,7,,,,,,,,,,,,,,,,,,,,,,,,,,,,,,,
65a29cdffc75f965e7fbcdc7,SCR,2024-06-24_12h18.31.608,LearnStrategy,2023.2.3,Win32,59.88023952,,,,,,,,,,,2,05,5,8,,,,,,,,,,,,,,,,,,,,,,,,,,,,,,,
65a29cdffc75f965e7fbcdc7,SCR,2024-06-24_12h18.31.608,LearnStrategy,2023.2.3,Win32,59.88023952,,,,,,,,,,,1,06,6,1,,,,,,,,,,,,,,,,,,,,,,,,,,,,,,,
65a29cdffc75f965e7fbcdc7,SCR,2024-06-24_12h18.31.608,LearnStrategy,2023.2.3,Win32,59.88023952,,,,,,,,,,,8,08,6,2,,,,,,,,,,,,,,,,,,,,,,,,,,,,,,,
65a29cdffc75f965e7fbcdc7,SCR,2024-06-24_12h18.31.608,LearnStrategy,2023.2.3,Win32,59.88023952,,,,,,,,,,,3,10,6,3,,,,,,,,,,,,,,,,,,,,,,,,,,,,,,,
65a29cdffc75f965e7fbcdc7,SCR,2024-06-24_12h18.31.608,LearnStrategy,2023.2.3,Win32,59.88023952,,,,,,,,,,,6,16,6,4,,,,,,,,,,,,,,,,,,,,,,,,,,,,,,,
65a29cdffc75f965e7fbcdc7,SCR,2024-06-24_12h18.31.608,LearnStrategy,2023.2.3,Win32,59.88023952,,,,,,,,,,,4,09,6,5,,,,,,,,,,,,,,,,,,,,,,,,,,,,,,,
65a29cdffc75f965e7fbcdc7,SCR,2024-06-24_12h18.31.608,LearnStrategy,2023.2.3,Win32,59.88023952,,,,,,,,,,,1,10,6,6,,,,,,,,,,,,,,,,,,,,,,,,,,,,,,,
65a29cdffc75f965e7fbcdc7,SCR,2024-06-24_12h18.31.608,LearnStrategy,2023.2.3,Win32,59.88023952,,,,,,,,,,,6,03,6,7,,,,,,,,,,,,,,,,,,,,,,,,,,,,,,,
65a29cdffc75f965e7fbcdc7,SCR,2024-06-24_12h18.31.608,LearnStrategy,2023.2.3,Win32,59.88023952,,,,,,,,,,,2,16,6,8,,,,,,,,,,,,,,,,,,,,,,,,,,,,,,,