participant,condition,date,expName,psychopyVersion,OS,frameRate,block,phase,trial,learn_mouse.x,learn_mouse.y,learn_mouse.leftButton,learn_mouse.midButton,learn_mouse.rightButton,learn_mouse.time,learn_mouse.clicked_name,cat,token,row,col,t_select,cat_rec,token_rec,cat_mouse_l.x,cat_mouse_l.y,cat_mouse_l.leftButton,cat_mouse_l.midButton,cat_mouse_l.rightButton,cat_mouse_l.time,cat_mouse_l.clicked_name,resp,t_resp,corr,train_trials.thisRepN,train_trials.thisTrialN,train_trials.thisN,train_trials.thisIndex,train_trials.ran,cat_mouse_t.x,cat_mouse_t.y,cat_mouse_t.leftButton,cat_mouse_t.midButton,cat_mouse_t.rightButton,cat_mouse_t.time,cat_mouse_t.clicked_name,test_trials.thisRepN,test_trials.thisTrialN,test_trials.thisN,test_trials.thisIndex,test_trials.ran,Bonus
65bfc33d79b5cd4ab0ff8a2c,SCR,2024-06-20_15h27.12.985,LearnStrategy,2023.2.3,Win32,163.9344262,,,,,,,,,,,,,,,,,,,,,,,,,,,,,,,,,,,,,,,,,,,,,
65bfc33d79b5cd4ab0ff8a2c,SCR,2024-06-20_15h27.12.985,LearnStrategy,2023.2.3,Win32,163.9344262,1,1,1,0.063888889,0.096296296,1,0,0,9.5208,Basalt_08,2,08,4,5,9.521,2,08,-0.12037037,-0.248148148,1,0,0,6.0823,Basalt_rect,2,6.082,1,0,0,0,0,1,,,,,,,,,,,,,
65bfc33d79b5cd4ab0ff8a2c,SCR,2024-06-20_15h27.12.985,LearnStrategy,2023.2.3,Win32,163.9344262,1,1,2,0.540740741,-0.081481481,1,0,0,6.3447,Peridotite_06,7,06,3,8,6.345,8,02,0.083333333,-0.380555556,1,0,0,5.0961,Peridotite_rect,7,5.096,1,1,0,1,0,1,,,,,,,,,,,,,
65bfc33d79b5cd4ab0ff8a2c,SCR,2024-06-20_15h27.12.985,LearnStrategy,2023.2.3,Win32,163.9344262,1,1,3,-0.231481481,-0.291666667,1,0,0,3.3202,Andesite_07,1,07,2,3,3.32,1,07,-0.30462963,-0.248148148,1,0,0,10.6374,Andesite_rect,1,10.637,1,2,0,2,0,1,,,,,,,,,,,,,
65bfc33d79b5cd4ab0ff8a2c,SCR,2024-06-20_15h27.12.985,LearnStrategy,2023.2.3,Win32,163.9344262,1,1,4,0.265740741,0.416666667,1,0,0,6.0716,Pegmatite_11,6,11,6,6,6.072,6,11,0.418518519,-0.249074074,1,0,0,6.6001,Gabbro_rect,4,6.6,0,3,0,3,0,1,,,,,,,,,,,,,
65bfc33d79b5cd4ab0ff8a2c,SCR,2024-06-20_15h27.12.985,LearnStrategy,2023.2.3,Win32,163.9344262,1,1,5,-0.075,0.251851852,1,0,0,1.7565,Diorite_07,3,07,5,4,1.757,3,10,0.081481481,-0.409259259,1,0,0,6.6621,Peridotite_rect,7,6.662,0,4,0,4,0,1,,,,,,,,,,,,,
65bfc33d79b5cd4ab0ff8a2c,SCR,2024-06-20_15h27.12.985,LearnStrategy,2023.2.3,Win32,163.9344262,1,1,6,0.237037037,0.118518519,1,0,0,1.1011,Diorite_14,3,14,4,6,1.101,3,14,0.210185185,-0.238888889,1,0,0,3.4479,Diorite_rect,3,3.448,1,5,0,5,0,1,,,,,,,,,,,,,
65bfc33d79b5cd4ab0ff8a2c,SCR,2024-06-20_15h27.12.985,LearnStrategy,2023.2.3,Win32,163.9344262,1,1,7,-0.234259259,0.421296296,1,0,0,1.0228,Pumice_06,8,06,6,3,1.023,8,06,0.361111111,-0.398148148,1,0,0,3.9234,Pumice_rect,8,3.923,1,6,0,6,0,1,,,,,,,,,,,,,
65bfc33d79b5cd4ab0ff8a2c,SCR,2024-06-20_15h27.12.985,LearnStrategy,2023.2.3,Win32,163.9344262,1,1,8,-0.509259259,0.424074074,1,0,0,1.1743,Basalt_12,2,12,6,1,1.174,2,12,0.34537037,-0.247222222,1,0,0,6.363,Gabbro_rect,4,6.363,0,7,0,7,0,1,,,,,,,,,,,,,
65bfc33d79b5cd4ab0ff8a2c,SCR,2024-06-20_15h27.12.985,LearnStrategy,2023.2.3,Win32,163.9344262,1,1,9,0.525925926,-0.075,1,0,0,1.3824,Peridotite_06,7,06,3,8,1.382,7,06,0.20462963,-0.413888889,1,0,0,3.7814,Peridotite_rect,7,3.781,1,8,0,8,0,1,,,,,,,,,,,,,
65bfc33d79b5cd4ab0ff8a2c,SCR,2024-06-20_15h27.12.985,LearnStrategy,2023.2.3,Win32,163.9344262,1,1,10,0.212962963,-0.113888889,1,0,0,0.9738,Obsidian_10,5,10,3,6,0.974,5,10,-0.355555556,-0.40462963,1,0,0,3.7967,Obsidian_rect,5,3.797,1,9,0,9,0,1,,,,,,,,,,,,,
65bfc33d79b5cd4ab0ff8a2c,SCR,2024-06-20_15h27.12.985,LearnStrategy,2023.2.3,Win32,163.9344262,1,1,11,0.597222222,0.085185185,1,0,0,0.9502,Peridotite_10,7,10,4,8,0.95,7,10,0.12962963,-0.241666667,1,0,0,2.9233,Diorite_rect,3,2.923,0,10,0,10,0,1,,,,,,,,,,,,,
65bfc33d79b5cd4ab0ff8a2c,SCR,2024-06-20_15h27.12.985,LearnStrategy,2023.2.3,Win32,163.9344262,1,1,12,-0.080555556,-0.268518519,1,0,0,0.9927,Pegmatite_09,6,09,2,4,0.993,6,09,0.127777778,-0.403703704,1,0,0,3.3527,Peridotite_rect,7,3.353,0,11,0,11,0,1,,,,,,,,,,,,,
65bfc33d79b5cd4ab0ff8a2c,SCR,2024-06-20_15h27.12.985,LearnStrategy,2023.2.3,Win32,163.9344262,1,1,13,0.061111111,-0.084259259,1,0,0,1.4292,Andesite_06,1,06,3,5,1.429,1,06,0.111111111,-0.25462963,1,0,0,4.8638,Diorite_rect,3,4.864,0,12,0,12,0,1,,,,,,,,,,,,,
65bfc33d79b5cd4ab0ff8a2c,SCR,2024-06-20_15h27.12.985,LearnStrategy,2023.2.3,Win32,163.9344262,1,1,14,0.421296296,0.246296296,1,0,0,30.4852,Obsidian_11,5,11,5,7,30.485,5,11,-0.4,-0.406481481,1,0,0,3.0942,Obsidian_rect,5,3.094,1,13,0,13,0,1,,,,,,,,,,,,,
65bfc33d79b5cd4ab0ff8a2c,SCR,2024-06-20_15h27.12.985,LearnStrategy,2023.2.3,Win32,163.9344262,1,1,15,0.381481481,0.427777778,1,0,0,0.9801,Gabbro_13,4,13,6,7,0.98,4,13,-0.383333333,-0.240740741,1,0,0,11.9971,Andesite_rect,1,11.997,0,14,0,14,0,1,,,,,,,,,,,,,
65bfc33d79b5cd4ab0ff8a2c,SCR,2024-06-20_15h27.12.985,LearnStrategy,2023.2.3,Win32,163.9344262,1,1,16,-0.225,0.100925926,1,0,0,0.7141,Gabbro_11,4,11,4,3,0.714,4,11,-0.358333333,-0.27037037,1,0,0,5.6763,Andesite_rect,1,5.676,0,15,0,15,0,1,,,,,,,,,,,,,
65bfc33d79b5cd4ab0ff8a2c,SCR,2024-06-20_15h27.12.985,LearnStrategy,2023.2.3,Win32,163.9344262,1,2,1,,,,,,,,6,10,,,,,,,,,,,,,7,7.22,0,,,,,,0.119444444,-0.413888889,1,0,0,7.2205,Peridotite_rect,0,0,0,0,1,
65bfc33d79b5cd4ab0ff8a2c,SCR,2024-06-20_15h27.12.985,LearnStrategy,2023.2.3,Win32,163.9344262,1,2,2,,,,,,,,7,12,,,,,,,,,,,,,3,8.645,0,,,,,,0.162962963,-0.249074074,1,0,0,8.6451,Diorite_rect,1,0,1,0,1,
65bfc33d79b5cd4ab0ff8a2c,SCR,2024-06-20_15h27.12.985,LearnStrategy,2023.2.3,Win32,163.9344262,1,2,3,,,,,,,,6,08,,,,,,,,,,,,,6,10.548,1,,,,,,-0.189814815,-0.407407407,1,0,0,10.5481,Pegmatite_rect,2,0,2,0,1,
65bfc33d79b5cd4ab0ff8a2c,SCR,2024-06-20_15h27.12.985,LearnStrategy,2023.2.3,Win32,163.9344262,1,2,4,,,,,,,,3,15,,,,,,,,,,,,,1,2.669,0,,,,,,-0.391666667,-0.237037037,1,0,0,2.6688,Andesite_rect,3,0,3,0,1,
65bfc33d79b5cd4ab0ff8a2c,SCR,2024-06-20_15h27.12.985,LearnStrategy,2023.2.3,Win32,163.9344262,1,2,5,,,,,,,,2,09,,,,,,,,,,,,,2,4.247,1,,,,,,-0.125,-0.237962963,1,0,0,4.2472,Basalt_rect,4,0,4,0,1,
65bfc33d79b5cd4ab0ff8a2c,SCR,2024-06-20_15h27.12.985,LearnStrategy,2023.2.3,Win32,163.9344262,1,2,6,,,,,,,,5,05,,,,,,,,,,,,,5,2.144,1,,,,,,-0.346296296,-0.412037037,1,0,0,2.1437,Obsidian_rect,5,0,5,0,1,
65bfc33d79b5cd4ab0ff8a2c,SCR,2024-06-20_15h27.12.985,LearnStrategy,2023.2.3,Win32,163.9344262,1,2,7,,,,,,,,2,10,,,,,,,,,,,,,2,5.481,1,,,,,,-0.112037037,-0.239814815,1,0,0,5.4814,Basalt_rect,6,0,6,0,1,
65bfc33d79b5cd4ab0ff8a2c,SCR,2024-06-20_15h27.12.985,LearnStrategy,2023.2.3,Win32,163.9344262,1,2,8,,,,,,,,8,08,,,,,,,,,,,,,8,3.239,1,,,,,,0.427777778,-0.397222222,1,0,0,3.2389,Pumice_rect,7,0,7,0,1,
65bfc33d79b5cd4ab0ff8a2c,SCR,2024-06-20_15h27.12.985,LearnStrategy,2023.2.3,Win32,163.9344262,1,2,9,,,,,,,,8,15,,,,,,,,,,,,,8,1.163,1,,,,,,0.427777778,-0.397222222,1,0,0,1.163,Pumice_rect,8,0,8,0,1,
65bfc33d79b5cd4ab0ff8a2c,SCR,2024-06-20_15h27.12.985,LearnStrategy,2023.2.3,Win32,163.9344262,1,2,10,,,,,,,,3,02,,,,,,,,,,,,,1,8.584,0,,,,,,-0.383333333,-0.246296296,1,0,0,8.5837,Andesite_rect,9,0,9,0,1,
65bfc33d79b5cd4ab0ff8a2c,SCR,2024-06-20_15h27.12.985,LearnStrategy,2023.2.3,Win32,163.9344262,1,2,11,,,,,,,,1,10,,,,,,,,,,,,,4,2.395,0,,,,,,0.39537037,-0.264814815,1,0,0,2.3953,Gabbro_rect,10,0,10,0,1,
65bfc33d79b5cd4ab0ff8a2c,SCR,2024-06-20_15h27.12.985,LearnStrategy,2023.2.3,Win32,163.9344262,1,2,12,,,,,,,,4,08,,,,,,,,,,,,,4,0.857,1,,,,,,0.39537037,-0.264814815,1,0,0,0.8566,Gabbro_rect,11,0,11,0,1,
65bfc33d79b5cd4ab0ff8a2c,SCR,2024-06-20_15h27.12.985,LearnStrategy,2023.2.3,Win32,163.9344262,1,2,13,,,,,,,,5,04,,,,,,,,,,,,,5,1.141,1,,,,,,-0.412037037,-0.406481481,1,0,0,1.1413,Obsidian_rect,12,0,12,0,1,
65bfc33d79b5cd4ab0ff8a2c,SCR,2024-06-20_15h27.12.985,LearnStrategy,2023.2.3,Win32,163.9344262,1,2,14,,,,,,,,7,02,,,,,,,,,,,,,4,3.592,0,,,,,,0.398148148,-0.235185185,1,0,0,3.5921,Gabbro_rect,13,0,13,0,1,
65bfc33d79b5cd4ab0ff8a2c,SCR,2024-06-20_15h27.12.985,LearnStrategy,2023.2.3,Win32,163.9344262,1,2,15,,,,,,,,4,09,,,,,,,,,,,,,2,3.251,0,,,,,,-0.156481481,-0.262037037,1,0,0,3.251,Basalt_rect,14,0,14,0,1,
65bfc33d79b5cd4ab0ff8a2c,SCR,2024-06-20_15h27.12.985,LearnStrategy,2023.2.3,Win32,163.9344262,1,2,16,,,,,,,,1,02,,,,,,,,,,,,,3,8.094,0,,,,,,0.10462963,-0.234259259,1,0,0,8.0935,Diorite_rect,15,0,15,0,1,
65bfc33d79b5cd4ab0ff8a2c,SCR,2024-06-20_15h27.12.985,LearnStrategy,2023.2.3,Win32,163.9344262,2,1,1,-0.043518519,0.251851852,1,0,0,4.3568,Diorite_07,3,07,5,4,4.357,1,05,-0.349074074,-0.257407407,1,0,0,4.7581,Andesite_rect,1,4.758,0,0,0,0,0,1,,,,,,,,,,,,,
65bfc33d79b5cd4ab0ff8a2c,SCR,2024-06-20_15h27.12.985,LearnStrategy,2023.2.3,Win32,163.9344262,2,1,2,-0.39537037,-0.212037037,1,0,0,2.4533,Pegmatite_16,6,16,2,2,2.453,7,07,-0.384259259,-0.415740741,1,0,0,2.153,Obsidian_rect,5,2.153,0,1,0,1,0,1,,,,,,,,,,,,,
65bfc33d79b5cd4ab0ff8a2c,SCR,2024-06-20_15h27.12.985,LearnStrategy,2023.2.3,Win32,163.9344262,2,1,3,0.255555556,-0.425,1,0,0,1.7139,Gabbro_01,4,01,1,6,1.714,4,01,0.443518519,-0.237037037,1,0,0,2.3057,Gabbro_rect,4,2.306,1,2,0,2,0,1,,,,,,,,,,,,,
65bfc33d79b5cd4ab0ff8a2c,SCR,2024-06-20_15h27.12.985,LearnStrategy,2023.2.3,Win32,163.9344262,2,1,4,-0.260185185,0.102777778,1,0,0,1.9077,Gabbro_11,4,11,4,3,1.908,6,16,0.408333333,-0.244444444,1,0,0,1.9141,Gabbro_rect,4,1.914,1,3,0,3,0,1,,,,,,,,,,,,,
65bfc33d79b5cd4ab0ff8a2c,SCR,2024-06-20_15h27.12.985,LearnStrategy,2023.2.3,Win32,163.9344262,2,1,5,0.218518519,-0.235185185,1,0,0,0.926,Peridotite_15,7,15,2,6,0.926,7,15,0.137037037,-0.241666667,1,0,0,0.9224,Diorite_rect,3,0.922,0,4,0,4,0,1,,,,,,,,,,,,,
65bfc33d79b5cd4ab0ff8a2c,SCR,2024-06-20_15h27.12.985,LearnStrategy,2023.2.3,Win32,163.9344262,2,1,6,-0.07037037,0.421296296,1,0,0,1.7018,Diorite_10,3,10,6,4,1.702,4,05,-0.449074074,-0.249074074,1,0,0,1.6628,Andesite_rect,1,1.663,0,5,0,5,0,1,,,,,,,,,,,,,
65bfc33d79b5cd4ab0ff8a2c,SCR,2024-06-20_15h27.12.985,LearnStrategy,2023.2.3,Win32,163.9344262,2,1,7,-0.358333333,-0.077777778,1,0,0,2.2654,Andesite_03,1,03,3,2,2.265,3,06,0.116666667,-0.238888889,1,0,0,1.9207,Diorite_rect,3,1.921,0,6,0,6,0,1,,,,,,,,,,,,,
65bfc33d79b5cd4ab0ff8a2c,SCR,2024-06-20_15h27.12.985,LearnStrategy,2023.2.3,Win32,163.9344262,2,1,8,0.248148148,0.12037037,1,0,0,0.9569,Diorite_14,3,14,4,6,0.957,3,14,0.158333333,-0.252777778,1,0,0,1.0683,Diorite_rect,3,1.068,1,7,0,7,0,1,,,,,,,,,,,,,
65bfc33d79b5cd4ab0ff8a2c,SCR,2024-06-20_15h27.12.985,LearnStrategy,2023.2.3,Win32,163.9344262,2,1,9,-0.202777778,-0.112037037,1,0,0,0.8718,Diorite_06,3,06,3,3,0.872,3,06,0.103703704,-0.242592593,1,0,0,3.5479,Diorite_rect,3,3.548,1,8,0,8,0,1,,,,,,,,,,,,,
65bfc33d79b5cd4ab0ff8a2c,SCR,2024-06-20_15h27.12.985,LearnStrategy,2023.2.3,Win32,163.9344262,2,1,10,-0.225,-0.284259259,1,0,0,0.8716,Andesite_07,1,07,2,3,0.872,1,07,-0.146296296,-0.37962963,1,0,0,3.0534,Pegmatite_rect,6,3.053,0,9,0,9,0,1,,,,,,,,,,,,,
65bfc33d79b5cd4ab0ff8a2c,SCR,2024-06-20_15h27.12.985,LearnStrategy,2023.2.3,Win32,163.9344262,2,1,11,-0.209259259,-0.278703704,1,0,0,0.8838,Andesite_07,1,07,2,3,0.884,1,07,-0.507407407,-0.247222222,1,0,0,0.7719,Andesite_rect,1,0.772,1,10,0,10,0,1,,,,,,,,,,,,,
65bfc33d79b5cd4ab0ff8a2c,SCR,2024-06-20_15h27.12.985,LearnStrategy,2023.2.3,Win32,163.9344262,2,1,12,-0.034259259,-0.244444444,1,0,0,0.6658,Pegmatite_09,6,09,2,4,0.666,6,09,0.110185185,-0.393518519,1,0,0,1.1721,Peridotite_rect,7,1.172,0,11,0,11,0,1,,,,,,,,,,,,,
65bfc33d79b5cd4ab0ff8a2c,SCR,2024-06-20_15h27.12.985,LearnStrategy,2023.2.3,Win32,163.9344262,2,1,13,0.246296296,-0.112962963,1,0,0,0.7502,Obsidian_10,5,10,3,6,0.75,1,03,-0.366666667,-0.413888889,1,0,0,0.689,Obsidian_rect,5,0.689,1,12,0,12,0,1,,,,,,,,,,,,,
65bfc33d79b5cd4ab0ff8a2c,SCR,2024-06-20_15h27.12.985,LearnStrategy,2023.2.3,Win32,163.9344262,2,1,14,0.548148148,-0.071296296,1,0,0,0.9507,Peridotite_06,7,06,3,8,0.951,7,06,0.085185185,-0.381481481,1,0,0,0.9355,Peridotite_rect,7,0.935,1,13,0,13,0,1,,,,,,,,,,,,,
65bfc33d79b5cd4ab0ff8a2c,SCR,2024-06-20_15h27.12.985,LearnStrategy,2023.2.3,Win32,163.9344262,2,1,15,-0.075925926,0.091666667,1,0,0,0.8775,Basalt_11,2,11,4,4,0.877,2,11,0.39537037,-0.389814815,1,0,0,2.3537,Pumice_rect,8,2.354,0,14,0,14,0,1,,,,,,,,,,,,,
65bfc33d79b5cd4ab0ff8a2c,SCR,2024-06-20_15h27.12.985,LearnStrategy,2023.2.3,Win32,163.9344262,2,1,16,-0.060185185,0.218518519,1,0,0,0.7987,Diorite_07,3,07,5,4,0.799,3,07,0.051851852,-0.242592593,1,0,0,0.8991,Diorite_rect,3,0.899,1,15,0,15,0,1,,,,,,,,,,,,,
65bfc33d79b5cd4ab0ff8a2c,SCR,2024-06-20_15h27.12.985,LearnStrategy,2023.2.3,Win32,163.9344262,2,2,1,,,,,,,,3,16,,,,,,,,,,,,,3,3.808,1,,,,,,0.12037037,-0.242592593,1,0,0,3.8085,Diorite_rect,0,0,0,0,1,
65bfc33d79b5cd4ab0ff8a2c,SCR,2024-06-20_15h27.12.985,LearnStrategy,2023.2.3,Win32,163.9344262,2,2,2,,,,,,,,8,04,,,,,,,,,,,,,8,1.123,1,,,,,,0.434259259,-0.403703704,1,0,0,1.1232,Pumice_rect,1,0,1,0,1,
65bfc33d79b5cd4ab0ff8a2c,SCR,2024-06-20_15h27.12.985,LearnStrategy,2023.2.3,Win32,163.9344262,2,2,3,,,,,,,,6,05,,,,,,,,,,,,,6,8.512,1,,,,,,-0.046296296,-0.405555556,1,0,0,8.5118,Pegmatite_rect,2,0,2,0,1,
65bfc33d79b5cd4ab0ff8a2c,SCR,2024-06-20_15h27.12.985,LearnStrategy,2023.2.3,Win32,163.9344262,2,2,4,,,,,,,,5,09,,,,,,,,,,,,,5,0.923,1,,,,,,-0.408333333,-0.402777778,1,0,0,0.9226,Obsidian_rect,3,0,3,0,1,
65bfc33d79b5cd4ab0ff8a2c,SCR,2024-06-20_15h27.12.985,LearnStrategy,2023.2.3,Win32,163.9344262,2,2,5,,,,,,,,4,03,,,,,,,,,,,,,1,4.391,0,,,,,,-0.407407407,-0.247222222,1,0,0,4.3906,Andesite_rect,4,0,4,0,1,
65bfc33d79b5cd4ab0ff8a2c,SCR,2024-06-20_15h27.12.985,LearnStrategy,2023.2.3,Win32,163.9344262,2,2,6,,,,,,,,6,07,,,,,,,,,,,,,6,2.959,1,,,,,,-0.20462963,-0.407407407,1,0,0,2.9591,Pegmatite_rect,5,0,5,0,1,
65bfc33d79b5cd4ab0ff8a2c,SCR,2024-06-20_15h27.12.985,LearnStrategy,2023.2.3,Win32,163.9344262,2,2,7,,,,,,,,2,16,,,,,,,,,,,,,4,1.748,0,,,,,,0.378703704,-0.24537037,1,0,0,1.7476,Gabbro_rect,6,0,6,0,1,
65bfc33d79b5cd4ab0ff8a2c,SCR,2024-06-20_15h27.12.985,LearnStrategy,2023.2.3,Win32,163.9344262,2,2,8,,,,,,,,8,05,,,,,,,,,,,,,8,0.962,1,,,,,,0.37037037,-0.405555556,1,0,0,0.9615,Pumice_rect,7,0,7,0,1,
65bfc33d79b5cd4ab0ff8a2c,SCR,2024-06-20_15h27.12.985,LearnStrategy,2023.2.3,Win32,163.9344262,2,2,9,,,,,,,,5,06,,,,,,,,,,,,,5,2.427,1,,,,,,-0.394444444,-0.391666667,1,0,0,2.4268,Obsidian_rect,8,0,8,0,1,
65bfc33d79b5cd4ab0ff8a2c,SCR,2024-06-20_15h27.12.985,LearnStrategy,2023.2.3,Win32,163.9344262,2,2,10,,,,,,,,1,16,,,,,,,,,,,,,1,4.427,1,,,,,,-0.449074074,-0.25,1,0,0,4.4266,Andesite_rect,9,0,9,0,1,
65bfc33d79b5cd4ab0ff8a2c,SCR,2024-06-20_15h27.12.985,LearnStrategy,2023.2.3,Win32,163.9344262,2,2,11,,,,,,,,3,11,,,,,,,,,,,,,3,3.676,1,,,,,,0.057407407,-0.25462963,1,0,0,3.6762,Diorite_rect,10,0,10,0,1,
65bfc33d79b5cd4ab0ff8a2c,SCR,2024-06-20_15h27.12.985,LearnStrategy,2023.2.3,Win32,163.9344262,2,2,12,,,,,,,,1,04,,,,,,,,,,,,,2,2.868,0,,,,,,-0.162037037,-0.263888889,1,0,0,2.8681,Basalt_rect,11,0,11,0,1,
65bfc33d79b5cd4ab0ff8a2c,SCR,2024-06-20_15h27.12.985,LearnStrategy,2023.2.3,Win32,163.9344262,2,2,13,,,,,,,,7,08,,,,,,,,,,,,,7,1.239,1,,,,,,0.108333333,-0.421296296,1,0,0,1.2388,Peridotite_rect,12,0,12,0,1,
65bfc33d79b5cd4ab0ff8a2c,SCR,2024-06-20_15h27.12.985,LearnStrategy,2023.2.3,Win32,163.9344262,2,2,14,,,,,,,,4,16,,,,,,,,,,,,,2,4.816,0,,,,,,-0.105555556,-0.264814815,1,0,0,4.816,Basalt_rect,13,0,13,0,1,
65bfc33d79b5cd4ab0ff8a2c,SCR,2024-06-20_15h27.12.985,LearnStrategy,2023.2.3,Win32,163.9344262,2,2,15,,,,,,,,7,13,,,,,,,,,,,,,7,1.518,1,,,,,,0.109259259,-0.383333333,1,0,0,1.518,Peridotite_rect,14,0,14,0,1,
65bfc33d79b5cd4ab0ff8a2c,SCR,2024-06-20_15h27.12.985,LearnStrategy,2023.2.3,Win32,163.9344262,2,2,16,,,,,,,,2,06,,,,,,,,,,,,,2,4.377,1,,,,,,-0.112962963,-0.264814815,1,0,0,4.3773,Basalt_rect,15,0,15,0,1,
65bfc33d79b5cd4ab0ff8a2c,SCR,2024-06-20_15h27.12.985,LearnStrategy,2023.2.3,Win32,163.9344262,3,1,1,-0.222222222,0.077777778,1,0,0,0.7818,Gabbro_11,4,11,4,3,0.782,4,11,-0.181481481,-0.239814815,1,0,0,1.9532,Basalt_rect,2,1.953,0,0,0,0,0,1,,,,,,,,,,,,,
65bfc33d79b5cd4ab0ff8a2c,SCR,2024-06-20_15h27.12.985,LearnStrategy,2023.2.3,Win32,163.9344262,3,1,2,0.093518519,0.406481481,1,0,0,0.811,Andesite_05,1,05,6,5,0.811,1,05,-0.15,-0.39537037,1,0,0,2.9054,Pegmatite_rect,6,2.905,0,1,0,1,0,1,,,,,,,,,,,,,
65bfc33d79b5cd4ab0ff8a2c,SCR,2024-06-20_15h27.12.985,LearnStrategy,2023.2.3,Win32,163.9344262,3,1,3,0.562962963,-0.449074074,1,0,0,1.2957,Gabbro_12,4,12,1,8,1.296,4,12,-0.397222222,-0.236111111,1,0,0,2.4268,Andesite_rect,1,2.427,0,2,0,2,0,1,,,,,,,,,,,,,
65bfc33d79b5cd4ab0ff8a2c,SCR,2024-06-20_15h27.12.985,LearnStrategy,2023.2.3,Win32,163.9344262,3,1,4,0.251851852,-0.099074074,1,0,0,0.7384,Obsidian_10,5,10,3,6,0.738,5,10,-0.436111111,-0.416666667,1,0,0,0.8686,Obsidian_rect,5,0.869,1,3,0,3,0,1,,,,,,,,,,,,,
65bfc33d79b5cd4ab0ff8a2c,SCR,2024-06-20_15h27.12.985,LearnStrategy,2023.2.3,Win32,163.9344262,3,1,5,0.099074074,-0.121296296,1,0,0,1.5991,Andesite_06,1,06,3,5,1.599,7,16,0.139814815,-0.237962963,1,0,0,1.2867,Diorite_rect,3,1.287,0,4,0,4,0,1,,,,,,,,,,,,,
65bfc33d79b5cd4ab0ff8a2c,SCR,2024-06-20_15h27.12.985,LearnStrategy,2023.2.3,Win32,163.9344262,3,1,6,0.412037037,0.074074074,1,0,0,0.8713,Andesite_09,1,09,4,7,0.871,1,09,-0.330555556,-0.251851852,1,0,0,2.2992,Andesite_rect,1,2.299,1,5,0,5,0,1,,,,,,,,,,,,,
65bfc33d79b5cd4ab0ff8a2c,SCR,2024-06-20_15h27.12.985,LearnStrategy,2023.2.3,Win32,163.9344262,3,1,7,-0.226851852,-0.097222222,1,0,0,0.581,Diorite_06,3,06,3,3,0.581,3,06,0.149074074,-0.248148148,1,0,0,4.4868,Diorite_rect,3,4.487,1,6,0,6,0,1,,,,,,,,,,,,,
65bfc33d79b5cd4ab0ff8a2c,SCR,2024-06-20_15h27.12.985,LearnStrategy,2023.2.3,Win32,163.9344262,3,1,8,0.221296296,-0.389814815,1,0,0,1.3749,Gabbro_01,4,01,1,6,1.375,4,01,0.359259259,-0.267592593,1,0,0,1.351,Gabbro_rect,4,1.351,1,7,0,7,0,1,,,,,,,,,,,,,
65bfc33d79b5cd4ab0ff8a2c,SCR,2024-06-20_15h27.12.985,LearnStrategy,2023.2.3,Win32,163.9344262,3,1,9,-0.069444444,-0.111111111,1,0,0,1.1138,Pumice_13,8,13,3,4,1.114,7,16,0.407407407,-0.4,1,0,0,1.1414,Pumice_rect,8,1.141,1,8,0,8,0,1,,,,,,,,,,,,,
65bfc33d79b5cd4ab0ff8a2c,SCR,2024-06-20_15h27.12.985,LearnStrategy,2023.2.3,Win32,163.9344262,3,1,10,0.041666667,0.386111111,1,0,0,0.8777,Andesite_05,1,05,6,5,0.878,1,05,-0.203703704,-0.387037037,1,0,0,2.0968,Pegmatite_rect,6,2.097,0,9,0,9,0,1,,,,,,,,,,,,,
65bfc33d79b5cd4ab0ff8a2c,SCR,2024-06-20_15h27.12.985,LearnStrategy,2023.2.3,Win32,163.9344262,3,1,11,0.521296296,0.269444444,1,0,0,0.7031,Diorite_13,3,13,5,8,0.703,3,13,-0.333333333,-0.249074074,1,0,0,1.1448,Andesite_rect,1,1.145,0,10,0,10,0,1,,,,,,,,,,,,,
65bfc33d79b5cd4ab0ff8a2c,SCR,2024-06-20_15h27.12.985,LearnStrategy,2023.2.3,Win32,163.9344262,3,1,12,-0.576851852,0.414814815,1,0,0,0.7265,Basalt_12,2,12,6,1,0.726,2,12,0.410185185,-0.402777778,1,0,0,1.1653,Pumice_rect,8,1.165,0,11,0,11,0,1,,,,,,,,,,,,,
65bfc33d79b5cd4ab0ff8a2c,SCR,2024-06-20_15h27.12.985,LearnStrategy,2023.2.3,Win32,163.9344262,3,1,13,0.385185185,0.435185185,1,0,0,0.7748,Gabbro_13,4,13,6,7,0.775,4,13,0.37962963,-0.249074074,1,0,0,1.0323,Gabbro_rect,4,1.032,1,12,0,12,0,1,,,,,,,,,,,,,
65bfc33d79b5cd4ab0ff8a2c,SCR,2024-06-20_15h27.12.985,LearnStrategy,2023.2.3,Win32,163.9344262,3,1,14,-0.553703704,0.461111111,1,0,0,0.8717,Basalt_12,2,12,6,1,0.872,2,12,0.340740741,-0.402777778,1,0,0,1.3356,Pumice_rect,8,1.336,0,13,0,13,0,1,,,,,,,,,,,,,
65bfc33d79b5cd4ab0ff8a2c,SCR,2024-06-20_15h27.12.985,LearnStrategy,2023.2.3,Win32,163.9344262,3,1,15,0.257407407,0.435185185,1,0,0,0.8293,Pegmatite_11,6,11,6,6,0.829,6,11,-0.173148148,-0.4,1,0,0,0.996,Pegmatite_rect,6,0.996,1,14,0,14,0,1,,,,,,,,,,,,,
65bfc33d79b5cd4ab0ff8a2c,SCR,2024-06-20_15h27.12.985,LearnStrategy,2023.2.3,Win32,163.9344262,3,1,16,0.092592593,0.387037037,1,0,0,0.8778,Andesite_05,1,05,6,5,0.878,1,05,-0.377777778,-0.260185185,1,0,0,1.3387,Andesite_rect,1,1.339,1,15,0,15,0,1,,,,,,,,,,,,,
65bfc33d79b5cd4ab0ff8a2c,SCR,2024-06-20_15h27.12.985,LearnStrategy,2023.2.3,Win32,163.9344262,3,2,1,,,,,,,,2,04,,,,,,,,,,,,,2,5.991,1,,,,,,-0.168518519,-0.263888889,1,0,0,5.9906,Basalt_rect,0,0,0,0,1,
65bfc33d79b5cd4ab0ff8a2c,SCR,2024-06-20_15h27.12.985,LearnStrategy,2023.2.3,Win32,163.9344262,3,2,2,,,,,,,,6,12,,,,,,,,,,,,,3,1.724,0,,,,,,0.125925926,-0.267592593,1,0,0,1.7235,Diorite_rect,1,0,1,0,1,
65bfc33d79b5cd4ab0ff8a2c,SCR,2024-06-20_15h27.12.985,LearnStrategy,2023.2.3,Win32,163.9344262,3,2,3,,,,,,,,3,12,,,,,,,,,,,,,3,2.869,1,,,,,,0.10462963,-0.253703704,1,0,0,2.8693,Diorite_rect,2,0,2,0,1,
65bfc33d79b5cd4ab0ff8a2c,SCR,2024-06-20_15h27.12.985,LearnStrategy,2023.2.3,Win32,163.9344262,3,2,4,,,,,,,,2,02,,,,,,,,,,,,,2,2.536,1,,,,,,-0.096296296,-0.261111111,1,0,0,2.536,Basalt_rect,3,0,3,0,1,
65bfc33d79b5cd4ab0ff8a2c,SCR,2024-06-20_15h27.12.985,LearnStrategy,2023.2.3,Win32,163.9344262,3,2,5,,,,,,,,1,01,,,,,,,,,,,,,2,5.588,0,,,,,,-0.174074074,-0.25462963,1,0,0,5.5875,Basalt_rect,4,0,4,0,1,
65bfc33d79b5cd4ab0ff8a2c,SCR,2024-06-20_15h27.12.985,LearnStrategy,2023.2.3,Win32,163.9344262,3,2,6,,,,,,,,7,14,,,,,,,,,,,,,7,1.395,1,,,,,,0.047222222,-0.401851852,1,0,0,1.3954,Peridotite_rect,5,0,5,0,1,
65bfc33d79b5cd4ab0ff8a2c,SCR,2024-06-20_15h27.12.985,LearnStrategy,2023.2.3,Win32,163.9344262,3,2,7,,,,,,,,4,10,,,,,,,,,,,,,6,3.354,0,,,,,,-0.17037037,-0.387037037,1,0,0,3.354,Pegmatite_rect,6,0,6,0,1,
65bfc33d79b5cd4ab0ff8a2c,SCR,2024-06-20_15h27.12.985,LearnStrategy,2023.2.3,Win32,163.9344262,3,2,8,,,,,,,,3,09,,,,,,,,,,,,,3,1.402,1,,,,,,0.080555556,-0.255555556,1,0,0,1.4023,Diorite_rect,7,0,7,0,1,
65bfc33d79b5cd4ab0ff8a2c,SCR,2024-06-20_15h27.12.985,LearnStrategy,2023.2.3,Win32,163.9344262,3,2,9,,,,,,,,6,13,,,,,,,,,,,,,6,1.657,1,,,,,,-0.192592593,-0.406481481,1,0,0,1.6568,Pegmatite_rect,8,0,8,0,1,
65bfc33d79b5cd4ab0ff8a2c,SCR,2024-06-20_15h27.12.985,LearnStrategy,2023.2.3,Win32,163.9344262,3,2,10,,,,,,,,1,14,,,,,,,,,,,,,1,3.064,1,,,,,,-0.375925926,-0.22962963,1,0,0,3.0639,Andesite_rect,9,0,9,0,1,
65bfc33d79b5cd4ab0ff8a2c,SCR,2024-06-20_15h27.12.985,LearnStrategy,2023.2.3,Win32,163.9344262,3,2,11,,,,,,,,8,16,,,,,,,,,,,,,8,1.081,1,,,,,,0.351851852,-0.397222222,1,0,0,1.081,Pumice_rect,10,0,10,0,1,
65bfc33d79b5cd4ab0ff8a2c,SCR,2024-06-20_15h27.12.985,LearnStrategy,2023.2.3,Win32,163.9344262,3,2,12,,,,,,,,7,05,,,,,,,,,,,,,7,1.421,1,,,,,,0.180555556,-0.399074074,1,0,0,1.4206,Peridotite_rect,11,0,11,0,1,
65bfc33d79b5cd4ab0ff8a2c,SCR,2024-06-20_15h27.12.985,LearnStrategy,2023.2.3,Win32,163.9344262,3,2,13,,,,,,,,5,12,,,,,,,,,,,,,5,1.132,1,,,,,,-0.35462963,-0.389814815,1,0,0,1.1324,Obsidian_rect,12,0,12,0,1,
65bfc33d79b5cd4ab0ff8a2c,SCR,2024-06-20_15h27.12.985,LearnStrategy,2023.2.3,Win32,163.9344262,3,2,14,,,,,,,,5,14,,,,,,,,,,,,,5,0.833,1,,,,,,-0.35462963,-0.389814815,1,0,0,0.8327,Obsidian_rect,13,0,13,0,1,
65bfc33d79b5cd4ab0ff8a2c,SCR,2024-06-20_15h27.12.985,LearnStrategy,2023.2.3,Win32,163.9344262,3,2,15,,,,,,,,4,15,,,,,,,,,,,,,1,3.299,0,,,,,,-0.315740741,-0.241666667,1,0,0,3.2995,Andesite_rect,14,0,14,0,1,
65bfc33d79b5cd4ab0ff8a2c,SCR,2024-06-20_15h27.12.985,LearnStrategy,2023.2.3,Win32,163.9344262,3,2,16,,,,,,,,8,10,,,,,,,,,,,,,8,1.033,1,,,,,,0.435185185,-0.394444444,1,0,0,1.0327,Pumice_rect,15,0,15,0,1,
65bfc33d79b5cd4ab0ff8a2c,SCR,2024-06-20_15h27.12.985,LearnStrategy,2023.2.3,Win32,163.9344262,4,1,1,-0.385185185,-0.25462963,1,0,0,1.1629,Pegmatite_16,6,16,2,2,1.163,6,16,-0.162037037,-0.393518519,1,0,0,0.5715,Pegmatite_rect,6,0.571,1,0,0,0,0,1,,,,,,,,,,,,,
65bfc33d79b5cd4ab0ff8a2c,SCR,2024-06-20_15h27.12.985,LearnStrategy,2023.2.3,Win32,163.9344262,4,1,2,-0.37037037,0.280555556,1,0,0,0.7929,Obsidian_08,5,08,5,2,0.793,5,08,-0.359259259,-0.4,1,0,0,0.5761,Obsidian_rect,5,0.576,1,1,0,1,0,1,,,,,,,,,,,,,
65bfc33d79b5cd4ab0ff8a2c,SCR,2024-06-20_15h27.12.985,LearnStrategy,2023.2.3,Win32,163.9344262,4,1,3,-0.539814815,0.086111111,1,0,0,1.0169,Gabbro_14,4,14,4,1,1.017,4,14,0.334259259,-0.233333333,1,0,0,0.9571,Gabbro_rect,4,0.957,1,2,0,2,0,1,,,,,,,,,,,,,
65bfc33d79b5cd4ab0ff8a2c,SCR,2024-06-20_15h27.12.985,LearnStrategy,2023.2.3,Win32,163.9344262,4,1,4,0.425925926,0.432407407,1,0,0,0.7746,Gabbro_13,4,13,6,7,0.775,4,13,0.457407407,-0.230555556,1,0,0,0.9888,Gabbro_rect,4,0.989,1,3,0,3,0,1,,,,,,,,,,,,,
65bfc33d79b5cd4ab0ff8a2c,SCR,2024-06-20_15h27.12.985,LearnStrategy,2023.2.3,Win32,163.9344262,4,1,5,0.024074074,0.37037037,1,0,0,0.6596,Andesite_05,1,05,6,5,0.66,1,05,-0.391666667,-0.242592593,1,0,0,1.3293,Andesite_rect,1,1.329,1,4,0,4,0,1,,,,,,,,,,,,,
65bfc33d79b5cd4ab0ff8a2c,SCR,2024-06-20_15h27.12.985,LearnStrategy,2023.2.3,Win32,163.9344262,4,1,6,0.540740741,-0.092592593,1,0,0,1.1323,Peridotite_06,7,06,3,8,1.132,7,06,0.164814815,-0.397222222,1,0,0,0.6748,Peridotite_rect,7,0.675,1,5,0,5,0,1,,,,,,,,,,,,,
65bfc33d79b5cd4ab0ff8a2c,SCR,2024-06-20_15h27.12.985,LearnStrategy,2023.2.3,Win32,163.9344262,4,1,7,0.237037037,-0.422222222,1,0,0,0.9749,Gabbro_01,4,01,1,6,0.975,4,01,0.369444444,-0.237037037,1,0,0,1.3963,Gabbro_rect,4,1.396,1,6,0,6,0,1,,,,,,,,,,,,,
65bfc33d79b5cd4ab0ff8a2c,SCR,2024-06-20_15h27.12.985,LearnStrategy,2023.2.3,Win32,163.9344262,4,1,8,-0.542592593,-0.398148148,1,0,0,0.8354,Gabbro_05,4,05,1,1,0.835,4,05,0.331481481,-0.261111111,1,0,0,2.5112,Gabbro_rect,4,2.511,1,7,0,7,0,1,,,,,,,,,,,,,
65bfc33d79b5cd4ab0ff8a2c,SCR,2024-06-20_15h27.12.985,LearnStrategy,2023.2.3,Win32,163.9344262,4,1,9,0.22037037,0.376851852,1,0,0,0.6589,Pegmatite_11,6,11,6,6,0.659,6,11,-0.189814815,-0.391666667,1,0,0,1.0869,Pegmatite_rect,6,1.087,1,8,0,8,0,1,,,,,,,,,,,,,
65bfc33d79b5cd4ab0ff8a2c,SCR,2024-06-20_15h27.12.985,LearnStrategy,2023.2.3,Win32,163.9344262,4,1,10,0.05462963,0.116666667,1,0,0,0.5386,Basalt_08,2,08,4,5,0.539,2,08,-0.097222222,-0.236111111,1,0,0,0.7838,Basalt_rect,2,0.784,1,9,0,9,0,1,,,,,,,,,,,,,
65bfc33d79b5cd4ab0ff8a2c,SCR,2024-06-20_15h27.12.985,LearnStrategy,2023.2.3,Win32,163.9344262,4,1,11,0.082407407,-0.09537037,1,0,0,1.1993,Andesite_06,1,06,3,5,1.199,1,06,-0.387962963,-0.261111111,1,0,0,0.7963,Andesite_rect,1,0.796,1,10,0,10,0,1,,,,,,,,,,,,,
65bfc33d79b5cd4ab0ff8a2c,SCR,2024-06-20_15h27.12.985,LearnStrategy,2023.2.3,Win32,163.9344262,4,1,12,-0.262037037,-0.386111111,1,0,0,1.2774,Basalt_01,2,01,1,3,1.277,2,01,-0.133333333,-0.268518519,1,0,0,0.7126,Basalt_rect,2,0.713,1,11,0,11,0,1,,,,,,,,,,,,,
65bfc33d79b5cd4ab0ff8a2c,SCR,2024-06-20_15h27.12.985,LearnStrategy,2023.2.3,Win32,163.9344262,4,1,13,-0.04537037,-0.430555556,1,0,0,0.9806,Diorite_08,3,08,1,4,0.981,3,08,0.100925926,-0.253703704,1,0,0,1.5041,Diorite_rect,3,1.504,1,12,0,12,0,1,,,,,,,,,,,,,
65bfc33d79b5cd4ab0ff8a2c,SCR,2024-06-20_15h27.12.985,LearnStrategy,2023.2.3,Win32,163.9344262,4,1,14,-0.071296296,-0.111111111,1,0,0,0.7094,Pumice_13,8,13,3,4,0.709,3,10,0.359259259,-0.400925926,1,0,0,0.6666,Pumice_rect,8,0.667,1,13,0,13,0,1,,,,,,,,,,,,,
65bfc33d79b5cd4ab0ff8a2c,SCR,2024-06-20_15h27.12.985,LearnStrategy,2023.2.3,Win32,163.9344262,4,1,15,0.541666667,0.116666667,1,0,0,0.8234,Peridotite_10,7,10,4,8,0.823,1,07,0.198148148,-0.413888889,1,0,0,1.0448,Peridotite_rect,7,1.045,1,14,0,14,0,1,,,,,,,,,,,,,
65bfc33d79b5cd4ab0ff8a2c,SCR,2024-06-20_15h27.12.985,LearnStrategy,2023.2.3,Win32,163.9344262,4,1,16,-0.257407407,0.137037037,1,0,0,1.0052,Gabbro_11,4,11,4,3,1.005,4,01,-0.174074074,-0.231481481,1,0,0,1.0143,Basalt_rect,2,1.014,0,15,0,15,0,1,,,,,,,,,,,,,
65bfc33d79b5cd4ab0ff8a2c,SCR,2024-06-20_15h27.12.985,LearnStrategy,2023.2.3,Win32,163.9344262,4,2,1,,,,,,,,2,10,,,,,,,,,,,,,2,1.055,1,,,,,,-0.12037037,-0.237962963,1,0,0,1.0547,Basalt_rect,0,0,0,0,1,
65bfc33d79b5cd4ab0ff8a2c,SCR,2024-06-20_15h27.12.985,LearnStrategy,2023.2.3,Win32,163.9344262,4,2,2,,,,,,,,4,08,,,,,,,,,,,,,4,1.365,1,,,,,,0.375,-0.27037037,1,0,0,1.3651,Gabbro_rect,1,0,1,0,1,
65bfc33d79b5cd4ab0ff8a2c,SCR,2024-06-20_15h27.12.985,LearnStrategy,2023.2.3,Win32,163.9344262,4,2,3,,,,,,,,5,06,,,,,,,,,,,,,5,1.173,1,,,,,,-0.333333333,-0.416666667,1,0,0,1.1726,Obsidian_rect,2,0,2,0,1,
65bfc33d79b5cd4ab0ff8a2c,SCR,2024-06-20_15h27.12.985,LearnStrategy,2023.2.3,Win32,163.9344262,4,2,4,,,,,,,,8,08,,,,,,,,,,,,,8,1.109,1,,,,,,0.324074074,-0.399074074,1,0,0,1.1086,Pumice_rect,3,0,3,0,1,
65bfc33d79b5cd4ab0ff8a2c,SCR,2024-06-20_15h27.12.985,LearnStrategy,2023.2.3,Win32,163.9344262,4,2,5,,,,,,,,6,13,,,,,,,,,,,,,6,1.257,1,,,,,,-0.112037037,-0.410185185,1,0,0,1.257,Pegmatite_rect,4,0,4,0,1,
65bfc33d79b5cd4ab0ff8a2c,SCR,2024-06-20_15h27.12.985,LearnStrategy,2023.2.3,Win32,163.9344262,4,2,6,,,,,,,,1,14,,,,,,,,,,,,,1,1.93,1,,,,,,-0.403703704,-0.24537037,1,0,0,1.9299,Andesite_rect,5,0,5,0,1,
65bfc33d79b5cd4ab0ff8a2c,SCR,2024-06-20_15h27.12.985,LearnStrategy,2023.2.3,Win32,163.9344262,4,2,7,,,,,,,,7,08,,,,,,,,,,,,,7,1.59,1,,,,,,0.126851852,-0.392592593,1,0,0,1.5903,Peridotite_rect,6,0,6,0,1,
65bfc33d79b5cd4ab0ff8a2c,SCR,2024-06-20_15h27.12.985,LearnStrategy,2023.2.3,Win32,163.9344262,4,2,8,,,,,,,,8,15,,,,,,,,,,,,,8,1.135,1,,,,,,0.392592593,-0.396296296,1,0,0,1.1349,Pumice_rect,7,0,7,0,1,
65bfc33d79b5cd4ab0ff8a2c,SCR,2024-06-20_15h27.12.985,LearnStrategy,2023.2.3,Win32,163.9344262,4,2,9,,,,,,,,2,16,,,,,,,,,,,,,4,3.283,0,,,,,,0.415740741,-0.253703704,1,0,0,3.2831,Gabbro_rect,8,0,8,0,1,
65bfc33d79b5cd4ab0ff8a2c,SCR,2024-06-20_15h27.12.985,LearnStrategy,2023.2.3,Win32,163.9344262,4,2,10,,,,,,,,7,13,,,,,,,,,,,,,7,1.154,1,,,,,,0.123148148,-0.389814815,1,0,0,1.1539,Peridotite_rect,9,0,9,0,1,
65bfc33d79b5cd4ab0ff8a2c,SCR,2024-06-20_15h27.12.985,LearnStrategy,2023.2.3,Win32,163.9344262,4,2,11,,,,,,,,3,16,,,,,,,,,,,,,3,0.94,1,,,,,,0.165740741,-0.251851852,1,0,0,0.9396,Diorite_rect,10,0,10,0,1,
65bfc33d79b5cd4ab0ff8a2c,SCR,2024-06-20_15h27.12.985,LearnStrategy,2023.2.3,Win32,163.9344262,4,2,12,,,,,,,,5,12,,,,,,,,,,,,,5,0.993,1,,,,,,-0.387962963,-0.407407407,1,0,0,0.9929,Obsidian_rect,11,0,11,0,1,
65bfc33d79b5cd4ab0ff8a2c,SCR,2024-06-20_15h27.12.985,LearnStrategy,2023.2.3,Win32,163.9344262,4,2,13,,,,,,,,4,03,,,,,,,,,,,,,4,3.893,1,,,,,,0.45462963,-0.247222222,1,0,0,3.8928,Gabbro_rect,12,0,12,0,1,
65bfc33d79b5cd4ab0ff8a2c,SCR,2024-06-20_15h27.12.985,LearnStrategy,2023.2.3,Win32,163.9344262,4,2,14,,,,,,,,6,10,,,,,,,,,,,,,7,3.02,0,,,,,,0.130555556,-0.394444444,1,0,0,3.0198,Peridotite_rect,13,0,13,0,1,
65bfc33d79b5cd4ab0ff8a2c,SCR,2024-06-20_15h27.12.985,LearnStrategy,2023.2.3,Win32,163.9344262,4,2,15,,,,,,,,3,12,,,,,,,,,,,,,1,2.069,0,,,,,,-0.37962963,-0.248148148,1,0,0,2.0686,Andesite_rect,14,0,14,0,1,
65bfc33d79b5cd4ab0ff8a2c,SCR,2024-06-20_15h27.12.985,LearnStrategy,2023.2.3,Win32,163.9344262,4,2,16,,,,,,,,1,10,,,,,,,,,,,,,4,2.394,0,,,,,,0.378703704,-0.255555556,1,0,0,2.3943,Gabbro_rect,15,0,15,0,1,
65bfc33d79b5cd4ab0ff8a2c,SCR,2024-06-20_15h27.12.985,LearnStrategy,2023.2.3,Win32,163.9344262,5,1,1,0.04537037,-0.30462963,1,0,0,0.7928,Obsidian_07,5,07,2,5,0.793,5,07,-0.39537037,-0.399074074,1,0,0,0.9659,Obsidian_rect,5,0.966,1,0,0,0,0,1,,,,,,,,,,,,,
65bfc33d79b5cd4ab0ff8a2c,SCR,2024-06-20_15h27.12.985,LearnStrategy,2023.2.3,Win32,163.9344262,5,1,2,0.080555556,-0.108333333,1,0,0,0.8717,Andesite_06,1,06,3,5,0.872,4,01,-0.344444444,-0.257407407,1,0,0,1.4205,Andesite_rect,1,1.42,1,1,0,1,0,1,,,,,,,,,,,,,
65bfc33d79b5cd4ab0ff8a2c,SCR,2024-06-20_15h27.12.985,LearnStrategy,2023.2.3,Win32,163.9344262,5,1,3,0.509259259,-0.403703704,1,0,0,0.7683,Gabbro_12,4,12,1,8,0.768,2,14,-0.193518519,-0.250925926,1,0,0,0.8807,Basalt_rect,2,0.881,0,2,0,2,0,1,,,,,,,,,,,,,
65bfc33d79b5cd4ab0ff8a2c,SCR,2024-06-20_15h27.12.985,LearnStrategy,2023.2.3,Win32,163.9344262,5,1,4,0.577777778,0.090740741,1,0,0,0.6774,Peridotite_10,7,10,4,8,0.677,3,06,0.199074074,-0.399074074,1,0,0,0.8984,Peridotite_rect,7,0.898,1,3,0,3,0,1,,,,,,,,,,,,,
65bfc33d79b5cd4ab0ff8a2c,SCR,2024-06-20_15h27.12.985,LearnStrategy,2023.2.3,Win32,163.9344262,5,1,5,-0.086111111,0.302777778,1,0,0,0.5621,Diorite_07,3,07,5,4,0.562,6,06,0.112962963,-0.235185185,1,0,0,1.1779,Diorite_rect,3,1.178,1,4,0,4,0,1,,,,,,,,,,,,,
65bfc33d79b5cd4ab0ff8a2c,SCR,2024-06-20_15h27.12.985,LearnStrategy,2023.2.3,Win32,163.9344262,5,1,6,0.526851852,0.276851852,1,0,0,1.7264,Diorite_13,3,13,5,8,1.726,4,14,-0.400925926,-0.259259259,1,0,0,1.6264,Andesite_rect,1,1.626,0,5,0,5,0,1,,,,,,,,,,,,,
65bfc33d79b5cd4ab0ff8a2c,SCR,2024-06-20_15h27.12.985,LearnStrategy,2023.2.3,Win32,163.9344262,5,1,7,-0.549074074,0.106481481,1,0,0,0.7687,Gabbro_14,4,14,4,1,0.769,4,12,0.437037037,-0.24537037,1,0,0,0.7778,Gabbro_rect,4,0.778,1,6,0,6,0,1,,,,,,,,,,,,,
65bfc33d79b5cd4ab0ff8a2c,SCR,2024-06-20_15h27.12.985,LearnStrategy,2023.2.3,Win32,163.9344262,5,1,8,-0.213888889,-0.284259259,1,0,0,0.9205,Andesite_07,1,07,2,3,0.921,1,07,-0.381481481,-0.252777778,1,0,0,2.1356,Andesite_rect,1,2.136,1,7,0,7,0,1,,,,,,,,,,,,,
65bfc33d79b5cd4ab0ff8a2c,SCR,2024-06-20_15h27.12.985,LearnStrategy,2023.2.3,Win32,163.9344262,5,1,9,-0.067592593,0.246296296,1,0,0,0.7507,Diorite_07,3,07,5,4,0.751,1,05,0.168518519,-0.257407407,1,0,0,1.1352,Diorite_rect,3,1.135,1,8,0,8,0,1,,,,,,,,,,,,,
65bfc33d79b5cd4ab0ff8a2c,SCR,2024-06-20_15h27.12.985,LearnStrategy,2023.2.3,Win32,163.9344262,5,1,10,-0.092592593,0.259259259,1,0,0,1.284,Diorite_07,3,07,5,4,1.284,3,07,-0.408333333,-0.235185185,1,0,0,0.9092,Andesite_rect,1,0.909,0,9,0,9,0,1,,,,,,,,,,,,,
65bfc33d79b5cd4ab0ff8a2c,SCR,2024-06-20_15h27.12.985,LearnStrategy,2023.2.3,Win32,163.9344262,5,1,11,-0.362037037,0.391666667,1,0,0,0.7936,Basalt_05,2,05,6,2,0.794,7,04,-0.198148148,-0.249074074,1,0,0,0.8831,Basalt_rect,2,0.883,1,10,0,10,0,1,,,,,,,,,,,,,
65bfc33d79b5cd4ab0ff8a2c,SCR,2024-06-20_15h27.12.985,LearnStrategy,2023.2.3,Win32,163.9344262,5,1,12,-0.078703704,0.415740741,1,0,0,1.8171,Diorite_10,3,10,6,4,1.817,2,12,-0.402777778,-0.233333333,1,0,0,1.7235,Andesite_rect,1,1.724,0,11,0,11,0,1,,,,,,,,,,,,,
65bfc33d79b5cd4ab0ff8a2c,SCR,2024-06-20_15h27.12.985,LearnStrategy,2023.2.3,Win32,163.9344262,5,1,13,0.07037037,0.087962963,1,0,0,0.5383,Basalt_08,2,08,4,5,0.538,8,06,-0.169444444,-0.238888889,1,0,0,0.6762,Basalt_rect,2,0.676,1,12,0,12,0,1,,,,,,,,,,,,,
65bfc33d79b5cd4ab0ff8a2c,SCR,2024-06-20_15h27.12.985,LearnStrategy,2023.2.3,Win32,163.9344262,5,1,14,0.562962963,0.114814815,1,0,0,0.6052,Peridotite_10,7,10,4,8,0.605,6,06,0.12962963,-0.384259259,1,0,0,0.8205,Peridotite_rect,7,0.82,1,13,0,13,0,1,,,,,,,,,,,,,
65bfc33d79b5cd4ab0ff8a2c,SCR,2024-06-20_15h27.12.985,LearnStrategy,2023.2.3,Win32,163.9344262,5,1,15,0.548148148,0.294444444,1,0,0,0.7569,Diorite_13,3,13,5,8,0.757,1,06,0.430555556,-0.265740741,1,0,0,0.7959,Gabbro_rect,4,0.796,0,14,0,14,0,1,,,,,,,,,,,,,
65bfc33d79b5cd4ab0ff8a2c,SCR,2024-06-20_15h27.12.985,LearnStrategy,2023.2.3,Win32,163.9344262,5,1,16,-0.442592593,0.074074074,1,0,0,0.5746,Pegmatite_15,6,15,4,2,0.575,6,15,0.091666667,-0.416666667,1,0,0,0.9882,Peridotite_rect,7,0.988,0,15,0,15,0,1,,,,,,,,,,,,,
65bfc33d79b5cd4ab0ff8a2c,SCR,2024-06-20_15h27.12.985,LearnStrategy,2023.2.3,Win32,163.9344262,5,2,1,,,,,,,,7,14,,,,,,,,,,,,,7,1.13,1,,,,,,0.193518519,-0.406481481,1,0,0,1.1297,Peridotite_rect,0,0,0,0,1,
65bfc33d79b5cd4ab0ff8a2c,SCR,2024-06-20_15h27.12.985,LearnStrategy,2023.2.3,Win32,163.9344262,5,2,2,,,,,,,,7,05,,,,,,,,,,,,,7,33.385,1,,,,,,0.184259259,-0.413888889,1,0,0,33.3849,Peridotite_rect,1,0,1,0,1,
65bfc33d79b5cd4ab0ff8a2c,SCR,2024-06-20_15h27.12.985,LearnStrategy,2023.2.3,Win32,163.9344262,5,2,3,,,,,,,,5,14,,,,,,,,,,,,,5,1.045,1,,,,,,-0.337037037,-0.393518519,1,0,0,1.045,Obsidian_rect,2,0,2,0,1,
65bfc33d79b5cd4ab0ff8a2c,SCR,2024-06-20_15h27.12.985,LearnStrategy,2023.2.3,Win32,163.9344262,5,2,4,,,,,,,,2,06,,,,,,,,,,,,,2,2.682,1,,,,,,-0.131481481,-0.246296296,1,0,0,2.6819,Basalt_rect,3,0,3,0,1,
65bfc33d79b5cd4ab0ff8a2c,SCR,2024-06-20_15h27.12.985,LearnStrategy,2023.2.3,Win32,163.9344262,5,2,5,,,,,,,,3,15,,,,,,,,,,,,,1,3.917,0,,,,,,-0.344444444,-0.246296296,1,0,0,3.9172,Andesite_rect,4,0,4,0,1,
65bfc33d79b5cd4ab0ff8a2c,SCR,2024-06-20_15h27.12.985,LearnStrategy,2023.2.3,Win32,163.9344262,5,2,6,,,,,,,,5,09,,,,,,,,,,,,,5,0.978,1,,,,,,-0.322222222,-0.385185185,1,0,0,0.978,Obsidian_rect,5,0,5,0,1,
65bfc33d79b5cd4ab0ff8a2c,SCR,2024-06-20_15h27.12.985,LearnStrategy,2023.2.3,Win32,163.9344262,5,2,7,,,,,,,,1,16,,,,,,,,,,,,,1,4.704,1,,,,,,-0.435185185,-0.248148148,1,0,0,4.7036,Andesite_rect,6,0,6,0,1,
65bfc33d79b5cd4ab0ff8a2c,SCR,2024-06-20_15h27.12.985,LearnStrategy,2023.2.3,Win32,163.9344262,5,2,8,,,,,,,,6,08,,,,,,,,,,,,,6,1.663,1,,,,,,-0.157407407,-0.406481481,1,0,0,1.6629,Pegmatite_rect,7,0,7,0,1,
65bfc33d79b5cd4ab0ff8a2c,SCR,2024-06-20_15h27.12.985,LearnStrategy,2023.2.3,Win32,163.9344262,5,2,9,,,,,,,,4,09,,,,,,,,,,,,,2,2.533,0,,,,,,-0.15,-0.263888889,1,0,0,2.533,Basalt_rect,8,0,8,0,1,
65bfc33d79b5cd4ab0ff8a2c,SCR,2024-06-20_15h27.12.985,LearnStrategy,2023.2.3,Win32,163.9344262,5,2,10,,,,,,,,8,05,,,,,,,,,,,,,8,2.306,1,,,,,,0.371296296,-0.394444444,1,0,0,2.3063,Pumice_rect,9,0,9,0,1,
65bfc33d79b5cd4ab0ff8a2c,SCR,2024-06-20_15h27.12.985,LearnStrategy,2023.2.3,Win32,163.9344262,5,2,11,,,,,,,,3,02,,,,,,,,,,,,,1,2.741,0,,,,,,-0.425,-0.253703704,1,0,0,2.7415,Andesite_rect,10,0,10,0,1,
65bfc33d79b5cd4ab0ff8a2c,SCR,2024-06-20_15h27.12.985,LearnStrategy,2023.2.3,Win32,163.9344262,5,2,12,,,,,,,,8,04,,,,,,,,,,,,,8,0.916,1,,,,,,0.350925926,-0.405555556,1,0,0,0.9163,Pumice_rect,11,0,11,0,1,
65bfc33d79b5cd4ab0ff8a2c,SCR,2024-06-20_15h27.12.985,LearnStrategy,2023.2.3,Win32,163.9344262,5,2,13,,,,,,,,4,15,,,,,,,,,,,,,4,3.378,1,,,,,,0.322222222,-0.264814815,1,0,0,3.3777,Gabbro_rect,12,0,12,0,1,
65bfc33d79b5cd4ab0ff8a2c,SCR,2024-06-20_15h27.12.985,LearnStrategy,2023.2.3,Win32,163.9344262,5,2,14,,,,,,,,6,05,,,,,,,,,,,,,6,1.485,1,,,,,,-0.168518519,-0.397222222,1,0,0,1.4851,Pegmatite_rect,13,0,13,0,1,
65bfc33d79b5cd4ab0ff8a2c,SCR,2024-06-20_15h27.12.985,LearnStrategy,2023.2.3,Win32,163.9344262,5,2,15,,,,,,,,1,04,,,,,,,,,,,,,4,3.784,0,,,,,,0.362037037,-0.251851852,1,0,0,3.7844,Gabbro_rect,14,0,14,0,1,
65bfc33d79b5cd4ab0ff8a2c,SCR,2024-06-20_15h27.12.985,LearnStrategy,2023.2.3,Win32,163.9344262,5,2,16,,,,,,,,2,04,,,,,,,,,,,,,2,0.858,1,,,,,,-0.119444444,-0.251851852,1,0,0,0.8578,Basalt_rect,15,0,15,0,1,
65bfc33d79b5cd4ab0ff8a2c,SCR,2024-06-20_15h27.12.985,LearnStrategy,2023.2.3,Win32,163.9344262,6,1,1,0.217592593,0.073148148,1,0,0,0.9394,Diorite_14,3,14,4,6,0.939,3,14,0.186111111,-0.259259259,1,0,0,0.9709,Diorite_rect,3,0.971,1,0,0,0,0,1,,,,,,,,,,,,,
65bfc33d79b5cd4ab0ff8a2c,SCR,2024-06-20_15h27.12.985,LearnStrategy,2023.2.3,Win32,163.9344262,6,1,2,-0.255555556,-0.205555556,1,0,0,0.7196,Andesite_07,1,07,2,3,0.72,1,07,0.143518519,-0.250925926,1,0,0,0.7139,Diorite_rect,3,0.714,0,1,0,1,0,1,,,,,,,,,,,,,
65bfc33d79b5cd4ab0ff8a2c,SCR,2024-06-20_15h27.12.985,LearnStrategy,2023.2.3,Win32,163.9344262,6,1,3,0.277777778,0.130555556,1,0,0,0.6174,Diorite_14,3,14,4,6,0.617,8,06,0.09537037,-0.231481481,1,0,0,0.5901,Diorite_rect,3,0.59,1,2,0,2,0,1,,,,,,,,,,,,,
65bfc33d79b5cd4ab0ff8a2c,SCR,2024-06-20_15h27.12.985,LearnStrategy,2023.2.3,Win32,163.9344262,6,1,4,-0.1,0.299074074,1,0,0,0.5688,Diorite_07,3,07,5,4,0.569,4,14,0.171296296,-0.262037037,1,0,0,0.707,Diorite_rect,3,0.707,1,3,0,3,0,1,,,,,,,,,,,,,
65bfc33d79b5cd4ab0ff8a2c,SCR,2024-06-20_15h27.12.985,LearnStrategy,2023.2.3,Win32,163.9344262,6,1,5,0.053703704,0.426851852,1,0,0,0.6295,Andesite_05,1,05,6,5,0.629,6,11,-0.40462963,-0.25,1,0,0,0.8872,Andesite_rect,1,0.887,1,4,0,4,0,1,,,,,,,,,,,,,
65bfc33d79b5cd4ab0ff8a2c,SCR,2024-06-20_15h27.12.985,LearnStrategy,2023.2.3,Win32,163.9344262,6,1,6,-0.22037037,0.062962963,1,0,0,1.2107,Gabbro_11,4,11,4,3,1.211,4,01,-0.151851852,-0.24537037,1,0,0,1.4991,Basalt_rect,2,1.499,0,5,0,5,0,1,,,,,,,,,,,,,
65bfc33d79b5cd4ab0ff8a2c,SCR,2024-06-20_15h27.12.985,LearnStrategy,2023.2.3,Win32,163.9344262,6,1,7,0.548148148,0.09537037,1,0,0,0.7258,Peridotite_10,7,10,4,8,0.726,5,16,0.153703704,-0.416666667,1,0,0,0.8991,Peridotite_rect,7,0.899,1,6,0,6,0,1,,,,,,,,,,,,,
65bfc33d79b5cd4ab0ff8a2c,SCR,2024-06-20_15h27.12.985,LearnStrategy,2023.2.3,Win32,163.9344262,6,1,8,0.223148148,-0.430555556,1,0,0,0.9081,Gabbro_01,4,01,1,6,0.908,1,03,0.374074074,-0.255555556,1,0,0,2.5537,Gabbro_rect,4,2.554,1,7,0,7,0,1,,,,,,,,,,,,,
65bfc33d79b5cd4ab0ff8a2c,SCR,2024-06-20_15h27.12.985,LearnStrategy,2023.2.3,Win32,163.9344262,6,1,9,-0.032407407,-0.442592593,1,0,0,0.7319,Diorite_08,3,08,1,4,0.732,6,03,-0.362037037,-0.237037037,1,0,0,1.3717,Andesite_rect,1,1.372,0,8,0,8,0,1,,,,,,,,,,,,,
65bfc33d79b5cd4ab0ff8a2c,SCR,2024-06-20_15h27.12.985,LearnStrategy,2023.2.3,Win32,163.9344262,6,1,10,-0.40462963,-0.217592593,1,0,0,0.6652,Pegmatite_16,6,16,2,2,0.665,4,12,-0.166666667,-0.40462963,1,0,0,0.9173,Pegmatite_rect,6,0.917,1,9,0,9,0,1,,,,,,,,,,,,,
65bfc33d79b5cd4ab0ff8a2c,SCR,2024-06-20_15h27.12.985,LearnStrategy,2023.2.3,Win32,163.9344262,6,1,11,-0.126851852,0.293518519,1,0,0,1.271,Diorite_07,3,07,5,4,1.271,7,07,0.090740741,-0.252777778,1,0,0,0.6924,Diorite_rect,3,0.692,1,10,0,10,0,1,,,,,,,,,,,,,
65bfc33d79b5cd4ab0ff8a2c,SCR,2024-06-20_15h27.12.985,LearnStrategy,2023.2.3,Win32,163.9344262,6,1,12,-0.561111111,0.426851852,1,0,0,0.7871,Basalt_12,2,12,6,1,0.787,2,12,0.394444444,-0.402777778,1,0,0,0.8202,Pumice_rect,8,0.82,0,11,0,11,0,1,,,,,,,,,,,,,
65bfc33d79b5cd4ab0ff8a2c,SCR,2024-06-20_15h27.12.985,LearnStrategy,2023.2.3,Win32,163.9344262,6,1,13,-0.406481481,0.42037037,1,0,0,1.563,Basalt_05,2,05,6,2,1.563,2,01,-0.10462963,-0.231481481,1,0,0,0.8477,Basalt_rect,2,0.848,1,12,0,12,0,1,,,,,,,,,,,,,
65bfc33d79b5cd4ab0ff8a2c,SCR,2024-06-20_15h27.12.985,LearnStrategy,2023.2.3,Win32,163.9344262,6,1,14,-0.091666667,0.426851852,1,0,0,0.5261,Diorite_10,3,10,6,4,0.526,3,14,-0.331481481,-0.24537037,1,0,0,1.2689,Andesite_rect,1,1.269,0,13,0,13,0,1,,,,,,,,,,,,,
65bfc33d79b5cd4ab0ff8a2c,SCR,2024-06-20_15h27.12.985,LearnStrategy,2023.2.3,Win32,163.9344262,6,1,15,0.131481481,-0.097222222,1,0,0,0.8533,Andesite_06,1,06,3,5,0.853,1,06,0.131481481,-0.248148148,1,0,0,1.1415,Diorite_rect,3,1.141,0,14,0,14,0,1,,,,,,,,,,,,,
65bfc33d79b5cd4ab0ff8a2c,SCR,2024-06-20_15h27.12.985,LearnStrategy,2023.2.3,Win32,163.9344262,6,1,16,-0.083333333,-0.110185185,1,0,0,0.4171,Pumice_13,8,13,3,4,0.417,3,13,0.343518519,-0.384259259,1,0,0,0.5901,Pumice_rect,8,0.59,1,15,0,15,0,1,,,,,,,,,,,,,
65bfc33d79b5cd4ab0ff8a2c,SCR,2024-06-20_15h27.12.985,LearnStrategy,2023.2.3,Win32,163.9344262,6,2,1,,,,,,,,3,09,,,,,,,,,,,,,3,1.818,1,,,,,,0.172222222,-0.259259259,1,0,0,1.8179,Diorite_rect,0,0,0,0,1,
65bfc33d79b5cd4ab0ff8a2c,SCR,2024-06-20_15h27.12.985,LearnStrategy,2023.2.3,Win32,163.9344262,6,2,2,,,,,,,,4,10,,,,,,,,,,,,,2,4.652,0,,,,,,-0.100925926,-0.235185185,1,0,0,4.6522,Basalt_rect,1,0,1,0,1,
65bfc33d79b5cd4ab0ff8a2c,SCR,2024-06-20_15h27.12.985,LearnStrategy,2023.2.3,Win32,163.9344262,6,2,3,,,,,,,,5,04,,,,,,,,,,,,,5,1.342,1,,,,,,-0.358333333,-0.394444444,1,0,0,1.3419,Obsidian_rect,2,0,2,0,1,
65bfc33d79b5cd4ab0ff8a2c,SCR,2024-06-20_15h27.12.985,LearnStrategy,2023.2.3,Win32,163.9344262,6,2,4,,,,,,,,4,16,,,,,,,,,,,,,4,2.48,1,,,,,,0.403703704,-0.256481481,1,0,0,2.4801,Gabbro_rect,3,0,3,0,1,
65bfc33d79b5cd4ab0ff8a2c,SCR,2024-06-20_15h27.12.985,LearnStrategy,2023.2.3,Win32,163.9344262,6,2,5,,,,,,,,7,02,,,,,,,,,,,,,7,1,1,,,,,,0.086111111,-0.396296296,1,0,0,0.9998,Peridotite_rect,4,0,4,0,1,
65bfc33d79b5cd4ab0ff8a2c,SCR,2024-06-20_15h27.12.985,LearnStrategy,2023.2.3,Win32,163.9344262,6,2,6,,,,,,,,6,07,,,,,,,,,,,,,6,1.415,1,,,,,,-0.133333333,-0.400925926,1,0,0,1.4147,Pegmatite_rect,5,0,5,0,1,
65bfc33d79b5cd4ab0ff8a2c,SCR,2024-06-20_15h27.12.985,LearnStrategy,2023.2.3,Win32,163.9344262,6,2,7,,,,,,,,1,01,,,,,,,,,,,,,2,4.031,0,,,,,,-0.132407407,-0.252777778,1,0,0,4.0315,Basalt_rect,6,0,6,0,1,
65bfc33d79b5cd4ab0ff8a2c,SCR,2024-06-20_15h27.12.985,LearnStrategy,2023.2.3,Win32,163.9344262,6,2,8,,,,,,,,2,09,,,,,,,,,,,,,2,2.715,1,,,,,,-0.132407407,-0.252777778,1,0,0,2.7149,Basalt_rect,7,0,7,0,1,
65bfc33d79b5cd4ab0ff8a2c,SCR,2024-06-20_15h27.12.985,LearnStrategy,2023.2.3,Win32,163.9344262,6,2,9,,,,,,,,8,10,,,,,,,,,,,,,8,2.596,1,,,,,,0.383333333,-0.40462963,1,0,0,2.5965,Pumice_rect,8,0,8,0,1,
65bfc33d79b5cd4ab0ff8a2c,SCR,2024-06-20_15h27.12.985,LearnStrategy,2023.2.3,Win32,163.9344262,6,2,10,,,,,,,,1,02,,,,,,,,,,,,,2,3.724,0,,,,,,-0.169444444,-0.230555556,1,0,0,3.7239,Basalt_rect,9,0,9,0,1,
65bfc33d79b5cd4ab0ff8a2c,SCR,2024-06-20_15h27.12.985,LearnStrategy,2023.2.3,Win32,163.9344262,6,2,11,,,,,,,,3,11,,,,,,,,,,,,,3,7.578,1,,,,,,0.212962963,-0.256481481,1,0,0,7.5784,Diorite_rect,10,0,10,0,1,
65bfc33d79b5cd4ab0ff8a2c,SCR,2024-06-20_15h27.12.985,LearnStrategy,2023.2.3,Win32,163.9344262,6,2,12,,,,,,,,7,12,,,,,,,,,,,,,7,2.272,1,,,,,,0.123148148,-0.401851852,1,0,0,2.2724,Peridotite_rect,11,0,11,0,1,
65bfc33d79b5cd4ab0ff8a2c,SCR,2024-06-20_15h27.12.985,LearnStrategy,2023.2.3,Win32,163.9344262,6,2,13,,,,,,,,2,02,,,,,,,,,,,,,2,1.197,1,,,,,,-0.125925926,-0.243518519,1,0,0,1.1966,Basalt_rect,12,0,12,0,1,
65bfc33d79b5cd4ab0ff8a2c,SCR,2024-06-20_15h27.12.985,LearnStrategy,2023.2.3,Win32,163.9344262,6,2,14,,,,,,,,8,16,,,,,,,,,,,,,8,1.55,1,,,,,,0.375,-0.405555556,1,0,0,1.5496,Pumice_rect,13,0,13,0,1,
65bfc33d79b5cd4ab0ff8a2c,SCR,2024-06-20_15h27.12.985,LearnStrategy,2023.2.3,Win32,163.9344262,6,2,15,,,,,,,,6,12,,,,,,,,,,,,,3,3.053,0,,,,,,0.152777778,-0.253703704,1,0,0,3.0526,Diorite_rect,14,0,14,0,1,
65bfc33d79b5cd4ab0ff8a2c,SCR,2024-06-20_15h27.12.985,LearnStrategy,2023.2.3,Win32,163.9344262,6,2,16,,,,,,,,5,05,,,,,,,,,,,,,5,1.275,1,,,,,,-0.357407407,-0.401851852,1,0,0,1.2751,Obsidian_rect,15,0,15,0,1,
65bfc33d79b5cd4ab0ff8a2c,SCR,2024-06-20_15h27.12.985,LearnStrategy,2023.2.3,Win32,163.9344262,7,1,1,-0.248148148,0.25462963,1,0,0,1.1145,Pegmatite_06,6,06,5,3,1.115,6,06,-0.167592593,-0.393518519,1,0,0,3.7053,Pegmatite_rect,6,3.705,1,0,0,0,0,1,,,,,,,,,,,,,
65bfc33d79b5cd4ab0ff8a2c,SCR,2024-06-20_15h27.12.985,LearnStrategy,2023.2.3,Win32,163.9344262,7,1,2,0.55462963,0.27962963,1,0,0,0.8721,Diorite_13,3,13,5,8,0.872,3,13,0.174074074,-0.228703704,1,0,0,1.0562,Diorite_rect,3,1.056,1,1,0,1,0,1,,,,,,,,,,,,,
65bfc33d79b5cd4ab0ff8a2c,SCR,2024-06-20_15h27.12.985,LearnStrategy,2023.2.3,Win32,163.9344262,7,1,3,-0.403703704,-0.413888889,1,0,0,1.1203,Peridotite_16,7,16,1,2,1.12,7,16,0.14537037,-0.394444444,1,0,0,0.8504,Peridotite_rect,7,0.85,1,2,0,2,0,1,,,,,,,,,,,,,
65bfc33d79b5cd4ab0ff8a2c,SCR,2024-06-20_15h27.12.985,LearnStrategy,2023.2.3,Win32,163.9344262,7,1,4,-0.365740741,-0.244444444,1,0,0,0.805,Pegmatite_16,6,16,2,2,0.805,6,16,-0.106481481,-0.390740741,1,0,0,0.6991,Pegmatite_rect,6,0.699,1,3,0,3,0,1,,,,,,,,,,,,,
65bfc33d79b5cd4ab0ff8a2c,SCR,2024-06-20_15h27.12.985,LearnStrategy,2023.2.3,Win32,163.9344262,7,1,5,0.052777778,0.386111111,1,0,0,0.5508,Andesite_05,1,05,6,5,0.551,1,05,-0.356481481,-0.235185185,1,0,0,0.9065,Andesite_rect,1,0.906,1,4,0,4,0,1,,,,,,,,,,,,,
65bfc33d79b5cd4ab0ff8a2c,SCR,2024-06-20_15h27.12.985,LearnStrategy,2023.2.3,Win32,163.9344262,7,1,6,-0.056481481,0.259259259,1,0,0,0.4899,Diorite_07,3,07,5,4,0.49,3,07,0.1,-0.237962963,1,0,0,0.8143,Diorite_rect,3,0.814,1,5,0,5,0,1,,,,,,,,,,,,,
65bfc33d79b5cd4ab0ff8a2c,SCR,2024-06-20_15h27.12.985,LearnStrategy,2023.2.3,Win32,163.9344262,7,1,7,-0.081481481,0.089814815,1,0,0,0.3993,Basalt_11,2,11,4,4,0.399,2,11,-0.090740741,-0.251851852,1,0,0,1.1961,Basalt_rect,2,1.196,1,6,0,6,0,1,,,,,,,,,,,,,
65bfc33d79b5cd4ab0ff8a2c,SCR,2024-06-20_15h27.12.985,LearnStrategy,2023.2.3,Win32,163.9344262,7,1,8,-0.574074074,0.394444444,1,0,0,0.6715,Basalt_12,2,12,6,1,0.672,2,12,-0.121296296,-0.241666667,1,0,0,1.2038,Basalt_rect,2,1.204,1,7,0,7,0,1,,,,,,,,,,,,,
65bfc33d79b5cd4ab0ff8a2c,SCR,2024-06-20_15h27.12.985,LearnStrategy,2023.2.3,Win32,163.9344262,7,1,9,0.215740741,-0.083333333,1,0,0,0.7505,Obsidian_10,5,10,3,6,0.75,5,10,-0.430555556,-0.417592593,1,0,0,0.7597,Obsidian_rect,5,0.76,1,8,0,8,0,1,,,,,,,,,,,,,
65bfc33d79b5cd4ab0ff8a2c,SCR,2024-06-20_15h27.12.985,LearnStrategy,2023.2.3,Win32,163.9344262,7,1,10,-0.548148148,-0.408333333,1,0,0,0.7507,Gabbro_05,4,05,1,1,0.751,4,05,0.162037037,-0.42037037,1,0,0,1.5843,Peridotite_rect,7,1.584,0,9,0,9,0,1,,,,,,,,,,,,,
65bfc33d79b5cd4ab0ff8a2c,SCR,2024-06-20_15h27.12.985,LearnStrategy,2023.2.3,Win32,163.9344262,7,1,11,0.438888889,0.09537037,1,0,0,0.5805,Andesite_09,1,09,4,7,0.581,1,09,-0.397222222,-0.269444444,1,0,0,1.3356,Andesite_rect,1,1.336,1,10,0,10,0,1,,,,,,,,,,,,,
65bfc33d79b5cd4ab0ff8a2c,SCR,2024-06-20_15h27.12.985,LearnStrategy,2023.2.3,Win32,163.9344262,7,1,12,-0.227777778,-0.263888889,1,0,0,0.8535,Andesite_07,1,07,2,3,0.853,1,07,0.113888889,-0.252777778,1,0,0,0.984,Diorite_rect,3,0.984,0,11,0,11,0,1,,,,,,,,,,,,,
65bfc33d79b5cd4ab0ff8a2c,SCR,2024-06-20_15h27.12.985,LearnStrategy,2023.2.3,Win32,163.9344262,7,1,13,-0.556481481,-0.400925926,1,0,0,0.7023,Gabbro_05,4,05,1,1,0.702,4,05,0.358333333,-0.231481481,1,0,0,1.0039,Gabbro_rect,4,1.004,1,12,0,12,0,1,,,,,,,,,,,,,
65bfc33d79b5cd4ab0ff8a2c,SCR,2024-06-20_15h27.12.985,LearnStrategy,2023.2.3,Win32,163.9344262,7,1,14,0.383333333,0.378703704,1,0,0,0.8475,Gabbro_13,4,13,6,7,0.847,4,13,0.421296296,-0.236111111,1,0,0,0.7112,Gabbro_rect,4,0.711,1,13,0,13,0,1,,,,,,,,,,,,,
65bfc33d79b5cd4ab0ff8a2c,SCR,2024-06-20_15h27.12.985,LearnStrategy,2023.2.3,Win32,163.9344262,7,1,15,0.383333333,-0.277777778,1,0,0,0.8415,Andesite_11,1,11,2,7,0.841,1,11,-0.409259259,-0.252777778,1,0,0,3.1965,Andesite_rect,1,3.196,1,14,0,14,0,1,,,,,,,,,,,,,
65bfc33d79b5cd4ab0ff8a2c,SCR,2024-06-20_15h27.12.985,LearnStrategy,2023.2.3,Win32,163.9344262,7,1,16,0.123148148,0.251851852,1,0,0,0.5259,Pumice_09,8,09,5,5,0.526,8,09,0.392592593,-0.408333333,1,0,0,1.0084,Pumice_rect,8,1.008,1,15,0,15,0,1,,,,,,,,,,,,,
65bfc33d79b5cd4ab0ff8a2c,SCR,2024-06-20_15h27.12.985,LearnStrategy,2023.2.3,Win32,163.9344262,7,2,1,,,,,,,,6,07,,,,,,,,,,,,,6,2.742,1,,,,,,-0.12962963,-0.402777778,1,0,0,2.742,Pegmatite_rect,0,0,0,0,1,
65bfc33d79b5cd4ab0ff8a2c,SCR,2024-06-20_15h27.12.985,LearnStrategy,2023.2.3,Win32,163.9344262,7,2,2,,,,,,,,1,04,,,,,,,,,,,,,1,1.269,1,,,,,,-0.35462963,-0.248148148,1,0,0,1.2692,Andesite_rect,1,0,1,0,1,
65bfc33d79b5cd4ab0ff8a2c,SCR,2024-06-20_15h27.12.985,LearnStrategy,2023.2.3,Win32,163.9344262,7,2,3,,,,,,,,1,02,,,,,,,,,,,,,1,2.366,1,,,,,,-0.35462963,-0.248148148,1,0,0,2.366,Andesite_rect,2,0,2,0,1,
65bfc33d79b5cd4ab0ff8a2c,SCR,2024-06-20_15h27.12.985,LearnStrategy,2023.2.3,Win32,163.9344262,7,2,4,,,,,,,,2,16,,,,,,,,,,,,,4,2.513,0,,,,,,0.357407407,-0.269444444,1,0,0,2.5129,Gabbro_rect,3,0,3,0,1,
65bfc33d79b5cd4ab0ff8a2c,SCR,2024-06-20_15h27.12.985,LearnStrategy,2023.2.3,Win32,163.9344262,7,2,5,,,,,,,,8,15,,,,,,,,,,,,,2,47.191,0,,,,,,-0.125,-0.244444444,1,0,0,47.1913,Basalt_rect,4,0,4,0,1,
65bfc33d79b5cd4ab0ff8a2c,SCR,2024-06-20_15h27.12.985,LearnStrategy,2023.2.3,Win32,163.9344262,7,2,6,,,,,,,,8,05,,,,,,,,,,,,,8,3.463,1,,,,,,0.437037037,-0.411111111,1,0,0,3.4633,Pumice_rect,5,0,5,0,1,
65bfc33d79b5cd4ab0ff8a2c,SCR,2024-06-20_15h27.12.985,LearnStrategy,2023.2.3,Win32,163.9344262,7,2,7,,,,,,,,3,11,,,,,,,,,,,,,3,3.597,1,,,,,,0.089814815,-0.246296296,1,0,0,3.5966,Diorite_rect,6,0,6,0,1,
65bfc33d79b5cd4ab0ff8a2c,SCR,2024-06-20_15h27.12.985,LearnStrategy,2023.2.3,Win32,163.9344262,7,2,8,,,,,,,,4,16,,,,,,,,,,,,,4,1.852,1,,,,,,0.34537037,-0.249074074,1,0,0,1.8518,Gabbro_rect,7,0,7,0,1,
65bfc33d79b5cd4ab0ff8a2c,SCR,2024-06-20_15h27.12.985,LearnStrategy,2023.2.3,Win32,163.9344262,7,2,9,,,,,,,,2,02,,,,,,,,,,,,,2,1.505,1,,,,,,-0.150925926,-0.251851852,1,0,0,1.5049,Basalt_rect,8,0,8,0,1,
65bfc33d79b5cd4ab0ff8a2c,SCR,2024-06-20_15h27.12.985,LearnStrategy,2023.2.3,Win32,163.9344262,7,2,10,,,,,,,,7,02,,,,,,,,,,,,,7,1.045,1,,,,,,0.108333333,-0.380555556,1,0,0,1.0449,Peridotite_rect,9,0,9,0,1,
65bfc33d79b5cd4ab0ff8a2c,SCR,2024-06-20_15h27.12.985,LearnStrategy,2023.2.3,Win32,163.9344262,7,2,11,,,,,,,,5,14,,,,,,,,,,,,,5,1.171,1,,,,,,-0.45,-0.391666667,1,0,0,1.1714,Obsidian_rect,10,0,10,0,1,
65bfc33d79b5cd4ab0ff8a2c,SCR,2024-06-20_15h27.12.985,LearnStrategy,2023.2.3,Win32,163.9344262,7,2,12,,,,,,,,3,02,,,,,,,,,,,,,1,2.506,0,,,,,,-0.403703704,-0.238888889,1,0,0,2.5059,Andesite_rect,11,0,11,0,1,
65bfc33d79b5cd4ab0ff8a2c,SCR,2024-06-20_15h27.12.985,LearnStrategy,2023.2.3,Win32,163.9344262,7,2,13,,,,,,,,7,13,,,,,,,,,,,,,7,1.693,1,,,,,,0.17962963,-0.388888889,1,0,0,1.6928,Peridotite_rect,12,0,12,0,1,
65bfc33d79b5cd4ab0ff8a2c,SCR,2024-06-20_15h27.12.985,LearnStrategy,2023.2.3,Win32,163.9344262,7,2,14,,,,,,,,5,05,,,,,,,,,,,,,5,1.193,1,,,,,,-0.341666667,-0.390740741,1,0,0,1.1926,Obsidian_rect,13,0,13,0,1,
65bfc33d79b5cd4ab0ff8a2c,SCR,2024-06-20_15h27.12.985,LearnStrategy,2023.2.3,Win32,163.9344262,7,2,15,,,,,,,,6,05,,,,,,,,,,,,,6,1.129,1,,,,,,-0.173148148,-0.397222222,1,0,0,1.1288,Pegmatite_rect,14,0,14,0,1,
65bfc33d79b5cd4ab0ff8a2c,SCR,2024-06-20_15h27.12.985,LearnStrategy,2023.2.3,Win32,163.9344262,7,2,16,,,,,,,,4,15,,,,,,,,,,,,,1,1.761,0,,,,,,-0.419444444,-0.258333333,1,0,0,1.7613,Andesite_rect,15,0,15,0,1,
65bfc33d79b5cd4ab0ff8a2c,SCR,2024-06-20_15h27.12.985,LearnStrategy,2023.2.3,Win32,163.9344262,8,1,1,-0.509259259,0.239814815,1,0,0,0.993,Pumice_14,8,14,5,1,0.993,8,14,0.425,-0.407407407,1,0,0,1.4507,Pumice_rect,8,1.451,1,0,0,0,0,1,,,,,,,,,,,,,
65bfc33d79b5cd4ab0ff8a2c,SCR,2024-06-20_15h27.12.985,LearnStrategy,2023.2.3,Win32,163.9344262,8,1,2,0.381481481,-0.136111111,1,0,0,0.678,Obsidian_16,5,16,3,7,0.678,5,16,-0.344444444,-0.403703704,1,0,0,1.2444,Obsidian_rect,5,1.244,1,1,0,1,0,1,,,,,,,,,,,,,
65bfc33d79b5cd4ab0ff8a2c,SCR,2024-06-20_15h27.12.985,LearnStrategy,2023.2.3,Win32,163.9344262,8,1,3,0.509259259,0.281481481,1,0,0,0.7989,Diorite_13,3,13,5,8,0.799,3,13,-0.393518519,-0.25462963,1,0,0,0.9839,Andesite_rect,1,0.984,0,2,0,2,0,1,,,,,,,,,,,,,
65bfc33d79b5cd4ab0ff8a2c,SCR,2024-06-20_15h27.12.985,LearnStrategy,2023.2.3,Win32,163.9344262,8,1,4,0.538888889,-0.400925926,1,0,0,0.9567,Gabbro_12,4,12,1,8,0.957,4,12,0.417592593,-0.253703704,1,0,0,0.6445,Gabbro_rect,4,0.644,1,3,0,3,0,1,,,,,,,,,,,,,
65bfc33d79b5cd4ab0ff8a2c,SCR,2024-06-20_15h27.12.985,LearnStrategy,2023.2.3,Win32,163.9344262,8,1,5,0.359259259,0.380555556,1,0,0,0.775,Gabbro_13,4,13,6,7,0.775,4,13,0.357407407,-0.239814815,1,0,0,1.1416,Gabbro_rect,4,1.142,1,4,0,4,0,1,,,,,,,,,,,,,
65bfc33d79b5cd4ab0ff8a2c,SCR,2024-06-20_15h27.12.985,LearnStrategy,2023.2.3,Win32,163.9344262,8,1,6,0.405555556,-0.25462963,1,0,0,0.9202,Andesite_11,1,11,2,7,0.92,1,11,-0.424074074,-0.230555556,1,0,0,1.7086,Andesite_rect,1,1.709,1,5,0,5,0,1,,,,,,,,,,,,,
65bfc33d79b5cd4ab0ff8a2c,SCR,2024-06-20_15h27.12.985,LearnStrategy,2023.2.3,Win32,163.9344262,8,1,7,0.082407407,0.396296296,1,0,0,0.7752,Andesite_05,1,05,6,5,0.775,1,05,-0.355555556,-0.242592593,1,0,0,1.0683,Andesite_rect,1,1.068,1,6,0,6,0,1,,,,,,,,,,,,,
65bfc33d79b5cd4ab0ff8a2c,SCR,2024-06-20_15h27.12.985,LearnStrategy,2023.2.3,Win32,163.9344262,8,1,8,-0.072222222,0.397222222,1,0,0,0.7021,Diorite_10,3,10,6,4,0.702,3,10,-0.338888889,-0.22962963,1,0,0,1.3234,Andesite_rect,1,1.323,0,7,0,7,0,1,,,,,,,,,,,,,
65bfc33d79b5cd4ab0ff8a2c,SCR,2024-06-20_15h27.12.985,LearnStrategy,2023.2.3,Win32,163.9344262,8,1,9,0.542592593,-0.417592593,1,0,0,0.8355,Gabbro_12,4,12,1,8,0.836,4,12,0.459259259,-0.241666667,1,0,0,0.5144,Gabbro_rect,4,0.514,1,8,0,8,0,1,,,,,,,,,,,,,
65bfc33d79b5cd4ab0ff8a2c,SCR,2024-06-20_15h27.12.985,LearnStrategy,2023.2.3,Win32,163.9344262,8,1,10,-0.589814815,0.44537037,1,0,0,0.6845,Basalt_12,2,12,6,1,0.685,2,12,-0.116666667,-0.269444444,1,0,0,1.3232,Basalt_rect,2,1.323,1,9,0,9,0,1,,,,,,,,,,,,,
65bfc33d79b5cd4ab0ff8a2c,SCR,2024-06-20_15h27.12.985,LearnStrategy,2023.2.3,Win32,163.9344262,8,1,11,0.064814815,-0.097222222,1,0,0,0.6051,Andesite_06,1,06,3,5,0.605,1,06,-0.317592593,-0.262962963,1,0,0,2.2445,Andesite_rect,1,2.245,1,10,0,10,0,1,,,,,,,,,,,,,
65bfc33d79b5cd4ab0ff8a2c,SCR,2024-06-20_15h27.12.985,LearnStrategy,2023.2.3,Win32,163.9344262,8,1,12,-0.226851852,0.242592593,1,0,0,0.9023,Pegmatite_06,6,06,5,3,0.902,6,06,-0.090740741,-0.391666667,1,0,0,1.2415,Pegmatite_rect,6,1.241,1,11,0,11,0,1,,,,,,,,,,,,,
65bfc33d79b5cd4ab0ff8a2c,SCR,2024-06-20_15h27.12.985,LearnStrategy,2023.2.3,Win32,163.9344262,8,1,13,-0.374074074,-0.246296296,1,0,0,0.7507,Pegmatite_16,6,16,2,2,0.751,6,16,-0.168518519,-0.410185185,1,0,0,0.6017,Pegmatite_rect,6,0.602,1,12,0,12,0,1,,,,,,,,,,,,,
65bfc33d79b5cd4ab0ff8a2c,SCR,2024-06-20_15h27.12.985,LearnStrategy,2023.2.3,Win32,163.9344262,8,1,14,0.524074074,0.062962963,1,0,0,0.7205,Peridotite_10,7,10,4,8,0.721,7,10,0.110185185,-0.394444444,1,0,0,1.075,Peridotite_rect,7,1.075,1,13,0,13,0,1,,,,,,,,,,,,,
65bfc33d79b5cd4ab0ff8a2c,SCR,2024-06-20_15h27.12.985,LearnStrategy,2023.2.3,Win32,163.9344262,8,1,15,-0.04537037,0.22037037,1,0,0,1.0233,Diorite_07,3,07,5,4,1.023,3,07,0.114814815,-0.27037037,1,0,0,0.6931,Diorite_rect,3,0.693,1,14,0,14,0,1,,,,,,,,,,,,,
65bfc33d79b5cd4ab0ff8a2c,SCR,2024-06-20_15h27.12.985,LearnStrategy,2023.2.3,Win32,163.9344262,8,1,16,-0.350925926,0.39537037,1,0,0,0.8654,Basalt_05,2,05,6,2,0.865,2,05,-0.118518519,-0.259259259,1,0,0,1.8449,Basalt_rect,2,1.845,1,15,0,15,0,1,,,,,,,,,,,,,
65bfc33d79b5cd4ab0ff8a2c,SCR,2024-06-20_15h27.12.985,LearnStrategy,2023.2.3,Win32,163.9344262,8,2,1,,,,,,,,1,14,,,,,,,,,,,,,1,1.742,1,,,,,,-0.339814815,-0.249074074,1,0,0,1.742,Andesite_rect,0,0,0,0,1,
65bfc33d79b5cd4ab0ff8a2c,SCR,2024-06-20_15h27.12.985,LearnStrategy,2023.2.3,Win32,163.9344262,8,2,2,,,,,,,,8,10,,,,,,,,,,,,,8,4.349,1,,,,,,0.385185185,-0.414814815,1,0,0,4.3486,Pumice_rect,1,0,1,0,1,
65bfc33d79b5cd4ab0ff8a2c,SCR,2024-06-20_15h27.12.985,LearnStrategy,2023.2.3,Win32,163.9344262,8,2,3,,,,,,,,5,09,,,,,,,,,,,,,5,0.899,1,,,,,,-0.42037037,-0.398148148,1,0,0,0.8995,Obsidian_rect,2,0,2,0,1,
65bfc33d79b5cd4ab0ff8a2c,SCR,2024-06-20_15h27.12.985,LearnStrategy,2023.2.3,Win32,163.9344262,8,2,4,,,,,,,,7,05,,,,,,,,,,,,,7,1.197,1,,,,,,0.092592593,-0.419444444,1,0,0,1.1975,Peridotite_rect,3,0,3,0,1,
65bfc33d79b5cd4ab0ff8a2c,SCR,2024-06-20_15h27.12.985,LearnStrategy,2023.2.3,Win32,163.9344262,8,2,5,,,,,,,,6,10,,,,,,,,,,,,,7,1.457,0,,,,,,0.092592593,-0.419444444,1,0,0,1.4571,Peridotite_rect,4,0,4,0,1,
65bfc33d79b5cd4ab0ff8a2c,SCR,2024-06-20_15h27.12.985,LearnStrategy,2023.2.3,Win32,163.9344262,8,2,6,,,,,,,,2,04,,,,,,,,,,,,,2,1.475,1,,,,,,-0.099074074,-0.25462963,1,0,0,1.4746,Basalt_rect,5,0,5,0,1,
65bfc33d79b5cd4ab0ff8a2c,SCR,2024-06-20_15h27.12.985,LearnStrategy,2023.2.3,Win32,163.9344262,8,2,7,,,,,,,,6,13,,,,,,,,,,,,,6,2.058,1,,,,,,-0.121296296,-0.402777778,1,0,0,2.0581,Pegmatite_rect,6,0,6,0,1,
65bfc33d79b5cd4ab0ff8a2c,SCR,2024-06-20_15h27.12.985,LearnStrategy,2023.2.3,Win32,163.9344262,8,2,8,,,,,,,,4,08,,,,,,,,,,,,,4,3.216,1,,,,,,0.391666667,-0.265740741,1,0,0,3.2165,Gabbro_rect,7,0,7,0,1,
65bfc33d79b5cd4ab0ff8a2c,SCR,2024-06-20_15h27.12.985,LearnStrategy,2023.2.3,Win32,163.9344262,8,2,9,,,,,,,,1,01,,,,,,,,,,,,,1,2.146,1,,,,,,-0.398148148,-0.252777778,1,0,0,2.1459,Andesite_rect,8,0,8,0,1,
65bfc33d79b5cd4ab0ff8a2c,SCR,2024-06-20_15h27.12.985,LearnStrategy,2023.2.3,Win32,163.9344262,8,2,10,,,,,,,,4,03,,,,,,,,,,,,,1,3.544,0,,,,,,-0.396296296,-0.266666667,1,0,0,3.5443,Andesite_rect,9,0,9,0,1,
65bfc33d79b5cd4ab0ff8a2c,SCR,2024-06-20_15h27.12.985,LearnStrategy,2023.2.3,Win32,163.9344262,8,2,11,,,,,,,,3,16,,,,,,,,,,,,,3,1.08,1,,,,,,0.106481481,-0.257407407,1,0,0,1.0804,Diorite_rect,10,0,10,0,1,
65bfc33d79b5cd4ab0ff8a2c,SCR,2024-06-20_15h27.12.985,LearnStrategy,2023.2.3,Win32,163.9344262,8,2,12,,,,,,,,7,12,,,,,,,,,,,,,7,1.063,1,,,,,,0.119444444,-0.392592593,1,0,0,1.0633,Peridotite_rect,11,0,11,0,1,
65bfc33d79b5cd4ab0ff8a2c,SCR,2024-06-20_15h27.12.985,LearnStrategy,2023.2.3,Win32,163.9344262,8,2,13,,,,,,,,5,12,,,,,,,,,,,,,5,1.02,1,,,,,,-0.363888889,-0.387037037,1,0,0,1.0199,Obsidian_rect,12,0,12,0,1,
65bfc33d79b5cd4ab0ff8a2c,SCR,2024-06-20_15h27.12.985,LearnStrategy,2023.2.3,Win32,163.9344262,8,2,14,,,,,,,,8,16,,,,,,,,,,,,,8,0.93,1,,,,,,0.44537037,-0.388888889,1,0,0,0.9298,Pumice_rect,13,0,13,0,1,
65bfc33d79b5cd4ab0ff8a2c,SCR,2024-06-20_15h27.12.985,LearnStrategy,2023.2.3,Win32,163.9344262,8,2,15,,,,,,,,2,10,,,,,,,,,,,,,2,1.944,1,,,,,,-0.119444444,-0.266666667,1,0,0,1.9436,Basalt_rect,14,0,14,0,1,
65bfc33d79b5cd4ab0ff8a2c,SCR,2024-06-20_15h27.12.985,LearnStrategy,2023.2.3,Win32,163.9344262,8,2,16,,,,,,,,3,09,,,,,,,,,,,,,3,1.452,1,,,,,,0.125,-0.252777778,1,0,0,1.4515,Diorite_rect,15,0,15,0,1,
65bfc33d79b5cd4ab0ff8a2c,SCR,2024-06-20_15h27.12.985,LearnStrategy,2023.2.3,Win32,163.9344262,9,1,1,-0.069444444,0.093518519,1,0,0,0.7568,Basalt_11,2,11,4,4,0.757,2,11,-0.17037037,-0.255555556,1,0,0,1.276,Basalt_rect,2,1.276,1,0,0,0,0,1,,,,,,,,,,,,,
65bfc33d79b5cd4ab0ff8a2c,SCR,2024-06-20_15h27.12.985,LearnStrategy,2023.2.3,Win32,163.9344262,9,1,2,-0.381481481,-0.107407407,1,0,0,0.6898,Andesite_03,1,03,3,2,0.69,1,03,-0.382407407,-0.257407407,1,0,0,1.1414,Andesite_rect,1,1.141,1,1,0,1,0,1,,,,,,,,,,,,,
65bfc33d79b5cd4ab0ff8a2c,SCR,2024-06-20_15h27.12.985,LearnStrategy,2023.2.3,Win32,163.9344262,9,1,3,0.075,-0.057407407,1,0,0,0.6051,Andesite_06,1,06,3,5,0.605,1,06,-0.338888889,-0.252777778,1,0,0,1.454,Andesite_rect,1,1.454,1,2,0,2,0,1,,,,,,,,,,,,,
65bfc33d79b5cd4ab0ff8a2c,SCR,2024-06-20_15h27.12.985,LearnStrategy,2023.2.3,Win32,163.9344262,9,1,4,-0.244444444,0.072222222,1,0,0,0.5262,Gabbro_11,4,11,4,3,0.526,4,11,0.39537037,-0.232407407,1,0,0,1.3266,Gabbro_rect,4,1.327,1,3,0,3,0,1,,,,,,,,,,,,,
65bfc33d79b5cd4ab0ff8a2c,SCR,2024-06-20_15h27.12.985,LearnStrategy,2023.2.3,Win32,163.9344262,9,1,5,-0.268518519,-0.389814815,1,0,0,0.7081,Basalt_01,2,01,1,3,0.708,2,01,-0.112962963,-0.250925926,1,0,0,0.7964,Basalt_rect,2,0.796,1,4,0,4,0,1,,,,,,,,,,,,,
65bfc33d79b5cd4ab0ff8a2c,SCR,2024-06-20_15h27.12.985,LearnStrategy,2023.2.3,Win32,163.9344262,9,1,6,0.534259259,-0.365740741,1,0,0,0.842,Gabbro_12,4,12,1,8,0.842,4,12,0.367592593,-0.263888889,1,0,0,0.9657,Gabbro_rect,4,0.966,1,5,0,5,0,1,,,,,,,,,,,,,
65bfc33d79b5cd4ab0ff8a2c,SCR,2024-06-20_15h27.12.985,LearnStrategy,2023.2.3,Win32,163.9344262,9,1,7,-0.411111111,0.073148148,1,0,0,0.5747,Pegmatite_15,6,15,4,2,0.575,6,15,-0.175,-0.405555556,1,0,0,1.0567,Pegmatite_rect,6,1.057,1,6,0,6,0,1,,,,,,,,,,,,,
65bfc33d79b5cd4ab0ff8a2c,SCR,2024-06-20_15h27.12.985,LearnStrategy,2023.2.3,Win32,163.9344262,9,1,8,0.051851852,-0.408333333,1,0,0,0.7562,Peridotite_07,7,07,1,5,0.756,7,07,0.163888889,-0.417592593,1,0,0,0.9605,Peridotite_rect,7,0.96,1,7,0,7,0,1,,,,,,,,,,,,,
65bfc33d79b5cd4ab0ff8a2c,SCR,2024-06-20_15h27.12.985,LearnStrategy,2023.2.3,Win32,163.9344262,9,1,9,-0.07037037,0.382407407,1,0,0,0.6596,Diorite_10,3,10,6,4,0.66,3,10,-0.361111111,-0.236111111,1,0,0,1.4265,Andesite_rect,1,1.427,0,8,0,8,0,1,,,,,,,,,,,,,
65bfc33d79b5cd4ab0ff8a2c,SCR,2024-06-20_15h27.12.985,LearnStrategy,2023.2.3,Win32,163.9344262,9,1,10,-0.211111111,0.093518519,1,0,0,0.5323,Gabbro_11,4,11,4,3,0.532,4,11,-0.373148148,-0.25,1,0,0,1.1748,Andesite_rect,1,1.175,0,9,0,9,0,1,,,,,,,,,,,,,
65bfc33d79b5cd4ab0ff8a2c,SCR,2024-06-20_15h27.12.985,LearnStrategy,2023.2.3,Win32,163.9344262,9,1,11,0.559259259,-0.266666667,1,0,0,0.6417,Pumice_02,8,02,2,8,0.642,8,02,0.37037037,-0.401851852,1,0,0,1.307,Pumice_rect,8,1.307,1,10,0,10,0,1,,,,,,,,,,,,,
65bfc33d79b5cd4ab0ff8a2c,SCR,2024-06-20_15h27.12.985,LearnStrategy,2023.2.3,Win32,163.9344262,9,1,12,-0.392592593,-0.103703704,1,0,0,0.5991,Andesite_03,1,03,3,2,0.599,1,03,-0.432407407,-0.243518519,1,0,0,1.2855,Andesite_rect,1,1.285,1,11,0,11,0,1,,,,,,,,,,,,,
65bfc33d79b5cd4ab0ff8a2c,SCR,2024-06-20_15h27.12.985,LearnStrategy,2023.2.3,Win32,163.9344262,9,1,13,0.538888889,0.423148148,1,0,0,0.9814,Basalt_14,2,14,6,8,0.981,4,14,0.382407407,-0.260185185,1,0,0,0.7898,Gabbro_rect,4,0.79,0,12,0,12,0,1,,,,,,,,,,,,,
65bfc33d79b5cd4ab0ff8a2c,SCR,2024-06-20_15h27.12.985,LearnStrategy,2023.2.3,Win32,163.9344262,9,1,14,-0.369444444,0.236111111,1,0,0,0.581,Obsidian_08,5,08,5,2,0.581,5,08,-0.434259259,-0.401851852,1,0,0,0.8448,Obsidian_rect,5,0.845,1,13,0,13,0,1,,,,,,,,,,,,,
65bfc33d79b5cd4ab0ff8a2c,SCR,2024-06-20_15h27.12.985,LearnStrategy,2023.2.3,Win32,163.9344262,9,1,15,-0.085185185,0.271296296,1,0,0,0.5022,Diorite_07,3,07,5,4,0.502,3,07,0.165740741,-0.233333333,1,0,0,0.6555,Diorite_rect,3,0.656,1,14,0,14,0,1,,,,,,,,,,,,,
65bfc33d79b5cd4ab0ff8a2c,SCR,2024-06-20_15h27.12.985,LearnStrategy,2023.2.3,Win32,163.9344262,9,1,16,-0.24537037,-0.272222222,1,0,0,1.2176,Andesite_07,1,07,2,3,1.218,6,16,-0.350925926,-0.262037037,1,0,0,1.4623,Andesite_rect,1,1.462,1,15,0,15,0,1,,,,,,,,,,,,,
65bfc33d79b5cd4ab0ff8a2c,SCR,2024-06-20_15h27.12.985,LearnStrategy,2023.2.3,Win32,163.9344262,9,2,1,,,,,,,,7,14,,,,,,,,,,,,,7,1.136,1,,,,,,0.110185185,-0.384259259,1,0,0,1.1356,Peridotite_rect,0,0,0,0,1,
65bfc33d79b5cd4ab0ff8a2c,SCR,2024-06-20_15h27.12.985,LearnStrategy,2023.2.3,Win32,163.9344262,9,2,2,,,,,,,,2,06,,,,,,,,,,,,,2,1.268,1,,,,,,-0.098148148,-0.258333333,1,0,0,1.2682,Basalt_rect,1,0,1,0,1,
65bfc33d79b5cd4ab0ff8a2c,SCR,2024-06-20_15h27.12.985,LearnStrategy,2023.2.3,Win32,163.9344262,9,2,3,,,,,,,,3,15,,,,,,,,,,,,,1,1.877,0,,,,,,-0.377777778,-0.255555556,1,0,0,1.8774,Andesite_rect,2,0,2,0,1,
65bfc33d79b5cd4ab0ff8a2c,SCR,2024-06-20_15h27.12.985,LearnStrategy,2023.2.3,Win32,163.9344262,9,2,4,,,,,,,,4,10,,,,,,,,,,,,,2,8.803,0,,,,,,-0.10462963,-0.262962963,1,0,0,8.8031,Basalt_rect,3,0,3,0,1,
65bfc33d79b5cd4ab0ff8a2c,SCR,2024-06-20_15h27.12.985,LearnStrategy,2023.2.3,Win32,163.9344262,9,2,5,,,,,,,,1,10,,,,,,,,,,,,,1,6.712,1,,,,,,-0.401851852,-0.242592593,1,0,0,6.712,Andesite_rect,4,0,4,0,1,
65bfc33d79b5cd4ab0ff8a2c,SCR,2024-06-20_15h27.12.985,LearnStrategy,2023.2.3,Win32,163.9344262,9,2,6,,,,,,,,6,08,,,,,,,,,,,,,6,0.917,1,,,,,,-0.125925926,-0.388888889,1,0,0,0.9167,Pegmatite_rect,5,0,5,0,1,
65bfc33d79b5cd4ab0ff8a2c,SCR,2024-06-20_15h27.12.985,LearnStrategy,2023.2.3,Win32,163.9344262,9,2,7,,,,,,,,2,09,,,,,,,,,,,,,2,2.841,1,,,,,,-0.117592593,-0.268518519,1,0,0,2.8407,Basalt_rect,6,0,6,0,1,
65bfc33d79b5cd4ab0ff8a2c,SCR,2024-06-20_15h27.12.985,LearnStrategy,2023.2.3,Win32,163.9344262,9,2,8,,,,,,,,8,04,,,,,,,,,,,,,8,2.493,1,,,,,,0.383333333,-0.406481481,1,0,0,2.4931,Pumice_rect,7,0,7,0,1,
65bfc33d79b5cd4ab0ff8a2c,SCR,2024-06-20_15h27.12.985,LearnStrategy,2023.2.3,Win32,163.9344262,9,2,9,,,,,,,,1,16,,,,,,,,,,,,,1,3.336,1,,,,,,-0.377777778,-0.243518519,1,0,0,3.3361,Andesite_rect,8,0,8,0,1,
65bfc33d79b5cd4ab0ff8a2c,SCR,2024-06-20_15h27.12.985,LearnStrategy,2023.2.3,Win32,163.9344262,9,2,10,,,,,,,,7,08,,,,,,,,,,,,,7,1.02,1,,,,,,0.158333333,-0.406481481,1,0,0,1.0196,Peridotite_rect,9,0,9,0,1,
65bfc33d79b5cd4ab0ff8a2c,SCR,2024-06-20_15h27.12.985,LearnStrategy,2023.2.3,Win32,163.9344262,9,2,11,,,,,,,,8,08,,,,,,,,,,,,,2,1.923,0,,,,,,-0.139814815,-0.249074074,1,0,0,1.923,Basalt_rect,10,0,10,0,1,
65bfc33d79b5cd4ab0ff8a2c,SCR,2024-06-20_15h27.12.985,LearnStrategy,2023.2.3,Win32,163.9344262,9,2,12,,,,,,,,5,06,,,,,,,,,,,,,5,0.948,1,,,,,,-0.347222222,-0.387962963,1,0,0,0.9478,Obsidian_rect,11,0,11,0,1,
65bfc33d79b5cd4ab0ff8a2c,SCR,2024-06-20_15h27.12.985,LearnStrategy,2023.2.3,Win32,163.9344262,9,2,13,,,,,,,,5,04,,,,,,,,,,,,,5,0.842,1,,,,,,-0.374074074,-0.388888889,1,0,0,0.8423,Obsidian_rect,12,0,12,0,1,
65bfc33d79b5cd4ab0ff8a2c,SCR,2024-06-20_15h27.12.985,LearnStrategy,2023.2.3,Win32,163.9344262,9,2,14,,,,,,,,6,12,,,,,,,,,,,,,3,3.826,0,,,,,,0.128703704,-0.250925926,1,0,0,3.8258,Diorite_rect,13,0,13,0,1,
65bfc33d79b5cd4ab0ff8a2c,SCR,2024-06-20_15h27.12.985,LearnStrategy,2023.2.3,Win32,163.9344262,9,2,15,,,,,,,,3,12,,,,,,,,,,,,,3,3.986,1,,,,,,0.199074074,-0.265740741,1,0,0,3.9857,Diorite_rect,14,0,14,0,1,
65bfc33d79b5cd4ab0ff8a2c,SCR,2024-06-20_15h27.12.985,LearnStrategy,2023.2.3,Win32,163.9344262,9,2,16,,,,,,,,4,09,,,,,,,,,,,,,2,3.423,0,,,,,,-0.156481481,-0.262037037,1,0,0,3.4227,Basalt_rect,15,0,15,0,1,
65bfc33d79b5cd4ab0ff8a2c,SCR,2024-06-20_15h27.12.985,LearnStrategy,2023.2.3,Win32,163.9344262,,,,,,,,,,,,,,,,,,,,,,,,,,,,,,,,,,,,,,,,,,,,,1
65bfc33d79b5cd4ab0ff8a2c,SCR,2024-06-20_15h27.12.985,LearnStrategy,2023.2.3,Win32,163.9344262,,,,,,,,,,,,,,,,,,,,,,,,,,,,,,,,,,,,,,,,,,,,,
65bfc33d79b5cd4ab0ff8a2c,SCR,2024-06-20_15h27.12.985,LearnStrategy,2023.2.3,Win32,163.9344262,,,,,,,,,,,4,05,1,1,,,,,,,,,,,,,,,,,,,,,,,,,,,,,,,
65bfc33d79b5cd4ab0ff8a2c,SCR,2024-06-20_15h27.12.985,LearnStrategy,2023.2.3,Win32,163.9344262,,,,,,,,,,,7,16,1,2,,,,,,,,,,,,,,,,,,,,,,,,,,,,,,,
65bfc33d79b5cd4ab0ff8a2c,SCR,2024-06-20_15h27.12.985,LearnStrategy,2023.2.3,Win32,163.9344262,,,,,,,,,,,2,01,1,3,,,,,,,,,,,,,,,,,,,,,,,,,,,,,,,
65bfc33d79b5cd4ab0ff8a2c,SCR,2024-06-20_15h27.12.985,LearnStrategy,2023.2.3,Win32,163.9344262,,,,,,,,,,,3,08,1,4,,,,,,,,,,,,,,,,,,,,,,,,,,,,,,,
65bfc33d79b5cd4ab0ff8a2c,SCR,2024-06-20_15h27.12.985,LearnStrategy,2023.2.3,Win32,163.9344262,,,,,,,,,,,7,07,1,5,,,,,,,,,,,,,,,,,,,,,,,,,,,,,,,
65bfc33d79b5cd4ab0ff8a2c,SCR,2024-06-20_15h27.12.985,LearnStrategy,2023.2.3,Win32,163.9344262,,,,,,,,,,,4,01,1,6,,,,,,,,,,,,,,,,,,,,,,,,,,,,,,,
65bfc33d79b5cd4ab0ff8a2c,SCR,2024-06-20_15h27.12.985,LearnStrategy,2023.2.3,Win32,163.9344262,,,,,,,,,,,7,04,1,7,,,,,,,,,,,,,,,,,,,,,,,,,,,,,,,
65bfc33d79b5cd4ab0ff8a2c,SCR,2024-06-20_15h27.12.985,LearnStrategy,2023.2.3,Win32,163.9344262,,,,,,,,,,,4,12,1,8,,,,,,,,,,,,,,,,,,,,,,,,,,,,,,,
65bfc33d79b5cd4ab0ff8a2c,SCR,2024-06-20_15h27.12.985,LearnStrategy,2023.2.3,Win32,163.9344262,,,,,,,,,,,8,03,2,1,,,,,,,,,,,,,,,,,,,,,,,,,,,,,,,
65bfc33d79b5cd4ab0ff8a2c,SCR,2024-06-20_15h27.12.985,LearnStrategy,2023.2.3,Win32,163.9344262,,,,,,,,,,,6,16,2,2,,,,,,,,,,,,,,,,,,,,,,,,,,,,,,,
65bfc33d79b5cd4ab0ff8a2c,SCR,2024-06-20_15h27.12.985,LearnStrategy,2023.2.3,Win32,163.9344262,,,,,,,,,,,1,07,2,3,,,,,,,,,,,,,,,,,,,,,,,,,,,,,,,
65bfc33d79b5cd4ab0ff8a2c,SCR,2024-06-20_15h27.12.985,LearnStrategy,2023.2.3,Win32,163.9344262,,,,,,,,,,,6,09,2,4,,,,,,,,,,,,,,,,,,,,,,,,,,,,,,,
65bfc33d79b5cd4ab0ff8a2c,SCR,2024-06-20_15h27.12.985,LearnStrategy,2023.2.3,Win32,163.9344262,,,,,,,,,,,5,07,2,5,,,,,,,,,,,,,,,,,,,,,,,,,,,,,,,
65bfc33d79b5cd4ab0ff8a2c,SCR,2024-06-20_15h27.12.985,LearnStrategy,2023.2.3,Win32,163.9344262,,,,,,,,,,,7,15,2,6,,,,,,,,,,,,,,,,,,,,,,,,,,,,,,,
65bfc33d79b5cd4ab0ff8a2c,SCR,2024-06-20_15h27.12.985,LearnStrategy,2023.2.3,Win32,163.9344262,,,,,,,,,,,1,11,2,7,,,,,,,,,,,,,,,,,,,,,,,,,,,,,,,
65bfc33d79b5cd4ab0ff8a2c,SCR,2024-06-20_15h27.12.985,LearnStrategy,2023.2.3,Win32,163.9344262,,,,,,,,,,,8,02,2,8,,,,,,,,,,,,,,,,,,,,,,,,,,,,,,,
65bfc33d79b5cd4ab0ff8a2c,SCR,2024-06-20_15h27.12.985,LearnStrategy,2023.2.3,Win32,163.9344262,,,,,,,,,,,6,03,3,1,,,,,,,,,,,,,,,,,,,,,,,,,,,,,,,
65bfc33d79b5cd4ab0ff8a2c,SCR,2024-06-20_15h27.12.985,LearnStrategy,2023.2.3,Win32,163.9344262,,,,,,,,,,,1,03,3,2,,,,,,,,,,,,,,,,,,,,,,,,,,,,,,,
65bfc33d79b5cd4ab0ff8a2c,SCR,2024-06-20_15h27.12.985,LearnStrategy,2023.2.3,Win32,163.9344262,,,,,,,,,,,3,06,3,3,,,,,,,,,,,,,,,,,,,,,,,,,,,,,,,
65bfc33d79b5cd4ab0ff8a2c,SCR,2024-06-20_15h27.12.985,LearnStrategy,2023.2.3,Win32,163.9344262,,,,,,,,,,,8,13,3,4,,,,,,,,,,,,,,,,,,,,,,,,,,,,,,,
65bfc33d79b5cd4ab0ff8a2c,SCR,2024-06-20_15h27.12.985,LearnStrategy,2023.2.3,Win32,163.9344262,,,,,,,,,,,1,06,3,5,,,,,,,,,,,,,,,,,,,,,,,,,,,,,,,
65bfc33d79b5cd4ab0ff8a2c,SCR,2024-06-20_15h27.12.985,LearnStrategy,2023.2.3,Win32,163.9344262,,,,,,,,,,,5,10,3,6,,,,,,,,,,,,,,,,,,,,,,,,,,,,,,,
65bfc33d79b5cd4ab0ff8a2c,SCR,2024-06-20_15h27.12.985,LearnStrategy,2023.2.3,Win32,163.9344262,,,,,,,,,,,5,16,3,7,,,,,,,,,,,,,,,,,,,,,,,,,,,,,,,
65bfc33d79b5cd4ab0ff8a2c,SCR,2024-06-20_15h27.12.985,LearnStrategy,2023.2.3,Win32,163.9344262,,,,,,,,,,,7,06,3,8,,,,,,,,,,,,,,,,,,,,,,,,,,,,,,,
65bfc33d79b5cd4ab0ff8a2c,SCR,2024-06-20_15h27.12.985,LearnStrategy,2023.2.3,Win32,163.9344262,,,,,,,,,,,4,14,4,1,,,,,,,,,,,,,,,,,,,,,,,,,,,,,,,
65bfc33d79b5cd4ab0ff8a2c,SCR,2024-06-20_15h27.12.985,LearnStrategy,2023.2.3,Win32,163.9344262,,,,,,,,,,,6,15,4,2,,,,,,,,,,,,,,,,,,,,,,,,,,,,,,,
65bfc33d79b5cd4ab0ff8a2c,SCR,2024-06-20_15h27.12.985,LearnStrategy,2023.2.3,Win32,163.9344262,,,,,,,,,,,4,11,4,3,,,,,,,,,,,,,,,,,,,,,,,,,,,,,,,
65bfc33d79b5cd4ab0ff8a2c,SCR,2024-06-20_15h27.12.985,LearnStrategy,2023.2.3,Win32,163.9344262,,,,,,,,,,,2,11,4,4,,,,,,,,,,,,,,,,,,,,,,,,,,,,,,,
65bfc33d79b5cd4ab0ff8a2c,SCR,2024-06-20_15h27.12.985,LearnStrategy,2023.2.3,Win32,163.9344262,,,,,,,,,,,2,08,4,5,,,,,,,,,,,,,,,,,,,,,,,,,,,,,,,
65bfc33d79b5cd4ab0ff8a2c,SCR,2024-06-20_15h27.12.985,LearnStrategy,2023.2.3,Win32,163.9344262,,,,,,,,,,,3,14,4,6,,,,,,,,,,,,,,,,,,,,,,,,,,,,,,,
65bfc33d79b5cd4ab0ff8a2c,SCR,2024-06-20_15h27.12.985,LearnStrategy,2023.2.3,Win32,163.9344262,,,,,,,,,,,1,09,4,7,,,,,,,,,,,,,,,,,,,,,,,,,,,,,,,
65bfc33d79b5cd4ab0ff8a2c,SCR,2024-06-20_15h27.12.985,LearnStrategy,2023.2.3,Win32,163.9344262,,,,,,,,,,,7,10,4,8,,,,,,,,,,,,,,,,,,,,,,,,,,,,,,,
65bfc33d79b5cd4ab0ff8a2c,SCR,2024-06-20_15h27.12.985,LearnStrategy,2023.2.3,Win32,163.9344262,,,,,,,,,,,8,14,5,1,,,,,,,,,,,,,,,,,,,,,,,,,,,,,,,
65bfc33d79b5cd4ab0ff8a2c,SCR,2024-06-20_15h27.12.985,LearnStrategy,2023.2.3,Win32,163.9344262,,,,,,,,,,,5,08,5,2,,,,,,,,,,,,,,,,,,,,,,,,,,,,,,,
65bfc33d79b5cd4ab0ff8a2c,SCR,2024-06-20_15h27.12.985,LearnStrategy,2023.2.3,Win32,163.9344262,,,,,,,,,,,6,06,5,3,,,,,,,,,,,,,,,,,,,,,,,,,,,,,,,
65bfc33d79b5cd4ab0ff8a2c,SCR,2024-06-20_15h27.12.985,LearnStrategy,2023.2.3,Win32,163.9344262,,,,,,,,,,,3,07,5,4,,,,,,,,,,,,,,,,,,,,,,,,,,,,,,,
65bfc33d79b5cd4ab0ff8a2c,SCR,2024-06-20_15h27.12.985,LearnStrategy,2023.2.3,Win32,163.9344262,,,,,,,,,,,8,09,5,5,,,,,,,,,,,,,,,,,,,,,,,,,,,,,,,
65bfc33d79b5cd4ab0ff8a2c,SCR,2024-06-20_15h27.12.985,LearnStrategy,2023.2.3,Win32,163.9344262,,,,,,,,,,,5,02,5,6,,,,,,,,,,,,,,,,,,,,,,,,,,,,,,,
65bfc33d79b5cd4ab0ff8a2c,SCR,2024-06-20_15h27.12.985,LearnStrategy,2023.2.3,Win32,163.9344262,,,,,,,,,,,5,11,5,7,,,,,,,,,,,,,,,,,,,,,,,,,,,,,,,
65bfc33d79b5cd4ab0ff8a2c,SCR,2024-06-20_15h27.12.985,LearnStrategy,2023.2.3,Win32,163.9344262,,,,,,,,,,,3,13,5,8,,,,,,,,,,,,,,,,,,,,,,,,,,,,,,,
65bfc33d79b5cd4ab0ff8a2c,SCR,2024-06-20_15h27.12.985,LearnStrategy,2023.2.3,Win32,163.9344262,,,,,,,,,,,2,12,6,1,,,,,,,,,,,,,,,,,,,,,,,,,,,,,,,
65bfc33d79b5cd4ab0ff8a2c,SCR,2024-06-20_15h27.12.985,LearnStrategy,2023.2.3,Win32,163.9344262,,,,,,,,,,,2,05,6,2,,,,,,,,,,,,,,,,,,,,,,,,,,,,,,,
65bfc33d79b5cd4ab0ff8a2c,SCR,2024-06-20_15h27.12.985,LearnStrategy,2023.2.3,Win32,163.9344262,,,,,,,,,,,8,06,6,3,,,,,,,,,,,,,,,,,,,,,,,,,,,,,,,
65bfc33d79b5cd4ab0ff8a2c,SCR,2024-06-20_15h27.12.985,LearnStrategy,2023.2.3,Win32,163.9344262,,,,,,,,,,,3,10,6,4,,,,,,,,,,,,,,,,,,,,,,,,,,,,,,,
65bfc33d79b5cd4ab0ff8a2c,SCR,2024-06-20_15h27.12.985,LearnStrategy,2023.2.3,Win32,163.9344262,,,,,,,,,,,1,05,6,5,,,,,,,,,,,,,,,,,,,,,,,,,,,,,,,
65bfc33d79b5cd4ab0ff8a2c,SCR,2024-06-20_15h27.12.985,LearnStrategy,2023.2.3,Win32,163.9344262,,,,,,,,,,,6,11,6,6,,,,,,,,,,,,,,,,,,,,,,,,,,,,,,,
65bfc33d79b5cd4ab0ff8a2c,SCR,2024-06-20_15h27.12.985,LearnStrategy,2023.2.3,Win32,163.9344262,,,,,,,,,,,4,13,6,7,,,,,,,,,,,,,,,,,,,,,,,,,,,,,,,
65bfc33d79b5cd4ab0ff8a2c,SCR,2024-06-20_15h27.12.985,LearnStrategy,2023.2.3,Win32,163.9344262,,,,,,,,,,,2,14,6,8,,,,,,,,,,,,,,,,,,,,,,,,,,,,,,,