participant,condition,date,expName,psychopyVersion,OS,frameRate,block,phase,trial,learn_mouse.x,learn_mouse.y,learn_mouse.leftButton,learn_mouse.midButton,learn_mouse.rightButton,learn_mouse.time,learn_mouse.clicked_name,cat,token,row,col,t_select,cat_rec,token_rec,cat_mouse_l.x,cat_mouse_l.y,cat_mouse_l.leftButton,cat_mouse_l.midButton,cat_mouse_l.rightButton,cat_mouse_l.time,cat_mouse_l.clicked_name,resp,t_resp,corr,train_trials.thisRepN,train_trials.thisTrialN,train_trials.thisN,train_trials.thisIndex,train_trials.ran,cat_mouse_t.x,cat_mouse_t.y,cat_mouse_t.leftButton,cat_mouse_t.midButton,cat_mouse_t.rightButton,cat_mouse_t.time,cat_mouse_t.clicked_name,test_trials.thisRepN,test_trials.thisTrialN,test_trials.thisN,test_trials.thisIndex,test_trials.ran,Bonus
65bf9aeb592e888df327d648,SCR,2024-06-25_14h24.27.772,LearnStrategy,2023.2.3,Win32,62.11180124,,,,,,,,,,,,,,,,,,,,,,,,,,,,,,,,,,,,,,,,,,,,,
65bf9aeb592e888df327d648,SCR,2024-06-25_14h24.27.772,LearnStrategy,2023.2.3,Win32,62.11180124,1,1,1,-0.092447917,-0.080729167,1,0,0,5.3499,Pumice_16,8,16,3,4,5.35,8,16,-0.069010417,-0.40234375,1,0,0,7.1299,Pegmatite_rect,6,7.13,0,0,0,0,0,1,,,,,,,,,,,,,
65bf9aeb592e888df327d648,SCR,2024-06-25_14h24.27.772,LearnStrategy,2023.2.3,Win32,62.11180124,1,1,2,0.270833333,0.390625,1,0,0,3.1109,Andesite_05,1,05,6,6,3.111,1,05,-0.424479167,-0.260416667,1,0,0,3.7118,Andesite_rect,1,3.712,1,1,0,1,0,1,,,,,,,,,,,,,
65bf9aeb592e888df327d648,SCR,2024-06-25_14h24.27.772,LearnStrategy,2023.2.3,Win32,62.11180124,1,1,3,0.239583333,-0.390625,1,0,0,1.6949,Diorite_11,3,11,1,6,1.695,3,11,0.126302083,-0.236979167,1,0,0,8.4663,Diorite_rect,3,8.466,1,2,0,2,0,1,,,,,,,,,,,,,
65bf9aeb592e888df327d648,SCR,2024-06-25_14h24.27.772,LearnStrategy,2023.2.3,Win32,62.11180124,1,1,4,0.091145833,-0.4296875,1,0,0,1.326,Pumice_02,8,02,1,5,1.326,8,02,-0.040364583,-0.404947917,1,0,0,4.2916,Pegmatite_rect,6,4.292,0,3,0,3,0,1,,,,,,,,,,,,,
65bf9aeb592e888df327d648,SCR,2024-06-25_14h24.27.772,LearnStrategy,2023.2.3,Win32,62.11180124,1,1,5,-0.350260417,0.243489583,1,0,0,1.7635,Diorite_13,3,13,5,2,1.763,3,13,0.106770833,-0.420572917,1,0,0,2.8441,Peridotite_rect,7,2.844,0,4,0,4,0,1,,,,,,,,,,,,,
65bf9aeb592e888df327d648,SCR,2024-06-25_14h24.27.772,LearnStrategy,2023.2.3,Win32,62.11180124,1,1,6,-0.095052083,-0.397135417,1,0,0,1.0764,Peridotite_15,7,15,1,4,1.076,7,15,0.200520833,-0.391927083,1,0,0,7.9649,Peridotite_rect,7,7.965,1,5,0,5,0,1,,,,,,,,,,,,,
65bf9aeb592e888df327d648,SCR,2024-06-25_14h24.27.772,LearnStrategy,2023.2.3,Win32,62.11180124,1,1,7,-0.041666667,0.09765625,1,0,0,1.6547,Pegmatite_15,6,15,4,4,1.655,6,15,-0.34765625,-0.401041667,1,0,0,4.2003,Obsidian_rect,5,4.2,0,6,0,6,0,1,,,,,,,,,,,,,
65bf9aeb592e888df327d648,SCR,2024-06-25_14h24.27.772,LearnStrategy,2023.2.3,Win32,62.11180124,1,1,8,0.524739583,-0.233072917,1,0,0,1.5101,Andesite_04,1,04,2,8,1.51,1,04,0.100260417,-0.243489583,1,0,0,4.8363,Diorite_rect,3,4.836,0,7,0,7,0,1,,,,,,,,,,,,,
65bf9aeb592e888df327d648,SCR,2024-06-25_14h24.27.772,LearnStrategy,2023.2.3,Win32,62.11180124,1,1,9,0.420572917,-0.233072917,1,0,0,1.0949,Obsidian_02,5,02,2,7,1.095,5,02,-0.36328125,-0.411458333,1,0,0,1.3882,Obsidian_rect,5,1.388,1,8,0,8,0,1,,,,,,,,,,,,,
65bf9aeb592e888df327d648,SCR,2024-06-25_14h24.27.772,LearnStrategy,2023.2.3,Win32,62.11180124,1,1,10,0.065104167,0.100260417,1,0,0,0.7569,Obsidian_06,5,06,4,5,0.757,5,06,-0.341145833,-0.381510417,1,0,0,2.3291,Obsidian_rect,5,2.329,1,9,0,9,0,1,,,,,,,,,,,,,
65bf9aeb592e888df327d648,SCR,2024-06-25_14h24.27.772,LearnStrategy,2023.2.3,Win32,62.11180124,1,1,11,-0.037760417,0.423177083,1,0,0,1.4169,Pegmatite_10,6,10,6,4,1.417,6,10,-0.080729167,-0.41015625,1,0,0,3.3874,Pegmatite_rect,6,3.387,1,10,0,10,0,1,,,,,,,,,,,,,
65bf9aeb592e888df327d648,SCR,2024-06-25_14h24.27.772,LearnStrategy,2023.2.3,Win32,62.11180124,1,1,12,-0.575520833,0.216145833,1,0,0,1.0935,Gabbro_03,4,03,5,1,1.094,4,03,-0.334635417,-0.26171875,1,0,0,1.2268,Andesite_rect,1,1.227,0,11,0,11,0,1,,,,,,,,,,,,,
65bf9aeb592e888df327d648,SCR,2024-06-25_14h24.27.772,LearnStrategy,2023.2.3,Win32,62.11180124,1,1,13,0.549479167,0.389322917,1,0,0,0.888,Basalt_08,2,08,6,8,0.888,2,08,-0.40234375,-0.399739583,1,0,0,7.9773,Obsidian_rect,5,7.977,0,12,0,12,0,1,,,,,,,,,,,,,
65bf9aeb592e888df327d648,SCR,2024-06-25_14h24.27.772,LearnStrategy,2023.2.3,Win32,62.11180124,1,1,14,-0.596354167,-0.270833333,1,0,0,1.0002,Peridotite_08,7,08,2,1,1,7,08,0.072916667,-0.255208333,1,0,0,6.1697,Diorite_rect,3,6.17,0,13,0,13,0,1,,,,,,,,,,,,,
65bf9aeb592e888df327d648,SCR,2024-06-25_14h24.27.772,LearnStrategy,2023.2.3,Win32,62.11180124,1,1,15,-0.548177083,0.37109375,1,0,0,1.1967,Basalt_02,2,02,6,1,1.197,2,02,0.119791667,-0.395833333,1,0,0,2.4559,Peridotite_rect,7,2.456,0,14,0,14,0,1,,,,,,,,,,,,,
65bf9aeb592e888df327d648,SCR,2024-06-25_14h24.27.772,LearnStrategy,2023.2.3,Win32,62.11180124,1,1,16,0.537760417,-0.075520833,1,0,0,1.3915,Gabbro_11,4,11,3,8,1.392,4,11,0.098958333,-0.243489583,1,0,0,4.6916,Diorite_rect,3,4.692,0,15,0,15,0,1,,,,,,,,,,,,,
65bf9aeb592e888df327d648,SCR,2024-06-25_14h24.27.772,LearnStrategy,2023.2.3,Win32,62.11180124,1,2,1,,,,,,,,2,10,,,,,,,,,,,,,2,2.875,1,,,,,,-0.096354167,-0.251302083,1,0,0,2.8751,Basalt_rect,0,0,0,0,1,
65bf9aeb592e888df327d648,SCR,2024-06-25_14h24.27.772,LearnStrategy,2023.2.3,Win32,62.11180124,1,2,2,,,,,,,,5,05,,,,,,,,,,,,,5,1.589,1,,,,,,-0.309895833,-0.3984375,1,0,0,1.589,Obsidian_rect,1,0,1,0,1,
65bf9aeb592e888df327d648,SCR,2024-06-25_14h24.27.772,LearnStrategy,2023.2.3,Win32,62.11180124,1,2,3,,,,,,,,1,16,,,,,,,,,,,,,3,1.362,0,,,,,,0.055989583,-0.251302083,1,0,0,1.3617,Diorite_rect,2,0,2,0,1,
65bf9aeb592e888df327d648,SCR,2024-06-25_14h24.27.772,LearnStrategy,2023.2.3,Win32,62.11180124,1,2,4,,,,,,,,6,03,,,,,,,,,,,,,6,3.736,1,,,,,,-0.096354167,-0.3984375,1,0,0,3.7362,Pegmatite_rect,3,0,3,0,1,
65bf9aeb592e888df327d648,SCR,2024-06-25_14h24.27.772,LearnStrategy,2023.2.3,Win32,62.11180124,1,2,5,,,,,,,,7,13,,,,,,,,,,,,,4,2.812,0,,,,,,0.3203125,-0.244791667,1,0,0,2.8117,Gabbro_rect,4,0,4,0,1,
65bf9aeb592e888df327d648,SCR,2024-06-25_14h24.27.772,LearnStrategy,2023.2.3,Win32,62.11180124,1,2,6,,,,,,,,4,10,,,,,,,,,,,,,8,3.733,0,,,,,,0.365885417,-0.384114583,1,0,0,3.733,Pumice_rect,5,0,5,0,1,
65bf9aeb592e888df327d648,SCR,2024-06-25_14h24.27.772,LearnStrategy,2023.2.3,Win32,62.11180124,1,2,7,,,,,,,,7,07,,,,,,,,,,,,,8,1.752,0,,,,,,0.328125,-0.389322917,1,0,0,1.7522,Pumice_rect,6,0,6,0,1,
65bf9aeb592e888df327d648,SCR,2024-06-25_14h24.27.772,LearnStrategy,2023.2.3,Win32,62.11180124,1,2,8,,,,,,,,8,09,,,,,,,,,,,,,8,1.856,1,,,,,,0.358072917,-0.421875,1,0,0,1.8556,Pumice_rect,7,0,7,0,1,
65bf9aeb592e888df327d648,SCR,2024-06-25_14h24.27.772,LearnStrategy,2023.2.3,Win32,62.11180124,1,2,9,,,,,,,,1,14,,,,,,,,,,,,,3,1.968,0,,,,,,0.111979167,-0.255208333,1,0,0,1.9683,Diorite_rect,8,0,8,0,1,
65bf9aeb592e888df327d648,SCR,2024-06-25_14h24.27.772,LearnStrategy,2023.2.3,Win32,62.11180124,1,2,10,,,,,,,,3,16,,,,,,,,,,,,,3,2.863,1,,,,,,0.049479167,-0.259114583,1,0,0,2.8627,Diorite_rect,9,0,9,0,1,
65bf9aeb592e888df327d648,SCR,2024-06-25_14h24.27.772,LearnStrategy,2023.2.3,Win32,62.11180124,1,2,11,,,,,,,,8,03,,,,,,,,,,,,,8,1.712,1,,,,,,0.358072917,-0.39453125,1,0,0,1.7122,Pumice_rect,10,0,10,0,1,
65bf9aeb592e888df327d648,SCR,2024-06-25_14h24.27.772,LearnStrategy,2023.2.3,Win32,62.11180124,1,2,12,,,,,,,,6,13,,,,,,,,,,,,,2,3.212,0,,,,,,-0.126302083,-0.260416667,1,0,0,3.212,Basalt_rect,11,0,11,0,1,
65bf9aeb592e888df327d648,SCR,2024-06-25_14h24.27.772,LearnStrategy,2023.2.3,Win32,62.11180124,1,2,13,,,,,,,,2,05,,,,,,,,,,,,,4,4.015,0,,,,,,0.333333333,-0.240885417,1,0,0,4.0149,Gabbro_rect,12,0,12,0,1,
65bf9aeb592e888df327d648,SCR,2024-06-25_14h24.27.772,LearnStrategy,2023.2.3,Win32,62.11180124,1,2,14,,,,,,,,5,04,,,,,,,,,,,,,5,1.246,1,,,,,,-0.404947917,-0.404947917,1,0,0,1.2462,Obsidian_rect,13,0,13,0,1,
65bf9aeb592e888df327d648,SCR,2024-06-25_14h24.27.772,LearnStrategy,2023.2.3,Win32,62.11180124,1,2,15,,,,,,,,4,13,,,,,,,,,,,,,7,1.661,0,,,,,,0.1015625,-0.390625,1,0,0,1.661,Peridotite_rect,14,0,14,0,1,
65bf9aeb592e888df327d648,SCR,2024-06-25_14h24.27.772,LearnStrategy,2023.2.3,Win32,62.11180124,1,2,16,,,,,,,,3,07,,,,,,,,,,,,,6,1.78,0,,,,,,-0.065104167,-0.37890625,1,0,0,1.7796,Pegmatite_rect,15,0,15,0,1,
65bf9aeb592e888df327d648,SCR,2024-06-25_14h24.27.772,LearnStrategy,2023.2.3,Win32,62.11180124,2,1,1,-0.385416667,0.1328125,1,0,0,1.471,Diorite_08,3,08,4,2,1.471,3,08,0.08203125,-0.235677083,1,0,0,1.4341,Diorite_rect,3,1.434,1,0,0,0,0,1,,,,,,,,,,,,,
65bf9aeb592e888df327d648,SCR,2024-06-25_14h24.27.772,LearnStrategy,2023.2.3,Win32,62.11180124,2,1,2,-0.516927083,0.41015625,1,0,0,0.9303,Basalt_02,2,02,6,1,0.93,2,02,-0.118489583,-0.389322917,1,0,0,2.8695,Pegmatite_rect,6,2.87,0,1,0,1,0,1,,,,,,,,,,,,,
65bf9aeb592e888df327d648,SCR,2024-06-25_14h24.27.772,LearnStrategy,2023.2.3,Win32,62.11180124,2,1,3,0.595052083,0.266927083,1,0,0,0.9407,Andesite_10,1,10,5,8,0.941,1,10,0.321614583,-0.38671875,1,0,0,1.0999,Pumice_rect,8,1.1,0,2,0,2,0,1,,,,,,,,,,,,,
65bf9aeb592e888df327d648,SCR,2024-06-25_14h24.27.772,LearnStrategy,2023.2.3,Win32,62.11180124,2,1,4,0.231770833,-0.09375,1,0,0,0.7928,Pegmatite_07,6,07,3,6,0.793,6,07,-0.368489583,-0.415364583,1,0,0,3.1358,Obsidian_rect,5,3.136,0,3,0,3,0,1,,,,,,,,,,,,,
65bf9aeb592e888df327d648,SCR,2024-06-25_14h24.27.772,LearnStrategy,2023.2.3,Win32,62.11180124,2,1,5,-0.552083333,-0.240885417,1,0,0,1.671,Peridotite_08,7,08,2,1,1.671,7,08,0.309895833,-0.391927083,1,0,0,1.6677,Pumice_rect,8,1.668,0,4,0,4,0,1,,,,,,,,,,,,,
65bf9aeb592e888df327d648,SCR,2024-06-25_14h24.27.772,LearnStrategy,2023.2.3,Win32,62.11180124,2,1,6,0.26953125,0.283854167,1,0,0,0.844,Basalt_09,2,09,5,6,0.844,2,09,-0.11328125,-0.231770833,1,0,0,0.7587,Basalt_rect,2,0.759,1,5,0,5,0,1,,,,,,,,,,,,,
65bf9aeb592e888df327d648,SCR,2024-06-25_14h24.27.772,LearnStrategy,2023.2.3,Win32,62.11180124,2,1,7,0.087239583,-0.098958333,1,0,0,0.8429,Peridotite_02,7,02,3,5,0.843,7,02,0.35546875,-0.23046875,1,0,0,1.6454,Gabbro_rect,4,1.645,0,6,0,6,0,1,,,,,,,,,,,,,
65bf9aeb592e888df327d648,SCR,2024-06-25_14h24.27.772,LearnStrategy,2023.2.3,Win32,62.11180124,2,1,8,0.563802083,-0.234375,1,0,0,1.1469,Andesite_04,1,04,2,8,1.147,1,04,-0.337239583,-0.256510417,1,0,0,1.9125,Andesite_rect,1,1.913,1,7,0,7,0,1,,,,,,,,,,,,,
65bf9aeb592e888df327d648,SCR,2024-06-25_14h24.27.772,LearnStrategy,2023.2.3,Win32,62.11180124,2,1,9,-0.072916667,0.091145833,1,0,0,0.8823,Pegmatite_15,6,15,4,4,0.882,6,15,-0.069010417,-0.393229167,1,0,0,2.5385,Pegmatite_rect,6,2.538,1,8,0,8,0,1,,,,,,,,,,,,,
65bf9aeb592e888df327d648,SCR,2024-06-25_14h24.27.772,LearnStrategy,2023.2.3,Win32,62.11180124,2,1,10,-0.54296875,-0.38671875,1,0,0,0.975,Gabbro_01,4,01,1,1,0.975,4,01,-0.37109375,-0.243489583,1,0,0,2.3865,Andesite_rect,1,2.387,0,9,0,9,0,1,,,,,,,,,,,,,
65bf9aeb592e888df327d648,SCR,2024-06-25_14h24.27.772,LearnStrategy,2023.2.3,Win32,62.11180124,2,1,11,0.6015625,-0.12890625,1,0,0,0.7707,Gabbro_11,4,11,3,8,0.771,4,11,-0.072916667,-0.233072917,1,0,0,1.5206,Basalt_rect,2,1.521,0,10,0,10,0,1,,,,,,,,,,,,,
65bf9aeb592e888df327d648,SCR,2024-06-25_14h24.27.772,LearnStrategy,2023.2.3,Win32,62.11180124,2,1,12,0.221354167,-0.430989583,1,0,0,0.7226,Diorite_11,3,11,1,6,0.723,3,11,0.130208333,-0.2578125,1,0,0,2.5547,Diorite_rect,3,2.555,1,11,0,11,0,1,,,,,,,,,,,,,
65bf9aeb592e888df327d648,SCR,2024-06-25_14h24.27.772,LearnStrategy,2023.2.3,Win32,62.11180124,2,1,13,-0.555989583,-0.401041667,1,0,0,1.105,Gabbro_01,4,01,1,1,1.105,4,01,-0.19140625,-0.243489583,1,0,0,2.2684,Basalt_rect,2,2.268,0,12,0,12,0,1,,,,,,,,,,,,,
65bf9aeb592e888df327d648,SCR,2024-06-25_14h24.27.772,LearnStrategy,2023.2.3,Win32,62.11180124,2,1,14,0.263020833,0.424479167,1,0,0,0.7933,Andesite_05,1,05,6,6,0.793,1,05,0.138020833,-0.235677083,1,0,0,1.7557,Diorite_rect,3,1.756,0,13,0,13,0,1,,,,,,,,,,,,,
65bf9aeb592e888df327d648,SCR,2024-06-25_14h24.27.772,LearnStrategy,2023.2.3,Win32,62.11180124,2,1,15,0.430989583,-0.08984375,1,0,0,0.7325,Pumice_08,8,08,3,7,0.733,8,08,0.09765625,-0.411458333,1,0,0,2.5384,Peridotite_rect,7,2.538,0,14,0,14,0,1,,,,,,,,,,,,,
65bf9aeb592e888df327d648,SCR,2024-06-25_14h24.27.772,LearnStrategy,2023.2.3,Win32,62.11180124,2,1,16,-0.072916667,-0.44140625,1,0,0,0.748,Peridotite_15,7,15,1,4,0.748,7,15,0.114583333,-0.266927083,1,0,0,0.9852,Diorite_rect,3,0.985,0,15,0,15,0,1,,,,,,,,,,,,,
65bf9aeb592e888df327d648,SCR,2024-06-25_14h24.27.772,LearnStrategy,2023.2.3,Win32,62.11180124,2,2,1,,,,,,,,1,11,,,,,,,,,,,,,4,4.246,0,,,,,,0.365885417,-0.264322917,1,0,0,4.2456,Gabbro_rect,0,0,0,0,1,
65bf9aeb592e888df327d648,SCR,2024-06-25_14h24.27.772,LearnStrategy,2023.2.3,Win32,62.11180124,2,2,2,,,,,,,,7,12,,,,,,,,,,,,,7,3.364,1,,,,,,0.096354167,-0.381510417,1,0,0,3.3642,Peridotite_rect,1,0,1,0,1,
65bf9aeb592e888df327d648,SCR,2024-06-25_14h24.27.772,LearnStrategy,2023.2.3,Win32,62.11180124,2,2,3,,,,,,,,5,07,,,,,,,,,,,,,5,1.224,1,,,,,,-0.36328125,-0.41015625,1,0,0,1.2243,Obsidian_rect,2,0,2,0,1,
65bf9aeb592e888df327d648,SCR,2024-06-25_14h24.27.772,LearnStrategy,2023.2.3,Win32,62.11180124,2,2,4,,,,,,,,4,12,,,,,,,,,,,,,4,2.661,1,,,,,,0.377604167,-0.255208333,1,0,0,2.6613,Gabbro_rect,3,0,3,0,1,
65bf9aeb592e888df327d648,SCR,2024-06-25_14h24.27.772,LearnStrategy,2023.2.3,Win32,62.11180124,2,2,5,,,,,,,,8,04,,,,,,,,,,,,,7,2.4,0,,,,,,0.173177083,-0.401041667,1,0,0,2.3998,Peridotite_rect,4,0,4,0,1,
65bf9aeb592e888df327d648,SCR,2024-06-25_14h24.27.772,LearnStrategy,2023.2.3,Win32,62.11180124,2,2,6,,,,,,,,7,05,,,,,,,,,,,,,6,3.405,0,,,,,,-0.075520833,-0.411458333,1,0,0,3.4046,Pegmatite_rect,5,0,5,0,1,
65bf9aeb592e888df327d648,SCR,2024-06-25_14h24.27.772,LearnStrategy,2023.2.3,Win32,62.11180124,2,2,7,,,,,,,,5,11,,,,,,,,,,,,,5,1.199,1,,,,,,-0.352864583,-0.390625,1,0,0,1.1991,Obsidian_rect,6,0,6,0,1,
65bf9aeb592e888df327d648,SCR,2024-06-25_14h24.27.772,LearnStrategy,2023.2.3,Win32,62.11180124,2,2,8,,,,,,,,4,05,,,,,,,,,,,,,2,2.426,0,,,,,,-0.169270833,-0.240885417,1,0,0,2.4262,Basalt_rect,7,0,7,0,1,
65bf9aeb592e888df327d648,SCR,2024-06-25_14h24.27.772,LearnStrategy,2023.2.3,Win32,62.11180124,2,2,9,,,,,,,,6,11,,,,,,,,,,,,,6,1.69,1,,,,,,-0.02734375,-0.40625,1,0,0,1.69,Pegmatite_rect,8,0,8,0,1,
65bf9aeb592e888df327d648,SCR,2024-06-25_14h24.27.772,LearnStrategy,2023.2.3,Win32,62.11180124,2,2,10,,,,,,,,2,01,,,,,,,,,,,,,2,3.202,1,,,,,,-0.100260417,-0.260416667,1,0,0,3.202,Basalt_rect,9,0,9,0,1,
65bf9aeb592e888df327d648,SCR,2024-06-25_14h24.27.772,LearnStrategy,2023.2.3,Win32,62.11180124,2,2,11,,,,,,,,2,12,,,,,,,,,,,,,3,10.214,0,,,,,,0.080729167,-0.264322917,1,0,0,10.2144,Diorite_rect,10,0,10,0,1,
65bf9aeb592e888df327d648,SCR,2024-06-25_14h24.27.772,LearnStrategy,2023.2.3,Win32,62.11180124,2,2,12,,,,,,,,3,09,,,,,,,,,,,,,7,5.863,0,,,,,,0.10546875,-0.4140625,1,0,0,5.8628,Peridotite_rect,11,0,11,0,1,
65bf9aeb592e888df327d648,SCR,2024-06-25_14h24.27.772,LearnStrategy,2023.2.3,Win32,62.11180124,2,2,13,,,,,,,,6,05,,,,,,,,,,,,,6,1.523,1,,,,,,-0.15625,-0.401041667,1,0,0,1.5231,Pegmatite_rect,12,0,12,0,1,
65bf9aeb592e888df327d648,SCR,2024-06-25_14h24.27.772,LearnStrategy,2023.2.3,Win32,62.11180124,2,2,14,,,,,,,,1,07,,,,,,,,,,,,,3,1.342,0,,,,,,0.084635417,-0.25,1,0,0,1.3422,Diorite_rect,13,0,13,0,1,
65bf9aeb592e888df327d648,SCR,2024-06-25_14h24.27.772,LearnStrategy,2023.2.3,Win32,62.11180124,2,2,15,,,,,,,,3,15,,,,,,,,,,,,,8,6.334,0,,,,,,0.423177083,-0.381510417,1,0,0,6.3341,Pumice_rect,14,0,14,0,1,
65bf9aeb592e888df327d648,SCR,2024-06-25_14h24.27.772,LearnStrategy,2023.2.3,Win32,62.11180124,2,2,16,,,,,,,,8,06,,,,,,,,,,,,,8,1.136,1,,,,,,0.346354167,-0.39453125,1,0,0,1.1357,Pumice_rect,15,0,15,0,1,
65bf9aeb592e888df327d648,SCR,2024-06-25_14h24.27.772,LearnStrategy,2023.2.3,Win32,62.11180124,3,1,1,-0.399739583,0.091145833,1,0,0,1.1554,Diorite_08,3,08,4,2,1.155,3,08,0.052083333,-0.268229167,1,0,0,1.1828,Diorite_rect,3,1.183,1,0,0,0,0,1,,,,,,,,,,,,,
65bf9aeb592e888df327d648,SCR,2024-06-25_14h24.27.772,LearnStrategy,2023.2.3,Win32,62.11180124,3,1,2,0.38671875,0.2734375,1,0,0,1.0644,Pumice_15,8,15,5,7,1.064,8,15,0.072916667,-0.407552083,1,0,0,1.8402,Peridotite_rect,7,1.84,0,1,0,1,0,1,,,,,,,,,,,,,
65bf9aeb592e888df327d648,SCR,2024-06-25_14h24.27.772,LearnStrategy,2023.2.3,Win32,62.11180124,3,1,3,0.520833333,-0.233072917,1,0,0,1.2806,Andesite_04,1,04,2,8,1.281,1,04,0.118489583,-0.234375,1,0,0,1.1446,Diorite_rect,3,1.145,0,2,0,2,0,1,,,,,,,,,,,,,
65bf9aeb592e888df327d648,SCR,2024-06-25_14h24.27.772,LearnStrategy,2023.2.3,Win32,62.11180124,3,1,4,-0.522135417,0.213541667,1,0,0,1.1448,Gabbro_03,4,03,5,1,1.145,4,03,0.408854167,-0.26953125,1,0,0,1.1143,Gabbro_rect,4,1.114,1,3,0,3,0,1,,,,,,,,,,,,,
65bf9aeb592e888df327d648,SCR,2024-06-25_14h24.27.772,LearnStrategy,2023.2.3,Win32,62.11180124,3,1,5,-0.381510417,0.381510417,1,0,0,1.2111,Pegmatite_06,6,06,6,2,1.211,6,06,0.048177083,-0.407552083,1,0,0,2.5003,Peridotite_rect,7,2.5,0,4,0,4,0,1,,,,,,,,,,,,,
65bf9aeb592e888df327d648,SCR,2024-06-25_14h24.27.772,LearnStrategy,2023.2.3,Win32,62.11180124,3,1,6,-0.544270833,0.385416667,1,0,0,1.0784,Basalt_02,2,02,6,1,1.078,2,02,0.321614583,-0.233072917,1,0,0,0.9899,Gabbro_rect,4,0.99,0,5,0,5,0,1,,,,,,,,,,,,,
65bf9aeb592e888df327d648,SCR,2024-06-25_14h24.27.772,LearnStrategy,2023.2.3,Win32,62.11180124,3,1,7,-0.4140625,-0.401041667,1,0,0,0.9532,Gabbro_08,4,08,1,2,0.953,4,08,-0.122395833,-0.421875,1,0,0,4.5185,Pegmatite_rect,6,4.519,0,6,0,6,0,1,,,,,,,,,,,,,
65bf9aeb592e888df327d648,SCR,2024-06-25_14h24.27.772,LearnStrategy,2023.2.3,Win32,62.11180124,3,1,8,0.227864583,0.240885417,1,0,0,0.879,Basalt_09,2,09,5,6,0.879,2,09,-0.084635417,-0.240885417,1,0,0,1.0049,Basalt_rect,2,1.005,1,7,0,7,0,1,,,,,,,,,,,,,
65bf9aeb592e888df327d648,SCR,2024-06-25_14h24.27.772,LearnStrategy,2023.2.3,Win32,62.11180124,3,1,9,0.391927083,-0.4140625,1,0,0,0.9935,Gabbro_16,4,16,1,7,0.994,4,16,-0.110677083,-0.247395833,1,0,0,1.9026,Basalt_rect,2,1.903,0,8,0,8,0,1,,,,,,,,,,,,,
65bf9aeb592e888df327d648,SCR,2024-06-25_14h24.27.772,LearnStrategy,2023.2.3,Win32,62.11180124,3,1,10,0.350260417,0.096354167,1,0,0,0.9428,Andesite_02,1,02,4,7,0.943,1,02,0.0546875,-0.3828125,1,0,0,1.6905,Peridotite_rect,7,1.69,0,9,0,9,0,1,,,,,,,,,,,,,
65bf9aeb592e888df327d648,SCR,2024-06-25_14h24.27.772,LearnStrategy,2023.2.3,Win32,62.11180124,3,1,11,-0.579427083,-0.083333333,1,0,0,1.0014,Peridotite_14,7,14,3,1,1.001,7,14,0.075520833,-0.260416667,1,0,0,3.6943,Diorite_rect,3,3.694,0,10,0,10,0,1,,,,,,,,,,,,,
65bf9aeb592e888df327d648,SCR,2024-06-25_14h24.27.772,LearnStrategy,2023.2.3,Win32,62.11180124,3,1,12,0.268229167,-0.39453125,1,0,0,1.4133,Diorite_11,3,11,1,6,1.413,3,11,0.166666667,-0.415364583,1,0,0,2.7853,Peridotite_rect,7,2.785,0,11,0,11,0,1,,,,,,,,,,,,,
65bf9aeb592e888df327d648,SCR,2024-06-25_14h24.27.772,LearnStrategy,2023.2.3,Win32,62.11180124,3,1,13,0.06640625,-0.071614583,1,0,0,0.5632,Peridotite_02,7,02,3,5,0.563,7,02,0.38671875,-0.243489583,1,0,0,1.4038,Gabbro_rect,4,1.404,0,12,0,12,0,1,,,,,,,,,,,,,
65bf9aeb592e888df327d648,SCR,2024-06-25_14h24.27.772,LearnStrategy,2023.2.3,Win32,62.11180124,3,1,14,0.100260417,0.38671875,1,0,0,1.9017,Diorite_10,3,10,6,5,1.902,3,10,-0.290364583,-0.252604167,1,0,0,1.9527,Andesite_rect,1,1.953,0,13,0,13,0,1,,,,,,,,,,,,,
65bf9aeb592e888df327d648,SCR,2024-06-25_14h24.27.772,LearnStrategy,2023.2.3,Win32,62.11180124,3,1,15,-0.544270833,-0.26953125,1,0,0,0.8973,Peridotite_08,7,08,2,1,0.897,7,08,0.377604167,-0.41015625,1,0,0,1.0974,Pumice_rect,8,1.097,0,14,0,14,0,1,,,,,,,,,,,,,
65bf9aeb592e888df327d648,SCR,2024-06-25_14h24.27.772,LearnStrategy,2023.2.3,Win32,62.11180124,3,1,16,0.557291667,-0.270833333,1,0,0,0.7957,Andesite_04,1,04,2,8,0.796,1,04,-0.375,-0.25,1,0,0,1.5649,Andesite_rect,1,1.565,1,15,0,15,0,1,,,,,,,,,,,,,
65bf9aeb592e888df327d648,SCR,2024-06-25_14h24.27.772,LearnStrategy,2023.2.3,Win32,62.11180124,3,2,1,,,,,,,,1,03,,,,,,,,,,,,,2,1.502,0,,,,,,-0.063802083,-0.229166667,1,0,0,1.5025,Basalt_rect,0,0,0,0,1,
65bf9aeb592e888df327d648,SCR,2024-06-25_14h24.27.772,LearnStrategy,2023.2.3,Win32,62.11180124,3,2,2,,,,,,,,8,10,,,,,,,,,,,,,8,1.766,1,,,,,,0.346354167,-0.380208333,1,0,0,1.7655,Pumice_rect,1,0,1,0,1,
65bf9aeb592e888df327d648,SCR,2024-06-25_14h24.27.772,LearnStrategy,2023.2.3,Win32,62.11180124,3,2,3,,,,,,,,7,04,,,,,,,,,,,,,4,1.947,0,,,,,,0.34375,-0.231770833,1,0,0,1.9472,Gabbro_rect,2,0,2,0,1,
65bf9aeb592e888df327d648,SCR,2024-06-25_14h24.27.772,LearnStrategy,2023.2.3,Win32,62.11180124,3,2,4,,,,,,,,8,14,,,,,,,,,,,,,8,1.69,1,,,,,,0.358072917,-0.4140625,1,0,0,1.6903,Pumice_rect,3,0,3,0,1,
65bf9aeb592e888df327d648,SCR,2024-06-25_14h24.27.772,LearnStrategy,2023.2.3,Win32,62.11180124,3,2,5,,,,,,,,1,09,,,,,,,,,,,,,1,1.45,1,,,,,,-0.337239583,-0.252604167,1,0,0,1.4502,Andesite_rect,4,0,4,0,1,
65bf9aeb592e888df327d648,SCR,2024-06-25_14h24.27.772,LearnStrategy,2023.2.3,Win32,62.11180124,3,2,6,,,,,,,,7,16,,,,,,,,,,,,,5,1.486,0,,,,,,-0.330729167,-0.385416667,1,0,0,1.4858,Obsidian_rect,5,0,5,0,1,
65bf9aeb592e888df327d648,SCR,2024-06-25_14h24.27.772,LearnStrategy,2023.2.3,Win32,62.11180124,3,2,7,,,,,,,,5,09,,,,,,,,,,,,,5,1.12,1,,,,,,-0.38671875,-0.40625,1,0,0,1.1204,Obsidian_rect,6,0,6,0,1,
65bf9aeb592e888df327d648,SCR,2024-06-25_14h24.27.772,LearnStrategy,2023.2.3,Win32,62.11180124,3,2,8,,,,,,,,3,02,,,,,,,,,,,,,7,2.165,0,,,,,,0.053385417,-0.404947917,1,0,0,2.165,Peridotite_rect,7,0,7,0,1,
65bf9aeb592e888df327d648,SCR,2024-06-25_14h24.27.772,LearnStrategy,2023.2.3,Win32,62.11180124,3,2,9,,,,,,,,6,09,,,,,,,,,,,,,6,1.48,1,,,,,,-0.06640625,-0.399739583,1,0,0,1.4795,Pegmatite_rect,8,0,8,0,1,
65bf9aeb592e888df327d648,SCR,2024-06-25_14h24.27.772,LearnStrategy,2023.2.3,Win32,62.11180124,3,2,10,,,,,,,,4,15,,,,,,,,,,,,,4,2.135,1,,,,,,0.358072917,-0.235677083,1,0,0,2.1353,Gabbro_rect,9,0,9,0,1,
65bf9aeb592e888df327d648,SCR,2024-06-25_14h24.27.772,LearnStrategy,2023.2.3,Win32,62.11180124,3,2,11,,,,,,,,3,14,,,,,,,,,,,,,3,0.996,1,,,,,,0.0859375,-0.236979167,1,0,0,0.9963,Diorite_rect,10,0,10,0,1,
65bf9aeb592e888df327d648,SCR,2024-06-25_14h24.27.772,LearnStrategy,2023.2.3,Win32,62.11180124,3,2,12,,,,,,,,6,08,,,,,,,,,,,,,6,4.324,1,,,,,,-0.17578125,-0.391927083,1,0,0,4.3237,Pegmatite_rect,11,0,11,0,1,
65bf9aeb592e888df327d648,SCR,2024-06-25_14h24.27.772,LearnStrategy,2023.2.3,Win32,62.11180124,3,2,13,,,,,,,,5,10,,,,,,,,,,,,,5,1.245,1,,,,,,-0.35546875,-0.380208333,1,0,0,1.2454,Obsidian_rect,12,0,12,0,1,
65bf9aeb592e888df327d648,SCR,2024-06-25_14h24.27.772,LearnStrategy,2023.2.3,Win32,62.11180124,3,2,14,,,,,,,,2,11,,,,,,,,,,,,,1,1.843,0,,,,,,-0.334635417,-0.248697917,1,0,0,1.8426,Andesite_rect,13,0,13,0,1,
65bf9aeb592e888df327d648,SCR,2024-06-25_14h24.27.772,LearnStrategy,2023.2.3,Win32,62.11180124,3,2,15,,,,,,,,4,09,,,,,,,,,,,,,6,2.337,0,,,,,,-0.186197917,-0.3984375,1,0,0,2.3366,Pegmatite_rect,14,0,14,0,1,
65bf9aeb592e888df327d648,SCR,2024-06-25_14h24.27.772,LearnStrategy,2023.2.3,Win32,62.11180124,3,2,16,,,,,,,,2,16,,,,,,,,,,,,,4,1.699,0,,,,,,0.365885417,-0.264322917,1,0,0,1.699,Gabbro_rect,15,0,15,0,1,
65bf9aeb592e888df327d648,SCR,2024-06-25_14h24.27.772,LearnStrategy,2023.2.3,Win32,62.11180124,4,1,1,-0.420572917,-0.234375,1,0,0,0.8444,Diorite_12,3,12,2,2,0.844,3,12,0.088541667,-0.23828125,1,0,0,1.283,Diorite_rect,3,1.283,1,0,0,0,0,1,,,,,,,,,,,,,
65bf9aeb592e888df327d648,SCR,2024-06-25_14h24.27.772,LearnStrategy,2023.2.3,Win32,62.11180124,4,1,2,-0.52734375,0.255208333,1,0,0,0.873,Gabbro_03,4,03,5,1,0.873,4,03,0.356770833,-0.233072917,1,0,0,1.0829,Gabbro_rect,4,1.083,1,1,0,1,0,1,,,,,,,,,,,,,
65bf9aeb592e888df327d648,SCR,2024-06-25_14h24.27.772,LearnStrategy,2023.2.3,Win32,62.11180124,4,1,3,-0.213541667,0.385416667,1,0,0,1.1111,Andesite_06,1,06,6,3,1.111,1,06,-0.350260417,-0.264322917,1,0,0,1.7288,Andesite_rect,1,1.729,1,2,0,2,0,1,,,,,,,,,,,,,
65bf9aeb592e888df327d648,SCR,2024-06-25_14h24.27.772,LearnStrategy,2023.2.3,Win32,62.11180124,4,1,4,-0.516927083,-0.294270833,1,0,0,0.9949,Peridotite_08,7,08,2,1,0.995,7,08,-0.1015625,-0.416666667,1,0,0,1.8506,Pegmatite_rect,6,1.851,0,3,0,3,0,1,,,,,,,,,,,,,
65bf9aeb592e888df327d648,SCR,2024-06-25_14h24.27.772,LearnStrategy,2023.2.3,Win32,62.11180124,4,1,5,0.28515625,0.395833333,1,0,0,0.9549,Andesite_05,1,05,6,6,0.955,1,05,0.092447917,-0.248697917,1,0,0,1.1684,Diorite_rect,3,1.168,0,4,0,4,0,1,,,,,,,,,,,,,
65bf9aeb592e888df327d648,SCR,2024-06-25_14h24.27.772,LearnStrategy,2023.2.3,Win32,62.11180124,4,1,6,-0.4140625,-0.40625,1,0,0,0.8611,Gabbro_08,4,08,1,2,0.861,4,08,0.10546875,-0.260416667,1,0,0,2.0209,Diorite_rect,3,2.021,0,5,0,5,0,1,,,,,,,,,,,,,
65bf9aeb592e888df327d648,SCR,2024-06-25_14h24.27.772,LearnStrategy,2023.2.3,Win32,62.11180124,4,1,7,-0.239583333,0.06640625,1,0,0,1.0975,Pumice_05,8,05,4,3,1.097,8,05,0.33203125,-0.37890625,1,0,0,0.9169,Pumice_rect,8,0.917,1,6,0,6,0,1,,,,,,,,,,,,,
65bf9aeb592e888df327d648,SCR,2024-06-25_14h24.27.772,LearnStrategy,2023.2.3,Win32,62.11180124,4,1,8,0.071614583,-0.149739583,1,0,0,0.8462,Peridotite_02,7,02,3,5,0.846,7,02,0.053385417,-0.393229167,1,0,0,2.2917,Peridotite_rect,7,2.292,1,7,0,7,0,1,,,,,,,,,,,,,
65bf9aeb592e888df327d648,SCR,2024-06-25_14h24.27.772,LearnStrategy,2023.2.3,Win32,62.11180124,4,1,9,-0.196614583,-0.139322917,1,0,0,0.8788,Pegmatite_12,6,12,3,3,0.879,6,12,-0.177083333,-0.390625,1,0,0,1.4352,Pegmatite_rect,6,1.435,1,8,0,8,0,1,,,,,,,,,,,,,
65bf9aeb592e888df327d648,SCR,2024-06-25_14h24.27.772,LearnStrategy,2023.2.3,Win32,62.11180124,4,1,10,0.079427083,0.2734375,1,0,0,0.7401,Diorite_06,3,06,5,5,0.74,3,06,0.08984375,-0.255208333,1,0,0,1.0213,Diorite_rect,3,1.021,1,9,0,9,0,1,,,,,,,,,,,,,
65bf9aeb592e888df327d648,SCR,2024-06-25_14h24.27.772,LearnStrategy,2023.2.3,Win32,62.11180124,4,1,11,0.584635417,0.3828125,1,0,0,1.3493,Basalt_08,2,08,6,8,1.349,2,08,0.39453125,-0.260416667,1,0,0,2.3882,Gabbro_rect,4,2.388,0,10,0,10,0,1,,,,,,,,,,,,,
65bf9aeb592e888df327d648,SCR,2024-06-25_14h24.27.772,LearnStrategy,2023.2.3,Win32,62.11180124,4,1,12,0.580729167,0.368489583,1,0,0,1.0623,Basalt_08,2,08,6,8,1.062,2,08,-0.125,-0.268229167,1,0,0,0.7814,Basalt_rect,2,0.781,1,11,0,11,0,1,,,,,,,,,,,,,
65bf9aeb592e888df327d648,SCR,2024-06-25_14h24.27.772,LearnStrategy,2023.2.3,Win32,62.11180124,4,1,13,0.092447917,-0.212239583,1,0,0,0.7804,Basalt_14,2,14,2,5,0.78,2,14,0.065104167,-0.401041667,1,0,0,1.3296,Peridotite_rect,7,1.33,0,12,0,12,0,1,,,,,,,,,,,,,
65bf9aeb592e888df327d648,SCR,2024-06-25_14h24.27.772,LearnStrategy,2023.2.3,Win32,62.11180124,4,1,14,-0.391927083,0.069010417,1,0,0,0.9525,Diorite_08,3,08,4,2,0.953,3,08,0.106770833,-0.259114583,1,0,0,1.2761,Diorite_rect,3,1.276,1,13,0,13,0,1,,,,,,,,,,,,,
65bf9aeb592e888df327d648,SCR,2024-06-25_14h24.27.772,LearnStrategy,2023.2.3,Win32,62.11180124,4,1,15,0.5703125,0.235677083,1,0,0,0.9875,Andesite_10,1,10,5,8,0.987,1,10,-0.100260417,-0.25390625,1,0,0,1.0375,Basalt_rect,2,1.037,0,14,0,14,0,1,,,,,,,,,,,,,
65bf9aeb592e888df327d648,SCR,2024-06-25_14h24.27.772,LearnStrategy,2023.2.3,Win32,62.11180124,4,1,16,-0.109375,-0.393229167,1,0,0,0.7976,Peridotite_15,7,15,1,4,0.798,7,15,0.087239583,-0.404947917,1,0,0,1.1327,Peridotite_rect,7,1.133,1,15,0,15,0,1,,,,,,,,,,,,,
65bf9aeb592e888df327d648,SCR,2024-06-25_14h24.27.772,LearnStrategy,2023.2.3,Win32,62.11180124,4,2,1,,,,,,,,2,01,,,,,,,,,,,,,2,1.048,1,,,,,,-0.045572917,-0.256510417,1,0,0,1.0484,Basalt_rect,0,0,0,0,1,
65bf9aeb592e888df327d648,SCR,2024-06-25_14h24.27.772,LearnStrategy,2023.2.3,Win32,62.11180124,4,2,2,,,,,,,,7,07,,,,,,,,,,,,,1,1.875,0,,,,,,-0.3984375,-0.256510417,1,0,0,1.8755,Andesite_rect,1,0,1,0,1,
65bf9aeb592e888df327d648,SCR,2024-06-25_14h24.27.772,LearnStrategy,2023.2.3,Win32,62.11180124,4,2,3,,,,,,,,4,15,,,,,,,,,,,,,2,2.588,0,,,,,,-0.108072917,-0.248697917,1,0,0,2.588,Basalt_rect,2,0,2,0,1,
65bf9aeb592e888df327d648,SCR,2024-06-25_14h24.27.772,LearnStrategy,2023.2.3,Win32,62.11180124,4,2,4,,,,,,,,3,07,,,,,,,,,,,,,3,1.149,1,,,,,,0.072916667,-0.236979167,1,0,0,1.149,Diorite_rect,3,0,3,0,1,
65bf9aeb592e888df327d648,SCR,2024-06-25_14h24.27.772,LearnStrategy,2023.2.3,Win32,62.11180124,4,2,5,,,,,,,,1,09,,,,,,,,,,,,,4,2.111,0,,,,,,0.458333333,-0.260416667,1,0,0,2.111,Gabbro_rect,4,0,4,0,1,
65bf9aeb592e888df327d648,SCR,2024-06-25_14h24.27.772,LearnStrategy,2023.2.3,Win32,62.11180124,4,2,6,,,,,,,,3,02,,,,,,,,,,,,,7,1.572,0,,,,,,0.05078125,-0.388020833,1,0,0,1.5718,Peridotite_rect,5,0,5,0,1,
65bf9aeb592e888df327d648,SCR,2024-06-25_14h24.27.772,LearnStrategy,2023.2.3,Win32,62.11180124,4,2,7,,,,,,,,8,14,,,,,,,,,,,,,8,1.063,1,,,,,,0.345052083,-0.399739583,1,0,0,1.063,Pumice_rect,6,0,6,0,1,
65bf9aeb592e888df327d648,SCR,2024-06-25_14h24.27.772,LearnStrategy,2023.2.3,Win32,62.11180124,4,2,8,,,,,,,,4,09,,,,,,,,,,,,,6,1.31,0,,,,,,-0.2421875,-0.384114583,1,0,0,1.3098,Pegmatite_rect,7,0,7,0,1,
65bf9aeb592e888df327d648,SCR,2024-06-25_14h24.27.772,LearnStrategy,2023.2.3,Win32,62.11180124,4,2,9,,,,,,,,7,16,,,,,,,,,,,,,5,2.709,0,,,,,,-0.40234375,-0.385416667,1,0,0,2.7091,Obsidian_rect,8,0,8,0,1,
65bf9aeb592e888df327d648,SCR,2024-06-25_14h24.27.772,LearnStrategy,2023.2.3,Win32,62.11180124,4,2,10,,,,,,,,6,13,,,,,,,,,,,,,4,1.443,0,,,,,,0.34375,-0.25,1,0,0,1.4429,Gabbro_rect,9,0,9,0,1,
65bf9aeb592e888df327d648,SCR,2024-06-25_14h24.27.772,LearnStrategy,2023.2.3,Win32,62.11180124,4,2,11,,,,,,,,6,03,,,,,,,,,,,,,6,1.292,1,,,,,,-0.06640625,-0.401041667,1,0,0,1.2917,Pegmatite_rect,10,0,10,0,1,
65bf9aeb592e888df327d648,SCR,2024-06-25_14h24.27.772,LearnStrategy,2023.2.3,Win32,62.11180124,4,2,12,,,,,,,,2,12,,,,,,,,,,,,,4,1.995,0,,,,,,0.419270833,-0.243489583,1,0,0,1.9945,Gabbro_rect,11,0,11,0,1,
65bf9aeb592e888df327d648,SCR,2024-06-25_14h24.27.772,LearnStrategy,2023.2.3,Win32,62.11180124,4,2,13,,,,,,,,5,11,,,,,,,,,,,,,5,1.147,1,,,,,,-0.372395833,-0.390625,1,0,0,1.1469,Obsidian_rect,12,0,12,0,1,
65bf9aeb592e888df327d648,SCR,2024-06-25_14h24.27.772,LearnStrategy,2023.2.3,Win32,62.11180124,4,2,14,,,,,,,,1,03,,,,,,,,,,,,,2,1.73,0,,,,,,-0.171875,-0.263020833,1,0,0,1.7304,Basalt_rect,13,0,13,0,1,
65bf9aeb592e888df327d648,SCR,2024-06-25_14h24.27.772,LearnStrategy,2023.2.3,Win32,62.11180124,4,2,15,,,,,,,,8,10,,,,,,,,,,,,,8,1.191,1,,,,,,0.361979167,-0.421875,1,0,0,1.1912,Pumice_rect,14,0,14,0,1,
65bf9aeb592e888df327d648,SCR,2024-06-25_14h24.27.772,LearnStrategy,2023.2.3,Win32,62.11180124,4,2,16,,,,,,,,5,07,,,,,,,,,,,,,4,2.385,0,,,,,,0.368489583,-0.23828125,1,0,0,2.3853,Gabbro_rect,15,0,15,0,1,
65bf9aeb592e888df327d648,SCR,2024-06-25_14h24.27.772,LearnStrategy,2023.2.3,Win32,62.11180124,5,1,1,-0.25390625,-0.270833333,1,0,0,1.2362,Peridotite_06,7,06,2,3,1.236,7,06,-0.135416667,-0.260416667,1,0,0,1.9073,Basalt_rect,2,1.907,0,0,0,0,0,1,,,,,,,,,,,,,
65bf9aeb592e888df327d648,SCR,2024-06-25_14h24.27.772,LearnStrategy,2023.2.3,Win32,62.11180124,5,1,2,0.5390625,0.365885417,1,0,0,1.1238,Basalt_08,2,08,6,8,1.124,2,08,-0.157552083,-0.260416667,1,0,0,1.1893,Basalt_rect,2,1.189,1,1,0,1,0,1,,,,,,,,,,,,,
65bf9aeb592e888df327d648,SCR,2024-06-25_14h24.27.772,LearnStrategy,2023.2.3,Win32,62.11180124,5,1,3,0.18359375,-0.078125,1,0,0,1.0945,Pegmatite_07,6,07,3,6,1.095,6,07,-0.046875,-0.407552083,1,0,0,1.5498,Pegmatite_rect,6,1.55,1,2,0,2,0,1,,,,,,,,,,,,,
65bf9aeb592e888df327d648,SCR,2024-06-25_14h24.27.772,LearnStrategy,2023.2.3,Win32,62.11180124,5,1,4,0.3984375,0.071614583,1,0,0,0.8964,Andesite_02,1,02,4,7,0.896,1,02,0.315104167,-0.385416667,1,0,0,1.0787,Pumice_rect,8,1.079,0,3,0,3,0,1,,,,,,,,,,,,,
65bf9aeb592e888df327d648,SCR,2024-06-25_14h24.27.772,LearnStrategy,2023.2.3,Win32,62.11180124,5,1,5,-0.537760417,0.235677083,1,0,0,1.0094,Gabbro_03,4,03,5,1,1.009,4,03,-0.138020833,-0.248697917,1,0,0,1.2538,Basalt_rect,2,1.254,0,4,0,4,0,1,,,,,,,,,,,,,
65bf9aeb592e888df327d648,SCR,2024-06-25_14h24.27.772,LearnStrategy,2023.2.3,Win32,62.11180124,5,1,6,0.21875,0.361979167,1,0,0,1.4793,Andesite_05,1,05,6,6,1.479,1,05,-0.40234375,-0.240885417,1,0,0,1.167,Andesite_rect,1,1.167,1,5,0,5,0,1,,,,,,,,,,,,,
65bf9aeb592e888df327d648,SCR,2024-06-25_14h24.27.772,LearnStrategy,2023.2.3,Win32,62.11180124,5,1,7,0.233072917,-0.384114583,1,0,0,1.1609,Diorite_11,3,11,1,6,1.161,3,11,0.171875,-0.244791667,1,0,0,1.1056,Diorite_rect,3,1.106,1,6,0,6,0,1,,,,,,,,,,,,,
65bf9aeb592e888df327d648,SCR,2024-06-25_14h24.27.772,LearnStrategy,2023.2.3,Win32,62.11180124,5,1,8,0.098958333,0.234375,1,0,0,0.7631,Diorite_06,3,06,5,5,0.763,3,06,0.143229167,-0.264322917,1,0,0,0.8025,Diorite_rect,3,0.803,1,7,0,7,0,1,,,,,,,,,,,,,
65bf9aeb592e888df327d648,SCR,2024-06-25_14h24.27.772,LearnStrategy,2023.2.3,Win32,62.11180124,5,1,9,0.41796875,0.251302083,1,0,0,1.1937,Pumice_15,8,15,5,7,1.194,8,15,0.33984375,-0.385416667,1,0,0,1.6181,Pumice_rect,8,1.618,1,8,0,8,0,1,,,,,,,,,,,,,
65bf9aeb592e888df327d648,SCR,2024-06-25_14h24.27.772,LearnStrategy,2023.2.3,Win32,62.11180124,5,1,10,0.044270833,-0.106770833,1,0,0,0.6119,Peridotite_02,7,02,3,5,0.612,7,02,-0.049479167,-0.390625,1,0,0,1.0978,Pegmatite_rect,6,1.098,0,9,0,9,0,1,,,,,,,,,,,,,
65bf9aeb592e888df327d648,SCR,2024-06-25_14h24.27.772,LearnStrategy,2023.2.3,Win32,62.11180124,5,1,11,-0.23046875,0.244791667,1,0,0,1.0173,Basalt_06,2,06,5,3,1.017,2,06,-0.06640625,-0.259114583,1,0,0,0.7507,Basalt_rect,2,0.751,1,10,0,10,0,1,,,,,,,,,,,,,
65bf9aeb592e888df327d648,SCR,2024-06-25_14h24.27.772,LearnStrategy,2023.2.3,Win32,62.11180124,5,1,12,-0.048177083,-0.279947917,1,0,0,0.6674,Obsidian_14,5,14,2,4,0.667,5,14,-0.354166667,-0.401041667,1,0,0,1.167,Obsidian_rect,5,1.167,1,11,0,11,0,1,,,,,,,,,,,,,
65bf9aeb592e888df327d648,SCR,2024-06-25_14h24.27.772,LearnStrategy,2023.2.3,Win32,62.11180124,5,1,13,-0.587239583,-0.397135417,1,0,0,1.2027,Gabbro_01,4,01,1,1,1.203,4,01,-0.356770833,-0.270833333,1,0,0,1.3864,Andesite_rect,1,1.386,0,12,0,12,0,1,,,,,,,,,,,,,
65bf9aeb592e888df327d648,SCR,2024-06-25_14h24.27.772,LearnStrategy,2023.2.3,Win32,62.11180124,5,1,14,0.265625,0.368489583,1,0,0,0.8444,Andesite_05,1,05,6,6,0.844,1,05,-0.421875,-0.265625,1,0,0,1.001,Andesite_rect,1,1.001,1,13,0,13,0,1,,,,,,,,,,,,,
65bf9aeb592e888df327d648,SCR,2024-06-25_14h24.27.772,LearnStrategy,2023.2.3,Win32,62.11180124,5,1,15,0.389322917,-0.419270833,1,0,0,0.7772,Gabbro_16,4,16,1,7,0.777,4,16,-0.111979167,-0.25,1,0,0,2.2204,Basalt_rect,2,2.22,0,14,0,14,0,1,,,,,,,,,,,,,
65bf9aeb592e888df327d648,SCR,2024-06-25_14h24.27.772,LearnStrategy,2023.2.3,Win32,62.11180124,5,1,16,-0.537760417,-0.118489583,1,0,0,1.0141,Peridotite_14,7,14,3,1,1.014,7,14,0.06640625,-0.3984375,1,0,0,1.0753,Peridotite_rect,7,1.075,1,15,0,15,0,1,,,,,,,,,,,,,
65bf9aeb592e888df327d648,SCR,2024-06-25_14h24.27.772,LearnStrategy,2023.2.3,Win32,62.11180124,5,2,1,,,,,,,,8,09,,,,,,,,,,,,,8,1.254,1,,,,,,0.364583333,-0.393229167,1,0,0,1.2536,Pumice_rect,0,0,0,0,1,
65bf9aeb592e888df327d648,SCR,2024-06-25_14h24.27.772,LearnStrategy,2023.2.3,Win32,62.11180124,5,2,2,,,,,,,,3,14,,,,,,,,,,,,,3,1.116,1,,,,,,0.125,-0.255208333,1,0,0,1.1161,Diorite_rect,1,0,1,0,1,
65bf9aeb592e888df327d648,SCR,2024-06-25_14h24.27.772,LearnStrategy,2023.2.3,Win32,62.11180124,5,2,3,,,,,,,,5,09,,,,,,,,,,,,,5,1.04,1,,,,,,-0.346354167,-0.404947917,1,0,0,1.0396,Obsidian_rect,2,0,2,0,1,
65bf9aeb592e888df327d648,SCR,2024-06-25_14h24.27.772,LearnStrategy,2023.2.3,Win32,62.11180124,5,2,4,,,,,,,,7,04,,,,,,,,,,,,,4,1.265,0,,,,,,0.462239583,-0.234375,1,0,0,1.2653,Gabbro_rect,3,0,3,0,1,
65bf9aeb592e888df327d648,SCR,2024-06-25_14h24.27.772,LearnStrategy,2023.2.3,Win32,62.11180124,5,2,5,,,,,,,,2,16,,,,,,,,,,,,,2,1.284,1,,,,,,-0.09375,-0.263020833,1,0,0,1.2837,Basalt_rect,4,0,4,0,1,
65bf9aeb592e888df327d648,SCR,2024-06-25_14h24.27.772,LearnStrategy,2023.2.3,Win32,62.11180124,5,2,6,,,,,,,,1,11,,,,,,,,,,,,,1,1.226,1,,,,,,-0.32421875,-0.259114583,1,0,0,1.2256,Andesite_rect,5,0,5,0,1,
65bf9aeb592e888df327d648,SCR,2024-06-25_14h24.27.772,LearnStrategy,2023.2.3,Win32,62.11180124,5,2,7,,,,,,,,6,05,,,,,,,,,,,,,6,1.251,1,,,,,,-0.1171875,-0.397135417,1,0,0,1.2513,Pegmatite_rect,6,0,6,0,1,
65bf9aeb592e888df327d648,SCR,2024-06-25_14h24.27.772,LearnStrategy,2023.2.3,Win32,62.11180124,5,2,8,,,,,,,,5,05,,,,,,,,,,,,,7,1.51,0,,,,,,0.08203125,-0.419270833,1,0,0,1.5101,Peridotite_rect,7,0,7,0,1,
65bf9aeb592e888df327d648,SCR,2024-06-25_14h24.27.772,LearnStrategy,2023.2.3,Win32,62.11180124,5,2,9,,,,,,,,6,09,,,,,,,,,,,,,6,5.192,1,,,,,,-0.1015625,-0.389322917,1,0,0,5.1925,Pegmatite_rect,8,0,8,0,1,
65bf9aeb592e888df327d648,SCR,2024-06-25_14h24.27.772,LearnStrategy,2023.2.3,Win32,62.11180124,5,2,10,,,,,,,,2,10,,,,,,,,,,,,,2,2.413,1,,,,,,-0.122395833,-0.259114583,1,0,0,2.4133,Basalt_rect,9,0,9,0,1,
65bf9aeb592e888df327d648,SCR,2024-06-25_14h24.27.772,LearnStrategy,2023.2.3,Win32,62.11180124,5,2,11,,,,,,,,1,16,,,,,,,,,,,,,3,2.737,0,,,,,,0.1953125,-0.259114583,1,0,0,2.7367,Diorite_rect,10,0,10,0,1,
65bf9aeb592e888df327d648,SCR,2024-06-25_14h24.27.772,LearnStrategy,2023.2.3,Win32,62.11180124,5,2,12,,,,,,,,4,13,,,,,,,,,,,,,6,4.247,0,,,,,,-0.0703125,-0.397135417,1,0,0,4.247,Pegmatite_rect,11,0,11,0,1,
65bf9aeb592e888df327d648,SCR,2024-06-25_14h24.27.772,LearnStrategy,2023.2.3,Win32,62.11180124,5,2,13,,,,,,,,8,03,,,,,,,,,,,,,8,1.346,1,,,,,,0.345052083,-0.393229167,1,0,0,1.3461,Pumice_rect,12,0,12,0,1,
65bf9aeb592e888df327d648,SCR,2024-06-25_14h24.27.772,LearnStrategy,2023.2.3,Win32,62.11180124,5,2,14,,,,,,,,4,10,,,,,,,,,,,,,2,2.705,0,,,,,,-0.091145833,-0.264322917,1,0,0,2.705,Basalt_rect,13,0,13,0,1,
65bf9aeb592e888df327d648,SCR,2024-06-25_14h24.27.772,LearnStrategy,2023.2.3,Win32,62.11180124,5,2,15,,,,,,,,7,05,,,,,,,,,,,,,3,1.344,0,,,,,,0.095052083,-0.260416667,1,0,0,1.3441,Diorite_rect,14,0,14,0,1,
65bf9aeb592e888df327d648,SCR,2024-06-25_14h24.27.772,LearnStrategy,2023.2.3,Win32,62.11180124,5,2,16,,,,,,,,3,16,,,,,,,,,,,,,3,2.826,1,,,,,,0.084635417,-0.243489583,1,0,0,2.826,Diorite_rect,15,0,15,0,1,
65bf9aeb592e888df327d648,SCR,2024-06-25_14h24.27.772,LearnStrategy,2023.2.3,Win32,62.11180124,6,1,1,-0.595052083,0.095052083,1,0,0,3.2458,Obsidian_08,5,08,4,1,3.246,5,08,-0.41015625,-0.421875,1,0,0,0.9529,Obsidian_rect,5,0.953,1,0,0,0,0,1,,,,,,,,,,,,,
65bf9aeb592e888df327d648,SCR,2024-06-25_14h24.27.772,LearnStrategy,2023.2.3,Win32,62.11180124,6,1,2,-0.24609375,-0.075520833,1,0,0,0.7133,Pegmatite_12,6,12,3,3,0.713,6,12,0.075520833,-0.263020833,1,0,0,1.0273,Diorite_rect,3,1.027,0,1,0,1,0,1,,,,,,,,,,,,,
65bf9aeb592e888df327d648,SCR,2024-06-25_14h24.27.772,LearnStrategy,2023.2.3,Win32,62.11180124,6,1,3,0.588541667,-0.09765625,1,0,0,0.6961,Gabbro_11,4,11,3,8,0.696,4,11,-0.111979167,-0.260416667,1,0,0,0.7242,Basalt_rect,2,0.724,0,2,0,2,0,1,,,,,,,,,,,,,
65bf9aeb592e888df327d648,SCR,2024-06-25_14h24.27.772,LearnStrategy,2023.2.3,Win32,62.11180124,6,1,4,0.52734375,0.3828125,1,0,0,0.8439,Basalt_08,2,08,6,8,0.844,2,08,-0.080729167,-0.2578125,1,0,0,0.8403,Basalt_rect,2,0.84,1,3,0,3,0,1,,,,,,,,,,,,,
65bf9aeb592e888df327d648,SCR,2024-06-25_14h24.27.772,LearnStrategy,2023.2.3,Win32,62.11180124,6,1,5,0.0859375,-0.2421875,1,0,0,0.8285,Basalt_14,2,14,2,5,0.829,2,14,0.329427083,-0.268229167,1,0,0,1.0127,Gabbro_rect,4,1.013,0,4,0,4,0,1,,,,,,,,,,,,,
65bf9aeb592e888df327d648,SCR,2024-06-25_14h24.27.772,LearnStrategy,2023.2.3,Win32,62.11180124,6,1,6,0.192708333,-0.3046875,1,0,0,0.8936,Andesite_01,1,01,2,6,0.894,1,01,0.078125,-0.390625,1,0,0,1.8441,Peridotite_rect,7,1.844,0,5,0,5,0,1,,,,,,,,,,,,,
65bf9aeb592e888df327d648,SCR,2024-06-25_14h24.27.772,LearnStrategy,2023.2.3,Win32,62.11180124,6,1,7,0.592447917,0.233072917,1,0,0,0.9717,Andesite_10,1,10,5,8,0.972,1,10,0.415364583,-0.403645833,1,0,0,1.1062,Pumice_rect,8,1.106,0,6,0,6,0,1,,,,,,,,,,,,,
65bf9aeb592e888df327d648,SCR,2024-06-25_14h24.27.772,LearnStrategy,2023.2.3,Win32,62.11180124,6,1,8,0.209635417,-0.423177083,1,0,0,0.8279,Diorite_11,3,11,1,6,0.828,3,11,0.171875,-0.37890625,1,0,0,0.6823,Peridotite_rect,7,0.682,0,7,0,7,0,1,,,,,,,,,,,,,
65bf9aeb592e888df327d648,SCR,2024-06-25_14h24.27.772,LearnStrategy,2023.2.3,Win32,62.11180124,6,1,9,0.380208333,-0.126302083,1,0,0,0.6482,Pumice_08,8,08,3,7,0.648,8,08,0.434895833,-0.408854167,1,0,0,1.2036,Pumice_rect,8,1.204,1,8,0,8,0,1,,,,,,,,,,,,,
65bf9aeb592e888df327d648,SCR,2024-06-25_14h24.27.772,LearnStrategy,2023.2.3,Win32,62.11180124,6,1,10,0.397135417,-0.438802083,1,0,0,0.9105,Gabbro_16,4,16,1,7,0.91,4,16,0.334635417,-0.23828125,1,0,0,2.2985,Gabbro_rect,4,2.299,1,9,0,9,0,1,,,,,,,,,,,,,
65bf9aeb592e888df327d648,SCR,2024-06-25_14h24.27.772,LearnStrategy,2023.2.3,Win32,62.11180124,6,1,11,-0.576822917,-0.265625,1,0,0,0.7979,Peridotite_08,7,08,2,1,0.798,7,08,-0.444010417,-0.23828125,1,0,0,1.4685,Andesite_rect,1,1.468,0,10,0,10,0,1,,,,,,,,,,,,,
65bf9aeb592e888df327d648,SCR,2024-06-25_14h24.27.772,LearnStrategy,2023.2.3,Win32,62.11180124,6,1,12,0.36328125,0.388020833,1,0,0,0.852,Gabbro_14,4,14,6,7,0.852,4,14,0.372395833,-0.255208333,1,0,0,4.5007,Gabbro_rect,4,4.501,1,11,0,11,0,1,,,,,,,,,,,,,
65bf9aeb592e888df327d648,SCR,2024-06-25_14h24.27.772,LearnStrategy,2023.2.3,Win32,62.11180124,6,1,13,-0.420572917,0.083333333,1,0,0,0.8104,Diorite_08,3,08,4,2,0.81,3,08,0.122395833,-0.248697917,1,0,0,0.8111,Diorite_rect,3,0.811,1,12,0,12,0,1,,,,,,,,,,,,,
65bf9aeb592e888df327d648,SCR,2024-06-25_14h24.27.772,LearnStrategy,2023.2.3,Win32,62.11180124,6,1,14,0.216145833,0.37109375,1,0,0,1.3802,Andesite_05,1,05,6,6,1.38,1,05,-0.321614583,-0.231770833,1,0,0,44.5222,Andesite_rect,1,44.522,1,13,0,13,0,1,,,,,,,,,,,,,
65bf9aeb592e888df327d648,SCR,2024-06-25_14h24.27.772,LearnStrategy,2023.2.3,Win32,62.11180124,6,1,15,-0.192708333,-0.216145833,1,0,0,0.7429,Peridotite_06,7,06,2,3,0.743,7,06,0.134114583,-0.240885417,1,0,0,0.9579,Diorite_rect,3,0.958,0,14,0,14,0,1,,,,,,,,,,,,,
65bf9aeb592e888df327d648,SCR,2024-06-25_14h24.27.772,LearnStrategy,2023.2.3,Win32,62.11180124,6,1,16,-0.09375,-0.401041667,1,0,0,0.7921,Peridotite_15,7,15,1,4,0.792,7,15,0.096354167,-0.234375,1,0,0,0.7487,Diorite_rect,3,0.749,0,15,0,15,0,1,,,,,,,,,,,,,
65bf9aeb592e888df327d648,SCR,2024-06-25_14h24.27.772,LearnStrategy,2023.2.3,Win32,62.11180124,6,2,1,,,,,,,,7,12,,,,,,,,,,,,,6,2.885,0,,,,,,-0.087239583,-0.397135417,1,0,0,2.8851,Pegmatite_rect,0,0,0,0,1,
65bf9aeb592e888df327d648,SCR,2024-06-25_14h24.27.772,LearnStrategy,2023.2.3,Win32,62.11180124,6,2,2,,,,,,,,7,13,,,,,,,,,,,,,3,1.134,0,,,,,,0.098958333,-0.268229167,1,0,0,1.1338,Diorite_rect,1,0,1,0,1,
65bf9aeb592e888df327d648,SCR,2024-06-25_14h24.27.772,LearnStrategy,2023.2.3,Win32,62.11180124,6,2,3,,,,,,,,5,04,,,,,,,,,,,,,5,1.258,1,,,,,,-0.430989583,-0.397135417,1,0,0,1.2578,Obsidian_rect,2,0,2,0,1,
65bf9aeb592e888df327d648,SCR,2024-06-25_14h24.27.772,LearnStrategy,2023.2.3,Win32,62.11180124,6,2,4,,,,,,,,1,14,,,,,,,,,,,,,1,2.447,1,,,,,,-0.384114583,-0.236979167,1,0,0,2.4475,Andesite_rect,3,0,3,0,1,
65bf9aeb592e888df327d648,SCR,2024-06-25_14h24.27.772,LearnStrategy,2023.2.3,Win32,62.11180124,6,2,5,,,,,,,,4,12,,,,,,,,,,,,,4,3.441,1,,,,,,0.459635417,-0.23046875,1,0,0,3.441,Gabbro_rect,4,0,4,0,1,
65bf9aeb592e888df327d648,SCR,2024-06-25_14h24.27.772,LearnStrategy,2023.2.3,Win32,62.11180124,6,2,6,,,,,,,,1,07,,,,,,,,,,,,,7,2.177,0,,,,,,0.141927083,-0.391927083,1,0,0,2.1765,Peridotite_rect,5,0,5,0,1,
65bf9aeb592e888df327d648,SCR,2024-06-25_14h24.27.772,LearnStrategy,2023.2.3,Win32,62.11180124,6,2,7,,,,,,,,8,06,,,,,,,,,,,,,8,1.188,1,,,,,,0.438802083,-0.388020833,1,0,0,1.1876,Pumice_rect,6,0,6,0,1,
65bf9aeb592e888df327d648,SCR,2024-06-25_14h24.27.772,LearnStrategy,2023.2.3,Win32,62.11180124,6,2,8,,,,,,,,6,08,,,,,,,,,,,,,6,1.2,1,,,,,,-0.157552083,-0.393229167,1,0,0,1.2,Pegmatite_rect,7,0,7,0,1,
65bf9aeb592e888df327d648,SCR,2024-06-25_14h24.27.772,LearnStrategy,2023.2.3,Win32,62.11180124,6,2,9,,,,,,,,5,10,,,,,,,,,,,,,5,1.128,1,,,,,,-0.354166667,-0.393229167,1,0,0,1.1276,Obsidian_rect,8,0,8,0,1,
65bf9aeb592e888df327d648,SCR,2024-06-25_14h24.27.772,LearnStrategy,2023.2.3,Win32,62.11180124,6,2,10,,,,,,,,2,11,,,,,,,,,,,,,1,1.656,0,,,,,,-0.373697917,-0.251302083,1,0,0,1.6558,Andesite_rect,9,0,9,0,1,
65bf9aeb592e888df327d648,SCR,2024-06-25_14h24.27.772,LearnStrategy,2023.2.3,Win32,62.11180124,6,2,11,,,,,,,,2,05,,,,,,,,,,,,,2,2,1,,,,,,-0.140625,-0.26953125,1,0,0,2.0004,Basalt_rect,10,0,10,0,1,
65bf9aeb592e888df327d648,SCR,2024-06-25_14h24.27.772,LearnStrategy,2023.2.3,Win32,62.11180124,6,2,12,,,,,,,,6,11,,,,,,,,,,,,,7,4.68,0,,,,,,0.165364583,-0.416666667,1,0,0,4.68,Peridotite_rect,11,0,11,0,1,
65bf9aeb592e888df327d648,SCR,2024-06-25_14h24.27.772,LearnStrategy,2023.2.3,Win32,62.11180124,6,2,13,,,,,,,,3,15,,,,,,,,,,,,,4,1.934,0,,,,,,0.446614583,-0.235677083,1,0,0,1.934,Gabbro_rect,12,0,12,0,1,
65bf9aeb592e888df327d648,SCR,2024-06-25_14h24.27.772,LearnStrategy,2023.2.3,Win32,62.11180124,6,2,14,,,,,,,,8,04,,,,,,,,,,,,,8,1.897,1,,,,,,0.412760417,-0.41015625,1,0,0,1.8973,Pumice_rect,13,0,13,0,1,
65bf9aeb592e888df327d648,SCR,2024-06-25_14h24.27.772,LearnStrategy,2023.2.3,Win32,62.11180124,6,2,15,,,,,,,,3,09,,,,,,,,,,,,,7,3.296,0,,,,,,0.0703125,-0.403645833,1,0,0,3.2962,Peridotite_rect,14,0,14,0,1,
65bf9aeb592e888df327d648,SCR,2024-06-25_14h24.27.772,LearnStrategy,2023.2.3,Win32,62.11180124,6,2,16,,,,,,,,4,05,,,,,,,,,,,,,3,2.213,0,,,,,,0.158854167,-0.239583333,1,0,0,2.2132,Diorite_rect,15,0,15,0,1,
65bf9aeb592e888df327d648,SCR,2024-06-25_14h24.27.772,LearnStrategy,2023.2.3,Win32,62.11180124,7,1,1,-0.368489583,0.251302083,1,0,0,1.174,Diorite_13,3,13,5,2,1.174,3,13,0.084635417,-0.401041667,1,0,0,25.2777,Peridotite_rect,7,25.278,0,0,0,0,0,1,,,,,,,,,,,,,
65bf9aeb592e888df327d648,SCR,2024-06-25_14h24.27.772,LearnStrategy,2023.2.3,Win32,62.11180124,7,1,2,-0.240885417,0.220052083,1,0,0,1.5445,Basalt_06,2,06,5,3,1.544,2,06,-0.201822917,-0.252604167,1,0,0,0.86,Basalt_rect,2,0.86,1,1,0,1,0,1,,,,,,,,,,,,,
65bf9aeb592e888df327d648,SCR,2024-06-25_14h24.27.772,LearnStrategy,2023.2.3,Win32,62.11180124,7,1,3,0.428385417,-0.432291667,1,0,0,0.9596,Gabbro_16,4,16,1,7,0.96,4,16,0.385416667,-0.229166667,1,0,0,19.6762,Gabbro_rect,4,19.676,1,2,0,2,0,1,,,,,,,,,,,,,
65bf9aeb592e888df327d648,SCR,2024-06-25_14h24.27.772,LearnStrategy,2023.2.3,Win32,62.11180124,7,1,4,0.515625,0.220052083,1,0,0,0.8769,Andesite_10,1,10,5,8,0.877,1,10,-0.330729167,-0.2578125,1,0,0,1.4122,Andesite_rect,1,1.412,1,3,0,3,0,1,,,,,,,,,,,,,
65bf9aeb592e888df327d648,SCR,2024-06-25_14h24.27.772,LearnStrategy,2023.2.3,Win32,62.11180124,7,1,5,0.071614583,0.078125,1,0,0,0.6242,Obsidian_06,5,06,4,5,0.624,5,06,0.079427083,-0.420572917,1,0,0,4.4428,Peridotite_rect,7,4.443,0,4,0,4,0,1,,,,,,,,,,,,,
65bf9aeb592e888df327d648,SCR,2024-06-25_14h24.27.772,LearnStrategy,2023.2.3,Win32,62.11180124,7,1,6,-0.180989583,-0.115885417,1,0,0,0.7396,Pegmatite_12,6,12,3,3,0.74,6,12,-0.091145833,-0.40625,1,0,0,1.6738,Pegmatite_rect,6,1.674,1,5,0,5,0,1,,,,,,,,,,,,,
65bf9aeb592e888df327d648,SCR,2024-06-25_14h24.27.772,LearnStrategy,2023.2.3,Win32,62.11180124,7,1,7,-0.08203125,-0.393229167,1,0,0,43.7421,Peridotite_15,7,15,1,4,43.742,7,15,0.119791667,-0.399739583,1,0,0,1.1318,Peridotite_rect,7,1.132,1,6,0,6,0,1,,,,,,,,,,,,,
65bf9aeb592e888df327d648,SCR,2024-06-25_14h24.27.772,LearnStrategy,2023.2.3,Win32,62.11180124,7,1,8,-0.091145833,-0.385416667,1,0,0,0.8339,Peridotite_15,7,15,1,4,0.834,7,15,0.126302083,-0.395833333,1,0,0,0.7495,Peridotite_rect,7,0.749,1,7,0,7,0,1,,,,,,,,,,,,,
65bf9aeb592e888df327d648,SCR,2024-06-25_14h24.27.772,LearnStrategy,2023.2.3,Win32,62.11180124,7,1,9,-0.188802083,-0.252604167,1,0,0,1.0401,Peridotite_06,7,06,2,3,1.04,7,06,0.119791667,-0.399739583,1,0,0,30.7246,Peridotite_rect,7,30.725,1,8,0,8,0,1,,,,,,,,,,,,,
65bf9aeb592e888df327d648,SCR,2024-06-25_14h24.27.772,LearnStrategy,2023.2.3,Win32,62.11180124,7,1,10,-0.251302083,-0.223958333,1,0,0,1.3454,Peridotite_06,7,06,2,3,1.345,7,06,-0.157552083,-0.401041667,1,0,0,1.6232,Pegmatite_rect,6,1.623,0,9,0,9,0,1,,,,,,,,,,,,,
65bf9aeb592e888df327d648,SCR,2024-06-25_14h24.27.772,LearnStrategy,2023.2.3,Win32,62.11180124,7,1,11,-0.591145833,0.22265625,1,0,0,1.4549,Gabbro_03,4,03,5,1,1.455,4,03,0.075520833,-0.384114583,1,0,0,2.2315,Peridotite_rect,7,2.231,0,10,0,10,0,1,,,,,,,,,,,,,
65bf9aeb592e888df327d648,SCR,2024-06-25_14h24.27.772,LearnStrategy,2023.2.3,Win32,62.11180124,7,1,12,0.048177083,0.428385417,1,0,0,1.0124,Diorite_10,3,10,6,5,1.012,3,10,0.0859375,-0.251302083,1,0,0,1.667,Diorite_rect,3,1.667,1,11,0,11,0,1,,,,,,,,,,,,,
65bf9aeb592e888df327d648,SCR,2024-06-25_14h24.27.772,LearnStrategy,2023.2.3,Win32,62.11180124,7,1,13,0.236979167,0.255208333,1,0,0,0.8265,Basalt_09,2,09,5,6,0.826,2,09,-0.174479167,-0.26171875,1,0,0,0.7669,Basalt_rect,2,0.767,1,12,0,12,0,1,,,,,,,,,,,,,
65bf9aeb592e888df327d648,SCR,2024-06-25_14h24.27.772,LearnStrategy,2023.2.3,Win32,62.11180124,7,1,14,0.545572917,-0.069010417,1,0,0,0.961,Gabbro_11,4,11,3,8,0.961,4,11,0.20703125,-0.25,1,0,0,2.8565,Diorite_rect,3,2.857,0,13,0,13,0,1,,,,,,,,,,,,,
65bf9aeb592e888df327d648,SCR,2024-06-25_14h24.27.772,LearnStrategy,2023.2.3,Win32,62.11180124,7,1,15,-0.515625,0.115885417,1,0,0,0.8108,Obsidian_08,5,08,4,1,0.811,3,08,-0.37109375,-0.39453125,1,0,0,1.536,Obsidian_rect,5,1.536,1,14,0,14,0,1,,,,,,,,,,,,,
65bf9aeb592e888df327d648,SCR,2024-06-25_14h24.27.772,LearnStrategy,2023.2.3,Win32,62.11180124,7,1,16,-0.21484375,0.397135417,1,0,0,1.3955,Andesite_06,1,06,6,3,1.395,1,06,0.11328125,-0.259114583,1,0,0,1.1644,Diorite_rect,3,1.164,0,15,0,15,0,1,,,,,,,,,,,,,
65bf9aeb592e888df327d648,SCR,2024-06-25_14h24.27.772,LearnStrategy,2023.2.3,Win32,62.11180124,7,2,1,,,,,,,,6,09,,,,,,,,,,,,,7,1.643,0,,,,,,0.111979167,-0.397135417,1,0,0,1.6428,Peridotite_rect,0,0,0,0,1,
65bf9aeb592e888df327d648,SCR,2024-06-25_14h24.27.772,LearnStrategy,2023.2.3,Win32,62.11180124,7,2,2,,,,,,,,2,11,,,,,,,,,,,,,1,1.924,0,,,,,,-0.40625,-0.263020833,1,0,0,1.9237,Andesite_rect,1,0,1,0,1,
65bf9aeb592e888df327d648,SCR,2024-06-25_14h24.27.772,LearnStrategy,2023.2.3,Win32,62.11180124,7,2,3,,,,,,,,7,07,,,,,,,,,,,,,3,2.617,0,,,,,,0.03125,-0.25390625,1,0,0,2.6166,Diorite_rect,2,0,2,0,1,
65bf9aeb592e888df327d648,SCR,2024-06-25_14h24.27.772,LearnStrategy,2023.2.3,Win32,62.11180124,7,2,4,,,,,,,,5,04,,,,,,,,,,,,,5,46.049,1,,,,,,-0.4609375,-0.40234375,1,0,0,46.0492,Obsidian_rect,3,0,3,0,1,
65bf9aeb592e888df327d648,SCR,2024-06-25_14h24.27.772,LearnStrategy,2023.2.3,Win32,62.11180124,7,2,5,,,,,,,,1,09,,,,,,,,,,,,,1,2.691,1,,,,,,-0.381510417,-0.25390625,1,0,0,2.691,Andesite_rect,4,0,4,0,1,
65bf9aeb592e888df327d648,SCR,2024-06-25_14h24.27.772,LearnStrategy,2023.2.3,Win32,62.11180124,7,2,6,,,,,,,,4,12,,,,,,,,,,,,,2,2.087,0,,,,,,-0.100260417,-0.25390625,1,0,0,2.0872,Basalt_rect,5,0,5,0,1,
65bf9aeb592e888df327d648,SCR,2024-06-25_14h24.27.772,LearnStrategy,2023.2.3,Win32,62.11180124,7,2,7,,,,,,,,6,11,,,,,,,,,,,,,7,1.233,0,,,,,,0.111979167,-0.397135417,1,0,0,1.2331,Peridotite_rect,6,0,6,0,1,
65bf9aeb592e888df327d648,SCR,2024-06-25_14h24.27.772,LearnStrategy,2023.2.3,Win32,62.11180124,7,2,8,,,,,,,,7,13,,,,,,,,,,,,,7,1.964,1,,,,,,0.10546875,-0.40625,1,0,0,1.9638,Peridotite_rect,7,0,7,0,1,
65bf9aeb592e888df327d648,SCR,2024-06-25_14h24.27.772,LearnStrategy,2023.2.3,Win32,62.11180124,7,2,9,,,,,,,,8,09,,,,,,,,,,,,,8,1.062,1,,,,,,0.3828125,-0.404947917,1,0,0,1.062,Pumice_rect,8,0,8,0,1,
65bf9aeb592e888df327d648,SCR,2024-06-25_14h24.27.772,LearnStrategy,2023.2.3,Win32,62.11180124,7,2,10,,,,,,,,1,07,,,,,,,,,,,,,6,1.375,0,,,,,,-0.084635417,-0.401041667,1,0,0,1.3749,Pegmatite_rect,9,0,9,0,1,
65bf9aeb592e888df327d648,SCR,2024-06-25_14h24.27.772,LearnStrategy,2023.2.3,Win32,62.11180124,7,2,11,,,,,,,,8,03,,,,,,,,,,,,,8,1.857,1,,,,,,0.34765625,-0.408854167,1,0,0,1.8566,Pumice_rect,10,0,10,0,1,
65bf9aeb592e888df327d648,SCR,2024-06-25_14h24.27.772,LearnStrategy,2023.2.3,Win32,62.11180124,7,2,12,,,,,,,,4,10,,,,,,,,,,,,,3,2.024,0,,,,,,0.151041667,-0.23046875,1,0,0,2.0242,Diorite_rect,11,0,11,0,1,
65bf9aeb592e888df327d648,SCR,2024-06-25_14h24.27.772,LearnStrategy,2023.2.3,Win32,62.11180124,7,2,13,,,,,,,,3,14,,,,,,,,,,,,,7,1.294,0,,,,,,0.076822917,-0.380208333,1,0,0,1.2943,Peridotite_rect,12,0,12,0,1,
65bf9aeb592e888df327d648,SCR,2024-06-25_14h24.27.772,LearnStrategy,2023.2.3,Win32,62.11180124,7,2,14,,,,,,,,3,15,,,,,,,,,,,,,4,1.901,0,,,,,,0.330729167,-0.260416667,1,0,0,1.9015,Gabbro_rect,13,0,13,0,1,
65bf9aeb592e888df327d648,SCR,2024-06-25_14h24.27.772,LearnStrategy,2023.2.3,Win32,62.11180124,7,2,15,,,,,,,,2,10,,,,,,,,,,,,,2,3.903,1,,,,,,-0.092447917,-0.252604167,1,0,0,3.9034,Basalt_rect,14,0,14,0,1,
65bf9aeb592e888df327d648,SCR,2024-06-25_14h24.27.772,LearnStrategy,2023.2.3,Win32,62.11180124,7,2,16,,,,,,,,5,11,,,,,,,,,,,,,5,1.081,1,,,,,,-0.346354167,-0.3984375,1,0,0,1.0814,Obsidian_rect,15,0,15,0,1,
65bf9aeb592e888df327d648,SCR,2024-06-25_14h24.27.772,LearnStrategy,2023.2.3,Win32,62.11180124,8,1,1,0.251302083,0.376302083,1,0,0,0.908,Andesite_05,1,05,6,6,0.908,1,05,0.153645833,-0.23828125,1,0,0,1.0828,Diorite_rect,3,1.083,0,0,0,0,0,1,,,,,,,,,,,,,
65bf9aeb592e888df327d648,SCR,2024-06-25_14h24.27.772,LearnStrategy,2023.2.3,Win32,62.11180124,8,1,2,-0.430989583,0.100260417,1,0,0,1.0295,Diorite_08,3,08,4,2,1.029,5,08,-0.135416667,-0.264322917,1,0,0,1.1735,Basalt_rect,2,1.173,0,1,0,1,0,1,,,,,,,,,,,,,
65bf9aeb592e888df327d648,SCR,2024-06-25_14h24.27.772,LearnStrategy,2023.2.3,Win32,62.11180124,8,1,3,-0.239583333,-0.247395833,1,0,0,1.067,Peridotite_06,7,06,2,3,1.067,7,06,0.065104167,-0.389322917,1,0,0,1.4962,Peridotite_rect,7,1.496,1,2,0,2,0,1,,,,,,,,,,,,,
65bf9aeb592e888df327d648,SCR,2024-06-25_14h24.27.772,LearnStrategy,2023.2.3,Win32,62.11180124,8,1,4,-0.41796875,0.095052083,1,0,0,1.0535,Diorite_08,3,08,4,2,1.053,3,08,-0.118489583,-0.411458333,1,0,0,0.7363,Pegmatite_rect,6,0.736,0,3,0,3,0,1,,,,,,,,,,,,,
65bf9aeb592e888df327d648,SCR,2024-06-25_14h24.27.772,LearnStrategy,2023.2.3,Win32,62.11180124,8,1,5,-0.592447917,0.25390625,1,0,0,0.8778,Gabbro_03,4,03,5,1,0.878,4,03,0.416666667,-0.24609375,1,0,0,2.4378,Gabbro_rect,4,2.438,1,4,0,4,0,1,,,,,,,,,,,,,
65bf9aeb592e888df327d648,SCR,2024-06-25_14h24.27.772,LearnStrategy,2023.2.3,Win32,62.11180124,8,1,6,-0.529947917,0.37890625,1,0,0,1.7775,Basalt_02,2,02,6,1,1.777,2,02,-0.178385417,-0.229166667,1,0,0,1.3076,Basalt_rect,2,1.308,1,5,0,5,0,1,,,,,,,,,,,,,
65bf9aeb592e888df327d648,SCR,2024-06-25_14h24.27.772,LearnStrategy,2023.2.3,Win32,62.11180124,8,1,7,0.063802083,0.419270833,1,0,0,0.8982,Diorite_10,3,10,6,5,0.898,3,10,0.076822917,-0.260416667,1,0,0,1.2418,Diorite_rect,3,1.242,1,6,0,6,0,1,,,,,,,,,,,,,
65bf9aeb592e888df327d648,SCR,2024-06-25_14h24.27.772,LearnStrategy,2023.2.3,Win32,62.11180124,8,1,8,0.290364583,0.393229167,1,0,0,1.0668,Andesite_05,1,05,6,6,1.067,1,05,-0.309895833,-0.247395833,1,0,0,1.5203,Andesite_rect,1,1.52,1,7,0,7,0,1,,,,,,,,,,,,,
65bf9aeb592e888df327d648,SCR,2024-06-25_14h24.27.772,LearnStrategy,2023.2.3,Win32,62.11180124,8,1,9,-0.559895833,-0.125,1,0,0,0.8812,Peridotite_14,7,14,3,1,0.881,7,14,0.0703125,-0.2421875,1,0,0,0.8875,Diorite_rect,3,0.888,0,8,0,8,0,1,,,,,,,,,,,,,
65bf9aeb592e888df327d648,SCR,2024-06-25_14h24.27.772,LearnStrategy,2023.2.3,Win32,62.11180124,8,1,10,0.09375,0.381510417,1,0,0,1.1817,Diorite_10,3,10,6,5,1.182,3,10,0.092447917,-0.266927083,1,0,0,1.1447,Diorite_rect,3,1.145,1,9,0,9,0,1,,,,,,,,,,,,,
65bf9aeb592e888df327d648,SCR,2024-06-25_14h24.27.772,LearnStrategy,2023.2.3,Win32,62.11180124,8,1,11,-0.225260417,-0.061197917,1,0,0,0.9287,Pegmatite_12,6,12,3,3,0.929,6,12,-0.147135417,-0.388020833,1,0,0,0.9583,Pegmatite_rect,6,0.958,1,10,0,10,0,1,,,,,,,,,,,,,
65bf9aeb592e888df327d648,SCR,2024-06-25_14h24.27.772,LearnStrategy,2023.2.3,Win32,62.11180124,8,1,12,0.1953125,0.096354167,1,0,0,0.711,Pegmatite_16,6,16,4,6,0.711,6,16,0.19921875,-0.41796875,1,0,0,0.948,Peridotite_rect,7,0.948,0,11,0,11,0,1,,,,,,,,,,,,,
65bf9aeb592e888df327d648,SCR,2024-06-25_14h24.27.772,LearnStrategy,2023.2.3,Win32,62.11180124,8,1,13,0.044270833,-0.264322917,1,0,0,0.7957,Basalt_14,2,14,2,5,0.796,2,14,0.375,-0.263020833,1,0,0,1.2941,Gabbro_rect,4,1.294,0,12,0,12,0,1,,,,,,,,,,,,,
65bf9aeb592e888df327d648,SCR,2024-06-25_14h24.27.772,LearnStrategy,2023.2.3,Win32,62.11180124,8,1,14,-0.501302083,0.24609375,1,0,0,0.8129,Gabbro_03,4,03,5,1,0.813,4,03,0.34765625,-0.234375,1,0,0,1.3874,Gabbro_rect,4,1.387,1,13,0,13,0,1,,,,,,,,,,,,,
65bf9aeb592e888df327d648,SCR,2024-06-25_14h24.27.772,LearnStrategy,2023.2.3,Win32,62.11180124,8,1,15,0.592447917,0.083333333,1,0,0,1.3115,Peridotite_10,7,10,4,8,1.311,7,10,0.15625,-0.2421875,1,0,0,0.845,Diorite_rect,3,0.845,0,14,0,14,0,1,,,,,,,,,,,,,
65bf9aeb592e888df327d648,SCR,2024-06-25_14h24.27.772,LearnStrategy,2023.2.3,Win32,62.11180124,8,1,16,0.588541667,-0.135416667,1,0,0,0.7136,Gabbro_11,4,11,3,8,0.714,4,11,-0.084635417,-0.26171875,1,0,0,1.6231,Basalt_rect,2,1.623,0,15,0,15,0,1,,,,,,,,,,,,,
65bf9aeb592e888df327d648,SCR,2024-06-25_14h24.27.772,LearnStrategy,2023.2.3,Win32,62.11180124,8,2,1,,,,,,,,3,16,,,,,,,,,,,,,7,5.556,0,,,,,,0.1015625,-0.390625,1,0,0,5.5556,Peridotite_rect,0,0,0,0,1,
65bf9aeb592e888df327d648,SCR,2024-06-25_14h24.27.772,LearnStrategy,2023.2.3,Win32,62.11180124,8,2,2,,,,,,,,4,15,,,,,,,,,,,,,6,1.657,0,,,,,,-0.07421875,-0.384114583,1,0,0,1.6571,Pegmatite_rect,1,0,1,0,1,
65bf9aeb592e888df327d648,SCR,2024-06-25_14h24.27.772,LearnStrategy,2023.2.3,Win32,62.11180124,8,2,3,,,,,,,,1,16,,,,,,,,,,,,,3,1.428,0,,,,,,0.16015625,-0.256510417,1,0,0,1.4279,Diorite_rect,2,0,2,0,1,
65bf9aeb592e888df327d648,SCR,2024-06-25_14h24.27.772,LearnStrategy,2023.2.3,Win32,62.11180124,8,2,4,,,,,,,,7,12,,,,,,,,,,,,,3,1.659,0,,,,,,0.17578125,-0.270833333,1,0,0,1.6589,Diorite_rect,3,0,3,0,1,
65bf9aeb592e888df327d648,SCR,2024-06-25_14h24.27.772,LearnStrategy,2023.2.3,Win32,62.11180124,8,2,5,,,,,,,,7,05,,,,,,,,,,,,,4,1.794,0,,,,,,0.35546875,-0.24609375,1,0,0,1.7939,Gabbro_rect,4,0,4,0,1,
65bf9aeb592e888df327d648,SCR,2024-06-25_14h24.27.772,LearnStrategy,2023.2.3,Win32,62.11180124,8,2,6,,,,,,,,8,04,,,,,,,,,,,,,8,1.194,1,,,,,,0.389322917,-0.391927083,1,0,0,1.1945,Pumice_rect,5,0,5,0,1,
65bf9aeb592e888df327d648,SCR,2024-06-25_14h24.27.772,LearnStrategy,2023.2.3,Win32,62.11180124,8,2,7,,,,,,,,2,01,,,,,,,,,,,,,2,1.326,1,,,,,,-0.057291667,-0.25390625,1,0,0,1.3262,Basalt_rect,6,0,6,0,1,
65bf9aeb592e888df327d648,SCR,2024-06-25_14h24.27.772,LearnStrategy,2023.2.3,Win32,62.11180124,8,2,8,,,,,,,,2,05,,,,,,,,,,,,,2,1.672,1,,,,,,-0.03515625,-0.25390625,1,0,0,1.672,Basalt_rect,7,0,7,0,1,
65bf9aeb592e888df327d648,SCR,2024-06-25_14h24.27.772,LearnStrategy,2023.2.3,Win32,62.11180124,8,2,9,,,,,,,,4,09,,,,,,,,,,,,,6,2.138,0,,,,,,-0.178385417,-0.411458333,1,0,0,2.138,Pegmatite_rect,8,0,8,0,1,
65bf9aeb592e888df327d648,SCR,2024-06-25_14h24.27.772,LearnStrategy,2023.2.3,Win32,62.11180124,8,2,10,,,,,,,,6,03,,,,,,,,,,,,,7,1.179,0,,,,,,0.123697917,-0.421875,1,0,0,1.179,Peridotite_rect,9,0,9,0,1,
65bf9aeb592e888df327d648,SCR,2024-06-25_14h24.27.772,LearnStrategy,2023.2.3,Win32,62.11180124,8,2,11,,,,,,,,8,06,,,,,,,,,,,,,8,1.359,1,,,,,,0.490885417,-0.399739583,1,0,0,1.3586,Pumice_rect,10,0,10,0,1,
65bf9aeb592e888df327d648,SCR,2024-06-25_14h24.27.772,LearnStrategy,2023.2.3,Win32,62.11180124,8,2,12,,,,,,,,3,02,,,,,,,,,,,,,3,0.99,1,,,,,,0.114583333,-0.239583333,1,0,0,0.9899,Diorite_rect,11,0,11,0,1,
65bf9aeb592e888df327d648,SCR,2024-06-25_14h24.27.772,LearnStrategy,2023.2.3,Win32,62.11180124,8,2,13,,,,,,,,6,13,,,,,,,,,,,,,4,0.826,0,,,,,,0.412760417,-0.247395833,1,0,0,0.8258,Gabbro_rect,12,0,12,0,1,
65bf9aeb592e888df327d648,SCR,2024-06-25_14h24.27.772,LearnStrategy,2023.2.3,Win32,62.11180124,8,2,14,,,,,,,,5,09,,,,,,,,,,,,,5,1.032,1,,,,,,-0.352864583,-0.40234375,1,0,0,1.0322,Obsidian_rect,13,0,13,0,1,
65bf9aeb592e888df327d648,SCR,2024-06-25_14h24.27.772,LearnStrategy,2023.2.3,Win32,62.11180124,8,2,15,,,,,,,,1,03,,,,,,,,,,,,,2,1.445,0,,,,,,-0.169270833,-0.259114583,1,0,0,1.4446,Basalt_rect,14,0,14,0,1,
65bf9aeb592e888df327d648,SCR,2024-06-25_14h24.27.772,LearnStrategy,2023.2.3,Win32,62.11180124,8,2,16,,,,,,,,5,07,,,,,,,,,,,,,5,1.786,1,,,,,,-0.377604167,-0.40234375,1,0,0,1.7862,Obsidian_rect,15,0,15,0,1,
65bf9aeb592e888df327d648,SCR,2024-06-25_14h24.27.772,LearnStrategy,2023.2.3,Win32,62.11180124,9,1,1,-0.575520833,0.098958333,1,0,0,1.6014,Obsidian_08,5,08,4,1,1.601,5,08,-0.384114583,-0.395833333,1,0,0,1.2135,Obsidian_rect,5,1.214,1,0,0,0,0,1,,,,,,,,,,,,,
65bf9aeb592e888df327d648,SCR,2024-06-25_14h24.27.772,LearnStrategy,2023.2.3,Win32,62.11180124,9,1,2,-0.358072917,0.078125,1,0,0,0.6891,Diorite_08,3,08,4,2,0.689,3,08,0.180989583,-0.23046875,1,0,0,1.1521,Diorite_rect,3,1.152,1,1,0,1,0,1,,,,,,,,,,,,,
65bf9aeb592e888df327d648,SCR,2024-06-25_14h24.27.772,LearnStrategy,2023.2.3,Win32,62.11180124,9,1,3,0.432291667,-0.412760417,1,0,0,1.414,Gabbro_16,4,16,1,7,1.414,4,16,-0.115885417,-0.266927083,1,0,0,0.9326,Basalt_rect,2,0.933,0,2,0,2,0,1,,,,,,,,,,,,,
65bf9aeb592e888df327d648,SCR,2024-06-25_14h24.27.772,LearnStrategy,2023.2.3,Win32,62.11180124,9,1,4,-0.592447917,-0.09765625,1,0,0,0.9985,Peridotite_14,7,14,3,1,0.998,7,14,0.1328125,-0.390625,1,0,0,1.0605,Peridotite_rect,7,1.061,1,3,0,3,0,1,,,,,,,,,,,,,
65bf9aeb592e888df327d648,SCR,2024-06-25_14h24.27.772,LearnStrategy,2023.2.3,Win32,62.11180124,9,1,5,0.235677083,0.356770833,1,0,0,1.0258,Andesite_05,1,05,6,6,1.026,1,05,-0.44140625,-0.233072917,1,0,0,1.3954,Andesite_rect,1,1.395,1,4,0,4,0,1,,,,,,,,,,,,,
65bf9aeb592e888df327d648,SCR,2024-06-25_14h24.27.772,LearnStrategy,2023.2.3,Win32,62.11180124,9,1,6,-0.040364583,0.389322917,1,0,0,2.613,Pegmatite_10,6,10,6,4,2.613,6,10,-0.147135417,-0.41796875,1,0,0,0.8925,Pegmatite_rect,6,0.892,1,5,0,5,0,1,,,,,,,,,,,,,
65bf9aeb592e888df327d648,SCR,2024-06-25_14h24.27.772,LearnStrategy,2023.2.3,Win32,62.11180124,9,1,7,-0.256510417,-0.235677083,1,0,0,0.6128,Peridotite_06,7,06,2,3,0.613,7,06,-0.075520833,-0.407552083,1,0,0,1.1271,Pegmatite_rect,6,1.127,0,6,0,6,0,1,,,,,,,,,,,,,
65bf9aeb592e888df327d648,SCR,2024-06-25_14h24.27.772,LearnStrategy,2023.2.3,Win32,62.11180124,9,1,8,-0.2265625,-0.1328125,1,0,0,1.4372,Pegmatite_12,6,12,3,3,1.437,6,12,-0.139322917,-0.381510417,1,0,0,0.7415,Pegmatite_rect,6,0.742,1,7,0,7,0,1,,,,,,,,,,,,,
65bf9aeb592e888df327d648,SCR,2024-06-25_14h24.27.772,LearnStrategy,2023.2.3,Win32,62.11180124,9,1,9,0.216145833,0.09765625,1,0,0,1.7851,Pegmatite_16,6,16,4,6,1.785,6,16,-0.12109375,-0.407552083,1,0,0,0.8081,Pegmatite_rect,6,0.808,1,8,0,8,0,1,,,,,,,,,,,,,
65bf9aeb592e888df327d648,SCR,2024-06-25_14h24.27.772,LearnStrategy,2023.2.3,Win32,62.11180124,9,1,10,-0.545572917,-0.270833333,1,0,0,1.1286,Peridotite_08,7,08,2,1,1.129,7,08,0.123697917,-0.41796875,1,0,0,1.0946,Peridotite_rect,7,1.095,1,9,0,9,0,1,,,,,,,,,,,,,
65bf9aeb592e888df327d648,SCR,2024-06-25_14h24.27.772,LearnStrategy,2023.2.3,Win32,62.11180124,9,1,11,-0.376302083,0.065104167,1,0,0,0.6938,Diorite_08,3,08,4,2,0.694,3,08,0.12109375,-0.248697917,1,0,0,0.8201,Diorite_rect,3,0.82,1,10,0,10,0,1,,,,,,,,,,,,,
65bf9aeb592e888df327d648,SCR,2024-06-25_14h24.27.772,LearnStrategy,2023.2.3,Win32,62.11180124,9,1,12,0.4140625,-0.403645833,1,0,0,1.2952,Gabbro_16,4,16,1,7,1.295,4,16,0.391927083,-0.239583333,1,0,0,1.1837,Gabbro_rect,4,1.184,1,11,0,11,0,1,,,,,,,,,,,,,
65bf9aeb592e888df327d648,SCR,2024-06-25_14h24.27.772,LearnStrategy,2023.2.3,Win32,62.11180124,9,1,13,-0.522135417,0.26171875,1,0,0,3.5274,Gabbro_03,4,03,5,1,3.527,4,03,0.342447917,-0.25390625,1,0,0,1.0648,Gabbro_rect,4,1.065,1,12,0,12,0,1,,,,,,,,,,,,,
65bf9aeb592e888df327d648,SCR,2024-06-25_14h24.27.772,LearnStrategy,2023.2.3,Win32,62.11180124,9,1,14,0.5546875,-0.420572917,1,0,0,1.8027,Basalt_04,2,04,1,8,1.803,2,04,-0.170572917,-0.268229167,1,0,0,0.873,Basalt_rect,2,0.873,1,13,0,13,0,1,,,,,,,,,,,,,
65bf9aeb592e888df327d648,SCR,2024-06-25_14h24.27.772,LearnStrategy,2023.2.3,Win32,62.11180124,9,1,15,0.36328125,0.095052083,1,0,0,0.9337,Andesite_02,1,02,4,7,0.934,1,02,0.34375,-0.40234375,1,0,0,1.0574,Pumice_rect,8,1.057,0,14,0,14,0,1,,,,,,,,,,,,,
65bf9aeb592e888df327d648,SCR,2024-06-25_14h24.27.772,LearnStrategy,2023.2.3,Win32,62.11180124,9,1,16,0.088541667,0.388020833,1,0,0,0.9638,Diorite_10,3,10,6,5,0.964,3,10,0.092447917,-0.256510417,1,0,0,0.8215,Diorite_rect,3,0.822,1,15,0,15,0,1,,,,,,,,,,,,,
65bf9aeb592e888df327d648,SCR,2024-06-25_14h24.27.772,LearnStrategy,2023.2.3,Win32,62.11180124,9,2,1,,,,,,,,3,07,,,,,,,,,,,,,6,1.731,0,,,,,,-0.12890625,-0.37890625,1,0,0,1.7309,Pegmatite_rect,0,0,0,0,1,
65bf9aeb592e888df327d648,SCR,2024-06-25_14h24.27.772,LearnStrategy,2023.2.3,Win32,62.11180124,9,2,2,,,,,,,,1,11,,,,,,,,,,,,,6,1.434,0,,,,,,-0.040364583,-0.40625,1,0,0,1.4343,Pegmatite_rect,1,0,1,0,1,
65bf9aeb592e888df327d648,SCR,2024-06-25_14h24.27.772,LearnStrategy,2023.2.3,Win32,62.11180124,9,2,3,,,,,,,,4,05,,,,,,,,,,,,,7,3.924,0,,,,,,0.087239583,-0.38671875,1,0,0,3.9238,Peridotite_rect,2,0,2,0,1,
65bf9aeb592e888df327d648,SCR,2024-06-25_14h24.27.772,LearnStrategy,2023.2.3,Win32,62.11180124,9,2,4,,,,,,,,4,13,,,,,,,,,,,,,4,1.618,1,,,,,,0.3984375,-0.235677083,1,0,0,1.6183,Gabbro_rect,3,0,3,0,1,
65bf9aeb592e888df327d648,SCR,2024-06-25_14h24.27.772,LearnStrategy,2023.2.3,Win32,62.11180124,9,2,5,,,,,,,,6,05,,,,,,,,,,,,,6,1.212,1,,,,,,-0.14453125,-0.419270833,1,0,0,1.212,Pegmatite_rect,4,0,4,0,1,
65bf9aeb592e888df327d648,SCR,2024-06-25_14h24.27.772,LearnStrategy,2023.2.3,Win32,62.11180124,9,2,6,,,,,,,,2,12,,,,,,,,,,,,,1,2.337,0,,,,,,-0.369791667,-0.23828125,1,0,0,2.3372,Andesite_rect,5,0,5,0,1,
65bf9aeb592e888df327d648,SCR,2024-06-25_14h24.27.772,LearnStrategy,2023.2.3,Win32,62.11180124,9,2,7,,,,,,,,8,14,,,,,,,,,,,,,8,1.197,1,,,,,,0.356770833,-0.419270833,1,0,0,1.197,Pumice_rect,6,0,6,0,1,
65bf9aeb592e888df327d648,SCR,2024-06-25_14h24.27.772,LearnStrategy,2023.2.3,Win32,62.11180124,9,2,8,,,,,,,,1,14,,,,,,,,,,,,,6,1.329,0,,,,,,-0.07421875,-0.40234375,1,0,0,1.3288,Pegmatite_rect,7,0,7,0,1,
65bf9aeb592e888df327d648,SCR,2024-06-25_14h24.27.772,LearnStrategy,2023.2.3,Win32,62.11180124,9,2,9,,,,,,,,6,08,,,,,,,,,,,,,6,1.058,1,,,,,,-0.102864583,-0.401041667,1,0,0,1.0581,Pegmatite_rect,8,0,8,0,1,
65bf9aeb592e888df327d648,SCR,2024-06-25_14h24.27.772,LearnStrategy,2023.2.3,Win32,62.11180124,9,2,10,,,,,,,,8,10,,,,,,,,,,,,,8,1.254,1,,,,,,0.356770833,-0.404947917,1,0,0,1.2543,Pumice_rect,9,0,9,0,1,
65bf9aeb592e888df327d648,SCR,2024-06-25_14h24.27.772,LearnStrategy,2023.2.3,Win32,62.11180124,9,2,11,,,,,,,,2,16,,,,,,,,,,,,,2,3.98,1,,,,,,-0.052083333,-0.248697917,1,0,0,3.9795,Basalt_rect,10,0,10,0,1,
65bf9aeb592e888df327d648,SCR,2024-06-25_14h24.27.772,LearnStrategy,2023.2.3,Win32,62.11180124,9,2,12,,,,,,,,5,05,,,,,,,,,,,,,5,1.307,1,,,,,,-0.352864583,-0.38671875,1,0,0,1.3069,Obsidian_rect,11,0,11,0,1,
65bf9aeb592e888df327d648,SCR,2024-06-25_14h24.27.772,LearnStrategy,2023.2.3,Win32,62.11180124,9,2,13,,,,,,,,7,16,,,,,,,,,,,,,3,1.257,0,,,,,,0.100260417,-0.240885417,1,0,0,1.2567,Diorite_rect,12,0,12,0,1,
65bf9aeb592e888df327d648,SCR,2024-06-25_14h24.27.772,LearnStrategy,2023.2.3,Win32,62.11180124,9,2,14,,,,,,,,7,04,,,,,,,,,,,,,4,0.899,0,,,,,,0.360677083,-0.240885417,1,0,0,0.8993,Gabbro_rect,13,0,13,0,1,
65bf9aeb592e888df327d648,SCR,2024-06-25_14h24.27.772,LearnStrategy,2023.2.3,Win32,62.11180124,9,2,15,,,,,,,,5,10,,,,,,,,,,,,,5,1.253,1,,,,,,-0.37109375,-0.399739583,1,0,0,1.2534,Obsidian_rect,14,0,14,0,1,
65bf9aeb592e888df327d648,SCR,2024-06-25_14h24.27.772,LearnStrategy,2023.2.3,Win32,62.11180124,9,2,16,,,,,,,,3,09,,,,,,,,,,,,,3,1.287,1,,,,,,0.084635417,-0.251302083,1,0,0,1.2871,Diorite_rect,15,0,15,0,1,
65bf9aeb592e888df327d648,SCR,2024-06-25_14h24.27.772,LearnStrategy,2023.2.3,Win32,62.11180124,,,,,,,,,,,,,,,,,,,,,,,,,,,,,,,,,,,,,,,,,,,,,0
65bf9aeb592e888df327d648,SCR,2024-06-25_14h24.27.772,LearnStrategy,2023.2.3,Win32,62.11180124,,,,,,,,,,,,,,,,,,,,,,,,,,,,,,,,,,,,,,,,,,,,,
65bf9aeb592e888df327d648,SCR,2024-06-25_14h24.27.772,LearnStrategy,2023.2.3,Win32,62.11180124,,,,,,,,,,,4,01,1,1,,,,,,,,,,,,,,,,,,,,,,,,,,,,,,,
65bf9aeb592e888df327d648,SCR,2024-06-25_14h24.27.772,LearnStrategy,2023.2.3,Win32,62.11180124,,,,,,,,,,,4,08,1,2,,,,,,,,,,,,,,,,,,,,,,,,,,,,,,,
65bf9aeb592e888df327d648,SCR,2024-06-25_14h24.27.772,LearnStrategy,2023.2.3,Win32,62.11180124,,,,,,,,,,,5,16,1,3,,,,,,,,,,,,,,,,,,,,,,,,,,,,,,,
65bf9aeb592e888df327d648,SCR,2024-06-25_14h24.27.772,LearnStrategy,2023.2.3,Win32,62.11180124,,,,,,,,,,,7,15,1,4,,,,,,,,,,,,,,,,,,,,,,,,,,,,,,,
65bf9aeb592e888df327d648,SCR,2024-06-25_14h24.27.772,LearnStrategy,2023.2.3,Win32,62.11180124,,,,,,,,,,,8,02,1,5,,,,,,,,,,,,,,,,,,,,,,,,,,,,,,,
65bf9aeb592e888df327d648,SCR,2024-06-25_14h24.27.772,LearnStrategy,2023.2.3,Win32,62.11180124,,,,,,,,,,,3,11,1,6,,,,,,,,,,,,,,,,,,,,,,,,,,,,,,,
65bf9aeb592e888df327d648,SCR,2024-06-25_14h24.27.772,LearnStrategy,2023.2.3,Win32,62.11180124,,,,,,,,,,,4,16,1,7,,,,,,,,,,,,,,,,,,,,,,,,,,,,,,,
65bf9aeb592e888df327d648,SCR,2024-06-25_14h24.27.772,LearnStrategy,2023.2.3,Win32,62.11180124,,,,,,,,,,,2,04,1,8,,,,,,,,,,,,,,,,,,,,,,,,,,,,,,,
65bf9aeb592e888df327d648,SCR,2024-06-25_14h24.27.772,LearnStrategy,2023.2.3,Win32,62.11180124,,,,,,,,,,,7,08,2,1,,,,,,,,,,,,,,,,,,,,,,,,,,,,,,,
65bf9aeb592e888df327d648,SCR,2024-06-25_14h24.27.772,LearnStrategy,2023.2.3,Win32,62.11180124,,,,,,,,,,,3,12,2,2,,,,,,,,,,,,,,,,,,,,,,,,,,,,,,,
65bf9aeb592e888df327d648,SCR,2024-06-25_14h24.27.772,LearnStrategy,2023.2.3,Win32,62.11180124,,,,,,,,,,,7,06,2,3,,,,,,,,,,,,,,,,,,,,,,,,,,,,,,,
65bf9aeb592e888df327d648,SCR,2024-06-25_14h24.27.772,LearnStrategy,2023.2.3,Win32,62.11180124,,,,,,,,,,,5,14,2,4,,,,,,,,,,,,,,,,,,,,,,,,,,,,,,,
65bf9aeb592e888df327d648,SCR,2024-06-25_14h24.27.772,LearnStrategy,2023.2.3,Win32,62.11180124,,,,,,,,,,,2,14,2,5,,,,,,,,,,,,,,,,,,,,,,,,,,,,,,,
65bf9aeb592e888df327d648,SCR,2024-06-25_14h24.27.772,LearnStrategy,2023.2.3,Win32,62.11180124,,,,,,,,,,,1,01,2,6,,,,,,,,,,,,,,,,,,,,,,,,,,,,,,,
65bf9aeb592e888df327d648,SCR,2024-06-25_14h24.27.772,LearnStrategy,2023.2.3,Win32,62.11180124,,,,,,,,,,,5,02,2,7,,,,,,,,,,,,,,,,,,,,,,,,,,,,,,,
65bf9aeb592e888df327d648,SCR,2024-06-25_14h24.27.772,LearnStrategy,2023.2.3,Win32,62.11180124,,,,,,,,,,,1,04,2,8,,,,,,,,,,,,,,,,,,,,,,,,,,,,,,,
65bf9aeb592e888df327d648,SCR,2024-06-25_14h24.27.772,LearnStrategy,2023.2.3,Win32,62.11180124,,,,,,,,,,,7,14,3,1,,,,,,,,,,,,,,,,,,,,,,,,,,,,,,,
65bf9aeb592e888df327d648,SCR,2024-06-25_14h24.27.772,LearnStrategy,2023.2.3,Win32,62.11180124,,,,,,,,,,,8,13,3,2,,,,,,,,,,,,,,,,,,,,,,,,,,,,,,,
65bf9aeb592e888df327d648,SCR,2024-06-25_14h24.27.772,LearnStrategy,2023.2.3,Win32,62.11180124,,,,,,,,,,,6,12,3,3,,,,,,,,,,,,,,,,,,,,,,,,,,,,,,,
65bf9aeb592e888df327d648,SCR,2024-06-25_14h24.27.772,LearnStrategy,2023.2.3,Win32,62.11180124,,,,,,,,,,,8,16,3,4,,,,,,,,,,,,,,,,,,,,,,,,,,,,,,,
65bf9aeb592e888df327d648,SCR,2024-06-25_14h24.27.772,LearnStrategy,2023.2.3,Win32,62.11180124,,,,,,,,,,,7,02,3,5,,,,,,,,,,,,,,,,,,,,,,,,,,,,,,,
65bf9aeb592e888df327d648,SCR,2024-06-25_14h24.27.772,LearnStrategy,2023.2.3,Win32,62.11180124,,,,,,,,,,,6,07,3,6,,,,,,,,,,,,,,,,,,,,,,,,,,,,,,,
65bf9aeb592e888df327d648,SCR,2024-06-25_14h24.27.772,LearnStrategy,2023.2.3,Win32,62.11180124,,,,,,,,,,,8,08,3,7,,,,,,,,,,,,,,,,,,,,,,,,,,,,,,,
65bf9aeb592e888df327d648,SCR,2024-06-25_14h24.27.772,LearnStrategy,2023.2.3,Win32,62.11180124,,,,,,,,,,,4,11,3,8,,,,,,,,,,,,,,,,,,,,,,,,,,,,,,,
65bf9aeb592e888df327d648,SCR,2024-06-25_14h24.27.772,LearnStrategy,2023.2.3,Win32,62.11180124,,,,,,,,,,,5,08,4,1,,,,,,,,,,,,,,,,,,,,,,,,,,,,,,,
65bf9aeb592e888df327d648,SCR,2024-06-25_14h24.27.772,LearnStrategy,2023.2.3,Win32,62.11180124,,,,,,,,,,,3,08,4,2,,,,,,,,,,,,,,,,,,,,,,,,,,,,,,,
65bf9aeb592e888df327d648,SCR,2024-06-25_14h24.27.772,LearnStrategy,2023.2.3,Win32,62.11180124,,,,,,,,,,,8,05,4,3,,,,,,,,,,,,,,,,,,,,,,,,,,,,,,,
65bf9aeb592e888df327d648,SCR,2024-06-25_14h24.27.772,LearnStrategy,2023.2.3,Win32,62.11180124,,,,,,,,,,,6,15,4,4,,,,,,,,,,,,,,,,,,,,,,,,,,,,,,,
65bf9aeb592e888df327d648,SCR,2024-06-25_14h24.27.772,LearnStrategy,2023.2.3,Win32,62.11180124,,,,,,,,,,,5,06,4,5,,,,,,,,,,,,,,,,,,,,,,,,,,,,,,,
65bf9aeb592e888df327d648,SCR,2024-06-25_14h24.27.772,LearnStrategy,2023.2.3,Win32,62.11180124,,,,,,,,,,,6,16,4,6,,,,,,,,,,,,,,,,,,,,,,,,,,,,,,,
65bf9aeb592e888df327d648,SCR,2024-06-25_14h24.27.772,LearnStrategy,2023.2.3,Win32,62.11180124,,,,,,,,,,,1,02,4,7,,,,,,,,,,,,,,,,,,,,,,,,,,,,,,,
65bf9aeb592e888df327d648,SCR,2024-06-25_14h24.27.772,LearnStrategy,2023.2.3,Win32,62.11180124,,,,,,,,,,,7,10,4,8,,,,,,,,,,,,,,,,,,,,,,,,,,,,,,,
65bf9aeb592e888df327d648,SCR,2024-06-25_14h24.27.772,LearnStrategy,2023.2.3,Win32,62.11180124,,,,,,,,,,,4,03,5,1,,,,,,,,,,,,,,,,,,,,,,,,,,,,,,,
65bf9aeb592e888df327d648,SCR,2024-06-25_14h24.27.772,LearnStrategy,2023.2.3,Win32,62.11180124,,,,,,,,,,,3,13,5,2,,,,,,,,,,,,,,,,,,,,,,,,,,,,,,,
65bf9aeb592e888df327d648,SCR,2024-06-25_14h24.27.772,LearnStrategy,2023.2.3,Win32,62.11180124,,,,,,,,,,,2,06,5,3,,,,,,,,,,,,,,,,,,,,,,,,,,,,,,,
65bf9aeb592e888df327d648,SCR,2024-06-25_14h24.27.772,LearnStrategy,2023.2.3,Win32,62.11180124,,,,,,,,,,,5,12,5,4,,,,,,,,,,,,,,,,,,,,,,,,,,,,,,,
65bf9aeb592e888df327d648,SCR,2024-06-25_14h24.27.772,LearnStrategy,2023.2.3,Win32,62.11180124,,,,,,,,,,,3,06,5,5,,,,,,,,,,,,,,,,,,,,,,,,,,,,,,,
65bf9aeb592e888df327d648,SCR,2024-06-25_14h24.27.772,LearnStrategy,2023.2.3,Win32,62.11180124,,,,,,,,,,,2,09,5,6,,,,,,,,,,,,,,,,,,,,,,,,,,,,,,,
65bf9aeb592e888df327d648,SCR,2024-06-25_14h24.27.772,LearnStrategy,2023.2.3,Win32,62.11180124,,,,,,,,,,,8,15,5,7,,,,,,,,,,,,,,,,,,,,,,,,,,,,,,,
65bf9aeb592e888df327d648,SCR,2024-06-25_14h24.27.772,LearnStrategy,2023.2.3,Win32,62.11180124,,,,,,,,,,,1,10,5,8,,,,,,,,,,,,,,,,,,,,,,,,,,,,,,,
65bf9aeb592e888df327d648,SCR,2024-06-25_14h24.27.772,LearnStrategy,2023.2.3,Win32,62.11180124,,,,,,,,,,,2,02,6,1,,,,,,,,,,,,,,,,,,,,,,,,,,,,,,,
65bf9aeb592e888df327d648,SCR,2024-06-25_14h24.27.772,LearnStrategy,2023.2.3,Win32,62.11180124,,,,,,,,,,,6,06,6,2,,,,,,,,,,,,,,,,,,,,,,,,,,,,,,,
65bf9aeb592e888df327d648,SCR,2024-06-25_14h24.27.772,LearnStrategy,2023.2.3,Win32,62.11180124,,,,,,,,,,,1,06,6,3,,,,,,,,,,,,,,,,,,,,,,,,,,,,,,,
65bf9aeb592e888df327d648,SCR,2024-06-25_14h24.27.772,LearnStrategy,2023.2.3,Win32,62.11180124,,,,,,,,,,,6,10,6,4,,,,,,,,,,,,,,,,,,,,,,,,,,,,,,,
65bf9aeb592e888df327d648,SCR,2024-06-25_14h24.27.772,LearnStrategy,2023.2.3,Win32,62.11180124,,,,,,,,,,,3,10,6,5,,,,,,,,,,,,,,,,,,,,,,,,,,,,,,,
65bf9aeb592e888df327d648,SCR,2024-06-25_14h24.27.772,LearnStrategy,2023.2.3,Win32,62.11180124,,,,,,,,,,,1,05,6,6,,,,,,,,,,,,,,,,,,,,,,,,,,,,,,,
65bf9aeb592e888df327d648,SCR,2024-06-25_14h24.27.772,LearnStrategy,2023.2.3,Win32,62.11180124,,,,,,,,,,,4,14,6,7,,,,,,,,,,,,,,,,,,,,,,,,,,,,,,,
65bf9aeb592e888df327d648,SCR,2024-06-25_14h24.27.772,LearnStrategy,2023.2.3,Win32,62.11180124,,,,,,,,,,,2,08,6,8,,,,,,,,,,,,,,,,,,,,,,,,,,,,,,,