participant,condition,date,expName,psychopyVersion,OS,frameRate,block,phase,trial,learn_mouse_2.x,learn_mouse_2.y,learn_mouse_2.leftButton,learn_mouse_2.midButton,learn_mouse_2.rightButton,learn_mouse_2.time,learn_mouse_2.clicked_name,cat,token,row,col,t_select,cat_mouse_l.x,cat_mouse_l.y,cat_mouse_l.leftButton,cat_mouse_l.midButton,cat_mouse_l.rightButton,cat_mouse_l.time,cat_mouse_l.clicked_name,resp,t_resp,corr,train_trials.thisRepN,train_trials.thisTrialN,train_trials.thisN,train_trials.thisIndex,train_trials.ran,cat_mouse_t.x,cat_mouse_t.y,cat_mouse_t.leftButton,cat_mouse_t.midButton,cat_mouse_t.rightButton,cat_mouse_t.time,cat_mouse_t.clicked_name,test_trials.thisRepN,test_trials.thisTrialN,test_trials.thisN,test_trials.thisIndex,test_trials.ran,Bonus
65c23bf7904812607642bad6,TCR,2024-06-11_12h10.44.150,LearnStrategy,2023.2.3,Win32,59.88023952,,,,,,,,,,,,,,,,,,,,,,,,,,,,,,,,,,,,,,,,,,,
65c23bf7904812607642bad6,TCR,2024-06-11_12h10.44.150,LearnStrategy,2023.2.3,Win32,59.88023952,1,1,1,-0.075,0,1,0,0,3.9185,rock_grid_rect_2,6,07,-1,-1,3.918,0.411111111,-0.237037037,1,0,0,5.5332,Gabbro_rect,4,5.533,0,0,0,0,0,1,,,,,,,,,,,,,
65c23bf7904812607642bad6,TCR,2024-06-11_12h10.44.150,LearnStrategy,2023.2.3,Win32,59.88023952,1,1,2,-0.034259259,-0.002777778,1,0,0,1.3523,rock_grid_rect_2,3,13,-1,-1,1.352,-0.380555556,-0.263888889,1,0,0,4.8791,Andesite_rect,1,4.879,0,1,0,1,0,1,,,,,,,,,,,,,
65c23bf7904812607642bad6,TCR,2024-06-11_12h10.44.150,LearnStrategy,2023.2.3,Win32,59.88023952,1,1,3,-0.052777778,-0.014814815,1,0,0,6.0115,rock_grid_rect_2,7,05,-1,-1,6.012,-0.128703704,-0.409259259,1,0,0,3.4019,Pegmatite_rect,6,3.402,0,2,0,2,0,1,,,,,,,,,,,,,
65c23bf7904812607642bad6,TCR,2024-06-11_12h10.44.150,LearnStrategy,2023.2.3,Win32,59.88023952,1,1,4,0.038888889,0.000925926,1,0,0,1.2857,rock_grid_rect_2,5,05,-1,-1,1.286,-0.442592593,-0.412037037,1,0,0,1.2314,Obsidian_rect,5,1.231,1,3,0,3,0,1,,,,,,,,,,,,,
65c23bf7904812607642bad6,TCR,2024-06-11_12h10.44.150,LearnStrategy,2023.2.3,Win32,59.88023952,1,1,5,0.024074074,-0.024074074,1,0,0,0.8478,rock_grid_rect_2,8,13,-1,-1,0.848,0.424074074,-0.407407407,1,0,0,3.625,Pumice_rect,8,3.625,1,4,0,4,0,1,,,,,,,,,,,,,
65c23bf7904812607642bad6,TCR,2024-06-11_12h10.44.150,LearnStrategy,2023.2.3,Win32,59.88023952,1,1,6,-0.078703704,-0.00462963,1,0,0,1.3694,rock_grid_rect_2,7,07,-1,-1,1.369,-0.146296296,-0.265740741,1,0,0,3.2775,Basalt_rect,2,3.278,0,5,0,5,0,1,,,,,,,,,,,,,
65c23bf7904812607642bad6,TCR,2024-06-11_12h10.44.150,LearnStrategy,2023.2.3,Win32,59.88023952,1,1,7,-0.027777778,-0.002777778,1,0,0,1.0466,rock_grid_rect_2,4,09,-1,-1,1.047,-0.176851852,-0.406481481,1,0,0,2.9079,Pegmatite_rect,6,2.908,0,6,0,6,0,1,,,,,,,,,,,,,
65c23bf7904812607642bad6,TCR,2024-06-11_12h10.44.150,LearnStrategy,2023.2.3,Win32,59.88023952,1,1,8,0.022222222,-0.003703704,1,0,0,1.0201,rock_grid_rect_2,4,15,-1,-1,1.02,0.368518519,-0.257407407,1,0,0,3.2332,Gabbro_rect,4,3.233,1,7,0,7,0,1,,,,,,,,,,,,,
65c23bf7904812607642bad6,TCR,2024-06-11_12h10.44.150,LearnStrategy,2023.2.3,Win32,59.88023952,1,1,9,-0.090740741,-0.001851852,1,0,0,1.3793,rock_grid_rect_2,5,06,-1,-1,1.379,-0.387962963,-0.387962963,1,0,0,2.4893,Obsidian_rect,5,2.489,1,8,0,8,0,1,,,,,,,,,,,,,
65c23bf7904812607642bad6,TCR,2024-06-11_12h10.44.150,LearnStrategy,2023.2.3,Win32,59.88023952,1,1,10,0.02037037,-0.012962963,1,0,0,1.1467,rock_grid_rect_2,6,10,-1,-1,1.147,0.134259259,-0.257407407,1,0,0,2.6617,Diorite_rect,3,2.662,0,9,0,9,0,1,,,,,,,,,,,,,
65c23bf7904812607642bad6,TCR,2024-06-11_12h10.44.150,LearnStrategy,2023.2.3,Win32,59.88023952,1,1,11,0.012037037,0.019444444,1,0,0,0.7974,rock_grid_rect_2,1,01,-1,-1,0.797,-0.150925926,-0.255555556,1,0,0,5.2742,Basalt_rect,2,5.274,0,10,0,10,0,1,,,,,,,,,,,,,
65c23bf7904812607642bad6,TCR,2024-06-11_12h10.44.150,LearnStrategy,2023.2.3,Win32,59.88023952,1,1,12,0.034259259,-0.025,1,0,0,1.2798,rock_grid_rect_2,3,11,-1,-1,1.28,0.1,-0.408333333,1,0,0,3.4683,Peridotite_rect,7,3.468,0,11,0,11,0,1,,,,,,,,,,,,,
65c23bf7904812607642bad6,TCR,2024-06-11_12h10.44.150,LearnStrategy,2023.2.3,Win32,59.88023952,1,1,13,-0.024074074,0.00462963,1,0,0,0.9034,rock_grid_rect_2,2,16,-1,-1,0.903,0.42962963,-0.409259259,1,0,0,1.4577,Pumice_rect,8,1.458,0,12,0,12,0,1,,,,,,,,,,,,,
65c23bf7904812607642bad6,TCR,2024-06-11_12h10.44.150,LearnStrategy,2023.2.3,Win32,59.88023952,1,1,14,0.007407407,-0.00462963,1,0,0,1.0476,rock_grid_rect_2,1,07,-1,-1,1.048,0.075925926,-0.398148148,1,0,0,3.3716,Peridotite_rect,7,3.372,0,13,0,13,0,1,,,,,,,,,,,,,
65c23bf7904812607642bad6,TCR,2024-06-11_12h10.44.150,LearnStrategy,2023.2.3,Win32,59.88023952,1,1,15,-0.055555556,-0.010185185,1,0,0,1.0794,rock_grid_rect_2,8,15,-1,-1,1.079,0.387037037,-0.411111111,1,0,0,1.2441,Pumice_rect,8,1.244,1,14,0,14,0,1,,,,,,,,,,,,,
65c23bf7904812607642bad6,TCR,2024-06-11_12h10.44.150,LearnStrategy,2023.2.3,Win32,59.88023952,1,1,16,-0.002777778,-0.001851852,1,0,0,2.9306,rock_grid_rect_2,2,09,-1,-1,2.931,-0.37962963,-0.238888889,1,0,0,2.5997,Andesite_rect,1,2.6,0,15,0,15,0,1,,,,,,,,,,,,,
65c23bf7904812607642bad6,TCR,2024-06-11_12h10.44.150,LearnStrategy,2023.2.3,Win32,59.88023952,1,2,1,,,,,,,,2,02,,,,,,,,,,,2,2.853,1,,,,,,-0.155555556,-0.265740741,1,0,0,2.8532,Basalt_rect,0,0,0,0,1,
65c23bf7904812607642bad6,TCR,2024-06-11_12h10.44.150,LearnStrategy,2023.2.3,Win32,59.88023952,1,2,2,,,,,,,,7,15,,,,,,,,,,,3,6.681,0,,,,,,0.098148148,-0.264814815,1,0,0,6.6813,Diorite_rect,1,0,1,0,1,
65c23bf7904812607642bad6,TCR,2024-06-11_12h10.44.150,LearnStrategy,2023.2.3,Win32,59.88023952,1,2,3,,,,,,,,4,11,,,,,,,,,,,4,8.808,1,,,,,,0.414814815,-0.22962963,1,0,0,8.8077,Gabbro_rect,2,0,2,0,1,
65c23bf7904812607642bad6,TCR,2024-06-11_12h10.44.150,LearnStrategy,2023.2.3,Win32,59.88023952,1,2,4,,,,,,,,6,03,,,,,,,,,,,6,4.389,1,,,,,,-0.137037037,-0.402777778,1,0,0,4.3886,Pegmatite_rect,3,0,3,0,1,
65c23bf7904812607642bad6,TCR,2024-06-11_12h10.44.150,LearnStrategy,2023.2.3,Win32,59.88023952,1,2,5,,,,,,,,1,09,,,,,,,,,,,7,7.838,0,,,,,,0.136111111,-0.407407407,1,0,0,7.8376,Peridotite_rect,4,0,4,0,1,
65c23bf7904812607642bad6,TCR,2024-06-11_12h10.44.150,LearnStrategy,2023.2.3,Win32,59.88023952,1,2,6,,,,,,,,5,12,,,,,,,,,,,5,1.282,1,,,,,,-0.394444444,-0.406481481,1,0,0,1.2821,Obsidian_rect,5,0,5,0,1,
65c23bf7904812607642bad6,TCR,2024-06-11_12h10.44.150,LearnStrategy,2023.2.3,Win32,59.88023952,1,2,7,,,,,,,,8,04,,,,,,,,,,,8,1.178,1,,,,,,0.396296296,-0.412962963,1,0,0,1.1783,Pumice_rect,6,0,6,0,1,
65c23bf7904812607642bad6,TCR,2024-06-11_12h10.44.150,LearnStrategy,2023.2.3,Win32,59.88023952,1,2,8,,,,,,,,7,13,,,,,,,,,,,7,5.775,1,,,,,,0.083333333,-0.406481481,1,0,0,5.7753,Peridotite_rect,7,0,7,0,1,
65c23bf7904812607642bad6,TCR,2024-06-11_12h10.44.150,LearnStrategy,2023.2.3,Win32,59.88023952,1,2,9,,,,,,,,4,12,,,,,,,,,,,2,2.565,0,,,,,,-0.106481481,-0.262037037,1,0,0,2.5645,Basalt_rect,8,0,8,0,1,
65c23bf7904812607642bad6,TCR,2024-06-11_12h10.44.150,LearnStrategy,2023.2.3,Win32,59.88023952,1,2,10,,,,,,,,2,06,,,,,,,,,,,2,11.724,1,,,,,,-0.174074074,-0.244444444,1,0,0,11.7239,Basalt_rect,9,0,9,0,1,
65c23bf7904812607642bad6,TCR,2024-06-11_12h10.44.150,LearnStrategy,2023.2.3,Win32,59.88023952,1,2,11,,,,,,,,3,15,,,,,,,,,,,6,5.001,0,,,,,,-0.202777778,-0.403703704,1,0,0,5.001,Pegmatite_rect,10,0,10,0,1,
65c23bf7904812607642bad6,TCR,2024-06-11_12h10.44.150,LearnStrategy,2023.2.3,Win32,59.88023952,1,2,12,,,,,,,,6,09,,,,,,,,,,,6,5.562,1,,,,,,-0.131481481,-0.4,1,0,0,5.5623,Pegmatite_rect,11,0,11,0,1,
65c23bf7904812607642bad6,TCR,2024-06-11_12h10.44.150,LearnStrategy,2023.2.3,Win32,59.88023952,1,2,13,,,,,,,,5,11,,,,,,,,,,,5,1.078,1,,,,,,-0.352777778,-0.387962963,1,0,0,1.0779,Obsidian_rect,12,0,12,0,1,
65c23bf7904812607642bad6,TCR,2024-06-11_12h10.44.150,LearnStrategy,2023.2.3,Win32,59.88023952,1,2,14,,,,,,,,3,07,,,,,,,,,,,3,6.064,1,,,,,,0.118518519,-0.248148148,1,0,0,6.0638,Diorite_rect,13,0,13,0,1,
65c23bf7904812607642bad6,TCR,2024-06-11_12h10.44.150,LearnStrategy,2023.2.3,Win32,59.88023952,1,2,15,,,,,,,,8,05,,,,,,,,,,,8,1.121,1,,,,,,0.4,-0.383333333,1,0,0,1.1212,Pumice_rect,14,0,14,0,1,
65c23bf7904812607642bad6,TCR,2024-06-11_12h10.44.150,LearnStrategy,2023.2.3,Win32,59.88023952,1,2,16,,,,,,,,1,02,,,,,,,,,,,1,4.64,1,,,,,,-0.424074074,-0.25462963,1,0,0,4.6402,Andesite_rect,15,0,15,0,1,
65c23bf7904812607642bad6,TCR,2024-06-11_12h10.44.150,LearnStrategy,2023.2.3,Win32,59.88023952,2,1,1,0.02962963,-0.002777778,1,0,0,1.6967,rock_grid_rect_2,2,11,-1,-1,1.697,-0.162037037,-0.249074074,1,0,0,5.1582,Basalt_rect,2,5.158,1,0,0,0,0,1,,,,,,,,,,,,,
65c23bf7904812607642bad6,TCR,2024-06-11_12h10.44.150,LearnStrategy,2023.2.3,Win32,59.88023952,2,1,2,-0.028703704,0.002777778,1,0,0,0.8442,rock_grid_rect_2,1,05,-1,-1,0.844,0.105555556,-0.267592593,1,0,0,2.9303,Diorite_rect,3,2.93,0,1,0,1,0,1,,,,,,,,,,,,,
65c23bf7904812607642bad6,TCR,2024-06-11_12h10.44.150,LearnStrategy,2023.2.3,Win32,59.88023952,2,1,3,-0.041666667,0.012962963,1,0,0,0.9534,rock_grid_rect_2,7,04,-1,-1,0.953,-0.4,-0.263888889,1,0,0,8.6715,Andesite_rect,1,8.672,0,2,0,2,0,1,,,,,,,,,,,,,
65c23bf7904812607642bad6,TCR,2024-06-11_12h10.44.150,LearnStrategy,2023.2.3,Win32,59.88023952,2,1,4,-0.068518519,-0.003703704,1,0,0,0.8305,rock_grid_rect_2,3,10,-1,-1,0.83,-0.392592593,-0.244444444,1,0,0,5.977,Andesite_rect,1,5.977,0,3,0,3,0,1,,,,,,,,,,,,,
65c23bf7904812607642bad6,TCR,2024-06-11_12h10.44.150,LearnStrategy,2023.2.3,Win32,59.88023952,2,1,5,0.010185185,-0.012037037,1,0,0,1.163,rock_grid_rect_2,3,10,-1,-1,1.163,0.103703704,-0.257407407,1,0,0,1.8293,Diorite_rect,3,1.829,1,4,0,4,0,1,,,,,,,,,,,,,
65c23bf7904812607642bad6,TCR,2024-06-11_12h10.44.150,LearnStrategy,2023.2.3,Win32,59.88023952,2,1,6,-0.057407407,0.006481481,1,0,0,0.8312,rock_grid_rect_2,1,05,-1,-1,0.831,-0.375925926,-0.234259259,1,0,0,2.4524,Andesite_rect,1,2.452,1,5,0,5,0,1,,,,,,,,,,,,,
65c23bf7904812607642bad6,TCR,2024-06-11_12h10.44.150,LearnStrategy,2023.2.3,Win32,59.88023952,2,1,7,-0.001851852,0.000925926,1,0,0,0.7464,rock_grid_rect_2,7,12,-1,-1,0.746,0.075,-0.246296296,1,0,0,5.0197,Diorite_rect,3,5.02,0,6,0,6,0,1,,,,,,,,,,,,,
65c23bf7904812607642bad6,TCR,2024-06-11_12h10.44.150,LearnStrategy,2023.2.3,Win32,59.88023952,2,1,8,-0.032407407,-0.003703704,1,0,0,0.9625,rock_grid_rect_2,1,07,-1,-1,0.963,0.147222222,-0.247222222,1,0,0,4.0796,Diorite_rect,3,4.08,0,7,0,7,0,1,,,,,,,,,,,,,
65c23bf7904812607642bad6,TCR,2024-06-11_12h10.44.150,LearnStrategy,2023.2.3,Win32,59.88023952,2,1,9,0.00462963,-0.016666667,1,0,0,1.5625,rock_grid_rect_2,4,16,-1,-1,1.563,0.183333333,-0.392592593,1,0,0,13.6383,Peridotite_rect,7,13.638,0,8,0,8,0,1,,,,,,,,,,,,,
65c23bf7904812607642bad6,TCR,2024-06-11_12h10.44.150,LearnStrategy,2023.2.3,Win32,59.88023952,2,1,10,0.014814815,-0.013888889,1,0,0,1.1459,rock_grid_rect_2,4,01,-1,-1,1.146,0.110185185,-0.390740741,1,0,0,3.229,Peridotite_rect,7,3.229,0,9,0,9,0,1,,,,,,,,,,,,,
65c23bf7904812607642bad6,TCR,2024-06-11_12h10.44.150,LearnStrategy,2023.2.3,Win32,59.88023952,2,1,11,-0.025925926,-0.005555556,1,0,0,1.2625,rock_grid_rect_2,4,09,-1,-1,1.263,0.325925926,-0.253703704,1,0,0,7.4502,Gabbro_rect,4,7.45,1,10,0,10,0,1,,,,,,,,,,,,,
65c23bf7904812607642bad6,TCR,2024-06-11_12h10.44.150,LearnStrategy,2023.2.3,Win32,59.88023952,2,1,12,0.064814815,0.007407407,1,0,0,1.0958,rock_grid_rect_2,3,11,-1,-1,1.096,0.355555556,-0.250925926,1,0,0,3.0407,Gabbro_rect,4,3.041,0,11,0,11,0,1,,,,,,,,,,,,,
65c23bf7904812607642bad6,TCR,2024-06-11_12h10.44.150,LearnStrategy,2023.2.3,Win32,59.88023952,2,1,13,-0.012962963,-0.006481481,1,0,0,1.3129,rock_grid_rect_2,6,06,-1,-1,1.313,0.396296296,-0.250925926,1,0,0,14.1492,Gabbro_rect,4,14.149,0,12,0,12,0,1,,,,,,,,,,,,,
65c23bf7904812607642bad6,TCR,2024-06-11_12h10.44.150,LearnStrategy,2023.2.3,Win32,59.88023952,2,1,14,0.02037037,-0.008333333,1,0,0,0.9957,rock_grid_rect_2,7,07,-1,-1,0.996,0.397222222,-0.257407407,1,0,0,9.3327,Gabbro_rect,4,9.333,0,13,0,13,0,1,,,,,,,,,,,,,
65c23bf7904812607642bad6,TCR,2024-06-11_12h10.44.150,LearnStrategy,2023.2.3,Win32,59.88023952,2,1,15,-0.02962963,-0.014814815,1,0,0,0.9263,rock_grid_rect_2,5,09,-1,-1,0.926,-0.387962963,-0.399074074,1,0,0,1.153,Obsidian_rect,5,1.153,1,14,0,14,0,1,,,,,,,,,,,,,
65c23bf7904812607642bad6,TCR,2024-06-11_12h10.44.150,LearnStrategy,2023.2.3,Win32,59.88023952,2,1,16,0.059259259,-0.017592593,1,0,0,0.9968,rock_grid_rect_2,8,13,-1,-1,0.997,0.381481481,-0.403703704,1,0,0,1.0452,Pumice_rect,8,1.045,1,15,0,15,0,1,,,,,,,,,,,,,
65c23bf7904812607642bad6,TCR,2024-06-11_12h10.44.150,LearnStrategy,2023.2.3,Win32,59.88023952,2,2,1,,,,,,,,4,05,,,,,,,,,,,4,2.737,1,,,,,,0.344444444,-0.240740741,1,0,0,2.7366,Gabbro_rect,0,0,0,0,1,
65c23bf7904812607642bad6,TCR,2024-06-11_12h10.44.150,LearnStrategy,2023.2.3,Win32,59.88023952,2,2,2,,,,,,,,6,11,,,,,,,,,,,6,6.262,1,,,,,,-0.087037037,-0.394444444,1,0,0,6.2619,Pegmatite_rect,1,0,1,0,1,
65c23bf7904812607642bad6,TCR,2024-06-11_12h10.44.150,LearnStrategy,2023.2.3,Win32,59.88023952,2,2,3,,,,,,,,2,14,,,,,,,,,,,8,2.236,0,,,,,,0.4,-0.413888889,1,0,0,2.2363,Pumice_rect,2,0,2,0,1,
65c23bf7904812607642bad6,TCR,2024-06-11_12h10.44.150,LearnStrategy,2023.2.3,Win32,59.88023952,2,2,4,,,,,,,,5,10,,,,,,,,,,,5,1.488,1,,,,,,-0.442592593,-0.412037037,1,0,0,1.4884,Obsidian_rect,3,0,3,0,1,
65c23bf7904812607642bad6,TCR,2024-06-11_12h10.44.150,LearnStrategy,2023.2.3,Win32,59.88023952,2,2,5,,,,,,,,1,14,,,,,,,,,,,7,9.768,0,,,,,,0.131481481,-0.396296296,1,0,0,9.7682,Peridotite_rect,4,0,4,0,1,
65c23bf7904812607642bad6,TCR,2024-06-11_12h10.44.150,LearnStrategy,2023.2.3,Win32,59.88023952,2,2,6,,,,,,,,6,05,,,,,,,,,,,6,1.302,1,,,,,,-0.058333333,-0.408333333,1,0,0,1.3024,Pegmatite_rect,5,0,5,0,1,
65c23bf7904812607642bad6,TCR,2024-06-11_12h10.44.150,LearnStrategy,2023.2.3,Win32,59.88023952,2,2,7,,,,,,,,4,08,,,,,,,,,,,4,4.944,1,,,,,,0.382407407,-0.267592593,1,0,0,4.944,Gabbro_rect,6,0,6,0,1,
65c23bf7904812607642bad6,TCR,2024-06-11_12h10.44.150,LearnStrategy,2023.2.3,Win32,59.88023952,2,2,8,,,,,,,,3,14,,,,,,,,,,,1,5.661,0,,,,,,-0.388888889,-0.262962963,1,0,0,5.6607,Andesite_rect,7,0,7,0,1,
65c23bf7904812607642bad6,TCR,2024-06-11_12h10.44.150,LearnStrategy,2023.2.3,Win32,59.88023952,2,2,9,,,,,,,,2,12,,,,,,,,,,,2,6.153,1,,,,,,-0.114814815,-0.243518519,1,0,0,6.1533,Basalt_rect,8,0,8,0,1,
65c23bf7904812607642bad6,TCR,2024-06-11_12h10.44.150,LearnStrategy,2023.2.3,Win32,59.88023952,2,2,10,,,,,,,,8,16,,,,,,,,,,,8,1.223,1,,,,,,0.413888889,-0.392592593,1,0,0,1.2228,Pumice_rect,9,0,9,0,1,
65c23bf7904812607642bad6,TCR,2024-06-11_12h10.44.150,LearnStrategy,2023.2.3,Win32,59.88023952,2,2,11,,,,,,,,1,16,,,,,,,,,,,3,4.869,0,,,,,,0.092592593,-0.267592593,1,0,0,4.8686,Diorite_rect,10,0,10,0,1,
65c23bf7904812607642bad6,TCR,2024-06-11_12h10.44.150,LearnStrategy,2023.2.3,Win32,59.88023952,2,2,12,,,,,,,,7,16,,,,,,,,,,,1,3.315,0,,,,,,-0.371296296,-0.249074074,1,0,0,3.3147,Andesite_rect,11,0,11,0,1,
65c23bf7904812607642bad6,TCR,2024-06-11_12h10.44.150,LearnStrategy,2023.2.3,Win32,59.88023952,2,2,13,,,,,,,,7,06,,,,,,,,,,,3,13.314,0,,,,,,0.093518519,-0.25,1,0,0,13.3138,Diorite_rect,12,0,12,0,1,
65c23bf7904812607642bad6,TCR,2024-06-11_12h10.44.150,LearnStrategy,2023.2.3,Win32,59.88023952,2,2,14,,,,,,,,3,12,,,,,,,,,,,3,3.275,1,,,,,,0.084259259,-0.247222222,1,0,0,3.2747,Diorite_rect,13,0,13,0,1,
65c23bf7904812607642bad6,TCR,2024-06-11_12h10.44.150,LearnStrategy,2023.2.3,Win32,59.88023952,2,2,15,,,,,,,,5,04,,,,,,,,,,,5,1.036,1,,,,,,-0.468518519,-0.398148148,1,0,0,1.0355,Obsidian_rect,14,0,14,0,1,
65c23bf7904812607642bad6,TCR,2024-06-11_12h10.44.150,LearnStrategy,2023.2.3,Win32,59.88023952,2,2,16,,,,,,,,8,03,,,,,,,,,,,8,0.924,1,,,,,,0.40462963,-0.414814815,1,0,0,0.9236,Pumice_rect,15,0,15,0,1,
65c23bf7904812607642bad6,TCR,2024-06-11_12h10.44.150,LearnStrategy,2023.2.3,Win32,59.88023952,3,1,1,0.024074074,-0.002777778,1,0,0,1.4313,rock_grid_rect_2,7,07,-1,-1,1.431,0.153703704,-0.402777778,1,0,0,8.06,Peridotite_rect,7,8.06,1,0,0,0,0,1,,,,,,,,,,,,,
65c23bf7904812607642bad6,TCR,2024-06-11_12h10.44.150,LearnStrategy,2023.2.3,Win32,59.88023952,3,1,2,0.00462963,0,1,0,0,1.1626,rock_grid_rect_2,4,15,-1,-1,1.163,0.403703704,-0.260185185,1,0,0,4.4949,Gabbro_rect,4,4.495,1,1,0,1,0,1,,,,,,,,,,,,,
65c23bf7904812607642bad6,TCR,2024-06-11_12h10.44.150,LearnStrategy,2023.2.3,Win32,59.88023952,3,1,3,0.016666667,0.003703704,1,0,0,1.3635,rock_grid_rect_2,8,09,-1,-1,1.364,0.380555556,-0.4,1,0,0,1.4332,Pumice_rect,8,1.433,1,2,0,2,0,1,,,,,,,,,,,,,
65c23bf7904812607642bad6,TCR,2024-06-11_12h10.44.150,LearnStrategy,2023.2.3,Win32,59.88023952,3,1,4,-0.057407407,-0.015740741,1,0,0,1.1309,rock_grid_rect_2,1,07,-1,-1,1.131,0.101851852,-0.235185185,1,0,0,12.4885,Diorite_rect,3,12.488,0,3,0,3,0,1,,,,,,,,,,,,,
65c23bf7904812607642bad6,TCR,2024-06-11_12h10.44.150,LearnStrategy,2023.2.3,Win32,59.88023952,3,1,5,-0.044444444,-0.005555556,1,0,0,3.0288,rock_grid_rect_2,3,10,-1,-1,3.029,0.122222222,-0.249074074,1,0,0,2.5906,Diorite_rect,3,2.591,1,4,0,4,0,1,,,,,,,,,,,,,
65c23bf7904812607642bad6,TCR,2024-06-11_12h10.44.150,LearnStrategy,2023.2.3,Win32,59.88023952,3,1,6,-0.041666667,0,1,0,0,1.0306,rock_grid_rect_2,7,05,-1,-1,1.031,-0.128703704,-0.412962963,1,0,0,8.1889,Pegmatite_rect,6,8.189,0,5,0,5,0,1,,,,,,,,,,,,,
65c23bf7904812607642bad6,TCR,2024-06-11_12h10.44.150,LearnStrategy,2023.2.3,Win32,59.88023952,3,1,7,0.017592593,0.010185185,1,0,0,1.196,rock_grid_rect_2,1,03,-1,-1,1.196,-0.109259259,-0.239814815,1,0,0,1.2936,Basalt_rect,2,1.294,0,6,0,6,0,1,,,,,,,,,,,,,
65c23bf7904812607642bad6,TCR,2024-06-11_12h10.44.150,LearnStrategy,2023.2.3,Win32,59.88023952,3,1,8,0.078703704,0.016666667,1,0,0,1.1797,rock_grid_rect_2,2,09,-1,-1,1.18,-0.140740741,-0.258333333,1,0,0,2.0807,Basalt_rect,2,2.081,1,7,0,7,0,1,,,,,,,,,,,,,
65c23bf7904812607642bad6,TCR,2024-06-11_12h10.44.150,LearnStrategy,2023.2.3,Win32,59.88023952,3,1,9,0.110185185,0.003703704,1,0,0,0.9647,rock_grid_rect_2,6,10,-1,-1,0.965,-0.101851852,-0.412037037,1,0,0,6.3783,Pegmatite_rect,6,6.378,1,8,0,8,0,1,,,,,,,,,,,,,
65c23bf7904812607642bad6,TCR,2024-06-11_12h10.44.150,LearnStrategy,2023.2.3,Win32,59.88023952,3,1,10,-0.018518519,0.006481481,1,0,0,0.9464,rock_grid_rect_2,5,07,-1,-1,0.946,-0.363888889,-0.382407407,1,0,0,1.4323,Obsidian_rect,5,1.432,1,9,0,9,0,1,,,,,,,,,,,,,
65c23bf7904812607642bad6,TCR,2024-06-11_12h10.44.150,LearnStrategy,2023.2.3,Win32,59.88023952,3,1,11,0.087037037,0.010185185,1,0,0,0.914,rock_grid_rect_2,3,16,-1,-1,0.914,-0.380555556,-0.264814815,1,0,0,6.4874,Andesite_rect,1,6.487,0,10,0,10,0,1,,,,,,,,,,,,,
65c23bf7904812607642bad6,TCR,2024-06-11_12h10.44.150,LearnStrategy,2023.2.3,Win32,59.88023952,3,1,12,0.021296296,-0.018518519,1,0,0,0.8294,rock_grid_rect_2,7,08,-1,-1,0.829,0.146296296,-0.412962963,1,0,0,3.3819,Peridotite_rect,7,3.382,1,11,0,11,0,1,,,,,,,,,,,,,
65c23bf7904812607642bad6,TCR,2024-06-11_12h10.44.150,LearnStrategy,2023.2.3,Win32,59.88023952,3,1,13,-0.026851852,-0.022222222,1,0,0,1.2634,rock_grid_rect_2,2,04,-1,-1,1.263,-0.061111111,-0.240740741,1,0,0,4.5377,Basalt_rect,2,4.538,1,12,0,12,0,1,,,,,,,,,,,,,
65c23bf7904812607642bad6,TCR,2024-06-11_12h10.44.150,LearnStrategy,2023.2.3,Win32,59.88023952,3,1,14,-0.006481481,-0.022222222,1,0,0,0.6804,rock_grid_rect_2,7,12,-1,-1,0.68,0.184259259,-0.399074074,1,0,0,1.6842,Peridotite_rect,7,1.684,1,13,0,13,0,1,,,,,,,,,,,,,
65c23bf7904812607642bad6,TCR,2024-06-11_12h10.44.150,LearnStrategy,2023.2.3,Win32,59.88023952,3,1,15,-0.059259259,-0.02037037,1,0,0,0.847,rock_grid_rect_2,1,01,-1,-1,0.847,-0.437962963,-0.258333333,1,0,0,7.0496,Andesite_rect,1,7.05,1,14,0,14,0,1,,,,,,,,,,,,,
65c23bf7904812607642bad6,TCR,2024-06-11_12h10.44.150,LearnStrategy,2023.2.3,Win32,59.88023952,3,1,16,0.016666667,0.006481481,1,0,0,1.8455,rock_grid_rect_2,3,13,-1,-1,1.846,-0.163888889,-0.409259259,1,0,0,5.0125,Pegmatite_rect,6,5.012,0,15,0,15,0,1,,,,,,,,,,,,,
65c23bf7904812607642bad6,TCR,2024-06-11_12h10.44.150,LearnStrategy,2023.2.3,Win32,59.88023952,3,2,1,,,,,,,,6,13,,,,,,,,,,,6,3.529,1,,,,,,-0.075925926,-0.416666667,1,0,0,3.5294,Pegmatite_rect,0,0,0,0,1,
65c23bf7904812607642bad6,TCR,2024-06-11_12h10.44.150,LearnStrategy,2023.2.3,Win32,59.88023952,3,2,2,,,,,,,,4,10,,,,,,,,,,,4,10.284,1,,,,,,0.338888889,-0.246296296,1,0,0,10.2837,Gabbro_rect,1,0,1,0,1,
65c23bf7904812607642bad6,TCR,2024-06-11_12h10.44.150,LearnStrategy,2023.2.3,Win32,59.88023952,3,2,3,,,,,,,,8,10,,,,,,,,,,,8,1.303,1,,,,,,0.347222222,-0.399074074,1,0,0,1.3033,Pumice_rect,2,0,2,0,1,
65c23bf7904812607642bad6,TCR,2024-06-11_12h10.44.150,LearnStrategy,2023.2.3,Win32,59.88023952,3,2,4,,,,,,,,3,02,,,,,,,,,,,4,2.421,0,,,,,,0.399074074,-0.25462963,1,0,0,2.4212,Gabbro_rect,3,0,3,0,1,
65c23bf7904812607642bad6,TCR,2024-06-11_12h10.44.150,LearnStrategy,2023.2.3,Win32,59.88023952,3,2,5,,,,,,,,5,02,,,,,,,,,,,5,1.082,1,,,,,,-0.382407407,-0.382407407,1,0,0,1.0824,Obsidian_rect,4,0,4,0,1,
65c23bf7904812607642bad6,TCR,2024-06-11_12h10.44.150,LearnStrategy,2023.2.3,Win32,59.88023952,3,2,6,,,,,,,,5,08,,,,,,,,,,,5,0.56,1,,,,,,-0.382407407,-0.382407407,1,0,0,0.5595,Obsidian_rect,5,0,5,0,1,
65c23bf7904812607642bad6,TCR,2024-06-11_12h10.44.150,LearnStrategy,2023.2.3,Win32,59.88023952,3,2,7,,,,,,,,1,10,,,,,,,,,,,4,3.276,0,,,,,,0.411111111,-0.251851852,1,0,0,3.2763,Gabbro_rect,6,0,6,0,1,
65c23bf7904812607642bad6,TCR,2024-06-11_12h10.44.150,LearnStrategy,2023.2.3,Win32,59.88023952,3,2,8,,,,,,,,2,10,,,,,,,,,,,1,7.4,0,,,,,,-0.453703704,-0.260185185,1,0,0,7.3996,Andesite_rect,7,0,7,0,1,
65c23bf7904812607642bad6,TCR,2024-06-11_12h10.44.150,LearnStrategy,2023.2.3,Win32,59.88023952,3,2,9,,,,,,,,7,14,,,,,,,,,,,6,1.106,0,,,,,,-0.112037037,-0.393518519,1,0,0,1.1057,Pegmatite_rect,8,0,8,0,1,
65c23bf7904812607642bad6,TCR,2024-06-11_12h10.44.150,LearnStrategy,2023.2.3,Win32,59.88023952,3,2,10,,,,,,,,1,11,,,,,,,,,,,2,4.008,0,,,,,,-0.094444444,-0.247222222,1,0,0,4.0079,Basalt_rect,9,0,9,0,1,
65c23bf7904812607642bad6,TCR,2024-06-11_12h10.44.150,LearnStrategy,2023.2.3,Win32,59.88023952,3,2,11,,,,,,,,4,14,,,,,,,,,,,2,0.873,0,,,,,,-0.119444444,-0.25462963,1,0,0,0.8733,Basalt_rect,10,0,10,0,1,
65c23bf7904812607642bad6,TCR,2024-06-11_12h10.44.150,LearnStrategy,2023.2.3,Win32,59.88023952,3,2,12,,,,,,,,3,08,,,,,,,,,,,3,2.096,1,,,,,,0.194444444,-0.253703704,1,0,0,2.0956,Diorite_rect,11,0,11,0,1,
65c23bf7904812607642bad6,TCR,2024-06-11_12h10.44.150,LearnStrategy,2023.2.3,Win32,59.88023952,3,2,13,,,,,,,,8,02,,,,,,,,,,,8,1.189,1,,,,,,0.373148148,-0.4,1,0,0,1.1893,Pumice_rect,12,0,12,0,1,
65c23bf7904812607642bad6,TCR,2024-06-11_12h10.44.150,LearnStrategy,2023.2.3,Win32,59.88023952,3,2,14,,,,,,,,6,08,,,,,,,,,,,5,0.934,0,,,,,,-0.353703704,-0.4,1,0,0,0.9338,Obsidian_rect,13,0,13,0,1,
65c23bf7904812607642bad6,TCR,2024-06-11_12h10.44.150,LearnStrategy,2023.2.3,Win32,59.88023952,3,2,15,,,,,,,,7,10,,,,,,,,,,,6,1.655,0,,,,,,-0.128703704,-0.408333333,1,0,0,1.6553,Pegmatite_rect,14,0,14,0,1,
65c23bf7904812607642bad6,TCR,2024-06-11_12h10.44.150,LearnStrategy,2023.2.3,Win32,59.88023952,3,2,16,,,,,,,,2,01,,,,,,,,,,,2,4.991,1,,,,,,-0.059259259,-0.256481481,1,0,0,4.991,Basalt_rect,15,0,15,0,1,
65c23bf7904812607642bad6,TCR,2024-06-11_12h10.44.150,LearnStrategy,2023.2.3,Win32,59.88023952,4,1,1,-0.028703704,-0.023148148,1,0,0,0.7805,rock_grid_rect_2,2,16,-1,-1,0.78,-0.123148148,-0.255555556,1,0,0,5.4425,Basalt_rect,2,5.442,1,0,0,0,0,1,,,,,,,,,,,,,
65c23bf7904812607642bad6,TCR,2024-06-11_12h10.44.150,LearnStrategy,2023.2.3,Win32,59.88023952,4,1,2,0.007407407,-0.019444444,1,0,0,0.9966,rock_grid_rect_2,2,04,-1,-1,0.997,-0.108333333,-0.261111111,1,0,0,1.8963,Basalt_rect,2,1.896,1,1,0,1,0,1,,,,,,,,,,,,,
65c23bf7904812607642bad6,TCR,2024-06-11_12h10.44.150,LearnStrategy,2023.2.3,Win32,59.88023952,4,1,3,-0.022222222,0.000925926,1,0,0,1.5469,rock_grid_rect_2,7,08,-1,-1,1.547,-0.380555556,-0.255555556,1,0,0,3.4831,Andesite_rect,1,3.483,0,2,0,2,0,1,,,,,,,,,,,,,
65c23bf7904812607642bad6,TCR,2024-06-11_12h10.44.150,LearnStrategy,2023.2.3,Win32,59.88023952,4,1,4,-0.012037037,-0.024074074,1,0,0,1.4293,rock_grid_rect_2,1,01,-1,-1,1.429,-0.412037037,-0.257407407,1,0,0,2.925,Andesite_rect,1,2.925,1,3,0,3,0,1,,,,,,,,,,,,,
65c23bf7904812607642bad6,TCR,2024-06-11_12h10.44.150,LearnStrategy,2023.2.3,Win32,59.88023952,4,1,5,-0.087037037,-0.005555556,1,0,0,0.8636,rock_grid_rect_2,5,14,-1,-1,0.864,-0.350925926,-0.408333333,1,0,0,1.068,Obsidian_rect,5,1.068,1,4,0,4,0,1,,,,,,,,,,,,,
65c23bf7904812607642bad6,TCR,2024-06-11_12h10.44.150,LearnStrategy,2023.2.3,Win32,59.88023952,4,1,6,0.067592593,0.018518519,1,0,0,0.7977,rock_grid_rect_2,1,07,-1,-1,0.798,0.137962963,-0.24537037,1,0,0,2.4443,Diorite_rect,3,2.444,0,5,0,5,0,1,,,,,,,,,,,,,
65c23bf7904812607642bad6,TCR,2024-06-11_12h10.44.150,LearnStrategy,2023.2.3,Win32,59.88023952,4,1,7,-0.153703704,0.005555556,1,0,0,0.9473,rock_grid_rect_2,1,03,-1,-1,0.947,-0.111111111,-0.25462963,1,0,0,6.7913,Basalt_rect,2,6.791,0,6,0,6,0,1,,,,,,,,,,,,,
65c23bf7904812607642bad6,TCR,2024-06-11_12h10.44.150,LearnStrategy,2023.2.3,Win32,59.88023952,4,1,8,0.038888889,-0.013888889,1,0,0,1.1634,rock_grid_rect_2,6,10,-1,-1,1.163,-0.140740741,-0.399074074,1,0,0,3.9646,Pegmatite_rect,6,3.965,1,7,0,7,0,1,,,,,,,,,,,,,
65c23bf7904812607642bad6,TCR,2024-06-11_12h10.44.150,LearnStrategy,2023.2.3,Win32,59.88023952,4,1,9,0.05,-0.003703704,1,0,0,0.9786,rock_grid_rect_2,7,08,-1,-1,0.979,0.125,-0.412962963,1,0,0,2.3165,Peridotite_rect,7,2.317,1,8,0,8,0,1,,,,,,,,,,,,,
65c23bf7904812607642bad6,TCR,2024-06-11_12h10.44.150,LearnStrategy,2023.2.3,Win32,59.88023952,4,1,10,0.007407407,0,1,0,0,1.0642,rock_grid_rect_2,4,13,-1,-1,1.064,0.207407407,-0.240740741,1,0,0,12.5539,Diorite_rect,3,12.554,0,9,0,9,0,1,,,,,,,,,,,,,
65c23bf7904812607642bad6,TCR,2024-06-11_12h10.44.150,LearnStrategy,2023.2.3,Win32,59.88023952,4,1,11,-0.031481481,0.005555556,1,0,0,0.8635,rock_grid_rect_2,3,06,-1,-1,0.864,-0.117592593,-0.413888889,1,0,0,2.008,Pegmatite_rect,6,2.008,0,10,0,10,0,1,,,,,,,,,,,,,
65c23bf7904812607642bad6,TCR,2024-06-11_12h10.44.150,LearnStrategy,2023.2.3,Win32,59.88023952,4,1,12,-0.050925926,-0.013888889,1,0,0,0.7312,rock_grid_rect_2,6,07,-1,-1,0.731,-0.177777778,-0.409259259,1,0,0,2.3089,Pegmatite_rect,6,2.309,1,11,0,11,0,1,,,,,,,,,,,,,
65c23bf7904812607642bad6,TCR,2024-06-11_12h10.44.150,LearnStrategy,2023.2.3,Win32,59.88023952,4,1,13,0.015740741,-0.016666667,1,0,0,0.7312,rock_grid_rect_2,7,04,-1,-1,0.731,-0.139814815,-0.401851852,1,0,0,1.3593,Pegmatite_rect,6,1.359,0,12,0,12,0,1,,,,,,,,,,,,,
65c23bf7904812607642bad6,TCR,2024-06-11_12h10.44.150,LearnStrategy,2023.2.3,Win32,59.88023952,4,1,14,-0.003703704,-0.012037037,1,0,0,1.5303,rock_grid_rect_2,3,09,-1,-1,1.53,0.139814815,-0.265740741,1,0,0,4.818,Diorite_rect,3,4.818,1,13,0,13,0,1,,,,,,,,,,,,,
65c23bf7904812607642bad6,TCR,2024-06-11_12h10.44.150,LearnStrategy,2023.2.3,Win32,59.88023952,4,1,15,-0.016666667,0.00462963,1,0,0,0.829,rock_grid_rect_2,7,02,-1,-1,0.829,-0.136111111,-0.403703704,1,0,0,2.5639,Pegmatite_rect,6,2.564,0,14,0,14,0,1,,,,,,,,,,,,,
65c23bf7904812607642bad6,TCR,2024-06-11_12h10.44.150,LearnStrategy,2023.2.3,Win32,59.88023952,4,1,16,0.075925926,0.005555556,1,0,0,0.9805,rock_grid_rect_2,4,01,-1,-1,0.981,-0.136111111,-0.231481481,1,0,0,1.3643,Basalt_rect,2,1.364,0,15,0,15,0,1,,,,,,,,,,,,,
65c23bf7904812607642bad6,TCR,2024-06-11_12h10.44.150,LearnStrategy,2023.2.3,Win32,59.88023952,4,2,1,,,,,,,,5,08,,,,,,,,,,,5,1.023,1,,,,,,-0.409259259,-0.416666667,1,0,0,1.0226,Obsidian_rect,0,0,0,0,1,
65c23bf7904812607642bad6,TCR,2024-06-11_12h10.44.150,LearnStrategy,2023.2.3,Win32,59.88023952,4,2,2,,,,,,,,8,04,,,,,,,,,,,8,1.134,1,,,,,,0.369444444,-0.382407407,1,0,0,1.1336,Pumice_rect,1,0,1,0,1,
65c23bf7904812607642bad6,TCR,2024-06-11_12h10.44.150,LearnStrategy,2023.2.3,Win32,59.88023952,4,2,3,,,,,,,,1,11,,,,,,,,,,,4,7.108,0,,,,,,0.436111111,-0.261111111,1,0,0,7.1077,Gabbro_rect,2,0,2,0,1,
65c23bf7904812607642bad6,TCR,2024-06-11_12h10.44.150,LearnStrategy,2023.2.3,Win32,59.88023952,4,2,4,,,,,,,,3,02,,,,,,,,,,,4,3.92,0,,,,,,0.42962963,-0.262037037,1,0,0,3.9204,Gabbro_rect,3,0,3,0,1,
65c23bf7904812607642bad6,TCR,2024-06-11_12h10.44.150,LearnStrategy,2023.2.3,Win32,59.88023952,4,2,5,,,,,,,,7,10,,,,,,,,,,,6,1.14,0,,,,,,-0.151851852,-0.42037037,1,0,0,1.1401,Pegmatite_rect,4,0,4,0,1,
65c23bf7904812607642bad6,TCR,2024-06-11_12h10.44.150,LearnStrategy,2023.2.3,Win32,59.88023952,4,2,6,,,,,,,,6,09,,,,,,,,,,,6,1.175,1,,,,,,-0.037037037,-0.388888889,1,0,0,1.1746,Pegmatite_rect,5,0,5,0,1,
65c23bf7904812607642bad6,TCR,2024-06-11_12h10.44.150,LearnStrategy,2023.2.3,Win32,59.88023952,4,2,7,,,,,,,,7,14,,,,,,,,,,,3,6.715,0,,,,,,0.15462963,-0.267592593,1,0,0,6.7148,Diorite_rect,6,0,6,0,1,
65c23bf7904812607642bad6,TCR,2024-06-11_12h10.44.150,LearnStrategy,2023.2.3,Win32,59.88023952,4,2,8,,,,,,,,2,14,,,,,,,,,,,8,1.106,0,,,,,,0.412037037,-0.409259259,1,0,0,1.1063,Pumice_rect,7,0,7,0,1,
65c23bf7904812607642bad6,TCR,2024-06-11_12h10.44.150,LearnStrategy,2023.2.3,Win32,59.88023952,4,2,9,,,,,,,,6,03,,,,,,,,,,,6,1.519,1,,,,,,-0.107407407,-0.408333333,1,0,0,1.5193,Pegmatite_rect,8,0,8,0,1,
65c23bf7904812607642bad6,TCR,2024-06-11_12h10.44.150,LearnStrategy,2023.2.3,Win32,59.88023952,4,2,10,,,,,,,,1,14,,,,,,,,,,,7,2.909,0,,,,,,0.12037037,-0.401851852,1,0,0,2.909,Peridotite_rect,9,0,9,0,1,
65c23bf7904812607642bad6,TCR,2024-06-11_12h10.44.150,LearnStrategy,2023.2.3,Win32,59.88023952,4,2,11,,,,,,,,5,02,,,,,,,,,,,5,0.961,1,,,,,,-0.347222222,-0.412962963,1,0,0,0.9613,Obsidian_rect,10,0,10,0,1,
65c23bf7904812607642bad6,TCR,2024-06-11_12h10.44.150,LearnStrategy,2023.2.3,Win32,59.88023952,4,2,12,,,,,,,,2,10,,,,,,,,,,,2,2.335,1,,,,,,-0.14537037,-0.271296296,1,0,0,2.335,Basalt_rect,11,0,11,0,1,
65c23bf7904812607642bad6,TCR,2024-06-11_12h10.44.150,LearnStrategy,2023.2.3,Win32,59.88023952,4,2,13,,,,,,,,8,05,,,,,,,,,,,8,1.282,1,,,,,,0.47037037,-0.410185185,1,0,0,1.2816,Pumice_rect,12,0,12,0,1,
65c23bf7904812607642bad6,TCR,2024-06-11_12h10.44.150,LearnStrategy,2023.2.3,Win32,59.88023952,4,2,14,,,,,,,,4,08,,,,,,,,,,,7,10.228,0,,,,,,0.089814815,-0.408333333,1,0,0,10.2285,Peridotite_rect,13,0,13,0,1,
65c23bf7904812607642bad6,TCR,2024-06-11_12h10.44.150,LearnStrategy,2023.2.3,Win32,59.88023952,4,2,15,,,,,,,,4,14,,,,,,,,,,,1,3.32,0,,,,,,-0.37962963,-0.247222222,1,0,0,3.3196,Andesite_rect,14,0,14,0,1,
65c23bf7904812607642bad6,TCR,2024-06-11_12h10.44.150,LearnStrategy,2023.2.3,Win32,59.88023952,4,2,16,,,,,,,,3,14,,,,,,,,,,,3,5.951,1,,,,,,0.109259259,-0.257407407,1,0,0,5.951,Diorite_rect,15,0,15,0,1,
65c23bf7904812607642bad6,TCR,2024-06-11_12h10.44.150,LearnStrategy,2023.2.3,Win32,59.88023952,5,1,1,0.011111111,0.000925926,1,0,0,0.4644,rock_grid_rect_2,8,15,-1,-1,0.464,0.362037037,-0.39537037,1,0,0,1.3269,Pumice_rect,8,1.327,1,0,0,0,0,1,,,,,,,,,,,,,
65c23bf7904812607642bad6,TCR,2024-06-11_12h10.44.150,LearnStrategy,2023.2.3,Win32,59.88023952,5,1,2,-0.075925926,-0.009259259,1,0,0,0.9475,rock_grid_rect_2,4,15,-1,-1,0.947,0.105555556,-0.266666667,1,0,0,3.4225,Diorite_rect,3,3.422,0,1,0,1,0,1,,,,,,,,,,,,,
65c23bf7904812607642bad6,TCR,2024-06-11_12h10.44.150,LearnStrategy,2023.2.3,Win32,59.88023952,5,1,3,-0.037962963,-0.018518519,1,0,0,1.6462,rock_grid_rect_2,7,12,-1,-1,1.646,0.200925926,-0.396296296,1,0,0,3.6818,Peridotite_rect,7,3.682,1,2,0,2,0,1,,,,,,,,,,,,,
65c23bf7904812607642bad6,TCR,2024-06-11_12h10.44.150,LearnStrategy,2023.2.3,Win32,59.88023952,5,1,4,-0.043518519,-0.002777778,1,0,0,1.3465,rock_grid_rect_2,6,10,-1,-1,1.346,-0.136111111,-0.387037037,1,0,0,1.5075,Pegmatite_rect,6,1.507,1,3,0,3,0,1,,,,,,,,,,,,,
65c23bf7904812607642bad6,TCR,2024-06-11_12h10.44.150,LearnStrategy,2023.2.3,Win32,59.88023952,5,1,5,-0.058333333,-0.006481481,1,0,0,0.8133,rock_grid_rect_2,2,16,-1,-1,0.813,-0.377777778,-0.249074074,1,0,0,4.0086,Andesite_rect,1,4.009,0,4,0,4,0,1,,,,,,,,,,,,,
65c23bf7904812607642bad6,TCR,2024-06-11_12h10.44.150,LearnStrategy,2023.2.3,Win32,59.88023952,5,1,6,0.001851852,-0.000925926,1,0,0,0.6968,rock_grid_rect_2,7,08,-1,-1,0.697,0.153703704,-0.407407407,1,0,0,1.768,Peridotite_rect,7,1.768,1,5,0,5,0,1,,,,,,,,,,,,,
65c23bf7904812607642bad6,TCR,2024-06-11_12h10.44.150,LearnStrategy,2023.2.3,Win32,59.88023952,5,1,7,-0.016666667,-0.003703704,1,0,0,0.8804,rock_grid_rect_2,1,07,-1,-1,0.88,0.085185185,-0.262037037,1,0,0,3.1941,Diorite_rect,3,3.194,0,6,0,6,0,1,,,,,,,,,,,,,
65c23bf7904812607642bad6,TCR,2024-06-11_12h10.44.150,LearnStrategy,2023.2.3,Win32,59.88023952,5,1,8,-0.074074074,0.016666667,1,0,0,0.7963,rock_grid_rect_2,7,04,-1,-1,0.796,0.15,-0.397222222,1,0,0,1.3573,Peridotite_rect,7,1.357,1,7,0,7,0,1,,,,,,,,,,,,,
65c23bf7904812607642bad6,TCR,2024-06-11_12h10.44.150,LearnStrategy,2023.2.3,Win32,59.88023952,5,1,9,-0.040740741,-0.007407407,1,0,0,0.9143,rock_grid_rect_2,2,05,-1,-1,0.914,-0.109259259,-0.241666667,1,0,0,2.0428,Basalt_rect,2,2.043,1,8,0,8,0,1,,,,,,,,,,,,,
65c23bf7904812607642bad6,TCR,2024-06-11_12h10.44.150,LearnStrategy,2023.2.3,Win32,59.88023952,5,1,10,0.066666667,-0.010185185,1,0,0,1.0145,rock_grid_rect_2,3,10,-1,-1,1.014,0.134259259,-0.252777778,1,0,0,2.9397,Diorite_rect,3,2.94,1,9,0,9,0,1,,,,,,,,,,,,,
65c23bf7904812607642bad6,TCR,2024-06-11_12h10.44.150,LearnStrategy,2023.2.3,Win32,59.88023952,5,1,11,-0.040740741,-0.00462963,1,0,0,1.7794,rock_grid_rect_2,1,05,-1,-1,1.779,-0.398148148,-0.269444444,1,0,0,3.6762,Andesite_rect,1,3.676,1,10,0,10,0,1,,,,,,,,,,,,,
65c23bf7904812607642bad6,TCR,2024-06-11_12h10.44.150,LearnStrategy,2023.2.3,Win32,59.88023952,5,1,12,0.003703704,-0.007407407,1,0,0,1.2127,rock_grid_rect_2,1,06,-1,-1,1.213,-0.458333333,-0.25,1,0,0,2.1026,Andesite_rect,1,2.103,1,11,0,11,0,1,,,,,,,,,,,,,
65c23bf7904812607642bad6,TCR,2024-06-11_12h10.44.150,LearnStrategy,2023.2.3,Win32,59.88023952,5,1,13,-0.002777778,0.003703704,1,0,0,1.0634,rock_grid_rect_2,7,02,-1,-1,1.063,0.097222222,-0.403703704,1,0,0,1.4353,Peridotite_rect,7,1.435,1,12,0,12,0,1,,,,,,,,,,,,,
65c23bf7904812607642bad6,TCR,2024-06-11_12h10.44.150,LearnStrategy,2023.2.3,Win32,59.88023952,5,1,14,-0.032407407,0,1,0,0,0.9476,rock_grid_rect_2,3,06,-1,-1,0.948,0.413888889,-0.253703704,1,0,0,1.9806,Gabbro_rect,4,1.981,0,13,0,13,0,1,,,,,,,,,,,,,
65c23bf7904812607642bad6,TCR,2024-06-11_12h10.44.150,LearnStrategy,2023.2.3,Win32,59.88023952,5,1,15,-0.015740741,-0.010185185,1,0,0,0.7644,rock_grid_rect_2,4,09,-1,-1,0.764,0.157407407,-0.231481481,1,0,0,1.2254,Diorite_rect,3,1.225,0,14,0,14,0,1,,,,,,,,,,,,,
65c23bf7904812607642bad6,TCR,2024-06-11_12h10.44.150,LearnStrategy,2023.2.3,Win32,59.88023952,5,1,16,-0.058333333,-0.013888889,1,0,0,1.3807,rock_grid_rect_2,4,15,-1,-1,1.381,0.389814815,-0.242592593,1,0,0,5.3377,Gabbro_rect,4,5.338,1,15,0,15,0,1,,,,,,,,,,,,,
65c23bf7904812607642bad6,TCR,2024-06-11_12h10.44.150,LearnStrategy,2023.2.3,Win32,59.88023952,5,2,1,,,,,,,,3,15,,,,,,,,,,,3,5.416,1,,,,,,0.146296296,-0.262037037,1,0,0,5.4161,Diorite_rect,0,0,0,0,1,
65c23bf7904812607642bad6,TCR,2024-06-11_12h10.44.150,LearnStrategy,2023.2.3,Win32,59.88023952,5,2,2,,,,,,,,4,12,,,,,,,,,,,4,2.872,1,,,,,,0.380555556,-0.25,1,0,0,2.8718,Gabbro_rect,1,0,1,0,1,
65c23bf7904812607642bad6,TCR,2024-06-11_12h10.44.150,LearnStrategy,2023.2.3,Win32,59.88023952,5,2,3,,,,,,,,5,04,,,,,,,,,,,5,1.003,1,,,,,,-0.378703704,-0.4,1,0,0,1.0026,Obsidian_rect,2,0,2,0,1,
65c23bf7904812607642bad6,TCR,2024-06-11_12h10.44.150,LearnStrategy,2023.2.3,Win32,59.88023952,5,2,4,,,,,,,,2,06,,,,,,,,,,,2,2.42,1,,,,,,-0.136111111,-0.241666667,1,0,0,2.4195,Basalt_rect,3,0,3,0,1,
65c23bf7904812607642bad6,TCR,2024-06-11_12h10.44.150,LearnStrategy,2023.2.3,Win32,59.88023952,5,2,5,,,,,,,,6,08,,,,,,,,,,,6,1.251,1,,,,,,-0.166666667,-0.39537037,1,0,0,1.2511,Pegmatite_rect,4,0,4,0,1,
65c23bf7904812607642bad6,TCR,2024-06-11_12h10.44.150,LearnStrategy,2023.2.3,Win32,59.88023952,5,2,6,,,,,,,,8,10,,,,,,,,,,,8,1.275,1,,,,,,0.47962963,-0.419444444,1,0,0,1.2751,Pumice_rect,5,0,5,0,1,
65c23bf7904812607642bad6,TCR,2024-06-11_12h10.44.150,LearnStrategy,2023.2.3,Win32,59.88023952,5,2,7,,,,,,,,8,16,,,,,,,,,,,8,1.064,1,,,,,,0.437962963,-0.387037037,1,0,0,1.0639,Pumice_rect,6,0,6,0,1,
65c23bf7904812607642bad6,TCR,2024-06-11_12h10.44.150,LearnStrategy,2023.2.3,Win32,59.88023952,5,2,8,,,,,,,,4,05,,,,,,,,,,,4,2.906,1,,,,,,0.363888889,-0.241666667,1,0,0,2.9062,Gabbro_rect,7,0,7,0,1,
65c23bf7904812607642bad6,TCR,2024-06-11_12h10.44.150,LearnStrategy,2023.2.3,Win32,59.88023952,5,2,9,,,,,,,,6,11,,,,,,,,,,,6,1.355,1,,,,,,-0.12037037,-0.421296296,1,0,0,1.3549,Pegmatite_rect,8,0,8,0,1,
65c23bf7904812607642bad6,TCR,2024-06-11_12h10.44.150,LearnStrategy,2023.2.3,Win32,59.88023952,5,2,10,,,,,,,,3,07,,,,,,,,,,,3,1.416,1,,,,,,0.066666667,-0.259259259,1,0,0,1.4158,Diorite_rect,9,0,9,0,1,
65c23bf7904812607642bad6,TCR,2024-06-11_12h10.44.150,LearnStrategy,2023.2.3,Win32,59.88023952,5,2,11,,,,,,,,1,16,,,,,,,,,,,4,2.006,0,,,,,,0.382407407,-0.237037037,1,0,0,2.0064,Gabbro_rect,10,0,10,0,1,
65c23bf7904812607642bad6,TCR,2024-06-11_12h10.44.150,LearnStrategy,2023.2.3,Win32,59.88023952,5,2,12,,,,,,,,2,02,,,,,,,,,,,2,1.513,1,,,,,,-0.162962963,-0.25462963,1,0,0,1.513,Basalt_rect,11,0,11,0,1,
65c23bf7904812607642bad6,TCR,2024-06-11_12h10.44.150,LearnStrategy,2023.2.3,Win32,59.88023952,5,2,13,,,,,,,,5,11,,,,,,,,,,,5,3.379,1,,,,,,-0.385185185,-0.382407407,1,0,0,3.3794,Obsidian_rect,12,0,12,0,1,
65c23bf7904812607642bad6,TCR,2024-06-11_12h10.44.150,LearnStrategy,2023.2.3,Win32,59.88023952,5,2,14,,,,,,,,7,13,,,,,,,,,,,6,2.124,0,,,,,,-0.134259259,-0.408333333,1,0,0,2.1245,Pegmatite_rect,13,0,13,0,1,
65c23bf7904812607642bad6,TCR,2024-06-11_12h10.44.150,LearnStrategy,2023.2.3,Win32,59.88023952,5,2,15,,,,,,,,1,02,,,,,,,,,,,1,12.489,1,,,,,,-0.358333333,-0.252777778,1,0,0,12.4891,Andesite_rect,14,0,14,0,1,
65c23bf7904812607642bad6,TCR,2024-06-11_12h10.44.150,LearnStrategy,2023.2.3,Win32,59.88023952,5,2,16,,,,,,,,7,16,,,,,,,,,,,4,5.112,0,,,,,,0.394444444,-0.25,1,0,0,5.1122,Gabbro_rect,15,0,15,0,1,
65c23bf7904812607642bad6,TCR,2024-06-11_12h10.44.150,LearnStrategy,2023.2.3,Win32,59.88023952,6,1,1,-0.003703704,-0.002777778,1,0,0,1.3478,rock_grid_rect_2,2,09,-1,-1,1.348,-0.096296296,-0.232407407,1,0,0,2.8438,Basalt_rect,2,2.844,1,0,0,0,0,1,,,,,,,,,,,,,
65c23bf7904812607642bad6,TCR,2024-06-11_12h10.44.150,LearnStrategy,2023.2.3,Win32,59.88023952,6,1,2,-0.056481481,0.005555556,1,0,0,1.3968,rock_grid_rect_2,7,05,-1,-1,1.397,0.096296296,-0.389814815,1,0,0,1.57,Peridotite_rect,7,1.57,1,1,0,1,0,1,,,,,,,,,,,,,
65c23bf7904812607642bad6,TCR,2024-06-11_12h10.44.150,LearnStrategy,2023.2.3,Win32,59.88023952,6,1,3,-0.024074074,0.006481481,1,0,0,0.7978,rock_grid_rect_2,6,12,-1,-1,0.798,-0.111111111,-0.412037037,1,0,0,1.4374,Pegmatite_rect,6,1.437,1,2,0,2,0,1,,,,,,,,,,,,,
65c23bf7904812607642bad6,TCR,2024-06-11_12h10.44.150,LearnStrategy,2023.2.3,Win32,59.88023952,6,1,4,0.013888889,-0.00462963,1,0,0,0.6806,rock_grid_rect_2,5,14,-1,-1,0.681,-0.440740741,-0.414814815,1,0,0,1.1391,Obsidian_rect,5,1.139,1,3,0,3,0,1,,,,,,,,,,,,,
65c23bf7904812607642bad6,TCR,2024-06-11_12h10.44.150,LearnStrategy,2023.2.3,Win32,59.88023952,6,1,5,0.046296296,0.007407407,1,0,0,0.6973,rock_grid_rect_2,4,13,-1,-1,0.697,0.326851852,-0.255555556,1,0,0,3.7042,Gabbro_rect,4,3.704,1,4,0,4,0,1,,,,,,,,,,,,,
65c23bf7904812607642bad6,TCR,2024-06-11_12h10.44.150,LearnStrategy,2023.2.3,Win32,59.88023952,6,1,6,-0.025925926,0.003703704,1,0,0,1.1965,rock_grid_rect_2,7,05,-1,-1,1.197,0.108333333,-0.385185185,1,0,0,2.0789,Peridotite_rect,7,2.079,1,5,0,5,0,1,,,,,,,,,,,,,
65c23bf7904812607642bad6,TCR,2024-06-11_12h10.44.150,LearnStrategy,2023.2.3,Win32,59.88023952,6,1,7,-0.02037037,-0.002777778,1,0,0,0.8813,rock_grid_rect_2,3,13,-1,-1,0.881,0.153703704,-0.255555556,1,0,0,2.2877,Diorite_rect,3,2.288,1,6,0,6,0,1,,,,,,,,,,,,,
65c23bf7904812607642bad6,TCR,2024-06-11_12h10.44.150,LearnStrategy,2023.2.3,Win32,59.88023952,6,1,8,-0.076851852,-0.006481481,1,0,0,0.7813,rock_grid_rect_2,1,01,-1,-1,0.781,-0.419444444,-0.268518519,1,0,0,6.6492,Andesite_rect,1,6.649,1,7,0,7,0,1,,,,,,,,,,,,,
65c23bf7904812607642bad6,TCR,2024-06-11_12h10.44.150,LearnStrategy,2023.2.3,Win32,59.88023952,6,1,9,-0.033333333,0.014814815,1,0,0,1.046,rock_grid_rect_2,1,07,-1,-1,1.046,0.124074074,-0.244444444,1,0,0,1.3624,Diorite_rect,3,1.362,0,8,0,8,0,1,,,,,,,,,,,,,
65c23bf7904812607642bad6,TCR,2024-06-11_12h10.44.150,LearnStrategy,2023.2.3,Win32,59.88023952,6,1,10,-0.021296296,0.024074074,1,0,0,0.8863,rock_grid_rect_2,7,02,-1,-1,0.886,0.126851852,-0.418518519,1,0,0,1.5651,Peridotite_rect,7,1.565,1,9,0,9,0,1,,,,,,,,,,,,,
65c23bf7904812607642bad6,TCR,2024-06-11_12h10.44.150,LearnStrategy,2023.2.3,Win32,59.88023952,6,1,11,-0.009259259,0.009259259,1,0,0,0.7814,rock_grid_rect_2,1,05,-1,-1,0.781,-0.411111111,-0.259259259,1,0,0,6.5946,Andesite_rect,1,6.595,1,10,0,10,0,1,,,,,,,,,,,,,
65c23bf7904812607642bad6,TCR,2024-06-11_12h10.44.150,LearnStrategy,2023.2.3,Win32,59.88023952,6,1,12,-0.016666667,-0.014814815,1,0,0,0.9964,rock_grid_rect_2,3,06,-1,-1,0.996,0.400925926,-0.243518519,1,0,0,1.8096,Gabbro_rect,4,1.81,0,11,0,11,0,1,,,,,,,,,,,,,
65c23bf7904812607642bad6,TCR,2024-06-11_12h10.44.150,LearnStrategy,2023.2.3,Win32,59.88023952,6,1,13,0.005555556,-0.005555556,1,0,0,0.8478,rock_grid_rect_2,2,08,-1,-1,0.848,-0.162037037,-0.257407407,1,0,0,1.4141,Basalt_rect,2,1.414,1,12,0,12,0,1,,,,,,,,,,,,,
65c23bf7904812607642bad6,TCR,2024-06-11_12h10.44.150,LearnStrategy,2023.2.3,Win32,59.88023952,6,1,14,0.005555556,0.008333333,1,0,0,1.4309,rock_grid_rect_2,8,09,-1,-1,1.431,0.399074074,-0.39537037,1,0,0,1.0601,Pumice_rect,8,1.06,1,13,0,13,0,1,,,,,,,,,,,,,
65c23bf7904812607642bad6,TCR,2024-06-11_12h10.44.150,LearnStrategy,2023.2.3,Win32,59.88023952,6,1,15,-0.101851852,0.017592593,1,0,0,0.7479,rock_grid_rect_2,4,01,-1,-1,0.748,0.388888889,-0.262037037,1,0,0,4.0715,Gabbro_rect,4,4.072,1,14,0,14,0,1,,,,,,,,,,,,,
65c23bf7904812607642bad6,TCR,2024-06-11_12h10.44.150,LearnStrategy,2023.2.3,Win32,59.88023952,6,1,16,-0.027777778,-0.005555556,1,0,0,0.6135,rock_grid_rect_2,7,08,-1,-1,0.613,0.102777778,-0.402777778,1,0,0,1.4275,Peridotite_rect,7,1.427,1,15,0,15,0,1,,,,,,,,,,,,,
65c23bf7904812607642bad6,TCR,2024-06-11_12h10.44.150,LearnStrategy,2023.2.3,Win32,59.88023952,6,2,1,,,,,,,,4,11,,,,,,,,,,,2,5.024,0,,,,,,-0.125,-0.267592593,1,0,0,5.0243,Basalt_rect,0,0,0,0,1,
65c23bf7904812607642bad6,TCR,2024-06-11_12h10.44.150,LearnStrategy,2023.2.3,Win32,59.88023952,6,2,2,,,,,,,,5,12,,,,,,,,,,,5,1.043,1,,,,,,-0.365740741,-0.414814815,1,0,0,1.0432,Obsidian_rect,1,0,1,0,1,
65c23bf7904812607642bad6,TCR,2024-06-11_12h10.44.150,LearnStrategy,2023.2.3,Win32,59.88023952,6,2,3,,,,,,,,1,09,,,,,,,,,,,1,13.111,1,,,,,,-0.415740741,-0.261111111,1,0,0,13.1108,Andesite_rect,2,0,2,0,1,
65c23bf7904812607642bad6,TCR,2024-06-11_12h10.44.150,LearnStrategy,2023.2.3,Win32,59.88023952,6,2,4,,,,,,,,3,08,,,,,,,,,,,3,8.806,1,,,,,,0.091666667,-0.246296296,1,0,0,8.8064,Diorite_rect,3,0,3,0,1,
65c23bf7904812607642bad6,TCR,2024-06-11_12h10.44.150,LearnStrategy,2023.2.3,Win32,59.88023952,6,2,5,,,,,,,,4,10,,,,,,,,,,,4,1.18,1,,,,,,0.411111111,-0.250925926,1,0,0,1.1796,Gabbro_rect,4,0,4,0,1,
65c23bf7904812607642bad6,TCR,2024-06-11_12h10.44.150,LearnStrategy,2023.2.3,Win32,59.88023952,6,2,6,,,,,,,,6,05,,,,,,,,,,,1,8.971,0,,,,,,-0.363888889,-0.238888889,1,0,0,8.971,Andesite_rect,5,0,5,0,1,
65c23bf7904812607642bad6,TCR,2024-06-11_12h10.44.150,LearnStrategy,2023.2.3,Win32,59.88023952,6,2,7,,,,,,,,3,12,,,,,,,,,,,1,0.944,0,,,,,,-0.430555556,-0.24537037,1,0,0,0.9437,Andesite_rect,6,0,6,0,1,
65c23bf7904812607642bad6,TCR,2024-06-11_12h10.44.150,LearnStrategy,2023.2.3,Win32,59.88023952,6,2,8,,,,,,,,7,15,,,,,,,,,,,7,0.944,1,,,,,,0.088888889,-0.396296296,1,0,0,0.9441,Peridotite_rect,7,0,7,0,1,
65c23bf7904812607642bad6,TCR,2024-06-11_12h10.44.150,LearnStrategy,2023.2.3,Win32,59.88023952,6,2,9,,,,,,,,6,13,,,,,,,,,,,6,6.357,1,,,,,,-0.117592593,-0.402777778,1,0,0,6.3565,Pegmatite_rect,8,0,8,0,1,
65c23bf7904812607642bad6,TCR,2024-06-11_12h10.44.150,LearnStrategy,2023.2.3,Win32,59.88023952,6,2,10,,,,,,,,5,10,,,,,,,,,,,5,1.599,1,,,,,,-0.406481481,-0.392592593,1,0,0,1.5987,Obsidian_rect,9,0,9,0,1,
65c23bf7904812607642bad6,TCR,2024-06-11_12h10.44.150,LearnStrategy,2023.2.3,Win32,59.88023952,6,2,11,,,,,,,,7,06,,,,,,,,,,,7,2.088,1,,,,,,0.094444444,-0.405555556,1,0,0,2.0883,Peridotite_rect,10,0,10,0,1,
65c23bf7904812607642bad6,TCR,2024-06-11_12h10.44.150,LearnStrategy,2023.2.3,Win32,59.88023952,6,2,12,,,,,,,,2,01,,,,,,,,,,,2,1.09,1,,,,,,-0.137962963,-0.257407407,1,0,0,1.0902,Basalt_rect,11,0,11,0,1,
65c23bf7904812607642bad6,TCR,2024-06-11_12h10.44.150,LearnStrategy,2023.2.3,Win32,59.88023952,6,2,13,,,,,,,,1,10,,,,,,,,,,,4,3.736,0,,,,,,0.372222222,-0.267592593,1,0,0,3.7365,Gabbro_rect,12,0,12,0,1,
65c23bf7904812607642bad6,TCR,2024-06-11_12h10.44.150,LearnStrategy,2023.2.3,Win32,59.88023952,6,2,14,,,,,,,,8,02,,,,,,,,,,,8,1.572,1,,,,,,0.373148148,-0.398148148,1,0,0,1.5725,Pumice_rect,13,0,13,0,1,
65c23bf7904812607642bad6,TCR,2024-06-11_12h10.44.150,LearnStrategy,2023.2.3,Win32,59.88023952,6,2,15,,,,,,,,2,12,,,,,,,,,,,4,1.846,0,,,,,,0.386111111,-0.239814815,1,0,0,1.8462,Gabbro_rect,14,0,14,0,1,
65c23bf7904812607642bad6,TCR,2024-06-11_12h10.44.150,LearnStrategy,2023.2.3,Win32,59.88023952,6,2,16,,,,,,,,8,03,,,,,,,,,,,8,1.098,1,,,,,,0.448148148,-0.407407407,1,0,0,1.0977,Pumice_rect,15,0,15,0,1,
65c23bf7904812607642bad6,TCR,2024-06-11_12h10.44.150,LearnStrategy,2023.2.3,Win32,59.88023952,7,1,1,0.00462963,0.022222222,1,0,0,1.531,rock_grid_rect_2,7,02,-1,-1,1.531,0.103703704,-0.403703704,1,0,0,1.1187,Peridotite_rect,7,1.119,1,0,0,0,0,1,,,,,,,,,,,,,
65c23bf7904812607642bad6,TCR,2024-06-11_12h10.44.150,LearnStrategy,2023.2.3,Win32,59.88023952,7,1,2,-0.012037037,-0.006481481,1,0,0,0.8143,rock_grid_rect_2,5,07,-1,-1,0.814,-0.411111111,-0.397222222,1,0,0,2.174,Obsidian_rect,5,2.174,1,1,0,1,0,1,,,,,,,,,,,,,
65c23bf7904812607642bad6,TCR,2024-06-11_12h10.44.150,LearnStrategy,2023.2.3,Win32,59.88023952,7,1,3,0.027777778,-0.00462963,1,0,0,1.1976,rock_grid_rect_2,8,15,-1,-1,1.198,0.376851852,-0.396296296,1,0,0,1.0415,Pumice_rect,8,1.042,1,2,0,2,0,1,,,,,,,,,,,,,
65c23bf7904812607642bad6,TCR,2024-06-11_12h10.44.150,LearnStrategy,2023.2.3,Win32,59.88023952,7,1,4,0.011111111,-0.024074074,1,0,0,0.7476,rock_grid_rect_2,4,09,-1,-1,0.748,0.409259259,-0.242592593,1,0,0,1.4161,Gabbro_rect,4,1.416,1,3,0,3,0,1,,,,,,,,,,,,,
65c23bf7904812607642bad6,TCR,2024-06-11_12h10.44.150,LearnStrategy,2023.2.3,Win32,59.88023952,7,1,5,-0.027777778,-0.012037037,1,0,0,0.9638,rock_grid_rect_2,4,03,-1,-1,0.964,-0.121296296,-0.257407407,1,0,0,3.2066,Basalt_rect,2,3.207,0,4,0,4,0,1,,,,,,,,,,,,,
65c23bf7904812607642bad6,TCR,2024-06-11_12h10.44.150,LearnStrategy,2023.2.3,Win32,59.88023952,7,1,6,-0.025,-0.02037037,1,0,0,0.996,rock_grid_rect_2,2,04,-1,-1,0.996,-0.109259259,-0.263888889,1,0,0,1.5172,Basalt_rect,2,1.517,1,5,0,5,0,1,,,,,,,,,,,,,
65c23bf7904812607642bad6,TCR,2024-06-11_12h10.44.150,LearnStrategy,2023.2.3,Win32,59.88023952,7,1,7,-0.028703704,0.005555556,1,0,0,0.9641,rock_grid_rect_2,2,11,-1,-1,0.964,0.368518519,-0.257407407,1,0,0,1.2268,Gabbro_rect,4,1.227,0,6,0,6,0,1,,,,,,,,,,,,,
65c23bf7904812607642bad6,TCR,2024-06-11_12h10.44.150,LearnStrategy,2023.2.3,Win32,59.88023952,7,1,8,-0.011111111,-0.015740741,1,0,0,0.7979,rock_grid_rect_2,1,03,-1,-1,0.798,0.390740741,-0.246296296,1,0,0,2.5773,Gabbro_rect,4,2.577,0,7,0,7,0,1,,,,,,,,,,,,,
65c23bf7904812607642bad6,TCR,2024-06-11_12h10.44.150,LearnStrategy,2023.2.3,Win32,59.88023952,7,1,9,0.033333333,-0.009259259,1,0,0,1.0791,rock_grid_rect_2,7,12,-1,-1,1.079,0.147222222,-0.410185185,1,0,0,1.6694,Peridotite_rect,7,1.669,1,8,0,8,0,1,,,,,,,,,,,,,
65c23bf7904812607642bad6,TCR,2024-06-11_12h10.44.150,LearnStrategy,2023.2.3,Win32,59.88023952,7,1,10,-0.003703704,0.021296296,1,0,0,0.7969,rock_grid_rect_2,6,15,-1,-1,0.797,-0.149074074,-0.419444444,1,0,0,1.1398,Pegmatite_rect,6,1.14,1,9,0,9,0,1,,,,,,,,,,,,,
65c23bf7904812607642bad6,TCR,2024-06-11_12h10.44.150,LearnStrategy,2023.2.3,Win32,59.88023952,7,1,11,-0.064814815,-0.008333333,1,0,0,1.3469,rock_grid_rect_2,3,16,-1,-1,1.347,0.10462963,-0.249074074,1,0,0,1.6459,Diorite_rect,3,1.646,1,10,0,10,0,1,,,,,,,,,,,,,
65c23bf7904812607642bad6,TCR,2024-06-11_12h10.44.150,LearnStrategy,2023.2.3,Win32,59.88023952,7,1,12,-0.066666667,-0.007407407,1,0,0,1.0641,rock_grid_rect_2,3,06,-1,-1,1.064,0.1,-0.242592593,1,0,0,1.2659,Diorite_rect,3,1.266,1,11,0,11,0,1,,,,,,,,,,,,,
65c23bf7904812607642bad6,TCR,2024-06-11_12h10.44.150,LearnStrategy,2023.2.3,Win32,59.88023952,7,1,13,-0.021296296,0.021296296,1,0,0,0.7642,rock_grid_rect_2,7,12,-1,-1,0.764,0.117592593,-0.390740741,1,0,0,1.2015,Peridotite_rect,7,1.201,1,12,0,12,0,1,,,,,,,,,,,,,
65c23bf7904812607642bad6,TCR,2024-06-11_12h10.44.150,LearnStrategy,2023.2.3,Win32,59.88023952,7,1,14,-0.057407407,0.00462963,1,0,0,0.747,rock_grid_rect_2,6,12,-1,-1,0.747,-0.073148148,-0.4,1,0,0,1.2274,Pegmatite_rect,6,1.227,1,13,0,13,0,1,,,,,,,,,,,,,
65c23bf7904812607642bad6,TCR,2024-06-11_12h10.44.150,LearnStrategy,2023.2.3,Win32,59.88023952,7,1,15,-0.091666667,-0.005555556,1,0,0,0.6807,rock_grid_rect_2,4,13,-1,-1,0.681,0.385185185,-0.264814815,1,0,0,1.8687,Gabbro_rect,4,1.869,1,14,0,14,0,1,,,,,,,,,,,,,
65c23bf7904812607642bad6,TCR,2024-06-11_12h10.44.150,LearnStrategy,2023.2.3,Win32,59.88023952,7,1,16,-0.069444444,0.012962963,1,0,0,0.7297,rock_grid_rect_2,1,05,-1,-1,0.73,-0.377777778,-0.25462963,1,0,0,1.0722,Andesite_rect,1,1.072,1,15,0,15,0,1,,,,,,,,,,,,,
65c23bf7904812607642bad6,TCR,2024-06-11_12h10.44.150,LearnStrategy,2023.2.3,Win32,59.88023952,7,2,1,,,,,,,,6,05,,,,,,,,,,,6,1.088,1,,,,,,-0.137962963,-0.391666667,1,0,0,1.0878,Pegmatite_rect,0,0,0,0,1,
65c23bf7904812607642bad6,TCR,2024-06-11_12h10.44.150,LearnStrategy,2023.2.3,Win32,59.88023952,7,2,2,,,,,,,,2,01,,,,,,,,,,,2,1.075,1,,,,,,-0.146296296,-0.248148148,1,0,0,1.0749,Basalt_rect,1,0,1,0,1,
65c23bf7904812607642bad6,TCR,2024-06-11_12h10.44.150,LearnStrategy,2023.2.3,Win32,59.88023952,7,2,3,,,,,,,,4,12,,,,,,,,,,,4,1.53,1,,,,,,0.335185185,-0.25462963,1,0,0,1.53,Gabbro_rect,2,0,2,0,1,
65c23bf7904812607642bad6,TCR,2024-06-11_12h10.44.150,LearnStrategy,2023.2.3,Win32,59.88023952,7,2,4,,,,,,,,1,14,,,,,,,,,,,6,1.645,0,,,,,,-0.133333333,-0.381481481,1,0,0,1.6445,Pegmatite_rect,3,0,3,0,1,
65c23bf7904812607642bad6,TCR,2024-06-11_12h10.44.150,LearnStrategy,2023.2.3,Win32,59.88023952,7,2,5,,,,,,,,5,08,,,,,,,,,,,5,1.328,1,,,,,,-0.350925926,-0.389814815,1,0,0,1.3278,Obsidian_rect,4,0,4,0,1,
65c23bf7904812607642bad6,TCR,2024-06-11_12h10.44.150,LearnStrategy,2023.2.3,Win32,59.88023952,7,2,6,,,,,,,,1,16,,,,,,,,,,,4,2.382,0,,,,,,0.402777778,-0.266666667,1,0,0,2.3819,Gabbro_rect,5,0,5,0,1,
65c23bf7904812607642bad6,TCR,2024-06-11_12h10.44.150,LearnStrategy,2023.2.3,Win32,59.88023952,7,2,7,,,,,,,,6,09,,,,,,,,,,,6,2.344,1,,,,,,-0.063888889,-0.415740741,1,0,0,2.3444,Pegmatite_rect,6,0,6,0,1,
65c23bf7904812607642bad6,TCR,2024-06-11_12h10.44.150,LearnStrategy,2023.2.3,Win32,59.88023952,7,2,8,,,,,,,,7,13,,,,,,,,,,,7,1.032,1,,,,,,0.141666667,-0.418518519,1,0,0,1.0317,Peridotite_rect,7,0,7,0,1,
65c23bf7904812607642bad6,TCR,2024-06-11_12h10.44.150,LearnStrategy,2023.2.3,Win32,59.88023952,7,2,9,,,,,,,,3,15,,,,,,,,,,,3,2.603,1,,,,,,0.171296296,-0.247222222,1,0,0,2.6027,Diorite_rect,8,0,8,0,1,
65c23bf7904812607642bad6,TCR,2024-06-11_12h10.44.150,LearnStrategy,2023.2.3,Win32,59.88023952,7,2,10,,,,,,,,5,04,,,,,,,,,,,5,1.049,1,,,,,,-0.353703704,-0.378703704,1,0,0,1.049,Obsidian_rect,9,0,9,0,1,
65c23bf7904812607642bad6,TCR,2024-06-11_12h10.44.150,LearnStrategy,2023.2.3,Win32,59.88023952,7,2,11,,,,,,,,8,03,,,,,,,,,,,8,1.21,1,,,,,,0.436111111,-0.40462963,1,0,0,1.2104,Pumice_rect,10,0,10,0,1,
65c23bf7904812607642bad6,TCR,2024-06-11_12h10.44.150,LearnStrategy,2023.2.3,Win32,59.88023952,7,2,12,,,,,,,,8,16,,,,,,,,,,,8,0.444,1,,,,,,0.436111111,-0.40462963,1,0,0,0.4438,Pumice_rect,11,0,11,0,1,
65c23bf7904812607642bad6,TCR,2024-06-11_12h10.44.150,LearnStrategy,2023.2.3,Win32,59.88023952,7,2,13,,,,,,,,2,14,,,,,,,,,,,8,0.66,0,,,,,,0.437037037,-0.40462963,1,0,0,0.6598,Pumice_rect,12,0,12,0,1,
65c23bf7904812607642bad6,TCR,2024-06-11_12h10.44.150,LearnStrategy,2023.2.3,Win32,59.88023952,7,2,14,,,,,,,,3,02,,,,,,,,,,,3,1.343,1,,,,,,0.180555556,-0.238888889,1,0,0,1.3435,Diorite_rect,13,0,13,0,1,
65c23bf7904812607642bad6,TCR,2024-06-11_12h10.44.150,LearnStrategy,2023.2.3,Win32,59.88023952,7,2,15,,,,,,,,4,14,,,,,,,,,,,1,4.491,0,,,,,,-0.35462963,-0.236111111,1,0,0,4.4909,Andesite_rect,14,0,14,0,1,
65c23bf7904812607642bad6,TCR,2024-06-11_12h10.44.150,LearnStrategy,2023.2.3,Win32,59.88023952,7,2,16,,,,,,,,7,15,,,,,,,,,,,7,1.564,1,,,,,,0.166666667,-0.400925926,1,0,0,1.5645,Peridotite_rect,15,0,15,0,1,
65c23bf7904812607642bad6,TCR,2024-06-11_12h10.44.150,LearnStrategy,2023.2.3,Win32,59.88023952,8,1,1,-0.038888889,0,1,0,0,0.6481,rock_grid_rect_2,7,04,-1,-1,0.648,0.136111111,-0.409259259,1,0,0,1.5351,Peridotite_rect,7,1.535,1,0,0,0,0,1,,,,,,,,,,,,,
65c23bf7904812607642bad6,TCR,2024-06-11_12h10.44.150,LearnStrategy,2023.2.3,Win32,59.88023952,8,1,2,-0.019444444,-0.006481481,1,0,0,1.3479,rock_grid_rect_2,6,07,-1,-1,1.348,-0.143518519,-0.400925926,1,0,0,1.4105,Pegmatite_rect,6,1.41,1,1,0,1,0,1,,,,,,,,,,,,,
65c23bf7904812607642bad6,TCR,2024-06-11_12h10.44.150,LearnStrategy,2023.2.3,Win32,59.88023952,8,1,3,-0.00462963,-0.009259259,1,0,0,1.0477,rock_grid_rect_2,7,12,-1,-1,1.048,0.14537037,-0.412037037,1,0,0,4.4594,Peridotite_rect,7,4.459,1,2,0,2,0,1,,,,,,,,,,,,,
65c23bf7904812607642bad6,TCR,2024-06-11_12h10.44.150,LearnStrategy,2023.2.3,Win32,59.88023952,8,1,4,-0.042592593,0.001851852,1,0,0,0.813,rock_grid_rect_2,4,16,-1,-1,0.813,0.32037037,-0.243518519,1,0,0,1.7861,Gabbro_rect,4,1.786,1,3,0,3,0,1,,,,,,,,,,,,,
65c23bf7904812607642bad6,TCR,2024-06-11_12h10.44.150,LearnStrategy,2023.2.3,Win32,59.88023952,8,1,5,0.033333333,0.010185185,1,0,0,1.0634,rock_grid_rect_2,1,01,-1,-1,1.063,-0.457407407,-0.249074074,1,0,0,1.7085,Andesite_rect,1,1.709,1,4,0,4,0,1,,,,,,,,,,,,,
65c23bf7904812607642bad6,TCR,2024-06-11_12h10.44.150,LearnStrategy,2023.2.3,Win32,59.88023952,8,1,6,0.028703704,-0.02037037,1,0,0,1.0476,rock_grid_rect_2,4,16,-1,-1,1.048,0.382407407,-0.250925926,1,0,0,1.6521,Gabbro_rect,4,1.652,1,5,0,5,0,1,,,,,,,,,,,,,
65c23bf7904812607642bad6,TCR,2024-06-11_12h10.44.150,LearnStrategy,2023.2.3,Win32,59.88023952,8,1,7,-0.037037037,0.023148148,1,0,0,1.1143,rock_grid_rect_2,3,16,-1,-1,1.114,0.083333333,-0.241666667,1,0,0,1.1691,Diorite_rect,3,1.169,1,6,0,6,0,1,,,,,,,,,,,,,
65c23bf7904812607642bad6,TCR,2024-06-11_12h10.44.150,LearnStrategy,2023.2.3,Win32,59.88023952,8,1,8,-0.02962963,0.008333333,1,0,0,0.9642,rock_grid_rect_2,4,03,-1,-1,0.964,0.155555556,-0.269444444,1,0,0,1.2412,Diorite_rect,3,1.241,0,7,0,7,0,1,,,,,,,,,,,,,
65c23bf7904812607642bad6,TCR,2024-06-11_12h10.44.150,LearnStrategy,2023.2.3,Win32,59.88023952,8,1,9,-0.043518519,-0.017592593,1,0,0,1.6643,rock_grid_rect_2,8,14,-1,-1,1.664,0.355555556,-0.396296296,1,0,0,1.0082,Pumice_rect,8,1.008,1,8,0,8,0,1,,,,,,,,,,,,,
65c23bf7904812607642bad6,TCR,2024-06-11_12h10.44.150,LearnStrategy,2023.2.3,Win32,59.88023952,8,1,10,-0.014814815,-0.010185185,1,0,0,1.264,rock_grid_rect_2,3,11,-1,-1,1.264,0.141666667,-0.235185185,1,0,0,2.0446,Diorite_rect,3,2.045,1,9,0,9,0,1,,,,,,,,,,,,,
65c23bf7904812607642bad6,TCR,2024-06-11_12h10.44.150,LearnStrategy,2023.2.3,Win32,59.88023952,8,1,11,-0.044444444,0.00462963,1,0,0,0.8978,rock_grid_rect_2,1,07,-1,-1,0.898,-0.397222222,-0.247222222,1,0,0,1.7904,Andesite_rect,1,1.79,1,10,0,10,0,1,,,,,,,,,,,,,
65c23bf7904812607642bad6,TCR,2024-06-11_12h10.44.150,LearnStrategy,2023.2.3,Win32,59.88023952,8,1,12,0.021296296,-0.014814815,1,0,0,0.8147,rock_grid_rect_2,2,04,-1,-1,0.815,-0.139814815,-0.25462963,1,0,0,1.4102,Basalt_rect,2,1.41,1,11,0,11,0,1,,,,,,,,,,,,,
65c23bf7904812607642bad6,TCR,2024-06-11_12h10.44.150,LearnStrategy,2023.2.3,Win32,59.88023952,8,1,13,0,-0.008333333,1,0,0,0.8644,rock_grid_rect_2,2,04,-1,-1,0.864,-0.12037037,-0.24537037,1,0,0,1.019,Basalt_rect,2,1.019,1,12,0,12,0,1,,,,,,,,,,,,,
65c23bf7904812607642bad6,TCR,2024-06-11_12h10.44.150,LearnStrategy,2023.2.3,Win32,59.88023952,8,1,14,0.047222222,0.009259259,1,0,0,0.6978,rock_grid_rect_2,5,06,-1,-1,0.698,-0.39537037,-0.406481481,1,0,0,1.742,Obsidian_rect,5,1.742,1,13,0,13,0,1,,,,,,,,,,,,,
65c23bf7904812607642bad6,TCR,2024-06-11_12h10.44.150,LearnStrategy,2023.2.3,Win32,59.88023952,8,1,15,0.012037037,-0.017592593,1,0,0,1.1312,rock_grid_rect_2,1,06,-1,-1,1.131,-0.375,-0.269444444,1,0,0,2.5219,Andesite_rect,1,2.522,1,14,0,14,0,1,,,,,,,,,,,,,
65c23bf7904812607642bad6,TCR,2024-06-11_12h10.44.150,LearnStrategy,2023.2.3,Win32,59.88023952,8,1,16,0.026851852,-0.009259259,1,0,0,0.9144,rock_grid_rect_2,1,04,-1,-1,0.914,-0.358333333,-0.24537037,1,0,0,1.3146,Andesite_rect,1,1.315,1,15,0,15,0,1,,,,,,,,,,,,,
65c23bf7904812607642bad6,TCR,2024-06-11_12h10.44.150,LearnStrategy,2023.2.3,Win32,59.88023952,8,2,1,,,,,,,,3,12,,,,,,,,,,,3,1.63,1,,,,,,0.167592593,-0.256481481,1,0,0,1.6296,Diorite_rect,0,0,0,0,1,
65c23bf7904812607642bad6,TCR,2024-06-11_12h10.44.150,LearnStrategy,2023.2.3,Win32,59.88023952,8,2,2,,,,,,,,5,12,,,,,,,,,,,5,1.386,1,,,,,,-0.409259259,-0.417592593,1,0,0,1.3862,Obsidian_rect,1,0,1,0,1,
65c23bf7904812607642bad6,TCR,2024-06-11_12h10.44.150,LearnStrategy,2023.2.3,Win32,59.88023952,8,2,3,,,,,,,,1,09,,,,,,,,,,,1,1.288,1,,,,,,-0.382407407,-0.233333333,1,0,0,1.288,Andesite_rect,2,0,2,0,1,
65c23bf7904812607642bad6,TCR,2024-06-11_12h10.44.150,LearnStrategy,2023.2.3,Win32,59.88023952,8,2,4,,,,,,,,8,10,,,,,,,,,,,8,1.083,1,,,,,,0.37037037,-0.389814815,1,0,0,1.0827,Pumice_rect,3,0,3,0,1,
65c23bf7904812607642bad6,TCR,2024-06-11_12h10.44.150,LearnStrategy,2023.2.3,Win32,59.88023952,8,2,5,,,,,,,,8,04,,,,,,,,,,,8,1.033,1,,,,,,0.415740741,-0.413888889,1,0,0,1.0332,Pumice_rect,4,0,4,0,1,
65c23bf7904812607642bad6,TCR,2024-06-11_12h10.44.150,LearnStrategy,2023.2.3,Win32,59.88023952,8,2,6,,,,,,,,2,10,,,,,,,,,,,2,3.411,1,,,,,,-0.133333333,-0.237962963,1,0,0,3.4106,Basalt_rect,5,0,5,0,1,
65c23bf7904812607642bad6,TCR,2024-06-11_12h10.44.150,LearnStrategy,2023.2.3,Win32,59.88023952,8,2,7,,,,,,,,4,10,,,,,,,,,,,4,2.364,1,,,,,,0.39537037,-0.263888889,1,0,0,2.3643,Gabbro_rect,6,0,6,0,1,
65c23bf7904812607642bad6,TCR,2024-06-11_12h10.44.150,LearnStrategy,2023.2.3,Win32,59.88023952,8,2,8,,,,,,,,7,16,,,,,,,,,,,7,1.378,1,,,,,,0.137962963,-0.398148148,1,0,0,1.3779,Peridotite_rect,7,0,7,0,1,
65c23bf7904812607642bad6,TCR,2024-06-11_12h10.44.150,LearnStrategy,2023.2.3,Win32,59.88023952,8,2,9,,,,,,,,1,11,,,,,,,,,,,1,1.831,1,,,,,,-0.394444444,-0.234259259,1,0,0,1.8307,Andesite_rect,8,0,8,0,1,
65c23bf7904812607642bad6,TCR,2024-06-11_12h10.44.150,LearnStrategy,2023.2.3,Win32,59.88023952,8,2,10,,,,,,,,6,13,,,,,,,,,,,6,1.11,1,,,,,,-0.139814815,-0.405555556,1,0,0,1.1098,Pegmatite_rect,9,0,9,0,1,
65c23bf7904812607642bad6,TCR,2024-06-11_12h10.44.150,LearnStrategy,2023.2.3,Win32,59.88023952,8,2,11,,,,,,,,6,03,,,,,,,,,,,6,0.968,1,,,,,,-0.087037037,-0.416666667,1,0,0,0.9679,Pegmatite_rect,10,0,10,0,1,
65c23bf7904812607642bad6,TCR,2024-06-11_12h10.44.150,LearnStrategy,2023.2.3,Win32,59.88023952,8,2,12,,,,,,,,7,14,,,,,,,,,,,4,2.618,0,,,,,,0.386111111,-0.265740741,1,0,0,2.6175,Gabbro_rect,11,0,11,0,1,
65c23bf7904812607642bad6,TCR,2024-06-11_12h10.44.150,LearnStrategy,2023.2.3,Win32,59.88023952,8,2,13,,,,,,,,2,12,,,,,,,,,,,4,1.413,0,,,,,,0.333333333,-0.251851852,1,0,0,1.4134,Gabbro_rect,12,0,12,0,1,
65c23bf7904812607642bad6,TCR,2024-06-11_12h10.44.150,LearnStrategy,2023.2.3,Win32,59.88023952,8,2,14,,,,,,,,4,08,,,,,,,,,,,4,0.903,1,,,,,,0.333333333,-0.251851852,1,0,0,0.9034,Gabbro_rect,13,0,13,0,1,
65c23bf7904812607642bad6,TCR,2024-06-11_12h10.44.150,LearnStrategy,2023.2.3,Win32,59.88023952,8,2,15,,,,,,,,3,14,,,,,,,,,,,3,1.161,1,,,,,,0.109259259,-0.233333333,1,0,0,1.1612,Diorite_rect,14,0,14,0,1,
65c23bf7904812607642bad6,TCR,2024-06-11_12h10.44.150,LearnStrategy,2023.2.3,Win32,59.88023952,8,2,16,,,,,,,,5,10,,,,,,,,,,,5,1.167,1,,,,,,-0.387962963,-0.399074074,1,0,0,1.1671,Obsidian_rect,15,0,15,0,1,
65c23bf7904812607642bad6,TCR,2024-06-11_12h10.44.150,LearnStrategy,2023.2.3,Win32,59.88023952,9,1,1,-0.008333333,0.00462963,1,0,0,0.5134,rock_grid_rect_2,2,11,-1,-1,0.513,0.372222222,-0.241666667,1,0,0,2.3294,Gabbro_rect,4,2.329,0,0,0,0,0,1,,,,,,,,,,,,,
65c23bf7904812607642bad6,TCR,2024-06-11_12h10.44.150,LearnStrategy,2023.2.3,Win32,59.88023952,9,1,2,0.001851852,-0.012037037,1,0,0,1.2972,rock_grid_rect_2,6,16,-1,-1,1.297,-0.136111111,-0.412037037,1,0,0,1.0848,Pegmatite_rect,6,1.085,1,1,0,1,0,1,,,,,,,,,,,,,
65c23bf7904812607642bad6,TCR,2024-06-11_12h10.44.150,LearnStrategy,2023.2.3,Win32,59.88023952,9,1,3,-0.018518519,0.003703704,1,0,0,1.1806,rock_grid_rect_2,8,13,-1,-1,1.181,0.369444444,-0.380555556,1,0,0,1.2985,Pumice_rect,8,1.299,1,2,0,2,0,1,,,,,,,,,,,,,
65c23bf7904812607642bad6,TCR,2024-06-11_12h10.44.150,LearnStrategy,2023.2.3,Win32,59.88023952,9,1,4,0.002777778,-0.000925926,1,0,0,1.08,rock_grid_rect_2,4,03,-1,-1,1.08,0.37962963,-0.255555556,1,0,0,2.8882,Gabbro_rect,4,2.888,1,3,0,3,0,1,,,,,,,,,,,,,
65c23bf7904812607642bad6,TCR,2024-06-11_12h10.44.150,LearnStrategy,2023.2.3,Win32,59.88023952,9,1,5,-0.011111111,-0.001851852,1,0,0,1.0149,rock_grid_rect_2,2,16,-1,-1,1.015,0.37962963,-0.250925926,1,0,0,2.8265,Gabbro_rect,4,2.826,0,4,0,4,0,1,,,,,,,,,,,,,
65c23bf7904812607642bad6,TCR,2024-06-11_12h10.44.150,LearnStrategy,2023.2.3,Win32,59.88023952,9,1,6,-0.001851852,-0.02037037,1,0,0,0.7313,rock_grid_rect_2,2,16,-1,-1,0.731,-0.164814815,-0.269444444,1,0,0,0.761,Basalt_rect,2,0.761,1,5,0,5,0,1,,,,,,,,,,,,,
65c23bf7904812607642bad6,TCR,2024-06-11_12h10.44.150,LearnStrategy,2023.2.3,Win32,59.88023952,9,1,7,-0.02962963,-0.011111111,1,0,0,0.9968,rock_grid_rect_2,1,01,-1,-1,0.997,-0.374074074,-0.250925926,1,0,0,1.7431,Andesite_rect,1,1.743,1,6,0,6,0,1,,,,,,,,,,,,,
65c23bf7904812607642bad6,TCR,2024-06-11_12h10.44.150,LearnStrategy,2023.2.3,Win32,59.88023952,9,1,8,0.027777778,0,1,0,0,0.9978,rock_grid_rect_2,5,09,-1,-1,0.998,-0.397222222,-0.413888889,1,0,0,1.5736,Obsidian_rect,5,1.574,1,7,0,7,0,1,,,,,,,,,,,,,
65c23bf7904812607642bad6,TCR,2024-06-11_12h10.44.150,LearnStrategy,2023.2.3,Win32,59.88023952,9,1,9,-0.025925926,0.002777778,1,0,0,0.9142,rock_grid_rect_2,4,01,-1,-1,0.914,0.374074074,-0.242592593,1,0,0,2.6004,Gabbro_rect,4,2.6,1,8,0,8,0,1,,,,,,,,,,,,,
65c23bf7904812607642bad6,TCR,2024-06-11_12h10.44.150,LearnStrategy,2023.2.3,Win32,59.88023952,9,1,10,-0.005555556,-0.001851852,1,0,0,0.7315,rock_grid_rect_2,7,12,-1,-1,0.732,0.089814815,-0.421296296,1,0,0,1.7018,Peridotite_rect,7,1.702,1,9,0,9,0,1,,,,,,,,,,,,,
65c23bf7904812607642bad6,TCR,2024-06-11_12h10.44.150,LearnStrategy,2023.2.3,Win32,59.88023952,9,1,11,0,0.012962963,1,0,0,0.9141,rock_grid_rect_2,7,04,-1,-1,0.914,0.078703704,-0.418518519,1,0,0,1.247,Peridotite_rect,7,1.247,1,10,0,10,0,1,,,,,,,,,,,,,
65c23bf7904812607642bad6,TCR,2024-06-11_12h10.44.150,LearnStrategy,2023.2.3,Win32,59.88023952,9,1,12,-0.093518519,0.005555556,1,0,0,1.0149,rock_grid_rect_2,3,13,-1,-1,1.015,0.133333333,-0.260185185,1,0,0,2.2873,Diorite_rect,3,2.287,1,11,0,11,0,1,,,,,,,,,,,,,
65c23bf7904812607642bad6,TCR,2024-06-11_12h10.44.150,LearnStrategy,2023.2.3,Win32,59.88023952,9,1,13,-0.023148148,-0.005555556,1,0,0,0.8974,rock_grid_rect_2,1,03,-1,-1,0.897,-0.394444444,-0.264814815,1,0,0,1.2736,Andesite_rect,1,1.274,1,12,0,12,0,1,,,,,,,,,,,,,
65c23bf7904812607642bad6,TCR,2024-06-11_12h10.44.150,LearnStrategy,2023.2.3,Win32,59.88023952,9,1,14,0.107407407,0.018518519,1,0,0,0.7815,rock_grid_rect_2,7,05,-1,-1,0.782,0.127777778,-0.392592593,1,0,0,1.269,Peridotite_rect,7,1.269,1,13,0,13,0,1,,,,,,,,,,,,,
65c23bf7904812607642bad6,TCR,2024-06-11_12h10.44.150,LearnStrategy,2023.2.3,Win32,59.88023952,9,1,15,-0.056481481,0.012962963,1,0,0,1.0477,rock_grid_rect_2,4,01,-1,-1,1.048,0.368518519,-0.237962963,1,0,0,1.8947,Gabbro_rect,4,1.895,1,14,0,14,0,1,,,,,,,,,,,,,
65c23bf7904812607642bad6,TCR,2024-06-11_12h10.44.150,LearnStrategy,2023.2.3,Win32,59.88023952,9,1,16,-0.025925926,-0.023148148,1,0,0,0.7479,rock_grid_rect_2,1,07,-1,-1,0.748,-0.371296296,-0.250925926,1,0,0,1.444,Andesite_rect,1,1.444,1,15,0,15,0,1,,,,,,,,,,,,,
65c23bf7904812607642bad6,TCR,2024-06-11_12h10.44.150,LearnStrategy,2023.2.3,Win32,59.88023952,9,2,1,,,,,,,,1,10,,,,,,,,,,,4,1.608,0,,,,,,0.34537037,-0.255555556,1,0,0,1.6083,Gabbro_rect,0,0,0,0,1,
65c23bf7904812607642bad6,TCR,2024-06-11_12h10.44.150,LearnStrategy,2023.2.3,Win32,59.88023952,9,2,2,,,,,,,,5,02,,,,,,,,,,,5,1.127,1,,,,,,-0.449074074,-0.402777778,1,0,0,1.1265,Obsidian_rect,1,0,1,0,1,
65c23bf7904812607642bad6,TCR,2024-06-11_12h10.44.150,LearnStrategy,2023.2.3,Win32,59.88023952,9,2,3,,,,,,,,7,06,,,,,,,,,,,7,1.492,1,,,,,,0.086111111,-0.411111111,1,0,0,1.4918,Peridotite_rect,2,0,2,0,1,
65c23bf7904812607642bad6,TCR,2024-06-11_12h10.44.150,LearnStrategy,2023.2.3,Win32,59.88023952,9,2,4,,,,,,,,2,02,,,,,,,,,,,2,1.017,1,,,,,,-0.152777778,-0.232407407,1,0,0,1.0175,Basalt_rect,3,0,3,0,1,
65c23bf7904812607642bad6,TCR,2024-06-11_12h10.44.150,LearnStrategy,2023.2.3,Win32,59.88023952,9,2,5,,,,,,,,3,08,,,,,,,,,,,3,1.478,1,,,,,,0.156481481,-0.250925926,1,0,0,1.4779,Diorite_rect,4,0,4,0,1,
65c23bf7904812607642bad6,TCR,2024-06-11_12h10.44.150,LearnStrategy,2023.2.3,Win32,59.88023952,9,2,6,,,,,,,,1,02,,,,,,,,,,,1,1.312,1,,,,,,-0.397222222,-0.242592593,1,0,0,1.3123,Andesite_rect,5,0,5,0,1,
65c23bf7904812607642bad6,TCR,2024-06-11_12h10.44.150,LearnStrategy,2023.2.3,Win32,59.88023952,9,2,7,,,,,,,,7,10,,,,,,,,,,,7,1.248,1,,,,,,0.152777778,-0.413888889,1,0,0,1.2478,Peridotite_rect,6,0,6,0,1,
65c23bf7904812607642bad6,TCR,2024-06-11_12h10.44.150,LearnStrategy,2023.2.3,Win32,59.88023952,9,2,8,,,,,,,,6,11,,,,,,,,,,,6,1.076,1,,,,,,-0.152777778,-0.390740741,1,0,0,1.0759,Pegmatite_rect,7,0,7,0,1,
65c23bf7904812607642bad6,TCR,2024-06-11_12h10.44.150,LearnStrategy,2023.2.3,Win32,59.88023952,9,2,9,,,,,,,,8,02,,,,,,,,,,,8,1.644,1,,,,,,0.380555556,-0.403703704,1,0,0,1.644,Pumice_rect,8,0,8,0,1,
65c23bf7904812607642bad6,TCR,2024-06-11_12h10.44.150,LearnStrategy,2023.2.3,Win32,59.88023952,9,2,10,,,,,,,,6,08,,,,,,,,,,,6,1.23,1,,,,,,-0.175,-0.388888889,1,0,0,1.2303,Pegmatite_rect,9,0,9,0,1,
65c23bf7904812607642bad6,TCR,2024-06-11_12h10.44.150,LearnStrategy,2023.2.3,Win32,59.88023952,9,2,11,,,,,,,,8,05,,,,,,,,,,,8,1.026,1,,,,,,0.403703704,-0.391666667,1,0,0,1.0258,Pumice_rect,10,0,10,0,1,
65c23bf7904812607642bad6,TCR,2024-06-11_12h10.44.150,LearnStrategy,2023.2.3,Win32,59.88023952,9,2,12,,,,,,,,5,11,,,,,,,,,,,5,1.257,1,,,,,,-0.405555556,-0.387962963,1,0,0,1.2567,Obsidian_rect,11,0,11,0,1,
65c23bf7904812607642bad6,TCR,2024-06-11_12h10.44.150,LearnStrategy,2023.2.3,Win32,59.88023952,9,2,13,,,,,,,,2,06,,,,,,,,,,,2,0.953,1,,,,,,-0.119444444,-0.256481481,1,0,0,0.9526,Basalt_rect,12,0,12,0,1,
65c23bf7904812607642bad6,TCR,2024-06-11_12h10.44.150,LearnStrategy,2023.2.3,Win32,59.88023952,9,2,14,,,,,,,,3,07,,,,,,,,,,,3,1.223,1,,,,,,0.110185185,-0.251851852,1,0,0,1.2233,Diorite_rect,13,0,13,0,1,
65c23bf7904812607642bad6,TCR,2024-06-11_12h10.44.150,LearnStrategy,2023.2.3,Win32,59.88023952,9,2,15,,,,,,,,4,11,,,,,,,,,,,4,1.33,1,,,,,,0.358333333,-0.240740741,1,0,0,1.3299,Gabbro_rect,14,0,14,0,1,
65c23bf7904812607642bad6,TCR,2024-06-11_12h10.44.150,LearnStrategy,2023.2.3,Win32,59.88023952,9,2,16,,,,,,,,4,05,,,,,,,,,,,4,1.782,1,,,,,,0.401851852,-0.249074074,1,0,0,1.7824,Gabbro_rect,15,0,15,0,1,
65c23bf7904812607642bad6,TCR,2024-06-11_12h10.44.150,LearnStrategy,2023.2.3,Win32,59.88023952,,,,,,,,,,,,,,,,,,,,,,,,,,,,,,,,,,,,,,,,,,,1
65c23bf7904812607642bad6,TCR,2024-06-11_12h10.44.150,LearnStrategy,2023.2.3,Win32,59.88023952,,,,,,,,,,,,,,,,,,,,,,,,,,,,,,,,,,,,,,,,,,,
65c23bf7904812607642bad6,TCR,2024-06-11_12h10.44.150,LearnStrategy,2023.2.3,Win32,59.88023952,,,,,,,,,,,1,05,1,1,,,,,,,,,,,,,,,,,,,,,,,,,,,,,
65c23bf7904812607642bad6,TCR,2024-06-11_12h10.44.150,LearnStrategy,2023.2.3,Win32,59.88023952,,,,,,,,,,,2,08,1,2,,,,,,,,,,,,,,,,,,,,,,,,,,,,,
65c23bf7904812607642bad6,TCR,2024-06-11_12h10.44.150,LearnStrategy,2023.2.3,Win32,59.88023952,,,,,,,,,,,1,07,1,3,,,,,,,,,,,,,,,,,,,,,,,,,,,,,
65c23bf7904812607642bad6,TCR,2024-06-11_12h10.44.150,LearnStrategy,2023.2.3,Win32,59.88023952,,,,,,,,,,,5,05,1,4,,,,,,,,,,,,,,,,,,,,,,,,,,,,,
65c23bf7904812607642bad6,TCR,2024-06-11_12h10.44.150,LearnStrategy,2023.2.3,Win32,59.88023952,,,,,,,,,,,2,16,1,5,,,,,,,,,,,,,,,,,,,,,,,,,,,,,
65c23bf7904812607642bad6,TCR,2024-06-11_12h10.44.150,LearnStrategy,2023.2.3,Win32,59.88023952,,,,,,,,,,,8,06,1,6,,,,,,,,,,,,,,,,,,,,,,,,,,,,,
65c23bf7904812607642bad6,TCR,2024-06-11_12h10.44.150,LearnStrategy,2023.2.3,Win32,59.88023952,,,,,,,,,,,2,05,1,7,,,,,,,,,,,,,,,,,,,,,,,,,,,,,
65c23bf7904812607642bad6,TCR,2024-06-11_12h10.44.150,LearnStrategy,2023.2.3,Win32,59.88023952,,,,,,,,,,,6,07,1,8,,,,,,,,,,,,,,,,,,,,,,,,,,,,,
65c23bf7904812607642bad6,TCR,2024-06-11_12h10.44.150,LearnStrategy,2023.2.3,Win32,59.88023952,,,,,,,,,,,6,12,2,1,,,,,,,,,,,,,,,,,,,,,,,,,,,,,
65c23bf7904812607642bad6,TCR,2024-06-11_12h10.44.150,LearnStrategy,2023.2.3,Win32,59.88023952,,,,,,,,,,,7,08,2,2,,,,,,,,,,,,,,,,,,,,,,,,,,,,,
65c23bf7904812607642bad6,TCR,2024-06-11_12h10.44.150,LearnStrategy,2023.2.3,Win32,59.88023952,,,,,,,,,,,2,09,2,3,,,,,,,,,,,,,,,,,,,,,,,,,,,,,
65c23bf7904812607642bad6,TCR,2024-06-11_12h10.44.150,LearnStrategy,2023.2.3,Win32,59.88023952,,,,,,,,,,,4,03,2,4,,,,,,,,,,,,,,,,,,,,,,,,,,,,,
65c23bf7904812607642bad6,TCR,2024-06-11_12h10.44.150,LearnStrategy,2023.2.3,Win32,59.88023952,,,,,,,,,,,6,16,2,5,,,,,,,,,,,,,,,,,,,,,,,,,,,,,
65c23bf7904812607642bad6,TCR,2024-06-11_12h10.44.150,LearnStrategy,2023.2.3,Win32,59.88023952,,,,,,,,,,,4,01,2,6,,,,,,,,,,,,,,,,,,,,,,,,,,,,,
65c23bf7904812607642bad6,TCR,2024-06-11_12h10.44.150,LearnStrategy,2023.2.3,Win32,59.88023952,,,,,,,,,,,7,04,2,7,,,,,,,,,,,,,,,,,,,,,,,,,,,,,
65c23bf7904812607642bad6,TCR,2024-06-11_12h10.44.150,LearnStrategy,2023.2.3,Win32,59.88023952,,,,,,,,,,,5,06,2,8,,,,,,,,,,,,,,,,,,,,,,,,,,,,,
65c23bf7904812607642bad6,TCR,2024-06-11_12h10.44.150,LearnStrategy,2023.2.3,Win32,59.88023952,,,,,,,,,,,3,13,3,1,,,,,,,,,,,,,,,,,,,,,,,,,,,,,
65c23bf7904812607642bad6,TCR,2024-06-11_12h10.44.150,LearnStrategy,2023.2.3,Win32,59.88023952,,,,,,,,,,,2,04,3,2,,,,,,,,,,,,,,,,,,,,,,,,,,,,,
65c23bf7904812607642bad6,TCR,2024-06-11_12h10.44.150,LearnStrategy,2023.2.3,Win32,59.88023952,,,,,,,,,,,7,02,3,3,,,,,,,,,,,,,,,,,,,,,,,,,,,,,
65c23bf7904812607642bad6,TCR,2024-06-11_12h10.44.150,LearnStrategy,2023.2.3,Win32,59.88023952,,,,,,,,,,,8,09,3,4,,,,,,,,,,,,,,,,,,,,,,,,,,,,,
65c23bf7904812607642bad6,TCR,2024-06-11_12h10.44.150,LearnStrategy,2023.2.3,Win32,59.88023952,,,,,,,,,,,3,09,3,5,,,,,,,,,,,,,,,,,,,,,,,,,,,,,
65c23bf7904812607642bad6,TCR,2024-06-11_12h10.44.150,LearnStrategy,2023.2.3,Win32,59.88023952,,,,,,,,,,,8,15,3,6,,,,,,,,,,,,,,,,,,,,,,,,,,,,,
65c23bf7904812607642bad6,TCR,2024-06-11_12h10.44.150,LearnStrategy,2023.2.3,Win32,59.88023952,,,,,,,,,,,5,07,3,7,,,,,,,,,,,,,,,,,,,,,,,,,,,,,
65c23bf7904812607642bad6,TCR,2024-06-11_12h10.44.150,LearnStrategy,2023.2.3,Win32,59.88023952,,,,,,,,,,,7,07,3,8,,,,,,,,,,,,,,,,,,,,,,,,,,,,,
65c23bf7904812607642bad6,TCR,2024-06-11_12h10.44.150,LearnStrategy,2023.2.3,Win32,59.88023952,,,,,,,,,,,5,09,4,1,,,,,,,,,,,,,,,,,,,,,,,,,,,,,
65c23bf7904812607642bad6,TCR,2024-06-11_12h10.44.150,LearnStrategy,2023.2.3,Win32,59.88023952,,,,,,,,,,,4,09,4,2,,,,,,,,,,,,,,,,,,,,,,,,,,,,,
65c23bf7904812607642bad6,TCR,2024-06-11_12h10.44.150,LearnStrategy,2023.2.3,Win32,59.88023952,,,,,,,,,,,4,13,4,3,,,,,,,,,,,,,,,,,,,,,,,,,,,,,
65c23bf7904812607642bad6,TCR,2024-06-11_12h10.44.150,LearnStrategy,2023.2.3,Win32,59.88023952,,,,,,,,,,,6,06,4,4,,,,,,,,,,,,,,,,,,,,,,,,,,,,,
65c23bf7904812607642bad6,TCR,2024-06-11_12h10.44.150,LearnStrategy,2023.2.3,Win32,59.88023952,,,,,,,,,,,8,08,4,5,,,,,,,,,,,,,,,,,,,,,,,,,,,,,
65c23bf7904812607642bad6,TCR,2024-06-11_12h10.44.150,LearnStrategy,2023.2.3,Win32,59.88023952,,,,,,,,,,,2,11,4,6,,,,,,,,,,,,,,,,,,,,,,,,,,,,,
65c23bf7904812607642bad6,TCR,2024-06-11_12h10.44.150,LearnStrategy,2023.2.3,Win32,59.88023952,,,,,,,,,,,7,05,4,7,,,,,,,,,,,,,,,,,,,,,,,,,,,,,
65c23bf7904812607642bad6,TCR,2024-06-11_12h10.44.150,LearnStrategy,2023.2.3,Win32,59.88023952,,,,,,,,,,,1,03,4,8,,,,,,,,,,,,,,,,,,,,,,,,,,,,,
65c23bf7904812607642bad6,TCR,2024-06-11_12h10.44.150,LearnStrategy,2023.2.3,Win32,59.88023952,,,,,,,,,,,5,16,5,1,,,,,,,,,,,,,,,,,,,,,,,,,,,,,
65c23bf7904812607642bad6,TCR,2024-06-11_12h10.44.150,LearnStrategy,2023.2.3,Win32,59.88023952,,,,,,,,,,,5,14,5,2,,,,,,,,,,,,,,,,,,,,,,,,,,,,,
65c23bf7904812607642bad6,TCR,2024-06-11_12h10.44.150,LearnStrategy,2023.2.3,Win32,59.88023952,,,,,,,,,,,3,06,5,3,,,,,,,,,,,,,,,,,,,,,,,,,,,,,
65c23bf7904812607642bad6,TCR,2024-06-11_12h10.44.150,LearnStrategy,2023.2.3,Win32,59.88023952,,,,,,,,,,,6,15,5,4,,,,,,,,,,,,,,,,,,,,,,,,,,,,,
65c23bf7904812607642bad6,TCR,2024-06-11_12h10.44.150,LearnStrategy,2023.2.3,Win32,59.88023952,,,,,,,,,,,3,11,5,5,,,,,,,,,,,,,,,,,,,,,,,,,,,,,
65c23bf7904812607642bad6,TCR,2024-06-11_12h10.44.150,LearnStrategy,2023.2.3,Win32,59.88023952,,,,,,,,,,,1,06,5,6,,,,,,,,,,,,,,,,,,,,,,,,,,,,,
65c23bf7904812607642bad6,TCR,2024-06-11_12h10.44.150,LearnStrategy,2023.2.3,Win32,59.88023952,,,,,,,,,,,6,10,5,7,,,,,,,,,,,,,,,,,,,,,,,,,,,,,
65c23bf7904812607642bad6,TCR,2024-06-11_12h10.44.150,LearnStrategy,2023.2.3,Win32,59.88023952,,,,,,,,,,,7,12,5,8,,,,,,,,,,,,,,,,,,,,,,,,,,,,,
65c23bf7904812607642bad6,TCR,2024-06-11_12h10.44.150,LearnStrategy,2023.2.3,Win32,59.88023952,,,,,,,,,,,4,16,6,1,,,,,,,,,,,,,,,,,,,,,,,,,,,,,
65c23bf7904812607642bad6,TCR,2024-06-11_12h10.44.150,LearnStrategy,2023.2.3,Win32,59.88023952,,,,,,,,,,,8,14,6,2,,,,,,,,,,,,,,,,,,,,,,,,,,,,,
65c23bf7904812607642bad6,TCR,2024-06-11_12h10.44.150,LearnStrategy,2023.2.3,Win32,59.88023952,,,,,,,,,,,8,13,6,3,,,,,,,,,,,,,,,,,,,,,,,,,,,,,
65c23bf7904812607642bad6,TCR,2024-06-11_12h10.44.150,LearnStrategy,2023.2.3,Win32,59.88023952,,,,,,,,,,,4,15,6,4,,,,,,,,,,,,,,,,,,,,,,,,,,,,,
65c23bf7904812607642bad6,TCR,2024-06-11_12h10.44.150,LearnStrategy,2023.2.3,Win32,59.88023952,,,,,,,,,,,3,10,6,5,,,,,,,,,,,,,,,,,,,,,,,,,,,,,
65c23bf7904812607642bad6,TCR,2024-06-11_12h10.44.150,LearnStrategy,2023.2.3,Win32,59.88023952,,,,,,,,,,,1,01,6,6,,,,,,,,,,,,,,,,,,,,,,,,,,,,,
65c23bf7904812607642bad6,TCR,2024-06-11_12h10.44.150,LearnStrategy,2023.2.3,Win32,59.88023952,,,,,,,,,,,1,04,6,7,,,,,,,,,,,,,,,,,,,,,,,,,,,,,
65c23bf7904812607642bad6,TCR,2024-06-11_12h10.44.150,LearnStrategy,2023.2.3,Win32,59.88023952,,,,,,,,,,,3,16,6,8,,,,,,,,,,,,,,,,,,,,,,,,,,,,,