participant,condition,date,expName,psychopyVersion,OS,frameRate,block,phase,trial,learn_mouse.x,learn_mouse.y,learn_mouse.leftButton,learn_mouse.midButton,learn_mouse.rightButton,learn_mouse.time,learn_mouse.clicked_name,cat,token,row,col,t_select,cat_rec,token_rec,cat_mouse_l.x,cat_mouse_l.y,cat_mouse_l.leftButton,cat_mouse_l.midButton,cat_mouse_l.rightButton,cat_mouse_l.time,cat_mouse_l.clicked_name,resp,t_resp,corr,train_trials.thisRepN,train_trials.thisTrialN,train_trials.thisN,train_trials.thisIndex,train_trials.ran,cat_mouse_t.x,cat_mouse_t.y,cat_mouse_t.leftButton,cat_mouse_t.midButton,cat_mouse_t.rightButton,cat_mouse_t.time,cat_mouse_t.clicked_name,test_trials.thisRepN,test_trials.thisTrialN,test_trials.thisN,test_trials.thisIndex,test_trials.ran,Bonus
65d514731a78f893b95a8516,SCR,2024-06-25_09h48.35.340,LearnStrategy,2023.2.3,Win32,59.88023952,,,,,,,,,,,,,,,,,,,,,,,,,,,,,,,,,,,,,,,,,,,,,
65d514731a78f893b95a8516,SCR,2024-06-25_09h48.35.340,LearnStrategy,2023.2.3,Win32,59.88023952,1,1,1,-0.539814801,0.416666667,1,0,0,3.6492,Pegmatite_03,6,03,6,1,3.649,4,10,0.079629686,-0.386111111,1,0,0,12.3764,Peridotite_rect,7,12.376,0,0,0,0,0,1,,,,,,,,,,,,,
65d514731a78f893b95a8516,SCR,2024-06-25_09h48.35.340,LearnStrategy,2023.2.3,Win32,59.88023952,1,1,2,-0.39351849,0.418518517,1,0,0,1.9411,Pumice_09,8,09,6,2,1.941,1,07,0.370370399,-0.409259288,1,0,0,4.1409,Pumice_rect,8,4.141,1,1,0,1,0,1,,,,,,,,,,,,,
65d514731a78f893b95a8516,SCR,2024-06-25_09h48.35.340,LearnStrategy,2023.2.3,Win32,59.88023952,1,1,3,-0.210185157,0.405555556,1,0,0,2.5604,Pegmatite_08,6,08,6,3,2.56,4,08,-0.14351849,-0.262963019,1,0,0,7.6309,Basalt_rect,2,7.631,0,2,0,2,0,1,,,,,,,,,,,,,
65d514731a78f893b95a8516,SCR,2024-06-25_09h48.35.340,LearnStrategy,2023.2.3,Win32,59.88023952,1,1,4,-0.531481467,0.421296295,1,0,0,3.5579,Pegmatite_03,6,03,6,1,3.558,7,04,0.087963019,-0.415740797,1,0,0,5.4622,Peridotite_rect,7,5.462,0,3,0,3,0,1,,,,,,,,,,,,,
65d514731a78f893b95a8516,SCR,2024-06-25_09h48.35.340,LearnStrategy,2023.2.3,Win32,59.88023952,1,1,5,-0.241666667,0.409259256,1,0,0,2.9631,Pegmatite_08,6,08,6,3,2.963,6,13,-0.054629601,-0.415740797,1,0,0,2.153,Pegmatite_rect,6,2.153,1,4,0,4,0,1,,,,,,,,,,,,,
65d514731a78f893b95a8516,SCR,2024-06-25_09h48.35.340,LearnStrategy,2023.2.3,Win32,59.88023952,1,1,6,-0.078703647,0.231481467,1,0,0,3.935,Pegmatite_10,6,10,5,4,3.935,5,16,-0.090740712,-0.402777778,1,0,0,1.9241,Pegmatite_rect,6,1.924,1,5,0,5,0,1,,,,,,,,,,,,,
65d514731a78f893b95a8516,SCR,2024-06-25_09h48.35.340,LearnStrategy,2023.2.3,Win32,59.88023952,1,1,7,-0.089814758,0.398148145,1,0,0,2.9935,Andesite_09,1,09,6,4,2.993,2,14,0.148148176,-0.237963019,1,0,0,9.6627,Diorite_rect,3,9.663,0,6,0,6,0,1,,,,,,,,,,,,,
65d514731a78f893b95a8516,SCR,2024-06-25_09h48.35.340,LearnStrategy,2023.2.3,Win32,59.88023952,1,1,8,0.424074131,-0.437037065,1,0,0,2.2538,Andesite_10,1,10,1,7,2.254,1,10,-0.398148134,-0.237963019,1,0,0,2.9675,Andesite_rect,1,2.968,1,7,0,7,0,1,,,,,,,,,,,,,
65d514731a78f893b95a8516,SCR,2024-06-25_09h48.35.340,LearnStrategy,2023.2.3,Win32,59.88023952,1,1,9,0.246296353,0.416666667,1,0,0,1.2788,Pumice_06,8,06,6,6,1.279,8,06,0.346296353,-0.419444444,1,0,0,2.0159,Pumice_rect,8,2.016,1,8,0,8,0,1,,,,,,,,,,,,,
65d514731a78f893b95a8516,SCR,2024-06-25_09h48.35.340,LearnStrategy,2023.2.3,Win32,59.88023952,1,1,10,-0.241666667,-0.270370399,1,0,0,1.2753,Basalt_02,2,02,2,3,1.275,2,02,-0.385185157,-0.239814843,1,0,0,5.1889,Andesite_rect,1,5.189,0,9,0,9,0,1,,,,,,,,,,,,,
65d514731a78f893b95a8516,SCR,2024-06-25_09h48.35.340,LearnStrategy,2023.2.3,Win32,59.88023952,1,1,11,-0.554629623,0.050925912,1,0,0,1.5045,Peridotite_13,7,13,4,1,1.505,7,13,-0.121296268,-0.239814843,1,0,0,3.7451,Basalt_rect,2,3.745,0,10,0,10,0,1,,,,,,,,,,,,,
65d514731a78f893b95a8516,SCR,2024-06-25_09h48.35.340,LearnStrategy,2023.2.3,Win32,59.88023952,1,1,12,-0.347222222,-0.413888889,1,0,0,1.538,Diorite_09,3,09,1,2,1.538,3,09,-0.347222222,-0.413888889,1,0,0,1.8692,Obsidian_rect,5,1.869,0,11,0,11,0,1,,,,,,,,,,,,,
65d514731a78f893b95a8516,SCR,2024-06-25_09h48.35.340,LearnStrategy,2023.2.3,Win32,59.88023952,1,1,13,0.050925954,-0.414814843,1,0,0,1.6415,Obsidian_09,5,09,1,5,1.642,5,09,-0.409259245,-0.38148151,1,0,0,2.2313,Obsidian_rect,5,2.231,1,12,0,12,0,1,,,,,,,,,,,,,
65d514731a78f893b95a8516,SCR,2024-06-25_09h48.35.340,LearnStrategy,2023.2.3,Win32,59.88023952,1,1,14,-0.233333333,0.108333333,1,0,0,1.2073,Pumice_14,8,14,4,3,1.207,8,14,0.373148176,-0.407407464,1,0,0,4.4338,Pumice_rect,8,4.434,1,13,0,13,0,1,,,,,,,,,,,,,
65d514731a78f893b95a8516,SCR,2024-06-25_09h48.35.340,LearnStrategy,2023.2.3,Win32,59.88023952,1,1,15,-0.546296289,0.395370367,1,0,0,1.8898,Pegmatite_03,6,03,6,1,1.89,6,03,0.138888889,-0.413888889,1,0,0,2.0286,Peridotite_rect,7,2.029,0,14,0,14,0,1,,,,,,,,,,,,,
65d514731a78f893b95a8516,SCR,2024-06-25_09h48.35.340,LearnStrategy,2023.2.3,Win32,59.88023952,1,1,16,-0.565740734,0.429629628,1,0,0,2.7904,Pegmatite_03,6,03,6,1,2.79,3,11,-0.060185157,-0.397222222,1,0,0,1.6766,Pegmatite_rect,6,1.677,1,15,0,15,0,1,,,,,,,,,,,,,
65d514731a78f893b95a8516,SCR,2024-06-25_09h48.35.340,LearnStrategy,2023.2.3,Win32,59.88023952,1,2,1,,,,,,,,3,02,,,,,,,,,,,,,1,18.02,0,,,,,,-0.44351849,-0.244444444,1,0,0,18.0201,Andesite_rect,0,0,0,0,1,
65d514731a78f893b95a8516,SCR,2024-06-25_09h48.35.340,LearnStrategy,2023.2.3,Win32,59.88023952,1,2,2,,,,,,,,4,15,,,,,,,,,,,,,1,2.153,0,,,,,,-0.410185157,-0.255555556,1,0,0,2.1527,Andesite_rect,1,0,1,0,1,
65d514731a78f893b95a8516,SCR,2024-06-25_09h48.35.340,LearnStrategy,2023.2.3,Win32,59.88023952,1,2,3,,,,,,,,7,06,,,,,,,,,,,,,6,3.365,0,,,,,,-0.082407379,-0.395370399,1,0,0,3.365,Pegmatite_rect,2,0,2,0,1,
65d514731a78f893b95a8516,SCR,2024-06-25_09h48.35.340,LearnStrategy,2023.2.3,Win32,59.88023952,1,2,4,,,,,,,,7,07,,,,,,,,,,,,,7,13.02,1,,,,,,0.060185242,-0.387963019,1,0,0,13.0202,Peridotite_rect,3,0,3,0,1,
65d514731a78f893b95a8516,SCR,2024-06-25_09h48.35.340,LearnStrategy,2023.2.3,Win32,59.88023952,1,2,5,,,,,,,,5,10,,,,,,,,,,,,,5,2.127,1,,,,,,-0.320370356,-0.380555556,1,0,0,2.1271,Obsidian_rect,4,0,4,0,1,
65d514731a78f893b95a8516,SCR,2024-06-25_09h48.35.340,LearnStrategy,2023.2.3,Win32,59.88023952,1,2,6,,,,,,,,8,08,,,,,,,,,,,,,2,4.117,0,,,,,,-0.075,-0.25,1,0,0,4.1172,Basalt_rect,5,0,5,0,1,
65d514731a78f893b95a8516,SCR,2024-06-25_09h48.35.340,LearnStrategy,2023.2.3,Win32,59.88023952,1,2,7,,,,,,,,3,15,,,,,,,,,,,,,1,5.126,0,,,,,,-0.356481467,-0.245370399,1,0,0,5.1264,Andesite_rect,6,0,6,0,1,
65d514731a78f893b95a8516,SCR,2024-06-25_09h48.35.340,LearnStrategy,2023.2.3,Win32,59.88023952,1,2,8,,,,,,,,8,02,,,,,,,,,,,,,8,2.474,1,,,,,,0.386111111,-0.402777778,1,0,0,2.4738,Pumice_rect,7,0,7,0,1,
65d514731a78f893b95a8516,SCR,2024-06-25_09h48.35.340,LearnStrategy,2023.2.3,Win32,59.88023952,1,2,9,,,,,,,,6,11,,,,,,,,,,,,,5,2.742,0,,,,,,-0.367592578,-0.40648151,1,0,0,2.742,Obsidian_rect,8,0,8,0,1,
65d514731a78f893b95a8516,SCR,2024-06-25_09h48.35.340,LearnStrategy,2023.2.3,Win32,59.88023952,1,2,10,,,,,,,,1,04,,,,,,,,,,,,,2,6.023,0,,,,,,-0.107407379,-0.248148176,1,0,0,6.0228,Basalt_rect,9,0,9,0,1,
65d514731a78f893b95a8516,SCR,2024-06-25_09h48.35.340,LearnStrategy,2023.2.3,Win32,59.88023952,1,2,11,,,,,,,,1,11,,,,,,,,,,,,,2,6.1,0,,,,,,-0.145370314,-0.257407464,1,0,0,6.0998,Basalt_rect,10,0,10,0,1,
65d514731a78f893b95a8516,SCR,2024-06-25_09h48.35.340,LearnStrategy,2023.2.3,Win32,59.88023952,1,2,12,,,,,,,,5,14,,,,,,,,,,,,,5,1.829,1,,,,,,-0.385185157,-0.400925954,1,0,0,1.8288,Obsidian_rect,11,0,11,0,1,
65d514731a78f893b95a8516,SCR,2024-06-25_09h48.35.340,LearnStrategy,2023.2.3,Win32,59.88023952,1,2,13,,,,,,,,6,09,,,,,,,,,,,,,6,2.63,1,,,,,,-0.113888889,-0.380555556,1,0,0,2.63,Pegmatite_rect,12,0,12,0,1,
65d514731a78f893b95a8516,SCR,2024-06-25_09h48.35.340,LearnStrategy,2023.2.3,Win32,59.88023952,1,2,14,,,,,,,,2,01,,,,,,,,,,,,,7,7.376,0,,,,,,0.147222222,-0.394444444,1,0,0,7.3762,Peridotite_rect,13,0,13,0,1,
65d514731a78f893b95a8516,SCR,2024-06-25_09h48.35.340,LearnStrategy,2023.2.3,Win32,59.88023952,1,2,15,,,,,,,,4,16,,,,,,,,,,,,,7,1.832,0,,,,,,0.147222222,-0.393518575,1,0,0,1.832,Peridotite_rect,14,0,14,0,1,
65d514731a78f893b95a8516,SCR,2024-06-25_09h48.35.340,LearnStrategy,2023.2.3,Win32,59.88023952,1,2,16,,,,,,,,2,12,,,,,,,,,,,,,7,4.625,0,,,,,,0.147222222,-0.393518575,1,0,0,4.6255,Peridotite_rect,15,0,15,0,1,
65d514731a78f893b95a8516,SCR,2024-06-25_09h48.35.340,LearnStrategy,2023.2.3,Win32,59.88023952,2,1,1,-0.245370356,0.415740739,1,0,0,3.3413,Pegmatite_08,6,08,6,3,3.341,6,08,-0.16851849,-0.382407464,1,0,0,4.2644,Pegmatite_rect,6,4.264,1,0,0,0,0,1,,,,,,,,,,,,,
65d514731a78f893b95a8516,SCR,2024-06-25_09h48.35.340,LearnStrategy,2023.2.3,Win32,59.88023952,2,1,2,0.040740797,0.427777778,1,0,0,1.5171,Gabbro_03,4,03,6,5,1.517,4,03,0.080555556,-0.240740797,1,0,0,1.5076,Diorite_rect,3,1.508,0,1,0,1,0,1,,,,,,,,,,,,,
65d514731a78f893b95a8516,SCR,2024-06-25_09h48.35.340,LearnStrategy,2023.2.3,Win32,59.88023952,2,1,3,0.384259288,-0.134259288,1,0,0,1.8216,Gabbro_01,4,01,3,7,1.822,4,01,0.147222222,-0.408333333,1,0,0,4.3462,Peridotite_rect,7,4.346,0,2,0,2,0,1,,,,,,,,,,,,,
65d514731a78f893b95a8516,SCR,2024-06-25_09h48.35.340,LearnStrategy,2023.2.3,Win32,59.88023952,2,1,4,0.264814843,-0.114814843,1,0,0,1.1075,Gabbro_14,4,14,3,6,1.107,4,14,0.35,-0.241666667,1,0,0,3.3971,Gabbro_rect,4,3.397,1,3,0,3,0,1,,,,,,,,,,,,,
65d514731a78f893b95a8516,SCR,2024-06-25_09h48.35.340,LearnStrategy,2023.2.3,Win32,59.88023952,2,1,5,0.233333333,0.248148134,1,0,0,1.2978,Diorite_08,3,08,5,6,1.298,3,08,-0.35370369,-0.252777778,1,0,0,2.9385,Andesite_rect,1,2.938,0,4,0,4,0,1,,,,,,,,,,,,,
65d514731a78f893b95a8516,SCR,2024-06-25_09h48.35.340,LearnStrategy,2023.2.3,Win32,59.88023952,2,1,6,0.556481595,0.117592578,1,0,0,1.8752,Basalt_14,2,14,4,8,1.875,2,14,0.403703732,-0.247222222,1,0,0,2.2775,Gabbro_rect,4,2.278,0,5,0,5,0,1,,,,,,,,,,,,,
65d514731a78f893b95a8516,SCR,2024-06-25_09h48.35.340,LearnStrategy,2023.2.3,Win32,59.88023952,2,1,7,0.239814843,0.063888889,1,0,0,1.2584,Pumice_16,8,16,4,6,1.258,8,16,0.347222222,-0.40648151,1,0,0,1.2966,Pumice_rect,8,1.297,1,6,0,6,0,1,,,,,,,,,,,,,
65d514731a78f893b95a8516,SCR,2024-06-25_09h48.35.340,LearnStrategy,2023.2.3,Win32,59.88023952,2,1,8,-0.21851849,0.25370369,1,0,0,1.9632,Andesite_03,1,03,5,3,1.963,1,03,0.359259288,-0.234259288,1,0,0,2.2181,Gabbro_rect,4,2.218,0,7,0,7,0,1,,,,,,,,,,,,,
65d514731a78f893b95a8516,SCR,2024-06-25_09h48.35.340,LearnStrategy,2023.2.3,Win32,59.88023952,2,1,9,-0.084259203,-0.449074131,1,0,0,2.06,Diorite_11,3,11,1,4,2.06,3,11,-0.359259245,-0.245370399,1,0,0,4.7219,Andesite_rect,1,4.722,0,8,0,8,0,1,,,,,,,,,,,,,
65d514731a78f893b95a8516,SCR,2024-06-25_09h48.35.340,LearnStrategy,2023.2.3,Win32,59.88023952,2,1,10,0.53703715,0.416666667,1,0,0,1.3988,Basalt_06,2,06,6,8,1.399,2,06,0.362963019,-0.250925954,1,0,0,2.8372,Gabbro_rect,4,2.837,0,9,0,9,0,1,,,,,,,,,,,,,
65d514731a78f893b95a8516,SCR,2024-06-25_09h48.35.340,LearnStrategy,2023.2.3,Win32,59.88023952,2,1,11,-0.410185157,0.097222222,1,0,0,1.4073,Andesite_01,1,01,4,2,1.407,1,01,-0.308333333,-0.250925954,1,0,0,3.4385,Andesite_rect,1,3.439,1,10,0,10,0,1,,,,,,,,,,,,,
65d514731a78f893b95a8516,SCR,2024-06-25_09h48.35.340,LearnStrategy,2023.2.3,Win32,59.88023952,2,1,12,0.366666667,0.252777778,1,0,0,1.6902,Peridotite_02,7,02,5,7,1.69,7,02,-0.388888889,-0.252777778,1,0,0,4.3457,Andesite_rect,1,4.346,0,11,0,11,0,1,,,,,,,,,,,,,
65d514731a78f893b95a8516,SCR,2024-06-25_09h48.35.340,LearnStrategy,2023.2.3,Win32,59.88023952,2,1,13,0.08148151,0.225925912,1,0,0,1.4377,Pegmatite_13,6,13,5,5,1.438,6,13,-0.111111111,-0.386111111,1,0,0,2.8063,Pegmatite_rect,6,2.806,1,12,0,12,0,1,,,,,,,,,,,,,
65d514731a78f893b95a8516,SCR,2024-06-25_09h48.35.340,LearnStrategy,2023.2.3,Win32,59.88023952,2,1,14,0.377777778,0.222222222,1,0,0,1.4165,Peridotite_02,7,02,5,7,1.417,7,02,0.148148176,-0.400925954,1,0,0,2.3717,Peridotite_rect,7,2.372,1,13,0,13,0,1,,,,,,,,,,,,,
65d514731a78f893b95a8516,SCR,2024-06-25_09h48.35.340,LearnStrategy,2023.2.3,Win32,59.88023952,2,1,15,0.405555556,0.355555556,1,0,0,1.3441,Andesite_07,1,07,6,7,1.344,1,07,-0.113888889,-0.232407464,1,0,0,3.1603,Basalt_rect,2,3.16,0,14,0,14,0,1,,,,,,,,,,,,,
65d514731a78f893b95a8516,SCR,2024-06-25_09h48.35.340,LearnStrategy,2023.2.3,Win32,59.88023952,2,1,16,-0.520370356,0.254629623,1,0,0,1.1031,Basalt_09,2,09,5,1,1.103,2,09,0.405555556,-0.251851908,1,0,0,1.2685,Gabbro_rect,4,1.268,0,15,0,15,0,1,,,,,,,,,,,,,
65d514731a78f893b95a8516,SCR,2024-06-25_09h48.35.340,LearnStrategy,2023.2.3,Win32,59.88023952,2,2,1,,,,,,,,4,13,,,,,,,,,,,,,4,6.219,1,,,,,,0.397222222,-0.251851908,1,0,0,6.2186,Gabbro_rect,0,0,0,0,1,
65d514731a78f893b95a8516,SCR,2024-06-25_09h48.35.340,LearnStrategy,2023.2.3,Win32,59.88023952,2,2,2,,,,,,,,7,16,,,,,,,,,,,,,1,6.804,0,,,,,,-0.323148134,-0.243518575,1,0,0,6.8039,Andesite_rect,1,0,1,0,1,
65d514731a78f893b95a8516,SCR,2024-06-25_09h48.35.340,LearnStrategy,2023.2.3,Win32,59.88023952,2,2,3,,,,,,,,2,08,,,,,,,,,,,,,2,3.577,1,,,,,,-0.106481425,-0.263888889,1,0,0,3.577,Basalt_rect,2,0,2,0,1,
65d514731a78f893b95a8516,SCR,2024-06-25_09h48.35.340,LearnStrategy,2023.2.3,Win32,59.88023952,2,2,4,,,,,,,,3,06,,,,,,,,,,,,,7,5.058,0,,,,,,0.130555556,-0.404629686,1,0,0,5.0583,Peridotite_rect,3,0,3,0,1,
65d514731a78f893b95a8516,SCR,2024-06-25_09h48.35.340,LearnStrategy,2023.2.3,Win32,59.88023952,2,2,5,,,,,,,,6,12,,,,,,,,,,,,,6,4.13,1,,,,,,-0.063888889,-0.391666667,1,0,0,4.1297,Pegmatite_rect,4,0,4,0,1,
65d514731a78f893b95a8516,SCR,2024-06-25_09h48.35.340,LearnStrategy,2023.2.3,Win32,59.88023952,2,2,6,,,,,,,,1,16,,,,,,,,,,,,,3,6.399,0,,,,,,0.198148176,-0.243518575,1,0,0,6.399,Diorite_rect,5,0,5,0,1,
65d514731a78f893b95a8516,SCR,2024-06-25_09h48.35.340,LearnStrategy,2023.2.3,Win32,59.88023952,2,2,7,,,,,,,,8,13,,,,,,,,,,,,,3,5.973,0,,,,,,0.150925954,-0.243518575,1,0,0,5.9733,Diorite_rect,6,0,6,0,1,
65d514731a78f893b95a8516,SCR,2024-06-25_09h48.35.340,LearnStrategy,2023.2.3,Win32,59.88023952,2,2,8,,,,,,,,6,16,,,,,,,,,,,,,6,1.825,1,,,,,,-0.130555556,-0.394444444,1,0,0,1.825,Pegmatite_rect,7,0,7,0,1,
65d514731a78f893b95a8516,SCR,2024-06-25_09h48.35.340,LearnStrategy,2023.2.3,Win32,59.88023952,2,2,9,,,,,,,,5,08,,,,,,,,,,,,,5,1.836,1,,,,,,-0.402777778,-0.398148176,1,0,0,1.8359,Obsidian_rect,8,0,8,0,1,
65d514731a78f893b95a8516,SCR,2024-06-25_09h48.35.340,LearnStrategy,2023.2.3,Win32,59.88023952,2,2,10,,,,,,,,3,16,,,,,,,,,,,,,3,5.101,1,,,,,,0.089814843,-0.261111111,1,0,0,5.1005,Diorite_rect,9,0,9,0,1,
65d514731a78f893b95a8516,SCR,2024-06-25_09h48.35.340,LearnStrategy,2023.2.3,Win32,59.88023952,2,2,11,,,,,,,,5,04,,,,,,,,,,,,,5,1.252,1,,,,,,-0.380555556,-0.405555556,1,0,0,1.252,Obsidian_rect,10,0,10,0,1,
65d514731a78f893b95a8516,SCR,2024-06-25_09h48.35.340,LearnStrategy,2023.2.3,Win32,59.88023952,2,2,12,,,,,,,,7,08,,,,,,,,,,,,,7,2.631,1,,,,,,0.08148151,-0.389814843,1,0,0,2.6314,Peridotite_rect,11,0,11,0,1,
65d514731a78f893b95a8516,SCR,2024-06-25_09h48.35.340,LearnStrategy,2023.2.3,Win32,59.88023952,2,2,13,,,,,,,,1,02,,,,,,,,,,,,,4,2.017,0,,,,,,0.391666667,-0.239814843,1,0,0,2.0167,Gabbro_rect,12,0,12,0,1,
65d514731a78f893b95a8516,SCR,2024-06-25_09h48.35.340,LearnStrategy,2023.2.3,Win32,59.88023952,2,2,14,,,,,,,,2,16,,,,,,,,,,,,,2,1.643,1,,,,,,-0.146296268,-0.251851908,1,0,0,1.6435,Basalt_rect,13,0,13,0,1,
65d514731a78f893b95a8516,SCR,2024-06-25_09h48.35.340,LearnStrategy,2023.2.3,Win32,59.88023952,2,2,15,,,,,,,,4,05,,,,,,,,,,,,,1,3.972,0,,,,,,-0.341666667,-0.228703732,1,0,0,3.9723,Andesite_rect,14,0,14,0,1,
65d514731a78f893b95a8516,SCR,2024-06-25_09h48.35.340,LearnStrategy,2023.2.3,Win32,59.88023952,2,2,16,,,,,,,,8,15,,,,,,,,,,,,,2,2.222,0,,,,,,-0.111111111,-0.228703732,1,0,0,2.2223,Basalt_rect,15,0,15,0,1,
65d514731a78f893b95a8516,SCR,2024-06-25_09h48.35.340,LearnStrategy,2023.2.3,Win32,59.88023952,3,1,1,0.229629686,0.42685185,1,0,0,1.8118,Pumice_06,8,06,6,6,1.812,8,06,0.398148176,-0.398148176,1,0,0,1.4293,Pumice_rect,8,1.429,1,0,0,0,0,1,,,,,,,,,,,,,
65d514731a78f893b95a8516,SCR,2024-06-25_09h48.35.340,LearnStrategy,2023.2.3,Win32,59.88023952,3,1,2,0.55,-0.246296353,1,0,0,2.1583,Pegmatite_06,6,06,2,8,2.158,6,06,0.151851908,-0.412963019,1,0,0,3.903,Peridotite_rect,7,3.903,0,1,0,1,0,1,,,,,,,,,,,,,
65d514731a78f893b95a8516,SCR,2024-06-25_09h48.35.340,LearnStrategy,2023.2.3,Win32,59.88023952,3,1,3,0.20648151,0.249074067,1,0,0,0.9173,Diorite_08,3,08,5,6,0.917,3,08,0.13148151,-0.257407464,1,0,0,3.6053,Diorite_rect,3,3.605,1,2,0,2,0,1,,,,,,,,,,,,,
65d514731a78f893b95a8516,SCR,2024-06-25_09h48.35.340,LearnStrategy,2023.2.3,Win32,59.88023952,3,1,4,0.378703732,0.247222222,1,0,0,1.7847,Peridotite_02,7,02,5,7,1.785,7,02,0.136111111,-0.268518575,1,0,0,2.772,Diorite_rect,3,2.772,0,3,0,3,0,1,,,,,,,,,,,,,
65d514731a78f893b95a8516,SCR,2024-06-25_09h48.35.340,LearnStrategy,2023.2.3,Win32,59.88023952,3,1,5,0.512037065,0.396296289,1,0,0,1.3366,Basalt_06,2,06,6,8,1.337,2,06,0.371296353,-0.248148176,1,0,0,3.8543,Gabbro_rect,4,3.854,0,4,0,4,0,1,,,,,,,,,,,,,
65d514731a78f893b95a8516,SCR,2024-06-25_09h48.35.340,LearnStrategy,2023.2.3,Win32,59.88023952,3,1,6,0.220370399,-0.434259288,1,0,0,1.4294,Peridotite_04,7,04,1,6,1.429,7,04,0.124074131,-0.397222222,1,0,0,6.7345,Peridotite_rect,7,6.734,1,5,0,5,0,1,,,,,,,,,,,,,
65d514731a78f893b95a8516,SCR,2024-06-25_09h48.35.340,LearnStrategy,2023.2.3,Win32,59.88023952,3,1,7,-0.406481467,0.072222222,1,0,0,1.3221,Andesite_01,1,01,4,2,1.322,1,01,0.349074131,-0.23148151,1,0,0,3.0454,Gabbro_rect,4,3.045,0,6,0,6,0,1,,,,,,,,,,,,,
65d514731a78f893b95a8516,SCR,2024-06-25_09h48.35.340,LearnStrategy,2023.2.3,Win32,59.88023952,3,1,8,-0.405555556,0.415740739,1,0,0,1.4015,Pumice_09,8,09,6,2,1.402,8,09,0.352777778,-0.4,1,0,0,2.0678,Pumice_rect,8,2.068,1,7,0,7,0,1,,,,,,,,,,,,,
65d514731a78f893b95a8516,SCR,2024-06-25_09h48.35.340,LearnStrategy,2023.2.3,Win32,59.88023952,3,1,9,0.398148176,-0.464814843,1,0,0,1.1776,Andesite_10,1,10,1,7,1.178,1,10,0.387037065,-0.258333333,1,0,0,2.7439,Gabbro_rect,4,2.744,0,8,0,8,0,1,,,,,,,,,,,,,
65d514731a78f893b95a8516,SCR,2024-06-25_09h48.35.340,LearnStrategy,2023.2.3,Win32,59.88023952,3,1,10,-0.090740712,0.367592589,1,0,0,1.6218,Andesite_09,1,09,6,4,1.622,1,09,0.361111111,-0.265740797,1,0,0,1.7112,Gabbro_rect,4,1.711,0,9,0,9,0,1,,,,,,,,,,,,,
65d514731a78f893b95a8516,SCR,2024-06-25_09h48.35.340,LearnStrategy,2023.2.3,Win32,59.88023952,3,1,11,-0.394444444,0.386111111,1,0,0,3.1253,Pumice_09,8,09,6,2,3.125,8,09,0.375925954,-0.416666667,1,0,0,1.7309,Pumice_rect,8,1.731,1,10,0,10,0,1,,,,,,,,,,,,,
65d514731a78f893b95a8516,SCR,2024-06-25_09h48.35.340,LearnStrategy,2023.2.3,Win32,59.88023952,3,1,12,0.599074131,-0.065740755,1,0,0,1.1698,Basalt_04,2,04,3,8,1.17,2,04,0.375925954,-0.233333333,1,0,0,2.3834,Gabbro_rect,4,2.383,0,11,0,11,0,1,,,,,,,,,,,,,
65d514731a78f893b95a8516,SCR,2024-06-25_09h48.35.340,LearnStrategy,2023.2.3,Win32,59.88023952,3,1,13,-0.252777778,-0.052777778,1,0,0,1.2136,Diorite_13,3,13,3,3,1.214,3,13,0.093518575,-0.408333333,1,0,0,2.0887,Peridotite_rect,7,2.089,0,12,0,12,0,1,,,,,,,,,,,,,
65d514731a78f893b95a8516,SCR,2024-06-25_09h48.35.340,LearnStrategy,2023.2.3,Win32,59.88023952,3,1,14,0.371296353,-0.233333333,1,0,0,1.5148,Gabbro_10,4,10,2,7,1.515,4,10,0.374074131,-0.249074131,1,0,0,4.5372,Gabbro_rect,4,4.537,1,13,0,13,0,1,,,,,,,,,,,,,
65d514731a78f893b95a8516,SCR,2024-06-25_09h48.35.340,LearnStrategy,2023.2.3,Win32,59.88023952,3,1,15,0.236111111,-0.110185199,1,0,0,1.1912,Gabbro_14,4,14,3,6,1.191,4,14,-0.125,-0.23148151,1,0,0,4.5676,Basalt_rect,2,4.568,0,14,0,14,0,1,,,,,,,,,,,,,
65d514731a78f893b95a8516,SCR,2024-06-25_09h48.35.340,LearnStrategy,2023.2.3,Win32,59.88023952,3,1,16,-0.381481467,0.097222222,1,0,0,0.9391,Andesite_01,1,01,4,2,0.939,1,01,0.069444444,-0.251851908,1,0,0,2.0044,Diorite_rect,3,2.004,0,15,0,15,0,1,,,,,,,,,,,,,
65d514731a78f893b95a8516,SCR,2024-06-25_09h48.35.340,LearnStrategy,2023.2.3,Win32,59.88023952,3,2,1,,,,,,,,5,02,,,,,,,,,,,,,5,1.482,1,,,,,,-0.364814801,-0.399074131,1,0,0,1.4816,Obsidian_rect,0,0,0,0,1,
65d514731a78f893b95a8516,SCR,2024-06-25_09h48.35.340,LearnStrategy,2023.2.3,Win32,59.88023952,3,2,2,,,,,,,,2,11,,,,,,,,,,,,,4,6.028,0,,,,,,0.380555556,-0.240740797,1,0,0,6.0278,Gabbro_rect,1,0,1,0,1,
65d514731a78f893b95a8516,SCR,2024-06-25_09h48.35.340,LearnStrategy,2023.2.3,Win32,59.88023952,3,2,3,,,,,,,,4,12,,,,,,,,,,,,,4,4.917,1,,,,,,0.412963019,-0.246296353,1,0,0,4.9169,Gabbro_rect,2,0,2,0,1,
65d514731a78f893b95a8516,SCR,2024-06-25_09h48.35.340,LearnStrategy,2023.2.3,Win32,59.88023952,3,2,4,,,,,,,,3,10,,,,,,,,,,,,,3,3.879,1,,,,,,0.138888889,-0.252777778,1,0,0,3.8788,Diorite_rect,3,0,3,0,1,
65d514731a78f893b95a8516,SCR,2024-06-25_09h48.35.340,LearnStrategy,2023.2.3,Win32,59.88023952,3,2,5,,,,,,,,1,05,,,,,,,,,,,,,1,5.612,1,,,,,,-0.362962935,-0.238888889,1,0,0,5.6121,Andesite_rect,4,0,4,0,1,
65d514731a78f893b95a8516,SCR,2024-06-25_09h48.35.340,LearnStrategy,2023.2.3,Win32,59.88023952,3,2,6,,,,,,,,6,15,,,,,,,,,,,,,6,3.328,1,,,,,,-0.090740712,-0.394444444,1,0,0,3.3278,Pegmatite_rect,5,0,5,0,1,
65d514731a78f893b95a8516,SCR,2024-06-25_09h48.35.340,LearnStrategy,2023.2.3,Win32,59.88023952,3,2,7,,,,,,,,7,14,,,,,,,,,,,,,7,3.048,1,,,,,,0.118518575,-0.398148176,1,0,0,3.0478,Peridotite_rect,6,0,6,0,1,
65d514731a78f893b95a8516,SCR,2024-06-25_09h48.35.340,LearnStrategy,2023.2.3,Win32,59.88023952,3,2,8,,,,,,,,3,12,,,,,,,,,,,,,7,5.382,0,,,,,,0.126851908,-0.398148176,1,0,0,5.3824,Peridotite_rect,7,0,7,0,1,
65d514731a78f893b95a8516,SCR,2024-06-25_09h48.35.340,LearnStrategy,2023.2.3,Win32,59.88023952,3,2,9,,,,,,,,7,15,,,,,,,,,,,,,3,3.008,0,,,,,,0.138888889,-0.246296353,1,0,0,3.0083,Diorite_rect,8,0,8,0,1,
65d514731a78f893b95a8516,SCR,2024-06-25_09h48.35.340,LearnStrategy,2023.2.3,Win32,59.88023952,3,2,10,,,,,,,,1,14,,,,,,,,,,,,,1,3.19,1,,,,,,-0.339814801,-0.241666667,1,0,0,3.1901,Andesite_rect,9,0,9,0,1,
65d514731a78f893b95a8516,SCR,2024-06-25_09h48.35.340,LearnStrategy,2023.2.3,Win32,59.88023952,3,2,11,,,,,,,,4,09,,,,,,,,,,,,,2,3.815,0,,,,,,-0.04351849,-0.248148176,1,0,0,3.815,Basalt_rect,10,0,10,0,1,
65d514731a78f893b95a8516,SCR,2024-06-25_09h48.35.340,LearnStrategy,2023.2.3,Win32,59.88023952,3,2,12,,,,,,,,5,11,,,,,,,,,,,,,5,1.346,1,,,,,,-0.361111111,-0.405555556,1,0,0,1.3462,Obsidian_rect,11,0,11,0,1,
65d514731a78f893b95a8516,SCR,2024-06-25_09h48.35.340,LearnStrategy,2023.2.3,Win32,59.88023952,3,2,13,,,,,,,,8,05,,,,,,,,,,,,,8,4.44,1,,,,,,0.372222222,-0.395370399,1,0,0,4.4405,Pumice_rect,12,0,12,0,1,
65d514731a78f893b95a8516,SCR,2024-06-25_09h48.35.340,LearnStrategy,2023.2.3,Win32,59.88023952,3,2,14,,,,,,,,8,04,,,,,,,,,,,,,8,1.775,1,,,,,,0.374074131,-0.395370399,1,0,0,1.7753,Pumice_rect,13,0,13,0,1,
65d514731a78f893b95a8516,SCR,2024-06-25_09h48.35.340,LearnStrategy,2023.2.3,Win32,59.88023952,3,2,15,,,,,,,,6,05,,,,,,,,,,,,,6,3.376,1,,,,,,-0.131481425,-0.386111111,1,0,0,3.3759,Pegmatite_rect,14,0,14,0,1,
65d514731a78f893b95a8516,SCR,2024-06-25_09h48.35.340,LearnStrategy,2023.2.3,Win32,59.88023952,3,2,16,,,,,,,,2,05,,,,,,,,,,,,,2,5.486,1,,,,,,-0.108333333,-0.244444444,1,0,0,5.4865,Basalt_rect,15,0,15,0,1,
65d514731a78f893b95a8516,SCR,2024-06-25_09h48.35.340,LearnStrategy,2023.2.3,Win32,59.88023952,4,1,1,-0.122222222,-0.418518575,1,0,0,1.8937,Diorite_11,3,11,1,4,1.894,3,11,0.089814843,-0.258333333,1,0,0,4.389,Diorite_rect,3,4.389,1,0,0,0,0,1,,,,,,,,,,,,,
65d514731a78f893b95a8516,SCR,2024-06-25_09h48.35.340,LearnStrategy,2023.2.3,Win32,59.88023952,4,1,2,0.566666667,-0.120370399,1,0,0,1.1559,Basalt_04,2,04,3,8,1.156,2,04,-0.081481425,-0.237963019,1,0,0,2.1717,Basalt_rect,2,2.172,1,1,0,1,0,1,,,,,,,,,,,,,
65d514731a78f893b95a8516,SCR,2024-06-25_09h48.35.340,LearnStrategy,2023.2.3,Win32,59.88023952,4,1,3,0.053703732,0.389814811,1,0,0,1.8963,Gabbro_03,4,03,6,5,1.896,4,03,0.343518575,-0.25648151,1,0,0,1.6809,Gabbro_rect,4,1.681,1,2,0,2,0,1,,,,,,,,,,,,,
65d514731a78f893b95a8516,SCR,2024-06-25_09h48.35.340,LearnStrategy,2023.2.3,Win32,59.88023952,4,1,4,-0.522222222,0.099074046,1,0,0,1.809,Peridotite_13,7,13,4,1,1.809,7,13,-0.404629601,-0.246296353,1,0,0,5.305,Andesite_rect,1,5.305,0,3,0,3,0,1,,,,,,,,,,,,,
65d514731a78f893b95a8516,SCR,2024-06-25_09h48.35.340,LearnStrategy,2023.2.3,Win32,59.88023952,4,1,5,0.255555556,-0.258333333,1,0,0,1.2889,Pumice_03,8,03,2,6,1.289,8,03,0.390740797,-0.391666667,1,0,0,1.2388,Pumice_rect,8,1.239,1,4,0,4,0,1,,,,,,,,,,,,,
65d514731a78f893b95a8516,SCR,2024-06-25_09h48.35.340,LearnStrategy,2023.2.3,Win32,59.88023952,4,1,6,-0.254629601,-0.254629686,1,0,0,1.1064,Basalt_02,2,02,2,3,1.106,2,02,0.333333333,-0.230555556,1,0,0,2.1529,Gabbro_rect,4,2.153,0,5,0,5,0,1,,,,,,,,,,,,,
65d514731a78f893b95a8516,SCR,2024-06-25_09h48.35.340,LearnStrategy,2023.2.3,Win32,59.88023952,4,1,7,0.189814843,-0.09629631,1,0,0,1.5231,Gabbro_14,4,14,3,6,1.523,4,14,0.350925954,-0.246296353,1,0,0,4.013,Gabbro_rect,4,4.013,1,6,0,6,0,1,,,,,,,,,,,,,
65d514731a78f893b95a8516,SCR,2024-06-25_09h48.35.340,LearnStrategy,2023.2.3,Win32,59.88023952,4,1,8,-0.514814801,-0.408333333,1,0,0,1.7827,Peridotite_05,7,05,1,1,1.783,7,05,0.077777778,-0.233333333,1,0,0,3.1607,Diorite_rect,3,3.161,0,7,0,7,0,1,,,,,,,,,,,,,
65d514731a78f893b95a8516,SCR,2024-06-25_09h48.35.340,LearnStrategy,2023.2.3,Win32,59.88023952,4,1,9,0.393518575,0.098148134,1,0,0,1.0486,Diorite_07,3,07,4,7,1.049,3,07,0.163888889,-0.412037065,1,0,0,1.5522,Peridotite_rect,7,1.552,0,8,0,8,0,1,,,,,,,,,,,,,
65d514731a78f893b95a8516,SCR,2024-06-25_09h48.35.340,LearnStrategy,2023.2.3,Win32,59.88023952,4,1,10,-0.242592578,0.081481467,1,0,0,2.2943,Pumice_14,8,14,4,3,2.294,8,14,0.399074131,-0.380555556,1,0,0,0.9583,Pumice_rect,8,0.958,1,9,0,9,0,1,,,,,,,,,,,,,
65d514731a78f893b95a8516,SCR,2024-06-25_09h48.35.340,LearnStrategy,2023.2.3,Win32,59.88023952,4,1,11,0.045370399,0.199074067,1,0,0,1.2284,Pegmatite_13,6,13,5,5,1.228,6,13,-0.127777778,-0.414814843,1,0,0,1.3901,Pegmatite_rect,6,1.39,1,10,0,10,0,1,,,,,,,,,,,,,
65d514731a78f893b95a8516,SCR,2024-06-25_09h48.35.340,LearnStrategy,2023.2.3,Win32,59.88023952,4,1,12,-0.349074046,0.09351849,1,0,0,1.3723,Andesite_01,1,01,4,2,1.372,1,01,0.049074131,-0.246296353,1,0,0,4.2314,Diorite_rect,3,4.231,0,11,0,11,0,1,,,,,,,,,,,,,
65d514731a78f893b95a8516,SCR,2024-06-25_09h48.35.340,LearnStrategy,2023.2.3,Win32,59.88023952,4,1,13,0.402777778,0.290740734,1,0,0,1.6734,Peridotite_02,7,02,5,7,1.673,7,02,0.175925954,-0.25,1,0,0,1.8816,Diorite_rect,3,1.882,0,12,0,12,0,1,,,,,,,,,,,,,
65d514731a78f893b95a8516,SCR,2024-06-25_09h48.35.340,LearnStrategy,2023.2.3,Win32,59.88023952,4,1,14,0.364814843,-0.066666667,1,0,0,1.3451,Gabbro_01,4,01,3,7,1.345,4,01,0.184259288,-0.243518575,1,0,0,3.0891,Diorite_rect,3,3.089,0,13,0,13,0,1,,,,,,,,,,,,,
65d514731a78f893b95a8516,SCR,2024-06-25_09h48.35.340,LearnStrategy,2023.2.3,Win32,59.88023952,4,1,15,-0.070370314,-0.09629631,1,0,0,0.7767,Diorite_14,3,14,3,4,0.777,3,14,0.078703732,-0.410185242,1,0,0,3.2408,Peridotite_rect,7,3.241,0,14,0,14,0,1,,,,,,,,,,,,,
65d514731a78f893b95a8516,SCR,2024-06-25_09h48.35.340,LearnStrategy,2023.2.3,Win32,59.88023952,4,1,16,-0.221296268,0.237037023,1,0,0,1.8874,Andesite_03,1,03,5,3,1.887,1,03,0.363888889,-0.238888889,1,0,0,2.508,Gabbro_rect,4,2.508,0,15,0,15,0,1,,,,,,,,,,,,,
65d514731a78f893b95a8516,SCR,2024-06-25_09h48.35.340,LearnStrategy,2023.2.3,Win32,59.88023952,4,2,1,,,,,,,,1,04,,,,,,,,,,,,,1,6.192,1,,,,,,-0.358333333,-0.246296353,1,0,0,6.1916,Andesite_rect,0,0,0,0,1,
65d514731a78f893b95a8516,SCR,2024-06-25_09h48.35.340,LearnStrategy,2023.2.3,Win32,59.88023952,4,2,2,,,,,,,,4,13,,,,,,,,,,,,,1,6.473,0,,,,,,-0.358333333,-0.244444444,1,0,0,6.4732,Andesite_rect,1,0,1,0,1,
65d514731a78f893b95a8516,SCR,2024-06-25_09h48.35.340,LearnStrategy,2023.2.3,Win32,59.88023952,4,2,3,,,,,,,,5,14,,,,,,,,,,,,,5,1.355,1,,,,,,-0.327777778,-0.387037065,1,0,0,1.3553,Obsidian_rect,2,0,2,0,1,
65d514731a78f893b95a8516,SCR,2024-06-25_09h48.35.340,LearnStrategy,2023.2.3,Win32,59.88023952,4,2,4,,,,,,,,6,16,,,,,,,,,,,,,6,1.609,1,,,,,,-0.138888889,-0.401851908,1,0,0,1.609,Pegmatite_rect,3,0,3,0,1,
65d514731a78f893b95a8516,SCR,2024-06-25_09h48.35.340,LearnStrategy,2023.2.3,Win32,59.88023952,4,2,5,,,,,,,,2,11,,,,,,,,,,,,,4,7.111,0,,,,,,0.314027863,-0.245370407,1,0,0,7.1112,Gabbro_rect,4,0,4,0,1,
65d514731a78f893b95a8516,SCR,2024-06-25_09h48.35.340,LearnStrategy,2023.2.3,Win32,59.88023952,4,2,6,,,,,,,,4,09,,,,,,,,,,,,,2,5.592,0,,,,,,-0.083194427,-0.260185242,1,0,0,5.5916,Basalt_rect,5,0,5,0,1,
65d514731a78f893b95a8516,SCR,2024-06-25_09h48.35.340,LearnStrategy,2023.2.3,Win32,59.88023952,4,2,7,,,,,,,,2,08,,,,,,,,,,,,,2,4.359,1,,,,,,-0.082268448,-0.260185242,1,0,0,4.3586,Basalt_rect,6,0,6,0,1,
65d514731a78f893b95a8516,SCR,2024-06-25_09h48.35.340,LearnStrategy,2023.2.3,Win32,59.88023952,4,2,8,,,,,,,,8,13,,,,,,,,,,,,,2,2.985,0,,,,,,-0.082268448,-0.260185242,1,0,0,2.9851,Basalt_rect,7,0,7,0,1,
65d514731a78f893b95a8516,SCR,2024-06-25_09h48.35.340,LearnStrategy,2023.2.3,Win32,59.88023952,4,2,9,,,,,,,,7,06,,,,,,,,,,,,,7,3.962,1,,,,,,0.138101883,-0.40092598,1,0,0,3.9618,Peridotite_rect,8,0,8,0,1,
65d514731a78f893b95a8516,SCR,2024-06-25_09h48.35.340,LearnStrategy,2023.2.3,Win32,59.88023952,4,2,10,,,,,,,,7,07,,,,,,,,,,,,,3,2.895,0,,,,,,0.126990814,-0.237963028,1,0,0,2.8948,Diorite_rect,9,0,9,0,1,
65d514731a78f893b95a8516,SCR,2024-06-25_09h48.35.340,LearnStrategy,2023.2.3,Win32,59.88023952,4,2,11,,,,,,,,6,05,,,,,,,,,,,,,6,1.83,1,,,,,,-0.098009186,-0.399074173,1,0,0,1.8296,Pegmatite_rect,10,0,10,0,1,
65d514731a78f893b95a8516,SCR,2024-06-25_09h48.35.340,LearnStrategy,2023.2.3,Win32,59.88023952,4,2,12,,,,,,,,3,12,,,,,,,,,,,,,3,4.009,1,,,,,,0.123286972,-0.263888931,1,0,0,4.0088,Diorite_rect,11,0,11,0,1,
65d514731a78f893b95a8516,SCR,2024-06-25_09h48.35.340,LearnStrategy,2023.2.3,Win32,59.88023952,4,2,13,,,,,,,,8,15,,,,,,,,,,,,,8,3.437,1,,,,,,0.380694504,-0.380555573,1,0,0,3.4369,Pumice_rect,12,0,12,0,1,
65d514731a78f893b95a8516,SCR,2024-06-25_09h48.35.340,LearnStrategy,2023.2.3,Win32,59.88023952,4,2,14,,,,,,,,3,02,,,,,,,,,,,,,1,3.02,0,,,,,,-0.35078701,-0.254629745,1,0,0,3.0203,Andesite_rect,13,0,13,0,1,
65d514731a78f893b95a8516,SCR,2024-06-25_09h48.35.340,LearnStrategy,2023.2.3,Win32,59.88023952,4,2,15,,,,,,,,5,10,,,,,,,,,,,,,5,1.305,1,,,,,,-0.378564796,-0.40092598,1,0,0,1.3051,Obsidian_rect,14,0,14,0,1,
65d514731a78f893b95a8516,SCR,2024-06-25_09h48.35.340,LearnStrategy,2023.2.3,Win32,59.88023952,4,2,16,,,,,,,,1,11,,,,,,,,,,,,,7,4.829,0,,,,,,0.170509338,-0.386111069,1,0,0,4.8286,Peridotite_rect,15,0,15,0,1,
65d514731a78f893b95a8516,SCR,2024-06-25_09h48.35.340,LearnStrategy,2023.2.3,Win32,59.88023952,5,1,1,0.515879517,0.107407379,1,0,0,1.9791,Basalt_14,2,14,4,8,1.979,2,14,-0.070231476,-0.240740814,1,0,0,6.9382,Basalt_rect,2,6.938,1,0,0,0,0,1,,,,,,,,,,,,,
65d514731a78f893b95a8516,SCR,2024-06-25_09h48.35.340,LearnStrategy,2023.2.3,Win32,59.88023952,5,1,2,-0.348009224,0.094444427,1,0,0,1.2217,Andesite_01,1,01,4,2,1.222,1,01,-0.382268486,-0.239814758,1,0,0,4.4507,Andesite_rect,1,4.451,1,1,0,1,0,1,,,,,,,,,,,,,
65d514731a78f893b95a8516,SCR,2024-06-25_09h48.35.340,LearnStrategy,2023.2.3,Win32,59.88023952,5,1,3,-0.086898041,0.376851845,1,0,0,1.686,Andesite_09,1,09,6,4,1.686,1,09,-0.093379593,-0.25092598,1,0,0,3.1296,Basalt_rect,2,3.13,0,2,0,2,0,1,,,,,,,,,,,,,
65d514731a78f893b95a8516,SCR,2024-06-25_09h48.35.340,LearnStrategy,2023.2.3,Win32,59.88023952,5,1,4,0.557546387,0.261111107,1,0,0,1.2792,Gabbro_11,4,11,5,8,1.279,4,11,-0.366527748,-0.262037048,1,0,0,1.7141,Andesite_rect,1,1.714,0,3,0,3,0,1,,,,,,,,,,,,,
65d514731a78f893b95a8516,SCR,2024-06-25_09h48.35.340,LearnStrategy,2023.2.3,Win32,59.88023952,5,1,5,-0.242453766,-0.116666641,1,0,0,0.8823,Diorite_13,3,13,3,3,0.882,3,13,0.076064835,-0.268518524,1,0,0,5.5033,Diorite_rect,3,5.503,1,4,0,4,0,1,,,,,,,,,,,,,
65d514731a78f893b95a8516,SCR,2024-06-25_09h48.35.340,LearnStrategy,2023.2.3,Win32,59.88023952,5,1,6,0.401064911,-0.225,1,0,0,1.2043,Gabbro_10,4,10,2,7,1.204,4,10,-0.103564758,-0.271296387,1,0,0,3.0311,Basalt_rect,2,3.031,0,5,0,5,0,1,,,,,,,,,,,,,
65d514731a78f893b95a8516,SCR,2024-06-25_09h48.35.340,LearnStrategy,2023.2.3,Win32,59.88023952,5,1,7,-0.515601807,0.080555534,1,0,0,4.0891,Peridotite_13,7,13,4,1,4.089,7,13,0.164953766,-0.419444504,1,0,0,3.7213,Peridotite_rect,7,3.721,1,6,0,6,0,1,,,,,,,,,,,,,
65d514731a78f893b95a8516,SCR,2024-06-25_09h48.35.340,LearnStrategy,2023.2.3,Win32,59.88023952,5,1,8,0.507546387,-0.262037048,1,0,0,1.6215,Pegmatite_06,6,06,2,8,1.621,6,06,-0.059120255,-0.410185318,1,0,0,1.6938,Pegmatite_rect,6,1.694,1,7,0,7,0,1,,,,,,,,,,,,,
65d514731a78f893b95a8516,SCR,2024-06-25_09h48.35.340,LearnStrategy,2023.2.3,Win32,59.88023952,5,1,9,0.514027863,0.095370369,1,0,0,1.756,Basalt_14,2,14,4,8,1.756,2,14,-0.150786972,-0.256481552,1,0,0,2.5186,Basalt_rect,2,2.519,1,8,0,8,0,1,,,,,,,,,,,,,
65d514731a78f893b95a8516,SCR,2024-06-25_09h48.35.340,LearnStrategy,2023.2.3,Win32,59.88023952,5,1,10,-0.080416718,-0.226851959,1,0,0,1.1239,Peridotite_12,7,12,2,4,1.124,7,12,0.044583359,-0.392592545,1,0,0,2.1085,Peridotite_rect,7,2.108,1,9,0,9,0,1,,,,,,,,,,,,,
65d514731a78f893b95a8516,SCR,2024-06-25_09h48.35.340,LearnStrategy,2023.2.3,Win32,59.88023952,5,1,11,0.189953766,0.308333321,1,0,0,3.2503,Diorite_08,3,08,5,6,3.25,3,08,0.127916718,-0.386111069,1,0,0,1.0943,Peridotite_rect,7,1.094,0,10,0,10,0,1,,,,,,,,,,,,,
65d514731a78f893b95a8516,SCR,2024-06-25_09h48.35.340,LearnStrategy,2023.2.3,Win32,59.88023952,5,1,12,-0.084120255,-0.37222229,1,0,0,2.7265,Diorite_11,3,11,1,4,2.726,3,11,0.140879669,-0.234259262,1,0,0,1.7553,Diorite_rect,3,1.755,1,11,0,11,0,1,,,,,,,,,,,,,
65d514731a78f893b95a8516,SCR,2024-06-25_09h48.35.340,LearnStrategy,2023.2.3,Win32,59.88023952,5,1,13,0.213101883,-0.09629631,1,0,0,0.9647,Gabbro_14,4,14,3,6,0.965,4,14,-0.081342468,-0.242592621,1,0,0,3.4117,Basalt_rect,2,3.412,0,12,0,12,0,1,,,,,,,,,,,,,
65d514731a78f893b95a8516,SCR,2024-06-25_09h48.35.340,LearnStrategy,2023.2.3,Win32,59.88023952,5,1,14,-0.235046234,0.212037029,1,0,0,1.5468,Andesite_03,1,03,5,3,1.547,1,03,0.089027863,-0.241666718,1,0,0,4.7741,Diorite_rect,3,4.774,0,13,0,13,0,1,,,,,,,,,,,,,
65d514731a78f893b95a8516,SCR,2024-06-25_09h48.35.340,LearnStrategy,2023.2.3,Win32,59.88023952,5,1,15,-0.202638855,0.119444427,1,0,0,1.3696,Pumice_14,8,14,4,3,1.37,8,14,0.3547686,-0.406481552,1,0,0,0.9927,Pumice_rect,8,0.993,1,14,0,14,0,1,,,,,,,,,,,,,
65d514731a78f893b95a8516,SCR,2024-06-25_09h48.35.340,LearnStrategy,2023.2.3,Win32,59.88023952,5,1,16,0.203842621,0.080555534,1,0,0,2.5578,Pumice_16,8,16,4,6,2.558,8,16,0.3547686,-0.412963028,1,0,0,1.1406,Pumice_rect,8,1.141,1,15,0,15,0,1,,,,,,,,,,,,,
65d514731a78f893b95a8516,SCR,2024-06-25_09h48.35.340,LearnStrategy,2023.2.3,Win32,59.88023952,5,2,1,,,,,,,,2,01,,,,,,,,,,,,,4,12.341,0,,,,,,0.412789408,-0.250925954,1,0,0,12.3409,Gabbro_rect,0,0,0,0,1,
65d514731a78f893b95a8516,SCR,2024-06-25_09h48.35.340,LearnStrategy,2023.2.3,Win32,59.88023952,5,2,2,,,,,,,,2,05,,,,,,,,,,,,,2,2.733,1,,,,,,-0.102025477,-0.249074109,1,0,0,2.733,Basalt_rect,1,0,1,0,1,
65d514731a78f893b95a8516,SCR,2024-06-25_09h48.35.340,LearnStrategy,2023.2.3,Win32,59.88023952,5,2,3,,,,,,,,7,14,,,,,,,,,,,,,3,3.368,0,,,,,,0.120196788,-0.252777799,1,0,0,3.3677,Diorite_rect,2,0,2,0,1,
65d514731a78f893b95a8516,SCR,2024-06-25_09h48.35.340,LearnStrategy,2023.2.3,Win32,59.88023952,5,2,4,,,,,,,,6,12,,,,,,,,,,,,,6,2.45,1,,,,,,-0.075173632,-0.40370369,1,0,0,2.45,Pegmatite_rect,3,0,3,0,1,
65d514731a78f893b95a8516,SCR,2024-06-25_09h48.35.340,LearnStrategy,2023.2.3,Win32,59.88023952,5,2,5,,,,,,,,3,16,,,,,,,,,,,,,3,2.676,1,,,,,,0.133159701,-0.260185242,1,0,0,2.6755,Diorite_rect,4,0,4,0,1,
65d514731a78f893b95a8516,SCR,2024-06-25_09h48.35.340,LearnStrategy,2023.2.3,Win32,59.88023952,5,2,6,,,,,,,,4,12,,,,,,,,,,,,,4,2.156,1,,,,,,0.370196788,-0.254629707,1,0,0,2.156,Gabbro_rect,5,0,5,0,1,
65d514731a78f893b95a8516,SCR,2024-06-25_09h48.35.340,LearnStrategy,2023.2.3,Win32,59.88023952,5,2,7,,,,,,,,5,02,,,,,,,,,,,,,5,1.5,1,,,,,,-0.406655089,-0.404629707,1,0,0,1.5004,Obsidian_rect,6,0,6,0,1,
65d514731a78f893b95a8516,SCR,2024-06-25_09h48.35.340,LearnStrategy,2023.2.3,Win32,59.88023952,5,2,8,,,,,,,,6,15,,,,,,,,,,,,,6,1.534,1,,,,,,-0.188136546,-0.386111132,1,0,0,1.534,Pegmatite_rect,7,0,7,0,1,
65d514731a78f893b95a8516,SCR,2024-06-25_09h48.35.340,LearnStrategy,2023.2.3,Win32,59.88023952,5,2,9,,,,,,,,8,02,,,,,,,,,,,,,8,1.601,1,,,,,,0.38964119,-0.405555534,1,0,0,1.6008,Pumice_rect,8,0,8,0,1,
65d514731a78f893b95a8516,SCR,2024-06-25_09h48.35.340,LearnStrategy,2023.2.3,Win32,59.88023952,5,2,10,,,,,,,,8,04,,,,,,,,,,,,,8,1.382,1,,,,,,0.38964119,-0.40370369,1,0,0,1.3825,Pumice_rect,9,0,9,0,1,
65d514731a78f893b95a8516,SCR,2024-06-25_09h48.35.340,LearnStrategy,2023.2.3,Win32,59.88023952,5,2,11,,,,,,,,4,05,,,,,,,,,,,,,1,9.249,0,,,,,,-0.303877322,-0.248148155,1,0,0,9.2495,Andesite_rect,10,0,10,0,1,
65d514731a78f893b95a8516,SCR,2024-06-25_09h48.35.340,LearnStrategy,2023.2.3,Win32,59.88023952,5,2,12,,,,,,,,3,15,,,,,,,,,,,,,3,2.039,1,,,,,,0.149826368,-0.238888868,1,0,0,2.0388,Diorite_rect,11,0,11,0,1,
65d514731a78f893b95a8516,SCR,2024-06-25_09h48.35.340,LearnStrategy,2023.2.3,Win32,59.88023952,5,2,13,,,,,,,,1,02,,,,,,,,,,,,,7,1.542,0,,,,,,0.153530121,-0.406481489,1,0,0,1.5423,Peridotite_rect,12,0,12,0,1,
65d514731a78f893b95a8516,SCR,2024-06-25_09h48.35.340,LearnStrategy,2023.2.3,Win32,59.88023952,5,2,14,,,,,,,,7,15,,,,,,,,,,,,,3,2.935,0,,,,,,0.147974523,-0.25,1,0,0,2.9353,Diorite_rect,13,0,13,0,1,
65d514731a78f893b95a8516,SCR,2024-06-25_09h48.35.340,LearnStrategy,2023.2.3,Win32,59.88023952,5,2,15,,,,,,,,1,14,,,,,,,,,,,,,7,1.958,0,,,,,,0.147048632,-0.394444466,1,0,0,1.9585,Peridotite_rect,14,0,14,0,1,
65d514731a78f893b95a8516,SCR,2024-06-25_09h48.35.340,LearnStrategy,2023.2.3,Win32,59.88023952,5,2,16,,,,,,,,5,04,,,,,,,,,,,,,5,1.337,1,,,,,,-0.376099523,-0.388888868,1,0,0,1.3367,Obsidian_rect,15,0,15,0,1,
65d514731a78f893b95a8516,SCR,2024-06-25_09h48.35.340,LearnStrategy,2023.2.3,Win32,59.88023952,6,1,1,-0.419618066,-0.299074109,1,0,0,4.1961,Obsidian_06,5,06,2,2,4.196,7,05,-0.388136578,-0.412037023,1,0,0,2.9839,Obsidian_rect,5,2.984,1,0,0,0,0,1,,,,,,,,,,,,,
65d514731a78f893b95a8516,SCR,2024-06-25_09h48.35.340,LearnStrategy,2023.2.3,Win32,59.88023952,6,1,2,0.36464119,-0.252777799,1,0,0,8.4317,Gabbro_10,4,10,2,7,8.432,4,10,0.368344879,-0.252777799,1,0,0,0.2769,Gabbro_rect,4,0.277,1,1,0,1,0,1,,,,,,,,,,,,,
65d514731a78f893b95a8516,SCR,2024-06-25_09h48.35.340,LearnStrategy,2023.2.3,Win32,59.88023952,6,1,3,0.441493098,0.216666667,1,0,0,2.3156,Peridotite_02,7,02,5,7,2.316,4,11,0.156307856,-0.260185242,1,0,0,7.6136,Diorite_rect,3,7.614,0,2,0,2,0,1,,,,,,,,,,,,,
65d514731a78f893b95a8516,SCR,2024-06-25_09h48.35.340,LearnStrategy,2023.2.3,Win32,59.88023952,6,1,4,-0.264988391,0.086111101,1,0,0,6.8292,Pumice_14,8,14,4,3,6.829,1,01,0.353530121,-0.401851908,1,0,0,1.2302,Pumice_rect,8,1.23,1,3,0,3,0,1,,,,,,,,,,,,,
65d514731a78f893b95a8516,SCR,2024-06-25_09h48.35.340,LearnStrategy,2023.2.3,Win32,59.88023952,6,1,5,0.070196788,-0.281481489,1,0,0,4.9774,Obsidian_16,5,16,2,5,4.977,5,09,-0.36776619,-0.4,1,0,0,3.3771,Obsidian_rect,5,3.377,1,4,0,4,0,1,,,,,,,,,,,,,
65d514731a78f893b95a8516,SCR,2024-06-25_09h48.35.340,LearnStrategy,2023.2.3,Win32,59.88023952,6,1,6,-0.222395833,0.243518511,1,0,0,6.0783,Andesite_03,1,03,5,3,6.078,1,03,-0.349247678,-0.261111132,1,0,0,14.9995,Andesite_rect,1,14.999,1,5,0,5,0,1,,,,,,,,,,,,,
65d514731a78f893b95a8516,SCR,2024-06-25_09h48.35.340,LearnStrategy,2023.2.3,Win32,59.88023952,6,1,7,0.245196788,0.231481489,1,0,0,12.4926,Diorite_08,3,08,5,6,12.493,1,07,0.116493034,-0.230555534,1,0,0,5.5166,Diorite_rect,3,5.517,1,6,0,6,0,1,,,,,,,,,,,,,
65d514731a78f893b95a8516,SCR,2024-06-25_09h48.35.340,LearnStrategy,2023.2.3,Win32,59.88023952,6,1,8,-0.209432856,-0.226851908,1,0,0,1.777,Basalt_02,2,02,2,3,1.777,2,02,0.38964119,-0.256481489,1,0,0,4.3512,Gabbro_rect,4,4.351,0,7,0,7,0,1,,,,,,,,,,,,,
65d514731a78f893b95a8516,SCR,2024-06-25_09h48.35.340,LearnStrategy,2023.2.3,Win32,59.88023952,6,1,9,0.378530121,-0.229629707,1,0,0,1.4235,Gabbro_10,4,10,2,7,1.423,6,06,-0.073321724,-0.235185242,1,0,0,4.0121,Basalt_rect,2,4.012,0,8,0,8,0,1,,,,,,,,,,,,,
65d514731a78f893b95a8516,SCR,2024-06-25_09h48.35.340,LearnStrategy,2023.2.3,Win32,59.88023952,6,1,10,-0.397395833,-0.242592621,1,0,0,1.2436,Obsidian_06,5,06,2,2,1.244,7,05,-0.378877322,-0.399074109,1,0,0,2.8896,Obsidian_rect,5,2.89,1,9,0,9,0,1,,,,,,,,,,,,,
65d514731a78f893b95a8516,SCR,2024-06-25_09h48.35.340,LearnStrategy,2023.2.3,Win32,59.88023952,6,1,11,0.191493098,-0.116666667,1,0,0,1.0878,Gabbro_14,4,14,3,6,1.088,4,14,0.367419052,-0.242592621,1,0,0,6.8884,Gabbro_rect,4,6.888,1,10,0,10,0,1,,,,,,,,,,,,,
65d514731a78f893b95a8516,SCR,2024-06-25_09h48.35.340,LearnStrategy,2023.2.3,Win32,59.88023952,6,1,12,-0.259432856,0.279629628,1,0,0,3.2504,Andesite_03,1,03,5,3,3.25,8,09,0.048900541,-0.260185242,1,0,0,2.8109,Diorite_rect,3,2.811,0,11,0,11,0,1,,,,,,,,,,,,,
65d514731a78f893b95a8516,SCR,2024-06-25_09h48.35.340,LearnStrategy,2023.2.3,Win32,59.88023952,6,1,13,-0.221469879,-0.10370369,1,0,0,2.1827,Diorite_13,3,13,3,3,2.183,3,13,0.161863454,-0.255555534,1,0,0,2.5827,Diorite_rect,3,2.583,1,12,0,12,0,1,,,,,,,,,,,,,
65d514731a78f893b95a8516,SCR,2024-06-25_09h48.35.340,LearnStrategy,2023.2.3,Win32,59.88023952,6,1,14,-0.0640625,-0.081481489,1,0,0,1.2239,Diorite_14,3,14,3,4,1.224,3,14,0.095196788,-0.230555534,1,0,0,1.9314,Diorite_rect,3,1.931,1,13,0,13,0,1,,,,,,,,,,,,,
65d514731a78f893b95a8516,SCR,2024-06-25_09h48.35.340,LearnStrategy,2023.2.3,Win32,59.88023952,6,1,15,-0.400173601,0.287037023,1,0,0,3.2716,Peridotite_10,7,10,5,2,3.272,7,10,-0.322395833,-0.259259288,1,0,0,4.6808,Andesite_rect,1,4.681,0,14,0,14,0,1,,,,,,,,,,,,,
65d514731a78f893b95a8516,SCR,2024-06-25_09h48.35.340,LearnStrategy,2023.2.3,Win32,59.88023952,6,1,16,0.399826431,-0.060185178,1,0,0,1.8386,Gabbro_01,4,01,3,7,1.839,2,04,0.369270833,-0.245370356,1,0,0,2.469,Gabbro_rect,4,2.469,1,15,0,15,0,1,,,,,,,,,,,,,
65d514731a78f893b95a8516,SCR,2024-06-25_09h48.35.340,LearnStrategy,2023.2.3,Win32,59.88023952,6,2,1,,,,,,,,8,08,,,,,,,,,,,,,8,3.507,1,,,,,,0.38223381,-0.393518575,1,0,0,3.507,Pumice_rect,0,0,0,0,1,
65d514731a78f893b95a8516,SCR,2024-06-25_09h48.35.340,LearnStrategy,2023.2.3,Win32,59.88023952,6,2,2,,,,,,,,4,15,,,,,,,,,,,,,3,2.433,0,,,,,,0.125752322,-0.252777799,1,0,0,2.4328,Diorite_rect,1,0,1,0,1,
65d514731a78f893b95a8516,SCR,2024-06-25_09h48.35.340,LearnStrategy,2023.2.3,Win32,59.88023952,6,2,3,,,,,,,,5,08,,,,,,,,,,,,,5,1.45,1,,,,,,-0.374247678,-0.380555534,1,0,0,1.4505,Obsidian_rect,2,0,2,0,1,
65d514731a78f893b95a8516,SCR,2024-06-25_09h48.35.340,LearnStrategy,2023.2.3,Win32,59.88023952,6,2,4,,,,,,,,5,11,,,,,,,,,,,,,5,2.44,1,,,,,,-0.383506934,-0.394444466,1,0,0,2.4402,Obsidian_rect,3,0,3,0,1,
65d514731a78f893b95a8516,SCR,2024-06-25_09h48.35.340,LearnStrategy,2023.2.3,Win32,59.88023952,6,2,5,,,,,,,,2,16,,,,,,,,,,,,,2,2.488,1,,,,,,-0.0640625,-0.241666667,1,0,0,2.4875,Basalt_rect,4,0,4,0,1,
65d514731a78f893b95a8516,SCR,2024-06-25_09h48.35.340,LearnStrategy,2023.2.3,Win32,59.88023952,6,2,6,,,,,,,,7,08,,,,,,,,,,,,,1,4.36,0,,,,,,-0.332581011,-0.248148155,1,0,0,4.3595,Andesite_rect,5,0,5,0,1,
65d514731a78f893b95a8516,SCR,2024-06-25_09h48.35.340,LearnStrategy,2023.2.3,Win32,59.88023952,6,2,7,,,,,,,,3,10,,,,,,,,,,,,,3,2.923,1,,,,,,0.149826368,-0.237037023,1,0,0,2.9232,Diorite_rect,6,0,6,0,1,
65d514731a78f893b95a8516,SCR,2024-06-25_09h48.35.340,LearnStrategy,2023.2.3,Win32,59.88023952,6,2,8,,,,,,,,6,11,,,,,,,,,,,,,6,1.618,1,,,,,,-0.043692144,-0.402777799,1,0,0,1.6183,Pegmatite_rect,7,0,7,0,1,
65d514731a78f893b95a8516,SCR,2024-06-25_09h48.35.340,LearnStrategy,2023.2.3,Win32,59.88023952,6,2,9,,,,,,,,8,05,,,,,,,,,,,,,8,1.507,1,,,,,,0.35723381,-0.387963041,1,0,0,1.5067,Pumice_rect,8,0,8,0,1,
65d514731a78f893b95a8516,SCR,2024-06-25_09h48.35.340,LearnStrategy,2023.2.3,Win32,59.88023952,6,2,10,,,,,,,,4,16,,,,,,,,,,,,,2,2.266,0,,,,,,-0.080729167,-0.247222201,1,0,0,2.2658,Basalt_rect,9,0,9,0,1,
65d514731a78f893b95a8516,SCR,2024-06-25_09h48.35.340,LearnStrategy,2023.2.3,Win32,59.88023952,6,2,11,,,,,,,,7,16,,,,,,,,,,,,,7,4.369,1,,,,,,0.096122678,-0.412963041,1,0,0,4.3688,Peridotite_rect,10,0,10,0,1,
65d514731a78f893b95a8516,SCR,2024-06-25_09h48.35.340,LearnStrategy,2023.2.3,Win32,59.88023952,6,2,12,,,,,,,,1,16,,,,,,,,,,,,,3,1.595,0,,,,,,0.117418989,-0.271296374,1,0,0,1.5953,Diorite_rect,11,0,11,0,1,
65d514731a78f893b95a8516,SCR,2024-06-25_09h48.35.340,LearnStrategy,2023.2.3,Win32,59.88023952,6,2,13,,,,,,,,6,09,,,,,,,,,,,,,6,7.558,1,,,,,,-0.095543925,-0.405555534,1,0,0,7.5576,Pegmatite_rect,12,0,12,0,1,
65d514731a78f893b95a8516,SCR,2024-06-25_09h48.35.340,LearnStrategy,2023.2.3,Win32,59.88023952,6,2,14,,,,,,,,1,05,,,,,,,,,,,,,1,4.6,1,,,,,,-0.370543989,-0.248148155,1,0,0,4.6003,Andesite_rect,13,0,13,0,1,
65d514731a78f893b95a8516,SCR,2024-06-25_09h48.35.340,LearnStrategy,2023.2.3,Win32,59.88023952,6,2,15,,,,,,,,3,06,,,,,,,,,,,,,3,2.401,1,,,,,,0.102604167,-0.237963041,1,0,0,2.401,Diorite_rect,14,0,14,0,1,
65d514731a78f893b95a8516,SCR,2024-06-25_09h48.35.340,LearnStrategy,2023.2.3,Win32,59.88023952,6,2,16,,,,,,,,2,12,,,,,,,,,,,,,4,2.642,0,,,,,,0.33964119,-0.245370356,1,0,0,2.6417,Gabbro_rect,15,0,15,0,1,
65d514731a78f893b95a8516,SCR,2024-06-25_09h48.35.340,LearnStrategy,2023.2.3,Win32,59.88023952,7,1,1,-0.279803212,0.10370369,1,0,0,5.7777,Pumice_14,8,14,4,3,5.778,8,14,0.365567144,-0.393518575,1,0,0,2.0572,Pumice_rect,8,2.057,1,0,0,0,0,1,,,,,,,,,,,,,
65d514731a78f893b95a8516,SCR,2024-06-25_09h48.35.340,LearnStrategy,2023.2.3,Win32,59.88023952,7,1,2,0.236863454,0.257407411,1,0,0,1.9693,Diorite_08,3,08,5,6,1.969,3,08,0.124826368,-0.254629707,1,0,0,2.3647,Diorite_rect,3,2.365,1,1,0,1,0,1,,,,,,,,,,,,,
65d514731a78f893b95a8516,SCR,2024-06-25_09h48.35.340,LearnStrategy,2023.2.3,Win32,59.88023952,7,1,3,-0.052951368,0.227777767,1,0,0,1.2529,Pegmatite_10,6,10,5,4,1.253,1,09,-0.071469879,-0.385185242,1,0,0,3.5134,Pegmatite_rect,6,3.513,1,2,0,2,0,1,,,,,,,,,,,,,
65d514731a78f893b95a8516,SCR,2024-06-25_09h48.35.340,LearnStrategy,2023.2.3,Win32,59.88023952,7,1,4,-0.057581011,0.30370369,1,0,0,1.6899,Pegmatite_10,6,10,5,4,1.69,1,09,-0.101099459,-0.387037023,1,0,0,1.9336,Pegmatite_rect,6,1.934,1,3,0,3,0,1,,,,,,,,,,,,,
65d514731a78f893b95a8516,SCR,2024-06-25_09h48.35.340,LearnStrategy,2023.2.3,Win32,59.88023952,7,1,5,0.38223381,0.075925922,1,0,0,3.099,Diorite_07,3,07,4,7,3.099,2,14,0.147974523,-0.244444466,1,0,0,3.4986,Diorite_rect,3,3.499,1,4,0,4,0,1,,,,,,,,,,,,,
65d514731a78f893b95a8516,SCR,2024-06-25_09h48.35.340,LearnStrategy,2023.2.3,Win32,59.88023952,7,1,6,0.416493098,0.3,1,0,0,1.3125,Peridotite_02,7,02,5,7,1.313,2,06,0.142418989,-0.396296374,1,0,0,2.4721,Peridotite_rect,7,2.472,1,5,0,5,0,1,,,,,,,,,,,,,
65d514731a78f893b95a8516,SCR,2024-06-25_09h48.35.340,LearnStrategy,2023.2.3,Win32,59.88023952,7,1,7,0.372048569,-0.082407443,1,0,0,1.8134,Gabbro_01,4,01,3,7,1.813,2,04,0.345196788,-0.236111132,1,0,0,4.8798,Gabbro_rect,4,4.88,1,6,0,6,0,1,,,,,,,,,,,,,
65d514731a78f893b95a8516,SCR,2024-06-25_09h48.35.340,LearnStrategy,2023.2.3,Win32,59.88023952,7,1,8,-0.408506934,0.101851813,1,0,0,2.93,Andesite_01,1,01,4,2,2.93,1,01,0.093344943,-0.246296374,1,0,0,3.3507,Diorite_rect,3,3.351,0,7,0,7,0,1,,,,,,,,,,,,,
65d514731a78f893b95a8516,SCR,2024-06-25_09h48.35.340,LearnStrategy,2023.2.3,Win32,59.88023952,7,1,9,0.266493098,0.221296279,1,0,0,1.8631,Diorite_08,3,08,5,6,1.863,7,02,0.145196788,-0.259259288,1,0,0,2.7197,Diorite_rect,3,2.72,1,8,0,8,0,1,,,,,,,,,,,,,
65d514731a78f893b95a8516,SCR,2024-06-25_09h48.35.340,LearnStrategy,2023.2.3,Win32,59.88023952,7,1,10,-0.077025477,0.082407379,1,0,0,1.3636,Gabbro_08,4,08,4,4,1.364,4,08,-0.099247678,-0.234259288,1,0,0,3.5578,Basalt_rect,2,3.558,0,9,0,9,0,1,,,,,,,,,,,,,
65d514731a78f893b95a8516,SCR,2024-06-25_09h48.35.340,LearnStrategy,2023.2.3,Win32,59.88023952,7,1,11,0.427604167,0.261111116,1,0,0,1.6333,Peridotite_02,7,02,5,7,1.633,4,11,0.178530121,-0.237037023,1,0,0,1.9394,Diorite_rect,3,1.939,0,10,0,10,0,1,,,,,,,,,,,,,
65d514731a78f893b95a8516,SCR,2024-06-25_09h48.35.340,LearnStrategy,2023.2.3,Win32,59.88023952,7,1,12,0.284085719,-0.217592621,1,0,0,1.0499,Pumice_03,8,03,2,6,1.05,4,10,0.3609375,-0.399074109,1,0,0,1.5313,Pumice_rect,8,1.531,1,11,0,11,0,1,,,,,,,,,,,,,
65d514731a78f893b95a8516,SCR,2024-06-25_09h48.35.340,LearnStrategy,2023.2.3,Win32,59.88023952,7,1,13,-0.253877322,-0.256481489,1,0,0,1.5574,Basalt_02,2,02,2,3,1.557,3,09,0.395196788,-0.268518575,1,0,0,2.635,Gabbro_rect,4,2.635,0,12,0,12,0,1,,,,,,,,,,,,,
65d514731a78f893b95a8516,SCR,2024-06-25_09h48.35.340,LearnStrategy,2023.2.3,Win32,59.88023952,7,1,14,-0.375173601,0.225925922,1,0,0,2.5377,Peridotite_10,7,10,5,2,2.538,7,10,0.068344943,-0.244444466,1,0,0,2.3832,Diorite_rect,3,2.383,0,13,0,13,0,1,,,,,,,,,,,,,
65d514731a78f893b95a8516,SCR,2024-06-25_09h48.35.340,LearnStrategy,2023.2.3,Win32,59.88023952,7,1,15,-0.379803244,0.1,1,0,0,1.3058,Andesite_01,1,01,4,2,1.306,7,13,-0.347395833,-0.244444466,1,0,0,2.289,Andesite_rect,1,2.289,1,14,0,14,0,1,,,,,,,,,,,,,
65d514731a78f893b95a8516,SCR,2024-06-25_09h48.35.340,LearnStrategy,2023.2.3,Win32,59.88023952,7,1,16,0.097048632,0.265740744,1,0,0,1.8492,Pegmatite_13,6,13,5,5,1.849,4,03,0.032233874,-0.412963041,1,0,0,3.8683,Peridotite_rect,7,3.868,0,15,0,15,0,1,,,,,,,,,,,,,
65d514731a78f893b95a8516,SCR,2024-06-25_09h48.35.340,LearnStrategy,2023.2.3,Win32,59.88023952,7,2,1,,,,,,,,5,11,,,,,,,,,,,,,5,1.277,1,,,,,,-0.352025477,-0.379629707,1,0,0,1.277,Obsidian_rect,0,0,0,0,1,
65d514731a78f893b95a8516,SCR,2024-06-25_09h48.35.340,LearnStrategy,2023.2.3,Win32,59.88023952,7,2,2,,,,,,,,6,12,,,,,,,,,,,,,6,2.673,1,,,,,,-0.170543925,-0.408333333,1,0,0,2.6725,Pegmatite_rect,1,0,1,0,1,
65d514731a78f893b95a8516,SCR,2024-06-25_09h48.35.340,LearnStrategy,2023.2.3,Win32,59.88023952,7,2,3,,,,,,,,5,02,,,,,,,,,,,,,5,2.104,1,,,,,,-0.359432856,-0.405555534,1,0,0,2.1036,Obsidian_rect,2,0,2,0,1,
65d514731a78f893b95a8516,SCR,2024-06-25_09h48.35.340,LearnStrategy,2023.2.3,Win32,59.88023952,7,2,4,,,,,,,,7,07,,,,,,,,,,,,,3,2.497,0,,,,,,0.131307856,-0.248148155,1,0,0,2.4965,Diorite_rect,3,0,3,0,1,
65d514731a78f893b95a8516,SCR,2024-06-25_09h48.35.340,LearnStrategy,2023.2.3,Win32,59.88023952,7,2,5,,,,,,,,4,12,,,,,,,,,,,,,2,1.928,0,,,,,,-0.056655057,-0.232407443,1,0,0,1.928,Basalt_rect,4,0,4,0,1,
65d514731a78f893b95a8516,SCR,2024-06-25_09h48.35.340,LearnStrategy,2023.2.3,Win32,59.88023952,7,2,6,,,,,,,,2,16,,,,,,,,,,,,,2,1.787,1,,,,,,-0.056655057,-0.232407443,1,0,0,1.7866,Basalt_rect,5,0,5,0,1,
65d514731a78f893b95a8516,SCR,2024-06-25_09h48.35.340,LearnStrategy,2023.2.3,Win32,59.88023952,7,2,7,,,,,,,,8,08,,,,,,,,,,,,,8,3.194,1,,,,,,0.376678212,-0.407407443,1,0,0,3.1936,Pumice_rect,6,0,6,0,1,
65d514731a78f893b95a8516,SCR,2024-06-25_09h48.35.340,LearnStrategy,2023.2.3,Win32,59.88023952,7,2,8,,,,,,,,3,06,,,,,,,,,,,,,3,3.146,1,,,,,,0.098900477,-0.251851908,1,0,0,3.1458,Diorite_rect,7,0,7,0,1,
65d514731a78f893b95a8516,SCR,2024-06-25_09h48.35.340,LearnStrategy,2023.2.3,Win32,59.88023952,7,2,9,,,,,,,,2,08,,,,,,,,,,,,,2,2.827,1,,,,,,-0.082581011,-0.254629707,1,0,0,2.8274,Basalt_rect,8,0,8,0,1,
65d514731a78f893b95a8516,SCR,2024-06-25_09h48.35.340,LearnStrategy,2023.2.3,Win32,59.88023952,7,2,10,,,,,,,,6,09,,,,,,,,,,,,,6,1.841,1,,,,,,-0.073321724,-0.409259288,1,0,0,1.8413,Pegmatite_rect,9,0,9,0,1,
65d514731a78f893b95a8516,SCR,2024-06-25_09h48.35.340,LearnStrategy,2023.2.3,Win32,59.88023952,7,2,11,,,,,,,,1,14,,,,,,,,,,,,,7,2.553,0,,,,,,0.123900477,-0.410185242,1,0,0,2.5533,Peridotite_rect,10,0,10,0,1,
65d514731a78f893b95a8516,SCR,2024-06-25_09h48.35.340,LearnStrategy,2023.2.3,Win32,59.88023952,7,2,12,,,,,,,,8,04,,,,,,,,,,,,,8,1.292,1,,,,,,0.33964119,-0.390740776,1,0,0,1.2915,Pumice_rect,11,0,11,0,1,
65d514731a78f893b95a8516,SCR,2024-06-25_09h48.35.340,LearnStrategy,2023.2.3,Win32,59.88023952,7,2,13,,,,,,,,7,15,,,,,,,,,,,,,3,1.324,0,,,,,,0.181307856,-0.249074109,1,0,0,1.3243,Diorite_rect,12,0,12,0,1,
65d514731a78f893b95a8516,SCR,2024-06-25_09h48.35.340,LearnStrategy,2023.2.3,Win32,59.88023952,7,2,14,,,,,,,,1,05,,,,,,,,,,,,,1,4.141,1,,,,,,-0.431655089,-0.252777799,1,0,0,4.1406,Andesite_rect,13,0,13,0,1,
65d514731a78f893b95a8516,SCR,2024-06-25_09h48.35.340,LearnStrategy,2023.2.3,Win32,59.88023952,7,2,15,,,,,,,,4,15,,,,,,,,,,,,,1,8.821,0,,,,,,-0.337210655,-0.235185242,1,0,0,8.821,Andesite_rect,14,0,14,0,1,
65d514731a78f893b95a8516,SCR,2024-06-25_09h48.35.340,LearnStrategy,2023.2.3,Win32,59.88023952,7,2,16,,,,,,,,3,16,,,,,,,,,,,,,3,3.323,1,,,,,,0.073900477,-0.259259288,1,0,0,3.3228,Diorite_rect,15,0,15,0,1,
65d514731a78f893b95a8516,SCR,2024-06-25_09h48.35.340,LearnStrategy,2023.2.3,Win32,59.88023952,8,1,1,-0.380729167,-0.238888868,1,0,0,1.3825,Obsidian_06,5,06,2,2,1.382,7,05,-0.41776619,-0.413888868,1,0,0,0.8415,Obsidian_rect,5,0.841,1,0,0,0,0,1,,,,,,,,,,,,,
65d514731a78f893b95a8516,SCR,2024-06-25_09h48.35.340,LearnStrategy,2023.2.3,Win32,59.88023952,8,1,2,0.196122742,-0.104629644,1,0,0,1.4407,Gabbro_14,4,14,3,6,1.441,4,14,0.379456075,-0.270370356,1,0,0,4.8664,Gabbro_rect,4,4.866,1,1,0,1,0,1,,,,,,,,,,,,,
65d514731a78f893b95a8516,SCR,2024-06-25_09h48.35.340,LearnStrategy,2023.2.3,Win32,59.88023952,8,1,3,-0.557581011,-0.089814822,1,0,0,1.3524,Andesite_06,1,06,3,1,1.352,1,06,-0.332581011,-0.234259288,1,0,0,4.0347,Andesite_rect,1,4.035,1,2,0,2,0,1,,,,,,,,,,,,,
65d514731a78f893b95a8516,SCR,2024-06-25_09h48.35.340,LearnStrategy,2023.2.3,Win32,59.88023952,8,1,4,-0.230729167,-0.225925954,1,0,0,2.3008,Basalt_02,2,02,2,3,2.301,2,02,-0.117766126,-0.236111132,1,0,0,1.6256,Basalt_rect,2,1.626,1,3,0,3,0,1,,,,,,,,,,,,,
65d514731a78f893b95a8516,SCR,2024-06-25_09h48.35.340,LearnStrategy,2023.2.3,Win32,59.88023952,8,1,5,0.195196788,-0.074074109,1,0,0,1.0066,Gabbro_14,4,14,3,6,1.007,4,14,0.354456075,-0.258333333,1,0,0,6.0059,Gabbro_rect,4,6.006,1,4,0,4,0,1,,,,,,,,,,,,,
65d514731a78f893b95a8516,SCR,2024-06-25_09h48.35.340,LearnStrategy,2023.2.3,Win32,59.88023952,8,1,6,-0.248321724,0.287962961,1,0,0,1.2414,Andesite_03,1,03,5,3,1.241,8,09,-0.366840267,-0.248148155,1,0,0,3.3475,Andesite_rect,1,3.348,1,5,0,5,0,1,,,,,,,,,,,,,
65d514731a78f893b95a8516,SCR,2024-06-25_09h48.35.340,LearnStrategy,2023.2.3,Win32,59.88023952,8,1,7,0.201678212,-0.120370356,1,0,0,0.9289,Gabbro_14,4,14,3,6,0.929,4,01,0.348900477,-0.257407443,1,0,0,2.7614,Gabbro_rect,4,2.761,1,6,0,6,0,1,,,,,,,,,,,,,
65d514731a78f893b95a8516,SCR,2024-06-25_09h48.35.340,LearnStrategy,2023.2.3,Win32,59.88023952,8,1,8,-0.350173632,0.221296279,1,0,0,1.2134,Peridotite_10,7,10,5,2,1.213,7,10,0.152604167,-0.261111132,1,0,0,2.2841,Diorite_rect,3,2.284,0,7,0,7,0,1,,,,,,,,,,,,,
65d514731a78f893b95a8516,SCR,2024-06-25_09h48.35.340,LearnStrategy,2023.2.3,Win32,59.88023952,8,1,9,0.061863454,0.281481473,1,0,0,1.2534,Pegmatite_13,6,13,5,5,1.253,4,03,-0.101099459,-0.387037023,1,0,0,1.9141,Pegmatite_rect,6,1.914,1,8,0,8,0,1,,,,,,,,,,,,,
65d514731a78f893b95a8516,SCR,2024-06-25_09h48.35.340,LearnStrategy,2023.2.3,Win32,59.88023952,8,1,10,-0.523321756,-0.099074109,1,0,0,1.4267,Andesite_06,1,06,3,1,1.427,1,06,-0.374247678,-0.244444466,1,0,0,4.2229,Andesite_rect,1,4.223,1,9,0,9,0,1,,,,,,,,,,,,,
65d514731a78f893b95a8516,SCR,2024-06-25_09h48.35.340,LearnStrategy,2023.2.3,Win32,59.88023952,8,1,11,-0.385358779,0.081481489,1,0,0,1.462,Andesite_01,1,01,4,2,1.462,7,13,-0.446469879,-0.236111132,1,0,0,2.4971,Andesite_rect,1,2.497,1,10,0,10,0,1,,,,,,,,,,,,,
65d514731a78f893b95a8516,SCR,2024-06-25_09h48.35.340,LearnStrategy,2023.2.3,Win32,59.88023952,8,1,12,-0.104803212,0.240740744,1,0,0,2.5467,Pegmatite_10,6,10,5,4,2.547,1,03,-0.061284701,-0.404629707,1,0,0,5.5031,Pegmatite_rect,6,5.503,1,11,0,11,0,1,,,,,,,,,,,,,
65d514731a78f893b95a8516,SCR,2024-06-25_09h48.35.340,LearnStrategy,2023.2.3,Win32,59.88023952,8,1,13,-0.3640625,-0.062962977,1,0,0,1.381,Pegmatite_07,6,07,3,2,1.381,6,07,0.061863454,-0.396296374,1,0,0,1.9053,Peridotite_rect,7,1.905,0,12,0,12,0,1,,,,,,,,,,,,,
65d514731a78f893b95a8516,SCR,2024-06-25_09h48.35.340,LearnStrategy,2023.2.3,Win32,59.88023952,8,1,14,0.066493034,0.26944445,1,0,0,1.6087,Pegmatite_13,6,13,5,5,1.609,3,08,-0.101099459,-0.387037023,1,0,0,1.2006,Pegmatite_rect,6,1.201,1,13,0,13,0,1,,,,,,,,,,,,,
65d514731a78f893b95a8516,SCR,2024-06-25_09h48.35.340,LearnStrategy,2023.2.3,Win32,59.88023952,8,1,15,0.411863454,0.081481489,1,0,0,1.3364,Diorite_07,3,07,4,7,1.336,2,14,0.156307856,-0.407407443,1,0,0,1.8815,Peridotite_rect,7,1.881,0,14,0,14,0,1,,,,,,,,,,,,,
65d514731a78f893b95a8516,SCR,2024-06-25_09h48.35.340,LearnStrategy,2023.2.3,Win32,59.88023952,8,1,16,-0.354803212,0.083333333,1,0,0,1.4944,Andesite_01,1,01,4,2,1.494,7,13,-0.452025445,-0.260185242,1,0,0,1.0492,Andesite_rect,1,1.049,1,15,0,15,0,1,,,,,,,,,,,,,
65d514731a78f893b95a8516,SCR,2024-06-25_09h48.35.340,LearnStrategy,2023.2.3,Win32,59.88023952,8,2,1,,,,,,,,1,16,,,,,,,,,,,,,3,9.453,0,,,,,,0.124826368,-0.258333333,1,0,0,9.4531,Diorite_rect,0,0,0,0,1,
65d514731a78f893b95a8516,SCR,2024-06-25_09h48.35.340,LearnStrategy,2023.2.3,Win32,59.88023952,8,2,2,,,,,,,,3,12,,,,,,,,,,,,,3,2.436,1,,,,,,0.124826368,-0.257407443,1,0,0,2.4358,Diorite_rect,1,0,1,0,1,
65d514731a78f893b95a8516,SCR,2024-06-25_09h48.35.340,LearnStrategy,2023.2.3,Win32,59.88023952,8,2,3,,,,,,,,5,08,,,,,,,,,,,,,5,1.299,1,,,,,,-0.395543989,-0.37870369,1,0,0,1.2988,Obsidian_rect,2,0,2,0,1,
65d514731a78f893b95a8516,SCR,2024-06-25_09h48.35.340,LearnStrategy,2023.2.3,Win32,59.88023952,8,2,4,,,,,,,,8,05,,,,,,,,,,,,,8,1.4,1,,,,,,0.404456075,-0.412963041,1,0,0,1.4004,Pumice_rect,3,0,3,0,1,
65d514731a78f893b95a8516,SCR,2024-06-25_09h48.35.340,LearnStrategy,2023.2.3,Win32,59.88023952,8,2,5,,,,,,,,4,13,,,,,,,,,,,,,2,7.537,0,,,,,,-0.114988391,-0.263888868,1,0,0,7.5365,Basalt_rect,4,0,4,0,1,
65d514731a78f893b95a8516,SCR,2024-06-25_09h48.35.340,LearnStrategy,2023.2.3,Win32,59.88023952,8,2,6,,,,,,,,1,11,,,,,,,,,,,,,7,3.525,0,,,,,,0.204456075,-0.4,1,0,0,3.5247,Peridotite_rect,5,0,5,0,1,
65d514731a78f893b95a8516,SCR,2024-06-25_09h48.35.340,LearnStrategy,2023.2.3,Win32,59.88023952,8,2,7,,,,,,,,2,11,,,,,,,,,,,,,8,1.421,0,,,,,,0.355381902,-0.389814822,1,0,0,1.4213,Pumice_rect,6,0,6,0,1,
65d514731a78f893b95a8516,SCR,2024-06-25_09h48.35.340,LearnStrategy,2023.2.3,Win32,59.88023952,8,2,8,,,,,,,,8,13,,,,,,,,,,,,,8,0.99,1,,,,,,0.355381902,-0.389814822,1,0,0,0.9901,Pumice_rect,7,0,7,0,1,
65d514731a78f893b95a8516,SCR,2024-06-25_09h48.35.340,LearnStrategy,2023.2.3,Win32,59.88023952,8,2,9,,,,,,,,5,10,,,,,,,,,,,,,5,1.23,1,,,,,,-0.345543989,-0.385185242,1,0,0,1.2304,Obsidian_rect,8,0,8,0,1,
65d514731a78f893b95a8516,SCR,2024-06-25_09h48.35.340,LearnStrategy,2023.2.3,Win32,59.88023952,8,2,10,,,,,,,,6,11,,,,,,,,,,,,,6,1.341,1,,,,,,-0.173321724,-0.404629707,1,0,0,1.3414,Pegmatite_rect,9,0,9,0,1,
65d514731a78f893b95a8516,SCR,2024-06-25_09h48.35.340,LearnStrategy,2023.2.3,Win32,59.88023952,8,2,11,,,,,,,,2,01,,,,,,,,,,,,,2,2.354,1,,,,,,-0.120543925,-0.270370356,1,0,0,2.3536,Basalt_rect,10,0,10,0,1,
65d514731a78f893b95a8516,SCR,2024-06-25_09h48.35.340,LearnStrategy,2023.2.3,Win32,59.88023952,8,2,12,,,,,,,,4,09,,,,,,,,,,,,,2,6.103,0,,,,,,-0.116840299,-0.269444466,1,0,0,6.1032,Basalt_rect,11,0,11,0,1,
65d514731a78f893b95a8516,SCR,2024-06-25_09h48.35.340,LearnStrategy,2023.2.3,Win32,59.88023952,8,2,13,,,,,,,,7,14,,,,,,,,,,,,,1,4.197,0,,,,,,-0.347395833,-0.248148155,1,0,0,4.1968,Andesite_rect,12,0,12,0,1,
65d514731a78f893b95a8516,SCR,2024-06-25_09h48.35.340,LearnStrategy,2023.2.3,Win32,59.88023952,8,2,14,,,,,,,,7,06,,,,,,,,,,,,,6,2.275,0,,,,,,-0.134432793,-0.401851908,1,0,0,2.2747,Pegmatite_rect,13,0,13,0,1,
65d514731a78f893b95a8516,SCR,2024-06-25_09h48.35.340,LearnStrategy,2023.2.3,Win32,59.88023952,8,2,15,,,,,,,,6,15,,,,,,,,,,,,,6,0.973,1,,,,,,-0.134432793,-0.401851908,1,0,0,0.9728,Pegmatite_rect,14,0,14,0,1,
65d514731a78f893b95a8516,SCR,2024-06-25_09h48.35.340,LearnStrategy,2023.2.3,Win32,59.88023952,8,2,16,,,,,,,,3,10,,,,,,,,,,,,,3,2.597,1,,,,,,0.153530121,-0.259259288,1,0,0,2.5974,Diorite_rect,15,0,15,0,1,
65d514731a78f893b95a8516,SCR,2024-06-25_09h48.35.340,LearnStrategy,2023.2.3,Win32,59.88023952,9,1,1,0.216493098,-0.412037023,1,0,0,2.7451,Peridotite_04,7,04,1,6,2.745,7,04,0.144270833,-0.394444466,1,0,0,41.9955,Peridotite_rect,7,41.995,1,0,0,0,0,1,,,,,,,,,,,,,
65d514731a78f893b95a8516,SCR,2024-06-25_09h48.35.340,LearnStrategy,2023.2.3,Win32,59.88023952,9,1,2,-0.378877322,0.09351848,1,0,0,1.7255,Andesite_01,1,01,4,2,1.726,1,01,-0.374247678,-0.236111132,1,0,0,1.0662,Andesite_rect,1,1.066,1,1,0,1,0,1,,,,,,,,,,,,,
65d514731a78f893b95a8516,SCR,2024-06-25_09h48.35.340,LearnStrategy,2023.2.3,Win32,59.88023952,9,1,3,-0.052951368,0.115740712,1,0,0,1.0004,Gabbro_08,4,08,4,4,1,4,08,0.43964119,-0.244444466,1,0,0,6.4356,Gabbro_rect,4,6.436,1,2,0,2,0,1,,,,,,,,,,,,,
65d514731a78f893b95a8516,SCR,2024-06-25_09h48.35.340,LearnStrategy,2023.2.3,Win32,59.88023952,9,1,4,0.385011546,-0.111111132,1,0,0,1.2021,Gabbro_01,4,01,3,7,1.202,2,04,0.372048569,-0.249074109,1,0,0,3.3561,Gabbro_rect,4,3.356,1,3,0,3,0,1,,,,,,,,,,,,,
65d514731a78f893b95a8516,SCR,2024-06-25_09h48.35.340,LearnStrategy,2023.2.3,Win32,59.88023952,9,1,5,0.243344879,0.248148139,1,0,0,1.981,Diorite_08,3,08,5,6,1.981,7,02,0.128530121,-0.263888868,1,0,0,3.1444,Diorite_rect,3,3.144,1,4,0,4,0,1,,,,,,,,,,,,,
65d514731a78f893b95a8516,SCR,2024-06-25_09h48.35.340,LearnStrategy,2023.2.3,Win32,59.88023952,9,1,6,0.244270833,-0.116666667,1,0,0,1.8805,Gabbro_14,4,14,3,6,1.881,4,10,-0.103877258,-0.247222201,1,0,0,3.1531,Basalt_rect,2,3.153,0,5,0,5,0,1,,,,,,,,,,,,,
65d514731a78f893b95a8516,SCR,2024-06-25_09h48.35.340,LearnStrategy,2023.2.3,Win32,59.88023952,9,1,7,0.375752385,0.091666667,1,0,0,1.2292,Diorite_07,3,07,4,7,1.229,2,14,0.144270833,-0.4,1,0,0,2.2033,Peridotite_rect,7,2.203,0,6,0,6,0,1,,,,,,,,,,,,,
65d514731a78f893b95a8516,SCR,2024-06-25_09h48.35.340,LearnStrategy,2023.2.3,Win32,59.88023952,9,1,8,0.213715235,-0.405555534,1,0,0,4.7767,Peridotite_04,7,04,1,6,4.777,7,04,0.163715299,-0.414814822,1,0,0,1.8072,Peridotite_rect,7,1.807,1,7,0,7,0,1,,,,,,,,,,,,,
65d514731a78f893b95a8516,SCR,2024-06-25_09h48.35.340,LearnStrategy,2023.2.3,Win32,59.88023952,9,1,9,-0.251099523,0.246296295,1,0,0,2.2387,Andesite_03,1,03,5,3,2.239,8,09,-0.364988422,-0.240740776,1,0,0,2.8155,Andesite_rect,1,2.815,1,8,0,8,0,1,,,,,,,,,,,,,
65d514731a78f893b95a8516,SCR,2024-06-25_09h48.35.340,LearnStrategy,2023.2.3,Win32,59.88023952,9,1,10,0.373900477,-0.226851908,1,0,0,1.6408,Gabbro_10,4,10,2,7,1.641,4,10,-0.066840299,-0.234259288,1,0,0,1.7916,Basalt_rect,2,1.792,0,9,0,9,0,1,,,,,,,,,,,,,
65d514731a78f893b95a8516,SCR,2024-06-25_09h48.35.340,LearnStrategy,2023.2.3,Win32,59.88023952,9,1,11,0.368344879,-0.245370356,1,0,0,1.2809,Gabbro_10,4,10,2,7,1.281,6,06,0.411863454,-0.255555534,1,0,0,1.5441,Gabbro_rect,4,1.544,1,10,0,10,0,1,,,,,,,,,,,,,
65d514731a78f893b95a8516,SCR,2024-06-25_09h48.35.340,LearnStrategy,2023.2.3,Win32,59.88023952,9,1,12,-0.073321724,-0.282407443,1,0,0,1.2487,Peridotite_12,7,12,2,4,1.249,3,11,0.097974523,-0.252777799,1,0,0,1.5907,Diorite_rect,3,1.591,0,11,0,11,0,1,,,,,,,,,,,,,
65d514731a78f893b95a8516,SCR,2024-06-25_09h48.35.340,LearnStrategy,2023.2.3,Win32,59.88023952,9,1,13,-0.084432793,0.250925922,1,0,0,2.2511,Pegmatite_10,6,10,5,4,2.251,1,03,-0.146469879,-0.412963041,1,0,0,1.5433,Pegmatite_rect,6,1.543,1,12,0,12,0,1,,,,,,,,,,,,,
65d514731a78f893b95a8516,SCR,2024-06-25_09h48.35.340,LearnStrategy,2023.2.3,Win32,59.88023952,9,1,14,-0.377951399,0.085185146,1,0,0,1.4937,Andesite_01,1,01,4,2,1.494,1,01,-0.378877322,-0.243518575,1,0,0,0.9928,Andesite_rect,1,0.993,1,13,0,13,0,1,,,,,,,,,,,,,
65d514731a78f893b95a8516,SCR,2024-06-25_09h48.35.340,LearnStrategy,2023.2.3,Win32,59.88023952,9,1,15,0.400752385,0.263888884,1,0,0,1.9647,Peridotite_02,7,02,5,7,1.965,4,11,0.143344943,-0.397222201,1,0,0,2.7209,Peridotite_rect,7,2.721,1,14,0,14,0,1,,,,,,,,,,,,,
65d514731a78f893b95a8516,SCR,2024-06-25_09h48.35.340,LearnStrategy,2023.2.3,Win32,59.88023952,9,1,16,-0.414988422,-0.105555534,1,0,0,3.0693,Pegmatite_07,6,07,3,2,3.069,7,13,-0.162210592,-0.404629707,1,0,0,1.5209,Pegmatite_rect,6,1.521,1,15,0,15,0,1,,,,,,,,,,,,,
65d514731a78f893b95a8516,SCR,2024-06-25_09h48.35.340,LearnStrategy,2023.2.3,Win32,59.88023952,9,2,1,,,,,,,,2,12,,,,,,,,,,,,,2,7.554,1,,,,,,-0.118692144,-0.233333333,1,0,0,7.5543,Basalt_rect,0,0,0,0,1,
65d514731a78f893b95a8516,SCR,2024-06-25_09h48.35.340,LearnStrategy,2023.2.3,Win32,59.88023952,9,2,2,,,,,,,,8,02,,,,,,,,,,,,,8,1.675,1,,,,,,0.344270833,-0.391666667,1,0,0,1.6755,Pumice_rect,1,0,1,0,1,
65d514731a78f893b95a8516,SCR,2024-06-25_09h48.35.340,LearnStrategy,2023.2.3,Win32,59.88023952,9,2,3,,,,,,,,4,16,,,,,,,,,,,,,2,2.153,0,,,,,,-0.075173632,-0.242592621,1,0,0,2.1533,Basalt_rect,2,0,2,0,1,
65d514731a78f893b95a8516,SCR,2024-06-25_09h48.35.340,LearnStrategy,2023.2.3,Win32,59.88023952,9,2,4,,,,,,,,6,16,,,,,,,,,,,,,6,1.826,1,,,,,,-0.105729167,-0.418518575,1,0,0,1.8262,Pegmatite_rect,3,0,3,0,1,
65d514731a78f893b95a8516,SCR,2024-06-25_09h48.35.340,LearnStrategy,2023.2.3,Win32,59.88023952,9,2,5,,,,,,,,7,16,,,,,,,,,,,,,1,11.041,0,,,,,,-0.36776619,-0.243518575,1,0,0,11.0406,Andesite_rect,4,0,4,0,1,
65d514731a78f893b95a8516,SCR,2024-06-25_09h48.35.340,LearnStrategy,2023.2.3,Win32,59.88023952,9,2,6,,,,,,,,3,02,,,,,,,,,,,,,3,3.619,1,,,,,,0.129456011,-0.248148155,1,0,0,3.6193,Diorite_rect,5,0,5,0,1,
65d514731a78f893b95a8516,SCR,2024-06-25_09h48.35.340,LearnStrategy,2023.2.3,Win32,59.88023952,9,2,7,,,,,,,,3,15,,,,,,,,,,,,,3,2.205,1,,,,,,0.129456011,-0.246296374,1,0,0,2.205,Diorite_rect,6,0,6,0,1,
65d514731a78f893b95a8516,SCR,2024-06-25_09h48.35.340,LearnStrategy,2023.2.3,Win32,59.88023952,9,2,8,,,,,,,,2,05,,,,,,,,,,,,,2,1.588,1,,,,,,-0.084432793,-0.263888868,1,0,0,1.5876,Basalt_rect,7,0,7,0,1,
65d514731a78f893b95a8516,SCR,2024-06-25_09h48.35.340,LearnStrategy,2023.2.3,Win32,59.88023952,9,2,9,,,,,,,,8,15,,,,,,,,,,,,,8,1.532,1,,,,,,0.349826431,-0.409259288,1,0,0,1.5319,Pumice_rect,8,0,8,0,1,
65d514731a78f893b95a8516,SCR,2024-06-25_09h48.35.340,LearnStrategy,2023.2.3,Win32,59.88023952,9,2,10,,,,,,,,5,14,,,,,,,,,,,,,5,1.451,1,,,,,,-0.374247678,-0.415740776,1,0,0,1.4511,Obsidian_rect,9,0,9,0,1,
65d514731a78f893b95a8516,SCR,2024-06-25_09h48.35.340,LearnStrategy,2023.2.3,Win32,59.88023952,9,2,11,,,,,,,,5,04,,,,,,,,,,,,,5,0.745,1,,,,,,-0.372395833,-0.414814822,1,0,0,0.7451,Obsidian_rect,10,0,10,0,1,
65d514731a78f893b95a8516,SCR,2024-06-25_09h48.35.340,LearnStrategy,2023.2.3,Win32,59.88023952,9,2,12,,,,,,,,1,04,,,,,,,,,,,,,3,4.911,0,,,,,,0.104456011,-0.236111132,1,0,0,4.911,Diorite_rect,11,0,11,0,1,
65d514731a78f893b95a8516,SCR,2024-06-25_09h48.35.340,LearnStrategy,2023.2.3,Win32,59.88023952,9,2,13,,,,,,,,6,05,,,,,,,,,,,,,6,1.732,1,,,,,,-0.100173632,-0.404629707,1,0,0,1.7319,Pegmatite_rect,12,0,12,0,1,
65d514731a78f893b95a8516,SCR,2024-06-25_09h48.35.340,LearnStrategy,2023.2.3,Win32,59.88023952,9,2,14,,,,,,,,4,05,,,,,,,,,,,,,4,3.778,1,,,,,,0.377604167,-0.250925954,1,0,0,3.778,Gabbro_rect,13,0,13,0,1,
65d514731a78f893b95a8516,SCR,2024-06-25_09h48.35.340,LearnStrategy,2023.2.3,Win32,59.88023952,9,2,15,,,,,,,,7,08,,,,,,,,,,,,,3,2.27,0,,,,,,0.178530121,-0.262037023,1,0,0,2.2696,Diorite_rect,14,0,14,0,1,
65d514731a78f893b95a8516,SCR,2024-06-25_09h48.35.340,LearnStrategy,2023.2.3,Win32,59.88023952,9,2,16,,,,,,,,1,02,,,,,,,,,,,,,1,2.245,1,,,,,,-0.326099523,-0.257407443,1,0,0,2.2447,Andesite_rect,15,0,15,0,1,
65d514731a78f893b95a8516,SCR,2024-06-25_09h48.35.340,LearnStrategy,2023.2.3,Win32,59.88023952,,,,,,,,,,,,,,,,,,,,,,,,,,,,,,,,,,,,,,,,,,,,,1
65d514731a78f893b95a8516,SCR,2024-06-25_09h48.35.340,LearnStrategy,2023.2.3,Win32,59.88023952,,,,,,,,,,,,,,,,,,,,,,,,,,,,,,,,,,,,,,,,,,,,,
65d514731a78f893b95a8516,SCR,2024-06-25_09h48.35.340,LearnStrategy,2023.2.3,Win32,59.88023952,,,,,,,,,,,7,05,1,1,,,,,,,,,,,,,,,,,,,,,,,,,,,,,,,
65d514731a78f893b95a8516,SCR,2024-06-25_09h48.35.340,LearnStrategy,2023.2.3,Win32,59.88023952,,,,,,,,,,,3,09,1,2,,,,,,,,,,,,,,,,,,,,,,,,,,,,,,,
65d514731a78f893b95a8516,SCR,2024-06-25_09h48.35.340,LearnStrategy,2023.2.3,Win32,59.88023952,,,,,,,,,,,5,07,1,3,,,,,,,,,,,,,,,,,,,,,,,,,,,,,,,
65d514731a78f893b95a8516,SCR,2024-06-25_09h48.35.340,LearnStrategy,2023.2.3,Win32,59.88023952,,,,,,,,,,,3,11,1,4,,,,,,,,,,,,,,,,,,,,,,,,,,,,,,,
65d514731a78f893b95a8516,SCR,2024-06-25_09h48.35.340,LearnStrategy,2023.2.3,Win32,59.88023952,,,,,,,,,,,5,09,1,5,,,,,,,,,,,,,,,,,,,,,,,,,,,,,,,
65d514731a78f893b95a8516,SCR,2024-06-25_09h48.35.340,LearnStrategy,2023.2.3,Win32,59.88023952,,,,,,,,,,,7,04,1,6,,,,,,,,,,,,,,,,,,,,,,,,,,,,,,,
65d514731a78f893b95a8516,SCR,2024-06-25_09h48.35.340,LearnStrategy,2023.2.3,Win32,59.88023952,,,,,,,,,,,1,10,1,7,,,,,,,,,,,,,,,,,,,,,,,,,,,,,,,
65d514731a78f893b95a8516,SCR,2024-06-25_09h48.35.340,LearnStrategy,2023.2.3,Win32,59.88023952,,,,,,,,,,,2,10,1,8,,,,,,,,,,,,,,,,,,,,,,,,,,,,,,,
65d514731a78f893b95a8516,SCR,2024-06-25_09h48.35.340,LearnStrategy,2023.2.3,Win32,59.88023952,,,,,,,,,,,5,05,2,1,,,,,,,,,,,,,,,,,,,,,,,,,,,,,,,
65d514731a78f893b95a8516,SCR,2024-06-25_09h48.35.340,LearnStrategy,2023.2.3,Win32,59.88023952,,,,,,,,,,,5,06,2,2,,,,,,,,,,,,,,,,,,,,,,,,,,,,,,,
65d514731a78f893b95a8516,SCR,2024-06-25_09h48.35.340,LearnStrategy,2023.2.3,Win32,59.88023952,,,,,,,,,,,2,02,2,3,,,,,,,,,,,,,,,,,,,,,,,,,,,,,,,
65d514731a78f893b95a8516,SCR,2024-06-25_09h48.35.340,LearnStrategy,2023.2.3,Win32,59.88023952,,,,,,,,,,,7,12,2,4,,,,,,,,,,,,,,,,,,,,,,,,,,,,,,,
65d514731a78f893b95a8516,SCR,2024-06-25_09h48.35.340,LearnStrategy,2023.2.3,Win32,59.88023952,,,,,,,,,,,5,16,2,5,,,,,,,,,,,,,,,,,,,,,,,,,,,,,,,
65d514731a78f893b95a8516,SCR,2024-06-25_09h48.35.340,LearnStrategy,2023.2.3,Win32,59.88023952,,,,,,,,,,,8,03,2,6,,,,,,,,,,,,,,,,,,,,,,,,,,,,,,,
65d514731a78f893b95a8516,SCR,2024-06-25_09h48.35.340,LearnStrategy,2023.2.3,Win32,59.88023952,,,,,,,,,,,4,10,2,7,,,,,,,,,,,,,,,,,,,,,,,,,,,,,,,
65d514731a78f893b95a8516,SCR,2024-06-25_09h48.35.340,LearnStrategy,2023.2.3,Win32,59.88023952,,,,,,,,,,,6,06,2,8,,,,,,,,,,,,,,,,,,,,,,,,,,,,,,,
65d514731a78f893b95a8516,SCR,2024-06-25_09h48.35.340,LearnStrategy,2023.2.3,Win32,59.88023952,,,,,,,,,,,1,06,3,1,,,,,,,,,,,,,,,,,,,,,,,,,,,,,,,
65d514731a78f893b95a8516,SCR,2024-06-25_09h48.35.340,LearnStrategy,2023.2.3,Win32,59.88023952,,,,,,,,,,,6,07,3,2,,,,,,,,,,,,,,,,,,,,,,,,,,,,,,,
65d514731a78f893b95a8516,SCR,2024-06-25_09h48.35.340,LearnStrategy,2023.2.3,Win32,59.88023952,,,,,,,,,,,3,13,3,3,,,,,,,,,,,,,,,,,,,,,,,,,,,,,,,
65d514731a78f893b95a8516,SCR,2024-06-25_09h48.35.340,LearnStrategy,2023.2.3,Win32,59.88023952,,,,,,,,,,,3,14,3,4,,,,,,,,,,,,,,,,,,,,,,,,,,,,,,,
65d514731a78f893b95a8516,SCR,2024-06-25_09h48.35.340,LearnStrategy,2023.2.3,Win32,59.88023952,,,,,,,,,,,8,10,3,5,,,,,,,,,,,,,,,,,,,,,,,,,,,,,,,
65d514731a78f893b95a8516,SCR,2024-06-25_09h48.35.340,LearnStrategy,2023.2.3,Win32,59.88023952,,,,,,,,,,,4,14,3,6,,,,,,,,,,,,,,,,,,,,,,,,,,,,,,,
65d514731a78f893b95a8516,SCR,2024-06-25_09h48.35.340,LearnStrategy,2023.2.3,Win32,59.88023952,,,,,,,,,,,4,01,3,7,,,,,,,,,,,,,,,,,,,,,,,,,,,,,,,
65d514731a78f893b95a8516,SCR,2024-06-25_09h48.35.340,LearnStrategy,2023.2.3,Win32,59.88023952,,,,,,,,,,,2,04,3,8,,,,,,,,,,,,,,,,,,,,,,,,,,,,,,,
65d514731a78f893b95a8516,SCR,2024-06-25_09h48.35.340,LearnStrategy,2023.2.3,Win32,59.88023952,,,,,,,,,,,7,13,4,1,,,,,,,,,,,,,,,,,,,,,,,,,,,,,,,
65d514731a78f893b95a8516,SCR,2024-06-25_09h48.35.340,LearnStrategy,2023.2.3,Win32,59.88023952,,,,,,,,,,,1,01,4,2,,,,,,,,,,,,,,,,,,,,,,,,,,,,,,,
65d514731a78f893b95a8516,SCR,2024-06-25_09h48.35.340,LearnStrategy,2023.2.3,Win32,59.88023952,,,,,,,,,,,8,14,4,3,,,,,,,,,,,,,,,,,,,,,,,,,,,,,,,
65d514731a78f893b95a8516,SCR,2024-06-25_09h48.35.340,LearnStrategy,2023.2.3,Win32,59.88023952,,,,,,,,,,,4,08,4,4,,,,,,,,,,,,,,,,,,,,,,,,,,,,,,,
65d514731a78f893b95a8516,SCR,2024-06-25_09h48.35.340,LearnStrategy,2023.2.3,Win32,59.88023952,,,,,,,,,,,5,12,4,5,,,,,,,,,,,,,,,,,,,,,,,,,,,,,,,
65d514731a78f893b95a8516,SCR,2024-06-25_09h48.35.340,LearnStrategy,2023.2.3,Win32,59.88023952,,,,,,,,,,,8,16,4,6,,,,,,,,,,,,,,,,,,,,,,,,,,,,,,,
65d514731a78f893b95a8516,SCR,2024-06-25_09h48.35.340,LearnStrategy,2023.2.3,Win32,59.88023952,,,,,,,,,,,3,07,4,7,,,,,,,,,,,,,,,,,,,,,,,,,,,,,,,
65d514731a78f893b95a8516,SCR,2024-06-25_09h48.35.340,LearnStrategy,2023.2.3,Win32,59.88023952,,,,,,,,,,,2,14,4,8,,,,,,,,,,,,,,,,,,,,,,,,,,,,,,,
65d514731a78f893b95a8516,SCR,2024-06-25_09h48.35.340,LearnStrategy,2023.2.3,Win32,59.88023952,,,,,,,,,,,2,09,5,1,,,,,,,,,,,,,,,,,,,,,,,,,,,,,,,
65d514731a78f893b95a8516,SCR,2024-06-25_09h48.35.340,LearnStrategy,2023.2.3,Win32,59.88023952,,,,,,,,,,,7,10,5,2,,,,,,,,,,,,,,,,,,,,,,,,,,,,,,,
65d514731a78f893b95a8516,SCR,2024-06-25_09h48.35.340,LearnStrategy,2023.2.3,Win32,59.88023952,,,,,,,,,,,1,03,5,3,,,,,,,,,,,,,,,,,,,,,,,,,,,,,,,
65d514731a78f893b95a8516,SCR,2024-06-25_09h48.35.340,LearnStrategy,2023.2.3,Win32,59.88023952,,,,,,,,,,,6,10,5,4,,,,,,,,,,,,,,,,,,,,,,,,,,,,,,,
65d514731a78f893b95a8516,SCR,2024-06-25_09h48.35.340,LearnStrategy,2023.2.3,Win32,59.88023952,,,,,,,,,,,6,13,5,5,,,,,,,,,,,,,,,,,,,,,,,,,,,,,,,
65d514731a78f893b95a8516,SCR,2024-06-25_09h48.35.340,LearnStrategy,2023.2.3,Win32,59.88023952,,,,,,,,,,,3,08,5,6,,,,,,,,,,,,,,,,,,,,,,,,,,,,,,,
65d514731a78f893b95a8516,SCR,2024-06-25_09h48.35.340,LearnStrategy,2023.2.3,Win32,59.88023952,,,,,,,,,,,7,02,5,7,,,,,,,,,,,,,,,,,,,,,,,,,,,,,,,
65d514731a78f893b95a8516,SCR,2024-06-25_09h48.35.340,LearnStrategy,2023.2.3,Win32,59.88023952,,,,,,,,,,,4,11,5,8,,,,,,,,,,,,,,,,,,,,,,,,,,,,,,,
65d514731a78f893b95a8516,SCR,2024-06-25_09h48.35.340,LearnStrategy,2023.2.3,Win32,59.88023952,,,,,,,,,,,6,03,6,1,,,,,,,,,,,,,,,,,,,,,,,,,,,,,,,
65d514731a78f893b95a8516,SCR,2024-06-25_09h48.35.340,LearnStrategy,2023.2.3,Win32,59.88023952,,,,,,,,,,,8,09,6,2,,,,,,,,,,,,,,,,,,,,,,,,,,,,,,,
65d514731a78f893b95a8516,SCR,2024-06-25_09h48.35.340,LearnStrategy,2023.2.3,Win32,59.88023952,,,,,,,,,,,6,08,6,3,,,,,,,,,,,,,,,,,,,,,,,,,,,,,,,
65d514731a78f893b95a8516,SCR,2024-06-25_09h48.35.340,LearnStrategy,2023.2.3,Win32,59.88023952,,,,,,,,,,,1,09,6,4,,,,,,,,,,,,,,,,,,,,,,,,,,,,,,,
65d514731a78f893b95a8516,SCR,2024-06-25_09h48.35.340,LearnStrategy,2023.2.3,Win32,59.88023952,,,,,,,,,,,4,03,6,5,,,,,,,,,,,,,,,,,,,,,,,,,,,,,,,
65d514731a78f893b95a8516,SCR,2024-06-25_09h48.35.340,LearnStrategy,2023.2.3,Win32,59.88023952,,,,,,,,,,,8,06,6,6,,,,,,,,,,,,,,,,,,,,,,,,,,,,,,,
65d514731a78f893b95a8516,SCR,2024-06-25_09h48.35.340,LearnStrategy,2023.2.3,Win32,59.88023952,,,,,,,,,,,1,07,6,7,,,,,,,,,,,,,,,,,,,,,,,,,,,,,,,
65d514731a78f893b95a8516,SCR,2024-06-25_09h48.35.340,LearnStrategy,2023.2.3,Win32,59.88023952,,,,,,,,,,,2,06,6,8,,,,,,,,,,,,,,,,,,,,,,,,,,,,,,,