participant,condition,date,expName,psychopyVersion,OS,frameRate,block,phase,trial,learn_mouse.x,learn_mouse.y,learn_mouse.leftButton,learn_mouse.midButton,learn_mouse.rightButton,learn_mouse.time,learn_mouse.clicked_name,cat,token,row,col,t_select,cat_mouse_l.x,cat_mouse_l.y,cat_mouse_l.leftButton,cat_mouse_l.midButton,cat_mouse_l.rightButton,cat_mouse_l.time,cat_mouse_l.clicked_name,resp,t_resp,corr,train_trials.thisRepN,train_trials.thisTrialN,train_trials.thisN,train_trials.thisIndex,train_trials.ran,cat_mouse_t.x,cat_mouse_t.y,cat_mouse_t.leftButton,cat_mouse_t.midButton,cat_mouse_t.rightButton,cat_mouse_t.time,cat_mouse_t.clicked_name,test_trials.thisRepN,test_trials.thisTrialN,test_trials.thisN,test_trials.thisIndex,test_trials.ran
65e14ceb873675f5079a6874,SCN,2024-06-10_15h16.54.421,LearnStrategy,2023.2.3,Win32,238.0952381,,,,,,,,,,,,,,,,,,,,,,,,,,,,,,,,,,,,,,,,,,
65e14ceb873675f5079a6874,SCN,2024-06-10_15h16.54.421,LearnStrategy,2023.2.3,Win32,238.0952381,1,1,1,0.088888889,0.084259245,1,0,0,1.8886,Obsidian_11,5,11,4,5,1.889,-0.375462935,-0.396296353,1,0,0,4.8709,Obsidian_rect,5,4.871,1,0,0,0,0,1,,,,,,,,,,,,
65e14ceb873675f5079a6874,SCN,2024-06-10_15h16.54.421,LearnStrategy,2023.2.3,Win32,238.0952381,1,1,2,-0.11851849,0.074537023,1,0,0,3.8959,Andesite_09,1,09,4,4,3.896,0.061574131,-0.247222222,1,0,0,5.2135,Diorite_rect,3,5.213,0,1,0,1,0,1,,,,,,,,,,,,
65e14ceb873675f5079a6874,SCN,2024-06-10_15h16.54.421,LearnStrategy,2023.2.3,Win32,238.0952381,1,1,3,-0.216666667,0.087962935,1,0,0,1.1658,Obsidian_16,5,16,4,3,1.166,-0.416666667,-0.403240797,1,0,0,5.0806,Obsidian_rect,5,5.081,1,2,0,2,0,1,,,,,,,,,,,,
65e14ceb873675f5079a6874,SCN,2024-06-10_15h16.54.421,LearnStrategy,2023.2.3,Win32,238.0952381,1,1,4,-0.356944444,0.076851824,1,0,0,1.5709,Pegmatite_13,6,13,4,2,1.571,0.123611111,-0.250925954,1,0,0,4.6866,Diorite_rect,3,4.687,0,3,0,3,0,1,,,,,,,,,,,,
65e14ceb873675f5079a6874,SCN,2024-06-10_15h16.54.421,LearnStrategy,2023.2.3,Win32,238.0952381,1,1,5,-0.534259245,0.094907379,1,0,0,1.2899,Pegmatite_08,6,08,4,1,1.29,-0.147685157,-0.394907464,1,0,0,1.4259,Pegmatite_rect,6,1.426,1,4,0,4,0,1,,,,,,,,,,,,
65e14ceb873675f5079a6874,SCN,2024-06-10_15h16.54.421,LearnStrategy,2023.2.3,Win32,238.0952381,1,1,6,-0.055092536,0.247685178,1,0,0,1.2833,Pumice_16,8,16,5,4,1.283,-0.106944444,-0.259259288,1,0,0,2.7285,Basalt_rect,2,2.728,0,5,0,5,0,1,,,,,,,,,,,,
65e14ceb873675f5079a6874,SCN,2024-06-10_15h16.54.421,LearnStrategy,2023.2.3,Win32,238.0952381,1,1,7,0.535648261,0.216666667,1,0,0,1.2357,Pumice_13,8,13,5,8,1.236,0.468055556,-0.385185242,1,0,0,0.9135,Pumice_rect,8,0.913,1,6,0,6,0,1,,,,,,,,,,,,
65e14ceb873675f5079a6874,SCN,2024-06-10_15h16.54.421,LearnStrategy,2023.2.3,Win32,238.0952381,1,1,8,-0.085648092,-0.230092621,1,0,0,1.2836,Diorite_16,3,16,2,4,1.284,0.321759288,-0.243055556,1,0,0,2.95,Gabbro_rect,4,2.95,0,7,0,7,0,1,,,,,,,,,,,,
65e14ceb873675f5079a6874,SCN,2024-06-10_15h16.54.421,LearnStrategy,2023.2.3,Win32,238.0952381,1,1,9,0.088888889,0.248611111,1,0,0,2.6786,Obsidian_05,5,05,5,5,2.679,0.058333333,-0.243055556,1,0,0,2.514,Diorite_rect,3,2.514,0,8,0,8,0,1,,,,,,,,,,,,
65e14ceb873675f5079a6874,SCN,2024-06-10_15h16.54.421,LearnStrategy,2023.2.3,Win32,238.0952381,1,1,10,-0.534259245,0.276851845,1,0,0,1.6793,Basalt_16,2,16,5,1,1.679,0.472222222,-0.378240797,1,0,0,0.9507,Pumice_rect,8,0.951,0,9,0,9,0,1,,,,,,,,,,,,
65e14ceb873675f5079a6874,SCN,2024-06-10_15h16.54.421,LearnStrategy,2023.2.3,Win32,238.0952381,1,1,11,-0.364351824,-0.384722222,1,0,0,1.2331,Peridotite_04,7,04,1,2,1.233,0.120833333,-0.235185242,1,0,0,4.1721,Diorite_rect,3,4.172,0,10,0,10,0,1,,,,,,,,,,,,
65e14ceb873675f5079a6874,SCN,2024-06-10_15h16.54.421,LearnStrategy,2023.2.3,Win32,238.0952381,1,1,12,0.226388889,-0.285648176,1,0,0,1.3292,Peridotite_15,7,15,2,6,1.329,0.158333333,-0.378240797,1,0,0,3.0822,Peridotite_rect,7,3.082,1,11,0,11,0,1,,,,,,,,,,,,
65e14ceb873675f5079a6874,SCN,2024-06-10_15h16.54.421,LearnStrategy,2023.2.3,Win32,238.0952381,1,1,13,0.533796353,-0.255555556,1,0,0,0.991,Diorite_08,3,08,2,8,0.991,0.108796353,-0.378703732,1,0,0,1.7173,Peridotite_rect,7,1.717,0,12,0,12,0,1,,,,,,,,,,,,
65e14ceb873675f5079a6874,SCN,2024-06-10_15h16.54.421,LearnStrategy,2023.2.3,Win32,238.0952381,1,1,14,0.50648151,0.088888889,1,0,0,1.5746,Basalt_08,2,08,4,8,1.575,-0.065277778,-0.232407464,1,0,0,2.1009,Basalt_rect,2,2.101,1,13,0,13,0,1,,,,,,,,,,,,
65e14ceb873675f5079a6874,SCN,2024-06-10_15h16.54.421,LearnStrategy,2023.2.3,Win32,238.0952381,1,1,15,0.374537065,0.2324074,1,0,0,1.5041,Pumice_09,8,09,5,7,1.504,-0.330092578,-0.254629686,1,0,0,3.1725,Andesite_rect,1,3.173,0,14,0,14,0,1,,,,,,,,,,,,
65e14ceb873675f5079a6874,SCN,2024-06-10_15h16.54.421,LearnStrategy,2023.2.3,Win32,238.0952381,1,1,16,0.367129686,-0.385648176,1,0,0,1.8375,Obsidian_02,5,02,1,7,1.838,-0.40370369,-0.384259288,1,0,0,1.3167,Obsidian_rect,5,1.317,1,15,0,15,0,1,,,,,,,,,,,,
65e14ceb873675f5079a6874,SCN,2024-06-10_15h16.54.421,LearnStrategy,2023.2.3,Win32,238.0952381,1,2,1,,,,,,,,7,12,,,,,,,,,,,7,9.804,1,,,,,,0.234259288,-0.392592621,1,0,0,9.8039,Peridotite_rect,0,0,0,0,1
65e14ceb873675f5079a6874,SCN,2024-06-10_15h16.54.421,LearnStrategy,2023.2.3,Win32,238.0952381,1,2,2,,,,,,,,4,15,,,,,,,,,,,6,8.462,0,,,,,,-0.140740712,-0.403240797,1,0,0,8.4623,Pegmatite_rect,1,0,1,0,1
65e14ceb873675f5079a6874,SCN,2024-06-10_15h16.54.421,LearnStrategy,2023.2.3,Win32,238.0952381,1,2,3,,,,,,,,8,02,,,,,,,,,,,8,4.677,1,,,,,,0.430555556,-0.378240797,1,0,0,4.6767,Pumice_rect,2,0,2,0,1
65e14ceb873675f5079a6874,SCN,2024-06-10_15h16.54.421,LearnStrategy,2023.2.3,Win32,238.0952381,1,2,4,,,,,,,,8,04,,,,,,,,,,,1,4.898,0,,,,,,-0.407407379,-0.253703732,1,0,0,4.898,Andesite_rect,3,0,3,0,1
65e14ceb873675f5079a6874,SCN,2024-06-10_15h16.54.421,LearnStrategy,2023.2.3,Win32,238.0952381,1,2,5,,,,,,,,3,06,,,,,,,,,,,3,7.006,1,,,,,,0.113888889,-0.262963019,1,0,0,7.0063,Diorite_rect,4,0,4,0,1
65e14ceb873675f5079a6874,SCN,2024-06-10_15h16.54.421,LearnStrategy,2023.2.3,Win32,238.0952381,1,2,6,,,,,,,,1,10,,,,,,,,,,,2,4.497,0,,,,,,-0.066666667,-0.244444444,1,0,0,4.497,Basalt_rect,5,0,5,0,1
65e14ceb873675f5079a6874,SCN,2024-06-10_15h16.54.421,LearnStrategy,2023.2.3,Win32,238.0952381,1,2,7,,,,,,,,4,13,,,,,,,,,,,4,7.074,1,,,,,,0.3625,-0.254629686,1,0,0,7.0743,Gabbro_rect,6,0,6,0,1
65e14ceb873675f5079a6874,SCN,2024-06-10_15h16.54.421,LearnStrategy,2023.2.3,Win32,238.0952381,1,2,8,,,,,,,,5,06,,,,,,,,,,,5,1.012,1,,,,,,-0.395370356,-0.417592621,1,0,0,1.0125,Obsidian_rect,7,0,7,0,1
65e14ceb873675f5079a6874,SCN,2024-06-10_15h16.54.421,LearnStrategy,2023.2.3,Win32,238.0952381,1,2,9,,,,,,,,6,05,,,,,,,,,,,5,2.226,0,,,,,,-0.376388889,-0.404629686,1,0,0,2.2262,Obsidian_rect,8,0,8,0,1
65e14ceb873675f5079a6874,SCN,2024-06-10_15h16.54.421,LearnStrategy,2023.2.3,Win32,238.0952381,1,2,10,,,,,,,,3,10,,,,,,,,,,,1,1.624,0,,,,,,-0.382407379,-0.250925954,1,0,0,1.624,Andesite_rect,9,0,9,0,1
65e14ceb873675f5079a6874,SCN,2024-06-10_15h16.54.421,LearnStrategy,2023.2.3,Win32,238.0952381,1,2,11,,,,,,,,2,09,,,,,,,,,,,1,1.493,0,,,,,,-0.365277778,-0.234722222,1,0,0,1.4933,Andesite_rect,10,0,10,0,1
65e14ceb873675f5079a6874,SCN,2024-06-10_15h16.54.421,LearnStrategy,2023.2.3,Win32,238.0952381,1,2,12,,,,,,,,1,16,,,,,,,,,,,7,1.59,0,,,,,,0.163425954,-0.379166667,1,0,0,1.5898,Peridotite_rect,11,0,11,0,1
65e14ceb873675f5079a6874,SCN,2024-06-10_15h16.54.421,LearnStrategy,2023.2.3,Win32,238.0952381,1,2,13,,,,,,,,7,08,,,,,,,,,,,7,0.732,1,,,,,,0.163425954,-0.379166667,1,0,0,0.7315,Peridotite_rect,12,0,12,0,1
65e14ceb873675f5079a6874,SCN,2024-06-10_15h16.54.421,LearnStrategy,2023.2.3,Win32,238.0952381,1,2,14,,,,,,,,2,05,,,,,,,,,,,2,1.942,1,,,,,,-0.046759203,-0.234259288,1,0,0,1.9422,Basalt_rect,13,0,13,0,1
65e14ceb873675f5079a6874,SCN,2024-06-10_15h16.54.421,LearnStrategy,2023.2.3,Win32,238.0952381,1,2,15,,,,,,,,5,10,,,,,,,,,,,5,0.888,1,,,,,,-0.311574046,-0.378240797,1,0,0,0.8884,Obsidian_rect,14,0,14,0,1
65e14ceb873675f5079a6874,SCN,2024-06-10_15h16.54.421,LearnStrategy,2023.2.3,Win32,238.0952381,1,2,16,,,,,,,,6,11,,,,,,,,,,,5,7.325,0,,,,,,-0.309722222,-0.415277778,1,0,0,7.3245,Obsidian_rect,15,0,15,0,1
65e14ceb873675f5079a6874,SCN,2024-06-10_15h16.54.421,LearnStrategy,2023.2.3,Win32,238.0952381,2,1,1,-0.523611111,-0.203240755,1,0,0,11.3068,Diorite_07,3,07,2,1,11.307,0.066666667,-0.394444444,1,0,0,0.783,Peridotite_rect,7,0.783,0,0,0,0,0,1,,,,,,,,,,,,
65e14ceb873675f5079a6874,SCN,2024-06-10_15h16.54.421,LearnStrategy,2023.2.3,Win32,238.0952381,2,1,2,-0.064814758,-0.279629686,1,0,0,0.9,Diorite_16,3,16,2,4,0.9,0.072685242,-0.268518575,1,0,0,0.8548,Diorite_rect,3,0.855,1,1,0,1,0,1,,,,,,,,,,,,
65e14ceb873675f5079a6874,SCN,2024-06-10_15h16.54.421,LearnStrategy,2023.2.3,Win32,238.0952381,2,1,3,0.227314843,-0.091666667,1,0,0,1.2538,Diorite_11,3,11,3,6,1.254,0.152777778,-0.25,1,0,0,0.8104,Diorite_rect,3,0.81,1,2,0,2,0,1,,,,,,,,,,,,
65e14ceb873675f5079a6874,SCN,2024-06-10_15h16.54.421,LearnStrategy,2023.2.3,Win32,238.0952381,2,1,4,0.225,0.082870356,1,0,0,1.1292,Peridotite_06,7,06,4,6,1.129,0.070370399,-0.394907464,1,0,0,0.9425,Peridotite_rect,7,0.943,1,3,0,3,0,1,,,,,,,,,,,,
65e14ceb873675f5079a6874,SCN,2024-06-10_15h16.54.421,LearnStrategy,2023.2.3,Win32,238.0952381,2,1,5,0.053240797,0.410648145,1,0,0,2.2082,Andesite_01,1,01,6,5,2.208,-0.201388889,-0.232870399,1,0,0,1.5464,Basalt_rect,2,1.546,0,4,0,4,0,1,,,,,,,,,,,,
65e14ceb873675f5079a6874,SCN,2024-06-10_15h16.54.421,LearnStrategy,2023.2.3,Win32,238.0952381,2,1,6,-0.055092536,-0.250463019,1,0,0,4.2041,Diorite_16,3,16,2,4,4.204,-0.34351849,-0.231944444,1,0,0,0.7106,Andesite_rect,1,0.711,0,5,0,5,0,1,,,,,,,,,,,,
65e14ceb873675f5079a6874,SCN,2024-06-10_15h16.54.421,LearnStrategy,2023.2.3,Win32,238.0952381,2,1,7,0.229166667,-0.250925954,1,0,0,1.4876,Peridotite_15,7,15,2,6,1.488,0.124537065,-0.379166667,1,0,0,1.7912,Peridotite_rect,7,1.791,1,6,0,6,0,1,,,,,,,,,,,,
65e14ceb873675f5079a6874,SCN,2024-06-10_15h16.54.421,LearnStrategy,2023.2.3,Win32,238.0952381,2,1,8,0.534259372,-0.230555556,1,0,0,0.6046,Diorite_08,3,08,2,8,0.605,0.171296353,-0.38148151,1,0,0,28.001,Peridotite_rect,7,28.001,0,7,0,7,0,1,,,,,,,,,,,,
65e14ceb873675f5079a6874,SCN,2024-06-10_15h16.54.421,LearnStrategy,2023.2.3,Win32,238.0952381,2,1,9,-0.523611111,-0.225925954,1,0,0,4.9491,Diorite_07,3,07,2,1,4.949,0.439814843,-0.246759288,1,0,0,0.9858,Gabbro_rect,4,0.986,0,8,0,8,0,1,,,,,,,,,,,,
65e14ceb873675f5079a6874,SCN,2024-06-10_15h16.54.421,LearnStrategy,2023.2.3,Win32,238.0952381,2,1,10,0.232870399,0.074537023,1,0,0,5.9613,Peridotite_06,7,06,4,6,5.961,0.087037065,-0.392129686,1,0,0,1.1289,Peridotite_rect,7,1.129,1,9,0,9,0,1,,,,,,,,,,,,
65e14ceb873675f5079a6874,SCN,2024-06-10_15h16.54.421,LearnStrategy,2023.2.3,Win32,238.0952381,2,1,11,-0.076388889,-0.240740797,1,0,0,2.7507,Diorite_16,3,16,2,4,2.751,0.403240797,-0.245833333,1,0,0,1.3071,Gabbro_rect,4,1.307,0,10,0,10,0,1,,,,,,,,,,,,
65e14ceb873675f5079a6874,SCN,2024-06-10_15h16.54.421,LearnStrategy,2023.2.3,Win32,238.0952381,2,1,12,-0.5824074,-0.253240797,1,0,0,3.2499,Diorite_07,3,07,2,1,3.25,0.121759288,-0.264351908,1,0,0,1.6905,Diorite_rect,3,1.69,1,11,0,11,0,1,,,,,,,,,,,,
65e14ceb873675f5079a6874,SCN,2024-06-10_15h16.54.421,LearnStrategy,2023.2.3,Win32,238.0952381,2,1,13,0.559259372,-0.400463019,1,0,0,1.2176,Andesite_06,1,06,1,8,1.218,0.394907464,-0.244444444,1,0,0,3.5173,Gabbro_rect,4,3.517,0,12,0,12,0,1,,,,,,,,,,,,
65e14ceb873675f5079a6874,SCN,2024-06-10_15h16.54.421,LearnStrategy,2023.2.3,Win32,238.0952381,2,1,14,-0.229629601,0.262962956,1,0,0,1.5787,Pegmatite_06,6,06,5,3,1.579,-0.104629601,-0.401388889,1,0,0,5.5819,Pegmatite_rect,6,5.582,1,13,0,13,0,1,,,,,,,,,,,,
65e14ceb873675f5079a6874,SCN,2024-06-10_15h16.54.421,LearnStrategy,2023.2.3,Win32,238.0952381,2,1,15,-0.363425912,0.417129628,1,0,0,1.7331,Peridotite_16,7,16,6,2,1.733,-0.100925869,-0.38148151,1,0,0,2.7449,Pegmatite_rect,6,2.745,0,14,0,14,0,1,,,,,,,,,,,,
65e14ceb873675f5079a6874,SCN,2024-06-10_15h16.54.421,LearnStrategy,2023.2.3,Win32,238.0952381,2,1,16,0.067592621,0.383333333,1,0,0,1.7162,Andesite_01,1,01,6,5,1.716,0.34398151,-0.229629686,1,0,0,1.1979,Gabbro_rect,4,1.198,0,15,0,15,0,1,,,,,,,,,,,,
65e14ceb873675f5079a6874,SCN,2024-06-10_15h16.54.421,LearnStrategy,2023.2.3,Win32,238.0952381,2,2,1,,,,,,,,6,07,,,,,,,,,,,7,5.696,0,,,,,,0.121759288,-0.392129686,1,0,0,5.6965,Peridotite_rect,0,0,0,0,1
65e14ceb873675f5079a6874,SCN,2024-06-10_15h16.54.421,LearnStrategy,2023.2.3,Win32,238.0952381,2,2,2,,,,,,,,8,08,,,,,,,,,,,8,34.903,1,,,,,,0.337963019,-0.380092621,1,0,0,34.9028,Pumice_rect,1,0,1,0,1
65e14ceb873675f5079a6874,SCN,2024-06-10_15h16.54.421,LearnStrategy,2023.2.3,Win32,238.0952381,2,2,3,,,,,,,,6,12,,,,,,,,,,,3,15.432,0,,,,,,0.110185242,-0.246296353,1,0,0,15.4321,Diorite_rect,2,0,2,0,1
65e14ceb873675f5079a6874,SCN,2024-06-10_15h16.54.421,LearnStrategy,2023.2.3,Win32,238.0952381,2,2,4,,,,,,,,4,12,,,,,,,,,,,1,2.606,0,,,,,,-0.430555556,-0.232407464,1,0,0,2.6055,Andesite_rect,3,0,3,0,1
65e14ceb873675f5079a6874,SCN,2024-06-10_15h16.54.421,LearnStrategy,2023.2.3,Win32,238.0952381,2,2,5,,,,,,,,3,02,,,,,,,,,,,4,19.575,0,,,,,,0.396759288,-0.265277778,1,0,0,19.5753,Gabbro_rect,4,0,4,0,1
65e14ceb873675f5079a6874,SCN,2024-06-10_15h16.54.421,LearnStrategy,2023.2.3,Win32,238.0952381,2,2,6,,,,,,,,8,03,,,,,,,,,,,8,5.641,1,,,,,,0.33148151,-0.397685242,1,0,0,5.641,Pumice_rect,5,0,5,0,1
65e14ceb873675f5079a6874,SCN,2024-06-10_15h16.54.421,LearnStrategy,2023.2.3,Win32,238.0952381,2,2,7,,,,,,,,1,07,,,,,,,,,,,6,7.818,0,,,,,,-0.117129601,-0.378240797,1,0,0,7.8176,Pegmatite_rect,6,0,6,0,1
65e14ceb873675f5079a6874,SCN,2024-06-10_15h16.54.421,LearnStrategy,2023.2.3,Win32,238.0952381,2,2,8,,,,,,,,4,11,,,,,,,,,,,2,2.125,0,,,,,,-0.105555556,-0.243055556,1,0,0,2.1254,Basalt_rect,7,0,7,0,1
65e14ceb873675f5079a6874,SCN,2024-06-10_15h16.54.421,LearnStrategy,2023.2.3,Win32,238.0952381,2,2,9,,,,,,,,7,14,,,,,,,,,,,7,2.23,1,,,,,,0.113888889,-0.410185242,1,0,0,2.2301,Peridotite_rect,8,0,8,0,1
65e14ceb873675f5079a6874,SCN,2024-06-10_15h16.54.421,LearnStrategy,2023.2.3,Win32,238.0952381,2,2,10,,,,,,,,7,05,,,,,,,,,,,3,8.448,0,,,,,,0.1,-0.250925954,1,0,0,8.4476,Diorite_rect,9,0,9,0,1
65e14ceb873675f5079a6874,SCN,2024-06-10_15h16.54.421,LearnStrategy,2023.2.3,Win32,238.0952381,2,2,11,,,,,,,,2,12,,,,,,,,,,,1,1.641,0,,,,,,-0.350462935,-0.267592621,1,0,0,1.6413,Andesite_rect,10,0,10,0,1
65e14ceb873675f5079a6874,SCN,2024-06-10_15h16.54.421,LearnStrategy,2023.2.3,Win32,238.0952381,2,2,12,,,,,,,,5,04,,,,,,,,,,,5,1.509,1,,,,,,-0.374537023,-0.415740797,1,0,0,1.5087,Obsidian_rect,11,0,11,0,1
65e14ceb873675f5079a6874,SCN,2024-06-10_15h16.54.421,LearnStrategy,2023.2.3,Win32,238.0952381,2,2,13,,,,,,,,2,14,,,,,,,,,,,2,3.137,1,,,,,,-0.150925869,-0.245370399,1,0,0,3.1374,Basalt_rect,12,0,12,0,1
65e14ceb873675f5079a6874,SCN,2024-06-10_15h16.54.421,LearnStrategy,2023.2.3,Win32,238.0952381,2,2,14,,,,,,,,5,14,,,,,,,,,,,5,1.06,1,,,,,,-0.339814801,-0.414351908,1,0,0,1.0603,Obsidian_rect,13,0,13,0,1
65e14ceb873675f5079a6874,SCN,2024-06-10_15h16.54.421,LearnStrategy,2023.2.3,Win32,238.0952381,2,2,15,,,,,,,,1,03,,,,,,,,,,,4,4.737,0,,,,,,0.298611111,-0.247685242,1,0,0,4.7375,Gabbro_rect,14,0,14,0,1
65e14ceb873675f5079a6874,SCN,2024-06-10_15h16.54.421,LearnStrategy,2023.2.3,Win32,238.0952381,2,2,16,,,,,,,,3,13,,,,,,,,,,,6,12.846,0,,,,,,-0.181944444,-0.391203732,1,0,0,12.846,Pegmatite_rect,15,0,15,0,1
65e14ceb873675f5079a6874,SCN,2024-06-10_15h16.54.421,LearnStrategy,2023.2.3,Win32,238.0952381,3,1,1,-0.398148134,0.240277778,0,0,1,3.9788,Gabbro_05,4,05,5,2,3.979,-0.397222222,-0.262037065,1,0,0,3.163,Andesite_rect,1,3.163,0,0,0,0,0,1,,,,,,,,,,,,
65e14ceb873675f5079a6874,SCN,2024-06-10_15h16.54.421,LearnStrategy,2023.2.3,Win32,238.0952381,3,1,2,-0.347222222,0.390277778,1,0,0,1.6823,Peridotite_16,7,16,6,2,1.682,0.123611111,-0.421759288,1,0,0,1.5055,Peridotite_rect,7,1.506,1,1,0,1,0,1,,,,,,,,,,,,
65e14ceb873675f5079a6874,SCN,2024-06-10_15h16.54.421,LearnStrategy,2023.2.3,Win32,238.0952381,3,1,3,0.072685242,-0.401851908,1,0,0,5.4003,Pegmatite_15,6,15,1,5,5.4,0.025463019,-0.259259288,1,0,0,3.3129,Diorite_rect,3,3.313,0,2,0,2,0,1,,,,,,,,,,,,
65e14ceb873675f5079a6874,SCN,2024-06-10_15h16.54.421,LearnStrategy,2023.2.3,Win32,238.0952381,3,1,4,-0.058333333,-0.407407464,1,0,0,0.9829,Andesite_14,1,14,1,4,0.983,0.342592621,-0.265740797,1,0,0,2.0083,Gabbro_rect,4,2.008,0,3,0,3,0,1,,,,,,,,,,,,
65e14ceb873675f5079a6874,SCN,2024-06-10_15h16.54.421,LearnStrategy,2023.2.3,Win32,238.0952381,3,1,5,0.376851908,0.21620369,1,0,0,5.3371,Pumice_09,8,09,5,7,5.337,0.442592621,-0.383333333,1,0,0,0.616,Pumice_rect,8,0.616,1,4,0,4,0,1,,,,,,,,,,,,
65e14ceb873675f5079a6874,SCN,2024-06-10_15h16.54.421,LearnStrategy,2023.2.3,Win32,238.0952381,3,1,6,0.537963019,0.264814801,1,0,0,1.5088,Pumice_13,8,13,5,8,1.509,0.374074131,-0.401388889,1,0,0,1.1419,Pumice_rect,8,1.142,1,5,0,5,0,1,,,,,,,,,,,,
65e14ceb873675f5079a6874,SCN,2024-06-10_15h16.54.421,LearnStrategy,2023.2.3,Win32,238.0952381,3,1,7,-0.059259203,-0.113888889,1,0,0,4.1374,Obsidian_09,5,09,3,4,4.137,-0.3875,-0.392129686,1,0,0,1.1262,Obsidian_rect,5,1.126,1,6,0,6,0,1,,,,,,,,,,,,
65e14ceb873675f5079a6874,SCN,2024-06-10_15h16.54.421,LearnStrategy,2023.2.3,Win32,238.0952381,3,1,8,-0.110648092,-0.231018575,1,0,0,2.0234,Diorite_16,3,16,2,4,2.023,-0.294444444,-0.241666667,1,0,0,1.5351,Andesite_rect,1,1.535,0,7,0,7,0,1,,,,,,,,,,,,
65e14ceb873675f5079a6874,SCN,2024-06-10_15h16.54.421,LearnStrategy,2023.2.3,Win32,238.0952381,3,1,9,-0.081481425,-0.388888889,1,0,0,1.1174,Andesite_14,1,14,1,4,1.117,0.058333333,-0.235648176,1,0,0,1.7123,Diorite_rect,3,1.712,0,8,0,8,0,1,,,,,,,,,,,,
65e14ceb873675f5079a6874,SCN,2024-06-10_15h16.54.421,LearnStrategy,2023.2.3,Win32,238.0952381,3,1,10,0.376851908,-0.258796353,1,0,0,3.666,Basalt_04,2,04,2,7,3.666,-0.116666667,-0.232870399,1,0,0,1.7512,Basalt_rect,2,1.751,1,9,0,9,0,1,,,,,,,,,,,,
65e14ceb873675f5079a6874,SCN,2024-06-10_15h16.54.421,LearnStrategy,2023.2.3,Win32,238.0952381,3,1,11,-0.365277778,-0.225925954,1,0,0,0.8703,Basalt_06,2,06,2,2,0.87,-0.128703647,-0.241203732,1,0,0,0.557,Basalt_rect,2,0.557,1,10,0,10,0,1,,,,,,,,,,,,
65e14ceb873675f5079a6874,SCN,2024-06-10_15h16.54.421,LearnStrategy,2023.2.3,Win32,238.0952381,3,1,12,0.375925954,0.389351845,1,0,0,3.6784,Gabbro_08,4,08,6,7,3.678,-0.2125,-0.249074131,1,0,0,2.0458,Basalt_rect,2,2.046,0,11,0,11,0,1,,,,,,,,,,,,
65e14ceb873675f5079a6874,SCN,2024-06-10_15h16.54.421,LearnStrategy,2023.2.3,Win32,238.0952381,3,1,13,-0.361574046,0.25,1,0,0,2.1242,Gabbro_05,4,05,5,2,2.124,0.384259288,-0.241666667,1,0,0,1.5294,Gabbro_rect,4,1.529,1,12,0,12,0,1,,,,,,,,,,,,
65e14ceb873675f5079a6874,SCN,2024-06-10_15h16.54.421,LearnStrategy,2023.2.3,Win32,238.0952381,3,1,14,0.373148176,-0.099074088,1,0,0,1.6382,Peridotite_07,7,07,3,7,1.638,0.363888889,-0.239351908,1,0,0,1.2661,Gabbro_rect,4,1.266,0,13,0,13,0,1,,,,,,,,,,,,
65e14ceb873675f5079a6874,SCN,2024-06-10_15h16.54.421,LearnStrategy,2023.2.3,Win32,238.0952381,3,1,15,-0.209259245,-0.25648151,1,0,0,1.6536,Peridotite_13,7,13,2,3,1.654,0.108333333,-0.380555556,1,0,0,1.4752,Peridotite_rect,7,1.475,1,14,0,14,0,1,,,,,,,,,,,,
65e14ceb873675f5079a6874,SCN,2024-06-10_15h16.54.421,LearnStrategy,2023.2.3,Win32,238.0952381,3,1,16,0.229166667,-0.268518575,1,0,0,0.8709,Peridotite_15,7,15,2,6,0.871,0.108333333,-0.401388889,1,0,0,1.3808,Peridotite_rect,7,1.381,1,15,0,15,0,1,,,,,,,,,,,,
65e14ceb873675f5079a6874,SCN,2024-06-10_15h16.54.421,LearnStrategy,2023.2.3,Win32,238.0952381,3,2,1,,,,,,,,1,02,,,,,,,,,,,1,7.83,1,,,,,,-0.387962935,-0.234722222,1,0,0,7.8303,Andesite_rect,0,0,0,0,1
65e14ceb873675f5079a6874,SCN,2024-06-10_15h16.54.421,LearnStrategy,2023.2.3,Win32,238.0952381,3,2,2,,,,,,,,2,01,,,,,,,,,,,2,3.129,1,,,,,,-0.134259203,-0.251388889,1,0,0,3.1291,Basalt_rect,1,0,1,0,1
65e14ceb873675f5079a6874,SCN,2024-06-10_15h16.54.421,LearnStrategy,2023.2.3,Win32,238.0952381,3,2,3,,,,,,,,4,16,,,,,,,,,,,2,5.81,0,,,,,,-0.123148092,-0.238425954,1,0,0,5.8104,Basalt_rect,2,0,2,0,1
65e14ceb873675f5079a6874,SCN,2024-06-10_15h16.54.421,LearnStrategy,2023.2.3,Win32,238.0952381,3,2,4,,,,,,,,3,14,,,,,,,,,,,3,3.755,1,,,,,,0.101388889,-0.253703732,1,0,0,3.755,Diorite_rect,3,0,3,0,1
65e14ceb873675f5079a6874,SCN,2024-06-10_15h16.54.421,LearnStrategy,2023.2.3,Win32,238.0952381,3,2,5,,,,,,,,5,08,,,,,,,,,,,5,0.897,1,,,,,,-0.330555556,-0.395370399,1,0,0,0.8975,Obsidian_rect,4,0,4,0,1
65e14ceb873675f5079a6874,SCN,2024-06-10_15h16.54.421,LearnStrategy,2023.2.3,Win32,238.0952381,3,2,6,,,,,,,,2,02,,,,,,,,,,,2,2.546,1,,,,,,-0.085648092,-0.25,1,0,0,2.546,Basalt_rect,5,0,5,0,1
65e14ceb873675f5079a6874,SCN,2024-06-10_15h16.54.421,LearnStrategy,2023.2.3,Win32,238.0952381,3,2,7,,,,,,,,5,07,,,,,,,,,,,5,0.959,1,,,,,,-0.351388889,-0.419907464,1,0,0,0.9586,Obsidian_rect,6,0,6,0,1
65e14ceb873675f5079a6874,SCN,2024-06-10_15h16.54.421,LearnStrategy,2023.2.3,Win32,238.0952381,3,2,8,,,,,,,,6,10,,,,,,,,,,,7,0.976,0,,,,,,0.154166667,-0.416666667,1,0,0,0.9755,Peridotite_rect,7,0,7,0,1
65e14ceb873675f5079a6874,SCN,2024-06-10_15h16.54.421,LearnStrategy,2023.2.3,Win32,238.0952381,3,2,9,,,,,,,,7,10,,,,,,,,,,,7,1.911,1,,,,,,0.140740797,-0.405092621,1,0,0,1.9107,Peridotite_rect,8,0,8,0,1
65e14ceb873675f5079a6874,SCN,2024-06-10_15h16.54.421,LearnStrategy,2023.2.3,Win32,238.0952381,3,2,10,,,,,,,,1,11,,,,,,,,,,,7,1.027,0,,,,,,0.140740797,-0.405092621,1,0,0,1.0267,Peridotite_rect,9,0,9,0,1
65e14ceb873675f5079a6874,SCN,2024-06-10_15h16.54.421,LearnStrategy,2023.2.3,Win32,238.0952381,3,2,11,,,,,,,,8,06,,,,,,,,,,,8,1.151,1,,,,,,0.36898151,-0.414351908,1,0,0,1.1505,Pumice_rect,10,0,10,0,1
65e14ceb873675f5079a6874,SCN,2024-06-10_15h16.54.421,LearnStrategy,2023.2.3,Win32,238.0952381,3,2,12,,,,,,,,8,05,,,,,,,,,,,8,0.915,1,,,,,,0.35,-0.380092621,1,0,0,0.9152,Pumice_rect,11,0,11,0,1
65e14ceb873675f5079a6874,SCN,2024-06-10_15h16.54.421,LearnStrategy,2023.2.3,Win32,238.0952381,3,2,13,,,,,,,,7,02,,,,,,,,,,,7,0.903,1,,,,,,0.210185242,-0.399537065,1,0,0,0.9027,Peridotite_rect,12,0,12,0,1
65e14ceb873675f5079a6874,SCN,2024-06-10_15h16.54.421,LearnStrategy,2023.2.3,Win32,238.0952381,3,2,14,,,,,,,,3,09,,,,,,,,,,,3,4.697,1,,,,,,0.116666667,-0.254166667,1,0,0,4.6967,Diorite_rect,13,0,13,0,1
65e14ceb873675f5079a6874,SCN,2024-06-10_15h16.54.421,LearnStrategy,2023.2.3,Win32,238.0952381,3,2,15,,,,,,,,6,16,,,,,,,,,,,4,3.305,0,,,,,,0.325,-0.250463019,1,0,0,3.3052,Gabbro_rect,14,0,14,0,1
65e14ceb873675f5079a6874,SCN,2024-06-10_15h16.54.421,LearnStrategy,2023.2.3,Win32,238.0952381,3,2,16,,,,,,,,4,10,,,,,,,,,,,5,2.976,0,,,,,,-0.421296268,-0.392129686,1,0,0,2.9757,Obsidian_rect,15,0,15,0,1
65e14ceb873675f5079a6874,SCN,2024-06-10_15h16.54.421,LearnStrategy,2023.2.3,Win32,238.0952381,4,1,1,0.5375,0.381481478,1,0,0,3.7498,Pumice_10,8,10,6,8,3.75,-0.406944444,-0.248148176,1,0,0,2.6931,Andesite_rect,1,2.693,0,0,0,0,0,1,,,,,,,,,,,,
65e14ceb873675f5079a6874,SCN,2024-06-10_15h16.54.421,LearnStrategy,2023.2.3,Win32,238.0952381,4,1,2,-0.597685178,0.080092578,1,0,0,2.0746,Pegmatite_08,6,08,4,1,2.075,-0.331481467,-0.396296353,1,0,0,2.7115,Obsidian_rect,5,2.712,0,1,0,1,0,1,,,,,,,,,,,,
65e14ceb873675f5079a6874,SCN,2024-06-10_15h16.54.421,LearnStrategy,2023.2.3,Win32,238.0952381,4,1,3,-0.529629601,-0.115740755,1,0,0,1.6286,Basalt_10,2,10,3,1,1.629,-0.164814758,-0.231944444,1,0,0,0.9536,Basalt_rect,2,0.954,1,2,0,2,0,1,,,,,,,,,,,,
65e14ceb873675f5079a6874,SCN,2024-06-10_15h16.54.421,LearnStrategy,2023.2.3,Win32,238.0952381,4,1,4,0.073148176,-0.382870399,1,0,0,2.7122,Pegmatite_15,6,15,1,5,2.712,-0.087962935,-0.391666667,1,0,0,1.1702,Pegmatite_rect,6,1.17,1,3,0,3,0,1,,,,,,,,,,,,
65e14ceb873675f5079a6874,SCN,2024-06-10_15h16.54.421,LearnStrategy,2023.2.3,Win32,238.0952381,4,1,5,0.225463019,0.095833333,1,0,0,4.9493,Peridotite_06,7,06,4,6,4.949,0.144907464,-0.409259288,1,0,0,1.2752,Peridotite_rect,7,1.275,1,4,0,4,0,1,,,,,,,,,,,,
65e14ceb873675f5079a6874,SCN,2024-06-10_15h16.54.421,LearnStrategy,2023.2.3,Win32,238.0952381,4,1,6,-0.083796268,-0.272222222,1,0,0,2.5043,Diorite_16,3,16,2,4,2.504,0.16898151,-0.271296353,1,0,0,0.8337,Diorite_rect,3,0.834,1,5,0,5,0,1,,,,,,,,,,,,
65e14ceb873675f5079a6874,SCN,2024-06-10_15h16.54.421,LearnStrategy,2023.2.3,Win32,238.0952381,4,1,7,-0.522685157,-0.265740797,1,0,0,1.2292,Diorite_07,3,07,2,1,1.229,0.120833333,-0.25648151,1,0,0,0.7222,Diorite_rect,3,0.722,1,6,0,6,0,1,,,,,,,,,,,,
65e14ceb873675f5079a6874,SCN,2024-06-10_15h16.54.421,LearnStrategy,2023.2.3,Win32,238.0952381,4,1,8,-0.050462935,-0.414351908,1,0,0,3.3922,Andesite_14,1,14,1,4,3.392,-0.338888889,-0.250925954,1,0,0,2.2002,Andesite_rect,1,2.2,1,7,0,7,0,1,,,,,,,,,,,,
65e14ceb873675f5079a6874,SCN,2024-06-10_15h16.54.421,LearnStrategy,2023.2.3,Win32,238.0952381,4,1,9,-0.26620369,0.095833333,1,0,0,8.9781,Obsidian_16,5,16,4,3,8.978,-0.358796268,-0.416203732,1,0,0,1.0385,Obsidian_rect,5,1.038,1,8,0,8,0,1,,,,,,,,,,,,
65e14ceb873675f5079a6874,SCN,2024-06-10_15h16.54.421,LearnStrategy,2023.2.3,Win32,238.0952381,4,1,10,0.279166667,-0.408333333,1,0,0,0.996,Andesite_04,1,04,1,6,0.996,0.336111111,-0.4125,1,0,0,1.979,Pumice_rect,8,1.979,0,9,0,9,0,1,,,,,,,,,,,,
65e14ceb873675f5079a6874,SCN,2024-06-10_15h16.54.421,LearnStrategy,2023.2.3,Win32,238.0952381,4,1,11,0.520833333,-0.398148176,1,0,0,1.8458,Andesite_06,1,06,1,8,1.846,-0.331944444,-0.262963019,1,0,0,4.5987,Andesite_rect,1,4.599,1,10,0,10,0,1,,,,,,,,,,,,
65e14ceb873675f5079a6874,SCN,2024-06-10_15h16.54.421,LearnStrategy,2023.2.3,Win32,238.0952381,4,1,12,-0.204166667,0.237037023,1,0,0,2.4166,Pegmatite_06,6,06,5,3,2.417,-0.142129601,-0.404166667,1,0,0,0.8576,Pegmatite_rect,6,0.858,1,11,0,11,0,1,,,,,,,,,,,,
65e14ceb873675f5079a6874,SCN,2024-06-10_15h16.54.421,LearnStrategy,2023.2.3,Win32,238.0952381,4,1,13,0.218518575,0.425,1,0,0,3.2074,Gabbro_09,4,09,6,6,3.207,-0.095370314,-0.242129686,1,0,0,1.2962,Basalt_rect,2,1.296,0,12,0,12,0,1,,,,,,,,,,,,
65e14ceb873675f5079a6874,SCN,2024-06-10_15h16.54.421,LearnStrategy,2023.2.3,Win32,238.0952381,4,1,14,0.059722222,0.410648145,1,0,0,0.5287,Andesite_01,1,01,6,5,0.529,0.387963019,-0.244907464,1,0,0,1.3292,Gabbro_rect,4,1.329,0,13,0,13,0,1,,,,,,,,,,,,
65e14ceb873675f5079a6874,SCN,2024-06-10_15h16.54.421,LearnStrategy,2023.2.3,Win32,238.0952381,4,1,15,-0.196296268,0.393981478,1,0,0,1.2708,Basalt_11,2,11,6,3,1.271,-0.057407379,-0.262037065,1,0,0,1.4449,Basalt_rect,2,1.445,1,14,0,14,0,1,,,,,,,,,,,,
65e14ceb873675f5079a6874,SCN,2024-06-10_15h16.54.421,LearnStrategy,2023.2.3,Win32,238.0952381,4,1,16,0.075463019,0.075925912,1,0,0,1.2706,Obsidian_11,5,11,4,5,1.271,-0.4125,-0.417129686,1,0,0,0.635,Obsidian_rect,5,0.635,1,15,0,15,0,1,,,,,,,,,,,,
65e14ceb873675f5079a6874,SCN,2024-06-10_15h16.54.421,LearnStrategy,2023.2.3,Win32,238.0952381,4,2,1,,,,,,,,4,11,,,,,,,,,,,1,2.752,0,,,,,,-0.374537023,-0.240740797,1,0,0,2.7518,Andesite_rect,0,0,0,0,1
65e14ceb873675f5079a6874,SCN,2024-06-10_15h16.54.421,LearnStrategy,2023.2.3,Win32,238.0952381,4,2,2,,,,,,,,8,04,,,,,,,,,,,8,1.202,1,,,,,,0.323611111,-0.412963019,1,0,0,1.2024,Pumice_rect,1,0,1,0,1
65e14ceb873675f5079a6874,SCN,2024-06-10_15h16.54.421,LearnStrategy,2023.2.3,Win32,238.0952381,4,2,3,,,,,,,,3,13,,,,,,,,,,,3,1.797,1,,,,,,0.107407464,-0.248611111,1,0,0,1.7974,Diorite_rect,2,0,2,0,1
65e14ceb873675f5079a6874,SCN,2024-06-10_15h16.54.421,LearnStrategy,2023.2.3,Win32,238.0952381,4,2,4,,,,,,,,7,10,,,,,,,,,,,7,0.815,1,,,,,,0.099074131,-0.395370399,1,0,0,0.8147,Peridotite_rect,3,0,3,0,1
65e14ceb873675f5079a6874,SCN,2024-06-10_15h16.54.421,LearnStrategy,2023.2.3,Win32,238.0952381,4,2,5,,,,,,,,4,10,,,,,,,,,,,1,5.022,0,,,,,,-0.356481467,-0.236574131,1,0,0,5.0222,Andesite_rect,4,0,4,0,1
65e14ceb873675f5079a6874,SCN,2024-06-10_15h16.54.421,LearnStrategy,2023.2.3,Win32,238.0952381,4,2,6,,,,,,,,5,10,,,,,,,,,,,5,1.137,1,,,,,,-0.3625,-0.418518575,1,0,0,1.1372,Obsidian_rect,5,0,5,0,1
65e14ceb873675f5079a6874,SCN,2024-06-10_15h16.54.421,LearnStrategy,2023.2.3,Win32,238.0952381,4,2,7,,,,,,,,1,11,,,,,,,,,,,6,4.16,0,,,,,,-0.177314758,-0.384722222,1,0,0,4.1597,Pegmatite_rect,6,0,6,0,1
65e14ceb873675f5079a6874,SCN,2024-06-10_15h16.54.421,LearnStrategy,2023.2.3,Win32,238.0952381,4,2,8,,,,,,,,8,03,,,,,,,,,,,8,1.534,1,,,,,,0.394907464,-0.41898151,1,0,0,1.5336,Pumice_rect,7,0,7,0,1
65e14ceb873675f5079a6874,SCN,2024-06-10_15h16.54.421,LearnStrategy,2023.2.3,Win32,238.0952381,4,2,9,,,,,,,,7,12,,,,,,,,,,,7,0.748,1,,,,,,0.177777778,-0.421296353,1,0,0,0.7482,Peridotite_rect,8,0,8,0,1
65e14ceb873675f5079a6874,SCN,2024-06-10_15h16.54.421,LearnStrategy,2023.2.3,Win32,238.0952381,4,2,10,,,,,,,,6,16,,,,,,,,,,,6,4.508,1,,,,,,-0.059722222,-0.387963019,1,0,0,4.5084,Pegmatite_rect,9,0,9,0,1
65e14ceb873675f5079a6874,SCN,2024-06-10_15h16.54.421,LearnStrategy,2023.2.3,Win32,238.0952381,4,2,11,,,,,,,,6,05,,,,,,,,,,,3,5.344,0,,,,,,0.157407464,-0.239351908,1,0,0,5.3442,Diorite_rect,10,0,10,0,1
65e14ceb873675f5079a6874,SCN,2024-06-10_15h16.54.421,LearnStrategy,2023.2.3,Win32,238.0952381,4,2,12,,,,,,,,3,10,,,,,,,,,,,4,5.01,0,,,,,,0.337963019,-0.262963019,1,0,0,5.0095,Gabbro_rect,11,0,11,0,1
65e14ceb873675f5079a6874,SCN,2024-06-10_15h16.54.421,LearnStrategy,2023.2.3,Win32,238.0952381,4,2,13,,,,,,,,5,04,,,,,,,,,,,5,0.844,1,,,,,,-0.484722222,-0.41898151,1,0,0,0.8445,Obsidian_rect,12,0,12,0,1
65e14ceb873675f5079a6874,SCN,2024-06-10_15h16.54.421,LearnStrategy,2023.2.3,Win32,238.0952381,4,2,14,,,,,,,,1,03,,,,,,,,,,,4,2.61,0,,,,,,0.344444444,-0.257870399,1,0,0,2.6096,Gabbro_rect,13,0,13,0,1
65e14ceb873675f5079a6874,SCN,2024-06-10_15h16.54.421,LearnStrategy,2023.2.3,Win32,238.0952381,4,2,15,,,,,,,,2,05,,,,,,,,,,,2,1.678,1,,,,,,-0.111111111,-0.264351908,1,0,0,1.6776,Basalt_rect,14,0,14,0,1
65e14ceb873675f5079a6874,SCN,2024-06-10_15h16.54.421,LearnStrategy,2023.2.3,Win32,238.0952381,4,2,16,,,,,,,,2,01,,,,,,,,,,,2,1.643,1,,,,,,-0.110648092,-0.263888889,1,0,0,1.6426,Basalt_rect,15,0,15,0,1
65e14ceb873675f5079a6874,SCN,2024-06-10_15h16.54.421,LearnStrategy,2023.2.3,Win32,238.0952381,5,1,1,0.554166667,-0.251851908,1,0,0,0.8586,Diorite_08,3,08,2,8,0.859,-0.172222222,-0.411574131,1,0,0,4.8692,Pegmatite_rect,6,4.869,0,0,0,0,0,1,,,,,,,,,,,,
65e14ceb873675f5079a6874,SCN,2024-06-10_15h16.54.421,LearnStrategy,2023.2.3,Win32,238.0952381,5,1,2,-0.429166667,-0.418518575,1,0,0,2.1085,Peridotite_04,7,04,1,2,2.108,0.094444444,-0.228240797,1,0,0,1.0238,Diorite_rect,3,1.024,0,1,0,1,0,1,,,,,,,,,,,,
65e14ceb873675f5079a6874,SCN,2024-06-10_15h16.54.421,LearnStrategy,2023.2.3,Win32,238.0952381,5,1,3,-0.556944444,-0.431018575,1,0,0,0.9712,Pumice_15,8,15,1,1,0.971,0.484722222,-0.3875,1,0,0,0.9546,Pumice_rect,8,0.955,1,2,0,2,0,1,,,,,,,,,,,,
65e14ceb873675f5079a6874,SCN,2024-06-10_15h16.54.421,LearnStrategy,2023.2.3,Win32,238.0952381,5,1,4,-0.52870369,-0.092592621,1,0,0,4.8746,Basalt_10,2,10,3,1,4.875,-0.171759203,-0.238888889,1,0,0,1.2931,Basalt_rect,2,1.293,1,3,0,3,0,1,,,,,,,,,,,,
65e14ceb873675f5079a6874,SCN,2024-06-10_15h16.54.421,LearnStrategy,2023.2.3,Win32,238.0952381,5,1,5,0.130092621,0.071296268,1,0,0,0.9503,Obsidian_11,5,11,4,5,0.95,-0.427777778,-0.421296353,1,0,0,0.971,Obsidian_rect,5,0.971,1,4,0,4,0,1,,,,,,,,,,,,
65e14ceb873675f5079a6874,SCN,2024-06-10_15h16.54.421,LearnStrategy,2023.2.3,Win32,238.0952381,5,1,6,0.522685242,0.429166667,1,0,0,0.5704,Pumice_10,8,10,6,8,0.57,0.360185242,-0.236574131,1,0,0,0.7384,Gabbro_rect,4,0.738,0,5,0,5,0,1,,,,,,,,,,,,
65e14ceb873675f5079a6874,SCN,2024-06-10_15h16.54.421,LearnStrategy,2023.2.3,Win32,238.0952381,5,1,7,0.373148176,0.413888889,1,0,0,0.4157,Gabbro_08,4,08,6,7,0.416,0.384722222,-0.239814843,1,0,0,0.8329,Gabbro_rect,4,0.833,1,6,0,6,0,1,,,,,,,,,,,,
65e14ceb873675f5079a6874,SCN,2024-06-10_15h16.54.421,LearnStrategy,2023.2.3,Win32,238.0952381,5,1,8,0.218518575,0.381018511,1,0,0,0.6084,Gabbro_09,4,09,6,6,0.608,-0.089351824,-0.242129686,1,0,0,1.0813,Basalt_rect,2,1.081,0,7,0,7,0,1,,,,,,,,,,,,
65e14ceb873675f5079a6874,SCN,2024-06-10_15h16.54.421,LearnStrategy,2023.2.3,Win32,238.0952381,5,1,9,0.104166667,0.377314811,1,0,0,0.4533,Andesite_01,1,01,6,5,0.453,0.147685242,-0.245370399,1,0,0,1.2689,Diorite_rect,3,1.269,0,8,0,8,0,1,,,,,,,,,,,,
65e14ceb873675f5079a6874,SCN,2024-06-10_15h16.54.421,LearnStrategy,2023.2.3,Win32,238.0952381,5,1,10,-0.192592578,0.4125,1,0,0,0.9242,Basalt_11,2,11,6,3,0.924,-0.094907379,-0.246759288,1,0,0,1.3844,Basalt_rect,2,1.384,1,9,0,9,0,1,,,,,,,,,,,,
65e14ceb873675f5079a6874,SCN,2024-06-10_15h16.54.421,LearnStrategy,2023.2.3,Win32,238.0952381,5,1,11,-0.380555556,0.413888889,1,0,0,0.6158,Peridotite_16,7,16,6,2,0.616,0.116203732,-0.403240797,1,0,0,1.5125,Peridotite_rect,7,1.513,1,10,0,10,0,1,,,,,,,,,,,,
65e14ceb873675f5079a6874,SCN,2024-06-10_15h16.54.421,LearnStrategy,2023.2.3,Win32,238.0952381,5,1,12,-0.511111111,0.433796295,1,0,0,0.6632,Gabbro_03,4,03,6,1,0.663,-0.419444444,-0.257407464,1,0,0,0.9092,Andesite_rect,1,0.909,0,11,0,11,0,1,,,,,,,,,,,,
65e14ceb873675f5079a6874,SCN,2024-06-10_15h16.54.421,LearnStrategy,2023.2.3,Win32,238.0952381,5,1,13,-0.515740712,0.230092578,1,0,0,0.9918,Basalt_16,2,16,5,1,0.992,0.336111111,-0.239814843,1,0,0,3.572,Gabbro_rect,4,3.572,0,12,0,12,0,1,,,,,,,,,,,,
65e14ceb873675f5079a6874,SCN,2024-06-10_15h16.54.421,LearnStrategy,2023.2.3,Win32,238.0952381,5,1,14,-0.375462935,0.254166667,1,0,0,0.5492,Gabbro_05,4,05,5,2,0.549,0.061574131,-0.397685242,1,0,0,1.301,Peridotite_rect,7,1.301,0,13,0,13,0,1,,,,,,,,,,,,
65e14ceb873675f5079a6874,SCN,2024-06-10_15h16.54.421,LearnStrategy,2023.2.3,Win32,238.0952381,5,1,15,-0.189351824,0.250462956,1,0,0,0.6742,Pegmatite_06,6,06,5,3,0.674,-0.126851824,-0.381944444,1,0,0,1.2554,Pegmatite_rect,6,1.255,1,14,0,14,0,1,,,,,,,,,,,,
65e14ceb873675f5079a6874,SCN,2024-06-10_15h16.54.421,LearnStrategy,2023.2.3,Win32,238.0952381,5,1,16,-0.069907379,0.2574074,1,0,0,0.7757,Pumice_16,8,16,5,4,0.776,0.364814843,-0.389814843,1,0,0,0.8401,Pumice_rect,8,0.84,1,15,0,15,0,1,,,,,,,,,,,,
65e14ceb873675f5079a6874,SCN,2024-06-10_15h16.54.421,LearnStrategy,2023.2.3,Win32,238.0952381,5,2,1,,,,,,,,2,02,,,,,,,,,,,2,4.19,1,,,,,,-0.127777778,-0.232407464,1,0,0,4.1896,Basalt_rect,0,0,0,0,1
65e14ceb873675f5079a6874,SCN,2024-06-10_15h16.54.421,LearnStrategy,2023.2.3,Win32,238.0952381,5,2,2,,,,,,,,5,07,,,,,,,,,,,5,1.452,1,,,,,,-0.500925912,-0.409722222,1,0,0,1.4516,Obsidian_rect,1,0,1,0,1
65e14ceb873675f5079a6874,SCN,2024-06-10_15h16.54.421,LearnStrategy,2023.2.3,Win32,238.0952381,5,2,3,,,,,,,,4,12,,,,,,,,,,,1,3.681,0,,,,,,-0.345833333,-0.246759288,1,0,0,3.6806,Andesite_rect,2,0,2,0,1
65e14ceb873675f5079a6874,SCN,2024-06-10_15h16.54.421,LearnStrategy,2023.2.3,Win32,238.0952381,5,2,4,,,,,,,,7,02,,,,,,,,,,,7,0.918,1,,,,,,0.189351908,-0.413425954,1,0,0,0.9176,Peridotite_rect,3,0,3,0,1
65e14ceb873675f5079a6874,SCN,2024-06-10_15h16.54.421,LearnStrategy,2023.2.3,Win32,238.0952381,5,2,5,,,,,,,,8,02,,,,,,,,,,,8,1.356,1,,,,,,0.323148176,-0.394444444,1,0,0,1.3559,Pumice_rect,4,0,4,0,1
65e14ceb873675f5079a6874,SCN,2024-06-10_15h16.54.421,LearnStrategy,2023.2.3,Win32,238.0952381,5,2,6,,,,,,,,6,12,,,,,,,,,,,6,3.597,1,,,,,,-0.082870314,-0.395370399,1,0,0,3.597,Pegmatite_rect,5,0,5,0,1
65e14ceb873675f5079a6874,SCN,2024-06-10_15h16.54.421,LearnStrategy,2023.2.3,Win32,238.0952381,5,2,7,,,,,,,,1,16,,,,,,,,,,,3,6.522,0,,,,,,0.191666667,-0.254629686,1,0,0,6.5224,Diorite_rect,6,0,6,0,1
65e14ceb873675f5079a6874,SCN,2024-06-10_15h16.54.421,LearnStrategy,2023.2.3,Win32,238.0952381,5,2,8,,,,,,,,5,14,,,,,,,,,,,5,1.297,1,,,,,,-0.378240712,-0.3875,1,0,0,1.2971,Obsidian_rect,7,0,7,0,1
65e14ceb873675f5079a6874,SCN,2024-06-10_15h16.54.421,LearnStrategy,2023.2.3,Win32,238.0952381,5,2,9,,,,,,,,3,06,,,,,,,,,,,1,2.014,0,,,,,,-0.394444444,-0.235648176,1,0,0,2.0141,Andesite_rect,8,0,8,0,1
65e14ceb873675f5079a6874,SCN,2024-06-10_15h16.54.421,LearnStrategy,2023.2.3,Win32,238.0952381,5,2,10,,,,,,,,2,12,,,,,,,,,,,4,1.01,0,,,,,,0.325463019,-0.258796353,1,0,0,1.0095,Gabbro_rect,9,0,9,0,1
65e14ceb873675f5079a6874,SCN,2024-06-10_15h16.54.421,LearnStrategy,2023.2.3,Win32,238.0952381,5,2,11,,,,,,,,6,10,,,,,,,,,,,7,1.112,0,,,,,,0.044444444,-0.410648176,1,0,0,1.1123,Peridotite_rect,10,0,10,0,1
65e14ceb873675f5079a6874,SCN,2024-06-10_15h16.54.421,LearnStrategy,2023.2.3,Win32,238.0952381,5,2,12,,,,,,,,7,14,,,,,,,,,,,7,0.913,1,,,,,,0.046759288,-0.411111111,1,0,0,0.9133,Peridotite_rect,11,0,11,0,1
65e14ceb873675f5079a6874,SCN,2024-06-10_15h16.54.421,LearnStrategy,2023.2.3,Win32,238.0952381,5,2,13,,,,,,,,1,07,,,,,,,,,,,4,3.22,0,,,,,,0.317129686,-0.246296353,1,0,0,3.2203,Gabbro_rect,12,0,12,0,1
65e14ceb873675f5079a6874,SCN,2024-06-10_15h16.54.421,LearnStrategy,2023.2.3,Win32,238.0952381,5,2,14,,,,,,,,8,05,,,,,,,,,,,8,0.951,1,,,,,,0.34398151,-0.394907464,1,0,0,0.9509,Pumice_rect,13,0,13,0,1
65e14ceb873675f5079a6874,SCN,2024-06-10_15h16.54.421,LearnStrategy,2023.2.3,Win32,238.0952381,5,2,15,,,,,,,,3,09,,,,,,,,,,,6,1.439,0,,,,,,-0.121296268,-0.378703732,1,0,0,1.4389,Pegmatite_rect,14,0,14,0,1
65e14ceb873675f5079a6874,SCN,2024-06-10_15h16.54.421,LearnStrategy,2023.2.3,Win32,238.0952381,5,2,16,,,,,,,,4,13,,,,,,,,,,,1,3.044,0,,,,,,-0.3375,-0.246296353,1,0,0,3.0443,Andesite_rect,15,0,15,0,1
65e14ceb873675f5079a6874,SCN,2024-06-10_15h16.54.421,LearnStrategy,2023.2.3,Win32,238.0952381,6,1,1,0.050463019,-0.080092621,1,0,0,1.2792,Diorite_15,3,15,3,5,1.279,0.309259288,-0.233796353,1,0,0,1.7287,Gabbro_rect,4,1.729,0,0,0,0,0,1,,,,,,,,,,,,
65e14ceb873675f5079a6874,SCN,2024-06-10_15h16.54.421,LearnStrategy,2023.2.3,Win32,238.0952381,6,1,2,0.203240797,-0.107407422,1,0,0,1.0036,Diorite_11,3,11,3,6,1.004,-0.299074046,-0.240740797,1,0,0,1.1802,Andesite_rect,1,1.18,0,1,0,1,0,1,,,,,,,,,,,,
65e14ceb873675f5079a6874,SCN,2024-06-10_15h16.54.421,LearnStrategy,2023.2.3,Win32,238.0952381,6,1,3,0.232870399,0.076851824,1,0,0,0.7201,Peridotite_06,7,06,4,6,0.72,0.119444444,-0.399074131,1,0,0,1.2033,Peridotite_rect,7,1.203,1,2,0,2,0,1,,,,,,,,,,,,
65e14ceb873675f5079a6874,SCN,2024-06-10_15h16.54.421,LearnStrategy,2023.2.3,Win32,238.0952381,6,1,4,0.132407464,0.247222222,1,0,0,1.0531,Obsidian_05,5,05,5,5,1.053,-0.299537023,-0.405555556,1,0,0,1.2713,Obsidian_rect,5,1.271,1,3,0,3,0,1,,,,,,,,,,,,
65e14ceb873675f5079a6874,SCN,2024-06-10_15h16.54.421,LearnStrategy,2023.2.3,Win32,238.0952381,6,1,5,0.267129686,0.241666667,1,0,0,0.766,Pegmatite_03,6,03,5,6,0.766,0.127777778,-0.413888889,1,0,0,1.0935,Peridotite_rect,7,1.093,0,4,0,4,0,1,,,,,,,,,,,,
65e14ceb873675f5079a6874,SCN,2024-06-10_15h16.54.421,LearnStrategy,2023.2.3,Win32,238.0952381,6,1,6,0.393518575,0.222222222,1,0,0,0.5708,Pumice_09,8,09,5,7,0.571,0.369907464,-0.388888889,1,0,0,1.1859,Pumice_rect,8,1.186,1,5,0,5,0,1,,,,,,,,,,,,
65e14ceb873675f5079a6874,SCN,2024-06-10_15h16.54.421,LearnStrategy,2023.2.3,Win32,238.0952381,6,1,7,0.558333333,0.256481467,1,0,0,0.5171,Pumice_13,8,13,5,8,0.517,-0.073148092,-0.240740797,1,0,0,1.4758,Basalt_rect,2,1.476,0,6,0,6,0,1,,,,,,,,,,,,
65e14ceb873675f5079a6874,SCN,2024-06-10_15h16.54.421,LearnStrategy,2023.2.3,Win32,238.0952381,6,1,8,-0.540277778,0.070370356,1,0,0,1.0584,Pegmatite_08,6,08,4,1,1.058,-0.107870314,-0.411111111,1,0,0,1.1414,Pegmatite_rect,6,1.141,1,7,0,7,0,1,,,,,,,,,,,,
65e14ceb873675f5079a6874,SCN,2024-06-10_15h16.54.421,LearnStrategy,2023.2.3,Win32,238.0952381,6,1,9,-0.350462935,0.107407379,1,0,0,0.4882,Pegmatite_13,6,13,4,2,0.488,-0.104166667,-0.411111111,1,0,0,2.1506,Pegmatite_rect,6,2.151,1,8,0,8,0,1,,,,,,,,,,,,
65e14ceb873675f5079a6874,SCN,2024-06-10_15h16.54.421,LearnStrategy,2023.2.3,Win32,238.0952381,6,1,10,-0.196296268,0.061574046,1,0,0,0.6049,Obsidian_16,5,16,4,3,0.605,-0.424074046,-0.393518575,1,0,0,0.4324,Obsidian_rect,5,0.432,1,9,0,9,0,1,,,,,,,,,,,,
65e14ceb873675f5079a6874,SCN,2024-06-10_15h16.54.421,LearnStrategy,2023.2.3,Win32,238.0952381,6,1,11,-0.039814758,0.106481467,1,0,0,0.374,Andesite_09,1,09,4,4,0.374,0.388888889,-0.234722222,1,0,0,1.0514,Gabbro_rect,4,1.051,0,10,0,10,0,1,,,,,,,,,,,,
65e14ceb873675f5079a6874,SCN,2024-06-10_15h16.54.421,LearnStrategy,2023.2.3,Win32,238.0952381,6,1,12,0.070370399,0.075,1,0,0,0.6489,Obsidian_11,5,11,4,5,0.649,-0.383333333,-0.421759288,1,0,0,1.0575,Obsidian_rect,5,1.057,1,11,0,11,0,1,,,,,,,,,,,,
65e14ceb873675f5079a6874,SCN,2024-06-10_15h16.54.421,LearnStrategy,2023.2.3,Win32,238.0952381,6,1,13,0.243055556,0.097222222,1,0,0,0.7448,Peridotite_06,7,06,4,6,0.745,0.144907464,-0.378240797,1,0,0,0.6151,Peridotite_rect,7,0.615,1,12,0,12,0,1,,,,,,,,,,,,
65e14ceb873675f5079a6874,SCN,2024-06-10_15h16.54.421,LearnStrategy,2023.2.3,Win32,238.0952381,6,1,14,0.431018575,0.085648134,1,0,0,0.8702,Gabbro_01,4,01,4,7,0.87,-0.440277778,-0.25648151,1,0,0,1.2822,Andesite_rect,1,1.282,0,13,0,13,0,1,,,,,,,,,,,,
65e14ceb873675f5079a6874,SCN,2024-06-10_15h16.54.421,LearnStrategy,2023.2.3,Win32,238.0952381,6,1,15,0.558796353,0.105092578,1,0,0,0.7495,Basalt_08,2,08,4,8,0.749,-0.087036981,-0.250463019,1,0,0,1.0848,Basalt_rect,2,1.085,1,14,0,14,0,1,,,,,,,,,,,,
65e14ceb873675f5079a6874,SCN,2024-06-10_15h16.54.421,LearnStrategy,2023.2.3,Win32,238.0952381,6,1,16,-0.5449074,-0.113425954,1,0,0,0.7212,Basalt_10,2,10,3,1,0.721,-0.209259245,-0.259259288,1,0,0,1.517,Basalt_rect,2,1.517,1,15,0,15,0,1,,,,,,,,,,,,
65e14ceb873675f5079a6874,SCN,2024-06-10_15h16.54.421,LearnStrategy,2023.2.3,Win32,238.0952381,6,2,1,,,,,,,,6,07,,,,,,,,,,,6,1.326,1,,,,,,-0.128240712,-0.416666667,1,0,0,1.3259,Pegmatite_rect,0,0,0,0,1
65e14ceb873675f5079a6874,SCN,2024-06-10_15h16.54.421,LearnStrategy,2023.2.3,Win32,238.0952381,6,2,2,,,,,,,,1,10,,,,,,,,,,,2,3.633,0,,,,,,-0.111111111,-0.231018575,1,0,0,3.6331,Basalt_rect,1,0,1,0,1
65e14ceb873675f5079a6874,SCN,2024-06-10_15h16.54.421,LearnStrategy,2023.2.3,Win32,238.0952381,6,2,3,,,,,,,,3,02,,,,,,,,,,,3,3.489,1,,,,,,0.109259288,-0.2625,1,0,0,3.4892,Diorite_rect,2,0,2,0,1
65e14ceb873675f5079a6874,SCN,2024-06-10_15h16.54.421,LearnStrategy,2023.2.3,Win32,238.0952381,6,2,4,,,,,,,,3,14,,,,,,,,,,,3,1.741,1,,,,,,0.109259288,-0.2625,1,0,0,1.7406,Diorite_rect,3,0,3,0,1
65e14ceb873675f5079a6874,SCN,2024-06-10_15h16.54.421,LearnStrategy,2023.2.3,Win32,238.0952381,6,2,5,,,,,,,,6,11,,,,,,,,,,,6,5.087,1,,,,,,-0.130092536,-0.418055556,1,0,0,5.0869,Pegmatite_rect,4,0,4,0,1
65e14ceb873675f5079a6874,SCN,2024-06-10_15h16.54.421,LearnStrategy,2023.2.3,Win32,238.0952381,6,2,6,,,,,,,,8,08,,,,,,,,,,,8,0.994,1,,,,,,0.345370399,-0.381018575,1,0,0,0.9935,Pumice_rect,5,0,5,0,1
65e14ceb873675f5079a6874,SCN,2024-06-10_15h16.54.421,LearnStrategy,2023.2.3,Win32,238.0952381,6,2,7,,,,,,,,7,08,,,,,,,,,,,7,0.83,1,,,,,,0.176851908,-0.380092621,1,0,0,0.8296,Peridotite_rect,6,0,6,0,1
65e14ceb873675f5079a6874,SCN,2024-06-10_15h16.54.421,LearnStrategy,2023.2.3,Win32,238.0952381,6,2,8,,,,,,,,4,15,,,,,,,,,,,1,2.166,0,,,,,,-0.425,-0.260648176,1,0,0,2.166,Andesite_rect,7,0,7,0,1
65e14ceb873675f5079a6874,SCN,2024-06-10_15h16.54.421,LearnStrategy,2023.2.3,Win32,238.0952381,6,2,9,,,,,,,,7,05,,,,,,,,,,,4,2.941,0,,,,,,0.337963019,-0.237963019,1,0,0,2.9409,Gabbro_rect,8,0,8,0,1
65e14ceb873675f5079a6874,SCN,2024-06-10_15h16.54.421,LearnStrategy,2023.2.3,Win32,238.0952381,6,2,10,,,,,,,,5,06,,,,,,,,,,,5,0.817,1,,,,,,-0.420833333,-0.388888889,1,0,0,0.8172,Obsidian_rect,9,0,9,0,1
65e14ceb873675f5079a6874,SCN,2024-06-10_15h16.54.421,LearnStrategy,2023.2.3,Win32,238.0952381,6,2,11,,,,,,,,2,14,,,,,,,,,,,4,3.026,0,,,,,,0.337963019,-0.234722222,1,0,0,3.0265,Gabbro_rect,10,0,10,0,1
65e14ceb873675f5079a6874,SCN,2024-06-10_15h16.54.421,LearnStrategy,2023.2.3,Win32,238.0952381,6,2,12,,,,,,,,1,02,,,,,,,,,,,3,3.012,0,,,,,,0.138888889,-0.242592621,1,0,0,3.0119,Diorite_rect,11,0,11,0,1
65e14ceb873675f5079a6874,SCN,2024-06-10_15h16.54.421,LearnStrategy,2023.2.3,Win32,238.0952381,6,2,13,,,,,,,,4,16,,,,,,,,,,,2,1.492,0,,,,,,-0.085648092,-0.262037065,1,0,0,1.492,Basalt_rect,12,0,12,0,1
65e14ceb873675f5079a6874,SCN,2024-06-10_15h16.54.421,LearnStrategy,2023.2.3,Win32,238.0952381,6,2,14,,,,,,,,2,09,,,,,,,,,,,4,1.901,0,,,,,,0.319444444,-0.234722222,1,0,0,1.9006,Gabbro_rect,13,0,13,0,1
65e14ceb873675f5079a6874,SCN,2024-06-10_15h16.54.421,LearnStrategy,2023.2.3,Win32,238.0952381,6,2,15,,,,,,,,8,06,,,,,,,,,,,8,1.396,1,,,,,,0.3375,-0.388425954,1,0,0,1.3957,Pumice_rect,14,0,14,0,1
65e14ceb873675f5079a6874,SCN,2024-06-10_15h16.54.421,LearnStrategy,2023.2.3,Win32,238.0952381,6,2,16,,,,,,,,5,08,,,,,,,,,,,5,1.125,1,,,,,,-0.498611111,-0.387963019,1,0,0,1.1249,Obsidian_rect,15,0,15,0,1
65e14ceb873675f5079a6874,SCN,2024-06-10_15h16.54.421,LearnStrategy,2023.2.3,Win32,238.0952381,7,1,1,0.5875,-0.418055556,1,0,0,0.8238,Andesite_06,1,06,1,8,0.824,0.403240797,-0.261574131,1,0,0,0.9929,Gabbro_rect,4,0.993,0,0,0,0,0,1,,,,,,,,,,,,
65e14ceb873675f5079a6874,SCN,2024-06-10_15h16.54.421,LearnStrategy,2023.2.3,Win32,238.0952381,7,1,2,0.360185242,-0.370833333,1,0,0,0.6251,Obsidian_02,5,02,1,7,0.625,-0.384722222,-0.418055556,1,0,0,2.0737,Obsidian_rect,5,2.074,1,1,0,1,0,1,,,,,,,,,,,,
65e14ceb873675f5079a6874,SCN,2024-06-10_15h16.54.421,LearnStrategy,2023.2.3,Win32,238.0952381,7,1,3,0.215277778,-0.406018575,1,0,0,0.6751,Andesite_04,1,04,1,6,0.675,0.121296353,-0.265277778,1,0,0,2.6129,Diorite_rect,3,2.613,0,2,0,2,0,1,,,,,,,,,,,,
65e14ceb873675f5079a6874,SCN,2024-06-10_15h16.54.421,LearnStrategy,2023.2.3,Win32,238.0952381,7,1,4,0.095370399,-0.363425954,1,0,0,0.5616,Pegmatite_15,6,15,1,5,0.562,-0.075925869,-0.401388889,1,0,0,0.8607,Pegmatite_rect,6,0.861,1,3,0,3,0,1,,,,,,,,,,,,
65e14ceb873675f5079a6874,SCN,2024-06-10_15h16.54.421,LearnStrategy,2023.2.3,Win32,238.0952381,7,1,5,-0.525,-0.243055556,1,0,0,4.499,Diorite_07,3,07,2,1,4.499,-0.419444444,-0.232870399,1,0,0,1.1767,Andesite_rect,1,1.177,0,4,0,4,0,1,,,,,,,,,,,,
65e14ceb873675f5079a6874,SCN,2024-06-10_15h16.54.421,LearnStrategy,2023.2.3,Win32,238.0952381,7,1,6,0.075,0.227314801,1,0,0,1.2908,Obsidian_05,5,05,5,5,1.291,0.113425954,-0.253703732,1,0,0,1.1396,Diorite_rect,3,1.14,0,5,0,5,0,1,,,,,,,,,,,,
65e14ceb873675f5079a6874,SCN,2024-06-10_15h16.54.421,LearnStrategy,2023.2.3,Win32,238.0952381,7,1,7,-0.384722222,0.082870356,1,0,0,1.712,Pegmatite_13,6,13,4,2,1.712,-0.115740712,-0.403240797,1,0,0,1.0127,Pegmatite_rect,6,1.013,1,6,0,6,0,1,,,,,,,,,,,,
65e14ceb873675f5079a6874,SCN,2024-06-10_15h16.54.421,LearnStrategy,2023.2.3,Win32,238.0952381,7,1,8,0.216666667,0.077314801,1,0,0,1.5037,Peridotite_06,7,06,4,6,1.504,0.158333333,-0.383333333,1,0,0,0.8775,Peridotite_rect,7,0.878,1,7,0,7,0,1,,,,,,,,,,,,
65e14ceb873675f5079a6874,SCN,2024-06-10_15h16.54.421,LearnStrategy,2023.2.3,Win32,238.0952381,7,1,9,-0.508796268,-0.415277778,1,0,0,2.2258,Pumice_15,8,15,1,1,2.226,-0.072685157,-0.247222222,1,0,0,1.6879,Basalt_rect,2,1.688,0,8,0,8,0,1,,,,,,,,,,,,
65e14ceb873675f5079a6874,SCN,2024-06-10_15h16.54.421,LearnStrategy,2023.2.3,Win32,238.0952381,7,1,10,0.563888889,-0.269444444,1,0,0,0.8406,Diorite_08,3,08,2,8,0.841,0.213425954,-0.238888889,1,0,0,1.2025,Diorite_rect,3,1.202,1,9,0,9,0,1,,,,,,,,,,,,
65e14ceb873675f5079a6874,SCN,2024-06-10_15h16.54.421,LearnStrategy,2023.2.3,Win32,238.0952381,7,1,11,0.092129686,0.402777778,1,0,0,3.4784,Andesite_01,1,01,6,5,3.478,0.181018575,-0.269444444,1,0,0,0.8217,Diorite_rect,3,0.822,0,10,0,10,0,1,,,,,,,,,,,,
65e14ceb873675f5079a6874,SCN,2024-06-10_15h16.54.421,LearnStrategy,2023.2.3,Win32,238.0952381,7,1,12,0.387963019,0.065740712,1,0,0,2.4199,Gabbro_01,4,01,4,7,2.42,0.33148151,-0.230092621,1,0,0,1.1849,Gabbro_rect,4,1.185,1,11,0,11,0,1,,,,,,,,,,,,
65e14ceb873675f5079a6874,SCN,2024-06-10_15h16.54.421,LearnStrategy,2023.2.3,Win32,238.0952381,7,1,13,0.551388889,-0.122222222,1,0,0,0.628,Andesite_05,1,05,3,8,0.628,0.348611111,-0.229629686,1,0,0,1.3356,Gabbro_rect,4,1.336,0,12,0,12,0,1,,,,,,,,,,,,
65e14ceb873675f5079a6874,SCN,2024-06-10_15h16.54.421,LearnStrategy,2023.2.3,Win32,238.0952381,7,1,14,-0.245833333,-0.272222222,1,0,0,2.7699,Peridotite_13,7,13,2,3,2.77,0.168518575,-0.390740797,1,0,0,0.6595,Peridotite_rect,7,0.659,1,13,0,13,0,1,,,,,,,,,,,,
65e14ceb873675f5079a6874,SCN,2024-06-10_15h16.54.421,LearnStrategy,2023.2.3,Win32,238.0952381,7,1,15,-0.043981425,0.049537023,1,0,0,1.0259,Andesite_09,1,09,4,4,1.026,0.372685242,-0.381018575,1,0,0,0.8337,Pumice_rect,8,0.834,0,14,0,14,0,1,,,,,,,,,,,,
65e14ceb873675f5079a6874,SCN,2024-06-10_15h16.54.421,LearnStrategy,2023.2.3,Win32,238.0952381,7,1,16,-0.378240712,0.072222222,1,0,0,1.2793,Pegmatite_13,6,13,4,2,1.279,-0.16851849,-0.413425954,1,0,0,0.7784,Pegmatite_rect,6,0.778,1,15,0,15,0,1,,,,,,,,,,,,
65e14ceb873675f5079a6874,SCN,2024-06-10_15h16.54.421,LearnStrategy,2023.2.3,Win32,238.0952381,7,2,1,,,,,,,,1,07,,,,,,,,,,,1,3.952,1,,,,,,-0.375,-0.228703732,1,0,0,3.952,Andesite_rect,0,0,0,0,1
65e14ceb873675f5079a6874,SCN,2024-06-10_15h16.54.421,LearnStrategy,2023.2.3,Win32,238.0952381,7,2,2,,,,,,,,1,03,,,,,,,,,,,1,1.751,1,,,,,,-0.406481467,-0.233796353,1,0,0,1.7514,Andesite_rect,1,0,1,0,1
65e14ceb873675f5079a6874,SCN,2024-06-10_15h16.54.421,LearnStrategy,2023.2.3,Win32,238.0952381,7,2,3,,,,,,,,8,06,,,,,,,,,,,8,1.734,1,,,,,,0.416666667,-0.402314843,1,0,0,1.7344,Pumice_rect,2,0,2,0,1
65e14ceb873675f5079a6874,SCN,2024-06-10_15h16.54.421,LearnStrategy,2023.2.3,Win32,238.0952381,7,2,4,,,,,,,,5,07,,,,,,,,,,,5,1.105,1,,,,,,-0.366666667,-0.403703732,1,0,0,1.1054,Obsidian_rect,3,0,3,0,1
65e14ceb873675f5079a6874,SCN,2024-06-10_15h16.54.421,LearnStrategy,2023.2.3,Win32,238.0952381,7,2,5,,,,,,,,8,05,,,,,,,,,,,8,2.519,1,,,,,,0.307407464,-0.385185242,1,0,0,2.5188,Pumice_rect,4,0,4,0,1
65e14ceb873675f5079a6874,SCN,2024-06-10_15h16.54.421,LearnStrategy,2023.2.3,Win32,238.0952381,7,2,6,,,,,,,,4,12,,,,,,,,,,,4,3.123,1,,,,,,0.323611111,-0.240277778,1,0,0,3.1234,Gabbro_rect,5,0,5,0,1
65e14ceb873675f5079a6874,SCN,2024-06-10_15h16.54.421,LearnStrategy,2023.2.3,Win32,238.0952381,7,2,7,,,,,,,,5,04,,,,,,,,,,,5,0.819,1,,,,,,-0.366666667,-0.403703732,1,0,0,0.8185,Obsidian_rect,6,0,6,0,1
65e14ceb873675f5079a6874,SCN,2024-06-10_15h16.54.421,LearnStrategy,2023.2.3,Win32,238.0952381,7,2,8,,,,,,,,4,11,,,,,,,,,,,4,2.378,1,,,,,,0.337037065,-0.240740797,1,0,0,2.3782,Gabbro_rect,7,0,7,0,1
65e14ceb873675f5079a6874,SCN,2024-06-10_15h16.54.421,LearnStrategy,2023.2.3,Win32,238.0952381,7,2,9,,,,,,,,2,14,,,,,,,,,,,2,2.285,1,,,,,,-0.180555556,-0.249074131,1,0,0,2.2854,Basalt_rect,8,0,8,0,1
65e14ceb873675f5079a6874,SCN,2024-06-10_15h16.54.421,LearnStrategy,2023.2.3,Win32,238.0952381,7,2,10,,,,,,,,6,16,,,,,,,,,,,6,2.077,1,,,,,,-0.144444444,-0.381018575,1,0,0,2.0767,Pegmatite_rect,9,0,9,0,1
65e14ceb873675f5079a6874,SCN,2024-06-10_15h16.54.421,LearnStrategy,2023.2.3,Win32,238.0952381,7,2,11,,,,,,,,6,10,,,,,,,,,,,7,1.773,0,,,,,,0.105092621,-0.394444444,1,0,0,1.7732,Peridotite_rect,10,0,10,0,1
65e14ceb873675f5079a6874,SCN,2024-06-10_15h16.54.421,LearnStrategy,2023.2.3,Win32,238.0952381,7,2,12,,,,,,,,3,02,,,,,,,,,,,3,3.132,1,,,,,,0.077314843,-0.261111111,1,0,0,3.1322,Diorite_rect,11,0,11,0,1
65e14ceb873675f5079a6874,SCN,2024-06-10_15h16.54.421,LearnStrategy,2023.2.3,Win32,238.0952381,7,2,13,,,,,,,,7,10,,,,,,,,,,,7,1.138,1,,,,,,0.041203732,-0.397685242,1,0,0,1.1378,Peridotite_rect,12,0,12,0,1
65e14ceb873675f5079a6874,SCN,2024-06-10_15h16.54.421,LearnStrategy,2023.2.3,Win32,238.0952381,7,2,14,,,,,,,,3,13,,,,,,,,,,,6,3.414,0,,,,,,-0.125,-0.382407464,1,0,0,3.4135,Pegmatite_rect,13,0,13,0,1
65e14ceb873675f5079a6874,SCN,2024-06-10_15h16.54.421,LearnStrategy,2023.2.3,Win32,238.0952381,7,2,15,,,,,,,,7,05,,,,,,,,,,,6,6.58,0,,,,,,-0.060185157,-0.380092621,1,0,0,6.5802,Pegmatite_rect,14,0,14,0,1
65e14ceb873675f5079a6874,SCN,2024-06-10_15h16.54.421,LearnStrategy,2023.2.3,Win32,238.0952381,7,2,16,,,,,,,,2,01,,,,,,,,,,,1,2.33,0,,,,,,-0.378240712,-0.242129686,1,0,0,2.3296,Andesite_rect,15,0,15,0,1
65e14ceb873675f5079a6874,SCN,2024-06-10_15h16.54.421,LearnStrategy,2023.2.3,Win32,238.0952381,8,1,1,0.363425954,-0.227314843,1,0,0,1.9207,Basalt_04,2,04,2,7,1.921,-0.076851824,-0.237963019,1,0,0,0.6768,Basalt_rect,2,0.677,1,0,0,0,0,1,,,,,,,,,,,,
65e14ceb873675f5079a6874,SCN,2024-06-10_15h16.54.421,LearnStrategy,2023.2.3,Win32,238.0952381,8,1,2,0.054629686,-0.10879631,1,0,0,0.75,Diorite_15,3,15,3,5,0.75,0.044907464,-0.232407464,1,0,0,2.313,Diorite_rect,3,2.313,1,1,0,1,0,1,,,,,,,,,,,,
65e14ceb873675f5079a6874,SCN,2024-06-10_15h16.54.421,LearnStrategy,2023.2.3,Win32,238.0952381,8,1,3,-0.077314758,-0.296759288,1,0,0,0.7714,Diorite_16,3,16,2,4,0.771,0.084259288,-0.235648176,1,0,0,0.6218,Diorite_rect,3,0.622,1,2,0,2,0,1,,,,,,,,,,,,
65e14ceb873675f5079a6874,SCN,2024-06-10_15h16.54.421,LearnStrategy,2023.2.3,Win32,238.0952381,8,1,4,0.386574131,0.10370369,1,0,0,0.5827,Gabbro_01,4,01,4,7,0.583,0.368055556,-0.232870399,1,0,0,1.2309,Gabbro_rect,4,1.231,1,3,0,3,0,1,,,,,,,,,,,,
65e14ceb873675f5079a6874,SCN,2024-06-10_15h16.54.421,LearnStrategy,2023.2.3,Win32,238.0952381,8,1,5,0.117592621,0.425462961,1,0,0,1.0151,Andesite_01,1,01,6,5,1.015,-0.40601849,-0.252314843,1,0,0,1.0513,Andesite_rect,1,1.051,1,4,0,4,0,1,,,,,,,,,,,,
65e14ceb873675f5079a6874,SCN,2024-06-10_15h16.54.421,LearnStrategy,2023.2.3,Win32,238.0952381,8,1,6,-0.042129601,0.261111111,1,0,0,0.6755,Pumice_16,8,16,5,4,0.676,-0.070833333,-0.260648176,1,0,0,0.8443,Basalt_rect,2,0.844,0,5,0,5,0,1,,,,,,,,,,,,
65e14ceb873675f5079a6874,SCN,2024-06-10_15h16.54.421,LearnStrategy,2023.2.3,Win32,238.0952381,8,1,7,-0.208333333,0.268518511,1,0,0,0.7832,Pegmatite_06,6,06,5,3,0.783,-0.125462935,-0.38148151,1,0,0,0.5511,Pegmatite_rect,6,0.551,1,6,0,6,0,1,,,,,,,,,,,,
65e14ceb873675f5079a6874,SCN,2024-06-10_15h16.54.421,LearnStrategy,2023.2.3,Win32,238.0952381,8,1,8,0.268055556,-0.409259288,1,0,0,1.654,Andesite_04,1,04,1,6,1.654,-0.332407379,-0.235648176,1,0,0,1.3397,Andesite_rect,1,1.34,1,7,0,7,0,1,,,,,,,,,,,,
65e14ceb873675f5079a6874,SCN,2024-06-10_15h16.54.421,LearnStrategy,2023.2.3,Win32,238.0952381,8,1,9,-0.08101849,-0.383796353,1,0,0,0.9125,Andesite_14,1,14,1,4,0.912,-0.374074046,-0.231944444,1,0,0,2.194,Andesite_rect,1,2.194,1,8,0,8,0,1,,,,,,,,,,,,
65e14ceb873675f5079a6874,SCN,2024-06-10_15h16.54.421,LearnStrategy,2023.2.3,Win32,238.0952381,8,1,10,-0.195833333,-0.396759288,1,0,0,0.6615,Gabbro_14,4,14,1,3,0.661,0.401388889,-0.232870399,1,0,0,1.433,Gabbro_rect,4,1.433,1,9,0,9,0,1,,,,,,,,,,,,
65e14ceb873675f5079a6874,SCN,2024-06-10_15h16.54.421,LearnStrategy,2023.2.3,Win32,238.0952381,8,1,11,-0.399537023,-0.383796353,1,0,0,1.0492,Peridotite_04,7,04,1,2,1.049,0.150925954,-0.410185242,1,0,0,0.9543,Peridotite_rect,7,0.954,1,10,0,10,0,1,,,,,,,,,,,,
65e14ceb873675f5079a6874,SCN,2024-06-10_15h16.54.421,LearnStrategy,2023.2.3,Win32,238.0952381,8,1,12,-0.558333333,-0.387963019,1,0,0,0.4994,Pumice_15,8,15,1,1,0.499,0.378703732,-0.398611111,1,0,0,2.0643,Pumice_rect,8,2.064,1,11,0,11,0,1,,,,,,,,,,,,
65e14ceb873675f5079a6874,SCN,2024-06-10_15h16.54.421,LearnStrategy,2023.2.3,Win32,238.0952381,8,1,13,0.530092621,-0.23148151,1,0,0,0.7081,Diorite_08,3,08,2,8,0.708,0.119907464,-0.253703732,1,0,0,1.0514,Diorite_rect,3,1.051,1,12,0,12,0,1,,,,,,,,,,,,
65e14ceb873675f5079a6874,SCN,2024-06-10_15h16.54.421,LearnStrategy,2023.2.3,Win32,238.0952381,8,1,14,0.052777778,-0.090277778,1,0,0,0.5448,Diorite_15,3,15,3,5,0.545,-0.398148134,-0.235648176,1,0,0,1.4884,Andesite_rect,1,1.488,0,13,0,13,0,1,,,,,,,,,,,,
65e14ceb873675f5079a6874,SCN,2024-06-10_15h16.54.421,LearnStrategy,2023.2.3,Win32,238.0952381,8,1,15,0.185648176,0.088888889,1,0,0,0.8625,Peridotite_06,7,06,4,6,0.863,-0.066666667,-0.408333333,1,0,0,0.7589,Pegmatite_rect,6,0.759,0,14,0,14,0,1,,,,,,,,,,,,
65e14ceb873675f5079a6874,SCN,2024-06-10_15h16.54.421,LearnStrategy,2023.2.3,Win32,238.0952381,8,1,16,0.088425954,0.208333333,1,0,0,0.9741,Obsidian_05,5,05,5,5,0.974,-0.371296268,-0.419444444,1,0,0,0.7553,Obsidian_rect,5,0.755,1,15,0,15,0,1,,,,,,,,,,,,
65e14ceb873675f5079a6874,SCN,2024-06-10_15h16.54.421,LearnStrategy,2023.2.3,Win32,238.0952381,8,2,1,,,,,,,,3,14,,,,,,,,,,,3,1.301,1,,,,,,0.068055556,-0.238888889,1,0,0,1.3012,Diorite_rect,0,0,0,0,1
65e14ceb873675f5079a6874,SCN,2024-06-10_15h16.54.421,LearnStrategy,2023.2.3,Win32,238.0952381,8,2,2,,,,,,,,7,02,,,,,,,,,,,7,1.006,1,,,,,,0.074537065,-0.396296353,1,0,0,1.0057,Peridotite_rect,1,0,1,0,1
65e14ceb873675f5079a6874,SCN,2024-06-10_15h16.54.421,LearnStrategy,2023.2.3,Win32,238.0952381,8,2,3,,,,,,,,1,16,,,,,,,,,,,1,2.285,1,,,,,,-0.359259245,-0.246296353,1,0,0,2.2854,Andesite_rect,2,0,2,0,1
65e14ceb873675f5079a6874,SCN,2024-06-10_15h16.54.421,LearnStrategy,2023.2.3,Win32,238.0952381,8,2,4,,,,,,,,3,06,,,,,,,,,,,4,1.493,0,,,,,,0.346296353,-0.243518575,1,0,0,1.4927,Gabbro_rect,3,0,3,0,1
65e14ceb873675f5079a6874,SCN,2024-06-10_15h16.54.421,LearnStrategy,2023.2.3,Win32,238.0952381,8,2,5,,,,,,,,5,14,,,,,,,,,,,5,0.774,1,,,,,,-0.475,-0.384259288,1,0,0,0.7737,Obsidian_rect,4,0,4,0,1
65e14ceb873675f5079a6874,SCN,2024-06-10_15h16.54.421,LearnStrategy,2023.2.3,Win32,238.0952381,8,2,6,,,,,,,,6,12,,,,,,,,,,,3,4.787,0,,,,,,0.09398151,-0.251851908,1,0,0,4.7869,Diorite_rect,5,0,5,0,1
65e14ceb873675f5079a6874,SCN,2024-06-10_15h16.54.421,LearnStrategy,2023.2.3,Win32,238.0952381,8,2,7,,,,,,,,2,05,,,,,,,,,,,2,0.888,1,,,,,,-0.088425869,-0.256018575,1,0,0,0.8882,Basalt_rect,6,0,6,0,1
65e14ceb873675f5079a6874,SCN,2024-06-10_15h16.54.421,LearnStrategy,2023.2.3,Win32,238.0952381,8,2,8,,,,,,,,4,16,,,,,,,,,,,2,1.485,0,,,,,,-0.099074046,-0.249537065,1,0,0,1.4853,Basalt_rect,7,0,7,0,1
65e14ceb873675f5079a6874,SCN,2024-06-10_15h16.54.421,LearnStrategy,2023.2.3,Win32,238.0952381,8,2,9,,,,,,,,8,02,,,,,,,,,,,8,1.406,1,,,,,,0.334259288,-0.394907464,1,0,0,1.4055,Pumice_rect,8,0,8,0,1
65e14ceb873675f5079a6874,SCN,2024-06-10_15h16.54.421,LearnStrategy,2023.2.3,Win32,238.0952381,8,2,10,,,,,,,,8,04,,,,,,,,,,,8,0.561,1,,,,,,0.31898151,-0.410648176,1,0,0,0.5606,Pumice_rect,9,0,9,0,1
65e14ceb873675f5079a6874,SCN,2024-06-10_15h16.54.421,LearnStrategy,2023.2.3,Win32,238.0952381,8,2,11,,,,,,,,6,05,,,,,,,,,,,6,2.884,1,,,,,,-0.097685157,-0.398611111,1,0,0,2.884,Pegmatite_rect,10,0,10,0,1
65e14ceb873675f5079a6874,SCN,2024-06-10_15h16.54.421,LearnStrategy,2023.2.3,Win32,238.0952381,8,2,12,,,,,,,,2,09,,,,,,,,,,,2,1.265,1,,,,,,-0.144444444,-0.247222222,1,0,0,1.2647,Basalt_rect,11,0,11,0,1
65e14ceb873675f5079a6874,SCN,2024-06-10_15h16.54.421,LearnStrategy,2023.2.3,Win32,238.0952381,8,2,13,,,,,,,,7,08,,,,,,,,,,,7,1.152,1,,,,,,0.117592621,-0.397222222,1,0,0,1.1521,Peridotite_rect,12,0,12,0,1
65e14ceb873675f5079a6874,SCN,2024-06-10_15h16.54.421,LearnStrategy,2023.2.3,Win32,238.0952381,8,2,14,,,,,,,,1,10,,,,,,,,,,,2,1.603,0,,,,,,-0.101851824,-0.268518575,1,0,0,1.603,Basalt_rect,13,0,13,0,1
65e14ceb873675f5079a6874,SCN,2024-06-10_15h16.54.421,LearnStrategy,2023.2.3,Win32,238.0952381,8,2,15,,,,,,,,5,06,,,,,,,,,,,5,0.819,1,,,,,,-0.340277778,-0.401851908,1,0,0,0.8189,Obsidian_rect,14,0,14,0,1
65e14ceb873675f5079a6874,SCN,2024-06-10_15h16.54.421,LearnStrategy,2023.2.3,Win32,238.0952381,8,2,16,,,,,,,,4,13,,,,,,,,,,,2,1.957,0,,,,,,-0.132407379,-0.255555556,1,0,0,1.9566,Basalt_rect,15,0,15,0,1
65e14ceb873675f5079a6874,SCN,2024-06-10_15h16.54.421,LearnStrategy,2023.2.3,Win32,238.0952381,9,1,1,0.579166667,0.382870367,1,0,0,0.7406,Pumice_10,8,10,6,8,0.741,0.339351908,-0.237037065,1,0,0,3.7622,Gabbro_rect,4,3.762,0,0,0,0,0,1,,,,,,,,,,,,
65e14ceb873675f5079a6874,SCN,2024-06-10_15h16.54.421,LearnStrategy,2023.2.3,Win32,238.0952381,9,1,2,0.557407464,0.217592578,1,0,0,0.7773,Pumice_13,8,13,5,8,0.777,0.375,-0.385648176,1,0,0,0.5281,Pumice_rect,8,0.528,1,1,0,1,0,1,,,,,,,,,,,,
65e14ceb873675f5079a6874,SCN,2024-06-10_15h16.54.421,LearnStrategy,2023.2.3,Win32,238.0952381,9,1,3,0.510185242,0.098611111,1,0,0,0.466,Basalt_08,2,08,4,8,0.466,-0.084259203,-0.258333333,1,0,0,1.3478,Basalt_rect,2,1.348,1,2,0,2,0,1,,,,,,,,,,,,
65e14ceb873675f5079a6874,SCN,2024-06-10_15h16.54.421,LearnStrategy,2023.2.3,Win32,238.0952381,9,1,4,0.531944444,-0.085648176,1,0,0,0.4535,Andesite_05,1,05,3,8,0.453,-0.347685157,-0.259722222,1,0,0,1.2103,Andesite_rect,1,1.21,1,3,0,3,0,1,,,,,,,,,,,,
65e14ceb873675f5079a6874,SCN,2024-06-10_15h16.54.421,LearnStrategy,2023.2.3,Win32,238.0952381,9,1,5,0.501388889,-0.233333333,1,0,0,0.4827,Diorite_08,3,08,2,8,0.483,0.132870399,-0.269907464,1,0,0,2.0653,Diorite_rect,3,2.065,1,4,0,4,0,1,,,,,,,,,,,,
65e14ceb873675f5079a6874,SCN,2024-06-10_15h16.54.421,LearnStrategy,2023.2.3,Win32,238.0952381,9,1,6,0.6,-0.442129686,1,0,0,0.666,Andesite_06,1,06,1,8,0.666,0.345370399,-0.245370399,1,0,0,2.2317,Gabbro_rect,4,2.232,0,5,0,5,0,1,,,,,,,,,,,,
65e14ceb873675f5079a6874,SCN,2024-06-10_15h16.54.421,LearnStrategy,2023.2.3,Win32,238.0952381,9,1,7,0.418055556,-0.112962977,1,0,0,0.7457,Peridotite_07,7,07,3,7,0.746,0.137037065,-0.387963019,1,0,0,1.637,Peridotite_rect,7,1.637,1,6,0,6,0,1,,,,,,,,,,,,
65e14ceb873675f5079a6874,SCN,2024-06-10_15h16.54.421,LearnStrategy,2023.2.3,Win32,238.0952381,9,1,8,0.375463019,-0.206944444,1,0,0,0.5035,Basalt_04,2,04,2,7,0.504,-0.045370314,-0.266203732,1,0,0,1.7095,Basalt_rect,2,1.709,1,7,0,7,0,1,,,,,,,,,,,,
65e14ceb873675f5079a6874,SCN,2024-06-10_15h16.54.421,LearnStrategy,2023.2.3,Win32,238.0952381,9,1,9,0.346759288,-0.366666667,1,0,0,0.6456,Obsidian_02,5,02,1,7,0.646,-0.365740712,-0.409722222,1,0,0,0.7486,Obsidian_rect,5,0.749,1,8,0,8,0,1,,,,,,,,,,,,
65e14ceb873675f5079a6874,SCN,2024-06-10_15h16.54.421,LearnStrategy,2023.2.3,Win32,238.0952381,9,1,10,0.102314843,-0.115277778,1,0,0,0.745,Diorite_15,3,15,3,5,0.745,-0.354166667,-0.254629686,1,0,0,9.1981,Andesite_rect,1,9.198,0,9,0,9,0,1,,,,,,,,,,,,
65e14ceb873675f5079a6874,SCN,2024-06-10_15h16.54.421,LearnStrategy,2023.2.3,Win32,238.0952381,9,1,11,-0.220370356,-0.258333333,1,0,0,0.8619,Peridotite_13,7,13,2,3,0.862,0.092129686,-0.381944444,1,0,0,1.0633,Peridotite_rect,7,1.063,1,10,0,10,0,1,,,,,,,,,,,,
65e14ceb873675f5079a6874,SCN,2024-06-10_15h16.54.421,LearnStrategy,2023.2.3,Win32,238.0952381,9,1,12,-0.537037023,-0.127314843,1,0,0,0.9119,Basalt_10,2,10,3,1,0.912,-0.116666667,-0.239814843,1,0,0,2.0587,Basalt_rect,2,2.059,1,11,0,11,0,1,,,,,,,,,,,,
65e14ceb873675f5079a6874,SCN,2024-06-10_15h16.54.421,LearnStrategy,2023.2.3,Win32,238.0952381,9,1,13,-0.546296289,0.224074067,1,0,0,0.9092,Basalt_16,2,16,5,1,0.909,-0.149536981,-0.230092621,1,0,0,0.8749,Basalt_rect,2,0.875,1,12,0,12,0,1,,,,,,,,,,,,
65e14ceb873675f5079a6874,SCN,2024-06-10_15h16.54.421,LearnStrategy,2023.2.3,Win32,238.0952381,9,1,14,-0.515740712,0.375,1,0,0,0.4543,Gabbro_03,4,03,6,1,0.454,-0.354166667,-0.232407464,1,0,0,1.4858,Andesite_rect,1,1.486,0,13,0,13,0,1,,,,,,,,,,,,
65e14ceb873675f5079a6874,SCN,2024-06-10_15h16.54.421,LearnStrategy,2023.2.3,Win32,238.0952381,9,1,15,0.103703732,0.276851845,1,0,0,0.7984,Obsidian_05,5,05,5,5,0.798,-0.414814801,-0.389814843,1,0,0,0.6888,Obsidian_rect,5,0.689,1,14,0,14,0,1,,,,,,,,,,,,
65e14ceb873675f5079a6874,SCN,2024-06-10_15h16.54.421,LearnStrategy,2023.2.3,Win32,238.0952381,9,1,16,0.038888889,0.064351824,1,0,0,0.5675,Obsidian_11,5,11,4,5,0.567,-0.373611111,-0.388425954,1,0,0,0.6803,Obsidian_rect,5,0.68,1,15,0,15,0,1,,,,,,,,,,,,
65e14ceb873675f5079a6874,SCN,2024-06-10_15h16.54.421,LearnStrategy,2023.2.3,Win32,238.0952381,9,2,1,,,,,,,,8,08,,,,,,,,,,,8,1.614,1,,,,,,0.358796353,-0.400925954,1,0,0,1.6142,Pumice_rect,0,0,0,0,1
65e14ceb873675f5079a6874,SCN,2024-06-10_15h16.54.421,LearnStrategy,2023.2.3,Win32,238.0952381,9,2,2,,,,,,,,1,02,,,,,,,,,,,1,3.285,1,,,,,,-0.331944444,-0.255092621,1,0,0,3.285,Andesite_rect,1,0,1,0,1
65e14ceb873675f5079a6874,SCN,2024-06-10_15h16.54.421,LearnStrategy,2023.2.3,Win32,238.0952381,9,2,3,,,,,,,,7,14,,,,,,,,,,,7,2.468,1,,,,,,0.074074131,-0.381944444,1,0,0,2.4677,Peridotite_rect,2,0,2,0,1
65e14ceb873675f5079a6874,SCN,2024-06-10_15h16.54.421,LearnStrategy,2023.2.3,Win32,238.0952381,9,2,4,,,,,,,,5,10,,,,,,,,,,,5,0.872,1,,,,,,-0.362962935,-0.395370399,1,0,0,0.8725,Obsidian_rect,3,0,3,0,1
65e14ceb873675f5079a6874,SCN,2024-06-10_15h16.54.421,LearnStrategy,2023.2.3,Win32,238.0952381,9,2,5,,,,,,,,4,15,,,,,,,,,,,3,1.464,0,,,,,,0.064814843,-0.25,1,0,0,1.4644,Diorite_rect,4,0,4,0,1
65e14ceb873675f5079a6874,SCN,2024-06-10_15h16.54.421,LearnStrategy,2023.2.3,Win32,238.0952381,9,2,6,,,,,,,,2,12,,,,,,,,,,,4,2.127,0,,,,,,0.369907464,-0.242129686,1,0,0,2.1269,Gabbro_rect,5,0,5,0,1
65e14ceb873675f5079a6874,SCN,2024-06-10_15h16.54.421,LearnStrategy,2023.2.3,Win32,238.0952381,9,2,7,,,,,,,,2,02,,,,,,,,,,,2,1.215,1,,,,,,-0.080555556,-0.271759288,1,0,0,1.2149,Basalt_rect,6,0,6,0,1
65e14ceb873675f5079a6874,SCN,2024-06-10_15h16.54.421,LearnStrategy,2023.2.3,Win32,238.0952381,9,2,8,,,,,,,,3,09,,,,,,,,,,,3,1.165,1,,,,,,0.081944444,-0.269907464,1,0,0,1.1653,Diorite_rect,7,0,7,0,1
65e14ceb873675f5079a6874,SCN,2024-06-10_15h16.54.421,LearnStrategy,2023.2.3,Win32,238.0952381,9,2,9,,,,,,,,8,03,,,,,,,,,,,8,1.085,1,,,,,,0.334722222,-0.412963019,1,0,0,1.085,Pumice_rect,8,0,8,0,1
65e14ceb873675f5079a6874,SCN,2024-06-10_15h16.54.421,LearnStrategy,2023.2.3,Win32,238.0952381,9,2,10,,,,,,,,1,11,,,,,,,,,,,1,3.307,1,,,,,,-0.368981467,-0.268518575,1,0,0,3.3073,Andesite_rect,9,0,9,0,1
65e14ceb873675f5079a6874,SCN,2024-06-10_15h16.54.421,LearnStrategy,2023.2.3,Win32,238.0952381,9,2,11,,,,,,,,4,10,,,,,,,,,,,2,3.456,0,,,,,,-0.049536981,-0.234259288,1,0,0,3.4562,Basalt_rect,10,0,10,0,1
65e14ceb873675f5079a6874,SCN,2024-06-10_15h16.54.421,LearnStrategy,2023.2.3,Win32,238.0952381,9,2,12,,,,,,,,3,10,,,,,,,,,,,1,2.275,0,,,,,,-0.36620369,-0.271296353,1,0,0,2.2755,Andesite_rect,11,0,11,0,1
65e14ceb873675f5079a6874,SCN,2024-06-10_15h16.54.421,LearnStrategy,2023.2.3,Win32,238.0952381,9,2,13,,,,,,,,7,12,,,,,,,,,,,7,0.985,1,,,,,,0.178703732,-0.392129686,1,0,0,0.9849,Peridotite_rect,12,0,12,0,1
65e14ceb873675f5079a6874,SCN,2024-06-10_15h16.54.421,LearnStrategy,2023.2.3,Win32,238.0952381,9,2,14,,,,,,,,6,07,,,,,,,,,,,6,1.49,1,,,,,,-0.086111111,-0.386111111,1,0,0,1.4899,Pegmatite_rect,13,0,13,0,1
65e14ceb873675f5079a6874,SCN,2024-06-10_15h16.54.421,LearnStrategy,2023.2.3,Win32,238.0952381,9,2,15,,,,,,,,5,08,,,,,,,,,,,5,0.798,1,,,,,,-0.46620369,-0.416203732,1,0,0,0.7976,Obsidian_rect,14,0,14,0,1
65e14ceb873675f5079a6874,SCN,2024-06-10_15h16.54.421,LearnStrategy,2023.2.3,Win32,238.0952381,9,2,16,,,,,,,,6,11,,,,,,,,,,,6,1.443,1,,,,,,-0.171296268,-0.383796353,1,0,0,1.4426,Pegmatite_rect,15,0,15,0,1
65e14ceb873675f5079a6874,SCN,2024-06-10_15h16.54.421,LearnStrategy,2023.2.3,Win32,238.0952381,,,,,,,,,,,,,,,,,,,,,,,,,,,,,,,,,,,,,,,,,,
65e14ceb873675f5079a6874,SCN,2024-06-10_15h16.54.421,LearnStrategy,2023.2.3,Win32,238.0952381,,,,,,,,,,,,,,,,,,,,,,,,,,,,,,,,,,,,,,,,,,
65e14ceb873675f5079a6874,SCN,2024-06-10_15h16.54.421,LearnStrategy,2023.2.3,Win32,238.0952381,,,,,,,,,,,8,15,1,1,,,,,,,,,,,,,,,,,,,,,,,,,,,,
65e14ceb873675f5079a6874,SCN,2024-06-10_15h16.54.421,LearnStrategy,2023.2.3,Win32,238.0952381,,,,,,,,,,,7,04,1,2,,,,,,,,,,,,,,,,,,,,,,,,,,,,
65e14ceb873675f5079a6874,SCN,2024-06-10_15h16.54.421,LearnStrategy,2023.2.3,Win32,238.0952381,,,,,,,,,,,4,14,1,3,,,,,,,,,,,,,,,,,,,,,,,,,,,,
65e14ceb873675f5079a6874,SCN,2024-06-10_15h16.54.421,LearnStrategy,2023.2.3,Win32,238.0952381,,,,,,,,,,,1,14,1,4,,,,,,,,,,,,,,,,,,,,,,,,,,,,
65e14ceb873675f5079a6874,SCN,2024-06-10_15h16.54.421,LearnStrategy,2023.2.3,Win32,238.0952381,,,,,,,,,,,6,15,1,5,,,,,,,,,,,,,,,,,,,,,,,,,,,,
65e14ceb873675f5079a6874,SCN,2024-06-10_15h16.54.421,LearnStrategy,2023.2.3,Win32,238.0952381,,,,,,,,,,,1,04,1,6,,,,,,,,,,,,,,,,,,,,,,,,,,,,
65e14ceb873675f5079a6874,SCN,2024-06-10_15h16.54.421,LearnStrategy,2023.2.3,Win32,238.0952381,,,,,,,,,,,5,02,1,7,,,,,,,,,,,,,,,,,,,,,,,,,,,,
65e14ceb873675f5079a6874,SCN,2024-06-10_15h16.54.421,LearnStrategy,2023.2.3,Win32,238.0952381,,,,,,,,,,,1,06,1,8,,,,,,,,,,,,,,,,,,,,,,,,,,,,
65e14ceb873675f5079a6874,SCN,2024-06-10_15h16.54.421,LearnStrategy,2023.2.3,Win32,238.0952381,,,,,,,,,,,3,07,2,1,,,,,,,,,,,,,,,,,,,,,,,,,,,,
65e14ceb873675f5079a6874,SCN,2024-06-10_15h16.54.421,LearnStrategy,2023.2.3,Win32,238.0952381,,,,,,,,,,,2,06,2,2,,,,,,,,,,,,,,,,,,,,,,,,,,,,
65e14ceb873675f5079a6874,SCN,2024-06-10_15h16.54.421,LearnStrategy,2023.2.3,Win32,238.0952381,,,,,,,,,,,7,13,2,3,,,,,,,,,,,,,,,,,,,,,,,,,,,,
65e14ceb873675f5079a6874,SCN,2024-06-10_15h16.54.421,LearnStrategy,2023.2.3,Win32,238.0952381,,,,,,,,,,,3,16,2,4,,,,,,,,,,,,,,,,,,,,,,,,,,,,
65e14ceb873675f5079a6874,SCN,2024-06-10_15h16.54.421,LearnStrategy,2023.2.3,Win32,238.0952381,,,,,,,,,,,3,12,2,5,,,,,,,,,,,,,,,,,,,,,,,,,,,,
65e14ceb873675f5079a6874,SCN,2024-06-10_15h16.54.421,LearnStrategy,2023.2.3,Win32,238.0952381,,,,,,,,,,,7,15,2,6,,,,,,,,,,,,,,,,,,,,,,,,,,,,
65e14ceb873675f5079a6874,SCN,2024-06-10_15h16.54.421,LearnStrategy,2023.2.3,Win32,238.0952381,,,,,,,,,,,2,04,2,7,,,,,,,,,,,,,,,,,,,,,,,,,,,,
65e14ceb873675f5079a6874,SCN,2024-06-10_15h16.54.421,LearnStrategy,2023.2.3,Win32,238.0952381,,,,,,,,,,,3,08,2,8,,,,,,,,,,,,,,,,,,,,,,,,,,,,
65e14ceb873675f5079a6874,SCN,2024-06-10_15h16.54.421,LearnStrategy,2023.2.3,Win32,238.0952381,,,,,,,,,,,2,10,3,1,,,,,,,,,,,,,,,,,,,,,,,,,,,,
65e14ceb873675f5079a6874,SCN,2024-06-10_15h16.54.421,LearnStrategy,2023.2.3,Win32,238.0952381,,,,,,,,,,,6,09,3,2,,,,,,,,,,,,,,,,,,,,,,,,,,,,
65e14ceb873675f5079a6874,SCN,2024-06-10_15h16.54.421,LearnStrategy,2023.2.3,Win32,238.0952381,,,,,,,,,,,5,12,3,3,,,,,,,,,,,,,,,,,,,,,,,,,,,,
65e14ceb873675f5079a6874,SCN,2024-06-10_15h16.54.421,LearnStrategy,2023.2.3,Win32,238.0952381,,,,,,,,,,,5,09,3,4,,,,,,,,,,,,,,,,,,,,,,,,,,,,
65e14ceb873675f5079a6874,SCN,2024-06-10_15h16.54.421,LearnStrategy,2023.2.3,Win32,238.0952381,,,,,,,,,,,3,15,3,5,,,,,,,,,,,,,,,,,,,,,,,,,,,,
65e14ceb873675f5079a6874,SCN,2024-06-10_15h16.54.421,LearnStrategy,2023.2.3,Win32,238.0952381,,,,,,,,,,,3,11,3,6,,,,,,,,,,,,,,,,,,,,,,,,,,,,
65e14ceb873675f5079a6874,SCN,2024-06-10_15h16.54.421,LearnStrategy,2023.2.3,Win32,238.0952381,,,,,,,,,,,7,07,3,7,,,,,,,,,,,,,,,,,,,,,,,,,,,,
65e14ceb873675f5079a6874,SCN,2024-06-10_15h16.54.421,LearnStrategy,2023.2.3,Win32,238.0952381,,,,,,,,,,,1,05,3,8,,,,,,,,,,,,,,,,,,,,,,,,,,,,
65e14ceb873675f5079a6874,SCN,2024-06-10_15h16.54.421,LearnStrategy,2023.2.3,Win32,238.0952381,,,,,,,,,,,6,08,4,1,,,,,,,,,,,,,,,,,,,,,,,,,,,,
65e14ceb873675f5079a6874,SCN,2024-06-10_15h16.54.421,LearnStrategy,2023.2.3,Win32,238.0952381,,,,,,,,,,,6,13,4,2,,,,,,,,,,,,,,,,,,,,,,,,,,,,
65e14ceb873675f5079a6874,SCN,2024-06-10_15h16.54.421,LearnStrategy,2023.2.3,Win32,238.0952381,,,,,,,,,,,5,16,4,3,,,,,,,,,,,,,,,,,,,,,,,,,,,,
65e14ceb873675f5079a6874,SCN,2024-06-10_15h16.54.421,LearnStrategy,2023.2.3,Win32,238.0952381,,,,,,,,,,,1,09,4,4,,,,,,,,,,,,,,,,,,,,,,,,,,,,
65e14ceb873675f5079a6874,SCN,2024-06-10_15h16.54.421,LearnStrategy,2023.2.3,Win32,238.0952381,,,,,,,,,,,5,11,4,5,,,,,,,,,,,,,,,,,,,,,,,,,,,,
65e14ceb873675f5079a6874,SCN,2024-06-10_15h16.54.421,LearnStrategy,2023.2.3,Win32,238.0952381,,,,,,,,,,,7,06,4,6,,,,,,,,,,,,,,,,,,,,,,,,,,,,
65e14ceb873675f5079a6874,SCN,2024-06-10_15h16.54.421,LearnStrategy,2023.2.3,Win32,238.0952381,,,,,,,,,,,4,01,4,7,,,,,,,,,,,,,,,,,,,,,,,,,,,,
65e14ceb873675f5079a6874,SCN,2024-06-10_15h16.54.421,LearnStrategy,2023.2.3,Win32,238.0952381,,,,,,,,,,,2,08,4,8,,,,,,,,,,,,,,,,,,,,,,,,,,,,
65e14ceb873675f5079a6874,SCN,2024-06-10_15h16.54.421,LearnStrategy,2023.2.3,Win32,238.0952381,,,,,,,,,,,2,16,5,1,,,,,,,,,,,,,,,,,,,,,,,,,,,,
65e14ceb873675f5079a6874,SCN,2024-06-10_15h16.54.421,LearnStrategy,2023.2.3,Win32,238.0952381,,,,,,,,,,,4,05,5,2,,,,,,,,,,,,,,,,,,,,,,,,,,,,
65e14ceb873675f5079a6874,SCN,2024-06-10_15h16.54.421,LearnStrategy,2023.2.3,Win32,238.0952381,,,,,,,,,,,6,06,5,3,,,,,,,,,,,,,,,,,,,,,,,,,,,,
65e14ceb873675f5079a6874,SCN,2024-06-10_15h16.54.421,LearnStrategy,2023.2.3,Win32,238.0952381,,,,,,,,,,,8,16,5,4,,,,,,,,,,,,,,,,,,,,,,,,,,,,
65e14ceb873675f5079a6874,SCN,2024-06-10_15h16.54.421,LearnStrategy,2023.2.3,Win32,238.0952381,,,,,,,,,,,5,05,5,5,,,,,,,,,,,,,,,,,,,,,,,,,,,,
65e14ceb873675f5079a6874,SCN,2024-06-10_15h16.54.421,LearnStrategy,2023.2.3,Win32,238.0952381,,,,,,,,,,,6,03,5,6,,,,,,,,,,,,,,,,,,,,,,,,,,,,
65e14ceb873675f5079a6874,SCN,2024-06-10_15h16.54.421,LearnStrategy,2023.2.3,Win32,238.0952381,,,,,,,,,,,8,09,5,7,,,,,,,,,,,,,,,,,,,,,,,,,,,,
65e14ceb873675f5079a6874,SCN,2024-06-10_15h16.54.421,LearnStrategy,2023.2.3,Win32,238.0952381,,,,,,,,,,,8,13,5,8,,,,,,,,,,,,,,,,,,,,,,,,,,,,
65e14ceb873675f5079a6874,SCN,2024-06-10_15h16.54.421,LearnStrategy,2023.2.3,Win32,238.0952381,,,,,,,,,,,4,03,6,1,,,,,,,,,,,,,,,,,,,,,,,,,,,,
65e14ceb873675f5079a6874,SCN,2024-06-10_15h16.54.421,LearnStrategy,2023.2.3,Win32,238.0952381,,,,,,,,,,,7,16,6,2,,,,,,,,,,,,,,,,,,,,,,,,,,,,
65e14ceb873675f5079a6874,SCN,2024-06-10_15h16.54.421,LearnStrategy,2023.2.3,Win32,238.0952381,,,,,,,,,,,2,11,6,3,,,,,,,,,,,,,,,,,,,,,,,,,,,,
65e14ceb873675f5079a6874,SCN,2024-06-10_15h16.54.421,LearnStrategy,2023.2.3,Win32,238.0952381,,,,,,,,,,,8,14,6,4,,,,,,,,,,,,,,,,,,,,,,,,,,,,
65e14ceb873675f5079a6874,SCN,2024-06-10_15h16.54.421,LearnStrategy,2023.2.3,Win32,238.0952381,,,,,,,,,,,1,01,6,5,,,,,,,,,,,,,,,,,,,,,,,,,,,,
65e14ceb873675f5079a6874,SCN,2024-06-10_15h16.54.421,LearnStrategy,2023.2.3,Win32,238.0952381,,,,,,,,,,,4,09,6,6,,,,,,,,,,,,,,,,,,,,,,,,,,,,
65e14ceb873675f5079a6874,SCN,2024-06-10_15h16.54.421,LearnStrategy,2023.2.3,Win32,238.0952381,,,,,,,,,,,4,08,6,7,,,,,,,,,,,,,,,,,,,,,,,,,,,,
65e14ceb873675f5079a6874,SCN,2024-06-10_15h16.54.421,LearnStrategy,2023.2.3,Win32,238.0952381,,,,,,,,,,,8,10,6,8,,,,,,,,,,,,,,,,,,,,,,,,,,,,