participant,condition,date,expName,psychopyVersion,OS,frameRate,block,phase,trial,learn_mouse.x,learn_mouse.y,learn_mouse.leftButton,learn_mouse.midButton,learn_mouse.rightButton,learn_mouse.time,learn_mouse.clicked_name,cat,token,row,col,t_select,cat_mouse_l.x,cat_mouse_l.y,cat_mouse_l.leftButton,cat_mouse_l.midButton,cat_mouse_l.rightButton,cat_mouse_l.time,cat_mouse_l.clicked_name,resp,t_resp,corr,train_trials.thisRepN,train_trials.thisTrialN,train_trials.thisN,train_trials.thisIndex,train_trials.ran,cat_mouse_t.x,cat_mouse_t.y,cat_mouse_t.leftButton,cat_mouse_t.midButton,cat_mouse_t.rightButton,cat_mouse_t.time,cat_mouse_t.clicked_name,test_trials.thisRepN,test_trials.thisTrialN,test_trials.thisN,test_trials.thisIndex,test_trials.ran,Bonus
65ec6e1775ee75820dab11bb,SCN,2024-06-20_16h40.59.717,LearnStrategy,2023.2.3,Win32,30.03003003,,,,,,,,,,,,,,,,,,,,,,,,,,,,,,,,,,,,,,,,,,,
65ec6e1775ee75820dab11bb,SCN,2024-06-20_16h40.59.717,LearnStrategy,2023.2.3,Win32,30.03003003,1,1,1,-0.077777778,0.09351849,1,0,0,4.1009,Obsidian_06,5,06,4,4,4.101,-0.126851824,-0.245370399,1,0,0,8.4496,Basalt_rect,2,8.45,0,0,0,0,0,1,,,,,,,,,,,,,
65ec6e1775ee75820dab11bb,SCN,2024-06-20_16h40.59.717,LearnStrategy,2023.2.3,Win32,30.03003003,1,1,2,-0.087962935,0.089814801,1,0,0,1.9952,Obsidian_06,5,06,4,4,1.995,-0.408333333,-0.393518575,1,0,0,5.4633,Obsidian_rect,5,5.463,1,1,0,1,0,1,,,,,,,,,,,,,
65ec6e1775ee75820dab11bb,SCN,2024-06-20_16h40.59.717,LearnStrategy,2023.2.3,Win32,30.03003003,1,1,3,0.066666667,0.247222222,1,0,0,2.2548,Gabbro_01,4,01,5,5,2.255,0.049074131,-0.246296353,1,0,0,3.1262,Diorite_rect,3,3.126,0,2,0,2,0,1,,,,,,,,,,,,,
65ec6e1775ee75820dab11bb,SCN,2024-06-20_16h40.59.717,LearnStrategy,2023.2.3,Win32,30.03003003,1,1,4,0.223148176,0.12870369,1,0,0,1.8295,Gabbro_11,4,11,4,6,1.829,-0.163888889,-0.233333333,1,0,0,1.9733,Basalt_rect,2,1.973,0,3,0,3,0,1,,,,,,,,,,,,,
65ec6e1775ee75820dab11bb,SCN,2024-06-20_16h40.59.717,LearnStrategy,2023.2.3,Win32,30.03003003,1,1,5,0.380555556,0.098148134,1,0,0,1.5941,Peridotite_15,7,15,4,7,1.594,0.082407464,-0.382407464,1,0,0,2.9045,Peridotite_rect,7,2.904,1,4,0,4,0,1,,,,,,,,,,,,,
65ec6e1775ee75820dab11bb,SCN,2024-06-20_16h40.59.717,LearnStrategy,2023.2.3,Win32,30.03003003,1,1,6,0.509259288,0.108333333,1,0,0,2.1295,Pumice_14,8,14,4,8,2.13,0.316666667,-0.38148151,1,0,0,2.8203,Pumice_rect,8,2.82,1,5,0,5,0,1,,,,,,,,,,,,,
65ec6e1775ee75820dab11bb,SCN,2024-06-20_16h40.59.717,LearnStrategy,2023.2.3,Win32,30.03003003,1,1,7,-0.536111111,0.104629601,1,0,0,3.0247,Pegmatite_15,6,15,4,1,3.025,-0.074074046,-0.386111111,1,0,0,4.5985,Pegmatite_rect,6,4.598,1,6,0,6,0,1,,,,,,,,,,,,,
65ec6e1775ee75820dab11bb,SCN,2024-06-20_16h40.59.717,LearnStrategy,2023.2.3,Win32,30.03003003,1,1,8,-0.560185178,0.256481467,1,0,0,1.8232,Andesite_04,1,04,5,1,1.823,0.355555556,-0.247222222,1,0,0,3.9884,Gabbro_rect,4,3.988,0,7,0,7,0,1,,,,,,,,,,,,,
65ec6e1775ee75820dab11bb,SCN,2024-06-20_16h40.59.717,LearnStrategy,2023.2.3,Win32,30.03003003,1,1,9,-0.09351849,0.286111111,1,0,0,1.6949,Pegmatite_09,6,09,5,4,1.695,0.076851908,-0.387037065,1,0,0,2.9727,Peridotite_rect,7,2.973,0,8,0,8,0,1,,,,,,,,,,,,,
65ec6e1775ee75820dab11bb,SCN,2024-06-20_16h40.59.717,LearnStrategy,2023.2.3,Win32,30.03003003,1,1,10,-0.252777778,0.273148134,1,0,0,1.3953,Basalt_16,2,16,5,3,1.395,-0.146296268,-0.252777778,1,0,0,1.4555,Basalt_rect,2,1.456,1,9,0,9,0,1,,,,,,,,,,,,,
65ec6e1775ee75820dab11bb,SCN,2024-06-20_16h40.59.717,LearnStrategy,2023.2.3,Win32,30.03003003,1,1,11,-0.400925912,0.393518511,1,0,0,1.8295,Peridotite_16,7,16,6,2,1.83,0.078703732,-0.391666667,1,0,0,2.3241,Peridotite_rect,7,2.324,1,10,0,10,0,1,,,,,,,,,,,,,
65ec6e1775ee75820dab11bb,SCN,2024-06-20_16h40.59.717,LearnStrategy,2023.2.3,Win32,30.03003003,1,1,12,0.202777778,0.397222222,1,0,0,1.6227,Andesite_03,1,03,6,6,1.623,-0.163888889,-0.232407464,1,0,0,1.5517,Basalt_rect,2,1.552,0,11,0,11,0,1,,,,,,,,,,,,,
65ec6e1775ee75820dab11bb,SCN,2024-06-20_16h40.59.717,LearnStrategy,2023.2.3,Win32,30.03003003,1,1,13,0.385185242,0.229629623,1,0,0,1.6296,Diorite_06,3,06,5,7,1.63,0.112037065,-0.263888889,1,0,0,4.1905,Diorite_rect,3,4.191,1,12,0,12,0,1,,,,,,,,,,,,,
65ec6e1775ee75820dab11bb,SCN,2024-06-20_16h40.59.717,LearnStrategy,2023.2.3,Win32,30.03003003,1,1,14,-0.073148092,0.112037023,1,0,0,1.5269,Obsidian_06,5,06,4,4,1.527,-0.409259245,-0.407407464,1,0,0,3.1802,Obsidian_rect,5,3.18,1,13,0,13,0,1,,,,,,,,,,,,,
65ec6e1775ee75820dab11bb,SCN,2024-06-20_16h40.59.717,LearnStrategy,2023.2.3,Win32,30.03003003,1,1,15,0.582407464,0.104629601,1,0,0,1.5928,Pumice_14,8,14,4,8,1.593,0.35648151,-0.399074131,1,0,0,1.2405,Pumice_rect,8,1.24,1,14,0,14,0,1,,,,,,,,,,,,,
65ec6e1775ee75820dab11bb,SCN,2024-06-20_16h40.59.717,LearnStrategy,2023.2.3,Win32,30.03003003,1,1,16,-0.265740712,0.392592589,1,0,0,7.8788,Obsidian_02,5,02,6,3,7.879,-0.407407379,-0.393518575,1,0,0,2.1482,Obsidian_rect,5,2.148,1,15,0,15,0,1,,,,,,,,,,,,,
65ec6e1775ee75820dab11bb,SCN,2024-06-20_16h40.59.717,LearnStrategy,2023.2.3,Win32,30.03003003,1,2,1,,,,,,,,8,02,,,,,,,,,,,8,1.556,1,,,,,,0.385185242,-0.415740797,1,0,0,1.5559,Pumice_rect,0,0,0,0,1,
65ec6e1775ee75820dab11bb,SCN,2024-06-20_16h40.59.717,LearnStrategy,2023.2.3,Win32,30.03003003,1,2,2,,,,,,,,3,16,,,,,,,,,,,3,1.817,1,,,,,,0.132407464,-0.265740797,1,0,0,1.8165,Diorite_rect,1,0,1,0,1,
65ec6e1775ee75820dab11bb,SCN,2024-06-20_16h40.59.717,LearnStrategy,2023.2.3,Win32,30.03003003,1,2,3,,,,,,,,6,06,,,,,,,,,,,6,3.577,1,,,,,,-0.179629601,-0.418518575,1,0,0,3.5773,Pegmatite_rect,2,0,2,0,1,
65ec6e1775ee75820dab11bb,SCN,2024-06-20_16h40.59.717,LearnStrategy,2023.2.3,Win32,30.03003003,1,2,4,,,,,,,,3,15,,,,,,,,,,,4,3.499,0,,,,,,0.370370399,-0.264814843,1,0,0,3.4989,Gabbro_rect,3,0,3,0,1,
65ec6e1775ee75820dab11bb,SCN,2024-06-20_16h40.59.717,LearnStrategy,2023.2.3,Win32,30.03003003,1,2,5,,,,,,,,2,12,,,,,,,,,,,2,2.97,1,,,,,,-0.135185157,-0.258333333,1,0,0,2.9703,Basalt_rect,4,0,4,0,1,
65ec6e1775ee75820dab11bb,SCN,2024-06-20_16h40.59.717,LearnStrategy,2023.2.3,Win32,30.03003003,1,2,6,,,,,,,,4,09,,,,,,,,,,,1,2.121,0,,,,,,-0.386111111,-0.263888889,1,0,0,2.1215,Andesite_rect,5,0,5,0,1,
65ec6e1775ee75820dab11bb,SCN,2024-06-20_16h40.59.717,LearnStrategy,2023.2.3,Win32,30.03003003,1,2,7,,,,,,,,5,16,,,,,,,,,,,5,3.037,1,,,,,,-0.432407379,-0.411111111,1,0,0,3.0371,Obsidian_rect,6,0,6,0,1,
65ec6e1775ee75820dab11bb,SCN,2024-06-20_16h40.59.717,LearnStrategy,2023.2.3,Win32,30.03003003,1,2,8,,,,,,,,6,08,,,,,,,,,,,6,2.412,1,,,,,,-0.138888889,-0.413888889,1,0,0,2.4119,Pegmatite_rect,7,0,7,0,1,
65ec6e1775ee75820dab11bb,SCN,2024-06-20_16h40.59.717,LearnStrategy,2023.2.3,Win32,30.03003003,1,2,9,,,,,,,,7,14,,,,,,,,,,,7,2.115,1,,,,,,0.090740797,-0.385185242,1,0,0,2.1147,Peridotite_rect,8,0,8,0,1,
65ec6e1775ee75820dab11bb,SCN,2024-06-20_16h40.59.717,LearnStrategy,2023.2.3,Win32,30.03003003,1,2,10,,,,,,,,7,12,,,,,,,,,,,7,1.811,1,,,,,,0.121296353,-0.382407464,1,0,0,1.8109,Peridotite_rect,9,0,9,0,1,
65ec6e1775ee75820dab11bb,SCN,2024-06-20_16h40.59.717,LearnStrategy,2023.2.3,Win32,30.03003003,1,2,11,,,,,,,,1,14,,,,,,,,,,,3,2.096,0,,,,,,0.13148151,-0.25,1,0,0,2.0962,Diorite_rect,10,0,10,0,1,
65ec6e1775ee75820dab11bb,SCN,2024-06-20_16h40.59.717,LearnStrategy,2023.2.3,Win32,30.03003003,1,2,12,,,,,,,,5,14,,,,,,,,,,,5,1.727,1,,,,,,-0.406481467,-0.413888889,1,0,0,1.727,Obsidian_rect,11,0,11,0,1,
65ec6e1775ee75820dab11bb,SCN,2024-06-20_16h40.59.717,LearnStrategy,2023.2.3,Win32,30.03003003,1,2,13,,,,,,,,8,08,,,,,,,,,,,8,2.012,1,,,,,,0.30648151,-0.419444444,1,0,0,2.0119,Pumice_rect,12,0,12,0,1,
65ec6e1775ee75820dab11bb,SCN,2024-06-20_16h40.59.717,LearnStrategy,2023.2.3,Win32,30.03003003,1,2,14,,,,,,,,4,05,,,,,,,,,,,7,1.704,0,,,,,,0.13148151,-0.404629686,1,0,0,1.7039,Peridotite_rect,13,0,13,0,1,
65ec6e1775ee75820dab11bb,SCN,2024-06-20_16h40.59.717,LearnStrategy,2023.2.3,Win32,30.03003003,1,2,15,,,,,,,,1,01,,,,,,,,,,,4,1.46,0,,,,,,0.344444444,-0.248148176,1,0,0,1.4602,Gabbro_rect,14,0,14,0,1,
65ec6e1775ee75820dab11bb,SCN,2024-06-20_16h40.59.717,LearnStrategy,2023.2.3,Win32,30.03003003,1,2,16,,,,,,,,2,01,,,,,,,,,,,2,1.329,1,,,,,,-0.131481425,-0.237963019,1,0,0,1.329,Basalt_rect,15,0,15,0,1,
65ec6e1775ee75820dab11bb,SCN,2024-06-20_16h40.59.717,LearnStrategy,2023.2.3,Win32,30.03003003,2,1,1,0.091666667,0.092592578,1,0,0,2.5962,Pumice_03,8,03,4,5,2.596,0.370370399,-0.414814843,1,0,0,3.1246,Pumice_rect,8,3.125,1,0,0,0,0,1,,,,,,,,,,,,,
65ec6e1775ee75820dab11bb,SCN,2024-06-20_16h40.59.717,LearnStrategy,2023.2.3,Win32,30.03003003,2,1,2,0.238888889,0.112037023,1,0,0,1.3583,Gabbro_11,4,11,4,6,1.358,0.086111111,-0.250925954,1,0,0,2.8227,Diorite_rect,3,2.823,0,1,0,1,0,1,,,,,,,,,,,,,
65ec6e1775ee75820dab11bb,SCN,2024-06-20_16h40.59.717,LearnStrategy,2023.2.3,Win32,30.03003003,2,1,3,0.412963019,0.050925912,1,0,0,1.2631,Peridotite_15,7,15,4,7,1.263,0.158333333,-0.40648151,1,0,0,1.2394,Peridotite_rect,7,1.239,1,2,0,2,0,1,,,,,,,,,,,,,
65ec6e1775ee75820dab11bb,SCN,2024-06-20_16h40.59.717,LearnStrategy,2023.2.3,Win32,30.03003003,2,1,4,0.532407464,0.084259245,1,0,0,1.4615,Pumice_14,8,14,4,8,1.461,0.377777778,-0.399074131,1,0,0,1.1729,Pumice_rect,8,1.173,1,3,0,3,0,1,,,,,,,,,,,,,
65ec6e1775ee75820dab11bb,SCN,2024-06-20_16h40.59.717,LearnStrategy,2023.2.3,Win32,30.03003003,2,1,5,-0.516666667,0.412037034,1,0,0,1.3598,Andesite_16,1,16,6,1,1.36,0.166666667,-0.261111111,1,0,0,1.3319,Diorite_rect,3,1.332,0,4,0,4,0,1,,,,,,,,,,,,,
65ec6e1775ee75820dab11bb,SCN,2024-06-20_16h40.59.717,LearnStrategy,2023.2.3,Win32,30.03003003,2,1,6,-0.358333333,0.390740734,1,0,0,1.7292,Peridotite_16,7,16,6,2,1.729,0.122222222,-0.4,1,0,0,1.6754,Peridotite_rect,7,1.675,1,5,0,5,0,1,,,,,,,,,,,,,
65ec6e1775ee75820dab11bb,SCN,2024-06-20_16h40.59.717,LearnStrategy,2023.2.3,Win32,30.03003003,2,1,7,-0.103703647,0.395370367,1,0,0,2.3281,Gabbro_08,4,08,6,4,2.328,0.170370399,-0.235185242,1,0,0,1.6437,Diorite_rect,3,1.644,0,6,0,6,0,1,,,,,,,,,,,,,
65ec6e1775ee75820dab11bb,SCN,2024-06-20_16h40.59.717,LearnStrategy,2023.2.3,Win32,30.03003003,2,1,8,0.087963019,0.389814811,1,0,0,2.5633,Peridotite_08,7,08,6,5,2.563,0.130555556,-0.379629686,1,0,0,2.4976,Peridotite_rect,7,2.498,1,7,0,7,0,1,,,,,,,,,,,,,
65ec6e1775ee75820dab11bb,SCN,2024-06-20_16h40.59.717,LearnStrategy,2023.2.3,Win32,30.03003003,2,1,9,0.238888889,0.3824074,1,0,0,1.363,Andesite_03,1,03,6,6,1.363,-0.128703647,-0.239814843,1,0,0,2.0567,Basalt_rect,2,2.057,0,8,0,8,0,1,,,,,,,,,,,,,
65ec6e1775ee75820dab11bb,SCN,2024-06-20_16h40.59.717,LearnStrategy,2023.2.3,Win32,30.03003003,2,1,10,0.408333333,0.398148145,1,0,0,1.5293,Pegmatite_13,6,13,6,7,1.529,-0.171296268,-0.418518575,1,0,0,1.417,Pegmatite_rect,6,1.417,1,9,0,9,0,1,,,,,,,,,,,,,
65ec6e1775ee75820dab11bb,SCN,2024-06-20_16h40.59.717,LearnStrategy,2023.2.3,Win32,30.03003003,2,1,11,0.509259288,0.363888889,1,0,0,1.6923,Pumice_06,8,06,6,8,1.692,0.389814843,-0.399074131,1,0,0,1.6795,Pumice_rect,8,1.679,1,10,0,10,0,1,,,,,,,,,,,,,
65ec6e1775ee75820dab11bb,SCN,2024-06-20_16h40.59.717,LearnStrategy,2023.2.3,Win32,30.03003003,2,1,12,-0.537962956,0.268518511,1,0,0,1.5617,Andesite_04,1,04,5,1,1.562,0.096296353,-0.259259288,1,0,0,1.109,Diorite_rect,3,1.109,0,11,0,11,0,1,,,,,,,,,,,,,
65ec6e1775ee75820dab11bb,SCN,2024-06-20_16h40.59.717,LearnStrategy,2023.2.3,Win32,30.03003003,2,1,13,-0.376851824,0.239814801,1,0,0,1.9954,Pumice_16,8,16,5,2,1.995,0.423148176,-0.253703732,1,0,0,1.3532,Gabbro_rect,4,1.353,0,12,0,12,0,1,,,,,,,,,,,,,
65ec6e1775ee75820dab11bb,SCN,2024-06-20_16h40.59.717,LearnStrategy,2023.2.3,Win32,30.03003003,2,1,14,-0.22870369,0.248148134,1,0,0,1.7571,Basalt_16,2,16,5,3,1.757,-0.130555556,-0.238888889,1,0,0,4.378,Basalt_rect,2,4.378,1,13,0,13,0,1,,,,,,,,,,,,,
65ec6e1775ee75820dab11bb,SCN,2024-06-20_16h40.59.717,LearnStrategy,2023.2.3,Win32,30.03003003,2,1,15,-0.245370356,0.249074067,1,0,0,2.1626,Basalt_16,2,16,5,3,2.163,0.33148151,-0.235185242,1,0,0,2.4855,Gabbro_rect,4,2.486,0,14,0,14,0,1,,,,,,,,,,,,,
65ec6e1775ee75820dab11bb,SCN,2024-06-20_16h40.59.717,LearnStrategy,2023.2.3,Win32,30.03003003,2,1,16,-0.086111111,0.25,1,0,0,2.6278,Pegmatite_09,6,09,5,4,2.628,-0.107407379,-0.387037065,1,0,0,2.7497,Pegmatite_rect,6,2.75,1,15,0,15,0,1,,,,,,,,,,,,,
65ec6e1775ee75820dab11bb,SCN,2024-06-20_16h40.59.717,LearnStrategy,2023.2.3,Win32,30.03003003,2,2,1,,,,,,,,5,11,,,,,,,,,,,5,1.98,1,,,,,,-0.432407379,-0.395370399,1,0,0,1.9803,Obsidian_rect,0,0,0,0,1,
65ec6e1775ee75820dab11bb,SCN,2024-06-20_16h40.59.717,LearnStrategy,2023.2.3,Win32,30.03003003,2,2,2,,,,,,,,2,08,,,,,,,,,,,2,2.159,1,,,,,,-0.144444444,-0.255555556,1,0,0,2.1588,Basalt_rect,1,0,1,0,1,
65ec6e1775ee75820dab11bb,SCN,2024-06-20_16h40.59.717,LearnStrategy,2023.2.3,Win32,30.03003003,2,2,3,,,,,,,,3,10,,,,,,,,,,,3,1.377,1,,,,,,0.158333333,-0.262963019,1,0,0,1.3773,Diorite_rect,2,0,2,0,1,
65ec6e1775ee75820dab11bb,SCN,2024-06-20_16h40.59.717,LearnStrategy,2023.2.3,Win32,30.03003003,2,2,4,,,,,,,,4,16,,,,,,,,,,,1,1.465,0,,,,,,-0.425,-0.238888889,1,0,0,1.4652,Andesite_rect,3,0,3,0,1,
65ec6e1775ee75820dab11bb,SCN,2024-06-20_16h40.59.717,LearnStrategy,2023.2.3,Win32,30.03003003,2,2,5,,,,,,,,3,14,,,,,,,,,,,6,1.75,0,,,,,,-0.171296268,-0.410185242,1,0,0,1.7498,Pegmatite_rect,4,0,4,0,1,
65ec6e1775ee75820dab11bb,SCN,2024-06-20_16h40.59.717,LearnStrategy,2023.2.3,Win32,30.03003003,2,2,6,,,,,,,,6,16,,,,,,,,,,,6,2.294,1,,,,,,-0.137036981,-0.399074131,1,0,0,2.2942,Pegmatite_rect,5,0,5,0,1,
65ec6e1775ee75820dab11bb,SCN,2024-06-20_16h40.59.717,LearnStrategy,2023.2.3,Win32,30.03003003,2,2,7,,,,,,,,2,14,,,,,,,,,,,4,2.209,0,,,,,,0.338888889,-0.236111111,1,0,0,2.2087,Gabbro_rect,6,0,6,0,1,
65ec6e1775ee75820dab11bb,SCN,2024-06-20_16h40.59.717,LearnStrategy,2023.2.3,Win32,30.03003003,2,2,8,,,,,,,,1,11,,,,,,,,,,,3,1.233,0,,,,,,0.139814843,-0.252777778,1,0,0,1.2325,Diorite_rect,7,0,7,0,1,
65ec6e1775ee75820dab11bb,SCN,2024-06-20_16h40.59.717,LearnStrategy,2023.2.3,Win32,30.03003003,2,2,9,,,,,,,,7,13,,,,,,,,,,,7,1.556,1,,,,,,0.128703732,-0.400925954,1,0,0,1.5556,Peridotite_rect,8,0,8,0,1,
65ec6e1775ee75820dab11bb,SCN,2024-06-20_16h40.59.717,LearnStrategy,2023.2.3,Win32,30.03003003,2,2,10,,,,,,,,4,14,,,,,,,,,,,4,1.386,1,,,,,,0.327777778,-0.268518575,1,0,0,1.3856,Gabbro_rect,9,0,9,0,1,
65ec6e1775ee75820dab11bb,SCN,2024-06-20_16h40.59.717,LearnStrategy,2023.2.3,Win32,30.03003003,2,2,11,,,,,,,,8,15,,,,,,,,,,,8,1.309,1,,,,,,0.366666667,-0.390740797,1,0,0,1.3091,Pumice_rect,10,0,10,0,1,
65ec6e1775ee75820dab11bb,SCN,2024-06-20_16h40.59.717,LearnStrategy,2023.2.3,Win32,30.03003003,2,2,12,,,,,,,,8,09,,,,,,,,,,,8,1.347,1,,,,,,0.376851908,-0.380555556,1,0,0,1.3467,Pumice_rect,11,0,11,0,1,
65ec6e1775ee75820dab11bb,SCN,2024-06-20_16h40.59.717,LearnStrategy,2023.2.3,Win32,30.03003003,2,2,13,,,,,,,,7,07,,,,,,,,,,,7,1.331,1,,,,,,0.133333333,-0.398148176,1,0,0,1.3305,Peridotite_rect,12,0,12,0,1,
65ec6e1775ee75820dab11bb,SCN,2024-06-20_16h40.59.717,LearnStrategy,2023.2.3,Win32,30.03003003,2,2,14,,,,,,,,1,05,,,,,,,,,,,3,1.658,0,,,,,,0.118518575,-0.263888889,1,0,0,1.6579,Diorite_rect,13,0,13,0,1,
65ec6e1775ee75820dab11bb,SCN,2024-06-20_16h40.59.717,LearnStrategy,2023.2.3,Win32,30.03003003,2,2,15,,,,,,,,5,08,,,,,,,,,,,5,1.498,1,,,,,,-0.462962935,-0.387963019,1,0,0,1.4978,Obsidian_rect,14,0,14,0,1,
65ec6e1775ee75820dab11bb,SCN,2024-06-20_16h40.59.717,LearnStrategy,2023.2.3,Win32,30.03003003,2,2,16,,,,,,,,6,11,,,,,,,,,,,6,1.309,1,,,,,,-0.183333333,-0.395370399,1,0,0,1.3094,Pegmatite_rect,15,0,15,0,1,
65ec6e1775ee75820dab11bb,SCN,2024-06-20_16h40.59.717,LearnStrategy,2023.2.3,Win32,30.03003003,3,1,1,-0.559259245,0.400925922,1,0,0,1.7631,Andesite_16,1,16,6,1,1.763,-0.322222222,-0.239814843,1,0,0,2.1736,Andesite_rect,1,2.174,1,0,0,0,0,1,,,,,,,,,,,,,
65ec6e1775ee75820dab11bb,SCN,2024-06-20_16h40.59.717,LearnStrategy,2023.2.3,Win32,30.03003003,3,1,2,-0.39351849,0.396296289,1,0,0,1.1615,Peridotite_16,7,16,6,2,1.161,0.093518575,-0.388888889,1,0,0,1.2044,Peridotite_rect,7,1.204,1,1,0,1,0,1,,,,,,,,,,,,,
65ec6e1775ee75820dab11bb,SCN,2024-06-20_16h40.59.717,LearnStrategy,2023.2.3,Win32,30.03003003,3,1,3,-0.269444444,0.387962956,1,0,0,1.4662,Obsidian_02,5,02,6,3,1.466,-0.390740712,-0.387963019,1,0,0,1.3763,Obsidian_rect,5,1.376,1,2,0,2,0,1,,,,,,,,,,,,,
65ec6e1775ee75820dab11bb,SCN,2024-06-20_16h40.59.717,LearnStrategy,2023.2.3,Win32,30.03003003,3,1,4,-0.072222222,0.395370367,1,0,0,1.3622,Gabbro_08,4,08,6,4,1.362,0.364814843,-0.249074131,1,0,0,1.7851,Gabbro_rect,4,1.785,1,3,0,3,0,1,,,,,,,,,,,,,
65ec6e1775ee75820dab11bb,SCN,2024-06-20_16h40.59.717,LearnStrategy,2023.2.3,Win32,30.03003003,3,1,5,0.075,0.383333333,1,0,0,1.2956,Peridotite_08,7,08,6,5,1.296,0.144444444,-0.403703732,1,0,0,1.446,Peridotite_rect,7,1.446,1,4,0,4,0,1,,,,,,,,,,,,,
65ec6e1775ee75820dab11bb,SCN,2024-06-20_16h40.59.717,LearnStrategy,2023.2.3,Win32,30.03003003,3,1,6,0.233333333,0.396296289,1,0,0,1.3952,Andesite_03,1,03,6,6,1.395,0.320370399,-0.265740797,1,0,0,2.768,Gabbro_rect,4,2.768,0,5,0,5,0,1,,,,,,,,,,,,,
65ec6e1775ee75820dab11bb,SCN,2024-06-20_16h40.59.717,LearnStrategy,2023.2.3,Win32,30.03003003,3,1,7,0.388888889,0.427777778,1,0,0,1.63,Pegmatite_13,6,13,6,7,1.63,-0.131481425,-0.390740797,1,0,0,1.3731,Pegmatite_rect,6,1.373,1,6,0,6,0,1,,,,,,,,,,,,,
65ec6e1775ee75820dab11bb,SCN,2024-06-20_16h40.59.717,LearnStrategy,2023.2.3,Win32,30.03003003,3,1,8,0.588888889,0.410185178,1,0,0,1.1962,Pumice_06,8,06,6,8,1.196,0.398148176,-0.388888889,1,0,0,1.2775,Pumice_rect,8,1.277,1,7,0,7,0,1,,,,,,,,,,,,,
65ec6e1775ee75820dab11bb,SCN,2024-06-20_16h40.59.717,LearnStrategy,2023.2.3,Win32,30.03003003,3,1,9,-0.565740734,0.216666667,1,0,0,1.2585,Andesite_04,1,04,5,1,1.258,-0.366666667,-0.235185242,1,0,0,1.6187,Andesite_rect,1,1.619,1,8,0,8,0,1,,,,,,,,,,,,,
65ec6e1775ee75820dab11bb,SCN,2024-06-20_16h40.59.717,LearnStrategy,2023.2.3,Win32,30.03003003,3,1,10,-0.432407379,0.2574074,1,0,0,1.5275,Pumice_16,8,16,5,2,1.527,0.385185242,-0.248148176,1,0,0,2.0632,Gabbro_rect,4,2.063,0,9,0,9,0,1,,,,,,,,,,,,,
65ec6e1775ee75820dab11bb,SCN,2024-06-20_16h40.59.717,LearnStrategy,2023.2.3,Win32,30.03003003,3,1,11,-0.229629601,0.250925912,1,0,0,1.0628,Basalt_16,2,16,5,3,1.063,0.399074131,-0.254629686,1,0,0,2.102,Gabbro_rect,4,2.102,0,10,0,10,0,1,,,,,,,,,,,,,
65ec6e1775ee75820dab11bb,SCN,2024-06-20_16h40.59.717,LearnStrategy,2023.2.3,Win32,30.03003003,3,1,12,-0.075925869,0.2324074,1,0,0,2.6939,Pegmatite_09,6,09,5,4,2.694,-0.16851849,-0.393518575,1,0,0,1.5306,Pegmatite_rect,6,1.531,1,11,0,11,0,1,,,,,,,,,,,,,
65ec6e1775ee75820dab11bb,SCN,2024-06-20_16h40.59.717,LearnStrategy,2023.2.3,Win32,30.03003003,3,1,13,0.069444444,0.222222222,1,0,0,1.4629,Gabbro_01,4,01,5,5,1.463,0.371296353,-0.252777778,1,0,0,3.2244,Gabbro_rect,4,3.224,1,12,0,12,0,1,,,,,,,,,,,,,
65ec6e1775ee75820dab11bb,SCN,2024-06-20_16h40.59.717,LearnStrategy,2023.2.3,Win32,30.03003003,3,1,14,0.214814843,0.218518511,1,0,0,1.7922,Andesite_09,1,09,5,6,1.792,-0.167592536,-0.245370399,1,0,0,1.0255,Basalt_rect,2,1.025,0,13,0,13,0,1,,,,,,,,,,,,,
65ec6e1775ee75820dab11bb,SCN,2024-06-20_16h40.59.717,LearnStrategy,2023.2.3,Win32,30.03003003,3,1,15,0.359259288,0.204629623,1,0,0,1.429,Diorite_06,3,06,5,7,1.429,0.094444444,-0.241666667,1,0,0,1.508,Diorite_rect,3,1.508,1,14,0,14,0,1,,,,,,,,,,,,,
65ec6e1775ee75820dab11bb,SCN,2024-06-20_16h40.59.717,LearnStrategy,2023.2.3,Win32,30.03003003,3,1,16,0.544444444,0.259259245,1,0,0,3.9249,Peridotite_10,7,10,5,8,3.925,0.109259288,-0.387037065,1,0,0,1.9979,Peridotite_rect,7,1.998,1,15,0,15,0,1,,,,,,,,,,,,,
65ec6e1775ee75820dab11bb,SCN,2024-06-20_16h40.59.717,LearnStrategy,2023.2.3,Win32,30.03003003,3,2,1,,,,,,,,6,10,,,,,,,,,,,6,1.676,1,,,,,,-0.125925869,-0.414814843,1,0,0,1.6764,Pegmatite_rect,0,0,0,0,1,
65ec6e1775ee75820dab11bb,SCN,2024-06-20_16h40.59.717,LearnStrategy,2023.2.3,Win32,30.03003003,3,2,2,,,,,,,,6,12,,,,,,,,,,,6,1.893,1,,,,,,-0.116666667,-0.397222222,1,0,0,1.8929,Pegmatite_rect,1,0,1,0,1,
65ec6e1775ee75820dab11bb,SCN,2024-06-20_16h40.59.717,LearnStrategy,2023.2.3,Win32,30.03003003,3,2,3,,,,,,,,3,08,,,,,,,,,,,3,3.342,1,,,,,,0.087963019,-0.254629686,1,0,0,3.3418,Diorite_rect,2,0,2,0,1,
65ec6e1775ee75820dab11bb,SCN,2024-06-20_16h40.59.717,LearnStrategy,2023.2.3,Win32,30.03003003,3,2,4,,,,,,,,5,04,,,,,,,,,,,5,1.358,1,,,,,,-0.341666667,-0.400925954,1,0,0,1.3583,Obsidian_rect,3,0,3,0,1,
65ec6e1775ee75820dab11bb,SCN,2024-06-20_16h40.59.717,LearnStrategy,2023.2.3,Win32,30.03003003,3,2,5,,,,,,,,1,02,,,,,,,,,,,3,2.045,0,,,,,,0.120370399,-0.25648151,1,0,0,2.045,Diorite_rect,4,0,4,0,1,
65ec6e1775ee75820dab11bb,SCN,2024-06-20_16h40.59.717,LearnStrategy,2023.2.3,Win32,30.03003003,3,2,6,,,,,,,,4,10,,,,,,,,,,,1,3.667,0,,,,,,-0.432407379,-0.264814843,1,0,0,3.6666,Andesite_rect,5,0,5,0,1,
65ec6e1775ee75820dab11bb,SCN,2024-06-20_16h40.59.717,LearnStrategy,2023.2.3,Win32,30.03003003,3,2,7,,,,,,,,8,05,,,,,,,,,,,8,1.683,1,,,,,,0.334259288,-0.394444444,1,0,0,1.6833,Pumice_rect,6,0,6,0,1,
65ec6e1775ee75820dab11bb,SCN,2024-06-20_16h40.59.717,LearnStrategy,2023.2.3,Win32,30.03003003,3,2,8,,,,,,,,7,06,,,,,,,,,,,7,1.924,1,,,,,,0.119444444,-0.400925954,1,0,0,1.9241,Peridotite_rect,7,0,7,0,1,
65ec6e1775ee75820dab11bb,SCN,2024-06-20_16h40.59.717,LearnStrategy,2023.2.3,Win32,30.03003003,3,2,9,,,,,,,,4,12,,,,,,,,,,,3,2.671,0,,,,,,0.111111111,-0.234259288,1,0,0,2.6709,Diorite_rect,8,0,8,0,1,
65ec6e1775ee75820dab11bb,SCN,2024-06-20_16h40.59.717,LearnStrategy,2023.2.3,Win32,30.03003003,3,2,10,,,,,,,,8,04,,,,,,,,,,,8,1.318,1,,,,,,0.402777778,-0.408333333,1,0,0,1.318,Pumice_rect,9,0,9,0,1,
65ec6e1775ee75820dab11bb,SCN,2024-06-20_16h40.59.717,LearnStrategy,2023.2.3,Win32,30.03003003,3,2,11,,,,,,,,3,07,,,,,,,,,,,7,1.617,0,,,,,,0.10648151,-0.387037065,1,0,0,1.6174,Peridotite_rect,10,0,10,0,1,
65ec6e1775ee75820dab11bb,SCN,2024-06-20_16h40.59.717,LearnStrategy,2023.2.3,Win32,30.03003003,3,2,12,,,,,,,,2,04,,,,,,,,,,,2,1.851,1,,,,,,-0.166666667,-0.233333333,1,0,0,1.8506,Basalt_rect,11,0,11,0,1,
65ec6e1775ee75820dab11bb,SCN,2024-06-20_16h40.59.717,LearnStrategy,2023.2.3,Win32,30.03003003,3,2,13,,,,,,,,5,07,,,,,,,,,,,5,1.437,1,,,,,,-0.37870369,-0.388888889,1,0,0,1.4372,Obsidian_rect,12,0,12,0,1,
65ec6e1775ee75820dab11bb,SCN,2024-06-20_16h40.59.717,LearnStrategy,2023.2.3,Win32,30.03003003,3,2,14,,,,,,,,7,02,,,,,,,,,,,7,1.146,1,,,,,,0.055555556,-0.414814843,1,0,0,1.146,Peridotite_rect,13,0,13,0,1,
65ec6e1775ee75820dab11bb,SCN,2024-06-20_16h40.59.717,LearnStrategy,2023.2.3,Win32,30.03003003,3,2,15,,,,,,,,2,06,,,,,,,,,,,2,1.799,1,,,,,,-0.104629601,-0.243518575,1,0,0,1.7986,Basalt_rect,14,0,14,0,1,
65ec6e1775ee75820dab11bb,SCN,2024-06-20_16h40.59.717,LearnStrategy,2023.2.3,Win32,30.03003003,3,2,16,,,,,,,,1,07,,,,,,,,,,,3,1.588,0,,,,,,0.174074131,-0.269444444,1,0,0,1.5875,Diorite_rect,15,0,15,0,1,
65ec6e1775ee75820dab11bb,SCN,2024-06-20_16h40.59.717,LearnStrategy,2023.2.3,Win32,30.03003003,4,1,1,-0.070370314,0.4074074,1,0,0,3.295,Gabbro_08,4,08,6,4,3.295,0.341666667,-0.239814843,1,0,0,1.5929,Gabbro_rect,4,1.593,1,0,0,0,0,1,,,,,,,,,,,,,
65ec6e1775ee75820dab11bb,SCN,2024-06-20_16h40.59.717,LearnStrategy,2023.2.3,Win32,30.03003003,4,1,2,0.074074131,0.401851845,1,0,0,1.2616,Peridotite_08,7,08,6,5,1.262,0.114814843,-0.395370399,1,0,0,2.11,Peridotite_rect,7,2.11,1,1,0,1,0,1,,,,,,,,,,,,,
65ec6e1775ee75820dab11bb,SCN,2024-06-20_16h40.59.717,LearnStrategy,2023.2.3,Win32,30.03003003,4,1,3,0.229629686,0.443518517,1,0,0,1.5298,Andesite_03,1,03,6,6,1.53,-0.135185157,-0.229629686,1,0,0,1.7574,Basalt_rect,2,1.757,0,2,0,2,0,1,,,,,,,,,,,,,
65ec6e1775ee75820dab11bb,SCN,2024-06-20_16h40.59.717,LearnStrategy,2023.2.3,Win32,30.03003003,4,1,4,0.428703732,0.436111111,1,0,0,1.195,Pegmatite_13,6,13,6,7,1.195,-0.108333333,-0.419444444,1,0,0,1.6937,Pegmatite_rect,6,1.694,1,3,0,3,0,1,,,,,,,,,,,,,
65ec6e1775ee75820dab11bb,SCN,2024-06-20_16h40.59.717,LearnStrategy,2023.2.3,Win32,30.03003003,4,1,5,0.545370483,0.395370367,1,0,0,1.5639,Pumice_06,8,06,6,8,1.564,0.425925954,-0.386111111,1,0,0,1.2298,Pumice_rect,8,1.23,1,4,0,4,0,1,,,,,,,,,,,,,
65ec6e1775ee75820dab11bb,SCN,2024-06-20_16h40.59.717,LearnStrategy,2023.2.3,Win32,30.03003003,4,1,6,-0.588888889,0.243518511,1,0,0,1.7616,Andesite_04,1,04,5,1,1.762,-0.402777778,-0.257407464,1,0,0,1.7617,Andesite_rect,1,1.762,1,5,0,5,0,1,,,,,,,,,,,,,
65ec6e1775ee75820dab11bb,SCN,2024-06-20_16h40.59.717,LearnStrategy,2023.2.3,Win32,30.03003003,4,1,7,-0.396296268,0.25,1,0,0,1.3646,Pumice_16,8,16,5,2,1.365,0.366666667,-0.412963019,1,0,0,1.6776,Pumice_rect,8,1.678,1,6,0,6,0,1,,,,,,,,,,,,,
65ec6e1775ee75820dab11bb,SCN,2024-06-20_16h40.59.717,LearnStrategy,2023.2.3,Win32,30.03003003,4,1,8,-0.233333333,0.234259245,1,0,0,1.5955,Basalt_16,2,16,5,3,1.595,-0.136111111,-0.234259288,1,0,0,2.122,Basalt_rect,2,2.122,1,7,0,7,0,1,,,,,,,,,,,,,
65ec6e1775ee75820dab11bb,SCN,2024-06-20_16h40.59.717,LearnStrategy,2023.2.3,Win32,30.03003003,4,1,9,-0.094444444,0.214814801,1,0,0,1.5302,Pegmatite_09,6,09,5,4,1.53,-0.119444444,-0.392592621,1,0,0,1.3239,Pegmatite_rect,6,1.324,1,8,0,8,0,1,,,,,,,,,,,,,
65ec6e1775ee75820dab11bb,SCN,2024-06-20_16h40.59.717,LearnStrategy,2023.2.3,Win32,30.03003003,4,1,10,0.05648151,0.243518511,1,0,0,1.2278,Gabbro_01,4,01,5,5,1.228,-0.396296268,-0.235185242,1,0,0,2.4719,Andesite_rect,1,2.472,0,9,0,9,0,1,,,,,,,,,,,,,
65ec6e1775ee75820dab11bb,SCN,2024-06-20_16h40.59.717,LearnStrategy,2023.2.3,Win32,30.03003003,4,1,11,0.224074131,0.256481467,1,0,0,1.4318,Andesite_09,1,09,5,6,1.432,-0.116666667,-0.243518575,1,0,0,1.3062,Basalt_rect,2,1.306,0,10,0,10,0,1,,,,,,,,,,,,,
65ec6e1775ee75820dab11bb,SCN,2024-06-20_16h40.59.717,LearnStrategy,2023.2.3,Win32,30.03003003,4,1,12,0.412963019,0.277777778,1,0,0,1.3275,Diorite_06,3,06,5,7,1.328,0.116666667,-0.243518575,1,0,0,1.9239,Diorite_rect,3,1.924,1,11,0,11,0,1,,,,,,,,,,,,,
65ec6e1775ee75820dab11bb,SCN,2024-06-20_16h40.59.717,LearnStrategy,2023.2.3,Win32,30.03003003,4,1,13,0.587963019,0.234259245,1,0,0,1.3643,Peridotite_10,7,10,5,8,1.364,0.10648151,-0.397222222,1,0,0,1.1059,Peridotite_rect,7,1.106,1,12,0,12,0,1,,,,,,,,,,,,,
65ec6e1775ee75820dab11bb,SCN,2024-06-20_16h40.59.717,LearnStrategy,2023.2.3,Win32,30.03003003,4,1,14,-0.556481467,0.081481467,1,0,0,1.3247,Pegmatite_15,6,15,4,1,1.325,-0.164814758,-0.398148176,1,0,0,2.8806,Pegmatite_rect,6,2.881,1,13,0,13,0,1,,,,,,,,,,,,,
65ec6e1775ee75820dab11bb,SCN,2024-06-20_16h40.59.717,LearnStrategy,2023.2.3,Win32,30.03003003,4,1,15,-0.364814801,0.110185157,1,0,0,2.2623,Peridotite_04,7,04,4,2,2.262,0.35648151,-0.250925954,1,0,0,2.3557,Gabbro_rect,4,2.356,0,14,0,14,0,1,,,,,,,,,,,,,
65ec6e1775ee75820dab11bb,SCN,2024-06-20_16h40.59.717,LearnStrategy,2023.2.3,Win32,30.03003003,4,1,16,-0.192592578,0.094444444,1,0,0,1.7024,Pegmatite_07,6,07,4,3,1.702,-0.147222222,-0.393518575,1,0,0,1.2581,Pegmatite_rect,6,1.258,1,15,0,15,0,1,,,,,,,,,,,,,
65ec6e1775ee75820dab11bb,SCN,2024-06-20_16h40.59.717,LearnStrategy,2023.2.3,Win32,30.03003003,4,2,1,,,,,,,,8,08,,,,,,,,,,,8,1.627,1,,,,,,0.345370399,-0.4,1,0,0,1.6269,Pumice_rect,0,0,0,0,1,
65ec6e1775ee75820dab11bb,SCN,2024-06-20_16h40.59.717,LearnStrategy,2023.2.3,Win32,30.03003003,4,2,2,,,,,,,,1,07,,,,,,,,,,,3,1.436,0,,,,,,0.104629686,-0.257407464,1,0,0,1.4358,Diorite_rect,1,0,1,0,1,
65ec6e1775ee75820dab11bb,SCN,2024-06-20_16h40.59.717,LearnStrategy,2023.2.3,Win32,30.03003003,4,2,3,,,,,,,,6,08,,,,,,,,,,,6,1.284,1,,,,,,-0.202777778,-0.40648151,1,0,0,1.2837,Pegmatite_rect,2,0,2,0,1,
65ec6e1775ee75820dab11bb,SCN,2024-06-20_16h40.59.717,LearnStrategy,2023.2.3,Win32,30.03003003,4,2,4,,,,,,,,6,11,,,,,,,,,,,6,0.929,1,,,,,,-0.163888889,-0.40648151,1,0,0,0.9288,Pegmatite_rect,3,0,3,0,1,
65ec6e1775ee75820dab11bb,SCN,2024-06-20_16h40.59.717,LearnStrategy,2023.2.3,Win32,30.03003003,4,2,5,,,,,,,,4,09,,,,,,,,,,,3,3.411,0,,,,,,0.154629686,-0.252777778,1,0,0,3.411,Diorite_rect,4,0,4,0,1,
65ec6e1775ee75820dab11bb,SCN,2024-06-20_16h40.59.717,LearnStrategy,2023.2.3,Win32,30.03003003,4,2,6,,,,,,,,2,01,,,,,,,,,,,2,1.202,1,,,,,,-0.063888889,-0.257407464,1,0,0,1.2016,Basalt_rect,5,0,5,0,1,
65ec6e1775ee75820dab11bb,SCN,2024-06-20_16h40.59.717,LearnStrategy,2023.2.3,Win32,30.03003003,4,2,7,,,,,,,,3,16,,,,,,,,,,,3,1.447,1,,,,,,0.171296353,-0.237963019,1,0,0,1.4468,Diorite_rect,6,0,6,0,1,
65ec6e1775ee75820dab11bb,SCN,2024-06-20_16h40.59.717,LearnStrategy,2023.2.3,Win32,30.03003003,4,2,8,,,,,,,,8,04,,,,,,,,,,,8,1.927,1,,,,,,0.346296353,-0.403703732,1,0,0,1.9268,Pumice_rect,7,0,7,0,1,
65ec6e1775ee75820dab11bb,SCN,2024-06-20_16h40.59.717,LearnStrategy,2023.2.3,Win32,30.03003003,4,2,9,,,,,,,,2,14,,,,,,,,,,,4,2.358,0,,,,,,0.353703732,-0.241666667,1,0,0,2.3583,Gabbro_rect,8,0,8,0,1,
65ec6e1775ee75820dab11bb,SCN,2024-06-20_16h40.59.717,LearnStrategy,2023.2.3,Win32,30.03003003,4,2,10,,,,,,,,4,10,,,,,,,,,,,1,2.443,0,,,,,,-0.354629601,-0.262037065,1,0,0,2.4431,Andesite_rect,9,0,9,0,1,
65ec6e1775ee75820dab11bb,SCN,2024-06-20_16h40.59.717,LearnStrategy,2023.2.3,Win32,30.03003003,4,2,11,,,,,,,,5,04,,,,,,,,,,,5,1.237,1,,,,,,-0.297222222,-0.392592621,1,0,0,1.2366,Obsidian_rect,10,0,10,0,1,
65ec6e1775ee75820dab11bb,SCN,2024-06-20_16h40.59.717,LearnStrategy,2023.2.3,Win32,30.03003003,4,2,12,,,,,,,,7,06,,,,,,,,,,,6,1.81,0,,,,,,-0.116666667,-0.382407464,1,0,0,1.8101,Pegmatite_rect,11,0,11,0,1,
65ec6e1775ee75820dab11bb,SCN,2024-06-20_16h40.59.717,LearnStrategy,2023.2.3,Win32,30.03003003,4,2,13,,,,,,,,3,10,,,,,,,,,,,4,2.964,0,,,,,,0.337963019,-0.263888889,1,0,0,2.9639,Gabbro_rect,12,0,12,0,1,
65ec6e1775ee75820dab11bb,SCN,2024-06-20_16h40.59.717,LearnStrategy,2023.2.3,Win32,30.03003003,4,2,14,,,,,,,,1,02,,,,,,,,,,,3,2.678,0,,,,,,0.112037065,-0.25,1,0,0,2.678,Diorite_rect,13,0,13,0,1,
65ec6e1775ee75820dab11bb,SCN,2024-06-20_16h40.59.717,LearnStrategy,2023.2.3,Win32,30.03003003,4,2,15,,,,,,,,7,02,,,,,,,,,,,7,1.275,1,,,,,,0.083333333,-0.395370399,1,0,0,1.2746,Peridotite_rect,14,0,14,0,1,
65ec6e1775ee75820dab11bb,SCN,2024-06-20_16h40.59.717,LearnStrategy,2023.2.3,Win32,30.03003003,4,2,16,,,,,,,,5,11,,,,,,,,,,,5,0.992,1,,,,,,-0.386111111,-0.420370399,1,0,0,0.9924,Obsidian_rect,15,0,15,0,1,
65ec6e1775ee75820dab11bb,SCN,2024-06-20_16h40.59.717,LearnStrategy,2023.2.3,Win32,30.03003003,5,1,1,-0.565740734,0.404629623,1,0,0,3.4955,Andesite_16,1,16,6,1,3.495,-0.388888889,-0.237037065,1,0,0,1.6196,Andesite_rect,1,1.62,1,0,0,0,0,1,,,,,,,,,,,,,
65ec6e1775ee75820dab11bb,SCN,2024-06-20_16h40.59.717,LearnStrategy,2023.2.3,Win32,30.03003003,5,1,2,-0.376851824,0.414814811,1,0,0,1.1297,Peridotite_16,7,16,6,2,1.13,0.119444444,-0.402777778,1,0,0,3.2367,Peridotite_rect,7,3.237,1,1,0,1,0,1,,,,,,,,,,,,,
65ec6e1775ee75820dab11bb,SCN,2024-06-20_16h40.59.717,LearnStrategy,2023.2.3,Win32,30.03003003,5,1,3,-0.257407379,0.386111111,1,0,0,1.7245,Obsidian_02,5,02,6,3,1.725,-0.400925912,-0.387037065,1,0,0,1.4202,Obsidian_rect,5,1.42,1,2,0,2,0,1,,,,,,,,,,,,,
65ec6e1775ee75820dab11bb,SCN,2024-06-20_16h40.59.717,LearnStrategy,2023.2.3,Win32,30.03003003,5,1,4,-0.088888889,0.398148145,1,0,0,1.2629,Gabbro_08,4,08,6,4,1.263,0.101851908,-0.229629686,1,0,0,3.0938,Diorite_rect,3,3.094,0,3,0,3,0,1,,,,,,,,,,,,,
65ec6e1775ee75820dab11bb,SCN,2024-06-20_16h40.59.717,LearnStrategy,2023.2.3,Win32,30.03003003,5,1,5,0.055555556,0.379629623,1,0,0,1.3956,Peridotite_08,7,08,6,5,1.396,0.100925954,-0.420370399,1,0,0,1.4142,Peridotite_rect,7,1.414,1,4,0,4,0,1,,,,,,,,,,,,,
65ec6e1775ee75820dab11bb,SCN,2024-06-20_16h40.59.717,LearnStrategy,2023.2.3,Win32,30.03003003,5,1,6,0.227777778,0.441666667,1,0,0,1.1962,Andesite_03,1,03,6,6,1.196,0.358333333,-0.237963019,1,0,0,2.9134,Gabbro_rect,4,2.913,0,5,0,5,0,1,,,,,,,,,,,,,
65ec6e1775ee75820dab11bb,SCN,2024-06-20_16h40.59.717,LearnStrategy,2023.2.3,Win32,30.03003003,5,1,7,0.435185242,0.437962961,1,0,0,1.4623,Pegmatite_13,6,13,6,7,1.462,-0.162036981,-0.417592621,1,0,0,1.1482,Pegmatite_rect,6,1.148,1,6,0,6,0,1,,,,,,,,,,,,,
65ec6e1775ee75820dab11bb,SCN,2024-06-20_16h40.59.717,LearnStrategy,2023.2.3,Win32,30.03003003,5,1,8,0.523148176,0.4074074,1,0,0,3.9865,Pumice_06,8,06,6,8,3.986,0.408333333,-0.384259288,1,0,0,1.3842,Pumice_rect,8,1.384,1,7,0,7,0,1,,,,,,,,,,,,,
65ec6e1775ee75820dab11bb,SCN,2024-06-20_16h40.59.717,LearnStrategy,2023.2.3,Win32,30.03003003,5,1,9,-0.527777778,0.22870369,1,0,0,1.7951,Andesite_04,1,04,5,1,1.795,-0.35,-0.23148151,1,0,0,2.9499,Andesite_rect,1,2.95,1,8,0,8,0,1,,,,,,,,,,,,,
65ec6e1775ee75820dab11bb,SCN,2024-06-20_16h40.59.717,LearnStrategy,2023.2.3,Win32,30.03003003,5,1,10,-0.367592578,0.246296289,1,0,0,1.4934,Pumice_16,8,16,5,2,1.493,0.390740797,-0.264814843,1,0,0,2.8886,Gabbro_rect,4,2.889,0,9,0,9,0,1,,,,,,,,,,,,,
65ec6e1775ee75820dab11bb,SCN,2024-06-20_16h40.59.717,LearnStrategy,2023.2.3,Win32,30.03003003,5,1,11,-0.237962935,0.25,1,0,0,1.8634,Basalt_16,2,16,5,3,1.863,-0.126851824,-0.244444444,1,0,0,2.3387,Basalt_rect,2,2.339,1,10,0,10,0,1,,,,,,,,,,,,,
65ec6e1775ee75820dab11bb,SCN,2024-06-20_16h40.59.717,LearnStrategy,2023.2.3,Win32,30.03003003,5,1,12,-0.082407379,0.269444444,1,0,0,1.0943,Pegmatite_09,6,09,5,4,1.094,-0.146296268,-0.387963019,1,0,0,3.5395,Pegmatite_rect,6,3.54,1,11,0,11,0,1,,,,,,,,,,,,,
65ec6e1775ee75820dab11bb,SCN,2024-06-20_16h40.59.717,LearnStrategy,2023.2.3,Win32,30.03003003,5,1,13,0.070370399,0.229629623,1,0,0,1.3628,Gabbro_01,4,01,5,5,1.363,0.325925954,-0.239814843,1,0,0,1.6302,Gabbro_rect,4,1.63,1,12,0,12,0,1,,,,,,,,,,,,,
65ec6e1775ee75820dab11bb,SCN,2024-06-20_16h40.59.717,LearnStrategy,2023.2.3,Win32,30.03003003,5,1,14,0.232407464,0.237037023,1,0,0,1.2957,Andesite_09,1,09,5,6,1.296,-0.130555556,-0.243518575,1,0,0,1.4447,Basalt_rect,2,1.445,0,13,0,13,0,1,,,,,,,,,,,,,
65ec6e1775ee75820dab11bb,SCN,2024-06-20_16h40.59.717,LearnStrategy,2023.2.3,Win32,30.03003003,5,1,15,0.372222222,0.233333333,1,0,0,2.5285,Diorite_06,3,06,5,7,2.528,0.093518575,-0.271296353,1,0,0,2.9511,Diorite_rect,3,2.951,1,14,0,14,0,1,,,,,,,,,,,,,
65ec6e1775ee75820dab11bb,SCN,2024-06-20_16h40.59.717,LearnStrategy,2023.2.3,Win32,30.03003003,5,1,16,0.517592621,0.254629623,1,0,0,1.2617,Peridotite_10,7,10,5,8,1.262,0.125925954,-0.416666667,1,0,0,2.1082,Peridotite_rect,7,2.108,1,15,0,15,0,1,,,,,,,,,,,,,
65ec6e1775ee75820dab11bb,SCN,2024-06-20_16h40.59.717,LearnStrategy,2023.2.3,Win32,30.03003003,5,2,1,,,,,,,,1,05,,,,,,,,,,,3,4.477,0,,,,,,0.172222222,-0.258333333,1,0,0,4.4775,Diorite_rect,0,0,0,0,1,
65ec6e1775ee75820dab11bb,SCN,2024-06-20_16h40.59.717,LearnStrategy,2023.2.3,Win32,30.03003003,5,2,2,,,,,,,,1,01,,,,,,,,,,,1,3.754,1,,,,,,-0.379629601,-0.242592621,1,0,0,3.754,Andesite_rect,1,0,1,0,1,
65ec6e1775ee75820dab11bb,SCN,2024-06-20_16h40.59.717,LearnStrategy,2023.2.3,Win32,30.03003003,5,2,3,,,,,,,,3,08,,,,,,,,,,,3,2.285,1,,,,,,0.142592621,-0.253703732,1,0,0,2.2849,Diorite_rect,2,0,2,0,1,
65ec6e1775ee75820dab11bb,SCN,2024-06-20_16h40.59.717,LearnStrategy,2023.2.3,Win32,30.03003003,5,2,4,,,,,,,,8,02,,,,,,,,,,,8,2.222,1,,,,,,0.35,-0.397222222,1,0,0,2.222,Pumice_rect,3,0,3,0,1,
65ec6e1775ee75820dab11bb,SCN,2024-06-20_16h40.59.717,LearnStrategy,2023.2.3,Win32,30.03003003,5,2,5,,,,,,,,2,12,,,,,,,,,,,2,1.845,1,,,,,,-0.130555556,-0.250925954,1,0,0,1.8449,Basalt_rect,4,0,4,0,1,
65ec6e1775ee75820dab11bb,SCN,2024-06-20_16h40.59.717,LearnStrategy,2023.2.3,Win32,30.03003003,5,2,6,,,,,,,,6,12,,,,,,,,,,,6,1.875,1,,,,,,-0.204629601,-0.378703732,1,0,0,1.8746,Pegmatite_rect,5,0,5,0,1,
65ec6e1775ee75820dab11bb,SCN,2024-06-20_16h40.59.717,LearnStrategy,2023.2.3,Win32,30.03003003,5,2,7,,,,,,,,7,13,,,,,,,,,,,7,1.413,1,,,,,,0.069444444,-0.389814843,1,0,0,1.4128,Peridotite_rect,6,0,6,0,1,
65ec6e1775ee75820dab11bb,SCN,2024-06-20_16h40.59.717,LearnStrategy,2023.2.3,Win32,30.03003003,5,2,8,,,,,,,,7,12,,,,,,,,,,,7,1.469,1,,,,,,0.072222222,-0.389814843,1,0,0,1.4693,Peridotite_rect,7,0,7,0,1,
65ec6e1775ee75820dab11bb,SCN,2024-06-20_16h40.59.717,LearnStrategy,2023.2.3,Win32,30.03003003,5,2,9,,,,,,,,6,06,,,,,,,,,,,6,1.827,1,,,,,,-0.186111111,-0.384259288,1,0,0,1.8272,Pegmatite_rect,8,0,8,0,1,
65ec6e1775ee75820dab11bb,SCN,2024-06-20_16h40.59.717,LearnStrategy,2023.2.3,Win32,30.03003003,5,2,10,,,,,,,,3,15,,,,,,,,,,,4,2.424,0,,,,,,0.361111111,-0.236111111,1,0,0,2.4244,Gabbro_rect,9,0,9,0,1,
65ec6e1775ee75820dab11bb,SCN,2024-06-20_16h40.59.717,LearnStrategy,2023.2.3,Win32,30.03003003,5,2,11,,,,,,,,2,06,,,,,,,,,,,2,2.316,1,,,,,,-0.127777778,-0.237037065,1,0,0,2.3164,Basalt_rect,10,0,10,0,1,
65ec6e1775ee75820dab11bb,SCN,2024-06-20_16h40.59.717,LearnStrategy,2023.2.3,Win32,30.03003003,5,2,12,,,,,,,,4,05,,,,,,,,,,,7,1.495,0,,,,,,0.118518575,-0.395370399,1,0,0,1.4954,Peridotite_rect,11,0,11,0,1,
65ec6e1775ee75820dab11bb,SCN,2024-06-20_16h40.59.717,LearnStrategy,2023.2.3,Win32,30.03003003,5,2,13,,,,,,,,5,16,,,,,,,,,,,5,2.35,1,,,,,,-0.37870369,-0.410185242,1,0,0,2.3497,Obsidian_rect,12,0,12,0,1,
65ec6e1775ee75820dab11bb,SCN,2024-06-20_16h40.59.717,LearnStrategy,2023.2.3,Win32,30.03003003,5,2,14,,,,,,,,5,08,,,,,,,,,,,5,1.125,1,,,,,,-0.362037023,-0.387963019,1,0,0,1.1249,Obsidian_rect,13,0,13,0,1,
65ec6e1775ee75820dab11bb,SCN,2024-06-20_16h40.59.717,LearnStrategy,2023.2.3,Win32,30.03003003,5,2,15,,,,,,,,8,09,,,,,,,,,,,8,2.212,1,,,,,,0.40648151,-0.385185242,1,0,0,2.2122,Pumice_rect,14,0,14,0,1,
65ec6e1775ee75820dab11bb,SCN,2024-06-20_16h40.59.717,LearnStrategy,2023.2.3,Win32,30.03003003,5,2,16,,,,,,,,4,16,,,,,,,,,,,4,1.538,1,,,,,,0.375925954,-0.246296353,1,0,0,1.5376,Gabbro_rect,15,0,15,0,1,
65ec6e1775ee75820dab11bb,SCN,2024-06-20_16h40.59.717,LearnStrategy,2023.2.3,Win32,30.03003003,6,1,1,-0.571296289,-0.1,1,0,0,2.2303,Pumice_10,8,10,3,1,2.23,0.304629686,-0.416666667,1,0,0,1.7293,Pumice_rect,8,1.729,1,0,0,0,0,1,,,,,,,,,,,,,
65ec6e1775ee75820dab11bb,SCN,2024-06-20_16h40.59.717,LearnStrategy,2023.2.3,Win32,30.03003003,6,1,2,-0.431481467,-0.113888889,1,0,0,1.127,Pumice_13,8,13,3,2,1.127,0.353703732,-0.403703732,1,0,0,2.5222,Pumice_rect,8,2.522,1,1,0,1,0,1,,,,,,,,,,,,,
65ec6e1775ee75820dab11bb,SCN,2024-06-20_16h40.59.717,LearnStrategy,2023.2.3,Win32,30.03003003,6,1,3,-0.249074046,-0.120370399,1,0,0,1.061,Obsidian_05,5,05,3,3,1.061,-0.454629601,-0.400925954,1,0,0,1.6793,Obsidian_rect,5,1.679,1,2,0,2,0,1,,,,,,,,,,,,,
65ec6e1775ee75820dab11bb,SCN,2024-06-20_16h40.59.717,LearnStrategy,2023.2.3,Win32,30.03003003,6,1,4,-0.074074046,-0.062037065,1,0,0,0.9631,Basalt_05,2,05,3,4,0.963,-0.112962935,-0.259259288,1,0,0,1.1913,Basalt_rect,2,1.191,1,3,0,3,0,1,,,,,,,,,,,,,
65ec6e1775ee75820dab11bb,SCN,2024-06-20_16h40.59.717,LearnStrategy,2023.2.3,Win32,30.03003003,6,1,5,0.076851908,-0.107407422,1,0,0,1.1629,Pegmatite_05,6,05,3,5,1.163,-0.175,-0.419444444,1,0,0,1.2613,Pegmatite_rect,6,1.261,1,4,0,4,0,1,,,,,,,,,,,,,
65ec6e1775ee75820dab11bb,SCN,2024-06-20_16h40.59.717,LearnStrategy,2023.2.3,Win32,30.03003003,6,1,6,0.251851908,-0.086111111,1,0,0,1.0958,Diorite_13,3,13,3,6,1.096,0.405555556,-0.242592621,1,0,0,1.2734,Gabbro_rect,4,1.273,0,5,0,5,0,1,,,,,,,,,,,,,
65ec6e1775ee75820dab11bb,SCN,2024-06-20_16h40.59.717,LearnStrategy,2023.2.3,Win32,30.03003003,6,1,7,0.411111111,-0.107407422,1,0,0,1.1952,Andesite_10,1,10,3,7,1.195,0.134259288,-0.242592621,1,0,0,1.5247,Diorite_rect,3,1.525,0,6,0,6,0,1,,,,,,,,,,,,,
65ec6e1775ee75820dab11bb,SCN,2024-06-20_16h40.59.717,LearnStrategy,2023.2.3,Win32,30.03003003,6,1,8,0.567592706,-0.126851866,1,0,0,1.0986,Basalt_02,2,02,3,8,1.099,-0.087962935,-0.254629686,1,0,0,1.5175,Basalt_rect,2,1.518,1,7,0,7,0,1,,,,,,,,,,,,,
65ec6e1775ee75820dab11bb,SCN,2024-06-20_16h40.59.717,LearnStrategy,2023.2.3,Win32,30.03003003,6,1,9,-0.548148134,-0.253703732,1,0,0,1.7296,Diorite_11,3,11,2,1,1.73,0.122222222,-0.412963019,1,0,0,1.3922,Peridotite_rect,7,1.392,0,8,0,8,0,1,,,,,,,,,,,,,
65ec6e1775ee75820dab11bb,SCN,2024-06-20_16h40.59.717,LearnStrategy,2023.2.3,Win32,30.03003003,6,1,10,-0.413888889,-0.272222222,1,0,0,2.3628,Gabbro_03,4,03,2,2,2.363,0.089814843,-0.236111111,1,0,0,1.3327,Diorite_rect,3,1.333,0,9,0,9,0,1,,,,,,,,,,,,,
65ec6e1775ee75820dab11bb,SCN,2024-06-20_16h40.59.717,LearnStrategy,2023.2.3,Win32,30.03003003,6,1,11,-0.244444444,-0.237037065,1,0,0,2.2941,Diorite_09,3,09,2,3,2.294,0.119444444,-0.232407464,1,0,0,1.6736,Diorite_rect,3,1.674,1,10,0,10,0,1,,,,,,,,,,,,,
65ec6e1775ee75820dab11bb,SCN,2024-06-20_16h40.59.717,LearnStrategy,2023.2.3,Win32,30.03003003,6,1,12,-0.087036981,-0.25648151,1,0,0,1.597,Basalt_09,2,09,2,4,1.597,-0.151851824,-0.232407464,1,0,0,1.0567,Basalt_rect,2,1.057,1,11,0,11,0,1,,,,,,,,,,,,,
65ec6e1775ee75820dab11bb,SCN,2024-06-20_16h40.59.717,LearnStrategy,2023.2.3,Win32,30.03003003,6,1,13,0.087037065,-0.260185242,1,0,0,1.3281,Basalt_11,2,11,2,5,1.328,-0.372222222,-0.266666667,1,0,0,1.5559,Andesite_rect,1,1.556,0,12,0,12,0,1,,,,,,,,,,,,,
65ec6e1775ee75820dab11bb,SCN,2024-06-20_16h40.59.717,LearnStrategy,2023.2.3,Win32,30.03003003,6,1,14,0.249074131,-0.254629686,1,0,0,1.2604,Obsidian_09,5,09,2,6,1.26,-0.404629601,-0.389814843,1,0,0,2.7408,Obsidian_rect,5,2.741,1,13,0,13,0,1,,,,,,,,,,,,,
65ec6e1775ee75820dab11bb,SCN,2024-06-20_16h40.59.717,LearnStrategy,2023.2.3,Win32,30.03003003,6,1,15,0.362037065,-0.25648151,1,0,0,1.4965,Peridotite_05,7,05,2,7,1.496,0.105555556,-0.392592621,1,0,0,1.3735,Peridotite_rect,7,1.374,1,14,0,14,0,1,,,,,,,,,,,,,
65ec6e1775ee75820dab11bb,SCN,2024-06-20_16h40.59.717,LearnStrategy,2023.2.3,Win32,30.03003003,6,1,16,0.539814928,-0.260185242,1,0,0,1.7629,Basalt_10,2,10,2,8,1.763,-0.102777778,-0.248148176,1,0,0,2.6641,Basalt_rect,2,2.664,1,15,0,15,0,1,,,,,,,,,,,,,
65ec6e1775ee75820dab11bb,SCN,2024-06-20_16h40.59.717,LearnStrategy,2023.2.3,Win32,30.03003003,6,2,1,,,,,,,,7,14,,,,,,,,,,,7,1.378,1,,,,,,0.162963019,-0.392592621,1,0,0,1.3781,Peridotite_rect,0,0,0,0,1,
65ec6e1775ee75820dab11bb,SCN,2024-06-20_16h40.59.717,LearnStrategy,2023.2.3,Win32,30.03003003,6,2,2,,,,,,,,7,07,,,,,,,,,,,7,1.52,1,,,,,,0.163888889,-0.421296353,1,0,0,1.5198,Peridotite_rect,1,0,1,0,1,
65ec6e1775ee75820dab11bb,SCN,2024-06-20_16h40.59.717,LearnStrategy,2023.2.3,Win32,30.03003003,6,2,3,,,,,,,,2,04,,,,,,,,,,,2,1.323,1,,,,,,-0.133333333,-0.236111111,1,0,0,1.3229,Basalt_rect,2,0,2,0,1,
65ec6e1775ee75820dab11bb,SCN,2024-06-20_16h40.59.717,LearnStrategy,2023.2.3,Win32,30.03003003,6,2,4,,,,,,,,6,10,,,,,,,,,,,6,2.165,1,,,,,,-0.144444444,-0.388888889,1,0,0,2.1651,Pegmatite_rect,3,0,3,0,1,
65ec6e1775ee75820dab11bb,SCN,2024-06-20_16h40.59.717,LearnStrategy,2023.2.3,Win32,30.03003003,6,2,5,,,,,,,,8,15,,,,,,,,,,,8,1.341,1,,,,,,0.337963019,-0.393518575,1,0,0,1.3415,Pumice_rect,4,0,4,0,1,
65ec6e1775ee75820dab11bb,SCN,2024-06-20_16h40.59.717,LearnStrategy,2023.2.3,Win32,30.03003003,6,2,6,,,,,,,,8,05,,,,,,,,,,,8,0.921,1,,,,,,0.337963019,-0.393518575,1,0,0,0.921,Pumice_rect,5,0,5,0,1,
65ec6e1775ee75820dab11bb,SCN,2024-06-20_16h40.59.717,LearnStrategy,2023.2.3,Win32,30.03003003,6,2,7,,,,,,,,1,14,,,,,,,,,,,4,2.611,0,,,,,,0.344444444,-0.259259288,1,0,0,2.6109,Gabbro_rect,6,0,6,0,1,
65ec6e1775ee75820dab11bb,SCN,2024-06-20_16h40.59.717,LearnStrategy,2023.2.3,Win32,30.03003003,6,2,8,,,,,,,,5,07,,,,,,,,,,,5,1.563,1,,,,,,-0.408333333,-0.394444444,1,0,0,1.563,Obsidian_rect,7,0,7,0,1,
65ec6e1775ee75820dab11bb,SCN,2024-06-20_16h40.59.717,LearnStrategy,2023.2.3,Win32,30.03003003,6,2,9,,,,,,,,4,12,,,,,,,,,,,3,1.824,0,,,,,,0.138888889,-0.260185242,1,0,0,1.824,Diorite_rect,8,0,8,0,1,
65ec6e1775ee75820dab11bb,SCN,2024-06-20_16h40.59.717,LearnStrategy,2023.2.3,Win32,30.03003003,6,2,10,,,,,,,,1,11,,,,,,,,,,,1,2.56,1,,,,,,-0.381481467,-0.253703732,1,0,0,2.56,Andesite_rect,9,0,9,0,1,
65ec6e1775ee75820dab11bb,SCN,2024-06-20_16h40.59.717,LearnStrategy,2023.2.3,Win32,30.03003003,6,2,11,,,,,,,,4,14,,,,,,,,,,,4,1.635,1,,,,,,0.365740797,-0.236111111,1,0,0,1.6353,Gabbro_rect,10,0,10,0,1,
65ec6e1775ee75820dab11bb,SCN,2024-06-20_16h40.59.717,LearnStrategy,2023.2.3,Win32,30.03003003,6,2,12,,,,,,,,6,16,,,,,,,,,,,6,1.284,1,,,,,,-0.142592536,-0.411111111,1,0,0,1.2839,Pegmatite_rect,11,0,11,0,1,
65ec6e1775ee75820dab11bb,SCN,2024-06-20_16h40.59.717,LearnStrategy,2023.2.3,Win32,30.03003003,6,2,13,,,,,,,,3,07,,,,,,,,,,,3,1.376,1,,,,,,0.116666667,-0.265740797,1,0,0,1.3759,Diorite_rect,12,0,12,0,1,
65ec6e1775ee75820dab11bb,SCN,2024-06-20_16h40.59.717,LearnStrategy,2023.2.3,Win32,30.03003003,6,2,14,,,,,,,,5,14,,,,,,,,,,,5,4.161,1,,,,,,-0.458333333,-0.412963019,1,0,0,4.1605,Obsidian_rect,13,0,13,0,1,
65ec6e1775ee75820dab11bb,SCN,2024-06-20_16h40.59.717,LearnStrategy,2023.2.3,Win32,30.03003003,6,2,15,,,,,,,,3,14,,,,,,,,,,,3,1.562,1,,,,,,0.088888889,-0.265740797,1,0,0,1.5622,Diorite_rect,14,0,14,0,1,
65ec6e1775ee75820dab11bb,SCN,2024-06-20_16h40.59.717,LearnStrategy,2023.2.3,Win32,30.03003003,6,2,16,,,,,,,,2,08,,,,,,,,,,,2,2.644,1,,,,,,-0.126851824,-0.261111111,1,0,0,2.6442,Basalt_rect,15,0,15,0,1,
65ec6e1775ee75820dab11bb,SCN,2024-06-20_16h40.59.717,LearnStrategy,2023.2.3,Win32,30.03003003,7,1,1,-0.099074046,-0.098148176,1,0,0,1.5295,Basalt_05,2,05,3,4,1.529,-0.081481425,-0.269444444,1,0,0,1.6402,Basalt_rect,2,1.64,1,0,0,0,0,1,,,,,,,,,,,,,
65ec6e1775ee75820dab11bb,SCN,2024-06-20_16h40.59.717,LearnStrategy,2023.2.3,Win32,30.03003003,7,1,2,0.08148151,-0.100925954,1,0,0,1.6279,Pegmatite_05,6,05,3,5,1.628,-0.144444444,-0.419444444,1,0,0,2.9546,Pegmatite_rect,6,2.955,1,1,0,1,0,1,,,,,,,,,,,,,
65ec6e1775ee75820dab11bb,SCN,2024-06-20_16h40.59.717,LearnStrategy,2023.2.3,Win32,30.03003003,7,1,3,0.242592621,-0.062962977,1,0,0,1.2981,Diorite_13,3,13,3,6,1.298,0.112037065,-0.241666667,1,0,0,1.1166,Diorite_rect,3,1.117,1,2,0,2,0,1,,,,,,,,,,,,,
65ec6e1775ee75820dab11bb,SCN,2024-06-20_16h40.59.717,LearnStrategy,2023.2.3,Win32,30.03003003,7,1,4,0.391666667,-0.103703732,1,0,0,1.1625,Andesite_10,1,10,3,7,1.163,-0.325,-0.244444444,1,0,0,1.2989,Andesite_rect,1,1.299,1,3,0,3,0,1,,,,,,,,,,,,,
65ec6e1775ee75820dab11bb,SCN,2024-06-20_16h40.59.717,LearnStrategy,2023.2.3,Win32,30.03003003,7,1,5,0.558333333,-0.109259288,1,0,0,1.0633,Basalt_02,2,02,3,8,1.063,-0.080555556,-0.245370399,1,0,0,1.1929,Basalt_rect,2,1.193,1,4,0,4,0,1,,,,,,,,,,,,,
65ec6e1775ee75820dab11bb,SCN,2024-06-20_16h40.59.717,LearnStrategy,2023.2.3,Win32,30.03003003,7,1,6,-0.569444444,-0.262037065,1,0,0,1.2962,Diorite_11,3,11,2,1,1.296,0.125,-0.394444444,1,0,0,1.1322,Peridotite_rect,7,1.132,0,5,0,5,0,1,,,,,,,,,,,,,
65ec6e1775ee75820dab11bb,SCN,2024-06-20_16h40.59.717,LearnStrategy,2023.2.3,Win32,30.03003003,7,1,7,-0.407407379,-0.265740797,1,0,0,1.7633,Gabbro_03,4,03,2,2,1.763,0.057407464,-0.236111111,1,0,0,1.2413,Diorite_rect,3,1.241,0,6,0,6,0,1,,,,,,,,,,,,,
65ec6e1775ee75820dab11bb,SCN,2024-06-20_16h40.59.717,LearnStrategy,2023.2.3,Win32,30.03003003,7,1,8,-0.397222222,-0.234259288,1,0,0,1.1622,Gabbro_03,4,03,2,2,1.162,0.443518575,-0.245370399,1,0,0,1.0225,Gabbro_rect,4,1.023,1,7,0,7,0,1,,,,,,,,,,,,,
65ec6e1775ee75820dab11bb,SCN,2024-06-20_16h40.59.717,LearnStrategy,2023.2.3,Win32,30.03003003,7,1,9,-0.225,-0.258333333,1,0,0,1.0934,Diorite_09,3,09,2,3,1.093,0.111111111,-0.244444444,1,0,0,4.7871,Diorite_rect,3,4.787,1,8,0,8,0,1,,,,,,,,,,,,,
65ec6e1775ee75820dab11bb,SCN,2024-06-20_16h40.59.717,LearnStrategy,2023.2.3,Win32,30.03003003,7,1,10,-0.098148092,-0.257407464,1,0,0,1.0949,Basalt_09,2,09,2,4,1.095,-0.112962935,-0.258333333,1,0,0,0.9138,Basalt_rect,2,0.914,1,9,0,9,0,1,,,,,,,,,,,,,
65ec6e1775ee75820dab11bb,SCN,2024-06-20_16h40.59.717,LearnStrategy,2023.2.3,Win32,30.03003003,7,1,11,-0.409259245,-0.438888889,1,0,0,3.7618,Diorite_02,3,02,1,2,3.762,0.051851908,-0.252777778,1,0,0,1.1742,Diorite_rect,3,1.174,1,10,0,10,0,1,,,,,,,,,,,,,
65ec6e1775ee75820dab11bb,SCN,2024-06-20_16h40.59.717,LearnStrategy,2023.2.3,Win32,30.03003003,7,1,12,0.199074131,-0.402777778,1,0,0,1.7289,Andesite_06,1,06,1,6,1.729,-0.391666667,-0.25,1,0,0,1.8011,Andesite_rect,1,1.801,1,11,0,11,0,1,,,,,,,,,,,,,
65ec6e1775ee75820dab11bb,SCN,2024-06-20_16h40.59.717,LearnStrategy,2023.2.3,Win32,30.03003003,7,1,13,0.537963019,-0.394444444,1,0,0,0.9968,Diorite_12,3,12,1,8,0.997,0.351851908,-0.262963019,1,0,0,1.7445,Gabbro_rect,4,1.745,0,12,0,12,0,1,,,,,,,,,,,,,
65ec6e1775ee75820dab11bb,SCN,2024-06-20_16h40.59.717,LearnStrategy,2023.2.3,Win32,30.03003003,7,1,14,0.382407464,-0.405555556,1,0,0,1.1622,Obsidian_10,5,10,1,7,1.162,-0.351851824,-0.393518575,1,0,0,1.3141,Obsidian_rect,5,1.314,1,13,0,13,0,1,,,,,,,,,,,,,
65ec6e1775ee75820dab11bb,SCN,2024-06-20_16h40.59.717,LearnStrategy,2023.2.3,Win32,30.03003003,7,1,15,0.058333333,0.110185157,1,0,0,1.0301,Pumice_03,8,03,4,5,1.03,0.360185242,-0.379629686,1,0,0,1.0763,Pumice_rect,8,1.076,1,14,0,14,0,1,,,,,,,,,,,,,
65ec6e1775ee75820dab11bb,SCN,2024-06-20_16h40.59.717,LearnStrategy,2023.2.3,Win32,30.03003003,7,1,16,0.2,0.092592578,1,0,0,1.4279,Gabbro_11,4,11,4,6,1.428,0.08148151,-0.242592621,1,0,0,1.0668,Diorite_rect,3,1.067,0,15,0,15,0,1,,,,,,,,,,,,,
65ec6e1775ee75820dab11bb,SCN,2024-06-20_16h40.59.717,LearnStrategy,2023.2.3,Win32,30.03003003,7,2,1,,,,,,,,5,08,,,,,,,,,,,5,1.194,1,,,,,,-0.392592578,-0.4,1,0,0,1.1936,Obsidian_rect,0,0,0,0,1,
65ec6e1775ee75820dab11bb,SCN,2024-06-20_16h40.59.717,LearnStrategy,2023.2.3,Win32,30.03003003,7,2,2,,,,,,,,5,14,,,,,,,,,,,5,0.884,1,,,,,,-0.369444444,-0.396296353,1,0,0,0.8841,Obsidian_rect,1,0,1,0,1,
65ec6e1775ee75820dab11bb,SCN,2024-06-20_16h40.59.717,LearnStrategy,2023.2.3,Win32,30.03003003,7,2,3,,,,,,,,3,15,,,,,,,,,,,4,2.415,0,,,,,,0.303703732,-0.243518575,1,0,0,2.4154,Gabbro_rect,2,0,2,0,1,
65ec6e1775ee75820dab11bb,SCN,2024-06-20_16h40.59.717,LearnStrategy,2023.2.3,Win32,30.03003003,7,2,4,,,,,,,,8,04,,,,,,,,,,,8,1.479,1,,,,,,0.352777778,-0.40648151,1,0,0,1.4785,Pumice_rect,3,0,3,0,1,
65ec6e1775ee75820dab11bb,SCN,2024-06-20_16h40.59.717,LearnStrategy,2023.2.3,Win32,30.03003003,7,2,5,,,,,,,,1,11,,,,,,,,,,,1,3.171,1,,,,,,-0.332407379,-0.260185242,1,0,0,3.1712,Andesite_rect,4,0,4,0,1,
65ec6e1775ee75820dab11bb,SCN,2024-06-20_16h40.59.717,LearnStrategy,2023.2.3,Win32,30.03003003,7,2,6,,,,,,,,4,14,,,,,,,,,,,4,4.054,1,,,,,,0.346296353,-0.261111111,1,0,0,4.0543,Gabbro_rect,5,0,5,0,1,
65ec6e1775ee75820dab11bb,SCN,2024-06-20_16h40.59.717,LearnStrategy,2023.2.3,Win32,30.03003003,7,2,7,,,,,,,,8,08,,,,,,,,,,,8,1.443,1,,,,,,0.327777778,-0.397222222,1,0,0,1.4434,Pumice_rect,6,0,6,0,1,
65ec6e1775ee75820dab11bb,SCN,2024-06-20_16h40.59.717,LearnStrategy,2023.2.3,Win32,30.03003003,7,2,8,,,,,,,,6,08,,,,,,,,,,,6,1.385,1,,,,,,-0.185185157,-0.415740797,1,0,0,1.3849,Pegmatite_rect,7,0,7,0,1,
65ec6e1775ee75820dab11bb,SCN,2024-06-20_16h40.59.717,LearnStrategy,2023.2.3,Win32,30.03003003,7,2,9,,,,,,,,7,12,,,,,,,,,,,7,1.401,1,,,,,,0.060185242,-0.383333333,1,0,0,1.4013,Peridotite_rect,8,0,8,0,1,
65ec6e1775ee75820dab11bb,SCN,2024-06-20_16h40.59.717,LearnStrategy,2023.2.3,Win32,30.03003003,7,2,10,,,,,,,,2,06,,,,,,,,,,,2,1.351,1,,,,,,-0.120370314,-0.262037065,1,0,0,1.3511,Basalt_rect,9,0,9,0,1,
65ec6e1775ee75820dab11bb,SCN,2024-06-20_16h40.59.717,LearnStrategy,2023.2.3,Win32,30.03003003,7,2,11,,,,,,,,1,14,,,,,,,,,,,6,1.724,0,,,,,,-0.104629601,-0.399074131,1,0,0,1.7235,Pegmatite_rect,10,0,10,0,1,
65ec6e1775ee75820dab11bb,SCN,2024-06-20_16h40.59.717,LearnStrategy,2023.2.3,Win32,30.03003003,7,2,12,,,,,,,,3,07,,,,,,,,,,,3,1.84,1,,,,,,0.1,-0.263888889,1,0,0,1.8399,Diorite_rect,11,0,11,0,1,
65ec6e1775ee75820dab11bb,SCN,2024-06-20_16h40.59.717,LearnStrategy,2023.2.3,Win32,30.03003003,7,2,13,,,,,,,,4,16,,,,,,,,,,,4,1.817,1,,,,,,0.332407464,-0.25,1,0,0,1.8167,Gabbro_rect,12,0,12,0,1,
65ec6e1775ee75820dab11bb,SCN,2024-06-20_16h40.59.717,LearnStrategy,2023.2.3,Win32,30.03003003,7,2,14,,,,,,,,6,12,,,,,,,,,,,6,3.534,1,,,,,,-0.087036981,-0.38148151,1,0,0,3.5342,Pegmatite_rect,13,0,13,0,1,
65ec6e1775ee75820dab11bb,SCN,2024-06-20_16h40.59.717,LearnStrategy,2023.2.3,Win32,30.03003003,7,2,15,,,,,,,,7,02,,,,,,,,,,,7,1.255,1,,,,,,0.091666667,-0.389814843,1,0,0,1.2545,Peridotite_rect,14,0,14,0,1,
65ec6e1775ee75820dab11bb,SCN,2024-06-20_16h40.59.717,LearnStrategy,2023.2.3,Win32,30.03003003,7,2,16,,,,,,,,2,12,,,,,,,,,,,2,2.144,1,,,,,,-0.107407379,-0.235185242,1,0,0,2.1442,Basalt_rect,15,0,15,0,1,
65ec6e1775ee75820dab11bb,SCN,2024-06-20_16h40.59.717,LearnStrategy,2023.2.3,Win32,30.03003003,8,1,1,-0.077777778,-0.103703732,1,0,0,1.3959,Basalt_05,2,05,3,4,1.396,-0.098148092,-0.237037065,1,0,0,1.9389,Basalt_rect,2,1.939,1,0,0,0,0,1,,,,,,,,,,,,,
65ec6e1775ee75820dab11bb,SCN,2024-06-20_16h40.59.717,LearnStrategy,2023.2.3,Win32,30.03003003,8,1,2,0.215740797,0.091666667,1,0,0,1.4997,Gabbro_11,4,11,4,6,1.5,0.377777778,-0.230555556,1,0,0,1.5832,Gabbro_rect,4,1.583,1,1,0,1,0,1,,,,,,,,,,,,,
65ec6e1775ee75820dab11bb,SCN,2024-06-20_16h40.59.717,LearnStrategy,2023.2.3,Win32,30.03003003,8,1,3,0.516666667,0.102777778,1,0,0,1.0968,Pumice_14,8,14,4,8,1.097,0.389814843,-0.385185242,1,0,0,1.7317,Pumice_rect,8,1.732,1,2,0,2,0,1,,,,,,,,,,,,,
65ec6e1775ee75820dab11bb,SCN,2024-06-20_16h40.59.717,LearnStrategy,2023.2.3,Win32,30.03003003,8,1,4,0.532407464,-0.100925954,1,0,0,1.1795,Basalt_02,2,02,3,8,1.179,-0.044444444,-0.262037065,1,0,0,1.3281,Basalt_rect,2,1.328,1,3,0,3,0,1,,,,,,,,,,,,,
65ec6e1775ee75820dab11bb,SCN,2024-06-20_16h40.59.717,LearnStrategy,2023.2.3,Win32,30.03003003,8,1,5,0.568518575,-0.425,1,0,0,1.4289,Diorite_12,3,12,1,8,1.429,0.147222222,-0.266666667,1,0,0,1.2606,Diorite_rect,3,1.261,1,4,0,4,0,1,,,,,,,,,,,,,
65ec6e1775ee75820dab11bb,SCN,2024-06-20_16h40.59.717,LearnStrategy,2023.2.3,Win32,30.03003003,8,1,6,0.228703732,-0.409259288,1,0,0,1.3948,Andesite_06,1,06,1,6,1.395,0.095370399,-0.25,1,0,0,1.9095,Diorite_rect,3,1.91,0,5,0,5,0,1,,,,,,,,,,,,,
65ec6e1775ee75820dab11bb,SCN,2024-06-20_16h40.59.717,LearnStrategy,2023.2.3,Win32,30.03003003,8,1,7,0.064814843,-0.450925954,1,0,0,1.2278,Gabbro_15,4,15,1,5,1.228,0.357407464,-0.229629686,1,0,0,1.8,Gabbro_rect,4,1.8,1,6,0,6,0,1,,,,,,,,,,,,,
65ec6e1775ee75820dab11bb,SCN,2024-06-20_16h40.59.717,LearnStrategy,2023.2.3,Win32,30.03003003,8,1,8,-0.260185157,-0.395370399,1,0,0,2.6291,Pegmatite_03,6,03,1,3,2.629,-0.122222222,-0.385185242,1,0,0,1.4338,Pegmatite_rect,6,1.434,1,7,0,7,0,1,,,,,,,,,,,,,
65ec6e1775ee75820dab11bb,SCN,2024-06-20_16h40.59.717,LearnStrategy,2023.2.3,Win32,30.03003003,8,1,9,0.048148176,0.065740712,1,0,0,1.4284,Pumice_03,8,03,4,5,1.428,0.351851908,-0.408333333,1,0,0,1.212,Pumice_rect,8,1.212,1,8,0,8,0,1,,,,,,,,,,,,,
65ec6e1775ee75820dab11bb,SCN,2024-06-20_16h40.59.717,LearnStrategy,2023.2.3,Win32,30.03003003,8,1,10,0.267592621,0.092592578,1,0,0,1.2617,Gabbro_11,4,11,4,6,1.262,0.134259288,-0.245370399,1,0,0,2.0804,Diorite_rect,3,2.08,0,9,0,9,0,1,,,,,,,,,,,,,
65ec6e1775ee75820dab11bb,SCN,2024-06-20_16h40.59.717,LearnStrategy,2023.2.3,Win32,30.03003003,8,1,11,0.527777778,0.225925912,1,0,0,1.7591,Peridotite_10,7,10,5,8,1.759,0.108333333,-0.404629686,1,0,0,1.4297,Peridotite_rect,7,1.43,1,10,0,10,0,1,,,,,,,,,,,,,
65ec6e1775ee75820dab11bb,SCN,2024-06-20_16h40.59.717,LearnStrategy,2023.2.3,Win32,30.03003003,8,1,12,-0.406481467,-0.423148176,1,0,0,2.1625,Diorite_02,3,02,1,2,2.162,0.107407464,-0.253703732,1,0,0,1.4779,Diorite_rect,3,1.478,1,11,0,11,0,1,,,,,,,,,,,,,
65ec6e1775ee75820dab11bb,SCN,2024-06-20_16h40.59.717,LearnStrategy,2023.2.3,Win32,30.03003003,8,1,13,-0.212962935,-0.12129631,1,0,0,2.9648,Obsidian_05,5,05,3,3,2.965,-0.407407379,-0.396296353,1,0,0,1.7456,Obsidian_rect,5,1.746,1,12,0,12,0,1,,,,,,,,,,,,,
65ec6e1775ee75820dab11bb,SCN,2024-06-20_16h40.59.717,LearnStrategy,2023.2.3,Win32,30.03003003,8,1,14,0.550926039,0.124074046,1,0,0,1.6269,Pumice_14,8,14,4,8,1.627,0.377777778,-0.408333333,1,0,0,1.1509,Pumice_rect,8,1.151,1,13,0,13,0,1,,,,,,,,,,,,,
65ec6e1775ee75820dab11bb,SCN,2024-06-20_16h40.59.717,LearnStrategy,2023.2.3,Win32,30.03003003,8,1,15,-0.241666667,0.246296289,1,0,0,1.5296,Basalt_16,2,16,5,3,1.53,-0.149074046,-0.253703732,1,0,0,1.5133,Basalt_rect,2,1.513,1,14,0,14,0,1,,,,,,,,,,,,,
65ec6e1775ee75820dab11bb,SCN,2024-06-20_16h40.59.717,LearnStrategy,2023.2.3,Win32,30.03003003,8,1,16,0.103703732,0.264814801,1,0,0,0.9936,Gabbro_01,4,01,5,5,0.994,0.382407464,-0.268518575,1,0,0,1.5724,Gabbro_rect,4,1.572,1,15,0,15,0,1,,,,,,,,,,,,,
65ec6e1775ee75820dab11bb,SCN,2024-06-20_16h40.59.717,LearnStrategy,2023.2.3,Win32,30.03003003,8,2,1,,,,,,,,1,02,,,,,,,,,,,1,5.472,1,,,,,,-0.331481467,-0.250925954,1,0,0,5.4716,Andesite_rect,0,0,0,0,1,
65ec6e1775ee75820dab11bb,SCN,2024-06-20_16h40.59.717,LearnStrategy,2023.2.3,Win32,30.03003003,8,2,2,,,,,,,,6,10,,,,,,,,,,,6,1.282,1,,,,,,-0.162036981,-0.389814843,1,0,0,1.282,Pegmatite_rect,1,0,1,0,1,
65ec6e1775ee75820dab11bb,SCN,2024-06-20_16h40.59.717,LearnStrategy,2023.2.3,Win32,30.03003003,8,2,3,,,,,,,,4,09,,,,,,,,,,,3,1.878,0,,,,,,0.083333333,-0.261111111,1,0,0,1.8783,Diorite_rect,2,0,2,0,1,
65ec6e1775ee75820dab11bb,SCN,2024-06-20_16h40.59.717,LearnStrategy,2023.2.3,Win32,30.03003003,8,2,4,,,,,,,,5,07,,,,,,,,,,,5,1.425,1,,,,,,-0.401851824,-0.386111111,1,0,0,1.4253,Obsidian_rect,3,0,3,0,1,
65ec6e1775ee75820dab11bb,SCN,2024-06-20_16h40.59.717,LearnStrategy,2023.2.3,Win32,30.03003003,8,2,5,,,,,,,,4,10,,,,,,,,,,,1,1.878,0,,,,,,-0.330555556,-0.240740797,1,0,0,1.8785,Andesite_rect,4,0,4,0,1,
65ec6e1775ee75820dab11bb,SCN,2024-06-20_16h40.59.717,LearnStrategy,2023.2.3,Win32,30.03003003,8,2,6,,,,,,,,3,10,,,,,,,,,,,3,2.056,1,,,,,,0.078703732,-0.25648151,1,0,0,2.0557,Diorite_rect,5,0,5,0,1,
65ec6e1775ee75820dab11bb,SCN,2024-06-20_16h40.59.717,LearnStrategy,2023.2.3,Win32,30.03003003,8,2,7,,,,,,,,5,16,,,,,,,,,,,5,2.501,1,,,,,,-0.435185157,-0.409259288,1,0,0,2.5014,Obsidian_rect,6,0,6,0,1,
65ec6e1775ee75820dab11bb,SCN,2024-06-20_16h40.59.717,LearnStrategy,2023.2.3,Win32,30.03003003,8,2,8,,,,,,,,8,05,,,,,,,,,,,8,1.244,1,,,,,,0.372222222,-0.400925954,1,0,0,1.2445,Pumice_rect,7,0,7,0,1,
65ec6e1775ee75820dab11bb,SCN,2024-06-20_16h40.59.717,LearnStrategy,2023.2.3,Win32,30.03003003,8,2,9,,,,,,,,2,14,,,,,,,,,,,4,1.514,0,,,,,,0.375925954,-0.262963019,1,0,0,1.5135,Gabbro_rect,8,0,8,0,1,
65ec6e1775ee75820dab11bb,SCN,2024-06-20_16h40.59.717,LearnStrategy,2023.2.3,Win32,30.03003003,8,2,10,,,,,,,,7,13,,,,,,,,,,,7,2.54,1,,,,,,0.105555556,-0.386111111,1,0,0,2.5403,Peridotite_rect,9,0,9,0,1,
65ec6e1775ee75820dab11bb,SCN,2024-06-20_16h40.59.717,LearnStrategy,2023.2.3,Win32,30.03003003,8,2,11,,,,,,,,7,07,,,,,,,,,,,7,1.041,1,,,,,,0.105555556,-0.385185242,1,0,0,1.0405,Peridotite_rect,10,0,10,0,1,
65ec6e1775ee75820dab11bb,SCN,2024-06-20_16h40.59.717,LearnStrategy,2023.2.3,Win32,30.03003003,8,2,12,,,,,,,,8,15,,,,,,,,,,,8,1.313,1,,,,,,0.350925954,-0.38148151,1,0,0,1.3132,Pumice_rect,11,0,11,0,1,
65ec6e1775ee75820dab11bb,SCN,2024-06-20_16h40.59.717,LearnStrategy,2023.2.3,Win32,30.03003003,8,2,13,,,,,,,,6,11,,,,,,,,,,,6,1.677,1,,,,,,-0.133333333,-0.393518575,1,0,0,1.6775,Pegmatite_rect,12,0,12,0,1,
65ec6e1775ee75820dab11bb,SCN,2024-06-20_16h40.59.717,LearnStrategy,2023.2.3,Win32,30.03003003,8,2,14,,,,,,,,1,05,,,,,,,,,,,4,2.475,0,,,,,,0.320370399,-0.233333333,1,0,0,2.4745,Gabbro_rect,13,0,13,0,1,
65ec6e1775ee75820dab11bb,SCN,2024-06-20_16h40.59.717,LearnStrategy,2023.2.3,Win32,30.03003003,8,2,15,,,,,,,,2,04,,,,,,,,,,,2,1.127,1,,,,,,-0.109259203,-0.255555556,1,0,0,1.1266,Basalt_rect,14,0,14,0,1,
65ec6e1775ee75820dab11bb,SCN,2024-06-20_16h40.59.717,LearnStrategy,2023.2.3,Win32,30.03003003,8,2,16,,,,,,,,3,08,,,,,,,,,,,3,1.335,1,,,,,,0.128703732,-0.259259288,1,0,0,1.3348,Diorite_rect,15,0,15,0,1,
65ec6e1775ee75820dab11bb,SCN,2024-06-20_16h40.59.717,LearnStrategy,2023.2.3,Win32,30.03003003,9,1,1,-0.049074046,0.105555556,1,0,0,1.1647,Obsidian_06,5,06,4,4,1.165,-0.425,-0.420370399,1,0,0,1.5787,Obsidian_rect,5,1.579,1,0,0,0,0,1,,,,,,,,,,,,,
65ec6e1775ee75820dab11bb,SCN,2024-06-20_16h40.59.717,LearnStrategy,2023.2.3,Win32,30.03003003,9,1,2,0.069444444,0.106481467,1,0,0,1.3296,Pumice_03,8,03,4,5,1.33,0.380555556,-0.397222222,1,0,0,1.4219,Pumice_rect,8,1.422,1,1,0,1,0,1,,,,,,,,,,,,,
65ec6e1775ee75820dab11bb,SCN,2024-06-20_16h40.59.717,LearnStrategy,2023.2.3,Win32,30.03003003,9,1,3,0.399074131,0.066666667,1,0,0,1.1633,Peridotite_15,7,15,4,7,1.163,0.143518575,-0.395370399,1,0,0,1.2586,Peridotite_rect,7,1.259,1,2,0,2,0,1,,,,,,,,,,,,,
65ec6e1775ee75820dab11bb,SCN,2024-06-20_16h40.59.717,LearnStrategy,2023.2.3,Win32,30.03003003,9,1,4,0.234259288,-0.230555556,1,0,0,1.1927,Obsidian_09,5,09,2,6,1.193,-0.351851824,-0.410185242,1,0,0,2.3264,Obsidian_rect,5,2.326,1,3,0,3,0,1,,,,,,,,,,,,,
65ec6e1775ee75820dab11bb,SCN,2024-06-20_16h40.59.717,LearnStrategy,2023.2.3,Win32,30.03003003,9,1,5,0.227777778,-0.418518575,1,0,0,1.1603,Andesite_06,1,06,1,6,1.16,0.095370399,-0.249074131,1,0,0,1.8931,Diorite_rect,3,1.893,0,4,0,4,0,1,,,,,,,,,,,,,
65ec6e1775ee75820dab11bb,SCN,2024-06-20_16h40.59.717,LearnStrategy,2023.2.3,Win32,30.03003003,9,1,6,0.563888889,-0.152777778,1,0,0,1.2292,Basalt_02,2,02,3,8,1.229,-0.121296268,-0.253703732,1,0,0,1.9405,Basalt_rect,2,1.941,1,5,0,5,0,1,,,,,,,,,,,,,
65ec6e1775ee75820dab11bb,SCN,2024-06-20_16h40.59.717,LearnStrategy,2023.2.3,Win32,30.03003003,9,1,7,0.4,-0.439814843,1,0,0,1.2595,Obsidian_10,5,10,1,7,1.26,-0.127777778,-0.410185242,1,0,0,0.9813,Pegmatite_rect,6,0.981,0,6,0,6,0,1,,,,,,,,,,,,,
65ec6e1775ee75820dab11bb,SCN,2024-06-20_16h40.59.717,LearnStrategy,2023.2.3,Win32,30.03003003,9,1,8,-0.091666667,0.095370356,1,0,0,0.8643,Obsidian_06,5,06,4,4,0.864,-0.389814801,-0.411111111,1,0,0,1.0425,Obsidian_rect,5,1.043,1,7,0,7,0,1,,,,,,,,,,,,,
65ec6e1775ee75820dab11bb,SCN,2024-06-20_16h40.59.717,LearnStrategy,2023.2.3,Win32,30.03003003,9,1,9,0.40648151,0.112037023,1,0,0,1.0956,Peridotite_15,7,15,4,7,1.096,0.13148151,-0.4,1,0,0,2.1626,Peridotite_rect,7,2.163,1,8,0,8,0,1,,,,,,,,,,,,,
65ec6e1775ee75820dab11bb,SCN,2024-06-20_16h40.59.717,LearnStrategy,2023.2.3,Win32,30.03003003,9,1,10,0.098148176,0.072222222,1,0,0,0.9993,Pumice_03,8,03,4,5,0.999,0.377777778,-0.387963019,1,0,0,1.2993,Pumice_rect,8,1.299,1,9,0,9,0,1,,,,,,,,,,,,,
65ec6e1775ee75820dab11bb,SCN,2024-06-20_16h40.59.717,LearnStrategy,2023.2.3,Win32,30.03003003,9,1,11,0.087037065,0.092592578,1,0,0,1.5935,Pumice_03,8,03,4,5,1.593,0.362963019,-0.409259288,1,0,0,2.135,Pumice_rect,8,2.135,1,10,0,10,0,1,,,,,,,,,,,,,
65ec6e1775ee75820dab11bb,SCN,2024-06-20_16h40.59.717,LearnStrategy,2023.2.3,Win32,30.03003003,9,1,12,-0.102777778,0.081481467,1,0,0,0.8603,Obsidian_06,5,06,4,4,0.86,-0.176851824,-0.260185242,1,0,0,1.0563,Basalt_rect,2,1.056,0,11,0,11,0,1,,,,,,,,,,,,,
65ec6e1775ee75820dab11bb,SCN,2024-06-20_16h40.59.717,LearnStrategy,2023.2.3,Win32,30.03003003,9,1,13,0.091666667,0.130555556,1,0,0,0.8303,Pumice_03,8,03,4,5,0.83,0.377777778,-0.396296353,1,0,0,1.109,Pumice_rect,8,1.109,1,12,0,12,0,1,,,,,,,,,,,,,
65ec6e1775ee75820dab11bb,SCN,2024-06-20_16h40.59.717,LearnStrategy,2023.2.3,Win32,30.03003003,9,1,14,0.222222222,0.062962935,1,0,0,0.962,Gabbro_11,4,11,4,6,0.962,0.088888889,-0.258333333,1,0,0,1.226,Diorite_rect,3,1.226,0,13,0,13,0,1,,,,,,,,,,,,,
65ec6e1775ee75820dab11bb,SCN,2024-06-20_16h40.59.717,LearnStrategy,2023.2.3,Win32,30.03003003,9,1,15,0.56203715,0.090740712,1,0,0,1.4951,Pumice_14,8,14,4,8,1.495,0.390740797,-0.395370399,1,0,0,1.5068,Pumice_rect,8,1.507,1,14,0,14,0,1,,,,,,,,,,,,,
65ec6e1775ee75820dab11bb,SCN,2024-06-20_16h40.59.717,LearnStrategy,2023.2.3,Win32,30.03003003,9,1,16,-0.052777778,0.241666667,1,0,0,1.4301,Pegmatite_09,6,09,5,4,1.43,-0.163888889,-0.384259288,1,0,0,1.1081,Pegmatite_rect,6,1.108,1,15,0,15,0,1,,,,,,,,,,,,,
65ec6e1775ee75820dab11bb,SCN,2024-06-20_16h40.59.717,LearnStrategy,2023.2.3,Win32,30.03003003,9,2,1,,,,,,,,5,04,,,,,,,,,,,5,1.642,1,,,,,,-0.362037023,-0.387037065,1,0,0,1.6422,Obsidian_rect,0,0,0,0,1,
65ec6e1775ee75820dab11bb,SCN,2024-06-20_16h40.59.717,LearnStrategy,2023.2.3,Win32,30.03003003,9,2,2,,,,,,,,3,16,,,,,,,,,,,3,1.885,1,,,,,,0.090740797,-0.25648151,1,0,0,1.8854,Diorite_rect,1,0,1,0,1,
65ec6e1775ee75820dab11bb,SCN,2024-06-20_16h40.59.717,LearnStrategy,2023.2.3,Win32,30.03003003,9,2,3,,,,,,,,4,12,,,,,,,,,,,4,1.591,1,,,,,,0.35,-0.261111111,1,0,0,1.5912,Gabbro_rect,2,0,2,0,1,
65ec6e1775ee75820dab11bb,SCN,2024-06-20_16h40.59.717,LearnStrategy,2023.2.3,Win32,30.03003003,9,2,4,,,,,,,,7,14,,,,,,,,,,,7,1.883,1,,,,,,0.145370399,-0.412037065,1,0,0,1.8833,Peridotite_rect,3,0,3,0,1,
65ec6e1775ee75820dab11bb,SCN,2024-06-20_16h40.59.717,LearnStrategy,2023.2.3,Win32,30.03003003,9,2,5,,,,,,,,2,01,,,,,,,,,,,2,1.319,1,,,,,,-0.102777778,-0.236111111,1,0,0,1.3192,Basalt_rect,4,0,4,0,1,
65ec6e1775ee75820dab11bb,SCN,2024-06-20_16h40.59.717,LearnStrategy,2023.2.3,Win32,30.03003003,9,2,6,,,,,,,,1,01,,,,,,,,,,,1,2.2,1,,,,,,-0.344444444,-0.267592621,1,0,0,2.1998,Andesite_rect,5,0,5,0,1,
65ec6e1775ee75820dab11bb,SCN,2024-06-20_16h40.59.717,LearnStrategy,2023.2.3,Win32,30.03003003,9,2,7,,,,,,,,4,05,,,,,,,,,,,7,1.384,0,,,,,,0.190740797,-0.405555556,1,0,0,1.384,Peridotite_rect,6,0,6,0,1,
65ec6e1775ee75820dab11bb,SCN,2024-06-20_16h40.59.717,LearnStrategy,2023.2.3,Win32,30.03003003,9,2,8,,,,,,,,2,08,,,,,,,,,,,2,1.297,1,,,,,,-0.05,-0.269444444,1,0,0,1.2966,Basalt_rect,7,0,7,0,1,
65ec6e1775ee75820dab11bb,SCN,2024-06-20_16h40.59.717,LearnStrategy,2023.2.3,Win32,30.03003003,9,2,9,,,,,,,,8,02,,,,,,,,,,,8,2.697,1,,,,,,0.377777778,-0.383333333,1,0,0,2.6969,Pumice_rect,8,0,8,0,1,
65ec6e1775ee75820dab11bb,SCN,2024-06-20_16h40.59.717,LearnStrategy,2023.2.3,Win32,30.03003003,9,2,10,,,,,,,,5,11,,,,,,,,,,,5,1.594,1,,,,,,-0.40370369,-0.40648151,1,0,0,1.5942,Obsidian_rect,9,0,9,0,1,
65ec6e1775ee75820dab11bb,SCN,2024-06-20_16h40.59.717,LearnStrategy,2023.2.3,Win32,30.03003003,9,2,11,,,,,,,,8,09,,,,,,,,,,,8,1.38,1,,,,,,0.327777778,-0.416666667,1,0,0,1.3801,Pumice_rect,10,0,10,0,1,
65ec6e1775ee75820dab11bb,SCN,2024-06-20_16h40.59.717,LearnStrategy,2023.2.3,Win32,30.03003003,9,2,12,,,,,,,,1,07,,,,,,,,,,,3,4.376,0,,,,,,0.108333333,-0.245370399,1,0,0,4.3763,Diorite_rect,11,0,11,0,1,
65ec6e1775ee75820dab11bb,SCN,2024-06-20_16h40.59.717,LearnStrategy,2023.2.3,Win32,30.03003003,9,2,13,,,,,,,,7,06,,,,,,,,,,,7,1.448,1,,,,,,0.076851908,-0.389814843,1,0,0,1.4475,Peridotite_rect,12,0,12,0,1,
65ec6e1775ee75820dab11bb,SCN,2024-06-20_16h40.59.717,LearnStrategy,2023.2.3,Win32,30.03003003,9,2,14,,,,,,,,3,14,,,,,,,,,,,1,2.576,0,,,,,,-0.389814801,-0.239814843,1,0,0,2.5757,Andesite_rect,13,0,13,0,1,
65ec6e1775ee75820dab11bb,SCN,2024-06-20_16h40.59.717,LearnStrategy,2023.2.3,Win32,30.03003003,9,2,15,,,,,,,,6,06,,,,,,,,,,,6,1.315,1,,,,,,-0.177777778,-0.401851908,1,0,0,1.3146,Pegmatite_rect,14,0,14,0,1,
65ec6e1775ee75820dab11bb,SCN,2024-06-20_16h40.59.717,LearnStrategy,2023.2.3,Win32,30.03003003,9,2,16,,,,,,,,6,16,,,,,,,,,,,6,0.829,1,,,,,,-0.177777778,-0.401851908,1,0,0,0.8293,Pegmatite_rect,15,0,15,0,1,
65ec6e1775ee75820dab11bb,SCN,2024-06-20_16h40.59.717,LearnStrategy,2023.2.3,Win32,30.03003003,,,,,,,,,,,,,,,,,,,,,,,,,,,,,,,,,,,,,,,,,,,1
65ec6e1775ee75820dab11bb,SCN,2024-06-20_16h40.59.717,LearnStrategy,2023.2.3,Win32,30.03003003,,,,,,,,,,,,,,,,,,,,,,,,,,,,,,,,,,,,,,,,,,,
65ec6e1775ee75820dab11bb,SCN,2024-06-20_16h40.59.717,LearnStrategy,2023.2.3,Win32,30.03003003,,,,,,,,,,,4,13,1,1,,,,,,,,,,,,,,,,,,,,,,,,,,,,,
65ec6e1775ee75820dab11bb,SCN,2024-06-20_16h40.59.717,LearnStrategy,2023.2.3,Win32,30.03003003,,,,,,,,,,,3,02,1,2,,,,,,,,,,,,,,,,,,,,,,,,,,,,,
65ec6e1775ee75820dab11bb,SCN,2024-06-20_16h40.59.717,LearnStrategy,2023.2.3,Win32,30.03003003,,,,,,,,,,,6,03,1,3,,,,,,,,,,,,,,,,,,,,,,,,,,,,,
65ec6e1775ee75820dab11bb,SCN,2024-06-20_16h40.59.717,LearnStrategy,2023.2.3,Win32,30.03003003,,,,,,,,,,,5,12,1,4,,,,,,,,,,,,,,,,,,,,,,,,,,,,,
65ec6e1775ee75820dab11bb,SCN,2024-06-20_16h40.59.717,LearnStrategy,2023.2.3,Win32,30.03003003,,,,,,,,,,,4,15,1,5,,,,,,,,,,,,,,,,,,,,,,,,,,,,,
65ec6e1775ee75820dab11bb,SCN,2024-06-20_16h40.59.717,LearnStrategy,2023.2.3,Win32,30.03003003,,,,,,,,,,,1,06,1,6,,,,,,,,,,,,,,,,,,,,,,,,,,,,,
65ec6e1775ee75820dab11bb,SCN,2024-06-20_16h40.59.717,LearnStrategy,2023.2.3,Win32,30.03003003,,,,,,,,,,,5,10,1,7,,,,,,,,,,,,,,,,,,,,,,,,,,,,,
65ec6e1775ee75820dab11bb,SCN,2024-06-20_16h40.59.717,LearnStrategy,2023.2.3,Win32,30.03003003,,,,,,,,,,,3,12,1,8,,,,,,,,,,,,,,,,,,,,,,,,,,,,,
65ec6e1775ee75820dab11bb,SCN,2024-06-20_16h40.59.717,LearnStrategy,2023.2.3,Win32,30.03003003,,,,,,,,,,,3,11,2,1,,,,,,,,,,,,,,,,,,,,,,,,,,,,,
65ec6e1775ee75820dab11bb,SCN,2024-06-20_16h40.59.717,LearnStrategy,2023.2.3,Win32,30.03003003,,,,,,,,,,,4,03,2,2,,,,,,,,,,,,,,,,,,,,,,,,,,,,,
65ec6e1775ee75820dab11bb,SCN,2024-06-20_16h40.59.717,LearnStrategy,2023.2.3,Win32,30.03003003,,,,,,,,,,,3,09,2,3,,,,,,,,,,,,,,,,,,,,,,,,,,,,,
65ec6e1775ee75820dab11bb,SCN,2024-06-20_16h40.59.717,LearnStrategy,2023.2.3,Win32,30.03003003,,,,,,,,,,,2,09,2,4,,,,,,,,,,,,,,,,,,,,,,,,,,,,,
65ec6e1775ee75820dab11bb,SCN,2024-06-20_16h40.59.717,LearnStrategy,2023.2.3,Win32,30.03003003,,,,,,,,,,,2,11,2,5,,,,,,,,,,,,,,,,,,,,,,,,,,,,,
65ec6e1775ee75820dab11bb,SCN,2024-06-20_16h40.59.717,LearnStrategy,2023.2.3,Win32,30.03003003,,,,,,,,,,,5,09,2,6,,,,,,,,,,,,,,,,,,,,,,,,,,,,,
65ec6e1775ee75820dab11bb,SCN,2024-06-20_16h40.59.717,LearnStrategy,2023.2.3,Win32,30.03003003,,,,,,,,,,,7,05,2,7,,,,,,,,,,,,,,,,,,,,,,,,,,,,,
65ec6e1775ee75820dab11bb,SCN,2024-06-20_16h40.59.717,LearnStrategy,2023.2.3,Win32,30.03003003,,,,,,,,,,,2,10,2,8,,,,,,,,,,,,,,,,,,,,,,,,,,,,,
65ec6e1775ee75820dab11bb,SCN,2024-06-20_16h40.59.717,LearnStrategy,2023.2.3,Win32,30.03003003,,,,,,,,,,,8,10,3,1,,,,,,,,,,,,,,,,,,,,,,,,,,,,,
65ec6e1775ee75820dab11bb,SCN,2024-06-20_16h40.59.717,LearnStrategy,2023.2.3,Win32,30.03003003,,,,,,,,,,,8,13,3,2,,,,,,,,,,,,,,,,,,,,,,,,,,,,,
65ec6e1775ee75820dab11bb,SCN,2024-06-20_16h40.59.717,LearnStrategy,2023.2.3,Win32,30.03003003,,,,,,,,,,,5,05,3,3,,,,,,,,,,,,,,,,,,,,,,,,,,,,,
65ec6e1775ee75820dab11bb,SCN,2024-06-20_16h40.59.717,LearnStrategy,2023.2.3,Win32,30.03003003,,,,,,,,,,,2,05,3,4,,,,,,,,,,,,,,,,,,,,,,,,,,,,,
65ec6e1775ee75820dab11bb,SCN,2024-06-20_16h40.59.717,LearnStrategy,2023.2.3,Win32,30.03003003,,,,,,,,,,,6,05,3,5,,,,,,,,,,,,,,,,,,,,,,,,,,,,,
65ec6e1775ee75820dab11bb,SCN,2024-06-20_16h40.59.717,LearnStrategy,2023.2.3,Win32,30.03003003,,,,,,,,,,,3,13,3,6,,,,,,,,,,,,,,,,,,,,,,,,,,,,,
65ec6e1775ee75820dab11bb,SCN,2024-06-20_16h40.59.717,LearnStrategy,2023.2.3,Win32,30.03003003,,,,,,,,,,,1,10,3,7,,,,,,,,,,,,,,,,,,,,,,,,,,,,,
65ec6e1775ee75820dab11bb,SCN,2024-06-20_16h40.59.717,LearnStrategy,2023.2.3,Win32,30.03003003,,,,,,,,,,,2,02,3,8,,,,,,,,,,,,,,,,,,,,,,,,,,,,,
65ec6e1775ee75820dab11bb,SCN,2024-06-20_16h40.59.717,LearnStrategy,2023.2.3,Win32,30.03003003,,,,,,,,,,,6,15,4,1,,,,,,,,,,,,,,,,,,,,,,,,,,,,,
65ec6e1775ee75820dab11bb,SCN,2024-06-20_16h40.59.717,LearnStrategy,2023.2.3,Win32,30.03003003,,,,,,,,,,,7,04,4,2,,,,,,,,,,,,,,,,,,,,,,,,,,,,,
65ec6e1775ee75820dab11bb,SCN,2024-06-20_16h40.59.717,LearnStrategy,2023.2.3,Win32,30.03003003,,,,,,,,,,,6,07,4,3,,,,,,,,,,,,,,,,,,,,,,,,,,,,,
65ec6e1775ee75820dab11bb,SCN,2024-06-20_16h40.59.717,LearnStrategy,2023.2.3,Win32,30.03003003,,,,,,,,,,,5,06,4,4,,,,,,,,,,,,,,,,,,,,,,,,,,,,,
65ec6e1775ee75820dab11bb,SCN,2024-06-20_16h40.59.717,LearnStrategy,2023.2.3,Win32,30.03003003,,,,,,,,,,,8,03,4,5,,,,,,,,,,,,,,,,,,,,,,,,,,,,,
65ec6e1775ee75820dab11bb,SCN,2024-06-20_16h40.59.717,LearnStrategy,2023.2.3,Win32,30.03003003,,,,,,,,,,,4,11,4,6,,,,,,,,,,,,,,,,,,,,,,,,,,,,,
65ec6e1775ee75820dab11bb,SCN,2024-06-20_16h40.59.717,LearnStrategy,2023.2.3,Win32,30.03003003,,,,,,,,,,,7,15,4,7,,,,,,,,,,,,,,,,,,,,,,,,,,,,,
65ec6e1775ee75820dab11bb,SCN,2024-06-20_16h40.59.717,LearnStrategy,2023.2.3,Win32,30.03003003,,,,,,,,,,,8,14,4,8,,,,,,,,,,,,,,,,,,,,,,,,,,,,,
65ec6e1775ee75820dab11bb,SCN,2024-06-20_16h40.59.717,LearnStrategy,2023.2.3,Win32,30.03003003,,,,,,,,,,,1,04,5,1,,,,,,,,,,,,,,,,,,,,,,,,,,,,,
65ec6e1775ee75820dab11bb,SCN,2024-06-20_16h40.59.717,LearnStrategy,2023.2.3,Win32,30.03003003,,,,,,,,,,,8,16,5,2,,,,,,,,,,,,,,,,,,,,,,,,,,,,,
65ec6e1775ee75820dab11bb,SCN,2024-06-20_16h40.59.717,LearnStrategy,2023.2.3,Win32,30.03003003,,,,,,,,,,,2,16,5,3,,,,,,,,,,,,,,,,,,,,,,,,,,,,,
65ec6e1775ee75820dab11bb,SCN,2024-06-20_16h40.59.717,LearnStrategy,2023.2.3,Win32,30.03003003,,,,,,,,,,,6,09,5,4,,,,,,,,,,,,,,,,,,,,,,,,,,,,,
65ec6e1775ee75820dab11bb,SCN,2024-06-20_16h40.59.717,LearnStrategy,2023.2.3,Win32,30.03003003,,,,,,,,,,,4,01,5,5,,,,,,,,,,,,,,,,,,,,,,,,,,,,,
65ec6e1775ee75820dab11bb,SCN,2024-06-20_16h40.59.717,LearnStrategy,2023.2.3,Win32,30.03003003,,,,,,,,,,,1,09,5,6,,,,,,,,,,,,,,,,,,,,,,,,,,,,,
65ec6e1775ee75820dab11bb,SCN,2024-06-20_16h40.59.717,LearnStrategy,2023.2.3,Win32,30.03003003,,,,,,,,,,,3,06,5,7,,,,,,,,,,,,,,,,,,,,,,,,,,,,,
65ec6e1775ee75820dab11bb,SCN,2024-06-20_16h40.59.717,LearnStrategy,2023.2.3,Win32,30.03003003,,,,,,,,,,,7,10,5,8,,,,,,,,,,,,,,,,,,,,,,,,,,,,,
65ec6e1775ee75820dab11bb,SCN,2024-06-20_16h40.59.717,LearnStrategy,2023.2.3,Win32,30.03003003,,,,,,,,,,,1,16,6,1,,,,,,,,,,,,,,,,,,,,,,,,,,,,,
65ec6e1775ee75820dab11bb,SCN,2024-06-20_16h40.59.717,LearnStrategy,2023.2.3,Win32,30.03003003,,,,,,,,,,,7,16,6,2,,,,,,,,,,,,,,,,,,,,,,,,,,,,,
65ec6e1775ee75820dab11bb,SCN,2024-06-20_16h40.59.717,LearnStrategy,2023.2.3,Win32,30.03003003,,,,,,,,,,,5,02,6,3,,,,,,,,,,,,,,,,,,,,,,,,,,,,,
65ec6e1775ee75820dab11bb,SCN,2024-06-20_16h40.59.717,LearnStrategy,2023.2.3,Win32,30.03003003,,,,,,,,,,,4,08,6,4,,,,,,,,,,,,,,,,,,,,,,,,,,,,,
65ec6e1775ee75820dab11bb,SCN,2024-06-20_16h40.59.717,LearnStrategy,2023.2.3,Win32,30.03003003,,,,,,,,,,,7,08,6,5,,,,,,,,,,,,,,,,,,,,,,,,,,,,,
65ec6e1775ee75820dab11bb,SCN,2024-06-20_16h40.59.717,LearnStrategy,2023.2.3,Win32,30.03003003,,,,,,,,,,,1,03,6,6,,,,,,,,,,,,,,,,,,,,,,,,,,,,,
65ec6e1775ee75820dab11bb,SCN,2024-06-20_16h40.59.717,LearnStrategy,2023.2.3,Win32,30.03003003,,,,,,,,,,,6,13,6,7,,,,,,,,,,,,,,,,,,,,,,,,,,,,,
65ec6e1775ee75820dab11bb,SCN,2024-06-20_16h40.59.717,LearnStrategy,2023.2.3,Win32,30.03003003,,,,,,,,,,,8,06,6,8,,,,,,,,,,,,,,,,,,,,,,,,,,,,,