participant,condition,date,expName,psychopyVersion,OS,frameRate,block,phase,trial,learn_mouse.x,learn_mouse.y,learn_mouse.leftButton,learn_mouse.midButton,learn_mouse.rightButton,learn_mouse.time,learn_mouse.clicked_name,cat,token,row,col,t_select,cat_mouse_l.x,cat_mouse_l.y,cat_mouse_l.leftButton,cat_mouse_l.midButton,cat_mouse_l.rightButton,cat_mouse_l.time,cat_mouse_l.clicked_name,resp,t_resp,corr,train_trials.thisRepN,train_trials.thisTrialN,train_trials.thisN,train_trials.thisIndex,train_trials.ran,cat_mouse_t.x,cat_mouse_t.y,cat_mouse_t.leftButton,cat_mouse_t.midButton,cat_mouse_t.rightButton,cat_mouse_t.time,cat_mouse_t.clicked_name,test_trials.thisRepN,test_trials.thisTrialN,test_trials.thisN,test_trials.thisIndex,test_trials.ran,Bonus
65faf8180822855cef2b54b2,SCN,2024-06-25_14h38.14.797,LearnStrategy,2023.2.3,Win32,59.95203837,,,,,,,,,,,,,,,,,,,,,,,,,,,,,,,,,,,,,,,,,,,
65faf8180822855cef2b54b2,SCN,2024-06-25_14h38.14.797,LearnStrategy,2023.2.3,Win32,59.95203837,1,1,1,-0.22625,-0.0775,1,0,0,8.553,Diorite_08,3,08,3,3,8.553,0.38625,-0.39125,1,0,0,7.983,Pumice_rect,8,7.983,0,0,0,0,0,1,,,,,,,,,,,,,
65faf8180822855cef2b54b2,SCN,2024-06-25_14h38.14.797,LearnStrategy,2023.2.3,Win32,59.95203837,1,1,2,-0.53875,0.29,1,0,0,9.24,Diorite_11,3,11,5,1,9.24,0.37625,-0.40625,1,0,0,2.506,Pumice_rect,8,2.506,0,1,0,1,0,1,,,,,,,,,,,,,
65faf8180822855cef2b54b2,SCN,2024-06-25_14h38.14.797,LearnStrategy,2023.2.3,Win32,59.95203837,1,1,3,-0.39,0.42125,1,0,0,3.43,Obsidian_08,5,08,6,2,3.43,0.14875,-0.38625,1,0,0,4.337,Peridotite_rect,7,4.337,0,2,0,2,0,1,,,,,,,,,,,,,
65faf8180822855cef2b54b2,SCN,2024-06-25_14h38.14.797,LearnStrategy,2023.2.3,Win32,59.95203837,1,1,4,0.58125,0.07375,1,0,0,4.243,Pumice_10,8,10,4,8,4.243,0.41875,-0.39875,1,0,0,1.583,Pumice_rect,8,1.583,1,3,0,3,0,1,,,,,,,,,,,,,
65faf8180822855cef2b54b2,SCN,2024-06-25_14h38.14.797,LearnStrategy,2023.2.3,Win32,59.95203837,1,1,5,-0.54625,-0.43125,1,0,0,2.647,Pumice_05,8,05,1,1,2.647,0.38125,-0.41625,1,0,0,2.023,Pumice_rect,8,2.023,1,4,0,4,0,1,,,,,,,,,,,,,
65faf8180822855cef2b54b2,SCN,2024-06-25_14h38.14.797,LearnStrategy,2023.2.3,Win32,59.95203837,1,1,6,0.54625,-0.11,1,0,0,7.927,Andesite_16,1,16,3,8,7.927,0.15625,-0.23,1,0,0,2.955,Diorite_rect,3,2.955,0,5,0,5,0,1,,,,,,,,,,,,,
65faf8180822855cef2b54b2,SCN,2024-06-25_14h38.14.797,LearnStrategy,2023.2.3,Win32,59.95203837,1,1,7,-0.18625,-0.25625,1,0,0,3.995,Peridotite_13,7,13,2,3,3.995,0.1225,-0.39375,1,0,0,3.65,Peridotite_rect,7,3.65,1,6,0,6,0,1,,,,,,,,,,,,,
65faf8180822855cef2b54b2,SCN,2024-06-25_14h38.14.797,LearnStrategy,2023.2.3,Win32,59.95203837,1,1,8,0.10375,-0.2975,1,0,0,9.177,Andesite_01,1,01,2,5,9.177,-0.09125,-0.39875,1,0,0,2.564,Pegmatite_rect,6,2.564,0,7,0,7,0,1,,,,,,,,,,,,,
65faf8180822855cef2b54b2,SCN,2024-06-25_14h38.14.797,LearnStrategy,2023.2.3,Win32,59.95203837,1,1,9,0.4225,0.42125,1,0,0,5.042,Basalt_11,2,11,6,7,5.042,0.3725,-0.39125,1,0,0,1.782,Pumice_rect,8,1.782,0,8,0,8,0,1,,,,,,,,,,,,,
65faf8180822855cef2b54b2,SCN,2024-06-25_14h38.14.797,LearnStrategy,2023.2.3,Win32,59.95203837,1,1,10,-0.55,0.0675,1,0,0,2.497,Pumice_04,8,04,4,1,2.497,0.31625,-0.38375,1,0,0,2.718,Pumice_rect,8,2.718,1,9,0,9,0,1,,,,,,,,,,,,,
65faf8180822855cef2b54b2,SCN,2024-06-25_14h38.14.797,LearnStrategy,2023.2.3,Win32,59.95203837,1,1,11,-0.26125,0.41625,1,0,0,2.33,Andesite_06,1,06,6,3,2.33,-0.3975,-0.23,1,0,0,3.734,Andesite_rect,1,3.734,1,10,0,10,0,1,,,,,,,,,,,,,
65faf8180822855cef2b54b2,SCN,2024-06-25_14h38.14.797,LearnStrategy,2023.2.3,Win32,59.95203837,1,1,12,0.2525,0.25375,1,0,0,4.027,Obsidian_12,5,12,5,6,4.027,-0.11125,-0.26375,1,0,0,1.651,Basalt_rect,2,1.651,0,11,0,11,0,1,,,,,,,,,,,,,
65faf8180822855cef2b54b2,SCN,2024-06-25_14h38.14.797,LearnStrategy,2023.2.3,Win32,59.95203837,1,1,13,0.06375,0.22,1,0,0,1.613,Obsidian_04,5,04,5,5,1.613,-0.12875,-0.27125,1,0,0,1.485,Basalt_rect,2,1.485,0,12,0,12,0,1,,,,,,,,,,,,,
65faf8180822855cef2b54b2,SCN,2024-06-25_14h38.14.797,LearnStrategy,2023.2.3,Win32,59.95203837,1,1,14,-0.525,0.41125,1,0,0,3.53,Obsidian_14,5,14,6,1,3.53,-0.36625,-0.3925,1,0,0,4.795,Obsidian_rect,5,4.795,1,13,0,13,0,1,,,,,,,,,,,,,
65faf8180822855cef2b54b2,SCN,2024-06-25_14h38.14.797,LearnStrategy,2023.2.3,Win32,59.95203837,1,1,15,-0.38125,0.22625,1,0,0,6.862,Basalt_02,2,02,5,2,6.862,-0.335,-0.26375,1,0,0,2.579,Andesite_rect,1,2.579,0,14,0,14,0,1,,,,,,,,,,,,,
65faf8180822855cef2b54b2,SCN,2024-06-25_14h38.14.797,LearnStrategy,2023.2.3,Win32,59.95203837,1,1,16,0.05375,0.39625,1,0,0,2.086,Gabbro_15,4,15,6,5,2.086,0.18625,-0.265,1,0,0,2.209,Diorite_rect,3,2.209,0,15,0,15,0,1,,,,,,,,,,,,,
65faf8180822855cef2b54b2,SCN,2024-06-25_14h38.14.797,LearnStrategy,2023.2.3,Win32,59.95203837,1,2,1,,,,,,,,1,05,,,,,,,,,,,4,3.505,0,,,,,,0.36625,-0.24125,1,0,0,3.505,Gabbro_rect,0,0,0,0,1,
65faf8180822855cef2b54b2,SCN,2024-06-25_14h38.14.797,LearnStrategy,2023.2.3,Win32,59.95203837,1,2,2,,,,,,,,3,06,,,,,,,,,,,3,2.284,1,,,,,,0.17875,-0.26625,1,0,0,2.284,Diorite_rect,1,0,1,0,1,
65faf8180822855cef2b54b2,SCN,2024-06-25_14h38.14.797,LearnStrategy,2023.2.3,Win32,59.95203837,1,2,3,,,,,,,,7,15,,,,,,,,,,,3,2.858,0,,,,,,0.08375,-0.25375,1,0,0,2.858,Diorite_rect,2,0,2,0,1,
65faf8180822855cef2b54b2,SCN,2024-06-25_14h38.14.797,LearnStrategy,2023.2.3,Win32,59.95203837,1,2,4,,,,,,,,5,06,,,,,,,,,,,5,1.838,1,,,,,,-0.39125,-0.405,1,0,0,1.838,Obsidian_rect,3,0,3,0,1,
65faf8180822855cef2b54b2,SCN,2024-06-25_14h38.14.797,LearnStrategy,2023.2.3,Win32,59.95203837,1,2,5,,,,,,,,4,12,,,,,,,,,,,4,6.62,1,,,,,,0.41,-0.23875,1,0,0,6.62,Gabbro_rect,4,0,4,0,1,
65faf8180822855cef2b54b2,SCN,2024-06-25_14h38.14.797,LearnStrategy,2023.2.3,Win32,59.95203837,1,2,6,,,,,,,,6,09,,,,,,,,,,,2,3.187,0,,,,,,-0.16875,-0.26,1,0,0,3.187,Basalt_rect,5,0,5,0,1,
65faf8180822855cef2b54b2,SCN,2024-06-25_14h38.14.797,LearnStrategy,2023.2.3,Win32,59.95203837,1,2,7,,,,,,,,2,08,,,,,,,,,,,5,2.743,0,,,,,,-0.34875,-0.38875,1,0,0,2.743,Obsidian_rect,6,0,6,0,1,
65faf8180822855cef2b54b2,SCN,2024-06-25_14h38.14.797,LearnStrategy,2023.2.3,Win32,59.95203837,1,2,8,,,,,,,,6,16,,,,,,,,,,,6,2.148,1,,,,,,-0.14625,-0.4175,1,0,0,2.148,Pegmatite_rect,7,0,7,0,1,
65faf8180822855cef2b54b2,SCN,2024-06-25_14h38.14.797,LearnStrategy,2023.2.3,Win32,59.95203837,1,2,9,,,,,,,,4,05,,,,,,,,,,,3,4.475,0,,,,,,0.1625,-0.25625,1,0,0,4.475,Diorite_rect,8,0,8,0,1,
65faf8180822855cef2b54b2,SCN,2024-06-25_14h38.14.797,LearnStrategy,2023.2.3,Win32,59.95203837,1,2,10,,,,,,,,1,04,,,,,,,,,,,7,4.35,0,,,,,,0.12625,-0.41,1,0,0,4.35,Peridotite_rect,9,0,9,0,1,
65faf8180822855cef2b54b2,SCN,2024-06-25_14h38.14.797,LearnStrategy,2023.2.3,Win32,59.95203837,1,2,11,,,,,,,,7,16,,,,,,,,,,,5,2.034,0,,,,,,-0.41375,-0.40125,1,0,0,2.034,Obsidian_rect,10,0,10,0,1,
65faf8180822855cef2b54b2,SCN,2024-06-25_14h38.14.797,LearnStrategy,2023.2.3,Win32,59.95203837,1,2,12,,,,,,,,8,06,,,,,,,,,,,8,2.02,1,,,,,,0.45875,-0.39875,1,0,0,2.02,Pumice_rect,11,0,11,0,1,
65faf8180822855cef2b54b2,SCN,2024-06-25_14h38.14.797,LearnStrategy,2023.2.3,Win32,59.95203837,1,2,13,,,,,,,,8,15,,,,,,,,,,,8,1.673,1,,,,,,0.3725,-0.40125,1,0,0,1.673,Pumice_rect,12,0,12,0,1,
65faf8180822855cef2b54b2,SCN,2024-06-25_14h38.14.797,LearnStrategy,2023.2.3,Win32,59.95203837,1,2,14,,,,,,,,2,14,,,,,,,,,,,8,6.735,0,,,,,,0.4425,-0.39625,1,0,0,6.735,Pumice_rect,13,0,13,0,1,
65faf8180822855cef2b54b2,SCN,2024-06-25_14h38.14.797,LearnStrategy,2023.2.3,Win32,59.95203837,1,2,15,,,,,,,,3,02,,,,,,,,,,,5,5.259,0,,,,,,-0.36375,-0.38125,1,0,0,5.259,Obsidian_rect,14,0,14,0,1,
65faf8180822855cef2b54b2,SCN,2024-06-25_14h38.14.797,LearnStrategy,2023.2.3,Win32,59.95203837,1,2,16,,,,,,,,5,10,,,,,,,,,,,5,2.218,1,,,,,,-0.3675,-0.41375,1,0,0,2.218,Obsidian_rect,15,0,15,0,1,
65faf8180822855cef2b54b2,SCN,2024-06-25_14h38.14.797,LearnStrategy,2023.2.3,Win32,59.95203837,2,1,1,0.56375,0.28875,1,0,0,4.911,Peridotite_04,7,04,5,8,4.911,0.15625,-0.24125,1,0,0,1.923,Diorite_rect,3,1.923,0,0,0,0,0,1,,,,,,,,,,,,,
65faf8180822855cef2b54b2,SCN,2024-06-25_14h38.14.797,LearnStrategy,2023.2.3,Win32,59.95203837,2,1,2,-0.405,-0.39375,1,0,0,1.813,Pumice_16,8,16,1,2,1.813,-0.0825,-0.25375,1,0,0,1.923,Basalt_rect,2,1.923,0,1,0,1,0,1,,,,,,,,,,,,,
65faf8180822855cef2b54b2,SCN,2024-06-25_14h38.14.797,LearnStrategy,2023.2.3,Win32,59.95203837,2,1,3,0.05125,-0.37125,1,0,0,1.613,Pumice_09,8,09,1,5,1.613,0.13875,-0.23375,1,0,0,1.339,Diorite_rect,3,1.339,0,2,0,2,0,1,,,,,,,,,,,,,
65faf8180822855cef2b54b2,SCN,2024-06-25_14h38.14.797,LearnStrategy,2023.2.3,Win32,59.95203837,2,1,4,-0.0775,-0.1225,1,0,0,1.844,Pegmatite_03,6,03,3,4,1.844,-0.36375,-0.3875,1,0,0,2.218,Obsidian_rect,5,2.218,0,3,0,3,0,1,,,,,,,,,,,,,
65faf8180822855cef2b54b2,SCN,2024-06-25_14h38.14.797,LearnStrategy,2023.2.3,Win32,59.95203837,2,1,5,-0.36875,0.05875,1,0,0,1.962,Gabbro_09,4,09,4,2,1.962,-0.41125,-0.40125,1,0,0,1.576,Obsidian_rect,5,1.576,0,4,0,4,0,1,,,,,,,,,,,,,
65faf8180822855cef2b54b2,SCN,2024-06-25_14h38.14.797,LearnStrategy,2023.2.3,Win32,59.95203837,2,1,6,0.39375,0.09,1,0,0,1.87,Gabbro_03,4,03,4,7,1.87,0.37625,-0.22875,1,0,0,1.481,Gabbro_rect,4,1.481,1,5,0,5,0,1,,,,,,,,,,,,,
65faf8180822855cef2b54b2,SCN,2024-06-25_14h38.14.797,LearnStrategy,2023.2.3,Win32,59.95203837,2,1,7,0.41125,-0.415,1,0,0,3.727,Andesite_03,1,03,1,7,3.727,0.37875,-0.39375,1,0,0,3.554,Pumice_rect,8,3.554,0,6,0,6,0,1,,,,,,,,,,,,,
65faf8180822855cef2b54b2,SCN,2024-06-25_14h38.14.797,LearnStrategy,2023.2.3,Win32,59.95203837,2,1,8,0.52375,-0.42875,1,0,0,1.644,Pegmatite_10,6,10,1,8,1.644,-0.35125,-0.23625,1,0,0,3.582,Andesite_rect,1,3.582,0,7,0,7,0,1,,,,,,,,,,,,,
65faf8180822855cef2b54b2,SCN,2024-06-25_14h38.14.797,LearnStrategy,2023.2.3,Win32,59.95203837,2,1,9,-0.215,0.40625,1,0,0,3.278,Andesite_06,1,06,6,3,3.278,0.38375,-0.39625,1,0,0,2.298,Pumice_rect,8,2.298,0,8,0,8,0,1,,,,,,,,,,,,,
65faf8180822855cef2b54b2,SCN,2024-06-25_14h38.14.797,LearnStrategy,2023.2.3,Win32,59.95203837,2,1,10,0.07625,0.4375,1,0,0,1.633,Gabbro_15,4,15,6,5,1.633,0.33875,-0.39625,1,0,0,1.958,Pumice_rect,8,1.958,0,9,0,9,0,1,,,,,,,,,,,,,
65faf8180822855cef2b54b2,SCN,2024-06-25_14h38.14.797,LearnStrategy,2023.2.3,Win32,59.95203837,2,1,11,0.26,0.22375,1,0,0,2.347,Obsidian_12,5,12,5,6,2.347,-0.31875,-0.38875,1,0,0,2.327,Obsidian_rect,5,2.327,1,10,0,10,0,1,,,,,,,,,,,,,
65faf8180822855cef2b54b2,SCN,2024-06-25_14h38.14.797,LearnStrategy,2023.2.3,Win32,59.95203837,2,1,12,-0.08625,0.10125,1,0,0,3.71,Basalt_16,2,16,4,4,3.71,0.37125,-0.38625,1,0,0,1.901,Pumice_rect,8,1.901,0,11,0,11,0,1,,,,,,,,,,,,,
65faf8180822855cef2b54b2,SCN,2024-06-25_14h38.14.797,LearnStrategy,2023.2.3,Win32,59.95203837,2,1,13,0.11,0.09125,1,0,0,1.115,Basalt_04,2,04,4,5,1.115,0.43125,-0.4075,1,0,0,2.851,Pumice_rect,8,2.851,0,12,0,12,0,1,,,,,,,,,,,,,
65faf8180822855cef2b54b2,SCN,2024-06-25_14h38.14.797,LearnStrategy,2023.2.3,Win32,59.95203837,2,1,14,-0.53625,-0.08875,1,0,0,2.566,Pegmatite_08,6,08,3,1,2.566,-0.33625,-0.42125,1,0,0,3.32,Obsidian_rect,5,3.32,0,13,0,13,0,1,,,,,,,,,,,,,
65faf8180822855cef2b54b2,SCN,2024-06-25_14h38.14.797,LearnStrategy,2023.2.3,Win32,59.95203837,2,1,15,-0.38125,-0.09875,1,0,0,1.831,Diorite_07,3,07,3,2,1.831,-0.11375,-0.40875,1,0,0,2.766,Pegmatite_rect,6,2.766,0,14,0,14,0,1,,,,,,,,,,,,,
65faf8180822855cef2b54b2,SCN,2024-06-25_14h38.14.797,LearnStrategy,2023.2.3,Win32,59.95203837,2,1,16,-0.03,-0.09875,1,0,0,1.896,Pegmatite_03,6,03,3,4,1.896,-0.36625,-0.4025,1,0,0,1.364,Obsidian_rect,5,1.364,0,15,0,15,0,1,,,,,,,,,,,,,
65faf8180822855cef2b54b2,SCN,2024-06-25_14h38.14.797,LearnStrategy,2023.2.3,Win32,59.95203837,2,2,1,,,,,,,,3,14,,,,,,,,,,,6,1.694,0,,,,,,-0.0875,-0.42,1,0,0,1.694,Pegmatite_rect,0,0,0,0,1,
65faf8180822855cef2b54b2,SCN,2024-06-25_14h38.14.797,LearnStrategy,2023.2.3,Win32,59.95203837,2,2,2,,,,,,,,2,10,,,,,,,,,,,4,6.086,0,,,,,,0.4,-0.26375,1,0,0,6.086,Gabbro_rect,1,0,1,0,1,
65faf8180822855cef2b54b2,SCN,2024-06-25_14h38.14.797,LearnStrategy,2023.2.3,Win32,59.95203837,2,2,3,,,,,,,,6,11,,,,,,,,,,,7,2.858,0,,,,,,0.13375,-0.39375,1,0,0,2.858,Peridotite_rect,2,0,2,0,1,
65faf8180822855cef2b54b2,SCN,2024-06-25_14h38.14.797,LearnStrategy,2023.2.3,Win32,59.95203837,2,2,4,,,,,,,,6,12,,,,,,,,,,,7,1.412,0,,,,,,0.13375,-0.39375,1,0,0,1.412,Peridotite_rect,3,0,3,0,1,
65faf8180822855cef2b54b2,SCN,2024-06-25_14h38.14.797,LearnStrategy,2023.2.3,Win32,59.95203837,2,2,5,,,,,,,,1,11,,,,,,,,,,,8,1.692,0,,,,,,0.37375,-0.38875,1,0,0,1.692,Pumice_rect,4,0,4,0,1,
65faf8180822855cef2b54b2,SCN,2024-06-25_14h38.14.797,LearnStrategy,2023.2.3,Win32,59.95203837,2,2,6,,,,,,,,7,06,,,,,,,,,,,6,3.545,0,,,,,,-0.10875,-0.41375,1,0,0,3.545,Pegmatite_rect,5,0,5,0,1,
65faf8180822855cef2b54b2,SCN,2024-06-25_14h38.14.797,LearnStrategy,2023.2.3,Win32,59.95203837,2,2,7,,,,,,,,4,01,,,,,,,,,,,6,3.999,0,,,,,,-0.11125,-0.395,1,0,0,3.999,Pegmatite_rect,6,0,6,0,1,
65faf8180822855cef2b54b2,SCN,2024-06-25_14h38.14.797,LearnStrategy,2023.2.3,Win32,59.95203837,2,2,8,,,,,,,,2,01,,,,,,,,,,,1,5.019,0,,,,,,-0.39,-0.25,1,0,0,5.019,Andesite_rect,7,0,7,0,1,
65faf8180822855cef2b54b2,SCN,2024-06-25_14h38.14.797,LearnStrategy,2023.2.3,Win32,59.95203837,2,2,9,,,,,,,,4,10,,,,,,,,,,,1,2.338,0,,,,,,-0.33875,-0.24,1,0,0,2.338,Andesite_rect,8,0,8,0,1,
65faf8180822855cef2b54b2,SCN,2024-06-25_14h38.14.797,LearnStrategy,2023.2.3,Win32,59.95203837,2,2,10,,,,,,,,5,05,,,,,,,,,,,6,1.463,0,,,,,,-0.13625,-0.415,1,0,0,1.463,Pegmatite_rect,9,0,9,0,1,
65faf8180822855cef2b54b2,SCN,2024-06-25_14h38.14.797,LearnStrategy,2023.2.3,Win32,59.95203837,2,2,11,,,,,,,,8,03,,,,,,,,,,,8,2.732,1,,,,,,0.33625,-0.40375,1,0,0,2.732,Pumice_rect,10,0,10,0,1,
65faf8180822855cef2b54b2,SCN,2024-06-25_14h38.14.797,LearnStrategy,2023.2.3,Win32,59.95203837,2,2,12,,,,,,,,5,09,,,,,,,,,,,5,1.585,1,,,,,,-0.4225,-0.40375,1,0,0,1.585,Obsidian_rect,11,0,11,0,1,
65faf8180822855cef2b54b2,SCN,2024-06-25_14h38.14.797,LearnStrategy,2023.2.3,Win32,59.95203837,2,2,13,,,,,,,,3,15,,,,,,,,,,,7,4.711,0,,,,,,0.08,-0.405,1,0,0,4.711,Peridotite_rect,12,0,12,0,1,
65faf8180822855cef2b54b2,SCN,2024-06-25_14h38.14.797,LearnStrategy,2023.2.3,Win32,59.95203837,2,2,14,,,,,,,,1,02,,,,,,,,,,,8,1.481,0,,,,,,0.34875,-0.39875,1,0,0,1.481,Pumice_rect,13,0,13,0,1,
65faf8180822855cef2b54b2,SCN,2024-06-25_14h38.14.797,LearnStrategy,2023.2.3,Win32,59.95203837,2,2,15,,,,,,,,8,02,,,,,,,,,,,8,1.181,1,,,,,,0.38625,-0.39375,1,0,0,1.181,Pumice_rect,14,0,14,0,1,
65faf8180822855cef2b54b2,SCN,2024-06-25_14h38.14.797,LearnStrategy,2023.2.3,Win32,59.95203837,2,2,16,,,,,,,,7,12,,,,,,,,,,,6,1.705,0,,,,,,-0.14875,-0.40125,1,0,0,1.705,Pegmatite_rect,15,0,15,0,1,
65faf8180822855cef2b54b2,SCN,2024-06-25_14h38.14.797,LearnStrategy,2023.2.3,Win32,59.95203837,3,1,1,0.08125,-0.24875,1,0,0,3.094,Andesite_01,1,01,2,5,3.094,0.11875,-0.24125,1,0,0,1.433,Diorite_rect,3,1.433,0,0,0,0,0,1,,,,,,,,,,,,,
65faf8180822855cef2b54b2,SCN,2024-06-25_14h38.14.797,LearnStrategy,2023.2.3,Win32,59.95203837,3,1,2,0.24,-0.21375,1,0,0,1.245,Diorite_10,3,10,2,6,1.245,0.40125,-0.39625,1,0,0,1.34,Pumice_rect,8,1.34,0,1,0,1,0,1,,,,,,,,,,,,,
65faf8180822855cef2b54b2,SCN,2024-06-25_14h38.14.797,LearnStrategy,2023.2.3,Win32,59.95203837,3,1,3,0.44625,-0.28625,1,0,0,1.443,Pegmatite_06,6,06,2,7,1.443,0.42875,-0.2625,1,0,0,1.18,Gabbro_rect,4,1.18,0,2,0,2,0,1,,,,,,,,,,,,,
65faf8180822855cef2b54b2,SCN,2024-06-25_14h38.14.797,LearnStrategy,2023.2.3,Win32,59.95203837,3,1,4,-0.52625,0.07625,1,0,0,1.631,Pumice_04,8,04,4,1,1.631,0.44625,-0.40375,1,0,0,2.793,Pumice_rect,8,2.793,1,3,0,3,0,1,,,,,,,,,,,,,
65faf8180822855cef2b54b2,SCN,2024-06-25_14h38.14.797,LearnStrategy,2023.2.3,Win32,59.95203837,3,1,5,-0.54875,-0.25625,1,0,0,1.664,Pegmatite_15,6,15,2,1,1.664,-0.15375,-0.39375,1,0,0,1.181,Pegmatite_rect,6,1.181,1,4,0,4,0,1,,,,,,,,,,,,,
65faf8180822855cef2b54b2,SCN,2024-06-25_14h38.14.797,LearnStrategy,2023.2.3,Win32,59.95203837,3,1,6,-0.43625,-0.2625,1,0,0,1.246,Diorite_13,3,13,2,2,1.246,0.10125,-0.39875,1,0,0,1.905,Peridotite_rect,7,1.905,0,5,0,5,0,1,,,,,,,,,,,,,
65faf8180822855cef2b54b2,SCN,2024-06-25_14h38.14.797,LearnStrategy,2023.2.3,Win32,59.95203837,3,1,7,-0.2,-0.265,1,0,0,1.38,Peridotite_13,7,13,2,3,1.38,0.14125,-0.25125,1,0,0,1.287,Diorite_rect,3,1.287,0,6,0,6,0,1,,,,,,,,,,,,,
65faf8180822855cef2b54b2,SCN,2024-06-25_14h38.14.797,LearnStrategy,2023.2.3,Win32,59.95203837,3,1,8,-0.065,-0.22,1,0,0,1.128,Andesite_07,1,07,2,4,1.128,-0.0625,-0.42,1,0,0,1.917,Pegmatite_rect,6,1.917,0,7,0,7,0,1,,,,,,,,,,,,,
65faf8180822855cef2b54b2,SCN,2024-06-25_14h38.14.797,LearnStrategy,2023.2.3,Win32,59.95203837,3,1,9,0.065,-0.265,1,0,0,1.146,Andesite_01,1,01,2,5,1.146,-0.38875,-0.2325,1,0,0,2.651,Andesite_rect,1,2.651,1,8,0,8,0,1,,,,,,,,,,,,,
65faf8180822855cef2b54b2,SCN,2024-06-25_14h38.14.797,LearnStrategy,2023.2.3,Win32,59.95203837,3,1,10,0.27875,-0.28625,1,0,0,1.164,Diorite_10,3,10,2,6,1.164,-0.435,-0.23875,1,0,0,2.123,Andesite_rect,1,2.123,0,9,0,9,0,1,,,,,,,,,,,,,
65faf8180822855cef2b54b2,SCN,2024-06-25_14h38.14.797,LearnStrategy,2023.2.3,Win32,59.95203837,3,1,11,0.42125,-0.27375,1,0,0,1.878,Pegmatite_06,6,06,2,7,1.878,-0.06875,-0.38375,1,0,0,1.25,Pegmatite_rect,6,1.25,1,10,0,10,0,1,,,,,,,,,,,,,
65faf8180822855cef2b54b2,SCN,2024-06-25_14h38.14.797,LearnStrategy,2023.2.3,Win32,59.95203837,3,1,12,0.58125,-0.22375,1,0,0,1.447,Pegmatite_07,6,07,2,8,1.447,0.08125,-0.4025,1,0,0,2.989,Peridotite_rect,7,2.989,0,11,0,11,0,1,,,,,,,,,,,,,
65faf8180822855cef2b54b2,SCN,2024-06-25_14h38.14.797,LearnStrategy,2023.2.3,Win32,59.95203837,3,1,13,-0.5525,-0.39875,1,0,0,1.044,Pumice_05,8,05,1,1,1.044,0.38875,-0.38375,1,0,0,2.08,Pumice_rect,8,2.08,1,12,0,12,0,1,,,,,,,,,,,,,
65faf8180822855cef2b54b2,SCN,2024-06-25_14h38.14.797,LearnStrategy,2023.2.3,Win32,59.95203837,3,1,14,-0.36375,-0.42375,1,0,0,1.629,Pumice_16,8,16,1,2,1.629,0.42375,-0.38875,1,0,0,6.259,Pumice_rect,8,6.259,1,13,0,13,0,1,,,,,,,,,,,,,
65faf8180822855cef2b54b2,SCN,2024-06-25_14h38.14.797,LearnStrategy,2023.2.3,Win32,59.95203837,3,1,15,-0.20875,-0.41125,1,0,0,1.459,Gabbro_08,4,08,1,3,1.459,0.09375,-0.27125,1,0,0,3.009,Diorite_rect,3,3.009,0,14,0,14,0,1,,,,,,,,,,,,,
65faf8180822855cef2b54b2,SCN,2024-06-25_14h38.14.797,LearnStrategy,2023.2.3,Win32,59.95203837,3,1,16,-0.06625,-0.40375,1,0,0,1.312,Peridotite_08,7,08,1,4,1.312,0.16375,-0.24875,1,0,0,2.347,Diorite_rect,3,2.347,0,15,0,15,0,1,,,,,,,,,,,,,
65faf8180822855cef2b54b2,SCN,2024-06-25_14h38.14.797,LearnStrategy,2023.2.3,Win32,59.95203837,3,2,1,,,,,,,,7,02,,,,,,,,,,,3,2.183,0,,,,,,0.1425,-0.25625,1,0,0,2.183,Diorite_rect,0,0,0,0,1,
65faf8180822855cef2b54b2,SCN,2024-06-25_14h38.14.797,LearnStrategy,2023.2.3,Win32,59.95203837,3,2,2,,,,,,,,1,10,,,,,,,,,,,8,3.25,0,,,,,,0.39625,-0.39375,1,0,0,3.25,Pumice_rect,1,0,1,0,1,
65faf8180822855cef2b54b2,SCN,2024-06-25_14h38.14.797,LearnStrategy,2023.2.3,Win32,59.95203837,3,2,3,,,,,,,,5,07,,,,,,,,,,,5,1.647,1,,,,,,-0.43125,-0.395,1,0,0,1.647,Obsidian_rect,2,0,2,0,1,
65faf8180822855cef2b54b2,SCN,2024-06-25_14h38.14.797,LearnStrategy,2023.2.3,Win32,59.95203837,3,2,4,,,,,,,,3,12,,,,,,,,,,,7,3.294,0,,,,,,0.0975,-0.39875,1,0,0,3.294,Peridotite_rect,3,0,3,0,1,
65faf8180822855cef2b54b2,SCN,2024-06-25_14h38.14.797,LearnStrategy,2023.2.3,Win32,59.95203837,3,2,5,,,,,,,,8,08,,,,,,,,,,,8,1.84,1,,,,,,0.37625,-0.40375,1,0,0,1.84,Pumice_rect,4,0,4,0,1,
65faf8180822855cef2b54b2,SCN,2024-06-25_14h38.14.797,LearnStrategy,2023.2.3,Win32,59.95203837,3,2,6,,,,,,,,4,16,,,,,,,,,,,1,3.541,0,,,,,,-0.36125,-0.27,1,0,0,3.541,Andesite_rect,5,0,5,0,1,
65faf8180822855cef2b54b2,SCN,2024-06-25_14h38.14.797,LearnStrategy,2023.2.3,Win32,59.95203837,3,2,7,,,,,,,,2,09,,,,,,,,,,,1,2.538,0,,,,,,-0.31125,-0.24625,1,0,0,2.538,Andesite_rect,6,0,6,0,1,
65faf8180822855cef2b54b2,SCN,2024-06-25_14h38.14.797,LearnStrategy,2023.2.3,Win32,59.95203837,3,2,8,,,,,,,,1,09,,,,,,,,,,,8,3.604,0,,,,,,0.40125,-0.39375,1,0,0,3.604,Pumice_rect,7,0,7,0,1,
65faf8180822855cef2b54b2,SCN,2024-06-25_14h38.14.797,LearnStrategy,2023.2.3,Win32,59.95203837,3,2,9,,,,,,,,3,16,,,,,,,,,,,6,2.686,0,,,,,,-0.0425,-0.39625,1,0,0,2.686,Pegmatite_rect,8,0,8,0,1,
65faf8180822855cef2b54b2,SCN,2024-06-25_14h38.14.797,LearnStrategy,2023.2.3,Win32,59.95203837,3,2,10,,,,,,,,4,14,,,,,,,,,,,7,1.418,0,,,,,,0.09625,-0.39625,1,0,0,1.418,Peridotite_rect,9,0,9,0,1,
65faf8180822855cef2b54b2,SCN,2024-06-25_14h38.14.797,LearnStrategy,2023.2.3,Win32,59.95203837,3,2,11,,,,,,,,7,07,,,,,,,,,,,7,1.599,1,,,,,,0.09,-0.39625,1,0,0,1.599,Peridotite_rect,10,0,10,0,1,
65faf8180822855cef2b54b2,SCN,2024-06-25_14h38.14.797,LearnStrategy,2023.2.3,Win32,59.95203837,3,2,12,,,,,,,,6,05,,,,,,,,,,,6,1.76,1,,,,,,-0.10625,-0.37875,1,0,0,1.76,Pegmatite_rect,11,0,11,0,1,
65faf8180822855cef2b54b2,SCN,2024-06-25_14h38.14.797,LearnStrategy,2023.2.3,Win32,59.95203837,3,2,13,,,,,,,,8,13,,,,,,,,,,,8,1.336,1,,,,,,0.36125,-0.3825,1,0,0,1.336,Pumice_rect,12,0,12,0,1,
65faf8180822855cef2b54b2,SCN,2024-06-25_14h38.14.797,LearnStrategy,2023.2.3,Win32,59.95203837,3,2,14,,,,,,,,5,16,,,,,,,,,,,5,3.05,1,,,,,,-0.3725,-0.39,1,0,0,3.05,Obsidian_rect,13,0,13,0,1,
65faf8180822855cef2b54b2,SCN,2024-06-25_14h38.14.797,LearnStrategy,2023.2.3,Win32,59.95203837,3,2,15,,,,,,,,6,13,,,,,,,,,,,3,1.978,0,,,,,,0.16125,-0.2525,1,0,0,1.978,Diorite_rect,14,0,14,0,1,
65faf8180822855cef2b54b2,SCN,2024-06-25_14h38.14.797,LearnStrategy,2023.2.3,Win32,59.95203837,3,2,16,,,,,,,,2,05,,,,,,,,,,,1,4.561,0,,,,,,-0.44625,-0.24,1,0,0,4.561,Andesite_rect,15,0,15,0,1,
65faf8180822855cef2b54b2,SCN,2024-06-25_14h38.14.797,LearnStrategy,2023.2.3,Win32,59.95203837,4,1,1,-0.53625,0.41625,1,0,0,2.793,Obsidian_14,5,14,6,1,2.793,-0.35125,-0.4175,1,0,0,1.97,Obsidian_rect,5,1.97,1,0,0,0,0,1,,,,,,,,,,,,,
65faf8180822855cef2b54b2,SCN,2024-06-25_14h38.14.797,LearnStrategy,2023.2.3,Win32,59.95203837,4,1,2,-0.3675,0.40125,1,0,0,1.28,Obsidian_08,5,08,6,2,1.28,-0.345,-0.39875,1,0,0,1.474,Obsidian_rect,5,1.474,1,1,0,1,0,1,,,,,,,,,,,,,
65faf8180822855cef2b54b2,SCN,2024-06-25_14h38.14.797,LearnStrategy,2023.2.3,Win32,59.95203837,4,1,3,-0.19875,0.38875,1,0,0,1.38,Andesite_06,1,06,6,3,1.38,0.15125,-0.23875,1,0,0,2.219,Diorite_rect,3,2.219,0,2,0,2,0,1,,,,,,,,,,,,,
65faf8180822855cef2b54b2,SCN,2024-06-25_14h38.14.797,LearnStrategy,2023.2.3,Win32,59.95203837,4,1,4,-0.08,0.39375,1,0,0,1.548,Peridotite_05,7,05,6,4,1.548,-0.34,-0.22875,1,0,0,2.28,Andesite_rect,1,2.28,0,3,0,3,0,1,,,,,,,,,,,,,
65faf8180822855cef2b54b2,SCN,2024-06-25_14h38.14.797,LearnStrategy,2023.2.3,Win32,59.95203837,4,1,5,0.085,0.39625,1,0,0,1.36,Gabbro_15,4,15,6,5,1.36,-0.33125,-0.24875,1,0,0,2.383,Andesite_rect,1,2.383,0,4,0,4,0,1,,,,,,,,,,,,,
65faf8180822855cef2b54b2,SCN,2024-06-25_14h38.14.797,LearnStrategy,2023.2.3,Win32,59.95203837,4,1,6,0.24375,0.41,1,0,0,1.376,Peridotite_10,7,10,6,6,1.376,0.37375,-0.23375,1,0,0,2.247,Gabbro_rect,4,2.247,0,5,0,5,0,1,,,,,,,,,,,,,
65faf8180822855cef2b54b2,SCN,2024-06-25_14h38.14.797,LearnStrategy,2023.2.3,Win32,59.95203837,4,1,7,0.39375,0.415,1,0,0,1.297,Basalt_11,2,11,6,7,1.297,0.43,-0.39875,1,0,0,1.742,Pumice_rect,8,1.742,0,6,0,6,0,1,,,,,,,,,,,,,
65faf8180822855cef2b54b2,SCN,2024-06-25_14h38.14.797,LearnStrategy,2023.2.3,Win32,59.95203837,4,1,8,0.565,0.4075,1,0,0,1.298,Peridotite_14,7,14,6,8,1.298,-0.1075,-0.3975,1,0,0,1.917,Pegmatite_rect,6,1.917,0,7,0,7,0,1,,,,,,,,,,,,,
65faf8180822855cef2b54b2,SCN,2024-06-25_14h38.14.797,LearnStrategy,2023.2.3,Win32,59.95203837,4,1,9,-0.07625,0.42125,1,0,0,3.257,Peridotite_05,7,05,6,4,3.257,0.38125,-0.2375,1,0,0,3.121,Gabbro_rect,4,3.121,0,8,0,8,0,1,,,,,,,,,,,,,
65faf8180822855cef2b54b2,SCN,2024-06-25_14h38.14.797,LearnStrategy,2023.2.3,Win32,59.95203837,4,1,10,0.07125,0.3975,1,0,0,1.463,Gabbro_15,4,15,6,5,1.463,-0.1075,-0.41,1,0,0,1.972,Pegmatite_rect,6,1.972,0,9,0,9,0,1,,,,,,,,,,,,,
65faf8180822855cef2b54b2,SCN,2024-06-25_14h38.14.797,LearnStrategy,2023.2.3,Win32,59.95203837,4,1,11,0.21,0.46,1,0,0,1.158,Peridotite_10,7,10,6,6,1.158,0.0775,-0.42125,1,0,0,1.955,Peridotite_rect,7,1.955,1,10,0,10,0,1,,,,,,,,,,,,,
65faf8180822855cef2b54b2,SCN,2024-06-25_14h38.14.797,LearnStrategy,2023.2.3,Win32,59.95203837,4,1,12,0.43125,0.39,1,0,0,1.191,Basalt_11,2,11,6,7,1.191,0.14375,-0.40875,1,0,0,1.706,Peridotite_rect,7,1.706,0,11,0,11,0,1,,,,,,,,,,,,,
65faf8180822855cef2b54b2,SCN,2024-06-25_14h38.14.797,LearnStrategy,2023.2.3,Win32,59.95203837,4,1,13,0.59375,0.39375,1,0,0,1.995,Peridotite_14,7,14,6,8,1.995,0.355,-0.2425,1,0,0,1.742,Gabbro_rect,4,1.742,0,12,0,12,0,1,,,,,,,,,,,,,
65faf8180822855cef2b54b2,SCN,2024-06-25_14h38.14.797,LearnStrategy,2023.2.3,Win32,59.95203837,4,1,14,0.2025,0.38875,1,0,0,2.111,Peridotite_10,7,10,6,6,2.111,-0.115,-0.38875,1,0,0,2.391,Pegmatite_rect,6,2.391,0,13,0,13,0,1,,,,,,,,,,,,,
65faf8180822855cef2b54b2,SCN,2024-06-25_14h38.14.797,LearnStrategy,2023.2.3,Win32,59.95203837,4,1,15,0.55625,0.41375,1,0,0,1.864,Peridotite_14,7,14,6,8,1.864,0.12125,-0.39625,1,0,0,2.14,Peridotite_rect,7,2.14,1,14,0,14,0,1,,,,,,,,,,,,,
65faf8180822855cef2b54b2,SCN,2024-06-25_14h38.14.797,LearnStrategy,2023.2.3,Win32,59.95203837,4,1,16,-0.36875,0.12,1,0,0,2.76,Gabbro_09,4,09,4,2,2.76,0.44,-0.23375,1,0,0,2.8,Gabbro_rect,4,2.8,1,15,0,15,0,1,,,,,,,,,,,,,
65faf8180822855cef2b54b2,SCN,2024-06-25_14h38.14.797,LearnStrategy,2023.2.3,Win32,59.95203837,4,2,1,,,,,,,,5,09,,,,,,,,,,,5,1.548,1,,,,,,-0.4475,-0.39125,1,0,0,1.548,Obsidian_rect,0,0,0,0,1,
65faf8180822855cef2b54b2,SCN,2024-06-25_14h38.14.797,LearnStrategy,2023.2.3,Win32,59.95203837,4,2,2,,,,,,,,2,05,,,,,,,,,,,4,3.14,0,,,,,,0.44125,-0.2325,1,0,0,3.14,Gabbro_rect,1,0,1,0,1,
65faf8180822855cef2b54b2,SCN,2024-06-25_14h38.14.797,LearnStrategy,2023.2.3,Win32,59.95203837,4,2,3,,,,,,,,3,06,,,,,,,,,,,6,2.282,0,,,,,,-0.07375,-0.40375,1,0,0,2.282,Pegmatite_rect,2,0,2,0,1,
65faf8180822855cef2b54b2,SCN,2024-06-25_14h38.14.797,LearnStrategy,2023.2.3,Win32,59.95203837,4,2,4,,,,,,,,2,09,,,,,,,,,,,4,2.133,0,,,,,,0.385,-0.2525,1,0,0,2.133,Gabbro_rect,3,0,3,0,1,
65faf8180822855cef2b54b2,SCN,2024-06-25_14h38.14.797,LearnStrategy,2023.2.3,Win32,59.95203837,4,2,5,,,,,,,,6,09,,,,,,,,,,,7,1.551,0,,,,,,0.11875,-0.395,1,0,0,1.551,Peridotite_rect,4,0,4,0,1,
65faf8180822855cef2b54b2,SCN,2024-06-25_14h38.14.797,LearnStrategy,2023.2.3,Win32,59.95203837,4,2,6,,,,,,,,6,11,,,,,,,,,,,7,1.156,0,,,,,,0.11875,-0.395,1,0,0,1.156,Peridotite_rect,5,0,5,0,1,
65faf8180822855cef2b54b2,SCN,2024-06-25_14h38.14.797,LearnStrategy,2023.2.3,Win32,59.95203837,4,2,7,,,,,,,,8,06,,,,,,,,,,,8,1.464,1,,,,,,0.36125,-0.3975,1,0,0,1.464,Pumice_rect,6,0,6,0,1,
65faf8180822855cef2b54b2,SCN,2024-06-25_14h38.14.797,LearnStrategy,2023.2.3,Win32,59.95203837,4,2,8,,,,,,,,4,05,,,,,,,,,,,1,3.757,0,,,,,,-0.38375,-0.24125,1,0,0,3.757,Andesite_rect,7,0,7,0,1,
65faf8180822855cef2b54b2,SCN,2024-06-25_14h38.14.797,LearnStrategy,2023.2.3,Win32,59.95203837,4,2,9,,,,,,,,3,16,,,,,,,,,,,7,2.771,0,,,,,,0.13125,-0.39375,1,0,0,2.771,Peridotite_rect,8,0,8,0,1,
65faf8180822855cef2b54b2,SCN,2024-06-25_14h38.14.797,LearnStrategy,2023.2.3,Win32,59.95203837,4,2,10,,,,,,,,1,11,,,,,,,,,,,7,1.837,0,,,,,,0.11,-0.39875,1,0,0,1.837,Peridotite_rect,9,0,9,0,1,
65faf8180822855cef2b54b2,SCN,2024-06-25_14h38.14.797,LearnStrategy,2023.2.3,Win32,59.95203837,4,2,11,,,,,,,,7,06,,,,,,,,,,,7,1.021,1,,,,,,0.11,-0.39875,1,0,0,1.021,Peridotite_rect,10,0,10,0,1,
65faf8180822855cef2b54b2,SCN,2024-06-25_14h38.14.797,LearnStrategy,2023.2.3,Win32,59.95203837,4,2,12,,,,,,,,5,06,,,,,,,,,,,5,1.507,1,,,,,,-0.33875,-0.3925,1,0,0,1.507,Obsidian_rect,11,0,11,0,1,
65faf8180822855cef2b54b2,SCN,2024-06-25_14h38.14.797,LearnStrategy,2023.2.3,Win32,59.95203837,4,2,13,,,,,,,,1,02,,,,,,,,,,,8,1.787,0,,,,,,0.3975,-0.39875,1,0,0,1.787,Pumice_rect,12,0,12,0,1,
65faf8180822855cef2b54b2,SCN,2024-06-25_14h38.14.797,LearnStrategy,2023.2.3,Win32,59.95203837,4,2,14,,,,,,,,7,16,,,,,,,,,,,6,1.778,0,,,,,,-0.07,-0.38375,1,0,0,1.778,Pegmatite_rect,13,0,13,0,1,
65faf8180822855cef2b54b2,SCN,2024-06-25_14h38.14.797,LearnStrategy,2023.2.3,Win32,59.95203837,4,2,15,,,,,,,,8,02,,,,,,,,,,,8,2.161,1,,,,,,0.41375,-0.39,1,0,0,2.161,Pumice_rect,14,0,14,0,1,
65faf8180822855cef2b54b2,SCN,2024-06-25_14h38.14.797,LearnStrategy,2023.2.3,Win32,59.95203837,4,2,16,,,,,,,,4,10,,,,,,,,,,,3,2.184,0,,,,,,0.1875,-0.24625,1,0,0,2.184,Diorite_rect,15,0,15,0,1,
65faf8180822855cef2b54b2,SCN,2024-06-25_14h38.14.797,LearnStrategy,2023.2.3,Win32,59.95203837,5,1,1,-0.53625,0.23875,1,0,0,5.743,Diorite_11,3,11,5,1,5.743,-0.42125,-0.23125,1,0,0,2.789,Andesite_rect,1,2.789,0,0,0,0,0,1,,,,,,,,,,,,,
65faf8180822855cef2b54b2,SCN,2024-06-25_14h38.14.797,LearnStrategy,2023.2.3,Win32,59.95203837,5,1,2,-0.35625,0.22625,1,0,0,1.095,Basalt_02,2,02,5,2,1.095,-0.3525,-0.2575,1,0,0,2.54,Andesite_rect,1,2.54,0,1,0,1,0,1,,,,,,,,,,,,,
65faf8180822855cef2b54b2,SCN,2024-06-25_14h38.14.797,LearnStrategy,2023.2.3,Win32,59.95203837,5,1,3,-0.22375,0.27125,1,0,0,1.847,Basalt_06,2,06,5,3,1.847,0.09375,-0.25625,1,0,0,2.034,Diorite_rect,3,2.034,0,2,0,2,0,1,,,,,,,,,,,,,
65faf8180822855cef2b54b2,SCN,2024-06-25_14h38.14.797,LearnStrategy,2023.2.3,Win32,59.95203837,5,1,4,-0.07375,0.2675,1,0,0,1.212,Gabbro_11,4,11,5,4,1.212,-0.11625,-0.23375,1,0,0,2.15,Basalt_rect,2,2.15,0,3,0,3,0,1,,,,,,,,,,,,,
65faf8180822855cef2b54b2,SCN,2024-06-25_14h38.14.797,LearnStrategy,2023.2.3,Win32,59.95203837,5,1,5,0.055,0.28375,1,0,0,1.313,Obsidian_04,5,04,5,5,1.313,-0.365,-0.38625,1,0,0,1.265,Obsidian_rect,5,1.265,1,4,0,4,0,1,,,,,,,,,,,,,
65faf8180822855cef2b54b2,SCN,2024-06-25_14h38.14.797,LearnStrategy,2023.2.3,Win32,59.95203837,5,1,6,0.25125,0.22625,1,0,0,1.381,Obsidian_12,5,12,5,6,1.381,-0.41875,-0.38125,1,0,0,1.351,Obsidian_rect,5,1.351,1,5,0,5,0,1,,,,,,,,,,,,,
65faf8180822855cef2b54b2,SCN,2024-06-25_14h38.14.797,LearnStrategy,2023.2.3,Win32,59.95203837,5,1,7,0.39375,0.25125,1,0,0,1.378,Andesite_14,1,14,5,7,1.378,0.12875,-0.22875,1,0,0,8.469,Diorite_rect,3,8.469,0,6,0,6,0,1,,,,,,,,,,,,,
65faf8180822855cef2b54b2,SCN,2024-06-25_14h38.14.797,LearnStrategy,2023.2.3,Win32,59.95203837,5,1,8,-0.53125,0.23875,1,0,0,1.93,Diorite_11,3,11,5,1,1.93,-0.12125,-0.24125,1,0,0,2.291,Basalt_rect,2,2.291,0,7,0,7,0,1,,,,,,,,,,,,,
65faf8180822855cef2b54b2,SCN,2024-06-25_14h38.14.797,LearnStrategy,2023.2.3,Win32,59.95203837,5,1,9,-0.4,0.27125,1,0,0,1.126,Basalt_02,2,02,5,2,1.126,-0.12875,-0.24875,1,0,0,2.982,Basalt_rect,2,2.982,1,8,0,8,0,1,,,,,,,,,,,,,
65faf8180822855cef2b54b2,SCN,2024-06-25_14h38.14.797,LearnStrategy,2023.2.3,Win32,59.95203837,5,1,10,-0.23,0.24375,1,0,0,1.292,Basalt_06,2,06,5,3,1.292,-0.12625,-0.25875,1,0,0,1.336,Basalt_rect,2,1.336,1,9,0,9,0,1,,,,,,,,,,,,,
65faf8180822855cef2b54b2,SCN,2024-06-25_14h38.14.797,LearnStrategy,2023.2.3,Win32,59.95203837,5,1,11,0.58375,0.23375,1,0,0,1.979,Peridotite_04,7,04,5,8,1.979,0.13875,-0.40625,1,0,0,1.454,Peridotite_rect,7,1.454,1,10,0,10,0,1,,,,,,,,,,,,,
65faf8180822855cef2b54b2,SCN,2024-06-25_14h38.14.797,LearnStrategy,2023.2.3,Win32,59.95203837,5,1,12,0.41125,0.26375,1,0,0,1.162,Andesite_14,1,14,5,7,1.162,-0.07625,-0.40125,1,0,0,1.238,Pegmatite_rect,6,1.238,0,11,0,11,0,1,,,,,,,,,,,,,
65faf8180822855cef2b54b2,SCN,2024-06-25_14h38.14.797,LearnStrategy,2023.2.3,Win32,59.95203837,5,1,13,0.59625,0.23875,1,0,0,2.181,Peridotite_04,7,04,5,8,2.181,-0.34375,-0.22875,1,0,0,2.032,Andesite_rect,1,2.032,0,12,0,12,0,1,,,,,,,,,,,,,
65faf8180822855cef2b54b2,SCN,2024-06-25_14h38.14.797,LearnStrategy,2023.2.3,Win32,59.95203837,5,1,14,-0.525,0.125,1,0,0,1.499,Pumice_04,8,04,4,1,1.499,0.42375,-0.40875,1,0,0,1.273,Pumice_rect,8,1.273,1,13,0,13,0,1,,,,,,,,,,,,,
65faf8180822855cef2b54b2,SCN,2024-06-25_14h38.14.797,LearnStrategy,2023.2.3,Win32,59.95203837,5,1,15,-0.39375,0.06625,1,0,0,1.31,Gabbro_09,4,09,4,2,1.31,-0.07625,-0.25125,1,0,0,3.739,Basalt_rect,2,3.739,0,14,0,14,0,1,,,,,,,,,,,,,
65faf8180822855cef2b54b2,SCN,2024-06-25_14h38.14.797,LearnStrategy,2023.2.3,Win32,59.95203837,5,1,16,-0.21875,0.0825,1,0,0,1.163,Basalt_12,2,12,4,3,1.163,0.37625,-0.39375,1,0,0,1.848,Pumice_rect,8,1.848,0,15,0,15,0,1,,,,,,,,,,,,,
65faf8180822855cef2b54b2,SCN,2024-06-25_14h38.14.797,LearnStrategy,2023.2.3,Win32,59.95203837,5,2,1,,,,,,,,8,13,,,,,,,,,,,8,1.704,1,,,,,,0.425,-0.41375,1,0,0,1.704,Pumice_rect,0,0,0,0,1,
65faf8180822855cef2b54b2,SCN,2024-06-25_14h38.14.797,LearnStrategy,2023.2.3,Win32,59.95203837,5,2,2,,,,,,,,6,05,,,,,,,,,,,6,1.978,1,,,,,,-0.17125,-0.40625,1,0,0,1.978,Pegmatite_rect,1,0,1,0,1,
65faf8180822855cef2b54b2,SCN,2024-06-25_14h38.14.797,LearnStrategy,2023.2.3,Win32,59.95203837,5,2,3,,,,,,,,5,05,,,,,,,,,,,5,2.683,1,,,,,,-0.34375,-0.39625,1,0,0,2.683,Obsidian_rect,2,0,2,0,1,
65faf8180822855cef2b54b2,SCN,2024-06-25_14h38.14.797,LearnStrategy,2023.2.3,Win32,59.95203837,5,2,4,,,,,,,,1,10,,,,,,,,,,,2,2.644,0,,,,,,-0.13,-0.23125,1,0,0,2.644,Basalt_rect,3,0,3,0,1,
65faf8180822855cef2b54b2,SCN,2024-06-25_14h38.14.797,LearnStrategy,2023.2.3,Win32,59.95203837,5,2,5,,,,,,,,1,04,,,,,,,,,,,1,2.147,1,,,,,,-0.37875,-0.23375,1,0,0,2.147,Andesite_rect,4,0,4,0,1,
65faf8180822855cef2b54b2,SCN,2024-06-25_14h38.14.797,LearnStrategy,2023.2.3,Win32,59.95203837,5,2,6,,,,,,,,2,10,,,,,,,,,,,3,2.706,0,,,,,,0.16375,-0.24625,1,0,0,2.706,Diorite_rect,5,0,5,0,1,
65faf8180822855cef2b54b2,SCN,2024-06-25_14h38.14.797,LearnStrategy,2023.2.3,Win32,59.95203837,5,2,7,,,,,,,,5,07,,,,,,,,,,,5,1.476,1,,,,,,-0.3825,-0.41625,1,0,0,1.476,Obsidian_rect,6,0,6,0,1,
65faf8180822855cef2b54b2,SCN,2024-06-25_14h38.14.797,LearnStrategy,2023.2.3,Win32,59.95203837,5,2,8,,,,,,,,4,12,,,,,,,,,,,3,2.106,0,,,,,,0.20375,-0.26125,1,0,0,2.106,Diorite_rect,7,0,7,0,1,
65faf8180822855cef2b54b2,SCN,2024-06-25_14h38.14.797,LearnStrategy,2023.2.3,Win32,59.95203837,5,2,9,,,,,,,,6,13,,,,,,,,,,,6,1.479,1,,,,,,-0.08875,-0.41125,1,0,0,1.479,Pegmatite_rect,8,0,8,0,1,
65faf8180822855cef2b54b2,SCN,2024-06-25_14h38.14.797,LearnStrategy,2023.2.3,Win32,59.95203837,5,2,10,,,,,,,,4,01,,,,,,,,,,,7,1.244,0,,,,,,0.12625,-0.41125,1,0,0,1.244,Peridotite_rect,9,0,9,0,1,
65faf8180822855cef2b54b2,SCN,2024-06-25_14h38.14.797,LearnStrategy,2023.2.3,Win32,59.95203837,5,2,11,,,,,,,,7,07,,,,,,,,,,,7,2.438,1,,,,,,0.08125,-0.40625,1,0,0,2.438,Peridotite_rect,10,0,10,0,1,
65faf8180822855cef2b54b2,SCN,2024-06-25_14h38.14.797,LearnStrategy,2023.2.3,Win32,59.95203837,5,2,12,,,,,,,,2,08,,,,,,,,,,,2,4.521,1,,,,,,-0.09875,-0.245,1,0,0,4.521,Basalt_rect,11,0,11,0,1,
65faf8180822855cef2b54b2,SCN,2024-06-25_14h38.14.797,LearnStrategy,2023.2.3,Win32,59.95203837,5,2,13,,,,,,,,7,15,,,,,,,,,,,7,3.124,1,,,,,,0.15625,-0.39125,1,0,0,3.124,Peridotite_rect,12,0,12,0,1,
65faf8180822855cef2b54b2,SCN,2024-06-25_14h38.14.797,LearnStrategy,2023.2.3,Win32,59.95203837,5,2,14,,,,,,,,3,15,,,,,,,,,,,4,2.929,0,,,,,,0.39375,-0.24125,1,0,0,2.929,Gabbro_rect,13,0,13,0,1,
65faf8180822855cef2b54b2,SCN,2024-06-25_14h38.14.797,LearnStrategy,2023.2.3,Win32,59.95203837,5,2,15,,,,,,,,3,14,,,,,,,,,,,6,1.681,0,,,,,,-0.10875,-0.40125,1,0,0,1.681,Pegmatite_rect,14,0,14,0,1,
65faf8180822855cef2b54b2,SCN,2024-06-25_14h38.14.797,LearnStrategy,2023.2.3,Win32,59.95203837,5,2,16,,,,,,,,8,03,,,,,,,,,,,8,1.884,1,,,,,,0.35375,-0.395,1,0,0,1.884,Pumice_rect,15,0,15,0,1,
65faf8180822855cef2b54b2,SCN,2024-06-25_14h38.14.797,LearnStrategy,2023.2.3,Win32,59.95203837,6,1,1,-0.545,-0.10125,1,0,0,7.291,Pegmatite_08,6,08,3,1,7.291,0.10625,-0.405,1,0,0,1.463,Peridotite_rect,7,1.463,0,0,0,0,0,1,,,,,,,,,,,,,
65faf8180822855cef2b54b2,SCN,2024-06-25_14h38.14.797,LearnStrategy,2023.2.3,Win32,59.95203837,6,1,2,-0.4275,-0.09125,1,0,0,1.326,Diorite_07,3,07,3,2,1.326,-0.1025,-0.40625,1,0,0,1.232,Pegmatite_rect,6,1.232,0,1,0,1,0,1,,,,,,,,,,,,,
65faf8180822855cef2b54b2,SCN,2024-06-25_14h38.14.797,LearnStrategy,2023.2.3,Win32,59.95203837,6,1,3,-0.24375,-0.08875,1,0,0,1.179,Diorite_08,3,08,3,3,1.179,0.21875,-0.22875,1,0,0,2.064,Diorite_rect,3,2.064,1,2,0,2,0,1,,,,,,,,,,,,,
65faf8180822855cef2b54b2,SCN,2024-06-25_14h38.14.797,LearnStrategy,2023.2.3,Win32,59.95203837,6,1,4,-0.09375,-0.08625,1,0,0,0.998,Pegmatite_03,6,03,3,4,0.998,0.11,-0.23375,1,0,0,1.432,Diorite_rect,3,1.432,0,3,0,3,0,1,,,,,,,,,,,,,
65faf8180822855cef2b54b2,SCN,2024-06-25_14h38.14.797,LearnStrategy,2023.2.3,Win32,59.95203837,6,1,5,-0.09,-0.10375,1,0,0,1.031,Pegmatite_03,6,03,3,4,1.031,-0.07125,-0.40375,1,0,0,0.936,Pegmatite_rect,6,0.936,1,4,0,4,0,1,,,,,,,,,,,,,
65faf8180822855cef2b54b2,SCN,2024-06-25_14h38.14.797,LearnStrategy,2023.2.3,Win32,59.95203837,6,1,6,-0.5775,-0.09875,1,0,0,1.801,Pegmatite_08,6,08,3,1,1.801,0.05625,-0.405,1,0,0,4.607,Peridotite_rect,7,4.607,0,5,0,5,0,1,,,,,,,,,,,,,
65faf8180822855cef2b54b2,SCN,2024-06-25_14h38.14.797,LearnStrategy,2023.2.3,Win32,59.95203837,6,1,7,-0.27625,-0.10875,1,0,0,4.36,Diorite_08,3,08,3,3,4.36,0.145,-0.2525,1,0,0,3.618,Diorite_rect,3,3.618,1,6,0,6,0,1,,,,,,,,,,,,,
65faf8180822855cef2b54b2,SCN,2024-06-25_14h38.14.797,LearnStrategy,2023.2.3,Win32,59.95203837,6,1,8,0.3775,-0.12875,1,0,0,1.914,Diorite_09,3,09,3,7,1.914,-0.1625,-0.40125,1,0,0,2.003,Pegmatite_rect,6,2.003,0,7,0,7,0,1,,,,,,,,,,,,,
65faf8180822855cef2b54b2,SCN,2024-06-25_14h38.14.797,LearnStrategy,2023.2.3,Win32,59.95203837,6,1,9,0.59125,-0.12125,1,0,0,1.099,Andesite_16,1,16,3,8,1.099,0.1,-0.26,1,0,0,1.378,Diorite_rect,3,1.378,0,8,0,8,0,1,,,,,,,,,,,,,
65faf8180822855cef2b54b2,SCN,2024-06-25_14h38.14.797,LearnStrategy,2023.2.3,Win32,59.95203837,6,1,10,-0.5425,-0.28,1,0,0,1.482,Pegmatite_15,6,15,2,1,1.482,-0.35375,-0.40375,1,0,0,2.724,Obsidian_rect,5,2.724,0,9,0,9,0,1,,,,,,,,,,,,,
65faf8180822855cef2b54b2,SCN,2024-06-25_14h38.14.797,LearnStrategy,2023.2.3,Win32,59.95203837,6,1,11,-0.36625,-0.24375,1,0,0,1.049,Diorite_13,3,13,2,2,1.049,-0.48125,-0.26125,1,0,0,2.604,Andesite_rect,1,2.604,0,10,0,10,0,1,,,,,,,,,,,,,
65faf8180822855cef2b54b2,SCN,2024-06-25_14h38.14.797,LearnStrategy,2023.2.3,Win32,59.95203837,6,1,12,-0.53125,-0.1175,1,0,0,1.43,Pegmatite_08,6,08,3,1,1.43,-0.40625,-0.2625,1,0,0,4.436,Andesite_rect,1,4.436,0,11,0,11,0,1,,,,,,,,,,,,,
65faf8180822855cef2b54b2,SCN,2024-06-25_14h38.14.797,LearnStrategy,2023.2.3,Win32,59.95203837,6,1,13,-0.34875,-0.07625,1,0,0,1.041,Diorite_07,3,07,3,2,1.041,0.17375,-0.40875,1,0,0,1.754,Peridotite_rect,7,1.754,0,12,0,12,0,1,,,,,,,,,,,,,
65faf8180822855cef2b54b2,SCN,2024-06-25_14h38.14.797,LearnStrategy,2023.2.3,Win32,59.95203837,6,1,14,-0.23,-0.12,1,0,0,0.98,Diorite_08,3,08,3,3,0.98,0.195,-0.24875,1,0,0,1.31,Diorite_rect,3,1.31,1,13,0,13,0,1,,,,,,,,,,,,,
65faf8180822855cef2b54b2,SCN,2024-06-25_14h38.14.797,LearnStrategy,2023.2.3,Win32,59.95203837,6,1,15,-0.365,-0.08875,1,0,0,1.147,Diorite_07,3,07,3,2,1.147,0.12625,-0.3975,1,0,0,1.834,Peridotite_rect,7,1.834,0,14,0,14,0,1,,,,,,,,,,,,,
65faf8180822855cef2b54b2,SCN,2024-06-25_14h38.14.797,LearnStrategy,2023.2.3,Win32,59.95203837,6,1,16,-0.49875,-0.08375,1,0,0,1.079,Pegmatite_08,6,08,3,1,1.079,-0.15125,-0.235,1,0,0,2.244,Basalt_rect,2,2.244,0,15,0,15,0,1,,,,,,,,,,,,,
65faf8180822855cef2b54b2,SCN,2024-06-25_14h38.14.797,LearnStrategy,2023.2.3,Win32,59.95203837,6,2,1,,,,,,,,6,12,,,,,,,,,,,6,2.169,1,,,,,,-0.0375,-0.41625,1,0,0,2.169,Pegmatite_rect,0,0,0,0,1,
65faf8180822855cef2b54b2,SCN,2024-06-25_14h38.14.797,LearnStrategy,2023.2.3,Win32,59.95203837,6,2,2,,,,,,,,2,01,,,,,,,,,,,3,2.788,0,,,,,,0.1775,-0.23,1,0,0,2.788,Diorite_rect,1,0,1,0,1,
65faf8180822855cef2b54b2,SCN,2024-06-25_14h38.14.797,LearnStrategy,2023.2.3,Win32,59.95203837,6,2,3,,,,,,,,1,09,,,,,,,,,,,1,3.076,1,,,,,,-0.35875,-0.23375,1,0,0,3.076,Andesite_rect,2,0,2,0,1,
65faf8180822855cef2b54b2,SCN,2024-06-25_14h38.14.797,LearnStrategy,2023.2.3,Win32,59.95203837,6,2,4,,,,,,,,6,16,,,,,,,,,,,6,1.597,1,,,,,,-0.06875,-0.395,1,0,0,1.597,Pegmatite_rect,3,0,3,0,1,
65faf8180822855cef2b54b2,SCN,2024-06-25_14h38.14.797,LearnStrategy,2023.2.3,Win32,59.95203837,6,2,5,,,,,,,,1,05,,,,,,,,,,,7,1.534,0,,,,,,0.14125,-0.38625,1,0,0,1.534,Peridotite_rect,4,0,4,0,1,
65faf8180822855cef2b54b2,SCN,2024-06-25_14h38.14.797,LearnStrategy,2023.2.3,Win32,59.95203837,6,2,6,,,,,,,,5,16,,,,,,,,,,,5,1.478,1,,,,,,-0.40375,-0.41625,1,0,0,1.478,Obsidian_rect,5,0,5,0,1,
65faf8180822855cef2b54b2,SCN,2024-06-25_14h38.14.797,LearnStrategy,2023.2.3,Win32,59.95203837,6,2,7,,,,,,,,5,10,,,,,,,,,,,5,0.837,1,,,,,,-0.34625,-0.41625,1,0,0,0.837,Obsidian_rect,6,0,6,0,1,
65faf8180822855cef2b54b2,SCN,2024-06-25_14h38.14.797,LearnStrategy,2023.2.3,Win32,59.95203837,6,2,8,,,,,,,,8,08,,,,,,,,,,,8,1.595,1,,,,,,0.45625,-0.4175,1,0,0,1.595,Pumice_rect,7,0,7,0,1,
65faf8180822855cef2b54b2,SCN,2024-06-25_14h38.14.797,LearnStrategy,2023.2.3,Win32,59.95203837,6,2,9,,,,,,,,4,14,,,,,,,,,,,4,3.65,1,,,,,,0.4275,-0.23625,1,0,0,3.65,Gabbro_rect,8,0,8,0,1,
65faf8180822855cef2b54b2,SCN,2024-06-25_14h38.14.797,LearnStrategy,2023.2.3,Win32,59.95203837,6,2,10,,,,,,,,7,12,,,,,,,,,,,6,1.53,0,,,,,,-0.15125,-0.385,1,0,0,1.53,Pegmatite_rect,9,0,9,0,1,
65faf8180822855cef2b54b2,SCN,2024-06-25_14h38.14.797,LearnStrategy,2023.2.3,Win32,59.95203837,6,2,11,,,,,,,,4,16,,,,,,,,,,,1,4.929,0,,,,,,-0.39125,-0.23375,1,0,0,4.929,Andesite_rect,10,0,10,0,1,
65faf8180822855cef2b54b2,SCN,2024-06-25_14h38.14.797,LearnStrategy,2023.2.3,Win32,59.95203837,6,2,12,,,,,,,,3,02,,,,,,,,,,,6,6.654,0,,,,,,-0.065,-0.40125,1,0,0,6.654,Pegmatite_rect,11,0,11,0,1,
65faf8180822855cef2b54b2,SCN,2024-06-25_14h38.14.797,LearnStrategy,2023.2.3,Win32,59.95203837,6,2,13,,,,,,,,8,15,,,,,,,,,,,8,2.085,1,,,,,,0.35625,-0.38875,1,0,0,2.085,Pumice_rect,12,0,12,0,1,
65faf8180822855cef2b54b2,SCN,2024-06-25_14h38.14.797,LearnStrategy,2023.2.3,Win32,59.95203837,6,2,14,,,,,,,,7,02,,,,,,,,,,,6,3.698,0,,,,,,-0.09375,-0.41375,1,0,0,3.698,Pegmatite_rect,13,0,13,0,1,
65faf8180822855cef2b54b2,SCN,2024-06-25_14h38.14.797,LearnStrategy,2023.2.3,Win32,59.95203837,6,2,15,,,,,,,,2,14,,,,,,,,,,,6,11.207,0,,,,,,-0.065,-0.38625,1,0,0,11.207,Pegmatite_rect,14,0,14,0,1,
65faf8180822855cef2b54b2,SCN,2024-06-25_14h38.14.797,LearnStrategy,2023.2.3,Win32,59.95203837,6,2,16,,,,,,,,3,12,,,,,,,,,,,7,2.326,0,,,,,,0.17375,-0.40625,1,0,0,2.326,Peridotite_rect,15,0,15,0,1,
65faf8180822855cef2b54b2,SCN,2024-06-25_14h38.14.797,LearnStrategy,2023.2.3,Win32,59.95203837,7,1,1,-0.60375,-0.11375,1,0,0,13.208,Pegmatite_08,6,08,3,1,13.208,0.08125,-0.395,1,0,0,1.325,Peridotite_rect,7,1.325,0,0,0,0,0,1,,,,,,,,,,,,,
65faf8180822855cef2b54b2,SCN,2024-06-25_14h38.14.797,LearnStrategy,2023.2.3,Win32,59.95203837,7,1,2,-0.52125,-0.25375,1,0,0,1.322,Pegmatite_15,6,15,2,1,1.322,-0.10125,-0.4025,1,0,0,1.947,Pegmatite_rect,6,1.947,1,1,0,1,0,1,,,,,,,,,,,,,
65faf8180822855cef2b54b2,SCN,2024-06-25_14h38.14.797,LearnStrategy,2023.2.3,Win32,59.95203837,7,1,3,-0.38125,-0.24625,1,0,0,1.009,Diorite_13,3,13,2,2,1.009,0.1275,-0.39625,1,0,0,1.459,Peridotite_rect,7,1.459,0,2,0,2,0,1,,,,,,,,,,,,,
65faf8180822855cef2b54b2,SCN,2024-06-25_14h38.14.797,LearnStrategy,2023.2.3,Win32,59.95203837,7,1,4,-0.24875,-0.2275,1,0,0,1.279,Peridotite_13,7,13,2,3,1.279,0.1575,-0.26125,1,0,0,1.35,Diorite_rect,3,1.35,0,3,0,3,0,1,,,,,,,,,,,,,
65faf8180822855cef2b54b2,SCN,2024-06-25_14h38.14.797,LearnStrategy,2023.2.3,Win32,59.95203837,7,1,5,-0.05875,-0.24375,1,0,0,1.097,Andesite_07,1,07,2,4,1.097,0.13,-0.40625,1,0,0,1.356,Peridotite_rect,7,1.356,0,4,0,4,0,1,,,,,,,,,,,,,
65faf8180822855cef2b54b2,SCN,2024-06-25_14h38.14.797,LearnStrategy,2023.2.3,Win32,59.95203837,7,1,6,0.09125,-0.21125,1,0,0,0.979,Andesite_01,1,01,2,5,0.979,-0.15625,-0.39375,1,0,0,1.431,Pegmatite_rect,6,1.431,0,5,0,5,0,1,,,,,,,,,,,,,
65faf8180822855cef2b54b2,SCN,2024-06-25_14h38.14.797,LearnStrategy,2023.2.3,Win32,59.95203837,7,1,7,-0.06375,-0.30125,1,0,0,1.082,Andesite_07,1,07,2,4,1.082,0.09125,-0.24625,1,0,0,1.017,Diorite_rect,3,1.017,0,6,0,6,0,1,,,,,,,,,,,,,
65faf8180822855cef2b54b2,SCN,2024-06-25_14h38.14.797,LearnStrategy,2023.2.3,Win32,59.95203837,7,1,8,0.42625,-0.24875,1,0,0,1.563,Pegmatite_06,6,06,2,7,1.563,0.055,-0.39875,1,0,0,1.758,Peridotite_rect,7,1.758,0,7,0,7,0,1,,,,,,,,,,,,,
65faf8180822855cef2b54b2,SCN,2024-06-25_14h38.14.797,LearnStrategy,2023.2.3,Win32,59.95203837,7,1,9,0.40875,-0.26625,1,0,0,1.844,Pegmatite_06,6,06,2,7,1.844,-0.08875,-0.39125,1,0,0,1.584,Pegmatite_rect,6,1.584,1,8,0,8,0,1,,,,,,,,,,,,,
65faf8180822855cef2b54b2,SCN,2024-06-25_14h38.14.797,LearnStrategy,2023.2.3,Win32,59.95203837,7,1,10,0.55625,-0.27375,1,0,0,1.747,Pegmatite_07,6,07,2,8,1.747,-0.03875,-0.3825,1,0,0,2.242,Pegmatite_rect,6,2.242,1,9,0,9,0,1,,,,,,,,,,,,,
65faf8180822855cef2b54b2,SCN,2024-06-25_14h38.14.797,LearnStrategy,2023.2.3,Win32,59.95203837,7,1,11,-0.55625,-0.28125,1,0,0,1.61,Pegmatite_15,6,15,2,1,1.61,-0.13625,-0.38625,1,0,0,0.984,Pegmatite_rect,6,0.984,1,10,0,10,0,1,,,,,,,,,,,,,
65faf8180822855cef2b54b2,SCN,2024-06-25_14h38.14.797,LearnStrategy,2023.2.3,Win32,59.95203837,7,1,12,-0.42125,-0.27,1,0,0,1.18,Diorite_13,3,13,2,2,1.18,-0.38625,-0.24625,1,0,0,1.504,Andesite_rect,1,1.504,0,11,0,11,0,1,,,,,,,,,,,,,
65faf8180822855cef2b54b2,SCN,2024-06-25_14h38.14.797,LearnStrategy,2023.2.3,Win32,59.95203837,7,1,13,-0.2525,-0.27125,1,0,0,1.435,Peridotite_13,7,13,2,3,1.435,-0.32625,-0.2425,1,0,0,0.811,Andesite_rect,1,0.811,0,12,0,12,0,1,,,,,,,,,,,,,
65faf8180822855cef2b54b2,SCN,2024-06-25_14h38.14.797,LearnStrategy,2023.2.3,Win32,59.95203837,7,1,14,-0.08125,-0.2725,1,0,0,0.896,Andesite_07,1,07,2,4,0.896,0.15625,-0.2425,1,0,0,4.889,Diorite_rect,3,4.889,0,13,0,13,0,1,,,,,,,,,,,,,
65faf8180822855cef2b54b2,SCN,2024-06-25_14h38.14.797,LearnStrategy,2023.2.3,Win32,59.95203837,7,1,15,-0.08,-0.43875,1,0,0,3.081,Peridotite_08,7,08,1,4,3.081,0.0875,-0.39625,1,0,0,3.324,Peridotite_rect,7,3.324,1,14,0,14,0,1,,,,,,,,,,,,,
65faf8180822855cef2b54b2,SCN,2024-06-25_14h38.14.797,LearnStrategy,2023.2.3,Win32,59.95203837,7,1,16,0.07,-0.39875,1,0,0,1.195,Pumice_09,8,09,1,5,1.195,0.365,-0.39875,1,0,0,3.191,Pumice_rect,8,3.191,1,15,0,15,0,1,,,,,,,,,,,,,
65faf8180822855cef2b54b2,SCN,2024-06-25_14h38.14.797,LearnStrategy,2023.2.3,Win32,59.95203837,7,2,1,,,,,,,,7,15,,,,,,,,,,,6,4.198,0,,,,,,-0.09625,-0.4075,1,0,0,4.198,Pegmatite_rect,0,0,0,0,1,
65faf8180822855cef2b54b2,SCN,2024-06-25_14h38.14.797,LearnStrategy,2023.2.3,Win32,59.95203837,7,2,2,,,,,,,,7,07,,,,,,,,,,,6,1.409,0,,,,,,-0.0775,-0.39625,1,0,0,1.409,Pegmatite_rect,1,0,1,0,1,
65faf8180822855cef2b54b2,SCN,2024-06-25_14h38.14.797,LearnStrategy,2023.2.3,Win32,59.95203837,7,2,3,,,,,,,,8,13,,,,,,,,,,,8,2.146,1,,,,,,0.44625,-0.39125,1,0,0,2.146,Pumice_rect,2,0,2,0,1,
65faf8180822855cef2b54b2,SCN,2024-06-25_14h38.14.797,LearnStrategy,2023.2.3,Win32,59.95203837,7,2,4,,,,,,,,3,15,,,,,,,,,,,1,7.163,0,,,,,,-0.44375,-0.25125,1,0,0,7.163,Andesite_rect,3,0,3,0,1,
65faf8180822855cef2b54b2,SCN,2024-06-25_14h38.14.797,LearnStrategy,2023.2.3,Win32,59.95203837,7,2,5,,,,,,,,2,01,,,,,,,,,,,1,1.524,0,,,,,,-0.36875,-0.23375,1,0,0,1.524,Andesite_rect,4,0,4,0,1,
65faf8180822855cef2b54b2,SCN,2024-06-25_14h38.14.797,LearnStrategy,2023.2.3,Win32,59.95203837,7,2,6,,,,,,,,6,12,,,,,,,,,,,6,1.689,1,,,,,,-0.12875,-0.39625,1,0,0,1.689,Pegmatite_rect,5,0,5,0,1,
65faf8180822855cef2b54b2,SCN,2024-06-25_14h38.14.797,LearnStrategy,2023.2.3,Win32,59.95203837,7,2,7,,,,,,,,4,12,,,,,,,,,,,6,2.775,0,,,,,,-0.12125,-0.40625,1,0,0,2.775,Pegmatite_rect,6,0,6,0,1,
65faf8180822855cef2b54b2,SCN,2024-06-25_14h38.14.797,LearnStrategy,2023.2.3,Win32,59.95203837,7,2,8,,,,,,,,2,09,,,,,,,,,,,3,3.824,0,,,,,,0.14375,-0.23125,1,0,0,3.824,Diorite_rect,7,0,7,0,1,
65faf8180822855cef2b54b2,SCN,2024-06-25_14h38.14.797,LearnStrategy,2023.2.3,Win32,59.95203837,7,2,9,,,,,,,,3,02,,,,,,,,,,,3,2.976,1,,,,,,0.18875,-0.24875,1,0,0,2.976,Diorite_rect,8,0,8,0,1,
65faf8180822855cef2b54b2,SCN,2024-06-25_14h38.14.797,LearnStrategy,2023.2.3,Win32,59.95203837,7,2,10,,,,,,,,5,05,,,,,,,,,,,5,1.456,1,,,,,,-0.385,-0.41125,1,0,0,1.456,Obsidian_rect,9,0,9,0,1,
65faf8180822855cef2b54b2,SCN,2024-06-25_14h38.14.797,LearnStrategy,2023.2.3,Win32,59.95203837,7,2,11,,,,,,,,4,10,,,,,,,,,,,7,3.098,0,,,,,,0.14875,-0.41625,1,0,0,3.098,Peridotite_rect,10,0,10,0,1,
65faf8180822855cef2b54b2,SCN,2024-06-25_14h38.14.797,LearnStrategy,2023.2.3,Win32,59.95203837,7,2,12,,,,,,,,6,16,,,,,,,,,,,6,1.329,1,,,,,,-0.14625,-0.40875,1,0,0,1.329,Pegmatite_rect,11,0,11,0,1,
65faf8180822855cef2b54b2,SCN,2024-06-25_14h38.14.797,LearnStrategy,2023.2.3,Win32,59.95203837,7,2,13,,,,,,,,1,09,,,,,,,,,,,6,4.268,0,,,,,,-0.1725,-0.40125,1,0,0,4.268,Pegmatite_rect,12,0,12,0,1,
65faf8180822855cef2b54b2,SCN,2024-06-25_14h38.14.797,LearnStrategy,2023.2.3,Win32,59.95203837,7,2,14,,,,,,,,5,06,,,,,,,,,,,5,1.149,1,,,,,,-0.40875,-0.4075,1,0,0,1.149,Obsidian_rect,13,0,13,0,1,
65faf8180822855cef2b54b2,SCN,2024-06-25_14h38.14.797,LearnStrategy,2023.2.3,Win32,59.95203837,7,2,15,,,,,,,,8,06,,,,,,,,,,,8,2.104,1,,,,,,0.32875,-0.4125,1,0,0,2.104,Pumice_rect,14,0,14,0,1,
65faf8180822855cef2b54b2,SCN,2024-06-25_14h38.14.797,LearnStrategy,2023.2.3,Win32,59.95203837,7,2,16,,,,,,,,1,02,,,,,,,,,,,8,1.383,0,,,,,,0.4025,-0.41875,1,0,0,1.383,Pumice_rect,15,0,15,0,1,
65faf8180822855cef2b54b2,SCN,2024-06-25_14h38.14.797,LearnStrategy,2023.2.3,Win32,59.95203837,8,1,1,-0.05875,0.09875,1,0,0,2.613,Basalt_16,2,16,4,4,2.613,0.13875,-0.25125,1,0,0,1.474,Diorite_rect,3,1.474,0,0,0,0,0,1,,,,,,,,,,,,,
65faf8180822855cef2b54b2,SCN,2024-06-25_14h38.14.797,LearnStrategy,2023.2.3,Win32,59.95203837,8,1,2,0.07375,0.1075,1,0,0,1.658,Basalt_04,2,04,4,5,1.658,-0.1075,-0.23625,1,0,0,1.213,Basalt_rect,2,1.213,1,1,0,1,0,1,,,,,,,,,,,,,
65faf8180822855cef2b54b2,SCN,2024-06-25_14h38.14.797,LearnStrategy,2023.2.3,Win32,59.95203837,8,1,3,0.40375,0.09125,1,0,0,1.566,Gabbro_03,4,03,4,7,1.566,-0.18125,-0.24375,1,0,0,1.66,Basalt_rect,2,1.66,0,2,0,2,0,1,,,,,,,,,,,,,
65faf8180822855cef2b54b2,SCN,2024-06-25_14h38.14.797,LearnStrategy,2023.2.3,Win32,59.95203837,8,1,4,0.50625,0.07875,1,0,0,1.497,Pumice_10,8,10,4,8,1.497,0.38375,-0.25125,1,0,0,2.132,Gabbro_rect,4,2.132,0,3,0,3,0,1,,,,,,,,,,,,,
65faf8180822855cef2b54b2,SCN,2024-06-25_14h38.14.797,LearnStrategy,2023.2.3,Win32,59.95203837,8,1,5,-0.3575,-0.24125,1,0,0,2.347,Diorite_13,3,13,2,2,2.347,0.08875,-0.26875,1,0,0,2.568,Diorite_rect,3,2.568,1,4,0,4,0,1,,,,,,,,,,,,,
65faf8180822855cef2b54b2,SCN,2024-06-25_14h38.14.797,LearnStrategy,2023.2.3,Win32,59.95203837,8,1,6,-0.22875,-0.24125,1,0,0,1.445,Peridotite_13,7,13,2,3,1.445,-0.33625,-0.23375,1,0,0,1.405,Andesite_rect,1,1.405,0,5,0,5,0,1,,,,,,,,,,,,,
65faf8180822855cef2b54b2,SCN,2024-06-25_14h38.14.797,LearnStrategy,2023.2.3,Win32,59.95203837,8,1,7,-0.19375,-0.245,1,0,0,1.36,Peridotite_13,7,13,2,3,1.36,0.1,-0.415,1,0,0,1.077,Peridotite_rect,7,1.077,1,6,0,6,0,1,,,,,,,,,,,,,
65faf8180822855cef2b54b2,SCN,2024-06-25_14h38.14.797,LearnStrategy,2023.2.3,Win32,59.95203837,8,1,8,-0.0425,-0.2875,1,0,0,1.014,Andesite_07,1,07,2,4,1.014,-0.06125,-0.39,1,0,0,2.824,Pegmatite_rect,6,2.824,0,7,0,7,0,1,,,,,,,,,,,,,
65faf8180822855cef2b54b2,SCN,2024-06-25_14h38.14.797,LearnStrategy,2023.2.3,Win32,59.95203837,8,1,9,0.04,-0.29875,1,0,0,0.949,Andesite_01,1,01,2,5,0.949,-0.31875,-0.2525,1,0,0,2.321,Andesite_rect,1,2.321,1,8,0,8,0,1,,,,,,,,,,,,,
65faf8180822855cef2b54b2,SCN,2024-06-25_14h38.14.797,LearnStrategy,2023.2.3,Win32,59.95203837,8,1,10,0.27125,-0.295,1,0,0,1.029,Diorite_10,3,10,2,6,1.029,-0.33625,-0.245,1,0,0,1.307,Andesite_rect,1,1.307,0,9,0,9,0,1,,,,,,,,,,,,,
65faf8180822855cef2b54b2,SCN,2024-06-25_14h38.14.797,LearnStrategy,2023.2.3,Win32,59.95203837,8,1,11,0.6,-0.25625,1,0,0,1.696,Pegmatite_07,6,07,2,8,1.696,-0.085,-0.38625,1,0,0,1.839,Pegmatite_rect,6,1.839,1,10,0,10,0,1,,,,,,,,,,,,,
65faf8180822855cef2b54b2,SCN,2024-06-25_14h38.14.797,LearnStrategy,2023.2.3,Win32,59.95203837,8,1,12,-0.425,0.41,1,0,0,2.295,Obsidian_08,5,08,6,2,2.295,-0.385,-0.39125,1,0,0,1.757,Obsidian_rect,5,1.757,1,11,0,11,0,1,,,,,,,,,,,,,
65faf8180822855cef2b54b2,SCN,2024-06-25_14h38.14.797,LearnStrategy,2023.2.3,Win32,59.95203837,8,1,13,-0.37875,0.235,1,0,0,1.889,Basalt_02,2,02,5,2,1.889,-0.37375,-0.24125,1,0,0,1.265,Andesite_rect,1,1.265,0,12,0,12,0,1,,,,,,,,,,,,,
65faf8180822855cef2b54b2,SCN,2024-06-25_14h38.14.797,LearnStrategy,2023.2.3,Win32,59.95203837,8,1,14,-0.04875,0.25375,1,0,0,2.027,Gabbro_11,4,11,5,4,2.027,-0.12375,-0.41125,1,0,0,2.193,Pegmatite_rect,6,2.193,0,13,0,13,0,1,,,,,,,,,,,,,
65faf8180822855cef2b54b2,SCN,2024-06-25_14h38.14.797,LearnStrategy,2023.2.3,Win32,59.95203837,8,1,15,0.5725,0.21625,1,0,0,2.112,Peridotite_04,7,04,5,8,2.112,-0.1125,-0.38625,1,0,0,1.2,Pegmatite_rect,6,1.2,0,14,0,14,0,1,,,,,,,,,,,,,
65faf8180822855cef2b54b2,SCN,2024-06-25_14h38.14.797,LearnStrategy,2023.2.3,Win32,59.95203837,8,1,16,-0.5225,0.1075,1,0,0,1.097,Pumice_04,8,04,4,1,1.097,0.42,-0.4125,1,0,0,1.316,Pumice_rect,8,1.316,1,15,0,15,0,1,,,,,,,,,,,,,
65faf8180822855cef2b54b2,SCN,2024-06-25_14h38.14.797,LearnStrategy,2023.2.3,Win32,59.95203837,8,2,1,,,,,,,,6,13,,,,,,,,,,,6,3.159,1,,,,,,-0.05875,-0.4025,1,0,0,3.159,Pegmatite_rect,0,0,0,0,1,
65faf8180822855cef2b54b2,SCN,2024-06-25_14h38.14.797,LearnStrategy,2023.2.3,Win32,59.95203837,8,2,2,,,,,,,,2,05,,,,,,,,,,,3,5.315,0,,,,,,0.18375,-0.25,1,0,0,5.315,Diorite_rect,1,0,1,0,1,
65faf8180822855cef2b54b2,SCN,2024-06-25_14h38.14.797,LearnStrategy,2023.2.3,Win32,59.95203837,8,2,3,,,,,,,,7,12,,,,,,,,,,,7,1.488,1,,,,,,0.07125,-0.415,1,0,0,1.488,Peridotite_rect,2,0,2,0,1,
65faf8180822855cef2b54b2,SCN,2024-06-25_14h38.14.797,LearnStrategy,2023.2.3,Win32,59.95203837,8,2,4,,,,,,,,4,14,,,,,,,,,,,7,1.382,0,,,,,,0.07125,-0.415,1,0,0,1.382,Peridotite_rect,3,0,3,0,1,
65faf8180822855cef2b54b2,SCN,2024-06-25_14h38.14.797,LearnStrategy,2023.2.3,Win32,59.95203837,8,2,5,,,,,,,,1,10,,,,,,,,,,,1,3.19,1,,,,,,-0.335,-0.2425,1,0,0,3.19,Andesite_rect,4,0,4,0,1,
65faf8180822855cef2b54b2,SCN,2024-06-25_14h38.14.797,LearnStrategy,2023.2.3,Win32,59.95203837,8,2,6,,,,,,,,8,02,,,,,,,,,,,8,2.435,1,,,,,,0.45625,-0.40875,1,0,0,2.435,Pumice_rect,5,0,5,0,1,
65faf8180822855cef2b54b2,SCN,2024-06-25_14h38.14.797,LearnStrategy,2023.2.3,Win32,59.95203837,8,2,7,,,,,,,,5,16,,,,,,,,,,,5,3.102,1,,,,,,-0.36875,-0.38875,1,0,0,3.102,Obsidian_rect,6,0,6,0,1,
65faf8180822855cef2b54b2,SCN,2024-06-25_14h38.14.797,LearnStrategy,2023.2.3,Win32,59.95203837,8,2,8,,,,,,,,6,09,,,,,,,,,,,6,4.976,1,,,,,,-0.12875,-0.4075,1,0,0,4.976,Pegmatite_rect,7,0,7,0,1,
65faf8180822855cef2b54b2,SCN,2024-06-25_14h38.14.797,LearnStrategy,2023.2.3,Win32,59.95203837,8,2,9,,,,,,,,4,16,,,,,,,,,,,1,5.081,0,,,,,,-0.385,-0.2425,1,0,0,5.081,Andesite_rect,8,0,8,0,1,
65faf8180822855cef2b54b2,SCN,2024-06-25_14h38.14.797,LearnStrategy,2023.2.3,Win32,59.95203837,8,2,10,,,,,,,,8,15,,,,,,,,,,,8,1.719,1,,,,,,0.43625,-0.40625,1,0,0,1.719,Pumice_rect,9,0,9,0,1,
65faf8180822855cef2b54b2,SCN,2024-06-25_14h38.14.797,LearnStrategy,2023.2.3,Win32,59.95203837,8,2,11,,,,,,,,5,07,,,,,,,,,,,5,1.422,1,,,,,,-0.48625,-0.40875,1,0,0,1.422,Obsidian_rect,10,0,10,0,1,
65faf8180822855cef2b54b2,SCN,2024-06-25_14h38.14.797,LearnStrategy,2023.2.3,Win32,59.95203837,8,2,12,,,,,,,,2,14,,,,,,,,,,,3,1.792,0,,,,,,0.14875,-0.23625,1,0,0,1.792,Diorite_rect,11,0,11,0,1,
65faf8180822855cef2b54b2,SCN,2024-06-25_14h38.14.797,LearnStrategy,2023.2.3,Win32,59.95203837,8,2,13,,,,,,,,3,16,,,,,,,,,,,7,2.92,0,,,,,,0.105,-0.40875,1,0,0,2.92,Peridotite_rect,12,0,12,0,1,
65faf8180822855cef2b54b2,SCN,2024-06-25_14h38.14.797,LearnStrategy,2023.2.3,Win32,59.95203837,8,2,14,,,,,,,,1,11,,,,,,,,,,,7,1.679,0,,,,,,0.10625,-0.39125,1,0,0,1.679,Peridotite_rect,13,0,13,0,1,
65faf8180822855cef2b54b2,SCN,2024-06-25_14h38.14.797,LearnStrategy,2023.2.3,Win32,59.95203837,8,2,15,,,,,,,,7,02,,,,,,,,,,,6,3.471,0,,,,,,-0.10125,-0.40125,1,0,0,3.471,Pegmatite_rect,14,0,14,0,1,
65faf8180822855cef2b54b2,SCN,2024-06-25_14h38.14.797,LearnStrategy,2023.2.3,Win32,59.95203837,8,2,16,,,,,,,,3,14,,,,,,,,,,,6,1.507,0,,,,,,-0.145,-0.41125,1,0,0,1.507,Pegmatite_rect,15,0,15,0,1,
65faf8180822855cef2b54b2,SCN,2024-06-25_14h38.14.797,LearnStrategy,2023.2.3,Win32,59.95203837,9,1,1,-0.08,-0.10625,1,0,0,1.664,Pegmatite_03,6,03,3,4,1.664,-0.07875,-0.40625,1,0,0,1.783,Pegmatite_rect,6,1.783,1,0,0,0,0,1,,,,,,,,,,,,,
65faf8180822855cef2b54b2,SCN,2024-06-25_14h38.14.797,LearnStrategy,2023.2.3,Win32,59.95203837,9,1,2,0.515,0.38125,1,0,0,2.346,Peridotite_14,7,14,6,8,2.346,0.1425,-0.23625,1,0,0,4.005,Diorite_rect,3,4.005,0,1,0,1,0,1,,,,,,,,,,,,,
65faf8180822855cef2b54b2,SCN,2024-06-25_14h38.14.797,LearnStrategy,2023.2.3,Win32,59.95203837,9,1,3,-0.365,0.22625,1,0,0,1.864,Basalt_02,2,02,5,2,1.864,-0.35625,-0.25375,1,0,0,1.415,Andesite_rect,1,1.415,0,2,0,2,0,1,,,,,,,,,,,,,
65faf8180822855cef2b54b2,SCN,2024-06-25_14h38.14.797,LearnStrategy,2023.2.3,Win32,59.95203837,9,1,4,-0.24375,0.25125,1,0,0,1.348,Basalt_06,2,06,5,3,1.348,-0.08625,-0.2375,1,0,0,3.044,Basalt_rect,2,3.044,1,3,0,3,0,1,,,,,,,,,,,,,
65faf8180822855cef2b54b2,SCN,2024-06-25_14h38.14.797,LearnStrategy,2023.2.3,Win32,59.95203837,9,1,5,-0.05125,0.245,1,0,0,2.446,Gabbro_11,4,11,5,4,2.446,-0.17875,-0.26,1,0,0,1.755,Basalt_rect,2,1.755,0,4,0,4,0,1,,,,,,,,,,,,,
65faf8180822855cef2b54b2,SCN,2024-06-25_14h38.14.797,LearnStrategy,2023.2.3,Win32,59.95203837,9,1,6,-0.36375,0.06,1,0,0,2.295,Gabbro_09,4,09,4,2,2.295,-0.12875,-0.41625,1,0,0,2.076,Pegmatite_rect,6,2.076,0,5,0,5,0,1,,,,,,,,,,,,,
65faf8180822855cef2b54b2,SCN,2024-06-25_14h38.14.797,LearnStrategy,2023.2.3,Win32,59.95203837,9,1,7,-0.41875,-0.13375,1,0,0,4.626,Diorite_07,3,07,3,2,4.626,-0.125,-0.41125,1,0,0,3.215,Pegmatite_rect,6,3.215,0,6,0,6,0,1,,,,,,,,,,,,,
65faf8180822855cef2b54b2,SCN,2024-06-25_14h38.14.797,LearnStrategy,2023.2.3,Win32,59.95203837,9,1,8,0.0625,-0.09375,1,0,0,2.03,Gabbro_13,4,13,3,5,2.03,0.39375,-0.24125,1,0,0,3.085,Gabbro_rect,4,3.085,1,7,0,7,0,1,,,,,,,,,,,,,
65faf8180822855cef2b54b2,SCN,2024-06-25_14h38.14.797,LearnStrategy,2023.2.3,Win32,59.95203837,9,1,9,0.40375,-0.1,1,0,0,1.897,Diorite_09,3,09,3,7,1.897,0.36875,-0.23375,1,0,0,1.539,Gabbro_rect,4,1.539,0,8,0,8,0,1,,,,,,,,,,,,,
65faf8180822855cef2b54b2,SCN,2024-06-25_14h38.14.797,LearnStrategy,2023.2.3,Win32,59.95203837,9,1,10,0.41125,0.3825,1,0,0,5.448,Basalt_11,2,11,6,7,5.448,0.37625,-0.38625,1,0,0,1.735,Pumice_rect,8,1.735,0,9,0,9,0,1,,,,,,,,,,,,,
65faf8180822855cef2b54b2,SCN,2024-06-25_14h38.14.797,LearnStrategy,2023.2.3,Win32,59.95203837,9,1,11,0.4125,0.38875,1,0,0,1.399,Basalt_11,2,11,6,7,1.399,-0.03875,-0.23125,1,0,0,1.583,Basalt_rect,2,1.583,1,10,0,10,0,1,,,,,,,,,,,,,
65faf8180822855cef2b54b2,SCN,2024-06-25_14h38.14.797,LearnStrategy,2023.2.3,Win32,59.95203837,9,1,12,-0.245,0.39625,1,0,0,1.525,Andesite_06,1,06,6,3,1.525,-0.06875,-0.23125,1,0,0,2.367,Basalt_rect,2,2.367,0,11,0,11,0,1,,,,,,,,,,,,,
65faf8180822855cef2b54b2,SCN,2024-06-25_14h38.14.797,LearnStrategy,2023.2.3,Win32,59.95203837,9,1,13,-0.55125,-0.10375,1,0,0,2.58,Pegmatite_08,6,08,3,1,2.58,-0.13125,-0.4,1,0,0,1.103,Pegmatite_rect,6,1.103,1,12,0,12,0,1,,,,,,,,,,,,,
65faf8180822855cef2b54b2,SCN,2024-06-25_14h38.14.797,LearnStrategy,2023.2.3,Win32,59.95203837,9,1,14,-0.36625,-0.24375,1,0,0,2.78,Diorite_13,3,13,2,2,2.78,-0.08375,-0.38875,1,0,0,2.562,Pegmatite_rect,6,2.562,0,13,0,13,0,1,,,,,,,,,,,,,
65faf8180822855cef2b54b2,SCN,2024-06-25_14h38.14.797,LearnStrategy,2023.2.3,Win32,59.95203837,9,1,15,-0.4125,-0.2525,1,0,0,1.298,Diorite_13,3,13,2,2,1.298,0.13375,-0.25,1,0,0,1.113,Diorite_rect,3,1.113,1,14,0,14,0,1,,,,,,,,,,,,,
65faf8180822855cef2b54b2,SCN,2024-06-25_14h38.14.797,LearnStrategy,2023.2.3,Win32,59.95203837,9,1,16,-0.05375,-0.26875,1,0,0,1.531,Andesite_07,1,07,2,4,1.531,0.1275,-0.24375,1,0,0,0.869,Diorite_rect,3,0.869,0,15,0,15,0,1,,,,,,,,,,,,,
65faf8180822855cef2b54b2,SCN,2024-06-25_14h38.14.797,LearnStrategy,2023.2.3,Win32,59.95203837,9,2,1,,,,,,,,2,10,,,,,,,,,,,2,1.821,1,,,,,,-0.11625,-0.24125,1,0,0,1.821,Basalt_rect,0,0,0,0,1,
65faf8180822855cef2b54b2,SCN,2024-06-25_14h38.14.797,LearnStrategy,2023.2.3,Win32,59.95203837,9,2,2,,,,,,,,5,10,,,,,,,,,,,5,1.279,1,,,,,,-0.4275,-0.4125,1,0,0,1.279,Obsidian_rect,1,0,1,0,1,
65faf8180822855cef2b54b2,SCN,2024-06-25_14h38.14.797,LearnStrategy,2023.2.3,Win32,59.95203837,9,2,3,,,,,,,,7,06,,,,,,,,,,,6,1.241,0,,,,,,-0.12125,-0.39625,1,0,0,1.241,Pegmatite_rect,2,0,2,0,1,
65faf8180822855cef2b54b2,SCN,2024-06-25_14h38.14.797,LearnStrategy,2023.2.3,Win32,59.95203837,9,2,4,,,,,,,,6,11,,,,,,,,,,,6,0.983,1,,,,,,-0.12125,-0.39625,1,0,0,0.983,Pegmatite_rect,3,0,3,0,1,
65faf8180822855cef2b54b2,SCN,2024-06-25_14h38.14.797,LearnStrategy,2023.2.3,Win32,59.95203837,9,2,5,,,,,,,,7,16,,,,,,,,,,,6,1.059,0,,,,,,-0.12125,-0.39625,1,0,0,1.059,Pegmatite_rect,4,0,4,0,1,
65faf8180822855cef2b54b2,SCN,2024-06-25_14h38.14.797,LearnStrategy,2023.2.3,Win32,59.95203837,9,2,6,,,,,,,,8,03,,,,,,,,,,,8,2.567,1,,,,,,0.4275,-0.37875,1,0,0,2.567,Pumice_rect,5,0,5,0,1,
65faf8180822855cef2b54b2,SCN,2024-06-25_14h38.14.797,LearnStrategy,2023.2.3,Win32,59.95203837,9,2,7,,,,,,,,8,08,,,,,,,,,,,8,2.414,1,,,,,,0.335,-0.41375,1,0,0,2.414,Pumice_rect,6,0,6,0,1,
65faf8180822855cef2b54b2,SCN,2024-06-25_14h38.14.797,LearnStrategy,2023.2.3,Win32,59.95203837,9,2,8,,,,,,,,3,12,,,,,,,,,,,1,4.92,0,,,,,,-0.34375,-0.2375,1,0,0,4.92,Andesite_rect,7,0,7,0,1,
65faf8180822855cef2b54b2,SCN,2024-06-25_14h38.14.797,LearnStrategy,2023.2.3,Win32,59.95203837,9,2,9,,,,,,,,4,05,,,,,,,,,,,6,2.833,0,,,,,,-0.12,-0.38125,1,0,0,2.833,Pegmatite_rect,8,0,8,0,1,
65faf8180822855cef2b54b2,SCN,2024-06-25_14h38.14.797,LearnStrategy,2023.2.3,Win32,59.95203837,9,2,10,,,,,,,,4,01,,,,,,,,,,,6,1.048,0,,,,,,-0.12,-0.38125,1,0,0,1.048,Pegmatite_rect,9,0,9,0,1,
65faf8180822855cef2b54b2,SCN,2024-06-25_14h38.14.797,LearnStrategy,2023.2.3,Win32,59.95203837,9,2,11,,,,,,,,5,09,,,,,,,,,,,5,1.367,1,,,,,,-0.35375,-0.38,1,0,0,1.367,Obsidian_rect,10,0,10,0,1,
65faf8180822855cef2b54b2,SCN,2024-06-25_14h38.14.797,LearnStrategy,2023.2.3,Win32,59.95203837,9,2,12,,,,,,,,3,06,,,,,,,,,,,3,4.957,1,,,,,,0.20125,-0.22875,1,0,0,4.957,Diorite_rect,11,0,11,0,1,
65faf8180822855cef2b54b2,SCN,2024-06-25_14h38.14.797,LearnStrategy,2023.2.3,Win32,59.95203837,9,2,13,,,,,,,,1,05,,,,,,,,,,,3,0.812,0,,,,,,0.20125,-0.22875,1,0,0,0.812,Diorite_rect,12,0,12,0,1,
65faf8180822855cef2b54b2,SCN,2024-06-25_14h38.14.797,LearnStrategy,2023.2.3,Win32,59.95203837,9,2,14,,,,,,,,2,08,,,,,,,,,,,2,1.42,1,,,,,,-0.14375,-0.23375,1,0,0,1.42,Basalt_rect,13,0,13,0,1,
65faf8180822855cef2b54b2,SCN,2024-06-25_14h38.14.797,LearnStrategy,2023.2.3,Win32,59.95203837,9,2,15,,,,,,,,6,05,,,,,,,,,,,6,2.083,1,,,,,,-0.12625,-0.4025,1,0,0,2.083,Pegmatite_rect,14,0,14,0,1,
65faf8180822855cef2b54b2,SCN,2024-06-25_14h38.14.797,LearnStrategy,2023.2.3,Win32,59.95203837,9,2,16,,,,,,,,1,04,,,,,,,,,,,6,1.609,0,,,,,,-0.0525,-0.37875,1,0,0,1.609,Pegmatite_rect,15,0,15,0,1,
65faf8180822855cef2b54b2,SCN,2024-06-25_14h38.14.797,LearnStrategy,2023.2.3,Win32,59.95203837,,,,,,,,,,,,,,,,,,,,,,,,,,,,,,,,,,,,,,,,,,,0
65faf8180822855cef2b54b2,SCN,2024-06-25_14h38.14.797,LearnStrategy,2023.2.3,Win32,59.95203837,,,,,,,,,,,,,,,,,,,,,,,,,,,,,,,,,,,,,,,,,,,
65faf8180822855cef2b54b2,SCN,2024-06-25_14h38.14.797,LearnStrategy,2023.2.3,Win32,59.95203837,,,,,,,,,,,8,05,1,1,,,,,,,,,,,,,,,,,,,,,,,,,,,,,
65faf8180822855cef2b54b2,SCN,2024-06-25_14h38.14.797,LearnStrategy,2023.2.3,Win32,59.95203837,,,,,,,,,,,8,16,1,2,,,,,,,,,,,,,,,,,,,,,,,,,,,,,
65faf8180822855cef2b54b2,SCN,2024-06-25_14h38.14.797,LearnStrategy,2023.2.3,Win32,59.95203837,,,,,,,,,,,4,08,1,3,,,,,,,,,,,,,,,,,,,,,,,,,,,,,
65faf8180822855cef2b54b2,SCN,2024-06-25_14h38.14.797,LearnStrategy,2023.2.3,Win32,59.95203837,,,,,,,,,,,7,08,1,4,,,,,,,,,,,,,,,,,,,,,,,,,,,,,
65faf8180822855cef2b54b2,SCN,2024-06-25_14h38.14.797,LearnStrategy,2023.2.3,Win32,59.95203837,,,,,,,,,,,8,09,1,5,,,,,,,,,,,,,,,,,,,,,,,,,,,,,
65faf8180822855cef2b54b2,SCN,2024-06-25_14h38.14.797,LearnStrategy,2023.2.3,Win32,59.95203837,,,,,,,,,,,5,02,1,6,,,,,,,,,,,,,,,,,,,,,,,,,,,,,
65faf8180822855cef2b54b2,SCN,2024-06-25_14h38.14.797,LearnStrategy,2023.2.3,Win32,59.95203837,,,,,,,,,,,1,03,1,7,,,,,,,,,,,,,,,,,,,,,,,,,,,,,
65faf8180822855cef2b54b2,SCN,2024-06-25_14h38.14.797,LearnStrategy,2023.2.3,Win32,59.95203837,,,,,,,,,,,6,10,1,8,,,,,,,,,,,,,,,,,,,,,,,,,,,,,
65faf8180822855cef2b54b2,SCN,2024-06-25_14h38.14.797,LearnStrategy,2023.2.3,Win32,59.95203837,,,,,,,,,,,6,15,2,1,,,,,,,,,,,,,,,,,,,,,,,,,,,,,
65faf8180822855cef2b54b2,SCN,2024-06-25_14h38.14.797,LearnStrategy,2023.2.3,Win32,59.95203837,,,,,,,,,,,3,13,2,2,,,,,,,,,,,,,,,,,,,,,,,,,,,,,
65faf8180822855cef2b54b2,SCN,2024-06-25_14h38.14.797,LearnStrategy,2023.2.3,Win32,59.95203837,,,,,,,,,,,7,13,2,3,,,,,,,,,,,,,,,,,,,,,,,,,,,,,
65faf8180822855cef2b54b2,SCN,2024-06-25_14h38.14.797,LearnStrategy,2023.2.3,Win32,59.95203837,,,,,,,,,,,1,07,2,4,,,,,,,,,,,,,,,,,,,,,,,,,,,,,
65faf8180822855cef2b54b2,SCN,2024-06-25_14h38.14.797,LearnStrategy,2023.2.3,Win32,59.95203837,,,,,,,,,,,1,01,2,5,,,,,,,,,,,,,,,,,,,,,,,,,,,,,
65faf8180822855cef2b54b2,SCN,2024-06-25_14h38.14.797,LearnStrategy,2023.2.3,Win32,59.95203837,,,,,,,,,,,3,10,2,6,,,,,,,,,,,,,,,,,,,,,,,,,,,,,
65faf8180822855cef2b54b2,SCN,2024-06-25_14h38.14.797,LearnStrategy,2023.2.3,Win32,59.95203837,,,,,,,,,,,6,06,2,7,,,,,,,,,,,,,,,,,,,,,,,,,,,,,
65faf8180822855cef2b54b2,SCN,2024-06-25_14h38.14.797,LearnStrategy,2023.2.3,Win32,59.95203837,,,,,,,,,,,6,07,2,8,,,,,,,,,,,,,,,,,,,,,,,,,,,,,
65faf8180822855cef2b54b2,SCN,2024-06-25_14h38.14.797,LearnStrategy,2023.2.3,Win32,59.95203837,,,,,,,,,,,6,08,3,1,,,,,,,,,,,,,,,,,,,,,,,,,,,,,
65faf8180822855cef2b54b2,SCN,2024-06-25_14h38.14.797,LearnStrategy,2023.2.3,Win32,59.95203837,,,,,,,,,,,3,07,3,2,,,,,,,,,,,,,,,,,,,,,,,,,,,,,
65faf8180822855cef2b54b2,SCN,2024-06-25_14h38.14.797,LearnStrategy,2023.2.3,Win32,59.95203837,,,,,,,,,,,3,08,3,3,,,,,,,,,,,,,,,,,,,,,,,,,,,,,
65faf8180822855cef2b54b2,SCN,2024-06-25_14h38.14.797,LearnStrategy,2023.2.3,Win32,59.95203837,,,,,,,,,,,6,03,3,4,,,,,,,,,,,,,,,,,,,,,,,,,,,,,
65faf8180822855cef2b54b2,SCN,2024-06-25_14h38.14.797,LearnStrategy,2023.2.3,Win32,59.95203837,,,,,,,,,,,4,13,3,5,,,,,,,,,,,,,,,,,,,,,,,,,,,,,
65faf8180822855cef2b54b2,SCN,2024-06-25_14h38.14.797,LearnStrategy,2023.2.3,Win32,59.95203837,,,,,,,,,,,5,11,3,6,,,,,,,,,,,,,,,,,,,,,,,,,,,,,
65faf8180822855cef2b54b2,SCN,2024-06-25_14h38.14.797,LearnStrategy,2023.2.3,Win32,59.95203837,,,,,,,,,,,3,09,3,7,,,,,,,,,,,,,,,,,,,,,,,,,,,,,
65faf8180822855cef2b54b2,SCN,2024-06-25_14h38.14.797,LearnStrategy,2023.2.3,Win32,59.95203837,,,,,,,,,,,1,16,3,8,,,,,,,,,,,,,,,,,,,,,,,,,,,,,
65faf8180822855cef2b54b2,SCN,2024-06-25_14h38.14.797,LearnStrategy,2023.2.3,Win32,59.95203837,,,,,,,,,,,8,04,4,1,,,,,,,,,,,,,,,,,,,,,,,,,,,,,
65faf8180822855cef2b54b2,SCN,2024-06-25_14h38.14.797,LearnStrategy,2023.2.3,Win32,59.95203837,,,,,,,,,,,4,09,4,2,,,,,,,,,,,,,,,,,,,,,,,,,,,,,
65faf8180822855cef2b54b2,SCN,2024-06-25_14h38.14.797,LearnStrategy,2023.2.3,Win32,59.95203837,,,,,,,,,,,2,12,4,3,,,,,,,,,,,,,,,,,,,,,,,,,,,,,
65faf8180822855cef2b54b2,SCN,2024-06-25_14h38.14.797,LearnStrategy,2023.2.3,Win32,59.95203837,,,,,,,,,,,2,16,4,4,,,,,,,,,,,,,,,,,,,,,,,,,,,,,
65faf8180822855cef2b54b2,SCN,2024-06-25_14h38.14.797,LearnStrategy,2023.2.3,Win32,59.95203837,,,,,,,,,,,2,04,4,5,,,,,,,,,,,,,,,,,,,,,,,,,,,,,
65faf8180822855cef2b54b2,SCN,2024-06-25_14h38.14.797,LearnStrategy,2023.2.3,Win32,59.95203837,,,,,,,,,,,8,14,4,6,,,,,,,,,,,,,,,,,,,,,,,,,,,,,
65faf8180822855cef2b54b2,SCN,2024-06-25_14h38.14.797,LearnStrategy,2023.2.3,Win32,59.95203837,,,,,,,,,,,4,03,4,7,,,,,,,,,,,,,,,,,,,,,,,,,,,,,
65faf8180822855cef2b54b2,SCN,2024-06-25_14h38.14.797,LearnStrategy,2023.2.3,Win32,59.95203837,,,,,,,,,,,8,10,4,8,,,,,,,,,,,,,,,,,,,,,,,,,,,,,
65faf8180822855cef2b54b2,SCN,2024-06-25_14h38.14.797,LearnStrategy,2023.2.3,Win32,59.95203837,,,,,,,,,,,3,11,5,1,,,,,,,,,,,,,,,,,,,,,,,,,,,,,
65faf8180822855cef2b54b2,SCN,2024-06-25_14h38.14.797,LearnStrategy,2023.2.3,Win32,59.95203837,,,,,,,,,,,2,02,5,2,,,,,,,,,,,,,,,,,,,,,,,,,,,,,
65faf8180822855cef2b54b2,SCN,2024-06-25_14h38.14.797,LearnStrategy,2023.2.3,Win32,59.95203837,,,,,,,,,,,2,06,5,3,,,,,,,,,,,,,,,,,,,,,,,,,,,,,
65faf8180822855cef2b54b2,SCN,2024-06-25_14h38.14.797,LearnStrategy,2023.2.3,Win32,59.95203837,,,,,,,,,,,4,11,5,4,,,,,,,,,,,,,,,,,,,,,,,,,,,,,
65faf8180822855cef2b54b2,SCN,2024-06-25_14h38.14.797,LearnStrategy,2023.2.3,Win32,59.95203837,,,,,,,,,,,5,04,5,5,,,,,,,,,,,,,,,,,,,,,,,,,,,,,
65faf8180822855cef2b54b2,SCN,2024-06-25_14h38.14.797,LearnStrategy,2023.2.3,Win32,59.95203837,,,,,,,,,,,5,12,5,6,,,,,,,,,,,,,,,,,,,,,,,,,,,,,
65faf8180822855cef2b54b2,SCN,2024-06-25_14h38.14.797,LearnStrategy,2023.2.3,Win32,59.95203837,,,,,,,,,,,1,14,5,7,,,,,,,,,,,,,,,,,,,,,,,,,,,,,
65faf8180822855cef2b54b2,SCN,2024-06-25_14h38.14.797,LearnStrategy,2023.2.3,Win32,59.95203837,,,,,,,,,,,7,04,5,8,,,,,,,,,,,,,,,,,,,,,,,,,,,,,
65faf8180822855cef2b54b2,SCN,2024-06-25_14h38.14.797,LearnStrategy,2023.2.3,Win32,59.95203837,,,,,,,,,,,5,14,6,1,,,,,,,,,,,,,,,,,,,,,,,,,,,,,
65faf8180822855cef2b54b2,SCN,2024-06-25_14h38.14.797,LearnStrategy,2023.2.3,Win32,59.95203837,,,,,,,,,,,5,08,6,2,,,,,,,,,,,,,,,,,,,,,,,,,,,,,
65faf8180822855cef2b54b2,SCN,2024-06-25_14h38.14.797,LearnStrategy,2023.2.3,Win32,59.95203837,,,,,,,,,,,1,06,6,3,,,,,,,,,,,,,,,,,,,,,,,,,,,,,
65faf8180822855cef2b54b2,SCN,2024-06-25_14h38.14.797,LearnStrategy,2023.2.3,Win32,59.95203837,,,,,,,,,,,7,05,6,4,,,,,,,,,,,,,,,,,,,,,,,,,,,,,
65faf8180822855cef2b54b2,SCN,2024-06-25_14h38.14.797,LearnStrategy,2023.2.3,Win32,59.95203837,,,,,,,,,,,4,15,6,5,,,,,,,,,,,,,,,,,,,,,,,,,,,,,
65faf8180822855cef2b54b2,SCN,2024-06-25_14h38.14.797,LearnStrategy,2023.2.3,Win32,59.95203837,,,,,,,,,,,7,10,6,6,,,,,,,,,,,,,,,,,,,,,,,,,,,,,
65faf8180822855cef2b54b2,SCN,2024-06-25_14h38.14.797,LearnStrategy,2023.2.3,Win32,59.95203837,,,,,,,,,,,2,11,6,7,,,,,,,,,,,,,,,,,,,,,,,,,,,,,
65faf8180822855cef2b54b2,SCN,2024-06-25_14h38.14.797,LearnStrategy,2023.2.3,Win32,59.95203837,,,,,,,,,,,7,14,6,8,,,,,,,,,,,,,,,,,,,,,,,,,,,,,