participant,condition,date,expName,psychopyVersion,OS,frameRate,block,phase,trial,learn_mouse.x,learn_mouse.y,learn_mouse.leftButton,learn_mouse.midButton,learn_mouse.rightButton,learn_mouse.time,learn_mouse.clicked_name,cat,token,row,col,t_select,cat_mouse_l.x,cat_mouse_l.y,cat_mouse_l.leftButton,cat_mouse_l.midButton,cat_mouse_l.rightButton,cat_mouse_l.time,cat_mouse_l.clicked_name,resp,t_resp,corr,train_trials.thisRepN,train_trials.thisTrialN,train_trials.thisN,train_trials.thisIndex,train_trials.ran,cat_mouse_t.x,cat_mouse_t.y,cat_mouse_t.leftButton,cat_mouse_t.midButton,cat_mouse_t.rightButton,cat_mouse_t.time,cat_mouse_t.clicked_name,test_trials.thisRepN,test_trials.thisTrialN,test_trials.thisN,test_trials.thisIndex,test_trials.ran,Bonus
65fafec03bcc45eef533814d,SCN,2024-06-11_18h41.33.614,LearnStrategy,2023.2.3,MacIntel,60.24096386,,,,,,,,,,,,,,,,,,,,,,,,,,,,,,,,,,,,,,,,,,,
65fafec03bcc45eef533814d,SCN,2024-06-11_18h41.33.614,LearnStrategy,2023.2.3,MacIntel,60.24096386,1,1,1,-0.081657213,0.078352675,1,0,0,2.8275,Andesite_14,1,14,4,4,2.828,-0.114696087,-0.234797825,1,0,0,1.3657,Basalt_rect,2,1.366,0,0,0,0,0,1,,,,,,,,,,,,,
65fafec03bcc45eef533814d,SCN,2024-06-11_18h41.33.614,LearnStrategy,2023.2.3,MacIntel,60.24096386,1,1,2,0.05519489,0.076853273,1,0,0,0.7976,Diorite_02,3,02,4,5,0.798,-0.079491049,-0.25041632,1,0,0,1.0269,Basalt_rect,2,1.027,0,1,0,1,0,1,,,,,,,,,,,,,
65fafec03bcc45eef533814d,SCN,2024-06-11_18h41.33.614,LearnStrategy,2023.2.3,MacIntel,60.24096386,1,1,3,-0.075812474,-0.118501509,1,0,0,1.3805,Pumice_10,8,10,3,4,1.381,-0.065606136,-0.260466538,1,0,0,0.6425,Basalt_rect,2,0.642,0,2,0,2,0,1,,,,,,,,,,,,,
65fafec03bcc45eef533814d,SCN,2024-06-11_18h41.33.614,LearnStrategy,2023.2.3,MacIntel,60.24096386,1,1,4,0.232166554,-0.100840445,1,0,0,1.1485,Peridotite_16,7,16,3,6,1.148,0.088207744,-0.258859804,1,0,0,1.0417,Diorite_rect,3,1.042,0,3,0,3,0,1,,,,,,,,,,,,,
65fafec03bcc45eef533814d,SCN,2024-06-11_18h41.33.614,LearnStrategy,2023.2.3,MacIntel,60.24096386,1,1,5,0.050943875,-0.251307504,1,0,0,1.1971,Pegmatite_03,6,03,2,5,1.197,-0.083914446,-0.24652308,1,0,0,0.5598,Basalt_rect,2,0.56,0,4,0,4,0,1,,,,,,,,,,,,,
65fafec03bcc45eef533814d,SCN,2024-06-11_18h41.33.614,LearnStrategy,2023.2.3,MacIntel,60.24096386,1,1,6,-0.187301598,-0.273258613,1,0,0,2.4639,Pegmatite_10,6,10,2,3,2.464,-0.30898405,-0.238661792,1,0,0,1.3926,Andesite_rect,1,1.393,0,5,0,5,0,1,,,,,,,,,,,,,
65fafec03bcc45eef533814d,SCN,2024-06-11_18h41.33.614,LearnStrategy,2023.2.3,MacIntel,60.24096386,1,1,7,-0.070836152,0.068725281,1,0,0,1.5332,Andesite_14,1,14,4,4,1.533,-0.099741101,-0.263253929,1,0,0,2.6929,Basalt_rect,2,2.693,0,6,0,6,0,1,,,,,,,,,,,,,
65fafec03bcc45eef533814d,SCN,2024-06-11_18h41.33.614,LearnStrategy,2023.2.3,MacIntel,60.24096386,1,1,8,0.087290539,0.252771128,1,0,0,1.7153,Basalt_10,2,10,5,5,1.715,-0.049769723,-0.257230303,1,0,0,1.3938,Basalt_rect,2,1.394,1,7,0,7,0,1,,,,,,,,,,,,,
65fafec03bcc45eef533814d,SCN,2024-06-11_18h41.33.614,LearnStrategy,2023.2.3,MacIntel,60.24096386,1,1,9,0.030092111,-0.04352818,1,0,0,0.4814,Obsidian_07,5,07,3,5,0.481,0.115388869,-0.245631895,1,0,0,4.4944,Diorite_rect,3,4.494,0,8,0,8,0,1,,,,,,,,,,,,,
65fafec03bcc45eef533814d,SCN,2024-06-11_18h41.33.614,LearnStrategy,2023.2.3,MacIntel,60.24096386,1,1,10,0.398460267,0.103130204,1,0,0,1.0485,Andesite_05,1,05,4,7,1.049,0.308938515,-0.235380022,1,0,0,0.9769,Gabbro_rect,4,0.977,0,9,0,9,0,1,,,,,,,,,,,,,
65fafec03bcc45eef533814d,SCN,2024-06-11_18h41.33.614,LearnStrategy,2023.2.3,MacIntel,60.24096386,1,1,11,0.51141952,0.089684378,1,0,0,2.5814,Basalt_05,2,05,4,8,2.581,0.42609349,-0.234537625,1,0,0,1.6771,Gabbro_rect,4,1.677,0,10,0,10,0,1,,,,,,,,,,,,,
65fafec03bcc45eef533814d,SCN,2024-06-11_18h41.33.614,LearnStrategy,2023.2.3,MacIntel,60.24096386,1,1,12,0.051587869,0.397051936,1,0,0,3.7655,Peridotite_15,7,15,6,5,3.766,-0.235679252,-0.408406406,1,0,0,3.3943,Pegmatite_rect,6,3.394,0,11,0,11,0,1,,,,,,,,,,,,,
65fafec03bcc45eef533814d,SCN,2024-06-11_18h41.33.614,LearnStrategy,2023.2.3,MacIntel,60.24096386,1,1,13,0.051756999,-0.384780261,1,0,0,3.149,Gabbro_01,4,01,1,5,3.149,0.317404767,-0.400932166,1,0,0,2.7944,Pumice_rect,8,2.794,0,12,0,12,0,1,,,,,,,,,,,,,
65fafec03bcc45eef533814d,SCN,2024-06-11_18h41.33.614,LearnStrategy,2023.2.3,MacIntel,60.24096386,1,1,14,0.072202201,-0.091333394,1,0,0,0.7322,Obsidian_07,5,07,3,5,0.732,-0.37911441,-0.381791216,1,0,0,1.2567,Obsidian_rect,5,1.257,1,13,0,13,0,1,,,,,,,,,,,,,
65fafec03bcc45eef533814d,SCN,2024-06-11_18h41.33.614,LearnStrategy,2023.2.3,MacIntel,60.24096386,1,1,15,-0.050361678,0.372482567,1,0,0,1.1477,Peridotite_13,7,13,6,4,1.148,-0.119002394,-0.258941117,1,0,0,1.876,Basalt_rect,2,1.876,0,14,0,14,0,1,,,,,,,,,,,,,
65fafec03bcc45eef533814d,SCN,2024-06-11_18h41.33.614,LearnStrategy,2023.2.3,MacIntel,60.24096386,1,1,16,0.268516471,0.435532239,1,0,0,0.9651,Pumice_16,8,16,6,6,0.965,-0.075093672,-0.23035166,1,0,0,1.0251,Basalt_rect,2,1.025,0,15,0,15,0,1,,,,,,,,,,,,,
65fafec03bcc45eef533814d,SCN,2024-06-11_18h41.33.614,LearnStrategy,2023.2.3,MacIntel,60.24096386,1,2,1,,,,,,,,5,08,,,,,,,,,,,5,16.391,1,,,,,,-0.364741622,-0.38723915,1,0,0,16.3912,Obsidian_rect,0,0,0,0,1,
65fafec03bcc45eef533814d,SCN,2024-06-11_18h41.33.614,LearnStrategy,2023.2.3,MacIntel,60.24096386,1,2,2,,,,,,,,7,05,,,,,,,,,,,6,1.327,0,,,,,,-0.11255269,-0.405049828,1,0,0,1.3274,Pegmatite_rect,1,0,1,0,1,
65fafec03bcc45eef533814d,SCN,2024-06-11_18h41.33.614,LearnStrategy,2023.2.3,MacIntel,60.24096386,1,2,3,,,,,,,,1,04,,,,,,,,,,,3,0.16,0,,,,,,0.144580037,-0.24665318,1,0,0,0.1598,Diorite_rect,2,0,2,0,1,
65fafec03bcc45eef533814d,SCN,2024-06-11_18h41.33.614,LearnStrategy,2023.2.3,MacIntel,60.24096386,1,2,4,,,,,,,,3,06,,,,,,,,,,,4,0.192,0,,,,,,0.399748257,-0.228292829,1,0,0,0.192,Gabbro_rect,3,0,3,0,1,
65fafec03bcc45eef533814d,SCN,2024-06-11_18h41.33.614,LearnStrategy,2023.2.3,MacIntel,60.24096386,1,2,5,,,,,,,,2,04,,,,,,,,,,,8,0.411,0,,,,,,0.388771076,-0.398522065,1,0,0,0.411,Pumice_rect,4,0,4,0,1,
65fafec03bcc45eef533814d,SCN,2024-06-11_18h41.33.614,LearnStrategy,2023.2.3,MacIntel,60.24096386,1,2,6,,,,,,,,6,12,,,,,,,,,,,7,0.16,0,,,,,,0.178327956,-0.3981773,1,0,0,0.1603,Peridotite_rect,5,0,5,0,1,
65fafec03bcc45eef533814d,SCN,2024-06-11_18h41.33.614,LearnStrategy,2023.2.3,MacIntel,60.24096386,1,2,7,,,,,,,,7,07,,,,,,,,,,,2,0.361,0,,,,,,-0.066113525,-0.259832301,1,0,0,0.3607,Basalt_rect,6,0,6,0,1,
65fafec03bcc45eef533814d,SCN,2024-06-11_18h41.33.614,LearnStrategy,2023.2.3,MacIntel,60.24096386,1,2,8,,,,,,,,8,02,,,,,,,,,,,2,0.092,0,,,,,,-0.066113525,-0.259832301,1,0,0,0.0918,Basalt_rect,7,0,7,0,1,
65fafec03bcc45eef533814d,SCN,2024-06-11_18h41.33.614,LearnStrategy,2023.2.3,MacIntel,60.24096386,1,2,9,,,,,,,,4,13,,,,,,,,,,,3,0.143,0,,,,,,0.097571685,-0.250855407,1,0,0,0.143,Diorite_rect,8,0,8,0,1,
65fafec03bcc45eef533814d,SCN,2024-06-11_18h41.33.614,LearnStrategy,2023.2.3,MacIntel,60.24096386,1,2,10,,,,,,,,5,14,,,,,,,,,,,1,0.429,0,,,,,,-0.355888322,-0.254494952,1,0,0,0.429,Andesite_rect,9,0,9,0,1,
65fafec03bcc45eef533814d,SCN,2024-06-11_18h41.33.614,LearnStrategy,2023.2.3,MacIntel,60.24096386,1,2,11,,,,,,,,2,09,,,,,,,,,,,6,0.709,0,,,,,,-0.18773418,-0.399585632,1,0,0,0.7095,Pegmatite_rect,10,0,10,0,1,
65fafec03bcc45eef533814d,SCN,2024-06-11_18h41.33.614,LearnStrategy,2023.2.3,MacIntel,60.24096386,1,2,12,,,,,,,,4,10,,,,,,,,,,,7,0.377,0,,,,,,0.09805956,-0.410123725,1,0,0,0.3773,Peridotite_rect,11,0,11,0,1,
65fafec03bcc45eef533814d,SCN,2024-06-11_18h41.33.614,LearnStrategy,2023.2.3,MacIntel,60.24096386,1,2,13,,,,,,,,8,03,,,,,,,,,,,4,0.393,0,,,,,,0.425712948,-0.238105615,1,0,0,0.3934,Gabbro_rect,12,0,12,0,1,
65fafec03bcc45eef533814d,SCN,2024-06-11_18h41.33.614,LearnStrategy,2023.2.3,MacIntel,60.24096386,1,2,14,,,,,,,,3,15,,,,,,,,,,,4,0.11,0,,,,,,0.419438879,-0.238310522,1,0,0,0.1104,Gabbro_rect,13,0,13,0,1,
65fafec03bcc45eef533814d,SCN,2024-06-11_18h41.33.614,LearnStrategy,2023.2.3,MacIntel,60.24096386,1,2,15,,,,,,,,6,06,,,,,,,,,,,3,0.141,0,,,,,,0.194382286,-0.253174438,1,0,0,0.1413,Diorite_rect,14,0,14,0,1,
65fafec03bcc45eef533814d,SCN,2024-06-11_18h41.33.614,LearnStrategy,2023.2.3,MacIntel,60.24096386,1,2,16,,,,,,,,1,06,,,,,,,,,,,8,0.927,0,,,,,,0.344598902,-0.391873959,1,0,0,0.9274,Pumice_rect,15,0,15,0,1,
65fafec03bcc45eef533814d,SCN,2024-06-11_18h41.33.614,LearnStrategy,2023.2.3,MacIntel,60.24096386,2,1,1,-0.241852493,0.120348928,1,0,0,1.0655,Diorite_07,3,07,4,3,1.066,-0.383993157,-0.239556229,1,0,0,0.9085,Andesite_rect,1,0.909,0,0,0,0,0,1,,,,,,,,,,,,,
65fafec03bcc45eef533814d,SCN,2024-06-11_18h41.33.614,LearnStrategy,2023.2.3,MacIntel,60.24096386,2,1,2,0.047366127,-0.231307894,1,0,0,1.1157,Pegmatite_03,6,03,2,5,1.116,-0.117015118,-0.393526228,1,0,0,1.0765,Pegmatite_rect,6,1.076,1,1,0,1,0,1,,,,,,,,,,,,,
65fafec03bcc45eef533814d,SCN,2024-06-11_18h41.33.614,LearnStrategy,2023.2.3,MacIntel,60.24096386,2,1,3,-0.078564087,-0.055256687,1,0,0,1.5171,Pumice_10,8,10,3,4,1.517,-0.104034398,-0.239266757,1,0,0,0.8421,Basalt_rect,2,0.842,0,2,0,2,0,1,,,,,,,,,,,,,
65fafec03bcc45eef533814d,SCN,2024-06-11_18h41.33.614,LearnStrategy,2023.2.3,MacIntel,60.24096386,2,1,4,-0.221862641,0.20662794,1,0,0,1.1976,Obsidian_02,5,02,5,3,1.198,-0.430695774,-0.380288562,1,0,0,1.7413,Obsidian_rect,5,1.741,1,3,0,3,0,1,,,,,,,,,,,,,
65fafec03bcc45eef533814d,SCN,2024-06-11_18h41.33.614,LearnStrategy,2023.2.3,MacIntel,60.24096386,2,1,5,0.393851478,-0.149497814,1,0,0,1.1813,Peridotite_14,7,14,3,7,1.181,0.35190076,-0.239813177,1,0,0,1.0241,Gabbro_rect,4,1.024,0,4,0,4,0,1,,,,,,,,,,,,,
65fafec03bcc45eef533814d,SCN,2024-06-11_18h41.33.614,LearnStrategy,2023.2.3,MacIntel,60.24096386,2,1,6,0.237861678,0.402320983,1,0,0,1.198,Pumice_16,8,16,6,6,1.198,0.099682556,-0.234680735,1,0,0,1.3418,Diorite_rect,3,1.342,0,5,0,5,0,1,,,,,,,,,,,,,
65fafec03bcc45eef533814d,SCN,2024-06-11_18h41.33.614,LearnStrategy,2023.2.3,MacIntel,60.24096386,2,1,7,0.555578684,0.245882338,1,0,0,0.9148,Pegmatite_08,6,08,5,8,0.915,-0.082974474,-0.251831156,1,0,0,1.4095,Basalt_rect,2,1.409,0,6,0,6,0,1,,,,,,,,,,,,,
65fafec03bcc45eef533814d,SCN,2024-06-11_18h41.33.614,LearnStrategy,2023.2.3,MacIntel,60.24096386,2,1,8,-0.070309248,-0.412735481,1,0,0,0.9652,Obsidian_11,5,11,1,4,0.965,-0.408269801,-0.381794468,1,0,0,1.5598,Obsidian_rect,5,1.56,1,7,0,7,0,1,,,,,,,,,,,,,
65fafec03bcc45eef533814d,SCN,2024-06-11_18h41.33.614,LearnStrategy,2023.2.3,MacIntel,60.24096386,2,1,9,0.087163692,-0.408978846,1,0,0,1.7644,Gabbro_01,4,01,1,5,1.764,0.343899615,-0.419425869,1,0,0,1.2432,Pumice_rect,8,1.243,0,8,0,8,0,1,,,,,,,,,,,,,
65fafec03bcc45eef533814d,SCN,2024-06-11_18h41.33.614,LearnStrategy,2023.2.3,MacIntel,60.24096386,2,1,10,0.548452461,-0.109719765,1,0,0,0.8822,Pumice_15,8,15,3,8,0.882,0.070319005,-0.251997034,1,0,0,1.2442,Diorite_rect,3,1.244,0,9,0,9,0,1,,,,,,,,,,,,,
65fafec03bcc45eef533814d,SCN,2024-06-11_18h41.33.614,LearnStrategy,2023.2.3,MacIntel,60.24096386,2,1,11,0.513920691,-0.392173189,1,0,0,1.8478,Obsidian_04,5,04,1,8,1.848,0.115349839,-0.260619406,1,0,0,1.6253,Diorite_rect,3,1.625,0,10,0,10,0,1,,,,,,,,,,,,,
65fafec03bcc45eef533814d,SCN,2024-06-11_18h41.33.614,LearnStrategy,2023.2.3,MacIntel,60.24096386,2,1,12,0.07887958,0.105514285,1,0,0,0.949,Diorite_02,3,02,4,5,0.949,-0.083842891,-0.246162052,1,0,0,0.8255,Basalt_rect,2,0.826,0,11,0,11,0,1,,,,,,,,,,,,,
65fafec03bcc45eef533814d,SCN,2024-06-11_18h41.33.614,LearnStrategy,2023.2.3,MacIntel,60.24096386,2,1,13,0.241429668,0.40691351,1,0,0,0.9486,Pumice_16,8,16,6,6,0.949,0.03829491,-0.228468464,1,0,0,0.7751,Diorite_rect,3,0.775,0,12,0,12,0,1,,,,,,,,,,,,,
65fafec03bcc45eef533814d,SCN,2024-06-11_18h41.33.614,LearnStrategy,2023.2.3,MacIntel,60.24096386,2,1,14,-0.396899068,0.405540955,1,0,0,1.5148,Basalt_06,2,06,6,2,1.515,-0.098859674,-0.22981825,1,0,0,1.2415,Basalt_rect,2,1.242,1,13,0,13,0,1,,,,,,,,,,,,,
65fafec03bcc45eef533814d,SCN,2024-06-11_18h41.33.614,LearnStrategy,2023.2.3,MacIntel,60.24096386,2,1,15,-0.390452618,0.269980095,1,0,0,1.2485,Pumice_05,8,05,5,2,1.249,-0.363121878,-0.259253357,1,0,0,1.7255,Andesite_rect,1,1.726,0,14,0,14,0,1,,,,,,,,,,,,,
65fafec03bcc45eef533814d,SCN,2024-06-11_18h41.33.614,LearnStrategy,2023.2.3,MacIntel,60.24096386,2,1,16,0.082138582,-0.102987094,1,0,0,0.7317,Obsidian_07,5,07,3,5,0.732,-0.319144853,-0.390062318,1,0,0,1.3268,Obsidian_rect,5,1.327,1,15,0,15,0,1,,,,,,,,,,,,,
65fafec03bcc45eef533814d,SCN,2024-06-11_18h41.33.614,LearnStrategy,2023.2.3,MacIntel,60.24096386,2,2,1,,,,,,,,5,12,,,,,,,,,,,5,2.008,1,,,,,,-0.329055214,-0.384536324,1,0,0,2.0075,Obsidian_rect,0,0,0,0,1,
65fafec03bcc45eef533814d,SCN,2024-06-11_18h41.33.614,LearnStrategy,2023.2.3,MacIntel,60.24096386,2,2,2,,,,,,,,4,16,,,,,,,,,,,3,1.127,0,,,,,,0.124957718,-0.240499454,1,0,0,1.1275,Diorite_rect,1,0,1,0,1,
65fafec03bcc45eef533814d,SCN,2024-06-11_18h41.33.614,LearnStrategy,2023.2.3,MacIntel,60.24096386,2,2,3,,,,,,,,7,02,,,,,,,,,,,8,2.194,0,,,,,,0.346817106,-0.405079101,1,0,0,2.194,Pumice_rect,2,0,2,0,1,
65fafec03bcc45eef533814d,SCN,2024-06-11_18h41.33.614,LearnStrategy,2023.2.3,MacIntel,60.24096386,2,2,4,,,,,,,,7,06,,,,,,,,,,,7,0.144,1,,,,,,0.161141757,-0.418788379,1,0,0,0.1435,Peridotite_rect,3,0,3,0,1,
65fafec03bcc45eef533814d,SCN,2024-06-11_18h41.33.614,LearnStrategy,2023.2.3,MacIntel,60.24096386,2,2,5,,,,,,,,5,06,,,,,,,,,,,5,1.31,1,,,,,,-0.375162625,-0.407866491,1,0,0,1.3098,Obsidian_rect,4,0,4,0,1,
65fafec03bcc45eef533814d,SCN,2024-06-11_18h41.33.614,LearnStrategy,2023.2.3,MacIntel,60.24096386,2,2,6,,,,,,,,1,03,,,,,,,,,,,1,0.543,1,,,,,,-0.344865607,-0.244565076,1,0,0,0.5428,Andesite_rect,5,0,5,0,1,
65fafec03bcc45eef533814d,SCN,2024-06-11_18h41.33.614,LearnStrategy,2023.2.3,MacIntel,60.24096386,2,2,7,,,,,,,,3,08,,,,,,,,,,,2,0.127,0,,,,,,-0.187542282,-0.256511501,1,0,0,0.1267,Basalt_rect,6,0,6,0,1,
65fafec03bcc45eef533814d,SCN,2024-06-11_18h41.33.614,LearnStrategy,2023.2.3,MacIntel,60.24096386,2,2,8,,,,,,,,4,12,,,,,,,,,,,5,0.125,0,,,,,,-0.347646493,-0.398027685,1,0,0,0.1251,Obsidian_rect,7,0,7,0,1,
65fafec03bcc45eef533814d,SCN,2024-06-11_18h41.33.614,LearnStrategy,2023.2.3,MacIntel,60.24096386,2,2,9,,,,,,,,6,09,,,,,,,,,,,6,0.192,1,,,,,,-0.143392876,-0.396886058,1,0,0,0.1919,Pegmatite_rect,8,0,8,0,1,
65fafec03bcc45eef533814d,SCN,2024-06-11_18h41.33.614,LearnStrategy,2023.2.3,MacIntel,60.24096386,2,2,10,,,,,,,,2,12,,,,,,,,,,,7,0.143,0,,,,,,0.110871149,-0.380041372,1,0,0,0.1434,Peridotite_rect,9,0,9,0,1,
65fafec03bcc45eef533814d,SCN,2024-06-11_18h41.33.614,LearnStrategy,2023.2.3,MacIntel,60.24096386,2,2,11,,,,,,,,6,07,,,,,,,,,,,3,0.576,0,,,,,,0.144524745,-0.25437461,1,0,0,0.5756,Diorite_rect,10,0,10,0,1,
65fafec03bcc45eef533814d,SCN,2024-06-11_18h41.33.614,LearnStrategy,2023.2.3,MacIntel,60.24096386,2,2,12,,,,,,,,8,14,,,,,,,,,,,4,0.227,0,,,,,,0.332398782,-0.235747554,1,0,0,0.2274,Gabbro_rect,11,0,11,0,1,
65fafec03bcc45eef533814d,SCN,2024-06-11_18h41.33.614,LearnStrategy,2023.2.3,MacIntel,60.24096386,2,2,13,,,,,,,,2,08,,,,,,,,,,,4,1.826,0,,,,,,0.314181541,-0.26598928,1,0,0,1.8263,Gabbro_rect,12,0,12,0,1,
65fafec03bcc45eef533814d,SCN,2024-06-11_18h41.33.614,LearnStrategy,2023.2.3,MacIntel,60.24096386,2,2,14,,,,,,,,1,01,,,,,,,,,,,2,1.329,0,,,,,,-0.029870941,-0.244916346,1,0,0,1.3289,Basalt_rect,13,0,13,0,1,
65fafec03bcc45eef533814d,SCN,2024-06-11_18h41.33.614,LearnStrategy,2023.2.3,MacIntel,60.24096386,2,2,15,,,,,,,,8,06,,,,,,,,,,,3,0.576,0,,,,,,0.124847133,-0.258313385,1,0,0,0.5756,Diorite_rect,14,0,14,0,1,
65fafec03bcc45eef533814d,SCN,2024-06-11_18h41.33.614,LearnStrategy,2023.2.3,MacIntel,60.24096386,2,2,16,,,,,,,,3,09,,,,,,,,,,,7,0.36,0,,,,,,0.175345415,-0.389275213,1,0,0,0.3598,Peridotite_rect,15,0,15,0,1,
65fafec03bcc45eef533814d,SCN,2024-06-11_18h41.33.614,LearnStrategy,2023.2.3,MacIntel,60.24096386,3,1,1,-0.237211178,0.227521987,1,0,0,1.2652,Obsidian_02,5,02,5,3,1.265,-0.405671055,-0.378707848,1,0,0,1.2263,Obsidian_rect,5,1.226,1,0,0,0,0,1,,,,,,,,,,,,,
65fafec03bcc45eef533814d,SCN,2024-06-11_18h41.33.614,LearnStrategy,2023.2.3,MacIntel,60.24096386,3,1,2,-0.382923085,0.109563645,1,0,0,0.783,Gabbro_03,4,03,4,2,0.783,-0.102115425,-0.231294884,1,0,0,0.8747,Basalt_rect,2,0.875,0,1,0,1,0,1,,,,,,,,,,,,,
65fafec03bcc45eef533814d,SCN,2024-06-11_18h41.33.614,LearnStrategy,2023.2.3,MacIntel,60.24096386,3,1,3,-0.224705324,0.239439139,1,0,0,1.0487,Obsidian_02,5,02,5,3,1.049,-0.393594531,-0.398011423,1,0,0,0.9577,Obsidian_rect,5,0.958,1,2,0,2,0,1,,,,,,,,,,,,,
65fafec03bcc45eef533814d,SCN,2024-06-11_18h41.33.614,LearnStrategy,2023.2.3,MacIntel,60.24096386,3,1,4,0.070881687,0.25427053,1,0,0,0.8484,Basalt_10,2,10,5,5,0.848,0.164657707,-0.407668089,1,0,0,2.2084,Peridotite_rect,7,2.208,0,3,0,3,0,1,,,,,,,,,,,,,
65fafec03bcc45eef533814d,SCN,2024-06-11_18h41.33.614,LearnStrategy,2023.2.3,MacIntel,60.24096386,3,1,5,0.076092189,0.236674516,1,0,0,0.882,Basalt_10,2,10,5,5,0.882,-0.10621032,-0.258654897,1,0,0,0.8431,Basalt_rect,2,0.843,1,4,0,4,0,1,,,,,,,,,,,,,
65fafec03bcc45eef533814d,SCN,2024-06-11_18h41.33.614,LearnStrategy,2023.2.3,MacIntel,60.24096386,3,1,6,0.104880048,0.087436902,1,0,0,1.0475,Diorite_02,3,02,4,5,1.048,0.187402425,-0.230452488,1,0,0,0.759,Diorite_rect,3,0.759,1,5,0,5,0,1,,,,,,,,,,,,,
65fafec03bcc45eef533814d,SCN,2024-06-11_18h41.33.614,LearnStrategy,2023.2.3,MacIntel,60.24096386,3,1,7,-0.030771883,0.089033878,1,0,0,0.9996,Andesite_14,1,14,4,4,1,0.395454959,-0.38347601,1,0,0,1.0413,Pumice_rect,8,1.041,0,6,0,6,0,1,,,,,,,,,,,,,
65fafec03bcc45eef533814d,SCN,2024-06-11_18h41.33.614,LearnStrategy,2023.2.3,MacIntel,60.24096386,3,1,8,-0.056183649,-0.256407421,1,0,0,1.7158,Diorite_16,3,16,2,4,1.716,0.057884705,-0.270952592,1,0,0,0.7766,Diorite_rect,3,0.777,1,7,0,7,0,1,,,,,,,,,,,,,
65fafec03bcc45eef533814d,SCN,2024-06-11_18h41.33.614,LearnStrategy,2023.2.3,MacIntel,60.24096386,3,1,9,-0.222324495,-0.39488252,1,0,0,1.2981,Andesite_09,1,09,1,3,1.298,-0.024683207,-0.416680761,1,0,0,1.0926,Pegmatite_rect,6,1.093,0,8,0,8,0,1,,,,,,,,,,,,,
65fafec03bcc45eef533814d,SCN,2024-06-11_18h41.33.614,LearnStrategy,2023.2.3,MacIntel,60.24096386,3,1,10,0.089173735,-0.399806802,1,0,0,1.0979,Gabbro_01,4,01,1,5,1.098,0.365889753,-0.381322856,1,0,0,1.0917,Pumice_rect,8,1.092,0,9,0,9,0,1,,,,,,,,,,,,,
65fafec03bcc45eef533814d,SCN,2024-06-11_18h41.33.614,LearnStrategy,2023.2.3,MacIntel,60.24096386,3,1,11,0.408809716,-0.380633326,1,0,0,1.0649,Peridotite_12,7,12,1,7,1.065,0.151465576,-0.267895244,1,0,0,1.278,Diorite_rect,3,1.278,0,10,0,10,0,1,,,,,,,,,,,,,
65fafec03bcc45eef533814d,SCN,2024-06-11_18h41.33.614,LearnStrategy,2023.2.3,MacIntel,60.24096386,3,1,12,-0.213028856,0.267921264,1,0,0,2.9321,Obsidian_02,5,02,5,3,2.932,-0.42911506,-0.401917673,1,0,0,0.9584,Obsidian_rect,5,0.958,1,11,0,11,0,1,,,,,,,,,,,,,
65fafec03bcc45eef533814d,SCN,2024-06-11_18h41.33.614,LearnStrategy,2023.2.3,MacIntel,60.24096386,3,1,13,0.389564686,-0.125643995,1,0,0,1.3997,Peridotite_14,7,14,3,7,1.4,0.14037781,-0.255015352,1,0,0,1.0606,Diorite_rect,3,1.061,0,12,0,12,0,1,,,,,,,,,,,,,
65fafec03bcc45eef533814d,SCN,2024-06-11_18h41.33.614,LearnStrategy,2023.2.3,MacIntel,60.24096386,3,1,14,-0.053344218,-0.244451239,1,0,0,0.8809,Diorite_16,3,16,2,4,0.881,-0.050368183,-0.420759393,1,0,0,0.942,Pegmatite_rect,6,0.942,0,13,0,13,0,1,,,,,,,,,,,,,
65fafec03bcc45eef533814d,SCN,2024-06-11_18h41.33.614,LearnStrategy,2023.2.3,MacIntel,60.24096386,3,1,15,0.193757806,-0.382470988,1,0,0,1.083,Pegmatite_16,6,16,1,6,1.083,0.092556333,-0.407157447,1,0,0,0.7444,Peridotite_rect,7,0.744,0,14,0,14,0,1,,,,,,,,,,,,,
65fafec03bcc45eef533814d,SCN,2024-06-11_18h41.33.614,LearnStrategy,2023.2.3,MacIntel,60.24096386,3,1,16,0.511923657,-0.390745342,1,0,0,1.0989,Obsidian_04,5,04,1,8,1.099,0.199514727,-0.259874584,1,0,0,0.7589,Diorite_rect,3,0.759,0,15,0,15,0,1,,,,,,,,,,,,,
65fafec03bcc45eef533814d,SCN,2024-06-11_18h41.33.614,LearnStrategy,2023.2.3,MacIntel,60.24096386,3,2,1,,,,,,,,8,08,,,,,,,,,,,2,1.143,0,,,,,,-0.123328216,-0.25032525,1,0,0,1.1432,Basalt_rect,0,0,0,0,1,
65fafec03bcc45eef533814d,SCN,2024-06-11_18h41.33.614,LearnStrategy,2023.2.3,MacIntel,60.24096386,3,2,2,,,,,,,,7,08,,,,,,,,,,,6,5.343,0,,,,,,-0.11746071,-0.391103117,1,0,0,5.3427,Pegmatite_rect,1,0,1,0,1,
65fafec03bcc45eef533814d,SCN,2024-06-11_18h41.33.614,LearnStrategy,2023.2.3,MacIntel,60.24096386,3,2,3,,,,,,,,6,15,,,,,,,,,,,7,0.578,0,,,,,,0.160738447,-0.395949339,1,0,0,0.5781,Peridotite_rect,2,0,2,0,1,
65fafec03bcc45eef533814d,SCN,2024-06-11_18h41.33.614,LearnStrategy,2023.2.3,MacIntel,60.24096386,3,2,4,,,,,,,,6,13,,,,,,,,,,,8,0.411,0,,,,,,0.42585931,-0.392921264,1,0,0,0.4105,Pumice_rect,3,0,3,0,1,
65fafec03bcc45eef533814d,SCN,2024-06-11_18h41.33.614,LearnStrategy,2023.2.3,MacIntel,60.24096386,3,2,5,,,,,,,,2,01,,,,,,,,,,,4,0.293,0,,,,,,0.399728742,-0.228247294,1,0,0,0.293,Gabbro_rect,4,0,4,0,1,
65fafec03bcc45eef533814d,SCN,2024-06-11_18h41.33.614,LearnStrategy,2023.2.3,MacIntel,60.24096386,3,2,6,,,,,,,,4,14,,,,,,,,,,,3,0.178,0,,,,,,0.037722471,-0.243631609,1,0,0,0.1781,Diorite_rect,5,0,5,0,1,
65fafec03bcc45eef533814d,SCN,2024-06-11_18h41.33.614,LearnStrategy,2023.2.3,MacIntel,60.24096386,3,2,7,,,,,,,,5,09,,,,,,,,,,,2,0.178,0,,,,,,-0.151543636,-0.237399823,1,0,0,0.1776,Basalt_rect,6,0,6,0,1,
65fafec03bcc45eef533814d,SCN,2024-06-11_18h41.33.614,LearnStrategy,2023.2.3,MacIntel,60.24096386,3,2,8,,,,,,,,8,09,,,,,,,,,,,2,0.395,0,,,,,,-0.163421758,-0.238508925,1,0,0,0.3948,Basalt_rect,7,0,7,0,1,
65fafec03bcc45eef533814d,SCN,2024-06-11_18h41.33.614,LearnStrategy,2023.2.3,MacIntel,60.24096386,3,2,9,,,,,,,,3,13,,,,,,,,,,,6,0.811,0,,,,,,-0.133368677,-0.383121487,1,0,0,0.8106,Pegmatite_rect,8,0,8,0,1,
65fafec03bcc45eef533814d,SCN,2024-06-11_18h41.33.614,LearnStrategy,2023.2.3,MacIntel,60.24096386,3,2,10,,,,,,,,4,08,,,,,,,,,,,1,0.426,0,,,,,,-0.333302977,-0.260453528,1,0,0,0.4265,Andesite_rect,9,0,9,0,1,
65fafec03bcc45eef533814d,SCN,2024-06-11_18h41.33.614,LearnStrategy,2023.2.3,MacIntel,60.24096386,3,2,11,,,,,,,,1,16,,,,,,,,,,,7,0.295,0,,,,,,0.159274823,-0.407329829,1,0,0,0.2948,Peridotite_rect,10,0,10,0,1,
65fafec03bcc45eef533814d,SCN,2024-06-11_18h41.33.614,LearnStrategy,2023.2.3,MacIntel,60.24096386,3,2,12,,,,,,,,5,10,,,,,,,,,,,5,1.708,1,,,,,,-0.435050869,-0.403530912,1,0,0,1.7083,Obsidian_rect,11,0,11,0,1,
65fafec03bcc45eef533814d,SCN,2024-06-11_18h41.33.614,LearnStrategy,2023.2.3,MacIntel,60.24096386,3,2,13,,,,,,,,7,04,,,,,,,,,,,2,1.331,0,,,,,,-0.113577227,-0.262255412,1,0,0,1.331,Basalt_rect,12,0,12,0,1,
65fafec03bcc45eef533814d,SCN,2024-06-11_18h41.33.614,LearnStrategy,2023.2.3,MacIntel,60.24096386,3,2,14,,,,,,,,3,11,,,,,,,,,,,3,3.911,1,,,,,,0.130893526,-0.243680397,1,0,0,3.9111,Diorite_rect,13,0,13,0,1,
65fafec03bcc45eef533814d,SCN,2024-06-11_18h41.33.614,LearnStrategy,2023.2.3,MacIntel,60.24096386,3,2,15,,,,,,,,2,16,,,,,,,,,,,4,0.81,0,,,,,,0.342530313,-0.253434638,1,0,0,0.8104,Gabbro_rect,14,0,14,0,1,
65fafec03bcc45eef533814d,SCN,2024-06-11_18h41.33.614,LearnStrategy,2023.2.3,MacIntel,60.24096386,3,2,16,,,,,,,,1,02,,,,,,,,,,,7,3.926,0,,,,,,0.182673293,-0.393962063,1,0,0,3.9263,Peridotite_rect,15,0,15,0,1,
65fafec03bcc45eef533814d,SCN,2024-06-11_18h41.33.614,LearnStrategy,2023.2.3,MacIntel,60.24096386,4,1,1,-0.258606109,-0.096660986,1,0,0,1.8469,Basalt_11,2,11,3,3,1.847,-0.123146076,-0.255656094,1,0,0,2.8104,Basalt_rect,2,2.81,1,0,0,0,0,1,,,,,,,,,,,,,
65fafec03bcc45eef533814d,SCN,2024-06-11_18h41.33.614,LearnStrategy,2023.2.3,MacIntel,60.24096386,4,1,2,-0.512053757,-0.113297512,1,0,0,9.4825,Obsidian_16,5,16,3,1,9.483,-0.413024953,-0.401937188,1,0,0,1.0751,Obsidian_rect,5,1.075,1,1,0,1,0,1,,,,,,,,,,,,,
65fafec03bcc45eef533814d,SCN,2024-06-11_18h41.33.614,LearnStrategy,2023.2.3,MacIntel,60.24096386,4,1,3,0.201534529,-0.071730589,1,0,0,3.3158,Peridotite_16,7,16,3,6,3.316,0.140709565,-0.253766393,1,0,0,1.2267,Diorite_rect,3,1.227,0,2,0,2,0,1,,,,,,,,,,,,,
65fafec03bcc45eef533814d,SCN,2024-06-11_18h41.33.614,LearnStrategy,2023.2.3,MacIntel,60.24096386,4,1,4,0.033490971,-0.236547669,1,0,0,1.4977,Pegmatite_03,6,03,2,5,1.498,-0.091456989,-0.26585918,1,0,0,0.7583,Basalt_rect,2,0.758,0,3,0,3,0,1,,,,,,,,,,,,,
65fafec03bcc45eef533814d,SCN,2024-06-11_18h41.33.614,LearnStrategy,2023.2.3,MacIntel,60.24096386,4,1,5,0.251704309,-0.373920171,1,0,0,0.9653,Pegmatite_16,6,16,1,6,0.965,0.10115919,-0.238678055,1,0,0,0.7758,Diorite_rect,3,0.776,0,4,0,4,0,1,,,,,,,,,,,,,
65fafec03bcc45eef533814d,SCN,2024-06-11_18h41.33.614,LearnStrategy,2023.2.3,MacIntel,60.24096386,4,1,6,0.417620733,-0.243192522,1,0,0,0.7487,Gabbro_09,4,09,2,7,0.749,0.125952982,-0.239868469,1,0,0,0.6414,Diorite_rect,3,0.641,0,5,0,5,0,1,,,,,,,,,,,,,
65fafec03bcc45eef533814d,SCN,2024-06-11_18h41.33.614,LearnStrategy,2023.2.3,MacIntel,60.24096386,4,1,7,0.203053445,-0.425654403,1,0,0,1.3971,Pegmatite_16,6,16,1,6,1.397,0.157632312,-0.404067574,1,0,0,0.9431,Peridotite_rect,7,0.943,0,6,0,6,0,1,,,,,,,,,,,,,
65fafec03bcc45eef533814d,SCN,2024-06-11_18h41.33.614,LearnStrategy,2023.2.3,MacIntel,60.24096386,4,1,8,0.517680579,-0.394554017,1,0,0,1.2984,Obsidian_04,5,04,1,8,1.298,-0.434224735,-0.385313671,1,0,0,1.8923,Obsidian_rect,5,1.892,1,7,0,7,0,1,,,,,,,,,,,,,
65fafec03bcc45eef533814d,SCN,2024-06-11_18h41.33.614,LearnStrategy,2023.2.3,MacIntel,60.24096386,4,1,9,0.217214821,0.268090393,1,0,0,1.5307,Basalt_14,2,14,5,6,1.531,-0.103146466,-0.234605927,1,0,0,1.126,Basalt_rect,2,1.126,1,8,0,8,0,1,,,,,,,,,,,,,
65fafec03bcc45eef533814d,SCN,2024-06-11_18h41.33.614,LearnStrategy,2023.2.3,MacIntel,60.24096386,4,1,10,0.275141809,0.125419572,1,0,0,1.3812,Gabbro_05,4,05,4,6,1.381,0.083153362,-0.244916346,1,0,0,0.8756,Diorite_rect,3,0.876,0,9,0,9,0,1,,,,,,,,,,,,,
65fafec03bcc45eef533814d,SCN,2024-06-11_18h41.33.614,LearnStrategy,2023.2.3,MacIntel,60.24096386,4,1,11,-0.108887125,-0.112351036,1,0,0,0.699,Pumice_10,8,10,3,4,0.699,-0.1167972,-0.239130152,1,0,0,0.8089,Basalt_rect,2,0.809,0,10,0,10,0,1,,,,,,,,,,,,,
65fafec03bcc45eef533814d,SCN,2024-06-11_18h41.33.614,LearnStrategy,2023.2.3,MacIntel,60.24096386,4,1,12,-0.054411038,-0.234827097,1,0,0,2.3489,Diorite_16,3,16,2,4,2.349,-0.074800947,-0.250959487,1,0,0,1.0927,Basalt_rect,2,1.093,0,11,0,11,0,1,,,,,,,,,,,,,
65fafec03bcc45eef533814d,SCN,2024-06-11_18h41.33.614,LearnStrategy,2023.2.3,MacIntel,60.24096386,4,1,13,0.383560575,-0.05927027,1,0,0,0.9987,Peridotite_14,7,14,3,7,0.999,0.085983035,-0.252868703,1,0,0,1.3428,Diorite_rect,3,1.343,0,12,0,12,0,1,,,,,,,,,,,,,
65fafec03bcc45eef533814d,SCN,2024-06-11_18h41.33.614,LearnStrategy,2023.2.3,MacIntel,60.24096386,4,1,14,-0.397383691,0.264216668,1,0,0,6.1661,Pumice_05,8,05,5,2,6.166,-0.38674477,-0.378431385,1,0,0,1.1571,Obsidian_rect,5,1.157,0,13,0,13,0,1,,,,,,,,,,,,,
65fafec03bcc45eef533814d,SCN,2024-06-11_18h41.33.614,LearnStrategy,2023.2.3,MacIntel,60.24096386,4,1,15,0.056843906,0.080287911,1,0,0,0.7141,Diorite_02,3,02,4,5,0.714,0.068991986,-0.237315258,1,0,0,0.8777,Diorite_rect,3,0.878,1,14,0,14,0,1,,,,,,,,,,,,,
65fafec03bcc45eef533814d,SCN,2024-06-11_18h41.33.614,LearnStrategy,2023.2.3,MacIntel,60.24096386,4,1,16,-0.059273522,-0.257906822,1,0,0,1.8484,Diorite_16,3,16,2,4,1.848,-0.049285101,-0.406841955,1,0,0,0.9748,Pegmatite_rect,6,0.975,0,15,0,15,0,1,,,,,,,,,,,,,
65fafec03bcc45eef533814d,SCN,2024-06-11_18h41.33.614,LearnStrategy,2023.2.3,MacIntel,60.24096386,4,2,1,,,,,,,,3,15,,,,,,,,,,,3,0.957,1,,,,,,0.141851192,-0.240379111,1,0,0,0.9575,Diorite_rect,0,0,0,0,1,
65fafec03bcc45eef533814d,SCN,2024-06-11_18h41.33.614,LearnStrategy,2023.2.3,MacIntel,60.24096386,4,2,2,,,,,,,,8,02,,,,,,,,,,,4,7.376,0,,,,,,0.416072544,-0.254930787,1,0,0,7.3758,Gabbro_rect,1,0,1,0,1,
65fafec03bcc45eef533814d,SCN,2024-06-11_18h41.33.614,LearnStrategy,2023.2.3,MacIntel,60.24096386,4,2,3,,,,,,,,2,12,,,,,,,,,,,2,6.178,1,,,,,,-0.135980433,-0.254338832,1,0,0,6.1783,Basalt_rect,2,0,2,0,1,
65fafec03bcc45eef533814d,SCN,2024-06-11_18h41.33.614,LearnStrategy,2023.2.3,MacIntel,60.24096386,4,2,4,,,,,,,,6,09,,,,,,,,,,,5,2.142,0,,,,,,-0.365427899,-0.416101816,1,0,0,2.1424,Obsidian_rect,3,0,3,0,1,
65fafec03bcc45eef533814d,SCN,2024-06-11_18h41.33.614,LearnStrategy,2023.2.3,MacIntel,60.24096386,4,2,5,,,,,,,,7,06,,,,,,,,,,,3,0.392,0,,,,,,0.094559872,-0.246845077,1,0,0,0.3923,Diorite_rect,4,0,4,0,1,
65fafec03bcc45eef533814d,SCN,2024-06-11_18h41.33.614,LearnStrategy,2023.2.3,MacIntel,60.24096386,4,2,6,,,,,,,,6,06,,,,,,,,,,,4,0.343,0,,,,,,0.313039915,-0.238014545,1,0,0,0.3432,Gabbro_rect,5,0,5,0,1,
65fafec03bcc45eef533814d,SCN,2024-06-11_18h41.33.614,LearnStrategy,2023.2.3,MacIntel,60.24096386,4,2,7,,,,,,,,3,13,,,,,,,,,,,7,0.81,0,,,,,,0.109758795,-0.408123439,1,0,0,0.8099,Peridotite_rect,6,0,6,0,1,
65fafec03bcc45eef533814d,SCN,2024-06-11_18h41.33.614,LearnStrategy,2023.2.3,MacIntel,60.24096386,4,2,8,,,,,,,,1,04,,,,,,,,,,,3,1.043,0,,,,,,0.107322674,-0.257454725,1,0,0,1.0433,Diorite_rect,7,0,7,0,1,
65fafec03bcc45eef533814d,SCN,2024-06-11_18h41.33.614,LearnStrategy,2023.2.3,MacIntel,60.24096386,4,2,9,,,,,,,,4,08,,,,,,,,,,,2,0.411,0,,,,,,-0.095821841,-0.235526384,1,0,0,0.4108,Basalt_rect,8,0,8,0,1,
65fafec03bcc45eef533814d,SCN,2024-06-11_18h41.33.614,LearnStrategy,2023.2.3,MacIntel,60.24096386,4,2,10,,,,,,,,5,06,,,,,,,,,,,5,1.859,1,,,,,,-0.377741856,-0.398444005,1,0,0,1.859,Obsidian_rect,9,0,9,0,1,
65fafec03bcc45eef533814d,SCN,2024-06-11_18h41.33.614,LearnStrategy,2023.2.3,MacIntel,60.24096386,4,2,11,,,,,,,,1,06,,,,,,,,,,,7,0.893,0,,,,,,0.139925713,-0.389457353,1,0,0,0.8931,Peridotite_rect,10,0,10,0,1,
65fafec03bcc45eef533814d,SCN,2024-06-11_18h41.33.614,LearnStrategy,2023.2.3,MacIntel,60.24096386,4,2,12,,,,,,,,7,02,,,,,,,,,,,4,0.944,0,,,,,,0.399901124,-0.242571295,1,0,0,0.9436,Gabbro_rect,11,0,11,0,1,
65fafec03bcc45eef533814d,SCN,2024-06-11_18h41.33.614,LearnStrategy,2023.2.3,MacIntel,60.24096386,4,2,13,,,,,,,,5,09,,,,,,,,,,,5,1.376,1,,,,,,-0.392979808,-0.404844921,1,0,0,1.3757,Obsidian_rect,12,0,12,0,1,
65fafec03bcc45eef533814d,SCN,2024-06-11_18h41.33.614,LearnStrategy,2023.2.3,MacIntel,60.24096386,4,2,14,,,,,,,,4,13,,,,,,,,,,,2,0.925,0,,,,,,-0.144430423,-0.237494146,1,0,0,0.9248,Basalt_rect,13,0,13,0,1,
65fafec03bcc45eef533814d,SCN,2024-06-11_18h41.33.614,LearnStrategy,2023.2.3,MacIntel,60.24096386,4,2,15,,,,,,,,8,03,,,,,,,,,,,3,0.544,0,,,,,,0.071678549,-0.248334721,1,0,0,0.5443,Diorite_rect,14,0,14,0,1,
65fafec03bcc45eef533814d,SCN,2024-06-11_18h41.33.614,LearnStrategy,2023.2.3,MacIntel,60.24096386,4,2,16,,,,,,,,2,04,,,,,,,,,,,3,0.361,0,,,,,,0.071678549,-0.248334721,1,0,0,0.3609,Diorite_rect,15,0,15,0,1,
65fafec03bcc45eef533814d,SCN,2024-06-11_18h41.33.614,LearnStrategy,2023.2.3,MacIntel,60.24096386,5,1,1,0.073538978,0.214606318,1,0,0,2.0311,Basalt_10,2,10,5,5,2.031,-0.155485663,-0.262326967,1,0,0,1.8594,Basalt_rect,2,1.859,1,0,0,0,0,1,,,,,,,,,,,,,
65fafec03bcc45eef533814d,SCN,2024-06-11_18h41.33.614,LearnStrategy,2023.2.3,MacIntel,60.24096386,5,1,2,0.055838884,0.240418141,1,0,0,1.4318,Basalt_10,2,10,5,5,1.432,-0.142449651,-0.234365243,1,0,0,0.8598,Basalt_rect,2,0.86,1,1,0,1,0,1,,,,,,,,,,,,,
65fafec03bcc45eef533814d,SCN,2024-06-11_18h41.33.614,LearnStrategy,2023.2.3,MacIntel,60.24096386,5,1,3,-0.596784581,-0.100173683,1,0,0,0.9653,Obsidian_16,5,16,3,1,0.965,-0.401111053,-0.416436823,1,0,0,1.374,Obsidian_rect,5,1.374,1,2,0,2,0,1,,,,,,,,,,,,,
65fafec03bcc45eef533814d,SCN,2024-06-11_18h41.33.614,LearnStrategy,2023.2.3,MacIntel,60.24096386,5,1,4,0.071112614,0.230826525,1,0,0,1.3156,Basalt_10,2,10,5,5,1.316,-0.102469947,-0.252000286,1,0,0,0.9083,Basalt_rect,2,0.908,1,3,0,3,0,1,,,,,,,,,,,,,
65fafec03bcc45eef533814d,SCN,2024-06-11_18h41.33.614,LearnStrategy,2023.2.3,MacIntel,60.24096386,5,1,5,-0.069193641,-0.251044052,1,0,0,2.3323,Diorite_16,3,16,2,4,2.332,0.128467163,-0.398447257,1,0,0,1.2579,Peridotite_rect,7,1.258,0,4,0,4,0,1,,,,,,,,,,,,,
65fafec03bcc45eef533814d,SCN,2024-06-11_18h41.33.614,LearnStrategy,2023.2.3,MacIntel,60.24096386,5,1,6,-0.079526827,-0.279522924,1,0,0,1.0322,Diorite_16,3,16,2,4,1.032,0.0902991,-0.240954803,1,0,0,0.692,Diorite_rect,3,0.692,1,5,0,5,0,1,,,,,,,,,,,,,
65fafec03bcc45eef533814d,SCN,2024-06-11_18h41.33.614,LearnStrategy,2023.2.3,MacIntel,60.24096386,5,1,7,-0.05406302,-0.236355771,1,0,0,0.8999,Diorite_16,3,16,2,4,0.9,0.095730771,-0.26167972,1,0,0,0.7915,Diorite_rect,3,0.791,1,6,0,6,0,1,,,,,,,,,,,,,
65fafec03bcc45eef533814d,SCN,2024-06-11_18h41.33.614,LearnStrategy,2023.2.3,MacIntel,60.24096386,5,1,8,0.070263713,0.218509315,1,0,0,1.6313,Basalt_10,2,10,5,5,1.631,-0.093239358,-0.235084045,1,0,0,1.0584,Basalt_rect,2,1.058,1,7,0,7,0,1,,,,,,,,,,,,,
65fafec03bcc45eef533814d,SCN,2024-06-11_18h41.33.614,LearnStrategy,2023.2.3,MacIntel,60.24096386,5,1,9,-0.564780001,-0.106763244,1,0,0,0.8997,Obsidian_16,5,16,3,1,0.9,-0.360347497,-0.393422148,1,0,0,1.3603,Obsidian_rect,5,1.36,1,8,0,8,0,1,,,,,,,,,,,,,
65fafec03bcc45eef533814d,SCN,2024-06-11_18h41.33.614,LearnStrategy,2023.2.3,MacIntel,60.24096386,5,1,10,-0.059501197,-0.235955714,1,0,0,2.2481,Diorite_16,3,16,2,4,2.248,0.147087713,-0.256407421,1,0,0,0.657,Diorite_rect,3,0.657,1,9,0,9,0,1,,,,,,,,,,,,,
65fafec03bcc45eef533814d,SCN,2024-06-11_18h41.33.614,LearnStrategy,2023.2.3,MacIntel,60.24096386,5,1,11,0.076970363,0.228130204,1,0,0,0.9989,Basalt_10,2,10,5,5,0.999,-0.098349032,-0.23790396,1,0,0,0.8088,Basalt_rect,2,0.809,1,10,0,10,0,1,,,,,,,,,,,,,
65fafec03bcc45eef533814d,SCN,2024-06-11_18h41.33.614,LearnStrategy,2023.2.3,MacIntel,60.24096386,5,1,12,-0.279620499,-0.288460788,1,0,0,1.1479,Pegmatite_10,6,10,2,3,1.148,0.301704959,-0.408035621,1,0,0,1.1257,Pumice_rect,8,1.126,0,11,0,11,0,1,,,,,,,,,,,,,
65fafec03bcc45eef533814d,SCN,2024-06-11_18h41.33.614,LearnStrategy,2023.2.3,MacIntel,60.24096386,5,1,13,-0.244226816,-0.273274875,1,0,0,1.2979,Pegmatite_10,6,10,2,3,1.298,-0.102300817,-0.398860325,1,0,0,1.7608,Pegmatite_rect,6,1.761,1,12,0,12,0,1,,,,,,,,,,,,,
65fafec03bcc45eef533814d,SCN,2024-06-11_18h41.33.614,LearnStrategy,2023.2.3,MacIntel,60.24096386,5,1,14,0.244893578,0.367545275,1,0,0,1.4484,Pumice_16,8,16,6,6,1.448,-0.327240321,-0.403140612,1,0,0,1.8751,Obsidian_rect,5,1.875,0,13,0,13,0,1,,,,,,,,,,,,,
65fafec03bcc45eef533814d,SCN,2024-06-11_18h41.33.614,LearnStrategy,2023.2.3,MacIntel,60.24096386,5,1,15,0.18782525,0.415337479,1,0,0,0.831,Pumice_16,8,16,6,6,0.831,0.356333914,-0.405892225,1,0,0,1.2427,Pumice_rect,8,1.243,1,14,0,14,0,1,,,,,,,,,,,,,
65fafec03bcc45eef533814d,SCN,2024-06-11_18h41.33.614,LearnStrategy,2023.2.3,MacIntel,60.24096386,5,1,16,0.443081286,0.099532941,1,0,0,0.982,Andesite_05,1,05,4,7,0.982,-0.17236938,-0.380177977,1,0,0,2.2586,Pegmatite_rect,6,2.259,0,15,0,15,0,1,,,,,,,,,,,,,
65fafec03bcc45eef533814d,SCN,2024-06-11_18h41.33.614,LearnStrategy,2023.2.3,MacIntel,60.24096386,5,2,1,,,,,,,,5,10,,,,,,,,,,,5,1.96,1,,,,,,-0.367242792,-0.407931541,1,0,0,1.9601,Obsidian_rect,0,0,0,0,1,
65fafec03bcc45eef533814d,SCN,2024-06-11_18h41.33.614,LearnStrategy,2023.2.3,MacIntel,60.24096386,5,2,2,,,,,,,,1,02,,,,,,,,,,,2,1.093,0,,,,,,-0.148336673,-0.243768214,1,0,0,1.0935,Basalt_rect,1,0,1,0,1,
65fafec03bcc45eef533814d,SCN,2024-06-11_18h41.33.614,LearnStrategy,2023.2.3,MacIntel,60.24096386,5,2,3,,,,,,,,3,08,,,,,,,,,,,3,1.21,1,,,,,,0.100671316,-0.228527009,1,0,0,1.2099,Diorite_rect,2,0,2,0,1,
65fafec03bcc45eef533814d,SCN,2024-06-11_18h41.33.614,LearnStrategy,2023.2.3,MacIntel,60.24096386,5,2,4,,,,,,,,6,13,,,,,,,,,,,4,2.276,0,,,,,,0.398730225,-0.260661688,1,0,0,2.276,Gabbro_rect,3,0,3,0,1,
65fafec03bcc45eef533814d,SCN,2024-06-11_18h41.33.614,LearnStrategy,2023.2.3,MacIntel,60.24096386,5,2,5,,,,,,,,6,12,,,,,,,,,,,6,0.726,1,,,,,,-0.11674516,-0.400551624,1,0,0,0.7262,Pegmatite_rect,4,0,4,0,1,
65fafec03bcc45eef533814d,SCN,2024-06-11_18h41.33.614,LearnStrategy,2023.2.3,MacIntel,60.24096386,5,2,6,,,,,,,,2,16,,,,,,,,,,,2,1.876,1,,,,,,-0.151237901,-0.262001717,1,0,0,1.8763,Basalt_rect,5,0,5,0,1,
65fafec03bcc45eef533814d,SCN,2024-06-11_18h41.33.614,LearnStrategy,2023.2.3,MacIntel,60.24096386,5,2,7,,,,,,,,5,14,,,,,,,,,,,5,11.876,1,,,,,,-0.41376327,-0.404831911,1,0,0,11.8756,Obsidian_rect,6,0,6,0,1,
65fafec03bcc45eef533814d,SCN,2024-06-11_18h41.33.614,LearnStrategy,2023.2.3,MacIntel,60.24096386,5,2,8,,,,,,,,7,07,,,,,,,,,,,3,11.058,0,,,,,,0.124840628,-0.259139519,1,0,0,11.058,Diorite_rect,7,0,7,0,1,
65fafec03bcc45eef533814d,SCN,2024-06-11_18h41.33.614,LearnStrategy,2023.2.3,MacIntel,60.24096386,5,2,9,,,,,,,,8,09,,,,,,,,,,,4,0.709,0,,,,,,0.376125364,-0.243026644,1,0,0,0.7092,Gabbro_rect,8,0,8,0,1,
65fafec03bcc45eef533814d,SCN,2024-06-11_18h41.33.614,LearnStrategy,2023.2.3,MacIntel,60.24096386,5,2,10,,,,,,,,8,06,,,,,,,,,,,7,1.009,0,,,,,,0.147214561,-0.389509393,1,0,0,1.0088,Peridotite_rect,9,0,9,0,1,
65fafec03bcc45eef533814d,SCN,2024-06-11_18h41.33.614,LearnStrategy,2023.2.3,MacIntel,60.24096386,5,2,11,,,,,,,,4,16,,,,,,,,,,,3,0.625,0,,,,,,0.126772611,-0.246799542,1,0,0,0.6252,Diorite_rect,10,0,10,0,1,
65fafec03bcc45eef533814d,SCN,2024-06-11_18h41.33.614,LearnStrategy,2023.2.3,MacIntel,60.24096386,5,2,12,,,,,,,,2,01,,,,,,,,,,,3,3.394,0,,,,,,0.076105199,-0.243114462,1,0,0,3.3939,Diorite_rect,11,0,11,0,1,
65fafec03bcc45eef533814d,SCN,2024-06-11_18h41.33.614,LearnStrategy,2023.2.3,MacIntel,60.24096386,5,2,13,,,,,,,,4,10,,,,,,,,,,,3,0.609,0,,,,,,0.183707587,-0.244418714,1,0,0,0.6094,Diorite_rect,12,0,12,0,1,
65fafec03bcc45eef533814d,SCN,2024-06-11_18h41.33.614,LearnStrategy,2023.2.3,MacIntel,60.24096386,5,2,14,,,,,,,,3,06,,,,,,,,,,,8,0.676,0,,,,,,0.334311251,-0.388985741,1,0,0,0.6757,Pumice_rect,13,0,13,0,1,
65fafec03bcc45eef533814d,SCN,2024-06-11_18h41.33.614,LearnStrategy,2023.2.3,MacIntel,60.24096386,5,2,15,,,,,,,,1,16,,,,,,,,,,,3,0.927,0,,,,,,0.114191949,-0.256355381,1,0,0,0.9267,Diorite_rect,14,0,14,0,1,
65fafec03bcc45eef533814d,SCN,2024-06-11_18h41.33.614,LearnStrategy,2023.2.3,MacIntel,60.24096386,5,2,16,,,,,,,,7,05,,,,,,,,,,,3,4.158,0,,,,,,0.114191949,-0.256355381,1,0,0,4.1577,Diorite_rect,15,0,15,0,1,
65fafec03bcc45eef533814d,SCN,2024-06-11_18h41.33.614,LearnStrategy,2023.2.3,MacIntel,60.24096386,6,1,1,-0.100072856,0.134022429,1,0,0,0.6978,Andesite_14,1,14,4,4,0.698,0.319863655,-0.40164121,1,0,0,2.7408,Pumice_rect,8,2.741,0,0,0,0,0,1,,,,,,,,,,,,,
65fafec03bcc45eef533814d,SCN,2024-06-11_18h41.33.614,LearnStrategy,2023.2.3,MacIntel,60.24096386,6,1,2,-0.225651801,0.212866231,1,0,0,1.7323,Obsidian_02,5,02,5,3,1.732,-0.392319551,-0.407723382,1,0,0,1.6084,Obsidian_rect,5,1.608,1,1,0,1,0,1,,,,,,,,,,,,,
65fafec03bcc45eef533814d,SCN,2024-06-11_18h41.33.614,LearnStrategy,2023.2.3,MacIntel,60.24096386,6,1,3,0.052592891,0.281425635,1,0,0,0.9992,Basalt_10,2,10,5,5,0.999,-0.088415903,-0.25734414,1,0,0,1.4752,Basalt_rect,2,1.475,1,2,0,2,0,1,,,,,,,,,,,,,
65fafec03bcc45eef533814d,SCN,2024-06-11_18h41.33.614,LearnStrategy,2023.2.3,MacIntel,60.24096386,6,1,4,0.097012255,0.0779949,1,0,0,1.6984,Diorite_02,3,02,4,5,1.698,0.110350749,-0.247280912,1,0,0,1.0254,Diorite_rect,3,1.025,1,3,0,3,0,1,,,,,,,,,,,,,
65fafec03bcc45eef533814d,SCN,2024-06-11_18h41.33.614,LearnStrategy,2023.2.3,MacIntel,60.24096386,6,1,5,-0.211266002,-0.245771753,1,0,0,1.4645,Pegmatite_10,6,10,2,3,1.464,0.358688723,-0.403469114,1,0,0,3.8603,Pumice_rect,8,3.86,0,4,0,4,0,1,,,,,,,,,,,,,
65fafec03bcc45eef533814d,SCN,2024-06-11_18h41.33.614,LearnStrategy,2023.2.3,MacIntel,60.24096386,6,1,6,-0.381911558,0.1020829,1,0,0,9.1327,Gabbro_03,4,03,4,2,9.133,-0.397429226,-0.236876171,1,0,0,0.8739,Andesite_rect,1,0.874,0,5,0,5,0,1,,,,,,,,,,,,,
65fafec03bcc45eef533814d,SCN,2024-06-11_18h41.33.614,LearnStrategy,2023.2.3,MacIntel,60.24096386,6,1,7,0.074875755,0.293642017,1,0,0,1.198,Basalt_10,2,10,5,5,1.198,-0.080749766,-0.255548761,1,0,0,2.3581,Basalt_rect,2,2.358,1,6,0,6,0,1,,,,,,,,,,,,,
65fafec03bcc45eef533814d,SCN,2024-06-11_18h41.33.614,LearnStrategy,2023.2.3,MacIntel,60.24096386,6,1,8,0.09390612,0.451176754,1,0,0,1.1158,Peridotite_15,7,15,6,5,1.116,0.301932634,-0.385151046,1,0,0,1.5606,Pumice_rect,8,1.561,0,7,0,7,0,1,,,,,,,,,,,,,
65fafec03bcc45eef533814d,SCN,2024-06-11_18h41.33.614,LearnStrategy,2023.2.3,MacIntel,60.24096386,6,1,9,-0.273027685,0.427612406,1,0,0,1.0484,Gabbro_15,4,15,6,3,1.048,0.161027919,-0.246965419,1,0,0,2.6255,Diorite_rect,3,2.625,0,8,0,8,0,1,,,,,,,,,,,,,
65fafec03bcc45eef533814d,SCN,2024-06-11_18h41.33.614,LearnStrategy,2023.2.3,MacIntel,60.24096386,6,1,10,-0.220639701,0.377198689,1,0,0,1.3309,Gabbro_15,4,15,6,3,1.331,-0.093011683,-0.404155391,1,0,0,1.9256,Pegmatite_rect,6,1.926,0,9,0,9,0,1,,,,,,,,,,,,,
65fafec03bcc45eef533814d,SCN,2024-06-11_18h41.33.614,LearnStrategy,2023.2.3,MacIntel,60.24096386,6,1,11,0.097900187,-0.224513426,1,0,0,1.5821,Pegmatite_03,6,03,2,5,1.582,0.345945436,-0.384926624,1,0,0,2.1247,Pumice_rect,8,2.125,0,10,0,10,0,1,,,,,,,,,,,,,
65fafec03bcc45eef533814d,SCN,2024-06-11_18h41.33.614,LearnStrategy,2023.2.3,MacIntel,60.24096386,6,1,12,0.420430891,0.106938879,1,0,0,1.2819,Andesite_05,1,05,4,7,1.282,0.149810054,-0.263536896,1,0,0,0.861,Diorite_rect,3,0.861,0,11,0,11,0,1,,,,,,,,,,,,,
65fafec03bcc45eef533814d,SCN,2024-06-11_18h41.33.614,LearnStrategy,2023.2.3,MacIntel,60.24096386,6,1,13,0.085039811,-0.080635928,1,0,0,0.9482,Obsidian_07,5,07,3,5,0.948,-0.403674022,-0.407830714,1,0,0,1.5598,Obsidian_rect,5,1.56,1,12,0,12,0,1,,,,,,,,,,,,,
65fafec03bcc45eef533814d,SCN,2024-06-11_18h41.33.614,LearnStrategy,2023.2.3,MacIntel,60.24096386,6,1,14,0.112523418,-0.440654923,1,0,0,0.7815,Gabbro_01,4,01,1,5,0.781,0.1371741,-0.394554017,1,0,0,0.6758,Peridotite_rect,7,0.676,0,13,0,13,0,1,,,,,,,,,,,,,
65fafec03bcc45eef533814d,SCN,2024-06-11_18h41.33.614,LearnStrategy,2023.2.3,MacIntel,60.24096386,6,1,15,0.554602935,0.380955324,1,0,0,1.3973,Gabbro_11,4,11,6,8,1.397,0.10990841,-0.255678861,1,0,0,1.1602,Diorite_rect,3,1.16,0,14,0,14,0,1,,,,,,,,,,,,,
65fafec03bcc45eef533814d,SCN,2024-06-11_18h41.33.614,LearnStrategy,2023.2.3,MacIntel,60.24096386,6,1,16,0.122160569,-0.248663223,1,0,0,1.2987,Pegmatite_03,6,03,2,5,1.299,0.120544078,-0.414921159,1,0,0,0.7421,Peridotite_rect,7,0.742,0,15,0,15,0,1,,,,,,,,,,,,,
65fafec03bcc45eef533814d,SCN,2024-06-11_18h41.33.614,LearnStrategy,2023.2.3,MacIntel,60.24096386,6,2,1,,,,,,,,2,09,,,,,,,,,,,2,0.991,1,,,,,,-0.124593438,-0.271339639,1,0,0,0.9915,Basalt_rect,0,0,0,0,1,
65fafec03bcc45eef533814d,SCN,2024-06-11_18h41.33.614,LearnStrategy,2023.2.3,MacIntel,60.24096386,6,2,2,,,,,,,,4,14,,,,,,,,,,,1,0.609,0,,,,,,-0.327110221,-0.265595728,1,0,0,0.6087,Andesite_rect,1,0,1,0,1,
65fafec03bcc45eef533814d,SCN,2024-06-11_18h41.33.614,LearnStrategy,2023.2.3,MacIntel,60.24096386,6,2,3,,,,,,,,2,08,,,,,,,,,,,6,0.56,0,,,,,,-0.087388114,-0.398990425,1,0,0,0.5603,Pegmatite_rect,2,0,2,0,1,
65fafec03bcc45eef533814d,SCN,2024-06-11_18h41.33.614,LearnStrategy,2023.2.3,MacIntel,60.24096386,6,2,4,,,,,,,,6,07,,,,,,,,,,,7,0.193,0,,,,,,0.090432452,-0.395350879,1,0,0,0.1933,Peridotite_rect,3,0,3,0,1,
65fafec03bcc45eef533814d,SCN,2024-06-11_18h41.33.614,LearnStrategy,2023.2.3,MacIntel,60.24096386,6,2,5,,,,,,,,3,09,,,,,,,,,,,3,0.277,1,,,,,,0.121422252,-0.232651176,1,0,0,0.2767,Diorite_rect,4,0,4,0,1,
65fafec03bcc45eef533814d,SCN,2024-06-11_18h41.33.614,LearnStrategy,2023.2.3,MacIntel,60.24096386,6,2,6,,,,,,,,4,12,,,,,,,,,,,4,0.159,1,,,,,,0.310398886,-0.2468093,1,0,0,0.1589,Gabbro_rect,5,0,5,0,1,
65fafec03bcc45eef533814d,SCN,2024-06-11_18h41.33.614,LearnStrategy,2023.2.3,MacIntel,60.24096386,6,2,7,,,,,,,,7,08,,,,,,,,,,,8,0.31,0,,,,,,0.359017225,-0.38605524,1,0,0,0.3097,Pumice_rect,6,0,6,0,1,
65fafec03bcc45eef533814d,SCN,2024-06-11_18h41.33.614,LearnStrategy,2023.2.3,MacIntel,60.24096386,6,2,8,,,,,,,,5,12,,,,,,,,,,,3,0.245,0,,,,,,0.159151228,-0.238199938,1,0,0,0.2446,Diorite_rect,7,0,7,0,1,
65fafec03bcc45eef533814d,SCN,2024-06-11_18h41.33.614,LearnStrategy,2023.2.3,MacIntel,60.24096386,6,2,9,,,,,,,,1,01,,,,,,,,,,,3,1.411,0,,,,,,0.062779715,-0.239517199,1,0,0,1.411,Diorite_rect,8,0,8,0,1,
65fafec03bcc45eef533814d,SCN,2024-06-11_18h41.33.614,LearnStrategy,2023.2.3,MacIntel,60.24096386,6,2,10,,,,,,,,7,04,,,,,,,,,,,6,0.526,0,,,,,,-0.111515144,-0.387063515,1,0,0,0.5264,Pegmatite_rect,9,0,9,0,1,
65fafec03bcc45eef533814d,SCN,2024-06-11_18h41.33.614,LearnStrategy,2023.2.3,MacIntel,60.24096386,6,2,11,,,,,,,,3,11,,,,,,,,,,,7,0.279,0,,,,,,0.055988499,-0.38265638,1,0,0,0.2786,Peridotite_rect,10,0,10,0,1,
65fafec03bcc45eef533814d,SCN,2024-06-11_18h41.33.614,LearnStrategy,2023.2.3,MacIntel,60.24096386,6,2,12,,,,,,,,1,03,,,,,,,,,,,3,0.944,0,,,,,,0.056411324,-0.228553029,1,0,0,0.9441,Diorite_rect,11,0,11,0,1,
65fafec03bcc45eef533814d,SCN,2024-06-11_18h41.33.614,LearnStrategy,2023.2.3,MacIntel,60.24096386,6,2,13,,,,,,,,8,08,,,,,,,,,,,2,0.143,0,,,,,,-0.068439061,-0.23494744,1,0,0,0.1433,Basalt_rect,12,0,12,0,1,
65fafec03bcc45eef533814d,SCN,2024-06-11_18h41.33.614,LearnStrategy,2023.2.3,MacIntel,60.24096386,6,2,14,,,,,,,,6,15,,,,,,,,,,,2,0.944,0,,,,,,-0.166664498,-0.244138999,1,0,0,0.9438,Basalt_rect,13,0,13,0,1,
65fafec03bcc45eef533814d,SCN,2024-06-11_18h41.33.614,LearnStrategy,2023.2.3,MacIntel,60.24096386,6,2,15,,,,,,,,8,14,,,,,,,,,,,3,0.459,0,,,,,,0.076053159,-0.261455298,1,0,0,0.4589,Diorite_rect,14,0,14,0,1,
65fafec03bcc45eef533814d,SCN,2024-06-11_18h41.33.614,LearnStrategy,2023.2.3,MacIntel,60.24096386,6,2,16,,,,,,,,5,08,,,,,,,,,,,5,1.193,1,,,,,,-0.354340133,-0.412881843,1,0,0,1.1931,Obsidian_rect,15,0,15,0,1,
65fafec03bcc45eef533814d,SCN,2024-06-11_18h41.33.614,LearnStrategy,2023.2.3,MacIntel,60.24096386,7,1,1,-0.060408644,-0.108516341,1,0,0,1.2982,Pumice_10,8,10,3,4,1.298,-0.164651202,-0.384477779,1,0,0,5.4421,Pegmatite_rect,6,5.442,0,0,0,0,0,1,,,,,,,,,,,,,
65fafec03bcc45eef533814d,SCN,2024-06-11_18h41.33.614,LearnStrategy,2023.2.3,MacIntel,60.24096386,7,1,2,0.253600515,-0.106990919,1,0,0,0.9323,Peridotite_16,7,16,3,6,0.932,0.117636345,-0.263858894,1,0,0,1.2594,Diorite_rect,3,1.259,0,1,0,1,0,1,,,,,,,,,,,,,
65fafec03bcc45eef533814d,SCN,2024-06-11_18h41.33.614,LearnStrategy,2023.2.3,MacIntel,60.24096386,7,1,3,0.397653648,-0.119717943,1,0,0,1.231,Peridotite_14,7,14,3,7,1.231,0.12872411,-0.253889988,1,0,0,0.7428,Diorite_rect,3,0.743,0,2,0,2,0,1,,,,,,,,,,,,,
65fafec03bcc45eef533814d,SCN,2024-06-11_18h41.33.614,LearnStrategy,2023.2.3,MacIntel,60.24096386,7,1,4,0.570748335,-0.241468698,1,0,0,1.1155,Andesite_10,1,10,2,8,1.115,0.128701343,-0.245986418,1,0,0,1.6743,Diorite_rect,3,1.674,0,3,0,3,0,1,,,,,,,,,,,,,
65fafec03bcc45eef533814d,SCN,2024-06-11_18h41.33.614,LearnStrategy,2023.2.3,MacIntel,60.24096386,7,1,5,-0.225401358,-0.081894645,1,0,0,1.049,Basalt_11,2,11,3,3,1.049,-0.136097523,-0.242925817,1,0,0,0.9756,Basalt_rect,2,0.976,1,4,0,4,0,1,,,,,,,,,,,,,
65fafec03bcc45eef533814d,SCN,2024-06-11_18h41.33.614,LearnStrategy,2023.2.3,MacIntel,60.24096386,7,1,6,-0.082863889,-0.400558129,1,0,0,1.2144,Obsidian_11,5,11,1,4,1.214,-0.364374089,-0.391272247,1,0,0,0.9594,Obsidian_rect,5,0.959,1,5,0,5,0,1,,,,,,,,,,,,,
65fafec03bcc45eef533814d,SCN,2024-06-11_18h41.33.614,LearnStrategy,2023.2.3,MacIntel,60.24096386,7,1,7,0.240515716,-0.426643162,1,0,0,1.0142,Pegmatite_16,6,16,1,6,1.014,0.164495082,-0.410770972,1,0,0,0.9743,Peridotite_rect,7,0.974,0,6,0,6,0,1,,,,,,,,,,,,,
65fafec03bcc45eef533814d,SCN,2024-06-11_18h41.33.614,LearnStrategy,2023.2.3,MacIntel,60.24096386,7,1,8,0.367008613,0.397536558,1,0,0,1.3489,Obsidian_05,5,05,6,7,1.349,-0.072075354,-0.254520972,1,0,0,1.308,Basalt_rect,2,1.308,0,7,0,7,0,1,,,,,,,,,,,,,
65fafec03bcc45eef533814d,SCN,2024-06-11_18h41.33.614,LearnStrategy,2023.2.3,MacIntel,60.24096386,7,1,9,-0.096917933,0.400704491,1,0,0,1.131,Peridotite_13,7,13,6,4,1.131,-0.357791034,-0.251636006,1,0,0,1.9747,Andesite_rect,1,1.975,0,8,0,8,0,1,,,,,,,,,,,,,
65fafec03bcc45eef533814d,SCN,2024-06-11_18h41.33.614,LearnStrategy,2023.2.3,MacIntel,60.24096386,7,1,10,-0.028696789,-0.126902711,1,0,0,1.0487,Pumice_10,8,10,3,4,1.049,-0.059709357,-0.244379684,1,0,0,1.2245,Basalt_rect,2,1.225,0,9,0,9,0,1,,,,,,,,,,,,,
65fafec03bcc45eef533814d,SCN,2024-06-11_18h41.33.614,LearnStrategy,2023.2.3,MacIntel,60.24096386,7,1,11,0.264239436,-0.283741413,1,0,0,1.2991,Basalt_02,2,02,2,6,1.299,0.131511501,-0.253418375,1,0,0,0.6754,Diorite_rect,3,0.675,0,10,0,10,0,1,,,,,,,,,,,,,
65fafec03bcc45eef533814d,SCN,2024-06-11_18h41.33.614,LearnStrategy,2023.2.3,MacIntel,60.24096386,7,1,12,0.064223824,-0.398928627,1,0,0,2.4992,Gabbro_01,4,01,1,5,2.499,-0.108506583,-0.265543688,1,0,0,0.7585,Basalt_rect,2,0.759,0,11,0,11,0,1,,,,,,,,,,,,,
65fafec03bcc45eef533814d,SCN,2024-06-11_18h41.33.614,LearnStrategy,2023.2.3,MacIntel,60.24096386,7,1,13,-0.224461386,-0.410618105,1,0,0,1.0491,Andesite_09,1,09,1,3,1.049,-0.113869952,-0.256508248,1,0,0,2.4085,Basalt_rect,2,2.409,0,12,0,12,0,1,,,,,,,,,,,,,
65fafec03bcc45eef533814d,SCN,2024-06-11_18h41.33.614,LearnStrategy,2023.2.3,MacIntel,60.24096386,7,1,14,0.367392407,-0.406747632,1,0,0,1.7317,Peridotite_12,7,12,1,7,1.732,0.224646779,-0.260892616,1,0,0,0.7411,Diorite_rect,3,0.741,0,13,0,13,0,1,,,,,,,,,,,,,
65fafec03bcc45eef533814d,SCN,2024-06-11_18h41.33.614,LearnStrategy,2023.2.3,MacIntel,60.24096386,7,1,15,0.541583186,-0.393818953,1,0,0,1.5146,Obsidian_04,5,04,1,8,1.515,-0.36351543,-0.395409424,1,0,0,1.2606,Obsidian_rect,5,1.261,1,14,0,14,0,1,,,,,,,,,,,,,
65fafec03bcc45eef533814d,SCN,2024-06-11_18h41.33.614,LearnStrategy,2023.2.3,MacIntel,60.24096386,7,1,16,-0.082333732,0.102983842,1,0,0,0.9813,Andesite_14,1,14,4,4,0.981,-0.122970441,-0.254459175,1,0,0,0.9582,Basalt_rect,2,0.958,0,15,0,15,0,1,,,,,,,,,,,,,
65fafec03bcc45eef533814d,SCN,2024-06-11_18h41.33.614,LearnStrategy,2023.2.3,MacIntel,60.24096386,7,2,1,,,,,,,,6,13,,,,,,,,,,,3,0.792,0,,,,,,0.061943823,-0.253824938,1,0,0,0.792,Diorite_rect,0,0,0,0,1,
65fafec03bcc45eef533814d,SCN,2024-06-11_18h41.33.614,LearnStrategy,2023.2.3,MacIntel,60.24096386,7,2,2,,,,,,,,3,09,,,,,,,,,,,6,0.177,0,,,,,,-0.125683025,-0.380594296,1,0,0,0.1769,Pegmatite_rect,1,0,1,0,1,
65fafec03bcc45eef533814d,SCN,2024-06-11_18h41.33.614,LearnStrategy,2023.2.3,MacIntel,60.24096386,7,2,3,,,,,,,,1,16,,,,,,,,,,,2,0.759,0,,,,,,-0.116943563,-0.262779064,1,0,0,0.7593,Basalt_rect,2,0,2,0,1,
65fafec03bcc45eef533814d,SCN,2024-06-11_18h41.33.614,LearnStrategy,2023.2.3,MacIntel,60.24096386,7,2,4,,,,,,,,7,02,,,,,,,,,,,4,0.46,0,,,,,,0.46509094,-0.261559378,1,0,0,0.4597,Gabbro_rect,3,0,3,0,1,
65fafec03bcc45eef533814d,SCN,2024-06-11_18h41.33.614,LearnStrategy,2023.2.3,MacIntel,60.24096386,7,2,5,,,,,,,,6,12,,,,,,,,,,,8,0.143,0,,,,,,0.408468204,-0.407648574,1,0,0,0.1431,Pumice_rect,4,0,4,0,1,
65fafec03bcc45eef533814d,SCN,2024-06-11_18h41.33.614,LearnStrategy,2023.2.3,MacIntel,60.24096386,7,2,6,,,,,,,,7,07,,,,,,,,,,,7,0.813,1,,,,,,0.137479835,-0.397136501,1,0,0,0.8125,Peridotite_rect,5,0,5,0,1,
65fafec03bcc45eef533814d,SCN,2024-06-11_18h41.33.614,LearnStrategy,2023.2.3,MacIntel,60.24096386,7,2,7,,,,,,,,2,12,,,,,,,,,,,3,0.692,0,,,,,,0.126128617,-0.235217397,1,0,0,0.6916,Diorite_rect,6,0,6,0,1,
65fafec03bcc45eef533814d,SCN,2024-06-11_18h41.33.614,LearnStrategy,2023.2.3,MacIntel,60.24096386,7,2,8,,,,,,,,8,09,,,,,,,,,,,2,0.077,0,,,,,,-0.096989488,-0.245257858,1,0,0,0.0767,Basalt_rect,7,0,7,0,1,
65fafec03bcc45eef533814d,SCN,2024-06-11_18h41.33.614,LearnStrategy,2023.2.3,MacIntel,60.24096386,7,2,9,,,,,,,,5,12,,,,,,,,,,,7,0.494,0,,,,,,0.123913666,-0.398739982,1,0,0,0.4938,Peridotite_rect,8,0,8,0,1,
65fafec03bcc45eef533814d,SCN,2024-06-11_18h41.33.614,LearnStrategy,2023.2.3,MacIntel,60.24096386,7,2,10,,,,,,,,8,14,,,,,,,,,,,8,1.026,1,,,,,,0.416791346,-0.396232306,1,0,0,1.0261,Pumice_rect,9,0,9,0,1,
65fafec03bcc45eef533814d,SCN,2024-06-11_18h41.33.614,LearnStrategy,2023.2.3,MacIntel,60.24096386,7,2,11,,,,,,,,5,06,,,,,,,,,,,5,1.31,1,,,,,,-0.391978039,-0.40285114,1,0,0,1.3098,Obsidian_rect,10,0,10,0,1,
65fafec03bcc45eef533814d,SCN,2024-06-11_18h41.33.614,LearnStrategy,2023.2.3,MacIntel,60.24096386,7,2,12,,,,,,,,4,10,,,,,,,,,,,1,0.926,0,,,,,,-0.388897924,-0.23055982,1,0,0,0.9265,Andesite_rect,11,0,11,0,1,
65fafec03bcc45eef533814d,SCN,2024-06-11_18h41.33.614,LearnStrategy,2023.2.3,MacIntel,60.24096386,7,2,13,,,,,,,,4,12,,,,,,,,,,,2,0.226,0,,,,,,-0.164631687,-0.243163249,1,0,0,0.2263,Basalt_rect,12,0,12,0,1,
65fafec03bcc45eef533814d,SCN,2024-06-11_18h41.33.614,LearnStrategy,2023.2.3,MacIntel,60.24096386,7,2,14,,,,,,,,3,08,,,,,,,,,,,3,0.558,1,,,,,,0.105257338,-0.233129293,1,0,0,0.5575,Diorite_rect,13,0,13,0,1,
65fafec03bcc45eef533814d,SCN,2024-06-11_18h41.33.614,LearnStrategy,2023.2.3,MacIntel,60.24096386,7,2,15,,,,,,,,1,02,,,,,,,,,,,6,0.36,0,,,,,,-0.142784659,-0.393649823,1,0,0,0.3595,Pegmatite_rect,14,0,14,0,1,
65fafec03bcc45eef533814d,SCN,2024-06-11_18h41.33.614,LearnStrategy,2023.2.3,MacIntel,60.24096386,7,2,16,,,,,,,,2,04,,,,,,,,,,,2,1.277,1,,,,,,-0.19568979,-0.254881999,1,0,0,1.277,Basalt_rect,15,0,15,0,1,
65fafec03bcc45eef533814d,SCN,2024-06-11_18h41.33.614,LearnStrategy,2023.2.3,MacIntel,60.24096386,8,1,1,0.071415097,0.265198923,1,0,0,1.3994,Basalt_10,2,10,5,5,1.399,-0.110380022,-0.264691533,1,0,0,1.4923,Basalt_rect,2,1.492,1,0,0,0,0,1,,,,,,,,,,,,,
65fafec03bcc45eef533814d,SCN,2024-06-11_18h41.33.614,LearnStrategy,2023.2.3,MacIntel,60.24096386,8,1,2,-0.249395035,-0.266304772,1,0,0,1.0323,Pegmatite_10,6,10,2,3,1.032,-0.083595701,-0.394980095,1,0,0,0.759,Pegmatite_rect,6,0.759,1,1,0,1,0,1,,,,,,,,,,,,,
65fafec03bcc45eef533814d,SCN,2024-06-11_18h41.33.614,LearnStrategy,2023.2.3,MacIntel,60.24096386,8,1,3,-0.232504814,0.270981864,1,0,0,4.6149,Obsidian_02,5,02,5,3,4.615,-0.413447778,-0.406415877,1,0,0,1.2434,Obsidian_rect,5,1.243,1,2,0,2,0,1,,,,,,,,,,,,,
65fafec03bcc45eef533814d,SCN,2024-06-11_18h41.33.614,LearnStrategy,2023.2.3,MacIntel,60.24096386,8,1,4,-0.251958004,-0.244083706,1,0,0,1.2149,Pegmatite_10,6,10,2,3,1.215,-0.215269827,-0.404659529,1,0,0,0.6422,Pegmatite_rect,6,0.642,1,3,0,3,0,1,,,,,,,,,,,,,
65fafec03bcc45eef533814d,SCN,2024-06-11_18h41.33.614,LearnStrategy,2023.2.3,MacIntel,60.24096386,8,1,5,-0.089775448,-0.41779962,1,0,0,1.0827,Obsidian_11,5,11,1,4,1.083,-0.393282291,-0.406702097,1,0,0,1.3589,Obsidian_rect,5,1.359,1,4,0,4,0,1,,,,,,,,,,,,,
65fafec03bcc45eef533814d,SCN,2024-06-11_18h41.33.614,LearnStrategy,2023.2.3,MacIntel,60.24096386,8,1,6,-0.080795301,-0.41854119,1,0,0,3.9639,Obsidian_11,5,11,1,4,3.964,-0.376031042,-0.403706547,1,0,0,1.7095,Obsidian_rect,5,1.709,1,5,0,5,0,1,,,,,,,,,,,,,
65fafec03bcc45eef533814d,SCN,2024-06-11_18h41.33.614,LearnStrategy,2023.2.3,MacIntel,60.24096386,8,1,7,0.533588546,-0.4447921,1,0,0,1.265,Obsidian_04,5,04,1,8,1.265,-0.316598147,-0.395152477,1,0,0,1.2911,Obsidian_rect,5,1.291,1,6,0,6,0,1,,,,,,,,,,,,,
65fafec03bcc45eef533814d,SCN,2024-06-11_18h41.33.614,LearnStrategy,2023.2.3,MacIntel,60.24096386,8,1,8,-0.361918453,0.081410023,1,0,0,1.6323,Gabbro_03,4,03,4,2,1.632,-0.141925999,-0.397608113,1,0,0,1.2425,Pegmatite_rect,6,1.242,0,7,0,7,0,1,,,,,,,,,,,,,
65fafec03bcc45eef533814d,SCN,2024-06-11_18h41.33.614,LearnStrategy,2023.2.3,MacIntel,60.24096386,8,1,9,-0.230732202,-0.256706651,1,0,0,1.5316,Pegmatite_10,6,10,2,3,1.532,-0.162761501,-0.404903466,1,0,0,0.7586,Pegmatite_rect,6,0.759,1,8,0,8,0,1,,,,,,,,,,,,,
65fafec03bcc45eef533814d,SCN,2024-06-11_18h41.33.614,LearnStrategy,2023.2.3,MacIntel,60.24096386,8,1,10,-0.098967007,-0.402867402,1,0,0,2.3814,Obsidian_11,5,11,1,4,2.381,-0.404640014,-0.406318302,1,0,0,0.6757,Obsidian_rect,5,0.676,1,9,0,9,0,1,,,,,,,,,,,,,
65fafec03bcc45eef533814d,SCN,2024-06-11_18h41.33.614,LearnStrategy,2023.2.3,MacIntel,60.24096386,8,1,11,0.073734128,0.221030001,1,0,0,1.8308,Basalt_10,2,10,5,5,1.831,-0.125107332,-0.240265274,1,0,0,2.3422,Basalt_rect,2,2.342,1,10,0,10,0,1,,,,,,,,,,,,,
65fafec03bcc45eef533814d,SCN,2024-06-11_18h41.33.614,LearnStrategy,2023.2.3,MacIntel,60.24096386,8,1,12,-0.553822336,-0.113199938,1,0,0,3.3309,Obsidian_16,5,16,3,1,3.331,-0.408946321,-0.404802638,1,0,0,1.1094,Obsidian_rect,5,1.109,1,11,0,11,0,1,,,,,,,,,,,,,
65fafec03bcc45eef533814d,SCN,2024-06-11_18h41.33.614,LearnStrategy,2023.2.3,MacIntel,60.24096386,8,1,13,-0.065593126,-0.385668193,1,0,0,3.3159,Obsidian_11,5,11,1,4,3.316,-0.415448064,-0.406513452,1,0,0,1.5582,Obsidian_rect,5,1.558,1,12,0,12,0,1,,,,,,,,,,,,,
65fafec03bcc45eef533814d,SCN,2024-06-11_18h41.33.614,LearnStrategy,2023.2.3,MacIntel,60.24096386,8,1,14,0.094228117,0.106366439,1,0,0,0.7807,Diorite_02,3,02,4,5,0.781,0.331283175,-0.237520165,1,0,0,44.7587,Gabbro_rect,4,44.759,0,13,0,13,0,1,,,,,,,,,,,,,
65fafec03bcc45eef533814d,SCN,2024-06-11_18h41.33.614,LearnStrategy,2023.2.3,MacIntel,60.24096386,8,1,15,0.094634679,0.0699222,1,0,0,8.4472,Diorite_02,3,02,4,5,8.447,0.421006583,-0.235002732,1,0,0,27.3281,Gabbro_rect,4,27.328,0,14,0,14,0,1,,,,,,,,,,,,,
65fafec03bcc45eef533814d,SCN,2024-06-11_18h41.33.614,LearnStrategy,2023.2.3,MacIntel,60.24096386,8,1,16,0.059312552,0.080105771,1,0,0,4.1298,Diorite_02,3,02,4,5,4.13,0.080668453,-0.270250052,1,0,0,6.1449,Diorite_rect,3,6.145,1,15,0,15,0,1,,,,,,,,,,,,,
65fafec03bcc45eef533814d,SCN,2024-06-11_18h41.33.614,LearnStrategy,2023.2.3,MacIntel,60.24096386,8,2,1,,,,,,,,7,04,,,,,,,,,,,6,4.442,0,,,,,,-0.167025526,-0.403992766,1,0,0,4.4416,Pegmatite_rect,0,0,0,0,1,
65fafec03bcc45eef533814d,SCN,2024-06-11_18h41.33.614,LearnStrategy,2023.2.3,MacIntel,60.24096386,8,2,2,,,,,,,,3,15,,,,,,,,,,,8,2.176,0,,,,,,0.348957249,-0.390211933,1,0,0,2.1757,Pumice_rect,1,0,1,0,1,
65fafec03bcc45eef533814d,SCN,2024-06-11_18h41.33.614,LearnStrategy,2023.2.3,MacIntel,60.24096386,8,2,3,,,,,,,,2,09,,,,,,,,,,,4,1.159,0,,,,,,0.323382858,-0.270627342,1,0,0,1.1587,Gabbro_rect,2,0,2,0,1,
65fafec03bcc45eef533814d,SCN,2024-06-11_18h41.33.614,LearnStrategy,2023.2.3,MacIntel,60.24096386,8,2,4,,,,,,,,7,08,,,,,,,,,,,2,2.376,0,,,,,,-0.122534607,-0.24216148,1,0,0,2.3763,Basalt_rect,3,0,3,0,1,
65fafec03bcc45eef533814d,SCN,2024-06-11_18h41.33.614,LearnStrategy,2023.2.3,MacIntel,60.24096386,8,2,5,,,,,,,,1,04,,,,,,,,,,,1,2.709,1,,,,,,-0.319756323,-0.254868989,1,0,0,2.7091,Andesite_rect,4,0,4,0,1,
65fafec03bcc45eef533814d,SCN,2024-06-11_18h41.33.614,LearnStrategy,2023.2.3,MacIntel,60.24096386,8,2,6,,,,,,,,4,14,,,,,,,,,,,6,6.393,0,,,,,,-0.123432296,-0.380958576,1,0,0,6.3929,Pegmatite_rect,5,0,5,0,1,
65fafec03bcc45eef533814d,SCN,2024-06-11_18h41.33.614,LearnStrategy,2023.2.3,MacIntel,60.24096386,8,2,7,,,,,,,,6,06,,,,,,,,,,,7,2.877,0,,,,,,0.048569551,-0.388826369,1,0,0,2.8774,Peridotite_rect,6,0,6,0,1,
65fafec03bcc45eef533814d,SCN,2024-06-11_18h41.33.614,LearnStrategy,2023.2.3,MacIntel,60.24096386,8,2,8,,,,,,,,4,08,,,,,,,,,,,3,4.11,0,,,,,,0.180669754,-0.256807478,1,0,0,4.1098,Diorite_rect,7,0,7,0,1,
65fafec03bcc45eef533814d,SCN,2024-06-11_18h41.33.614,LearnStrategy,2023.2.3,MacIntel,60.24096386,8,2,9,,,,,,,,1,03,,,,,,,,,,,1,3.209,1,,,,,,-0.356285127,-0.250458602,1,0,0,3.2094,Andesite_rect,8,0,8,0,1,
65fafec03bcc45eef533814d,SCN,2024-06-11_18h41.33.614,LearnStrategy,2023.2.3,MacIntel,60.24096386,8,2,10,,,,,,,,8,06,,,,,,,,,,,5,1.577,0,,,,,,-0.292077566,-0.416202644,1,0,0,1.577,Obsidian_rect,9,0,9,0,1,
65fafec03bcc45eef533814d,SCN,2024-06-11_18h41.33.614,LearnStrategy,2023.2.3,MacIntel,60.24096386,8,2,11,,,,,,,,6,07,,,,,,,,,,,5,2.443,0,,,,,,-0.325796211,-0.420417881,1,0,0,2.443,Obsidian_rect,10,0,10,0,1,
65fafec03bcc45eef533814d,SCN,2024-06-11_18h41.33.614,LearnStrategy,2023.2.3,MacIntel,60.24096386,8,2,12,,,,,,,,2,16,,,,,,,,,,,4,4.759,0,,,,,,0.371503565,-0.265829907,1,0,0,4.7591,Gabbro_rect,11,0,11,0,1,
65fafec03bcc45eef533814d,SCN,2024-06-11_18h41.33.614,LearnStrategy,2023.2.3,MacIntel,60.24096386,8,2,13,,,,,,,,3,06,,,,,,,,,,,3,1.979,1,,,,,,0.178041736,-0.244106474,1,0,0,1.9787,Diorite_rect,12,0,12,0,1,
65fafec03bcc45eef533814d,SCN,2024-06-11_18h41.33.614,LearnStrategy,2023.2.3,MacIntel,60.24096386,8,2,14,,,,,,,,8,03,,,,,,,,,,,7,2.242,0,,,,,,0.159213026,-0.382246565,1,0,0,2.2419,Peridotite_rect,13,0,13,0,1,
65fafec03bcc45eef533814d,SCN,2024-06-11_18h41.33.614,LearnStrategy,2023.2.3,MacIntel,60.24096386,8,2,15,,,,,,,,5,09,,,,,,,,,,,6,3.909,0,,,,,,-0.083042777,-0.413187578,1,0,0,3.9092,Pegmatite_rect,14,0,14,0,1,
65fafec03bcc45eef533814d,SCN,2024-06-11_18h41.33.614,LearnStrategy,2023.2.3,MacIntel,60.24096386,8,2,16,,,,,,,,5,14,,,,,,,,,,,6,2.993,0,,,,,,-0.083042777,-0.413187578,1,0,0,2.9929,Pegmatite_rect,15,0,15,0,1,
65fafec03bcc45eef533814d,SCN,2024-06-11_18h41.33.614,LearnStrategy,2023.2.3,MacIntel,60.24096386,9,1,1,-0.360880907,-0.236641991,1,0,0,6.9316,Diorite_14,3,14,2,2,6.932,0.063872554,-0.247433779,1,0,0,2.9429,Diorite_rect,3,2.943,1,0,0,0,0,1,,,,,,,,,,,,,
65fafec03bcc45eef533814d,SCN,2024-06-11_18h41.33.614,LearnStrategy,2023.2.3,MacIntel,60.24096386,9,1,2,0.54363226,0.27668024,1,0,0,3.1992,Pegmatite_08,6,08,5,8,3.199,0.123032239,-0.252946763,1,0,0,3.1933,Diorite_rect,3,3.193,0,1,0,1,0,1,,,,,,,,,,,,,
65fafec03bcc45eef533814d,SCN,2024-06-11_18h41.33.614,LearnStrategy,2023.2.3,MacIntel,60.24096386,9,1,3,0.529386319,-0.09436147,1,0,0,3.6142,Pumice_15,8,15,3,8,3.614,0.317775552,-0.411050687,1,0,0,2.9246,Pumice_rect,8,2.925,1,2,0,2,0,1,,,,,,,,,,,,,
65fafec03bcc45eef533814d,SCN,2024-06-11_18h41.33.614,LearnStrategy,2023.2.3,MacIntel,60.24096386,9,1,4,-0.090692652,-0.407970571,1,0,0,1.948,Obsidian_11,5,11,1,4,1.948,-0.323402373,-0.393623803,1,0,0,3.4611,Obsidian_rect,5,3.461,1,3,0,3,0,1,,,,,,,,,,,,,
65fafec03bcc45eef533814d,SCN,2024-06-11_18h41.33.614,LearnStrategy,2023.2.3,MacIntel,60.24096386,9,1,5,0.367366387,0.229125468,1,0,0,2.5812,Peridotite_10,7,10,5,7,2.581,0.167493885,-0.247027217,1,0,0,3.5089,Diorite_rect,3,3.509,0,4,0,4,0,1,,,,,,,,,,,,,
65fafec03bcc45eef533814d,SCN,2024-06-11_18h41.33.614,LearnStrategy,2023.2.3,MacIntel,60.24096386,9,1,6,-0.076401176,-0.365411636,1,0,0,1.9657,Obsidian_11,5,11,1,4,1.966,0.093236105,-0.39139259,1,0,0,3.5426,Peridotite_rect,7,3.543,0,5,0,5,0,1,,,,,,,,,,,,,
65fafec03bcc45eef533814d,SCN,2024-06-11_18h41.33.614,LearnStrategy,2023.2.3,MacIntel,60.24096386,9,1,7,0.225837193,0.063384679,1,0,0,2.0815,Gabbro_05,4,05,4,6,2.082,0.118033149,-0.258238577,1,0,0,0.6606,Diorite_rect,3,0.661,0,6,0,6,0,1,,,,,,,,,,,,,
65fafec03bcc45eef533814d,SCN,2024-06-11_18h41.33.614,LearnStrategy,2023.2.3,MacIntel,60.24096386,9,1,8,0.110646727,-0.08976569,1,0,0,0.8979,Obsidian_07,5,07,3,5,0.898,-0.349978534,-0.41408852,1,0,0,1.2093,Obsidian_rect,5,1.209,1,7,0,7,0,1,,,,,,,,,,,,,
65fafec03bcc45eef533814d,SCN,2024-06-11_18h41.33.614,LearnStrategy,2023.2.3,MacIntel,60.24096386,9,1,9,-0.227658592,-0.12514311,1,0,0,1.5967,Basalt_11,2,11,3,3,1.597,-0.203261605,-0.260577123,1,0,0,0.5943,Basalt_rect,2,0.594,1,8,0,8,0,1,,,,,,,,,,,,,
65fafec03bcc45eef533814d,SCN,2024-06-11_18h41.33.614,LearnStrategy,2023.2.3,MacIntel,60.24096386,9,1,10,-0.227336595,-0.120036688,1,0,0,1.098,Basalt_11,2,11,3,3,1.098,-0.153885434,-0.232833316,1,0,0,0.6095,Basalt_rect,2,0.609,1,9,0,9,0,1,,,,,,,,,,,,,
65fafec03bcc45eef533814d,SCN,2024-06-11_18h41.33.614,LearnStrategy,2023.2.3,MacIntel,60.24096386,9,1,11,-0.070566195,-0.274341694,1,0,0,0.8482,Diorite_16,3,16,2,4,0.848,0.068617949,-0.400818328,1,0,0,2.8097,Peridotite_rect,7,2.81,0,10,0,10,0,1,,,,,,,,,,,,,
65fafec03bcc45eef533814d,SCN,2024-06-11_18h41.33.614,LearnStrategy,2023.2.3,MacIntel,60.24096386,9,1,12,-0.196376067,-0.234124558,1,0,0,1.0324,Pegmatite_10,6,10,2,3,1.032,-0.076511761,-0.399237614,1,0,0,0.9775,Pegmatite_rect,6,0.978,1,11,0,11,0,1,,,,,,,,,,,,,
65fafec03bcc45eef533814d,SCN,2024-06-11_18h41.33.614,LearnStrategy,2023.2.3,MacIntel,60.24096386,9,1,13,0.054443563,-0.099123127,1,0,0,0.7673,Obsidian_07,5,07,3,5,0.767,-0.345916164,-0.38736925,1,0,0,0.8252,Obsidian_rect,5,0.825,1,12,0,12,0,1,,,,,,,,,,,,,
65fafec03bcc45eef533814d,SCN,2024-06-11_18h41.33.614,LearnStrategy,2023.2.3,MacIntel,60.24096386,9,1,14,0.232020192,0.111466356,1,0,0,0.8814,Gabbro_05,4,05,4,6,0.881,0.101468178,-0.246997944,1,0,0,0.8086,Diorite_rect,3,0.809,0,13,0,13,0,1,,,,,,,,,,,,,
65fafec03bcc45eef533814d,SCN,2024-06-11_18h41.33.614,LearnStrategy,2023.2.3,MacIntel,60.24096386,9,1,15,0.112464873,0.26162768,1,0,0,0.9979,Basalt_10,2,10,5,5,0.998,-0.103575796,-0.257483998,1,0,0,0.8761,Basalt_rect,2,0.876,1,14,0,14,0,1,,,,,,,,,,,,,
65fafec03bcc45eef533814d,SCN,2024-06-11_18h41.33.614,LearnStrategy,2023.2.3,MacIntel,60.24096386,9,1,16,0.375891184,0.096264181,1,0,0,0.9975,Andesite_05,1,05,4,7,0.997,0.119340654,-0.405485663,1,0,0,2.2094,Peridotite_rect,7,2.209,0,15,0,15,0,1,,,,,,,,,,,,,
65fafec03bcc45eef533814d,SCN,2024-06-11_18h41.33.614,LearnStrategy,2023.2.3,MacIntel,60.24096386,9,2,1,,,,,,,,4,16,,,,,,,,,,,3,0.609,0,,,,,,0.033520244,-0.240714118,1,0,0,0.6086,Diorite_rect,0,0,0,0,1,
65fafec03bcc45eef533814d,SCN,2024-06-11_18h41.33.614,LearnStrategy,2023.2.3,MacIntel,60.24096386,9,2,2,,,,,,,,8,08,,,,,,,,,,,2,0.176,0,,,,,,-0.126720571,-0.235347497,1,0,0,0.1762,Basalt_rect,1,0,1,0,1,
65fafec03bcc45eef533814d,SCN,2024-06-11_18h41.33.614,LearnStrategy,2023.2.3,MacIntel,60.24096386,9,2,3,,,,,,,,4,13,,,,,,,,,,,4,0.575,1,,,,,,0.325636839,-0.241195488,1,0,0,0.5754,Gabbro_rect,2,0,2,0,1,
65fafec03bcc45eef533814d,SCN,2024-06-11_18h41.33.614,LearnStrategy,2023.2.3,MacIntel,60.24096386,9,2,4,,,,,,,,3,11,,,,,,,,,,,8,0.66,0,,,,,,0.357511319,-0.391704829,1,0,0,0.6601,Pumice_rect,3,0,3,0,1,
65fafec03bcc45eef533814d,SCN,2024-06-11_18h41.33.614,LearnStrategy,2023.2.3,MacIntel,60.24096386,9,2,5,,,,,,,,7,05,,,,,,,,,,,7,0.808,1,,,,,,0.143184716,-0.410032655,1,0,0,0.8076,Peridotite_rect,4,0,4,0,1,
65fafec03bcc45eef533814d,SCN,2024-06-11_18h41.33.614,LearnStrategy,2023.2.3,MacIntel,60.24096386,9,2,6,,,,,,,,5,10,,,,,,,,,,,3,0.309,0,,,,,,0.133973642,-0.237012776,1,0,0,0.309,Diorite_rect,5,0,5,0,1,
65fafec03bcc45eef533814d,SCN,2024-06-11_18h41.33.614,LearnStrategy,2023.2.3,MacIntel,60.24096386,9,2,7,,,,,,,,1,01,,,,,,,,,,,2,1.06,0,,,,,,-0.103920561,-0.259507051,1,0,0,1.0603,Basalt_rect,6,0,6,0,1,
65fafec03bcc45eef533814d,SCN,2024-06-11_18h41.33.614,LearnStrategy,2023.2.3,MacIntel,60.24096386,9,2,8,,,,,,,,1,06,,,,,,,,,,,1,0.875,1,,,,,,-0.355202045,-0.260020946,1,0,0,0.875,Andesite_rect,7,0,7,0,1,
65fafec03bcc45eef533814d,SCN,2024-06-11_18h41.33.614,LearnStrategy,2023.2.3,MacIntel,60.24096386,9,2,9,,,,,,,,2,08,,,,,,,,,,,2,1.428,1,,,,,,-0.129273782,-0.260645426,1,0,0,1.4275,Basalt_rect,8,0,8,0,1,
65fafec03bcc45eef533814d,SCN,2024-06-11_18h41.33.614,LearnStrategy,2023.2.3,MacIntel,60.24096386,9,2,10,,,,,,,,2,01,,,,,,,,,,,2,0.775,1,,,,,,-0.126021284,-0.255997606,1,0,0,0.7752,Basalt_rect,9,0,9,0,1,
65fafec03bcc45eef533814d,SCN,2024-06-11_18h41.33.614,LearnStrategy,2023.2.3,MacIntel,60.24096386,9,2,11,,,,,,,,6,15,,,,,,,,,,,5,1.243,0,,,,,,-0.350661558,-0.394420665,1,0,0,1.2431,Obsidian_rect,10,0,10,0,1,
65fafec03bcc45eef533814d,SCN,2024-06-11_18h41.33.614,LearnStrategy,2023.2.3,MacIntel,60.24096386,9,2,12,,,,,,,,5,08,,,,,,,,,,,5,1.827,1,,,,,,-0.372638687,-0.407794937,1,0,0,1.8272,Obsidian_rect,11,0,11,0,1,
65fafec03bcc45eef533814d,SCN,2024-06-11_18h41.33.614,LearnStrategy,2023.2.3,MacIntel,60.24096386,9,2,13,,,,,,,,8,02,,,,,,,,,,,1,1.21,0,,,,,,-0.381547278,-0.262853872,1,0,0,1.2096,Andesite_rect,12,0,12,0,1,
65fafec03bcc45eef533814d,SCN,2024-06-11_18h41.33.614,LearnStrategy,2023.2.3,MacIntel,60.24096386,9,2,14,,,,,,,,7,06,,,,,,,,,,,2,0.342,0,,,,,,-0.080954673,-0.25343789,1,0,0,0.3417,Basalt_rect,13,0,13,0,1,
65fafec03bcc45eef533814d,SCN,2024-06-11_18h41.33.614,LearnStrategy,2023.2.3,MacIntel,60.24096386,9,2,15,,,,,,,,6,09,,,,,,,,,,,3,0.559,0,,,,,,0.111720051,-0.248090784,1,0,0,0.559,Diorite_rect,14,0,14,0,1,
65fafec03bcc45eef533814d,SCN,2024-06-11_18h41.33.614,LearnStrategy,2023.2.3,MacIntel,60.24096386,9,2,16,,,,,,,,3,13,,,,,,,,,,,2,0.176,0,,,,,,-0.057260226,-0.256387906,1,0,0,0.1763,Basalt_rect,15,0,15,0,1,
65fafec03bcc45eef533814d,SCN,2024-06-11_18h41.33.614,LearnStrategy,2023.2.3,MacIntel,60.24096386,,,,,,,,,,,,,,,,,,,,,,,,,,,,,,,,,,,,,,,,,,,0
65fafec03bcc45eef533814d,SCN,2024-06-11_18h41.33.614,LearnStrategy,2023.2.3,MacIntel,60.24096386,,,,,,,,,,,,,,,,,,,,,,,,,,,,,,,,,,,,,,,,,,,
65fafec03bcc45eef533814d,SCN,2024-06-11_18h41.33.614,LearnStrategy,2023.2.3,MacIntel,60.24096386,,,,,,,,,,,6,11,1,1,,,,,,,,,,,,,,,,,,,,,,,,,,,,,
65fafec03bcc45eef533814d,SCN,2024-06-11_18h41.33.614,LearnStrategy,2023.2.3,MacIntel,60.24096386,,,,,,,,,,,3,10,1,2,,,,,,,,,,,,,,,,,,,,,,,,,,,,,
65fafec03bcc45eef533814d,SCN,2024-06-11_18h41.33.614,LearnStrategy,2023.2.3,MacIntel,60.24096386,,,,,,,,,,,1,09,1,3,,,,,,,,,,,,,,,,,,,,,,,,,,,,,
65fafec03bcc45eef533814d,SCN,2024-06-11_18h41.33.614,LearnStrategy,2023.2.3,MacIntel,60.24096386,,,,,,,,,,,5,11,1,4,,,,,,,,,,,,,,,,,,,,,,,,,,,,,
65fafec03bcc45eef533814d,SCN,2024-06-11_18h41.33.614,LearnStrategy,2023.2.3,MacIntel,60.24096386,,,,,,,,,,,4,01,1,5,,,,,,,,,,,,,,,,,,,,,,,,,,,,,
65fafec03bcc45eef533814d,SCN,2024-06-11_18h41.33.614,LearnStrategy,2023.2.3,MacIntel,60.24096386,,,,,,,,,,,6,16,1,6,,,,,,,,,,,,,,,,,,,,,,,,,,,,,
65fafec03bcc45eef533814d,SCN,2024-06-11_18h41.33.614,LearnStrategy,2023.2.3,MacIntel,60.24096386,,,,,,,,,,,7,12,1,7,,,,,,,,,,,,,,,,,,,,,,,,,,,,,
65fafec03bcc45eef533814d,SCN,2024-06-11_18h41.33.614,LearnStrategy,2023.2.3,MacIntel,60.24096386,,,,,,,,,,,5,04,1,8,,,,,,,,,,,,,,,,,,,,,,,,,,,,,
65fafec03bcc45eef533814d,SCN,2024-06-11_18h41.33.614,LearnStrategy,2023.2.3,MacIntel,60.24096386,,,,,,,,,,,3,12,2,1,,,,,,,,,,,,,,,,,,,,,,,,,,,,,
65fafec03bcc45eef533814d,SCN,2024-06-11_18h41.33.614,LearnStrategy,2023.2.3,MacIntel,60.24096386,,,,,,,,,,,3,14,2,2,,,,,,,,,,,,,,,,,,,,,,,,,,,,,
65fafec03bcc45eef533814d,SCN,2024-06-11_18h41.33.614,LearnStrategy,2023.2.3,MacIntel,60.24096386,,,,,,,,,,,6,10,2,3,,,,,,,,,,,,,,,,,,,,,,,,,,,,,
65fafec03bcc45eef533814d,SCN,2024-06-11_18h41.33.614,LearnStrategy,2023.2.3,MacIntel,60.24096386,,,,,,,,,,,3,16,2,4,,,,,,,,,,,,,,,,,,,,,,,,,,,,,
65fafec03bcc45eef533814d,SCN,2024-06-11_18h41.33.614,LearnStrategy,2023.2.3,MacIntel,60.24096386,,,,,,,,,,,6,03,2,5,,,,,,,,,,,,,,,,,,,,,,,,,,,,,
65fafec03bcc45eef533814d,SCN,2024-06-11_18h41.33.614,LearnStrategy,2023.2.3,MacIntel,60.24096386,,,,,,,,,,,2,02,2,6,,,,,,,,,,,,,,,,,,,,,,,,,,,,,
65fafec03bcc45eef533814d,SCN,2024-06-11_18h41.33.614,LearnStrategy,2023.2.3,MacIntel,60.24096386,,,,,,,,,,,4,09,2,7,,,,,,,,,,,,,,,,,,,,,,,,,,,,,
65fafec03bcc45eef533814d,SCN,2024-06-11_18h41.33.614,LearnStrategy,2023.2.3,MacIntel,60.24096386,,,,,,,,,,,1,10,2,8,,,,,,,,,,,,,,,,,,,,,,,,,,,,,
65fafec03bcc45eef533814d,SCN,2024-06-11_18h41.33.614,LearnStrategy,2023.2.3,MacIntel,60.24096386,,,,,,,,,,,5,16,3,1,,,,,,,,,,,,,,,,,,,,,,,,,,,,,
65fafec03bcc45eef533814d,SCN,2024-06-11_18h41.33.614,LearnStrategy,2023.2.3,MacIntel,60.24096386,,,,,,,,,,,1,11,3,2,,,,,,,,,,,,,,,,,,,,,,,,,,,,,
65fafec03bcc45eef533814d,SCN,2024-06-11_18h41.33.614,LearnStrategy,2023.2.3,MacIntel,60.24096386,,,,,,,,,,,2,11,3,3,,,,,,,,,,,,,,,,,,,,,,,,,,,,,
65fafec03bcc45eef533814d,SCN,2024-06-11_18h41.33.614,LearnStrategy,2023.2.3,MacIntel,60.24096386,,,,,,,,,,,8,10,3,4,,,,,,,,,,,,,,,,,,,,,,,,,,,,,
65fafec03bcc45eef533814d,SCN,2024-06-11_18h41.33.614,LearnStrategy,2023.2.3,MacIntel,60.24096386,,,,,,,,,,,5,07,3,5,,,,,,,,,,,,,,,,,,,,,,,,,,,,,
65fafec03bcc45eef533814d,SCN,2024-06-11_18h41.33.614,LearnStrategy,2023.2.3,MacIntel,60.24096386,,,,,,,,,,,7,16,3,6,,,,,,,,,,,,,,,,,,,,,,,,,,,,,
65fafec03bcc45eef533814d,SCN,2024-06-11_18h41.33.614,LearnStrategy,2023.2.3,MacIntel,60.24096386,,,,,,,,,,,7,14,3,7,,,,,,,,,,,,,,,,,,,,,,,,,,,,,
65fafec03bcc45eef533814d,SCN,2024-06-11_18h41.33.614,LearnStrategy,2023.2.3,MacIntel,60.24096386,,,,,,,,,,,8,15,3,8,,,,,,,,,,,,,,,,,,,,,,,,,,,,,
65fafec03bcc45eef533814d,SCN,2024-06-11_18h41.33.614,LearnStrategy,2023.2.3,MacIntel,60.24096386,,,,,,,,,,,1,07,4,1,,,,,,,,,,,,,,,,,,,,,,,,,,,,,
65fafec03bcc45eef533814d,SCN,2024-06-11_18h41.33.614,LearnStrategy,2023.2.3,MacIntel,60.24096386,,,,,,,,,,,4,03,4,2,,,,,,,,,,,,,,,,,,,,,,,,,,,,,
65fafec03bcc45eef533814d,SCN,2024-06-11_18h41.33.614,LearnStrategy,2023.2.3,MacIntel,60.24096386,,,,,,,,,,,3,07,4,3,,,,,,,,,,,,,,,,,,,,,,,,,,,,,
65fafec03bcc45eef533814d,SCN,2024-06-11_18h41.33.614,LearnStrategy,2023.2.3,MacIntel,60.24096386,,,,,,,,,,,1,14,4,4,,,,,,,,,,,,,,,,,,,,,,,,,,,,,
65fafec03bcc45eef533814d,SCN,2024-06-11_18h41.33.614,LearnStrategy,2023.2.3,MacIntel,60.24096386,,,,,,,,,,,3,02,4,5,,,,,,,,,,,,,,,,,,,,,,,,,,,,,
65fafec03bcc45eef533814d,SCN,2024-06-11_18h41.33.614,LearnStrategy,2023.2.3,MacIntel,60.24096386,,,,,,,,,,,4,05,4,6,,,,,,,,,,,,,,,,,,,,,,,,,,,,,
65fafec03bcc45eef533814d,SCN,2024-06-11_18h41.33.614,LearnStrategy,2023.2.3,MacIntel,60.24096386,,,,,,,,,,,1,05,4,7,,,,,,,,,,,,,,,,,,,,,,,,,,,,,
65fafec03bcc45eef533814d,SCN,2024-06-11_18h41.33.614,LearnStrategy,2023.2.3,MacIntel,60.24096386,,,,,,,,,,,2,05,4,8,,,,,,,,,,,,,,,,,,,,,,,,,,,,,
65fafec03bcc45eef533814d,SCN,2024-06-11_18h41.33.614,LearnStrategy,2023.2.3,MacIntel,60.24096386,,,,,,,,,,,8,04,5,1,,,,,,,,,,,,,,,,,,,,,,,,,,,,,
65fafec03bcc45eef533814d,SCN,2024-06-11_18h41.33.614,LearnStrategy,2023.2.3,MacIntel,60.24096386,,,,,,,,,,,8,05,5,2,,,,,,,,,,,,,,,,,,,,,,,,,,,,,
65fafec03bcc45eef533814d,SCN,2024-06-11_18h41.33.614,LearnStrategy,2023.2.3,MacIntel,60.24096386,,,,,,,,,,,5,02,5,3,,,,,,,,,,,,,,,,,,,,,,,,,,,,,
65fafec03bcc45eef533814d,SCN,2024-06-11_18h41.33.614,LearnStrategy,2023.2.3,MacIntel,60.24096386,,,,,,,,,,,8,13,5,4,,,,,,,,,,,,,,,,,,,,,,,,,,,,,
65fafec03bcc45eef533814d,SCN,2024-06-11_18h41.33.614,LearnStrategy,2023.2.3,MacIntel,60.24096386,,,,,,,,,,,2,10,5,5,,,,,,,,,,,,,,,,,,,,,,,,,,,,,
65fafec03bcc45eef533814d,SCN,2024-06-11_18h41.33.614,LearnStrategy,2023.2.3,MacIntel,60.24096386,,,,,,,,,,,2,14,5,6,,,,,,,,,,,,,,,,,,,,,,,,,,,,,
65fafec03bcc45eef533814d,SCN,2024-06-11_18h41.33.614,LearnStrategy,2023.2.3,MacIntel,60.24096386,,,,,,,,,,,7,10,5,7,,,,,,,,,,,,,,,,,,,,,,,,,,,,,
65fafec03bcc45eef533814d,SCN,2024-06-11_18h41.33.614,LearnStrategy,2023.2.3,MacIntel,60.24096386,,,,,,,,,,,6,08,5,8,,,,,,,,,,,,,,,,,,,,,,,,,,,,,
65fafec03bcc45eef533814d,SCN,2024-06-11_18h41.33.614,LearnStrategy,2023.2.3,MacIntel,60.24096386,,,,,,,,,,,6,05,6,1,,,,,,,,,,,,,,,,,,,,,,,,,,,,,
65fafec03bcc45eef533814d,SCN,2024-06-11_18h41.33.614,LearnStrategy,2023.2.3,MacIntel,60.24096386,,,,,,,,,,,2,06,6,2,,,,,,,,,,,,,,,,,,,,,,,,,,,,,
65fafec03bcc45eef533814d,SCN,2024-06-11_18h41.33.614,LearnStrategy,2023.2.3,MacIntel,60.24096386,,,,,,,,,,,4,15,6,3,,,,,,,,,,,,,,,,,,,,,,,,,,,,,
65fafec03bcc45eef533814d,SCN,2024-06-11_18h41.33.614,LearnStrategy,2023.2.3,MacIntel,60.24096386,,,,,,,,,,,7,13,6,4,,,,,,,,,,,,,,,,,,,,,,,,,,,,,
65fafec03bcc45eef533814d,SCN,2024-06-11_18h41.33.614,LearnStrategy,2023.2.3,MacIntel,60.24096386,,,,,,,,,,,7,15,6,5,,,,,,,,,,,,,,,,,,,,,,,,,,,,,
65fafec03bcc45eef533814d,SCN,2024-06-11_18h41.33.614,LearnStrategy,2023.2.3,MacIntel,60.24096386,,,,,,,,,,,8,16,6,6,,,,,,,,,,,,,,,,,,,,,,,,,,,,,
65fafec03bcc45eef533814d,SCN,2024-06-11_18h41.33.614,LearnStrategy,2023.2.3,MacIntel,60.24096386,,,,,,,,,,,5,05,6,7,,,,,,,,,,,,,,,,,,,,,,,,,,,,,
65fafec03bcc45eef533814d,SCN,2024-06-11_18h41.33.614,LearnStrategy,2023.2.3,MacIntel,60.24096386,,,,,,,,,,,4,11,6,8,,,,,,,,,,,,,,,,,,,,,,,,,,,,,