participant,condition,date,expName,psychopyVersion,OS,frameRate,block,phase,trial,learn_mouse_2.x,learn_mouse_2.y,learn_mouse_2.leftButton,learn_mouse_2.midButton,learn_mouse_2.rightButton,learn_mouse_2.time,learn_mouse_2.clicked_name,cat,token,row,col,t_select,cat_mouse_l.x,cat_mouse_l.y,cat_mouse_l.leftButton,cat_mouse_l.midButton,cat_mouse_l.rightButton,cat_mouse_l.time,cat_mouse_l.clicked_name,resp,t_resp,corr,train_trials.thisRepN,train_trials.thisTrialN,train_trials.thisN,train_trials.thisIndex,train_trials.ran,cat_mouse_t.x,cat_mouse_t.y,cat_mouse_t.leftButton,cat_mouse_t.midButton,cat_mouse_t.rightButton,cat_mouse_t.time,cat_mouse_t.clicked_name,test_trials.thisRepN,test_trials.thisTrialN,test_trials.thisN,test_trials.thisIndex,test_trials.ran,Bonus
65faa015b08626882ddef940,TCR,2024-06-11_18h22.33.944,LearnStrategy,2023.2.3,MacIntel,59.88023952,,,,,,,,,,,,,,,,,,,,,,,,,,,,,,,,,,,,,,,,,,,
65faa015b08626882ddef940,TCR,2024-06-11_18h22.33.944,LearnStrategy,2023.2.3,MacIntel,59.88023952,1,1,1,0.010128279,-0.01167972,1,0,0,1.3881,rock_grid_rect_2,8,13,-1,-1,1.388,-0.154347289,-0.262183857,1,0,0,1.6345,Basalt_rect,2,1.635,0,0,0,0,0,1,,,,,,,,,,,,,
65faa015b08626882ddef940,TCR,2024-06-11_18h22.33.944,LearnStrategy,2023.2.3,MacIntel,59.88023952,1,1,2,-0.04367129,-0.009250104,1,0,0,1.4158,rock_grid_rect_2,1,07,-1,-1,1.416,0.393744146,-0.261191845,1,0,0,4.0756,Gabbro_rect,4,4.076,0,1,0,1,0,1,,,,,,,,,,,,,
65faa015b08626882ddef940,TCR,2024-06-11_18h22.33.944,LearnStrategy,2023.2.3,MacIntel,59.88023952,1,1,3,-0.020861522,0.00740919,1,0,0,3.5301,rock_grid_rect_2,7,07,-1,-1,3.53,-0.34750013,-0.254260772,1,0,0,1.0773,Andesite_rect,1,1.077,0,2,0,2,0,1,,,,,,,,,,,,,
65faa015b08626882ddef940,TCR,2024-06-11_18h22.33.944,LearnStrategy,2023.2.3,MacIntel,59.88023952,1,1,4,-0.071509419,0.000822882,1,0,0,0.8485,rock_grid_rect_2,3,16,-1,-1,0.849,-0.10575497,-0.393848225,1,0,0,1.7947,Pegmatite_rect,6,1.795,0,3,0,3,0,1,,,,,,,,,,,,,
65faa015b08626882ddef940,TCR,2024-06-11_18h22.33.944,LearnStrategy,2023.2.3,MacIntel,59.88023952,1,1,5,0.001170899,-0.023922122,1,0,0,1.2487,rock_grid_rect_2,3,09,-1,-1,1.249,0.101214483,-0.249827618,1,0,0,0.7613,Diorite_rect,3,0.761,1,4,0,4,0,1,,,,,,,,,,,,,
65faa015b08626882ddef940,TCR,2024-06-11_18h22.33.944,LearnStrategy,2023.2.3,MacIntel,59.88023952,1,1,6,0.121464535,-0.01148457,1,0,0,1.0315,rock_grid_rect_2,8,14,-1,-1,1.031,-0.052192834,-0.255090159,1,0,0,0.8602,Basalt_rect,2,0.86,0,5,0,5,0,1,,,,,,,,,,,,,
65faa015b08626882ddef940,TCR,2024-06-11_18h22.33.944,LearnStrategy,2023.2.3,MacIntel,59.88023952,1,1,7,0.020604574,0.006999376,1,0,0,2.8156,rock_grid_rect_2,1,14,-1,-1,2.816,0.12065141,-0.398108998,1,0,0,1.4107,Peridotite_rect,7,1.411,0,6,0,6,0,1,,,,,,,,,,,,,
65faa015b08626882ddef940,TCR,2024-06-11_18h22.33.944,LearnStrategy,2023.2.3,MacIntel,59.88023952,1,1,8,-0.001375807,-0.004462427,1,0,0,1.3642,rock_grid_rect_2,6,06,-1,-1,1.364,0.336438385,-0.244737458,1,0,0,0.7452,Gabbro_rect,4,0.745,0,7,0,7,0,1,,,,,,,,,,,,,
65faa015b08626882ddef940,TCR,2024-06-11_18h22.33.944,LearnStrategy,2023.2.3,MacIntel,59.88023952,1,1,9,0.03122398,-0.00774745,1,0,0,0.9491,rock_grid_rect_2,7,10,-1,-1,0.949,-0.388735299,-0.252618261,1,0,0,1.4269,Andesite_rect,1,1.427,0,8,0,8,0,1,,,,,,,,,,,,,
65faa015b08626882ddef940,TCR,2024-06-11_18h22.33.944,LearnStrategy,2023.2.3,MacIntel,59.88023952,1,1,10,-0.006251301,-0.01515664,1,0,0,1.3636,rock_grid_rect_2,5,09,-1,-1,1.364,-0.099087349,-0.239803419,1,0,0,4.8281,Basalt_rect,2,4.828,0,9,0,9,0,1,,,,,,,,,,,,,
65faa015b08626882ddef940,TCR,2024-06-11_18h22.33.944,LearnStrategy,2023.2.3,MacIntel,59.88023952,1,1,11,-0.047463702,0.017335814,1,0,0,1.012,rock_grid_rect_2,4,10,-1,-1,1.012,-0.076521519,-0.387613187,1,0,0,0.964,Pegmatite_rect,6,0.964,0,10,0,10,0,1,,,,,,,,,,,,,
65faa015b08626882ddef940,TCR,2024-06-11_18h22.33.944,LearnStrategy,2023.2.3,MacIntel,59.88023952,1,1,12,-0.012001717,-0.008589847,1,0,0,1.5144,rock_grid_rect_2,2,01,-1,-1,1.514,0.1483074,-0.404311511,1,0,0,0.9943,Peridotite_rect,7,0.994,0,11,0,11,0,1,,,,,,,,,,,,,
65faa015b08626882ddef940,TCR,2024-06-11_18h22.33.944,LearnStrategy,2023.2.3,MacIntel,59.88023952,1,1,13,0.001343282,0.005298319,1,0,0,1.0173,rock_grid_rect_2,2,08,-1,-1,1.017,0.348602727,-0.248009471,1,0,0,2.7125,Gabbro_rect,4,2.713,0,12,0,12,0,1,,,,,,,,,,,,,
65faa015b08626882ddef940,TCR,2024-06-11_18h22.33.944,LearnStrategy,2023.2.3,MacIntel,59.88023952,1,1,14,0.072550219,0.022816273,1,0,0,0.9823,rock_grid_rect_2,6,07,-1,-1,0.982,0.420684586,-0.242229782,1,0,0,0.7737,Gabbro_rect,4,0.774,0,13,0,13,0,1,,,,,,,,,,,,,
65faa015b08626882ddef940,TCR,2024-06-11_18h22.33.944,LearnStrategy,2023.2.3,MacIntel,59.88023952,1,1,15,0.0230472,0.002927248,1,0,0,1.0466,rock_grid_rect_2,4,01,-1,-1,1.047,0.331426285,-0.246825562,1,0,0,1.095,Gabbro_rect,4,1.095,1,14,0,14,0,1,,,,,,,,,,,,,
65faa015b08626882ddef940,TCR,2024-06-11_18h22.33.944,LearnStrategy,2023.2.3,MacIntel,59.88023952,1,1,16,0.034476478,-0.019501978,1,0,0,1.0473,rock_grid_rect_2,5,14,-1,-1,1.047,0.306193407,-0.405027061,1,0,0,1.8624,Pumice_rect,8,1.862,0,15,0,15,0,1,,,,,,,,,,,,,
65faa015b08626882ddef940,TCR,2024-06-11_18h22.33.944,LearnStrategy,2023.2.3,MacIntel,59.88023952,1,2,1,,,,,,,,7,04,,,,,,,,,,,8,6.209,0,,,,,,0.368351894,-0.379537235,1,0,0,6.2089,Pumice_rect,0,0,0,0,1,
65faa015b08626882ddef940,TCR,2024-06-11_18h22.33.944,LearnStrategy,2023.2.3,MacIntel,59.88023952,1,2,2,,,,,,,,5,12,,,,,,,,,,,3,2.845,0,,,,,,0.12043024,-0.228331859,1,0,0,2.8448,Diorite_rect,1,0,1,0,1,
65faa015b08626882ddef940,TCR,2024-06-11_18h22.33.944,LearnStrategy,2023.2.3,MacIntel,59.88023952,1,2,3,,,,,,,,1,11,,,,,,,,,,,3,0.016,0,,,,,,0.12043024,-0.228331859,1,0,0,0.0157,Diorite_rect,2,0,2,0,1,
65faa015b08626882ddef940,TCR,2024-06-11_18h22.33.944,LearnStrategy,2023.2.3,MacIntel,59.88023952,1,2,4,,,,,,,,4,16,,,,,,,,,,,2,0.396,0,,,,,,-0.063953867,-0.254085137,1,0,0,0.3964,Basalt_rect,3,0,3,0,1,
65faa015b08626882ddef940,TCR,2024-06-11_18h22.33.944,LearnStrategy,2023.2.3,MacIntel,59.88023952,1,2,5,,,,,,,,2,10,,,,,,,,,,,6,0.88,0,,,,,,-0.080915643,-0.403179642,1,0,0,0.8799,Pegmatite_rect,4,0,4,0,1,
65faa015b08626882ddef940,TCR,2024-06-11_18h22.33.944,LearnStrategy,2023.2.3,MacIntel,59.88023952,1,2,6,,,,,,,,2,02,,,,,,,,,,,6,0.413,0,,,,,,-0.080915643,-0.403179642,1,0,0,0.4132,Pegmatite_rect,5,0,5,0,1,
65faa015b08626882ddef940,TCR,2024-06-11_18h22.33.944,LearnStrategy,2023.2.3,MacIntel,59.88023952,1,2,7,,,,,,,,6,12,,,,,,,,,,,6,0.022,1,,,,,,-0.080915643,-0.403179642,1,0,0,0.0218,Pegmatite_rect,6,0,6,0,1,
65faa015b08626882ddef940,TCR,2024-06-11_18h22.33.944,LearnStrategy,2023.2.3,MacIntel,59.88023952,1,2,8,,,,,,,,6,13,,,,,,,,,,,4,2.476,0,,,,,,0.364679824,-0.262437552,1,0,0,2.4758,Gabbro_rect,7,0,7,0,1,
65faa015b08626882ddef940,TCR,2024-06-11_18h22.33.944,LearnStrategy,2023.2.3,MacIntel,59.88023952,1,2,9,,,,,,,,7,14,,,,,,,,,,,8,3.412,0,,,,,,0.384191559,-0.384770504,1,0,0,3.4117,Pumice_rect,8,0,8,0,1,
65faa015b08626882ddef940,TCR,2024-06-11_18h22.33.944,LearnStrategy,2023.2.3,MacIntel,59.88023952,1,2,10,,,,,,,,4,11,,,,,,,,,,,1,1.211,0,,,,,,-0.374756063,-0.252767876,1,0,0,1.2109,Andesite_rect,9,0,9,0,1,
65faa015b08626882ddef940,TCR,2024-06-11_18h22.33.944,LearnStrategy,2023.2.3,MacIntel,59.88023952,1,2,11,,,,,,,,3,06,,,,,,,,,,,2,4.143,0,,,,,,-0.223524667,-0.260053471,1,0,0,4.1433,Basalt_rect,10,0,10,0,1,
65faa015b08626882ddef940,TCR,2024-06-11_18h22.33.944,LearnStrategy,2023.2.3,MacIntel,59.88023952,1,2,12,,,,,,,,3,11,,,,,,,,,,,3,1.562,1,,,,,,0.146453476,-0.266568224,1,0,0,1.5617,Diorite_rect,11,0,11,0,1,
65faa015b08626882ddef940,TCR,2024-06-11_18h22.33.944,LearnStrategy,2023.2.3,MacIntel,59.88023952,1,2,13,,,,,,,,5,06,,,,,,,,,,,7,0.51,0,,,,,,0.210576473,-0.397647143,1,0,0,0.5102,Peridotite_rect,12,0,12,0,1,
65faa015b08626882ddef940,TCR,2024-06-11_18h22.33.944,LearnStrategy,2023.2.3,MacIntel,59.88023952,1,2,14,,,,,,,,1,01,,,,,,,,,,,4,0.425,0,,,,,,0.391164915,-0.26940115,1,0,0,0.4245,Gabbro_rect,13,0,13,0,1,
65faa015b08626882ddef940,TCR,2024-06-11_18h22.33.944,LearnStrategy,2023.2.3,MacIntel,59.88023952,1,2,15,,,,,,,,8,08,,,,,,,,,,,8,0.744,1,,,,,,0.392774901,-0.379029845,1,0,0,0.744,Pumice_rect,14,0,14,0,1,
65faa015b08626882ddef940,TCR,2024-06-11_18h22.33.944,LearnStrategy,2023.2.3,MacIntel,59.88023952,1,2,16,,,,,,,,8,16,,,,,,,,,,,4,0.611,0,,,,,,0.373633951,-0.266122632,1,0,0,0.6109,Gabbro_rect,15,0,15,0,1,
65faa015b08626882ddef940,TCR,2024-06-11_18h22.33.944,LearnStrategy,2023.2.3,MacIntel,59.88023952,2,1,1,0.046605043,-0.011962687,1,0,0,2.1476,rock_grid_rect_2,8,04,-1,-1,2.148,-0.359137568,-0.228832744,1,0,0,1.1275,Andesite_rect,1,1.127,0,0,0,0,0,1,,,,,,,,,,,,,
65faa015b08626882ddef940,TCR,2024-06-11_18h22.33.944,LearnStrategy,2023.2.3,MacIntel,59.88023952,2,1,2,0.012190362,0.006856266,1,0,0,3.6311,rock_grid_rect_2,3,14,-1,-1,3.631,0.397611366,-0.418446867,1,0,0,1.3266,Pumice_rect,8,1.327,0,1,0,1,0,1,,,,,,,,,,,,,
65faa015b08626882ddef940,TCR,2024-06-11_18h22.33.944,LearnStrategy,2023.2.3,MacIntel,59.88023952,2,1,3,-0.09005191,-0.020627342,1,0,0,2.8666,rock_grid_rect_2,5,05,-1,-1,2.867,-0.180620967,-0.414238135,1,0,0,1.043,Pegmatite_rect,6,1.043,0,2,0,2,0,1,,,,,,,,,,,,,
65faa015b08626882ddef940,TCR,2024-06-11_18h22.33.944,LearnStrategy,2023.2.3,MacIntel,59.88023952,2,1,4,0.099425609,0.022507286,1,0,0,0.9142,rock_grid_rect_2,6,07,-1,-1,0.914,0.158692626,-0.270988369,1,0,0,0.7427,Diorite_rect,3,0.743,0,3,0,3,0,1,,,,,,,,,,,,,
65faa015b08626882ddef940,TCR,2024-06-11_18h22.33.944,LearnStrategy,2023.2.3,MacIntel,59.88023952,2,1,5,0.104834513,0.000900942,1,0,0,0.9308,rock_grid_rect_2,1,06,-1,-1,0.931,0.348726322,-0.408445436,1,0,0,0.8939,Pumice_rect,8,0.894,0,4,0,4,0,1,,,,,,,,,,,,,
65faa015b08626882ddef940,TCR,2024-06-11_18h22.33.944,LearnStrategy,2023.2.3,MacIntel,59.88023952,2,1,6,-0.05143175,-0.010515326,1,0,0,0.8501,rock_grid_rect_2,4,13,-1,-1,0.85,-0.140862432,-0.24168011,1,0,0,0.7291,Basalt_rect,2,0.729,0,5,0,5,0,1,,,,,,,,,,,,,
65faa015b08626882ddef940,TCR,2024-06-11_18h22.33.944,LearnStrategy,2023.2.3,MacIntel,59.88023952,2,1,7,-0.009087479,0.008173527,1,0,0,1.1338,rock_grid_rect_2,7,13,-1,-1,1.134,-0.095551884,-0.38673176,1,0,0,0.9592,Pegmatite_rect,6,0.959,0,6,0,6,0,1,,,,,,,,,,,,,
65faa015b08626882ddef940,TCR,2024-06-11_18h22.33.944,LearnStrategy,2023.2.3,MacIntel,59.88023952,2,1,8,0.041901931,0.013029507,1,0,0,2.8614,rock_grid_rect_2,4,14,-1,-1,2.861,0.102899277,-0.40625,1,0,0,0.9286,Peridotite_rect,7,0.929,0,7,0,7,0,1,,,,,,,,,,,,,
65faa015b08626882ddef940,TCR,2024-06-11_18h22.33.944,LearnStrategy,2023.2.3,MacIntel,59.88023952,2,1,9,0.099256479,-0.022650396,1,0,0,1.3168,rock_grid_rect_2,5,04,-1,-1,1.317,0.088308571,-0.238882962,1,0,0,0.5286,Diorite_rect,3,0.529,0,8,0,8,0,1,,,,,,,,,,,,,
65faa015b08626882ddef940,TCR,2024-06-11_18h22.33.944,LearnStrategy,2023.2.3,MacIntel,59.88023952,2,1,10,-0.061472211,-0.022370681,1,0,0,0.8648,rock_grid_rect_2,7,15,-1,-1,0.865,-0.131563541,-0.268926285,1,0,0,1.6629,Basalt_rect,2,1.663,0,9,0,9,0,1,,,,,,,,,,,,,
65faa015b08626882ddef940,TCR,2024-06-11_18h22.33.944,LearnStrategy,2023.2.3,MacIntel,59.88023952,2,1,11,-0.07432283,0.002211699,1,0,0,2.6983,rock_grid_rect_2,1,05,-1,-1,2.698,-0.346592683,-0.249691013,1,0,0,2.1639,Andesite_rect,1,2.164,1,10,0,10,0,1,,,,,,,,,,,,,
65faa015b08626882ddef940,TCR,2024-06-11_18h22.33.944,LearnStrategy,2023.2.3,MacIntel,59.88023952,2,1,12,-0.025011709,-0.002091356,1,0,0,1.3153,rock_grid_rect_2,2,01,-1,-1,1.315,0.34737003,-0.23005243,1,0,0,1.3121,Gabbro_rect,4,1.312,0,11,0,11,0,1,,,,,,,,,,,,,
65faa015b08626882ddef940,TCR,2024-06-11_18h22.33.944,LearnStrategy,2023.2.3,MacIntel,59.88023952,2,1,13,0.095971456,0.004836464,1,0,0,0.7147,rock_grid_rect_2,4,12,-1,-1,0.715,0.101321815,-0.259282629,1,0,0,1.746,Diorite_rect,3,1.746,0,12,0,12,0,1,,,,,,,,,,,,,
65faa015b08626882ddef940,TCR,2024-06-11_18h22.33.944,LearnStrategy,2023.2.3,MacIntel,59.88023952,2,1,14,0.023239098,0.005467449,1,0,0,1.8987,rock_grid_rect_2,1,06,-1,-1,1.899,-0.200532759,-0.387951447,1,0,0,2.3591,Pegmatite_rect,6,2.359,0,13,0,13,0,1,,,,,,,,,,,,,
65faa015b08626882ddef940,TCR,2024-06-11_18h22.33.944,LearnStrategy,2023.2.3,MacIntel,59.88023952,2,1,15,0.002354808,-0.002071841,1,0,0,1.3824,rock_grid_rect_2,2,04,-1,-1,1.382,0.112155886,-0.243426702,1,0,0,1.6958,Diorite_rect,3,1.696,0,14,0,14,0,1,,,,,,,,,,,,,
65faa015b08626882ddef940,TCR,2024-06-11_18h22.33.944,LearnStrategy,2023.2.3,MacIntel,59.88023952,2,1,16,0.14503864,-0.015654272,1,0,0,1.2791,rock_grid_rect_2,2,01,-1,-1,1.279,0.42951837,-0.265137125,1,0,0,0.9498,Gabbro_rect,4,0.95,0,15,0,15,0,1,,,,,,,,,,,,,
65faa015b08626882ddef940,TCR,2024-06-11_18h22.33.944,LearnStrategy,2023.2.3,MacIntel,59.88023952,2,2,1,,,,,,,,5,10,,,,,,,,,,,4,1.977,0,,,,,,0.378369588,-0.240548241,1,0,0,1.9769,Gabbro_rect,0,0,0,0,1,
65faa015b08626882ddef940,TCR,2024-06-11_18h22.33.944,LearnStrategy,2023.2.3,MacIntel,59.88023952,2,2,2,,,,,,,,3,15,,,,,,,,,,,7,0.646,0,,,,,,0.162556593,-0.420704101,1,0,0,0.6464,Peridotite_rect,1,0,1,0,1,
65faa015b08626882ddef940,TCR,2024-06-11_18h22.33.944,LearnStrategy,2023.2.3,MacIntel,59.88023952,2,2,3,,,,,,,,5,07,,,,,,,,,,,6,0.712,0,,,,,,-0.170287781,-0.386165825,1,0,0,0.7125,Pegmatite_rect,2,0,2,0,1,
65faa015b08626882ddef940,TCR,2024-06-11_18h22.33.944,LearnStrategy,2023.2.3,MacIntel,59.88023952,2,2,4,,,,,,,,6,05,,,,,,,,,,,6,0.178,1,,,,,,-0.170287781,-0.386165825,1,0,0,0.1777,Pegmatite_rect,3,0,3,0,1,
65faa015b08626882ddef940,TCR,2024-06-11_18h22.33.944,LearnStrategy,2023.2.3,MacIntel,59.88023952,2,2,5,,,,,,,,8,15,,,,,,,,,,,2,2.248,0,,,,,,-0.178500338,-0.26101621,1,0,0,2.2477,Basalt_rect,4,0,4,0,1,
65faa015b08626882ddef940,TCR,2024-06-11_18h22.33.944,LearnStrategy,2023.2.3,MacIntel,59.88023952,2,2,6,,,,,,,,7,08,,,,,,,,,,,5,0.379,0,,,,,,-0.359368495,-0.411606864,1,0,0,0.3788,Obsidian_rect,5,0,5,0,1,
65faa015b08626882ddef940,TCR,2024-06-11_18h22.33.944,LearnStrategy,2023.2.3,MacIntel,59.88023952,2,2,7,,,,,,,,1,16,,,,,,,,,,,3,0.762,0,,,,,,0.156959045,-0.258544312,1,0,0,0.762,Diorite_rect,6,0,6,0,1,
65faa015b08626882ddef940,TCR,2024-06-11_18h22.33.944,LearnStrategy,2023.2.3,MacIntel,59.88023952,2,2,8,,,,,,,,7,02,,,,,,,,,,,4,0.841,0,,,,,,0.344407005,-0.250201655,1,0,0,0.8411,Gabbro_rect,7,0,7,0,1,
65faa015b08626882ddef940,TCR,2024-06-11_18h22.33.944,LearnStrategy,2023.2.3,MacIntel,59.88023952,2,2,9,,,,,,,,2,16,,,,,,,,,,,8,1.892,0,,,,,,0.337469427,-0.396235559,1,0,0,1.8923,Pumice_rect,8,0,8,0,1,
65faa015b08626882ddef940,TCR,2024-06-11_18h22.33.944,LearnStrategy,2023.2.3,MacIntel,59.88023952,2,2,10,,,,,,,,3,08,,,,,,,,,,,7,0.36,0,,,,,,0.166082301,-0.403641497,1,0,0,0.3597,Peridotite_rect,9,0,9,0,1,
65faa015b08626882ddef940,TCR,2024-06-11_18h22.33.944,LearnStrategy,2023.2.3,MacIntel,59.88023952,2,2,11,,,,,,,,8,06,,,,,,,,,,,2,0.478,0,,,,,,-0.060187474,-0.232364956,1,0,0,0.4784,Basalt_rect,10,0,10,0,1,
65faa015b08626882ddef940,TCR,2024-06-11_18h22.33.944,LearnStrategy,2023.2.3,MacIntel,59.88023952,2,2,12,,,,,,,,2,05,,,,,,,,,,,1,0.644,0,,,,,,-0.317297434,-0.251154637,1,0,0,0.6439,Andesite_rect,11,0,11,0,1,
65faa015b08626882ddef940,TCR,2024-06-11_18h22.33.944,LearnStrategy,2023.2.3,MacIntel,59.88023952,2,2,13,,,,,,,,1,04,,,,,,,,,,,6,0.329,0,,,,,,-0.132910075,-0.403114592,1,0,0,0.3295,Pegmatite_rect,12,0,12,0,1,
65faa015b08626882ddef940,TCR,2024-06-11_18h22.33.944,LearnStrategy,2023.2.3,MacIntel,59.88023952,2,2,14,,,,,,,,4,05,,,,,,,,,,,3,0.493,0,,,,,,0.088825718,-0.25782551,1,0,0,0.4932,Diorite_rect,13,0,13,0,1,
65faa015b08626882ddef940,TCR,2024-06-11_18h22.33.944,LearnStrategy,2023.2.3,MacIntel,59.88023952,2,2,15,,,,,,,,6,09,,,,,,,,,,,4,0.628,0,,,,,,0.348687292,-0.248669728,1,0,0,0.6278,Gabbro_rect,14,0,14,0,1,
65faa015b08626882ddef940,TCR,2024-06-11_18h22.33.944,LearnStrategy,2023.2.3,MacIntel,59.88023952,2,2,16,,,,,,,,4,15,,,,,,,,,,,4,1.026,1,,,,,,0.348687292,-0.248669728,1,0,0,1.0255,Gabbro_rect,15,0,15,0,1,
65faa015b08626882ddef940,TCR,2024-06-11_18h22.33.944,LearnStrategy,2023.2.3,MacIntel,59.88023952,3,1,1,0.021710424,0.023404975,1,0,0,5.8335,rock_grid_rect_2,3,09,-1,-1,5.834,-0.14501262,-0.246334435,1,0,0,0.9609,Basalt_rect,2,0.961,0,0,0,0,0,1,,,,,,,,,,,,,
65faa015b08626882ddef940,TCR,2024-06-11_18h22.33.944,LearnStrategy,2023.2.3,MacIntel,59.88023952,3,1,2,0.041700276,-0.00018214,1,0,0,0.7993,rock_grid_rect_2,1,03,-1,-1,0.799,0.147897585,-0.407466434,1,0,0,1.4446,Peridotite_rect,7,1.445,0,1,0,1,0,1,,,,,,,,,,,,,
65faa015b08626882ddef940,TCR,2024-06-11_18h22.33.944,LearnStrategy,2023.2.3,MacIntel,59.88023952,3,1,3,0.155882468,-0.016899979,1,0,0,1.3159,rock_grid_rect_2,2,04,-1,-1,1.316,0.391125885,-0.397624376,1,0,0,1.7438,Pumice_rect,8,1.744,0,2,0,2,0,1,,,,,,,,,,,,,
65faa015b08626882ddef940,TCR,2024-06-11_18h22.33.944,LearnStrategy,2023.2.3,MacIntel,59.88023952,3,1,4,0.093053965,0.012626197,1,0,0,0.7652,rock_grid_rect_2,7,06,-1,-1,0.765,-0.139720806,-0.382692158,1,0,0,1.1934,Pegmatite_rect,6,1.193,0,3,0,3,0,1,,,,,,,,,,,,,
65faa015b08626882ddef940,TCR,2024-06-11_18h22.33.944,LearnStrategy,2023.2.3,MacIntel,59.88023952,3,1,5,0.044588494,-0.00380217,1,0,0,1.1336,rock_grid_rect_2,4,12,-1,-1,1.134,-0.415295197,-0.402535647,1,0,0,1.1098,Obsidian_rect,5,1.11,0,4,0,4,0,1,,,,,,,,,,,,,
65faa015b08626882ddef940,TCR,2024-06-11_18h22.33.944,LearnStrategy,2023.2.3,MacIntel,59.88023952,3,1,6,0.177690466,-0.018057868,1,0,0,1.5472,rock_grid_rect_2,2,09,-1,-1,1.547,0.397113733,-0.245514805,1,0,0,0.6459,Gabbro_rect,4,0.646,0,5,0,5,0,1,,,,,,,,,,,,,
65faa015b08626882ddef940,TCR,2024-06-11_18h22.33.944,LearnStrategy,2023.2.3,MacIntel,59.88023952,3,1,7,0.006049646,-0.022221066,1,0,0,1.3508,rock_grid_rect_2,1,03,-1,-1,1.351,0.150993963,-0.262844114,1,0,0,0.8739,Diorite_rect,3,0.874,0,6,0,6,0,1,,,,,,,,,,,,,
65faa015b08626882ddef940,TCR,2024-06-11_18h22.33.944,LearnStrategy,2023.2.3,MacIntel,59.88023952,3,1,8,0.143535986,-0.006404168,1,0,0,0.8975,rock_grid_rect_2,1,14,-1,-1,0.897,0.37122385,-0.383049932,1,0,0,0.8309,Pumice_rect,8,0.831,0,7,0,7,0,1,,,,,,,,,,,,,
65faa015b08626882ddef940,TCR,2024-06-11_18h22.33.944,LearnStrategy,2023.2.3,MacIntel,59.88023952,3,1,9,0.021095701,0.016821919,1,0,0,1.031,rock_grid_rect_2,5,09,-1,-1,1.031,-0.104044156,-0.243732437,1,0,0,1.4937,Basalt_rect,2,1.494,0,8,0,8,0,1,,,,,,,,,,,,,
65faa015b08626882ddef940,TCR,2024-06-11_18h22.33.944,LearnStrategy,2023.2.3,MacIntel,59.88023952,3,1,10,0.011513843,-0.012138322,1,0,0,1.0832,rock_grid_rect_2,4,13,-1,-1,1.083,0.13264337,-0.264860663,1,0,0,1.2597,Diorite_rect,3,1.26,0,9,0,9,0,1,,,,,,,,,,,,,
65faa015b08626882ddef940,TCR,2024-06-11_18h22.33.944,LearnStrategy,2023.2.3,MacIntel,59.88023952,3,1,11,0.064210814,-0.005187734,1,0,0,1.698,rock_grid_rect_2,3,16,-1,-1,1.698,-0.120540825,-0.399764519,1,0,0,1.5115,Pegmatite_rect,6,1.511,0,10,0,10,0,1,,,,,,,,,,,,,
65faa015b08626882ddef940,TCR,2024-06-11_18h22.33.944,LearnStrategy,2023.2.3,MacIntel,59.88023952,3,1,12,0.01608035,-0.004657577,1,0,0,1.5168,rock_grid_rect_2,8,14,-1,-1,1.517,-0.361043531,-0.253314295,1,0,0,0.8417,Andesite_rect,1,0.842,0,11,0,11,0,1,,,,,,,,,,,,,
65faa015b08626882ddef940,TCR,2024-06-11_18h22.33.944,LearnStrategy,2023.2.3,MacIntel,59.88023952,3,1,13,0.075051389,0.010996695,1,0,0,1.2638,rock_grid_rect_2,5,14,-1,-1,1.264,0.37072947,-0.39092423,1,0,0,1.2815,Pumice_rect,8,1.281,0,12,0,12,0,1,,,,,,,,,,,,,
65faa015b08626882ddef940,TCR,2024-06-11_18h22.33.944,LearnStrategy,2023.2.3,MacIntel,59.88023952,3,1,14,0.032404637,0.000800114,1,0,0,1.0176,rock_grid_rect_2,8,10,-1,-1,1.018,0.089056646,-0.238014545,1,0,0,0.9596,Diorite_rect,3,0.96,0,13,0,13,0,1,,,,,,,,,,,,,
65faa015b08626882ddef940,TCR,2024-06-11_18h22.33.944,LearnStrategy,2023.2.3,MacIntel,59.88023952,3,1,15,0.078798267,-0.008954127,1,0,0,0.9661,rock_grid_rect_2,6,10,-1,-1,0.966,-0.053389753,-0.39916606,1,0,0,0.8942,Pegmatite_rect,6,0.894,1,14,0,14,0,1,,,,,,,,,,,,,
65faa015b08626882ddef940,TCR,2024-06-11_18h22.33.944,LearnStrategy,2023.2.3,MacIntel,59.88023952,3,1,16,0.127068589,0.005379632,1,0,0,0.849,rock_grid_rect_2,7,15,-1,-1,0.849,0.146538041,-0.245853065,1,0,0,1.8922,Diorite_rect,3,1.892,0,15,0,15,0,1,,,,,,,,,,,,,
65faa015b08626882ddef940,TCR,2024-06-11_18h22.33.944,LearnStrategy,2023.2.3,MacIntel,59.88023952,3,2,1,,,,,,,,4,03,,,,,,,,,,,3,0.877,0,,,,,,0.083439582,-0.233126041,1,0,0,0.8773,Diorite_rect,0,0,0,0,1,
65faa015b08626882ddef940,TCR,2024-06-11_18h22.33.944,LearnStrategy,2023.2.3,MacIntel,59.88023952,3,2,2,,,,,,,,3,02,,,,,,,,,,,2,0.327,0,,,,,,-0.083999011,-0.229144983,1,0,0,0.3274,Basalt_rect,1,0,1,0,1,
65faa015b08626882ddef940,TCR,2024-06-11_18h22.33.944,LearnStrategy,2023.2.3,MacIntel,59.88023952,3,2,3,,,,,,,,3,10,,,,,,,,,,,1,1.01,0,,,,,,-0.324169963,-0.265267225,1,0,0,1.01,Andesite_rect,2,0,2,0,1,
65faa015b08626882ddef940,TCR,2024-06-11_18h22.33.944,LearnStrategy,2023.2.3,MacIntel,59.88023952,3,2,4,,,,,,,,1,10,,,,,,,,,,,7,0.378,0,,,,,,0.166810861,-0.396886058,1,0,0,0.3776,Peridotite_rect,3,0,3,0,1,
65faa015b08626882ddef940,TCR,2024-06-11_18h22.33.944,LearnStrategy,2023.2.3,MacIntel,59.88023952,3,2,5,,,,,,,,6,08,,,,,,,,,,,4,0.294,0,,,,,,0.404727831,-0.246233607,1,0,0,0.2942,Gabbro_rect,4,0,4,0,1,
65faa015b08626882ddef940,TCR,2024-06-11_18h22.33.944,LearnStrategy,2023.2.3,MacIntel,59.88023952,3,2,6,,,,,,,,2,12,,,,,,,,,,,6,0.494,0,,,,,,-0.024260382,-0.409255308,1,0,0,0.4941,Pegmatite_rect,5,0,5,0,1,
65faa015b08626882ddef940,TCR,2024-06-11_18h22.33.944,LearnStrategy,2023.2.3,MacIntel,59.88023952,3,2,7,,,,,,,,7,16,,,,,,,,,,,5,0.327,0,,,,,,-0.315297148,-0.416622216,1,0,0,0.3272,Obsidian_rect,6,0,6,0,1,
65faa015b08626882ddef940,TCR,2024-06-11_18h22.33.944,LearnStrategy,2023.2.3,MacIntel,59.88023952,3,2,8,,,,,,,,4,08,,,,,,,,,,,2,1.829,0,,,,,,-0.124216148,-0.25790357,1,0,0,1.8286,Basalt_rect,7,0,7,0,1,
65faa015b08626882ddef940,TCR,2024-06-11_18h22.33.944,LearnStrategy,2023.2.3,MacIntel,59.88023952,3,2,9,,,,,,,,5,16,,,,,,,,,,,7,0.159,0,,,,,,0.098466122,-0.392755386,1,0,0,0.1595,Peridotite_rect,8,0,8,0,1,
65faa015b08626882ddef940,TCR,2024-06-11_18h22.33.944,LearnStrategy,2023.2.3,MacIntel,59.88023952,3,2,10,,,,,,,,7,12,,,,,,,,,,,8,0.279,0,,,,,,0.387242402,-0.395877784,1,0,0,0.2787,Pumice_rect,9,0,9,0,1,
65faa015b08626882ddef940,TCR,2024-06-11_18h22.33.944,LearnStrategy,2023.2.3,MacIntel,59.88023952,3,2,11,,,,,,,,1,02,,,,,,,,,,,4,0.877,0,,,,,,0.402698272,-0.259936381,1,0,0,0.8773,Gabbro_rect,10,0,10,0,1,
65faa015b08626882ddef940,TCR,2024-06-11_18h22.33.944,LearnStrategy,2023.2.3,MacIntel,59.88023952,3,2,12,,,,,,,,8,09,,,,,,,,,,,2,0.893,0,,,,,,-0.160504267,-0.256166736,1,0,0,0.8934,Basalt_rect,11,0,11,0,1,
65faa015b08626882ddef940,TCR,2024-06-11_18h22.33.944,LearnStrategy,2023.2.3,MacIntel,59.88023952,3,2,13,,,,,,,,2,06,,,,,,,,,,,1,0.164,0,,,,,,-0.375126847,-0.23477831,1,0,0,0.1637,Andesite_rect,12,0,12,0,1,
65faa015b08626882ddef940,TCR,2024-06-11_18h22.33.944,LearnStrategy,2023.2.3,MacIntel,59.88023952,3,2,14,,,,,,,,8,02,,,,,,,,,,,6,0.392,0,,,,,,-0.123032239,-0.415204127,1,0,0,0.3919,Pegmatite_rect,13,0,13,0,1,
65faa015b08626882ddef940,TCR,2024-06-11_18h22.33.944,LearnStrategy,2023.2.3,MacIntel,59.88023952,3,2,15,,,,,,,,6,11,,,,,,,,,,,7,0.258,0,,,,,,0.136169078,-0.405840185,1,0,0,0.2581,Peridotite_rect,14,0,14,0,1,
65faa015b08626882ddef940,TCR,2024-06-11_18h22.33.944,LearnStrategy,2023.2.3,MacIntel,59.88023952,3,2,16,,,,,,,,5,08,,,,,,,,,,,3,0.213,0,,,,,,0.122459799,-0.269902035,1,0,0,0.2126,Diorite_rect,15,0,15,0,1,
65faa015b08626882ddef940,TCR,2024-06-11_18h22.33.944,LearnStrategy,2023.2.3,MacIntel,59.88023952,4,1,1,0.026433051,-0.009051702,1,0,0,1.0611,rock_grid_rect_2,4,14,-1,-1,1.061,-0.138120577,-0.260381973,1,0,0,0.862,Basalt_rect,2,0.862,0,0,0,0,0,1,,,,,,,,,,,,,
65faa015b08626882ddef940,TCR,2024-06-11_18h22.33.944,LearnStrategy,2023.2.3,MacIntel,59.88023952,4,1,2,-0.107839821,-0.018142433,1,0,0,1.4668,rock_grid_rect_2,6,15,-1,-1,1.467,-0.358600905,-0.246773522,1,0,0,1.1105,Andesite_rect,1,1.111,0,1,0,1,0,1,,,,,,,,,,,,,
65faa015b08626882ddef940,TCR,2024-06-11_18h22.33.944,LearnStrategy,2023.2.3,MacIntel,59.88023952,4,1,3,-0.000709045,0.015634757,1,0,0,0.8672,rock_grid_rect_2,8,03,-1,-1,0.867,-0.048898054,-0.386878122,1,0,0,1.095,Pegmatite_rect,6,1.095,0,2,0,2,0,1,,,,,,,,,,,,,
65faa015b08626882ddef940,TCR,2024-06-11_18h22.33.944,LearnStrategy,2023.2.3,MacIntel,59.88023952,4,1,4,0.089915305,3.2525E-05,1,0,0,3.4301,rock_grid_rect_2,7,10,-1,-1,3.43,0.12873712,-0.244064191,1,0,0,1.4622,Diorite_rect,3,1.462,0,3,0,3,0,1,,,,,,,,,,,,,
65faa015b08626882ddef940,TCR,2024-06-11_18h22.33.944,LearnStrategy,2023.2.3,MacIntel,59.88023952,4,1,5,0.122378487,0.004917777,1,0,0,0.7825,rock_grid_rect_2,3,12,-1,-1,0.783,0.399182322,-0.397256843,1,0,0,1.4772,Pumice_rect,8,1.477,0,4,0,4,0,1,,,,,,,,,,,,,
65faa015b08626882ddef940,TCR,2024-06-11_18h22.33.944,LearnStrategy,2023.2.3,MacIntel,59.88023952,4,1,6,0.011074755,-0.012190362,1,0,0,0.9317,rock_grid_rect_2,8,10,-1,-1,0.932,-0.138549906,-0.406867975,1,0,0,1.177,Pegmatite_rect,6,1.177,0,5,0,5,0,1,,,,,,,,,,,,,
65faa015b08626882ddef940,TCR,2024-06-11_18h22.33.944,LearnStrategy,2023.2.3,MacIntel,59.88023952,4,1,7,-0.063566819,0.009620889,1,0,0,1.4288,rock_grid_rect_2,5,05,-1,-1,1.429,-0.380379632,-0.245059456,1,0,0,0.7967,Andesite_rect,1,0.797,0,6,0,6,0,1,,,,,,,,,,,,,
65faa015b08626882ddef940,TCR,2024-06-11_18h22.33.944,LearnStrategy,2023.2.3,MacIntel,59.88023952,4,1,8,0.065072726,0.002445878,1,0,0,1.0145,rock_grid_rect_2,6,16,-1,-1,1.015,0.13210996,-0.245459513,1,0,0,0.8628,Diorite_rect,3,0.863,0,7,0,7,0,1,,,,,,,,,,,,,
65faa015b08626882ddef940,TCR,2024-06-11_18h22.33.944,LearnStrategy,2023.2.3,MacIntel,59.88023952,4,1,9,0.096797591,-0.003808675,1,0,0,0.9978,rock_grid_rect_2,1,09,-1,-1,0.998,0.371659685,-0.264971248,1,0,0,2.2631,Gabbro_rect,4,2.263,0,8,0,8,0,1,,,,,,,,,,,,,
65faa015b08626882ddef940,TCR,2024-06-11_18h22.33.944,LearnStrategy,2023.2.3,MacIntel,59.88023952,4,1,10,0.08192717,0.004007077,1,0,0,0.8007,rock_grid_rect_2,1,09,-1,-1,0.801,-0.145578554,-0.405993053,1,0,0,1.7758,Pegmatite_rect,6,1.776,0,9,0,9,0,1,,,,,,,,,,,,,
65faa015b08626882ddef940,TCR,2024-06-11_18h22.33.944,LearnStrategy,2023.2.3,MacIntel,59.88023952,4,1,11,-0.019238525,-0.009341174,1,0,0,1.0149,rock_grid_rect_2,7,13,-1,-1,1.015,-0.463445176,-0.381667621,1,0,0,0.8407,Obsidian_rect,5,0.841,0,10,0,10,0,1,,,,,,,,,,,,,
65faa015b08626882ddef940,TCR,2024-06-11_18h22.33.944,LearnStrategy,2023.2.3,MacIntel,59.88023952,4,1,12,0.074069135,0.000361027,1,0,0,0.9329,rock_grid_rect_2,2,01,-1,-1,0.933,0.389249193,-0.385359206,1,0,0,0.8938,Pumice_rect,8,0.894,0,11,0,11,0,1,,,,,,,,,,,,,
65faa015b08626882ddef940,TCR,2024-06-11_18h22.33.944,LearnStrategy,2023.2.3,MacIntel,59.88023952,4,1,13,0.110428809,0.017143917,1,0,0,0.9805,rock_grid_rect_2,5,14,-1,-1,0.981,-0.077724943,-0.261748022,1,0,0,1.5124,Basalt_rect,2,1.512,0,12,0,12,0,1,,,,,,,,,,,,,
65faa015b08626882ddef940,TCR,2024-06-11_18h22.33.944,LearnStrategy,2023.2.3,MacIntel,59.88023952,4,1,14,0.094111027,-0.021059924,1,0,0,0.9,rock_grid_rect_2,4,14,-1,-1,0.9,0.117766445,-0.242496487,1,0,0,0.9109,Diorite_rect,3,0.911,0,13,0,13,0,1,,,,,,,,,,,,,
65faa015b08626882ddef940,TCR,2024-06-11_18h22.33.944,LearnStrategy,2023.2.3,MacIntel,59.88023952,4,1,15,0.16429668,-0.006078919,1,0,0,1.0314,rock_grid_rect_2,2,11,-1,-1,1.031,0.111095571,-0.270110195,1,0,0,1.8458,Diorite_rect,3,1.846,0,14,0,14,0,1,,,,,,,,,,,,,
65faa015b08626882ddef940,TCR,2024-06-11_18h22.33.944,LearnStrategy,2023.2.3,MacIntel,59.88023952,4,1,16,-0.012440805,-0.017166684,1,0,0,0.768,rock_grid_rect_2,3,16,-1,-1,0.768,-0.12157512,-0.264489878,1,0,0,0.7933,Basalt_rect,2,0.793,0,15,0,15,0,1,,,,,,,,,,,,,
65faa015b08626882ddef940,TCR,2024-06-11_18h22.33.944,LearnStrategy,2023.2.3,MacIntel,59.88023952,4,2,1,,,,,,,,2,16,,,,,,,,,,,6,2.161,0,,,,,,-0.082610195,-0.404721326,1,0,0,2.1606,Pegmatite_rect,0,0,0,0,1,
65faa015b08626882ddef940,TCR,2024-06-11_18h22.33.944,LearnStrategy,2023.2.3,MacIntel,59.88023952,4,2,2,,,,,,,,8,09,,,,,,,,,,,7,0.661,0,,,,,,0.155355563,-0.417155626,1,0,0,0.6607,Peridotite_rect,1,0,1,0,1,
65faa015b08626882ddef940,TCR,2024-06-11_18h22.33.944,LearnStrategy,2023.2.3,MacIntel,59.88023952,4,2,3,,,,,,,,4,08,,,,,,,,,,,8,0.177,0,,,,,,0.350017563,-0.397051936,1,0,0,0.1768,Pumice_rect,2,0,2,0,1,
65faa015b08626882ddef940,TCR,2024-06-11_18h22.33.944,LearnStrategy,2023.2.3,MacIntel,59.88023952,4,2,4,,,,,,,,6,05,,,,,,,,,,,3,0.263,0,,,,,,0.194229418,-0.228566039,1,0,0,0.2626,Diorite_rect,3,0,3,0,1,
65faa015b08626882ddef940,TCR,2024-06-11_18h22.33.944,LearnStrategy,2023.2.3,MacIntel,59.88023952,4,2,5,,,,,,,,7,14,,,,,,,,,,,2,0.678,0,,,,,,-0.150509341,-0.23855446,1,0,0,0.6778,Basalt_rect,4,0,4,0,1,
65faa015b08626882ddef940,TCR,2024-06-11_18h22.33.944,LearnStrategy,2023.2.3,MacIntel,59.88023952,4,2,6,,,,,,,,5,08,,,,,,,,,,,6,0.343,0,,,,,,-0.138725541,-0.387310705,1,0,0,0.3428,Pegmatite_rect,5,0,5,0,1,
65faa015b08626882ddef940,TCR,2024-06-11_18h22.33.944,LearnStrategy,2023.2.3,MacIntel,59.88023952,4,2,7,,,,,,,,7,08,,,,,,,,,,,5,0.41,0,,,,,,-0.318035751,-0.407040357,1,0,0,0.4097,Obsidian_rect,6,0,6,0,1,
65faa015b08626882ddef940,TCR,2024-06-11_18h22.33.944,LearnStrategy,2023.2.3,MacIntel,59.88023952,4,2,8,,,,,,,,1,10,,,,,,,,,,,4,0.578,0,,,,,,0.408181984,-0.269576785,1,0,0,0.5782,Gabbro_rect,7,0,7,0,1,
65faa015b08626882ddef940,TCR,2024-06-11_18h22.33.944,LearnStrategy,2023.2.3,MacIntel,59.88023952,4,2,9,,,,,,,,8,08,,,,,,,,,,,1,0.658,0,,,,,,-0.318617949,-0.237139623,1,0,0,0.6577,Andesite_rect,8,0,8,0,1,
65faa015b08626882ddef940,TCR,2024-06-11_18h22.33.944,LearnStrategy,2023.2.3,MacIntel,59.88023952,4,2,10,,,,,,,,4,11,,,,,,,,,,,8,0.528,0,,,,,,0.317294182,-0.37817769,1,0,0,0.5282,Pumice_rect,9,0,9,0,1,
65faa015b08626882ddef940,TCR,2024-06-11_18h22.33.944,LearnStrategy,2023.2.3,MacIntel,59.88023952,4,2,11,,,,,,,,6,13,,,,,,,,,,,7,0.228,0,,,,,,0.204051962,-0.381563541,1,0,0,0.2283,Peridotite_rect,10,0,10,0,1,
65faa015b08626882ddef940,TCR,2024-06-11_18h22.33.944,LearnStrategy,2023.2.3,MacIntel,59.88023952,4,2,12,,,,,,,,3,08,,,,,,,,,,,4,0.996,0,,,,,,0.385219348,-0.262717267,1,0,0,0.9961,Gabbro_rect,11,0,11,0,1,
65faa015b08626882ddef940,TCR,2024-06-11_18h22.33.944,LearnStrategy,2023.2.3,MacIntel,59.88023952,4,2,13,,,,,,,,2,05,,,,,,,,,,,3,1.343,0,,,,,,0.029119614,-0.251076577,1,0,0,1.3427,Diorite_rect,12,0,12,0,1,
65faa015b08626882ddef940,TCR,2024-06-11_18h22.33.944,LearnStrategy,2023.2.3,MacIntel,59.88023952,4,2,14,,,,,,,,5,07,,,,,,,,,,,2,0.142,0,,,,,,-0.090982124,-0.244906588,1,0,0,0.142,Basalt_rect,13,0,13,0,1,
65faa015b08626882ddef940,TCR,2024-06-11_18h22.33.944,LearnStrategy,2023.2.3,MacIntel,59.88023952,4,2,15,,,,,,,,3,06,,,,,,,,,,,6,1.097,0,,,,,,-0.110760564,-0.38612029,1,0,0,1.0969,Pegmatite_rect,14,0,14,0,1,
65faa015b08626882ddef940,TCR,2024-06-11_18h22.33.944,LearnStrategy,2023.2.3,MacIntel,59.88023952,4,2,16,,,,,,,,1,04,,,,,,,,,,,7,0.259,0,,,,,,0.08597653,-0.396733191,1,0,0,0.259,Peridotite_rect,15,0,15,0,1,
65faa015b08626882ddef940,TCR,2024-06-11_18h22.33.944,LearnStrategy,2023.2.3,MacIntel,59.88023952,5,1,1,-0.045460163,-0.010206338,1,0,0,8.5829,rock_grid_rect_2,4,14,-1,-1,8.583,-0.191451785,-0.266311277,1,0,0,1.6795,Basalt_rect,2,1.679,0,0,0,0,0,1,,,,,,,,,,,,,
65faa015b08626882ddef940,TCR,2024-06-11_18h22.33.944,LearnStrategy,2023.2.3,MacIntel,59.88023952,5,1,2,-0.08277282,0.005197492,1,0,0,1.0808,rock_grid_rect_2,7,07,-1,-1,1.081,-0.364243989,-0.395737927,1,0,0,1.9461,Obsidian_rect,5,1.946,0,1,0,1,0,1,,,,,,,,,,,,,
65faa015b08626882ddef940,TCR,2024-06-11_18h22.33.944,LearnStrategy,2023.2.3,MacIntel,59.88023952,5,1,3,-0.035068433,0.015452618,1,0,0,1.0136,rock_grid_rect_2,2,04,-1,-1,1.014,0.058141653,-0.258986652,1,0,0,1.3765,Diorite_rect,3,1.376,0,2,0,2,0,1,,,,,,,,,,,,,
65faa015b08626882ddef940,TCR,2024-06-11_18h22.33.944,LearnStrategy,2023.2.3,MacIntel,59.88023952,5,1,4,0.043785127,0.005473954,1,0,0,1.0979,rock_grid_rect_2,3,13,-1,-1,1.098,-0.127686563,-0.243371409,1,0,0,1.0436,Basalt_rect,2,1.044,0,3,0,3,0,1,,,,,,,,,,,,,
65faa015b08626882ddef940,TCR,2024-06-11_18h22.33.944,LearnStrategy,2023.2.3,MacIntel,59.88023952,5,1,5,0.00429655,0.019358868,1,0,0,1.1499,rock_grid_rect_2,8,05,-1,-1,1.15,0.408624323,-0.258557322,1,0,0,1.5627,Gabbro_rect,4,1.563,0,4,0,4,0,1,,,,,,,,,,,,,
65faa015b08626882ddef940,TCR,2024-06-11_18h22.33.944,LearnStrategy,2023.2.3,MacIntel,59.88023952,5,1,6,0.055494119,-0.005861001,1,0,0,1.3329,rock_grid_rect_2,1,03,-1,-1,1.333,0.290454569,-0.388270192,1,0,0,0.9946,Pumice_rect,8,0.995,0,5,0,5,0,1,,,,,,,,,,,,,
65faa015b08626882ddef940,TCR,2024-06-11_18h22.33.944,LearnStrategy,2023.2.3,MacIntel,59.88023952,5,1,7,-0.03529936,-0.005834981,1,0,0,1.5976,rock_grid_rect_2,1,06,-1,-1,1.598,-0.227398392,-0.269693875,1,0,0,1.0768,Basalt_rect,2,1.077,0,6,0,6,0,1,,,,,,,,,,,,,
65faa015b08626882ddef940,TCR,2024-06-11_18h22.33.944,LearnStrategy,2023.2.3,MacIntel,59.88023952,5,1,8,-0.092224578,-0.01635356,1,0,0,0.9814,rock_grid_rect_2,5,04,-1,-1,0.981,-0.335046316,-0.408949573,1,0,0,0.9455,Obsidian_rect,5,0.945,1,7,0,7,0,1,,,,,,,,,,,,,
65faa015b08626882ddef940,TCR,2024-06-11_18h22.33.944,LearnStrategy,2023.2.3,MacIntel,59.88023952,5,1,9,-0.046858738,-0.017127654,1,0,0,0.7981,rock_grid_rect_2,6,06,-1,-1,0.798,-0.335127628,-0.244041424,1,0,0,0.9085,Andesite_rect,1,0.909,0,8,0,8,0,1,,,,,,,,,,,,,
65faa015b08626882ddef940,TCR,2024-06-11_18h22.33.944,LearnStrategy,2023.2.3,MacIntel,59.88023952,5,1,10,0.001281484,0.001427847,1,0,0,0.9668,rock_grid_rect_2,3,14,-1,-1,0.967,0.087924776,-0.403521154,1,0,0,1.5254,Peridotite_rect,7,1.525,0,9,0,9,0,1,,,,,,,,,,,,,
65faa015b08626882ddef940,TCR,2024-06-11_18h22.33.944,LearnStrategy,2023.2.3,MacIntel,59.88023952,5,1,11,-0.037784268,-0.000621227,1,0,0,1.0347,rock_grid_rect_2,4,13,-1,-1,1.035,-0.094198845,-0.403810627,1,0,0,0.9749,Pegmatite_rect,6,0.975,0,10,0,10,0,1,,,,,,,,,,,,,
65faa015b08626882ddef940,TCR,2024-06-11_18h22.33.944,LearnStrategy,2023.2.3,MacIntel,59.88023952,5,1,12,0.032944551,-0.004007077,1,0,0,1.0138,rock_grid_rect_2,5,11,-1,-1,1.014,0.33181008,-0.382288848,1,0,0,1.3303,Pumice_rect,8,1.33,0,11,0,11,0,1,,,,,,,,,,,,,
65faa015b08626882ddef940,TCR,2024-06-11_18h22.33.944,LearnStrategy,2023.2.3,MacIntel,59.88023952,5,1,13,0.052749011,-0.022988655,1,0,0,1.5502,rock_grid_rect_2,6,10,-1,-1,1.55,-0.050602363,-0.236137854,1,0,0,0.8919,Basalt_rect,2,0.892,0,12,0,12,0,1,,,,,,,,,,,,,
65faa015b08626882ddef940,TCR,2024-06-11_18h22.33.944,LearnStrategy,2023.2.3,MacIntel,59.88023952,5,1,14,0.048631349,-0.010629163,1,0,0,1.0474,rock_grid_rect_2,2,04,-1,-1,1.047,0.143548996,-0.257880802,1,0,0,0.71,Diorite_rect,3,0.71,0,13,0,13,0,1,,,,,,,,,,,,,
65faa015b08626882ddef940,TCR,2024-06-11_18h22.33.944,LearnStrategy,2023.2.3,MacIntel,59.88023952,5,1,15,0.105995655,0.010603143,1,0,0,1.2177,rock_grid_rect_2,8,03,-1,-1,1.218,0.312438203,-0.394976842,1,0,0,1.9236,Pumice_rect,8,1.924,1,14,0,14,0,1,,,,,,,,,,,,,
65faa015b08626882ddef940,TCR,2024-06-11_18h22.33.944,LearnStrategy,2023.2.3,MacIntel,59.88023952,5,1,16,0.000230927,-0.010856838,1,0,0,0.9324,rock_grid_rect_2,7,06,-1,-1,0.932,-0.405218958,-0.413522585,1,0,0,1.011,Obsidian_rect,5,1.011,0,15,0,15,0,1,,,,,,,,,,,,,
65faa015b08626882ddef940,TCR,2024-06-11_18h22.33.944,LearnStrategy,2023.2.3,MacIntel,59.88023952,5,2,1,,,,,,,,6,09,,,,,,,,,,,2,0.928,0,,,,,,-0.129185965,-0.250393552,1,0,0,0.9277,Basalt_rect,0,0,0,0,1,
65faa015b08626882ddef940,TCR,2024-06-11_18h22.33.944,LearnStrategy,2023.2.3,MacIntel,59.88023952,5,2,2,,,,,,,,4,03,,,,,,,,,,,1,1.213,0,,,,,,-0.386936667,-0.255639831,1,0,0,1.2133,Andesite_rect,1,0,1,0,1,
65faa015b08626882ddef940,TCR,2024-06-11_18h22.33.944,LearnStrategy,2023.2.3,MacIntel,59.88023952,5,2,3,,,,,,,,8,15,,,,,,,,,,,5,0.392,0,,,,,,-0.379533982,-0.398759497,1,0,0,0.3919,Obsidian_rect,2,0,2,0,1,
65faa015b08626882ddef940,TCR,2024-06-11_18h22.33.944,LearnStrategy,2023.2.3,MacIntel,59.88023952,5,2,4,,,,,,,,3,10,,,,,,,,,,,2,0.509,0,,,,,,-0.202780235,-0.258801259,1,0,0,0.5089,Basalt_rect,3,0,3,0,1,
65faa015b08626882ddef940,TCR,2024-06-11_18h22.33.944,LearnStrategy,2023.2.3,MacIntel,59.88023952,5,2,5,,,,,,,,5,16,,,,,,,,,,,1,0.443,0,,,,,,-0.325724657,-0.24944057,1,0,0,0.4432,Andesite_rect,4,0,4,0,1,
65faa015b08626882ddef940,TCR,2024-06-11_18h22.33.944,LearnStrategy,2023.2.3,MacIntel,59.88023952,5,2,6,,,,,,,,5,12,,,,,,,,,,,8,1.243,0,,,,,,0.347418818,-0.379130672,1,0,0,1.2428,Pumice_rect,5,0,5,0,1,
65faa015b08626882ddef940,TCR,2024-06-11_18h22.33.944,LearnStrategy,2023.2.3,MacIntel,59.88023952,5,2,7,,,,,,,,4,05,,,,,,,,,,,3,0.479,0,,,,,,0.137411532,-0.265956755,1,0,0,0.4791,Diorite_rect,6,0,6,0,1,
65faa015b08626882ddef940,TCR,2024-06-11_18h22.33.944,LearnStrategy,2023.2.3,MacIntel,59.88023952,5,2,8,,,,,,,,1,16,,,,,,,,,,,4,0.645,0,,,,,,0.381843256,-0.234605927,1,0,0,0.645,Gabbro_rect,7,0,7,0,1,
65faa015b08626882ddef940,TCR,2024-06-11_18h22.33.944,LearnStrategy,2023.2.3,MacIntel,59.88023952,5,2,9,,,,,,,,2,10,,,,,,,,,,,7,0.38,0,,,,,,0.134825796,-0.407251769,1,0,0,0.3796,Peridotite_rect,8,0,8,0,1,
65faa015b08626882ddef940,TCR,2024-06-11_18h22.33.944,LearnStrategy,2023.2.3,MacIntel,59.88023952,5,2,10,,,,,,,,3,11,,,,,,,,,,,1,1.674,0,,,,,,-0.337066117,-0.265361548,1,0,0,1.674,Andesite_rect,9,0,9,0,1,
65faa015b08626882ddef940,TCR,2024-06-11_18h22.33.944,LearnStrategy,2023.2.3,MacIntel,59.88023952,5,2,11,,,,,,,,1,02,,,,,,,,,,,6,0.413,0,,,,,,-0.062672382,-0.407850229,1,0,0,0.4126,Pegmatite_rect,10,0,10,0,1,
65faa015b08626882ddef940,TCR,2024-06-11_18h22.33.944,LearnStrategy,2023.2.3,MacIntel,59.88023952,5,2,12,,,,,,,,7,16,,,,,,,,,,,3,0.259,0,,,,,,0.126941741,-0.256557036,1,0,0,0.2588,Diorite_rect,11,0,11,0,1,
65faa015b08626882ddef940,TCR,2024-06-11_18h22.33.944,LearnStrategy,2023.2.3,MacIntel,59.88023952,5,2,13,,,,,,,,2,12,,,,,,,,,,,2,1.478,1,,,,,,-0.176217085,-0.241114176,1,0,0,1.4778,Basalt_rect,12,0,12,0,1,
65faa015b08626882ddef940,TCR,2024-06-11_18h22.33.944,LearnStrategy,2023.2.3,MacIntel,59.88023952,5,2,14,,,,,,,,8,02,,,,,,,,,,,5,0.293,0,,,,,,-0.34770829,-0.39377667,1,0,0,0.293,Obsidian_rect,13,0,13,0,1,
65faa015b08626882ddef940,TCR,2024-06-11_18h22.33.944,LearnStrategy,2023.2.3,MacIntel,59.88023952,5,2,15,,,,,,,,7,12,,,,,,,,,,,7,0.41,1,,,,,,0.08151085,-0.388123829,1,0,0,0.4101,Peridotite_rect,14,0,14,0,1,
65faa015b08626882ddef940,TCR,2024-06-11_18h22.33.944,LearnStrategy,2023.2.3,MacIntel,59.88023952,5,2,16,,,,,,,,6,12,,,,,,,,,,,8,0.327,0,,,,,,0.355699677,-0.381000859,1,0,0,0.3267,Pumice_rect,15,0,15,0,1,
65faa015b08626882ddef940,TCR,2024-06-11_18h22.33.944,LearnStrategy,2023.2.3,MacIntel,59.88023952,6,1,1,0.01123738,0.021824261,1,0,0,3.2141,rock_grid_rect_2,3,14,-1,-1,3.214,0.063706677,-0.23083303,1,0,0,4.015,Diorite_rect,3,4.015,1,0,0,0,0,1,,,,,,,,,,,,,
65faa015b08626882ddef940,TCR,2024-06-11_18h22.33.944,LearnStrategy,2023.2.3,MacIntel,59.88023952,6,1,2,-0.084955246,-0.010310418,1,0,0,0.9657,rock_grid_rect_2,4,01,-1,-1,0.966,-0.408780443,-0.256693641,1,0,0,0.9099,Andesite_rect,1,0.91,0,1,0,1,0,1,,,,,,,,,,,,,
65faa015b08626882ddef940,TCR,2024-06-11_18h22.33.944,LearnStrategy,2023.2.3,MacIntel,59.88023952,6,1,3,0.123549386,-0.014024771,1,0,0,1.278,rock_grid_rect_2,4,14,-1,-1,1.278,0.340728429,-0.247515092,1,0,0,1.5131,Gabbro_rect,4,1.513,1,2,0,2,0,1,,,,,,,,,,,,,
65faa015b08626882ddef940,TCR,2024-06-11_18h22.33.944,LearnStrategy,2023.2.3,MacIntel,59.88023952,6,1,4,0.025323949,0.013855641,1,0,0,1.166,rock_grid_rect_2,6,07,-1,-1,1.166,-0.127546706,-0.41390638,1,0,0,1.0961,Pegmatite_rect,6,1.096,1,3,0,3,0,1,,,,,,,,,,,,,
65faa015b08626882ddef940,TCR,2024-06-11_18h22.33.944,LearnStrategy,2023.2.3,MacIntel,59.88023952,6,1,5,0.067203112,-0.019788197,1,0,0,1.2312,rock_grid_rect_2,7,05,-1,-1,1.231,0.077142746,-0.241780938,1,0,0,0.8459,Diorite_rect,3,0.846,0,4,0,4,0,1,,,,,,,,,,,,,
65faa015b08626882ddef940,TCR,2024-06-11_18h22.33.944,LearnStrategy,2023.2.3,MacIntel,59.88023952,6,1,6,-0.004468932,-0.005626821,1,0,0,0.717,rock_grid_rect_2,3,14,-1,-1,0.717,-0.369662651,-0.256033384,1,0,0,0.9107,Andesite_rect,1,0.911,0,5,0,5,0,1,,,,,,,,,,,,,
65faa015b08626882ddef940,TCR,2024-06-11_18h22.33.944,LearnStrategy,2023.2.3,MacIntel,59.88023952,6,1,7,0.10140638,-0.011735012,1,0,0,1.1503,rock_grid_rect_2,1,03,-1,-1,1.15,0.355699677,-0.391044572,1,0,0,1.4438,Pumice_rect,8,1.444,0,6,0,6,0,1,,,,,,,,,,,,,
65faa015b08626882ddef940,TCR,2024-06-11_18h22.33.944,LearnStrategy,2023.2.3,MacIntel,59.88023952,6,1,8,0.040474084,0.009578606,1,0,0,0.7294,rock_grid_rect_2,8,03,-1,-1,0.729,-0.131241544,-0.248396519,1,0,0,0.9789,Basalt_rect,2,0.979,0,7,0,7,0,1,,,,,,,,,,,,,
65faa015b08626882ddef940,TCR,2024-06-11_18h22.33.944,LearnStrategy,2023.2.3,MacIntel,59.88023952,6,1,9,-0.064409216,0.007025396,1,0,0,0.9958,rock_grid_rect_2,8,13,-1,-1,0.996,-0.357342189,-0.418937994,1,0,0,1.8096,Obsidian_rect,5,1.81,0,8,0,8,0,1,,,,,,,,,,,,,
65faa015b08626882ddef940,TCR,2024-06-11_18h22.33.944,LearnStrategy,2023.2.3,MacIntel,59.88023952,6,1,10,-0.047932062,-0.004664082,1,0,0,1.0168,rock_grid_rect_2,2,01,-1,-1,1.017,-0.101546238,-0.398808285,1,0,0,1.3956,Pegmatite_rect,6,1.396,0,9,0,9,0,1,,,,,,,,,,,,,
65faa015b08626882ddef940,TCR,2024-06-11_18h22.33.944,LearnStrategy,2023.2.3,MacIntel,59.88023952,6,1,11,-0.007679148,0.003304538,1,0,0,1.1643,rock_grid_rect_2,6,16,-1,-1,1.164,-0.382415695,-0.230605355,1,0,0,1.0119,Andesite_rect,1,1.012,0,10,0,10,0,1,,,,,,,,,,,,,
65faa015b08626882ddef940,TCR,2024-06-11_18h22.33.944,LearnStrategy,2023.2.3,MacIntel,59.88023952,6,1,12,0.059475177,-0.005525994,1,0,0,1.0285,rock_grid_rect_2,1,09,-1,-1,1.029,0.105579335,-0.259523314,1,0,0,1.4271,Diorite_rect,3,1.427,0,11,0,11,0,1,,,,,,,,,,,,,
65faa015b08626882ddef940,TCR,2024-06-11_18h22.33.944,LearnStrategy,2023.2.3,MacIntel,59.88023952,6,1,13,0.007997892,-0.010040461,1,0,0,1.7641,rock_grid_rect_2,7,13,-1,-1,1.764,0.344920899,-0.398720467,1,0,0,2.0134,Pumice_rect,8,2.013,0,12,0,12,0,1,,,,,,,,,,,,,
65faa015b08626882ddef940,TCR,2024-06-11_18h22.33.944,LearnStrategy,2023.2.3,MacIntel,59.88023952,6,1,14,0.09337271,-0.009991674,1,0,0,0.7308,rock_grid_rect_2,2,09,-1,-1,0.731,-0.083504632,-0.263426311,1,0,0,0.8924,Basalt_rect,2,0.892,1,13,0,13,0,1,,,,,,,,,,,,,
65faa015b08626882ddef940,TCR,2024-06-11_18h22.33.944,LearnStrategy,2023.2.3,MacIntel,59.88023952,6,1,15,0.034336621,7.806E-05,1,0,0,1.1659,rock_grid_rect_2,5,14,-1,-1,1.166,-0.173813489,-0.416833628,1,0,0,0.7262,Pegmatite_rect,6,0.726,0,14,0,14,0,1,,,,,,,,,,,,,
65faa015b08626882ddef940,TCR,2024-06-11_18h22.33.944,LearnStrategy,2023.2.3,MacIntel,59.88023952,6,1,16,0.048071919,0.01171875,1,0,0,1.2476,rock_grid_rect_2,5,09,-1,-1,1.248,0.365554746,-0.244392694,1,0,0,1.6301,Gabbro_rect,4,1.63,0,15,0,15,0,1,,,,,,,,,,,,,
65faa015b08626882ddef940,TCR,2024-06-11_18h22.33.944,LearnStrategy,2023.2.3,MacIntel,59.88023952,6,2,1,,,,,,,,2,02,,,,,,,,,,,1,1.76,0,,,,,,-0.320289733,-0.245817288,1,0,0,1.7604,Andesite_rect,0,0,0,0,1,
65faa015b08626882ddef940,TCR,2024-06-11_18h22.33.944,LearnStrategy,2023.2.3,MacIntel,59.88023952,6,2,2,,,,,,,,8,06,,,,,,,,,,,7,1.245,0,,,,,,0.124684508,-0.390410335,1,0,0,1.2453,Peridotite_rect,1,0,1,0,1,
65faa015b08626882ddef940,TCR,2024-06-11_18h22.33.944,LearnStrategy,2023.2.3,MacIntel,59.88023952,6,2,3,,,,,,,,3,15,,,,,,,,,,,2,0.346,0,,,,,,-0.054521623,-0.255909789,1,0,0,0.3455,Basalt_rect,2,0,2,0,1,
65faa015b08626882ddef940,TCR,2024-06-11_18h22.33.944,LearnStrategy,2023.2.3,MacIntel,59.88023952,6,2,4,,,,,,,,3,02,,,,,,,,,,,4,0.476,0,,,,,,0.348498647,-0.248757546,1,0,0,0.4764,Gabbro_rect,3,0,3,0,1,
65faa015b08626882ddef940,TCR,2024-06-11_18h22.33.944,LearnStrategy,2023.2.3,MacIntel,59.88023952,6,2,5,,,,,,,,1,01,,,,,,,,,,,8,0.46,0,,,,,,0.383313385,-0.408090914,1,0,0,0.4603,Pumice_rect,4,0,4,0,1,
65faa015b08626882ddef940,TCR,2024-06-11_18h22.33.944,LearnStrategy,2023.2.3,MacIntel,59.88023952,6,2,6,,,,,,,,6,08,,,,,,,,,,,3,0.294,0,,,,,,0.163753513,-0.257158748,1,0,0,0.2937,Diorite_rect,5,0,5,0,1,
65faa015b08626882ddef940,TCR,2024-06-11_18h22.33.944,LearnStrategy,2023.2.3,MacIntel,59.88023952,6,2,7,,,,,,,,8,16,,,,,,,,,,,6,0.179,0,,,,,,-0.212163692,-0.418456625,1,0,0,0.1793,Pegmatite_rect,6,0,6,0,1,
65faa015b08626882ddef940,TCR,2024-06-11_18h22.33.944,LearnStrategy,2023.2.3,MacIntel,59.88023952,6,2,8,,,,,,,,7,02,,,,,,,,,,,5,0.26,0,,,,,,-0.400883378,-0.41815089,1,0,0,0.2602,Obsidian_rect,7,0,7,0,1,
65faa015b08626882ddef940,TCR,2024-06-11_18h22.33.944,LearnStrategy,2023.2.3,MacIntel,59.88023952,6,2,9,,,,,,,,5,10,,,,,,,,,,,2,0.342,0,,,,,,-0.213097159,-0.251844166,1,0,0,0.3425,Basalt_rect,8,0,8,0,1,
65faa015b08626882ddef940,TCR,2024-06-11_18h22.33.944,LearnStrategy,2023.2.3,MacIntel,59.88023952,6,2,10,,,,,,,,4,15,,,,,,,,,,,1,0.295,0,,,,,,-0.377572726,-0.254013582,1,0,0,0.2954,Andesite_rect,9,0,9,0,1,
65faa015b08626882ddef940,TCR,2024-06-11_18h22.33.944,LearnStrategy,2023.2.3,MacIntel,59.88023952,6,2,11,,,,,,,,2,06,,,,,,,,,,,7,0.279,0,,,,,,0.066077748,-0.388995499,1,0,0,0.2785,Peridotite_rect,10,0,10,0,1,
65faa015b08626882ddef940,TCR,2024-06-11_18h22.33.944,LearnStrategy,2023.2.3,MacIntel,59.88023952,6,2,12,,,,,,,,4,16,,,,,,,,,,,8,0.31,0,,,,,,0.394573532,-0.396632364,1,0,0,0.3101,Pumice_rect,11,0,11,0,1,
65faa015b08626882ddef940,TCR,2024-06-11_18h22.33.944,LearnStrategy,2023.2.3,MacIntel,59.88023952,6,2,13,,,,,,,,1,11,,,,,,,,,,,8,2.611,0,,,,,,0.340790227,-0.411841044,1,0,0,2.6112,Pumice_rect,12,0,12,0,1,
65faa015b08626882ddef940,TCR,2024-06-11_18h22.33.944,LearnStrategy,2023.2.3,MacIntel,59.88023952,6,2,14,,,,,,,,6,11,,,,,,,,,,,4,0.994,0,,,,,,0.374359258,-0.236661506,1,0,0,0.9938,Gabbro_rect,13,0,13,0,1,
65faa015b08626882ddef940,TCR,2024-06-11_18h22.33.944,LearnStrategy,2023.2.3,MacIntel,59.88023952,6,2,15,,,,,,,,5,06,,,,,,,,,,,3,1.076,0,,,,,,0.053445046,-0.239754632,1,0,0,1.0758,Diorite_rect,14,0,14,0,1,
65faa015b08626882ddef940,TCR,2024-06-11_18h22.33.944,LearnStrategy,2023.2.3,MacIntel,59.88023952,6,2,16,,,,,,,,7,04,,,,,,,,,,,2,0.127,0,,,,,,-0.145425687,-0.269339353,1,0,0,0.1269,Basalt_rect,15,0,15,0,1,
65faa015b08626882ddef940,TCR,2024-06-11_18h22.33.944,LearnStrategy,2023.2.3,MacIntel,59.88023952,7,1,1,-0.059312552,-0.009123257,1,0,0,1.8989,rock_grid_rect_2,5,05,-1,-1,1.899,-0.323366596,-0.233643188,1,0,0,3.1427,Andesite_rect,1,3.143,0,0,0,0,0,1,,,,,,,,,,,,,
65faa015b08626882ddef940,TCR,2024-06-11_18h22.33.944,LearnStrategy,2023.2.3,MacIntel,59.88023952,7,1,2,-0.076430449,0.017140664,1,0,0,1.301,rock_grid_rect_2,6,10,-1,-1,1.301,-0.072507936,-0.264333758,1,0,0,1.2429,Basalt_rect,2,1.243,0,1,0,1,0,1,,,,,,,,,,,,,
65faa015b08626882ddef940,TCR,2024-06-11_18h22.33.944,LearnStrategy,2023.2.3,MacIntel,59.88023952,7,1,3,0.12462271,-0.006524511,1,0,0,0.9671,rock_grid_rect_2,3,12,-1,-1,0.967,0.157225749,-0.23002641,1,0,0,0.5768,Diorite_rect,3,0.577,1,2,0,2,0,1,,,,,,,,,,,,,
65faa015b08626882ddef940,TCR,2024-06-11_18h22.33.944,LearnStrategy,2023.2.3,MacIntel,59.88023952,7,1,4,0.040184612,-0.000657005,1,0,0,0.9814,rock_grid_rect_2,7,10,-1,-1,0.981,0.30419312,-0.41359414,1,0,0,0.9427,Pumice_rect,8,0.943,0,3,0,3,0,1,,,,,,,,,,,,,
65faa015b08626882ddef940,TCR,2024-06-11_18h22.33.944,LearnStrategy,2023.2.3,MacIntel,59.88023952,7,1,5,-0.037709461,-0.00785153,1,0,0,0.947,rock_grid_rect_2,2,11,-1,-1,0.947,-0.174307868,-0.247950926,1,0,0,0.6133,Basalt_rect,2,0.613,1,4,0,4,0,1,,,,,,,,,,,,,
65faa015b08626882ddef940,TCR,2024-06-11_18h22.33.944,LearnStrategy,2023.2.3,MacIntel,59.88023952,7,1,6,-0.164208862,0.009819291,1,0,0,0.7803,rock_grid_rect_2,8,13,-1,-1,0.78,-0.446870447,-0.396388426,1,0,0,0.9118,Obsidian_rect,5,0.912,0,5,0,5,0,1,,,,,,,,,,,,,
65faa015b08626882ddef940,TCR,2024-06-11_18h22.33.944,LearnStrategy,2023.2.3,MacIntel,59.88023952,7,1,7,-0.084831651,-0.002123881,1,0,0,1.1671,rock_grid_rect_2,7,05,-1,-1,1.167,-0.375861912,-0.256339118,1,0,0,0.8566,Andesite_rect,1,0.857,0,6,0,6,0,1,,,,,,,,,,,,,
65faa015b08626882ddef940,TCR,2024-06-11_18h22.33.944,LearnStrategy,2023.2.3,MacIntel,59.88023952,7,1,8,-0.020093932,-0.00825484,1,0,0,1.0832,rock_grid_rect_2,1,06,-1,-1,1.083,-0.078791762,-0.413067236,1,0,0,0.8962,Pegmatite_rect,6,0.896,0,7,0,7,0,1,,,,,,,,,,,,,
65faa015b08626882ddef940,TCR,2024-06-11_18h22.33.944,LearnStrategy,2023.2.3,MacIntel,59.88023952,7,1,9,0.093226348,-0.01980446,1,0,0,1.0156,rock_grid_rect_2,2,08,-1,-1,1.016,0.405358816,-0.421959565,1,0,0,1.7612,Pumice_rect,8,1.761,0,8,0,8,0,1,,,,,,,,,,,,,
65faa015b08626882ddef940,TCR,2024-06-11_18h22.33.944,LearnStrategy,2023.2.3,MacIntel,59.88023952,7,1,10,0.091391939,-0.003558233,1,0,0,0.9141,rock_grid_rect_2,5,04,-1,-1,0.914,0.131908306,-0.245453008,1,0,0,1.2114,Diorite_rect,3,1.211,0,9,0,9,0,1,,,,,,,,,,,,,
65faa015b08626882ddef940,TCR,2024-06-11_18h22.33.944,LearnStrategy,2023.2.3,MacIntel,59.88023952,7,1,11,0.098583212,-0.018126171,1,0,0,1.2338,rock_grid_rect_2,1,07,-1,-1,1.234,-0.121682452,-0.25454374,1,0,0,1.5063,Basalt_rect,2,1.506,0,10,0,10,0,1,,,,,,,,,,,,,
65faa015b08626882ddef940,TCR,2024-06-11_18h22.33.944,LearnStrategy,2023.2.3,MacIntel,59.88023952,7,1,12,0.092390456,0.013104314,1,0,0,1.0831,rock_grid_rect_2,8,04,-1,-1,1.083,0.332711022,-0.388458836,1,0,0,0.9917,Pumice_rect,8,0.992,1,11,0,11,0,1,,,,,,,,,,,,,
65faa015b08626882ddef940,TCR,2024-06-11_18h22.33.944,LearnStrategy,2023.2.3,MacIntel,59.88023952,7,1,13,0.106974657,-0.013540149,1,0,0,1.149,rock_grid_rect_2,4,10,-1,-1,1.149,0.349253226,-0.23031263,1,0,0,1.1957,Gabbro_rect,4,1.196,1,12,0,12,0,1,,,,,,,,,,,,,
65faa015b08626882ddef940,TCR,2024-06-11_18h22.33.944,LearnStrategy,2023.2.3,MacIntel,59.88023952,7,1,14,0.024549854,-0.011708993,1,0,0,0.7478,rock_grid_rect_2,4,12,-1,-1,0.748,-0.120908358,-0.385320176,1,0,0,1.4442,Pegmatite_rect,6,1.444,0,13,0,13,0,1,,,,,,,,,,,,,
65faa015b08626882ddef940,TCR,2024-06-11_18h22.33.944,LearnStrategy,2023.2.3,MacIntel,59.88023952,7,1,15,-0.174694916,-0.003041086,1,0,0,0.9338,rock_grid_rect_2,6,10,-1,-1,0.934,-0.35151046,-0.239068354,1,0,0,0.8607,Andesite_rect,1,0.861,0,14,0,14,0,1,,,,,,,,,,,,,
65faa015b08626882ddef940,TCR,2024-06-11_18h22.33.944,LearnStrategy,2023.2.3,MacIntel,59.88023952,7,1,16,0.008950874,0.005916294,1,0,0,0.7326,rock_grid_rect_2,3,16,-1,-1,0.733,0.103995368,-0.254855979,1,0,0,0.91,Diorite_rect,3,0.91,1,15,0,15,0,1,,,,,,,,,,,,,
65faa015b08626882ddef940,TCR,2024-06-11_18h22.33.944,LearnStrategy,2023.2.3,MacIntel,59.88023952,7,2,1,,,,,,,,3,08,,,,,,,,,,,3,1.228,1,,,,,,0.100515196,-0.251372554,1,0,0,1.2283,Diorite_rect,0,0,0,0,1,
65faa015b08626882ddef940,TCR,2024-06-11_18h22.33.944,LearnStrategy,2023.2.3,MacIntel,59.88023952,7,2,2,,,,,,,,5,12,,,,,,,,,,,2,0.178,0,,,,,,-0.132009133,-0.235158852,1,0,0,0.1777,Basalt_rect,1,0,1,0,1,
65faa015b08626882ddef940,TCR,2024-06-11_18h22.33.944,LearnStrategy,2023.2.3,MacIntel,59.88023952,7,2,3,,,,,,,,6,05,,,,,,,,,,,6,0.428,1,,,,,,-0.113056828,-0.393474188,1,0,0,0.4283,Pegmatite_rect,2,0,2,0,1,
65faa015b08626882ddef940,TCR,2024-06-11_18h22.33.944,LearnStrategy,2023.2.3,MacIntel,59.88023952,7,2,4,,,,,,,,8,06,,,,,,,,,,,7,0.279,0,,,,,,0.147504033,-0.415558649,1,0,0,0.2794,Peridotite_rect,3,0,3,0,1,
65faa015b08626882ddef940,TCR,2024-06-11_18h22.33.944,LearnStrategy,2023.2.3,MacIntel,59.88023952,7,2,5,,,,,,,,4,16,,,,,,,,,,,8,0.11,0,,,,,,0.371347445,-0.378252498,1,0,0,0.1101,Pumice_rect,4,0,4,0,1,
65faa015b08626882ddef940,TCR,2024-06-11_18h22.33.944,LearnStrategy,2023.2.3,MacIntel,59.88023952,7,2,6,,,,,,,,7,08,,,,,,,,,,,4,0.292,0,,,,,,0.384012672,-0.261761032,1,0,0,0.2922,Gabbro_rect,5,0,5,0,1,
65faa015b08626882ddef940,TCR,2024-06-11_18h22.33.944,LearnStrategy,2023.2.3,MacIntel,59.88023952,7,2,7,,,,,,,,6,11,,,,,,,,,,,1,0.495,0,,,,,,-0.393282291,-0.233948923,1,0,0,0.4954,Andesite_rect,6,0,6,0,1,
65faa015b08626882ddef940,TCR,2024-06-11_18h22.33.944,LearnStrategy,2023.2.3,MacIntel,59.88023952,7,2,8,,,,,,,,7,04,,,,,,,,,,,5,0.561,0,,,,,,-0.361563931,-0.397084461,1,0,0,0.5614,Obsidian_rect,7,0,7,0,1,
65faa015b08626882ddef940,TCR,2024-06-11_18h22.33.944,LearnStrategy,2023.2.3,MacIntel,59.88023952,7,2,9,,,,,,,,8,08,,,,,,,,,,,6,0.195,0,,,,,,-0.173585814,-0.411161272,1,0,0,0.1954,Pegmatite_rect,8,0,8,0,1,
65faa015b08626882ddef940,TCR,2024-06-11_18h22.33.944,LearnStrategy,2023.2.3,MacIntel,59.88023952,7,2,10,,,,,,,,1,10,,,,,,,,,,,2,0.162,0,,,,,,-0.123835606,-0.246845077,1,0,0,0.1615,Basalt_rect,9,0,9,0,1,
65faa015b08626882ddef940,TCR,2024-06-11_18h22.33.944,LearnStrategy,2023.2.3,MacIntel,59.88023952,7,2,11,,,,,,,,3,02,,,,,,,,,,,3,0.261,1,,,,,,0.068562656,-0.259185054,1,0,0,0.2614,Diorite_rect,10,0,10,0,1,
65faa015b08626882ddef940,TCR,2024-06-11_18h22.33.944,LearnStrategy,2023.2.3,MacIntel,59.88023952,7,2,12,,,,,,,,2,05,,,,,,,,,,,1,0.442,0,,,,,,-0.32457002,-0.265114358,1,0,0,0.4425,Andesite_rect,11,0,11,0,1,
65faa015b08626882ddef940,TCR,2024-06-11_18h22.33.944,LearnStrategy,2023.2.3,MacIntel,59.88023952,7,2,13,,,,,,,,1,16,,,,,,,,,,,7,0.459,0,,,,,,0.10192678,-0.401699755,1,0,0,0.4587,Peridotite_rect,12,0,12,0,1,
65faa015b08626882ddef940,TCR,2024-06-11_18h22.33.944,LearnStrategy,2023.2.3,MacIntel,59.88023952,7,2,14,,,,,,,,2,06,,,,,,,,,,,5,1.095,0,,,,,,-0.314298631,-0.392127654,1,0,0,1.0953,Obsidian_rect,13,0,13,0,1,
65faa015b08626882ddef940,TCR,2024-06-11_18h22.33.944,LearnStrategy,2023.2.3,MacIntel,59.88023952,7,2,15,,,,,,,,4,05,,,,,,,,,,,4,1.098,1,,,,,,0.446997294,-0.238635772,1,0,0,1.0981,Gabbro_rect,14,0,14,0,1,
65faa015b08626882ddef940,TCR,2024-06-11_18h22.33.944,LearnStrategy,2023.2.3,MacIntel,59.88023952,7,2,16,,,,,,,,5,06,,,,,,,,,,,8,1.111,0,,,,,,0.419695826,-0.391077097,1,0,0,1.1111,Pumice_rect,15,0,15,0,1,
65faa015b08626882ddef940,TCR,2024-06-11_18h22.33.944,LearnStrategy,2023.2.3,MacIntel,59.88023952,8,1,1,0.042259705,0.014115841,1,0,0,0.7813,rock_grid_rect_2,1,05,-1,-1,0.781,0.070062058,-0.230345155,1,0,0,2.1789,Diorite_rect,3,2.179,0,0,0,0,0,1,,,,,,,,,,,,,
65faa015b08626882ddef940,TCR,2024-06-11_18h22.33.944,LearnStrategy,2023.2.3,MacIntel,59.88023952,8,1,2,0.079312162,-0.003577748,1,0,0,1.9799,rock_grid_rect_2,2,08,-1,-1,1.98,0.166869406,-0.388283201,1,0,0,0.661,Peridotite_rect,7,0.661,0,1,0,1,0,1,,,,,,,,,,,,,
65faa015b08626882ddef940,TCR,2024-06-11_18h22.33.944,LearnStrategy,2023.2.3,MacIntel,59.88023952,8,1,3,0.056134862,-0.011048735,1,0,0,0.8002,rock_grid_rect_2,6,03,-1,-1,0.8,-0.211500182,-0.244942366,1,0,0,1.3931,Basalt_rect,2,1.393,0,2,0,2,0,1,,,,,,,,,,,,,
65faa015b08626882ddef940,TCR,2024-06-11_18h22.33.944,LearnStrategy,2023.2.3,MacIntel,59.88023952,8,1,4,-0.149575874,0.011894385,1,0,0,0.7324,rock_grid_rect_2,6,06,-1,-1,0.732,-0.406773652,-0.236684274,1,0,0,1.1779,Andesite_rect,1,1.178,0,3,0,3,0,1,,,,,,,,,,,,,
65faa015b08626882ddef940,TCR,2024-06-11_18h22.33.944,LearnStrategy,2023.2.3,MacIntel,59.88023952,8,1,5,-0.044594999,-0.013735299,1,0,0,1.6321,rock_grid_rect_2,1,03,-1,-1,1.632,0.401312708,-0.231275369,1,0,0,0.6955,Gabbro_rect,4,0.696,0,4,0,4,0,1,,,,,,,,,,,,,
65faa015b08626882ddef940,TCR,2024-06-11_18h22.33.944,LearnStrategy,2023.2.3,MacIntel,59.88023952,8,1,6,0.135557608,0.01574209,1,0,0,0.9496,rock_grid_rect_2,8,03,-1,-1,0.95,0.379416892,-0.405784893,1,0,0,0.9593,Pumice_rect,8,0.959,1,5,0,5,0,1,,,,,,,,,,,,,
65faa015b08626882ddef940,TCR,2024-06-11_18h22.33.944,LearnStrategy,2023.2.3,MacIntel,59.88023952,8,1,7,0.059858972,-0.013966226,1,0,0,1.0307,rock_grid_rect_2,8,14,-1,-1,1.031,-0.106099735,-0.415783071,1,0,0,0.8446,Pegmatite_rect,6,0.845,0,6,0,6,0,1,,,,,,,,,,,,,
65faa015b08626882ddef940,TCR,2024-06-11_18h22.33.944,LearnStrategy,2023.2.3,MacIntel,59.88023952,8,1,8,0.091213052,0.019332848,1,0,0,1.1468,rock_grid_rect_2,7,07,-1,-1,1.147,0.119678913,-0.389054044,1,0,0,0.7109,Peridotite_rect,7,0.711,1,7,0,7,0,1,,,,,,,,,,,,,
65faa015b08626882ddef940,TCR,2024-06-11_18h22.33.944,LearnStrategy,2023.2.3,MacIntel,59.88023952,8,1,9,-0.121168557,-0.005064139,1,0,0,1.2159,rock_grid_rect_2,1,06,-1,-1,1.216,-0.412498049,-0.412133769,1,0,0,2.0615,Obsidian_rect,5,2.062,0,8,0,8,0,1,,,,,,,,,,,,,
65faa015b08626882ddef940,TCR,2024-06-11_18h22.33.944,LearnStrategy,2023.2.3,MacIntel,59.88023952,8,1,10,-0.099380074,0.006319603,1,0,0,0.8981,rock_grid_rect_2,5,09,-1,-1,0.898,-0.388832874,-0.386191845,1,0,0,0.9639,Obsidian_rect,5,0.964,1,9,0,9,0,1,,,,,,,,,,,,,
65faa015b08626882ddef940,TCR,2024-06-11_18h22.33.944,LearnStrategy,2023.2.3,MacIntel,59.88023952,8,1,11,0.033390144,0.005314582,1,0,0,0.7478,rock_grid_rect_2,4,13,-1,-1,0.748,-0.101071373,-0.234225385,1,0,0,0.7447,Basalt_rect,2,0.745,0,10,0,10,0,1,,,,,,,,,,,,,
65faa015b08626882ddef940,TCR,2024-06-11_18h22.33.944,LearnStrategy,2023.2.3,MacIntel,59.88023952,8,1,12,0.021310366,0.01990854,1,0,0,1.099,rock_grid_rect_2,2,01,-1,-1,1.099,0.095486834,-0.263114072,1,0,0,0.929,Diorite_rect,3,0.929,0,11,0,11,0,1,,,,,,,,,,,,,
65faa015b08626882ddef940,TCR,2024-06-11_18h22.33.944,LearnStrategy,2023.2.3,MacIntel,59.88023952,8,1,13,0.106503044,-0.004934039,1,0,0,0.9003,rock_grid_rect_2,5,11,-1,-1,0.9,0.150658956,-0.406585007,1,0,0,0.944,Peridotite_rect,7,0.944,0,12,0,12,0,1,,,,,,,,,,,,,
65faa015b08626882ddef940,TCR,2024-06-11_18h22.33.944,LearnStrategy,2023.2.3,MacIntel,59.88023952,8,1,14,0.097002498,-0.009484284,1,0,0,1.2468,rock_grid_rect_2,7,07,-1,-1,1.247,0.376857176,-0.23820319,1,0,0,0.8615,Gabbro_rect,4,0.861,0,13,0,13,0,1,,,,,,,,,,,,,
65faa015b08626882ddef940,TCR,2024-06-11_18h22.33.944,LearnStrategy,2023.2.3,MacIntel,59.88023952,8,1,15,-0.014496383,0.008687422,1,0,0,0.7988,rock_grid_rect_2,3,09,-1,-1,0.799,-0.119282109,-0.409886293,1,0,0,1.4469,Pegmatite_rect,6,1.447,0,14,0,14,0,1,,,,,,,,,,,,,
65faa015b08626882ddef940,TCR,2024-06-11_18h22.33.944,LearnStrategy,2023.2.3,MacIntel,59.88023952,8,1,16,-0.084821893,-0.002917491,1,0,0,2.2979,rock_grid_rect_2,4,13,-1,-1,2.298,-0.099233711,-0.239263504,1,0,0,1.1965,Basalt_rect,2,1.197,0,15,0,15,0,1,,,,,,,,,,,,,
65faa015b08626882ddef940,TCR,2024-06-11_18h22.33.944,LearnStrategy,2023.2.3,MacIntel,59.88023952,8,2,1,,,,,,,,1,11,,,,,,,,,,,3,1.746,0,,,,,,0.058431125,-0.241488213,1,0,0,1.7463,Diorite_rect,0,0,0,0,1,
65faa015b08626882ddef940,TCR,2024-06-11_18h22.33.944,LearnStrategy,2023.2.3,MacIntel,59.88023952,8,2,2,,,,,,,,7,12,,,,,,,,,,,6,1.311,0,,,,,,-0.120693693,-0.385879606,1,0,0,1.3107,Pegmatite_rect,1,0,1,0,1,
65faa015b08626882ddef940,TCR,2024-06-11_18h22.33.944,LearnStrategy,2023.2.3,MacIntel,59.88023952,8,2,3,,,,,,,,7,02,,,,,,,,,,,7,1.031,1,,,,,,0.102967579,-0.402064035,1,0,0,1.0307,Peridotite_rect,2,0,2,0,1,
65faa015b08626882ddef940,TCR,2024-06-11_18h22.33.944,LearnStrategy,2023.2.3,MacIntel,59.88023952,8,2,4,,,,,,,,3,10,,,,,,,,,,,3,0.481,1,,,,,,0.147897585,-0.228679876,1,0,0,0.4806,Diorite_rect,3,0,3,0,1,
65faa015b08626882ddef940,TCR,2024-06-11_18h22.33.944,LearnStrategy,2023.2.3,MacIntel,59.88023952,8,2,5,,,,,,,,4,03,,,,,,,,,,,1,2.143,0,,,,,,-0.350323298,-0.26226517,1,0,0,2.1427,Andesite_rect,4,0,4,0,1,
65faa015b08626882ddef940,TCR,2024-06-11_18h22.33.944,LearnStrategy,2023.2.3,MacIntel,59.88023952,8,2,6,,,,,,,,4,15,,,,,,,,,,,1,0.745,0,,,,,,-0.342283123,-0.256765196,1,0,0,0.7455,Andesite_rect,5,0,5,0,1,
65faa015b08626882ddef940,TCR,2024-06-11_18h22.33.944,LearnStrategy,2023.2.3,MacIntel,59.88023952,8,2,7,,,,,,,,8,16,,,,,,,,,,,8,1.695,1,,,,,,0.359199365,-0.40195345,1,0,0,1.6947,Pumice_rect,6,0,6,0,1,
65faa015b08626882ddef940,TCR,2024-06-11_18h22.33.944,LearnStrategy,2023.2.3,MacIntel,59.88023952,8,2,8,,,,,,,,8,02,,,,,,,,,,,4,0.695,0,,,,,,0.407616049,-0.271160751,1,0,0,0.6951,Gabbro_rect,7,0,7,0,1,
65faa015b08626882ddef940,TCR,2024-06-11_18h22.33.944,LearnStrategy,2023.2.3,MacIntel,59.88023952,8,2,9,,,,,,,,5,16,,,,,,,,,,,5,1.562,1,,,,,,-0.43387997,-0.40156315,1,0,0,1.5623,Obsidian_rect,8,0,8,0,1,
65faa015b08626882ddef940,TCR,2024-06-11_18h22.33.944,LearnStrategy,2023.2.3,MacIntel,59.88023952,8,2,10,,,,,,,,2,12,,,,,,,,,,,3,1.01,0,,,,,,0.155199443,-0.2585931,1,0,0,1.0099,Diorite_rect,9,0,9,0,1,
65faa015b08626882ddef940,TCR,2024-06-11_18h22.33.944,LearnStrategy,2023.2.3,MacIntel,59.88023952,8,2,11,,,,,,,,6,13,,,,,,,,,,,7,0.943,0,,,,,,0.197520946,-0.391347055,1,0,0,0.9433,Peridotite_rect,10,0,10,0,1,
65faa015b08626882ddef940,TCR,2024-06-11_18h22.33.944,LearnStrategy,2023.2.3,MacIntel,59.88023952,8,2,12,,,,,,,,6,12,,,,,,,,,,,8,0.628,0,,,,,,0.359833602,-0.396804746,1,0,0,0.6278,Pumice_rect,11,0,11,0,1,
65faa015b08626882ddef940,TCR,2024-06-11_18h22.33.944,LearnStrategy,2023.2.3,MacIntel,59.88023952,8,2,13,,,,,,,,2,10,,,,,,,,,,,2,0.612,1,,,,,,-0.093577618,-0.242964847,1,0,0,0.6116,Basalt_rect,12,0,12,0,1,
65faa015b08626882ddef940,TCR,2024-06-11_18h22.33.944,LearnStrategy,2023.2.3,MacIntel,59.88023952,8,2,14,,,,,,,,1,01,,,,,,,,,,,6,0.479,0,,,,,,-0.102320332,-0.403722809,1,0,0,0.4789,Pegmatite_rect,13,0,13,0,1,
65faa015b08626882ddef940,TCR,2024-06-11_18h22.33.944,LearnStrategy,2023.2.3,MacIntel,59.88023952,8,2,15,,,,,,,,5,08,,,,,,,,,,,5,1.326,1,,,,,,-0.365928783,-0.419129892,1,0,0,1.3263,Obsidian_rect,14,0,14,0,1,
65faa015b08626882ddef940,TCR,2024-06-11_18h22.33.944,LearnStrategy,2023.2.3,MacIntel,59.88023952,8,2,16,,,,,,,,3,06,,,,,,,,,,,1,0.847,0,,,,,,-0.373936433,-0.263637724,1,0,0,0.8466,Andesite_rect,15,0,15,0,1,
65faa015b08626882ddef940,TCR,2024-06-11_18h22.33.944,LearnStrategy,2023.2.3,MacIntel,59.88023952,9,1,1,0.051454517,-0.01182283,1,0,0,0.7982,rock_grid_rect_2,1,05,-1,-1,0.798,0.098105095,-0.265159893,1,0,0,1.6268,Diorite_rect,3,1.627,0,0,0,0,0,1,,,,,,,,,,,,,
65faa015b08626882ddef940,TCR,2024-06-11_18h22.33.944,LearnStrategy,2023.2.3,MacIntel,59.88023952,9,1,2,-0.093691455,-0.009783514,1,0,0,1.1474,rock_grid_rect_2,3,13,-1,-1,1.147,-0.425029923,-0.249112068,1,0,0,2.2156,Andesite_rect,1,2.216,0,1,0,1,0,1,,,,,,,,,,,,,
65faa015b08626882ddef940,TCR,2024-06-11_18h22.33.944,LearnStrategy,2023.2.3,MacIntel,59.88023952,9,1,3,-0.076963858,0.003028076,1,0,0,2.0499,rock_grid_rect_2,1,03,-1,-1,2.05,-0.08973967,-0.409967605,1,0,0,0.8603,Pegmatite_rect,6,0.86,0,2,0,2,0,1,,,,,,,,,,,,,
65faa015b08626882ddef940,TCR,2024-06-11_18h22.33.944,LearnStrategy,2023.2.3,MacIntel,59.88023952,9,1,4,0.05076824,0.023743235,1,0,0,0.8653,rock_grid_rect_2,6,07,-1,-1,0.865,0.160979132,-0.253265508,1,0,0,0.7154,Diorite_rect,3,0.715,0,3,0,3,0,1,,,,,,,,,,,,,
65faa015b08626882ddef940,TCR,2024-06-11_18h22.33.944,LearnStrategy,2023.2.3,MacIntel,59.88023952,9,1,5,0.038525838,0.015361548,1,0,0,1.0475,rock_grid_rect_2,5,04,-1,-1,1.047,0.128678575,-0.419136397,1,0,0,1.3134,Peridotite_rect,7,1.313,0,4,0,4,0,1,,,,,,,,,,,,,
65faa015b08626882ddef940,TCR,2024-06-11_18h22.33.944,LearnStrategy,2023.2.3,MacIntel,59.88023952,9,1,6,-0.091541554,0.003678575,1,0,0,1.0488,rock_grid_rect_2,2,08,-1,-1,1.049,0.342562838,-0.23055982,1,0,0,0.9104,Gabbro_rect,4,0.91,0,5,0,5,0,1,,,,,,,,,,,,,
65faa015b08626882ddef940,TCR,2024-06-11_18h22.33.944,LearnStrategy,2023.2.3,MacIntel,59.88023952,9,1,7,0.039729262,-0.012629449,1,0,0,0.9675,rock_grid_rect_2,6,03,-1,-1,0.968,-0.157063124,-0.260355953,1,0,0,1.1429,Basalt_rect,2,1.143,0,6,0,6,0,1,,,,,,,,,,,,,
65faa015b08626882ddef940,TCR,2024-06-11_18h22.33.944,LearnStrategy,2023.2.3,MacIntel,59.88023952,9,1,8,-0.026794078,0.012883144,1,0,0,1.0186,rock_grid_rect_2,7,06,-1,-1,1.019,-0.158682868,-0.230972887,1,0,0,0.9588,Basalt_rect,2,0.959,0,7,0,7,0,1,,,,,,,,,,,,,
65faa015b08626882ddef940,TCR,2024-06-11_18h22.33.944,LearnStrategy,2023.2.3,MacIntel,59.88023952,9,1,9,-0.017101634,-0.011959435,1,0,0,1.081,rock_grid_rect_2,7,10,-1,-1,1.081,-0.335348798,-0.253288275,1,0,0,1.3584,Andesite_rect,1,1.358,0,8,0,8,0,1,,,,,,,,,,,,,
65faa015b08626882ddef940,TCR,2024-06-11_18h22.33.944,LearnStrategy,2023.2.3,MacIntel,59.88023952,9,1,10,0.018259523,-0.000458602,1,0,0,0.9789,rock_grid_rect_2,4,13,-1,-1,0.979,0.32750052,-0.253730615,1,0,0,1.2284,Gabbro_rect,4,1.228,1,9,0,9,0,1,,,,,,,,,,,,,
65faa015b08626882ddef940,TCR,2024-06-11_18h22.33.944,LearnStrategy,2023.2.3,MacIntel,59.88023952,9,1,11,0.103822986,-0.003028076,1,0,0,2.033,rock_grid_rect_2,8,04,-1,-1,2.033,-0.103113942,-0.256784711,1,0,0,0.7778,Basalt_rect,2,0.778,0,10,0,10,0,1,,,,,,,,,,,,,
65faa015b08626882ddef940,TCR,2024-06-11_18h22.33.944,LearnStrategy,2023.2.3,MacIntel,59.88023952,9,1,12,0.048094687,-0.014798866,1,0,0,1.1831,rock_grid_rect_2,8,05,-1,-1,1.183,0.124905678,-0.381953841,1,0,0,1.2568,Peridotite_rect,7,1.257,0,11,0,11,0,1,,,,,,,,,,,,,
65faa015b08626882ddef940,TCR,2024-06-11_18h22.33.944,LearnStrategy,2023.2.3,MacIntel,59.88023952,9,1,13,0.135645426,0.001040799,1,0,0,0.8979,rock_grid_rect_2,3,07,-1,-1,0.898,0.323171446,-0.400252394,1,0,0,1.1257,Pumice_rect,8,1.126,0,12,0,12,0,1,,,,,,,,,,,,,
65faa015b08626882ddef940,TCR,2024-06-11_18h22.33.944,LearnStrategy,2023.2.3,MacIntel,59.88023952,9,1,14,0.067401514,-0.008801259,1,0,0,0.951,rock_grid_rect_2,4,14,-1,-1,0.951,0.168589977,-0.242821737,1,0,0,1.1418,Diorite_rect,3,1.142,0,13,0,13,0,1,,,,,,,,,,,,,
65faa015b08626882ddef940,TCR,2024-06-11_18h22.33.944,LearnStrategy,2023.2.3,MacIntel,59.88023952,9,1,15,-0.023587115,-0.014395556,1,0,0,1.2001,rock_grid_rect_2,5,04,-1,-1,1.2,-0.379150187,-0.380012099,1,0,0,1.4452,Obsidian_rect,5,1.445,1,14,0,14,0,1,,,,,,,,,,,,,
65faa015b08626882ddef940,TCR,2024-06-11_18h22.33.944,LearnStrategy,2023.2.3,MacIntel,59.88023952,9,1,16,0.012105797,-0.007893812,1,0,0,0.9341,rock_grid_rect_2,2,09,-1,-1,0.934,-0.147559326,-0.234745785,1,0,0,0.9126,Basalt_rect,2,0.913,1,15,0,15,0,1,,,,,,,,,,,,,
65faa015b08626882ddef940,TCR,2024-06-11_18h22.33.944,LearnStrategy,2023.2.3,MacIntel,59.88023952,9,2,1,,,,,,,,7,16,,,,,,,,,,,2,0.875,0,,,,,,-0.10559885,-0.239552977,1,0,0,0.8749,Basalt_rect,0,0,0,0,1,
65faa015b08626882ddef940,TCR,2024-06-11_18h22.33.944,LearnStrategy,2023.2.3,MacIntel,59.88023952,9,2,2,,,,,,,,1,02,,,,,,,,,,,6,0.795,0,,,,,,-0.192014467,-0.398512307,1,0,0,0.7948,Pegmatite_rect,1,0,1,0,1,
65faa015b08626882ddef940,TCR,2024-06-11_18h22.33.944,LearnStrategy,2023.2.3,MacIntel,59.88023952,9,2,3,,,,,,,,6,08,,,,,,,,,,,3,0.562,0,,,,,,0.087488942,-0.245407473,1,0,0,0.5622,Diorite_rect,2,0,2,0,1,
65faa015b08626882ddef940,TCR,2024-06-11_18h22.33.944,LearnStrategy,2023.2.3,MacIntel,59.88023952,9,2,4,,,,,,,,2,16,,,,,,,,,,,4,0.211,0,,,,,,0.322618521,-0.247586647,1,0,0,0.2112,Gabbro_rect,3,0,3,0,1,
65faa015b08626882ddef940,TCR,2024-06-11_18h22.33.944,LearnStrategy,2023.2.3,MacIntel,59.88023952,9,2,5,,,,,,,,6,09,,,,,,,,,,,7,0.794,0,,,,,,0.160748205,-0.399172565,1,0,0,0.794,Peridotite_rect,4,0,4,0,1,
65faa015b08626882ddef940,TCR,2024-06-11_18h22.33.944,LearnStrategy,2023.2.3,MacIntel,59.88023952,9,2,6,,,,,,,,4,08,,,,,,,,,,,8,0.391,0,,,,,,0.334522663,-0.415701759,1,0,0,0.3908,Pumice_rect,5,0,5,0,1,
65faa015b08626882ddef940,TCR,2024-06-11_18h22.33.944,LearnStrategy,2023.2.3,MacIntel,59.88023952,9,2,7,,,,,,,,5,07,,,,,,,,,,,5,1.659,1,,,,,,-0.344943667,-0.417178393,1,0,0,1.659,Obsidian_rect,6,0,6,0,1,
65faa015b08626882ddef940,TCR,2024-06-11_18h22.33.944,LearnStrategy,2023.2.3,MacIntel,59.88023952,9,2,8,,,,,,,,1,04,,,,,,,,,,,1,4.562,1,,,,,,-0.407785179,-0.239640794,1,0,0,4.5615,Andesite_rect,7,0,7,0,1,
65faa015b08626882ddef940,TCR,2024-06-11_18h22.33.944,LearnStrategy,2023.2.3,MacIntel,59.88023952,9,2,9,,,,,,,,8,09,,,,,,,,,,,2,0.462,0,,,,,,-0.129787677,-0.246887359,1,0,0,0.4625,Basalt_rect,8,0,8,0,1,
65faa015b08626882ddef940,TCR,2024-06-11_18h22.33.944,LearnStrategy,2023.2.3,MacIntel,59.88023952,9,2,10,,,,,,,,5,10,,,,,,,,,,,3,0.293,0,,,,,,0.060672096,-0.26579413,1,0,0,0.2931,Diorite_rect,9,0,9,0,1,
65faa015b08626882ddef940,TCR,2024-06-11_18h22.33.944,LearnStrategy,2023.2.3,MacIntel,59.88023952,9,2,11,,,,,,,,3,11,,,,,,,,,,,7,1.012,0,,,,,,0.127501171,-0.399260382,1,0,0,1.0117,Peridotite_rect,10,0,10,0,1,
65faa015b08626882ddef940,TCR,2024-06-11_18h22.33.944,LearnStrategy,2023.2.3,MacIntel,59.88023952,9,2,12,,,,,,,,4,11,,,,,,,,,,,8,0.509,0,,,,,,0.404831911,-0.38644554,1,0,0,0.5094,Pumice_rect,11,0,11,0,1,
65faa015b08626882ddef940,TCR,2024-06-11_18h22.33.944,LearnStrategy,2023.2.3,MacIntel,59.88023952,9,2,13,,,,,,,,3,15,,,,,,,,,,,3,0.61,1,,,,,,0.193604939,-0.257685653,1,0,0,0.6104,Diorite_rect,12,0,12,0,1,
65faa015b08626882ddef940,TCR,2024-06-11_18h22.33.944,LearnStrategy,2023.2.3,MacIntel,59.88023952,9,2,14,,,,,,,,2,02,,,,,,,,,,,2,2.545,1,,,,,,-0.1367838,-0.254475437,1,0,0,2.5452,Basalt_rect,13,0,13,0,1,
65faa015b08626882ddef940,TCR,2024-06-11_18h22.33.944,LearnStrategy,2023.2.3,MacIntel,59.88023952,9,2,15,,,,,,,,7,14,,,,,,,,,,,2,0.658,0,,,,,,-0.148678185,-0.256329361,1,0,0,0.658,Basalt_rect,14,0,14,0,1,
65faa015b08626882ddef940,TCR,2024-06-11_18h22.33.944,LearnStrategy,2023.2.3,MacIntel,59.88023952,9,2,16,,,,,,,,8,15,,,,,,,,,,,6,1.162,0,,,,,,-0.138728794,-0.396059924,1,0,0,1.1622,Pegmatite_rect,15,0,15,0,1,
65faa015b08626882ddef940,TCR,2024-06-11_18h22.33.944,LearnStrategy,2023.2.3,MacIntel,59.88023952,,,,,,,,,,,,,,,,,,,,,,,,,,,,,,,,,,,,,,,,,,,0
65faa015b08626882ddef940,TCR,2024-06-11_18h22.33.944,LearnStrategy,2023.2.3,MacIntel,59.88023952,,,,,,,,,,,,,,,,,,,,,,,,,,,,,,,,,,,,,,,,,,,
65faa015b08626882ddef940,TCR,2024-06-11_18h22.33.944,LearnStrategy,2023.2.3,MacIntel,59.88023952,,,,,,,,,,,4,09,1,1,,,,,,,,,,,,,,,,,,,,,,,,,,,,,
65faa015b08626882ddef940,TCR,2024-06-11_18h22.33.944,LearnStrategy,2023.2.3,MacIntel,59.88023952,,,,,,,,,,,4,12,1,2,,,,,,,,,,,,,,,,,,,,,,,,,,,,,
65faa015b08626882ddef940,TCR,2024-06-11_18h22.33.944,LearnStrategy,2023.2.3,MacIntel,59.88023952,,,,,,,,,,,5,05,1,3,,,,,,,,,,,,,,,,,,,,,,,,,,,,,
65faa015b08626882ddef940,TCR,2024-06-11_18h22.33.944,LearnStrategy,2023.2.3,MacIntel,59.88023952,,,,,,,,,,,2,09,1,4,,,,,,,,,,,,,,,,,,,,,,,,,,,,,
65faa015b08626882ddef940,TCR,2024-06-11_18h22.33.944,LearnStrategy,2023.2.3,MacIntel,59.88023952,,,,,,,,,,,6,16,1,5,,,,,,,,,,,,,,,,,,,,,,,,,,,,,
65faa015b08626882ddef940,TCR,2024-06-11_18h22.33.944,LearnStrategy,2023.2.3,MacIntel,59.88023952,,,,,,,,,,,4,10,1,6,,,,,,,,,,,,,,,,,,,,,,,,,,,,,
65faa015b08626882ddef940,TCR,2024-06-11_18h22.33.944,LearnStrategy,2023.2.3,MacIntel,59.88023952,,,,,,,,,,,3,09,1,7,,,,,,,,,,,,,,,,,,,,,,,,,,,,,
65faa015b08626882ddef940,TCR,2024-06-11_18h22.33.944,LearnStrategy,2023.2.3,MacIntel,59.88023952,,,,,,,,,,,2,08,1,8,,,,,,,,,,,,,,,,,,,,,,,,,,,,,
65faa015b08626882ddef940,TCR,2024-06-11_18h22.33.944,LearnStrategy,2023.2.3,MacIntel,59.88023952,,,,,,,,,,,8,04,2,1,,,,,,,,,,,,,,,,,,,,,,,,,,,,,
65faa015b08626882ddef940,TCR,2024-06-11_18h22.33.944,LearnStrategy,2023.2.3,MacIntel,59.88023952,,,,,,,,,,,1,14,2,2,,,,,,,,,,,,,,,,,,,,,,,,,,,,,
65faa015b08626882ddef940,TCR,2024-06-11_18h22.33.944,LearnStrategy,2023.2.3,MacIntel,59.88023952,,,,,,,,,,,6,15,2,3,,,,,,,,,,,,,,,,,,,,,,,,,,,,,
65faa015b08626882ddef940,TCR,2024-06-11_18h22.33.944,LearnStrategy,2023.2.3,MacIntel,59.88023952,,,,,,,,,,,6,10,2,4,,,,,,,,,,,,,,,,,,,,,,,,,,,,,
65faa015b08626882ddef940,TCR,2024-06-11_18h22.33.944,LearnStrategy,2023.2.3,MacIntel,59.88023952,,,,,,,,,,,1,06,2,5,,,,,,,,,,,,,,,,,,,,,,,,,,,,,
65faa015b08626882ddef940,TCR,2024-06-11_18h22.33.944,LearnStrategy,2023.2.3,MacIntel,59.88023952,,,,,,,,,,,4,14,2,6,,,,,,,,,,,,,,,,,,,,,,,,,,,,,
65faa015b08626882ddef940,TCR,2024-06-11_18h22.33.944,LearnStrategy,2023.2.3,MacIntel,59.88023952,,,,,,,,,,,4,01,2,7,,,,,,,,,,,,,,,,,,,,,,,,,,,,,
65faa015b08626882ddef940,TCR,2024-06-11_18h22.33.944,LearnStrategy,2023.2.3,MacIntel,59.88023952,,,,,,,,,,,5,02,2,8,,,,,,,,,,,,,,,,,,,,,,,,,,,,,
65faa015b08626882ddef940,TCR,2024-06-11_18h22.33.944,LearnStrategy,2023.2.3,MacIntel,59.88023952,,,,,,,,,,,7,13,3,1,,,,,,,,,,,,,,,,,,,,,,,,,,,,,
65faa015b08626882ddef940,TCR,2024-06-11_18h22.33.944,LearnStrategy,2023.2.3,MacIntel,59.88023952,,,,,,,,,,,7,10,3,2,,,,,,,,,,,,,,,,,,,,,,,,,,,,,
65faa015b08626882ddef940,TCR,2024-06-11_18h22.33.944,LearnStrategy,2023.2.3,MacIntel,59.88023952,,,,,,,,,,,5,11,3,3,,,,,,,,,,,,,,,,,,,,,,,,,,,,,
65faa015b08626882ddef940,TCR,2024-06-11_18h22.33.944,LearnStrategy,2023.2.3,MacIntel,59.88023952,,,,,,,,,,,2,01,3,4,,,,,,,,,,,,,,,,,,,,,,,,,,,,,
65faa015b08626882ddef940,TCR,2024-06-11_18h22.33.944,LearnStrategy,2023.2.3,MacIntel,59.88023952,,,,,,,,,,,7,05,3,5,,,,,,,,,,,,,,,,,,,,,,,,,,,,,
65faa015b08626882ddef940,TCR,2024-06-11_18h22.33.944,LearnStrategy,2023.2.3,MacIntel,59.88023952,,,,,,,,,,,1,09,3,6,,,,,,,,,,,,,,,,,,,,,,,,,,,,,
65faa015b08626882ddef940,TCR,2024-06-11_18h22.33.944,LearnStrategy,2023.2.3,MacIntel,59.88023952,,,,,,,,,,,3,13,3,7,,,,,,,,,,,,,,,,,,,,,,,,,,,,,
65faa015b08626882ddef940,TCR,2024-06-11_18h22.33.944,LearnStrategy,2023.2.3,MacIntel,59.88023952,,,,,,,,,,,6,03,3,8,,,,,,,,,,,,,,,,,,,,,,,,,,,,,
65faa015b08626882ddef940,TCR,2024-06-11_18h22.33.944,LearnStrategy,2023.2.3,MacIntel,59.88023952,,,,,,,,,,,1,07,4,1,,,,,,,,,,,,,,,,,,,,,,,,,,,,,
65faa015b08626882ddef940,TCR,2024-06-11_18h22.33.944,LearnStrategy,2023.2.3,MacIntel,59.88023952,,,,,,,,,,,1,03,4,2,,,,,,,,,,,,,,,,,,,,,,,,,,,,,
65faa015b08626882ddef940,TCR,2024-06-11_18h22.33.944,LearnStrategy,2023.2.3,MacIntel,59.88023952,,,,,,,,,,,8,05,4,3,,,,,,,,,,,,,,,,,,,,,,,,,,,,,
65faa015b08626882ddef940,TCR,2024-06-11_18h22.33.944,LearnStrategy,2023.2.3,MacIntel,59.88023952,,,,,,,,,,,7,15,4,4,,,,,,,,,,,,,,,,,,,,,,,,,,,,,
65faa015b08626882ddef940,TCR,2024-06-11_18h22.33.944,LearnStrategy,2023.2.3,MacIntel,59.88023952,,,,,,,,,,,2,11,4,5,,,,,,,,,,,,,,,,,,,,,,,,,,,,,
65faa015b08626882ddef940,TCR,2024-06-11_18h22.33.944,LearnStrategy,2023.2.3,MacIntel,59.88023952,,,,,,,,,,,5,14,4,6,,,,,,,,,,,,,,,,,,,,,,,,,,,,,
65faa015b08626882ddef940,TCR,2024-06-11_18h22.33.944,LearnStrategy,2023.2.3,MacIntel,59.88023952,,,,,,,,,,,1,05,4,7,,,,,,,,,,,,,,,,,,,,,,,,,,,,,
65faa015b08626882ddef940,TCR,2024-06-11_18h22.33.944,LearnStrategy,2023.2.3,MacIntel,59.88023952,,,,,,,,,,,3,14,4,8,,,,,,,,,,,,,,,,,,,,,,,,,,,,,
65faa015b08626882ddef940,TCR,2024-06-11_18h22.33.944,LearnStrategy,2023.2.3,MacIntel,59.88023952,,,,,,,,,,,8,03,5,1,,,,,,,,,,,,,,,,,,,,,,,,,,,,,
65faa015b08626882ddef940,TCR,2024-06-11_18h22.33.944,LearnStrategy,2023.2.3,MacIntel,59.88023952,,,,,,,,,,,3,16,5,2,,,,,,,,,,,,,,,,,,,,,,,,,,,,,
65faa015b08626882ddef940,TCR,2024-06-11_18h22.33.944,LearnStrategy,2023.2.3,MacIntel,59.88023952,,,,,,,,,,,7,07,5,3,,,,,,,,,,,,,,,,,,,,,,,,,,,,,
65faa015b08626882ddef940,TCR,2024-06-11_18h22.33.944,LearnStrategy,2023.2.3,MacIntel,59.88023952,,,,,,,,,,,8,10,5,4,,,,,,,,,,,,,,,,,,,,,,,,,,,,,
65faa015b08626882ddef940,TCR,2024-06-11_18h22.33.944,LearnStrategy,2023.2.3,MacIntel,59.88023952,,,,,,,,,,,3,12,5,5,,,,,,,,,,,,,,,,,,,,,,,,,,,,,
65faa015b08626882ddef940,TCR,2024-06-11_18h22.33.944,LearnStrategy,2023.2.3,MacIntel,59.88023952,,,,,,,,,,,7,06,5,6,,,,,,,,,,,,,,,,,,,,,,,,,,,,,
65faa015b08626882ddef940,TCR,2024-06-11_18h22.33.944,LearnStrategy,2023.2.3,MacIntel,59.88023952,,,,,,,,,,,6,07,5,7,,,,,,,,,,,,,,,,,,,,,,,,,,,,,
65faa015b08626882ddef940,TCR,2024-06-11_18h22.33.944,LearnStrategy,2023.2.3,MacIntel,59.88023952,,,,,,,,,,,6,06,5,8,,,,,,,,,,,,,,,,,,,,,,,,,,,,,
65faa015b08626882ddef940,TCR,2024-06-11_18h22.33.944,LearnStrategy,2023.2.3,MacIntel,59.88023952,,,,,,,,,,,3,07,6,1,,,,,,,,,,,,,,,,,,,,,,,,,,,,,
65faa015b08626882ddef940,TCR,2024-06-11_18h22.33.944,LearnStrategy,2023.2.3,MacIntel,59.88023952,,,,,,,,,,,2,04,6,2,,,,,,,,,,,,,,,,,,,,,,,,,,,,,
65faa015b08626882ddef940,TCR,2024-06-11_18h22.33.944,LearnStrategy,2023.2.3,MacIntel,59.88023952,,,,,,,,,,,4,13,6,3,,,,,,,,,,,,,,,,,,,,,,,,,,,,,
65faa015b08626882ddef940,TCR,2024-06-11_18h22.33.944,LearnStrategy,2023.2.3,MacIntel,59.88023952,,,,,,,,,,,2,14,6,4,,,,,,,,,,,,,,,,,,,,,,,,,,,,,
65faa015b08626882ddef940,TCR,2024-06-11_18h22.33.944,LearnStrategy,2023.2.3,MacIntel,59.88023952,,,,,,,,,,,8,14,6,5,,,,,,,,,,,,,,,,,,,,,,,,,,,,,
65faa015b08626882ddef940,TCR,2024-06-11_18h22.33.944,LearnStrategy,2023.2.3,MacIntel,59.88023952,,,,,,,,,,,8,13,6,6,,,,,,,,,,,,,,,,,,,,,,,,,,,,,
65faa015b08626882ddef940,TCR,2024-06-11_18h22.33.944,LearnStrategy,2023.2.3,MacIntel,59.88023952,,,,,,,,,,,5,09,6,7,,,,,,,,,,,,,,,,,,,,,,,,,,,,,
65faa015b08626882ddef940,TCR,2024-06-11_18h22.33.944,LearnStrategy,2023.2.3,MacIntel,59.88023952,,,,,,,,,,,5,04,6,8,,,,,,,,,,,,,,,,,,,,,,,,,,,,,