participant,condition,date,expName,psychopyVersion,OS,frameRate,block,phase,trial,learn_mouse_2.x,learn_mouse_2.y,learn_mouse_2.leftButton,learn_mouse_2.midButton,learn_mouse_2.rightButton,learn_mouse_2.time,learn_mouse_2.clicked_name,cat,token,row,col,t_select,cat_mouse_l.x,cat_mouse_l.y,cat_mouse_l.leftButton,cat_mouse_l.midButton,cat_mouse_l.rightButton,cat_mouse_l.time,cat_mouse_l.clicked_name,resp,t_resp,corr,train_trials.thisRepN,train_trials.thisTrialN,train_trials.thisN,train_trials.thisIndex,train_trials.ran,cat_mouse_t.x,cat_mouse_t.y,cat_mouse_t.leftButton,cat_mouse_t.midButton,cat_mouse_t.rightButton,cat_mouse_t.time,cat_mouse_t.clicked_name,test_trials.thisRepN,test_trials.thisTrialN,test_trials.thisN,test_trials.thisIndex,test_trials.ran,Bonus
65fd4f0fc340cf868802fdd8,TCN,2024-06-24_16h43.45.464,LearnStrategy,2023.2.3,Win32,60.07449237,,,,,,,,,,,,,,,,,,,,,,,,,,,,,,,,,,,,,,,,,,,
65fd4f0fc340cf868802fdd8,TCN,2024-06-24_16h43.45.464,LearnStrategy,2023.2.3,Win32,60.07449237,1,1,1,0.125,0.01171875,1,0,0,64.3741,rock_grid_rect_2,3,16,-1,-1,64.374,0.158854167,-0.248697917,1,0,0,17.4285,Diorite_rect,3,17.428,1,0,0,0,0,1,,,,,,,,,,,,,
65fd4f0fc340cf868802fdd8,TCN,2024-06-24_16h43.45.464,LearnStrategy,2023.2.3,Win32,60.07449237,1,1,2,0.045572917,0.00390625,1,0,0,2.1831,rock_grid_rect_2,5,10,-1,-1,2.183,-0.322916667,-0.38671875,1,0,0,17.5769,Obsidian_rect,5,17.577,1,1,0,1,0,1,,,,,,,,,,,,,
65fd4f0fc340cf868802fdd8,TCN,2024-06-24_16h43.45.464,LearnStrategy,2023.2.3,Win32,60.07449237,1,1,3,-0.001302083,0.001302083,1,0,0,2.2334,rock_grid_rect_2,2,04,-1,-1,2.233,-0.365885417,-0.2578125,1,0,0,24.3532,Andesite_rect,1,24.353,0,2,0,2,0,1,,,,,,,,,,,,,
65fd4f0fc340cf868802fdd8,TCN,2024-06-24_16h43.45.464,LearnStrategy,2023.2.3,Win32,60.07449237,1,1,4,-0.020833333,-0.00390625,1,0,0,1.1322,rock_grid_rect_2,8,03,-1,-1,1.132,0.423177083,-0.411458333,1,0,0,23.2211,Pumice_rect,8,23.221,1,3,0,3,0,1,,,,,,,,,,,,,
65fd4f0fc340cf868802fdd8,TCN,2024-06-24_16h43.45.464,LearnStrategy,2023.2.3,Win32,60.07449237,1,1,5,-0.006510417,-0.013020833,1,0,0,1.4982,rock_grid_rect_2,3,10,-1,-1,1.498,0.106770833,-0.260416667,1,0,0,17.0023,Diorite_rect,3,17.002,1,4,0,4,0,1,,,,,,,,,,,,,
65fd4f0fc340cf868802fdd8,TCN,2024-06-24_16h43.45.464,LearnStrategy,2023.2.3,Win32,60.07449237,1,1,6,0.045572917,-0.01953125,1,0,0,1.4542,rock_grid_rect_2,8,02,-1,-1,1.454,-0.0859375,-0.399739583,1,0,0,15.2318,Pegmatite_rect,6,15.232,0,5,0,5,0,1,,,,,,,,,,,,,
65fd4f0fc340cf868802fdd8,TCN,2024-06-24_16h43.45.464,LearnStrategy,2023.2.3,Win32,60.07449237,1,1,7,0.014322917,0.002604167,1,0,0,1.3798,rock_grid_rect_2,6,08,-1,-1,1.38,-0.385416667,-0.385416667,1,0,0,18.7792,Obsidian_rect,5,18.779,0,6,0,6,0,1,,,,,,,,,,,,,
65fd4f0fc340cf868802fdd8,TCN,2024-06-24_16h43.45.464,LearnStrategy,2023.2.3,Win32,60.07449237,1,1,8,0.033854167,-0.0078125,1,0,0,1.4262,rock_grid_rect_2,4,14,-1,-1,1.426,-0.3828125,-0.40625,1,0,0,35.9828,Obsidian_rect,5,35.983,0,7,0,7,0,1,,,,,,,,,,,,,
65fd4f0fc340cf868802fdd8,TCN,2024-06-24_16h43.45.464,LearnStrategy,2023.2.3,Win32,60.07449237,1,1,9,0.046875,-0.024739583,1,0,0,0.9646,rock_grid_rect_2,7,06,-1,-1,0.965,0.143229167,-0.252604167,1,0,0,44.8067,Diorite_rect,3,44.807,0,8,0,8,0,1,,,,,,,,,,,,,
65fd4f0fc340cf868802fdd8,TCN,2024-06-24_16h43.45.464,LearnStrategy,2023.2.3,Win32,60.07449237,1,1,10,0.016927083,-0.002604167,1,0,0,1.8227,rock_grid_rect_2,5,09,-1,-1,1.823,-0.352864583,-0.401041667,1,0,0,1.5846,Obsidian_rect,5,1.585,1,9,0,9,0,1,,,,,,,,,,,,,
65fd4f0fc340cf868802fdd8,TCN,2024-06-24_16h43.45.464,LearnStrategy,2023.2.3,Win32,60.07449237,1,1,11,0.026041667,-0.010416667,1,0,0,1.8346,rock_grid_rect_2,7,08,-1,-1,1.835,0.114583333,-0.248697917,1,0,0,13.0527,Diorite_rect,3,13.053,0,10,0,10,0,1,,,,,,,,,,,,,
65fd4f0fc340cf868802fdd8,TCN,2024-06-24_16h43.45.464,LearnStrategy,2023.2.3,Win32,60.07449237,1,1,12,0.010416667,-0.00390625,1,0,0,1.6563,rock_grid_rect_2,1,09,-1,-1,1.656,-0.092447917,-0.24609375,1,0,0,56.8619,Basalt_rect,2,56.862,0,11,0,11,0,1,,,,,,,,,,,,,
65fd4f0fc340cf868802fdd8,TCN,2024-06-24_16h43.45.464,LearnStrategy,2023.2.3,Win32,60.07449237,1,1,13,-0.0390625,-0.016927083,1,0,0,0.74,rock_grid_rect_2,1,14,-1,-1,0.74,0.149739583,-0.401041667,1,0,0,30.6265,Peridotite_rect,7,30.626,0,12,0,12,0,1,,,,,,,,,,,,,
65fd4f0fc340cf868802fdd8,TCN,2024-06-24_16h43.45.464,LearnStrategy,2023.2.3,Win32,60.07449237,1,1,14,0.01953125,0.0078125,1,0,0,1.0904,rock_grid_rect_2,4,10,-1,-1,1.09,-0.067708333,-0.25390625,1,0,0,56.3179,Basalt_rect,2,56.318,0,13,0,13,0,1,,,,,,,,,,,,,
65fd4f0fc340cf868802fdd8,TCN,2024-06-24_16h43.45.464,LearnStrategy,2023.2.3,Win32,60.07449237,1,1,15,0.028645833,0.00390625,1,0,0,0.7047,rock_grid_rect_2,6,10,-1,-1,0.705,0.184895833,-0.25,1,0,0,20.8796,Diorite_rect,3,20.88,0,14,0,14,0,1,,,,,,,,,,,,,
65fd4f0fc340cf868802fdd8,TCN,2024-06-24_16h43.45.464,LearnStrategy,2023.2.3,Win32,60.07449237,1,1,16,-0.080729167,0.024739583,1,0,0,2.0399,rock_grid_rect_2,2,02,-1,-1,2.04,-0.319010417,-0.260416667,1,0,0,10.1483,Andesite_rect,1,10.148,0,15,0,15,0,1,,,,,,,,,,,,,
65fd4f0fc340cf868802fdd8,TCN,2024-06-24_16h43.45.464,LearnStrategy,2023.2.3,Win32,60.07449237,1,2,1,,,,,,,,7,05,,,,,,,,,,,6,30.383,0,,,,,,-0.0859375,-0.384114583,1,0,0,30.3828,Pegmatite_rect,0,0,0,0,1,
65fd4f0fc340cf868802fdd8,TCN,2024-06-24_16h43.45.464,LearnStrategy,2023.2.3,Win32,60.07449237,1,2,2,,,,,,,,5,07,,,,,,,,,,,5,16.897,1,,,,,,-0.43359375,-0.407552083,1,0,0,16.8973,Obsidian_rect,1,0,1,0,1,
65fd4f0fc340cf868802fdd8,TCN,2024-06-24_16h43.45.464,LearnStrategy,2023.2.3,Win32,60.07449237,1,2,3,,,,,,,,1,11,,,,,,,,,,,1,26.776,1,,,,,,-0.438802083,-0.2421875,1,0,0,26.7761,Andesite_rect,2,0,2,0,1,
65fd4f0fc340cf868802fdd8,TCN,2024-06-24_16h43.45.464,LearnStrategy,2023.2.3,Win32,60.07449237,1,2,4,,,,,,,,5,06,,,,,,,,,,,5,13.031,1,,,,,,-0.380208333,-0.4140625,1,0,0,13.0306,Obsidian_rect,3,0,3,0,1,
65fd4f0fc340cf868802fdd8,TCN,2024-06-24_16h43.45.464,LearnStrategy,2023.2.3,Win32,60.07449237,1,2,5,,,,,,,,6,09,,,,,,,,,,,6,22.168,1,,,,,,-0.083333333,-0.407552083,1,0,0,22.1675,Pegmatite_rect,4,0,4,0,1,
65fd4f0fc340cf868802fdd8,TCN,2024-06-24_16h43.45.464,LearnStrategy,2023.2.3,Win32,60.07449237,1,2,6,,,,,,,,7,13,,,,,,,,,,,3,12.948,0,,,,,,0.141927083,-0.24609375,1,0,0,12.9481,Diorite_rect,5,0,5,0,1,
65fd4f0fc340cf868802fdd8,TCN,2024-06-24_16h43.45.464,LearnStrategy,2023.2.3,Win32,60.07449237,1,2,7,,,,,,,,3,06,,,,,,,,,,,2,18.957,0,,,,,,-0.157552083,-0.236979167,1,0,0,18.9565,Basalt_rect,6,0,6,0,1,
65fd4f0fc340cf868802fdd8,TCN,2024-06-24_16h43.45.464,LearnStrategy,2023.2.3,Win32,60.07449237,1,2,8,,,,,,,,3,15,,,,,,,,,,,3,23.637,1,,,,,,0.08984375,-0.260416667,1,0,0,23.637,Diorite_rect,7,0,7,0,1,
65fd4f0fc340cf868802fdd8,TCN,2024-06-24_16h43.45.464,LearnStrategy,2023.2.3,Win32,60.07449237,1,2,9,,,,,,,,8,09,,,,,,,,,,,8,6.778,1,,,,,,0.397135417,-0.395833333,1,0,0,6.7779,Pumice_rect,8,0,8,0,1,
65fd4f0fc340cf868802fdd8,TCN,2024-06-24_16h43.45.464,LearnStrategy,2023.2.3,Win32,60.07449237,1,2,10,,,,,,,,4,13,,,,,,,,,,,4,6.972,1,,,,,,0.37890625,-0.240885417,1,0,0,6.9717,Gabbro_rect,9,0,9,0,1,
65fd4f0fc340cf868802fdd8,TCN,2024-06-24_16h43.45.464,LearnStrategy,2023.2.3,Win32,60.07449237,1,2,11,,,,,,,,8,13,,,,,,,,,,,8,16.398,1,,,,,,0.391927083,-0.407552083,1,0,0,16.3981,Pumice_rect,10,0,10,0,1,
65fd4f0fc340cf868802fdd8,TCN,2024-06-24_16h43.45.464,LearnStrategy,2023.2.3,Win32,60.07449237,1,2,12,,,,,,,,2,12,,,,,,,,,,,2,15.983,1,,,,,,-0.12890625,-0.248697917,1,0,0,15.9832,Basalt_rect,11,0,11,0,1,
65fd4f0fc340cf868802fdd8,TCN,2024-06-24_16h43.45.464,LearnStrategy,2023.2.3,Win32,60.07449237,1,2,13,,,,,,,,2,01,,,,,,,,,,,1,25.124,0,,,,,,-0.385416667,-0.24609375,1,0,0,25.1236,Andesite_rect,12,0,12,0,1,
65fd4f0fc340cf868802fdd8,TCN,2024-06-24_16h43.45.464,LearnStrategy,2023.2.3,Win32,60.07449237,1,2,14,,,,,,,,4,15,,,,,,,,,,,3,11.732,0,,,,,,0.055989583,-0.244791667,1,0,0,11.7321,Diorite_rect,13,0,13,0,1,
65fd4f0fc340cf868802fdd8,TCN,2024-06-24_16h43.45.464,LearnStrategy,2023.2.3,Win32,60.07449237,1,2,15,,,,,,,,6,07,,,,,,,,,,,6,43.153,1,,,,,,-0.091145833,-0.39453125,1,0,0,43.1531,Pegmatite_rect,14,0,14,0,1,
65fd4f0fc340cf868802fdd8,TCN,2024-06-24_16h43.45.464,LearnStrategy,2023.2.3,Win32,60.07449237,1,2,16,,,,,,,,1,05,,,,,,,,,,,4,18.325,0,,,,,,0.395833333,-0.235677083,1,0,0,18.3254,Gabbro_rect,15,0,15,0,1,
65fd4f0fc340cf868802fdd8,TCN,2024-06-24_16h43.45.464,LearnStrategy,2023.2.3,Win32,60.07449237,2,1,1,0.106770833,0.01171875,1,0,0,12.3531,rock_grid_rect_2,1,07,-1,-1,12.353,-0.083333333,-0.2578125,1,0,0,36.7382,Basalt_rect,2,36.738,0,0,0,0,0,1,,,,,,,,,,,,,
65fd4f0fc340cf868802fdd8,TCN,2024-06-24_16h43.45.464,LearnStrategy,2023.2.3,Win32,60.07449237,2,1,2,0.020833333,-0.009114583,1,0,0,1.0268,rock_grid_rect_2,2,14,-1,-1,1.027,-0.110677083,-0.244791667,1,0,0,11.9762,Basalt_rect,2,11.976,1,1,0,1,0,1,,,,,,,,,,,,,
65fd4f0fc340cf868802fdd8,TCN,2024-06-24_16h43.45.464,LearnStrategy,2023.2.3,Win32,60.07449237,2,1,3,0.03515625,-0.009114583,1,0,0,1.7084,rock_grid_rect_2,8,10,-1,-1,1.708,0.40234375,-0.390625,1,0,0,13.3548,Pumice_rect,8,13.355,1,2,0,2,0,1,,,,,,,,,,,,,
65fd4f0fc340cf868802fdd8,TCN,2024-06-24_16h43.45.464,LearnStrategy,2023.2.3,Win32,60.07449237,2,1,4,-0.010416667,-0.01953125,1,0,0,1.2266,rock_grid_rect_2,3,08,-1,-1,1.227,0.114583333,-0.240885417,1,0,0,13.2867,Diorite_rect,3,13.287,1,3,0,3,0,1,,,,,,,,,,,,,
65fd4f0fc340cf868802fdd8,TCN,2024-06-24_16h43.45.464,LearnStrategy,2023.2.3,Win32,60.07449237,2,1,5,0,0.020833333,1,0,0,1.827,rock_grid_rect_2,5,04,-1,-1,1.827,-0.381510417,-0.391927083,1,0,0,4.2164,Obsidian_rect,5,4.216,1,4,0,4,0,1,,,,,,,,,,,,,
65fd4f0fc340cf868802fdd8,TCN,2024-06-24_16h43.45.464,LearnStrategy,2023.2.3,Win32,60.07449237,2,1,6,-0.01953125,-0.013020833,1,0,0,1.3581,rock_grid_rect_2,5,16,-1,-1,1.358,-0.41796875,-0.4140625,1,0,0,2.172,Obsidian_rect,5,2.172,1,5,0,5,0,1,,,,,,,,,,,,,
65fd4f0fc340cf868802fdd8,TCN,2024-06-24_16h43.45.464,LearnStrategy,2023.2.3,Win32,60.07449237,2,1,7,0.098958333,0.01171875,1,0,0,1.1144,rock_grid_rect_2,4,05,-1,-1,1.114,0.368489583,-0.23828125,1,0,0,11.8897,Gabbro_rect,4,11.89,1,6,0,6,0,1,,,,,,,,,,,,,
65fd4f0fc340cf868802fdd8,TCN,2024-06-24_16h43.45.464,LearnStrategy,2023.2.3,Win32,60.07449237,2,1,8,-0.0234375,-0.01171875,1,0,0,1.2004,rock_grid_rect_2,6,15,-1,-1,1.2,0.09765625,-0.401041667,1,0,0,6.0871,Peridotite_rect,7,6.087,0,7,0,7,0,1,,,,,,,,,,,,,
65fd4f0fc340cf868802fdd8,TCN,2024-06-24_16h43.45.464,LearnStrategy,2023.2.3,Win32,60.07449237,2,1,9,-0.024739583,-0.0078125,1,0,0,4.6556,rock_grid_rect_2,7,02,-1,-1,4.656,0.162760417,-0.260416667,1,0,0,21.1318,Diorite_rect,3,21.132,0,8,0,8,0,1,,,,,,,,,,,,,
65fd4f0fc340cf868802fdd8,TCN,2024-06-24_16h43.45.464,LearnStrategy,2023.2.3,Win32,60.07449237,2,1,10,0.07421875,-0.013020833,1,0,0,1.2061,rock_grid_rect_2,8,15,-1,-1,1.206,-0.098958333,-0.243489583,1,0,0,10.6753,Basalt_rect,2,10.675,0,9,0,9,0,1,,,,,,,,,,,,,
65fd4f0fc340cf868802fdd8,TCN,2024-06-24_16h43.45.464,LearnStrategy,2023.2.3,Win32,60.07449237,2,1,11,0.006510417,-0.010416667,1,0,0,3.878,rock_grid_rect_2,1,04,-1,-1,3.878,-0.119791667,-0.23828125,1,0,0,11.3707,Basalt_rect,2,11.371,0,10,0,10,0,1,,,,,,,,,,,,,
65fd4f0fc340cf868802fdd8,TCN,2024-06-24_16h43.45.464,LearnStrategy,2023.2.3,Win32,60.07449237,2,1,12,-0.014322917,0.014322917,1,0,0,4.9386,rock_grid_rect_2,2,09,-1,-1,4.939,-0.421875,-0.256510417,1,0,0,9.9394,Andesite_rect,1,9.939,0,11,0,11,0,1,,,,,,,,,,,,,
65fd4f0fc340cf868802fdd8,TCN,2024-06-24_16h43.45.464,LearnStrategy,2023.2.3,Win32,60.07449237,2,1,13,0.018229167,-0.0078125,1,0,0,0.9424,rock_grid_rect_2,6,06,-1,-1,0.942,-0.1328125,-0.388020833,1,0,0,14.0045,Pegmatite_rect,6,14.005,1,12,0,12,0,1,,,,,,,,,,,,,
65fd4f0fc340cf868802fdd8,TCN,2024-06-24_16h43.45.464,LearnStrategy,2023.2.3,Win32,60.07449237,2,1,14,-0.033854167,0.001302083,1,0,0,1.0934,rock_grid_rect_2,7,04,-1,-1,1.093,0.13671875,-0.252604167,1,0,0,37.6168,Diorite_rect,3,37.617,0,13,0,13,0,1,,,,,,,,,,,,,
65fd4f0fc340cf868802fdd8,TCN,2024-06-24_16h43.45.464,LearnStrategy,2023.2.3,Win32,60.07449237,2,1,15,0.020833333,-0.010416667,1,0,0,0.9421,rock_grid_rect_2,3,09,-1,-1,0.942,0.161458333,-0.259114583,1,0,0,12.2424,Diorite_rect,3,12.242,1,14,0,14,0,1,,,,,,,,,,,,,
65fd4f0fc340cf868802fdd8,TCN,2024-06-24_16h43.45.464,LearnStrategy,2023.2.3,Win32,60.07449237,2,1,16,0.00390625,0.0234375,1,0,0,0.9235,rock_grid_rect_2,4,08,-1,-1,0.923,-0.15234375,-0.401041667,1,0,0,17.312,Pegmatite_rect,6,17.312,0,15,0,15,0,1,,,,,,,,,,,,,
65fd4f0fc340cf868802fdd8,TCN,2024-06-24_16h43.45.464,LearnStrategy,2023.2.3,Win32,60.07449237,2,2,1,,,,,,,,8,06,,,,,,,,,,,8,11.433,1,,,,,,0.364583333,-0.420572917,1,0,0,11.4328,Pumice_rect,0,0,0,0,1,
65fd4f0fc340cf868802fdd8,TCN,2024-06-24_16h43.45.464,LearnStrategy,2023.2.3,Win32,60.07449237,2,2,2,,,,,,,,1,03,,,,,,,,,,,3,6.33,0,,,,,,0.126302083,-0.256510417,1,0,0,6.33,Diorite_rect,1,0,1,0,1,
65fd4f0fc340cf868802fdd8,TCN,2024-06-24_16h43.45.464,LearnStrategy,2023.2.3,Win32,60.07449237,2,2,3,,,,,,,,3,11,,,,,,,,,,,3,10.425,1,,,,,,0.140625,-0.25390625,1,0,0,10.4251,Diorite_rect,2,0,2,0,1,
65fd4f0fc340cf868802fdd8,TCN,2024-06-24_16h43.45.464,LearnStrategy,2023.2.3,Win32,60.07449237,2,2,4,,,,,,,,6,13,,,,,,,,,,,6,8.427,1,,,,,,-0.135416667,-0.391927083,1,0,0,8.4268,Pegmatite_rect,3,0,3,0,1,
65fd4f0fc340cf868802fdd8,TCN,2024-06-24_16h43.45.464,LearnStrategy,2023.2.3,Win32,60.07449237,2,2,5,,,,,,,,8,16,,,,,,,,,,,8,4.893,1,,,,,,0.404947917,-0.411458333,1,0,0,4.8926,Pumice_rect,4,0,4,0,1,
65fd4f0fc340cf868802fdd8,TCN,2024-06-24_16h43.45.464,LearnStrategy,2023.2.3,Win32,60.07449237,2,2,6,,,,,,,,1,16,,,,,,,,,,,7,14.766,0,,,,,,0.106770833,-0.3984375,1,0,0,14.7658,Peridotite_rect,5,0,5,0,1,
65fd4f0fc340cf868802fdd8,TCN,2024-06-24_16h43.45.464,LearnStrategy,2023.2.3,Win32,60.07449237,2,2,7,,,,,,,,3,07,,,,,,,,,,,3,9.794,1,,,,,,0.165364583,-0.25390625,1,0,0,9.794,Diorite_rect,6,0,6,0,1,
65fd4f0fc340cf868802fdd8,TCN,2024-06-24_16h43.45.464,LearnStrategy,2023.2.3,Win32,60.07449237,2,2,8,,,,,,,,2,10,,,,,,,,,,,5,1.945,0,,,,,,-0.3984375,-0.401041667,1,0,0,1.9454,Obsidian_rect,7,0,7,0,1,
65fd4f0fc340cf868802fdd8,TCN,2024-06-24_16h43.45.464,LearnStrategy,2023.2.3,Win32,60.07449237,2,2,9,,,,,,,,7,16,,,,,,,,,,,2,3.537,0,,,,,,-0.127604167,-0.251302083,1,0,0,3.537,Basalt_rect,8,0,8,0,1,
65fd4f0fc340cf868802fdd8,TCN,2024-06-24_16h43.45.464,LearnStrategy,2023.2.3,Win32,60.07449237,2,2,10,,,,,,,,7,14,,,,,,,,,,,7,4.727,1,,,,,,0.1484375,-0.407552083,1,0,0,4.7272,Peridotite_rect,9,0,9,0,1,
65fd4f0fc340cf868802fdd8,TCN,2024-06-24_16h43.45.464,LearnStrategy,2023.2.3,Win32,60.07449237,2,2,11,,,,,,,,5,02,,,,,,,,,,,5,1.598,1,,,,,,-0.352864583,-0.403645833,1,0,0,1.5977,Obsidian_rect,10,0,10,0,1,
65fd4f0fc340cf868802fdd8,TCN,2024-06-24_16h43.45.464,LearnStrategy,2023.2.3,Win32,60.07449237,2,2,12,,,,,,,,2,16,,,,,,,,,,,2,6.199,1,,,,,,-0.119791667,-0.24609375,1,0,0,6.1989,Basalt_rect,11,0,11,0,1,
65fd4f0fc340cf868802fdd8,TCN,2024-06-24_16h43.45.464,LearnStrategy,2023.2.3,Win32,60.07449237,2,2,13,,,,,,,,5,05,,,,,,,,,,,5,2.083,1,,,,,,-0.39453125,-0.388020833,1,0,0,2.0834,Obsidian_rect,12,0,12,0,1,
65fd4f0fc340cf868802fdd8,TCN,2024-06-24_16h43.45.464,LearnStrategy,2023.2.3,Win32,60.07449237,2,2,14,,,,,,,,4,11,,,,,,,,,,,4,3.042,1,,,,,,0.390625,-0.266927083,1,0,0,3.0417,Gabbro_rect,13,0,13,0,1,
65fd4f0fc340cf868802fdd8,TCN,2024-06-24_16h43.45.464,LearnStrategy,2023.2.3,Win32,60.07449237,2,2,15,,,,,,,,6,11,,,,,,,,,,,1,2.113,0,,,,,,-0.38671875,-0.264322917,1,0,0,2.1133,Andesite_rect,14,0,14,0,1,
65fd4f0fc340cf868802fdd8,TCN,2024-06-24_16h43.45.464,LearnStrategy,2023.2.3,Win32,60.07449237,2,2,16,,,,,,,,4,03,,,,,,,,,,,3,2.439,0,,,,,,0.123697917,-0.251302083,1,0,0,2.4388,Diorite_rect,15,0,15,0,1,
65fd4f0fc340cf868802fdd8,TCN,2024-06-24_16h43.45.464,LearnStrategy,2023.2.3,Win32,60.07449237,3,1,1,-0.014322917,0.013020833,1,0,0,2.641,rock_grid_rect_2,3,02,-1,-1,2.641,0.1640625,-0.234375,1,0,0,8.1206,Diorite_rect,3,8.121,1,0,0,0,0,1,,,,,,,,,,,,,
65fd4f0fc340cf868802fdd8,TCN,2024-06-24_16h43.45.464,LearnStrategy,2023.2.3,Win32,60.07449237,3,1,2,-0.0703125,0.006510417,1,0,0,1.1206,rock_grid_rect_2,8,05,-1,-1,1.121,0.430989583,-0.391927083,1,0,0,1.9298,Pumice_rect,8,1.93,1,1,0,1,0,1,,,,,,,,,,,,,
65fd4f0fc340cf868802fdd8,TCN,2024-06-24_16h43.45.464,LearnStrategy,2023.2.3,Win32,60.07449237,3,1,3,0.01953125,0.014322917,1,0,0,0.8491,rock_grid_rect_2,5,14,-1,-1,0.849,-0.41015625,-0.416666667,1,0,0,1.2796,Obsidian_rect,5,1.28,1,2,0,2,0,1,,,,,,,,,,,,,
65fd4f0fc340cf868802fdd8,TCN,2024-06-24_16h43.45.464,LearnStrategy,2023.2.3,Win32,60.07449237,3,1,4,-0.009114583,-0.018229167,1,0,0,0.8755,rock_grid_rect_2,4,12,-1,-1,0.876,0.3125,-0.256510417,1,0,0,6.4566,Gabbro_rect,4,6.457,1,3,0,3,0,1,,,,,,,,,,,,,
65fd4f0fc340cf868802fdd8,TCN,2024-06-24_16h43.45.464,LearnStrategy,2023.2.3,Win32,60.07449237,3,1,5,-0.01953125,-0.0078125,1,0,0,0.9457,rock_grid_rect_2,6,03,-1,-1,0.946,-0.0859375,-0.395833333,1,0,0,4.1084,Pegmatite_rect,6,4.108,1,4,0,4,0,1,,,,,,,,,,,,,
65fd4f0fc340cf868802fdd8,TCN,2024-06-24_16h43.45.464,LearnStrategy,2023.2.3,Win32,60.07449237,3,1,6,0.01953125,0.002604167,1,0,0,1.2994,rock_grid_rect_2,2,05,-1,-1,1.299,-0.11328125,-0.259114583,1,0,0,16.2125,Basalt_rect,2,16.212,1,5,0,5,0,1,,,,,,,,,,,,,
65fd4f0fc340cf868802fdd8,TCN,2024-06-24_16h43.45.464,LearnStrategy,2023.2.3,Win32,60.07449237,3,1,7,-0.0078125,-0.014322917,1,0,0,2.6253,rock_grid_rect_2,7,15,-1,-1,2.625,-0.1015625,-0.399739583,1,0,0,4.583,Pegmatite_rect,6,4.583,0,6,0,6,0,1,,,,,,,,,,,,,
65fd4f0fc340cf868802fdd8,TCN,2024-06-24_16h43.45.464,LearnStrategy,2023.2.3,Win32,60.07449237,3,1,8,-0.03515625,0.013020833,1,0,0,2.4408,rock_grid_rect_2,2,11,-1,-1,2.441,0.428385417,-0.399739583,1,0,0,5.3808,Pumice_rect,8,5.381,0,7,0,7,0,1,,,,,,,,,,,,,
65fd4f0fc340cf868802fdd8,TCN,2024-06-24_16h43.45.464,LearnStrategy,2023.2.3,Win32,60.07449237,3,1,9,0.00390625,-0.009114583,1,0,0,1.2612,rock_grid_rect_2,8,08,-1,-1,1.261,0.3984375,-0.403645833,1,0,0,4.4869,Pumice_rect,8,4.487,1,8,0,8,0,1,,,,,,,,,,,,,
65fd4f0fc340cf868802fdd8,TCN,2024-06-24_16h43.45.464,LearnStrategy,2023.2.3,Win32,60.07449237,3,1,10,0.032552083,-0.006510417,1,0,0,0.7761,rock_grid_rect_2,6,12,-1,-1,0.776,0.0859375,-0.411458333,1,0,0,4.8598,Peridotite_rect,7,4.86,0,9,0,9,0,1,,,,,,,,,,,,,
65fd4f0fc340cf868802fdd8,TCN,2024-06-24_16h43.45.464,LearnStrategy,2023.2.3,Win32,60.07449237,3,1,11,0.014322917,-0.010416667,1,0,0,0.9615,rock_grid_rect_2,5,11,-1,-1,0.962,-0.3671875,-0.381510417,1,0,0,1.2375,Obsidian_rect,5,1.237,1,10,0,10,0,1,,,,,,,,,,,,,
65fd4f0fc340cf868802fdd8,TCN,2024-06-24_16h43.45.464,LearnStrategy,2023.2.3,Win32,60.07449237,3,1,12,0.018229167,-0.018229167,1,0,0,0.9942,rock_grid_rect_2,3,13,-1,-1,0.994,0.173177083,-0.260416667,1,0,0,1.9038,Diorite_rect,3,1.904,1,11,0,11,0,1,,,,,,,,,,,,,
65fd4f0fc340cf868802fdd8,TCN,2024-06-24_16h43.45.464,LearnStrategy,2023.2.3,Win32,60.07449237,3,1,13,0.001302083,0.0078125,1,0,0,0.8641,rock_grid_rect_2,4,09,-1,-1,0.864,-0.15625,-0.248697917,1,0,0,2.81,Basalt_rect,2,2.81,0,12,0,12,0,1,,,,,,,,,,,,,
65fd4f0fc340cf868802fdd8,TCN,2024-06-24_16h43.45.464,LearnStrategy,2023.2.3,Win32,60.07449237,3,1,14,0.040364583,-0.015625,1,0,0,1.0644,rock_grid_rect_2,1,10,-1,-1,1.064,-0.377604167,-0.252604167,1,0,0,2.0009,Andesite_rect,1,2.001,1,13,0,13,0,1,,,,,,,,,,,,,
65fd4f0fc340cf868802fdd8,TCN,2024-06-24_16h43.45.464,LearnStrategy,2023.2.3,Win32,60.07449237,3,1,15,-0.014322917,-0.022135417,1,0,0,1.2752,rock_grid_rect_2,7,12,-1,-1,1.275,0.4140625,-0.236979167,1,0,0,2.7184,Gabbro_rect,4,2.718,0,14,0,14,0,1,,,,,,,,,,,,,
65fd4f0fc340cf868802fdd8,TCN,2024-06-24_16h43.45.464,LearnStrategy,2023.2.3,Win32,60.07449237,3,1,16,0.01953125,-0.010416667,1,0,0,1.0919,rock_grid_rect_2,1,02,-1,-1,1.092,-0.388020833,-0.235677083,1,0,0,7.3764,Andesite_rect,1,7.376,1,15,0,15,0,1,,,,,,,,,,,,,
65fd4f0fc340cf868802fdd8,TCN,2024-06-24_16h43.45.464,LearnStrategy,2023.2.3,Win32,60.07449237,3,2,1,,,,,,,,1,06,,,,,,,,,,,3,4.926,0,,,,,,0.15234375,-0.260416667,1,0,0,4.9263,Diorite_rect,0,0,0,0,1,
65fd4f0fc340cf868802fdd8,TCN,2024-06-24_16h43.45.464,LearnStrategy,2023.2.3,Win32,60.07449237,3,2,2,,,,,,,,6,05,,,,,,,,,,,7,2.89,0,,,,,,0.127604167,-0.390625,1,0,0,2.8902,Peridotite_rect,1,0,1,0,1,
65fd4f0fc340cf868802fdd8,TCN,2024-06-24_16h43.45.464,LearnStrategy,2023.2.3,Win32,60.07449237,3,2,3,,,,,,,,3,12,,,,,,,,,,,3,12.024,1,,,,,,0.1484375,-0.255208333,1,0,0,12.0241,Diorite_rect,2,0,2,0,1,
65fd4f0fc340cf868802fdd8,TCN,2024-06-24_16h43.45.464,LearnStrategy,2023.2.3,Win32,60.07449237,3,2,4,,,,,,,,7,10,,,,,,,,,,,1,3.789,0,,,,,,-0.4296875,-0.229166667,1,0,0,3.7891,Andesite_rect,3,0,3,0,1,
65fd4f0fc340cf868802fdd8,TCN,2024-06-24_16h43.45.464,LearnStrategy,2023.2.3,Win32,60.07449237,3,2,5,,,,,,,,6,16,,,,,,,,,,,6,1.833,1,,,,,,-0.095052083,-0.40234375,1,0,0,1.8326,Pegmatite_rect,4,0,4,0,1,
65fd4f0fc340cf868802fdd8,TCN,2024-06-24_16h43.45.464,LearnStrategy,2023.2.3,Win32,60.07449237,3,2,6,,,,,,,,2,06,,,,,,,,,,,2,4.929,1,,,,,,-0.134114583,-0.2578125,1,0,0,4.9287,Basalt_rect,5,0,5,0,1,
65fd4f0fc340cf868802fdd8,TCN,2024-06-24_16h43.45.464,LearnStrategy,2023.2.3,Win32,60.07449237,3,2,7,,,,,,,,7,07,,,,,,,,,,,3,14.919,0,,,,,,0.15234375,-0.251302083,1,0,0,14.9191,Diorite_rect,6,0,6,0,1,
65fd4f0fc340cf868802fdd8,TCN,2024-06-24_16h43.45.464,LearnStrategy,2023.2.3,Win32,60.07449237,3,2,8,,,,,,,,3,14,,,,,,,,,,,1,10.645,0,,,,,,-0.375,-0.2421875,1,0,0,10.6448,Andesite_rect,7,0,7,0,1,
65fd4f0fc340cf868802fdd8,TCN,2024-06-24_16h43.45.464,LearnStrategy,2023.2.3,Win32,60.07449237,3,2,9,,,,,,,,4,16,,,,,,,,,,,2,5.978,0,,,,,,-0.067708333,-0.243489583,1,0,0,5.9775,Basalt_rect,8,0,8,0,1,
65fd4f0fc340cf868802fdd8,TCN,2024-06-24_16h43.45.464,LearnStrategy,2023.2.3,Win32,60.07449237,3,2,10,,,,,,,,5,12,,,,,,,,,,,5,2.624,1,,,,,,-0.368489583,-0.411458333,1,0,0,2.6241,Obsidian_rect,9,0,9,0,1,
65fd4f0fc340cf868802fdd8,TCN,2024-06-24_16h43.45.464,LearnStrategy,2023.2.3,Win32,60.07449237,3,2,11,,,,,,,,8,14,,,,,,,,,,,8,1.639,1,,,,,,0.40234375,-0.407552083,1,0,0,1.6388,Pumice_rect,10,0,10,0,1,
65fd4f0fc340cf868802fdd8,TCN,2024-06-24_16h43.45.464,LearnStrategy,2023.2.3,Win32,60.07449237,3,2,12,,,,,,,,5,08,,,,,,,,,,,5,2.035,1,,,,,,-0.41796875,-0.411458333,1,0,0,2.0349,Obsidian_rect,11,0,11,0,1,
65fd4f0fc340cf868802fdd8,TCN,2024-06-24_16h43.45.464,LearnStrategy,2023.2.3,Win32,60.07449237,3,2,13,,,,,,,,1,01,,,,,,,,,,,3,3.1,0,,,,,,0.17578125,-0.251302083,1,0,0,3.1003,Diorite_rect,12,0,12,0,1,
65fd4f0fc340cf868802fdd8,TCN,2024-06-24_16h43.45.464,LearnStrategy,2023.2.3,Win32,60.07449237,3,2,14,,,,,,,,8,04,,,,,,,,,,,8,3.46,1,,,,,,0.3671875,-0.3984375,1,0,0,3.4597,Pumice_rect,13,0,13,0,1,
65fd4f0fc340cf868802fdd8,TCN,2024-06-24_16h43.45.464,LearnStrategy,2023.2.3,Win32,60.07449237,3,2,15,,,,,,,,4,01,,,,,,,,,,,4,3.868,1,,,,,,0.423177083,-0.23828125,1,0,0,3.8684,Gabbro_rect,14,0,14,0,1,
65fd4f0fc340cf868802fdd8,TCN,2024-06-24_16h43.45.464,LearnStrategy,2023.2.3,Win32,60.07449237,3,2,16,,,,,,,,2,08,,,,,,,,,,,2,4.435,1,,,,,,-0.08984375,-0.255208333,1,0,0,4.4349,Basalt_rect,15,0,15,0,1,
65fd4f0fc340cf868802fdd8,TCN,2024-06-24_16h43.45.464,LearnStrategy,2023.2.3,Win32,60.07449237,4,1,1,0.036458333,-0.00390625,1,0,0,1.7377,rock_grid_rect_2,5,09,-1,-1,1.738,-0.348958333,-0.381510417,1,0,0,1.9205,Obsidian_rect,5,1.921,1,0,0,0,0,1,,,,,,,,,,,,,
65fd4f0fc340cf868802fdd8,TCN,2024-06-24_16h43.45.464,LearnStrategy,2023.2.3,Win32,60.07449237,4,1,2,0.016927083,-0.018229167,1,0,0,1.3588,rock_grid_rect_2,4,09,-1,-1,1.359,0.411458333,-0.251302083,1,0,0,2.2905,Gabbro_rect,4,2.291,1,1,0,1,0,1,,,,,,,,,,,,,
65fd4f0fc340cf868802fdd8,TCN,2024-06-24_16h43.45.464,LearnStrategy,2023.2.3,Win32,60.07449237,4,1,3,0.049479167,-0.0078125,1,0,0,1.0261,rock_grid_rect_2,5,11,-1,-1,1.026,-0.364583333,-0.3984375,1,0,0,1.4275,Obsidian_rect,5,1.428,1,2,0,2,0,1,,,,,,,,,,,,,
65fd4f0fc340cf868802fdd8,TCN,2024-06-24_16h43.45.464,LearnStrategy,2023.2.3,Win32,60.07449237,4,1,4,0.026041667,-0.005208333,1,0,0,1.0243,rock_grid_rect_2,7,02,-1,-1,1.024,0.162760417,-0.391927083,1,0,0,3.3796,Peridotite_rect,7,3.38,1,3,0,3,0,1,,,,,,,,,,,,,
65fd4f0fc340cf868802fdd8,TCN,2024-06-24_16h43.45.464,LearnStrategy,2023.2.3,Win32,60.07449237,4,1,5,0.032552083,-0.005208333,1,0,0,1.1376,rock_grid_rect_2,3,08,-1,-1,1.138,0.131510417,-0.25390625,1,0,0,2.3022,Diorite_rect,3,2.302,1,4,0,4,0,1,,,,,,,,,,,,,
65fd4f0fc340cf868802fdd8,TCN,2024-06-24_16h43.45.464,LearnStrategy,2023.2.3,Win32,60.07449237,4,1,6,0.018229167,-0.0078125,1,0,0,1.1286,rock_grid_rect_2,4,10,-1,-1,1.129,-0.125,-0.247395833,1,0,0,4.691,Basalt_rect,2,4.691,0,5,0,5,0,1,,,,,,,,,,,,,
65fd4f0fc340cf868802fdd8,TCN,2024-06-24_16h43.45.464,LearnStrategy,2023.2.3,Win32,60.07449237,4,1,7,0.03125,-0.015625,1,0,0,1.0314,rock_grid_rect_2,6,10,-1,-1,1.031,-0.143229167,-0.397135417,1,0,0,2.3078,Pegmatite_rect,6,2.308,1,6,0,6,0,1,,,,,,,,,,,,,
65fd4f0fc340cf868802fdd8,TCN,2024-06-24_16h43.45.464,LearnStrategy,2023.2.3,Win32,60.07449237,4,1,8,0.052083333,0.0078125,1,0,0,1.2262,rock_grid_rect_2,8,05,-1,-1,1.226,0.41796875,-0.389322917,1,0,0,1.7183,Pumice_rect,8,1.718,1,7,0,7,0,1,,,,,,,,,,,,,
65fd4f0fc340cf868802fdd8,TCN,2024-06-24_16h43.45.464,LearnStrategy,2023.2.3,Win32,60.07449237,4,1,9,0.02734375,-0.024739583,1,0,0,0.8306,rock_grid_rect_2,1,09,-1,-1,0.831,-0.381510417,-0.2578125,1,0,0,3.567,Andesite_rect,1,3.567,1,8,0,8,0,1,,,,,,,,,,,,,
65fd4f0fc340cf868802fdd8,TCN,2024-06-24_16h43.45.464,LearnStrategy,2023.2.3,Win32,60.07449237,4,1,10,0.033854167,0.006510417,1,0,0,0.6664,rock_grid_rect_2,6,08,-1,-1,0.666,-0.149739583,-0.404947917,1,0,0,2.9505,Pegmatite_rect,6,2.95,1,9,0,9,0,1,,,,,,,,,,,,,
65fd4f0fc340cf868802fdd8,TCN,2024-06-24_16h43.45.464,LearnStrategy,2023.2.3,Win32,60.07449237,4,1,11,0.028645833,0.005208333,1,0,0,0.9253,rock_grid_rect_2,2,05,-1,-1,0.925,-0.130208333,-0.248697917,1,0,0,1.775,Basalt_rect,2,1.775,1,10,0,10,0,1,,,,,,,,,,,,,
65fd4f0fc340cf868802fdd8,TCN,2024-06-24_16h43.45.464,LearnStrategy,2023.2.3,Win32,60.07449237,4,1,12,0.00390625,-0.00390625,1,0,0,1.1253,rock_grid_rect_2,8,15,-1,-1,1.125,0.41796875,-0.408854167,1,0,0,1.4709,Pumice_rect,8,1.471,1,11,0,11,0,1,,,,,,,,,,,,,
65fd4f0fc340cf868802fdd8,TCN,2024-06-24_16h43.45.464,LearnStrategy,2023.2.3,Win32,60.07449237,4,1,13,-0.018229167,-0.00390625,1,0,0,0.9326,rock_grid_rect_2,1,07,-1,-1,0.933,0.157552083,-0.388020833,1,0,0,5.0318,Peridotite_rect,7,5.032,0,12,0,12,0,1,,,,,,,,,,,,,
65fd4f0fc340cf868802fdd8,TCN,2024-06-24_16h43.45.464,LearnStrategy,2023.2.3,Win32,60.07449237,4,1,14,0.045572917,0,1,0,0,1.0604,rock_grid_rect_2,3,09,-1,-1,1.06,0.154947917,-0.2578125,1,0,0,1.7402,Diorite_rect,3,1.74,1,13,0,13,0,1,,,,,,,,,,,,,
65fd4f0fc340cf868802fdd8,TCN,2024-06-24_16h43.45.464,LearnStrategy,2023.2.3,Win32,60.07449237,4,1,15,0.022135417,0.022135417,1,0,0,0.9134,rock_grid_rect_2,7,06,-1,-1,0.913,-0.31640625,-0.24609375,1,0,0,12.9068,Andesite_rect,1,12.907,0,14,0,14,0,1,,,,,,,,,,,,,
65fd4f0fc340cf868802fdd8,TCN,2024-06-24_16h43.45.464,LearnStrategy,2023.2.3,Win32,60.07449237,4,1,16,0.072916667,-0.001302083,1,0,0,1.4774,rock_grid_rect_2,2,09,-1,-1,1.477,-0.09375,-0.229166667,1,0,0,2.0739,Basalt_rect,2,2.074,1,15,0,15,0,1,,,,,,,,,,,,,
65fd4f0fc340cf868802fdd8,TCN,2024-06-24_16h43.45.464,LearnStrategy,2023.2.3,Win32,60.07449237,4,2,1,,,,,,,,3,07,,,,,,,,,,,3,4.89,1,,,,,,0.192708333,-0.247395833,1,0,0,4.8905,Diorite_rect,0,0,0,0,1,
65fd4f0fc340cf868802fdd8,TCN,2024-06-24_16h43.45.464,LearnStrategy,2023.2.3,Win32,60.07449237,4,2,2,,,,,,,,4,16,,,,,,,,,,,2,7.325,0,,,,,,-0.134114583,-0.260416667,1,0,0,7.3248,Basalt_rect,1,0,1,0,1,
65fd4f0fc340cf868802fdd8,TCN,2024-06-24_16h43.45.464,LearnStrategy,2023.2.3,Win32,60.07449237,4,2,3,,,,,,,,8,04,,,,,,,,,,,8,1.879,1,,,,,,0.411458333,-0.395833333,1,0,0,1.8785,Pumice_rect,2,0,2,0,1,
65fd4f0fc340cf868802fdd8,TCN,2024-06-24_16h43.45.464,LearnStrategy,2023.2.3,Win32,60.07449237,4,2,4,,,,,,,,2,06,,,,,,,,,,,2,4.807,1,,,,,,-0.096354167,-0.251302083,1,0,0,4.8067,Basalt_rect,3,0,3,0,1,
65fd4f0fc340cf868802fdd8,TCN,2024-06-24_16h43.45.464,LearnStrategy,2023.2.3,Win32,60.07449237,4,2,5,,,,,,,,7,10,,,,,,,,,,,7,4.468,1,,,,,,0.12109375,-0.39453125,1,0,0,4.4679,Peridotite_rect,4,0,4,0,1,
65fd4f0fc340cf868802fdd8,TCN,2024-06-24_16h43.45.464,LearnStrategy,2023.2.3,Win32,60.07449237,4,2,6,,,,,,,,3,11,,,,,,,,,,,3,6.458,1,,,,,,0.1484375,-0.248697917,1,0,0,6.4576,Diorite_rect,5,0,5,0,1,
65fd4f0fc340cf868802fdd8,TCN,2024-06-24_16h43.45.464,LearnStrategy,2023.2.3,Win32,60.07449237,4,2,7,,,,,,,,8,06,,,,,,,,,,,8,1.707,1,,,,,,0.421875,-0.393229167,1,0,0,1.7069,Pumice_rect,6,0,6,0,1,
65fd4f0fc340cf868802fdd8,TCN,2024-06-24_16h43.45.464,LearnStrategy,2023.2.3,Win32,60.07449237,4,2,8,,,,,,,,4,01,,,,,,,,,,,4,1.72,1,,,,,,0.415364583,-0.248697917,1,0,0,1.7205,Gabbro_rect,7,0,7,0,1,
65fd4f0fc340cf868802fdd8,TCN,2024-06-24_16h43.45.464,LearnStrategy,2023.2.3,Win32,60.07449237,4,2,9,,,,,,,,7,14,,,,,,,,,,,1,2.432,0,,,,,,-0.415364583,-0.243489583,1,0,0,2.4318,Andesite_rect,8,0,8,0,1,
65fd4f0fc340cf868802fdd8,TCN,2024-06-24_16h43.45.464,LearnStrategy,2023.2.3,Win32,60.07449237,4,2,10,,,,,,,,1,11,,,,,,,,,,,1,6.268,1,,,,,,-0.369791667,-0.26171875,1,0,0,6.2684,Andesite_rect,9,0,9,0,1,
65fd4f0fc340cf868802fdd8,TCN,2024-06-24_16h43.45.464,LearnStrategy,2023.2.3,Win32,60.07449237,4,2,11,,,,,,,,5,12,,,,,,,,,,,5,1.377,1,,,,,,-0.364583333,-0.403645833,1,0,0,1.3773,Obsidian_rect,10,0,10,0,1,
65fd4f0fc340cf868802fdd8,TCN,2024-06-24_16h43.45.464,LearnStrategy,2023.2.3,Win32,60.07449237,4,2,12,,,,,,,,1,06,,,,,,,,,,,3,7.689,0,,,,,,0.15625,-0.23828125,1,0,0,7.6891,Diorite_rect,11,0,11,0,1,
65fd4f0fc340cf868802fdd8,TCN,2024-06-24_16h43.45.464,LearnStrategy,2023.2.3,Win32,60.07449237,4,2,13,,,,,,,,5,02,,,,,,,,,,,5,3.16,1,,,,,,-0.434895833,-0.412760417,1,0,0,3.1603,Obsidian_rect,12,0,12,0,1,
65fd4f0fc340cf868802fdd8,TCN,2024-06-24_16h43.45.464,LearnStrategy,2023.2.3,Win32,60.07449237,4,2,14,,,,,,,,6,13,,,,,,,,,,,6,3.115,1,,,,,,-0.166666667,-0.391927083,1,0,0,3.1154,Pegmatite_rect,13,0,13,0,1,
65fd4f0fc340cf868802fdd8,TCN,2024-06-24_16h43.45.464,LearnStrategy,2023.2.3,Win32,60.07449237,4,2,15,,,,,,,,2,08,,,,,,,,,,,2,2.341,1,,,,,,-0.143229167,-0.252604167,1,0,0,2.3415,Basalt_rect,14,0,14,0,1,
65fd4f0fc340cf868802fdd8,TCN,2024-06-24_16h43.45.464,LearnStrategy,2023.2.3,Win32,60.07449237,4,2,16,,,,,,,,6,09,,,,,,,,,,,6,2.078,1,,,,,,-0.14453125,-0.381510417,1,0,0,2.0781,Pegmatite_rect,15,0,15,0,1,
65fd4f0fc340cf868802fdd8,TCN,2024-06-24_16h43.45.464,LearnStrategy,2023.2.3,Win32,60.07449237,5,1,1,0.05859375,0.001302083,1,0,0,1.0379,rock_grid_rect_2,7,04,-1,-1,1.038,0.108072917,-0.399739583,1,0,0,5.628,Peridotite_rect,7,5.628,1,0,0,0,0,1,,,,,,,,,,,,,
65fd4f0fc340cf868802fdd8,TCN,2024-06-24_16h43.45.464,LearnStrategy,2023.2.3,Win32,60.07449237,5,1,2,0.0234375,-0.01171875,1,0,0,1.0637,rock_grid_rect_2,2,14,-1,-1,1.064,-0.114583333,-0.24609375,1,0,0,5.1374,Basalt_rect,2,5.137,1,1,0,1,0,1,,,,,,,,,,,,,
65fd4f0fc340cf868802fdd8,TCN,2024-06-24_16h43.45.464,LearnStrategy,2023.2.3,Win32,60.07449237,5,1,3,0.032552083,-0.01953125,1,0,0,1.0074,rock_grid_rect_2,2,04,-1,-1,1.007,0.368489583,-0.26171875,1,0,0,5.2148,Gabbro_rect,4,5.215,0,2,0,2,0,1,,,,,,,,,,,,,
65fd4f0fc340cf868802fdd8,TCN,2024-06-24_16h43.45.464,LearnStrategy,2023.2.3,Win32,60.07449237,5,1,4,0.0078125,-0.006510417,1,0,0,1.6581,rock_grid_rect_2,1,04,-1,-1,1.658,-0.408854167,-0.244791667,1,0,0,4.779,Andesite_rect,1,4.779,1,3,0,3,0,1,,,,,,,,,,,,,
65fd4f0fc340cf868802fdd8,TCN,2024-06-24_16h43.45.464,LearnStrategy,2023.2.3,Win32,60.07449237,5,1,5,0.010416667,0.005208333,1,0,0,1.1119,rock_grid_rect_2,5,10,-1,-1,1.112,-0.3828125,-0.41796875,1,0,0,1.4448,Obsidian_rect,5,1.445,1,4,0,4,0,1,,,,,,,,,,,,,
65fd4f0fc340cf868802fdd8,TCN,2024-06-24_16h43.45.464,LearnStrategy,2023.2.3,Win32,60.07449237,5,1,6,-0.013020833,-0.01171875,1,0,0,1.6922,rock_grid_rect_2,8,08,-1,-1,1.692,0.412760417,-0.401041667,1,0,0,1.9839,Pumice_rect,8,1.984,1,5,0,5,0,1,,,,,,,,,,,,,
65fd4f0fc340cf868802fdd8,TCN,2024-06-24_16h43.45.464,LearnStrategy,2023.2.3,Win32,60.07449237,5,1,7,0.02734375,-0.005208333,1,0,0,1.0946,rock_grid_rect_2,5,14,-1,-1,1.095,-0.37109375,-0.404947917,1,0,0,1.9521,Obsidian_rect,5,1.952,1,6,0,6,0,1,,,,,,,,,,,,,
65fd4f0fc340cf868802fdd8,TCN,2024-06-24_16h43.45.464,LearnStrategy,2023.2.3,Win32,60.07449237,5,1,8,0.002604167,0.005208333,1,0,0,0.8643,rock_grid_rect_2,1,14,-1,-1,0.864,0.356770833,-0.25390625,1,0,0,20.4737,Gabbro_rect,4,20.474,0,7,0,7,0,1,,,,,,,,,,,,,
65fd4f0fc340cf868802fdd8,TCN,2024-06-24_16h43.45.464,LearnStrategy,2023.2.3,Win32,60.07449237,5,1,9,-0.015625,0.001302083,1,0,0,1.3923,rock_grid_rect_2,7,08,-1,-1,1.392,0.108072917,-0.412760417,1,0,0,1.7192,Peridotite_rect,7,1.719,1,8,0,8,0,1,,,,,,,,,,,,,
65fd4f0fc340cf868802fdd8,TCN,2024-06-24_16h43.45.464,LearnStrategy,2023.2.3,Win32,60.07449237,5,1,10,-0.009114583,-0.010416667,1,0,0,1.0866,rock_grid_rect_2,4,14,-1,-1,1.087,-0.108072917,-0.247395833,1,0,0,2.5602,Basalt_rect,2,2.56,0,9,0,9,0,1,,,,,,,,,,,,,
65fd4f0fc340cf868802fdd8,TCN,2024-06-24_16h43.45.464,LearnStrategy,2023.2.3,Win32,60.07449237,5,1,11,-0.01171875,0.0234375,1,0,0,0.8162,rock_grid_rect_2,4,12,-1,-1,0.816,0.143229167,-0.24609375,1,0,0,2.5681,Diorite_rect,3,2.568,0,10,0,10,0,1,,,,,,,,,,,,,
65fd4f0fc340cf868802fdd8,TCN,2024-06-24_16h43.45.464,LearnStrategy,2023.2.3,Win32,60.07449237,5,1,12,0.0390625,0.020833333,1,0,0,1.1289,rock_grid_rect_2,6,03,-1,-1,1.129,-0.046875,-0.393229167,1,0,0,4.0092,Pegmatite_rect,6,4.009,1,11,0,11,0,1,,,,,,,,,,,,,
65fd4f0fc340cf868802fdd8,TCN,2024-06-24_16h43.45.464,LearnStrategy,2023.2.3,Win32,60.07449237,5,1,13,0.002604167,0,1,0,0,1.0921,rock_grid_rect_2,3,13,-1,-1,1.092,0.1875,-0.259114583,1,0,0,1.4006,Diorite_rect,3,1.401,1,12,0,12,0,1,,,,,,,,,,,,,
65fd4f0fc340cf868802fdd8,TCN,2024-06-24_16h43.45.464,LearnStrategy,2023.2.3,Win32,60.07449237,5,1,14,0.010416667,0.018229167,1,0,0,1.3103,rock_grid_rect_2,3,10,-1,-1,1.31,0.44921875,-0.244791667,1,0,0,4.5595,Gabbro_rect,4,4.559,0,13,0,13,0,1,,,,,,,,,,,,,
65fd4f0fc340cf868802fdd8,TCN,2024-06-24_16h43.45.464,LearnStrategy,2023.2.3,Win32,60.07449237,5,1,15,0.0546875,-0.013020833,1,0,0,0.9423,rock_grid_rect_2,6,06,-1,-1,0.942,0.109375,-0.393229167,1,0,0,7.7547,Peridotite_rect,7,7.755,0,14,0,14,0,1,,,,,,,,,,,,,
65fd4f0fc340cf868802fdd8,TCN,2024-06-24_16h43.45.464,LearnStrategy,2023.2.3,Win32,60.07449237,5,1,16,0.013020833,0.015625,1,0,0,1.3819,rock_grid_rect_2,8,10,-1,-1,1.382,0.423177083,-0.401041667,1,0,0,1.6312,Pumice_rect,8,1.631,1,15,0,15,0,1,,,,,,,,,,,,,
65fd4f0fc340cf868802fdd8,TCN,2024-06-24_16h43.45.464,LearnStrategy,2023.2.3,Win32,60.07449237,5,2,1,,,,,,,,4,13,,,,,,,,,,,2,7.836,0,,,,,,-0.104166667,-0.23828125,1,0,0,7.8361,Basalt_rect,0,0,0,0,1,
65fd4f0fc340cf868802fdd8,TCN,2024-06-24_16h43.45.464,LearnStrategy,2023.2.3,Win32,60.07449237,5,2,2,,,,,,,,8,14,,,,,,,,,,,8,1.459,1,,,,,,0.427083333,-0.401041667,1,0,0,1.4586,Pumice_rect,1,0,1,0,1,
65fd4f0fc340cf868802fdd8,TCN,2024-06-24_16h43.45.464,LearnStrategy,2023.2.3,Win32,60.07449237,5,2,3,,,,,,,,3,06,,,,,,,,,,,3,3.56,1,,,,,,0.173177083,-0.252604167,1,0,0,3.5597,Diorite_rect,2,0,2,0,1,
65fd4f0fc340cf868802fdd8,TCN,2024-06-24_16h43.45.464,LearnStrategy,2023.2.3,Win32,60.07449237,5,2,4,,,,,,,,7,07,,,,,,,,,,,7,5.237,1,,,,,,0.12890625,-0.416666667,1,0,0,5.2375,Peridotite_rect,3,0,3,0,1,
65fd4f0fc340cf868802fdd8,TCN,2024-06-24_16h43.45.464,LearnStrategy,2023.2.3,Win32,60.07449237,5,2,5,,,,,,,,1,05,,,,,,,,,,,1,4.662,1,,,,,,-0.368489583,-0.25390625,1,0,0,4.6616,Andesite_rect,4,0,4,0,1,
65fd4f0fc340cf868802fdd8,TCN,2024-06-24_16h43.45.464,LearnStrategy,2023.2.3,Win32,60.07449237,5,2,6,,,,,,,,3,12,,,,,,,,,,,4,6.832,0,,,,,,0.359375,-0.25390625,1,0,0,6.8318,Gabbro_rect,5,0,5,0,1,
65fd4f0fc340cf868802fdd8,TCN,2024-06-24_16h43.45.464,LearnStrategy,2023.2.3,Win32,60.07449237,5,2,7,,,,,,,,2,01,,,,,,,,,,,4,1.24,0,,,,,,0.359375,-0.25390625,1,0,0,1.2395,Gabbro_rect,6,0,6,0,1,
65fd4f0fc340cf868802fdd8,TCN,2024-06-24_16h43.45.464,LearnStrategy,2023.2.3,Win32,60.07449237,5,2,8,,,,,,,,4,11,,,,,,,,,,,2,4.405,0,,,,,,-0.153645833,-0.247395833,1,0,0,4.405,Basalt_rect,7,0,7,0,1,
65fd4f0fc340cf868802fdd8,TCN,2024-06-24_16h43.45.464,LearnStrategy,2023.2.3,Win32,60.07449237,5,2,9,,,,,,,,7,05,,,,,,,,,,,7,2.211,1,,,,,,0.09765625,-0.384114583,1,0,0,2.2111,Peridotite_rect,8,0,8,0,1,
65fd4f0fc340cf868802fdd8,TCN,2024-06-24_16h43.45.464,LearnStrategy,2023.2.3,Win32,60.07449237,5,2,10,,,,,,,,2,12,,,,,,,,,,,4,6.102,0,,,,,,0.458333333,-0.25,1,0,0,6.1025,Gabbro_rect,9,0,9,0,1,
65fd4f0fc340cf868802fdd8,TCN,2024-06-24_16h43.45.464,LearnStrategy,2023.2.3,Win32,60.07449237,5,2,11,,,,,,,,6,11,,,,,,,,,,,6,2.53,1,,,,,,-0.134114583,-0.385416667,1,0,0,2.5295,Pegmatite_rect,10,0,10,0,1,
65fd4f0fc340cf868802fdd8,TCN,2024-06-24_16h43.45.464,LearnStrategy,2023.2.3,Win32,60.07449237,5,2,12,,,,,,,,5,07,,,,,,,,,,,5,1.237,1,,,,,,-0.407552083,-0.404947917,1,0,0,1.237,Obsidian_rect,11,0,11,0,1,
65fd4f0fc340cf868802fdd8,TCN,2024-06-24_16h43.45.464,LearnStrategy,2023.2.3,Win32,60.07449237,5,2,13,,,,,,,,8,09,,,,,,,,,,,8,1.402,1,,,,,,0.397135417,-0.401041667,1,0,0,1.4017,Pumice_rect,12,0,12,0,1,
65fd4f0fc340cf868802fdd8,TCN,2024-06-24_16h43.45.464,LearnStrategy,2023.2.3,Win32,60.07449237,5,2,14,,,,,,,,5,08,,,,,,,,,,,5,1.187,1,,,,,,-0.401041667,-0.397135417,1,0,0,1.1874,Obsidian_rect,13,0,13,0,1,
65fd4f0fc340cf868802fdd8,TCN,2024-06-24_16h43.45.464,LearnStrategy,2023.2.3,Win32,60.07449237,5,2,15,,,,,,,,6,07,,,,,,,,,,,6,1.161,1,,,,,,-0.131510417,-0.393229167,1,0,0,1.1606,Pegmatite_rect,14,0,14,0,1,
65fd4f0fc340cf868802fdd8,TCN,2024-06-24_16h43.45.464,LearnStrategy,2023.2.3,Win32,60.07449237,5,2,16,,,,,,,,1,01,,,,,,,,,,,2,2.806,0,,,,,,-0.130208333,-0.25,1,0,0,2.8056,Basalt_rect,15,0,15,0,1,
65fd4f0fc340cf868802fdd8,TCN,2024-06-24_16h43.45.464,LearnStrategy,2023.2.3,Win32,60.07449237,6,1,1,0.036458333,-0.006510417,1,0,0,1.5105,rock_grid_rect_2,1,10,-1,-1,1.51,-0.321614583,-0.26171875,1,0,0,9.8689,Andesite_rect,1,9.869,1,0,0,0,0,1,,,,,,,,,,,,,
65fd4f0fc340cf868802fdd8,TCN,2024-06-24_16h43.45.464,LearnStrategy,2023.2.3,Win32,60.07449237,6,1,2,0.022135417,-0.015625,1,0,0,1.0174,rock_grid_rect_2,5,04,-1,-1,1.017,-0.391927083,-0.40234375,1,0,0,1.4215,Obsidian_rect,5,1.421,1,1,0,1,0,1,,,,,,,,,,,,,
65fd4f0fc340cf868802fdd8,TCN,2024-06-24_16h43.45.464,LearnStrategy,2023.2.3,Win32,60.07449237,6,1,3,-0.009114583,-0.020833333,1,0,0,0.7597,rock_grid_rect_2,6,15,-1,-1,0.76,-0.114583333,-0.404947917,1,0,0,1.292,Pegmatite_rect,6,1.292,1,2,0,2,0,1,,,,,,,,,,,,,
65fd4f0fc340cf868802fdd8,TCN,2024-06-24_16h43.45.464,LearnStrategy,2023.2.3,Win32,60.07449237,6,1,4,0.032552083,-0.0078125,1,0,0,1.0255,rock_grid_rect_2,1,02,-1,-1,1.025,0.377604167,-0.244791667,1,0,0,2.5608,Gabbro_rect,4,2.561,0,3,0,3,0,1,,,,,,,,,,,,,
65fd4f0fc340cf868802fdd8,TCN,2024-06-24_16h43.45.464,LearnStrategy,2023.2.3,Win32,60.07449237,6,1,5,0.014322917,0.002604167,1,0,0,0.9583,rock_grid_rect_2,4,08,-1,-1,0.958,0.380208333,-0.26171875,1,0,0,3.9369,Gabbro_rect,4,3.937,1,4,0,4,0,1,,,,,,,,,,,,,
65fd4f0fc340cf868802fdd8,TCN,2024-06-24_16h43.45.464,LearnStrategy,2023.2.3,Win32,60.07449237,6,1,6,0.049479167,0.01953125,1,0,0,1.744,rock_grid_rect_2,2,11,-1,-1,1.744,-0.12890625,-0.229166667,1,0,0,1.5612,Basalt_rect,2,1.561,1,5,0,5,0,1,,,,,,,,,,,,,
65fd4f0fc340cf868802fdd8,TCN,2024-06-24_16h43.45.464,LearnStrategy,2023.2.3,Win32,60.07449237,6,1,7,-0.052083333,0.005208333,1,0,0,0.993,rock_grid_rect_2,5,16,-1,-1,0.993,-0.408854167,-0.391927083,1,0,0,3.2807,Obsidian_rect,5,3.281,1,6,0,6,0,1,,,,,,,,,,,,,
65fd4f0fc340cf868802fdd8,TCN,2024-06-24_16h43.45.464,LearnStrategy,2023.2.3,Win32,60.07449237,6,1,8,-0.002604167,-0.013020833,1,0,0,1.4438,rock_grid_rect_2,8,03,-1,-1,1.444,0.393229167,-0.390625,1,0,0,1.6765,Pumice_rect,8,1.677,1,7,0,7,0,1,,,,,,,,,,,,,
65fd4f0fc340cf868802fdd8,TCN,2024-06-24_16h43.45.464,LearnStrategy,2023.2.3,Win32,60.07449237,6,1,9,0.037760417,-0.005208333,1,0,0,1.0114,rock_grid_rect_2,4,05,-1,-1,1.011,0.40625,-0.266927083,1,0,0,1.8702,Gabbro_rect,4,1.87,1,8,0,8,0,1,,,,,,,,,,,,,
65fd4f0fc340cf868802fdd8,TCN,2024-06-24_16h43.45.464,LearnStrategy,2023.2.3,Win32,60.07449237,6,1,10,0.022135417,-0.013020833,1,0,0,0.7332,rock_grid_rect_2,3,02,-1,-1,0.733,0.143229167,-0.244791667,1,0,0,1.7695,Diorite_rect,3,1.769,1,9,0,9,0,1,,,,,,,,,,,,,
65fd4f0fc340cf868802fdd8,TCN,2024-06-24_16h43.45.464,LearnStrategy,2023.2.3,Win32,60.07449237,6,1,11,0.0234375,-0.001302083,1,0,0,0.8262,rock_grid_rect_2,3,16,-1,-1,0.826,0.138020833,-0.23046875,1,0,0,2.4851,Diorite_rect,3,2.485,1,10,0,10,0,1,,,,,,,,,,,,,
65fd4f0fc340cf868802fdd8,TCN,2024-06-24_16h43.45.464,LearnStrategy,2023.2.3,Win32,60.07449237,6,1,12,0.002604167,0.00390625,1,0,0,0.8588,rock_grid_rect_2,7,15,-1,-1,0.859,0.154947917,-0.388020833,1,0,0,2.5574,Peridotite_rect,7,2.557,1,11,0,11,0,1,,,,,,,,,,,,,
65fd4f0fc340cf868802fdd8,TCN,2024-06-24_16h43.45.464,LearnStrategy,2023.2.3,Win32,60.07449237,6,1,13,0.005208333,-0.024739583,1,0,0,0.9776,rock_grid_rect_2,2,02,-1,-1,0.978,0.415364583,-0.244791667,1,0,0,3.7119,Gabbro_rect,4,3.712,0,12,0,12,0,1,,,,,,,,,,,,,
65fd4f0fc340cf868802fdd8,TCN,2024-06-24_16h43.45.464,LearnStrategy,2023.2.3,Win32,60.07449237,6,1,14,-0.026041667,0,1,0,0,0.9366,rock_grid_rect_2,6,12,-1,-1,0.937,-0.399739583,-0.265625,1,0,0,4.8474,Andesite_rect,1,4.847,0,13,0,13,0,1,,,,,,,,,,,,,
65fd4f0fc340cf868802fdd8,TCN,2024-06-24_16h43.45.464,LearnStrategy,2023.2.3,Win32,60.07449237,6,1,15,-0.03125,-0.0234375,1,0,0,0.9761,rock_grid_rect_2,8,02,-1,-1,0.976,0.388020833,-0.401041667,1,0,0,1.614,Pumice_rect,8,1.614,1,14,0,14,0,1,,,,,,,,,,,,,
65fd4f0fc340cf868802fdd8,TCN,2024-06-24_16h43.45.464,LearnStrategy,2023.2.3,Win32,60.07449237,6,1,16,-0.001302083,-0.016927083,1,0,0,0.855,rock_grid_rect_2,7,12,-1,-1,0.855,0.125,-0.399739583,1,0,0,2.3968,Peridotite_rect,7,2.397,1,15,0,15,0,1,,,,,,,,,,,,,
65fd4f0fc340cf868802fdd8,TCN,2024-06-24_16h43.45.464,LearnStrategy,2023.2.3,Win32,60.07449237,6,2,1,,,,,,,,8,13,,,,,,,,,,,8,1.87,1,,,,,,0.390625,-0.389322917,1,0,0,1.8704,Pumice_rect,0,0,0,0,1,
65fd4f0fc340cf868802fdd8,TCN,2024-06-24_16h43.45.464,LearnStrategy,2023.2.3,Win32,60.07449237,6,2,2,,,,,,,,6,16,,,,,,,,,,,6,2.086,1,,,,,,-0.154947917,-0.411458333,1,0,0,2.0863,Pegmatite_rect,1,0,1,0,1,
65fd4f0fc340cf868802fdd8,TCN,2024-06-24_16h43.45.464,LearnStrategy,2023.2.3,Win32,60.07449237,6,2,3,,,,,,,,3,14,,,,,,,,,,,3,1.579,1,,,,,,0.147135417,-0.260416667,1,0,0,1.5795,Diorite_rect,2,0,2,0,1,
65fd4f0fc340cf868802fdd8,TCN,2024-06-24_16h43.45.464,LearnStrategy,2023.2.3,Win32,60.07449237,6,2,4,,,,,,,,5,06,,,,,,,,,,,5,2.227,1,,,,,,-0.423177083,-0.390625,1,0,0,2.2268,Obsidian_rect,3,0,3,0,1,
65fd4f0fc340cf868802fdd8,TCN,2024-06-24_16h43.45.464,LearnStrategy,2023.2.3,Win32,60.07449237,6,2,5,,,,,,,,3,15,,,,,,,,,,,4,3.042,0,,,,,,0.395833333,-0.236979167,1,0,0,3.0417,Gabbro_rect,4,0,4,0,1,
65fd4f0fc340cf868802fdd8,TCN,2024-06-24_16h43.45.464,LearnStrategy,2023.2.3,Win32,60.07449237,6,2,6,,,,,,,,7,16,,,,,,,,,,,4,3.079,0,,,,,,0.40625,-0.25,1,0,0,3.0795,Gabbro_rect,5,0,5,0,1,
65fd4f0fc340cf868802fdd8,TCN,2024-06-24_16h43.45.464,LearnStrategy,2023.2.3,Win32,60.07449237,6,2,7,,,,,,,,4,03,,,,,,,,,,,2,1.743,0,,,,,,-0.141927083,-0.2421875,1,0,0,1.7431,Basalt_rect,6,0,6,0,1,
65fd4f0fc340cf868802fdd8,TCN,2024-06-24_16h43.45.464,LearnStrategy,2023.2.3,Win32,60.07449237,6,2,8,,,,,,,,5,05,,,,,,,,,,,5,1.334,1,,,,,,-0.329427083,-0.399739583,1,0,0,1.3341,Obsidian_rect,7,0,7,0,1,
65fd4f0fc340cf868802fdd8,TCN,2024-06-24_16h43.45.464,LearnStrategy,2023.2.3,Win32,60.07449237,6,2,9,,,,,,,,2,10,,,,,,,,,,,2,4.759,1,,,,,,-0.106770833,-0.260416667,1,0,0,4.7586,Basalt_rect,8,0,8,0,1,
65fd4f0fc340cf868802fdd8,TCN,2024-06-24_16h43.45.464,LearnStrategy,2023.2.3,Win32,60.07449237,6,2,10,,,,,,,,1,03,,,,,,,,,,,4,5.172,0,,,,,,0.434895833,-0.24609375,1,0,0,5.1722,Gabbro_rect,9,0,9,0,1,
65fd4f0fc340cf868802fdd8,TCN,2024-06-24_16h43.45.464,LearnStrategy,2023.2.3,Win32,60.07449237,6,2,11,,,,,,,,7,13,,,,,,,,,,,7,7.627,1,,,,,,0.126302083,-0.401041667,1,0,0,7.627,Peridotite_rect,10,0,10,0,1,
65fd4f0fc340cf868802fdd8,TCN,2024-06-24_16h43.45.464,LearnStrategy,2023.2.3,Win32,60.07449237,6,2,12,,,,,,,,1,16,,,,,,,,,,,1,2.894,1,,,,,,-0.384114583,-0.255208333,1,0,0,2.894,Andesite_rect,11,0,11,0,1,
65fd4f0fc340cf868802fdd8,TCN,2024-06-24_16h43.45.464,LearnStrategy,2023.2.3,Win32,60.07449237,6,2,13,,,,,,,,2,16,,,,,,,,,,,2,6.709,1,,,,,,-0.1171875,-0.243489583,1,0,0,6.7093,Basalt_rect,12,0,12,0,1,
65fd4f0fc340cf868802fdd8,TCN,2024-06-24_16h43.45.464,LearnStrategy,2023.2.3,Win32,60.07449237,6,2,14,,,,,,,,6,05,,,,,,,,,,,6,2.557,1,,,,,,-0.1171875,-0.389322917,1,0,0,2.5571,Pegmatite_rect,13,0,13,0,1,
65fd4f0fc340cf868802fdd8,TCN,2024-06-24_16h43.45.464,LearnStrategy,2023.2.3,Win32,60.07449237,6,2,15,,,,,,,,4,15,,,,,,,,,,,3,6.035,0,,,,,,0.130208333,-0.243489583,1,0,0,6.0352,Diorite_rect,14,0,14,0,1,
65fd4f0fc340cf868802fdd8,TCN,2024-06-24_16h43.45.464,LearnStrategy,2023.2.3,Win32,60.07449237,6,2,16,,,,,,,,8,16,,,,,,,,,,,8,1.561,1,,,,,,0.416666667,-0.38671875,1,0,0,1.5607,Pumice_rect,15,0,15,0,1,
65fd4f0fc340cf868802fdd8,TCN,2024-06-24_16h43.45.464,LearnStrategy,2023.2.3,Win32,60.07449237,7,1,1,0.061197917,0.006510417,1,0,0,1.2969,rock_grid_rect_2,3,02,-1,-1,1.297,0.09375,-0.235677083,1,0,0,1.3839,Diorite_rect,3,1.384,1,0,0,0,0,1,,,,,,,,,,,,,
65fd4f0fc340cf868802fdd8,TCN,2024-06-24_16h43.45.464,LearnStrategy,2023.2.3,Win32,60.07449237,7,1,2,0.006510417,0.009114583,1,0,0,1.3529,rock_grid_rect_2,5,11,-1,-1,1.353,-0.359375,-0.393229167,1,0,0,1.4538,Obsidian_rect,5,1.454,1,1,0,1,0,1,,,,,,,,,,,,,
65fd4f0fc340cf868802fdd8,TCN,2024-06-24_16h43.45.464,LearnStrategy,2023.2.3,Win32,60.07449237,7,1,3,0.005208333,0.0078125,1,0,0,1.0826,rock_grid_rect_2,7,04,-1,-1,1.083,-0.35546875,-0.260416667,1,0,0,2.2881,Andesite_rect,1,2.288,0,2,0,2,0,1,,,,,,,,,,,,,
65fd4f0fc340cf868802fdd8,TCN,2024-06-24_16h43.45.464,LearnStrategy,2023.2.3,Win32,60.07449237,7,1,4,0.02734375,0.001302083,1,0,0,0.9152,rock_grid_rect_2,2,11,-1,-1,0.915,-0.123697917,-0.264322917,1,0,0,2.5381,Basalt_rect,2,2.538,1,3,0,3,0,1,,,,,,,,,,,,,
65fd4f0fc340cf868802fdd8,TCN,2024-06-24_16h43.45.464,LearnStrategy,2023.2.3,Win32,60.07449237,7,1,5,-0.005208333,0.024739583,1,0,0,1.6611,rock_grid_rect_2,4,10,-1,-1,1.661,0.43359375,-0.251302083,1,0,0,2.4136,Gabbro_rect,4,2.414,1,4,0,4,0,1,,,,,,,,,,,,,
65fd4f0fc340cf868802fdd8,TCN,2024-06-24_16h43.45.464,LearnStrategy,2023.2.3,Win32,60.07449237,7,1,6,0.065104167,0,1,0,0,0.8423,rock_grid_rect_2,3,13,-1,-1,0.842,0.118489583,-0.259114583,1,0,0,1.6555,Diorite_rect,3,1.655,1,5,0,5,0,1,,,,,,,,,,,,,
65fd4f0fc340cf868802fdd8,TCN,2024-06-24_16h43.45.464,LearnStrategy,2023.2.3,Win32,60.07449237,7,1,7,0.009114583,-0.002604167,1,0,0,0.7376,rock_grid_rect_2,1,14,-1,-1,0.738,0.162760417,-0.40234375,1,0,0,2.3204,Peridotite_rect,7,2.32,0,6,0,6,0,1,,,,,,,,,,,,,
65fd4f0fc340cf868802fdd8,TCN,2024-06-24_16h43.45.464,LearnStrategy,2023.2.3,Win32,60.07449237,7,1,8,0.013020833,-0.0234375,1,0,0,0.893,rock_grid_rect_2,5,04,-1,-1,0.893,-0.395833333,-0.40625,1,0,0,1.5811,Obsidian_rect,5,1.581,1,7,0,7,0,1,,,,,,,,,,,,,
65fd4f0fc340cf868802fdd8,TCN,2024-06-24_16h43.45.464,LearnStrategy,2023.2.3,Win32,60.07449237,7,1,9,0.00390625,-0.002604167,1,0,0,0.9682,rock_grid_rect_2,8,05,-1,-1,0.968,0.43359375,-0.408854167,1,0,0,1.7382,Pumice_rect,8,1.738,1,8,0,8,0,1,,,,,,,,,,,,,
65fd4f0fc340cf868802fdd8,TCN,2024-06-24_16h43.45.464,LearnStrategy,2023.2.3,Win32,60.07449237,7,1,10,-0.0390625,0.018229167,1,0,0,0.795,rock_grid_rect_2,6,03,-1,-1,0.795,-0.15234375,-0.41796875,1,0,0,1.5104,Pegmatite_rect,6,1.51,1,9,0,9,0,1,,,,,,,,,,,,,
65fd4f0fc340cf868802fdd8,TCN,2024-06-24_16h43.45.464,LearnStrategy,2023.2.3,Win32,60.07449237,7,1,11,0.01953125,-0.015625,1,0,0,0.726,rock_grid_rect_2,1,09,-1,-1,0.726,-0.123697917,-0.24609375,1,0,0,2.382,Basalt_rect,2,2.382,0,10,0,10,0,1,,,,,,,,,,,,,
65fd4f0fc340cf868802fdd8,TCN,2024-06-24_16h43.45.464,LearnStrategy,2023.2.3,Win32,60.07449237,7,1,12,0.020833333,0.00390625,1,0,0,0.9621,rock_grid_rect_2,7,12,-1,-1,0.962,0.15234375,-0.397135417,1,0,0,2.2564,Peridotite_rect,7,2.256,1,11,0,11,0,1,,,,,,,,,,,,,
65fd4f0fc340cf868802fdd8,TCN,2024-06-24_16h43.45.464,LearnStrategy,2023.2.3,Win32,60.07449237,7,1,13,0.032552083,-0.016927083,1,0,0,1.0972,rock_grid_rect_2,6,12,-1,-1,1.097,-0.12109375,-0.412760417,1,0,0,3.9207,Pegmatite_rect,6,3.921,1,12,0,12,0,1,,,,,,,,,,,,,
65fd4f0fc340cf868802fdd8,TCN,2024-06-24_16h43.45.464,LearnStrategy,2023.2.3,Win32,60.07449237,7,1,14,-0.04296875,-0.00390625,1,0,0,0.6916,rock_grid_rect_2,4,14,-1,-1,0.692,-0.09765625,-0.247395833,1,0,0,2.1224,Basalt_rect,2,2.122,0,13,0,13,0,1,,,,,,,,,,,,,
65fd4f0fc340cf868802fdd8,TCN,2024-06-24_16h43.45.464,LearnStrategy,2023.2.3,Win32,60.07449237,7,1,15,-0.0078125,0.001302083,1,0,0,0.6413,rock_grid_rect_2,8,08,-1,-1,0.641,0.40234375,-0.399739583,1,0,0,1.9539,Pumice_rect,8,1.954,1,14,0,14,0,1,,,,,,,,,,,,,
65fd4f0fc340cf868802fdd8,TCN,2024-06-24_16h43.45.464,LearnStrategy,2023.2.3,Win32,60.07449237,7,1,16,0.013020833,-0.009114583,1,0,0,1.6606,rock_grid_rect_2,2,09,-1,-1,1.661,-0.122395833,-0.26171875,1,0,0,2.6425,Basalt_rect,2,2.642,1,15,0,15,0,1,,,,,,,,,,,,,
65fd4f0fc340cf868802fdd8,TCN,2024-06-24_16h43.45.464,LearnStrategy,2023.2.3,Win32,60.07449237,7,2,1,,,,,,,,8,04,,,,,,,,,,,8,2.576,1,,,,,,0.403645833,-0.401041667,1,0,0,2.576,Pumice_rect,0,0,0,0,1,
65fd4f0fc340cf868802fdd8,TCN,2024-06-24_16h43.45.464,LearnStrategy,2023.2.3,Win32,60.07449237,7,2,2,,,,,,,,2,16,,,,,,,,,,,4,5.912,0,,,,,,0.41015625,-0.24609375,1,0,0,5.9115,Gabbro_rect,1,0,1,0,1,
65fd4f0fc340cf868802fdd8,TCN,2024-06-24_16h43.45.464,LearnStrategy,2023.2.3,Win32,60.07449237,7,2,3,,,,,,,,5,07,,,,,,,,,,,5,2.003,1,,,,,,-0.407552083,-0.39453125,1,0,0,2.0029,Obsidian_rect,2,0,2,0,1,
65fd4f0fc340cf868802fdd8,TCN,2024-06-24_16h43.45.464,LearnStrategy,2023.2.3,Win32,60.07449237,7,2,4,,,,,,,,6,13,,,,,,,,,,,6,1.469,1,,,,,,-0.171875,-0.407552083,1,0,0,1.4693,Pegmatite_rect,3,0,3,0,1,
65fd4f0fc340cf868802fdd8,TCN,2024-06-24_16h43.45.464,LearnStrategy,2023.2.3,Win32,60.07449237,7,2,5,,,,,,,,5,05,,,,,,,,,,,5,1.829,1,,,,,,-0.403645833,-0.408854167,1,0,0,1.8291,Obsidian_rect,4,0,4,0,1,
65fd4f0fc340cf868802fdd8,TCN,2024-06-24_16h43.45.464,LearnStrategy,2023.2.3,Win32,60.07449237,7,2,6,,,,,,,,6,16,,,,,,,,,,,6,5.462,1,,,,,,-0.14453125,-0.385416667,1,0,0,5.462,Pegmatite_rect,5,0,5,0,1,
65fd4f0fc340cf868802fdd8,TCN,2024-06-24_16h43.45.464,LearnStrategy,2023.2.3,Win32,60.07449237,7,2,7,,,,,,,,1,05,,,,,,,,,,,7,4.05,0,,,,,,0.169270833,-0.420572917,1,0,0,4.0504,Peridotite_rect,6,0,6,0,1,
65fd4f0fc340cf868802fdd8,TCN,2024-06-24_16h43.45.464,LearnStrategy,2023.2.3,Win32,60.07449237,7,2,8,,,,,,,,7,05,,,,,,,,,,,1,6.127,0,,,,,,-0.403645833,-0.259114583,1,0,0,6.1274,Andesite_rect,7,0,7,0,1,
65fd4f0fc340cf868802fdd8,TCN,2024-06-24_16h43.45.464,LearnStrategy,2023.2.3,Win32,60.07449237,7,2,9,,,,,,,,3,06,,,,,,,,,,,3,2.574,1,,,,,,0.123697917,-0.25,1,0,0,2.5741,Diorite_rect,8,0,8,0,1,
65fd4f0fc340cf868802fdd8,TCN,2024-06-24_16h43.45.464,LearnStrategy,2023.2.3,Win32,60.07449237,7,2,10,,,,,,,,8,14,,,,,,,,,,,8,1.31,1,,,,,,0.403645833,-0.385416667,1,0,0,1.3103,Pumice_rect,9,0,9,0,1,
65fd4f0fc340cf868802fdd8,TCN,2024-06-24_16h43.45.464,LearnStrategy,2023.2.3,Win32,60.07449237,7,2,11,,,,,,,,7,13,,,,,,,,,,,7,1.755,1,,,,,,0.1328125,-0.39453125,1,0,0,1.7553,Peridotite_rect,10,0,10,0,1,
65fd4f0fc340cf868802fdd8,TCN,2024-06-24_16h43.45.464,LearnStrategy,2023.2.3,Win32,60.07449237,7,2,12,,,,,,,,2,06,,,,,,,,,,,2,7.057,1,,,,,,-0.045572917,-0.236979167,1,0,0,7.0572,Basalt_rect,11,0,11,0,1,
65fd4f0fc340cf868802fdd8,TCN,2024-06-24_16h43.45.464,LearnStrategy,2023.2.3,Win32,60.07449237,7,2,13,,,,,,,,4,16,,,,,,,,,,,4,1.129,1,,,,,,0.475260417,-0.23828125,1,0,0,1.1286,Gabbro_rect,12,0,12,0,1,
65fd4f0fc340cf868802fdd8,TCN,2024-06-24_16h43.45.464,LearnStrategy,2023.2.3,Win32,60.07449237,7,2,14,,,,,,,,4,13,,,,,,,,,,,4,3.551,1,,,,,,0.330729167,-0.239583333,1,0,0,3.5508,Gabbro_rect,13,0,13,0,1,
65fd4f0fc340cf868802fdd8,TCN,2024-06-24_16h43.45.464,LearnStrategy,2023.2.3,Win32,60.07449237,7,2,15,,,,,,,,3,11,,,,,,,,,,,3,1.561,1,,,,,,0.130208333,-0.270833333,1,0,0,1.5613,Diorite_rect,14,0,14,0,1,
65fd4f0fc340cf868802fdd8,TCN,2024-06-24_16h43.45.464,LearnStrategy,2023.2.3,Win32,60.07449237,7,2,16,,,,,,,,1,03,,,,,,,,,,,1,1.908,1,,,,,,-0.321614583,-0.255208333,1,0,0,1.9079,Andesite_rect,15,0,15,0,1,
65fd4f0fc340cf868802fdd8,TCN,2024-06-24_16h43.45.464,LearnStrategy,2023.2.3,Win32,60.07449237,8,1,1,0.037760417,0.010416667,1,0,0,1.161,rock_grid_rect_2,1,10,-1,-1,1.161,-0.37890625,-0.233072917,1,0,0,3.1005,Andesite_rect,1,3.101,1,0,0,0,0,1,,,,,,,,,,,,,
65fd4f0fc340cf868802fdd8,TCN,2024-06-24_16h43.45.464,LearnStrategy,2023.2.3,Win32,60.07449237,8,1,2,0.00390625,0,1,0,0,1.0589,rock_grid_rect_2,5,16,-1,-1,1.059,-0.368489583,-0.391927083,1,0,0,1.2055,Obsidian_rect,5,1.205,1,1,0,1,0,1,,,,,,,,,,,,,
65fd4f0fc340cf868802fdd8,TCN,2024-06-24_16h43.45.464,LearnStrategy,2023.2.3,Win32,60.07449237,8,1,3,0.006510417,-0.006510417,1,0,0,1.1262,rock_grid_rect_2,2,04,-1,-1,1.126,-0.110677083,-0.259114583,1,0,0,2.8056,Basalt_rect,2,2.806,1,2,0,2,0,1,,,,,,,,,,,,,
65fd4f0fc340cf868802fdd8,TCN,2024-06-24_16h43.45.464,LearnStrategy,2023.2.3,Win32,60.07449237,8,1,4,0.041666667,0.013020833,1,0,0,0.7266,rock_grid_rect_2,3,09,-1,-1,0.727,0.169270833,-0.263020833,1,0,0,1.3859,Diorite_rect,3,1.386,1,3,0,3,0,1,,,,,,,,,,,,,
65fd4f0fc340cf868802fdd8,TCN,2024-06-24_16h43.45.464,LearnStrategy,2023.2.3,Win32,60.07449237,8,1,5,0.046875,0,1,0,0,0.7106,rock_grid_rect_2,2,14,-1,-1,0.711,0.442708333,-0.24609375,1,0,0,9.9512,Gabbro_rect,4,9.951,0,4,0,4,0,1,,,,,,,,,,,,,
65fd4f0fc340cf868802fdd8,TCN,2024-06-24_16h43.45.464,LearnStrategy,2023.2.3,Win32,60.07449237,8,1,6,0.01171875,0.014322917,1,0,0,0.7713,rock_grid_rect_2,7,02,-1,-1,0.771,0.147135417,-0.41015625,1,0,0,1.7137,Peridotite_rect,7,1.714,1,5,0,5,0,1,,,,,,,,,,,,,
65fd4f0fc340cf868802fdd8,TCN,2024-06-24_16h43.45.464,LearnStrategy,2023.2.3,Win32,60.07449237,8,1,7,-0.05078125,0.0234375,1,0,0,0.7922,rock_grid_rect_2,5,14,-1,-1,0.792,-0.395833333,-0.380208333,1,0,0,2.8345,Obsidian_rect,5,2.834,1,6,0,6,0,1,,,,,,,,,,,,,
65fd4f0fc340cf868802fdd8,TCN,2024-06-24_16h43.45.464,LearnStrategy,2023.2.3,Win32,60.07449237,8,1,8,-0.020833333,-0.01171875,1,0,0,0.6989,rock_grid_rect_2,7,15,-1,-1,0.699,0.114583333,-0.39453125,1,0,0,1.5267,Peridotite_rect,7,1.527,1,7,0,7,0,1,,,,,,,,,,,,,
65fd4f0fc340cf868802fdd8,TCN,2024-06-24_16h43.45.464,LearnStrategy,2023.2.3,Win32,60.07449237,8,1,9,0.00390625,0.001302083,1,0,0,0.742,rock_grid_rect_2,8,03,-1,-1,0.742,0.395833333,-0.399739583,1,0,0,1.4987,Pumice_rect,8,1.499,1,8,0,8,0,1,,,,,,,,,,,,,
65fd4f0fc340cf868802fdd8,TCN,2024-06-24_16h43.45.464,LearnStrategy,2023.2.3,Win32,60.07449237,8,1,10,-0.013020833,0.01171875,1,0,0,0.8757,rock_grid_rect_2,6,06,-1,-1,0.876,-0.115885417,-0.408854167,1,0,0,1.7543,Pegmatite_rect,6,1.754,1,9,0,9,0,1,,,,,,,,,,,,,
65fd4f0fc340cf868802fdd8,TCN,2024-06-24_16h43.45.464,LearnStrategy,2023.2.3,Win32,60.07449237,8,1,11,-0.049479167,0.00390625,1,0,0,0.7003,rock_grid_rect_2,3,08,-1,-1,0.7,0.09765625,-0.25390625,1,0,0,1.3526,Diorite_rect,3,1.353,1,10,0,10,0,1,,,,,,,,,,,,,
65fd4f0fc340cf868802fdd8,TCN,2024-06-24_16h43.45.464,LearnStrategy,2023.2.3,Win32,60.07449237,8,1,12,0.02734375,-0.0078125,1,0,0,1.1592,rock_grid_rect_2,4,08,-1,-1,1.159,0.423177083,-0.23046875,1,0,0,2.2583,Gabbro_rect,4,2.258,1,11,0,11,0,1,,,,,,,,,,,,,
65fd4f0fc340cf868802fdd8,TCN,2024-06-24_16h43.45.464,LearnStrategy,2023.2.3,Win32,60.07449237,8,1,13,-0.009114583,-0.001302083,1,0,0,0.7614,rock_grid_rect_2,8,02,-1,-1,0.761,0.444010417,-0.4140625,1,0,0,1.642,Pumice_rect,8,1.642,1,12,0,12,0,1,,,,,,,,,,,,,
65fd4f0fc340cf868802fdd8,TCN,2024-06-24_16h43.45.464,LearnStrategy,2023.2.3,Win32,60.07449237,8,1,14,0.03515625,-0.0078125,1,0,0,1.0123,rock_grid_rect_2,6,08,-1,-1,1.012,-0.1171875,-0.388020833,1,0,0,1.4096,Pegmatite_rect,6,1.41,1,13,0,13,0,1,,,,,,,,,,,,,
65fd4f0fc340cf868802fdd8,TCN,2024-06-24_16h43.45.464,LearnStrategy,2023.2.3,Win32,60.07449237,8,1,15,0.065104167,0.013020833,1,0,0,1.1258,rock_grid_rect_2,1,07,-1,-1,1.126,-0.419270833,-0.2421875,1,0,0,3.0736,Andesite_rect,1,3.074,1,14,0,14,0,1,,,,,,,,,,,,,
65fd4f0fc340cf868802fdd8,TCN,2024-06-24_16h43.45.464,LearnStrategy,2023.2.3,Win32,60.07449237,8,1,16,0.024739583,0,1,0,0,1.1265,rock_grid_rect_2,4,05,-1,-1,1.127,0.43359375,-0.264322917,1,0,0,1.7823,Gabbro_rect,4,1.782,1,15,0,15,0,1,,,,,,,,,,,,,
65fd4f0fc340cf868802fdd8,TCN,2024-06-24_16h43.45.464,LearnStrategy,2023.2.3,Win32,60.07449237,8,2,1,,,,,,,,4,03,,,,,,,,,,,4,14.423,1,,,,,,0.401041667,-0.24609375,1,0,0,14.4233,Gabbro_rect,0,0,0,0,1,
65fd4f0fc340cf868802fdd8,TCN,2024-06-24_16h43.45.464,LearnStrategy,2023.2.3,Win32,60.07449237,8,2,2,,,,,,,,6,09,,,,,,,,,,,6,2.331,1,,,,,,-0.171875,-0.39453125,1,0,0,2.3307,Pegmatite_rect,1,0,1,0,1,
65fd4f0fc340cf868802fdd8,TCN,2024-06-24_16h43.45.464,LearnStrategy,2023.2.3,Win32,60.07449237,8,2,3,,,,,,,,2,08,,,,,,,,,,,2,2.462,1,,,,,,-0.110677083,-0.251302083,1,0,0,2.4618,Basalt_rect,2,0,2,0,1,
65fd4f0fc340cf868802fdd8,TCN,2024-06-24_16h43.45.464,LearnStrategy,2023.2.3,Win32,60.07449237,8,2,4,,,,,,,,5,06,,,,,,,,,,,5,3.056,1,,,,,,-0.399739583,-0.37890625,1,0,0,3.056,Obsidian_rect,3,0,3,0,1,
65fd4f0fc340cf868802fdd8,TCN,2024-06-24_16h43.45.464,LearnStrategy,2023.2.3,Win32,60.07449237,8,2,5,,,,,,,,2,01,,,,,,,,,,,2,2.078,1,,,,,,-0.104166667,-0.240885417,1,0,0,2.0777,Basalt_rect,4,0,4,0,1,
65fd4f0fc340cf868802fdd8,TCN,2024-06-24_16h43.45.464,LearnStrategy,2023.2.3,Win32,60.07449237,8,2,6,,,,,,,,3,14,,,,,,,,,,,3,1.393,1,,,,,,0.141927083,-0.25,1,0,0,1.3926,Diorite_rect,5,0,5,0,1,
65fd4f0fc340cf868802fdd8,TCN,2024-06-24_16h43.45.464,LearnStrategy,2023.2.3,Win32,60.07449237,8,2,7,,,,,,,,8,06,,,,,,,,,,,8,1.327,1,,,,,,0.373697917,-0.390625,1,0,0,1.3274,Pumice_rect,6,0,6,0,1,
65fd4f0fc340cf868802fdd8,TCN,2024-06-24_16h43.45.464,LearnStrategy,2023.2.3,Win32,60.07449237,8,2,8,,,,,,,,3,15,,,,,,,,,,,3,2.548,1,,,,,,0.131510417,-0.243489583,1,0,0,2.5477,Diorite_rect,7,0,7,0,1,
65fd4f0fc340cf868802fdd8,TCN,2024-06-24_16h43.45.464,LearnStrategy,2023.2.3,Win32,60.07449237,8,2,9,,,,,,,,8,13,,,,,,,,,,,8,1.3,1,,,,,,0.45703125,-0.390625,1,0,0,1.2998,Pumice_rect,8,0,8,0,1,
65fd4f0fc340cf868802fdd8,TCN,2024-06-24_16h43.45.464,LearnStrategy,2023.2.3,Win32,60.07449237,8,2,10,,,,,,,,1,16,,,,,,,,,,,1,2.698,1,,,,,,-0.450520833,-0.265625,1,0,0,2.6985,Andesite_rect,9,0,9,0,1,
65fd4f0fc340cf868802fdd8,TCN,2024-06-24_16h43.45.464,LearnStrategy,2023.2.3,Win32,60.07449237,8,2,11,,,,,,,,1,06,,,,,,,,,,,1,7.216,1,,,,,,-0.373697917,-0.252604167,1,0,0,7.2163,Andesite_rect,10,0,10,0,1,
65fd4f0fc340cf868802fdd8,TCN,2024-06-24_16h43.45.464,LearnStrategy,2023.2.3,Win32,60.07449237,8,2,12,,,,,,,,4,11,,,,,,,,,,,4,5.816,1,,,,,,0.40625,-0.239583333,1,0,0,5.8161,Gabbro_rect,11,0,11,0,1,
65fd4f0fc340cf868802fdd8,TCN,2024-06-24_16h43.45.464,LearnStrategy,2023.2.3,Win32,60.07449237,8,2,13,,,,,,,,6,11,,,,,,,,,,,6,1.347,1,,,,,,-0.114583333,-0.385416667,1,0,0,1.3466,Pegmatite_rect,12,0,12,0,1,
65fd4f0fc340cf868802fdd8,TCN,2024-06-24_16h43.45.464,LearnStrategy,2023.2.3,Win32,60.07449237,8,2,14,,,,,,,,7,10,,,,,,,,,,,7,1.526,1,,,,,,0.16796875,-0.40625,1,0,0,1.5261,Peridotite_rect,13,0,13,0,1,
65fd4f0fc340cf868802fdd8,TCN,2024-06-24_16h43.45.464,LearnStrategy,2023.2.3,Win32,60.07449237,8,2,15,,,,,,,,5,02,,,,,,,,,,,5,1.09,1,,,,,,-0.376302083,-0.388020833,1,0,0,1.0897,Obsidian_rect,14,0,14,0,1,
65fd4f0fc340cf868802fdd8,TCN,2024-06-24_16h43.45.464,LearnStrategy,2023.2.3,Win32,60.07449237,8,2,16,,,,,,,,7,07,,,,,,,,,,,7,1.064,1,,,,,,0.126302083,-0.391927083,1,0,0,1.0645,Peridotite_rect,15,0,15,0,1,
65fd4f0fc340cf868802fdd8,TCN,2024-06-24_16h43.45.464,LearnStrategy,2023.2.3,Win32,60.07449237,9,1,1,0.020833333,-0.013020833,1,0,0,1.112,rock_grid_rect_2,7,06,-1,-1,1.112,0.173177083,-0.381510417,1,0,0,1.6583,Peridotite_rect,7,1.658,1,0,0,0,0,1,,,,,,,,,,,,,
65fd4f0fc340cf868802fdd8,TCN,2024-06-24_16h43.45.464,LearnStrategy,2023.2.3,Win32,60.07449237,9,1,2,-0.01953125,-0.002604167,1,0,0,1.0761,rock_grid_rect_2,7,08,-1,-1,1.076,0.118489583,-0.4140625,1,0,0,1.7321,Peridotite_rect,7,1.732,1,1,0,1,0,1,,,,,,,,,,,,,
65fd4f0fc340cf868802fdd8,TCN,2024-06-24_16h43.45.464,LearnStrategy,2023.2.3,Win32,60.07449237,9,1,3,-0.00390625,0.002604167,1,0,0,1.1451,rock_grid_rect_2,6,15,-1,-1,1.145,-0.1484375,-0.39453125,1,0,0,2.537,Pegmatite_rect,6,2.537,1,2,0,2,0,1,,,,,,,,,,,,,
65fd4f0fc340cf868802fdd8,TCN,2024-06-24_16h43.45.464,LearnStrategy,2023.2.3,Win32,60.07449237,9,1,4,-0.024739583,-0.015625,1,0,0,1.0915,rock_grid_rect_2,4,09,-1,-1,1.091,0.384114583,-0.24609375,1,0,0,2.1868,Gabbro_rect,4,2.187,1,3,0,3,0,1,,,,,,,,,,,,,
65fd4f0fc340cf868802fdd8,TCN,2024-06-24_16h43.45.464,LearnStrategy,2023.2.3,Win32,60.07449237,9,1,5,0.029947917,0.002604167,1,0,0,0.7268,rock_grid_rect_2,8,10,-1,-1,0.727,0.388020833,-0.399739583,1,0,0,2.0918,Pumice_rect,8,2.092,1,4,0,4,0,1,,,,,,,,,,,,,
65fd4f0fc340cf868802fdd8,TCN,2024-06-24_16h43.45.464,LearnStrategy,2023.2.3,Win32,60.07449237,9,1,6,0.01953125,-0.013020833,1,0,0,1.1282,rock_grid_rect_2,5,10,-1,-1,1.128,-0.389322917,-0.41015625,1,0,0,1.3045,Obsidian_rect,5,1.305,1,5,0,5,0,1,,,,,,,,,,,,,
65fd4f0fc340cf868802fdd8,TCN,2024-06-24_16h43.45.464,LearnStrategy,2023.2.3,Win32,60.07449237,9,1,7,0.001302083,0.0078125,1,0,0,0.9325,rock_grid_rect_2,2,05,-1,-1,0.933,-0.161458333,-0.247395833,1,0,0,2.3455,Basalt_rect,2,2.345,1,6,0,6,0,1,,,,,,,,,,,,,
65fd4f0fc340cf868802fdd8,TCN,2024-06-24_16h43.45.464,LearnStrategy,2023.2.3,Win32,60.07449237,9,1,8,-0.014322917,0.005208333,1,0,0,0.679,rock_grid_rect_2,1,02,-1,-1,0.679,-0.41796875,-0.236979167,1,0,0,4.8566,Andesite_rect,1,4.857,1,7,0,7,0,1,,,,,,,,,,,,,
65fd4f0fc340cf868802fdd8,TCN,2024-06-24_16h43.45.464,LearnStrategy,2023.2.3,Win32,60.07449237,9,1,9,0.022135417,0,1,0,0,0.9778,rock_grid_rect_2,6,10,-1,-1,0.978,-0.139322917,-0.415364583,1,0,0,1.6879,Pegmatite_rect,6,1.688,1,8,0,8,0,1,,,,,,,,,,,,,
65fd4f0fc340cf868802fdd8,TCN,2024-06-24_16h43.45.464,LearnStrategy,2023.2.3,Win32,60.07449237,9,1,10,0.013020833,-0.005208333,1,0,0,1.0712,rock_grid_rect_2,8,15,-1,-1,1.071,0.42578125,-0.390625,1,0,0,1.5178,Pumice_rect,8,1.518,1,9,0,9,0,1,,,,,,,,,,,,,
65fd4f0fc340cf868802fdd8,TCN,2024-06-24_16h43.45.464,LearnStrategy,2023.2.3,Win32,60.07449237,9,1,11,0.040364583,0.00390625,1,0,0,0.6934,rock_grid_rect_2,1,04,-1,-1,0.693,-0.428385417,-0.24609375,1,0,0,1.8811,Andesite_rect,1,1.881,1,10,0,10,0,1,,,,,,,,,,,,,
65fd4f0fc340cf868802fdd8,TCN,2024-06-24_16h43.45.464,LearnStrategy,2023.2.3,Win32,60.07449237,9,1,12,0.016927083,-0.006510417,1,0,0,0.9955,rock_grid_rect_2,5,09,-1,-1,0.995,-0.372395833,-0.419270833,1,0,0,1.3151,Obsidian_rect,5,1.315,1,11,0,11,0,1,,,,,,,,,,,,,
65fd4f0fc340cf868802fdd8,TCN,2024-06-24_16h43.45.464,LearnStrategy,2023.2.3,Win32,60.07449237,9,1,13,0.0078125,-0.018229167,1,0,0,1.0123,rock_grid_rect_2,4,12,-1,-1,1.012,0.432291667,-0.25,1,0,0,3.7528,Gabbro_rect,4,3.753,1,12,0,12,0,1,,,,,,,,,,,,,
65fd4f0fc340cf868802fdd8,TCN,2024-06-24_16h43.45.464,LearnStrategy,2023.2.3,Win32,60.07449237,9,1,14,0.028645833,-0.001302083,1,0,0,0.9672,rock_grid_rect_2,3,10,-1,-1,0.967,0.104166667,-0.399739583,1,0,0,6.2886,Peridotite_rect,7,6.289,0,13,0,13,0,1,,,,,,,,,,,,,
65fd4f0fc340cf868802fdd8,TCN,2024-06-24_16h43.45.464,LearnStrategy,2023.2.3,Win32,60.07449237,9,1,15,-0.0078125,0.005208333,1,0,0,0.7094,rock_grid_rect_2,2,02,-1,-1,0.709,-0.108072917,-0.235677083,1,0,0,1.8112,Basalt_rect,2,1.811,1,14,0,14,0,1,,,,,,,,,,,,,
65fd4f0fc340cf868802fdd8,TCN,2024-06-24_16h43.45.464,LearnStrategy,2023.2.3,Win32,60.07449237,9,1,16,0.02734375,0.013020833,1,0,0,1.4591,rock_grid_rect_2,3,16,-1,-1,1.459,0.149739583,-0.247395833,1,0,0,1.3039,Diorite_rect,3,1.304,1,15,0,15,0,1,,,,,,,,,,,,,
65fd4f0fc340cf868802fdd8,TCN,2024-06-24_16h43.45.464,LearnStrategy,2023.2.3,Win32,60.07449237,9,2,1,,,,,,,,3,12,,,,,,,,,,,3,4.513,1,,,,,,0.135416667,-0.239583333,1,0,0,4.5129,Diorite_rect,0,0,0,0,1,
65fd4f0fc340cf868802fdd8,TCN,2024-06-24_16h43.45.464,LearnStrategy,2023.2.3,Win32,60.07449237,9,2,2,,,,,,,,1,11,,,,,,,,,,,1,2.091,1,,,,,,-0.372395833,-0.247395833,1,0,0,2.0906,Andesite_rect,1,0,1,0,1,
65fd4f0fc340cf868802fdd8,TCN,2024-06-24_16h43.45.464,LearnStrategy,2023.2.3,Win32,60.07449237,9,2,3,,,,,,,,5,12,,,,,,,,,,,5,1.163,1,,,,,,-0.37109375,-0.415364583,1,0,0,1.1627,Obsidian_rect,2,0,2,0,1,
65fd4f0fc340cf868802fdd8,TCN,2024-06-24_16h43.45.464,LearnStrategy,2023.2.3,Win32,60.07449237,9,2,4,,,,,,,,7,14,,,,,,,,,,,7,9.354,1,,,,,,0.173177083,-0.3828125,1,0,0,9.3535,Peridotite_rect,3,0,3,0,1,
65fd4f0fc340cf868802fdd8,TCN,2024-06-24_16h43.45.464,LearnStrategy,2023.2.3,Win32,60.07449237,9,2,5,,,,,,,,5,08,,,,,,,,,,,5,1.82,1,,,,,,-0.403645833,-0.384114583,1,0,0,1.8197,Obsidian_rect,4,0,4,0,1,
65fd4f0fc340cf868802fdd8,TCN,2024-06-24_16h43.45.464,LearnStrategy,2023.2.3,Win32,60.07449237,9,2,6,,,,,,,,6,07,,,,,,,,,,,6,1.497,1,,,,,,-0.092447917,-0.389322917,1,0,0,1.4972,Pegmatite_rect,5,0,5,0,1,
65fd4f0fc340cf868802fdd8,TCN,2024-06-24_16h43.45.464,LearnStrategy,2023.2.3,Win32,60.07449237,9,2,7,,,,,,,,6,05,,,,,,,,,,,6,3.236,1,,,,,,-0.092447917,-0.389322917,1,0,0,3.2362,Pegmatite_rect,6,0,6,0,1,
65fd4f0fc340cf868802fdd8,TCN,2024-06-24_16h43.45.464,LearnStrategy,2023.2.3,Win32,60.07449237,9,2,8,,,,,,,,4,01,,,,,,,,,,,4,2.754,1,,,,,,0.40625,-0.251302083,1,0,0,2.7542,Gabbro_rect,7,0,7,0,1,
65fd4f0fc340cf868802fdd8,TCN,2024-06-24_16h43.45.464,LearnStrategy,2023.2.3,Win32,60.07449237,9,2,9,,,,,,,,8,16,,,,,,,,,,,4,9.493,0,,,,,,0.408854167,-0.243489583,1,0,0,9.4932,Gabbro_rect,8,0,8,0,1,
65fd4f0fc340cf868802fdd8,TCN,2024-06-24_16h43.45.464,LearnStrategy,2023.2.3,Win32,60.07449237,9,2,10,,,,,,,,8,09,,,,,,,,,,,8,1.706,1,,,,,,0.3828125,-0.390625,1,0,0,1.7057,Pumice_rect,9,0,9,0,1,
65fd4f0fc340cf868802fdd8,TCN,2024-06-24_16h43.45.464,LearnStrategy,2023.2.3,Win32,60.07449237,9,2,11,,,,,,,,2,10,,,,,,,,,,,2,4.505,1,,,,,,-0.123697917,-0.255208333,1,0,0,4.5046,Basalt_rect,10,0,10,0,1,
65fd4f0fc340cf868802fdd8,TCN,2024-06-24_16h43.45.464,LearnStrategy,2023.2.3,Win32,60.07449237,9,2,12,,,,,,,,3,07,,,,,,,,,,,3,1.216,1,,,,,,0.08984375,-0.270833333,1,0,0,1.216,Diorite_rect,11,0,11,0,1,
65fd4f0fc340cf868802fdd8,TCN,2024-06-24_16h43.45.464,LearnStrategy,2023.2.3,Win32,60.07449237,9,2,13,,,,,,,,2,12,,,,,,,,,,,2,2.508,1,,,,,,-0.115885417,-0.25390625,1,0,0,2.5084,Basalt_rect,12,0,12,0,1,
65fd4f0fc340cf868802fdd8,TCN,2024-06-24_16h43.45.464,LearnStrategy,2023.2.3,Win32,60.07449237,9,2,14,,,,,,,,7,16,,,,,,,,,,,4,1.353,0,,,,,,0.420572917,-0.265625,1,0,0,1.353,Gabbro_rect,13,0,13,0,1,
65fd4f0fc340cf868802fdd8,TCN,2024-06-24_16h43.45.464,LearnStrategy,2023.2.3,Win32,60.07449237,9,2,15,,,,,,,,4,15,,,,,,,,,,,1,4.45,0,,,,,,-0.4140625,-0.247395833,1,0,0,4.45,Andesite_rect,14,0,14,0,1,
65fd4f0fc340cf868802fdd8,TCN,2024-06-24_16h43.45.464,LearnStrategy,2023.2.3,Win32,60.07449237,9,2,16,,,,,,,,1,01,,,,,,,,,,,4,3.458,0,,,,,,0.412760417,-0.247395833,1,0,0,3.4583,Gabbro_rect,15,0,15,0,1,
65fd4f0fc340cf868802fdd8,TCN,2024-06-24_16h43.45.464,LearnStrategy,2023.2.3,Win32,60.07449237,,,,,,,,,,,,,,,,,,,,,,,,,,,,,,,,,,,,,,,,,,,1
65fd4f0fc340cf868802fdd8,TCN,2024-06-24_16h43.45.464,LearnStrategy,2023.2.3,Win32,60.07449237,,,,,,,,,,,,,,,,,,,,,,,,,,,,,,,,,,,,,,,,,,,
65fd4f0fc340cf868802fdd8,TCN,2024-06-24_16h43.45.464,LearnStrategy,2023.2.3,Win32,60.07449237,,,,,,,,,,,5,09,1,1,,,,,,,,,,,,,,,,,,,,,,,,,,,,,
65fd4f0fc340cf868802fdd8,TCN,2024-06-24_16h43.45.464,LearnStrategy,2023.2.3,Win32,60.07449237,,,,,,,,,,,6,15,1,2,,,,,,,,,,,,,,,,,,,,,,,,,,,,,
65fd4f0fc340cf868802fdd8,TCN,2024-06-24_16h43.45.464,LearnStrategy,2023.2.3,Win32,60.07449237,,,,,,,,,,,2,09,1,3,,,,,,,,,,,,,,,,,,,,,,,,,,,,,
65fd4f0fc340cf868802fdd8,TCN,2024-06-24_16h43.45.464,LearnStrategy,2023.2.3,Win32,60.07449237,,,,,,,,,,,1,09,1,4,,,,,,,,,,,,,,,,,,,,,,,,,,,,,
65fd4f0fc340cf868802fdd8,TCN,2024-06-24_16h43.45.464,LearnStrategy,2023.2.3,Win32,60.07449237,,,,,,,,,,,6,10,1,5,,,,,,,,,,,,,,,,,,,,,,,,,,,,,
65fd4f0fc340cf868802fdd8,TCN,2024-06-24_16h43.45.464,LearnStrategy,2023.2.3,Win32,60.07449237,,,,,,,,,,,2,14,1,6,,,,,,,,,,,,,,,,,,,,,,,,,,,,,
65fd4f0fc340cf868802fdd8,TCN,2024-06-24_16h43.45.464,LearnStrategy,2023.2.3,Win32,60.07449237,,,,,,,,,,,2,11,1,7,,,,,,,,,,,,,,,,,,,,,,,,,,,,,
65fd4f0fc340cf868802fdd8,TCN,2024-06-24_16h43.45.464,LearnStrategy,2023.2.3,Win32,60.07449237,,,,,,,,,,,3,13,1,8,,,,,,,,,,,,,,,,,,,,,,,,,,,,,
65fd4f0fc340cf868802fdd8,TCN,2024-06-24_16h43.45.464,LearnStrategy,2023.2.3,Win32,60.07449237,,,,,,,,,,,4,10,2,1,,,,,,,,,,,,,,,,,,,,,,,,,,,,,
65fd4f0fc340cf868802fdd8,TCN,2024-06-24_16h43.45.464,LearnStrategy,2023.2.3,Win32,60.07449237,,,,,,,,,,,8,03,2,2,,,,,,,,,,,,,,,,,,,,,,,,,,,,,
65fd4f0fc340cf868802fdd8,TCN,2024-06-24_16h43.45.464,LearnStrategy,2023.2.3,Win32,60.07449237,,,,,,,,,,,5,14,2,3,,,,,,,,,,,,,,,,,,,,,,,,,,,,,
65fd4f0fc340cf868802fdd8,TCN,2024-06-24_16h43.45.464,LearnStrategy,2023.2.3,Win32,60.07449237,,,,,,,,,,,4,09,2,4,,,,,,,,,,,,,,,,,,,,,,,,,,,,,
65fd4f0fc340cf868802fdd8,TCN,2024-06-24_16h43.45.464,LearnStrategy,2023.2.3,Win32,60.07449237,,,,,,,,,,,4,08,2,5,,,,,,,,,,,,,,,,,,,,,,,,,,,,,
65fd4f0fc340cf868802fdd8,TCN,2024-06-24_16h43.45.464,LearnStrategy,2023.2.3,Win32,60.07449237,,,,,,,,,,,1,14,2,6,,,,,,,,,,,,,,,,,,,,,,,,,,,,,
65fd4f0fc340cf868802fdd8,TCN,2024-06-24_16h43.45.464,LearnStrategy,2023.2.3,Win32,60.07449237,,,,,,,,,,,7,12,2,7,,,,,,,,,,,,,,,,,,,,,,,,,,,,,
65fd4f0fc340cf868802fdd8,TCN,2024-06-24_16h43.45.464,LearnStrategy,2023.2.3,Win32,60.07449237,,,,,,,,,,,5,11,2,8,,,,,,,,,,,,,,,,,,,,,,,,,,,,,
65fd4f0fc340cf868802fdd8,TCN,2024-06-24_16h43.45.464,LearnStrategy,2023.2.3,Win32,60.07449237,,,,,,,,,,,6,08,3,1,,,,,,,,,,,,,,,,,,,,,,,,,,,,,
65fd4f0fc340cf868802fdd8,TCN,2024-06-24_16h43.45.464,LearnStrategy,2023.2.3,Win32,60.07449237,,,,,,,,,,,3,02,3,2,,,,,,,,,,,,,,,,,,,,,,,,,,,,,
65fd4f0fc340cf868802fdd8,TCN,2024-06-24_16h43.45.464,LearnStrategy,2023.2.3,Win32,60.07449237,,,,,,,,,,,1,07,3,3,,,,,,,,,,,,,,,,,,,,,,,,,,,,,
65fd4f0fc340cf868802fdd8,TCN,2024-06-24_16h43.45.464,LearnStrategy,2023.2.3,Win32,60.07449237,,,,,,,,,,,1,04,3,4,,,,,,,,,,,,,,,,,,,,,,,,,,,,,
65fd4f0fc340cf868802fdd8,TCN,2024-06-24_16h43.45.464,LearnStrategy,2023.2.3,Win32,60.07449237,,,,,,,,,,,5,10,3,5,,,,,,,,,,,,,,,,,,,,,,,,,,,,,
65fd4f0fc340cf868802fdd8,TCN,2024-06-24_16h43.45.464,LearnStrategy,2023.2.3,Win32,60.07449237,,,,,,,,,,,4,14,3,6,,,,,,,,,,,,,,,,,,,,,,,,,,,,,
65fd4f0fc340cf868802fdd8,TCN,2024-06-24_16h43.45.464,LearnStrategy,2023.2.3,Win32,60.07449237,,,,,,,,,,,2,02,3,7,,,,,,,,,,,,,,,,,,,,,,,,,,,,,
65fd4f0fc340cf868802fdd8,TCN,2024-06-24_16h43.45.464,LearnStrategy,2023.2.3,Win32,60.07449237,,,,,,,,,,,7,06,3,8,,,,,,,,,,,,,,,,,,,,,,,,,,,,,
65fd4f0fc340cf868802fdd8,TCN,2024-06-24_16h43.45.464,LearnStrategy,2023.2.3,Win32,60.07449237,,,,,,,,,,,7,08,4,1,,,,,,,,,,,,,,,,,,,,,,,,,,,,,
65fd4f0fc340cf868802fdd8,TCN,2024-06-24_16h43.45.464,LearnStrategy,2023.2.3,Win32,60.07449237,,,,,,,,,,,8,08,4,2,,,,,,,,,,,,,,,,,,,,,,,,,,,,,
65fd4f0fc340cf868802fdd8,TCN,2024-06-24_16h43.45.464,LearnStrategy,2023.2.3,Win32,60.07449237,,,,,,,,,,,4,05,4,3,,,,,,,,,,,,,,,,,,,,,,,,,,,,,
65fd4f0fc340cf868802fdd8,TCN,2024-06-24_16h43.45.464,LearnStrategy,2023.2.3,Win32,60.07449237,,,,,,,,,,,3,09,4,4,,,,,,,,,,,,,,,,,,,,,,,,,,,,,
65fd4f0fc340cf868802fdd8,TCN,2024-06-24_16h43.45.464,LearnStrategy,2023.2.3,Win32,60.07449237,,,,,,,,,,,3,08,4,5,,,,,,,,,,,,,,,,,,,,,,,,,,,,,
65fd4f0fc340cf868802fdd8,TCN,2024-06-24_16h43.45.464,LearnStrategy,2023.2.3,Win32,60.07449237,,,,,,,,,,,7,15,4,6,,,,,,,,,,,,,,,,,,,,,,,,,,,,,
65fd4f0fc340cf868802fdd8,TCN,2024-06-24_16h43.45.464,LearnStrategy,2023.2.3,Win32,60.07449237,,,,,,,,,,,5,04,4,7,,,,,,,,,,,,,,,,,,,,,,,,,,,,,
65fd4f0fc340cf868802fdd8,TCN,2024-06-24_16h43.45.464,LearnStrategy,2023.2.3,Win32,60.07449237,,,,,,,,,,,8,05,4,8,,,,,,,,,,,,,,,,,,,,,,,,,,,,,
65fd4f0fc340cf868802fdd8,TCN,2024-06-24_16h43.45.464,LearnStrategy,2023.2.3,Win32,60.07449237,,,,,,,,,,,8,02,5,1,,,,,,,,,,,,,,,,,,,,,,,,,,,,,
65fd4f0fc340cf868802fdd8,TCN,2024-06-24_16h43.45.464,LearnStrategy,2023.2.3,Win32,60.07449237,,,,,,,,,,,5,16,5,2,,,,,,,,,,,,,,,,,,,,,,,,,,,,,
65fd4f0fc340cf868802fdd8,TCN,2024-06-24_16h43.45.464,LearnStrategy,2023.2.3,Win32,60.07449237,,,,,,,,,,,7,02,5,3,,,,,,,,,,,,,,,,,,,,,,,,,,,,,
65fd4f0fc340cf868802fdd8,TCN,2024-06-24_16h43.45.464,LearnStrategy,2023.2.3,Win32,60.07449237,,,,,,,,,,,8,10,5,4,,,,,,,,,,,,,,,,,,,,,,,,,,,,,
65fd4f0fc340cf868802fdd8,TCN,2024-06-24_16h43.45.464,LearnStrategy,2023.2.3,Win32,60.07449237,,,,,,,,,,,3,16,5,5,,,,,,,,,,,,,,,,,,,,,,,,,,,,,
65fd4f0fc340cf868802fdd8,TCN,2024-06-24_16h43.45.464,LearnStrategy,2023.2.3,Win32,60.07449237,,,,,,,,,,,4,12,5,6,,,,,,,,,,,,,,,,,,,,,,,,,,,,,
65fd4f0fc340cf868802fdd8,TCN,2024-06-24_16h43.45.464,LearnStrategy,2023.2.3,Win32,60.07449237,,,,,,,,,,,6,12,5,7,,,,,,,,,,,,,,,,,,,,,,,,,,,,,
65fd4f0fc340cf868802fdd8,TCN,2024-06-24_16h43.45.464,LearnStrategy,2023.2.3,Win32,60.07449237,,,,,,,,,,,1,10,5,8,,,,,,,,,,,,,,,,,,,,,,,,,,,,,
65fd4f0fc340cf868802fdd8,TCN,2024-06-24_16h43.45.464,LearnStrategy,2023.2.3,Win32,60.07449237,,,,,,,,,,,6,06,6,1,,,,,,,,,,,,,,,,,,,,,,,,,,,,,
65fd4f0fc340cf868802fdd8,TCN,2024-06-24_16h43.45.464,LearnStrategy,2023.2.3,Win32,60.07449237,,,,,,,,,,,2,05,6,2,,,,,,,,,,,,,,,,,,,,,,,,,,,,,
65fd4f0fc340cf868802fdd8,TCN,2024-06-24_16h43.45.464,LearnStrategy,2023.2.3,Win32,60.07449237,,,,,,,,,,,7,04,6,3,,,,,,,,,,,,,,,,,,,,,,,,,,,,,
65fd4f0fc340cf868802fdd8,TCN,2024-06-24_16h43.45.464,LearnStrategy,2023.2.3,Win32,60.07449237,,,,,,,,,,,1,02,6,4,,,,,,,,,,,,,,,,,,,,,,,,,,,,,
65fd4f0fc340cf868802fdd8,TCN,2024-06-24_16h43.45.464,LearnStrategy,2023.2.3,Win32,60.07449237,,,,,,,,,,,8,15,6,5,,,,,,,,,,,,,,,,,,,,,,,,,,,,,
65fd4f0fc340cf868802fdd8,TCN,2024-06-24_16h43.45.464,LearnStrategy,2023.2.3,Win32,60.07449237,,,,,,,,,,,6,03,6,6,,,,,,,,,,,,,,,,,,,,,,,,,,,,,
65fd4f0fc340cf868802fdd8,TCN,2024-06-24_16h43.45.464,LearnStrategy,2023.2.3,Win32,60.07449237,,,,,,,,,,,3,10,6,7,,,,,,,,,,,,,,,,,,,,,,,,,,,,,
65fd4f0fc340cf868802fdd8,TCN,2024-06-24_16h43.45.464,LearnStrategy,2023.2.3,Win32,60.07449237,,,,,,,,,,,2,04,6,8,,,,,,,,,,,,,,,,,,,,,,,,,,,,,