participant,condition,date,expName,psychopyVersion,OS,frameRate,block,phase,trial,learn_mouse.x,learn_mouse.y,learn_mouse.leftButton,learn_mouse.midButton,learn_mouse.rightButton,learn_mouse.time,learn_mouse.clicked_name,cat,token,row,col,t_select,cat_rec,token_rec,cat_mouse_l.x,cat_mouse_l.y,cat_mouse_l.leftButton,cat_mouse_l.midButton,cat_mouse_l.rightButton,cat_mouse_l.time,cat_mouse_l.clicked_name,resp,t_resp,corr,train_trials.thisRepN,train_trials.thisTrialN,train_trials.thisN,train_trials.thisIndex,train_trials.ran,cat_mouse_t.x,cat_mouse_t.y,cat_mouse_t.leftButton,cat_mouse_t.midButton,cat_mouse_t.rightButton,cat_mouse_t.time,cat_mouse_t.clicked_name,test_trials.thisRepN,test_trials.thisTrialN,test_trials.thisN,test_trials.thisIndex,test_trials.ran,Bonus
65fdbe94add2e540de266373,SCR,2024-06-25_11h50.30.335,LearnStrategy,2023.2.3,Win32,4.285959198,,,,,,,,,,,,,,,,,,,,,,,,,,,,,,,,,,,,,,,,,,,,,
65fdbe94add2e540de266373,SCR,2024-06-25_11h50.30.335,LearnStrategy,2023.2.3,Win32,4.285959198,1,1,1,-0.378703704,0.100925926,1,0,0,6.281,Pumice_14,8,14,4,2,6.281,8,14,-0.373148148,-0.250925926,1,0,0,12.443,Andesite_rect,1,12.443,0,0,0,0,0,1,,,,,,,,,,,,,
65fdbe94add2e540de266373,SCR,2024-06-25_11h50.30.335,LearnStrategy,2023.2.3,Win32,4.285959198,1,1,2,-0.524074074,0.398148148,1,0,0,1.789,Andesite_01,1,01,6,1,1.789,1,01,0.111111111,-0.261111111,1,0,0,16.995,Diorite_rect,3,16.995,0,1,0,1,0,1,,,,,,,,,,,,,
65fdbe94add2e540de266373,SCR,2024-06-25_11h50.30.335,LearnStrategy,2023.2.3,Win32,4.285959198,1,1,3,-0.269444444,-0.448148148,1,0,0,1.314,Peridotite_14,7,14,1,3,1.314,7,14,-0.123148148,-0.250925926,1,0,0,2.12,Basalt_rect,2,2.12,0,2,0,2,0,1,,,,,,,,,,,,,
65fdbe94add2e540de266373,SCR,2024-06-25_11h50.30.335,LearnStrategy,2023.2.3,Win32,4.285959198,1,1,4,0.069444444,-0.383333333,1,0,0,1.349,Diorite_10,3,10,1,5,1.349,3,10,0.094444444,-0.259259259,1,0,0,5.053,Diorite_rect,3,5.053,1,3,0,3,0,1,,,,,,,,,,,,,
65fdbe94add2e540de266373,SCR,2024-06-25_11h50.30.335,LearnStrategy,2023.2.3,Win32,4.285959198,1,1,5,-0.358333333,-0.252777778,1,0,0,1.802,Pumice_06,8,06,2,2,1.802,8,06,0.325925926,-0.259259259,1,0,0,7.202,Gabbro_rect,4,7.202,0,4,0,4,0,1,,,,,,,,,,,,,
65fdbe94add2e540de266373,SCR,2024-06-25_11h50.30.335,LearnStrategy,2023.2.3,Win32,4.285959198,1,1,6,0.511111111,0.092592593,1,0,0,1.409,Obsidian_06,5,06,4,8,1.409,5,06,-0.377777778,-0.405555556,1,0,0,7.297,Obsidian_rect,5,7.297,1,5,0,5,0,1,,,,,,,,,,,,,
65fdbe94add2e540de266373,SCR,2024-06-25_11h50.30.335,LearnStrategy,2023.2.3,Win32,4.285959198,1,1,7,0.248148148,-0.112962963,1,0,0,1.229,Andesite_09,1,09,3,6,1.229,1,09,0.368518519,-0.238888889,1,0,0,4.58,Gabbro_rect,4,4.58,0,6,0,6,0,1,,,,,,,,,,,,,
65fdbe94add2e540de266373,SCR,2024-06-25_11h50.30.335,LearnStrategy,2023.2.3,Win32,4.285959198,1,1,8,0.22037037,-0.409259259,1,0,0,1.485,Pegmatite_13,6,13,1,6,1.485,6,13,-0.090740741,-0.4,1,0,0,6.451,Pegmatite_rect,6,6.451,1,7,0,7,0,1,,,,,,,,,,,,,
65fdbe94add2e540de266373,SCR,2024-06-25_11h50.30.335,LearnStrategy,2023.2.3,Win32,4.285959198,1,1,9,0.500925926,-0.226851852,1,0,0,1.432,Peridotite_02,7,02,2,8,1.432,7,02,-0.337962963,-0.246296296,1,0,0,4.469,Andesite_rect,1,4.469,0,8,0,8,0,1,,,,,,,,,,,,,
65fdbe94add2e540de266373,SCR,2024-06-25_11h50.30.335,LearnStrategy,2023.2.3,Win32,4.285959198,1,1,10,-0.551851852,0.249074074,1,0,0,1.293,Basalt_12,2,12,5,1,1.293,2,12,-0.406481481,-0.260185185,1,0,0,13.996,Andesite_rect,1,13.996,0,9,0,9,0,1,,,,,,,,,,,,,
65fdbe94add2e540de266373,SCR,2024-06-25_11h50.30.335,LearnStrategy,2023.2.3,Win32,4.285959198,1,1,11,0.078703704,0.433333333,1,0,0,2.359,Diorite_11,3,11,6,5,2.359,3,11,0.094444444,-0.258333333,1,0,0,4.421,Diorite_rect,3,4.421,1,10,0,10,0,1,,,,,,,,,,,,,
65fdbe94add2e540de266373,SCR,2024-06-25_11h50.30.335,LearnStrategy,2023.2.3,Win32,4.285959198,1,1,12,-0.212962963,-0.240740741,1,0,0,1.323,Basalt_04,2,04,2,3,1.323,2,04,0.167592593,-0.405555556,1,0,0,5.633,Peridotite_rect,7,5.633,0,11,0,11,0,1,,,,,,,,,,,,,
65fdbe94add2e540de266373,SCR,2024-06-25_11h50.30.335,LearnStrategy,2023.2.3,Win32,4.285959198,1,1,13,-0.130555556,0.44537037,1,0,0,1.18,Pegmatite_07,6,07,6,4,1.18,6,07,-0.332407407,-0.246296296,1,0,0,2.291,Andesite_rect,1,2.291,0,12,0,12,0,1,,,,,,,,,,,,,
65fdbe94add2e540de266373,SCR,2024-06-25_11h50.30.335,LearnStrategy,2023.2.3,Win32,4.285959198,1,1,14,0.208333333,-0.265740741,1,0,0,1.276,Gabbro_10,4,10,2,6,1.276,4,10,-0.353703704,-0.257407407,1,0,0,3.483,Andesite_rect,1,3.483,0,13,0,13,0,1,,,,,,,,,,,,,
65fdbe94add2e540de266373,SCR,2024-06-25_11h50.30.335,LearnStrategy,2023.2.3,Win32,4.285959198,1,1,15,-0.217592593,0.399074074,1,0,0,1.14,Obsidian_04,5,04,6,3,1.14,5,04,-0.369444444,-0.392592593,1,0,0,2.564,Obsidian_rect,5,2.564,1,14,0,14,0,1,,,,,,,,,,,,,
65fdbe94add2e540de266373,SCR,2024-06-25_11h50.30.335,LearnStrategy,2023.2.3,Win32,4.285959198,1,1,16,0.057407407,0.266666667,1,0,0,1.83,Gabbro_14,4,14,5,5,1.83,4,14,0.358333333,-0.387037037,1,0,0,6.622,Pumice_rect,8,6.622,0,15,0,15,0,1,,,,,,,,,,,,,
65fdbe94add2e540de266373,SCR,2024-06-25_11h50.30.335,LearnStrategy,2023.2.3,Win32,4.285959198,1,2,1,,,,,,,,8,04,,,,,,,,,,,,,8,7.795,1,,,,,,0.328703704,-0.406481481,1,0,0,7.795,Pumice_rect,0,0,0,0,1,
65fdbe94add2e540de266373,SCR,2024-06-25_11h50.30.335,LearnStrategy,2023.2.3,Win32,4.285959198,1,2,2,,,,,,,,4,15,,,,,,,,,,,,,4,3.298,1,,,,,,0.315740741,-0.261111111,1,0,0,3.298,Gabbro_rect,1,0,1,0,1,
65fdbe94add2e540de266373,SCR,2024-06-25_11h50.30.335,LearnStrategy,2023.2.3,Win32,4.285959198,1,2,3,,,,,,,,3,06,,,,,,,,,,,,,1,2.647,0,,,,,,-0.361111111,-0.251851852,1,0,0,2.647,Andesite_rect,2,0,2,0,1,
65fdbe94add2e540de266373,SCR,2024-06-25_11h50.30.335,LearnStrategy,2023.2.3,Win32,4.285959198,1,2,4,,,,,,,,7,12,,,,,,,,,,,,,7,3.29,1,,,,,,0.110185185,-0.408333333,1,0,0,3.29,Peridotite_rect,3,0,3,0,1,
65fdbe94add2e540de266373,SCR,2024-06-25_11h50.30.335,LearnStrategy,2023.2.3,Win32,4.285959198,1,2,5,,,,,,,,1,16,,,,,,,,,,,,,4,2.445,0,,,,,,0.35462963,-0.266666667,1,0,0,2.445,Gabbro_rect,4,0,4,0,1,
65fdbe94add2e540de266373,SCR,2024-06-25_11h50.30.335,LearnStrategy,2023.2.3,Win32,4.285959198,1,2,6,,,,,,,,5,10,,,,,,,,,,,,,5,1.467,1,,,,,,-0.382407407,-0.396296296,1,0,0,1.467,Obsidian_rect,5,0,5,0,1,
65fdbe94add2e540de266373,SCR,2024-06-25_11h50.30.335,LearnStrategy,2023.2.3,Win32,4.285959198,1,2,7,,,,,,,,3,02,,,,,,,,,,,,,2,2.084,0,,,,,,-0.138888889,-0.248148148,1,0,0,2.084,Basalt_rect,6,0,6,0,1,
65fdbe94add2e540de266373,SCR,2024-06-25_11h50.30.335,LearnStrategy,2023.2.3,Win32,4.285959198,1,2,8,,,,,,,,6,06,,,,,,,,,,,,,7,5.628,0,,,,,,0.077777778,-0.403703704,1,0,0,5.628,Peridotite_rect,7,0,7,0,1,
65fdbe94add2e540de266373,SCR,2024-06-25_11h50.30.335,LearnStrategy,2023.2.3,Win32,4.285959198,1,2,9,,,,,,,,7,07,,,,,,,,,,,,,4,3.392,0,,,,,,0.343518519,-0.258333333,1,0,0,3.392,Gabbro_rect,8,0,8,0,1,
65fdbe94add2e540de266373,SCR,2024-06-25_11h50.30.335,LearnStrategy,2023.2.3,Win32,4.285959198,1,2,10,,,,,,,,5,14,,,,,,,,,,,,,5,1.464,1,,,,,,-0.349074074,-0.40462963,1,0,0,1.464,Obsidian_rect,9,0,9,0,1,
65fdbe94add2e540de266373,SCR,2024-06-25_11h50.30.335,LearnStrategy,2023.2.3,Win32,4.285959198,1,2,11,,,,,,,,6,12,,,,,,,,,,,,,6,2.131,1,,,,,,-0.116666667,-0.398148148,1,0,0,2.131,Pegmatite_rect,10,0,10,0,1,
65fdbe94add2e540de266373,SCR,2024-06-25_11h50.30.335,LearnStrategy,2023.2.3,Win32,4.285959198,1,2,12,,,,,,,,1,14,,,,,,,,,,,,,1,2.512,1,,,,,,-0.397222222,-0.249074074,1,0,0,2.512,Andesite_rect,11,0,11,0,1,
65fdbe94add2e540de266373,SCR,2024-06-25_11h50.30.335,LearnStrategy,2023.2.3,Win32,4.285959198,1,2,13,,,,,,,,2,06,,,,,,,,,,,,,1,4.178,0,,,,,,-0.387962963,-0.24537037,1,0,0,4.178,Andesite_rect,12,0,12,0,1,
65fdbe94add2e540de266373,SCR,2024-06-25_11h50.30.335,LearnStrategy,2023.2.3,Win32,4.285959198,1,2,14,,,,,,,,8,08,,,,,,,,,,,,,2,3.894,0,,,,,,-0.147222222,-0.250925926,1,0,0,3.894,Basalt_rect,13,0,13,0,1,
65fdbe94add2e540de266373,SCR,2024-06-25_11h50.30.335,LearnStrategy,2023.2.3,Win32,4.285959198,1,2,15,,,,,,,,2,14,,,,,,,,,,,,,3,3.422,0,,,,,,0.089814815,-0.271296296,1,0,0,3.422,Diorite_rect,14,0,14,0,1,
65fdbe94add2e540de266373,SCR,2024-06-25_11h50.30.335,LearnStrategy,2023.2.3,Win32,4.285959198,1,2,16,,,,,,,,4,11,,,,,,,,,,,,,8,3.117,0,,,,,,0.325925926,-0.400925926,1,0,0,3.117,Pumice_rect,15,0,15,0,1,
65fdbe94add2e540de266373,SCR,2024-06-25_11h50.30.335,LearnStrategy,2023.2.3,Win32,4.285959198,2,1,1,0.380555556,-0.241666667,1,0,0,1.475,Diorite_08,3,08,2,7,1.475,3,08,-0.381481481,-0.256481481,1,0,0,5.552,Andesite_rect,1,5.552,0,0,0,0,0,1,,,,,,,,,,,,,
65fdbe94add2e540de266373,SCR,2024-06-25_11h50.30.335,LearnStrategy,2023.2.3,Win32,4.285959198,2,1,2,0.22962963,-0.402777778,1,0,0,1.201,Pegmatite_13,6,13,1,6,1.201,6,13,-0.150925926,-0.250925926,1,0,0,4.774,Basalt_rect,2,4.774,0,1,0,1,0,1,,,,,,,,,,,,,
65fdbe94add2e540de266373,SCR,2024-06-25_11h50.30.335,LearnStrategy,2023.2.3,Win32,4.285959198,2,1,3,0.037037037,-0.260185185,1,0,0,1.138,Basalt_02,2,02,2,5,1.138,2,02,-0.376851852,-0.256481481,1,0,0,3.04,Andesite_rect,1,3.04,0,2,0,2,0,1,,,,,,,,,,,,,
65fdbe94add2e540de266373,SCR,2024-06-25_11h50.30.335,LearnStrategy,2023.2.3,Win32,4.285959198,2,1,4,-0.439814815,-0.248148148,1,0,0,2.409,Pumice_06,8,06,2,2,2.409,8,06,0.378703704,-0.405555556,1,0,0,2.38,Pumice_rect,8,2.38,1,3,0,3,0,1,,,,,,,,,,,,,
65fdbe94add2e540de266373,SCR,2024-06-25_11h50.30.335,LearnStrategy,2023.2.3,Win32,4.285959198,2,1,5,-0.399074074,-0.40462963,1,0,0,1.35,Peridotite_05,7,05,1,2,1.35,7,05,-0.101851852,-0.401851852,1,0,0,3.239,Pegmatite_rect,6,3.239,0,4,0,4,0,1,,,,,,,,,,,,,
65fdbe94add2e540de266373,SCR,2024-06-25_11h50.30.335,LearnStrategy,2023.2.3,Win32,4.285959198,2,1,6,0.388888889,-0.246296296,1,0,0,1.199,Diorite_08,3,08,2,7,1.199,3,08,-0.366666667,-0.240740741,1,0,0,3.139,Andesite_rect,1,3.139,0,5,0,5,0,1,,,,,,,,,,,,,
65fdbe94add2e540de266373,SCR,2024-06-25_11h50.30.335,LearnStrategy,2023.2.3,Win32,4.285959198,2,1,7,0.094444444,-0.265740741,1,0,0,1.125,Basalt_02,2,02,2,5,1.125,2,02,-0.368518519,-0.250925926,1,0,0,1.573,Andesite_rect,1,1.573,0,6,0,6,0,1,,,,,,,,,,,,,
65fdbe94add2e540de266373,SCR,2024-06-25_11h50.30.335,LearnStrategy,2023.2.3,Win32,4.285959198,2,1,8,0.363888889,-0.105555556,1,0,0,1.185,Gabbro_01,4,01,3,7,1.185,4,01,0.349074074,-0.237037037,1,0,0,2.467,Gabbro_rect,4,2.467,1,7,0,7,0,1,,,,,,,,,,,,,
65fdbe94add2e540de266373,SCR,2024-06-25_11h50.30.335,LearnStrategy,2023.2.3,Win32,4.285959198,2,1,9,0.365740741,0.385185185,1,0,0,1.509,Pumice_02,8,02,6,7,1.509,8,02,0.114814815,-0.40462963,1,0,0,5.826,Peridotite_rect,7,5.826,0,8,0,8,0,1,,,,,,,,,,,,,
65fdbe94add2e540de266373,SCR,2024-06-25_11h50.30.335,LearnStrategy,2023.2.3,Win32,4.285959198,2,1,10,0.550925926,0.388888889,1,0,0,1.31,Gabbro_12,4,12,6,8,1.31,4,12,-0.407407407,-0.253703704,1,0,0,3.328,Andesite_rect,1,3.328,0,9,0,9,0,1,,,,,,,,,,,,,
65fdbe94add2e540de266373,SCR,2024-06-25_11h50.30.335,LearnStrategy,2023.2.3,Win32,4.285959198,2,1,11,0.081481481,-0.093518519,1,0,0,1.105,Basalt_09,2,09,3,5,1.105,2,09,-0.118518519,-0.236111111,1,0,0,2.195,Basalt_rect,2,2.195,1,10,0,10,0,1,,,,,,,,,,,,,
65fdbe94add2e540de266373,SCR,2024-06-25_11h50.30.335,LearnStrategy,2023.2.3,Win32,4.285959198,2,1,12,-0.187962963,0.228703704,1,0,0,1.214,Andesite_10,1,10,5,3,1.214,1,10,-0.360185185,-0.234259259,1,0,0,1.685,Andesite_rect,1,1.685,1,11,0,11,0,1,,,,,,,,,,,,,
65fdbe94add2e540de266373,SCR,2024-06-25_11h50.30.335,LearnStrategy,2023.2.3,Win32,4.285959198,2,1,13,-0.255555556,0.141666667,1,0,0,0.965,Peridotite_13,7,13,4,3,0.965,7,13,-0.116666667,-0.385185185,1,0,0,2.431,Pegmatite_rect,6,2.431,0,12,0,12,0,1,,,,,,,,,,,,,
65fdbe94add2e540de266373,SCR,2024-06-25_11h50.30.335,LearnStrategy,2023.2.3,Win32,4.285959198,2,1,14,0.213888889,0.409259259,1,0,0,1.604,Pegmatite_08,6,08,6,6,1.604,6,08,-0.369444444,-0.241666667,1,0,0,4.014,Andesite_rect,1,4.014,0,13,0,13,0,1,,,,,,,,,,,,,
65fdbe94add2e540de266373,SCR,2024-06-25_11h50.30.335,LearnStrategy,2023.2.3,Win32,4.285959198,2,1,15,0.065740741,-0.391666667,1,0,0,3.834,Diorite_10,3,10,1,5,3.834,3,10,0.340740741,-0.412037037,1,0,0,2.402,Pumice_rect,8,2.402,0,14,0,14,0,1,,,,,,,,,,,,,
65fdbe94add2e540de266373,SCR,2024-06-25_11h50.30.335,LearnStrategy,2023.2.3,Win32,4.285959198,2,1,16,-0.551851852,-0.248148148,1,0,0,1.258,Andesite_03,1,03,2,1,1.258,1,03,-0.162037037,-0.240740741,1,0,0,3.963,Basalt_rect,2,3.963,0,15,0,15,0,1,,,,,,,,,,,,,
65fdbe94add2e540de266373,SCR,2024-06-25_11h50.30.335,LearnStrategy,2023.2.3,Win32,4.285959198,2,2,1,,,,,,,,7,08,,,,,,,,,,,,,1,6.493,0,,,,,,-0.373148148,-0.248148148,1,0,0,6.493,Andesite_rect,0,0,0,0,1,
65fdbe94add2e540de266373,SCR,2024-06-25_11h50.30.335,LearnStrategy,2023.2.3,Win32,4.285959198,2,2,2,,,,,,,,6,15,,,,,,,,,,,,,3,1.554,0,,,,,,0.107407407,-0.260185185,1,0,0,1.554,Diorite_rect,1,0,1,0,1,
65fdbe94add2e540de266373,SCR,2024-06-25_11h50.30.335,LearnStrategy,2023.2.3,Win32,4.285959198,2,2,3,,,,,,,,7,15,,,,,,,,,,,,,7,1.462,1,,,,,,0.072222222,-0.381481481,1,0,0,1.462,Peridotite_rect,2,0,2,0,1,
65fdbe94add2e540de266373,SCR,2024-06-25_11h50.30.335,LearnStrategy,2023.2.3,Win32,4.285959198,2,2,4,,,,,,,,6,03,,,,,,,,,,,,,5,3.867,0,,,,,,-0.449074074,-0.410185185,1,0,0,3.867,Obsidian_rect,3,0,3,0,1,
65fdbe94add2e540de266373,SCR,2024-06-25_11h50.30.335,LearnStrategy,2023.2.3,Win32,4.285959198,2,2,5,,,,,,,,8,16,,,,,,,,,,,,,4,6.217,0,,,,,,0.375925926,-0.257407407,1,0,0,6.217,Gabbro_rect,4,0,4,0,1,
65fdbe94add2e540de266373,SCR,2024-06-25_11h50.30.335,LearnStrategy,2023.2.3,Win32,4.285959198,2,2,6,,,,,,,,4,08,,,,,,,,,,,,,6,2.406,0,,,,,,-0.142592593,-0.39537037,1,0,0,2.406,Pegmatite_rect,5,0,5,0,1,
65fdbe94add2e540de266373,SCR,2024-06-25_11h50.30.335,LearnStrategy,2023.2.3,Win32,4.285959198,2,2,7,,,,,,,,5,08,,,,,,,,,,,,,5,1.847,1,,,,,,-0.361111111,-0.401851852,1,0,0,1.847,Obsidian_rect,6,0,6,0,1,
65fdbe94add2e540de266373,SCR,2024-06-25_11h50.30.335,LearnStrategy,2023.2.3,Win32,4.285959198,2,2,8,,,,,,,,8,05,,,,,,,,,,,,,7,3.54,0,,,,,,0.113888889,-0.380555556,1,0,0,3.54,Peridotite_rect,7,0,7,0,1,
65fdbe94add2e540de266373,SCR,2024-06-25_11h50.30.335,LearnStrategy,2023.2.3,Win32,4.285959198,2,2,9,,,,,,,,3,14,,,,,,,,,,,,,1,2.607,0,,,,,,-0.393518519,-0.250925926,1,0,0,2.607,Andesite_rect,8,0,8,0,1,
65fdbe94add2e540de266373,SCR,2024-06-25_11h50.30.335,LearnStrategy,2023.2.3,Win32,4.285959198,2,2,10,,,,,,,,5,11,,,,,,,,,,,,,5,1.542,1,,,,,,-0.446296296,-0.410185185,1,0,0,1.542,Obsidian_rect,9,0,9,0,1,
65fdbe94add2e540de266373,SCR,2024-06-25_11h50.30.335,LearnStrategy,2023.2.3,Win32,4.285959198,2,2,11,,,,,,,,4,05,,,,,,,,,,,,,3,4.057,0,,,,,,0.112962963,-0.25462963,1,0,0,4.057,Diorite_rect,10,0,10,0,1,
65fdbe94add2e540de266373,SCR,2024-06-25_11h50.30.335,LearnStrategy,2023.2.3,Win32,4.285959198,2,2,12,,,,,,,,2,10,,,,,,,,,,,,,6,2.117,0,,,,,,-0.100925926,-0.416666667,1,0,0,2.117,Pegmatite_rect,11,0,11,0,1,
65fdbe94add2e540de266373,SCR,2024-06-25_11h50.30.335,LearnStrategy,2023.2.3,Win32,4.285959198,2,2,13,,,,,,,,1,04,,,,,,,,,,,,,8,2.397,0,,,,,,0.385185185,-0.398148148,1,0,0,2.397,Pumice_rect,12,0,12,0,1,
65fdbe94add2e540de266373,SCR,2024-06-25_11h50.30.335,LearnStrategy,2023.2.3,Win32,4.285959198,2,2,14,,,,,,,,2,08,,,,,,,,,,,,,3,1.734,0,,,,,,0.128703704,-0.25462963,1,0,0,1.734,Diorite_rect,13,0,13,0,1,
65fdbe94add2e540de266373,SCR,2024-06-25_11h50.30.335,LearnStrategy,2023.2.3,Win32,4.285959198,2,2,15,,,,,,,,1,06,,,,,,,,,,,,,4,3.884,0,,,,,,0.37962963,-0.25462963,1,0,0,3.884,Gabbro_rect,14,0,14,0,1,
65fdbe94add2e540de266373,SCR,2024-06-25_11h50.30.335,LearnStrategy,2023.2.3,Win32,4.285959198,2,2,16,,,,,,,,3,09,,,,,,,,,,,,,7,5.475,0,,,,,,0.128703704,-0.396296296,1,0,0,5.475,Peridotite_rect,15,0,15,0,1,
65fdbe94add2e540de266373,SCR,2024-06-25_11h50.30.335,LearnStrategy,2023.2.3,Win32,4.285959198,3,1,1,0.430555556,0.101851852,1,0,0,20.191,Andesite_07,1,07,4,7,20.191,1,07,-0.155555556,-0.269444444,1,0,0,3.08,Basalt_rect,2,3.08,0,0,0,0,0,1,,,,,,,,,,,,,
65fdbe94add2e540de266373,SCR,2024-06-25_11h50.30.335,LearnStrategy,2023.2.3,Win32,4.285959198,3,1,2,-0.355555556,0.206481481,1,0,0,1.147,Pegmatite_05,6,05,5,2,1.147,6,05,-0.363888889,-0.250925926,1,0,0,4.357,Andesite_rect,1,4.357,0,1,0,1,0,1,,,,,,,,,,,,,
65fdbe94add2e540de266373,SCR,2024-06-25_11h50.30.335,LearnStrategy,2023.2.3,Win32,4.285959198,3,1,3,0.237037037,-0.27962963,1,0,0,1.381,Gabbro_10,4,10,2,6,1.381,4,10,-0.144444444,-0.265740741,1,0,0,3.013,Basalt_rect,2,3.013,0,2,0,2,0,1,,,,,,,,,,,,,
65fdbe94add2e540de266373,SCR,2024-06-25_11h50.30.335,LearnStrategy,2023.2.3,Win32,4.285959198,3,1,4,0.582407407,-0.436111111,1,0,0,1.382,Pumice_09,8,09,1,8,1.382,8,09,-0.063888889,-0.397222222,1,0,0,3.792,Pegmatite_rect,6,3.792,0,3,0,3,0,1,,,,,,,,,,,,,
65fdbe94add2e540de266373,SCR,2024-06-25_11h50.30.335,LearnStrategy,2023.2.3,Win32,4.285959198,3,1,5,-0.198148148,-0.364814815,1,0,0,1.094,Peridotite_14,7,14,1,3,1.094,7,14,-0.34537037,-0.237962963,1,0,0,2.08,Andesite_rect,1,2.08,0,4,0,4,0,1,,,,,,,,,,,,,
65fdbe94add2e540de266373,SCR,2024-06-25_11h50.30.335,LearnStrategy,2023.2.3,Win32,4.285959198,3,1,6,-0.218518519,-0.110185185,1,0,0,0.892,Pegmatite_11,6,11,3,3,0.892,6,11,-0.394444444,-0.412037037,1,0,0,3.583,Obsidian_rect,5,3.583,0,5,0,5,0,1,,,,,,,,,,,,,
65fdbe94add2e540de266373,SCR,2024-06-25_11h50.30.335,LearnStrategy,2023.2.3,Win32,4.285959198,3,1,7,-0.412037037,-0.417592593,1,0,0,1.121,Peridotite_05,7,05,1,2,1.121,7,05,-0.121296296,-0.247222222,1,0,0,2.912,Basalt_rect,2,2.912,0,6,0,6,0,1,,,,,,,,,,,,,
65fdbe94add2e540de266373,SCR,2024-06-25_11h50.30.335,LearnStrategy,2023.2.3,Win32,4.285959198,3,1,8,-0.348148148,0.401851852,1,0,0,1.181,Diorite_15,3,15,6,2,1.181,3,15,0.136111111,-0.260185185,1,0,0,5.552,Diorite_rect,3,5.552,1,7,0,7,0,1,,,,,,,,,,,,,
65fdbe94add2e540de266373,SCR,2024-06-25_11h50.30.335,LearnStrategy,2023.2.3,Win32,4.285959198,3,1,9,0.530555556,0.282407407,1,0,0,1.35,Diorite_16,3,16,5,8,1.35,3,16,0.077777778,-0.421296296,1,0,0,1.923,Peridotite_rect,7,1.923,0,8,0,8,0,1,,,,,,,,,,,,,
65fdbe94add2e540de266373,SCR,2024-06-25_11h50.30.335,LearnStrategy,2023.2.3,Win32,4.285959198,3,1,10,-0.59537037,0.421296296,1,0,0,1.636,Andesite_01,1,01,6,1,1.636,1,01,0.085185185,-0.413888889,1,0,0,2.901,Peridotite_rect,7,2.901,0,9,0,9,0,1,,,,,,,,,,,,,
65fdbe94add2e540de266373,SCR,2024-06-25_11h50.30.335,LearnStrategy,2023.2.3,Win32,4.285959198,3,1,11,0.437962963,0.25,1,0,0,1.326,Diorite_13,3,13,5,7,1.326,3,13,-0.164814815,-0.385185185,1,0,0,1.973,Pegmatite_rect,6,1.973,0,10,0,10,0,1,,,,,,,,,,,,,
65fdbe94add2e540de266373,SCR,2024-06-25_11h50.30.335,LearnStrategy,2023.2.3,Win32,4.285959198,3,1,12,0.560185185,0.405555556,1,0,0,0.953,Gabbro_12,4,12,6,8,0.953,4,12,-0.330555556,-0.242592593,1,0,0,2.211,Andesite_rect,1,2.211,0,11,0,11,0,1,,,,,,,,,,,,,
65fdbe94add2e540de266373,SCR,2024-06-25_11h50.30.335,LearnStrategy,2023.2.3,Win32,4.285959198,3,1,13,-0.237037037,-0.236111111,1,0,0,0.951,Basalt_04,2,04,2,3,0.951,2,04,0.074074074,-0.246296296,1,0,0,1.914,Diorite_rect,3,1.914,0,12,0,12,0,1,,,,,,,,,,,,,
65fdbe94add2e540de266373,SCR,2024-06-25_11h50.30.335,LearnStrategy,2023.2.3,Win32,4.285959198,3,1,14,0.394444444,0.417592593,1,0,0,1.198,Pumice_02,8,02,6,7,1.198,8,02,-0.35462963,-0.27037037,1,0,0,1.497,Andesite_rect,1,1.497,0,13,0,13,0,1,,,,,,,,,,,,,
65fdbe94add2e540de266373,SCR,2024-06-25_11h50.30.335,LearnStrategy,2023.2.3,Win32,4.285959198,3,1,15,0.116666667,-0.097222222,1,0,0,1.541,Basalt_09,2,09,3,5,1.541,2,09,-0.396296296,-0.250925926,1,0,0,1.985,Andesite_rect,1,1.985,0,14,0,14,0,1,,,,,,,,,,,,,
65fdbe94add2e540de266373,SCR,2024-06-25_11h50.30.335,LearnStrategy,2023.2.3,Win32,4.285959198,3,1,16,-0.224074074,-0.250925926,1,0,0,1.449,Basalt_04,2,04,2,3,1.449,2,04,-0.158333333,-0.247222222,1,0,0,0.944,Basalt_rect,2,0.944,1,15,0,15,0,1,,,,,,,,,,,,,
65fdbe94add2e540de266373,SCR,2024-06-25_11h50.30.335,LearnStrategy,2023.2.3,Win32,4.285959198,3,2,1,,,,,,,,6,16,,,,,,,,,,,,,7,6.134,0,,,,,,0.110185185,-0.405555556,1,0,0,6.134,Peridotite_rect,0,0,0,0,1,
65fdbe94add2e540de266373,SCR,2024-06-25_11h50.30.335,LearnStrategy,2023.2.3,Win32,4.285959198,3,2,2,,,,,,,,5,16,,,,,,,,,,,,,5,1.28,1,,,,,,-0.369444444,-0.399074074,1,0,0,1.28,Obsidian_rect,1,0,1,0,1,
65fdbe94add2e540de266373,SCR,2024-06-25_11h50.30.335,LearnStrategy,2023.2.3,Win32,4.285959198,3,2,3,,,,,,,,7,06,,,,,,,,,,,,,1,1.42,0,,,,,,-0.356481481,-0.251851852,1,0,0,1.42,Andesite_rect,2,0,2,0,1,
65fdbe94add2e540de266373,SCR,2024-06-25_11h50.30.335,LearnStrategy,2023.2.3,Win32,4.285959198,3,2,4,,,,,,,,7,16,,,,,,,,,,,,,4,1.955,0,,,,,,0.39537037,-0.263888889,1,0,0,1.955,Gabbro_rect,3,0,3,0,1,
65fdbe94add2e540de266373,SCR,2024-06-25_11h50.30.335,LearnStrategy,2023.2.3,Win32,4.285959198,3,2,5,,,,,,,,2,01,,,,,,,,,,,,,2,2.113,1,,,,,,-0.112037037,-0.239814815,1,0,0,2.113,Basalt_rect,4,0,4,0,1,
65fdbe94add2e540de266373,SCR,2024-06-25_11h50.30.335,LearnStrategy,2023.2.3,Win32,4.285959198,3,2,6,,,,,,,,3,12,,,,,,,,,,,,,8,2.532,0,,,,,,0.378703704,-0.416666667,1,0,0,2.532,Pumice_rect,5,0,5,0,1,
65fdbe94add2e540de266373,SCR,2024-06-25_11h50.30.335,LearnStrategy,2023.2.3,Win32,4.285959198,3,2,7,,,,,,,,5,12,,,,,,,,,,,,,5,1.362,1,,,,,,-0.337962963,-0.386111111,1,0,0,1.362,Obsidian_rect,6,0,6,0,1,
65fdbe94add2e540de266373,SCR,2024-06-25_11h50.30.335,LearnStrategy,2023.2.3,Win32,4.285959198,3,2,8,,,,,,,,4,13,,,,,,,,,,,,,6,1.831,0,,,,,,-0.094444444,-0.400925926,1,0,0,1.831,Pegmatite_rect,7,0,7,0,1,
65fdbe94add2e540de266373,SCR,2024-06-25_11h50.30.335,LearnStrategy,2023.2.3,Win32,4.285959198,3,2,9,,,,,,,,8,10,,,,,,,,,,,,,4,2.983,0,,,,,,0.359259259,-0.266666667,1,0,0,2.983,Gabbro_rect,8,0,8,0,1,
65fdbe94add2e540de266373,SCR,2024-06-25_11h50.30.335,LearnStrategy,2023.2.3,Win32,4.285959198,3,2,10,,,,,,,,4,03,,,,,,,,,,,,,3,2.181,0,,,,,,0.064814815,-0.244444444,1,0,0,2.181,Diorite_rect,9,0,9,0,1,
65fdbe94add2e540de266373,SCR,2024-06-25_11h50.30.335,LearnStrategy,2023.2.3,Win32,4.285959198,3,2,11,,,,,,,,2,11,,,,,,,,,,,,,1,3.172,0,,,,,,-0.42037037,-0.25462963,1,0,0,3.172,Andesite_rect,10,0,10,0,1,
65fdbe94add2e540de266373,SCR,2024-06-25_11h50.30.335,LearnStrategy,2023.2.3,Win32,4.285959198,3,2,12,,,,,,,,8,15,,,,,,,,,,,,,8,3.759,1,,,,,,0.353703704,-0.394444444,1,0,0,3.759,Pumice_rect,11,0,11,0,1,
65fdbe94add2e540de266373,SCR,2024-06-25_11h50.30.335,LearnStrategy,2023.2.3,Win32,4.285959198,3,2,13,,,,,,,,6,09,,,,,,,,,,,,,6,2.286,1,,,,,,-0.134259259,-0.392592593,1,0,0,2.286,Pegmatite_rect,12,0,12,0,1,
65fdbe94add2e540de266373,SCR,2024-06-25_11h50.30.335,LearnStrategy,2023.2.3,Win32,4.285959198,3,2,14,,,,,,,,3,07,,,,,,,,,,,,,3,2.566,1,,,,,,0.137962963,-0.262962963,1,0,0,2.566,Diorite_rect,13,0,13,0,1,
65fdbe94add2e540de266373,SCR,2024-06-25_11h50.30.335,LearnStrategy,2023.2.3,Win32,4.285959198,3,2,15,,,,,,,,1,02,,,,,,,,,,,,,1,3.963,1,,,,,,-0.319444444,-0.264814815,1,0,0,3.963,Andesite_rect,14,0,14,0,1,
65fdbe94add2e540de266373,SCR,2024-06-25_11h50.30.335,LearnStrategy,2023.2.3,Win32,4.285959198,3,2,16,,,,,,,,1,05,,,,,,,,,,,,,7,2.271,0,,,,,,0.097222222,-0.40462963,1,0,0,2.271,Peridotite_rect,15,0,15,0,1,
65fdbe94add2e540de266373,SCR,2024-06-25_11h50.30.335,LearnStrategy,2023.2.3,Win32,4.285959198,4,1,1,0.081481481,0.225,1,0,0,1.256,Gabbro_14,4,14,5,5,1.256,4,14,-0.125925926,-0.262037037,1,0,0,4.904,Basalt_rect,2,4.904,0,0,0,0,0,1,,,,,,,,,,,,,
65fdbe94add2e540de266373,SCR,2024-06-25_11h50.30.335,LearnStrategy,2023.2.3,Win32,4.285959198,4,1,2,-0.238888889,-0.399074074,1,0,0,1.168,Peridotite_14,7,14,1,3,1.168,7,14,-0.156481481,-0.247222222,1,0,0,1.384,Basalt_rect,2,1.384,0,1,0,1,0,1,,,,,,,,,,,,,
65fdbe94add2e540de266373,SCR,2024-06-25_11h50.30.335,LearnStrategy,2023.2.3,Win32,4.285959198,4,1,3,-0.024074074,0.065740741,1,0,0,0.962,Gabbro_16,4,16,4,4,0.962,4,16,-0.363888889,-0.27037037,1,0,0,1.453,Andesite_rect,1,1.453,0,2,0,2,0,1,,,,,,,,,,,,,
65fdbe94add2e540de266373,SCR,2024-06-25_11h50.30.335,LearnStrategy,2023.2.3,Win32,4.285959198,4,1,4,-0.036111111,-0.053703704,1,0,0,0.821,Pumice_13,8,13,3,4,0.821,8,13,0.339814815,-0.247222222,1,0,0,1.378,Gabbro_rect,4,1.378,0,3,0,3,0,1,,,,,,,,,,,,,
65fdbe94add2e540de266373,SCR,2024-06-25_11h50.30.335,LearnStrategy,2023.2.3,Win32,4.285959198,4,1,5,-0.264814815,0.251851852,1,0,0,0.98,Andesite_10,1,10,5,3,0.98,1,10,0.084259259,-0.409259259,1,0,0,1.544,Peridotite_rect,7,1.544,0,4,0,4,0,1,,,,,,,,,,,,,
65fdbe94add2e540de266373,SCR,2024-06-25_11h50.30.335,LearnStrategy,2023.2.3,Win32,4.285959198,4,1,6,0.055555556,-0.22037037,1,0,0,0.997,Basalt_02,2,02,2,5,0.997,2,02,-0.083333333,-0.243518519,1,0,0,1.894,Basalt_rect,2,1.894,1,5,0,5,0,1,,,,,,,,,,,,,
65fdbe94add2e540de266373,SCR,2024-06-25_11h50.30.335,LearnStrategy,2023.2.3,Win32,4.285959198,4,1,7,0.057407407,-0.100925926,1,0,0,1.242,Basalt_09,2,09,3,5,1.242,2,09,-0.080555556,-0.248148148,1,0,0,1.593,Basalt_rect,2,1.593,1,6,0,6,0,1,,,,,,,,,,,,,
65fdbe94add2e540de266373,SCR,2024-06-25_11h50.30.335,LearnStrategy,2023.2.3,Win32,4.285959198,4,1,8,-0.560185185,-0.239814815,1,0,0,1.259,Andesite_03,1,03,2,1,1.259,1,03,-0.148148148,-0.232407407,1,0,0,1.184,Basalt_rect,2,1.184,0,7,0,7,0,1,,,,,,,,,,,,,
65fdbe94add2e540de266373,SCR,2024-06-25_11h50.30.335,LearnStrategy,2023.2.3,Win32,4.285959198,4,1,9,0.547222222,-0.401851852,1,0,0,1.265,Pumice_09,8,09,1,8,1.265,8,09,0.189814815,-0.405555556,1,0,0,1.841,Peridotite_rect,7,1.841,0,8,0,8,0,1,,,,,,,,,,,,,
65fdbe94add2e540de266373,SCR,2024-06-25_11h50.30.335,LearnStrategy,2023.2.3,Win32,4.285959198,4,1,10,-0.369444444,-0.393518519,1,0,0,1.242,Peridotite_05,7,05,1,2,1.242,7,05,0.152777778,-0.24537037,1,0,0,2.81,Diorite_rect,3,2.81,0,9,0,9,0,1,,,,,,,,,,,,,
65fdbe94add2e540de266373,SCR,2024-06-25_11h50.30.335,LearnStrategy,2023.2.3,Win32,4.285959198,4,1,11,0.194444444,0.381481481,1,0,0,1.491,Pegmatite_08,6,08,6,6,1.491,6,08,0.075,-0.241666667,1,0,0,1.896,Diorite_rect,3,1.896,0,10,0,10,0,1,,,,,,,,,,,,,
65fdbe94add2e540de266373,SCR,2024-06-25_11h50.30.335,LearnStrategy,2023.2.3,Win32,4.285959198,4,1,12,0.084259259,0.457407407,1,0,0,1.137,Diorite_11,3,11,6,5,1.137,3,11,-0.415740741,-0.271296296,1,0,0,1.184,Andesite_rect,1,1.184,0,11,0,11,0,1,,,,,,,,,,,,,
65fdbe94add2e540de266373,SCR,2024-06-25_11h50.30.335,LearnStrategy,2023.2.3,Win32,4.285959198,4,1,13,0.581481481,0.275,1,0,0,1.109,Diorite_16,3,16,5,8,1.109,3,16,-0.330555556,-0.247222222,1,0,0,1.959,Andesite_rect,1,1.959,0,12,0,12,0,1,,,,,,,,,,,,,
65fdbe94add2e540de266373,SCR,2024-06-25_11h50.30.335,LearnStrategy,2023.2.3,Win32,4.285959198,4,1,14,0.264814815,-0.305555556,1,0,0,0.896,Gabbro_10,4,10,2,6,0.896,4,10,0.132407407,-0.39537037,1,0,0,2.012,Peridotite_rect,7,2.012,0,13,0,13,0,1,,,,,,,,,,,,,
65fdbe94add2e540de266373,SCR,2024-06-25_11h50.30.335,LearnStrategy,2023.2.3,Win32,4.285959198,4,1,15,-0.417592593,0.22962963,1,0,0,0.941,Pegmatite_05,6,05,5,2,0.941,6,05,-0.19537037,-0.242592593,1,0,0,1.245,Basalt_rect,2,1.245,0,14,0,14,0,1,,,,,,,,,,,,,
65fdbe94add2e540de266373,SCR,2024-06-25_11h50.30.335,LearnStrategy,2023.2.3,Win32,4.285959198,4,1,16,0.375925926,-0.433333333,1,0,0,1.123,Peridotite_04,7,04,1,7,1.123,7,04,-0.084259259,-0.238888889,1,0,0,2.799,Basalt_rect,2,2.799,0,15,0,15,0,1,,,,,,,,,,,,,
65fdbe94add2e540de266373,SCR,2024-06-25_11h50.30.335,LearnStrategy,2023.2.3,Win32,4.285959198,4,2,1,,,,,,,,8,08,,,,,,,,,,,,,2,3.939,0,,,,,,-0.135185185,-0.253703704,1,0,0,3.939,Basalt_rect,0,0,0,0,1,
65fdbe94add2e540de266373,SCR,2024-06-25_11h50.30.335,LearnStrategy,2023.2.3,Win32,4.285959198,4,2,2,,,,,,,,2,11,,,,,,,,,,,,,7,0.797,0,,,,,,0.097222222,-0.398148148,1,0,0,0.797,Peridotite_rect,1,0,1,0,1,
65fdbe94add2e540de266373,SCR,2024-06-25_11h50.30.335,LearnStrategy,2023.2.3,Win32,4.285959198,4,2,3,,,,,,,,6,12,,,,,,,,,,,,,6,1.529,1,,,,,,-0.142592593,-0.400925926,1,0,0,1.529,Pegmatite_rect,2,0,2,0,1,
65fdbe94add2e540de266373,SCR,2024-06-25_11h50.30.335,LearnStrategy,2023.2.3,Win32,4.285959198,4,2,4,,,,,,,,3,09,,,,,,,,,,,,,4,2.756,0,,,,,,0.385185185,-0.263888889,1,0,0,2.756,Gabbro_rect,3,0,3,0,1,
65fdbe94add2e540de266373,SCR,2024-06-25_11h50.30.335,LearnStrategy,2023.2.3,Win32,4.285959198,4,2,5,,,,,,,,5,12,,,,,,,,,,,,,5,1.337,1,,,,,,-0.413888889,-0.401851852,1,0,0,1.337,Obsidian_rect,4,0,4,0,1,
65fdbe94add2e540de266373,SCR,2024-06-25_11h50.30.335,LearnStrategy,2023.2.3,Win32,4.285959198,4,2,6,,,,,,,,5,08,,,,,,,,,,,,,5,1.124,1,,,,,,-0.401851852,-0.392592593,1,0,0,1.124,Obsidian_rect,5,0,5,0,1,
65fdbe94add2e540de266373,SCR,2024-06-25_11h50.30.335,LearnStrategy,2023.2.3,Win32,4.285959198,4,2,7,,,,,,,,7,07,,,,,,,,,,,,,1,1.32,0,,,,,,-0.380555556,-0.241666667,1,0,0,1.32,Andesite_rect,6,0,6,0,1,
65fdbe94add2e540de266373,SCR,2024-06-25_11h50.30.335,LearnStrategy,2023.2.3,Win32,4.285959198,4,2,8,,,,,,,,4,11,,,,,,,,,,,,,2,1.965,0,,,,,,-0.125,-0.265740741,1,0,0,1.965,Basalt_rect,7,0,7,0,1,
65fdbe94add2e540de266373,SCR,2024-06-25_11h50.30.335,LearnStrategy,2023.2.3,Win32,4.285959198,4,2,9,,,,,,,,1,05,,,,,,,,,,,,,8,2.982,0,,,,,,0.378703704,-0.40462963,1,0,0,2.982,Pumice_rect,8,0,8,0,1,
65fdbe94add2e540de266373,SCR,2024-06-25_11h50.30.335,LearnStrategy,2023.2.3,Win32,4.285959198,4,2,10,,,,,,,,2,01,,,,,,,,,,,,,2,1.877,1,,,,,,-0.100925926,-0.264814815,1,0,0,1.877,Basalt_rect,9,0,9,0,1,
65fdbe94add2e540de266373,SCR,2024-06-25_11h50.30.335,LearnStrategy,2023.2.3,Win32,4.285959198,4,2,11,,,,,,,,3,07,,,,,,,,,,,,,3,1.456,1,,,,,,0.125,-0.263888889,1,0,0,1.456,Diorite_rect,10,0,10,0,1,
65fdbe94add2e540de266373,SCR,2024-06-25_11h50.30.335,LearnStrategy,2023.2.3,Win32,4.285959198,4,2,12,,,,,,,,8,10,,,,,,,,,,,,,6,3.481,0,,,,,,-0.060185185,-0.408333333,1,0,0,3.481,Pegmatite_rect,11,0,11,0,1,
65fdbe94add2e540de266373,SCR,2024-06-25_11h50.30.335,LearnStrategy,2023.2.3,Win32,4.285959198,4,2,13,,,,,,,,6,06,,,,,,,,,,,,,3,4.104,0,,,,,,0.141666667,-0.24537037,1,0,0,4.104,Diorite_rect,12,0,12,0,1,
65fdbe94add2e540de266373,SCR,2024-06-25_11h50.30.335,LearnStrategy,2023.2.3,Win32,4.285959198,4,2,14,,,,,,,,4,08,,,,,,,,,,,,,4,1.765,1,,,,,,0.401851852,-0.256481481,1,0,0,1.765,Gabbro_rect,13,0,13,0,1,
65fdbe94add2e540de266373,SCR,2024-06-25_11h50.30.335,LearnStrategy,2023.2.3,Win32,4.285959198,4,2,15,,,,,,,,7,16,,,,,,,,,,,,,7,1.523,1,,,,,,0.166666667,-0.399074074,1,0,0,1.523,Peridotite_rect,14,0,14,0,1,
65fdbe94add2e540de266373,SCR,2024-06-25_11h50.30.335,LearnStrategy,2023.2.3,Win32,4.285959198,4,2,16,,,,,,,,1,04,,,,,,,,,,,,,1,1.773,1,,,,,,-0.34537037,-0.24537037,1,0,0,1.773,Andesite_rect,15,0,15,0,1,
65fdbe94add2e540de266373,SCR,2024-06-25_11h50.30.335,LearnStrategy,2023.2.3,Win32,4.285959198,5,1,1,-0.388888889,0.080555556,1,0,0,1.104,Pumice_14,8,14,4,2,1.104,8,14,-0.352777778,-0.256481481,1,0,0,1.912,Andesite_rect,1,1.912,0,0,0,0,0,1,,,,,,,,,,,,,
65fdbe94add2e540de266373,SCR,2024-06-25_11h50.30.335,LearnStrategy,2023.2.3,Win32,4.285959198,5,1,2,0.376851852,0.10462963,1,0,0,1.084,Andesite_07,1,07,4,7,1.084,1,07,0.119444444,-0.238888889,1,0,0,1.862,Diorite_rect,3,1.862,0,1,0,1,0,1,,,,,,,,,,,,,
65fdbe94add2e540de266373,SCR,2024-06-25_11h50.30.335,LearnStrategy,2023.2.3,Win32,4.285959198,5,1,3,-0.040740741,0.356481481,1,0,0,1.182,Pegmatite_07,6,07,6,4,1.182,6,07,-0.335185185,-0.253703704,1,0,0,1.294,Andesite_rect,1,1.294,0,2,0,2,0,1,,,,,,,,,,,,,
65fdbe94add2e540de266373,SCR,2024-06-25_11h50.30.335,LearnStrategy,2023.2.3,Win32,4.285959198,5,1,4,0.338888889,-0.087037037,1,0,0,0.966,Gabbro_01,4,01,3,7,0.966,4,01,-0.074074074,-0.260185185,1,0,0,2.167,Basalt_rect,2,2.167,0,3,0,3,0,1,,,,,,,,,,,,,
65fdbe94add2e540de266373,SCR,2024-06-25_11h50.30.335,LearnStrategy,2023.2.3,Win32,4.285959198,5,1,5,-0.04537037,-0.225925926,1,0,0,0.899,Pumice_03,8,03,2,4,0.899,8,03,0.068518519,-0.241666667,1,0,0,2.589,Diorite_rect,3,2.589,0,4,0,4,0,1,,,,,,,,,,,,,
65fdbe94add2e540de266373,SCR,2024-06-25_11h50.30.335,LearnStrategy,2023.2.3,Win32,4.285959198,5,1,6,0.425925926,-0.097222222,1,0,0,1.005,Gabbro_01,4,01,3,7,1.005,4,01,0.387962963,-0.267592593,1,0,0,1.451,Gabbro_rect,4,1.451,1,5,0,5,0,1,,,,,,,,,,,,,
65fdbe94add2e540de266373,SCR,2024-06-25_11h50.30.335,LearnStrategy,2023.2.3,Win32,4.285959198,5,1,7,0.275925926,-0.100925926,1,0,0,1.245,Andesite_09,1,09,3,6,1.245,1,09,-0.109259259,-0.24537037,1,0,0,1.159,Basalt_rect,2,1.159,0,6,0,6,0,1,,,,,,,,,,,,,
65fdbe94add2e540de266373,SCR,2024-06-25_11h50.30.335,LearnStrategy,2023.2.3,Win32,4.285959198,5,1,8,-0.05,-0.125,1,0,0,0.865,Pumice_13,8,13,3,4,0.865,8,13,0.12037037,-0.412037037,1,0,0,4.031,Peridotite_rect,7,4.031,0,7,0,7,0,1,,,,,,,,,,,,,
65fdbe94add2e540de266373,SCR,2024-06-25_11h50.30.335,LearnStrategy,2023.2.3,Win32,4.285959198,5,1,9,0.383333333,-0.418518519,1,0,0,1.133,Peridotite_04,7,04,1,7,1.133,7,04,0.380555556,-0.39537037,1,0,0,1.33,Pumice_rect,8,1.33,0,8,0,8,0,1,,,,,,,,,,,,,
65fdbe94add2e540de266373,SCR,2024-06-25_11h50.30.335,LearnStrategy,2023.2.3,Win32,4.285959198,5,1,10,0.094444444,-0.393518519,1,0,0,1.073,Diorite_10,3,10,1,5,1.073,3,10,-0.394444444,-0.262037037,1,0,0,1.061,Andesite_rect,1,1.061,0,9,0,9,0,1,,,,,,,,,,,,,
65fdbe94add2e540de266373,SCR,2024-06-25_11h50.30.335,LearnStrategy,2023.2.3,Win32,4.285959198,5,1,11,-0.210185185,-0.238888889,1,0,0,0.986,Basalt_04,2,04,2,3,0.986,2,04,-0.137037037,-0.253703704,1,0,0,1.047,Basalt_rect,2,1.047,1,10,0,10,0,1,,,,,,,,,,,,,
65fdbe94add2e540de266373,SCR,2024-06-25_11h50.30.335,LearnStrategy,2023.2.3,Win32,4.285959198,5,1,12,0.375,-0.240740741,1,0,0,1.019,Diorite_08,3,08,2,7,1.019,3,08,0.087037037,-0.259259259,1,0,0,0.915,Diorite_rect,3,0.915,1,11,0,11,0,1,,,,,,,,,,,,,
65fdbe94add2e540de266373,SCR,2024-06-25_11h50.30.335,LearnStrategy,2023.2.3,Win32,4.285959198,5,1,13,0.193518519,-0.262962963,1,0,0,0.83,Gabbro_10,4,10,2,6,0.83,4,10,0.188888889,-0.247222222,1,0,0,0.66,Diorite_rect,3,0.66,0,12,0,12,0,1,,,,,,,,,,,,,
65fdbe94add2e540de266373,SCR,2024-06-25_11h50.30.335,LearnStrategy,2023.2.3,Win32,4.285959198,5,1,14,-0.191666667,-0.114814815,1,0,0,1.617,Pegmatite_11,6,11,3,3,1.617,6,11,0.190740741,-0.399074074,1,0,0,3.124,Peridotite_rect,7,3.124,0,13,0,13,0,1,,,,,,,,,,,,,
65fdbe94add2e540de266373,SCR,2024-06-25_11h50.30.335,LearnStrategy,2023.2.3,Win32,4.285959198,5,1,15,0.538888889,-0.094444444,1,0,0,0.987,Basalt_16,2,16,3,8,0.987,2,16,0.397222222,-0.265740741,1,0,0,1.32,Gabbro_rect,4,1.32,0,14,0,14,0,1,,,,,,,,,,,,,
65fdbe94add2e540de266373,SCR,2024-06-25_11h50.30.335,LearnStrategy,2023.2.3,Win32,4.285959198,5,1,16,-0.261111111,0.074074074,1,0,0,1.107,Peridotite_13,7,13,4,3,1.107,7,13,-0.350925926,-0.232407407,1,0,0,1.199,Andesite_rect,1,1.199,0,15,0,15,0,1,,,,,,,,,,,,,
65fdbe94add2e540de266373,SCR,2024-06-25_11h50.30.335,LearnStrategy,2023.2.3,Win32,4.285959198,5,2,1,,,,,,,,4,13,,,,,,,,,,,,,1,3.981,0,,,,,,-0.369444444,-0.255555556,1,0,0,3.981,Andesite_rect,0,0,0,0,1,
65fdbe94add2e540de266373,SCR,2024-06-25_11h50.30.335,LearnStrategy,2023.2.3,Win32,4.285959198,5,2,2,,,,,,,,2,10,,,,,,,,,,,,,2,1.618,1,,,,,,-0.072222222,-0.246296296,1,0,0,1.618,Basalt_rect,1,0,1,0,1,
65fdbe94add2e540de266373,SCR,2024-06-25_11h50.30.335,LearnStrategy,2023.2.3,Win32,4.285959198,5,2,3,,,,,,,,3,06,,,,,,,,,,,,,4,1.686,0,,,,,,0.456481481,-0.251851852,1,0,0,1.686,Gabbro_rect,2,0,2,0,1,
65fdbe94add2e540de266373,SCR,2024-06-25_11h50.30.335,LearnStrategy,2023.2.3,Win32,4.285959198,5,2,4,,,,,,,,8,04,,,,,,,,,,,,,3,2.669,0,,,,,,0.131481481,-0.25462963,1,0,0,2.669,Diorite_rect,3,0,3,0,1,
65fdbe94add2e540de266373,SCR,2024-06-25_11h50.30.335,LearnStrategy,2023.2.3,Win32,4.285959198,5,2,5,,,,,,,,1,16,,,,,,,,,,,,,6,1.076,0,,,,,,-0.106481481,-0.390740741,1,0,0,1.076,Pegmatite_rect,4,0,4,0,1,
65fdbe94add2e540de266373,SCR,2024-06-25_11h50.30.335,LearnStrategy,2023.2.3,Win32,4.285959198,5,2,6,,,,,,,,6,16,,,,,,,,,,,,,6,2.271,1,,,,,,-0.083333333,-0.392592593,1,0,0,2.271,Pegmatite_rect,5,0,5,0,1,
65fdbe94add2e540de266373,SCR,2024-06-25_11h50.30.335,LearnStrategy,2023.2.3,Win32,4.285959198,5,2,7,,,,,,,,7,15,,,,,,,,,,,,,7,1.537,1,,,,,,0.112037037,-0.397222222,1,0,0,1.537,Peridotite_rect,6,0,6,0,1,
65fdbe94add2e540de266373,SCR,2024-06-25_11h50.30.335,LearnStrategy,2023.2.3,Win32,4.285959198,5,2,8,,,,,,,,7,06,,,,,,,,,,,,,6,2.246,0,,,,,,-0.089814815,-0.401851852,1,0,0,2.246,Pegmatite_rect,7,0,7,0,1,
65fdbe94add2e540de266373,SCR,2024-06-25_11h50.30.335,LearnStrategy,2023.2.3,Win32,4.285959198,5,2,9,,,,,,,,8,05,,,,,,,,,,,,,3,2.661,0,,,,,,0.099074074,-0.24537037,1,0,0,2.661,Diorite_rect,8,0,8,0,1,
65fdbe94add2e540de266373,SCR,2024-06-25_11h50.30.335,LearnStrategy,2023.2.3,Win32,4.285959198,5,2,10,,,,,,,,2,14,,,,,,,,,,,,,3,3.309,0,,,,,,0.187037037,-0.243518519,1,0,0,3.309,Diorite_rect,9,0,9,0,1,
65fdbe94add2e540de266373,SCR,2024-06-25_11h50.30.335,LearnStrategy,2023.2.3,Win32,4.285959198,5,2,11,,,,,,,,1,14,,,,,,,,,,,,,3,3.187,0,,,,,,0.114814815,-0.230555556,1,0,0,3.187,Diorite_rect,10,0,10,0,1,
65fdbe94add2e540de266373,SCR,2024-06-25_11h50.30.335,LearnStrategy,2023.2.3,Win32,4.285959198,5,2,12,,,,,,,,5,14,,,,,,,,,,,,,5,5.244,1,,,,,,-0.373148148,-0.392592593,1,0,0,5.244,Obsidian_rect,11,0,11,0,1,
65fdbe94add2e540de266373,SCR,2024-06-25_11h50.30.335,LearnStrategy,2023.2.3,Win32,4.285959198,5,2,13,,,,,,,,3,14,,,,,,,,,,,,,1,2.004,0,,,,,,-0.362962963,-0.265740741,1,0,0,2.004,Andesite_rect,12,0,12,0,1,
65fdbe94add2e540de266373,SCR,2024-06-25_11h50.30.335,LearnStrategy,2023.2.3,Win32,4.285959198,5,2,14,,,,,,,,5,16,,,,,,,,,,,,,5,1.235,1,,,,,,-0.37037037,-0.390740741,1,0,0,1.235,Obsidian_rect,13,0,13,0,1,
65fdbe94add2e540de266373,SCR,2024-06-25_11h50.30.335,LearnStrategy,2023.2.3,Win32,4.285959198,5,2,15,,,,,,,,6,03,,,,,,,,,,,,,6,2.389,1,,,,,,-0.085185185,-0.412037037,1,0,0,2.389,Pegmatite_rect,14,0,14,0,1,
65fdbe94add2e540de266373,SCR,2024-06-25_11h50.30.335,LearnStrategy,2023.2.3,Win32,4.285959198,5,2,16,,,,,,,,4,15,,,,,,,,,,,,,4,2.893,1,,,,,,0.37962963,-0.244444444,1,0,0,2.893,Gabbro_rect,15,0,15,0,1,
65fdbe94add2e540de266373,SCR,2024-06-25_11h50.30.335,LearnStrategy,2023.2.3,Win32,4.285959198,6,1,1,-0.112962963,-0.264814815,1,0,0,0.956,Pumice_03,8,03,2,4,0.956,8,03,0.077777778,-0.243518519,1,0,0,1.914,Diorite_rect,3,1.914,0,0,0,0,0,1,,,,,,,,,,,,,
65fdbe94add2e540de266373,SCR,2024-06-25_11h50.30.335,LearnStrategy,2023.2.3,Win32,4.285959198,6,1,2,-0.542592593,-0.112962963,1,0,0,1.8,Gabbro_09,4,09,3,1,1.8,4,09,0.355555556,-0.24537037,1,0,0,2.734,Gabbro_rect,4,2.734,1,1,0,1,0,1,,,,,,,,,,,,,
65fdbe94add2e540de266373,SCR,2024-06-25_11h50.30.335,LearnStrategy,2023.2.3,Win32,4.285959198,6,1,3,-0.267592593,0.222222222,1,0,0,1.198,Andesite_10,1,10,5,3,1.198,1,10,0.090740741,-0.401851852,1,0,0,2.17,Peridotite_rect,7,2.17,0,2,0,2,0,1,,,,,,,,,,,,,
65fdbe94add2e540de266373,SCR,2024-06-25_11h50.30.335,LearnStrategy,2023.2.3,Win32,4.285959198,6,1,4,-0.375925926,0.381481481,1,0,0,1.084,Diorite_15,3,15,6,2,1.084,3,15,-0.355555556,-0.259259259,1,0,0,1.997,Andesite_rect,1,1.997,0,3,0,3,0,1,,,,,,,,,,,,,
65fdbe94add2e540de266373,SCR,2024-06-25_11h50.30.335,LearnStrategy,2023.2.3,Win32,4.285959198,6,1,5,0.056481481,-0.09537037,1,0,0,0.812,Basalt_09,2,09,3,5,0.812,2,09,-0.088888889,-0.24537037,1,0,0,0.966,Basalt_rect,2,0.966,1,4,0,4,0,1,,,,,,,,,,,,,
65fdbe94add2e540de266373,SCR,2024-06-25_11h50.30.335,LearnStrategy,2023.2.3,Win32,4.285959198,6,1,6,-0.352777778,-0.276851852,1,0,0,1.103,Pumice_06,8,06,2,2,1.103,8,06,-0.097222222,-0.260185185,1,0,0,2.974,Basalt_rect,2,2.974,0,5,0,5,0,1,,,,,,,,,,,,,
65fdbe94add2e540de266373,SCR,2024-06-25_11h50.30.335,LearnStrategy,2023.2.3,Win32,4.285959198,6,1,7,0.196296296,0.243518519,1,0,0,1.302,Peridotite_10,7,10,5,6,1.302,7,10,0.389814815,-0.240740741,1,0,0,1.043,Gabbro_rect,4,1.043,0,6,0,6,0,1,,,,,,,,,,,,,
65fdbe94add2e540de266373,SCR,2024-06-25_11h50.30.335,LearnStrategy,2023.2.3,Win32,4.285959198,6,1,8,0.223148148,-0.111111111,1,0,0,0.98,Andesite_09,1,09,3,6,0.98,1,09,0.087037037,-0.247222222,1,0,0,2.273,Diorite_rect,3,2.273,0,7,0,7,0,1,,,,,,,,,,,,,
65fdbe94add2e540de266373,SCR,2024-06-25_11h50.30.335,LearnStrategy,2023.2.3,Win32,4.285959198,6,1,9,-0.424074074,-0.249074074,1,0,0,1.029,Pumice_06,8,06,2,2,1.029,8,06,0.135185185,-0.392592593,1,0,0,6.383,Peridotite_rect,7,6.383,0,8,0,8,0,1,,,,,,,,,,,,,
65fdbe94add2e540de266373,SCR,2024-06-25_11h50.30.335,LearnStrategy,2023.2.3,Win32,4.285959198,6,1,10,0.044444444,-0.112962963,1,0,0,1.193,Basalt_09,2,09,3,5,1.193,2,09,-0.150925926,-0.259259259,1,0,0,2.364,Basalt_rect,2,2.364,1,9,0,9,0,1,,,,,,,,,,,,,
65fdbe94add2e540de266373,SCR,2024-06-25_11h50.30.335,LearnStrategy,2023.2.3,Win32,4.285959198,6,1,11,0.066666667,-0.358333333,1,0,0,1.019,Diorite_10,3,10,1,5,1.019,3,10,-0.351851852,-0.246296296,1,0,0,0.943,Andesite_rect,1,0.943,0,10,0,10,0,1,,,,,,,,,,,,,
65fdbe94add2e540de266373,SCR,2024-06-25_11h50.30.335,LearnStrategy,2023.2.3,Win32,4.285959198,6,1,12,0.505555556,0.215740741,1,0,0,1.397,Diorite_16,3,16,5,8,1.397,3,16,-0.389814815,-0.252777778,1,0,0,1.678,Andesite_rect,1,1.678,0,11,0,11,0,1,,,,,,,,,,,,,
65fdbe94add2e540de266373,SCR,2024-06-25_11h50.30.335,LearnStrategy,2023.2.3,Win32,4.285959198,6,1,13,-0.058333333,0.385185185,1,0,0,1.759,Pegmatite_07,6,07,6,4,1.759,6,07,-0.088888889,-0.388888889,1,0,0,1.429,Pegmatite_rect,6,1.429,1,12,0,12,0,1,,,,,,,,,,,,,
65fdbe94add2e540de266373,SCR,2024-06-25_11h50.30.335,LearnStrategy,2023.2.3,Win32,4.285959198,6,1,14,-0.519444444,-0.123148148,1,0,0,3.001,Gabbro_09,4,09,3,1,3.001,4,09,0.344444444,-0.241666667,1,0,0,1.284,Gabbro_rect,4,1.284,1,13,0,13,0,1,,,,,,,,,,,,,
65fdbe94add2e540de266373,SCR,2024-06-25_11h50.30.335,LearnStrategy,2023.2.3,Win32,4.285959198,6,1,15,0.223148148,0.24537037,1,0,0,1.099,Peridotite_10,7,10,5,6,1.099,7,10,0.361111111,-0.259259259,1,0,0,1.417,Gabbro_rect,4,1.417,0,14,0,14,0,1,,,,,,,,,,,,,
65fdbe94add2e540de266373,SCR,2024-06-25_11h50.30.335,LearnStrategy,2023.2.3,Win32,4.285959198,6,1,16,-0.550925926,-0.260185185,1,0,0,1.082,Andesite_03,1,03,2,1,1.082,1,03,-0.427777778,-0.249074074,1,0,0,0.734,Andesite_rect,1,0.734,1,15,0,15,0,1,,,,,,,,,,,,,
65fdbe94add2e540de266373,SCR,2024-06-25_11h50.30.335,LearnStrategy,2023.2.3,Win32,4.285959198,6,2,1,,,,,,,,1,06,,,,,,,,,,,,,1,14.297,1,,,,,,-0.392592593,-0.248148148,1,0,0,14.297,Andesite_rect,0,0,0,0,1,
65fdbe94add2e540de266373,SCR,2024-06-25_11h50.30.335,LearnStrategy,2023.2.3,Win32,4.285959198,6,2,2,,,,,,,,5,11,,,,,,,,,,,,,5,2.924,1,,,,,,-0.423148148,-0.389814815,1,0,0,2.924,Obsidian_rect,1,0,1,0,1,
65fdbe94add2e540de266373,SCR,2024-06-25_11h50.30.335,LearnStrategy,2023.2.3,Win32,4.285959198,6,2,3,,,,,,,,4,03,,,,,,,,,,,,,2,2.073,0,,,,,,-0.137037037,-0.249074074,1,0,0,2.073,Basalt_rect,2,0,2,0,1,
65fdbe94add2e540de266373,SCR,2024-06-25_11h50.30.335,LearnStrategy,2023.2.3,Win32,4.285959198,6,2,4,,,,,,,,2,08,,,,,,,,,,,,,2,3.374,1,,,,,,-0.119444444,-0.244444444,1,0,0,3.374,Basalt_rect,3,0,3,0,1,
65fdbe94add2e540de266373,SCR,2024-06-25_11h50.30.335,LearnStrategy,2023.2.3,Win32,4.285959198,6,2,5,,,,,,,,2,06,,,,,,,,,,,,,1,2.458,0,,,,,,-0.417592593,-0.253703704,1,0,0,2.458,Andesite_rect,4,0,4,0,1,
65fdbe94add2e540de266373,SCR,2024-06-25_11h50.30.335,LearnStrategy,2023.2.3,Win32,4.285959198,6,2,6,,,,,,,,5,10,,,,,,,,,,,,,5,1.58,1,,,,,,-0.416666667,-0.400925926,1,0,0,1.58,Obsidian_rect,5,0,5,0,1,
65fdbe94add2e540de266373,SCR,2024-06-25_11h50.30.335,LearnStrategy,2023.2.3,Win32,4.285959198,6,2,7,,,,,,,,1,02,,,,,,,,,,,,,4,1.738,0,,,,,,0.327777778,-0.266666667,1,0,0,1.738,Gabbro_rect,6,0,6,0,1,
65fdbe94add2e540de266373,SCR,2024-06-25_11h50.30.335,LearnStrategy,2023.2.3,Win32,4.285959198,6,2,8,,,,,,,,7,08,,,,,,,,,,,,,4,1.418,0,,,,,,0.387962963,-0.24537037,1,0,0,1.418,Gabbro_rect,7,0,7,0,1,
65fdbe94add2e540de266373,SCR,2024-06-25_11h50.30.335,LearnStrategy,2023.2.3,Win32,4.285959198,6,2,9,,,,,,,,3,02,,,,,,,,,,,,,7,1.064,0,,,,,,0.137037037,-0.401851852,1,0,0,1.064,Peridotite_rect,8,0,8,0,1,
65fdbe94add2e540de266373,SCR,2024-06-25_11h50.30.335,LearnStrategy,2023.2.3,Win32,4.285959198,6,2,10,,,,,,,,8,15,,,,,,,,,,,,,6,1.224,0,,,,,,-0.121296296,-0.385185185,1,0,0,1.224,Pegmatite_rect,9,0,9,0,1,
65fdbe94add2e540de266373,SCR,2024-06-25_11h50.30.335,LearnStrategy,2023.2.3,Win32,4.285959198,6,2,11,,,,,,,,6,09,,,,,,,,,,,,,6,2.489,1,,,,,,-0.108333333,-0.399074074,1,0,0,2.489,Pegmatite_rect,10,0,10,0,1,
65fdbe94add2e540de266373,SCR,2024-06-25_11h50.30.335,LearnStrategy,2023.2.3,Win32,4.285959198,6,2,12,,,,,,,,8,16,,,,,,,,,,,,,8,2.055,1,,,,,,0.343518519,-0.40462963,1,0,0,2.055,Pumice_rect,11,0,11,0,1,
65fdbe94add2e540de266373,SCR,2024-06-25_11h50.30.335,LearnStrategy,2023.2.3,Win32,4.285959198,6,2,13,,,,,,,,7,12,,,,,,,,,,,,,7,1.968,1,,,,,,0.117592593,-0.402777778,1,0,0,1.968,Peridotite_rect,12,0,12,0,1,
65fdbe94add2e540de266373,SCR,2024-06-25_11h50.30.335,LearnStrategy,2023.2.3,Win32,4.285959198,6,2,14,,,,,,,,6,15,,,,,,,,,,,,,6,2.87,1,,,,,,-0.139814815,-0.397222222,1,0,0,2.87,Pegmatite_rect,13,0,13,0,1,
65fdbe94add2e540de266373,SCR,2024-06-25_11h50.30.335,LearnStrategy,2023.2.3,Win32,4.285959198,6,2,15,,,,,,,,3,12,,,,,,,,,,,,,3,1.347,1,,,,,,0.169444444,-0.25,1,0,0,1.347,Diorite_rect,14,0,14,0,1,
65fdbe94add2e540de266373,SCR,2024-06-25_11h50.30.335,LearnStrategy,2023.2.3,Win32,4.285959198,6,2,16,,,,,,,,4,05,,,,,,,,,,,,,1,4.923,0,,,,,,-0.317592593,-0.268518519,1,0,0,4.923,Andesite_rect,15,0,15,0,1,
65fdbe94add2e540de266373,SCR,2024-06-25_11h50.30.335,LearnStrategy,2023.2.3,Win32,4.285959198,7,1,1,0.346296296,-0.240740741,1,0,0,2.181,Diorite_08,3,08,2,7,2.181,3,08,-0.100925926,-0.266666667,1,0,0,4.191,Basalt_rect,2,4.191,0,0,0,0,0,1,,,,,,,,,,,,,
65fdbe94add2e540de266373,SCR,2024-06-25_11h50.30.335,LearnStrategy,2023.2.3,Win32,4.285959198,7,1,2,0.366666667,0.398148148,1,0,0,2.48,Pumice_02,8,02,6,7,2.48,8,02,0.161111111,-0.403703704,1,0,0,2.402,Peridotite_rect,7,2.402,0,1,0,1,0,1,,,,,,,,,,,,,
65fdbe94add2e540de266373,SCR,2024-06-25_11h50.30.335,LearnStrategy,2023.2.3,Win32,4.285959198,7,1,3,0.243518519,-0.285185185,1,0,0,0.902,Gabbro_10,4,10,2,6,0.902,4,10,0.386111111,-0.243518519,1,0,0,1.29,Gabbro_rect,4,1.29,1,2,0,2,0,1,,,,,,,,,,,,,
65fdbe94add2e540de266373,SCR,2024-06-25_11h50.30.335,LearnStrategy,2023.2.3,Win32,4.285959198,7,1,4,-0.558333333,0.386111111,1,0,0,1.183,Andesite_01,1,01,6,1,1.183,1,01,-0.42962963,-0.243518519,1,0,0,2.911,Andesite_rect,1,2.911,1,3,0,3,0,1,,,,,,,,,,,,,
65fdbe94add2e540de266373,SCR,2024-06-25_11h50.30.335,LearnStrategy,2023.2.3,Win32,4.285959198,7,1,5,0.537037037,-0.093518519,1,0,0,1.077,Basalt_16,2,16,3,8,1.077,2,16,0.116666667,-0.248148148,1,0,0,3.212,Diorite_rect,3,3.212,0,4,0,4,0,1,,,,,,,,,,,,,
65fdbe94add2e540de266373,SCR,2024-06-25_11h50.30.335,LearnStrategy,2023.2.3,Win32,4.285959198,7,1,6,-0.225,0.219444444,1,0,0,0.943,Andesite_10,1,10,5,3,0.943,1,10,0.432407407,-0.417592593,1,0,0,1.97,Pumice_rect,8,1.97,0,5,0,5,0,1,,,,,,,,,,,,,
65fdbe94add2e540de266373,SCR,2024-06-25_11h50.30.335,LearnStrategy,2023.2.3,Win32,4.285959198,7,1,7,0.497222222,0.218518519,1,0,0,1.325,Diorite_16,3,16,5,8,1.325,3,16,0.127777778,-0.237037037,1,0,0,1.858,Diorite_rect,3,1.858,1,6,0,6,0,1,,,,,,,,,,,,,
65fdbe94add2e540de266373,SCR,2024-06-25_11h50.30.335,LearnStrategy,2023.2.3,Win32,4.285959198,7,1,8,0.373148148,0.242592593,1,0,0,1.18,Diorite_13,3,13,5,7,1.18,3,13,-0.126851852,-0.399074074,1,0,0,1.958,Pegmatite_rect,6,1.958,0,7,0,7,0,1,,,,,,,,,,,,,
65fdbe94add2e540de266373,SCR,2024-06-25_11h50.30.335,LearnStrategy,2023.2.3,Win32,4.285959198,7,1,9,-0.252777778,-0.432407407,1,0,0,1.092,Peridotite_14,7,14,1,3,1.092,7,14,0.075,-0.39537037,1,0,0,1.838,Peridotite_rect,7,1.838,1,8,0,8,0,1,,,,,,,,,,,,,
65fdbe94add2e540de266373,SCR,2024-06-25_11h50.30.335,LearnStrategy,2023.2.3,Win32,4.285959198,7,1,10,0.569444444,0.394444444,1,0,0,1.077,Gabbro_12,4,12,6,8,1.077,4,12,-0.32962963,-0.249074074,1,0,0,1.386,Andesite_rect,1,1.386,0,9,0,9,0,1,,,,,,,,,,,,,
65fdbe94add2e540de266373,SCR,2024-06-25_11h50.30.335,LearnStrategy,2023.2.3,Win32,4.285959198,7,1,11,0.255555556,-0.105555556,1,0,0,1.159,Andesite_09,1,09,3,6,1.159,1,09,0.112962963,-0.25462963,1,0,0,2.748,Diorite_rect,3,2.748,0,10,0,10,0,1,,,,,,,,,,,,,
65fdbe94add2e540de266373,SCR,2024-06-25_11h50.30.335,LearnStrategy,2023.2.3,Win32,4.285959198,7,1,12,0.434259259,-0.075,1,0,0,0.973,Gabbro_01,4,01,3,7,0.973,4,01,0.415740741,-0.248148148,1,0,0,0.886,Gabbro_rect,4,0.886,1,11,0,11,0,1,,,,,,,,,,,,,
65fdbe94add2e540de266373,SCR,2024-06-25_11h50.30.335,LearnStrategy,2023.2.3,Win32,4.285959198,7,1,13,-0.216666667,-0.24537037,1,0,0,0.918,Basalt_04,2,04,2,3,0.918,2,04,-0.090740741,-0.247222222,1,0,0,2.539,Basalt_rect,2,2.539,1,12,0,12,0,1,,,,,,,,,,,,,
65fdbe94add2e540de266373,SCR,2024-06-25_11h50.30.335,LearnStrategy,2023.2.3,Win32,4.285959198,7,1,14,-0.367592593,0.256481481,1,0,0,1.078,Pegmatite_05,6,05,5,2,1.078,6,05,-0.15,-0.386111111,1,0,0,1.674,Pegmatite_rect,6,1.674,1,13,0,13,0,1,,,,,,,,,,,,,
65fdbe94add2e540de266373,SCR,2024-06-25_11h50.30.335,LearnStrategy,2023.2.3,Win32,4.285959198,7,1,15,-0.410185185,-0.384259259,1,0,0,2.16,Peridotite_05,7,05,1,2,2.16,7,05,0.160185185,-0.413888889,1,0,0,1.959,Peridotite_rect,7,1.959,1,14,0,14,0,1,,,,,,,,,,,,,
65fdbe94add2e540de266373,SCR,2024-06-25_11h50.30.335,LearnStrategy,2023.2.3,Win32,4.285959198,7,1,16,-0.066666667,-0.105555556,1,0,0,1.17,Pumice_13,8,13,3,4,1.17,8,13,0.408333333,-0.401851852,1,0,0,1.712,Pumice_rect,8,1.712,1,15,0,15,0,1,,,,,,,,,,,,,
65fdbe94add2e540de266373,SCR,2024-06-25_11h50.30.335,LearnStrategy,2023.2.3,Win32,4.285959198,7,2,1,,,,,,,,6,16,,,,,,,,,,,,,6,1.87,1,,,,,,-0.15,-0.401851852,1,0,0,1.87,Pegmatite_rect,0,0,0,0,1,
65fdbe94add2e540de266373,SCR,2024-06-25_11h50.30.335,LearnStrategy,2023.2.3,Win32,4.285959198,7,2,2,,,,,,,,6,15,,,,,,,,,,,,,6,1.361,1,,,,,,-0.112037037,-0.380555556,1,0,0,1.361,Pegmatite_rect,1,0,1,0,1,
65fdbe94add2e540de266373,SCR,2024-06-25_11h50.30.335,LearnStrategy,2023.2.3,Win32,4.285959198,7,2,3,,,,,,,,8,10,,,,,,,,,,,,,8,1.741,1,,,,,,0.408333333,-0.397222222,1,0,0,1.741,Pumice_rect,2,0,2,0,1,
65fdbe94add2e540de266373,SCR,2024-06-25_11h50.30.335,LearnStrategy,2023.2.3,Win32,4.285959198,7,2,4,,,,,,,,2,10,,,,,,,,,,,,,2,2.88,1,,,,,,-0.115740741,-0.247222222,1,0,0,2.88,Basalt_rect,3,0,3,0,1,
65fdbe94add2e540de266373,SCR,2024-06-25_11h50.30.335,LearnStrategy,2023.2.3,Win32,4.285959198,7,2,5,,,,,,,,3,09,,,,,,,,,,,,,1,1.539,0,,,,,,-0.352777778,-0.247222222,1,0,0,1.539,Andesite_rect,4,0,4,0,1,
65fdbe94add2e540de266373,SCR,2024-06-25_11h50.30.335,LearnStrategy,2023.2.3,Win32,4.285959198,7,2,6,,,,,,,,5,08,,,,,,,,,,,,,5,1.339,1,,,,,,-0.369444444,-0.407407407,1,0,0,1.339,Obsidian_rect,5,0,5,0,1,
65fdbe94add2e540de266373,SCR,2024-06-25_11h50.30.335,LearnStrategy,2023.2.3,Win32,4.285959198,7,2,7,,,,,,,,1,06,,,,,,,,,,,,,3,3.393,0,,,,,,0.088888889,-0.258333333,1,0,0,3.393,Diorite_rect,6,0,6,0,1,
65fdbe94add2e540de266373,SCR,2024-06-25_11h50.30.335,LearnStrategy,2023.2.3,Win32,4.285959198,7,2,8,,,,,,,,3,06,,,,,,,,,,,,,7,2.877,0,,,,,,0.132407407,-0.405555556,1,0,0,2.877,Peridotite_rect,7,0,7,0,1,
65fdbe94add2e540de266373,SCR,2024-06-25_11h50.30.335,LearnStrategy,2023.2.3,Win32,4.285959198,7,2,9,,,,,,,,5,10,,,,,,,,,,,,,5,1.268,1,,,,,,-0.334259259,-0.40462963,1,0,0,1.268,Obsidian_rect,8,0,8,0,1,
65fdbe94add2e540de266373,SCR,2024-06-25_11h50.30.335,LearnStrategy,2023.2.3,Win32,4.285959198,7,2,10,,,,,,,,1,14,,,,,,,,,,,,,1,1.771,1,,,,,,-0.333333333,-0.239814815,1,0,0,1.771,Andesite_rect,9,0,9,0,1,
65fdbe94add2e540de266373,SCR,2024-06-25_11h50.30.335,LearnStrategy,2023.2.3,Win32,4.285959198,7,2,11,,,,,,,,4,05,,,,,,,,,,,,,7,3.845,0,,,,,,0.194444444,-0.40462963,1,0,0,3.845,Peridotite_rect,10,0,10,0,1,
65fdbe94add2e540de266373,SCR,2024-06-25_11h50.30.335,LearnStrategy,2023.2.3,Win32,4.285959198,7,2,12,,,,,,,,7,16,,,,,,,,,,,,,4,2.884,0,,,,,,0.39537037,-0.251851852,1,0,0,2.884,Gabbro_rect,11,0,11,0,1,
65fdbe94add2e540de266373,SCR,2024-06-25_11h50.30.335,LearnStrategy,2023.2.3,Win32,4.285959198,7,2,13,,,,,,,,7,06,,,,,,,,,,,,,2,2.87,0,,,,,,-0.087037037,-0.262037037,1,0,0,2.87,Basalt_rect,12,0,12,0,1,
65fdbe94add2e540de266373,SCR,2024-06-25_11h50.30.335,LearnStrategy,2023.2.3,Win32,4.285959198,7,2,14,,,,,,,,8,04,,,,,,,,,,,,,8,1.334,1,,,,,,0.363888889,-0.402777778,1,0,0,1.334,Pumice_rect,13,0,13,0,1,
65fdbe94add2e540de266373,SCR,2024-06-25_11h50.30.335,LearnStrategy,2023.2.3,Win32,4.285959198,7,2,15,,,,,,,,2,11,,,,,,,,,,,,,1,2.377,0,,,,,,-0.430555556,-0.25462963,1,0,0,2.377,Andesite_rect,14,0,14,0,1,
65fdbe94add2e540de266373,SCR,2024-06-25_11h50.30.335,LearnStrategy,2023.2.3,Win32,4.285959198,7,2,16,,,,,,,,4,15,,,,,,,,,,,,,4,3.891,1,,,,,,0.325,-0.249074074,1,0,0,3.891,Gabbro_rect,15,0,15,0,1,
65fdbe94add2e540de266373,SCR,2024-06-25_11h50.30.335,LearnStrategy,2023.2.3,Win32,4.285959198,8,1,1,0.562962963,0.356481481,1,0,0,1.407,Gabbro_12,4,12,6,8,1.407,4,12,0.348148148,-0.231481481,1,0,0,2.392,Gabbro_rect,4,2.392,1,0,0,0,0,1,,,,,,,,,,,,,
65fdbe94add2e540de266373,SCR,2024-06-25_11h50.30.335,LearnStrategy,2023.2.3,Win32,4.285959198,8,1,2,0.371296296,0.263888889,1,0,0,2.127,Diorite_13,3,13,5,7,2.127,3,13,0.374074074,-0.258333333,1,0,0,1.246,Gabbro_rect,4,1.246,0,1,0,1,0,1,,,,,,,,,,,,,
65fdbe94add2e540de266373,SCR,2024-06-25_11h50.30.335,LearnStrategy,2023.2.3,Win32,4.285959198,8,1,3,-0.574074074,-0.099074074,1,0,0,3.135,Gabbro_09,4,09,3,1,3.135,4,09,0.358333333,-0.25,1,0,0,1.494,Gabbro_rect,4,1.494,1,2,0,2,0,1,,,,,,,,,,,,,
65fdbe94add2e540de266373,SCR,2024-06-25_11h50.30.335,LearnStrategy,2023.2.3,Win32,4.285959198,8,1,4,0.201851852,-0.413888889,1,0,0,1.078,Pegmatite_13,6,13,1,6,1.078,6,13,-0.188888889,-0.410185185,1,0,0,1.729,Pegmatite_rect,6,1.729,1,3,0,3,0,1,,,,,,,,,,,,,
65fdbe94add2e540de266373,SCR,2024-06-25_11h50.30.335,LearnStrategy,2023.2.3,Win32,4.285959198,8,1,5,0.421296296,-0.410185185,1,0,0,1.09,Peridotite_04,7,04,1,7,1.09,7,04,0.163888889,-0.405555556,1,0,0,1.28,Peridotite_rect,7,1.28,1,4,0,4,0,1,,,,,,,,,,,,,
65fdbe94add2e540de266373,SCR,2024-06-25_11h50.30.335,LearnStrategy,2023.2.3,Win32,4.285959198,8,1,6,0.383333333,0.453703704,1,0,0,1.276,Pumice_02,8,02,6,7,1.276,8,02,0.376851852,-0.416666667,1,0,0,1.223,Pumice_rect,8,1.223,1,5,0,5,0,1,,,,,,,,,,,,,
65fdbe94add2e540de266373,SCR,2024-06-25_11h50.30.335,LearnStrategy,2023.2.3,Win32,4.285959198,8,1,7,-0.216666667,0.280555556,1,0,0,1.2,Andesite_10,1,10,5,3,1.2,1,10,0.359259259,-0.396296296,1,0,0,3.886,Pumice_rect,8,3.886,0,6,0,6,0,1,,,,,,,,,,,,,
65fdbe94add2e540de266373,SCR,2024-06-25_11h50.30.335,LearnStrategy,2023.2.3,Win32,4.285959198,8,1,8,0.214814815,-0.090740741,1,0,0,0.964,Andesite_09,1,09,3,6,0.964,1,09,-0.327777778,-0.248148148,1,0,0,1.272,Andesite_rect,1,1.272,1,7,0,7,0,1,,,,,,,,,,,,,
65fdbe94add2e540de266373,SCR,2024-06-25_11h50.30.335,LearnStrategy,2023.2.3,Win32,4.285959198,8,1,9,0.343518519,-0.088888889,1,0,0,1.012,Gabbro_01,4,01,3,7,1.012,4,01,0.464814815,-0.249074074,1,0,0,0.739,Gabbro_rect,4,0.739,1,8,0,8,0,1,,,,,,,,,,,,,
65fdbe94add2e540de266373,SCR,2024-06-25_11h50.30.335,LearnStrategy,2023.2.3,Win32,4.285959198,8,1,10,-0.225925926,-0.424074074,1,0,0,1.004,Peridotite_14,7,14,1,3,1.004,7,14,-0.111111111,-0.408333333,1,0,0,3.881,Pegmatite_rect,6,3.881,0,9,0,9,0,1,,,,,,,,,,,,,
65fdbe94add2e540de266373,SCR,2024-06-25_11h50.30.335,LearnStrategy,2023.2.3,Win32,4.285959198,8,1,11,-0.284259259,-0.278703704,1,0,0,0.932,Basalt_04,2,04,2,3,0.932,2,04,-0.137962963,-0.249074074,1,0,0,1.079,Basalt_rect,2,1.079,1,10,0,10,0,1,,,,,,,,,,,,,
65fdbe94add2e540de266373,SCR,2024-06-25_11h50.30.335,LearnStrategy,2023.2.3,Win32,4.285959198,8,1,12,0.062962963,0.357407407,1,0,0,1.427,Diorite_11,3,11,6,5,1.427,3,11,-0.402777778,-0.261111111,1,0,0,1.518,Andesite_rect,1,1.518,0,11,0,11,0,1,,,,,,,,,,,,,
65fdbe94add2e540de266373,SCR,2024-06-25_11h50.30.335,LearnStrategy,2023.2.3,Win32,4.285959198,8,1,13,0.049074074,-0.073148148,1,0,0,0.822,Basalt_09,2,09,3,5,0.822,2,09,-0.126851852,-0.243518519,1,0,0,1.076,Basalt_rect,2,1.076,1,12,0,12,0,1,,,,,,,,,,,,,
65fdbe94add2e540de266373,SCR,2024-06-25_11h50.30.335,LearnStrategy,2023.2.3,Win32,4.285959198,8,1,14,-0.363888889,-0.403703704,1,0,0,1.148,Peridotite_05,7,05,1,2,1.148,7,05,0.164814815,-0.417592593,1,0,0,1.874,Peridotite_rect,7,1.874,1,13,0,13,0,1,,,,,,,,,,,,,
65fdbe94add2e540de266373,SCR,2024-06-25_11h50.30.335,LearnStrategy,2023.2.3,Win32,4.285959198,8,1,15,-0.359259259,-0.239814815,1,0,0,0.986,Pumice_06,8,06,2,2,0.986,8,06,0.376851852,-0.407407407,1,0,0,2.154,Pumice_rect,8,2.154,1,14,0,14,0,1,,,,,,,,,,,,,
65fdbe94add2e540de266373,SCR,2024-06-25_11h50.30.335,LearnStrategy,2023.2.3,Win32,4.285959198,8,1,16,0.087037037,0.419444444,1,0,0,1.141,Diorite_11,3,11,6,5,1.141,3,11,0.121296296,-0.236111111,1,0,0,1.905,Diorite_rect,3,1.905,1,15,0,15,0,1,,,,,,,,,,,,,
65fdbe94add2e540de266373,SCR,2024-06-25_11h50.30.335,LearnStrategy,2023.2.3,Win32,4.285959198,8,2,1,,,,,,,,4,13,,,,,,,,,,,,,3,1.946,0,,,,,,0.096296296,-0.265740741,1,0,0,1.946,Diorite_rect,0,0,0,0,1,
65fdbe94add2e540de266373,SCR,2024-06-25_11h50.30.335,LearnStrategy,2023.2.3,Win32,4.285959198,8,2,2,,,,,,,,5,11,,,,,,,,,,,,,5,1.219,1,,,,,,-0.368518519,-0.4,1,0,0,1.219,Obsidian_rect,1,0,1,0,1,
65fdbe94add2e540de266373,SCR,2024-06-25_11h50.30.335,LearnStrategy,2023.2.3,Win32,4.285959198,8,2,3,,,,,,,,1,02,,,,,,,,,,,,,6,3.748,0,,,,,,-0.069444444,-0.409259259,1,0,0,3.748,Pegmatite_rect,2,0,2,0,1,
65fdbe94add2e540de266373,SCR,2024-06-25_11h50.30.335,LearnStrategy,2023.2.3,Win32,4.285959198,8,2,4,,,,,,,,3,07,,,,,,,,,,,,,6,1.871,0,,,,,,-0.10462963,-0.416666667,1,0,0,1.871,Pegmatite_rect,3,0,3,0,1,
65fdbe94add2e540de266373,SCR,2024-06-25_11h50.30.335,LearnStrategy,2023.2.3,Win32,4.285959198,8,2,5,,,,,,,,2,06,,,,,,,,,,,,,2,1.317,1,,,,,,-0.037037037,-0.263888889,1,0,0,1.317,Basalt_rect,4,0,4,0,1,
65fdbe94add2e540de266373,SCR,2024-06-25_11h50.30.335,LearnStrategy,2023.2.3,Win32,4.285959198,8,2,6,,,,,,,,2,01,,,,,,,,,,,,,2,1.706,1,,,,,,-0.057407407,-0.267592593,1,0,0,1.706,Basalt_rect,5,0,5,0,1,
65fdbe94add2e540de266373,SCR,2024-06-25_11h50.30.335,LearnStrategy,2023.2.3,Win32,4.285959198,8,2,7,,,,,,,,3,12,,,,,,,,,,,,,7,1.56,0,,,,,,0.162037037,-0.407407407,1,0,0,1.56,Peridotite_rect,6,0,6,0,1,
65fdbe94add2e540de266373,SCR,2024-06-25_11h50.30.335,LearnStrategy,2023.2.3,Win32,4.285959198,8,2,8,,,,,,,,7,08,,,,,,,,,,,,,7,2.624,1,,,,,,0.148148148,-0.394444444,1,0,0,2.624,Peridotite_rect,7,0,7,0,1,
65fdbe94add2e540de266373,SCR,2024-06-25_11h50.30.335,LearnStrategy,2023.2.3,Win32,4.285959198,8,2,9,,,,,,,,8,05,,,,,,,,,,,,,8,2.229,1,,,,,,0.327777778,-0.397222222,1,0,0,2.229,Pumice_rect,8,0,8,0,1,
65fdbe94add2e540de266373,SCR,2024-06-25_11h50.30.335,LearnStrategy,2023.2.3,Win32,4.285959198,8,2,10,,,,,,,,6,03,,,,,,,,,,,,,6,1.5,1,,,,,,-0.114814815,-0.378703704,1,0,0,1.5,Pegmatite_rect,9,0,9,0,1,
65fdbe94add2e540de266373,SCR,2024-06-25_11h50.30.335,LearnStrategy,2023.2.3,Win32,4.285959198,8,2,11,,,,,,,,5,16,,,,,,,,,,,,,5,1.21,1,,,,,,-0.39537037,-0.401851852,1,0,0,1.21,Obsidian_rect,10,0,10,0,1,
65fdbe94add2e540de266373,SCR,2024-06-25_11h50.30.335,LearnStrategy,2023.2.3,Win32,4.285959198,8,2,12,,,,,,,,8,16,,,,,,,,,,,,,8,1.526,1,,,,,,0.382407407,-0.400925926,1,0,0,1.526,Pumice_rect,11,0,11,0,1,
65fdbe94add2e540de266373,SCR,2024-06-25_11h50.30.335,LearnStrategy,2023.2.3,Win32,4.285959198,8,2,13,,,,,,,,1,04,,,,,,,,,,,,,3,2.88,0,,,,,,0.178703704,-0.252777778,1,0,0,2.88,Diorite_rect,12,0,12,0,1,
65fdbe94add2e540de266373,SCR,2024-06-25_11h50.30.335,LearnStrategy,2023.2.3,Win32,4.285959198,8,2,14,,,,,,,,6,09,,,,,,,,,,,,,6,1.355,1,,,,,,-0.156481481,-0.390740741,1,0,0,1.355,Pegmatite_rect,13,0,13,0,1,
65fdbe94add2e540de266373,SCR,2024-06-25_11h50.30.335,LearnStrategy,2023.2.3,Win32,4.285959198,8,2,15,,,,,,,,7,12,,,,,,,,,,,,,6,2.831,0,,,,,,-0.136111111,-0.393518519,1,0,0,2.831,Pegmatite_rect,14,0,14,0,1,
65fdbe94add2e540de266373,SCR,2024-06-25_11h50.30.335,LearnStrategy,2023.2.3,Win32,4.285959198,8,2,16,,,,,,,,4,11,,,,,,,,,,,,,1,1.827,0,,,,,,-0.382407407,-0.25,1,0,0,1.827,Andesite_rect,15,0,15,0,1,
65fdbe94add2e540de266373,SCR,2024-06-25_11h50.30.335,LearnStrategy,2023.2.3,Win32,4.285959198,9,1,1,0.375,0.25,1,0,0,2.649,Diorite_13,3,13,5,7,2.649,3,13,-0.196296296,-0.406481481,1,0,0,2.847,Pegmatite_rect,6,2.847,0,0,0,0,0,1,,,,,,,,,,,,,
65fdbe94add2e540de266373,SCR,2024-06-25_11h50.30.335,LearnStrategy,2023.2.3,Win32,4.285959198,9,1,2,-0.347222222,-0.101851852,1,0,0,1.109,Basalt_05,2,05,3,2,1.109,2,05,-0.319444444,-0.263888889,1,0,0,4.117,Andesite_rect,1,4.117,0,1,0,1,0,1,,,,,,,,,,,,,
65fdbe94add2e540de266373,SCR,2024-06-25_11h50.30.335,LearnStrategy,2023.2.3,Win32,4.285959198,9,1,3,-0.214814815,0.222222222,1,0,0,0.988,Andesite_10,1,10,5,3,0.988,1,10,0.415740741,-0.400925926,1,0,0,1.43,Pumice_rect,8,1.43,0,2,0,2,0,1,,,,,,,,,,,,,
65fdbe94add2e540de266373,SCR,2024-06-25_11h50.30.335,LearnStrategy,2023.2.3,Win32,4.285959198,9,1,4,0.059259259,-0.428703704,1,0,0,0.991,Diorite_10,3,10,1,5,0.991,3,10,0.064814815,-0.258333333,1,0,0,1.421,Diorite_rect,3,1.421,1,3,0,3,0,1,,,,,,,,,,,,,
65fdbe94add2e540de266373,SCR,2024-06-25_11h50.30.335,LearnStrategy,2023.2.3,Win32,4.285959198,9,1,5,0.064814815,0.200925926,1,0,0,0.893,Gabbro_14,4,14,5,5,0.893,4,14,0.114814815,-0.264814815,1,0,0,1.116,Diorite_rect,3,1.116,0,4,0,4,0,1,,,,,,,,,,,,,
65fdbe94add2e540de266373,SCR,2024-06-25_11h50.30.335,LearnStrategy,2023.2.3,Win32,4.285959198,9,1,6,-0.525,-0.114814815,1,0,0,1.161,Gabbro_09,4,09,3,1,1.161,4,09,0.310185185,-0.264814815,1,0,0,1.296,Gabbro_rect,4,1.296,1,5,0,5,0,1,,,,,,,,,,,,,
65fdbe94add2e540de266373,SCR,2024-06-25_11h50.30.335,LearnStrategy,2023.2.3,Win32,4.285959198,9,1,7,-0.211111111,-0.393518519,1,0,0,1.012,Peridotite_14,7,14,1,3,1.012,7,14,0.101851852,-0.4,1,0,0,1.382,Peridotite_rect,7,1.382,1,6,0,6,0,1,,,,,,,,,,,,,
65fdbe94add2e540de266373,SCR,2024-06-25_11h50.30.335,LearnStrategy,2023.2.3,Win32,4.285959198,9,1,8,0.223148148,0.290740741,1,0,0,1.232,Peridotite_10,7,10,5,6,1.232,7,10,0.172222222,-0.387037037,1,0,0,2.248,Peridotite_rect,7,2.248,1,7,0,7,0,1,,,,,,,,,,,,,
65fdbe94add2e540de266373,SCR,2024-06-25_11h50.30.335,LearnStrategy,2023.2.3,Win32,4.285959198,9,1,9,0.40462963,0.100925926,1,0,0,0.941,Andesite_07,1,07,4,7,0.941,1,07,-0.357407407,-0.25,1,0,0,1.46,Andesite_rect,1,1.46,1,8,0,8,0,1,,,,,,,,,,,,,
65fdbe94add2e540de266373,SCR,2024-06-25_11h50.30.335,LearnStrategy,2023.2.3,Win32,4.285959198,9,1,10,-0.208333333,-0.233333333,1,0,0,0.898,Basalt_04,2,04,2,3,0.898,2,04,-0.136111111,-0.262037037,1,0,0,2.039,Basalt_rect,2,2.039,1,9,0,9,0,1,,,,,,,,,,,,,
65fdbe94add2e540de266373,SCR,2024-06-25_11h50.30.335,LearnStrategy,2023.2.3,Win32,4.285959198,9,1,11,-0.077777778,-0.271296296,1,0,0,1,Pumice_03,8,03,2,4,1,8,03,0.398148148,-0.411111111,1,0,0,1.829,Pumice_rect,8,1.829,1,10,0,10,0,1,,,,,,,,,,,,,
65fdbe94add2e540de266373,SCR,2024-06-25_11h50.30.335,LearnStrategy,2023.2.3,Win32,4.285959198,9,1,12,-0.518518519,0.05,1,0,0,1.12,Andesite_11,1,11,4,1,1.12,1,11,0.1,-0.262962963,1,0,0,2.007,Diorite_rect,3,2.007,0,11,0,11,0,1,,,,,,,,,,,,,
65fdbe94add2e540de266373,SCR,2024-06-25_11h50.30.335,LearnStrategy,2023.2.3,Win32,4.285959198,9,1,13,0.215740741,-0.400925926,1,0,0,1.173,Pegmatite_13,6,13,1,6,1.173,6,13,-0.166666667,-0.411111111,1,0,0,1.263,Pegmatite_rect,6,1.263,1,12,0,12,0,1,,,,,,,,,,,,,
65fdbe94add2e540de266373,SCR,2024-06-25_11h50.30.335,LearnStrategy,2023.2.3,Win32,4.285959198,9,1,14,0.080555556,-0.392592593,1,0,0,1.005,Diorite_10,3,10,1,5,1.005,3,10,0.080555556,-0.392592593,1,0,0,1.694,Peridotite_rect,7,1.694,0,13,0,13,0,1,,,,,,,,,,,,,
65fdbe94add2e540de266373,SCR,2024-06-25_11h50.30.335,LearnStrategy,2023.2.3,Win32,4.285959198,9,1,15,-0.542592593,-0.105555556,1,0,0,1.116,Gabbro_09,4,09,3,1,1.116,4,09,0.387962963,-0.260185185,1,0,0,1.1,Gabbro_rect,4,1.1,1,14,0,14,0,1,,,,,,,,,,,,,
65fdbe94add2e540de266373,SCR,2024-06-25_11h50.30.335,LearnStrategy,2023.2.3,Win32,4.285959198,9,1,16,-0.20462963,-0.398148148,1,0,0,1.204,Peridotite_14,7,14,1,3,1.204,7,14,0.128703704,-0.412962963,1,0,0,1.05,Peridotite_rect,7,1.05,1,15,0,15,0,1,,,,,,,,,,,,,
65fdbe94add2e540de266373,SCR,2024-06-25_11h50.30.335,LearnStrategy,2023.2.3,Win32,4.285959198,9,2,1,,,,,,,,6,12,,,,,,,,,,,,,6,5.486,1,,,,,,-0.17962963,-0.407407407,1,0,0,5.486,Pegmatite_rect,0,0,0,0,1,
65fdbe94add2e540de266373,SCR,2024-06-25_11h50.30.335,LearnStrategy,2023.2.3,Win32,4.285959198,9,2,2,,,,,,,,8,15,,,,,,,,,,,,,8,1.717,1,,,,,,0.409259259,-0.405555556,1,0,0,1.717,Pumice_rect,1,0,1,0,1,
65fdbe94add2e540de266373,SCR,2024-06-25_11h50.30.335,LearnStrategy,2023.2.3,Win32,4.285959198,9,2,3,,,,,,,,1,05,,,,,,,,,,,,,1,2.35,1,,,,,,-0.347222222,-0.262037037,1,0,0,2.35,Andesite_rect,2,0,2,0,1,
65fdbe94add2e540de266373,SCR,2024-06-25_11h50.30.335,LearnStrategy,2023.2.3,Win32,4.285959198,9,2,4,,,,,,,,3,14,,,,,,,,,,,,,2,1.624,0,,,,,,-0.075925926,-0.242592593,1,0,0,1.624,Basalt_rect,3,0,3,0,1,
65fdbe94add2e540de266373,SCR,2024-06-25_11h50.30.335,LearnStrategy,2023.2.3,Win32,4.285959198,9,2,5,,,,,,,,4,08,,,,,,,,,,,,,3,1.963,0,,,,,,0.2,-0.255555556,1,0,0,1.963,Diorite_rect,4,0,4,0,1,
65fdbe94add2e540de266373,SCR,2024-06-25_11h50.30.335,LearnStrategy,2023.2.3,Win32,4.285959198,9,2,6,,,,,,,,5,14,,,,,,,,,,,,,5,1.279,1,,,,,,-0.434259259,-0.4,1,0,0,1.279,Obsidian_rect,5,0,5,0,1,
65fdbe94add2e540de266373,SCR,2024-06-25_11h50.30.335,LearnStrategy,2023.2.3,Win32,4.285959198,9,2,7,,,,,,,,2,14,,,,,,,,,,,,,6,1.81,0,,,,,,-0.173148148,-0.408333333,1,0,0,1.81,Pegmatite_rect,6,0,6,0,1,
65fdbe94add2e540de266373,SCR,2024-06-25_11h50.30.335,LearnStrategy,2023.2.3,Win32,4.285959198,9,2,8,,,,,,,,6,06,,,,,,,,,,,,,7,1.75,0,,,,,,0.042592593,-0.406481481,1,0,0,1.75,Peridotite_rect,7,0,7,0,1,
65fdbe94add2e540de266373,SCR,2024-06-25_11h50.30.335,LearnStrategy,2023.2.3,Win32,4.285959198,9,2,9,,,,,,,,4,03,,,,,,,,,,,,,3,2.386,0,,,,,,0.068518519,-0.265740741,1,0,0,2.386,Diorite_rect,8,0,8,0,1,
65fdbe94add2e540de266373,SCR,2024-06-25_11h50.30.335,LearnStrategy,2023.2.3,Win32,4.285959198,9,2,10,,,,,,,,2,08,,,,,,,,,,,,,2,2.012,1,,,,,,-0.087037037,-0.265740741,1,0,0,2.012,Basalt_rect,9,0,9,0,1,
65fdbe94add2e540de266373,SCR,2024-06-25_11h50.30.335,LearnStrategy,2023.2.3,Win32,4.285959198,9,2,11,,,,,,,,7,07,,,,,,,,,,,,,4,1.397,0,,,,,,0.381481481,-0.253703704,1,0,0,1.397,Gabbro_rect,10,0,10,0,1,
65fdbe94add2e540de266373,SCR,2024-06-25_11h50.30.335,LearnStrategy,2023.2.3,Win32,4.285959198,9,2,12,,,,,,,,3,02,,,,,,,,,,,,,1,1.53,0,,,,,,-0.342592593,-0.257407407,1,0,0,1.53,Andesite_rect,11,0,11,0,1,
65fdbe94add2e540de266373,SCR,2024-06-25_11h50.30.335,LearnStrategy,2023.2.3,Win32,4.285959198,9,2,13,,,,,,,,1,16,,,,,,,,,,,,,3,2.502,0,,,,,,0.113888889,-0.24537037,1,0,0,2.502,Diorite_rect,12,0,12,0,1,
65fdbe94add2e540de266373,SCR,2024-06-25_11h50.30.335,LearnStrategy,2023.2.3,Win32,4.285959198,9,2,14,,,,,,,,7,15,,,,,,,,,,,,,7,2.359,1,,,,,,0.125,-0.411111111,1,0,0,2.359,Peridotite_rect,13,0,13,0,1,
65fdbe94add2e540de266373,SCR,2024-06-25_11h50.30.335,LearnStrategy,2023.2.3,Win32,4.285959198,9,2,15,,,,,,,,8,08,,,,,,,,,,,,,8,1.27,1,,,,,,0.355555556,-0.415740741,1,0,0,1.27,Pumice_rect,14,0,14,0,1,
65fdbe94add2e540de266373,SCR,2024-06-25_11h50.30.335,LearnStrategy,2023.2.3,Win32,4.285959198,9,2,16,,,,,,,,5,12,,,,,,,,,,,,,5,1.318,1,,,,,,-0.423148148,-0.413888889,1,0,0,1.318,Obsidian_rect,15,0,15,0,1,
65fdbe94add2e540de266373,SCR,2024-06-25_11h50.30.335,LearnStrategy,2023.2.3,Win32,4.285959198,,,,,,,,,,,,,,,,,,,,,,,,,,,,,,,,,,,,,,,,,,,,,0
65fdbe94add2e540de266373,SCR,2024-06-25_11h50.30.335,LearnStrategy,2023.2.3,Win32,4.285959198,,,,,,,,,,,,,,,,,,,,,,,,,,,,,,,,,,,,,,,,,,,,,
65fdbe94add2e540de266373,SCR,2024-06-25_11h50.30.335,LearnStrategy,2023.2.3,Win32,4.285959198,,,,,,,,,,,5,05,1,1,,,,,,,,,,,,,,,,,,,,,,,,,,,,,,,
65fdbe94add2e540de266373,SCR,2024-06-25_11h50.30.335,LearnStrategy,2023.2.3,Win32,4.285959198,,,,,,,,,,,7,05,1,2,,,,,,,,,,,,,,,,,,,,,,,,,,,,,,,
65fdbe94add2e540de266373,SCR,2024-06-25_11h50.30.335,LearnStrategy,2023.2.3,Win32,4.285959198,,,,,,,,,,,7,14,1,3,,,,,,,,,,,,,,,,,,,,,,,,,,,,,,,
65fdbe94add2e540de266373,SCR,2024-06-25_11h50.30.335,LearnStrategy,2023.2.3,Win32,4.285959198,,,,,,,,,,,5,09,1,4,,,,,,,,,,,,,,,,,,,,,,,,,,,,,,,
65fdbe94add2e540de266373,SCR,2024-06-25_11h50.30.335,LearnStrategy,2023.2.3,Win32,4.285959198,,,,,,,,,,,3,10,1,5,,,,,,,,,,,,,,,,,,,,,,,,,,,,,,,
65fdbe94add2e540de266373,SCR,2024-06-25_11h50.30.335,LearnStrategy,2023.2.3,Win32,4.285959198,,,,,,,,,,,6,13,1,6,,,,,,,,,,,,,,,,,,,,,,,,,,,,,,,
65fdbe94add2e540de266373,SCR,2024-06-25_11h50.30.335,LearnStrategy,2023.2.3,Win32,4.285959198,,,,,,,,,,,7,04,1,7,,,,,,,,,,,,,,,,,,,,,,,,,,,,,,,
65fdbe94add2e540de266373,SCR,2024-06-25_11h50.30.335,LearnStrategy,2023.2.3,Win32,4.285959198,,,,,,,,,,,8,09,1,8,,,,,,,,,,,,,,,,,,,,,,,,,,,,,,,
65fdbe94add2e540de266373,SCR,2024-06-25_11h50.30.335,LearnStrategy,2023.2.3,Win32,4.285959198,,,,,,,,,,,1,03,2,1,,,,,,,,,,,,,,,,,,,,,,,,,,,,,,,
65fdbe94add2e540de266373,SCR,2024-06-25_11h50.30.335,LearnStrategy,2023.2.3,Win32,4.285959198,,,,,,,,,,,8,06,2,2,,,,,,,,,,,,,,,,,,,,,,,,,,,,,,,
65fdbe94add2e540de266373,SCR,2024-06-25_11h50.30.335,LearnStrategy,2023.2.3,Win32,4.285959198,,,,,,,,,,,2,04,2,3,,,,,,,,,,,,,,,,,,,,,,,,,,,,,,,
65fdbe94add2e540de266373,SCR,2024-06-25_11h50.30.335,LearnStrategy,2023.2.3,Win32,4.285959198,,,,,,,,,,,8,03,2,4,,,,,,,,,,,,,,,,,,,,,,,,,,,,,,,
65fdbe94add2e540de266373,SCR,2024-06-25_11h50.30.335,LearnStrategy,2023.2.3,Win32,4.285959198,,,,,,,,,,,2,02,2,5,,,,,,,,,,,,,,,,,,,,,,,,,,,,,,,
65fdbe94add2e540de266373,SCR,2024-06-25_11h50.30.335,LearnStrategy,2023.2.3,Win32,4.285959198,,,,,,,,,,,4,10,2,6,,,,,,,,,,,,,,,,,,,,,,,,,,,,,,,
65fdbe94add2e540de266373,SCR,2024-06-25_11h50.30.335,LearnStrategy,2023.2.3,Win32,4.285959198,,,,,,,,,,,3,08,2,7,,,,,,,,,,,,,,,,,,,,,,,,,,,,,,,
65fdbe94add2e540de266373,SCR,2024-06-25_11h50.30.335,LearnStrategy,2023.2.3,Win32,4.285959198,,,,,,,,,,,7,02,2,8,,,,,,,,,,,,,,,,,,,,,,,,,,,,,,,
65fdbe94add2e540de266373,SCR,2024-06-25_11h50.30.335,LearnStrategy,2023.2.3,Win32,4.285959198,,,,,,,,,,,4,09,3,1,,,,,,,,,,,,,,,,,,,,,,,,,,,,,,,
65fdbe94add2e540de266373,SCR,2024-06-25_11h50.30.335,LearnStrategy,2023.2.3,Win32,4.285959198,,,,,,,,,,,2,05,3,2,,,,,,,,,,,,,,,,,,,,,,,,,,,,,,,
65fdbe94add2e540de266373,SCR,2024-06-25_11h50.30.335,LearnStrategy,2023.2.3,Win32,4.285959198,,,,,,,,,,,6,11,3,3,,,,,,,,,,,,,,,,,,,,,,,,,,,,,,,
65fdbe94add2e540de266373,SCR,2024-06-25_11h50.30.335,LearnStrategy,2023.2.3,Win32,4.285959198,,,,,,,,,,,8,13,3,4,,,,,,,,,,,,,,,,,,,,,,,,,,,,,,,
65fdbe94add2e540de266373,SCR,2024-06-25_11h50.30.335,LearnStrategy,2023.2.3,Win32,4.285959198,,,,,,,,,,,2,09,3,5,,,,,,,,,,,,,,,,,,,,,,,,,,,,,,,
65fdbe94add2e540de266373,SCR,2024-06-25_11h50.30.335,LearnStrategy,2023.2.3,Win32,4.285959198,,,,,,,,,,,1,09,3,6,,,,,,,,,,,,,,,,,,,,,,,,,,,,,,,
65fdbe94add2e540de266373,SCR,2024-06-25_11h50.30.335,LearnStrategy,2023.2.3,Win32,4.285959198,,,,,,,,,,,4,01,3,7,,,,,,,,,,,,,,,,,,,,,,,,,,,,,,,
65fdbe94add2e540de266373,SCR,2024-06-25_11h50.30.335,LearnStrategy,2023.2.3,Win32,4.285959198,,,,,,,,,,,2,16,3,8,,,,,,,,,,,,,,,,,,,,,,,,,,,,,,,
65fdbe94add2e540de266373,SCR,2024-06-25_11h50.30.335,LearnStrategy,2023.2.3,Win32,4.285959198,,,,,,,,,,,1,11,4,1,,,,,,,,,,,,,,,,,,,,,,,,,,,,,,,
65fdbe94add2e540de266373,SCR,2024-06-25_11h50.30.335,LearnStrategy,2023.2.3,Win32,4.285959198,,,,,,,,,,,8,14,4,2,,,,,,,,,,,,,,,,,,,,,,,,,,,,,,,
65fdbe94add2e540de266373,SCR,2024-06-25_11h50.30.335,LearnStrategy,2023.2.3,Win32,4.285959198,,,,,,,,,,,7,13,4,3,,,,,,,,,,,,,,,,,,,,,,,,,,,,,,,
65fdbe94add2e540de266373,SCR,2024-06-25_11h50.30.335,LearnStrategy,2023.2.3,Win32,4.285959198,,,,,,,,,,,4,16,4,4,,,,,,,,,,,,,,,,,,,,,,,,,,,,,,,
65fdbe94add2e540de266373,SCR,2024-06-25_11h50.30.335,LearnStrategy,2023.2.3,Win32,4.285959198,,,,,,,,,,,6,10,4,5,,,,,,,,,,,,,,,,,,,,,,,,,,,,,,,
65fdbe94add2e540de266373,SCR,2024-06-25_11h50.30.335,LearnStrategy,2023.2.3,Win32,4.285959198,,,,,,,,,,,5,02,4,6,,,,,,,,,,,,,,,,,,,,,,,,,,,,,,,
65fdbe94add2e540de266373,SCR,2024-06-25_11h50.30.335,LearnStrategy,2023.2.3,Win32,4.285959198,,,,,,,,,,,1,07,4,7,,,,,,,,,,,,,,,,,,,,,,,,,,,,,,,
65fdbe94add2e540de266373,SCR,2024-06-25_11h50.30.335,LearnStrategy,2023.2.3,Win32,4.285959198,,,,,,,,,,,5,06,4,8,,,,,,,,,,,,,,,,,,,,,,,,,,,,,,,
65fdbe94add2e540de266373,SCR,2024-06-25_11h50.30.335,LearnStrategy,2023.2.3,Win32,4.285959198,,,,,,,,,,,2,12,5,1,,,,,,,,,,,,,,,,,,,,,,,,,,,,,,,
65fdbe94add2e540de266373,SCR,2024-06-25_11h50.30.335,LearnStrategy,2023.2.3,Win32,4.285959198,,,,,,,,,,,6,05,5,2,,,,,,,,,,,,,,,,,,,,,,,,,,,,,,,
65fdbe94add2e540de266373,SCR,2024-06-25_11h50.30.335,LearnStrategy,2023.2.3,Win32,4.285959198,,,,,,,,,,,1,10,5,3,,,,,,,,,,,,,,,,,,,,,,,,,,,,,,,
65fdbe94add2e540de266373,SCR,2024-06-25_11h50.30.335,LearnStrategy,2023.2.3,Win32,4.285959198,,,,,,,,,,,5,07,5,4,,,,,,,,,,,,,,,,,,,,,,,,,,,,,,,
65fdbe94add2e540de266373,SCR,2024-06-25_11h50.30.335,LearnStrategy,2023.2.3,Win32,4.285959198,,,,,,,,,,,4,14,5,5,,,,,,,,,,,,,,,,,,,,,,,,,,,,,,,
65fdbe94add2e540de266373,SCR,2024-06-25_11h50.30.335,LearnStrategy,2023.2.3,Win32,4.285959198,,,,,,,,,,,7,10,5,6,,,,,,,,,,,,,,,,,,,,,,,,,,,,,,,
65fdbe94add2e540de266373,SCR,2024-06-25_11h50.30.335,LearnStrategy,2023.2.3,Win32,4.285959198,,,,,,,,,,,3,13,5,7,,,,,,,,,,,,,,,,,,,,,,,,,,,,,,,
65fdbe94add2e540de266373,SCR,2024-06-25_11h50.30.335,LearnStrategy,2023.2.3,Win32,4.285959198,,,,,,,,,,,3,16,5,8,,,,,,,,,,,,,,,,,,,,,,,,,,,,,,,
65fdbe94add2e540de266373,SCR,2024-06-25_11h50.30.335,LearnStrategy,2023.2.3,Win32,4.285959198,,,,,,,,,,,1,01,6,1,,,,,,,,,,,,,,,,,,,,,,,,,,,,,,,
65fdbe94add2e540de266373,SCR,2024-06-25_11h50.30.335,LearnStrategy,2023.2.3,Win32,4.285959198,,,,,,,,,,,3,15,6,2,,,,,,,,,,,,,,,,,,,,,,,,,,,,,,,
65fdbe94add2e540de266373,SCR,2024-06-25_11h50.30.335,LearnStrategy,2023.2.3,Win32,4.285959198,,,,,,,,,,,5,04,6,3,,,,,,,,,,,,,,,,,,,,,,,,,,,,,,,
65fdbe94add2e540de266373,SCR,2024-06-25_11h50.30.335,LearnStrategy,2023.2.3,Win32,4.285959198,,,,,,,,,,,6,07,6,4,,,,,,,,,,,,,,,,,,,,,,,,,,,,,,,
65fdbe94add2e540de266373,SCR,2024-06-25_11h50.30.335,LearnStrategy,2023.2.3,Win32,4.285959198,,,,,,,,,,,3,11,6,5,,,,,,,,,,,,,,,,,,,,,,,,,,,,,,,
65fdbe94add2e540de266373,SCR,2024-06-25_11h50.30.335,LearnStrategy,2023.2.3,Win32,4.285959198,,,,,,,,,,,6,08,6,6,,,,,,,,,,,,,,,,,,,,,,,,,,,,,,,
65fdbe94add2e540de266373,SCR,2024-06-25_11h50.30.335,LearnStrategy,2023.2.3,Win32,4.285959198,,,,,,,,,,,8,02,6,7,,,,,,,,,,,,,,,,,,,,,,,,,,,,,,,
65fdbe94add2e540de266373,SCR,2024-06-25_11h50.30.335,LearnStrategy,2023.2.3,Win32,4.285959198,,,,,,,,,,,4,12,6,8,,,,,,,,,,,,,,,,,,,,,,,,,,,,,,,