participant,condition,date,expName,psychopyVersion,OS,frameRate,block,phase,trial,learn_mouse_2.x,learn_mouse_2.y,learn_mouse_2.leftButton,learn_mouse_2.midButton,learn_mouse_2.rightButton,learn_mouse_2.time,learn_mouse_2.clicked_name,cat,token,row,col,t_select,cat_mouse_l.x,cat_mouse_l.y,cat_mouse_l.leftButton,cat_mouse_l.midButton,cat_mouse_l.rightButton,cat_mouse_l.time,cat_mouse_l.clicked_name,resp,t_resp,corr,train_trials.thisRepN,train_trials.thisTrialN,train_trials.thisN,train_trials.thisIndex,train_trials.ran,cat_mouse_t.x,cat_mouse_t.y,cat_mouse_t.leftButton,cat_mouse_t.midButton,cat_mouse_t.rightButton,cat_mouse_t.time,cat_mouse_t.clicked_name,test_trials.thisRepN,test_trials.thisTrialN,test_trials.thisN,test_trials.thisIndex,test_trials.ran,Bonus
6600e448ba586d5854beb30d,TCN,2024-06-25_13h50.40.702,LearnStrategy,2023.2.3,MacIntel,62.5,,,,,,,,,,,,,,,,,,,,,,,,,,,,,,,,,,,,,,,,,,,
6600e448ba586d5854beb30d,TCN,2024-06-25_13h50.40.702,LearnStrategy,2023.2.3,MacIntel,62.5,1,1,1,0.039783732,-0.008640611,1,0,0,7.5742,rock_grid_rect_2,6,08,-1,-1,7.574,-0.113548041,-0.257233615,1,0,0,4.9884,Basalt_rect,2,4.988,0,0,0,0,0,1,,,,,,,,,,,,,
6600e448ba586d5854beb30d,TCN,2024-06-25_13h50.40.702,LearnStrategy,2023.2.3,MacIntel,62.5,1,1,2,0.051496039,0.007949897,1,0,0,1.4922,rock_grid_rect_2,8,06,-1,-1,1.492,0.404248861,-0.404284261,1,0,0,3.4206,Pumice_rect,8,3.421,1,1,0,1,0,1,,,,,,,,,,,,,
6600e448ba586d5854beb30d,TCN,2024-06-25_13h50.40.702,LearnStrategy,2023.2.3,MacIntel,62.5,1,1,3,0.020948825,-0.00529975,1,0,0,1.582,rock_grid_rect_2,7,05,-1,-1,1.582,0.110389811,-0.390772095,1,0,0,5.5342,Peridotite_rect,7,5.534,1,2,0,2,0,1,,,,,,,,,,,,,
6600e448ba586d5854beb30d,TCN,2024-06-25_13h50.40.702,LearnStrategy,2023.2.3,MacIntel,62.5,1,1,4,0.044534166,0.010889214,1,0,0,1.2685,rock_grid_rect_2,3,15,-1,-1,1.269,-0.357380202,-0.245492011,1,0,0,7.19,Andesite_rect,1,7.19,0,3,0,3,0,1,,,,,,,,,,,,,
6600e448ba586d5854beb30d,TCN,2024-06-25_13h50.40.702,LearnStrategy,2023.2.3,MacIntel,62.5,1,1,5,0.045207994,-0.0217394,1,0,0,1.2598,rock_grid_rect_2,5,11,-1,-1,1.26,-0.37116177,-0.386852756,1,0,0,2.0704,Obsidian_rect,5,2.07,1,4,0,4,0,1,,,,,,,,,,,,,
6600e448ba586d5854beb30d,TCN,2024-06-25_13h50.40.702,LearnStrategy,2023.2.3,MacIntel,62.5,1,1,6,-0.010240682,-0.009443732,1,0,0,1.1782,rock_grid_rect_2,2,12,-1,-1,1.178,-0.30868181,-0.262805854,1,0,0,6.0103,Andesite_rect,1,6.01,0,5,0,5,0,1,,,,,,,,,,,,,
6600e448ba586d5854beb30d,TCN,2024-06-25_13h50.40.702,LearnStrategy,2023.2.3,MacIntel,62.5,1,1,7,0.036000977,-0.015851474,1,0,0,1.6233,rock_grid_rect_2,4,08,-1,-1,1.623,-0.355047913,-0.232264269,1,0,0,2.4356,Andesite_rect,1,2.436,0,6,0,6,0,1,,,,,,,,,,,,,
6600e448ba586d5854beb30d,TCN,2024-06-25_13h50.40.702,LearnStrategy,2023.2.3,MacIntel,62.5,1,1,8,0.125654568,-0.01017985,1,0,0,1.1799,rock_grid_rect_2,2,04,-1,-1,1.18,-0.388331502,-0.250764771,1,0,0,3.5249,Andesite_rect,1,3.525,0,7,0,7,0,1,,,,,,,,,,,,,
6600e448ba586d5854beb30d,TCN,2024-06-25_13h50.40.702,LearnStrategy,2023.2.3,MacIntel,62.5,1,1,9,0.09027615,0.009102851,1,0,0,0.9885,rock_grid_rect_2,3,02,-1,-1,0.988,0.17525194,-0.241862522,1,0,0,1.8989,Diorite_rect,3,1.899,1,8,0,8,0,1,,,,,,,,,,,,,
6600e448ba586d5854beb30d,TCN,2024-06-25_13h50.40.702,LearnStrategy,2023.2.3,MacIntel,62.5,1,1,10,0.15316942,-0.00063151,1,0,0,1.0128,rock_grid_rect_2,1,09,-1,-1,1.013,-0.312258538,-0.23682468,1,0,0,4.4079,Andesite_rect,1,4.408,1,9,0,9,0,1,,,,,,,,,,,,,
6600e448ba586d5854beb30d,TCN,2024-06-25_13h50.40.702,LearnStrategy,2023.2.3,MacIntel,62.5,1,1,11,0.065023329,0.004889289,1,0,0,1.4937,rock_grid_rect_2,7,12,-1,-1,1.494,0.195317858,-0.267978583,1,0,0,1.8278,Diorite_rect,3,1.828,0,10,0,10,0,1,,,,,,,,,,,,,
6600e448ba586d5854beb30d,TCN,2024-06-25_13h50.40.702,LearnStrategy,2023.2.3,MacIntel,62.5,1,1,12,0.055401204,0.016408691,1,0,0,1.075,rock_grid_rect_2,6,11,-1,-1,1.075,-0.111831529,-0.391774428,1,0,0,4.2601,Pegmatite_rect,6,4.26,1,11,0,11,0,1,,,,,,,,,,,,,
6600e448ba586d5854beb30d,TCN,2024-06-25_13h50.40.702,LearnStrategy,2023.2.3,MacIntel,62.5,1,1,13,0.056113553,-0.013759494,1,0,0,1.132,rock_grid_rect_2,1,02,-1,-1,1.132,-0.392987298,-0.264718018,1,0,0,6.1996,Andesite_rect,1,6.2,1,12,0,12,0,1,,,,,,,,,,,,,
6600e448ba586d5854beb30d,TCN,2024-06-25_13h50.40.702,LearnStrategy,2023.2.3,MacIntel,62.5,1,1,14,0.094615885,0.010240479,1,0,0,1.1017,rock_grid_rect_2,8,04,-1,-1,1.102,0.353342963,-0.397557441,1,0,0,3.7397,Pumice_rect,8,3.74,1,13,0,13,0,1,,,,,,,,,,,,,
6600e448ba586d5854beb30d,TCN,2024-06-25_13h50.40.702,LearnStrategy,2023.2.3,MacIntel,62.5,1,1,15,0.099906141,-0.008851861,1,0,0,1.2021,rock_grid_rect_2,5,14,-1,-1,1.202,-0.358807916,-0.400734321,1,0,0,1.7512,Obsidian_rect,5,1.751,1,14,0,14,0,1,,,,,,,,,,,,,
6600e448ba586d5854beb30d,TCN,2024-06-25_13h50.40.702,LearnStrategy,2023.2.3,MacIntel,62.5,1,1,16,0.079141981,0.000244344,1,0,0,1.0722,rock_grid_rect_2,4,14,-1,-1,1.072,0.345336236,-0.238593886,1,0,0,6.3644,Gabbro_rect,4,6.364,1,15,0,15,0,1,,,,,,,,,,,,,
6600e448ba586d5854beb30d,TCN,2024-06-25_13h50.40.702,LearnStrategy,2023.2.3,MacIntel,62.5,1,2,1,,,,,,,,5,10,,,,,,,,,,,5,1.886,1,,,,,,-0.374415554,-0.378764106,1,0,0,1.8861,Obsidian_rect,0,0,0,0,1,
6600e448ba586d5854beb30d,TCN,2024-06-25_13h50.40.702,LearnStrategy,2023.2.3,MacIntel,62.5,1,2,2,,,,,,,,1,07,,,,,,,,,,,3,10.507,0,,,,,,0.198504096,-0.233119168,1,0,0,10.5071,Diorite_rect,1,0,1,0,1,
6600e448ba586d5854beb30d,TCN,2024-06-25_13h50.40.702,LearnStrategy,2023.2.3,MacIntel,62.5,1,2,3,,,,,,,,3,07,,,,,,,,,,,1,14.497,0,,,,,,-0.366108907,-0.252407701,1,0,0,14.4969,Andesite_rect,2,0,2,0,1,
6600e448ba586d5854beb30d,TCN,2024-06-25_13h50.40.702,LearnStrategy,2023.2.3,MacIntel,62.5,1,2,4,,,,,,,,4,12,,,,,,,,,,,4,15.886,1,,,,,,0.394573025,-0.233161079,1,0,0,15.8863,Gabbro_rect,3,0,3,0,1,
6600e448ba586d5854beb30d,TCN,2024-06-25_13h50.40.702,LearnStrategy,2023.2.3,MacIntel,62.5,1,2,5,,,,,,,,5,05,,,,,,,,,,,5,3.432,1,,,,,,-0.375812039,-0.394492187,1,0,0,3.4317,Obsidian_rect,4,0,4,0,1,
6600e448ba586d5854beb30d,TCN,2024-06-25_13h50.40.702,LearnStrategy,2023.2.3,MacIntel,62.5,1,2,6,,,,,,,,8,13,,,,,,,,,,,8,5.58,1,,,,,,0.393243815,-0.390989719,1,0,0,5.5801,Pumice_rect,5,0,5,0,1,
6600e448ba586d5854beb30d,TCN,2024-06-25_13h50.40.702,LearnStrategy,2023.2.3,MacIntel,62.5,1,2,7,,,,,,,,2,14,,,,,,,,,,,8,5.701,0,,,,,,0.391544868,-0.406424086,1,0,0,5.7006,Pumice_rect,6,0,6,0,1,
6600e448ba586d5854beb30d,TCN,2024-06-25_13h50.40.702,LearnStrategy,2023.2.3,MacIntel,62.5,1,2,8,,,,,,,,3,09,,,,,,,,,,,3,4.599,1,,,,,,0.14138855,-0.257474094,1,0,0,4.5985,Diorite_rect,7,0,7,0,1,
6600e448ba586d5854beb30d,TCN,2024-06-25_13h50.40.702,LearnStrategy,2023.2.3,MacIntel,62.5,1,2,9,,,,,,,,6,13,,,,,,,,,,,6,2.347,1,,,,,,-0.108119575,-0.388158502,1,0,0,2.3469,Pegmatite_rect,8,0,8,0,1,
6600e448ba586d5854beb30d,TCN,2024-06-25_13h50.40.702,LearnStrategy,2023.2.3,MacIntel,62.5,1,2,10,,,,,,,,8,10,,,,,,,,,,,8,1.987,1,,,,,,0.355242784,-0.393445841,1,0,0,1.9873,Pumice_rect,9,0,9,0,1,
6600e448ba586d5854beb30d,TCN,2024-06-25_13h50.40.702,LearnStrategy,2023.2.3,MacIntel,62.5,1,2,11,,,,,,,,6,12,,,,,,,,,,,6,2.899,1,,,,,,-0.149825575,-0.394068943,1,0,0,2.8993,Pegmatite_rect,10,0,10,0,1,
6600e448ba586d5854beb30d,TCN,2024-06-25_13h50.40.702,LearnStrategy,2023.2.3,MacIntel,62.5,1,2,12,,,,,,,,7,04,,,,,,,,,,,7,4.081,1,,,,,,0.130855374,-0.394624905,1,0,0,4.0809,Peridotite_rect,11,0,11,0,1,
6600e448ba586d5854beb30d,TCN,2024-06-25_13h50.40.702,LearnStrategy,2023.2.3,MacIntel,62.5,1,2,13,,,,,,,,2,02,,,,,,,,,,,1,9.003,0,,,,,,-0.422720778,-0.23970988,1,0,0,9.0027,Andesite_rect,12,0,12,0,1,
6600e448ba586d5854beb30d,TCN,2024-06-25_13h50.40.702,LearnStrategy,2023.2.3,MacIntel,62.5,1,2,14,,,,,,,,4,15,,,,,,,,,,,3,3.381,0,,,,,,0.162026164,-0.239349162,1,0,0,3.3814,Diorite_rect,13,0,13,0,1,
6600e448ba586d5854beb30d,TCN,2024-06-25_13h50.40.702,LearnStrategy,2023.2.3,MacIntel,62.5,1,2,15,,,,,,,,7,15,,,,,,,,,,,7,1.486,1,,,,,,0.139599202,-0.408009169,1,0,0,1.4863,Peridotite_rect,14,0,14,0,1,
6600e448ba586d5854beb30d,TCN,2024-06-25_13h50.40.702,LearnStrategy,2023.2.3,MacIntel,62.5,1,2,16,,,,,,,,1,10,,,,,,,,,,,1,5.436,1,,,,,,-0.36025099,-0.260832791,1,0,0,5.4362,Andesite_rect,15,0,15,0,1,
6600e448ba586d5854beb30d,TCN,2024-06-25_13h50.40.702,LearnStrategy,2023.2.3,MacIntel,62.5,2,1,1,0.085049642,-0.02122267,1,0,0,1.671,rock_grid_rect_2,5,09,-1,-1,1.671,-0.354708184,-0.387301975,1,0,0,1.7785,Obsidian_rect,5,1.779,1,0,0,0,0,1,,,,,,,,,,,,,
6600e448ba586d5854beb30d,TCN,2024-06-25_13h50.40.702,LearnStrategy,2023.2.3,MacIntel,62.5,2,1,2,0.127613797,0.017521227,1,0,0,1.7546,rock_grid_rect_2,2,11,-1,-1,1.755,0.353328586,-0.391389431,1,0,0,9.3378,Pumice_rect,8,9.338,0,1,0,1,0,1,,,,,,,,,,,,,
6600e448ba586d5854beb30d,TCN,2024-06-25_13h50.40.702,LearnStrategy,2023.2.3,MacIntel,62.5,2,1,3,0.07935791,-0.005723674,1,0,0,1.0723,rock_grid_rect_2,3,06,-1,-1,1.072,0.131912977,-0.242179769,1,0,0,1.5558,Diorite_rect,3,1.556,1,2,0,2,0,1,,,,,,,,,,,,,
6600e448ba586d5854beb30d,TCN,2024-06-25_13h50.40.702,LearnStrategy,2023.2.3,MacIntel,62.5,2,1,4,0.164507921,-0.01403283,1,0,0,1.1127,rock_grid_rect_2,6,10,-1,-1,1.113,0.121770969,-0.395133531,1,0,0,1.6535,Peridotite_rect,7,1.654,0,3,0,3,0,1,,,,,,,,,,,,,
6600e448ba586d5854beb30d,TCN,2024-06-25_13h50.40.702,LearnStrategy,2023.2.3,MacIntel,62.5,2,1,5,0.067427707,-0.000549316,1,0,0,1.5396,rock_grid_rect_2,4,09,-1,-1,1.54,0.387542318,-0.254126383,1,0,0,6.3541,Gabbro_rect,4,6.354,1,4,0,4,0,1,,,,,,,,,,,,,
6600e448ba586d5854beb30d,TCN,2024-06-25_13h50.40.702,LearnStrategy,2023.2.3,MacIntel,62.5,2,1,6,0.16160163,-0.018768378,1,0,0,1.8091,rock_grid_rect_2,3,12,-1,-1,1.809,0.117757636,-0.245127224,1,0,0,1.4974,Diorite_rect,3,1.497,1,5,0,5,0,1,,,,,,,,,,,,,
6600e448ba586d5854beb30d,TCN,2024-06-25_13h50.40.702,LearnStrategy,2023.2.3,MacIntel,62.5,2,1,7,0.143040568,0.014811537,1,0,0,1.0906,rock_grid_rect_2,2,01,-1,-1,1.091,-0.100369059,-0.241899753,1,0,0,8.3371,Basalt_rect,2,8.337,1,6,0,6,0,1,,,,,,,,,,,,,
6600e448ba586d5854beb30d,TCN,2024-06-25_13h50.40.702,LearnStrategy,2023.2.3,MacIntel,62.5,2,1,8,0.1137323,-0.003724365,1,0,0,1.0293,rock_grid_rect_2,7,06,-1,-1,1.029,0.159348145,-0.399205594,1,0,0,3.0091,Peridotite_rect,7,3.009,1,7,0,7,0,1,,,,,,,,,,,,,
6600e448ba586d5854beb30d,TCN,2024-06-25_13h50.40.702,LearnStrategy,2023.2.3,MacIntel,62.5,2,1,9,0.180080024,-0.017439338,1,0,0,1.1604,rock_grid_rect_2,5,16,-1,-1,1.16,-0.348829176,-0.378993191,1,0,0,1.3918,Obsidian_rect,5,1.392,1,8,0,8,0,1,,,,,,,,,,,,,
6600e448ba586d5854beb30d,TCN,2024-06-25_13h50.40.702,LearnStrategy,2023.2.3,MacIntel,62.5,2,1,10,0.174361979,0.003783095,1,0,0,1.5589,rock_grid_rect_2,8,14,-1,-1,1.559,0.402371555,-0.385424398,1,0,0,2.9278,Pumice_rect,8,2.928,1,9,0,9,0,1,,,,,,,,,,,,,
6600e448ba586d5854beb30d,TCN,2024-06-25_13h50.40.702,LearnStrategy,2023.2.3,MacIntel,62.5,2,1,11,0.053355306,0.008294067,1,0,0,1.0849,rock_grid_rect_2,4,03,-1,-1,1.085,0.161176487,-0.240088026,1,0,0,1.5954,Diorite_rect,3,1.595,0,10,0,10,0,1,,,,,,,,,,,,,
6600e448ba586d5854beb30d,TCN,2024-06-25_13h50.40.702,LearnStrategy,2023.2.3,MacIntel,62.5,2,1,12,0.076993747,0.012193841,1,0,0,1.3154,rock_grid_rect_2,1,06,-1,-1,1.315,0.106681247,-0.258926866,1,0,0,2.8192,Diorite_rect,3,2.819,0,11,0,11,0,1,,,,,,,,,,,,,
6600e448ba586d5854beb30d,TCN,2024-06-25_13h50.40.702,LearnStrategy,2023.2.3,MacIntel,62.5,2,1,13,0.07209927,-0.01904012,1,0,0,0.9712,rock_grid_rect_2,1,01,-1,-1,0.971,0.119871419,-0.262561103,1,0,0,3.8411,Diorite_rect,3,3.841,0,12,0,12,0,1,,,,,,,,,,,,,
6600e448ba586d5854beb30d,TCN,2024-06-25_13h50.40.702,LearnStrategy,2023.2.3,MacIntel,62.5,2,1,14,0.132791477,-0.009021471,1,0,0,1.0998,rock_grid_rect_2,8,05,-1,-1,1.1,0.373950738,-0.389073961,1,0,0,1.6467,Pumice_rect,8,1.647,1,13,0,13,0,1,,,,,,,,,,,,,
6600e448ba586d5854beb30d,TCN,2024-06-25_13h50.40.702,LearnStrategy,2023.2.3,MacIntel,62.5,2,1,15,0.12767829,0.008706801,1,0,0,1.0114,rock_grid_rect_2,7,16,-1,-1,1.011,0.119046156,-0.401614583,1,0,0,1.877,Peridotite_rect,7,1.877,1,14,0,14,0,1,,,,,,,,,,,,,
6600e448ba586d5854beb30d,TCN,2024-06-25_13h50.40.702,LearnStrategy,2023.2.3,MacIntel,62.5,2,1,16,0.158627116,-0.004260593,1,0,0,1.1759,rock_grid_rect_2,6,06,-1,-1,1.176,-0.121349691,-0.390734728,1,0,0,6.5051,Pegmatite_rect,6,6.505,1,15,0,15,0,1,,,,,,,,,,,,,
6600e448ba586d5854beb30d,TCN,2024-06-25_13h50.40.702,LearnStrategy,2023.2.3,MacIntel,62.5,2,2,1,,,,,,,,6,09,,,,,,,,,,,6,4.141,1,,,,,,-0.135697428,-0.389041138,1,0,0,4.1413,Pegmatite_rect,0,0,0,0,1,
6600e448ba586d5854beb30d,TCN,2024-06-25_13h50.40.702,LearnStrategy,2023.2.3,MacIntel,62.5,2,2,2,,,,,,,,1,16,,,,,,,,,,,1,11.258,1,,,,,,-0.382656047,-0.254631144,1,0,0,11.2576,Andesite_rect,1,0,1,0,1,
6600e448ba586d5854beb30d,TCN,2024-06-25_13h50.40.702,LearnStrategy,2023.2.3,MacIntel,62.5,2,2,3,,,,,,,,4,11,,,,,,,,,,,2,6.892,0,,,,,,-0.116814982,-0.242569241,1,0,0,6.8924,Basalt_rect,2,0,2,0,1,
6600e448ba586d5854beb30d,TCN,2024-06-25_13h50.40.702,LearnStrategy,2023.2.3,MacIntel,62.5,2,2,4,,,,,,,,2,09,,,,,,,,,,,2,1.661,1,,,,,,-0.116814982,-0.242569241,1,0,0,1.661,Basalt_rect,3,0,3,0,1,
6600e448ba586d5854beb30d,TCN,2024-06-25_13h50.40.702,LearnStrategy,2023.2.3,MacIntel,62.5,2,2,5,,,,,,,,2,10,,,,,,,,,,,4,7.927,0,,,,,,0.414394396,-0.263134901,1,0,0,7.9265,Gabbro_rect,4,0,4,0,1,
6600e448ba586d5854beb30d,TCN,2024-06-25_13h50.40.702,LearnStrategy,2023.2.3,MacIntel,62.5,2,2,6,,,,,,,,3,16,,,,,,,,,,,3,1.498,1,,,,,,0.161043091,-0.253907403,1,0,0,1.4978,Diorite_rect,5,0,5,0,1,
6600e448ba586d5854beb30d,TCN,2024-06-25_13h50.40.702,LearnStrategy,2023.2.3,MacIntel,62.5,2,2,7,,,,,,,,7,14,,,,,,,,,,,7,1.976,1,,,,,,0.128278266,-0.403034397,1,0,0,1.9764,Peridotite_rect,6,0,6,0,1,
6600e448ba586d5854beb30d,TCN,2024-06-25_13h50.40.702,LearnStrategy,2023.2.3,MacIntel,62.5,2,2,8,,,,,,,,8,16,,,,,,,,,,,8,1.342,1,,,,,,0.368528917,-0.406367255,1,0,0,1.3421,Pumice_rect,7,0,7,0,1,
6600e448ba586d5854beb30d,TCN,2024-06-25_13h50.40.702,LearnStrategy,2023.2.3,MacIntel,62.5,2,2,9,,,,,,,,3,08,,,,,,,,,,,3,1.619,1,,,,,,0.129042697,-0.245690715,1,0,0,1.6193,Diorite_rect,8,0,8,0,1,
6600e448ba586d5854beb30d,TCN,2024-06-25_13h50.40.702,LearnStrategy,2023.2.3,MacIntel,62.5,2,2,10,,,,,,,,4,01,,,,,,,,,,,7,3.404,0,,,,,,0.122393799,-0.40045973,1,0,0,3.4041,Peridotite_rect,9,0,9,0,1,
6600e448ba586d5854beb30d,TCN,2024-06-25_13h50.40.702,LearnStrategy,2023.2.3,MacIntel,62.5,2,2,11,,,,,,,,1,05,,,,,,,,,,,1,3.935,1,,,,,,-0.36330363,-0.23521837,1,0,0,3.9346,Andesite_rect,10,0,10,0,1,
6600e448ba586d5854beb30d,TCN,2024-06-25_13h50.40.702,LearnStrategy,2023.2.3,MacIntel,62.5,2,2,12,,,,,,,,5,12,,,,,,,,,,,5,1.565,1,,,,,,-0.369559733,-0.392604574,1,0,0,1.5646,Obsidian_rect,11,0,11,0,1,
6600e448ba586d5854beb30d,TCN,2024-06-25_13h50.40.702,LearnStrategy,2023.2.3,MacIntel,62.5,2,2,13,,,,,,,,8,02,,,,,,,,,,,8,1.525,1,,,,,,0.38127455,-0.399449327,1,0,0,1.5249,Pumice_rect,12,0,12,0,1,
6600e448ba586d5854beb30d,TCN,2024-06-25_13h50.40.702,LearnStrategy,2023.2.3,MacIntel,62.5,2,2,14,,,,,,,,6,07,,,,,,,,,,,6,1.729,1,,,,,,-0.103931546,-0.394975315,1,0,0,1.7287,Pegmatite_rect,13,0,13,0,1,
6600e448ba586d5854beb30d,TCN,2024-06-25_13h50.40.702,LearnStrategy,2023.2.3,MacIntel,62.5,2,2,15,,,,,,,,7,13,,,,,,,,,,,7,1.414,1,,,,,,0.132314996,-0.39180447,1,0,0,1.4137,Peridotite_rect,14,0,14,0,1,
6600e448ba586d5854beb30d,TCN,2024-06-25_13h50.40.702,LearnStrategy,2023.2.3,MacIntel,62.5,2,2,16,,,,,,,,5,04,,,,,,,,,,,5,1.313,1,,,,,,-0.413972778,-0.400048692,1,0,0,1.3126,Obsidian_rect,15,0,15,0,1,
6600e448ba586d5854beb30d,TCN,2024-06-25_13h50.40.702,LearnStrategy,2023.2.3,MacIntel,62.5,3,1,1,-0.037769979,-0.003075833,1,0,0,3.9829,rock_grid_rect_2,3,14,-1,-1,3.983,0.144005398,-0.250085992,1,0,0,4.1448,Diorite_rect,3,4.145,1,0,0,0,0,1,,,,,,,,,,,,,
6600e448ba586d5854beb30d,TCN,2024-06-25_13h50.40.702,LearnStrategy,2023.2.3,MacIntel,62.5,3,1,2,0.113929647,-0.009292433,1,0,0,1.1932,rock_grid_rect_2,8,09,-1,-1,1.193,0.373744032,-0.380021023,1,0,0,1.5169,Pumice_rect,8,1.517,1,1,0,1,0,1,,,,,,,,,,,,,
6600e448ba586d5854beb30d,TCN,2024-06-25_13h50.40.702,LearnStrategy,2023.2.3,MacIntel,62.5,3,1,3,0.105844116,-0.00566942,1,0,0,0.9325,rock_grid_rect_2,8,15,-1,-1,0.933,0.363431803,-0.391480577,1,0,0,12.095,Pumice_rect,8,12.095,1,2,0,2,0,1,,,,,,,,,,,,,
6600e448ba586d5854beb30d,TCN,2024-06-25_13h50.40.702,LearnStrategy,2023.2.3,MacIntel,62.5,3,1,4,0.063545261,-0.004467299,1,0,0,0.9913,rock_grid_rect_2,2,05,-1,-1,0.991,-0.118330078,-0.239811198,1,0,0,1.2298,Basalt_rect,2,1.23,1,3,0,3,0,1,,,,,,,,,,,,,
6600e448ba586d5854beb30d,TCN,2024-06-25_13h50.40.702,LearnStrategy,2023.2.3,MacIntel,62.5,3,1,5,0.11384196,-0.006523302,1,0,0,1.2462,rock_grid_rect_2,7,02,-1,-1,1.246,0.144051717,-0.386816813,1,0,0,1.6675,Peridotite_rect,7,1.668,1,4,0,4,0,1,,,,,,,,,,,,,
6600e448ba586d5854beb30d,TCN,2024-06-25_13h50.40.702,LearnStrategy,2023.2.3,MacIntel,62.5,3,1,6,0.116273736,-0.013269009,1,0,0,0.931,rock_grid_rect_2,7,10,-1,-1,0.931,0.151419135,-0.399415826,1,0,0,3.5913,Peridotite_rect,7,3.591,1,5,0,5,0,1,,,,,,,,,,,,,
6600e448ba586d5854beb30d,TCN,2024-06-25_13h50.40.702,LearnStrategy,2023.2.3,MacIntel,62.5,3,1,7,0.115108914,0.000323215,1,0,0,0.9244,rock_grid_rect_2,1,03,-1,-1,0.924,-0.361863607,-0.237317301,1,0,0,3.2205,Andesite_rect,1,3.221,1,6,0,6,0,1,,,,,,,,,,,,,
6600e448ba586d5854beb30d,TCN,2024-06-25_13h50.40.702,LearnStrategy,2023.2.3,MacIntel,62.5,3,1,8,0.086421577,0.008097839,1,0,0,0.9057,rock_grid_rect_2,6,15,-1,-1,0.906,-0.143409153,-0.386155328,1,0,0,1.4544,Pegmatite_rect,6,1.454,1,7,0,7,0,1,,,,,,,,,,,,,
6600e448ba586d5854beb30d,TCN,2024-06-25_13h50.40.702,LearnStrategy,2023.2.3,MacIntel,62.5,3,1,9,0.096175673,0.010006239,1,0,0,0.9661,rock_grid_rect_2,3,13,-1,-1,0.966,0.114887492,-0.246657308,1,0,0,2.0108,Diorite_rect,3,2.011,1,8,0,8,0,1,,,,,,,,,,,,,
6600e448ba586d5854beb30d,TCN,2024-06-25_13h50.40.702,LearnStrategy,2023.2.3,MacIntel,62.5,3,1,10,0.123177355,-0.015192396,1,0,0,2.3178,rock_grid_rect_2,4,13,-1,-1,2.318,0.136686469,-0.261925524,1,0,0,3.7341,Diorite_rect,3,3.734,0,9,0,9,0,1,,,,,,,,,,,,,
6600e448ba586d5854beb30d,TCN,2024-06-25_13h50.40.702,LearnStrategy,2023.2.3,MacIntel,62.5,3,1,11,0.1007154,-0.001916233,1,0,0,2.1995,rock_grid_rect_2,2,16,-1,-1,2.199,0.39216295,-0.263501858,1,0,0,2.7974,Gabbro_rect,4,2.797,0,10,0,10,0,1,,,,,,,,,,,,,
6600e448ba586d5854beb30d,TCN,2024-06-25_13h50.40.702,LearnStrategy,2023.2.3,MacIntel,62.5,3,1,12,0.008209025,-0.006098429,1,0,0,40.5442,rock_grid_rect_2,4,16,-1,-1,40.544,0.391745199,-0.23615526,1,0,0,6.9466,Gabbro_rect,4,6.947,1,11,0,11,0,1,,,,,,,,,,,,,
6600e448ba586d5854beb30d,TCN,2024-06-25_13h50.40.702,LearnStrategy,2023.2.3,MacIntel,62.5,3,1,13,0.049657864,0.002610202,1,0,0,1.0433,rock_grid_rect_2,1,11,-1,-1,1.043,-0.355399068,-0.246521403,1,0,0,1.644,Andesite_rect,1,1.644,1,12,0,12,0,1,,,,,,,,,,,,,
6600e448ba586d5854beb30d,TCN,2024-06-25_13h50.40.702,LearnStrategy,2023.2.3,MacIntel,62.5,3,1,14,0.024871962,-0.001474948,1,0,0,2.7134,rock_grid_rect_2,5,06,-1,-1,2.713,-0.405456814,-0.402568766,1,0,0,2.0622,Obsidian_rect,5,2.062,1,13,0,13,0,1,,,,,,,,,,,,,
6600e448ba586d5854beb30d,TCN,2024-06-25_13h50.40.702,LearnStrategy,2023.2.3,MacIntel,62.5,3,1,15,-0.007482368,0.008332859,1,0,0,10.3965,rock_grid_rect_2,5,07,-1,-1,10.397,-0.362441271,-0.390119765,1,0,0,1.4704,Obsidian_rect,5,1.47,1,14,0,14,0,1,,,,,,,,,,,,,
6600e448ba586d5854beb30d,TCN,2024-06-25_13h50.40.702,LearnStrategy,2023.2.3,MacIntel,62.5,3,1,16,0.017213949,0.008974643,1,0,0,1.0981,rock_grid_rect_2,6,03,-1,-1,1.098,-0.094010417,-0.398493245,1,0,0,2.2529,Pegmatite_rect,6,2.253,1,15,0,15,0,1,,,,,,,,,,,,,
6600e448ba586d5854beb30d,TCN,2024-06-25_13h50.40.702,LearnStrategy,2023.2.3,MacIntel,62.5,3,2,1,,,,,,,,7,07,,,,,,,,,,,7,3.302,1,,,,,,0.1396698,-0.3881368,1,0,0,3.3022,Peridotite_rect,0,0,0,0,1,
6600e448ba586d5854beb30d,TCN,2024-06-25_13h50.40.702,LearnStrategy,2023.2.3,MacIntel,62.5,3,2,2,,,,,,,,2,08,,,,,,,,,,,2,1.313,1,,,,,,-0.09807685,-0.256504788,1,0,0,1.3134,Basalt_rect,1,0,1,0,1,
6600e448ba586d5854beb30d,TCN,2024-06-25_13h50.40.702,LearnStrategy,2023.2.3,MacIntel,62.5,3,2,3,,,,,,,,1,04,,,,,,,,,,,1,2.527,1,,,,,,-0.367715929,-0.249400906,1,0,0,2.5268,Andesite_rect,2,0,2,0,1,
6600e448ba586d5854beb30d,TCN,2024-06-25_13h50.40.702,LearnStrategy,2023.2.3,MacIntel,62.5,3,2,4,,,,,,,,1,14,,,,,,,,,,,6,2.604,0,,,,,,-0.133160197,-0.404375271,1,0,0,2.6043,Pegmatite_rect,3,0,3,0,1,
6600e448ba586d5854beb30d,TCN,2024-06-25_13h50.40.702,LearnStrategy,2023.2.3,MacIntel,62.5,3,2,5,,,,,,,,3,11,,,,,,,,,,,3,2.532,1,,,,,,0.143010661,-0.261548665,1,0,0,2.5318,Diorite_rect,4,0,4,0,1,
6600e448ba586d5854beb30d,TCN,2024-06-25_13h50.40.702,LearnStrategy,2023.2.3,MacIntel,62.5,3,2,6,,,,,,,,3,10,,,,,,,,,,,3,3.461,1,,,,,,0.143010661,-0.261548665,1,0,0,3.4614,Diorite_rect,5,0,5,0,1,
6600e448ba586d5854beb30d,TCN,2024-06-25_13h50.40.702,LearnStrategy,2023.2.3,MacIntel,62.5,3,2,7,,,,,,,,4,05,,,,,,,,,,,4,3.992,1,,,,,,0.386412489,-0.257161391,1,0,0,3.9921,Gabbro_rect,6,0,6,0,1,
6600e448ba586d5854beb30d,TCN,2024-06-25_13h50.40.702,LearnStrategy,2023.2.3,MacIntel,62.5,3,2,8,,,,,,,,2,06,,,,,,,,,,,2,1.161,1,,,,,,-0.090810615,-0.245175103,1,0,0,1.1611,Basalt_rect,7,0,7,0,1,
6600e448ba586d5854beb30d,TCN,2024-06-25_13h50.40.702,LearnStrategy,2023.2.3,MacIntel,62.5,3,2,9,,,,,,,,4,10,,,,,,,,,,,4,4.817,1,,,,,,0.351368001,-0.247122531,1,0,0,4.8166,Gabbro_rect,8,0,8,0,1,
6600e448ba586d5854beb30d,TCN,2024-06-25_13h50.40.702,LearnStrategy,2023.2.3,MacIntel,62.5,3,2,10,,,,,,,,8,03,,,,,,,,,,,8,1.185,1,,,,,,0.355012885,-0.398008491,1,0,0,1.1848,Pumice_rect,9,0,9,0,1,
6600e448ba586d5854beb30d,TCN,2024-06-25_13h50.40.702,LearnStrategy,2023.2.3,MacIntel,62.5,3,2,11,,,,,,,,6,05,,,,,,,,,,,6,1.403,1,,,,,,-0.13364468,-0.409200033,1,0,0,1.4034,Pegmatite_rect,10,0,10,0,1,
6600e448ba586d5854beb30d,TCN,2024-06-25_13h50.40.702,LearnStrategy,2023.2.3,MacIntel,62.5,3,2,12,,,,,,,,5,02,,,,,,,,,,,5,1.175,1,,,,,,-0.373188273,-0.395586141,1,0,0,1.1751,Obsidian_rect,11,0,11,0,1,
6600e448ba586d5854beb30d,TCN,2024-06-25_13h50.40.702,LearnStrategy,2023.2.3,MacIntel,62.5,3,2,13,,,,,,,,8,08,,,,,,,,,,,8,1.529,1,,,,,,0.346151123,-0.408756239,1,0,0,1.5293,Pumice_rect,12,0,12,0,1,
6600e448ba586d5854beb30d,TCN,2024-06-25_13h50.40.702,LearnStrategy,2023.2.3,MacIntel,62.5,3,2,14,,,,,,,,7,08,,,,,,,,,,,7,1.401,1,,,,,,0.142731188,-0.400607435,1,0,0,1.4013,Peridotite_rect,13,0,13,0,1,
6600e448ba586d5854beb30d,TCN,2024-06-25_13h50.40.702,LearnStrategy,2023.2.3,MacIntel,62.5,3,2,15,,,,,,,,5,08,,,,,,,,,,,5,2.127,1,,,,,,-0.385891859,-0.407218899,1,0,0,2.1272,Obsidian_rect,14,0,14,0,1,
6600e448ba586d5854beb30d,TCN,2024-06-25_13h50.40.702,LearnStrategy,2023.2.3,MacIntel,62.5,3,2,16,,,,,,,,6,16,,,,,,,,,,,6,1.431,1,,,,,,-0.145714586,-0.388624403,1,0,0,1.4306,Pegmatite_rect,15,0,15,0,1,
6600e448ba586d5854beb30d,TCN,2024-06-25_13h50.40.702,LearnStrategy,2023.2.3,MacIntel,62.5,4,1,1,-0.030013835,-0.003945245,1,0,0,1.5941,rock_grid_rect_2,1,02,-1,-1,1.594,-0.381925083,-0.255852051,1,0,0,4.0245,Andesite_rect,1,4.024,1,0,0,0,0,1,,,,,,,,,,,,,
6600e448ba586d5854beb30d,TCN,2024-06-25_13h50.40.702,LearnStrategy,2023.2.3,MacIntel,62.5,4,1,2,0.057463989,-0.010530396,1,0,0,1.0277,rock_grid_rect_2,8,05,-1,-1,1.028,0.372081163,-0.383920831,1,0,0,1.5285,Pumice_rect,8,1.528,1,1,0,1,0,1,,,,,,,,,,,,,
6600e448ba586d5854beb30d,TCN,2024-06-25_13h50.40.702,LearnStrategy,2023.2.3,MacIntel,62.5,4,1,3,0.037441135,-0.013706123,1,0,0,1.132,rock_grid_rect_2,8,09,-1,-1,1.132,0.375283067,-0.396211887,1,0,0,1.4572,Pumice_rect,8,1.457,1,2,0,2,0,1,,,,,,,,,,,,,
6600e448ba586d5854beb30d,TCN,2024-06-25_13h50.40.702,LearnStrategy,2023.2.3,MacIntel,62.5,4,1,4,0.129942424,0.01873803,1,0,0,0.9699,rock_grid_rect_2,7,05,-1,-1,0.97,0.134717068,-0.405507677,1,0,0,1.7379,Peridotite_rect,7,1.738,1,3,0,3,0,1,,,,,,,,,,,,,
6600e448ba586d5854beb30d,TCN,2024-06-25_13h50.40.702,LearnStrategy,2023.2.3,MacIntel,62.5,4,1,5,0.138930732,0.00275689,1,0,0,1.1724,rock_grid_rect_2,5,14,-1,-1,1.172,-0.349831848,-0.386290826,1,0,0,2.6904,Obsidian_rect,5,2.69,1,4,0,4,0,1,,,,,,,,,,,,,
6600e448ba586d5854beb30d,TCN,2024-06-25_13h50.40.702,LearnStrategy,2023.2.3,MacIntel,62.5,4,1,6,0.153912625,0.007425096,1,0,0,1.0669,rock_grid_rect_2,4,08,-1,-1,1.067,0.386284451,-0.235618761,1,0,0,11.0606,Gabbro_rect,4,11.061,1,5,0,5,0,1,,,,,,,,,,,,,
6600e448ba586d5854beb30d,TCN,2024-06-25_13h50.40.702,LearnStrategy,2023.2.3,MacIntel,62.5,4,1,7,-0.001274143,-0.008998006,1,0,0,1.2548,rock_grid_rect_2,3,13,-1,-1,1.255,0.12792494,-0.24914388,1,0,0,1.5613,Diorite_rect,3,1.561,1,6,0,6,0,1,,,,,,,,,,,,,
6600e448ba586d5854beb30d,TCN,2024-06-25_13h50.40.702,LearnStrategy,2023.2.3,MacIntel,62.5,4,1,8,0.059628432,-0.021308424,1,0,0,0.8975,rock_grid_rect_2,2,05,-1,-1,0.898,-0.14410319,-0.25338284,1,0,0,1.926,Basalt_rect,2,1.926,1,7,0,7,0,1,,,,,,,,,,,,,
6600e448ba586d5854beb30d,TCN,2024-06-25_13h50.40.702,LearnStrategy,2023.2.3,MacIntel,62.5,4,1,9,0.058333944,-0.011869303,1,0,0,1.586,rock_grid_rect_2,1,11,-1,-1,1.586,-0.395844659,-0.241650119,1,0,0,2.9125,Andesite_rect,1,2.913,1,8,0,8,0,1,,,,,,,,,,,,,
6600e448ba586d5854beb30d,TCN,2024-06-25_13h50.40.702,LearnStrategy,2023.2.3,MacIntel,62.5,4,1,10,0.083238797,-0.019827271,1,0,0,1.0132,rock_grid_rect_2,7,06,-1,-1,1.013,-0.090978529,-0.407428792,1,0,0,4.6098,Pegmatite_rect,6,4.61,0,9,0,9,0,1,,,,,,,,,,,,,
6600e448ba586d5854beb30d,TCN,2024-06-25_13h50.40.702,LearnStrategy,2023.2.3,MacIntel,62.5,4,1,11,0.093208686,0.017889743,1,0,0,0.9318,rock_grid_rect_2,4,16,-1,-1,0.932,0.36804145,-0.248383518,1,0,0,2.4501,Gabbro_rect,4,2.45,1,10,0,10,0,1,,,,,,,,,,,,,
6600e448ba586d5854beb30d,TCN,2024-06-25_13h50.40.702,LearnStrategy,2023.2.3,MacIntel,62.5,4,1,12,0.047545234,0.004953749,1,0,0,0.9347,rock_grid_rect_2,6,06,-1,-1,0.935,-0.156233792,-0.412720812,1,0,0,3.3525,Pegmatite_rect,6,3.352,1,11,0,11,0,1,,,,,,,,,,,,,
6600e448ba586d5854beb30d,TCN,2024-06-25_13h50.40.702,LearnStrategy,2023.2.3,MacIntel,62.5,4,1,13,0.043589749,-0.017502136,1,0,0,1.0368,rock_grid_rect_2,6,11,-1,-1,1.037,-0.153817071,-0.384559733,1,0,0,1.3532,Pegmatite_rect,6,1.353,1,12,0,12,0,1,,,,,,,,,,,,,
6600e448ba586d5854beb30d,TCN,2024-06-25_13h50.40.702,LearnStrategy,2023.2.3,MacIntel,62.5,4,1,14,0.064079319,0.002882284,1,0,0,0.9016,rock_grid_rect_2,5,07,-1,-1,0.902,-0.377398749,-0.395883653,1,0,0,1.5332,Obsidian_rect,5,1.533,1,13,0,13,0,1,,,,,,,,,,,,,
6600e448ba586d5854beb30d,TCN,2024-06-25_13h50.40.702,LearnStrategy,2023.2.3,MacIntel,62.5,4,1,15,0.093535834,-0.013193665,1,0,0,1.1384,rock_grid_rect_2,3,02,-1,-1,1.138,0.131836887,-0.245680542,1,0,0,1.642,Diorite_rect,3,1.642,1,14,0,14,0,1,,,,,,,,,,,,,
6600e448ba586d5854beb30d,TCN,2024-06-25_13h50.40.702,LearnStrategy,2023.2.3,MacIntel,62.5,4,1,16,0.015972629,-0.000897997,1,0,0,1.0245,rock_grid_rect_2,2,04,-1,-1,1.024,-0.158690864,-0.249035034,1,0,0,1.1142,Basalt_rect,2,1.114,1,15,0,15,0,1,,,,,,,,,,,,,
6600e448ba586d5854beb30d,TCN,2024-06-25_13h50.40.702,LearnStrategy,2023.2.3,MacIntel,62.5,4,2,1,,,,,,,,7,08,,,,,,,,,,,7,17.337,1,,,,,,0.134200236,-0.396045736,1,0,0,17.3366,Peridotite_rect,0,0,0,0,1,
6600e448ba586d5854beb30d,TCN,2024-06-25_13h50.40.702,LearnStrategy,2023.2.3,MacIntel,62.5,4,2,2,,,,,,,,2,14,,,,,,,,,,,8,13.939,0,,,,,,0.346726074,-0.382678901,1,0,0,13.939,Pumice_rect,1,0,1,0,1,
6600e448ba586d5854beb30d,TCN,2024-06-25_13h50.40.702,LearnStrategy,2023.2.3,MacIntel,62.5,4,2,3,,,,,,,,4,05,,,,,,,,,,,4,20.965,1,,,,,,0.394845649,-0.245868123,1,0,0,20.9648,Gabbro_rect,2,0,2,0,1,
6600e448ba586d5854beb30d,TCN,2024-06-25_13h50.40.702,LearnStrategy,2023.2.3,MacIntel,62.5,4,2,4,,,,,,,,3,08,,,,,,,,,,,3,1.477,1,,,,,,0.14754008,-0.250331421,1,0,0,1.4767,Diorite_rect,3,0,3,0,1,
6600e448ba586d5854beb30d,TCN,2024-06-25_13h50.40.702,LearnStrategy,2023.2.3,MacIntel,62.5,4,2,5,,,,,,,,8,03,,,,,,,,,,,8,1.615,1,,,,,,0.349753689,-0.395299615,1,0,0,1.6145,Pumice_rect,4,0,4,0,1,
6600e448ba586d5854beb30d,TCN,2024-06-25_13h50.40.702,LearnStrategy,2023.2.3,MacIntel,62.5,4,2,6,,,,,,,,6,13,,,,,,,,,,,6,1.615,1,,,,,,-0.109382731,-0.403206719,1,0,0,1.6154,Pegmatite_rect,5,0,5,0,1,
6600e448ba586d5854beb30d,TCN,2024-06-25_13h50.40.702,LearnStrategy,2023.2.3,MacIntel,62.5,4,2,7,,,,,,,,3,07,,,,,,,,,,,1,20.085,0,,,,,,-0.377005412,-0.257487996,1,0,0,20.0855,Andesite_rect,6,0,6,0,1,
6600e448ba586d5854beb30d,TCN,2024-06-25_13h50.40.702,LearnStrategy,2023.2.3,MacIntel,62.5,4,2,8,,,,,,,,5,05,,,,,,,,,,,5,1.487,1,,,,,,-0.375117493,-0.390750258,1,0,0,1.4869,Obsidian_rect,7,0,7,0,1,
6600e448ba586d5854beb30d,TCN,2024-06-25_13h50.40.702,LearnStrategy,2023.2.3,MacIntel,62.5,4,2,9,,,,,,,,4,10,,,,,,,,,,,4,13.15,1,,,,,,0.320184733,-0.255106066,1,0,0,13.1504,Gabbro_rect,8,0,8,0,1,
6600e448ba586d5854beb30d,TCN,2024-06-25_13h50.40.702,LearnStrategy,2023.2.3,MacIntel,62.5,4,2,10,,,,,,,,1,14,,,,,,,,,,,6,1.701,0,,,,,,-0.162533841,-0.384503242,1,0,0,1.7013,Pegmatite_rect,9,0,9,0,1,
6600e448ba586d5854beb30d,TCN,2024-06-25_13h50.40.702,LearnStrategy,2023.2.3,MacIntel,62.5,4,2,11,,,,,,,,1,04,,,,,,,,,,,1,2.197,1,,,,,,-0.399778035,-0.258537326,1,0,0,2.1968,Andesite_rect,10,0,10,0,1,
6600e448ba586d5854beb30d,TCN,2024-06-25_13h50.40.702,LearnStrategy,2023.2.3,MacIntel,62.5,4,2,12,,,,,,,,8,10,,,,,,,,,,,8,1.353,1,,,,,,0.428012153,-0.404563056,1,0,0,1.3533,Pumice_rect,11,0,11,0,1,
6600e448ba586d5854beb30d,TCN,2024-06-25_13h50.40.702,LearnStrategy,2023.2.3,MacIntel,62.5,4,2,13,,,,,,,,7,07,,,,,,,,,,,7,1.386,1,,,,,,0.123292982,-0.39875312,1,0,0,1.3864,Peridotite_rect,12,0,12,0,1,
6600e448ba586d5854beb30d,TCN,2024-06-25_13h50.40.702,LearnStrategy,2023.2.3,MacIntel,62.5,4,2,14,,,,,,,,5,02,,,,,,,,,,,5,2.207,1,,,,,,-0.4075688,-0.408130018,1,0,0,2.2068,Obsidian_rect,13,0,13,0,1,
6600e448ba586d5854beb30d,TCN,2024-06-25_13h50.40.702,LearnStrategy,2023.2.3,MacIntel,62.5,4,2,15,,,,,,,,2,02,,,,,,,,,,,2,1.107,1,,,,,,-0.138163045,-0.245936754,1,0,0,1.107,Basalt_rect,14,0,14,0,1,
6600e448ba586d5854beb30d,TCN,2024-06-25_13h50.40.702,LearnStrategy,2023.2.3,MacIntel,62.5,4,2,16,,,,,,,,6,12,,,,,,,,,,,6,1.347,1,,,,,,-0.146305745,-0.399027235,1,0,0,1.3468,Pegmatite_rect,15,0,15,0,1,
6600e448ba586d5854beb30d,TCN,2024-06-25_13h50.40.702,LearnStrategy,2023.2.3,MacIntel,62.5,5,1,1,-0.00364563,-0.017801005,1,0,0,1.5924,rock_grid_rect_2,3,15,-1,-1,1.592,0.143916897,-0.249969347,1,0,0,5.6431,Diorite_rect,3,5.643,1,0,0,0,0,1,,,,,,,,,,,,,
6600e448ba586d5854beb30d,TCN,2024-06-25_13h50.40.702,LearnStrategy,2023.2.3,MacIntel,62.5,5,1,2,0.03284946,-0.009242859,1,0,0,1.1679,rock_grid_rect_2,6,03,-1,-1,1.168,-0.139760539,-0.396192898,1,0,0,1.4724,Pegmatite_rect,6,1.472,1,1,0,1,0,1,,,,,,,,,,,,,
6600e448ba586d5854beb30d,TCN,2024-06-25_13h50.40.702,LearnStrategy,2023.2.3,MacIntel,62.5,5,1,3,0.129940321,-0.019020114,1,0,0,1.0044,rock_grid_rect_2,6,15,-1,-1,1.004,-0.141395399,-0.388035143,1,0,0,1.3765,Pegmatite_rect,6,1.377,1,2,0,2,0,1,,,,,,,,,,,,,
6600e448ba586d5854beb30d,TCN,2024-06-25_13h50.40.702,LearnStrategy,2023.2.3,MacIntel,62.5,5,1,4,0.062733358,-0.000306159,1,0,0,1.4807,rock_grid_rect_2,2,16,-1,-1,1.481,0.355098334,-0.241116062,1,0,0,4.9213,Gabbro_rect,4,4.921,0,3,0,3,0,1,,,,,,,,,,,,,
6600e448ba586d5854beb30d,TCN,2024-06-25_13h50.40.702,LearnStrategy,2023.2.3,MacIntel,62.5,5,1,5,-0.051871541,0.00553894,1,0,0,1.0659,rock_grid_rect_2,8,04,-1,-1,1.066,0.393445095,-0.412243381,1,0,0,2.2182,Pumice_rect,8,2.218,1,4,0,4,0,1,,,,,,,,,,,,,
6600e448ba586d5854beb30d,TCN,2024-06-25_13h50.40.702,LearnStrategy,2023.2.3,MacIntel,62.5,5,1,6,0.042078315,0.002145962,1,0,0,0.861,rock_grid_rect_2,4,03,-1,-1,0.861,-0.359280124,-0.244945136,1,0,0,2.0828,Andesite_rect,1,2.083,0,5,0,5,0,1,,,,,,,,,,,,,
6600e448ba586d5854beb30d,TCN,2024-06-25_13h50.40.702,LearnStrategy,2023.2.3,MacIntel,62.5,5,1,7,0.117262505,-0.021252882,1,0,0,1.0635,rock_grid_rect_2,5,09,-1,-1,1.063,-0.378531562,-0.394370863,1,0,0,1.4808,Obsidian_rect,5,1.481,1,6,0,6,0,1,,,,,,,,,,,,,
6600e448ba586d5854beb30d,TCN,2024-06-25_13h50.40.702,LearnStrategy,2023.2.3,MacIntel,62.5,5,1,8,0.044662272,0.012392069,1,0,0,0.9359,rock_grid_rect_2,8,06,-1,-1,0.936,0.369048665,-0.403993327,1,0,0,2.2706,Pumice_rect,8,2.271,1,7,0,7,0,1,,,,,,,,,,,,,
6600e448ba586d5854beb30d,TCN,2024-06-25_13h50.40.702,LearnStrategy,2023.2.3,MacIntel,62.5,5,1,9,0.017383898,0.000841166,1,0,0,1.395,rock_grid_rect_2,4,09,-1,-1,1.395,0.407317437,-0.264336073,1,0,0,3.5921,Gabbro_rect,4,3.592,1,8,0,8,0,1,,,,,,,,,,,,,
6600e448ba586d5854beb30d,TCN,2024-06-25_13h50.40.702,LearnStrategy,2023.2.3,MacIntel,62.5,5,1,10,0.003299493,-0.003659125,1,0,0,4.7919,rock_grid_rect_2,1,03,-1,-1,4.792,-0.411149055,-0.245529717,1,0,0,1.7271,Andesite_rect,1,1.727,1,9,0,9,0,1,,,,,,,,,,,,,
6600e448ba586d5854beb30d,TCN,2024-06-25_13h50.40.702,LearnStrategy,2023.2.3,MacIntel,62.5,5,1,11,0.090959269,-0.006692268,1,0,0,1.0897,rock_grid_rect_2,2,01,-1,-1,1.09,-0.12447564,-0.264759928,1,0,0,4.0261,Basalt_rect,2,4.026,1,10,0,10,0,1,,,,,,,,,,,,,
6600e448ba586d5854beb30d,TCN,2024-06-25_13h50.40.702,LearnStrategy,2023.2.3,MacIntel,62.5,5,1,12,0.070761787,-0.017452799,1,0,0,1.1483,rock_grid_rect_2,1,01,-1,-1,1.148,0.382274984,-0.236740655,1,0,0,4.192,Gabbro_rect,4,4.192,0,11,0,11,0,1,,,,,,,,,,,,,
6600e448ba586d5854beb30d,TCN,2024-06-25_13h50.40.702,LearnStrategy,2023.2.3,MacIntel,62.5,5,1,13,0.040350342,-0.015030111,1,0,0,1.2805,rock_grid_rect_2,3,06,-1,-1,1.28,0.137229614,-0.239367608,1,0,0,2.4297,Diorite_rect,3,2.43,1,12,0,12,0,1,,,,,,,,,,,,,
6600e448ba586d5854beb30d,TCN,2024-06-25_13h50.40.702,LearnStrategy,2023.2.3,MacIntel,62.5,5,1,14,0.09925571,0.010788778,1,0,0,0.9389,rock_grid_rect_2,7,02,-1,-1,0.939,0.102438829,-0.39858941,1,0,0,1.4587,Peridotite_rect,7,1.459,1,13,0,13,0,1,,,,,,,,,,,,,
6600e448ba586d5854beb30d,TCN,2024-06-25_13h50.40.702,LearnStrategy,2023.2.3,MacIntel,62.5,5,1,15,0.061169773,-0.012749227,1,0,0,0.867,rock_grid_rect_2,5,16,-1,-1,0.867,-0.393941311,-0.392496134,1,0,0,1.4253,Obsidian_rect,5,1.425,1,14,0,14,0,1,,,,,,,,,,,,,
6600e448ba586d5854beb30d,TCN,2024-06-25_13h50.40.702,LearnStrategy,2023.2.3,MacIntel,62.5,5,1,16,0.065962863,-0.004552917,1,0,0,0.9041,rock_grid_rect_2,7,16,-1,-1,0.904,0.111585693,-0.3867669,1,0,0,1.5499,Peridotite_rect,7,1.55,1,15,0,15,0,1,,,,,,,,,,,,,
6600e448ba586d5854beb30d,TCN,2024-06-25_13h50.40.702,LearnStrategy,2023.2.3,MacIntel,62.5,5,2,1,,,,,,,,6,05,,,,,,,,,,,6,3.06,1,,,,,,-0.12676534,-0.412173733,1,0,0,3.0604,Pegmatite_rect,0,0,0,0,1,
6600e448ba586d5854beb30d,TCN,2024-06-25_13h50.40.702,LearnStrategy,2023.2.3,MacIntel,62.5,5,2,2,,,,,,,,8,08,,,,,,,,,,,8,2.293,1,,,,,,0.369403754,-0.402222561,1,0,0,2.293,Pumice_rect,1,0,1,0,1,
6600e448ba586d5854beb30d,TCN,2024-06-25_13h50.40.702,LearnStrategy,2023.2.3,MacIntel,62.5,5,2,3,,,,,,,,4,11,,,,,,,,,,,1,18.105,0,,,,,,-0.403857388,-0.24970988,1,0,0,18.105,Andesite_rect,2,0,2,0,1,
6600e448ba586d5854beb30d,TCN,2024-06-25_13h50.40.702,LearnStrategy,2023.2.3,MacIntel,62.5,5,2,4,,,,,,,,2,08,,,,,,,,,,,2,1.48,1,,,,,,-0.092486572,-0.256889038,1,0,0,1.4796,Basalt_rect,3,0,3,0,1,
6600e448ba586d5854beb30d,TCN,2024-06-25_13h50.40.702,LearnStrategy,2023.2.3,MacIntel,62.5,5,2,5,,,,,,,,5,12,,,,,,,,,,,5,1.296,1,,,,,,-0.387237379,-0.400756022,1,0,0,1.2959,Obsidian_rect,4,0,4,0,1,
6600e448ba586d5854beb30d,TCN,2024-06-25_13h50.40.702,LearnStrategy,2023.2.3,MacIntel,62.5,5,2,6,,,,,,,,7,13,,,,,,,,,,,7,1.914,1,,,,,,0.120680474,-0.393441772,1,0,0,1.914,Peridotite_rect,5,0,5,0,1,
6600e448ba586d5854beb30d,TCN,2024-06-25_13h50.40.702,LearnStrategy,2023.2.3,MacIntel,62.5,5,2,7,,,,,,,,1,05,,,,,,,,,,,1,28.607,1,,,,,,-0.385678813,-0.230721029,1,0,0,28.6065,Andesite_rect,6,0,6,0,1,
6600e448ba586d5854beb30d,TCN,2024-06-25_13h50.40.702,LearnStrategy,2023.2.3,MacIntel,62.5,5,2,8,,,,,,,,3,16,,,,,,,,,,,4,14.231,0,,,,,,0.388849013,-0.241377157,1,0,0,14.2311,Gabbro_rect,7,0,7,0,1,
6600e448ba586d5854beb30d,TCN,2024-06-25_13h50.40.702,LearnStrategy,2023.2.3,MacIntel,62.5,5,2,9,,,,,,,,7,14,,,,,,,,,,,7,2.323,1,,,,,,0.123037788,-0.387919176,1,0,0,2.3228,Peridotite_rect,8,0,8,0,1,
6600e448ba586d5854beb30d,TCN,2024-06-25_13h50.40.702,LearnStrategy,2023.2.3,MacIntel,62.5,5,2,10,,,,,,,,1,10,,,,,,,,,,,1,3.356,1,,,,,,-0.377408752,-0.250244005,1,0,0,3.3559,Andesite_rect,9,0,9,0,1,
6600e448ba586d5854beb30d,TCN,2024-06-25_13h50.40.702,LearnStrategy,2023.2.3,MacIntel,62.5,5,2,11,,,,,,,,3,10,,,,,,,,,,,3,14.832,1,,,,,,0.131639065,-0.25161655,1,0,0,14.832,Diorite_rect,10,0,10,0,1,
6600e448ba586d5854beb30d,TCN,2024-06-25_13h50.40.702,LearnStrategy,2023.2.3,MacIntel,62.5,5,2,12,,,,,,,,8,16,,,,,,,,,,,8,1.518,1,,,,,,0.398032091,-0.394431627,1,0,0,1.5185,Pumice_rect,11,0,11,0,1,
6600e448ba586d5854beb30d,TCN,2024-06-25_13h50.40.702,LearnStrategy,2023.2.3,MacIntel,62.5,5,2,13,,,,,,,,4,01,,,,,,,,,,,7,5.959,0,,,,,,0.171812473,-0.392678155,1,0,0,5.9591,Peridotite_rect,12,0,12,0,1,
6600e448ba586d5854beb30d,TCN,2024-06-25_13h50.40.702,LearnStrategy,2023.2.3,MacIntel,62.5,5,2,14,,,,,,,,5,10,,,,,,,,,,,5,1.24,1,,,,,,-0.377997301,-0.39880344,1,0,0,1.2395,Obsidian_rect,13,0,13,0,1,
6600e448ba586d5854beb30d,TCN,2024-06-25_13h50.40.702,LearnStrategy,2023.2.3,MacIntel,62.5,5,2,15,,,,,,,,6,16,,,,,,,,,,,6,1.375,1,,,,,,-0.123793538,-0.39762363,1,0,0,1.3747,Pegmatite_rect,14,0,14,0,1,
6600e448ba586d5854beb30d,TCN,2024-06-25_13h50.40.702,LearnStrategy,2023.2.3,MacIntel,62.5,5,2,16,,,,,,,,2,09,,,,,,,,,,,2,1.2,1,,,,,,-0.105595974,-0.251768934,1,0,0,1.2002,Basalt_rect,15,0,15,0,1,
6600e448ba586d5854beb30d,TCN,2024-06-25_13h50.40.702,LearnStrategy,2023.2.3,MacIntel,62.5,6,1,1,-0.006819322,0.01422899,1,0,0,2.2178,rock_grid_rect_2,4,13,-1,-1,2.218,0.369623481,-0.234361233,1,0,0,5.5796,Gabbro_rect,4,5.58,1,0,0,0,0,1,,,,,,,,,,,,,
6600e448ba586d5854beb30d,TCN,2024-06-25_13h50.40.702,LearnStrategy,2023.2.3,MacIntel,62.5,6,1,2,0.024929335,-0.006854079,1,0,0,1.0926,rock_grid_rect_2,4,14,-1,-1,1.093,0.376935221,-0.244142253,1,0,0,1.6897,Gabbro_rect,4,1.69,1,1,0,1,0,1,,,,,,,,,,,,,
6600e448ba586d5854beb30d,TCN,2024-06-25_13h50.40.702,LearnStrategy,2023.2.3,MacIntel,62.5,6,1,3,-0.012630276,0.010954759,1,0,0,1.0475,rock_grid_rect_2,8,15,-1,-1,1.047,0.352391629,-0.408087904,1,0,0,1.6892,Pumice_rect,8,1.689,1,2,0,2,0,1,,,,,,,,,,,,,
6600e448ba586d5854beb30d,TCN,2024-06-25_13h50.40.702,LearnStrategy,2023.2.3,MacIntel,62.5,6,1,4,0.060332913,-0.003745253,1,0,0,1.1493,rock_grid_rect_2,7,12,-1,-1,1.149,0.141507161,-0.403524102,1,0,0,2.7511,Peridotite_rect,7,2.751,1,3,0,3,0,1,,,,,,,,,,,,,
6600e448ba586d5854beb30d,TCN,2024-06-25_13h50.40.702,LearnStrategy,2023.2.3,MacIntel,62.5,6,1,5,0.069896783,-0.017266371,1,0,0,1.0544,rock_grid_rect_2,5,11,-1,-1,1.054,-0.357966173,-0.383220622,1,0,0,1.3332,Obsidian_rect,5,1.333,1,4,0,4,0,1,,,,,,,,,,,,,
6600e448ba586d5854beb30d,TCN,2024-06-25_13h50.40.702,LearnStrategy,2023.2.3,MacIntel,62.5,6,1,6,0.132479112,-0.015125156,1,0,0,1.0266,rock_grid_rect_2,3,14,-1,-1,1.027,0.12885003,-0.236282416,1,0,0,3.4431,Diorite_rect,3,3.443,1,5,0,5,0,1,,,,,,,,,,,,,
6600e448ba586d5854beb30d,TCN,2024-06-25_13h50.40.702,LearnStrategy,2023.2.3,MacIntel,62.5,6,1,7,0.093676961,0.000160082,1,0,0,0.9111,rock_grid_rect_2,2,11,-1,-1,0.911,0.38938897,-0.409686618,1,0,0,3.6978,Pumice_rect,8,3.698,0,6,0,6,0,1,,,,,,,,,,,,,
6600e448ba586d5854beb30d,TCN,2024-06-25_13h50.40.702,LearnStrategy,2023.2.3,MacIntel,62.5,6,1,8,0.000679186,0.016334127,1,0,0,1.0678,rock_grid_rect_2,8,14,-1,-1,1.068,0.396230062,-0.397106052,1,0,0,1.7446,Pumice_rect,8,1.745,1,7,0,7,0,1,,,,,,,,,,,,,
6600e448ba586d5854beb30d,TCN,2024-06-25_13h50.40.702,LearnStrategy,2023.2.3,MacIntel,62.5,6,1,9,0.08418179,0.008575066,1,0,0,1.0976,rock_grid_rect_2,6,08,-1,-1,1.098,-0.174020521,-0.410817261,1,0,0,1.3485,Pegmatite_rect,6,1.349,1,8,0,8,0,1,,,,,,,,,,,,,
6600e448ba586d5854beb30d,TCN,2024-06-25_13h50.40.702,LearnStrategy,2023.2.3,MacIntel,62.5,6,1,10,0.10955268,-0.005399543,1,0,0,1.606,rock_grid_rect_2,6,10,-1,-1,1.606,-0.125300429,-0.402545709,1,0,0,7.0635,Pegmatite_rect,6,7.063,1,9,0,9,0,1,,,,,,,,,,,,,
6600e448ba586d5854beb30d,TCN,2024-06-25_13h50.40.702,LearnStrategy,2023.2.3,MacIntel,62.5,6,1,11,0.09472168,-0.0036301,1,0,0,0.9382,rock_grid_rect_2,7,10,-1,-1,0.938,0.146059706,-0.387342801,1,0,0,8.31,Peridotite_rect,7,8.31,1,10,0,10,0,1,,,,,,,,,,,,,
6600e448ba586d5854beb30d,TCN,2024-06-25_13h50.40.702,LearnStrategy,2023.2.3,MacIntel,62.5,6,1,12,0.133825548,-0.003894552,1,0,0,1.1868,rock_grid_rect_2,1,09,-1,-1,1.187,-0.401404283,-0.240333184,1,0,0,1.5493,Andesite_rect,1,1.549,1,11,0,11,0,1,,,,,,,,,,,,,
6600e448ba586d5854beb30d,TCN,2024-06-25_13h50.40.702,LearnStrategy,2023.2.3,MacIntel,62.5,6,1,13,0.170182156,0.00910119,1,0,0,1.0242,rock_grid_rect_2,1,06,-1,-1,1.024,-0.34452223,-0.241458808,1,0,0,2.9238,Andesite_rect,1,2.924,1,12,0,12,0,1,,,,,,,,,,,,,
6600e448ba586d5854beb30d,TCN,2024-06-25_13h50.40.702,LearnStrategy,2023.2.3,MacIntel,62.5,6,1,14,0.119130792,-0.024510295,1,0,0,0.8857,rock_grid_rect_2,3,12,-1,-1,0.886,0.148878581,-0.235756972,1,0,0,6.8271,Diorite_rect,3,6.827,1,13,0,13,0,1,,,,,,,,,,,,,
6600e448ba586d5854beb30d,TCN,2024-06-25_13h50.40.702,LearnStrategy,2023.2.3,MacIntel,62.5,6,1,15,0.100105591,-0.006303067,1,0,0,1.0658,rock_grid_rect_2,5,06,-1,-1,1.066,-0.389514296,-0.389910889,1,0,0,1.3721,Obsidian_rect,5,1.372,1,14,0,14,0,1,,,,,,,,,,,,,
6600e448ba586d5854beb30d,TCN,2024-06-25_13h50.40.702,LearnStrategy,2023.2.3,MacIntel,62.5,6,1,16,0.102626072,0.013710632,1,0,0,0.8809,rock_grid_rect_2,2,12,-1,-1,0.881,-0.085765584,-0.234926487,1,0,0,2.59,Basalt_rect,2,2.59,1,15,0,15,0,1,,,,,,,,,,,,,
6600e448ba586d5854beb30d,TCN,2024-06-25_13h50.40.702,LearnStrategy,2023.2.3,MacIntel,62.5,6,2,1,,,,,,,,6,09,,,,,,,,,,,6,1.698,1,,,,,,-0.138788723,-0.396539442,1,0,0,1.6984,Pegmatite_rect,0,0,0,0,1,
6600e448ba586d5854beb30d,TCN,2024-06-25_13h50.40.702,LearnStrategy,2023.2.3,MacIntel,62.5,6,2,2,,,,,,,,4,12,,,,,,,,,,,1,8.783,0,,,,,,-0.324556139,-0.251865167,1,0,0,8.7825,Andesite_rect,1,0,1,0,1,
6600e448ba586d5854beb30d,TCN,2024-06-25_13h50.40.702,LearnStrategy,2023.2.3,MacIntel,62.5,6,2,3,,,,,,,,2,10,,,,,,,,,,,4,3.324,0,,,,,,0.372090658,-0.25121209,1,0,0,3.3242,Gabbro_rect,2,0,2,0,1,
6600e448ba586d5854beb30d,TCN,2024-06-25_13h50.40.702,LearnStrategy,2023.2.3,MacIntel,62.5,6,2,4,,,,,,,,2,06,,,,,,,,,,,2,1.282,1,,,,,,-0.104992133,-0.250547282,1,0,0,1.2818,Basalt_rect,3,0,3,0,1,
6600e448ba586d5854beb30d,TCN,2024-06-25_13h50.40.702,LearnStrategy,2023.2.3,MacIntel,62.5,6,2,5,,,,,,,,3,09,,,,,,,,,,,3,1.487,1,,,,,,0.130645209,-0.263130086,1,0,0,1.4875,Diorite_rect,4,0,4,0,1,
6600e448ba586d5854beb30d,TCN,2024-06-25_13h50.40.702,LearnStrategy,2023.2.3,MacIntel,62.5,6,2,6,,,,,,,,6,07,,,,,,,,,,,6,1.497,1,,,,,,-0.135361464,-0.410752157,1,0,0,1.4973,Pegmatite_rect,5,0,5,0,1,
6600e448ba586d5854beb30d,TCN,2024-06-25_13h50.40.702,LearnStrategy,2023.2.3,MacIntel,62.5,6,2,7,,,,,,,,8,13,,,,,,,,,,,8,2.872,1,,,,,,0.380334066,-0.388110284,1,0,0,2.8722,Pumice_rect,6,0,6,0,1,
6600e448ba586d5854beb30d,TCN,2024-06-25_13h50.40.702,LearnStrategy,2023.2.3,MacIntel,62.5,6,2,8,,,,,,,,1,07,,,,,,,,,,,3,24.041,0,,,,,,0.147012126,-0.254696113,1,0,0,24.0415,Diorite_rect,7,0,7,0,1,
6600e448ba586d5854beb30d,TCN,2024-06-25_13h50.40.702,LearnStrategy,2023.2.3,MacIntel,62.5,6,2,9,,,,,,,,5,04,,,,,,,,,,,5,1.509,1,,,,,,-0.399080709,-0.41588718,1,0,0,1.5088,Obsidian_rect,8,0,8,0,1,
6600e448ba586d5854beb30d,TCN,2024-06-25_13h50.40.702,LearnStrategy,2023.2.3,MacIntel,62.5,6,2,10,,,,,,,,3,11,,,,,,,,,,,3,8.655,1,,,,,,0.081183607,-0.23864129,1,0,0,8.6548,Diorite_rect,9,0,9,0,1,
6600e448ba586d5854beb30d,TCN,2024-06-25_13h50.40.702,LearnStrategy,2023.2.3,MacIntel,62.5,6,2,11,,,,,,,,7,04,,,,,,,,,,,7,35.513,1,,,,,,0.12192376,-0.393284709,1,0,0,35.5133,Peridotite_rect,10,0,10,0,1,
6600e448ba586d5854beb30d,TCN,2024-06-25_13h50.40.702,LearnStrategy,2023.2.3,MacIntel,62.5,6,2,12,,,,,,,,4,15,,,,,,,,,,,4,19.342,1,,,,,,0.327963664,-0.257691311,1,0,0,19.3417,Gabbro_rect,11,0,11,0,1,
6600e448ba586d5854beb30d,TCN,2024-06-25_13h50.40.702,LearnStrategy,2023.2.3,MacIntel,62.5,6,2,13,,,,,,,,8,02,,,,,,,,,,,8,1.526,1,,,,,,0.374979519,-0.393676622,1,0,0,1.5255,Pumice_rect,12,0,12,0,1,
6600e448ba586d5854beb30d,TCN,2024-06-25_13h50.40.702,LearnStrategy,2023.2.3,MacIntel,62.5,6,2,14,,,,,,,,7,15,,,,,,,,,,,7,1.268,1,,,,,,0.179103868,-0.39899821,1,0,0,1.2684,Peridotite_rect,13,0,13,0,1,
6600e448ba586d5854beb30d,TCN,2024-06-25_13h50.40.702,LearnStrategy,2023.2.3,MacIntel,62.5,6,2,15,,,,,,,,1,16,,,,,,,,,,,1,39.952,1,,,,,,-0.409649319,-0.255267673,1,0,0,39.9524,Andesite_rect,14,0,14,0,1,
6600e448ba586d5854beb30d,TCN,2024-06-25_13h50.40.702,LearnStrategy,2023.2.3,MacIntel,62.5,6,2,16,,,,,,,,5,08,,,,,,,,,,,5,1.439,1,,,,,,-0.350965915,-0.387350125,1,0,0,1.4395,Obsidian_rect,15,0,15,0,1,
6600e448ba586d5854beb30d,TCN,2024-06-25_13h50.40.702,LearnStrategy,2023.2.3,MacIntel,62.5,7,1,1,0.148300442,0.011559482,1,0,0,14.6238,rock_grid_rect_2,6,10,-1,-1,14.624,-0.121074287,-0.415428874,1,0,0,1.8128,Pegmatite_rect,6,1.813,1,0,0,0,0,1,,,,,,,,,,,,,
6600e448ba586d5854beb30d,TCN,2024-06-25_13h50.40.702,LearnStrategy,2023.2.3,MacIntel,62.5,7,1,2,0.048685167,0.001774394,1,0,0,0.9809,rock_grid_rect_2,7,05,-1,-1,0.981,0.115388251,-0.404547662,1,0,0,2.9452,Peridotite_rect,7,2.945,1,1,0,1,0,1,,,,,,,,,,,,,
6600e448ba586d5854beb30d,TCN,2024-06-25_13h50.40.702,LearnStrategy,2023.2.3,MacIntel,62.5,7,1,3,0.097931858,0.006199578,1,0,0,0.8866,rock_grid_rect_2,3,13,-1,-1,0.887,0.140085788,-0.256417575,1,0,0,1.8906,Diorite_rect,3,1.891,1,2,0,2,0,1,,,,,,,,,,,,,
6600e448ba586d5854beb30d,TCN,2024-06-25_13h50.40.702,LearnStrategy,2023.2.3,MacIntel,62.5,7,1,4,0.084155002,0.009026964,1,0,0,0.9236,rock_grid_rect_2,8,05,-1,-1,0.924,0.373196072,-0.384929335,1,0,0,1.6643,Pumice_rect,8,1.664,1,3,0,3,0,1,,,,,,,,,,,,,
6600e448ba586d5854beb30d,TCN,2024-06-25_13h50.40.702,LearnStrategy,2023.2.3,MacIntel,62.5,7,1,5,0.130656128,0.014185011,1,0,0,0.7957,rock_grid_rect_2,1,03,-1,-1,0.796,-0.425209317,-0.234166463,1,0,0,1.7378,Andesite_rect,1,1.738,1,4,0,4,0,1,,,,,,,,,,,,,
6600e448ba586d5854beb30d,TCN,2024-06-25_13h50.40.702,LearnStrategy,2023.2.3,MacIntel,62.5,7,1,6,-0.028277995,0.000514526,1,0,0,1.0822,rock_grid_rect_2,7,02,-1,-1,1.082,0.107896525,-0.379248589,1,0,0,1.5741,Peridotite_rect,7,1.574,1,5,0,5,0,1,,,,,,,,,,,,,
6600e448ba586d5854beb30d,TCN,2024-06-25_13h50.40.702,LearnStrategy,2023.2.3,MacIntel,62.5,7,1,7,0.036229112,-0.016388957,1,0,0,0.8153,rock_grid_rect_2,1,06,-1,-1,0.815,-0.383272536,-0.244037408,1,0,0,2.5433,Andesite_rect,1,2.543,1,6,0,6,0,1,,,,,,,,,,,,,
6600e448ba586d5854beb30d,TCN,2024-06-25_13h50.40.702,LearnStrategy,2023.2.3,MacIntel,62.5,7,1,8,0.052140978,-0.013958537,1,0,0,0.8498,rock_grid_rect_2,4,16,-1,-1,0.85,0.359773899,-0.254891222,1,0,0,1.8299,Gabbro_rect,4,1.83,1,7,0,7,0,1,,,,,,,,,,,,,
6600e448ba586d5854beb30d,TCN,2024-06-25_13h50.40.702,LearnStrategy,2023.2.3,MacIntel,62.5,7,1,9,0.062326525,0.014014994,1,0,0,1.4287,rock_grid_rect_2,2,11,-1,-1,1.429,-0.129784546,-0.270097182,1,0,0,7.827,Basalt_rect,2,7.827,1,8,0,8,0,1,,,,,,,,,,,,,
6600e448ba586d5854beb30d,TCN,2024-06-25_13h50.40.702,LearnStrategy,2023.2.3,MacIntel,62.5,7,1,10,0.010608995,-0.016414524,1,0,0,0.9925,rock_grid_rect_2,2,04,-1,-1,0.992,-0.128246324,-0.231780599,1,0,0,2.5514,Basalt_rect,2,2.551,1,9,0,9,0,1,,,,,,,,,,,,,
6600e448ba586d5854beb30d,TCN,2024-06-25_13h50.40.702,LearnStrategy,2023.2.3,MacIntel,62.5,7,1,11,0.020939128,0.005275913,1,0,0,1.6439,rock_grid_rect_2,8,04,-1,-1,1.644,0.387958849,-0.388793199,1,0,0,1.5637,Pumice_rect,8,1.564,1,10,0,10,0,1,,,,,,,,,,,,,
6600e448ba586d5854beb30d,TCN,2024-06-25_13h50.40.702,LearnStrategy,2023.2.3,MacIntel,62.5,7,1,12,0.004136692,0.007098321,1,0,0,0.8194,rock_grid_rect_2,4,03,-1,-1,0.819,0.132690091,-0.257197944,1,0,0,2.1184,Diorite_rect,3,2.118,0,11,0,11,0,1,,,,,,,,,,,,,
6600e448ba586d5854beb30d,TCN,2024-06-25_13h50.40.702,LearnStrategy,2023.2.3,MacIntel,62.5,7,1,13,0.087369792,0.011346842,1,0,0,0.8382,rock_grid_rect_2,6,03,-1,-1,0.838,-0.143305732,-0.392597928,1,0,0,1.3556,Pegmatite_rect,6,1.356,1,12,0,12,0,1,,,,,,,,,,,,,
6600e448ba586d5854beb30d,TCN,2024-06-25_13h50.40.702,LearnStrategy,2023.2.3,MacIntel,62.5,7,1,14,0.080754801,-0.007167935,1,0,0,0.9444,rock_grid_rect_2,5,07,-1,-1,0.944,-0.437824266,-0.416768528,1,0,0,1.309,Obsidian_rect,5,1.309,1,13,0,13,0,1,,,,,,,,,,,,,
6600e448ba586d5854beb30d,TCN,2024-06-25_13h50.40.702,LearnStrategy,2023.2.3,MacIntel,62.5,7,1,15,0.10270752,0.012449443,1,0,0,0.8612,rock_grid_rect_2,5,09,-1,-1,0.861,-0.425355292,-0.398889838,1,0,0,1.1096,Obsidian_rect,5,1.11,1,14,0,14,0,1,,,,,,,,,,,,,
6600e448ba586d5854beb30d,TCN,2024-06-25_13h50.40.702,LearnStrategy,2023.2.3,MacIntel,62.5,7,1,16,0.004593302,0.01238739,1,0,0,1.1668,rock_grid_rect_2,3,15,-1,-1,1.167,0.198228828,-0.261124674,1,0,0,3.8246,Diorite_rect,3,3.825,1,15,0,15,0,1,,,,,,,,,,,,,
6600e448ba586d5854beb30d,TCN,2024-06-25_13h50.40.702,LearnStrategy,2023.2.3,MacIntel,62.5,7,2,1,,,,,,,,3,10,,,,,,,,,,,7,3.689,0,,,,,,0.133014052,-0.398564114,1,0,0,3.689,Peridotite_rect,0,0,0,0,1,
6600e448ba586d5854beb30d,TCN,2024-06-25_13h50.40.702,LearnStrategy,2023.2.3,MacIntel,62.5,7,2,2,,,,,,,,2,06,,,,,,,,,,,2,1.019,1,,,,,,-0.140758938,-0.248242527,1,0,0,1.0185,Basalt_rect,1,0,1,0,1,
6600e448ba586d5854beb30d,TCN,2024-06-25_13h50.40.702,LearnStrategy,2023.2.3,MacIntel,62.5,7,2,3,,,,,,,,7,15,,,,,,,,,,,7,1.337,1,,,,,,0.113572862,-0.384167277,1,0,0,1.3368,Peridotite_rect,2,0,2,0,1,
6600e448ba586d5854beb30d,TCN,2024-06-25_13h50.40.702,LearnStrategy,2023.2.3,MacIntel,62.5,7,2,4,,,,,,,,1,14,,,,,,,,,,,6,1.59,0,,,,,,-0.162466295,-0.379157647,1,0,0,1.5899,Pegmatite_rect,3,0,3,0,1,
6600e448ba586d5854beb30d,TCN,2024-06-25_13h50.40.702,LearnStrategy,2023.2.3,MacIntel,62.5,7,2,5,,,,,,,,5,10,,,,,,,,,,,5,1.24,1,,,,,,-0.356728617,-0.391054823,1,0,0,1.2402,Obsidian_rect,4,0,4,0,1,
6600e448ba586d5854beb30d,TCN,2024-06-25_13h50.40.702,LearnStrategy,2023.2.3,MacIntel,62.5,7,2,6,,,,,,,,1,16,,,,,,,,,,,4,5.301,0,,,,,,0.414559055,-0.236930881,1,0,0,5.3013,Gabbro_rect,5,0,5,0,1,
6600e448ba586d5854beb30d,TCN,2024-06-25_13h50.40.702,LearnStrategy,2023.2.3,MacIntel,62.5,7,2,7,,,,,,,,8,13,,,,,,,,,,,8,2.108,1,,,,,,0.429715169,-0.397360975,1,0,0,2.1083,Pumice_rect,6,0,6,0,1,
6600e448ba586d5854beb30d,TCN,2024-06-25_13h50.40.702,LearnStrategy,2023.2.3,MacIntel,62.5,7,2,8,,,,,,,,3,16,,,,,,,,,,,3,20.612,1,,,,,,0.166624146,-0.245836995,1,0,0,20.6122,Diorite_rect,7,0,7,0,1,
6600e448ba586d5854beb30d,TCN,2024-06-25_13h50.40.702,LearnStrategy,2023.2.3,MacIntel,62.5,7,2,9,,,,,,,,4,01,,,,,,,,,,,7,2.419,0,,,,,,0.149426744,-0.413269111,1,0,0,2.4189,Peridotite_rect,8,0,8,0,1,
6600e448ba586d5854beb30d,TCN,2024-06-25_13h50.40.702,LearnStrategy,2023.2.3,MacIntel,62.5,7,2,10,,,,,,,,6,09,,,,,,,,,,,6,1.471,1,,,,,,-0.109649319,-0.404801771,1,0,0,1.4715,Pegmatite_rect,9,0,9,0,1,
6600e448ba586d5854beb30d,TCN,2024-06-25_13h50.40.702,LearnStrategy,2023.2.3,MacIntel,62.5,7,2,11,,,,,,,,7,07,,,,,,,,,,,7,1.585,1,,,,,,0.120284017,-0.411707221,1,0,0,1.5848,Peridotite_rect,10,0,10,0,1,
6600e448ba586d5854beb30d,TCN,2024-06-25_13h50.40.702,LearnStrategy,2023.2.3,MacIntel,62.5,7,2,12,,,,,,,,2,02,,,,,,,,,,,2,1.185,1,,,,,,-0.134258219,-0.246776326,1,0,0,1.1854,Basalt_rect,11,0,11,0,1,
6600e448ba586d5854beb30d,TCN,2024-06-25_13h50.40.702,LearnStrategy,2023.2.3,MacIntel,62.5,7,2,13,,,,,,,,5,05,,,,,,,,,,,5,1.294,1,,,,,,-0.374821879,-0.386495294,1,0,0,1.2944,Obsidian_rect,12,0,12,0,1,
6600e448ba586d5854beb30d,TCN,2024-06-25_13h50.40.702,LearnStrategy,2023.2.3,MacIntel,62.5,7,2,14,,,,,,,,8,02,,,,,,,,,,,8,1.529,1,,,,,,0.335721707,-0.394953817,1,0,0,1.5287,Pumice_rect,13,0,13,0,1,
6600e448ba586d5854beb30d,TCN,2024-06-25_13h50.40.702,LearnStrategy,2023.2.3,MacIntel,62.5,7,2,15,,,,,,,,6,05,,,,,,,,,,,6,1.256,1,,,,,,-0.086598511,-0.398249851,1,0,0,1.2559,Pegmatite_rect,14,0,14,0,1,
6600e448ba586d5854beb30d,TCN,2024-06-25_13h50.40.702,LearnStrategy,2023.2.3,MacIntel,62.5,7,2,16,,,,,,,,4,12,,,,,,,,,,,4,26.79,1,,,,,,0.38273112,-0.255899183,1,0,0,26.7902,Gabbro_rect,15,0,15,0,1,
6600e448ba586d5854beb30d,TCN,2024-06-25_13h50.40.702,LearnStrategy,2023.2.3,MacIntel,62.5,8,1,1,-0.008103231,-0.019746263,1,0,0,3.1032,rock_grid_rect_2,8,09,-1,-1,3.103,0.387809109,-0.396642524,1,0,0,1.7601,Pumice_rect,8,1.76,1,0,0,0,0,1,,,,,,,,,,,,,
6600e448ba586d5854beb30d,TCN,2024-06-25_13h50.40.702,LearnStrategy,2023.2.3,MacIntel,62.5,8,1,2,0.081073134,-0.012740072,1,0,0,1.0507,rock_grid_rect_2,2,05,-1,-1,1.051,-0.116208428,-0.247549913,1,0,0,1.1694,Basalt_rect,2,1.169,1,1,0,1,0,1,,,,,,,,,,,,,
6600e448ba586d5854beb30d,TCN,2024-06-25_13h50.40.702,LearnStrategy,2023.2.3,MacIntel,62.5,8,1,3,0.035426975,0.024355062,1,0,0,0.8686,rock_grid_rect_2,7,10,-1,-1,0.869,0.109899767,-0.392878689,1,0,0,1.4087,Peridotite_rect,7,1.409,1,2,0,2,0,1,,,,,,,,,,,,,
6600e448ba586d5854beb30d,TCN,2024-06-25_13h50.40.702,LearnStrategy,2023.2.3,MacIntel,62.5,8,1,4,0.080507067,-0.01745636,1,0,0,0.916,rock_grid_rect_2,1,02,-1,-1,0.916,0.156747301,-0.250172933,1,0,0,7.8816,Diorite_rect,3,7.882,0,3,0,3,0,1,,,,,,,,,,,,,
6600e448ba586d5854beb30d,TCN,2024-06-25_13h50.40.702,LearnStrategy,2023.2.3,MacIntel,62.5,8,1,5,0.102811347,-0.003763936,1,0,0,0.838,rock_grid_rect_2,8,15,-1,-1,0.838,0.409682753,-0.378362155,1,0,0,1.847,Pumice_rect,8,1.847,1,4,0,4,0,1,,,,,,,,,,,,,
6600e448ba586d5854beb30d,TCN,2024-06-25_13h50.40.702,LearnStrategy,2023.2.3,MacIntel,62.5,8,1,6,0.039386597,0.014174567,1,0,0,0.7537,rock_grid_rect_2,1,11,-1,-1,0.754,-0.384202915,-0.242078925,1,0,0,1.9535,Andesite_rect,1,1.954,1,5,0,5,0,1,,,,,,,,,,,,,
6600e448ba586d5854beb30d,TCN,2024-06-25_13h50.40.702,LearnStrategy,2023.2.3,MacIntel,62.5,8,1,7,0.049544135,-0.013798659,1,0,0,0.8663,rock_grid_rect_2,4,08,-1,-1,0.866,0.376545275,-0.251333279,1,0,0,4.9079,Gabbro_rect,4,4.908,1,6,0,6,0,1,,,,,,,,,,,,,
6600e448ba586d5854beb30d,TCN,2024-06-25_13h50.40.702,LearnStrategy,2023.2.3,MacIntel,62.5,8,1,8,0.096931695,0.004605611,1,0,0,1.2961,rock_grid_rect_2,7,12,-1,-1,1.296,0.138779975,-0.4109257,1,0,0,4.0377,Peridotite_rect,7,4.038,1,7,0,7,0,1,,,,,,,,,,,,,
6600e448ba586d5854beb30d,TCN,2024-06-25_13h50.40.702,LearnStrategy,2023.2.3,MacIntel,62.5,8,1,9,0.059545288,-0.00697408,1,0,0,0.7964,rock_grid_rect_2,4,13,-1,-1,0.796,0.379858805,-0.236117689,1,0,0,1.6791,Gabbro_rect,4,1.679,1,8,0,8,0,1,,,,,,,,,,,,,
6600e448ba586d5854beb30d,TCN,2024-06-25_13h50.40.702,LearnStrategy,2023.2.3,MacIntel,62.5,8,1,10,0.078532918,0.015437181,1,0,0,0.9064,rock_grid_rect_2,3,06,-1,-1,0.906,0.1147543,-0.231602444,1,0,0,7.0672,Diorite_rect,3,7.067,1,9,0,9,0,1,,,,,,,,,,,,,
6600e448ba586d5854beb30d,TCN,2024-06-25_13h50.40.702,LearnStrategy,2023.2.3,MacIntel,62.5,8,1,11,0.069064535,-0.017491014,1,0,0,0.9851,rock_grid_rect_2,3,14,-1,-1,0.985,0.126924371,-0.267668864,1,0,0,3.7865,Diorite_rect,3,3.786,1,10,0,10,0,1,,,,,,,,,,,,,
6600e448ba586d5854beb30d,TCN,2024-06-25_13h50.40.702,LearnStrategy,2023.2.3,MacIntel,62.5,8,1,12,0.064808757,-0.009963786,1,0,0,1.0691,rock_grid_rect_2,2,16,-1,-1,1.069,0.353805339,-0.243944973,1,0,0,2.8018,Gabbro_rect,4,2.802,0,11,0,11,0,1,,,,,,,,,,,,,
6600e448ba586d5854beb30d,TCN,2024-06-25_13h50.40.702,LearnStrategy,2023.2.3,MacIntel,62.5,8,1,13,0.055083008,-0.000254483,1,0,0,1.0954,rock_grid_rect_2,5,06,-1,-1,1.095,-0.359143202,-0.394122111,1,0,0,1.2142,Obsidian_rect,5,1.214,1,12,0,12,0,1,,,,,,,,,,,,,
6600e448ba586d5854beb30d,TCN,2024-06-25_13h50.40.702,LearnStrategy,2023.2.3,MacIntel,62.5,8,1,14,0.000386285,0.003456421,1,0,0,4.1055,rock_grid_rect_2,6,11,-1,-1,4.105,-0.137099474,-0.393199802,1,0,0,2.4504,Pegmatite_rect,6,2.45,1,13,0,13,0,1,,,,,,,,,,,,,
6600e448ba586d5854beb30d,TCN,2024-06-25_13h50.40.702,LearnStrategy,2023.2.3,MacIntel,62.5,8,1,15,0.042794664,-0.018914015,1,0,0,5.925,rock_grid_rect_2,5,11,-1,-1,5.925,-0.379686008,-0.397091336,1,0,0,1.36,Obsidian_rect,5,1.36,1,14,0,14,0,1,,,,,,,,,,,,,
6600e448ba586d5854beb30d,TCN,2024-06-25_13h50.40.702,LearnStrategy,2023.2.3,MacIntel,62.5,8,1,16,0.051429104,0.011860012,1,0,0,1.1174,rock_grid_rect_2,6,15,-1,-1,1.117,-0.118487549,-0.392145725,1,0,0,1.4527,Pegmatite_rect,6,1.453,1,15,0,15,0,1,,,,,,,,,,,,,
6600e448ba586d5854beb30d,TCN,2024-06-25_13h50.40.702,LearnStrategy,2023.2.3,MacIntel,62.5,8,2,1,,,,,,,,2,08,,,,,,,,,,,2,1.846,1,,,,,,-0.111033054,-0.245841336,1,0,0,1.8464,Basalt_rect,0,0,0,0,1,
6600e448ba586d5854beb30d,TCN,2024-06-25_13h50.40.702,LearnStrategy,2023.2.3,MacIntel,62.5,8,2,2,,,,,,,,6,16,,,,,,,,,,,6,1.222,1,,,,,,-0.118059014,-0.419168091,1,0,0,1.222,Pegmatite_rect,1,0,1,0,1,
6600e448ba586d5854beb30d,TCN,2024-06-25_13h50.40.702,LearnStrategy,2023.2.3,MacIntel,62.5,8,2,3,,,,,,,,5,02,,,,,,,,,,,5,1.403,1,,,,,,-0.374520196,-0.391309136,1,0,0,1.4029,Obsidian_rect,2,0,2,0,1,
6600e448ba586d5854beb30d,TCN,2024-06-25_13h50.40.702,LearnStrategy,2023.2.3,MacIntel,62.5,8,2,4,,,,,,,,1,07,,,,,,,,,,,4,68.451,0,,,,,,0.407219781,-0.259211155,1,0,0,68.4509,Gabbro_rect,3,0,3,0,1,
6600e448ba586d5854beb30d,TCN,2024-06-25_13h50.40.702,LearnStrategy,2023.2.3,MacIntel,62.5,8,2,5,,,,,,,,6,13,,,,,,,,,,,6,1.941,1,,,,,,-0.133937514,-0.398410577,1,0,0,1.9409,Pegmatite_rect,4,0,4,0,1,
6600e448ba586d5854beb30d,TCN,2024-06-25_13h50.40.702,LearnStrategy,2023.2.3,MacIntel,62.5,8,2,6,,,,,,,,3,09,,,,,,,,,,,3,12.441,1,,,,,,0.126440904,-0.249957886,1,0,0,12.4414,Diorite_rect,5,0,5,0,1,
6600e448ba586d5854beb30d,TCN,2024-06-25_13h50.40.702,LearnStrategy,2023.2.3,MacIntel,62.5,8,2,7,,,,,,,,3,11,,,,,,,,,,,7,3.39,0,,,,,,0.126686062,-0.420789049,1,0,0,3.3898,Peridotite_rect,6,0,6,0,1,
6600e448ba586d5854beb30d,TCN,2024-06-25_13h50.40.702,LearnStrategy,2023.2.3,MacIntel,62.5,8,2,8,,,,,,,,7,13,,,,,,,,,,,7,0.759,1,,,,,,0.126686062,-0.420789049,1,0,0,0.7588,Peridotite_rect,7,0,7,0,1,
6600e448ba586d5854beb30d,TCN,2024-06-25_13h50.40.702,LearnStrategy,2023.2.3,MacIntel,62.5,8,2,9,,,,,,,,7,14,,,,,,,,,,,7,1.896,1,,,,,,0.116618585,-0.403832601,1,0,0,1.8955,Peridotite_rect,8,0,8,0,1,
6600e448ba586d5854beb30d,TCN,2024-06-25_13h50.40.702,LearnStrategy,2023.2.3,MacIntel,62.5,8,2,10,,,,,,,,1,04,,,,,,,,,,,1,1.795,1,,,,,,-0.353709378,-0.236779989,1,0,0,1.7954,Andesite_rect,9,0,9,0,1,
6600e448ba586d5854beb30d,TCN,2024-06-25_13h50.40.702,LearnStrategy,2023.2.3,MacIntel,62.5,8,2,11,,,,,,,,4,10,,,,,,,,,,,4,10.105,1,,,,,,0.380548774,-0.235860731,1,0,0,10.105,Gabbro_rect,10,0,10,0,1,
6600e448ba586d5854beb30d,TCN,2024-06-25_13h50.40.702,LearnStrategy,2023.2.3,MacIntel,62.5,8,2,12,,,,,,,,5,08,,,,,,,,,,,5,1.335,1,,,,,,-0.413282606,-0.406057807,1,0,0,1.3348,Obsidian_rect,11,0,11,0,1,
6600e448ba586d5854beb30d,TCN,2024-06-25_13h50.40.702,LearnStrategy,2023.2.3,MacIntel,62.5,8,2,13,,,,,,,,4,05,,,,,,,,,,,4,2.813,1,,,,,,0.416453315,-0.254791938,1,0,0,2.8133,Gabbro_rect,12,0,12,0,1,
6600e448ba586d5854beb30d,TCN,2024-06-25_13h50.40.702,LearnStrategy,2023.2.3,MacIntel,62.5,8,2,14,,,,,,,,8,08,,,,,,,,,,,8,1.742,1,,,,,,0.395614963,-0.408046536,1,0,0,1.7418,Pumice_rect,13,0,13,0,1,
6600e448ba586d5854beb30d,TCN,2024-06-25_13h50.40.702,LearnStrategy,2023.2.3,MacIntel,62.5,8,2,15,,,,,,,,2,10,,,,,,,,,,,2,17.97,1,,,,,,-0.102418077,-0.25088345,1,0,0,17.9695,Basalt_rect,14,0,14,0,1,
6600e448ba586d5854beb30d,TCN,2024-06-25_13h50.40.702,LearnStrategy,2023.2.3,MacIntel,62.5,8,2,16,,,,,,,,8,16,,,,,,,,,,,8,2.288,1,,,,,,0.388589817,-0.381972521,1,0,0,2.2877,Pumice_rect,15,0,15,0,1,
6600e448ba586d5854beb30d,TCN,2024-06-25_13h50.40.702,LearnStrategy,2023.2.3,MacIntel,62.5,9,1,1,0.035102539,-0.000243123,1,0,0,3.5886,rock_grid_rect_2,6,08,-1,-1,3.589,-0.123380466,-0.405293308,1,0,0,2.0009,Pegmatite_rect,6,2.001,1,0,0,0,0,1,,,,,,,,,,,,,
6600e448ba586d5854beb30d,TCN,2024-06-25_13h50.40.702,LearnStrategy,2023.2.3,MacIntel,62.5,9,1,2,0.04437066,0.001417982,1,0,0,1.2646,rock_grid_rect_2,4,09,-1,-1,1.265,0.380103895,-0.246166517,1,0,0,2.9657,Gabbro_rect,4,2.966,1,1,0,1,0,1,,,,,,,,,,,,,
6600e448ba586d5854beb30d,TCN,2024-06-25_13h50.40.702,LearnStrategy,2023.2.3,MacIntel,62.5,9,1,3,0.057641873,0.022262438,1,0,0,1.0956,rock_grid_rect_2,7,06,-1,-1,1.096,-0.117609456,-0.408827379,1,0,0,3.6328,Pegmatite_rect,6,3.633,0,2,0,2,0,1,,,,,,,,,,,,,
6600e448ba586d5854beb30d,TCN,2024-06-25_13h50.40.702,LearnStrategy,2023.2.3,MacIntel,62.5,9,1,4,0.105254991,-0.016634182,1,0,0,0.8501,rock_grid_rect_2,3,02,-1,-1,0.85,0.113437636,-0.238191461,1,0,0,1.4958,Diorite_rect,3,1.496,1,3,0,3,0,1,,,,,,,,,,,,,
6600e448ba586d5854beb30d,TCN,2024-06-25_13h50.40.702,LearnStrategy,2023.2.3,MacIntel,62.5,9,1,5,0.081037191,-0.015852966,1,0,0,0.8878,rock_grid_rect_2,8,14,-1,-1,0.888,0.37932034,-0.385395237,1,0,0,1.2803,Pumice_rect,8,1.28,1,4,0,4,0,1,,,,,,,,,,,,,
6600e448ba586d5854beb30d,TCN,2024-06-25_13h50.40.702,LearnStrategy,2023.2.3,MacIntel,62.5,9,1,6,0.023084581,0.007890388,1,0,0,0.8773,rock_grid_rect_2,1,01,-1,-1,0.877,-0.350743442,-0.235177002,1,0,0,4.4776,Andesite_rect,1,4.478,1,5,0,5,0,1,,,,,,,,,,,,,
6600e448ba586d5854beb30d,TCN,2024-06-25_13h50.40.702,LearnStrategy,2023.2.3,MacIntel,62.5,9,1,7,0.138828735,0.009946459,1,0,0,1.5391,rock_grid_rect_2,5,16,-1,-1,1.539,-0.340766805,-0.395121799,1,0,0,1.4442,Obsidian_rect,5,1.444,1,6,0,6,0,1,,,,,,,,,,,,,
6600e448ba586d5854beb30d,TCN,2024-06-25_13h50.40.702,LearnStrategy,2023.2.3,MacIntel,62.5,9,1,8,0.131236437,0.018030531,1,0,0,1.1718,rock_grid_rect_2,1,09,-1,-1,1.172,-0.353069729,-0.257946438,1,0,0,2,Andesite_rect,1,2,1,7,0,7,0,1,,,,,,,,,,,,,
6600e448ba586d5854beb30d,TCN,2024-06-25_13h50.40.702,LearnStrategy,2023.2.3,MacIntel,62.5,9,1,9,0.052682427,-0.006713867,1,0,0,0.9344,rock_grid_rect_2,2,12,-1,-1,0.934,-0.116786363,-0.239710422,1,0,0,2.9402,Basalt_rect,2,2.94,1,8,0,8,0,1,,,,,,,,,,,,,
6600e448ba586d5854beb30d,TCN,2024-06-25_13h50.40.702,LearnStrategy,2023.2.3,MacIntel,62.5,9,1,10,0.0271816,-0.01355211,1,0,0,0.8359,rock_grid_rect_2,5,14,-1,-1,0.836,-0.367878384,-0.393949382,1,0,0,1.8193,Obsidian_rect,5,1.819,1,9,0,9,0,1,,,,,,,,,,,,,
6600e448ba586d5854beb30d,TCN,2024-06-25_13h50.40.702,LearnStrategy,2023.2.3,MacIntel,62.5,9,1,11,0.032974311,-0.022085673,1,0,0,0.996,rock_grid_rect_2,4,14,-1,-1,0.996,0.389525011,-0.237635701,1,0,0,2.4559,Gabbro_rect,4,2.456,1,10,0,10,0,1,,,,,,,,,,,,,
6600e448ba586d5854beb30d,TCN,2024-06-25_13h50.40.702,LearnStrategy,2023.2.3,MacIntel,62.5,9,1,12,0.038437093,-0.011208632,1,0,0,0.9766,rock_grid_rect_2,8,06,-1,-1,0.977,0.39459649,-0.398405558,1,0,0,1.7349,Pumice_rect,8,1.735,1,11,0,11,0,1,,,,,,,,,,,,,
6600e448ba586d5854beb30d,TCN,2024-06-25_13h50.40.702,LearnStrategy,2023.2.3,MacIntel,62.5,9,1,13,-0.029165988,-0.003008016,1,0,0,0.8889,rock_grid_rect_2,3,12,-1,-1,0.889,0.121790907,-0.396750285,1,0,0,3.529,Peridotite_rect,7,3.529,0,12,0,12,0,1,,,,,,,,,,,,,
6600e448ba586d5854beb30d,TCN,2024-06-25_13h50.40.702,LearnStrategy,2023.2.3,MacIntel,62.5,9,1,14,0.032656793,-0.020234172,1,0,0,1.004,rock_grid_rect_2,6,06,-1,-1,1.004,-0.106927965,-0.385106337,1,0,0,1.8579,Pegmatite_rect,6,1.858,1,13,0,13,0,1,,,,,,,,,,,,,
6600e448ba586d5854beb30d,TCN,2024-06-25_13h50.40.702,LearnStrategy,2023.2.3,MacIntel,62.5,9,1,15,0.08165507,0.009648675,1,0,0,0.8229,rock_grid_rect_2,7,16,-1,-1,0.823,0.157547607,-0.396637777,1,0,0,1.6257,Peridotite_rect,7,1.626,1,14,0,14,0,1,,,,,,,,,,,,,
6600e448ba586d5854beb30d,TCN,2024-06-25_13h50.40.702,LearnStrategy,2023.2.3,MacIntel,62.5,9,1,16,0.090408868,-0.024564955,1,0,0,0.8324,rock_grid_rect_2,2,01,-1,-1,0.832,-0.152421875,-0.266782566,1,0,0,2.0954,Basalt_rect,2,2.095,1,15,0,15,0,1,,,,,,,,,,,,,
6600e448ba586d5854beb30d,TCN,2024-06-25_13h50.40.702,LearnStrategy,2023.2.3,MacIntel,62.5,9,2,1,,,,,,,,6,07,,,,,,,,,,,6,1.604,1,,,,,,-0.139916992,-0.400543552,1,0,0,1.6041,Pegmatite_rect,0,0,0,0,1,
6600e448ba586d5854beb30d,TCN,2024-06-25_13h50.40.702,LearnStrategy,2023.2.3,MacIntel,62.5,9,2,2,,,,,,,,8,10,,,,,,,,,,,8,1.574,1,,,,,,0.383232693,-0.407547065,1,0,0,1.5735,Pumice_rect,1,0,1,0,1,
6600e448ba586d5854beb30d,TCN,2024-06-25_13h50.40.702,LearnStrategy,2023.2.3,MacIntel,62.5,9,2,3,,,,,,,,2,09,,,,,,,,,,,2,27.101,1,,,,,,-0.092675781,-0.244337429,1,0,0,27.1006,Basalt_rect,2,0,2,0,1,
6600e448ba586d5854beb30d,TCN,2024-06-25_13h50.40.702,LearnStrategy,2023.2.3,MacIntel,62.5,9,2,4,,,,,,,,7,04,,,,,,,,,,,7,27.285,1,,,,,,0.126686062,-0.403452013,1,0,0,27.2847,Peridotite_rect,3,0,3,0,1,
6600e448ba586d5854beb30d,TCN,2024-06-25_13h50.40.702,LearnStrategy,2023.2.3,MacIntel,62.5,9,2,5,,,,,,,,1,10,,,,,,,,,,,1,4.167,1,,,,,,-0.384867554,-0.245694173,1,0,0,4.1672,Andesite_rect,4,0,4,0,1,
6600e448ba586d5854beb30d,TCN,2024-06-25_13h50.40.702,LearnStrategy,2023.2.3,MacIntel,62.5,9,2,6,,,,,,,,6,12,,,,,,,,,,,6,1.334,1,,,,,,-0.190267402,-0.411625027,1,0,0,1.3336,Pegmatite_rect,5,0,5,0,1,
6600e448ba586d5854beb30d,TCN,2024-06-25_13h50.40.702,LearnStrategy,2023.2.3,MacIntel,62.5,9,2,7,,,,,,,,4,11,,,,,,,,,,,4,4.004,1,,,,,,0.405597873,-0.250104709,1,0,0,4.0038,Gabbro_rect,6,0,6,0,1,
6600e448ba586d5854beb30d,TCN,2024-06-25_13h50.40.702,LearnStrategy,2023.2.3,MacIntel,62.5,9,2,8,,,,,,,,7,08,,,,,,,,,,,7,1.381,1,,,,,,0.163483005,-0.394914754,1,0,0,1.381,Peridotite_rect,7,0,7,0,1,
6600e448ba586d5854beb30d,TCN,2024-06-25_13h50.40.702,LearnStrategy,2023.2.3,MacIntel,62.5,9,2,9,,,,,,,,8,03,,,,,,,,,,,8,1.92,1,,,,,,0.397396647,-0.412797241,1,0,0,1.9201,Pumice_rect,8,0,8,0,1,
6600e448ba586d5854beb30d,TCN,2024-06-25_13h50.40.702,LearnStrategy,2023.2.3,MacIntel,62.5,9,2,10,,,,,,,,1,05,,,,,,,,,,,3,8.044,0,,,,,,0.150878092,-0.23499037,1,0,0,8.044,Diorite_rect,9,0,9,0,1,
6600e448ba586d5854beb30d,TCN,2024-06-25_13h50.40.702,LearnStrategy,2023.2.3,MacIntel,62.5,9,2,11,,,,,,,,2,14,,,,,,,,,,,4,1.88,0,,,,,,0.354324951,-0.255051066,1,0,0,1.8801,Gabbro_rect,10,0,10,0,1,
6600e448ba586d5854beb30d,TCN,2024-06-25_13h50.40.702,LearnStrategy,2023.2.3,MacIntel,62.5,9,2,12,,,,,,,,5,04,,,,,,,,,,,5,1.35,1,,,,,,-0.405764567,-0.402049357,1,0,0,1.3502,Obsidian_rect,11,0,11,0,1,
6600e448ba586d5854beb30d,TCN,2024-06-25_13h50.40.702,LearnStrategy,2023.2.3,MacIntel,62.5,9,2,13,,,,,,,,3,08,,,,,,,,,,,3,6.9,1,,,,,,0.143834907,-0.245299072,1,0,0,6.8999,Diorite_rect,12,0,12,0,1,
6600e448ba586d5854beb30d,TCN,2024-06-25_13h50.40.702,LearnStrategy,2023.2.3,MacIntel,62.5,9,2,14,,,,,,,,5,12,,,,,,,,,,,5,1.384,1,,,,,,-0.351617974,-0.399373847,1,0,0,1.3844,Obsidian_rect,13,0,13,0,1,
6600e448ba586d5854beb30d,TCN,2024-06-25_13h50.40.702,LearnStrategy,2023.2.3,MacIntel,62.5,9,2,15,,,,,,,,4,15,,,,,,,,,,,4,4.448,1,,,,,,0.400166829,-0.247844916,1,0,0,4.4485,Gabbro_rect,14,0,14,0,1,
6600e448ba586d5854beb30d,TCN,2024-06-25_13h50.40.702,LearnStrategy,2023.2.3,MacIntel,62.5,9,2,16,,,,,,,,3,07,,,,,,,,,,,3,11.483,1,,,,,,0.154910753,-0.250652059,1,0,0,11.4835,Diorite_rect,15,0,15,0,1,
6600e448ba586d5854beb30d,TCN,2024-06-25_13h50.40.702,LearnStrategy,2023.2.3,MacIntel,62.5,,,,,,,,,,,,,,,,,,,,,,,,,,,,,,,,,,,,,,,,,,,1
6600e448ba586d5854beb30d,TCN,2024-06-25_13h50.40.702,LearnStrategy,2023.2.3,MacIntel,62.5,,,,,,,,,,,,,,,,,,,,,,,,,,,,,,,,,,,,,,,,,,,
6600e448ba586d5854beb30d,TCN,2024-06-25_13h50.40.702,LearnStrategy,2023.2.3,MacIntel,62.5,,,,,,,,,,,5,14,1,1,,,,,,,,,,,,,,,,,,,,,,,,,,,,,
6600e448ba586d5854beb30d,TCN,2024-06-25_13h50.40.702,LearnStrategy,2023.2.3,MacIntel,62.5,,,,,,,,,,,3,02,1,2,,,,,,,,,,,,,,,,,,,,,,,,,,,,,
6600e448ba586d5854beb30d,TCN,2024-06-25_13h50.40.702,LearnStrategy,2023.2.3,MacIntel,62.5,,,,,,,,,,,8,05,1,3,,,,,,,,,,,,,,,,,,,,,,,,,,,,,
6600e448ba586d5854beb30d,TCN,2024-06-25_13h50.40.702,LearnStrategy,2023.2.3,MacIntel,62.5,,,,,,,,,,,1,06,1,4,,,,,,,,,,,,,,,,,,,,,,,,,,,,,
6600e448ba586d5854beb30d,TCN,2024-06-25_13h50.40.702,LearnStrategy,2023.2.3,MacIntel,62.5,,,,,,,,,,,6,06,1,5,,,,,,,,,,,,,,,,,,,,,,,,,,,,,
6600e448ba586d5854beb30d,TCN,2024-06-25_13h50.40.702,LearnStrategy,2023.2.3,MacIntel,62.5,,,,,,,,,,,2,12,1,6,,,,,,,,,,,,,,,,,,,,,,,,,,,,,
6600e448ba586d5854beb30d,TCN,2024-06-25_13h50.40.702,LearnStrategy,2023.2.3,MacIntel,62.5,,,,,,,,,,,3,06,1,7,,,,,,,,,,,,,,,,,,,,,,,,,,,,,
6600e448ba586d5854beb30d,TCN,2024-06-25_13h50.40.702,LearnStrategy,2023.2.3,MacIntel,62.5,,,,,,,,,,,5,09,1,8,,,,,,,,,,,,,,,,,,,,,,,,,,,,,
6600e448ba586d5854beb30d,TCN,2024-06-25_13h50.40.702,LearnStrategy,2023.2.3,MacIntel,62.5,,,,,,,,,,,3,14,2,1,,,,,,,,,,,,,,,,,,,,,,,,,,,,,
6600e448ba586d5854beb30d,TCN,2024-06-25_13h50.40.702,LearnStrategy,2023.2.3,MacIntel,62.5,,,,,,,,,,,2,16,2,2,,,,,,,,,,,,,,,,,,,,,,,,,,,,,
6600e448ba586d5854beb30d,TCN,2024-06-25_13h50.40.702,LearnStrategy,2023.2.3,MacIntel,62.5,,,,,,,,,,,2,01,2,3,,,,,,,,,,,,,,,,,,,,,,,,,,,,,
6600e448ba586d5854beb30d,TCN,2024-06-25_13h50.40.702,LearnStrategy,2023.2.3,MacIntel,62.5,,,,,,,,,,,7,12,2,4,,,,,,,,,,,,,,,,,,,,,,,,,,,,,
6600e448ba586d5854beb30d,TCN,2024-06-25_13h50.40.702,LearnStrategy,2023.2.3,MacIntel,62.5,,,,,,,,,,,4,16,2,5,,,,,,,,,,,,,,,,,,,,,,,,,,,,,
6600e448ba586d5854beb30d,TCN,2024-06-25_13h50.40.702,LearnStrategy,2023.2.3,MacIntel,62.5,,,,,,,,,,,6,03,2,6,,,,,,,,,,,,,,,,,,,,,,,,,,,,,
6600e448ba586d5854beb30d,TCN,2024-06-25_13h50.40.702,LearnStrategy,2023.2.3,MacIntel,62.5,,,,,,,,,,,5,16,2,7,,,,,,,,,,,,,,,,,,,,,,,,,,,,,
6600e448ba586d5854beb30d,TCN,2024-06-25_13h50.40.702,LearnStrategy,2023.2.3,MacIntel,62.5,,,,,,,,,,,7,06,2,8,,,,,,,,,,,,,,,,,,,,,,,,,,,,,
6600e448ba586d5854beb30d,TCN,2024-06-25_13h50.40.702,LearnStrategy,2023.2.3,MacIntel,62.5,,,,,,,,,,,1,02,3,1,,,,,,,,,,,,,,,,,,,,,,,,,,,,,
6600e448ba586d5854beb30d,TCN,2024-06-25_13h50.40.702,LearnStrategy,2023.2.3,MacIntel,62.5,,,,,,,,,,,4,13,3,2,,,,,,,,,,,,,,,,,,,,,,,,,,,,,
6600e448ba586d5854beb30d,TCN,2024-06-25_13h50.40.702,LearnStrategy,2023.2.3,MacIntel,62.5,,,,,,,,,,,7,16,3,3,,,,,,,,,,,,,,,,,,,,,,,,,,,,,
6600e448ba586d5854beb30d,TCN,2024-06-25_13h50.40.702,LearnStrategy,2023.2.3,MacIntel,62.5,,,,,,,,,,,8,04,3,4,,,,,,,,,,,,,,,,,,,,,,,,,,,,,
6600e448ba586d5854beb30d,TCN,2024-06-25_13h50.40.702,LearnStrategy,2023.2.3,MacIntel,62.5,,,,,,,,,,,8,15,3,5,,,,,,,,,,,,,,,,,,,,,,,,,,,,,
6600e448ba586d5854beb30d,TCN,2024-06-25_13h50.40.702,LearnStrategy,2023.2.3,MacIntel,62.5,,,,,,,,,,,1,09,3,6,,,,,,,,,,,,,,,,,,,,,,,,,,,,,
6600e448ba586d5854beb30d,TCN,2024-06-25_13h50.40.702,LearnStrategy,2023.2.3,MacIntel,62.5,,,,,,,,,,,1,03,3,7,,,,,,,,,,,,,,,,,,,,,,,,,,,,,
6600e448ba586d5854beb30d,TCN,2024-06-25_13h50.40.702,LearnStrategy,2023.2.3,MacIntel,62.5,,,,,,,,,,,6,10,3,8,,,,,,,,,,,,,,,,,,,,,,,,,,,,,
6600e448ba586d5854beb30d,TCN,2024-06-25_13h50.40.702,LearnStrategy,2023.2.3,MacIntel,62.5,,,,,,,,,,,8,14,4,1,,,,,,,,,,,,,,,,,,,,,,,,,,,,,
6600e448ba586d5854beb30d,TCN,2024-06-25_13h50.40.702,LearnStrategy,2023.2.3,MacIntel,62.5,,,,,,,,,,,5,06,4,2,,,,,,,,,,,,,,,,,,,,,,,,,,,,,
6600e448ba586d5854beb30d,TCN,2024-06-25_13h50.40.702,LearnStrategy,2023.2.3,MacIntel,62.5,,,,,,,,,,,8,09,4,3,,,,,,,,,,,,,,,,,,,,,,,,,,,,,
6600e448ba586d5854beb30d,TCN,2024-06-25_13h50.40.702,LearnStrategy,2023.2.3,MacIntel,62.5,,,,,,,,,,,2,05,4,4,,,,,,,,,,,,,,,,,,,,,,,,,,,,,
6600e448ba586d5854beb30d,TCN,2024-06-25_13h50.40.702,LearnStrategy,2023.2.3,MacIntel,62.5,,,,,,,,,,,7,10,4,5,,,,,,,,,,,,,,,,,,,,,,,,,,,,,
6600e448ba586d5854beb30d,TCN,2024-06-25_13h50.40.702,LearnStrategy,2023.2.3,MacIntel,62.5,,,,,,,,,,,2,04,4,6,,,,,,,,,,,,,,,,,,,,,,,,,,,,,
6600e448ba586d5854beb30d,TCN,2024-06-25_13h50.40.702,LearnStrategy,2023.2.3,MacIntel,62.5,,,,,,,,,,,7,02,4,7,,,,,,,,,,,,,,,,,,,,,,,,,,,,,
6600e448ba586d5854beb30d,TCN,2024-06-25_13h50.40.702,LearnStrategy,2023.2.3,MacIntel,62.5,,,,,,,,,,,4,09,4,8,,,,,,,,,,,,,,,,,,,,,,,,,,,,,
6600e448ba586d5854beb30d,TCN,2024-06-25_13h50.40.702,LearnStrategy,2023.2.3,MacIntel,62.5,,,,,,,,,,,3,12,5,1,,,,,,,,,,,,,,,,,,,,,,,,,,,,,
6600e448ba586d5854beb30d,TCN,2024-06-25_13h50.40.702,LearnStrategy,2023.2.3,MacIntel,62.5,,,,,,,,,,,3,15,5,2,,,,,,,,,,,,,,,,,,,,,,,,,,,,,
6600e448ba586d5854beb30d,TCN,2024-06-25_13h50.40.702,LearnStrategy,2023.2.3,MacIntel,62.5,,,,,,,,,,,3,13,5,3,,,,,,,,,,,,,,,,,,,,,,,,,,,,,
6600e448ba586d5854beb30d,TCN,2024-06-25_13h50.40.702,LearnStrategy,2023.2.3,MacIntel,62.5,,,,,,,,,,,4,14,5,4,,,,,,,,,,,,,,,,,,,,,,,,,,,,,
6600e448ba586d5854beb30d,TCN,2024-06-25_13h50.40.702,LearnStrategy,2023.2.3,MacIntel,62.5,,,,,,,,,,,6,15,5,5,,,,,,,,,,,,,,,,,,,,,,,,,,,,,
6600e448ba586d5854beb30d,TCN,2024-06-25_13h50.40.702,LearnStrategy,2023.2.3,MacIntel,62.5,,,,,,,,,,,1,11,5,6,,,,,,,,,,,,,,,,,,,,,,,,,,,,,
6600e448ba586d5854beb30d,TCN,2024-06-25_13h50.40.702,LearnStrategy,2023.2.3,MacIntel,62.5,,,,,,,,,,,4,08,5,7,,,,,,,,,,,,,,,,,,,,,,,,,,,,,
6600e448ba586d5854beb30d,TCN,2024-06-25_13h50.40.702,LearnStrategy,2023.2.3,MacIntel,62.5,,,,,,,,,,,5,07,5,8,,,,,,,,,,,,,,,,,,,,,,,,,,,,,
6600e448ba586d5854beb30d,TCN,2024-06-25_13h50.40.702,LearnStrategy,2023.2.3,MacIntel,62.5,,,,,,,,,,,2,11,6,1,,,,,,,,,,,,,,,,,,,,,,,,,,,,,
6600e448ba586d5854beb30d,TCN,2024-06-25_13h50.40.702,LearnStrategy,2023.2.3,MacIntel,62.5,,,,,,,,,,,8,06,6,2,,,,,,,,,,,,,,,,,,,,,,,,,,,,,
6600e448ba586d5854beb30d,TCN,2024-06-25_13h50.40.702,LearnStrategy,2023.2.3,MacIntel,62.5,,,,,,,,,,,7,05,6,3,,,,,,,,,,,,,,,,,,,,,,,,,,,,,
6600e448ba586d5854beb30d,TCN,2024-06-25_13h50.40.702,LearnStrategy,2023.2.3,MacIntel,62.5,,,,,,,,,,,6,08,6,4,,,,,,,,,,,,,,,,,,,,,,,,,,,,,
6600e448ba586d5854beb30d,TCN,2024-06-25_13h50.40.702,LearnStrategy,2023.2.3,MacIntel,62.5,,,,,,,,,,,6,11,6,5,,,,,,,,,,,,,,,,,,,,,,,,,,,,,
6600e448ba586d5854beb30d,TCN,2024-06-25_13h50.40.702,LearnStrategy,2023.2.3,MacIntel,62.5,,,,,,,,,,,5,11,6,6,,,,,,,,,,,,,,,,,,,,,,,,,,,,,
6600e448ba586d5854beb30d,TCN,2024-06-25_13h50.40.702,LearnStrategy,2023.2.3,MacIntel,62.5,,,,,,,,,,,4,03,6,7,,,,,,,,,,,,,,,,,,,,,,,,,,,,,
6600e448ba586d5854beb30d,TCN,2024-06-25_13h50.40.702,LearnStrategy,2023.2.3,MacIntel,62.5,,,,,,,,,,,1,01,6,8,,,,,,,,,,,,,,,,,,,,,,,,,,,,,