participant,condition,date,expName,psychopyVersion,OS,frameRate,block,phase,trial,learn_mouse_2.x,learn_mouse_2.y,learn_mouse_2.leftButton,learn_mouse_2.midButton,learn_mouse_2.rightButton,learn_mouse_2.time,learn_mouse_2.clicked_name,cat,token,row,col,t_select,cat_mouse_l.x,cat_mouse_l.y,cat_mouse_l.leftButton,cat_mouse_l.midButton,cat_mouse_l.rightButton,cat_mouse_l.time,cat_mouse_l.clicked_name,resp,t_resp,corr,train_trials.thisRepN,train_trials.thisTrialN,train_trials.thisN,train_trials.thisIndex,train_trials.ran,cat_mouse_t.x,cat_mouse_t.y,cat_mouse_t.leftButton,cat_mouse_t.midButton,cat_mouse_t.rightButton,cat_mouse_t.time,cat_mouse_t.clicked_name,test_trials.thisRepN,test_trials.thisTrialN,test_trials.thisN,test_trials.thisIndex,test_trials.ran,Bonus
6604722ff70cdd65875e2c6b,TCR,2024-06-24_17h32.59.406,LearnStrategy,2023.2.3,Win32,59.88023952,,,,,,,,,,,,,,,,,,,,,,,,,,,,,,,,,,,,,,,,,,,
6604722ff70cdd65875e2c6b,TCR,2024-06-24_17h32.59.406,LearnStrategy,2023.2.3,Win32,59.88023952,1,1,1,0.026851852,-0.006481481,1,0,0,1.8113,rock_grid_rect_2,2,10,-1,-1,1.811,-0.075925926,-0.246296296,1,0,0,6.8864,Basalt_rect,2,6.886,1,0,0,0,0,1,,,,,,,,,,,,,
6604722ff70cdd65875e2c6b,TCR,2024-06-24_17h32.59.406,LearnStrategy,2023.2.3,Win32,59.88023952,1,1,2,0.025925926,-0.012962963,1,0,0,1.667,rock_grid_rect_2,7,04,-1,-1,1.667,-0.126851852,-0.396296296,1,0,0,4.841,Pegmatite_rect,6,4.841,0,1,0,1,0,1,,,,,,,,,,,,,
6604722ff70cdd65875e2c6b,TCR,2024-06-24_17h32.59.406,LearnStrategy,2023.2.3,Win32,59.88023952,1,1,3,0.008333333,-0.011111111,1,0,0,1.5162,rock_grid_rect_2,6,05,-1,-1,1.516,0.40462963,-0.400925926,1,0,0,5.3673,Pumice_rect,8,5.367,0,2,0,2,0,1,,,,,,,,,,,,,
6604722ff70cdd65875e2c6b,TCR,2024-06-24_17h32.59.406,LearnStrategy,2023.2.3,Win32,59.88023952,1,1,4,0.038888889,0.010185185,1,0,0,1.7217,rock_grid_rect_2,7,06,-1,-1,1.722,-0.359259259,-0.387037037,1,0,0,4.6175,Obsidian_rect,5,4.618,0,3,0,3,0,1,,,,,,,,,,,,,
6604722ff70cdd65875e2c6b,TCR,2024-06-24_17h32.59.406,LearnStrategy,2023.2.3,Win32,59.88023952,1,1,5,0.112962963,-0.002777778,1,0,0,1.8553,rock_grid_rect_2,5,11,-1,-1,1.855,0.37962963,-0.242592593,1,0,0,6.1899,Gabbro_rect,4,6.19,0,4,0,4,0,1,,,,,,,,,,,,,
6604722ff70cdd65875e2c6b,TCR,2024-06-24_17h32.59.406,LearnStrategy,2023.2.3,Win32,59.88023952,1,1,6,0.038888889,-0.008333333,1,0,0,2.0566,rock_grid_rect_2,8,14,-1,-1,2.057,0.363888889,-0.39537037,1,0,0,1.6332,Pumice_rect,8,1.633,1,5,0,5,0,1,,,,,,,,,,,,,
6604722ff70cdd65875e2c6b,TCR,2024-06-24_17h32.59.406,LearnStrategy,2023.2.3,Win32,59.88023952,1,1,7,0.084259259,0.003703704,1,0,0,1.1976,rock_grid_rect_2,1,04,-1,-1,1.198,-0.443518519,-0.25462963,1,0,0,4.7487,Andesite_rect,1,4.749,1,6,0,6,0,1,,,,,,,,,,,,,
6604722ff70cdd65875e2c6b,TCR,2024-06-24_17h32.59.406,LearnStrategy,2023.2.3,Win32,59.88023952,1,1,8,0.046296296,0,1,0,0,1.4242,rock_grid_rect_2,8,15,-1,-1,1.424,0.406481481,-0.409259259,1,0,0,1.8498,Pumice_rect,8,1.85,1,7,0,7,0,1,,,,,,,,,,,,,
6604722ff70cdd65875e2c6b,TCR,2024-06-24_17h32.59.406,LearnStrategy,2023.2.3,Win32,59.88023952,1,1,9,0.014814815,-0.007407407,1,0,0,1.2479,rock_grid_rect_2,3,16,-1,-1,1.248,0.171296296,-0.262037037,1,0,0,4.6387,Diorite_rect,3,4.639,1,8,0,8,0,1,,,,,,,,,,,,,
6604722ff70cdd65875e2c6b,TCR,2024-06-24_17h32.59.406,LearnStrategy,2023.2.3,Win32,59.88023952,1,1,10,0.136111111,0.005555556,1,0,0,1.301,rock_grid_rect_2,4,08,-1,-1,1.301,0.433333333,-0.251851852,1,0,0,1.8363,Gabbro_rect,4,1.836,1,9,0,9,0,1,,,,,,,,,,,,,
6604722ff70cdd65875e2c6b,TCR,2024-06-24_17h32.59.406,LearnStrategy,2023.2.3,Win32,59.88023952,1,1,11,0.087962963,-0.003703704,1,0,0,1.4733,rock_grid_rect_2,5,05,-1,-1,1.473,-0.176851852,-0.247222222,1,0,0,3.2518,Basalt_rect,2,3.252,0,10,0,10,0,1,,,,,,,,,,,,,
6604722ff70cdd65875e2c6b,TCR,2024-06-24_17h32.59.406,LearnStrategy,2023.2.3,Win32,59.88023952,1,1,12,0.133333333,0.014814815,1,0,0,1.0727,rock_grid_rect_2,6,06,-1,-1,1.073,-0.411111111,-0.241666667,1,0,0,4.6688,Andesite_rect,1,4.669,0,11,0,11,0,1,,,,,,,,,,,,,
6604722ff70cdd65875e2c6b,TCR,2024-06-24_17h32.59.406,LearnStrategy,2023.2.3,Win32,59.88023952,1,1,13,0.119444444,-0.007407407,1,0,0,0.9841,rock_grid_rect_2,3,02,-1,-1,0.984,0.206481481,-0.253703704,1,0,0,4.6029,Diorite_rect,3,4.603,1,12,0,12,0,1,,,,,,,,,,,,,
6604722ff70cdd65875e2c6b,TCR,2024-06-24_17h32.59.406,LearnStrategy,2023.2.3,Win32,59.88023952,1,1,14,0.09537037,-0.005555556,1,0,0,1.289,rock_grid_rect_2,4,12,-1,-1,1.289,-0.102777778,-0.243518519,1,0,0,4.1548,Basalt_rect,2,4.155,0,13,0,13,0,1,,,,,,,,,,,,,
6604722ff70cdd65875e2c6b,TCR,2024-06-24_17h32.59.406,LearnStrategy,2023.2.3,Win32,59.88023952,1,1,15,0.062962963,-0.019444444,1,0,0,1.248,rock_grid_rect_2,1,06,-1,-1,1.248,0.413888889,-0.252777778,1,0,0,1.295,Gabbro_rect,4,1.295,0,14,0,14,0,1,,,,,,,,,,,,,
6604722ff70cdd65875e2c6b,TCR,2024-06-24_17h32.59.406,LearnStrategy,2023.2.3,Win32,59.88023952,1,1,16,0.049074074,-0.010185185,1,0,0,1.0484,rock_grid_rect_2,2,02,-1,-1,1.048,0.406481481,-0.239814815,1,0,0,3.3459,Gabbro_rect,4,3.346,0,15,0,15,0,1,,,,,,,,,,,,,
6604722ff70cdd65875e2c6b,TCR,2024-06-24_17h32.59.406,LearnStrategy,2023.2.3,Win32,59.88023952,1,2,1,,,,,,,,3,10,,,,,,,,,,,4,13.824,0,,,,,,0.381481481,-0.264814815,1,0,0,13.8242,Gabbro_rect,0,0,0,0,1,
6604722ff70cdd65875e2c6b,TCR,2024-06-24_17h32.59.406,LearnStrategy,2023.2.3,Win32,59.88023952,1,2,2,,,,,,,,2,16,,,,,,,,,,,2,11.615,1,,,,,,-0.1,-0.246296296,1,0,0,11.6154,Basalt_rect,1,0,1,0,1,
6604722ff70cdd65875e2c6b,TCR,2024-06-24_17h32.59.406,LearnStrategy,2023.2.3,Win32,59.88023952,1,2,3,,,,,,,,4,14,,,,,,,,,,,6,8.645,0,,,,,,-0.116666667,-0.394444444,1,0,0,8.6453,Pegmatite_rect,2,0,2,0,1,
6604722ff70cdd65875e2c6b,TCR,2024-06-24_17h32.59.406,LearnStrategy,2023.2.3,Win32,59.88023952,1,2,4,,,,,,,,8,02,,,,,,,,,,,8,2.675,1,,,,,,0.409259259,-0.412962963,1,0,0,2.6754,Pumice_rect,3,0,3,0,1,
6604722ff70cdd65875e2c6b,TCR,2024-06-24_17h32.59.406,LearnStrategy,2023.2.3,Win32,59.88023952,1,2,5,,,,,,,,6,16,,,,,,,,,,,6,16.047,1,,,,,,-0.128703704,-0.388888889,1,0,0,16.0467,Pegmatite_rect,4,0,4,0,1,
6604722ff70cdd65875e2c6b,TCR,2024-06-24_17h32.59.406,LearnStrategy,2023.2.3,Win32,59.88023952,1,2,6,,,,,,,,6,12,,,,,,,,,,,3,14.181,0,,,,,,0.160185185,-0.246296296,1,0,0,14.1807,Diorite_rect,5,0,5,0,1,
6604722ff70cdd65875e2c6b,TCR,2024-06-24_17h32.59.406,LearnStrategy,2023.2.3,Win32,59.88023952,1,2,7,,,,,,,,2,08,,,,,,,,,,,4,7.349,0,,,,,,0.409259259,-0.242592593,1,0,0,7.3487,Gabbro_rect,6,0,6,0,1,
6604722ff70cdd65875e2c6b,TCR,2024-06-24_17h32.59.406,LearnStrategy,2023.2.3,Win32,59.88023952,1,2,8,,,,,,,,7,10,,,,,,,,,,,7,5.078,1,,,,,,0.087037037,-0.401851852,1,0,0,5.0777,Peridotite_rect,7,0,7,0,1,
6604722ff70cdd65875e2c6b,TCR,2024-06-24_17h32.59.406,LearnStrategy,2023.2.3,Win32,59.88023952,1,2,9,,,,,,,,1,01,,,,,,,,,,,1,10.848,1,,,,,,-0.480555556,-0.241666667,1,0,0,10.8482,Andesite_rect,8,0,8,0,1,
6604722ff70cdd65875e2c6b,TCR,2024-06-24_17h32.59.406,LearnStrategy,2023.2.3,Win32,59.88023952,1,2,10,,,,,,,,5,02,,,,,,,,,,,5,1.717,1,,,,,,-0.441666667,-0.410185185,1,0,0,1.7166,Obsidian_rect,9,0,9,0,1,
6604722ff70cdd65875e2c6b,TCR,2024-06-24_17h32.59.406,LearnStrategy,2023.2.3,Win32,59.88023952,1,2,11,,,,,,,,5,07,,,,,,,,,,,5,13.901,1,,,,,,-0.422222222,-0.405555556,1,0,0,13.9006,Obsidian_rect,10,0,10,0,1,
6604722ff70cdd65875e2c6b,TCR,2024-06-24_17h32.59.406,LearnStrategy,2023.2.3,Win32,59.88023952,1,2,12,,,,,,,,4,05,,,,,,,,,,,7,7.417,0,,,,,,0.071296296,-0.39537037,1,0,0,7.4165,Peridotite_rect,11,0,11,0,1,
6604722ff70cdd65875e2c6b,TCR,2024-06-24_17h32.59.406,LearnStrategy,2023.2.3,Win32,59.88023952,1,2,13,,,,,,,,1,05,,,,,,,,,,,1,6,1,,,,,,-0.37962963,-0.262962963,1,0,0,5.9998,Andesite_rect,12,0,12,0,1,
6604722ff70cdd65875e2c6b,TCR,2024-06-24_17h32.59.406,LearnStrategy,2023.2.3,Win32,59.88023952,1,2,14,,,,,,,,8,03,,,,,,,,,,,8,1.318,1,,,,,,0.402777778,-0.40462963,1,0,0,1.3182,Pumice_rect,13,0,13,0,1,
6604722ff70cdd65875e2c6b,TCR,2024-06-24_17h32.59.406,LearnStrategy,2023.2.3,Win32,59.88023952,1,2,15,,,,,,,,7,08,,,,,,,,,,,4,8.032,0,,,,,,0.416666667,-0.252777778,1,0,0,8.0323,Gabbro_rect,14,0,14,0,1,
6604722ff70cdd65875e2c6b,TCR,2024-06-24_17h32.59.406,LearnStrategy,2023.2.3,Win32,59.88023952,1,2,16,,,,,,,,3,06,,,,,,,,,,,3,5.624,1,,,,,,0.105555556,-0.237962963,1,0,0,5.6235,Diorite_rect,15,0,15,0,1,
6604722ff70cdd65875e2c6b,TCR,2024-06-24_17h32.59.406,LearnStrategy,2023.2.3,Win32,59.88023952,2,1,1,0.00462963,-0.006481481,1,0,0,1.926,rock_grid_rect_2,4,12,-1,-1,1.926,0.376851852,-0.242592593,1,0,0,6.2201,Gabbro_rect,4,6.22,1,0,0,0,0,1,,,,,,,,,,,,,
6604722ff70cdd65875e2c6b,TCR,2024-06-24_17h32.59.406,LearnStrategy,2023.2.3,Win32,59.88023952,2,1,2,0.087037037,0.010185185,1,0,0,0.9868,rock_grid_rect_2,4,15,-1,-1,0.987,-0.110185185,-0.40462963,1,0,0,10.8671,Pegmatite_rect,6,10.867,0,1,0,1,0,1,,,,,,,,,,,,,
6604722ff70cdd65875e2c6b,TCR,2024-06-24_17h32.59.406,LearnStrategy,2023.2.3,Win32,59.88023952,2,1,3,0.065740741,-0.013888889,1,0,0,1.7311,rock_grid_rect_2,2,02,-1,-1,1.731,-0.115740741,-0.243518519,1,0,0,3.4986,Basalt_rect,2,3.499,1,2,0,2,0,1,,,,,,,,,,,,,
6604722ff70cdd65875e2c6b,TCR,2024-06-24_17h32.59.406,LearnStrategy,2023.2.3,Win32,59.88023952,2,1,4,0.008333333,-0.009259259,1,0,0,1.2409,rock_grid_rect_2,3,14,-1,-1,1.241,0.134259259,-0.247222222,1,0,0,1.6402,Diorite_rect,3,1.64,1,3,0,3,0,1,,,,,,,,,,,,,
6604722ff70cdd65875e2c6b,TCR,2024-06-24_17h32.59.406,LearnStrategy,2023.2.3,Win32,59.88023952,2,1,5,0.097222222,-0.006481481,1,0,0,0.8652,rock_grid_rect_2,3,02,-1,-1,0.865,0.105555556,-0.386111111,1,0,0,2.9887,Peridotite_rect,7,2.989,0,4,0,4,0,1,,,,,,,,,,,,,
6604722ff70cdd65875e2c6b,TCR,2024-06-24_17h32.59.406,LearnStrategy,2023.2.3,Win32,59.88023952,2,1,6,0.069444444,0.00462963,1,0,0,1.0587,rock_grid_rect_2,4,11,-1,-1,1.059,-0.151851852,-0.256481481,1,0,0,2.1194,Basalt_rect,2,2.119,0,5,0,5,0,1,,,,,,,,,,,,,
6604722ff70cdd65875e2c6b,TCR,2024-06-24_17h32.59.406,LearnStrategy,2023.2.3,Win32,59.88023952,2,1,7,0.04537037,0.006481481,1,0,0,1.0142,rock_grid_rect_2,3,16,-1,-1,1.014,0.144444444,-0.248148148,1,0,0,1.3038,Diorite_rect,3,1.304,1,6,0,6,0,1,,,,,,,,,,,,,
6604722ff70cdd65875e2c6b,TCR,2024-06-24_17h32.59.406,LearnStrategy,2023.2.3,Win32,59.88023952,2,1,8,0.1,-0.003703704,1,0,0,1.0255,rock_grid_rect_2,6,10,-1,-1,1.026,-0.093518519,-0.413888889,1,0,0,6.4669,Pegmatite_rect,6,6.467,1,7,0,7,0,1,,,,,,,,,,,,,
6604722ff70cdd65875e2c6b,TCR,2024-06-24_17h32.59.406,LearnStrategy,2023.2.3,Win32,59.88023952,2,1,9,0.102777778,0.001851852,1,0,0,1.2479,rock_grid_rect_2,2,02,-1,-1,1.248,-0.097222222,-0.253703704,1,0,0,1.5244,Basalt_rect,2,1.524,1,8,0,8,0,1,,,,,,,,,,,,,
6604722ff70cdd65875e2c6b,TCR,2024-06-24_17h32.59.406,LearnStrategy,2023.2.3,Win32,59.88023952,2,1,10,0.159259259,0.012037037,1,0,0,0.8649,rock_grid_rect_2,6,15,-1,-1,0.865,-0.206481481,-0.401851852,1,0,0,4.9734,Pegmatite_rect,6,4.973,1,9,0,9,0,1,,,,,,,,,,,,,
6604722ff70cdd65875e2c6b,TCR,2024-06-24_17h32.59.406,LearnStrategy,2023.2.3,Win32,59.88023952,2,1,11,0.125,-0.000925926,1,0,0,1.1142,rock_grid_rect_2,4,11,-1,-1,1.114,0.352777778,-0.237962963,1,0,0,1.8823,Gabbro_rect,4,1.882,1,10,0,10,0,1,,,,,,,,,,,,,
6604722ff70cdd65875e2c6b,TCR,2024-06-24_17h32.59.406,LearnStrategy,2023.2.3,Win32,59.88023952,2,1,12,0.081481481,-0.005555556,1,0,0,1.1314,rock_grid_rect_2,4,09,-1,-1,1.131,-0.321296296,-0.421296296,1,0,0,4.1279,Obsidian_rect,5,4.128,0,11,0,11,0,1,,,,,,,,,,,,,
6604722ff70cdd65875e2c6b,TCR,2024-06-24_17h32.59.406,LearnStrategy,2023.2.3,Win32,59.88023952,2,1,13,0.10462963,-0.000925926,1,0,0,0.9306,rock_grid_rect_2,6,05,-1,-1,0.931,-0.082407407,-0.412037037,1,0,0,10.8172,Pegmatite_rect,6,10.817,1,12,0,12,0,1,,,,,,,,,,,,,
6604722ff70cdd65875e2c6b,TCR,2024-06-24_17h32.59.406,LearnStrategy,2023.2.3,Win32,59.88023952,2,1,14,0.12037037,-0.013888889,1,0,0,1.0475,rock_grid_rect_2,7,04,-1,-1,1.047,0.12962963,-0.412962963,1,0,0,1.4509,Peridotite_rect,7,1.451,1,13,0,13,0,1,,,,,,,,,,,,,
6604722ff70cdd65875e2c6b,TCR,2024-06-24_17h32.59.406,LearnStrategy,2023.2.3,Win32,59.88023952,2,1,15,0.105555556,0.001851852,1,0,0,0.9145,rock_grid_rect_2,7,15,-1,-1,0.914,-0.338888889,-0.238888889,1,0,0,5.9316,Andesite_rect,1,5.932,0,14,0,14,0,1,,,,,,,,,,,,,
6604722ff70cdd65875e2c6b,TCR,2024-06-24_17h32.59.406,LearnStrategy,2023.2.3,Win32,59.88023952,2,1,16,0.112037037,-0.014814815,1,0,0,1.014,rock_grid_rect_2,7,07,-1,-1,1.014,0.163888889,-0.414814815,1,0,0,1.6803,Peridotite_rect,7,1.68,1,15,0,15,0,1,,,,,,,,,,,,,
6604722ff70cdd65875e2c6b,TCR,2024-06-24_17h32.59.406,LearnStrategy,2023.2.3,Win32,59.88023952,2,2,1,,,,,,,,8,16,,,,,,,,,,,8,2.238,1,,,,,,0.35,-0.400925926,1,0,0,2.2378,Pumice_rect,0,0,0,0,1,
6604722ff70cdd65875e2c6b,TCR,2024-06-24_17h32.59.406,LearnStrategy,2023.2.3,Win32,59.88023952,2,2,2,,,,,,,,4,13,,,,,,,,,,,6,13.315,0,,,,,,-0.155555556,-0.4,1,0,0,13.3151,Pegmatite_rect,1,0,1,0,1,
6604722ff70cdd65875e2c6b,TCR,2024-06-24_17h32.59.406,LearnStrategy,2023.2.3,Win32,59.88023952,2,2,3,,,,,,,,5,10,,,,,,,,,,,5,1.864,1,,,,,,-0.380555556,-0.400925926,1,0,0,1.8638,Obsidian_rect,2,0,2,0,1,
6604722ff70cdd65875e2c6b,TCR,2024-06-24_17h32.59.406,LearnStrategy,2023.2.3,Win32,59.88023952,2,2,4,,,,,,,,7,16,,,,,,,,,,,7,2.041,1,,,,,,0.143518519,-0.411111111,1,0,0,2.0414,Peridotite_rect,3,0,3,0,1,
6604722ff70cdd65875e2c6b,TCR,2024-06-24_17h32.59.406,LearnStrategy,2023.2.3,Win32,59.88023952,2,2,5,,,,,,,,4,03,,,,,,,,,,,4,2.716,1,,,,,,0.375925926,-0.265740741,1,0,0,2.7161,Gabbro_rect,4,0,4,0,1,
6604722ff70cdd65875e2c6b,TCR,2024-06-24_17h32.59.406,LearnStrategy,2023.2.3,Win32,59.88023952,2,2,6,,,,,,,,7,14,,,,,,,,,,,1,5.5,0,,,,,,-0.34537037,-0.262037037,1,0,0,5.5005,Andesite_rect,5,0,5,0,1,
6604722ff70cdd65875e2c6b,TCR,2024-06-24_17h32.59.406,LearnStrategy,2023.2.3,Win32,59.88023952,2,2,7,,,,,,,,2,04,,,,,,,,,,,2,2.597,1,,,,,,-0.125925926,-0.267592593,1,0,0,2.5972,Basalt_rect,6,0,6,0,1,
6604722ff70cdd65875e2c6b,TCR,2024-06-24_17h32.59.406,LearnStrategy,2023.2.3,Win32,59.88023952,2,2,8,,,,,,,,3,12,,,,,,,,,,,6,6.504,0,,,,,,-0.113888889,-0.401851852,1,0,0,6.5038,Pegmatite_rect,7,0,7,0,1,
6604722ff70cdd65875e2c6b,TCR,2024-06-24_17h32.59.406,LearnStrategy,2023.2.3,Win32,59.88023952,2,2,9,,,,,,,,2,01,,,,,,,,,,,2,2.052,1,,,,,,-0.062962963,-0.255555556,1,0,0,2.0518,Basalt_rect,8,0,8,0,1,
6604722ff70cdd65875e2c6b,TCR,2024-06-24_17h32.59.406,LearnStrategy,2023.2.3,Win32,59.88023952,2,2,10,,,,,,,,6,11,,,,,,,,,,,1,4.35,0,,,,,,-0.346296296,-0.241666667,1,0,0,4.3499,Andesite_rect,9,0,9,0,1,
6604722ff70cdd65875e2c6b,TCR,2024-06-24_17h32.59.406,LearnStrategy,2023.2.3,Win32,59.88023952,2,2,11,,,,,,,,3,13,,,,,,,,,,,3,3.416,1,,,,,,0.099074074,-0.241666667,1,0,0,3.4162,Diorite_rect,10,0,10,0,1,
6604722ff70cdd65875e2c6b,TCR,2024-06-24_17h32.59.406,LearnStrategy,2023.2.3,Win32,59.88023952,2,2,12,,,,,,,,1,16,,,,,,,,,,,7,6.729,0,,,,,,0.199074074,-0.42037037,1,0,0,6.729,Peridotite_rect,11,0,11,0,1,
6604722ff70cdd65875e2c6b,TCR,2024-06-24_17h32.59.406,LearnStrategy,2023.2.3,Win32,59.88023952,2,2,13,,,,,,,,8,08,,,,,,,,,,,8,1.192,1,,,,,,0.358333333,-0.407407407,1,0,0,1.1918,Pumice_rect,12,0,12,0,1,
6604722ff70cdd65875e2c6b,TCR,2024-06-24_17h32.59.406,LearnStrategy,2023.2.3,Win32,59.88023952,2,2,14,,,,,,,,5,14,,,,,,,,,,,5,1.198,1,,,,,,-0.347222222,-0.403703704,1,0,0,1.1982,Obsidian_rect,13,0,13,0,1,
6604722ff70cdd65875e2c6b,TCR,2024-06-24_17h32.59.406,LearnStrategy,2023.2.3,Win32,59.88023952,2,2,15,,,,,,,,1,02,,,,,,,,,,,4,2.726,0,,,,,,0.440740741,-0.265740741,1,0,0,2.7265,Gabbro_rect,14,0,14,0,1,
6604722ff70cdd65875e2c6b,TCR,2024-06-24_17h32.59.406,LearnStrategy,2023.2.3,Win32,59.88023952,2,2,16,,,,,,,,6,09,,,,,,,,,,,6,7.565,1,,,,,,-0.07037037,-0.400925926,1,0,0,7.5645,Pegmatite_rect,15,0,15,0,1,
6604722ff70cdd65875e2c6b,TCR,2024-06-24_17h32.59.406,LearnStrategy,2023.2.3,Win32,59.88023952,3,1,1,0.075925926,0.013888889,1,0,0,1.5146,rock_grid_rect_2,6,10,-1,-1,1.515,-0.165740741,-0.389814815,1,0,0,1.2967,Pegmatite_rect,6,1.297,1,0,0,0,0,1,,,,,,,,,,,,,
6604722ff70cdd65875e2c6b,TCR,2024-06-24_17h32.59.406,LearnStrategy,2023.2.3,Win32,59.88023952,3,1,2,0.085185185,-0.005555556,1,0,0,1.115,rock_grid_rect_2,3,15,-1,-1,1.115,-0.368518519,-0.247222222,1,0,0,4.1794,Andesite_rect,1,4.179,0,1,0,1,0,1,,,,,,,,,,,,,
6604722ff70cdd65875e2c6b,TCR,2024-06-24_17h32.59.406,LearnStrategy,2023.2.3,Win32,59.88023952,3,1,3,0.065740741,-0.022222222,1,0,0,0.9974,rock_grid_rect_2,1,04,-1,-1,0.997,-0.372222222,-0.252777778,1,0,0,2.0092,Andesite_rect,1,2.009,1,2,0,2,0,1,,,,,,,,,,,,,
6604722ff70cdd65875e2c6b,TCR,2024-06-24_17h32.59.406,LearnStrategy,2023.2.3,Win32,59.88023952,3,1,4,0.101851852,-0.005555556,1,0,0,1.0353,rock_grid_rect_2,7,04,-1,-1,1.035,0.124074074,-0.418518519,1,0,0,1.5072,Peridotite_rect,7,1.507,1,3,0,3,0,1,,,,,,,,,,,,,
6604722ff70cdd65875e2c6b,TCR,2024-06-24_17h32.59.406,LearnStrategy,2023.2.3,Win32,59.88023952,3,1,5,0.128703704,0.010185185,1,0,0,0.9087,rock_grid_rect_2,1,03,-1,-1,0.909,-0.337037037,-0.246296296,1,0,0,2.3307,Andesite_rect,1,2.331,1,4,0,4,0,1,,,,,,,,,,,,,
6604722ff70cdd65875e2c6b,TCR,2024-06-24_17h32.59.406,LearnStrategy,2023.2.3,Win32,59.88023952,3,1,6,0.090740741,-0.006481481,1,0,0,0.9313,rock_grid_rect_2,6,10,-1,-1,0.931,-0.162037037,-0.383333333,1,0,0,1.2469,Pegmatite_rect,6,1.247,1,5,0,5,0,1,,,,,,,,,,,,,
6604722ff70cdd65875e2c6b,TCR,2024-06-24_17h32.59.406,LearnStrategy,2023.2.3,Win32,59.88023952,3,1,7,0.087962963,0.003703704,1,0,0,0.8479,rock_grid_rect_2,8,15,-1,-1,0.848,0.412962963,-0.408333333,1,0,0,1.0653,Pumice_rect,8,1.065,1,6,0,6,0,1,,,,,,,,,,,,,
6604722ff70cdd65875e2c6b,TCR,2024-06-24_17h32.59.406,LearnStrategy,2023.2.3,Win32,59.88023952,3,1,8,0.037962963,-0.013888889,1,0,0,0.9983,rock_grid_rect_2,4,15,-1,-1,0.998,0.118518519,-0.255555556,1,0,0,3.7344,Diorite_rect,3,3.734,0,7,0,7,0,1,,,,,,,,,,,,,
6604722ff70cdd65875e2c6b,TCR,2024-06-24_17h32.59.406,LearnStrategy,2023.2.3,Win32,59.88023952,3,1,9,0.059259259,-0.012037037,1,0,0,0.9472,rock_grid_rect_2,2,11,-1,-1,0.947,0.385185185,-0.269444444,1,0,0,3.6124,Gabbro_rect,4,3.612,0,8,0,8,0,1,,,,,,,,,,,,,
6604722ff70cdd65875e2c6b,TCR,2024-06-24_17h32.59.406,LearnStrategy,2023.2.3,Win32,59.88023952,3,1,10,0.069444444,-0.000925926,1,0,0,0.8807,rock_grid_rect_2,7,06,-1,-1,0.881,0.064814815,-0.414814815,1,0,0,1.7773,Peridotite_rect,7,1.777,1,9,0,9,0,1,,,,,,,,,,,,,
6604722ff70cdd65875e2c6b,TCR,2024-06-24_17h32.59.406,LearnStrategy,2023.2.3,Win32,59.88023952,3,1,11,0.085185185,0.002777778,1,0,0,1.114,rock_grid_rect_2,6,06,-1,-1,1.114,-0.109259259,-0.385185185,1,0,0,1.6046,Pegmatite_rect,6,1.605,1,10,0,10,0,1,,,,,,,,,,,,,
6604722ff70cdd65875e2c6b,TCR,2024-06-24_17h32.59.406,LearnStrategy,2023.2.3,Win32,59.88023952,3,1,12,0.077777778,0.005555556,1,0,0,1.1425,rock_grid_rect_2,1,04,-1,-1,1.143,-0.35462963,-0.235185185,1,0,0,1.4809,Andesite_rect,1,1.481,1,11,0,11,0,1,,,,,,,,,,,,,
6604722ff70cdd65875e2c6b,TCR,2024-06-24_17h32.59.406,LearnStrategy,2023.2.3,Win32,59.88023952,3,1,13,0.050925926,-0.021296296,1,0,0,0.7643,rock_grid_rect_2,4,11,-1,-1,0.764,0.372222222,-0.25,1,0,0,1.5379,Gabbro_rect,4,1.538,1,12,0,12,0,1,,,,,,,,,,,,,
6604722ff70cdd65875e2c6b,TCR,2024-06-24_17h32.59.406,LearnStrategy,2023.2.3,Win32,59.88023952,3,1,14,0.046296296,0.000925926,1,0,0,0.7924,rock_grid_rect_2,7,06,-1,-1,0.792,0.103703704,-0.410185185,1,0,0,1.3166,Peridotite_rect,7,1.317,1,13,0,13,0,1,,,,,,,,,,,,,
6604722ff70cdd65875e2c6b,TCR,2024-06-24_17h32.59.406,LearnStrategy,2023.2.3,Win32,59.88023952,3,1,15,0.022222222,-0.017592593,1,0,0,0.7812,rock_grid_rect_2,4,12,-1,-1,0.781,0.372222222,-0.237962963,1,0,0,1.8301,Gabbro_rect,4,1.83,1,14,0,14,0,1,,,,,,,,,,,,,
6604722ff70cdd65875e2c6b,TCR,2024-06-24_17h32.59.406,LearnStrategy,2023.2.3,Win32,59.88023952,3,1,16,0.080555556,-0.02037037,1,0,0,1.0482,rock_grid_rect_2,3,08,-1,-1,1.048,0.138888889,-0.240740741,1,0,0,1.6109,Diorite_rect,3,1.611,1,15,0,15,0,1,,,,,,,,,,,,,
6604722ff70cdd65875e2c6b,TCR,2024-06-24_17h32.59.406,LearnStrategy,2023.2.3,Win32,59.88023952,3,2,1,,,,,,,,3,07,,,,,,,,,,,3,1.378,1,,,,,,0.14537037,-0.24537037,1,0,0,1.3782,Diorite_rect,0,0,0,0,1,
6604722ff70cdd65875e2c6b,TCR,2024-06-24_17h32.59.406,LearnStrategy,2023.2.3,Win32,59.88023952,3,2,2,,,,,,,,6,08,,,,,,,,,,,6,4.113,1,,,,,,-0.083333333,-0.4,1,0,0,4.1135,Pegmatite_rect,1,0,1,0,1,
6604722ff70cdd65875e2c6b,TCR,2024-06-24_17h32.59.406,LearnStrategy,2023.2.3,Win32,59.88023952,3,2,3,,,,,,,,8,10,,,,,,,,,,,8,1.163,1,,,,,,0.382407407,-0.400925926,1,0,0,1.1627,Pumice_rect,2,0,2,0,1,
6604722ff70cdd65875e2c6b,TCR,2024-06-24_17h32.59.406,LearnStrategy,2023.2.3,Win32,59.88023952,3,2,4,,,,,,,,5,08,,,,,,,,,,,5,1.614,1,,,,,,-0.412037037,-0.405555556,1,0,0,1.6142,Obsidian_rect,3,0,3,0,1,
6604722ff70cdd65875e2c6b,TCR,2024-06-24_17h32.59.406,LearnStrategy,2023.2.3,Win32,59.88023952,3,2,5,,,,,,,,4,10,,,,,,,,,,,4,6.187,1,,,,,,0.328703704,-0.239814815,1,0,0,6.1865,Gabbro_rect,4,0,4,0,1,
6604722ff70cdd65875e2c6b,TCR,2024-06-24_17h32.59.406,LearnStrategy,2023.2.3,Win32,59.88023952,3,2,6,,,,,,,,7,13,,,,,,,,,,,7,1.513,1,,,,,,0.156481481,-0.419444444,1,0,0,1.5131,Peridotite_rect,5,0,5,0,1,
6604722ff70cdd65875e2c6b,TCR,2024-06-24_17h32.59.406,LearnStrategy,2023.2.3,Win32,59.88023952,3,2,7,,,,,,,,1,07,,,,,,,,,,,3,1.538,0,,,,,,0.162037037,-0.25462963,1,0,0,1.5384,Diorite_rect,6,0,6,0,1,
6604722ff70cdd65875e2c6b,TCR,2024-06-24_17h32.59.406,LearnStrategy,2023.2.3,Win32,59.88023952,3,2,8,,,,,,,,5,16,,,,,,,,,,,5,1.313,1,,,,,,-0.387962963,-0.402777778,1,0,0,1.3125,Obsidian_rect,7,0,7,0,1,
6604722ff70cdd65875e2c6b,TCR,2024-06-24_17h32.59.406,LearnStrategy,2023.2.3,Win32,59.88023952,3,2,9,,,,,,,,4,16,,,,,,,,,,,4,4.397,1,,,,,,0.358333333,-0.262037037,1,0,0,4.3966,Gabbro_rect,8,0,8,0,1,
6604722ff70cdd65875e2c6b,TCR,2024-06-24_17h32.59.406,LearnStrategy,2023.2.3,Win32,59.88023952,3,2,10,,,,,,,,7,05,,,,,,,,,,,7,1.364,1,,,,,,0.17962963,-0.40462963,1,0,0,1.3645,Peridotite_rect,9,0,9,0,1,
6604722ff70cdd65875e2c6b,TCR,2024-06-24_17h32.59.406,LearnStrategy,2023.2.3,Win32,59.88023952,3,2,11,,,,,,,,2,05,,,,,,,,,,,2,1.287,1,,,,,,-0.087037037,-0.250925926,1,0,0,1.2873,Basalt_rect,10,0,10,0,1,
6604722ff70cdd65875e2c6b,TCR,2024-06-24_17h32.59.406,LearnStrategy,2023.2.3,Win32,59.88023952,3,2,12,,,,,,,,2,12,,,,,,,,,,,8,2.124,0,,,,,,0.45462963,-0.408333333,1,0,0,2.1241,Pumice_rect,11,0,11,0,1,
6604722ff70cdd65875e2c6b,TCR,2024-06-24_17h32.59.406,LearnStrategy,2023.2.3,Win32,59.88023952,3,2,13,,,,,,,,8,05,,,,,,,,,,,8,0.832,1,,,,,,0.45462963,-0.408333333,1,0,0,0.8325,Pumice_rect,12,0,12,0,1,
6604722ff70cdd65875e2c6b,TCR,2024-06-24_17h32.59.406,LearnStrategy,2023.2.3,Win32,59.88023952,3,2,14,,,,,,,,3,09,,,,,,,,,,,3,1.393,1,,,,,,0.159259259,-0.262962963,1,0,0,1.393,Diorite_rect,13,0,13,0,1,
6604722ff70cdd65875e2c6b,TCR,2024-06-24_17h32.59.406,LearnStrategy,2023.2.3,Win32,59.88023952,3,2,15,,,,,,,,6,13,,,,,,,,,,,6,1.779,1,,,,,,-0.062037037,-0.392592593,1,0,0,1.7787,Pegmatite_rect,14,0,14,0,1,
6604722ff70cdd65875e2c6b,TCR,2024-06-24_17h32.59.406,LearnStrategy,2023.2.3,Win32,59.88023952,3,2,16,,,,,,,,1,09,,,,,,,,,,,1,1.797,1,,,,,,-0.356481481,-0.25462963,1,0,0,1.7971,Andesite_rect,15,0,15,0,1,
6604722ff70cdd65875e2c6b,TCR,2024-06-24_17h32.59.406,LearnStrategy,2023.2.3,Win32,59.88023952,4,1,1,0.10462963,0.00462963,1,0,0,0.9814,rock_grid_rect_2,6,06,-1,-1,0.981,-0.100925926,-0.405555556,1,0,0,1.5143,Pegmatite_rect,6,1.514,1,0,0,0,0,1,,,,,,,,,,,,,
6604722ff70cdd65875e2c6b,TCR,2024-06-24_17h32.59.406,LearnStrategy,2023.2.3,Win32,59.88023952,4,1,2,0.037962963,0,1,0,0,1.3646,rock_grid_rect_2,5,05,-1,-1,1.365,-0.393518519,-0.409259259,1,0,0,1.0903,Obsidian_rect,5,1.09,1,1,0,1,0,1,,,,,,,,,,,,,
6604722ff70cdd65875e2c6b,TCR,2024-06-24_17h32.59.406,LearnStrategy,2023.2.3,Win32,59.88023952,4,1,3,0.023148148,0,1,0,0,0.9194,rock_grid_rect_2,1,03,-1,-1,0.919,-0.357407407,-0.246296296,1,0,0,1.1926,Andesite_rect,1,1.193,1,2,0,2,0,1,,,,,,,,,,,,,
6604722ff70cdd65875e2c6b,TCR,2024-06-24_17h32.59.406,LearnStrategy,2023.2.3,Win32,59.88023952,4,1,4,0.069444444,-0.012962963,1,0,0,0.8979,rock_grid_rect_2,2,10,-1,-1,0.898,-0.141666667,-0.234259259,1,0,0,2.4438,Basalt_rect,2,2.444,1,3,0,3,0,1,,,,,,,,,,,,,
6604722ff70cdd65875e2c6b,TCR,2024-06-24_17h32.59.406,LearnStrategy,2023.2.3,Win32,59.88023952,4,1,5,0.011111111,-0.010185185,1,0,0,0.8639,rock_grid_rect_2,8,06,-1,-1,0.864,0.381481481,-0.405555556,1,0,0,1.1161,Pumice_rect,8,1.116,1,4,0,4,0,1,,,,,,,,,,,,,
6604722ff70cdd65875e2c6b,TCR,2024-06-24_17h32.59.406,LearnStrategy,2023.2.3,Win32,59.88023952,4,1,6,0.051851852,-0.001851852,1,0,0,0.7149,rock_grid_rect_2,4,01,-1,-1,0.715,0.125925926,-0.401851852,1,0,0,2.8347,Peridotite_rect,7,2.835,0,5,0,5,0,1,,,,,,,,,,,,,
6604722ff70cdd65875e2c6b,TCR,2024-06-24_17h32.59.406,LearnStrategy,2023.2.3,Win32,59.88023952,4,1,7,0.026851852,-0.00462963,1,0,0,0.7976,rock_grid_rect_2,1,10,-1,-1,0.798,0.364814815,-0.247222222,1,0,0,3.1307,Gabbro_rect,4,3.131,0,6,0,6,0,1,,,,,,,,,,,,,
6604722ff70cdd65875e2c6b,TCR,2024-06-24_17h32.59.406,LearnStrategy,2023.2.3,Win32,59.88023952,4,1,8,0.017592593,-0.02037037,1,0,0,0.9473,rock_grid_rect_2,1,10,-1,-1,0.947,-0.369444444,-0.248148148,1,0,0,1.8836,Andesite_rect,1,1.884,1,7,0,7,0,1,,,,,,,,,,,,,
6604722ff70cdd65875e2c6b,TCR,2024-06-24_17h32.59.406,LearnStrategy,2023.2.3,Win32,59.88023952,4,1,9,0.068518519,-0.015740741,1,0,0,0.7147,rock_grid_rect_2,6,03,-1,-1,0.715,-0.167592593,-0.397222222,1,0,0,1.228,Pegmatite_rect,6,1.228,1,8,0,8,0,1,,,,,,,,,,,,,
6604722ff70cdd65875e2c6b,TCR,2024-06-24_17h32.59.406,LearnStrategy,2023.2.3,Win32,59.88023952,4,1,10,0.078703704,0.003703704,1,0,0,0.6479,rock_grid_rect_2,3,08,-1,-1,0.648,0.163888889,-0.239814815,1,0,0,0.9347,Diorite_rect,3,0.935,1,9,0,9,0,1,,,,,,,,,,,,,
6604722ff70cdd65875e2c6b,TCR,2024-06-24_17h32.59.406,LearnStrategy,2023.2.3,Win32,59.88023952,4,1,11,0.076851852,-0.000925926,1,0,0,0.9982,rock_grid_rect_2,4,09,-1,-1,0.998,0.44537037,-0.248148148,1,0,0,5.0081,Gabbro_rect,4,5.008,1,10,0,10,0,1,,,,,,,,,,,,,
6604722ff70cdd65875e2c6b,TCR,2024-06-24_17h32.59.406,LearnStrategy,2023.2.3,Win32,59.88023952,4,1,12,0.128703704,0.007407407,1,0,0,0.6806,rock_grid_rect_2,2,09,-1,-1,0.681,-0.148148148,-0.252777778,1,0,0,2.1845,Basalt_rect,2,2.184,1,11,0,11,0,1,,,,,,,,,,,,,
6604722ff70cdd65875e2c6b,TCR,2024-06-24_17h32.59.406,LearnStrategy,2023.2.3,Win32,59.88023952,4,1,13,0.065740741,-0.019444444,1,0,0,0.6803,rock_grid_rect_2,3,11,-1,-1,0.68,0.124074074,-0.268518519,1,0,0,1.3203,Diorite_rect,3,1.32,1,12,0,12,0,1,,,,,,,,,,,,,
6604722ff70cdd65875e2c6b,TCR,2024-06-24_17h32.59.406,LearnStrategy,2023.2.3,Win32,59.88023952,4,1,14,0.09537037,-0.015740741,1,0,0,0.7475,rock_grid_rect_2,7,12,-1,-1,0.748,-0.10462963,-0.4,1,0,0,1.2956,Pegmatite_rect,6,1.296,0,13,0,13,0,1,,,,,,,,,,,,,
6604722ff70cdd65875e2c6b,TCR,2024-06-24_17h32.59.406,LearnStrategy,2023.2.3,Win32,59.88023952,4,1,15,0.066666667,0.008333333,1,0,0,0.7474,rock_grid_rect_2,7,15,-1,-1,0.747,0.110185185,-0.412037037,1,0,0,1.183,Peridotite_rect,7,1.183,1,14,0,14,0,1,,,,,,,,,,,,,
6604722ff70cdd65875e2c6b,TCR,2024-06-24_17h32.59.406,LearnStrategy,2023.2.3,Win32,59.88023952,4,1,16,0.075,0.002777778,1,0,0,1.1144,rock_grid_rect_2,4,11,-1,-1,1.114,0.383333333,-0.246296296,1,0,0,1.4926,Gabbro_rect,4,1.493,1,15,0,15,0,1,,,,,,,,,,,,,
6604722ff70cdd65875e2c6b,TCR,2024-06-24_17h32.59.406,LearnStrategy,2023.2.3,Win32,59.88023952,4,2,1,,,,,,,,7,10,,,,,,,,,,,7,3.084,1,,,,,,0.105555556,-0.396296296,1,0,0,3.0843,Peridotite_rect,0,0,0,0,1,
6604722ff70cdd65875e2c6b,TCR,2024-06-24_17h32.59.406,LearnStrategy,2023.2.3,Win32,59.88023952,4,2,2,,,,,,,,1,09,,,,,,,,,,,1,1.99,1,,,,,,-0.371296296,-0.237037037,1,0,0,1.9903,Andesite_rect,1,0,1,0,1,
6604722ff70cdd65875e2c6b,TCR,2024-06-24_17h32.59.406,LearnStrategy,2023.2.3,Win32,59.88023952,4,2,3,,,,,,,,6,11,,,,,,,,,,,6,1.818,1,,,,,,-0.151851852,-0.407407407,1,0,0,1.8176,Pegmatite_rect,2,0,2,0,1,
6604722ff70cdd65875e2c6b,TCR,2024-06-24_17h32.59.406,LearnStrategy,2023.2.3,Win32,59.88023952,4,2,4,,,,,,,,2,05,,,,,,,,,,,2,1.884,1,,,,,,-0.126851852,-0.253703704,1,0,0,1.8837,Basalt_rect,3,0,3,0,1,
6604722ff70cdd65875e2c6b,TCR,2024-06-24_17h32.59.406,LearnStrategy,2023.2.3,Win32,59.88023952,4,2,5,,,,,,,,8,02,,,,,,,,,,,8,1.379,1,,,,,,0.369444444,-0.405555556,1,0,0,1.3789,Pumice_rect,4,0,4,0,1,
6604722ff70cdd65875e2c6b,TCR,2024-06-24_17h32.59.406,LearnStrategy,2023.2.3,Win32,59.88023952,4,2,6,,,,,,,,3,12,,,,,,,,,,,3,1.604,1,,,,,,0.168518519,-0.264814815,1,0,0,1.6044,Diorite_rect,5,0,5,0,1,
6604722ff70cdd65875e2c6b,TCR,2024-06-24_17h32.59.406,LearnStrategy,2023.2.3,Win32,59.88023952,4,2,7,,,,,,,,1,05,,,,,,,,,,,1,1.292,1,,,,,,-0.362962963,-0.241666667,1,0,0,1.2921,Andesite_rect,6,0,6,0,1,
6604722ff70cdd65875e2c6b,TCR,2024-06-24_17h32.59.406,LearnStrategy,2023.2.3,Win32,59.88023952,4,2,8,,,,,,,,2,01,,,,,,,,,,,2,1.463,1,,,,,,-0.149074074,-0.244444444,1,0,0,1.4635,Basalt_rect,7,0,7,0,1,
6604722ff70cdd65875e2c6b,TCR,2024-06-24_17h32.59.406,LearnStrategy,2023.2.3,Win32,59.88023952,4,2,9,,,,,,,,5,14,,,,,,,,,,,5,1.341,1,,,,,,-0.346296296,-0.419444444,1,0,0,1.3413,Obsidian_rect,8,0,8,0,1,
6604722ff70cdd65875e2c6b,TCR,2024-06-24_17h32.59.406,LearnStrategy,2023.2.3,Win32,59.88023952,4,2,10,,,,,,,,8,16,,,,,,,,,,,8,1.216,1,,,,,,0.437962963,-0.412962963,1,0,0,1.216,Pumice_rect,9,0,9,0,1,
6604722ff70cdd65875e2c6b,TCR,2024-06-24_17h32.59.406,LearnStrategy,2023.2.3,Win32,59.88023952,4,2,11,,,,,,,,3,06,,,,,,,,,,,3,2.917,1,,,,,,0.166666667,-0.261111111,1,0,0,2.9171,Diorite_rect,10,0,10,0,1,
6604722ff70cdd65875e2c6b,TCR,2024-06-24_17h32.59.406,LearnStrategy,2023.2.3,Win32,59.88023952,4,2,12,,,,,,,,4,10,,,,,,,,,,,4,2.716,1,,,,,,0.4,-0.27037037,1,0,0,2.7157,Gabbro_rect,11,0,11,0,1,
6604722ff70cdd65875e2c6b,TCR,2024-06-24_17h32.59.406,LearnStrategy,2023.2.3,Win32,59.88023952,4,2,13,,,,,,,,4,16,,,,,,,,,,,4,4.08,1,,,,,,0.394444444,-0.263888889,1,0,0,4.08,Gabbro_rect,12,0,12,0,1,
6604722ff70cdd65875e2c6b,TCR,2024-06-24_17h32.59.406,LearnStrategy,2023.2.3,Win32,59.88023952,4,2,14,,,,,,,,5,07,,,,,,,,,,,5,6.434,1,,,,,,-0.352777778,-0.411111111,1,0,0,6.4337,Obsidian_rect,13,0,13,0,1,
6604722ff70cdd65875e2c6b,TCR,2024-06-24_17h32.59.406,LearnStrategy,2023.2.3,Win32,59.88023952,4,2,15,,,,,,,,7,14,,,,,,,,,,,6,4.28,0,,,,,,-0.094444444,-0.407407407,1,0,0,4.2796,Pegmatite_rect,14,0,14,0,1,
6604722ff70cdd65875e2c6b,TCR,2024-06-24_17h32.59.406,LearnStrategy,2023.2.3,Win32,59.88023952,4,2,16,,,,,,,,6,08,,,,,,,,,,,6,1.385,1,,,,,,-0.094444444,-0.407407407,1,0,0,1.3851,Pegmatite_rect,15,0,15,0,1,
6604722ff70cdd65875e2c6b,TCR,2024-06-24_17h32.59.406,LearnStrategy,2023.2.3,Win32,59.88023952,5,1,1,0.096296296,0.012962963,1,0,0,1.4595,rock_grid_rect_2,4,01,-1,-1,1.46,-0.414814815,-0.239814815,1,0,0,2.3747,Andesite_rect,1,2.375,0,0,0,0,0,1,,,,,,,,,,,,,
6604722ff70cdd65875e2c6b,TCR,2024-06-24_17h32.59.406,LearnStrategy,2023.2.3,Win32,59.88023952,5,1,2,0.134259259,-0.018518519,1,0,0,0.8972,rock_grid_rect_2,7,12,-1,-1,0.897,0.092592593,-0.393518519,1,0,0,2.3001,Peridotite_rect,7,2.3,1,1,0,1,0,1,,,,,,,,,,,,,
6604722ff70cdd65875e2c6b,TCR,2024-06-24_17h32.59.406,LearnStrategy,2023.2.3,Win32,59.88023952,5,1,3,0.09537037,0.002777778,1,0,0,0.7974,rock_grid_rect_2,7,02,-1,-1,0.797,0.124074074,-0.397222222,1,0,0,1.282,Peridotite_rect,7,1.282,1,2,0,2,0,1,,,,,,,,,,,,,
6604722ff70cdd65875e2c6b,TCR,2024-06-24_17h32.59.406,LearnStrategy,2023.2.3,Win32,59.88023952,5,1,4,0.094444444,-0.000925926,1,0,0,0.9315,rock_grid_rect_2,5,06,-1,-1,0.932,-0.331481481,-0.387962963,1,0,0,1.2085,Obsidian_rect,5,1.208,1,3,0,3,0,1,,,,,,,,,,,,,
6604722ff70cdd65875e2c6b,TCR,2024-06-24_17h32.59.406,LearnStrategy,2023.2.3,Win32,59.88023952,5,1,5,0.073148148,0,1,0,0,0.8468,rock_grid_rect_2,2,11,-1,-1,0.847,-0.10462963,-0.25462963,1,0,0,1.5771,Basalt_rect,2,1.577,1,4,0,4,0,1,,,,,,,,,,,,,
6604722ff70cdd65875e2c6b,TCR,2024-06-24_17h32.59.406,LearnStrategy,2023.2.3,Win32,59.88023952,5,1,6,0.071296296,-0.009259259,1,0,0,0.8149,rock_grid_rect_2,1,14,-1,-1,0.815,-0.407407407,-0.271296296,1,0,0,1.3986,Andesite_rect,1,1.399,1,5,0,5,0,1,,,,,,,,,,,,,
6604722ff70cdd65875e2c6b,TCR,2024-06-24_17h32.59.406,LearnStrategy,2023.2.3,Win32,59.88023952,5,1,7,0.021296296,0.003703704,1,0,0,0.8155,rock_grid_rect_2,3,02,-1,-1,0.815,0.181481481,-0.259259259,1,0,0,1.0642,Diorite_rect,3,1.064,1,6,0,6,0,1,,,,,,,,,,,,,
6604722ff70cdd65875e2c6b,TCR,2024-06-24_17h32.59.406,LearnStrategy,2023.2.3,Win32,59.88023952,5,1,8,0.098148148,-0.010185185,1,0,0,0.8648,rock_grid_rect_2,2,06,-1,-1,0.865,-0.105555556,-0.252777778,1,0,0,1.3048,Basalt_rect,2,1.305,1,7,0,7,0,1,,,,,,,,,,,,,
6604722ff70cdd65875e2c6b,TCR,2024-06-24_17h32.59.406,LearnStrategy,2023.2.3,Win32,59.88023952,5,1,9,0.113888889,0.001851852,1,0,0,0.6263,rock_grid_rect_2,6,15,-1,-1,0.626,-0.121296296,-0.37962963,1,0,0,1.2799,Pegmatite_rect,6,1.28,1,8,0,8,0,1,,,,,,,,,,,,,
6604722ff70cdd65875e2c6b,TCR,2024-06-24_17h32.59.406,LearnStrategy,2023.2.3,Win32,59.88023952,5,1,10,0.101851852,-0.007407407,1,0,0,0.9256,rock_grid_rect_2,3,08,-1,-1,0.926,0.10462963,-0.241666667,1,0,0,1.1515,Diorite_rect,3,1.152,1,9,0,9,0,1,,,,,,,,,,,,,
6604722ff70cdd65875e2c6b,TCR,2024-06-24_17h32.59.406,LearnStrategy,2023.2.3,Win32,59.88023952,5,1,11,0.1,0.002777778,1,0,0,0.6814,rock_grid_rect_2,8,13,-1,-1,0.681,0.351851852,-0.400925926,1,0,0,1.1982,Pumice_rect,8,1.198,1,10,0,10,0,1,,,,,,,,,,,,,
6604722ff70cdd65875e2c6b,TCR,2024-06-24_17h32.59.406,LearnStrategy,2023.2.3,Win32,59.88023952,5,1,12,0.02962963,0.005555556,1,0,0,0.6481,rock_grid_rect_2,1,11,-1,-1,0.648,-0.342592593,-0.240740741,1,0,0,1.3944,Andesite_rect,1,1.394,1,11,0,11,0,1,,,,,,,,,,,,,
6604722ff70cdd65875e2c6b,TCR,2024-06-24_17h32.59.406,LearnStrategy,2023.2.3,Win32,59.88023952,5,1,13,0.077777778,0.003703704,1,0,0,0.8646,rock_grid_rect_2,6,05,-1,-1,0.865,-0.07962963,-0.382407407,1,0,0,2.3884,Pegmatite_rect,6,2.388,1,12,0,12,0,1,,,,,,,,,,,,,
6604722ff70cdd65875e2c6b,TCR,2024-06-24_17h32.59.406,LearnStrategy,2023.2.3,Win32,59.88023952,5,1,14,0.07037037,-0.012037037,1,0,0,0.6804,rock_grid_rect_2,7,06,-1,-1,0.68,0.118518519,-0.403703704,1,0,0,1.1703,Peridotite_rect,7,1.17,1,13,0,13,0,1,,,,,,,,,,,,,
6604722ff70cdd65875e2c6b,TCR,2024-06-24_17h32.59.406,LearnStrategy,2023.2.3,Win32,59.88023952,5,1,15,0.075925926,-0.000925926,1,0,0,0.8523,rock_grid_rect_2,1,10,-1,-1,0.852,-0.341666667,-0.249074074,1,0,0,1.5039,Andesite_rect,1,1.504,1,14,0,14,0,1,,,,,,,,,,,,,
6604722ff70cdd65875e2c6b,TCR,2024-06-24_17h32.59.406,LearnStrategy,2023.2.3,Win32,59.88023952,5,1,16,0.025,-0.012037037,1,0,0,0.8479,rock_grid_rect_2,4,12,-1,-1,0.848,0.392592593,-0.249074074,1,0,0,1.1484,Gabbro_rect,4,1.148,1,15,0,15,0,1,,,,,,,,,,,,,
6604722ff70cdd65875e2c6b,TCR,2024-06-24_17h32.59.406,LearnStrategy,2023.2.3,Win32,59.88023952,5,2,1,,,,,,,,1,02,,,,,,,,,,,1,3.429,1,,,,,,-0.346296296,-0.24537037,1,0,0,3.4295,Andesite_rect,0,0,0,0,1,
6604722ff70cdd65875e2c6b,TCR,2024-06-24_17h32.59.406,LearnStrategy,2023.2.3,Win32,59.88023952,5,2,2,,,,,,,,5,08,,,,,,,,,,,5,0.947,1,,,,,,-0.417592593,-0.416666667,1,0,0,0.9475,Obsidian_rect,1,0,1,0,1,
6604722ff70cdd65875e2c6b,TCR,2024-06-24_17h32.59.406,LearnStrategy,2023.2.3,Win32,59.88023952,5,2,3,,,,,,,,8,08,,,,,,,,,,,8,1.982,1,,,,,,0.358333333,-0.387962963,1,0,0,1.9818,Pumice_rect,2,0,2,0,1,
6604722ff70cdd65875e2c6b,TCR,2024-06-24_17h32.59.406,LearnStrategy,2023.2.3,Win32,59.88023952,5,2,4,,,,,,,,7,05,,,,,,,,,,,7,1.381,1,,,,,,0.137962963,-0.419444444,1,0,0,1.3809,Peridotite_rect,3,0,3,0,1,
6604722ff70cdd65875e2c6b,TCR,2024-06-24_17h32.59.406,LearnStrategy,2023.2.3,Win32,59.88023952,5,2,5,,,,,,,,7,08,,,,,,,,,,,7,1.014,1,,,,,,0.137962963,-0.419444444,1,0,0,1.0144,Peridotite_rect,4,0,4,0,1,
6604722ff70cdd65875e2c6b,TCR,2024-06-24_17h32.59.406,LearnStrategy,2023.2.3,Win32,59.88023952,5,2,6,,,,,,,,8,10,,,,,,,,,,,8,1.63,1,,,,,,0.333333333,-0.412037037,1,0,0,1.6297,Pumice_rect,5,0,5,0,1,
6604722ff70cdd65875e2c6b,TCR,2024-06-24_17h32.59.406,LearnStrategy,2023.2.3,Win32,59.88023952,5,2,7,,,,,,,,4,13,,,,,,,,,,,4,2.485,1,,,,,,0.397222222,-0.257407407,1,0,0,2.4847,Gabbro_rect,6,0,6,0,1,
6604722ff70cdd65875e2c6b,TCR,2024-06-24_17h32.59.406,LearnStrategy,2023.2.3,Win32,59.88023952,5,2,8,,,,,,,,5,16,,,,,,,,,,,5,1.089,1,,,,,,-0.423148148,-0.413888889,1,0,0,1.0887,Obsidian_rect,7,0,7,0,1,
6604722ff70cdd65875e2c6b,TCR,2024-06-24_17h32.59.406,LearnStrategy,2023.2.3,Win32,59.88023952,5,2,9,,,,,,,,3,07,,,,,,,,,,,3,1.47,1,,,,,,0.128703704,-0.260185185,1,0,0,1.4699,Diorite_rect,8,0,8,0,1,
6604722ff70cdd65875e2c6b,TCR,2024-06-24_17h32.59.406,LearnStrategy,2023.2.3,Win32,59.88023952,5,2,10,,,,,,,,2,04,,,,,,,,,,,2,1.285,1,,,,,,-0.111111111,-0.25,1,0,0,1.2846,Basalt_rect,9,0,9,0,1,
6604722ff70cdd65875e2c6b,TCR,2024-06-24_17h32.59.406,LearnStrategy,2023.2.3,Win32,59.88023952,5,2,11,,,,,,,,6,16,,,,,,,,,,,6,1.16,1,,,,,,-0.112962963,-0.401851852,1,0,0,1.1602,Pegmatite_rect,10,0,10,0,1,
6604722ff70cdd65875e2c6b,TCR,2024-06-24_17h32.59.406,LearnStrategy,2023.2.3,Win32,59.88023952,5,2,12,,,,,,,,6,09,,,,,,,,,,,6,1.01,1,,,,,,-0.112962963,-0.401851852,1,0,0,1.0097,Pegmatite_rect,11,0,11,0,1,
6604722ff70cdd65875e2c6b,TCR,2024-06-24_17h32.59.406,LearnStrategy,2023.2.3,Win32,59.88023952,5,2,13,,,,,,,,4,03,,,,,,,,,,,3,2.765,0,,,,,,0.085185185,-0.25462963,1,0,0,2.7649,Diorite_rect,12,0,12,0,1,
6604722ff70cdd65875e2c6b,TCR,2024-06-24_17h32.59.406,LearnStrategy,2023.2.3,Win32,59.88023952,5,2,14,,,,,,,,1,01,,,,,,,,,,,4,1.685,0,,,,,,0.378703704,-0.25462963,1,0,0,1.6853,Gabbro_rect,13,0,13,0,1,
6604722ff70cdd65875e2c6b,TCR,2024-06-24_17h32.59.406,LearnStrategy,2023.2.3,Win32,59.88023952,5,2,15,,,,,,,,2,08,,,,,,,,,,,2,1.068,1,,,,,,-0.112037037,-0.262037037,1,0,0,1.0684,Basalt_rect,14,0,14,0,1,
6604722ff70cdd65875e2c6b,TCR,2024-06-24_17h32.59.406,LearnStrategy,2023.2.3,Win32,59.88023952,5,2,16,,,,,,,,3,13,,,,,,,,,,,3,1.298,1,,,,,,0.14537037,-0.255555556,1,0,0,1.2982,Diorite_rect,15,0,15,0,1,
6604722ff70cdd65875e2c6b,TCR,2024-06-24_17h32.59.406,LearnStrategy,2023.2.3,Win32,59.88023952,6,1,1,0.074074074,-0.010185185,1,0,0,0.9817,rock_grid_rect_2,8,14,-1,-1,0.982,0.428703704,-0.40462963,1,0,0,1.0991,Pumice_rect,8,1.099,1,0,0,0,0,1,,,,,,,,,,,,,
6604722ff70cdd65875e2c6b,TCR,2024-06-24_17h32.59.406,LearnStrategy,2023.2.3,Win32,59.88023952,6,1,2,0.015740741,-0.012962963,1,0,0,0.7814,rock_grid_rect_2,1,03,-1,-1,0.781,-0.368518519,-0.256481481,1,0,0,1.1448,Andesite_rect,1,1.145,1,1,0,1,0,1,,,,,,,,,,,,,
6604722ff70cdd65875e2c6b,TCR,2024-06-24_17h32.59.406,LearnStrategy,2023.2.3,Win32,59.88023952,6,1,3,0.030555556,0.021296296,1,0,0,0.8088,rock_grid_rect_2,1,06,-1,-1,0.809,-0.437962963,-0.238888889,1,0,0,1.3551,Andesite_rect,1,1.355,1,2,0,2,0,1,,,,,,,,,,,,,
6604722ff70cdd65875e2c6b,TCR,2024-06-24_17h32.59.406,LearnStrategy,2023.2.3,Win32,59.88023952,6,1,4,0.088888889,-0.012962963,1,0,0,0.7477,rock_grid_rect_2,5,06,-1,-1,0.748,-0.410185185,-0.411111111,1,0,0,1.2017,Obsidian_rect,5,1.202,1,3,0,3,0,1,,,,,,,,,,,,,
6604722ff70cdd65875e2c6b,TCR,2024-06-24_17h32.59.406,LearnStrategy,2023.2.3,Win32,59.88023952,6,1,5,0.072222222,-0.005555556,1,0,0,0.7818,rock_grid_rect_2,4,11,-1,-1,0.782,0.44537037,-0.25,1,0,0,1.3109,Gabbro_rect,4,1.311,1,4,0,4,0,1,,,,,,,,,,,,,
6604722ff70cdd65875e2c6b,TCR,2024-06-24_17h32.59.406,LearnStrategy,2023.2.3,Win32,59.88023952,6,1,6,0.065740741,0.003703704,1,0,0,0.7984,rock_grid_rect_2,1,10,-1,-1,0.798,-0.390740741,-0.25462963,1,0,0,2.4327,Andesite_rect,1,2.433,1,5,0,5,0,1,,,,,,,,,,,,,
6604722ff70cdd65875e2c6b,TCR,2024-06-24_17h32.59.406,LearnStrategy,2023.2.3,Win32,59.88023952,6,1,7,0.04537037,-0.002777778,1,0,0,0.6802,rock_grid_rect_2,4,08,-1,-1,0.68,0.42037037,-0.24537037,1,0,0,1.5827,Gabbro_rect,4,1.583,1,6,0,6,0,1,,,,,,,,,,,,,
6604722ff70cdd65875e2c6b,TCR,2024-06-24_17h32.59.406,LearnStrategy,2023.2.3,Win32,59.88023952,6,1,8,0.027777778,-0.009259259,1,0,0,0.7151,rock_grid_rect_2,3,08,-1,-1,0.715,0.124074074,-0.24537037,1,0,0,1.1303,Diorite_rect,3,1.13,1,7,0,7,0,1,,,,,,,,,,,,,
6604722ff70cdd65875e2c6b,TCR,2024-06-24_17h32.59.406,LearnStrategy,2023.2.3,Win32,59.88023952,6,1,9,0.1,-0.002777778,1,0,0,0.8816,rock_grid_rect_2,7,15,-1,-1,0.882,0.116666667,-0.397222222,1,0,0,1.2134,Peridotite_rect,7,1.213,1,8,0,8,0,1,,,,,,,,,,,,,
6604722ff70cdd65875e2c6b,TCR,2024-06-24_17h32.59.406,LearnStrategy,2023.2.3,Win32,59.88023952,6,1,10,0.102777778,0.015740741,1,0,0,0.659,rock_grid_rect_2,4,15,-1,-1,0.659,0.408333333,-0.258333333,1,0,0,1.8244,Gabbro_rect,4,1.824,1,9,0,9,0,1,,,,,,,,,,,,,
6604722ff70cdd65875e2c6b,TCR,2024-06-24_17h32.59.406,LearnStrategy,2023.2.3,Win32,59.88023952,6,1,11,0.130555556,-0.001851852,1,0,0,0.8311,rock_grid_rect_2,6,06,-1,-1,0.831,-0.121296296,-0.386111111,1,0,0,1.2868,Pegmatite_rect,6,1.287,1,10,0,10,0,1,,,,,,,,,,,,,
6604722ff70cdd65875e2c6b,TCR,2024-06-24_17h32.59.406,LearnStrategy,2023.2.3,Win32,59.88023952,6,1,12,0.081481481,0.005555556,1,0,0,0.6523,rock_grid_rect_2,3,02,-1,-1,0.652,0.127777778,-0.246296296,1,0,0,1.0432,Diorite_rect,3,1.043,1,11,0,11,0,1,,,,,,,,,,,,,
6604722ff70cdd65875e2c6b,TCR,2024-06-24_17h32.59.406,LearnStrategy,2023.2.3,Win32,59.88023952,6,1,13,0.109259259,-0.002777778,1,0,0,0.7594,rock_grid_rect_2,1,11,-1,-1,0.759,-0.349074074,-0.250925926,1,0,0,1.6624,Andesite_rect,1,1.662,1,12,0,12,0,1,,,,,,,,,,,,,
6604722ff70cdd65875e2c6b,TCR,2024-06-24_17h32.59.406,LearnStrategy,2023.2.3,Win32,59.88023952,6,1,14,0.057407407,-0.017592593,1,0,0,1.0429,rock_grid_rect_2,6,15,-1,-1,1.043,-0.086111111,-0.387037037,1,0,0,1.0816,Pegmatite_rect,6,1.082,1,13,0,13,0,1,,,,,,,,,,,,,
6604722ff70cdd65875e2c6b,TCR,2024-06-24_17h32.59.406,LearnStrategy,2023.2.3,Win32,59.88023952,6,1,15,0.052777778,-0.000925926,1,0,0,0.8646,rock_grid_rect_2,2,09,-1,-1,0.865,-0.082407407,-0.249074074,1,0,0,1.2139,Basalt_rect,2,1.214,1,14,0,14,0,1,,,,,,,,,,,,,
6604722ff70cdd65875e2c6b,TCR,2024-06-24_17h32.59.406,LearnStrategy,2023.2.3,Win32,59.88023952,6,1,16,0.05462963,-0.00462963,1,0,0,0.8147,rock_grid_rect_2,7,04,-1,-1,0.815,0.122222222,-0.394444444,1,0,0,1.4009,Peridotite_rect,7,1.401,1,15,0,15,0,1,,,,,,,,,,,,,
6604722ff70cdd65875e2c6b,TCR,2024-06-24_17h32.59.406,LearnStrategy,2023.2.3,Win32,59.88023952,6,2,1,,,,,,,,7,16,,,,,,,,,,,7,6.445,1,,,,,,0.206481481,-0.406481481,1,0,0,6.4449,Peridotite_rect,0,0,0,0,1,
6604722ff70cdd65875e2c6b,TCR,2024-06-24_17h32.59.406,LearnStrategy,2023.2.3,Win32,59.88023952,6,2,2,,,,,,,,2,12,,,,,,,,,,,8,2.345,0,,,,,,0.347222222,-0.387962963,1,0,0,2.3453,Pumice_rect,1,0,1,0,1,
6604722ff70cdd65875e2c6b,TCR,2024-06-24_17h32.59.406,LearnStrategy,2023.2.3,Win32,59.88023952,6,2,3,,,,,,,,7,13,,,,,,,,,,,7,1.09,1,,,,,,0.182407407,-0.397222222,1,0,0,1.0899,Peridotite_rect,2,0,2,0,1,
6604722ff70cdd65875e2c6b,TCR,2024-06-24_17h32.59.406,LearnStrategy,2023.2.3,Win32,59.88023952,6,2,4,,,,,,,,5,02,,,,,,,,,,,5,1.045,1,,,,,,-0.349074074,-0.39537037,1,0,0,1.0445,Obsidian_rect,3,0,3,0,1,
6604722ff70cdd65875e2c6b,TCR,2024-06-24_17h32.59.406,LearnStrategy,2023.2.3,Win32,59.88023952,6,2,5,,,,,,,,1,07,,,,,,,,,,,3,1.586,0,,,,,,0.208333333,-0.252777778,1,0,0,1.5861,Diorite_rect,4,0,4,0,1,
6604722ff70cdd65875e2c6b,TCR,2024-06-24_17h32.59.406,LearnStrategy,2023.2.3,Win32,59.88023952,6,2,6,,,,,,,,4,05,,,,,,,,,,,4,1.412,1,,,,,,0.400925926,-0.252777778,1,0,0,1.4123,Gabbro_rect,5,0,5,0,1,
6604722ff70cdd65875e2c6b,TCR,2024-06-24_17h32.59.406,LearnStrategy,2023.2.3,Win32,59.88023952,6,2,7,,,,,,,,2,16,,,,,,,,,,,2,2.484,1,,,,,,-0.103703704,-0.259259259,1,0,0,2.4842,Basalt_rect,6,0,6,0,1,
6604722ff70cdd65875e2c6b,TCR,2024-06-24_17h32.59.406,LearnStrategy,2023.2.3,Win32,59.88023952,6,2,8,,,,,,,,5,10,,,,,,,,,,,5,1.129,1,,,,,,-0.399074074,-0.406481481,1,0,0,1.1286,Obsidian_rect,7,0,7,0,1,
6604722ff70cdd65875e2c6b,TCR,2024-06-24_17h32.59.406,LearnStrategy,2023.2.3,Win32,59.88023952,6,2,9,,,,,,,,3,09,,,,,,,,,,,3,1.116,1,,,,,,0.175925926,-0.246296296,1,0,0,1.116,Diorite_rect,8,0,8,0,1,
6604722ff70cdd65875e2c6b,TCR,2024-06-24_17h32.59.406,LearnStrategy,2023.2.3,Win32,59.88023952,6,2,10,,,,,,,,8,03,,,,,,,,,,,8,1.062,1,,,,,,0.396296296,-0.387962963,1,0,0,1.0619,Pumice_rect,9,0,9,0,1,
6604722ff70cdd65875e2c6b,TCR,2024-06-24_17h32.59.406,LearnStrategy,2023.2.3,Win32,59.88023952,6,2,11,,,,,,,,8,05,,,,,,,,,,,8,0.866,1,,,,,,0.396296296,-0.387962963,1,0,0,0.8662,Pumice_rect,10,0,10,0,1,
6604722ff70cdd65875e2c6b,TCR,2024-06-24_17h32.59.406,LearnStrategy,2023.2.3,Win32,59.88023952,6,2,12,,,,,,,,4,14,,,,,,,,,,,4,1.484,1,,,,,,0.387037037,-0.263888889,1,0,0,1.4836,Gabbro_rect,11,0,11,0,1,
6604722ff70cdd65875e2c6b,TCR,2024-06-24_17h32.59.406,LearnStrategy,2023.2.3,Win32,59.88023952,6,2,13,,,,,,,,3,10,,,,,,,,,,,1,3.494,0,,,,,,-0.330555556,-0.25462963,1,0,0,3.4943,Andesite_rect,12,0,12,0,1,
6604722ff70cdd65875e2c6b,TCR,2024-06-24_17h32.59.406,LearnStrategy,2023.2.3,Win32,59.88023952,6,2,14,,,,,,,,1,16,,,,,,,,,,,1,1.684,1,,,,,,-0.362037037,-0.244444444,1,0,0,1.6844,Andesite_rect,13,0,13,0,1,
6604722ff70cdd65875e2c6b,TCR,2024-06-24_17h32.59.406,LearnStrategy,2023.2.3,Win32,59.88023952,6,2,15,,,,,,,,6,12,,,,,,,,,,,6,1.329,1,,,,,,-0.174074074,-0.40462963,1,0,0,1.3285,Pegmatite_rect,14,0,14,0,1,
6604722ff70cdd65875e2c6b,TCR,2024-06-24_17h32.59.406,LearnStrategy,2023.2.3,Win32,59.88023952,6,2,16,,,,,,,,6,13,,,,,,,,,,,6,1.433,1,,,,,,-0.097222222,-0.403703704,1,0,0,1.4335,Pegmatite_rect,15,0,15,0,1,
6604722ff70cdd65875e2c6b,TCR,2024-06-24_17h32.59.406,LearnStrategy,2023.2.3,Win32,59.88023952,7,1,1,0.067592593,-0.005555556,1,0,0,1.3484,rock_grid_rect_2,8,14,-1,-1,1.348,0.376851852,-0.398148148,1,0,0,0.9896,Pumice_rect,8,0.99,1,0,0,0,0,1,,,,,,,,,,,,,
6604722ff70cdd65875e2c6b,TCR,2024-06-24_17h32.59.406,LearnStrategy,2023.2.3,Win32,59.88023952,7,1,2,0.041666667,0.005555556,1,0,0,0.6264,rock_grid_rect_2,1,10,-1,-1,0.626,-0.374074074,-0.237962963,1,0,0,1.301,Andesite_rect,1,1.301,1,1,0,1,0,1,,,,,,,,,,,,,
6604722ff70cdd65875e2c6b,TCR,2024-06-24_17h32.59.406,LearnStrategy,2023.2.3,Win32,59.88023952,7,1,3,0.117592593,-0.012962963,1,0,0,0.8142,rock_grid_rect_2,1,10,-1,-1,0.814,-0.356481481,-0.238888889,1,0,0,1.818,Andesite_rect,1,1.818,1,2,0,2,0,1,,,,,,,,,,,,,
6604722ff70cdd65875e2c6b,TCR,2024-06-24_17h32.59.406,LearnStrategy,2023.2.3,Win32,59.88023952,7,1,4,0.093518519,0.006481481,1,0,0,0.6317,rock_grid_rect_2,4,15,-1,-1,0.632,0.362037037,-0.232407407,1,0,0,1.5155,Gabbro_rect,4,1.515,1,3,0,3,0,1,,,,,,,,,,,,,
6604722ff70cdd65875e2c6b,TCR,2024-06-24_17h32.59.406,LearnStrategy,2023.2.3,Win32,59.88023952,7,1,5,0.058333333,-0.021296296,1,0,0,0.6814,rock_grid_rect_2,1,03,-1,-1,0.681,-0.315740741,-0.250925926,1,0,0,1.4811,Andesite_rect,1,1.481,1,4,0,4,0,1,,,,,,,,,,,,,
6604722ff70cdd65875e2c6b,TCR,2024-06-24_17h32.59.406,LearnStrategy,2023.2.3,Win32,59.88023952,7,1,6,-0.025,-0.009259259,1,0,0,1.8591,rock_grid_rect_2,3,16,-1,-1,1.859,0.175925926,-0.24537037,1,0,0,1.0057,Diorite_rect,3,1.006,1,5,0,5,0,1,,,,,,,,,,,,,
6604722ff70cdd65875e2c6b,TCR,2024-06-24_17h32.59.406,LearnStrategy,2023.2.3,Win32,59.88023952,7,1,7,0.090740741,-0.009259259,1,0,0,0.8809,rock_grid_rect_2,6,03,-1,-1,0.881,-0.162037037,-0.410185185,1,0,0,1.2994,Pegmatite_rect,6,1.299,1,6,0,6,0,1,,,,,,,,,,,,,
6604722ff70cdd65875e2c6b,TCR,2024-06-24_17h32.59.406,LearnStrategy,2023.2.3,Win32,59.88023952,7,1,8,0.124074074,-0.013888889,1,0,0,0.9311,rock_grid_rect_2,4,15,-1,-1,0.931,0.411111111,-0.251851852,1,0,0,1.8176,Gabbro_rect,4,1.818,1,7,0,7,0,1,,,,,,,,,,,,,
6604722ff70cdd65875e2c6b,TCR,2024-06-24_17h32.59.406,LearnStrategy,2023.2.3,Win32,59.88023952,7,1,9,0.062037037,0.003703704,1,0,0,0.8478,rock_grid_rect_2,1,03,-1,-1,0.848,-0.343518519,-0.257407407,1,0,0,1.9206,Andesite_rect,1,1.921,1,8,0,8,0,1,,,,,,,,,,,,,
6604722ff70cdd65875e2c6b,TCR,2024-06-24_17h32.59.406,LearnStrategy,2023.2.3,Win32,59.88023952,7,1,10,0.075,-0.012037037,1,0,0,0.8253,rock_grid_rect_2,3,08,-1,-1,0.825,0.118518519,-0.248148148,1,0,0,0.9285,Diorite_rect,3,0.928,1,9,0,9,0,1,,,,,,,,,,,,,
6604722ff70cdd65875e2c6b,TCR,2024-06-24_17h32.59.406,LearnStrategy,2023.2.3,Win32,59.88023952,7,1,11,0.07962963,0,1,0,0,0.7925,rock_grid_rect_2,2,10,-1,-1,0.793,-0.088888889,-0.243518519,1,0,0,1.6515,Basalt_rect,2,1.652,1,10,0,10,0,1,,,,,,,,,,,,,
6604722ff70cdd65875e2c6b,TCR,2024-06-24_17h32.59.406,LearnStrategy,2023.2.3,Win32,59.88023952,7,1,12,0.127777778,-0.010185185,1,0,0,0.7476,rock_grid_rect_2,7,07,-1,-1,0.748,0.149074074,-0.412962963,1,0,0,1.3117,Peridotite_rect,7,1.312,1,11,0,11,0,1,,,,,,,,,,,,,
6604722ff70cdd65875e2c6b,TCR,2024-06-24_17h32.59.406,LearnStrategy,2023.2.3,Win32,59.88023952,7,1,13,0.068518519,-0.012037037,1,0,0,0.8317,rock_grid_rect_2,2,02,-1,-1,0.832,-0.094444444,-0.236111111,1,0,0,1.202,Basalt_rect,2,1.202,1,12,0,12,0,1,,,,,,,,,,,,,
6604722ff70cdd65875e2c6b,TCR,2024-06-24_17h32.59.406,LearnStrategy,2023.2.3,Win32,59.88023952,7,1,14,0.076851852,-0.012962963,1,0,0,0.8476,rock_grid_rect_2,5,12,-1,-1,0.848,-0.358333333,-0.411111111,1,0,0,1.15,Obsidian_rect,5,1.15,1,13,0,13,0,1,,,,,,,,,,,,,
6604722ff70cdd65875e2c6b,TCR,2024-06-24_17h32.59.406,LearnStrategy,2023.2.3,Win32,59.88023952,7,1,15,0.074074074,-0.002777778,1,0,0,0.7813,rock_grid_rect_2,7,06,-1,-1,0.781,0.109259259,-0.400925926,1,0,0,1.2323,Peridotite_rect,7,1.232,1,14,0,14,0,1,,,,,,,,,,,,,
6604722ff70cdd65875e2c6b,TCR,2024-06-24_17h32.59.406,LearnStrategy,2023.2.3,Win32,59.88023952,7,1,16,0.114814815,-0.008333333,1,0,0,0.6479,rock_grid_rect_2,3,16,-1,-1,0.648,0.117592593,-0.234259259,1,0,0,1.0153,Diorite_rect,3,1.015,1,15,0,15,0,1,,,,,,,,,,,,,
6604722ff70cdd65875e2c6b,TCR,2024-06-24_17h32.59.406,LearnStrategy,2023.2.3,Win32,59.88023952,7,2,1,,,,,,,,4,03,,,,,,,,,,,4,5.125,1,,,,,,0.394444444,-0.235185185,1,0,0,5.1254,Gabbro_rect,0,0,0,0,1,
6604722ff70cdd65875e2c6b,TCR,2024-06-24_17h32.59.406,LearnStrategy,2023.2.3,Win32,59.88023952,7,2,2,,,,,,,,5,02,,,,,,,,,,,5,1.317,1,,,,,,-0.388888889,-0.405555556,1,0,0,1.3167,Obsidian_rect,1,0,1,0,1,
6604722ff70cdd65875e2c6b,TCR,2024-06-24_17h32.59.406,LearnStrategy,2023.2.3,Win32,59.88023952,7,2,3,,,,,,,,4,16,,,,,,,,,,,4,1.827,1,,,,,,0.374074074,-0.246296296,1,0,0,1.8269,Gabbro_rect,2,0,2,0,1,
6604722ff70cdd65875e2c6b,TCR,2024-06-24_17h32.59.406,LearnStrategy,2023.2.3,Win32,59.88023952,7,2,4,,,,,,,,2,05,,,,,,,,,,,2,1.238,1,,,,,,-0.146296296,-0.255555556,1,0,0,1.238,Basalt_rect,3,0,3,0,1,
6604722ff70cdd65875e2c6b,TCR,2024-06-24_17h32.59.406,LearnStrategy,2023.2.3,Win32,59.88023952,7,2,5,,,,,,,,3,13,,,,,,,,,,,3,1.596,1,,,,,,0.091666667,-0.252777778,1,0,0,1.5962,Diorite_rect,4,0,4,0,1,
6604722ff70cdd65875e2c6b,TCR,2024-06-24_17h32.59.406,LearnStrategy,2023.2.3,Win32,59.88023952,7,2,6,,,,,,,,8,10,,,,,,,,,,,8,1.351,1,,,,,,0.371296296,-0.393518519,1,0,0,1.3511,Pumice_rect,5,0,5,0,1,
6604722ff70cdd65875e2c6b,TCR,2024-06-24_17h32.59.406,LearnStrategy,2023.2.3,Win32,59.88023952,7,2,7,,,,,,,,1,02,,,,,,,,,,,1,1.386,1,,,,,,-0.367592593,-0.24537037,1,0,0,1.3864,Andesite_rect,6,0,6,0,1,
6604722ff70cdd65875e2c6b,TCR,2024-06-24_17h32.59.406,LearnStrategy,2023.2.3,Win32,59.88023952,7,2,8,,,,,,,,1,07,,,,,,,,,,,3,2.654,0,,,,,,0.056481481,-0.24537037,1,0,0,2.6537,Diorite_rect,7,0,7,0,1,
6604722ff70cdd65875e2c6b,TCR,2024-06-24_17h32.59.406,LearnStrategy,2023.2.3,Win32,59.88023952,7,2,9,,,,,,,,7,05,,,,,,,,,,,7,1.606,1,,,,,,0.092592593,-0.408333333,1,0,0,1.6063,Peridotite_rect,8,0,8,0,1,
6604722ff70cdd65875e2c6b,TCR,2024-06-24_17h32.59.406,LearnStrategy,2023.2.3,Win32,59.88023952,7,2,10,,,,,,,,8,03,,,,,,,,,,,8,1.165,1,,,,,,0.389814815,-0.400925926,1,0,0,1.1645,Pumice_rect,9,0,9,0,1,
6604722ff70cdd65875e2c6b,TCR,2024-06-24_17h32.59.406,LearnStrategy,2023.2.3,Win32,59.88023952,7,2,11,,,,,,,,7,16,,,,,,,,,,,7,4.113,1,,,,,,0.128703704,-0.415740741,1,0,0,4.1126,Peridotite_rect,10,0,10,0,1,
6604722ff70cdd65875e2c6b,TCR,2024-06-24_17h32.59.406,LearnStrategy,2023.2.3,Win32,59.88023952,7,2,12,,,,,,,,6,11,,,,,,,,,,,6,1.019,1,,,,,,-0.119444444,-0.405555556,1,0,0,1.019,Pegmatite_rect,11,0,11,0,1,
6604722ff70cdd65875e2c6b,TCR,2024-06-24_17h32.59.406,LearnStrategy,2023.2.3,Win32,59.88023952,7,2,13,,,,,,,,3,10,,,,,,,,,,,1,1.502,0,,,,,,-0.373148148,-0.252777778,1,0,0,1.5021,Andesite_rect,12,0,12,0,1,
6604722ff70cdd65875e2c6b,TCR,2024-06-24_17h32.59.406,LearnStrategy,2023.2.3,Win32,59.88023952,7,2,14,,,,,,,,2,04,,,,,,,,,,,2,1.098,1,,,,,,-0.143518519,-0.262962963,1,0,0,1.0977,Basalt_rect,13,0,13,0,1,
6604722ff70cdd65875e2c6b,TCR,2024-06-24_17h32.59.406,LearnStrategy,2023.2.3,Win32,59.88023952,7,2,15,,,,,,,,6,08,,,,,,,,,,,6,1.229,1,,,,,,-0.121296296,-0.40462963,1,0,0,1.2288,Pegmatite_rect,14,0,14,0,1,
6604722ff70cdd65875e2c6b,TCR,2024-06-24_17h32.59.406,LearnStrategy,2023.2.3,Win32,59.88023952,7,2,16,,,,,,,,5,08,,,,,,,,,,,5,0.983,1,,,,,,-0.375,-0.406481481,1,0,0,0.9825,Obsidian_rect,15,0,15,0,1,
6604722ff70cdd65875e2c6b,TCR,2024-06-24_17h32.59.406,LearnStrategy,2023.2.3,Win32,59.88023952,8,1,1,-0.021296296,0.017592593,1,0,0,0.793,rock_grid_rect_2,8,06,-1,-1,0.793,0.438888889,-0.413888889,1,0,0,1.0377,Pumice_rect,8,1.038,1,0,0,0,0,1,,,,,,,,,,,,,
6604722ff70cdd65875e2c6b,TCR,2024-06-24_17h32.59.406,LearnStrategy,2023.2.3,Win32,59.88023952,8,1,2,0.024074074,0.006481481,1,0,0,0.9476,rock_grid_rect_2,5,06,-1,-1,0.948,-0.388888889,-0.406481481,1,0,0,1.0465,Obsidian_rect,5,1.046,1,1,0,1,0,1,,,,,,,,,,,,,
6604722ff70cdd65875e2c6b,TCR,2024-06-24_17h32.59.406,LearnStrategy,2023.2.3,Win32,59.88023952,8,1,3,0.005555556,0.007407407,1,0,0,1.2317,rock_grid_rect_2,1,14,-1,-1,1.232,-0.359259259,-0.230555556,1,0,0,1.2574,Andesite_rect,1,1.257,1,2,0,2,0,1,,,,,,,,,,,,,
6604722ff70cdd65875e2c6b,TCR,2024-06-24_17h32.59.406,LearnStrategy,2023.2.3,Win32,59.88023952,8,1,4,0.106481481,-0.008333333,1,0,0,0.9595,rock_grid_rect_2,4,15,-1,-1,0.959,0.371296296,-0.237962963,1,0,0,1.4381,Gabbro_rect,4,1.438,1,3,0,3,0,1,,,,,,,,,,,,,
6604722ff70cdd65875e2c6b,TCR,2024-06-24_17h32.59.406,LearnStrategy,2023.2.3,Win32,59.88023952,8,1,5,0.09537037,0.002777778,1,0,0,0.6154,rock_grid_rect_2,7,02,-1,-1,0.615,0.148148148,-0.391666667,1,0,0,1.1103,Peridotite_rect,7,1.11,1,4,0,4,0,1,,,,,,,,,,,,,
6604722ff70cdd65875e2c6b,TCR,2024-06-24_17h32.59.406,LearnStrategy,2023.2.3,Win32,59.88023952,8,1,6,0.055555556,0.000925926,1,0,0,0.632,rock_grid_rect_2,2,06,-1,-1,0.632,-0.108333333,-0.246296296,1,0,0,1.0577,Basalt_rect,2,1.058,1,5,0,5,0,1,,,,,,,,,,,,,
6604722ff70cdd65875e2c6b,TCR,2024-06-24_17h32.59.406,LearnStrategy,2023.2.3,Win32,59.88023952,8,1,7,0.077777778,-0.008333333,1,0,0,0.7814,rock_grid_rect_2,3,15,-1,-1,0.781,0.151851852,-0.237037037,1,0,0,1.9366,Diorite_rect,3,1.937,1,6,0,6,0,1,,,,,,,,,,,,,
6604722ff70cdd65875e2c6b,TCR,2024-06-24_17h32.59.406,LearnStrategy,2023.2.3,Win32,59.88023952,8,1,8,0.018518519,-0.005555556,1,0,0,0.6824,rock_grid_rect_2,3,14,-1,-1,0.682,0.128703704,-0.258333333,1,0,0,0.9602,Diorite_rect,3,0.96,1,7,0,7,0,1,,,,,,,,,,,,,
6604722ff70cdd65875e2c6b,TCR,2024-06-24_17h32.59.406,LearnStrategy,2023.2.3,Win32,59.88023952,8,1,9,0.084259259,-0.015740741,1,0,0,0.7813,rock_grid_rect_2,1,04,-1,-1,0.781,-0.356481481,-0.246296296,1,0,0,1.1099,Andesite_rect,1,1.11,1,8,0,8,0,1,,,,,,,,,,,,,
6604722ff70cdd65875e2c6b,TCR,2024-06-24_17h32.59.406,LearnStrategy,2023.2.3,Win32,59.88023952,8,1,10,0.047222222,-0.003703704,1,0,0,0.7483,rock_grid_rect_2,1,10,-1,-1,0.748,-0.342592593,-0.247222222,1,0,0,1.2321,Andesite_rect,1,1.232,1,9,0,9,0,1,,,,,,,,,,,,,
6604722ff70cdd65875e2c6b,TCR,2024-06-24_17h32.59.406,LearnStrategy,2023.2.3,Win32,59.88023952,8,1,11,0.048148148,-0.012962963,1,0,0,0.8313,rock_grid_rect_2,4,08,-1,-1,0.831,0.394444444,-0.24537037,1,0,0,1.494,Gabbro_rect,4,1.494,1,10,0,10,0,1,,,,,,,,,,,,,
6604722ff70cdd65875e2c6b,TCR,2024-06-24_17h32.59.406,LearnStrategy,2023.2.3,Win32,59.88023952,8,1,12,0.092592593,0.017592593,1,0,0,0.6816,rock_grid_rect_2,3,11,-1,-1,0.682,0.144444444,-0.240740741,1,0,0,1.0985,Diorite_rect,3,1.099,1,11,0,11,0,1,,,,,,,,,,,,,
6604722ff70cdd65875e2c6b,TCR,2024-06-24_17h32.59.406,LearnStrategy,2023.2.3,Win32,59.88023952,8,1,13,0.026851852,-0.005555556,1,0,0,0.665,rock_grid_rect_2,2,14,-1,-1,0.665,0.380555556,-0.260185185,1,0,0,2.0001,Gabbro_rect,4,2,0,12,0,12,0,1,,,,,,,,,,,,,
6604722ff70cdd65875e2c6b,TCR,2024-06-24_17h32.59.406,LearnStrategy,2023.2.3,Win32,59.88023952,8,1,14,0.106481481,-0.011111111,1,0,0,0.7484,rock_grid_rect_2,3,02,-1,-1,0.748,0.125925926,-0.228703704,1,0,0,0.982,Diorite_rect,3,0.982,1,13,0,13,0,1,,,,,,,,,,,,,
6604722ff70cdd65875e2c6b,TCR,2024-06-24_17h32.59.406,LearnStrategy,2023.2.3,Win32,59.88023952,8,1,15,0.089814815,-0.000925926,1,0,0,0.6756,rock_grid_rect_2,1,10,-1,-1,0.676,-0.369444444,-0.253703704,1,0,0,1.1571,Andesite_rect,1,1.157,1,14,0,14,0,1,,,,,,,,,,,,,
6604722ff70cdd65875e2c6b,TCR,2024-06-24_17h32.59.406,LearnStrategy,2023.2.3,Win32,59.88023952,8,1,16,0.044444444,0.009259259,1,0,0,0.6483,rock_grid_rect_2,6,05,-1,-1,0.648,-0.124074074,-0.412037037,1,0,0,1.5811,Pegmatite_rect,6,1.581,1,15,0,15,0,1,,,,,,,,,,,,,
6604722ff70cdd65875e2c6b,TCR,2024-06-24_17h32.59.406,LearnStrategy,2023.2.3,Win32,59.88023952,8,2,1,,,,,,,,5,16,,,,,,,,,,,5,1.152,1,,,,,,-0.352777778,-0.385185185,1,0,0,1.1523,Obsidian_rect,0,0,0,0,1,
6604722ff70cdd65875e2c6b,TCR,2024-06-24_17h32.59.406,LearnStrategy,2023.2.3,Win32,59.88023952,8,2,2,,,,,,,,8,02,,,,,,,,,,,8,1.359,1,,,,,,0.385185185,-0.391666667,1,0,0,1.3588,Pumice_rect,1,0,1,0,1,
6604722ff70cdd65875e2c6b,TCR,2024-06-24_17h32.59.406,LearnStrategy,2023.2.3,Win32,59.88023952,8,2,3,,,,,,,,7,10,,,,,,,,,,,7,1.328,1,,,,,,0.159259259,-0.403703704,1,0,0,1.3276,Peridotite_rect,2,0,2,0,1,
6604722ff70cdd65875e2c6b,TCR,2024-06-24_17h32.59.406,LearnStrategy,2023.2.3,Win32,59.88023952,8,2,4,,,,,,,,7,13,,,,,,,,,,,7,1.202,1,,,,,,0.159259259,-0.403703704,1,0,0,1.2019,Peridotite_rect,3,0,3,0,1,
6604722ff70cdd65875e2c6b,TCR,2024-06-24_17h32.59.406,LearnStrategy,2023.2.3,Win32,59.88023952,8,2,5,,,,,,,,6,13,,,,,,,,,,,6,1.086,1,,,,,,-0.114814815,-0.400925926,1,0,0,1.0859,Pegmatite_rect,4,0,4,0,1,
6604722ff70cdd65875e2c6b,TCR,2024-06-24_17h32.59.406,LearnStrategy,2023.2.3,Win32,59.88023952,8,2,6,,,,,,,,8,16,,,,,,,,,,,8,2.585,1,,,,,,0.357407407,-0.412037037,1,0,0,2.5849,Pumice_rect,5,0,5,0,1,
6604722ff70cdd65875e2c6b,TCR,2024-06-24_17h32.59.406,LearnStrategy,2023.2.3,Win32,59.88023952,8,2,7,,,,,,,,2,01,,,,,,,,,,,2,1.126,1,,,,,,-0.137962963,-0.265740741,1,0,0,1.1257,Basalt_rect,6,0,6,0,1,
6604722ff70cdd65875e2c6b,TCR,2024-06-24_17h32.59.406,LearnStrategy,2023.2.3,Win32,59.88023952,8,2,8,,,,,,,,1,16,,,,,,,,,,,1,1.507,1,,,,,,-0.364814815,-0.242592593,1,0,0,1.5068,Andesite_rect,7,0,7,0,1,
6604722ff70cdd65875e2c6b,TCR,2024-06-24_17h32.59.406,LearnStrategy,2023.2.3,Win32,59.88023952,8,2,9,,,,,,,,6,12,,,,,,,,,,,6,1.306,1,,,,,,-0.116666667,-0.393518519,1,0,0,1.3059,Pegmatite_rect,8,0,8,0,1,
6604722ff70cdd65875e2c6b,TCR,2024-06-24_17h32.59.406,LearnStrategy,2023.2.3,Win32,59.88023952,8,2,10,,,,,,,,3,07,,,,,,,,,,,3,1.775,1,,,,,,0.103703704,-0.261111111,1,0,0,1.7753,Diorite_rect,9,0,9,0,1,
6604722ff70cdd65875e2c6b,TCR,2024-06-24_17h32.59.406,LearnStrategy,2023.2.3,Win32,59.88023952,8,2,11,,,,,,,,3,12,,,,,,,,,,,3,3.147,1,,,,,,0.10462963,-0.260185185,1,0,0,3.1471,Diorite_rect,10,0,10,0,1,
6604722ff70cdd65875e2c6b,TCR,2024-06-24_17h32.59.406,LearnStrategy,2023.2.3,Win32,59.88023952,8,2,12,,,,,,,,2,16,,,,,,,,,,,2,1.699,1,,,,,,-0.108333333,-0.256481481,1,0,0,1.699,Basalt_rect,11,0,11,0,1,
6604722ff70cdd65875e2c6b,TCR,2024-06-24_17h32.59.406,LearnStrategy,2023.2.3,Win32,59.88023952,8,2,13,,,,,,,,1,05,,,,,,,,,,,1,1.172,1,,,,,,-0.366666667,-0.268518519,1,0,0,1.1716,Andesite_rect,12,0,12,0,1,
6604722ff70cdd65875e2c6b,TCR,2024-06-24_17h32.59.406,LearnStrategy,2023.2.3,Win32,59.88023952,8,2,14,,,,,,,,4,13,,,,,,,,,,,4,1.927,1,,,,,,0.381481481,-0.271296296,1,0,0,1.927,Gabbro_rect,13,0,13,0,1,
6604722ff70cdd65875e2c6b,TCR,2024-06-24_17h32.59.406,LearnStrategy,2023.2.3,Win32,59.88023952,8,2,15,,,,,,,,4,10,,,,,,,,,,,4,2.096,1,,,,,,0.381481481,-0.271296296,1,0,0,2.0958,Gabbro_rect,14,0,14,0,1,
6604722ff70cdd65875e2c6b,TCR,2024-06-24_17h32.59.406,LearnStrategy,2023.2.3,Win32,59.88023952,8,2,16,,,,,,,,5,07,,,,,,,,,,,5,1.264,1,,,,,,-0.333333333,-0.389814815,1,0,0,1.2637,Obsidian_rect,15,0,15,0,1,
6604722ff70cdd65875e2c6b,TCR,2024-06-24_17h32.59.406,LearnStrategy,2023.2.3,Win32,59.88023952,9,1,1,0.090740741,-0.011111111,1,0,0,1.0099,rock_grid_rect_2,7,04,-1,-1,1.01,0.126851852,-0.411111111,1,0,0,1.7504,Peridotite_rect,7,1.75,1,0,0,0,0,1,,,,,,,,,,,,,
6604722ff70cdd65875e2c6b,TCR,2024-06-24_17h32.59.406,LearnStrategy,2023.2.3,Win32,59.88023952,9,1,2,0.136111111,0.002777778,1,0,0,1.131,rock_grid_rect_2,1,11,-1,-1,1.131,-0.440740741,-0.236111111,1,0,0,1.1627,Andesite_rect,1,1.163,1,1,0,1,0,1,,,,,,,,,,,,,
6604722ff70cdd65875e2c6b,TCR,2024-06-24_17h32.59.406,LearnStrategy,2023.2.3,Win32,59.88023952,9,1,3,0.103703704,-0.011111111,1,0,0,0.781,rock_grid_rect_2,4,09,-1,-1,0.781,0.371296296,-0.234259259,1,0,0,1.5508,Gabbro_rect,4,1.551,1,2,0,2,0,1,,,,,,,,,,,,,
6604722ff70cdd65875e2c6b,TCR,2024-06-24_17h32.59.406,LearnStrategy,2023.2.3,Win32,59.88023952,9,1,4,0.086111111,-0.012962963,1,0,0,0.8984,rock_grid_rect_2,1,10,-1,-1,0.898,-0.434259259,-0.25,1,0,0,1.2342,Andesite_rect,1,1.234,1,3,0,3,0,1,,,,,,,,,,,,,
6604722ff70cdd65875e2c6b,TCR,2024-06-24_17h32.59.406,LearnStrategy,2023.2.3,Win32,59.88023952,9,1,5,0.125,-0.012037037,1,0,0,0.7817,rock_grid_rect_2,3,02,-1,-1,0.782,0.15462963,-0.24537037,1,0,0,1.034,Diorite_rect,3,1.034,1,4,0,4,0,1,,,,,,,,,,,,,
6604722ff70cdd65875e2c6b,TCR,2024-06-24_17h32.59.406,LearnStrategy,2023.2.3,Win32,59.88023952,9,1,6,0.088888889,-0.012037037,1,0,0,0.9979,rock_grid_rect_2,1,11,-1,-1,0.998,-0.364814815,-0.243518519,1,0,0,1.078,Andesite_rect,1,1.078,1,5,0,5,0,1,,,,,,,,,,,,,
6604722ff70cdd65875e2c6b,TCR,2024-06-24_17h32.59.406,LearnStrategy,2023.2.3,Win32,59.88023952,9,1,7,0.101851852,0.018518519,1,0,0,0.748,rock_grid_rect_2,7,12,-1,-1,0.748,0.137037037,-0.387962963,1,0,0,1.0705,Peridotite_rect,7,1.071,1,6,0,6,0,1,,,,,,,,,,,,,
6604722ff70cdd65875e2c6b,TCR,2024-06-24_17h32.59.406,LearnStrategy,2023.2.3,Win32,59.88023952,9,1,8,0.110185185,0,1,0,0,0.8094,rock_grid_rect_2,8,06,-1,-1,0.809,0.392592593,-0.386111111,1,0,0,1.0478,Pumice_rect,8,1.048,1,7,0,7,0,1,,,,,,,,,,,,,
6604722ff70cdd65875e2c6b,TCR,2024-06-24_17h32.59.406,LearnStrategy,2023.2.3,Win32,59.88023952,9,1,9,0.116666667,-0.017592593,1,0,0,0.8809,rock_grid_rect_2,4,08,-1,-1,0.881,0.375925926,-0.239814815,1,0,0,1.3837,Gabbro_rect,4,1.384,1,8,0,8,0,1,,,,,,,,,,,,,
6604722ff70cdd65875e2c6b,TCR,2024-06-24_17h32.59.406,LearnStrategy,2023.2.3,Win32,59.88023952,9,1,10,0.044444444,-0.000925926,1,0,0,0.6814,rock_grid_rect_2,1,03,-1,-1,0.681,-0.348148148,-0.233333333,1,0,0,1.1301,Andesite_rect,1,1.13,1,9,0,9,0,1,,,,,,,,,,,,,
6604722ff70cdd65875e2c6b,TCR,2024-06-24_17h32.59.406,LearnStrategy,2023.2.3,Win32,59.88023952,9,1,11,0.076851852,-0.011111111,1,0,0,0.7977,rock_grid_rect_2,5,09,-1,-1,0.798,-0.423148148,-0.409259259,1,0,0,1.2962,Obsidian_rect,5,1.296,1,10,0,10,0,1,,,,,,,,,,,,,
6604722ff70cdd65875e2c6b,TCR,2024-06-24_17h32.59.406,LearnStrategy,2023.2.3,Win32,59.88023952,9,1,12,0.058333333,0.001851852,1,0,0,0.8153,rock_grid_rect_2,2,10,-1,-1,0.815,-0.124074074,-0.238888889,1,0,0,1.5686,Basalt_rect,2,1.569,1,11,0,11,0,1,,,,,,,,,,,,,
6604722ff70cdd65875e2c6b,TCR,2024-06-24_17h32.59.406,LearnStrategy,2023.2.3,Win32,59.88023952,9,1,13,0.105555556,0.008333333,1,0,0,0.9649,rock_grid_rect_2,3,15,-1,-1,0.965,0.153703704,-0.237037037,1,0,0,1.2153,Diorite_rect,3,1.215,1,12,0,12,0,1,,,,,,,,,,,,,
6604722ff70cdd65875e2c6b,TCR,2024-06-24_17h32.59.406,LearnStrategy,2023.2.3,Win32,59.88023952,9,1,14,0.100925926,-0.002777778,1,0,0,0.9524,rock_grid_rect_2,3,02,-1,-1,0.952,0.133333333,-0.233333333,1,0,0,1.0893,Diorite_rect,3,1.089,1,13,0,13,0,1,,,,,,,,,,,,,
6604722ff70cdd65875e2c6b,TCR,2024-06-24_17h32.59.406,LearnStrategy,2023.2.3,Win32,59.88023952,9,1,15,0.153703704,0.002777778,1,0,0,0.6655,rock_grid_rect_2,2,02,-1,-1,0.665,-0.121296296,-0.238888889,1,0,0,0.9861,Basalt_rect,2,0.986,1,14,0,14,0,1,,,,,,,,,,,,,
6604722ff70cdd65875e2c6b,TCR,2024-06-24_17h32.59.406,LearnStrategy,2023.2.3,Win32,59.88023952,9,1,16,0.067592593,0.003703704,1,0,0,0.8041,rock_grid_rect_2,6,05,-1,-1,0.804,-0.186111111,-0.413888889,1,0,0,1.0931,Pegmatite_rect,6,1.093,1,15,0,15,0,1,,,,,,,,,,,,,
6604722ff70cdd65875e2c6b,TCR,2024-06-24_17h32.59.406,LearnStrategy,2023.2.3,Win32,59.88023952,9,2,1,,,,,,,,1,09,,,,,,,,,,,1,1.277,1,,,,,,-0.325,-0.248148148,1,0,0,1.2774,Andesite_rect,0,0,0,0,1,
6604722ff70cdd65875e2c6b,TCR,2024-06-24_17h32.59.406,LearnStrategy,2023.2.3,Win32,59.88023952,9,2,2,,,,,,,,3,06,,,,,,,,,,,3,1.724,1,,,,,,0.12962963,-0.24537037,1,0,0,1.724,Diorite_rect,1,0,1,0,1,
6604722ff70cdd65875e2c6b,TCR,2024-06-24_17h32.59.406,LearnStrategy,2023.2.3,Win32,59.88023952,9,2,3,,,,,,,,2,08,,,,,,,,,,,2,1.44,1,,,,,,-0.108333333,-0.260185185,1,0,0,1.4402,Basalt_rect,2,0,2,0,1,
6604722ff70cdd65875e2c6b,TCR,2024-06-24_17h32.59.406,LearnStrategy,2023.2.3,Win32,59.88023952,9,2,4,,,,,,,,1,01,,,,,,,,,,,4,1.486,0,,,,,,0.368518519,-0.259259259,1,0,0,1.4857,Gabbro_rect,3,0,3,0,1,
6604722ff70cdd65875e2c6b,TCR,2024-06-24_17h32.59.406,LearnStrategy,2023.2.3,Win32,59.88023952,9,2,5,,,,,,,,8,08,,,,,,,,,,,8,1.831,1,,,,,,0.368518519,-0.389814815,1,0,0,1.8305,Pumice_rect,4,0,4,0,1,
6604722ff70cdd65875e2c6b,TCR,2024-06-24_17h32.59.406,LearnStrategy,2023.2.3,Win32,59.88023952,9,2,6,,,,,,,,6,16,,,,,,,,,,,6,1.301,1,,,,,,-0.090740741,-0.40462963,1,0,0,1.301,Pegmatite_rect,5,0,5,0,1,
6604722ff70cdd65875e2c6b,TCR,2024-06-24_17h32.59.406,LearnStrategy,2023.2.3,Win32,59.88023952,9,2,7,,,,,,,,7,14,,,,,,,,,,,7,2.301,1,,,,,,0.109259259,-0.399074074,1,0,0,2.3015,Peridotite_rect,6,0,6,0,1,
6604722ff70cdd65875e2c6b,TCR,2024-06-24_17h32.59.406,LearnStrategy,2023.2.3,Win32,59.88023952,9,2,8,,,,,,,,4,14,,,,,,,,,,,4,2.333,1,,,,,,0.378703704,-0.251851852,1,0,0,2.3335,Gabbro_rect,7,0,7,0,1,
6604722ff70cdd65875e2c6b,TCR,2024-06-24_17h32.59.406,LearnStrategy,2023.2.3,Win32,59.88023952,9,2,9,,,,,,,,5,10,,,,,,,,,,,5,1.263,1,,,,,,-0.436111111,-0.407407407,1,0,0,1.2629,Obsidian_rect,8,0,8,0,1,
6604722ff70cdd65875e2c6b,TCR,2024-06-24_17h32.59.406,LearnStrategy,2023.2.3,Win32,59.88023952,9,2,10,,,,,,,,3,09,,,,,,,,,,,3,1.228,1,,,,,,0.07962963,-0.255555556,1,0,0,1.2281,Diorite_rect,9,0,9,0,1,
6604722ff70cdd65875e2c6b,TCR,2024-06-24_17h32.59.406,LearnStrategy,2023.2.3,Win32,59.88023952,9,2,11,,,,,,,,6,09,,,,,,,,,,,6,1.174,1,,,,,,-0.071296296,-0.382407407,1,0,0,1.174,Pegmatite_rect,10,0,10,0,1,
6604722ff70cdd65875e2c6b,TCR,2024-06-24_17h32.59.406,LearnStrategy,2023.2.3,Win32,59.88023952,9,2,12,,,,,,,,4,05,,,,,,,,,,,4,1.535,1,,,,,,0.399074074,-0.251851852,1,0,0,1.5349,Gabbro_rect,11,0,11,0,1,
6604722ff70cdd65875e2c6b,TCR,2024-06-24_17h32.59.406,LearnStrategy,2023.2.3,Win32,59.88023952,9,2,13,,,,,,,,2,12,,,,,,,,,,,8,4.662,0,,,,,,0.40462963,-0.401851852,1,0,0,4.6619,Pumice_rect,12,0,12,0,1,
6604722ff70cdd65875e2c6b,TCR,2024-06-24_17h32.59.406,LearnStrategy,2023.2.3,Win32,59.88023952,9,2,14,,,,,,,,8,05,,,,,,,,,,,8,0.907,1,,,,,,0.40462963,-0.401851852,1,0,0,0.9071,Pumice_rect,13,0,13,0,1,
6604722ff70cdd65875e2c6b,TCR,2024-06-24_17h32.59.406,LearnStrategy,2023.2.3,Win32,59.88023952,9,2,15,,,,,,,,7,08,,,,,,,,,,,7,1.08,1,,,,,,0.163888889,-0.413888889,1,0,0,1.0803,Peridotite_rect,14,0,14,0,1,
6604722ff70cdd65875e2c6b,TCR,2024-06-24_17h32.59.406,LearnStrategy,2023.2.3,Win32,59.88023952,9,2,16,,,,,,,,5,14,,,,,,,,,,,5,1.1,1,,,,,,-0.389814815,-0.408333333,1,0,0,1.1004,Obsidian_rect,15,0,15,0,1,
6604722ff70cdd65875e2c6b,TCR,2024-06-24_17h32.59.406,LearnStrategy,2023.2.3,Win32,59.88023952,,,,,,,,,,,,,,,,,,,,,,,,,,,,,,,,,,,,,,,,,,,1
6604722ff70cdd65875e2c6b,TCR,2024-06-24_17h32.59.406,LearnStrategy,2023.2.3,Win32,59.88023952,,,,,,,,,,,,,,,,,,,,,,,,,,,,,,,,,,,,,,,,,,,
6604722ff70cdd65875e2c6b,TCR,2024-06-24_17h32.59.406,LearnStrategy,2023.2.3,Win32,59.88023952,,,,,,,,,,,6,10,1,1,,,,,,,,,,,,,,,,,,,,,,,,,,,,,
6604722ff70cdd65875e2c6b,TCR,2024-06-24_17h32.59.406,LearnStrategy,2023.2.3,Win32,59.88023952,,,,,,,,,,,5,05,1,2,,,,,,,,,,,,,,,,,,,,,,,,,,,,,
6604722ff70cdd65875e2c6b,TCR,2024-06-24_17h32.59.406,LearnStrategy,2023.2.3,Win32,59.88023952,,,,,,,,,,,6,15,1,3,,,,,,,,,,,,,,,,,,,,,,,,,,,,,
6604722ff70cdd65875e2c6b,TCR,2024-06-24_17h32.59.406,LearnStrategy,2023.2.3,Win32,59.88023952,,,,,,,,,,,6,06,1,4,,,,,,,,,,,,,,,,,,,,,,,,,,,,,
6604722ff70cdd65875e2c6b,TCR,2024-06-24_17h32.59.406,LearnStrategy,2023.2.3,Win32,59.88023952,,,,,,,,,,,4,08,1,5,,,,,,,,,,,,,,,,,,,,,,,,,,,,,
6604722ff70cdd65875e2c6b,TCR,2024-06-24_17h32.59.406,LearnStrategy,2023.2.3,Win32,59.88023952,,,,,,,,,,,4,12,1,6,,,,,,,,,,,,,,,,,,,,,,,,,,,,,
6604722ff70cdd65875e2c6b,TCR,2024-06-24_17h32.59.406,LearnStrategy,2023.2.3,Win32,59.88023952,,,,,,,,,,,5,11,1,7,,,,,,,,,,,,,,,,,,,,,,,,,,,,,
6604722ff70cdd65875e2c6b,TCR,2024-06-24_17h32.59.406,LearnStrategy,2023.2.3,Win32,59.88023952,,,,,,,,,,,1,14,1,8,,,,,,,,,,,,,,,,,,,,,,,,,,,,,
6604722ff70cdd65875e2c6b,TCR,2024-06-24_17h32.59.406,LearnStrategy,2023.2.3,Win32,59.88023952,,,,,,,,,,,7,07,2,1,,,,,,,,,,,,,,,,,,,,,,,,,,,,,
6604722ff70cdd65875e2c6b,TCR,2024-06-24_17h32.59.406,LearnStrategy,2023.2.3,Win32,59.88023952,,,,,,,,,,,8,09,2,2,,,,,,,,,,,,,,,,,,,,,,,,,,,,,
6604722ff70cdd65875e2c6b,TCR,2024-06-24_17h32.59.406,LearnStrategy,2023.2.3,Win32,59.88023952,,,,,,,,,,,7,02,2,3,,,,,,,,,,,,,,,,,,,,,,,,,,,,,
6604722ff70cdd65875e2c6b,TCR,2024-06-24_17h32.59.406,LearnStrategy,2023.2.3,Win32,59.88023952,,,,,,,,,,,1,06,2,4,,,,,,,,,,,,,,,,,,,,,,,,,,,,,
6604722ff70cdd65875e2c6b,TCR,2024-06-24_17h32.59.406,LearnStrategy,2023.2.3,Win32,59.88023952,,,,,,,,,,,1,10,2,5,,,,,,,,,,,,,,,,,,,,,,,,,,,,,
6604722ff70cdd65875e2c6b,TCR,2024-06-24_17h32.59.406,LearnStrategy,2023.2.3,Win32,59.88023952,,,,,,,,,,,1,04,2,6,,,,,,,,,,,,,,,,,,,,,,,,,,,,,
6604722ff70cdd65875e2c6b,TCR,2024-06-24_17h32.59.406,LearnStrategy,2023.2.3,Win32,59.88023952,,,,,,,,,,,8,04,2,7,,,,,,,,,,,,,,,,,,,,,,,,,,,,,
6604722ff70cdd65875e2c6b,TCR,2024-06-24_17h32.59.406,LearnStrategy,2023.2.3,Win32,59.88023952,,,,,,,,,,,8,13,2,8,,,,,,,,,,,,,,,,,,,,,,,,,,,,,
6604722ff70cdd65875e2c6b,TCR,2024-06-24_17h32.59.406,LearnStrategy,2023.2.3,Win32,59.88023952,,,,,,,,,,,2,14,3,1,,,,,,,,,,,,,,,,,,,,,,,,,,,,,
6604722ff70cdd65875e2c6b,TCR,2024-06-24_17h32.59.406,LearnStrategy,2023.2.3,Win32,59.88023952,,,,,,,,,,,5,09,3,2,,,,,,,,,,,,,,,,,,,,,,,,,,,,,
6604722ff70cdd65875e2c6b,TCR,2024-06-24_17h32.59.406,LearnStrategy,2023.2.3,Win32,59.88023952,,,,,,,,,,,3,02,3,3,,,,,,,,,,,,,,,,,,,,,,,,,,,,,
6604722ff70cdd65875e2c6b,TCR,2024-06-24_17h32.59.406,LearnStrategy,2023.2.3,Win32,59.88023952,,,,,,,,,,,6,03,3,4,,,,,,,,,,,,,,,,,,,,,,,,,,,,,
6604722ff70cdd65875e2c6b,TCR,2024-06-24_17h32.59.406,LearnStrategy,2023.2.3,Win32,59.88023952,,,,,,,,,,,3,08,3,5,,,,,,,,,,,,,,,,,,,,,,,,,,,,,
6604722ff70cdd65875e2c6b,TCR,2024-06-24_17h32.59.406,LearnStrategy,2023.2.3,Win32,59.88023952,,,,,,,,,,,7,06,3,6,,,,,,,,,,,,,,,,,,,,,,,,,,,,,
6604722ff70cdd65875e2c6b,TCR,2024-06-24_17h32.59.406,LearnStrategy,2023.2.3,Win32,59.88023952,,,,,,,,,,,2,02,3,7,,,,,,,,,,,,,,,,,,,,,,,,,,,,,
6604722ff70cdd65875e2c6b,TCR,2024-06-24_17h32.59.406,LearnStrategy,2023.2.3,Win32,59.88023952,,,,,,,,,,,4,15,3,8,,,,,,,,,,,,,,,,,,,,,,,,,,,,,
6604722ff70cdd65875e2c6b,TCR,2024-06-24_17h32.59.406,LearnStrategy,2023.2.3,Win32,59.88023952,,,,,,,,,,,3,15,4,1,,,,,,,,,,,,,,,,,,,,,,,,,,,,,
6604722ff70cdd65875e2c6b,TCR,2024-06-24_17h32.59.406,LearnStrategy,2023.2.3,Win32,59.88023952,,,,,,,,,,,3,11,4,2,,,,,,,,,,,,,,,,,,,,,,,,,,,,,
6604722ff70cdd65875e2c6b,TCR,2024-06-24_17h32.59.406,LearnStrategy,2023.2.3,Win32,59.88023952,,,,,,,,,,,2,06,4,3,,,,,,,,,,,,,,,,,,,,,,,,,,,,,
6604722ff70cdd65875e2c6b,TCR,2024-06-24_17h32.59.406,LearnStrategy,2023.2.3,Win32,59.88023952,,,,,,,,,,,7,15,4,4,,,,,,,,,,,,,,,,,,,,,,,,,,,,,
6604722ff70cdd65875e2c6b,TCR,2024-06-24_17h32.59.406,LearnStrategy,2023.2.3,Win32,59.88023952,,,,,,,,,,,6,05,4,5,,,,,,,,,,,,,,,,,,,,,,,,,,,,,
6604722ff70cdd65875e2c6b,TCR,2024-06-24_17h32.59.406,LearnStrategy,2023.2.3,Win32,59.88023952,,,,,,,,,,,8,15,4,6,,,,,,,,,,,,,,,,,,,,,,,,,,,,,
6604722ff70cdd65875e2c6b,TCR,2024-06-24_17h32.59.406,LearnStrategy,2023.2.3,Win32,59.88023952,,,,,,,,,,,3,16,4,7,,,,,,,,,,,,,,,,,,,,,,,,,,,,,
6604722ff70cdd65875e2c6b,TCR,2024-06-24_17h32.59.406,LearnStrategy,2023.2.3,Win32,59.88023952,,,,,,,,,,,2,11,4,8,,,,,,,,,,,,,,,,,,,,,,,,,,,,,
6604722ff70cdd65875e2c6b,TCR,2024-06-24_17h32.59.406,LearnStrategy,2023.2.3,Win32,59.88023952,,,,,,,,,,,8,06,5,1,,,,,,,,,,,,,,,,,,,,,,,,,,,,,
6604722ff70cdd65875e2c6b,TCR,2024-06-24_17h32.59.406,LearnStrategy,2023.2.3,Win32,59.88023952,,,,,,,,,,,6,07,5,2,,,,,,,,,,,,,,,,,,,,,,,,,,,,,
6604722ff70cdd65875e2c6b,TCR,2024-06-24_17h32.59.406,LearnStrategy,2023.2.3,Win32,59.88023952,,,,,,,,,,,7,12,5,3,,,,,,,,,,,,,,,,,,,,,,,,,,,,,
6604722ff70cdd65875e2c6b,TCR,2024-06-24_17h32.59.406,LearnStrategy,2023.2.3,Win32,59.88023952,,,,,,,,,,,7,04,5,4,,,,,,,,,,,,,,,,,,,,,,,,,,,,,
6604722ff70cdd65875e2c6b,TCR,2024-06-24_17h32.59.406,LearnStrategy,2023.2.3,Win32,59.88023952,,,,,,,,,,,1,11,5,5,,,,,,,,,,,,,,,,,,,,,,,,,,,,,
6604722ff70cdd65875e2c6b,TCR,2024-06-24_17h32.59.406,LearnStrategy,2023.2.3,Win32,59.88023952,,,,,,,,,,,5,12,5,6,,,,,,,,,,,,,,,,,,,,,,,,,,,,,
6604722ff70cdd65875e2c6b,TCR,2024-06-24_17h32.59.406,LearnStrategy,2023.2.3,Win32,59.88023952,,,,,,,,,,,5,04,5,7,,,,,,,,,,,,,,,,,,,,,,,,,,,,,
6604722ff70cdd65875e2c6b,TCR,2024-06-24_17h32.59.406,LearnStrategy,2023.2.3,Win32,59.88023952,,,,,,,,,,,1,03,5,8,,,,,,,,,,,,,,,,,,,,,,,,,,,,,
6604722ff70cdd65875e2c6b,TCR,2024-06-24_17h32.59.406,LearnStrategy,2023.2.3,Win32,59.88023952,,,,,,,,,,,4,11,6,1,,,,,,,,,,,,,,,,,,,,,,,,,,,,,
6604722ff70cdd65875e2c6b,TCR,2024-06-24_17h32.59.406,LearnStrategy,2023.2.3,Win32,59.88023952,,,,,,,,,,,4,01,6,2,,,,,,,,,,,,,,,,,,,,,,,,,,,,,
6604722ff70cdd65875e2c6b,TCR,2024-06-24_17h32.59.406,LearnStrategy,2023.2.3,Win32,59.88023952,,,,,,,,,,,2,09,6,3,,,,,,,,,,,,,,,,,,,,,,,,,,,,,
6604722ff70cdd65875e2c6b,TCR,2024-06-24_17h32.59.406,LearnStrategy,2023.2.3,Win32,59.88023952,,,,,,,,,,,3,14,6,4,,,,,,,,,,,,,,,,,,,,,,,,,,,,,
6604722ff70cdd65875e2c6b,TCR,2024-06-24_17h32.59.406,LearnStrategy,2023.2.3,Win32,59.88023952,,,,,,,,,,,5,06,6,5,,,,,,,,,,,,,,,,,,,,,,,,,,,,,
6604722ff70cdd65875e2c6b,TCR,2024-06-24_17h32.59.406,LearnStrategy,2023.2.3,Win32,59.88023952,,,,,,,,,,,4,09,6,6,,,,,,,,,,,,,,,,,,,,,,,,,,,,,
6604722ff70cdd65875e2c6b,TCR,2024-06-24_17h32.59.406,LearnStrategy,2023.2.3,Win32,59.88023952,,,,,,,,,,,8,14,6,7,,,,,,,,,,,,,,,,,,,,,,,,,,,,,
6604722ff70cdd65875e2c6b,TCR,2024-06-24_17h32.59.406,LearnStrategy,2023.2.3,Win32,59.88023952,,,,,,,,,,,2,10,6,8,,,,,,,,,,,,,,,,,,,,,,,,,,,,,