participant,condition,date,expName,psychopyVersion,OS,frameRate,block,phase,trial,learn_mouse_2.x,learn_mouse_2.y,learn_mouse_2.leftButton,learn_mouse_2.midButton,learn_mouse_2.rightButton,learn_mouse_2.time,learn_mouse_2.clicked_name,cat,token,row,col,t_select,cat_mouse_l.x,cat_mouse_l.y,cat_mouse_l.leftButton,cat_mouse_l.midButton,cat_mouse_l.rightButton,cat_mouse_l.time,cat_mouse_l.clicked_name,resp,t_resp,corr,train_trials.thisRepN,train_trials.thisTrialN,train_trials.thisN,train_trials.thisIndex,train_trials.ran,cat_mouse_t.x,cat_mouse_t.y,cat_mouse_t.leftButton,cat_mouse_t.midButton,cat_mouse_t.rightButton,cat_mouse_t.time,cat_mouse_t.clicked_name,test_trials.thisRepN,test_trials.thisTrialN,test_trials.thisN,test_trials.thisIndex,test_trials.ran
66045663fbc92e11eb7e557c,TCN,2024-06-10_15h17.40.642,LearnStrategy,2023.2.3,MacIntel,62.5,,,,,,,,,,,,,,,,,,,,,,,,,,,,,,,,,,,,,,,,,,
66045663fbc92e11eb7e557c,TCN,2024-06-10_15h17.40.642,LearnStrategy,2023.2.3,MacIntel,62.5,1,1,1,0.097938144,0.005154639,1,0,0,2.069,rock_grid_rect_2,2,01,-1,-1,2.069,-0.056701031,-0.235824742,1,0,0,2.552,Basalt_rect,2,2.552,1,0,0,0,0,1,,,,,,,,,,,,
66045663fbc92e11eb7e557c,TCN,2024-06-10_15h17.40.642,LearnStrategy,2023.2.3,MacIntel,62.5,1,1,2,0.021907216,-0.012886598,1,0,0,1.281,rock_grid_rect_2,5,02,-1,-1,1.281,-0.466494845,-0.403350515,1,0,0,3.286,Obsidian_rect,5,3.286,1,1,0,1,0,1,,,,,,,,,,,,
66045663fbc92e11eb7e557c,TCN,2024-06-10_15h17.40.642,LearnStrategy,2023.2.3,MacIntel,62.5,1,1,3,0.069587629,-0.014175258,1,0,0,1.114,rock_grid_rect_2,6,06,-1,-1,1.114,0.135309278,-0.380154639,1,0,0,3.221,Peridotite_rect,7,3.221,0,2,0,2,0,1,,,,,,,,,,,,
66045663fbc92e11eb7e557c,TCN,2024-06-10_15h17.40.642,LearnStrategy,2023.2.3,MacIntel,62.5,1,1,4,0.085051546,-0.014175258,1,0,0,1.303,rock_grid_rect_2,7,16,-1,-1,1.303,-0.322164948,-0.265463918,1,0,0,4.671,Andesite_rect,1,4.671,0,3,0,3,0,1,,,,,,,,,,,,
66045663fbc92e11eb7e557c,TCN,2024-06-10_15h17.40.642,LearnStrategy,2023.2.3,MacIntel,62.5,1,1,5,0.088917526,-0.010309278,1,0,0,1.481,rock_grid_rect_2,8,06,-1,-1,1.481,0.346649485,-0.407216495,1,0,0,2.302,Pumice_rect,8,2.302,1,4,0,4,0,1,,,,,,,,,,,,
66045663fbc92e11eb7e557c,TCN,2024-06-10_15h17.40.642,LearnStrategy,2023.2.3,MacIntel,62.5,1,1,6,0.086340206,-0.005154639,1,0,0,1.397,rock_grid_rect_2,4,15,-1,-1,1.397,0.108247423,-0.243556701,1,0,0,2.812,Diorite_rect,3,2.812,0,5,0,5,0,1,,,,,,,,,,,,
66045663fbc92e11eb7e557c,TCN,2024-06-10_15h17.40.642,LearnStrategy,2023.2.3,MacIntel,62.5,1,1,7,0.101804124,0.003865979,1,0,0,1.032,rock_grid_rect_2,6,11,-1,-1,1.032,0.163659794,-0.238402062,1,0,0,4.828,Diorite_rect,3,4.828,0,6,0,6,0,1,,,,,,,,,,,,
66045663fbc92e11eb7e557c,TCN,2024-06-10_15h17.40.642,LearnStrategy,2023.2.3,MacIntel,62.5,1,1,8,0.055412371,0.006443299,1,0,0,0.963,rock_grid_rect_2,8,14,-1,-1,0.963,0.363402062,-0.396907216,1,0,0,2.658,Pumice_rect,8,2.658,1,7,0,7,0,1,,,,,,,,,,,,
66045663fbc92e11eb7e557c,TCN,2024-06-10_15h17.40.642,LearnStrategy,2023.2.3,MacIntel,62.5,1,1,9,-0.029639175,-0.007731959,1,0,0,0.878,rock_grid_rect_2,3,15,-1,-1,0.878,-0.398195876,-0.237113402,1,0,0,1.38,Andesite_rect,1,1.38,0,8,0,8,0,1,,,,,,,,,,,,
66045663fbc92e11eb7e557c,TCN,2024-06-10_15h17.40.642,LearnStrategy,2023.2.3,MacIntel,62.5,1,1,10,-0.00128866,-0.024484536,1,0,0,0.999,rock_grid_rect_2,5,07,-1,-1,0.999,-0.349226804,-0.395618557,1,0,0,4.162,Obsidian_rect,5,4.162,1,9,0,9,0,1,,,,,,,,,,,,
66045663fbc92e11eb7e557c,TCN,2024-06-10_15h17.40.642,LearnStrategy,2023.2.3,MacIntel,62.5,1,1,11,-0.020618557,-0.012886598,1,0,0,0.846,rock_grid_rect_2,1,03,-1,-1,0.846,0.134020619,-0.269329897,1,0,0,2.866,Diorite_rect,3,2.866,0,10,0,10,0,1,,,,,,,,,,,,
66045663fbc92e11eb7e557c,TCN,2024-06-10_15h17.40.642,LearnStrategy,2023.2.3,MacIntel,62.5,1,1,12,0.012886598,-0.005154639,1,0,0,1.031,rock_grid_rect_2,7,05,-1,-1,1.031,-0.355670103,-0.255154639,1,0,0,1.41,Andesite_rect,1,1.41,0,11,0,11,0,1,,,,,,,,,,,,
66045663fbc92e11eb7e557c,TCN,2024-06-10_15h17.40.642,LearnStrategy,2023.2.3,MacIntel,62.5,1,1,13,0.06185567,0.007731959,1,0,0,1.249,rock_grid_rect_2,2,10,-1,-1,1.249,-0.389175258,-0.394329897,1,0,0,5.271,Obsidian_rect,5,5.271,0,12,0,12,0,1,,,,,,,,,,,,
66045663fbc92e11eb7e557c,TCN,2024-06-10_15h17.40.642,LearnStrategy,2023.2.3,MacIntel,62.5,1,1,14,0.027061856,-0.021907216,1,0,0,0.746,rock_grid_rect_2,3,16,-1,-1,0.746,0.347938144,-0.238402062,1,0,0,4.444,Gabbro_rect,4,4.444,0,13,0,13,0,1,,,,,,,,,,,,
66045663fbc92e11eb7e557c,TCN,2024-06-10_15h17.40.642,LearnStrategy,2023.2.3,MacIntel,62.5,1,1,15,0.048969072,-0.016752577,1,0,0,0.898,rock_grid_rect_2,4,16,-1,-1,0.898,-0.097938144,-0.237113402,1,0,0,2.89,Basalt_rect,2,2.89,0,14,0,14,0,1,,,,,,,,,,,,
66045663fbc92e11eb7e557c,TCN,2024-06-10_15h17.40.642,LearnStrategy,2023.2.3,MacIntel,62.5,1,1,16,0.036082474,-0.012886598,1,0,0,0.816,rock_grid_rect_2,1,07,-1,-1,0.816,0.150773196,-0.404639175,1,0,0,4.326,Peridotite_rect,7,4.326,0,15,0,15,0,1,,,,,,,,,,,,
66045663fbc92e11eb7e557c,TCN,2024-06-10_15h17.40.642,LearnStrategy,2023.2.3,MacIntel,62.5,1,2,1,,,,,,,,5,14,,,,,,,,,,,5,4.44,1,,,,,,-0.319587629,-0.399484536,1,0,0,4.44,Obsidian_rect,0,0,0,0,1
66045663fbc92e11eb7e557c,TCN,2024-06-10_15h17.40.642,LearnStrategy,2023.2.3,MacIntel,62.5,1,2,2,,,,,,,,6,13,,,,,,,,,,,7,7.583,0,,,,,,0.108247423,-0.405927835,1,0,0,7.583,Peridotite_rect,1,0,1,0,1
66045663fbc92e11eb7e557c,TCN,2024-06-10_15h17.40.642,LearnStrategy,2023.2.3,MacIntel,62.5,1,2,3,,,,,,,,6,15,,,,,,,,,,,1,2.252,0,,,,,,-0.375,-0.233247423,1,0,0,2.252,Andesite_rect,2,0,2,0,1
66045663fbc92e11eb7e557c,TCN,2024-06-10_15h17.40.642,LearnStrategy,2023.2.3,MacIntel,62.5,1,2,4,,,,,,,,8,02,,,,,,,,,,,8,1.514,1,,,,,,0.417525773,-0.405927835,1,0,0,1.514,Pumice_rect,3,0,3,0,1
66045663fbc92e11eb7e557c,TCN,2024-06-10_15h17.40.642,LearnStrategy,2023.2.3,MacIntel,62.5,1,2,5,,,,,,,,4,08,,,,,,,,,,,6,4.714,0,,,,,,-0.096649485,-0.387886598,1,0,0,4.714,Pegmatite_rect,4,0,4,0,1
66045663fbc92e11eb7e557c,TCN,2024-06-10_15h17.40.642,LearnStrategy,2023.2.3,MacIntel,62.5,1,2,6,,,,,,,,4,11,,,,,,,,,,,2,3.351,0,,,,,,-0.094072165,-0.255154639,1,0,0,3.351,Basalt_rect,5,0,5,0,1
66045663fbc92e11eb7e557c,TCN,2024-06-10_15h17.40.642,LearnStrategy,2023.2.3,MacIntel,62.5,1,2,7,,,,,,,,8,10,,,,,,,,,,,8,1.444,1,,,,,,0.326030928,-0.407216495,1,0,0,1.444,Pumice_rect,6,0,6,0,1
66045663fbc92e11eb7e557c,TCN,2024-06-10_15h17.40.642,LearnStrategy,2023.2.3,MacIntel,62.5,1,2,8,,,,,,,,1,01,,,,,,,,,,,5,3.707,0,,,,,,-0.338917526,-0.380154639,1,0,0,3.707,Obsidian_rect,7,0,7,0,1
66045663fbc92e11eb7e557c,TCN,2024-06-10_15h17.40.642,LearnStrategy,2023.2.3,MacIntel,62.5,1,2,9,,,,,,,,2,05,,,,,,,,,,,2,2.482,1,,,,,,-0.171391753,-0.25,1,0,0,2.482,Basalt_rect,8,0,8,0,1
66045663fbc92e11eb7e557c,TCN,2024-06-10_15h17.40.642,LearnStrategy,2023.2.3,MacIntel,62.5,1,2,10,,,,,,,,1,04,,,,,,,,,,,1,1.721,1,,,,,,-0.37242268,-0.268041237,1,0,0,1.721,Andesite_rect,9,0,9,0,1
66045663fbc92e11eb7e557c,TCN,2024-06-10_15h17.40.642,LearnStrategy,2023.2.3,MacIntel,62.5,1,2,11,,,,,,,,7,02,,,,,,,,,,,7,4.22,1,,,,,,0.103092784,-0.412371134,1,0,0,4.22,Peridotite_rect,10,0,10,0,1
66045663fbc92e11eb7e557c,TCN,2024-06-10_15h17.40.642,LearnStrategy,2023.2.3,MacIntel,62.5,1,2,12,,,,,,,,7,14,,,,,,,,,,,6,1.456,0,,,,,,-0.065721649,-0.396907216,1,0,0,1.456,Pegmatite_rect,11,0,11,0,1
66045663fbc92e11eb7e557c,TCN,2024-06-10_15h17.40.642,LearnStrategy,2023.2.3,MacIntel,62.5,1,2,13,,,,,,,,3,13,,,,,,,,,,,1,1.985,0,,,,,,-0.342783505,-0.237113402,1,0,0,1.985,Andesite_rect,12,0,12,0,1
66045663fbc92e11eb7e557c,TCN,2024-06-10_15h17.40.642,LearnStrategy,2023.2.3,MacIntel,62.5,1,2,14,,,,,,,,3,08,,,,,,,,,,,1,1.625,0,,,,,,-0.342783505,-0.237113402,1,0,0,1.625,Andesite_rect,13,0,13,0,1
66045663fbc92e11eb7e557c,TCN,2024-06-10_15h17.40.642,LearnStrategy,2023.2.3,MacIntel,62.5,1,2,15,,,,,,,,5,16,,,,,,,,,,,5,1.807,1,,,,,,-0.363402062,-0.386597938,1,0,0,1.807,Obsidian_rect,14,0,14,0,1
66045663fbc92e11eb7e557c,TCN,2024-06-10_15h17.40.642,LearnStrategy,2023.2.3,MacIntel,62.5,1,2,16,,,,,,,,2,11,,,,,,,,,,,8,1.85,0,,,,,,0.364690722,-0.391752577,1,0,0,1.85,Pumice_rect,15,0,15,0,1
66045663fbc92e11eb7e557c,TCN,2024-06-10_15h17.40.642,LearnStrategy,2023.2.3,MacIntel,62.5,2,1,1,-0.014175258,-0.003865979,1,0,0,1.663,rock_grid_rect_2,4,09,-1,-1,1.663,-0.157216495,-0.239690722,1,0,0,5.879,Basalt_rect,2,5.879,0,0,0,0,0,1,,,,,,,,,,,,
66045663fbc92e11eb7e557c,TCN,2024-06-10_15h17.40.642,LearnStrategy,2023.2.3,MacIntel,62.5,2,1,2,0.025773196,-0.007731959,1,0,0,1.18,rock_grid_rect_2,2,16,-1,-1,1.18,0.167525773,-0.262886598,1,0,0,5.694,Diorite_rect,3,5.694,0,1,0,1,0,1,,,,,,,,,,,,
66045663fbc92e11eb7e557c,TCN,2024-06-10_15h17.40.642,LearnStrategy,2023.2.3,MacIntel,62.5,2,1,3,0.020618557,-0.007731959,1,0,0,1.214,rock_grid_rect_2,5,09,-1,-1,1.214,-0.378865979,-0.393041237,1,0,0,1.407,Obsidian_rect,5,1.407,1,2,0,2,0,1,,,,,,,,,,,,
66045663fbc92e11eb7e557c,TCN,2024-06-10_15h17.40.642,LearnStrategy,2023.2.3,MacIntel,62.5,2,1,4,0.014175258,0.00128866,1,0,0,1.062,rock_grid_rect_2,3,09,-1,-1,1.062,-0.369845361,-0.244845361,1,0,0,1.801,Andesite_rect,1,1.801,0,3,0,3,0,1,,,,,,,,,,,,
66045663fbc92e11eb7e557c,TCN,2024-06-10_15h17.40.642,LearnStrategy,2023.2.3,MacIntel,62.5,2,1,5,0.009020619,-0.00257732,1,0,0,1.192,rock_grid_rect_2,6,10,-1,-1,1.192,0.131443299,-0.394329897,1,0,0,2.989,Peridotite_rect,7,2.989,0,4,0,4,0,1,,,,,,,,,,,,
66045663fbc92e11eb7e557c,TCN,2024-06-10_15h17.40.642,LearnStrategy,2023.2.3,MacIntel,62.5,2,1,6,0.014175258,0,1,0,0,1.082,rock_grid_rect_2,2,08,-1,-1,1.082,-0.135309278,-0.243556701,1,0,0,1.548,Basalt_rect,2,1.548,1,5,0,5,0,1,,,,,,,,,,,,
66045663fbc92e11eb7e557c,TCN,2024-06-10_15h17.40.642,LearnStrategy,2023.2.3,MacIntel,62.5,2,1,7,-0.003865979,-0.006443299,1,0,0,1.112,rock_grid_rect_2,1,02,-1,-1,1.112,0.118556701,-0.412371134,1,0,0,2.864,Peridotite_rect,7,2.864,0,6,0,6,0,1,,,,,,,,,,,,
66045663fbc92e11eb7e557c,TCN,2024-06-10_15h17.40.642,LearnStrategy,2023.2.3,MacIntel,62.5,2,1,8,0.032216495,-0.014175258,1,0,0,1.001,rock_grid_rect_2,8,08,-1,-1,1.001,0.368556701,-0.418814433,1,0,0,1.856,Pumice_rect,8,1.856,1,7,0,7,0,1,,,,,,,,,,,,
66045663fbc92e11eb7e557c,TCN,2024-06-10_15h17.40.642,LearnStrategy,2023.2.3,MacIntel,62.5,2,1,9,0.029639175,-0.007731959,1,0,0,0.814,rock_grid_rect_2,7,08,-1,-1,0.814,0.360824742,-0.237113402,1,0,0,3.789,Gabbro_rect,4,3.789,0,8,0,8,0,1,,,,,,,,,,,,
66045663fbc92e11eb7e557c,TCN,2024-06-10_15h17.40.642,LearnStrategy,2023.2.3,MacIntel,62.5,2,1,10,0.029639175,-0.00128866,1,0,0,0.947,rock_grid_rect_2,1,14,-1,-1,0.947,-0.378865979,-0.228092784,1,0,0,2.174,Andesite_rect,1,2.174,1,9,0,9,0,1,,,,,,,,,,,,
66045663fbc92e11eb7e557c,TCN,2024-06-10_15h17.40.642,LearnStrategy,2023.2.3,MacIntel,62.5,2,1,11,0.015463918,-0.014175258,1,0,0,0.962,rock_grid_rect_2,6,16,-1,-1,0.962,-0.381443299,-0.240979381,1,0,0,1.331,Andesite_rect,1,1.331,0,10,0,10,0,1,,,,,,,,,,,,
66045663fbc92e11eb7e557c,TCN,2024-06-10_15h17.40.642,LearnStrategy,2023.2.3,MacIntel,62.5,2,1,12,0.011597938,-0.00257732,1,0,0,1.014,rock_grid_rect_2,7,07,-1,-1,1.014,-0.363402062,-0.235824742,1,0,0,1.614,Andesite_rect,1,1.614,0,11,0,11,0,1,,,,,,,,,,,,
66045663fbc92e11eb7e557c,TCN,2024-06-10_15h17.40.642,LearnStrategy,2023.2.3,MacIntel,62.5,2,1,13,0.016752577,0.019329897,1,0,0,0.733,rock_grid_rect_2,8,03,-1,-1,0.733,0.395618557,-0.399484536,1,0,0,2.088,Pumice_rect,8,2.088,1,12,0,12,0,1,,,,,,,,,,,,
66045663fbc92e11eb7e557c,TCN,2024-06-10_15h17.40.642,LearnStrategy,2023.2.3,MacIntel,62.5,2,1,14,0.003865979,-0.011597938,1,0,0,1.08,rock_grid_rect_2,5,10,-1,-1,1.08,-0.375,-0.389175258,1,0,0,1.221,Obsidian_rect,5,1.221,1,13,0,13,0,1,,,,,,,,,,,,
66045663fbc92e11eb7e557c,TCN,2024-06-10_15h17.40.642,LearnStrategy,2023.2.3,MacIntel,62.5,2,1,15,-0.009020619,0,1,0,0,0.764,rock_grid_rect_2,3,12,-1,-1,0.764,0.078608247,-0.269329897,1,0,0,2.72,Diorite_rect,3,2.72,1,14,0,14,0,1,,,,,,,,,,,,
66045663fbc92e11eb7e557c,TCN,2024-06-10_15h17.40.642,LearnStrategy,2023.2.3,MacIntel,62.5,2,1,16,0.054123711,-0.016752577,1,0,0,0.749,rock_grid_rect_2,4,12,-1,-1,0.749,-0.082474227,-0.233247423,1,0,0,1.333,Basalt_rect,2,1.333,0,15,0,15,0,1,,,,,,,,,,,,
66045663fbc92e11eb7e557c,TCN,2024-06-10_15h17.40.642,LearnStrategy,2023.2.3,MacIntel,62.5,2,2,1,,,,,,,,8,13,,,,,,,,,,,8,4.066,1,,,,,,0.429123711,-0.411082474,1,0,0,4.066,Pumice_rect,0,0,0,0,1
66045663fbc92e11eb7e557c,TCN,2024-06-10_15h17.40.642,LearnStrategy,2023.2.3,MacIntel,62.5,2,2,2,,,,,,,,2,04,,,,,,,,,,,2,1.581,1,,,,,,-0.12757732,-0.253865979,1,0,0,1.581,Basalt_rect,1,0,1,0,1
66045663fbc92e11eb7e557c,TCN,2024-06-10_15h17.40.642,LearnStrategy,2023.2.3,MacIntel,62.5,2,2,3,,,,,,,,5,08,,,,,,,,,,,5,1.172,1,,,,,,-0.384020619,-0.402061856,1,0,0,1.172,Obsidian_rect,2,0,2,0,1
66045663fbc92e11eb7e557c,TCN,2024-06-10_15h17.40.642,LearnStrategy,2023.2.3,MacIntel,62.5,2,2,4,,,,,,,,1,11,,,,,,,,,,,1,2.459,1,,,,,,-0.391752577,-0.266752577,1,0,0,2.459,Andesite_rect,3,0,3,0,1
66045663fbc92e11eb7e557c,TCN,2024-06-10_15h17.40.642,LearnStrategy,2023.2.3,MacIntel,62.5,2,2,5,,,,,,,,6,07,,,,,,,,,,,7,9.226,0,,,,,,0.125,-0.414948454,1,0,0,9.226,Peridotite_rect,4,0,4,0,1
66045663fbc92e11eb7e557c,TCN,2024-06-10_15h17.40.642,LearnStrategy,2023.2.3,MacIntel,62.5,2,2,6,,,,,,,,4,14,,,,,,,,,,,2,1.332,0,,,,,,-0.067010309,-0.240979381,1,0,0,1.332,Basalt_rect,5,0,5,0,1
66045663fbc92e11eb7e557c,TCN,2024-06-10_15h17.40.642,LearnStrategy,2023.2.3,MacIntel,62.5,2,2,7,,,,,,,,5,12,,,,,,,,,,,5,2.756,1,,,,,,-0.385309278,-0.405927835,1,0,0,2.756,Obsidian_rect,6,0,6,0,1
66045663fbc92e11eb7e557c,TCN,2024-06-10_15h17.40.642,LearnStrategy,2023.2.3,MacIntel,62.5,2,2,8,,,,,,,,3,06,,,,,,,,,,,3,4.629,1,,,,,,0.140463918,-0.255154639,1,0,0,4.629,Diorite_rect,7,0,7,0,1
66045663fbc92e11eb7e557c,TCN,2024-06-10_15h17.40.642,LearnStrategy,2023.2.3,MacIntel,62.5,2,2,9,,,,,,,,7,12,,,,,,,,,,,6,2.081,0,,,,,,-0.083762887,-0.403350515,1,0,0,2.081,Pegmatite_rect,8,0,8,0,1
66045663fbc92e11eb7e557c,TCN,2024-06-10_15h17.40.642,LearnStrategy,2023.2.3,MacIntel,62.5,2,2,10,,,,,,,,1,06,,,,,,,,,,,7,2.713,0,,,,,,0.103092784,-0.408505155,1,0,0,2.713,Peridotite_rect,9,0,9,0,1
66045663fbc92e11eb7e557c,TCN,2024-06-10_15h17.40.642,LearnStrategy,2023.2.3,MacIntel,62.5,2,2,11,,,,,,,,7,04,,,,,,,,,,,3,4.135,0,,,,,,0.083762887,-0.231958763,1,0,0,4.135,Diorite_rect,10,0,10,0,1
66045663fbc92e11eb7e557c,TCN,2024-06-10_15h17.40.642,LearnStrategy,2023.2.3,MacIntel,62.5,2,2,12,,,,,,,,6,03,,,,,,,,,,,1,1.369,0,,,,,,-0.328608247,-0.235824742,1,0,0,1.369,Andesite_rect,11,0,11,0,1
66045663fbc92e11eb7e557c,TCN,2024-06-10_15h17.40.642,LearnStrategy,2023.2.3,MacIntel,62.5,2,2,13,,,,,,,,8,04,,,,,,,,,,,8,2.657,1,,,,,,0.375,-0.405927835,1,0,0,2.657,Pumice_rect,12,0,12,0,1
66045663fbc92e11eb7e557c,TCN,2024-06-10_15h17.40.642,LearnStrategy,2023.2.3,MacIntel,62.5,2,2,14,,,,,,,,2,14,,,,,,,,,,,2,2.995,1,,,,,,-0.112113402,-0.244845361,1,0,0,2.995,Basalt_rect,13,0,13,0,1
66045663fbc92e11eb7e557c,TCN,2024-06-10_15h17.40.642,LearnStrategy,2023.2.3,MacIntel,62.5,2,2,15,,,,,,,,3,14,,,,,,,,,,,3,1.629,1,,,,,,0.168814433,-0.24742268,1,0,0,1.629,Diorite_rect,14,0,14,0,1
66045663fbc92e11eb7e557c,TCN,2024-06-10_15h17.40.642,LearnStrategy,2023.2.3,MacIntel,62.5,2,2,16,,,,,,,,4,03,,,,,,,,,,,3,1.754,0,,,,,,0.168814433,-0.24742268,1,0,0,1.754,Diorite_rect,15,0,15,0,1
66045663fbc92e11eb7e557c,TCN,2024-06-10_15h17.40.642,LearnStrategy,2023.2.3,MacIntel,62.5,3,1,1,0.019329897,-0.018041237,1,0,0,1.281,rock_grid_rect_2,8,05,-1,-1,1.281,0.375,-0.391752577,1,0,0,2.374,Pumice_rect,8,2.374,1,0,0,0,0,1,,,,,,,,,,,,
66045663fbc92e11eb7e557c,TCN,2024-06-10_15h17.40.642,LearnStrategy,2023.2.3,MacIntel,62.5,3,1,2,0.038659794,-0.005154639,1,0,0,1.2,rock_grid_rect_2,5,04,-1,-1,1.2,-0.332474227,-0.391752577,1,0,0,1.346,Obsidian_rect,5,1.346,1,1,0,1,0,1,,,,,,,,,,,,
66045663fbc92e11eb7e557c,TCN,2024-06-10_15h17.40.642,LearnStrategy,2023.2.3,MacIntel,62.5,3,1,3,0.003865979,-0.011597938,1,0,0,0.715,rock_grid_rect_2,2,02,-1,-1,0.715,0.393041237,-0.235824742,1,0,0,3.718,Gabbro_rect,4,3.718,0,2,0,2,0,1,,,,,,,,,,,,
66045663fbc92e11eb7e557c,TCN,2024-06-10_15h17.40.642,LearnStrategy,2023.2.3,MacIntel,62.5,3,1,4,0.048969072,-0.010309278,1,0,0,1.016,rock_grid_rect_2,4,10,-1,-1,1.016,0.394329897,-0.253865979,1,0,0,3.113,Gabbro_rect,4,3.113,1,3,0,3,0,1,,,,,,,,,,,,
66045663fbc92e11eb7e557c,TCN,2024-06-10_15h17.40.642,LearnStrategy,2023.2.3,MacIntel,62.5,3,1,5,0.00257732,0.005154639,1,0,0,0.814,rock_grid_rect_2,2,06,-1,-1,0.814,-0.096649485,-0.25,1,0,0,1.35,Basalt_rect,2,1.35,1,4,0,4,0,1,,,,,,,,,,,,
66045663fbc92e11eb7e557c,TCN,2024-06-10_15h17.40.642,LearnStrategy,2023.2.3,MacIntel,62.5,3,1,6,0.055412371,-0.010309278,1,0,0,0.98,rock_grid_rect_2,7,06,-1,-1,0.98,-0.408505155,-0.229381443,1,0,0,1.834,Andesite_rect,1,1.834,0,5,0,5,0,1,,,,,,,,,,,,
66045663fbc92e11eb7e557c,TCN,2024-06-10_15h17.40.642,LearnStrategy,2023.2.3,MacIntel,62.5,3,1,7,0.014175258,-0.011597938,1,0,0,0.982,rock_grid_rect_2,4,05,-1,-1,0.982,-0.083762887,-0.387886598,1,0,0,2.184,Pegmatite_rect,6,2.184,0,6,0,6,0,1,,,,,,,,,,,,
66045663fbc92e11eb7e557c,TCN,2024-06-10_15h17.40.642,LearnStrategy,2023.2.3,MacIntel,62.5,3,1,8,-0.099226804,-0.00257732,1,0,0,0.847,rock_grid_rect_2,1,09,-1,-1,0.847,-0.322164948,-0.246134021,1,0,0,2.714,Andesite_rect,1,2.714,1,7,0,7,0,1,,,,,,,,,,,,
66045663fbc92e11eb7e557c,TCN,2024-06-10_15h17.40.642,LearnStrategy,2023.2.3,MacIntel,62.5,3,1,9,0.021907216,-0.012886598,1,0,0,0.947,rock_grid_rect_2,6,12,-1,-1,0.947,0.154639175,-0.412371134,1,0,0,3.402,Peridotite_rect,7,3.402,0,8,0,8,0,1,,,,,,,,,,,,
66045663fbc92e11eb7e557c,TCN,2024-06-10_15h17.40.642,LearnStrategy,2023.2.3,MacIntel,62.5,3,1,10,-0.055412371,-0.011597938,1,0,0,0.883,rock_grid_rect_2,5,05,-1,-1,0.883,-0.341494845,-0.386597938,1,0,0,2.41,Obsidian_rect,5,2.41,1,9,0,9,0,1,,,,,,,,,,,,
66045663fbc92e11eb7e557c,TCN,2024-06-10_15h17.40.642,LearnStrategy,2023.2.3,MacIntel,62.5,3,1,11,0,-0.00128866,1,0,0,0.68,rock_grid_rect_2,3,11,-1,-1,0.68,0.182989691,-0.268041237,1,0,0,6.147,Diorite_rect,3,6.147,1,10,0,10,0,1,,,,,,,,,,,,
66045663fbc92e11eb7e557c,TCN,2024-06-10_15h17.40.642,LearnStrategy,2023.2.3,MacIntel,62.5,3,1,12,0.067010309,-0.005154639,1,0,0,0.931,rock_grid_rect_2,3,02,-1,-1,0.931,-0.068298969,-0.394329897,1,0,0,3.534,Pegmatite_rect,6,3.534,0,11,0,11,0,1,,,,,,,,,,,,
66045663fbc92e11eb7e557c,TCN,2024-06-10_15h17.40.642,LearnStrategy,2023.2.3,MacIntel,62.5,3,1,13,0.034793814,-0.014175258,1,0,0,1.231,rock_grid_rect_2,1,10,-1,-1,1.231,0.341494845,-0.411082474,1,0,0,4.367,Pumice_rect,8,4.367,0,12,0,12,0,1,,,,,,,,,,,,
66045663fbc92e11eb7e557c,TCN,2024-06-10_15h17.40.642,LearnStrategy,2023.2.3,MacIntel,62.5,3,1,14,0.054123711,-0.006443299,1,0,0,0.799,rock_grid_rect_2,7,15,-1,-1,0.799,-0.12757732,-0.417525773,1,0,0,4.092,Pegmatite_rect,6,4.092,0,13,0,13,0,1,,,,,,,,,,,,
66045663fbc92e11eb7e557c,TCN,2024-06-10_15h17.40.642,LearnStrategy,2023.2.3,MacIntel,62.5,3,1,15,0.067010309,-0.019329897,1,0,0,0.748,rock_grid_rect_2,8,16,-1,-1,0.748,0.381443299,-0.402061856,1,0,0,2.27,Pumice_rect,8,2.27,1,14,0,14,0,1,,,,,,,,,,,,
66045663fbc92e11eb7e557c,TCN,2024-06-10_15h17.40.642,LearnStrategy,2023.2.3,MacIntel,62.5,3,1,16,0.041237113,0.005154639,1,0,0,1.13,rock_grid_rect_2,6,08,-1,-1,1.13,0.109536082,-0.398195876,1,0,0,3.759,Peridotite_rect,7,3.759,0,15,0,15,0,1,,,,,,,,,,,,
66045663fbc92e11eb7e557c,TCN,2024-06-10_15h17.40.642,LearnStrategy,2023.2.3,MacIntel,62.5,3,2,1,,,,,,,,3,10,,,,,,,,,,,3,7.311,1,,,,,,0.112113402,-0.240979381,1,0,0,7.311,Diorite_rect,0,0,0,0,1
66045663fbc92e11eb7e557c,TCN,2024-06-10_15h17.40.642,LearnStrategy,2023.2.3,MacIntel,62.5,3,2,2,,,,,,,,6,09,,,,,,,,,,,7,3.328,0,,,,,,0.136597938,-0.389175258,1,0,0,3.328,Peridotite_rect,1,0,1,0,1
66045663fbc92e11eb7e557c,TCN,2024-06-10_15h17.40.642,LearnStrategy,2023.2.3,MacIntel,62.5,3,2,3,,,,,,,,4,13,,,,,,,,,,,6,3.651,0,,,,,,-0.078608247,-0.396907216,1,0,0,3.651,Pegmatite_rect,2,0,2,0,1
66045663fbc92e11eb7e557c,TCN,2024-06-10_15h17.40.642,LearnStrategy,2023.2.3,MacIntel,62.5,3,2,4,,,,,,,,8,09,,,,,,,,,,,8,2.441,1,,,,,,0.472938144,-0.382731959,1,0,0,2.441,Pumice_rect,3,0,3,0,1
66045663fbc92e11eb7e557c,TCN,2024-06-10_15h17.40.642,LearnStrategy,2023.2.3,MacIntel,62.5,3,2,5,,,,,,,,2,12,,,,,,,,,,,4,2.474,0,,,,,,0.362113402,-0.240979381,1,0,0,2.474,Gabbro_rect,4,0,4,0,1
66045663fbc92e11eb7e557c,TCN,2024-06-10_15h17.40.642,LearnStrategy,2023.2.3,MacIntel,62.5,3,2,6,,,,,,,,6,05,,,,,,,,,,,3,3.359,0,,,,,,0.108247423,-0.260309278,1,0,0,3.359,Diorite_rect,5,0,5,0,1
66045663fbc92e11eb7e557c,TCN,2024-06-10_15h17.40.642,LearnStrategy,2023.2.3,MacIntel,62.5,3,2,7,,,,,,,,5,11,,,,,,,,,,,5,1.4,1,,,,,,-0.367268041,-0.405927835,1,0,0,1.4,Obsidian_rect,6,0,6,0,1
66045663fbc92e11eb7e557c,TCN,2024-06-10_15h17.40.642,LearnStrategy,2023.2.3,MacIntel,62.5,3,2,8,,,,,,,,4,01,,,,,,,,,,,4,7.301,1,,,,,,0.384020619,-0.261597938,1,0,0,7.301,Gabbro_rect,7,0,7,0,1
66045663fbc92e11eb7e557c,TCN,2024-06-10_15h17.40.642,LearnStrategy,2023.2.3,MacIntel,62.5,3,2,9,,,,,,,,2,09,,,,,,,,,,,2,3.109,1,,,,,,-0.104381443,-0.260309278,1,0,0,3.109,Basalt_rect,8,0,8,0,1
66045663fbc92e11eb7e557c,TCN,2024-06-10_15h17.40.642,LearnStrategy,2023.2.3,MacIntel,62.5,3,2,10,,,,,,,,3,07,,,,,,,,,,,3,1.333,1,,,,,,0.12242268,-0.253865979,1,0,0,1.333,Diorite_rect,9,0,9,0,1
66045663fbc92e11eb7e557c,TCN,2024-06-10_15h17.40.642,LearnStrategy,2023.2.3,MacIntel,62.5,3,2,11,,,,,,,,1,16,,,,,,,,,,,6,1.971,0,,,,,,-0.068298969,-0.381443299,1,0,0,1.971,Pegmatite_rect,10,0,10,0,1
66045663fbc92e11eb7e557c,TCN,2024-06-10_15h17.40.642,LearnStrategy,2023.2.3,MacIntel,62.5,3,2,12,,,,,,,,1,05,,,,,,,,,,,6,1.224,0,,,,,,-0.068298969,-0.381443299,1,0,0,1.224,Pegmatite_rect,11,0,11,0,1
66045663fbc92e11eb7e557c,TCN,2024-06-10_15h17.40.642,LearnStrategy,2023.2.3,MacIntel,62.5,3,2,13,,,,,,,,8,15,,,,,,,,,,,8,2.797,1,,,,,,0.365979381,-0.407216495,1,0,0,2.797,Pumice_rect,12,0,12,0,1
66045663fbc92e11eb7e557c,TCN,2024-06-10_15h17.40.642,LearnStrategy,2023.2.3,MacIntel,62.5,3,2,14,,,,,,,,7,10,,,,,,,,,,,7,2.458,1,,,,,,0.130154639,-0.404639175,1,0,0,2.458,Peridotite_rect,13,0,13,0,1
66045663fbc92e11eb7e557c,TCN,2024-06-10_15h17.40.642,LearnStrategy,2023.2.3,MacIntel,62.5,3,2,15,,,,,,,,5,06,,,,,,,,,,,5,2.258,1,,,,,,-0.37757732,-0.389175258,1,0,0,2.258,Obsidian_rect,14,0,14,0,1
66045663fbc92e11eb7e557c,TCN,2024-06-10_15h17.40.642,LearnStrategy,2023.2.3,MacIntel,62.5,3,2,16,,,,,,,,7,13,,,,,,,,,,,6,2.064,0,,,,,,-0.082474227,-0.385309278,1,0,0,2.064,Pegmatite_rect,15,0,15,0,1
66045663fbc92e11eb7e557c,TCN,2024-06-10_15h17.40.642,LearnStrategy,2023.2.3,MacIntel,62.5,4,1,1,0.030927835,-0.009020619,1,0,0,1.632,rock_grid_rect_2,6,11,-1,-1,1.632,-0.052835052,-0.396907216,1,0,0,4.935,Pegmatite_rect,6,4.935,1,0,0,0,0,1,,,,,,,,,,,,
66045663fbc92e11eb7e557c,TCN,2024-06-10_15h17.40.642,LearnStrategy,2023.2.3,MacIntel,62.5,4,1,2,0.028350515,-0.003865979,1,0,0,1.166,rock_grid_rect_2,7,08,-1,-1,1.166,0.125,-0.398195876,1,0,0,2.882,Peridotite_rect,7,2.882,1,1,0,1,0,1,,,,,,,,,,,,
66045663fbc92e11eb7e557c,TCN,2024-06-10_15h17.40.642,LearnStrategy,2023.2.3,MacIntel,62.5,4,1,3,0.036082474,-0.009020619,1,0,0,1.015,rock_grid_rect_2,5,07,-1,-1,1.015,-0.363402062,-0.416237113,1,0,0,2.96,Obsidian_rect,5,2.96,1,2,0,2,0,1,,,,,,,,,,,,
66045663fbc92e11eb7e557c,TCN,2024-06-10_15h17.40.642,LearnStrategy,2023.2.3,MacIntel,62.5,4,1,4,-0.005154639,0.003865979,1,0,0,1.197,rock_grid_rect_2,1,10,-1,-1,1.197,0.385309278,-0.246134021,1,0,0,2.982,Gabbro_rect,4,2.982,0,3,0,3,0,1,,,,,,,,,,,,
66045663fbc92e11eb7e557c,TCN,2024-06-10_15h17.40.642,LearnStrategy,2023.2.3,MacIntel,62.5,4,1,5,0.052835052,-0.012886598,1,0,0,0.847,rock_grid_rect_2,1,14,-1,-1,0.847,0.363402062,-0.237113402,1,0,0,1.764,Gabbro_rect,4,1.764,0,4,0,4,0,1,,,,,,,,,,,,
66045663fbc92e11eb7e557c,TCN,2024-06-10_15h17.40.642,LearnStrategy,2023.2.3,MacIntel,62.5,4,1,6,0.039948454,0.00257732,1,0,0,0.897,rock_grid_rect_2,5,09,-1,-1,0.897,-0.387886598,-0.407216495,1,0,0,1.108,Obsidian_rect,5,1.108,1,5,0,5,0,1,,,,,,,,,,,,
66045663fbc92e11eb7e557c,TCN,2024-06-10_15h17.40.642,LearnStrategy,2023.2.3,MacIntel,62.5,4,1,7,-0.00257732,-0.010309278,1,0,0,0.898,rock_grid_rect_2,8,06,-1,-1,0.898,0.367268041,-0.394329897,1,0,0,1.51,Pumice_rect,8,1.51,1,6,0,6,0,1,,,,,,,,,,,,
66045663fbc92e11eb7e557c,TCN,2024-06-10_15h17.40.642,LearnStrategy,2023.2.3,MacIntel,62.5,4,1,8,0.030927835,0,1,0,0,0.781,rock_grid_rect_2,6,12,-1,-1,0.781,0.083762887,-0.242268041,1,0,0,2.033,Diorite_rect,3,2.033,0,7,0,7,0,1,,,,,,,,,,,,
66045663fbc92e11eb7e557c,TCN,2024-06-10_15h17.40.642,LearnStrategy,2023.2.3,MacIntel,62.5,4,1,9,0.007731959,-0.016752577,1,0,0,1.056,rock_grid_rect_2,3,16,-1,-1,1.056,0.134020619,-0.256443299,1,0,0,1.953,Diorite_rect,3,1.953,1,8,0,8,0,1,,,,,,,,,,,,
66045663fbc92e11eb7e557c,TCN,2024-06-10_15h17.40.642,LearnStrategy,2023.2.3,MacIntel,62.5,4,1,10,0.039948454,0.006443299,1,0,0,0.714,rock_grid_rect_2,8,16,-1,-1,0.714,0.431701031,-0.417525773,1,0,0,1.303,Pumice_rect,8,1.303,1,9,0,9,0,1,,,,,,,,,,,,
66045663fbc92e11eb7e557c,TCN,2024-06-10_15h17.40.642,LearnStrategy,2023.2.3,MacIntel,62.5,4,1,11,0,0,1,0,0,0.631,rock_grid_rect_2,4,12,-1,-1,0.631,0.399484536,-0.262886598,1,0,0,1.99,Gabbro_rect,4,1.99,1,10,0,10,0,1,,,,,,,,,,,,
66045663fbc92e11eb7e557c,TCN,2024-06-10_15h17.40.642,LearnStrategy,2023.2.3,MacIntel,62.5,4,1,12,0.036082474,0.003865979,1,0,0,0.814,rock_grid_rect_2,2,02,-1,-1,0.814,-0.074742268,-0.246134021,1,0,0,1.762,Basalt_rect,2,1.762,1,11,0,11,0,1,,,,,,,,,,,,
66045663fbc92e11eb7e557c,TCN,2024-06-10_15h17.40.642,LearnStrategy,2023.2.3,MacIntel,62.5,4,1,13,0.029639175,-0.003865979,1,0,0,0.698,rock_grid_rect_2,2,06,-1,-1,0.698,-0.097938144,-0.233247423,1,0,0,1.581,Basalt_rect,2,1.581,1,12,0,12,0,1,,,,,,,,,,,,
66045663fbc92e11eb7e557c,TCN,2024-06-10_15h17.40.642,LearnStrategy,2023.2.3,MacIntel,62.5,4,1,14,0.055412371,-0.00257732,1,0,0,0.714,rock_grid_rect_2,7,07,-1,-1,0.714,-0.091494845,-0.402061856,1,0,0,3.09,Pegmatite_rect,6,3.09,0,13,0,13,0,1,,,,,,,,,,,,
66045663fbc92e11eb7e557c,TCN,2024-06-10_15h17.40.642,LearnStrategy,2023.2.3,MacIntel,62.5,4,1,15,-0.052835052,0.005154639,1,0,0,0.731,rock_grid_rect_2,3,09,-1,-1,0.731,0.148195876,-0.244845361,1,0,0,1.184,Diorite_rect,3,1.184,1,14,0,14,0,1,,,,,,,,,,,,
66045663fbc92e11eb7e557c,TCN,2024-06-10_15h17.40.642,LearnStrategy,2023.2.3,MacIntel,62.5,4,1,16,0.021907216,-0.009020619,1,0,0,0.632,rock_grid_rect_2,4,15,-1,-1,0.632,-0.403350515,-0.387886598,1,0,0,2.566,Obsidian_rect,5,2.566,0,15,0,15,0,1,,,,,,,,,,,,
66045663fbc92e11eb7e557c,TCN,2024-06-10_15h17.40.642,LearnStrategy,2023.2.3,MacIntel,62.5,4,2,1,,,,,,,,3,10,,,,,,,,,,,3,4.078,1,,,,,,0.12757732,-0.238402062,1,0,0,4.078,Diorite_rect,0,0,0,0,1
66045663fbc92e11eb7e557c,TCN,2024-06-10_15h17.40.642,LearnStrategy,2023.2.3,MacIntel,62.5,4,2,2,,,,,,,,8,15,,,,,,,,,,,8,1.157,1,,,,,,0.342783505,-0.391752577,1,0,0,1.157,Pumice_rect,1,0,1,0,1
66045663fbc92e11eb7e557c,TCN,2024-06-10_15h17.40.642,LearnStrategy,2023.2.3,MacIntel,62.5,4,2,3,,,,,,,,6,15,,,,,,,,,,,6,3.253,1,,,,,,-0.164948454,-0.398195876,1,0,0,3.253,Pegmatite_rect,2,0,2,0,1
66045663fbc92e11eb7e557c,TCN,2024-06-10_15h17.40.642,LearnStrategy,2023.2.3,MacIntel,62.5,4,2,4,,,,,,,,1,06,,,,,,,,,,,4,2.033,0,,,,,,0.403350515,-0.240979381,1,0,0,2.033,Gabbro_rect,3,0,3,0,1
66045663fbc92e11eb7e557c,TCN,2024-06-10_15h17.40.642,LearnStrategy,2023.2.3,MacIntel,62.5,4,2,5,,,,,,,,4,13,,,,,,,,,,,4,3.122,1,,,,,,0.384020619,-0.238402062,1,0,0,3.122,Gabbro_rect,4,0,4,0,1
66045663fbc92e11eb7e557c,TCN,2024-06-10_15h17.40.642,LearnStrategy,2023.2.3,MacIntel,62.5,4,2,6,,,,,,,,2,09,,,,,,,,,,,2,1.369,1,,,,,,-0.06056701,-0.257731959,1,0,0,1.369,Basalt_rect,5,0,5,0,1
66045663fbc92e11eb7e557c,TCN,2024-06-10_15h17.40.642,LearnStrategy,2023.2.3,MacIntel,62.5,4,2,7,,,,,,,,2,11,,,,,,,,,,,4,2.135,0,,,,,,0.43556701,-0.25128866,1,0,0,2.135,Gabbro_rect,6,0,6,0,1
66045663fbc92e11eb7e557c,TCN,2024-06-10_15h17.40.642,LearnStrategy,2023.2.3,MacIntel,62.5,4,2,8,,,,,,,,6,09,,,,,,,,,,,6,1.647,1,,,,,,-0.118556701,-0.390463918,1,0,0,1.647,Pegmatite_rect,7,0,7,0,1
66045663fbc92e11eb7e557c,TCN,2024-06-10_15h17.40.642,LearnStrategy,2023.2.3,MacIntel,62.5,4,2,9,,,,,,,,1,05,,,,,,,,,,,7,1.325,0,,,,,,0.12757732,-0.405927835,1,0,0,1.325,Peridotite_rect,8,0,8,0,1
66045663fbc92e11eb7e557c,TCN,2024-06-10_15h17.40.642,LearnStrategy,2023.2.3,MacIntel,62.5,4,2,10,,,,,,,,5,16,,,,,,,,,,,5,1.189,1,,,,,,-0.362113402,-0.402061856,1,0,0,1.189,Obsidian_rect,9,0,9,0,1
66045663fbc92e11eb7e557c,TCN,2024-06-10_15h17.40.642,LearnStrategy,2023.2.3,MacIntel,62.5,4,2,11,,,,,,,,7,13,,,,,,,,,,,7,5.56,1,,,,,,0.121134021,-0.405927835,1,0,0,5.56,Peridotite_rect,10,0,10,0,1
66045663fbc92e11eb7e557c,TCN,2024-06-10_15h17.40.642,LearnStrategy,2023.2.3,MacIntel,62.5,4,2,12,,,,,,,,4,11,,,,,,,,,,,4,1.49,1,,,,,,0.369845361,-0.242268041,1,0,0,1.49,Gabbro_rect,11,0,11,0,1
66045663fbc92e11eb7e557c,TCN,2024-06-10_15h17.40.642,LearnStrategy,2023.2.3,MacIntel,62.5,4,2,13,,,,,,,,3,06,,,,,,,,,,,1,3.399,0,,,,,,-0.356958763,-0.238402062,1,0,0,3.399,Andesite_rect,12,0,12,0,1
66045663fbc92e11eb7e557c,TCN,2024-06-10_15h17.40.642,LearnStrategy,2023.2.3,MacIntel,62.5,4,2,14,,,,,,,,5,12,,,,,,,,,,,5,1.222,1,,,,,,-0.378865979,-0.404639175,1,0,0,1.222,Obsidian_rect,13,0,13,0,1
66045663fbc92e11eb7e557c,TCN,2024-06-10_15h17.40.642,LearnStrategy,2023.2.3,MacIntel,62.5,4,2,15,,,,,,,,7,02,,,,,,,,,,,7,1.482,1,,,,,,0.103092784,-0.400773196,1,0,0,1.482,Peridotite_rect,14,0,14,0,1
66045663fbc92e11eb7e557c,TCN,2024-06-10_15h17.40.642,LearnStrategy,2023.2.3,MacIntel,62.5,4,2,16,,,,,,,,8,09,,,,,,,,,,,8,2.593,1,,,,,,0.385309278,-0.403350515,1,0,0,2.593,Pumice_rect,15,0,15,0,1
66045663fbc92e11eb7e557c,TCN,2024-06-10_15h17.40.642,LearnStrategy,2023.2.3,MacIntel,62.5,5,1,1,0.00128866,-0.019329897,1,0,0,1.132,rock_grid_rect_2,8,08,-1,-1,1.132,-0.329896907,-0.246134021,1,0,0,5.174,Andesite_rect,1,5.174,0,0,0,0,0,1,,,,,,,,,,,,
66045663fbc92e11eb7e557c,TCN,2024-06-10_15h17.40.642,LearnStrategy,2023.2.3,MacIntel,62.5,5,1,2,0.020618557,-0.014175258,1,0,0,1.279,rock_grid_rect_2,6,16,-1,-1,1.279,-0.090206186,-0.400773196,1,0,0,2.3,Pegmatite_rect,6,2.3,1,1,0,1,0,1,,,,,,,,,,,,
66045663fbc92e11eb7e557c,TCN,2024-06-10_15h17.40.642,LearnStrategy,2023.2.3,MacIntel,62.5,5,1,3,-0.028350515,-0.007731959,1,0,0,0.831,rock_grid_rect_2,1,09,-1,-1,0.831,0.390463918,-0.257731959,1,0,0,2.298,Gabbro_rect,4,2.298,0,2,0,2,0,1,,,,,,,,,,,,
66045663fbc92e11eb7e557c,TCN,2024-06-10_15h17.40.642,LearnStrategy,2023.2.3,MacIntel,62.5,5,1,4,0.010309278,-0.006443299,1,0,0,0.864,rock_grid_rect_2,4,05,-1,-1,0.864,0.105670103,-0.402061856,1,0,0,3.653,Peridotite_rect,7,3.653,0,3,0,3,0,1,,,,,,,,,,,,
66045663fbc92e11eb7e557c,TCN,2024-06-10_15h17.40.642,LearnStrategy,2023.2.3,MacIntel,62.5,5,1,5,0,-0.007731959,1,0,0,0.814,rock_grid_rect_2,7,05,-1,-1,0.814,0.076030928,-0.244845361,1,0,0,2.527,Diorite_rect,3,2.527,0,4,0,4,0,1,,,,,,,,,,,,
66045663fbc92e11eb7e557c,TCN,2024-06-10_15h17.40.642,LearnStrategy,2023.2.3,MacIntel,62.5,5,1,6,0.050257732,-0.018041237,1,0,0,0.898,rock_grid_rect_2,1,07,-1,-1,0.898,0.119845361,-0.230670103,1,0,0,3.064,Diorite_rect,3,3.064,0,5,0,5,0,1,,,,,,,,,,,,
66045663fbc92e11eb7e557c,TCN,2024-06-10_15h17.40.642,LearnStrategy,2023.2.3,MacIntel,62.5,5,1,7,0.059278351,0.003865979,1,0,0,0.814,rock_grid_rect_2,2,10,-1,-1,0.814,-0.197164948,-0.230670103,1,0,0,2.196,Basalt_rect,2,2.196,1,6,0,6,0,1,,,,,,,,,,,,
66045663fbc92e11eb7e557c,TCN,2024-06-10_15h17.40.642,LearnStrategy,2023.2.3,MacIntel,62.5,5,1,8,-0.024484536,-0.00257732,1,0,0,0.696,rock_grid_rect_2,3,11,-1,-1,0.696,0.12757732,-0.237113402,1,0,0,4.441,Diorite_rect,3,4.441,1,7,0,7,0,1,,,,,,,,,,,,
66045663fbc92e11eb7e557c,TCN,2024-06-10_15h17.40.642,LearnStrategy,2023.2.3,MacIntel,62.5,5,1,9,0.103092784,0.00128866,1,0,0,0.696,rock_grid_rect_2,8,05,-1,-1,0.696,0.384020619,-0.398195876,1,0,0,1.445,Pumice_rect,8,1.445,1,8,0,8,0,1,,,,,,,,,,,,
66045663fbc92e11eb7e557c,TCN,2024-06-10_15h17.40.642,LearnStrategy,2023.2.3,MacIntel,62.5,5,1,10,0.131443299,0,1,0,0,0.62,rock_grid_rect_2,7,15,-1,-1,0.62,0.103092784,-0.405927835,1,0,0,1.855,Peridotite_rect,7,1.855,1,9,0,9,0,1,,,,,,,,,,,,
66045663fbc92e11eb7e557c,TCN,2024-06-10_15h17.40.642,LearnStrategy,2023.2.3,MacIntel,62.5,5,1,11,0.024484536,0.007731959,1,0,0,0.681,rock_grid_rect_2,5,05,-1,-1,0.681,-0.353092784,-0.391752577,1,0,0,2.867,Obsidian_rect,5,2.867,1,10,0,10,0,1,,,,,,,,,,,,
66045663fbc92e11eb7e557c,TCN,2024-06-10_15h17.40.642,LearnStrategy,2023.2.3,MacIntel,62.5,5,1,12,0.042525773,0,1,0,0,0.631,rock_grid_rect_2,4,09,-1,-1,0.631,0.171391753,-0.394329897,1,0,0,4.479,Peridotite_rect,7,4.479,0,11,0,11,0,1,,,,,,,,,,,,
66045663fbc92e11eb7e557c,TCN,2024-06-10_15h17.40.642,LearnStrategy,2023.2.3,MacIntel,62.5,5,1,13,0.078608247,0,1,0,0,0.789,rock_grid_rect_2,6,06,-1,-1,0.789,-0.154639175,-0.416237113,1,0,0,1.331,Pegmatite_rect,6,1.331,1,12,0,12,0,1,,,,,,,,,,,,
66045663fbc92e11eb7e557c,TCN,2024-06-10_15h17.40.642,LearnStrategy,2023.2.3,MacIntel,62.5,5,1,14,0.037371134,0.005154639,1,0,0,0.848,rock_grid_rect_2,3,15,-1,-1,0.848,0.12757732,-0.380154639,1,0,0,4.714,Peridotite_rect,7,4.714,0,13,0,13,0,1,,,,,,,,,,,,
66045663fbc92e11eb7e557c,TCN,2024-06-10_15h17.40.642,LearnStrategy,2023.2.3,MacIntel,62.5,5,1,15,0.073453608,-0.012886598,1,0,0,0.898,rock_grid_rect_2,2,08,-1,-1,0.898,-0.184278351,-0.242268041,1,0,0,1.676,Basalt_rect,2,1.676,1,14,0,14,0,1,,,,,,,,,,,,
66045663fbc92e11eb7e557c,TCN,2024-06-10_15h17.40.642,LearnStrategy,2023.2.3,MacIntel,62.5,5,1,16,0.056701031,-0.014175258,1,0,0,0.731,rock_grid_rect_2,5,02,-1,-1,0.731,-0.37242268,-0.416237113,1,0,0,1.6,Obsidian_rect,5,1.6,1,15,0,15,0,1,,,,,,,,,,,,
66045663fbc92e11eb7e557c,TCN,2024-06-10_15h17.40.642,LearnStrategy,2023.2.3,MacIntel,62.5,5,2,1,,,,,,,,5,08,,,,,,,,,,,5,1.181,1,,,,,,-0.461340206,-0.390463918,1,0,0,1.181,Obsidian_rect,0,0,0,0,1
66045663fbc92e11eb7e557c,TCN,2024-06-10_15h17.40.642,LearnStrategy,2023.2.3,MacIntel,62.5,5,2,2,,,,,,,,7,14,,,,,,,,,,,3,5.477,0,,,,,,0.12757732,-0.231958763,1,0,0,5.477,Diorite_rect,1,0,1,0,1
66045663fbc92e11eb7e557c,TCN,2024-06-10_15h17.40.642,LearnStrategy,2023.2.3,MacIntel,62.5,5,2,3,,,,,,,,8,04,,,,,,,,,,,8,1.388,1,,,,,,0.362113402,-0.393041237,1,0,0,1.388,Pumice_rect,2,0,2,0,1
66045663fbc92e11eb7e557c,TCN,2024-06-10_15h17.40.642,LearnStrategy,2023.2.3,MacIntel,62.5,5,2,4,,,,,,,,3,07,,,,,,,,,,,3,1.811,1,,,,,,0.18685567,-0.244845361,1,0,0,1.811,Diorite_rect,3,0,3,0,1
66045663fbc92e11eb7e557c,TCN,2024-06-10_15h17.40.642,LearnStrategy,2023.2.3,MacIntel,62.5,5,2,5,,,,,,,,6,05,,,,,,,,,,,7,7.878,0,,,,,,0.105670103,-0.400773196,1,0,0,7.878,Peridotite_rect,4,0,4,0,1
66045663fbc92e11eb7e557c,TCN,2024-06-10_15h17.40.642,LearnStrategy,2023.2.3,MacIntel,62.5,5,2,6,,,,,,,,4,08,,,,,,,,,,,4,4.916,1,,,,,,0.403350515,-0.259020619,1,0,0,4.916,Gabbro_rect,5,0,5,0,1
66045663fbc92e11eb7e557c,TCN,2024-06-10_15h17.40.642,LearnStrategy,2023.2.3,MacIntel,62.5,5,2,7,,,,,,,,8,02,,,,,,,,,,,8,1.382,1,,,,,,0.43814433,-0.413659794,1,0,0,1.382,Pumice_rect,6,0,6,0,1
66045663fbc92e11eb7e557c,TCN,2024-06-10_15h17.40.642,LearnStrategy,2023.2.3,MacIntel,62.5,5,2,8,,,,,,,,2,14,,,,,,,,,,,1,8.412,0,,,,,,-0.346649485,-0.24871134,1,0,0,8.412,Andesite_rect,7,0,7,0,1
66045663fbc92e11eb7e557c,TCN,2024-06-10_15h17.40.642,LearnStrategy,2023.2.3,MacIntel,62.5,5,2,9,,,,,,,,2,05,,,,,,,,,,,4,2.722,0,,,,,,0.378865979,-0.255154639,1,0,0,2.722,Gabbro_rect,8,0,8,0,1
66045663fbc92e11eb7e557c,TCN,2024-06-10_15h17.40.642,LearnStrategy,2023.2.3,MacIntel,62.5,5,2,10,,,,,,,,1,16,,,,,,,,,,,1,4.65,1,,,,,,-0.358247423,-0.260309278,1,0,0,4.65,Andesite_rect,9,0,9,0,1
66045663fbc92e11eb7e557c,TCN,2024-06-10_15h17.40.642,LearnStrategy,2023.2.3,MacIntel,62.5,5,2,11,,,,,,,,7,10,,,,,,,,,,,7,1.859,1,,,,,,0.083762887,-0.389175258,1,0,0,1.859,Peridotite_rect,10,0,10,0,1
66045663fbc92e11eb7e557c,TCN,2024-06-10_15h17.40.642,LearnStrategy,2023.2.3,MacIntel,62.5,5,2,12,,,,,,,,5,14,,,,,,,,,,,5,1.093,1,,,,,,-0.320876289,-0.400773196,1,0,0,1.093,Obsidian_rect,11,0,11,0,1
66045663fbc92e11eb7e557c,TCN,2024-06-10_15h17.40.642,LearnStrategy,2023.2.3,MacIntel,62.5,5,2,13,,,,,,,,1,04,,,,,,,,,,,1,1.547,1,,,,,,-0.331185567,-0.253865979,1,0,0,1.547,Andesite_rect,12,0,12,0,1
66045663fbc92e11eb7e557c,TCN,2024-06-10_15h17.40.642,LearnStrategy,2023.2.3,MacIntel,62.5,5,2,14,,,,,,,,4,03,,,,,,,,,,,1,1.221,0,,,,,,-0.331185567,-0.25257732,1,0,0,1.221,Andesite_rect,13,0,13,0,1
66045663fbc92e11eb7e557c,TCN,2024-06-10_15h17.40.642,LearnStrategy,2023.2.3,MacIntel,62.5,5,2,15,,,,,,,,6,07,,,,,,,,,,,6,1.395,1,,,,,,-0.104381443,-0.404639175,1,0,0,1.395,Pegmatite_rect,14,0,14,0,1
66045663fbc92e11eb7e557c,TCN,2024-06-10_15h17.40.642,LearnStrategy,2023.2.3,MacIntel,62.5,5,2,16,,,,,,,,3,08,,,,,,,,,,,6,1.103,0,,,,,,-0.104381443,-0.404639175,1,0,0,1.103,Pegmatite_rect,15,0,15,0,1
66045663fbc92e11eb7e557c,TCN,2024-06-10_15h17.40.642,LearnStrategy,2023.2.3,MacIntel,62.5,6,1,1,0.032216495,0.007731959,1,0,0,1.366,rock_grid_rect_2,8,03,-1,-1,1.366,0.404639175,-0.385309278,1,0,0,1.479,Pumice_rect,8,1.479,1,0,0,0,0,1,,,,,,,,,,,,
66045663fbc92e11eb7e557c,TCN,2024-06-10_15h17.40.642,LearnStrategy,2023.2.3,MacIntel,62.5,6,1,2,0.007731959,0.014175258,1,0,0,1.298,rock_grid_rect_2,3,12,-1,-1,1.298,0.12628866,-0.25,1,0,0,2.323,Diorite_rect,3,2.323,1,1,0,1,0,1,,,,,,,,,,,,
66045663fbc92e11eb7e557c,TCN,2024-06-10_15h17.40.642,LearnStrategy,2023.2.3,MacIntel,62.5,6,1,3,0.006443299,0.007731959,1,0,0,1.248,rock_grid_rect_2,5,10,-1,-1,1.248,-0.405927835,-0.380154639,1,0,0,1.827,Obsidian_rect,5,1.827,1,2,0,2,0,1,,,,,,,,,,,,
66045663fbc92e11eb7e557c,TCN,2024-06-10_15h17.40.642,LearnStrategy,2023.2.3,MacIntel,62.5,6,1,4,-0.051546392,0.00128866,1,0,0,0.798,rock_grid_rect_2,2,01,-1,-1,0.798,-0.101804124,-0.230670103,1,0,0,1.848,Basalt_rect,2,1.848,1,3,0,3,0,1,,,,,,,,,,,,
66045663fbc92e11eb7e557c,TCN,2024-06-10_15h17.40.642,LearnStrategy,2023.2.3,MacIntel,62.5,6,1,5,0.005154639,-0.00257732,1,0,0,0.78,rock_grid_rect_2,7,06,-1,-1,0.78,-0.103092784,-0.404639175,1,0,0,3.79,Pegmatite_rect,6,3.79,0,4,0,4,0,1,,,,,,,,,,,,
66045663fbc92e11eb7e557c,TCN,2024-06-10_15h17.40.642,LearnStrategy,2023.2.3,MacIntel,62.5,6,1,6,0.055412371,-0.014175258,1,0,0,0.956,rock_grid_rect_2,3,02,-1,-1,0.956,0.06185567,-0.261597938,1,0,0,2.237,Diorite_rect,3,2.237,1,5,0,5,0,1,,,,,,,,,,,,
66045663fbc92e11eb7e557c,TCN,2024-06-10_15h17.40.642,LearnStrategy,2023.2.3,MacIntel,62.5,6,1,7,-0.00257732,-0.014175258,1,0,0,1.172,rock_grid_rect_2,1,02,-1,-1,1.172,-0.362113402,-0.233247423,1,0,0,2.923,Andesite_rect,1,2.923,1,6,0,6,0,1,,,,,,,,,,,,
66045663fbc92e11eb7e557c,TCN,2024-06-10_15h17.40.642,LearnStrategy,2023.2.3,MacIntel,62.5,6,1,8,-0.012886598,0.00128866,1,0,0,0.664,rock_grid_rect_2,2,16,-1,-1,0.664,0.402061856,-0.265463918,1,0,0,1.836,Gabbro_rect,4,1.836,0,7,0,7,0,1,,,,,,,,,,,,
66045663fbc92e11eb7e557c,TCN,2024-06-10_15h17.40.642,LearnStrategy,2023.2.3,MacIntel,62.5,6,1,9,0.019329897,0.009020619,1,0,0,0.816,rock_grid_rect_2,4,16,-1,-1,0.816,0.413659794,-0.259020619,1,0,0,3.092,Gabbro_rect,4,3.092,1,8,0,8,0,1,,,,,,,,,,,,
66045663fbc92e11eb7e557c,TCN,2024-06-10_15h17.40.642,LearnStrategy,2023.2.3,MacIntel,62.5,6,1,10,-0.012886598,0.006443299,1,0,0,0.73,rock_grid_rect_2,4,10,-1,-1,0.73,0.412371134,-0.235824742,1,0,0,7.141,Gabbro_rect,4,7.141,1,9,0,9,0,1,,,,,,,,,,,,
66045663fbc92e11eb7e557c,TCN,2024-06-10_15h17.40.642,LearnStrategy,2023.2.3,MacIntel,62.5,6,1,11,0.034793814,-0.005154639,1,0,0,0.729,rock_grid_rect_2,5,04,-1,-1,0.729,-0.331185567,-0.387886598,1,0,0,1.163,Obsidian_rect,5,1.163,1,10,0,10,0,1,,,,,,,,,,,,
66045663fbc92e11eb7e557c,TCN,2024-06-10_15h17.40.642,LearnStrategy,2023.2.3,MacIntel,62.5,6,1,12,0.012886598,-0.010309278,1,0,0,1.064,rock_grid_rect_2,7,16,-1,-1,1.064,0.12371134,-0.396907216,1,0,0,1.529,Peridotite_rect,7,1.529,1,11,0,11,0,1,,,,,,,,,,,,
66045663fbc92e11eb7e557c,TCN,2024-06-10_15h17.40.642,LearnStrategy,2023.2.3,MacIntel,62.5,6,1,13,0.006443299,-0.011597938,1,0,0,0.631,rock_grid_rect_2,8,14,-1,-1,0.631,0.350515464,-0.409793814,1,0,0,1.09,Pumice_rect,8,1.09,1,12,0,12,0,1,,,,,,,,,,,,
66045663fbc92e11eb7e557c,TCN,2024-06-10_15h17.40.642,LearnStrategy,2023.2.3,MacIntel,62.5,6,1,14,0.045103093,0,1,0,0,0.647,rock_grid_rect_2,6,10,-1,-1,0.647,-0.088917526,-0.395618557,1,0,0,1.527,Pegmatite_rect,6,1.527,1,13,0,13,0,1,,,,,,,,,,,,
66045663fbc92e11eb7e557c,TCN,2024-06-10_15h17.40.642,LearnStrategy,2023.2.3,MacIntel,62.5,6,1,15,-0.029639175,0.023195876,1,0,0,0.681,rock_grid_rect_2,6,08,-1,-1,0.681,-0.097938144,-0.384020619,1,0,0,1.441,Pegmatite_rect,6,1.441,1,14,0,14,0,1,,,,,,,,,,,,
66045663fbc92e11eb7e557c,TCN,2024-06-10_15h17.40.642,LearnStrategy,2023.2.3,MacIntel,62.5,6,1,16,-0.011597938,-0.015463918,1,0,0,0.58,rock_grid_rect_2,1,03,-1,-1,0.58,-0.375,-0.243556701,1,0,0,1.634,Andesite_rect,1,1.634,1,15,0,15,0,1,,,,,,,,,,,,
66045663fbc92e11eb7e557c,TCN,2024-06-10_15h17.40.642,LearnStrategy,2023.2.3,MacIntel,62.5,6,2,1,,,,,,,,6,13,,,,,,,,,,,6,3.79,1,,,,,,-0.153350515,-0.391752577,1,0,0,3.79,Pegmatite_rect,0,0,0,0,1
66045663fbc92e11eb7e557c,TCN,2024-06-10_15h17.40.642,LearnStrategy,2023.2.3,MacIntel,62.5,6,2,2,,,,,,,,5,11,,,,,,,,,,,5,1.206,1,,,,,,-0.362113402,-0.420103093,1,0,0,1.206,Obsidian_rect,1,0,1,0,1
66045663fbc92e11eb7e557c,TCN,2024-06-10_15h17.40.642,LearnStrategy,2023.2.3,MacIntel,62.5,6,2,3,,,,,,,,4,01,,,,,,,,,,,1,2.119,0,,,,,,-0.346649485,-0.237113402,1,0,0,2.119,Andesite_rect,2,0,2,0,1
66045663fbc92e11eb7e557c,TCN,2024-06-10_15h17.40.642,LearnStrategy,2023.2.3,MacIntel,62.5,6,2,4,,,,,,,,3,13,,,,,,,,,,,6,1.362,0,,,,,,-0.074742268,-0.409793814,1,0,0,1.362,Pegmatite_rect,3,0,3,0,1
66045663fbc92e11eb7e557c,TCN,2024-06-10_15h17.40.642,LearnStrategy,2023.2.3,MacIntel,62.5,6,2,5,,,,,,,,6,03,,,,,,,,,,,6,1.129,1,,,,,,-0.074742268,-0.409793814,1,0,0,1.129,Pegmatite_rect,4,0,4,0,1
66045663fbc92e11eb7e557c,TCN,2024-06-10_15h17.40.642,LearnStrategy,2023.2.3,MacIntel,62.5,6,2,6,,,,,,,,5,06,,,,,,,,,,,5,1.837,1,,,,,,-0.342783505,-0.381443299,1,0,0,1.837,Obsidian_rect,5,0,5,0,1
66045663fbc92e11eb7e557c,TCN,2024-06-10_15h17.40.642,LearnStrategy,2023.2.3,MacIntel,62.5,6,2,7,,,,,,,,1,11,,,,,,,,,,,1,1.55,1,,,,,,-0.382731959,-0.25,1,0,0,1.55,Andesite_rect,6,0,6,0,1
66045663fbc92e11eb7e557c,TCN,2024-06-10_15h17.40.642,LearnStrategy,2023.2.3,MacIntel,62.5,6,2,8,,,,,,,,2,12,,,,,,,,,,,4,1.431,0,,,,,,0.364690722,-0.242268041,1,0,0,1.431,Gabbro_rect,7,0,7,0,1
66045663fbc92e11eb7e557c,TCN,2024-06-10_15h17.40.642,LearnStrategy,2023.2.3,MacIntel,62.5,6,2,9,,,,,,,,8,10,,,,,,,,,,,8,1.241,1,,,,,,0.368556701,-0.405927835,1,0,0,1.241,Pumice_rect,8,0,8,0,1
66045663fbc92e11eb7e557c,TCN,2024-06-10_15h17.40.642,LearnStrategy,2023.2.3,MacIntel,62.5,6,2,10,,,,,,,,7,04,,,,,,,,,,,6,1.411,0,,,,,,-0.081185567,-0.390463918,1,0,0,1.411,Pegmatite_rect,9,0,9,0,1
66045663fbc92e11eb7e557c,TCN,2024-06-10_15h17.40.642,LearnStrategy,2023.2.3,MacIntel,62.5,6,2,11,,,,,,,,8,13,,,,,,,,,,,2,2.738,0,,,,,,-0.050257732,-0.240979381,1,0,0,2.738,Basalt_rect,10,0,10,0,1
66045663fbc92e11eb7e557c,TCN,2024-06-10_15h17.40.642,LearnStrategy,2023.2.3,MacIntel,62.5,6,2,12,,,,,,,,4,14,,,,,,,,,,,4,1.931,1,,,,,,0.396907216,-0.242268041,1,0,0,1.931,Gabbro_rect,11,0,11,0,1
66045663fbc92e11eb7e557c,TCN,2024-06-10_15h17.40.642,LearnStrategy,2023.2.3,MacIntel,62.5,6,2,13,,,,,,,,2,04,,,,,,,,,,,2,1.083,1,,,,,,-0.12628866,-0.261597938,1,0,0,1.083,Basalt_rect,12,0,12,0,1
66045663fbc92e11eb7e557c,TCN,2024-06-10_15h17.40.642,LearnStrategy,2023.2.3,MacIntel,62.5,6,2,14,,,,,,,,3,14,,,,,,,,,,,3,1.38,1,,,,,,0.113402062,-0.257731959,1,0,0,1.38,Diorite_rect,13,0,13,0,1
66045663fbc92e11eb7e557c,TCN,2024-06-10_15h17.40.642,LearnStrategy,2023.2.3,MacIntel,62.5,6,2,15,,,,,,,,1,01,,,,,,,,,,,1,1.485,1,,,,,,-0.37628866,-0.255154639,1,0,0,1.485,Andesite_rect,14,0,14,0,1
66045663fbc92e11eb7e557c,TCN,2024-06-10_15h17.40.642,LearnStrategy,2023.2.3,MacIntel,62.5,6,2,16,,,,,,,,7,12,,,,,,,,,,,6,1.193,0,,,,,,-0.170103093,-0.405927835,1,0,0,1.193,Pegmatite_rect,15,0,15,0,1
66045663fbc92e11eb7e557c,TCN,2024-06-10_15h17.40.642,LearnStrategy,2023.2.3,MacIntel,62.5,7,1,1,0.011597938,-0.021907216,1,0,0,1.064,rock_grid_rect_2,7,06,-1,-1,1.064,-0.100515464,-0.389175258,1,0,0,4.533,Pegmatite_rect,6,4.533,0,0,0,0,0,1,,,,,,,,,,,,
66045663fbc92e11eb7e557c,TCN,2024-06-10_15h17.40.642,LearnStrategy,2023.2.3,MacIntel,62.5,7,1,2,0.036082474,0.021907216,1,0,0,0.831,rock_grid_rect_2,2,16,-1,-1,0.831,0.413659794,-0.25257732,1,0,0,1.899,Gabbro_rect,4,1.899,0,1,0,1,0,1,,,,,,,,,,,,
66045663fbc92e11eb7e557c,TCN,2024-06-10_15h17.40.642,LearnStrategy,2023.2.3,MacIntel,62.5,7,1,3,0.056701031,0.003865979,1,0,0,0.947,rock_grid_rect_2,8,06,-1,-1,0.947,0.381443299,-0.420103093,1,0,0,1.596,Pumice_rect,8,1.596,1,2,0,2,0,1,,,,,,,,,,,,
66045663fbc92e11eb7e557c,TCN,2024-06-10_15h17.40.642,LearnStrategy,2023.2.3,MacIntel,62.5,7,1,4,0.016752577,-0.016752577,1,0,0,0.848,rock_grid_rect_2,5,05,-1,-1,0.848,-0.358247423,-0.417525773,1,0,0,3.15,Obsidian_rect,5,3.15,1,3,0,3,0,1,,,,,,,,,,,,
66045663fbc92e11eb7e557c,TCN,2024-06-10_15h17.40.642,LearnStrategy,2023.2.3,MacIntel,62.5,7,1,5,-0.016752577,-0.012886598,1,0,0,0.664,rock_grid_rect_2,8,14,-1,-1,0.664,0.420103093,-0.407216495,1,0,0,1.022,Pumice_rect,8,1.022,1,4,0,4,0,1,,,,,,,,,,,,
66045663fbc92e11eb7e557c,TCN,2024-06-10_15h17.40.642,LearnStrategy,2023.2.3,MacIntel,62.5,7,1,6,0.016752577,-0.012886598,1,0,0,0.732,rock_grid_rect_2,6,06,-1,-1,0.732,-0.128865979,-0.402061856,1,0,0,1.253,Pegmatite_rect,6,1.253,1,5,0,5,0,1,,,,,,,,,,,,
66045663fbc92e11eb7e557c,TCN,2024-06-10_15h17.40.642,LearnStrategy,2023.2.3,MacIntel,62.5,7,1,7,0.068298969,0.019329897,1,0,0,0.764,rock_grid_rect_2,5,09,-1,-1,0.764,-0.354381443,-0.417525773,1,0,0,1.136,Obsidian_rect,5,1.136,1,6,0,6,0,1,,,,,,,,,,,,
66045663fbc92e11eb7e557c,TCN,2024-06-10_15h17.40.642,LearnStrategy,2023.2.3,MacIntel,62.5,7,1,8,0.06185567,0.014175258,1,0,0,0.764,rock_grid_rect_2,3,11,-1,-1,0.764,0.119845361,-0.264175258,1,0,0,1.721,Diorite_rect,3,1.721,1,7,0,7,0,1,,,,,,,,,,,,
66045663fbc92e11eb7e557c,TCN,2024-06-10_15h17.40.642,LearnStrategy,2023.2.3,MacIntel,62.5,7,1,9,-0.024484536,-0.012886598,1,0,0,0.665,rock_grid_rect_2,6,08,-1,-1,0.665,-0.161082474,-0.386597938,1,0,0,1.376,Pegmatite_rect,6,1.376,1,8,0,8,0,1,,,,,,,,,,,,
66045663fbc92e11eb7e557c,TCN,2024-06-10_15h17.40.642,LearnStrategy,2023.2.3,MacIntel,62.5,7,1,10,0.030927835,-0.010309278,1,0,0,0.581,rock_grid_rect_2,4,12,-1,-1,0.581,0.358247423,-0.238402062,1,0,0,3.665,Gabbro_rect,4,3.665,1,9,0,9,0,1,,,,,,,,,,,,
66045663fbc92e11eb7e557c,TCN,2024-06-10_15h17.40.642,LearnStrategy,2023.2.3,MacIntel,62.5,7,1,11,0.006443299,0.009020619,1,0,0,0.781,rock_grid_rect_2,1,14,-1,-1,0.781,-0.131443299,-0.400773196,1,0,0,1.458,Pegmatite_rect,6,1.458,0,10,0,10,0,1,,,,,,,,,,,,
66045663fbc92e11eb7e557c,TCN,2024-06-10_15h17.40.642,LearnStrategy,2023.2.3,MacIntel,62.5,7,1,12,0.054123711,-0.014175258,1,0,0,0.647,rock_grid_rect_2,2,02,-1,-1,0.647,-0.121134021,-0.260309278,1,0,0,3.137,Basalt_rect,2,3.137,1,11,0,11,0,1,,,,,,,,,,,,
66045663fbc92e11eb7e557c,TCN,2024-06-10_15h17.40.642,LearnStrategy,2023.2.3,MacIntel,62.5,7,1,13,0.077319588,-0.012886598,1,0,0,0.648,rock_grid_rect_2,1,09,-1,-1,0.648,-0.367268041,-0.25128866,1,0,0,1.429,Andesite_rect,1,1.429,1,12,0,12,0,1,,,,,,,,,,,,
66045663fbc92e11eb7e557c,TCN,2024-06-10_15h17.40.642,LearnStrategy,2023.2.3,MacIntel,62.5,7,1,14,0.092783505,0.007731959,1,0,0,0.664,rock_grid_rect_2,7,08,-1,-1,0.664,0.117268041,-0.411082474,1,0,0,2.811,Peridotite_rect,7,2.811,1,13,0,13,0,1,,,,,,,,,,,,
66045663fbc92e11eb7e557c,TCN,2024-06-10_15h17.40.642,LearnStrategy,2023.2.3,MacIntel,62.5,7,1,15,0.055412371,0.023195876,1,0,0,0.631,rock_grid_rect_2,3,12,-1,-1,0.631,0.068298969,-0.259020619,1,0,0,1.897,Diorite_rect,3,1.897,1,14,0,14,0,1,,,,,,,,,,,,
66045663fbc92e11eb7e557c,TCN,2024-06-10_15h17.40.642,LearnStrategy,2023.2.3,MacIntel,62.5,7,1,16,0.024484536,-0.010309278,1,0,0,0.829,rock_grid_rect_2,4,10,-1,-1,0.829,-0.149484536,-0.244845361,1,0,0,1.614,Basalt_rect,2,1.614,0,15,0,15,0,1,,,,,,,,,,,,
66045663fbc92e11eb7e557c,TCN,2024-06-10_15h17.40.642,LearnStrategy,2023.2.3,MacIntel,62.5,7,2,1,,,,,,,,8,09,,,,,,,,,,,8,1.485,1,,,,,,0.365979381,-0.396907216,1,0,0,1.485,Pumice_rect,0,0,0,0,1
66045663fbc92e11eb7e557c,TCN,2024-06-10_15h17.40.642,LearnStrategy,2023.2.3,MacIntel,62.5,7,2,2,,,,,,,,2,05,,,,,,,,,,,2,2.516,1,,,,,,-0.117268041,-0.25,1,0,0,2.516,Basalt_rect,1,0,1,0,1
66045663fbc92e11eb7e557c,TCN,2024-06-10_15h17.40.642,LearnStrategy,2023.2.3,MacIntel,62.5,7,2,3,,,,,,,,7,14,,,,,,,,,,,7,4.435,1,,,,,,0.095360825,-0.412371134,1,0,0,4.435,Peridotite_rect,2,0,2,0,1
66045663fbc92e11eb7e557c,TCN,2024-06-10_15h17.40.642,LearnStrategy,2023.2.3,MacIntel,62.5,7,2,4,,,,,,,,2,11,,,,,,,,,,,4,4.938,0,,,,,,0.369845361,-0.25,1,0,0,4.938,Gabbro_rect,3,0,3,0,1
66045663fbc92e11eb7e557c,TCN,2024-06-10_15h17.40.642,LearnStrategy,2023.2.3,MacIntel,62.5,7,2,5,,,,,,,,6,13,,,,,,,,,,,6,1.24,1,,,,,,-0.121134021,-0.411082474,1,0,0,1.24,Pegmatite_rect,4,0,4,0,1
66045663fbc92e11eb7e557c,TCN,2024-06-10_15h17.40.642,LearnStrategy,2023.2.3,MacIntel,62.5,7,2,6,,,,,,,,1,11,,,,,,,,,,,1,1.215,1,,,,,,-0.382731959,-0.256443299,1,0,0,1.215,Andesite_rect,5,0,5,0,1
66045663fbc92e11eb7e557c,TCN,2024-06-10_15h17.40.642,LearnStrategy,2023.2.3,MacIntel,62.5,7,2,7,,,,,,,,5,11,,,,,,,,,,,5,1.061,1,,,,,,-0.417525773,-0.418814433,1,0,0,1.061,Obsidian_rect,6,0,6,0,1
66045663fbc92e11eb7e557c,TCN,2024-06-10_15h17.40.642,LearnStrategy,2023.2.3,MacIntel,62.5,7,2,8,,,,,,,,3,06,,,,,,,,,,,1,1.457,0,,,,,,-0.37757732,-0.235824742,1,0,0,1.457,Andesite_rect,7,0,7,0,1
66045663fbc92e11eb7e557c,TCN,2024-06-10_15h17.40.642,LearnStrategy,2023.2.3,MacIntel,62.5,7,2,9,,,,,,,,3,10,,,,,,,,,,,7,5.677,0,,,,,,0.118556701,-0.395618557,1,0,0,5.677,Peridotite_rect,8,0,8,0,1
66045663fbc92e11eb7e557c,TCN,2024-06-10_15h17.40.642,LearnStrategy,2023.2.3,MacIntel,62.5,7,2,10,,,,,,,,6,09,,,,,,,,,,,6,1.158,1,,,,,,-0.087628866,-0.389175258,1,0,0,1.158,Pegmatite_rect,9,0,9,0,1
66045663fbc92e11eb7e557c,TCN,2024-06-10_15h17.40.642,LearnStrategy,2023.2.3,MacIntel,62.5,7,2,11,,,,,,,,5,14,,,,,,,,,,,5,1.016,1,,,,,,-0.341494845,-0.395618557,1,0,0,1.016,Obsidian_rect,10,0,10,0,1
66045663fbc92e11eb7e557c,TCN,2024-06-10_15h17.40.642,LearnStrategy,2023.2.3,MacIntel,62.5,7,2,12,,,,,,,,1,04,,,,,,,,,,,1,1.172,1,,,,,,-0.353092784,-0.24871134,1,0,0,1.172,Andesite_rect,11,0,11,0,1
66045663fbc92e11eb7e557c,TCN,2024-06-10_15h17.40.642,LearnStrategy,2023.2.3,MacIntel,62.5,7,2,13,,,,,,,,4,14,,,,,,,,,,,4,1.788,1,,,,,,0.385309278,-0.257731959,1,0,0,1.788,Gabbro_rect,12,0,12,0,1
66045663fbc92e11eb7e557c,TCN,2024-06-10_15h17.40.642,LearnStrategy,2023.2.3,MacIntel,62.5,7,2,14,,,,,,,,8,02,,,,,,,,,,,8,1.07,1,,,,,,0.393041237,-0.394329897,1,0,0,1.07,Pumice_rect,13,0,13,0,1
66045663fbc92e11eb7e557c,TCN,2024-06-10_15h17.40.642,LearnStrategy,2023.2.3,MacIntel,62.5,7,2,15,,,,,,,,7,02,,,,,,,,,,,7,2.593,1,,,,,,0.092783505,-0.384020619,1,0,0,2.593,Peridotite_rect,14,0,14,0,1
66045663fbc92e11eb7e557c,TCN,2024-06-10_15h17.40.642,LearnStrategy,2023.2.3,MacIntel,62.5,7,2,16,,,,,,,,4,11,,,,,,,,,,,4,2.848,1,,,,,,0.355670103,-0.237113402,1,0,0,2.848,Gabbro_rect,15,0,15,0,1
66045663fbc92e11eb7e557c,TCN,2024-06-10_15h17.40.642,LearnStrategy,2023.2.3,MacIntel,62.5,8,1,1,0.059278351,-0.011597938,1,0,0,1.23,rock_grid_rect_2,6,16,-1,-1,1.23,-0.135309278,-0.391752577,1,0,0,1.398,Pegmatite_rect,6,1.398,1,0,0,0,0,1,,,,,,,,,,,,
66045663fbc92e11eb7e557c,TCN,2024-06-10_15h17.40.642,LearnStrategy,2023.2.3,MacIntel,62.5,8,1,2,0.00128866,-0.00257732,1,0,0,0.897,rock_grid_rect_2,8,03,-1,-1,0.897,0.37757732,-0.418814433,1,0,0,1.528,Pumice_rect,8,1.528,1,1,0,1,0,1,,,,,,,,,,,,
66045663fbc92e11eb7e557c,TCN,2024-06-10_15h17.40.642,LearnStrategy,2023.2.3,MacIntel,62.5,8,1,3,0.016752577,-0.006443299,1,0,0,0.829,rock_grid_rect_2,3,15,-1,-1,0.829,0.159793814,-0.269329897,1,0,0,12.428,Diorite_rect,3,12.428,1,2,0,2,0,1,,,,,,,,,,,,
66045663fbc92e11eb7e557c,TCN,2024-06-10_15h17.40.642,LearnStrategy,2023.2.3,MacIntel,62.5,8,1,4,0.087628866,-0.016752577,1,0,0,1.13,rock_grid_rect_2,2,06,-1,-1,1.13,-0.172680412,-0.242268041,1,0,0,1.254,Basalt_rect,2,1.254,1,3,0,3,0,1,,,,,,,,,,,,
66045663fbc92e11eb7e557c,TCN,2024-06-10_15h17.40.642,LearnStrategy,2023.2.3,MacIntel,62.5,8,1,5,0.014175258,-0.006443299,1,0,0,0.714,rock_grid_rect_2,1,10,-1,-1,0.714,0.365979381,-0.261597938,1,0,0,3.723,Gabbro_rect,4,3.723,0,4,0,4,0,1,,,,,,,,,,,,
66045663fbc92e11eb7e557c,TCN,2024-06-10_15h17.40.642,LearnStrategy,2023.2.3,MacIntel,62.5,8,1,6,0.036082474,0,1,0,0,0.765,rock_grid_rect_2,8,08,-1,-1,0.765,0.378865979,-0.390463918,1,0,0,2.909,Pumice_rect,8,2.909,1,5,0,5,0,1,,,,,,,,,,,,
66045663fbc92e11eb7e557c,TCN,2024-06-10_15h17.40.642,LearnStrategy,2023.2.3,MacIntel,62.5,8,1,7,0.036082474,0.006443299,1,0,0,0.648,rock_grid_rect_2,1,07,-1,-1,0.648,-0.305412371,-0.240979381,1,0,0,1.487,Andesite_rect,1,1.487,1,6,0,6,0,1,,,,,,,,,,,,
66045663fbc92e11eb7e557c,TCN,2024-06-10_15h17.40.642,LearnStrategy,2023.2.3,MacIntel,62.5,8,1,8,0.034793814,0.012886598,1,0,0,0.732,rock_grid_rect_2,5,07,-1,-1,0.732,-0.353092784,-0.384020619,1,0,0,1.203,Obsidian_rect,5,1.203,1,7,0,7,0,1,,,,,,,,,,,,
66045663fbc92e11eb7e557c,TCN,2024-06-10_15h17.40.642,LearnStrategy,2023.2.3,MacIntel,62.5,8,1,9,-0.015463918,-0.019329897,1,0,0,0.998,rock_grid_rect_2,4,05,-1,-1,0.998,0.152061856,-0.380154639,1,0,0,3.049,Peridotite_rect,7,3.049,0,8,0,8,0,1,,,,,,,,,,,,
66045663fbc92e11eb7e557c,TCN,2024-06-10_15h17.40.642,LearnStrategy,2023.2.3,MacIntel,62.5,8,1,10,0.028350515,-0.007731959,1,0,0,1.081,rock_grid_rect_2,3,02,-1,-1,1.081,0.148195876,-0.261597938,1,0,0,2.326,Diorite_rect,3,2.326,1,9,0,9,0,1,,,,,,,,,,,,
66045663fbc92e11eb7e557c,TCN,2024-06-10_15h17.40.642,LearnStrategy,2023.2.3,MacIntel,62.5,8,1,11,0.06185567,0.018041237,1,0,0,0.724,rock_grid_rect_2,5,04,-1,-1,0.724,-0.369845361,-0.416237113,1,0,0,1.504,Obsidian_rect,5,1.504,1,10,0,10,0,1,,,,,,,,,,,,
66045663fbc92e11eb7e557c,TCN,2024-06-10_15h17.40.642,LearnStrategy,2023.2.3,MacIntel,62.5,8,1,12,-0.029639175,-0.010309278,1,0,0,0.614,rock_grid_rect_2,6,11,-1,-1,0.614,-0.106958763,-0.393041237,1,0,0,1.8,Pegmatite_rect,6,1.8,1,11,0,11,0,1,,,,,,,,,,,,
66045663fbc92e11eb7e557c,TCN,2024-06-10_15h17.40.642,LearnStrategy,2023.2.3,MacIntel,62.5,8,1,13,0.015463918,-0.009020619,1,0,0,0.581,rock_grid_rect_2,7,07,-1,-1,0.581,0.114690722,-0.409793814,1,0,0,1.428,Peridotite_rect,7,1.428,1,12,0,12,0,1,,,,,,,,,,,,
66045663fbc92e11eb7e557c,TCN,2024-06-10_15h17.40.642,LearnStrategy,2023.2.3,MacIntel,62.5,8,1,14,0.028350515,0,1,0,0,0.63,rock_grid_rect_2,4,16,-1,-1,0.63,-0.090206186,-0.25128866,1,0,0,2.056,Basalt_rect,2,2.056,0,13,0,13,0,1,,,,,,,,,,,,
66045663fbc92e11eb7e557c,TCN,2024-06-10_15h17.40.642,LearnStrategy,2023.2.3,MacIntel,62.5,8,1,15,0.108247423,-0.00128866,1,0,0,1.147,rock_grid_rect_2,7,16,-1,-1,1.147,0.139175258,-0.417525773,1,0,0,1.58,Peridotite_rect,7,1.58,1,14,0,14,0,1,,,,,,,,,,,,
66045663fbc92e11eb7e557c,TCN,2024-06-10_15h17.40.642,LearnStrategy,2023.2.3,MacIntel,62.5,8,1,16,0.056701031,0.006443299,1,0,0,0.63,rock_grid_rect_2,2,08,-1,-1,0.63,-0.090206186,-0.24871134,1,0,0,1.453,Basalt_rect,2,1.453,1,15,0,15,0,1,,,,,,,,,,,,
66045663fbc92e11eb7e557c,TCN,2024-06-10_15h17.40.642,LearnStrategy,2023.2.3,MacIntel,62.5,8,2,1,,,,,,,,5,08,,,,,,,,,,,5,1.493,1,,,,,,-0.347938144,-0.389175258,1,0,0,1.493,Obsidian_rect,0,0,0,0,1
66045663fbc92e11eb7e557c,TCN,2024-06-10_15h17.40.642,LearnStrategy,2023.2.3,MacIntel,62.5,8,2,2,,,,,,,,3,08,,,,,,,,,,,3,3.041,1,,,,,,0.118556701,-0.253865979,1,0,0,3.041,Diorite_rect,1,0,1,0,1
66045663fbc92e11eb7e557c,TCN,2024-06-10_15h17.40.642,LearnStrategy,2023.2.3,MacIntel,62.5,8,2,3,,,,,,,,8,04,,,,,,,,,,,8,3.389,1,,,,,,0.355670103,-0.404639175,1,0,0,3.389,Pumice_rect,2,0,2,0,1
66045663fbc92e11eb7e557c,TCN,2024-06-10_15h17.40.642,LearnStrategy,2023.2.3,MacIntel,62.5,8,2,4,,,,,,,,3,13,,,,,,,,,,,3,6.686,1,,,,,,0.12371134,-0.246134021,1,0,0,6.686,Diorite_rect,3,0,3,0,1
66045663fbc92e11eb7e557c,TCN,2024-06-10_15h17.40.642,LearnStrategy,2023.2.3,MacIntel,62.5,8,2,5,,,,,,,,4,13,,,,,,,,,,,4,1.716,1,,,,,,0.327319588,-0.239690722,1,0,0,1.716,Gabbro_rect,4,0,4,0,1
66045663fbc92e11eb7e557c,TCN,2024-06-10_15h17.40.642,LearnStrategy,2023.2.3,MacIntel,62.5,8,2,6,,,,,,,,6,15,,,,,,,,,,,6,1.944,1,,,,,,-0.153350515,-0.396907216,1,0,0,1.944,Pegmatite_rect,5,0,5,0,1
66045663fbc92e11eb7e557c,TCN,2024-06-10_15h17.40.642,LearnStrategy,2023.2.3,MacIntel,62.5,8,2,7,,,,,,,,1,05,,,,,,,,,,,1,1.53,1,,,,,,-0.405927835,-0.264175258,1,0,0,1.53,Andesite_rect,6,0,6,0,1
66045663fbc92e11eb7e557c,TCN,2024-06-10_15h17.40.642,LearnStrategy,2023.2.3,MacIntel,62.5,8,2,8,,,,,,,,1,01,,,,,,,,,,,4,4.914,0,,,,,,0.400773196,-0.228092784,1,0,0,4.914,Gabbro_rect,7,0,7,0,1
66045663fbc92e11eb7e557c,TCN,2024-06-10_15h17.40.642,LearnStrategy,2023.2.3,MacIntel,62.5,8,2,9,,,,,,,,7,12,,,,,,,,,,,7,1.913,1,,,,,,0.095360825,-0.382731959,1,0,0,1.913,Peridotite_rect,8,0,8,0,1
66045663fbc92e11eb7e557c,TCN,2024-06-10_15h17.40.642,LearnStrategy,2023.2.3,MacIntel,62.5,8,2,10,,,,,,,,4,03,,,,,,,,,,,2,2.23,0,,,,,,-0.06443299,-0.234536082,1,0,0,2.23,Basalt_rect,9,0,9,0,1
66045663fbc92e11eb7e557c,TCN,2024-06-10_15h17.40.642,LearnStrategy,2023.2.3,MacIntel,62.5,8,2,11,,,,,,,,7,13,,,,,,,,,,,7,1.38,1,,,,,,0.090206186,-0.393041237,1,0,0,1.38,Peridotite_rect,10,0,10,0,1
66045663fbc92e11eb7e557c,TCN,2024-06-10_15h17.40.642,LearnStrategy,2023.2.3,MacIntel,62.5,8,2,12,,,,,,,,8,10,,,,,,,,,,,8,1.111,1,,,,,,0.37757732,-0.386597938,1,0,0,1.111,Pumice_rect,11,0,11,0,1
66045663fbc92e11eb7e557c,TCN,2024-06-10_15h17.40.642,LearnStrategy,2023.2.3,MacIntel,62.5,8,2,13,,,,,,,,6,05,,,,,,,,,,,6,1.438,1,,,,,,-0.130154639,-0.407216495,1,0,0,1.438,Pegmatite_rect,12,0,12,0,1
66045663fbc92e11eb7e557c,TCN,2024-06-10_15h17.40.642,LearnStrategy,2023.2.3,MacIntel,62.5,8,2,14,,,,,,,,5,06,,,,,,,,,,,5,1.09,1,,,,,,-0.342783505,-0.418814433,1,0,0,1.09,Obsidian_rect,13,0,13,0,1
66045663fbc92e11eb7e557c,TCN,2024-06-10_15h17.40.642,LearnStrategy,2023.2.3,MacIntel,62.5,8,2,15,,,,,,,,2,04,,,,,,,,,,,2,1.147,1,,,,,,-0.159793814,-0.25257732,1,0,0,1.147,Basalt_rect,14,0,14,0,1
66045663fbc92e11eb7e557c,TCN,2024-06-10_15h17.40.642,LearnStrategy,2023.2.3,MacIntel,62.5,8,2,16,,,,,,,,2,14,,,,,,,,,,,4,1.118,0,,,,,,0.386597938,-0.24742268,1,0,0,1.118,Gabbro_rect,15,0,15,0,1
66045663fbc92e11eb7e557c,TCN,2024-06-10_15h17.40.642,LearnStrategy,2023.2.3,MacIntel,62.5,9,1,1,-0.021907216,-0.003865979,1,0,0,0.87,rock_grid_rect_2,7,05,-1,-1,0.87,0.12628866,-0.389175258,1,0,0,3.315,Peridotite_rect,7,3.315,1,0,0,0,0,1,,,,,,,,,,,,
66045663fbc92e11eb7e557c,TCN,2024-06-10_15h17.40.642,LearnStrategy,2023.2.3,MacIntel,62.5,9,1,2,0.027061856,-0.012886598,1,0,0,1.248,rock_grid_rect_2,2,01,-1,-1,1.248,-0.118556701,-0.25257732,1,0,0,1.15,Basalt_rect,2,1.15,1,1,0,1,0,1,,,,,,,,,,,,
66045663fbc92e11eb7e557c,TCN,2024-06-10_15h17.40.642,LearnStrategy,2023.2.3,MacIntel,62.5,9,1,3,0,0.007731959,1,0,0,0.947,rock_grid_rect_2,2,10,-1,-1,0.947,0.353092784,-0.238402062,1,0,0,2.003,Gabbro_rect,4,2.003,0,2,0,2,0,1,,,,,,,,,,,,
66045663fbc92e11eb7e557c,TCN,2024-06-10_15h17.40.642,LearnStrategy,2023.2.3,MacIntel,62.5,9,1,4,-0.018041237,-0.009020619,1,0,0,0.697,rock_grid_rect_2,5,02,-1,-1,0.697,-0.382731959,-0.420103093,1,0,0,1.126,Obsidian_rect,5,1.126,1,3,0,3,0,1,,,,,,,,,,,,
66045663fbc92e11eb7e557c,TCN,2024-06-10_15h17.40.642,LearnStrategy,2023.2.3,MacIntel,62.5,9,1,5,0.016752577,0.005154639,1,0,0,0.748,rock_grid_rect_2,6,10,-1,-1,0.748,0.097938144,-0.407216495,1,0,0,2.295,Peridotite_rect,7,2.295,0,4,0,4,0,1,,,,,,,,,,,,
66045663fbc92e11eb7e557c,TCN,2024-06-10_15h17.40.642,LearnStrategy,2023.2.3,MacIntel,62.5,9,1,6,-0.011597938,-0.007731959,1,0,0,0.765,rock_grid_rect_2,4,15,-1,-1,0.765,-0.380154639,-0.386597938,1,0,0,1.735,Obsidian_rect,5,1.735,0,5,0,5,0,1,,,,,,,,,,,,
66045663fbc92e11eb7e557c,TCN,2024-06-10_15h17.40.642,LearnStrategy,2023.2.3,MacIntel,62.5,9,1,7,0.014175258,-0.006443299,1,0,0,0.648,rock_grid_rect_2,3,09,-1,-1,0.648,0.144329897,-0.235824742,1,0,0,1.364,Diorite_rect,3,1.364,1,6,0,6,0,1,,,,,,,,,,,,
66045663fbc92e11eb7e557c,TCN,2024-06-10_15h17.40.642,LearnStrategy,2023.2.3,MacIntel,62.5,9,1,8,-0.011597938,0.005154639,1,0,0,0.646,rock_grid_rect_2,5,10,-1,-1,0.646,-0.371134021,-0.405927835,1,0,0,1.545,Obsidian_rect,5,1.545,1,7,0,7,0,1,,,,,,,,,,,,
66045663fbc92e11eb7e557c,TCN,2024-06-10_15h17.40.642,LearnStrategy,2023.2.3,MacIntel,62.5,9,1,9,-0.015463918,0.010309278,1,0,0,1.015,rock_grid_rect_2,4,09,-1,-1,1.015,0.425257732,-0.257731959,1,0,0,3.463,Gabbro_rect,4,3.463,1,8,0,8,0,1,,,,,,,,,,,,
66045663fbc92e11eb7e557c,TCN,2024-06-10_15h17.40.642,LearnStrategy,2023.2.3,MacIntel,62.5,9,1,10,0.00128866,0.00128866,1,0,0,0.747,rock_grid_rect_2,1,03,-1,-1,0.747,-0.387886598,-0.233247423,1,0,0,1.597,Andesite_rect,1,1.597,1,9,0,9,0,1,,,,,,,,,,,,
66045663fbc92e11eb7e557c,TCN,2024-06-10_15h17.40.642,LearnStrategy,2023.2.3,MacIntel,62.5,9,1,11,-0.023195876,0,1,0,0,0.614,rock_grid_rect_2,1,02,-1,-1,0.614,-0.362113402,-0.259020619,1,0,0,2.09,Andesite_rect,1,2.09,1,10,0,10,0,1,,,,,,,,,,,,
66045663fbc92e11eb7e557c,TCN,2024-06-10_15h17.40.642,LearnStrategy,2023.2.3,MacIntel,62.5,9,1,12,0.00128866,-0.012886598,1,0,0,0.617,rock_grid_rect_2,8,16,-1,-1,0.617,0.356958763,-0.412371134,1,0,0,1.521,Pumice_rect,8,1.521,1,11,0,11,0,1,,,,,,,,,,,,
66045663fbc92e11eb7e557c,TCN,2024-06-10_15h17.40.642,LearnStrategy,2023.2.3,MacIntel,62.5,9,1,13,-0.020618557,-0.006443299,1,0,0,0.63,rock_grid_rect_2,3,16,-1,-1,0.63,0.141752577,-0.256443299,1,0,0,3.155,Diorite_rect,3,3.155,1,12,0,12,0,1,,,,,,,,,,,,
66045663fbc92e11eb7e557c,TCN,2024-06-10_15h17.40.642,LearnStrategy,2023.2.3,MacIntel,62.5,9,1,14,0.003865979,-0.009020619,1,0,0,0.98,rock_grid_rect_2,7,15,-1,-1,0.98,0.149484536,-0.404639175,1,0,0,1.543,Peridotite_rect,7,1.543,1,13,0,13,0,1,,,,,,,,,,,,
66045663fbc92e11eb7e557c,TCN,2024-06-10_15h17.40.642,LearnStrategy,2023.2.3,MacIntel,62.5,9,1,15,-0.027061856,0.00257732,1,0,0,0.582,rock_grid_rect_2,8,05,-1,-1,0.582,0.426546392,-0.412371134,1,0,0,1.498,Pumice_rect,8,1.498,1,14,0,14,0,1,,,,,,,,,,,,
66045663fbc92e11eb7e557c,TCN,2024-06-10_15h17.40.642,LearnStrategy,2023.2.3,MacIntel,62.5,9,1,16,0.009020619,-0.00257732,1,0,0,1.047,rock_grid_rect_2,6,12,-1,-1,1.047,-0.170103093,-0.378865979,1,0,0,1.334,Pegmatite_rect,6,1.334,1,15,0,15,0,1,,,,,,,,,,,,
66045663fbc92e11eb7e557c,TCN,2024-06-10_15h17.40.642,LearnStrategy,2023.2.3,MacIntel,62.5,9,2,1,,,,,,,,8,13,,,,,,,,,,,8,1.465,1,,,,,,0.391752577,-0.399484536,1,0,0,1.465,Pumice_rect,0,0,0,0,1
66045663fbc92e11eb7e557c,TCN,2024-06-10_15h17.40.642,LearnStrategy,2023.2.3,MacIntel,62.5,9,2,2,,,,,,,,7,10,,,,,,,,,,,7,1.457,1,,,,,,0.128865979,-0.396907216,1,0,0,1.457,Peridotite_rect,1,0,1,0,1
66045663fbc92e11eb7e557c,TCN,2024-06-10_15h17.40.642,LearnStrategy,2023.2.3,MacIntel,62.5,9,2,3,,,,,,,,6,07,,,,,,,,,,,6,1.09,1,,,,,,-0.081185567,-0.402061856,1,0,0,1.09,Pegmatite_rect,2,0,2,0,1
66045663fbc92e11eb7e557c,TCN,2024-06-10_15h17.40.642,LearnStrategy,2023.2.3,MacIntel,62.5,9,2,4,,,,,,,,5,16,,,,,,,,,,,5,0.994,1,,,,,,-0.345360825,-0.408505155,1,0,0,0.994,Obsidian_rect,3,0,3,0,1
66045663fbc92e11eb7e557c,TCN,2024-06-10_15h17.40.642,LearnStrategy,2023.2.3,MacIntel,62.5,9,2,5,,,,,,,,5,12,,,,,,,,,,,5,0.752,1,,,,,,-0.345360825,-0.408505155,1,0,0,0.752,Obsidian_rect,4,0,4,0,1
66045663fbc92e11eb7e557c,TCN,2024-06-10_15h17.40.642,LearnStrategy,2023.2.3,MacIntel,62.5,9,2,6,,,,,,,,6,03,,,,,,,,,,,6,0.952,1,,,,,,-0.161082474,-0.418814433,1,0,0,0.952,Pegmatite_rect,5,0,5,0,1
66045663fbc92e11eb7e557c,TCN,2024-06-10_15h17.40.642,LearnStrategy,2023.2.3,MacIntel,62.5,9,2,7,,,,,,,,3,14,,,,,,,,,,,3,1.635,1,,,,,,0.117268041,-0.25128866,1,0,0,1.635,Diorite_rect,6,0,6,0,1
66045663fbc92e11eb7e557c,TCN,2024-06-10_15h17.40.642,LearnStrategy,2023.2.3,MacIntel,62.5,9,2,8,,,,,,,,1,06,,,,,,,,,,,1,1.157,1,,,,,,-0.324742268,-0.240979381,1,0,0,1.157,Andesite_rect,7,0,7,0,1
66045663fbc92e11eb7e557c,TCN,2024-06-10_15h17.40.642,LearnStrategy,2023.2.3,MacIntel,62.5,9,2,9,,,,,,,,1,16,,,,,,,,,,,1,0.986,1,,,,,,-0.324742268,-0.240979381,1,0,0,0.986,Andesite_rect,8,0,8,0,1
66045663fbc92e11eb7e557c,TCN,2024-06-10_15h17.40.642,LearnStrategy,2023.2.3,MacIntel,62.5,9,2,10,,,,,,,,2,12,,,,,,,,,,,2,1.376,1,,,,,,-0.157216495,-0.25128866,1,0,0,1.376,Basalt_rect,9,0,9,0,1
66045663fbc92e11eb7e557c,TCN,2024-06-10_15h17.40.642,LearnStrategy,2023.2.3,MacIntel,62.5,9,2,11,,,,,,,,4,08,,,,,,,,,,,4,2.508,1,,,,,,0.380154639,-0.24742268,1,0,0,2.508,Gabbro_rect,10,0,10,0,1
66045663fbc92e11eb7e557c,TCN,2024-06-10_15h17.40.642,LearnStrategy,2023.2.3,MacIntel,62.5,9,2,12,,,,,,,,4,01,,,,,,,,,,,7,3.1,0,,,,,,0.18685567,-0.394329897,1,0,0,3.1,Peridotite_rect,11,0,11,0,1
66045663fbc92e11eb7e557c,TCN,2024-06-10_15h17.40.642,LearnStrategy,2023.2.3,MacIntel,62.5,9,2,13,,,,,,,,3,07,,,,,,,,,,,3,4.31,1,,,,,,0.112113402,-0.253865979,1,0,0,4.31,Diorite_rect,12,0,12,0,1
66045663fbc92e11eb7e557c,TCN,2024-06-10_15h17.40.642,LearnStrategy,2023.2.3,MacIntel,62.5,9,2,14,,,,,,,,8,15,,,,,,,,,,,8,1.255,1,,,,,,0.359536082,-0.405927835,1,0,0,1.255,Pumice_rect,13,0,13,0,1
66045663fbc92e11eb7e557c,TCN,2024-06-10_15h17.40.642,LearnStrategy,2023.2.3,MacIntel,62.5,9,2,15,,,,,,,,7,04,,,,,,,,,,,7,2.898,1,,,,,,0.06056701,-0.403350515,1,0,0,2.898,Peridotite_rect,14,0,14,0,1
66045663fbc92e11eb7e557c,TCN,2024-06-10_15h17.40.642,LearnStrategy,2023.2.3,MacIntel,62.5,9,2,16,,,,,,,,2,09,,,,,,,,,,,2,2.367,1,,,,,,-0.097938144,-0.259020619,1,0,0,2.367,Basalt_rect,15,0,15,0,1
66045663fbc92e11eb7e557c,TCN,2024-06-10_15h17.40.642,LearnStrategy,2023.2.3,MacIntel,62.5,,,,,,,,,,,,,,,,,,,,,,,,,,,,,,,,,,,,,,,,,,
66045663fbc92e11eb7e557c,TCN,2024-06-10_15h17.40.642,LearnStrategy,2023.2.3,MacIntel,62.5,,,,,,,,,,,,,,,,,,,,,,,,,,,,,,,,,,,,,,,,,,
66045663fbc92e11eb7e557c,TCN,2024-06-10_15h17.40.642,LearnStrategy,2023.2.3,MacIntel,62.5,,,,,,,,,,,4,05,1,1,,,,,,,,,,,,,,,,,,,,,,,,,,,,
66045663fbc92e11eb7e557c,TCN,2024-06-10_15h17.40.642,LearnStrategy,2023.2.3,MacIntel,62.5,,,,,,,,,,,3,15,1,2,,,,,,,,,,,,,,,,,,,,,,,,,,,,
66045663fbc92e11eb7e557c,TCN,2024-06-10_15h17.40.642,LearnStrategy,2023.2.3,MacIntel,62.5,,,,,,,,,,,8,08,1,3,,,,,,,,,,,,,,,,,,,,,,,,,,,,
66045663fbc92e11eb7e557c,TCN,2024-06-10_15h17.40.642,LearnStrategy,2023.2.3,MacIntel,62.5,,,,,,,,,,,1,07,1,4,,,,,,,,,,,,,,,,,,,,,,,,,,,,
66045663fbc92e11eb7e557c,TCN,2024-06-10_15h17.40.642,LearnStrategy,2023.2.3,MacIntel,62.5,,,,,,,,,,,3,02,1,5,,,,,,,,,,,,,,,,,,,,,,,,,,,,
66045663fbc92e11eb7e557c,TCN,2024-06-10_15h17.40.642,LearnStrategy,2023.2.3,MacIntel,62.5,,,,,,,,,,,7,08,1,6,,,,,,,,,,,,,,,,,,,,,,,,,,,,
66045663fbc92e11eb7e557c,TCN,2024-06-10_15h17.40.642,LearnStrategy,2023.2.3,MacIntel,62.5,,,,,,,,,,,2,16,1,7,,,,,,,,,,,,,,,,,,,,,,,,,,,,
66045663fbc92e11eb7e557c,TCN,2024-06-10_15h17.40.642,LearnStrategy,2023.2.3,MacIntel,62.5,,,,,,,,,,,4,09,1,8,,,,,,,,,,,,,,,,,,,,,,,,,,,,
66045663fbc92e11eb7e557c,TCN,2024-06-10_15h17.40.642,LearnStrategy,2023.2.3,MacIntel,62.5,,,,,,,,,,,4,10,2,1,,,,,,,,,,,,,,,,,,,,,,,,,,,,
66045663fbc92e11eb7e557c,TCN,2024-06-10_15h17.40.642,LearnStrategy,2023.2.3,MacIntel,62.5,,,,,,,,,,,2,06,2,2,,,,,,,,,,,,,,,,,,,,,,,,,,,,
66045663fbc92e11eb7e557c,TCN,2024-06-10_15h17.40.642,LearnStrategy,2023.2.3,MacIntel,62.5,,,,,,,,,,,1,02,2,3,,,,,,,,,,,,,,,,,,,,,,,,,,,,
66045663fbc92e11eb7e557c,TCN,2024-06-10_15h17.40.642,LearnStrategy,2023.2.3,MacIntel,62.5,,,,,,,,,,,5,05,2,4,,,,,,,,,,,,,,,,,,,,,,,,,,,,
66045663fbc92e11eb7e557c,TCN,2024-06-10_15h17.40.642,LearnStrategy,2023.2.3,MacIntel,62.5,,,,,,,,,,,5,04,2,5,,,,,,,,,,,,,,,,,,,,,,,,,,,,
66045663fbc92e11eb7e557c,TCN,2024-06-10_15h17.40.642,LearnStrategy,2023.2.3,MacIntel,62.5,,,,,,,,,,,8,06,2,6,,,,,,,,,,,,,,,,,,,,,,,,,,,,
66045663fbc92e11eb7e557c,TCN,2024-06-10_15h17.40.642,LearnStrategy,2023.2.3,MacIntel,62.5,,,,,,,,,,,6,12,2,7,,,,,,,,,,,,,,,,,,,,,,,,,,,,
66045663fbc92e11eb7e557c,TCN,2024-06-10_15h17.40.642,LearnStrategy,2023.2.3,MacIntel,62.5,,,,,,,,,,,3,12,2,8,,,,,,,,,,,,,,,,,,,,,,,,,,,,
66045663fbc92e11eb7e557c,TCN,2024-06-10_15h17.40.642,LearnStrategy,2023.2.3,MacIntel,62.5,,,,,,,,,,,6,10,3,1,,,,,,,,,,,,,,,,,,,,,,,,,,,,
66045663fbc92e11eb7e557c,TCN,2024-06-10_15h17.40.642,LearnStrategy,2023.2.3,MacIntel,62.5,,,,,,,,,,,5,07,3,2,,,,,,,,,,,,,,,,,,,,,,,,,,,,
66045663fbc92e11eb7e557c,TCN,2024-06-10_15h17.40.642,LearnStrategy,2023.2.3,MacIntel,62.5,,,,,,,,,,,2,08,3,3,,,,,,,,,,,,,,,,,,,,,,,,,,,,
66045663fbc92e11eb7e557c,TCN,2024-06-10_15h17.40.642,LearnStrategy,2023.2.3,MacIntel,62.5,,,,,,,,,,,1,14,3,4,,,,,,,,,,,,,,,,,,,,,,,,,,,,
66045663fbc92e11eb7e557c,TCN,2024-06-10_15h17.40.642,LearnStrategy,2023.2.3,MacIntel,62.5,,,,,,,,,,,5,02,3,5,,,,,,,,,,,,,,,,,,,,,,,,,,,,
66045663fbc92e11eb7e557c,TCN,2024-06-10_15h17.40.642,LearnStrategy,2023.2.3,MacIntel,62.5,,,,,,,,,,,4,16,3,6,,,,,,,,,,,,,,,,,,,,,,,,,,,,
66045663fbc92e11eb7e557c,TCN,2024-06-10_15h17.40.642,LearnStrategy,2023.2.3,MacIntel,62.5,,,,,,,,,,,4,12,3,7,,,,,,,,,,,,,,,,,,,,,,,,,,,,
66045663fbc92e11eb7e557c,TCN,2024-06-10_15h17.40.642,LearnStrategy,2023.2.3,MacIntel,62.5,,,,,,,,,,,5,10,3,8,,,,,,,,,,,,,,,,,,,,,,,,,,,,
66045663fbc92e11eb7e557c,TCN,2024-06-10_15h17.40.642,LearnStrategy,2023.2.3,MacIntel,62.5,,,,,,,,,,,2,02,4,1,,,,,,,,,,,,,,,,,,,,,,,,,,,,
66045663fbc92e11eb7e557c,TCN,2024-06-10_15h17.40.642,LearnStrategy,2023.2.3,MacIntel,62.5,,,,,,,,,,,5,09,4,2,,,,,,,,,,,,,,,,,,,,,,,,,,,,
66045663fbc92e11eb7e557c,TCN,2024-06-10_15h17.40.642,LearnStrategy,2023.2.3,MacIntel,62.5,,,,,,,,,,,1,09,4,3,,,,,,,,,,,,,,,,,,,,,,,,,,,,
66045663fbc92e11eb7e557c,TCN,2024-06-10_15h17.40.642,LearnStrategy,2023.2.3,MacIntel,62.5,,,,,,,,,,,7,15,4,4,,,,,,,,,,,,,,,,,,,,,,,,,,,,
66045663fbc92e11eb7e557c,TCN,2024-06-10_15h17.40.642,LearnStrategy,2023.2.3,MacIntel,62.5,,,,,,,,,,,1,10,4,5,,,,,,,,,,,,,,,,,,,,,,,,,,,,
66045663fbc92e11eb7e557c,TCN,2024-06-10_15h17.40.642,LearnStrategy,2023.2.3,MacIntel,62.5,,,,,,,,,,,4,15,4,6,,,,,,,,,,,,,,,,,,,,,,,,,,,,
66045663fbc92e11eb7e557c,TCN,2024-06-10_15h17.40.642,LearnStrategy,2023.2.3,MacIntel,62.5,,,,,,,,,,,6,16,4,7,,,,,,,,,,,,,,,,,,,,,,,,,,,,
66045663fbc92e11eb7e557c,TCN,2024-06-10_15h17.40.642,LearnStrategy,2023.2.3,MacIntel,62.5,,,,,,,,,,,8,16,4,8,,,,,,,,,,,,,,,,,,,,,,,,,,,,
66045663fbc92e11eb7e557c,TCN,2024-06-10_15h17.40.642,LearnStrategy,2023.2.3,MacIntel,62.5,,,,,,,,,,,7,06,5,1,,,,,,,,,,,,,,,,,,,,,,,,,,,,
66045663fbc92e11eb7e557c,TCN,2024-06-10_15h17.40.642,LearnStrategy,2023.2.3,MacIntel,62.5,,,,,,,,,,,7,07,5,2,,,,,,,,,,,,,,,,,,,,,,,,,,,,
66045663fbc92e11eb7e557c,TCN,2024-06-10_15h17.40.642,LearnStrategy,2023.2.3,MacIntel,62.5,,,,,,,,,,,8,05,5,3,,,,,,,,,,,,,,,,,,,,,,,,,,,,
66045663fbc92e11eb7e557c,TCN,2024-06-10_15h17.40.642,LearnStrategy,2023.2.3,MacIntel,62.5,,,,,,,,,,,8,14,5,4,,,,,,,,,,,,,,,,,,,,,,,,,,,,
66045663fbc92e11eb7e557c,TCN,2024-06-10_15h17.40.642,LearnStrategy,2023.2.3,MacIntel,62.5,,,,,,,,,,,6,11,5,5,,,,,,,,,,,,,,,,,,,,,,,,,,,,
66045663fbc92e11eb7e557c,TCN,2024-06-10_15h17.40.642,LearnStrategy,2023.2.3,MacIntel,62.5,,,,,,,,,,,6,06,5,6,,,,,,,,,,,,,,,,,,,,,,,,,,,,
66045663fbc92e11eb7e557c,TCN,2024-06-10_15h17.40.642,LearnStrategy,2023.2.3,MacIntel,62.5,,,,,,,,,,,2,10,5,7,,,,,,,,,,,,,,,,,,,,,,,,,,,,
66045663fbc92e11eb7e557c,TCN,2024-06-10_15h17.40.642,LearnStrategy,2023.2.3,MacIntel,62.5,,,,,,,,,,,2,01,5,8,,,,,,,,,,,,,,,,,,,,,,,,,,,,
66045663fbc92e11eb7e557c,TCN,2024-06-10_15h17.40.642,LearnStrategy,2023.2.3,MacIntel,62.5,,,,,,,,,,,7,16,6,1,,,,,,,,,,,,,,,,,,,,,,,,,,,,
66045663fbc92e11eb7e557c,TCN,2024-06-10_15h17.40.642,LearnStrategy,2023.2.3,MacIntel,62.5,,,,,,,,,,,1,03,6,2,,,,,,,,,,,,,,,,,,,,,,,,,,,,
66045663fbc92e11eb7e557c,TCN,2024-06-10_15h17.40.642,LearnStrategy,2023.2.3,MacIntel,62.5,,,,,,,,,,,7,05,6,3,,,,,,,,,,,,,,,,,,,,,,,,,,,,
66045663fbc92e11eb7e557c,TCN,2024-06-10_15h17.40.642,LearnStrategy,2023.2.3,MacIntel,62.5,,,,,,,,,,,8,03,6,4,,,,,,,,,,,,,,,,,,,,,,,,,,,,
66045663fbc92e11eb7e557c,TCN,2024-06-10_15h17.40.642,LearnStrategy,2023.2.3,MacIntel,62.5,,,,,,,,,,,6,08,6,5,,,,,,,,,,,,,,,,,,,,,,,,,,,,
66045663fbc92e11eb7e557c,TCN,2024-06-10_15h17.40.642,LearnStrategy,2023.2.3,MacIntel,62.5,,,,,,,,,,,3,11,6,6,,,,,,,,,,,,,,,,,,,,,,,,,,,,
66045663fbc92e11eb7e557c,TCN,2024-06-10_15h17.40.642,LearnStrategy,2023.2.3,MacIntel,62.5,,,,,,,,,,,3,09,6,7,,,,,,,,,,,,,,,,,,,,,,,,,,,,
66045663fbc92e11eb7e557c,TCN,2024-06-10_15h17.40.642,LearnStrategy,2023.2.3,MacIntel,62.5,,,,,,,,,,,3,16,6,8,,,,,,,,,,,,,,,,,,,,,,,,,,,,