participant,condition,date,expName,psychopyVersion,OS,frameRate,block,phase,trial,learn_mouse.x,learn_mouse.y,learn_mouse.leftButton,learn_mouse.midButton,learn_mouse.rightButton,learn_mouse.time,learn_mouse.clicked_name,cat,token,row,col,t_select,cat_rec,token_rec,cat_mouse_l.x,cat_mouse_l.y,cat_mouse_l.leftButton,cat_mouse_l.midButton,cat_mouse_l.rightButton,cat_mouse_l.time,cat_mouse_l.clicked_name,resp,t_resp,corr,train_trials.thisRepN,train_trials.thisTrialN,train_trials.thisN,train_trials.thisIndex,train_trials.ran,cat_mouse_t.x,cat_mouse_t.y,cat_mouse_t.leftButton,cat_mouse_t.midButton,cat_mouse_t.rightButton,cat_mouse_t.time,cat_mouse_t.clicked_name,test_trials.thisRepN,test_trials.thisTrialN,test_trials.thisN,test_trials.thisIndex,test_trials.ran,Bonus
66083f910aeb017b4edee86f,SCR,2024-06-24_14h50.12.301,LearnStrategy,2023.2.3,Win32,60.24096386,,,,,,,,,,,,,,,,,,,,,,,,,,,,,,,,,,,,,,,,,,,,,
66083f910aeb017b4edee86f,SCR,2024-06-24_14h50.12.301,LearnStrategy,2023.2.3,Win32,60.24096386,1,1,1,-0.067708333,0.110677083,1,0,0,8.2923,Basalt_08,2,08,4,4,8.292,2,08,-0.115885417,-0.229166667,1,0,0,120.8244,Basalt_rect,2,120.824,1,0,0,0,0,1,,,,,,,,,,,,,
66083f910aeb017b4edee86f,SCR,2024-06-24_14h50.12.301,LearnStrategy,2023.2.3,Win32,60.24096386,1,1,2,-0.5234375,0.2578125,1,0,0,7.8987,Andesite_05,1,05,5,1,7.899,1,03,0.36328125,-0.24609375,1,0,0,4.4522,Gabbro_rect,4,4.452,0,1,0,1,0,1,,,,,,,,,,,,,
66083f910aeb017b4edee86f,SCR,2024-06-24_14h50.12.301,LearnStrategy,2023.2.3,Win32,60.24096386,1,1,3,0.255208333,0.430989583,1,0,0,4.9932,Pegmatite_11,6,11,6,6,4.993,7,06,-0.385416667,-0.41796875,1,0,0,4.2406,Obsidian_rect,5,4.241,0,2,0,2,0,1,,,,,,,,,,,,,
66083f910aeb017b4edee86f,SCR,2024-06-24_14h50.12.301,LearnStrategy,2023.2.3,Win32,60.24096386,1,1,4,0.502604167,-0.265625,1,0,0,2.81,Obsidian_02,5,02,2,8,2.81,1,04,-0.372395833,-0.420572917,1,0,0,3.6691,Obsidian_rect,5,3.669,1,3,0,3,0,1,,,,,,,,,,,,,
66083f910aeb017b4edee86f,SCR,2024-06-24_14h50.12.301,LearnStrategy,2023.2.3,Win32,60.24096386,1,1,5,-0.067708333,-0.092447917,1,0,0,2.4048,Pegmatite_15,6,15,3,4,2.405,5,14,-0.143229167,-0.401041667,1,0,0,13.5004,Pegmatite_rect,6,13.5,1,4,0,4,0,1,,,,,,,,,,,,,
66083f910aeb017b4edee86f,SCR,2024-06-24_14h50.12.301,LearnStrategy,2023.2.3,Win32,60.24096386,1,1,6,-0.375,-0.075520833,1,0,0,2.3314,Obsidian_07,5,07,3,2,2.331,3,16,-0.40234375,-0.385416667,1,0,0,4.3166,Obsidian_rect,5,4.317,1,5,0,5,0,1,,,,,,,,,,,,,
66083f910aeb017b4edee86f,SCR,2024-06-24_14h50.12.301,LearnStrategy,2023.2.3,Win32,60.24096386,1,1,7,0.10546875,-0.384114583,1,0,0,2.7731,Pegmatite_08,6,08,1,5,2.773,5,12,-0.127604167,-0.393229167,1,0,0,6.7698,Pegmatite_rect,6,6.77,1,6,0,6,0,1,,,,,,,,,,,,,
66083f910aeb017b4edee86f,SCR,2024-06-24_14h50.12.301,LearnStrategy,2023.2.3,Win32,60.24096386,1,1,8,0.528645833,-0.389322917,1,0,0,1.5071,Gabbro_11,4,11,1,8,1.507,2,16,0.345052083,-0.235677083,1,0,0,5.8459,Gabbro_rect,4,5.846,1,7,0,7,0,1,,,,,,,,,,,,,
66083f910aeb017b4edee86f,SCR,2024-06-24_14h50.12.301,LearnStrategy,2023.2.3,Win32,60.24096386,1,1,9,-0.55078125,-0.399739583,1,0,0,4.3257,Peridotite_12,7,12,1,1,4.326,4,15,0.106770833,-0.2578125,1,0,0,5.9827,Diorite_rect,3,5.983,0,8,0,8,0,1,,,,,,,,,,,,,
66083f910aeb017b4edee86f,SCR,2024-06-24_14h50.12.301,LearnStrategy,2023.2.3,Win32,60.24096386,1,1,10,0.196614583,0.07421875,1,0,0,5.2,Peridotite_05,7,05,4,6,5.2,7,05,0.084635417,-0.390625,1,0,0,22.8931,Peridotite_rect,7,22.893,1,9,0,9,0,1,,,,,,,,,,,,,
66083f910aeb017b4edee86f,SCR,2024-06-24_14h50.12.301,LearnStrategy,2023.2.3,Win32,60.24096386,1,1,11,-0.510416667,0.1171875,1,0,0,1.7459,Pegmatite_03,6,03,4,1,1.746,6,03,0.161458333,-0.384114583,1,0,0,7.4877,Peridotite_rect,7,7.488,0,10,0,10,0,1,,,,,,,,,,,,,
66083f910aeb017b4edee86f,SCR,2024-06-24_14h50.12.301,LearnStrategy,2023.2.3,Win32,60.24096386,1,1,12,0.265625,-0.390625,1,0,0,1.9402,Gabbro_09,4,09,1,6,1.94,4,09,-0.171875,-0.23828125,1,0,0,23.954,Basalt_rect,2,23.954,0,11,0,11,0,1,,,,,,,,,,,,,
66083f910aeb017b4edee86f,SCR,2024-06-24_14h50.12.301,LearnStrategy,2023.2.3,Win32,60.24096386,1,1,13,0.2578125,0.424479167,1,0,0,1.5208,Pegmatite_11,6,11,6,6,1.521,6,11,-0.05078125,-0.395833333,1,0,0,8.8847,Pegmatite_rect,6,8.885,1,12,0,12,0,1,,,,,,,,,,,,,
66083f910aeb017b4edee86f,SCR,2024-06-24_14h50.12.301,LearnStrategy,2023.2.3,Win32,60.24096386,1,1,14,0.544270833,0.251302083,1,0,0,1.6399,Pumice_09,8,09,5,8,1.64,8,09,0.358072917,-0.381510417,1,0,0,8.3372,Pumice_rect,8,8.337,1,13,0,13,0,1,,,,,,,,,,,,,
66083f910aeb017b4edee86f,SCR,2024-06-24_14h50.12.301,LearnStrategy,2023.2.3,Win32,60.24096386,1,1,15,0.102864583,0.264322917,1,0,0,1.3422,Pumice_13,8,13,5,5,1.342,8,13,0.352864583,-0.37890625,1,0,0,5.4078,Pumice_rect,8,5.408,1,14,0,14,0,1,,,,,,,,,,,,,
66083f910aeb017b4edee86f,SCR,2024-06-24_14h50.12.301,LearnStrategy,2023.2.3,Win32,60.24096386,1,1,16,0.2265625,-0.259114583,1,0,0,1.6504,Diorite_07,3,07,2,6,1.65,3,07,0.19921875,-0.255208333,1,0,0,4.9217,Diorite_rect,3,4.922,1,15,0,15,0,1,,,,,,,,,,,,,
66083f910aeb017b4edee86f,SCR,2024-06-24_14h50.12.301,LearnStrategy,2023.2.3,Win32,60.24096386,1,2,1,,,,,,,,8,05,,,,,,,,,,,,,8,9.278,1,,,,,,0.3203125,-0.4140625,1,0,0,9.2776,Pumice_rect,0,0,0,0,1,
66083f910aeb017b4edee86f,SCR,2024-06-24_14h50.12.301,LearnStrategy,2023.2.3,Win32,60.24096386,1,2,2,,,,,,,,7,04,,,,,,,,,,,,,6,5.16,0,,,,,,-0.096354167,-0.4140625,1,0,0,5.1601,Pegmatite_rect,1,0,1,0,1,
66083f910aeb017b4edee86f,SCR,2024-06-24_14h50.12.301,LearnStrategy,2023.2.3,Win32,60.24096386,1,2,3,,,,,,,,3,14,,,,,,,,,,,,,3,5.873,1,,,,,,0.131510417,-0.244791667,1,0,0,5.8732,Diorite_rect,2,0,2,0,1,
66083f910aeb017b4edee86f,SCR,2024-06-24_14h50.12.301,LearnStrategy,2023.2.3,Win32,60.24096386,1,2,4,,,,,,,,6,13,,,,,,,,,,,,,6,4.907,1,,,,,,-0.092447917,-0.403645833,1,0,0,4.9075,Pegmatite_rect,3,0,3,0,1,
66083f910aeb017b4edee86f,SCR,2024-06-24_14h50.12.301,LearnStrategy,2023.2.3,Win32,60.24096386,1,2,5,,,,,,,,2,12,,,,,,,,,,,,,8,7.08,0,,,,,,0.328125,-0.412760417,1,0,0,7.08,Pumice_rect,4,0,4,0,1,
66083f910aeb017b4edee86f,SCR,2024-06-24_14h50.12.301,LearnStrategy,2023.2.3,Win32,60.24096386,1,2,6,,,,,,,,1,14,,,,,,,,,,,,,6,5.111,0,,,,,,-0.083333333,-0.384114583,1,0,0,5.111,Pegmatite_rect,5,0,5,0,1,
66083f910aeb017b4edee86f,SCR,2024-06-24_14h50.12.301,LearnStrategy,2023.2.3,Win32,60.24096386,1,2,7,,,,,,,,2,06,,,,,,,,,,,,,4,8.059,0,,,,,,0.440104167,-0.259114583,1,0,0,8.059,Gabbro_rect,6,0,6,0,1,
66083f910aeb017b4edee86f,SCR,2024-06-24_14h50.12.301,LearnStrategy,2023.2.3,Win32,60.24096386,1,2,8,,,,,,,,8,08,,,,,,,,,,,,,8,3.739,1,,,,,,0.33203125,-0.388020833,1,0,0,3.7389,Pumice_rect,7,0,7,0,1,
66083f910aeb017b4edee86f,SCR,2024-06-24_14h50.12.301,LearnStrategy,2023.2.3,Win32,60.24096386,1,2,9,,,,,,,,4,14,,,,,,,,,,,,,7,4.968,0,,,,,,0.083333333,-0.40625,1,0,0,4.9685,Peridotite_rect,8,0,8,0,1,
66083f910aeb017b4edee86f,SCR,2024-06-24_14h50.12.301,LearnStrategy,2023.2.3,Win32,60.24096386,1,2,10,,,,,,,,7,16,,,,,,,,,,,,,7,5.832,1,,,,,,0.095052083,-0.4140625,1,0,0,5.8316,Peridotite_rect,9,0,9,0,1,
66083f910aeb017b4edee86f,SCR,2024-06-24_14h50.12.301,LearnStrategy,2023.2.3,Win32,60.24096386,1,2,11,,,,,,,,1,09,,,,,,,,,,,,,8,6.604,0,,,,,,0.325520833,-0.384114583,1,0,0,6.6037,Pumice_rect,10,0,10,0,1,
66083f910aeb017b4edee86f,SCR,2024-06-24_14h50.12.301,LearnStrategy,2023.2.3,Win32,60.24096386,1,2,12,,,,,,,,5,08,,,,,,,,,,,,,5,4.288,1,,,,,,-0.4140625,-0.38671875,1,0,0,4.2882,Obsidian_rect,11,0,11,0,1,
66083f910aeb017b4edee86f,SCR,2024-06-24_14h50.12.301,LearnStrategy,2023.2.3,Win32,60.24096386,1,2,13,,,,,,,,5,10,,,,,,,,,,,,,5,2.796,1,,,,,,-0.348958333,-0.397135417,1,0,0,2.7957,Obsidian_rect,12,0,12,0,1,
66083f910aeb017b4edee86f,SCR,2024-06-24_14h50.12.301,LearnStrategy,2023.2.3,Win32,60.24096386,1,2,14,,,,,,,,3,02,,,,,,,,,,,,,3,9.803,1,,,,,,0.16796875,-0.26171875,1,0,0,9.8028,Diorite_rect,13,0,13,0,1,
66083f910aeb017b4edee86f,SCR,2024-06-24_14h50.12.301,LearnStrategy,2023.2.3,Win32,60.24096386,1,2,15,,,,,,,,4,01,,,,,,,,,,,,,3,7.45,0,,,,,,0.147135417,-0.256510417,1,0,0,7.4504,Diorite_rect,14,0,14,0,1,
66083f910aeb017b4edee86f,SCR,2024-06-24_14h50.12.301,LearnStrategy,2023.2.3,Win32,60.24096386,1,2,16,,,,,,,,6,07,,,,,,,,,,,,,6,4.351,1,,,,,,-0.111979167,-0.395833333,1,0,0,4.3506,Pegmatite_rect,15,0,15,0,1,
66083f910aeb017b4edee86f,SCR,2024-06-24_14h50.12.301,LearnStrategy,2023.2.3,Win32,60.24096386,2,1,1,0.071614583,0.25,1,0,0,8.7799,Pumice_13,8,13,5,5,8.78,8,13,0.319010417,-0.393229167,1,0,0,2.1511,Pumice_rect,8,2.151,1,0,0,0,0,1,,,,,,,,,,,,,
66083f910aeb017b4edee86f,SCR,2024-06-24_14h50.12.301,LearnStrategy,2023.2.3,Win32,60.24096386,2,1,2,0.234375,0.104166667,1,0,0,0.9685,Peridotite_05,7,05,4,6,0.969,7,05,0.14453125,-0.25390625,1,0,0,2.7909,Diorite_rect,3,2.791,0,1,0,1,0,1,,,,,,,,,,,,,
66083f910aeb017b4edee86f,SCR,2024-06-24_14h50.12.301,LearnStrategy,2023.2.3,Win32,60.24096386,2,1,3,0.096354167,0.078125,1,0,0,1.0305,Gabbro_08,4,08,4,5,1.031,4,08,-0.154947917,-0.255208333,1,0,0,1.3295,Basalt_rect,2,1.329,0,2,0,2,0,1,,,,,,,,,,,,,
66083f910aeb017b4edee86f,SCR,2024-06-24_14h50.12.301,LearnStrategy,2023.2.3,Win32,60.24096386,2,1,4,0.061197917,-0.092447917,1,0,0,0.7502,Andesite_01,1,01,3,5,0.75,1,01,-0.162760417,-0.41015625,1,0,0,1.262,Pegmatite_rect,6,1.262,0,3,0,3,0,1,,,,,,,,,,,,,
66083f910aeb017b4edee86f,SCR,2024-06-24_14h50.12.301,LearnStrategy,2023.2.3,Win32,60.24096386,2,1,5,-0.251302083,0.233072917,1,0,0,1.2865,Pegmatite_16,6,16,5,3,1.287,6,16,-0.315104167,-0.37890625,1,0,0,2.2819,Obsidian_rect,5,2.282,0,4,0,4,0,1,,,,,,,,,,,,,
66083f910aeb017b4edee86f,SCR,2024-06-24_14h50.12.301,LearnStrategy,2023.2.3,Win32,60.24096386,2,1,6,-0.369791667,0.235677083,1,0,0,1.5302,Andesite_04,1,04,5,2,1.53,1,04,-0.131510417,-0.235677083,1,0,0,3.8918,Basalt_rect,2,3.892,0,5,0,5,0,1,,,,,,,,,,,,,
66083f910aeb017b4edee86f,SCR,2024-06-24_14h50.12.301,LearnStrategy,2023.2.3,Win32,60.24096386,2,1,7,-0.268229167,-0.108072917,1,0,0,0.973,Gabbro_15,4,15,3,3,0.973,4,15,0.321614583,-0.234375,1,0,0,1.9089,Gabbro_rect,4,1.909,1,6,0,6,0,1,,,,,,,,,,,,,
66083f910aeb017b4edee86f,SCR,2024-06-24_14h50.12.301,LearnStrategy,2023.2.3,Win32,60.24096386,2,1,8,-0.5,-0.26171875,1,0,0,1.3906,Basalt_01,2,01,2,1,1.391,2,01,0.109375,-0.265625,1,0,0,13.2744,Diorite_rect,3,13.274,0,7,0,7,0,1,,,,,,,,,,,,,
66083f910aeb017b4edee86f,SCR,2024-06-24_14h50.12.301,LearnStrategy,2023.2.3,Win32,60.24096386,2,1,9,0.212239583,-0.06640625,1,0,0,1.7024,Gabbro_03,4,03,3,6,1.702,4,03,0.149739583,-0.234375,1,0,0,1.5741,Diorite_rect,3,1.574,0,8,0,8,0,1,,,,,,,,,,,,,
66083f910aeb017b4edee86f,SCR,2024-06-24_14h50.12.301,LearnStrategy,2023.2.3,Win32,60.24096386,2,1,10,0.053385417,-0.08984375,1,0,0,0.6745,Andesite_01,1,01,3,5,0.674,1,01,0.08203125,-0.26953125,1,0,0,0.7171,Diorite_rect,3,0.717,0,9,0,9,0,1,,,,,,,,,,,,,
66083f910aeb017b4edee86f,SCR,2024-06-24_14h50.12.301,LearnStrategy,2023.2.3,Win32,60.24096386,2,1,11,-0.0546875,0.071614583,1,0,0,1.1296,Basalt_08,2,08,4,4,1.13,2,08,-0.059895833,-0.251302083,1,0,0,0.8112,Basalt_rect,2,0.811,1,10,0,10,0,1,,,,,,,,,,,,,
66083f910aeb017b4edee86f,SCR,2024-06-24_14h50.12.301,LearnStrategy,2023.2.3,Win32,60.24096386,2,1,12,-0.236979167,0.098958333,1,0,0,1.1849,Andesite_07,1,07,4,3,1.185,1,07,-0.143229167,-0.240885417,1,0,0,0.9203,Basalt_rect,2,0.92,0,11,0,11,0,1,,,,,,,,,,,,,
66083f910aeb017b4edee86f,SCR,2024-06-24_14h50.12.301,LearnStrategy,2023.2.3,Win32,60.24096386,2,1,13,0.354166667,0.236979167,1,0,0,1.187,Basalt_11,2,11,5,7,1.187,2,11,0.17578125,-0.25390625,1,0,0,1.3022,Diorite_rect,3,1.302,0,12,0,12,0,1,,,,,,,,,,,,,
66083f910aeb017b4edee86f,SCR,2024-06-24_14h50.12.301,LearnStrategy,2023.2.3,Win32,60.24096386,2,1,14,0.182291667,0.0625,1,0,0,1.0074,Peridotite_05,7,05,4,6,1.007,7,05,0.186197917,-0.384114583,1,0,0,0.9868,Peridotite_rect,7,0.987,1,13,0,13,0,1,,,,,,,,,,,,,
66083f910aeb017b4edee86f,SCR,2024-06-24_14h50.12.301,LearnStrategy,2023.2.3,Win32,60.24096386,2,1,15,-0.364583333,0.412760417,1,0,0,2.4357,Diorite_12,3,12,6,2,2.436,3,12,-0.3828125,-0.235677083,1,0,0,1.3299,Andesite_rect,1,1.33,0,14,0,14,0,1,,,,,,,,,,,,,
66083f910aeb017b4edee86f,SCR,2024-06-24_14h50.12.301,LearnStrategy,2023.2.3,Win32,60.24096386,2,1,16,0.212239583,-0.423177083,1,0,0,1.3594,Gabbro_09,4,09,1,6,1.359,4,09,0.072916667,-0.26171875,1,0,0,0.6847,Diorite_rect,3,0.685,0,15,0,15,0,1,,,,,,,,,,,,,
66083f910aeb017b4edee86f,SCR,2024-06-24_14h50.12.301,LearnStrategy,2023.2.3,Win32,60.24096386,2,2,1,,,,,,,,5,04,,,,,,,,,,,,,5,4.024,1,,,,,,-0.368489583,-0.41796875,1,0,0,4.0236,Obsidian_rect,0,0,0,0,1,
66083f910aeb017b4edee86f,SCR,2024-06-24_14h50.12.301,LearnStrategy,2023.2.3,Win32,60.24096386,2,2,2,,,,,,,,4,05,,,,,,,,,,,,,7,12.409,0,,,,,,0.170572917,-0.37890625,1,0,0,12.4089,Peridotite_rect,1,0,1,0,1,
66083f910aeb017b4edee86f,SCR,2024-06-24_14h50.12.301,LearnStrategy,2023.2.3,Win32,60.24096386,2,2,3,,,,,,,,3,06,,,,,,,,,,,,,3,8.617,1,,,,,,0.102864583,-0.259114583,1,0,0,8.6173,Diorite_rect,2,0,2,0,1,
66083f910aeb017b4edee86f,SCR,2024-06-24_14h50.12.301,LearnStrategy,2023.2.3,Win32,60.24096386,2,2,4,,,,,,,,7,14,,,,,,,,,,,,,6,9.029,0,,,,,,-0.153645833,-0.407552083,1,0,0,9.0285,Pegmatite_rect,3,0,3,0,1,
66083f910aeb017b4edee86f,SCR,2024-06-24_14h50.12.301,LearnStrategy,2023.2.3,Win32,60.24096386,2,2,5,,,,,,,,6,09,,,,,,,,,,,,,6,6.647,1,,,,,,-0.17578125,-0.416666667,1,0,0,6.6467,Pegmatite_rect,4,0,4,0,1,
66083f910aeb017b4edee86f,SCR,2024-06-24_14h50.12.301,LearnStrategy,2023.2.3,Win32,60.24096386,2,2,6,,,,,,,,6,05,,,,,,,,,,,,,5,5.147,0,,,,,,-0.37890625,-0.41015625,1,0,0,5.1472,Obsidian_rect,5,0,5,0,1,
66083f910aeb017b4edee86f,SCR,2024-06-24_14h50.12.301,LearnStrategy,2023.2.3,Win32,60.24096386,2,2,7,,,,,,,,3,10,,,,,,,,,,,,,1,6.515,0,,,,,,-0.438802083,-0.236979167,1,0,0,6.5154,Andesite_rect,6,0,6,0,1,
66083f910aeb017b4edee86f,SCR,2024-06-24_14h50.12.301,LearnStrategy,2023.2.3,Win32,60.24096386,2,2,8,,,,,,,,1,16,,,,,,,,,,,,,4,7.235,0,,,,,,0.348958333,-0.240885417,1,0,0,7.235,Gabbro_rect,7,0,7,0,1,
66083f910aeb017b4edee86f,SCR,2024-06-24_14h50.12.301,LearnStrategy,2023.2.3,Win32,60.24096386,2,2,9,,,,,,,,1,06,,,,,,,,,,,,,4,3.333,0,,,,,,0.36328125,-0.259114583,1,0,0,3.3327,Gabbro_rect,8,0,8,0,1,
66083f910aeb017b4edee86f,SCR,2024-06-24_14h50.12.301,LearnStrategy,2023.2.3,Win32,60.24096386,2,2,10,,,,,,,,4,13,,,,,,,,,,,,,6,19.125,0,,,,,,-0.033854167,-0.408854167,1,0,0,19.1253,Pegmatite_rect,9,0,9,0,1,
66083f910aeb017b4edee86f,SCR,2024-06-24_14h50.12.301,LearnStrategy,2023.2.3,Win32,60.24096386,2,2,11,,,,,,,,2,02,,,,,,,,,,,,,4,7.131,0,,,,,,0.37890625,-0.2578125,1,0,0,7.1306,Gabbro_rect,10,0,10,0,1,
66083f910aeb017b4edee86f,SCR,2024-06-24_14h50.12.301,LearnStrategy,2023.2.3,Win32,60.24096386,2,2,12,,,,,,,,7,10,,,,,,,,,,,,,7,10.995,1,,,,,,0.15625,-0.404947917,1,0,0,10.9953,Peridotite_rect,11,0,11,0,1,
66083f910aeb017b4edee86f,SCR,2024-06-24_14h50.12.301,LearnStrategy,2023.2.3,Win32,60.24096386,2,2,13,,,,,,,,8,16,,,,,,,,,,,,,8,4.778,1,,,,,,0.348958333,-0.411458333,1,0,0,4.7782,Pumice_rect,12,0,12,0,1,
66083f910aeb017b4edee86f,SCR,2024-06-24_14h50.12.301,LearnStrategy,2023.2.3,Win32,60.24096386,2,2,14,,,,,,,,5,06,,,,,,,,,,,,,5,2.836,1,,,,,,-0.294270833,-0.37890625,1,0,0,2.8361,Obsidian_rect,13,0,13,0,1,
66083f910aeb017b4edee86f,SCR,2024-06-24_14h50.12.301,LearnStrategy,2023.2.3,Win32,60.24096386,2,2,15,,,,,,,,8,10,,,,,,,,,,,,,8,4.988,1,,,,,,0.3359375,-0.388020833,1,0,0,4.9883,Pumice_rect,14,0,14,0,1,
66083f910aeb017b4edee86f,SCR,2024-06-24_14h50.12.301,LearnStrategy,2023.2.3,Win32,60.24096386,2,2,16,,,,,,,,2,10,,,,,,,,,,,,,2,13.449,1,,,,,,-0.158854167,-0.240885417,1,0,0,13.4495,Basalt_rect,15,0,15,0,1,
66083f910aeb017b4edee86f,SCR,2024-06-24_14h50.12.301,LearnStrategy,2023.2.3,Win32,60.24096386,3,1,1,0.529947917,0.266927083,1,0,0,1.8087,Pumice_09,8,09,5,8,1.809,8,09,0.399739583,-0.403645833,1,0,0,1.6655,Pumice_rect,8,1.666,1,0,0,0,0,1,,,,,,,,,,,,,
66083f910aeb017b4edee86f,SCR,2024-06-24_14h50.12.301,LearnStrategy,2023.2.3,Win32,60.24096386,3,1,2,-0.26953125,-0.0625,1,0,0,0.9768,Gabbro_15,4,15,3,3,0.977,4,15,-0.1640625,-0.23046875,1,0,0,0.9138,Basalt_rect,2,0.914,0,1,0,1,0,1,,,,,,,,,,,,,
66083f910aeb017b4edee86f,SCR,2024-06-24_14h50.12.301,LearnStrategy,2023.2.3,Win32,60.24096386,3,1,3,0.0703125,-0.063802083,1,0,0,1.6926,Andesite_01,1,01,3,5,1.693,4,11,0.095052083,-0.26171875,1,0,0,1.1452,Diorite_rect,3,1.145,0,2,0,2,0,1,,,,,,,,,,,,,
66083f910aeb017b4edee86f,SCR,2024-06-24_14h50.12.301,LearnStrategy,2023.2.3,Win32,60.24096386,3,1,4,-0.048177083,-0.076822917,1,0,0,1.0104,Pegmatite_15,6,15,3,4,1.01,1,01,0.10546875,-0.24609375,1,0,0,0.9132,Diorite_rect,3,0.913,0,3,0,3,0,1,,,,,,,,,,,,,
66083f910aeb017b4edee86f,SCR,2024-06-24_14h50.12.301,LearnStrategy,2023.2.3,Win32,60.24096386,3,1,5,0.381510417,0.260416667,1,0,0,1.2458,Basalt_11,2,11,5,7,1.246,2,11,0.134114583,-0.263020833,1,0,0,1.3898,Diorite_rect,3,1.39,0,4,0,4,0,1,,,,,,,,,,,,,
66083f910aeb017b4edee86f,SCR,2024-06-24_14h50.12.301,LearnStrategy,2023.2.3,Win32,60.24096386,3,1,6,0.2578125,0.436197917,1,0,0,1.4509,Pegmatite_11,6,11,6,6,1.451,6,11,-0.075520833,-0.421875,1,0,0,1.8754,Pegmatite_rect,6,1.875,1,5,0,5,0,1,,,,,,,,,,,,,
66083f910aeb017b4edee86f,SCR,2024-06-24_14h50.12.301,LearnStrategy,2023.2.3,Win32,60.24096386,3,1,7,0.236979167,0.091145833,1,0,0,1.016,Peridotite_05,7,05,4,6,1.016,7,05,-0.147135417,-0.2578125,1,0,0,0.7744,Basalt_rect,2,0.774,0,6,0,6,0,1,,,,,,,,,,,,,
66083f910aeb017b4edee86f,SCR,2024-06-24_14h50.12.301,LearnStrategy,2023.2.3,Win32,60.24096386,3,1,8,0.180989583,-0.2578125,1,0,0,1.2085,Diorite_07,3,07,2,6,1.208,3,07,-0.067708333,-0.236979167,1,0,0,1.0679,Basalt_rect,2,1.068,0,7,0,7,0,1,,,,,,,,,,,,,
66083f910aeb017b4edee86f,SCR,2024-06-24_14h50.12.301,LearnStrategy,2023.2.3,Win32,60.24096386,3,1,9,-0.401041667,0.255208333,1,0,0,1.4113,Andesite_04,1,04,5,2,1.411,1,04,-0.16015625,-0.243489583,1,0,0,2.1878,Basalt_rect,2,2.188,0,8,0,8,0,1,,,,,,,,,,,,,
66083f910aeb017b4edee86f,SCR,2024-06-24_14h50.12.301,LearnStrategy,2023.2.3,Win32,60.24096386,3,1,10,0.338541667,-0.119791667,1,0,0,1.1692,Obsidian_14,5,14,3,7,1.169,5,14,-0.37890625,-0.3828125,1,0,0,2.0347,Obsidian_rect,5,2.035,1,9,0,9,0,1,,,,,,,,,,,,,
66083f910aeb017b4edee86f,SCR,2024-06-24_14h50.12.301,LearnStrategy,2023.2.3,Win32,60.24096386,3,1,11,0.041666667,-0.255208333,1,0,0,0.8941,Basalt_04,2,04,2,5,0.894,6,16,0.092447917,-0.247395833,1,0,0,0.8218,Diorite_rect,3,0.822,0,10,0,10,0,1,,,,,,,,,,,,,
66083f910aeb017b4edee86f,SCR,2024-06-24_14h50.12.301,LearnStrategy,2023.2.3,Win32,60.24096386,3,1,12,-0.078125,0.055989583,1,0,0,1.1911,Basalt_08,2,08,4,4,1.191,2,08,-0.12890625,-0.239583333,1,0,0,0.7962,Basalt_rect,2,0.796,1,11,0,11,0,1,,,,,,,,,,,,,
66083f910aeb017b4edee86f,SCR,2024-06-24_14h50.12.301,LearnStrategy,2023.2.3,Win32,60.24096386,3,1,13,-0.048177083,-0.276041667,1,0,0,1.3108,Peridotite_13,7,13,2,4,1.311,7,13,-0.096354167,-0.231770833,1,0,0,0.9049,Basalt_rect,2,0.905,0,12,0,12,0,1,,,,,,,,,,,,,
66083f910aeb017b4edee86f,SCR,2024-06-24_14h50.12.301,LearnStrategy,2023.2.3,Win32,60.24096386,3,1,14,-0.28125,-0.075520833,1,0,0,0.9336,Gabbro_15,4,15,3,3,0.934,4,15,-0.209635417,-0.268229167,1,0,0,0.7034,Basalt_rect,2,0.703,0,13,0,13,0,1,,,,,,,,,,,,,
66083f910aeb017b4edee86f,SCR,2024-06-24_14h50.12.301,LearnStrategy,2023.2.3,Win32,60.24096386,3,1,15,-0.498697917,0.286458333,1,0,0,1.7922,Andesite_05,1,05,5,1,1.792,1,05,-0.3828125,-0.248697917,1,0,0,2.0509,Andesite_rect,1,2.051,1,14,0,14,0,1,,,,,,,,,,,,,
66083f910aeb017b4edee86f,SCR,2024-06-24_14h50.12.301,LearnStrategy,2023.2.3,Win32,60.24096386,3,1,16,-0.04296875,-0.450520833,1,0,0,1.2875,Gabbro_16,4,16,1,4,1.288,4,16,-0.153645833,-0.260416667,1,0,0,1.0391,Basalt_rect,2,1.039,0,15,0,15,0,1,,,,,,,,,,,,,
66083f910aeb017b4edee86f,SCR,2024-06-24_14h50.12.301,LearnStrategy,2023.2.3,Win32,60.24096386,3,2,1,,,,,,,,3,09,,,,,,,,,,,,,6,10.86,0,,,,,,-0.100260417,-0.389322917,1,0,0,10.8596,Pegmatite_rect,0,0,0,0,1,
66083f910aeb017b4edee86f,SCR,2024-06-24_14h50.12.301,LearnStrategy,2023.2.3,Win32,60.24096386,3,2,2,,,,,,,,3,13,,,,,,,,,,,,,6,1.528,0,,,,,,-0.127604167,-0.41015625,1,0,0,1.5283,Pegmatite_rect,1,0,1,0,1,
66083f910aeb017b4edee86f,SCR,2024-06-24_14h50.12.301,LearnStrategy,2023.2.3,Win32,60.24096386,3,2,3,,,,,,,,8,15,,,,,,,,,,,,,8,1.986,1,,,,,,0.3515625,-0.419270833,1,0,0,1.9856,Pumice_rect,2,0,2,0,1,
66083f910aeb017b4edee86f,SCR,2024-06-24_14h50.12.301,LearnStrategy,2023.2.3,Win32,60.24096386,3,2,4,,,,,,,,5,09,,,,,,,,,,,,,5,2.965,1,,,,,,-0.356770833,-0.385416667,1,0,0,2.9645,Obsidian_rect,3,0,3,0,1,
66083f910aeb017b4edee86f,SCR,2024-06-24_14h50.12.301,LearnStrategy,2023.2.3,Win32,60.24096386,3,2,5,,,,,,,,6,12,,,,,,,,,,,,,6,6.271,1,,,,,,-0.119791667,-0.404947917,1,0,0,6.2709,Pegmatite_rect,4,0,4,0,1,
66083f910aeb017b4edee86f,SCR,2024-06-24_14h50.12.301,LearnStrategy,2023.2.3,Win32,60.24096386,3,2,6,,,,,,,,1,10,,,,,,,,,,,,,8,5.038,0,,,,,,0.40234375,-0.38671875,1,0,0,5.0383,Pumice_rect,5,0,5,0,1,
66083f910aeb017b4edee86f,SCR,2024-06-24_14h50.12.301,LearnStrategy,2023.2.3,Win32,60.24096386,3,2,7,,,,,,,,8,03,,,,,,,,,,,,,8,1.167,1,,,,,,0.385416667,-0.384114583,1,0,0,1.1668,Pumice_rect,6,0,6,0,1,
66083f910aeb017b4edee86f,SCR,2024-06-24_14h50.12.301,LearnStrategy,2023.2.3,Win32,60.24096386,3,2,8,,,,,,,,4,10,,,,,,,,,,,,,4,3.525,1,,,,,,0.3671875,-0.243489583,1,0,0,3.5251,Gabbro_rect,7,0,7,0,1,
66083f910aeb017b4edee86f,SCR,2024-06-24_14h50.12.301,LearnStrategy,2023.2.3,Win32,60.24096386,3,2,9,,,,,,,,7,02,,,,,,,,,,,,,7,4.935,1,,,,,,0.102864583,-0.40625,1,0,0,4.9345,Peridotite_rect,8,0,8,0,1,
66083f910aeb017b4edee86f,SCR,2024-06-24_14h50.12.301,LearnStrategy,2023.2.3,Win32,60.24096386,3,2,10,,,,,,,,2,09,,,,,,,,,,,,,2,10.831,1,,,,,,-0.118489583,-0.243489583,1,0,0,10.8314,Basalt_rect,9,0,9,0,1,
66083f910aeb017b4edee86f,SCR,2024-06-24_14h50.12.301,LearnStrategy,2023.2.3,Win32,60.24096386,3,2,11,,,,,,,,4,12,,,,,,,,,,,,,4,6.463,1,,,,,,0.37890625,-0.252604167,1,0,0,6.4627,Gabbro_rect,10,0,10,0,1,
66083f910aeb017b4edee86f,SCR,2024-06-24_14h50.12.301,LearnStrategy,2023.2.3,Win32,60.24096386,3,2,12,,,,,,,,6,06,,,,,,,,,,,,,6,8.241,1,,,,,,-0.15625,-0.385416667,1,0,0,8.2414,Pegmatite_rect,11,0,11,0,1,
66083f910aeb017b4edee86f,SCR,2024-06-24_14h50.12.301,LearnStrategy,2023.2.3,Win32,60.24096386,3,2,13,,,,,,,,7,08,,,,,,,,,,,,,7,4.008,1,,,,,,0.045572917,-0.421875,1,0,0,4.0082,Peridotite_rect,12,0,12,0,1,
66083f910aeb017b4edee86f,SCR,2024-06-24_14h50.12.301,LearnStrategy,2023.2.3,Win32,60.24096386,3,2,14,,,,,,,,2,14,,,,,,,,,,,,,8,2.488,0,,,,,,0.356770833,-0.391927083,1,0,0,2.488,Pumice_rect,13,0,13,0,1,
66083f910aeb017b4edee86f,SCR,2024-06-24_14h50.12.301,LearnStrategy,2023.2.3,Win32,60.24096386,3,2,15,,,,,,,,1,11,,,,,,,,,,,,,6,4.191,0,,,,,,-0.135416667,-0.416666667,1,0,0,4.1909,Pegmatite_rect,14,0,14,0,1,
66083f910aeb017b4edee86f,SCR,2024-06-24_14h50.12.301,LearnStrategy,2023.2.3,Win32,60.24096386,3,2,16,,,,,,,,5,16,,,,,,,,,,,,,5,2.625,1,,,,,,-0.3515625,-0.397135417,1,0,0,2.6248,Obsidian_rect,15,0,15,0,1,
66083f910aeb017b4edee86f,SCR,2024-06-24_14h50.12.301,LearnStrategy,2023.2.3,Win32,60.24096386,4,1,1,-0.0546875,-0.1484375,1,0,0,1.7833,Pegmatite_15,6,15,3,4,1.783,6,08,-0.098958333,-0.270833333,1,0,0,1.0991,Basalt_rect,2,1.099,0,0,0,0,0,1,,,,,,,,,,,,,
66083f910aeb017b4edee86f,SCR,2024-06-24_14h50.12.301,LearnStrategy,2023.2.3,Win32,60.24096386,4,1,2,0.37890625,0.10546875,1,0,0,1.1081,Peridotite_15,7,15,4,7,1.108,7,15,0.15234375,-0.389322917,1,0,0,2.4145,Peridotite_rect,7,2.415,1,1,0,1,0,1,,,,,,,,,,,,,
66083f910aeb017b4edee86f,SCR,2024-06-24_14h50.12.301,LearnStrategy,2023.2.3,Win32,60.24096386,4,1,3,-0.1875,0.104166667,1,0,0,1.5048,Andesite_07,1,07,4,3,1.505,1,07,-0.346354167,-0.244791667,1,0,0,2.4814,Andesite_rect,1,2.481,1,2,0,2,0,1,,,,,,,,,,,,,
66083f910aeb017b4edee86f,SCR,2024-06-24_14h50.12.301,LearnStrategy,2023.2.3,Win32,60.24096386,4,1,4,-0.2421875,-0.102864583,1,0,0,7.1552,Gabbro_15,4,15,3,3,7.155,4,15,-0.10546875,-0.251302083,1,0,0,1.0533,Basalt_rect,2,1.053,0,3,0,3,0,1,,,,,,,,,,,,,
66083f910aeb017b4edee86f,SCR,2024-06-24_14h50.12.301,LearnStrategy,2023.2.3,Win32,60.24096386,4,1,5,0.088541667,0.088541667,1,0,0,0.7908,Gabbro_08,4,08,4,5,0.791,4,08,0.1015625,-0.25,1,0,0,0.707,Diorite_rect,3,0.707,0,4,0,4,0,1,,,,,,,,,,,,,
66083f910aeb017b4edee86f,SCR,2024-06-24_14h50.12.301,LearnStrategy,2023.2.3,Win32,60.24096386,4,1,6,-0.087239583,-0.065104167,1,0,0,0.6921,Pegmatite_15,6,15,3,4,0.692,2,05,-0.12890625,-0.2421875,1,0,0,1.4683,Basalt_rect,2,1.468,0,5,0,5,0,1,,,,,,,,,,,,,
66083f910aeb017b4edee86f,SCR,2024-06-24_14h50.12.301,LearnStrategy,2023.2.3,Win32,60.24096386,4,1,7,0.376302083,-0.361979167,1,0,0,1.3354,Andesite_02,1,02,1,7,1.335,1,02,0.111979167,-0.248697917,1,0,0,0.869,Diorite_rect,3,0.869,0,6,0,6,0,1,,,,,,,,,,,,,
66083f910aeb017b4edee86f,SCR,2024-06-24_14h50.12.301,LearnStrategy,2023.2.3,Win32,60.24096386,4,1,8,0.048177083,-0.108072917,1,0,0,0.6856,Andesite_01,1,01,3,5,0.686,3,11,-0.138020833,-0.251302083,1,0,0,0.7761,Basalt_rect,2,0.776,0,7,0,7,0,1,,,,,,,,,,,,,
66083f910aeb017b4edee86f,SCR,2024-06-24_14h50.12.301,LearnStrategy,2023.2.3,Win32,60.24096386,4,1,9,-0.384114583,0.40625,1,0,0,1.4617,Diorite_12,3,12,6,2,1.462,3,12,-0.375,-0.393229167,1,0,0,1.0501,Obsidian_rect,5,1.05,0,8,0,8,0,1,,,,,,,,,,,,,
66083f910aeb017b4edee86f,SCR,2024-06-24_14h50.12.301,LearnStrategy,2023.2.3,Win32,60.24096386,4,1,10,-0.510416667,0.2265625,1,0,0,1.3161,Andesite_05,1,05,5,1,1.316,1,05,-0.43359375,-0.23828125,1,0,0,1.4126,Andesite_rect,1,1.413,1,9,0,9,0,1,,,,,,,,,,,,,
66083f910aeb017b4edee86f,SCR,2024-06-24_14h50.12.301,LearnStrategy,2023.2.3,Win32,60.24096386,4,1,11,0.063802083,-0.106770833,1,0,0,0.6361,Andesite_01,1,01,3,5,0.636,1,04,0.04296875,-0.236979167,1,0,0,0.6425,Diorite_rect,3,0.642,0,10,0,10,0,1,,,,,,,,,,,,,
66083f910aeb017b4edee86f,SCR,2024-06-24_14h50.12.301,LearnStrategy,2023.2.3,Win32,60.24096386,4,1,12,0.1328125,-0.25390625,1,0,0,0.688,Basalt_04,2,04,2,5,0.688,8,04,0.139322917,-0.252604167,1,0,0,0.5319,Diorite_rect,3,0.532,0,11,0,11,0,1,,,,,,,,,,,,,
66083f910aeb017b4edee86f,SCR,2024-06-24_14h50.12.301,LearnStrategy,2023.2.3,Win32,60.24096386,4,1,13,0.40625,0.4296875,1,0,0,1.0578,Basalt_16,2,16,6,7,1.058,2,16,-0.0703125,-0.25,1,0,0,0.975,Basalt_rect,2,0.975,1,12,0,12,0,1,,,,,,,,,,,,,
66083f910aeb017b4edee86f,SCR,2024-06-24_14h50.12.301,LearnStrategy,2023.2.3,Win32,60.24096386,4,1,14,-0.2265625,0.24609375,1,0,0,1.1925,Pegmatite_16,6,16,5,3,1.192,6,16,0.15234375,-0.37890625,1,0,0,1.1058,Peridotite_rect,7,1.106,0,13,0,13,0,1,,,,,,,,,,,,,
66083f910aeb017b4edee86f,SCR,2024-06-24_14h50.12.301,LearnStrategy,2023.2.3,Win32,60.24096386,4,1,15,-0.578125,0.424479167,1,0,0,3.9453,Obsidian_05,5,05,6,1,3.945,5,05,-0.380208333,-0.252604167,1,0,0,0.8664,Andesite_rect,1,0.866,0,14,0,14,0,1,,,,,,,,,,,,,
66083f910aeb017b4edee86f,SCR,2024-06-24_14h50.12.301,LearnStrategy,2023.2.3,Win32,60.24096386,4,1,16,0.239583333,-0.25390625,1,0,0,0.9545,Diorite_07,3,07,2,6,0.955,3,07,-0.067708333,-0.38671875,1,0,0,1.0938,Pegmatite_rect,6,1.094,0,15,0,15,0,1,,,,,,,,,,,,,
66083f910aeb017b4edee86f,SCR,2024-06-24_14h50.12.301,LearnStrategy,2023.2.3,Win32,60.24096386,4,2,1,,,,,,,,3,14,,,,,,,,,,,,,3,21.306,1,,,,,,0.119791667,-0.25390625,1,0,0,21.3057,Diorite_rect,0,0,0,0,1,
66083f910aeb017b4edee86f,SCR,2024-06-24_14h50.12.301,LearnStrategy,2023.2.3,Win32,60.24096386,4,2,2,,,,,,,,5,04,,,,,,,,,,,,,5,1.824,1,,,,,,-0.311197917,-0.399739583,1,0,0,1.8241,Obsidian_rect,1,0,1,0,1,
66083f910aeb017b4edee86f,SCR,2024-06-24_14h50.12.301,LearnStrategy,2023.2.3,Win32,60.24096386,4,2,3,,,,,,,,8,03,,,,,,,,,,,,,8,2.207,1,,,,,,0.361979167,-0.384114583,1,0,0,2.2073,Pumice_rect,2,0,2,0,1,
66083f910aeb017b4edee86f,SCR,2024-06-24_14h50.12.301,LearnStrategy,2023.2.3,Win32,60.24096386,4,2,4,,,,,,,,1,10,,,,,,,,,,,,,8,1.337,0,,,,,,0.313802083,-0.389322917,1,0,0,1.3366,Pumice_rect,3,0,3,0,1,
66083f910aeb017b4edee86f,SCR,2024-06-24_14h50.12.301,LearnStrategy,2023.2.3,Win32,60.24096386,4,2,5,,,,,,,,5,06,,,,,,,,,,,,,5,1.404,1,,,,,,-0.420572917,-0.411458333,1,0,0,1.4042,Obsidian_rect,4,0,4,0,1,
66083f910aeb017b4edee86f,SCR,2024-06-24_14h50.12.301,LearnStrategy,2023.2.3,Win32,60.24096386,4,2,6,,,,,,,,7,08,,,,,,,,,,,,,7,5.025,1,,,,,,0.166666667,-0.40625,1,0,0,5.0254,Peridotite_rect,5,0,5,0,1,
66083f910aeb017b4edee86f,SCR,2024-06-24_14h50.12.301,LearnStrategy,2023.2.3,Win32,60.24096386,4,2,7,,,,,,,,6,09,,,,,,,,,,,,,6,5.945,1,,,,,,-0.100260417,-0.41015625,1,0,0,5.9454,Pegmatite_rect,6,0,6,0,1,
66083f910aeb017b4edee86f,SCR,2024-06-24_14h50.12.301,LearnStrategy,2023.2.3,Win32,60.24096386,4,2,8,,,,,,,,2,09,,,,,,,,,,,,,2,5.494,1,,,,,,-0.141927083,-0.265625,1,0,0,5.4938,Basalt_rect,7,0,7,0,1,
66083f910aeb017b4edee86f,SCR,2024-06-24_14h50.12.301,LearnStrategy,2023.2.3,Win32,60.24096386,4,2,9,,,,,,,,8,10,,,,,,,,,,,,,8,1.55,1,,,,,,0.34765625,-0.419270833,1,0,0,1.5503,Pumice_rect,8,0,8,0,1,
66083f910aeb017b4edee86f,SCR,2024-06-24_14h50.12.301,LearnStrategy,2023.2.3,Win32,60.24096386,4,2,10,,,,,,,,7,10,,,,,,,,,,,,,6,1.52,0,,,,,,-0.140625,-0.395833333,1,0,0,1.5197,Pegmatite_rect,9,0,9,0,1,
66083f910aeb017b4edee86f,SCR,2024-06-24_14h50.12.301,LearnStrategy,2023.2.3,Win32,60.24096386,4,2,11,,,,,,,,1,16,,,,,,,,,,,,,3,4.245,0,,,,,,0.197916667,-0.248697917,1,0,0,4.2445,Diorite_rect,10,0,10,0,1,
66083f910aeb017b4edee86f,SCR,2024-06-24_14h50.12.301,LearnStrategy,2023.2.3,Win32,60.24096386,4,2,12,,,,,,,,3,13,,,,,,,,,,,,,3,4.512,1,,,,,,0.15234375,-0.24609375,1,0,0,4.5117,Diorite_rect,11,0,11,0,1,
66083f910aeb017b4edee86f,SCR,2024-06-24_14h50.12.301,LearnStrategy,2023.2.3,Win32,60.24096386,4,2,13,,,,,,,,4,10,,,,,,,,,,,,,4,5.409,1,,,,,,0.296875,-0.248697917,1,0,0,5.4095,Gabbro_rect,12,0,12,0,1,
66083f910aeb017b4edee86f,SCR,2024-06-24_14h50.12.301,LearnStrategy,2023.2.3,Win32,60.24096386,4,2,14,,,,,,,,6,06,,,,,,,,,,,,,6,4.684,1,,,,,,-0.03515625,-0.41796875,1,0,0,4.6842,Pegmatite_rect,13,0,13,0,1,
66083f910aeb017b4edee86f,SCR,2024-06-24_14h50.12.301,LearnStrategy,2023.2.3,Win32,60.24096386,4,2,15,,,,,,,,4,05,,,,,,,,,,,,,4,3.711,1,,,,,,0.377604167,-0.244791667,1,0,0,3.7111,Gabbro_rect,14,0,14,0,1,
66083f910aeb017b4edee86f,SCR,2024-06-24_14h50.12.301,LearnStrategy,2023.2.3,Win32,60.24096386,4,2,16,,,,,,,,2,10,,,,,,,,,,,,,2,4.872,1,,,,,,-0.143229167,-0.255208333,1,0,0,4.8723,Basalt_rect,15,0,15,0,1,
66083f910aeb017b4edee86f,SCR,2024-06-24_14h50.12.301,LearnStrategy,2023.2.3,Win32,60.24096386,5,1,1,0.109375,-0.048177083,1,0,0,0.7562,Andesite_01,1,01,3,5,0.756,3,12,0.096354167,-0.243489583,1,0,0,0.6746,Diorite_rect,3,0.675,0,0,0,0,0,1,,,,,,,,,,,,,
66083f910aeb017b4edee86f,SCR,2024-06-24_14h50.12.301,LearnStrategy,2023.2.3,Win32,60.24096386,5,1,2,-0.07421875,-0.123697917,1,0,0,0.7126,Pegmatite_15,6,15,3,4,0.713,8,09,-0.078125,-0.270833333,1,0,0,0.4698,Basalt_rect,2,0.47,0,1,0,1,0,1,,,,,,,,,,,,,
66083f910aeb017b4edee86f,SCR,2024-06-24_14h50.12.301,LearnStrategy,2023.2.3,Win32,60.24096386,5,1,3,0.057291667,-0.09765625,1,0,0,0.6931,Andesite_01,1,01,3,5,0.693,1,01,-0.11328125,-0.266927083,1,0,0,1.2618,Basalt_rect,2,1.262,0,2,0,2,0,1,,,,,,,,,,,,,
66083f910aeb017b4edee86f,SCR,2024-06-24_14h50.12.301,LearnStrategy,2023.2.3,Win32,60.24096386,5,1,4,0.05859375,0.127604167,1,0,0,0.9131,Gabbro_08,4,08,4,5,0.913,4,08,0.080729167,-0.239583333,1,0,0,0.7877,Diorite_rect,3,0.788,0,3,0,3,0,1,,,,,,,,,,,,,
66083f910aeb017b4edee86f,SCR,2024-06-24_14h50.12.301,LearnStrategy,2023.2.3,Win32,60.24096386,5,1,5,0.071614583,0.234375,1,0,0,1.688,Pumice_13,8,13,5,5,1.688,7,07,-0.055989583,-0.252604167,1,0,0,0.6714,Basalt_rect,2,0.671,0,4,0,4,0,1,,,,,,,,,,,,,
66083f910aeb017b4edee86f,SCR,2024-06-24_14h50.12.301,LearnStrategy,2023.2.3,Win32,60.24096386,5,1,6,0.26171875,0.263020833,1,0,0,1.1009,Andesite_03,1,03,5,6,1.101,1,04,0.111979167,-0.408854167,1,0,0,0.8258,Peridotite_rect,7,0.826,0,5,0,5,0,1,,,,,,,,,,,,,
66083f910aeb017b4edee86f,SCR,2024-06-24_14h50.12.301,LearnStrategy,2023.2.3,Win32,60.24096386,5,1,7,0.569010417,0.385416667,1,0,0,1.12,Basalt_05,2,05,6,8,1.12,1,07,0.166666667,-0.260416667,1,0,0,1.5236,Diorite_rect,3,1.524,0,6,0,6,0,1,,,,,,,,,,,,,
66083f910aeb017b4edee86f,SCR,2024-06-24_14h50.12.301,LearnStrategy,2023.2.3,Win32,60.24096386,5,1,8,-0.39453125,0.115885417,1,0,0,0.7239,Diorite_15,3,15,4,2,0.724,3,07,-0.365885417,-0.248697917,1,0,0,0.7169,Andesite_rect,1,0.717,0,7,0,7,0,1,,,,,,,,,,,,,
66083f910aeb017b4edee86f,SCR,2024-06-24_14h50.12.301,LearnStrategy,2023.2.3,Win32,60.24096386,5,1,9,-0.389322917,-0.381510417,1,0,0,1.2067,Obsidian_12,5,12,1,2,1.207,2,11,-0.442708333,-0.380208333,1,0,0,0.8778,Obsidian_rect,5,0.878,1,8,0,8,0,1,,,,,,,,,,,,,
66083f910aeb017b4edee86f,SCR,2024-06-24_14h50.12.301,LearnStrategy,2023.2.3,Win32,60.24096386,5,1,10,-0.2109375,-0.407552083,1,0,0,0.7929,Obsidian_11,5,11,1,3,0.793,6,16,-0.35546875,-0.416666667,1,0,0,1.002,Obsidian_rect,5,1.002,1,9,0,9,0,1,,,,,,,,,,,,,
66083f910aeb017b4edee86f,SCR,2024-06-24_14h50.12.301,LearnStrategy,2023.2.3,Win32,60.24096386,5,1,11,-0.05078125,-0.114583333,1,0,0,2.0394,Pegmatite_15,6,15,3,4,2.039,4,16,0.153645833,-0.240885417,1,0,0,0.9841,Diorite_rect,3,0.984,0,10,0,10,0,1,,,,,,,,,,,,,
66083f910aeb017b4edee86f,SCR,2024-06-24_14h50.12.301,LearnStrategy,2023.2.3,Win32,60.24096386,5,1,12,0.098958333,0.143229167,1,0,0,0.7701,Gabbro_08,4,08,4,5,0.77,2,01,-0.091145833,-0.234375,1,0,0,1.4141,Basalt_rect,2,1.414,0,11,0,11,0,1,,,,,,,,,,,,,
66083f910aeb017b4edee86f,SCR,2024-06-24_14h50.12.301,LearnStrategy,2023.2.3,Win32,60.24096386,5,1,13,0.08984375,0.098958333,1,0,0,0.8779,Gabbro_08,4,08,4,5,0.878,1,03,0.342447917,-0.266927083,1,0,0,1.7536,Gabbro_rect,4,1.754,1,12,0,12,0,1,,,,,,,,,,,,,
66083f910aeb017b4edee86f,SCR,2024-06-24_14h50.12.301,LearnStrategy,2023.2.3,Win32,60.24096386,5,1,14,0.247395833,0.122395833,1,0,0,0.8171,Peridotite_05,7,05,4,6,0.817,1,05,0.315104167,-0.235677083,1,0,0,1.068,Gabbro_rect,4,1.068,0,13,0,13,0,1,,,,,,,,,,,,,
66083f910aeb017b4edee86f,SCR,2024-06-24_14h50.12.301,LearnStrategy,2023.2.3,Win32,60.24096386,5,1,15,-0.354166667,0.10546875,1,0,0,1.1783,Diorite_15,3,15,4,2,1.178,5,11,0.125,-0.24609375,1,0,0,1.8489,Diorite_rect,3,1.849,1,14,0,14,0,1,,,,,,,,,,,,,
66083f910aeb017b4edee86f,SCR,2024-06-24_14h50.12.301,LearnStrategy,2023.2.3,Win32,60.24096386,5,1,16,-0.348958333,0.083333333,1,0,0,0.9462,Diorite_15,3,15,4,2,0.946,7,07,0.114583333,-0.26171875,1,0,0,1.3348,Diorite_rect,3,1.335,1,15,0,15,0,1,,,,,,,,,,,,,
66083f910aeb017b4edee86f,SCR,2024-06-24_14h50.12.301,LearnStrategy,2023.2.3,Win32,60.24096386,5,2,1,,,,,,,,2,12,,,,,,,,,,,,,8,2.555,0,,,,,,0.30859375,-0.415364583,1,0,0,2.5553,Pumice_rect,0,0,0,0,1,
66083f910aeb017b4edee86f,SCR,2024-06-24_14h50.12.301,LearnStrategy,2023.2.3,Win32,60.24096386,5,2,2,,,,,,,,3,06,,,,,,,,,,,,,3,6.579,1,,,,,,0.100260417,-0.255208333,1,0,0,6.5791,Diorite_rect,1,0,1,0,1,
66083f910aeb017b4edee86f,SCR,2024-06-24_14h50.12.301,LearnStrategy,2023.2.3,Win32,60.24096386,5,2,3,,,,,,,,1,09,,,,,,,,,,,,,4,6.108,0,,,,,,0.37109375,-0.256510417,1,0,0,6.1083,Gabbro_rect,2,0,2,0,1,
66083f910aeb017b4edee86f,SCR,2024-06-24_14h50.12.301,LearnStrategy,2023.2.3,Win32,60.24096386,5,2,4,,,,,,,,5,08,,,,,,,,,,,,,5,1.879,1,,,,,,-0.326822917,-0.412760417,1,0,0,1.8787,Obsidian_rect,3,0,3,0,1,
66083f910aeb017b4edee86f,SCR,2024-06-24_14h50.12.301,LearnStrategy,2023.2.3,Win32,60.24096386,5,2,5,,,,,,,,5,10,,,,,,,,,,,,,5,4.66,1,,,,,,-0.442708333,-0.40234375,1,0,0,4.66,Obsidian_rect,4,0,4,0,1,
66083f910aeb017b4edee86f,SCR,2024-06-24_14h50.12.301,LearnStrategy,2023.2.3,Win32,60.24096386,5,2,6,,,,,,,,7,14,,,,,,,,,,,,,1,7.497,0,,,,,,-0.397135417,-0.259114583,1,0,0,7.4974,Andesite_rect,5,0,5,0,1,
66083f910aeb017b4edee86f,SCR,2024-06-24_14h50.12.301,LearnStrategy,2023.2.3,Win32,60.24096386,5,2,7,,,,,,,,1,06,,,,,,,,,,,,,1,11.761,1,,,,,,-0.415364583,-0.259114583,1,0,0,11.7609,Andesite_rect,6,0,6,0,1,
66083f910aeb017b4edee86f,SCR,2024-06-24_14h50.12.301,LearnStrategy,2023.2.3,Win32,60.24096386,5,2,8,,,,,,,,6,12,,,,,,,,,,,,,3,14.941,0,,,,,,0.111979167,-0.240885417,1,0,0,14.9406,Diorite_rect,7,0,7,0,1,
66083f910aeb017b4edee86f,SCR,2024-06-24_14h50.12.301,LearnStrategy,2023.2.3,Win32,60.24096386,5,2,9,,,,,,,,4,12,,,,,,,,,,,,,4,3.239,1,,,,,,0.34375,-0.268229167,1,0,0,3.2392,Gabbro_rect,8,0,8,0,1,
66083f910aeb017b4edee86f,SCR,2024-06-24_14h50.12.301,LearnStrategy,2023.2.3,Win32,60.24096386,5,2,10,,,,,,,,8,16,,,,,,,,,,,,,8,1.601,1,,,,,,0.333333333,-0.401041667,1,0,0,1.6006,Pumice_rect,9,0,9,0,1,
66083f910aeb017b4edee86f,SCR,2024-06-24_14h50.12.301,LearnStrategy,2023.2.3,Win32,60.24096386,5,2,11,,,,,,,,2,14,,,,,,,,,,,,,8,1.537,0,,,,,,0.3671875,-0.388020833,1,0,0,1.5373,Pumice_rect,10,0,10,0,1,
66083f910aeb017b4edee86f,SCR,2024-06-24_14h50.12.301,LearnStrategy,2023.2.3,Win32,60.24096386,5,2,12,,,,,,,,6,05,,,,,,,,,,,,,6,5.796,1,,,,,,-0.123697917,-0.399739583,1,0,0,5.796,Pegmatite_rect,11,0,11,0,1,
66083f910aeb017b4edee86f,SCR,2024-06-24_14h50.12.301,LearnStrategy,2023.2.3,Win32,60.24096386,5,2,13,,,,,,,,8,05,,,,,,,,,,,,,8,1.129,1,,,,,,0.321614583,-0.389322917,1,0,0,1.1292,Pumice_rect,12,0,12,0,1,
66083f910aeb017b4edee86f,SCR,2024-06-24_14h50.12.301,LearnStrategy,2023.2.3,Win32,60.24096386,5,2,14,,,,,,,,4,01,,,,,,,,,,,,,4,5.174,1,,,,,,0.34765625,-0.2421875,1,0,0,5.174,Gabbro_rect,13,0,13,0,1,
66083f910aeb017b4edee86f,SCR,2024-06-24_14h50.12.301,LearnStrategy,2023.2.3,Win32,60.24096386,5,2,15,,,,,,,,3,09,,,,,,,,,,,,,3,2.859,1,,,,,,0.147135417,-0.256510417,1,0,0,2.8594,Diorite_rect,14,0,14,0,1,
66083f910aeb017b4edee86f,SCR,2024-06-24_14h50.12.301,LearnStrategy,2023.2.3,Win32,60.24096386,5,2,16,,,,,,,,7,04,,,,,,,,,,,,,7,7.895,1,,,,,,0.15234375,-0.412760417,1,0,0,7.8952,Peridotite_rect,15,0,15,0,1,
66083f910aeb017b4edee86f,SCR,2024-06-24_14h50.12.301,LearnStrategy,2023.2.3,Win32,60.24096386,6,1,1,-0.1171875,0.15234375,1,0,0,1.5731,Basalt_08,2,08,4,4,1.573,8,04,-0.12890625,-0.23828125,1,0,0,1.3251,Basalt_rect,2,1.325,1,0,0,0,0,1,,,,,,,,,,,,,
66083f910aeb017b4edee86f,SCR,2024-06-24_14h50.12.301,LearnStrategy,2023.2.3,Win32,60.24096386,6,1,2,-0.0390625,0.0546875,1,0,0,1.712,Basalt_08,2,08,4,4,1.712,2,11,-0.083333333,-0.26953125,1,0,0,1.5313,Basalt_rect,2,1.531,1,1,0,1,0,1,,,,,,,,,,,,,
66083f910aeb017b4edee86f,SCR,2024-06-24_14h50.12.301,LearnStrategy,2023.2.3,Win32,60.24096386,6,1,3,0.2109375,-0.23828125,1,0,0,1.1553,Diorite_07,3,07,2,6,1.155,2,04,-0.0625,-0.404947917,1,0,0,1.5193,Pegmatite_rect,6,1.519,0,2,0,2,0,1,,,,,,,,,,,,,
66083f910aeb017b4edee86f,SCR,2024-06-24_14h50.12.301,LearnStrategy,2023.2.3,Win32,60.24096386,6,1,4,0.1015625,-0.37109375,1,0,0,3.3946,Pegmatite_08,6,08,1,5,3.395,6,08,0.08984375,-0.244791667,1,0,0,17.505,Diorite_rect,3,17.505,0,3,0,3,0,1,,,,,,,,,,,,,
66083f910aeb017b4edee86f,SCR,2024-06-24_14h50.12.301,LearnStrategy,2023.2.3,Win32,60.24096386,6,1,5,0.106770833,-0.274739583,1,0,0,1.8158,Basalt_04,2,04,2,5,1.816,1,04,-0.154947917,-0.23828125,1,0,0,1.1592,Basalt_rect,2,1.159,1,4,0,4,0,1,,,,,,,,,,,,,
66083f910aeb017b4edee86f,SCR,2024-06-24_14h50.12.301,LearnStrategy,2023.2.3,Win32,60.24096386,6,1,6,0.49609375,-0.39453125,1,0,0,1.3867,Gabbro_11,4,11,1,8,1.387,4,11,-0.376302083,-0.24609375,1,0,0,1.7693,Andesite_rect,1,1.769,0,5,0,5,0,1,,,,,,,,,,,,,
66083f910aeb017b4edee86f,SCR,2024-06-24_14h50.12.301,LearnStrategy,2023.2.3,Win32,60.24096386,6,1,7,-0.408854167,0.274739583,1,0,0,1.3973,Andesite_04,1,04,5,2,1.397,1,04,-0.345052083,-0.239583333,1,0,0,1.2972,Andesite_rect,1,1.297,1,6,0,6,0,1,,,,,,,,,,,,,
66083f910aeb017b4edee86f,SCR,2024-06-24_14h50.12.301,LearnStrategy,2023.2.3,Win32,60.24096386,6,1,8,-0.583333333,0.096354167,1,0,0,1.4093,Pegmatite_03,6,03,4,1,1.409,6,03,-0.444010417,-0.251302083,1,0,0,1.2098,Andesite_rect,1,1.21,0,7,0,7,0,1,,,,,,,,,,,,,
66083f910aeb017b4edee86f,SCR,2024-06-24_14h50.12.301,LearnStrategy,2023.2.3,Win32,60.24096386,6,1,9,-0.270833333,0.140625,1,0,0,1.947,Andesite_07,1,07,4,3,1.947,1,07,0.0390625,-0.248697917,1,0,0,2.865,Diorite_rect,3,2.865,0,8,0,8,0,1,,,,,,,,,,,,,
66083f910aeb017b4edee86f,SCR,2024-06-24_14h50.12.301,LearnStrategy,2023.2.3,Win32,60.24096386,6,1,10,-0.236979167,-0.264322917,1,0,0,1.6143,Pegmatite_10,6,10,2,3,1.614,7,12,-0.360677083,-0.268229167,1,0,0,1.8354,Andesite_rect,1,1.835,0,9,0,9,0,1,,,,,,,,,,,,,
66083f910aeb017b4edee86f,SCR,2024-06-24_14h50.12.301,LearnStrategy,2023.2.3,Win32,60.24096386,6,1,11,-0.186197917,-0.252604167,1,0,0,1.3513,Pegmatite_10,6,10,2,3,1.351,3,16,0.122395833,-0.234375,1,0,0,1.8762,Diorite_rect,3,1.876,0,10,0,10,0,1,,,,,,,,,,,,,
66083f910aeb017b4edee86f,SCR,2024-06-24_14h50.12.301,LearnStrategy,2023.2.3,Win32,60.24096386,6,1,12,-0.08984375,-0.072916667,1,0,0,1.1687,Pegmatite_15,6,15,3,4,1.169,1,07,-0.067708333,-0.264322917,1,0,0,1.8104,Basalt_rect,2,1.81,0,11,0,11,0,1,,,,,,,,,,,,,
66083f910aeb017b4edee86f,SCR,2024-06-24_14h50.12.301,LearnStrategy,2023.2.3,Win32,60.24096386,6,1,13,-0.532552083,-0.102864583,1,0,0,1.9333,Diorite_16,3,16,3,1,1.933,3,16,-0.108072917,-0.244791667,1,0,0,1.0663,Basalt_rect,2,1.066,0,12,0,12,0,1,,,,,,,,,,,,,
66083f910aeb017b4edee86f,SCR,2024-06-24_14h50.12.301,LearnStrategy,2023.2.3,Win32,60.24096386,6,1,14,0.5,0.430989583,1,0,0,1.4593,Basalt_05,2,05,6,8,1.459,2,05,-0.149739583,-0.231770833,1,0,0,1.6299,Basalt_rect,2,1.63,1,13,0,13,0,1,,,,,,,,,,,,,
66083f910aeb017b4edee86f,SCR,2024-06-24_14h50.12.301,LearnStrategy,2023.2.3,Win32,60.24096386,6,1,15,0.234375,0.09375,1,0,0,1.346,Peridotite_05,7,05,4,6,1.346,7,05,0.096354167,-0.25390625,1,0,0,3.3986,Diorite_rect,3,3.399,0,14,0,14,0,1,,,,,,,,,,,,,
66083f910aeb017b4edee86f,SCR,2024-06-24_14h50.12.301,LearnStrategy,2023.2.3,Win32,60.24096386,6,1,16,-0.397135417,-0.384114583,1,0,0,1.2992,Obsidian_12,5,12,1,2,1.299,5,12,-0.463541667,-0.3984375,1,0,0,0.9527,Obsidian_rect,5,0.953,1,15,0,15,0,1,,,,,,,,,,,,,
66083f910aeb017b4edee86f,SCR,2024-06-24_14h50.12.301,LearnStrategy,2023.2.3,Win32,60.24096386,6,2,1,,,,,,,,7,02,,,,,,,,,,,,,7,3.588,1,,,,,,0.080729167,-0.38671875,1,0,0,3.5884,Peridotite_rect,0,0,0,0,1,
66083f910aeb017b4edee86f,SCR,2024-06-24_14h50.12.301,LearnStrategy,2023.2.3,Win32,60.24096386,6,2,2,,,,,,,,2,06,,,,,,,,,,,,,2,1.992,1,,,,,,-0.1484375,-0.243489583,1,0,0,1.992,Basalt_rect,1,0,1,0,1,
66083f910aeb017b4edee86f,SCR,2024-06-24_14h50.12.301,LearnStrategy,2023.2.3,Win32,60.24096386,6,2,3,,,,,,,,6,07,,,,,,,,,,,,,6,7.836,1,,,,,,-0.16796875,-0.41015625,1,0,0,7.8365,Pegmatite_rect,2,0,2,0,1,
66083f910aeb017b4edee86f,SCR,2024-06-24_14h50.12.301,LearnStrategy,2023.2.3,Win32,60.24096386,6,2,4,,,,,,,,8,15,,,,,,,,,,,,,8,1.504,1,,,,,,0.321614583,-0.40625,1,0,0,1.5041,Pumice_rect,3,0,3,0,1,
66083f910aeb017b4edee86f,SCR,2024-06-24_14h50.12.301,LearnStrategy,2023.2.3,Win32,60.24096386,6,2,5,,,,,,,,1,14,,,,,,,,,,,,,3,5.519,0,,,,,,0.139322917,-0.234375,1,0,0,5.5194,Diorite_rect,4,0,4,0,1,
66083f910aeb017b4edee86f,SCR,2024-06-24_14h50.12.301,LearnStrategy,2023.2.3,Win32,60.24096386,6,2,6,,,,,,,,4,13,,,,,,,,,,,,,7,6.181,0,,,,,,0.109375,-0.390625,1,0,0,6.1808,Peridotite_rect,5,0,5,0,1,
66083f910aeb017b4edee86f,SCR,2024-06-24_14h50.12.301,LearnStrategy,2023.2.3,Win32,60.24096386,6,2,7,,,,,,,,3,10,,,,,,,,,,,,,3,5.559,1,,,,,,0.134114583,-0.231770833,1,0,0,5.5587,Diorite_rect,6,0,6,0,1,
66083f910aeb017b4edee86f,SCR,2024-06-24_14h50.12.301,LearnStrategy,2023.2.3,Win32,60.24096386,6,2,8,,,,,,,,5,16,,,,,,,,,,,,,5,2.284,1,,,,,,-0.393229167,-0.416666667,1,0,0,2.2841,Obsidian_rect,7,0,7,0,1,
66083f910aeb017b4edee86f,SCR,2024-06-24_14h50.12.301,LearnStrategy,2023.2.3,Win32,60.24096386,6,2,9,,,,,,,,8,08,,,,,,,,,,,,,8,2.33,1,,,,,,0.37109375,-0.38671875,1,0,0,2.3298,Pumice_rect,8,0,8,0,1,
66083f910aeb017b4edee86f,SCR,2024-06-24_14h50.12.301,LearnStrategy,2023.2.3,Win32,60.24096386,6,2,10,,,,,,,,3,02,,,,,,,,,,,,,3,3.36,1,,,,,,0.182291667,-0.236979167,1,0,0,3.36,Diorite_rect,9,0,9,0,1,
66083f910aeb017b4edee86f,SCR,2024-06-24_14h50.12.301,LearnStrategy,2023.2.3,Win32,60.24096386,6,2,11,,,,,,,,2,02,,,,,,,,,,,,,2,3.495,1,,,,,,-0.165364583,-0.259114583,1,0,0,3.4948,Basalt_rect,10,0,10,0,1,
66083f910aeb017b4edee86f,SCR,2024-06-24_14h50.12.301,LearnStrategy,2023.2.3,Win32,60.24096386,6,2,12,,,,,,,,7,16,,,,,,,,,,,,,7,3.486,1,,,,,,0.046875,-0.393229167,1,0,0,3.4856,Peridotite_rect,11,0,11,0,1,
66083f910aeb017b4edee86f,SCR,2024-06-24_14h50.12.301,LearnStrategy,2023.2.3,Win32,60.24096386,6,2,13,,,,,,,,5,09,,,,,,,,,,,,,5,1.418,1,,,,,,-0.337239583,-0.407552083,1,0,0,1.4183,Obsidian_rect,12,0,12,0,1,
66083f910aeb017b4edee86f,SCR,2024-06-24_14h50.12.301,LearnStrategy,2023.2.3,Win32,60.24096386,6,2,14,,,,,,,,1,11,,,,,,,,,,,,,6,8.286,0,,,,,,-0.161458333,-0.395833333,1,0,0,8.2859,Pegmatite_rect,13,0,13,0,1,
66083f910aeb017b4edee86f,SCR,2024-06-24_14h50.12.301,LearnStrategy,2023.2.3,Win32,60.24096386,6,2,15,,,,,,,,4,14,,,,,,,,,,,,,4,10.244,1,,,,,,0.3671875,-0.236979167,1,0,0,10.2444,Gabbro_rect,14,0,14,0,1,
66083f910aeb017b4edee86f,SCR,2024-06-24_14h50.12.301,LearnStrategy,2023.2.3,Win32,60.24096386,6,2,16,,,,,,,,6,13,,,,,,,,,,,,,6,3.772,1,,,,,,-0.092447917,-0.415364583,1,0,0,3.7723,Pegmatite_rect,15,0,15,0,1,
66083f910aeb017b4edee86f,SCR,2024-06-24_14h50.12.301,LearnStrategy,2023.2.3,Win32,60.24096386,7,1,1,0.1015625,-0.05859375,1,0,0,0.9444,Andesite_01,1,01,3,5,0.944,1,04,0.1796875,-0.252604167,1,0,0,1.7888,Diorite_rect,3,1.789,0,0,0,0,0,1,,,,,,,,,,,,,
66083f910aeb017b4edee86f,SCR,2024-06-24_14h50.12.301,LearnStrategy,2023.2.3,Win32,60.24096386,7,1,2,-0.223958333,-0.087239583,1,0,0,0.6717,Gabbro_15,4,15,3,3,0.672,5,12,-0.087239583,-0.231770833,1,0,0,0.8119,Basalt_rect,2,0.812,0,1,0,1,0,1,,,,,,,,,,,,,
66083f910aeb017b4edee86f,SCR,2024-06-24_14h50.12.301,LearnStrategy,2023.2.3,Win32,60.24096386,7,1,3,-0.515625,0.244791667,1,0,0,0.9626,Andesite_05,1,05,5,1,0.963,1,05,-0.368489583,-0.412760417,1,0,0,0.9185,Obsidian_rect,5,0.918,0,2,0,2,0,1,,,,,,,,,,,,,
66083f910aeb017b4edee86f,SCR,2024-06-24_14h50.12.301,LearnStrategy,2023.2.3,Win32,60.24096386,7,1,4,0.084635417,-0.397135417,1,0,0,1.0333,Pegmatite_08,6,08,1,5,1.033,6,08,0.173177083,-0.399739583,1,0,0,1.0128,Peridotite_rect,7,1.013,0,3,0,3,0,1,,,,,,,,,,,,,
66083f910aeb017b4edee86f,SCR,2024-06-24_14h50.12.301,LearnStrategy,2023.2.3,Win32,60.24096386,7,1,5,0.233072917,-0.115885417,1,0,0,1.2903,Gabbro_03,4,03,3,6,1.29,7,13,0.162760417,-0.26953125,1,0,0,1.0814,Diorite_rect,3,1.081,0,4,0,4,0,1,,,,,,,,,,,,,
66083f910aeb017b4edee86f,SCR,2024-06-24_14h50.12.301,LearnStrategy,2023.2.3,Win32,60.24096386,7,1,6,0.391927083,0.118489583,1,0,0,1.6449,Peridotite_15,7,15,4,7,1.645,7,07,-0.158854167,-0.248697917,1,0,0,0.8706,Basalt_rect,2,0.871,0,5,0,5,0,1,,,,,,,,,,,,,
66083f910aeb017b4edee86f,SCR,2024-06-24_14h50.12.301,LearnStrategy,2023.2.3,Win32,60.24096386,7,1,7,-0.54296875,0.080729167,1,0,0,1.1002,Pegmatite_03,6,03,4,1,1.1,6,03,-0.354166667,-0.255208333,1,0,0,0.8192,Andesite_rect,1,0.819,0,6,0,6,0,1,,,,,,,,,,,,,
66083f910aeb017b4edee86f,SCR,2024-06-24_14h50.12.301,LearnStrategy,2023.2.3,Win32,60.24096386,7,1,8,-0.532552083,0.252604167,1,0,0,1.0656,Andesite_05,1,05,5,1,1.066,1,05,-0.14453125,-0.388020833,1,0,0,1.1765,Pegmatite_rect,6,1.177,0,7,0,7,0,1,,,,,,,,,,,,,
66083f910aeb017b4edee86f,SCR,2024-06-24_14h50.12.301,LearnStrategy,2023.2.3,Win32,60.24096386,7,1,9,0.12890625,-0.287760417,1,0,0,1.3019,Basalt_04,2,04,2,5,1.302,2,04,0.126302083,-0.255208333,1,0,0,0.9566,Diorite_rect,3,0.957,0,8,0,8,0,1,,,,,,,,,,,,,
66083f910aeb017b4edee86f,SCR,2024-06-24_14h50.12.301,LearnStrategy,2023.2.3,Win32,60.24096386,7,1,10,0.10546875,-0.092447917,1,0,0,0.6761,Andesite_01,1,01,3,5,0.676,4,03,0.075520833,-0.23828125,1,0,0,0.6626,Diorite_rect,3,0.663,0,9,0,9,0,1,,,,,,,,,,,,,
66083f910aeb017b4edee86f,SCR,2024-06-24_14h50.12.301,LearnStrategy,2023.2.3,Win32,60.24096386,7,1,11,0.111979167,0.115885417,1,0,0,0.7607,Gabbro_08,4,08,4,5,0.761,8,14,-0.126302083,-0.40234375,1,0,0,0.8216,Pegmatite_rect,6,0.822,0,10,0,10,0,1,,,,,,,,,,,,,
66083f910aeb017b4edee86f,SCR,2024-06-24_14h50.12.301,LearnStrategy,2023.2.3,Win32,60.24096386,7,1,12,-0.36328125,-0.428385417,1,0,0,0.7769,Obsidian_12,5,12,1,2,0.777,4,15,-0.380208333,-0.4140625,1,0,0,0.9922,Obsidian_rect,5,0.992,1,11,0,11,0,1,,,,,,,,,,,,,
66083f910aeb017b4edee86f,SCR,2024-06-24_14h50.12.301,LearnStrategy,2023.2.3,Win32,60.24096386,7,1,13,0.088541667,0.22265625,1,0,0,1.2425,Pumice_13,8,13,5,5,1.242,1,05,0.319010417,-0.4140625,1,0,0,0.7609,Pumice_rect,8,0.761,1,12,0,12,0,1,,,,,,,,,,,,,
66083f910aeb017b4edee86f,SCR,2024-06-24_14h50.12.301,LearnStrategy,2023.2.3,Win32,60.24096386,7,1,14,0.287760417,0.274739583,1,0,0,1.1972,Andesite_03,1,03,5,6,1.197,1,03,0.09375,-0.248697917,1,0,0,1.2273,Diorite_rect,3,1.227,0,13,0,13,0,1,,,,,,,,,,,,,
66083f910aeb017b4edee86f,SCR,2024-06-24_14h50.12.301,LearnStrategy,2023.2.3,Win32,60.24096386,7,1,15,0.075520833,0.096354167,1,0,0,0.6513,Gabbro_08,4,08,4,5,0.651,2,16,0.037760417,-0.248697917,1,0,0,0.5882,Diorite_rect,3,0.588,0,14,0,14,0,1,,,,,,,,,,,,,
66083f910aeb017b4edee86f,SCR,2024-06-24_14h50.12.301,LearnStrategy,2023.2.3,Win32,60.24096386,7,1,16,-0.515625,-0.118489583,1,0,0,1.1953,Diorite_16,3,16,3,1,1.195,3,16,-0.360677083,-0.2578125,1,0,0,0.9314,Andesite_rect,1,0.931,0,15,0,15,0,1,,,,,,,,,,,,,
66083f910aeb017b4edee86f,SCR,2024-06-24_14h50.12.301,LearnStrategy,2023.2.3,Win32,60.24096386,7,2,1,,,,,,,,8,03,,,,,,,,,,,,,8,2.309,1,,,,,,0.377604167,-0.37890625,1,0,0,2.3093,Pumice_rect,0,0,0,0,1,
66083f910aeb017b4edee86f,SCR,2024-06-24_14h50.12.301,LearnStrategy,2023.2.3,Win32,60.24096386,7,2,2,,,,,,,,3,13,,,,,,,,,,,,,3,5.147,1,,,,,,0.087239583,-0.233072917,1,0,0,5.1473,Diorite_rect,1,0,1,0,1,
66083f910aeb017b4edee86f,SCR,2024-06-24_14h50.12.301,LearnStrategy,2023.2.3,Win32,60.24096386,7,2,3,,,,,,,,8,16,,,,,,,,,,,,,8,2.31,1,,,,,,0.401041667,-0.41015625,1,0,0,2.3102,Pumice_rect,2,0,2,0,1,
66083f910aeb017b4edee86f,SCR,2024-06-24_14h50.12.301,LearnStrategy,2023.2.3,Win32,60.24096386,7,2,4,,,,,,,,6,12,,,,,,,,,,,,,6,11.062,1,,,,,,-0.111979167,-0.408854167,1,0,0,11.0619,Pegmatite_rect,3,0,3,0,1,
66083f910aeb017b4edee86f,SCR,2024-06-24_14h50.12.301,LearnStrategy,2023.2.3,Win32,60.24096386,7,2,5,,,,,,,,7,02,,,,,,,,,,,,,7,2.876,1,,,,,,0.084635417,-0.401041667,1,0,0,2.8764,Peridotite_rect,4,0,4,0,1,
66083f910aeb017b4edee86f,SCR,2024-06-24_14h50.12.301,LearnStrategy,2023.2.3,Win32,60.24096386,7,2,6,,,,,,,,7,14,,,,,,,,,,,,,4,4.432,0,,,,,,0.329427083,-0.255208333,1,0,0,4.4318,Gabbro_rect,5,0,5,0,1,
66083f910aeb017b4edee86f,SCR,2024-06-24_14h50.12.301,LearnStrategy,2023.2.3,Win32,60.24096386,7,2,7,,,,,,,,6,06,,,,,,,,,,,,,6,5.774,1,,,,,,-0.13671875,-0.41015625,1,0,0,5.7742,Pegmatite_rect,6,0,6,0,1,
66083f910aeb017b4edee86f,SCR,2024-06-24_14h50.12.301,LearnStrategy,2023.2.3,Win32,60.24096386,7,2,8,,,,,,,,4,05,,,,,,,,,,,,,4,2.338,1,,,,,,0.4140625,-0.259114583,1,0,0,2.3379,Gabbro_rect,7,0,7,0,1,
66083f910aeb017b4edee86f,SCR,2024-06-24_14h50.12.301,LearnStrategy,2023.2.3,Win32,60.24096386,7,2,9,,,,,,,,1,14,,,,,,,,,,,,,6,4.051,0,,,,,,-0.041666667,-0.399739583,1,0,0,4.0505,Pegmatite_rect,8,0,8,0,1,
66083f910aeb017b4edee86f,SCR,2024-06-24_14h50.12.301,LearnStrategy,2023.2.3,Win32,60.24096386,7,2,10,,,,,,,,2,06,,,,,,,,,,,,,2,2.015,1,,,,,,-0.135416667,-0.2578125,1,0,0,2.0146,Basalt_rect,9,0,9,0,1,
66083f910aeb017b4edee86f,SCR,2024-06-24_14h50.12.301,LearnStrategy,2023.2.3,Win32,60.24096386,7,2,11,,,,,,,,3,14,,,,,,,,,,,,,3,2.994,1,,,,,,0.18359375,-0.25,1,0,0,2.9937,Diorite_rect,10,0,10,0,1,
66083f910aeb017b4edee86f,SCR,2024-06-24_14h50.12.301,LearnStrategy,2023.2.3,Win32,60.24096386,7,2,12,,,,,,,,5,08,,,,,,,,,,,,,5,2.374,1,,,,,,-0.388020833,-0.419270833,1,0,0,2.3737,Obsidian_rect,11,0,11,0,1,
66083f910aeb017b4edee86f,SCR,2024-06-24_14h50.12.301,LearnStrategy,2023.2.3,Win32,60.24096386,7,2,13,,,,,,,,5,04,,,,,,,,,,,,,5,1.367,1,,,,,,-0.338541667,-0.40234375,1,0,0,1.3668,Obsidian_rect,12,0,12,0,1,
66083f910aeb017b4edee86f,SCR,2024-06-24_14h50.12.301,LearnStrategy,2023.2.3,Win32,60.24096386,7,2,14,,,,,,,,4,13,,,,,,,,,,,,,3,5.984,0,,,,,,0.161458333,-0.23046875,1,0,0,5.9837,Diorite_rect,13,0,13,0,1,
66083f910aeb017b4edee86f,SCR,2024-06-24_14h50.12.301,LearnStrategy,2023.2.3,Win32,60.24096386,7,2,15,,,,,,,,1,09,,,,,,,,,,,,,4,3.597,0,,,,,,0.395833333,-0.239583333,1,0,0,3.5967,Gabbro_rect,14,0,14,0,1,
66083f910aeb017b4edee86f,SCR,2024-06-24_14h50.12.301,LearnStrategy,2023.2.3,Win32,60.24096386,7,2,16,,,,,,,,2,09,,,,,,,,,,,,,2,3.589,1,,,,,,-0.087239583,-0.235677083,1,0,0,3.5885,Basalt_rect,15,0,15,0,1,
66083f910aeb017b4edee86f,SCR,2024-06-24_14h50.12.301,LearnStrategy,2023.2.3,Win32,60.24096386,8,1,1,-0.553385417,0.1171875,1,0,0,1.6471,Pegmatite_03,6,03,4,1,1.647,6,03,0.143229167,-0.260416667,1,0,0,1.6695,Diorite_rect,3,1.669,0,0,0,0,0,1,,,,,,,,,,,,,
66083f910aeb017b4edee86f,SCR,2024-06-24_14h50.12.301,LearnStrategy,2023.2.3,Win32,60.24096386,8,1,2,-0.080729167,-0.122395833,1,0,0,0.5583,Pegmatite_15,6,15,3,4,0.558,1,07,-0.079427083,-0.255208333,1,0,0,0.4447,Basalt_rect,2,0.445,0,1,0,1,0,1,,,,,,,,,,,,,
66083f910aeb017b4edee86f,SCR,2024-06-24_14h50.12.301,LearnStrategy,2023.2.3,Win32,60.24096386,8,1,3,-0.071614583,-0.10546875,1,0,0,0.7626,Pegmatite_15,6,15,3,4,0.763,1,07,-0.09375,-0.252604167,1,0,0,0.5485,Basalt_rect,2,0.549,0,2,0,2,0,1,,,,,,,,,,,,,
66083f910aeb017b4edee86f,SCR,2024-06-24_14h50.12.301,LearnStrategy,2023.2.3,Win32,60.24096386,8,1,4,0.251302083,0.10546875,1,0,0,0.837,Peridotite_05,7,05,4,6,0.837,7,05,0.052083333,-0.248697917,1,0,0,0.6492,Diorite_rect,3,0.649,0,3,0,3,0,1,,,,,,,,,,,,,
66083f910aeb017b4edee86f,SCR,2024-06-24_14h50.12.301,LearnStrategy,2023.2.3,Win32,60.24096386,8,1,5,-0.0703125,0.100260417,1,0,0,0.9754,Basalt_08,2,08,4,4,0.975,1,04,-0.131510417,-0.270833333,1,0,0,1.059,Basalt_rect,2,1.059,1,4,0,4,0,1,,,,,,,,,,,,,
66083f910aeb017b4edee86f,SCR,2024-06-24_14h50.12.301,LearnStrategy,2023.2.3,Win32,60.24096386,8,1,6,-0.506510417,0.397135417,1,0,0,1.3,Obsidian_05,5,05,6,1,1.3,5,05,-0.37109375,-0.4140625,1,0,0,1.8519,Obsidian_rect,5,1.852,1,5,0,5,0,1,,,,,,,,,,,,,
66083f910aeb017b4edee86f,SCR,2024-06-24_14h50.12.301,LearnStrategy,2023.2.3,Win32,60.24096386,8,1,7,0.20703125,-0.240885417,1,0,0,1.511,Diorite_07,3,07,2,6,1.511,4,11,0.178385417,-0.25,1,0,0,0.7009,Diorite_rect,3,0.701,1,6,0,6,0,1,,,,,,,,,,,,,
66083f910aeb017b4edee86f,SCR,2024-06-24_14h50.12.301,LearnStrategy,2023.2.3,Win32,60.24096386,8,1,8,0.266927083,-0.108072917,1,0,0,0.8306,Gabbro_03,4,03,3,6,0.831,4,03,0.438802083,-0.264322917,1,0,0,2.7011,Gabbro_rect,4,2.701,1,7,0,7,0,1,,,,,,,,,,,,,
66083f910aeb017b4edee86f,SCR,2024-06-24_14h50.12.301,LearnStrategy,2023.2.3,Win32,60.24096386,8,1,9,-0.2265625,-0.102864583,1,0,0,1.043,Gabbro_15,4,15,3,3,1.043,4,15,0.17578125,-0.26953125,1,0,0,1.9256,Diorite_rect,3,1.926,0,8,0,8,0,1,,,,,,,,,,,,,
66083f910aeb017b4edee86f,SCR,2024-06-24_14h50.12.301,LearnStrategy,2023.2.3,Win32,60.24096386,8,1,10,0.423177083,-0.407552083,1,0,0,1.8375,Andesite_02,1,02,1,7,1.838,1,02,0.421875,-0.421875,1,0,0,0.391,Pumice_rect,8,0.391,0,9,0,9,0,1,,,,,,,,,,,,,
66083f910aeb017b4edee86f,SCR,2024-06-24_14h50.12.301,LearnStrategy,2023.2.3,Win32,60.24096386,8,1,11,0.236979167,-0.268229167,1,0,0,0.9435,Diorite_07,3,07,2,6,0.943,3,07,0.166666667,-0.251302083,1,0,0,0.6006,Diorite_rect,3,0.601,1,10,0,10,0,1,,,,,,,,,,,,,
66083f910aeb017b4edee86f,SCR,2024-06-24_14h50.12.301,LearnStrategy,2023.2.3,Win32,60.24096386,8,1,12,0.5625,0.442708333,1,0,0,1.1251,Basalt_05,2,05,6,8,1.125,2,05,-0.143229167,-0.251302083,1,0,0,1.7274,Basalt_rect,2,1.727,1,11,0,11,0,1,,,,,,,,,,,,,
66083f910aeb017b4edee86f,SCR,2024-06-24_14h50.12.301,LearnStrategy,2023.2.3,Win32,60.24096386,8,1,13,-0.065104167,-0.075520833,1,0,0,0.7977,Pegmatite_15,6,15,3,4,0.798,8,09,-0.104166667,-0.235677083,1,0,0,0.4402,Basalt_rect,2,0.44,0,12,0,12,0,1,,,,,,,,,,,,,
66083f910aeb017b4edee86f,SCR,2024-06-24_14h50.12.301,LearnStrategy,2023.2.3,Win32,60.24096386,8,1,14,-0.385416667,-0.088541667,1,0,0,1.058,Obsidian_07,5,07,3,2,1.058,1,05,-0.134114583,-0.243489583,1,0,0,1.1151,Basalt_rect,2,1.115,0,13,0,13,0,1,,,,,,,,,,,,,
66083f910aeb017b4edee86f,SCR,2024-06-24_14h50.12.301,LearnStrategy,2023.2.3,Win32,60.24096386,8,1,15,-0.04296875,-0.111979167,1,0,0,0.5581,Pegmatite_15,6,15,3,4,0.558,7,07,-0.118489583,-0.39453125,1,0,0,1.5429,Pegmatite_rect,6,1.543,1,14,0,14,0,1,,,,,,,,,,,,,
66083f910aeb017b4edee86f,SCR,2024-06-24_14h50.12.301,LearnStrategy,2023.2.3,Win32,60.24096386,8,1,16,-0.083333333,-0.235677083,1,0,0,0.9064,Peridotite_13,7,13,2,4,0.906,2,08,0.108072917,-0.397135417,1,0,0,1.0583,Peridotite_rect,7,1.058,1,15,0,15,0,1,,,,,,,,,,,,,
66083f910aeb017b4edee86f,SCR,2024-06-24_14h50.12.301,LearnStrategy,2023.2.3,Win32,60.24096386,8,2,1,,,,,,,,3,10,,,,,,,,,,,,,3,3.263,1,,,,,,0.08203125,-0.266927083,1,0,0,3.2627,Diorite_rect,0,0,0,0,1,
66083f910aeb017b4edee86f,SCR,2024-06-24_14h50.12.301,LearnStrategy,2023.2.3,Win32,60.24096386,8,2,2,,,,,,,,1,06,,,,,,,,,,,,,3,2.868,0,,,,,,0.126302083,-0.24609375,1,0,0,2.8677,Diorite_rect,1,0,1,0,1,
66083f910aeb017b4edee86f,SCR,2024-06-24_14h50.12.301,LearnStrategy,2023.2.3,Win32,60.24096386,8,2,3,,,,,,,,2,10,,,,,,,,,,,,,2,2.716,1,,,,,,-0.147135417,-0.236979167,1,0,0,2.7158,Basalt_rect,2,0,2,0,1,
66083f910aeb017b4edee86f,SCR,2024-06-24_14h50.12.301,LearnStrategy,2023.2.3,Win32,60.24096386,8,2,4,,,,,,,,6,07,,,,,,,,,,,,,6,8.234,1,,,,,,-0.15625,-0.415364583,1,0,0,8.2337,Pegmatite_rect,3,0,3,0,1,
66083f910aeb017b4edee86f,SCR,2024-06-24_14h50.12.301,LearnStrategy,2023.2.3,Win32,60.24096386,8,2,5,,,,,,,,4,10,,,,,,,,,,,,,4,3.651,1,,,,,,0.397135417,-0.239583333,1,0,0,3.6509,Gabbro_rect,4,0,4,0,1,
66083f910aeb017b4edee86f,SCR,2024-06-24_14h50.12.301,LearnStrategy,2023.2.3,Win32,60.24096386,8,2,6,,,,,,,,8,05,,,,,,,,,,,,,8,1.269,1,,,,,,0.303385417,-0.381510417,1,0,0,1.2695,Pumice_rect,5,0,5,0,1,
66083f910aeb017b4edee86f,SCR,2024-06-24_14h50.12.301,LearnStrategy,2023.2.3,Win32,60.24096386,8,2,7,,,,,,,,1,11,,,,,,,,,,,,,6,8.633,0,,,,,,-0.061197917,-0.419270833,1,0,0,8.6327,Pegmatite_rect,6,0,6,0,1,
66083f910aeb017b4edee86f,SCR,2024-06-24_14h50.12.301,LearnStrategy,2023.2.3,Win32,60.24096386,8,2,8,,,,,,,,4,12,,,,,,,,,,,,,4,2.267,1,,,,,,0.360677083,-0.231770833,1,0,0,2.2674,Gabbro_rect,7,0,7,0,1,
66083f910aeb017b4edee86f,SCR,2024-06-24_14h50.12.301,LearnStrategy,2023.2.3,Win32,60.24096386,8,2,9,,,,,,,,6,09,,,,,,,,,,,,,6,5.09,1,,,,,,-0.08203125,-0.401041667,1,0,0,5.0899,Pegmatite_rect,8,0,8,0,1,
66083f910aeb017b4edee86f,SCR,2024-06-24_14h50.12.301,LearnStrategy,2023.2.3,Win32,60.24096386,8,2,10,,,,,,,,5,16,,,,,,,,,,,,,5,2.151,1,,,,,,-0.385416667,-0.412760417,1,0,0,2.1507,Obsidian_rect,9,0,9,0,1,
66083f910aeb017b4edee86f,SCR,2024-06-24_14h50.12.301,LearnStrategy,2023.2.3,Win32,60.24096386,8,2,11,,,,,,,,8,10,,,,,,,,,,,,,8,1.933,1,,,,,,0.315104167,-0.389322917,1,0,0,1.9333,Pumice_rect,10,0,10,0,1,
66083f910aeb017b4edee86f,SCR,2024-06-24_14h50.12.301,LearnStrategy,2023.2.3,Win32,60.24096386,8,2,12,,,,,,,,3,06,,,,,,,,,,,,,3,3.971,1,,,,,,0.16796875,-0.23046875,1,0,0,3.9709,Diorite_rect,11,0,11,0,1,
66083f910aeb017b4edee86f,SCR,2024-06-24_14h50.12.301,LearnStrategy,2023.2.3,Win32,60.24096386,8,2,13,,,,,,,,2,02,,,,,,,,,,,,,2,3.638,1,,,,,,-0.05859375,-0.2578125,1,0,0,3.6376,Basalt_rect,12,0,12,0,1,
66083f910aeb017b4edee86f,SCR,2024-06-24_14h50.12.301,LearnStrategy,2023.2.3,Win32,60.24096386,8,2,14,,,,,,,,7,10,,,,,,,,,,,,,7,5.489,1,,,,,,0.091145833,-0.37890625,1,0,0,5.4889,Peridotite_rect,13,0,13,0,1,
66083f910aeb017b4edee86f,SCR,2024-06-24_14h50.12.301,LearnStrategy,2023.2.3,Win32,60.24096386,8,2,15,,,,,,,,5,10,,,,,,,,,,,,,5,1.332,1,,,,,,-0.359375,-0.389322917,1,0,0,1.3321,Obsidian_rect,14,0,14,0,1,
66083f910aeb017b4edee86f,SCR,2024-06-24_14h50.12.301,LearnStrategy,2023.2.3,Win32,60.24096386,8,2,16,,,,,,,,7,08,,,,,,,,,,,,,7,1.277,1,,,,,,0.037760417,-0.38671875,1,0,0,1.2773,Peridotite_rect,15,0,15,0,1,
66083f910aeb017b4edee86f,SCR,2024-06-24_14h50.12.301,LearnStrategy,2023.2.3,Win32,60.24096386,9,1,1,-0.046875,-0.279947917,1,0,0,1.9619,Peridotite_13,7,13,2,4,1.962,7,13,0.125,-0.41015625,1,0,0,1.5362,Peridotite_rect,7,1.536,1,0,0,0,0,1,,,,,,,,,,,,,
66083f910aeb017b4edee86f,SCR,2024-06-24_14h50.12.301,LearnStrategy,2023.2.3,Win32,60.24096386,9,1,2,0.51953125,0.059895833,1,0,0,1.2929,Diorite_08,3,08,4,8,1.293,3,08,0.213541667,-0.234375,1,0,0,2.5477,Diorite_rect,3,2.548,1,1,0,1,0,1,,,,,,,,,,,,,
66083f910aeb017b4edee86f,SCR,2024-06-24_14h50.12.301,LearnStrategy,2023.2.3,Win32,60.24096386,9,1,3,-0.10546875,-0.145833333,1,0,0,0.6105,Pegmatite_15,6,15,3,4,0.611,1,04,-0.10546875,-0.248697917,1,0,0,0.5623,Basalt_rect,2,0.562,0,2,0,2,0,1,,,,,,,,,,,,,
66083f910aeb017b4edee86f,SCR,2024-06-24_14h50.12.301,LearnStrategy,2023.2.3,Win32,60.24096386,9,1,4,-0.0625,-0.259114583,1,0,0,0.9841,Peridotite_13,7,13,2,4,0.984,4,08,-0.05078125,-0.404947917,1,0,0,1.3496,Pegmatite_rect,6,1.35,0,3,0,3,0,1,,,,,,,,,,,,,
66083f910aeb017b4edee86f,SCR,2024-06-24_14h50.12.301,LearnStrategy,2023.2.3,Win32,60.24096386,9,1,5,0.243489583,0.084635417,1,0,0,0.7119,Peridotite_05,7,05,4,6,0.712,7,05,0.161458333,-0.231770833,1,0,0,1.4235,Diorite_rect,3,1.423,0,4,0,4,0,1,,,,,,,,,,,,,
66083f910aeb017b4edee86f,SCR,2024-06-24_14h50.12.301,LearnStrategy,2023.2.3,Win32,60.24096386,9,1,6,0.072916667,-0.127604167,1,0,0,0.5676,Andesite_01,1,01,3,5,0.568,4,11,0.122395833,-0.235677083,1,0,0,0.6106,Diorite_rect,3,0.611,0,5,0,5,0,1,,,,,,,,,,,,,
66083f910aeb017b4edee86f,SCR,2024-06-24_14h50.12.301,LearnStrategy,2023.2.3,Win32,60.24096386,9,1,7,0.408854167,0.2421875,1,0,0,0.8589,Basalt_11,2,11,5,7,0.859,2,11,0.34375,-0.391927083,1,0,0,0.8163,Pumice_rect,8,0.816,0,6,0,6,0,1,,,,,,,,,,,,,
66083f910aeb017b4edee86f,SCR,2024-06-24_14h50.12.301,LearnStrategy,2023.2.3,Win32,60.24096386,9,1,8,-0.065104167,0.08203125,1,0,0,0.6933,Basalt_08,2,08,4,4,0.693,1,05,-0.158854167,-0.234375,1,0,0,1.014,Basalt_rect,2,1.014,1,7,0,7,0,1,,,,,,,,,,,,,
66083f910aeb017b4edee86f,SCR,2024-06-24_14h50.12.301,LearnStrategy,2023.2.3,Win32,60.24096386,9,1,9,0.442708333,0.291666667,1,0,0,0.9792,Basalt_11,2,11,5,7,0.979,2,05,-0.135416667,-0.270833333,1,0,0,1.0525,Basalt_rect,2,1.052,1,8,0,8,0,1,,,,,,,,,,,,,
66083f910aeb017b4edee86f,SCR,2024-06-24_14h50.12.301,LearnStrategy,2023.2.3,Win32,60.24096386,9,1,10,-0.3984375,-0.104166667,1,0,0,0.9235,Obsidian_07,5,07,3,2,0.923,5,07,-0.44140625,-0.41015625,1,0,0,0.7152,Obsidian_rect,5,0.715,1,9,0,9,0,1,,,,,,,,,,,,,
66083f910aeb017b4edee86f,SCR,2024-06-24_14h50.12.301,LearnStrategy,2023.2.3,Win32,60.24096386,9,1,11,-0.08203125,-0.138020833,1,0,0,0.5959,Pegmatite_15,6,15,3,4,0.596,1,02,-0.108072917,-0.263020833,1,0,0,0.5025,Basalt_rect,2,0.503,0,10,0,10,0,1,,,,,,,,,,,,,
66083f910aeb017b4edee86f,SCR,2024-06-24_14h50.12.301,LearnStrategy,2023.2.3,Win32,60.24096386,9,1,12,0.071614583,-0.239583333,1,0,0,0.712,Basalt_04,2,04,2,5,0.712,1,03,-0.169270833,-0.251302083,1,0,0,0.7503,Basalt_rect,2,0.75,1,11,0,11,0,1,,,,,,,,,,,,,
66083f910aeb017b4edee86f,SCR,2024-06-24_14h50.12.301,LearnStrategy,2023.2.3,Win32,60.24096386,9,1,13,-0.115885417,0.141927083,1,0,0,0.9733,Basalt_08,2,08,4,4,0.973,8,14,-0.12890625,-0.239583333,1,0,0,1.0578,Basalt_rect,2,1.058,1,12,0,12,0,1,,,,,,,,,,,,,
66083f910aeb017b4edee86f,SCR,2024-06-24_14h50.12.301,LearnStrategy,2023.2.3,Win32,60.24096386,9,1,14,0.08203125,-0.389322917,1,0,0,0.9212,Pegmatite_08,6,08,1,5,0.921,6,15,-0.364583333,-0.407552083,1,0,0,1.9727,Obsidian_rect,5,1.973,0,13,0,13,0,1,,,,,,,,,,,,,
66083f910aeb017b4edee86f,SCR,2024-06-24_14h50.12.301,LearnStrategy,2023.2.3,Win32,60.24096386,9,1,15,0.09765625,-0.140625,1,0,0,0.5132,Andesite_01,1,01,3,5,0.513,1,01,0.083333333,-0.2578125,1,0,0,0.6401,Diorite_rect,3,0.64,0,14,0,14,0,1,,,,,,,,,,,,,
66083f910aeb017b4edee86f,SCR,2024-06-24_14h50.12.301,LearnStrategy,2023.2.3,Win32,60.24096386,9,1,16,-0.083333333,-0.08203125,1,0,0,1.8582,Pegmatite_15,6,15,3,4,1.858,1,05,-0.1015625,-0.2578125,1,0,0,0.917,Basalt_rect,2,0.917,0,15,0,15,0,1,,,,,,,,,,,,,
66083f910aeb017b4edee86f,SCR,2024-06-24_14h50.12.301,LearnStrategy,2023.2.3,Win32,60.24096386,9,2,1,,,,,,,,6,05,,,,,,,,,,,,,6,5.376,1,,,,,,-0.0703125,-0.3984375,1,0,0,5.3757,Pegmatite_rect,0,0,0,0,1,
66083f910aeb017b4edee86f,SCR,2024-06-24_14h50.12.301,LearnStrategy,2023.2.3,Win32,60.24096386,9,2,2,,,,,,,,5,06,,,,,,,,,,,,,5,1.284,1,,,,,,-0.329427083,-0.408854167,1,0,0,1.2842,Obsidian_rect,1,0,1,0,1,
66083f910aeb017b4edee86f,SCR,2024-06-24_14h50.12.301,LearnStrategy,2023.2.3,Win32,60.24096386,9,2,3,,,,,,,,1,10,,,,,,,,,,,,,4,3,0,,,,,,0.399739583,-0.2421875,1,0,0,2.9997,Gabbro_rect,2,0,2,0,1,
66083f910aeb017b4edee86f,SCR,2024-06-24_14h50.12.301,LearnStrategy,2023.2.3,Win32,60.24096386,9,2,4,,,,,,,,8,15,,,,,,,,,,,,,8,1.301,1,,,,,,0.317708333,-0.393229167,1,0,0,1.3012,Pumice_rect,3,0,3,0,1,
66083f910aeb017b4edee86f,SCR,2024-06-24_14h50.12.301,LearnStrategy,2023.2.3,Win32,60.24096386,9,2,5,,,,,,,,8,08,,,,,,,,,,,,,8,0.677,1,,,,,,0.317708333,-0.393229167,1,0,0,0.6772,Pumice_rect,4,0,4,0,1,
66083f910aeb017b4edee86f,SCR,2024-06-24_14h50.12.301,LearnStrategy,2023.2.3,Win32,60.24096386,9,2,6,,,,,,,,5,09,,,,,,,,,,,,,5,1.494,1,,,,,,-0.290364583,-0.381510417,1,0,0,1.4944,Obsidian_rect,5,0,5,0,1,
66083f910aeb017b4edee86f,SCR,2024-06-24_14h50.12.301,LearnStrategy,2023.2.3,Win32,60.24096386,9,2,7,,,,,,,,2,12,,,,,,,,,,,,,8,1.804,0,,,,,,0.350260417,-0.407552083,1,0,0,1.8043,Pumice_rect,6,0,6,0,1,
66083f910aeb017b4edee86f,SCR,2024-06-24_14h50.12.301,LearnStrategy,2023.2.3,Win32,60.24096386,9,2,8,,,,,,,,3,02,,,,,,,,,,,,,3,2.847,1,,,,,,0.092447917,-0.25,1,0,0,2.8473,Diorite_rect,7,0,7,0,1,
66083f910aeb017b4edee86f,SCR,2024-06-24_14h50.12.301,LearnStrategy,2023.2.3,Win32,60.24096386,9,2,9,,,,,,,,4,14,,,,,,,,,,,,,4,6.033,1,,,,,,0.346354167,-0.260416667,1,0,0,6.0327,Gabbro_rect,8,0,8,0,1,
66083f910aeb017b4edee86f,SCR,2024-06-24_14h50.12.301,LearnStrategy,2023.2.3,Win32,60.24096386,9,2,10,,,,,,,,7,04,,,,,,,,,,,,,7,7.052,1,,,,,,0.12890625,-0.384114583,1,0,0,7.0524,Peridotite_rect,9,0,9,0,1,
66083f910aeb017b4edee86f,SCR,2024-06-24_14h50.12.301,LearnStrategy,2023.2.3,Win32,60.24096386,9,2,11,,,,,,,,4,01,,,,,,,,,,,,,4,3.863,1,,,,,,0.341145833,-0.247395833,1,0,0,3.863,Gabbro_rect,10,0,10,0,1,
66083f910aeb017b4edee86f,SCR,2024-06-24_14h50.12.301,LearnStrategy,2023.2.3,Win32,60.24096386,9,2,12,,,,,,,,6,13,,,,,,,,,,,,,6,3.543,1,,,,,,-0.108072917,-0.40625,1,0,0,3.5434,Pegmatite_rect,11,0,11,0,1,
66083f910aeb017b4edee86f,SCR,2024-06-24_14h50.12.301,LearnStrategy,2023.2.3,Win32,60.24096386,9,2,13,,,,,,,,1,16,,,,,,,,,,,,,1,6.113,1,,,,,,-0.38671875,-0.243489583,1,0,0,6.1135,Andesite_rect,12,0,12,0,1,
66083f910aeb017b4edee86f,SCR,2024-06-24_14h50.12.301,LearnStrategy,2023.2.3,Win32,60.24096386,9,2,14,,,,,,,,3,09,,,,,,,,,,,,,3,2.753,1,,,,,,0.1171875,-0.240885417,1,0,0,2.7532,Diorite_rect,13,0,13,0,1,
66083f910aeb017b4edee86f,SCR,2024-06-24_14h50.12.301,LearnStrategy,2023.2.3,Win32,60.24096386,9,2,15,,,,,,,,2,14,,,,,,,,,,,,,4,6.457,0,,,,,,0.334635417,-0.268229167,1,0,0,6.4571,Gabbro_rect,14,0,14,0,1,
66083f910aeb017b4edee86f,SCR,2024-06-24_14h50.12.301,LearnStrategy,2023.2.3,Win32,60.24096386,9,2,16,,,,,,,,7,16,,,,,,,,,,,,,7,2.061,1,,,,,,0.075520833,-0.395833333,1,0,0,2.0609,Peridotite_rect,15,0,15,0,1,
66083f910aeb017b4edee86f,SCR,2024-06-24_14h50.12.301,LearnStrategy,2023.2.3,Win32,60.24096386,,,,,,,,,,,,,,,,,,,,,,,,,,,,,,,,,,,,,,,,,,,,,1
66083f910aeb017b4edee86f,SCR,2024-06-24_14h50.12.301,LearnStrategy,2023.2.3,Win32,60.24096386,,,,,,,,,,,,,,,,,,,,,,,,,,,,,,,,,,,,,,,,,,,,,
66083f910aeb017b4edee86f,SCR,2024-06-24_14h50.12.301,LearnStrategy,2023.2.3,Win32,60.24096386,,,,,,,,,,,7,12,1,1,,,,,,,,,,,,,,,,,,,,,,,,,,,,,,,
66083f910aeb017b4edee86f,SCR,2024-06-24_14h50.12.301,LearnStrategy,2023.2.3,Win32,60.24096386,,,,,,,,,,,5,12,1,2,,,,,,,,,,,,,,,,,,,,,,,,,,,,,,,
66083f910aeb017b4edee86f,SCR,2024-06-24_14h50.12.301,LearnStrategy,2023.2.3,Win32,60.24096386,,,,,,,,,,,5,11,1,3,,,,,,,,,,,,,,,,,,,,,,,,,,,,,,,
66083f910aeb017b4edee86f,SCR,2024-06-24_14h50.12.301,LearnStrategy,2023.2.3,Win32,60.24096386,,,,,,,,,,,4,16,1,4,,,,,,,,,,,,,,,,,,,,,,,,,,,,,,,
66083f910aeb017b4edee86f,SCR,2024-06-24_14h50.12.301,LearnStrategy,2023.2.3,Win32,60.24096386,,,,,,,,,,,6,08,1,5,,,,,,,,,,,,,,,,,,,,,,,,,,,,,,,
66083f910aeb017b4edee86f,SCR,2024-06-24_14h50.12.301,LearnStrategy,2023.2.3,Win32,60.24096386,,,,,,,,,,,4,09,1,6,,,,,,,,,,,,,,,,,,,,,,,,,,,,,,,
66083f910aeb017b4edee86f,SCR,2024-06-24_14h50.12.301,LearnStrategy,2023.2.3,Win32,60.24096386,,,,,,,,,,,1,02,1,7,,,,,,,,,,,,,,,,,,,,,,,,,,,,,,,
66083f910aeb017b4edee86f,SCR,2024-06-24_14h50.12.301,LearnStrategy,2023.2.3,Win32,60.24096386,,,,,,,,,,,4,11,1,8,,,,,,,,,,,,,,,,,,,,,,,,,,,,,,,
66083f910aeb017b4edee86f,SCR,2024-06-24_14h50.12.301,LearnStrategy,2023.2.3,Win32,60.24096386,,,,,,,,,,,2,01,2,1,,,,,,,,,,,,,,,,,,,,,,,,,,,,,,,
66083f910aeb017b4edee86f,SCR,2024-06-24_14h50.12.301,LearnStrategy,2023.2.3,Win32,60.24096386,,,,,,,,,,,8,06,2,2,,,,,,,,,,,,,,,,,,,,,,,,,,,,,,,
66083f910aeb017b4edee86f,SCR,2024-06-24_14h50.12.301,LearnStrategy,2023.2.3,Win32,60.24096386,,,,,,,,,,,6,10,2,3,,,,,,,,,,,,,,,,,,,,,,,,,,,,,,,
66083f910aeb017b4edee86f,SCR,2024-06-24_14h50.12.301,LearnStrategy,2023.2.3,Win32,60.24096386,,,,,,,,,,,7,13,2,4,,,,,,,,,,,,,,,,,,,,,,,,,,,,,,,
66083f910aeb017b4edee86f,SCR,2024-06-24_14h50.12.301,LearnStrategy,2023.2.3,Win32,60.24096386,,,,,,,,,,,2,04,2,5,,,,,,,,,,,,,,,,,,,,,,,,,,,,,,,
66083f910aeb017b4edee86f,SCR,2024-06-24_14h50.12.301,LearnStrategy,2023.2.3,Win32,60.24096386,,,,,,,,,,,3,07,2,6,,,,,,,,,,,,,,,,,,,,,,,,,,,,,,,
66083f910aeb017b4edee86f,SCR,2024-06-24_14h50.12.301,LearnStrategy,2023.2.3,Win32,60.24096386,,,,,,,,,,,7,07,2,7,,,,,,,,,,,,,,,,,,,,,,,,,,,,,,,
66083f910aeb017b4edee86f,SCR,2024-06-24_14h50.12.301,LearnStrategy,2023.2.3,Win32,60.24096386,,,,,,,,,,,5,02,2,8,,,,,,,,,,,,,,,,,,,,,,,,,,,,,,,
66083f910aeb017b4edee86f,SCR,2024-06-24_14h50.12.301,LearnStrategy,2023.2.3,Win32,60.24096386,,,,,,,,,,,3,16,3,1,,,,,,,,,,,,,,,,,,,,,,,,,,,,,,,
66083f910aeb017b4edee86f,SCR,2024-06-24_14h50.12.301,LearnStrategy,2023.2.3,Win32,60.24096386,,,,,,,,,,,5,07,3,2,,,,,,,,,,,,,,,,,,,,,,,,,,,,,,,
66083f910aeb017b4edee86f,SCR,2024-06-24_14h50.12.301,LearnStrategy,2023.2.3,Win32,60.24096386,,,,,,,,,,,4,15,3,3,,,,,,,,,,,,,,,,,,,,,,,,,,,,,,,
66083f910aeb017b4edee86f,SCR,2024-06-24_14h50.12.301,LearnStrategy,2023.2.3,Win32,60.24096386,,,,,,,,,,,6,15,3,4,,,,,,,,,,,,,,,,,,,,,,,,,,,,,,,
66083f910aeb017b4edee86f,SCR,2024-06-24_14h50.12.301,LearnStrategy,2023.2.3,Win32,60.24096386,,,,,,,,,,,1,01,3,5,,,,,,,,,,,,,,,,,,,,,,,,,,,,,,,
66083f910aeb017b4edee86f,SCR,2024-06-24_14h50.12.301,LearnStrategy,2023.2.3,Win32,60.24096386,,,,,,,,,,,4,03,3,6,,,,,,,,,,,,,,,,,,,,,,,,,,,,,,,
66083f910aeb017b4edee86f,SCR,2024-06-24_14h50.12.301,LearnStrategy,2023.2.3,Win32,60.24096386,,,,,,,,,,,5,14,3,7,,,,,,,,,,,,,,,,,,,,,,,,,,,,,,,
66083f910aeb017b4edee86f,SCR,2024-06-24_14h50.12.301,LearnStrategy,2023.2.3,Win32,60.24096386,,,,,,,,,,,8,14,3,8,,,,,,,,,,,,,,,,,,,,,,,,,,,,,,,
66083f910aeb017b4edee86f,SCR,2024-06-24_14h50.12.301,LearnStrategy,2023.2.3,Win32,60.24096386,,,,,,,,,,,6,03,4,1,,,,,,,,,,,,,,,,,,,,,,,,,,,,,,,
66083f910aeb017b4edee86f,SCR,2024-06-24_14h50.12.301,LearnStrategy,2023.2.3,Win32,60.24096386,,,,,,,,,,,3,15,4,2,,,,,,,,,,,,,,,,,,,,,,,,,,,,,,,
66083f910aeb017b4edee86f,SCR,2024-06-24_14h50.12.301,LearnStrategy,2023.2.3,Win32,60.24096386,,,,,,,,,,,1,07,4,3,,,,,,,,,,,,,,,,,,,,,,,,,,,,,,,
66083f910aeb017b4edee86f,SCR,2024-06-24_14h50.12.301,LearnStrategy,2023.2.3,Win32,60.24096386,,,,,,,,,,,2,08,4,4,,,,,,,,,,,,,,,,,,,,,,,,,,,,,,,
66083f910aeb017b4edee86f,SCR,2024-06-24_14h50.12.301,LearnStrategy,2023.2.3,Win32,60.24096386,,,,,,,,,,,4,08,4,5,,,,,,,,,,,,,,,,,,,,,,,,,,,,,,,
66083f910aeb017b4edee86f,SCR,2024-06-24_14h50.12.301,LearnStrategy,2023.2.3,Win32,60.24096386,,,,,,,,,,,7,05,4,6,,,,,,,,,,,,,,,,,,,,,,,,,,,,,,,
66083f910aeb017b4edee86f,SCR,2024-06-24_14h50.12.301,LearnStrategy,2023.2.3,Win32,60.24096386,,,,,,,,,,,7,15,4,7,,,,,,,,,,,,,,,,,,,,,,,,,,,,,,,
66083f910aeb017b4edee86f,SCR,2024-06-24_14h50.12.301,LearnStrategy,2023.2.3,Win32,60.24096386,,,,,,,,,,,3,08,4,8,,,,,,,,,,,,,,,,,,,,,,,,,,,,,,,
66083f910aeb017b4edee86f,SCR,2024-06-24_14h50.12.301,LearnStrategy,2023.2.3,Win32,60.24096386,,,,,,,,,,,1,05,5,1,,,,,,,,,,,,,,,,,,,,,,,,,,,,,,,
66083f910aeb017b4edee86f,SCR,2024-06-24_14h50.12.301,LearnStrategy,2023.2.3,Win32,60.24096386,,,,,,,,,,,1,04,5,2,,,,,,,,,,,,,,,,,,,,,,,,,,,,,,,
66083f910aeb017b4edee86f,SCR,2024-06-24_14h50.12.301,LearnStrategy,2023.2.3,Win32,60.24096386,,,,,,,,,,,6,16,5,3,,,,,,,,,,,,,,,,,,,,,,,,,,,,,,,
66083f910aeb017b4edee86f,SCR,2024-06-24_14h50.12.301,LearnStrategy,2023.2.3,Win32,60.24096386,,,,,,,,,,,8,04,5,4,,,,,,,,,,,,,,,,,,,,,,,,,,,,,,,
66083f910aeb017b4edee86f,SCR,2024-06-24_14h50.12.301,LearnStrategy,2023.2.3,Win32,60.24096386,,,,,,,,,,,8,13,5,5,,,,,,,,,,,,,,,,,,,,,,,,,,,,,,,
66083f910aeb017b4edee86f,SCR,2024-06-24_14h50.12.301,LearnStrategy,2023.2.3,Win32,60.24096386,,,,,,,,,,,1,03,5,6,,,,,,,,,,,,,,,,,,,,,,,,,,,,,,,
66083f910aeb017b4edee86f,SCR,2024-06-24_14h50.12.301,LearnStrategy,2023.2.3,Win32,60.24096386,,,,,,,,,,,2,11,5,7,,,,,,,,,,,,,,,,,,,,,,,,,,,,,,,
66083f910aeb017b4edee86f,SCR,2024-06-24_14h50.12.301,LearnStrategy,2023.2.3,Win32,60.24096386,,,,,,,,,,,8,09,5,8,,,,,,,,,,,,,,,,,,,,,,,,,,,,,,,
66083f910aeb017b4edee86f,SCR,2024-06-24_14h50.12.301,LearnStrategy,2023.2.3,Win32,60.24096386,,,,,,,,,,,5,05,6,1,,,,,,,,,,,,,,,,,,,,,,,,,,,,,,,
66083f910aeb017b4edee86f,SCR,2024-06-24_14h50.12.301,LearnStrategy,2023.2.3,Win32,60.24096386,,,,,,,,,,,3,12,6,2,,,,,,,,,,,,,,,,,,,,,,,,,,,,,,,
66083f910aeb017b4edee86f,SCR,2024-06-24_14h50.12.301,LearnStrategy,2023.2.3,Win32,60.24096386,,,,,,,,,,,7,06,6,3,,,,,,,,,,,,,,,,,,,,,,,,,,,,,,,
66083f910aeb017b4edee86f,SCR,2024-06-24_14h50.12.301,LearnStrategy,2023.2.3,Win32,60.24096386,,,,,,,,,,,3,11,6,4,,,,,,,,,,,,,,,,,,,,,,,,,,,,,,,
66083f910aeb017b4edee86f,SCR,2024-06-24_14h50.12.301,LearnStrategy,2023.2.3,Win32,60.24096386,,,,,,,,,,,8,02,6,5,,,,,,,,,,,,,,,,,,,,,,,,,,,,,,,
66083f910aeb017b4edee86f,SCR,2024-06-24_14h50.12.301,LearnStrategy,2023.2.3,Win32,60.24096386,,,,,,,,,,,6,11,6,6,,,,,,,,,,,,,,,,,,,,,,,,,,,,,,,
66083f910aeb017b4edee86f,SCR,2024-06-24_14h50.12.301,LearnStrategy,2023.2.3,Win32,60.24096386,,,,,,,,,,,2,16,6,7,,,,,,,,,,,,,,,,,,,,,,,,,,,,,,,
66083f910aeb017b4edee86f,SCR,2024-06-24_14h50.12.301,LearnStrategy,2023.2.3,Win32,60.24096386,,,,,,,,,,,2,05,6,8,,,,,,,,,,,,,,,,,,,,,,,,,,,,,,,