participant,condition,date,expName,psychopyVersion,OS,frameRate,block,phase,trial,learn_mouse.x,learn_mouse.y,learn_mouse.leftButton,learn_mouse.midButton,learn_mouse.rightButton,learn_mouse.time,learn_mouse.clicked_name,cat,token,row,col,t_select,cat_rec,token_rec,cat_mouse_l.x,cat_mouse_l.y,cat_mouse_l.leftButton,cat_mouse_l.midButton,cat_mouse_l.rightButton,cat_mouse_l.time,cat_mouse_l.clicked_name,resp,t_resp,corr,train_trials.thisRepN,train_trials.thisTrialN,train_trials.thisN,train_trials.thisIndex,train_trials.ran,cat_mouse_t.x,cat_mouse_t.y,cat_mouse_t.leftButton,cat_mouse_t.midButton,cat_mouse_t.rightButton,cat_mouse_t.time,cat_mouse_t.clicked_name,test_trials.thisRepN,test_trials.thisTrialN,test_trials.thisN,test_trials.thisIndex,test_trials.ran,Bonus
660b50fe7a64661e391dd08c,SCR,2024-06-25_11h40.17.625,LearnStrategy,2023.2.3,Win32,60.24096386,,,,,,,,,,,,,,,,,,,,,,,,,,,,,,,,,,,,,,,,,,,,,
660b50fe7a64661e391dd08c,SCR,2024-06-25_11h40.17.625,LearnStrategy,2023.2.3,Win32,60.24096386,1,1,1,0.582222222,-0.406111111,1,0,0,3.3727,Diorite_11,3,11,1,8,3.373,3,11,-0.047777778,-0.411111111,1,0,0,5.1404,Pegmatite_rect,6,5.14,0,0,0,0,0,1,,,,,,,,,,,,,
660b50fe7a64661e391dd08c,SCR,2024-06-25_11h40.17.625,LearnStrategy,2023.2.3,Win32,60.24096386,1,1,2,-0.432777778,0.248333333,1,0,0,1.3775,Diorite_08,3,08,5,2,1.377,3,08,-0.155,-0.252222222,1,0,0,3.0486,Basalt_rect,2,3.049,0,1,0,1,0,1,,,,,,,,,,,,,
660b50fe7a64661e391dd08c,SCR,2024-06-25_11h40.17.625,LearnStrategy,2023.2.3,Win32,60.24096386,1,1,3,-0.086111111,-0.102777778,1,0,0,1.4039,Pegmatite_15,6,15,3,4,1.404,6,15,-0.370555556,-0.248333333,1,0,0,5.4996,Andesite_rect,1,5.5,0,2,0,2,0,1,,,,,,,,,,,,,
660b50fe7a64661e391dd08c,SCR,2024-06-25_11h40.17.625,LearnStrategy,2023.2.3,Win32,60.24096386,1,1,4,-0.37,0.385,1,0,0,3.6555,Andesite_05,1,05,6,2,3.655,1,05,-0.116111111,-0.243333333,1,0,0,1.9043,Basalt_rect,2,1.904,0,3,0,3,0,1,,,,,,,,,,,,,
660b50fe7a64661e391dd08c,SCR,2024-06-25_11h40.17.625,LearnStrategy,2023.2.3,Win32,60.24096386,1,1,5,0.568333333,-0.099444444,1,0,0,1.4364,Andesite_03,1,03,3,8,1.436,1,03,-0.095555556,-0.24,1,0,0,1.8921,Basalt_rect,2,1.892,0,4,0,4,0,1,,,,,,,,,,,,,
660b50fe7a64661e391dd08c,SCR,2024-06-25_11h40.17.625,LearnStrategy,2023.2.3,Win32,60.24096386,1,1,6,-0.233333333,0.116666667,1,0,0,2.4144,Pumice_05,8,05,4,3,2.414,2,08,0.416111111,-0.399444444,1,0,0,2.2265,Pumice_rect,8,2.226,1,5,0,5,0,1,,,,,,,,,,,,,
660b50fe7a64661e391dd08c,SCR,2024-06-25_11h40.17.625,LearnStrategy,2023.2.3,Win32,60.24096386,1,1,7,0.383333333,0.416111111,1,0,0,1.6795,Peridotite_05,7,05,6,7,1.679,7,05,-0.186666667,-0.252777778,1,0,0,3.5077,Basalt_rect,2,3.508,0,6,0,6,0,1,,,,,,,,,,,,,
660b50fe7a64661e391dd08c,SCR,2024-06-25_11h40.17.625,LearnStrategy,2023.2.3,Win32,60.24096386,1,1,8,0.556666667,0.258333333,1,0,0,1.1074,Obsidian_12,5,12,5,8,1.107,5,12,-0.368333333,-0.396666667,1,0,0,1.1171,Obsidian_rect,5,1.117,1,7,0,7,0,1,,,,,,,,,,,,,
660b50fe7a64661e391dd08c,SCR,2024-06-25_11h40.17.625,LearnStrategy,2023.2.3,Win32,60.24096386,1,1,9,0.258888889,-0.263333333,1,0,0,0.9226,Pumice_13,8,13,2,6,0.923,8,13,0.364444444,-0.413333333,1,0,0,1.9601,Pumice_rect,8,1.96,1,8,0,8,0,1,,,,,,,,,,,,,
660b50fe7a64661e391dd08c,SCR,2024-06-25_11h40.17.625,LearnStrategy,2023.2.3,Win32,60.24096386,1,1,10,0.43,0.265,1,0,0,1.164,Pumice_03,8,03,5,7,1.164,8,03,0.425555556,-0.395555556,1,0,0,1.077,Pumice_rect,8,1.077,1,9,0,9,0,1,,,,,,,,,,,,,
660b50fe7a64661e391dd08c,SCR,2024-06-25_11h40.17.625,LearnStrategy,2023.2.3,Win32,60.24096386,1,1,11,0.548333333,0.101666667,1,0,0,1.5058,Basalt_10,2,10,4,8,1.506,2,10,0.414444444,-0.242222222,1,0,0,2.0772,Gabbro_rect,4,2.077,0,10,0,10,0,1,,,,,,,,,,,,,
660b50fe7a64661e391dd08c,SCR,2024-06-25_11h40.17.625,LearnStrategy,2023.2.3,Win32,60.24096386,1,1,12,0.070555556,0.428333333,1,0,0,0.8819,Pegmatite_12,6,12,6,5,0.882,6,12,-0.125555556,-0.407222222,1,0,0,2.5058,Pegmatite_rect,6,2.506,1,11,0,11,0,1,,,,,,,,,,,,,
660b50fe7a64661e391dd08c,SCR,2024-06-25_11h40.17.625,LearnStrategy,2023.2.3,Win32,60.24096386,1,1,13,-0.08,-0.437777778,1,0,0,0.8629,Peridotite_02,7,02,1,4,0.863,7,02,0.091666667,-0.383888889,1,0,0,2.2263,Peridotite_rect,7,2.226,1,12,0,12,0,1,,,,,,,,,,,,,
660b50fe7a64661e391dd08c,SCR,2024-06-25_11h40.17.625,LearnStrategy,2023.2.3,Win32,60.24096386,1,1,14,-0.356666667,-0.426666667,1,0,0,0.9505,Gabbro_08,4,08,1,2,0.951,4,08,0.102777778,-0.378333333,1,0,0,2.5765,Peridotite_rect,7,2.577,0,13,0,13,0,1,,,,,,,,,,,,,
660b50fe7a64661e391dd08c,SCR,2024-06-25_11h40.17.625,LearnStrategy,2023.2.3,Win32,60.24096386,1,1,15,-0.550555556,-0.416666667,1,0,0,1.1439,Obsidian_14,5,14,1,1,1.144,5,14,-0.37,-0.386111111,1,0,0,1.6437,Obsidian_rect,5,1.644,1,14,0,14,0,1,,,,,,,,,,,,,
660b50fe7a64661e391dd08c,SCR,2024-06-25_11h40.17.625,LearnStrategy,2023.2.3,Win32,60.24096386,1,1,16,-0.223888889,-0.222222222,1,0,0,0.7728,Gabbro_03,4,03,2,3,0.773,4,03,-0.306111111,-0.238333333,1,0,0,3.3601,Andesite_rect,1,3.36,0,15,0,15,0,1,,,,,,,,,,,,,
660b50fe7a64661e391dd08c,SCR,2024-06-25_11h40.17.625,LearnStrategy,2023.2.3,Win32,60.24096386,1,2,1,,,,,,,,5,02,,,,,,,,,,,,,5,1.509,1,,,,,,-0.412777778,-0.399444444,1,0,0,1.5089,Obsidian_rect,0,0,0,0,1,
660b50fe7a64661e391dd08c,SCR,2024-06-25_11h40.17.625,LearnStrategy,2023.2.3,Win32,60.24096386,1,2,2,,,,,,,,4,05,,,,,,,,,,,,,4,6.098,1,,,,,,0.327777778,-0.254444444,1,0,0,6.0978,Gabbro_rect,1,0,1,0,1,
660b50fe7a64661e391dd08c,SCR,2024-06-25_11h40.17.625,LearnStrategy,2023.2.3,Win32,60.24096386,1,2,3,,,,,,,,2,01,,,,,,,,,,,,,4,10.96,0,,,,,,0.364444444,-0.241111111,1,0,0,10.9605,Gabbro_rect,2,0,2,0,1,
660b50fe7a64661e391dd08c,SCR,2024-06-25_11h40.17.625,LearnStrategy,2023.2.3,Win32,60.24096386,1,2,4,,,,,,,,3,02,,,,,,,,,,,,,1,4.695,0,,,,,,-0.355,-0.265,1,0,0,4.6952,Andesite_rect,3,0,3,0,1,
660b50fe7a64661e391dd08c,SCR,2024-06-25_11h40.17.625,LearnStrategy,2023.2.3,Win32,60.24096386,1,2,5,,,,,,,,6,10,,,,,,,,,,,,,7,5.813,0,,,,,,0.107222222,-0.42,1,0,0,5.8129,Peridotite_rect,4,0,4,0,1,
660b50fe7a64661e391dd08c,SCR,2024-06-25_11h40.17.625,LearnStrategy,2023.2.3,Win32,60.24096386,1,2,6,,,,,,,,2,09,,,,,,,,,,,,,4,3.171,0,,,,,,0.404444444,-0.238888889,1,0,0,3.171,Gabbro_rect,5,0,5,0,1,
660b50fe7a64661e391dd08c,SCR,2024-06-25_11h40.17.625,LearnStrategy,2023.2.3,Win32,60.24096386,1,2,7,,,,,,,,1,02,,,,,,,,,,,,,6,4.73,0,,,,,,-0.203888889,-0.395555556,1,0,0,4.7296,Pegmatite_rect,6,0,6,0,1,
660b50fe7a64661e391dd08c,SCR,2024-06-25_11h40.17.625,LearnStrategy,2023.2.3,Win32,60.24096386,1,2,8,,,,,,,,7,07,,,,,,,,,,,,,7,1.543,1,,,,,,0.106111111,-0.401666667,1,0,0,1.5435,Peridotite_rect,7,0,7,0,1,
660b50fe7a64661e391dd08c,SCR,2024-06-25_11h40.17.625,LearnStrategy,2023.2.3,Win32,60.24096386,1,2,9,,,,,,,,8,02,,,,,,,,,,,,,8,1.537,1,,,,,,0.387222222,-0.394444444,1,0,0,1.5367,Pumice_rect,8,0,8,0,1,
660b50fe7a64661e391dd08c,SCR,2024-06-25_11h40.17.625,LearnStrategy,2023.2.3,Win32,60.24096386,1,2,10,,,,,,,,8,06,,,,,,,,,,,,,8,1.002,1,,,,,,0.39,-0.396666667,1,0,0,1.0021,Pumice_rect,9,0,9,0,1,
660b50fe7a64661e391dd08c,SCR,2024-06-25_11h40.17.625,LearnStrategy,2023.2.3,Win32,60.24096386,1,2,11,,,,,,,,3,07,,,,,,,,,,,,,7,3.574,0,,,,,,0.125,-0.406666667,1,0,0,3.5744,Peridotite_rect,10,0,10,0,1,
660b50fe7a64661e391dd08c,SCR,2024-06-25_11h40.17.625,LearnStrategy,2023.2.3,Win32,60.24096386,1,2,12,,,,,,,,6,11,,,,,,,,,,,,,6,1.721,1,,,,,,-0.106666667,-0.390555556,1,0,0,1.721,Pegmatite_rect,11,0,11,0,1,
660b50fe7a64661e391dd08c,SCR,2024-06-25_11h40.17.625,LearnStrategy,2023.2.3,Win32,60.24096386,1,2,13,,,,,,,,4,16,,,,,,,,,,,,,4,3.24,1,,,,,,0.380555556,-0.249444444,1,0,0,3.2398,Gabbro_rect,12,0,12,0,1,
660b50fe7a64661e391dd08c,SCR,2024-06-25_11h40.17.625,LearnStrategy,2023.2.3,Win32,60.24096386,1,2,14,,,,,,,,5,06,,,,,,,,,,,,,5,1.436,1,,,,,,-0.394444444,-0.412222222,1,0,0,1.4357,Obsidian_rect,13,0,13,0,1,
660b50fe7a64661e391dd08c,SCR,2024-06-25_11h40.17.625,LearnStrategy,2023.2.3,Win32,60.24096386,1,2,15,,,,,,,,7,15,,,,,,,,,,,,,7,1.361,1,,,,,,0.181111111,-0.421666667,1,0,0,1.3613,Peridotite_rect,14,0,14,0,1,
660b50fe7a64661e391dd08c,SCR,2024-06-25_11h40.17.625,LearnStrategy,2023.2.3,Win32,60.24096386,1,2,16,,,,,,,,1,11,,,,,,,,,,,,,6,3.383,0,,,,,,-0.197222222,-0.383888889,1,0,0,3.3826,Pegmatite_rect,15,0,15,0,1,
660b50fe7a64661e391dd08c,SCR,2024-06-25_11h40.17.625,LearnStrategy,2023.2.3,Win32,60.24096386,2,1,1,0.263888889,0.083333333,1,0,0,1.4051,Diorite_09,3,09,4,6,1.405,3,09,-0.358333333,-0.264444444,1,0,0,6.5279,Andesite_rect,1,6.528,0,0,0,0,0,1,,,,,,,,,,,,,
660b50fe7a64661e391dd08c,SCR,2024-06-25_11h40.17.625,LearnStrategy,2023.2.3,Win32,60.24096386,2,1,2,-0.548888889,-0.12,1,0,0,1.2017,Basalt_06,2,06,3,1,1.202,2,06,0.37,-0.246111111,1,0,0,2.5666,Gabbro_rect,4,2.567,0,1,0,1,0,1,,,,,,,,,,,,,
660b50fe7a64661e391dd08c,SCR,2024-06-25_11h40.17.625,LearnStrategy,2023.2.3,Win32,60.24096386,2,1,3,-0.210555556,-0.398888889,1,0,0,1.7672,Basalt_08,2,08,1,3,1.767,6,12,-0.135,-0.258333333,1,0,0,1.2842,Basalt_rect,2,1.284,1,2,0,2,0,1,,,,,,,,,,,,,
660b50fe7a64661e391dd08c,SCR,2024-06-25_11h40.17.625,LearnStrategy,2023.2.3,Win32,60.24096386,2,1,4,-0.537222222,0.102222222,1,0,0,0.9817,Diorite_16,3,16,4,1,0.982,3,16,0.156111111,-0.261666667,1,0,0,2.8425,Diorite_rect,3,2.842,1,3,0,3,0,1,,,,,,,,,,,,,
660b50fe7a64661e391dd08c,SCR,2024-06-25_11h40.17.625,LearnStrategy,2023.2.3,Win32,60.24096386,2,1,5,-0.363333333,-0.098888889,1,0,0,1.3582,Basalt_14,2,14,3,2,1.358,2,14,0.337222222,-0.262777778,1,0,0,5.9126,Gabbro_rect,4,5.913,0,4,0,4,0,1,,,,,,,,,,,,,
660b50fe7a64661e391dd08c,SCR,2024-06-25_11h40.17.625,LearnStrategy,2023.2.3,Win32,60.24096386,2,1,6,-0.535,-0.266111111,1,0,0,1.5303,Basalt_12,2,12,2,1,1.53,2,12,-0.127777778,-0.248333333,1,0,0,5.0338,Basalt_rect,2,5.034,1,5,0,5,0,1,,,,,,,,,,,,,
660b50fe7a64661e391dd08c,SCR,2024-06-25_11h40.17.625,LearnStrategy,2023.2.3,Win32,60.24096386,2,1,7,0.272777778,0.398333333,1,0,0,1.2448,Andesite_10,1,10,6,6,1.245,1,10,-0.088333333,-0.412222222,1,0,0,2.0906,Pegmatite_rect,6,2.091,0,6,0,6,0,1,,,,,,,,,,,,,
660b50fe7a64661e391dd08c,SCR,2024-06-25_11h40.17.625,LearnStrategy,2023.2.3,Win32,60.24096386,2,1,8,-0.562222222,0.431666667,1,0,0,1.5551,Pegmatite_13,6,13,6,1,1.555,6,13,-0.163333333,-0.392777778,1,0,0,1.4848,Pegmatite_rect,6,1.485,1,7,0,7,0,1,,,,,,,,,,,,,
660b50fe7a64661e391dd08c,SCR,2024-06-25_11h40.17.625,LearnStrategy,2023.2.3,Win32,60.24096386,2,1,9,-0.358888889,0.371111111,1,0,0,1.3327,Andesite_05,1,05,6,2,1.333,1,05,0.14,-0.252777778,1,0,0,5.6226,Diorite_rect,3,5.623,0,8,0,8,0,1,,,,,,,,,,,,,
660b50fe7a64661e391dd08c,SCR,2024-06-25_11h40.17.625,LearnStrategy,2023.2.3,Win32,60.24096386,2,1,10,-0.206111111,0.372777778,1,0,0,1.3473,Gabbro_13,4,13,6,3,1.347,4,13,-0.359444444,-0.243888889,1,0,0,1.5287,Andesite_rect,1,1.529,0,9,0,9,0,1,,,,,,,,,,,,,
660b50fe7a64661e391dd08c,SCR,2024-06-25_11h40.17.625,LearnStrategy,2023.2.3,Win32,60.24096386,2,1,11,0.24,-0.077777778,1,0,0,2.8208,Peridotite_04,7,04,3,6,2.821,1,06,0.132777778,-0.394444444,1,0,0,1.3217,Peridotite_rect,7,1.322,1,10,0,10,0,1,,,,,,,,,,,,,
660b50fe7a64661e391dd08c,SCR,2024-06-25_11h40.17.625,LearnStrategy,2023.2.3,Win32,60.24096386,2,1,12,0.599444444,0.418333333,1,0,0,1.2001,Basalt_02,2,02,6,8,1.2,2,02,-0.066666667,-0.242777778,1,0,0,1.7134,Basalt_rect,2,1.713,1,11,0,11,0,1,,,,,,,,,,,,,
660b50fe7a64661e391dd08c,SCR,2024-06-25_11h40.17.625,LearnStrategy,2023.2.3,Win32,60.24096386,2,1,13,0.111111111,-0.407222222,1,0,0,1.1988,Peridotite_12,7,12,1,5,1.199,7,12,0.13,-0.394444444,1,0,0,1.025,Peridotite_rect,7,1.025,1,12,0,12,0,1,,,,,,,,,,,,,
660b50fe7a64661e391dd08c,SCR,2024-06-25_11h40.17.625,LearnStrategy,2023.2.3,Win32,60.24096386,2,1,14,0.383333333,-0.433333333,1,0,0,1.3232,Diorite_15,3,15,1,7,1.323,3,15,-0.332222222,-0.266111111,1,0,0,2.1562,Andesite_rect,1,2.156,0,13,0,13,0,1,,,,,,,,,,,,,
660b50fe7a64661e391dd08c,SCR,2024-06-25_11h40.17.625,LearnStrategy,2023.2.3,Win32,60.24096386,2,1,15,-0.521666667,0.067222222,1,0,0,0.9598,Diorite_16,3,16,4,1,0.96,3,16,0.087777778,-0.253888889,1,0,0,1.6338,Diorite_rect,3,1.634,1,14,0,14,0,1,,,,,,,,,,,,,
660b50fe7a64661e391dd08c,SCR,2024-06-25_11h40.17.625,LearnStrategy,2023.2.3,Win32,60.24096386,2,1,16,0.568333333,-0.11,1,0,0,0.9794,Andesite_03,1,03,3,8,0.979,1,03,-0.105555556,-0.268888889,1,0,0,2.8398,Basalt_rect,2,2.84,0,15,0,15,0,1,,,,,,,,,,,,,
660b50fe7a64661e391dd08c,SCR,2024-06-25_11h40.17.625,LearnStrategy,2023.2.3,Win32,60.24096386,2,2,1,,,,,,,,7,06,,,,,,,,,,,,,7,1.569,1,,,,,,0.080555556,-0.390555556,1,0,0,1.5691,Peridotite_rect,0,0,0,0,1,
660b50fe7a64661e391dd08c,SCR,2024-06-25_11h40.17.625,LearnStrategy,2023.2.3,Win32,60.24096386,2,2,2,,,,,,,,6,06,,,,,,,,,,,,,7,2.262,0,,,,,,0.080555556,-0.390555556,1,0,0,2.2617,Peridotite_rect,1,0,1,0,1,
660b50fe7a64661e391dd08c,SCR,2024-06-25_11h40.17.625,LearnStrategy,2023.2.3,Win32,60.24096386,2,2,3,,,,,,,,2,05,,,,,,,,,,,,,2,2.175,1,,,,,,-0.082777778,-0.249444444,1,0,0,2.1746,Basalt_rect,2,0,2,0,1,
660b50fe7a64661e391dd08c,SCR,2024-06-25_11h40.17.625,LearnStrategy,2023.2.3,Win32,60.24096386,2,2,4,,,,,,,,5,11,,,,,,,,,,,,,5,1.605,1,,,,,,-0.352222222,-0.417777778,1,0,0,1.6049,Obsidian_rect,3,0,3,0,1,
660b50fe7a64661e391dd08c,SCR,2024-06-25_11h40.17.625,LearnStrategy,2023.2.3,Win32,60.24096386,2,2,5,,,,,,,,7,14,,,,,,,,,,,,,7,2.804,1,,,,,,0.08,-0.399444444,1,0,0,2.8041,Peridotite_rect,4,0,4,0,1,
660b50fe7a64661e391dd08c,SCR,2024-06-25_11h40.17.625,LearnStrategy,2023.2.3,Win32,60.24096386,2,2,6,,,,,,,,8,09,,,,,,,,,,,,,8,1.509,1,,,,,,0.382777778,-0.401666667,1,0,0,1.5089,Pumice_rect,5,0,5,0,1,
660b50fe7a64661e391dd08c,SCR,2024-06-25_11h40.17.625,LearnStrategy,2023.2.3,Win32,60.24096386,2,2,7,,,,,,,,3,10,,,,,,,,,,,,,3,6.71,1,,,,,,0.112777778,-0.262777778,1,0,0,6.7098,Diorite_rect,6,0,6,0,1,
660b50fe7a64661e391dd08c,SCR,2024-06-25_11h40.17.625,LearnStrategy,2023.2.3,Win32,60.24096386,2,2,8,,,,,,,,1,01,,,,,,,,,,,,,4,4.199,0,,,,,,0.398333333,-0.236111111,1,0,0,4.1988,Gabbro_rect,7,0,7,0,1,
660b50fe7a64661e391dd08c,SCR,2024-06-25_11h40.17.625,LearnStrategy,2023.2.3,Win32,60.24096386,2,2,9,,,,,,,,4,01,,,,,,,,,,,,,1,2.167,0,,,,,,-0.343333333,-0.255555556,1,0,0,2.1674,Andesite_rect,8,0,8,0,1,
660b50fe7a64661e391dd08c,SCR,2024-06-25_11h40.17.625,LearnStrategy,2023.2.3,Win32,60.24096386,2,2,10,,,,,,,,6,08,,,,,,,,,,,,,6,1.564,1,,,,,,-0.201666667,-0.393888889,1,0,0,1.5637,Pegmatite_rect,9,0,9,0,1,
660b50fe7a64661e391dd08c,SCR,2024-06-25_11h40.17.625,LearnStrategy,2023.2.3,Win32,60.24096386,2,2,11,,,,,,,,8,14,,,,,,,,,,,,,8,1.102,1,,,,,,0.343888889,-0.386111111,1,0,0,1.1025,Pumice_rect,10,0,10,0,1,
660b50fe7a64661e391dd08c,SCR,2024-06-25_11h40.17.625,LearnStrategy,2023.2.3,Win32,60.24096386,2,2,12,,,,,,,,4,12,,,,,,,,,,,,,3,9.705,0,,,,,,0.116666667,-0.247777778,1,0,0,9.705,Diorite_rect,11,0,11,0,1,
660b50fe7a64661e391dd08c,SCR,2024-06-25_11h40.17.625,LearnStrategy,2023.2.3,Win32,60.24096386,2,2,13,,,,,,,,2,04,,,,,,,,,,,,,2,2.077,1,,,,,,-0.087777778,-0.26,1,0,0,2.0768,Basalt_rect,12,0,12,0,1,
660b50fe7a64661e391dd08c,SCR,2024-06-25_11h40.17.625,LearnStrategy,2023.2.3,Win32,60.24096386,2,2,14,,,,,,,,3,14,,,,,,,,,,,,,3,3.463,1,,,,,,0.062777778,-0.248333333,1,0,0,3.4626,Diorite_rect,13,0,13,0,1,
660b50fe7a64661e391dd08c,SCR,2024-06-25_11h40.17.625,LearnStrategy,2023.2.3,Win32,60.24096386,2,2,15,,,,,,,,1,07,,,,,,,,,,,,,3,1.078,0,,,,,,0.062777778,-0.248333333,1,0,0,1.0776,Diorite_rect,14,0,14,0,1,
660b50fe7a64661e391dd08c,SCR,2024-06-25_11h40.17.625,LearnStrategy,2023.2.3,Win32,60.24096386,2,2,16,,,,,,,,5,10,,,,,,,,,,,,,5,1.209,1,,,,,,-0.352777778,-0.407777778,1,0,0,1.2092,Obsidian_rect,15,0,15,0,1,
660b50fe7a64661e391dd08c,SCR,2024-06-25_11h40.17.625,LearnStrategy,2023.2.3,Win32,60.24096386,3,1,1,-0.567777778,-0.248888889,1,0,0,6.5666,Basalt_12,2,12,2,1,6.567,5,14,0.393333333,-0.259444444,1,0,0,5.3195,Gabbro_rect,4,5.32,0,0,0,0,0,1,,,,,,,,,,,,,
660b50fe7a64661e391dd08c,SCR,2024-06-25_11h40.17.625,LearnStrategy,2023.2.3,Win32,60.24096386,3,1,2,-0.541111111,0.283333333,1,0,0,1.1807,Andesite_14,1,14,5,1,1.181,1,14,0.081666667,-0.263333333,1,0,0,2.235,Diorite_rect,3,2.235,0,1,0,1,0,1,,,,,,,,,,,,,
660b50fe7a64661e391dd08c,SCR,2024-06-25_11h40.17.625,LearnStrategy,2023.2.3,Win32,60.24096386,3,1,3,-0.406111111,0.242222222,1,0,0,3.5674,Diorite_08,3,08,5,2,3.567,1,14,0.101111111,-0.253333333,1,0,0,2.3072,Diorite_rect,3,2.307,1,2,0,2,0,1,,,,,,,,,,,,,
660b50fe7a64661e391dd08c,SCR,2024-06-25_11h40.17.625,LearnStrategy,2023.2.3,Win32,60.24096386,3,1,4,0.086111111,0.232222222,1,0,0,1.4143,Andesite_06,1,06,5,5,1.414,1,06,0.133333333,-0.249444444,1,0,0,1.6073,Diorite_rect,3,1.607,0,3,0,3,0,1,,,,,,,,,,,,,
660b50fe7a64661e391dd08c,SCR,2024-06-25_11h40.17.625,LearnStrategy,2023.2.3,Win32,60.24096386,3,1,5,-0.225555556,0.387222222,1,0,0,1.0662,Gabbro_13,4,13,6,3,1.066,4,13,0.436666667,-0.247777778,1,0,0,1.7724,Gabbro_rect,4,1.772,1,4,0,4,0,1,,,,,,,,,,,,,
660b50fe7a64661e391dd08c,SCR,2024-06-25_11h40.17.625,LearnStrategy,2023.2.3,Win32,60.24096386,3,1,6,0.372777778,0.426666667,1,0,0,1.7832,Peridotite_05,7,05,6,7,1.783,7,05,0.175,-0.392222222,1,0,0,2.6483,Peridotite_rect,7,2.648,1,5,0,5,0,1,,,,,,,,,,,,,
660b50fe7a64661e391dd08c,SCR,2024-06-25_11h40.17.625,LearnStrategy,2023.2.3,Win32,60.24096386,3,1,7,-0.075555556,0.357777778,1,0,0,1.3894,Andesite_04,1,04,6,4,1.389,1,04,0.382777778,-0.27,1,0,0,5.5579,Gabbro_rect,4,5.558,0,6,0,6,0,1,,,,,,,,,,,,,
660b50fe7a64661e391dd08c,SCR,2024-06-25_11h40.17.625,LearnStrategy,2023.2.3,Win32,60.24096386,3,1,8,-0.553888889,0.125,1,0,0,1.2054,Diorite_16,3,16,4,1,1.205,3,16,0.076666667,-0.242222222,1,0,0,2.2323,Diorite_rect,3,2.232,1,7,0,7,0,1,,,,,,,,,,,,,
660b50fe7a64661e391dd08c,SCR,2024-06-25_11h40.17.625,LearnStrategy,2023.2.3,Win32,60.24096386,3,1,9,-0.39,-0.111111111,1,0,0,1.1492,Basalt_14,2,14,3,2,1.149,2,14,0.335555556,-0.415555556,1,0,0,1.3675,Pumice_rect,8,1.367,0,8,0,8,0,1,,,,,,,,,,,,,
660b50fe7a64661e391dd08c,SCR,2024-06-25_11h40.17.625,LearnStrategy,2023.2.3,Win32,60.24096386,3,1,10,-0.558333333,0.42,1,0,0,1.4006,Pegmatite_13,6,13,6,1,1.401,6,13,-0.182222222,-0.403888889,1,0,0,1.2071,Pegmatite_rect,6,1.207,1,9,0,9,0,1,,,,,,,,,,,,,
660b50fe7a64661e391dd08c,SCR,2024-06-25_11h40.17.625,LearnStrategy,2023.2.3,Win32,60.24096386,3,1,11,0.085,0.077777778,1,0,0,1.8305,Diorite_12,3,12,4,5,1.831,3,12,0.1,-0.258333333,1,0,0,1.9216,Diorite_rect,3,1.922,1,10,0,10,0,1,,,,,,,,,,,,,
660b50fe7a64661e391dd08c,SCR,2024-06-25_11h40.17.625,LearnStrategy,2023.2.3,Win32,60.24096386,3,1,12,-0.056111111,-0.263888889,1,0,0,0.8568,Pegmatite_07,6,07,2,4,0.857,6,07,-0.132777778,-0.392777778,1,0,0,0.9877,Pegmatite_rect,6,0.988,1,11,0,11,0,1,,,,,,,,,,,,,
660b50fe7a64661e391dd08c,SCR,2024-06-25_11h40.17.625,LearnStrategy,2023.2.3,Win32,60.24096386,3,1,13,0.547222222,0.405555556,1,0,0,1.8989,Basalt_02,2,02,6,8,1.899,2,02,-0.070555556,-0.235555556,1,0,0,1.0232,Basalt_rect,2,1.023,1,12,0,12,0,1,,,,,,,,,,,,,
660b50fe7a64661e391dd08c,SCR,2024-06-25_11h40.17.625,LearnStrategy,2023.2.3,Win32,60.24096386,3,1,14,0.528333333,-0.255555556,1,0,0,1.4813,Gabbro_09,4,09,2,8,1.481,4,09,-0.086111111,-0.257222222,1,0,0,3.4738,Basalt_rect,2,3.474,0,13,0,13,0,1,,,,,,,,,,,,,
660b50fe7a64661e391dd08c,SCR,2024-06-25_11h40.17.625,LearnStrategy,2023.2.3,Win32,60.24096386,3,1,15,0.069444444,-0.267777778,1,0,0,1.8136,Pegmatite_09,6,09,2,5,1.814,6,09,0.172777778,-0.418888889,1,0,0,1.2754,Peridotite_rect,7,1.275,0,14,0,14,0,1,,,,,,,,,,,,,
660b50fe7a64661e391dd08c,SCR,2024-06-25_11h40.17.625,LearnStrategy,2023.2.3,Win32,60.24096386,3,1,16,-0.359444444,-0.237777778,1,0,0,0.9345,Gabbro_10,4,10,2,2,0.935,4,10,0.39,-0.251111111,1,0,0,2.8092,Gabbro_rect,4,2.809,1,15,0,15,0,1,,,,,,,,,,,,,
660b50fe7a64661e391dd08c,SCR,2024-06-25_11h40.17.625,LearnStrategy,2023.2.3,Win32,60.24096386,3,2,1,,,,,,,,2,11,,,,,,,,,,,,,1,3.835,0,,,,,,-0.355555556,-0.243888889,1,0,0,3.8355,Andesite_rect,0,0,0,0,1,
660b50fe7a64661e391dd08c,SCR,2024-06-25_11h40.17.625,LearnStrategy,2023.2.3,Win32,60.24096386,3,2,2,,,,,,,,3,13,,,,,,,,,,,,,3,2.263,1,,,,,,0.121111111,-0.261111111,1,0,0,2.2634,Diorite_rect,1,0,1,0,1,
660b50fe7a64661e391dd08c,SCR,2024-06-25_11h40.17.625,LearnStrategy,2023.2.3,Win32,60.24096386,3,2,3,,,,,,,,1,16,,,,,,,,,,,,,3,3.866,0,,,,,,0.121111111,-0.261111111,1,0,0,3.8663,Diorite_rect,2,0,2,0,1,
660b50fe7a64661e391dd08c,SCR,2024-06-25_11h40.17.625,LearnStrategy,2023.2.3,Win32,60.24096386,3,2,4,,,,,,,,7,13,,,,,,,,,,,,,7,1.064,1,,,,,,0.141666667,-0.390555556,1,0,0,1.0643,Peridotite_rect,3,0,3,0,1,
660b50fe7a64661e391dd08c,SCR,2024-06-25_11h40.17.625,LearnStrategy,2023.2.3,Win32,60.24096386,3,2,5,,,,,,,,8,10,,,,,,,,,,,,,8,1.124,1,,,,,,0.402777778,-0.403333333,1,0,0,1.1243,Pumice_rect,4,0,4,0,1,
660b50fe7a64661e391dd08c,SCR,2024-06-25_11h40.17.625,LearnStrategy,2023.2.3,Win32,60.24096386,3,2,6,,,,,,,,6,16,,,,,,,,,,,,,6,2.103,1,,,,,,-0.098888889,-0.419444444,1,0,0,2.1033,Pegmatite_rect,5,0,5,0,1,
660b50fe7a64661e391dd08c,SCR,2024-06-25_11h40.17.625,LearnStrategy,2023.2.3,Win32,60.24096386,3,2,7,,,,,,,,2,16,,,,,,,,,,,,,4,1.626,0,,,,,,0.410555556,-0.26,1,0,0,1.6259,Gabbro_rect,6,0,6,0,1,
660b50fe7a64661e391dd08c,SCR,2024-06-25_11h40.17.625,LearnStrategy,2023.2.3,Win32,60.24096386,3,2,8,,,,,,,,6,03,,,,,,,,,,,,,7,1.335,0,,,,,,0.163888889,-0.416111111,1,0,0,1.3348,Peridotite_rect,7,0,7,0,1,
660b50fe7a64661e391dd08c,SCR,2024-06-25_11h40.17.625,LearnStrategy,2023.2.3,Win32,60.24096386,3,2,9,,,,,,,,8,04,,,,,,,,,,,,,8,1.141,1,,,,,,0.4,-0.390555556,1,0,0,1.1414,Pumice_rect,8,0,8,0,1,
660b50fe7a64661e391dd08c,SCR,2024-06-25_11h40.17.625,LearnStrategy,2023.2.3,Win32,60.24096386,3,2,10,,,,,,,,5,04,,,,,,,,,,,,,5,1.333,1,,,,,,-0.324444444,-0.399444444,1,0,0,1.333,Obsidian_rect,9,0,9,0,1,
660b50fe7a64661e391dd08c,SCR,2024-06-25_11h40.17.625,LearnStrategy,2023.2.3,Win32,60.24096386,3,2,11,,,,,,,,5,05,,,,,,,,,,,,,5,0.977,1,,,,,,-0.326666667,-0.383333333,1,0,0,0.9773,Obsidian_rect,10,0,10,0,1,
660b50fe7a64661e391dd08c,SCR,2024-06-25_11h40.17.625,LearnStrategy,2023.2.3,Win32,60.24096386,3,2,12,,,,,,,,4,11,,,,,,,,,,,,,3,8.118,0,,,,,,0.029444444,-0.255555556,1,0,0,8.1177,Diorite_rect,11,0,11,0,1,
660b50fe7a64661e391dd08c,SCR,2024-06-25_11h40.17.625,LearnStrategy,2023.2.3,Win32,60.24096386,3,2,13,,,,,,,,3,06,,,,,,,,,,,,,3,1.316,1,,,,,,0.052222222,-0.252777778,1,0,0,1.3156,Diorite_rect,12,0,12,0,1,
660b50fe7a64661e391dd08c,SCR,2024-06-25_11h40.17.625,LearnStrategy,2023.2.3,Win32,60.24096386,3,2,14,,,,,,,,4,14,,,,,,,,,,,,,4,1.139,1,,,,,,0.441666667,-0.262777778,1,0,0,1.1394,Gabbro_rect,13,0,13,0,1,
660b50fe7a64661e391dd08c,SCR,2024-06-25_11h40.17.625,LearnStrategy,2023.2.3,Win32,60.24096386,3,2,15,,,,,,,,1,09,,,,,,,,,,,,,1,1.847,1,,,,,,-0.347222222,-0.267777778,1,0,0,1.8475,Andesite_rect,14,0,14,0,1,
660b50fe7a64661e391dd08c,SCR,2024-06-25_11h40.17.625,LearnStrategy,2023.2.3,Win32,60.24096386,3,2,16,,,,,,,,7,16,,,,,,,,,,,,,7,1.39,1,,,,,,0.123888889,-0.390555556,1,0,0,1.3896,Peridotite_rect,15,0,15,0,1,
660b50fe7a64661e391dd08c,SCR,2024-06-25_11h40.17.625,LearnStrategy,2023.2.3,Win32,60.24096386,4,1,1,-0.213888889,-0.233333333,1,0,0,1.7813,Gabbro_03,4,03,2,3,1.781,4,03,-0.305555556,-0.258888889,1,0,0,1.7769,Andesite_rect,1,1.777,0,0,0,0,0,1,,,,,,,,,,,,,
660b50fe7a64661e391dd08c,SCR,2024-06-25_11h40.17.625,LearnStrategy,2023.2.3,Win32,60.24096386,4,1,2,0.038888889,0.255,1,0,0,0.8788,Andesite_06,1,06,5,5,0.879,1,06,-0.312777778,-0.240555556,1,0,0,2.6487,Andesite_rect,1,2.649,1,1,0,1,0,1,,,,,,,,,,,,,
660b50fe7a64661e391dd08c,SCR,2024-06-25_11h40.17.625,LearnStrategy,2023.2.3,Win32,60.24096386,4,1,3,-0.062777778,-0.076666667,1,0,0,0.7612,Pegmatite_15,6,15,3,4,0.761,6,15,-0.107222222,-0.406111111,1,0,0,0.7258,Pegmatite_rect,6,0.726,1,2,0,2,0,1,,,,,,,,,,,,,
660b50fe7a64661e391dd08c,SCR,2024-06-25_11h40.17.625,LearnStrategy,2023.2.3,Win32,60.24096386,4,1,4,0.222777778,0.407222222,1,0,0,0.9652,Andesite_10,1,10,6,6,0.965,1,10,-0.350555556,-0.233888889,1,0,0,1.3315,Andesite_rect,1,1.332,1,3,0,3,0,1,,,,,,,,,,,,,
660b50fe7a64661e391dd08c,SCR,2024-06-25_11h40.17.625,LearnStrategy,2023.2.3,Win32,60.24096386,4,1,5,0.545555556,0.421666667,1,0,0,0.981,Basalt_02,2,02,6,8,0.981,2,02,-0.078333333,-0.266666667,1,0,0,1.3251,Basalt_rect,2,1.325,1,4,0,4,0,1,,,,,,,,,,,,,
660b50fe7a64661e391dd08c,SCR,2024-06-25_11h40.17.625,LearnStrategy,2023.2.3,Win32,60.24096386,4,1,6,-0.087777778,0.409444444,1,0,0,1.0983,Andesite_04,1,04,6,4,1.098,1,04,0.075,-0.257222222,1,0,0,3.0781,Diorite_rect,3,3.078,0,5,0,5,0,1,,,,,,,,,,,,,
660b50fe7a64661e391dd08c,SCR,2024-06-25_11h40.17.625,LearnStrategy,2023.2.3,Win32,60.24096386,4,1,7,-0.266111111,0.431666667,1,0,0,0.9534,Gabbro_13,4,13,6,3,0.953,4,13,0.413333333,-0.249444444,1,0,0,1.2056,Gabbro_rect,4,1.206,1,6,0,6,0,1,,,,,,,,,,,,,
660b50fe7a64661e391dd08c,SCR,2024-06-25_11h40.17.625,LearnStrategy,2023.2.3,Win32,60.24096386,4,1,8,-0.391111111,-0.073888889,1,0,0,0.9667,Basalt_14,2,14,3,2,0.967,2,14,0.35,-0.258888889,1,0,0,0.9329,Gabbro_rect,4,0.933,0,7,0,7,0,1,,,,,,,,,,,,,
660b50fe7a64661e391dd08c,SCR,2024-06-25_11h40.17.625,LearnStrategy,2023.2.3,Win32,60.24096386,4,1,9,-0.508888889,0.397222222,1,0,0,0.9834,Pegmatite_13,6,13,6,1,0.983,6,13,-0.144444444,-0.411111111,1,0,0,1.2831,Pegmatite_rect,6,1.283,1,8,0,8,0,1,,,,,,,,,,,,,
660b50fe7a64661e391dd08c,SCR,2024-06-25_11h40.17.625,LearnStrategy,2023.2.3,Win32,60.24096386,4,1,10,0.551666667,-0.436666667,1,0,0,1.8128,Diorite_11,3,11,1,8,1.813,3,11,0.071666667,-0.233888889,1,0,0,2.1326,Diorite_rect,3,2.133,1,9,0,9,0,1,,,,,,,,,,,,,
660b50fe7a64661e391dd08c,SCR,2024-06-25_11h40.17.625,LearnStrategy,2023.2.3,Win32,60.24096386,4,1,11,0.190555556,-0.404444444,1,0,0,2.7336,Pumice_15,8,15,1,6,2.734,3,11,0.422777778,-0.405,1,0,0,0.9439,Pumice_rect,8,0.944,1,10,0,10,0,1,,,,,,,,,,,,,
660b50fe7a64661e391dd08c,SCR,2024-06-25_11h40.17.625,LearnStrategy,2023.2.3,Win32,60.24096386,4,1,12,-0.236666667,-0.406666667,1,0,0,0.9787,Basalt_08,2,08,1,3,0.979,1,14,-0.176111111,-0.255,1,0,0,0.9642,Basalt_rect,2,0.964,1,11,0,11,0,1,,,,,,,,,,,,,
660b50fe7a64661e391dd08c,SCR,2024-06-25_11h40.17.625,LearnStrategy,2023.2.3,Win32,60.24096386,4,1,13,-0.367222222,-0.402777778,1,0,0,1.0072,Gabbro_08,4,08,1,2,1.007,6,07,-0.335,-0.266111111,1,0,0,2.5955,Andesite_rect,1,2.596,0,12,0,12,0,1,,,,,,,,,,,,,
660b50fe7a64661e391dd08c,SCR,2024-06-25_11h40.17.625,LearnStrategy,2023.2.3,Win32,60.24096386,4,1,14,-0.406111111,-0.277777778,1,0,0,0.8957,Gabbro_10,4,10,2,2,0.896,4,10,0.396666667,-0.251111111,1,0,0,1.9902,Gabbro_rect,4,1.99,1,13,0,13,0,1,,,,,,,,,,,,,
660b50fe7a64661e391dd08c,SCR,2024-06-25_11h40.17.625,LearnStrategy,2023.2.3,Win32,60.24096386,4,1,15,-0.511111111,-0.230555556,1,0,0,0.8762,Basalt_12,2,12,2,1,0.876,2,12,-0.188888889,-0.271666667,1,0,0,3.0252,Basalt_rect,2,3.025,1,14,0,14,0,1,,,,,,,,,,,,,
660b50fe7a64661e391dd08c,SCR,2024-06-25_11h40.17.625,LearnStrategy,2023.2.3,Win32,60.24096386,4,1,16,0.414444444,-0.259444444,1,0,0,1.0478,Peridotite_08,7,08,2,7,1.048,7,08,0.168333333,-0.395555556,1,0,0,1.3247,Peridotite_rect,7,1.325,1,15,0,15,0,1,,,,,,,,,,,,,
660b50fe7a64661e391dd08c,SCR,2024-06-25_11h40.17.625,LearnStrategy,2023.2.3,Win32,60.24096386,4,2,1,,,,,,,,4,11,,,,,,,,,,,,,1,3.146,0,,,,,,-0.310555556,-0.245555556,1,0,0,3.1462,Andesite_rect,0,0,0,0,1,
660b50fe7a64661e391dd08c,SCR,2024-06-25_11h40.17.625,LearnStrategy,2023.2.3,Win32,60.24096386,4,2,2,,,,,,,,5,05,,,,,,,,,,,,,5,1.443,1,,,,,,-0.354444444,-0.412777778,1,0,0,1.4431,Obsidian_rect,1,0,1,0,1,
660b50fe7a64661e391dd08c,SCR,2024-06-25_11h40.17.625,LearnStrategy,2023.2.3,Win32,60.24096386,4,2,3,,,,,,,,6,06,,,,,,,,,,,,,7,3.874,0,,,,,,0.030555556,-0.398333333,1,0,0,3.8744,Peridotite_rect,2,0,2,0,1,
660b50fe7a64661e391dd08c,SCR,2024-06-25_11h40.17.625,LearnStrategy,2023.2.3,Win32,60.24096386,4,2,4,,,,,,,,4,12,,,,,,,,,,,,,1,2.806,0,,,,,,-0.31,-0.261111111,1,0,0,2.8059,Andesite_rect,3,0,3,0,1,
660b50fe7a64661e391dd08c,SCR,2024-06-25_11h40.17.625,LearnStrategy,2023.2.3,Win32,60.24096386,4,2,5,,,,,,,,7,14,,,,,,,,,,,,,7,1.285,1,,,,,,0.082777778,-0.413888889,1,0,0,1.2854,Peridotite_rect,4,0,4,0,1,
660b50fe7a64661e391dd08c,SCR,2024-06-25_11h40.17.625,LearnStrategy,2023.2.3,Win32,60.24096386,4,2,6,,,,,,,,8,06,,,,,,,,,,,,,8,0.964,1,,,,,,0.341666667,-0.402222222,1,0,0,0.964,Pumice_rect,5,0,5,0,1,
660b50fe7a64661e391dd08c,SCR,2024-06-25_11h40.17.625,LearnStrategy,2023.2.3,Win32,60.24096386,4,2,7,,,,,,,,5,04,,,,,,,,,,,,,5,1.194,1,,,,,,-0.316666667,-0.388333333,1,0,0,1.1939,Obsidian_rect,6,0,6,0,1,
660b50fe7a64661e391dd08c,SCR,2024-06-25_11h40.17.625,LearnStrategy,2023.2.3,Win32,60.24096386,4,2,8,,,,,,,,1,01,,,,,,,,,,,,,5,0.715,0,,,,,,-0.317222222,-0.388333333,1,0,0,0.7151,Obsidian_rect,7,0,7,0,1,
660b50fe7a64661e391dd08c,SCR,2024-06-25_11h40.17.625,LearnStrategy,2023.2.3,Win32,60.24096386,4,2,9,,,,,,,,3,13,,,,,,,,,,,,,3,1.392,1,,,,,,0.062222222,-0.251666667,1,0,0,1.3918,Diorite_rect,8,0,8,0,1,
660b50fe7a64661e391dd08c,SCR,2024-06-25_11h40.17.625,LearnStrategy,2023.2.3,Win32,60.24096386,4,2,10,,,,,,,,2,05,,,,,,,,,,,,,2,1.159,1,,,,,,-0.101111111,-0.256666667,1,0,0,1.1588,Basalt_rect,9,0,9,0,1,
660b50fe7a64661e391dd08c,SCR,2024-06-25_11h40.17.625,LearnStrategy,2023.2.3,Win32,60.24096386,4,2,11,,,,,,,,2,09,,,,,,,,,,,,,2,2.693,1,,,,,,-0.105,-0.250555556,1,0,0,2.6931,Basalt_rect,10,0,10,0,1,
660b50fe7a64661e391dd08c,SCR,2024-06-25_11h40.17.625,LearnStrategy,2023.2.3,Win32,60.24096386,4,2,12,,,,,,,,8,10,,,,,,,,,,,,,8,1.231,1,,,,,,0.374444444,-0.401666667,1,0,0,1.2306,Pumice_rect,11,0,11,0,1,
660b50fe7a64661e391dd08c,SCR,2024-06-25_11h40.17.625,LearnStrategy,2023.2.3,Win32,60.24096386,4,2,13,,,,,,,,3,07,,,,,,,,,,,,,3,1.781,1,,,,,,0.126111111,-0.263333333,1,0,0,1.7809,Diorite_rect,12,0,12,0,1,
660b50fe7a64661e391dd08c,SCR,2024-06-25_11h40.17.625,LearnStrategy,2023.2.3,Win32,60.24096386,4,2,14,,,,,,,,7,06,,,,,,,,,,,,,7,1.036,1,,,,,,0.136666667,-0.408888889,1,0,0,1.0357,Peridotite_rect,13,0,13,0,1,
660b50fe7a64661e391dd08c,SCR,2024-06-25_11h40.17.625,LearnStrategy,2023.2.3,Win32,60.24096386,4,2,15,,,,,,,,1,07,,,,,,,,,,,,,3,4.403,0,,,,,,0.034444444,-0.257777778,1,0,0,4.4034,Diorite_rect,14,0,14,0,1,
660b50fe7a64661e391dd08c,SCR,2024-06-25_11h40.17.625,LearnStrategy,2023.2.3,Win32,60.24096386,4,2,16,,,,,,,,6,10,,,,,,,,,,,,,7,2.966,0,,,,,,0.08,-0.408333333,1,0,0,2.966,Peridotite_rect,15,0,15,0,1,
660b50fe7a64661e391dd08c,SCR,2024-06-25_11h40.17.625,LearnStrategy,2023.2.3,Win32,60.24096386,5,1,1,-0.363333333,-0.399444444,1,0,0,3.0988,Gabbro_08,4,08,1,2,3.099,4,08,-0.374444444,-0.266111111,1,0,0,1.4865,Andesite_rect,1,1.486,0,0,0,0,0,1,,,,,,,,,,,,,
660b50fe7a64661e391dd08c,SCR,2024-06-25_11h40.17.625,LearnStrategy,2023.2.3,Win32,60.24096386,5,1,2,0.527777778,-0.242777778,1,0,0,1.4517,Gabbro_09,4,09,2,8,1.452,4,09,0.465555556,-0.240555556,1,0,0,1.7242,Gabbro_rect,4,1.724,1,1,0,1,0,1,,,,,,,,,,,,,
660b50fe7a64661e391dd08c,SCR,2024-06-25_11h40.17.625,LearnStrategy,2023.2.3,Win32,60.24096386,5,1,3,0.525555556,0.405,1,0,0,1.3252,Basalt_02,2,02,6,8,1.325,2,02,-0.128333333,-0.236666667,1,0,0,0.7493,Basalt_rect,2,0.749,1,2,0,2,0,1,,,,,,,,,,,,,
660b50fe7a64661e391dd08c,SCR,2024-06-25_11h40.17.625,LearnStrategy,2023.2.3,Win32,60.24096386,5,1,4,0.068888889,0.384444444,1,0,0,1.214,Pegmatite_12,6,12,6,5,1.214,6,12,-0.106111111,-0.397222222,1,0,0,1.2431,Pegmatite_rect,6,1.243,1,3,0,3,0,1,,,,,,,,,,,,,
660b50fe7a64661e391dd08c,SCR,2024-06-25_11h40.17.625,LearnStrategy,2023.2.3,Win32,60.24096386,5,1,5,0.217777778,0.39,1,0,0,1.5834,Andesite_10,1,10,6,6,1.583,1,10,-0.336666667,-0.235555556,1,0,0,1.9872,Andesite_rect,1,1.987,1,4,0,4,0,1,,,,,,,,,,,,,
660b50fe7a64661e391dd08c,SCR,2024-06-25_11h40.17.625,LearnStrategy,2023.2.3,Win32,60.24096386,5,1,6,-0.531666667,0.113333333,1,0,0,2.4561,Diorite_16,3,16,4,1,2.456,5,14,0.102777778,-0.263888889,1,0,0,2.275,Diorite_rect,3,2.275,1,5,0,5,0,1,,,,,,,,,,,,,
660b50fe7a64661e391dd08c,SCR,2024-06-25_11h40.17.625,LearnStrategy,2023.2.3,Win32,60.24096386,5,1,7,-0.373333333,-0.091666667,1,0,0,1.3445,Basalt_14,2,14,3,2,1.345,2,14,0.392222222,-0.251111111,1,0,0,1.7868,Gabbro_rect,4,1.787,0,6,0,6,0,1,,,,,,,,,,,,,
660b50fe7a64661e391dd08c,SCR,2024-06-25_11h40.17.625,LearnStrategy,2023.2.3,Win32,60.24096386,5,1,8,-0.197222222,-0.225555556,1,0,0,1.7633,Gabbro_03,4,03,2,3,1.763,4,03,-0.3,-0.255555556,1,0,0,2.7085,Andesite_rect,1,2.708,0,7,0,7,0,1,,,,,,,,,,,,,
660b50fe7a64661e391dd08c,SCR,2024-06-25_11h40.17.625,LearnStrategy,2023.2.3,Win32,60.24096386,5,1,9,-0.403333333,0.38,1,0,0,1.0844,Andesite_05,1,05,6,2,1.084,1,05,0.346111111,-0.265555556,1,0,0,1.9017,Gabbro_rect,4,1.902,0,8,0,8,0,1,,,,,,,,,,,,,
660b50fe7a64661e391dd08c,SCR,2024-06-25_11h40.17.625,LearnStrategy,2023.2.3,Win32,60.24096386,5,1,10,-0.374444444,0.095555556,1,0,0,0.8809,Pegmatite_05,6,05,4,2,0.881,6,05,-0.105555556,-0.398888889,1,0,0,1.2722,Pegmatite_rect,6,1.272,1,9,0,9,0,1,,,,,,,,,,,,,
660b50fe7a64661e391dd08c,SCR,2024-06-25_11h40.17.625,LearnStrategy,2023.2.3,Win32,60.24096386,5,1,11,-0.386666667,0.223888889,1,0,0,1.065,Diorite_08,3,08,5,2,1.065,3,08,0.112777778,-0.253888889,1,0,0,1.1619,Diorite_rect,3,1.162,1,10,0,10,0,1,,,,,,,,,,,,,
660b50fe7a64661e391dd08c,SCR,2024-06-25_11h40.17.625,LearnStrategy,2023.2.3,Win32,60.24096386,5,1,12,-0.079444444,-0.422222222,1,0,0,1.3546,Peridotite_02,7,02,1,4,1.355,7,02,0.112222222,-0.395,1,0,0,0.9092,Peridotite_rect,7,0.909,1,11,0,11,0,1,,,,,,,,,,,,,
660b50fe7a64661e391dd08c,SCR,2024-06-25_11h40.17.625,LearnStrategy,2023.2.3,Win32,60.24096386,5,1,13,0.075,0.231666667,1,0,0,2.9981,Andesite_06,1,06,5,5,2.998,1,10,-0.356666667,-0.24,1,0,0,5.0031,Andesite_rect,1,5.003,1,12,0,12,0,1,,,,,,,,,,,,,
660b50fe7a64661e391dd08c,SCR,2024-06-25_11h40.17.625,LearnStrategy,2023.2.3,Win32,60.24096386,5,1,14,-0.087777778,-0.230555556,1,0,0,0.8178,Pegmatite_07,6,07,2,4,0.818,6,07,-0.091111111,-0.385,1,0,0,0.9779,Pegmatite_rect,6,0.978,1,13,0,13,0,1,,,,,,,,,,,,,
660b50fe7a64661e391dd08c,SCR,2024-06-25_11h40.17.625,LearnStrategy,2023.2.3,Win32,60.24096386,5,1,15,0.062222222,0.255555556,1,0,0,0.8479,Andesite_06,1,06,5,5,0.848,1,06,-0.373333333,-0.268333333,1,0,0,1.2098,Andesite_rect,1,1.21,1,14,0,14,0,1,,,,,,,,,,,,,
660b50fe7a64661e391dd08c,SCR,2024-06-25_11h40.17.625,LearnStrategy,2023.2.3,Win32,60.24096386,5,1,16,0.562777778,-0.254444444,1,0,0,1.1501,Gabbro_09,4,09,2,8,1.15,4,09,0.433333333,-0.26,1,0,0,1.3233,Gabbro_rect,4,1.323,1,15,0,15,0,1,,,,,,,,,,,,,
660b50fe7a64661e391dd08c,SCR,2024-06-25_11h40.17.625,LearnStrategy,2023.2.3,Win32,60.24096386,5,2,1,,,,,,,,2,04,,,,,,,,,,,,,2,1.077,1,,,,,,-0.079444444,-0.247222222,1,0,0,1.0771,Basalt_rect,0,0,0,0,1,
660b50fe7a64661e391dd08c,SCR,2024-06-25_11h40.17.625,LearnStrategy,2023.2.3,Win32,60.24096386,5,2,2,,,,,,,,8,02,,,,,,,,,,,,,8,1.378,1,,,,,,0.443333333,-0.410555556,1,0,0,1.3776,Pumice_rect,1,0,1,0,1,
660b50fe7a64661e391dd08c,SCR,2024-06-25_11h40.17.625,LearnStrategy,2023.2.3,Win32,60.24096386,5,2,3,,,,,,,,7,13,,,,,,,,,,,,,7,0.996,1,,,,,,0.177777778,-0.394444444,1,0,0,0.9962,Peridotite_rect,2,0,2,0,1,
660b50fe7a64661e391dd08c,SCR,2024-06-25_11h40.17.625,LearnStrategy,2023.2.3,Win32,60.24096386,5,2,4,,,,,,,,7,07,,,,,,,,,,,,,7,1.245,1,,,,,,0.122222222,-0.4,1,0,0,1.2454,Peridotite_rect,3,0,3,0,1,
660b50fe7a64661e391dd08c,SCR,2024-06-25_11h40.17.625,LearnStrategy,2023.2.3,Win32,60.24096386,5,2,5,,,,,,,,8,04,,,,,,,,,,,,,8,1.011,1,,,,,,0.371666667,-0.402777778,1,0,0,1.0108,Pumice_rect,4,0,4,0,1,
660b50fe7a64661e391dd08c,SCR,2024-06-25_11h40.17.625,LearnStrategy,2023.2.3,Win32,60.24096386,5,2,6,,,,,,,,6,11,,,,,,,,,,,,,6,1.424,1,,,,,,-0.075,-0.398333333,1,0,0,1.4243,Pegmatite_rect,5,0,5,0,1,
660b50fe7a64661e391dd08c,SCR,2024-06-25_11h40.17.625,LearnStrategy,2023.2.3,Win32,60.24096386,5,2,7,,,,,,,,4,16,,,,,,,,,,,,,4,2.695,1,,,,,,0.342222222,-0.258333333,1,0,0,2.695,Gabbro_rect,6,0,6,0,1,
660b50fe7a64661e391dd08c,SCR,2024-06-25_11h40.17.625,LearnStrategy,2023.2.3,Win32,60.24096386,5,2,8,,,,,,,,1,02,,,,,,,,,,,,,3,2.951,0,,,,,,0.079444444,-0.254444444,1,0,0,2.9506,Diorite_rect,7,0,7,0,1,
660b50fe7a64661e391dd08c,SCR,2024-06-25_11h40.17.625,LearnStrategy,2023.2.3,Win32,60.24096386,5,2,9,,,,,,,,4,14,,,,,,,,,,,,,4,3.6,1,,,,,,0.362222222,-0.249444444,1,0,0,3.5999,Gabbro_rect,8,0,8,0,1,
660b50fe7a64661e391dd08c,SCR,2024-06-25_11h40.17.625,LearnStrategy,2023.2.3,Win32,60.24096386,5,2,10,,,,,,,,5,06,,,,,,,,,,,,,5,1.175,1,,,,,,-0.347777778,-0.388333333,1,0,0,1.1748,Obsidian_rect,9,0,9,0,1,
660b50fe7a64661e391dd08c,SCR,2024-06-25_11h40.17.625,LearnStrategy,2023.2.3,Win32,60.24096386,5,2,11,,,,,,,,3,02,,,,,,,,,,,,,3,1.623,1,,,,,,0.043333333,-0.261111111,1,0,0,1.6229,Diorite_rect,10,0,10,0,1,
660b50fe7a64661e391dd08c,SCR,2024-06-25_11h40.17.625,LearnStrategy,2023.2.3,Win32,60.24096386,5,2,12,,,,,,,,6,03,,,,,,,,,,,,,6,1.077,1,,,,,,-0.101666667,-0.401666667,1,0,0,1.0771,Pegmatite_rect,11,0,11,0,1,
660b50fe7a64661e391dd08c,SCR,2024-06-25_11h40.17.625,LearnStrategy,2023.2.3,Win32,60.24096386,5,2,13,,,,,,,,1,09,,,,,,,,,,,,,1,1.509,1,,,,,,-0.329444444,-0.268888889,1,0,0,1.5087,Andesite_rect,12,0,12,0,1,
660b50fe7a64661e391dd08c,SCR,2024-06-25_11h40.17.625,LearnStrategy,2023.2.3,Win32,60.24096386,5,2,14,,,,,,,,3,14,,,,,,,,,,,,,3,1.477,1,,,,,,0.086666667,-0.263333333,1,0,0,1.4774,Diorite_rect,13,0,13,0,1,
660b50fe7a64661e391dd08c,SCR,2024-06-25_11h40.17.625,LearnStrategy,2023.2.3,Win32,60.24096386,5,2,15,,,,,,,,2,16,,,,,,,,,,,,,4,1.373,0,,,,,,0.333333333,-0.248333333,1,0,0,1.373,Gabbro_rect,14,0,14,0,1,
660b50fe7a64661e391dd08c,SCR,2024-06-25_11h40.17.625,LearnStrategy,2023.2.3,Win32,60.24096386,5,2,16,,,,,,,,5,02,,,,,,,,,,,,,5,1.13,1,,,,,,-0.297777778,-0.398888889,1,0,0,1.1302,Obsidian_rect,15,0,15,0,1,
660b50fe7a64661e391dd08c,SCR,2024-06-25_11h40.17.625,LearnStrategy,2023.2.3,Win32,60.24096386,6,1,1,-0.06,0.122222222,1,0,0,1.4817,Gabbro_15,4,15,4,4,1.482,4,15,0.339444444,-0.253888889,1,0,0,6.0029,Gabbro_rect,4,6.003,1,0,0,0,0,1,,,,,,,,,,,,,
660b50fe7a64661e391dd08c,SCR,2024-06-25_11h40.17.625,LearnStrategy,2023.2.3,Win32,60.24096386,6,1,2,0.533333333,-0.122222222,1,0,0,1.1977,Andesite_03,1,03,3,8,1.198,1,03,-0.302777778,-0.263888889,1,0,0,1.8762,Andesite_rect,1,1.876,1,1,0,1,0,1,,,,,,,,,,,,,
660b50fe7a64661e391dd08c,SCR,2024-06-25_11h40.17.625,LearnStrategy,2023.2.3,Win32,60.24096386,6,1,3,0.207777778,0.081111111,1,0,0,1.1145,Diorite_09,3,09,4,6,1.115,3,09,0.118333333,-0.263333333,1,0,0,0.8771,Diorite_rect,3,0.877,1,2,0,2,0,1,,,,,,,,,,,,,
660b50fe7a64661e391dd08c,SCR,2024-06-25_11h40.17.625,LearnStrategy,2023.2.3,Win32,60.24096386,6,1,4,-0.541111111,0.396666667,1,0,0,1.389,Pegmatite_13,6,13,6,1,1.389,6,13,-0.175555556,-0.398333333,1,0,0,1.0141,Pegmatite_rect,6,1.014,1,3,0,3,0,1,,,,,,,,,,,,,
660b50fe7a64661e391dd08c,SCR,2024-06-25_11h40.17.625,LearnStrategy,2023.2.3,Win32,60.24096386,6,1,5,0.508888889,-0.247777778,1,0,0,1.0249,Gabbro_09,4,09,2,8,1.025,4,09,0.506666667,-0.246111111,1,0,0,0.9469,Gabbro_rect,4,0.947,1,4,0,4,0,1,,,,,,,,,,,,,
660b50fe7a64661e391dd08c,SCR,2024-06-25_11h40.17.625,LearnStrategy,2023.2.3,Win32,60.24096386,6,1,6,-0.219444444,-0.402777778,1,0,0,0.918,Basalt_08,2,08,1,3,0.918,2,08,-0.153888889,-0.252777778,1,0,0,0.8806,Basalt_rect,2,0.881,1,5,0,5,0,1,,,,,,,,,,,,,
660b50fe7a64661e391dd08c,SCR,2024-06-25_11h40.17.625,LearnStrategy,2023.2.3,Win32,60.24096386,6,1,7,-0.385,-0.077777778,1,0,0,0.8403,Basalt_14,2,14,3,2,0.84,2,14,-0.201666667,-0.250555556,1,0,0,2.6255,Basalt_rect,2,2.625,1,6,0,6,0,1,,,,,,,,,,,,,
660b50fe7a64661e391dd08c,SCR,2024-06-25_11h40.17.625,LearnStrategy,2023.2.3,Win32,60.24096386,6,1,8,0.540555556,0.397222222,1,0,0,0.9944,Basalt_02,2,02,6,8,0.994,2,02,-0.101666667,-0.268888889,1,0,0,1.0591,Basalt_rect,2,1.059,1,7,0,7,0,1,,,,,,,,,,,,,
660b50fe7a64661e391dd08c,SCR,2024-06-25_11h40.17.625,LearnStrategy,2023.2.3,Win32,60.24096386,6,1,9,0.365555556,0.099444444,1,0,0,0.8802,Obsidian_09,5,09,4,7,0.88,5,09,-0.337777778,-0.384444444,1,0,0,1.2172,Obsidian_rect,5,1.217,1,8,0,8,0,1,,,,,,,,,,,,,
660b50fe7a64661e391dd08c,SCR,2024-06-25_11h40.17.625,LearnStrategy,2023.2.3,Win32,60.24096386,6,1,10,0.042777778,0.258888889,1,0,0,0.8645,Andesite_06,1,06,5,5,0.864,1,06,0.056666667,-0.256666667,1,0,0,2.5149,Diorite_rect,3,2.515,0,9,0,9,0,1,,,,,,,,,,,,,
660b50fe7a64661e391dd08c,SCR,2024-06-25_11h40.17.625,LearnStrategy,2023.2.3,Win32,60.24096386,6,1,11,0.202222222,0.41,1,0,0,1.0003,Andesite_10,1,10,6,6,1,1,10,-0.361111111,-0.232222222,1,0,0,1.8545,Andesite_rect,1,1.855,1,10,0,10,0,1,,,,,,,,,,,,,
660b50fe7a64661e391dd08c,SCR,2024-06-25_11h40.17.625,LearnStrategy,2023.2.3,Win32,60.24096386,6,1,12,-0.076666667,-0.245,1,0,0,0.7489,Pegmatite_07,6,07,2,4,0.749,6,07,-0.115,-0.38,1,0,0,0.7303,Pegmatite_rect,6,0.73,1,11,0,11,0,1,,,,,,,,,,,,,
660b50fe7a64661e391dd08c,SCR,2024-06-25_11h40.17.625,LearnStrategy,2023.2.3,Win32,60.24096386,6,1,13,-0.371111111,0.104444444,1,0,0,0.7443,Pegmatite_05,6,05,4,2,0.744,6,05,-0.139444444,-0.378888889,1,0,0,1.0099,Pegmatite_rect,6,1.01,1,12,0,12,0,1,,,,,,,,,,,,,
660b50fe7a64661e391dd08c,SCR,2024-06-25_11h40.17.625,LearnStrategy,2023.2.3,Win32,60.24096386,6,1,14,-0.553888889,0.235555556,1,0,0,0.959,Andesite_14,1,14,5,1,0.959,1,14,-0.471111111,-0.24,1,0,0,2.9603,Andesite_rect,1,2.96,1,13,0,13,0,1,,,,,,,,,,,,,
660b50fe7a64661e391dd08c,SCR,2024-06-25_11h40.17.625,LearnStrategy,2023.2.3,Win32,60.24096386,6,1,15,-0.069444444,0.098888889,1,0,0,0.6822,Gabbro_15,4,15,4,4,0.682,4,15,0.4,-0.252777778,1,0,0,2.2168,Gabbro_rect,4,2.217,1,14,0,14,0,1,,,,,,,,,,,,,
660b50fe7a64661e391dd08c,SCR,2024-06-25_11h40.17.625,LearnStrategy,2023.2.3,Win32,60.24096386,6,1,16,-0.213333333,0.234444444,1,0,0,0.7719,Peridotite_10,7,10,5,3,0.772,7,10,0.21,-0.404444444,1,0,0,1.0178,Peridotite_rect,7,1.018,1,15,0,15,0,1,,,,,,,,,,,,,
660b50fe7a64661e391dd08c,SCR,2024-06-25_11h40.17.625,LearnStrategy,2023.2.3,Win32,60.24096386,6,2,1,,,,,,,,2,11,,,,,,,,,,,,,2,7.191,1,,,,,,-0.191111111,-0.263333333,1,0,0,7.1911,Basalt_rect,0,0,0,0,1,
660b50fe7a64661e391dd08c,SCR,2024-06-25_11h40.17.625,LearnStrategy,2023.2.3,Win32,60.24096386,6,2,2,,,,,,,,3,06,,,,,,,,,,,,,3,2.125,1,,,,,,0.082777778,-0.263888889,1,0,0,2.1254,Diorite_rect,1,0,1,0,1,
660b50fe7a64661e391dd08c,SCR,2024-06-25_11h40.17.625,LearnStrategy,2023.2.3,Win32,60.24096386,6,2,3,,,,,,,,7,15,,,,,,,,,,,,,7,1.357,1,,,,,,0.132777778,-0.410555556,1,0,0,1.3568,Peridotite_rect,2,0,2,0,1,
660b50fe7a64661e391dd08c,SCR,2024-06-25_11h40.17.625,LearnStrategy,2023.2.3,Win32,60.24096386,6,2,4,,,,,,,,8,14,,,,,,,,,,,,,8,1.097,1,,,,,,0.372222222,-0.381666667,1,0,0,1.0974,Pumice_rect,3,0,3,0,1,
660b50fe7a64661e391dd08c,SCR,2024-06-25_11h40.17.625,LearnStrategy,2023.2.3,Win32,60.24096386,6,2,5,,,,,,,,4,05,,,,,,,,,,,,,7,1.31,0,,,,,,0.196666667,-0.387777778,1,0,0,1.3096,Peridotite_rect,4,0,4,0,1,
660b50fe7a64661e391dd08c,SCR,2024-06-25_11h40.17.625,LearnStrategy,2023.2.3,Win32,60.24096386,6,2,6,,,,,,,,1,16,,,,,,,,,,,,,1,2.822,1,,,,,,-0.329444444,-0.26,1,0,0,2.8222,Andesite_rect,5,0,5,0,1,
660b50fe7a64661e391dd08c,SCR,2024-06-25_11h40.17.625,LearnStrategy,2023.2.3,Win32,60.24096386,6,2,7,,,,,,,,3,10,,,,,,,,,,,,,3,1.955,1,,,,,,0.068888889,-0.252222222,1,0,0,1.9551,Diorite_rect,6,0,6,0,1,
660b50fe7a64661e391dd08c,SCR,2024-06-25_11h40.17.625,LearnStrategy,2023.2.3,Win32,60.24096386,6,2,8,,,,,,,,8,09,,,,,,,,,,,,,8,1.109,1,,,,,,0.400555556,-0.400555556,1,0,0,1.1088,Pumice_rect,7,0,7,0,1,
660b50fe7a64661e391dd08c,SCR,2024-06-25_11h40.17.625,LearnStrategy,2023.2.3,Win32,60.24096386,6,2,9,,,,,,,,2,01,,,,,,,,,,,,,2,1.528,1,,,,,,-0.083888889,-0.243888889,1,0,0,1.5278,Basalt_rect,8,0,8,0,1,
660b50fe7a64661e391dd08c,SCR,2024-06-25_11h40.17.625,LearnStrategy,2023.2.3,Win32,60.24096386,6,2,10,,,,,,,,6,16,,,,,,,,,,,,,6,1.078,1,,,,,,-0.111666667,-0.410555556,1,0,0,1.0785,Pegmatite_rect,9,0,9,0,1,
660b50fe7a64661e391dd08c,SCR,2024-06-25_11h40.17.625,LearnStrategy,2023.2.3,Win32,60.24096386,6,2,11,,,,,,,,1,11,,,,,,,,,,,,,1,2.65,1,,,,,,-0.34,-0.264444444,1,0,0,2.6499,Andesite_rect,10,0,10,0,1,
660b50fe7a64661e391dd08c,SCR,2024-06-25_11h40.17.625,LearnStrategy,2023.2.3,Win32,60.24096386,6,2,12,,,,,,,,5,11,,,,,,,,,,,,,5,0.805,1,,,,,,-0.332777778,-0.38,1,0,0,0.8051,Obsidian_rect,11,0,11,0,1,
660b50fe7a64661e391dd08c,SCR,2024-06-25_11h40.17.625,LearnStrategy,2023.2.3,Win32,60.24096386,6,2,13,,,,,,,,7,16,,,,,,,,,,,,,7,1.458,1,,,,,,0.155555556,-0.405,1,0,0,1.4584,Peridotite_rect,12,0,12,0,1,
660b50fe7a64661e391dd08c,SCR,2024-06-25_11h40.17.625,LearnStrategy,2023.2.3,Win32,60.24096386,6,2,14,,,,,,,,6,08,,,,,,,,,,,,,6,1.408,1,,,,,,-0.095555556,-0.386666667,1,0,0,1.4077,Pegmatite_rect,13,0,13,0,1,
660b50fe7a64661e391dd08c,SCR,2024-06-25_11h40.17.625,LearnStrategy,2023.2.3,Win32,60.24096386,6,2,15,,,,,,,,5,10,,,,,,,,,,,,,5,0.891,1,,,,,,-0.296111111,-0.378333333,1,0,0,0.8913,Obsidian_rect,14,0,14,0,1,
660b50fe7a64661e391dd08c,SCR,2024-06-25_11h40.17.625,LearnStrategy,2023.2.3,Win32,60.24096386,6,2,16,,,,,,,,4,01,,,,,,,,,,,,,1,6.852,0,,,,,,-0.317777778,-0.255,1,0,0,6.8519,Andesite_rect,15,0,15,0,1,
660b50fe7a64661e391dd08c,SCR,2024-06-25_11h40.17.625,LearnStrategy,2023.2.3,Win32,60.24096386,7,1,1,-0.366111111,-0.09,1,0,0,1.283,Basalt_14,2,14,3,2,1.283,2,14,-0.085555556,-0.261666667,1,0,0,2.6087,Basalt_rect,2,2.609,1,0,0,0,0,1,,,,,,,,,,,,,
660b50fe7a64661e391dd08c,SCR,2024-06-25_11h40.17.625,LearnStrategy,2023.2.3,Win32,60.24096386,7,1,2,-0.375,-0.398888889,1,0,0,1.285,Gabbro_08,4,08,1,2,1.285,4,08,-0.371111111,-0.245,1,0,0,2.5422,Andesite_rect,1,2.542,0,1,0,1,0,1,,,,,,,,,,,,,
660b50fe7a64661e391dd08c,SCR,2024-06-25_11h40.17.625,LearnStrategy,2023.2.3,Win32,60.24096386,7,1,3,0.541666667,0.411666667,1,0,0,1.7307,Basalt_02,2,02,6,8,1.731,2,02,-0.106666667,-0.231666667,1,0,0,0.9348,Basalt_rect,2,0.935,1,2,0,2,0,1,,,,,,,,,,,,,
660b50fe7a64661e391dd08c,SCR,2024-06-25_11h40.17.625,LearnStrategy,2023.2.3,Win32,60.24096386,7,1,4,0.231111111,0.068888889,1,0,0,0.9819,Diorite_09,3,09,4,6,0.982,3,09,0.138333333,-0.271666667,1,0,0,1.4379,Diorite_rect,3,1.438,1,3,0,3,0,1,,,,,,,,,,,,,
660b50fe7a64661e391dd08c,SCR,2024-06-25_11h40.17.625,LearnStrategy,2023.2.3,Win32,60.24096386,7,1,5,-0.346666667,-0.406111111,1,0,0,0.9218,Gabbro_08,4,08,1,2,0.922,4,08,0.351111111,-0.25,1,0,0,1.7687,Gabbro_rect,4,1.769,1,4,0,4,0,1,,,,,,,,,,,,,
660b50fe7a64661e391dd08c,SCR,2024-06-25_11h40.17.625,LearnStrategy,2023.2.3,Win32,60.24096386,7,1,6,-0.500555556,-0.39,1,0,0,1.0485,Obsidian_14,5,14,1,1,1.048,5,14,-0.416111111,-0.419444444,1,0,0,1.0888,Obsidian_rect,5,1.089,1,5,0,5,0,1,,,,,,,,,,,,,
660b50fe7a64661e391dd08c,SCR,2024-06-25_11h40.17.625,LearnStrategy,2023.2.3,Win32,60.24096386,7,1,7,0.399444444,0.452777778,1,0,0,1.1246,Peridotite_05,7,05,6,7,1.125,7,05,0.152222222,-0.382777778,1,0,0,1.7973,Peridotite_rect,7,1.797,1,6,0,6,0,1,,,,,,,,,,,,,
660b50fe7a64661e391dd08c,SCR,2024-06-25_11h40.17.625,LearnStrategy,2023.2.3,Win32,60.24096386,7,1,8,-0.215,0.390555556,1,0,0,0.782,Gabbro_13,4,13,6,3,0.782,4,13,0.381666667,-0.258333333,1,0,0,1.6059,Gabbro_rect,4,1.606,1,7,0,7,0,1,,,,,,,,,,,,,
660b50fe7a64661e391dd08c,SCR,2024-06-25_11h40.17.625,LearnStrategy,2023.2.3,Win32,60.24096386,7,1,9,-0.238888889,-0.228888889,1,0,0,0.7481,Gabbro_03,4,03,2,3,0.748,4,03,-0.361111111,-0.233333333,1,0,0,1.7551,Andesite_rect,1,1.755,0,8,0,8,0,1,,,,,,,,,,,,,
660b50fe7a64661e391dd08c,SCR,2024-06-25_11h40.17.625,LearnStrategy,2023.2.3,Win32,60.24096386,7,1,10,-0.033888889,-0.224444444,1,0,0,0.7497,Pegmatite_07,6,07,2,4,0.75,6,07,-0.092222222,-0.392222222,1,0,0,0.969,Pegmatite_rect,6,0.969,1,9,0,9,0,1,,,,,,,,,,,,,
660b50fe7a64661e391dd08c,SCR,2024-06-25_11h40.17.625,LearnStrategy,2023.2.3,Win32,60.24096386,7,1,11,0.575,-0.253888889,1,0,0,1.165,Gabbro_09,4,09,2,8,1.165,4,09,0.428888889,-0.248888889,1,0,0,1.1939,Gabbro_rect,4,1.194,1,10,0,10,0,1,,,,,,,,,,,,,
660b50fe7a64661e391dd08c,SCR,2024-06-25_11h40.17.625,LearnStrategy,2023.2.3,Win32,60.24096386,7,1,12,0.397777778,0.219444444,1,0,0,0.9537,Pumice_03,8,03,5,7,0.954,8,03,0.425555556,-0.401111111,1,0,0,0.8905,Pumice_rect,8,0.89,1,11,0,11,0,1,,,,,,,,,,,,,
660b50fe7a64661e391dd08c,SCR,2024-06-25_11h40.17.625,LearnStrategy,2023.2.3,Win32,60.24096386,7,1,13,0.205,0.391666667,1,0,0,0.8029,Andesite_10,1,10,6,6,0.803,1,10,-0.371111111,-0.242222222,1,0,0,1.644,Andesite_rect,1,1.644,1,12,0,12,0,1,,,,,,,,,,,,,
660b50fe7a64661e391dd08c,SCR,2024-06-25_11h40.17.625,LearnStrategy,2023.2.3,Win32,60.24096386,7,1,14,-0.426111111,0.425,1,0,0,0.9489,Andesite_05,1,05,6,2,0.949,1,05,-0.348333333,-0.231111111,1,0,0,1.2747,Andesite_rect,1,1.275,1,13,0,13,0,1,,,,,,,,,,,,,
660b50fe7a64661e391dd08c,SCR,2024-06-25_11h40.17.625,LearnStrategy,2023.2.3,Win32,60.24096386,7,1,15,0.068888889,0.419444444,1,0,0,0.8271,Pegmatite_12,6,12,6,5,0.827,6,12,-0.113888889,-0.392777778,1,0,0,0.9353,Pegmatite_rect,6,0.935,1,14,0,14,0,1,,,,,,,,,,,,,
660b50fe7a64661e391dd08c,SCR,2024-06-25_11h40.17.625,LearnStrategy,2023.2.3,Win32,60.24096386,7,1,16,-0.346111111,0.387777778,1,0,0,2.4752,Andesite_05,1,05,6,2,2.475,1,05,-0.355,-0.258333333,1,0,0,1.4192,Andesite_rect,1,1.419,1,15,0,15,0,1,,,,,,,,,,,,,
660b50fe7a64661e391dd08c,SCR,2024-06-25_11h40.17.625,LearnStrategy,2023.2.3,Win32,60.24096386,7,2,1,,,,,,,,8,14,,,,,,,,,,,,,8,1.225,1,,,,,,0.41,-0.411111111,1,0,0,1.2252,Pumice_rect,0,0,0,0,1,
660b50fe7a64661e391dd08c,SCR,2024-06-25_11h40.17.625,LearnStrategy,2023.2.3,Win32,60.24096386,7,2,2,,,,,,,,5,11,,,,,,,,,,,,,5,0.991,1,,,,,,-0.353888889,-0.421666667,1,0,0,0.991,Obsidian_rect,1,0,1,0,1,
660b50fe7a64661e391dd08c,SCR,2024-06-25_11h40.17.625,LearnStrategy,2023.2.3,Win32,60.24096386,7,2,3,,,,,,,,7,13,,,,,,,,,,,,,7,0.948,1,,,,,,0.119444444,-0.418888889,1,0,0,0.9477,Peridotite_rect,2,0,2,0,1,
660b50fe7a64661e391dd08c,SCR,2024-06-25_11h40.17.625,LearnStrategy,2023.2.3,Win32,60.24096386,7,2,4,,,,,,,,6,08,,,,,,,,,,,,,6,1.042,1,,,,,,-0.077777778,-0.407222222,1,0,0,1.0418,Pegmatite_rect,3,0,3,0,1,
660b50fe7a64661e391dd08c,SCR,2024-06-25_11h40.17.625,LearnStrategy,2023.2.3,Win32,60.24096386,7,2,5,,,,,,,,3,07,,,,,,,,,,,,,3,1.769,1,,,,,,0.120555556,-0.245,1,0,0,1.769,Diorite_rect,4,0,4,0,1,
660b50fe7a64661e391dd08c,SCR,2024-06-25_11h40.17.625,LearnStrategy,2023.2.3,Win32,60.24096386,7,2,6,,,,,,,,5,04,,,,,,,,,,,,,5,1.12,1,,,,,,-0.356111111,-0.412777778,1,0,0,1.1204,Obsidian_rect,5,0,5,0,1,
660b50fe7a64661e391dd08c,SCR,2024-06-25_11h40.17.625,LearnStrategy,2023.2.3,Win32,60.24096386,7,2,7,,,,,,,,4,11,,,,,,,,,,,,,4,5.309,1,,,,,,0.473333333,-0.258333333,1,0,0,5.3088,Gabbro_rect,6,0,6,0,1,
660b50fe7a64661e391dd08c,SCR,2024-06-25_11h40.17.625,LearnStrategy,2023.2.3,Win32,60.24096386,7,2,8,,,,,,,,4,14,,,,,,,,,,,,,4,1.454,1,,,,,,0.472222222,-0.258333333,1,0,0,1.454,Gabbro_rect,7,0,7,0,1,
660b50fe7a64661e391dd08c,SCR,2024-06-25_11h40.17.625,LearnStrategy,2023.2.3,Win32,60.24096386,7,2,9,,,,,,,,7,14,,,,,,,,,,,,,7,1.703,1,,,,,,0.139444444,-0.383888889,1,0,0,1.7025,Peridotite_rect,8,0,8,0,1,
660b50fe7a64661e391dd08c,SCR,2024-06-25_11h40.17.625,LearnStrategy,2023.2.3,Win32,60.24096386,7,2,10,,,,,,,,1,02,,,,,,,,,,,,,3,2.276,0,,,,,,0.093333333,-0.255,1,0,0,2.2759,Diorite_rect,9,0,9,0,1,
660b50fe7a64661e391dd08c,SCR,2024-06-25_11h40.17.625,LearnStrategy,2023.2.3,Win32,60.24096386,7,2,11,,,,,,,,2,05,,,,,,,,,,,,,2,1.135,1,,,,,,-0.08,-0.254444444,1,0,0,1.1354,Basalt_rect,10,0,10,0,1,
660b50fe7a64661e391dd08c,SCR,2024-06-25_11h40.17.625,LearnStrategy,2023.2.3,Win32,60.24096386,7,2,12,,,,,,,,3,10,,,,,,,,,,,,,3,1.144,1,,,,,,0.097222222,-0.238888889,1,0,0,1.1437,Diorite_rect,11,0,11,0,1,
660b50fe7a64661e391dd08c,SCR,2024-06-25_11h40.17.625,LearnStrategy,2023.2.3,Win32,60.24096386,7,2,13,,,,,,,,6,16,,,,,,,,,,,,,6,1.048,1,,,,,,-0.092777778,-0.386111111,1,0,0,1.0481,Pegmatite_rect,12,0,12,0,1,
660b50fe7a64661e391dd08c,SCR,2024-06-25_11h40.17.625,LearnStrategy,2023.2.3,Win32,60.24096386,7,2,14,,,,,,,,8,04,,,,,,,,,,,,,8,1.216,1,,,,,,0.297777778,-0.402222222,1,0,0,1.2165,Pumice_rect,13,0,13,0,1,
660b50fe7a64661e391dd08c,SCR,2024-06-25_11h40.17.625,LearnStrategy,2023.2.3,Win32,60.24096386,7,2,15,,,,,,,,2,09,,,,,,,,,,,,,2,1.05,1,,,,,,-0.095,-0.242222222,1,0,0,1.0496,Basalt_rect,14,0,14,0,1,
660b50fe7a64661e391dd08c,SCR,2024-06-25_11h40.17.625,LearnStrategy,2023.2.3,Win32,60.24096386,7,2,16,,,,,,,,1,09,,,,,,,,,,,,,1,1.342,1,,,,,,-0.341111111,-0.263333333,1,0,0,1.3422,Andesite_rect,15,0,15,0,1,
660b50fe7a64661e391dd08c,SCR,2024-06-25_11h40.17.625,LearnStrategy,2023.2.3,Win32,60.24096386,8,1,1,-0.21,0.409444444,1,0,0,0.797,Gabbro_13,4,13,6,3,0.797,4,13,0.389444444,-0.265,1,0,0,1.6742,Gabbro_rect,4,1.674,1,0,0,0,0,1,,,,,,,,,,,,,
660b50fe7a64661e391dd08c,SCR,2024-06-25_11h40.17.625,LearnStrategy,2023.2.3,Win32,60.24096386,8,1,2,-0.496666667,0.394444444,1,0,0,1.3149,Pegmatite_13,6,13,6,1,1.315,6,13,-0.151111111,-0.403888889,1,0,0,2.1115,Pegmatite_rect,6,2.111,1,1,0,1,0,1,,,,,,,,,,,,,
660b50fe7a64661e391dd08c,SCR,2024-06-25_11h40.17.625,LearnStrategy,2023.2.3,Win32,60.24096386,8,1,3,-0.077777778,0.241666667,1,0,0,2.4057,Pumice_08,8,08,5,4,2.406,8,08,-0.119444444,-0.267777778,1,0,0,1.9133,Basalt_rect,2,1.913,0,2,0,2,0,1,,,,,,,,,,,,,
660b50fe7a64661e391dd08c,SCR,2024-06-25_11h40.17.625,LearnStrategy,2023.2.3,Win32,60.24096386,8,1,4,0.387222222,0.422222222,1,0,0,1.4068,Peridotite_05,7,05,6,7,1.407,7,05,0.126666667,-0.412222222,1,0,0,2.1825,Peridotite_rect,7,2.183,1,3,0,3,0,1,,,,,,,,,,,,,
660b50fe7a64661e391dd08c,SCR,2024-06-25_11h40.17.625,LearnStrategy,2023.2.3,Win32,60.24096386,8,1,5,-0.380555556,-0.243333333,1,0,0,0.9619,Gabbro_10,4,10,2,2,0.962,4,10,0.397777778,-0.251666667,1,0,0,11.7566,Gabbro_rect,4,11.757,1,4,0,4,0,1,,,,,,,,,,,,,
660b50fe7a64661e391dd08c,SCR,2024-06-25_11h40.17.625,LearnStrategy,2023.2.3,Win32,60.24096386,8,1,6,-0.527777778,0.083888889,1,0,0,1.6148,Diorite_16,3,16,4,1,1.615,3,16,0.071666667,-0.262222222,1,0,0,4.0462,Diorite_rect,3,4.046,1,5,0,5,0,1,,,,,,,,,,,,,
660b50fe7a64661e391dd08c,SCR,2024-06-25_11h40.17.625,LearnStrategy,2023.2.3,Win32,60.24096386,8,1,7,0.219444444,0.401666667,1,0,0,1.0316,Andesite_10,1,10,6,6,1.032,1,10,-0.387222222,-0.245555556,1,0,0,1.4929,Andesite_rect,1,1.493,1,6,0,6,0,1,,,,,,,,,,,,,
660b50fe7a64661e391dd08c,SCR,2024-06-25_11h40.17.625,LearnStrategy,2023.2.3,Win32,60.24096386,8,1,8,0.056666667,0.416666667,1,0,0,1.1636,Pegmatite_12,6,12,6,5,1.164,6,12,-0.086666667,-0.387222222,1,0,0,1.7277,Pegmatite_rect,6,1.728,1,7,0,7,0,1,,,,,,,,,,,,,
660b50fe7a64661e391dd08c,SCR,2024-06-25_11h40.17.625,LearnStrategy,2023.2.3,Win32,60.24096386,8,1,9,-0.571666667,0.273333333,1,0,0,0.9654,Andesite_14,1,14,5,1,0.965,1,14,-0.108888889,-0.393333333,1,0,0,2.3564,Pegmatite_rect,6,2.356,0,8,0,8,0,1,,,,,,,,,,,,,
660b50fe7a64661e391dd08c,SCR,2024-06-25_11h40.17.625,LearnStrategy,2023.2.3,Win32,60.24096386,8,1,10,-0.342777778,-0.385555556,1,0,0,1.0298,Gabbro_08,4,08,1,2,1.03,4,08,0.359444444,-0.256666667,1,0,0,1.8735,Gabbro_rect,4,1.873,1,9,0,9,0,1,,,,,,,,,,,,,
660b50fe7a64661e391dd08c,SCR,2024-06-25_11h40.17.625,LearnStrategy,2023.2.3,Win32,60.24096386,8,1,11,-0.506666667,-0.227777778,1,0,0,1.4401,Basalt_12,2,12,2,1,1.44,2,12,-0.142222222,-0.232777778,1,0,0,1.0558,Basalt_rect,2,1.056,1,10,0,10,0,1,,,,,,,,,,,,,
660b50fe7a64661e391dd08c,SCR,2024-06-25_11h40.17.625,LearnStrategy,2023.2.3,Win32,60.24096386,8,1,12,-0.586111111,0.282222222,1,0,0,0.8723,Andesite_14,1,14,5,1,0.872,1,14,-0.151666667,-0.393333333,1,0,0,1.3396,Pegmatite_rect,6,1.34,0,11,0,11,0,1,,,,,,,,,,,,,
660b50fe7a64661e391dd08c,SCR,2024-06-25_11h40.17.625,LearnStrategy,2023.2.3,Win32,60.24096386,8,1,13,-0.540555556,-0.437222222,1,0,0,0.866,Obsidian_14,5,14,1,1,0.866,5,14,-0.413888889,-0.416666667,1,0,0,0.6144,Obsidian_rect,5,0.614,1,12,0,12,0,1,,,,,,,,,,,,,
660b50fe7a64661e391dd08c,SCR,2024-06-25_11h40.17.625,LearnStrategy,2023.2.3,Win32,60.24096386,8,1,14,-0.208333333,0.366666667,1,0,0,0.8783,Gabbro_13,4,13,6,3,0.878,4,13,0.389444444,-0.237777778,1,0,0,1.5153,Gabbro_rect,4,1.515,1,13,0,13,0,1,,,,,,,,,,,,,
660b50fe7a64661e391dd08c,SCR,2024-06-25_11h40.17.625,LearnStrategy,2023.2.3,Win32,60.24096386,8,1,15,-0.087222222,0.434444444,1,0,0,0.8497,Andesite_04,1,04,6,4,0.85,1,04,-0.348333333,-0.232777778,1,0,0,1.8308,Andesite_rect,1,1.831,1,14,0,14,0,1,,,,,,,,,,,,,
660b50fe7a64661e391dd08c,SCR,2024-06-25_11h40.17.625,LearnStrategy,2023.2.3,Win32,60.24096386,8,1,16,0.527777778,0.097777778,1,0,0,0.9707,Basalt_10,2,10,4,8,0.971,2,10,-0.076111111,-0.241666667,1,0,0,1.3279,Basalt_rect,2,1.328,1,15,0,15,0,1,,,,,,,,,,,,,
660b50fe7a64661e391dd08c,SCR,2024-06-25_11h40.17.625,LearnStrategy,2023.2.3,Win32,60.24096386,8,2,1,,,,,,,,1,16,,,,,,,,,,,,,1,1.879,1,,,,,,-0.355555556,-0.231111111,1,0,0,1.8791,Andesite_rect,0,0,0,0,1,
660b50fe7a64661e391dd08c,SCR,2024-06-25_11h40.17.625,LearnStrategy,2023.2.3,Win32,60.24096386,8,2,2,,,,,,,,2,11,,,,,,,,,,,,,2,3.962,1,,,,,,-0.165,-0.243888889,1,0,0,3.9625,Basalt_rect,1,0,1,0,1,
660b50fe7a64661e391dd08c,SCR,2024-06-25_11h40.17.625,LearnStrategy,2023.2.3,Win32,60.24096386,8,2,3,,,,,,,,2,04,,,,,,,,,,,,,2,0.991,1,,,,,,-0.097777778,-0.248888889,1,0,0,0.9913,Basalt_rect,2,0,2,0,1,
660b50fe7a64661e391dd08c,SCR,2024-06-25_11h40.17.625,LearnStrategy,2023.2.3,Win32,60.24096386,8,2,4,,,,,,,,5,06,,,,,,,,,,,,,5,1.075,1,,,,,,-0.333888889,-0.383333333,1,0,0,1.075,Obsidian_rect,3,0,3,0,1,
660b50fe7a64661e391dd08c,SCR,2024-06-25_11h40.17.625,LearnStrategy,2023.2.3,Win32,60.24096386,8,2,5,,,,,,,,6,10,,,,,,,,,,,,,7,9.157,0,,,,,,0.106666667,-0.388333333,1,0,0,9.1569,Peridotite_rect,4,0,4,0,1,
660b50fe7a64661e391dd08c,SCR,2024-06-25_11h40.17.625,LearnStrategy,2023.2.3,Win32,60.24096386,8,2,6,,,,,,,,7,15,,,,,,,,,,,,,7,1.02,1,,,,,,0.103333333,-0.383888889,1,0,0,1.0201,Peridotite_rect,5,0,5,0,1,
660b50fe7a64661e391dd08c,SCR,2024-06-25_11h40.17.625,LearnStrategy,2023.2.3,Win32,60.24096386,8,2,7,,,,,,,,6,11,,,,,,,,,,,,,6,1.228,1,,,,,,-0.187777778,-0.393888889,1,0,0,1.2278,Pegmatite_rect,6,0,6,0,1,
660b50fe7a64661e391dd08c,SCR,2024-06-25_11h40.17.625,LearnStrategy,2023.2.3,Win32,60.24096386,8,2,8,,,,,,,,8,06,,,,,,,,,,,,,8,1.011,1,,,,,,0.371666667,-0.395,1,0,0,1.0105,Pumice_rect,7,0,7,0,1,
660b50fe7a64661e391dd08c,SCR,2024-06-25_11h40.17.625,LearnStrategy,2023.2.3,Win32,60.24096386,8,2,9,,,,,,,,8,09,,,,,,,,,,,,,8,0.596,1,,,,,,0.372222222,-0.395555556,1,0,0,0.596,Pumice_rect,8,0,8,0,1,
660b50fe7a64661e391dd08c,SCR,2024-06-25_11h40.17.625,LearnStrategy,2023.2.3,Win32,60.24096386,8,2,10,,,,,,,,4,01,,,,,,,,,,,,,4,1.96,1,,,,,,0.384444444,-0.237222222,1,0,0,1.96,Gabbro_rect,9,0,9,0,1,
660b50fe7a64661e391dd08c,SCR,2024-06-25_11h40.17.625,LearnStrategy,2023.2.3,Win32,60.24096386,8,2,11,,,,,,,,3,13,,,,,,,,,,,,,3,1.643,1,,,,,,0.108888889,-0.251111111,1,0,0,1.6426,Diorite_rect,10,0,10,0,1,
660b50fe7a64661e391dd08c,SCR,2024-06-25_11h40.17.625,LearnStrategy,2023.2.3,Win32,60.24096386,8,2,12,,,,,,,,1,11,,,,,,,,,,,,,1,1.66,1,,,,,,-0.314444444,-0.257222222,1,0,0,1.6601,Andesite_rect,11,0,11,0,1,
660b50fe7a64661e391dd08c,SCR,2024-06-25_11h40.17.625,LearnStrategy,2023.2.3,Win32,60.24096386,8,2,13,,,,,,,,7,06,,,,,,,,,,,,,7,1.654,1,,,,,,0.128888889,-0.419444444,1,0,0,1.6543,Peridotite_rect,12,0,12,0,1,
660b50fe7a64661e391dd08c,SCR,2024-06-25_11h40.17.625,LearnStrategy,2023.2.3,Win32,60.24096386,8,2,14,,,,,,,,4,12,,,,,,,,,,,,,4,1.809,1,,,,,,0.361111111,-0.266666667,1,0,0,1.8093,Gabbro_rect,13,0,13,0,1,
660b50fe7a64661e391dd08c,SCR,2024-06-25_11h40.17.625,LearnStrategy,2023.2.3,Win32,60.24096386,8,2,15,,,,,,,,3,02,,,,,,,,,,,,,3,1.461,1,,,,,,0.140555556,-0.261111111,1,0,0,1.4614,Diorite_rect,14,0,14,0,1,
660b50fe7a64661e391dd08c,SCR,2024-06-25_11h40.17.625,LearnStrategy,2023.2.3,Win32,60.24096386,8,2,16,,,,,,,,5,02,,,,,,,,,,,,,5,1.156,1,,,,,,-0.346666667,-0.41,1,0,0,1.156,Obsidian_rect,15,0,15,0,1,
660b50fe7a64661e391dd08c,SCR,2024-06-25_11h40.17.625,LearnStrategy,2023.2.3,Win32,60.24096386,9,1,1,-0.554444444,-0.076111111,1,0,0,1.1235,Basalt_06,2,06,3,1,1.124,2,06,-0.142222222,-0.229444444,1,0,0,0.9319,Basalt_rect,2,0.932,1,0,0,0,0,1,,,,,,,,,,,,,
660b50fe7a64661e391dd08c,SCR,2024-06-25_11h40.17.625,LearnStrategy,2023.2.3,Win32,60.24096386,9,1,2,0.084444444,0.243888889,1,0,0,0.9262,Andesite_06,1,06,5,5,0.926,1,06,-0.327777778,-0.250555556,1,0,0,3.0394,Andesite_rect,1,3.039,1,1,0,1,0,1,,,,,,,,,,,,,
660b50fe7a64661e391dd08c,SCR,2024-06-25_11h40.17.625,LearnStrategy,2023.2.3,Win32,60.24096386,9,1,3,0.222777778,-0.084444444,1,0,0,0.7974,Peridotite_04,7,04,3,6,0.797,7,04,0.153333333,-0.388333333,1,0,0,0.9612,Peridotite_rect,7,0.961,1,2,0,2,0,1,,,,,,,,,,,,,
660b50fe7a64661e391dd08c,SCR,2024-06-25_11h40.17.625,LearnStrategy,2023.2.3,Win32,60.24096386,9,1,4,-0.068888889,-0.241666667,1,0,0,0.8304,Pegmatite_07,6,07,2,4,0.83,6,07,-0.074444444,-0.417222222,1,0,0,1.6674,Pegmatite_rect,6,1.667,1,3,0,3,0,1,,,,,,,,,,,,,
660b50fe7a64661e391dd08c,SCR,2024-06-25_11h40.17.625,LearnStrategy,2023.2.3,Win32,60.24096386,9,1,5,-0.098333333,-0.135,1,0,0,0.5733,Pegmatite_15,6,15,3,4,0.573,6,15,-0.087222222,-0.389444444,1,0,0,0.6773,Pegmatite_rect,6,0.677,1,4,0,4,0,1,,,,,,,,,,,,,
660b50fe7a64661e391dd08c,SCR,2024-06-25_11h40.17.625,LearnStrategy,2023.2.3,Win32,60.24096386,9,1,6,0.094444444,-0.1,1,0,0,0.7004,Pumice_16,8,16,3,5,0.7,8,16,0.392777778,-0.253333333,1,0,0,2.7455,Gabbro_rect,4,2.745,0,5,0,5,0,1,,,,,,,,,,,,,
660b50fe7a64661e391dd08c,SCR,2024-06-25_11h40.17.625,LearnStrategy,2023.2.3,Win32,60.24096386,9,1,7,-0.222222222,-0.453888889,1,0,0,0.7315,Basalt_08,2,08,1,3,0.732,2,08,-0.175555556,-0.246111111,1,0,0,1.8803,Basalt_rect,2,1.88,1,6,0,6,0,1,,,,,,,,,,,,,
660b50fe7a64661e391dd08c,SCR,2024-06-25_11h40.17.625,LearnStrategy,2023.2.3,Win32,60.24096386,9,1,8,-0.061111111,-0.389444444,1,0,0,0.732,Peridotite_02,7,02,1,4,0.732,7,02,0.106666667,-0.396111111,1,0,0,0.5736,Peridotite_rect,7,0.574,1,7,0,7,0,1,,,,,,,,,,,,,
660b50fe7a64661e391dd08c,SCR,2024-06-25_11h40.17.625,LearnStrategy,2023.2.3,Win32,60.24096386,9,1,9,-0.195555556,-0.105555556,1,0,0,0.7616,Obsidian_07,5,07,3,3,0.762,5,07,-0.343333333,-0.412222222,1,0,0,0.6437,Obsidian_rect,5,0.644,1,8,0,8,0,1,,,,,,,,,,,,,
660b50fe7a64661e391dd08c,SCR,2024-06-25_11h40.17.625,LearnStrategy,2023.2.3,Win32,60.24096386,9,1,10,0.496666667,-0.075,1,0,0,1.1843,Andesite_03,1,03,3,8,1.184,1,03,-0.351666667,-0.238333333,1,0,0,1.1957,Andesite_rect,1,1.196,1,9,0,9,0,1,,,,,,,,,,,,,
660b50fe7a64661e391dd08c,SCR,2024-06-25_11h40.17.625,LearnStrategy,2023.2.3,Win32,60.24096386,9,1,11,-0.385,-0.247222222,1,0,0,0.8651,Gabbro_10,4,10,2,2,0.865,4,10,0.362222222,-0.26,1,0,0,1.7768,Gabbro_rect,4,1.777,1,10,0,10,0,1,,,,,,,,,,,,,
660b50fe7a64661e391dd08c,SCR,2024-06-25_11h40.17.625,LearnStrategy,2023.2.3,Win32,60.24096386,9,1,12,-0.358333333,0.270555556,1,0,0,0.7992,Diorite_08,3,08,5,2,0.799,3,08,0.138888889,-0.246111111,1,0,0,0.7545,Diorite_rect,3,0.755,1,11,0,11,0,1,,,,,,,,,,,,,
660b50fe7a64661e391dd08c,SCR,2024-06-25_11h40.17.625,LearnStrategy,2023.2.3,Win32,60.24096386,9,1,13,-0.369444444,-0.258333333,1,0,0,0.9315,Gabbro_10,4,10,2,2,0.932,4,10,0.341666667,-0.230555556,1,0,0,1.2862,Gabbro_rect,4,1.286,1,12,0,12,0,1,,,,,,,,,,,,,
660b50fe7a64661e391dd08c,SCR,2024-06-25_11h40.17.625,LearnStrategy,2023.2.3,Win32,60.24096386,9,1,14,-0.085555556,0.083888889,1,0,0,0.5657,Gabbro_15,4,15,4,4,0.566,4,15,-0.336666667,-0.230555556,1,0,0,2.7476,Andesite_rect,1,2.748,0,13,0,13,0,1,,,,,,,,,,,,,
660b50fe7a64661e391dd08c,SCR,2024-06-25_11h40.17.625,LearnStrategy,2023.2.3,Win32,60.24096386,9,1,15,-0.088333333,-0.114444444,1,0,0,0.6151,Pegmatite_15,6,15,3,4,0.615,6,15,-0.110555556,-0.385555556,1,0,0,0.5329,Pegmatite_rect,6,0.533,1,14,0,14,0,1,,,,,,,,,,,,,
660b50fe7a64661e391dd08c,SCR,2024-06-25_11h40.17.625,LearnStrategy,2023.2.3,Win32,60.24096386,9,1,16,0.223333333,0.443888889,1,0,0,0.9325,Andesite_10,1,10,6,6,0.933,1,10,-0.336666667,-0.254444444,1,0,0,1.0896,Andesite_rect,1,1.09,1,15,0,15,0,1,,,,,,,,,,,,,
660b50fe7a64661e391dd08c,SCR,2024-06-25_11h40.17.625,LearnStrategy,2023.2.3,Win32,60.24096386,9,2,1,,,,,,,,5,10,,,,,,,,,,,,,5,1.019,1,,,,,,-0.336666667,-0.411111111,1,0,0,1.0188,Obsidian_rect,0,0,0,0,1,
660b50fe7a64661e391dd08c,SCR,2024-06-25_11h40.17.625,LearnStrategy,2023.2.3,Win32,60.24096386,9,2,2,,,,,,,,6,06,,,,,,,,,,,,,7,1.659,0,,,,,,0.142222222,-0.398333333,1,0,0,1.6595,Peridotite_rect,1,0,1,0,1,
660b50fe7a64661e391dd08c,SCR,2024-06-25_11h40.17.625,LearnStrategy,2023.2.3,Win32,60.24096386,9,2,3,,,,,,,,4,05,,,,,,,,,,,,,7,4.608,0,,,,,,0.142222222,-0.398333333,1,0,0,4.6078,Peridotite_rect,2,0,2,0,1,
660b50fe7a64661e391dd08c,SCR,2024-06-25_11h40.17.625,LearnStrategy,2023.2.3,Win32,60.24096386,9,2,4,,,,,,,,1,07,,,,,,,,,,,,,1,2.63,1,,,,,,-0.374444444,-0.261666667,1,0,0,2.63,Andesite_rect,3,0,3,0,1,
660b50fe7a64661e391dd08c,SCR,2024-06-25_11h40.17.625,LearnStrategy,2023.2.3,Win32,60.24096386,9,2,5,,,,,,,,3,14,,,,,,,,,,,,,3,1.152,1,,,,,,0.081666667,-0.247777778,1,0,0,1.1516,Diorite_rect,4,0,4,0,1,
660b50fe7a64661e391dd08c,SCR,2024-06-25_11h40.17.625,LearnStrategy,2023.2.3,Win32,60.24096386,9,2,6,,,,,,,,2,16,,,,,,,,,,,,,4,6.858,0,,,,,,0.382777778,-0.252777778,1,0,0,6.8579,Gabbro_rect,5,0,5,0,1,
660b50fe7a64661e391dd08c,SCR,2024-06-25_11h40.17.625,LearnStrategy,2023.2.3,Win32,60.24096386,9,2,7,,,,,,,,2,01,,,,,,,,,,,,,2,1.052,1,,,,,,-0.046666667,-0.254444444,1,0,0,1.0521,Basalt_rect,6,0,6,0,1,
660b50fe7a64661e391dd08c,SCR,2024-06-25_11h40.17.625,LearnStrategy,2023.2.3,Win32,60.24096386,9,2,8,,,,,,,,8,10,,,,,,,,,,,,,8,1.043,1,,,,,,0.364444444,-0.388333333,1,0,0,1.0425,Pumice_rect,7,0,7,0,1,
660b50fe7a64661e391dd08c,SCR,2024-06-25_11h40.17.625,LearnStrategy,2023.2.3,Win32,60.24096386,9,2,9,,,,,,,,4,16,,,,,,,,,,,,,4,1.477,1,,,,,,0.364444444,-0.251666667,1,0,0,1.4775,Gabbro_rect,8,0,8,0,1,
660b50fe7a64661e391dd08c,SCR,2024-06-25_11h40.17.625,LearnStrategy,2023.2.3,Win32,60.24096386,9,2,10,,,,,,,,7,07,,,,,,,,,,,,,7,1.026,1,,,,,,0.15,-0.396666667,1,0,0,1.0258,Peridotite_rect,9,0,9,0,1,
660b50fe7a64661e391dd08c,SCR,2024-06-25_11h40.17.625,LearnStrategy,2023.2.3,Win32,60.24096386,9,2,11,,,,,,,,3,06,,,,,,,,,,,,,3,1.942,1,,,,,,0.118888889,-0.263333333,1,0,0,1.9417,Diorite_rect,10,0,10,0,1,
660b50fe7a64661e391dd08c,SCR,2024-06-25_11h40.17.625,LearnStrategy,2023.2.3,Win32,60.24096386,9,2,12,,,,,,,,6,03,,,,,,,,,,,,,6,1.647,1,,,,,,-0.077777778,-0.397222222,1,0,0,1.6473,Pegmatite_rect,11,0,11,0,1,
660b50fe7a64661e391dd08c,SCR,2024-06-25_11h40.17.625,LearnStrategy,2023.2.3,Win32,60.24096386,9,2,13,,,,,,,,1,01,,,,,,,,,,,,,4,6.384,0,,,,,,0.320555556,-0.258333333,1,0,0,6.3844,Gabbro_rect,12,0,12,0,1,
660b50fe7a64661e391dd08c,SCR,2024-06-25_11h40.17.625,LearnStrategy,2023.2.3,Win32,60.24096386,9,2,14,,,,,,,,8,02,,,,,,,,,,,,,8,0.829,1,,,,,,0.381666667,-0.407777778,1,0,0,0.8292,Pumice_rect,13,0,13,0,1,
660b50fe7a64661e391dd08c,SCR,2024-06-25_11h40.17.625,LearnStrategy,2023.2.3,Win32,60.24096386,9,2,15,,,,,,,,7,16,,,,,,,,,,,,,7,1.175,1,,,,,,0.175,-0.401111111,1,0,0,1.1747,Peridotite_rect,14,0,14,0,1,
660b50fe7a64661e391dd08c,SCR,2024-06-25_11h40.17.625,LearnStrategy,2023.2.3,Win32,60.24096386,9,2,16,,,,,,,,5,05,,,,,,,,,,,,,5,1.186,1,,,,,,-0.353333333,-0.405,1,0,0,1.186,Obsidian_rect,15,0,15,0,1,
660b50fe7a64661e391dd08c,SCR,2024-06-25_11h40.17.625,LearnStrategy,2023.2.3,Win32,60.24096386,,,,,,,,,,,,,,,,,,,,,,,,,,,,,,,,,,,,,,,,,,,,,1
660b50fe7a64661e391dd08c,SCR,2024-06-25_11h40.17.625,LearnStrategy,2023.2.3,Win32,60.24096386,,,,,,,,,,,,,,,,,,,,,,,,,,,,,,,,,,,,,,,,,,,,,
660b50fe7a64661e391dd08c,SCR,2024-06-25_11h40.17.625,LearnStrategy,2023.2.3,Win32,60.24096386,,,,,,,,,,,5,14,1,1,,,,,,,,,,,,,,,,,,,,,,,,,,,,,,,
660b50fe7a64661e391dd08c,SCR,2024-06-25_11h40.17.625,LearnStrategy,2023.2.3,Win32,60.24096386,,,,,,,,,,,4,08,1,2,,,,,,,,,,,,,,,,,,,,,,,,,,,,,,,
660b50fe7a64661e391dd08c,SCR,2024-06-25_11h40.17.625,LearnStrategy,2023.2.3,Win32,60.24096386,,,,,,,,,,,2,08,1,3,,,,,,,,,,,,,,,,,,,,,,,,,,,,,,,
660b50fe7a64661e391dd08c,SCR,2024-06-25_11h40.17.625,LearnStrategy,2023.2.3,Win32,60.24096386,,,,,,,,,,,7,02,1,4,,,,,,,,,,,,,,,,,,,,,,,,,,,,,,,
660b50fe7a64661e391dd08c,SCR,2024-06-25_11h40.17.625,LearnStrategy,2023.2.3,Win32,60.24096386,,,,,,,,,,,7,12,1,5,,,,,,,,,,,,,,,,,,,,,,,,,,,,,,,
660b50fe7a64661e391dd08c,SCR,2024-06-25_11h40.17.625,LearnStrategy,2023.2.3,Win32,60.24096386,,,,,,,,,,,8,15,1,6,,,,,,,,,,,,,,,,,,,,,,,,,,,,,,,
660b50fe7a64661e391dd08c,SCR,2024-06-25_11h40.17.625,LearnStrategy,2023.2.3,Win32,60.24096386,,,,,,,,,,,3,15,1,7,,,,,,,,,,,,,,,,,,,,,,,,,,,,,,,
660b50fe7a64661e391dd08c,SCR,2024-06-25_11h40.17.625,LearnStrategy,2023.2.3,Win32,60.24096386,,,,,,,,,,,3,11,1,8,,,,,,,,,,,,,,,,,,,,,,,,,,,,,,,
660b50fe7a64661e391dd08c,SCR,2024-06-25_11h40.17.625,LearnStrategy,2023.2.3,Win32,60.24096386,,,,,,,,,,,2,12,2,1,,,,,,,,,,,,,,,,,,,,,,,,,,,,,,,
660b50fe7a64661e391dd08c,SCR,2024-06-25_11h40.17.625,LearnStrategy,2023.2.3,Win32,60.24096386,,,,,,,,,,,4,10,2,2,,,,,,,,,,,,,,,,,,,,,,,,,,,,,,,
660b50fe7a64661e391dd08c,SCR,2024-06-25_11h40.17.625,LearnStrategy,2023.2.3,Win32,60.24096386,,,,,,,,,,,4,03,2,3,,,,,,,,,,,,,,,,,,,,,,,,,,,,,,,
660b50fe7a64661e391dd08c,SCR,2024-06-25_11h40.17.625,LearnStrategy,2023.2.3,Win32,60.24096386,,,,,,,,,,,6,07,2,4,,,,,,,,,,,,,,,,,,,,,,,,,,,,,,,
660b50fe7a64661e391dd08c,SCR,2024-06-25_11h40.17.625,LearnStrategy,2023.2.3,Win32,60.24096386,,,,,,,,,,,6,09,2,5,,,,,,,,,,,,,,,,,,,,,,,,,,,,,,,
660b50fe7a64661e391dd08c,SCR,2024-06-25_11h40.17.625,LearnStrategy,2023.2.3,Win32,60.24096386,,,,,,,,,,,8,13,2,6,,,,,,,,,,,,,,,,,,,,,,,,,,,,,,,
660b50fe7a64661e391dd08c,SCR,2024-06-25_11h40.17.625,LearnStrategy,2023.2.3,Win32,60.24096386,,,,,,,,,,,7,08,2,7,,,,,,,,,,,,,,,,,,,,,,,,,,,,,,,
660b50fe7a64661e391dd08c,SCR,2024-06-25_11h40.17.625,LearnStrategy,2023.2.3,Win32,60.24096386,,,,,,,,,,,4,09,2,8,,,,,,,,,,,,,,,,,,,,,,,,,,,,,,,
660b50fe7a64661e391dd08c,SCR,2024-06-25_11h40.17.625,LearnStrategy,2023.2.3,Win32,60.24096386,,,,,,,,,,,2,06,3,1,,,,,,,,,,,,,,,,,,,,,,,,,,,,,,,
660b50fe7a64661e391dd08c,SCR,2024-06-25_11h40.17.625,LearnStrategy,2023.2.3,Win32,60.24096386,,,,,,,,,,,2,14,3,2,,,,,,,,,,,,,,,,,,,,,,,,,,,,,,,
660b50fe7a64661e391dd08c,SCR,2024-06-25_11h40.17.625,LearnStrategy,2023.2.3,Win32,60.24096386,,,,,,,,,,,5,07,3,3,,,,,,,,,,,,,,,,,,,,,,,,,,,,,,,
660b50fe7a64661e391dd08c,SCR,2024-06-25_11h40.17.625,LearnStrategy,2023.2.3,Win32,60.24096386,,,,,,,,,,,6,15,3,4,,,,,,,,,,,,,,,,,,,,,,,,,,,,,,,
660b50fe7a64661e391dd08c,SCR,2024-06-25_11h40.17.625,LearnStrategy,2023.2.3,Win32,60.24096386,,,,,,,,,,,8,16,3,5,,,,,,,,,,,,,,,,,,,,,,,,,,,,,,,
660b50fe7a64661e391dd08c,SCR,2024-06-25_11h40.17.625,LearnStrategy,2023.2.3,Win32,60.24096386,,,,,,,,,,,7,04,3,6,,,,,,,,,,,,,,,,,,,,,,,,,,,,,,,
660b50fe7a64661e391dd08c,SCR,2024-06-25_11h40.17.625,LearnStrategy,2023.2.3,Win32,60.24096386,,,,,,,,,,,5,16,3,7,,,,,,,,,,,,,,,,,,,,,,,,,,,,,,,
660b50fe7a64661e391dd08c,SCR,2024-06-25_11h40.17.625,LearnStrategy,2023.2.3,Win32,60.24096386,,,,,,,,,,,1,03,3,8,,,,,,,,,,,,,,,,,,,,,,,,,,,,,,,
660b50fe7a64661e391dd08c,SCR,2024-06-25_11h40.17.625,LearnStrategy,2023.2.3,Win32,60.24096386,,,,,,,,,,,3,16,4,1,,,,,,,,,,,,,,,,,,,,,,,,,,,,,,,
660b50fe7a64661e391dd08c,SCR,2024-06-25_11h40.17.625,LearnStrategy,2023.2.3,Win32,60.24096386,,,,,,,,,,,6,05,4,2,,,,,,,,,,,,,,,,,,,,,,,,,,,,,,,
660b50fe7a64661e391dd08c,SCR,2024-06-25_11h40.17.625,LearnStrategy,2023.2.3,Win32,60.24096386,,,,,,,,,,,8,05,4,3,,,,,,,,,,,,,,,,,,,,,,,,,,,,,,,
660b50fe7a64661e391dd08c,SCR,2024-06-25_11h40.17.625,LearnStrategy,2023.2.3,Win32,60.24096386,,,,,,,,,,,4,15,4,4,,,,,,,,,,,,,,,,,,,,,,,,,,,,,,,
660b50fe7a64661e391dd08c,SCR,2024-06-25_11h40.17.625,LearnStrategy,2023.2.3,Win32,60.24096386,,,,,,,,,,,3,12,4,5,,,,,,,,,,,,,,,,,,,,,,,,,,,,,,,
660b50fe7a64661e391dd08c,SCR,2024-06-25_11h40.17.625,LearnStrategy,2023.2.3,Win32,60.24096386,,,,,,,,,,,3,09,4,6,,,,,,,,,,,,,,,,,,,,,,,,,,,,,,,
660b50fe7a64661e391dd08c,SCR,2024-06-25_11h40.17.625,LearnStrategy,2023.2.3,Win32,60.24096386,,,,,,,,,,,5,09,4,7,,,,,,,,,,,,,,,,,,,,,,,,,,,,,,,
660b50fe7a64661e391dd08c,SCR,2024-06-25_11h40.17.625,LearnStrategy,2023.2.3,Win32,60.24096386,,,,,,,,,,,2,10,4,8,,,,,,,,,,,,,,,,,,,,,,,,,,,,,,,
660b50fe7a64661e391dd08c,SCR,2024-06-25_11h40.17.625,LearnStrategy,2023.2.3,Win32,60.24096386,,,,,,,,,,,1,14,5,1,,,,,,,,,,,,,,,,,,,,,,,,,,,,,,,
660b50fe7a64661e391dd08c,SCR,2024-06-25_11h40.17.625,LearnStrategy,2023.2.3,Win32,60.24096386,,,,,,,,,,,3,08,5,2,,,,,,,,,,,,,,,,,,,,,,,,,,,,,,,
660b50fe7a64661e391dd08c,SCR,2024-06-25_11h40.17.625,LearnStrategy,2023.2.3,Win32,60.24096386,,,,,,,,,,,7,10,5,3,,,,,,,,,,,,,,,,,,,,,,,,,,,,,,,
660b50fe7a64661e391dd08c,SCR,2024-06-25_11h40.17.625,LearnStrategy,2023.2.3,Win32,60.24096386,,,,,,,,,,,8,08,5,4,,,,,,,,,,,,,,,,,,,,,,,,,,,,,,,
660b50fe7a64661e391dd08c,SCR,2024-06-25_11h40.17.625,LearnStrategy,2023.2.3,Win32,60.24096386,,,,,,,,,,,1,06,5,5,,,,,,,,,,,,,,,,,,,,,,,,,,,,,,,
660b50fe7a64661e391dd08c,SCR,2024-06-25_11h40.17.625,LearnStrategy,2023.2.3,Win32,60.24096386,,,,,,,,,,,5,08,5,6,,,,,,,,,,,,,,,,,,,,,,,,,,,,,,,
660b50fe7a64661e391dd08c,SCR,2024-06-25_11h40.17.625,LearnStrategy,2023.2.3,Win32,60.24096386,,,,,,,,,,,8,03,5,7,,,,,,,,,,,,,,,,,,,,,,,,,,,,,,,
660b50fe7a64661e391dd08c,SCR,2024-06-25_11h40.17.625,LearnStrategy,2023.2.3,Win32,60.24096386,,,,,,,,,,,5,12,5,8,,,,,,,,,,,,,,,,,,,,,,,,,,,,,,,
660b50fe7a64661e391dd08c,SCR,2024-06-25_11h40.17.625,LearnStrategy,2023.2.3,Win32,60.24096386,,,,,,,,,,,6,13,6,1,,,,,,,,,,,,,,,,,,,,,,,,,,,,,,,
660b50fe7a64661e391dd08c,SCR,2024-06-25_11h40.17.625,LearnStrategy,2023.2.3,Win32,60.24096386,,,,,,,,,,,1,05,6,2,,,,,,,,,,,,,,,,,,,,,,,,,,,,,,,
660b50fe7a64661e391dd08c,SCR,2024-06-25_11h40.17.625,LearnStrategy,2023.2.3,Win32,60.24096386,,,,,,,,,,,4,13,6,3,,,,,,,,,,,,,,,,,,,,,,,,,,,,,,,
660b50fe7a64661e391dd08c,SCR,2024-06-25_11h40.17.625,LearnStrategy,2023.2.3,Win32,60.24096386,,,,,,,,,,,1,04,6,4,,,,,,,,,,,,,,,,,,,,,,,,,,,,,,,
660b50fe7a64661e391dd08c,SCR,2024-06-25_11h40.17.625,LearnStrategy,2023.2.3,Win32,60.24096386,,,,,,,,,,,6,12,6,5,,,,,,,,,,,,,,,,,,,,,,,,,,,,,,,
660b50fe7a64661e391dd08c,SCR,2024-06-25_11h40.17.625,LearnStrategy,2023.2.3,Win32,60.24096386,,,,,,,,,,,1,10,6,6,,,,,,,,,,,,,,,,,,,,,,,,,,,,,,,
660b50fe7a64661e391dd08c,SCR,2024-06-25_11h40.17.625,LearnStrategy,2023.2.3,Win32,60.24096386,,,,,,,,,,,7,05,6,7,,,,,,,,,,,,,,,,,,,,,,,,,,,,,,,
660b50fe7a64661e391dd08c,SCR,2024-06-25_11h40.17.625,LearnStrategy,2023.2.3,Win32,60.24096386,,,,,,,,,,,2,02,6,8,,,,,,,,,,,,,,,,,,,,,,,,,,,,,,,