participant,condition,date,expName,psychopyVersion,OS,frameRate,block,phase,trial,learn_mouse_2.x,learn_mouse_2.y,learn_mouse_2.leftButton,learn_mouse_2.midButton,learn_mouse_2.rightButton,learn_mouse_2.time,learn_mouse_2.clicked_name,cat,token,row,col,t_select,cat_mouse_l.x,cat_mouse_l.y,cat_mouse_l.leftButton,cat_mouse_l.midButton,cat_mouse_l.rightButton,cat_mouse_l.time,cat_mouse_l.clicked_name,resp,t_resp,corr,train_trials.thisRepN,train_trials.thisTrialN,train_trials.thisN,train_trials.thisIndex,train_trials.ran,cat_mouse_t.x,cat_mouse_t.y,cat_mouse_t.leftButton,cat_mouse_t.midButton,cat_mouse_t.rightButton,cat_mouse_t.time,cat_mouse_t.clicked_name,test_trials.thisRepN,test_trials.thisTrialN,test_trials.thisN,test_trials.thisIndex,test_trials.ran,Bonus
660ce8118af7c468fd0f996b,TCN,2024-06-24_16h36.07.984,LearnStrategy,2023.2.3,MacIntel,59.17159763,,,,,,,,,,,,,,,,,,,,,,,,,,,,,,,,,,,,,,,,,,,
660ce8118af7c468fd0f996b,TCN,2024-06-24_16h36.07.984,LearnStrategy,2023.2.3,MacIntel,59.17159763,1,1,1,-0.115106676,-0.002841865,1,0,0,1.917,rock_grid_rect_2,7,12,-1,-1,1.917,-0.100321181,-0.261685588,1,0,0,2.4415,Basalt_rect,2,2.441,0,0,0,0,0,1,,,,,,,,,,,,,
660ce8118af7c468fd0f996b,TCN,2024-06-24_16h36.07.984,LearnStrategy,2023.2.3,MacIntel,59.17159763,1,1,2,0.066449653,-0.024568956,1,0,0,0.9664,rock_grid_rect_2,1,14,-1,-1,0.966,-0.055628526,-0.252844781,1,0,0,1.6247,Basalt_rect,2,1.625,0,1,0,1,0,1,,,,,,,,,,,,,
660ce8118af7c468fd0f996b,TCN,2024-06-24_16h36.07.984,LearnStrategy,2023.2.3,MacIntel,59.17159763,1,1,3,0.020626492,0.002175937,1,0,0,1.0804,rock_grid_rect_2,4,15,-1,-1,1.08,0.202944539,-0.261077067,1,0,0,3.3591,Diorite_rect,3,3.359,0,2,0,2,0,1,,,,,,,,,,,,,
660ce8118af7c468fd0f996b,TCN,2024-06-24_16h36.07.984,LearnStrategy,2023.2.3,MacIntel,59.17159763,1,1,4,0.083722873,0.011046685,1,0,0,1.3864,rock_grid_rect_2,6,07,-1,-1,1.386,0.184475776,-0.252082248,1,0,0,2.5121,Diorite_rect,3,2.512,0,3,0,3,0,1,,,,,,,,,,,,,
660ce8118af7c468fd0f996b,TCN,2024-06-24_16h36.07.984,LearnStrategy,2023.2.3,MacIntel,59.17159763,1,1,5,-0.018450724,0.000681254,1,0,0,0.9622,rock_grid_rect_2,4,11,-1,-1,0.962,-0.05100803,-0.260631375,1,0,0,2.06,Basalt_rect,2,2.06,0,4,0,4,0,1,,,,,,,,,,,,,
660ce8118af7c468fd0f996b,TCN,2024-06-24_16h36.07.984,LearnStrategy,2023.2.3,MacIntel,59.17159763,1,1,6,-0.040983412,0.005862088,1,0,0,1.0033,rock_grid_rect_2,3,12,-1,-1,1.003,0.114899495,-0.258072238,1,0,0,1.1134,Diorite_rect,3,1.113,1,5,0,5,0,1,,,,,,,,,,,,,
660ce8118af7c468fd0f996b,TCN,2024-06-24_16h36.07.984,LearnStrategy,2023.2.3,MacIntel,59.17159763,1,1,7,-0.055069648,0.002703247,1,0,0,1.4571,rock_grid_rect_2,1,07,-1,-1,1.457,0.35473877,-0.402141588,1,0,0,1.636,Pumice_rect,8,1.636,0,6,0,6,0,1,,,,,,,,,,,,,
660ce8118af7c468fd0f996b,TCN,2024-06-24_16h36.07.984,LearnStrategy,2023.2.3,MacIntel,59.17159763,1,1,8,-0.057508206,-0.010118137,1,0,0,0.9108,rock_grid_rect_2,3,15,-1,-1,0.911,0.175317722,-0.41986613,1,0,0,16.009,Peridotite_rect,7,16.009,0,7,0,7,0,1,,,,,,,,,,,,,
660ce8118af7c468fd0f996b,TCN,2024-06-24_16h36.07.984,LearnStrategy,2023.2.3,MacIntel,59.17159763,1,1,9,0.091687351,0.000694207,1,0,0,11.4208,rock_grid_rect_2,2,11,-1,-1,11.421,-0.184159478,-0.410245429,1,0,0,4.6757,Pegmatite_rect,6,4.676,0,8,0,8,0,1,,,,,,,,,,,,,
660ce8118af7c468fd0f996b,TCN,2024-06-24_16h36.07.984,LearnStrategy,2023.2.3,MacIntel,59.17159763,1,1,10,-0.088695407,-0.00126614,1,0,0,2.4809,rock_grid_rect_2,5,09,-1,-1,2.481,-0.386179572,-0.414451633,1,0,0,1.5381,Obsidian_rect,5,1.538,1,9,0,9,0,1,,,,,,,,,,,,,
660ce8118af7c468fd0f996b,TCN,2024-06-24_16h36.07.984,LearnStrategy,2023.2.3,MacIntel,59.17159763,1,1,11,0.114791734,-0.010691698,1,0,0,8.4567,rock_grid_rect_2,7,10,-1,-1,8.457,0.395791694,-0.239574517,1,0,0,10.2047,Gabbro_rect,4,10.205,0,10,0,10,0,1,,,,,,,,,,,,,
660ce8118af7c468fd0f996b,TCN,2024-06-24_16h36.07.984,LearnStrategy,2023.2.3,MacIntel,59.17159763,1,1,12,0.085513441,0.004905294,1,0,0,1.2542,rock_grid_rect_2,5,07,-1,-1,1.254,-0.356165466,-0.410212809,1,0,0,2.4505,Obsidian_rect,5,2.451,1,11,0,11,0,1,,,,,,,,,,,,,
660ce8118af7c468fd0f996b,TCN,2024-06-24_16h36.07.984,LearnStrategy,2023.2.3,MacIntel,59.17159763,1,1,13,0.028901299,0.005610826,1,0,0,1.1758,rock_grid_rect_2,8,14,-1,-1,1.176,0.386708306,-0.415013699,1,0,0,1.9219,Pumice_rect,8,1.922,1,12,0,12,0,1,,,,,,,,,,,,,
660ce8118af7c468fd0f996b,TCN,2024-06-24_16h36.07.984,LearnStrategy,2023.2.3,MacIntel,59.17159763,1,1,14,0.012891642,-0.00137146,1,0,0,0.9971,rock_grid_rect_2,8,02,-1,-1,0.997,0.351053738,-0.406630046,1,0,0,1.0788,Pumice_rect,8,1.079,1,13,0,13,0,1,,,,,,,,,,,,,
660ce8118af7c468fd0f996b,TCN,2024-06-24_16h36.07.984,LearnStrategy,2023.2.3,MacIntel,59.17159763,1,1,15,0.071925863,0.012754211,1,0,0,0.7997,rock_grid_rect_2,2,06,-1,-1,0.8,-0.33558865,-0.397612033,1,0,0,2.0229,Obsidian_rect,5,2.023,0,14,0,14,0,1,,,,,,,,,,,,,
660ce8118af7c468fd0f996b,TCN,2024-06-24_16h36.07.984,LearnStrategy,2023.2.3,MacIntel,59.17159763,1,1,16,-0.08511461,-0.002197266,1,0,0,0.8869,rock_grid_rect_2,6,10,-1,-1,0.887,0.15918179,-0.249169515,1,0,0,1.4757,Diorite_rect,3,1.476,0,15,0,15,0,1,,,,,,,,,,,,,
660ce8118af7c468fd0f996b,TCN,2024-06-24_16h36.07.984,LearnStrategy,2023.2.3,MacIntel,59.17159763,1,2,1,,,,,,,,8,10,,,,,,,,,,,8,7.575,1,,,,,,0.442915853,-0.398355849,1,0,0,7.5752,Pumice_rect,0,0,0,0,1,
660ce8118af7c468fd0f996b,TCN,2024-06-24_16h36.07.984,LearnStrategy,2023.2.3,MacIntel,59.17159763,1,2,2,,,,,,,,4,14,,,,,,,,,,,2,2.136,0,,,,,,-0.059947984,-0.247803141,1,0,0,2.136,Basalt_rect,1,0,1,0,1,
660ce8118af7c468fd0f996b,TCN,2024-06-24_16h36.07.984,LearnStrategy,2023.2.3,MacIntel,59.17159763,1,2,3,,,,,,,,7,16,,,,,,,,,,,6,2.51,0,,,,,,-0.094943509,-0.414060398,1,0,0,2.5104,Pegmatite_rect,2,0,2,0,1,
660ce8118af7c468fd0f996b,TCN,2024-06-24_16h36.07.984,LearnStrategy,2023.2.3,MacIntel,59.17159763,1,2,4,,,,,,,,1,01,,,,,,,,,,,4,3.472,0,,,,,,0.387494575,-0.235836656,1,0,0,3.4719,Gabbro_rect,3,0,3,0,1,
660ce8118af7c468fd0f996b,TCN,2024-06-24_16h36.07.984,LearnStrategy,2023.2.3,MacIntel,59.17159763,1,2,5,,,,,,,,5,04,,,,,,,,,,,5,1.4,1,,,,,,-0.3541922,-0.383980374,1,0,0,1.4001,Obsidian_rect,4,0,4,0,1,
660ce8118af7c468fd0f996b,TCN,2024-06-24_16h36.07.984,LearnStrategy,2023.2.3,MacIntel,59.17159763,1,2,6,,,,,,,,3,16,,,,,,,,,,,2,4.95,0,,,,,,-0.166458808,-0.250146688,1,0,0,4.9502,Basalt_rect,5,0,5,0,1,
660ce8118af7c468fd0f996b,TCN,2024-06-24_16h36.07.984,LearnStrategy,2023.2.3,MacIntel,59.17159763,1,2,7,,,,,,,,1,10,,,,,,,,,,,8,2.443,0,,,,,,0.356215956,-0.383947483,1,0,0,2.4434,Pumice_rect,6,0,6,0,1,
660ce8118af7c468fd0f996b,TCN,2024-06-24_16h36.07.984,LearnStrategy,2023.2.3,MacIntel,59.17159763,1,2,8,,,,,,,,2,04,,,,,,,,,,,2,1.43,1,,,,,,-0.048175184,-0.234443292,1,0,0,1.4302,Basalt_rect,7,0,7,0,1,
660ce8118af7c468fd0f996b,TCN,2024-06-24_16h36.07.984,LearnStrategy,2023.2.3,MacIntel,59.17159763,1,2,9,,,,,,,,6,09,,,,,,,,,,,6,1.26,1,,,,,,-0.119992337,-0.396794705,1,0,0,1.2601,Pegmatite_rect,8,0,8,0,1,
660ce8118af7c468fd0f996b,TCN,2024-06-24_16h36.07.984,LearnStrategy,2023.2.3,MacIntel,59.17159763,1,2,10,,,,,,,,3,02,,,,,,,,,,,3,2.068,1,,,,,,0.161861572,-0.264327867,1,0,0,2.0681,Diorite_rect,9,0,9,0,1,
660ce8118af7c468fd0f996b,TCN,2024-06-24_16h36.07.984,LearnStrategy,2023.2.3,MacIntel,59.17159763,1,2,11,,,,,,,,8,15,,,,,,,,,,,8,1.138,1,,,,,,0.296878933,-0.39982761,1,0,0,1.1385,Pumice_rect,10,0,10,0,1,
660ce8118af7c468fd0f996b,TCN,2024-06-24_16h36.07.984,LearnStrategy,2023.2.3,MacIntel,59.17159763,1,2,12,,,,,,,,4,01,,,,,,,,,,,4,1.519,1,,,,,,0.364039985,-0.253572388,1,0,0,1.5195,Gabbro_rect,11,0,11,0,1,
660ce8118af7c468fd0f996b,TCN,2024-06-24_16h36.07.984,LearnStrategy,2023.2.3,MacIntel,59.17159763,1,2,13,,,,,,,,6,05,,,,,,,,,,,1,1.731,0,,,,,,-0.326310628,-0.262825521,1,0,0,1.7309,Andesite_rect,12,0,12,0,1,
660ce8118af7c468fd0f996b,TCN,2024-06-24_16h36.07.984,LearnStrategy,2023.2.3,MacIntel,59.17159763,1,2,14,,,,,,,,5,06,,,,,,,,,,,5,2.028,1,,,,,,-0.325881449,-0.39316196,1,0,0,2.0281,Obsidian_rect,13,0,13,0,1,
660ce8118af7c468fd0f996b,TCN,2024-06-24_16h36.07.984,LearnStrategy,2023.2.3,MacIntel,59.17159763,1,2,15,,,,,,,,7,14,,,,,,,,,,,4,4.16,0,,,,,,0.406813965,-0.254329291,1,0,0,4.1595,Gabbro_rect,14,0,14,0,1,
660ce8118af7c468fd0f996b,TCN,2024-06-24_16h36.07.984,LearnStrategy,2023.2.3,MacIntel,59.17159763,1,2,16,,,,,,,,2,08,,,,,,,,,,,2,1.339,1,,,,,,-0.13531901,-0.251279704,1,0,0,1.3394,Basalt_rect,15,0,15,0,1,
660ce8118af7c468fd0f996b,TCN,2024-06-24_16h36.07.984,LearnStrategy,2023.2.3,MacIntel,59.17159763,2,1,1,0.022732747,0.013228048,1,0,0,1.1191,rock_grid_rect_2,5,11,-1,-1,1.119,-0.431504008,-0.385781521,1,0,0,2.8036,Obsidian_rect,5,2.804,1,0,0,0,0,1,,,,,,,,,,,,,
660ce8118af7c468fd0f996b,TCN,2024-06-24_16h36.07.984,LearnStrategy,2023.2.3,MacIntel,59.17159763,2,1,2,-0.032282986,-0.016745063,1,0,0,0.9083,rock_grid_rect_2,2,02,-1,-1,0.908,-0.081994561,-0.241130507,1,0,0,0.9825,Basalt_rect,2,0.983,1,1,0,1,0,1,,,,,,,,,,,,,
660ce8118af7c468fd0f996b,TCN,2024-06-24_16h36.07.984,LearnStrategy,2023.2.3,MacIntel,59.17159763,2,1,3,-0.014094713,-0.023357374,1,0,0,1.2652,rock_grid_rect_2,2,01,-1,-1,1.265,-0.062998657,-0.249561428,1,0,0,0.8823,Basalt_rect,2,0.882,1,2,0,2,0,1,,,,,,,,,,,,,
660ce8118af7c468fd0f996b,TCN,2024-06-24_16h36.07.984,LearnStrategy,2023.2.3,MacIntel,59.17159763,2,1,4,-0.021198459,0.014947611,1,0,0,0.8412,rock_grid_rect_2,6,16,-1,-1,0.841,-0.322636515,-0.267240872,1,0,0,3.2278,Andesite_rect,1,3.228,0,3,0,3,0,1,,,,,,,,,,,,,
660ce8118af7c468fd0f996b,TCN,2024-06-24_16h36.07.984,LearnStrategy,2023.2.3,MacIntel,59.17159763,2,1,5,0.00650038,-0.019044156,1,0,0,1.2041,rock_grid_rect_2,1,09,-1,-1,1.204,0.366415609,-0.249437934,1,0,0,1.491,Gabbro_rect,4,1.491,0,4,0,4,0,1,,,,,,,,,,,,,
660ce8118af7c468fd0f996b,TCN,2024-06-24_16h36.07.984,LearnStrategy,2023.2.3,MacIntel,59.17159763,2,1,6,-0.003146837,0.015422702,1,0,0,0.9953,rock_grid_rect_2,4,03,-1,-1,0.995,0.334262763,-0.266988593,1,0,0,4.249,Gabbro_rect,4,4.249,1,5,0,5,0,1,,,,,,,,,,,,,
660ce8118af7c468fd0f996b,TCN,2024-06-24_16h36.07.984,LearnStrategy,2023.2.3,MacIntel,59.17159763,2,1,7,-0.08976359,-0.011839294,1,0,0,0.9626,rock_grid_rect_2,3,13,-1,-1,0.963,0.386277398,-0.262247721,1,0,0,1.848,Gabbro_rect,4,1.848,0,6,0,6,0,1,,,,,,,,,,,,,
660ce8118af7c468fd0f996b,TCN,2024-06-24_16h36.07.984,LearnStrategy,2023.2.3,MacIntel,59.17159763,2,1,8,-0.092799208,-0.001666226,1,0,0,0.936,rock_grid_rect_2,4,16,-1,-1,0.936,-0.100283678,-0.239301961,1,0,0,1.2596,Basalt_rect,2,1.26,0,7,0,7,0,1,,,,,,,,,,,,,
660ce8118af7c468fd0f996b,TCN,2024-06-24_16h36.07.984,LearnStrategy,2023.2.3,MacIntel,59.17159763,2,1,9,-0.051064724,-0.018562147,1,0,0,0.8641,rock_grid_rect_2,3,11,-1,-1,0.864,0.443333876,-0.258451063,1,0,0,2.2172,Gabbro_rect,4,2.217,0,8,0,8,0,1,,,,,,,,,,,,,
660ce8118af7c468fd0f996b,TCN,2024-06-24_16h36.07.984,LearnStrategy,2023.2.3,MacIntel,59.17159763,2,1,10,0.028094889,-0.014518636,1,0,0,1.2628,rock_grid_rect_2,8,13,-1,-1,1.263,0.434200711,-0.406652561,1,0,0,1.2527,Pumice_rect,8,1.253,1,9,0,9,0,1,,,,,,,,,,,,,
660ce8118af7c468fd0f996b,TCN,2024-06-24_16h36.07.984,LearnStrategy,2023.2.3,MacIntel,59.17159763,2,1,11,0.060592312,9.11797E-05,1,0,0,0.8231,rock_grid_rect_2,6,06,-1,-1,0.823,-0.145948215,-0.390767076,1,0,0,1.7711,Pegmatite_rect,6,1.771,1,10,0,10,0,1,,,,,,,,,,,,,
660ce8118af7c468fd0f996b,TCN,2024-06-24_16h36.07.984,LearnStrategy,2023.2.3,MacIntel,59.17159763,2,1,12,-0.130746799,-0.016243456,1,0,0,0.9127,rock_grid_rect_2,1,04,-1,-1,0.913,-0.086512858,-0.412757365,1,0,0,2.4808,Pegmatite_rect,6,2.481,0,11,0,11,0,1,,,,,,,,,,,,,
660ce8118af7c468fd0f996b,TCN,2024-06-24_16h36.07.984,LearnStrategy,2023.2.3,MacIntel,59.17159763,2,1,13,-0.025489299,-0.008214213,1,0,0,0.9208,rock_grid_rect_2,8,16,-1,-1,0.921,0.365530192,-0.395294732,1,0,0,1.298,Pumice_rect,8,1.298,1,12,0,12,0,1,,,,,,,,,,,,,
660ce8118af7c468fd0f996b,TCN,2024-06-24_16h36.07.984,LearnStrategy,2023.2.3,MacIntel,59.17159763,2,1,14,0.08242981,0.005199687,1,0,0,1.2713,rock_grid_rect_2,7,06,-1,-1,1.271,-0.105211249,-0.408026055,1,0,0,1.3415,Pegmatite_rect,6,1.341,0,13,0,13,0,1,,,,,,,,,,,,,
660ce8118af7c468fd0f996b,TCN,2024-06-24_16h36.07.984,LearnStrategy,2023.2.3,MacIntel,59.17159763,2,1,15,-0.048897705,-0.00367391,1,0,0,0.9031,rock_grid_rect_2,5,12,-1,-1,0.903,-0.310808885,-0.383916083,1,0,0,1.1786,Obsidian_rect,5,1.179,1,14,0,14,0,1,,,,,,,,,,,,,
660ce8118af7c468fd0f996b,TCN,2024-06-24_16h36.07.984,LearnStrategy,2023.2.3,MacIntel,59.17159763,2,1,16,0.058003472,0.021461995,1,0,0,0.7848,rock_grid_rect_2,7,04,-1,-1,0.785,0.143123237,-0.259962158,1,0,0,2.3848,Diorite_rect,3,2.385,0,15,0,15,0,1,,,,,,,,,,,,,
660ce8118af7c468fd0f996b,TCN,2024-06-24_16h36.07.984,LearnStrategy,2023.2.3,MacIntel,59.17159763,2,2,1,,,,,,,,3,06,,,,,,,,,,,1,4.317,0,,,,,,-0.372906731,-0.259223768,1,0,0,4.3166,Andesite_rect,0,0,0,0,1,
660ce8118af7c468fd0f996b,TCN,2024-06-24_16h36.07.984,LearnStrategy,2023.2.3,MacIntel,59.17159763,2,2,2,,,,,,,,4,12,,,,,,,,,,,2,1.488,0,,,,,,-0.138482123,-0.264185927,1,0,0,1.4885,Basalt_rect,1,0,1,0,1,
660ce8118af7c468fd0f996b,TCN,2024-06-24_16h36.07.984,LearnStrategy,2023.2.3,MacIntel,59.17159763,2,2,3,,,,,,,,8,08,,,,,,,,,,,8,1.398,1,,,,,,0.3670676,-0.393626845,1,0,0,1.3982,Pumice_rect,2,0,2,0,1,
660ce8118af7c468fd0f996b,TCN,2024-06-24_16h36.07.984,LearnStrategy,2023.2.3,MacIntel,59.17159763,2,2,4,,,,,,,,5,16,,,,,,,,,,,5,0.778,1,,,,,,-0.316734246,-0.378142429,1,0,0,0.7782,Obsidian_rect,3,0,3,0,1,
660ce8118af7c468fd0f996b,TCN,2024-06-24_16h36.07.984,LearnStrategy,2023.2.3,MacIntel,59.17159763,2,2,5,,,,,,,,8,05,,,,,,,,,,,8,1.263,1,,,,,,0.361496989,-0.385103082,1,0,0,1.2633,Pumice_rect,4,0,4,0,1,
660ce8118af7c468fd0f996b,TCN,2024-06-24_16h36.07.984,LearnStrategy,2023.2.3,MacIntel,59.17159763,2,2,6,,,,,,,,6,12,,,,,,,,,,,6,46.846,1,,,,,,-0.083706055,-0.419434747,1,0,0,46.8464,Pegmatite_rect,5,0,5,0,1,
660ce8118af7c468fd0f996b,TCN,2024-06-24_16h36.07.984,LearnStrategy,2023.2.3,MacIntel,59.17159763,2,2,7,,,,,,,,7,02,,,,,,,,,,,7,1.405,1,,,,,,0.102293633,-0.40215922,1,0,0,1.4047,Peridotite_rect,6,0,6,0,1,
660ce8118af7c468fd0f996b,TCN,2024-06-24_16h36.07.984,LearnStrategy,2023.2.3,MacIntel,59.17159763,2,2,8,,,,,,,,2,09,,,,,,,,,,,2,0.996,1,,,,,,-0.108772108,-0.229488322,1,0,0,0.9961,Basalt_rect,7,0,7,0,1,
660ce8118af7c468fd0f996b,TCN,2024-06-24_16h36.07.984,LearnStrategy,2023.2.3,MacIntel,59.17159763,2,2,9,,,,,,,,7,07,,,,,,,,,,,7,3.491,1,,,,,,0.069476522,-0.415125258,1,0,0,3.4913,Peridotite_rect,8,0,8,0,1,
660ce8118af7c468fd0f996b,TCN,2024-06-24_16h36.07.984,LearnStrategy,2023.2.3,MacIntel,59.17159763,2,2,10,,,,,,,,2,10,,,,,,,,,,,2,2.265,1,,,,,,-0.146694472,-0.262512071,1,0,0,2.2649,Basalt_rect,9,0,9,0,1,
660ce8118af7c468fd0f996b,TCN,2024-06-24_16h36.07.984,LearnStrategy,2023.2.3,MacIntel,59.17159763,2,2,11,,,,,,,,4,10,,,,,,,,,,,2,1.485,0,,,,,,-0.083520169,-0.240107625,1,0,0,1.4853,Basalt_rect,10,0,10,0,1,
660ce8118af7c468fd0f996b,TCN,2024-06-24_16h36.07.984,LearnStrategy,2023.2.3,MacIntel,59.17159763,2,2,12,,,,,,,,1,06,,,,,,,,,,,4,2.419,0,,,,,,0.330151978,-0.264543254,1,0,0,2.4194,Gabbro_rect,11,0,11,0,1,
660ce8118af7c468fd0f996b,TCN,2024-06-24_16h36.07.984,LearnStrategy,2023.2.3,MacIntel,59.17159763,2,2,13,,,,,,,,3,09,,,,,,,,,,,3,1.144,1,,,,,,0.200143975,-0.260325724,1,0,0,1.1436,Diorite_rect,12,0,12,0,1,
660ce8118af7c468fd0f996b,TCN,2024-06-24_16h36.07.984,LearnStrategy,2023.2.3,MacIntel,59.17159763,2,2,14,,,,,,,,6,15,,,,,,,,,,,6,2.416,1,,,,,,-0.034814114,-0.421497667,1,0,0,2.416,Pegmatite_rect,13,0,13,0,1,
660ce8118af7c468fd0f996b,TCN,2024-06-24_16h36.07.984,LearnStrategy,2023.2.3,MacIntel,59.17159763,2,2,15,,,,,,,,1,11,,,,,,,,,,,6,1.43,0,,,,,,-0.095395915,-0.409736735,1,0,0,1.4302,Pegmatite_rect,14,0,14,0,1,
660ce8118af7c468fd0f996b,TCN,2024-06-24_16h36.07.984,LearnStrategy,2023.2.3,MacIntel,59.17159763,2,2,16,,,,,,,,5,05,,,,,,,,,,,5,1.597,1,,,,,,-0.315778673,-0.395518528,1,0,0,1.597,Obsidian_rect,15,0,15,0,1,
660ce8118af7c468fd0f996b,TCN,2024-06-24_16h36.07.984,LearnStrategy,2023.2.3,MacIntel,59.17159763,3,1,1,0.157065362,-0.015487976,1,0,0,15.2565,rock_grid_rect_2,2,12,-1,-1,15.256,-0.121881307,-0.245371975,1,0,0,3.5915,Basalt_rect,2,3.591,1,0,0,0,0,1,,,,,,,,,,,,,
660ce8118af7c468fd0f996b,TCN,2024-06-24_16h36.07.984,LearnStrategy,2023.2.3,MacIntel,59.17159763,3,1,2,-0.166886529,-0.018971286,1,0,0,1.0183,rock_grid_rect_2,4,13,-1,-1,1.018,0.404200304,-0.231747572,1,0,0,47.5475,Gabbro_rect,4,47.548,1,1,0,1,0,1,,,,,,,,,,,,,
660ce8118af7c468fd0f996b,TCN,2024-06-24_16h36.07.984,LearnStrategy,2023.2.3,MacIntel,59.17159763,3,1,3,0.008312514,-0.021465013,1,0,0,1.0446,rock_grid_rect_2,7,08,-1,-1,1.045,0.115416531,-0.395633545,1,0,0,1.343,Peridotite_rect,7,1.343,1,2,0,2,0,1,,,,,,,,,,,,,
660ce8118af7c468fd0f996b,TCN,2024-06-24_16h36.07.984,LearnStrategy,2023.2.3,MacIntel,59.17159763,3,1,4,-0.033524712,-0.018890381,1,0,0,1.2019,rock_grid_rect_2,7,05,-1,-1,1.202,0.106171604,-0.421319377,1,0,0,2.0447,Peridotite_rect,7,2.045,1,3,0,3,0,1,,,,,,,,,,,,,
660ce8118af7c468fd0f996b,TCN,2024-06-24_16h36.07.984,LearnStrategy,2023.2.3,MacIntel,59.17159763,3,1,5,0.064621514,-0.009279005,1,0,0,1.1488,rock_grid_rect_2,5,14,-1,-1,1.149,-0.324248488,-0.39109158,1,0,0,1.3936,Obsidian_rect,5,1.394,1,4,0,4,0,1,,,,,,,,,,,,,
660ce8118af7c468fd0f996b,TCN,2024-06-24_16h36.07.984,LearnStrategy,2023.2.3,MacIntel,59.17159763,3,1,6,0.074501614,0.020120443,1,0,0,0.7533,rock_grid_rect_2,1,02,-1,-1,0.753,0.129196913,-0.250289103,1,0,0,1.9153,Diorite_rect,3,1.915,0,5,0,5,0,1,,,,,,,,,,,,,
660ce8118af7c468fd0f996b,TCN,2024-06-24_16h36.07.984,LearnStrategy,2023.2.3,MacIntel,59.17159763,3,1,7,-0.083175795,-0.017390001,1,0,0,1.1651,rock_grid_rect_2,3,08,-1,-1,1.165,0.127921956,-0.264419556,1,0,0,1.463,Diorite_rect,3,1.463,1,6,0,6,0,1,,,,,,,,,,,,,
660ce8118af7c468fd0f996b,TCN,2024-06-24_16h36.07.984,LearnStrategy,2023.2.3,MacIntel,59.17159763,3,1,8,0.077186347,0.021459317,1,0,0,0.874,rock_grid_rect_2,8,03,-1,-1,0.874,0.382646077,-0.387507528,1,0,0,1.3193,Pumice_rect,8,1.319,1,7,0,7,0,1,,,,,,,,,,,,,
660ce8118af7c468fd0f996b,TCN,2024-06-24_16h36.07.984,LearnStrategy,2023.2.3,MacIntel,59.17159763,3,1,9,-0.052136163,0.010761583,1,0,0,0.8255,rock_grid_rect_2,8,09,-1,-1,0.825,0.381883409,-0.420797119,1,0,0,1.1409,Pumice_rect,8,1.141,1,8,0,8,0,1,,,,,,,,,,,,,
660ce8118af7c468fd0f996b,TCN,2024-06-24_16h36.07.984,LearnStrategy,2023.2.3,MacIntel,59.17159763,3,1,10,0.041665243,-0.014048903,1,0,0,0.6928,rock_grid_rect_2,6,08,-1,-1,0.693,-0.071611667,-0.413945041,1,0,0,2.0781,Pegmatite_rect,6,2.078,1,9,0,9,0,1,,,,,,,,,,,,,
660ce8118af7c468fd0f996b,TCN,2024-06-24_16h36.07.984,LearnStrategy,2023.2.3,MacIntel,59.17159763,3,1,11,0.106099311,0.01339898,1,0,0,1.0825,rock_grid_rect_2,6,13,-1,-1,1.082,-0.165846422,-0.416851942,1,0,0,1.0282,Pegmatite_rect,6,1.028,1,10,0,10,0,1,,,,,,,,,,,,,
660ce8118af7c468fd0f996b,TCN,2024-06-24_16h36.07.984,LearnStrategy,2023.2.3,MacIntel,59.17159763,3,1,12,0.019773424,-0.023872172,1,0,0,0.8247,rock_grid_rect_2,2,16,-1,-1,0.825,-0.121782769,-0.254633653,1,0,0,0.9284,Basalt_rect,2,0.928,1,11,0,11,0,1,,,,,,,,,,,,,
660ce8118af7c468fd0f996b,TCN,2024-06-24_16h36.07.984,LearnStrategy,2023.2.3,MacIntel,59.17159763,3,1,13,0.044351603,-0.009443563,1,0,0,0.8706,rock_grid_rect_2,5,08,-1,-1,0.871,-0.400134515,-0.387023112,1,0,0,2.0621,Obsidian_rect,5,2.062,1,12,0,12,0,1,,,,,,,,,,,,,
660ce8118af7c468fd0f996b,TCN,2024-06-24_16h36.07.984,LearnStrategy,2023.2.3,MacIntel,59.17159763,3,1,14,0.143222724,-0.010843981,1,0,0,1.4432,rock_grid_rect_2,4,08,-1,-1,1.443,-0.096165093,-0.268188137,1,0,0,2.3907,Basalt_rect,2,2.391,0,13,0,13,0,1,,,,,,,,,,,,,
660ce8118af7c468fd0f996b,TCN,2024-06-24_16h36.07.984,LearnStrategy,2023.2.3,MacIntel,59.17159763,3,1,15,-0.021944784,-0.015697666,1,0,0,3.6182,rock_grid_rect_2,1,05,-1,-1,3.618,-0.369902174,-0.247015652,1,0,0,1.8752,Andesite_rect,1,1.875,1,14,0,14,0,1,,,,,,,,,,,,,
660ce8118af7c468fd0f996b,TCN,2024-06-24_16h36.07.984,LearnStrategy,2023.2.3,MacIntel,59.17159763,3,1,16,0.008314684,-0.00519416,1,0,0,0.92,rock_grid_rect_2,3,07,-1,-1,0.92,0.144294366,-0.248934326,1,0,0,1.6004,Diorite_rect,3,1.6,1,15,0,15,0,1,,,,,,,,,,,,,
660ce8118af7c468fd0f996b,TCN,2024-06-24_16h36.07.984,LearnStrategy,2023.2.3,MacIntel,59.17159763,3,2,1,,,,,,,,7,15,,,,,,,,,,,7,1.344,1,,,,,,0.13964898,-0.380781386,1,0,0,1.3444,Peridotite_rect,0,0,0,0,1,
660ce8118af7c468fd0f996b,TCN,2024-06-24_16h36.07.984,LearnStrategy,2023.2.3,MacIntel,59.17159763,3,2,2,,,,,,,,8,04,,,,,,,,,,,8,2.299,1,,,,,,0.37697781,-0.408956841,1,0,0,2.2987,Pumice_rect,1,0,1,0,1,
660ce8118af7c468fd0f996b,TCN,2024-06-24_16h36.07.984,LearnStrategy,2023.2.3,MacIntel,59.17159763,3,2,3,,,,,,,,4,09,,,,,,,,,,,4,6.303,1,,,,,,0.337367689,-0.234545627,1,0,0,6.3031,Gabbro_rect,2,0,2,0,1,
660ce8118af7c468fd0f996b,TCN,2024-06-24_16h36.07.984,LearnStrategy,2023.2.3,MacIntel,59.17159763,3,2,4,,,,,,,,4,05,,,,,,,,,,,7,1.532,0,,,,,,0.090966797,-0.384680311,1,0,0,1.5318,Peridotite_rect,3,0,3,0,1,
660ce8118af7c468fd0f996b,TCN,2024-06-24_16h36.07.984,LearnStrategy,2023.2.3,MacIntel,59.17159763,3,2,5,,,,,,,,7,13,,,,,,,,,,,7,1.081,1,,,,,,0.088848267,-0.385354004,1,0,0,1.0813,Peridotite_rect,4,0,4,0,1,
660ce8118af7c468fd0f996b,TCN,2024-06-24_16h36.07.984,LearnStrategy,2023.2.3,MacIntel,59.17159763,3,2,6,,,,,,,,1,03,,,,,,,,,,,1,1.682,1,,,,,,-0.32501319,-0.265723199,1,0,0,1.682,Andesite_rect,5,0,5,0,1,
660ce8118af7c468fd0f996b,TCN,2024-06-24_16h36.07.984,LearnStrategy,2023.2.3,MacIntel,59.17159763,3,2,7,,,,,,,,3,14,,,,,,,,,,,3,1.177,1,,,,,,0.124444444,-0.258481242,1,0,0,1.1766,Diorite_rect,6,0,6,0,1,
660ce8118af7c468fd0f996b,TCN,2024-06-24_16h36.07.984,LearnStrategy,2023.2.3,MacIntel,59.17159763,3,2,8,,,,,,,,5,02,,,,,,,,,,,5,1.281,1,,,,,,-0.356304389,-0.404346381,1,0,0,1.2811,Obsidian_rect,7,0,7,0,1,
660ce8118af7c468fd0f996b,TCN,2024-06-24_16h36.07.984,LearnStrategy,2023.2.3,MacIntel,59.17159763,3,2,9,,,,,,,,8,06,,,,,,,,,,,8,1.005,1,,,,,,0.308918864,-0.385485026,1,0,0,1.0047,Pumice_rect,8,0,8,0,1,
660ce8118af7c468fd0f996b,TCN,2024-06-24_16h36.07.984,LearnStrategy,2023.2.3,MacIntel,59.17159763,3,2,10,,,,,,,,2,05,,,,,,,,,,,2,1.026,1,,,,,,-0.112248603,-0.248600735,1,0,0,1.0257,Basalt_rect,9,0,9,0,1,
660ce8118af7c468fd0f996b,TCN,2024-06-24_16h36.07.984,LearnStrategy,2023.2.3,MacIntel,59.17159763,3,2,11,,,,,,,,3,10,,,,,,,,,,,1,7.667,0,,,,,,-0.385998942,-0.260260552,1,0,0,7.6673,Andesite_rect,10,0,10,0,1,
660ce8118af7c468fd0f996b,TCN,2024-06-24_16h36.07.984,LearnStrategy,2023.2.3,MacIntel,59.17159763,3,2,12,,,,,,,,1,16,,,,,,,,,,,1,1.86,1,,,,,,-0.393247477,-0.260989109,1,0,0,1.8595,Andesite_rect,11,0,11,0,1,
660ce8118af7c468fd0f996b,TCN,2024-06-24_16h36.07.984,LearnStrategy,2023.2.3,MacIntel,59.17159763,3,2,13,,,,,,,,5,10,,,,,,,,,,,5,1.071,1,,,,,,-0.406443854,-0.405928684,1,0,0,1.0708,Obsidian_rect,12,0,12,0,1,
660ce8118af7c468fd0f996b,TCN,2024-06-24_16h36.07.984,LearnStrategy,2023.2.3,MacIntel,59.17159763,3,2,14,,,,,,,,2,14,,,,,,,,,,,2,0.965,1,,,,,,-0.122592706,-0.254363878,1,0,0,0.9651,Basalt_rect,13,0,13,0,1,
660ce8118af7c468fd0f996b,TCN,2024-06-24_16h36.07.984,LearnStrategy,2023.2.3,MacIntel,59.17159763,3,2,15,,,,,,,,6,11,,,,,,,,,,,6,1.156,1,,,,,,-0.095167236,-0.409263713,1,0,0,1.1562,Pegmatite_rect,14,0,14,0,1,
660ce8118af7c468fd0f996b,TCN,2024-06-24_16h36.07.984,LearnStrategy,2023.2.3,MacIntel,59.17159763,3,2,16,,,,,,,,6,03,,,,,,,,,,,6,1.632,1,,,,,,-0.087671305,-0.389544746,1,0,0,1.6323,Pegmatite_rect,15,0,15,0,1,
660ce8118af7c468fd0f996b,TCN,2024-06-24_16h36.07.984,LearnStrategy,2023.2.3,MacIntel,59.17159763,4,1,1,0.022154202,0.015784132,1,0,0,0.8951,rock_grid_rect_2,6,06,-1,-1,0.895,-0.142989366,-0.386036716,1,0,0,1.5831,Pegmatite_rect,6,1.583,1,0,0,0,0,1,,,,,,,,,,,,,
660ce8118af7c468fd0f996b,TCN,2024-06-24_16h36.07.984,LearnStrategy,2023.2.3,MacIntel,59.17159763,4,1,2,-0.054696791,0.014313694,1,0,0,0.9327,rock_grid_rect_2,2,06,-1,-1,0.933,-0.152711046,-0.243572252,1,0,0,1.3631,Basalt_rect,2,1.363,1,1,0,1,0,1,,,,,,,,,,,,,
660ce8118af7c468fd0f996b,TCN,2024-06-24_16h36.07.984,LearnStrategy,2023.2.3,MacIntel,59.17159763,4,1,3,0.002455444,-0.008414883,1,0,0,0.7587,rock_grid_rect_2,1,04,-1,-1,0.759,-0.340978665,-0.255747613,1,0,0,4.8442,Andesite_rect,1,4.844,1,2,0,2,0,1,,,,,,,,,,,,,
660ce8118af7c468fd0f996b,TCN,2024-06-24_16h36.07.984,LearnStrategy,2023.2.3,MacIntel,59.17159763,4,1,4,-0.045610012,-0.002004903,1,0,0,0.9577,rock_grid_rect_2,5,12,-1,-1,0.958,-0.315921054,-0.399740804,1,0,0,1.6315,Obsidian_rect,5,1.632,1,3,0,3,0,1,,,,,,,,,,,,,
660ce8118af7c468fd0f996b,TCN,2024-06-24_16h36.07.984,LearnStrategy,2023.2.3,MacIntel,59.17159763,4,1,5,0.079411621,0.016074897,1,0,0,0.7776,rock_grid_rect_2,7,12,-1,-1,0.778,0.07646993,-0.393455675,1,0,0,1.4486,Peridotite_rect,7,1.449,1,4,0,4,0,1,,,,,,,,,,,,,
660ce8118af7c468fd0f996b,TCN,2024-06-24_16h36.07.984,LearnStrategy,2023.2.3,MacIntel,59.17159763,4,1,6,-0.024469604,0.002272542,1,0,0,1.5277,rock_grid_rect_2,3,08,-1,-1,1.528,0.14741116,-0.267569716,1,0,0,1.3441,Diorite_rect,3,1.344,1,5,0,5,0,1,,,,,,,,,,,,,
660ce8118af7c468fd0f996b,TCN,2024-06-24_16h36.07.984,LearnStrategy,2023.2.3,MacIntel,59.17159763,4,1,7,-0.017341987,-0.016525065,1,0,0,0.8669,rock_grid_rect_2,2,01,-1,-1,0.867,-0.056704373,-0.255250448,1,0,0,1.127,Basalt_rect,2,1.127,1,6,0,6,0,1,,,,,,,,,,,,,
660ce8118af7c468fd0f996b,TCN,2024-06-24_16h36.07.984,LearnStrategy,2023.2.3,MacIntel,59.17159763,4,1,8,-0.02549235,-0.012124498,1,0,0,0.7626,rock_grid_rect_2,1,09,-1,-1,0.763,-0.313934462,-0.251858521,1,0,0,1.386,Andesite_rect,1,1.386,1,7,0,7,0,1,,,,,,,,,,,,,
660ce8118af7c468fd0f996b,TCN,2024-06-24_16h36.07.984,LearnStrategy,2023.2.3,MacIntel,59.17159763,4,1,9,-0.127044746,-0.018425564,1,0,0,1.4069,rock_grid_rect_2,4,16,-1,-1,1.407,-0.079914619,-0.243889703,1,0,0,2.4571,Basalt_rect,2,2.457,0,8,0,8,0,1,,,,,,,,,,,,,
660ce8118af7c468fd0f996b,TCN,2024-06-24_16h36.07.984,LearnStrategy,2023.2.3,MacIntel,59.17159763,4,1,10,0.044444919,-0.01054579,1,0,0,0.8458,rock_grid_rect_2,4,08,-1,-1,0.846,0.314632772,-0.270866225,1,0,0,2.6772,Gabbro_rect,4,2.677,1,9,0,9,0,1,,,,,,,,,,,,,
660ce8118af7c468fd0f996b,TCN,2024-06-24_16h36.07.984,LearnStrategy,2023.2.3,MacIntel,59.17159763,4,1,11,-0.052541029,0.001731194,1,0,0,0.8278,rock_grid_rect_2,5,11,-1,-1,0.828,-0.348168403,-0.393139106,1,0,0,1.2943,Obsidian_rect,5,1.294,1,10,0,10,0,1,,,,,,,,,,,,,
660ce8118af7c468fd0f996b,TCN,2024-06-24_16h36.07.984,LearnStrategy,2023.2.3,MacIntel,59.17159763,4,1,12,-0.088216824,-0.00535319,1,0,0,0.865,rock_grid_rect_2,7,10,-1,-1,0.865,0.093667603,-0.398506198,1,0,0,1.1911,Peridotite_rect,7,1.191,1,11,0,11,0,1,,,,,,,,,,,,,
660ce8118af7c468fd0f996b,TCN,2024-06-24_16h36.07.984,LearnStrategy,2023.2.3,MacIntel,59.17159763,4,1,13,0.006942478,-0.013011475,1,0,0,1.0216,rock_grid_rect_2,8,16,-1,-1,1.022,0.325918918,-0.4127044,1,0,0,2.1429,Pumice_rect,8,2.143,1,12,0,12,0,1,,,,,,,,,,,,,
660ce8118af7c468fd0f996b,TCN,2024-06-24_16h36.07.984,LearnStrategy,2023.2.3,MacIntel,59.17159763,4,1,14,-0.066136339,0.012308214,1,0,0,0.8931,rock_grid_rect_2,6,16,-1,-1,0.893,-0.095130141,-0.414378187,1,0,0,1.285,Pegmatite_rect,6,1.285,1,13,0,13,0,1,,,,,,,,,,,,,
660ce8118af7c468fd0f996b,TCN,2024-06-24_16h36.07.984,LearnStrategy,2023.2.3,MacIntel,59.17159763,4,1,15,0.02650628,0.009352587,1,0,0,0.7397,rock_grid_rect_2,8,03,-1,-1,0.74,0.36312066,-0.395328979,1,0,0,1.2679,Pumice_rect,8,1.268,1,14,0,14,0,1,,,,,,,,,,,,,
660ce8118af7c468fd0f996b,TCN,2024-06-24_16h36.07.984,LearnStrategy,2023.2.3,MacIntel,59.17159763,4,1,16,-0.027092624,-0.024515957,1,0,0,0.7127,rock_grid_rect_2,3,12,-1,-1,0.713,0.04732015,-0.270646091,1,0,0,1.6463,Diorite_rect,3,1.646,1,15,0,15,0,1,,,,,,,,,,,,,
660ce8118af7c468fd0f996b,TCN,2024-06-24_16h36.07.984,LearnStrategy,2023.2.3,MacIntel,59.17159763,4,2,1,,,,,,,,2,08,,,,,,,,,,,2,1.099,1,,,,,,-0.048169149,-0.230335761,1,0,0,1.0986,Basalt_rect,0,0,0,0,1,
660ce8118af7c468fd0f996b,TCN,2024-06-24_16h36.07.984,LearnStrategy,2023.2.3,MacIntel,59.17159763,4,2,2,,,,,,,,5,05,,,,,,,,,,,5,2.746,1,,,,,,-0.338681437,-0.410793118,1,0,0,2.7457,Obsidian_rect,1,0,1,0,1,
660ce8118af7c468fd0f996b,TCN,2024-06-24_16h36.07.984,LearnStrategy,2023.2.3,MacIntel,59.17159763,4,2,3,,,,,,,,6,15,,,,,,,,,,,6,2.546,1,,,,,,-0.076863403,-0.403181966,1,0,0,2.5462,Pegmatite_rect,2,0,2,0,1,
660ce8118af7c468fd0f996b,TCN,2024-06-24_16h36.07.984,LearnStrategy,2023.2.3,MacIntel,59.17159763,4,2,4,,,,,,,,3,16,,,,,,,,,,,3,5.383,1,,,,,,0.120567491,-0.267278714,1,0,0,5.3826,Diorite_rect,3,0,3,0,1,
660ce8118af7c468fd0f996b,TCN,2024-06-24_16h36.07.984,LearnStrategy,2023.2.3,MacIntel,59.17159763,4,2,5,,,,,,,,1,16,,,,,,,,,,,1,1.13,1,,,,,,-0.359038459,-0.255149807,1,0,0,1.1305,Andesite_rect,4,0,4,0,1,
660ce8118af7c468fd0f996b,TCN,2024-06-24_16h36.07.984,LearnStrategy,2023.2.3,MacIntel,59.17159763,4,2,6,,,,,,,,8,06,,,,,,,,,,,8,2.551,1,,,,,,0.416129557,-0.415733032,1,0,0,2.5507,Pumice_rect,5,0,5,0,1,
660ce8118af7c468fd0f996b,TCN,2024-06-24_16h36.07.984,LearnStrategy,2023.2.3,MacIntel,59.17159763,4,2,7,,,,,,,,4,09,,,,,,,,,,,4,1.614,1,,,,,,0.3979088,-0.268998956,1,0,0,1.6144,Gabbro_rect,6,0,6,0,1,
660ce8118af7c468fd0f996b,TCN,2024-06-24_16h36.07.984,LearnStrategy,2023.2.3,MacIntel,59.17159763,4,2,8,,,,,,,,3,14,,,,,,,,,,,3,1.662,1,,,,,,0.15086697,-0.263518609,1,0,0,1.6621,Diorite_rect,7,0,7,0,1,
660ce8118af7c468fd0f996b,TCN,2024-06-24_16h36.07.984,LearnStrategy,2023.2.3,MacIntel,59.17159763,4,2,9,,,,,,,,4,14,,,,,,,,,,,2,2.857,0,,,,,,-0.140341526,-0.260444539,1,0,0,2.8568,Basalt_rect,8,0,8,0,1,
660ce8118af7c468fd0f996b,TCN,2024-06-24_16h36.07.984,LearnStrategy,2023.2.3,MacIntel,59.17159763,4,2,10,,,,,,,,1,10,,,,,,,,,,,1,1.83,1,,,,,,-0.4238797,-0.236917725,1,0,0,1.8297,Andesite_rect,9,0,9,0,1,
660ce8118af7c468fd0f996b,TCN,2024-06-24_16h36.07.984,LearnStrategy,2023.2.3,MacIntel,59.17159763,4,2,11,,,,,,,,7,15,,,,,,,,,,,7,1.575,1,,,,,,0.14320265,-0.379268934,1,0,0,1.5746,Peridotite_rect,10,0,10,0,1,
660ce8118af7c468fd0f996b,TCN,2024-06-24_16h36.07.984,LearnStrategy,2023.2.3,MacIntel,59.17159763,4,2,12,,,,,,,,2,04,,,,,,,,,,,2,0.98,1,,,,,,-0.091404419,-0.23762302,1,0,0,0.9801,Basalt_rect,11,0,11,0,1,
660ce8118af7c468fd0f996b,TCN,2024-06-24_16h36.07.984,LearnStrategy,2023.2.3,MacIntel,59.17159763,4,2,13,,,,,,,,5,10,,,,,,,,,,,5,2.422,1,,,,,,-0.31718906,-0.381754083,1,0,0,2.4217,Obsidian_rect,12,0,12,0,1,
660ce8118af7c468fd0f996b,TCN,2024-06-24_16h36.07.984,LearnStrategy,2023.2.3,MacIntel,59.17159763,4,2,14,,,,,,,,8,08,,,,,,,,,,,8,2.948,1,,,,,,0.378919813,-0.419937812,1,0,0,2.9477,Pumice_rect,13,0,13,0,1,
660ce8118af7c468fd0f996b,TCN,2024-06-24_16h36.07.984,LearnStrategy,2023.2.3,MacIntel,59.17159763,4,2,15,,,,,,,,7,14,,,,,,,,,,,7,1.349,1,,,,,,0.148647868,-0.396464708,1,0,0,1.3488,Peridotite_rect,14,0,14,0,1,
660ce8118af7c468fd0f996b,TCN,2024-06-24_16h36.07.984,LearnStrategy,2023.2.3,MacIntel,59.17159763,4,2,16,,,,,,,,6,09,,,,,,,,,,,6,1.502,1,,,,,,-0.107724542,-0.413430786,1,0,0,1.5023,Pegmatite_rect,15,0,15,0,1,
660ce8118af7c468fd0f996b,TCN,2024-06-24_16h36.07.984,LearnStrategy,2023.2.3,MacIntel,59.17159763,5,1,1,0.008648749,-0.013551805,1,0,0,1.0632,rock_grid_rect_2,2,11,-1,-1,1.063,-0.362178819,-0.268337335,1,0,0,7.2974,Andesite_rect,1,7.297,0,0,0,0,0,1,,,,,,,,,,,,,
660ce8118af7c468fd0f996b,TCN,2024-06-24_16h36.07.984,LearnStrategy,2023.2.3,MacIntel,59.17159763,5,1,2,-0.121670532,-0.014710727,1,0,0,1.7541,rock_grid_rect_2,6,07,-1,-1,1.754,-0.067868856,-0.405577867,1,0,0,1.6228,Pegmatite_rect,6,1.623,1,1,0,1,0,1,,,,,,,,,,,,,
660ce8118af7c468fd0f996b,TCN,2024-06-24_16h36.07.984,LearnStrategy,2023.2.3,MacIntel,59.17159763,5,1,3,-0.04999688,-0.006306051,1,0,0,0.8202,rock_grid_rect_2,2,02,-1,-1,0.82,-0.099200507,-0.251616143,1,0,0,0.9918,Basalt_rect,2,0.992,1,2,0,2,0,1,,,,,,,,,,,,,
660ce8118af7c468fd0f996b,TCN,2024-06-24_16h36.07.984,LearnStrategy,2023.2.3,MacIntel,59.17159763,5,1,4,-0.059964057,0.012690803,1,0,0,1.1758,rock_grid_rect_2,8,02,-1,-1,1.176,0.392886013,-0.386175605,1,0,0,3.9759,Pumice_rect,8,3.976,1,3,0,3,0,1,,,,,,,,,,,,,
660ce8118af7c468fd0f996b,TCN,2024-06-24_16h36.07.984,LearnStrategy,2023.2.3,MacIntel,59.17159763,5,1,5,-0.068620063,-0.018621555,1,0,0,1.272,rock_grid_rect_2,4,03,-1,-1,1.272,0.118766683,-0.254139336,1,0,0,2.0296,Diorite_rect,3,2.03,0,4,0,4,0,1,,,,,,,,,,,,,
660ce8118af7c468fd0f996b,TCN,2024-06-24_16h36.07.984,LearnStrategy,2023.2.3,MacIntel,59.17159763,5,1,6,0.132304755,0.016132473,1,0,0,0.8996,rock_grid_rect_2,1,02,-1,-1,0.9,-0.403194241,-0.255037096,1,0,0,2.1329,Andesite_rect,1,2.133,1,5,0,5,0,1,,,,,,,,,,,,,
660ce8118af7c468fd0f996b,TCN,2024-06-24_16h36.07.984,LearnStrategy,2023.2.3,MacIntel,59.17159763,5,1,7,-0.021476169,-0.000297546,1,0,0,0.8518,rock_grid_rect_2,5,08,-1,-1,0.852,-0.391435242,-0.404443359,1,0,0,1.0037,Obsidian_rect,5,1.004,1,6,0,6,0,1,,,,,,,,,,,,,
660ce8118af7c468fd0f996b,TCN,2024-06-24_16h36.07.984,LearnStrategy,2023.2.3,MacIntel,59.17159763,5,1,8,-0.119996541,-0.003720635,1,0,0,0.844,rock_grid_rect_2,4,15,-1,-1,0.844,0.353096381,-0.254583537,1,0,0,3.4563,Gabbro_rect,4,3.456,1,7,0,7,0,1,,,,,,,,,,,,,
660ce8118af7c468fd0f996b,TCN,2024-06-24_16h36.07.984,LearnStrategy,2023.2.3,MacIntel,59.17159763,5,1,9,0.044259101,-0.013915168,1,0,0,0.8449,rock_grid_rect_2,1,07,-1,-1,0.845,0.090287815,-0.239426541,1,0,0,1.1986,Diorite_rect,3,1.199,0,8,0,8,0,1,,,,,,,,,,,,,
660ce8118af7c468fd0f996b,TCN,2024-06-24_16h36.07.984,LearnStrategy,2023.2.3,MacIntel,59.17159763,5,1,10,0.047253486,0.011870355,1,0,0,0.7579,rock_grid_rect_2,7,08,-1,-1,0.758,0.089147814,-0.381085273,1,0,0,1.1345,Peridotite_rect,7,1.135,1,9,0,9,0,1,,,,,,,,,,,,,
660ce8118af7c468fd0f996b,TCN,2024-06-24_16h36.07.984,LearnStrategy,2023.2.3,MacIntel,59.17159763,5,1,11,0.08245341,0.00096405,1,0,0,2.1096,rock_grid_rect_2,6,10,-1,-1,2.11,0.131327176,-0.418127713,1,0,0,2.3493,Peridotite_rect,7,2.349,0,10,0,10,0,1,,,,,,,,,,,,,
660ce8118af7c468fd0f996b,TCN,2024-06-24_16h36.07.984,LearnStrategy,2023.2.3,MacIntel,59.17159763,5,1,12,0.067984416,0.003040805,1,0,0,1.3089,rock_grid_rect_2,7,06,-1,-1,1.309,0.066342977,-0.402122803,1,0,0,1.0837,Peridotite_rect,7,1.084,1,11,0,11,0,1,,,,,,,,,,,,,
660ce8118af7c468fd0f996b,TCN,2024-06-24_16h36.07.984,LearnStrategy,2023.2.3,MacIntel,59.17159763,5,1,13,0.040009562,-0.009165175,1,0,0,1.0589,rock_grid_rect_2,5,07,-1,-1,1.059,-0.349395345,-0.41755093,1,0,0,2.1842,Obsidian_rect,5,2.184,1,12,0,12,0,1,,,,,,,,,,,,,
660ce8118af7c468fd0f996b,TCN,2024-06-24_16h36.07.984,LearnStrategy,2023.2.3,MacIntel,59.17159763,5,1,14,0.031350098,-0.015569119,1,0,0,0.7913,rock_grid_rect_2,8,14,-1,-1,0.791,0.337379015,-0.421881443,1,0,0,1.0109,Pumice_rect,8,1.011,1,13,0,13,0,1,,,,,,,,,,,,,
660ce8118af7c468fd0f996b,TCN,2024-06-24_16h36.07.984,LearnStrategy,2023.2.3,MacIntel,59.17159763,5,1,15,0.054704522,0.007893507,1,0,0,1.0892,rock_grid_rect_2,3,07,-1,-1,1.089,0.14413364,-0.257531874,1,0,0,3.7148,Diorite_rect,3,3.715,1,14,0,14,0,1,,,,,,,,,,,,,
660ce8118af7c468fd0f996b,TCN,2024-06-24_16h36.07.984,LearnStrategy,2023.2.3,MacIntel,59.17159763,5,1,16,-0.038213908,-0.014546611,1,0,0,0.9347,rock_grid_rect_2,3,11,-1,-1,0.935,-0.306097276,-0.229954291,1,0,0,2.4453,Andesite_rect,1,2.445,0,15,0,15,0,1,,,,,,,,,,,,,
660ce8118af7c468fd0f996b,TCN,2024-06-24_16h36.07.984,LearnStrategy,2023.2.3,MacIntel,59.17159763,5,2,1,,,,,,,,2,10,,,,,,,,,,,2,2.042,1,,,,,,-0.091944987,-0.232634616,1,0,0,2.0416,Basalt_rect,0,0,0,0,1,
660ce8118af7c468fd0f996b,TCN,2024-06-24_16h36.07.984,LearnStrategy,2023.2.3,MacIntel,59.17159763,5,2,2,,,,,,,,4,10,,,,,,,,,,,4,1.347,1,,,,,,0.356102159,-0.257386136,1,0,0,1.3471,Gabbro_rect,1,0,1,0,1,
660ce8118af7c468fd0f996b,TCN,2024-06-24_16h36.07.984,LearnStrategy,2023.2.3,MacIntel,59.17159763,5,2,3,,,,,,,,2,09,,,,,,,,,,,2,1.342,1,,,,,,-0.092897542,-0.238426039,1,0,0,1.3417,Basalt_rect,2,0,2,0,1,
660ce8118af7c468fd0f996b,TCN,2024-06-24_16h36.07.984,LearnStrategy,2023.2.3,MacIntel,59.17159763,5,2,4,,,,,,,,5,06,,,,,,,,,,,5,1.161,1,,,,,,-0.344715983,-0.40501241,1,0,0,1.1607,Obsidian_rect,3,0,3,0,1,
660ce8118af7c468fd0f996b,TCN,2024-06-24_16h36.07.984,LearnStrategy,2023.2.3,MacIntel,59.17159763,5,2,5,,,,,,,,8,10,,,,,,,,,,,8,2.232,1,,,,,,0.429263509,-0.413584663,1,0,0,2.2322,Pumice_rect,4,0,4,0,1,
660ce8118af7c468fd0f996b,TCN,2024-06-24_16h36.07.984,LearnStrategy,2023.2.3,MacIntel,59.17159763,5,2,6,,,,,,,,1,01,,,,,,,,,,,4,13.777,0,,,,,,0.338892822,-0.255104574,1,0,0,13.7767,Gabbro_rect,5,0,5,0,1,
660ce8118af7c468fd0f996b,TCN,2024-06-24_16h36.07.984,LearnStrategy,2023.2.3,MacIntel,59.17159763,5,2,7,,,,,,,,7,16,,,,,,,,,,,7,2.792,1,,,,,,0.102579142,-0.400073513,1,0,0,2.7921,Peridotite_rect,6,0,6,0,1,
660ce8118af7c468fd0f996b,TCN,2024-06-24_16h36.07.984,LearnStrategy,2023.2.3,MacIntel,59.17159763,5,2,8,,,,,,,,8,05,,,,,,,,,,,8,3.189,1,,,,,,0.407919379,-0.402211168,1,0,0,3.1889,Pumice_rect,7,0,7,0,1,
660ce8118af7c468fd0f996b,TCN,2024-06-24_16h36.07.984,LearnStrategy,2023.2.3,MacIntel,59.17159763,5,2,9,,,,,,,,3,06,,,,,,,,,,,1,5.861,0,,,,,,-0.35079166,-0.230339966,1,0,0,5.8608,Andesite_rect,8,0,8,0,1,
660ce8118af7c468fd0f996b,TCN,2024-06-24_16h36.07.984,LearnStrategy,2023.2.3,MacIntel,59.17159763,5,2,10,,,,,,,,7,02,,,,,,,,,,,7,1.989,1,,,,,,0.036932916,-0.414367811,1,0,0,1.9888,Peridotite_rect,9,0,9,0,1,
660ce8118af7c468fd0f996b,TCN,2024-06-24_16h36.07.984,LearnStrategy,2023.2.3,MacIntel,59.17159763,5,2,11,,,,,,,,1,11,,,,,,,,,,,1,8.845,1,,,,,,-0.328453912,-0.246588813,1,0,0,8.8451,Andesite_rect,10,0,10,0,1,
660ce8118af7c468fd0f996b,TCN,2024-06-24_16h36.07.984,LearnStrategy,2023.2.3,MacIntel,59.17159763,5,2,12,,,,,,,,6,11,,,,,,,,,,,6,1.683,1,,,,,,-0.131529066,-0.412688327,1,0,0,1.6832,Pegmatite_rect,11,0,11,0,1,
660ce8118af7c468fd0f996b,TCN,2024-06-24_16h36.07.984,LearnStrategy,2023.2.3,MacIntel,59.17159763,5,2,13,,,,,,,,4,05,,,,,,,,,,,4,4.949,1,,,,,,0.320531006,-0.231209446,1,0,0,4.9493,Gabbro_rect,12,0,12,0,1,
660ce8118af7c468fd0f996b,TCN,2024-06-24_16h36.07.984,LearnStrategy,2023.2.3,MacIntel,59.17159763,5,2,14,,,,,,,,6,12,,,,,,,,,,,3,2.885,0,,,,,,0.181965129,-0.268189765,1,0,0,2.8854,Diorite_rect,13,0,13,0,1,
660ce8118af7c468fd0f996b,TCN,2024-06-24_16h36.07.984,LearnStrategy,2023.2.3,MacIntel,59.17159763,5,2,15,,,,,,,,5,02,,,,,,,,,,,5,1.353,1,,,,,,-0.408522271,-0.407129178,1,0,0,1.3535,Obsidian_rect,14,0,14,0,1,
660ce8118af7c468fd0f996b,TCN,2024-06-24_16h36.07.984,LearnStrategy,2023.2.3,MacIntel,59.17159763,5,2,16,,,,,,,,3,02,,,,,,,,,,,3,2.559,1,,,,,,0.114283515,-0.251678874,1,0,0,2.5587,Diorite_rect,15,0,15,0,1,
660ce8118af7c468fd0f996b,TCN,2024-06-24_16h36.07.984,LearnStrategy,2023.2.3,MacIntel,59.17159763,6,1,1,-0.124830322,0.004518534,1,0,0,2.1867,rock_grid_rect_2,7,04,-1,-1,2.187,0.092356635,-0.40013482,1,0,0,4.1564,Peridotite_rect,7,4.156,1,0,0,0,0,1,,,,,,,,,,,,,
660ce8118af7c468fd0f996b,TCN,2024-06-24_16h36.07.984,LearnStrategy,2023.2.3,MacIntel,59.17159763,6,1,2,0.002958374,0.020959913,1,0,0,1.525,rock_grid_rect_2,6,13,-1,-1,1.525,-0.107592841,-0.409659288,1,0,0,1.4848,Pegmatite_rect,6,1.485,1,1,0,1,0,1,,,,,,,,,,,,,
660ce8118af7c468fd0f996b,TCN,2024-06-24_16h36.07.984,LearnStrategy,2023.2.3,MacIntel,59.17159763,6,1,3,0.020899523,-0.00225847,1,0,0,0.9089,rock_grid_rect_2,6,08,-1,-1,0.909,-0.083794691,-0.407327474,1,0,0,1.8718,Pegmatite_rect,6,1.872,1,2,0,2,0,1,,,,,,,,,,,,,
660ce8118af7c468fd0f996b,TCN,2024-06-24_16h36.07.984,LearnStrategy,2023.2.3,MacIntel,59.17159763,6,1,4,0.042443373,-0.01472307,1,0,0,0.87,rock_grid_rect_2,7,05,-1,-1,0.87,0.093318549,-0.416103312,1,0,0,1.5084,Peridotite_rect,7,1.508,1,3,0,3,0,1,,,,,,,,,,,,,
660ce8118af7c468fd0f996b,TCN,2024-06-24_16h36.07.984,LearnStrategy,2023.2.3,MacIntel,59.17159763,6,1,5,0.01371087,-0.006430257,1,0,0,0.9104,rock_grid_rect_2,5,09,-1,-1,0.91,-0.362153015,-0.401260037,1,0,0,1.3283,Obsidian_rect,5,1.328,1,4,0,4,0,1,,,,,,,,,,,,,
660ce8118af7c468fd0f996b,TCN,2024-06-24_16h36.07.984,LearnStrategy,2023.2.3,MacIntel,59.17159763,6,1,6,0.053467678,0.006912842,1,0,0,0.7098,rock_grid_rect_2,3,13,-1,-1,0.71,0.084927911,-0.236237318,1,0,0,1.2877,Diorite_rect,3,1.288,1,5,0,5,0,1,,,,,,,,,,,,,
660ce8118af7c468fd0f996b,TCN,2024-06-24_16h36.07.984,LearnStrategy,2023.2.3,MacIntel,59.17159763,6,1,7,-0.033591851,-0.013562181,1,0,0,1.6783,rock_grid_rect_2,1,14,-1,-1,1.678,-0.335626797,-0.237863566,1,0,0,1.3411,Andesite_rect,1,1.341,1,6,0,6,0,1,,,,,,,,,,,,,
660ce8118af7c468fd0f996b,TCN,2024-06-24_16h36.07.984,LearnStrategy,2023.2.3,MacIntel,59.17159763,6,1,8,0.085440606,0.013064541,1,0,0,0.8448,rock_grid_rect_2,8,13,-1,-1,0.845,0.357960748,-0.409372084,1,0,0,1.4556,Pumice_rect,8,1.456,1,7,0,7,0,1,,,,,,,,,,,,,
660ce8118af7c468fd0f996b,TCN,2024-06-24_16h36.07.984,LearnStrategy,2023.2.3,MacIntel,59.17159763,6,1,9,0.002544556,0.012343106,1,0,0,1.1673,rock_grid_rect_2,3,15,-1,-1,1.167,0.095409546,-0.251718004,1,0,0,17.9466,Diorite_rect,3,17.947,1,8,0,8,0,1,,,,,,,,,,,,,
660ce8118af7c468fd0f996b,TCN,2024-06-24_16h36.07.984,LearnStrategy,2023.2.3,MacIntel,59.17159763,6,1,10,0.055250583,0.004268087,1,0,0,1.1196,rock_grid_rect_2,2,12,-1,-1,1.12,-0.180181749,-0.241188694,1,0,0,4.272,Basalt_rect,2,4.272,1,9,0,9,0,1,,,,,,,,,,,,,
660ce8118af7c468fd0f996b,TCN,2024-06-24_16h36.07.984,LearnStrategy,2023.2.3,MacIntel,59.17159763,6,1,11,-0.088351915,0.006410387,1,0,0,1.0147,rock_grid_rect_2,2,16,-1,-1,1.015,0.33614129,-0.385666368,1,0,0,2.501,Pumice_rect,8,2.501,0,10,0,10,0,1,,,,,,,,,,,,,
660ce8118af7c468fd0f996b,TCN,2024-06-24_16h36.07.984,LearnStrategy,2023.2.3,MacIntel,59.17159763,6,1,12,-0.033840468,-0.00851315,1,0,0,2.9946,rock_grid_rect_2,5,14,-1,-1,2.995,-0.458180305,-0.388540446,1,0,0,1.5265,Obsidian_rect,5,1.526,1,11,0,11,0,1,,,,,,,,,,,,,
660ce8118af7c468fd0f996b,TCN,2024-06-24_16h36.07.984,LearnStrategy,2023.2.3,MacIntel,59.17159763,6,1,13,0.088059285,-0.006006843,1,0,0,0.9525,rock_grid_rect_2,4,11,-1,-1,0.953,-0.333206855,-0.244483236,1,0,0,5.0233,Andesite_rect,1,5.023,0,12,0,12,0,1,,,,,,,,,,,,,
660ce8118af7c468fd0f996b,TCN,2024-06-24_16h36.07.984,LearnStrategy,2023.2.3,MacIntel,59.17159763,6,1,14,0.144862603,-0.003081902,1,0,0,1.0548,rock_grid_rect_2,1,05,-1,-1,1.055,-0.358168064,-0.254692179,1,0,0,1.9658,Andesite_rect,1,1.966,1,13,0,13,0,1,,,,,,,,,,,,,
660ce8118af7c468fd0f996b,TCN,2024-06-24_16h36.07.984,LearnStrategy,2023.2.3,MacIntel,59.17159763,6,1,15,-0.019442681,-0.001702644,1,0,0,0.8901,rock_grid_rect_2,4,13,-1,-1,0.89,0.31497762,-0.262800903,1,0,0,2.1051,Gabbro_rect,4,2.105,1,14,0,14,0,1,,,,,,,,,,,,,
660ce8118af7c468fd0f996b,TCN,2024-06-24_16h36.07.984,LearnStrategy,2023.2.3,MacIntel,59.17159763,6,1,16,-0.058059692,0.018451911,1,0,0,0.8275,rock_grid_rect_2,8,09,-1,-1,0.828,0.331505602,-0.396537069,1,0,0,1.4081,Pumice_rect,8,1.408,1,15,0,15,0,1,,,,,,,,,,,,,
660ce8118af7c468fd0f996b,TCN,2024-06-24_16h36.07.984,LearnStrategy,2023.2.3,MacIntel,59.17159763,6,2,1,,,,,,,,4,12,,,,,,,,,,,2,1.958,0,,,,,,-0.121933458,-0.23395657,1,0,0,1.9584,Basalt_rect,0,0,0,0,1,
660ce8118af7c468fd0f996b,TCN,2024-06-24_16h36.07.984,LearnStrategy,2023.2.3,MacIntel,59.17159763,6,2,2,,,,,,,,3,09,,,,,,,,,,,3,1.561,1,,,,,,0.084535794,-0.26762424,1,0,0,1.5607,Diorite_rect,1,0,1,0,1,
660ce8118af7c468fd0f996b,TCN,2024-06-24_16h36.07.984,LearnStrategy,2023.2.3,MacIntel,59.17159763,6,2,3,,,,,,,,2,14,,,,,,,,,,,2,2.804,1,,,,,,-0.143184408,-0.267231717,1,0,0,2.8045,Basalt_rect,2,0,2,0,1,
660ce8118af7c468fd0f996b,TCN,2024-06-24_16h36.07.984,LearnStrategy,2023.2.3,MacIntel,59.17159763,6,2,4,,,,,,,,5,04,,,,,,,,,,,5,1.361,1,,,,,,-0.313212348,-0.416492242,1,0,0,1.3615,Obsidian_rect,3,0,3,0,1,
660ce8118af7c468fd0f996b,TCN,2024-06-24_16h36.07.984,LearnStrategy,2023.2.3,MacIntel,59.17159763,6,2,5,,,,,,,,4,01,,,,,,,,,,,7,2.147,0,,,,,,0.126414524,-0.396689589,1,0,0,2.1472,Peridotite_rect,4,0,4,0,1,
660ce8118af7c468fd0f996b,TCN,2024-06-24_16h36.07.984,LearnStrategy,2023.2.3,MacIntel,59.17159763,6,2,6,,,,,,,,6,05,,,,,,,,,,,6,1.341,1,,,,,,-0.080159776,-0.389121026,1,0,0,1.3408,Pegmatite_rect,5,0,5,0,1,
660ce8118af7c468fd0f996b,TCN,2024-06-24_16h36.07.984,LearnStrategy,2023.2.3,MacIntel,59.17159763,6,2,7,,,,,,,,2,05,,,,,,,,,,,2,1.589,1,,,,,,-0.093801744,-0.266490818,1,0,0,1.5888,Basalt_rect,6,0,6,0,1,
660ce8118af7c468fd0f996b,TCN,2024-06-24_16h36.07.984,LearnStrategy,2023.2.3,MacIntel,59.17159763,6,2,8,,,,,,,,1,06,,,,,,,,,,,1,3.279,1,,,,,,-0.388945685,-0.253758206,1,0,0,3.2786,Andesite_rect,7,0,7,0,1,
660ce8118af7c468fd0f996b,TCN,2024-06-24_16h36.07.984,LearnStrategy,2023.2.3,MacIntel,59.17159763,6,2,9,,,,,,,,7,13,,,,,,,,,,,7,1.259,1,,,,,,0.127102729,-0.389356011,1,0,0,1.2592,Peridotite_rect,8,0,8,0,1,
660ce8118af7c468fd0f996b,TCN,2024-06-24_16h36.07.984,LearnStrategy,2023.2.3,MacIntel,59.17159763,6,2,10,,,,,,,,7,07,,,,,,,,,,,7,1.997,1,,,,,,0.081423543,-0.400979546,1,0,0,1.9969,Peridotite_rect,9,0,9,0,1,
660ce8118af7c468fd0f996b,TCN,2024-06-24_16h36.07.984,LearnStrategy,2023.2.3,MacIntel,59.17159763,6,2,11,,,,,,,,8,15,,,,,,,,,,,8,1.238,1,,,,,,0.297241347,-0.397317369,1,0,0,1.2384,Pumice_rect,10,0,10,0,1,
660ce8118af7c468fd0f996b,TCN,2024-06-24_16h36.07.984,LearnStrategy,2023.2.3,MacIntel,59.17159763,6,2,12,,,,,,,,1,03,,,,,,,,,,,1,4.587,1,,,,,,-0.387935181,-0.263742133,1,0,0,4.5873,Andesite_rect,11,0,11,0,1,
660ce8118af7c468fd0f996b,TCN,2024-06-24_16h36.07.984,LearnStrategy,2023.2.3,MacIntel,59.17159763,6,2,13,,,,,,,,3,10,,,,,,,,,,,4,24.618,0,,,,,,0.37322347,-0.233515082,1,0,0,24.6181,Gabbro_rect,12,0,12,0,1,
660ce8118af7c468fd0f996b,TCN,2024-06-24_16h36.07.984,LearnStrategy,2023.2.3,MacIntel,59.17159763,6,2,14,,,,,,,,6,03,,,,,,,,,,,6,2.572,1,,,,,,-0.088834093,-0.410663995,1,0,0,2.5717,Pegmatite_rect,13,0,13,0,1,
660ce8118af7c468fd0f996b,TCN,2024-06-24_16h36.07.984,LearnStrategy,2023.2.3,MacIntel,59.17159763,6,2,15,,,,,,,,8,04,,,,,,,,,,,8,1.473,1,,,,,,0.326610989,-0.414150052,1,0,0,1.4728,Pumice_rect,14,0,14,0,1,
660ce8118af7c468fd0f996b,TCN,2024-06-24_16h36.07.984,LearnStrategy,2023.2.3,MacIntel,59.17159763,6,2,16,,,,,,,,5,16,,,,,,,,,,,5,1.052,1,,,,,,-0.340103726,-0.399447496,1,0,0,1.0516,Obsidian_rect,15,0,15,0,1,
660ce8118af7c468fd0f996b,TCN,2024-06-24_16h36.07.984,LearnStrategy,2023.2.3,MacIntel,59.17159763,7,1,1,0.044334513,-0.023939955,1,0,0,2.3846,rock_grid_rect_2,7,04,-1,-1,2.385,0.079331462,-0.412284614,1,0,0,1.3078,Peridotite_rect,7,1.308,1,0,0,0,0,1,,,,,,,,,,,,,
660ce8118af7c468fd0f996b,TCN,2024-06-24_16h36.07.984,LearnStrategy,2023.2.3,MacIntel,59.17159763,7,1,2,0.020182156,0.010757073,1,0,0,1.0196,rock_grid_rect_2,1,07,-1,-1,1.02,-0.378187391,-0.243474257,1,0,0,3.3635,Andesite_rect,1,3.363,1,1,0,1,0,1,,,,,,,,,,,,,
660ce8118af7c468fd0f996b,TCN,2024-06-24_16h36.07.984,LearnStrategy,2023.2.3,MacIntel,59.17159763,7,1,3,0.012182821,-0.000409275,1,0,0,0.857,rock_grid_rect_2,3,15,-1,-1,0.857,0.123251478,-0.266464979,1,0,0,4.4739,Diorite_rect,3,4.474,1,2,0,2,0,1,,,,,,,,,,,,,
660ce8118af7c468fd0f996b,TCN,2024-06-24_16h36.07.984,LearnStrategy,2023.2.3,MacIntel,59.17159763,7,1,4,0.024780952,-0.020620321,1,0,0,1.0822,rock_grid_rect_2,5,11,-1,-1,1.082,-0.349780375,-0.404483303,1,0,0,1.3529,Obsidian_rect,5,1.353,1,3,0,3,0,1,,,,,,,,,,,,,
660ce8118af7c468fd0f996b,TCN,2024-06-24_16h36.07.984,LearnStrategy,2023.2.3,MacIntel,59.17159763,7,1,5,-0.01595832,-0.00373291,1,0,0,0.6869,rock_grid_rect_2,6,13,-1,-1,0.687,-0.043267822,-0.391233453,1,0,0,1.7718,Pegmatite_rect,6,1.772,1,4,0,4,0,1,,,,,,,,,,,,,
660ce8118af7c468fd0f996b,TCN,2024-06-24_16h36.07.984,LearnStrategy,2023.2.3,MacIntel,59.17159763,7,1,6,0.045515815,-0.012410516,1,0,0,0.8006,rock_grid_rect_2,7,12,-1,-1,0.801,0.066964044,-0.386097683,1,0,0,1.1942,Peridotite_rect,7,1.194,1,5,0,5,0,1,,,,,,,,,,,,,
660ce8118af7c468fd0f996b,TCN,2024-06-24_16h36.07.984,LearnStrategy,2023.2.3,MacIntel,59.17159763,7,1,7,0.044003025,-0.001461385,1,0,0,0.7105,rock_grid_rect_2,2,02,-1,-1,0.711,-0.067218289,-0.237408719,1,0,0,0.9417,Basalt_rect,2,0.942,1,6,0,6,0,1,,,,,,,,,,,,,
660ce8118af7c468fd0f996b,TCN,2024-06-24_16h36.07.984,LearnStrategy,2023.2.3,MacIntel,59.17159763,7,1,8,0.060029975,-0.008037821,1,0,0,0.7333,rock_grid_rect_2,8,03,-1,-1,0.733,0.389075792,-0.387885267,1,0,0,1.1837,Pumice_rect,8,1.184,1,7,0,7,0,1,,,,,,,,,,,,,
660ce8118af7c468fd0f996b,TCN,2024-06-24_16h36.07.984,LearnStrategy,2023.2.3,MacIntel,59.17159763,7,1,9,-0.00963657,-0.009998678,1,0,0,0.6823,rock_grid_rect_2,4,15,-1,-1,0.682,0.209518229,-0.230680067,1,0,0,119.344,Diorite_rect,3,119.344,0,8,0,8,0,1,,,,,,,,,,,,,
660ce8118af7c468fd0f996b,TCN,2024-06-24_16h36.07.984,LearnStrategy,2023.2.3,MacIntel,59.17159763,7,1,10,-0.001267497,-0.00748152,1,0,0,1.4621,rock_grid_rect_2,1,04,-1,-1,1.462,-0.38934455,-0.235370348,1,0,0,1.4879,Andesite_rect,1,1.488,1,9,0,9,0,1,,,,,,,,,,,,,
660ce8118af7c468fd0f996b,TCN,2024-06-24_16h36.07.984,LearnStrategy,2023.2.3,MacIntel,59.17159763,7,1,11,-0.098559028,-0.013181322,1,0,0,0.7889,rock_grid_rect_2,5,09,-1,-1,0.789,-0.346572571,-0.383678046,1,0,0,1.1416,Obsidian_rect,5,1.142,1,10,0,10,0,1,,,,,,,,,,,,,
660ce8118af7c468fd0f996b,TCN,2024-06-24_16h36.07.984,LearnStrategy,2023.2.3,MacIntel,59.17159763,7,1,12,-0.013622369,-0.012805278,1,0,0,1.24,rock_grid_rect_2,2,11,-1,-1,1.24,0.396784532,-0.411748996,1,0,0,4.8113,Pumice_rect,8,4.811,0,11,0,11,0,1,,,,,,,,,,,,,
660ce8118af7c468fd0f996b,TCN,2024-06-24_16h36.07.984,LearnStrategy,2023.2.3,MacIntel,59.17159763,7,1,13,-0.034093153,0.015569221,1,0,0,0.9348,rock_grid_rect_2,3,11,-1,-1,0.935,0.116991916,-0.419697469,1,0,0,3.2447,Peridotite_rect,7,3.245,0,12,0,12,0,1,,,,,,,,,,,,,
660ce8118af7c468fd0f996b,TCN,2024-06-24_16h36.07.984,LearnStrategy,2023.2.3,MacIntel,59.17159763,7,1,14,-0.06630188,-0.010654093,1,0,0,1.0045,rock_grid_rect_2,8,16,-1,-1,1.005,0.338800591,-0.40894755,1,0,0,1.3867,Pumice_rect,8,1.387,1,13,0,13,0,1,,,,,,,,,,,,,
660ce8118af7c468fd0f996b,TCN,2024-06-24_16h36.07.984,LearnStrategy,2023.2.3,MacIntel,59.17159763,7,1,15,0.057811754,0.009833272,1,0,0,0.848,rock_grid_rect_2,4,03,-1,-1,0.848,-0.453842061,-0.234107598,1,0,0,5.1691,Andesite_rect,1,5.169,0,14,0,14,0,1,,,,,,,,,,,,,
660ce8118af7c468fd0f996b,TCN,2024-06-24_16h36.07.984,LearnStrategy,2023.2.3,MacIntel,59.17159763,7,1,16,-0.063116998,-0.01582506,1,0,0,1.4952,rock_grid_rect_2,6,10,-1,-1,1.495,-0.104159478,-0.399448174,1,0,0,2.7234,Pegmatite_rect,6,2.723,1,15,0,15,0,1,,,,,,,,,,,,,
660ce8118af7c468fd0f996b,TCN,2024-06-24_16h36.07.984,LearnStrategy,2023.2.3,MacIntel,59.17159763,7,2,1,,,,,,,,3,02,,,,,,,,,,,4,3.184,0,,,,,,0.341352539,-0.257433404,1,0,0,3.1838,Gabbro_rect,0,0,0,0,1,
660ce8118af7c468fd0f996b,TCN,2024-06-24_16h36.07.984,LearnStrategy,2023.2.3,MacIntel,59.17159763,7,2,2,,,,,,,,1,10,,,,,,,,,,,1,1.574,1,,,,,,-0.328794047,-0.250219523,1,0,0,1.5739,Andesite_rect,1,0,1,0,1,
660ce8118af7c468fd0f996b,TCN,2024-06-24_16h36.07.984,LearnStrategy,2023.2.3,MacIntel,59.17159763,7,2,3,,,,,,,,2,08,,,,,,,,,,,2,1.138,1,,,,,,-0.080987413,-0.264273275,1,0,0,1.1379,Basalt_rect,2,0,2,0,1,
660ce8118af7c468fd0f996b,TCN,2024-06-24_16h36.07.984,LearnStrategy,2023.2.3,MacIntel,59.17159763,7,2,4,,,,,,,,2,14,,,,,,,,,,,2,2.589,1,,,,,,-0.110374485,-0.244875895,1,0,0,2.589,Basalt_rect,3,0,3,0,1,
660ce8118af7c468fd0f996b,TCN,2024-06-24_16h36.07.984,LearnStrategy,2023.2.3,MacIntel,59.17159763,7,2,5,,,,,,,,8,15,,,,,,,,,,,8,1.539,1,,,,,,0.338049316,-0.399206204,1,0,0,1.5391,Pumice_rect,4,0,4,0,1,
660ce8118af7c468fd0f996b,TCN,2024-06-24_16h36.07.984,LearnStrategy,2023.2.3,MacIntel,59.17159763,7,2,6,,,,,,,,7,13,,,,,,,,,,,7,1.473,1,,,,,,0.105301649,-0.413887668,1,0,0,1.4725,Peridotite_rect,5,0,5,0,1,
660ce8118af7c468fd0f996b,TCN,2024-06-24_16h36.07.984,LearnStrategy,2023.2.3,MacIntel,59.17159763,7,2,7,,,,,,,,4,05,,,,,,,,,,,7,1.224,0,,,,,,0.094254015,-0.397551134,1,0,0,1.2236,Peridotite_rect,6,0,6,0,1,
660ce8118af7c468fd0f996b,TCN,2024-06-24_16h36.07.984,LearnStrategy,2023.2.3,MacIntel,59.17159763,7,2,8,,,,,,,,4,01,,,,,,,,,,,7,1.717,0,,,,,,0.141842516,-0.385116577,1,0,0,1.7169,Peridotite_rect,7,0,7,0,1,
660ce8118af7c468fd0f996b,TCN,2024-06-24_16h36.07.984,LearnStrategy,2023.2.3,MacIntel,59.17159763,7,2,9,,,,,,,,3,06,,,,,,,,,,,3,8.776,1,,,,,,0.116201647,-0.242857123,1,0,0,8.7765,Diorite_rect,8,0,8,0,1,
660ce8118af7c468fd0f996b,TCN,2024-06-24_16h36.07.984,LearnStrategy,2023.2.3,MacIntel,59.17159763,7,2,10,,,,,,,,5,10,,,,,,,,,,,5,1.059,1,,,,,,-0.366667006,-0.400809937,1,0,0,1.0593,Obsidian_rect,9,0,9,0,1,
660ce8118af7c468fd0f996b,TCN,2024-06-24_16h36.07.984,LearnStrategy,2023.2.3,MacIntel,59.17159763,7,2,11,,,,,,,,6,12,,,,,,,,,,,3,2.138,0,,,,,,0.105555962,-0.246793145,1,0,0,2.1383,Diorite_rect,10,0,10,0,1,
660ce8118af7c468fd0f996b,TCN,2024-06-24_16h36.07.984,LearnStrategy,2023.2.3,MacIntel,59.17159763,7,2,12,,,,,,,,5,02,,,,,,,,,,,5,1.667,1,,,,,,-0.41841963,-0.409920112,1,0,0,1.6674,Obsidian_rect,11,0,11,0,1,
660ce8118af7c468fd0f996b,TCN,2024-06-24_16h36.07.984,LearnStrategy,2023.2.3,MacIntel,59.17159763,7,2,13,,,,,,,,8,08,,,,,,,,,,,8,1.611,1,,,,,,0.354989149,-0.386594442,1,0,0,1.6109,Pumice_rect,12,0,12,0,1,
660ce8118af7c468fd0f996b,TCN,2024-06-24_16h36.07.984,LearnStrategy,2023.2.3,MacIntel,59.17159763,7,2,14,,,,,,,,1,16,,,,,,,,,,,1,1.138,1,,,,,,-0.3503577,-0.265782742,1,0,0,1.1378,Andesite_rect,13,0,13,0,1,
660ce8118af7c468fd0f996b,TCN,2024-06-24_16h36.07.984,LearnStrategy,2023.2.3,MacIntel,59.17159763,7,2,15,,,,,,,,7,02,,,,,,,,,,,7,1.189,1,,,,,,0.136497328,-0.394238078,1,0,0,1.1891,Peridotite_rect,14,0,14,0,1,
660ce8118af7c468fd0f996b,TCN,2024-06-24_16h36.07.984,LearnStrategy,2023.2.3,MacIntel,59.17159763,7,2,16,,,,,,,,6,03,,,,,,,,,,,6,1.695,1,,,,,,-0.147104017,-0.421127794,1,0,0,1.6947,Pegmatite_rect,15,0,15,0,1,
660ce8118af7c468fd0f996b,TCN,2024-06-24_16h36.07.984,LearnStrategy,2023.2.3,MacIntel,59.17159763,8,1,1,-0.036316664,0.008292067,1,0,0,1.1919,rock_grid_rect_2,2,01,-1,-1,1.192,-0.192090929,-0.250255805,1,0,0,0.9739,Basalt_rect,2,0.974,1,0,0,0,0,1,,,,,,,,,,,,,
660ce8118af7c468fd0f996b,TCN,2024-06-24_16h36.07.984,LearnStrategy,2023.2.3,MacIntel,59.17159763,8,1,2,-0.106115587,-0.00459866,1,0,0,0.9097,rock_grid_rect_2,5,08,-1,-1,0.91,-0.379813436,-0.407440186,1,0,0,1.0313,Obsidian_rect,5,1.031,1,1,0,1,0,1,,,,,,,,,,,,,
660ce8118af7c468fd0f996b,TCN,2024-06-24_16h36.07.984,LearnStrategy,2023.2.3,MacIntel,59.17159763,8,1,3,0.031273668,-0.005241699,1,0,0,1.1868,rock_grid_rect_2,6,16,-1,-1,1.187,-0.091440023,-0.408115438,1,0,0,2.3125,Pegmatite_rect,6,2.313,1,2,0,2,0,1,,,,,,,,,,,,,
660ce8118af7c468fd0f996b,TCN,2024-06-24_16h36.07.984,LearnStrategy,2023.2.3,MacIntel,59.17159763,8,1,4,0.036766154,0.00188992,1,0,0,0.7605,rock_grid_rect_2,1,02,-1,-1,0.761,-0.355394253,-0.269440375,1,0,0,3.911,Andesite_rect,1,3.911,1,3,0,3,0,1,,,,,,,,,,,,,
660ce8118af7c468fd0f996b,TCN,2024-06-24_16h36.07.984,LearnStrategy,2023.2.3,MacIntel,59.17159763,8,1,5,-0.068338759,-0.018285658,1,0,0,1.7668,rock_grid_rect_2,1,05,-1,-1,1.767,-0.321711528,-0.243273044,1,0,0,1.4335,Andesite_rect,1,1.433,1,4,0,4,0,1,,,,,,,,,,,,,
660ce8118af7c468fd0f996b,TCN,2024-06-24_16h36.07.984,LearnStrategy,2023.2.3,MacIntel,59.17159763,8,1,6,0.005155233,-0.00485026,1,0,0,1.0069,rock_grid_rect_2,3,07,-1,-1,1.007,0.166133423,-0.235561388,1,0,0,1.252,Diorite_rect,3,1.252,1,5,0,5,0,1,,,,,,,,,,,,,
660ce8118af7c468fd0f996b,TCN,2024-06-24_16h36.07.984,LearnStrategy,2023.2.3,MacIntel,59.17159763,8,1,7,-0.008332791,0.012865838,1,0,0,0.6674,rock_grid_rect_2,8,14,-1,-1,0.667,0.406187202,-0.384537828,1,0,0,2.903,Pumice_rect,8,2.903,1,6,0,6,0,1,,,,,,,,,,,,,
660ce8118af7c468fd0f996b,TCN,2024-06-24_16h36.07.984,LearnStrategy,2023.2.3,MacIntel,59.17159763,8,1,8,0.024525282,-0.015215149,1,0,0,0.8827,rock_grid_rect_2,2,06,-1,-1,0.883,-0.097786797,-0.251217244,1,0,0,1.5677,Basalt_rect,2,1.568,1,7,0,7,0,1,,,,,,,,,,,,,
660ce8118af7c468fd0f996b,TCN,2024-06-24_16h36.07.984,LearnStrategy,2023.2.3,MacIntel,59.17159763,8,1,9,0.083654853,0.014755452,1,0,0,0.8416,rock_grid_rect_2,7,10,-1,-1,0.842,0.056001519,-0.402076619,1,0,0,1.3007,Peridotite_rect,7,1.301,1,8,0,8,0,1,,,,,,,,,,,,,
660ce8118af7c468fd0f996b,TCN,2024-06-24_16h36.07.984,LearnStrategy,2023.2.3,MacIntel,59.17159763,8,1,10,0.005177816,-0.012680359,1,0,0,1.2359,rock_grid_rect_2,4,13,-1,-1,1.236,0.433231337,-0.26845147,1,0,0,2.7143,Gabbro_rect,4,2.714,1,9,0,9,0,1,,,,,,,,,,,,,
660ce8118af7c468fd0f996b,TCN,2024-06-24_16h36.07.984,LearnStrategy,2023.2.3,MacIntel,59.17159763,8,1,11,-0.019329495,-0.012140537,1,0,0,0.8871,rock_grid_rect_2,3,13,-1,-1,0.887,0.092291667,-0.231585422,1,0,0,1.0535,Diorite_rect,3,1.053,1,10,0,10,0,1,,,,,,,,,,,,,
660ce8118af7c468fd0f996b,TCN,2024-06-24_16h36.07.984,LearnStrategy,2023.2.3,MacIntel,59.17159763,8,1,12,-0.076344672,-0.014828966,1,0,0,0.9382,rock_grid_rect_2,7,05,-1,-1,0.938,0.0947602,-0.393919,1,0,0,1.1748,Peridotite_rect,7,1.175,1,11,0,11,0,1,,,,,,,,,,,,,
660ce8118af7c468fd0f996b,TCN,2024-06-24_16h36.07.984,LearnStrategy,2023.2.3,MacIntel,59.17159763,8,1,13,0.029542304,-0.012580092,1,0,0,1.8046,rock_grid_rect_2,5,12,-1,-1,1.805,-0.323241713,-0.40099589,1,0,0,1.1029,Obsidian_rect,5,1.103,1,12,0,12,0,1,,,,,,,,,,,,,
660ce8118af7c468fd0f996b,TCN,2024-06-24_16h36.07.984,LearnStrategy,2023.2.3,MacIntel,59.17159763,8,1,14,-0.019643419,0.01056661,1,0,0,1.8401,rock_grid_rect_2,8,13,-1,-1,1.84,0.324201118,-0.420370009,1,0,0,1.524,Pumice_rect,8,1.524,1,13,0,13,0,1,,,,,,,,,,,,,
660ce8118af7c468fd0f996b,TCN,2024-06-24_16h36.07.984,LearnStrategy,2023.2.3,MacIntel,59.17159763,8,1,15,0.058499891,-0.003702698,1,0,0,1.3108,rock_grid_rect_2,4,11,-1,-1,1.311,0.370113118,-0.255335286,1,0,0,2.8186,Gabbro_rect,4,2.819,1,14,0,14,0,1,,,,,,,,,,,,,
660ce8118af7c468fd0f996b,TCN,2024-06-24_16h36.07.984,LearnStrategy,2023.2.3,MacIntel,59.17159763,8,1,16,-0.009287991,-0.0136321,1,0,0,1.2406,rock_grid_rect_2,6,08,-1,-1,1.241,-0.087244398,-0.389367472,1,0,0,1.2564,Pegmatite_rect,6,1.256,1,15,0,15,0,1,,,,,,,,,,,,,
660ce8118af7c468fd0f996b,TCN,2024-06-24_16h36.07.984,LearnStrategy,2023.2.3,MacIntel,59.17159763,8,2,1,,,,,,,,8,10,,,,,,,,,,,8,2.855,1,,,,,,0.396109619,-0.404742771,1,0,0,2.8552,Pumice_rect,0,0,0,0,1,
660ce8118af7c468fd0f996b,TCN,2024-06-24_16h36.07.984,LearnStrategy,2023.2.3,MacIntel,59.17159763,8,2,2,,,,,,,,2,04,,,,,,,,,,,2,1.041,1,,,,,,-0.101368951,-0.257312147,1,0,0,1.0406,Basalt_rect,1,0,1,0,1,
660ce8118af7c468fd0f996b,TCN,2024-06-24_16h36.07.984,LearnStrategy,2023.2.3,MacIntel,59.17159763,8,2,3,,,,,,,,5,05,,,,,,,,,,,5,2.58,1,,,,,,-0.33965254,-0.380461019,1,0,0,2.58,Obsidian_rect,2,0,2,0,1,
660ce8118af7c468fd0f996b,TCN,2024-06-24_16h36.07.984,LearnStrategy,2023.2.3,MacIntel,59.17159763,8,2,4,,,,,,,,2,10,,,,,,,,,,,2,0.899,1,,,,,,-0.163518677,-0.269159953,1,0,0,0.8986,Basalt_rect,3,0,3,0,1,
660ce8118af7c468fd0f996b,TCN,2024-06-24_16h36.07.984,LearnStrategy,2023.2.3,MacIntel,59.17159763,8,2,5,,,,,,,,7,15,,,,,,,,,,,7,1.204,1,,,,,,0.140701226,-0.394146525,1,0,0,1.2041,Peridotite_rect,4,0,4,0,1,
660ce8118af7c468fd0f996b,TCN,2024-06-24_16h36.07.984,LearnStrategy,2023.2.3,MacIntel,59.17159763,8,2,6,,,,,,,,1,01,,,,,,,,,,,4,2.586,0,,,,,,0.425328369,-0.240487264,1,0,0,2.5856,Gabbro_rect,5,0,5,0,1,
660ce8118af7c468fd0f996b,TCN,2024-06-24_16h36.07.984,LearnStrategy,2023.2.3,MacIntel,59.17159763,8,2,7,,,,,,,,3,14,,,,,,,,,,,3,0.971,1,,,,,,0.107553779,-0.245385064,1,0,0,0.9714,Diorite_rect,6,0,6,0,1,
660ce8118af7c468fd0f996b,TCN,2024-06-24_16h36.07.984,LearnStrategy,2023.2.3,MacIntel,59.17159763,8,2,8,,,,,,,,4,14,,,,,,,,,,,2,2.29,0,,,,,,-0.186720581,-0.2565625,1,0,0,2.2902,Basalt_rect,7,0,7,0,1,
660ce8118af7c468fd0f996b,TCN,2024-06-24_16h36.07.984,LearnStrategy,2023.2.3,MacIntel,59.17159763,8,2,9,,,,,,,,4,12,,,,,,,,,,,1,1.111,0,,,,,,-0.365302497,-0.259105699,1,0,0,1.1111,Andesite_rect,8,0,8,0,1,
660ce8118af7c468fd0f996b,TCN,2024-06-24_16h36.07.984,LearnStrategy,2023.2.3,MacIntel,59.17159763,8,2,10,,,,,,,,3,16,,,,,,,,,,,3,1.108,1,,,,,,0.180084161,-0.261658868,1,0,0,1.1085,Diorite_rect,9,0,9,0,1,
660ce8118af7c468fd0f996b,TCN,2024-06-24_16h36.07.984,LearnStrategy,2023.2.3,MacIntel,59.17159763,8,2,11,,,,,,,,8,05,,,,,,,,,,,8,1.102,1,,,,,,0.344675157,-0.412422078,1,0,0,1.1017,Pumice_rect,10,0,10,0,1,
660ce8118af7c468fd0f996b,TCN,2024-06-24_16h36.07.984,LearnStrategy,2023.2.3,MacIntel,59.17159763,8,2,12,,,,,,,,7,16,,,,,,,,,,,7,0.821,1,,,,,,0.137958917,-0.408106689,1,0,0,0.8211,Peridotite_rect,11,0,11,0,1,
660ce8118af7c468fd0f996b,TCN,2024-06-24_16h36.07.984,LearnStrategy,2023.2.3,MacIntel,59.17159763,8,2,13,,,,,,,,6,05,,,,,,,,,,,6,0.72,1,,,,,,-0.080521851,-0.418900892,1,0,0,0.7196,Pegmatite_rect,12,0,12,0,1,
660ce8118af7c468fd0f996b,TCN,2024-06-24_16h36.07.984,LearnStrategy,2023.2.3,MacIntel,59.17159763,8,2,14,,,,,,,,5,04,,,,,,,,,,,5,1.091,1,,,,,,-0.338503215,-0.407697686,1,0,0,1.0908,Obsidian_rect,13,0,13,0,1,
660ce8118af7c468fd0f996b,TCN,2024-06-24_16h36.07.984,LearnStrategy,2023.2.3,MacIntel,59.17159763,8,2,15,,,,,,,,6,11,,,,,,,,,,,6,1.979,1,,,,,,-0.120444268,-0.411108398,1,0,0,1.9789,Pegmatite_rect,14,0,14,0,1,
660ce8118af7c468fd0f996b,TCN,2024-06-24_16h36.07.984,LearnStrategy,2023.2.3,MacIntel,59.17159763,8,2,16,,,,,,,,1,11,,,,,,,,,,,1,1.849,1,,,,,,-0.350419278,-0.269882948,1,0,0,1.8494,Andesite_rect,15,0,15,0,1,
660ce8118af7c468fd0f996b,TCN,2024-06-24_16h36.07.984,LearnStrategy,2023.2.3,MacIntel,59.17159763,9,1,1,-0.057279053,-0.016628655,1,0,0,0.9377,rock_grid_rect_2,4,08,-1,-1,0.938,0.319371609,-0.256608819,1,0,0,1.737,Gabbro_rect,4,1.737,1,0,0,0,0,1,,,,,,,,,,,,,
660ce8118af7c468fd0f996b,TCN,2024-06-24_16h36.07.984,LearnStrategy,2023.2.3,MacIntel,59.17159763,9,1,2,0.044015978,-0.007185906,1,0,0,0.833,rock_grid_rect_2,1,14,-1,-1,0.833,-0.356822272,-0.231853977,1,0,0,1.5568,Andesite_rect,1,1.557,1,1,0,1,0,1,,,,,,,,,,,,,
660ce8118af7c468fd0f996b,TCN,2024-06-24_16h36.07.984,LearnStrategy,2023.2.3,MacIntel,59.17159763,9,1,3,-0.014474013,-0.013959825,1,0,0,0.9319,rock_grid_rect_2,2,12,-1,-1,0.932,-0.085082737,-0.232248535,1,0,0,1.2667,Basalt_rect,2,1.267,1,2,0,2,0,1,,,,,,,,,,,,,
660ce8118af7c468fd0f996b,TCN,2024-06-24_16h36.07.984,LearnStrategy,2023.2.3,MacIntel,59.17159763,9,1,4,-0.007097914,-0.002226461,1,0,0,0.8842,rock_grid_rect_2,8,02,-1,-1,0.884,0.301184082,-0.397097914,1,0,0,1.0186,Pumice_rect,8,1.019,1,3,0,3,0,1,,,,,,,,,,,,,
660ce8118af7c468fd0f996b,TCN,2024-06-24_16h36.07.984,LearnStrategy,2023.2.3,MacIntel,59.17159763,9,1,5,0.051274753,-0.014510803,1,0,0,0.625,rock_grid_rect_2,7,06,-1,-1,0.625,0.14437656,-0.389326375,1,0,0,1.087,Peridotite_rect,7,1.087,1,4,0,4,0,1,,,,,,,,,,,,,
660ce8118af7c468fd0f996b,TCN,2024-06-24_16h36.07.984,LearnStrategy,2023.2.3,MacIntel,59.17159763,9,1,6,-0.039890205,-0.011645677,1,0,0,1.5504,rock_grid_rect_2,7,08,-1,-1,1.55,0.122086724,-0.405791287,1,0,0,1.4096,Peridotite_rect,7,1.41,1,5,0,5,0,1,,,,,,,,,,,,,
660ce8118af7c468fd0f996b,TCN,2024-06-24_16h36.07.984,LearnStrategy,2023.2.3,MacIntel,59.17159763,9,1,7,0.050798001,-0.023483175,1,0,0,0.9712,rock_grid_rect_2,3,12,-1,-1,0.971,0.089045342,-0.256974284,1,0,0,1.3889,Diorite_rect,3,1.389,1,6,0,6,0,1,,,,,,,,,,,,,
660ce8118af7c468fd0f996b,TCN,2024-06-24_16h36.07.984,LearnStrategy,2023.2.3,MacIntel,59.17159763,9,1,8,0.130874973,0.009799737,1,0,0,0.7782,rock_grid_rect_2,1,09,-1,-1,0.778,-0.315368279,-0.250682983,1,0,0,2.942,Andesite_rect,1,2.942,1,7,0,7,0,1,,,,,,,,,,,,,
660ce8118af7c468fd0f996b,TCN,2024-06-24_16h36.07.984,LearnStrategy,2023.2.3,MacIntel,59.17159763,9,1,9,-0.044651354,-0.011419067,1,0,0,0.8205,rock_grid_rect_2,5,07,-1,-1,0.82,-0.373933682,-0.415792169,1,0,0,1.034,Obsidian_rect,5,1.034,1,8,0,8,0,1,,,,,,,,,,,,,
660ce8118af7c468fd0f996b,TCN,2024-06-24_16h36.07.984,LearnStrategy,2023.2.3,MacIntel,59.17159763,9,1,10,-0.108485921,0.003001302,1,0,0,1.2741,rock_grid_rect_2,6,06,-1,-1,1.274,-0.135899862,-0.394815131,1,0,0,1.4969,Pegmatite_rect,6,1.497,1,9,0,9,0,1,,,,,,,,,,,,,
660ce8118af7c468fd0f996b,TCN,2024-06-24_16h36.07.984,LearnStrategy,2023.2.3,MacIntel,59.17159763,9,1,11,-0.012639771,0.001176181,1,0,0,0.7818,rock_grid_rect_2,5,14,-1,-1,0.782,-0.367231174,-0.391264445,1,0,0,1.1295,Obsidian_rect,5,1.13,1,10,0,10,0,1,,,,,,,,,,,,,
660ce8118af7c468fd0f996b,TCN,2024-06-24_16h36.07.984,LearnStrategy,2023.2.3,MacIntel,59.17159763,9,1,12,0.022941691,-0.020769958,1,0,0,0.5358,rock_grid_rect_2,2,16,-1,-1,0.536,-0.07226393,-0.241710476,1,0,0,1.5451,Basalt_rect,2,1.545,1,11,0,11,0,1,,,,,,,,,,,,,
660ce8118af7c468fd0f996b,TCN,2024-06-24_16h36.07.984,LearnStrategy,2023.2.3,MacIntel,59.17159763,9,1,13,0.036943359,0.020981852,1,0,0,0.8625,rock_grid_rect_2,3,08,-1,-1,0.862,0.108402507,-0.268919678,1,0,0,2.6751,Diorite_rect,3,2.675,1,12,0,12,0,1,,,,,,,,,,,,,
660ce8118af7c468fd0f996b,TCN,2024-06-24_16h36.07.984,LearnStrategy,2023.2.3,MacIntel,59.17159763,9,1,14,0.045913696,-0.006020067,1,0,0,0.6529,rock_grid_rect_2,8,09,-1,-1,0.653,0.36784139,-0.407710639,1,0,0,0.9501,Pumice_rect,8,0.95,1,13,0,13,0,1,,,,,,,,,,,,,
660ce8118af7c468fd0f996b,TCN,2024-06-24_16h36.07.984,LearnStrategy,2023.2.3,MacIntel,59.17159763,9,1,15,0.051658325,-0.003152398,1,0,0,0.4955,rock_grid_rect_2,4,16,-1,-1,0.495,-0.093126424,-0.240469699,1,0,0,1.41,Basalt_rect,2,1.41,0,14,0,14,0,1,,,,,,,,,,,,,
660ce8118af7c468fd0f996b,TCN,2024-06-24_16h36.07.984,LearnStrategy,2023.2.3,MacIntel,59.17159763,9,1,16,0.014208035,-0.002211948,1,0,0,0.9708,rock_grid_rect_2,6,07,-1,-1,0.971,-0.071996663,-0.396596137,1,0,0,1.6028,Pegmatite_rect,6,1.603,1,15,0,15,0,1,,,,,,,,,,,,,
660ce8118af7c468fd0f996b,TCN,2024-06-24_16h36.07.984,LearnStrategy,2023.2.3,MacIntel,59.17159763,9,2,1,,,,,,,,1,03,,,,,,,,,,,1,2.074,1,,,,,,-0.341756761,-0.249124891,1,0,0,2.0738,Andesite_rect,0,0,0,0,1,
660ce8118af7c468fd0f996b,TCN,2024-06-24_16h36.07.984,LearnStrategy,2023.2.3,MacIntel,59.17159763,9,2,2,,,,,,,,6,15,,,,,,,,,,,6,1.739,1,,,,,,-0.108978204,-0.402368639,1,0,0,1.7391,Pegmatite_rect,1,0,1,0,1,
660ce8118af7c468fd0f996b,TCN,2024-06-24_16h36.07.984,LearnStrategy,2023.2.3,MacIntel,59.17159763,9,2,3,,,,,,,,6,09,,,,,,,,,,,6,1.707,1,,,,,,-0.118334418,-0.41619812,1,0,0,1.7071,Pegmatite_rect,2,0,2,0,1,
660ce8118af7c468fd0f996b,TCN,2024-06-24_16h36.07.984,LearnStrategy,2023.2.3,MacIntel,59.17159763,9,2,4,,,,,,,,4,10,,,,,,,,,,,4,2.014,1,,,,,,0.41357883,-0.243727417,1,0,0,2.0139,Gabbro_rect,3,0,3,0,1,
660ce8118af7c468fd0f996b,TCN,2024-06-24_16h36.07.984,LearnStrategy,2023.2.3,MacIntel,59.17159763,9,2,5,,,,,,,,7,14,,,,,,,,,,,7,1.543,1,,,,,,0.120245022,-0.405067139,1,0,0,1.5429,Peridotite_rect,4,0,4,0,1,
660ce8118af7c468fd0f996b,TCN,2024-06-24_16h36.07.984,LearnStrategy,2023.2.3,MacIntel,59.17159763,9,2,6,,,,,,,,5,16,,,,,,,,,,,5,1.027,1,,,,,,-0.334172668,-0.404874471,1,0,0,1.0269,Obsidian_rect,5,0,5,0,1,
660ce8118af7c468fd0f996b,TCN,2024-06-24_16h36.07.984,LearnStrategy,2023.2.3,MacIntel,59.17159763,9,2,7,,,,,,,,2,09,,,,,,,,,,,2,0.855,1,,,,,,-0.106904839,-0.266887071,1,0,0,0.8551,Basalt_rect,6,0,6,0,1,
660ce8118af7c468fd0f996b,TCN,2024-06-24_16h36.07.984,LearnStrategy,2023.2.3,MacIntel,59.17159763,9,2,8,,,,,,,,3,09,,,,,,,,,,,3,1.388,1,,,,,,0.122376912,-0.25381212,1,0,0,1.3883,Diorite_rect,7,0,7,0,1,
660ce8118af7c468fd0f996b,TCN,2024-06-24_16h36.07.984,LearnStrategy,2023.2.3,MacIntel,59.17159763,9,2,9,,,,,,,,7,07,,,,,,,,,,,7,1.054,1,,,,,,0.131288723,-0.389732869,1,0,0,1.054,Peridotite_rect,8,0,8,0,1,
660ce8118af7c468fd0f996b,TCN,2024-06-24_16h36.07.984,LearnStrategy,2023.2.3,MacIntel,59.17159763,9,2,10,,,,,,,,4,09,,,,,,,,,,,4,1.803,1,,,,,,0.412562798,-0.249429999,1,0,0,1.8031,Gabbro_rect,9,0,9,0,1,
660ce8118af7c468fd0f996b,TCN,2024-06-24_16h36.07.984,LearnStrategy,2023.2.3,MacIntel,59.17159763,9,2,11,,,,,,,,1,06,,,,,,,,,,,1,0.978,1,,,,,,-0.357940063,-0.251778497,1,0,0,0.978,Andesite_rect,10,0,10,0,1,
660ce8118af7c468fd0f996b,TCN,2024-06-24_16h36.07.984,LearnStrategy,2023.2.3,MacIntel,59.17159763,9,2,12,,,,,,,,2,05,,,,,,,,,,,2,0.741,1,,,,,,-0.080513645,-0.264235229,1,0,0,0.7411,Basalt_rect,11,0,11,0,1,
660ce8118af7c468fd0f996b,TCN,2024-06-24_16h36.07.984,LearnStrategy,2023.2.3,MacIntel,59.17159763,9,2,13,,,,,,,,8,06,,,,,,,,,,,8,1.016,1,,,,,,0.291884562,-0.412399563,1,0,0,1.0164,Pumice_rect,12,0,12,0,1,
660ce8118af7c468fd0f996b,TCN,2024-06-24_16h36.07.984,LearnStrategy,2023.2.3,MacIntel,59.17159763,9,2,14,,,,,,,,5,06,,,,,,,,,,,5,1.686,1,,,,,,-0.353350118,-0.409056464,1,0,0,1.6861,Obsidian_rect,13,0,13,0,1,
660ce8118af7c468fd0f996b,TCN,2024-06-24_16h36.07.984,LearnStrategy,2023.2.3,MacIntel,59.17159763,9,2,15,,,,,,,,8,04,,,,,,,,,,,8,2.101,1,,,,,,0.324161445,-0.394796143,1,0,0,2.1005,Pumice_rect,14,0,14,0,1,
660ce8118af7c468fd0f996b,TCN,2024-06-24_16h36.07.984,LearnStrategy,2023.2.3,MacIntel,59.17159763,9,2,16,,,,,,,,3,10,,,,,,,,,,,3,2.269,1,,,,,,0.064050768,-0.264975043,1,0,0,2.2689,Diorite_rect,15,0,15,0,1,
660ce8118af7c468fd0f996b,TCN,2024-06-24_16h36.07.984,LearnStrategy,2023.2.3,MacIntel,59.17159763,,,,,,,,,,,,,,,,,,,,,,,,,,,,,,,,,,,,,,,,,,,1
660ce8118af7c468fd0f996b,TCN,2024-06-24_16h36.07.984,LearnStrategy,2023.2.3,MacIntel,59.17159763,,,,,,,,,,,,,,,,,,,,,,,,,,,,,,,,,,,,,,,,,,,
660ce8118af7c468fd0f996b,TCN,2024-06-24_16h36.07.984,LearnStrategy,2023.2.3,MacIntel,59.17159763,,,,,,,,,,,8,16,1,1,,,,,,,,,,,,,,,,,,,,,,,,,,,,,
660ce8118af7c468fd0f996b,TCN,2024-06-24_16h36.07.984,LearnStrategy,2023.2.3,MacIntel,59.17159763,,,,,,,,,,,4,16,1,2,,,,,,,,,,,,,,,,,,,,,,,,,,,,,
660ce8118af7c468fd0f996b,TCN,2024-06-24_16h36.07.984,LearnStrategy,2023.2.3,MacIntel,59.17159763,,,,,,,,,,,3,11,1,3,,,,,,,,,,,,,,,,,,,,,,,,,,,,,
660ce8118af7c468fd0f996b,TCN,2024-06-24_16h36.07.984,LearnStrategy,2023.2.3,MacIntel,59.17159763,,,,,,,,,,,7,10,1,4,,,,,,,,,,,,,,,,,,,,,,,,,,,,,
660ce8118af7c468fd0f996b,TCN,2024-06-24_16h36.07.984,LearnStrategy,2023.2.3,MacIntel,59.17159763,,,,,,,,,,,6,08,1,5,,,,,,,,,,,,,,,,,,,,,,,,,,,,,
660ce8118af7c468fd0f996b,TCN,2024-06-24_16h36.07.984,LearnStrategy,2023.2.3,MacIntel,59.17159763,,,,,,,,,,,6,10,1,6,,,,,,,,,,,,,,,,,,,,,,,,,,,,,
660ce8118af7c468fd0f996b,TCN,2024-06-24_16h36.07.984,LearnStrategy,2023.2.3,MacIntel,59.17159763,,,,,,,,,,,5,11,1,7,,,,,,,,,,,,,,,,,,,,,,,,,,,,,
660ce8118af7c468fd0f996b,TCN,2024-06-24_16h36.07.984,LearnStrategy,2023.2.3,MacIntel,59.17159763,,,,,,,,,,,1,09,1,8,,,,,,,,,,,,,,,,,,,,,,,,,,,,,
660ce8118af7c468fd0f996b,TCN,2024-06-24_16h36.07.984,LearnStrategy,2023.2.3,MacIntel,59.17159763,,,,,,,,,,,7,08,2,1,,,,,,,,,,,,,,,,,,,,,,,,,,,,,
660ce8118af7c468fd0f996b,TCN,2024-06-24_16h36.07.984,LearnStrategy,2023.2.3,MacIntel,59.17159763,,,,,,,,,,,5,07,2,2,,,,,,,,,,,,,,,,,,,,,,,,,,,,,
660ce8118af7c468fd0f996b,TCN,2024-06-24_16h36.07.984,LearnStrategy,2023.2.3,MacIntel,59.17159763,,,,,,,,,,,4,11,2,3,,,,,,,,,,,,,,,,,,,,,,,,,,,,,
660ce8118af7c468fd0f996b,TCN,2024-06-24_16h36.07.984,LearnStrategy,2023.2.3,MacIntel,59.17159763,,,,,,,,,,,8,13,2,4,,,,,,,,,,,,,,,,,,,,,,,,,,,,,
660ce8118af7c468fd0f996b,TCN,2024-06-24_16h36.07.984,LearnStrategy,2023.2.3,MacIntel,59.17159763,,,,,,,,,,,3,13,2,5,,,,,,,,,,,,,,,,,,,,,,,,,,,,,
660ce8118af7c468fd0f996b,TCN,2024-06-24_16h36.07.984,LearnStrategy,2023.2.3,MacIntel,59.17159763,,,,,,,,,,,7,06,2,6,,,,,,,,,,,,,,,,,,,,,,,,,,,,,
660ce8118af7c468fd0f996b,TCN,2024-06-24_16h36.07.984,LearnStrategy,2023.2.3,MacIntel,59.17159763,,,,,,,,,,,8,14,2,7,,,,,,,,,,,,,,,,,,,,,,,,,,,,,
660ce8118af7c468fd0f996b,TCN,2024-06-24_16h36.07.984,LearnStrategy,2023.2.3,MacIntel,59.17159763,,,,,,,,,,,2,12,2,8,,,,,,,,,,,,,,,,,,,,,,,,,,,,,
660ce8118af7c468fd0f996b,TCN,2024-06-24_16h36.07.984,LearnStrategy,2023.2.3,MacIntel,59.17159763,,,,,,,,,,,6,07,3,1,,,,,,,,,,,,,,,,,,,,,,,,,,,,,
660ce8118af7c468fd0f996b,TCN,2024-06-24_16h36.07.984,LearnStrategy,2023.2.3,MacIntel,59.17159763,,,,,,,,,,,8,03,3,2,,,,,,,,,,,,,,,,,,,,,,,,,,,,,
660ce8118af7c468fd0f996b,TCN,2024-06-24_16h36.07.984,LearnStrategy,2023.2.3,MacIntel,59.17159763,,,,,,,,,,,4,13,3,3,,,,,,,,,,,,,,,,,,,,,,,,,,,,,
660ce8118af7c468fd0f996b,TCN,2024-06-24_16h36.07.984,LearnStrategy,2023.2.3,MacIntel,59.17159763,,,,,,,,,,,2,02,3,4,,,,,,,,,,,,,,,,,,,,,,,,,,,,,
660ce8118af7c468fd0f996b,TCN,2024-06-24_16h36.07.984,LearnStrategy,2023.2.3,MacIntel,59.17159763,,,,,,,,,,,3,07,3,5,,,,,,,,,,,,,,,,,,,,,,,,,,,,,
660ce8118af7c468fd0f996b,TCN,2024-06-24_16h36.07.984,LearnStrategy,2023.2.3,MacIntel,59.17159763,,,,,,,,,,,1,02,3,6,,,,,,,,,,,,,,,,,,,,,,,,,,,,,
660ce8118af7c468fd0f996b,TCN,2024-06-24_16h36.07.984,LearnStrategy,2023.2.3,MacIntel,59.17159763,,,,,,,,,,,5,14,3,7,,,,,,,,,,,,,,,,,,,,,,,,,,,,,
660ce8118af7c468fd0f996b,TCN,2024-06-24_16h36.07.984,LearnStrategy,2023.2.3,MacIntel,59.17159763,,,,,,,,,,,6,06,3,8,,,,,,,,,,,,,,,,,,,,,,,,,,,,,
660ce8118af7c468fd0f996b,TCN,2024-06-24_16h36.07.984,LearnStrategy,2023.2.3,MacIntel,59.17159763,,,,,,,,,,,7,12,4,1,,,,,,,,,,,,,,,,,,,,,,,,,,,,,
660ce8118af7c468fd0f996b,TCN,2024-06-24_16h36.07.984,LearnStrategy,2023.2.3,MacIntel,59.17159763,,,,,,,,,,,5,09,4,2,,,,,,,,,,,,,,,,,,,,,,,,,,,,,
660ce8118af7c468fd0f996b,TCN,2024-06-24_16h36.07.984,LearnStrategy,2023.2.3,MacIntel,59.17159763,,,,,,,,,,,1,07,4,3,,,,,,,,,,,,,,,,,,,,,,,,,,,,,
660ce8118af7c468fd0f996b,TCN,2024-06-24_16h36.07.984,LearnStrategy,2023.2.3,MacIntel,59.17159763,,,,,,,,,,,1,14,4,4,,,,,,,,,,,,,,,,,,,,,,,,,,,,,
660ce8118af7c468fd0f996b,TCN,2024-06-24_16h36.07.984,LearnStrategy,2023.2.3,MacIntel,59.17159763,,,,,,,,,,,4,08,4,5,,,,,,,,,,,,,,,,,,,,,,,,,,,,,
660ce8118af7c468fd0f996b,TCN,2024-06-24_16h36.07.984,LearnStrategy,2023.2.3,MacIntel,59.17159763,,,,,,,,,,,2,01,4,6,,,,,,,,,,,,,,,,,,,,,,,,,,,,,
660ce8118af7c468fd0f996b,TCN,2024-06-24_16h36.07.984,LearnStrategy,2023.2.3,MacIntel,59.17159763,,,,,,,,,,,3,12,4,7,,,,,,,,,,,,,,,,,,,,,,,,,,,,,
660ce8118af7c468fd0f996b,TCN,2024-06-24_16h36.07.984,LearnStrategy,2023.2.3,MacIntel,59.17159763,,,,,,,,,,,5,12,4,8,,,,,,,,,,,,,,,,,,,,,,,,,,,,,
660ce8118af7c468fd0f996b,TCN,2024-06-24_16h36.07.984,LearnStrategy,2023.2.3,MacIntel,59.17159763,,,,,,,,,,,4,03,5,1,,,,,,,,,,,,,,,,,,,,,,,,,,,,,
660ce8118af7c468fd0f996b,TCN,2024-06-24_16h36.07.984,LearnStrategy,2023.2.3,MacIntel,59.17159763,,,,,,,,,,,1,05,5,2,,,,,,,,,,,,,,,,,,,,,,,,,,,,,
660ce8118af7c468fd0f996b,TCN,2024-06-24_16h36.07.984,LearnStrategy,2023.2.3,MacIntel,59.17159763,,,,,,,,,,,2,06,5,3,,,,,,,,,,,,,,,,,,,,,,,,,,,,,
660ce8118af7c468fd0f996b,TCN,2024-06-24_16h36.07.984,LearnStrategy,2023.2.3,MacIntel,59.17159763,,,,,,,,,,,5,08,5,4,,,,,,,,,,,,,,,,,,,,,,,,,,,,,
660ce8118af7c468fd0f996b,TCN,2024-06-24_16h36.07.984,LearnStrategy,2023.2.3,MacIntel,59.17159763,,,,,,,,,,,6,13,5,5,,,,,,,,,,,,,,,,,,,,,,,,,,,,,
660ce8118af7c468fd0f996b,TCN,2024-06-24_16h36.07.984,LearnStrategy,2023.2.3,MacIntel,59.17159763,,,,,,,,,,,6,16,5,6,,,,,,,,,,,,,,,,,,,,,,,,,,,,,
660ce8118af7c468fd0f996b,TCN,2024-06-24_16h36.07.984,LearnStrategy,2023.2.3,MacIntel,59.17159763,,,,,,,,,,,7,05,5,7,,,,,,,,,,,,,,,,,,,,,,,,,,,,,
660ce8118af7c468fd0f996b,TCN,2024-06-24_16h36.07.984,LearnStrategy,2023.2.3,MacIntel,59.17159763,,,,,,,,,,,1,04,5,8,,,,,,,,,,,,,,,,,,,,,,,,,,,,,
660ce8118af7c468fd0f996b,TCN,2024-06-24_16h36.07.984,LearnStrategy,2023.2.3,MacIntel,59.17159763,,,,,,,,,,,4,15,6,1,,,,,,,,,,,,,,,,,,,,,,,,,,,,,
660ce8118af7c468fd0f996b,TCN,2024-06-24_16h36.07.984,LearnStrategy,2023.2.3,MacIntel,59.17159763,,,,,,,,,,,8,02,6,2,,,,,,,,,,,,,,,,,,,,,,,,,,,,,
660ce8118af7c468fd0f996b,TCN,2024-06-24_16h36.07.984,LearnStrategy,2023.2.3,MacIntel,59.17159763,,,,,,,,,,,3,15,6,3,,,,,,,,,,,,,,,,,,,,,,,,,,,,,
660ce8118af7c468fd0f996b,TCN,2024-06-24_16h36.07.984,LearnStrategy,2023.2.3,MacIntel,59.17159763,,,,,,,,,,,7,04,6,4,,,,,,,,,,,,,,,,,,,,,,,,,,,,,
660ce8118af7c468fd0f996b,TCN,2024-06-24_16h36.07.984,LearnStrategy,2023.2.3,MacIntel,59.17159763,,,,,,,,,,,3,08,6,5,,,,,,,,,,,,,,,,,,,,,,,,,,,,,
660ce8118af7c468fd0f996b,TCN,2024-06-24_16h36.07.984,LearnStrategy,2023.2.3,MacIntel,59.17159763,,,,,,,,,,,8,09,6,6,,,,,,,,,,,,,,,,,,,,,,,,,,,,,
660ce8118af7c468fd0f996b,TCN,2024-06-24_16h36.07.984,LearnStrategy,2023.2.3,MacIntel,59.17159763,,,,,,,,,,,2,11,6,7,,,,,,,,,,,,,,,,,,,,,,,,,,,,,
660ce8118af7c468fd0f996b,TCN,2024-06-24_16h36.07.984,LearnStrategy,2023.2.3,MacIntel,59.17159763,,,,,,,,,,,2,16,6,8,,,,,,,,,,,,,,,,,,,,,,,,,,,,,