participant,condition,date,expName,psychopyVersion,OS,frameRate,block,phase,trial,learn_mouse.x,learn_mouse.y,learn_mouse.leftButton,learn_mouse.midButton,learn_mouse.rightButton,learn_mouse.time,learn_mouse.clicked_name,cat,token,row,col,t_select,cat_rec,token_rec,cat_mouse_l.x,cat_mouse_l.y,cat_mouse_l.leftButton,cat_mouse_l.midButton,cat_mouse_l.rightButton,cat_mouse_l.time,cat_mouse_l.clicked_name,resp,t_resp,corr,train_trials.thisRepN,train_trials.thisTrialN,train_trials.thisN,train_trials.thisIndex,train_trials.ran,cat_mouse_t.x,cat_mouse_t.y,cat_mouse_t.leftButton,cat_mouse_t.midButton,cat_mouse_t.rightButton,cat_mouse_t.time,cat_mouse_t.clicked_name,test_trials.thisRepN,test_trials.thisTrialN,test_trials.thisN,test_trials.thisIndex,test_trials.ran,Bonus
660e5c7217be250eda064cf7,SCR,2024-06-11_10h10.53.969,LearnStrategy,2023.2.3,MacIntel,59.88023952,,,,,,,,,,,,,,,,,,,,,,,,,,,,,,,,,,,,,,,,,,,,,
660e5c7217be250eda064cf7,SCR,2024-06-11_10h10.53.969,LearnStrategy,2023.2.3,MacIntel,59.88023952,1,1,1,-0.554578993,0.413771701,1,0,0,5.802,Peridotite_04,7,04,6,1,5.802,4,08,-0.369882812,-0.237170139,1,0,0,5.7911,Andesite_rect,1,5.791,0,0,0,0,0,1,,,,,,,,,,,,,
660e5c7217be250eda064cf7,SCR,2024-06-11_10h10.53.969,LearnStrategy,2023.2.3,MacIntel,59.88023952,1,1,2,-0.244097222,0.258524306,1,0,0,1.6797,Obsidian_11,5,11,5,3,1.68,1,09,-0.144296875,-0.249578993,1,0,0,4.5914,Basalt_rect,2,4.591,0,1,0,1,0,1,,,,,,,,,,,,,
660e5c7217be250eda064cf7,SCR,2024-06-11_10h10.53.969,LearnStrategy,2023.2.3,MacIntel,59.88023952,1,1,3,0.217994792,-0.084592014,1,0,0,1.6316,Pegmatite_10,6,10,3,6,1.632,6,10,0.40203559,-0.263945312,1,0,0,9.1741,Gabbro_rect,4,9.174,0,2,0,2,0,1,,,,,,,,,,,,,
660e5c7217be250eda064cf7,SCR,2024-06-11_10h10.53.969,LearnStrategy,2023.2.3,MacIntel,59.88023952,1,1,4,-0.103997396,-0.106579861,1,0,0,0.8647,Pumice_08,8,08,3,4,0.865,4,11,-0.147786458,-0.391297743,1,0,0,2.1242,Pegmatite_rect,6,2.124,0,3,0,3,0,1,,,,,,,,,,,,,
660e5c7217be250eda064cf7,SCR,2024-06-11_10h10.53.969,LearnStrategy,2023.2.3,MacIntel,59.88023952,1,1,5,0.074752604,-0.248728299,1,0,0,0.9319,Gabbro_12,4,12,2,5,0.932,2,08,0.098684896,-0.262539062,1,0,0,1.1899,Diorite_rect,3,1.19,0,4,0,4,0,1,,,,,,,,,,,,,
660e5c7217be250eda064cf7,SCR,2024-06-11_10h10.53.969,LearnStrategy,2023.2.3,MacIntel,59.88023952,1,1,6,-0.418064236,-0.421115451,1,0,0,1.2305,Obsidian_09,5,09,1,2,1.231,5,12,-0.095,-0.402326389,1,0,0,2.1089,Pegmatite_rect,6,2.109,0,5,0,5,0,1,,,,,,,,,,,,,
660e5c7217be250eda064cf7,SCR,2024-06-11_10h10.53.969,LearnStrategy,2023.2.3,MacIntel,59.88023952,1,1,7,0.274856771,-0.380625,1,0,0,1.6316,Diorite_16,3,16,1,6,1.632,8,03,0.340186632,-0.378033854,1,0,0,3.5247,Pumice_rect,8,3.525,0,6,0,6,0,1,,,,,,,,,,,,,
660e5c7217be250eda064cf7,SCR,2024-06-11_10h10.53.969,LearnStrategy,2023.2.3,MacIntel,59.88023952,1,1,8,0.574835069,0.121514757,1,0,0,1.7477,Basalt_08,2,08,4,8,1.748,3,16,0.394023438,-0.255230035,1,0,0,2.5257,Gabbro_rect,4,2.526,0,7,0,7,0,1,,,,,,,,,,,,,
660e5c7217be250eda064cf7,SCR,2024-06-11_10h10.53.969,LearnStrategy,2023.2.3,MacIntel,59.88023952,1,1,9,0.056805556,0.075451389,1,0,0,1.7637,Basalt_16,2,16,4,5,1.764,7,06,-0.364787326,-0.24328559,1,0,0,2.2911,Andesite_rect,1,2.291,0,8,0,8,0,1,,,,,,,,,,,,,
660e5c7217be250eda064cf7,SCR,2024-06-11_10h10.53.969,LearnStrategy,2023.2.3,MacIntel,59.88023952,1,1,10,0.197756076,0.213611111,1,0,0,1.5972,Peridotite_14,7,14,5,6,1.597,8,09,0.342070312,-0.267313368,1,0,0,2.1917,Gabbro_rect,4,2.192,0,9,0,9,0,1,,,,,,,,,,,,,
660e5c7217be250eda064cf7,SCR,2024-06-11_10h10.53.969,LearnStrategy,2023.2.3,MacIntel,59.88023952,1,1,11,0.116809896,0.26390191,1,0,0,1.3331,Andesite_10,1,10,5,5,1.333,6,07,-0.155603299,-0.389197049,1,0,0,2.6914,Pegmatite_rect,6,2.691,0,10,0,10,0,1,,,,,,,,,,,,,
660e5c7217be250eda064cf7,SCR,2024-06-11_10h10.53.969,LearnStrategy,2023.2.3,MacIntel,59.88023952,1,1,12,0.092460938,0.094661458,1,0,0,2.1976,Basalt_16,2,16,4,5,2.198,2,16,-0.117769097,-0.234010417,1,0,0,1.2261,Basalt_rect,2,1.226,1,11,0,11,0,1,,,,,,,,,,,,,
660e5c7217be250eda064cf7,SCR,2024-06-11_10h10.53.969,LearnStrategy,2023.2.3,MacIntel,59.88023952,1,1,13,0.265850694,-0.262335069,1,0,0,1.7297,Peridotite_08,7,08,2,6,1.73,7,08,0.352764757,-0.264409722,1,0,0,0.9258,Gabbro_rect,4,0.926,0,12,0,12,0,1,,,,,,,,,,,,,
660e5c7217be250eda064cf7,SCR,2024-06-11_10h10.53.969,LearnStrategy,2023.2.3,MacIntel,59.88023952,1,1,14,-0.079921875,-0.235321181,1,0,0,150.2672,Diorite_08,3,08,2,4,150.267,3,08,0.101831597,-0.253706597,1,0,0,1.7572,Diorite_rect,3,1.757,1,13,0,13,0,1,,,,,,,,,,,,,
660e5c7217be250eda064cf7,SCR,2024-06-11_10h10.53.969,LearnStrategy,2023.2.3,MacIntel,59.88023952,1,1,15,0.233710937,-0.394735243,1,0,0,2.0962,Diorite_16,3,16,1,6,2.096,5,10,-0.147118056,-0.245950521,1,0,0,3.56,Basalt_rect,2,3.56,0,14,0,14,0,1,,,,,,,,,,,,,
660e5c7217be250eda064cf7,SCR,2024-06-11_10h10.53.969,LearnStrategy,2023.2.3,MacIntel,59.88023952,1,1,16,0.06469184,0.267721354,1,0,0,1.1849,Andesite_10,1,10,5,5,1.185,1,10,-0.196766493,-0.25593316,1,0,0,1.8776,Basalt_rect,2,1.878,0,15,0,15,0,1,,,,,,,,,,,,,
660e5c7217be250eda064cf7,SCR,2024-06-11_10h10.53.969,LearnStrategy,2023.2.3,MacIntel,59.88023952,1,2,1,,,,,,,,2,11,,,,,,,,,,,,,3,5.556,0,,,,,,0.075130208,-0.257044271,1,0,0,5.5563,Diorite_rect,0,0,0,0,1,
660e5c7217be250eda064cf7,SCR,2024-06-11_10h10.53.969,LearnStrategy,2023.2.3,MacIntel,59.88023952,1,2,2,,,,,,,,3,13,,,,,,,,,,,,,4,3.367,0,,,,,,0.370447049,-0.258250868,1,0,0,3.3671,Gabbro_rect,1,0,1,0,1,
660e5c7217be250eda064cf7,SCR,2024-06-11_10h10.53.969,LearnStrategy,2023.2.3,MacIntel,59.88023952,1,2,3,,,,,,,,1,16,,,,,,,,,,,,,2,1.224,0,,,,,,-0.188459201,-0.267625868,1,0,0,1.2237,Basalt_rect,2,0,2,0,1,
660e5c7217be250eda064cf7,SCR,2024-06-11_10h10.53.969,LearnStrategy,2023.2.3,MacIntel,59.88023952,1,2,4,,,,,,,,7,16,,,,,,,,,,,,,1,0.948,0,,,,,,-0.365572917,-0.259006076,1,0,0,0.9484,Andesite_rect,3,0,3,0,1,
660e5c7217be250eda064cf7,SCR,2024-06-11_10h10.53.969,LearnStrategy,2023.2.3,MacIntel,59.88023952,1,2,5,,,,,,,,7,05,,,,,,,,,,,,,7,0.524,1,,,,,,0.151297743,-0.387608507,1,0,0,0.5243,Peridotite_rect,4,0,4,0,1,
660e5c7217be250eda064cf7,SCR,2024-06-11_10h10.53.969,LearnStrategy,2023.2.3,MacIntel,59.88023952,1,2,6,,,,,,,,6,12,,,,,,,,,,,,,4,1.74,0,,,,,,0.439027778,-0.23969184,1,0,0,1.7404,Gabbro_rect,5,0,5,0,1,
660e5c7217be250eda064cf7,SCR,2024-06-11_10h10.53.969,LearnStrategy,2023.2.3,MacIntel,59.88023952,1,2,7,,,,,,,,8,15,,,,,,,,,,,,,3,0.807,0,,,,,,0.081866319,-0.243116319,1,0,0,0.8074,Diorite_rect,6,0,6,0,1,
660e5c7217be250eda064cf7,SCR,2024-06-11_10h10.53.969,LearnStrategy,2023.2.3,MacIntel,59.88023952,1,2,8,,,,,,,,4,05,,,,,,,,,,,,,2,0.591,0,,,,,,-0.107317708,-0.245828993,1,0,0,0.5907,Basalt_rect,7,0,7,0,1,
660e5c7217be250eda064cf7,SCR,2024-06-11_10h10.53.969,LearnStrategy,2023.2.3,MacIntel,59.88023952,1,2,9,,,,,,,,6,13,,,,,,,,,,,,,1,0.957,0,,,,,,-0.382148437,-0.23953125,1,0,0,0.9572,Andesite_rect,8,0,8,0,1,
660e5c7217be250eda064cf7,SCR,2024-06-11_10h10.53.969,LearnStrategy,2023.2.3,MacIntel,59.88023952,1,2,10,,,,,,,,8,05,,,,,,,,,,,,,5,1.044,0,,,,,,-0.351618924,-0.400568576,1,0,0,1.0441,Obsidian_rect,9,0,9,0,1,
660e5c7217be250eda064cf7,SCR,2024-06-11_10h10.53.969,LearnStrategy,2023.2.3,MacIntel,59.88023952,1,2,11,,,,,,,,2,10,,,,,,,,,,,,,6,0.46,0,,,,,,-0.101488715,-0.403055556,1,0,0,0.4597,Pegmatite_rect,10,0,10,0,1,
660e5c7217be250eda064cf7,SCR,2024-06-11_10h10.53.969,LearnStrategy,2023.2.3,MacIntel,59.88023952,1,2,12,,,,,,,,4,09,,,,,,,,,,,,,2,1.508,0,,,,,,-0.098532986,-0.239079861,1,0,0,1.5077,Basalt_rect,11,0,11,0,1,
660e5c7217be250eda064cf7,SCR,2024-06-11_10h10.53.969,LearnStrategy,2023.2.3,MacIntel,59.88023952,1,2,13,,,,,,,,3,15,,,,,,,,,,,,,8,5.324,0,,,,,,0.357486979,-0.412569444,1,0,0,5.3245,Pumice_rect,12,0,12,0,1,
660e5c7217be250eda064cf7,SCR,2024-06-11_10h10.53.969,LearnStrategy,2023.2.3,MacIntel,59.88023952,1,2,14,,,,,,,,5,05,,,,,,,,,,,,,3,0.518,0,,,,,,0.111514757,-0.248446181,1,0,0,0.5178,Diorite_rect,13,0,13,0,1,
660e5c7217be250eda064cf7,SCR,2024-06-11_10h10.53.969,LearnStrategy,2023.2.3,MacIntel,59.88023952,1,2,15,,,,,,,,5,06,,,,,,,,,,,,,2,0.591,0,,,,,,-0.149201389,-0.248611111,1,0,0,0.5915,Basalt_rect,14,0,14,0,1,
660e5c7217be250eda064cf7,SCR,2024-06-11_10h10.53.969,LearnStrategy,2023.2.3,MacIntel,59.88023952,1,2,16,,,,,,,,1,01,,,,,,,,,,,,,4,0.592,0,,,,,,0.361679688,-0.256957465,1,0,0,0.5919,Gabbro_rect,15,0,15,0,1,
660e5c7217be250eda064cf7,SCR,2024-06-11_10h10.53.969,LearnStrategy,2023.2.3,MacIntel,59.88023952,2,1,1,0.094717882,-0.385008681,1,0,0,1.3035,Gabbro_11,4,11,1,5,1.303,4,11,0.068407118,-0.389448785,1,0,0,1.2756,Peridotite_rect,7,1.276,0,0,0,0,0,1,,,,,,,,,,,,,
660e5c7217be250eda064cf7,SCR,2024-06-11_10h10.53.969,LearnStrategy,2023.2.3,MacIntel,59.88023952,2,1,2,-0.078702257,0.090681424,1,0,0,0.7318,Pegmatite_07,6,07,4,4,0.732,6,07,-0.12266059,-0.240377604,1,0,0,1.6297,Basalt_rect,2,1.63,0,1,0,1,0,1,,,,,,,,,,,,,
660e5c7217be250eda064cf7,SCR,2024-06-11_10h10.53.969,LearnStrategy,2023.2.3,MacIntel,59.88023952,2,1,3,0.561067708,0.378203125,1,0,0,1.2973,Andesite_04,1,04,6,8,1.297,1,04,0.189431424,-0.254045139,1,0,0,1.5752,Diorite_rect,3,1.575,0,2,0,2,0,1,,,,,,,,,,,,,
660e5c7217be250eda064cf7,SCR,2024-06-11_10h10.53.969,LearnStrategy,2023.2.3,MacIntel,59.88023952,2,1,4,0.05891059,0.105069444,1,0,0,0.6832,Basalt_16,2,16,4,5,0.683,2,16,-0.09765191,-0.395959201,1,0,0,1.1235,Pegmatite_rect,6,1.124,0,3,0,3,0,1,,,,,,,,,,,,,
660e5c7217be250eda064cf7,SCR,2024-06-11_10h10.53.969,LearnStrategy,2023.2.3,MacIntel,59.88023952,2,1,5,-0.06390191,-0.199548611,1,0,0,0.9476,Diorite_08,3,08,2,4,0.948,3,08,0.077695313,-0.25218316,1,0,0,1.1585,Diorite_rect,3,1.159,1,4,0,4,0,1,,,,,,,,,,,,,
660e5c7217be250eda064cf7,SCR,2024-06-11_10h10.53.969,LearnStrategy,2023.2.3,MacIntel,59.88023952,2,1,6,-0.400481771,-0.076475694,1,0,0,1.1159,Obsidian_12,5,12,3,2,1.116,5,12,-0.154596354,-0.403502604,1,0,0,2.1432,Pegmatite_rect,6,2.143,0,5,0,5,0,1,,,,,,,,,,,,,
660e5c7217be250eda064cf7,SCR,2024-06-11_10h10.53.969,LearnStrategy,2023.2.3,MacIntel,59.88023952,2,1,7,-0.23672309,-0.371736111,1,0,0,5.152,Pegmatite_03,6,03,1,3,5.152,6,03,0.382981771,-0.403784722,1,0,0,1.3978,Pumice_rect,8,1.398,0,6,0,6,0,1,,,,,,,,,,,,,
660e5c7217be250eda064cf7,SCR,2024-06-11_10h10.53.969,LearnStrategy,2023.2.3,MacIntel,59.88023952,2,1,8,0.347790799,-0.267855903,1,0,0,1.8483,Basalt_01,2,01,2,7,1.848,2,01,0.360494792,-0.241684028,1,0,0,1.0567,Gabbro_rect,4,1.057,0,7,0,7,0,1,,,,,,,,,,,,,
660e5c7217be250eda064cf7,SCR,2024-06-11_10h10.53.969,LearnStrategy,2023.2.3,MacIntel,59.88023952,2,1,9,-0.058320312,-0.422252604,1,0,0,0.9485,Pumice_02,8,02,1,4,0.948,8,02,-0.096167535,-0.260117188,1,0,0,1.3589,Basalt_rect,2,1.359,0,8,0,8,0,1,,,,,,,,,,,,,
660e5c7217be250eda064cf7,SCR,2024-06-11_10h10.53.969,LearnStrategy,2023.2.3,MacIntel,59.88023952,2,1,10,-0.571388889,-0.236510417,1,0,0,1.283,Andesite_03,1,03,2,1,1.283,1,03,0.354704861,-0.271306424,1,0,0,1.5739,Gabbro_rect,4,1.574,0,9,0,9,0,1,,,,,,,,,,,,,
660e5c7217be250eda064cf7,SCR,2024-06-11_10h10.53.969,LearnStrategy,2023.2.3,MacIntel,59.88023952,2,1,11,0.555707465,-0.131236979,1,0,0,2.0482,Pumice_03,8,03,3,8,2.048,8,03,0.404557292,-0.387695313,1,0,0,1.6407,Pumice_rect,8,1.641,1,10,0,10,0,1,,,,,,,,,,,,,
660e5c7217be250eda064cf7,SCR,2024-06-11_10h10.53.969,LearnStrategy,2023.2.3,MacIntel,59.88023952,2,1,12,0.276184896,-0.43187066,1,0,0,1.6482,Diorite_16,3,16,1,6,1.648,3,16,0.166801215,-0.248155382,1,0,0,0.8758,Diorite_rect,3,0.876,1,11,0,11,0,1,,,,,,,,,,,,,
660e5c7217be250eda064cf7,SCR,2024-06-11_10h10.53.969,LearnStrategy,2023.2.3,MacIntel,59.88023952,2,1,13,-0.086801215,0.225763889,1,0,0,1.0482,Peridotite_06,7,06,5,4,1.048,7,06,-0.137730035,-0.239956597,1,0,0,0.8581,Basalt_rect,2,0.858,0,12,0,12,0,1,,,,,,,,,,,,,
660e5c7217be250eda064cf7,SCR,2024-06-11_10h10.53.969,LearnStrategy,2023.2.3,MacIntel,59.88023952,2,1,14,0.059809028,-0.397677951,1,0,0,0.8811,Gabbro_11,4,11,1,5,0.881,4,11,-0.346202257,-0.254001736,1,0,0,1.0256,Andesite_rect,1,1.026,0,13,0,13,0,1,,,,,,,,,,,,,
660e5c7217be250eda064cf7,SCR,2024-06-11_10h10.53.969,LearnStrategy,2023.2.3,MacIntel,59.88023952,2,1,15,0.555295139,-0.261618924,1,0,0,1.8651,Obsidian_02,5,02,2,8,1.865,5,02,-0.30891059,-0.246124132,1,0,0,1.1287,Andesite_rect,1,1.129,0,14,0,14,0,1,,,,,,,,,,,,,
660e5c7217be250eda064cf7,SCR,2024-06-11_10h10.53.969,LearnStrategy,2023.2.3,MacIntel,59.88023952,2,1,16,0.058680556,0.229769965,1,0,0,0.9808,Andesite_10,1,10,5,5,0.981,1,10,0.175047743,-0.251497396,1,0,0,1.1251,Diorite_rect,3,1.125,0,15,0,15,0,1,,,,,,,,,,,,,
660e5c7217be250eda064cf7,SCR,2024-06-11_10h10.53.969,LearnStrategy,2023.2.3,MacIntel,59.88023952,2,2,1,,,,,,,,4,13,,,,,,,,,,,,,3,1.59,0,,,,,,0.082057292,-0.236579861,1,0,0,1.5897,Diorite_rect,0,0,0,0,1,
660e5c7217be250eda064cf7,SCR,2024-06-11_10h10.53.969,LearnStrategy,2023.2.3,MacIntel,59.88023952,2,2,2,,,,,,,,5,04,,,,,,,,,,,,,2,1.46,0,,,,,,-0.079314236,-0.235381944,1,0,0,1.4597,Basalt_rect,1,0,1,0,1,
660e5c7217be250eda064cf7,SCR,2024-06-11_10h10.53.969,LearnStrategy,2023.2.3,MacIntel,59.88023952,2,2,3,,,,,,,,8,13,,,,,,,,,,,,,4,1.776,0,,,,,,0.380355903,-0.253459201,1,0,0,1.776,Gabbro_rect,2,0,2,0,1,
660e5c7217be250eda064cf7,SCR,2024-06-11_10h10.53.969,LearnStrategy,2023.2.3,MacIntel,59.88023952,2,2,4,,,,,,,,3,09,,,,,,,,,,,,,7,1.191,0,,,,,,0.152977431,-0.405811632,1,0,0,1.1913,Peridotite_rect,3,0,3,0,1,
660e5c7217be250eda064cf7,SCR,2024-06-11_10h10.53.969,LearnStrategy,2023.2.3,MacIntel,59.88023952,2,2,5,,,,,,,,3,10,,,,,,,,,,,,,2,0.794,0,,,,,,-0.121310764,-0.237434896,1,0,0,0.7942,Basalt_rect,4,0,4,0,1,
660e5c7217be250eda064cf7,SCR,2024-06-11_10h10.53.969,LearnStrategy,2023.2.3,MacIntel,59.88023952,2,2,6,,,,,,,,2,05,,,,,,,,,,,,,5,0.425,0,,,,,,-0.38937934,-0.382109375,1,0,0,0.4254,Obsidian_rect,5,0,5,0,1,
660e5c7217be250eda064cf7,SCR,2024-06-11_10h10.53.969,LearnStrategy,2023.2.3,MacIntel,59.88023952,2,2,7,,,,,,,,2,14,,,,,,,,,,,,,2,0.392,1,,,,,,-0.044266493,-0.245334201,1,0,0,0.3922,Basalt_rect,6,0,6,0,1,
660e5c7217be250eda064cf7,SCR,2024-06-11_10h10.53.969,LearnStrategy,2023.2.3,MacIntel,59.88023952,2,2,8,,,,,,,,5,07,,,,,,,,,,,,,7,0.308,0,,,,,,0.101805556,-0.410238715,1,0,0,0.3079,Peridotite_rect,7,0,7,0,1,
660e5c7217be250eda064cf7,SCR,2024-06-11_10h10.53.969,LearnStrategy,2023.2.3,MacIntel,59.88023952,2,2,9,,,,,,,,7,10,,,,,,,,,,,,,4,0.273,0,,,,,,0.391323785,-0.240247396,1,0,0,0.2732,Gabbro_rect,8,0,8,0,1,
660e5c7217be250eda064cf7,SCR,2024-06-11_10h10.53.969,LearnStrategy,2023.2.3,MacIntel,59.88023952,2,2,10,,,,,,,,1,14,,,,,,,,,,,,,7,0.323,0,,,,,,0.098962674,-0.401019965,1,0,0,0.3231,Peridotite_rect,9,0,9,0,1,
660e5c7217be250eda064cf7,SCR,2024-06-11_10h10.53.969,LearnStrategy,2023.2.3,MacIntel,59.88023952,2,2,11,,,,,,,,4,03,,,,,,,,,,,,,2,1.242,0,,,,,,-0.150789931,-0.244513889,1,0,0,1.2421,Basalt_rect,10,0,10,0,1,
660e5c7217be250eda064cf7,SCR,2024-06-11_10h10.53.969,LearnStrategy,2023.2.3,MacIntel,59.88023952,2,2,12,,,,,,,,6,05,,,,,,,,,,,,,1,0.375,0,,,,,,-0.367209201,-0.235438368,1,0,0,0.3752,Andesite_rect,11,0,11,0,1,
660e5c7217be250eda064cf7,SCR,2024-06-11_10h10.53.969,LearnStrategy,2023.2.3,MacIntel,59.88023952,2,2,13,,,,,,,,8,10,,,,,,,,,,,,,7,0.409,0,,,,,,0.066618924,-0.400520833,1,0,0,0.4091,Peridotite_rect,12,0,12,0,1,
660e5c7217be250eda064cf7,SCR,2024-06-11_10h10.53.969,LearnStrategy,2023.2.3,MacIntel,59.88023952,2,2,14,,,,,,,,6,09,,,,,,,,,,,,,4,0.754,0,,,,,,0.331167535,-0.25703559,1,0,0,0.7544,Gabbro_rect,13,0,13,0,1,
660e5c7217be250eda064cf7,SCR,2024-06-11_10h10.53.969,LearnStrategy,2023.2.3,MacIntel,59.88023952,2,2,15,,,,,,,,7,15,,,,,,,,,,,,,8,0.376,0,,,,,,0.359205729,-0.401740451,1,0,0,0.3759,Pumice_rect,14,0,14,0,1,
660e5c7217be250eda064cf7,SCR,2024-06-11_10h10.53.969,LearnStrategy,2023.2.3,MacIntel,59.88023952,2,2,16,,,,,,,,1,02,,,,,,,,,,,,,3,0.264,0,,,,,,0.106601562,-0.255802951,1,0,0,0.2636,Diorite_rect,15,0,15,0,1,
660e5c7217be250eda064cf7,SCR,2024-06-11_10h10.53.969,LearnStrategy,2023.2.3,MacIntel,59.88023952,3,1,1,-0.096432292,-0.116840278,1,0,0,0.6641,Pumice_08,8,08,3,4,0.664,6,11,-0.166102431,-0.235928819,1,0,0,1.8558,Basalt_rect,2,1.856,0,0,0,0,0,1,,,,,,,,,,,,,
660e5c7217be250eda064cf7,SCR,2024-06-11_10h10.53.969,LearnStrategy,2023.2.3,MacIntel,59.88023952,3,1,2,-0.567717014,0.267799479,1,0,0,1.8815,Diorite_07,3,07,5,1,1.882,3,07,-0.159427083,-0.246966146,1,0,0,1.4976,Basalt_rect,2,1.498,0,1,0,1,0,1,,,,,,,,,,,,,
660e5c7217be250eda064cf7,SCR,2024-06-11_10h10.53.969,LearnStrategy,2023.2.3,MacIntel,59.88023952,3,1,3,-0.403138021,-0.076853299,1,0,0,1.6654,Obsidian_12,5,12,3,2,1.665,5,12,0.118706597,-0.251614583,1,0,0,0.7418,Diorite_rect,3,0.742,0,2,0,2,0,1,,,,,,,,,,,,,
660e5c7217be250eda064cf7,SCR,2024-06-11_10h10.53.969,LearnStrategy,2023.2.3,MacIntel,59.88023952,3,1,4,0.417482639,-0.415998264,1,0,0,1.0317,Andesite_09,1,09,1,7,1.032,1,09,0.409388021,-0.233203125,1,0,0,1.0629,Gabbro_rect,4,1.063,0,3,0,3,0,1,,,,,,,,,,,,,
660e5c7217be250eda064cf7,SCR,2024-06-11_10h10.53.969,LearnStrategy,2023.2.3,MacIntel,59.88023952,3,1,5,-0.38375,0.238875868,1,0,0,1.2977,Peridotite_12,7,12,5,2,1.298,7,12,-0.415698785,-0.382560764,1,0,0,1.1917,Obsidian_rect,5,1.192,0,4,0,4,0,1,,,,,,,,,,,,,
660e5c7217be250eda064cf7,SCR,2024-06-11_10h10.53.969,LearnStrategy,2023.2.3,MacIntel,59.88023952,3,1,6,-0.226171875,0.211835937,1,0,0,1.1657,Obsidian_11,5,11,5,3,1.166,5,11,0.159513889,-0.404991319,1,0,0,1.9899,Peridotite_rect,7,1.99,0,5,0,5,0,1,,,,,,,,,,,,,
660e5c7217be250eda064cf7,SCR,2024-06-11_10h10.53.969,LearnStrategy,2023.2.3,MacIntel,59.88023952,3,1,7,0.100585938,-0.413085938,1,0,0,1.8317,Gabbro_11,4,11,1,5,1.832,4,11,0.355811632,-0.403372396,1,0,0,1.9247,Pumice_rect,8,1.925,0,6,0,6,0,1,,,,,,,,,,,,,
660e5c7217be250eda064cf7,SCR,2024-06-11_10h10.53.969,LearnStrategy,2023.2.3,MacIntel,59.88023952,3,1,8,0.393242188,-0.137677951,1,0,0,2.713,Gabbro_10,4,10,3,7,2.713,4,10,-0.420659722,-0.400434028,1,0,0,1.4084,Obsidian_rect,5,1.408,0,7,0,7,0,1,,,,,,,,,,,,,
660e5c7217be250eda064cf7,SCR,2024-06-11_10h10.53.969,LearnStrategy,2023.2.3,MacIntel,59.88023952,3,1,9,0.586835937,-0.426909722,1,0,0,1.797,Pumice_14,8,14,1,8,1.797,8,14,-0.169926215,-0.40125,1,0,0,1.626,Pegmatite_rect,6,1.626,0,8,0,8,0,1,,,,,,,,,,,,,
660e5c7217be250eda064cf7,SCR,2024-06-11_10h10.53.969,LearnStrategy,2023.2.3,MacIntel,59.88023952,3,1,10,0.103407118,0.419322917,1,0,0,0.9477,Basalt_09,2,09,6,5,0.948,2,09,0.156987847,-0.268988715,1,0,0,2.1433,Diorite_rect,3,2.143,0,9,0,9,0,1,,,,,,,,,,,,,
660e5c7217be250eda064cf7,SCR,2024-06-11_10h10.53.969,LearnStrategy,2023.2.3,MacIntel,59.88023952,3,1,11,-0.277708333,-0.390034722,1,0,0,1.2154,Pegmatite_03,6,03,1,3,1.215,6,03,-0.350763889,-0.41406684,1,0,0,1.8744,Obsidian_rect,5,1.874,0,10,0,10,0,1,,,,,,,,,,,,,
660e5c7217be250eda064cf7,SCR,2024-06-11_10h10.53.969,LearnStrategy,2023.2.3,MacIntel,59.88023952,3,1,12,0.515716146,0.379118924,1,0,0,1.0985,Andesite_04,1,04,6,8,1.098,1,04,0.115091146,-0.256393229,1,0,0,0.8765,Diorite_rect,3,0.876,0,11,0,11,0,1,,,,,,,,,,,,,
660e5c7217be250eda064cf7,SCR,2024-06-11_10h10.53.969,LearnStrategy,2023.2.3,MacIntel,59.88023952,3,1,13,-0.515039062,0.277634549,1,0,0,1.4321,Diorite_07,3,07,5,1,1.432,3,07,0.212586806,-0.395898437,1,0,0,1.992,Peridotite_rect,7,1.992,0,12,0,12,0,1,,,,,,,,,,,,,
660e5c7217be250eda064cf7,SCR,2024-06-11_10h10.53.969,LearnStrategy,2023.2.3,MacIntel,59.88023952,3,1,14,0.204696181,-0.214895833,1,0,0,0.9486,Peridotite_08,7,08,2,6,0.949,7,08,0.117625868,-0.235664062,1,0,0,0.6934,Diorite_rect,3,0.693,0,13,0,13,0,1,,,,,,,,,,,,,
660e5c7217be250eda064cf7,SCR,2024-06-11_10h10.53.969,LearnStrategy,2023.2.3,MacIntel,59.88023952,3,1,15,-0.394153646,0.129422743,1,0,0,1.1799,Pumice_06,8,06,4,2,1.18,8,06,-0.112695313,-0.248155382,1,0,0,0.8241,Basalt_rect,2,0.824,0,14,0,14,0,1,,,,,,,,,,,,,
660e5c7217be250eda064cf7,SCR,2024-06-11_10h10.53.969,LearnStrategy,2023.2.3,MacIntel,59.88023952,3,1,16,0.373250868,0.064787326,1,0,0,1.0797,Basalt_06,2,06,4,7,1.08,2,06,0.130043403,-0.383975694,1,0,0,0.8429,Peridotite_rect,7,0.843,0,15,0,15,0,1,,,,,,,,,,,,,
660e5c7217be250eda064cf7,SCR,2024-06-11_10h10.53.969,LearnStrategy,2023.2.3,MacIntel,59.88023952,3,2,1,,,,,,,,4,14,,,,,,,,,,,,,8,1.392,0,,,,,,0.48296441,-0.414431424,1,0,0,1.3919,Pumice_rect,0,0,0,0,1,
660e5c7217be250eda064cf7,SCR,2024-06-11_10h10.53.969,LearnStrategy,2023.2.3,MacIntel,59.88023952,3,2,2,,,,,,,,5,16,,,,,,,,,,,,,3,1.858,0,,,,,,0.094301215,-0.245924479,1,0,0,1.858,Diorite_rect,1,0,1,0,1,
660e5c7217be250eda064cf7,SCR,2024-06-11_10h10.53.969,LearnStrategy,2023.2.3,MacIntel,59.88023952,3,2,3,,,,,,,,1,05,,,,,,,,,,,,,2,0.591,0,,,,,,-0.143845486,-0.230256076,1,0,0,0.5914,Basalt_rect,2,0,2,0,1,
660e5c7217be250eda064cf7,SCR,2024-06-11_10h10.53.969,LearnStrategy,2023.2.3,MacIntel,59.88023952,3,2,4,,,,,,,,6,06,,,,,,,,,,,,,1,1.111,0,,,,,,-0.326080729,-0.257951389,1,0,0,1.1106,Andesite_rect,3,0,3,0,1,
660e5c7217be250eda064cf7,SCR,2024-06-11_10h10.53.969,LearnStrategy,2023.2.3,MacIntel,59.88023952,3,2,5,,,,,,,,8,16,,,,,,,,,,,,,2,0.393,0,,,,,,-0.072078993,-0.262105035,1,0,0,0.3934,Basalt_rect,4,0,4,0,1,
660e5c7217be250eda064cf7,SCR,2024-06-11_10h10.53.969,LearnStrategy,2023.2.3,MacIntel,59.88023952,3,2,6,,,,,,,,1,11,,,,,,,,,,,,,7,0.258,0,,,,,,0.088229167,-0.416631944,1,0,0,0.2579,Peridotite_rect,5,0,5,0,1,
660e5c7217be250eda064cf7,SCR,2024-06-11_10h10.53.969,LearnStrategy,2023.2.3,MacIntel,59.88023952,3,2,7,,,,,,,,7,13,,,,,,,,,,,,,4,0.909,0,,,,,,0.352109375,-0.236011285,1,0,0,0.909,Gabbro_rect,6,0,6,0,1,
660e5c7217be250eda064cf7,SCR,2024-06-11_10h10.53.969,LearnStrategy,2023.2.3,MacIntel,59.88023952,3,2,8,,,,,,,,4,01,,,,,,,,,,,,,3,0.494,0,,,,,,0.166115451,-0.23468316,0,0,1,0.4943,Diorite_rect,7,0,7,0,1,
660e5c7217be250eda064cf7,SCR,2024-06-11_10h10.53.969,LearnStrategy,2023.2.3,MacIntel,59.88023952,3,2,9,,,,,,,,7,07,,,,,,,,,,,,,8,0.926,0,,,,,,0.389578993,-0.411384549,1,0,0,0.9259,Pumice_rect,8,0,8,0,1,
660e5c7217be250eda064cf7,SCR,2024-06-11_10h10.53.969,LearnStrategy,2023.2.3,MacIntel,59.88023952,3,2,10,,,,,,,,3,02,,,,,,,,,,,,,2,0.825,0,,,,,,-0.102638889,-0.232977431,1,0,0,0.8249,Basalt_rect,9,0,9,0,1,
660e5c7217be250eda064cf7,SCR,2024-06-11_10h10.53.969,LearnStrategy,2023.2.3,MacIntel,59.88023952,3,2,11,,,,,,,,3,12,,,,,,,,,,,,,1,0.791,0,,,,,,-0.374726563,-0.239127604,1,0,0,0.7909,Andesite_rect,10,0,10,0,1,
660e5c7217be250eda064cf7,SCR,2024-06-11_10h10.53.969,LearnStrategy,2023.2.3,MacIntel,59.88023952,3,2,12,,,,,,,,5,14,,,,,,,,,,,,,5,0.341,1,,,,,,-0.367126736,-0.403411458,1,0,0,0.3414,Obsidian_rect,11,0,11,0,1,
660e5c7217be250eda064cf7,SCR,2024-06-11_10h10.53.969,LearnStrategy,2023.2.3,MacIntel,59.88023952,3,2,13,,,,,,,,2,04,,,,,,,,,,,,,6,0.799,0,,,,,,-0.067934028,-0.383246528,1,0,0,0.7989,Pegmatite_rect,12,0,12,0,1,
660e5c7217be250eda064cf7,SCR,2024-06-11_10h10.53.969,LearnStrategy,2023.2.3,MacIntel,59.88023952,3,2,14,,,,,,,,8,04,,,,,,,,,,,,,7,0.257,0,,,,,,0.100208333,-0.400347222,1,0,0,0.2573,Peridotite_rect,13,0,13,0,1,
660e5c7217be250eda064cf7,SCR,2024-06-11_10h10.53.969,LearnStrategy,2023.2.3,MacIntel,59.88023952,3,2,15,,,,,,,,6,08,,,,,,,,,,,,,2,0.208,0,,,,,,-0.103637153,-0.244574653,1,0,0,0.2082,Basalt_rect,14,0,14,0,1,
660e5c7217be250eda064cf7,SCR,2024-06-11_10h10.53.969,LearnStrategy,2023.2.3,MacIntel,59.88023952,3,2,16,,,,,,,,2,12,,,,,,,,,,,,,3,0.225,0,,,,,,0.064366319,-0.24484809,1,0,0,0.2251,Diorite_rect,15,0,15,0,1,
660e5c7217be250eda064cf7,SCR,2024-06-11_10h10.53.969,LearnStrategy,2023.2.3,MacIntel,59.88023952,4,1,1,-0.091223958,-0.240360243,1,0,0,11.0376,Diorite_08,3,08,2,4,11.038,3,08,0.130421007,-0.255299479,1,0,0,6.2484,Diorite_rect,3,6.248,1,0,0,0,0,1,,,,,,,,,,,,,
660e5c7217be250eda064cf7,SCR,2024-06-11_10h10.53.969,LearnStrategy,2023.2.3,MacIntel,59.88023952,4,1,2,0.241610243,-0.253506944,1,0,0,0.9866,Peridotite_08,7,08,2,6,0.987,7,08,0.168298611,-0.259592014,1,0,0,0.7926,Diorite_rect,3,0.793,0,1,0,1,0,1,,,,,,,,,,,,,
660e5c7217be250eda064cf7,SCR,2024-06-11_10h10.53.969,LearnStrategy,2023.2.3,MacIntel,59.88023952,4,1,3,0.421588542,-0.288246528,1,0,0,1.1302,Basalt_01,2,01,2,7,1.13,2,01,0.133815104,-0.246831597,1,0,0,36.1103,Diorite_rect,3,36.11,0,2,0,2,0,1,,,,,,,,,,,,,
660e5c7217be250eda064cf7,SCR,2024-06-11_10h10.53.969,LearnStrategy,2023.2.3,MacIntel,59.88023952,4,1,4,0.231545139,0.229487847,1,0,0,1.7138,Peridotite_14,7,14,5,6,1.714,7,14,-0.347395833,-0.384813368,1,0,0,1.2235,Obsidian_rect,5,1.224,0,3,0,3,0,1,,,,,,,,,,,,,
660e5c7217be250eda064cf7,SCR,2024-06-11_10h10.53.969,LearnStrategy,2023.2.3,MacIntel,59.88023952,4,1,5,0.576579861,-0.245203993,1,0,0,1.6648,Obsidian_02,5,02,2,8,1.665,5,02,0.13343316,-0.248923611,1,0,0,1.2076,Diorite_rect,3,1.208,0,4,0,4,0,1,,,,,,,,,,,,,
660e5c7217be250eda064cf7,SCR,2024-06-11_10h10.53.969,LearnStrategy,2023.2.3,MacIntel,59.88023952,4,1,6,-0.096019965,-0.377304688,1,0,0,1.7161,Pumice_02,8,02,1,4,1.716,8,02,0.355069444,-0.239856771,1,0,0,1.6579,Gabbro_rect,4,1.658,0,5,0,5,0,1,,,,,,,,,,,,,
660e5c7217be250eda064cf7,SCR,2024-06-11_10h10.53.969,LearnStrategy,2023.2.3,MacIntel,59.88023952,4,1,7,0.047282986,0.250251736,1,0,0,1.0826,Andesite_10,1,10,5,5,1.083,1,10,-0.377404514,-0.420863715,1,0,0,1.0597,Obsidian_rect,5,1.06,0,6,0,6,0,1,,,,,,,,,,,,,
660e5c7217be250eda064cf7,SCR,2024-06-11_10h10.53.969,LearnStrategy,2023.2.3,MacIntel,59.88023952,4,1,8,0.526909722,0.366848958,1,0,0,1.6979,Andesite_04,1,04,6,8,1.698,1,04,0.151679687,-0.416471354,1,0,0,1.2424,Peridotite_rect,7,1.242,0,7,0,7,0,1,,,,,,,,,,,,,
660e5c7217be250eda064cf7,SCR,2024-06-11_10h10.53.969,LearnStrategy,2023.2.3,MacIntel,59.88023952,4,1,9,0.189761285,-0.058493924,1,0,0,0.9318,Pegmatite_10,6,10,3,6,0.932,6,10,0.149956597,-0.235256076,1,0,0,0.7763,Diorite_rect,3,0.776,0,8,0,8,0,1,,,,,,,,,,,,,
660e5c7217be250eda064cf7,SCR,2024-06-11_10h10.53.969,LearnStrategy,2023.2.3,MacIntel,59.88023952,4,1,10,0.097925347,-0.376684028,1,0,0,0.8825,Gabbro_11,4,11,1,5,0.883,4,11,0.112717014,-0.240069444,1,0,0,9.6431,Diorite_rect,3,9.643,0,9,0,9,0,1,,,,,,,,,,,,,
660e5c7217be250eda064cf7,SCR,2024-06-11_10h10.53.969,LearnStrategy,2023.2.3,MacIntel,59.88023952,4,1,11,-0.271176215,-0.112677951,1,0,0,1.1486,Gabbro_16,4,16,3,3,1.149,4,16,0.100863715,-0.266219618,1,0,0,2.6767,Diorite_rect,3,2.677,0,10,0,10,0,1,,,,,,,,,,,,,
660e5c7217be250eda064cf7,SCR,2024-06-11_10h10.53.969,LearnStrategy,2023.2.3,MacIntel,59.88023952,4,1,12,0.550013021,-0.288172743,1,0,0,1.0536,Obsidian_02,5,02,2,8,1.054,5,02,0.330716146,-0.258797743,1,0,0,0.841,Gabbro_rect,4,0.841,0,11,0,11,0,1,,,,,,,,,,,,,
660e5c7217be250eda064cf7,SCR,2024-06-11_10h10.53.969,LearnStrategy,2023.2.3,MacIntel,59.88023952,4,1,13,0.510907118,0.080069444,1,0,0,1.6992,Basalt_08,2,08,4,8,1.699,2,08,0.179804688,-0.267005208,1,0,0,1.1411,Diorite_rect,3,1.141,0,12,0,12,0,1,,,,,,,,,,,,,
660e5c7217be250eda064cf7,SCR,2024-06-11_10h10.53.969,LearnStrategy,2023.2.3,MacIntel,59.88023952,4,1,14,-0.056553819,-0.452278646,1,0,0,1.8318,Pumice_02,8,02,1,4,1.832,8,02,0.151189236,-0.248997396,1,0,0,15.909,Diorite_rect,3,15.909,0,13,0,13,0,1,,,,,,,,,,,,,
660e5c7217be250eda064cf7,SCR,2024-06-11_10h10.53.969,LearnStrategy,2023.2.3,MacIntel,59.88023952,4,1,15,-0.057764757,-0.200130208,1,0,0,1.2993,Diorite_08,3,08,2,4,1.299,3,08,-0.091918403,-0.230729167,1,0,0,0.6931,Basalt_rect,2,0.693,0,14,0,14,0,1,,,,,,,,,,,,,
660e5c7217be250eda064cf7,SCR,2024-06-11_10h10.53.969,LearnStrategy,2023.2.3,MacIntel,59.88023952,4,1,16,0.193715278,-0.073663194,1,0,0,0.7154,Pegmatite_10,6,10,3,6,0.715,6,10,0.358602431,-0.380577257,1,0,0,8.6422,Pumice_rect,8,8.642,0,15,0,15,0,1,,,,,,,,,,,,,
660e5c7217be250eda064cf7,SCR,2024-06-11_10h10.53.969,LearnStrategy,2023.2.3,MacIntel,59.88023952,4,2,1,,,,,,,,6,12,,,,,,,,,,,,,2,0.975,0,,,,,,-0.08874566,-0.251896701,1,0,0,0.9746,Basalt_rect,0,0,0,0,1,
660e5c7217be250eda064cf7,SCR,2024-06-11_10h10.53.969,LearnStrategy,2023.2.3,MacIntel,59.88023952,4,2,2,,,,,,,,4,01,,,,,,,,,,,,,3,0.477,0,,,,,,0.095190972,-0.232196181,1,0,0,0.4774,Diorite_rect,1,0,1,0,1,
660e5c7217be250eda064cf7,SCR,2024-06-11_10h10.53.969,LearnStrategy,2023.2.3,MacIntel,59.88023952,4,2,3,,,,,,,,7,07,,,,,,,,,,,,,4,0.577,0,,,,,,0.339288194,-0.230299479,1,0,0,0.5768,Gabbro_rect,2,0,2,0,1,
660e5c7217be250eda064cf7,SCR,2024-06-11_10h10.53.969,LearnStrategy,2023.2.3,MacIntel,59.88023952,4,2,4,,,,,,,,8,04,,,,,,,,,,,,,6,0.242,0,,,,,,-0.137274306,-0.391996528,1,0,0,0.2415,Pegmatite_rect,3,0,3,0,1,
660e5c7217be250eda064cf7,SCR,2024-06-11_10h10.53.969,LearnStrategy,2023.2.3,MacIntel,59.88023952,4,2,5,,,,,,,,2,12,,,,,,,,,,,,,7,0.21,0,,,,,,0.100798611,-0.389670139,1,0,0,0.2101,Peridotite_rect,4,0,4,0,1,
660e5c7217be250eda064cf7,SCR,2024-06-11_10h10.53.969,LearnStrategy,2023.2.3,MacIntel,59.88023952,4,2,6,,,,,,,,7,05,,,,,,,,,,,,,8,0.157,0,,,,,,0.376475694,-0.387209201,1,0,0,0.1572,Pumice_rect,5,0,5,0,1,
660e5c7217be250eda064cf7,SCR,2024-06-11_10h10.53.969,LearnStrategy,2023.2.3,MacIntel,59.88023952,4,2,7,,,,,,,,3,13,,,,,,,,,,,,,2,0.657,0,,,,,,-0.102382813,-0.247296007,1,0,0,0.6569,Basalt_rect,6,0,6,0,1,
660e5c7217be250eda064cf7,SCR,2024-06-11_10h10.53.969,LearnStrategy,2023.2.3,MacIntel,59.88023952,4,2,8,,,,,,,,4,14,,,,,,,,,,,,,3,0.227,0,,,,,,0.090503472,-0.247877604,1,0,0,0.2271,Diorite_rect,7,0,7,0,1,
660e5c7217be250eda064cf7,SCR,2024-06-11_10h10.53.969,LearnStrategy,2023.2.3,MacIntel,59.88023952,4,2,9,,,,,,,,5,14,,,,,,,,,,,,,4,0.108,0,,,,,,0.396467014,-0.247282986,1,0,0,0.1075,Gabbro_rect,8,0,8,0,1,
660e5c7217be250eda064cf7,SCR,2024-06-11_10h10.53.969,LearnStrategy,2023.2.3,MacIntel,59.88023952,4,2,10,,,,,,,,6,13,,,,,,,,,,,,,8,0.175,0,,,,,,0.386523438,-0.420655382,1,0,0,0.1747,Pumice_rect,9,0,9,0,1,
660e5c7217be250eda064cf7,SCR,2024-06-11_10h10.53.969,LearnStrategy,2023.2.3,MacIntel,59.88023952,4,2,11,,,,,,,,1,05,,,,,,,,,,,,,6,0.256,0,,,,,,-0.161006944,-0.396228299,1,0,0,0.2565,Pegmatite_rect,10,0,10,0,1,
660e5c7217be250eda064cf7,SCR,2024-06-11_10h10.53.969,LearnStrategy,2023.2.3,MacIntel,59.88023952,4,2,12,,,,,,,,5,07,,,,,,,,,,,,,1,0.624,0,,,,,,-0.372174479,-0.250664063,1,0,0,0.6242,Andesite_rect,11,0,11,0,1,
660e5c7217be250eda064cf7,SCR,2024-06-11_10h10.53.969,LearnStrategy,2023.2.3,MacIntel,59.88023952,4,2,13,,,,,,,,3,15,,,,,,,,,,,,,2,0.308,0,,,,,,-0.188763021,-0.238094618,1,0,0,0.3077,Basalt_rect,12,0,12,0,1,
660e5c7217be250eda064cf7,SCR,2024-06-11_10h10.53.969,LearnStrategy,2023.2.3,MacIntel,59.88023952,4,2,14,,,,,,,,1,14,,,,,,,,,,,,,3,0.125,0,,,,,,0.045455729,-0.263984375,1,0,0,0.1251,Diorite_rect,13,0,13,0,1,
660e5c7217be250eda064cf7,SCR,2024-06-11_10h10.53.969,LearnStrategy,2023.2.3,MacIntel,59.88023952,4,2,15,,,,,,,,2,05,,,,,,,,,,,,,4,0.41,0,,,,,,0.302764757,-0.245351563,1,0,0,0.4098,Gabbro_rect,14,0,14,0,1,
660e5c7217be250eda064cf7,SCR,2024-06-11_10h10.53.969,LearnStrategy,2023.2.3,MacIntel,59.88023952,4,2,16,,,,,,,,8,05,,,,,,,,,,,,,8,0.608,1,,,,,,0.357934028,-0.39234809,1,0,0,0.6077,Pumice_rect,15,0,15,0,1,
660e5c7217be250eda064cf7,SCR,2024-06-11_10h10.53.969,LearnStrategy,2023.2.3,MacIntel,59.88023952,5,1,1,0.052669271,0.110772569,1,0,0,0.8974,Basalt_16,2,16,4,5,0.897,2,16,-0.169947917,-0.269075521,1,0,0,0.7924,Basalt_rect,2,0.792,1,0,0,0,0,1,,,,,,,,,,,,,
660e5c7217be250eda064cf7,SCR,2024-06-11_10h10.53.969,LearnStrategy,2023.2.3,MacIntel,59.88023952,5,1,2,0.226059028,0.238420139,1,0,0,1.065,Peridotite_14,7,14,5,6,1.065,7,14,-0.366241319,-0.251818576,1,0,0,0.9751,Andesite_rect,1,0.975,0,1,0,1,0,1,,,,,,,,,,,,,
660e5c7217be250eda064cf7,SCR,2024-06-11_10h10.53.969,LearnStrategy,2023.2.3,MacIntel,59.88023952,5,1,3,0.593832465,-0.307721354,1,0,0,1.7152,Obsidian_02,5,02,2,8,1.715,5,02,0.123029514,-0.411762153,1,0,0,1.0433,Peridotite_rect,7,1.043,0,2,0,2,0,1,,,,,,,,,,,,,
660e5c7217be250eda064cf7,SCR,2024-06-11_10h10.53.969,LearnStrategy,2023.2.3,MacIntel,59.88023952,5,1,4,-0.587777778,-0.100724826,1,0,0,1.2654,Pegmatite_11,6,11,3,1,1.265,6,11,-0.158315972,-0.230525174,1,0,0,0.7764,Basalt_rect,2,0.776,0,3,0,3,0,1,,,,,,,,,,,,,
660e5c7217be250eda064cf7,SCR,2024-06-11_10h10.53.969,LearnStrategy,2023.2.3,MacIntel,59.88023952,5,1,5,-0.286006944,0.299032118,1,0,0,0.9984,Obsidian_11,5,11,5,3,0.998,5,11,-0.356471354,-0.229522569,1,0,0,3.0601,Andesite_rect,1,3.06,0,4,0,4,0,1,,,,,,,,,,,,,
660e5c7217be250eda064cf7,SCR,2024-06-11_10h10.53.969,LearnStrategy,2023.2.3,MacIntel,59.88023952,5,1,6,-0.068993056,0.232052951,1,0,0,1.0038,Peridotite_06,7,06,5,4,1.004,7,06,0.150342882,-0.405763889,1,0,0,1.4597,Peridotite_rect,7,1.46,1,5,0,5,0,1,,,,,,,,,,,,,
660e5c7217be250eda064cf7,SCR,2024-06-11_10h10.53.969,LearnStrategy,2023.2.3,MacIntel,59.88023952,5,1,7,-0.367395833,0.069470486,1,0,0,1.3818,Pumice_06,8,06,4,2,1.382,8,06,0.088268229,-0.232751736,1,0,0,0.7434,Diorite_rect,3,0.743,0,6,0,6,0,1,,,,,,,,,,,,,
660e5c7217be250eda064cf7,SCR,2024-06-11_10h10.53.969,LearnStrategy,2023.2.3,MacIntel,59.88023952,5,1,8,0.524748264,-0.117291667,1,0,0,0.9822,Pumice_03,8,03,3,8,0.982,8,03,0.165277778,-0.406675347,1,0,0,1.8929,Peridotite_rect,7,1.893,0,7,0,7,0,1,,,,,,,,,,,,,
660e5c7217be250eda064cf7,SCR,2024-06-11_10h10.53.969,LearnStrategy,2023.2.3,MacIntel,59.88023952,5,1,9,0.199240451,-0.073268229,1,0,0,0.9987,Pegmatite_10,6,10,3,6,0.999,6,10,-0.132417535,-0.248823785,1,0,0,0.6743,Basalt_rect,2,0.674,0,8,0,8,0,1,,,,,,,,,,,,,
660e5c7217be250eda064cf7,SCR,2024-06-11_10h10.53.969,LearnStrategy,2023.2.3,MacIntel,59.88023952,5,1,10,0.545264757,0.241493056,1,0,0,1.8465,Gabbro_15,4,15,5,8,1.847,4,15,0.094435764,-0.401914063,1,0,0,1.7094,Peridotite_rect,7,1.709,0,9,0,9,0,1,,,,,,,,,,,,,
660e5c7217be250eda064cf7,SCR,2024-06-11_10h10.53.969,LearnStrategy,2023.2.3,MacIntel,59.88023952,5,1,11,0.196575521,0.068090278,1,0,0,0.8486,Diorite_14,3,14,4,6,0.849,3,14,0.376944444,-0.420759549,1,0,0,1.0588,Pumice_rect,8,1.059,0,10,0,10,0,1,,,,,,,,,,,,,
660e5c7217be250eda064cf7,SCR,2024-06-11_10h10.53.969,LearnStrategy,2023.2.3,MacIntel,59.88023952,5,1,12,0.02749566,-0.057074653,1,0,0,0.732,Andesite_07,1,07,3,5,0.732,1,07,-0.133116319,-0.248858507,1,0,0,0.7101,Basalt_rect,2,0.71,0,11,0,11,0,1,,,,,,,,,,,,,
660e5c7217be250eda064cf7,SCR,2024-06-11_10h10.53.969,LearnStrategy,2023.2.3,MacIntel,59.88023952,5,1,13,0.411388889,-0.44109375,1,0,0,0.9988,Andesite_09,1,09,1,7,0.999,1,09,0.096336806,-0.246371528,1,0,1,1.4417,Diorite_rect,3,1.442,0,12,0,12,0,1,,,,,,,,,,,,,
660e5c7217be250eda064cf7,SCR,2024-06-11_10h10.53.969,LearnStrategy,2023.2.3,MacIntel,59.88023952,5,1,14,0.550742188,0.083697917,1,0,1,1.0164,Basalt_08,2,08,4,8,1.016,2,08,-0.406315104,-0.388962674,1,0,1,1.4916,Obsidian_rect,5,1.492,0,13,0,13,0,1,,,,,,,,,,,,,
660e5c7217be250eda064cf7,SCR,2024-06-11_10h10.53.969,LearnStrategy,2023.2.3,MacIntel,59.88023952,5,1,15,-0.567886285,0.117947049,1,0,1,1.1993,Diorite_06,3,06,4,1,1.199,3,06,-0.079292535,-0.253832465,1,0,1,1.1269,Basalt_rect,2,1.127,0,14,0,14,0,1,,,,,,,,,,,,,
660e5c7217be250eda064cf7,SCR,2024-06-11_10h10.53.969,LearnStrategy,2023.2.3,MacIntel,59.88023952,5,1,16,0.102543403,-0.292782118,1,0,0,1.1309,Gabbro_12,4,12,2,5,1.131,4,12,0.368046875,-0.404713542,1,0,0,1.3279,Pumice_rect,8,1.328,0,15,0,15,0,1,,,,,,,,,,,,,
660e5c7217be250eda064cf7,SCR,2024-06-11_10h10.53.969,LearnStrategy,2023.2.3,MacIntel,59.88023952,5,2,1,,,,,,,,8,15,,,,,,,,,,,,,2,0.908,0,,,,,,-0.119960938,-0.230911458,1,0,0,0.9077,Basalt_rect,0,0,0,0,1,
660e5c7217be250eda064cf7,SCR,2024-06-11_10h10.53.969,LearnStrategy,2023.2.3,MacIntel,59.88023952,5,2,2,,,,,,,,7,10,,,,,,,,,,,,,3,0.376,0,,,,,,0.105889757,-0.259092882,1,0,0,0.3762,Diorite_rect,1,0,1,0,1,
660e5c7217be250eda064cf7,SCR,2024-06-11_10h10.53.969,LearnStrategy,2023.2.3,MacIntel,59.88023952,5,2,3,,,,,,,,4,13,,,,,,,,,,,,,8,0.744,0,,,,,,0.339565972,-0.406432292,1,0,0,0.7444,Pumice_rect,2,0,2,0,1,
660e5c7217be250eda064cf7,SCR,2024-06-11_10h10.53.969,LearnStrategy,2023.2.3,MacIntel,59.88023952,5,2,4,,,,,,,,2,14,,,,,,,,,,,,,7,0.378,0,,,,,,0.139678819,-0.405451389,1,0,0,0.3776,Peridotite_rect,3,0,3,0,1,
660e5c7217be250eda064cf7,SCR,2024-06-11_10h10.53.969,LearnStrategy,2023.2.3,MacIntel,59.88023952,5,2,5,,,,,,,,1,11,,,,,,,,,,,,,6,0.111,0,,,,,,-0.073554687,-0.410768229,1,0,0,0.111,Pegmatite_rect,4,0,4,0,1,
660e5c7217be250eda064cf7,SCR,2024-06-11_10h10.53.969,LearnStrategy,2023.2.3,MacIntel,59.88023952,5,2,6,,,,,,,,4,03,,,,,,,,,,,,,2,0.208,0,,,,,,-0.155177951,-0.235759549,1,0,0,0.2084,Basalt_rect,5,0,5,0,1,
660e5c7217be250eda064cf7,SCR,2024-06-11_10h10.53.969,LearnStrategy,2023.2.3,MacIntel,59.88023952,5,2,7,,,,,,,,3,12,,,,,,,,,,,,,3,0.493,1,,,,,,0.107374132,-0.254921875,1,0,0,0.4934,Diorite_rect,6,0,6,0,1,
660e5c7217be250eda064cf7,SCR,2024-06-11_10h10.53.969,LearnStrategy,2023.2.3,MacIntel,59.88023952,5,2,8,,,,,,,,6,05,,,,,,,,,,,,,4,0.324,0,,,,,,0.398012153,-0.259153646,1,0,0,0.3241,Gabbro_rect,7,0,7,0,1,
660e5c7217be250eda064cf7,SCR,2024-06-11_10h10.53.969,LearnStrategy,2023.2.3,MacIntel,59.88023952,5,2,9,,,,,,,,8,13,,,,,,,,,,,,,6,1.941,0,,,,,,-0.192599826,-0.387491319,1,0,0,1.9409,Pegmatite_rect,8,0,8,0,1,
660e5c7217be250eda064cf7,SCR,2024-06-11_10h10.53.969,LearnStrategy,2023.2.3,MacIntel,59.88023952,5,2,10,,,,,,,,1,01,,,,,,,,,,,,,1,0.174,1,,,,,,-0.330364583,-0.252447917,1,0,0,0.1745,Andesite_rect,9,0,9,0,1,
660e5c7217be250eda064cf7,SCR,2024-06-11_10h10.53.969,LearnStrategy,2023.2.3,MacIntel,59.88023952,5,2,11,,,,,,,,3,10,,,,,,,,,,,,,2,0.276,0,,,,,,-0.195104167,-0.256909722,1,0,0,0.2762,Basalt_rect,10,0,10,0,1,
660e5c7217be250eda064cf7,SCR,2024-06-11_10h10.53.969,LearnStrategy,2023.2.3,MacIntel,59.88023952,5,2,12,,,,,,,,6,08,,,,,,,,,,,,,1,0.125,0,,,,,,-0.348394097,-0.259227431,1,0,0,0.1246,Andesite_rect,11,0,11,0,1,
660e5c7217be250eda064cf7,SCR,2024-06-11_10h10.53.969,LearnStrategy,2023.2.3,MacIntel,59.88023952,5,2,13,,,,,,,,7,16,,,,,,,,,,,,,2,0.127,0,,,,,,-0.227044271,-0.253971354,1,0,0,0.1271,Basalt_rect,12,0,12,0,1,
660e5c7217be250eda064cf7,SCR,2024-06-11_10h10.53.969,LearnStrategy,2023.2.3,MacIntel,59.88023952,5,2,14,,,,,,,,2,11,,,,,,,,,,,,,1,0.126,0,,,,,,-0.348472222,-0.270611979,1,0,0,0.1259,Andesite_rect,13,0,13,0,1,
660e5c7217be250eda064cf7,SCR,2024-06-11_10h10.53.969,LearnStrategy,2023.2.3,MacIntel,59.88023952,5,2,15,,,,,,,,5,16,,,,,,,,,,,,,2,0.428,0,,,,,,-0.137161458,-0.254496528,1,0,0,0.4277,Basalt_rect,14,0,14,0,1,
660e5c7217be250eda064cf7,SCR,2024-06-11_10h10.53.969,LearnStrategy,2023.2.3,MacIntel,59.88023952,5,2,16,,,,,,,,5,06,,,,,,,,,,,,,3,0.691,0,,,,,,0.079865451,-0.250577257,1,0,0,0.6906,Diorite_rect,15,0,15,0,1,
660e5c7217be250eda064cf7,SCR,2024-06-11_10h10.53.969,LearnStrategy,2023.2.3,MacIntel,59.88023952,6,1,1,-0.220525174,-0.391605903,1,0,0,1.1333,Pegmatite_03,6,03,1,3,1.133,6,03,-0.139040799,-0.241176215,1,0,0,1.489,Basalt_rect,2,1.489,0,0,0,0,0,1,,,,,,,,,,,,,
660e5c7217be250eda064cf7,SCR,2024-06-11_10h10.53.969,LearnStrategy,2023.2.3,MacIntel,59.88023952,6,1,2,0.367599826,-0.393242188,1,0,0,1.6808,Andesite_09,1,09,1,7,1.681,1,09,0.189622396,-0.253181424,1,0,0,0.6095,Diorite_rect,3,0.61,0,1,0,1,0,1,,,,,,,,,,,,,
660e5c7217be250eda064cf7,SCR,2024-06-11_10h10.53.969,LearnStrategy,2023.2.3,MacIntel,59.88023952,6,1,3,-0.107000868,0.448723958,1,0,0,1.28,Andesite_06,1,06,6,4,1.28,1,06,-0.388307292,-0.388832465,1,0,0,1.3242,Obsidian_rect,5,1.324,0,2,0,2,0,1,,,,,,,,,,,,,
660e5c7217be250eda064cf7,SCR,2024-06-11_10h10.53.969,LearnStrategy,2023.2.3,MacIntel,59.88023952,6,1,4,-0.41078125,-0.414665799,1,0,0,1.1817,Obsidian_09,5,09,1,2,1.182,5,09,0.129123264,-0.391137153,1,0,0,2.1089,Peridotite_rect,7,2.109,0,3,0,3,0,1,,,,,,,,,,,,,
660e5c7217be250eda064cf7,SCR,2024-06-11_10h10.53.969,LearnStrategy,2023.2.3,MacIntel,59.88023952,6,1,5,-0.554835069,-0.376536458,1,0,0,1.1147,Pegmatite_16,6,16,1,1,1.115,6,16,0.421124132,-0.247860243,1,0,0,1.6425,Gabbro_rect,4,1.642,0,4,0,4,0,1,,,,,,,,,,,,,
660e5c7217be250eda064cf7,SCR,2024-06-11_10h10.53.969,LearnStrategy,2023.2.3,MacIntel,59.88023952,6,1,6,0.388975694,0.390486111,1,0,0,2.3802,Obsidian_08,5,08,6,7,2.38,5,08,-0.198641493,-0.414049479,1,0,0,0.8414,Pegmatite_rect,6,0.841,0,5,0,5,0,1,,,,,,,,,,,,,
660e5c7217be250eda064cf7,SCR,2024-06-11_10h10.53.969,LearnStrategy,2023.2.3,MacIntel,59.88023952,6,1,7,-0.242447917,-0.107469618,1,0,0,0.8649,Gabbro_16,4,16,3,3,0.865,4,16,0.094401042,-0.407743056,1,0,0,0.7766,Peridotite_rect,7,0.777,0,6,0,6,0,1,,,,,,,,,,,,,
660e5c7217be250eda064cf7,SCR,2024-06-11_10h10.53.969,LearnStrategy,2023.2.3,MacIntel,59.88023952,6,1,8,0.207378472,0.229140625,1,0,0,0.9985,Peridotite_14,7,14,5,6,0.998,7,14,0.377617188,-0.414761285,1,0,0,1.5263,Pumice_rect,8,1.526,0,7,0,7,0,1,,,,,,,,,,,,,
660e5c7217be250eda064cf7,SCR,2024-06-11_10h10.53.969,LearnStrategy,2023.2.3,MacIntel,59.88023952,6,1,9,0.58718316,-0.430273438,1,0,0,1.732,Pumice_14,8,14,1,8,1.732,8,14,-0.361671007,-0.239652778,1,0,0,1.0902,Andesite_rect,1,1.09,0,8,0,8,0,1,,,,,,,,,,,,,
660e5c7217be250eda064cf7,SCR,2024-06-11_10h10.53.969,LearnStrategy,2023.2.3,MacIntel,59.88023952,6,1,10,-0.396866319,0.218012153,1,0,0,1.2825,Peridotite_12,7,12,5,2,1.283,7,12,-0.360104167,-0.406449653,1,0,0,1.5423,Obsidian_rect,5,1.542,0,9,0,9,0,1,,,,,,,,,,,,,
660e5c7217be250eda064cf7,SCR,2024-06-11_10h10.53.969,LearnStrategy,2023.2.3,MacIntel,59.88023952,6,1,11,0.352643229,0.113953993,1,0,0,1.4818,Basalt_06,2,06,4,7,1.482,2,06,0.388780382,-0.268003472,1,0,0,1.1412,Gabbro_rect,4,1.141,0,10,0,10,0,1,,,,,,,,,,,,,
660e5c7217be250eda064cf7,SCR,2024-06-11_10h10.53.969,LearnStrategy,2023.2.3,MacIntel,59.88023952,6,1,12,-0.126223958,-0.070008681,1,0,0,0.5819,Pumice_08,8,08,3,4,0.582,8,14,0.424891493,-0.402934028,1,0,0,1.5096,Pumice_rect,8,1.51,1,11,0,11,0,1,,,,,,,,,,,,,
660e5c7217be250eda064cf7,SCR,2024-06-11_10h10.53.969,LearnStrategy,2023.2.3,MacIntel,59.88023952,6,1,13,0.392986111,-0.066983507,1,0,0,1.1147,Gabbro_10,4,10,3,7,1.115,4,10,0.110828993,-0.237074653,1,0,0,0.6931,Diorite_rect,3,0.693,0,12,0,12,0,1,,,,,,,,,,,,,
660e5c7217be250eda064cf7,SCR,2024-06-11_10h10.53.969,LearnStrategy,2023.2.3,MacIntel,59.88023952,6,1,14,0.241953125,0.090585938,1,0,0,1.0476,Diorite_14,3,14,4,6,1.048,3,14,0.375668403,-0.232795139,1,0,0,4.4935,Gabbro_rect,4,4.494,0,13,0,13,0,1,,,,,,,,,,,,,
660e5c7217be250eda064cf7,SCR,2024-06-11_10h10.53.969,LearnStrategy,2023.2.3,MacIntel,59.88023952,6,1,15,0.572764757,0.097851563,1,0,0,0.9646,Basalt_08,2,08,4,8,0.965,2,08,0.115976563,-0.389743924,1,0,0,1.2074,Peridotite_rect,7,1.207,0,14,0,14,0,1,,,,,,,,,,,,,
660e5c7217be250eda064cf7,SCR,2024-06-11_10h10.53.969,LearnStrategy,2023.2.3,MacIntel,59.88023952,6,1,16,-0.217157118,-0.237508681,1,0,0,2.8368,Diorite_11,3,11,2,3,2.837,3,11,-0.052921007,-0.238185764,1,0,0,17.9425,Basalt_rect,2,17.942,0,15,0,15,0,1,,,,,,,,,,,,,
660e5c7217be250eda064cf7,SCR,2024-06-11_10h10.53.969,LearnStrategy,2023.2.3,MacIntel,59.88023952,6,2,1,,,,,,,,3,02,,,,,,,,,,,,,4,3.624,0,,,,,,0.408207465,-0.250212674,1,0,0,3.6243,Gabbro_rect,0,0,0,0,1,
660e5c7217be250eda064cf7,SCR,2024-06-11_10h10.53.969,LearnStrategy,2023.2.3,MacIntel,59.88023952,6,2,2,,,,,,,,5,05,,,,,,,,,,,,,3,0.749,0,,,,,,0.198680556,-0.246835937,1,0,0,0.7495,Diorite_rect,1,0,1,0,1,
660e5c7217be250eda064cf7,SCR,2024-06-11_10h10.53.969,LearnStrategy,2023.2.3,MacIntel,59.88023952,6,2,3,,,,,,,,6,06,,,,,,,,,,,,,6,12.192,1,,,,,,-0.069023438,-0.380434028,1,0,0,12.1917,Pegmatite_rect,2,0,2,0,1,
660e5c7217be250eda064cf7,SCR,2024-06-11_10h10.53.969,LearnStrategy,2023.2.3,MacIntel,59.88023952,6,2,4,,,,,,,,8,16,,,,,,,,,,,,,3,3.635,0,,,,,,0.064574653,-0.237842882,1,0,0,3.6348,Diorite_rect,3,0,3,0,1,
660e5c7217be250eda064cf7,SCR,2024-06-11_10h10.53.969,LearnStrategy,2023.2.3,MacIntel,59.88023952,6,2,5,,,,,,,,4,05,,,,,,,,,,,,,2,6.483,0,,,,,,-0.157213542,-0.242395833,1,0,0,6.4827,Basalt_rect,4,0,4,0,1,
660e5c7217be250eda064cf7,SCR,2024-06-11_10h10.53.969,LearnStrategy,2023.2.3,MacIntel,59.88023952,6,2,6,,,,,,,,7,15,,,,,,,,,,,,,4,3.43,0,,,,,,0.336796875,-0.237769097,1,0,0,3.4304,Gabbro_rect,5,0,5,0,1,
660e5c7217be250eda064cf7,SCR,2024-06-11_10h10.53.969,LearnStrategy,2023.2.3,MacIntel,59.88023952,6,2,7,,,,,,,,5,04,,,,,,,,,,,,,3,0.717,0,,,,,,0.124613715,-0.260963542,1,0,0,0.7169,Diorite_rect,6,0,6,0,1,
660e5c7217be250eda064cf7,SCR,2024-06-11_10h10.53.969,LearnStrategy,2023.2.3,MacIntel,59.88023952,6,2,8,,,,,,,,7,13,,,,,,,,,,,,,6,1.145,0,,,,,,-0.062534722,-0.380130208,1,0,0,1.1447,Pegmatite_rect,7,0,7,0,1,
660e5c7217be250eda064cf7,SCR,2024-06-11_10h10.53.969,LearnStrategy,2023.2.3,MacIntel,59.88023952,6,2,9,,,,,,,,6,09,,,,,,,,,,,,,7,1.058,0,,,,,,0.131814236,-0.405737847,1,0,0,1.0578,Peridotite_rect,8,0,8,0,1,
660e5c7217be250eda064cf7,SCR,2024-06-11_10h10.53.969,LearnStrategy,2023.2.3,MacIntel,59.88023952,6,2,10,,,,,,,,3,09,,,,,,,,,,,,,2,0.592,0,,,,,,-0.149583333,-0.232122396,1,0,0,0.5916,Basalt_rect,9,0,9,0,1,
660e5c7217be250eda064cf7,SCR,2024-06-11_10h10.53.969,LearnStrategy,2023.2.3,MacIntel,59.88023952,6,2,11,,,,,,,,4,09,,,,,,,,,,,,,1,3.725,0,,,,,,-0.426857639,-0.24375434,1,0,0,3.7254,Andesite_rect,10,0,10,0,1,
660e5c7217be250eda064cf7,SCR,2024-06-11_10h10.53.969,LearnStrategy,2023.2.3,MacIntel,59.88023952,6,2,12,,,,,,,,2,04,,,,,,,,,,,,,4,2.199,0,,,,,,0.413680556,-0.234644097,1,0,0,2.1993,Gabbro_rect,11,0,11,0,1,
660e5c7217be250eda064cf7,SCR,2024-06-11_10h10.53.969,LearnStrategy,2023.2.3,MacIntel,59.88023952,6,2,13,,,,,,,,8,10,,,,,,,,,,,,,7,0.992,0,,,,,,0.212886285,-0.398185764,1,0,0,0.9917,Peridotite_rect,12,0,12,0,1,
660e5c7217be250eda064cf7,SCR,2024-06-11_10h10.53.969,LearnStrategy,2023.2.3,MacIntel,59.88023952,6,2,14,,,,,,,,2,10,,,,,,,,,,,,,8,1.841,0,,,,,,0.381883681,-0.404262153,1,0,0,1.8412,Pumice_rect,13,0,13,0,1,
660e5c7217be250eda064cf7,SCR,2024-06-11_10h10.53.969,LearnStrategy,2023.2.3,MacIntel,59.88023952,6,2,15,,,,,,,,1,16,,,,,,,,,,,,,6,41.392,0,,,,,,-0.067387153,-0.391653646,1,0,0,41.3917,Pegmatite_rect,14,0,14,0,1,
660e5c7217be250eda064cf7,SCR,2024-06-11_10h10.53.969,LearnStrategy,2023.2.3,MacIntel,59.88023952,6,2,16,,,,,,,,1,02,,,,,,,,,,,,,2,8.285,0,,,,,,-0.113719618,-0.259700521,1,0,0,8.2848,Basalt_rect,15,0,15,0,1,
660e5c7217be250eda064cf7,SCR,2024-06-11_10h10.53.969,LearnStrategy,2023.2.3,MacIntel,59.88023952,7,1,1,0.082803819,0.089288194,1,0,0,11.5869,Basalt_16,2,16,4,5,11.587,2,16,-0.141493056,-0.404635417,1,0,0,2.1173,Pegmatite_rect,6,2.117,0,0,0,0,0,1,,,,,,,,,,,,,
660e5c7217be250eda064cf7,SCR,2024-06-11_10h10.53.969,LearnStrategy,2023.2.3,MacIntel,59.88023952,7,1,2,0.108919271,-0.383216146,1,0,0,0.9318,Gabbro_11,4,11,1,5,0.932,4,11,0.396323785,-0.420251736,1,0,0,1.2766,Pumice_rect,8,1.277,0,1,0,1,0,1,,,,,,,,,,,,,
660e5c7217be250eda064cf7,SCR,2024-06-11_10h10.53.969,LearnStrategy,2023.2.3,MacIntel,59.88023952,7,1,3,-0.527877604,0.442855903,1,0,0,3.3709,Peridotite_04,7,04,6,1,3.371,7,04,-0.086770833,-0.410651042,1,0,0,4.5653,Pegmatite_rect,6,4.565,0,2,0,2,0,1,,,,,,,,,,,,,
660e5c7217be250eda064cf7,SCR,2024-06-11_10h10.53.969,LearnStrategy,2023.2.3,MacIntel,59.88023952,7,1,4,0.223133681,0.124205729,1,0,0,0.8158,Diorite_14,3,14,4,6,0.816,3,14,0.117751736,-0.240581597,1,0,0,0.9411,Diorite_rect,3,0.941,1,3,0,3,0,1,,,,,,,,,,,,,
660e5c7217be250eda064cf7,SCR,2024-06-11_10h10.53.969,LearnStrategy,2023.2.3,MacIntel,59.88023952,7,1,5,-0.228680556,0.249227431,1,0,0,1.0377,Obsidian_11,5,11,5,3,1.038,5,11,0.370907118,-0.396323785,1,0,0,1.3932,Pumice_rect,8,1.393,0,4,0,4,0,1,,,,,,,,,,,,,
660e5c7217be250eda064cf7,SCR,2024-06-11_10h10.53.969,LearnStrategy,2023.2.3,MacIntel,59.88023952,7,1,6,-0.524878472,-0.402955729,1,0,0,1.3364,Pegmatite_16,6,16,1,1,1.336,6,16,-0.065920139,-0.4034375,1,0,0,1.759,Pegmatite_rect,6,1.759,1,5,0,5,0,1,,,,,,,,,,,,,
660e5c7217be250eda064cf7,SCR,2024-06-11_10h10.53.969,LearnStrategy,2023.2.3,MacIntel,59.88023952,7,1,7,0.445876736,0.247864583,1,0,0,1.1316,Gabbro_08,4,08,5,7,1.132,4,08,0.17859375,-0.262378472,1,0,0,1.8771,Diorite_rect,3,1.877,0,6,0,6,0,1,,,,,,,,,,,,,
660e5c7217be250eda064cf7,SCR,2024-06-11_10h10.53.969,LearnStrategy,2023.2.3,MacIntel,59.88023952,7,1,8,0.212630208,-0.281119792,1,0,0,1.8642,Peridotite_08,7,08,2,6,1.864,7,08,0.386610243,-0.391050347,1,0,0,1.7077,Pumice_rect,8,1.708,0,7,0,7,0,1,,,,,,,,,,,,,
660e5c7217be250eda064cf7,SCR,2024-06-11_10h10.53.969,LearnStrategy,2023.2.3,MacIntel,59.88023952,7,1,9,0.343958333,0.078094618,1,0,0,1.9144,Basalt_06,2,06,4,7,1.914,2,06,-0.094118924,-0.269960937,1,0,0,1.8421,Basalt_rect,2,1.842,1,8,0,8,0,1,,,,,,,,,,,,,
660e5c7217be250eda064cf7,SCR,2024-06-11_10h10.53.969,LearnStrategy,2023.2.3,MacIntel,59.88023952,7,1,10,0.207556424,-0.108003472,1,0,0,1.3321,Pegmatite_10,6,10,3,6,1.332,6,10,-0.337534722,-0.241848958,1,0,0,3.8414,Andesite_rect,1,3.841,0,9,0,9,0,1,,,,,,,,,,,,,
660e5c7217be250eda064cf7,SCR,2024-06-11_10h10.53.969,LearnStrategy,2023.2.3,MacIntel,59.88023952,7,1,11,0.251050347,-0.444361979,1,0,0,1.6803,Diorite_16,3,16,1,6,1.68,3,16,0.373229167,-0.239049479,1,0,0,5.1943,Gabbro_rect,4,5.194,0,10,0,10,0,1,,,,,,,,,,,,,
660e5c7217be250eda064cf7,SCR,2024-06-11_10h10.53.969,LearnStrategy,2023.2.3,MacIntel,59.88023952,7,1,12,0.593381076,-0.387764757,1,0,0,1.449,Pumice_14,8,14,1,8,1.449,8,14,-0.123927951,-0.415724826,1,0,0,1.3421,Pegmatite_rect,6,1.342,0,11,0,11,0,1,,,,,,,,,,,,,
660e5c7217be250eda064cf7,SCR,2024-06-11_10h10.53.969,LearnStrategy,2023.2.3,MacIntel,59.88023952,7,1,13,0.025846354,-0.050733507,1,0,0,2.6473,Andesite_07,1,07,3,5,2.647,1,07,-0.363923611,-0.391922743,1,0,0,19.4088,Obsidian_rect,5,19.409,0,12,0,12,0,1,,,,,,,,,,,,,
660e5c7217be250eda064cf7,SCR,2024-06-11_10h10.53.969,LearnStrategy,2023.2.3,MacIntel,59.88023952,7,1,14,0.1015625,0.268858507,1,0,0,2.1867,Andesite_10,1,10,5,5,2.187,1,10,-0.229887153,-0.246592882,1,0,0,9.9264,Basalt_rect,2,9.926,0,13,0,13,0,1,,,,,,,,,,,,,
660e5c7217be250eda064cf7,SCR,2024-06-11_10h10.53.969,LearnStrategy,2023.2.3,MacIntel,59.88023952,7,1,15,0.583919271,-0.383350694,1,0,0,1.149,Pumice_14,8,14,1,8,1.149,8,14,0.176510417,-0.402087674,1,0,0,2.9585,Peridotite_rect,7,2.958,0,14,0,14,0,1,,,,,,,,,,,,,
660e5c7217be250eda064cf7,SCR,2024-06-11_10h10.53.969,LearnStrategy,2023.2.3,MacIntel,59.88023952,7,1,16,0.578216146,-0.269262153,1,0,0,7.7155,Obsidian_02,5,02,2,8,7.716,5,02,-0.090980903,-0.262747396,1,0,0,2.4482,Basalt_rect,2,2.448,0,15,0,15,0,1,,,,,,,,,,,,,
660e5c7217be250eda064cf7,SCR,2024-06-11_10h10.53.969,LearnStrategy,2023.2.3,MacIntel,59.88023952,7,2,1,,,,,,,,5,07,,,,,,,,,,,,,3,0.674,0,,,,,,0.177482639,-0.264435764,1,0,0,0.6739,Diorite_rect,0,0,0,0,1,
660e5c7217be250eda064cf7,SCR,2024-06-11_10h10.53.969,LearnStrategy,2023.2.3,MacIntel,59.88023952,7,2,2,,,,,,,,2,05,,,,,,,,,,,,,3,0.825,0,,,,,,0.07828559,-0.230251736,1,0,0,0.8249,Diorite_rect,1,0,1,0,1,
660e5c7217be250eda064cf7,SCR,2024-06-11_10h10.53.969,LearnStrategy,2023.2.3,MacIntel,59.88023952,7,2,3,,,,,,,,3,15,,,,,,,,,,,,,6,1.076,0,,,,,,-0.10875,-0.38453125,1,0,0,1.0757,Pegmatite_rect,2,0,2,0,1,
660e5c7217be250eda064cf7,SCR,2024-06-11_10h10.53.969,LearnStrategy,2023.2.3,MacIntel,59.88023952,7,2,4,,,,,,,,2,12,,,,,,,,,,,,,7,1.109,0,,,,,,0.113962674,-0.387981771,1,0,0,1.109,Peridotite_rect,3,0,3,0,1,
660e5c7217be250eda064cf7,SCR,2024-06-11_10h10.53.969,LearnStrategy,2023.2.3,MacIntel,59.88023952,7,2,5,,,,,,,,1,05,,,,,,,,,,,,,1,2.674,1,,,,,,-0.358246528,-0.249457465,1,0,0,2.6745,Andesite_rect,4,0,4,0,1,
660e5c7217be250eda064cf7,SCR,2024-06-11_10h10.53.969,LearnStrategy,2023.2.3,MacIntel,59.88023952,7,2,6,,,,,,,,8,13,,,,,,,,,,,,,2,4.157,0,,,,,,-0.197526042,-0.232139757,1,0,0,4.1567,Basalt_rect,5,0,5,0,1,
660e5c7217be250eda064cf7,SCR,2024-06-11_10h10.53.969,LearnStrategy,2023.2.3,MacIntel,59.88023952,7,2,7,,,,,,,,5,04,,,,,,,,,,,,,3,0.851,0,,,,,,0.071115451,-0.242161458,1,0,0,0.8505,Diorite_rect,6,0,6,0,1,
660e5c7217be250eda064cf7,SCR,2024-06-11_10h10.53.969,LearnStrategy,2023.2.3,MacIntel,59.88023952,7,2,8,,,,,,,,1,02,,,,,,,,,,,,,4,1.51,0,,,,,,0.387304688,-0.235360243,1,0,0,1.5098,Gabbro_rect,7,0,7,0,1,
660e5c7217be250eda064cf7,SCR,2024-06-11_10h10.53.969,LearnStrategy,2023.2.3,MacIntel,59.88023952,7,2,9,,,,,,,,7,15,,,,,,,,,,,,,6,0.724,0,,,,,,-0.139908854,-0.399709201,1,0,0,0.7244,Pegmatite_rect,8,0,8,0,1,
660e5c7217be250eda064cf7,SCR,2024-06-11_10h10.53.969,LearnStrategy,2023.2.3,MacIntel,59.88023952,7,2,10,,,,,,,,4,13,,,,,,,,,,,,,7,0.807,0,,,,,,0.161050347,-0.386740451,1,0,0,0.8072,Peridotite_rect,9,0,9,0,1,
660e5c7217be250eda064cf7,SCR,2024-06-11_10h10.53.969,LearnStrategy,2023.2.3,MacIntel,59.88023952,7,2,11,,,,,,,,7,05,,,,,,,,,,,,,8,0.324,0,,,,,,0.391193576,-0.385551215,1,0,0,0.3245,Pumice_rect,10,0,10,0,1,
660e5c7217be250eda064cf7,SCR,2024-06-11_10h10.53.969,LearnStrategy,2023.2.3,MacIntel,59.88023952,7,2,12,,,,,,,,8,15,,,,,,,,,,,,,2,0.508,0,,,,,,-0.134561632,-0.234635417,1,0,0,0.5083,Basalt_rect,11,0,11,0,1,
660e5c7217be250eda064cf7,SCR,2024-06-11_10h10.53.969,LearnStrategy,2023.2.3,MacIntel,59.88023952,7,2,13,,,,,,,,4,05,,,,,,,,,,,,,1,0.275,0,,,,,,-0.317413194,-0.249275174,1,0,0,0.275,Andesite_rect,12,0,12,0,1,
660e5c7217be250eda064cf7,SCR,2024-06-11_10h10.53.969,LearnStrategy,2023.2.3,MacIntel,59.88023952,7,2,14,,,,,,,,6,06,,,,,,,,,,,,,3,0.241,0,,,,,,0.082539062,-0.256853299,1,0,0,0.2406,Diorite_rect,13,0,13,0,1,
660e5c7217be250eda064cf7,SCR,2024-06-11_10h10.53.969,LearnStrategy,2023.2.3,MacIntel,59.88023952,7,2,15,,,,,,,,6,13,,,,,,,,,,,,,4,0.241,0,,,,,,0.389552951,-0.233172743,1,0,0,0.2412,Gabbro_rect,14,0,14,0,1,
660e5c7217be250eda064cf7,SCR,2024-06-11_10h10.53.969,LearnStrategy,2023.2.3,MacIntel,59.88023952,7,2,16,,,,,,,,3,10,,,,,,,,,,,,,6,1.157,0,,,,,,-0.14749566,-0.398320312,1,0,0,1.1574,Pegmatite_rect,15,0,15,0,1,
660e5c7217be250eda064cf7,SCR,2024-06-11_10h10.53.969,LearnStrategy,2023.2.3,MacIntel,59.88023952,8,1,1,-0.258884549,-0.058528646,1,0,0,1.3486,Gabbro_16,4,16,3,3,1.349,4,16,-0.187122396,-0.248033854,1,0,0,1.1924,Basalt_rect,2,1.192,0,0,0,0,0,1,,,,,,,,,,,,,
660e5c7217be250eda064cf7,SCR,2024-06-11_10h10.53.969,LearnStrategy,2023.2.3,MacIntel,59.88023952,8,1,2,-0.266041667,0.397786458,1,0,0,2.197,Basalt_02,2,02,6,3,2.197,2,02,-0.1559375,-0.246371528,1,0,0,1.7752,Basalt_rect,2,1.775,1,1,0,1,0,1,,,,,,,,,,,,,
660e5c7217be250eda064cf7,SCR,2024-06-11_10h10.53.969,LearnStrategy,2023.2.3,MacIntel,59.88023952,8,1,3,0.57828559,-0.103823785,1,0,0,1.9881,Pumice_03,8,03,3,8,1.988,8,03,0.176011285,-0.257638889,1,0,0,0.9588,Diorite_rect,3,0.959,0,2,0,2,0,1,,,,,,,,,,,,,
660e5c7217be250eda064cf7,SCR,2024-06-11_10h10.53.969,LearnStrategy,2023.2.3,MacIntel,59.88023952,8,1,4,0.255134549,0.0678125,1,0,0,2.1818,Diorite_14,3,14,4,6,2.182,3,14,-0.373680556,-0.386922743,1,0,0,9.3083,Obsidian_rect,5,9.308,0,3,0,3,0,1,,,,,,,,,,,,,
660e5c7217be250eda064cf7,SCR,2024-06-11_10h10.53.969,LearnStrategy,2023.2.3,MacIntel,59.88023952,8,1,5,0.362877604,-0.076679687,1,0,0,1.5157,Gabbro_10,4,10,3,7,1.516,4,10,-0.15812066,-0.388324653,1,0,0,33.6595,Pegmatite_rect,6,33.659,0,4,0,4,0,1,,,,,,,,,,,,,
660e5c7217be250eda064cf7,SCR,2024-06-11_10h10.53.969,LearnStrategy,2023.2.3,MacIntel,59.88023952,8,1,6,0.211640625,-0.109275174,1,0,0,1.0376,Pegmatite_10,6,10,3,6,1.038,6,10,0.149570312,-0.410182292,1,0,0,2.2082,Peridotite_rect,7,2.208,0,5,0,5,0,1,,,,,,,,,,,,,
660e5c7217be250eda064cf7,SCR,2024-06-11_10h10.53.969,LearnStrategy,2023.2.3,MacIntel,59.88023952,8,1,7,0.373828125,0.392712674,1,0,0,1.4981,Obsidian_08,5,08,6,7,1.498,5,08,-0.127860243,-0.390611979,1,0,0,2.5242,Pegmatite_rect,6,2.524,0,6,0,6,0,1,,,,,,,,,,,,,
660e5c7217be250eda064cf7,SCR,2024-06-11_10h10.53.969,LearnStrategy,2023.2.3,MacIntel,59.88023952,8,1,8,0.272886285,-0.2934375,1,0,0,1.0815,Peridotite_08,7,08,2,6,1.082,7,08,-0.0675,-0.243632812,1,0,0,4.6588,Basalt_rect,2,4.659,0,7,0,7,0,1,,,,,,,,,,,,,
660e5c7217be250eda064cf7,SCR,2024-06-11_10h10.53.969,LearnStrategy,2023.2.3,MacIntel,59.88023952,8,1,9,-0.080251736,-0.264344618,1,0,0,9.7478,Diorite_08,3,08,2,4,9.748,3,08,0.414518229,-0.23031684,1,0,0,1.4483,Gabbro_rect,4,1.448,0,8,0,8,0,1,,,,,,,,,,,,,
660e5c7217be250eda064cf7,SCR,2024-06-11_10h10.53.969,LearnStrategy,2023.2.3,MacIntel,59.88023952,8,1,10,0.090112847,0.432074653,1,0,0,1.6321,Basalt_09,2,09,6,5,1.632,2,09,-0.126419271,-0.400694444,1,0,0,1.5745,Pegmatite_rect,6,1.575,0,9,0,9,0,1,,,,,,,,,,,,,
660e5c7217be250eda064cf7,SCR,2024-06-11_10h10.53.969,LearnStrategy,2023.2.3,MacIntel,59.88023952,8,1,11,-0.04390191,0.403081597,1,0,0,1.1656,Andesite_06,1,06,6,4,1.166,1,06,0.407999132,-0.381488715,1,0,0,1.842,Pumice_rect,8,1.842,0,10,0,10,0,1,,,,,,,,,,,,,
660e5c7217be250eda064cf7,SCR,2024-06-11_10h10.53.969,LearnStrategy,2023.2.3,MacIntel,59.88023952,8,1,12,-0.556653646,0.414804687,1,0,0,1.9806,Peridotite_04,7,04,6,1,1.981,7,04,-0.366540799,-0.383580729,1,0,0,1.5103,Obsidian_rect,5,1.51,0,11,0,11,0,1,,,,,,,,,,,,,
660e5c7217be250eda064cf7,SCR,2024-06-11_10h10.53.969,LearnStrategy,2023.2.3,MacIntel,59.88023952,8,1,13,-0.088702257,-0.124327257,1,0,0,0.8326,Pumice_08,8,08,3,4,0.833,8,08,0.064348958,-0.247009549,1,0,0,1.1247,Diorite_rect,3,1.125,0,12,0,12,0,1,,,,,,,,,,,,,
660e5c7217be250eda064cf7,SCR,2024-06-11_10h10.53.969,LearnStrategy,2023.2.3,MacIntel,59.88023952,8,1,14,-0.188980035,0.246770833,1,0,0,1.7325,Obsidian_11,5,11,5,3,1.733,5,11,0.343428819,-0.239874132,1,0,0,1.59,Gabbro_rect,4,1.59,0,13,0,13,0,1,,,,,,,,,,,,,
660e5c7217be250eda064cf7,SCR,2024-06-11_10h10.53.969,LearnStrategy,2023.2.3,MacIntel,59.88023952,8,1,15,-0.236011285,0.075494792,1,0,0,0.7813,Pegmatite_15,6,15,4,3,0.781,6,15,-0.166102431,-0.396380208,1,0,0,1.4242,Pegmatite_rect,6,1.424,1,14,0,14,0,1,,,,,,,,,,,,,
660e5c7217be250eda064cf7,SCR,2024-06-11_10h10.53.969,LearnStrategy,2023.2.3,MacIntel,59.88023952,8,1,16,0.437608507,-0.449288194,1,0,0,1.6317,Andesite_09,1,09,1,7,1.632,1,09,0.440329861,-0.26906684,1,0,0,1.8742,Gabbro_rect,4,1.874,0,15,0,15,0,1,,,,,,,,,,,,,
660e5c7217be250eda064cf7,SCR,2024-06-11_10h10.53.969,LearnStrategy,2023.2.3,MacIntel,59.88023952,8,2,1,,,,,,,,8,04,,,,,,,,,,,,,6,0.877,0,,,,,,-0.137612847,-0.403042535,1,0,0,0.8772,Pegmatite_rect,0,0,0,0,1,
660e5c7217be250eda064cf7,SCR,2024-06-11_10h10.53.969,LearnStrategy,2023.2.3,MacIntel,59.88023952,8,2,2,,,,,,,,7,16,,,,,,,,,,,,,2,1.114,0,,,,,,-0.173975694,-0.249344618,1,0,0,1.1139,Basalt_rect,1,0,1,0,1,
660e5c7217be250eda064cf7,SCR,2024-06-11_10h10.53.969,LearnStrategy,2023.2.3,MacIntel,59.88023952,8,2,3,,,,,,,,1,16,,,,,,,,,,,,,3,1.09,0,,,,,,0.057000868,-0.258376736,1,0,0,1.0904,Diorite_rect,2,0,2,0,1,
660e5c7217be250eda064cf7,SCR,2024-06-11_10h10.53.969,LearnStrategy,2023.2.3,MacIntel,59.88023952,8,2,4,,,,,,,,4,14,,,,,,,,,,,,,4,0.874,1,,,,,,0.397018229,-0.264019097,1,0,0,0.8743,Gabbro_rect,3,0,3,0,1,
660e5c7217be250eda064cf7,SCR,2024-06-11_10h10.53.969,LearnStrategy,2023.2.3,MacIntel,59.88023952,8,2,5,,,,,,,,3,12,,,,,,,,,,,,,6,2.541,0,,,,,,-0.194366319,-0.410894097,1,0,0,2.5407,Pegmatite_rect,4,0,4,0,1,
660e5c7217be250eda064cf7,SCR,2024-06-11_10h10.53.969,LearnStrategy,2023.2.3,MacIntel,59.88023952,8,2,6,,,,,,,,8,10,,,,,,,,,,,,,1,2.474,0,,,,,,-0.371822917,-0.24984375,1,0,0,2.4736,Andesite_rect,5,0,5,0,1,
660e5c7217be250eda064cf7,SCR,2024-06-11_10h10.53.969,LearnStrategy,2023.2.3,MacIntel,59.88023952,8,2,7,,,,,,,,2,04,,,,,,,,,,,,,5,2.484,0,,,,,,-0.366866319,-0.398263889,1,0,0,2.4843,Obsidian_rect,6,0,6,0,1,
660e5c7217be250eda064cf7,SCR,2024-06-11_10h10.53.969,LearnStrategy,2023.2.3,MacIntel,59.88023952,8,2,8,,,,,,,,6,05,,,,,,,,,,,,,3,11.593,0,,,,,,0.214583333,-0.26015625,1,0,0,11.5928,Diorite_rect,7,0,7,0,1,
660e5c7217be250eda064cf7,SCR,2024-06-11_10h10.53.969,LearnStrategy,2023.2.3,MacIntel,59.88023952,8,2,9,,,,,,,,2,10,,,,,,,,,,,,,4,0.5,0,,,,,,0.390195313,-0.255486111,1,0,0,0.4997,Gabbro_rect,8,0,8,0,1,
660e5c7217be250eda064cf7,SCR,2024-06-11_10h10.53.969,LearnStrategy,2023.2.3,MacIntel,59.88023952,8,2,10,,,,,,,,7,13,,,,,,,,,,,,,2,5.925,0,,,,,,-0.215802951,-0.252252604,1,0,0,5.9249,Basalt_rect,9,0,9,0,1,
660e5c7217be250eda064cf7,SCR,2024-06-11_10h10.53.969,LearnStrategy,2023.2.3,MacIntel,59.88023952,8,2,11,,,,,,,,6,12,,,,,,,,,,,,,1,0.466,0,,,,,,-0.314991319,-0.24547309,1,0,0,0.4663,Andesite_rect,10,0,10,0,1,
660e5c7217be250eda064cf7,SCR,2024-06-11_10h10.53.969,LearnStrategy,2023.2.3,MacIntel,59.88023952,8,2,12,,,,,,,,5,16,,,,,,,,,,,,,7,7.127,0,,,,,,0.104943576,-0.405655382,1,0,0,7.127,Peridotite_rect,11,0,11,0,1,
660e5c7217be250eda064cf7,SCR,2024-06-11_10h10.53.969,LearnStrategy,2023.2.3,MacIntel,59.88023952,8,2,13,,,,,,,,5,06,,,,,,,,,,,,,2,3.417,0,,,,,,-0.110950521,-0.249140625,1,0,0,3.4167,Basalt_rect,12,0,12,0,1,
660e5c7217be250eda064cf7,SCR,2024-06-11_10h10.53.969,LearnStrategy,2023.2.3,MacIntel,59.88023952,8,2,14,,,,,,,,4,03,,,,,,,,,,,,,1,0.75,0,,,,,,-0.335607639,-0.251349826,1,0,0,0.7496,Andesite_rect,13,0,13,0,1,
660e5c7217be250eda064cf7,SCR,2024-06-11_10h10.53.969,LearnStrategy,2023.2.3,MacIntel,59.88023952,8,2,15,,,,,,,,3,09,,,,,,,,,,,,,7,0.558,0,,,,,,0.195225694,-0.390967882,1,0,0,0.5577,Peridotite_rect,14,0,14,0,1,
660e5c7217be250eda064cf7,SCR,2024-06-11_10h10.53.969,LearnStrategy,2023.2.3,MacIntel,59.88023952,8,2,16,,,,,,,,1,11,,,,,,,,,,,,,4,1.408,0,,,,,,0.301067708,-0.261080729,1,0,0,1.4079,Gabbro_rect,15,0,15,0,1,
660e5c7217be250eda064cf7,SCR,2024-06-11_10h10.53.969,LearnStrategy,2023.2.3,MacIntel,59.88023952,9,1,1,-0.041371528,-0.3965625,1,0,0,1.1988,Pumice_02,8,02,1,4,1.199,8,02,-0.077265625,-0.267916667,1,0,0,0.8577,Basalt_rect,2,0.858,0,0,0,0,0,1,,,,,,,,,,,,,
660e5c7217be250eda064cf7,SCR,2024-06-11_10h10.53.969,LearnStrategy,2023.2.3,MacIntel,59.88023952,9,1,2,0.279318576,-0.464618056,1,0,0,0.9352,Diorite_16,3,16,1,6,0.935,3,16,0.130585937,-0.254301215,1,0,0,1.2943,Diorite_rect,3,1.294,1,1,0,1,0,1,,,,,,,,,,,,,
660e5c7217be250eda064cf7,SCR,2024-06-11_10h10.53.969,LearnStrategy,2023.2.3,MacIntel,59.88023952,9,1,3,0.406788194,0.392751736,1,0,0,1.8816,Obsidian_08,5,08,6,7,1.882,5,08,0.344253472,-0.261032986,1,0,0,1.9077,Gabbro_rect,4,1.908,0,2,0,2,0,1,,,,,,,,,,,,,
660e5c7217be250eda064cf7,SCR,2024-06-11_10h10.53.969,LearnStrategy,2023.2.3,MacIntel,59.88023952,9,1,4,-0.400117188,-0.378363715,1,0,0,1.3994,Obsidian_09,5,09,1,2,1.399,5,09,-0.414882812,-0.421423611,1,0,0,1.5912,Obsidian_rect,5,1.591,1,3,0,3,0,1,,,,,,,,,,,,,
660e5c7217be250eda064cf7,SCR,2024-06-11_10h10.53.969,LearnStrategy,2023.2.3,MacIntel,59.88023952,9,1,5,-0.040230035,-0.380707465,1,0,0,1.7383,Pumice_02,8,02,1,4,1.738,8,02,0.150750868,-0.391992187,1,0,0,1.6764,Peridotite_rect,7,1.676,0,4,0,4,0,1,,,,,,,,,,,,,
660e5c7217be250eda064cf7,SCR,2024-06-11_10h10.53.969,LearnStrategy,2023.2.3,MacIntel,59.88023952,9,1,6,-0.534661458,-0.210672743,1,0,0,11.2492,Andesite_03,1,03,2,1,11.249,1,03,-0.144153646,-0.406974826,1,0,0,5.4804,Pegmatite_rect,6,5.48,0,5,0,5,0,1,,,,,,,,,,,,,
660e5c7217be250eda064cf7,SCR,2024-06-11_10h10.53.969,LearnStrategy,2023.2.3,MacIntel,59.88023952,9,1,7,-0.074713542,0.081540799,1,0,0,0.9218,Pegmatite_07,6,07,4,4,0.922,6,07,0.103459201,-0.402486979,1,0,0,1.7415,Peridotite_rect,7,1.742,0,6,0,6,0,1,,,,,,,,,,,,,
660e5c7217be250eda064cf7,SCR,2024-06-11_10h10.53.969,LearnStrategy,2023.2.3,MacIntel,59.88023952,9,1,8,-0.24234375,0.425677083,1,0,0,1.4656,Basalt_02,2,02,6,3,1.466,2,02,0.395277778,-0.237725694,1,0,0,1.9918,Gabbro_rect,4,1.992,0,7,0,7,0,1,,,,,,,,,,,,,
660e5c7217be250eda064cf7,SCR,2024-06-11_10h10.53.969,LearnStrategy,2023.2.3,MacIntel,59.88023952,9,1,9,-0.238207465,0.089626736,1,0,0,0.9138,Pegmatite_15,6,15,4,3,0.914,6,15,-0.142408854,-0.402734375,1,0,0,1.6268,Pegmatite_rect,6,1.627,1,8,0,8,0,1,,,,,,,,,,,,,
660e5c7217be250eda064cf7,SCR,2024-06-11_10h10.53.969,LearnStrategy,2023.2.3,MacIntel,59.88023952,9,1,10,0.225655382,-0.221657986,1,0,0,1.2633,Peridotite_08,7,08,2,6,1.263,7,08,0.128884549,-0.234908854,1,0,0,4.3585,Diorite_rect,3,4.358,0,9,0,9,0,1,,,,,,,,,,,,,
660e5c7217be250eda064cf7,SCR,2024-06-11_10h10.53.969,LearnStrategy,2023.2.3,MacIntel,59.88023952,9,1,11,0.263133681,-0.448880208,1,0,0,2.299,Diorite_16,3,16,1,6,2.299,3,16,0.391167535,-0.414479167,1,0,0,33.8599,Pumice_rect,8,33.86,0,10,0,10,0,1,,,,,,,,,,,,,
660e5c7217be250eda064cf7,SCR,2024-06-11_10h10.53.969,LearnStrategy,2023.2.3,MacIntel,59.88023952,9,1,12,0.08047309,-0.39062934,1,0,0,1.1032,Gabbro_11,4,11,1,5,1.103,4,11,0.17390191,-0.268693576,1,0,0,22.308,Diorite_rect,3,22.308,0,11,0,11,0,1,,,,,,,,,,,,,
660e5c7217be250eda064cf7,SCR,2024-06-11_10h10.53.969,LearnStrategy,2023.2.3,MacIntel,59.88023952,9,1,13,-0.209444444,-0.063072917,1,0,0,1.1989,Gabbro_16,4,16,3,3,1.199,4,16,-0.355073785,-0.401306424,1,0,0,2.0411,Obsidian_rect,5,2.041,0,12,0,12,0,1,,,,,,,,,,,,,
660e5c7217be250eda064cf7,SCR,2024-06-11_10h10.53.969,LearnStrategy,2023.2.3,MacIntel,59.88023952,9,1,14,-0.355247396,0.245108507,1,0,0,1.9006,Peridotite_12,7,12,5,2,1.901,7,12,0.148068576,-0.228263889,1,0,0,1.2929,Diorite_rect,3,1.293,0,13,0,13,0,1,,,,,,,,,,,,,
660e5c7217be250eda064cf7,SCR,2024-06-11_10h10.53.969,LearnStrategy,2023.2.3,MacIntel,59.88023952,9,1,15,0.379700521,-0.217565104,1,0,0,12.0209,Basalt_01,2,01,2,7,12.021,2,01,0.098723958,-0.270581597,1,0,0,2.1801,Diorite_rect,3,2.18,0,14,0,14,0,1,,,,,,,,,,,,,
660e5c7217be250eda064cf7,SCR,2024-06-11_10h10.53.969,LearnStrategy,2023.2.3,MacIntel,59.88023952,9,1,16,0.420095486,-0.417894965,1,0,0,1.5004,Andesite_09,1,09,1,7,1.5,1,09,-0.132447917,-0.386697049,1,0,0,8.2753,Pegmatite_rect,6,8.275,0,15,0,15,0,1,,,,,,,,,,,,,
660e5c7217be250eda064cf7,SCR,2024-06-11_10h10.53.969,LearnStrategy,2023.2.3,MacIntel,59.88023952,9,2,1,,,,,,,,1,01,,,,,,,,,,,,,3,1.174,0,,,,,,0.143875868,-0.240256076,1,0,0,1.174,Diorite_rect,0,0,0,0,1,
660e5c7217be250eda064cf7,SCR,2024-06-11_10h10.53.969,LearnStrategy,2023.2.3,MacIntel,59.88023952,9,2,2,,,,,,,,4,09,,,,,,,,,,,,,4,1.157,1,,,,,,0.375959201,-0.244088542,1,0,0,1.1571,Gabbro_rect,1,0,1,0,1,
660e5c7217be250eda064cf7,SCR,2024-06-11_10h10.53.969,LearnStrategy,2023.2.3,MacIntel,59.88023952,9,2,3,,,,,,,,8,16,,,,,,,,,,,,,2,0.608,0,,,,,,-0.072543403,-0.245855035,1,0,0,0.6079,Basalt_rect,2,0,2,0,1,
660e5c7217be250eda064cf7,SCR,2024-06-11_10h10.53.969,LearnStrategy,2023.2.3,MacIntel,59.88023952,9,2,4,,,,,,,,2,11,,,,,,,,,,,,,1,1.308,0,,,,,,-0.373029514,-0.250533854,1,0,0,1.3076,Andesite_rect,3,0,3,0,1,
660e5c7217be250eda064cf7,SCR,2024-06-11_10h10.53.969,LearnStrategy,2023.2.3,MacIntel,59.88023952,9,2,5,,,,,,,,3,02,,,,,,,,,,,,,6,1.342,0,,,,,,-0.194427083,-0.400529514,1,0,0,1.3417,Pegmatite_rect,4,0,4,0,1,
660e5c7217be250eda064cf7,SCR,2024-06-11_10h10.53.969,LearnStrategy,2023.2.3,MacIntel,59.88023952,9,2,6,,,,,,,,4,01,,,,,,,,,,,,,7,1.19,0,,,,,,0.100590278,-0.395798611,1,0,0,1.1902,Peridotite_rect,5,0,5,0,1,
660e5c7217be250eda064cf7,SCR,2024-06-11_10h10.53.969,LearnStrategy,2023.2.3,MacIntel,59.88023952,9,2,7,,,,,,,,7,10,,,,,,,,,,,,,4,0.79,0,,,,,,0.327764757,-0.253350694,1,0,0,0.7901,Gabbro_rect,6,0,6,0,1,
660e5c7217be250eda064cf7,SCR,2024-06-11_10h10.53.969,LearnStrategy,2023.2.3,MacIntel,59.88023952,9,2,8,,,,,,,,6,09,,,,,,,,,,,,,2,16.54,0,,,,,,-0.136805556,-0.268138021,1,0,0,16.5404,Basalt_rect,7,0,7,0,1,
660e5c7217be250eda064cf7,SCR,2024-06-11_10h10.53.969,LearnStrategy,2023.2.3,MacIntel,59.88023952,9,2,9,,,,,,,,5,14,,,,,,,,,,,,,7,1.567,0,,,,,,0.116067708,-0.405625,1,0,0,1.5666,Peridotite_rect,8,0,8,0,1,
660e5c7217be250eda064cf7,SCR,2024-06-11_10h10.53.969,LearnStrategy,2023.2.3,MacIntel,59.88023952,9,2,10,,,,,,,,2,14,,,,,,,,,,,,,2,1.811,1,,,,,,-0.05359375,-0.259136285,1,0,0,1.8112,Basalt_rect,9,0,9,0,1,
660e5c7217be250eda064cf7,SCR,2024-06-11_10h10.53.969,LearnStrategy,2023.2.3,MacIntel,59.88023952,9,2,11,,,,,,,,1,14,,,,,,,,,,,,,3,42.177,0,,,,,,0.166423611,-0.260069444,1,0,0,42.1772,Diorite_rect,10,0,10,0,1,
660e5c7217be250eda064cf7,SCR,2024-06-11_10h10.53.969,LearnStrategy,2023.2.3,MacIntel,59.88023952,9,2,12,,,,,,,,5,05,,,,,,,,,,,,,3,137.418,0,,,,,,0.166423611,-0.260069444,1,0,0,137.4176,Diorite_rect,11,0,11,0,1,
660e5c7217be250eda064cf7,SCR,2024-06-11_10h10.53.969,LearnStrategy,2023.2.3,MacIntel,59.88023952,9,2,13,,,,,,,,3,13,,,,,,,,,,,,,2,15.592,0,,,,,,-0.105611979,-0.265993924,1,0,0,15.5919,Basalt_rect,12,0,12,0,1,
660e5c7217be250eda064cf7,SCR,2024-06-11_10h10.53.969,LearnStrategy,2023.2.3,MacIntel,59.88023952,9,2,14,,,,,,,,8,05,,,,,,,,,,,,,2,30.349,0,,,,,,-0.036219618,-0.238146701,1,0,0,30.3488,Basalt_rect,13,0,13,0,1,
660e5c7217be250eda064cf7,SCR,2024-06-11_10h10.53.969,LearnStrategy,2023.2.3,MacIntel,59.88023952,9,2,15,,,,,,,,6,08,,,,,,,,,,,,,8,2.296,0,,,,,,0.352491319,-0.378784722,1,0,0,2.2959,Pumice_rect,14,0,14,0,1,
660e5c7217be250eda064cf7,SCR,2024-06-11_10h10.53.969,LearnStrategy,2023.2.3,MacIntel,59.88023952,9,2,16,,,,,,,,7,07,,,,,,,,,,,,,2,1.608,0,,,,,,-0.087994792,-0.245212674,1,0,0,1.6078,Basalt_rect,15,0,15,0,1,
660e5c7217be250eda064cf7,SCR,2024-06-11_10h10.53.969,LearnStrategy,2023.2.3,MacIntel,59.88023952,,,,,,,,,,,,,,,,,,,,,,,,,,,,,,,,,,,,,,,,,,,,,0
660e5c7217be250eda064cf7,SCR,2024-06-11_10h10.53.969,LearnStrategy,2023.2.3,MacIntel,59.88023952,,,,,,,,,,,,,,,,,,,,,,,,,,,,,,,,,,,,,,,,,,,,,
660e5c7217be250eda064cf7,SCR,2024-06-11_10h10.53.969,LearnStrategy,2023.2.3,MacIntel,59.88023952,,,,,,,,,,,6,16,1,1,,,,,,,,,,,,,,,,,,,,,,,,,,,,,,,
660e5c7217be250eda064cf7,SCR,2024-06-11_10h10.53.969,LearnStrategy,2023.2.3,MacIntel,59.88023952,,,,,,,,,,,5,09,1,2,,,,,,,,,,,,,,,,,,,,,,,,,,,,,,,
660e5c7217be250eda064cf7,SCR,2024-06-11_10h10.53.969,LearnStrategy,2023.2.3,MacIntel,59.88023952,,,,,,,,,,,6,03,1,3,,,,,,,,,,,,,,,,,,,,,,,,,,,,,,,
660e5c7217be250eda064cf7,SCR,2024-06-11_10h10.53.969,LearnStrategy,2023.2.3,MacIntel,59.88023952,,,,,,,,,,,8,02,1,4,,,,,,,,,,,,,,,,,,,,,,,,,,,,,,,
660e5c7217be250eda064cf7,SCR,2024-06-11_10h10.53.969,LearnStrategy,2023.2.3,MacIntel,59.88023952,,,,,,,,,,,4,11,1,5,,,,,,,,,,,,,,,,,,,,,,,,,,,,,,,
660e5c7217be250eda064cf7,SCR,2024-06-11_10h10.53.969,LearnStrategy,2023.2.3,MacIntel,59.88023952,,,,,,,,,,,3,16,1,6,,,,,,,,,,,,,,,,,,,,,,,,,,,,,,,
660e5c7217be250eda064cf7,SCR,2024-06-11_10h10.53.969,LearnStrategy,2023.2.3,MacIntel,59.88023952,,,,,,,,,,,1,09,1,7,,,,,,,,,,,,,,,,,,,,,,,,,,,,,,,
660e5c7217be250eda064cf7,SCR,2024-06-11_10h10.53.969,LearnStrategy,2023.2.3,MacIntel,59.88023952,,,,,,,,,,,8,14,1,8,,,,,,,,,,,,,,,,,,,,,,,,,,,,,,,
660e5c7217be250eda064cf7,SCR,2024-06-11_10h10.53.969,LearnStrategy,2023.2.3,MacIntel,59.88023952,,,,,,,,,,,1,03,2,1,,,,,,,,,,,,,,,,,,,,,,,,,,,,,,,
660e5c7217be250eda064cf7,SCR,2024-06-11_10h10.53.969,LearnStrategy,2023.2.3,MacIntel,59.88023952,,,,,,,,,,,7,02,2,2,,,,,,,,,,,,,,,,,,,,,,,,,,,,,,,
660e5c7217be250eda064cf7,SCR,2024-06-11_10h10.53.969,LearnStrategy,2023.2.3,MacIntel,59.88023952,,,,,,,,,,,3,11,2,3,,,,,,,,,,,,,,,,,,,,,,,,,,,,,,,
660e5c7217be250eda064cf7,SCR,2024-06-11_10h10.53.969,LearnStrategy,2023.2.3,MacIntel,59.88023952,,,,,,,,,,,3,08,2,4,,,,,,,,,,,,,,,,,,,,,,,,,,,,,,,
660e5c7217be250eda064cf7,SCR,2024-06-11_10h10.53.969,LearnStrategy,2023.2.3,MacIntel,59.88023952,,,,,,,,,,,4,12,2,5,,,,,,,,,,,,,,,,,,,,,,,,,,,,,,,
660e5c7217be250eda064cf7,SCR,2024-06-11_10h10.53.969,LearnStrategy,2023.2.3,MacIntel,59.88023952,,,,,,,,,,,7,08,2,6,,,,,,,,,,,,,,,,,,,,,,,,,,,,,,,
660e5c7217be250eda064cf7,SCR,2024-06-11_10h10.53.969,LearnStrategy,2023.2.3,MacIntel,59.88023952,,,,,,,,,,,2,01,2,7,,,,,,,,,,,,,,,,,,,,,,,,,,,,,,,
660e5c7217be250eda064cf7,SCR,2024-06-11_10h10.53.969,LearnStrategy,2023.2.3,MacIntel,59.88023952,,,,,,,,,,,5,02,2,8,,,,,,,,,,,,,,,,,,,,,,,,,,,,,,,
660e5c7217be250eda064cf7,SCR,2024-06-11_10h10.53.969,LearnStrategy,2023.2.3,MacIntel,59.88023952,,,,,,,,,,,6,11,3,1,,,,,,,,,,,,,,,,,,,,,,,,,,,,,,,
660e5c7217be250eda064cf7,SCR,2024-06-11_10h10.53.969,LearnStrategy,2023.2.3,MacIntel,59.88023952,,,,,,,,,,,5,12,3,2,,,,,,,,,,,,,,,,,,,,,,,,,,,,,,,
660e5c7217be250eda064cf7,SCR,2024-06-11_10h10.53.969,LearnStrategy,2023.2.3,MacIntel,59.88023952,,,,,,,,,,,4,16,3,3,,,,,,,,,,,,,,,,,,,,,,,,,,,,,,,
660e5c7217be250eda064cf7,SCR,2024-06-11_10h10.53.969,LearnStrategy,2023.2.3,MacIntel,59.88023952,,,,,,,,,,,8,08,3,4,,,,,,,,,,,,,,,,,,,,,,,,,,,,,,,
660e5c7217be250eda064cf7,SCR,2024-06-11_10h10.53.969,LearnStrategy,2023.2.3,MacIntel,59.88023952,,,,,,,,,,,1,07,3,5,,,,,,,,,,,,,,,,,,,,,,,,,,,,,,,
660e5c7217be250eda064cf7,SCR,2024-06-11_10h10.53.969,LearnStrategy,2023.2.3,MacIntel,59.88023952,,,,,,,,,,,6,10,3,6,,,,,,,,,,,,,,,,,,,,,,,,,,,,,,,
660e5c7217be250eda064cf7,SCR,2024-06-11_10h10.53.969,LearnStrategy,2023.2.3,MacIntel,59.88023952,,,,,,,,,,,4,10,3,7,,,,,,,,,,,,,,,,,,,,,,,,,,,,,,,
660e5c7217be250eda064cf7,SCR,2024-06-11_10h10.53.969,LearnStrategy,2023.2.3,MacIntel,59.88023952,,,,,,,,,,,8,03,3,8,,,,,,,,,,,,,,,,,,,,,,,,,,,,,,,
660e5c7217be250eda064cf7,SCR,2024-06-11_10h10.53.969,LearnStrategy,2023.2.3,MacIntel,59.88023952,,,,,,,,,,,3,06,4,1,,,,,,,,,,,,,,,,,,,,,,,,,,,,,,,
660e5c7217be250eda064cf7,SCR,2024-06-11_10h10.53.969,LearnStrategy,2023.2.3,MacIntel,59.88023952,,,,,,,,,,,8,06,4,2,,,,,,,,,,,,,,,,,,,,,,,,,,,,,,,
660e5c7217be250eda064cf7,SCR,2024-06-11_10h10.53.969,LearnStrategy,2023.2.3,MacIntel,59.88023952,,,,,,,,,,,6,15,4,3,,,,,,,,,,,,,,,,,,,,,,,,,,,,,,,
660e5c7217be250eda064cf7,SCR,2024-06-11_10h10.53.969,LearnStrategy,2023.2.3,MacIntel,59.88023952,,,,,,,,,,,6,07,4,4,,,,,,,,,,,,,,,,,,,,,,,,,,,,,,,
660e5c7217be250eda064cf7,SCR,2024-06-11_10h10.53.969,LearnStrategy,2023.2.3,MacIntel,59.88023952,,,,,,,,,,,2,16,4,5,,,,,,,,,,,,,,,,,,,,,,,,,,,,,,,
660e5c7217be250eda064cf7,SCR,2024-06-11_10h10.53.969,LearnStrategy,2023.2.3,MacIntel,59.88023952,,,,,,,,,,,3,14,4,6,,,,,,,,,,,,,,,,,,,,,,,,,,,,,,,
660e5c7217be250eda064cf7,SCR,2024-06-11_10h10.53.969,LearnStrategy,2023.2.3,MacIntel,59.88023952,,,,,,,,,,,2,06,4,7,,,,,,,,,,,,,,,,,,,,,,,,,,,,,,,
660e5c7217be250eda064cf7,SCR,2024-06-11_10h10.53.969,LearnStrategy,2023.2.3,MacIntel,59.88023952,,,,,,,,,,,2,08,4,8,,,,,,,,,,,,,,,,,,,,,,,,,,,,,,,
660e5c7217be250eda064cf7,SCR,2024-06-11_10h10.53.969,LearnStrategy,2023.2.3,MacIntel,59.88023952,,,,,,,,,,,3,07,5,1,,,,,,,,,,,,,,,,,,,,,,,,,,,,,,,
660e5c7217be250eda064cf7,SCR,2024-06-11_10h10.53.969,LearnStrategy,2023.2.3,MacIntel,59.88023952,,,,,,,,,,,7,12,5,2,,,,,,,,,,,,,,,,,,,,,,,,,,,,,,,
660e5c7217be250eda064cf7,SCR,2024-06-11_10h10.53.969,LearnStrategy,2023.2.3,MacIntel,59.88023952,,,,,,,,,,,5,11,5,3,,,,,,,,,,,,,,,,,,,,,,,,,,,,,,,
660e5c7217be250eda064cf7,SCR,2024-06-11_10h10.53.969,LearnStrategy,2023.2.3,MacIntel,59.88023952,,,,,,,,,,,7,06,5,4,,,,,,,,,,,,,,,,,,,,,,,,,,,,,,,
660e5c7217be250eda064cf7,SCR,2024-06-11_10h10.53.969,LearnStrategy,2023.2.3,MacIntel,59.88023952,,,,,,,,,,,1,10,5,5,,,,,,,,,,,,,,,,,,,,,,,,,,,,,,,
660e5c7217be250eda064cf7,SCR,2024-06-11_10h10.53.969,LearnStrategy,2023.2.3,MacIntel,59.88023952,,,,,,,,,,,7,14,5,6,,,,,,,,,,,,,,,,,,,,,,,,,,,,,,,
660e5c7217be250eda064cf7,SCR,2024-06-11_10h10.53.969,LearnStrategy,2023.2.3,MacIntel,59.88023952,,,,,,,,,,,4,08,5,7,,,,,,,,,,,,,,,,,,,,,,,,,,,,,,,
660e5c7217be250eda064cf7,SCR,2024-06-11_10h10.53.969,LearnStrategy,2023.2.3,MacIntel,59.88023952,,,,,,,,,,,4,15,5,8,,,,,,,,,,,,,,,,,,,,,,,,,,,,,,,
660e5c7217be250eda064cf7,SCR,2024-06-11_10h10.53.969,LearnStrategy,2023.2.3,MacIntel,59.88023952,,,,,,,,,,,7,04,6,1,,,,,,,,,,,,,,,,,,,,,,,,,,,,,,,
660e5c7217be250eda064cf7,SCR,2024-06-11_10h10.53.969,LearnStrategy,2023.2.3,MacIntel,59.88023952,,,,,,,,,,,8,09,6,2,,,,,,,,,,,,,,,,,,,,,,,,,,,,,,,
660e5c7217be250eda064cf7,SCR,2024-06-11_10h10.53.969,LearnStrategy,2023.2.3,MacIntel,59.88023952,,,,,,,,,,,2,02,6,3,,,,,,,,,,,,,,,,,,,,,,,,,,,,,,,
660e5c7217be250eda064cf7,SCR,2024-06-11_10h10.53.969,LearnStrategy,2023.2.3,MacIntel,59.88023952,,,,,,,,,,,1,06,6,4,,,,,,,,,,,,,,,,,,,,,,,,,,,,,,,
660e5c7217be250eda064cf7,SCR,2024-06-11_10h10.53.969,LearnStrategy,2023.2.3,MacIntel,59.88023952,,,,,,,,,,,2,09,6,5,,,,,,,,,,,,,,,,,,,,,,,,,,,,,,,
660e5c7217be250eda064cf7,SCR,2024-06-11_10h10.53.969,LearnStrategy,2023.2.3,MacIntel,59.88023952,,,,,,,,,,,5,10,6,6,,,,,,,,,,,,,,,,,,,,,,,,,,,,,,,
660e5c7217be250eda064cf7,SCR,2024-06-11_10h10.53.969,LearnStrategy,2023.2.3,MacIntel,59.88023952,,,,,,,,,,,5,08,6,7,,,,,,,,,,,,,,,,,,,,,,,,,,,,,,,
660e5c7217be250eda064cf7,SCR,2024-06-11_10h10.53.969,LearnStrategy,2023.2.3,MacIntel,59.88023952,,,,,,,,,,,1,04,6,8,,,,,,,,,,,,,,,,,,,,,,,,,,,,,,,