participant,condition,date,expName,psychopyVersion,OS,frameRate,block,phase,trial,learn_mouse.x,learn_mouse.y,learn_mouse.leftButton,learn_mouse.midButton,learn_mouse.rightButton,learn_mouse.time,learn_mouse.clicked_name,cat,token,row,col,t_select,cat_rec,token_rec,cat_mouse_l.x,cat_mouse_l.y,cat_mouse_l.leftButton,cat_mouse_l.midButton,cat_mouse_l.rightButton,cat_mouse_l.time,cat_mouse_l.clicked_name,resp,t_resp,corr,train_trials.thisRepN,train_trials.thisTrialN,train_trials.thisN,train_trials.thisIndex,train_trials.ran,cat_mouse_t.x,cat_mouse_t.y,cat_mouse_t.leftButton,cat_mouse_t.midButton,cat_mouse_t.rightButton,cat_mouse_t.time,cat_mouse_t.clicked_name,test_trials.thisRepN,test_trials.thisTrialN,test_trials.thisN,test_trials.thisIndex,test_trials.ran,Bonus
6612c334c29da57e3de974e8,SCR,2024-06-20_16h30.38.603,LearnStrategy,2023.2.3,MacIntel,59.88023952,,,,,,,,,,,,,,,,,,,,,,,,,,,,,,,,,,,,,,,,,,,,,
6612c334c29da57e3de974e8,SCR,2024-06-20_16h30.38.603,LearnStrategy,2023.2.3,MacIntel,59.88023952,1,1,1,-0.522473958,-0.118381076,1,0,0,2.8133,Pegmatite_03,6,03,3,1,2.813,6,03,0.113402778,-0.381171875,1,0,0,5.836,Peridotite_rect,7,5.836,0,0,0,0,0,1,,,,,,,,,,,,,
6612c334c29da57e3de974e8,SCR,2024-06-20_16h30.38.603,LearnStrategy,2023.2.3,MacIntel,59.88023952,1,1,2,0.072899306,-0.235980903,1,0,0,1.9642,Diorite_13,3,13,2,5,1.964,3,13,-0.154210069,-0.269192708,1,0,0,2.9622,Basalt_rect,2,2.962,0,1,0,1,0,1,,,,,,,,,,,,,
6612c334c29da57e3de974e8,SCR,2024-06-20_16h30.38.603,LearnStrategy,2023.2.3,MacIntel,59.88023952,1,1,3,-0.051458333,-0.091197917,1,0,0,1.2646,Peridotite_02,7,02,3,4,1.265,7,02,-0.08546875,-0.261006944,1,0,0,4.6937,Basalt_rect,2,4.694,0,2,0,2,0,1,,,,,,,,,,,,,
6612c334c29da57e3de974e8,SCR,2024-06-20_16h30.38.603,LearnStrategy,2023.2.3,MacIntel,59.88023952,1,1,4,0.508363715,-0.379800347,1,0,0,1.1821,Pumice_06,8,06,1,8,1.182,8,06,0.435134549,-0.392152778,1,0,0,3.5939,Pumice_rect,8,3.594,1,3,0,3,0,1,,,,,,,,,,,,,
6612c334c29da57e3de974e8,SCR,2024-06-20_16h30.38.603,LearnStrategy,2023.2.3,MacIntel,59.88023952,1,1,5,0.227573785,-0.107022569,1,0,0,0.6816,Basalt_12,2,12,3,6,0.682,2,12,-0.105494792,-0.246480035,1,0,0,4.5924,Basalt_rect,2,4.592,1,4,0,4,0,1,,,,,,,,,,,,,
6612c334c29da57e3de974e8,SCR,2024-06-20_16h30.38.603,LearnStrategy,2023.2.3,MacIntel,59.88023952,1,1,6,0.034444444,0.363311632,1,0,0,1.3807,Gabbro_12,4,12,6,5,1.381,4,12,-0.312638889,-0.234014757,1,0,0,4.8303,Andesite_rect,1,4.83,0,5,0,5,0,1,,,,,,,,,,,,,
6612c334c29da57e3de974e8,SCR,2024-06-20_16h30.38.603,LearnStrategy,2023.2.3,MacIntel,59.88023952,1,1,7,0.516740451,0.215334201,1,0,0,1.0473,Pumice_05,8,05,5,8,1.047,8,05,0.384956597,-0.40578559,1,0,0,1.5111,Pumice_rect,8,1.511,1,6,0,6,0,1,,,,,,,,,,,,,
6612c334c29da57e3de974e8,SCR,2024-06-20_16h30.38.603,LearnStrategy,2023.2.3,MacIntel,59.88023952,1,1,8,0.203923611,0.301328125,1,0,0,0.8982,Peridotite_06,7,06,5,6,0.898,7,06,0.133172743,-0.383463542,1,0,0,2.611,Peridotite_rect,7,2.611,1,7,0,7,0,1,,,,,,,,,,,,,
6612c334c29da57e3de974e8,SCR,2024-06-20_16h30.38.603,LearnStrategy,2023.2.3,MacIntel,59.88023952,1,1,9,-0.383810764,0.403289931,1,0,0,1.0633,Diorite_10,3,10,6,2,1.063,3,10,0.417109375,-0.258172743,1,0,0,5.0775,Gabbro_rect,4,5.078,0,8,0,8,0,1,,,,,,,,,,,,,
6612c334c29da57e3de974e8,SCR,2024-06-20_16h30.38.603,LearnStrategy,2023.2.3,MacIntel,59.88023952,1,1,10,-0.564049479,-0.42859809,1,0,0,1.4145,Obsidian_10,5,10,1,1,1.414,5,10,-0.350911458,-0.412894965,1,0,0,1.2598,Obsidian_rect,5,1.26,1,9,0,9,0,1,,,,,,,,,,,,,
6612c334c29da57e3de974e8,SCR,2024-06-20_16h30.38.603,LearnStrategy,2023.2.3,MacIntel,59.88023952,1,1,11,0.422573785,0.261883681,1,0,0,1.1807,Basalt_09,2,09,5,7,1.181,2,09,-0.173602431,-0.251584201,1,0,0,3.2781,Basalt_rect,2,3.278,1,10,0,10,0,1,,,,,,,,,,,,,
6612c334c29da57e3de974e8,SCR,2024-06-20_16h30.38.603,LearnStrategy,2023.2.3,MacIntel,59.88023952,1,1,12,0.56983941,-0.090824653,1,0,0,1.0472,Gabbro_08,4,08,3,8,1.047,4,08,0.170099826,-0.263372396,1,0,0,2.3937,Diorite_rect,3,2.394,0,11,0,11,0,1,,,,,,,,,,,,,
6612c334c29da57e3de974e8,SCR,2024-06-20_16h30.38.603,LearnStrategy,2023.2.3,MacIntel,59.88023952,1,1,13,-0.252773437,-0.442113715,1,0,0,1.115,Andesite_03,1,03,1,3,1.115,1,03,-0.356280382,-0.259878472,1,0,0,3.661,Andesite_rect,1,3.661,1,12,0,12,0,1,,,,,,,,,,,,,
6612c334c29da57e3de974e8,SCR,2024-06-20_16h30.38.603,LearnStrategy,2023.2.3,MacIntel,59.88023952,1,1,14,-0.075134549,0.382265625,1,0,0,1.2648,Obsidian_12,5,12,6,4,1.265,5,12,-0.41656684,-0.421484375,1,0,0,1.3934,Obsidian_rect,5,1.393,1,13,0,13,0,1,,,,,,,,,,,,,
6612c334c29da57e3de974e8,SCR,2024-06-20_16h30.38.603,LearnStrategy,2023.2.3,MacIntel,59.88023952,1,1,15,-0.502951389,0.060594618,1,0,0,1.5149,Pegmatite_11,6,11,4,1,1.515,6,11,-0.172534722,-0.385164931,1,0,0,1.526,Pegmatite_rect,6,1.526,1,14,0,14,0,1,,,,,,,,,,,,,
6612c334c29da57e3de974e8,SCR,2024-06-20_16h30.38.603,LearnStrategy,2023.2.3,MacIntel,59.88023952,1,1,16,0.198650174,0.122769097,1,0,0,1.1483,Andesite_06,1,06,4,6,1.148,1,06,-0.344001736,-0.232009549,1,0,0,2.3944,Andesite_rect,1,2.394,1,15,0,15,0,1,,,,,,,,,,,,,
6612c334c29da57e3de974e8,SCR,2024-06-20_16h30.38.603,LearnStrategy,2023.2.3,MacIntel,59.88023952,1,2,1,,,,,,,,2,06,,,,,,,,,,,,,2,5.096,1,,,,,,-0.097356771,-0.236332465,1,0,0,5.0961,Basalt_rect,0,0,0,0,1,
6612c334c29da57e3de974e8,SCR,2024-06-20_16h30.38.603,LearnStrategy,2023.2.3,MacIntel,59.88023952,1,2,2,,,,,,,,4,01,,,,,,,,,,,,,7,4.91,0,,,,,,0.101519097,-0.40296875,1,0,0,4.9099,Peridotite_rect,1,0,1,0,1,
6612c334c29da57e3de974e8,SCR,2024-06-20_16h30.38.603,LearnStrategy,2023.2.3,MacIntel,59.88023952,1,2,3,,,,,,,,8,15,,,,,,,,,,,,,8,1.826,1,,,,,,0.313641493,-0.408268229,1,0,0,1.8257,Pumice_rect,2,0,2,0,1,
6612c334c29da57e3de974e8,SCR,2024-06-20_16h30.38.603,LearnStrategy,2023.2.3,MacIntel,59.88023952,1,2,4,,,,,,,,8,03,,,,,,,,,,,,,8,1.25,1,,,,,,0.313641493,-0.408268229,1,0,0,1.2496,Pumice_rect,3,0,3,0,1,
6612c334c29da57e3de974e8,SCR,2024-06-20_16h30.38.603,LearnStrategy,2023.2.3,MacIntel,59.88023952,1,2,5,,,,,,,,1,11,,,,,,,,,,,,,1,2.21,1,,,,,,-0.407539062,-0.261228299,1,0,0,2.2098,Andesite_rect,4,0,4,0,1,
6612c334c29da57e3de974e8,SCR,2024-06-20_16h30.38.603,LearnStrategy,2023.2.3,MacIntel,59.88023952,1,2,6,,,,,,,,4,13,,,,,,,,,,,,,6,2.608,0,,,,,,-0.131467014,-0.391072049,1,0,0,2.6077,Pegmatite_rect,5,0,5,0,1,
6612c334c29da57e3de974e8,SCR,2024-06-20_16h30.38.603,LearnStrategy,2023.2.3,MacIntel,59.88023952,1,2,7,,,,,,,,5,14,,,,,,,,,,,,,5,1.192,1,,,,,,-0.351436632,-0.399752604,1,0,0,1.1923,Obsidian_rect,6,0,6,0,1,
6612c334c29da57e3de974e8,SCR,2024-06-20_16h30.38.603,LearnStrategy,2023.2.3,MacIntel,59.88023952,1,2,8,,,,,,,,3,11,,,,,,,,,,,,,4,6.91,0,,,,,,0.379340278,-0.245260417,1,0,0,6.9101,Gabbro_rect,7,0,7,0,1,
6612c334c29da57e3de974e8,SCR,2024-06-20_16h30.38.603,LearnStrategy,2023.2.3,MacIntel,59.88023952,1,2,9,,,,,,,,5,11,,,,,,,,,,,,,5,1.18,1,,,,,,-0.336293403,-0.397608507,1,0,0,1.1798,Obsidian_rect,8,0,8,0,1,
6612c334c29da57e3de974e8,SCR,2024-06-20_16h30.38.603,LearnStrategy,2023.2.3,MacIntel,59.88023952,1,2,10,,,,,,,,6,06,,,,,,,,,,,,,6,3.192,1,,,,,,-0.137647569,-0.411137153,1,0,0,3.1925,Pegmatite_rect,9,0,9,0,1,
6612c334c29da57e3de974e8,SCR,2024-06-20_16h30.38.603,LearnStrategy,2023.2.3,MacIntel,59.88023952,1,2,11,,,,,,,,7,15,,,,,,,,,,,,,3,3.142,0,,,,,,0.144270833,-0.231875,1,0,0,3.1421,Diorite_rect,10,0,10,0,1,
6612c334c29da57e3de974e8,SCR,2024-06-20_16h30.38.603,LearnStrategy,2023.2.3,MacIntel,59.88023952,1,2,12,,,,,,,,7,14,,,,,,,,,,,,,2,1.525,0,,,,,,-0.071024306,-0.266141493,1,0,0,1.5253,Basalt_rect,11,0,11,0,1,
6612c334c29da57e3de974e8,SCR,2024-06-20_16h30.38.603,LearnStrategy,2023.2.3,MacIntel,59.88023952,1,2,13,,,,,,,,1,01,,,,,,,,,,,,,1,2.243,1,,,,,,-0.400438368,-0.262647569,1,0,0,2.2426,Andesite_rect,12,0,12,0,1,
6612c334c29da57e3de974e8,SCR,2024-06-20_16h30.38.603,LearnStrategy,2023.2.3,MacIntel,59.88023952,1,2,14,,,,,,,,3,09,,,,,,,,,,,,,1,3.4,0,,,,,,-0.400438368,-0.262647569,1,0,0,3.3999,Andesite_rect,13,0,13,0,1,
6612c334c29da57e3de974e8,SCR,2024-06-20_16h30.38.603,LearnStrategy,2023.2.3,MacIntel,59.88023952,1,2,15,,,,,,,,2,11,,,,,,,,,,,,,2,3.192,1,,,,,,-0.125021701,-0.267157118,1,0,0,3.1921,Basalt_rect,14,0,14,0,1,
6612c334c29da57e3de974e8,SCR,2024-06-20_16h30.38.603,LearnStrategy,2023.2.3,MacIntel,59.88023952,1,2,16,,,,,,,,6,08,,,,,,,,,,,,,7,3.559,0,,,,,,0.113172743,-0.386510417,1,0,0,3.5589,Peridotite_rect,15,0,15,0,1,
6612c334c29da57e3de974e8,SCR,2024-06-20_16h30.38.603,LearnStrategy,2023.2.3,MacIntel,59.88023952,2,1,1,0.363940972,0.390494792,1,0,0,1.4641,Gabbro_16,4,16,6,7,1.464,4,16,-0.142430556,-0.238771701,1,0,0,6.877,Basalt_rect,2,6.877,0,0,0,0,0,1,,,,,,,,,,,,,
6612c334c29da57e3de974e8,SCR,2024-06-20_16h30.38.603,LearnStrategy,2023.2.3,MacIntel,59.88023952,2,1,2,0.122417535,-0.422065972,1,0,0,0.9806,Gabbro_09,4,09,1,5,0.981,4,09,-0.341375868,-0.258585069,1,0,0,1.5599,Andesite_rect,1,1.56,0,1,0,1,0,1,,,,,,,,,,,,,
6612c334c29da57e3de974e8,SCR,2024-06-20_16h30.38.603,LearnStrategy,2023.2.3,MacIntel,59.88023952,2,1,3,0.56296441,-0.250924479,1,0,0,1.098,Peridotite_10,7,10,2,8,1.098,7,10,-0.122842882,-0.39781684,1,0,0,1.4105,Pegmatite_rect,6,1.41,0,2,0,2,0,1,,,,,,,,,,,,,
6612c334c29da57e3de974e8,SCR,2024-06-20_16h30.38.603,LearnStrategy,2023.2.3,MacIntel,59.88023952,2,1,4,0.044244792,0.092821181,1,0,0,0.5987,Diorite_15,3,15,4,5,0.599,3,15,0.400125868,-0.242018229,1,0,0,5.4105,Gabbro_rect,4,5.411,0,3,0,3,0,1,,,,,,,,,,,,,
6612c334c29da57e3de974e8,SCR,2024-06-20_16h30.38.603,LearnStrategy,2023.2.3,MacIntel,59.88023952,2,1,5,-0.393515625,-0.262942708,1,0,0,0.9627,Diorite_07,3,07,2,2,0.963,3,07,0.401289063,-0.250611979,1,0,0,4.1268,Gabbro_rect,4,4.127,0,4,0,4,0,1,,,,,,,,,,,,,
6612c334c29da57e3de974e8,SCR,2024-06-20_16h30.38.603,LearnStrategy,2023.2.3,MacIntel,59.88023952,2,1,6,0.276228299,-0.303624132,1,0,0,0.78,Basalt_10,2,10,2,6,0.78,2,10,-0.175546875,-0.26530816,1,0,0,3.0933,Basalt_rect,2,3.093,1,5,0,5,0,1,,,,,,,,,,,,,
6612c334c29da57e3de974e8,SCR,2024-06-20_16h30.38.603,LearnStrategy,2023.2.3,MacIntel,59.88023952,2,1,7,-0.388841146,-0.249917535,1,0,0,1.0143,Diorite_07,3,07,2,2,1.014,3,07,0.100008681,-0.23953559,1,0,0,1.3788,Diorite_rect,3,1.379,1,6,0,6,0,1,,,,,,,,,,,,,
6612c334c29da57e3de974e8,SCR,2024-06-20_16h30.38.603,LearnStrategy,2023.2.3,MacIntel,59.88023952,2,1,8,0.113780382,-0.397838542,1,0,0,0.9821,Gabbro_09,4,09,1,5,0.982,4,09,0.361167535,-0.25062934,1,0,0,5.1437,Gabbro_rect,4,5.144,1,7,0,7,0,1,,,,,,,,,,,,,
6612c334c29da57e3de974e8,SCR,2024-06-20_16h30.38.603,LearnStrategy,2023.2.3,MacIntel,59.88023952,2,1,9,0.397356771,-0.084414062,1,0,0,0.7814,Andesite_07,1,07,3,7,0.781,1,07,-0.354830729,-0.251844618,1,0,0,2.7288,Andesite_rect,1,2.729,1,8,0,8,0,1,,,,,,,,,,,,,
6612c334c29da57e3de974e8,SCR,2024-06-20_16h30.38.603,LearnStrategy,2023.2.3,MacIntel,59.88023952,2,1,10,-0.202200521,0.127165799,1,0,0,0.9137,Pegmatite_10,6,10,4,3,0.914,6,10,-0.108945313,-0.404301215,1,0,0,2.1438,Pegmatite_rect,6,2.144,1,9,0,9,0,1,,,,,,,,,,,,,
6612c334c29da57e3de974e8,SCR,2024-06-20_16h30.38.603,LearnStrategy,2023.2.3,MacIntel,59.88023952,2,1,11,-0.519331597,0.071848958,1,0,0,1.297,Pegmatite_11,6,11,4,1,1.297,6,11,0.127916667,-0.413211806,1,0,0,1.33,Peridotite_rect,7,1.33,0,10,0,10,0,1,,,,,,,,,,,,,
6612c334c29da57e3de974e8,SCR,2024-06-20_16h30.38.603,LearnStrategy,2023.2.3,MacIntel,59.88023952,2,1,12,-0.04594184,-0.107552083,1,0,0,0.6829,Peridotite_02,7,02,3,4,0.683,7,02,0.140807292,-0.400347222,1,0,0,1.3102,Peridotite_rect,7,1.31,1,11,0,11,0,1,,,,,,,,,,,,,
6612c334c29da57e3de974e8,SCR,2024-06-20_16h30.38.603,LearnStrategy,2023.2.3,MacIntel,59.88023952,2,1,13,-0.101150174,-0.284483507,1,0,0,0.6807,Peridotite_12,7,12,2,4,0.681,7,12,0.154157986,-0.267109375,1,0,0,3.6961,Diorite_rect,3,3.696,0,12,0,12,0,1,,,,,,,,,,,,,
6612c334c29da57e3de974e8,SCR,2024-06-20_16h30.38.603,LearnStrategy,2023.2.3,MacIntel,59.88023952,2,1,14,-0.388155382,0.372573785,1,0,0,1.1142,Diorite_10,3,10,6,2,1.114,3,10,0.341627604,-0.234696181,1,0,0,1.6102,Gabbro_rect,4,1.61,0,13,0,13,0,1,,,,,,,,,,,,,
6612c334c29da57e3de974e8,SCR,2024-06-20_16h30.38.603,LearnStrategy,2023.2.3,MacIntel,59.88023952,2,1,15,-0.065390625,0.218190104,1,0,0,1.1995,Gabbro_10,4,10,5,4,1.2,4,10,-0.39094184,-0.258181424,1,0,0,2.2759,Andesite_rect,1,2.276,0,14,0,14,0,1,,,,,,,,,,,,,
6612c334c29da57e3de974e8,SCR,2024-06-20_16h30.38.603,LearnStrategy,2023.2.3,MacIntel,59.88023952,2,1,16,-0.344678819,0.246844618,1,0,0,1.1139,Peridotite_07,7,07,5,2,1.114,7,07,0.088372396,-0.412170139,1,0,0,2.8103,Peridotite_rect,7,2.81,1,15,0,15,0,1,,,,,,,,,,,,,
6612c334c29da57e3de974e8,SCR,2024-06-20_16h30.38.603,LearnStrategy,2023.2.3,MacIntel,59.88023952,2,2,1,,,,,,,,7,08,,,,,,,,,,,,,7,1.543,1,,,,,,0.088372396,-0.411644965,1,0,0,1.5429,Peridotite_rect,0,0,0,0,1,
6612c334c29da57e3de974e8,SCR,2024-06-20_16h30.38.603,LearnStrategy,2023.2.3,MacIntel,59.88023952,2,2,2,,,,,,,,5,06,,,,,,,,,,,,,5,1.158,1,,,,,,-0.40780816,-0.414726563,1,0,0,1.1583,Obsidian_rect,1,0,1,0,1,
6612c334c29da57e3de974e8,SCR,2024-06-20_16h30.38.603,LearnStrategy,2023.2.3,MacIntel,59.88023952,2,2,3,,,,,,,,5,08,,,,,,,,,,,,,5,0.778,1,,,,,,-0.408068576,-0.414726563,1,0,0,0.7775,Obsidian_rect,2,0,2,0,1,
6612c334c29da57e3de974e8,SCR,2024-06-20_16h30.38.603,LearnStrategy,2023.2.3,MacIntel,59.88023952,2,2,4,,,,,,,,2,16,,,,,,,,,,,,,2,3.36,1,,,,,,-0.152291667,-0.252877604,1,0,0,3.3598,Basalt_rect,3,0,3,0,1,
6612c334c29da57e3de974e8,SCR,2024-06-20_16h30.38.603,LearnStrategy,2023.2.3,MacIntel,59.88023952,2,2,5,,,,,,,,8,16,,,,,,,,,,,,,8,1.464,1,,,,,,0.38390625,-0.399791667,1,0,0,1.4637,Pumice_rect,4,0,4,0,1,
6612c334c29da57e3de974e8,SCR,2024-06-20_16h30.38.603,LearnStrategy,2023.2.3,MacIntel,59.88023952,2,2,6,,,,,,,,4,03,,,,,,,,,,,,,3,5.392,0,,,,,,0.199930556,-0.254787326,1,0,0,5.3919,Diorite_rect,5,0,5,0,1,
6612c334c29da57e3de974e8,SCR,2024-06-20_16h30.38.603,LearnStrategy,2023.2.3,MacIntel,59.88023952,2,2,7,,,,,,,,6,12,,,,,,,,,,,,,6,5.759,1,,,,,,-0.139639757,-0.407369792,1,0,0,5.7594,Pegmatite_rect,6,0,6,0,1,
6612c334c29da57e3de974e8,SCR,2024-06-20_16h30.38.603,LearnStrategy,2023.2.3,MacIntel,59.88023952,2,2,8,,,,,,,,1,16,,,,,,,,,,,,,1,2.309,1,,,,,,-0.335334201,-0.250815972,1,0,0,2.3087,Andesite_rect,7,0,7,0,1,
6612c334c29da57e3de974e8,SCR,2024-06-20_16h30.38.603,LearnStrategy,2023.2.3,MacIntel,59.88023952,2,2,9,,,,,,,,3,14,,,,,,,,,,,,,4,3.323,0,,,,,,0.413385417,-0.252977431,1,0,0,3.3231,Gabbro_rect,8,0,8,0,1,
6612c334c29da57e3de974e8,SCR,2024-06-20_16h30.38.603,LearnStrategy,2023.2.3,MacIntel,59.88023952,2,2,10,,,,,,,,2,04,,,,,,,,,,,,,2,2.941,1,,,,,,-0.10609375,-0.248858507,1,0,0,2.9409,Basalt_rect,9,0,9,0,1,
6612c334c29da57e3de974e8,SCR,2024-06-20_16h30.38.603,LearnStrategy,2023.2.3,MacIntel,59.88023952,2,2,11,,,,,,,,8,02,,,,,,,,,,,,,8,1.224,1,,,,,,0.411840278,-0.42125434,1,0,0,1.2241,Pumice_rect,10,0,10,0,1,
6612c334c29da57e3de974e8,SCR,2024-06-20_16h30.38.603,LearnStrategy,2023.2.3,MacIntel,59.88023952,2,2,12,,,,,,,,6,16,,,,,,,,,,,,,7,3.044,0,,,,,,0.192083333,-0.393958333,1,0,0,3.0441,Peridotite_rect,11,0,11,0,1,
6612c334c29da57e3de974e8,SCR,2024-06-20_16h30.38.603,LearnStrategy,2023.2.3,MacIntel,59.88023952,2,2,13,,,,,,,,4,05,,,,,,,,,,,,,3,3.292,0,,,,,,0.167868924,-0.240247396,1,0,0,3.292,Diorite_rect,12,0,12,0,1,
6612c334c29da57e3de974e8,SCR,2024-06-20_16h30.38.603,LearnStrategy,2023.2.3,MacIntel,59.88023952,2,2,14,,,,,,,,3,06,,,,,,,,,,,,,4,1.425,0,,,,,,0.347703993,-0.263268229,1,0,0,1.4255,Gabbro_rect,13,0,13,0,1,
6612c334c29da57e3de974e8,SCR,2024-06-20_16h30.38.603,LearnStrategy,2023.2.3,MacIntel,59.88023952,2,2,15,,,,,,,,1,02,,,,,,,,,,,,,1,1.395,1,,,,,,-0.346414931,-0.265625,1,0,0,1.3951,Andesite_rect,14,0,14,0,1,
6612c334c29da57e3de974e8,SCR,2024-06-20_16h30.38.603,LearnStrategy,2023.2.3,MacIntel,59.88023952,2,2,16,,,,,,,,7,16,,,,,,,,,,,,,1,1.459,0,,,,,,-0.346414931,-0.265625,1,0,0,1.4588,Andesite_rect,15,0,15,0,1,
6612c334c29da57e3de974e8,SCR,2024-06-20_16h30.38.603,LearnStrategy,2023.2.3,MacIntel,59.88023952,3,1,1,0.227113715,-0.388858507,1,0,0,1.5125,Gabbro_15,4,15,1,6,1.512,4,15,-0.307886285,-0.266944444,1,0,0,2.1125,Andesite_rect,1,2.112,0,0,0,0,0,1,,,,,,,,,,,,,
6612c334c29da57e3de974e8,SCR,2024-06-20_16h30.38.603,LearnStrategy,2023.2.3,MacIntel,59.88023952,3,1,2,-0.230394965,0.060499132,1,0,0,1.549,Pegmatite_10,6,10,4,3,1.549,6,10,0.133020833,-0.388689236,1,0,0,2.4766,Peridotite_rect,7,2.477,0,1,0,1,0,1,,,,,,,,,,,,,
6612c334c29da57e3de974e8,SCR,2024-06-20_16h30.38.603,LearnStrategy,2023.2.3,MacIntel,59.88023952,3,1,3,-0.073454861,-0.244409722,1,0,0,1.1823,Peridotite_12,7,12,2,4,1.182,7,12,0.134409722,-0.236384549,1,0,0,2.5936,Diorite_rect,3,2.594,0,2,0,2,0,1,,,,,,,,,,,,,
6612c334c29da57e3de974e8,SCR,2024-06-20_16h30.38.603,LearnStrategy,2023.2.3,MacIntel,59.88023952,3,1,4,-0.199444444,0.221805556,1,0,0,0.9472,Pumice_13,8,13,5,3,0.947,8,13,0.337296007,-0.412699653,1,0,0,1.5766,Pumice_rect,8,1.577,1,3,0,3,0,1,,,,,,,,,,,,,
6612c334c29da57e3de974e8,SCR,2024-06-20_16h30.38.603,LearnStrategy,2023.2.3,MacIntel,59.88023952,3,1,5,-0.101940104,-0.381310764,1,0,0,0.9829,Pegmatite_05,6,05,1,4,0.983,6,05,-0.337400174,-0.254457465,1,0,0,1.81,Andesite_rect,1,1.81,0,4,0,4,0,1,,,,,,,,,,,,,
6612c334c29da57e3de974e8,SCR,2024-06-20_16h30.38.603,LearnStrategy,2023.2.3,MacIntel,59.88023952,3,1,6,0.098242187,0.411189236,1,0,0,1.0155,Gabbro_12,4,12,6,5,1.016,4,12,-0.130373264,-0.238081597,1,0,0,1.8773,Basalt_rect,2,1.877,0,5,0,5,0,1,,,,,,,,,,,,,
6612c334c29da57e3de974e8,SCR,2024-06-20_16h30.38.603,LearnStrategy,2023.2.3,MacIntel,59.88023952,3,1,7,0.070837674,-0.261480035,1,0,0,0.9318,Diorite_13,3,13,2,5,0.932,3,13,-0.339431424,-0.261744792,1,0,0,1.8795,Andesite_rect,1,1.88,0,6,0,6,0,1,,,,,,,,,,,,,
6612c334c29da57e3de974e8,SCR,2024-06-20_16h30.38.603,LearnStrategy,2023.2.3,MacIntel,59.88023952,3,1,8,0.368641493,0.382213542,1,0,0,1.2322,Gabbro_16,4,16,6,7,1.232,4,16,0.375243056,-0.233289931,1,0,0,1.5601,Gabbro_rect,4,1.56,1,7,0,7,0,1,,,,,,,,,,,,,
6612c334c29da57e3de974e8,SCR,2024-06-20_16h30.38.603,LearnStrategy,2023.2.3,MacIntel,59.88023952,3,1,9,0.225737847,-0.43094184,1,0,0,0.8998,Gabbro_15,4,15,1,6,0.9,4,15,0.145894097,-0.246809896,1,0,0,1.5929,Diorite_rect,3,1.593,0,8,0,8,0,1,,,,,,,,,,,,,
6612c334c29da57e3de974e8,SCR,2024-06-20_16h30.38.603,LearnStrategy,2023.2.3,MacIntel,59.88023952,3,1,10,-0.363710937,-0.231302083,1,0,0,1.0821,Diorite_07,3,07,2,2,1.082,3,07,0.102760417,-0.231588542,1,0,0,0.9449,Diorite_rect,3,0.945,1,9,0,9,0,1,,,,,,,,,,,,,
6612c334c29da57e3de974e8,SCR,2024-06-20_16h30.38.603,LearnStrategy,2023.2.3,MacIntel,59.88023952,3,1,11,-0.413420139,0.40437934,1,0,0,1.132,Diorite_10,3,10,6,2,1.132,3,10,0.38281684,-0.240390625,1,0,0,1.6941,Gabbro_rect,4,1.694,0,10,0,10,0,1,,,,,,,,,,,,,
6612c334c29da57e3de974e8,SCR,2024-06-20_16h30.38.603,LearnStrategy,2023.2.3,MacIntel,59.88023952,3,1,12,-0.058220486,0.122747396,1,0,0,0.6813,Peridotite_05,7,05,4,4,0.681,7,05,0.085056424,-0.420477431,1,0,0,5.1106,Peridotite_rect,7,5.111,1,11,0,11,0,1,,,,,,,,,,,,,
6612c334c29da57e3de974e8,SCR,2024-06-20_16h30.38.603,LearnStrategy,2023.2.3,MacIntel,59.88023952,3,1,13,-0.547174479,0.425633681,1,0,0,1.1472,Basalt_08,2,08,6,1,1.147,2,08,-0.109717882,-0.238723958,1,0,0,1.2277,Basalt_rect,2,1.228,1,12,0,12,0,1,,,,,,,,,,,,,
6612c334c29da57e3de974e8,SCR,2024-06-20_16h30.38.603,LearnStrategy,2023.2.3,MacIntel,59.88023952,3,1,14,-0.065125868,-0.228372396,1,0,0,1.1823,Peridotite_12,7,12,2,4,1.182,7,12,0.124730903,-0.235065104,1,0,0,1.5936,Diorite_rect,3,1.594,0,13,0,13,0,1,,,,,,,,,,,,,
6612c334c29da57e3de974e8,SCR,2024-06-20_16h30.38.603,LearnStrategy,2023.2.3,MacIntel,59.88023952,3,1,15,-0.262647569,0.412465278,1,0,0,1.0492,Andesite_14,1,14,6,3,1.049,1,14,-0.374227431,-0.238368056,1,0,0,1.658,Andesite_rect,1,1.658,1,14,0,14,0,1,,,,,,,,,,,,,
6612c334c29da57e3de974e8,SCR,2024-06-20_16h30.38.603,LearnStrategy,2023.2.3,MacIntel,59.88023952,3,1,16,0.403975694,-0.242712674,1,0,0,0.8654,Diorite_12,3,12,2,7,0.865,3,12,0.403975694,-0.242712674,1,0,0,0.8271,Gabbro_rect,4,0.827,0,15,0,15,0,1,,,,,,,,,,,,,
6612c334c29da57e3de974e8,SCR,2024-06-20_16h30.38.603,LearnStrategy,2023.2.3,MacIntel,59.88023952,3,2,1,,,,,,,,7,13,,,,,,,,,,,,,7,3.06,1,,,,,,0.083841146,-0.395998264,1,0,0,3.0597,Peridotite_rect,0,0,0,0,1,
6612c334c29da57e3de974e8,SCR,2024-06-20_16h30.38.603,LearnStrategy,2023.2.3,MacIntel,59.88023952,3,2,2,,,,,,,,5,04,,,,,,,,,,,,,5,1.11,1,,,,,,-0.368667535,-0.39781684,1,0,0,1.1095,Obsidian_rect,1,0,1,0,1,
6612c334c29da57e3de974e8,SCR,2024-06-20_16h30.38.603,LearnStrategy,2023.2.3,MacIntel,59.88023952,3,2,3,,,,,,,,1,09,,,,,,,,,,,,,1,6.509,1,,,,,,-0.389943576,-0.248506944,1,0,0,6.5089,Andesite_rect,2,0,2,0,1,
6612c334c29da57e3de974e8,SCR,2024-06-20_16h30.38.603,LearnStrategy,2023.2.3,MacIntel,59.88023952,3,2,4,,,,,,,,6,09,,,,,,,,,,,,,6,1.955,1,,,,,,-0.116640625,-0.400672743,1,0,0,1.955,Pegmatite_rect,3,0,3,0,1,
6612c334c29da57e3de974e8,SCR,2024-06-20_16h30.38.603,LearnStrategy,2023.2.3,MacIntel,59.88023952,3,2,5,,,,,,,,8,14,,,,,,,,,,,,,8,1.177,1,,,,,,0.356189236,-0.402747396,1,0,0,1.1766,Pumice_rect,4,0,4,0,1,
6612c334c29da57e3de974e8,SCR,2024-06-20_16h30.38.603,LearnStrategy,2023.2.3,MacIntel,59.88023952,3,2,6,,,,,,,,1,04,,,,,,,,,,,,,4,2.993,0,,,,,,0.318476563,-0.255338542,1,0,0,2.9926,Gabbro_rect,5,0,5,0,1,
6612c334c29da57e3de974e8,SCR,2024-06-20_16h30.38.603,LearnStrategy,2023.2.3,MacIntel,59.88023952,3,2,7,,,,,,,,6,13,,,,,,,,,,,,,3,2.393,0,,,,,,0.171840278,-0.268476563,1,0,0,2.393,Diorite_rect,6,0,6,0,1,
6612c334c29da57e3de974e8,SCR,2024-06-20_16h30.38.603,LearnStrategy,2023.2.3,MacIntel,59.88023952,3,2,8,,,,,,,,2,05,,,,,,,,,,,,,2,2.269,1,,,,,,-0.042769097,-0.259032118,1,0,0,2.2695,Basalt_rect,7,0,7,0,1,
6612c334c29da57e3de974e8,SCR,2024-06-20_16h30.38.603,LearnStrategy,2023.2.3,MacIntel,59.88023952,3,2,9,,,,,,,,8,08,,,,,,,,,,,,,8,1.309,1,,,,,,0.379492188,-0.400555556,1,0,0,1.3088,Pumice_rect,8,0,8,0,1,
6612c334c29da57e3de974e8,SCR,2024-06-20_16h30.38.603,LearnStrategy,2023.2.3,MacIntel,59.88023952,3,2,10,,,,,,,,4,14,,,,,,,,,,,,,4,3.509,1,,,,,,0.369157986,-0.261306424,1,0,0,3.5088,Gabbro_rect,9,0,9,0,1,
6612c334c29da57e3de974e8,SCR,2024-06-20_16h30.38.603,LearnStrategy,2023.2.3,MacIntel,59.88023952,3,2,11,,,,,,,,7,04,,,,,,,,,,,,,1,2.519,0,,,,,,-0.405789931,-0.259210069,1,0,0,2.5194,Andesite_rect,10,0,10,0,1,
6612c334c29da57e3de974e8,SCR,2024-06-20_16h30.38.603,LearnStrategy,2023.2.3,MacIntel,59.88023952,3,2,12,,,,,,,,5,05,,,,,,,,,,,,,5,1.75,1,,,,,,-0.433693576,-0.401445312,1,0,0,1.7496,Obsidian_rect,11,0,11,0,1,
6612c334c29da57e3de974e8,SCR,2024-06-20_16h30.38.603,LearnStrategy,2023.2.3,MacIntel,59.88023952,3,2,13,,,,,,,,3,02,,,,,,,,,,,,,3,4.993,1,,,,,,0.138450521,-0.27140625,1,0,0,4.9934,Diorite_rect,12,0,12,0,1,
6612c334c29da57e3de974e8,SCR,2024-06-20_16h30.38.603,LearnStrategy,2023.2.3,MacIntel,59.88023952,3,2,14,,,,,,,,3,08,,,,,,,,,,,,,1,3.468,0,,,,,,-0.327092014,-0.252213542,1,0,0,3.468,Andesite_rect,13,0,13,0,1,
6612c334c29da57e3de974e8,SCR,2024-06-20_16h30.38.603,LearnStrategy,2023.2.3,MacIntel,59.88023952,3,2,15,,,,,,,,4,11,,,,,,,,,,,,,2,1.027,0,,,,,,-0.121705729,-0.251072049,1,0,0,1.0272,Basalt_rect,14,0,14,0,1,
6612c334c29da57e3de974e8,SCR,2024-06-20_16h30.38.603,LearnStrategy,2023.2.3,MacIntel,59.88023952,3,2,16,,,,,,,,2,01,,,,,,,,,,,,,2,0.809,1,,,,,,-0.121705729,-0.251072049,1,0,0,0.809,Basalt_rect,15,0,15,0,1,
6612c334c29da57e3de974e8,SCR,2024-06-20_16h30.38.603,LearnStrategy,2023.2.3,MacIntel,59.88023952,4,1,1,0.530386285,0.095186632,1,0,0,1.0642,Pegmatite_07,6,07,4,8,1.064,6,07,-0.200394965,-0.389743924,1,0,0,2.5105,Pegmatite_rect,6,2.511,1,0,0,0,0,1,,,,,,,,,,,,,
6612c334c29da57e3de974e8,SCR,2024-06-20_16h30.38.603,LearnStrategy,2023.2.3,MacIntel,59.88023952,4,1,2,-0.078459201,0.221176215,1,0,0,1.0322,Gabbro_10,4,10,5,4,1.032,4,10,0.404583333,-0.239027778,1,0,0,3.21,Gabbro_rect,4,3.21,1,1,0,1,0,1,,,,,,,,,,,,,
6612c334c29da57e3de974e8,SCR,2024-06-20_16h30.38.603,LearnStrategy,2023.2.3,MacIntel,59.88023952,4,1,3,0.359991319,0.211497396,1,0,0,0.8313,Basalt_09,2,09,5,7,0.831,2,09,-0.07390625,-0.249578993,1,0,0,1.5934,Basalt_rect,2,1.593,1,2,0,2,0,1,,,,,,,,,,,,,
6612c334c29da57e3de974e8,SCR,2024-06-20_16h30.38.603,LearnStrategy,2023.2.3,MacIntel,59.88023952,4,1,4,0.529244792,-0.219084201,1,0,0,0.9827,Peridotite_10,7,10,2,8,0.983,7,10,0.149240451,-0.411358507,1,0,0,1.6799,Peridotite_rect,7,1.68,1,3,0,3,0,1,,,,,,,,,,,,,
6612c334c29da57e3de974e8,SCR,2024-06-20_16h30.38.603,LearnStrategy,2023.2.3,MacIntel,59.88023952,4,1,5,-0.076041667,-0.299192708,1,0,0,0.7156,Peridotite_12,7,12,2,4,0.716,7,12,0.104097222,-0.243172743,1,0,0,2.5943,Diorite_rect,3,2.594,0,4,0,4,0,1,,,,,,,,,,,,,
6612c334c29da57e3de974e8,SCR,2024-06-20_16h30.38.603,LearnStrategy,2023.2.3,MacIntel,59.88023952,4,1,6,0.078350694,-0.142578125,1,0,0,0.8309,Diorite_16,3,16,3,5,0.831,3,16,0.117994792,-0.263025174,1,0,0,3.3464,Diorite_rect,3,3.346,1,5,0,5,0,1,,,,,,,,,,,,,
6612c334c29da57e3de974e8,SCR,2024-06-20_16h30.38.603,LearnStrategy,2023.2.3,MacIntel,59.88023952,4,1,7,-0.380368924,-0.267265625,1,0,0,0.9974,Diorite_07,3,07,2,2,0.997,3,07,0.081046007,-0.237907986,1,0,0,1.7265,Diorite_rect,3,1.726,1,6,0,6,0,1,,,,,,,,,,,,,
6612c334c29da57e3de974e8,SCR,2024-06-20_16h30.38.603,LearnStrategy,2023.2.3,MacIntel,59.88023952,4,1,8,-0.384626736,-0.234709201,1,0,0,1.1154,Diorite_07,3,07,2,2,1.115,3,07,0.143029514,-0.243923611,1,0,0,0.977,Diorite_rect,3,0.977,1,7,0,7,0,1,,,,,,,,,,,,,
6612c334c29da57e3de974e8,SCR,2024-06-20_16h30.38.603,LearnStrategy,2023.2.3,MacIntel,59.88023952,4,1,9,-0.510086806,0.067782118,1,0,0,1.1329,Pegmatite_11,6,11,4,1,1.133,6,11,0.166519097,-0.402313368,1,0,0,4.2604,Peridotite_rect,7,4.26,0,8,0,8,0,1,,,,,,,,,,,,,
6612c334c29da57e3de974e8,SCR,2024-06-20_16h30.38.603,LearnStrategy,2023.2.3,MacIntel,59.88023952,4,1,10,0.060490451,0.419014757,1,0,0,1.1315,Gabbro_12,4,12,6,5,1.131,4,12,-0.197925347,-0.235460069,1,0,0,0.8091,Basalt_rect,2,0.809,0,9,0,9,0,1,,,,,,,,,,,,,
6612c334c29da57e3de974e8,SCR,2024-06-20_16h30.38.603,LearnStrategy,2023.2.3,MacIntel,59.88023952,4,1,11,-0.231388889,0.395026042,1,0,0,1.0485,Andesite_14,1,14,6,3,1.048,1,14,-0.392543403,-0.250989583,1,0,0,1.6438,Andesite_rect,1,1.644,1,10,0,10,0,1,,,,,,,,,,,,,
6612c334c29da57e3de974e8,SCR,2024-06-20_16h30.38.603,LearnStrategy,2023.2.3,MacIntel,59.88023952,4,1,12,-0.078793403,0.289635417,1,0,0,0.8821,Gabbro_10,4,10,5,4,0.882,4,10,0.40828559,-0.234509549,1,0,0,2.3602,Gabbro_rect,4,2.36,1,11,0,11,0,1,,,,,,,,,,,,,
6612c334c29da57e3de974e8,SCR,2024-06-20_16h30.38.603,LearnStrategy,2023.2.3,MacIntel,59.88023952,4,1,13,-0.379305556,0.411124132,1,0,0,1.1647,Diorite_10,3,10,6,2,1.165,3,10,0.130685764,-0.2378125,1,0,0,1.4925,Diorite_rect,3,1.492,1,12,0,12,0,1,,,,,,,,,,,,,
6612c334c29da57e3de974e8,SCR,2024-06-20_16h30.38.603,LearnStrategy,2023.2.3,MacIntel,59.88023952,4,1,14,-0.210928819,-0.44531684,1,0,0,0.8821,Andesite_03,1,03,1,3,0.882,1,03,-0.3940625,-0.248645833,1,0,0,1.5584,Andesite_rect,1,1.558,1,13,0,13,0,1,,,,,,,,,,,,,
6612c334c29da57e3de974e8,SCR,2024-06-20_16h30.38.603,LearnStrategy,2023.2.3,MacIntel,59.88023952,4,1,15,-0.389817708,0.225707465,1,0,0,1.0314,Peridotite_07,7,07,5,2,1.031,7,07,-0.113645833,-0.378780382,1,0,0,2.0779,Pegmatite_rect,6,2.078,0,14,0,14,0,1,,,,,,,,,,,,,
6612c334c29da57e3de974e8,SCR,2024-06-20_16h30.38.603,LearnStrategy,2023.2.3,MacIntel,59.88023952,4,1,16,0.257222222,-0.426961806,1,0,0,0.982,Gabbro_15,4,15,1,6,0.982,4,15,-0.454422743,-0.260638021,1,0,0,1.677,Andesite_rect,1,1.677,0,15,0,15,0,1,,,,,,,,,,,,,
6612c334c29da57e3de974e8,SCR,2024-06-20_16h30.38.603,LearnStrategy,2023.2.3,MacIntel,59.88023952,4,2,1,,,,,,,,7,13,,,,,,,,,,,,,7,4.727,1,,,,,,0.158862847,-0.393854167,1,0,0,4.7266,Peridotite_rect,0,0,0,0,1,
6612c334c29da57e3de974e8,SCR,2024-06-20_16h30.38.603,LearnStrategy,2023.2.3,MacIntel,59.88023952,4,2,2,,,,,,,,6,08,,,,,,,,,,,,,5,1.735,0,,,,,,-0.372686632,-0.399236111,1,0,0,1.7354,Obsidian_rect,1,0,1,0,1,
6612c334c29da57e3de974e8,SCR,2024-06-20_16h30.38.603,LearnStrategy,2023.2.3,MacIntel,59.88023952,4,2,3,,,,,,,,3,14,,,,,,,,,,,,,3,2.234,1,,,,,,0.141697049,-0.233728299,1,0,0,2.2341,Diorite_rect,2,0,2,0,1,
6612c334c29da57e3de974e8,SCR,2024-06-20_16h30.38.603,LearnStrategy,2023.2.3,MacIntel,59.88023952,4,2,4,,,,,,,,3,08,,,,,,,,,,,,,3,2.826,1,,,,,,0.141697049,-0.233728299,1,0,0,2.8263,Diorite_rect,3,0,3,0,1,
6612c334c29da57e3de974e8,SCR,2024-06-20_16h30.38.603,LearnStrategy,2023.2.3,MacIntel,59.88023952,4,2,5,,,,,,,,1,09,,,,,,,,,,,,,2,1.817,0,,,,,,-0.103741319,-0.266497396,1,0,0,1.8166,Basalt_rect,4,0,4,0,1,
6612c334c29da57e3de974e8,SCR,2024-06-20_16h30.38.603,LearnStrategy,2023.2.3,MacIntel,59.88023952,4,2,6,,,,,,,,2,04,,,,,,,,,,,,,2,1.259,1,,,,,,-0.103741319,-0.266497396,1,0,0,1.2588,Basalt_rect,5,0,5,0,1,
6612c334c29da57e3de974e8,SCR,2024-06-20_16h30.38.603,LearnStrategy,2023.2.3,MacIntel,59.88023952,4,2,7,,,,,,,,4,11,,,,,,,,,,,,,2,1.524,0,,,,,,-0.103741319,-0.266497396,1,0,0,1.5243,Basalt_rect,6,0,6,0,1,
6612c334c29da57e3de974e8,SCR,2024-06-20_16h30.38.603,LearnStrategy,2023.2.3,MacIntel,59.88023952,4,2,8,,,,,,,,8,03,,,,,,,,,,,,,8,1.275,1,,,,,,0.343250868,-0.382417535,1,0,0,1.2752,Pumice_rect,7,0,7,0,1,
6612c334c29da57e3de974e8,SCR,2024-06-20_16h30.38.603,LearnStrategy,2023.2.3,MacIntel,59.88023952,4,2,9,,,,,,,,1,01,,,,,,,,,,,,,4,3.309,0,,,,,,0.428255208,-0.244565972,1,0,0,3.3092,Gabbro_rect,8,0,8,0,1,
6612c334c29da57e3de974e8,SCR,2024-06-20_16h30.38.603,LearnStrategy,2023.2.3,MacIntel,59.88023952,4,2,10,,,,,,,,6,12,,,,,,,,,,,,,6,2.992,1,,,,,,-0.141475694,-0.410698785,1,0,0,2.9917,Pegmatite_rect,9,0,9,0,1,
6612c334c29da57e3de974e8,SCR,2024-06-20_16h30.38.603,LearnStrategy,2023.2.3,MacIntel,59.88023952,4,2,11,,,,,,,,4,14,,,,,,,,,,,,,4,2.92,1,,,,,,0.434552951,-0.230030382,1,0,0,2.9196,Gabbro_rect,10,0,10,0,1,
6612c334c29da57e3de974e8,SCR,2024-06-20_16h30.38.603,LearnStrategy,2023.2.3,MacIntel,59.88023952,4,2,12,,,,,,,,5,05,,,,,,,,,,,,,5,1.402,1,,,,,,-0.417730035,-0.411931424,1,0,0,1.4021,Obsidian_rect,11,0,11,0,1,
6612c334c29da57e3de974e8,SCR,2024-06-20_16h30.38.603,LearnStrategy,2023.2.3,MacIntel,59.88023952,4,2,13,,,,,,,,5,14,,,,,,,,,,,,,5,0.81,1,,,,,,-0.417730035,-0.411931424,1,0,0,0.8099,Obsidian_rect,12,0,12,0,1,
6612c334c29da57e3de974e8,SCR,2024-06-20_16h30.38.603,LearnStrategy,2023.2.3,MacIntel,59.88023952,4,2,14,,,,,,,,2,11,,,,,,,,,,,,,2,2.609,1,,,,,,-0.18171875,-0.258576389,1,0,0,2.609,Basalt_rect,13,0,13,0,1,
6612c334c29da57e3de974e8,SCR,2024-06-20_16h30.38.603,LearnStrategy,2023.2.3,MacIntel,59.88023952,4,2,15,,,,,,,,8,08,,,,,,,,,,,,,8,1.435,1,,,,,,0.401657986,-0.396006944,1,0,0,1.435,Pumice_rect,14,0,14,0,1,
6612c334c29da57e3de974e8,SCR,2024-06-20_16h30.38.603,LearnStrategy,2023.2.3,MacIntel,59.88023952,4,2,16,,,,,,,,7,08,,,,,,,,,,,,,7,2.796,1,,,,,,0.127092014,-0.403493924,1,0,0,2.7961,Peridotite_rect,15,0,15,0,1,
6612c334c29da57e3de974e8,SCR,2024-06-20_16h30.38.603,LearnStrategy,2023.2.3,MacIntel,59.88023952,5,1,1,-0.398624132,-0.42796441,1,0,0,1.1666,Obsidian_16,5,16,1,2,1.167,5,16,-0.38546875,-0.395907118,1,0,0,0.6408,Obsidian_rect,5,0.641,1,0,0,0,0,1,,,,,,,,,,,,,
6612c334c29da57e3de974e8,SCR,2024-06-20_16h30.38.603,LearnStrategy,2023.2.3,MacIntel,59.88023952,5,1,2,0.396749132,-0.093515625,1,0,0,0.8322,Andesite_07,1,07,3,7,0.832,1,07,0.158493924,-0.249366319,1,0,0,3.4273,Diorite_rect,3,3.427,0,1,0,1,0,1,,,,,,,,,,,,,
6612c334c29da57e3de974e8,SCR,2024-06-20_16h30.38.603,LearnStrategy,2023.2.3,MacIntel,59.88023952,5,1,3,-0.389713542,-0.279227431,1,0,0,1.0148,Diorite_07,3,07,2,2,1.015,3,07,0.127981771,-0.238307292,1,0,0,1.8945,Diorite_rect,3,1.894,1,2,0,2,0,1,,,,,,,,,,,,,
6612c334c29da57e3de974e8,SCR,2024-06-20_16h30.38.603,LearnStrategy,2023.2.3,MacIntel,59.88023952,5,1,4,-0.545342882,0.069578993,1,0,0,0.9989,Pegmatite_11,6,11,4,1,0.999,6,11,-0.094756944,-0.416354167,1,0,0,0.9262,Pegmatite_rect,6,0.926,1,3,0,3,0,1,,,,,,,,,,,,,
6612c334c29da57e3de974e8,SCR,2024-06-20_16h30.38.603,LearnStrategy,2023.2.3,MacIntel,59.88023952,5,1,5,0.091054687,-0.40390191,1,0,0,0.9662,Gabbro_09,4,09,1,5,0.966,4,09,0.355538194,-0.246063368,1,0,0,2.9933,Gabbro_rect,4,2.993,1,4,0,4,0,1,,,,,,,,,,,,,
6612c334c29da57e3de974e8,SCR,2024-06-20_16h30.38.603,LearnStrategy,2023.2.3,MacIntel,59.88023952,5,1,6,0.04140625,0.381397569,1,0,0,1.7469,Gabbro_12,4,12,6,5,1.747,4,12,-0.12281684,-0.249696181,1,0,0,1.6109,Basalt_rect,2,1.611,0,5,0,5,0,1,,,,,,,,,,,,,
6612c334c29da57e3de974e8,SCR,2024-06-20_16h30.38.603,LearnStrategy,2023.2.3,MacIntel,59.88023952,5,1,7,-0.050564236,0.094978299,1,0,0,0.7827,Peridotite_05,7,05,4,4,0.783,7,05,0.156150174,-0.397725694,1,0,0,1.1437,Peridotite_rect,7,1.144,1,6,0,6,0,1,,,,,,,,,,,,,
6612c334c29da57e3de974e8,SCR,2024-06-20_16h30.38.603,LearnStrategy,2023.2.3,MacIntel,59.88023952,5,1,8,-0.360863715,-0.105073785,1,0,0,1.2475,Basalt_02,2,02,3,2,1.248,2,02,-0.101935764,-0.243793403,1,0,0,0.8939,Basalt_rect,2,0.894,1,7,0,7,0,1,,,,,,,,,,,,,
6612c334c29da57e3de974e8,SCR,2024-06-20_16h30.38.603,LearnStrategy,2023.2.3,MacIntel,59.88023952,5,1,9,-0.349913194,-0.254053819,1,0,0,0.866,Diorite_07,3,07,2,2,0.866,3,07,0.106006944,-0.237977431,1,0,0,1.528,Diorite_rect,3,1.528,1,8,0,8,0,1,,,,,,,,,,,,,
6612c334c29da57e3de974e8,SCR,2024-06-20_16h30.38.603,LearnStrategy,2023.2.3,MacIntel,59.88023952,5,1,10,0.207599826,0.069878472,1,0,0,0.7152,Andesite_06,1,06,4,6,0.715,1,06,0.154878472,-0.266202257,1,0,0,2.6106,Diorite_rect,3,2.611,0,9,0,9,0,1,,,,,,,,,,,,,
6612c334c29da57e3de974e8,SCR,2024-06-20_16h30.38.603,LearnStrategy,2023.2.3,MacIntel,59.88023952,5,1,11,0.091371528,-0.455460069,1,0,0,0.7817,Gabbro_09,4,09,1,5,0.782,4,09,0.393862847,-0.241896701,1,0,0,1.7091,Gabbro_rect,4,1.709,1,10,0,10,0,1,,,,,,,,,,,,,
6612c334c29da57e3de974e8,SCR,2024-06-20_16h30.38.603,LearnStrategy,2023.2.3,MacIntel,59.88023952,5,1,12,0.583385417,0.434240451,1,0,0,0.9836,Andesite_05,1,05,6,8,0.984,1,05,-0.321614583,-0.231302083,1,0,0,1.1949,Andesite_rect,1,1.195,1,11,0,11,0,1,,,,,,,,,,,,,
6612c334c29da57e3de974e8,SCR,2024-06-20_16h30.38.603,LearnStrategy,2023.2.3,MacIntel,59.88023952,5,1,13,0.428476562,0.112795139,1,0,0,1.0984,Pegmatite_15,6,15,4,7,1.098,6,15,-0.156835937,-0.410768229,1,0,0,1.278,Pegmatite_rect,6,1.278,1,12,0,12,0,1,,,,,,,,,,,,,
6612c334c29da57e3de974e8,SCR,2024-06-20_16h30.38.603,LearnStrategy,2023.2.3,MacIntel,59.88023952,5,1,14,-0.190295139,0.076432292,1,0,0,0.7814,Pegmatite_10,6,10,4,3,0.781,6,10,-0.090251736,-0.381957465,1,0,0,1.2101,Pegmatite_rect,6,1.21,1,13,0,13,0,1,,,,,,,,,,,,,
6612c334c29da57e3de974e8,SCR,2024-06-20_16h30.38.603,LearnStrategy,2023.2.3,MacIntel,59.88023952,5,1,15,0.255199653,-0.375850694,1,0,0,0.8974,Gabbro_15,4,15,1,6,0.897,4,15,0.370117188,-0.242157118,1,0,0,1.3933,Gabbro_rect,4,1.393,1,14,0,14,0,1,,,,,,,,,,,,,
6612c334c29da57e3de974e8,SCR,2024-06-20_16h30.38.603,LearnStrategy,2023.2.3,MacIntel,59.88023952,5,1,16,0.230742188,0.230768229,1,0,0,1.5482,Peridotite_06,7,06,5,6,1.548,7,06,0.117222222,-0.409188368,1,0,0,1.2605,Peridotite_rect,7,1.26,1,15,0,15,0,1,,,,,,,,,,,,,
6612c334c29da57e3de974e8,SCR,2024-06-20_16h30.38.603,LearnStrategy,2023.2.3,MacIntel,59.88023952,5,2,1,,,,,,,,8,14,,,,,,,,,,,,,8,1.008,1,,,,,,0.323728299,-0.388689236,1,0,0,1.0082,Pumice_rect,0,0,0,0,1,
6612c334c29da57e3de974e8,SCR,2024-06-20_16h30.38.603,LearnStrategy,2023.2.3,MacIntel,59.88023952,5,2,2,,,,,,,,7,16,,,,,,,,,,,,,7,3.377,1,,,,,,0.191597222,-0.399131944,1,0,0,3.3769,Peridotite_rect,1,0,1,0,1,
6612c334c29da57e3de974e8,SCR,2024-06-20_16h30.38.603,LearnStrategy,2023.2.3,MacIntel,59.88023952,5,2,3,,,,,,,,1,04,,,,,,,,,,,,,3,5.168,0,,,,,,0.141111111,-0.254752604,1,0,0,5.1675,Diorite_rect,2,0,2,0,1,
6612c334c29da57e3de974e8,SCR,2024-06-20_16h30.38.603,LearnStrategy,2023.2.3,MacIntel,59.88023952,5,2,4,,,,,,,,3,06,,,,,,,,,,,,,4,5.202,0,,,,,,0.349631076,-0.23171875,1,0,0,5.2018,Gabbro_rect,3,0,3,0,1,
6612c334c29da57e3de974e8,SCR,2024-06-20_16h30.38.603,LearnStrategy,2023.2.3,MacIntel,59.88023952,5,2,5,,,,,,,,5,11,,,,,,,,,,,,,5,1.601,1,,,,,,-0.396032986,-0.406644965,1,0,0,1.6015,Obsidian_rect,4,0,4,0,1,
6612c334c29da57e3de974e8,SCR,2024-06-20_16h30.38.603,LearnStrategy,2023.2.3,MacIntel,59.88023952,5,2,6,,,,,,,,2,05,,,,,,,,,,,,,2,1.641,1,,,,,,-0.122890625,-0.248302951,1,0,0,1.6409,Basalt_rect,5,0,5,0,1,
6612c334c29da57e3de974e8,SCR,2024-06-20_16h30.38.603,LearnStrategy,2023.2.3,MacIntel,59.88023952,5,2,7,,,,,,,,6,16,,,,,,,,,,,,,6,4.326,1,,,,,,-0.125238715,-0.401822917,1,0,0,4.3258,Pegmatite_rect,6,0,6,0,1,
6612c334c29da57e3de974e8,SCR,2024-06-20_16h30.38.603,LearnStrategy,2023.2.3,MacIntel,59.88023952,5,2,8,,,,,,,,8,02,,,,,,,,,,,,,8,2.468,1,,,,,,0.361844618,-0.387361111,1,0,0,2.4677,Pumice_rect,7,0,7,0,1,
6612c334c29da57e3de974e8,SCR,2024-06-20_16h30.38.603,LearnStrategy,2023.2.3,MacIntel,59.88023952,5,2,9,,,,,,,,6,06,,,,,,,,,,,,,6,3.65,1,,,,,,-0.111601563,-0.395264757,1,0,0,3.6503,Pegmatite_rect,8,0,8,0,1,
6612c334c29da57e3de974e8,SCR,2024-06-20_16h30.38.603,LearnStrategy,2023.2.3,MacIntel,59.88023952,5,2,10,,,,,,,,5,04,,,,,,,,,,,,,5,1.252,1,,,,,,-0.337829861,-0.39562934,1,0,0,1.2521,Obsidian_rect,9,0,9,0,1,
6612c334c29da57e3de974e8,SCR,2024-06-20_16h30.38.603,LearnStrategy,2023.2.3,MacIntel,59.88023952,5,2,11,,,,,,,,4,05,,,,,,,,,,,,,4,3.993,1,,,,,,0.376184896,-0.239769965,1,0,0,3.9931,Gabbro_rect,10,0,10,0,1,
6612c334c29da57e3de974e8,SCR,2024-06-20_16h30.38.603,LearnStrategy,2023.2.3,MacIntel,59.88023952,5,2,12,,,,,,,,2,01,,,,,,,,,,,,,2,1.403,1,,,,,,-0.069791667,-0.257877604,1,0,0,1.4027,Basalt_rect,11,0,11,0,1,
6612c334c29da57e3de974e8,SCR,2024-06-20_16h30.38.603,LearnStrategy,2023.2.3,MacIntel,59.88023952,5,2,13,,,,,,,,3,02,,,,,,,,,,,,,3,4.009,1,,,,,,0.105902778,-0.249921875,1,0,0,4.0087,Diorite_rect,12,0,12,0,1,
6612c334c29da57e3de974e8,SCR,2024-06-20_16h30.38.603,LearnStrategy,2023.2.3,MacIntel,59.88023952,5,2,14,,,,,,,,7,04,,,,,,,,,,,,,1,1.319,0,,,,,,-0.419926215,-0.238376736,1,0,0,1.3191,Andesite_rect,13,0,13,0,1,
6612c334c29da57e3de974e8,SCR,2024-06-20_16h30.38.603,LearnStrategy,2023.2.3,MacIntel,59.88023952,5,2,15,,,,,,,,4,03,,,,,,,,,,,,,4,3.209,1,,,,,,0.352469618,-0.253098958,1,0,0,3.209,Gabbro_rect,14,0,14,0,1,
6612c334c29da57e3de974e8,SCR,2024-06-20_16h30.38.603,LearnStrategy,2023.2.3,MacIntel,59.88023952,5,2,16,,,,,,,,1,02,,,,,,,,,,,,,1,3.168,1,,,,,,-0.384257813,-0.263949653,1,0,0,3.1679,Andesite_rect,15,0,15,0,1,
6612c334c29da57e3de974e8,SCR,2024-06-20_16h30.38.603,LearnStrategy,2023.2.3,MacIntel,59.88023952,6,1,1,-0.530138889,0.393710938,1,0,0,1.3312,Basalt_08,2,08,6,1,1.331,2,08,-0.169791667,-0.252777778,1,0,0,1.2757,Basalt_rect,2,1.276,1,0,0,0,0,1,,,,,,,,,,,,,
6612c334c29da57e3de974e8,SCR,2024-06-20_16h30.38.603,LearnStrategy,2023.2.3,MacIntel,59.88023952,6,1,2,0.250590278,0.062447917,1,0,0,0.5819,Andesite_06,1,06,4,6,0.582,1,06,-0.325043403,-0.233415799,1,0,0,2.4437,Andesite_rect,1,2.444,1,1,0,1,0,1,,,,,,,,,,,,,
6612c334c29da57e3de974e8,SCR,2024-06-20_16h30.38.603,LearnStrategy,2023.2.3,MacIntel,59.88023952,6,1,3,-0.533962674,0.253311632,1,0,0,1.7302,Pumice_04,8,04,5,1,1.73,8,04,0.388802083,-0.393572049,1,0,0,1.8603,Pumice_rect,8,1.86,1,2,0,2,0,1,,,,,,,,,,,,,
6612c334c29da57e3de974e8,SCR,2024-06-20_16h30.38.603,LearnStrategy,2023.2.3,MacIntel,59.88023952,6,1,4,0.233059896,-0.383815104,1,0,0,0.9814,Gabbro_15,4,15,1,6,0.981,4,15,0.358867188,-0.259865451,1,0,0,1.6444,Gabbro_rect,4,1.644,1,3,0,3,0,1,,,,,,,,,,,,,
6612c334c29da57e3de974e8,SCR,2024-06-20_16h30.38.603,LearnStrategy,2023.2.3,MacIntel,59.88023952,6,1,5,-0.075967882,0.09594184,1,0,0,0.5988,Peridotite_05,7,05,4,4,0.599,7,05,0.121284722,-0.378515625,1,0,0,1.1605,Peridotite_rect,7,1.16,1,4,0,4,0,1,,,,,,,,,,,,,
6612c334c29da57e3de974e8,SCR,2024-06-20_16h30.38.603,LearnStrategy,2023.2.3,MacIntel,59.88023952,6,1,6,0.101167535,-0.393884549,1,0,0,1.1154,Gabbro_09,4,09,1,5,1.115,4,09,0.103224826,-0.245386285,1,0,0,3.611,Diorite_rect,3,3.611,0,5,0,5,0,1,,,,,,,,,,,,,
6612c334c29da57e3de974e8,SCR,2024-06-20_16h30.38.603,LearnStrategy,2023.2.3,MacIntel,59.88023952,6,1,7,-0.231024306,0.367717014,1,0,0,0.9305,Andesite_14,1,14,6,3,0.93,1,14,-0.146579861,-0.415598958,1,0,0,2.3283,Pegmatite_rect,6,2.328,0,6,0,6,0,1,,,,,,,,,,,,,
6612c334c29da57e3de974e8,SCR,2024-06-20_16h30.38.603,LearnStrategy,2023.2.3,MacIntel,59.88023952,6,1,8,-0.053098958,0.092144097,1,0,0,0.7988,Peridotite_05,7,05,4,4,0.799,7,05,0.201145833,-0.408953993,1,0,0,0.6601,Peridotite_rect,7,0.66,1,7,0,7,0,1,,,,,,,,,,,,,
6612c334c29da57e3de974e8,SCR,2024-06-20_16h30.38.603,LearnStrategy,2023.2.3,MacIntel,59.88023952,6,1,9,0.077447917,0.403602431,1,0,0,0.9322,Gabbro_12,4,12,6,5,0.932,4,12,0.108511285,-0.2303125,1,0,0,4.4601,Diorite_rect,3,4.46,0,8,0,8,0,1,,,,,,,,,,,,,
6612c334c29da57e3de974e8,SCR,2024-06-20_16h30.38.603,LearnStrategy,2023.2.3,MacIntel,59.88023952,6,1,10,-0.059934896,-0.408567708,1,0,0,0.9977,Pegmatite_05,6,05,1,4,0.998,6,05,-0.115173611,-0.413628472,1,0,0,3.6602,Pegmatite_rect,6,3.66,1,9,0,9,0,1,,,,,,,,,,,,,
6612c334c29da57e3de974e8,SCR,2024-06-20_16h30.38.603,LearnStrategy,2023.2.3,MacIntel,59.88023952,6,1,11,0.081280382,-0.266215278,1,0,0,1.6142,Diorite_13,3,13,2,5,1.614,3,13,-0.341610243,-0.234414062,1,0,0,3.5798,Andesite_rect,1,3.58,0,10,0,10,0,1,,,,,,,,,,,,,
6612c334c29da57e3de974e8,SCR,2024-06-20_16h30.38.603,LearnStrategy,2023.2.3,MacIntel,59.88023952,6,1,12,-0.381271701,-0.226076389,1,0,0,0.949,Diorite_07,3,07,2,2,0.949,3,07,0.096701389,-0.240520833,1,0,0,1.9096,Diorite_rect,3,1.91,1,11,0,11,0,1,,,,,,,,,,,,,
6612c334c29da57e3de974e8,SCR,2024-06-20_16h30.38.603,LearnStrategy,2023.2.3,MacIntel,59.88023952,6,1,13,0.565013021,0.356827257,1,0,0,1.0996,Andesite_05,1,05,6,8,1.1,1,05,-0.412951389,-0.25531684,1,0,0,1.177,Andesite_rect,1,1.177,1,12,0,12,0,1,,,,,,,,,,,,,
6612c334c29da57e3de974e8,SCR,2024-06-20_16h30.38.603,LearnStrategy,2023.2.3,MacIntel,59.88023952,6,1,14,-0.212712674,0.13358941,1,0,0,1.3319,Pegmatite_10,6,10,4,3,1.332,6,10,-0.156861979,-0.401388889,1,0,0,2.9274,Pegmatite_rect,6,2.927,1,13,0,13,0,1,,,,,,,,,,,,,
6612c334c29da57e3de974e8,SCR,2024-06-20_16h30.38.603,LearnStrategy,2023.2.3,MacIntel,59.88023952,6,1,15,-0.370855035,-0.422899306,1,0,0,1.0825,Obsidian_16,5,16,1,2,1.082,5,16,-0.363945313,-0.389735243,1,0,0,0.493,Obsidian_rect,5,0.493,1,14,0,14,0,1,,,,,,,,,,,,,
6612c334c29da57e3de974e8,SCR,2024-06-20_16h30.38.603,LearnStrategy,2023.2.3,MacIntel,59.88023952,6,1,16,-0.359717882,0.379401042,1,0,0,1.1156,Diorite_10,3,10,6,2,1.116,3,10,0.122829861,-0.245655382,1,0,0,2.2435,Diorite_rect,3,2.243,1,15,0,15,0,1,,,,,,,,,,,,,
6612c334c29da57e3de974e8,SCR,2024-06-20_16h30.38.603,LearnStrategy,2023.2.3,MacIntel,59.88023952,6,2,1,,,,,,,,2,06,,,,,,,,,,,,,2,1.993,1,,,,,,-0.100403646,-0.248789062,1,0,0,1.9934,Basalt_rect,0,0,0,0,1,
6612c334c29da57e3de974e8,SCR,2024-06-20_16h30.38.603,LearnStrategy,2023.2.3,MacIntel,59.88023952,6,2,2,,,,,,,,8,16,,,,,,,,,,,,,8,1.276,1,,,,,,0.384709201,-0.402013889,1,0,0,1.2762,Pumice_rect,1,0,1,0,1,
6612c334c29da57e3de974e8,SCR,2024-06-20_16h30.38.603,LearnStrategy,2023.2.3,MacIntel,59.88023952,6,2,3,,,,,,,,6,09,,,,,,,,,,,,,6,2.877,1,,,,,,-0.117647569,-0.415451389,1,0,0,2.8767,Pegmatite_rect,2,0,2,0,1,
6612c334c29da57e3de974e8,SCR,2024-06-20_16h30.38.603,LearnStrategy,2023.2.3,MacIntel,59.88023952,6,2,4,,,,,,,,4,13,,,,,,,,,,,,,4,4.443,1,,,,,,0.333550347,-0.243116319,1,0,0,4.4427,Gabbro_rect,3,0,3,0,1,
6612c334c29da57e3de974e8,SCR,2024-06-20_16h30.38.603,LearnStrategy,2023.2.3,MacIntel,59.88023952,6,2,5,,,,,,,,1,16,,,,,,,,,,,,,3,3.836,0,,,,,,0.162304687,-0.250768229,1,0,0,3.8355,Diorite_rect,4,0,4,0,1,
6612c334c29da57e3de974e8,SCR,2024-06-20_16h30.38.603,LearnStrategy,2023.2.3,MacIntel,59.88023952,6,2,6,,,,,,,,4,01,,,,,,,,,,,,,7,5.368,0,,,,,,0.160516493,-0.417317708,1,0,0,5.3679,Peridotite_rect,5,0,5,0,1,
6612c334c29da57e3de974e8,SCR,2024-06-20_16h30.38.603,LearnStrategy,2023.2.3,MacIntel,59.88023952,6,2,7,,,,,,,,7,14,,,,,,,,,,,,,3,5.368,0,,,,,,0.132430556,-0.257921007,1,0,0,5.3682,Diorite_rect,6,0,6,0,1,
6612c334c29da57e3de974e8,SCR,2024-06-20_16h30.38.603,LearnStrategy,2023.2.3,MacIntel,59.88023952,6,2,8,,,,,,,,7,15,,,,,,,,,,,,,7,1.467,1,,,,,,0.136293403,-0.39234809,1,0,0,1.4671,Peridotite_rect,7,0,7,0,1,
6612c334c29da57e3de974e8,SCR,2024-06-20_16h30.38.603,LearnStrategy,2023.2.3,MacIntel,59.88023952,6,2,9,,,,,,,,5,06,,,,,,,,,,,,,5,1.177,1,,,,,,-0.395759549,-0.417686632,1,0,0,1.1773,Obsidian_rect,8,0,8,0,1,
6612c334c29da57e3de974e8,SCR,2024-06-20_16h30.38.603,LearnStrategy,2023.2.3,MacIntel,59.88023952,6,2,10,,,,,,,,1,11,,,,,,,,,,,,,1,1.975,1,,,,,,-0.383138021,-0.255759549,1,0,0,1.9754,Andesite_rect,9,0,9,0,1,
6612c334c29da57e3de974e8,SCR,2024-06-20_16h30.38.603,LearnStrategy,2023.2.3,MacIntel,59.88023952,6,2,11,,,,,,,,5,08,,,,,,,,,,,,,5,1.176,1,,,,,,-0.379375,-0.407105035,1,0,0,1.1763,Obsidian_rect,10,0,10,0,1,
6612c334c29da57e3de974e8,SCR,2024-06-20_16h30.38.603,LearnStrategy,2023.2.3,MacIntel,59.88023952,6,2,12,,,,,,,,3,11,,,,,,,,,,,,,3,3.542,1,,,,,,0.111575521,-0.24358941,1,0,0,3.5422,Diorite_rect,11,0,11,0,1,
6612c334c29da57e3de974e8,SCR,2024-06-20_16h30.38.603,LearnStrategy,2023.2.3,MacIntel,59.88023952,6,2,13,,,,,,,,8,15,,,,,,,,,,,,,8,1.918,1,,,,,,0.340768229,-0.395698785,1,0,0,1.9182,Pumice_rect,12,0,12,0,1,
6612c334c29da57e3de974e8,SCR,2024-06-20_16h30.38.603,LearnStrategy,2023.2.3,MacIntel,59.88023952,6,2,14,,,,,,,,3,09,,,,,,,,,,,,,1,1.826,0,,,,,,-0.358237847,-0.250894097,1,0,0,1.8264,Andesite_rect,13,0,13,0,1,
6612c334c29da57e3de974e8,SCR,2024-06-20_16h30.38.603,LearnStrategy,2023.2.3,MacIntel,59.88023952,6,2,15,,,,,,,,2,16,,,,,,,,,,,,,2,1.992,1,,,,,,-0.141484375,-0.233841146,1,0,0,1.9925,Basalt_rect,14,0,14,0,1,
6612c334c29da57e3de974e8,SCR,2024-06-20_16h30.38.603,LearnStrategy,2023.2.3,MacIntel,59.88023952,6,2,16,,,,,,,,6,13,,,,,,,,,,,,,7,5.109,0,,,,,,0.131697049,-0.390026042,1,0,0,5.1094,Peridotite_rect,15,0,15,0,1,
6612c334c29da57e3de974e8,SCR,2024-06-20_16h30.38.603,LearnStrategy,2023.2.3,MacIntel,59.88023952,7,1,1,-0.055855035,0.087265625,1,0,0,0.5824,Peridotite_05,7,05,4,4,0.582,7,05,0.132482639,-0.397291667,1,0,0,1.793,Peridotite_rect,7,1.793,1,0,0,0,0,1,,,,,,,,,,,,,
6612c334c29da57e3de974e8,SCR,2024-06-20_16h30.38.603,LearnStrategy,2023.2.3,MacIntel,59.88023952,7,1,2,-0.049153646,0.098320313,1,0,0,0.7152,Peridotite_05,7,05,4,4,0.715,7,05,0.212842882,-0.400486111,1,0,0,0.8103,Peridotite_rect,7,0.81,1,1,0,1,0,1,,,,,,,,,,,,,
6612c334c29da57e3de974e8,SCR,2024-06-20_16h30.38.603,LearnStrategy,2023.2.3,MacIntel,59.88023952,7,1,3,-0.522912326,0.401488715,1,0,0,1.0654,Basalt_08,2,08,6,1,1.065,2,08,-0.133337674,-0.24125,1,0,0,0.8781,Basalt_rect,2,0.878,1,2,0,2,0,1,,,,,,,,,,,,,
6612c334c29da57e3de974e8,SCR,2024-06-20_16h30.38.603,LearnStrategy,2023.2.3,MacIntel,59.88023952,7,1,4,-0.229570313,0.406336806,1,0,0,0.8823,Andesite_14,1,14,6,3,0.882,1,14,0.141571181,-0.258667535,1,0,0,2.4434,Diorite_rect,3,2.443,0,3,0,3,0,1,,,,,,,,,,,,,
6612c334c29da57e3de974e8,SCR,2024-06-20_16h30.38.603,LearnStrategy,2023.2.3,MacIntel,59.88023952,7,1,5,-0.080112847,0.245625,1,0,0,0.7484,Gabbro_10,4,10,5,4,0.748,4,10,0.347708333,-0.254809028,1,0,0,4.8109,Gabbro_rect,4,4.811,1,4,0,4,0,1,,,,,,,,,,,,,
6612c334c29da57e3de974e8,SCR,2024-06-20_16h30.38.603,LearnStrategy,2023.2.3,MacIntel,59.88023952,7,1,6,0.219652778,0.271467014,1,0,0,1.0328,Peridotite_06,7,06,5,6,1.033,7,06,0.098146701,-0.40952691,1,0,0,1.2923,Peridotite_rect,7,1.292,1,5,0,5,0,1,,,,,,,,,,,,,
6612c334c29da57e3de974e8,SCR,2024-06-20_16h30.38.603,LearnStrategy,2023.2.3,MacIntel,59.88023952,7,1,7,0.397439236,0.072517361,1,0,0,0.8987,Pegmatite_15,6,15,4,7,0.899,6,15,-0.130008681,-0.394361979,1,0,0,0.9599,Pegmatite_rect,6,0.96,1,6,0,6,0,1,,,,,,,,,,,,,
6612c334c29da57e3de974e8,SCR,2024-06-20_16h30.38.603,LearnStrategy,2023.2.3,MacIntel,59.88023952,7,1,8,-0.208732639,0.089661458,1,0,0,0.7986,Pegmatite_10,6,10,4,3,0.799,6,10,-0.111310764,-0.399140625,1,0,0,1.327,Pegmatite_rect,6,1.327,1,7,0,7,0,1,,,,,,,,,,,,,
6612c334c29da57e3de974e8,SCR,2024-06-20_16h30.38.603,LearnStrategy,2023.2.3,MacIntel,59.88023952,7,1,9,0.115703125,-0.144622396,1,0,0,1.3174,Diorite_16,3,16,3,5,1.317,3,16,0.120850694,-0.245277778,1,0,0,1.4264,Diorite_rect,3,1.426,1,8,0,8,0,1,,,,,,,,,,,,,
6612c334c29da57e3de974e8,SCR,2024-06-20_16h30.38.603,LearnStrategy,2023.2.3,MacIntel,59.88023952,7,1,10,0.516124132,-0.075460069,1,0,0,0.7997,Gabbro_08,4,08,3,8,0.8,4,08,0.37937934,-0.248203125,1,0,0,3.1265,Gabbro_rect,4,3.127,1,9,0,9,0,1,,,,,,,,,,,,,
6612c334c29da57e3de974e8,SCR,2024-06-20_16h30.38.603,LearnStrategy,2023.2.3,MacIntel,59.88023952,7,1,11,-0.210594618,0.367165799,1,0,0,1.0824,Andesite_14,1,14,6,3,1.082,1,14,-0.375021701,-0.24499566,1,0,0,4.1285,Andesite_rect,1,4.129,1,10,0,10,0,1,,,,,,,,,,,,,
6612c334c29da57e3de974e8,SCR,2024-06-20_16h30.38.603,LearnStrategy,2023.2.3,MacIntel,59.88023952,7,1,12,0.072517361,-0.387478299,1,0,0,0.9655,Gabbro_09,4,09,1,5,0.966,4,09,0.337421875,-0.248042535,1,0,0,2.2602,Gabbro_rect,4,2.26,1,11,0,11,0,1,,,,,,,,,,,,,
6612c334c29da57e3de974e8,SCR,2024-06-20_16h30.38.603,LearnStrategy,2023.2.3,MacIntel,59.88023952,7,1,13,0.070954861,-0.228359375,1,0,0,1.0159,Diorite_13,3,13,2,5,1.016,3,13,0.080425347,-0.247821181,1,0,0,1.376,Diorite_rect,3,1.376,1,12,0,12,0,1,,,,,,,,,,,,,
6612c334c29da57e3de974e8,SCR,2024-06-20_16h30.38.603,LearnStrategy,2023.2.3,MacIntel,59.88023952,7,1,14,-0.212287326,-0.426875,1,0,0,0.9494,Andesite_03,1,03,1,3,0.949,1,03,-0.397838542,-0.259383681,1,0,0,2.5621,Andesite_rect,1,2.562,1,13,0,13,0,1,,,,,,,,,,,,,
6612c334c29da57e3de974e8,SCR,2024-06-20_16h30.38.603,LearnStrategy,2023.2.3,MacIntel,59.88023952,7,1,15,0.071137153,0.088420139,1,0,0,0.7478,Diorite_15,3,15,4,5,0.748,3,15,0.156835937,-0.239986979,1,0,0,2.4443,Diorite_rect,3,2.444,1,14,0,14,0,1,,,,,,,,,,,,,
6612c334c29da57e3de974e8,SCR,2024-06-20_16h30.38.603,LearnStrategy,2023.2.3,MacIntel,59.88023952,7,1,16,0.060217014,0.29125434,1,0,0,0.6148,Obsidian_02,5,02,5,5,0.615,5,02,-0.366675347,-0.389118924,1,0,0,1.1425,Obsidian_rect,5,1.142,1,15,0,15,0,1,,,,,,,,,,,,,
6612c334c29da57e3de974e8,SCR,2024-06-20_16h30.38.603,LearnStrategy,2023.2.3,MacIntel,59.88023952,7,2,1,,,,,,,,2,11,,,,,,,,,,,,,4,15.427,0,,,,,,0.372881944,-0.24843316,1,0,0,15.427,Gabbro_rect,0,0,0,0,1,
6612c334c29da57e3de974e8,SCR,2024-06-20_16h30.38.603,LearnStrategy,2023.2.3,MacIntel,59.88023952,7,2,2,,,,,,,,4,01,,,,,,,,,,,,,3,5.335,0,,,,,,0.176809896,-0.248650174,1,0,0,5.335,Diorite_rect,1,0,1,0,1,
6612c334c29da57e3de974e8,SCR,2024-06-20_16h30.38.603,LearnStrategy,2023.2.3,MacIntel,59.88023952,7,2,3,,,,,,,,4,05,,,,,,,,,,,,,7,2.669,0,,,,,,0.152834201,-0.394353299,1,0,0,2.6688,Peridotite_rect,2,0,2,0,1,
6612c334c29da57e3de974e8,SCR,2024-06-20_16h30.38.603,LearnStrategy,2023.2.3,MacIntel,59.88023952,7,2,4,,,,,,,,3,09,,,,,,,,,,,,,3,1.886,1,,,,,,0.143528646,-0.266015625,1,0,0,1.8862,Diorite_rect,3,0,3,0,1,
6612c334c29da57e3de974e8,SCR,2024-06-20_16h30.38.603,LearnStrategy,2023.2.3,MacIntel,59.88023952,7,2,5,,,,,,,,1,16,,,,,,,,,,,,,1,1.674,1,,,,,,-0.316063368,-0.24672309,1,0,0,1.6738,Andesite_rect,4,0,4,0,1,
6612c334c29da57e3de974e8,SCR,2024-06-20_16h30.38.603,LearnStrategy,2023.2.3,MacIntel,59.88023952,7,2,6,,,,,,,,6,12,,,,,,,,,,,,,6,1.16,1,,,,,,-0.13374566,-0.408993056,1,0,0,1.1599,Pegmatite_rect,5,0,5,0,1,
6612c334c29da57e3de974e8,SCR,2024-06-20_16h30.38.603,LearnStrategy,2023.2.3,MacIntel,59.88023952,7,2,7,,,,,,,,3,08,,,,,,,,,,,,,3,4.459,1,,,,,,0.11937066,-0.245690104,1,0,0,4.4595,Diorite_rect,6,0,6,0,1,
6612c334c29da57e3de974e8,SCR,2024-06-20_16h30.38.603,LearnStrategy,2023.2.3,MacIntel,59.88023952,7,2,8,,,,,,,,5,05,,,,,,,,,,,,,5,1.268,1,,,,,,-0.428663194,-0.396679687,1,0,0,1.268,Obsidian_rect,7,0,7,0,1,
6612c334c29da57e3de974e8,SCR,2024-06-20_16h30.38.603,LearnStrategy,2023.2.3,MacIntel,59.88023952,7,2,9,,,,,,,,6,13,,,,,,,,,,,,,6,1.959,1,,,,,,-0.130638021,-0.396167535,1,0,0,1.9588,Pegmatite_rect,8,0,8,0,1,
6612c334c29da57e3de974e8,SCR,2024-06-20_16h30.38.603,LearnStrategy,2023.2.3,MacIntel,59.88023952,7,2,10,,,,,,,,7,04,,,,,,,,,,,,,1,1.824,0,,,,,,-0.355724826,-0.256875,1,0,0,1.824,Andesite_rect,9,0,9,0,1,
6612c334c29da57e3de974e8,SCR,2024-06-20_16h30.38.603,LearnStrategy,2023.2.3,MacIntel,59.88023952,7,2,11,,,,,,,,7,13,,,,,,,,,,,,,7,1.577,1,,,,,,0.113645833,-0.404700521,1,0,0,1.5768,Peridotite_rect,10,0,10,0,1,
6612c334c29da57e3de974e8,SCR,2024-06-20_16h30.38.603,LearnStrategy,2023.2.3,MacIntel,59.88023952,7,2,12,,,,,,,,2,04,,,,,,,,,,,,,2,1.277,1,,,,,,-0.107239583,-0.248871528,1,0,0,1.2767,Basalt_rect,11,0,11,0,1,
6612c334c29da57e3de974e8,SCR,2024-06-20_16h30.38.603,LearnStrategy,2023.2.3,MacIntel,59.88023952,7,2,13,,,,,,,,5,14,,,,,,,,,,,,,5,1.091,1,,,,,,-0.366640625,-0.387960069,1,0,0,1.0914,Obsidian_rect,12,0,12,0,1,
6612c334c29da57e3de974e8,SCR,2024-06-20_16h30.38.603,LearnStrategy,2023.2.3,MacIntel,59.88023952,7,2,14,,,,,,,,1,04,,,,,,,,,,,,,1,2.06,1,,,,,,-0.373797743,-0.255763889,1,0,0,2.0599,Andesite_rect,13,0,13,0,1,
6612c334c29da57e3de974e8,SCR,2024-06-20_16h30.38.603,LearnStrategy,2023.2.3,MacIntel,59.88023952,7,2,15,,,,,,,,8,15,,,,,,,,,,,,,8,1.147,1,,,,,,0.359418403,-0.408098958,1,0,0,1.1467,Pumice_rect,14,0,14,0,1,
6612c334c29da57e3de974e8,SCR,2024-06-20_16h30.38.603,LearnStrategy,2023.2.3,MacIntel,59.88023952,7,2,16,,,,,,,,8,03,,,,,,,,,,,,,8,0.793,1,,,,,,0.359418403,-0.408098958,1,0,0,0.7925,Pumice_rect,15,0,15,0,1,
6612c334c29da57e3de974e8,SCR,2024-06-20_16h30.38.603,LearnStrategy,2023.2.3,MacIntel,59.88023952,8,1,1,0.540568576,-0.236423611,1,0,0,1.2497,Peridotite_10,7,10,2,8,1.25,7,10,0.19047309,-0.392578125,1,0,0,1.0933,Peridotite_rect,7,1.093,1,0,0,0,0,1,,,,,,,,,,,,,
6612c334c29da57e3de974e8,SCR,2024-06-20_16h30.38.603,LearnStrategy,2023.2.3,MacIntel,59.88023952,8,1,2,-0.522122396,-0.270694444,1,0,0,1.065,Obsidian_09,5,09,2,1,1.065,5,09,-0.381662326,-0.420863715,1,0,0,0.5104,Obsidian_rect,5,0.51,1,1,0,1,0,1,,,,,,,,,,,,,
6612c334c29da57e3de974e8,SCR,2024-06-20_16h30.38.603,LearnStrategy,2023.2.3,MacIntel,59.88023952,8,1,3,0.194587674,0.102612847,1,0,0,0.999,Andesite_06,1,06,4,6,0.999,1,06,-0.380768229,-0.233042535,1,0,0,1.1272,Andesite_rect,1,1.127,1,2,0,2,0,1,,,,,,,,,,,,,
6612c334c29da57e3de974e8,SCR,2024-06-20_16h30.38.603,LearnStrategy,2023.2.3,MacIntel,59.88023952,8,1,4,-0.209231771,-0.226627604,1,0,0,1.0149,Basalt_14,2,14,2,3,1.015,2,14,0.364657118,-0.232118056,1,0,0,3.1126,Gabbro_rect,4,3.113,0,3,0,3,0,1,,,,,,,,,,,,,
6612c334c29da57e3de974e8,SCR,2024-06-20_16h30.38.603,LearnStrategy,2023.2.3,MacIntel,59.88023952,8,1,5,-0.057699653,0.236831597,1,0,0,0.8983,Gabbro_10,4,10,5,4,0.898,4,10,0.389882813,-0.229205729,1,0,0,2.2773,Gabbro_rect,4,2.277,1,4,0,4,0,1,,,,,,,,,,,,,
6612c334c29da57e3de974e8,SCR,2024-06-20_16h30.38.603,LearnStrategy,2023.2.3,MacIntel,59.88023952,8,1,6,-0.06281684,0.246462674,1,0,0,0.7488,Gabbro_10,4,10,5,4,0.749,4,10,0.397591146,-0.266948785,1,0,0,0.8101,Gabbro_rect,4,0.81,1,5,0,5,0,1,,,,,,,,,,,,,
6612c334c29da57e3de974e8,SCR,2024-06-20_16h30.38.603,LearnStrategy,2023.2.3,MacIntel,59.88023952,8,1,7,-0.086579861,0.096011285,1,0,0,0.5819,Peridotite_05,7,05,4,4,0.582,7,05,0.18905816,-0.411701389,1,0,0,0.827,Peridotite_rect,7,0.827,1,6,0,6,0,1,,,,,,,,,,,,,
6612c334c29da57e3de974e8,SCR,2024-06-20_16h30.38.603,LearnStrategy,2023.2.3,MacIntel,59.88023952,8,1,8,-0.096679688,-0.438016493,1,0,0,0.8153,Pegmatite_05,6,05,1,4,0.815,6,05,-0.129366319,-0.410243056,1,0,0,2.2634,Pegmatite_rect,6,2.263,1,7,0,7,0,1,,,,,,,,,,,,,
6612c334c29da57e3de974e8,SCR,2024-06-20_16h30.38.603,LearnStrategy,2023.2.3,MacIntel,59.88023952,8,1,9,-0.391666667,0.226901042,1,0,0,0.9978,Peridotite_07,7,07,5,2,0.998,7,07,0.148953993,-0.396219618,1,0,0,1.2937,Peridotite_rect,7,1.294,1,8,0,8,0,1,,,,,,,,,,,,,
6612c334c29da57e3de974e8,SCR,2024-06-20_16h30.38.603,LearnStrategy,2023.2.3,MacIntel,59.88023952,8,1,10,-0.344435764,-0.250329861,1,0,0,0.848,Diorite_07,3,07,2,2,0.848,3,07,0.121684028,-0.250928819,1,0,0,1.48,Diorite_rect,3,1.48,1,9,0,9,0,1,,,,,,,,,,,,,
6612c334c29da57e3de974e8,SCR,2024-06-20_16h30.38.603,LearnStrategy,2023.2.3,MacIntel,59.88023952,8,1,11,-0.231506076,-0.418559028,1,0,0,0.7983,Andesite_03,1,03,1,3,0.798,1,03,-0.367421875,-0.233854167,1,0,0,1.0602,Andesite_rect,1,1.06,1,10,0,10,0,1,,,,,,,,,,,,,
6612c334c29da57e3de974e8,SCR,2024-06-20_16h30.38.603,LearnStrategy,2023.2.3,MacIntel,59.88023952,8,1,12,-0.208381076,0.07796441,1,0,0,0.8989,Pegmatite_10,6,10,4,3,0.899,6,10,-0.105720486,-0.399635417,1,0,0,1.2935,Pegmatite_rect,6,1.293,1,11,0,11,0,1,,,,,,,,,,,,,
6612c334c29da57e3de974e8,SCR,2024-06-20_16h30.38.603,LearnStrategy,2023.2.3,MacIntel,59.88023952,8,1,13,0.203450521,-0.267921007,1,0,0,0.9647,Basalt_10,2,10,2,6,0.965,2,10,-0.067382813,-0.264184028,1,0,0,1.1137,Basalt_rect,2,1.114,1,12,0,12,0,1,,,,,,,,,,,,,
6612c334c29da57e3de974e8,SCR,2024-06-20_16h30.38.603,LearnStrategy,2023.2.3,MacIntel,59.88023952,8,1,14,0.069943576,-0.405520833,1,0,0,0.9818,Gabbro_09,4,09,1,5,0.982,4,09,0.420625,-0.242764757,1,0,0,2.5105,Gabbro_rect,4,2.511,1,13,0,13,0,1,,,,,,,,,,,,,
6612c334c29da57e3de974e8,SCR,2024-06-20_16h30.38.603,LearnStrategy,2023.2.3,MacIntel,59.88023952,8,1,15,0.383546007,-0.245,1,0,0,1.2323,Diorite_12,3,12,2,7,1.232,3,12,0.149548611,-0.230282118,1,0,0,1.3938,Diorite_rect,3,1.394,1,14,0,14,0,1,,,,,,,,,,,,,
6612c334c29da57e3de974e8,SCR,2024-06-20_16h30.38.603,LearnStrategy,2023.2.3,MacIntel,59.88023952,8,1,16,0.524210069,-0.06828125,1,0,0,1.0986,Gabbro_08,4,08,3,8,1.099,4,08,0.38515625,-0.254626736,1,0,0,1.9292,Gabbro_rect,4,1.929,1,15,0,15,0,1,,,,,,,,,,,,,
6612c334c29da57e3de974e8,SCR,2024-06-20_16h30.38.603,LearnStrategy,2023.2.3,MacIntel,59.88023952,8,2,1,,,,,,,,4,14,,,,,,,,,,,,,4,2.276,1,,,,,,0.344305556,-0.232782118,1,0,0,2.2763,Gabbro_rect,0,0,0,0,1,
6612c334c29da57e3de974e8,SCR,2024-06-20_16h30.38.603,LearnStrategy,2023.2.3,MacIntel,59.88023952,8,2,2,,,,,,,,7,08,,,,,,,,,,,,,7,1.192,1,,,,,,0.119908854,-0.414804687,1,0,0,1.1919,Peridotite_rect,1,0,1,0,1,
6612c334c29da57e3de974e8,SCR,2024-06-20_16h30.38.603,LearnStrategy,2023.2.3,MacIntel,59.88023952,8,2,3,,,,,,,,2,01,,,,,,,,,,,,,2,1.159,1,,,,,,-0.14030816,-0.269947917,1,0,0,1.1591,Basalt_rect,2,0,2,0,1,
6612c334c29da57e3de974e8,SCR,2024-06-20_16h30.38.603,LearnStrategy,2023.2.3,MacIntel,59.88023952,8,2,4,,,,,,,,1,01,,,,,,,,,,,,,3,7.726,0,,,,,,0.113962674,-0.244561632,1,0,0,7.7262,Diorite_rect,3,0,3,0,1,
6612c334c29da57e3de974e8,SCR,2024-06-20_16h30.38.603,LearnStrategy,2023.2.3,MacIntel,59.88023952,8,2,5,,,,,,,,8,08,,,,,,,,,,,,,8,1.217,1,,,,,,0.371028646,-0.404127604,1,0,0,1.2169,Pumice_rect,4,0,4,0,1,
6612c334c29da57e3de974e8,SCR,2024-06-20_16h30.38.603,LearnStrategy,2023.2.3,MacIntel,59.88023952,8,2,6,,,,,,,,5,11,,,,,,,,,,,,,5,0.945,1,,,,,,-0.421614583,-0.398190104,1,0,0,0.9451,Obsidian_rect,5,0,5,0,1,
6612c334c29da57e3de974e8,SCR,2024-06-20_16h30.38.603,LearnStrategy,2023.2.3,MacIntel,59.88023952,8,2,7,,,,,,,,2,05,,,,,,,,,,,,,2,1.109,1,,,,,,-0.154318576,-0.256966146,1,0,0,1.1088,Basalt_rect,6,0,6,0,1,
6612c334c29da57e3de974e8,SCR,2024-06-20_16h30.38.603,LearnStrategy,2023.2.3,MacIntel,59.88023952,8,2,8,,,,,,,,1,02,,,,,,,,,,,,,1,2.693,1,,,,,,-0.374561632,-0.250195312,1,0,0,2.6927,Andesite_rect,7,0,7,0,1,
6612c334c29da57e3de974e8,SCR,2024-06-20_16h30.38.603,LearnStrategy,2023.2.3,MacIntel,59.88023952,8,2,9,,,,,,,,3,02,,,,,,,,,,,,,3,4.148,1,,,,,,0.153606771,-0.228528646,1,0,0,4.1478,Diorite_rect,8,0,8,0,1,
6612c334c29da57e3de974e8,SCR,2024-06-20_16h30.38.603,LearnStrategy,2023.2.3,MacIntel,59.88023952,8,2,10,,,,,,,,4,13,,,,,,,,,,,,,1,5.919,0,,,,,,-0.41062066,-0.232643229,1,0,0,5.9188,Andesite_rect,9,0,9,0,1,
6612c334c29da57e3de974e8,SCR,2024-06-20_16h30.38.603,LearnStrategy,2023.2.3,MacIntel,59.88023952,8,2,11,,,,,,,,3,11,,,,,,,,,,,,,3,2.166,1,,,,,,0.104144965,-0.26312934,1,0,0,2.166,Diorite_rect,10,0,10,0,1,
6612c334c29da57e3de974e8,SCR,2024-06-20_16h30.38.603,LearnStrategy,2023.2.3,MacIntel,59.88023952,8,2,12,,,,,,,,6,06,,,,,,,,,,,,,6,1.152,1,,,,,,-0.183242187,-0.403242188,1,0,0,1.1524,Pegmatite_rect,11,0,11,0,1,
6612c334c29da57e3de974e8,SCR,2024-06-20_16h30.38.603,LearnStrategy,2023.2.3,MacIntel,59.88023952,8,2,13,,,,,,,,7,15,,,,,,,,,,,,,7,1.359,1,,,,,,0.151158854,-0.388342014,1,0,0,1.359,Peridotite_rect,12,0,12,0,1,
6612c334c29da57e3de974e8,SCR,2024-06-20_16h30.38.603,LearnStrategy,2023.2.3,MacIntel,59.88023952,8,2,14,,,,,,,,6,09,,,,,,,,,,,,,6,1.559,1,,,,,,-0.06750434,-0.389895833,1,0,0,1.559,Pegmatite_rect,13,0,13,0,1,
6612c334c29da57e3de974e8,SCR,2024-06-20_16h30.38.603,LearnStrategy,2023.2.3,MacIntel,59.88023952,8,2,15,,,,,,,,5,08,,,,,,,,,,,,,5,0.897,1,,,,,,-0.350889757,-0.417569444,1,0,0,0.8971,Obsidian_rect,14,0,14,0,1,
6612c334c29da57e3de974e8,SCR,2024-06-20_16h30.38.603,LearnStrategy,2023.2.3,MacIntel,59.88023952,8,2,16,,,,,,,,8,16,,,,,,,,,,,,,8,1.76,1,,,,,,0.345364583,-0.383697917,1,0,0,1.76,Pumice_rect,15,0,15,0,1,
6612c334c29da57e3de974e8,SCR,2024-06-20_16h30.38.603,LearnStrategy,2023.2.3,MacIntel,59.88023952,9,1,1,-0.344444444,-0.108368056,1,0,0,0.7472,Basalt_02,2,02,3,2,0.747,2,02,-0.120295139,-0.24016059,1,0,0,0.8466,Basalt_rect,2,0.847,1,0,0,0,0,1,,,,,,,,,,,,,
6612c334c29da57e3de974e8,SCR,2024-06-20_16h30.38.603,LearnStrategy,2023.2.3,MacIntel,59.88023952,9,1,2,0.548563368,0.411111111,1,0,0,1.8654,Andesite_05,1,05,6,8,1.865,1,05,-0.356154514,-0.249713542,1,0,0,1.8601,Andesite_rect,1,1.86,1,1,0,1,0,1,,,,,,,,,,,,,
6612c334c29da57e3de974e8,SCR,2024-06-20_16h30.38.603,LearnStrategy,2023.2.3,MacIntel,59.88023952,9,1,3,0.414110243,0.402682292,1,0,0,0.8989,Gabbro_16,4,16,6,7,0.899,4,16,0.429878472,-0.244665799,1,0,0,3.0104,Gabbro_rect,4,3.01,1,2,0,2,0,1,,,,,,,,,,,,,
6612c334c29da57e3de974e8,SCR,2024-06-20_16h30.38.603,LearnStrategy,2023.2.3,MacIntel,59.88023952,9,1,4,-0.374084201,-0.266970486,1,0,0,0.8816,Diorite_07,3,07,2,2,0.882,3,07,0.163554687,-0.234457465,1,0,0,1.4938,Diorite_rect,3,1.494,1,3,0,3,0,1,,,,,,,,,,,,,
6612c334c29da57e3de974e8,SCR,2024-06-20_16h30.38.603,LearnStrategy,2023.2.3,MacIntel,59.88023952,9,1,5,-0.111666667,-0.293676215,1,0,0,0.7987,Peridotite_12,7,12,2,4,0.799,7,12,0.159405382,-0.394097222,1,0,0,0.66,Peridotite_rect,7,0.66,1,4,0,4,0,1,,,,,,,,,,,,,
6612c334c29da57e3de974e8,SCR,2024-06-20_16h30.38.603,LearnStrategy,2023.2.3,MacIntel,59.88023952,9,1,6,-0.363016493,-0.380625,1,0,0,0.7991,Obsidian_16,5,16,1,2,0.799,5,16,-0.394301215,-0.400143229,1,0,0,1.0108,Obsidian_rect,5,1.011,1,5,0,5,0,1,,,,,,,,,,,,,
6612c334c29da57e3de974e8,SCR,2024-06-20_16h30.38.603,LearnStrategy,2023.2.3,MacIntel,59.88023952,9,1,7,-0.197586806,0.363125,0,0,1,1.6488,Andesite_14,1,14,6,3,1.649,1,14,-0.381176215,-0.231896701,1,0,0,2.2604,Andesite_rect,1,2.26,1,6,0,6,0,1,,,,,,,,,,,,,
6612c334c29da57e3de974e8,SCR,2024-06-20_16h30.38.603,LearnStrategy,2023.2.3,MacIntel,59.88023952,9,1,8,-0.059939236,-0.086037326,1,0,0,0.6496,Peridotite_02,7,02,3,4,0.65,7,02,0.1771875,-0.38187066,1,0,0,0.9936,Peridotite_rect,7,0.994,1,7,0,7,0,1,,,,,,,,,,,,,
6612c334c29da57e3de974e8,SCR,2024-06-20_16h30.38.603,LearnStrategy,2023.2.3,MacIntel,59.88023952,9,1,9,0.081137153,-0.417452257,1,0,0,0.8309,Gabbro_09,4,09,1,5,0.831,4,09,0.402764757,-0.235008681,1,0,0,2.8614,Gabbro_rect,4,2.861,1,8,0,8,0,1,,,,,,,,,,,,,
6612c334c29da57e3de974e8,SCR,2024-06-20_16h30.38.603,LearnStrategy,2023.2.3,MacIntel,59.88023952,9,1,10,-0.201835938,0.362912326,1,0,0,1.0661,Andesite_14,1,14,6,3,1.066,1,14,-0.371202257,-0.234240451,1,0,0,1.5605,Andesite_rect,1,1.56,1,9,0,9,0,1,,,,,,,,,,,,,
6612c334c29da57e3de974e8,SCR,2024-06-20_16h30.38.603,LearnStrategy,2023.2.3,MacIntel,59.88023952,9,1,11,0.576271701,-0.442786458,1,0,0,0.949,Pumice_06,8,06,1,8,0.949,8,06,0.456102431,-0.413962674,1,0,0,1.0602,Pumice_rect,8,1.06,1,10,0,10,0,1,,,,,,,,,,,,,
6612c334c29da57e3de974e8,SCR,2024-06-20_16h30.38.603,LearnStrategy,2023.2.3,MacIntel,59.88023952,9,1,12,0.079878472,0.403493924,1,0,0,1.0318,Gabbro_12,4,12,6,5,1.032,4,12,-0.088259549,-0.237682292,1,0,0,1.9287,Basalt_rect,2,1.929,0,11,0,11,0,1,,,,,,,,,,,,,
6612c334c29da57e3de974e8,SCR,2024-06-20_16h30.38.603,LearnStrategy,2023.2.3,MacIntel,59.88023952,9,1,13,0.082235243,-0.423871528,1,0,0,1.0986,Gabbro_09,4,09,1,5,1.099,4,09,0.34125434,-0.243784722,1,0,0,1.2951,Gabbro_rect,4,1.295,1,12,0,12,0,1,,,,,,,,,,,,,
6612c334c29da57e3de974e8,SCR,2024-06-20_16h30.38.603,LearnStrategy,2023.2.3,MacIntel,59.88023952,9,1,14,-0.063489583,-0.094179687,1,0,0,0.5644,Peridotite_02,7,02,3,4,0.564,7,02,0.183719618,-0.385143229,1,0,0,0.9615,Peridotite_rect,7,0.962,1,13,0,13,0,1,,,,,,,,,,,,,
6612c334c29da57e3de974e8,SCR,2024-06-20_16h30.38.603,LearnStrategy,2023.2.3,MacIntel,59.88023952,9,1,15,0.348940972,0.093524306,1,0,0,0.6982,Pegmatite_15,6,15,4,7,0.698,6,15,-0.117374132,-0.391974826,1,0,0,0.8105,Pegmatite_rect,6,0.81,1,14,0,14,0,1,,,,,,,,,,,,,
6612c334c29da57e3de974e8,SCR,2024-06-20_16h30.38.603,LearnStrategy,2023.2.3,MacIntel,59.88023952,9,1,16,0.06969184,-0.220034722,1,0,0,0.6139,Diorite_13,3,13,2,5,0.614,3,13,0.136397569,-0.232486979,1,0,0,1.0466,Diorite_rect,3,1.047,1,15,0,15,0,1,,,,,,,,,,,,,
6612c334c29da57e3de974e8,SCR,2024-06-20_16h30.38.603,LearnStrategy,2023.2.3,MacIntel,59.88023952,9,2,1,,,,,,,,6,16,,,,,,,,,,,,,6,6.527,1,,,,,,-0.121137153,-0.412330729,1,0,0,6.5274,Pegmatite_rect,0,0,0,0,1,
6612c334c29da57e3de974e8,SCR,2024-06-20_16h30.38.603,LearnStrategy,2023.2.3,MacIntel,59.88023952,9,2,2,,,,,,,,4,03,,,,,,,,,,,,,4,5.001,1,,,,,,0.388923611,-0.2453125,1,0,0,5.0011,Gabbro_rect,1,0,1,0,1,
6612c334c29da57e3de974e8,SCR,2024-06-20_16h30.38.603,LearnStrategy,2023.2.3,MacIntel,59.88023952,9,2,3,,,,,,,,4,11,,,,,,,,,,,,,4,3.918,1,,,,,,0.388923611,-0.2453125,1,0,0,3.9183,Gabbro_rect,2,0,2,0,1,
6612c334c29da57e3de974e8,SCR,2024-06-20_16h30.38.603,LearnStrategy,2023.2.3,MacIntel,59.88023952,9,2,4,,,,,,,,1,09,,,,,,,,,,,,,1,2.436,1,,,,,,-0.427838542,-0.250143229,1,0,0,2.4357,Andesite_rect,3,0,3,0,1,
6612c334c29da57e3de974e8,SCR,2024-06-20_16h30.38.603,LearnStrategy,2023.2.3,MacIntel,59.88023952,9,2,5,,,,,,,,5,04,,,,,,,,,,,,,5,0.985,1,,,,,,-0.427552083,-0.393459201,1,0,0,0.9849,Obsidian_rect,4,0,4,0,1,
6612c334c29da57e3de974e8,SCR,2024-06-20_16h30.38.603,LearnStrategy,2023.2.3,MacIntel,59.88023952,9,2,6,,,,,,,,1,11,,,,,,,,,,,,,1,2.31,1,,,,,,-0.383988715,-0.259392361,1,0,0,2.3104,Andesite_rect,5,0,5,0,1,
6612c334c29da57e3de974e8,SCR,2024-06-20_16h30.38.603,LearnStrategy,2023.2.3,MacIntel,59.88023952,9,2,7,,,,,,,,3,06,,,,,,,,,,,,,3,1.959,1,,,,,,0.132673611,-0.250182292,1,0,0,1.9589,Diorite_rect,6,0,6,0,1,
6612c334c29da57e3de974e8,SCR,2024-06-20_16h30.38.603,LearnStrategy,2023.2.3,MacIntel,59.88023952,9,2,8,,,,,,,,7,14,,,,,,,,,,,,,3,1.494,0,,,,,,0.132673611,-0.250182292,1,0,0,1.4941,Diorite_rect,7,0,7,0,1,
6612c334c29da57e3de974e8,SCR,2024-06-20_16h30.38.603,LearnStrategy,2023.2.3,MacIntel,59.88023952,9,2,9,,,,,,,,6,08,,,,,,,,,,,,,6,1.059,1,,,,,,-0.111427951,-0.393185764,1,0,0,1.0587,Pegmatite_rect,8,0,8,0,1,
6612c334c29da57e3de974e8,SCR,2024-06-20_16h30.38.603,LearnStrategy,2023.2.3,MacIntel,59.88023952,9,2,10,,,,,,,,3,14,,,,,,,,,,,,,3,2.58,1,,,,,,0.108962674,-0.260069444,1,0,0,2.5799,Diorite_rect,9,0,9,0,1,
6612c334c29da57e3de974e8,SCR,2024-06-20_16h30.38.603,LearnStrategy,2023.2.3,MacIntel,59.88023952,9,2,11,,,,,,,,2,06,,,,,,,,,,,,,2,1.213,1,,,,,,-0.134973958,-0.265043403,1,0,0,1.2129,Basalt_rect,10,0,10,0,1,
6612c334c29da57e3de974e8,SCR,2024-06-20_16h30.38.603,LearnStrategy,2023.2.3,MacIntel,59.88023952,9,2,12,,,,,,,,8,02,,,,,,,,,,,,,8,2.225,1,,,,,,0.400251736,-0.414309896,1,0,0,2.2253,Pumice_rect,11,0,11,0,1,
6612c334c29da57e3de974e8,SCR,2024-06-20_16h30.38.603,LearnStrategy,2023.2.3,MacIntel,59.88023952,9,2,13,,,,,,,,8,14,,,,,,,,,,,,,8,0.684,1,,,,,,0.400251736,-0.414309896,1,0,0,0.6844,Pumice_rect,12,0,12,0,1,
6612c334c29da57e3de974e8,SCR,2024-06-20_16h30.38.603,LearnStrategy,2023.2.3,MacIntel,59.88023952,9,2,14,,,,,,,,5,06,,,,,,,,,,,,,5,3.659,1,,,,,,-0.349735243,-0.400195313,1,0,0,3.6588,Obsidian_rect,13,0,13,0,1,
6612c334c29da57e3de974e8,SCR,2024-06-20_16h30.38.603,LearnStrategy,2023.2.3,MacIntel,59.88023952,9,2,15,,,,,,,,2,16,,,,,,,,,,,,,2,2.238,1,,,,,,-0.122795139,-0.253945313,1,0,0,2.238,Basalt_rect,14,0,14,0,1,
6612c334c29da57e3de974e8,SCR,2024-06-20_16h30.38.603,LearnStrategy,2023.2.3,MacIntel,59.88023952,9,2,16,,,,,,,,7,16,,,,,,,,,,,,,7,1.269,1,,,,,,0.069453125,-0.385885417,1,0,0,1.2694,Peridotite_rect,15,0,15,0,1,
6612c334c29da57e3de974e8,SCR,2024-06-20_16h30.38.603,LearnStrategy,2023.2.3,MacIntel,59.88023952,,,,,,,,,,,,,,,,,,,,,,,,,,,,,,,,,,,,,,,,,,,,,1
6612c334c29da57e3de974e8,SCR,2024-06-20_16h30.38.603,LearnStrategy,2023.2.3,MacIntel,59.88023952,,,,,,,,,,,,,,,,,,,,,,,,,,,,,,,,,,,,,,,,,,,,,
6612c334c29da57e3de974e8,SCR,2024-06-20_16h30.38.603,LearnStrategy,2023.2.3,MacIntel,59.88023952,,,,,,,,,,,5,10,1,1,,,,,,,,,,,,,,,,,,,,,,,,,,,,,,,
6612c334c29da57e3de974e8,SCR,2024-06-20_16h30.38.603,LearnStrategy,2023.2.3,MacIntel,59.88023952,,,,,,,,,,,5,16,1,2,,,,,,,,,,,,,,,,,,,,,,,,,,,,,,,
6612c334c29da57e3de974e8,SCR,2024-06-20_16h30.38.603,LearnStrategy,2023.2.3,MacIntel,59.88023952,,,,,,,,,,,1,03,1,3,,,,,,,,,,,,,,,,,,,,,,,,,,,,,,,
6612c334c29da57e3de974e8,SCR,2024-06-20_16h30.38.603,LearnStrategy,2023.2.3,MacIntel,59.88023952,,,,,,,,,,,6,05,1,4,,,,,,,,,,,,,,,,,,,,,,,,,,,,,,,
6612c334c29da57e3de974e8,SCR,2024-06-20_16h30.38.603,LearnStrategy,2023.2.3,MacIntel,59.88023952,,,,,,,,,,,4,09,1,5,,,,,,,,,,,,,,,,,,,,,,,,,,,,,,,
6612c334c29da57e3de974e8,SCR,2024-06-20_16h30.38.603,LearnStrategy,2023.2.3,MacIntel,59.88023952,,,,,,,,,,,4,15,1,6,,,,,,,,,,,,,,,,,,,,,,,,,,,,,,,
6612c334c29da57e3de974e8,SCR,2024-06-20_16h30.38.603,LearnStrategy,2023.2.3,MacIntel,59.88023952,,,,,,,,,,,1,10,1,7,,,,,,,,,,,,,,,,,,,,,,,,,,,,,,,
6612c334c29da57e3de974e8,SCR,2024-06-20_16h30.38.603,LearnStrategy,2023.2.3,MacIntel,59.88023952,,,,,,,,,,,8,06,1,8,,,,,,,,,,,,,,,,,,,,,,,,,,,,,,,
6612c334c29da57e3de974e8,SCR,2024-06-20_16h30.38.603,LearnStrategy,2023.2.3,MacIntel,59.88023952,,,,,,,,,,,5,09,2,1,,,,,,,,,,,,,,,,,,,,,,,,,,,,,,,
6612c334c29da57e3de974e8,SCR,2024-06-20_16h30.38.603,LearnStrategy,2023.2.3,MacIntel,59.88023952,,,,,,,,,,,3,07,2,2,,,,,,,,,,,,,,,,,,,,,,,,,,,,,,,
6612c334c29da57e3de974e8,SCR,2024-06-20_16h30.38.603,LearnStrategy,2023.2.3,MacIntel,59.88023952,,,,,,,,,,,2,14,2,3,,,,,,,,,,,,,,,,,,,,,,,,,,,,,,,
6612c334c29da57e3de974e8,SCR,2024-06-20_16h30.38.603,LearnStrategy,2023.2.3,MacIntel,59.88023952,,,,,,,,,,,7,12,2,4,,,,,,,,,,,,,,,,,,,,,,,,,,,,,,,
6612c334c29da57e3de974e8,SCR,2024-06-20_16h30.38.603,LearnStrategy,2023.2.3,MacIntel,59.88023952,,,,,,,,,,,3,13,2,5,,,,,,,,,,,,,,,,,,,,,,,,,,,,,,,
6612c334c29da57e3de974e8,SCR,2024-06-20_16h30.38.603,LearnStrategy,2023.2.3,MacIntel,59.88023952,,,,,,,,,,,2,10,2,6,,,,,,,,,,,,,,,,,,,,,,,,,,,,,,,
6612c334c29da57e3de974e8,SCR,2024-06-20_16h30.38.603,LearnStrategy,2023.2.3,MacIntel,59.88023952,,,,,,,,,,,3,12,2,7,,,,,,,,,,,,,,,,,,,,,,,,,,,,,,,
6612c334c29da57e3de974e8,SCR,2024-06-20_16h30.38.603,LearnStrategy,2023.2.3,MacIntel,59.88023952,,,,,,,,,,,7,10,2,8,,,,,,,,,,,,,,,,,,,,,,,,,,,,,,,
6612c334c29da57e3de974e8,SCR,2024-06-20_16h30.38.603,LearnStrategy,2023.2.3,MacIntel,59.88023952,,,,,,,,,,,6,03,3,1,,,,,,,,,,,,,,,,,,,,,,,,,,,,,,,
6612c334c29da57e3de974e8,SCR,2024-06-20_16h30.38.603,LearnStrategy,2023.2.3,MacIntel,59.88023952,,,,,,,,,,,2,02,3,2,,,,,,,,,,,,,,,,,,,,,,,,,,,,,,,
6612c334c29da57e3de974e8,SCR,2024-06-20_16h30.38.603,LearnStrategy,2023.2.3,MacIntel,59.88023952,,,,,,,,,,,8,09,3,3,,,,,,,,,,,,,,,,,,,,,,,,,,,,,,,
6612c334c29da57e3de974e8,SCR,2024-06-20_16h30.38.603,LearnStrategy,2023.2.3,MacIntel,59.88023952,,,,,,,,,,,7,02,3,4,,,,,,,,,,,,,,,,,,,,,,,,,,,,,,,
6612c334c29da57e3de974e8,SCR,2024-06-20_16h30.38.603,LearnStrategy,2023.2.3,MacIntel,59.88023952,,,,,,,,,,,3,16,3,5,,,,,,,,,,,,,,,,,,,,,,,,,,,,,,,
6612c334c29da57e3de974e8,SCR,2024-06-20_16h30.38.603,LearnStrategy,2023.2.3,MacIntel,59.88023952,,,,,,,,,,,2,12,3,6,,,,,,,,,,,,,,,,,,,,,,,,,,,,,,,
6612c334c29da57e3de974e8,SCR,2024-06-20_16h30.38.603,LearnStrategy,2023.2.3,MacIntel,59.88023952,,,,,,,,,,,1,07,3,7,,,,,,,,,,,,,,,,,,,,,,,,,,,,,,,
6612c334c29da57e3de974e8,SCR,2024-06-20_16h30.38.603,LearnStrategy,2023.2.3,MacIntel,59.88023952,,,,,,,,,,,4,08,3,8,,,,,,,,,,,,,,,,,,,,,,,,,,,,,,,
6612c334c29da57e3de974e8,SCR,2024-06-20_16h30.38.603,LearnStrategy,2023.2.3,MacIntel,59.88023952,,,,,,,,,,,6,11,4,1,,,,,,,,,,,,,,,,,,,,,,,,,,,,,,,
6612c334c29da57e3de974e8,SCR,2024-06-20_16h30.38.603,LearnStrategy,2023.2.3,MacIntel,59.88023952,,,,,,,,,,,5,07,4,2,,,,,,,,,,,,,,,,,,,,,,,,,,,,,,,
6612c334c29da57e3de974e8,SCR,2024-06-20_16h30.38.603,LearnStrategy,2023.2.3,MacIntel,59.88023952,,,,,,,,,,,6,10,4,3,,,,,,,,,,,,,,,,,,,,,,,,,,,,,,,
6612c334c29da57e3de974e8,SCR,2024-06-20_16h30.38.603,LearnStrategy,2023.2.3,MacIntel,59.88023952,,,,,,,,,,,7,05,4,4,,,,,,,,,,,,,,,,,,,,,,,,,,,,,,,
6612c334c29da57e3de974e8,SCR,2024-06-20_16h30.38.603,LearnStrategy,2023.2.3,MacIntel,59.88023952,,,,,,,,,,,3,15,4,5,,,,,,,,,,,,,,,,,,,,,,,,,,,,,,,
6612c334c29da57e3de974e8,SCR,2024-06-20_16h30.38.603,LearnStrategy,2023.2.3,MacIntel,59.88023952,,,,,,,,,,,1,06,4,6,,,,,,,,,,,,,,,,,,,,,,,,,,,,,,,
6612c334c29da57e3de974e8,SCR,2024-06-20_16h30.38.603,LearnStrategy,2023.2.3,MacIntel,59.88023952,,,,,,,,,,,6,15,4,7,,,,,,,,,,,,,,,,,,,,,,,,,,,,,,,
6612c334c29da57e3de974e8,SCR,2024-06-20_16h30.38.603,LearnStrategy,2023.2.3,MacIntel,59.88023952,,,,,,,,,,,6,07,4,8,,,,,,,,,,,,,,,,,,,,,,,,,,,,,,,
6612c334c29da57e3de974e8,SCR,2024-06-20_16h30.38.603,LearnStrategy,2023.2.3,MacIntel,59.88023952,,,,,,,,,,,8,04,5,1,,,,,,,,,,,,,,,,,,,,,,,,,,,,,,,
6612c334c29da57e3de974e8,SCR,2024-06-20_16h30.38.603,LearnStrategy,2023.2.3,MacIntel,59.88023952,,,,,,,,,,,7,07,5,2,,,,,,,,,,,,,,,,,,,,,,,,,,,,,,,
6612c334c29da57e3de974e8,SCR,2024-06-20_16h30.38.603,LearnStrategy,2023.2.3,MacIntel,59.88023952,,,,,,,,,,,8,13,5,3,,,,,,,,,,,,,,,,,,,,,,,,,,,,,,,
6612c334c29da57e3de974e8,SCR,2024-06-20_16h30.38.603,LearnStrategy,2023.2.3,MacIntel,59.88023952,,,,,,,,,,,4,10,5,4,,,,,,,,,,,,,,,,,,,,,,,,,,,,,,,
6612c334c29da57e3de974e8,SCR,2024-06-20_16h30.38.603,LearnStrategy,2023.2.3,MacIntel,59.88023952,,,,,,,,,,,5,02,5,5,,,,,,,,,,,,,,,,,,,,,,,,,,,,,,,
6612c334c29da57e3de974e8,SCR,2024-06-20_16h30.38.603,LearnStrategy,2023.2.3,MacIntel,59.88023952,,,,,,,,,,,7,06,5,6,,,,,,,,,,,,,,,,,,,,,,,,,,,,,,,
6612c334c29da57e3de974e8,SCR,2024-06-20_16h30.38.603,LearnStrategy,2023.2.3,MacIntel,59.88023952,,,,,,,,,,,2,09,5,7,,,,,,,,,,,,,,,,,,,,,,,,,,,,,,,
6612c334c29da57e3de974e8,SCR,2024-06-20_16h30.38.603,LearnStrategy,2023.2.3,MacIntel,59.88023952,,,,,,,,,,,8,05,5,8,,,,,,,,,,,,,,,,,,,,,,,,,,,,,,,
6612c334c29da57e3de974e8,SCR,2024-06-20_16h30.38.603,LearnStrategy,2023.2.3,MacIntel,59.88023952,,,,,,,,,,,2,08,6,1,,,,,,,,,,,,,,,,,,,,,,,,,,,,,,,
6612c334c29da57e3de974e8,SCR,2024-06-20_16h30.38.603,LearnStrategy,2023.2.3,MacIntel,59.88023952,,,,,,,,,,,3,10,6,2,,,,,,,,,,,,,,,,,,,,,,,,,,,,,,,
6612c334c29da57e3de974e8,SCR,2024-06-20_16h30.38.603,LearnStrategy,2023.2.3,MacIntel,59.88023952,,,,,,,,,,,1,14,6,3,,,,,,,,,,,,,,,,,,,,,,,,,,,,,,,
6612c334c29da57e3de974e8,SCR,2024-06-20_16h30.38.603,LearnStrategy,2023.2.3,MacIntel,59.88023952,,,,,,,,,,,5,12,6,4,,,,,,,,,,,,,,,,,,,,,,,,,,,,,,,
6612c334c29da57e3de974e8,SCR,2024-06-20_16h30.38.603,LearnStrategy,2023.2.3,MacIntel,59.88023952,,,,,,,,,,,4,12,6,5,,,,,,,,,,,,,,,,,,,,,,,,,,,,,,,
6612c334c29da57e3de974e8,SCR,2024-06-20_16h30.38.603,LearnStrategy,2023.2.3,MacIntel,59.88023952,,,,,,,,,,,8,10,6,6,,,,,,,,,,,,,,,,,,,,,,,,,,,,,,,
6612c334c29da57e3de974e8,SCR,2024-06-20_16h30.38.603,LearnStrategy,2023.2.3,MacIntel,59.88023952,,,,,,,,,,,4,16,6,7,,,,,,,,,,,,,,,,,,,,,,,,,,,,,,,
6612c334c29da57e3de974e8,SCR,2024-06-20_16h30.38.603,LearnStrategy,2023.2.3,MacIntel,59.88023952,,,,,,,,,,,1,05,6,8,,,,,,,,,,,,,,,,,,,,,,,,,,,,,,,