participant,condition,date,expName,psychopyVersion,OS,frameRate,block,phase,trial,learn_mouse.x,learn_mouse.y,learn_mouse.leftButton,learn_mouse.midButton,learn_mouse.rightButton,learn_mouse.time,learn_mouse.clicked_name,cat,token,row,col,t_select,cat_rec,token_rec,cat_mouse_l.x,cat_mouse_l.y,cat_mouse_l.leftButton,cat_mouse_l.midButton,cat_mouse_l.rightButton,cat_mouse_l.time,cat_mouse_l.clicked_name,resp,t_resp,corr,train_trials.thisRepN,train_trials.thisTrialN,train_trials.thisN,train_trials.thisIndex,train_trials.ran,cat_mouse_t.x,cat_mouse_t.y,cat_mouse_t.leftButton,cat_mouse_t.midButton,cat_mouse_t.rightButton,cat_mouse_t.time,cat_mouse_t.clicked_name,test_trials.thisRepN,test_trials.thisTrialN,test_trials.thisN,test_trials.thisIndex,test_trials.ran,Bonus
6614a41a93554ac9d5125ade,SCR,2024-06-26_13h38.16.856,LearnStrategy,2023.2.3,Win32,59.88023952,,,,,,,,,,,,,,,,,,,,,,,,,,,,,,,,,,,,,,,,,,,,,
6614a41a93554ac9d5125ade,SCR,2024-06-26_13h38.16.856,LearnStrategy,2023.2.3,Win32,59.88023952,1,1,1,-0.048177083,0.25390625,1,0,0,7.8153,Pegmatite_06,6,06,5,4,7.815,3,14,-0.145833333,-0.408854167,1,0,0,9.7323,Pegmatite_rect,6,9.732,1,0,0,0,0,1,,,,,,,,,,,,,
6614a41a93554ac9d5125ade,SCR,2024-06-26_13h38.16.856,LearnStrategy,2023.2.3,Win32,59.88023952,1,1,2,-0.213541667,0.37890625,1,0,0,7.8192,Basalt_08,2,08,6,3,7.819,4,05,0.403645833,-0.260416667,1,0,0,4.4846,Gabbro_rect,4,4.485,0,1,0,1,0,1,,,,,,,,,,,,,
6614a41a93554ac9d5125ade,SCR,2024-06-26_13h38.16.856,LearnStrategy,2023.2.3,Win32,59.88023952,1,1,3,0.21875,0.084635417,1,0,0,4.8909,Obsidian_04,5,04,4,6,4.891,8,08,-0.354166667,-0.25,1,0,0,3.1702,Andesite_rect,1,3.17,0,2,0,2,0,1,,,,,,,,,,,,,
6614a41a93554ac9d5125ade,SCR,2024-06-26_13h38.16.856,LearnStrategy,2023.2.3,Win32,59.88023952,1,1,4,0.393229167,-0.3828125,1,0,0,4.4627,Basalt_10,2,10,1,7,4.463,8,02,0.334635417,-0.26171875,1,0,0,1.6055,Gabbro_rect,4,1.606,0,3,0,3,0,1,,,,,,,,,,,,,
6614a41a93554ac9d5125ade,SCR,2024-06-26_13h38.16.856,LearnStrategy,2023.2.3,Win32,59.88023952,1,1,5,-0.548177083,-0.24609375,1,0,0,2.7291,Obsidian_07,5,07,2,1,2.729,7,05,0.404947917,-0.2578125,1,0,0,3.3125,Gabbro_rect,4,3.313,0,4,0,4,0,1,,,,,,,,,,,,,
6614a41a93554ac9d5125ade,SCR,2024-06-26_13h38.16.856,LearnStrategy,2023.2.3,Win32,59.88023952,1,1,6,0.078125,-0.415364583,1,0,0,2.752,Pegmatite_10,6,10,1,5,2.752,3,08,-0.09765625,-0.39453125,1,0,0,2.8128,Pegmatite_rect,6,2.813,1,5,0,5,0,1,,,,,,,,,,,,,
6614a41a93554ac9d5125ade,SCR,2024-06-26_13h38.16.856,LearnStrategy,2023.2.3,Win32,59.88023952,1,1,7,0.404947917,-0.411458333,1,0,0,9.1947,Basalt_10,2,10,1,7,9.195,2,12,-0.118489583,-0.25390625,1,0,0,3.7391,Basalt_rect,2,3.739,1,6,0,6,0,1,,,,,,,,,,,,,
6614a41a93554ac9d5125ade,SCR,2024-06-26_13h38.16.856,LearnStrategy,2023.2.3,Win32,59.88023952,1,1,8,-0.217447917,0.390625,1,0,0,8.1657,Basalt_08,2,08,6,3,8.166,6,03,-0.134114583,-0.25,1,0,0,3.8449,Basalt_rect,2,3.845,1,7,0,7,0,1,,,,,,,,,,,,,
6614a41a93554ac9d5125ade,SCR,2024-06-26_13h38.16.856,LearnStrategy,2023.2.3,Win32,59.88023952,1,1,9,-0.40234375,-0.08984375,1,0,0,9.3461,Obsidian_16,5,16,3,2,9.346,1,03,-0.376302083,-0.40234375,1,0,0,7.0549,Obsidian_rect,5,7.055,1,8,0,8,0,1,,,,,,,,,,,,,
6614a41a93554ac9d5125ade,SCR,2024-06-26_13h38.16.856,LearnStrategy,2023.2.3,Win32,59.88023952,1,1,10,-0.087239583,0.067708333,1,0,0,1.3452,Diorite_08,3,08,4,4,1.345,6,05,0.10546875,-0.259114583,1,0,0,1.3228,Diorite_rect,3,1.323,1,9,0,9,0,1,,,,,,,,,,,,,
6614a41a93554ac9d5125ade,SCR,2024-06-26_13h38.16.856,LearnStrategy,2023.2.3,Win32,59.88023952,1,1,11,-0.53515625,0.225260417,1,0,0,3.0117,Diorite_09,3,09,5,1,3.012,5,10,0.100260417,-0.255208333,1,0,0,1.4139,Diorite_rect,3,1.414,1,10,0,10,0,1,,,,,,,,,,,,,
6614a41a93554ac9d5125ade,SCR,2024-06-26_13h38.16.856,LearnStrategy,2023.2.3,Win32,59.88023952,1,1,12,-0.05078125,0.25,1,0,0,2.4632,Pegmatite_06,6,06,5,4,2.463,4,14,-0.08984375,-0.399739583,1,0,0,3.557,Pegmatite_rect,6,3.557,1,11,0,11,0,1,,,,,,,,,,,,,
6614a41a93554ac9d5125ade,SCR,2024-06-26_13h38.16.856,LearnStrategy,2023.2.3,Win32,59.88023952,1,1,13,-0.52734375,0.087239583,1,0,0,1.8803,Andesite_07,1,07,4,1,1.88,2,10,0.358072917,-0.255208333,1,0,0,1.5287,Gabbro_rect,4,1.529,0,12,0,12,0,1,,,,,,,,,,,,,
6614a41a93554ac9d5125ade,SCR,2024-06-26_13h38.16.856,LearnStrategy,2023.2.3,Win32,59.88023952,1,1,14,0.545572917,-0.109375,1,0,0,1.8476,Pumice_10,8,10,3,8,1.848,1,07,0.419270833,-0.252604167,1,0,0,2.5815,Gabbro_rect,4,2.582,0,13,0,13,0,1,,,,,,,,,,,,,
6614a41a93554ac9d5125ade,SCR,2024-06-26_13h38.16.856,LearnStrategy,2023.2.3,Win32,59.88023952,1,1,15,-0.404947917,-0.38671875,1,0,0,3.2956,Obsidian_06,5,06,1,2,3.296,5,08,-0.368489583,-0.399739583,1,0,0,12.0135,Obsidian_rect,5,12.014,1,14,0,14,0,1,,,,,,,,,,,,,
6614a41a93554ac9d5125ade,SCR,2024-06-26_13h38.16.856,LearnStrategy,2023.2.3,Win32,59.88023952,1,1,16,-0.540364583,0.444010417,1,0,0,1.2796,Andesite_03,1,03,6,1,1.28,7,16,-0.182291667,-0.268229167,1,0,0,3.8805,Basalt_rect,2,3.88,0,15,0,15,0,1,,,,,,,,,,,,,
6614a41a93554ac9d5125ade,SCR,2024-06-26_13h38.16.856,LearnStrategy,2023.2.3,Win32,59.88023952,1,2,1,,,,,,,,2,09,,,,,,,,,,,,,2,16.656,1,,,,,,-0.08203125,-0.24609375,1,0,0,16.6559,Basalt_rect,0,0,0,0,1,
6614a41a93554ac9d5125ade,SCR,2024-06-26_13h38.16.856,LearnStrategy,2023.2.3,Win32,59.88023952,1,2,2,,,,,,,,1,14,,,,,,,,,,,,,4,7.428,0,,,,,,0.424479167,-0.243489583,1,0,0,7.4275,Gabbro_rect,1,0,1,0,1,
6614a41a93554ac9d5125ade,SCR,2024-06-26_13h38.16.856,LearnStrategy,2023.2.3,Win32,59.88023952,1,2,3,,,,,,,,7,02,,,,,,,,,,,,,6,5.909,0,,,,,,-0.08984375,-0.389322917,1,0,0,5.9095,Pegmatite_rect,2,0,2,0,1,
6614a41a93554ac9d5125ade,SCR,2024-06-26_13h38.16.856,LearnStrategy,2023.2.3,Win32,59.88023952,1,2,4,,,,,,,,3,12,,,,,,,,,,,,,3,8.435,1,,,,,,0.184895833,-0.25,1,0,0,8.4348,Diorite_rect,3,0,3,0,1,
6614a41a93554ac9d5125ade,SCR,2024-06-26_13h38.16.856,LearnStrategy,2023.2.3,Win32,59.88023952,1,2,5,,,,,,,,4,08,,,,,,,,,,,,,8,3.619,0,,,,,,0.44921875,-0.389322917,1,0,0,3.6191,Pumice_rect,4,0,4,0,1,
6614a41a93554ac9d5125ade,SCR,2024-06-26_13h38.16.856,LearnStrategy,2023.2.3,Win32,59.88023952,1,2,6,,,,,,,,8,16,,,,,,,,,,,,,7,3.581,0,,,,,,0.147135417,-0.38671875,1,0,0,3.5807,Peridotite_rect,5,0,5,0,1,
6614a41a93554ac9d5125ade,SCR,2024-06-26_13h38.16.856,LearnStrategy,2023.2.3,Win32,59.88023952,1,2,7,,,,,,,,6,15,,,,,,,,,,,,,6,6.462,1,,,,,,-0.11328125,-0.384114583,1,0,0,6.4617,Pegmatite_rect,6,0,6,0,1,
6614a41a93554ac9d5125ade,SCR,2024-06-26_13h38.16.856,LearnStrategy,2023.2.3,Win32,59.88023952,1,2,8,,,,,,,,8,04,,,,,,,,,,,,,8,9.573,1,,,,,,0.393229167,-0.389322917,1,0,0,9.5732,Pumice_rect,7,0,7,0,1,
6614a41a93554ac9d5125ade,SCR,2024-06-26_13h38.16.856,LearnStrategy,2023.2.3,Win32,59.88023952,1,2,9,,,,,,,,2,02,,,,,,,,,,,,,5,2.182,0,,,,,,-0.3359375,-0.389322917,1,0,0,2.1825,Obsidian_rect,8,0,8,0,1,
6614a41a93554ac9d5125ade,SCR,2024-06-26_13h38.16.856,LearnStrategy,2023.2.3,Win32,59.88023952,1,2,10,,,,,,,,5,05,,,,,,,,,,,,,5,7.292,1,,,,,,-0.356770833,-0.385416667,1,0,0,7.2921,Obsidian_rect,9,0,9,0,1,
6614a41a93554ac9d5125ade,SCR,2024-06-26_13h38.16.856,LearnStrategy,2023.2.3,Win32,59.88023952,1,2,11,,,,,,,,3,11,,,,,,,,,,,,,3,4.862,1,,,,,,0.14453125,-0.25,1,0,0,4.862,Diorite_rect,10,0,10,0,1,
6614a41a93554ac9d5125ade,SCR,2024-06-26_13h38.16.856,LearnStrategy,2023.2.3,Win32,59.88023952,1,2,12,,,,,,,,5,02,,,,,,,,,,,,,5,4.978,1,,,,,,-0.390625,-0.397135417,1,0,0,4.9784,Obsidian_rect,11,0,11,0,1,
6614a41a93554ac9d5125ade,SCR,2024-06-26_13h38.16.856,LearnStrategy,2023.2.3,Win32,59.88023952,1,2,13,,,,,,,,1,05,,,,,,,,,,,,,1,6.481,1,,,,,,-0.32421875,-0.247395833,1,0,0,6.4809,Andesite_rect,12,0,12,0,1,
6614a41a93554ac9d5125ade,SCR,2024-06-26_13h38.16.856,LearnStrategy,2023.2.3,Win32,59.88023952,1,2,14,,,,,,,,4,13,,,,,,,,,,,,,3,2.836,0,,,,,,0.157552083,-0.26171875,1,0,0,2.8359,Diorite_rect,13,0,13,0,1,
6614a41a93554ac9d5125ade,SCR,2024-06-26_13h38.16.856,LearnStrategy,2023.2.3,Win32,59.88023952,1,2,15,,,,,,,,6,11,,,,,,,,,,,,,5,4.221,0,,,,,,-0.33984375,-0.407552083,1,0,0,4.221,Obsidian_rect,14,0,14,0,1,
6614a41a93554ac9d5125ade,SCR,2024-06-26_13h38.16.856,LearnStrategy,2023.2.3,Win32,59.88023952,1,2,16,,,,,,,,7,15,,,,,,,,,,,,,4,4.08,0,,,,,,0.415364583,-0.25,1,0,0,4.0798,Gabbro_rect,15,0,15,0,1,
6614a41a93554ac9d5125ade,SCR,2024-06-26_13h38.16.856,LearnStrategy,2023.2.3,Win32,59.88023952,2,1,1,-0.256510417,0.385416667,1,0,0,15.8915,Basalt_08,2,08,6,3,15.891,2,06,-0.091145833,-0.25,1,0,0,3.494,Basalt_rect,2,3.494,1,0,0,0,0,1,,,,,,,,,,,,,
6614a41a93554ac9d5125ade,SCR,2024-06-26_13h38.16.856,LearnStrategy,2023.2.3,Win32,59.88023952,2,1,2,-0.5078125,0.40234375,1,0,0,1.5633,Andesite_03,1,03,6,1,1.563,6,08,0.041666667,-0.23046875,1,0,0,5.1226,Diorite_rect,3,5.123,0,1,0,1,0,1,,,,,,,,,,,,,
6614a41a93554ac9d5125ade,SCR,2024-06-26_13h38.16.856,LearnStrategy,2023.2.3,Win32,59.88023952,2,1,3,-0.354166667,0.40234375,1,0,0,1.3452,Pegmatite_05,6,05,6,2,1.345,1,10,-0.1015625,-0.25390625,1,0,0,3.5395,Basalt_rect,2,3.54,0,2,0,2,0,1,,,,,,,,,,,,,
6614a41a93554ac9d5125ade,SCR,2024-06-26_13h38.16.856,LearnStrategy,2023.2.3,Win32,59.88023952,2,1,4,-0.111979167,0.389322917,1,0,0,2.1517,Peridotite_05,7,05,6,4,2.152,6,10,0.14453125,-0.421875,1,0,0,4.9849,Peridotite_rect,7,4.985,1,3,0,3,0,1,,,,,,,,,,,,,
6614a41a93554ac9d5125ade,SCR,2024-06-26_13h38.16.856,LearnStrategy,2023.2.3,Win32,59.88023952,2,1,5,0.079427083,0.3984375,1,0,0,1.7395,Basalt_06,2,06,6,5,1.739,7,06,0.345052083,-0.25,1,0,0,1.551,Gabbro_rect,4,1.551,0,4,0,4,0,1,,,,,,,,,,,,,
6614a41a93554ac9d5125ade,SCR,2024-06-26_13h38.16.856,LearnStrategy,2023.2.3,Win32,59.88023952,2,1,6,0.088541667,0.375,1,0,0,1.2007,Basalt_06,2,06,6,5,1.201,1,07,-0.102864583,-0.25,1,0,0,1.4988,Basalt_rect,2,1.499,1,5,0,5,0,1,,,,,,,,,,,,,
6614a41a93554ac9d5125ade,SCR,2024-06-26_13h38.16.856,LearnStrategy,2023.2.3,Win32,59.88023952,2,1,7,0.083333333,0.3671875,1,0,0,1.0299,Basalt_06,2,06,6,5,1.03,5,10,-0.087239583,-0.256510417,1,0,0,1.8126,Basalt_rect,2,1.813,1,6,0,6,0,1,,,,,,,,,,,,,
6614a41a93554ac9d5125ade,SCR,2024-06-26_13h38.16.856,LearnStrategy,2023.2.3,Win32,59.88023952,2,1,8,0.26171875,0.412760417,1,0,0,1.4475,Gabbro_11,4,11,6,6,1.447,4,11,0.434895833,-0.3828125,1,0,0,3.2537,Pumice_rect,8,3.254,0,7,0,7,0,1,,,,,,,,,,,,,
6614a41a93554ac9d5125ade,SCR,2024-06-26_13h38.16.856,LearnStrategy,2023.2.3,Win32,59.88023952,2,1,9,0.283854167,0.438802083,1,0,0,1.4462,Gabbro_11,4,11,6,6,1.446,7,16,0.40625,-0.25,1,0,0,1.324,Gabbro_rect,4,1.324,1,8,0,8,0,1,,,,,,,,,,,,,
6614a41a93554ac9d5125ade,SCR,2024-06-26_13h38.16.856,LearnStrategy,2023.2.3,Win32,59.88023952,2,1,10,0.4140625,0.43359375,1,0,0,1.0374,Obsidian_10,5,10,6,7,1.037,7,04,-0.162760417,-0.395833333,1,0,0,3.2383,Pegmatite_rect,6,3.238,0,9,0,9,0,1,,,,,,,,,,,,,
6614a41a93554ac9d5125ade,SCR,2024-06-26_13h38.16.856,LearnStrategy,2023.2.3,Win32,59.88023952,2,1,11,0.37890625,0.40234375,1,0,0,0.913,Obsidian_10,5,10,6,7,0.913,8,02,-0.3515625,-0.404947917,1,0,0,1.8566,Obsidian_rect,5,1.857,1,10,0,10,0,1,,,,,,,,,,,,,
6614a41a93554ac9d5125ade,SCR,2024-06-26_13h38.16.856,LearnStrategy,2023.2.3,Win32,59.88023952,2,1,12,0.5625,0.385416667,1,0,0,1.5912,Gabbro_16,4,16,6,8,1.591,2,04,-0.122395833,-0.26171875,1,0,0,1.5893,Basalt_rect,2,1.589,0,11,0,11,0,1,,,,,,,,,,,,,
6614a41a93554ac9d5125ade,SCR,2024-06-26_13h38.16.856,LearnStrategy,2023.2.3,Win32,59.88023952,2,1,13,0.522135417,0.407552083,1,0,0,0.9518,Gabbro_16,4,16,6,8,0.952,4,14,0.40625,-0.252604167,1,0,0,1.0908,Gabbro_rect,4,1.091,1,12,0,12,0,1,,,,,,,,,,,,,
6614a41a93554ac9d5125ade,SCR,2024-06-26_13h38.16.856,LearnStrategy,2023.2.3,Win32,59.88023952,2,1,14,-0.536458333,0.260416667,1,0,0,1.1469,Diorite_09,3,09,5,1,1.147,4,11,0.432291667,-0.391927083,1,0,0,3.5119,Pumice_rect,8,3.512,0,13,0,13,0,1,,,,,,,,,,,,,
6614a41a93554ac9d5125ade,SCR,2024-06-26_13h38.16.856,LearnStrategy,2023.2.3,Win32,59.88023952,2,1,15,-0.53515625,0.248697917,1,0,0,1.5801,Diorite_09,3,09,5,1,1.58,8,02,0.165364583,-0.26171875,1,0,0,1.8474,Diorite_rect,3,1.847,1,14,0,14,0,1,,,,,,,,,,,,,
6614a41a93554ac9d5125ade,SCR,2024-06-26_13h38.16.856,LearnStrategy,2023.2.3,Win32,59.88023952,2,1,16,-0.412760417,0.225260417,1,0,0,0.8042,Pegmatite_03,6,03,5,2,0.804,4,12,-0.095052083,-0.391927083,1,0,0,2.2444,Pegmatite_rect,6,2.244,1,15,0,15,0,1,,,,,,,,,,,,,
6614a41a93554ac9d5125ade,SCR,2024-06-26_13h38.16.856,LearnStrategy,2023.2.3,Win32,59.88023952,2,2,1,,,,,,,,4,01,,,,,,,,,,,,,2,4.265,0,,,,,,-0.104166667,-0.259114583,1,0,0,4.2652,Basalt_rect,0,0,0,0,1,
6614a41a93554ac9d5125ade,SCR,2024-06-26_13h38.16.856,LearnStrategy,2023.2.3,Win32,59.88023952,2,2,2,,,,,,,,5,09,,,,,,,,,,,,,5,21.273,1,,,,,,-0.359375,-0.389322917,1,0,0,21.2728,Obsidian_rect,1,0,1,0,1,
6614a41a93554ac9d5125ade,SCR,2024-06-26_13h38.16.856,LearnStrategy,2023.2.3,Win32,59.88023952,2,2,3,,,,,,,,3,10,,,,,,,,,,,,,1,2.087,0,,,,,,-0.420572917,-0.23828125,1,0,0,2.0867,Andesite_rect,2,0,2,0,1,
6614a41a93554ac9d5125ade,SCR,2024-06-26_13h38.16.856,LearnStrategy,2023.2.3,Win32,59.88023952,2,2,4,,,,,,,,8,03,,,,,,,,,,,,,7,3.433,0,,,,,,0.110677083,-0.3828125,1,0,0,3.4333,Peridotite_rect,3,0,3,0,1,
6614a41a93554ac9d5125ade,SCR,2024-06-26_13h38.16.856,LearnStrategy,2023.2.3,Win32,59.88023952,2,2,5,,,,,,,,8,05,,,,,,,,,,,,,8,1.647,1,,,,,,0.359375,-0.412760417,1,0,0,1.6472,Pumice_rect,4,0,4,0,1,
6614a41a93554ac9d5125ade,SCR,2024-06-26_13h38.16.856,LearnStrategy,2023.2.3,Win32,59.88023952,2,2,6,,,,,,,,4,10,,,,,,,,,,,,,4,1.678,1,,,,,,0.364583333,-0.243489583,1,0,0,1.678,Gabbro_rect,5,0,5,0,1,
6614a41a93554ac9d5125ade,SCR,2024-06-26_13h38.16.856,LearnStrategy,2023.2.3,Win32,59.88023952,2,2,7,,,,,,,,7,12,,,,,,,,,,,,,7,2.865,1,,,,,,0.07421875,-0.412760417,1,0,0,2.8645,Peridotite_rect,6,0,6,0,1,
6614a41a93554ac9d5125ade,SCR,2024-06-26_13h38.16.856,LearnStrategy,2023.2.3,Win32,59.88023952,2,2,8,,,,,,,,1,16,,,,,,,,,,,,,3,1.846,0,,,,,,0.08984375,-0.255208333,1,0,0,1.8463,Diorite_rect,7,0,7,0,1,
6614a41a93554ac9d5125ade,SCR,2024-06-26_13h38.16.856,LearnStrategy,2023.2.3,Win32,59.88023952,2,2,9,,,,,,,,2,11,,,,,,,,,,,,,3,1.044,0,,,,,,0.1015625,-0.252604167,1,0,0,1.0445,Diorite_rect,8,0,8,0,1,
6614a41a93554ac9d5125ade,SCR,2024-06-26_13h38.16.856,LearnStrategy,2023.2.3,Win32,59.88023952,2,2,10,,,,,,,,6,13,,,,,,,,,,,,,1,3.767,0,,,,,,-0.328125,-0.255208333,1,0,0,3.7667,Andesite_rect,9,0,9,0,1,
6614a41a93554ac9d5125ade,SCR,2024-06-26_13h38.16.856,LearnStrategy,2023.2.3,Win32,59.88023952,2,2,11,,,,,,,,3,13,,,,,,,,,,,,,2,2.094,0,,,,,,-0.126302083,-0.266927083,1,0,0,2.094,Basalt_rect,10,0,10,0,1,
6614a41a93554ac9d5125ade,SCR,2024-06-26_13h38.16.856,LearnStrategy,2023.2.3,Win32,59.88023952,2,2,12,,,,,,,,6,16,,,,,,,,,,,,,6,1.522,1,,,,,,-0.100260417,-0.420572917,1,0,0,1.5224,Pegmatite_rect,11,0,11,0,1,
6614a41a93554ac9d5125ade,SCR,2024-06-26_13h38.16.856,LearnStrategy,2023.2.3,Win32,59.88023952,2,2,13,,,,,,,,1,06,,,,,,,,,,,,,3,1.475,0,,,,,,0.079427083,-0.231770833,1,0,0,1.4748,Diorite_rect,12,0,12,0,1,
6614a41a93554ac9d5125ade,SCR,2024-06-26_13h38.16.856,LearnStrategy,2023.2.3,Win32,59.88023952,2,2,14,,,,,,,,7,10,,,,,,,,,,,,,8,2.002,0,,,,,,0.346354167,-0.40234375,1,0,0,2.0022,Pumice_rect,13,0,13,0,1,
6614a41a93554ac9d5125ade,SCR,2024-06-26_13h38.16.856,LearnStrategy,2023.2.3,Win32,59.88023952,2,2,15,,,,,,,,5,14,,,,,,,,,,,,,5,1.683,1,,,,,,-0.3359375,-0.41796875,1,0,0,1.6826,Obsidian_rect,14,0,14,0,1,
6614a41a93554ac9d5125ade,SCR,2024-06-26_13h38.16.856,LearnStrategy,2023.2.3,Win32,59.88023952,2,2,16,,,,,,,,2,01,,,,,,,,,,,,,1,7.825,0,,,,,,-0.352864583,-0.24609375,1,0,0,7.8255,Andesite_rect,15,0,15,0,1,
6614a41a93554ac9d5125ade,SCR,2024-06-26_13h38.16.856,LearnStrategy,2023.2.3,Win32,59.88023952,3,1,1,-0.518229167,0.408854167,1,0,0,1.952,Andesite_03,1,03,6,1,1.952,6,03,-0.360677083,-0.25,1,0,0,3.1743,Andesite_rect,1,3.174,1,0,0,0,0,1,,,,,,,,,,,,,
6614a41a93554ac9d5125ade,SCR,2024-06-26_13h38.16.856,LearnStrategy,2023.2.3,Win32,59.88023952,3,1,2,-0.4140625,0.36328125,1,0,0,1.1279,Pegmatite_05,6,05,6,2,1.128,1,09,-0.342447917,-0.40625,1,0,0,1.2138,Obsidian_rect,5,1.214,0,1,0,1,0,1,,,,,,,,,,,,,
6614a41a93554ac9d5125ade,SCR,2024-06-26_13h38.16.856,LearnStrategy,2023.2.3,Win32,59.88023952,3,1,3,-0.365885417,0.37109375,1,0,0,1.2638,Pegmatite_05,6,05,6,2,1.264,1,04,-0.157552083,-0.420572917,1,0,0,2.2487,Pegmatite_rect,6,2.249,1,2,0,2,0,1,,,,,,,,,,,,,
6614a41a93554ac9d5125ade,SCR,2024-06-26_13h38.16.856,LearnStrategy,2023.2.3,Win32,59.88023952,3,1,4,-0.240885417,0.380208333,1,0,0,0.9796,Basalt_08,2,08,6,3,0.98,3,15,-0.1171875,-0.248697917,1,0,0,2.2786,Basalt_rect,2,2.279,1,3,0,3,0,1,,,,,,,,,,,,,
6614a41a93554ac9d5125ade,SCR,2024-06-26_13h38.16.856,LearnStrategy,2023.2.3,Win32,59.88023952,3,1,5,-0.3828125,-0.42578125,1,0,0,4.2373,Obsidian_06,5,06,1,2,4.237,7,16,-0.391927083,-0.41015625,1,0,0,1.7976,Obsidian_rect,5,1.798,1,4,0,4,0,1,,,,,,,,,,,,,
6614a41a93554ac9d5125ade,SCR,2024-06-26_13h38.16.856,LearnStrategy,2023.2.3,Win32,59.88023952,3,1,6,-0.200520833,-0.434895833,1,0,0,0.8801,Obsidian_08,5,08,1,3,0.88,4,09,-0.368489583,-0.40234375,1,0,0,1.2475,Obsidian_rect,5,1.247,1,5,0,5,0,1,,,,,,,,,,,,,
6614a41a93554ac9d5125ade,SCR,2024-06-26_13h38.16.856,LearnStrategy,2023.2.3,Win32,59.88023952,3,1,7,0.032552083,-0.41796875,1,0,0,1.3786,Pegmatite_10,6,10,1,5,1.379,4,11,-0.346354167,-0.40625,1,0,0,1.3857,Obsidian_rect,5,1.386,0,6,0,6,0,1,,,,,,,,,,,,,
6614a41a93554ac9d5125ade,SCR,2024-06-26_13h38.16.856,LearnStrategy,2023.2.3,Win32,59.88023952,3,1,8,0.192708333,-0.40234375,1,0,0,1.014,Basalt_16,2,16,1,6,1.014,2,12,0.395833333,-0.25390625,1,0,0,0.9103,Gabbro_rect,4,0.91,0,7,0,7,0,1,,,,,,,,,,,,,
6614a41a93554ac9d5125ade,SCR,2024-06-26_13h38.16.856,LearnStrategy,2023.2.3,Win32,59.88023952,3,1,9,0.549479167,-0.138020833,1,0,0,1.1648,Pumice_10,8,10,3,8,1.165,1,07,0.09375,-0.266927083,1,0,0,0.9424,Diorite_rect,3,0.942,0,8,0,8,0,1,,,,,,,,,,,,,
6614a41a93554ac9d5125ade,SCR,2024-06-26_13h38.16.856,LearnStrategy,2023.2.3,Win32,59.88023952,3,1,10,0.227864583,-0.122395833,1,0,0,1.0813,Pumice_08,8,08,3,6,1.081,3,08,0.341145833,-0.407552083,1,0,0,2.1933,Pumice_rect,8,2.193,1,9,0,9,0,1,,,,,,,,,,,,,
6614a41a93554ac9d5125ade,SCR,2024-06-26_13h38.16.856,LearnStrategy,2023.2.3,Win32,59.88023952,3,1,11,0.359375,-0.12109375,1,0,0,1.5625,Peridotite_04,7,04,3,7,1.563,8,09,0.127604167,-0.248697917,1,0,0,1.0117,Diorite_rect,3,1.012,0,10,0,10,0,1,,,,,,,,,,,,,
6614a41a93554ac9d5125ade,SCR,2024-06-26_13h38.16.856,LearnStrategy,2023.2.3,Win32,59.88023952,3,1,12,0.075520833,-0.239583333,1,0,0,1.0629,Gabbro_12,4,12,2,5,1.063,7,06,0.403645833,-0.26171875,1,0,0,1.8855,Gabbro_rect,4,1.885,1,11,0,11,0,1,,,,,,,,,,,,,
6614a41a93554ac9d5125ade,SCR,2024-06-26_13h38.16.856,LearnStrategy,2023.2.3,Win32,59.88023952,3,1,13,-0.106770833,-0.091145833,1,0,0,1.5656,Andesite_11,1,11,3,4,1.566,6,08,0.333333333,-0.381510417,1,0,0,1.9485,Pumice_rect,8,1.948,0,12,0,12,0,1,,,,,,,,,,,,,
6614a41a93554ac9d5125ade,SCR,2024-06-26_13h38.16.856,LearnStrategy,2023.2.3,Win32,59.88023952,3,1,14,0.553385417,-0.24609375,1,0,0,1.2129,Pumice_02,8,02,2,8,1.213,8,10,-0.365885417,-0.26171875,1,0,0,1.4777,Andesite_rect,1,1.478,0,13,0,13,0,1,,,,,,,,,,,,,
6614a41a93554ac9d5125ade,SCR,2024-06-26_13h38.16.856,LearnStrategy,2023.2.3,Win32,59.88023952,3,1,15,0.526041667,-0.256510417,1,0,0,2.2112,Pumice_02,8,02,2,8,2.211,2,08,0.399739583,-0.411458333,1,0,0,1.1296,Pumice_rect,8,1.13,1,14,0,14,0,1,,,,,,,,,,,,,
6614a41a93554ac9d5125ade,SCR,2024-06-26_13h38.16.856,LearnStrategy,2023.2.3,Win32,59.88023952,3,1,16,-0.368489583,-0.102864583,1,0,0,1.3124,Obsidian_16,5,16,3,2,1.312,2,12,-0.37109375,-0.40234375,1,0,0,1.0978,Obsidian_rect,5,1.098,1,15,0,15,0,1,,,,,,,,,,,,,
6614a41a93554ac9d5125ade,SCR,2024-06-26_13h38.16.856,LearnStrategy,2023.2.3,Win32,59.88023952,3,2,1,,,,,,,,4,15,,,,,,,,,,,,,1,4.298,0,,,,,,-0.411458333,-0.25390625,1,0,0,4.2979,Andesite_rect,0,0,0,0,1,
6614a41a93554ac9d5125ade,SCR,2024-06-26_13h38.16.856,LearnStrategy,2023.2.3,Win32,59.88023952,3,2,2,,,,,,,,5,12,,,,,,,,,,,,,5,1.66,1,,,,,,-0.346354167,-0.3828125,1,0,0,1.6601,Obsidian_rect,1,0,1,0,1,
6614a41a93554ac9d5125ade,SCR,2024-06-26_13h38.16.856,LearnStrategy,2023.2.3,Win32,59.88023952,3,2,3,,,,,,,,6,12,,,,,,,,,,,,,3,3.527,0,,,,,,0.09765625,-0.234375,1,0,0,3.5272,Diorite_rect,2,0,2,0,1,
6614a41a93554ac9d5125ade,SCR,2024-06-26_13h38.16.856,LearnStrategy,2023.2.3,Win32,59.88023952,3,2,4,,,,,,,,5,11,,,,,,,,,,,,,5,1.958,1,,,,,,-0.37109375,-0.397135417,1,0,0,1.9579,Obsidian_rect,3,0,3,0,1,
6614a41a93554ac9d5125ade,SCR,2024-06-26_13h38.16.856,LearnStrategy,2023.2.3,Win32,59.88023952,3,2,5,,,,,,,,7,08,,,,,,,,,,,,,8,1.899,0,,,,,,0.321614583,-0.397135417,1,0,0,1.8986,Pumice_rect,4,0,4,0,1,
6614a41a93554ac9d5125ade,SCR,2024-06-26_13h38.16.856,LearnStrategy,2023.2.3,Win32,59.88023952,3,2,6,,,,,,,,8,15,,,,,,,,,,,,,3,2.627,0,,,,,,0.095052083,-0.2578125,1,0,0,2.6271,Diorite_rect,5,0,5,0,1,
6614a41a93554ac9d5125ade,SCR,2024-06-26_13h38.16.856,LearnStrategy,2023.2.3,Win32,59.88023952,3,2,7,,,,,,,,6,09,,,,,,,,,,,,,6,3.36,1,,,,,,-0.200520833,-0.393229167,1,0,0,3.3601,Pegmatite_rect,6,0,6,0,1,
6614a41a93554ac9d5125ade,SCR,2024-06-26_13h38.16.856,LearnStrategy,2023.2.3,Win32,59.88023952,3,2,8,,,,,,,,2,05,,,,,,,,,,,,,2,2.467,1,,,,,,-0.165364583,-0.252604167,1,0,0,2.4674,Basalt_rect,7,0,7,0,1,
6614a41a93554ac9d5125ade,SCR,2024-06-26_13h38.16.856,LearnStrategy,2023.2.3,Win32,59.88023952,3,2,9,,,,,,,,3,06,,,,,,,,,,,,,1,1.332,0,,,,,,-0.427083333,-0.252604167,1,0,0,1.3322,Andesite_rect,8,0,8,0,1,
6614a41a93554ac9d5125ade,SCR,2024-06-26_13h38.16.856,LearnStrategy,2023.2.3,Win32,59.88023952,3,2,10,,,,,,,,7,07,,,,,,,,,,,,,1,2.248,0,,,,,,-0.40234375,-0.240885417,1,0,0,2.2482,Andesite_rect,9,0,9,0,1,
6614a41a93554ac9d5125ade,SCR,2024-06-26_13h38.16.856,LearnStrategy,2023.2.3,Win32,59.88023952,3,2,11,,,,,,,,2,14,,,,,,,,,,,,,3,2.676,0,,,,,,0.13671875,-0.243489583,1,0,0,2.6757,Diorite_rect,10,0,10,0,1,
6614a41a93554ac9d5125ade,SCR,2024-06-26_13h38.16.856,LearnStrategy,2023.2.3,Win32,59.88023952,3,2,12,,,,,,,,4,03,,,,,,,,,,,,,4,1.309,1,,,,,,0.393229167,-0.2421875,1,0,0,1.3094,Gabbro_rect,11,0,11,0,1,
6614a41a93554ac9d5125ade,SCR,2024-06-26_13h38.16.856,LearnStrategy,2023.2.3,Win32,59.88023952,3,2,13,,,,,,,,8,13,,,,,,,,,,,,,1,3.529,0,,,,,,-0.30859375,-0.260416667,1,0,0,3.5294,Andesite_rect,12,0,12,0,1,
6614a41a93554ac9d5125ade,SCR,2024-06-26_13h38.16.856,LearnStrategy,2023.2.3,Win32,59.88023952,3,2,14,,,,,,,,1,01,,,,,,,,,,,,,8,1.485,0,,,,,,0.325520833,-0.408854167,1,0,0,1.4852,Pumice_rect,13,0,13,0,1,
6614a41a93554ac9d5125ade,SCR,2024-06-26_13h38.16.856,LearnStrategy,2023.2.3,Win32,59.88023952,3,2,15,,,,,,,,3,16,,,,,,,,,,,,,8,1.865,0,,,,,,0.36328125,-0.40625,1,0,0,1.865,Pumice_rect,14,0,14,0,1,
6614a41a93554ac9d5125ade,SCR,2024-06-26_13h38.16.856,LearnStrategy,2023.2.3,Win32,59.88023952,3,2,16,,,,,,,,1,02,,,,,,,,,,,,,1,3.508,1,,,,,,-0.329427083,-0.255208333,1,0,0,3.5075,Andesite_rect,15,0,15,0,1,
6614a41a93554ac9d5125ade,SCR,2024-06-26_13h38.16.856,LearnStrategy,2023.2.3,Win32,59.88023952,4,1,1,-0.233072917,-0.118489583,1,0,0,4.329,Andesite_10,1,10,3,3,4.329,4,14,0.43359375,-0.252604167,1,0,0,1.4698,Gabbro_rect,4,1.47,0,0,0,0,0,1,,,,,,,,,,,,,
6614a41a93554ac9d5125ade,SCR,2024-06-26_13h38.16.856,LearnStrategy,2023.2.3,Win32,59.88023952,4,1,2,-0.532552083,0.44921875,1,0,0,2.7709,Andesite_03,1,03,6,1,2.771,7,14,-0.350260417,-0.255208333,1,0,0,1.99,Andesite_rect,1,1.99,1,1,0,1,0,1,,,,,,,,,,,,,
6614a41a93554ac9d5125ade,SCR,2024-06-26_13h38.16.856,LearnStrategy,2023.2.3,Win32,59.88023952,4,1,3,-0.358072917,0.4296875,1,0,0,1.0471,Pegmatite_05,6,05,6,2,1.047,6,08,-0.102864583,-0.391927083,1,0,0,1.5861,Pegmatite_rect,6,1.586,1,2,0,2,0,1,,,,,,,,,,,,,
6614a41a93554ac9d5125ade,SCR,2024-06-26_13h38.16.856,LearnStrategy,2023.2.3,Win32,59.88023952,4,1,4,-0.247395833,-0.247395833,1,0,0,3.4397,Gabbro_09,4,09,2,3,3.44,1,04,0.317708333,-0.248697917,1,0,0,1.2685,Gabbro_rect,4,1.268,1,3,0,3,0,1,,,,,,,,,,,,,
6614a41a93554ac9d5125ade,SCR,2024-06-26_13h38.16.856,LearnStrategy,2023.2.3,Win32,59.88023952,4,1,5,0.104166667,-0.11328125,1,0,0,0.8644,Basalt_12,2,12,3,5,0.864,2,06,0.166666667,-0.259114583,1,0,0,1.8791,Diorite_rect,3,1.879,0,4,0,4,0,1,,,,,,,,,,,,,
6614a41a93554ac9d5125ade,SCR,2024-06-26_13h38.16.856,LearnStrategy,2023.2.3,Win32,59.88023952,4,1,6,0.057291667,-0.111979167,1,0,0,2.9978,Basalt_12,2,12,3,5,2.998,3,14,-0.173177083,-0.25390625,1,0,0,0.9709,Basalt_rect,2,0.971,1,5,0,5,0,1,,,,,,,,,,,,,
6614a41a93554ac9d5125ade,SCR,2024-06-26_13h38.16.856,LearnStrategy,2023.2.3,Win32,59.88023952,4,1,7,-0.061197917,-0.2578125,1,0,0,1.5136,Diorite_07,3,07,2,4,1.514,3,15,0.34765625,-0.41015625,1,0,0,2.4602,Pumice_rect,8,2.46,0,6,0,6,0,1,,,,,,,,,,,,,
6614a41a93554ac9d5125ade,SCR,2024-06-26_13h38.16.856,LearnStrategy,2023.2.3,Win32,59.88023952,4,1,8,-0.05859375,-0.247395833,1,0,0,1.2312,Diorite_07,3,07,2,4,1.231,8,10,0.15625,-0.25,1,0,0,1.7916,Diorite_rect,3,1.792,1,7,0,7,0,1,,,,,,,,,,,,,
6614a41a93554ac9d5125ade,SCR,2024-06-26_13h38.16.856,LearnStrategy,2023.2.3,Win32,59.88023952,4,1,9,0.546875,0.23046875,1,0,0,2.5964,Diorite_14,3,14,5,8,2.596,7,06,0.123697917,-0.263020833,1,0,0,1.6969,Diorite_rect,3,1.697,1,8,0,8,0,1,,,,,,,,,,,,,
6614a41a93554ac9d5125ade,SCR,2024-06-26_13h38.16.856,LearnStrategy,2023.2.3,Win32,59.88023952,4,1,10,0.09375,-0.259114583,1,0,0,1.1971,Gabbro_12,4,12,2,5,1.197,6,08,0.39453125,-0.26171875,1,0,0,0.756,Gabbro_rect,4,0.756,1,9,0,9,0,1,,,,,,,,,,,,,
6614a41a93554ac9d5125ade,SCR,2024-06-26_13h38.16.856,LearnStrategy,2023.2.3,Win32,59.88023952,4,1,11,-0.369791667,-0.217447917,1,0,0,1.9677,Peridotite_06,7,06,2,2,1.968,2,12,-0.358072917,-0.260416667,1,0,0,2.0914,Andesite_rect,1,2.091,0,10,0,10,0,1,,,,,,,,,,,,,
6614a41a93554ac9d5125ade,SCR,2024-06-26_13h38.16.856,LearnStrategy,2023.2.3,Win32,59.88023952,4,1,12,-0.369791667,-0.251302083,1,0,0,1.8121,Peridotite_06,7,06,2,2,1.812,4,09,0.16015625,-0.401041667,1,0,0,5.5575,Peridotite_rect,7,5.557,1,11,0,11,0,1,,,,,,,,,,,,,
6614a41a93554ac9d5125ade,SCR,2024-06-26_13h38.16.856,LearnStrategy,2023.2.3,Win32,59.88023952,4,1,13,0.376302083,-0.260416667,1,0,0,1.1803,Pegmatite_07,6,07,2,7,1.18,8,08,-0.072916667,-0.397135417,1,0,0,1.9135,Pegmatite_rect,6,1.914,1,12,0,12,0,1,,,,,,,,,,,,,
6614a41a93554ac9d5125ade,SCR,2024-06-26_13h38.16.856,LearnStrategy,2023.2.3,Win32,59.88023952,4,1,14,-0.376302083,0.1171875,1,0,0,1.3099,Peridotite_14,7,14,4,2,1.31,8,14,0.369791667,-0.255208333,1,0,0,1.0471,Gabbro_rect,4,1.047,0,13,0,13,0,1,,,,,,,,,,,,,
6614a41a93554ac9d5125ade,SCR,2024-06-26_13h38.16.856,LearnStrategy,2023.2.3,Win32,59.88023952,4,1,15,-0.5703125,0.11328125,1,0,0,2.8138,Andesite_07,1,07,4,1,2.814,3,15,0.182291667,-0.264322917,1,0,0,1.6899,Diorite_rect,3,1.69,0,14,0,14,0,1,,,,,,,,,,,,,
6614a41a93554ac9d5125ade,SCR,2024-06-26_13h38.16.856,LearnStrategy,2023.2.3,Win32,59.88023952,4,1,16,-0.505208333,0.092447917,1,0,0,1.4473,Andesite_07,1,07,4,1,1.447,1,10,-0.385416667,-0.248697917,1,0,0,2.1887,Andesite_rect,1,2.189,1,15,0,15,0,1,,,,,,,,,,,,,
6614a41a93554ac9d5125ade,SCR,2024-06-26_13h38.16.856,LearnStrategy,2023.2.3,Win32,59.88023952,4,2,1,,,,,,,,3,16,,,,,,,,,,,,,1,3.638,0,,,,,,-0.31640625,-0.243489583,1,0,0,3.6375,Andesite_rect,0,0,0,0,1,
6614a41a93554ac9d5125ade,SCR,2024-06-26_13h38.16.856,LearnStrategy,2023.2.3,Win32,59.88023952,4,2,2,,,,,,,,1,02,,,,,,,,,,,,,1,1.486,1,,,,,,-0.3671875,-0.23828125,1,0,0,1.486,Andesite_rect,1,0,1,0,1,
6614a41a93554ac9d5125ade,SCR,2024-06-26_13h38.16.856,LearnStrategy,2023.2.3,Win32,59.88023952,4,2,3,,,,,,,,4,15,,,,,,,,,,,,,1,1.244,0,,,,,,-0.35546875,-0.251302083,1,0,0,1.2439,Andesite_rect,2,0,2,0,1,
6614a41a93554ac9d5125ade,SCR,2024-06-26_13h38.16.856,LearnStrategy,2023.2.3,Win32,59.88023952,4,2,4,,,,,,,,8,05,,,,,,,,,,,,,3,1.073,0,,,,,,0.111979167,-0.263020833,1,0,0,1.0728,Diorite_rect,3,0,3,0,1,
6614a41a93554ac9d5125ade,SCR,2024-06-26_13h38.16.856,LearnStrategy,2023.2.3,Win32,59.88023952,4,2,5,,,,,,,,2,09,,,,,,,,,,,,,4,1.293,0,,,,,,0.372395833,-0.263020833,1,0,0,1.2933,Gabbro_rect,4,0,4,0,1,
6614a41a93554ac9d5125ade,SCR,2024-06-26_13h38.16.856,LearnStrategy,2023.2.3,Win32,59.88023952,4,2,6,,,,,,,,4,10,,,,,,,,,,,,,4,2.532,1,,,,,,0.350260417,-0.263020833,1,0,0,2.5317,Gabbro_rect,5,0,5,0,1,
6614a41a93554ac9d5125ade,SCR,2024-06-26_13h38.16.856,LearnStrategy,2023.2.3,Win32,59.88023952,4,2,7,,,,,,,,5,14,,,,,,,,,,,,,5,3.367,1,,,,,,-0.342447917,-0.40625,1,0,0,3.3669,Obsidian_rect,6,0,6,0,1,
6614a41a93554ac9d5125ade,SCR,2024-06-26_13h38.16.856,LearnStrategy,2023.2.3,Win32,59.88023952,4,2,8,,,,,,,,7,08,,,,,,,,,,,,,6,2.006,0,,,,,,-0.141927083,-0.41796875,1,0,0,2.0056,Pegmatite_rect,7,0,7,0,1,
6614a41a93554ac9d5125ade,SCR,2024-06-26_13h38.16.856,LearnStrategy,2023.2.3,Win32,59.88023952,4,2,9,,,,,,,,6,15,,,,,,,,,,,,,5,1.419,0,,,,,,-0.380208333,-0.411458333,1,0,0,1.4187,Obsidian_rect,8,0,8,0,1,
6614a41a93554ac9d5125ade,SCR,2024-06-26_13h38.16.856,LearnStrategy,2023.2.3,Win32,59.88023952,4,2,10,,,,,,,,6,12,,,,,,,,,,,,,6,1.276,1,,,,,,-0.1640625,-0.408854167,1,0,0,1.2764,Pegmatite_rect,9,0,9,0,1,
6614a41a93554ac9d5125ade,SCR,2024-06-26_13h38.16.856,LearnStrategy,2023.2.3,Win32,59.88023952,4,2,11,,,,,,,,1,05,,,,,,,,,,,,,7,1.725,0,,,,,,0.138020833,-0.4140625,1,0,0,1.7246,Peridotite_rect,10,0,10,0,1,
6614a41a93554ac9d5125ade,SCR,2024-06-26_13h38.16.856,LearnStrategy,2023.2.3,Win32,59.88023952,4,2,12,,,,,,,,8,04,,,,,,,,,,,,,3,0.915,0,,,,,,0.122395833,-0.2578125,1,0,0,0.9147,Diorite_rect,11,0,11,0,1,
6614a41a93554ac9d5125ade,SCR,2024-06-26_13h38.16.856,LearnStrategy,2023.2.3,Win32,59.88023952,4,2,13,,,,,,,,7,07,,,,,,,,,,,,,1,2.515,0,,,,,,-0.358072917,-0.248697917,1,0,0,2.5146,Andesite_rect,12,0,12,0,1,
6614a41a93554ac9d5125ade,SCR,2024-06-26_13h38.16.856,LearnStrategy,2023.2.3,Win32,59.88023952,4,2,14,,,,,,,,3,12,,,,,,,,,,,,,2,1.77,0,,,,,,-0.153645833,-0.263020833,1,0,0,1.7702,Basalt_rect,13,0,13,0,1,
6614a41a93554ac9d5125ade,SCR,2024-06-26_13h38.16.856,LearnStrategy,2023.2.3,Win32,59.88023952,4,2,15,,,,,,,,2,02,,,,,,,,,,,,,4,1.441,0,,,,,,0.33984375,-0.264322917,1,0,0,1.4409,Gabbro_rect,14,0,14,0,1,
6614a41a93554ac9d5125ade,SCR,2024-06-26_13h38.16.856,LearnStrategy,2023.2.3,Win32,59.88023952,4,2,16,,,,,,,,5,02,,,,,,,,,,,,,5,1.327,1,,,,,,-0.401041667,-0.380208333,1,0,0,1.3271,Obsidian_rect,15,0,15,0,1,
6614a41a93554ac9d5125ade,SCR,2024-06-26_13h38.16.856,LearnStrategy,2023.2.3,Win32,59.88023952,5,1,1,-0.53125,-0.11328125,1,0,0,2.183,Andesite_09,1,09,3,1,2.183,7,06,0.138020833,-0.256510417,1,0,0,2.8931,Diorite_rect,3,2.893,0,0,0,0,0,1,,,,,,,,,,,,,
6614a41a93554ac9d5125ade,SCR,2024-06-26_13h38.16.856,LearnStrategy,2023.2.3,Win32,59.88023952,5,1,2,-0.541666667,-0.135416667,1,0,0,1.0647,Andesite_09,1,09,3,1,1.065,4,14,-0.397135417,-0.263020833,1,0,0,5.6246,Andesite_rect,1,5.625,1,1,0,1,0,1,,,,,,,,,,,,,
6614a41a93554ac9d5125ade,SCR,2024-06-26_13h38.16.856,LearnStrategy,2023.2.3,Win32,59.88023952,5,1,3,-0.391927083,0.091145833,1,0,0,1.4103,Peridotite_14,7,14,4,2,1.41,6,03,-0.3828125,-0.247395833,1,0,0,2.0551,Andesite_rect,1,2.055,0,2,0,2,0,1,,,,,,,,,,,,,
6614a41a93554ac9d5125ade,SCR,2024-06-26_13h38.16.856,LearnStrategy,2023.2.3,Win32,59.88023952,5,1,4,0.114583333,-0.272135417,1,0,0,1.0346,Gabbro_12,4,12,2,5,1.035,7,05,0.381510417,-0.26953125,1,0,0,0.658,Gabbro_rect,4,0.658,1,3,0,3,0,1,,,,,,,,,,,,,
6614a41a93554ac9d5125ade,SCR,2024-06-26_13h38.16.856,LearnStrategy,2023.2.3,Win32,59.88023952,5,1,5,0.53125,-0.286458333,1,0,0,1.7162,Pumice_02,8,02,2,8,1.716,3,15,-0.079427083,-0.259114583,1,0,0,3.6108,Basalt_rect,2,3.611,0,4,0,4,0,1,,,,,,,,,,,,,
6614a41a93554ac9d5125ade,SCR,2024-06-26_13h38.16.856,LearnStrategy,2023.2.3,Win32,59.88023952,5,1,6,0.58984375,-0.266927083,1,0,0,1.4473,Pumice_02,8,02,2,8,1.447,3,14,0.37109375,-0.40234375,1,0,0,1.2436,Pumice_rect,8,1.244,1,5,0,5,0,1,,,,,,,,,,,,,
6614a41a93554ac9d5125ade,SCR,2024-06-26_13h38.16.856,LearnStrategy,2023.2.3,Win32,59.88023952,5,1,7,-0.092447917,-0.40234375,1,0,0,2.3812,Pumice_09,8,09,1,4,2.381,6,10,0.075520833,-0.255208333,1,0,0,1.138,Diorite_rect,3,1.138,0,6,0,6,0,1,,,,,,,,,,,,,
6614a41a93554ac9d5125ade,SCR,2024-06-26_13h38.16.856,LearnStrategy,2023.2.3,Win32,59.88023952,5,1,8,0.515625,-0.28125,1,0,0,1.1674,Pumice_02,8,02,2,8,1.167,1,10,0.34375,-0.3828125,1,0,0,1.4363,Pumice_rect,8,1.436,1,7,0,7,0,1,,,,,,,,,,,,,
6614a41a93554ac9d5125ade,SCR,2024-06-26_13h38.16.856,LearnStrategy,2023.2.3,Win32,59.88023952,5,1,9,0.5234375,0.25390625,1,0,0,1.0075,Diorite_14,3,14,5,8,1.008,7,14,0.0703125,-0.234375,1,0,0,1.1903,Diorite_rect,3,1.19,1,8,0,8,0,1,,,,,,,,,,,,,
6614a41a93554ac9d5125ade,SCR,2024-06-26_13h38.16.856,LearnStrategy,2023.2.3,Win32,59.88023952,5,1,10,-0.0859375,0.098958333,1,0,0,0.7476,Diorite_08,3,08,4,4,0.748,8,02,0.098958333,-0.2578125,1,0,0,0.7654,Diorite_rect,3,0.765,1,9,0,9,0,1,,,,,,,,,,,,,
6614a41a93554ac9d5125ade,SCR,2024-06-26_13h38.16.856,LearnStrategy,2023.2.3,Win32,59.88023952,5,1,11,-0.19921875,-0.108072917,1,0,0,0.9301,Andesite_10,1,10,3,3,0.93,2,08,-0.341145833,-0.240885417,1,0,0,3.6219,Andesite_rect,1,3.622,1,10,0,10,0,1,,,,,,,,,,,,,
6614a41a93554ac9d5125ade,SCR,2024-06-26_13h38.16.856,LearnStrategy,2023.2.3,Win32,59.88023952,5,1,12,-0.365885417,0.104166667,1,0,0,1.0135,Peridotite_14,7,14,4,2,1.014,1,09,-0.35546875,-0.244791667,1,0,0,2.2986,Andesite_rect,1,2.299,0,11,0,11,0,1,,,,,,,,,,,,,
6614a41a93554ac9d5125ade,SCR,2024-06-26_13h38.16.856,LearnStrategy,2023.2.3,Win32,59.88023952,5,1,13,-0.389322917,0.07421875,1,0,0,1.5131,Peridotite_14,7,14,4,2,1.513,3,08,0.076822917,-0.41015625,1,0,0,1.2634,Peridotite_rect,7,1.263,1,12,0,12,0,1,,,,,,,,,,,,,
6614a41a93554ac9d5125ade,SCR,2024-06-26_13h38.16.856,LearnStrategy,2023.2.3,Win32,59.88023952,5,1,14,0.087239583,0.235677083,1,0,0,1.1306,Peridotite_13,7,13,5,5,1.131,4,12,0.376302083,-0.234375,1,0,0,1.5892,Gabbro_rect,4,1.589,0,13,0,13,0,1,,,,,,,,,,,,,
6614a41a93554ac9d5125ade,SCR,2024-06-26_13h38.16.856,LearnStrategy,2023.2.3,Win32,59.88023952,5,1,15,-0.23046875,0.09375,1,0,0,1.1851,Diorite_02,3,02,4,3,1.185,8,02,0.139322917,-0.256510417,1,0,0,3.653,Diorite_rect,3,3.653,1,14,0,14,0,1,,,,,,,,,,,,,
6614a41a93554ac9d5125ade,SCR,2024-06-26_13h38.16.856,LearnStrategy,2023.2.3,Win32,59.88023952,5,1,16,-0.083333333,0.298177083,1,0,0,1.1631,Pegmatite_06,6,06,5,4,1.163,2,10,-0.147135417,-0.403645833,1,0,0,3.2445,Pegmatite_rect,6,3.245,1,15,0,15,0,1,,,,,,,,,,,,,
6614a41a93554ac9d5125ade,SCR,2024-06-26_13h38.16.856,LearnStrategy,2023.2.3,Win32,59.88023952,5,2,1,,,,,,,,7,02,,,,,,,,,,,,,7,5.77,1,,,,,,0.084635417,-0.388020833,1,0,0,5.7701,Peridotite_rect,0,0,0,0,1,
6614a41a93554ac9d5125ade,SCR,2024-06-26_13h38.16.856,LearnStrategy,2023.2.3,Win32,59.88023952,5,2,2,,,,,,,,2,01,,,,,,,,,,,,,4,1.934,0,,,,,,0.397135417,-0.255208333,1,0,0,1.9342,Gabbro_rect,1,0,1,0,1,
6614a41a93554ac9d5125ade,SCR,2024-06-26_13h38.16.856,LearnStrategy,2023.2.3,Win32,59.88023952,5,2,3,,,,,,,,5,12,,,,,,,,,,,,,5,1.707,1,,,,,,-0.338541667,-0.384114583,1,0,0,1.7069,Obsidian_rect,2,0,2,0,1,
6614a41a93554ac9d5125ade,SCR,2024-06-26_13h38.16.856,LearnStrategy,2023.2.3,Win32,59.88023952,5,2,4,,,,,,,,3,06,,,,,,,,,,,,,7,2.447,0,,,,,,0.08203125,-0.404947917,1,0,0,2.4474,Peridotite_rect,3,0,3,0,1,
6614a41a93554ac9d5125ade,SCR,2024-06-26_13h38.16.856,LearnStrategy,2023.2.3,Win32,59.88023952,5,2,5,,,,,,,,1,06,,,,,,,,,,,,,1,3.431,1,,,,,,-0.377604167,-0.25390625,1,0,0,3.4311,Andesite_rect,4,0,4,0,1,
6614a41a93554ac9d5125ade,SCR,2024-06-26_13h38.16.856,LearnStrategy,2023.2.3,Win32,59.88023952,5,2,6,,,,,,,,7,10,,,,,,,,,,,,,2,3.536,0,,,,,,-0.071614583,-0.2421875,1,0,0,3.5358,Basalt_rect,5,0,5,0,1,
6614a41a93554ac9d5125ade,SCR,2024-06-26_13h38.16.856,LearnStrategy,2023.2.3,Win32,59.88023952,5,2,7,,,,,,,,2,05,,,,,,,,,,,,,4,2.116,0,,,,,,0.385416667,-0.25390625,1,0,0,2.1163,Gabbro_rect,6,0,6,0,1,
6614a41a93554ac9d5125ade,SCR,2024-06-26_13h38.16.856,LearnStrategy,2023.2.3,Win32,59.88023952,5,2,8,,,,,,,,8,16,,,,,,,,,,,,,8,2.412,1,,,,,,0.341145833,-0.421875,1,0,0,2.4119,Pumice_rect,7,0,7,0,1,
6614a41a93554ac9d5125ade,SCR,2024-06-26_13h38.16.856,LearnStrategy,2023.2.3,Win32,59.88023952,5,2,9,,,,,,,,4,08,,,,,,,,,,,,,1,2.817,0,,,,,,-0.377604167,-0.251302083,1,0,0,2.8173,Andesite_rect,8,0,8,0,1,
6614a41a93554ac9d5125ade,SCR,2024-06-26_13h38.16.856,LearnStrategy,2023.2.3,Win32,59.88023952,5,2,10,,,,,,,,8,15,,,,,,,,,,,,,2,7.29,0,,,,,,-0.076822917,-0.25390625,1,0,0,7.2895,Basalt_rect,9,0,9,0,1,
6614a41a93554ac9d5125ade,SCR,2024-06-26_13h38.16.856,LearnStrategy,2023.2.3,Win32,59.88023952,5,2,11,,,,,,,,6,11,,,,,,,,,,,,,6,1.765,1,,,,,,-0.08984375,-0.40234375,1,0,0,1.7655,Pegmatite_rect,10,0,10,0,1,
6614a41a93554ac9d5125ade,SCR,2024-06-26_13h38.16.856,LearnStrategy,2023.2.3,Win32,59.88023952,5,2,12,,,,,,,,1,14,,,,,,,,,,,,,3,1.747,0,,,,,,0.110677083,-0.244791667,1,0,0,1.7471,Diorite_rect,11,0,11,0,1,
6614a41a93554ac9d5125ade,SCR,2024-06-26_13h38.16.856,LearnStrategy,2023.2.3,Win32,59.88023952,5,2,13,,,,,,,,4,13,,,,,,,,,,,,,1,1.25,0,,,,,,-0.384114583,-0.236979167,1,0,0,1.2504,Andesite_rect,12,0,12,0,1,
6614a41a93554ac9d5125ade,SCR,2024-06-26_13h38.16.856,LearnStrategy,2023.2.3,Win32,59.88023952,5,2,14,,,,,,,,5,11,,,,,,,,,,,,,5,1.062,1,,,,,,-0.4140625,-0.395833333,1,0,0,1.0615,Obsidian_rect,13,0,13,0,1,
6614a41a93554ac9d5125ade,SCR,2024-06-26_13h38.16.856,LearnStrategy,2023.2.3,Win32,59.88023952,5,2,15,,,,,,,,3,13,,,,,,,,,,,,,3,3.089,1,,,,,,0.122395833,-0.247395833,1,0,0,3.0891,Diorite_rect,14,0,14,0,1,
6614a41a93554ac9d5125ade,SCR,2024-06-26_13h38.16.856,LearnStrategy,2023.2.3,Win32,59.88023952,5,2,16,,,,,,,,6,09,,,,,,,,,,,,,6,1.19,1,,,,,,-0.127604167,-0.41015625,1,0,0,1.1901,Pegmatite_rect,15,0,15,0,1,
6614a41a93554ac9d5125ade,SCR,2024-06-26_13h38.16.856,LearnStrategy,2023.2.3,Win32,59.88023952,6,1,1,-0.55078125,0.407552083,1,0,0,1.3654,Andesite_03,1,03,6,1,1.365,1,09,-0.352864583,-0.259114583,1,0,0,1.5307,Andesite_rect,1,1.531,1,0,0,0,0,1,,,,,,,,,,,,,
6614a41a93554ac9d5125ade,SCR,2024-06-26_13h38.16.856,LearnStrategy,2023.2.3,Win32,59.88023952,6,1,2,-0.361979167,0.427083333,1,0,0,0.8767,Pegmatite_05,6,05,6,2,0.877,8,08,-0.16015625,-0.404947917,1,0,0,1.215,Pegmatite_rect,6,1.215,1,1,0,1,0,1,,,,,,,,,,,,,
6614a41a93554ac9d5125ade,SCR,2024-06-26_13h38.16.856,LearnStrategy,2023.2.3,Win32,59.88023952,6,1,3,-0.221354167,0.39453125,1,0,0,0.8644,Basalt_08,2,08,6,3,0.864,7,14,0.3359375,-0.239583333,1,0,0,1.9941,Gabbro_rect,4,1.994,0,2,0,2,0,1,,,,,,,,,,,,,
6614a41a93554ac9d5125ade,SCR,2024-06-26_13h38.16.856,LearnStrategy,2023.2.3,Win32,59.88023952,6,1,4,-0.25,0.37890625,1,0,0,1.0476,Basalt_08,2,08,6,3,1.048,2,16,-0.145833333,-0.255208333,1,0,0,1.2987,Basalt_rect,2,1.299,1,3,0,3,0,1,,,,,,,,,,,,,
6614a41a93554ac9d5125ade,SCR,2024-06-26_13h38.16.856,LearnStrategy,2023.2.3,Win32,59.88023952,6,1,5,-0.055989583,0.408854167,1,0,0,0.9998,Peridotite_05,7,05,6,4,1,4,11,0.063802083,-0.24609375,1,0,0,2.2104,Diorite_rect,3,2.21,0,4,0,4,0,1,,,,,,,,,,,,,
6614a41a93554ac9d5125ade,SCR,2024-06-26_13h38.16.856,LearnStrategy,2023.2.3,Win32,59.88023952,6,1,6,-0.09765625,0.4296875,1,0,0,1.1799,Peridotite_05,7,05,6,4,1.18,1,11,0.186197917,-0.420572917,1,0,0,3.0858,Peridotite_rect,7,3.086,1,5,0,5,0,1,,,,,,,,,,,,,
6614a41a93554ac9d5125ade,SCR,2024-06-26_13h38.16.856,LearnStrategy,2023.2.3,Win32,59.88023952,6,1,7,0.065104167,0.21484375,1,0,0,1.0638,Peridotite_13,7,13,5,5,1.064,6,06,0.100260417,-0.391927083,1,0,0,1.9954,Peridotite_rect,7,1.995,1,6,0,6,0,1,,,,,,,,,,,,,
6614a41a93554ac9d5125ade,SCR,2024-06-26_13h38.16.856,LearnStrategy,2023.2.3,Win32,59.88023952,6,1,8,0.078125,0.403645833,1,0,0,1.4326,Basalt_06,2,06,6,5,1.433,4,14,0.381510417,-0.40234375,1,0,0,1.4126,Pumice_rect,8,1.413,0,7,0,7,0,1,,,,,,,,,,,,,
6614a41a93554ac9d5125ade,SCR,2024-06-26_13h38.16.856,LearnStrategy,2023.2.3,Win32,59.88023952,6,1,9,-0.21875,-0.126302083,1,0,0,2.4804,Andesite_10,1,10,3,3,2.48,2,04,0.407552083,-0.41796875,1,0,0,1.7796,Pumice_rect,8,1.78,0,8,0,8,0,1,,,,,,,,,,,,,
6614a41a93554ac9d5125ade,SCR,2024-06-26_13h38.16.856,LearnStrategy,2023.2.3,Win32,59.88023952,6,1,10,-0.34375,-0.239583333,1,0,0,2.2814,Peridotite_06,7,06,2,2,2.281,3,14,-0.109375,-0.41796875,1,0,0,2.7941,Pegmatite_rect,6,2.794,0,9,0,9,0,1,,,,,,,,,,,,,
6614a41a93554ac9d5125ade,SCR,2024-06-26_13h38.16.856,LearnStrategy,2023.2.3,Win32,59.88023952,6,1,11,0.072916667,-0.233072917,1,0,0,1.3861,Gabbro_12,4,12,2,5,1.386,8,08,0.337239583,-0.25,1,0,0,0.9423,Gabbro_rect,4,0.942,1,10,0,10,0,1,,,,,,,,,,,,,
6614a41a93554ac9d5125ade,SCR,2024-06-26_13h38.16.856,LearnStrategy,2023.2.3,Win32,59.88023952,6,1,12,-0.221354167,-0.1015625,1,0,0,1.1639,Andesite_10,1,10,3,3,1.164,3,08,0.37109375,-0.264322917,1,0,0,2.8813,Gabbro_rect,4,2.881,0,11,0,11,0,1,,,,,,,,,,,,,
6614a41a93554ac9d5125ade,SCR,2024-06-26_13h38.16.856,LearnStrategy,2023.2.3,Win32,59.88023952,6,1,13,-0.546875,-0.229166667,1,0,0,2.014,Obsidian_07,5,07,2,1,2.014,7,05,-0.3671875,-0.397135417,1,0,0,2.1263,Obsidian_rect,5,2.126,1,12,0,12,0,1,,,,,,,,,,,,,
6614a41a93554ac9d5125ade,SCR,2024-06-26_13h38.16.856,LearnStrategy,2023.2.3,Win32,59.88023952,6,1,14,0.0625,-0.401041667,1,0,0,1.5464,Pegmatite_10,6,10,1,5,1.546,3,07,-0.102864583,-0.403645833,1,0,0,2.28,Pegmatite_rect,6,2.28,1,13,0,13,0,1,,,,,,,,,,,,,
6614a41a93554ac9d5125ade,SCR,2024-06-26_13h38.16.856,LearnStrategy,2023.2.3,Win32,59.88023952,6,1,15,0.25,-0.127604167,1,0,0,1.3309,Pumice_08,8,08,3,6,1.331,2,08,0.334635417,-0.397135417,1,0,0,2.6076,Pumice_rect,8,2.608,1,14,0,14,0,1,,,,,,,,,,,,,
6614a41a93554ac9d5125ade,SCR,2024-06-26_13h38.16.856,LearnStrategy,2023.2.3,Win32,59.88023952,6,1,16,0.09765625,-0.114583333,1,0,0,1.0832,Basalt_12,2,12,3,5,1.083,4,12,0.365885417,-0.411458333,1,0,0,0.874,Pumice_rect,8,0.874,0,15,0,15,0,1,,,,,,,,,,,,,
6614a41a93554ac9d5125ade,SCR,2024-06-26_13h38.16.856,LearnStrategy,2023.2.3,Win32,59.88023952,6,2,1,,,,,,,,4,03,,,,,,,,,,,,,1,5.527,0,,,,,,-0.458333333,-0.229166667,1,0,0,5.527,Andesite_rect,0,0,0,0,1,
6614a41a93554ac9d5125ade,SCR,2024-06-26_13h38.16.856,LearnStrategy,2023.2.3,Win32,59.88023952,6,2,2,,,,,,,,7,15,,,,,,,,,,,,,3,1.318,0,,,,,,0.08984375,-0.252604167,1,0,0,1.3181,Diorite_rect,1,0,1,0,1,
6614a41a93554ac9d5125ade,SCR,2024-06-26_13h38.16.856,LearnStrategy,2023.2.3,Win32,59.88023952,6,2,3,,,,,,,,5,09,,,,,,,,,,,,,5,1.3,1,,,,,,-0.326822917,-0.389322917,1,0,0,1.3002,Obsidian_rect,2,0,2,0,1,
6614a41a93554ac9d5125ade,SCR,2024-06-26_13h38.16.856,LearnStrategy,2023.2.3,Win32,59.88023952,6,2,4,,,,,,,,1,01,,,,,,,,,,,,,3,1.617,0,,,,,,0.14453125,-0.247395833,1,0,0,1.6168,Diorite_rect,3,0,3,0,1,
6614a41a93554ac9d5125ade,SCR,2024-06-26_13h38.16.856,LearnStrategy,2023.2.3,Win32,59.88023952,6,2,5,,,,,,,,8,13,,,,,,,,,,,,,2,3.778,0,,,,,,-0.134114583,-0.26953125,1,0,0,3.7781,Basalt_rect,4,0,4,0,1,
6614a41a93554ac9d5125ade,SCR,2024-06-26_13h38.16.856,LearnStrategy,2023.2.3,Win32,59.88023952,6,2,6,,,,,,,,6,13,,,,,,,,,,,,,7,5.631,0,,,,,,0.102864583,-0.40625,1,0,0,5.6307,Peridotite_rect,5,0,5,0,1,
6614a41a93554ac9d5125ade,SCR,2024-06-26_13h38.16.856,LearnStrategy,2023.2.3,Win32,59.88023952,6,2,7,,,,,,,,7,12,,,,,,,,,,,,,7,1.964,1,,,,,,0.115885417,-0.416666667,1,0,0,1.9641,Peridotite_rect,6,0,6,0,1,
6614a41a93554ac9d5125ade,SCR,2024-06-26_13h38.16.856,LearnStrategy,2023.2.3,Win32,59.88023952,6,2,8,,,,,,,,2,11,,,,,,,,,,,,,1,2.198,0,,,,,,-0.345052083,-0.243489583,1,0,0,2.1983,Andesite_rect,7,0,7,0,1,
6614a41a93554ac9d5125ade,SCR,2024-06-26_13h38.16.856,LearnStrategy,2023.2.3,Win32,59.88023952,6,2,9,,,,,,,,6,16,,,,,,,,,,,,,6,1.706,1,,,,,,-0.108072917,-0.381510417,1,0,0,1.7057,Pegmatite_rect,8,0,8,0,1,
6614a41a93554ac9d5125ade,SCR,2024-06-26_13h38.16.856,LearnStrategy,2023.2.3,Win32,59.88023952,6,2,10,,,,,,,,8,03,,,,,,,,,,,,,1,3.561,0,,,,,,-0.380208333,-0.2421875,1,0,0,3.5609,Andesite_rect,9,0,9,0,1,
6614a41a93554ac9d5125ade,SCR,2024-06-26_13h38.16.856,LearnStrategy,2023.2.3,Win32,59.88023952,6,2,11,,,,,,,,4,01,,,,,,,,,,,,,8,2.584,0,,,,,,0.37109375,-0.399739583,1,0,0,2.5842,Pumice_rect,10,0,10,0,1,
6614a41a93554ac9d5125ade,SCR,2024-06-26_13h38.16.856,LearnStrategy,2023.2.3,Win32,59.88023952,6,2,12,,,,,,,,3,10,,,,,,,,,,,,,3,2.649,1,,,,,,0.13671875,-0.265625,1,0,0,2.6495,Diorite_rect,11,0,11,0,1,
6614a41a93554ac9d5125ade,SCR,2024-06-26_13h38.16.856,LearnStrategy,2023.2.3,Win32,59.88023952,6,2,13,,,,,,,,5,05,,,,,,,,,,,,,5,1.371,1,,,,,,-0.354166667,-0.391927083,1,0,0,1.3708,Obsidian_rect,12,0,12,0,1,
6614a41a93554ac9d5125ade,SCR,2024-06-26_13h38.16.856,LearnStrategy,2023.2.3,Win32,59.88023952,6,2,14,,,,,,,,3,11,,,,,,,,,,,,,3,2.698,1,,,,,,0.138020833,-0.235677083,1,0,0,2.6977,Diorite_rect,13,0,13,0,1,
6614a41a93554ac9d5125ade,SCR,2024-06-26_13h38.16.856,LearnStrategy,2023.2.3,Win32,59.88023952,6,2,15,,,,,,,,2,14,,,,,,,,,,,,,2,5.948,1,,,,,,-0.123697917,-0.251302083,1,0,0,5.9479,Basalt_rect,14,0,14,0,1,
6614a41a93554ac9d5125ade,SCR,2024-06-26_13h38.16.856,LearnStrategy,2023.2.3,Win32,59.88023952,6,2,16,,,,,,,,1,16,,,,,,,,,,,,,1,1.186,1,,,,,,-0.385416667,-0.244791667,1,0,0,1.186,Andesite_rect,15,0,15,0,1,
6614a41a93554ac9d5125ade,SCR,2024-06-26_13h38.16.856,LearnStrategy,2023.2.3,Win32,59.88023952,7,1,1,-0.118489583,-0.427083333,1,0,0,1.8438,Pumice_09,8,09,1,4,1.844,2,10,0.135416667,-0.399739583,1,0,0,6.0464,Peridotite_rect,7,6.046,0,0,0,0,0,1,,,,,,,,,,,,,
6614a41a93554ac9d5125ade,SCR,2024-06-26_13h38.16.856,LearnStrategy,2023.2.3,Win32,59.88023952,7,1,2,0.3984375,-0.388020833,1,0,0,1.1309,Basalt_10,2,10,1,7,1.131,1,04,0.11328125,-0.259114583,1,0,0,1.9835,Diorite_rect,3,1.984,0,1,0,1,0,1,,,,,,,,,,,,,
6614a41a93554ac9d5125ade,SCR,2024-06-26_13h38.16.856,LearnStrategy,2023.2.3,Win32,59.88023952,7,1,3,0.381510417,-0.369791667,1,0,0,0.9149,Basalt_10,2,10,1,7,0.915,3,08,-0.197916667,-0.259114583,1,0,0,1.1215,Basalt_rect,2,1.121,1,2,0,2,0,1,,,,,,,,,,,,,
6614a41a93554ac9d5125ade,SCR,2024-06-26_13h38.16.856,LearnStrategy,2023.2.3,Win32,59.88023952,7,1,4,-0.076822917,-0.416666667,1,0,0,1.2178,Pumice_09,8,09,1,4,1.218,3,15,0.115885417,-0.252604167,1,0,0,1.5063,Diorite_rect,3,1.506,0,3,0,3,0,1,,,,,,,,,,,,,
6614a41a93554ac9d5125ade,SCR,2024-06-26_13h38.16.856,LearnStrategy,2023.2.3,Win32,59.88023952,7,1,5,-0.083333333,-0.256510417,1,0,0,0.9627,Diorite_07,3,07,2,4,0.963,4,12,0.1328125,-0.408854167,1,0,0,2.0115,Peridotite_rect,7,2.012,0,4,0,4,0,1,,,,,,,,,,,,,
6614a41a93554ac9d5125ade,SCR,2024-06-26_13h38.16.856,LearnStrategy,2023.2.3,Win32,59.88023952,7,1,6,-0.104166667,-0.23046875,1,0,0,1.0306,Diorite_07,3,07,2,4,1.031,1,11,0.145833333,-0.26953125,1,0,0,0.7451,Diorite_rect,3,0.745,1,5,0,5,0,1,,,,,,,,,,,,,
6614a41a93554ac9d5125ade,SCR,2024-06-26_13h38.16.856,LearnStrategy,2023.2.3,Win32,59.88023952,7,1,7,-0.22265625,-0.098958333,1,0,0,0.8647,Andesite_10,1,10,3,3,0.865,6,05,-0.119791667,-0.25390625,1,0,0,4.327,Basalt_rect,2,4.327,0,6,0,6,0,1,,,,,,,,,,,,,
6614a41a93554ac9d5125ade,SCR,2024-06-26_13h38.16.856,LearnStrategy,2023.2.3,Win32,59.88023952,7,1,8,0.220052083,-0.259114583,1,0,0,1.734,Andesite_04,1,04,2,6,1.734,8,10,0.123697917,-0.407552083,1,0,0,2.402,Peridotite_rect,7,2.402,0,7,0,7,0,1,,,,,,,,,,,,,
6614a41a93554ac9d5125ade,SCR,2024-06-26_13h38.16.856,LearnStrategy,2023.2.3,Win32,59.88023952,7,1,9,0.41015625,-0.28515625,1,0,0,1.7968,Pegmatite_07,6,07,2,7,1.797,8,14,-0.139322917,-0.419270833,1,0,0,2.838,Pegmatite_rect,6,2.838,1,8,0,8,0,1,,,,,,,,,,,,,
6614a41a93554ac9d5125ade,SCR,2024-06-26_13h38.16.856,LearnStrategy,2023.2.3,Win32,59.88023952,7,1,10,0.375,0.075520833,1,0,0,1.5177,Pumice_14,8,14,4,7,1.518,8,08,0.151041667,-0.26953125,1,0,0,1.7341,Diorite_rect,3,1.734,0,9,0,9,0,1,,,,,,,,,,,,,
6614a41a93554ac9d5125ade,SCR,2024-06-26_13h38.16.856,LearnStrategy,2023.2.3,Win32,59.88023952,7,1,11,0.533854167,-0.265625,1,0,0,1.1136,Pumice_02,8,02,2,8,1.114,7,13,0.364583333,-0.412760417,1,0,0,2.2911,Pumice_rect,8,2.291,1,10,0,10,0,1,,,,,,,,,,,,,
6614a41a93554ac9d5125ade,SCR,2024-06-26_13h38.16.856,LearnStrategy,2023.2.3,Win32,59.88023952,7,1,12,-0.513020833,-0.08203125,1,0,0,1.1425,Andesite_09,1,09,3,1,1.142,7,13,-0.368489583,-0.24609375,1,0,0,1.5478,Andesite_rect,1,1.548,1,11,0,11,0,1,,,,,,,,,,,,,
6614a41a93554ac9d5125ade,SCR,2024-06-26_13h38.16.856,LearnStrategy,2023.2.3,Win32,59.88023952,7,1,13,-0.360677083,-0.09765625,1,0,0,1.0974,Obsidian_16,5,16,3,2,1.097,2,04,-0.36328125,-0.411458333,1,0,0,0.9655,Obsidian_rect,5,0.966,1,12,0,12,0,1,,,,,,,,,,,,,
6614a41a93554ac9d5125ade,SCR,2024-06-26_13h38.16.856,LearnStrategy,2023.2.3,Win32,59.88023952,7,1,14,-0.180989583,-0.0859375,1,0,0,0.9979,Andesite_10,1,10,3,3,0.998,2,16,0.083333333,-0.40234375,1,0,0,2.8802,Peridotite_rect,7,2.88,0,13,0,13,0,1,,,,,,,,,,,,,
6614a41a93554ac9d5125ade,SCR,2024-06-26_13h38.16.856,LearnStrategy,2023.2.3,Win32,59.88023952,7,1,15,-0.048177083,-0.125,1,0,0,1.2634,Andesite_11,1,11,3,4,1.263,4,05,-0.390625,-0.255208333,1,0,0,2.6106,Andesite_rect,1,2.611,1,14,0,14,0,1,,,,,,,,,,,,,
6614a41a93554ac9d5125ade,SCR,2024-06-26_13h38.16.856,LearnStrategy,2023.2.3,Win32,59.88023952,7,1,16,0.365885417,-0.130208333,1,0,0,0.8791,Peridotite_04,7,04,3,7,0.879,4,16,-0.384114583,-0.244791667,1,0,0,1.9138,Andesite_rect,1,1.914,0,15,0,15,0,1,,,,,,,,,,,,,
6614a41a93554ac9d5125ade,SCR,2024-06-26_13h38.16.856,LearnStrategy,2023.2.3,Win32,59.88023952,7,2,1,,,,,,,,7,07,,,,,,,,,,,,,3,2.164,0,,,,,,0.125,-0.25390625,1,0,0,2.1641,Diorite_rect,0,0,0,0,1,
6614a41a93554ac9d5125ade,SCR,2024-06-26_13h38.16.856,LearnStrategy,2023.2.3,Win32,59.88023952,7,2,2,,,,,,,,6,11,,,,,,,,,,,,,6,1.739,1,,,,,,-0.115885417,-0.390625,1,0,0,1.7385,Pegmatite_rect,1,0,1,0,1,
6614a41a93554ac9d5125ade,SCR,2024-06-26_13h38.16.856,LearnStrategy,2023.2.3,Win32,59.88023952,7,2,3,,,,,,,,5,09,,,,,,,,,,,,,5,1.141,1,,,,,,-0.348958333,-0.403645833,1,0,0,1.1415,Obsidian_rect,2,0,2,0,1,
6614a41a93554ac9d5125ade,SCR,2024-06-26_13h38.16.856,LearnStrategy,2023.2.3,Win32,59.88023952,7,2,4,,,,,,,,3,10,,,,,,,,,,,,,3,1.21,1,,,,,,0.091145833,-0.239583333,1,0,0,1.21,Diorite_rect,3,0,3,0,1,
6614a41a93554ac9d5125ade,SCR,2024-06-26_13h38.16.856,LearnStrategy,2023.2.3,Win32,59.88023952,7,2,5,,,,,,,,3,11,,,,,,,,,,,,,1,1.767,0,,,,,,-0.36328125,-0.229166667,1,0,0,1.7669,Andesite_rect,4,0,4,0,1,
6614a41a93554ac9d5125ade,SCR,2024-06-26_13h38.16.856,LearnStrategy,2023.2.3,Win32,59.88023952,7,2,6,,,,,,,,6,16,,,,,,,,,,,,,6,1.196,1,,,,,,-0.130208333,-0.397135417,1,0,0,1.1955,Pegmatite_rect,5,0,5,0,1,
6614a41a93554ac9d5125ade,SCR,2024-06-26_13h38.16.856,LearnStrategy,2023.2.3,Win32,59.88023952,7,2,7,,,,,,,,1,14,,,,,,,,,,,,,1,2.052,1,,,,,,-0.388020833,-0.234375,1,0,0,2.052,Andesite_rect,6,0,6,0,1,
6614a41a93554ac9d5125ade,SCR,2024-06-26_13h38.16.856,LearnStrategy,2023.2.3,Win32,59.88023952,7,2,8,,,,,,,,1,02,,,,,,,,,,,,,1,1.675,1,,,,,,-0.395833333,-0.265625,1,0,0,1.6754,Andesite_rect,7,0,7,0,1,
6614a41a93554ac9d5125ade,SCR,2024-06-26_13h38.16.856,LearnStrategy,2023.2.3,Win32,59.88023952,7,2,9,,,,,,,,2,14,,,,,,,,,,,,,7,2.115,0,,,,,,0.184895833,-0.390625,1,0,0,2.1148,Peridotite_rect,8,0,8,0,1,
6614a41a93554ac9d5125ade,SCR,2024-06-26_13h38.16.856,LearnStrategy,2023.2.3,Win32,59.88023952,7,2,10,,,,,,,,5,11,,,,,,,,,,,,,5,1.164,1,,,,,,-0.3828125,-0.408854167,1,0,0,1.1638,Obsidian_rect,9,0,9,0,1,
6614a41a93554ac9d5125ade,SCR,2024-06-26_13h38.16.856,LearnStrategy,2023.2.3,Win32,59.88023952,7,2,11,,,,,,,,8,05,,,,,,,,,,,,,1,3.213,0,,,,,,-0.345052083,-0.248697917,1,0,0,3.2125,Andesite_rect,10,0,10,0,1,
6614a41a93554ac9d5125ade,SCR,2024-06-26_13h38.16.856,LearnStrategy,2023.2.3,Win32,59.88023952,7,2,12,,,,,,,,2,05,,,,,,,,,,,,,4,2.465,0,,,,,,0.41015625,-0.256510417,1,0,0,2.4651,Gabbro_rect,11,0,11,0,1,
6614a41a93554ac9d5125ade,SCR,2024-06-26_13h38.16.856,LearnStrategy,2023.2.3,Win32,59.88023952,7,2,13,,,,,,,,8,16,,,,,,,,,,,,,7,2.832,0,,,,,,0.088541667,-0.393229167,1,0,0,2.8319,Peridotite_rect,12,0,12,0,1,
6614a41a93554ac9d5125ade,SCR,2024-06-26_13h38.16.856,LearnStrategy,2023.2.3,Win32,59.88023952,7,2,14,,,,,,,,4,03,,,,,,,,,,,,,7,2.071,0,,,,,,0.10546875,-0.407552083,1,0,0,2.0707,Peridotite_rect,13,0,13,0,1,
6614a41a93554ac9d5125ade,SCR,2024-06-26_13h38.16.856,LearnStrategy,2023.2.3,Win32,59.88023952,7,2,15,,,,,,,,7,02,,,,,,,,,,,,,1,2.009,0,,,,,,-0.390625,-0.24609375,1,0,0,2.0092,Andesite_rect,14,0,14,0,1,
6614a41a93554ac9d5125ade,SCR,2024-06-26_13h38.16.856,LearnStrategy,2023.2.3,Win32,59.88023952,7,2,16,,,,,,,,4,13,,,,,,,,,,,,,1,3.785,0,,,,,,-0.337239583,-0.255208333,1,0,0,3.7855,Andesite_rect,15,0,15,0,1,
6614a41a93554ac9d5125ade,SCR,2024-06-26_13h38.16.856,LearnStrategy,2023.2.3,Win32,59.88023952,8,1,1,-0.540364583,0.399739583,1,0,0,1.7968,Andesite_03,1,03,6,1,1.797,2,06,-0.3515625,-0.23046875,1,0,0,1.5124,Andesite_rect,1,1.512,1,0,0,0,0,1,,,,,,,,,,,,,
6614a41a93554ac9d5125ade,SCR,2024-06-26_13h38.16.856,LearnStrategy,2023.2.3,Win32,59.88023952,8,1,2,-0.375,0.404947917,1,0,0,1.4463,Pegmatite_05,6,05,6,2,1.446,4,14,-0.08984375,-0.415364583,1,0,0,2.881,Pegmatite_rect,6,2.881,1,1,0,1,0,1,,,,,,,,,,,,,
6614a41a93554ac9d5125ade,SCR,2024-06-26_13h38.16.856,LearnStrategy,2023.2.3,Win32,59.88023952,8,1,3,-0.19140625,0.39453125,1,0,0,0.7013,Basalt_08,2,08,6,3,0.701,8,08,-0.138020833,-0.256510417,1,0,0,1.5175,Basalt_rect,2,1.518,1,2,0,2,0,1,,,,,,,,,,,,,
6614a41a93554ac9d5125ade,SCR,2024-06-26_13h38.16.856,LearnStrategy,2023.2.3,Win32,59.88023952,8,1,4,-0.063802083,0.375,1,0,0,1.4512,Peridotite_05,7,05,6,4,1.451,6,05,0.14453125,-0.244791667,1,0,0,1.3899,Diorite_rect,3,1.39,0,3,0,3,0,1,,,,,,,,,,,,,
6614a41a93554ac9d5125ade,SCR,2024-06-26_13h38.16.856,LearnStrategy,2023.2.3,Win32,59.88023952,8,1,5,-0.046875,0.369791667,1,0,0,0.7741,Peridotite_05,7,05,6,4,0.774,3,02,0.174479167,-0.3984375,1,0,0,1.2655,Peridotite_rect,7,1.265,1,4,0,4,0,1,,,,,,,,,,,,,
6614a41a93554ac9d5125ade,SCR,2024-06-26_13h38.16.856,LearnStrategy,2023.2.3,Win32,59.88023952,8,1,6,0.08203125,0.420572917,1,0,0,0.8288,Basalt_06,2,06,6,5,0.829,7,16,0.428385417,-0.393229167,1,0,0,1.3976,Pumice_rect,8,1.398,0,5,0,5,0,1,,,,,,,,,,,,,
6614a41a93554ac9d5125ade,SCR,2024-06-26_13h38.16.856,LearnStrategy,2023.2.3,Win32,59.88023952,8,1,7,0.126302083,0.407552083,1,0,0,2.5472,Basalt_06,2,06,6,5,2.547,8,14,-0.1796875,-0.243489583,1,0,0,2.1056,Basalt_rect,2,2.106,1,6,0,6,0,1,,,,,,,,,,,,,
6614a41a93554ac9d5125ade,SCR,2024-06-26_13h38.16.856,LearnStrategy,2023.2.3,Win32,59.88023952,8,1,8,0.248697917,0.38671875,1,0,0,1.0969,Gabbro_11,4,11,6,6,1.097,8,02,0.38671875,-0.25390625,1,0,0,3.1758,Gabbro_rect,4,3.176,1,7,0,7,0,1,,,,,,,,,,,,,
6614a41a93554ac9d5125ade,SCR,2024-06-26_13h38.16.856,LearnStrategy,2023.2.3,Win32,59.88023952,8,1,9,-0.067708333,0.08984375,1,0,0,0.7955,Diorite_08,3,08,4,4,0.795,2,04,0.109375,-0.244791667,1,0,0,3.8915,Diorite_rect,3,3.891,1,8,0,8,0,1,,,,,,,,,,,,,
6614a41a93554ac9d5125ade,SCR,2024-06-26_13h38.16.856,LearnStrategy,2023.2.3,Win32,59.88023952,8,1,10,-0.23828125,0.1015625,1,0,0,0.8976,Diorite_02,3,02,4,3,0.898,7,06,0.1171875,-0.270833333,1,0,0,0.9307,Diorite_rect,3,0.931,1,9,0,9,0,1,,,,,,,,,,,,,
6614a41a93554ac9d5125ade,SCR,2024-06-26_13h38.16.856,LearnStrategy,2023.2.3,Win32,59.88023952,8,1,11,0.537760417,0.08984375,1,0,0,2.3808,Basalt_04,2,04,4,8,2.381,1,07,-0.104166667,-0.236979167,1,0,0,2.6157,Basalt_rect,2,2.616,1,10,0,10,0,1,,,,,,,,,,,,,
6614a41a93554ac9d5125ade,SCR,2024-06-26_13h38.16.856,LearnStrategy,2023.2.3,Win32,59.88023952,8,1,12,0.381510417,0.06640625,1,0,0,1.2794,Pumice_14,8,14,4,7,1.279,7,06,0.11328125,-0.247395833,1,0,0,1.3098,Diorite_rect,3,1.31,0,11,0,11,0,1,,,,,,,,,,,,,
6614a41a93554ac9d5125ade,SCR,2024-06-26_13h38.16.856,LearnStrategy,2023.2.3,Win32,59.88023952,8,1,13,0.380208333,0.057291667,1,0,0,0.764,Pumice_14,8,14,4,7,0.764,3,09,0.356770833,-0.384114583,1,0,0,1.8067,Pumice_rect,8,1.807,1,12,0,12,0,1,,,,,,,,,,,,,
6614a41a93554ac9d5125ade,SCR,2024-06-26_13h38.16.856,LearnStrategy,2023.2.3,Win32,59.88023952,8,1,14,0.442708333,-0.139322917,1,0,0,1.3672,Peridotite_04,7,04,3,7,1.367,4,16,0.12890625,-0.24609375,1,0,0,1.2247,Diorite_rect,3,1.225,0,13,0,13,0,1,,,,,,,,,,,,,
6614a41a93554ac9d5125ade,SCR,2024-06-26_13h38.16.856,LearnStrategy,2023.2.3,Win32,59.88023952,8,1,15,0.104166667,-0.139322917,1,0,0,1.297,Basalt_12,2,12,3,5,1.297,4,09,0.13671875,-0.25390625,1,0,0,1.0152,Diorite_rect,3,1.015,0,14,0,14,0,1,,,,,,,,,,,,,
6614a41a93554ac9d5125ade,SCR,2024-06-26_13h38.16.856,LearnStrategy,2023.2.3,Win32,59.88023952,8,1,16,-0.223958333,-0.08984375,1,0,0,1.2304,Andesite_10,1,10,3,3,1.23,1,10,-0.069010417,-0.260416667,1,0,0,1.7545,Basalt_rect,2,1.755,0,15,0,15,0,1,,,,,,,,,,,,,
6614a41a93554ac9d5125ade,SCR,2024-06-26_13h38.16.856,LearnStrategy,2023.2.3,Win32,59.88023952,8,2,1,,,,,,,,8,15,,,,,,,,,,,,,7,11.125,0,,,,,,0.071614583,-0.4140625,1,0,0,11.1254,Peridotite_rect,0,0,0,0,1,
6614a41a93554ac9d5125ade,SCR,2024-06-26_13h38.16.856,LearnStrategy,2023.2.3,Win32,59.88023952,8,2,2,,,,,,,,1,05,,,,,,,,,,,,,1,1.518,1,,,,,,-0.38671875,-0.247395833,1,0,0,1.5176,Andesite_rect,1,0,1,0,1,
6614a41a93554ac9d5125ade,SCR,2024-06-26_13h38.16.856,LearnStrategy,2023.2.3,Win32,59.88023952,8,2,3,,,,,,,,7,15,,,,,,,,,,,,,7,1.564,1,,,,,,0.1328125,-0.411458333,1,0,0,1.5636,Peridotite_rect,2,0,2,0,1,
6614a41a93554ac9d5125ade,SCR,2024-06-26_13h38.16.856,LearnStrategy,2023.2.3,Win32,59.88023952,8,2,4,,,,,,,,2,09,,,,,,,,,,,,,4,3.313,0,,,,,,0.345052083,-0.252604167,1,0,0,3.3134,Gabbro_rect,3,0,3,0,1,
6614a41a93554ac9d5125ade,SCR,2024-06-26_13h38.16.856,LearnStrategy,2023.2.3,Win32,59.88023952,8,2,5,,,,,,,,8,13,,,,,,,,,,,,,7,4.041,0,,,,,,0.1640625,-0.40625,1,0,0,4.0411,Peridotite_rect,4,0,4,0,1,
6614a41a93554ac9d5125ade,SCR,2024-06-26_13h38.16.856,LearnStrategy,2023.2.3,Win32,59.88023952,8,2,6,,,,,,,,6,13,,,,,,,,,,,,,6,3.692,1,,,,,,-0.076822917,-0.3984375,1,0,0,3.6917,Pegmatite_rect,5,0,5,0,1,
6614a41a93554ac9d5125ade,SCR,2024-06-26_13h38.16.856,LearnStrategy,2023.2.3,Win32,59.88023952,8,2,7,,,,,,,,5,05,,,,,,,,,,,,,5,1.275,1,,,,,,-0.348958333,-0.389322917,1,0,0,1.2754,Obsidian_rect,6,0,6,0,1,
6614a41a93554ac9d5125ade,SCR,2024-06-26_13h38.16.856,LearnStrategy,2023.2.3,Win32,59.88023952,8,2,8,,,,,,,,5,14,,,,,,,,,,,,,5,0.966,1,,,,,,-0.333333333,-0.407552083,1,0,0,0.9659,Obsidian_rect,7,0,7,0,1,
6614a41a93554ac9d5125ade,SCR,2024-06-26_13h38.16.856,LearnStrategy,2023.2.3,Win32,59.88023952,8,2,9,,,,,,,,1,06,,,,,,,,,,,,,1,1.79,1,,,,,,-0.33203125,-0.233072917,1,0,0,1.7903,Andesite_rect,8,0,8,0,1,
6614a41a93554ac9d5125ade,SCR,2024-06-26_13h38.16.856,LearnStrategy,2023.2.3,Win32,59.88023952,8,2,10,,,,,,,,7,12,,,,,,,,,,,,,7,2.002,1,,,,,,0.09375,-0.421875,1,0,0,2.0019,Peridotite_rect,9,0,9,0,1,
6614a41a93554ac9d5125ade,SCR,2024-06-26_13h38.16.856,LearnStrategy,2023.2.3,Win32,59.88023952,8,2,11,,,,,,,,4,01,,,,,,,,,,,,,7,2.968,0,,,,,,0.158854167,-0.408854167,1,0,0,2.9681,Peridotite_rect,10,0,10,0,1,
6614a41a93554ac9d5125ade,SCR,2024-06-26_13h38.16.856,LearnStrategy,2023.2.3,Win32,59.88023952,8,2,12,,,,,,,,4,08,,,,,,,,,,,,,1,2.53,0,,,,,,-0.381510417,-0.247395833,1,0,0,2.53,Andesite_rect,11,0,11,0,1,
6614a41a93554ac9d5125ade,SCR,2024-06-26_13h38.16.856,LearnStrategy,2023.2.3,Win32,59.88023952,8,2,13,,,,,,,,2,11,,,,,,,,,,,,,8,1.184,0,,,,,,0.364583333,-0.40625,1,0,0,1.1839,Pumice_rect,12,0,12,0,1,
6614a41a93554ac9d5125ade,SCR,2024-06-26_13h38.16.856,LearnStrategy,2023.2.3,Win32,59.88023952,8,2,14,,,,,,,,3,13,,,,,,,,,,,,,3,1.434,1,,,,,,0.096354167,-0.243489583,1,0,0,1.4337,Diorite_rect,13,0,13,0,1,
6614a41a93554ac9d5125ade,SCR,2024-06-26_13h38.16.856,LearnStrategy,2023.2.3,Win32,59.88023952,8,2,15,,,,,,,,6,12,,,,,,,,,,,,,7,1.824,0,,,,,,0.091145833,-0.404947917,1,0,0,1.8244,Peridotite_rect,14,0,14,0,1,
6614a41a93554ac9d5125ade,SCR,2024-06-26_13h38.16.856,LearnStrategy,2023.2.3,Win32,59.88023952,8,2,16,,,,,,,,3,06,,,,,,,,,,,,,3,0.994,1,,,,,,0.140625,-0.268229167,1,0,0,0.994,Diorite_rect,15,0,15,0,1,
6614a41a93554ac9d5125ade,SCR,2024-06-26_13h38.16.856,LearnStrategy,2023.2.3,Win32,59.88023952,9,1,1,-0.208333333,-0.104166667,1,0,0,2.1785,Andesite_10,1,10,3,3,2.179,4,05,-0.430989583,-0.24609375,1,0,0,2.8934,Andesite_rect,1,2.893,1,0,0,0,0,1,,,,,,,,,,,,,
6614a41a93554ac9d5125ade,SCR,2024-06-26_13h38.16.856,LearnStrategy,2023.2.3,Win32,59.88023952,9,1,2,-0.23828125,-0.11328125,1,0,0,1.4469,Andesite_10,1,10,3,3,1.447,5,04,-0.375,-0.255208333,1,0,0,1.4823,Andesite_rect,1,1.482,1,1,0,1,0,1,,,,,,,,,,,,,
6614a41a93554ac9d5125ade,SCR,2024-06-26_13h38.16.856,LearnStrategy,2023.2.3,Win32,59.88023952,9,1,3,0.06640625,-0.138020833,1,0,0,0.7313,Basalt_12,2,12,3,5,0.731,1,11,-0.108072917,-0.248697917,1,0,0,1.6649,Basalt_rect,2,1.665,1,2,0,2,0,1,,,,,,,,,,,,,
6614a41a93554ac9d5125ade,SCR,2024-06-26_13h38.16.856,LearnStrategy,2023.2.3,Win32,59.88023952,9,1,4,0.0859375,-0.109375,1,0,0,0.8305,Basalt_12,2,12,3,5,0.831,8,09,-0.173177083,-0.24609375,1,0,0,1.0437,Basalt_rect,2,1.044,1,3,0,3,0,1,,,,,,,,,,,,,
6614a41a93554ac9d5125ade,SCR,2024-06-26_13h38.16.856,LearnStrategy,2023.2.3,Win32,59.88023952,9,1,5,0.114583333,-0.095052083,1,0,0,1.6451,Basalt_12,2,12,3,5,1.645,7,06,-0.109375,-0.240885417,1,0,0,1.924,Basalt_rect,2,1.924,1,4,0,4,0,1,,,,,,,,,,,,,
6614a41a93554ac9d5125ade,SCR,2024-06-26_13h38.16.856,LearnStrategy,2023.2.3,Win32,59.88023952,9,1,6,0.209635417,-0.096354167,1,0,0,0.7139,Pumice_08,8,08,3,6,0.714,8,09,0.333333333,-0.390625,1,0,0,3.2056,Pumice_rect,8,3.206,1,5,0,5,0,1,,,,,,,,,,,,,
6614a41a93554ac9d5125ade,SCR,2024-06-26_13h38.16.856,LearnStrategy,2023.2.3,Win32,59.88023952,9,1,7,0.565104167,-0.122395833,1,0,0,1.1808,Pumice_10,8,10,3,8,1.181,2,08,0.4140625,-0.411458333,1,0,0,2.1113,Pumice_rect,8,2.111,1,6,0,6,0,1,,,,,,,,,,,,,
6614a41a93554ac9d5125ade,SCR,2024-06-26_13h38.16.856,LearnStrategy,2023.2.3,Win32,59.88023952,9,1,8,0.088541667,-0.397135417,1,0,0,1.2652,Pegmatite_10,6,10,1,5,1.265,6,07,-0.15625,-0.420572917,1,0,0,1.0813,Pegmatite_rect,6,1.081,1,7,0,7,0,1,,,,,,,,,,,,,
6614a41a93554ac9d5125ade,SCR,2024-06-26_13h38.16.856,LearnStrategy,2023.2.3,Win32,59.88023952,9,1,9,0.251302083,-0.243489583,1,0,0,0.8319,Andesite_04,1,04,2,6,0.832,8,08,-0.326822917,-0.270833333,1,0,0,1.3706,Andesite_rect,1,1.371,1,8,0,8,0,1,,,,,,,,,,,,,
6614a41a93554ac9d5125ade,SCR,2024-06-26_13h38.16.856,LearnStrategy,2023.2.3,Win32,59.88023952,9,1,10,-0.069010417,-0.376302083,1,0,0,1.2514,Pumice_09,8,09,1,4,1.251,7,13,0.173177083,-0.247395833,1,0,0,1.0398,Diorite_rect,3,1.04,0,9,0,9,0,1,,,,,,,,,,,,,
6614a41a93554ac9d5125ade,SCR,2024-06-26_13h38.16.856,LearnStrategy,2023.2.3,Win32,59.88023952,9,1,11,-0.065104167,-0.223958333,1,0,0,1.0317,Diorite_07,3,07,2,4,1.032,1,10,0.192708333,-0.264322917,1,0,0,1.9922,Diorite_rect,3,1.992,1,10,0,10,0,1,,,,,,,,,,,,,
6614a41a93554ac9d5125ade,SCR,2024-06-26_13h38.16.856,LearnStrategy,2023.2.3,Win32,59.88023952,9,1,12,0.39453125,-0.408854167,1,0,0,1.9979,Basalt_10,2,10,1,7,1.998,3,15,-0.40234375,-0.268229167,1,0,0,2.2425,Andesite_rect,1,2.242,0,11,0,11,0,1,,,,,,,,,,,,,
6614a41a93554ac9d5125ade,SCR,2024-06-26_13h38.16.856,LearnStrategy,2023.2.3,Win32,59.88023952,9,1,13,0.434895833,-0.391927083,1,0,0,1.5806,Basalt_10,2,10,1,7,1.581,4,05,-0.0859375,-0.25,1,0,0,0.6897,Basalt_rect,2,0.69,1,12,0,12,0,1,,,,,,,,,,,,,
6614a41a93554ac9d5125ade,SCR,2024-06-26_13h38.16.856,LearnStrategy,2023.2.3,Win32,59.88023952,9,1,14,0.408854167,-0.264322917,1,0,0,1.3015,Pegmatite_07,6,07,2,7,1.302,2,12,-0.075520833,-0.40625,1,0,0,1.0176,Pegmatite_rect,6,1.018,1,13,0,13,0,1,,,,,,,,,,,,,
6614a41a93554ac9d5125ade,SCR,2024-06-26_13h38.16.856,LearnStrategy,2023.2.3,Win32,59.88023952,9,1,15,0.548177083,-0.251302083,1,0,0,1.3972,Pumice_02,8,02,2,8,1.397,4,12,0.341145833,-0.3828125,1,0,0,1.7639,Pumice_rect,8,1.764,1,14,0,14,0,1,,,,,,,,,,,,,
6614a41a93554ac9d5125ade,SCR,2024-06-26_13h38.16.856,LearnStrategy,2023.2.3,Win32,59.88023952,9,1,16,-0.196614583,0.106770833,1,0,0,1.7467,Diorite_02,3,02,4,3,1.747,2,08,-0.368489583,-0.259114583,1,0,0,1.5659,Andesite_rect,1,1.566,0,15,0,15,0,1,,,,,,,,,,,,,
6614a41a93554ac9d5125ade,SCR,2024-06-26_13h38.16.856,LearnStrategy,2023.2.3,Win32,59.88023952,9,2,1,,,,,,,,4,10,,,,,,,,,,,,,2,11.696,0,,,,,,-0.123697917,-0.265625,1,0,0,11.6964,Basalt_rect,0,0,0,0,1,
6614a41a93554ac9d5125ade,SCR,2024-06-26_13h38.16.856,LearnStrategy,2023.2.3,Win32,59.88023952,9,2,2,,,,,,,,6,15,,,,,,,,,,,,,6,1.065,1,,,,,,-0.141927083,-0.40234375,1,0,0,1.0653,Pegmatite_rect,1,0,1,0,1,
6614a41a93554ac9d5125ade,SCR,2024-06-26_13h38.16.856,LearnStrategy,2023.2.3,Win32,59.88023952,9,2,3,,,,,,,,8,03,,,,,,,,,,,,,7,3.347,0,,,,,,0.169270833,-0.388020833,1,0,0,3.3466,Peridotite_rect,2,0,2,0,1,
6614a41a93554ac9d5125ade,SCR,2024-06-26_13h38.16.856,LearnStrategy,2023.2.3,Win32,59.88023952,9,2,4,,,,,,,,8,04,,,,,,,,,,,,,8,5.218,1,,,,,,0.373697917,-0.411458333,1,0,0,5.2179,Pumice_rect,3,0,3,0,1,
6614a41a93554ac9d5125ade,SCR,2024-06-26_13h38.16.856,LearnStrategy,2023.2.3,Win32,59.88023952,9,2,5,,,,,,,,4,15,,,,,,,,,,,,,1,1.72,0,,,,,,-0.415364583,-0.247395833,1,0,0,1.7196,Andesite_rect,4,0,4,0,1,
6614a41a93554ac9d5125ade,SCR,2024-06-26_13h38.16.856,LearnStrategy,2023.2.3,Win32,59.88023952,9,2,6,,,,,,,,2,01,,,,,,,,,,,,,2,2.357,1,,,,,,-0.130208333,-0.265625,1,0,0,2.3569,Basalt_rect,5,0,5,0,1,
6614a41a93554ac9d5125ade,SCR,2024-06-26_13h38.16.856,LearnStrategy,2023.2.3,Win32,59.88023952,9,2,7,,,,,,,,3,16,,,,,,,,,,,,,3,5.268,1,,,,,,0.139322917,-0.23828125,1,0,0,5.2683,Diorite_rect,6,0,6,0,1,
6614a41a93554ac9d5125ade,SCR,2024-06-26_13h38.16.856,LearnStrategy,2023.2.3,Win32,59.88023952,9,2,8,,,,,,,,1,16,,,,,,,,,,,,,3,1.637,0,,,,,,0.091145833,-0.252604167,1,0,0,1.637,Diorite_rect,7,0,7,0,1,
6614a41a93554ac9d5125ade,SCR,2024-06-26_13h38.16.856,LearnStrategy,2023.2.3,Win32,59.88023952,9,2,9,,,,,,,,2,02,,,,,,,,,,,,,2,1.391,1,,,,,,-0.088541667,-0.25,1,0,0,1.3911,Basalt_rect,8,0,8,0,1,
6614a41a93554ac9d5125ade,SCR,2024-06-26_13h38.16.856,LearnStrategy,2023.2.3,Win32,59.88023952,9,2,10,,,,,,,,5,02,,,,,,,,,,,,,5,1.214,1,,,,,,-0.403645833,-0.391927083,1,0,0,1.2143,Obsidian_rect,9,0,9,0,1,
6614a41a93554ac9d5125ade,SCR,2024-06-26_13h38.16.856,LearnStrategy,2023.2.3,Win32,59.88023952,9,2,11,,,,,,,,5,12,,,,,,,,,,,,,5,1.39,1,,,,,,-0.380208333,-0.40625,1,0,0,1.3903,Obsidian_rect,10,0,10,0,1,
6614a41a93554ac9d5125ade,SCR,2024-06-26_13h38.16.856,LearnStrategy,2023.2.3,Win32,59.88023952,9,2,12,,,,,,,,7,08,,,,,,,,,,,,,7,1.611,1,,,,,,0.12890625,-0.391927083,1,0,0,1.6106,Peridotite_rect,11,0,11,0,1,
6614a41a93554ac9d5125ade,SCR,2024-06-26_13h38.16.856,LearnStrategy,2023.2.3,Win32,59.88023952,9,2,13,,,,,,,,1,01,,,,,,,,,,,,,7,1.658,0,,,,,,0.09765625,-0.391927083,1,0,0,1.6584,Peridotite_rect,12,0,12,0,1,
6614a41a93554ac9d5125ade,SCR,2024-06-26_13h38.16.856,LearnStrategy,2023.2.3,Win32,59.88023952,9,2,14,,,,,,,,7,10,,,,,,,,,,,,,2,2.2,0,,,,,,-0.123697917,-0.264322917,1,0,0,2.2002,Basalt_rect,13,0,13,0,1,
6614a41a93554ac9d5125ade,SCR,2024-06-26_13h38.16.856,LearnStrategy,2023.2.3,Win32,59.88023952,9,2,15,,,,,,,,6,09,,,,,,,,,,,,,6,1.111,1,,,,,,-0.088541667,-0.399739583,1,0,0,1.1113,Pegmatite_rect,14,0,14,0,1,
6614a41a93554ac9d5125ade,SCR,2024-06-26_13h38.16.856,LearnStrategy,2023.2.3,Win32,59.88023952,9,2,16,,,,,,,,3,12,,,,,,,,,,,,,8,2.85,0,,,,,,0.377604167,-0.404947917,1,0,0,2.8503,Pumice_rect,15,0,15,0,1,
6614a41a93554ac9d5125ade,SCR,2024-06-26_13h38.16.856,LearnStrategy,2023.2.3,Win32,59.88023952,,,,,,,,,,,,,,,,,,,,,,,,,,,,,,,,,,,,,,,,,,,,,0
6614a41a93554ac9d5125ade,SCR,2024-06-26_13h38.16.856,LearnStrategy,2023.2.3,Win32,59.88023952,,,,,,,,,,,,,,,,,,,,,,,,,,,,,,,,,,,,,,,,,,,,,
6614a41a93554ac9d5125ade,SCR,2024-06-26_13h38.16.856,LearnStrategy,2023.2.3,Win32,59.88023952,,,,,,,,,,,6,08,1,1,,,,,,,,,,,,,,,,,,,,,,,,,,,,,,,
6614a41a93554ac9d5125ade,SCR,2024-06-26_13h38.16.856,LearnStrategy,2023.2.3,Win32,59.88023952,,,,,,,,,,,5,06,1,2,,,,,,,,,,,,,,,,,,,,,,,,,,,,,,,
6614a41a93554ac9d5125ade,SCR,2024-06-26_13h38.16.856,LearnStrategy,2023.2.3,Win32,59.88023952,,,,,,,,,,,5,08,1,3,,,,,,,,,,,,,,,,,,,,,,,,,,,,,,,
6614a41a93554ac9d5125ade,SCR,2024-06-26_13h38.16.856,LearnStrategy,2023.2.3,Win32,59.88023952,,,,,,,,,,,8,09,1,4,,,,,,,,,,,,,,,,,,,,,,,,,,,,,,,
6614a41a93554ac9d5125ade,SCR,2024-06-26_13h38.16.856,LearnStrategy,2023.2.3,Win32,59.88023952,,,,,,,,,,,6,10,1,5,,,,,,,,,,,,,,,,,,,,,,,,,,,,,,,
6614a41a93554ac9d5125ade,SCR,2024-06-26_13h38.16.856,LearnStrategy,2023.2.3,Win32,59.88023952,,,,,,,,,,,2,16,1,6,,,,,,,,,,,,,,,,,,,,,,,,,,,,,,,
6614a41a93554ac9d5125ade,SCR,2024-06-26_13h38.16.856,LearnStrategy,2023.2.3,Win32,59.88023952,,,,,,,,,,,2,10,1,7,,,,,,,,,,,,,,,,,,,,,,,,,,,,,,,
6614a41a93554ac9d5125ade,SCR,2024-06-26_13h38.16.856,LearnStrategy,2023.2.3,Win32,59.88023952,,,,,,,,,,,7,16,1,8,,,,,,,,,,,,,,,,,,,,,,,,,,,,,,,
6614a41a93554ac9d5125ade,SCR,2024-06-26_13h38.16.856,LearnStrategy,2023.2.3,Win32,59.88023952,,,,,,,,,,,5,07,2,1,,,,,,,,,,,,,,,,,,,,,,,,,,,,,,,
6614a41a93554ac9d5125ade,SCR,2024-06-26_13h38.16.856,LearnStrategy,2023.2.3,Win32,59.88023952,,,,,,,,,,,7,06,2,2,,,,,,,,,,,,,,,,,,,,,,,,,,,,,,,
6614a41a93554ac9d5125ade,SCR,2024-06-26_13h38.16.856,LearnStrategy,2023.2.3,Win32,59.88023952,,,,,,,,,,,4,09,2,3,,,,,,,,,,,,,,,,,,,,,,,,,,,,,,,
6614a41a93554ac9d5125ade,SCR,2024-06-26_13h38.16.856,LearnStrategy,2023.2.3,Win32,59.88023952,,,,,,,,,,,3,07,2,4,,,,,,,,,,,,,,,,,,,,,,,,,,,,,,,
6614a41a93554ac9d5125ade,SCR,2024-06-26_13h38.16.856,LearnStrategy,2023.2.3,Win32,59.88023952,,,,,,,,,,,4,12,2,5,,,,,,,,,,,,,,,,,,,,,,,,,,,,,,,
6614a41a93554ac9d5125ade,SCR,2024-06-26_13h38.16.856,LearnStrategy,2023.2.3,Win32,59.88023952,,,,,,,,,,,1,04,2,6,,,,,,,,,,,,,,,,,,,,,,,,,,,,,,,
6614a41a93554ac9d5125ade,SCR,2024-06-26_13h38.16.856,LearnStrategy,2023.2.3,Win32,59.88023952,,,,,,,,,,,6,07,2,7,,,,,,,,,,,,,,,,,,,,,,,,,,,,,,,
6614a41a93554ac9d5125ade,SCR,2024-06-26_13h38.16.856,LearnStrategy,2023.2.3,Win32,59.88023952,,,,,,,,,,,8,02,2,8,,,,,,,,,,,,,,,,,,,,,,,,,,,,,,,
6614a41a93554ac9d5125ade,SCR,2024-06-26_13h38.16.856,LearnStrategy,2023.2.3,Win32,59.88023952,,,,,,,,,,,1,09,3,1,,,,,,,,,,,,,,,,,,,,,,,,,,,,,,,
6614a41a93554ac9d5125ade,SCR,2024-06-26_13h38.16.856,LearnStrategy,2023.2.3,Win32,59.88023952,,,,,,,,,,,5,16,3,2,,,,,,,,,,,,,,,,,,,,,,,,,,,,,,,
6614a41a93554ac9d5125ade,SCR,2024-06-26_13h38.16.856,LearnStrategy,2023.2.3,Win32,59.88023952,,,,,,,,,,,1,10,3,3,,,,,,,,,,,,,,,,,,,,,,,,,,,,,,,
6614a41a93554ac9d5125ade,SCR,2024-06-26_13h38.16.856,LearnStrategy,2023.2.3,Win32,59.88023952,,,,,,,,,,,1,11,3,4,,,,,,,,,,,,,,,,,,,,,,,,,,,,,,,
6614a41a93554ac9d5125ade,SCR,2024-06-26_13h38.16.856,LearnStrategy,2023.2.3,Win32,59.88023952,,,,,,,,,,,2,12,3,5,,,,,,,,,,,,,,,,,,,,,,,,,,,,,,,
6614a41a93554ac9d5125ade,SCR,2024-06-26_13h38.16.856,LearnStrategy,2023.2.3,Win32,59.88023952,,,,,,,,,,,8,08,3,6,,,,,,,,,,,,,,,,,,,,,,,,,,,,,,,
6614a41a93554ac9d5125ade,SCR,2024-06-26_13h38.16.856,LearnStrategy,2023.2.3,Win32,59.88023952,,,,,,,,,,,7,04,3,7,,,,,,,,,,,,,,,,,,,,,,,,,,,,,,,
6614a41a93554ac9d5125ade,SCR,2024-06-26_13h38.16.856,LearnStrategy,2023.2.3,Win32,59.88023952,,,,,,,,,,,8,10,3,8,,,,,,,,,,,,,,,,,,,,,,,,,,,,,,,
6614a41a93554ac9d5125ade,SCR,2024-06-26_13h38.16.856,LearnStrategy,2023.2.3,Win32,59.88023952,,,,,,,,,,,1,07,4,1,,,,,,,,,,,,,,,,,,,,,,,,,,,,,,,
6614a41a93554ac9d5125ade,SCR,2024-06-26_13h38.16.856,LearnStrategy,2023.2.3,Win32,59.88023952,,,,,,,,,,,7,14,4,2,,,,,,,,,,,,,,,,,,,,,,,,,,,,,,,
6614a41a93554ac9d5125ade,SCR,2024-06-26_13h38.16.856,LearnStrategy,2023.2.3,Win32,59.88023952,,,,,,,,,,,3,02,4,3,,,,,,,,,,,,,,,,,,,,,,,,,,,,,,,
6614a41a93554ac9d5125ade,SCR,2024-06-26_13h38.16.856,LearnStrategy,2023.2.3,Win32,59.88023952,,,,,,,,,,,3,08,4,4,,,,,,,,,,,,,,,,,,,,,,,,,,,,,,,
6614a41a93554ac9d5125ade,SCR,2024-06-26_13h38.16.856,LearnStrategy,2023.2.3,Win32,59.88023952,,,,,,,,,,,4,14,4,5,,,,,,,,,,,,,,,,,,,,,,,,,,,,,,,
6614a41a93554ac9d5125ade,SCR,2024-06-26_13h38.16.856,LearnStrategy,2023.2.3,Win32,59.88023952,,,,,,,,,,,5,04,4,6,,,,,,,,,,,,,,,,,,,,,,,,,,,,,,,
6614a41a93554ac9d5125ade,SCR,2024-06-26_13h38.16.856,LearnStrategy,2023.2.3,Win32,59.88023952,,,,,,,,,,,8,14,4,7,,,,,,,,,,,,,,,,,,,,,,,,,,,,,,,
6614a41a93554ac9d5125ade,SCR,2024-06-26_13h38.16.856,LearnStrategy,2023.2.3,Win32,59.88023952,,,,,,,,,,,2,04,4,8,,,,,,,,,,,,,,,,,,,,,,,,,,,,,,,
6614a41a93554ac9d5125ade,SCR,2024-06-26_13h38.16.856,LearnStrategy,2023.2.3,Win32,59.88023952,,,,,,,,,,,3,09,5,1,,,,,,,,,,,,,,,,,,,,,,,,,,,,,,,
6614a41a93554ac9d5125ade,SCR,2024-06-26_13h38.16.856,LearnStrategy,2023.2.3,Win32,59.88023952,,,,,,,,,,,6,03,5,2,,,,,,,,,,,,,,,,,,,,,,,,,,,,,,,
6614a41a93554ac9d5125ade,SCR,2024-06-26_13h38.16.856,LearnStrategy,2023.2.3,Win32,59.88023952,,,,,,,,,,,8,06,5,3,,,,,,,,,,,,,,,,,,,,,,,,,,,,,,,
6614a41a93554ac9d5125ade,SCR,2024-06-26_13h38.16.856,LearnStrategy,2023.2.3,Win32,59.88023952,,,,,,,,,,,6,06,5,4,,,,,,,,,,,,,,,,,,,,,,,,,,,,,,,
6614a41a93554ac9d5125ade,SCR,2024-06-26_13h38.16.856,LearnStrategy,2023.2.3,Win32,59.88023952,,,,,,,,,,,7,13,5,5,,,,,,,,,,,,,,,,,,,,,,,,,,,,,,,
6614a41a93554ac9d5125ade,SCR,2024-06-26_13h38.16.856,LearnStrategy,2023.2.3,Win32,59.88023952,,,,,,,,,,,3,15,5,6,,,,,,,,,,,,,,,,,,,,,,,,,,,,,,,
6614a41a93554ac9d5125ade,SCR,2024-06-26_13h38.16.856,LearnStrategy,2023.2.3,Win32,59.88023952,,,,,,,,,,,4,05,5,7,,,,,,,,,,,,,,,,,,,,,,,,,,,,,,,
6614a41a93554ac9d5125ade,SCR,2024-06-26_13h38.16.856,LearnStrategy,2023.2.3,Win32,59.88023952,,,,,,,,,,,3,14,5,8,,,,,,,,,,,,,,,,,,,,,,,,,,,,,,,
6614a41a93554ac9d5125ade,SCR,2024-06-26_13h38.16.856,LearnStrategy,2023.2.3,Win32,59.88023952,,,,,,,,,,,1,03,6,1,,,,,,,,,,,,,,,,,,,,,,,,,,,,,,,
6614a41a93554ac9d5125ade,SCR,2024-06-26_13h38.16.856,LearnStrategy,2023.2.3,Win32,59.88023952,,,,,,,,,,,6,05,6,2,,,,,,,,,,,,,,,,,,,,,,,,,,,,,,,
6614a41a93554ac9d5125ade,SCR,2024-06-26_13h38.16.856,LearnStrategy,2023.2.3,Win32,59.88023952,,,,,,,,,,,2,08,6,3,,,,,,,,,,,,,,,,,,,,,,,,,,,,,,,
6614a41a93554ac9d5125ade,SCR,2024-06-26_13h38.16.856,LearnStrategy,2023.2.3,Win32,59.88023952,,,,,,,,,,,7,05,6,4,,,,,,,,,,,,,,,,,,,,,,,,,,,,,,,
6614a41a93554ac9d5125ade,SCR,2024-06-26_13h38.16.856,LearnStrategy,2023.2.3,Win32,59.88023952,,,,,,,,,,,2,06,6,5,,,,,,,,,,,,,,,,,,,,,,,,,,,,,,,
6614a41a93554ac9d5125ade,SCR,2024-06-26_13h38.16.856,LearnStrategy,2023.2.3,Win32,59.88023952,,,,,,,,,,,4,11,6,6,,,,,,,,,,,,,,,,,,,,,,,,,,,,,,,
6614a41a93554ac9d5125ade,SCR,2024-06-26_13h38.16.856,LearnStrategy,2023.2.3,Win32,59.88023952,,,,,,,,,,,5,10,6,7,,,,,,,,,,,,,,,,,,,,,,,,,,,,,,,
6614a41a93554ac9d5125ade,SCR,2024-06-26_13h38.16.856,LearnStrategy,2023.2.3,Win32,59.88023952,,,,,,,,,,,4,16,6,8,,,,,,,,,,,,,,,,,,,,,,,,,,,,,,,