participant,condition,date,expName,psychopyVersion,OS,frameRate,block,phase,trial,learn_mouse.x,learn_mouse.y,learn_mouse.leftButton,learn_mouse.midButton,learn_mouse.rightButton,learn_mouse.time,learn_mouse.clicked_name,cat,token,row,col,t_select,cat_mouse_l.x,cat_mouse_l.y,cat_mouse_l.leftButton,cat_mouse_l.midButton,cat_mouse_l.rightButton,cat_mouse_l.time,cat_mouse_l.clicked_name,resp,t_resp,corr,train_trials.thisRepN,train_trials.thisTrialN,train_trials.thisN,train_trials.thisIndex,train_trials.ran,cat_mouse_t.x,cat_mouse_t.y,cat_mouse_t.leftButton,cat_mouse_t.midButton,cat_mouse_t.rightButton,cat_mouse_t.time,cat_mouse_t.clicked_name,test_trials.thisRepN,test_trials.thisTrialN,test_trials.thisN,test_trials.thisIndex,test_trials.ran,Bonus
6615879590e1f7c3dce86f28,SCN,2024-06-24_12h46.58.288,LearnStrategy,2023.2.3,Win32,59.52380952,,,,,,,,,,,,,,,,,,,,,,,,,,,,,,,,,,,,,,,,,,,
6615879590e1f7c3dce86f28,SCN,2024-06-24_12h46.58.288,LearnStrategy,2023.2.3,Win32,59.52380952,1,1,1,-0.535185185,0.408333333,1,0,0,6.3462,Diorite_13,3,13,6,1,6.346,-0.358333333,-0.253703704,1,0,0,4.9277,Andesite_rect,1,4.928,0,0,0,0,0,1,,,,,,,,,,,,,
6615879590e1f7c3dce86f28,SCN,2024-06-24_12h46.58.288,LearnStrategy,2023.2.3,Win32,59.52380952,1,1,2,-0.224074074,-0.089814815,1,0,0,5.1614,Obsidian_07,5,07,3,3,5.161,0.093518519,-0.250925926,1,0,0,4.6239,Diorite_rect,3,4.624,0,1,0,1,0,1,,,,,,,,,,,,,
6615879590e1f7c3dce86f28,SCN,2024-06-24_12h46.58.288,LearnStrategy,2023.2.3,Win32,59.52380952,1,1,3,0.400925926,0.394444444,1,0,0,4.7477,Pumice_16,8,16,6,7,4.748,0.380555556,-0.402777778,1,0,0,2.7733,Pumice_rect,8,2.773,1,2,0,2,0,1,,,,,,,,,,,,,
6615879590e1f7c3dce86f28,SCN,2024-06-24_12h46.58.288,LearnStrategy,2023.2.3,Win32,59.52380952,1,1,4,0.544444444,-0.101851852,1,0,0,3.2436,Pumice_04,8,04,3,8,3.244,-0.101851852,-0.409259259,1,0,0,4.0661,Pegmatite_rect,6,4.066,0,3,0,3,0,1,,,,,,,,,,,,,
6615879590e1f7c3dce86f28,SCN,2024-06-24_12h46.58.288,LearnStrategy,2023.2.3,Win32,59.52380952,1,1,5,-0.107407407,-0.24537037,1,0,0,3.755,Andesite_14,1,14,2,4,3.755,0.363888889,-0.407407407,1,0,0,1.7014,Pumice_rect,8,1.701,0,4,0,4,0,1,,,,,,,,,,,,,
6615879590e1f7c3dce86f28,SCN,2024-06-24_12h46.58.288,LearnStrategy,2023.2.3,Win32,59.52380952,1,1,6,0.090740741,-0.406481481,1,0,0,5.0448,Obsidian_11,5,11,1,5,5.045,-0.367592593,-0.380555556,1,0,0,2.3224,Obsidian_rect,5,2.322,1,5,0,5,0,1,,,,,,,,,,,,,
6615879590e1f7c3dce86f28,SCN,2024-06-24_12h46.58.288,LearnStrategy,2023.2.3,Win32,59.52380952,1,1,7,0.222222222,-0.267592593,1,0,0,2.2896,Pegmatite_13,6,13,2,6,2.29,-0.37962963,-0.249074074,1,0,0,2.0487,Andesite_rect,1,2.049,0,6,0,6,0,1,,,,,,,,,,,,,
6615879590e1f7c3dce86f28,SCN,2024-06-24_12h46.58.288,LearnStrategy,2023.2.3,Win32,59.52380952,1,1,8,-0.574074074,0.099074074,1,0,0,2.4613,Basalt_10,2,10,4,1,2.461,-0.14537037,-0.240740741,1,0,0,2.0427,Basalt_rect,2,2.043,1,7,0,7,0,1,,,,,,,,,,,,,
6615879590e1f7c3dce86f28,SCN,2024-06-24_12h46.58.288,LearnStrategy,2023.2.3,Win32,59.52380952,1,1,9,-0.538888889,0.387037037,1,0,0,4.1308,Diorite_13,3,13,6,1,4.131,-0.17962963,-0.406481481,1,0,0,3.6946,Pegmatite_rect,6,3.695,0,8,0,8,0,1,,,,,,,,,,,,,
6615879590e1f7c3dce86f28,SCN,2024-06-24_12h46.58.288,LearnStrategy,2023.2.3,Win32,59.52380952,1,1,10,-0.252777778,0.226851852,1,0,0,2.0216,Pegmatite_15,6,15,5,3,2.022,0.380555556,-0.253703704,1,0,0,3.022,Gabbro_rect,4,3.022,0,9,0,9,0,1,,,,,,,,,,,,,
6615879590e1f7c3dce86f28,SCN,2024-06-24_12h46.58.288,LearnStrategy,2023.2.3,Win32,59.52380952,1,1,11,0.251851852,-0.282407407,1,0,0,3.7603,Pegmatite_13,6,13,2,6,3.76,-0.087962963,-0.390740741,1,0,0,1.9639,Pegmatite_rect,6,1.964,1,10,0,10,0,1,,,,,,,,,,,,,
6615879590e1f7c3dce86f28,SCN,2024-06-24_12h46.58.288,LearnStrategy,2023.2.3,Win32,59.52380952,1,1,12,-0.399074074,-0.080555556,1,0,0,2.9759,Pegmatite_11,6,11,3,2,2.976,-0.17037037,-0.397222222,1,0,0,3.2465,Pegmatite_rect,6,3.246,1,11,0,11,0,1,,,,,,,,,,,,,
6615879590e1f7c3dce86f28,SCN,2024-06-24_12h46.58.288,LearnStrategy,2023.2.3,Win32,59.52380952,1,1,13,-0.075925926,0.093518519,1,0,0,1.5735,Diorite_07,3,07,4,4,1.573,-0.099074074,-0.402777778,1,0,0,6.3725,Pegmatite_rect,6,6.373,0,12,0,12,0,1,,,,,,,,,,,,,
6615879590e1f7c3dce86f28,SCN,2024-06-24_12h46.58.288,LearnStrategy,2023.2.3,Win32,59.52380952,1,1,14,-0.065740741,-0.27962963,1,0,0,4.3919,Andesite_14,1,14,2,4,4.392,-0.103703704,-0.408333333,1,0,0,4.6135,Pegmatite_rect,6,4.613,0,13,0,13,0,1,,,,,,,,,,,,,
6615879590e1f7c3dce86f28,SCN,2024-06-24_12h46.58.288,LearnStrategy,2023.2.3,Win32,59.52380952,1,1,15,-0.544444444,-0.268518519,1,0,0,1.8708,Diorite_02,3,02,2,1,1.871,-0.340740741,-0.263888889,1,0,0,8.2136,Andesite_rect,1,8.214,0,14,0,14,0,1,,,,,,,,,,,,,
6615879590e1f7c3dce86f28,SCN,2024-06-24_12h46.58.288,LearnStrategy,2023.2.3,Win32,59.52380952,1,1,16,0.580555556,-0.421296296,1,0,0,3.3429,Peridotite_13,7,13,1,8,3.343,0.457407407,-0.398148148,1,0,0,2.6396,Pumice_rect,8,2.64,0,15,0,15,0,1,,,,,,,,,,,,,
6615879590e1f7c3dce86f28,SCN,2024-06-24_12h46.58.288,LearnStrategy,2023.2.3,Win32,59.52380952,1,2,1,,,,,,,,3,12,,,,,,,,,,,8,6.076,0,,,,,,0.408333333,-0.398148148,1,0,0,6.0765,Pumice_rect,0,0,0,0,1,
6615879590e1f7c3dce86f28,SCN,2024-06-24_12h46.58.288,LearnStrategy,2023.2.3,Win32,59.52380952,1,2,2,,,,,,,,1,09,,,,,,,,,,,3,5.552,0,,,,,,0.153703704,-0.230555556,1,0,0,5.5524,Diorite_rect,1,0,1,0,1,
6615879590e1f7c3dce86f28,SCN,2024-06-24_12h46.58.288,LearnStrategy,2023.2.3,Win32,59.52380952,1,2,3,,,,,,,,7,14,,,,,,,,,,,1,2.975,0,,,,,,-0.359259259,-0.237962963,1,0,0,2.9749,Andesite_rect,2,0,2,0,1,
6615879590e1f7c3dce86f28,SCN,2024-06-24_12h46.58.288,LearnStrategy,2023.2.3,Win32,59.52380952,1,2,4,,,,,,,,8,03,,,,,,,,,,,8,1.602,1,,,,,,0.391666667,-0.398148148,1,0,0,1.6021,Pumice_rect,3,0,3,0,1,
6615879590e1f7c3dce86f28,SCN,2024-06-24_12h46.58.288,LearnStrategy,2023.2.3,Win32,59.52380952,1,2,5,,,,,,,,2,14,,,,,,,,,,,8,1.673,0,,,,,,0.42962963,-0.382407407,1,0,0,1.6725,Pumice_rect,4,0,4,0,1,
6615879590e1f7c3dce86f28,SCN,2024-06-24_12h46.58.288,LearnStrategy,2023.2.3,Win32,59.52380952,1,2,6,,,,,,,,8,14,,,,,,,,,,,8,1.753,1,,,,,,0.448148148,-0.384259259,1,0,0,1.7532,Pumice_rect,5,0,5,0,1,
6615879590e1f7c3dce86f28,SCN,2024-06-24_12h46.58.288,LearnStrategy,2023.2.3,Win32,59.52380952,1,2,7,,,,,,,,5,10,,,,,,,,,,,5,2.246,1,,,,,,-0.412962963,-0.402777778,1,0,0,2.2461,Obsidian_rect,6,0,6,0,1,
6615879590e1f7c3dce86f28,SCN,2024-06-24_12h46.58.288,LearnStrategy,2023.2.3,Win32,59.52380952,1,2,8,,,,,,,,4,08,,,,,,,,,,,3,3.758,0,,,,,,0.158333333,-0.248148148,1,0,0,3.7582,Diorite_rect,7,0,7,0,1,
6615879590e1f7c3dce86f28,SCN,2024-06-24_12h46.58.288,LearnStrategy,2023.2.3,Win32,59.52380952,1,2,9,,,,,,,,7,04,,,,,,,,,,,2,7.137,0,,,,,,-0.078703704,-0.249074074,1,0,0,7.1366,Basalt_rect,8,0,8,0,1,
6615879590e1f7c3dce86f28,SCN,2024-06-24_12h46.58.288,LearnStrategy,2023.2.3,Win32,59.52380952,1,2,10,,,,,,,,6,05,,,,,,,,,,,5,2.519,0,,,,,,-0.374074074,-0.392592593,1,0,0,2.5193,Obsidian_rect,9,0,9,0,1,
6615879590e1f7c3dce86f28,SCN,2024-06-24_12h46.58.288,LearnStrategy,2023.2.3,Win32,59.52380952,1,2,11,,,,,,,,4,12,,,,,,,,,,,7,4.827,0,,,,,,0.178703704,-0.389814815,1,0,0,4.8266,Peridotite_rect,10,0,10,0,1,
6615879590e1f7c3dce86f28,SCN,2024-06-24_12h46.58.288,LearnStrategy,2023.2.3,Win32,59.52380952,1,2,12,,,,,,,,6,10,,,,,,,,,,,1,5.376,0,,,,,,-0.355555556,-0.261111111,1,0,0,5.3765,Andesite_rect,11,0,11,0,1,
6615879590e1f7c3dce86f28,SCN,2024-06-24_12h46.58.288,LearnStrategy,2023.2.3,Win32,59.52380952,1,2,13,,,,,,,,5,06,,,,,,,,,,,5,1.92,1,,,,,,-0.37037037,-0.397222222,1,0,0,1.9202,Obsidian_rect,12,0,12,0,1,
6615879590e1f7c3dce86f28,SCN,2024-06-24_12h46.58.288,LearnStrategy,2023.2.3,Win32,59.52380952,1,2,14,,,,,,,,3,10,,,,,,,,,,,3,6.722,1,,,,,,0.125,-0.268518519,1,0,0,6.7225,Diorite_rect,13,0,13,0,1,
6615879590e1f7c3dce86f28,SCN,2024-06-24_12h46.58.288,LearnStrategy,2023.2.3,Win32,59.52380952,1,2,15,,,,,,,,2,05,,,,,,,,,,,7,3.664,0,,,,,,0.077777778,-0.391666667,1,0,0,3.6638,Peridotite_rect,14,0,14,0,1,
6615879590e1f7c3dce86f28,SCN,2024-06-24_12h46.58.288,LearnStrategy,2023.2.3,Win32,59.52380952,1,2,16,,,,,,,,1,10,,,,,,,,,,,8,2.194,0,,,,,,0.392592593,-0.417592593,1,0,0,2.1942,Pumice_rect,15,0,15,0,1,
6615879590e1f7c3dce86f28,SCN,2024-06-24_12h46.58.288,LearnStrategy,2023.2.3,Win32,59.52380952,2,1,1,-0.058333333,0.387037037,1,0,0,8.6007,Peridotite_16,7,16,6,4,8.601,0.182407407,-0.260185185,1,0,0,2.6242,Diorite_rect,3,2.624,0,0,0,0,0,1,,,,,,,,,,,,,
6615879590e1f7c3dce86f28,SCN,2024-06-24_12h46.58.288,LearnStrategy,2023.2.3,Win32,59.52380952,2,1,2,-0.566666667,0.089814815,1,0,0,4.8102,Basalt_10,2,10,4,1,4.81,0.162962963,-0.255555556,1,0,0,2.4553,Diorite_rect,3,2.455,0,1,0,1,0,1,,,,,,,,,,,,,
6615879590e1f7c3dce86f28,SCN,2024-06-24_12h46.58.288,LearnStrategy,2023.2.3,Win32,59.52380952,2,1,3,-0.413888889,-0.417592593,1,0,0,2.8174,Andesite_11,1,11,1,2,2.817,-0.131481481,-0.237037037,1,0,0,2.5108,Basalt_rect,2,2.511,0,2,0,2,0,1,,,,,,,,,,,,,
6615879590e1f7c3dce86f28,SCN,2024-06-24_12h46.58.288,LearnStrategy,2023.2.3,Win32,59.52380952,2,1,4,-0.400925926,-0.102777778,1,0,0,4.684,Pegmatite_11,6,11,3,2,4.684,0.121296296,-0.417592593,1,0,0,2.0386,Peridotite_rect,7,2.039,0,3,0,3,0,1,,,,,,,,,,,,,
6615879590e1f7c3dce86f28,SCN,2024-06-24_12h46.58.288,LearnStrategy,2023.2.3,Win32,59.52380952,2,1,5,0.533333333,0.101851852,1,0,0,5.643,Pegmatite_09,6,09,4,8,5.643,0.32037037,-0.231481481,1,0,0,1.8336,Gabbro_rect,4,1.834,0,4,0,4,0,1,,,,,,,,,,,,,
6615879590e1f7c3dce86f28,SCN,2024-06-24_12h46.58.288,LearnStrategy,2023.2.3,Win32,59.52380952,2,1,6,0.090740741,0.412037037,1,0,0,4.5739,Gabbro_03,4,03,6,5,4.574,0.183333333,-0.415740741,1,0,0,3.4323,Peridotite_rect,7,3.432,0,5,0,5,0,1,,,,,,,,,,,,,
6615879590e1f7c3dce86f28,SCN,2024-06-24_12h46.58.288,LearnStrategy,2023.2.3,Win32,59.52380952,2,1,7,-0.522222222,-0.260185185,1,0,0,2.4777,Diorite_02,3,02,2,1,2.478,0.343518519,-0.262037037,1,0,0,1.4745,Gabbro_rect,4,1.475,0,6,0,6,0,1,,,,,,,,,,,,,
6615879590e1f7c3dce86f28,SCN,2024-06-24_12h46.58.288,LearnStrategy,2023.2.3,Win32,59.52380952,2,1,8,-0.058333333,-0.439814815,1,0,0,3.9995,Basalt_08,2,08,1,4,4,0.448148148,-0.235185185,1,0,0,2.4006,Gabbro_rect,4,2.401,0,7,0,7,0,1,,,,,,,,,,,,,
6615879590e1f7c3dce86f28,SCN,2024-06-24_12h46.58.288,LearnStrategy,2023.2.3,Win32,59.52380952,2,1,9,-0.549074074,-0.4,1,0,0,8.6753,Pegmatite_16,6,16,1,1,8.675,-0.07962963,-0.415740741,1,0,0,3.5487,Pegmatite_rect,6,3.549,1,8,0,8,0,1,,,,,,,,,,,,,
6615879590e1f7c3dce86f28,SCN,2024-06-24_12h46.58.288,LearnStrategy,2023.2.3,Win32,59.52380952,2,1,10,-0.059259259,-0.118518519,1,0,0,4.8109,Diorite_09,3,09,3,4,4.811,0.113888889,-0.396296296,1,0,0,2.3088,Peridotite_rect,7,2.309,0,9,0,9,0,1,,,,,,,,,,,,,
6615879590e1f7c3dce86f28,SCN,2024-06-24_12h46.58.288,LearnStrategy,2023.2.3,Win32,59.52380952,2,1,11,-0.411111111,0.251851852,1,0,0,3.3303,Andesite_04,1,04,5,2,3.33,0.167592593,-0.247222222,1,0,0,4.066,Diorite_rect,3,4.066,0,10,0,10,0,1,,,,,,,,,,,,,
6615879590e1f7c3dce86f28,SCN,2024-06-24_12h46.58.288,LearnStrategy,2023.2.3,Win32,59.52380952,2,1,12,0.534259259,0.083333333,1,0,0,2.6891,Pegmatite_09,6,09,4,8,2.689,-0.082407407,-0.402777778,1,0,0,3.4407,Pegmatite_rect,6,3.441,1,11,0,11,0,1,,,,,,,,,,,,,
6615879590e1f7c3dce86f28,SCN,2024-06-24_12h46.58.288,LearnStrategy,2023.2.3,Win32,59.52380952,2,1,13,0.094444444,0.068518519,1,0,0,2.1039,Pumice_10,8,10,4,5,2.104,0.362962963,-0.411111111,1,0,0,1.3731,Pumice_rect,8,1.373,1,12,0,12,0,1,,,,,,,,,,,,,
6615879590e1f7c3dce86f28,SCN,2024-06-24_12h46.58.288,LearnStrategy,2023.2.3,Win32,59.52380952,2,1,14,0.517592593,-0.408333333,1,0,0,4.7078,Peridotite_13,7,13,1,8,4.708,0.378703704,-0.242592593,1,0,0,2.9872,Gabbro_rect,4,2.987,0,13,0,13,0,1,,,,,,,,,,,,,
6615879590e1f7c3dce86f28,SCN,2024-06-24_12h46.58.288,LearnStrategy,2023.2.3,Win32,59.52380952,2,1,15,-0.540740741,-0.124074074,1,0,0,8.1747,Peridotite_07,7,07,3,1,8.175,-0.394444444,-0.27037037,1,0,0,3.9831,Andesite_rect,1,3.983,0,14,0,14,0,1,,,,,,,,,,,,,
6615879590e1f7c3dce86f28,SCN,2024-06-24_12h46.58.288,LearnStrategy,2023.2.3,Win32,59.52380952,2,1,16,-0.067592593,-0.103703704,1,0,0,2.6453,Diorite_09,3,09,3,4,2.645,0.140740741,-0.4,1,0,0,3.1537,Peridotite_rect,7,3.154,0,15,0,15,0,1,,,,,,,,,,,,,
6615879590e1f7c3dce86f28,SCN,2024-06-24_12h46.58.288,LearnStrategy,2023.2.3,Win32,59.52380952,2,2,1,,,,,,,,6,03,,,,,,,,,,,6,8.29,1,,,,,,-0.080555556,-0.39537037,1,0,0,8.2905,Pegmatite_rect,0,0,0,0,1,
6615879590e1f7c3dce86f28,SCN,2024-06-24_12h46.58.288,LearnStrategy,2023.2.3,Win32,59.52380952,2,2,2,,,,,,,,8,05,,,,,,,,,,,8,1.345,1,,,,,,0.422222222,-0.414814815,1,0,0,1.3452,Pumice_rect,1,0,1,0,1,
6615879590e1f7c3dce86f28,SCN,2024-06-24_12h46.58.288,LearnStrategy,2023.2.3,Win32,59.52380952,2,2,3,,,,,,,,2,11,,,,,,,,,,,7,4.984,0,,,,,,0.162037037,-0.412037037,1,0,0,4.9845,Peridotite_rect,2,0,2,0,1,
6615879590e1f7c3dce86f28,SCN,2024-06-24_12h46.58.288,LearnStrategy,2023.2.3,Win32,59.52380952,2,2,4,,,,,,,,8,09,,,,,,,,,,,8,1.244,1,,,,,,0.34537037,-0.410185185,1,0,0,1.2444,Pumice_rect,3,0,3,0,1,
6615879590e1f7c3dce86f28,SCN,2024-06-24_12h46.58.288,LearnStrategy,2023.2.3,Win32,59.52380952,2,2,5,,,,,,,,1,06,,,,,,,,,,,1,4.048,1,,,,,,-0.393518519,-0.259259259,1,0,0,4.0481,Andesite_rect,4,0,4,0,1,
6615879590e1f7c3dce86f28,SCN,2024-06-24_12h46.58.288,LearnStrategy,2023.2.3,Win32,59.52380952,2,2,6,,,,,,,,3,14,,,,,,,,,,,6,2.804,0,,,,,,-0.137962963,-0.384259259,1,0,0,2.8037,Pegmatite_rect,5,0,5,0,1,
6615879590e1f7c3dce86f28,SCN,2024-06-24_12h46.58.288,LearnStrategy,2023.2.3,Win32,59.52380952,2,2,7,,,,,,,,4,16,,,,,,,,,,,2,1.657,0,,,,,,-0.167592593,-0.261111111,1,0,0,1.657,Basalt_rect,6,0,6,0,1,
6615879590e1f7c3dce86f28,SCN,2024-06-24_12h46.58.288,LearnStrategy,2023.2.3,Win32,59.52380952,2,2,8,,,,,,,,5,14,,,,,,,,,,,5,1.773,1,,,,,,-0.331481481,-0.390740741,1,0,0,1.7727,Obsidian_rect,7,0,7,0,1,
6615879590e1f7c3dce86f28,SCN,2024-06-24_12h46.58.288,LearnStrategy,2023.2.3,Win32,59.52380952,2,2,9,,,,,,,,2,12,,,,,,,,,,,8,2.254,0,,,,,,0.469444444,-0.419444444,1,0,0,2.2542,Pumice_rect,8,0,8,0,1,
6615879590e1f7c3dce86f28,SCN,2024-06-24_12h46.58.288,LearnStrategy,2023.2.3,Win32,59.52380952,2,2,10,,,,,,,,3,08,,,,,,,,,,,3,2.411,1,,,,,,0.161111111,-0.262037037,1,0,0,2.4113,Diorite_rect,9,0,9,0,1,
6615879590e1f7c3dce86f28,SCN,2024-06-24_12h46.58.288,LearnStrategy,2023.2.3,Win32,59.52380952,2,2,11,,,,,,,,7,10,,,,,,,,,,,7,1.442,1,,,,,,0.132407407,-0.419444444,1,0,0,1.4416,Peridotite_rect,10,0,10,0,1,
6615879590e1f7c3dce86f28,SCN,2024-06-24_12h46.58.288,LearnStrategy,2023.2.3,Win32,59.52380952,2,2,12,,,,,,,,4,14,,,,,,,,,,,2,1.773,0,,,,,,-0.161111111,-0.268518519,1,0,0,1.773,Basalt_rect,11,0,11,0,1,
6615879590e1f7c3dce86f28,SCN,2024-06-24_12h46.58.288,LearnStrategy,2023.2.3,Win32,59.52380952,2,2,13,,,,,,,,5,09,,,,,,,,,,,5,1.249,1,,,,,,-0.37962963,-0.397222222,1,0,0,1.2489,Obsidian_rect,12,0,12,0,1,
6615879590e1f7c3dce86f28,SCN,2024-06-24_12h46.58.288,LearnStrategy,2023.2.3,Win32,59.52380952,2,2,14,,,,,,,,6,08,,,,,,,,,,,7,7.173,0,,,,,,0.105555556,-0.403703704,1,0,0,7.1731,Peridotite_rect,13,0,13,0,1,
6615879590e1f7c3dce86f28,SCN,2024-06-24_12h46.58.288,LearnStrategy,2023.2.3,Win32,59.52380952,2,2,15,,,,,,,,1,01,,,,,,,,,,,1,1.626,1,,,,,,-0.367592593,-0.240740741,1,0,0,1.6262,Andesite_rect,14,0,14,0,1,
6615879590e1f7c3dce86f28,SCN,2024-06-24_12h46.58.288,LearnStrategy,2023.2.3,Win32,59.52380952,2,2,16,,,,,,,,7,02,,,,,,,,,,,3,2.796,0,,,,,,0.051851852,-0.256481481,1,0,0,2.7958,Diorite_rect,15,0,15,0,1,
6615879590e1f7c3dce86f28,SCN,2024-06-24_12h46.58.288,LearnStrategy,2023.2.3,Win32,59.52380952,3,1,1,0.07037037,0.402777778,1,0,0,6.7163,Gabbro_03,4,03,6,5,6.716,-0.071296296,-0.228703704,1,0,0,2.8459,Basalt_rect,2,2.846,0,0,0,0,0,1,,,,,,,,,,,,,
6615879590e1f7c3dce86f28,SCN,2024-06-24_12h46.58.288,LearnStrategy,2023.2.3,Win32,59.52380952,3,1,2,0.540740741,0.413888889,1,0,0,5.0148,Andesite_07,1,07,6,8,5.015,0.35,-0.25462963,1,0,0,3.5426,Gabbro_rect,4,3.543,0,1,0,1,0,1,,,,,,,,,,,,,
6615879590e1f7c3dce86f28,SCN,2024-06-24_12h46.58.288,LearnStrategy,2023.2.3,Win32,59.52380952,3,1,3,0.572222222,-0.42037037,1,0,0,4.7847,Peridotite_13,7,13,1,8,4.785,0.191666667,-0.247222222,1,0,0,2.3286,Diorite_rect,3,2.329,0,2,0,2,0,1,,,,,,,,,,,,,
6615879590e1f7c3dce86f28,SCN,2024-06-24_12h46.58.288,LearnStrategy,2023.2.3,Win32,59.52380952,3,1,4,-0.39537037,-0.107407407,1,0,0,2.9641,Pegmatite_11,6,11,3,2,2.964,0.186111111,-0.4,1,0,0,0.8863,Peridotite_rect,7,0.886,0,3,0,3,0,1,,,,,,,,,,,,,
6615879590e1f7c3dce86f28,SCN,2024-06-24_12h46.58.288,LearnStrategy,2023.2.3,Win32,59.52380952,3,1,5,-0.543518519,-0.425925926,1,0,0,2.5386,Pegmatite_16,6,16,1,1,2.539,-0.083333333,-0.411111111,1,0,0,1.3486,Pegmatite_rect,6,1.349,1,4,0,4,0,1,,,,,,,,,,,,,
6615879590e1f7c3dce86f28,SCN,2024-06-24_12h46.58.288,LearnStrategy,2023.2.3,Win32,59.52380952,3,1,6,0.244444444,-0.275,1,0,0,3.9777,Pegmatite_13,6,13,2,6,3.978,-0.096296296,-0.4,1,0,0,1.8151,Pegmatite_rect,6,1.815,1,5,0,5,0,1,,,,,,,,,,,,,
6615879590e1f7c3dce86f28,SCN,2024-06-24_12h46.58.288,LearnStrategy,2023.2.3,Win32,59.52380952,3,1,7,-0.246296296,0.274074074,1,0,0,3.6092,Pegmatite_15,6,15,5,3,3.609,-0.091666667,-0.381481481,1,0,0,1.7965,Pegmatite_rect,6,1.797,1,6,0,6,0,1,,,,,,,,,,,,,
6615879590e1f7c3dce86f28,SCN,2024-06-24_12h46.58.288,LearnStrategy,2023.2.3,Win32,59.52380952,3,1,8,0.559259259,0.102777778,1,0,0,3.9867,Pegmatite_09,6,09,4,8,3.987,-0.052777778,-0.394444444,1,0,0,1.5619,Pegmatite_rect,6,1.562,1,7,0,7,0,1,,,,,,,,,,,,,
6615879590e1f7c3dce86f28,SCN,2024-06-24_12h46.58.288,LearnStrategy,2023.2.3,Win32,59.52380952,3,1,9,0.239814815,-0.260185185,1,0,0,3.9715,Pegmatite_13,6,13,2,6,3.971,-0.066666667,-0.408333333,1,0,0,1.7563,Pegmatite_rect,6,1.756,1,8,0,8,0,1,,,,,,,,,,,,,
6615879590e1f7c3dce86f28,SCN,2024-06-24_12h46.58.288,LearnStrategy,2023.2.3,Win32,59.52380952,3,1,10,-0.381481481,0.273148148,1,0,0,1.1693,Andesite_04,1,04,5,2,1.169,-0.317592593,-0.256481481,1,0,0,2.3749,Andesite_rect,1,2.375,1,9,0,9,0,1,,,,,,,,,,,,,
6615879590e1f7c3dce86f28,SCN,2024-06-24_12h46.58.288,LearnStrategy,2023.2.3,Win32,59.52380952,3,1,11,-0.081481481,0.396296296,1,0,0,2.9519,Peridotite_16,7,16,6,4,2.952,0.063888889,-0.381481481,1,0,0,2.8077,Peridotite_rect,7,2.808,1,10,0,10,0,1,,,,,,,,,,,,,
6615879590e1f7c3dce86f28,SCN,2024-06-24_12h46.58.288,LearnStrategy,2023.2.3,Win32,59.52380952,3,1,12,0.244444444,0.399074074,1,0,0,2.1875,Peridotite_15,7,15,6,6,2.188,0.166666667,-0.39537037,1,0,0,1.5671,Peridotite_rect,7,1.567,1,11,0,11,0,1,,,,,,,,,,,,,
6615879590e1f7c3dce86f28,SCN,2024-06-24_12h46.58.288,LearnStrategy,2023.2.3,Win32,59.52380952,3,1,13,0.405555556,0.258333333,1,0,0,2.689,Basalt_04,2,04,5,7,2.689,-0.086111111,-0.259259259,1,0,0,1.471,Basalt_rect,2,1.471,1,12,0,12,0,1,,,,,,,,,,,,,
6615879590e1f7c3dce86f28,SCN,2024-06-24_12h46.58.288,LearnStrategy,2023.2.3,Win32,59.52380952,3,1,14,-0.046296296,-0.132407407,1,0,0,2.2968,Diorite_09,3,09,3,4,2.297,0.144444444,-0.401851852,1,0,0,1.8828,Peridotite_rect,7,1.883,0,13,0,13,0,1,,,,,,,,,,,,,
6615879590e1f7c3dce86f28,SCN,2024-06-24_12h46.58.288,LearnStrategy,2023.2.3,Win32,59.52380952,3,1,15,-0.069444444,-0.237037037,1,0,0,1.9625,Andesite_14,1,14,2,4,1.962,0.102777778,-0.250925926,1,0,0,1.4283,Diorite_rect,3,1.428,0,14,0,14,0,1,,,,,,,,,,,,,
6615879590e1f7c3dce86f28,SCN,2024-06-24_12h46.58.288,LearnStrategy,2023.2.3,Win32,59.52380952,3,1,16,-0.377777778,-0.412037037,1,0,0,4.7816,Andesite_11,1,11,1,2,4.782,-0.440740741,-0.237037037,1,0,0,1.7728,Andesite_rect,1,1.773,1,15,0,15,0,1,,,,,,,,,,,,,
6615879590e1f7c3dce86f28,SCN,2024-06-24_12h46.58.288,LearnStrategy,2023.2.3,Win32,59.52380952,3,2,1,,,,,,,,8,06,,,,,,,,,,,8,1.648,1,,,,,,0.425,-0.410185185,1,0,0,1.6476,Pumice_rect,0,0,0,0,1,
6615879590e1f7c3dce86f28,SCN,2024-06-24_12h46.58.288,LearnStrategy,2023.2.3,Win32,59.52380952,3,2,2,,,,,,,,3,15,,,,,,,,,,,3,5.854,1,,,,,,0.199074074,-0.261111111,1,0,0,5.8544,Diorite_rect,1,0,1,0,1,
6615879590e1f7c3dce86f28,SCN,2024-06-24_12h46.58.288,LearnStrategy,2023.2.3,Win32,59.52380952,3,2,3,,,,,,,,2,02,,,,,,,,,,,2,2.392,1,,,,,,-0.139814815,-0.255555556,1,0,0,2.3918,Basalt_rect,2,0,2,0,1,
6615879590e1f7c3dce86f28,SCN,2024-06-24_12h46.58.288,LearnStrategy,2023.2.3,Win32,59.52380952,3,2,4,,,,,,,,5,16,,,,,,,,,,,5,1.385,1,,,,,,-0.382407407,-0.396296296,1,0,0,1.3854,Obsidian_rect,3,0,3,0,1,
6615879590e1f7c3dce86f28,SCN,2024-06-24_12h46.58.288,LearnStrategy,2023.2.3,Win32,59.52380952,3,2,5,,,,,,,,6,06,,,,,,,,,,,7,1.772,0,,,,,,0.10462963,-0.40462963,1,0,0,1.7716,Peridotite_rect,4,0,4,0,1,
6615879590e1f7c3dce86f28,SCN,2024-06-24_12h46.58.288,LearnStrategy,2023.2.3,Win32,59.52380952,3,2,6,,,,,,,,7,08,,,,,,,,,,,6,3.431,0,,,,,,-0.083333333,-0.397222222,1,0,0,3.4306,Pegmatite_rect,5,0,5,0,1,
6615879590e1f7c3dce86f28,SCN,2024-06-24_12h46.58.288,LearnStrategy,2023.2.3,Win32,59.52380952,3,2,7,,,,,,,,1,03,,,,,,,,,,,3,2.255,0,,,,,,0.208333333,-0.253703704,1,0,0,2.2545,Diorite_rect,6,0,6,0,1,
6615879590e1f7c3dce86f28,SCN,2024-06-24_12h46.58.288,LearnStrategy,2023.2.3,Win32,59.52380952,3,2,8,,,,,,,,4,01,,,,,,,,,,,7,1.354,0,,,,,,0.172222222,-0.403703704,1,0,0,1.354,Peridotite_rect,7,0,7,0,1,
6615879590e1f7c3dce86f28,SCN,2024-06-24_12h46.58.288,LearnStrategy,2023.2.3,Win32,59.52380952,3,2,9,,,,,,,,4,13,,,,,,,,,,,6,1.757,0,,,,,,-0.108333333,-0.378703704,1,0,0,1.7573,Pegmatite_rect,8,0,8,0,1,
6615879590e1f7c3dce86f28,SCN,2024-06-24_12h46.58.288,LearnStrategy,2023.2.3,Win32,59.52380952,3,2,10,,,,,,,,8,02,,,,,,,,,,,8,1.417,1,,,,,,0.375925926,-0.400925926,1,0,0,1.417,Pumice_rect,9,0,9,0,1,
6615879590e1f7c3dce86f28,SCN,2024-06-24_12h46.58.288,LearnStrategy,2023.2.3,Win32,59.52380952,3,2,11,,,,,,,,5,12,,,,,,,,,,,5,1.185,1,,,,,,-0.347222222,-0.383333333,1,0,0,1.1851,Obsidian_rect,10,0,10,0,1,
6615879590e1f7c3dce86f28,SCN,2024-06-24_12h46.58.288,LearnStrategy,2023.2.3,Win32,59.52380952,3,2,12,,,,,,,,7,06,,,,,,,,,,,7,1.309,1,,,,,,0.121296296,-0.410185185,1,0,0,1.3088,Peridotite_rect,11,0,11,0,1,
6615879590e1f7c3dce86f28,SCN,2024-06-24_12h46.58.288,LearnStrategy,2023.2.3,Win32,59.52380952,3,2,13,,,,,,,,3,11,,,,,,,,,,,6,2.464,0,,,,,,-0.102777778,-0.390740741,1,0,0,2.4638,Pegmatite_rect,12,0,12,0,1,
6615879590e1f7c3dce86f28,SCN,2024-06-24_12h46.58.288,LearnStrategy,2023.2.3,Win32,59.52380952,3,2,14,,,,,,,,1,02,,,,,,,,,,,6,1.228,0,,,,,,-0.102777778,-0.381481481,1,0,0,1.2282,Pegmatite_rect,13,0,13,0,1,
6615879590e1f7c3dce86f28,SCN,2024-06-24_12h46.58.288,LearnStrategy,2023.2.3,Win32,59.52380952,3,2,15,,,,,,,,6,07,,,,,,,,,,,7,1.592,0,,,,,,0.15462963,-0.392592593,1,0,0,1.5916,Peridotite_rect,14,0,14,0,1,
6615879590e1f7c3dce86f28,SCN,2024-06-24_12h46.58.288,LearnStrategy,2023.2.3,Win32,59.52380952,3,2,16,,,,,,,,2,09,,,,,,,,,,,2,1.126,1,,,,,,-0.097222222,-0.247222222,1,0,0,1.1259,Basalt_rect,15,0,15,0,1,
6615879590e1f7c3dce86f28,SCN,2024-06-24_12h46.58.288,LearnStrategy,2023.2.3,Win32,59.52380952,4,1,1,-0.092592593,0.406481481,1,0,0,3.9157,Peridotite_16,7,16,6,4,3.916,-0.332407407,-0.236111111,1,0,0,1.0943,Andesite_rect,1,1.094,0,0,0,0,0,1,,,,,,,,,,,,,
6615879590e1f7c3dce86f28,SCN,2024-06-24_12h46.58.288,LearnStrategy,2023.2.3,Win32,59.52380952,4,1,2,0.07037037,0.417592593,1,0,0,1.162,Gabbro_03,4,03,6,5,1.162,-0.094444444,-0.259259259,1,0,0,1.1578,Basalt_rect,2,1.158,0,1,0,1,0,1,,,,,,,,,,,,,
6615879590e1f7c3dce86f28,SCN,2024-06-24_12h46.58.288,LearnStrategy,2023.2.3,Win32,59.52380952,4,1,3,-0.232407407,0.392592593,1,0,0,0.822,Diorite_06,3,06,6,3,0.822,0.322222222,-0.268518519,1,0,0,1.2719,Gabbro_rect,4,1.272,0,2,0,2,0,1,,,,,,,,,,,,,
6615879590e1f7c3dce86f28,SCN,2024-06-24_12h46.58.288,LearnStrategy,2023.2.3,Win32,59.52380952,4,1,4,-0.408333333,0.087962963,1,0,0,3.1368,Gabbro_05,4,05,4,2,3.137,0.327777778,-0.258333333,1,0,0,1.3067,Gabbro_rect,4,1.307,1,3,0,3,0,1,,,,,,,,,,,,,
6615879590e1f7c3dce86f28,SCN,2024-06-24_12h46.58.288,LearnStrategy,2023.2.3,Win32,59.52380952,4,1,5,-0.57037037,-0.242592593,1,0,0,3.2401,Diorite_02,3,02,2,1,3.24,0.350925926,-0.233333333,1,0,0,1.7357,Gabbro_rect,4,1.736,0,4,0,4,0,1,,,,,,,,,,,,,
6615879590e1f7c3dce86f28,SCN,2024-06-24_12h46.58.288,LearnStrategy,2023.2.3,Win32,59.52380952,4,1,6,-0.359259259,0.40462963,1,0,0,2.6892,Gabbro_11,4,11,6,2,2.689,-0.099074074,-0.249074074,1,0,0,1.8391,Basalt_rect,2,1.839,0,5,0,5,0,1,,,,,,,,,,,,,
6615879590e1f7c3dce86f28,SCN,2024-06-24_12h46.58.288,LearnStrategy,2023.2.3,Win32,59.52380952,4,1,7,-0.241666667,0.411111111,1,0,0,0.6303,Diorite_06,3,06,6,3,0.63,0.422222222,-0.252777778,1,0,0,1.5601,Gabbro_rect,4,1.56,0,6,0,6,0,1,,,,,,,,,,,,,
6615879590e1f7c3dce86f28,SCN,2024-06-24_12h46.58.288,LearnStrategy,2023.2.3,Win32,59.52380952,4,1,8,0.571296296,0.246296296,1,0,0,4.4487,Gabbro_10,4,10,5,8,4.449,0.359259259,-0.264814815,1,0,0,1.7292,Gabbro_rect,4,1.729,1,7,0,7,0,1,,,,,,,,,,,,,
6615879590e1f7c3dce86f28,SCN,2024-06-24_12h46.58.288,LearnStrategy,2023.2.3,Win32,59.52380952,4,1,9,0.578703704,-0.256481481,1,0,0,3.14,Peridotite_05,7,05,2,8,3.14,0.381481481,-0.271296296,1,0,0,1.7303,Gabbro_rect,4,1.73,0,8,0,8,0,1,,,,,,,,,,,,,
6615879590e1f7c3dce86f28,SCN,2024-06-24_12h46.58.288,LearnStrategy,2023.2.3,Win32,59.52380952,4,1,10,-0.385185185,-0.280555556,1,0,0,2.3648,Andesite_16,1,16,2,2,2.365,0.45,-0.252777778,1,0,0,1.0126,Gabbro_rect,4,1.013,0,9,0,9,0,1,,,,,,,,,,,,,
6615879590e1f7c3dce86f28,SCN,2024-06-24_12h46.58.288,LearnStrategy,2023.2.3,Win32,59.52380952,4,1,11,-0.253703704,-0.417592593,1,0,0,2.492,Gabbro_15,4,15,1,3,2.492,-0.423148148,-0.236111111,1,0,0,3.6632,Andesite_rect,1,3.663,0,10,0,10,0,1,,,,,,,,,,,,,
6615879590e1f7c3dce86f28,SCN,2024-06-24_12h46.58.288,LearnStrategy,2023.2.3,Win32,59.52380952,4,1,12,-0.240740741,0.10462963,1,0,0,4.8473,Gabbro_09,4,09,4,3,4.847,0.166666667,-0.271296296,1,0,0,3.0429,Diorite_rect,3,3.043,0,11,0,11,0,1,,,,,,,,,,,,,
6615879590e1f7c3dce86f28,SCN,2024-06-24_12h46.58.288,LearnStrategy,2023.2.3,Win32,59.52380952,4,1,13,-0.419444444,0.072222222,1,0,0,3.2937,Gabbro_05,4,05,4,2,3.294,0.384259259,-0.237962963,1,0,0,3.8822,Gabbro_rect,4,3.882,1,12,0,12,0,1,,,,,,,,,,,,,
6615879590e1f7c3dce86f28,SCN,2024-06-24_12h46.58.288,LearnStrategy,2023.2.3,Win32,59.52380952,4,1,14,0.422222222,-0.093518519,1,0,0,2.7441,Andesite_05,1,05,3,7,2.744,-0.385185185,-0.263888889,1,0,0,1.2915,Andesite_rect,1,1.292,1,13,0,13,0,1,,,,,,,,,,,,,
6615879590e1f7c3dce86f28,SCN,2024-06-24_12h46.58.288,LearnStrategy,2023.2.3,Win32,59.52380952,4,1,15,-0.39537037,-0.280555556,1,0,0,1.375,Andesite_16,1,16,2,2,1.375,-0.372222222,-0.238888889,1,0,0,0.6751,Andesite_rect,1,0.675,1,14,0,14,0,1,,,,,,,,,,,,,
6615879590e1f7c3dce86f28,SCN,2024-06-24_12h46.58.288,LearnStrategy,2023.2.3,Win32,59.52380952,4,1,16,-0.408333333,-0.415740741,1,0,0,1.2104,Andesite_11,1,11,1,2,1.21,-0.362037037,-0.253703704,1,0,0,1.2624,Andesite_rect,1,1.262,1,15,0,15,0,1,,,,,,,,,,,,,
6615879590e1f7c3dce86f28,SCN,2024-06-24_12h46.58.288,LearnStrategy,2023.2.3,Win32,59.52380952,4,2,1,,,,,,,,3,15,,,,,,,,,,,4,7.677,0,,,,,,0.39537037,-0.248148148,1,0,0,7.6765,Gabbro_rect,0,0,0,0,1,
6615879590e1f7c3dce86f28,SCN,2024-06-24_12h46.58.288,LearnStrategy,2023.2.3,Win32,59.52380952,4,2,2,,,,,,,,8,05,,,,,,,,,,,8,1.239,1,,,,,,0.42037037,-0.401851852,1,0,0,1.239,Pumice_rect,1,0,1,0,1,
6615879590e1f7c3dce86f28,SCN,2024-06-24_12h46.58.288,LearnStrategy,2023.2.3,Win32,59.52380952,4,2,3,,,,,,,,1,10,,,,,,,,,,,1,6.7,1,,,,,,-0.400925926,-0.264814815,1,0,0,6.6996,Andesite_rect,2,0,2,0,1,
6615879590e1f7c3dce86f28,SCN,2024-06-24_12h46.58.288,LearnStrategy,2023.2.3,Win32,59.52380952,4,2,4,,,,,,,,8,03,,,,,,,,,,,8,2.034,1,,,,,,0.361111111,-0.40462963,1,0,0,2.0336,Pumice_rect,3,0,3,0,1,
6615879590e1f7c3dce86f28,SCN,2024-06-24_12h46.58.288,LearnStrategy,2023.2.3,Win32,59.52380952,4,2,5,,,,,,,,2,11,,,,,,,,,,,8,1.043,0,,,,,,0.365740741,-0.400925926,1,0,0,1.0427,Pumice_rect,4,0,4,0,1,
6615879590e1f7c3dce86f28,SCN,2024-06-24_12h46.58.288,LearnStrategy,2023.2.3,Win32,59.52380952,4,2,6,,,,,,,,1,09,,,,,,,,,,,4,5.102,0,,,,,,0.368518519,-0.240740741,1,0,0,5.1019,Gabbro_rect,5,0,5,0,1,
6615879590e1f7c3dce86f28,SCN,2024-06-24_12h46.58.288,LearnStrategy,2023.2.3,Win32,59.52380952,4,2,7,,,,,,,,7,06,,,,,,,,,,,7,2.741,1,,,,,,0.185185185,-0.389814815,1,0,0,2.7406,Peridotite_rect,6,0,6,0,1,
6615879590e1f7c3dce86f28,SCN,2024-06-24_12h46.58.288,LearnStrategy,2023.2.3,Win32,59.52380952,4,2,8,,,,,,,,4,13,,,,,,,,,,,6,9.137,0,,,,,,-0.133333333,-0.401851852,1,0,0,9.1374,Pegmatite_rect,7,0,7,0,1,
6615879590e1f7c3dce86f28,SCN,2024-06-24_12h46.58.288,LearnStrategy,2023.2.3,Win32,59.52380952,4,2,9,,,,,,,,5,14,,,,,,,,,,,5,1.299,1,,,,,,-0.398148148,-0.384259259,1,0,0,1.299,Obsidian_rect,8,0,8,0,1,
6615879590e1f7c3dce86f28,SCN,2024-06-24_12h46.58.288,LearnStrategy,2023.2.3,Win32,59.52380952,4,2,10,,,,,,,,6,10,,,,,,,,,,,7,2.704,0,,,,,,0.122222222,-0.415740741,1,0,0,2.7043,Peridotite_rect,9,0,9,0,1,
6615879590e1f7c3dce86f28,SCN,2024-06-24_12h46.58.288,LearnStrategy,2023.2.3,Win32,59.52380952,4,2,11,,,,,,,,6,08,,,,,,,,,,,7,1.428,0,,,,,,0.122222222,-0.416666667,1,0,0,1.4278,Peridotite_rect,10,0,10,0,1,
6615879590e1f7c3dce86f28,SCN,2024-06-24_12h46.58.288,LearnStrategy,2023.2.3,Win32,59.52380952,4,2,12,,,,,,,,4,12,,,,,,,,,,,2,6.434,0,,,,,,-0.121296296,-0.248148148,1,0,0,6.4339,Basalt_rect,11,0,11,0,1,
6615879590e1f7c3dce86f28,SCN,2024-06-24_12h46.58.288,LearnStrategy,2023.2.3,Win32,59.52380952,4,2,13,,,,,,,,3,14,,,,,,,,,,,4,1.584,0,,,,,,0.360185185,-0.256481481,1,0,0,1.5843,Gabbro_rect,12,0,12,0,1,
6615879590e1f7c3dce86f28,SCN,2024-06-24_12h46.58.288,LearnStrategy,2023.2.3,Win32,59.52380952,4,2,14,,,,,,,,7,08,,,,,,,,,,,4,1.677,0,,,,,,0.410185185,-0.262037037,1,0,0,1.6772,Gabbro_rect,13,0,13,0,1,
6615879590e1f7c3dce86f28,SCN,2024-06-24_12h46.58.288,LearnStrategy,2023.2.3,Win32,59.52380952,4,2,15,,,,,,,,2,05,,,,,,,,,,,2,1.624,1,,,,,,-0.082407407,-0.256481481,1,0,0,1.6237,Basalt_rect,14,0,14,0,1,
6615879590e1f7c3dce86f28,SCN,2024-06-24_12h46.58.288,LearnStrategy,2023.2.3,Win32,59.52380952,4,2,16,,,,,,,,5,09,,,,,,,,,,,5,2.184,1,,,,,,-0.374074074,-0.398148148,1,0,0,2.1838,Obsidian_rect,15,0,15,0,1,
6615879590e1f7c3dce86f28,SCN,2024-06-24_12h46.58.288,LearnStrategy,2023.2.3,Win32,59.52380952,5,1,1,-0.384259259,0.4,1,0,0,1.8213,Gabbro_11,4,11,6,2,1.821,-0.099074074,-0.232407407,1,0,0,1.9142,Basalt_rect,2,1.914,0,0,0,0,0,1,,,,,,,,,,,,,
6615879590e1f7c3dce86f28,SCN,2024-06-24_12h46.58.288,LearnStrategy,2023.2.3,Win32,59.52380952,5,1,2,-0.256481481,0.403703704,1,0,0,0.8271,Diorite_06,3,06,6,3,0.827,0.376851852,-0.240740741,1,0,0,5.4836,Gabbro_rect,4,5.484,0,1,0,1,0,1,,,,,,,,,,,,,
6615879590e1f7c3dce86f28,SCN,2024-06-24_12h46.58.288,LearnStrategy,2023.2.3,Win32,59.52380952,5,1,3,0.212962963,-0.417592593,1,0,0,4.2279,Obsidian_05,5,05,1,6,4.228,-0.362037037,-0.386111111,1,0,0,1.9578,Obsidian_rect,5,1.958,1,2,0,2,0,1,,,,,,,,,,,,,
6615879590e1f7c3dce86f28,SCN,2024-06-24_12h46.58.288,LearnStrategy,2023.2.3,Win32,59.52380952,5,1,4,-0.071296296,-0.405555556,1,0,0,1.4434,Basalt_08,2,08,1,4,1.443,-0.100925926,-0.258333333,1,0,0,1.1567,Basalt_rect,2,1.157,1,3,0,3,0,1,,,,,,,,,,,,,
6615879590e1f7c3dce86f28,SCN,2024-06-24_12h46.58.288,LearnStrategy,2023.2.3,Win32,59.52380952,5,1,5,-0.253703704,-0.423148148,1,0,0,1.5026,Gabbro_15,4,15,1,3,1.503,0.056481481,-0.240740741,1,0,0,1.8845,Diorite_rect,3,1.884,0,4,0,4,0,1,,,,,,,,,,,,,
6615879590e1f7c3dce86f28,SCN,2024-06-24_12h46.58.288,LearnStrategy,2023.2.3,Win32,59.52380952,5,1,6,-0.42037037,-0.401851852,1,0,0,1.3922,Andesite_11,1,11,1,2,1.392,-0.444444444,-0.228703704,1,0,0,1.2348,Andesite_rect,1,1.235,1,5,0,5,0,1,,,,,,,,,,,,,
6615879590e1f7c3dce86f28,SCN,2024-06-24_12h46.58.288,LearnStrategy,2023.2.3,Win32,59.52380952,5,1,7,0.109259259,-0.262037037,1,0,0,2.7899,Basalt_01,2,01,2,5,2.79,-0.130555556,-0.250925926,1,0,0,0.9051,Basalt_rect,2,0.905,1,6,0,6,0,1,,,,,,,,,,,,,
6615879590e1f7c3dce86f28,SCN,2024-06-24_12h46.58.288,LearnStrategy,2023.2.3,Win32,59.52380952,5,1,8,0.550925926,-0.25,1,0,0,2.2271,Peridotite_05,7,05,2,8,2.227,-0.363888889,-0.243518519,1,0,0,1.5449,Andesite_rect,1,1.545,0,7,0,7,0,1,,,,,,,,,,,,,
6615879590e1f7c3dce86f28,SCN,2024-06-24_12h46.58.288,LearnStrategy,2023.2.3,Win32,59.52380952,5,1,9,0.226851852,0.085185185,1,0,0,2.8859,Diorite_16,3,16,4,6,2.886,-0.375,-0.249074074,1,0,0,1.9426,Andesite_rect,1,1.943,0,8,0,8,0,1,,,,,,,,,,,,,
6615879590e1f7c3dce86f28,SCN,2024-06-24_12h46.58.288,LearnStrategy,2023.2.3,Win32,59.52380952,5,1,10,-0.569444444,-0.248148148,1,0,0,1.8747,Diorite_02,3,02,2,1,1.875,0.147222222,-0.242592593,1,0,0,0.8836,Diorite_rect,3,0.884,1,9,0,9,0,1,,,,,,,,,,,,,
6615879590e1f7c3dce86f28,SCN,2024-06-24_12h46.58.288,LearnStrategy,2023.2.3,Win32,59.52380952,5,1,11,-0.082407407,-0.109259259,1,0,0,1.4743,Diorite_09,3,09,3,4,1.474,0.122222222,-0.24537037,1,0,0,0.8821,Diorite_rect,3,0.882,1,10,0,10,0,1,,,,,,,,,,,,,
6615879590e1f7c3dce86f28,SCN,2024-06-24_12h46.58.288,LearnStrategy,2023.2.3,Win32,59.52380952,5,1,12,0.260185185,0.419444444,1,0,0,1.7826,Peridotite_15,7,15,6,6,1.783,0.169444444,-0.246296296,1,0,0,1.0268,Diorite_rect,3,1.027,0,11,0,11,0,1,,,,,,,,,,,,,
6615879590e1f7c3dce86f28,SCN,2024-06-24_12h46.58.288,LearnStrategy,2023.2.3,Win32,59.52380952,5,1,13,0.553703704,0.432407407,1,0,0,3.3876,Andesite_07,1,07,6,8,3.388,0.142592593,-0.253703704,1,0,0,0.9229,Diorite_rect,3,0.923,0,12,0,12,0,1,,,,,,,,,,,,,
6615879590e1f7c3dce86f28,SCN,2024-06-24_12h46.58.288,LearnStrategy,2023.2.3,Win32,59.52380952,5,1,14,-0.566666667,-0.240740741,1,0,0,1.4479,Diorite_02,3,02,2,1,1.448,0.090740741,-0.236111111,1,0,0,2.4435,Diorite_rect,3,2.443,1,13,0,13,0,1,,,,,,,,,,,,,
6615879590e1f7c3dce86f28,SCN,2024-06-24_12h46.58.288,LearnStrategy,2023.2.3,Win32,59.52380952,5,1,15,-0.555555556,0.093518519,1,0,0,0.8458,Basalt_10,2,10,4,1,0.846,-0.381481481,-0.250925926,1,0,0,3.7093,Andesite_rect,1,3.709,0,14,0,14,0,1,,,,,,,,,,,,,
6615879590e1f7c3dce86f28,SCN,2024-06-24_12h46.58.288,LearnStrategy,2023.2.3,Win32,59.52380952,5,1,16,-0.377777778,0.394444444,1,0,0,2.1513,Gabbro_11,4,11,6,2,2.151,-0.089814815,-0.244444444,1,0,0,1.6101,Basalt_rect,2,1.61,0,15,0,15,0,1,,,,,,,,,,,,,
6615879590e1f7c3dce86f28,SCN,2024-06-24_12h46.58.288,LearnStrategy,2023.2.3,Win32,59.52380952,5,2,1,,,,,,,,2,09,,,,,,,,,,,2,3.776,1,,,,,,-0.086111111,-0.252777778,1,0,0,3.7759,Basalt_rect,0,0,0,0,1,
6615879590e1f7c3dce86f28,SCN,2024-06-24_12h46.58.288,LearnStrategy,2023.2.3,Win32,59.52380952,5,2,2,,,,,,,,1,01,,,,,,,,,,,3,7.632,0,,,,,,0.187037037,-0.265740741,1,0,0,7.632,Diorite_rect,1,0,1,0,1,
6615879590e1f7c3dce86f28,SCN,2024-06-24_12h46.58.288,LearnStrategy,2023.2.3,Win32,59.52380952,5,2,3,,,,,,,,1,02,,,,,,,,,,,1,1.879,1,,,,,,-0.347222222,-0.253703704,1,0,0,1.8793,Andesite_rect,2,0,2,0,1,
6615879590e1f7c3dce86f28,SCN,2024-06-24_12h46.58.288,LearnStrategy,2023.2.3,Win32,59.52380952,5,2,4,,,,,,,,6,03,,,,,,,,,,,7,1.88,0,,,,,,0.159259259,-0.421296296,1,0,0,1.8805,Peridotite_rect,3,0,3,0,1,
6615879590e1f7c3dce86f28,SCN,2024-06-24_12h46.58.288,LearnStrategy,2023.2.3,Win32,59.52380952,5,2,5,,,,,,,,8,14,,,,,,,,,,,8,1.155,1,,,,,,0.37037037,-0.413888889,1,0,0,1.155,Pumice_rect,4,0,4,0,1,
6615879590e1f7c3dce86f28,SCN,2024-06-24_12h46.58.288,LearnStrategy,2023.2.3,Win32,59.52380952,5,2,6,,,,,,,,3,10,,,,,,,,,,,1,2.127,0,,,,,,-0.343518519,-0.262962963,1,0,0,2.1274,Andesite_rect,5,0,5,0,1,
6615879590e1f7c3dce86f28,SCN,2024-06-24_12h46.58.288,LearnStrategy,2023.2.3,Win32,59.52380952,5,2,7,,,,,,,,2,14,,,,,,,,,,,8,1.938,0,,,,,,0.367592593,-0.418518519,1,0,0,1.9385,Pumice_rect,6,0,6,0,1,
6615879590e1f7c3dce86f28,SCN,2024-06-24_12h46.58.288,LearnStrategy,2023.2.3,Win32,59.52380952,5,2,8,,,,,,,,4,08,,,,,,,,,,,3,5.909,0,,,,,,0.156481481,-0.27037037,1,0,0,5.9085,Diorite_rect,7,0,7,0,1,
6615879590e1f7c3dce86f28,SCN,2024-06-24_12h46.58.288,LearnStrategy,2023.2.3,Win32,59.52380952,5,2,9,,,,,,,,4,16,,,,,,,,,,,2,1.845,0,,,,,,-0.081481481,-0.240740741,1,0,0,1.8452,Basalt_rect,8,0,8,0,1,
6615879590e1f7c3dce86f28,SCN,2024-06-24_12h46.58.288,LearnStrategy,2023.2.3,Win32,59.52380952,5,2,10,,,,,,,,7,14,,,,,,,,,,,6,6.157,0,,,,,,-0.157407407,-0.380555556,1,0,0,6.1574,Pegmatite_rect,9,0,9,0,1,
6615879590e1f7c3dce86f28,SCN,2024-06-24_12h46.58.288,LearnStrategy,2023.2.3,Win32,59.52380952,5,2,11,,,,,,,,6,07,,,,,,,,,,,7,1.391,0,,,,,,0.121296296,-0.407407407,1,0,0,1.3915,Peridotite_rect,10,0,10,0,1,
6615879590e1f7c3dce86f28,SCN,2024-06-24_12h46.58.288,LearnStrategy,2023.2.3,Win32,59.52380952,5,2,12,,,,,,,,7,02,,,,,,,,,,,7,1.391,1,,,,,,0.15462963,-0.397222222,1,0,0,1.3911,Peridotite_rect,11,0,11,0,1,
6615879590e1f7c3dce86f28,SCN,2024-06-24_12h46.58.288,LearnStrategy,2023.2.3,Win32,59.52380952,5,2,13,,,,,,,,5,12,,,,,,,,,,,5,1.099,1,,,,,,-0.398148148,-0.402777778,1,0,0,1.0991,Obsidian_rect,12,0,12,0,1,
6615879590e1f7c3dce86f28,SCN,2024-06-24_12h46.58.288,LearnStrategy,2023.2.3,Win32,59.52380952,5,2,14,,,,,,,,5,10,,,,,,,,,,,5,1.529,1,,,,,,-0.408333333,-0.412037037,1,0,0,1.5294,Obsidian_rect,13,0,13,0,1,
6615879590e1f7c3dce86f28,SCN,2024-06-24_12h46.58.288,LearnStrategy,2023.2.3,Win32,59.52380952,5,2,15,,,,,,,,3,11,,,,,,,,,,,1,2.132,0,,,,,,-0.341666667,-0.256481481,1,0,0,2.1323,Andesite_rect,14,0,14,0,1,
6615879590e1f7c3dce86f28,SCN,2024-06-24_12h46.58.288,LearnStrategy,2023.2.3,Win32,59.52380952,5,2,16,,,,,,,,8,06,,,,,,,,,,,8,1.318,1,,,,,,0.443518519,-0.412962963,1,0,0,1.318,Pumice_rect,15,0,15,0,1,
6615879590e1f7c3dce86f28,SCN,2024-06-24_12h46.58.288,LearnStrategy,2023.2.3,Win32,59.52380952,6,1,1,0.097222222,0.081481481,1,0,0,7.1498,Pumice_10,8,10,4,5,7.15,-0.311111111,-0.244444444,1,0,0,2.0242,Andesite_rect,1,2.024,0,0,0,0,0,1,,,,,,,,,,,,,
6615879590e1f7c3dce86f28,SCN,2024-06-24_12h46.58.288,LearnStrategy,2023.2.3,Win32,59.52380952,6,1,2,0.25,0.086111111,1,0,0,1.4271,Diorite_16,3,16,4,6,1.427,-0.316666667,-0.234259259,1,0,0,2.7239,Andesite_rect,1,2.724,0,1,0,1,0,1,,,,,,,,,,,,,
6615879590e1f7c3dce86f28,SCN,2024-06-24_12h46.58.288,LearnStrategy,2023.2.3,Win32,59.52380952,6,1,3,-0.102777778,0.113888889,1,0,0,14.2793,Diorite_07,3,07,4,4,14.279,0.167592593,-0.263888889,1,0,0,1.3771,Diorite_rect,3,1.377,1,2,0,2,0,1,,,,,,,,,,,,,
6615879590e1f7c3dce86f28,SCN,2024-06-24_12h46.58.288,LearnStrategy,2023.2.3,Win32,59.52380952,6,1,4,-0.056481481,-0.106481481,1,0,0,1.6871,Diorite_09,3,09,3,4,1.687,0.165740741,-0.249074074,1,0,0,0.7607,Diorite_rect,3,0.761,1,3,0,3,0,1,,,,,,,,,,,,,
6615879590e1f7c3dce86f28,SCN,2024-06-24_12h46.58.288,LearnStrategy,2023.2.3,Win32,59.52380952,6,1,5,-0.387962963,0.227777778,1,0,0,2.2141,Andesite_04,1,04,5,2,2.214,-0.332407407,-0.248148148,1,0,0,1.2594,Andesite_rect,1,1.259,1,4,0,4,0,1,,,,,,,,,,,,,
6615879590e1f7c3dce86f28,SCN,2024-06-24_12h46.58.288,LearnStrategy,2023.2.3,Win32,59.52380952,6,1,6,-0.090740741,0.078703704,1,0,0,1.5396,Diorite_07,3,07,4,4,1.54,0.12037037,-0.234259259,1,0,0,0.6504,Diorite_rect,3,0.65,1,5,0,5,0,1,,,,,,,,,,,,,
6615879590e1f7c3dce86f28,SCN,2024-06-24_12h46.58.288,LearnStrategy,2023.2.3,Win32,59.52380952,6,1,7,-0.057407407,-0.286111111,1,0,0,2.2175,Andesite_14,1,14,2,4,2.217,-0.418518519,-0.243518519,1,0,0,1.5285,Andesite_rect,1,1.529,1,6,0,6,0,1,,,,,,,,,,,,,
6615879590e1f7c3dce86f28,SCN,2024-06-24_12h46.58.288,LearnStrategy,2023.2.3,Win32,59.52380952,6,1,8,-0.513888889,0.082407407,1,0,0,4.0269,Basalt_10,2,10,4,1,4.027,-0.15,-0.268518519,1,0,0,1.0909,Basalt_rect,2,1.091,1,7,0,7,0,1,,,,,,,,,,,,,
6615879590e1f7c3dce86f28,SCN,2024-06-24_12h46.58.288,LearnStrategy,2023.2.3,Win32,59.52380952,6,1,9,0.069444444,0.418518519,1,0,0,1.6902,Gabbro_03,4,03,6,5,1.69,0.385185185,-0.268518519,1,0,0,1.5946,Gabbro_rect,4,1.595,1,8,0,8,0,1,,,,,,,,,,,,,
6615879590e1f7c3dce86f28,SCN,2024-06-24_12h46.58.288,LearnStrategy,2023.2.3,Win32,59.52380952,6,1,10,0.535185185,-0.408333333,1,0,0,8.7311,Peridotite_13,7,13,1,8,8.731,0.110185185,-0.406481481,1,0,0,0.6703,Peridotite_rect,7,0.67,1,9,0,9,0,1,,,,,,,,,,,,,
6615879590e1f7c3dce86f28,SCN,2024-06-24_12h46.58.288,LearnStrategy,2023.2.3,Win32,59.52380952,6,1,11,-0.055555556,-0.416666667,1,0,0,1.2578,Basalt_08,2,08,1,4,1.258,-0.07962963,-0.25,1,0,0,1.3341,Basalt_rect,2,1.334,1,10,0,10,0,1,,,,,,,,,,,,,
6615879590e1f7c3dce86f28,SCN,2024-06-24_12h46.58.288,LearnStrategy,2023.2.3,Win32,59.52380952,6,1,12,-0.236111111,-0.409259259,1,0,0,0.8531,Gabbro_15,4,15,1,3,0.853,0.115740741,-0.256481481,1,0,0,3.061,Diorite_rect,3,3.061,0,11,0,11,0,1,,,,,,,,,,,,,
6615879590e1f7c3dce86f28,SCN,2024-06-24_12h46.58.288,LearnStrategy,2023.2.3,Win32,59.52380952,6,1,13,-0.416666667,-0.268518519,1,0,0,1.3294,Andesite_16,1,16,2,2,1.329,-0.40462963,-0.246296296,1,0,0,1.2582,Andesite_rect,1,1.258,1,12,0,12,0,1,,,,,,,,,,,,,
6615879590e1f7c3dce86f28,SCN,2024-06-24_12h46.58.288,LearnStrategy,2023.2.3,Win32,59.52380952,6,1,14,0.056481481,0.088888889,1,0,0,1.36,Pumice_10,8,10,4,5,1.36,0.440740741,-0.391666667,1,0,0,1.278,Pumice_rect,8,1.278,1,13,0,13,0,1,,,,,,,,,,,,,
6615879590e1f7c3dce86f28,SCN,2024-06-24_12h46.58.288,LearnStrategy,2023.2.3,Win32,59.52380952,6,1,15,-0.568518519,0.087962963,1,0,0,1.6942,Basalt_10,2,10,4,1,1.694,-0.123148148,-0.262037037,1,0,0,1.3283,Basalt_rect,2,1.328,1,14,0,14,0,1,,,,,,,,,,,,,
6615879590e1f7c3dce86f28,SCN,2024-06-24_12h46.58.288,LearnStrategy,2023.2.3,Win32,59.52380952,6,1,16,-0.421296296,0.407407407,1,0,0,1.9091,Gabbro_11,4,11,6,2,1.909,-0.367592593,-0.240740741,1,0,0,1.8956,Andesite_rect,1,1.896,0,15,0,15,0,1,,,,,,,,,,,,,
6615879590e1f7c3dce86f28,SCN,2024-06-24_12h46.58.288,LearnStrategy,2023.2.3,Win32,59.52380952,6,2,1,,,,,,,,1,06,,,,,,,,,,,1,3.847,1,,,,,,-0.399074074,-0.261111111,1,0,0,3.8472,Andesite_rect,0,0,0,0,1,
6615879590e1f7c3dce86f28,SCN,2024-06-24_12h46.58.288,LearnStrategy,2023.2.3,Win32,59.52380952,6,2,2,,,,,,,,5,16,,,,,,,,,,,5,1.155,1,,,,,,-0.439814815,-0.388888889,1,0,0,1.1547,Obsidian_rect,1,0,1,0,1,
6615879590e1f7c3dce86f28,SCN,2024-06-24_12h46.58.288,LearnStrategy,2023.2.3,Win32,59.52380952,6,2,3,,,,,,,,3,08,,,,,,,,,,,1,1.391,0,,,,,,-0.361111111,-0.25,1,0,0,1.3909,Andesite_rect,2,0,2,0,1,
6615879590e1f7c3dce86f28,SCN,2024-06-24_12h46.58.288,LearnStrategy,2023.2.3,Win32,59.52380952,6,2,4,,,,,,,,6,05,,,,,,,,,,,5,3.779,0,,,,,,-0.374074074,-0.385185185,1,0,0,3.7786,Obsidian_rect,3,0,3,0,1,
6615879590e1f7c3dce86f28,SCN,2024-06-24_12h46.58.288,LearnStrategy,2023.2.3,Win32,59.52380952,6,2,5,,,,,,,,6,06,,,,,,,,,,,7,4.112,0,,,,,,0.119444444,-0.394444444,1,0,0,4.1124,Peridotite_rect,4,0,4,0,1,
6615879590e1f7c3dce86f28,SCN,2024-06-24_12h46.58.288,LearnStrategy,2023.2.3,Win32,59.52380952,6,2,6,,,,,,,,3,12,,,,,,,,,,,1,4.896,0,,,,,,-0.37962963,-0.261111111,1,0,0,4.8965,Andesite_rect,5,0,5,0,1,
6615879590e1f7c3dce86f28,SCN,2024-06-24_12h46.58.288,LearnStrategy,2023.2.3,Win32,59.52380952,6,2,7,,,,,,,,8,02,,,,,,,,,,,8,1.198,1,,,,,,0.402777778,-0.397222222,1,0,0,1.1982,Pumice_rect,6,0,6,0,1,
6615879590e1f7c3dce86f28,SCN,2024-06-24_12h46.58.288,LearnStrategy,2023.2.3,Win32,59.52380952,6,2,8,,,,,,,,4,01,,,,,,,,,,,7,1.541,0,,,,,,0.233333333,-0.403703704,1,0,0,1.5406,Peridotite_rect,7,0,7,0,1,
6615879590e1f7c3dce86f28,SCN,2024-06-24_12h46.58.288,LearnStrategy,2023.2.3,Win32,59.52380952,6,2,9,,,,,,,,7,04,,,,,,,,,,,7,1.101,1,,,,,,0.17962963,-0.394444444,1,0,0,1.1007,Peridotite_rect,8,0,8,0,1,
6615879590e1f7c3dce86f28,SCN,2024-06-24_12h46.58.288,LearnStrategy,2023.2.3,Win32,59.52380952,6,2,10,,,,,,,,1,03,,,,,,,,,,,3,4.654,0,,,,,,0.139814815,-0.249074074,1,0,0,4.654,Diorite_rect,9,0,9,0,1,
6615879590e1f7c3dce86f28,SCN,2024-06-24_12h46.58.288,LearnStrategy,2023.2.3,Win32,59.52380952,6,2,11,,,,,,,,4,14,,,,,,,,,,,1,1.588,0,,,,,,-0.336111111,-0.228703704,1,0,0,1.5881,Andesite_rect,10,0,10,0,1,
6615879590e1f7c3dce86f28,SCN,2024-06-24_12h46.58.288,LearnStrategy,2023.2.3,Win32,59.52380952,6,2,12,,,,,,,,2,02,,,,,,,,,,,2,1.152,1,,,,,,-0.075925926,-0.25462963,1,0,0,1.1518,Basalt_rect,11,0,11,0,1,
6615879590e1f7c3dce86f28,SCN,2024-06-24_12h46.58.288,LearnStrategy,2023.2.3,Win32,59.52380952,6,2,13,,,,,,,,5,06,,,,,,,,,,,5,1.321,1,,,,,,-0.409259259,-0.415740741,1,0,0,1.3207,Obsidian_rect,12,0,12,0,1,
6615879590e1f7c3dce86f28,SCN,2024-06-24_12h46.58.288,LearnStrategy,2023.2.3,Win32,59.52380952,6,2,14,,,,,,,,8,09,,,,,,,,,,,8,1.801,1,,,,,,0.463888889,-0.401851852,1,0,0,1.8006,Pumice_rect,13,0,13,0,1,
6615879590e1f7c3dce86f28,SCN,2024-06-24_12h46.58.288,LearnStrategy,2023.2.3,Win32,59.52380952,6,2,15,,,,,,,,7,10,,,,,,,,,,,4,5.208,0,,,,,,0.356481481,-0.262037037,1,0,0,5.208,Gabbro_rect,14,0,14,0,1,
6615879590e1f7c3dce86f28,SCN,2024-06-24_12h46.58.288,LearnStrategy,2023.2.3,Win32,59.52380952,6,2,16,,,,,,,,2,12,,,,,,,,,,,8,1.505,0,,,,,,0.39537037,-0.410185185,1,0,0,1.5054,Pumice_rect,15,0,15,0,1,
6615879590e1f7c3dce86f28,SCN,2024-06-24_12h46.58.288,LearnStrategy,2023.2.3,Win32,59.52380952,7,1,1,-0.091666667,-0.231481481,1,0,0,1.8335,Andesite_14,1,14,2,4,1.834,0.100925926,-0.388888889,1,0,0,1.8719,Peridotite_rect,7,1.872,0,0,0,0,0,1,,,,,,,,,,,,,
6615879590e1f7c3dce86f28,SCN,2024-06-24_12h46.58.288,LearnStrategy,2023.2.3,Win32,59.52380952,7,1,2,-0.400925926,-0.255555556,1,0,0,1.4785,Andesite_16,1,16,2,2,1.478,-0.374074074,-0.237962963,1,0,0,1.172,Andesite_rect,1,1.172,1,1,0,1,0,1,,,,,,,,,,,,,
6615879590e1f7c3dce86f28,SCN,2024-06-24_12h46.58.288,LearnStrategy,2023.2.3,Win32,59.52380952,7,1,3,-0.082407407,0.101851852,1,0,0,1.6379,Diorite_07,3,07,4,4,1.638,-0.367592593,-0.260185185,1,0,0,0.9997,Andesite_rect,1,1,0,2,0,2,0,1,,,,,,,,,,,,,
6615879590e1f7c3dce86f28,SCN,2024-06-24_12h46.58.288,LearnStrategy,2023.2.3,Win32,59.52380952,7,1,4,-0.580555556,-0.101851852,1,0,0,4.4444,Peridotite_07,7,07,3,1,4.444,0.424074074,-0.262037037,1,0,0,2.0851,Gabbro_rect,4,2.085,0,3,0,3,0,1,,,,,,,,,,,,,
6615879590e1f7c3dce86f28,SCN,2024-06-24_12h46.58.288,LearnStrategy,2023.2.3,Win32,59.52380952,7,1,5,0.084259259,0.260185185,1,0,0,1.8779,Basalt_16,2,16,5,5,1.878,-0.097222222,-0.260185185,1,0,0,3.3771,Basalt_rect,2,3.377,1,4,0,4,0,1,,,,,,,,,,,,,
6615879590e1f7c3dce86f28,SCN,2024-06-24_12h46.58.288,LearnStrategy,2023.2.3,Win32,59.52380952,7,1,6,0.538888889,0.087037037,1,0,0,1.703,Pegmatite_09,6,09,4,8,1.703,0.122222222,-0.391666667,1,0,0,1.4587,Peridotite_rect,7,1.459,0,5,0,5,0,1,,,,,,,,,,,,,
6615879590e1f7c3dce86f28,SCN,2024-06-24_12h46.58.288,LearnStrategy,2023.2.3,Win32,59.52380952,7,1,7,-0.22962963,0.225925926,1,0,0,7.0921,Pegmatite_15,6,15,5,3,7.092,0.15,-0.412962963,1,0,0,2.167,Peridotite_rect,7,2.167,0,6,0,6,0,1,,,,,,,,,,,,,
6615879590e1f7c3dce86f28,SCN,2024-06-24_12h46.58.288,LearnStrategy,2023.2.3,Win32,59.52380952,7,1,8,-0.548148148,0.226851852,1,0,0,2.9393,Pumice_08,8,08,5,1,2.939,0.412962963,-0.387962963,1,0,0,2.1594,Pumice_rect,8,2.159,1,7,0,7,0,1,,,,,,,,,,,,,
6615879590e1f7c3dce86f28,SCN,2024-06-24_12h46.58.288,LearnStrategy,2023.2.3,Win32,59.52380952,7,1,9,0.355555556,0.267592593,1,0,0,2.7857,Basalt_04,2,04,5,7,2.786,-0.147222222,-0.241666667,1,0,0,1.3182,Basalt_rect,2,1.318,1,8,0,8,0,1,,,,,,,,,,,,,
6615879590e1f7c3dce86f28,SCN,2024-06-24_12h46.58.288,LearnStrategy,2023.2.3,Win32,59.52380952,7,1,10,0.071296296,-0.116666667,1,0,0,1.683,Pumice_13,8,13,3,5,1.683,0.410185185,-0.417592593,1,0,0,2.2517,Pumice_rect,8,2.252,1,9,0,9,0,1,,,,,,,,,,,,,
6615879590e1f7c3dce86f28,SCN,2024-06-24_12h46.58.288,LearnStrategy,2023.2.3,Win32,59.52380952,7,1,11,-0.396296296,-0.25,1,0,0,1.585,Andesite_16,1,16,2,2,1.585,-0.351851852,-0.235185185,1,0,0,1.6934,Andesite_rect,1,1.693,1,10,0,10,0,1,,,,,,,,,,,,,
6615879590e1f7c3dce86f28,SCN,2024-06-24_12h46.58.288,LearnStrategy,2023.2.3,Win32,59.52380952,7,1,12,-0.551851852,-0.261111111,1,0,0,2.0014,Diorite_02,3,02,2,1,2.001,0.124074074,-0.399074074,1,0,0,1.2009,Peridotite_rect,7,1.201,0,11,0,11,0,1,,,,,,,,,,,,,
6615879590e1f7c3dce86f28,SCN,2024-06-24_12h46.58.288,LearnStrategy,2023.2.3,Win32,59.52380952,7,1,13,0.237962963,0.108333333,1,0,0,1.879,Diorite_16,3,16,4,6,1.879,0.083333333,-0.25462963,1,0,0,0.8991,Diorite_rect,3,0.899,1,12,0,12,0,1,,,,,,,,,,,,,
6615879590e1f7c3dce86f28,SCN,2024-06-24_12h46.58.288,LearnStrategy,2023.2.3,Win32,59.52380952,7,1,14,-0.210185185,0.066666667,1,0,0,1.6825,Gabbro_09,4,09,4,3,1.682,-0.374074074,-0.389814815,1,0,0,2.5095,Obsidian_rect,5,2.509,0,13,0,13,0,1,,,,,,,,,,,,,
6615879590e1f7c3dce86f28,SCN,2024-06-24_12h46.58.288,LearnStrategy,2023.2.3,Win32,59.52380952,7,1,15,0.258333333,0.239814815,1,0,0,2.6497,Pegmatite_12,6,12,5,6,2.65,0.4,-0.249074074,1,0,0,1.8495,Gabbro_rect,4,1.85,0,14,0,14,0,1,,,,,,,,,,,,,
6615879590e1f7c3dce86f28,SCN,2024-06-24_12h46.58.288,LearnStrategy,2023.2.3,Win32,59.52380952,7,1,16,0.530555556,0.406481481,1,0,0,4.8153,Andesite_07,1,07,6,8,4.815,0.148148148,-0.247222222,1,0,0,1.2797,Diorite_rect,3,1.28,0,15,0,15,0,1,,,,,,,,,,,,,
6615879590e1f7c3dce86f28,SCN,2024-06-24_12h46.58.288,LearnStrategy,2023.2.3,Win32,59.52380952,7,2,1,,,,,,,,5,10,,,,,,,,,,,5,1.23,1,,,,,,-0.355555556,-0.387037037,1,0,0,1.2298,Obsidian_rect,0,0,0,0,1,
6615879590e1f7c3dce86f28,SCN,2024-06-24_12h46.58.288,LearnStrategy,2023.2.3,Win32,59.52380952,7,2,2,,,,,,,,4,12,,,,,,,,,,,4,11.324,1,,,,,,0.37962963,-0.249074074,1,0,0,11.3239,Gabbro_rect,1,0,1,0,1,
6615879590e1f7c3dce86f28,SCN,2024-06-24_12h46.58.288,LearnStrategy,2023.2.3,Win32,59.52380952,7,2,3,,,,,,,,1,09,,,,,,,,,,,1,5.085,1,,,,,,-0.375,-0.247222222,1,0,0,5.0848,Andesite_rect,2,0,2,0,1,
6615879590e1f7c3dce86f28,SCN,2024-06-24_12h46.58.288,LearnStrategy,2023.2.3,Win32,59.52380952,7,2,4,,,,,,,,4,13,,,,,,,,,,,7,7.185,0,,,,,,0.188888889,-0.394444444,1,0,0,7.1853,Peridotite_rect,3,0,3,0,1,
6615879590e1f7c3dce86f28,SCN,2024-06-24_12h46.58.288,LearnStrategy,2023.2.3,Win32,59.52380952,7,2,5,,,,,,,,5,06,,,,,,,,,,,5,1.097,1,,,,,,-0.393518519,-0.392592593,1,0,0,1.0966,Obsidian_rect,4,0,4,0,1,
6615879590e1f7c3dce86f28,SCN,2024-06-24_12h46.58.288,LearnStrategy,2023.2.3,Win32,59.52380952,7,2,6,,,,,,,,8,05,,,,,,,,,,,8,1.309,1,,,,,,0.422222222,-0.418518519,1,0,0,1.3091,Pumice_rect,5,0,5,0,1,
6615879590e1f7c3dce86f28,SCN,2024-06-24_12h46.58.288,LearnStrategy,2023.2.3,Win32,59.52380952,7,2,7,,,,,,,,3,14,,,,,,,,,,,3,7.925,1,,,,,,0.137037037,-0.249074074,1,0,0,7.9252,Diorite_rect,6,0,6,0,1,
6615879590e1f7c3dce86f28,SCN,2024-06-24_12h46.58.288,LearnStrategy,2023.2.3,Win32,59.52380952,7,2,8,,,,,,,,2,05,,,,,,,,,,,2,1.259,1,,,,,,-0.14537037,-0.22962963,1,0,0,1.2587,Basalt_rect,7,0,7,0,1,
6615879590e1f7c3dce86f28,SCN,2024-06-24_12h46.58.288,LearnStrategy,2023.2.3,Win32,59.52380952,7,2,9,,,,,,,,1,10,,,,,,,,,,,1,3.088,1,,,,,,-0.35462963,-0.24537037,1,0,0,3.0879,Andesite_rect,8,0,8,0,1,
6615879590e1f7c3dce86f28,SCN,2024-06-24_12h46.58.288,LearnStrategy,2023.2.3,Win32,59.52380952,7,2,10,,,,,,,,7,02,,,,,,,,,,,7,2.329,1,,,,,,0.132407407,-0.400925926,1,0,0,2.3285,Peridotite_rect,9,0,9,0,1,
6615879590e1f7c3dce86f28,SCN,2024-06-24_12h46.58.288,LearnStrategy,2023.2.3,Win32,59.52380952,7,2,11,,,,,,,,6,07,,,,,,,,,,,5,3.731,0,,,,,,-0.339814815,-0.389814815,1,0,0,3.7313,Obsidian_rect,10,0,10,0,1,
6615879590e1f7c3dce86f28,SCN,2024-06-24_12h46.58.288,LearnStrategy,2023.2.3,Win32,59.52380952,7,2,12,,,,,,,,7,04,,,,,,,,,,,7,3.96,1,,,,,,0.171296296,-0.416666667,1,0,0,3.9595,Peridotite_rect,11,0,11,0,1,
6615879590e1f7c3dce86f28,SCN,2024-06-24_12h46.58.288,LearnStrategy,2023.2.3,Win32,59.52380952,7,2,13,,,,,,,,6,06,,,,,,,,,,,6,2.57,1,,,,,,-0.144444444,-0.408333333,1,0,0,2.5703,Pegmatite_rect,12,0,12,0,1,
6615879590e1f7c3dce86f28,SCN,2024-06-24_12h46.58.288,LearnStrategy,2023.2.3,Win32,59.52380952,7,2,14,,,,,,,,2,09,,,,,,,,,,,4,3.327,0,,,,,,0.394444444,-0.264814815,1,0,0,3.327,Gabbro_rect,13,0,13,0,1,
6615879590e1f7c3dce86f28,SCN,2024-06-24_12h46.58.288,LearnStrategy,2023.2.3,Win32,59.52380952,7,2,15,,,,,,,,8,06,,,,,,,,,,,8,0.997,1,,,,,,0.368518519,-0.390740741,1,0,0,0.997,Pumice_rect,14,0,14,0,1,
6615879590e1f7c3dce86f28,SCN,2024-06-24_12h46.58.288,LearnStrategy,2023.2.3,Win32,59.52380952,7,2,16,,,,,,,,3,12,,,,,,,,,,,1,2.041,0,,,,,,-0.389814815,-0.266666667,1,0,0,2.0413,Andesite_rect,15,0,15,0,1,
6615879590e1f7c3dce86f28,SCN,2024-06-24_12h46.58.288,LearnStrategy,2023.2.3,Win32,59.52380952,8,1,1,-0.57037037,-0.088888889,1,0,0,2.2453,Peridotite_07,7,07,3,1,2.245,-0.387962963,-0.251851852,1,0,0,10.769,Andesite_rect,1,10.769,0,0,0,0,0,1,,,,,,,,,,,,,
6615879590e1f7c3dce86f28,SCN,2024-06-24_12h46.58.288,LearnStrategy,2023.2.3,Win32,59.52380952,8,1,2,-0.026851852,-0.284259259,1,0,0,2.8716,Andesite_14,1,14,2,4,2.872,-0.362962963,-0.240740741,1,0,0,5.7,Andesite_rect,1,5.7,1,1,0,1,0,1,,,,,,,,,,,,,
6615879590e1f7c3dce86f28,SCN,2024-06-24_12h46.58.288,LearnStrategy,2023.2.3,Win32,59.52380952,8,1,3,0.271296296,0.081481481,1,0,0,1.5394,Diorite_16,3,16,4,6,1.539,0.175925926,-0.258333333,1,0,0,3.3403,Diorite_rect,3,3.34,1,2,0,2,0,1,,,,,,,,,,,,,
6615879590e1f7c3dce86f28,SCN,2024-06-24_12h46.58.288,LearnStrategy,2023.2.3,Win32,59.52380952,8,1,4,0.064814815,0.389814815,1,0,0,2.7916,Gabbro_03,4,03,6,5,2.792,0.387037037,-0.25,1,0,0,1.999,Gabbro_rect,4,1.999,1,3,0,3,0,1,,,,,,,,,,,,,
6615879590e1f7c3dce86f28,SCN,2024-06-24_12h46.58.288,LearnStrategy,2023.2.3,Win32,59.52380952,8,1,5,-0.234259259,0.424074074,1,0,0,0.9329,Diorite_06,3,06,6,3,0.933,0.387962963,-0.235185185,1,0,0,0.9072,Gabbro_rect,4,0.907,0,4,0,4,0,1,,,,,,,,,,,,,
6615879590e1f7c3dce86f28,SCN,2024-06-24_12h46.58.288,LearnStrategy,2023.2.3,Win32,59.52380952,8,1,6,-0.369444444,0.393518519,1,0,0,0.9884,Gabbro_11,4,11,6,2,0.988,0.425,-0.249074074,1,0,0,1.0395,Gabbro_rect,4,1.039,1,5,0,5,0,1,,,,,,,,,,,,,
6615879590e1f7c3dce86f28,SCN,2024-06-24_12h46.58.288,LearnStrategy,2023.2.3,Win32,59.52380952,8,1,7,0.063888889,-0.247222222,1,0,0,1.0437,Basalt_01,2,01,2,5,1.044,-0.169444444,-0.261111111,1,0,0,1.3298,Basalt_rect,2,1.33,1,6,0,6,0,1,,,,,,,,,,,,,
6615879590e1f7c3dce86f28,SCN,2024-06-24_12h46.58.288,LearnStrategy,2023.2.3,Win32,59.52380952,8,1,8,-0.40462963,-0.416666667,1,0,0,1.5401,Andesite_11,1,11,1,2,1.54,-0.360185185,-0.239814815,1,0,0,1.2721,Andesite_rect,1,1.272,1,7,0,7,0,1,,,,,,,,,,,,,
6615879590e1f7c3dce86f28,SCN,2024-06-24_12h46.58.288,LearnStrategy,2023.2.3,Win32,59.52380952,8,1,9,-0.57037037,0.249074074,1,0,0,1.9207,Pumice_08,8,08,5,1,1.921,0.436111111,-0.405555556,1,0,0,1.1517,Pumice_rect,8,1.152,1,8,0,8,0,1,,,,,,,,,,,,,
6615879590e1f7c3dce86f28,SCN,2024-06-24_12h46.58.288,LearnStrategy,2023.2.3,Win32,59.52380952,8,1,10,0.193518519,-0.253703704,1,0,0,2.3803,Pegmatite_13,6,13,2,6,2.38,-0.131481481,-0.380555556,1,0,0,5.3449,Pegmatite_rect,6,5.345,1,9,0,9,0,1,,,,,,,,,,,,,
6615879590e1f7c3dce86f28,SCN,2024-06-24_12h46.58.288,LearnStrategy,2023.2.3,Win32,59.52380952,8,1,11,-0.410185185,-0.106481481,1,0,0,1.7111,Pegmatite_11,6,11,3,2,1.711,-0.084259259,-0.412962963,1,0,0,0.8049,Pegmatite_rect,6,0.805,1,10,0,10,0,1,,,,,,,,,,,,,
6615879590e1f7c3dce86f28,SCN,2024-06-24_12h46.58.288,LearnStrategy,2023.2.3,Win32,59.52380952,8,1,12,-0.384259259,0.093518519,1,0,0,1.6261,Gabbro_05,4,05,4,2,1.626,-0.380555556,-0.255555556,1,0,0,14.1971,Andesite_rect,1,14.197,0,11,0,11,0,1,,,,,,,,,,,,,
6615879590e1f7c3dce86f28,SCN,2024-06-24_12h46.58.288,LearnStrategy,2023.2.3,Win32,59.52380952,8,1,13,0.566666667,-0.258333333,1,0,0,14.4199,Peridotite_05,7,05,2,8,14.42,0.110185185,-0.386111111,1,0,0,2.3704,Peridotite_rect,7,2.37,1,12,0,12,0,1,,,,,,,,,,,,,
6615879590e1f7c3dce86f28,SCN,2024-06-24_12h46.58.288,LearnStrategy,2023.2.3,Win32,59.52380952,8,1,14,0.411111111,-0.114814815,1,0,0,0.7272,Andesite_05,1,05,3,7,0.727,-0.362037037,-0.247222222,1,0,0,1.2145,Andesite_rect,1,1.215,1,13,0,13,0,1,,,,,,,,,,,,,
6615879590e1f7c3dce86f28,SCN,2024-06-24_12h46.58.288,LearnStrategy,2023.2.3,Win32,59.52380952,8,1,15,-0.081481481,-0.103703704,1,0,0,1.5528,Diorite_09,3,09,3,4,1.553,0.134259259,-0.255555556,1,0,0,0.9661,Diorite_rect,3,0.966,1,14,0,14,0,1,,,,,,,,,,,,,
6615879590e1f7c3dce86f28,SCN,2024-06-24_12h46.58.288,LearnStrategy,2023.2.3,Win32,59.52380952,8,1,16,0.367592593,0.090740741,1,0,0,1.6372,Peridotite_12,7,12,4,7,1.637,0.138888889,-0.265740741,1,0,0,2.987,Diorite_rect,3,2.987,0,15,0,15,0,1,,,,,,,,,,,,,
6615879590e1f7c3dce86f28,SCN,2024-06-24_12h46.58.288,LearnStrategy,2023.2.3,Win32,59.52380952,8,2,1,,,,,,,,5,12,,,,,,,,,,,5,1.421,1,,,,,,-0.425,-0.400925926,1,0,0,1.4209,Obsidian_rect,0,0,0,0,1,
6615879590e1f7c3dce86f28,SCN,2024-06-24_12h46.58.288,LearnStrategy,2023.2.3,Win32,59.52380952,8,2,2,,,,,,,,3,11,,,,,,,,,,,4,15.822,0,,,,,,0.37962963,-0.255555556,1,0,0,15.8216,Gabbro_rect,1,0,1,0,1,
6615879590e1f7c3dce86f28,SCN,2024-06-24_12h46.58.288,LearnStrategy,2023.2.3,Win32,59.52380952,8,2,3,,,,,,,,4,01,,,,,,,,,,,7,5.66,0,,,,,,0.150925926,-0.414814815,1,0,0,5.6602,Peridotite_rect,2,0,2,0,1,
6615879590e1f7c3dce86f28,SCN,2024-06-24_12h46.58.288,LearnStrategy,2023.2.3,Win32,59.52380952,8,2,4,,,,,,,,6,03,,,,,,,,,,,6,3.34,1,,,,,,-0.109259259,-0.405555556,1,0,0,3.3397,Pegmatite_rect,3,0,3,0,1,
6615879590e1f7c3dce86f28,SCN,2024-06-24_12h46.58.288,LearnStrategy,2023.2.3,Win32,59.52380952,8,2,5,,,,,,,,1,03,,,,,,,,,,,1,1.492,1,,,,,,-0.37962963,-0.235185185,1,0,0,1.4915,Andesite_rect,4,0,4,0,1,
6615879590e1f7c3dce86f28,SCN,2024-06-24_12h46.58.288,LearnStrategy,2023.2.3,Win32,59.52380952,8,2,6,,,,,,,,5,09,,,,,,,,,,,5,1.078,1,,,,,,-0.378703704,-0.397222222,1,0,0,1.0777,Obsidian_rect,5,0,5,0,1,
6615879590e1f7c3dce86f28,SCN,2024-06-24_12h46.58.288,LearnStrategy,2023.2.3,Win32,59.52380952,8,2,7,,,,,,,,7,06,,,,,,,,,,,6,1.816,0,,,,,,-0.141666667,-0.403703704,1,0,0,1.8163,Pegmatite_rect,6,0,6,0,1,
6615879590e1f7c3dce86f28,SCN,2024-06-24_12h46.58.288,LearnStrategy,2023.2.3,Win32,59.52380952,8,2,8,,,,,,,,7,14,,,,,,,,,,,3,10.608,0,,,,,,0.084259259,-0.237037037,1,0,0,10.6076,Diorite_rect,7,0,7,0,1,
6615879590e1f7c3dce86f28,SCN,2024-06-24_12h46.58.288,LearnStrategy,2023.2.3,Win32,59.52380952,8,2,9,,,,,,,,8,03,,,,,,,,,,,8,1.207,1,,,,,,0.4,-0.401851852,1,0,0,1.2069,Pumice_rect,8,0,8,0,1,
6615879590e1f7c3dce86f28,SCN,2024-06-24_12h46.58.288,LearnStrategy,2023.2.3,Win32,59.52380952,8,2,10,,,,,,,,2,14,,,,,,,,,,,8,1.614,0,,,,,,0.412037037,-0.396296296,1,0,0,1.6138,Pumice_rect,9,0,9,0,1,
6615879590e1f7c3dce86f28,SCN,2024-06-24_12h46.58.288,LearnStrategy,2023.2.3,Win32,59.52380952,8,2,11,,,,,,,,4,16,,,,,,,,,,,4,2.395,1,,,,,,0.357407407,-0.24537037,1,0,0,2.3955,Gabbro_rect,10,0,10,0,1,
6615879590e1f7c3dce86f28,SCN,2024-06-24_12h46.58.288,LearnStrategy,2023.2.3,Win32,59.52380952,8,2,12,,,,,,,,1,06,,,,,,,,,,,1,4.214,1,,,,,,-0.438888889,-0.256481481,1,0,0,4.2137,Andesite_rect,11,0,11,0,1,
6615879590e1f7c3dce86f28,SCN,2024-06-24_12h46.58.288,LearnStrategy,2023.2.3,Win32,59.52380952,8,2,13,,,,,,,,8,09,,,,,,,,,,,8,1.222,1,,,,,,0.375925926,-0.393518519,1,0,0,1.2217,Pumice_rect,12,0,12,0,1,
6615879590e1f7c3dce86f28,SCN,2024-06-24_12h46.58.288,LearnStrategy,2023.2.3,Win32,59.52380952,8,2,14,,,,,,,,6,05,,,,,,,,,,,5,2.136,0,,,,,,-0.448148148,-0.386111111,1,0,0,2.1357,Obsidian_rect,13,0,13,0,1,
6615879590e1f7c3dce86f28,SCN,2024-06-24_12h46.58.288,LearnStrategy,2023.2.3,Win32,59.52380952,8,2,15,,,,,,,,2,12,,,,,,,,,,,8,2.493,0,,,,,,0.358333333,-0.405555556,1,0,0,2.4931,Pumice_rect,14,0,14,0,1,
6615879590e1f7c3dce86f28,SCN,2024-06-24_12h46.58.288,LearnStrategy,2023.2.3,Win32,59.52380952,8,2,16,,,,,,,,3,08,,,,,,,,,,,3,4.867,1,,,,,,0.12037037,-0.237037037,1,0,0,4.8671,Diorite_rect,15,0,15,0,1,
6615879590e1f7c3dce86f28,SCN,2024-06-24_12h46.58.288,LearnStrategy,2023.2.3,Win32,59.52380952,9,1,1,-0.393518519,0.257407407,1,0,0,5.3811,Andesite_04,1,04,5,2,5.381,-0.388888889,-0.258333333,1,0,0,2.1246,Andesite_rect,1,2.125,1,0,0,0,0,1,,,,,,,,,,,,,
6615879590e1f7c3dce86f28,SCN,2024-06-24_12h46.58.288,LearnStrategy,2023.2.3,Win32,59.52380952,9,1,2,0.218518519,0.252777778,1,0,0,1.8442,Pegmatite_12,6,12,5,6,1.844,0.080555556,-0.388888889,1,0,0,2.0528,Peridotite_rect,7,2.053,0,1,0,1,0,1,,,,,,,,,,,,,
6615879590e1f7c3dce86f28,SCN,2024-06-24_12h46.58.288,LearnStrategy,2023.2.3,Win32,59.52380952,9,1,3,0.571296296,-0.409259259,1,0,0,5.4154,Peridotite_13,7,13,1,8,5.415,0.150925926,-0.400925926,1,0,0,0.8677,Peridotite_rect,7,0.868,1,2,0,2,0,1,,,,,,,,,,,,,
6615879590e1f7c3dce86f28,SCN,2024-06-24_12h46.58.288,LearnStrategy,2023.2.3,Win32,59.52380952,9,1,4,0.087962963,0.093518519,1,0,0,1.9222,Pumice_10,8,10,4,5,1.922,0.434259259,-0.403703704,1,0,0,1.218,Pumice_rect,8,1.218,1,3,0,3,0,1,,,,,,,,,,,,,
6615879590e1f7c3dce86f28,SCN,2024-06-24_12h46.58.288,LearnStrategy,2023.2.3,Win32,59.52380952,9,1,5,-0.413888889,0.272222222,1,0,0,1.3896,Andesite_04,1,04,5,2,1.39,-0.378703704,-0.237962963,1,0,0,1.392,Andesite_rect,1,1.392,1,4,0,4,0,1,,,,,,,,,,,,,
6615879590e1f7c3dce86f28,SCN,2024-06-24_12h46.58.288,LearnStrategy,2023.2.3,Win32,59.52380952,9,1,6,0.386111111,0.246296296,1,0,0,2.7182,Basalt_04,2,04,5,7,2.718,-0.172222222,-0.234259259,1,0,0,1.4791,Basalt_rect,2,1.479,1,5,0,5,0,1,,,,,,,,,,,,,
6615879590e1f7c3dce86f28,SCN,2024-06-24_12h46.58.288,LearnStrategy,2023.2.3,Win32,59.52380952,9,1,7,0.574074074,0.409259259,1,0,0,1.4583,Andesite_07,1,07,6,8,1.458,0.163888889,-0.257407407,1,0,0,1.1204,Diorite_rect,3,1.12,0,6,0,6,0,1,,,,,,,,,,,,,
6615879590e1f7c3dce86f28,SCN,2024-06-24_12h46.58.288,LearnStrategy,2023.2.3,Win32,59.52380952,9,1,8,-0.050925926,-0.258333333,1,0,0,1.5326,Andesite_14,1,14,2,4,1.533,-0.098148148,-0.389814815,1,0,0,2.7207,Pegmatite_rect,6,2.721,0,7,0,7,0,1,,,,,,,,,,,,,
6615879590e1f7c3dce86f28,SCN,2024-06-24_12h46.58.288,LearnStrategy,2023.2.3,Win32,59.52380952,9,1,9,-0.530555556,-0.412037037,1,0,0,4.0965,Pegmatite_16,6,16,1,1,4.096,-0.102777778,-0.399074074,1,0,0,4.3225,Pegmatite_rect,6,4.322,1,8,0,8,0,1,,,,,,,,,,,,,
6615879590e1f7c3dce86f28,SCN,2024-06-24_12h46.58.288,LearnStrategy,2023.2.3,Win32,59.52380952,9,1,10,-0.526851852,-0.109259259,1,0,0,1.7336,Peridotite_07,7,07,3,1,1.734,-0.399074074,-0.24537037,1,0,0,2.4873,Andesite_rect,1,2.487,0,9,0,9,0,1,,,,,,,,,,,,,
6615879590e1f7c3dce86f28,SCN,2024-06-24_12h46.58.288,LearnStrategy,2023.2.3,Win32,59.52380952,9,1,11,0.374074074,-0.10462963,1,0,0,3.0465,Andesite_05,1,05,3,7,3.047,-0.378703704,-0.250925926,1,0,0,1.104,Andesite_rect,1,1.104,1,10,0,10,0,1,,,,,,,,,,,,,
6615879590e1f7c3dce86f28,SCN,2024-06-24_12h46.58.288,LearnStrategy,2023.2.3,Win32,59.52380952,9,1,12,-0.574074074,0.111111111,1,0,0,0.8395,Basalt_10,2,10,4,1,0.84,-0.12037037,-0.263888889,1,0,0,1.7038,Basalt_rect,2,1.704,1,11,0,11,0,1,,,,,,,,,,,,,
6615879590e1f7c3dce86f28,SCN,2024-06-24_12h46.58.288,LearnStrategy,2023.2.3,Win32,59.52380952,9,1,13,-0.264814815,0.398148148,1,0,0,1.0561,Diorite_06,3,06,6,3,1.056,0.303703704,-0.255555556,1,0,0,2.138,Gabbro_rect,4,2.138,0,12,0,12,0,1,,,,,,,,,,,,,
6615879590e1f7c3dce86f28,SCN,2024-06-24_12h46.58.288,LearnStrategy,2023.2.3,Win32,59.52380952,9,1,14,0.061111111,0.410185185,1,0,0,1.2741,Gabbro_03,4,03,6,5,1.274,0.372222222,-0.242592593,1,0,0,1.1301,Gabbro_rect,4,1.13,1,13,0,13,0,1,,,,,,,,,,,,,
6615879590e1f7c3dce86f28,SCN,2024-06-24_12h46.58.288,LearnStrategy,2023.2.3,Win32,59.52380952,9,1,15,0.087962963,-0.251851852,1,0,0,1.3535,Basalt_01,2,01,2,5,1.353,-0.109259259,-0.247222222,1,0,0,1.0637,Basalt_rect,2,1.064,1,14,0,14,0,1,,,,,,,,,,,,,
6615879590e1f7c3dce86f28,SCN,2024-06-24_12h46.58.288,LearnStrategy,2023.2.3,Win32,59.52380952,9,1,16,0.064814815,-0.1,1,0,0,0.7396,Pumice_13,8,13,3,5,0.74,0.376851852,-0.390740741,1,0,0,1.5796,Pumice_rect,8,1.58,1,15,0,15,0,1,,,,,,,,,,,,,
6615879590e1f7c3dce86f28,SCN,2024-06-24_12h46.58.288,LearnStrategy,2023.2.3,Win32,59.52380952,9,2,1,,,,,,,,8,02,,,,,,,,,,,8,2.017,1,,,,,,0.405555556,-0.407407407,1,0,0,2.0169,Pumice_rect,0,0,0,0,1,
6615879590e1f7c3dce86f28,SCN,2024-06-24_12h46.58.288,LearnStrategy,2023.2.3,Win32,59.52380952,9,2,2,,,,,,,,1,02,,,,,,,,,,,1,2.26,1,,,,,,-0.328703704,-0.265740741,1,0,0,2.2598,Andesite_rect,1,0,1,0,1,
6615879590e1f7c3dce86f28,SCN,2024-06-24_12h46.58.288,LearnStrategy,2023.2.3,Win32,59.52380952,9,2,3,,,,,,,,7,08,,,,,,,,,,,7,17.875,1,,,,,,0.062037037,-0.414814815,1,0,0,17.8752,Peridotite_rect,2,0,2,0,1,
6615879590e1f7c3dce86f28,SCN,2024-06-24_12h46.58.288,LearnStrategy,2023.2.3,Win32,59.52380952,9,2,4,,,,,,,,4,14,,,,,,,,,,,2,4.409,0,,,,,,-0.136111111,-0.246296296,1,0,0,4.4086,Basalt_rect,3,0,3,0,1,
6615879590e1f7c3dce86f28,SCN,2024-06-24_12h46.58.288,LearnStrategy,2023.2.3,Win32,59.52380952,9,2,5,,,,,,,,2,11,,,,,,,,,,,1,2.33,0,,,,,,-0.381481481,-0.242592593,1,0,0,2.3303,Andesite_rect,4,0,4,0,1,
6615879590e1f7c3dce86f28,SCN,2024-06-24_12h46.58.288,LearnStrategy,2023.2.3,Win32,59.52380952,9,2,6,,,,,,,,2,02,,,,,,,,,,,2,1.439,1,,,,,,-0.106481481,-0.231481481,1,0,0,1.4392,Basalt_rect,5,0,5,0,1,
6615879590e1f7c3dce86f28,SCN,2024-06-24_12h46.58.288,LearnStrategy,2023.2.3,Win32,59.52380952,9,2,7,,,,,,,,8,14,,,,,,,,,,,8,1.276,1,,,,,,0.393518519,-0.390740741,1,0,0,1.2761,Pumice_rect,6,0,6,0,1,
6615879590e1f7c3dce86f28,SCN,2024-06-24_12h46.58.288,LearnStrategy,2023.2.3,Win32,59.52380952,9,2,8,,,,,,,,6,10,,,,,,,,,,,6,4.647,1,,,,,,-0.098148148,-0.396296296,1,0,0,4.6473,Pegmatite_rect,7,0,7,0,1,
6615879590e1f7c3dce86f28,SCN,2024-06-24_12h46.58.288,LearnStrategy,2023.2.3,Win32,59.52380952,9,2,9,,,,,,,,6,08,,,,,,,,,,,6,1.907,1,,,,,,-0.125,-0.396296296,1,0,0,1.9074,Pegmatite_rect,8,0,8,0,1,
6615879590e1f7c3dce86f28,SCN,2024-06-24_12h46.58.288,LearnStrategy,2023.2.3,Win32,59.52380952,9,2,10,,,,,,,,1,01,,,,,,,,,,,3,7.405,0,,,,,,0.156481481,-0.25,1,0,0,7.4051,Diorite_rect,9,0,9,0,1,
6615879590e1f7c3dce86f28,SCN,2024-06-24_12h46.58.288,LearnStrategy,2023.2.3,Win32,59.52380952,9,2,11,,,,,,,,3,10,,,,,,,,,,,1,2.167,0,,,,,,-0.363888889,-0.241666667,1,0,0,2.1669,Andesite_rect,10,0,10,0,1,
6615879590e1f7c3dce86f28,SCN,2024-06-24_12h46.58.288,LearnStrategy,2023.2.3,Win32,59.52380952,9,2,12,,,,,,,,5,14,,,,,,,,,,,5,1.184,1,,,,,,-0.39537037,-0.393518519,1,0,0,1.1836,Obsidian_rect,11,0,11,0,1,
6615879590e1f7c3dce86f28,SCN,2024-06-24_12h46.58.288,LearnStrategy,2023.2.3,Win32,59.52380952,9,2,13,,,,,,,,5,16,,,,,,,,,,,5,2.783,1,,,,,,-0.409259259,-0.4,1,0,0,2.7829,Obsidian_rect,12,0,12,0,1,
6615879590e1f7c3dce86f28,SCN,2024-06-24_12h46.58.288,LearnStrategy,2023.2.3,Win32,59.52380952,9,2,14,,,,,,,,7,10,,,,,,,,,,,3,3.509,0,,,,,,0.176851852,-0.256481481,1,0,0,3.5095,Diorite_rect,13,0,13,0,1,
6615879590e1f7c3dce86f28,SCN,2024-06-24_12h46.58.288,LearnStrategy,2023.2.3,Win32,59.52380952,9,2,15,,,,,,,,4,08,,,,,,,,,,,1,1.58,0,,,,,,-0.4,-0.247222222,1,0,0,1.5804,Andesite_rect,14,0,14,0,1,
6615879590e1f7c3dce86f28,SCN,2024-06-24_12h46.58.288,LearnStrategy,2023.2.3,Win32,59.52380952,9,2,16,,,,,,,,3,15,,,,,,,,,,,4,5.403,0,,,,,,0.428703704,-0.256481481,1,0,0,5.403,Gabbro_rect,15,0,15,0,1,
6615879590e1f7c3dce86f28,SCN,2024-06-24_12h46.58.288,LearnStrategy,2023.2.3,Win32,59.52380952,,,,,,,,,,,,,,,,,,,,,,,,,,,,,,,,,,,,,,,,,,,0
6615879590e1f7c3dce86f28,SCN,2024-06-24_12h46.58.288,LearnStrategy,2023.2.3,Win32,59.52380952,,,,,,,,,,,,,,,,,,,,,,,,,,,,,,,,,,,,,,,,,,,
6615879590e1f7c3dce86f28,SCN,2024-06-24_12h46.58.288,LearnStrategy,2023.2.3,Win32,59.52380952,,,,,,,,,,,6,16,1,1,,,,,,,,,,,,,,,,,,,,,,,,,,,,,
6615879590e1f7c3dce86f28,SCN,2024-06-24_12h46.58.288,LearnStrategy,2023.2.3,Win32,59.52380952,,,,,,,,,,,1,11,1,2,,,,,,,,,,,,,,,,,,,,,,,,,,,,,
6615879590e1f7c3dce86f28,SCN,2024-06-24_12h46.58.288,LearnStrategy,2023.2.3,Win32,59.52380952,,,,,,,,,,,4,15,1,3,,,,,,,,,,,,,,,,,,,,,,,,,,,,,
6615879590e1f7c3dce86f28,SCN,2024-06-24_12h46.58.288,LearnStrategy,2023.2.3,Win32,59.52380952,,,,,,,,,,,2,08,1,4,,,,,,,,,,,,,,,,,,,,,,,,,,,,,
6615879590e1f7c3dce86f28,SCN,2024-06-24_12h46.58.288,LearnStrategy,2023.2.3,Win32,59.52380952,,,,,,,,,,,5,11,1,5,,,,,,,,,,,,,,,,,,,,,,,,,,,,,
6615879590e1f7c3dce86f28,SCN,2024-06-24_12h46.58.288,LearnStrategy,2023.2.3,Win32,59.52380952,,,,,,,,,,,5,05,1,6,,,,,,,,,,,,,,,,,,,,,,,,,,,,,
6615879590e1f7c3dce86f28,SCN,2024-06-24_12h46.58.288,LearnStrategy,2023.2.3,Win32,59.52380952,,,,,,,,,,,2,06,1,7,,,,,,,,,,,,,,,,,,,,,,,,,,,,,
6615879590e1f7c3dce86f28,SCN,2024-06-24_12h46.58.288,LearnStrategy,2023.2.3,Win32,59.52380952,,,,,,,,,,,7,13,1,8,,,,,,,,,,,,,,,,,,,,,,,,,,,,,
6615879590e1f7c3dce86f28,SCN,2024-06-24_12h46.58.288,LearnStrategy,2023.2.3,Win32,59.52380952,,,,,,,,,,,3,02,2,1,,,,,,,,,,,,,,,,,,,,,,,,,,,,,
6615879590e1f7c3dce86f28,SCN,2024-06-24_12h46.58.288,LearnStrategy,2023.2.3,Win32,59.52380952,,,,,,,,,,,1,16,2,2,,,,,,,,,,,,,,,,,,,,,,,,,,,,,
6615879590e1f7c3dce86f28,SCN,2024-06-24_12h46.58.288,LearnStrategy,2023.2.3,Win32,59.52380952,,,,,,,,,,,5,04,2,3,,,,,,,,,,,,,,,,,,,,,,,,,,,,,
6615879590e1f7c3dce86f28,SCN,2024-06-24_12h46.58.288,LearnStrategy,2023.2.3,Win32,59.52380952,,,,,,,,,,,1,14,2,4,,,,,,,,,,,,,,,,,,,,,,,,,,,,,
6615879590e1f7c3dce86f28,SCN,2024-06-24_12h46.58.288,LearnStrategy,2023.2.3,Win32,59.52380952,,,,,,,,,,,2,01,2,5,,,,,,,,,,,,,,,,,,,,,,,,,,,,,
6615879590e1f7c3dce86f28,SCN,2024-06-24_12h46.58.288,LearnStrategy,2023.2.3,Win32,59.52380952,,,,,,,,,,,6,13,2,6,,,,,,,,,,,,,,,,,,,,,,,,,,,,,
6615879590e1f7c3dce86f28,SCN,2024-06-24_12h46.58.288,LearnStrategy,2023.2.3,Win32,59.52380952,,,,,,,,,,,5,02,2,7,,,,,,,,,,,,,,,,,,,,,,,,,,,,,
6615879590e1f7c3dce86f28,SCN,2024-06-24_12h46.58.288,LearnStrategy,2023.2.3,Win32,59.52380952,,,,,,,,,,,7,05,2,8,,,,,,,,,,,,,,,,,,,,,,,,,,,,,
6615879590e1f7c3dce86f28,SCN,2024-06-24_12h46.58.288,LearnStrategy,2023.2.3,Win32,59.52380952,,,,,,,,,,,7,07,3,1,,,,,,,,,,,,,,,,,,,,,,,,,,,,,
6615879590e1f7c3dce86f28,SCN,2024-06-24_12h46.58.288,LearnStrategy,2023.2.3,Win32,59.52380952,,,,,,,,,,,6,11,3,2,,,,,,,,,,,,,,,,,,,,,,,,,,,,,
6615879590e1f7c3dce86f28,SCN,2024-06-24_12h46.58.288,LearnStrategy,2023.2.3,Win32,59.52380952,,,,,,,,,,,5,07,3,3,,,,,,,,,,,,,,,,,,,,,,,,,,,,,
6615879590e1f7c3dce86f28,SCN,2024-06-24_12h46.58.288,LearnStrategy,2023.2.3,Win32,59.52380952,,,,,,,,,,,3,09,3,4,,,,,,,,,,,,,,,,,,,,,,,,,,,,,
6615879590e1f7c3dce86f28,SCN,2024-06-24_12h46.58.288,LearnStrategy,2023.2.3,Win32,59.52380952,,,,,,,,,,,8,13,3,5,,,,,,,,,,,,,,,,,,,,,,,,,,,,,
6615879590e1f7c3dce86f28,SCN,2024-06-24_12h46.58.288,LearnStrategy,2023.2.3,Win32,59.52380952,,,,,,,,,,,5,08,3,6,,,,,,,,,,,,,,,,,,,,,,,,,,,,,
6615879590e1f7c3dce86f28,SCN,2024-06-24_12h46.58.288,LearnStrategy,2023.2.3,Win32,59.52380952,,,,,,,,,,,1,05,3,7,,,,,,,,,,,,,,,,,,,,,,,,,,,,,
6615879590e1f7c3dce86f28,SCN,2024-06-24_12h46.58.288,LearnStrategy,2023.2.3,Win32,59.52380952,,,,,,,,,,,8,04,3,8,,,,,,,,,,,,,,,,,,,,,,,,,,,,,
6615879590e1f7c3dce86f28,SCN,2024-06-24_12h46.58.288,LearnStrategy,2023.2.3,Win32,59.52380952,,,,,,,,,,,2,10,4,1,,,,,,,,,,,,,,,,,,,,,,,,,,,,,
6615879590e1f7c3dce86f28,SCN,2024-06-24_12h46.58.288,LearnStrategy,2023.2.3,Win32,59.52380952,,,,,,,,,,,4,05,4,2,,,,,,,,,,,,,,,,,,,,,,,,,,,,,
6615879590e1f7c3dce86f28,SCN,2024-06-24_12h46.58.288,LearnStrategy,2023.2.3,Win32,59.52380952,,,,,,,,,,,4,09,4,3,,,,,,,,,,,,,,,,,,,,,,,,,,,,,
6615879590e1f7c3dce86f28,SCN,2024-06-24_12h46.58.288,LearnStrategy,2023.2.3,Win32,59.52380952,,,,,,,,,,,3,07,4,4,,,,,,,,,,,,,,,,,,,,,,,,,,,,,
6615879590e1f7c3dce86f28,SCN,2024-06-24_12h46.58.288,LearnStrategy,2023.2.3,Win32,59.52380952,,,,,,,,,,,8,10,4,5,,,,,,,,,,,,,,,,,,,,,,,,,,,,,
6615879590e1f7c3dce86f28,SCN,2024-06-24_12h46.58.288,LearnStrategy,2023.2.3,Win32,59.52380952,,,,,,,,,,,3,16,4,6,,,,,,,,,,,,,,,,,,,,,,,,,,,,,
6615879590e1f7c3dce86f28,SCN,2024-06-24_12h46.58.288,LearnStrategy,2023.2.3,Win32,59.52380952,,,,,,,,,,,7,12,4,7,,,,,,,,,,,,,,,,,,,,,,,,,,,,,
6615879590e1f7c3dce86f28,SCN,2024-06-24_12h46.58.288,LearnStrategy,2023.2.3,Win32,59.52380952,,,,,,,,,,,6,09,4,8,,,,,,,,,,,,,,,,,,,,,,,,,,,,,
6615879590e1f7c3dce86f28,SCN,2024-06-24_12h46.58.288,LearnStrategy,2023.2.3,Win32,59.52380952,,,,,,,,,,,8,08,5,1,,,,,,,,,,,,,,,,,,,,,,,,,,,,,
6615879590e1f7c3dce86f28,SCN,2024-06-24_12h46.58.288,LearnStrategy,2023.2.3,Win32,59.52380952,,,,,,,,,,,1,04,5,2,,,,,,,,,,,,,,,,,,,,,,,,,,,,,
6615879590e1f7c3dce86f28,SCN,2024-06-24_12h46.58.288,LearnStrategy,2023.2.3,Win32,59.52380952,,,,,,,,,,,6,15,5,3,,,,,,,,,,,,,,,,,,,,,,,,,,,,,
6615879590e1f7c3dce86f28,SCN,2024-06-24_12h46.58.288,LearnStrategy,2023.2.3,Win32,59.52380952,,,,,,,,,,,8,15,5,4,,,,,,,,,,,,,,,,,,,,,,,,,,,,,
6615879590e1f7c3dce86f28,SCN,2024-06-24_12h46.58.288,LearnStrategy,2023.2.3,Win32,59.52380952,,,,,,,,,,,2,16,5,5,,,,,,,,,,,,,,,,,,,,,,,,,,,,,
6615879590e1f7c3dce86f28,SCN,2024-06-24_12h46.58.288,LearnStrategy,2023.2.3,Win32,59.52380952,,,,,,,,,,,6,12,5,6,,,,,,,,,,,,,,,,,,,,,,,,,,,,,
6615879590e1f7c3dce86f28,SCN,2024-06-24_12h46.58.288,LearnStrategy,2023.2.3,Win32,59.52380952,,,,,,,,,,,2,04,5,7,,,,,,,,,,,,,,,,,,,,,,,,,,,,,
6615879590e1f7c3dce86f28,SCN,2024-06-24_12h46.58.288,LearnStrategy,2023.2.3,Win32,59.52380952,,,,,,,,,,,4,10,5,8,,,,,,,,,,,,,,,,,,,,,,,,,,,,,
6615879590e1f7c3dce86f28,SCN,2024-06-24_12h46.58.288,LearnStrategy,2023.2.3,Win32,59.52380952,,,,,,,,,,,3,13,6,1,,,,,,,,,,,,,,,,,,,,,,,,,,,,,
6615879590e1f7c3dce86f28,SCN,2024-06-24_12h46.58.288,LearnStrategy,2023.2.3,Win32,59.52380952,,,,,,,,,,,4,11,6,2,,,,,,,,,,,,,,,,,,,,,,,,,,,,,
6615879590e1f7c3dce86f28,SCN,2024-06-24_12h46.58.288,LearnStrategy,2023.2.3,Win32,59.52380952,,,,,,,,,,,3,06,6,3,,,,,,,,,,,,,,,,,,,,,,,,,,,,,
6615879590e1f7c3dce86f28,SCN,2024-06-24_12h46.58.288,LearnStrategy,2023.2.3,Win32,59.52380952,,,,,,,,,,,7,16,6,4,,,,,,,,,,,,,,,,,,,,,,,,,,,,,
6615879590e1f7c3dce86f28,SCN,2024-06-24_12h46.58.288,LearnStrategy,2023.2.3,Win32,59.52380952,,,,,,,,,,,4,03,6,5,,,,,,,,,,,,,,,,,,,,,,,,,,,,,
6615879590e1f7c3dce86f28,SCN,2024-06-24_12h46.58.288,LearnStrategy,2023.2.3,Win32,59.52380952,,,,,,,,,,,7,15,6,6,,,,,,,,,,,,,,,,,,,,,,,,,,,,,
6615879590e1f7c3dce86f28,SCN,2024-06-24_12h46.58.288,LearnStrategy,2023.2.3,Win32,59.52380952,,,,,,,,,,,8,16,6,7,,,,,,,,,,,,,,,,,,,,,,,,,,,,,
6615879590e1f7c3dce86f28,SCN,2024-06-24_12h46.58.288,LearnStrategy,2023.2.3,Win32,59.52380952,,,,,,,,,,,1,07,6,8,,,,,,,,,,,,,,,,,,,,,,,,,,,,,