participant,condition,date,expName,psychopyVersion,OS,frameRate,block,phase,trial,learn_mouse_2.x,learn_mouse_2.y,learn_mouse_2.leftButton,learn_mouse_2.midButton,learn_mouse_2.rightButton,learn_mouse_2.time,learn_mouse_2.clicked_name,cat,token,row,col,t_select,cat_mouse_l.x,cat_mouse_l.y,cat_mouse_l.leftButton,cat_mouse_l.midButton,cat_mouse_l.rightButton,cat_mouse_l.time,cat_mouse_l.clicked_name,resp,t_resp,corr,train_trials.thisRepN,train_trials.thisTrialN,train_trials.thisN,train_trials.thisIndex,train_trials.ran,cat_mouse_t.x,cat_mouse_t.y,cat_mouse_t.leftButton,cat_mouse_t.midButton,cat_mouse_t.rightButton,cat_mouse_t.time,cat_mouse_t.clicked_name,test_trials.thisRepN,test_trials.thisTrialN,test_trials.thisN,test_trials.thisIndex,test_trials.ran,Bonus
6618c0a56c7c4623d98dc146,TCR,2024-06-25_11h01.08.466,LearnStrategy,2023.2.3,Win32,60.24096386,,,,,,,,,,,,,,,,,,,,,,,,,,,,,,,,,,,,,,,,,,,
6618c0a56c7c4623d98dc146,TCR,2024-06-25_11h01.08.466,LearnStrategy,2023.2.3,Win32,60.24096386,1,1,1,0.015740797,-0.006944444,1,0,0,4.8269,rock_grid_rect_2,5,08,-1,-1,4.827,-0.379629601,-0.420370399,1,0,0,2.0237,Obsidian_rect,5,2.024,1,0,0,0,0,1,,,,,,,,,,,,,
6618c0a56c7c4623d98dc146,TCR,2024-06-25_11h01.08.466,LearnStrategy,2023.2.3,Win32,60.24096386,1,1,2,0.011574131,-0.003703732,1,0,0,1.3135,rock_grid_rect_2,3,16,-1,-1,1.314,-0.361574046,-0.238888889,1,0,0,5.6811,Andesite_rect,1,5.681,0,1,0,1,0,1,,,,,,,,,,,,,
6618c0a56c7c4623d98dc146,TCR,2024-06-25_11h01.08.466,LearnStrategy,2023.2.3,Win32,60.24096386,1,1,3,-0.035185157,-0.002314843,1,0,0,0.9125,rock_grid_rect_2,6,12,-1,-1,0.912,0.128703732,-0.238888889,1,0,0,1.9799,Diorite_rect,3,1.98,0,2,0,2,0,1,,,,,,,,,,,,,
6618c0a56c7c4623d98dc146,TCR,2024-06-25_11h01.08.466,LearnStrategy,2023.2.3,Win32,60.24096386,1,1,4,0.060648176,-0.0125,1,0,0,2.1133,rock_grid_rect_2,4,15,-1,-1,2.113,-0.145370314,-0.261111111,1,0,0,4.5394,Basalt_rect,2,4.539,0,3,0,3,0,1,,,,,,,,,,,,,
6618c0a56c7c4623d98dc146,TCR,2024-06-25_11h01.08.466,LearnStrategy,2023.2.3,Win32,60.24096386,1,1,5,0.118518575,-0.001851866,1,0,0,1.6918,rock_grid_rect_2,1,09,-1,-1,1.692,-0.447685157,-0.257407464,1,0,0,1.9541,Andesite_rect,1,1.954,1,4,0,4,0,1,,,,,,,,,,,,,
6618c0a56c7c4623d98dc146,TCR,2024-06-25_11h01.08.466,LearnStrategy,2023.2.3,Win32,60.24096386,1,1,6,-0.027777778,0.005555556,1,0,0,0.9646,rock_grid_rect_2,6,03,-1,-1,0.965,0.11898151,-0.405555556,1,0,0,9.1797,Peridotite_rect,7,9.18,0,5,0,5,0,1,,,,,,,,,,,,,
6618c0a56c7c4623d98dc146,TCR,2024-06-25_11h01.08.466,LearnStrategy,2023.2.3,Win32,60.24096386,1,1,7,0.114814843,-0.001388889,1,0,0,1.0258,rock_grid_rect_2,5,09,-1,-1,1.026,-0.371759245,-0.411574131,1,0,0,3.3606,Obsidian_rect,5,3.361,1,6,0,6,0,1,,,,,,,,,,,,,
6618c0a56c7c4623d98dc146,TCR,2024-06-25_11h01.08.466,LearnStrategy,2023.2.3,Win32,60.24096386,1,1,8,-0.014814758,0.013425912,1,0,0,0.9333,rock_grid_rect_2,8,14,-1,-1,0.933,0.394907464,-0.417129686,1,0,0,2.6864,Pumice_rect,8,2.686,1,7,0,7,0,1,,,,,,,,,,,,,
6618c0a56c7c4623d98dc146,TCR,2024-06-25_11h01.08.466,LearnStrategy,2023.2.3,Win32,60.24096386,1,1,9,-0.029629601,-0.009259288,1,0,0,1.3797,rock_grid_rect_2,2,02,-1,-1,1.38,-0.204629601,-0.245833333,1,0,0,8.4918,Basalt_rect,2,8.492,1,8,0,8,0,1,,,,,,,,,,,,,
6618c0a56c7c4623d98dc146,TCR,2024-06-25_11h01.08.466,LearnStrategy,2023.2.3,Win32,60.24096386,1,1,10,0.076851908,-0.013425954,1,0,0,1.0963,rock_grid_rect_2,4,16,-1,-1,1.096,0.124537065,-0.380555556,1,0,0,12.6938,Peridotite_rect,7,12.694,0,9,0,9,0,1,,,,,,,,,,,,,
6618c0a56c7c4623d98dc146,TCR,2024-06-25_11h01.08.466,LearnStrategy,2023.2.3,Win32,60.24096386,1,1,11,-0.022685157,-0.014814843,1,0,0,1.1793,rock_grid_rect_2,2,12,-1,-1,1.179,0.458333333,-0.411111111,1,0,0,3.437,Pumice_rect,8,3.437,0,10,0,10,0,1,,,,,,,,,,,,,
6618c0a56c7c4623d98dc146,TCR,2024-06-25_11h01.08.466,LearnStrategy,2023.2.3,Win32,60.24096386,1,1,12,0.046296353,-0.014814843,1,0,0,3.064,rock_grid_rect_2,8,10,-1,-1,3.064,0.356018575,-0.391666667,1,0,0,3.7451,Pumice_rect,8,3.745,1,11,0,11,0,1,,,,,,,,,,,,,
6618c0a56c7c4623d98dc146,TCR,2024-06-25_11h01.08.466,LearnStrategy,2023.2.3,Win32,60.24096386,1,1,13,0.115277778,-0.00879631,1,0,0,1.2296,rock_grid_rect_2,1,01,-1,-1,1.23,0.402314843,-0.256018575,1,0,0,7.8555,Gabbro_rect,4,7.856,0,12,0,12,0,1,,,,,,,,,,,,,
6618c0a56c7c4623d98dc146,TCR,2024-06-25_11h01.08.466,LearnStrategy,2023.2.3,Win32,60.24096386,1,1,14,0.096759288,0.021759245,1,0,0,1.4011,rock_grid_rect_2,7,12,-1,-1,1.401,0.105555556,-0.231018575,1,0,0,3.2129,Diorite_rect,3,3.213,0,13,0,13,0,1,,,,,,,,,,,,,
6618c0a56c7c4623d98dc146,TCR,2024-06-25_11h01.08.466,LearnStrategy,2023.2.3,Win32,60.24096386,1,1,15,0.109259288,-0.023611111,1,0,0,1.23,rock_grid_rect_2,3,02,-1,-1,1.23,-0.146759203,-0.392129686,1,0,0,6.7372,Pegmatite_rect,6,6.737,0,14,0,14,0,1,,,,,,,,,,,,,
6618c0a56c7c4623d98dc146,TCR,2024-06-25_11h01.08.466,LearnStrategy,2023.2.3,Win32,60.24096386,1,1,16,0.084722222,-0.014351866,1,0,0,0.9957,rock_grid_rect_2,7,13,-1,-1,0.996,0.323148176,-0.252314843,1,0,0,6.6224,Gabbro_rect,4,6.622,0,15,0,15,0,1,,,,,,,,,,,,,
6618c0a56c7c4623d98dc146,TCR,2024-06-25_11h01.08.466,LearnStrategy,2023.2.3,Win32,60.24096386,1,2,1,,,,,,,,1,16,,,,,,,,,,,1,3.926,1,,,,,,-0.377314801,-0.228703732,1,0,0,3.9258,Andesite_rect,0,0,0,0,1,
6618c0a56c7c4623d98dc146,TCR,2024-06-25_11h01.08.466,LearnStrategy,2023.2.3,Win32,60.24096386,1,2,2,,,,,,,,1,14,,,,,,,,,,,2,6.224,0,,,,,,-0.094444444,-0.239351908,1,0,0,6.2235,Basalt_rect,1,0,1,0,1,
6618c0a56c7c4623d98dc146,TCR,2024-06-25_11h01.08.466,LearnStrategy,2023.2.3,Win32,60.24096386,1,2,3,,,,,,,,6,09,,,,,,,,,,,4,4.092,0,,,,,,0.396296353,-0.243518575,1,0,0,4.0919,Gabbro_rect,2,0,2,0,1,
6618c0a56c7c4623d98dc146,TCR,2024-06-25_11h01.08.466,LearnStrategy,2023.2.3,Win32,60.24096386,1,2,4,,,,,,,,7,16,,,,,,,,,,,7,4.021,1,,,,,,0.156944444,-0.409722222,1,0,0,4.0207,Peridotite_rect,3,0,3,0,1,
6618c0a56c7c4623d98dc146,TCR,2024-06-25_11h01.08.466,LearnStrategy,2023.2.3,Win32,60.24096386,1,2,5,,,,,,,,3,14,,,,,,,,,,,3,5.11,1,,,,,,0.107407464,-0.246759288,1,0,0,5.1102,Diorite_rect,4,0,4,0,1,
6618c0a56c7c4623d98dc146,TCR,2024-06-25_11h01.08.466,LearnStrategy,2023.2.3,Win32,60.24096386,1,2,6,,,,,,,,3,06,,,,,,,,,,,3,3.361,1,,,,,,0.057870399,-0.243518575,1,0,0,3.3609,Diorite_rect,5,0,5,0,1,
6618c0a56c7c4623d98dc146,TCR,2024-06-25_11h01.08.466,LearnStrategy,2023.2.3,Win32,60.24096386,1,2,7,,,,,,,,2,01,,,,,,,,,,,2,24.675,1,,,,,,-0.134259203,-0.234722222,1,0,0,24.6753,Basalt_rect,6,0,6,0,1,
6618c0a56c7c4623d98dc146,TCR,2024-06-25_11h01.08.466,LearnStrategy,2023.2.3,Win32,60.24096386,1,2,8,,,,,,,,5,05,,,,,,,,,,,5,3.226,1,,,,,,-0.352777778,-0.4125,1,0,0,3.226,Obsidian_rect,7,0,7,0,1,
6618c0a56c7c4623d98dc146,TCR,2024-06-25_11h01.08.466,LearnStrategy,2023.2.3,Win32,60.24096386,1,2,9,,,,,,,,7,15,,,,,,,,,,,6,3.361,0,,,,,,-0.045833333,-0.399537065,1,0,0,3.3612,Pegmatite_rect,8,0,8,0,1,
6618c0a56c7c4623d98dc146,TCR,2024-06-25_11h01.08.466,LearnStrategy,2023.2.3,Win32,60.24096386,1,2,10,,,,,,,,5,16,,,,,,,,,,,5,2.752,1,,,,,,-0.362962935,-0.408333333,1,0,0,2.7518,Obsidian_rect,9,0,9,0,1,
6618c0a56c7c4623d98dc146,TCR,2024-06-25_11h01.08.466,LearnStrategy,2023.2.3,Win32,60.24096386,1,2,11,,,,,,,,4,09,,,,,,,,,,,2,4.228,0,,,,,,-0.079629601,-0.243055556,1,0,0,4.2277,Basalt_rect,10,0,10,0,1,
6618c0a56c7c4623d98dc146,TCR,2024-06-25_11h01.08.466,LearnStrategy,2023.2.3,Win32,60.24096386,1,2,12,,,,,,,,8,02,,,,,,,,,,,8,2.211,1,,,,,,0.374074131,-0.420833333,1,0,0,2.2107,Pumice_rect,11,0,11,0,1,
6618c0a56c7c4623d98dc146,TCR,2024-06-25_11h01.08.466,LearnStrategy,2023.2.3,Win32,60.24096386,1,2,13,,,,,,,,6,08,,,,,,,,,,,4,12.447,0,,,,,,0.414814843,-0.255092621,1,0,0,12.4466,Gabbro_rect,12,0,12,0,1,
6618c0a56c7c4623d98dc146,TCR,2024-06-25_11h01.08.466,LearnStrategy,2023.2.3,Win32,60.24096386,1,2,14,,,,,,,,4,10,,,,,,,,,,,3,4.075,0,,,,,,0.148148176,-0.244444444,1,0,0,4.0745,Diorite_rect,13,0,13,0,1,
6618c0a56c7c4623d98dc146,TCR,2024-06-25_11h01.08.466,LearnStrategy,2023.2.3,Win32,60.24096386,1,2,15,,,,,,,,8,08,,,,,,,,,,,1,3.549,0,,,,,,-0.481481467,-0.232870399,1,0,0,3.5494,Andesite_rect,14,0,14,0,1,
6618c0a56c7c4623d98dc146,TCR,2024-06-25_11h01.08.466,LearnStrategy,2023.2.3,Win32,60.24096386,1,2,16,,,,,,,,2,09,,,,,,,,,,,2,2.989,1,,,,,,-0.199537023,-0.261111111,1,0,0,2.9892,Basalt_rect,15,0,15,0,1,
6618c0a56c7c4623d98dc146,TCR,2024-06-25_11h01.08.466,LearnStrategy,2023.2.3,Win32,60.24096386,2,1,1,-0.072685157,0.018055556,1,0,0,6.7992,rock_grid_rect_2,7,05,-1,-1,6.799,0.499537065,-0.257407464,1,0,0,4.7692,Gabbro_rect,4,4.769,0,0,0,0,0,1,,,,,,,,,,,,,
6618c0a56c7c4623d98dc146,TCR,2024-06-25_11h01.08.466,LearnStrategy,2023.2.3,Win32,60.24096386,2,1,2,-0.029629601,-0.02129631,1,0,0,2.2761,rock_grid_rect_2,7,10,-1,-1,2.276,-0.078240712,-0.416203732,1,0,0,23.4179,Pegmatite_rect,6,23.418,0,1,0,1,0,1,,,,,,,,,,,,,
6618c0a56c7c4623d98dc146,TCR,2024-06-25_11h01.08.466,LearnStrategy,2023.2.3,Win32,60.24096386,2,1,3,0.070833333,-0.018055556,1,0,0,2.2106,rock_grid_rect_2,1,05,-1,-1,2.211,-0.353240712,-0.267129686,1,0,0,3.036,Andesite_rect,1,3.036,1,2,0,2,0,1,,,,,,,,,,,,,
6618c0a56c7c4623d98dc146,TCR,2024-06-25_11h01.08.466,LearnStrategy,2023.2.3,Win32,60.24096386,2,1,4,-0.059259203,0.011111111,1,0,0,0.9264,rock_grid_rect_2,1,01,-1,-1,0.926,-0.122222222,-0.232407464,1,0,0,3.2007,Basalt_rect,2,3.201,0,3,0,3,0,1,,,,,,,,,,,,,
6618c0a56c7c4623d98dc146,TCR,2024-06-25_11h01.08.466,LearnStrategy,2023.2.3,Win32,60.24096386,2,1,5,0.04398151,-0.000462977,1,0,0,1.0303,rock_grid_rect_2,8,14,-1,-1,1.03,0.370833333,-0.409259288,1,0,0,1.3247,Pumice_rect,8,1.325,1,4,0,4,0,1,,,,,,,,,,,,,
6618c0a56c7c4623d98dc146,TCR,2024-06-25_11h01.08.466,LearnStrategy,2023.2.3,Win32,60.24096386,2,1,6,0.110185242,0.00601849,1,0,0,0.8637,rock_grid_rect_2,3,13,-1,-1,0.864,0.148611111,-0.260648176,1,0,0,17.008,Diorite_rect,3,17.008,1,5,0,5,0,1,,,,,,,,,,,,,
6618c0a56c7c4623d98dc146,TCR,2024-06-25_11h01.08.466,LearnStrategy,2023.2.3,Win32,60.24096386,2,1,7,0.062037065,-0.014351866,1,0,0,1.0127,rock_grid_rect_2,2,14,-1,-1,1.013,0.344444444,-0.393055556,1,0,0,7.9301,Pumice_rect,8,7.93,0,6,0,6,0,1,,,,,,,,,,,,,
6618c0a56c7c4623d98dc146,TCR,2024-06-25_11h01.08.466,LearnStrategy,2023.2.3,Win32,60.24096386,2,1,8,0.084259288,0.00370369,1,0,0,1.0111,rock_grid_rect_2,6,12,-1,-1,1.011,-0.066203647,-0.381944444,1,0,0,8.6348,Pegmatite_rect,6,8.635,1,7,0,7,0,1,,,,,,,,,,,,,
6618c0a56c7c4623d98dc146,TCR,2024-06-25_11h01.08.466,LearnStrategy,2023.2.3,Win32,60.24096386,2,1,9,0,-0.017592621,1,0,0,0.947,rock_grid_rect_2,4,13,-1,-1,0.947,-0.088425869,-0.240277778,1,0,0,6.1344,Basalt_rect,2,6.134,0,8,0,8,0,1,,,,,,,,,,,,,
6618c0a56c7c4623d98dc146,TCR,2024-06-25_11h01.08.466,LearnStrategy,2023.2.3,Win32,60.24096386,2,1,10,0.09398151,0.012037023,1,0,0,0.8143,rock_grid_rect_2,6,13,-1,-1,0.814,0.083796353,-0.253240797,1,0,0,6.1258,Diorite_rect,3,6.126,0,9,0,9,0,1,,,,,,,,,,,,,
6618c0a56c7c4623d98dc146,TCR,2024-06-25_11h01.08.466,LearnStrategy,2023.2.3,Win32,60.24096386,2,1,11,0.088888889,0.004166667,1,0,0,0.9971,rock_grid_rect_2,4,08,-1,-1,0.997,-0.356944444,-0.260185242,1,0,0,4.5923,Andesite_rect,1,4.592,0,10,0,10,0,1,,,,,,,,,,,,,
6618c0a56c7c4623d98dc146,TCR,2024-06-25_11h01.08.466,LearnStrategy,2023.2.3,Win32,60.24096386,2,1,12,0.060185242,-0.004629644,1,0,0,1.1662,rock_grid_rect_2,8,09,-1,-1,1.166,0.375925954,-0.383333333,1,0,0,1.1756,Pumice_rect,8,1.176,1,11,0,11,0,1,,,,,,,,,,,,,
6618c0a56c7c4623d98dc146,TCR,2024-06-25_11h01.08.466,LearnStrategy,2023.2.3,Win32,60.24096386,2,1,13,-0.015740712,0.004166667,1,0,0,0.9799,rock_grid_rect_2,6,10,-1,-1,0.98,0.158333333,-0.419444444,1,0,0,4.9877,Peridotite_rect,7,4.988,0,12,0,12,0,1,,,,,,,,,,,,,
6618c0a56c7c4623d98dc146,TCR,2024-06-25_11h01.08.466,LearnStrategy,2023.2.3,Win32,60.24096386,2,1,14,0.01898151,0.000462935,1,0,0,0.9601,rock_grid_rect_2,6,16,-1,-1,0.96,0.097222222,-0.406018575,1,0,0,3.5147,Peridotite_rect,7,3.515,0,13,0,13,0,1,,,,,,,,,,,,,
6618c0a56c7c4623d98dc146,TCR,2024-06-25_11h01.08.466,LearnStrategy,2023.2.3,Win32,60.24096386,2,1,15,-0.0625,-0.006944444,1,0,0,2.3785,rock_grid_rect_2,4,03,-1,-1,2.379,-0.360648134,-0.237963019,1,0,0,7.9542,Andesite_rect,1,7.954,0,14,0,14,0,1,,,,,,,,,,,,,
6618c0a56c7c4623d98dc146,TCR,2024-06-25_11h01.08.466,LearnStrategy,2023.2.3,Win32,60.24096386,2,1,16,-0.032407379,0.000462935,1,0,0,0.8334,rock_grid_rect_2,4,08,-1,-1,0.833,0.111111111,-0.258333333,1,0,0,2.7847,Diorite_rect,3,2.785,0,15,0,15,0,1,,,,,,,,,,,,,
6618c0a56c7c4623d98dc146,TCR,2024-06-25_11h01.08.466,LearnStrategy,2023.2.3,Win32,60.24096386,2,2,1,,,,,,,,1,03,,,,,,,,,,,1,3.808,1,,,,,,-0.375925912,-0.256944444,1,0,0,3.8082,Andesite_rect,0,0,0,0,1,
6618c0a56c7c4623d98dc146,TCR,2024-06-25_11h01.08.466,LearnStrategy,2023.2.3,Win32,60.24096386,2,2,2,,,,,,,,4,14,,,,,,,,,,,2,6.325,0,,,,,,-0.057407379,-0.242129686,1,0,0,6.3249,Basalt_rect,1,0,1,0,1,
6618c0a56c7c4623d98dc146,TCR,2024-06-25_11h01.08.466,LearnStrategy,2023.2.3,Win32,60.24096386,2,2,3,,,,,,,,1,06,,,,,,,,,,,1,2.779,1,,,,,,-0.413888889,-0.2625,1,0,0,2.7793,Andesite_rect,2,0,2,0,1,
6618c0a56c7c4623d98dc146,TCR,2024-06-25_11h01.08.466,LearnStrategy,2023.2.3,Win32,60.24096386,2,2,4,,,,,,,,4,01,,,,,,,,,,,4,1.554,1,,,,,,0.404629686,-0.247222222,1,0,0,1.5545,Gabbro_rect,3,0,3,0,1,
6618c0a56c7c4623d98dc146,TCR,2024-06-25_11h01.08.466,LearnStrategy,2023.2.3,Win32,60.24096386,2,2,5,,,,,,,,3,15,,,,,,,,,,,3,4.473,1,,,,,,0.173148176,-0.258333333,1,0,0,4.4733,Diorite_rect,4,0,4,0,1,
6618c0a56c7c4623d98dc146,TCR,2024-06-25_11h01.08.466,LearnStrategy,2023.2.3,Win32,60.24096386,2,2,6,,,,,,,,3,10,,,,,,,,,,,1,2.158,0,,,,,,-0.412037023,-0.258333333,1,0,0,2.1576,Andesite_rect,5,0,5,0,1,
6618c0a56c7c4623d98dc146,TCR,2024-06-25_11h01.08.466,LearnStrategy,2023.2.3,Win32,60.24096386,2,2,7,,,,,,,,2,08,,,,,,,,,,,2,4.327,1,,,,,,-0.126388889,-0.237037065,1,0,0,4.3274,Basalt_rect,6,0,6,0,1,
6618c0a56c7c4623d98dc146,TCR,2024-06-25_11h01.08.466,LearnStrategy,2023.2.3,Win32,60.24096386,2,2,8,,,,,,,,7,07,,,,,,,,,,,7,3.665,1,,,,,,0.088888889,-0.389814843,1,0,0,3.6646,Peridotite_rect,7,0,7,0,1,
6618c0a56c7c4623d98dc146,TCR,2024-06-25_11h01.08.466,LearnStrategy,2023.2.3,Win32,60.24096386,2,2,9,,,,,,,,8,05,,,,,,,,,,,2,4.461,0,,,,,,-0.075925869,-0.259722222,1,0,0,4.4606,Basalt_rect,8,0,8,0,1,
6618c0a56c7c4623d98dc146,TCR,2024-06-25_11h01.08.466,LearnStrategy,2023.2.3,Win32,60.24096386,2,2,10,,,,,,,,5,02,,,,,,,,,,,5,1.46,1,,,,,,-0.388425912,-0.412963019,1,0,0,1.4596,Obsidian_rect,9,0,9,0,1,
6618c0a56c7c4623d98dc146,TCR,2024-06-25_11h01.08.466,LearnStrategy,2023.2.3,Win32,60.24096386,2,2,11,,,,,,,,5,04,,,,,,,,,,,5,1.222,1,,,,,,-0.445370356,-0.406018575,1,0,0,1.2216,Obsidian_rect,10,0,10,0,1,
6618c0a56c7c4623d98dc146,TCR,2024-06-25_11h01.08.466,LearnStrategy,2023.2.3,Win32,60.24096386,2,2,12,,,,,,,,8,13,,,,,,,,,,,3,4.829,0,,,,,,0.171759288,-0.247685242,1,0,0,4.8291,Diorite_rect,11,0,11,0,1,
6618c0a56c7c4623d98dc146,TCR,2024-06-25_11h01.08.466,LearnStrategy,2023.2.3,Win32,60.24096386,2,2,13,,,,,,,,2,16,,,,,,,,,,,4,4.226,0,,,,,,0.399074131,-0.2375,1,0,0,4.2264,Gabbro_rect,12,0,12,0,1,
6618c0a56c7c4623d98dc146,TCR,2024-06-25_11h01.08.466,LearnStrategy,2023.2.3,Win32,60.24096386,2,2,14,,,,,,,,6,06,,,,,,,,,,,6,3.761,1,,,,,,-0.109722222,-0.4125,1,0,0,3.7608,Pegmatite_rect,13,0,13,0,1,
6618c0a56c7c4623d98dc146,TCR,2024-06-25_11h01.08.466,LearnStrategy,2023.2.3,Win32,60.24096386,2,2,15,,,,,,,,6,15,,,,,,,,,,,7,5.162,0,,,,,,0.148148176,-0.414814843,1,0,0,5.1618,Peridotite_rect,14,0,14,0,1,
6618c0a56c7c4623d98dc146,TCR,2024-06-25_11h01.08.466,LearnStrategy,2023.2.3,Win32,60.24096386,2,2,16,,,,,,,,7,02,,,,,,,,,,,4,3.611,0,,,,,,0.399537065,-0.233796353,1,0,0,3.6115,Gabbro_rect,15,0,15,0,1,
6618c0a56c7c4623d98dc146,TCR,2024-06-25_11h01.08.466,LearnStrategy,2023.2.3,Win32,60.24096386,3,1,1,-0.043055556,-0.013425954,1,0,0,3.3951,rock_grid_rect_2,2,05,-1,-1,3.395,0.1375,-0.230092621,1,0,0,8.4286,Diorite_rect,3,8.429,0,0,0,0,0,1,,,,,,,,,,,,,
6618c0a56c7c4623d98dc146,TCR,2024-06-25_11h01.08.466,LearnStrategy,2023.2.3,Win32,60.24096386,3,1,2,0.024537065,-0.024074088,1,0,0,1.1099,rock_grid_rect_2,4,15,-1,-1,1.11,0.409259288,-0.246759288,1,0,0,2.9129,Gabbro_rect,4,2.913,1,1,0,1,0,1,,,,,,,,,,,,,
6618c0a56c7c4623d98dc146,TCR,2024-06-25_11h01.08.466,LearnStrategy,2023.2.3,Win32,60.24096386,3,1,3,-0.056944444,0.013425912,1,0,0,1.2136,rock_grid_rect_2,6,13,-1,-1,1.214,-0.115277778,-0.389351908,1,0,0,2.0188,Pegmatite_rect,6,2.019,1,2,0,2,0,1,,,,,,,,,,,,,
6618c0a56c7c4623d98dc146,TCR,2024-06-25_11h01.08.466,LearnStrategy,2023.2.3,Win32,60.24096386,3,1,4,-0.055092536,-0.010648176,1,0,0,0.8603,rock_grid_rect_2,8,14,-1,-1,0.86,0.400463019,-0.407870399,1,0,0,2.391,Pumice_rect,8,2.391,1,3,0,3,0,1,,,,,,,,,,,,,
6618c0a56c7c4623d98dc146,TCR,2024-06-25_11h01.08.466,LearnStrategy,2023.2.3,Win32,60.24096386,3,1,5,-0.005555556,-0.006018533,1,0,0,0.9138,rock_grid_rect_2,2,06,-1,-1,0.914,-0.413425912,-0.242592621,1,0,0,2.5035,Andesite_rect,1,2.504,0,4,0,4,0,1,,,,,,,,,,,,,
6618c0a56c7c4623d98dc146,TCR,2024-06-25_11h01.08.466,LearnStrategy,2023.2.3,Win32,60.24096386,3,1,6,-0.0125,0.007407379,1,0,0,0.8468,rock_grid_rect_2,3,07,-1,-1,0.847,-0.161574046,-0.4125,1,0,0,3.8227,Pegmatite_rect,6,3.823,0,5,0,5,0,1,,,,,,,,,,,,,
6618c0a56c7c4623d98dc146,TCR,2024-06-25_11h01.08.466,LearnStrategy,2023.2.3,Win32,60.24096386,3,1,7,0.124074131,-0.001388889,1,0,0,1.3295,rock_grid_rect_2,6,16,-1,-1,1.33,0.083333333,-0.2625,1,0,0,9.1141,Diorite_rect,3,9.114,0,6,0,6,0,1,,,,,,,,,,,,,
6618c0a56c7c4623d98dc146,TCR,2024-06-25_11h01.08.466,LearnStrategy,2023.2.3,Win32,60.24096386,3,1,8,0.087037065,-0.021759288,1,0,0,1.0213,rock_grid_rect_2,4,16,-1,-1,1.021,-0.134259203,-0.247685242,1,0,0,5.9089,Basalt_rect,2,5.909,0,7,0,7,0,1,,,,,,,,,,,,,
6618c0a56c7c4623d98dc146,TCR,2024-06-25_11h01.08.466,LearnStrategy,2023.2.3,Win32,60.24096386,3,1,9,0.084722222,-0.007407422,1,0,0,1.0805,rock_grid_rect_2,7,08,-1,-1,1.081,0.160648176,-0.386111111,1,0,0,5.9236,Peridotite_rect,7,5.924,1,8,0,8,0,1,,,,,,,,,,,,,
6618c0a56c7c4623d98dc146,TCR,2024-06-25_11h01.08.466,LearnStrategy,2023.2.3,Win32,60.24096386,3,1,10,0.008333333,-0.005092621,1,0,0,1.0216,rock_grid_rect_2,8,04,-1,-1,1.022,0.426851908,-0.391666667,1,0,0,3.9255,Pumice_rect,8,3.926,1,9,0,9,0,1,,,,,,,,,,,,,
6618c0a56c7c4623d98dc146,TCR,2024-06-25_11h01.08.466,LearnStrategy,2023.2.3,Win32,60.24096386,3,1,11,0.023148176,-0.022222222,1,0,0,0.8128,rock_grid_rect_2,8,03,-1,-1,0.813,0.100925954,-0.243055556,1,0,0,4.0387,Diorite_rect,3,4.039,0,10,0,10,0,1,,,,,,,,,,,,,
6618c0a56c7c4623d98dc146,TCR,2024-06-25_11h01.08.466,LearnStrategy,2023.2.3,Win32,60.24096386,3,1,12,-0.051388889,0.007870356,1,0,0,0.7645,rock_grid_rect_2,4,15,-1,-1,0.764,0.406018575,-0.258796353,1,0,0,5.2425,Gabbro_rect,4,5.242,1,11,0,11,0,1,,,,,,,,,,,,,
6618c0a56c7c4623d98dc146,TCR,2024-06-25_11h01.08.466,LearnStrategy,2023.2.3,Win32,60.24096386,3,1,13,-0.006481425,-0.01898151,1,0,0,1.3428,rock_grid_rect_2,3,12,-1,-1,1.343,0.375463019,-0.247685242,1,0,0,5.4762,Gabbro_rect,4,5.476,0,12,0,12,0,1,,,,,,,,,,,,,
6618c0a56c7c4623d98dc146,TCR,2024-06-25_11h01.08.466,LearnStrategy,2023.2.3,Win32,60.24096386,3,1,14,-0.009722222,0.007870356,1,0,0,0.8461,rock_grid_rect_2,6,03,-1,-1,0.846,0.143518575,-0.414351908,1,0,0,6.9181,Peridotite_rect,7,6.918,0,13,0,13,0,1,,,,,,,,,,,,,
6618c0a56c7c4623d98dc146,TCR,2024-06-25_11h01.08.466,LearnStrategy,2023.2.3,Win32,60.24096386,3,1,15,-0.046759203,0.024537023,1,0,0,1.0123,rock_grid_rect_2,7,08,-1,-1,1.012,0.124074131,-0.406944444,1,0,0,1.7409,Peridotite_rect,7,1.741,1,14,0,14,0,1,,,,,,,,,,,,,
6618c0a56c7c4623d98dc146,TCR,2024-06-25_11h01.08.466,LearnStrategy,2023.2.3,Win32,60.24096386,3,1,16,-0.059722222,0.001851824,1,0,0,0.7129,rock_grid_rect_2,1,02,-1,-1,0.713,0.099074131,-0.238425954,1,0,0,2.9566,Diorite_rect,3,2.957,0,15,0,15,0,1,,,,,,,,,,,,,
6618c0a56c7c4623d98dc146,TCR,2024-06-25_11h01.08.466,LearnStrategy,2023.2.3,Win32,60.24096386,3,2,1,,,,,,,,6,11,,,,,,,,,,,6,5.014,1,,,,,,-0.081481425,-0.4125,1,0,0,5.0145,Pegmatite_rect,0,0,0,0,1,
6618c0a56c7c4623d98dc146,TCR,2024-06-25_11h01.08.466,LearnStrategy,2023.2.3,Win32,60.24096386,3,2,2,,,,,,,,7,14,,,,,,,,,,,1,5.49,0,,,,,,-0.360185157,-0.247685242,1,0,0,5.4905,Andesite_rect,1,0,1,0,1,
6618c0a56c7c4623d98dc146,TCR,2024-06-25_11h01.08.466,LearnStrategy,2023.2.3,Win32,60.24096386,3,2,3,,,,,,,,1,07,,,,,,,,,,,3,3.661,0,,,,,,0.140277778,-0.259259288,1,0,0,3.6606,Diorite_rect,2,0,2,0,1,
6618c0a56c7c4623d98dc146,TCR,2024-06-25_11h01.08.466,LearnStrategy,2023.2.3,Win32,60.24096386,3,2,4,,,,,,,,8,16,,,,,,,,,,,8,2.829,1,,,,,,0.347685242,-0.405555556,1,0,0,2.8288,Pumice_rect,3,0,3,0,1,
6618c0a56c7c4623d98dc146,TCR,2024-06-25_11h01.08.466,LearnStrategy,2023.2.3,Win32,60.24096386,3,2,5,,,,,,,,3,11,,,,,,,,,,,3,2.178,1,,,,,,0.210648176,-0.24398151,1,0,0,2.178,Diorite_rect,4,0,4,0,1,
6618c0a56c7c4623d98dc146,TCR,2024-06-25_11h01.08.466,LearnStrategy,2023.2.3,Win32,60.24096386,3,2,6,,,,,,,,6,05,,,,,,,,,,,4,11.352,0,,,,,,0.386111111,-0.251388889,1,0,0,11.3519,Gabbro_rect,5,0,5,0,1,
6618c0a56c7c4623d98dc146,TCR,2024-06-25_11h01.08.466,LearnStrategy,2023.2.3,Win32,60.24096386,3,2,7,,,,,,,,8,15,,,,,,,,,,,1,2.431,0,,,,,,-0.458796268,-0.258333333,1,0,0,2.4305,Andesite_rect,6,0,6,0,1,
6618c0a56c7c4623d98dc146,TCR,2024-06-25_11h01.08.466,LearnStrategy,2023.2.3,Win32,60.24096386,3,2,8,,,,,,,,2,10,,,,,,,,,,,2,2.322,1,,,,,,-0.165740712,-0.265277778,1,0,0,2.3222,Basalt_rect,7,0,7,0,1,
6618c0a56c7c4623d98dc146,TCR,2024-06-25_11h01.08.466,LearnStrategy,2023.2.3,Win32,60.24096386,3,2,9,,,,,,,,7,04,,,,,,,,,,,7,1.911,1,,,,,,0.181018575,-0.408796353,1,0,0,1.9105,Peridotite_rect,8,0,8,0,1,
6618c0a56c7c4623d98dc146,TCR,2024-06-25_11h01.08.466,LearnStrategy,2023.2.3,Win32,60.24096386,3,2,10,,,,,,,,5,10,,,,,,,,,,,5,1.446,1,,,,,,-0.427777778,-0.399074131,1,0,0,1.4463,Obsidian_rect,9,0,9,0,1,
6618c0a56c7c4623d98dc146,TCR,2024-06-25_11h01.08.466,LearnStrategy,2023.2.3,Win32,60.24096386,3,2,11,,,,,,,,3,08,,,,,,,,,,,7,5.986,0,,,,,,0.079166667,-0.396759288,1,0,0,5.986,Peridotite_rect,10,0,10,0,1,
6618c0a56c7c4623d98dc146,TCR,2024-06-25_11h01.08.466,LearnStrategy,2023.2.3,Win32,60.24096386,3,2,12,,,,,,,,4,11,,,,,,,,,,,2,3.24,0,,,,,,-0.130092536,-0.261574131,1,0,0,3.2397,Basalt_rect,11,0,11,0,1,
6618c0a56c7c4623d98dc146,TCR,2024-06-25_11h01.08.466,LearnStrategy,2023.2.3,Win32,60.24096386,3,2,13,,,,,,,,1,11,,,,,,,,,,,3,2.65,0,,,,,,0.151388889,-0.253703732,1,0,0,2.6497,Diorite_rect,12,0,12,0,1,
6618c0a56c7c4623d98dc146,TCR,2024-06-25_11h01.08.466,LearnStrategy,2023.2.3,Win32,60.24096386,3,2,14,,,,,,,,4,12,,,,,,,,,,,1,3.884,0,,,,,,-0.379166667,-0.264814843,1,0,0,3.8844,Andesite_rect,13,0,13,0,1,
6618c0a56c7c4623d98dc146,TCR,2024-06-25_11h01.08.466,LearnStrategy,2023.2.3,Win32,60.24096386,3,2,15,,,,,,,,5,06,,,,,,,,,,,5,1.417,1,,,,,,-0.384722222,-0.4,1,0,0,1.4166,Obsidian_rect,14,0,14,0,1,
6618c0a56c7c4623d98dc146,TCR,2024-06-25_11h01.08.466,LearnStrategy,2023.2.3,Win32,60.24096386,3,2,16,,,,,,,,2,04,,,,,,,,,,,2,2.374,1,,,,,,-0.190277778,-0.235648176,1,0,0,2.3739,Basalt_rect,15,0,15,0,1,
6618c0a56c7c4623d98dc146,TCR,2024-06-25_11h01.08.466,LearnStrategy,2023.2.3,Win32,60.24096386,4,1,1,0.184259288,-0.006018533,1,0,0,6.348,rock_grid_rect_2,1,02,-1,-1,6.348,0.141666667,-0.230555556,1,0,0,6.7069,Diorite_rect,3,6.707,0,0,0,0,0,1,,,,,,,,,,,,,
6618c0a56c7c4623d98dc146,TCR,2024-06-25_11h01.08.466,LearnStrategy,2023.2.3,Win32,60.24096386,4,1,2,0.088888889,0.000925912,1,0,0,0.9426,rock_grid_rect_2,8,09,-1,-1,0.943,0.406944444,-0.385648176,1,0,0,1.4083,Pumice_rect,8,1.408,1,1,0,1,0,1,,,,,,,,,,,,,
6618c0a56c7c4623d98dc146,TCR,2024-06-25_11h01.08.466,LearnStrategy,2023.2.3,Win32,60.24096386,4,1,3,0.06898151,-0.012037065,1,0,0,1.0941,rock_grid_rect_2,7,05,-1,-1,1.094,0.191666667,-0.399074131,1,0,0,2.0936,Peridotite_rect,7,2.094,1,2,0,2,0,1,,,,,,,,,,,,,
6618c0a56c7c4623d98dc146,TCR,2024-06-25_11h01.08.466,LearnStrategy,2023.2.3,Win32,60.24096386,4,1,4,0.049537065,-0.002777778,1,0,0,2.0129,rock_grid_rect_2,7,12,-1,-1,2.013,0.394907464,-0.256944444,1,0,0,1.6191,Gabbro_rect,4,1.619,0,3,0,3,0,1,,,,,,,,,,,,,
6618c0a56c7c4623d98dc146,TCR,2024-06-25_11h01.08.466,LearnStrategy,2023.2.3,Win32,60.24096386,4,1,5,0.13148151,0.007870356,1,0,0,1.0426,rock_grid_rect_2,8,04,-1,-1,1.043,0.365277778,-0.400925954,1,0,0,1.7086,Pumice_rect,8,1.709,1,4,0,4,0,1,,,,,,,,,,,,,
6618c0a56c7c4623d98dc146,TCR,2024-06-25_11h01.08.466,LearnStrategy,2023.2.3,Win32,60.24096386,4,1,6,0.014351908,-0.015277778,1,0,0,0.7467,rock_grid_rect_2,5,07,-1,-1,0.747,-0.326851824,-0.395370399,1,0,0,1.0926,Obsidian_rect,5,1.093,1,5,0,5,0,1,,,,,,,,,,,,,
6618c0a56c7c4623d98dc146,TCR,2024-06-25_11h01.08.466,LearnStrategy,2023.2.3,Win32,60.24096386,4,1,7,-0.001851824,-0.006018533,1,0,0,0.793,rock_grid_rect_2,6,16,-1,-1,0.793,-0.117129601,-0.387963019,1,0,0,2.2422,Pegmatite_rect,6,2.242,1,6,0,6,0,1,,,,,,,,,,,,,
6618c0a56c7c4623d98dc146,TCR,2024-06-25_11h01.08.466,LearnStrategy,2023.2.3,Win32,60.24096386,4,1,8,0.11898151,-0.016666667,1,0,0,1.3304,rock_grid_rect_2,1,01,-1,-1,1.33,-0.069907379,-0.236111111,1,0,0,2.4499,Basalt_rect,2,2.45,0,7,0,7,0,1,,,,,,,,,,,,,
6618c0a56c7c4623d98dc146,TCR,2024-06-25_11h01.08.466,LearnStrategy,2023.2.3,Win32,60.24096386,4,1,9,0.043518575,-0.012037065,1,0,0,0.9112,rock_grid_rect_2,3,07,-1,-1,0.911,0.167592621,-0.256018575,1,0,0,3.1216,Diorite_rect,3,3.122,1,8,0,8,0,1,,,,,,,,,,,,,
6618c0a56c7c4623d98dc146,TCR,2024-06-25_11h01.08.466,LearnStrategy,2023.2.3,Win32,60.24096386,4,1,10,0.076851908,0.001851824,1,0,0,1.2462,rock_grid_rect_2,1,05,-1,-1,1.246,-0.35601849,-0.262963019,1,0,0,1.7725,Andesite_rect,1,1.773,1,9,0,9,0,1,,,,,,,,,,,,,
6618c0a56c7c4623d98dc146,TCR,2024-06-25_11h01.08.466,LearnStrategy,2023.2.3,Win32,60.24096386,4,1,11,0.040277778,-0.00648151,1,0,0,0.9154,rock_grid_rect_2,3,02,-1,-1,0.915,0.422685242,-0.230555556,1,0,0,3.4221,Gabbro_rect,4,3.422,0,10,0,10,0,1,,,,,,,,,,,,,
6618c0a56c7c4623d98dc146,TCR,2024-06-25_11h01.08.466,LearnStrategy,2023.2.3,Win32,60.24096386,4,1,12,0.058333333,-0.011111111,1,0,0,1.1312,rock_grid_rect_2,4,05,-1,-1,1.131,-0.454629601,-0.251388889,1,0,0,7.4425,Andesite_rect,1,7.443,0,11,0,11,0,1,,,,,,,,,,,,,
6618c0a56c7c4623d98dc146,TCR,2024-06-25_11h01.08.466,LearnStrategy,2023.2.3,Win32,60.24096386,4,1,13,-0.002777778,-0.011111111,1,0,0,3.0251,rock_grid_rect_2,4,16,-1,-1,3.025,-0.098148092,-0.255092621,1,0,0,2.7084,Basalt_rect,2,2.708,0,12,0,12,0,1,,,,,,,,,,,,,
6618c0a56c7c4623d98dc146,TCR,2024-06-25_11h01.08.466,LearnStrategy,2023.2.3,Win32,60.24096386,4,1,14,0.060185242,-0.022685199,1,0,0,0.8129,rock_grid_rect_2,4,05,-1,-1,0.813,0.387963019,-0.266666667,1,0,0,5.8935,Gabbro_rect,4,5.893,1,13,0,13,0,1,,,,,,,,,,,,,
6618c0a56c7c4623d98dc146,TCR,2024-06-25_11h01.08.466,LearnStrategy,2023.2.3,Win32,60.24096386,4,1,15,-0.033333333,-0.011111111,1,0,0,0.7258,rock_grid_rect_2,2,02,-1,-1,0.726,-0.35601849,-0.234259288,1,0,0,1.3594,Andesite_rect,1,1.359,0,14,0,14,0,1,,,,,,,,,,,,,
6618c0a56c7c4623d98dc146,TCR,2024-06-25_11h01.08.466,LearnStrategy,2023.2.3,Win32,60.24096386,4,1,16,0.015740797,-0.003703732,1,0,0,0.8631,rock_grid_rect_2,6,10,-1,-1,0.863,-0.111574046,-0.411574131,1,0,0,1.8052,Pegmatite_rect,6,1.805,1,15,0,15,0,1,,,,,,,,,,,,,
6618c0a56c7c4623d98dc146,TCR,2024-06-25_11h01.08.466,LearnStrategy,2023.2.3,Win32,60.24096386,4,2,1,,,,,,,,3,11,,,,,,,,,,,1,5.375,0,,,,,,-0.355092578,-0.249537065,1,0,0,5.3748,Andesite_rect,0,0,0,0,1,
6618c0a56c7c4623d98dc146,TCR,2024-06-25_11h01.08.466,LearnStrategy,2023.2.3,Win32,60.24096386,4,2,2,,,,,,,,2,04,,,,,,,,,,,2,1.985,1,,,,,,-0.083796268,-0.240277778,1,0,0,1.9851,Basalt_rect,1,0,1,0,1,
6618c0a56c7c4623d98dc146,TCR,2024-06-25_11h01.08.466,LearnStrategy,2023.2.3,Win32,60.24096386,4,2,3,,,,,,,,1,14,,,,,,,,,,,6,3.215,0,,,,,,-0.070833333,-0.407407464,1,0,0,3.2153,Pegmatite_rect,2,0,2,0,1,
6618c0a56c7c4623d98dc146,TCR,2024-06-25_11h01.08.466,LearnStrategy,2023.2.3,Win32,60.24096386,4,2,4,,,,,,,,5,06,,,,,,,,,,,5,1.62,1,,,,,,-0.396759245,-0.389814843,1,0,0,1.6205,Obsidian_rect,3,0,3,0,1,
6618c0a56c7c4623d98dc146,TCR,2024-06-25_11h01.08.466,LearnStrategy,2023.2.3,Win32,60.24096386,4,2,5,,,,,,,,3,08,,,,,,,,,,,7,3.99,0,,,,,,0.112963019,-0.39398151,1,0,0,3.9898,Peridotite_rect,4,0,4,0,1,
6618c0a56c7c4623d98dc146,TCR,2024-06-25_11h01.08.466,LearnStrategy,2023.2.3,Win32,60.24096386,4,2,6,,,,,,,,8,08,,,,,,,,,,,1,3.601,0,,,,,,-0.399537023,-0.268055556,1,0,0,3.6007,Andesite_rect,5,0,5,0,1,
6618c0a56c7c4623d98dc146,TCR,2024-06-25_11h01.08.466,LearnStrategy,2023.2.3,Win32,60.24096386,4,2,7,,,,,,,,6,15,,,,,,,,,,,6,2.087,1,,,,,,-0.149536981,-0.390740797,1,0,0,2.0866,Pegmatite_rect,6,0,6,0,1,
6618c0a56c7c4623d98dc146,TCR,2024-06-25_11h01.08.466,LearnStrategy,2023.2.3,Win32,60.24096386,4,2,8,,,,,,,,7,02,,,,,,,,,,,7,1.493,1,,,,,,0.127777778,-0.403703732,1,0,0,1.4927,Peridotite_rect,7,0,7,0,1,
6618c0a56c7c4623d98dc146,TCR,2024-06-25_11h01.08.466,LearnStrategy,2023.2.3,Win32,60.24096386,4,2,9,,,,,,,,5,02,,,,,,,,,,,5,1.117,1,,,,,,-0.430092578,-0.410648176,1,0,0,1.1168,Obsidian_rect,8,0,8,0,1,
6618c0a56c7c4623d98dc146,TCR,2024-06-25_11h01.08.466,LearnStrategy,2023.2.3,Win32,60.24096386,4,2,10,,,,,,,,6,08,,,,,,,,,,,6,1.348,1,,,,,,-0.134722222,-0.409722222,1,0,0,1.3481,Pegmatite_rect,9,0,9,0,1,
6618c0a56c7c4623d98dc146,TCR,2024-06-25_11h01.08.466,LearnStrategy,2023.2.3,Win32,60.24096386,4,2,11,,,,,,,,1,06,,,,,,,,,,,1,3.652,1,,,,,,-0.404629601,-0.2625,1,0,0,3.6518,Andesite_rect,10,0,10,0,1,
6618c0a56c7c4623d98dc146,TCR,2024-06-25_11h01.08.466,LearnStrategy,2023.2.3,Win32,60.24096386,4,2,12,,,,,,,,7,07,,,,,,,,,,,7,1.844,1,,,,,,0.133333333,-0.38148151,1,0,0,1.8441,Peridotite_rect,11,0,11,0,1,
6618c0a56c7c4623d98dc146,TCR,2024-06-25_11h01.08.466,LearnStrategy,2023.2.3,Win32,60.24096386,4,2,13,,,,,,,,4,14,,,,,,,,,,,3,2.395,0,,,,,,0.120833333,-0.253703732,1,0,0,2.3953,Diorite_rect,12,0,12,0,1,
6618c0a56c7c4623d98dc146,TCR,2024-06-25_11h01.08.466,LearnStrategy,2023.2.3,Win32,60.24096386,4,2,14,,,,,,,,4,11,,,,,,,,,,,1,1.658,0,,,,,,-0.348148134,-0.263888889,1,0,0,1.6584,Andesite_rect,13,0,13,0,1,
6618c0a56c7c4623d98dc146,TCR,2024-06-25_11h01.08.466,LearnStrategy,2023.2.3,Win32,60.24096386,4,2,15,,,,,,,,8,02,,,,,,,,,,,8,1.305,1,,,,,,0.426851908,-0.396296353,1,0,0,1.3047,Pumice_rect,14,0,14,0,1,
6618c0a56c7c4623d98dc146,TCR,2024-06-25_11h01.08.466,LearnStrategy,2023.2.3,Win32,60.24096386,4,2,16,,,,,,,,2,10,,,,,,,,,,,2,1.869,1,,,,,,-0.180092578,-0.244907464,1,0,0,1.8692,Basalt_rect,15,0,15,0,1,
6618c0a56c7c4623d98dc146,TCR,2024-06-25_11h01.08.466,LearnStrategy,2023.2.3,Win32,60.24096386,5,1,1,0.059259288,0.00601849,1,0,0,1.9457,rock_grid_rect_2,4,08,-1,-1,1.946,0.109259288,-0.249537065,1,0,0,14.41,Diorite_rect,3,14.41,0,0,0,0,0,1,,,,,,,,,,,,,
6618c0a56c7c4623d98dc146,TCR,2024-06-25_11h01.08.466,LearnStrategy,2023.2.3,Win32,60.24096386,5,1,2,-0.003240712,-0.001851866,1,0,0,0.8483,rock_grid_rect_2,7,08,-1,-1,0.848,0.149074131,-0.388425954,1,0,0,1.3787,Peridotite_rect,7,1.379,1,1,0,1,0,1,,,,,,,,,,,,,
6618c0a56c7c4623d98dc146,TCR,2024-06-25_11h01.08.466,LearnStrategy,2023.2.3,Win32,60.24096386,5,1,3,-0.033796268,0.014814801,1,0,0,0.9304,rock_grid_rect_2,8,06,-1,-1,0.93,0.373611111,-0.420370399,1,0,0,1.4753,Pumice_rect,8,1.475,1,2,0,2,0,1,,,,,,,,,,,,,
6618c0a56c7c4623d98dc146,TCR,2024-06-25_11h01.08.466,LearnStrategy,2023.2.3,Win32,60.24096386,5,1,4,0.082870399,-0.007407422,1,0,0,0.8132,rock_grid_rect_2,6,16,-1,-1,0.813,-0.110648092,-0.412037065,1,0,0,1.9094,Pegmatite_rect,6,1.909,1,3,0,3,0,1,,,,,,,,,,,,,
6618c0a56c7c4623d98dc146,TCR,2024-06-25_11h01.08.466,LearnStrategy,2023.2.3,Win32,60.24096386,5,1,5,0.019444444,-0.012962977,1,0,0,0.7314,rock_grid_rect_2,1,04,-1,-1,0.731,-0.307407379,-0.241666667,1,0,0,2.8779,Andesite_rect,1,2.878,1,4,0,4,0,1,,,,,,,,,,,,,
6618c0a56c7c4623d98dc146,TCR,2024-06-25_11h01.08.466,LearnStrategy,2023.2.3,Win32,60.24096386,5,1,6,0.044907464,-0.015277778,1,0,0,0.8308,rock_grid_rect_2,4,15,-1,-1,0.831,0.148611111,-0.262037065,1,0,0,2.6503,Diorite_rect,3,2.65,0,5,0,5,0,1,,,,,,,,,,,,,
6618c0a56c7c4623d98dc146,TCR,2024-06-25_11h01.08.466,LearnStrategy,2023.2.3,Win32,60.24096386,5,1,7,-0.042592536,0.01620369,1,0,0,1.0126,rock_grid_rect_2,1,04,-1,-1,1.013,0.138425954,-0.254166667,1,0,0,2.5065,Diorite_rect,3,2.507,0,6,0,6,0,1,,,,,,,,,,,,,
6618c0a56c7c4623d98dc146,TCR,2024-06-25_11h01.08.466,LearnStrategy,2023.2.3,Win32,60.24096386,5,1,8,-0.041666667,-0.01898151,1,0,0,0.9604,rock_grid_rect_2,3,13,-1,-1,0.96,0.0875,-0.3875,1,0,0,1.5416,Peridotite_rect,7,1.542,0,7,0,7,0,1,,,,,,,,,,,,,
6618c0a56c7c4623d98dc146,TCR,2024-06-25_11h01.08.466,LearnStrategy,2023.2.3,Win32,60.24096386,5,1,9,0.050463019,0.018981467,1,0,0,0.9322,rock_grid_rect_2,3,12,-1,-1,0.932,0.422685242,-0.260648176,1,0,0,4.1188,Gabbro_rect,4,4.119,0,8,0,8,0,1,,,,,,,,,,,,,
6618c0a56c7c4623d98dc146,TCR,2024-06-25_11h01.08.466,LearnStrategy,2023.2.3,Win32,60.24096386,5,1,10,0.056018575,-0.006018533,1,0,0,0.9,rock_grid_rect_2,4,03,-1,-1,0.9,-0.076851824,-0.245370399,1,0,0,2.5645,Basalt_rect,2,2.565,0,9,0,9,0,1,,,,,,,,,,,,,
6618c0a56c7c4623d98dc146,TCR,2024-06-25_11h01.08.466,LearnStrategy,2023.2.3,Win32,60.24096386,5,1,11,0.046759288,-0.014814843,1,0,0,0.8299,rock_grid_rect_2,1,02,-1,-1,0.83,-0.385185157,-0.257407464,1,0,0,5.1934,Andesite_rect,1,5.193,1,10,0,10,0,1,,,,,,,,,,,,,
6618c0a56c7c4623d98dc146,TCR,2024-06-25_11h01.08.466,LearnStrategy,2023.2.3,Win32,60.24096386,5,1,12,-0.062962935,0.019907379,1,0,0,0.7283,rock_grid_rect_2,2,14,-1,-1,0.728,-0.058796268,-0.246296353,1,0,0,2.948,Basalt_rect,2,2.948,1,11,0,11,0,1,,,,,,,,,,,,,
6618c0a56c7c4623d98dc146,TCR,2024-06-25_11h01.08.466,LearnStrategy,2023.2.3,Win32,60.24096386,5,1,13,0.013888889,-0.0125,1,0,0,0.762,rock_grid_rect_2,3,16,-1,-1,0.762,0.063425954,-0.2375,1,0,0,2.8206,Diorite_rect,3,2.821,1,12,0,12,0,1,,,,,,,,,,,,,
6618c0a56c7c4623d98dc146,TCR,2024-06-25_11h01.08.466,LearnStrategy,2023.2.3,Win32,60.24096386,5,1,14,0.014814843,0.013888889,1,0,0,0.9928,rock_grid_rect_2,8,03,-1,-1,0.993,0.391666667,-0.249074131,1,0,0,4.3415,Gabbro_rect,4,4.341,0,13,0,13,0,1,,,,,,,,,,,,,
6618c0a56c7c4623d98dc146,TCR,2024-06-25_11h01.08.466,LearnStrategy,2023.2.3,Win32,60.24096386,5,1,15,0.094444444,-0.016666667,1,0,0,1.064,rock_grid_rect_2,6,10,-1,-1,1.064,-0.057870314,-0.392129686,1,0,0,1.4052,Pegmatite_rect,6,1.405,1,14,0,14,0,1,,,,,,,,,,,,,
6618c0a56c7c4623d98dc146,TCR,2024-06-25_11h01.08.466,LearnStrategy,2023.2.3,Win32,60.24096386,5,1,16,0.018055556,0.014351824,1,0,0,0.9141,rock_grid_rect_2,4,08,-1,-1,0.914,-0.077777778,-0.249537065,1,0,0,2.9318,Basalt_rect,2,2.932,0,15,0,15,0,1,,,,,,,,,,,,,
6618c0a56c7c4623d98dc146,TCR,2024-06-25_11h01.08.466,LearnStrategy,2023.2.3,Win32,60.24096386,5,2,1,,,,,,,,6,11,,,,,,,,,,,6,2.113,1,,,,,,-0.1125,-0.399537065,1,0,0,2.1127,Pegmatite_rect,0,0,0,0,1,
6618c0a56c7c4623d98dc146,TCR,2024-06-25_11h01.08.466,LearnStrategy,2023.2.3,Win32,60.24096386,5,2,2,,,,,,,,1,16,,,,,,,,,,,4,3.169,0,,,,,,0.366203732,-0.257407464,1,0,0,3.1688,Gabbro_rect,1,0,1,0,1,
6618c0a56c7c4623d98dc146,TCR,2024-06-25_11h01.08.466,LearnStrategy,2023.2.3,Win32,60.24096386,5,2,3,,,,,,,,5,10,,,,,,,,,,,5,1.46,1,,,,,,-0.474537023,-0.418055556,1,0,0,1.4604,Obsidian_rect,2,0,2,0,1,
6618c0a56c7c4623d98dc146,TCR,2024-06-25_11h01.08.466,LearnStrategy,2023.2.3,Win32,60.24096386,5,2,4,,,,,,,,5,04,,,,,,,,,,,5,1.021,1,,,,,,-0.461111111,-0.412037065,1,0,0,1.0209,Obsidian_rect,3,0,3,0,1,
6618c0a56c7c4623d98dc146,TCR,2024-06-25_11h01.08.466,LearnStrategy,2023.2.3,Win32,60.24096386,5,2,5,,,,,,,,4,09,,,,,,,,,,,4,4.982,1,,,,,,0.367129686,-0.243518575,1,0,0,4.9821,Gabbro_rect,4,0,4,0,1,
6618c0a56c7c4623d98dc146,TCR,2024-06-25_11h01.08.466,LearnStrategy,2023.2.3,Win32,60.24096386,5,2,6,,,,,,,,2,01,,,,,,,,,,,2,5.458,1,,,,,,-0.145370314,-0.242592621,1,0,0,5.4576,Basalt_rect,5,0,5,0,1,
6618c0a56c7c4623d98dc146,TCR,2024-06-25_11h01.08.466,LearnStrategy,2023.2.3,Win32,60.24096386,5,2,7,,,,,,,,3,06,,,,,,,,,,,3,8.872,1,,,,,,0.134259288,-0.237037065,1,0,0,8.8722,Diorite_rect,6,0,6,0,1,
6618c0a56c7c4623d98dc146,TCR,2024-06-25_11h01.08.466,LearnStrategy,2023.2.3,Win32,60.24096386,5,2,8,,,,,,,,8,15,,,,,,,,,,,8,5.475,1,,,,,,0.364814843,-0.411111111,1,0,0,5.4753,Pumice_rect,7,0,7,0,1,
6618c0a56c7c4623d98dc146,TCR,2024-06-25_11h01.08.466,LearnStrategy,2023.2.3,Win32,60.24096386,5,2,9,,,,,,,,6,09,,,,,,,,,,,6,2.038,1,,,,,,-0.153703647,-0.407407464,1,0,0,2.038,Pegmatite_rect,8,0,8,0,1,
6618c0a56c7c4623d98dc146,TCR,2024-06-25_11h01.08.466,LearnStrategy,2023.2.3,Win32,60.24096386,5,2,10,,,,,,,,2,09,,,,,,,,,,,1,2.158,0,,,,,,-0.364814801,-0.265740797,1,0,0,2.1576,Andesite_rect,9,0,9,0,1,
6618c0a56c7c4623d98dc146,TCR,2024-06-25_11h01.08.466,LearnStrategy,2023.2.3,Win32,60.24096386,5,2,11,,,,,,,,7,15,,,,,,,,,,,7,1.196,1,,,,,,0.186111111,-0.415740797,1,0,0,1.1956,Peridotite_rect,10,0,10,0,1,
6618c0a56c7c4623d98dc146,TCR,2024-06-25_11h01.08.466,LearnStrategy,2023.2.3,Win32,60.24096386,5,2,12,,,,,,,,3,10,,,,,,,,,,,3,4.748,1,,,,,,0.111111111,-0.2625,1,0,0,4.7481,Diorite_rect,11,0,11,0,1,
6618c0a56c7c4623d98dc146,TCR,2024-06-25_11h01.08.466,LearnStrategy,2023.2.3,Win32,60.24096386,5,2,13,,,,,,,,1,11,,,,,,,,,,,1,3.538,1,,,,,,-0.357407379,-0.248148176,1,0,0,3.5381,Andesite_rect,12,0,12,0,1,
6618c0a56c7c4623d98dc146,TCR,2024-06-25_11h01.08.466,LearnStrategy,2023.2.3,Win32,60.24096386,5,2,14,,,,,,,,8,05,,,,,,,,,,,8,1.443,1,,,,,,0.427314843,-0.406944444,1,0,0,1.4434,Pumice_rect,13,0,13,0,1,
6618c0a56c7c4623d98dc146,TCR,2024-06-25_11h01.08.466,LearnStrategy,2023.2.3,Win32,60.24096386,5,2,15,,,,,,,,7,16,,,,,,,,,,,7,2.008,1,,,,,,0.149074131,-0.390277778,1,0,0,2.008,Peridotite_rect,14,0,14,0,1,
6618c0a56c7c4623d98dc146,TCR,2024-06-25_11h01.08.466,LearnStrategy,2023.2.3,Win32,60.24096386,5,2,16,,,,,,,,4,12,,,,,,,,,,,4,6.561,1,,,,,,0.374537065,-0.249074131,1,0,0,6.5611,Gabbro_rect,15,0,15,0,1,
6618c0a56c7c4623d98dc146,TCR,2024-06-25_11h01.08.466,LearnStrategy,2023.2.3,Win32,60.24096386,6,1,1,0.014814843,0.002314801,1,0,0,7.445,rock_grid_rect_2,1,04,-1,-1,7.445,0.323148176,-0.260185242,1,0,0,13.6398,Gabbro_rect,4,13.64,0,0,0,0,0,1,,,,,,,,,,,,,
6618c0a56c7c4623d98dc146,TCR,2024-06-25_11h01.08.466,LearnStrategy,2023.2.3,Win32,60.24096386,6,1,2,0.104166667,0.012962935,1,0,0,0.9959,rock_grid_rect_2,7,12,-1,-1,0.996,0.074537065,-0.386574131,1,0,0,4.2761,Peridotite_rect,7,4.276,1,1,0,1,0,1,,,,,,,,,,,,,
6618c0a56c7c4623d98dc146,TCR,2024-06-25_11h01.08.466,LearnStrategy,2023.2.3,Win32,60.24096386,6,1,3,0.168055556,0.012037023,1,0,0,0.6813,rock_grid_rect_2,4,15,-1,-1,0.681,0.109259288,-0.252314843,1,0,0,3.9945,Diorite_rect,3,3.994,0,2,0,2,0,1,,,,,,,,,,,,,
6618c0a56c7c4623d98dc146,TCR,2024-06-25_11h01.08.466,LearnStrategy,2023.2.3,Win32,60.24096386,6,1,4,0.031944444,-0.016666667,1,0,0,0.7297,rock_grid_rect_2,8,09,-1,-1,0.73,0.378240797,-0.420833333,1,0,0,1.1256,Pumice_rect,8,1.126,1,3,0,3,0,1,,,,,,,,,,,,,
6618c0a56c7c4623d98dc146,TCR,2024-06-25_11h01.08.466,LearnStrategy,2023.2.3,Win32,60.24096386,6,1,5,0.004166667,-0.023611111,1,0,0,1.03,rock_grid_rect_2,2,12,-1,-1,1.03,-0.32870369,-0.241666667,1,0,0,3.9427,Andesite_rect,1,3.943,0,4,0,4,0,1,,,,,,,,,,,,,
6618c0a56c7c4623d98dc146,TCR,2024-06-25_11h01.08.466,LearnStrategy,2023.2.3,Win32,60.24096386,6,1,6,0.010185242,0.006481467,1,0,0,0.8448,rock_grid_rect_2,6,16,-1,-1,0.845,-0.097222222,-0.402777778,1,0,0,1.4422,Pegmatite_rect,6,1.442,1,5,0,5,0,1,,,,,,,,,,,,,
6618c0a56c7c4623d98dc146,TCR,2024-06-25_11h01.08.466,LearnStrategy,2023.2.3,Win32,60.24096386,6,1,7,-0.010185157,0.004629601,1,0,0,0.9134,rock_grid_rect_2,1,05,-1,-1,0.913,0.086111111,-0.252314843,1,0,0,3.1593,Diorite_rect,3,3.159,0,6,0,6,0,1,,,,,,,,,,,,,
6618c0a56c7c4623d98dc146,TCR,2024-06-25_11h01.08.466,LearnStrategy,2023.2.3,Win32,60.24096386,6,1,8,0.084722222,-0.013425954,1,0,0,1.0126,rock_grid_rect_2,6,03,-1,-1,1.013,-0.10601849,-0.388888889,1,0,0,1.2678,Pegmatite_rect,6,1.268,1,7,0,7,0,1,,,,,,,,,,,,,
6618c0a56c7c4623d98dc146,TCR,2024-06-25_11h01.08.466,LearnStrategy,2023.2.3,Win32,60.24096386,6,1,9,0.046296353,0.017129601,1,0,0,0.9845,rock_grid_rect_2,5,11,-1,-1,0.985,-0.35370369,-0.39398151,1,0,0,1.0279,Obsidian_rect,5,1.028,1,8,0,8,0,1,,,,,,,,,,,,,
6618c0a56c7c4623d98dc146,TCR,2024-06-25_11h01.08.466,LearnStrategy,2023.2.3,Win32,60.24096386,6,1,10,0.116203732,-0.008333333,1,0,0,0.615,rock_grid_rect_2,3,02,-1,-1,0.615,0.442592621,-0.266666667,1,0,0,8.5134,Gabbro_rect,4,8.513,0,9,0,9,0,1,,,,,,,,,,,,,
6618c0a56c7c4623d98dc146,TCR,2024-06-25_11h01.08.466,LearnStrategy,2023.2.3,Win32,60.24096386,6,1,11,0.15,0.008333333,1,0,0,1.4318,rock_grid_rect_2,1,10,-1,-1,1.432,-0.345833333,-0.252777778,1,0,0,3.222,Andesite_rect,1,3.222,1,10,0,10,0,1,,,,,,,,,,,,,
6618c0a56c7c4623d98dc146,TCR,2024-06-25_11h01.08.466,LearnStrategy,2023.2.3,Win32,60.24096386,6,1,12,0.013888889,-0.00879631,1,0,0,0.6477,rock_grid_rect_2,4,15,-1,-1,0.648,0.39398151,-0.240740797,1,0,0,2.4546,Gabbro_rect,4,2.455,1,11,0,11,0,1,,,,,,,,,,,,,
6618c0a56c7c4623d98dc146,TCR,2024-06-25_11h01.08.466,LearnStrategy,2023.2.3,Win32,60.24096386,6,1,13,-0.028240712,-0.024537065,1,0,0,0.78,rock_grid_rect_2,3,12,-1,-1,0.78,0.186111111,-0.23148151,1,0,0,2.876,Diorite_rect,3,2.876,1,12,0,12,0,1,,,,,,,,,,,,,
6618c0a56c7c4623d98dc146,TCR,2024-06-25_11h01.08.466,LearnStrategy,2023.2.3,Win32,60.24096386,6,1,14,0.032407464,-0.003240755,1,0,0,0.5809,rock_grid_rect_2,2,02,-1,-1,0.581,-0.329629601,-0.241203732,1,0,0,1.1937,Andesite_rect,1,1.194,0,13,0,13,0,1,,,,,,,,,,,,,
6618c0a56c7c4623d98dc146,TCR,2024-06-25_11h01.08.466,LearnStrategy,2023.2.3,Win32,60.24096386,6,1,15,0.01898151,-0.003703732,1,0,0,0.7447,rock_grid_rect_2,4,03,-1,-1,0.745,0.36898151,-0.247685242,1,0,0,2.3698,Gabbro_rect,4,2.37,1,14,0,14,0,1,,,,,,,,,,,,,
6618c0a56c7c4623d98dc146,TCR,2024-06-25_11h01.08.466,LearnStrategy,2023.2.3,Win32,60.24096386,6,1,16,-0.001388889,-0.015740755,1,0,0,0.8934,rock_grid_rect_2,8,09,-1,-1,0.893,0.352777778,-0.390277778,1,0,0,1.4695,Pumice_rect,8,1.469,1,15,0,15,0,1,,,,,,,,,,,,,
6618c0a56c7c4623d98dc146,TCR,2024-06-25_11h01.08.466,LearnStrategy,2023.2.3,Win32,60.24096386,6,2,1,,,,,,,,2,08,,,,,,,,,,,2,9.22,1,,,,,,-0.080555556,-0.252314843,1,0,0,9.2195,Basalt_rect,0,0,0,0,1,
6618c0a56c7c4623d98dc146,TCR,2024-06-25_11h01.08.466,LearnStrategy,2023.2.3,Win32,60.24096386,6,2,2,,,,,,,,2,16,,,,,,,,,,,1,5.333,0,,,,,,-0.390277778,-0.254166667,1,0,0,5.3332,Andesite_rect,1,0,1,0,1,
6618c0a56c7c4623d98dc146,TCR,2024-06-25_11h01.08.466,LearnStrategy,2023.2.3,Win32,60.24096386,6,2,3,,,,,,,,1,07,,,,,,,,,,,3,5.333,0,,,,,,0.114814843,-0.264351908,1,0,0,5.3331,Diorite_rect,2,0,2,0,1,
6618c0a56c7c4623d98dc146,TCR,2024-06-25_11h01.08.466,LearnStrategy,2023.2.3,Win32,60.24096386,6,2,4,,,,,,,,3,15,,,,,,,,,,,2,4.402,0,,,,,,-0.165277778,-0.268055556,1,0,0,4.4016,Basalt_rect,3,0,3,0,1,
6618c0a56c7c4623d98dc146,TCR,2024-06-25_11h01.08.466,LearnStrategy,2023.2.3,Win32,60.24096386,6,2,5,,,,,,,,1,03,,,,,,,,,,,1,1.168,1,,,,,,-0.464351824,-0.248148176,1,0,0,1.1684,Andesite_rect,4,0,4,0,1,
6618c0a56c7c4623d98dc146,TCR,2024-06-25_11h01.08.466,LearnStrategy,2023.2.3,Win32,60.24096386,6,2,6,,,,,,,,4,10,,,,,,,,,,,2,4.85,0,,,,,,-0.085185157,-0.260648176,1,0,0,4.8497,Basalt_rect,5,0,5,0,1,
6618c0a56c7c4623d98dc146,TCR,2024-06-25_11h01.08.466,LearnStrategy,2023.2.3,Win32,60.24096386,6,2,7,,,,,,,,3,14,,,,,,,,,,,3,2.632,1,,,,,,0.128240797,-0.250463019,1,0,0,2.6319,Diorite_rect,6,0,6,0,1,
6618c0a56c7c4623d98dc146,TCR,2024-06-25_11h01.08.466,LearnStrategy,2023.2.3,Win32,60.24096386,6,2,8,,,,,,,,6,06,,,,,,,,,,,6,1.133,1,,,,,,-0.099536981,-0.387037065,1,0,0,1.1326,Pegmatite_rect,7,0,7,0,1,
6618c0a56c7c4623d98dc146,TCR,2024-06-25_11h01.08.466,LearnStrategy,2023.2.3,Win32,60.24096386,6,2,9,,,,,,,,7,04,,,,,,,,,,,7,1.855,1,,,,,,0.142129686,-0.412963019,1,0,0,1.855,Peridotite_rect,8,0,8,0,1,
6618c0a56c7c4623d98dc146,TCR,2024-06-25_11h01.08.466,LearnStrategy,2023.2.3,Win32,60.24096386,6,2,10,,,,,,,,8,13,,,,,,,,,,,1,3.18,0,,,,,,-0.41851849,-0.249074131,1,0,0,3.1799,Andesite_rect,9,0,9,0,1,
6618c0a56c7c4623d98dc146,TCR,2024-06-25_11h01.08.466,LearnStrategy,2023.2.3,Win32,60.24096386,6,2,11,,,,,,,,7,14,,,,,,,,,,,4,2.2,0,,,,,,0.41898151,-0.257407464,1,0,0,2.2,Gabbro_rect,10,0,10,0,1,
6618c0a56c7c4623d98dc146,TCR,2024-06-25_11h01.08.466,LearnStrategy,2023.2.3,Win32,60.24096386,6,2,12,,,,,,,,8,16,,,,,,,,,,,8,2.665,1,,,,,,0.377314843,-0.38148151,1,0,0,2.665,Pumice_rect,11,0,11,0,1,
6618c0a56c7c4623d98dc146,TCR,2024-06-25_11h01.08.466,LearnStrategy,2023.2.3,Win32,60.24096386,6,2,13,,,,,,,,5,16,,,,,,,,,,,5,1.09,1,,,,,,-0.397685157,-0.403703732,1,0,0,1.09,Obsidian_rect,12,0,12,0,1,
6618c0a56c7c4623d98dc146,TCR,2024-06-25_11h01.08.466,LearnStrategy,2023.2.3,Win32,60.24096386,6,2,14,,,,,,,,4,01,,,,,,,,,,,4,4.851,1,,,,,,0.347685242,-0.236574131,1,0,0,4.8507,Gabbro_rect,13,0,13,0,1,
6618c0a56c7c4623d98dc146,TCR,2024-06-25_11h01.08.466,LearnStrategy,2023.2.3,Win32,60.24096386,6,2,15,,,,,,,,5,05,,,,,,,,,,,5,1.161,1,,,,,,-0.346296268,-0.416203732,1,0,0,1.1612,Obsidian_rect,14,0,14,0,1,
6618c0a56c7c4623d98dc146,TCR,2024-06-25_11h01.08.466,LearnStrategy,2023.2.3,Win32,60.24096386,6,2,16,,,,,,,,6,05,,,,,,,,,,,2,3.391,0,,,,,,-0.131944444,-0.252314843,1,0,0,3.3908,Basalt_rect,15,0,15,0,1,
6618c0a56c7c4623d98dc146,TCR,2024-06-25_11h01.08.466,LearnStrategy,2023.2.3,Win32,60.24096386,7,1,1,-0.087036981,0.007870356,1,0,0,33.3593,rock_grid_rect_2,1,09,-1,-1,33.359,-0.400925912,-0.255092621,1,0,0,1.596,Andesite_rect,1,1.596,1,0,0,0,0,1,,,,,,,,,,,,,
6618c0a56c7c4623d98dc146,TCR,2024-06-25_11h01.08.466,LearnStrategy,2023.2.3,Win32,60.24096386,7,1,2,-0.039814758,-0.013425954,1,0,0,1.531,rock_grid_rect_2,1,05,-1,-1,1.531,-0.337037023,-0.247222222,1,0,0,3.875,Andesite_rect,1,3.875,1,1,0,1,0,1,,,,,,,,,,,,,
6618c0a56c7c4623d98dc146,TCR,2024-06-25_11h01.08.466,LearnStrategy,2023.2.3,Win32,60.24096386,7,1,3,-0.014351824,-0.021759288,1,0,0,0.8923,rock_grid_rect_2,3,12,-1,-1,0.892,0.373148176,-0.23148151,1,0,0,1.9398,Gabbro_rect,4,1.94,0,2,0,2,0,1,,,,,,,,,,,,,
6618c0a56c7c4623d98dc146,TCR,2024-06-25_11h01.08.466,LearnStrategy,2023.2.3,Win32,60.24096386,7,1,4,0.069444444,0.000925912,1,0,0,0.8264,rock_grid_rect_2,2,06,-1,-1,0.826,-0.094444444,-0.249537065,1,0,0,1.6426,Basalt_rect,2,1.643,1,3,0,3,0,1,,,,,,,,,,,,,
6618c0a56c7c4623d98dc146,TCR,2024-06-25_11h01.08.466,LearnStrategy,2023.2.3,Win32,60.24096386,7,1,5,0.012963019,-0.016666667,1,0,0,0.6974,rock_grid_rect_2,1,04,-1,-1,0.697,0.162037065,-0.244444444,1,0,0,3.2768,Diorite_rect,3,3.277,0,4,0,4,0,1,,,,,,,,,,,,,
6618c0a56c7c4623d98dc146,TCR,2024-06-25_11h01.08.466,LearnStrategy,2023.2.3,Win32,60.24096386,7,1,6,0.046296353,-0.010648176,1,0,0,0.7312,rock_grid_rect_2,8,03,-1,-1,0.731,0.316203732,-0.395370399,1,0,0,1.4427,Pumice_rect,8,1.443,1,5,0,5,0,1,,,,,,,,,,,,,
6618c0a56c7c4623d98dc146,TCR,2024-06-25_11h01.08.466,LearnStrategy,2023.2.3,Win32,60.24096386,7,1,7,-0.114351824,-0.004166667,1,0,0,0.9644,rock_grid_rect_2,4,16,-1,-1,0.964,-0.083333333,-0.249537065,1,0,0,1.6867,Basalt_rect,2,1.687,0,6,0,6,0,1,,,,,,,,,,,,,
6618c0a56c7c4623d98dc146,TCR,2024-06-25_11h01.08.466,LearnStrategy,2023.2.3,Win32,60.24096386,7,1,8,0.111574131,0.002314801,1,0,0,1.0173,rock_grid_rect_2,8,10,-1,-1,1.017,0.350463019,-0.397222222,1,0,0,1.5654,Pumice_rect,8,1.565,1,7,0,7,0,1,,,,,,,,,,,,,
6618c0a56c7c4623d98dc146,TCR,2024-06-25_11h01.08.466,LearnStrategy,2023.2.3,Win32,60.24096386,7,1,9,-0.047685157,-0.015740755,1,0,0,1.1481,rock_grid_rect_2,4,15,-1,-1,1.148,0.169907464,-0.242592621,1,0,0,5.0093,Diorite_rect,3,5.009,0,8,0,8,0,1,,,,,,,,,,,,,
6618c0a56c7c4623d98dc146,TCR,2024-06-25_11h01.08.466,LearnStrategy,2023.2.3,Win32,60.24096386,7,1,10,0.067592621,-0.020370399,1,0,0,0.8119,rock_grid_rect_2,4,08,-1,-1,0.812,0.343055556,-0.240740797,1,0,0,1.4151,Gabbro_rect,4,1.415,1,9,0,9,0,1,,,,,,,,,,,,,
6618c0a56c7c4623d98dc146,TCR,2024-06-25_11h01.08.466,LearnStrategy,2023.2.3,Win32,60.24096386,7,1,11,0.053240797,-0.012037065,1,0,0,0.8151,rock_grid_rect_2,6,16,-1,-1,0.815,-0.081944444,-0.393055556,1,0,0,1.2952,Pegmatite_rect,6,1.295,1,10,0,10,0,1,,,,,,,,,,,,,
6618c0a56c7c4623d98dc146,TCR,2024-06-25_11h01.08.466,LearnStrategy,2023.2.3,Win32,60.24096386,7,1,12,-0.036111111,-0.001388889,1,0,0,0.7633,rock_grid_rect_2,7,08,-1,-1,0.763,0.095833333,-0.408796353,1,0,0,1.4756,Peridotite_rect,7,1.476,1,11,0,11,0,1,,,,,,,,,,,,,
6618c0a56c7c4623d98dc146,TCR,2024-06-25_11h01.08.466,LearnStrategy,2023.2.3,Win32,60.24096386,7,1,13,-0.012962935,-0.023611111,1,0,0,0.8442,rock_grid_rect_2,3,07,-1,-1,0.844,0.079629686,-0.238888889,1,0,0,1.6756,Diorite_rect,3,1.676,1,12,0,12,0,1,,,,,,,,,,,,,
6618c0a56c7c4623d98dc146,TCR,2024-06-25_11h01.08.466,LearnStrategy,2023.2.3,Win32,60.24096386,7,1,14,0.047685242,0.008796268,1,0,0,0.759,rock_grid_rect_2,7,13,-1,-1,0.759,0.100463019,-0.395370399,1,0,0,1.6612,Peridotite_rect,7,1.661,1,13,0,13,0,1,,,,,,,,,,,,,
6618c0a56c7c4623d98dc146,TCR,2024-06-25_11h01.08.466,LearnStrategy,2023.2.3,Win32,60.24096386,7,1,15,0.076851908,-0.015740755,1,0,0,0.8477,rock_grid_rect_2,6,16,-1,-1,0.848,-0.155092536,-0.417129686,1,0,0,1.0361,Pegmatite_rect,6,1.036,1,14,0,14,0,1,,,,,,,,,,,,,
6618c0a56c7c4623d98dc146,TCR,2024-06-25_11h01.08.466,LearnStrategy,2023.2.3,Win32,60.24096386,7,1,16,0.046759288,-0.004629644,1,0,0,1.1312,rock_grid_rect_2,2,11,-1,-1,1.131,-0.158333333,-0.2625,1,0,0,3.0264,Basalt_rect,2,3.026,1,15,0,15,0,1,,,,,,,,,,,,,
6618c0a56c7c4623d98dc146,TCR,2024-06-25_11h01.08.466,LearnStrategy,2023.2.3,Win32,60.24096386,7,2,1,,,,,,,,1,11,,,,,,,,,,,1,3.14,1,,,,,,-0.380555556,-0.252314843,1,0,0,3.1396,Andesite_rect,0,0,0,0,1,
6618c0a56c7c4623d98dc146,TCR,2024-06-25_11h01.08.466,LearnStrategy,2023.2.3,Win32,60.24096386,7,2,2,,,,,,,,4,11,,,,,,,,,,,2,5.408,0,,,,,,-0.15601849,-0.265277778,1,0,0,5.4082,Basalt_rect,1,0,1,0,1,
6618c0a56c7c4623d98dc146,TCR,2024-06-25_11h01.08.466,LearnStrategy,2023.2.3,Win32,60.24096386,7,2,3,,,,,,,,2,09,,,,,,,,,,,2,5.48,1,,,,,,-0.106944444,-0.265277778,1,0,0,5.4799,Basalt_rect,2,0,2,0,1,
6618c0a56c7c4623d98dc146,TCR,2024-06-25_11h01.08.466,LearnStrategy,2023.2.3,Win32,60.24096386,7,2,4,,,,,,,,3,08,,,,,,,,,,,7,6.245,0,,,,,,0.202314843,-0.380555556,1,0,0,6.245,Peridotite_rect,3,0,3,0,1,
6618c0a56c7c4623d98dc146,TCR,2024-06-25_11h01.08.466,LearnStrategy,2023.2.3,Win32,60.24096386,7,2,5,,,,,,,,3,14,,,,,,,,,,,3,2.888,1,,,,,,0.152314843,-0.247685242,1,0,0,2.8884,Diorite_rect,4,0,4,0,1,
6618c0a56c7c4623d98dc146,TCR,2024-06-25_11h01.08.466,LearnStrategy,2023.2.3,Win32,60.24096386,7,2,6,,,,,,,,5,02,,,,,,,,,,,5,1.24,1,,,,,,-0.419444444,-0.395370399,1,0,0,1.2402,Obsidian_rect,5,0,5,0,1,
6618c0a56c7c4623d98dc146,TCR,2024-06-25_11h01.08.466,LearnStrategy,2023.2.3,Win32,60.24096386,7,2,7,,,,,,,,7,16,,,,,,,,,,,7,2.526,1,,,,,,0.100925954,-0.405092621,1,0,0,2.5256,Peridotite_rect,6,0,6,0,1,
6618c0a56c7c4623d98dc146,TCR,2024-06-25_11h01.08.466,LearnStrategy,2023.2.3,Win32,60.24096386,7,2,8,,,,,,,,1,16,,,,,,,,,,,4,3.347,0,,,,,,0.363425954,-0.2375,1,0,0,3.3473,Gabbro_rect,7,0,7,0,1,
6618c0a56c7c4623d98dc146,TCR,2024-06-25_11h01.08.466,LearnStrategy,2023.2.3,Win32,60.24096386,7,2,9,,,,,,,,8,13,,,,,,,,,,,8,2.961,1,,,,,,0.384259288,-0.397222222,1,0,0,2.9607,Pumice_rect,8,0,8,0,1,
6618c0a56c7c4623d98dc146,TCR,2024-06-25_11h01.08.466,LearnStrategy,2023.2.3,Win32,60.24096386,7,2,10,,,,,,,,6,06,,,,,,,,,,,6,2.093,1,,,,,,-0.147685157,-0.398148176,1,0,0,2.093,Pegmatite_rect,9,0,9,0,1,
6618c0a56c7c4623d98dc146,TCR,2024-06-25_11h01.08.466,LearnStrategy,2023.2.3,Win32,60.24096386,7,2,11,,,,,,,,8,02,,,,,,,,,,,8,1.723,1,,,,,,0.371759288,-0.401388889,1,0,0,1.7229,Pumice_rect,10,0,10,0,1,
6618c0a56c7c4623d98dc146,TCR,2024-06-25_11h01.08.466,LearnStrategy,2023.2.3,Win32,60.24096386,7,2,12,,,,,,,,7,07,,,,,,,,,,,7,1.425,1,,,,,,0.179166667,-0.405092621,1,0,0,1.4245,Peridotite_rect,11,0,11,0,1,
6618c0a56c7c4623d98dc146,TCR,2024-06-25_11h01.08.466,LearnStrategy,2023.2.3,Win32,60.24096386,7,2,13,,,,,,,,4,10,,,,,,,,,,,4,2.044,1,,,,,,0.380092621,-0.259259288,1,0,0,2.0441,Gabbro_rect,12,0,12,0,1,
6618c0a56c7c4623d98dc146,TCR,2024-06-25_11h01.08.466,LearnStrategy,2023.2.3,Win32,60.24096386,7,2,14,,,,,,,,6,08,,,,,,,,,,,6,1.344,1,,,,,,-0.140277778,-0.40648151,1,0,0,1.3443,Pegmatite_rect,13,0,13,0,1,
6618c0a56c7c4623d98dc146,TCR,2024-06-25_11h01.08.466,LearnStrategy,2023.2.3,Win32,60.24096386,7,2,15,,,,,,,,5,10,,,,,,,,,,,5,1.134,1,,,,,,-0.361111111,-0.402777778,1,0,0,1.1335,Obsidian_rect,14,0,14,0,1,
6618c0a56c7c4623d98dc146,TCR,2024-06-25_11h01.08.466,LearnStrategy,2023.2.3,Win32,60.24096386,7,2,16,,,,,,,,2,08,,,,,,,,,,,2,1.695,1,,,,,,-0.200462935,-0.253703732,1,0,0,1.6951,Basalt_rect,15,0,15,0,1,
6618c0a56c7c4623d98dc146,TCR,2024-06-25_11h01.08.466,LearnStrategy,2023.2.3,Win32,60.24096386,8,1,1,0.133796353,0.021296268,1,0,0,3.131,rock_grid_rect_2,3,02,-1,-1,3.131,0.09398151,-0.228240797,1,0,0,5.039,Diorite_rect,3,5.039,1,0,0,0,0,1,,,,,,,,,,,,,
6618c0a56c7c4623d98dc146,TCR,2024-06-25_11h01.08.466,LearnStrategy,2023.2.3,Win32,60.24096386,8,1,2,0.073148176,-0.001388889,1,0,0,0.7857,rock_grid_rect_2,2,02,-1,-1,0.786,-0.342592578,-0.257407464,1,0,0,1.6711,Andesite_rect,1,1.671,0,1,0,1,0,1,,,,,,,,,,,,,
6618c0a56c7c4623d98dc146,TCR,2024-06-25_11h01.08.466,LearnStrategy,2023.2.3,Win32,60.24096386,8,1,3,0.03148151,0.024537023,1,0,0,0.7144,rock_grid_rect_2,1,04,-1,-1,0.714,0.336574131,-0.244907464,1,0,0,1.6428,Gabbro_rect,4,1.643,0,2,0,2,0,1,,,,,,,,,,,,,
6618c0a56c7c4623d98dc146,TCR,2024-06-25_11h01.08.466,LearnStrategy,2023.2.3,Win32,60.24096386,8,1,4,0.029629686,-0.014814843,1,0,0,0.6976,rock_grid_rect_2,2,05,-1,-1,0.698,-0.124074046,-0.257870399,1,0,0,1.138,Basalt_rect,2,1.138,1,3,0,3,0,1,,,,,,,,,,,,,
6618c0a56c7c4623d98dc146,TCR,2024-06-25_11h01.08.466,LearnStrategy,2023.2.3,Win32,60.24096386,8,1,5,-0.024074046,-0.005555556,1,0,0,0.6454,rock_grid_rect_2,6,07,-1,-1,0.645,-0.059722222,-0.4,1,0,0,1.3294,Pegmatite_rect,6,1.329,1,4,0,4,0,1,,,,,,,,,,,,,
6618c0a56c7c4623d98dc146,TCR,2024-06-25_11h01.08.466,LearnStrategy,2023.2.3,Win32,60.24096386,8,1,6,0.057870399,-0.006018533,1,0,0,0.7644,rock_grid_rect_2,4,03,-1,-1,0.764,-0.319444444,-0.252314843,1,0,0,4.36,Andesite_rect,1,4.36,0,5,0,5,0,1,,,,,,,,,,,,,
6618c0a56c7c4623d98dc146,TCR,2024-06-25_11h01.08.466,LearnStrategy,2023.2.3,Win32,60.24096386,8,1,7,0.068055556,-0.018055556,1,0,0,0.8634,rock_grid_rect_2,7,06,-1,-1,0.863,-0.069444444,-0.404166667,1,0,0,1.8676,Pegmatite_rect,6,1.868,0,6,0,6,0,1,,,,,,,,,,,,,
6618c0a56c7c4623d98dc146,TCR,2024-06-25_11h01.08.466,LearnStrategy,2023.2.3,Win32,60.24096386,8,1,8,-0.011574046,-0.00879631,1,0,0,0.6884,rock_grid_rect_2,1,02,-1,-1,0.688,-0.45601849,-0.252314843,1,0,0,2.6629,Andesite_rect,1,2.663,1,7,0,7,0,1,,,,,,,,,,,,,
6618c0a56c7c4623d98dc146,TCR,2024-06-25_11h01.08.466,LearnStrategy,2023.2.3,Win32,60.24096386,8,1,9,0.048148176,-0.008333333,1,0,0,0.9626,rock_grid_rect_2,5,12,-1,-1,0.963,-0.384722222,-0.398148176,1,0,0,1.0228,Obsidian_rect,5,1.023,1,8,0,8,0,1,,,,,,,,,,,,,
6618c0a56c7c4623d98dc146,TCR,2024-06-25_11h01.08.466,LearnStrategy,2023.2.3,Win32,60.24096386,8,1,10,0.027777778,-0.002314843,1,0,0,1.0813,rock_grid_rect_2,1,09,-1,-1,1.081,-0.375462935,-0.257407464,1,0,0,2.6093,Andesite_rect,1,2.609,1,9,0,9,0,1,,,,,,,,,,,,,
6618c0a56c7c4623d98dc146,TCR,2024-06-25_11h01.08.466,LearnStrategy,2023.2.3,Win32,60.24096386,8,1,11,-0.076388889,0.011574046,1,0,0,0.7627,rock_grid_rect_2,3,09,-1,-1,0.763,0.177314843,-0.252314843,1,0,0,2.1114,Diorite_rect,3,2.111,1,10,0,10,0,1,,,,,,,,,,,,,
6618c0a56c7c4623d98dc146,TCR,2024-06-25_11h01.08.466,LearnStrategy,2023.2.3,Win32,60.24096386,8,1,12,0.047222222,-0.015740755,1,0,0,0.7305,rock_grid_rect_2,3,02,-1,-1,0.73,0.084722222,-0.247685242,1,0,0,2.309,Diorite_rect,3,2.309,1,11,0,11,0,1,,,,,,,,,,,,,
6618c0a56c7c4623d98dc146,TCR,2024-06-25_11h01.08.466,LearnStrategy,2023.2.3,Win32,60.24096386,8,1,13,-0.000462935,0.013888889,1,0,0,0.5842,rock_grid_rect_2,8,14,-1,-1,0.584,0.425925954,-0.392592621,1,0,0,1.5599,Pumice_rect,8,1.56,1,12,0,12,0,1,,,,,,,,,,,,,
6618c0a56c7c4623d98dc146,TCR,2024-06-25_11h01.08.466,LearnStrategy,2023.2.3,Win32,60.24096386,8,1,14,0.038425954,-0.014814843,1,0,0,0.831,rock_grid_rect_2,4,16,-1,-1,0.831,-0.13101849,-0.241666667,1,0,0,1.8385,Basalt_rect,2,1.839,0,13,0,13,0,1,,,,,,,,,,,,,
6618c0a56c7c4623d98dc146,TCR,2024-06-25_11h01.08.466,LearnStrategy,2023.2.3,Win32,60.24096386,8,1,15,0.041203732,-0.003703732,1,0,0,0.8959,rock_grid_rect_2,4,13,-1,-1,0.896,0.368055556,-0.243518575,1,0,0,20.8169,Gabbro_rect,4,20.817,1,14,0,14,0,1,,,,,,,,,,,,,
6618c0a56c7c4623d98dc146,TCR,2024-06-25_11h01.08.466,LearnStrategy,2023.2.3,Win32,60.24096386,8,1,16,0.071759288,-0.019444444,1,0,0,0.8585,rock_grid_rect_2,8,10,-1,-1,0.859,0.378240797,-0.398611111,1,0,0,1.0069,Pumice_rect,8,1.007,1,15,0,15,0,1,,,,,,,,,,,,,
6618c0a56c7c4623d98dc146,TCR,2024-06-25_11h01.08.466,LearnStrategy,2023.2.3,Win32,60.24096386,8,2,1,,,,,,,,2,16,,,,,,,,,,,4,3.36,0,,,,,,0.420833333,-0.238888889,1,0,0,3.3603,Gabbro_rect,0,0,0,0,1,
6618c0a56c7c4623d98dc146,TCR,2024-06-25_11h01.08.466,LearnStrategy,2023.2.3,Win32,60.24096386,8,2,2,,,,,,,,1,06,,,,,,,,,,,1,10.57,1,,,,,,-0.363888889,-0.250925954,1,0,0,10.5701,Andesite_rect,1,0,1,0,1,
6618c0a56c7c4623d98dc146,TCR,2024-06-25_11h01.08.466,LearnStrategy,2023.2.3,Win32,60.24096386,8,2,3,,,,,,,,6,09,,,,,,,,,,,6,1.326,1,,,,,,-0.078703647,-0.415277778,1,0,0,1.3263,Pegmatite_rect,2,0,2,0,1,
6618c0a56c7c4623d98dc146,TCR,2024-06-25_11h01.08.466,LearnStrategy,2023.2.3,Win32,60.24096386,8,2,4,,,,,,,,6,11,,,,,,,,,,,6,1.725,1,,,,,,-0.120370314,-0.394444444,1,0,0,1.7252,Pegmatite_rect,3,0,3,0,1,
6618c0a56c7c4623d98dc146,TCR,2024-06-25_11h01.08.466,LearnStrategy,2023.2.3,Win32,60.24096386,8,2,5,,,,,,,,8,05,,,,,,,,,,,1,1.945,0,,,,,,-0.385185157,-0.258333333,1,0,0,1.9446,Andesite_rect,4,0,4,0,1,
6618c0a56c7c4623d98dc146,TCR,2024-06-25_11h01.08.466,LearnStrategy,2023.2.3,Win32,60.24096386,8,2,6,,,,,,,,4,12,,,,,,,,,,,4,1.204,1,,,,,,0.46898151,-0.254629686,1,0,0,1.2038,Gabbro_rect,5,0,5,0,1,
6618c0a56c7c4623d98dc146,TCR,2024-06-25_11h01.08.466,LearnStrategy,2023.2.3,Win32,60.24096386,8,2,7,,,,,,,,7,14,,,,,,,,,,,1,1.674,0,,,,,,-0.398148134,-0.238888889,1,0,0,1.6736,Andesite_rect,6,0,6,0,1,
6618c0a56c7c4623d98dc146,TCR,2024-06-25_11h01.08.466,LearnStrategy,2023.2.3,Win32,60.24096386,8,2,8,,,,,,,,2,10,,,,,,,,,,,2,1.525,1,,,,,,-0.101851824,-0.264814843,1,0,0,1.5248,Basalt_rect,7,0,7,0,1,
6618c0a56c7c4623d98dc146,TCR,2024-06-25_11h01.08.466,LearnStrategy,2023.2.3,Win32,60.24096386,8,2,9,,,,,,,,1,03,,,,,,,,,,,1,2.827,1,,,,,,-0.394907379,-0.236111111,1,0,0,2.827,Andesite_rect,8,0,8,0,1,
6618c0a56c7c4623d98dc146,TCR,2024-06-25_11h01.08.466,LearnStrategy,2023.2.3,Win32,60.24096386,8,2,10,,,,,,,,7,02,,,,,,,,,,,7,4.347,1,,,,,,0.105092621,-0.416203732,1,0,0,4.3469,Peridotite_rect,9,0,9,0,1,
6618c0a56c7c4623d98dc146,TCR,2024-06-25_11h01.08.466,LearnStrategy,2023.2.3,Win32,60.24096386,8,2,11,,,,,,,,4,01,,,,,,,,,,,4,4.896,1,,,,,,0.425463019,-0.262963019,1,0,0,4.896,Gabbro_rect,10,0,10,0,1,
6618c0a56c7c4623d98dc146,TCR,2024-06-25_11h01.08.466,LearnStrategy,2023.2.3,Win32,60.24096386,8,2,12,,,,,,,,3,06,,,,,,,,,,,7,5.925,0,,,,,,0.128240797,-0.391666667,1,0,0,5.9245,Peridotite_rect,11,0,11,0,1,
6618c0a56c7c4623d98dc146,TCR,2024-06-25_11h01.08.466,LearnStrategy,2023.2.3,Win32,60.24096386,8,2,13,,,,,,,,5,06,,,,,,,,,,,5,1.391,1,,,,,,-0.377314801,-0.395370399,1,0,0,1.3906,Obsidian_rect,12,0,12,0,1,
6618c0a56c7c4623d98dc146,TCR,2024-06-25_11h01.08.466,LearnStrategy,2023.2.3,Win32,60.24096386,8,2,14,,,,,,,,5,05,,,,,,,,,,,5,0.623,1,,,,,,-0.377777778,-0.390277778,1,0,0,0.6233,Obsidian_rect,13,0,13,0,1,
6618c0a56c7c4623d98dc146,TCR,2024-06-25_11h01.08.466,LearnStrategy,2023.2.3,Win32,60.24096386,8,2,15,,,,,,,,8,16,,,,,,,,,,,8,1.61,1,,,,,,0.389351908,-0.405092621,1,0,0,1.6102,Pumice_rect,14,0,14,0,1,
6618c0a56c7c4623d98dc146,TCR,2024-06-25_11h01.08.466,LearnStrategy,2023.2.3,Win32,60.24096386,8,2,16,,,,,,,,3,15,,,,,,,,,,,3,3.162,1,,,,,,0.169444444,-0.267129686,1,0,0,3.1624,Diorite_rect,15,0,15,0,1,
6618c0a56c7c4623d98dc146,TCR,2024-06-25_11h01.08.466,LearnStrategy,2023.2.3,Win32,60.24096386,9,1,1,-0.060648092,-0.011574088,1,0,0,1.7104,rock_grid_rect_2,4,03,-1,-1,1.71,0.469907464,-0.231944444,1,0,0,1.837,Gabbro_rect,4,1.837,1,0,0,0,0,1,,,,,,,,,,,,,
6618c0a56c7c4623d98dc146,TCR,2024-06-25_11h01.08.466,LearnStrategy,2023.2.3,Win32,60.24096386,9,1,2,0.010648176,-0.020370399,1,0,0,0.7864,rock_grid_rect_2,1,10,-1,-1,0.786,0.352777778,-0.236111111,1,0,0,1.5703,Gabbro_rect,4,1.57,0,1,0,1,0,1,,,,,,,,,,,,,
6618c0a56c7c4623d98dc146,TCR,2024-06-25_11h01.08.466,LearnStrategy,2023.2.3,Win32,60.24096386,9,1,3,0.057870399,0.002314801,1,0,0,0.8306,rock_grid_rect_2,7,10,-1,-1,0.831,0.123148176,-0.402777778,1,0,0,1.6919,Peridotite_rect,7,1.692,1,2,0,2,0,1,,,,,,,,,,,,,
6618c0a56c7c4623d98dc146,TCR,2024-06-25_11h01.08.466,LearnStrategy,2023.2.3,Win32,60.24096386,9,1,4,-0.072222222,-0.023611111,1,0,0,1.3134,rock_grid_rect_2,3,07,-1,-1,1.313,0.155555556,-0.25648151,1,0,0,3.5644,Diorite_rect,3,3.564,1,3,0,3,0,1,,,,,,,,,,,,,
6618c0a56c7c4623d98dc146,TCR,2024-06-25_11h01.08.466,LearnStrategy,2023.2.3,Win32,60.24096386,9,1,5,0.037037065,-0.010185199,1,0,0,0.862,rock_grid_rect_2,4,08,-1,-1,0.862,-0.104166667,-0.260648176,1,0,0,1.7002,Basalt_rect,2,1.7,0,4,0,4,0,1,,,,,,,,,,,,,
6618c0a56c7c4623d98dc146,TCR,2024-06-25_11h01.08.466,LearnStrategy,2023.2.3,Win32,60.24096386,9,1,6,0.031944444,-0.020370399,1,0,0,0.8644,rock_grid_rect_2,2,14,-1,-1,0.864,0.300925954,-0.401388889,1,0,0,2.1148,Pumice_rect,8,2.115,0,5,0,5,0,1,,,,,,,,,,,,,
6618c0a56c7c4623d98dc146,TCR,2024-06-25_11h01.08.466,LearnStrategy,2023.2.3,Win32,60.24096386,9,1,7,0.121296353,0.006481467,1,0,0,0.8498,rock_grid_rect_2,6,12,-1,-1,0.85,-0.063425869,-0.401851908,1,0,0,1.8039,Pegmatite_rect,6,1.804,1,6,0,6,0,1,,,,,,,,,,,,,
6618c0a56c7c4623d98dc146,TCR,2024-06-25_11h01.08.466,LearnStrategy,2023.2.3,Win32,60.24096386,9,1,8,0.014814843,-0.013425954,1,0,0,0.63,rock_grid_rect_2,5,09,-1,-1,0.63,-0.40601849,-0.409722222,1,0,0,1.044,Obsidian_rect,5,1.044,1,7,0,7,0,1,,,,,,,,,,,,,
6618c0a56c7c4623d98dc146,TCR,2024-06-25_11h01.08.466,LearnStrategy,2023.2.3,Win32,60.24096386,9,1,9,-0.013425869,0.006481467,1,0,0,0.7771,rock_grid_rect_2,3,16,-1,-1,0.777,0.146759288,-0.234722222,1,0,0,1.4761,Diorite_rect,3,1.476,1,8,0,8,0,1,,,,,,,,,,,,,
6618c0a56c7c4623d98dc146,TCR,2024-06-25_11h01.08.466,LearnStrategy,2023.2.3,Win32,60.24096386,9,1,10,-0.005092536,-0.00648151,1,0,0,0.5787,rock_grid_rect_2,8,06,-1,-1,0.579,0.386111111,-0.417129686,1,0,0,1.1343,Pumice_rect,8,1.134,1,9,0,9,0,1,,,,,,,,,,,,,
6618c0a56c7c4623d98dc146,TCR,2024-06-25_11h01.08.466,LearnStrategy,2023.2.3,Win32,60.24096386,9,1,11,-0.006944444,0.003240712,1,0,0,0.6142,rock_grid_rect_2,3,02,-1,-1,0.614,0.148148176,-0.248611111,1,0,0,1.3589,Diorite_rect,3,1.359,1,10,0,10,0,1,,,,,,,,,,,,,
6618c0a56c7c4623d98dc146,TCR,2024-06-25_11h01.08.466,LearnStrategy,2023.2.3,Win32,60.24096386,9,1,12,0.001388889,-0.001388889,1,0,0,0.5808,rock_grid_rect_2,1,05,-1,-1,0.581,-0.4,-0.254166667,1,0,0,1.369,Andesite_rect,1,1.369,1,11,0,11,0,1,,,,,,,,,,,,,
6618c0a56c7c4623d98dc146,TCR,2024-06-25_11h01.08.466,LearnStrategy,2023.2.3,Win32,60.24096386,9,1,13,0.034722222,-0.004166667,1,0,0,0.4815,rock_grid_rect_2,2,11,-1,-1,0.482,-0.069444444,-0.234259288,1,0,0,1.1751,Basalt_rect,2,1.175,1,12,0,12,0,1,,,,,,,,,,,,,
6618c0a56c7c4623d98dc146,TCR,2024-06-25_11h01.08.466,LearnStrategy,2023.2.3,Win32,60.24096386,9,1,14,0.075,-0.004629644,1,0,0,0.7313,rock_grid_rect_2,7,05,-1,-1,0.731,0.115277778,-0.398611111,1,0,0,1.0926,Peridotite_rect,7,1.093,1,13,0,13,0,1,,,,,,,,,,,,,
6618c0a56c7c4623d98dc146,TCR,2024-06-25_11h01.08.466,LearnStrategy,2023.2.3,Win32,60.24096386,9,1,15,0.089351908,-0.005092621,1,0,0,1.0799,rock_grid_rect_2,8,14,-1,-1,1.08,0.343518575,-0.401851908,1,0,0,1.2023,Pumice_rect,8,1.202,1,14,0,14,0,1,,,,,,,,,,,,,
6618c0a56c7c4623d98dc146,TCR,2024-06-25_11h01.08.466,LearnStrategy,2023.2.3,Win32,60.24096386,9,1,16,0.083333333,-0.006944444,1,0,0,0.8314,rock_grid_rect_2,1,01,-1,-1,0.831,-0.060648092,-0.256018575,1,0,0,1.7049,Basalt_rect,2,1.705,0,15,0,15,0,1,,,,,,,,,,,,,
6618c0a56c7c4623d98dc146,TCR,2024-06-25_11h01.08.466,LearnStrategy,2023.2.3,Win32,60.24096386,9,2,1,,,,,,,,3,11,,,,,,,,,,,3,6.545,1,,,,,,0.121759288,-0.260185242,1,0,0,6.5453,Diorite_rect,0,0,0,0,1,
6618c0a56c7c4623d98dc146,TCR,2024-06-25_11h01.08.466,LearnStrategy,2023.2.3,Win32,60.24096386,9,2,2,,,,,,,,8,08,,,,,,,,,,,8,1.631,1,,,,,,0.415277778,-0.391666667,1,0,0,1.6307,Pumice_rect,1,0,1,0,1,
6618c0a56c7c4623d98dc146,TCR,2024-06-25_11h01.08.466,LearnStrategy,2023.2.3,Win32,60.24096386,9,2,3,,,,,,,,3,10,,,,,,,,,,,4,2.884,0,,,,,,0.404629686,-0.260185242,1,0,0,2.8845,Gabbro_rect,2,0,2,0,1,
6618c0a56c7c4623d98dc146,TCR,2024-06-25_11h01.08.466,LearnStrategy,2023.2.3,Win32,60.24096386,9,2,4,,,,,,,,4,14,,,,,,,,,,,2,2.818,0,,,,,,-0.071759203,-0.259722222,1,0,0,2.8184,Basalt_rect,3,0,3,0,1,
6618c0a56c7c4623d98dc146,TCR,2024-06-25_11h01.08.466,LearnStrategy,2023.2.3,Win32,60.24096386,9,2,5,,,,,,,,6,05,,,,,,,,,,,3,2.36,0,,,,,,0.146759288,-0.262963019,1,0,0,2.3602,Diorite_rect,4,0,4,0,1,
6618c0a56c7c4623d98dc146,TCR,2024-06-25_11h01.08.466,LearnStrategy,2023.2.3,Win32,60.24096386,9,2,6,,,,,,,,1,07,,,,,,,,,,,4,9.361,0,,,,,,0.4625,-0.239814843,1,0,0,9.3611,Gabbro_rect,5,0,5,0,1,
6618c0a56c7c4623d98dc146,TCR,2024-06-25_11h01.08.466,LearnStrategy,2023.2.3,Win32,60.24096386,9,2,7,,,,,,,,5,04,,,,,,,,,,,5,1.022,1,,,,,,-0.451851824,-0.388425954,1,0,0,1.0221,Obsidian_rect,6,0,6,0,1,
6618c0a56c7c4623d98dc146,TCR,2024-06-25_11h01.08.466,LearnStrategy,2023.2.3,Win32,60.24096386,9,2,8,,,,,,,,6,15,,,,,,,,,,,6,1.37,1,,,,,,-0.178240712,-0.405092621,1,0,0,1.3704,Pegmatite_rect,7,0,7,0,1,
6618c0a56c7c4623d98dc146,TCR,2024-06-25_11h01.08.466,LearnStrategy,2023.2.3,Win32,60.24096386,9,2,9,,,,,,,,7,15,,,,,,,,,,,7,0.967,1,,,,,,0.119907464,-0.404166667,1,0,0,0.967,Peridotite_rect,8,0,8,0,1,
6618c0a56c7c4623d98dc146,TCR,2024-06-25_11h01.08.466,LearnStrategy,2023.2.3,Win32,60.24096386,9,2,10,,,,,,,,7,04,,,,,,,,,,,7,1.053,1,,,,,,0.127314843,-0.398611111,1,0,0,1.0532,Peridotite_rect,9,0,9,0,1,
6618c0a56c7c4623d98dc146,TCR,2024-06-25_11h01.08.466,LearnStrategy,2023.2.3,Win32,60.24096386,9,2,11,,,,,,,,5,16,,,,,,,,,,,5,1.062,1,,,,,,-0.381944444,-0.411111111,1,0,0,1.0622,Obsidian_rect,10,0,10,0,1,
6618c0a56c7c4623d98dc146,TCR,2024-06-25_11h01.08.466,LearnStrategy,2023.2.3,Win32,60.24096386,9,2,12,,,,,,,,2,04,,,,,,,,,,,2,2.177,1,,,,,,-0.093055556,-0.269907464,1,0,0,2.1768,Basalt_rect,11,0,11,0,1,
6618c0a56c7c4623d98dc146,TCR,2024-06-25_11h01.08.466,LearnStrategy,2023.2.3,Win32,60.24096386,9,2,13,,,,,,,,4,09,,,,,,,,,,,4,3.424,1,,,,,,0.4,-0.257870399,1,0,0,3.4238,Gabbro_rect,12,0,12,0,1,
6618c0a56c7c4623d98dc146,TCR,2024-06-25_11h01.08.466,LearnStrategy,2023.2.3,Win32,60.24096386,9,2,14,,,,,,,,2,01,,,,,,,,,,,2,1.094,1,,,,,,-0.15601849,-0.243518575,1,0,0,1.094,Basalt_rect,13,0,13,0,1,
6618c0a56c7c4623d98dc146,TCR,2024-06-25_11h01.08.466,LearnStrategy,2023.2.3,Win32,60.24096386,9,2,15,,,,,,,,1,14,,,,,,,,,,,4,5.411,0,,,,,,0.402777778,-0.245370399,1,0,0,5.4108,Gabbro_rect,14,0,14,0,1,
6618c0a56c7c4623d98dc146,TCR,2024-06-25_11h01.08.466,LearnStrategy,2023.2.3,Win32,60.24096386,9,2,16,,,,,,,,8,15,,,,,,,,,,,1,2.559,0,,,,,,-0.363425912,-0.258333333,1,0,0,2.5594,Andesite_rect,15,0,15,0,1,
6618c0a56c7c4623d98dc146,TCR,2024-06-25_11h01.08.466,LearnStrategy,2023.2.3,Win32,60.24096386,,,,,,,,,,,,,,,,,,,,,,,,,,,,,,,,,,,,,,,,,,,1
6618c0a56c7c4623d98dc146,TCR,2024-06-25_11h01.08.466,LearnStrategy,2023.2.3,Win32,60.24096386,,,,,,,,,,,,,,,,,,,,,,,,,,,,,,,,,,,,,,,,,,,
6618c0a56c7c4623d98dc146,TCR,2024-06-25_11h01.08.466,LearnStrategy,2023.2.3,Win32,60.24096386,,,,,,,,,,,8,09,1,1,,,,,,,,,,,,,,,,,,,,,,,,,,,,,
6618c0a56c7c4623d98dc146,TCR,2024-06-25_11h01.08.466,LearnStrategy,2023.2.3,Win32,60.24096386,,,,,,,,,,,8,14,1,2,,,,,,,,,,,,,,,,,,,,,,,,,,,,,
6618c0a56c7c4623d98dc146,TCR,2024-06-25_11h01.08.466,LearnStrategy,2023.2.3,Win32,60.24096386,,,,,,,,,,,4,13,1,3,,,,,,,,,,,,,,,,,,,,,,,,,,,,,
6618c0a56c7c4623d98dc146,TCR,2024-06-25_11h01.08.466,LearnStrategy,2023.2.3,Win32,60.24096386,,,,,,,,,,,5,14,1,4,,,,,,,,,,,,,,,,,,,,,,,,,,,,,
6618c0a56c7c4623d98dc146,TCR,2024-06-25_11h01.08.466,LearnStrategy,2023.2.3,Win32,60.24096386,,,,,,,,,,,7,06,1,5,,,,,,,,,,,,,,,,,,,,,,,,,,,,,
6618c0a56c7c4623d98dc146,TCR,2024-06-25_11h01.08.466,LearnStrategy,2023.2.3,Win32,60.24096386,,,,,,,,,,,6,12,1,6,,,,,,,,,,,,,,,,,,,,,,,,,,,,,
6618c0a56c7c4623d98dc146,TCR,2024-06-25_11h01.08.466,LearnStrategy,2023.2.3,Win32,60.24096386,,,,,,,,,,,3,09,1,7,,,,,,,,,,,,,,,,,,,,,,,,,,,,,
6618c0a56c7c4623d98dc146,TCR,2024-06-25_11h01.08.466,LearnStrategy,2023.2.3,Win32,60.24096386,,,,,,,,,,,3,07,1,8,,,,,,,,,,,,,,,,,,,,,,,,,,,,,
6618c0a56c7c4623d98dc146,TCR,2024-06-25_11h01.08.466,LearnStrategy,2023.2.3,Win32,60.24096386,,,,,,,,,,,3,13,2,1,,,,,,,,,,,,,,,,,,,,,,,,,,,,,
6618c0a56c7c4623d98dc146,TCR,2024-06-25_11h01.08.466,LearnStrategy,2023.2.3,Win32,60.24096386,,,,,,,,,,,7,08,2,2,,,,,,,,,,,,,,,,,,,,,,,,,,,,,
6618c0a56c7c4623d98dc146,TCR,2024-06-25_11h01.08.466,LearnStrategy,2023.2.3,Win32,60.24096386,,,,,,,,,,,4,16,2,3,,,,,,,,,,,,,,,,,,,,,,,,,,,,,
6618c0a56c7c4623d98dc146,TCR,2024-06-25_11h01.08.466,LearnStrategy,2023.2.3,Win32,60.24096386,,,,,,,,,,,5,11,2,4,,,,,,,,,,,,,,,,,,,,,,,,,,,,,
6618c0a56c7c4623d98dc146,TCR,2024-06-25_11h01.08.466,LearnStrategy,2023.2.3,Win32,60.24096386,,,,,,,,,,,1,05,2,5,,,,,,,,,,,,,,,,,,,,,,,,,,,,,
6618c0a56c7c4623d98dc146,TCR,2024-06-25_11h01.08.466,LearnStrategy,2023.2.3,Win32,60.24096386,,,,,,,,,,,4,05,2,6,,,,,,,,,,,,,,,,,,,,,,,,,,,,,
6618c0a56c7c4623d98dc146,TCR,2024-06-25_11h01.08.466,LearnStrategy,2023.2.3,Win32,60.24096386,,,,,,,,,,,3,02,2,7,,,,,,,,,,,,,,,,,,,,,,,,,,,,,
6618c0a56c7c4623d98dc146,TCR,2024-06-25_11h01.08.466,LearnStrategy,2023.2.3,Win32,60.24096386,,,,,,,,,,,2,05,2,8,,,,,,,,,,,,,,,,,,,,,,,,,,,,,
6618c0a56c7c4623d98dc146,TCR,2024-06-25_11h01.08.466,LearnStrategy,2023.2.3,Win32,60.24096386,,,,,,,,,,,2,12,3,1,,,,,,,,,,,,,,,,,,,,,,,,,,,,,
6618c0a56c7c4623d98dc146,TCR,2024-06-25_11h01.08.466,LearnStrategy,2023.2.3,Win32,60.24096386,,,,,,,,,,,8,04,3,2,,,,,,,,,,,,,,,,,,,,,,,,,,,,,
6618c0a56c7c4623d98dc146,TCR,2024-06-25_11h01.08.466,LearnStrategy,2023.2.3,Win32,60.24096386,,,,,,,,,,,3,12,3,3,,,,,,,,,,,,,,,,,,,,,,,,,,,,,
6618c0a56c7c4623d98dc146,TCR,2024-06-25_11h01.08.466,LearnStrategy,2023.2.3,Win32,60.24096386,,,,,,,,,,,5,08,3,4,,,,,,,,,,,,,,,,,,,,,,,,,,,,,
6618c0a56c7c4623d98dc146,TCR,2024-06-25_11h01.08.466,LearnStrategy,2023.2.3,Win32,60.24096386,,,,,,,,,,,8,03,3,5,,,,,,,,,,,,,,,,,,,,,,,,,,,,,
6618c0a56c7c4623d98dc146,TCR,2024-06-25_11h01.08.466,LearnStrategy,2023.2.3,Win32,60.24096386,,,,,,,,,,,1,01,3,6,,,,,,,,,,,,,,,,,,,,,,,,,,,,,
6618c0a56c7c4623d98dc146,TCR,2024-06-25_11h01.08.466,LearnStrategy,2023.2.3,Win32,60.24096386,,,,,,,,,,,2,06,3,7,,,,,,,,,,,,,,,,,,,,,,,,,,,,,
6618c0a56c7c4623d98dc146,TCR,2024-06-25_11h01.08.466,LearnStrategy,2023.2.3,Win32,60.24096386,,,,,,,,,,,1,10,3,8,,,,,,,,,,,,,,,,,,,,,,,,,,,,,
6618c0a56c7c4623d98dc146,TCR,2024-06-25_11h01.08.466,LearnStrategy,2023.2.3,Win32,60.24096386,,,,,,,,,,,4,15,4,1,,,,,,,,,,,,,,,,,,,,,,,,,,,,,
6618c0a56c7c4623d98dc146,TCR,2024-06-25_11h01.08.466,LearnStrategy,2023.2.3,Win32,60.24096386,,,,,,,,,,,1,04,4,2,,,,,,,,,,,,,,,,,,,,,,,,,,,,,
6618c0a56c7c4623d98dc146,TCR,2024-06-25_11h01.08.466,LearnStrategy,2023.2.3,Win32,60.24096386,,,,,,,,,,,7,13,4,3,,,,,,,,,,,,,,,,,,,,,,,,,,,,,
6618c0a56c7c4623d98dc146,TCR,2024-06-25_11h01.08.466,LearnStrategy,2023.2.3,Win32,60.24096386,,,,,,,,,,,6,10,4,4,,,,,,,,,,,,,,,,,,,,,,,,,,,,,
6618c0a56c7c4623d98dc146,TCR,2024-06-25_11h01.08.466,LearnStrategy,2023.2.3,Win32,60.24096386,,,,,,,,,,,6,03,4,5,,,,,,,,,,,,,,,,,,,,,,,,,,,,,
6618c0a56c7c4623d98dc146,TCR,2024-06-25_11h01.08.466,LearnStrategy,2023.2.3,Win32,60.24096386,,,,,,,,,,,8,10,4,6,,,,,,,,,,,,,,,,,,,,,,,,,,,,,
6618c0a56c7c4623d98dc146,TCR,2024-06-25_11h01.08.466,LearnStrategy,2023.2.3,Win32,60.24096386,,,,,,,,,,,3,16,4,7,,,,,,,,,,,,,,,,,,,,,,,,,,,,,
6618c0a56c7c4623d98dc146,TCR,2024-06-25_11h01.08.466,LearnStrategy,2023.2.3,Win32,60.24096386,,,,,,,,,,,5,09,4,8,,,,,,,,,,,,,,,,,,,,,,,,,,,,,
6618c0a56c7c4623d98dc146,TCR,2024-06-25_11h01.08.466,LearnStrategy,2023.2.3,Win32,60.24096386,,,,,,,,,,,7,05,5,1,,,,,,,,,,,,,,,,,,,,,,,,,,,,,
6618c0a56c7c4623d98dc146,TCR,2024-06-25_11h01.08.466,LearnStrategy,2023.2.3,Win32,60.24096386,,,,,,,,,,,4,08,5,2,,,,,,,,,,,,,,,,,,,,,,,,,,,,,
6618c0a56c7c4623d98dc146,TCR,2024-06-25_11h01.08.466,LearnStrategy,2023.2.3,Win32,60.24096386,,,,,,,,,,,8,06,5,3,,,,,,,,,,,,,,,,,,,,,,,,,,,,,
6618c0a56c7c4623d98dc146,TCR,2024-06-25_11h01.08.466,LearnStrategy,2023.2.3,Win32,60.24096386,,,,,,,,,,,1,02,5,4,,,,,,,,,,,,,,,,,,,,,,,,,,,,,
6618c0a56c7c4623d98dc146,TCR,2024-06-25_11h01.08.466,LearnStrategy,2023.2.3,Win32,60.24096386,,,,,,,,,,,7,12,5,5,,,,,,,,,,,,,,,,,,,,,,,,,,,,,
6618c0a56c7c4623d98dc146,TCR,2024-06-25_11h01.08.466,LearnStrategy,2023.2.3,Win32,60.24096386,,,,,,,,,,,2,02,5,6,,,,,,,,,,,,,,,,,,,,,,,,,,,,,
6618c0a56c7c4623d98dc146,TCR,2024-06-25_11h01.08.466,LearnStrategy,2023.2.3,Win32,60.24096386,,,,,,,,,,,6,07,5,7,,,,,,,,,,,,,,,,,,,,,,,,,,,,,
6618c0a56c7c4623d98dc146,TCR,2024-06-25_11h01.08.466,LearnStrategy,2023.2.3,Win32,60.24096386,,,,,,,,,,,5,07,5,8,,,,,,,,,,,,,,,,,,,,,,,,,,,,,
6618c0a56c7c4623d98dc146,TCR,2024-06-25_11h01.08.466,LearnStrategy,2023.2.3,Win32,60.24096386,,,,,,,,,,,2,14,6,1,,,,,,,,,,,,,,,,,,,,,,,,,,,,,
6618c0a56c7c4623d98dc146,TCR,2024-06-25_11h01.08.466,LearnStrategy,2023.2.3,Win32,60.24096386,,,,,,,,,,,1,09,6,2,,,,,,,,,,,,,,,,,,,,,,,,,,,,,
6618c0a56c7c4623d98dc146,TCR,2024-06-25_11h01.08.466,LearnStrategy,2023.2.3,Win32,60.24096386,,,,,,,,,,,7,10,6,3,,,,,,,,,,,,,,,,,,,,,,,,,,,,,
6618c0a56c7c4623d98dc146,TCR,2024-06-25_11h01.08.466,LearnStrategy,2023.2.3,Win32,60.24096386,,,,,,,,,,,5,12,6,4,,,,,,,,,,,,,,,,,,,,,,,,,,,,,
6618c0a56c7c4623d98dc146,TCR,2024-06-25_11h01.08.466,LearnStrategy,2023.2.3,Win32,60.24096386,,,,,,,,,,,6,13,6,5,,,,,,,,,,,,,,,,,,,,,,,,,,,,,
6618c0a56c7c4623d98dc146,TCR,2024-06-25_11h01.08.466,LearnStrategy,2023.2.3,Win32,60.24096386,,,,,,,,,,,4,03,6,6,,,,,,,,,,,,,,,,,,,,,,,,,,,,,
6618c0a56c7c4623d98dc146,TCR,2024-06-25_11h01.08.466,LearnStrategy,2023.2.3,Win32,60.24096386,,,,,,,,,,,6,16,6,7,,,,,,,,,,,,,,,,,,,,,,,,,,,,,
6618c0a56c7c4623d98dc146,TCR,2024-06-25_11h01.08.466,LearnStrategy,2023.2.3,Win32,60.24096386,,,,,,,,,,,2,11,6,8,,,,,,,,,,,,,,,,,,,,,,,,,,,,,