participant,condition,date,expName,psychopyVersion,OS,frameRate,block,phase,trial,learn_mouse_2.x,learn_mouse_2.y,learn_mouse_2.leftButton,learn_mouse_2.midButton,learn_mouse_2.rightButton,learn_mouse_2.time,learn_mouse_2.clicked_name,cat,token,row,col,t_select,cat_mouse_l.x,cat_mouse_l.y,cat_mouse_l.leftButton,cat_mouse_l.midButton,cat_mouse_l.rightButton,cat_mouse_l.time,cat_mouse_l.clicked_name,resp,t_resp,corr,train_trials.thisRepN,train_trials.thisTrialN,train_trials.thisN,train_trials.thisIndex,train_trials.ran,cat_mouse_t.x,cat_mouse_t.y,cat_mouse_t.leftButton,cat_mouse_t.midButton,cat_mouse_t.rightButton,cat_mouse_t.time,cat_mouse_t.clicked_name,test_trials.thisRepN,test_trials.thisTrialN,test_trials.thisN,test_trials.thisIndex,test_trials.ran,Bonus
6618870c888a5cea7655aea7,TCN,2024-06-24_16h02.22.910,LearnStrategy,2023.2.3,MacIntel,63.29113924,,,,,,,,,,,,,,,,,,,,,,,,,,,,,,,,,,,,,,,,,,,
6618870c888a5cea7655aea7,TCN,2024-06-24_16h02.22.910,LearnStrategy,2023.2.3,MacIntel,63.29113924,1,1,1,-0.005371207,-0.005250832,1,0,0,2.0876,rock_grid_rect_2,6,07,-1,-1,2.088,-0.331555232,-0.412979578,1,0,0,6.3864,Obsidian_rect,5,6.386,0,0,0,0,0,1,,,,,,,,,,,,,
6618870c888a5cea7655aea7,TCN,2024-06-24_16h02.22.910,LearnStrategy,2023.2.3,MacIntel,63.29113924,1,1,2,-0.051325876,0.011570288,1,0,0,1.1196,rock_grid_rect_2,3,11,-1,-1,1.12,0.3463345,-0.419139834,1,0,0,5.7057,Pumice_rect,8,5.706,0,1,0,1,0,1,,,,,,,,,,,,,
6618870c888a5cea7655aea7,TCN,2024-06-24_16h02.22.910,LearnStrategy,2023.2.3,MacIntel,63.29113924,1,1,3,-0.035680813,0.01153604,1,0,0,1.0036,rock_grid_rect_2,6,03,-1,-1,1.004,0.122798891,-0.382719026,1,0,0,3.7683,Peridotite_rect,7,3.768,0,2,0,2,0,1,,,,,,,,,,,,,
6618870c888a5cea7655aea7,TCN,2024-06-24_16h02.22.910,LearnStrategy,2023.2.3,MacIntel,63.29113924,1,1,4,0.002322614,-0.007867206,1,0,0,0.9485,rock_grid_rect_2,4,08,-1,-1,0.949,0.451674511,-0.251506269,1,0,0,3.2417,Gabbro_rect,4,3.242,1,3,0,3,0,1,,,,,,,,,,,,,
6618870c888a5cea7655aea7,TCN,2024-06-24_16h02.22.910,LearnStrategy,2023.2.3,MacIntel,63.29113924,1,1,5,0.053853975,-0.004039171,1,0,0,1.0559,rock_grid_rect_2,1,04,-1,-1,1.056,-0.113160197,-0.235818255,1,0,0,3.1737,Basalt_rect,2,3.174,0,4,0,4,0,1,,,,,,,,,,,,,
6618870c888a5cea7655aea7,TCN,2024-06-24_16h02.22.910,LearnStrategy,2023.2.3,MacIntel,63.29113924,1,1,6,0.021099571,-0.019733683,1,0,0,0.8235,rock_grid_rect_2,7,12,-1,-1,0.823,-0.11273832,-0.246008979,1,0,0,2.1883,Basalt_rect,2,2.188,0,5,0,5,0,1,,,,,,,,,,,,,
6618870c888a5cea7655aea7,TCN,2024-06-24_16h02.22.910,LearnStrategy,2023.2.3,MacIntel,63.29113924,1,1,7,-0.003505679,0.023970936,1,0,0,0.8622,rock_grid_rect_2,5,08,-1,-1,0.862,-0.374635258,-0.400609334,1,0,0,1.3719,Obsidian_rect,5,1.372,1,6,0,6,0,1,,,,,,,,,,,,,
6618870c888a5cea7655aea7,TCN,2024-06-24_16h02.22.910,LearnStrategy,2023.2.3,MacIntel,63.29113924,1,1,8,0.00597958,-0.009851018,1,0,0,1.082,rock_grid_rect_2,8,04,-1,-1,1.082,0.316340807,-0.390206796,1,0,0,1.6385,Pumice_rect,8,1.638,1,7,0,7,0,1,,,,,,,,,,,,,
6618870c888a5cea7655aea7,TCN,2024-06-24_16h02.22.910,LearnStrategy,2023.2.3,MacIntel,63.29113924,1,1,9,0.012835467,-0.002387266,1,0,0,1.0559,rock_grid_rect_2,7,04,-1,-1,1.056,-0.408405897,-0.253288495,1,0,0,2.9915,Andesite_rect,1,2.992,0,8,0,8,0,1,,,,,,,,,,,,,
6618870c888a5cea7655aea7,TCN,2024-06-24_16h02.22.910,LearnStrategy,2023.2.3,MacIntel,63.29113924,1,1,10,-0.020388116,-0.008902373,1,0,0,0.7971,rock_grid_rect_2,2,08,-1,-1,0.797,-0.341796027,-0.409808237,1,0,0,7.5687,Obsidian_rect,5,7.569,0,9,0,9,0,1,,,,,,,,,,,,,
6618870c888a5cea7655aea7,TCN,2024-06-24_16h02.22.910,LearnStrategy,2023.2.3,MacIntel,63.29113924,1,1,11,-0.02125165,0.003880932,1,0,0,0.8232,rock_grid_rect_2,3,15,-1,-1,0.823,0.039411474,-0.252135044,1,0,0,13.0662,Diorite_rect,3,13.066,1,10,0,10,0,1,,,,,,,,,,,,,
6618870c888a5cea7655aea7,TCN,2024-06-24_16h02.22.910,LearnStrategy,2023.2.3,MacIntel,63.29113924,1,1,12,-0.065518358,0.005542783,1,0,0,1.1454,rock_grid_rect_2,8,13,-1,-1,1.145,0.316249593,-0.390464726,1,0,0,1.6926,Pumice_rect,8,1.693,1,11,0,11,0,1,,,,,,,,,,,,,
6618870c888a5cea7655aea7,TCN,2024-06-24_16h02.22.910,LearnStrategy,2023.2.3,MacIntel,63.29113924,1,1,13,0.057017743,-0.004157285,1,0,0,0.8803,rock_grid_rect_2,2,14,-1,-1,0.88,0.38885159,-0.384283786,1,0,0,2.0065,Pumice_rect,8,2.006,0,12,0,12,0,1,,,,,,,,,,,,,
6618870c888a5cea7655aea7,TCN,2024-06-24_16h02.22.910,LearnStrategy,2023.2.3,MacIntel,63.29113924,1,1,14,0.031929751,0.015877618,1,0,0,0.9506,rock_grid_rect_2,4,14,-1,-1,0.951,-0.115181026,-0.263495495,1,0,0,5.903,Basalt_rect,2,5.903,0,13,0,13,0,1,,,,,,,,,,,,,
6618870c888a5cea7655aea7,TCN,2024-06-24_16h02.22.910,LearnStrategy,2023.2.3,MacIntel,63.29113924,1,1,15,0.005319496,-0.013185346,1,0,0,1.065,rock_grid_rect_2,5,04,-1,-1,1.065,-0.303104994,-0.397983014,1,0,0,1.2752,Obsidian_rect,5,1.275,1,14,0,14,0,1,,,,,,,,,,,,,
6618870c888a5cea7655aea7,TCN,2024-06-24_16h02.22.910,LearnStrategy,2023.2.3,MacIntel,63.29113924,1,1,16,-0.027634571,0.014033734,1,0,0,0.8293,rock_grid_rect_2,1,05,-1,-1,0.829,0.06768358,-0.394027766,1,0,0,9.9519,Peridotite_rect,7,9.952,0,15,0,15,0,1,,,,,,,,,,,,,
6618870c888a5cea7655aea7,TCN,2024-06-24_16h02.22.910,LearnStrategy,2023.2.3,MacIntel,63.29113924,1,2,1,,,,,,,,4,10,,,,,,,,,,,4,4.683,1,,,,,,0.412647276,-0.256285943,1,0,0,4.683,Gabbro_rect,0,0,0,0,1,
6618870c888a5cea7655aea7,TCN,2024-06-24_16h02.22.910,LearnStrategy,2023.2.3,MacIntel,63.29113924,1,2,2,,,,,,,,5,02,,,,,,,,,,,5,1.341,1,,,,,,-0.347655685,-0.391831688,1,0,0,1.3411,Obsidian_rect,1,0,1,0,1,
6618870c888a5cea7655aea7,TCN,2024-06-24_16h02.22.910,LearnStrategy,2023.2.3,MacIntel,63.29113924,1,2,3,,,,,,,,4,16,,,,,,,,,,,2,3.19,0,,,,,,-0.14902745,-0.239010055,1,0,0,3.19,Basalt_rect,2,0,2,0,1,
6618870c888a5cea7655aea7,TCN,2024-06-24_16h02.22.910,LearnStrategy,2023.2.3,MacIntel,63.29113924,1,2,4,,,,,,,,1,10,,,,,,,,,,,1,12.565,1,,,,,,-0.360492848,-0.263874308,1,0,0,12.5653,Andesite_rect,3,0,3,0,1,
6618870c888a5cea7655aea7,TCN,2024-06-24_16h02.22.910,LearnStrategy,2023.2.3,MacIntel,63.29113924,1,2,5,,,,,,,,2,02,,,,,,,,,,,4,21.274,0,,,,,,0.350550786,-0.266388505,1,0,0,21.2742,Gabbro_rect,4,0,4,0,1,
6618870c888a5cea7655aea7,TCN,2024-06-24_16h02.22.910,LearnStrategy,2023.2.3,MacIntel,63.29113924,1,2,6,,,,,,,,6,16,,,,,,,,,,,7,10.566,0,,,,,,0.065114791,-0.416736292,1,0,0,10.5661,Peridotite_rect,5,0,5,0,1,
6618870c888a5cea7655aea7,TCN,2024-06-24_16h02.22.910,LearnStrategy,2023.2.3,MacIntel,63.29113924,1,2,7,,,,,,,,2,10,,,,,,,,,,,2,17.664,1,,,,,,-0.097103938,-0.2664197,1,0,0,17.6641,Basalt_rect,6,0,6,0,1,
6618870c888a5cea7655aea7,TCN,2024-06-24_16h02.22.910,LearnStrategy,2023.2.3,MacIntel,63.29113924,1,2,8,,,,,,,,7,10,,,,,,,,,,,7,13.614,1,,,,,,0.048195846,-0.401335709,1,0,0,13.6145,Peridotite_rect,7,0,7,0,1,
6618870c888a5cea7655aea7,TCN,2024-06-24_16h02.22.910,LearnStrategy,2023.2.3,MacIntel,63.29113924,1,2,9,,,,,,,,1,09,,,,,,,,,,,4,4.457,0,,,,,,0.352081299,-0.252306281,1,0,0,4.4571,Gabbro_rect,8,0,8,0,1,
6618870c888a5cea7655aea7,TCN,2024-06-24_16h02.22.910,LearnStrategy,2023.2.3,MacIntel,63.29113924,1,2,10,,,,,,,,3,16,,,,,,,,,,,3,4.705,1,,,,,,0.113189697,-0.260393609,1,0,0,4.7048,Diorite_rect,9,0,9,0,1,
6618870c888a5cea7655aea7,TCN,2024-06-24_16h02.22.910,LearnStrategy,2023.2.3,MacIntel,63.29113924,1,2,11,,,,,,,,7,05,,,,,,,,,,,3,43.816,0,,,,,,0.107953785,-0.26130422,1,0,0,43.8162,Diorite_rect,10,0,10,0,1,
6618870c888a5cea7655aea7,TCN,2024-06-24_16h02.22.910,LearnStrategy,2023.2.3,MacIntel,63.29113924,1,2,12,,,,,,,,5,10,,,,,,,,,,,5,1.307,1,,,,,,-0.424565125,-0.39941994,1,0,0,1.3067,Obsidian_rect,11,0,11,0,1,
6618870c888a5cea7655aea7,TCN,2024-06-24_16h02.22.910,LearnStrategy,2023.2.3,MacIntel,63.29113924,1,2,13,,,,,,,,8,15,,,,,,,,,,,8,1.074,1,,,,,,0.338100179,-0.406006425,1,0,0,1.0744,Pumice_rect,12,0,12,0,1,
6618870c888a5cea7655aea7,TCN,2024-06-24_16h02.22.910,LearnStrategy,2023.2.3,MacIntel,63.29113924,1,2,14,,,,,,,,8,08,,,,,,,,,,,8,1.826,1,,,,,,0.338767158,-0.390949278,1,0,0,1.8259,Pumice_rect,13,0,13,0,1,
6618870c888a5cea7655aea7,TCN,2024-06-24_16h02.22.910,LearnStrategy,2023.2.3,MacIntel,63.29113924,1,2,15,,,,,,,,3,06,,,,,,,,,,,3,2.544,1,,,,,,0.136353556,-0.257879074,1,0,0,2.5443,Diorite_rect,14,0,14,0,1,
6618870c888a5cea7655aea7,TCN,2024-06-24_16h02.22.910,LearnStrategy,2023.2.3,MacIntel,63.29113924,1,2,16,,,,,,,,6,05,,,,,,,,,,,6,7.918,1,,,,,,-0.142068312,-0.379585718,1,0,0,7.9181,Pegmatite_rect,15,0,15,0,1,
6618870c888a5cea7655aea7,TCN,2024-06-24_16h02.22.910,LearnStrategy,2023.2.3,MacIntel,63.29113924,2,1,1,0.077096332,0.006050223,1,0,0,1.6461,rock_grid_rect_2,8,16,-1,-1,1.646,0.351049353,-0.39737108,1,0,0,2.3255,Pumice_rect,8,2.325,1,0,0,0,0,1,,,,,,,,,,,,,
6618870c888a5cea7655aea7,TCN,2024-06-24_16h02.22.910,LearnStrategy,2023.2.3,MacIntel,63.29113924,2,1,2,0.008325195,0.017846962,1,0,0,0.8632,rock_grid_rect_2,6,06,-1,-1,0.863,-0.11552367,-0.392270237,1,0,0,3.1574,Pegmatite_rect,6,3.157,1,1,0,1,0,1,,,,,,,,,,,,,
6618870c888a5cea7655aea7,TCN,2024-06-24_16h02.22.910,LearnStrategy,2023.2.3,MacIntel,63.29113924,2,1,3,0.012694239,-0.013236604,1,0,0,1.0961,rock_grid_rect_2,4,05,-1,-1,1.096,0.44726766,-0.268483028,1,0,0,3.8183,Gabbro_rect,4,3.818,1,2,0,2,0,1,,,,,,,,,,,,,
6618870c888a5cea7655aea7,TCN,2024-06-24_16h02.22.910,LearnStrategy,2023.2.3,MacIntel,63.29113924,2,1,4,-0.05599693,0.000467823,1,0,0,3.0805,rock_grid_rect_2,2,04,-1,-1,3.081,-0.11771455,-0.234375057,1,0,0,4.5729,Basalt_rect,2,4.573,1,3,0,3,0,1,,,,,,,,,,,,,
6618870c888a5cea7655aea7,TCN,2024-06-24_16h02.22.910,LearnStrategy,2023.2.3,MacIntel,63.29113924,2,1,5,0.011497328,-0.00417893,1,0,0,0.847,rock_grid_rect_2,5,16,-1,-1,0.847,-0.343018934,-0.413831358,1,0,0,1.2044,Obsidian_rect,5,1.204,1,4,0,4,0,1,,,,,,,,,,,,,
6618870c888a5cea7655aea7,TCN,2024-06-24_16h02.22.910,LearnStrategy,2023.2.3,MacIntel,63.29113924,2,1,6,-0.024162971,-0.013885159,1,0,0,0.8154,rock_grid_rect_2,2,11,-1,-1,0.815,0.401751709,-0.230923971,1,0,0,6.5555,Gabbro_rect,4,6.556,0,5,0,5,0,1,,,,,,,,,,,,,
6618870c888a5cea7655aea7,TCN,2024-06-24_16h02.22.910,LearnStrategy,2023.2.3,MacIntel,63.29113924,2,1,7,-0.013609031,-0.017866573,1,0,0,0.9473,rock_grid_rect_2,8,09,-1,-1,0.947,0.351497057,-0.392621302,1,0,0,1.2251,Pumice_rect,8,1.225,1,6,0,6,0,1,,,,,,,,,,,,,
6618870c888a5cea7655aea7,TCN,2024-06-24_16h02.22.910,LearnStrategy,2023.2.3,MacIntel,63.29113924,2,1,8,-0.025404527,-0.024111656,1,0,0,0.9472,rock_grid_rect_2,6,15,-1,-1,0.947,-0.104535421,-0.388660403,1,0,0,4.3548,Pegmatite_rect,6,4.355,1,7,0,7,0,1,,,,,,,,,,,,,
6618870c888a5cea7655aea7,TCN,2024-06-24_16h02.22.910,LearnStrategy,2023.2.3,MacIntel,63.29113924,2,1,9,0.001754139,-0.020803776,1,0,0,0.9141,rock_grid_rect_2,5,11,-1,-1,0.914,-0.380959518,-0.409619988,1,0,0,1.0714,Obsidian_rect,5,1.071,1,8,0,8,0,1,,,,,,,,,,,,,
6618870c888a5cea7655aea7,TCN,2024-06-24_16h02.22.910,LearnStrategy,2023.2.3,MacIntel,63.29113924,2,1,10,-0.013535959,-0.019094623,1,0,0,1.0636,rock_grid_rect_2,1,07,-1,-1,1.064,0.148006185,-0.257019608,1,0,0,2.743,Diorite_rect,3,2.743,0,9,0,9,0,1,,,,,,,,,,,,,
6618870c888a5cea7655aea7,TCN,2024-06-24_16h02.22.910,LearnStrategy,2023.2.3,MacIntel,63.29113924,2,1,11,0.011208202,0.008896722,1,0,0,0.8287,rock_grid_rect_2,3,14,-1,-1,0.829,0.101604659,-0.240952216,1,0,0,1.6093,Diorite_rect,3,1.609,1,10,0,10,0,1,,,,,,,,,,,,,
6618870c888a5cea7655aea7,TCN,2024-06-24_16h02.22.910,LearnStrategy,2023.2.3,MacIntel,63.29113924,2,1,12,-0.014946606,-0.002422191,1,0,0,0.8485,rock_grid_rect_2,7,06,-1,-1,0.849,-0.043842796,-0.405192453,1,0,0,7.7527,Pegmatite_rect,6,7.753,0,11,0,11,0,1,,,,,,,,,,,,,
6618870c888a5cea7655aea7,TCN,2024-06-24_16h02.22.910,LearnStrategy,2023.2.3,MacIntel,63.29113924,2,1,13,0.036222557,-0.017416495,1,0,0,0.7639,rock_grid_rect_2,4,09,-1,-1,0.764,0.398115144,-0.256500583,1,0,0,5.9025,Gabbro_rect,4,5.902,1,12,0,12,0,1,,,,,,,,,,,,,
6618870c888a5cea7655aea7,TCN,2024-06-24_16h02.22.910,LearnStrategy,2023.2.3,MacIntel,63.29113924,2,1,14,-0.075416508,-0.012698986,1,0,0,1.0463,rock_grid_rect_2,3,12,-1,-1,1.046,0.144754706,-0.240191481,1,0,0,3.9891,Diorite_rect,3,3.989,1,13,0,13,0,1,,,,,,,,,,,,,
6618870c888a5cea7655aea7,TCN,2024-06-24_16h02.22.910,LearnStrategy,2023.2.3,MacIntel,63.29113924,2,1,15,-0.029893437,-0.017716923,1,0,0,0.8602,rock_grid_rect_2,7,15,-1,-1,0.86,-0.114058883,-0.410781013,1,0,0,11.785,Pegmatite_rect,6,11.785,0,14,0,14,0,1,,,,,,,,,,,,,
6618870c888a5cea7655aea7,TCN,2024-06-24_16h02.22.910,LearnStrategy,2023.2.3,MacIntel,63.29113924,2,1,16,-0.022189557,-0.008291061,1,0,0,0.9963,rock_grid_rect_2,1,11,-1,-1,0.996,0.079445055,-0.393793968,1,0,0,6.6547,Peridotite_rect,7,6.655,0,15,0,15,0,1,,,,,,,,,,,,,
6618870c888a5cea7655aea7,TCN,2024-06-24_16h02.22.910,LearnStrategy,2023.2.3,MacIntel,63.29113924,2,2,1,,,,,,,,1,01,,,,,,,,,,,4,9.902,0,,,,,,0.365490158,-0.254719713,1,0,0,9.9021,Gabbro_rect,0,0,0,0,1,
6618870c888a5cea7655aea7,TCN,2024-06-24_16h02.22.910,LearnStrategy,2023.2.3,MacIntel,63.29113924,2,2,2,,,,,,,,6,08,,,,,,,,,,,6,10.381,1,,,,,,-0.073657453,-0.412230089,1,0,0,10.3815,Pegmatite_rect,1,0,1,0,1,
6618870c888a5cea7655aea7,TCN,2024-06-24_16h02.22.910,LearnStrategy,2023.2.3,MacIntel,63.29113924,2,2,3,,,,,,,,3,10,,,,,,,,,,,3,9.081,1,,,,,,0.130483783,-0.261096022,1,0,0,9.0814,Diorite_rect,2,0,2,0,1,
6618870c888a5cea7655aea7,TCN,2024-06-24_16h02.22.910,LearnStrategy,2023.2.3,MacIntel,63.29113924,2,2,4,,,,,,,,8,03,,,,,,,,,,,8,1.385,1,,,,,,0.321402995,-0.392118835,1,0,0,1.3852,Pumice_rect,3,0,3,0,1,
6618870c888a5cea7655aea7,TCN,2024-06-24_16h02.22.910,LearnStrategy,2023.2.3,MacIntel,63.29113924,2,2,5,,,,,,,,5,09,,,,,,,,,,,5,1.106,1,,,,,,-0.383705422,-0.409875714,1,0,0,1.1059,Obsidian_rect,4,0,4,0,1,
6618870c888a5cea7655aea7,TCN,2024-06-24_16h02.22.910,LearnStrategy,2023.2.3,MacIntel,63.29113924,2,2,6,,,,,,,,4,15,,,,,,,,,,,1,6.504,0,,,,,,-0.346832614,-0.260789094,1,0,0,6.5044,Andesite_rect,5,0,5,0,1,
6618870c888a5cea7655aea7,TCN,2024-06-24_16h02.22.910,LearnStrategy,2023.2.3,MacIntel,63.29113924,2,2,7,,,,,,,,3,09,,,,,,,,,,,3,5.119,1,,,,,,0.124421296,-0.263859389,1,0,0,5.1188,Diorite_rect,6,0,6,0,1,
6618870c888a5cea7655aea7,TCN,2024-06-24_16h02.22.910,LearnStrategy,2023.2.3,MacIntel,63.29113924,2,2,8,,,,,,,,8,10,,,,,,,,,,,8,1.472,1,,,,,,0.332839853,-0.391348041,1,0,0,1.4722,Pumice_rect,7,0,7,0,1,
6618870c888a5cea7655aea7,TCN,2024-06-24_16h02.22.910,LearnStrategy,2023.2.3,MacIntel,63.29113924,2,2,9,,,,,,,,1,06,,,,,,,,,,,1,19.241,1,,,,,,-0.426150174,-0.259342052,1,0,0,19.2411,Andesite_rect,8,0,8,0,1,
6618870c888a5cea7655aea7,TCN,2024-06-24_16h02.22.910,LearnStrategy,2023.2.3,MacIntel,63.29113924,2,2,10,,,,,,,,6,09,,,,,,,,,,,6,10.933,1,,,,,,-0.152309729,-0.402167878,1,0,0,10.9326,Pegmatite_rect,9,0,9,0,1,
6618870c888a5cea7655aea7,TCN,2024-06-24_16h02.22.910,LearnStrategy,2023.2.3,MacIntel,63.29113924,2,2,11,,,,,,,,7,07,,,,,,,,,,,7,12.845,1,,,,,,0.076901132,-0.4006034,1,0,0,12.8447,Peridotite_rect,10,0,10,0,1,
6618870c888a5cea7655aea7,TCN,2024-06-24_16h02.22.910,LearnStrategy,2023.2.3,MacIntel,63.29113924,2,2,12,,,,,,,,2,09,,,,,,,,,,,4,21.254,0,,,,,,0.334880348,-0.258978215,1,0,0,21.2535,Gabbro_rect,11,0,11,0,1,
6618870c888a5cea7655aea7,TCN,2024-06-24_16h02.22.910,LearnStrategy,2023.2.3,MacIntel,63.29113924,2,2,13,,,,,,,,2,12,,,,,,,,,,,4,5.07,0,,,,,,0.330329273,-0.260172865,1,0,0,5.0698,Gabbro_rect,12,0,12,0,1,
6618870c888a5cea7655aea7,TCN,2024-06-24_16h02.22.910,LearnStrategy,2023.2.3,MacIntel,63.29113924,2,2,14,,,,,,,,7,02,,,,,,,,,,,7,14.347,1,,,,,,0.097640313,-0.408653937,1,0,0,14.3469,Peridotite_rect,13,0,13,0,1,
6618870c888a5cea7655aea7,TCN,2024-06-24_16h02.22.910,LearnStrategy,2023.2.3,MacIntel,63.29113924,2,2,15,,,,,,,,4,03,,,,,,,,,,,3,10.586,0,,,,,,0.088958966,-0.260202705,1,0,0,10.5859,Diorite_rect,14,0,14,0,1,
6618870c888a5cea7655aea7,TCN,2024-06-24_16h02.22.910,LearnStrategy,2023.2.3,MacIntel,63.29113924,2,2,16,,,,,,,,5,06,,,,,,,,,,,5,2.373,1,,,,,,-0.411681564,-0.409095934,1,0,0,2.3731,Obsidian_rect,15,0,15,0,1,
6618870c888a5cea7655aea7,TCN,2024-06-24_16h02.22.910,LearnStrategy,2023.2.3,MacIntel,63.29113924,3,1,1,-0.036358756,0.003075494,1,0,0,2.0793,rock_grid_rect_2,1,03,-1,-1,2.079,0.336182997,-0.251602568,1,0,0,13.5663,Gabbro_rect,4,13.566,0,0,0,0,0,1,,,,,,,,,,,,,
6618870c888a5cea7655aea7,TCN,2024-06-24_16h02.22.910,LearnStrategy,2023.2.3,MacIntel,63.29113924,3,1,2,0.001926224,-0.024927888,1,0,0,1.0046,rock_grid_rect_2,7,13,-1,-1,1.005,-0.366268186,-0.259978796,1,0,0,6.2046,Andesite_rect,1,6.205,0,1,0,1,0,1,,,,,,,,,,,,,
6618870c888a5cea7655aea7,TCN,2024-06-24_16h02.22.910,LearnStrategy,2023.2.3,MacIntel,63.29113924,3,1,3,-0.009233093,-0.014547447,1,0,0,0.8721,rock_grid_rect_2,3,08,-1,-1,0.872,0.117821022,-0.248230715,1,0,0,1.5098,Diorite_rect,3,1.51,1,2,0,2,0,1,,,,,,,,,,,,,
6618870c888a5cea7655aea7,TCN,2024-06-24_16h02.22.910,LearnStrategy,2023.2.3,MacIntel,63.29113924,3,1,4,-0.005777882,-0.014779663,1,0,0,0.9628,rock_grid_rect_2,6,10,-1,-1,0.963,0.081248644,-0.378031921,1,0,0,3.2038,Peridotite_rect,7,3.204,0,3,0,3,0,1,,,,,,,,,,,,,
6618870c888a5cea7655aea7,TCN,2024-06-24_16h02.22.910,LearnStrategy,2023.2.3,MacIntel,63.29113924,3,1,5,-0.08336792,0.001893955,1,0,0,1.6538,rock_grid_rect_2,8,02,-1,-1,1.654,0.331349013,-0.395900585,1,0,0,1.4097,Pumice_rect,8,1.41,1,4,0,4,0,1,,,,,,,,,,,,,
6618870c888a5cea7655aea7,TCN,2024-06-24_16h02.22.910,LearnStrategy,2023.2.3,MacIntel,63.29113924,3,1,6,-0.002317641,0.010158398,1,0,0,1.03,rock_grid_rect_2,2,05,-1,-1,1.03,0.34668387,-0.240286424,1,0,0,2.5081,Gabbro_rect,4,2.508,0,5,0,5,0,1,,,,,,,,,,,,,
6618870c888a5cea7655aea7,TCN,2024-06-24_16h02.22.910,LearnStrategy,2023.2.3,MacIntel,63.29113924,3,1,7,0.016413823,-0.00124636,1,0,0,0.8485,rock_grid_rect_2,7,16,-1,-1,0.849,0.382033058,-0.259660565,1,0,0,26.1847,Gabbro_rect,4,26.185,0,6,0,6,0,1,,,,,,,,,,,,,
6618870c888a5cea7655aea7,TCN,2024-06-24_16h02.22.910,LearnStrategy,2023.2.3,MacIntel,63.29113924,3,1,8,0.000615212,-0.008941424,1,0,0,0.8405,rock_grid_rect_2,2,06,-1,-1,0.841,-0.076570186,-0.252399529,1,0,0,2.2232,Basalt_rect,2,2.223,1,7,0,7,0,1,,,,,,,,,,,,,
6618870c888a5cea7655aea7,TCN,2024-06-24_16h02.22.910,LearnStrategy,2023.2.3,MacIntel,63.29113924,3,1,9,-0.043330666,0.000240919,1,0,0,0.7893,rock_grid_rect_2,5,05,-1,-1,0.789,-0.350399328,-0.387877796,1,0,0,1.5449,Obsidian_rect,5,1.545,1,8,0,8,0,1,,,,,,,,,,,,,
6618870c888a5cea7655aea7,TCN,2024-06-24_16h02.22.910,LearnStrategy,2023.2.3,MacIntel,63.29113924,3,1,10,0.038996774,0.010870361,1,0,0,1.247,rock_grid_rect_2,6,13,-1,-1,1.247,-0.12852981,-0.415934697,1,0,0,11.3636,Pegmatite_rect,6,11.364,1,9,0,9,0,1,,,,,,,,,,,,,
6618870c888a5cea7655aea7,TCN,2024-06-24_16h02.22.910,LearnStrategy,2023.2.3,MacIntel,63.29113924,3,1,11,0.010766149,-0.010844365,1,0,0,0.902,rock_grid_rect_2,1,02,-1,-1,0.902,0.211182884,-0.239001126,1,0,0,11.0829,Diorite_rect,3,11.083,0,10,0,10,0,1,,,,,,,,,,,,,
6618870c888a5cea7655aea7,TCN,2024-06-24_16h02.22.910,LearnStrategy,2023.2.3,MacIntel,63.29113924,3,1,12,-0.00411863,-0.005128988,1,0,0,2.4552,rock_grid_rect_2,5,07,-1,-1,2.455,-0.344882089,-0.395736016,1,0,0,2.4711,Obsidian_rect,5,2.471,1,11,0,11,0,1,,,,,,,,,,,,,
6618870c888a5cea7655aea7,TCN,2024-06-24_16h02.22.910,LearnStrategy,2023.2.3,MacIntel,63.29113924,3,1,13,0.056725848,0.002221058,1,0,0,1.0636,rock_grid_rect_2,3,07,-1,-1,1.064,0.165978552,-0.248443999,1,0,0,1.7402,Diorite_rect,3,1.74,1,12,0,12,0,1,,,,,,,,,,,,,
6618870c888a5cea7655aea7,TCN,2024-06-24_16h02.22.910,LearnStrategy,2023.2.3,MacIntel,63.29113924,3,1,14,0.027905386,-0.02129867,1,0,0,0.7821,rock_grid_rect_2,4,12,-1,-1,0.782,0.330175894,-0.251362327,1,0,0,4.8695,Gabbro_rect,4,4.87,1,13,0,13,0,1,,,,,,,,,,,,,
6618870c888a5cea7655aea7,TCN,2024-06-24_16h02.22.910,LearnStrategy,2023.2.3,MacIntel,63.29113924,3,1,15,-0.018007067,-0.023586471,1,0,0,0.8969,rock_grid_rect_2,4,01,-1,-1,0.897,-0.369407315,-0.240369783,1,0,0,9.0663,Andesite_rect,1,9.066,0,14,0,14,0,1,,,,,,,,,,,,,
6618870c888a5cea7655aea7,TCN,2024-06-24_16h02.22.910,LearnStrategy,2023.2.3,MacIntel,63.29113924,3,1,16,-0.032698737,0.002786085,1,0,0,0.9194,rock_grid_rect_2,8,05,-1,-1,0.919,0.408501971,-0.406358111,1,0,0,1.189,Pumice_rect,8,1.189,1,15,0,15,0,1,,,,,,,,,,,,,
6618870c888a5cea7655aea7,TCN,2024-06-24_16h02.22.910,LearnStrategy,2023.2.3,MacIntel,63.29113924,3,2,1,,,,,,,,4,11,,,,,,,,,,,4,7.337,1,,,,,,0.336114276,-0.249030784,1,0,0,7.3366,Gabbro_rect,0,0,0,0,1,
6618870c888a5cea7655aea7,TCN,2024-06-24_16h02.22.910,LearnStrategy,2023.2.3,MacIntel,63.29113924,3,2,2,,,,,,,,1,16,,,,,,,,,,,3,25.568,0,,,,,,0.12757071,-0.249069327,1,0,0,25.5682,Diorite_rect,1,0,1,0,1,
6618870c888a5cea7655aea7,TCN,2024-06-24_16h02.22.910,LearnStrategy,2023.2.3,MacIntel,63.29113924,3,2,3,,,,,,,,8,14,,,,,,,,,,,8,1.111,1,,,,,,0.4105523,-0.380601445,1,0,0,1.1105,Pumice_rect,2,0,2,0,1,
6618870c888a5cea7655aea7,TCN,2024-06-24_16h02.22.910,LearnStrategy,2023.2.3,MacIntel,63.29113924,3,2,4,,,,,,,,8,06,,,,,,,,,,,8,0.911,1,,,,,,0.399329291,-0.38890703,1,0,0,0.9112,Pumice_rect,3,0,3,0,1,
6618870c888a5cea7655aea7,TCN,2024-06-24_16h02.22.910,LearnStrategy,2023.2.3,MacIntel,63.29113924,3,2,5,,,,,,,,4,13,,,,,,,,,,,1,15.762,0,,,,,,-0.400272059,-0.27167268,1,0,0,15.7621,Andesite_rect,4,0,4,0,1,
6618870c888a5cea7655aea7,TCN,2024-06-24_16h02.22.910,LearnStrategy,2023.2.3,MacIntel,63.29113924,3,2,6,,,,,,,,5,14,,,,,,,,,,,5,1.489,1,,,,,,-0.345683006,-0.403494884,1,0,0,1.4886,Obsidian_rect,5,0,5,0,1,
6618870c888a5cea7655aea7,TCN,2024-06-24_16h02.22.910,LearnStrategy,2023.2.3,MacIntel,63.29113924,3,2,7,,,,,,,,7,14,,,,,,,,,,,6,43.37,0,,,,,,-0.090820256,-0.396523539,1,0,0,43.3704,Pegmatite_rect,6,0,6,0,1,
6618870c888a5cea7655aea7,TCN,2024-06-24_16h02.22.910,LearnStrategy,2023.2.3,MacIntel,63.29113924,3,2,8,,,,,,,,2,16,,,,,,,,,,,2,12.746,1,,,,,,-0.085015869,-0.24785761,1,0,0,12.7461,Basalt_rect,7,0,7,0,1,
6618870c888a5cea7655aea7,TCN,2024-06-24_16h02.22.910,LearnStrategy,2023.2.3,MacIntel,63.29113924,3,2,9,,,,,,,,5,12,,,,,,,,,,,5,1.342,1,,,,,,-0.331687927,-0.410911108,1,0,0,1.3418,Obsidian_rect,8,0,8,0,1,
6618870c888a5cea7655aea7,TCN,2024-06-24_16h02.22.910,LearnStrategy,2023.2.3,MacIntel,63.29113924,3,2,10,,,,,,,,2,01,,,,,,,,,,,2,13.911,1,,,,,,-0.170527705,-0.266160753,1,0,0,13.9115,Basalt_rect,9,0,9,0,1,
6618870c888a5cea7655aea7,TCN,2024-06-24_16h02.22.910,LearnStrategy,2023.2.3,MacIntel,63.29113924,3,2,11,,,,,,,,6,12,,,,,,,,,,,6,11.997,1,,,,,,-0.083117676,-0.402765966,1,0,0,11.9966,Pegmatite_rect,10,0,10,0,1,
6618870c888a5cea7655aea7,TCN,2024-06-24_16h02.22.910,LearnStrategy,2023.2.3,MacIntel,63.29113924,3,2,12,,,,,,,,3,02,,,,,,,,,,,3,5.255,1,,,,,,0.055855532,-0.261996121,1,0,0,5.2547,Diorite_rect,11,0,11,0,1,
6618870c888a5cea7655aea7,TCN,2024-06-24_16h02.22.910,LearnStrategy,2023.2.3,MacIntel,63.29113924,3,2,13,,,,,,,,1,14,,,,,,,,,,,7,13.831,0,,,,,,0.085286458,-0.40458634,1,0,0,13.8306,Peridotite_rect,12,0,12,0,1,
6618870c888a5cea7655aea7,TCN,2024-06-24_16h02.22.910,LearnStrategy,2023.2.3,MacIntel,63.29113924,3,2,14,,,,,,,,7,08,,,,,,,,,,,7,6.369,1,,,,,,0.083237599,-0.400033343,1,0,0,6.3686,Peridotite_rect,13,0,13,0,1,
6618870c888a5cea7655aea7,TCN,2024-06-24_16h02.22.910,LearnStrategy,2023.2.3,MacIntel,63.29113924,3,2,15,,,,,,,,3,13,,,,,,,,,,,7,10.867,0,,,,,,0.128227177,-0.397820028,1,0,0,10.8666,Peridotite_rect,14,0,14,0,1,
6618870c888a5cea7655aea7,TCN,2024-06-24_16h02.22.910,LearnStrategy,2023.2.3,MacIntel,63.29113924,3,2,16,,,,,,,,6,11,,,,,,,,,,,6,4.319,1,,,,,,-0.129743675,-0.389000222,1,0,0,4.3194,Pegmatite_rect,15,0,15,0,1,
6618870c888a5cea7655aea7,TCN,2024-06-24_16h02.22.910,LearnStrategy,2023.2.3,MacIntel,63.29113924,4,1,1,-0.006533474,0.008443253,1,0,0,1.645,rock_grid_rect_2,8,16,-1,-1,1.645,0.322493942,-0.391934148,1,0,0,1.2208,Pumice_rect,8,1.221,1,0,0,0,0,1,,,,,,,,,,,,,
6618870c888a5cea7655aea7,TCN,2024-06-24_16h02.22.910,LearnStrategy,2023.2.3,MacIntel,63.29113924,4,1,2,0.001786296,-0.009514307,1,0,0,1.0988,rock_grid_rect_2,4,01,-1,-1,1.099,0.329890611,-0.244657107,1,0,0,19.8722,Gabbro_rect,4,19.872,1,1,0,1,0,1,,,,,,,,,,,,,
6618870c888a5cea7655aea7,TCN,2024-06-24_16h02.22.910,LearnStrategy,2023.2.3,MacIntel,63.29113924,4,1,3,0.009762856,-0.006337484,1,0,0,1.4138,rock_grid_rect_2,5,08,-1,-1,1.414,-0.420445591,-0.394193353,1,0,0,1.2589,Obsidian_rect,5,1.259,1,2,0,2,0,1,,,,,,,,,,,,,
6618870c888a5cea7655aea7,TCN,2024-06-24_16h02.22.910,LearnStrategy,2023.2.3,MacIntel,63.29113924,4,1,4,-0.029976852,-0.019451678,1,0,0,1.0634,rock_grid_rect_2,3,12,-1,-1,1.063,0.088041517,-0.2402745,1,0,0,1.7926,Diorite_rect,3,1.793,1,3,0,3,0,1,,,,,,,,,,,,,
6618870c888a5cea7655aea7,TCN,2024-06-24_16h02.22.910,LearnStrategy,2023.2.3,MacIntel,63.29113924,4,1,5,-0.038927318,-0.008964482,1,0,0,2.0973,rock_grid_rect_2,6,10,-1,-1,2.097,-0.089379544,-0.398152387,1,0,0,1.6562,Pegmatite_rect,6,1.656,1,4,0,4,0,1,,,,,,,,,,,,,
6618870c888a5cea7655aea7,TCN,2024-06-24_16h02.22.910,LearnStrategy,2023.2.3,MacIntel,63.29113924,4,1,6,-0.063059093,-0.008068848,1,0,0,1.0816,rock_grid_rect_2,1,04,-1,-1,1.082,-0.347908755,-0.249310077,1,0,0,1.9902,Andesite_rect,1,1.99,1,5,0,5,0,1,,,,,,,,,,,,,
6618870c888a5cea7655aea7,TCN,2024-06-24_16h02.22.910,LearnStrategy,2023.2.3,MacIntel,63.29113924,4,1,7,-0.00481946,-0.012065181,1,0,0,0.9978,rock_grid_rect_2,6,03,-1,-1,0.998,-0.09736509,-0.392587619,1,0,0,1.7067,Pegmatite_rect,6,1.707,1,6,0,6,0,1,,,,,,,,,,,,,
6618870c888a5cea7655aea7,TCN,2024-06-24_16h02.22.910,LearnStrategy,2023.2.3,MacIntel,63.29113924,4,1,8,-0.026216521,-0.018726603,1,0,0,1.0135,rock_grid_rect_2,7,06,-1,-1,1.014,0.083836534,-0.392740546,1,0,0,4.8027,Peridotite_rect,7,4.803,1,7,0,7,0,1,,,,,,,,,,,,,
6618870c888a5cea7655aea7,TCN,2024-06-24_16h02.22.910,LearnStrategy,2023.2.3,MacIntel,63.29113924,4,1,9,-0.040197076,-0.021461543,1,0,0,0.8774,rock_grid_rect_2,5,11,-1,-1,0.877,-0.382679862,-0.41102894,1,0,0,1.1095,Obsidian_rect,5,1.11,1,8,0,8,0,1,,,,,,,,,,,,,
6618870c888a5cea7655aea7,TCN,2024-06-24_16h02.22.910,LearnStrategy,2023.2.3,MacIntel,63.29113924,4,1,10,-0.014079172,-0.022412901,1,0,0,1.0484,rock_grid_rect_2,7,13,-1,-1,1.048,0.156579251,-0.390506716,1,0,0,9.9804,Peridotite_rect,7,9.98,1,9,0,9,0,1,,,,,,,,,,,,,
6618870c888a5cea7655aea7,TCN,2024-06-24_16h02.22.910,LearnStrategy,2023.2.3,MacIntel,63.29113924,4,1,11,0.01292702,-0.006414173,1,0,0,0.9985,rock_grid_rect_2,3,14,-1,-1,0.999,0.127050329,-0.247030075,1,0,0,1.1387,Diorite_rect,3,1.139,1,10,0,10,0,1,,,,,,,,,,,,,
6618870c888a5cea7655aea7,TCN,2024-06-24_16h02.22.910,LearnStrategy,2023.2.3,MacIntel,63.29113924,4,1,12,-0.035045765,-0.022960069,1,0,0,0.8968,rock_grid_rect_2,8,04,-1,-1,0.897,0.366713686,-0.3919333,1,0,0,1.0266,Pumice_rect,8,1.027,1,11,0,11,0,1,,,,,,,,,,,,,
6618870c888a5cea7655aea7,TCN,2024-06-24_16h02.22.910,LearnStrategy,2023.2.3,MacIntel,63.29113924,4,1,13,-0.016371889,0.012263093,1,0,0,0.881,rock_grid_rect_2,1,03,-1,-1,0.881,0.388391904,-0.263214507,1,0,0,5.4007,Gabbro_rect,4,5.401,0,12,0,12,0,1,,,,,,,,,,,,,
6618870c888a5cea7655aea7,TCN,2024-06-24_16h02.22.910,LearnStrategy,2023.2.3,MacIntel,63.29113924,4,1,14,0.066001383,-0.014262729,1,0,0,0.9803,rock_grid_rect_2,2,11,-1,-1,0.98,-0.362991163,-0.243617927,1,0,0,1.8537,Andesite_rect,1,1.854,0,13,0,13,0,1,,,,,,,,,,,,,
6618870c888a5cea7655aea7,TCN,2024-06-24_16h02.22.910,LearnStrategy,2023.2.3,MacIntel,63.29113924,4,1,15,0.031183596,-0.00664232,1,0,0,0.9621,rock_grid_rect_2,2,04,-1,-1,0.962,-0.080856606,-0.263632033,1,0,0,1.494,Basalt_rect,2,1.494,1,14,0,14,0,1,,,,,,,,,,,,,
6618870c888a5cea7655aea7,TCN,2024-06-24_16h02.22.910,LearnStrategy,2023.2.3,MacIntel,63.29113924,4,1,16,0.029190403,-0.010877765,1,0,0,0.831,rock_grid_rect_2,4,12,-1,-1,0.831,-0.337303444,-0.245425415,1,0,0,2.0262,Andesite_rect,1,2.026,0,15,0,15,0,1,,,,,,,,,,,,,
6618870c888a5cea7655aea7,TCN,2024-06-24_16h02.22.910,LearnStrategy,2023.2.3,MacIntel,63.29113924,4,2,1,,,,,,,,3,06,,,,,,,,,,,3,3.771,1,,,,,,0.148936519,-0.26632227,1,0,0,3.7705,Diorite_rect,0,0,0,0,1,
6618870c888a5cea7655aea7,TCN,2024-06-24_16h02.22.910,LearnStrategy,2023.2.3,MacIntel,63.29113924,4,2,2,,,,,,,,7,08,,,,,,,,,,,7,10.332,1,,,,,,0.057020569,-0.41393167,1,0,0,10.3318,Peridotite_rect,1,0,1,0,1,
6618870c888a5cea7655aea7,TCN,2024-06-24_16h02.22.910,LearnStrategy,2023.2.3,MacIntel,63.29113924,4,2,3,,,,,,,,2,01,,,,,,,,,,,2,59.437,1,,,,,,-0.125301841,-0.24170973,1,0,0,59.4369,Basalt_rect,2,0,2,0,1,
6618870c888a5cea7655aea7,TCN,2024-06-24_16h02.22.910,LearnStrategy,2023.2.3,MacIntel,63.29113924,4,2,4,,,,,,,,1,09,,,,,,,,,,,1,2.654,1,,,,,,-0.343120773,-0.25104031,1,0,0,2.6545,Andesite_rect,3,0,3,0,1,
6618870c888a5cea7655aea7,TCN,2024-06-24_16h02.22.910,LearnStrategy,2023.2.3,MacIntel,63.29113924,4,2,5,,,,,,,,7,02,,,,,,,,,,,7,8.551,1,,,,,,0.060232996,-0.403088266,1,0,0,8.551,Peridotite_rect,4,0,4,0,1,
6618870c888a5cea7655aea7,TCN,2024-06-24_16h02.22.910,LearnStrategy,2023.2.3,MacIntel,63.29113924,4,2,6,,,,,,,,8,10,,,,,,,,,,,8,1.905,1,,,,,,0.341755281,-0.391761723,1,0,0,1.905,Pumice_rect,5,0,5,0,1,
6618870c888a5cea7655aea7,TCN,2024-06-24_16h02.22.910,LearnStrategy,2023.2.3,MacIntel,63.29113924,4,2,7,,,,,,,,1,06,,,,,,,,,,,1,4.738,1,,,,,,-0.394132035,-0.236459972,1,0,0,4.7382,Andesite_rect,6,0,6,0,1,
6618870c888a5cea7655aea7,TCN,2024-06-24_16h02.22.910,LearnStrategy,2023.2.3,MacIntel,63.29113924,4,2,8,,,,,,,,4,15,,,,,,,,,,,7,13.394,0,,,,,,0.121594351,-0.408148419,1,0,0,13.3937,Peridotite_rect,7,0,7,0,1,
6618870c888a5cea7655aea7,TCN,2024-06-24_16h02.22.910,LearnStrategy,2023.2.3,MacIntel,63.29113924,4,2,9,,,,,,,,6,16,,,,,,,,,,,6,4.819,1,,,,,,-0.100276806,-0.383148137,1,0,0,4.8188,Pegmatite_rect,8,0,8,0,1,
6618870c888a5cea7655aea7,TCN,2024-06-24_16h02.22.910,LearnStrategy,2023.2.3,MacIntel,63.29113924,4,2,10,,,,,,,,3,02,,,,,,,,,,,3,1.551,1,,,,,,0.059373418,-0.26281241,1,0,0,1.5512,Diorite_rect,9,0,9,0,1,
6618870c888a5cea7655aea7,TCN,2024-06-24_16h02.22.910,LearnStrategy,2023.2.3,MacIntel,63.29113924,4,2,11,,,,,,,,8,06,,,,,,,,,,,8,1.16,1,,,,,,0.348992242,-0.417777563,1,0,0,1.16,Pumice_rect,10,0,10,0,1,
6618870c888a5cea7655aea7,TCN,2024-06-24_16h02.22.910,LearnStrategy,2023.2.3,MacIntel,63.29113924,4,2,12,,,,,,,,5,09,,,,,,,,,,,5,1.036,1,,,,,,-0.407633803,-0.412422519,1,0,0,1.0361,Obsidian_rect,11,0,11,0,1,
6618870c888a5cea7655aea7,TCN,2024-06-24_16h02.22.910,LearnStrategy,2023.2.3,MacIntel,63.29113924,4,2,13,,,,,,,,2,16,,,,,,,,,,,2,1.627,1,,,,,,-0.171747617,-0.265448789,1,0,0,1.6266,Basalt_rect,12,0,12,0,1,
6618870c888a5cea7655aea7,TCN,2024-06-24_16h02.22.910,LearnStrategy,2023.2.3,MacIntel,63.29113924,4,2,14,,,,,,,,6,09,,,,,,,,,,,6,1.342,1,,,,,,-0.117166703,-0.394814611,1,0,0,1.3421,Pegmatite_rect,13,0,13,0,1,
6618870c888a5cea7655aea7,TCN,2024-06-24_16h02.22.910,LearnStrategy,2023.2.3,MacIntel,63.29113924,4,2,15,,,,,,,,4,03,,,,,,,,,,,3,4.54,0,,,,,,0.081676794,-0.257789555,1,0,0,4.5404,Diorite_rect,14,0,14,0,1,
6618870c888a5cea7655aea7,TCN,2024-06-24_16h02.22.910,LearnStrategy,2023.2.3,MacIntel,63.29113924,4,2,16,,,,,,,,5,14,,,,,,,,,,,5,0.994,1,,,,,,-0.387012566,-0.411517673,1,0,0,0.9939,Obsidian_rect,15,0,15,0,1,
6618870c888a5cea7655aea7,TCN,2024-06-24_16h02.22.910,LearnStrategy,2023.2.3,MacIntel,63.29113924,5,1,1,-0.050082341,-0.004561361,1,0,0,0.9303,rock_grid_rect_2,7,15,-1,-1,0.93,0.07585517,-0.408441671,1,0,0,8.2832,Peridotite_rect,7,8.283,1,0,0,0,0,1,,,,,,,,,,,,,
6618870c888a5cea7655aea7,TCN,2024-06-24_16h02.22.910,LearnStrategy,2023.2.3,MacIntel,63.29113924,5,1,2,-0.003031413,-0.00558986,1,0,0,0.9947,rock_grid_rect_2,1,02,-1,-1,0.995,-0.373131194,-0.250567062,1,0,0,2.9176,Andesite_rect,1,2.918,1,1,0,1,0,1,,,,,,,,,,,,,
6618870c888a5cea7655aea7,TCN,2024-06-24_16h02.22.910,LearnStrategy,2023.2.3,MacIntel,63.29113924,5,1,3,0.045033321,-0.018610636,1,0,0,0.9151,rock_grid_rect_2,3,11,-1,-1,0.915,0.129950177,-0.244532945,1,0,0,1.1733,Diorite_rect,3,1.173,1,2,0,2,0,1,,,,,,,,,,,,,
6618870c888a5cea7655aea7,TCN,2024-06-24_16h02.22.910,LearnStrategy,2023.2.3,MacIntel,63.29113924,5,1,4,-0.005886728,-0.001374308,1,0,0,0.8309,rock_grid_rect_2,1,05,-1,-1,0.831,-0.373187878,-0.249104027,1,0,0,2.7575,Andesite_rect,1,2.757,1,3,0,3,0,1,,,,,,,,,,,,,
6618870c888a5cea7655aea7,TCN,2024-06-24_16h02.22.910,LearnStrategy,2023.2.3,MacIntel,63.29113924,5,1,5,0.062994837,-0.002619934,1,0,0,0.7801,rock_grid_rect_2,6,07,-1,-1,0.78,-0.092373544,-0.405657676,1,0,0,5.3049,Pegmatite_rect,6,5.305,1,4,0,4,0,1,,,,,,,,,,,,,
6618870c888a5cea7655aea7,TCN,2024-06-24_16h02.22.910,LearnStrategy,2023.2.3,MacIntel,63.29113924,5,1,6,0.019009682,-0.015081731,1,0,0,0.8638,rock_grid_rect_2,7,16,-1,-1,0.864,0.346105053,-0.233512991,1,0,0,8.6042,Gabbro_rect,4,8.604,0,5,0,5,0,1,,,,,,,,,,,,,
6618870c888a5cea7655aea7,TCN,2024-06-24_16h02.22.910,LearnStrategy,2023.2.3,MacIntel,63.29113924,5,1,7,-0.017606269,-0.01741836,1,0,0,0.9328,rock_grid_rect_2,2,14,-1,-1,0.933,-0.12671181,-0.271184681,1,0,0,2.8224,Basalt_rect,2,2.822,1,6,0,6,0,1,,,,,,,,,,,,,
6618870c888a5cea7655aea7,TCN,2024-06-24_16h02.22.910,LearnStrategy,2023.2.3,MacIntel,63.29113924,5,1,8,0.014186322,0.008270942,1,0,0,1.2146,rock_grid_rect_2,5,16,-1,-1,1.215,-0.371648605,-0.397452686,1,0,0,1.291,Obsidian_rect,5,1.291,1,7,0,7,0,1,,,,,,,,,,,,,
6618870c888a5cea7655aea7,TCN,2024-06-24_16h02.22.910,LearnStrategy,2023.2.3,MacIntel,63.29113924,5,1,9,0.003385756,-0.017329633,1,0,0,0.9299,rock_grid_rect_2,8,05,-1,-1,0.93,0.353480021,-0.391901652,1,0,0,1.0437,Pumice_rect,8,1.044,1,8,0,8,0,1,,,,,,,,,,,,,
6618870c888a5cea7655aea7,TCN,2024-06-24_16h02.22.910,LearnStrategy,2023.2.3,MacIntel,63.29113924,5,1,10,-0.031243218,-0.01794411,1,0,0,0.8472,rock_grid_rect_2,2,06,-1,-1,0.847,0.319112594,-0.253938802,1,0,0,3.7211,Gabbro_rect,4,3.721,0,9,0,9,0,1,,,,,,,,,,,,,
6618870c888a5cea7655aea7,TCN,2024-06-24_16h02.22.910,LearnStrategy,2023.2.3,MacIntel,63.29113924,5,1,11,-0.033583069,-0.012251225,1,0,0,1.2135,rock_grid_rect_2,4,09,-1,-1,1.213,0.39535805,-0.258114963,1,0,0,1.8763,Gabbro_rect,4,1.876,1,10,0,10,0,1,,,,,,,,,,,,,
6618870c888a5cea7655aea7,TCN,2024-06-24_16h02.22.910,LearnStrategy,2023.2.3,MacIntel,63.29113924,5,1,12,0.045613042,0.00330528,1,0,0,0.7305,rock_grid_rect_2,5,07,-1,-1,0.73,-0.372320952,-0.407626004,1,0,0,1.0921,Obsidian_rect,5,1.092,1,11,0,11,0,1,,,,,,,,,,,,,
6618870c888a5cea7655aea7,TCN,2024-06-24_16h02.22.910,LearnStrategy,2023.2.3,MacIntel,63.29113924,5,1,13,0.005714077,-0.005411445,1,0,0,0.832,rock_grid_rect_2,8,09,-1,-1,0.832,0.389758301,-0.395830056,1,0,0,1.0384,Pumice_rect,8,1.038,1,12,0,12,0,1,,,,,,,,,,,,,
6618870c888a5cea7655aea7,TCN,2024-06-24_16h02.22.910,LearnStrategy,2023.2.3,MacIntel,63.29113924,5,1,14,0.024026207,-0.001376908,1,0,0,0.7982,rock_grid_rect_2,3,08,-1,-1,0.798,0.085503698,-0.252234904,1,0,0,1.7196,Diorite_rect,3,1.72,1,13,0,13,0,1,,,,,,,,,,,,,
6618870c888a5cea7655aea7,TCN,2024-06-24_16h02.22.910,LearnStrategy,2023.2.3,MacIntel,63.29113924,5,1,15,-0.029863372,-0.014646742,1,0,0,1.1124,rock_grid_rect_2,6,06,-1,-1,1.112,-0.099563825,-0.397724349,1,0,0,1.308,Pegmatite_rect,6,1.308,1,14,0,14,0,1,,,,,,,,,,,,,
6618870c888a5cea7655aea7,TCN,2024-06-24_16h02.22.910,LearnStrategy,2023.2.3,MacIntel,63.29113924,5,1,16,0.008272976,-0.020795469,1,0,0,0.8648,rock_grid_rect_2,4,08,-1,-1,0.865,0.38985607,-0.241331425,1,0,0,2.0094,Gabbro_rect,4,2.009,1,15,0,15,0,1,,,,,,,,,,,,,
6618870c888a5cea7655aea7,TCN,2024-06-24_16h02.22.910,LearnStrategy,2023.2.3,MacIntel,63.29113924,5,2,1,,,,,,,,2,02,,,,,,,,,,,2,8.736,1,,,,,,-0.121306695,-0.25779758,1,0,0,8.7359,Basalt_rect,0,0,0,0,1,
6618870c888a5cea7655aea7,TCN,2024-06-24_16h02.22.910,LearnStrategy,2023.2.3,MacIntel,63.29113924,5,2,2,,,,,,,,3,09,,,,,,,,,,,3,0.895,1,,,,,,0.181895842,-0.263365908,1,0,0,0.8947,Diorite_rect,1,0,1,0,1,
6618870c888a5cea7655aea7,TCN,2024-06-24_16h02.22.910,LearnStrategy,2023.2.3,MacIntel,63.29113924,5,2,3,,,,,,,,5,06,,,,,,,,,,,5,0.941,1,,,,,,-0.386404532,-0.395225581,1,0,0,0.9409,Obsidian_rect,2,0,2,0,1,
6618870c888a5cea7655aea7,TCN,2024-06-24_16h02.22.910,LearnStrategy,2023.2.3,MacIntel,63.29113924,5,2,4,,,,,,,,7,05,,,,,,,,,,,7,10.617,1,,,,,,0.092547042,-0.402120972,1,0,0,10.6174,Peridotite_rect,3,0,3,0,1,
6618870c888a5cea7655aea7,TCN,2024-06-24_16h02.22.910,LearnStrategy,2023.2.3,MacIntel,63.29113924,5,2,5,,,,,,,,3,10,,,,,,,,,,,3,1.837,1,,,,,,0.095387325,-0.249469842,1,0,0,1.8366,Diorite_rect,4,0,4,0,1,
6618870c888a5cea7655aea7,TCN,2024-06-24_16h02.22.910,LearnStrategy,2023.2.3,MacIntel,63.29113924,5,2,6,,,,,,,,6,11,,,,,,,,,,,6,1.427,1,,,,,,-0.11605818,-0.399831023,1,0,0,1.4269,Pegmatite_rect,5,0,5,0,1,
6618870c888a5cea7655aea7,TCN,2024-06-24_16h02.22.910,LearnStrategy,2023.2.3,MacIntel,63.29113924,5,2,7,,,,,,,,8,08,,,,,,,,,,,8,1.09,1,,,,,,0.306432314,-0.389663018,1,0,0,1.0895,Pumice_rect,6,0,6,0,1,
6618870c888a5cea7655aea7,TCN,2024-06-24_16h02.22.910,LearnStrategy,2023.2.3,MacIntel,63.29113924,5,2,8,,,,,,,,4,16,,,,,,,,,,,2,3.371,0,,,,,,-0.104803862,-0.249364782,1,0,0,3.3708,Basalt_rect,7,0,7,0,1,
6618870c888a5cea7655aea7,TCN,2024-06-24_16h02.22.910,LearnStrategy,2023.2.3,MacIntel,63.29113924,5,2,9,,,,,,,,1,16,,,,,,,,,,,1,11.629,1,,,,,,-0.363760828,-0.257645558,1,0,0,11.6293,Andesite_rect,8,0,8,0,1,
6618870c888a5cea7655aea7,TCN,2024-06-24_16h02.22.910,LearnStrategy,2023.2.3,MacIntel,63.29113924,5,2,10,,,,,,,,1,01,,,,,,,,,,,1,10.152,1,,,,,,-0.32283879,-0.256480012,1,0,0,10.1518,Andesite_rect,9,0,9,0,1,
6618870c888a5cea7655aea7,TCN,2024-06-24_16h02.22.910,LearnStrategy,2023.2.3,MacIntel,63.29113924,5,2,11,,,,,,,,2,10,,,,,,,,,,,2,17.496,1,,,,,,-0.115764759,-0.238949189,1,0,0,17.4957,Basalt_rect,10,0,10,0,1,
6618870c888a5cea7655aea7,TCN,2024-06-24_16h02.22.910,LearnStrategy,2023.2.3,MacIntel,63.29113924,5,2,12,,,,,,,,8,14,,,,,,,,,,,8,0.995,1,,,,,,0.389666748,-0.391436089,1,0,0,0.9954,Pumice_rect,11,0,11,0,1,
6618870c888a5cea7655aea7,TCN,2024-06-24_16h02.22.910,LearnStrategy,2023.2.3,MacIntel,63.29113924,5,2,13,,,,,,,,6,12,,,,,,,,,,,6,23.621,1,,,,,,-0.115434887,-0.403519016,1,0,0,23.6206,Pegmatite_rect,12,0,12,0,1,
6618870c888a5cea7655aea7,TCN,2024-06-24_16h02.22.910,LearnStrategy,2023.2.3,MacIntel,63.29113924,5,2,14,,,,,,,,7,14,,,,,,,,,,,7,16.607,1,,,,,,0.061052337,-0.400470084,1,0,0,16.607,Peridotite_rect,13,0,13,0,1,
6618870c888a5cea7655aea7,TCN,2024-06-24_16h02.22.910,LearnStrategy,2023.2.3,MacIntel,63.29113924,5,2,15,,,,,,,,4,10,,,,,,,,,,,4,3.902,1,,,,,,0.304989285,-0.253419212,1,0,0,3.9016,Gabbro_rect,14,0,14,0,1,
6618870c888a5cea7655aea7,TCN,2024-06-24_16h02.22.910,LearnStrategy,2023.2.3,MacIntel,63.29113924,5,2,16,,,,,,,,5,02,,,,,,,,,,,5,1.159,1,,,,,,-0.361407132,-0.416342785,1,0,0,1.1592,Obsidian_rect,15,0,15,0,1,
6618870c888a5cea7655aea7,TCN,2024-06-24_16h02.22.910,LearnStrategy,2023.2.3,MacIntel,63.29113924,6,1,1,-0.020567774,0.020676111,1,0,0,3.6281,rock_grid_rect_2,8,13,-1,-1,3.628,0.386810981,-0.411740451,1,0,0,1.1909,Pumice_rect,8,1.191,1,0,0,0,0,1,,,,,,,,,,,,,
6618870c888a5cea7655aea7,TCN,2024-06-24_16h02.22.910,LearnStrategy,2023.2.3,MacIntel,63.29113924,6,1,2,0.077252536,-0.006259325,1,0,0,1.0979,rock_grid_rect_2,1,07,-1,-1,1.098,-0.375058888,-0.242398749,1,0,0,4.887,Andesite_rect,1,4.887,1,1,0,1,0,1,,,,,,,,,,,,,
6618870c888a5cea7655aea7,TCN,2024-06-24_16h02.22.910,LearnStrategy,2023.2.3,MacIntel,63.29113924,6,1,3,-0.049993953,-0.014974693,1,0,0,2.4163,rock_grid_rect_2,6,13,-1,-1,2.416,-0.133131578,-0.406455485,1,0,0,2.626,Pegmatite_rect,6,2.626,1,2,0,2,0,1,,,,,,,,,,,,,
6618870c888a5cea7655aea7,TCN,2024-06-24_16h02.22.910,LearnStrategy,2023.2.3,MacIntel,63.29113924,6,1,4,0.004185768,-0.013886007,1,0,0,2.2267,rock_grid_rect_2,5,04,-1,-1,2.227,-0.429049683,-0.411242054,1,0,0,1.3441,Obsidian_rect,5,1.344,1,3,0,3,0,1,,,,,,,,,,,,,
6618870c888a5cea7655aea7,TCN,2024-06-24_16h02.22.910,LearnStrategy,2023.2.3,MacIntel,63.29113924,6,1,5,-0.018023738,0.001587875,1,0,0,1.1145,rock_grid_rect_2,3,07,-1,-1,1.114,0.105478357,-0.243716544,1,0,0,2.0265,Diorite_rect,3,2.026,1,4,0,4,0,1,,,,,,,,,,,,,
6618870c888a5cea7655aea7,TCN,2024-06-24_16h02.22.910,LearnStrategy,2023.2.3,MacIntel,63.29113924,6,1,6,0.010248594,0.001921421,1,0,0,0.9303,rock_grid_rect_2,6,15,-1,-1,0.93,-0.111870547,-0.398546742,1,0,0,1.4271,Pegmatite_rect,6,1.427,1,5,0,5,0,1,,,,,,,,,,,,,
6618870c888a5cea7655aea7,TCN,2024-06-24_16h02.22.910,LearnStrategy,2023.2.3,MacIntel,63.29113924,6,1,7,0.013341324,-0.005434333,1,0,0,2.4464,rock_grid_rect_2,4,05,-1,-1,2.446,0.38523537,-0.256820566,1,0,0,3.321,Gabbro_rect,4,3.321,1,6,0,6,0,1,,,,,,,,,,,,,
6618870c888a5cea7655aea7,TCN,2024-06-24_16h02.22.910,LearnStrategy,2023.2.3,MacIntel,63.29113924,6,1,8,0.002084916,-0.002202634,1,0,0,0.9323,rock_grid_rect_2,7,04,-1,-1,0.932,-0.351344356,-0.243222272,1,0,0,1.2102,Andesite_rect,1,1.21,0,7,0,7,0,1,,,,,,,,,,,,,
6618870c888a5cea7655aea7,TCN,2024-06-24_16h02.22.910,LearnStrategy,2023.2.3,MacIntel,63.29113924,6,1,9,-0.004011084,-0.009112662,1,0,0,0.9486,rock_grid_rect_2,7,12,-1,-1,0.949,0.097411657,-0.392042259,1,0,0,2.2881,Peridotite_rect,7,2.288,1,8,0,8,0,1,,,,,,,,,,,,,
6618870c888a5cea7655aea7,TCN,2024-06-24_16h02.22.910,LearnStrategy,2023.2.3,MacIntel,63.29113924,6,1,10,0.024544271,0.018970631,1,0,0,0.8624,rock_grid_rect_2,5,05,-1,-1,0.862,-0.357889133,-0.379244147,1,0,0,1.1116,Obsidian_rect,5,1.112,1,9,0,9,0,1,,,,,,,,,,,,,
6618870c888a5cea7655aea7,TCN,2024-06-24_16h02.22.910,LearnStrategy,2023.2.3,MacIntel,63.29113924,6,1,11,0.014331959,0.009752796,1,0,0,0.7981,rock_grid_rect_2,3,15,-1,-1,0.798,0.107643184,-0.270515159,1,0,0,1.2604,Diorite_rect,3,1.26,1,10,0,10,0,1,,,,,,,,,,,,,
6618870c888a5cea7655aea7,TCN,2024-06-24_16h02.22.910,LearnStrategy,2023.2.3,MacIntel,63.29113924,6,1,12,0.049626216,-0.014017967,1,0,0,0.7982,rock_grid_rect_2,4,14,-1,-1,0.798,0.370628753,-0.235418588,1,0,0,3.7204,Gabbro_rect,4,3.72,1,11,0,11,0,1,,,,,,,,,,,,,
6618870c888a5cea7655aea7,TCN,2024-06-24_16h02.22.910,LearnStrategy,2023.2.3,MacIntel,63.29113924,6,1,13,0.039925356,-0.000572261,1,0,0,1.1115,rock_grid_rect_2,8,02,-1,-1,1.111,0.302595577,-0.400905355,1,0,0,1.2599,Pumice_rect,8,1.26,1,12,0,12,0,1,,,,,,,,,,,,,
6618870c888a5cea7655aea7,TCN,2024-06-24_16h02.22.910,LearnStrategy,2023.2.3,MacIntel,63.29113924,6,1,14,0.033846989,-0.004241152,1,0,0,0.7629,rock_grid_rect_2,1,11,-1,-1,0.763,-0.420425528,-0.24539405,1,0,0,6.3514,Andesite_rect,1,6.351,1,13,0,13,0,1,,,,,,,,,,,,,
6618870c888a5cea7655aea7,TCN,2024-06-24_16h02.22.910,LearnStrategy,2023.2.3,MacIntel,63.29113924,6,1,15,-0.008095127,-0.014790118,1,0,0,0.9309,rock_grid_rect_2,2,05,-1,-1,0.931,-0.078257017,-0.234044393,1,0,0,1.9251,Basalt_rect,2,1.925,1,14,0,14,0,1,,,,,,,,,,,,,
6618870c888a5cea7655aea7,TCN,2024-06-24_16h02.22.910,LearnStrategy,2023.2.3,MacIntel,63.29113924,6,1,16,0.049340594,-0.013105943,1,0,0,0.9626,rock_grid_rect_2,2,08,-1,-1,0.963,-0.10019633,-0.248722783,1,0,0,1.0593,Basalt_rect,2,1.059,1,15,0,15,0,1,,,,,,,,,,,,,
6618870c888a5cea7655aea7,TCN,2024-06-24_16h02.22.910,LearnStrategy,2023.2.3,MacIntel,63.29113924,6,2,1,,,,,,,,3,13,,,,,,,,,,,3,2.803,1,,,,,,0.164107937,-0.248997158,1,0,0,2.8031,Diorite_rect,0,0,0,0,1,
6618870c888a5cea7655aea7,TCN,2024-06-24_16h02.22.910,LearnStrategy,2023.2.3,MacIntel,63.29113924,6,2,2,,,,,,,,8,03,,,,,,,,,,,8,1.005,1,,,,,,0.419044099,-0.397236803,1,0,0,1.0049,Pumice_rect,1,0,1,0,1,
6618870c888a5cea7655aea7,TCN,2024-06-24_16h02.22.910,LearnStrategy,2023.2.3,MacIntel,63.29113924,6,2,3,,,,,,,,3,16,,,,,,,,,,,3,35.158,1,,,,,,0.1464577,-0.244584995,1,0,0,35.1581,Diorite_rect,2,0,2,0,1,
6618870c888a5cea7655aea7,TCN,2024-06-24_16h02.22.910,LearnStrategy,2023.2.3,MacIntel,63.29113924,6,2,4,,,,,,,,1,14,,,,,,,,,,,1,18.76,1,,,,,,-0.367948518,-0.243384467,1,0,0,18.7604,Andesite_rect,3,0,3,0,1,
6618870c888a5cea7655aea7,TCN,2024-06-24_16h02.22.910,LearnStrategy,2023.2.3,MacIntel,63.29113924,6,2,5,,,,,,,,4,13,,,,,,,,,,,1,7.713,0,,,,,,-0.367948518,-0.243384467,1,0,0,7.713,Andesite_rect,4,0,4,0,1,
6618870c888a5cea7655aea7,TCN,2024-06-24_16h02.22.910,LearnStrategy,2023.2.3,MacIntel,63.29113924,6,2,6,,,,,,,,6,08,,,,,,,,,,,6,1.574,1,,,,,,-0.119941881,-0.394997321,1,0,0,1.5741,Pegmatite_rect,5,0,5,0,1,
6618870c888a5cea7655aea7,TCN,2024-06-24_16h02.22.910,LearnStrategy,2023.2.3,MacIntel,63.29113924,6,2,7,,,,,,,,6,05,,,,,,,,,,,6,1.258,1,,,,,,-0.112967371,-0.390610193,1,0,0,1.2581,Pegmatite_rect,6,0,6,0,1,
6618870c888a5cea7655aea7,TCN,2024-06-24_16h02.22.910,LearnStrategy,2023.2.3,MacIntel,63.29113924,6,2,8,,,,,,,,4,11,,,,,,,,,,,1,8.336,0,,,,,,-0.350135577,-0.259452255,1,0,0,8.3364,Andesite_rect,7,0,7,0,1,
6618870c888a5cea7655aea7,TCN,2024-06-24_16h02.22.910,LearnStrategy,2023.2.3,MacIntel,63.29113924,6,2,9,,,,,,,,1,10,,,,,,,,,,,1,1.141,1,,,,,,-0.325073355,-0.262715488,1,0,0,1.1414,Andesite_rect,8,0,8,0,1,
6618870c888a5cea7655aea7,TCN,2024-06-24_16h02.22.910,LearnStrategy,2023.2.3,MacIntel,63.29113924,6,2,10,,,,,,,,2,12,,,,,,,,,,,1,12.765,0,,,,,,-0.366284971,-0.241120459,1,0,0,12.7646,Andesite_rect,9,0,9,0,1,
6618870c888a5cea7655aea7,TCN,2024-06-24_16h02.22.910,LearnStrategy,2023.2.3,MacIntel,63.29113924,6,2,11,,,,,,,,8,15,,,,,,,,,,,8,1.407,1,,,,,,0.417685502,-0.413646218,1,0,0,1.407,Pumice_rect,10,0,10,0,1,
6618870c888a5cea7655aea7,TCN,2024-06-24_16h02.22.910,LearnStrategy,2023.2.3,MacIntel,63.29113924,6,2,12,,,,,,,,2,09,,,,,,,,,,,2,28.167,1,,,,,,-0.040965723,-0.248193698,1,0,0,28.1671,Basalt_rect,11,0,11,0,1,
6618870c888a5cea7655aea7,TCN,2024-06-24_16h02.22.910,LearnStrategy,2023.2.3,MacIntel,63.29113924,6,2,13,,,,,,,,7,10,,,,,,,,,,,7,3.836,1,,,,,,0.088350536,-0.382220742,1,0,0,3.8361,Peridotite_rect,12,0,12,0,1,
6618870c888a5cea7655aea7,TCN,2024-06-24_16h02.22.910,LearnStrategy,2023.2.3,MacIntel,63.29113924,6,2,14,,,,,,,,5,10,,,,,,,,,,,5,1.111,1,,,,,,-0.370070959,-0.387094964,1,0,0,1.1106,Obsidian_rect,13,0,13,0,1,
6618870c888a5cea7655aea7,TCN,2024-06-24_16h02.22.910,LearnStrategy,2023.2.3,MacIntel,63.29113924,6,2,15,,,,,,,,7,07,,,,,,,,,,,7,1.061,1,,,,,,0.078015589,-0.382593452,1,0,0,1.0612,Peridotite_rect,14,0,14,0,1,
6618870c888a5cea7655aea7,TCN,2024-06-24_16h02.22.910,LearnStrategy,2023.2.3,MacIntel,63.29113924,6,2,16,,,,,,,,5,12,,,,,,,,,,,5,1.073,1,,,,,,-0.389753554,-0.388275881,1,0,0,1.0726,Obsidian_rect,15,0,15,0,1,
6618870c888a5cea7655aea7,TCN,2024-06-24_16h02.22.910,LearnStrategy,2023.2.3,MacIntel,63.29113924,7,1,1,0.1086124,-0.022173846,1,0,0,2.1952,rock_grid_rect_2,1,05,-1,-1,2.195,-0.387966184,-0.237729447,1,0,0,1.4951,Andesite_rect,1,1.495,1,0,0,0,0,1,,,,,,,,,,,,,
6618870c888a5cea7655aea7,TCN,2024-06-24_16h02.22.910,LearnStrategy,2023.2.3,MacIntel,63.29113924,7,1,2,0.002150924,-0.009580598,1,0,0,0.8647,rock_grid_rect_2,2,14,-1,-1,0.865,0.300983118,-0.250608995,1,0,0,3.6755,Gabbro_rect,4,3.676,0,1,0,1,0,1,,,,,,,,,,,,,
6618870c888a5cea7655aea7,TCN,2024-06-24_16h02.22.910,LearnStrategy,2023.2.3,MacIntel,63.29113924,7,1,3,0.028588359,0.002438637,1,0,0,0.7967,rock_grid_rect_2,8,13,-1,-1,0.797,0.370189186,-0.382590456,1,0,0,1.0766,Pumice_rect,8,1.077,1,2,0,2,0,1,,,,,,,,,,,,,
6618870c888a5cea7655aea7,TCN,2024-06-24_16h02.22.910,LearnStrategy,2023.2.3,MacIntel,63.29113924,7,1,4,0.070919348,-0.007409498,1,0,0,1.8799,rock_grid_rect_2,5,05,-1,-1,1.88,-0.383896326,-0.38796025,1,0,0,1.0748,Obsidian_rect,5,1.075,1,3,0,3,0,1,,,,,,,,,,,,,
6618870c888a5cea7655aea7,TCN,2024-06-24_16h02.22.910,LearnStrategy,2023.2.3,MacIntel,63.29113924,7,1,5,-0.052696793,-0.011302976,1,0,0,0.6973,rock_grid_rect_2,3,14,-1,-1,0.697,0.087656318,-0.248012627,1,0,0,1.5438,Diorite_rect,3,1.544,1,4,0,4,0,1,,,,,,,,,,,,,
6618870c888a5cea7655aea7,TCN,2024-06-24_16h02.22.910,LearnStrategy,2023.2.3,MacIntel,63.29113924,7,1,6,-0.010738005,-0.016099718,1,0,0,0.78,rock_grid_rect_2,3,12,-1,-1,0.78,0.073539112,-0.230374372,1,0,0,1.4619,Diorite_rect,3,1.462,1,5,0,5,0,1,,,,,,,,,,,,,
6618870c888a5cea7655aea7,TCN,2024-06-24_16h02.22.910,LearnStrategy,2023.2.3,MacIntel,63.29113924,7,1,7,0.017107024,0.010439781,1,0,0,0.9634,rock_grid_rect_2,7,15,-1,-1,0.963,0.06189643,-0.401702146,1,0,0,3.8076,Peridotite_rect,7,3.808,1,6,0,6,0,1,,,,,,,,,,,,,
6618870c888a5cea7655aea7,TCN,2024-06-24_16h02.22.910,LearnStrategy,2023.2.3,MacIntel,63.29113924,7,1,8,0.03748508,0.00582671,1,0,0,0.8305,rock_grid_rect_2,6,03,-1,-1,0.831,-0.12618476,-0.388550031,1,0,0,1.1907,Pegmatite_rect,6,1.191,1,7,0,7,0,1,,,,,,,,,,,,,
6618870c888a5cea7655aea7,TCN,2024-06-24_16h02.22.910,LearnStrategy,2023.2.3,MacIntel,63.29113924,7,1,9,0.015582049,-0.011356212,1,0,0,0.6654,rock_grid_rect_2,6,13,-1,-1,0.665,-0.109419137,-0.397532089,1,0,0,1.1052,Pegmatite_rect,6,1.105,1,8,0,8,0,1,,,,,,,,,,,,,
6618870c888a5cea7655aea7,TCN,2024-06-24_16h02.22.910,LearnStrategy,2023.2.3,MacIntel,63.29113924,7,1,10,0.002099327,-0.011168868,1,0,0,0.8479,rock_grid_rect_2,4,12,-1,-1,0.848,-0.374404286,-0.239402828,1,0,0,3.0571,Andesite_rect,1,3.057,0,9,0,9,0,1,,,,,,,,,,,,,
6618870c888a5cea7655aea7,TCN,2024-06-24_16h02.22.910,LearnStrategy,2023.2.3,MacIntel,63.29113924,7,1,11,-0.034180309,-0.004193285,1,0,0,0.8135,rock_grid_rect_2,8,02,-1,-1,0.813,0.389297146,-0.410685391,1,0,0,1.1939,Pumice_rect,8,1.194,1,10,0,10,0,1,,,,,,,,,,,,,
6618870c888a5cea7655aea7,TCN,2024-06-24_16h02.22.910,LearnStrategy,2023.2.3,MacIntel,63.29113924,7,1,12,-0.026624213,-0.019162665,1,0,0,0.8633,rock_grid_rect_2,7,13,-1,-1,0.863,0.116443662,-0.405596359,1,0,0,1.1934,Peridotite_rect,7,1.193,1,11,0,11,0,1,,,,,,,,,,,,,
6618870c888a5cea7655aea7,TCN,2024-06-24_16h02.22.910,LearnStrategy,2023.2.3,MacIntel,63.29113924,7,1,13,-0.015871288,-0.019517121,1,0,0,0.799,rock_grid_rect_2,5,08,-1,-1,0.799,-0.364917444,-0.388933083,1,0,0,1.506,Obsidian_rect,5,1.506,1,12,0,12,0,1,,,,,,,,,,,,,
6618870c888a5cea7655aea7,TCN,2024-06-24_16h02.22.910,LearnStrategy,2023.2.3,MacIntel,63.29113924,7,1,14,0.008046355,-0.014923378,1,0,0,0.9483,rock_grid_rect_2,4,09,-1,-1,0.948,0.346694042,-0.242807063,1,0,0,1.4572,Gabbro_rect,4,1.457,1,13,0,13,0,1,,,,,,,,,,,,,
6618870c888a5cea7655aea7,TCN,2024-06-24_16h02.22.910,LearnStrategy,2023.2.3,MacIntel,63.29113924,7,1,15,-0.055829649,-0.009399527,1,0,0,0.7646,rock_grid_rect_2,1,07,-1,-1,0.765,-0.33964646,-0.242650972,1,0,0,1.2419,Andesite_rect,1,1.242,1,14,0,14,0,1,,,,,,,,,,,,,
6618870c888a5cea7655aea7,TCN,2024-06-24_16h02.22.910,LearnStrategy,2023.2.3,MacIntel,63.29113924,7,1,16,0.045086331,0.007873705,1,0,0,1.1644,rock_grid_rect_2,2,08,-1,-1,1.164,-0.099483575,-0.236740169,1,0,0,1.0397,Basalt_rect,2,1.04,1,15,0,15,0,1,,,,,,,,,,,,,
6618870c888a5cea7655aea7,TCN,2024-06-24_16h02.22.910,LearnStrategy,2023.2.3,MacIntel,63.29113924,7,2,1,,,,,,,,1,01,,,,,,,,,,,1,2.825,1,,,,,,-0.377808126,-0.247813811,1,0,0,2.8251,Andesite_rect,0,0,0,0,1,
6618870c888a5cea7655aea7,TCN,2024-06-24_16h02.22.910,LearnStrategy,2023.2.3,MacIntel,63.29113924,7,2,2,,,,,,,,7,07,,,,,,,,,,,7,1.309,1,,,,,,0.110948351,-0.414694666,1,0,0,1.3094,Peridotite_rect,1,0,1,0,1,
6618870c888a5cea7655aea7,TCN,2024-06-24_16h02.22.910,LearnStrategy,2023.2.3,MacIntel,63.29113924,7,2,3,,,,,,,,7,08,,,,,,,,,,,7,0.989,1,,,,,,0.095725392,-0.409345782,1,0,0,0.9886,Peridotite_rect,2,0,2,0,1,
6618870c888a5cea7655aea7,TCN,2024-06-24_16h02.22.910,LearnStrategy,2023.2.3,MacIntel,63.29113924,7,2,4,,,,,,,,1,14,,,,,,,,,,,1,2.04,1,,,,,,-0.390846761,-0.261251718,1,0,0,2.0403,Andesite_rect,3,0,3,0,1,
6618870c888a5cea7655aea7,TCN,2024-06-24_16h02.22.910,LearnStrategy,2023.2.3,MacIntel,63.29113924,7,2,5,,,,,,,,4,10,,,,,,,,,,,4,1.508,1,,,,,,0.330065918,-0.240951764,1,0,0,1.5081,Gabbro_rect,4,0,4,0,1,
6618870c888a5cea7655aea7,TCN,2024-06-24_16h02.22.910,LearnStrategy,2023.2.3,MacIntel,63.29113924,7,2,6,,,,,,,,3,06,,,,,,,,,,,3,0.924,1,,,,,,0.172068391,-0.243863028,1,0,0,0.9241,Diorite_rect,5,0,5,0,1,
6618870c888a5cea7655aea7,TCN,2024-06-24_16h02.22.910,LearnStrategy,2023.2.3,MacIntel,63.29113924,7,2,7,,,,,,,,2,10,,,,,,,,,,,2,1.141,1,,,,,,-0.112822413,-0.260005471,1,0,0,1.141,Basalt_rect,6,0,6,0,1,
6618870c888a5cea7655aea7,TCN,2024-06-24_16h02.22.910,LearnStrategy,2023.2.3,MacIntel,63.29113924,7,2,8,,,,,,,,4,03,,,,,,,,,,,1,12.71,0,,,,,,-0.357671893,-0.251485697,1,0,0,12.7105,Andesite_rect,7,0,7,0,1,
6618870c888a5cea7655aea7,TCN,2024-06-24_16h02.22.910,LearnStrategy,2023.2.3,MacIntel,63.29113924,7,2,9,,,,,,,,2,16,,,,,,,,,,,2,3.387,1,,,,,,-0.05631776,-0.243295288,1,0,0,3.3872,Basalt_rect,8,0,8,0,1,
6618870c888a5cea7655aea7,TCN,2024-06-24_16h02.22.910,LearnStrategy,2023.2.3,MacIntel,63.29113924,7,2,10,,,,,,,,8,10,,,,,,,,,,,8,1.373,1,,,,,,0.359560705,-0.393286359,1,0,0,1.3732,Pumice_rect,9,0,9,0,1,
6618870c888a5cea7655aea7,TCN,2024-06-24_16h02.22.910,LearnStrategy,2023.2.3,MacIntel,63.29113924,7,2,11,,,,,,,,5,09,,,,,,,,,,,5,1.792,1,,,,,,-0.391450218,-0.394273829,1,0,0,1.7924,Obsidian_rect,10,0,10,0,1,
6618870c888a5cea7655aea7,TCN,2024-06-24_16h02.22.910,LearnStrategy,2023.2.3,MacIntel,63.29113924,7,2,12,,,,,,,,6,11,,,,,,,,,,,6,1.224,1,,,,,,-0.16359739,-0.387317968,1,0,0,1.2239,Pegmatite_rect,11,0,11,0,1,
6618870c888a5cea7655aea7,TCN,2024-06-24_16h02.22.910,LearnStrategy,2023.2.3,MacIntel,63.29113924,7,2,13,,,,,,,,8,08,,,,,,,,,,,8,1.112,1,,,,,,0.391140634,-0.387169167,1,0,0,1.1125,Pumice_rect,12,0,12,0,1,
6618870c888a5cea7655aea7,TCN,2024-06-24_16h02.22.910,LearnStrategy,2023.2.3,MacIntel,63.29113924,7,2,14,,,,,,,,6,09,,,,,,,,,,,6,0.943,1,,,,,,-0.161542426,-0.40533159,1,0,0,0.9429,Pegmatite_rect,13,0,13,0,1,
6618870c888a5cea7655aea7,TCN,2024-06-24_16h02.22.910,LearnStrategy,2023.2.3,MacIntel,63.29113924,7,2,15,,,,,,,,3,16,,,,,,,,,,,3,1.857,1,,,,,,0.066050664,-0.267933429,1,0,0,1.8568,Diorite_rect,14,0,14,0,1,
6618870c888a5cea7655aea7,TCN,2024-06-24_16h02.22.910,LearnStrategy,2023.2.3,MacIntel,63.29113924,7,2,16,,,,,,,,5,06,,,,,,,,,,,5,1.343,1,,,,,,-0.38875755,-0.410649561,1,0,0,1.3434,Obsidian_rect,15,0,15,0,1,
6618870c888a5cea7655aea7,TCN,2024-06-24_16h02.22.910,LearnStrategy,2023.2.3,MacIntel,63.29113924,8,1,1,0.047750798,0.017458146,1,0,0,1.3482,rock_grid_rect_2,4,08,-1,-1,1.348,0.358266195,-0.245665939,1,0,0,2.39,Gabbro_rect,4,2.39,1,0,0,0,0,1,,,,,,,,,,,,,
6618870c888a5cea7655aea7,TCN,2024-06-24_16h02.22.910,LearnStrategy,2023.2.3,MacIntel,63.29113924,8,1,2,0.043914795,-0.007250242,1,0,0,1.1655,rock_grid_rect_2,7,06,-1,-1,1.166,0.041324644,-0.406151044,1,0,0,4.5561,Peridotite_rect,7,4.556,1,1,0,1,0,1,,,,,,,,,,,,,
6618870c888a5cea7655aea7,TCN,2024-06-24_16h02.22.910,LearnStrategy,2023.2.3,MacIntel,63.29113924,8,1,3,-0.017992486,-0.012109036,1,0,0,0.897,rock_grid_rect_2,1,11,-1,-1,0.897,-0.345628187,-0.242213892,1,0,0,1.2399,Andesite_rect,1,1.24,1,2,0,2,0,1,,,,,,,,,,,,,
6618870c888a5cea7655aea7,TCN,2024-06-24_16h02.22.910,LearnStrategy,2023.2.3,MacIntel,63.29113924,8,1,4,0.005057836,-0.019969742,1,0,0,0.8489,rock_grid_rect_2,6,15,-1,-1,0.849,-0.088246381,-0.39018679,1,0,0,1.1427,Pegmatite_rect,6,1.143,1,3,0,3,0,1,,,,,,,,,,,,,
6618870c888a5cea7655aea7,TCN,2024-06-24_16h02.22.910,LearnStrategy,2023.2.3,MacIntel,63.29113924,8,1,5,-0.020105772,-0.013283567,1,0,0,0.666,rock_grid_rect_2,8,16,-1,-1,0.666,0.366931152,-0.416476271,1,0,0,2.0067,Pumice_rect,8,2.007,1,4,0,4,0,1,,,,,,,,,,,,,
6618870c888a5cea7655aea7,TCN,2024-06-24_16h02.22.910,LearnStrategy,2023.2.3,MacIntel,63.29113924,8,1,6,-0.023808232,-0.011222161,1,0,0,0.8626,rock_grid_rect_2,5,16,-1,-1,0.863,-0.348516281,-0.37885194,1,0,0,1.2751,Obsidian_rect,5,1.275,1,5,0,5,0,1,,,,,,,,,,,,,
6618870c888a5cea7655aea7,TCN,2024-06-24_16h02.22.910,LearnStrategy,2023.2.3,MacIntel,63.29113924,8,1,7,0.07108629,0.007636346,1,0,0,0.8319,rock_grid_rect_2,8,05,-1,-1,0.832,0.4225144,-0.406047623,1,0,0,1.0896,Pumice_rect,8,1.09,1,6,0,6,0,1,,,,,,,,,,,,,
6618870c888a5cea7655aea7,TCN,2024-06-24_16h02.22.910,LearnStrategy,2023.2.3,MacIntel,63.29113924,8,1,8,0.00129208,-0.0104946,1,0,0,0.8647,rock_grid_rect_2,1,03,-1,-1,0.865,-0.346204461,-0.228744337,1,0,0,1.0446,Andesite_rect,1,1.045,1,7,0,7,0,1,,,,,,,,,,,,,
6618870c888a5cea7655aea7,TCN,2024-06-24_16h02.22.910,LearnStrategy,2023.2.3,MacIntel,63.29113924,8,1,9,-0.002318432,-0.006659388,1,0,0,0.8986,rock_grid_rect_2,3,08,-1,-1,0.899,0.153722466,-0.243690152,1,0,0,1.0234,Diorite_rect,3,1.023,1,8,0,8,0,1,,,,,,,,,,,,,
6618870c888a5cea7655aea7,TCN,2024-06-24_16h02.22.910,LearnStrategy,2023.2.3,MacIntel,63.29113924,8,1,10,0.089485564,-0.013266556,1,0,0,1.081,rock_grid_rect_2,3,15,-1,-1,1.081,0.138630168,-0.228541961,1,0,0,1.946,Diorite_rect,3,1.946,1,9,0,9,0,1,,,,,,,,,,,,,
6618870c888a5cea7655aea7,TCN,2024-06-24_16h02.22.910,LearnStrategy,2023.2.3,MacIntel,63.29113924,8,1,11,0.021266231,0.017890195,1,0,0,0.6648,rock_grid_rect_2,2,11,-1,-1,0.665,0.339924678,-0.234045467,1,0,0,5.4014,Gabbro_rect,4,5.401,0,10,0,10,0,1,,,,,,,,,,,,,
6618870c888a5cea7655aea7,TCN,2024-06-24_16h02.22.910,LearnStrategy,2023.2.3,MacIntel,63.29113924,8,1,12,-0.001872875,-0.003139015,1,0,0,0.713,rock_grid_rect_2,5,07,-1,-1,0.713,-0.345782075,-0.416734031,1,0,0,0.9641,Obsidian_rect,5,0.964,1,11,0,11,0,1,,,,,,,,,,,,,
6618870c888a5cea7655aea7,TCN,2024-06-24_16h02.22.910,LearnStrategy,2023.2.3,MacIntel,63.29113924,8,1,13,0.017219261,0.000988996,1,0,0,0.7809,rock_grid_rect_2,2,05,-1,-1,0.781,-0.083549217,-0.260020955,1,0,0,1.5448,Basalt_rect,2,1.545,1,12,0,12,0,1,,,,,,,,,,,,,
6618870c888a5cea7655aea7,TCN,2024-06-24_16h02.22.910,LearnStrategy,2023.2.3,MacIntel,63.29113924,8,1,14,0.042762926,-0.011843081,1,0,0,0.7319,rock_grid_rect_2,4,05,-1,-1,0.732,0.361906151,-0.255750303,1,0,0,4.587,Gabbro_rect,4,4.587,1,13,0,13,0,1,,,,,,,,,,,,,
6618870c888a5cea7655aea7,TCN,2024-06-24_16h02.22.910,LearnStrategy,2023.2.3,MacIntel,63.29113924,8,1,15,-0.023787322,0.018517614,1,0,0,0.715,rock_grid_rect_2,6,06,-1,-1,0.715,-0.182851382,-0.406023492,1,0,0,1.1204,Pegmatite_rect,6,1.12,1,14,0,14,0,1,,,,,,,,,,,,,
6618870c888a5cea7655aea7,TCN,2024-06-24_16h02.22.910,LearnStrategy,2023.2.3,MacIntel,63.29113924,8,1,16,-0.014680368,-0.019648178,1,0,0,0.8478,rock_grid_rect_2,7,12,-1,-1,0.848,0.093666698,-0.393078048,1,0,0,1.4262,Peridotite_rect,7,1.426,1,15,0,15,0,1,,,,,,,,,,,,,
6618870c888a5cea7655aea7,TCN,2024-06-24_16h02.22.910,LearnStrategy,2023.2.3,MacIntel,63.29113924,8,2,1,,,,,,,,8,15,,,,,,,,,,,8,1.275,1,,,,,,0.386565823,-0.414637361,1,0,0,1.2749,Pumice_rect,0,0,0,0,1,
6618870c888a5cea7655aea7,TCN,2024-06-24_16h02.22.910,LearnStrategy,2023.2.3,MacIntel,63.29113924,8,2,2,,,,,,,,4,16,,,,,,,,,,,2,24.85,0,,,,,,-0.106223664,-0.243456297,1,0,0,24.85,Basalt_rect,1,0,1,0,1,
6618870c888a5cea7655aea7,TCN,2024-06-24_16h02.22.910,LearnStrategy,2023.2.3,MacIntel,63.29113924,8,2,3,,,,,,,,6,12,,,,,,,,,,,6,3.888,1,,,,,,-0.098293389,-0.40836922,1,0,0,3.8882,Pegmatite_rect,2,0,2,0,1,
6618870c888a5cea7655aea7,TCN,2024-06-24_16h02.22.910,LearnStrategy,2023.2.3,MacIntel,63.29113924,8,2,4,,,,,,,,5,10,,,,,,,,,,,5,1.032,1,,,,,,-0.331461928,-0.414151057,1,0,0,1.0317,Obsidian_rect,3,0,3,0,1,
6618870c888a5cea7655aea7,TCN,2024-06-24_16h02.22.910,LearnStrategy,2023.2.3,MacIntel,63.29113924,8,2,5,,,,,,,,4,15,,,,,,,,,,,7,1.974,0,,,,,,0.057504612,-0.402027271,1,0,0,1.9739,Peridotite_rect,4,0,4,0,1,
6618870c888a5cea7655aea7,TCN,2024-06-24_16h02.22.910,LearnStrategy,2023.2.3,MacIntel,63.29113924,8,2,6,,,,,,,,5,02,,,,,,,,,,,5,1.06,1,,,,,,-0.417495756,-0.406745911,1,0,0,1.0604,Obsidian_rect,5,0,5,0,1,
6618870c888a5cea7655aea7,TCN,2024-06-24_16h02.22.910,LearnStrategy,2023.2.3,MacIntel,63.29113924,8,2,7,,,,,,,,7,05,,,,,,,,,,,7,1.776,1,,,,,,0.082834088,-0.403290982,1,0,0,1.7758,Peridotite_rect,6,0,6,0,1,
6618870c888a5cea7655aea7,TCN,2024-06-24_16h02.22.910,LearnStrategy,2023.2.3,MacIntel,63.29113924,8,2,8,,,,,,,,2,12,,,,,,,,,,,4,22.34,0,,,,,,0.337389911,-0.270933985,1,0,0,22.3397,Gabbro_rect,7,0,7,0,1,
6618870c888a5cea7655aea7,TCN,2024-06-24_16h02.22.910,LearnStrategy,2023.2.3,MacIntel,63.29113924,8,2,9,,,,,,,,3,10,,,,,,,,,,,3,2.359,1,,,,,,0.137062129,-0.241109721,1,0,0,2.3591,Diorite_rect,8,0,8,0,1,
6618870c888a5cea7655aea7,TCN,2024-06-24_16h02.22.910,LearnStrategy,2023.2.3,MacIntel,63.29113924,8,2,10,,,,,,,,1,16,,,,,,,,,,,1,10.066,1,,,,,,-0.342054975,-0.265867389,1,0,0,10.0659,Andesite_rect,9,0,9,0,1,
6618870c888a5cea7655aea7,TCN,2024-06-24_16h02.22.910,LearnStrategy,2023.2.3,MacIntel,63.29113924,8,2,11,,,,,,,,7,10,,,,,,,,,,,7,1.207,1,,,,,,0.07037557,-0.407488562,1,0,0,1.2066,Peridotite_rect,10,0,10,0,1,
6618870c888a5cea7655aea7,TCN,2024-06-24_16h02.22.910,LearnStrategy,2023.2.3,MacIntel,63.29113924,8,2,12,,,,,,,,8,03,,,,,,,,,,,8,1.453,1,,,,,,0.318440303,-0.396671549,1,0,0,1.4534,Pumice_rect,11,0,11,0,1,
6618870c888a5cea7655aea7,TCN,2024-06-24_16h02.22.910,LearnStrategy,2023.2.3,MacIntel,63.29113924,8,2,13,,,,,,,,6,05,,,,,,,,,,,6,1.306,1,,,,,,-0.120451977,-0.399575523,1,0,0,1.3062,Pegmatite_rect,12,0,12,0,1,
6618870c888a5cea7655aea7,TCN,2024-06-24_16h02.22.910,LearnStrategy,2023.2.3,MacIntel,63.29113924,8,2,14,,,,,,,,2,02,,,,,,,,,,,2,4.041,1,,,,,,-0.108465633,-0.245428015,1,0,0,4.0413,Basalt_rect,13,0,13,0,1,
6618870c888a5cea7655aea7,TCN,2024-06-24_16h02.22.910,LearnStrategy,2023.2.3,MacIntel,63.29113924,8,2,15,,,,,,,,3,13,,,,,,,,,,,7,1.016,0,,,,,,0.119760697,-0.408125023,1,0,0,1.0159,Peridotite_rect,14,0,14,0,1,
6618870c888a5cea7655aea7,TCN,2024-06-24_16h02.22.910,LearnStrategy,2023.2.3,MacIntel,63.29113924,8,2,16,,,,,,,,1,06,,,,,,,,,,,1,1.311,1,,,,,,-0.353692683,-0.239429107,1,0,0,1.3109,Andesite_rect,15,0,15,0,1,
6618870c888a5cea7655aea7,TCN,2024-06-24_16h02.22.910,LearnStrategy,2023.2.3,MacIntel,63.29113924,9,1,1,-0.055630437,-0.02184307,1,0,0,0.9136,rock_grid_rect_2,3,07,-1,-1,0.914,0.135569368,-0.254232279,1,0,0,2.8571,Diorite_rect,3,2.857,1,0,0,0,0,1,,,,,,,,,,,,,
6618870c888a5cea7655aea7,TCN,2024-06-24_16h02.22.910,LearnStrategy,2023.2.3,MacIntel,63.29113924,9,1,2,0.010261479,-0.014498675,1,0,0,0.8822,rock_grid_rect_2,2,04,-1,-1,0.882,-0.09646906,-0.240626187,1,0,0,1.238,Basalt_rect,2,1.238,1,1,0,1,0,1,,,,,,,,,,,,,
6618870c888a5cea7655aea7,TCN,2024-06-24_16h02.22.910,LearnStrategy,2023.2.3,MacIntel,63.29113924,9,1,3,0.074975247,0.00498742,1,0,0,0.7622,rock_grid_rect_2,5,04,-1,-1,0.762,-0.32852105,-0.393678679,1,0,0,1.0258,Obsidian_rect,5,1.026,1,2,0,2,0,1,,,,,,,,,,,,,
6618870c888a5cea7655aea7,TCN,2024-06-24_16h02.22.910,LearnStrategy,2023.2.3,MacIntel,63.29113924,9,1,4,0.044714921,0.004756108,1,0,0,0.8634,rock_grid_rect_2,1,02,-1,-1,0.863,-0.359841693,-0.242373883,1,0,0,1.491,Andesite_rect,1,1.491,1,3,0,3,0,1,,,,,,,,,,,,,
6618870c888a5cea7655aea7,TCN,2024-06-24_16h02.22.910,LearnStrategy,2023.2.3,MacIntel,63.29113924,9,1,5,0.067821022,-0.004549267,1,0,0,0.8475,rock_grid_rect_2,2,06,-1,-1,0.847,-0.089161908,-0.260845326,1,0,0,1.223,Basalt_rect,2,1.223,1,4,0,4,0,1,,,,,,,,,,,,,
6618870c888a5cea7655aea7,TCN,2024-06-24_16h02.22.910,LearnStrategy,2023.2.3,MacIntel,63.29113924,9,1,6,0.027431347,-0.001563348,1,0,0,0.7296,rock_grid_rect_2,7,16,-1,-1,0.73,0.092622545,-0.397975893,1,0,0,1.0944,Peridotite_rect,7,1.094,1,5,0,5,0,1,,,,,,,,,,,,,
6618870c888a5cea7655aea7,TCN,2024-06-24_16h02.22.910,LearnStrategy,2023.2.3,MacIntel,63.29113924,9,1,7,-0.005509892,-0.011981201,1,0,0,0.8475,rock_grid_rect_2,1,04,-1,-1,0.847,-0.372281449,-0.228156196,1,0,0,1.1301,Andesite_rect,1,1.13,1,6,0,6,0,1,,,,,,,,,,,,,
6618870c888a5cea7655aea7,TCN,2024-06-24_16h02.22.910,LearnStrategy,2023.2.3,MacIntel,63.29113924,9,1,8,-0.012575277,-0.015786743,1,0,0,0.8642,rock_grid_rect_2,8,04,-1,-1,0.864,0.365149378,-0.396280642,1,0,0,1.0621,Pumice_rect,8,1.062,1,7,0,7,0,1,,,,,,,,,,,,,
6618870c888a5cea7655aea7,TCN,2024-06-24_16h02.22.910,LearnStrategy,2023.2.3,MacIntel,63.29113924,9,1,9,-0.041222975,0.007534225,1,0,0,0.6466,rock_grid_rect_2,6,10,-1,-1,0.647,-0.152061067,-0.393372882,1,0,0,1.2254,Pegmatite_rect,6,1.225,1,8,0,8,0,1,,,,,,,,,,,,,
6618870c888a5cea7655aea7,TCN,2024-06-24_16h02.22.910,LearnStrategy,2023.2.3,MacIntel,63.29113924,9,1,10,0.048601108,-0.012162668,1,0,0,1.131,rock_grid_rect_2,3,11,-1,-1,1.131,0.189989669,-0.254950629,1,0,0,0.9937,Diorite_rect,3,0.994,1,9,0,9,0,1,,,,,,,,,,,,,
6618870c888a5cea7655aea7,TCN,2024-06-24_16h02.22.910,LearnStrategy,2023.2.3,MacIntel,63.29113924,9,1,11,0.001189564,-0.003283352,1,0,0,0.7316,rock_grid_rect_2,4,01,-1,-1,0.732,-0.373223312,-0.235818934,1,0,0,5.3408,Andesite_rect,1,5.341,0,10,0,10,0,1,,,,,,,,,,,,,
6618870c888a5cea7655aea7,TCN,2024-06-24_16h02.22.910,LearnStrategy,2023.2.3,MacIntel,63.29113924,9,1,12,0.059003307,0.001081566,1,0,0,0.6821,rock_grid_rect_2,6,07,-1,-1,0.682,-0.086556103,-0.393263075,1,0,0,1.1887,Pegmatite_rect,6,1.189,1,11,0,11,0,1,,,,,,,,,,,,,
6618870c888a5cea7655aea7,TCN,2024-06-24_16h02.22.910,LearnStrategy,2023.2.3,MacIntel,63.29113924,9,1,13,0.05146394,0.011357399,1,0,0,0.7296,rock_grid_rect_2,7,04,-1,-1,0.73,-0.376570921,-0.271219324,1,0,0,1.0563,Andesite_rect,1,1.056,0,12,0,12,0,1,,,,,,,,,,,,,
6618870c888a5cea7655aea7,TCN,2024-06-24_16h02.22.910,LearnStrategy,2023.2.3,MacIntel,63.29113924,9,1,14,0.012761886,0.004823077,1,0,0,1.065,rock_grid_rect_2,4,14,-1,-1,1.065,0.348608059,-0.238832375,1,0,0,2.9908,Gabbro_rect,4,2.991,1,13,0,13,0,1,,,,,,,,,,,,,
6618870c888a5cea7655aea7,TCN,2024-06-24_16h02.22.910,LearnStrategy,2023.2.3,MacIntel,63.29113924,9,1,15,-0.012349334,-0.018033346,1,0,0,0.815,rock_grid_rect_2,5,11,-1,-1,0.815,-0.405664684,-0.411066409,1,0,0,0.9918,Obsidian_rect,5,0.992,1,14,0,14,0,1,,,,,,,,,,,,,
6618870c888a5cea7655aea7,TCN,2024-06-24_16h02.22.910,LearnStrategy,2023.2.3,MacIntel,63.29113924,9,1,16,0.06044888,-0.01493762,1,0,0,0.7315,rock_grid_rect_2,8,09,-1,-1,0.732,0.331666961,-0.413071866,1,0,0,0.9563,Pumice_rect,8,0.956,1,15,0,15,0,1,,,,,,,,,,,,,
6618870c888a5cea7655aea7,TCN,2024-06-24_16h02.22.910,LearnStrategy,2023.2.3,MacIntel,63.29113924,9,2,1,,,,,,,,2,01,,,,,,,,,,,2,8.735,1,,,,,,-0.05878149,-0.232301557,1,0,0,8.7345,Basalt_rect,0,0,0,0,1,
6618870c888a5cea7655aea7,TCN,2024-06-24_16h02.22.910,LearnStrategy,2023.2.3,MacIntel,63.29113924,9,2,2,,,,,,,,6,08,,,,,,,,,,,6,1.006,1,,,,,,-0.105367138,-0.39531979,1,0,0,1.0062,Pegmatite_rect,1,0,1,0,1,
6618870c888a5cea7655aea7,TCN,2024-06-24_16h02.22.910,LearnStrategy,2023.2.3,MacIntel,63.29113924,9,2,3,,,,,,,,1,10,,,,,,,,,,,1,10.185,1,,,,,,-0.406386255,-0.237389572,1,0,0,10.1851,Andesite_rect,2,0,2,0,1,
6618870c888a5cea7655aea7,TCN,2024-06-24_16h02.22.910,LearnStrategy,2023.2.3,MacIntel,63.29113924,9,2,4,,,,,,,,4,11,,,,,,,,,,,4,14.458,1,,,,,,0.348171771,-0.233237486,1,0,0,14.458,Gabbro_rect,3,0,3,0,1,
6618870c888a5cea7655aea7,TCN,2024-06-24_16h02.22.910,LearnStrategy,2023.2.3,MacIntel,63.29113924,9,2,5,,,,,,,,4,13,,,,,,,,,,,1,4.738,0,,,,,,-0.389304154,-0.254820025,1,0,0,4.7378,Andesite_rect,4,0,4,0,1,
6618870c888a5cea7655aea7,TCN,2024-06-24_16h02.22.910,LearnStrategy,2023.2.3,MacIntel,63.29113924,9,2,6,,,,,,,,5,14,,,,,,,,,,,5,1.131,1,,,,,,-0.342831647,-0.380089202,1,0,0,1.1313,Obsidian_rect,5,0,5,0,1,
6618870c888a5cea7655aea7,TCN,2024-06-24_16h02.22.910,LearnStrategy,2023.2.3,MacIntel,63.29113924,9,2,7,,,,,,,,8,06,,,,,,,,,,,8,1.025,1,,,,,,0.412686722,-0.38724936,1,0,0,1.0246,Pumice_rect,6,0,6,0,1,
6618870c888a5cea7655aea7,TCN,2024-06-24_16h02.22.910,LearnStrategy,2023.2.3,MacIntel,63.29113924,9,2,8,,,,,,,,5,12,,,,,,,,,,,5,1.041,1,,,,,,-0.422061185,-0.389674095,1,0,0,1.0409,Obsidian_rect,7,0,7,0,1,
6618870c888a5cea7655aea7,TCN,2024-06-24_16h02.22.910,LearnStrategy,2023.2.3,MacIntel,63.29113924,9,2,9,,,,,,,,1,09,,,,,,,,,,,1,11.184,1,,,,,,-0.377434399,-0.253069729,1,0,0,11.1841,Andesite_rect,8,0,8,0,1,
6618870c888a5cea7655aea7,TCN,2024-06-24_16h02.22.910,LearnStrategy,2023.2.3,MacIntel,63.29113924,9,2,10,,,,,,,,3,02,,,,,,,,,,,3,1.56,1,,,,,,0.113434855,-0.25355185,1,0,0,1.5601,Diorite_rect,9,0,9,0,1,
6618870c888a5cea7655aea7,TCN,2024-06-24_16h02.22.910,LearnStrategy,2023.2.3,MacIntel,63.29113924,9,2,11,,,,,,,,2,09,,,,,,,,,,,2,2.738,1,,,,,,-0.134070954,-0.255843551,1,0,0,2.738,Basalt_rect,10,0,10,0,1,
6618870c888a5cea7655aea7,TCN,2024-06-24_16h02.22.910,LearnStrategy,2023.2.3,MacIntel,63.29113924,9,2,12,,,,,,,,6,16,,,,,,,,,,,6,0.991,1,,,,,,-0.128472561,-0.420415808,1,0,0,0.991,Pegmatite_rect,11,0,11,0,1,
6618870c888a5cea7655aea7,TCN,2024-06-24_16h02.22.910,LearnStrategy,2023.2.3,MacIntel,63.29113924,9,2,13,,,,,,,,7,14,,,,,,,,,,,1,4.503,0,,,,,,-0.328223391,-0.251257946,1,0,0,4.5025,Andesite_rect,12,0,12,0,1,
6618870c888a5cea7655aea7,TCN,2024-06-24_16h02.22.910,LearnStrategy,2023.2.3,MacIntel,63.29113924,9,2,14,,,,,,,,3,09,,,,,,,,,,,3,0.923,1,,,,,,0.114040799,-0.264856805,1,0,0,0.9231,Diorite_rect,13,0,13,0,1,
6618870c888a5cea7655aea7,TCN,2024-06-24_16h02.22.910,LearnStrategy,2023.2.3,MacIntel,63.29113924,9,2,15,,,,,,,,7,02,,,,,,,,,,,7,1.035,1,,,,,,0.150242332,-0.387283269,1,0,0,1.0347,Peridotite_rect,14,0,14,0,1,
6618870c888a5cea7655aea7,TCN,2024-06-24_16h02.22.910,LearnStrategy,2023.2.3,MacIntel,63.29113924,9,2,16,,,,,,,,8,14,,,,,,,,,,,8,0.972,1,,,,,,0.36709979,-0.387539786,1,0,0,0.9715,Pumice_rect,15,0,15,0,1,
6618870c888a5cea7655aea7,TCN,2024-06-24_16h02.22.910,LearnStrategy,2023.2.3,MacIntel,63.29113924,,,,,,,,,,,,,,,,,,,,,,,,,,,,,,,,,,,,,,,,,,,1
6618870c888a5cea7655aea7,TCN,2024-06-24_16h02.22.910,LearnStrategy,2023.2.3,MacIntel,63.29113924,,,,,,,,,,,,,,,,,,,,,,,,,,,,,,,,,,,,,,,,,,,
6618870c888a5cea7655aea7,TCN,2024-06-24_16h02.22.910,LearnStrategy,2023.2.3,MacIntel,63.29113924,,,,,,,,,,,7,12,1,1,,,,,,,,,,,,,,,,,,,,,,,,,,,,,
6618870c888a5cea7655aea7,TCN,2024-06-24_16h02.22.910,LearnStrategy,2023.2.3,MacIntel,63.29113924,,,,,,,,,,,6,10,1,2,,,,,,,,,,,,,,,,,,,,,,,,,,,,,
6618870c888a5cea7655aea7,TCN,2024-06-24_16h02.22.910,LearnStrategy,2023.2.3,MacIntel,63.29113924,,,,,,,,,,,4,08,1,3,,,,,,,,,,,,,,,,,,,,,,,,,,,,,
6618870c888a5cea7655aea7,TCN,2024-06-24_16h02.22.910,LearnStrategy,2023.2.3,MacIntel,63.29113924,,,,,,,,,,,4,12,1,4,,,,,,,,,,,,,,,,,,,,,,,,,,,,,
6618870c888a5cea7655aea7,TCN,2024-06-24_16h02.22.910,LearnStrategy,2023.2.3,MacIntel,63.29113924,,,,,,,,,,,6,03,1,5,,,,,,,,,,,,,,,,,,,,,,,,,,,,,
6618870c888a5cea7655aea7,TCN,2024-06-24_16h02.22.910,LearnStrategy,2023.2.3,MacIntel,63.29113924,,,,,,,,,,,2,04,1,6,,,,,,,,,,,,,,,,,,,,,,,,,,,,,
6618870c888a5cea7655aea7,TCN,2024-06-24_16h02.22.910,LearnStrategy,2023.2.3,MacIntel,63.29113924,,,,,,,,,,,1,05,1,7,,,,,,,,,,,,,,,,,,,,,,,,,,,,,
6618870c888a5cea7655aea7,TCN,2024-06-24_16h02.22.910,LearnStrategy,2023.2.3,MacIntel,63.29113924,,,,,,,,,,,6,07,1,8,,,,,,,,,,,,,,,,,,,,,,,,,,,,,
6618870c888a5cea7655aea7,TCN,2024-06-24_16h02.22.910,LearnStrategy,2023.2.3,MacIntel,63.29113924,,,,,,,,,,,8,05,2,1,,,,,,,,,,,,,,,,,,,,,,,,,,,,,
6618870c888a5cea7655aea7,TCN,2024-06-24_16h02.22.910,LearnStrategy,2023.2.3,MacIntel,63.29113924,,,,,,,,,,,6,15,2,2,,,,,,,,,,,,,,,,,,,,,,,,,,,,,
6618870c888a5cea7655aea7,TCN,2024-06-24_16h02.22.910,LearnStrategy,2023.2.3,MacIntel,63.29113924,,,,,,,,,,,1,11,2,3,,,,,,,,,,,,,,,,,,,,,,,,,,,,,
6618870c888a5cea7655aea7,TCN,2024-06-24_16h02.22.910,LearnStrategy,2023.2.3,MacIntel,63.29113924,,,,,,,,,,,7,15,2,4,,,,,,,,,,,,,,,,,,,,,,,,,,,,,
6618870c888a5cea7655aea7,TCN,2024-06-24_16h02.22.910,LearnStrategy,2023.2.3,MacIntel,63.29113924,,,,,,,,,,,2,11,2,5,,,,,,,,,,,,,,,,,,,,,,,,,,,,,
6618870c888a5cea7655aea7,TCN,2024-06-24_16h02.22.910,LearnStrategy,2023.2.3,MacIntel,63.29113924,,,,,,,,,,,2,06,2,6,,,,,,,,,,,,,,,,,,,,,,,,,,,,,
6618870c888a5cea7655aea7,TCN,2024-06-24_16h02.22.910,LearnStrategy,2023.2.3,MacIntel,63.29113924,,,,,,,,,,,3,14,2,7,,,,,,,,,,,,,,,,,,,,,,,,,,,,,
6618870c888a5cea7655aea7,TCN,2024-06-24_16h02.22.910,LearnStrategy,2023.2.3,MacIntel,63.29113924,,,,,,,,,,,1,04,2,8,,,,,,,,,,,,,,,,,,,,,,,,,,,,,
6618870c888a5cea7655aea7,TCN,2024-06-24_16h02.22.910,LearnStrategy,2023.2.3,MacIntel,63.29113924,,,,,,,,,,,5,07,3,1,,,,,,,,,,,,,,,,,,,,,,,,,,,,,
6618870c888a5cea7655aea7,TCN,2024-06-24_16h02.22.910,LearnStrategy,2023.2.3,MacIntel,63.29113924,,,,,,,,,,,2,05,3,2,,,,,,,,,,,,,,,,,,,,,,,,,,,,,
6618870c888a5cea7655aea7,TCN,2024-06-24_16h02.22.910,LearnStrategy,2023.2.3,MacIntel,63.29113924,,,,,,,,,,,6,06,3,3,,,,,,,,,,,,,,,,,,,,,,,,,,,,,
6618870c888a5cea7655aea7,TCN,2024-06-24_16h02.22.910,LearnStrategy,2023.2.3,MacIntel,63.29113924,,,,,,,,,,,8,02,3,4,,,,,,,,,,,,,,,,,,,,,,,,,,,,,
6618870c888a5cea7655aea7,TCN,2024-06-24_16h02.22.910,LearnStrategy,2023.2.3,MacIntel,63.29113924,,,,,,,,,,,3,08,3,5,,,,,,,,,,,,,,,,,,,,,,,,,,,,,
6618870c888a5cea7655aea7,TCN,2024-06-24_16h02.22.910,LearnStrategy,2023.2.3,MacIntel,63.29113924,,,,,,,,,,,7,16,3,6,,,,,,,,,,,,,,,,,,,,,,,,,,,,,
6618870c888a5cea7655aea7,TCN,2024-06-24_16h02.22.910,LearnStrategy,2023.2.3,MacIntel,63.29113924,,,,,,,,,,,8,04,3,7,,,,,,,,,,,,,,,,,,,,,,,,,,,,,
6618870c888a5cea7655aea7,TCN,2024-06-24_16h02.22.910,LearnStrategy,2023.2.3,MacIntel,63.29113924,,,,,,,,,,,5,05,3,8,,,,,,,,,,,,,,,,,,,,,,,,,,,,,
6618870c888a5cea7655aea7,TCN,2024-06-24_16h02.22.910,LearnStrategy,2023.2.3,MacIntel,63.29113924,,,,,,,,,,,4,05,4,1,,,,,,,,,,,,,,,,,,,,,,,,,,,,,
6618870c888a5cea7655aea7,TCN,2024-06-24_16h02.22.910,LearnStrategy,2023.2.3,MacIntel,63.29113924,,,,,,,,,,,8,09,4,2,,,,,,,,,,,,,,,,,,,,,,,,,,,,,
6618870c888a5cea7655aea7,TCN,2024-06-24_16h02.22.910,LearnStrategy,2023.2.3,MacIntel,63.29113924,,,,,,,,,,,7,13,4,3,,,,,,,,,,,,,,,,,,,,,,,,,,,,,
6618870c888a5cea7655aea7,TCN,2024-06-24_16h02.22.910,LearnStrategy,2023.2.3,MacIntel,63.29113924,,,,,,,,,,,4,14,4,4,,,,,,,,,,,,,,,,,,,,,,,,,,,,,
6618870c888a5cea7655aea7,TCN,2024-06-24_16h02.22.910,LearnStrategy,2023.2.3,MacIntel,63.29113924,,,,,,,,,,,7,04,4,5,,,,,,,,,,,,,,,,,,,,,,,,,,,,,
6618870c888a5cea7655aea7,TCN,2024-06-24_16h02.22.910,LearnStrategy,2023.2.3,MacIntel,63.29113924,,,,,,,,,,,4,09,4,6,,,,,,,,,,,,,,,,,,,,,,,,,,,,,
6618870c888a5cea7655aea7,TCN,2024-06-24_16h02.22.910,LearnStrategy,2023.2.3,MacIntel,63.29113924,,,,,,,,,,,8,13,4,7,,,,,,,,,,,,,,,,,,,,,,,,,,,,,
6618870c888a5cea7655aea7,TCN,2024-06-24_16h02.22.910,LearnStrategy,2023.2.3,MacIntel,63.29113924,,,,,,,,,,,5,11,4,8,,,,,,,,,,,,,,,,,,,,,,,,,,,,,
6618870c888a5cea7655aea7,TCN,2024-06-24_16h02.22.910,LearnStrategy,2023.2.3,MacIntel,63.29113924,,,,,,,,,,,8,16,5,1,,,,,,,,,,,,,,,,,,,,,,,,,,,,,
6618870c888a5cea7655aea7,TCN,2024-06-24_16h02.22.910,LearnStrategy,2023.2.3,MacIntel,63.29113924,,,,,,,,,,,5,16,5,2,,,,,,,,,,,,,,,,,,,,,,,,,,,,,
6618870c888a5cea7655aea7,TCN,2024-06-24_16h02.22.910,LearnStrategy,2023.2.3,MacIntel,63.29113924,,,,,,,,,,,6,13,5,3,,,,,,,,,,,,,,,,,,,,,,,,,,,,,
6618870c888a5cea7655aea7,TCN,2024-06-24_16h02.22.910,LearnStrategy,2023.2.3,MacIntel,63.29113924,,,,,,,,,,,1,03,5,4,,,,,,,,,,,,,,,,,,,,,,,,,,,,,
6618870c888a5cea7655aea7,TCN,2024-06-24_16h02.22.910,LearnStrategy,2023.2.3,MacIntel,63.29113924,,,,,,,,,,,7,06,5,5,,,,,,,,,,,,,,,,,,,,,,,,,,,,,
6618870c888a5cea7655aea7,TCN,2024-06-24_16h02.22.910,LearnStrategy,2023.2.3,MacIntel,63.29113924,,,,,,,,,,,2,08,5,6,,,,,,,,,,,,,,,,,,,,,,,,,,,,,
6618870c888a5cea7655aea7,TCN,2024-06-24_16h02.22.910,LearnStrategy,2023.2.3,MacIntel,63.29113924,,,,,,,,,,,5,04,5,7,,,,,,,,,,,,,,,,,,,,,,,,,,,,,
6618870c888a5cea7655aea7,TCN,2024-06-24_16h02.22.910,LearnStrategy,2023.2.3,MacIntel,63.29113924,,,,,,,,,,,2,14,5,8,,,,,,,,,,,,,,,,,,,,,,,,,,,,,
6618870c888a5cea7655aea7,TCN,2024-06-24_16h02.22.910,LearnStrategy,2023.2.3,MacIntel,63.29113924,,,,,,,,,,,1,07,6,1,,,,,,,,,,,,,,,,,,,,,,,,,,,,,
6618870c888a5cea7655aea7,TCN,2024-06-24_16h02.22.910,LearnStrategy,2023.2.3,MacIntel,63.29113924,,,,,,,,,,,3,07,6,2,,,,,,,,,,,,,,,,,,,,,,,,,,,,,
6618870c888a5cea7655aea7,TCN,2024-06-24_16h02.22.910,LearnStrategy,2023.2.3,MacIntel,63.29113924,,,,,,,,,,,3,11,6,3,,,,,,,,,,,,,,,,,,,,,,,,,,,,,
6618870c888a5cea7655aea7,TCN,2024-06-24_16h02.22.910,LearnStrategy,2023.2.3,MacIntel,63.29113924,,,,,,,,,,,3,12,6,4,,,,,,,,,,,,,,,,,,,,,,,,,,,,,
6618870c888a5cea7655aea7,TCN,2024-06-24_16h02.22.910,LearnStrategy,2023.2.3,MacIntel,63.29113924,,,,,,,,,,,4,01,6,5,,,,,,,,,,,,,,,,,,,,,,,,,,,,,
6618870c888a5cea7655aea7,TCN,2024-06-24_16h02.22.910,LearnStrategy,2023.2.3,MacIntel,63.29113924,,,,,,,,,,,1,02,6,6,,,,,,,,,,,,,,,,,,,,,,,,,,,,,
6618870c888a5cea7655aea7,TCN,2024-06-24_16h02.22.910,LearnStrategy,2023.2.3,MacIntel,63.29113924,,,,,,,,,,,3,15,6,7,,,,,,,,,,,,,,,,,,,,,,,,,,,,,
6618870c888a5cea7655aea7,TCN,2024-06-24_16h02.22.910,LearnStrategy,2023.2.3,MacIntel,63.29113924,,,,,,,,,,,5,08,6,8,,,,,,,,,,,,,,,,,,,,,,,,,,,,,