participant,condition,date,expName,psychopyVersion,OS,frameRate,block,phase,trial,learn_mouse_2.x,learn_mouse_2.y,learn_mouse_2.leftButton,learn_mouse_2.midButton,learn_mouse_2.rightButton,learn_mouse_2.time,learn_mouse_2.clicked_name,cat,token,row,col,t_select,cat_mouse_l.x,cat_mouse_l.y,cat_mouse_l.leftButton,cat_mouse_l.midButton,cat_mouse_l.rightButton,cat_mouse_l.time,cat_mouse_l.clicked_name,resp,t_resp,corr,train_trials.thisRepN,train_trials.thisTrialN,train_trials.thisN,train_trials.thisIndex,train_trials.ran,cat_mouse_t.x,cat_mouse_t.y,cat_mouse_t.leftButton,cat_mouse_t.midButton,cat_mouse_t.rightButton,cat_mouse_t.time,cat_mouse_t.clicked_name,test_trials.thisRepN,test_trials.thisTrialN,test_trials.thisN,test_trials.thisIndex,test_trials.ran,Bonus
661b3299bf19db77d7412b86,TCN,2024-06-20_10h42.27.910,LearnStrategy,2023.2.3,Win32,59.17159763,,,,,,,,,,,,,,,,,,,,,,,,,,,,,,,,,,,,,,,,,,,
661b3299bf19db77d7412b86,TCN,2024-06-20_10h42.27.910,LearnStrategy,2023.2.3,Win32,59.17159763,1,1,1,-0.002735127,-0.007944757,1,0,0,2.3894,rock_grid_rect_2,7,08,-1,-1,2.389,0.391898868,-0.239775999,1,0,0,11.5278,Gabbro_rect,4,11.528,0,0,0,0,0,1,,,,,,,,,,,,,
661b3299bf19db77d7412b86,TCN,2024-06-20_10h42.27.910,LearnStrategy,2023.2.3,Win32,59.17159763,1,1,2,0.032430304,-0.019666568,1,0,0,3.708,rock_grid_rect_2,4,15,-1,-1,3.708,0.135321675,-0.406486008,1,0,0,3.8848,Peridotite_rect,7,3.885,0,1,0,1,0,1,,,,,,,,,,,,,
661b3299bf19db77d7412b86,TCN,2024-06-20_10h42.27.910,LearnStrategy,2023.2.3,Win32,59.17159763,1,1,3,-0.007944801,-0.007944757,1,0,0,1.0874,rock_grid_rect_2,3,15,-1,-1,1.087,0.110575591,-0.246288048,1,0,0,5.8684,Diorite_rect,3,5.868,1,2,0,2,0,1,,,,,,,,,,,,,
661b3299bf19db77d7412b86,TCN,2024-06-20_10h42.27.910,LearnStrategy,2023.2.3,Win32,59.17159763,1,1,4,0.031127842,0.024615793,1,0,0,1.183,rock_grid_rect_2,2,10,-1,-1,1.183,0.373665009,-0.254102647,1,0,0,2.3339,Gabbro_rect,4,2.334,0,3,0,3,0,1,,,,,,,,,,,,,
661b3299bf19db77d7412b86,TCN,2024-06-20_10h42.27.910,LearnStrategy,2023.2.3,Win32,59.17159763,1,1,5,0.007684221,0.012893983,1,0,0,2.2881,rock_grid_rect_2,8,13,-1,-1,2.288,0.39971338,-0.237171075,1,0,0,3.164,Gabbro_rect,4,3.164,0,4,0,4,0,1,,,,,,,,,,,,,
661b3299bf19db77d7412b86,TCN,2024-06-20_10h42.27.910,LearnStrategy,2023.2.3,Win32,59.17159763,1,1,6,-0.00013029,0.002474678,1,0,0,1.2476,rock_grid_rect_2,1,01,-1,-1,1.248,0.33589474,-0.228054145,1,0,0,5.1122,Gabbro_rect,4,5.112,0,5,0,5,0,1,,,,,,,,,,,,,
661b3299bf19db77d7412b86,TCN,2024-06-20_10h42.27.910,LearnStrategy,2023.2.3,Win32,59.17159763,1,1,7,0.01549882,-0.01445685,1,0,0,1.0314,rock_grid_rect_2,3,11,-1,-1,1.031,0.075410247,-0.234566238,1,0,0,4.4732,Diorite_rect,3,4.473,1,6,0,6,0,1,,,,,,,,,,,,,
661b3299bf19db77d7412b86,TCN,2024-06-20_10h42.27.910,LearnStrategy,2023.2.3,Win32,59.17159763,1,1,8,0.01549882,0.00638189,1,0,0,1.2437,rock_grid_rect_2,1,16,-1,-1,1.244,0.137926512,-0.39606666,1,0,0,1.9764,Peridotite_rect,7,1.976,0,7,0,7,0,1,,,,,,,,,,,,,
661b3299bf19db77d7412b86,TCN,2024-06-20_10h42.27.910,LearnStrategy,2023.2.3,Win32,59.17159763,1,1,9,-0.00013029,-0.006642339,1,0,0,1.4345,rock_grid_rect_2,5,16,-1,-1,1.435,-0.372623083,-0.39606666,1,0,0,2.3428,Obsidian_rect,5,2.343,1,8,0,8,0,1,,,,,,,,,,,,,
661b3299bf19db77d7412b86,TCN,2024-06-20_10h42.27.910,LearnStrategy,2023.2.3,Win32,59.17159763,1,1,10,-0.009247351,-0.001432665,1,0,0,1.2515,rock_grid_rect_2,4,10,-1,-1,1.251,0.345011714,-0.401276334,1,0,0,3.1337,Pumice_rect,8,3.134,0,9,0,9,0,1,,,,,,,,,,,,,
661b3299bf19db77d7412b86,TCN,2024-06-20_10h42.27.910,LearnStrategy,2023.2.3,Win32,59.17159763,1,1,11,-0.020969074,0.008986727,1,0,0,1.634,rock_grid_rect_2,7,13,-1,-1,1.634,0.124902239,-0.399973959,1,0,0,3.5116,Peridotite_rect,7,3.512,1,10,0,10,0,1,,,,,,,,,,,,,
661b3299bf19db77d7412b86,TCN,2024-06-20_10h42.27.910,LearnStrategy,2023.2.3,Win32,59.17159763,1,1,12,-0.0118521,-0.009247176,1,0,0,1.5318,rock_grid_rect_2,6,05,-1,-1,1.532,-0.093904687,-0.414300607,1,0,0,1.6983,Pegmatite_rect,6,1.698,1,11,0,11,0,1,,,,,,,,,,,,,
661b3299bf19db77d7412b86,TCN,2024-06-20_10h42.27.910,LearnStrategy,2023.2.3,Win32,59.17159763,1,1,13,0.046756952,0.015498864,1,0,0,0.8151,rock_grid_rect_2,8,09,-1,-1,0.815,0.355431062,-0.402578797,1,0,0,1.4258,Pumice_rect,8,1.426,1,12,0,12,0,1,,,,,,,,,,,,,
661b3299bf19db77d7412b86,TCN,2024-06-20_10h42.27.910,LearnStrategy,2023.2.3,Win32,59.17159763,1,1,14,-0.044412607,-0.013154388,1,0,0,0.8494,rock_grid_rect_2,6,12,-1,-1,0.849,0.136623962,-0.244985673,1,0,0,3.6569,Diorite_rect,3,3.657,0,13,0,13,0,1,,,,,,,,,,,,,
661b3299bf19db77d7412b86,TCN,2024-06-20_10h42.27.910,LearnStrategy,2023.2.3,Win32,59.17159763,1,1,15,-0.004037502,-0.004037502,1,0,0,0.9476,rock_grid_rect_2,2,06,-1,-1,0.948,-0.088695012,-0.242380836,1,0,0,1.5595,Basalt_rect,2,1.56,1,14,0,14,0,1,,,,,,,,,,,,,
661b3299bf19db77d7412b86,TCN,2024-06-20_10h42.27.910,LearnStrategy,2023.2.3,Win32,59.17159763,1,1,16,0.003777009,-0.00533992,1,0,0,1.046,rock_grid_rect_2,5,05,-1,-1,1.046,-0.439046647,-0.401276334,1,0,0,1.7575,Obsidian_rect,5,1.758,1,15,0,15,0,1,,,,,,,,,,,,,
661b3299bf19db77d7412b86,TCN,2024-06-20_10h42.27.910,LearnStrategy,2023.2.3,Win32,59.17159763,1,2,1,,,,,,,,7,04,,,,,,,,,,,7,2.502,1,,,,,,0.089736895,-0.39476411,1,0,0,2.5019,Peridotite_rect,0,0,0,0,1,
661b3299bf19db77d7412b86,TCN,2024-06-20_10h42.27.910,LearnStrategy,2023.2.3,Win32,59.17159763,1,2,2,,,,,,,,4,03,,,,,,,,,,,3,3.426,0,,,,,,0.094946569,-0.239775999,1,0,0,3.4258,Diorite_rect,1,0,1,0,1,
661b3299bf19db77d7412b86,TCN,2024-06-20_10h42.27.910,LearnStrategy,2023.2.3,Win32,59.17159763,1,2,3,,,,,,,,7,10,,,,,,,,,,,7,2.722,1,,,,,,0.062385887,-0.389554524,1,0,0,2.7218,Peridotite_rect,2,0,2,0,1,
661b3299bf19db77d7412b86,TCN,2024-06-20_10h42.27.910,LearnStrategy,2023.2.3,Win32,59.17159763,1,2,4,,,,,,,,3,07,,,,,,,,,,,6,1.916,0,,,,,,-0.126465281,-0.388252149,1,0,0,1.9164,Pegmatite_rect,3,0,3,0,1,
661b3299bf19db77d7412b86,TCN,2024-06-20_10h42.27.910,LearnStrategy,2023.2.3,Win32,59.17159763,1,2,5,,,,,,,,6,03,,,,,,,,,,,6,2.616,1,,,,,,-0.110836171,-0.405183634,1,0,0,2.6159,Pegmatite_rect,4,0,4,0,1,
661b3299bf19db77d7412b86,TCN,2024-06-20_10h42.27.910,LearnStrategy,2023.2.3,Win32,59.17159763,1,2,6,,,,,,,,2,04,,,,,,,,,,,2,2.049,1,,,,,,-0.088695012,-0.233263863,1,0,0,2.0487,Basalt_rect,5,0,5,0,1,
661b3299bf19db77d7412b86,TCN,2024-06-20_10h42.27.910,LearnStrategy,2023.2.3,Win32,59.17159763,1,2,7,,,,,,,,1,02,,,,,,,,,,,3,3.449,0,,,,,,0.127507163,-0.259312321,1,0,0,3.4492,Diorite_rect,6,0,6,0,1,
661b3299bf19db77d7412b86,TCN,2024-06-20_10h42.27.910,LearnStrategy,2023.2.3,Win32,59.17159763,1,2,8,,,,,,,,3,08,,,,,,,,,,,3,3.807,1,,,,,,0.117087728,-0.255405022,1,0,0,3.8074,Diorite_rect,7,0,7,0,1,
661b3299bf19db77d7412b86,TCN,2024-06-20_10h42.27.910,LearnStrategy,2023.2.3,Win32,59.17159763,1,2,9,,,,,,,,5,07,,,,,,,,,,,5,1.327,1,,,,,,-0.370018246,-0.383042387,1,0,0,1.3271,Obsidian_rect,8,0,8,0,1,
661b3299bf19db77d7412b86,TCN,2024-06-20_10h42.27.910,LearnStrategy,2023.2.3,Win32,59.17159763,1,2,10,,,,,,,,6,11,,,,,,,,,,,6,1.552,1,,,,,,-0.118650682,-0.388252149,1,0,0,1.5515,Pegmatite_rect,9,0,9,0,1,
661b3299bf19db77d7412b86,TCN,2024-06-20_10h42.27.910,LearnStrategy,2023.2.3,Win32,59.17159763,1,2,11,,,,,,,,2,01,,,,,,,,,,,2,1.284,1,,,,,,-0.091299849,-0.238473537,1,0,0,1.2841,Basalt_rect,10,0,10,0,1,
661b3299bf19db77d7412b86,TCN,2024-06-20_10h42.27.910,LearnStrategy,2023.2.3,Win32,59.17159763,1,2,12,,,,,,,,4,08,,,,,,,,,,,4,3.924,1,,,,,,0.360640736,-0.248892885,1,0,0,3.9239,Gabbro_rect,11,0,11,0,1,
661b3299bf19db77d7412b86,TCN,2024-06-20_10h42.27.910,LearnStrategy,2023.2.3,Win32,59.17159763,1,2,13,,,,,,,,8,15,,,,,,,,,,,8,1.578,1,,,,,,0.358035899,-0.39476411,1,0,0,1.5783,Pumice_rect,12,0,12,0,1,
661b3299bf19db77d7412b86,TCN,2024-06-20_10h42.27.910,LearnStrategy,2023.2.3,Win32,59.17159763,1,2,14,,,,,,,,1,09,,,,,,,,,,,3,7.55,0,,,,,,0.064990811,-0.264521995,1,0,0,7.5499,Diorite_rect,13,0,13,0,1,
661b3299bf19db77d7412b86,TCN,2024-06-20_10h42.27.910,LearnStrategy,2023.2.3,Win32,59.17159763,1,2,15,,,,,,,,5,08,,,,,,,,,,,5,2.067,1,,,,,,-0.394764285,-0.389554524,1,0,0,2.0675,Obsidian_rect,14,0,14,0,1,
661b3299bf19db77d7412b86,TCN,2024-06-20_10h42.27.910,LearnStrategy,2023.2.3,Win32,59.17159763,1,2,16,,,,,,,,8,03,,,,,,,,,,,8,1.297,1,,,,,,0.33589474,-0.416905444,1,0,0,1.2968,Pumice_rect,15,0,15,0,1,
661b3299bf19db77d7412b86,TCN,2024-06-20_10h42.27.910,LearnStrategy,2023.2.3,Win32,59.17159763,2,1,1,0.028523005,0.002474678,1,0,0,1.954,rock_grid_rect_2,4,01,-1,-1,1.954,-0.397369122,-0.248892885,1,0,0,9.3928,Andesite_rect,1,9.393,0,0,0,0,0,1,,,,,,,,,,,,,
661b3299bf19db77d7412b86,TCN,2024-06-20_10h42.27.910,LearnStrategy,2023.2.3,Win32,59.17159763,2,1,2,-0.026178748,0.010289146,1,0,0,1.3521,rock_grid_rect_2,2,02,-1,-1,1.352,-0.182469409,-0.234566238,1,0,0,1.4302,Basalt_rect,2,1.43,1,1,0,1,0,1,,,,,,,,,,,,,
661b3299bf19db77d7412b86,TCN,2024-06-20_10h42.27.910,LearnStrategy,2023.2.3,Win32,59.17159763,2,1,3,-0.015759312,-0.002735083,1,0,0,1.551,rock_grid_rect_2,6,06,-1,-1,1.551,-0.140791929,-0.402578797,1,0,0,4.8916,Pegmatite_rect,6,4.892,1,2,0,2,0,1,,,,,,,,,,,,,
661b3299bf19db77d7412b86,TCN,2024-06-20_10h42.27.910,LearnStrategy,2023.2.3,Win32,59.17159763,2,1,4,0.005079297,0.001172216,1,0,0,1.2015,rock_grid_rect_2,4,12,-1,-1,1.201,0.079317459,-0.259312321,1,0,0,2.4486,Diorite_rect,3,2.449,0,3,0,3,0,1,,,,,,,,,,,,,
661b3299bf19db77d7412b86,TCN,2024-06-20_10h42.27.910,LearnStrategy,2023.2.3,Win32,59.17159763,2,1,5,0.028523005,-0.001432665,1,0,0,1.2328,rock_grid_rect_2,1,03,-1,-1,1.233,-0.134279792,-0.239775999,1,0,0,1.3916,Basalt_rect,2,1.392,0,4,0,4,0,1,,,,,,,,,,,,,
661b3299bf19db77d7412b86,TCN,2024-06-20_10h42.27.910,LearnStrategy,2023.2.3,Win32,59.17159763,2,1,6,-0.047017445,0.003777053,1,0,0,3.1263,rock_grid_rect_2,5,06,-1,-1,3.126,-0.333550483,-0.386949687,1,0,0,1.2396,Obsidian_rect,5,1.24,1,5,0,5,0,1,,,,,,,,,,,,,
661b3299bf19db77d7412b86,TCN,2024-06-20_10h42.27.910,LearnStrategy,2023.2.3,Win32,59.17159763,2,1,7,0.024615793,0.005079472,1,0,0,0.9803,rock_grid_rect_2,6,15,-1,-1,0.98,-0.061344092,-0.392159361,1,0,0,6.7315,Pegmatite_rect,6,6.731,1,6,0,6,0,1,,,,,,,,,,,,,
661b3299bf19db77d7412b86,TCN,2024-06-20_10h42.27.910,LearnStrategy,2023.2.3,Win32,59.17159763,2,1,8,0.023313331,-0.018364149,1,0,0,0.9485,rock_grid_rect_2,1,10,-1,-1,0.948,0.365850323,-0.250195347,1,0,0,4.261,Gabbro_rect,4,4.261,0,7,0,7,0,1,,,,,,,,,,,,,
661b3299bf19db77d7412b86,TCN,2024-06-20_10h42.27.910,LearnStrategy,2023.2.3,Win32,59.17159763,2,1,9,-0.035295721,0.008986727,1,0,0,1.3338,rock_grid_rect_2,2,05,-1,-1,1.334,-0.143396766,-0.267126832,1,0,0,1.5635,Basalt_rect,2,1.564,1,8,0,8,0,1,,,,,,,,,,,,,
661b3299bf19db77d7412b86,TCN,2024-06-20_10h42.27.910,LearnStrategy,2023.2.3,Win32,59.17159763,2,1,10,0.014196358,0.012893983,1,0,0,0.8952,rock_grid_rect_2,8,06,-1,-1,0.895,0.365850323,-0.386949687,1,0,0,1.3946,Pumice_rect,8,1.395,1,9,0,9,0,1,,,,,,,,,,,,,
661b3299bf19db77d7412b86,TCN,2024-06-20_10h42.27.910,LearnStrategy,2023.2.3,Win32,59.17159763,2,1,11,0.01549882,0.001172216,1,0,0,1.6699,rock_grid_rect_2,7,05,-1,-1,1.67,0.071502948,-0.406486008,1,0,0,5.9877,Peridotite_rect,7,5.988,1,10,0,10,0,1,,,,,,,,,,,,,
661b3299bf19db77d7412b86,TCN,2024-06-20_10h42.27.910,LearnStrategy,2023.2.3,Win32,59.17159763,2,1,12,-0.00013029,0.015498864,1,0,0,0.8969,rock_grid_rect_2,7,02,-1,-1,0.897,0.080619921,-0.411695683,1,0,0,1.5844,Peridotite_rect,7,1.584,1,11,0,11,0,1,,,,,,,,,,,,,
661b3299bf19db77d7412b86,TCN,2024-06-20_10h42.27.910,LearnStrategy,2023.2.3,Win32,59.17159763,2,1,13,-0.00013029,0.015498864,1,0,0,0.8816,rock_grid_rect_2,5,14,-1,-1,0.882,-0.401276378,-0.412998145,1,0,0,1.3308,Obsidian_rect,5,1.331,1,12,0,12,0,1,,,,,,,,,,,,,
661b3299bf19db77d7412b86,TCN,2024-06-20_10h42.27.910,LearnStrategy,2023.2.3,Win32,59.17159763,2,1,14,0.02722063,-0.009247176,1,0,0,1.0162,rock_grid_rect_2,3,12,-1,-1,1.016,-0.372623083,-0.242380836,1,0,0,2.0169,Andesite_rect,1,2.017,0,13,0,13,0,1,,,,,,,,,,,,,
661b3299bf19db77d7412b86,TCN,2024-06-20_10h42.27.910,LearnStrategy,2023.2.3,Win32,59.17159763,2,1,15,-0.026178748,0.00638189,1,0,0,1.0549,rock_grid_rect_2,3,10,-1,-1,1.055,-0.375227964,-0.244985673,1,0,0,3.5677,Andesite_rect,1,3.568,0,14,0,14,0,1,,,,,,,,,,,,,
661b3299bf19db77d7412b86,TCN,2024-06-20_10h42.27.910,LearnStrategy,2023.2.3,Win32,59.17159763,2,1,16,-0.026178748,0.005079472,1,0,0,0.9016,rock_grid_rect_2,8,14,-1,-1,0.902,0.363245573,-0.380437463,1,0,0,1.496,Pumice_rect,8,1.496,1,15,0,15,0,1,,,,,,,,,,,,,
661b3299bf19db77d7412b86,TCN,2024-06-20_10h42.27.910,LearnStrategy,2023.2.3,Win32,59.17159763,2,2,1,,,,,,,,4,16,,,,,,,,,,,4,3.596,1,,,,,,0.361943198,-0.241078374,1,0,0,3.5955,Gabbro_rect,0,0,0,0,1,
661b3299bf19db77d7412b86,TCN,2024-06-20_10h42.27.910,LearnStrategy,2023.2.3,Win32,59.17159763,2,2,2,,,,,,,,7,15,,,,,,,,,,,7,2.187,1,,,,,,0.145741023,-0.409090758,1,0,0,2.1874,Peridotite_rect,1,0,1,0,1,
661b3299bf19db77d7412b86,TCN,2024-06-20_10h42.27.910,LearnStrategy,2023.2.3,Win32,59.17159763,2,2,3,,,,,,,,5,09,,,,,,,,,,,5,1.399,1,,,,,,-0.360901316,-0.39606666,1,0,0,1.3986,Obsidian_rect,2,0,2,0,1,
661b3299bf19db77d7412b86,TCN,2024-06-20_10h42.27.910,LearnStrategy,2023.2.3,Win32,59.17159763,2,2,4,,,,,,,,1,04,,,,,,,,,,,1,1.59,1,,,,,,-0.371320664,-0.230658982,1,0,0,1.5896,Andesite_rect,3,0,3,0,1,
661b3299bf19db77d7412b86,TCN,2024-06-20_10h42.27.910,LearnStrategy,2023.2.3,Win32,59.17159763,2,2,5,,,,,,,,1,05,,,,,,,,,,,7,3.631,0,,,,,,0.110575591,-0.385647312,1,0,0,3.6313,Peridotite_rect,4,0,4,0,1,
661b3299bf19db77d7412b86,TCN,2024-06-20_10h42.27.910,LearnStrategy,2023.2.3,Win32,59.17159763,2,2,6,,,,,,,,3,13,,,,,,,,,,,3,3.231,1,,,,,,0.145741023,-0.251497722,1,0,0,3.2313,Diorite_rect,5,0,5,0,1,
661b3299bf19db77d7412b86,TCN,2024-06-20_10h42.27.910,LearnStrategy,2023.2.3,Win32,59.17159763,2,2,7,,,,,,,,2,08,,,,,,,,,,,4,5.603,0,,,,,,0.341104415,-0.242380836,1,0,0,5.6035,Gabbro_rect,6,0,6,0,1,
661b3299bf19db77d7412b86,TCN,2024-06-20_10h42.27.910,LearnStrategy,2023.2.3,Win32,59.17159763,2,2,8,,,,,,,,8,16,,,,,,,,,,,8,1.374,1,,,,,,0.355431062,-0.403881171,1,0,0,1.3743,Pumice_rect,7,0,7,0,1,
661b3299bf19db77d7412b86,TCN,2024-06-20_10h42.27.910,LearnStrategy,2023.2.3,Win32,59.17159763,2,2,9,,,,,,,,2,11,,,,,,,,,,,4,9.778,0,,,,,,0.373665009,-0.234566238,1,0,0,9.7784,Gabbro_rect,8,0,8,0,1,
661b3299bf19db77d7412b86,TCN,2024-06-20_10h42.27.910,LearnStrategy,2023.2.3,Win32,59.17159763,2,2,10,,,,,,,,5,10,,,,,,,,,,,5,1.485,1,,,,,,-0.40648614,-0.416905444,1,0,0,1.4847,Obsidian_rect,9,0,9,0,1,
661b3299bf19db77d7412b86,TCN,2024-06-20_10h42.27.910,LearnStrategy,2023.2.3,Win32,59.17159763,2,2,11,,,,,,,,4,11,,,,,,,,,,,1,4.017,0,,,,,,-0.441651484,-0.230658982,1,0,0,4.0169,Andesite_rect,10,0,10,0,1,
661b3299bf19db77d7412b86,TCN,2024-06-20_10h42.27.910,LearnStrategy,2023.2.3,Win32,59.17159763,2,2,12,,,,,,,,3,14,,,,,,,,,,,6,4.133,0,,,,,,-0.073065903,-0.393461823,1,0,0,4.1332,Pegmatite_rect,11,0,11,0,1,
661b3299bf19db77d7412b86,TCN,2024-06-20_10h42.27.910,LearnStrategy,2023.2.3,Win32,59.17159763,2,2,13,,,,,,,,6,10,,,,,,,,,,,7,1.54,0,,,,,,0.085829595,-0.39476411,1,0,0,1.5404,Peridotite_rect,12,0,12,0,1,
661b3299bf19db77d7412b86,TCN,2024-06-20_10h42.27.910,LearnStrategy,2023.2.3,Win32,59.17159763,2,2,14,,,,,,,,7,07,,,,,,,,,,,7,1.026,1,,,,,,0.085829595,-0.39476411,1,0,0,1.0265,Peridotite_rect,13,0,13,0,1,
661b3299bf19db77d7412b86,TCN,2024-06-20_10h42.27.910,LearnStrategy,2023.2.3,Win32,59.17159763,2,2,15,,,,,,,,8,02,,,,,,,,,,,8,1.377,1,,,,,,0.359338361,-0.393461823,1,0,0,1.3772,Pumice_rect,14,0,14,0,1,
661b3299bf19db77d7412b86,TCN,2024-06-20_10h42.27.910,LearnStrategy,2023.2.3,Win32,59.17159763,2,2,16,,,,,,,,6,16,,,,,,,,,,,3,8.509,0,,,,,,0.055873926,-0.267126832,1,0,0,8.5086,Diorite_rect,15,0,15,0,1,
661b3299bf19db77d7412b86,TCN,2024-06-20_10h42.27.910,LearnStrategy,2023.2.3,Win32,59.17159763,3,1,1,0.011591521,-0.002735083,1,0,0,1.0334,rock_grid_rect_2,8,10,-1,-1,1.033,0.36975771,-0.393461823,1,0,0,1.8112,Pumice_rect,8,1.811,1,0,0,0,0,1,,,,,,,,,,,,,
661b3299bf19db77d7412b86,TCN,2024-06-20_10h42.27.910,LearnStrategy,2023.2.3,Win32,59.17159763,3,1,2,-0.019666612,0.001172216,1,0,0,1.2167,rock_grid_rect_2,8,04,-1,-1,1.217,0.350221388,-0.39476411,1,0,0,1.3858,Pumice_rect,8,1.386,1,1,0,1,0,1,,,,,,,,,,,,,
661b3299bf19db77d7412b86,TCN,2024-06-20_10h42.27.910,LearnStrategy,2023.2.3,Win32,59.17159763,3,1,3,-0.062646554,0.00638189,1,0,0,0.9795,rock_grid_rect_2,3,16,-1,-1,0.98,-0.389554611,-0.2358687,1,0,0,3.0503,Andesite_rect,1,3.05,0,2,0,2,0,1,,,,,,,,,,,,,
661b3299bf19db77d7412b86,TCN,2024-06-20_10h42.27.910,LearnStrategy,2023.2.3,Win32,59.17159763,3,1,4,0.022010869,-0.019666568,1,0,0,1.0999,rock_grid_rect_2,5,12,-1,-1,1.1,-0.368715827,-0.393461823,1,0,0,1.5591,Obsidian_rect,5,1.559,1,3,0,3,0,1,,,,,,,,,,,,,
661b3299bf19db77d7412b86,TCN,2024-06-20_10h42.27.910,LearnStrategy,2023.2.3,Win32,59.17159763,3,1,5,-0.07567074,-0.013154388,1,0,0,1.1998,rock_grid_rect_2,7,16,-1,-1,1.2,0.127507163,-0.416905444,1,0,0,1.549,Peridotite_rect,7,1.549,1,4,0,4,0,1,,,,,,,,,,,,,
661b3299bf19db77d7412b86,TCN,2024-06-20_10h42.27.910,LearnStrategy,2023.2.3,Win32,59.17159763,3,1,6,-0.001432665,-0.001432665,1,0,0,1.7356,rock_grid_rect_2,6,09,-1,-1,1.736,0.063688437,-0.405183634,1,0,0,3.3744,Peridotite_rect,7,3.374,0,5,0,5,0,1,,,,,,,,,,,,,
661b3299bf19db77d7412b86,TCN,2024-06-20_10h42.27.910,LearnStrategy,2023.2.3,Win32,59.17159763,3,1,7,-0.010549638,-0.000130203,1,0,0,1.2829,rock_grid_rect_2,1,11,-1,-1,1.283,-0.373925501,-0.244985673,1,0,0,2.0897,Andesite_rect,1,2.09,1,6,0,6,0,1,,,,,,,,,,,,,
661b3299bf19db77d7412b86,TCN,2024-06-20_10h42.27.910,LearnStrategy,2023.2.3,Win32,59.17159763,3,1,8,0.011591521,-0.019666568,1,0,0,1.1509,rock_grid_rect_2,2,16,-1,-1,1.151,0.421854626,-0.251497722,1,0,0,2.2231,Gabbro_rect,4,2.223,0,7,0,7,0,1,,,,,,,,,,,,,
661b3299bf19db77d7412b86,TCN,2024-06-20_10h42.27.910,LearnStrategy,2023.2.3,Win32,59.17159763,3,1,9,-0.004037502,-0.011851969,1,0,0,1.3619,rock_grid_rect_2,4,05,-1,-1,1.362,-0.380437638,-0.259312321,1,0,0,5.8565,Andesite_rect,1,5.857,0,8,0,8,0,1,,,,,,,,,,,,,
661b3299bf19db77d7412b86,TCN,2024-06-20_10h42.27.910,LearnStrategy,2023.2.3,Win32,59.17159763,3,1,10,0.049361789,0.010289146,1,0,0,0.9288,rock_grid_rect_2,3,06,-1,-1,0.929,-0.396066704,-0.24759051,1,0,0,3.0352,Andesite_rect,1,3.035,0,9,0,9,0,1,,,,,,,,,,,,,
661b3299bf19db77d7412b86,TCN,2024-06-20_10h42.27.910,LearnStrategy,2023.2.3,Win32,59.17159763,3,1,11,0.019405944,-0.002735083,1,0,0,1.0539,rock_grid_rect_2,1,06,-1,-1,1.054,-0.347877131,-0.229356564,1,0,0,3.033,Andesite_rect,1,3.033,1,10,0,10,0,1,,,,,,,,,,,,,
661b3299bf19db77d7412b86,TCN,2024-06-20_10h42.27.910,LearnStrategy,2023.2.3,Win32,59.17159763,3,1,12,-0.048319907,0.003777053,1,0,0,0.9353,rock_grid_rect_2,7,06,-1,-1,0.935,0.128809538,-0.389554524,1,0,0,1.5503,Peridotite_rect,7,1.55,1,11,0,11,0,1,,,,,,,,,,,,,
661b3299bf19db77d7412b86,TCN,2024-06-20_10h42.27.910,LearnStrategy,2023.2.3,Win32,59.17159763,3,1,13,-0.063949017,-0.022271405,1,0,0,0.8989,rock_grid_rect_2,5,02,-1,-1,0.899,-0.362203778,-0.392159361,1,0,0,1.2726,Obsidian_rect,5,1.273,1,12,0,12,0,1,,,,,,,,,,,,,
661b3299bf19db77d7412b86,TCN,2024-06-20_10h42.27.910,LearnStrategy,2023.2.3,Win32,59.17159763,3,1,14,-0.028783585,-0.000130203,1,0,0,0.9457,rock_grid_rect_2,2,12,-1,-1,0.946,0.371060084,-0.238473537,1,0,0,3.4905,Gabbro_rect,4,3.49,0,13,0,13,0,1,,,,,,,,,,,,,
661b3299bf19db77d7412b86,TCN,2024-06-20_10h42.27.910,LearnStrategy,2023.2.3,Win32,59.17159763,3,1,15,-0.040505396,0.00638189,1,0,0,1.3488,rock_grid_rect_2,4,09,-1,-1,1.349,0.365850323,-0.250195347,1,0,0,5.6437,Gabbro_rect,4,5.644,1,14,0,14,0,1,,,,,,,,,,,,,
661b3299bf19db77d7412b86,TCN,2024-06-20_10h42.27.910,LearnStrategy,2023.2.3,Win32,59.17159763,3,1,16,-0.031388422,0.008986727,1,0,0,0.8991,rock_grid_rect_2,6,08,-1,-1,0.899,-0.096509524,-0.401276334,1,0,0,2.1918,Pegmatite_rect,6,2.192,1,15,0,15,0,1,,,,,,,,,,,,,
661b3299bf19db77d7412b86,TCN,2024-06-20_10h42.27.910,LearnStrategy,2023.2.3,Win32,59.17159763,3,2,1,,,,,,,,8,05,,,,,,,,,,,8,1.435,1,,,,,,0.360640736,-0.403881171,1,0,0,1.4348,Pumice_rect,0,0,0,0,1,
661b3299bf19db77d7412b86,TCN,2024-06-20_10h42.27.910,LearnStrategy,2023.2.3,Win32,59.17159763,3,2,2,,,,,,,,2,14,,,,,,,,,,,4,2.529,0,,,,,,0.373665009,-0.239775999,1,0,0,2.5291,Gabbro_rect,1,0,1,0,1,
661b3299bf19db77d7412b86,TCN,2024-06-20_10h42.27.910,LearnStrategy,2023.2.3,Win32,59.17159763,3,2,3,,,,,,,,2,09,,,,,,,,,,,2,1.767,1,,,,,,-0.112138633,-0.248892885,1,0,0,1.7669,Basalt_rect,2,0,2,0,1,
661b3299bf19db77d7412b86,TCN,2024-06-20_10h42.27.910,LearnStrategy,2023.2.3,Win32,59.17159763,3,2,4,,,,,,,,7,14,,,,,,,,,,,1,9.018,0,,,,,,-0.368715827,-0.26582437,1,0,0,9.0181,Andesite_rect,3,0,3,0,1,
661b3299bf19db77d7412b86,TCN,2024-06-20_10h42.27.910,LearnStrategy,2023.2.3,Win32,59.17159763,3,2,5,,,,,,,,4,14,,,,,,,,,,,4,4.137,1,,,,,,0.363245573,-0.252800185,1,0,0,4.1366,Gabbro_rect,4,0,4,0,1,
661b3299bf19db77d7412b86,TCN,2024-06-20_10h42.27.910,LearnStrategy,2023.2.3,Win32,59.17159763,3,2,6,,,,,,,,3,02,,,,,,,,,,,3,3.293,1,,,,,,0.135321675,-0.238473537,1,0,0,3.2934,Diorite_rect,5,0,5,0,1,
661b3299bf19db77d7412b86,TCN,2024-06-20_10h42.27.910,LearnStrategy,2023.2.3,Win32,59.17159763,3,2,7,,,,,,,,5,11,,,,,,,,,,,5,1.113,1,,,,,,-0.327038303,-0.402578797,1,0,0,1.1132,Obsidian_rect,6,0,6,0,1,
661b3299bf19db77d7412b86,TCN,2024-06-20_10h42.27.910,LearnStrategy,2023.2.3,Win32,59.17159763,3,2,8,,,,,,,,4,13,,,,,,,,,,,1,3.068,0,,,,,,-0.355691598,-0.250195347,1,0,0,3.0685,Andesite_rect,7,0,7,0,1,
661b3299bf19db77d7412b86,TCN,2024-06-20_10h42.27.910,LearnStrategy,2023.2.3,Win32,59.17159763,3,2,9,,,,,,,,5,04,,,,,,,,,,,5,1.33,1,,,,,,-0.358296435,-0.381740013,1,0,0,1.3298,Obsidian_rect,8,0,8,0,1,
661b3299bf19db77d7412b86,TCN,2024-06-20_10h42.27.910,LearnStrategy,2023.2.3,Win32,59.17159763,3,2,10,,,,,,,,6,13,,,,,,,,,,,6,5.158,1,,,,,,-0.13297733,-0.418207819,1,0,0,5.1576,Pegmatite_rect,9,0,9,0,1,
661b3299bf19db77d7412b86,TCN,2024-06-20_10h42.27.910,LearnStrategy,2023.2.3,Win32,59.17159763,3,2,11,,,,,,,,1,14,,,,,,,,,,,1,2.668,1,,,,,,-0.368715827,-0.230658982,1,0,0,2.6684,Andesite_rect,10,0,10,0,1,
661b3299bf19db77d7412b86,TCN,2024-06-20_10h42.27.910,LearnStrategy,2023.2.3,Win32,59.17159763,3,2,12,,,,,,,,7,12,,,,,,,,,,,7,5.295,1,,,,,,0.088434433,-0.39476411,1,0,0,5.2947,Peridotite_rect,11,0,11,0,1,
661b3299bf19db77d7412b86,TCN,2024-06-20_10h42.27.910,LearnStrategy,2023.2.3,Win32,59.17159763,3,2,13,,,,,,,,3,09,,,,,,,,,,,1,1.709,0,,,,,,-0.409090933,-0.254102647,1,0,0,1.7089,Andesite_rect,12,0,12,0,1,
661b3299bf19db77d7412b86,TCN,2024-06-20_10h42.27.910,LearnStrategy,2023.2.3,Win32,59.17159763,3,2,14,,,,,,,,8,08,,,,,,,,,,,4,2.893,0,,,,,,0.394503618,-0.260614696,1,0,0,2.893,Gabbro_rect,13,0,13,0,1,
661b3299bf19db77d7412b86,TCN,2024-06-20_10h42.27.910,LearnStrategy,2023.2.3,Win32,59.17159763,3,2,15,,,,,,,,6,07,,,,,,,,,,,7,1.362,0,,,,,,0.098853868,-0.399973959,1,0,0,1.3624,Peridotite_rect,14,0,14,0,1,
661b3299bf19db77d7412b86,TCN,2024-06-20_10h42.27.910,LearnStrategy,2023.2.3,Win32,59.17159763,3,2,16,,,,,,,,1,07,,,,,,,,,,,6,2.882,0,,,,,,-0.151211277,-0.39606666,1,0,0,2.882,Pegmatite_rect,15,0,15,0,1,
661b3299bf19db77d7412b86,TCN,2024-06-20_10h42.27.910,LearnStrategy,2023.2.3,Win32,59.17159763,4,1,1,0.007684221,-0.010549594,1,0,0,1.5711,rock_grid_rect_2,1,10,-1,-1,1.571,0.358035899,-0.250195347,1,0,0,2.6417,Gabbro_rect,4,2.642,0,0,0,0,0,1,,,,,,,,,,,,,
661b3299bf19db77d7412b86,TCN,2024-06-20_10h42.27.910,LearnStrategy,2023.2.3,Win32,59.17159763,4,1,2,-0.053529581,-0.007944757,1,0,0,1.3334,rock_grid_rect_2,2,12,-1,-1,1.333,0.333289903,-0.238473537,1,0,0,2.2365,Gabbro_rect,4,2.236,0,1,0,1,0,1,,,,,,,,,,,,,
661b3299bf19db77d7412b86,TCN,2024-06-20_10h42.27.910,LearnStrategy,2023.2.3,Win32,59.17159763,4,1,3,-0.033993259,-0.002735083,1,0,0,1.0148,rock_grid_rect_2,4,12,-1,-1,1.015,-0.345272206,-0.246288048,1,0,0,6.651,Andesite_rect,1,6.651,0,2,0,2,0,1,,,,,,,,,,,,,
661b3299bf19db77d7412b86,TCN,2024-06-20_10h42.27.910,LearnStrategy,2023.2.3,Win32,59.17159763,4,1,4,-0.033993259,-0.001432665,1,0,0,1.0077,rock_grid_rect_2,5,14,-1,-1,1.008,-0.377832844,-0.389554524,1,0,0,1.5133,Obsidian_rect,5,1.513,1,3,0,3,0,1,,,,,,,,,,,,,
661b3299bf19db77d7412b86,TCN,2024-06-20_10h42.27.910,LearnStrategy,2023.2.3,Win32,59.17159763,4,1,5,-0.017061775,0.019406119,1,0,0,0.8833,rock_grid_rect_2,6,08,-1,-1,0.883,-0.164235506,-0.393461823,1,0,0,2.9729,Pegmatite_rect,6,2.973,1,4,0,4,0,1,,,,,,,,,,,,,
661b3299bf19db77d7412b86,TCN,2024-06-20_10h42.27.910,LearnStrategy,2023.2.3,Win32,59.17159763,4,1,6,-0.031388422,-0.000130203,1,0,0,1.2136,rock_grid_rect_2,3,16,-1,-1,1.214,-0.355691598,-0.261917158,1,0,0,3.4285,Andesite_rect,1,3.429,0,5,0,5,0,1,,,,,,,,,,,,,
661b3299bf19db77d7412b86,TCN,2024-06-20_10h42.27.910,LearnStrategy,2023.2.3,Win32,59.17159763,4,1,7,0.002474547,0.010289146,1,0,0,1.151,rock_grid_rect_2,6,12,-1,-1,1.151,-0.093904687,-0.415602982,1,0,0,4.9755,Pegmatite_rect,6,4.975,1,6,0,6,0,1,,,,,,,,,,,,,
661b3299bf19db77d7412b86,TCN,2024-06-20_10h42.27.910,LearnStrategy,2023.2.3,Win32,59.17159763,4,1,8,0.067595736,0.022010956,1,0,0,0.8154,rock_grid_rect_2,5,05,-1,-1,0.815,-0.40648614,-0.386949687,1,0,0,3.8738,Obsidian_rect,5,3.874,1,7,0,7,0,1,,,,,,,,,,,,,
661b3299bf19db77d7412b86,TCN,2024-06-20_10h42.27.910,LearnStrategy,2023.2.3,Win32,59.17159763,4,1,9,0.075410247,-0.001432665,1,0,0,1.3642,rock_grid_rect_2,1,03,-1,-1,1.364,-0.409090933,-0.261917158,1,0,0,4.284,Andesite_rect,1,4.284,1,8,0,8,0,1,,,,,,,,,,,,,
661b3299bf19db77d7412b86,TCN,2024-06-20_10h42.27.910,LearnStrategy,2023.2.3,Win32,59.17159763,4,1,10,-0.024876286,-0.017061731,1,0,0,0.9136,rock_grid_rect_2,7,02,-1,-1,0.914,0.124902239,-0.38434485,1,0,0,1.8905,Peridotite_rect,7,1.89,1,9,0,9,0,1,,,,,,,,,,,,,
661b3299bf19db77d7412b86,TCN,2024-06-20_10h42.27.910,LearnStrategy,2023.2.3,Win32,59.17159763,4,1,11,0.011591521,-0.011851969,1,0,0,0.9138,rock_grid_rect_2,8,10,-1,-1,0.914,0.347616551,-0.399973959,1,0,0,1.1638,Pumice_rect,8,1.164,1,10,0,10,0,1,,,,,,,,,,,,,
661b3299bf19db77d7412b86,TCN,2024-06-20_10h42.27.910,LearnStrategy,2023.2.3,Win32,59.17159763,4,1,12,-0.039202933,0.003777053,1,0,0,0.8473,rock_grid_rect_2,3,15,-1,-1,0.847,-0.363506197,-0.242380836,1,0,0,3.5441,Andesite_rect,1,3.544,0,11,0,11,0,1,,,,,,,,,,,,,
661b3299bf19db77d7412b86,TCN,2024-06-20_10h42.27.910,LearnStrategy,2023.2.3,Win32,59.17159763,4,1,13,-0.006642426,-0.009247176,1,0,0,1.0636,rock_grid_rect_2,4,09,-1,-1,1.064,-0.359598854,-0.241078374,1,0,0,4.3815,Andesite_rect,1,4.381,0,12,0,12,0,1,,,,,,,,,,,,,
661b3299bf19db77d7412b86,TCN,2024-06-20_10h42.27.910,LearnStrategy,2023.2.3,Win32,59.17159763,4,1,14,-0.014456938,-0.015759312,1,0,0,1.0516,rock_grid_rect_2,2,05,-1,-1,1.052,-0.146001603,-0.263219533,1,0,0,2.1658,Basalt_rect,2,2.166,1,13,0,13,0,1,,,,,,,,,,,,,
661b3299bf19db77d7412b86,TCN,2024-06-20_10h42.27.910,LearnStrategy,2023.2.3,Win32,59.17159763,4,1,15,-0.020969074,-0.006642339,1,0,0,0.7325,rock_grid_rect_2,7,13,-1,-1,0.732,0.128809538,-0.415602982,1,0,0,1.2169,Peridotite_rect,7,1.217,1,14,0,14,0,1,,,,,,,,,,,,,
661b3299bf19db77d7412b86,TCN,2024-06-20_10h42.27.910,LearnStrategy,2023.2.3,Win32,59.17159763,4,1,16,-0.028783585,0.00638189,1,0,0,0.8474,rock_grid_rect_2,8,06,-1,-1,0.847,0.354128512,-0.415602982,1,0,0,1.5998,Pumice_rect,8,1.6,1,15,0,15,0,1,,,,,,,,,,,,,
661b3299bf19db77d7412b86,TCN,2024-06-20_10h42.27.910,LearnStrategy,2023.2.3,Win32,59.17159763,4,2,1,,,,,,,,6,03,,,,,,,,,,,7,4.445,0,,,,,,0.110575591,-0.399973959,1,0,0,4.4455,Peridotite_rect,0,0,0,0,1,
661b3299bf19db77d7412b86,TCN,2024-06-20_10h42.27.910,LearnStrategy,2023.2.3,Win32,59.17159763,4,2,2,,,,,,,,1,14,,,,,,,,,,,1,6.31,1,,,,,,-0.32964314,-0.248892885,1,0,0,6.3098,Andesite_rect,1,0,1,0,1,
661b3299bf19db77d7412b86,TCN,2024-06-20_10h42.27.910,LearnStrategy,2023.2.3,Win32,59.17159763,4,2,3,,,,,,,,8,15,,,,,,,,,,,8,1.972,1,,,,,,0.376269846,-0.402578797,1,0,0,1.972,Pumice_rect,2,0,2,0,1,
661b3299bf19db77d7412b86,TCN,2024-06-20_10h42.27.910,LearnStrategy,2023.2.3,Win32,59.17159763,4,2,4,,,,,,,,4,16,,,,,,,,,,,4,10.797,1,,,,,,0.387991657,-0.255405022,1,0,0,10.7967,Gabbro_rect,3,0,3,0,1,
661b3299bf19db77d7412b86,TCN,2024-06-20_10h42.27.910,LearnStrategy,2023.2.3,Win32,59.17159763,4,2,5,,,,,,,,5,04,,,,,,,,,,,5,1.349,1,,,,,,-0.401276378,-0.407788471,1,0,0,1.349,Obsidian_rect,4,0,4,0,1,
661b3299bf19db77d7412b86,TCN,2024-06-20_10h42.27.910,LearnStrategy,2023.2.3,Win32,59.17159763,4,2,6,,,,,,,,7,04,,,,,,,,,,,6,4.725,0,,,,,,-0.131674955,-0.416905444,1,0,0,4.7248,Pegmatite_rect,5,0,5,0,1,
661b3299bf19db77d7412b86,TCN,2024-06-20_10h42.27.910,LearnStrategy,2023.2.3,Win32,59.17159763,4,2,7,,,,,,,,3,09,,,,,,,,,,,2,2.089,0,,,,,,-0.146001603,-0.267126832,1,0,0,2.0891,Basalt_rect,6,0,6,0,1,
661b3299bf19db77d7412b86,TCN,2024-06-20_10h42.27.910,LearnStrategy,2023.2.3,Win32,59.17159763,4,2,8,,,,,,,,4,03,,,,,,,,,,,1,2.27,0,,,,,,-0.356994017,-0.237171075,1,0,0,2.2697,Andesite_rect,7,0,7,0,1,
661b3299bf19db77d7412b86,TCN,2024-06-20_10h42.27.910,LearnStrategy,2023.2.3,Win32,59.17159763,4,2,9,,,,,,,,2,09,,,,,,,,,,,2,1.618,1,,,,,,-0.093904687,-0.250195347,1,0,0,1.6183,Basalt_rect,8,0,8,0,1,
661b3299bf19db77d7412b86,TCN,2024-06-20_10h42.27.910,LearnStrategy,2023.2.3,Win32,59.17159763,4,2,10,,,,,,,,8,05,,,,,,,,,,,8,2.094,1,,,,,,0.373665009,-0.399973959,1,0,0,2.0942,Pumice_rect,9,0,9,0,1,
661b3299bf19db77d7412b86,TCN,2024-06-20_10h42.27.910,LearnStrategy,2023.2.3,Win32,59.17159763,4,2,11,,,,,,,,6,11,,,,,,,,,,,6,7.418,1,,,,,,-0.091299849,-0.383042387,1,0,0,7.418,Pegmatite_rect,10,0,10,0,1,
661b3299bf19db77d7412b86,TCN,2024-06-20_10h42.27.910,LearnStrategy,2023.2.3,Win32,59.17159763,4,2,12,,,,,,,,3,07,,,,,,,,,,,3,5.333,1,,,,,,0.075410247,-0.242380836,1,0,0,5.3333,Diorite_rect,11,0,11,0,1,
661b3299bf19db77d7412b86,TCN,2024-06-20_10h42.27.910,LearnStrategy,2023.2.3,Win32,59.17159763,4,2,13,,,,,,,,1,09,,,,,,,,,,,1,4.454,1,,,,,,-0.362203778,-0.255405022,1,0,0,4.454,Andesite_rect,12,0,12,0,1,
661b3299bf19db77d7412b86,TCN,2024-06-20_10h42.27.910,LearnStrategy,2023.2.3,Win32,59.17159763,4,2,14,,,,,,,,5,09,,,,,,,,,,,5,2.701,1,,,,,,-0.402578797,-0.401276334,1,0,0,2.701,Obsidian_rect,13,0,13,0,1,
661b3299bf19db77d7412b86,TCN,2024-06-20_10h42.27.910,LearnStrategy,2023.2.3,Win32,59.17159763,4,2,15,,,,,,,,2,04,,,,,,,,,,,2,1.61,1,,,,,,-0.108231334,-0.256707484,1,0,0,1.6099,Basalt_rect,14,0,14,0,1,
661b3299bf19db77d7412b86,TCN,2024-06-20_10h42.27.910,LearnStrategy,2023.2.3,Win32,59.17159763,4,2,16,,,,,,,,7,12,,,,,,,,,,,7,1.623,1,,,,,,0.100156243,-0.39606666,1,0,0,1.6226,Peridotite_rect,15,0,15,0,1,
661b3299bf19db77d7412b86,TCN,2024-06-20_10h42.27.910,LearnStrategy,2023.2.3,Win32,59.17159763,5,1,1,-0.005339964,0.00638189,1,0,0,1.2858,rock_grid_rect_2,5,02,-1,-1,1.286,-0.394764285,-0.385647312,1,0,0,1.5136,Obsidian_rect,5,1.514,1,0,0,0,0,1,,,,,,,,,,,,,
661b3299bf19db77d7412b86,TCN,2024-06-20_10h42.27.910,LearnStrategy,2023.2.3,Win32,59.17159763,5,1,2,-0.044412607,0.010289146,1,0,0,1.2161,rock_grid_rect_2,3,06,-1,-1,1.216,0.063688437,-0.251497722,1,0,0,2.2826,Diorite_rect,3,2.283,1,1,0,1,0,1,,,,,,,,,,,,,
661b3299bf19db77d7412b86,TCN,2024-06-20_10h42.27.910,LearnStrategy,2023.2.3,Win32,59.17159763,5,1,3,-0.024876286,0.005079472,1,0,0,1.3851,rock_grid_rect_2,3,12,-1,-1,1.385,-0.364808572,-0.259312321,1,0,0,3.7685,Andesite_rect,1,3.768,0,2,0,2,0,1,,,,,,,,,,,,,
661b3299bf19db77d7412b86,TCN,2024-06-20_10h42.27.910,LearnStrategy,2023.2.3,Win32,59.17159763,5,1,4,-0.013154475,0.005079472,1,0,0,0.9826,rock_grid_rect_2,4,01,-1,-1,0.983,-0.353086761,-0.231961401,1,0,0,5.2147,Andesite_rect,1,5.215,0,3,0,3,0,1,,,,,,,,,,,,,
661b3299bf19db77d7412b86,TCN,2024-06-20_10h42.27.910,LearnStrategy,2023.2.3,Win32,59.17159763,5,1,5,-0.007944801,-0.004037502,1,0,0,1.268,rock_grid_rect_2,8,13,-1,-1,1.268,0.363245573,-0.24759051,1,0,0,7.7138,Gabbro_rect,4,7.714,0,4,0,4,0,1,,,,,,,,,,,,,
661b3299bf19db77d7412b86,TCN,2024-06-20_10h42.27.910,LearnStrategy,2023.2.3,Win32,59.17159763,5,1,6,-0.035295721,0.008986727,1,0,0,0.8471,rock_grid_rect_2,7,16,-1,-1,0.847,0.074107785,-0.383042387,1,0,0,1.7814,Peridotite_rect,7,1.781,1,5,0,5,0,1,,,,,,,,,,,,,
661b3299bf19db77d7412b86,TCN,2024-06-20_10h42.27.910,LearnStrategy,2023.2.3,Win32,59.17159763,5,1,7,-0.04180777,-0.009247176,1,0,0,0.9345,rock_grid_rect_2,2,10,-1,-1,0.934,-0.159025832,-0.233263863,1,0,0,1.9093,Basalt_rect,2,1.909,1,6,0,6,0,1,,,,,,,,,,,,,
661b3299bf19db77d7412b86,TCN,2024-06-20_10h42.27.910,LearnStrategy,2023.2.3,Win32,59.17159763,5,1,8,0.022010869,0.005079472,1,0,0,0.9816,rock_grid_rect_2,1,01,-1,-1,0.982,-0.351784343,-0.24759051,1,0,0,7.1252,Andesite_rect,1,7.125,1,7,0,7,0,1,,,,,,,,,,,,,
661b3299bf19db77d7412b86,TCN,2024-06-20_10h42.27.910,LearnStrategy,2023.2.3,Win32,59.17159763,5,1,9,-0.035295721,0.010289146,1,0,0,0.9255,rock_grid_rect_2,6,06,-1,-1,0.926,-0.113441008,-0.397369035,1,0,0,3.1873,Pegmatite_rect,6,3.187,1,8,0,8,0,1,,,,,,,,,,,,,
661b3299bf19db77d7412b86,TCN,2024-06-20_10h42.27.910,LearnStrategy,2023.2.3,Win32,59.17159763,5,1,10,-0.022271449,0.023313375,1,0,0,0.9306,rock_grid_rect_2,5,06,-1,-1,0.931,-0.431232092,-0.38434485,1,0,0,1.7269,Obsidian_rect,5,1.727,1,9,0,9,0,1,,,,,,,,,,,,,
661b3299bf19db77d7412b86,TCN,2024-06-20_10h42.27.910,LearnStrategy,2023.2.3,Win32,59.17159763,5,1,11,0.003777009,-0.013154388,1,0,0,0.9331,rock_grid_rect_2,1,11,-1,-1,0.933,0.107970754,-0.244985673,1,0,0,5.1066,Diorite_rect,3,5.107,0,10,0,10,0,1,,,,,,,,,,,,,
661b3299bf19db77d7412b86,TCN,2024-06-20_10h42.27.910,LearnStrategy,2023.2.3,Win32,59.17159763,5,1,12,-0.018364149,0.010289146,1,0,0,0.8828,rock_grid_rect_2,2,02,-1,-1,0.883,-0.119953145,-0.250195347,1,0,0,5.1162,Basalt_rect,2,5.116,1,11,0,11,0,1,,,,,,,,,,,,,
661b3299bf19db77d7412b86,TCN,2024-06-20_10h42.27.910,LearnStrategy,2023.2.3,Win32,59.17159763,5,1,13,-0.028783585,0.016801326,1,0,0,0.8477,rock_grid_rect_2,4,05,-1,-1,0.848,0.137926512,-0.402578797,1,0,0,1.9313,Peridotite_rect,7,1.931,0,12,0,12,0,1,,,,,,,,,,,,,
661b3299bf19db77d7412b86,TCN,2024-06-20_10h42.27.910,LearnStrategy,2023.2.3,Win32,59.17159763,5,1,14,0.064990811,-0.006642339,1,0,0,0.7823,rock_grid_rect_2,6,05,-1,-1,0.782,-0.119953145,-0.403881171,1,0,0,2.3051,Pegmatite_rect,6,2.305,1,13,0,13,0,1,,,,,,,,,,,,,
661b3299bf19db77d7412b86,TCN,2024-06-20_10h42.27.910,LearnStrategy,2023.2.3,Win32,59.17159763,5,1,15,0.068898111,-0.013154388,1,0,0,1.2528,rock_grid_rect_2,8,09,-1,-1,1.253,0.38147952,-0.398671497,1,0,0,1.3578,Pumice_rect,8,1.358,1,14,0,14,0,1,,,,,,,,,,,,,
661b3299bf19db77d7412b86,TCN,2024-06-20_10h42.27.910,LearnStrategy,2023.2.3,Win32,59.17159763,5,1,16,-0.007944801,0.015498864,1,0,0,0.8014,rock_grid_rect_2,7,08,-1,-1,0.801,0.107970754,-0.39606666,1,0,0,1.7927,Peridotite_rect,7,1.793,1,15,0,15,0,1,,,,,,,,,,,,,
661b3299bf19db77d7412b86,TCN,2024-06-20_10h42.27.910,LearnStrategy,2023.2.3,Win32,59.17159763,5,2,1,,,,,,,,2,14,,,,,,,,,,,4,1.953,0,,,,,,0.365850323,-0.271034131,1,0,0,1.9528,Gabbro_rect,0,0,0,0,1,
661b3299bf19db77d7412b86,TCN,2024-06-20_10h42.27.910,LearnStrategy,2023.2.3,Win32,59.17159763,5,2,2,,,,,,,,3,02,,,,,,,,,,,1,2.852,0,,,,,,-0.364808572,-0.2358687,1,0,0,2.8519,Andesite_rect,1,0,1,0,1,
661b3299bf19db77d7412b86,TCN,2024-06-20_10h42.27.910,LearnStrategy,2023.2.3,Win32,59.17159763,5,2,3,,,,,,,,8,16,,,,,,,,,,,8,1.39,1,,,,,,0.407527978,-0.411695683,1,0,0,1.3896,Pumice_rect,2,0,2,0,1,
661b3299bf19db77d7412b86,TCN,2024-06-20_10h42.27.910,LearnStrategy,2023.2.3,Win32,59.17159763,5,2,4,,,,,,,,4,08,,,,,,,,,,,3,10.785,0,,,,,,0.170487106,-0.259312321,1,0,0,10.7847,Diorite_rect,3,0,3,0,1,
661b3299bf19db77d7412b86,TCN,2024-06-20_10h42.27.910,LearnStrategy,2023.2.3,Win32,59.17159763,5,2,5,,,,,,,,6,10,,,,,,,,,,,7,1.636,0,,,,,,0.083224758,-0.411695683,1,0,0,1.6356,Peridotite_rect,4,0,4,0,1,
661b3299bf19db77d7412b86,TCN,2024-06-20_10h42.27.910,LearnStrategy,2023.2.3,Win32,59.17159763,5,2,6,,,,,,,,2,11,,,,,,,,,,,8,4.639,0,,,,,,0.356733437,-0.402578797,1,0,0,4.6388,Pumice_rect,5,0,5,0,1,
661b3299bf19db77d7412b86,TCN,2024-06-20_10h42.27.910,LearnStrategy,2023.2.3,Win32,59.17159763,5,2,7,,,,,,,,1,04,,,,,,,,,,,1,7.114,1,,,,,,-0.426022418,-0.241078374,1,0,0,7.1141,Andesite_rect,6,0,6,0,1,
661b3299bf19db77d7412b86,TCN,2024-06-20_10h42.27.910,LearnStrategy,2023.2.3,Win32,59.17159763,5,2,8,,,,,,,,7,10,,,,,,,,,,,7,1.489,1,,,,,,0.084527221,-0.39606666,1,0,0,1.4894,Peridotite_rect,7,0,7,0,1,
661b3299bf19db77d7412b86,TCN,2024-06-20_10h42.27.910,LearnStrategy,2023.2.3,Win32,59.17159763,5,2,9,,,,,,,,1,07,,,,,,,,,,,6,1.656,0,,,,,,-0.122557982,-0.416905444,1,0,0,1.6562,Pegmatite_rect,8,0,8,0,1,
661b3299bf19db77d7412b86,TCN,2024-06-20_10h42.27.910,LearnStrategy,2023.2.3,Win32,59.17159763,5,2,10,,,,,,,,6,07,,,,,,,,,,,6,1.378,1,,,,,,-0.091299849,-0.403881171,1,0,0,1.378,Pegmatite_rect,9,0,9,0,1,
661b3299bf19db77d7412b86,TCN,2024-06-20_10h42.27.910,LearnStrategy,2023.2.3,Win32,59.17159763,5,2,11,,,,,,,,7,14,,,,,,,,,,,7,1.287,1,,,,,,0.092341732,-0.39606666,1,0,0,1.2867,Peridotite_rect,10,0,10,0,1,
661b3299bf19db77d7412b86,TCN,2024-06-20_10h42.27.910,LearnStrategy,2023.2.3,Win32,59.17159763,5,2,12,,,,,,,,3,08,,,,,,,,,,,1,6.085,0,,,,,,-0.362203778,-0.243683211,1,0,0,6.0852,Andesite_rect,11,0,11,0,1,
661b3299bf19db77d7412b86,TCN,2024-06-20_10h42.27.910,LearnStrategy,2023.2.3,Win32,59.17159763,5,2,13,,,,,,,,8,03,,,,,,,,,,,8,1.349,1,,,,,,0.376269846,-0.403881171,1,0,0,1.3486,Pumice_rect,12,0,12,0,1,
661b3299bf19db77d7412b86,TCN,2024-06-20_10h42.27.910,LearnStrategy,2023.2.3,Win32,59.17159763,5,2,14,,,,,,,,4,11,,,,,,,,,,,1,8.464,0,,,,,,-0.414300607,-0.261917158,1,0,0,8.4636,Andesite_rect,13,0,13,0,1,
661b3299bf19db77d7412b86,TCN,2024-06-20_10h42.27.910,LearnStrategy,2023.2.3,Win32,59.17159763,5,2,15,,,,,,,,5,10,,,,,,,,,,,5,1.212,1,,,,,,-0.449466082,-0.402578797,1,0,0,1.2116,Obsidian_rect,14,0,14,0,1,
661b3299bf19db77d7412b86,TCN,2024-06-20_10h42.27.910,LearnStrategy,2023.2.3,Win32,59.17159763,5,2,16,,,,,,,,5,07,,,,,,,,,,,5,1.062,1,,,,,,-0.396066704,-0.402578797,1,0,0,1.0618,Obsidian_rect,15,0,15,0,1,
661b3299bf19db77d7412b86,TCN,2024-06-20_10h42.27.910,LearnStrategy,2023.2.3,Win32,59.17159763,6,1,1,0.055873926,-0.009247176,1,0,0,1.8703,rock_grid_rect_2,1,16,-1,-1,1.87,-0.384344893,-0.244985673,1,0,0,3.9807,Andesite_rect,1,3.981,1,0,0,0,0,1,,,,,,,,,,,,,
661b3299bf19db77d7412b86,TCN,2024-06-20_10h42.27.910,LearnStrategy,2023.2.3,Win32,59.17159763,6,1,2,-0.060041717,-0.010549594,1,0,0,1.282,rock_grid_rect_2,5,12,-1,-1,1.282,-0.433836972,-0.414300607,1,0,0,1.1677,Obsidian_rect,5,1.168,1,1,0,1,0,1,,,,,,,,,,,,,
661b3299bf19db77d7412b86,TCN,2024-06-20_10h42.27.910,LearnStrategy,2023.2.3,Win32,59.17159763,6,1,3,-0.065251391,-0.011851969,1,0,0,1.3658,rock_grid_rect_2,8,14,-1,-1,1.366,0.351523675,-0.407788471,1,0,0,1.4063,Pumice_rect,8,1.406,1,2,0,2,0,1,,,,,,,,,,,,,
661b3299bf19db77d7412b86,TCN,2024-06-20_10h42.27.910,LearnStrategy,2023.2.3,Win32,59.17159763,6,1,4,-0.073065903,-0.006642339,1,0,0,1.3161,rock_grid_rect_2,2,06,-1,-1,1.316,-0.110836171,-0.252800185,1,0,0,1.696,Basalt_rect,2,1.696,1,3,0,3,0,1,,,,,,,,,,,,,
661b3299bf19db77d7412b86,TCN,2024-06-20_10h42.27.910,LearnStrategy,2023.2.3,Win32,59.17159763,6,1,5,-0.036598096,-0.013154388,1,0,0,1.1315,rock_grid_rect_2,7,05,-1,-1,1.131,0.068898111,-0.386949687,1,0,0,1.433,Peridotite_rect,7,1.433,1,4,0,4,0,1,,,,,,,,,,,,,
661b3299bf19db77d7412b86,TCN,2024-06-20_10h42.27.910,LearnStrategy,2023.2.3,Win32,59.17159763,6,1,6,-0.067856228,-0.006642339,1,0,0,0.8998,rock_grid_rect_2,8,04,-1,-1,0.9,0.351523675,-0.403881171,1,0,0,1.5103,Pumice_rect,8,1.51,1,5,0,5,0,1,,,,,,,,,,,,,
661b3299bf19db77d7412b86,TCN,2024-06-20_10h42.27.910,LearnStrategy,2023.2.3,Win32,59.17159763,6,1,7,-0.070461066,-0.001432665,1,0,0,0.8998,rock_grid_rect_2,2,16,-1,-1,0.9,-0.131674955,-0.250195347,1,0,0,2.1043,Basalt_rect,2,2.104,1,6,0,6,0,1,,,,,,,,,,,,,
661b3299bf19db77d7412b86,TCN,2024-06-20_10h42.27.910,LearnStrategy,2023.2.3,Win32,59.17159763,6,1,8,0.011591521,0.018103701,1,0,0,0.9316,rock_grid_rect_2,4,15,-1,-1,0.932,-0.362203778,-0.248892885,1,0,0,1.9712,Andesite_rect,1,1.971,0,7,0,7,0,1,,,,,,,,,,,,,
661b3299bf19db77d7412b86,TCN,2024-06-20_10h42.27.910,LearnStrategy,2023.2.3,Win32,59.17159763,6,1,9,-0.028783585,0.010289146,1,0,0,0.9491,rock_grid_rect_2,3,11,-1,-1,0.949,-0.377832844,-0.260614696,1,0,0,1.5434,Andesite_rect,1,1.543,0,8,0,8,0,1,,,,,,,,,,,,,
661b3299bf19db77d7412b86,TCN,2024-06-20_10h42.27.910,LearnStrategy,2023.2.3,Win32,59.17159763,6,1,10,-0.031388422,0.007684309,1,0,0,0.8967,rock_grid_rect_2,6,15,-1,-1,0.897,-0.100416823,-0.405183634,1,0,0,4.1399,Pegmatite_rect,6,4.14,1,9,0,9,0,1,,,,,,,,,,,,,
661b3299bf19db77d7412b86,TCN,2024-06-20_10h42.27.910,LearnStrategy,2023.2.3,Win32,59.17159763,6,1,11,0.001172172,0.022010956,1,0,0,0.8966,rock_grid_rect_2,1,06,-1,-1,0.897,-0.393461867,-0.267126832,1,0,0,2.5882,Andesite_rect,1,2.588,1,10,0,10,0,1,,,,,,,,,,,,,
661b3299bf19db77d7412b86,TCN,2024-06-20_10h42.27.910,LearnStrategy,2023.2.3,Win32,59.17159763,6,1,12,-0.037900646,-0.009247176,1,0,0,1.3186,rock_grid_rect_2,4,10,-1,-1,1.319,0.337197028,-0.237171075,1,0,0,4.1734,Gabbro_rect,4,4.173,1,11,0,11,0,1,,,,,,,,,,,,,
661b3299bf19db77d7412b86,TCN,2024-06-20_10h42.27.910,LearnStrategy,2023.2.3,Win32,59.17159763,6,1,13,0.011591521,0.007684309,1,0,0,1.016,rock_grid_rect_2,7,06,-1,-1,1.016,0.053269088,-0.380437463,1,0,0,1.3459,Peridotite_rect,7,1.346,1,12,0,12,0,1,,,,,,,,,,,,,
661b3299bf19db77d7412b86,TCN,2024-06-20_10h42.27.910,LearnStrategy,2023.2.3,Win32,59.17159763,6,1,14,-0.024876286,-0.004037502,1,0,0,1.3168,rock_grid_rect_2,3,10,-1,-1,1.317,-0.459885387,-0.250195347,1,0,0,4.7364,Andesite_rect,1,4.736,0,13,0,13,0,1,,,,,,,,,,,,,
661b3299bf19db77d7412b86,TCN,2024-06-20_10h42.27.910,LearnStrategy,2023.2.3,Win32,59.17159763,6,1,15,-0.015759312,0.001172216,1,0,0,1.0703,rock_grid_rect_2,6,09,-1,-1,1.07,0.131414375,-0.411695683,1,0,0,2.0765,Peridotite_rect,7,2.077,0,14,0,14,0,1,,,,,,,,,,,,,
661b3299bf19db77d7412b86,TCN,2024-06-20_10h42.27.910,LearnStrategy,2023.2.3,Win32,59.17159763,6,1,16,-0.060041717,-0.001432665,1,0,0,1.7415,rock_grid_rect_2,5,16,-1,-1,1.741,-0.350481924,-0.385647312,1,0,0,1.6651,Obsidian_rect,5,1.665,1,15,0,15,0,1,,,,,,,,,,,,,
661b3299bf19db77d7412b86,TCN,2024-06-20_10h42.27.910,LearnStrategy,2023.2.3,Win32,59.17159763,6,2,1,,,,,,,,3,13,,,,,,,,,,,3,3.968,1,,,,,,0.096249031,-0.254102647,1,0,0,3.9679,Diorite_rect,0,0,0,0,1,
661b3299bf19db77d7412b86,TCN,2024-06-20_10h42.27.910,LearnStrategy,2023.2.3,Win32,59.17159763,6,2,2,,,,,,,,1,05,,,,,,,,,,,6,7.542,0,,,,,,-0.095207236,-0.39606666,1,0,0,7.5424,Pegmatite_rect,1,0,1,0,1,
661b3299bf19db77d7412b86,TCN,2024-06-20_10h42.27.910,LearnStrategy,2023.2.3,Win32,59.17159763,6,2,3,,,,,,,,7,15,,,,,,,,,,,7,1.091,1,,,,,,0.089736895,-0.399973959,1,0,0,1.0912,Peridotite_rect,2,0,2,0,1,
661b3299bf19db77d7412b86,TCN,2024-06-20_10h42.27.910,LearnStrategy,2023.2.3,Win32,59.17159763,6,2,4,,,,,,,,2,01,,,,,,,,,,,2,2.09,1,,,,,,-0.076973202,-0.243683211,1,0,0,2.0902,Basalt_rect,3,0,3,0,1,
661b3299bf19db77d7412b86,TCN,2024-06-20_10h42.27.910,LearnStrategy,2023.2.3,Win32,59.17159763,6,2,5,,,,,,,,4,13,,,,,,,,,,,4,2.536,1,,,,,,0.343709252,-0.261917158,1,0,0,2.5359,Gabbro_rect,4,0,4,0,1,
661b3299bf19db77d7412b86,TCN,2024-06-20_10h42.27.910,LearnStrategy,2023.2.3,Win32,59.17159763,6,2,6,,,,,,,,7,07,,,,,,,,,,,7,1.382,1,,,,,,0.081922384,-0.406486008,1,0,0,1.382,Peridotite_rect,5,0,5,0,1,
661b3299bf19db77d7412b86,TCN,2024-06-20_10h42.27.910,LearnStrategy,2023.2.3,Win32,59.17159763,6,2,7,,,,,,,,1,02,,,,,,,,,,,4,6.897,0,,,,,,0.350221388,-0.271034131,1,0,0,6.8973,Gabbro_rect,6,0,6,0,1,
661b3299bf19db77d7412b86,TCN,2024-06-20_10h42.27.910,LearnStrategy,2023.2.3,Win32,59.17159763,6,2,8,,,,,,,,6,13,,,,,,,,,,,3,9.36,0,,,,,,0.10276108,-0.260614696,1,0,0,9.3595,Diorite_rect,7,0,7,0,1,
661b3299bf19db77d7412b86,TCN,2024-06-20_10h42.27.910,LearnStrategy,2023.2.3,Win32,59.17159763,6,2,9,,,,,,,,8,08,,,,,,,,,,,8,1.633,1,,,,,,0.347616551,-0.410393308,1,0,0,1.6327,Pumice_rect,8,0,8,0,1,
661b3299bf19db77d7412b86,TCN,2024-06-20_10h42.27.910,LearnStrategy,2023.2.3,Win32,59.17159763,6,2,10,,,,,,,,4,14,,,,,,,,,,,4,1.978,1,,,,,,0.345011714,-0.244985673,1,0,0,1.9783,Gabbro_rect,9,0,9,0,1,
661b3299bf19db77d7412b86,TCN,2024-06-20_10h42.27.910,LearnStrategy,2023.2.3,Win32,59.17159763,6,2,11,,,,,,,,5,08,,,,,,,,,,,5,2.304,1,,,,,,-0.381740056,-0.392159361,1,0,0,2.3036,Obsidian_rect,10,0,10,0,1,
661b3299bf19db77d7412b86,TCN,2024-06-20_10h42.27.910,LearnStrategy,2023.2.3,Win32,59.17159763,6,2,12,,,,,,,,2,08,,,,,,,,,,,2,1.636,1,,,,,,-0.096509524,-0.230658982,1,0,0,1.6361,Basalt_rect,11,0,11,0,1,
661b3299bf19db77d7412b86,TCN,2024-06-20_10h42.27.910,LearnStrategy,2023.2.3,Win32,59.17159763,6,2,13,,,,,,,,5,11,,,,,,,,,,,5,1.162,1,,,,,,-0.383042475,-0.389554524,1,0,0,1.162,Obsidian_rect,12,0,12,0,1,
661b3299bf19db77d7412b86,TCN,2024-06-20_10h42.27.910,LearnStrategy,2023.2.3,Win32,59.17159763,6,2,14,,,,,,,,8,02,,,,,,,,,,,8,1.339,1,,,,,,0.329382604,-0.412998145,1,0,0,1.3395,Pumice_rect,13,0,13,0,1,
661b3299bf19db77d7412b86,TCN,2024-06-20_10h42.27.910,LearnStrategy,2023.2.3,Win32,59.17159763,6,2,15,,,,,,,,3,14,,,,,,,,,,,3,6.749,1,,,,,,0.076712535,-0.268429294,1,0,0,6.7491,Diorite_rect,14,0,14,0,1,
661b3299bf19db77d7412b86,TCN,2024-06-20_10h42.27.910,LearnStrategy,2023.2.3,Win32,59.17159763,6,2,16,,,,,,,,6,16,,,,,,,,,,,6,10.859,1,,,,,,-0.127767656,-0.412998145,1,0,0,10.8585,Pegmatite_rect,15,0,15,0,1,
661b3299bf19db77d7412b86,TCN,2024-06-20_10h42.27.910,LearnStrategy,2023.2.3,Win32,59.17159763,7,1,1,-0.037900646,-0.004037502,1,0,0,1.2832,rock_grid_rect_2,8,04,-1,-1,1.283,0.348918926,-0.398671497,1,0,0,3.1313,Pumice_rect,8,3.131,1,0,0,0,0,1,,,,,,,,,,,,,
661b3299bf19db77d7412b86,TCN,2024-06-20_10h42.27.910,LearnStrategy,2023.2.3,Win32,59.17159763,7,1,2,0.012893983,-0.00533992,1,0,0,1.4032,rock_grid_rect_2,4,10,-1,-1,1.403,0.385386732,-0.2358687,1,0,0,2.3147,Gabbro_rect,4,2.315,1,1,0,1,0,1,,,,,,,,,,,,,
661b3299bf19db77d7412b86,TCN,2024-06-20_10h42.27.910,LearnStrategy,2023.2.3,Win32,59.17159763,7,1,3,-0.056134418,-0.011851969,1,0,0,0.8638,rock_grid_rect_2,6,09,-1,-1,0.864,0.107970754,-0.403881171,1,0,0,1.4788,Peridotite_rect,7,1.479,0,2,0,2,0,1,,,,,,,,,,,,,
661b3299bf19db77d7412b86,TCN,2024-06-20_10h42.27.910,LearnStrategy,2023.2.3,Win32,59.17159763,7,1,4,0.068898111,-0.002735083,1,0,0,1.5679,rock_grid_rect_2,6,12,-1,-1,1.568,0.115785353,-0.243683211,1,0,0,5.5016,Diorite_rect,3,5.502,0,3,0,3,0,1,,,,,,,,,,,,,
661b3299bf19db77d7412b86,TCN,2024-06-20_10h42.27.910,LearnStrategy,2023.2.3,Win32,59.17159763,7,1,5,-0.022271449,-0.017061731,1,0,0,1.0289,rock_grid_rect_2,7,05,-1,-1,1.029,0.101458705,-0.405183634,1,0,0,2.2867,Peridotite_rect,7,2.287,1,4,0,4,0,1,,,,,,,,,,,,,
661b3299bf19db77d7412b86,TCN,2024-06-20_10h42.27.910,LearnStrategy,2023.2.3,Win32,59.17159763,7,1,6,0.006381846,0.005079472,1,0,0,1.0324,rock_grid_rect_2,2,16,-1,-1,1.032,0.401015842,-0.234566238,1,0,0,3.7844,Gabbro_rect,4,3.784,0,5,0,5,0,1,,,,,,,,,,,,,
661b3299bf19db77d7412b86,TCN,2024-06-20_10h42.27.910,LearnStrategy,2023.2.3,Win32,59.17159763,7,1,7,-0.014456938,0.011591564,1,0,0,0.925,rock_grid_rect_2,1,01,-1,-1,0.925,-0.347877131,-0.250195347,1,0,0,2.3056,Andesite_rect,1,2.306,1,6,0,6,0,1,,,,,,,,,,,,,
661b3299bf19db77d7412b86,TCN,2024-06-20_10h42.27.910,LearnStrategy,2023.2.3,Win32,59.17159763,7,1,8,0.041547278,-0.018364149,1,0,0,1.063,rock_grid_rect_2,1,06,-1,-1,1.063,0.0610836,-0.244985673,1,0,0,3.4646,Diorite_rect,3,3.465,0,7,0,7,0,1,,,,,,,,,,,,,
661b3299bf19db77d7412b86,TCN,2024-06-20_10h42.27.910,LearnStrategy,2023.2.3,Win32,59.17159763,7,1,9,0.054571463,-0.011851969,1,0,0,1.1636,rock_grid_rect_2,2,05,-1,-1,1.164,-0.093904687,-0.242380836,1,0,0,1.2478,Basalt_rect,2,1.248,1,8,0,8,0,1,,,,,,,,,,,,,
661b3299bf19db77d7412b86,TCN,2024-06-20_10h42.27.910,LearnStrategy,2023.2.3,Win32,59.17159763,7,1,10,0.010289146,-0.007944757,1,0,0,1.1311,rock_grid_rect_2,3,16,-1,-1,1.131,0.085829595,-0.243683211,1,0,0,2.8886,Diorite_rect,3,2.889,1,9,0,9,0,1,,,,,,,,,,,,,
661b3299bf19db77d7412b86,TCN,2024-06-20_10h42.27.910,LearnStrategy,2023.2.3,Win32,59.17159763,7,1,11,-0.009247351,-0.001432665,1,0,0,0.8335,rock_grid_rect_2,8,10,-1,-1,0.833,0.311148657,-0.386949687,1,0,0,1.2926,Pumice_rect,8,1.293,1,10,0,10,0,1,,,,,,,,,,,,,
661b3299bf19db77d7412b86,TCN,2024-06-20_10h42.27.910,LearnStrategy,2023.2.3,Win32,59.17159763,7,1,12,0.014196358,-0.004037502,1,0,0,0.8989,rock_grid_rect_2,5,02,-1,-1,0.899,-0.372623083,-0.39476411,1,0,0,1.2431,Obsidian_rect,5,1.243,1,11,0,11,0,1,,,,,,,,,,,,,
661b3299bf19db77d7412b86,TCN,2024-06-20_10h42.27.910,LearnStrategy,2023.2.3,Win32,59.17159763,7,1,13,0.006381846,-0.000130203,1,0,0,0.8081,rock_grid_rect_2,7,16,-1,-1,0.808,0.107970754,-0.390856986,1,0,0,1.5066,Peridotite_rect,7,1.507,1,12,0,12,0,1,,,,,,,,,,,,,
661b3299bf19db77d7412b86,TCN,2024-06-20_10h42.27.910,LearnStrategy,2023.2.3,Win32,59.17159763,7,1,14,-0.017061775,0.001172216,1,0,0,0.8658,rock_grid_rect_2,5,14,-1,-1,0.866,-0.41169577,-0.398671497,1,0,0,2.4018,Obsidian_rect,5,2.402,1,13,0,13,0,1,,,,,,,,,,,,,
661b3299bf19db77d7412b86,TCN,2024-06-20_10h42.27.910,LearnStrategy,2023.2.3,Win32,59.17159763,7,1,15,0.005079297,-0.007944757,1,0,0,0.9329,rock_grid_rect_2,4,15,-1,-1,0.933,0.408830266,-0.234566238,1,0,0,5.386,Gabbro_rect,4,5.386,1,14,0,14,0,1,,,,,,,,,,,,,
661b3299bf19db77d7412b86,TCN,2024-06-20_10h42.27.910,LearnStrategy,2023.2.3,Win32,59.17159763,7,1,16,-0.04180777,0.008986727,1,0,0,0.9156,rock_grid_rect_2,3,15,-1,-1,0.916,0.066293274,-0.239775999,1,0,0,2.9743,Diorite_rect,3,2.974,1,15,0,15,0,1,,,,,,,,,,,,,
661b3299bf19db77d7412b86,TCN,2024-06-20_10h42.27.910,LearnStrategy,2023.2.3,Win32,59.17159763,7,2,1,,,,,,,,8,15,,,,,,,,,,,4,3.819,0,,,,,,0.337197028,-0.238473537,1,0,0,3.8189,Gabbro_rect,0,0,0,0,1,
661b3299bf19db77d7412b86,TCN,2024-06-20_10h42.27.910,LearnStrategy,2023.2.3,Win32,59.17159763,7,2,2,,,,,,,,7,07,,,,,,,,,,,7,1.82,1,,,,,,0.101458705,-0.38434485,1,0,0,1.8199,Peridotite_rect,1,0,1,0,1,
661b3299bf19db77d7412b86,TCN,2024-06-20_10h42.27.910,LearnStrategy,2023.2.3,Win32,59.17159763,7,2,3,,,,,,,,6,13,,,,,,,,,,,6,5.357,1,,,,,,-0.11474347,-0.399973959,1,0,0,5.357,Pegmatite_rect,2,0,2,0,1,
661b3299bf19db77d7412b86,TCN,2024-06-20_10h42.27.910,LearnStrategy,2023.2.3,Win32,59.17159763,7,2,4,,,,,,,,2,14,,,,,,,,,,,4,2.699,0,,,,,,0.354128512,-0.251497722,1,0,0,2.699,Gabbro_rect,3,0,3,0,1,
661b3299bf19db77d7412b86,TCN,2024-06-20_10h42.27.910,LearnStrategy,2023.2.3,Win32,59.17159763,7,2,5,,,,,,,,2,09,,,,,,,,,,,2,1.136,1,,,,,,-0.113441008,-0.263219533,1,0,0,1.1361,Basalt_rect,4,0,4,0,1,
661b3299bf19db77d7412b86,TCN,2024-06-20_10h42.27.910,LearnStrategy,2023.2.3,Win32,59.17159763,7,2,6,,,,,,,,4,16,,,,,,,,,,,4,3.909,1,,,,,,0.377572221,-0.24759051,1,0,0,3.9085,Gabbro_rect,5,0,5,0,1,
661b3299bf19db77d7412b86,TCN,2024-06-20_10h42.27.910,LearnStrategy,2023.2.3,Win32,59.17159763,7,2,7,,,,,,,,7,10,,,,,,,,,,,7,2.178,1,,,,,,0.07280541,-0.399973959,1,0,0,2.1778,Peridotite_rect,6,0,6,0,1,
661b3299bf19db77d7412b86,TCN,2024-06-20_10h42.27.910,LearnStrategy,2023.2.3,Win32,59.17159763,7,2,8,,,,,,,,6,11,,,,,,,,,,,6,3.992,1,,,,,,-0.096509524,-0.405183634,1,0,0,3.9916,Pegmatite_rect,7,0,7,0,1,
661b3299bf19db77d7412b86,TCN,2024-06-20_10h42.27.910,LearnStrategy,2023.2.3,Win32,59.17159763,7,2,9,,,,,,,,1,02,,,,,,,,,,,3,5.388,0,,,,,,0.097551406,-0.239775999,1,0,0,5.3876,Diorite_rect,8,0,8,0,1,
661b3299bf19db77d7412b86,TCN,2024-06-20_10h42.27.910,LearnStrategy,2023.2.3,Win32,59.17159763,7,2,10,,,,,,,,1,07,,,,,,,,,,,6,4.443,0,,,,,,-0.100416823,-0.385647312,1,0,0,4.4427,Pegmatite_rect,9,0,9,0,1,
661b3299bf19db77d7412b86,TCN,2024-06-20_10h42.27.910,LearnStrategy,2023.2.3,Win32,59.17159763,7,2,11,,,,,,,,4,08,,,,,,,,,,,4,4.414,1,,,,,,0.39971338,-0.238473537,1,0,0,4.4138,Gabbro_rect,10,0,10,0,1,
661b3299bf19db77d7412b86,TCN,2024-06-20_10h42.27.910,LearnStrategy,2023.2.3,Win32,59.17159763,7,2,12,,,,,,,,3,09,,,,,,,,,,,3,3.275,1,,,,,,0.096249031,-0.2358687,1,0,0,3.2749,Diorite_rect,11,0,11,0,1,
661b3299bf19db77d7412b86,TCN,2024-06-20_10h42.27.910,LearnStrategy,2023.2.3,Win32,59.17159763,7,2,13,,,,,,,,5,08,,,,,,,,,,,5,1.273,1,,,,,,-0.416905444,-0.385647312,1,0,0,1.2728,Obsidian_rect,12,0,12,0,1,
661b3299bf19db77d7412b86,TCN,2024-06-20_10h42.27.910,LearnStrategy,2023.2.3,Win32,59.17159763,7,2,14,,,,,,,,8,02,,,,,,,,,,,8,1.477,1,,,,,,0.354128512,-0.401276334,1,0,0,1.4768,Pumice_rect,13,0,13,0,1,
661b3299bf19db77d7412b86,TCN,2024-06-20_10h42.27.910,LearnStrategy,2023.2.3,Win32,59.17159763,7,2,15,,,,,,,,5,04,,,,,,,,,,,5,1.071,1,,,,,,-0.355691598,-0.399973959,1,0,0,1.071,Obsidian_rect,14,0,14,0,1,
661b3299bf19db77d7412b86,TCN,2024-06-20_10h42.27.910,LearnStrategy,2023.2.3,Win32,59.17159763,7,2,16,,,,,,,,3,13,,,,,,,,,,,3,9.803,1,,,,,,0.153555534,-0.242380836,1,0,0,9.8032,Diorite_rect,15,0,15,0,1,
661b3299bf19db77d7412b86,TCN,2024-06-20_10h42.27.910,LearnStrategy,2023.2.3,Win32,59.17159763,8,1,1,0.048059239,0.024615793,1,0,0,1.2968,rock_grid_rect_2,6,05,-1,-1,1.297,-0.110836171,-0.399973959,1,0,0,6.1266,Pegmatite_rect,6,6.127,1,0,0,0,0,1,,,,,,,,,,,,,
661b3299bf19db77d7412b86,TCN,2024-06-20_10h42.27.910,LearnStrategy,2023.2.3,Win32,59.17159763,8,1,2,0.024615793,0.005079472,1,0,0,0.9629,rock_grid_rect_2,2,02,-1,-1,0.963,-0.074368365,-0.239775999,1,0,0,1.1934,Basalt_rect,2,1.193,1,1,0,1,0,1,,,,,,,,,,,,,
661b3299bf19db77d7412b86,TCN,2024-06-20_10h42.27.910,LearnStrategy,2023.2.3,Win32,59.17159763,8,1,3,-0.006642426,-0.000130203,1,0,0,0.8321,rock_grid_rect_2,4,12,-1,-1,0.832,-0.370018246,-0.250195347,1,0,0,22.0916,Andesite_rect,1,22.092,0,2,0,2,0,1,,,,,,,,,,,,,
661b3299bf19db77d7412b86,TCN,2024-06-20_10h42.27.910,LearnStrategy,2023.2.3,Win32,59.17159763,8,1,4,0.04545449,0.020708538,1,0,0,1.0324,rock_grid_rect_2,7,02,-1,-1,1.032,0.144438648,-0.403881171,1,0,0,1.2768,Peridotite_rect,7,1.277,1,3,0,3,0,1,,,,,,,,,,,,,
661b3299bf19db77d7412b86,TCN,2024-06-20_10h42.27.910,LearnStrategy,2023.2.3,Win32,59.17159763,8,1,5,0.005079297,0.002474678,1,0,0,0.849,rock_grid_rect_2,3,06,-1,-1,0.849,0.084527221,-0.24759051,1,0,0,6.355,Diorite_rect,3,6.355,1,4,0,4,0,1,,,,,,,,,,,,,
661b3299bf19db77d7412b86,TCN,2024-06-20_10h42.27.910,LearnStrategy,2023.2.3,Win32,59.17159763,8,1,6,0.032430304,-0.018364149,1,0,0,0.9643,rock_grid_rect_2,5,05,-1,-1,0.964,-0.364808572,-0.405183634,1,0,0,2.0934,Obsidian_rect,5,2.093,1,5,0,5,0,1,,,,,,,,,,,,,
661b3299bf19db77d7412b86,TCN,2024-06-20_10h42.27.910,LearnStrategy,2023.2.3,Win32,59.17159763,8,1,7,-0.017061775,0.002474678,1,0,0,0.932,rock_grid_rect_2,2,06,-1,-1,0.932,-0.130372493,-0.233263863,1,0,0,1.7781,Basalt_rect,2,1.778,1,6,0,6,0,1,,,,,,,,,,,,,
661b3299bf19db77d7412b86,TCN,2024-06-20_10h42.27.910,LearnStrategy,2023.2.3,Win32,59.17159763,8,1,8,0.010289146,-0.000130203,1,0,0,1.2508,rock_grid_rect_2,4,01,-1,-1,1.251,0.10536583,-0.239775999,1,0,0,2.5869,Diorite_rect,3,2.587,0,7,0,7,0,1,,,,,,,,,,,,,
661b3299bf19db77d7412b86,TCN,2024-06-20_10h42.27.910,LearnStrategy,2023.2.3,Win32,59.17159763,8,1,9,-0.019666612,0.002474678,1,0,0,1.2345,rock_grid_rect_2,1,10,-1,-1,1.235,0.367152873,-0.416905444,1,0,0,3.5405,Pumice_rect,8,3.541,0,8,0,8,0,1,,,,,,,,,,,,,
661b3299bf19db77d7412b86,TCN,2024-06-20_10h42.27.910,LearnStrategy,2023.2.3,Win32,59.17159763,8,1,10,-0.017061775,0.008986727,1,0,0,1.2173,rock_grid_rect_2,8,13,-1,-1,1.217,0.384084357,-0.259312321,1,0,0,1.6994,Gabbro_rect,4,1.699,0,9,0,9,0,1,,,,,,,,,,,,,
661b3299bf19db77d7412b86,TCN,2024-06-20_10h42.27.910,LearnStrategy,2023.2.3,Win32,59.17159763,8,1,11,0.001172172,0.023313375,1,0,0,0.8308,rock_grid_rect_2,6,08,-1,-1,0.831,-0.079578039,-0.389554524,1,0,0,4.8193,Pegmatite_rect,6,4.819,1,10,0,10,0,1,,,,,,,,,,,,,
661b3299bf19db77d7412b86,TCN,2024-06-20_10h42.27.910,LearnStrategy,2023.2.3,Win32,59.17159763,8,1,12,0.022010869,0.010289146,1,0,0,0.8989,rock_grid_rect_2,1,16,-1,-1,0.899,0.074107785,-0.244985673,1,0,0,1.433,Diorite_rect,3,1.433,0,11,0,11,0,1,,,,,,,,,,,,,
661b3299bf19db77d7412b86,TCN,2024-06-20_10h42.27.910,LearnStrategy,2023.2.3,Win32,59.17159763,8,1,13,-0.036598096,0.003777053,1,0,0,0.9181,rock_grid_rect_2,8,09,-1,-1,0.918,0.416644952,-0.410393308,1,0,0,1.3262,Pumice_rect,8,1.326,1,12,0,12,0,1,,,,,,,,,,,,,
661b3299bf19db77d7412b86,TCN,2024-06-20_10h42.27.910,LearnStrategy,2023.2.3,Win32,59.17159763,8,1,14,0.011591521,0.019406119,1,0,0,0.7308,rock_grid_rect_2,7,08,-1,-1,0.731,0.081922384,-0.38434485,1,0,0,1.665,Peridotite_rect,7,1.665,1,13,0,13,0,1,,,,,,,,,,,,,
661b3299bf19db77d7412b86,TCN,2024-06-20_10h42.27.910,LearnStrategy,2023.2.3,Win32,59.17159763,8,1,15,-0.010549638,0.019406119,1,0,0,0.8,rock_grid_rect_2,3,12,-1,-1,0.8,0.087132058,-0.254102647,1,0,0,3.7915,Diorite_rect,3,3.792,1,14,0,14,0,1,,,,,,,,,,,,,
661b3299bf19db77d7412b86,TCN,2024-06-20_10h42.27.910,LearnStrategy,2023.2.3,Win32,59.17159763,8,1,16,0.023313331,-0.004037502,1,0,0,1.3526,rock_grid_rect_2,5,12,-1,-1,1.353,-0.392159492,-0.392159361,1,0,0,1.4518,Obsidian_rect,5,1.452,1,15,0,15,0,1,,,,,,,,,,,,,
661b3299bf19db77d7412b86,TCN,2024-06-20_10h42.27.910,LearnStrategy,2023.2.3,Win32,59.17159763,8,2,1,,,,,,,,7,12,,,,,,,,,,,7,1.424,1,,,,,,0.143136186,-0.39476411,1,0,0,1.4243,Peridotite_rect,0,0,0,0,1,
661b3299bf19db77d7412b86,TCN,2024-06-20_10h42.27.910,LearnStrategy,2023.2.3,Win32,59.17159763,8,2,2,,,,,,,,5,07,,,,,,,,,,,5,1.276,1,,,,,,-0.36611099,-0.383042387,1,0,0,1.2757,Obsidian_rect,1,0,1,0,1,
661b3299bf19db77d7412b86,TCN,2024-06-20_10h42.27.910,LearnStrategy,2023.2.3,Win32,59.17159763,8,2,3,,,,,,,,4,11,,,,,,,,,,,4,5.161,1,,,,,,0.408830266,-0.254102647,1,0,0,5.1609,Gabbro_rect,2,0,2,0,1,
661b3299bf19db77d7412b86,TCN,2024-06-20_10h42.27.910,LearnStrategy,2023.2.3,Win32,59.17159763,8,2,4,,,,,,,,8,05,,,,,,,,,,,8,1.305,1,,,,,,0.377572221,-0.398671497,1,0,0,1.3054,Pumice_rect,3,0,3,0,1,
661b3299bf19db77d7412b86,TCN,2024-06-20_10h42.27.910,LearnStrategy,2023.2.3,Win32,59.17159763,8,2,5,,,,,,,,2,01,,,,,,,,,,,2,1.227,1,,,,,,-0.135582167,-0.254102647,1,0,0,1.2267,Basalt_rect,4,0,4,0,1,
661b3299bf19db77d7412b86,TCN,2024-06-20_10h42.27.910,LearnStrategy,2023.2.3,Win32,59.17159763,8,2,6,,,,,,,,2,11,,,,,,,,,,,8,1.75,0,,,,,,0.374967384,-0.39606666,1,0,0,1.7503,Pumice_rect,5,0,5,0,1,
661b3299bf19db77d7412b86,TCN,2024-06-20_10h42.27.910,LearnStrategy,2023.2.3,Win32,59.17159763,8,2,7,,,,,,,,1,09,,,,,,,,,,,3,4.606,0,,,,,,0.094946569,-0.238473537,1,0,0,4.6063,Diorite_rect,6,0,6,0,1,
661b3299bf19db77d7412b86,TCN,2024-06-20_10h42.27.910,LearnStrategy,2023.2.3,Win32,59.17159763,8,2,8,,,,,,,,6,07,,,,,,,,,,,6,10.509,1,,,,,,-0.080880589,-0.406486008,1,0,0,10.5087,Pegmatite_rect,7,0,7,0,1,
661b3299bf19db77d7412b86,TCN,2024-06-20_10h42.27.910,LearnStrategy,2023.2.3,Win32,59.17159763,8,2,9,,,,,,,,4,13,,,,,,,,,,,4,4.289,1,,,,,,0.38147952,-0.239775999,1,0,0,4.2892,Gabbro_rect,8,0,8,0,1,
661b3299bf19db77d7412b86,TCN,2024-06-20_10h42.27.910,LearnStrategy,2023.2.3,Win32,59.17159763,8,2,10,,,,,,,,8,16,,,,,,,,,,,8,1.73,1,,,,,,0.411435103,-0.393461823,1,0,0,1.7297,Pumice_rect,9,0,9,0,1,
661b3299bf19db77d7412b86,TCN,2024-06-20_10h42.27.910,LearnStrategy,2023.2.3,Win32,59.17159763,8,2,11,,,,,,,,3,02,,,,,,,,,,,1,5.174,0,,,,,,-0.379135219,-0.242380836,1,0,0,5.1739,Andesite_rect,10,0,10,0,1,
661b3299bf19db77d7412b86,TCN,2024-06-20_10h42.27.910,LearnStrategy,2023.2.3,Win32,59.17159763,8,2,12,,,,,,,,1,05,,,,,,,,,,,6,7.891,0,,,,,,-0.147303977,-0.411695683,1,0,0,7.8905,Pegmatite_rect,11,0,11,0,1,
661b3299bf19db77d7412b86,TCN,2024-06-20_10h42.27.910,LearnStrategy,2023.2.3,Win32,59.17159763,8,2,13,,,,,,,,3,14,,,,,,,,,,,3,3.021,1,,,,,,0.059781137,-0.251497722,1,0,0,3.0211,Diorite_rect,12,0,12,0,1,
661b3299bf19db77d7412b86,TCN,2024-06-20_10h42.27.910,LearnStrategy,2023.2.3,Win32,59.17159763,8,2,14,,,,,,,,5,09,,,,,,,,,,,5,1.307,1,,,,,,-0.379135219,-0.390856986,1,0,0,1.3068,Obsidian_rect,13,0,13,0,1,
661b3299bf19db77d7412b86,TCN,2024-06-20_10h42.27.910,LearnStrategy,2023.2.3,Win32,59.17159763,8,2,15,,,,,,,,7,14,,,,,,,,,,,7,2.015,1,,,,,,0.123599864,-0.416905444,1,0,0,2.0149,Peridotite_rect,14,0,14,0,1,
661b3299bf19db77d7412b86,TCN,2024-06-20_10h42.27.910,LearnStrategy,2023.2.3,Win32,59.17159763,8,2,16,,,,,,,,6,16,,,,,,,,,,,6,6.737,1,,,,,,-0.117348308,-0.406486008,1,0,0,6.7366,Pegmatite_rect,15,0,15,0,1,
661b3299bf19db77d7412b86,TCN,2024-06-20_10h42.27.910,LearnStrategy,2023.2.3,Win32,59.17159763,9,1,1,0.01549882,-0.001432665,1,0,0,3.0923,rock_grid_rect_2,5,16,-1,-1,3.092,-0.392159492,-0.392159361,1,0,0,1.3744,Obsidian_rect,5,1.374,1,0,0,0,0,1,,,,,,,,,,,,,
661b3299bf19db77d7412b86,TCN,2024-06-20_10h42.27.910,LearnStrategy,2023.2.3,Win32,59.17159763,9,1,2,-0.048319907,-0.007944757,1,0,0,1.2491,rock_grid_rect_2,8,06,-1,-1,1.249,0.351523675,-0.401276334,1,0,0,1.4984,Pumice_rect,8,1.498,1,1,0,1,0,1,,,,,,,,,,,,,
661b3299bf19db77d7412b86,TCN,2024-06-20_10h42.27.910,LearnStrategy,2023.2.3,Win32,59.17159763,9,1,3,-0.009247351,0.016801326,1,0,0,1.2824,rock_grid_rect_2,6,15,-1,-1,1.282,-0.112138633,-0.39476411,1,0,0,10.331,Pegmatite_rect,6,10.331,1,2,0,2,0,1,,,,,,,,,,,,,
661b3299bf19db77d7412b86,TCN,2024-06-20_10h42.27.910,LearnStrategy,2023.2.3,Win32,59.17159763,9,1,4,0.022010869,0.007684309,1,0,0,0.9641,rock_grid_rect_2,3,11,-1,-1,0.964,0.094946569,-0.238473537,1,0,0,5.9356,Diorite_rect,3,5.936,1,3,0,3,0,1,,,,,,,,,,,,,
661b3299bf19db77d7412b86,TCN,2024-06-20_10h42.27.910,LearnStrategy,2023.2.3,Win32,59.17159763,9,1,5,0.01549882,-0.006642339,1,0,0,1.0837,rock_grid_rect_2,1,03,-1,-1,1.084,-0.119953145,-0.241078374,1,0,0,1.2697,Basalt_rect,2,1.27,0,4,0,4,0,1,,,,,,,,,,,,,
661b3299bf19db77d7412b86,TCN,2024-06-20_10h42.27.910,LearnStrategy,2023.2.3,Win32,59.17159763,9,1,6,-0.004037502,-0.000130203,1,0,0,1.2154,rock_grid_rect_2,5,06,-1,-1,1.215,-0.350481924,-0.401276334,1,0,0,1.3134,Obsidian_rect,5,1.313,1,5,0,5,0,1,,,,,,,,,,,,,
661b3299bf19db77d7412b86,TCN,2024-06-20_10h42.27.910,LearnStrategy,2023.2.3,Win32,59.17159763,9,1,7,0.040244816,-0.007944757,1,0,0,0.963,rock_grid_rect_2,3,10,-1,-1,0.963,0.071502948,-0.239775999,1,0,0,3.8649,Diorite_rect,3,3.865,1,6,0,6,0,1,,,,,,,,,,,,,
661b3299bf19db77d7412b86,TCN,2024-06-20_10h42.27.910,LearnStrategy,2023.2.3,Win32,59.17159763,9,1,8,0.002474547,-0.000130203,1,0,0,0.9792,rock_grid_rect_2,8,14,-1,-1,0.979,0.436181273,-0.397369035,1,0,0,1.499,Pumice_rect,8,1.499,1,7,0,7,0,1,,,,,,,,,,,,,
661b3299bf19db77d7412b86,TCN,2024-06-20_10h42.27.910,LearnStrategy,2023.2.3,Win32,59.17159763,9,1,9,0.032430304,-0.022271405,1,0,0,0.849,rock_grid_rect_2,7,06,-1,-1,0.849,0.114482891,-0.39606666,1,0,0,1.5102,Peridotite_rect,7,1.51,1,8,0,8,0,1,,,,,,,,,,,,,
661b3299bf19db77d7412b86,TCN,2024-06-20_10h42.27.910,LearnStrategy,2023.2.3,Win32,59.17159763,9,1,10,-0.004037502,0.012893983,1,0,0,0.8299,rock_grid_rect_2,6,06,-1,-1,0.83,-0.149908815,-0.415602982,1,0,0,7.3901,Pegmatite_rect,6,7.39,1,9,0,9,0,1,,,,,,,,,,,,,
661b3299bf19db77d7412b86,TCN,2024-06-20_10h42.27.910,LearnStrategy,2023.2.3,Win32,59.17159763,9,1,11,0.042849653,-0.013154388,1,0,0,1.0484,rock_grid_rect_2,4,09,-1,-1,1.048,0.378874683,-0.252800185,1,0,0,2.2874,Gabbro_rect,4,2.287,1,10,0,10,0,1,,,,,,,,,,,,,
661b3299bf19db77d7412b86,TCN,2024-06-20_10h42.27.910,LearnStrategy,2023.2.3,Win32,59.17159763,9,1,12,0.002474547,-0.006642339,1,0,0,1.149,rock_grid_rect_2,2,12,-1,-1,1.149,0.334592278,-0.242380836,1,0,0,3.5872,Gabbro_rect,4,3.587,0,11,0,11,0,1,,,,,,,,,,,,,
661b3299bf19db77d7412b86,TCN,2024-06-20_10h42.27.910,LearnStrategy,2023.2.3,Win32,59.17159763,9,1,13,-0.027481123,0.00638189,1,0,0,0.9131,rock_grid_rect_2,1,11,-1,-1,0.913,-0.16944518,-0.239775999,1,0,0,5.2148,Basalt_rect,2,5.215,0,12,0,12,0,1,,,,,,,,,,,,,
661b3299bf19db77d7412b86,TCN,2024-06-20_10h42.27.910,LearnStrategy,2023.2.3,Win32,59.17159763,9,1,14,0.002474547,-0.006642339,1,0,0,0.9309,rock_grid_rect_2,2,10,-1,-1,0.931,-0.109533884,-0.250195347,1,0,0,11.4065,Basalt_rect,2,11.407,1,13,0,13,0,1,,,,,,,,,,,,,
661b3299bf19db77d7412b86,TCN,2024-06-20_10h42.27.910,LearnStrategy,2023.2.3,Win32,59.17159763,9,1,15,-0.033993259,0.012893983,1,0,0,0.9976,rock_grid_rect_2,4,05,-1,-1,0.998,0.382781808,-0.238473537,1,0,0,5.7207,Gabbro_rect,4,5.721,1,14,0,14,0,1,,,,,,,,,,,,,
661b3299bf19db77d7412b86,TCN,2024-06-20_10h42.27.910,LearnStrategy,2023.2.3,Win32,59.17159763,9,1,16,-0.022271449,0.001172216,1,0,0,0.9623,rock_grid_rect_2,7,13,-1,-1,0.962,0.119692477,-0.403881171,1,0,0,1.4064,Peridotite_rect,7,1.406,1,15,0,15,0,1,,,,,,,,,,,,,
661b3299bf19db77d7412b86,TCN,2024-06-20_10h42.27.910,LearnStrategy,2023.2.3,Win32,59.17159763,9,2,1,,,,,,,,4,03,,,,,,,,,,,1,3.422,0,,,,,,-0.367413409,-0.244985673,1,0,0,3.4217,Andesite_rect,0,0,0,0,1,
661b3299bf19db77d7412b86,TCN,2024-06-20_10h42.27.910,LearnStrategy,2023.2.3,Win32,59.17159763,9,2,2,,,,,,,,1,04,,,,,,,,,,,4,12.336,0,,,,,,0.377572221,-0.255405022,1,0,0,12.3363,Gabbro_rect,1,0,1,0,1,
661b3299bf19db77d7412b86,TCN,2024-06-20_10h42.27.910,LearnStrategy,2023.2.3,Win32,59.17159763,9,2,3,,,,,,,,1,14,,,,,,,,,,,3,4.693,0,,,,,,0.096249031,-0.241078374,1,0,0,4.693,Diorite_rect,2,0,2,0,1,
661b3299bf19db77d7412b86,TCN,2024-06-20_10h42.27.910,LearnStrategy,2023.2.3,Win32,59.17159763,9,2,4,,,,,,,,8,03,,,,,,,,,,,8,2.408,1,,,,,,0.342406789,-0.410393308,1,0,0,2.408,Pumice_rect,3,0,3,0,1,
661b3299bf19db77d7412b86,TCN,2024-06-20_10h42.27.910,LearnStrategy,2023.2.3,Win32,59.17159763,9,2,5,,,,,,,,3,08,,,,,,,,,,,3,4.884,1,,,,,,0.130112,-0.252800185,1,0,0,4.8842,Diorite_rect,4,0,4,0,1,
661b3299bf19db77d7412b86,TCN,2024-06-20_10h42.27.910,LearnStrategy,2023.2.3,Win32,59.17159763,9,2,6,,,,,,,,5,11,,,,,,,,,,,5,1.353,1,,,,,,-0.393461867,-0.405183634,1,0,0,1.353,Obsidian_rect,5,0,5,0,1,
661b3299bf19db77d7412b86,TCN,2024-06-20_10h42.27.910,LearnStrategy,2023.2.3,Win32,59.17159763,9,2,7,,,,,,,,6,03,,,,,,,,,,,6,7.551,1,,,,,,-0.122557982,-0.411695683,1,0,0,7.5507,Pegmatite_rect,6,0,6,0,1,
661b3299bf19db77d7412b86,TCN,2024-06-20_10h42.27.910,LearnStrategy,2023.2.3,Win32,59.17159763,9,2,8,,,,,,,,6,10,,,,,,,,,,,7,1.278,0,,,,,,0.080619921,-0.398671497,1,0,0,1.2776,Peridotite_rect,7,0,7,0,1,
661b3299bf19db77d7412b86,TCN,2024-06-20_10h42.27.910,LearnStrategy,2023.2.3,Win32,59.17159763,9,2,9,,,,,,,,3,07,,,,,,,,,,,3,4.652,1,,,,,,0.10276108,-0.256707484,1,0,0,4.6524,Diorite_rect,8,0,8,0,1,
661b3299bf19db77d7412b86,TCN,2024-06-20_10h42.27.910,LearnStrategy,2023.2.3,Win32,59.17159763,9,2,10,,,,,,,,7,15,,,,,,,,,,,7,1.495,1,,,,,,0.093644107,-0.393461823,1,0,0,1.4947,Peridotite_rect,9,0,9,0,1,
661b3299bf19db77d7412b86,TCN,2024-06-20_10h42.27.910,LearnStrategy,2023.2.3,Win32,59.17159763,9,2,11,,,,,,,,7,04,,,,,,,,,,,6,4.563,0,,,,,,-0.112138633,-0.405183634,1,0,0,4.5633,Pegmatite_rect,10,0,10,0,1,
661b3299bf19db77d7412b86,TCN,2024-06-20_10h42.27.910,LearnStrategy,2023.2.3,Win32,59.17159763,9,2,12,,,,,,,,8,08,,,,,,,,,,,8,2.024,1,,,,,,0.347616551,-0.393461823,1,0,0,2.0237,Pumice_rect,11,0,11,0,1,
661b3299bf19db77d7412b86,TCN,2024-06-20_10h42.27.910,LearnStrategy,2023.2.3,Win32,59.17159763,9,2,13,,,,,,,,5,10,,,,,,,,,,,5,1.213,1,,,,,,-0.346574669,-0.397369035,1,0,0,1.2125,Obsidian_rect,12,0,12,0,1,
661b3299bf19db77d7412b86,TCN,2024-06-20_10h42.27.910,LearnStrategy,2023.2.3,Win32,59.17159763,9,2,14,,,,,,,,2,08,,,,,,,,,,,2,1.75,1,,,,,,-0.129070118,-0.250195347,1,0,0,1.7496,Basalt_rect,13,0,13,0,1,
661b3299bf19db77d7412b86,TCN,2024-06-20_10h42.27.910,LearnStrategy,2023.2.3,Win32,59.17159763,9,2,15,,,,,,,,4,14,,,,,,,,,,,4,2.308,1,,,,,,0.360640736,-0.242380836,1,0,0,2.3078,Gabbro_rect,14,0,14,0,1,
661b3299bf19db77d7412b86,TCN,2024-06-20_10h42.27.910,LearnStrategy,2023.2.3,Win32,59.17159763,9,2,16,,,,,,,,2,04,,,,,,,,,,,2,1.673,1,,,,,,-0.067856228,-0.258009859,1,0,0,1.6731,Basalt_rect,15,0,15,0,1,
661b3299bf19db77d7412b86,TCN,2024-06-20_10h42.27.910,LearnStrategy,2023.2.3,Win32,59.17159763,,,,,,,,,,,,,,,,,,,,,,,,,,,,,,,,,,,,,,,,,,,1
661b3299bf19db77d7412b86,TCN,2024-06-20_10h42.27.910,LearnStrategy,2023.2.3,Win32,59.17159763,,,,,,,,,,,,,,,,,,,,,,,,,,,,,,,,,,,,,,,,,,,
661b3299bf19db77d7412b86,TCN,2024-06-20_10h42.27.910,LearnStrategy,2023.2.3,Win32,59.17159763,,,,,,,,,,,5,14,1,1,,,,,,,,,,,,,,,,,,,,,,,,,,,,,
661b3299bf19db77d7412b86,TCN,2024-06-20_10h42.27.910,LearnStrategy,2023.2.3,Win32,59.17159763,,,,,,,,,,,2,05,1,2,,,,,,,,,,,,,,,,,,,,,,,,,,,,,
661b3299bf19db77d7412b86,TCN,2024-06-20_10h42.27.910,LearnStrategy,2023.2.3,Win32,59.17159763,,,,,,,,,,,7,02,1,3,,,,,,,,,,,,,,,,,,,,,,,,,,,,,
661b3299bf19db77d7412b86,TCN,2024-06-20_10h42.27.910,LearnStrategy,2023.2.3,Win32,59.17159763,,,,,,,,,,,6,06,1,4,,,,,,,,,,,,,,,,,,,,,,,,,,,,,
661b3299bf19db77d7412b86,TCN,2024-06-20_10h42.27.910,LearnStrategy,2023.2.3,Win32,59.17159763,,,,,,,,,,,5,05,1,5,,,,,,,,,,,,,,,,,,,,,,,,,,,,,
661b3299bf19db77d7412b86,TCN,2024-06-20_10h42.27.910,LearnStrategy,2023.2.3,Win32,59.17159763,,,,,,,,,,,7,13,1,6,,,,,,,,,,,,,,,,,,,,,,,,,,,,,
661b3299bf19db77d7412b86,TCN,2024-06-20_10h42.27.910,LearnStrategy,2023.2.3,Win32,59.17159763,,,,,,,,,,,7,06,1,7,,,,,,,,,,,,,,,,,,,,,,,,,,,,,
661b3299bf19db77d7412b86,TCN,2024-06-20_10h42.27.910,LearnStrategy,2023.2.3,Win32,59.17159763,,,,,,,,,,,4,12,1,8,,,,,,,,,,,,,,,,,,,,,,,,,,,,,
661b3299bf19db77d7412b86,TCN,2024-06-20_10h42.27.910,LearnStrategy,2023.2.3,Win32,59.17159763,,,,,,,,,,,4,15,2,1,,,,,,,,,,,,,,,,,,,,,,,,,,,,,
661b3299bf19db77d7412b86,TCN,2024-06-20_10h42.27.910,LearnStrategy,2023.2.3,Win32,59.17159763,,,,,,,,,,,6,08,2,2,,,,,,,,,,,,,,,,,,,,,,,,,,,,,
661b3299bf19db77d7412b86,TCN,2024-06-20_10h42.27.910,LearnStrategy,2023.2.3,Win32,59.17159763,,,,,,,,,,,8,13,2,3,,,,,,,,,,,,,,,,,,,,,,,,,,,,,
661b3299bf19db77d7412b86,TCN,2024-06-20_10h42.27.910,LearnStrategy,2023.2.3,Win32,59.17159763,,,,,,,,,,,8,14,2,4,,,,,,,,,,,,,,,,,,,,,,,,,,,,,
661b3299bf19db77d7412b86,TCN,2024-06-20_10h42.27.910,LearnStrategy,2023.2.3,Win32,59.17159763,,,,,,,,,,,8,04,2,5,,,,,,,,,,,,,,,,,,,,,,,,,,,,,
661b3299bf19db77d7412b86,TCN,2024-06-20_10h42.27.910,LearnStrategy,2023.2.3,Win32,59.17159763,,,,,,,,,,,1,10,2,6,,,,,,,,,,,,,,,,,,,,,,,,,,,,,
661b3299bf19db77d7412b86,TCN,2024-06-20_10h42.27.910,LearnStrategy,2023.2.3,Win32,59.17159763,,,,,,,,,,,3,10,2,7,,,,,,,,,,,,,,,,,,,,,,,,,,,,,
661b3299bf19db77d7412b86,TCN,2024-06-20_10h42.27.910,LearnStrategy,2023.2.3,Win32,59.17159763,,,,,,,,,,,1,01,2,8,,,,,,,,,,,,,,,,,,,,,,,,,,,,,
661b3299bf19db77d7412b86,TCN,2024-06-20_10h42.27.910,LearnStrategy,2023.2.3,Win32,59.17159763,,,,,,,,,,,5,16,3,1,,,,,,,,,,,,,,,,,,,,,,,,,,,,,
661b3299bf19db77d7412b86,TCN,2024-06-20_10h42.27.910,LearnStrategy,2023.2.3,Win32,59.17159763,,,,,,,,,,,6,12,3,2,,,,,,,,,,,,,,,,,,,,,,,,,,,,,
661b3299bf19db77d7412b86,TCN,2024-06-20_10h42.27.910,LearnStrategy,2023.2.3,Win32,59.17159763,,,,,,,,,,,5,12,3,3,,,,,,,,,,,,,,,,,,,,,,,,,,,,,
661b3299bf19db77d7412b86,TCN,2024-06-20_10h42.27.910,LearnStrategy,2023.2.3,Win32,59.17159763,,,,,,,,,,,2,02,3,4,,,,,,,,,,,,,,,,,,,,,,,,,,,,,
661b3299bf19db77d7412b86,TCN,2024-06-20_10h42.27.910,LearnStrategy,2023.2.3,Win32,59.17159763,,,,,,,,,,,6,15,3,5,,,,,,,,,,,,,,,,,,,,,,,,,,,,,
661b3299bf19db77d7412b86,TCN,2024-06-20_10h42.27.910,LearnStrategy,2023.2.3,Win32,59.17159763,,,,,,,,,,,1,16,3,6,,,,,,,,,,,,,,,,,,,,,,,,,,,,,
661b3299bf19db77d7412b86,TCN,2024-06-20_10h42.27.910,LearnStrategy,2023.2.3,Win32,59.17159763,,,,,,,,,,,5,06,3,7,,,,,,,,,,,,,,,,,,,,,,,,,,,,,
661b3299bf19db77d7412b86,TCN,2024-06-20_10h42.27.910,LearnStrategy,2023.2.3,Win32,59.17159763,,,,,,,,,,,7,05,3,8,,,,,,,,,,,,,,,,,,,,,,,,,,,,,
661b3299bf19db77d7412b86,TCN,2024-06-20_10h42.27.910,LearnStrategy,2023.2.3,Win32,59.17159763,,,,,,,,,,,3,15,4,1,,,,,,,,,,,,,,,,,,,,,,,,,,,,,
661b3299bf19db77d7412b86,TCN,2024-06-20_10h42.27.910,LearnStrategy,2023.2.3,Win32,59.17159763,,,,,,,,,,,2,06,4,2,,,,,,,,,,,,,,,,,,,,,,,,,,,,,
661b3299bf19db77d7412b86,TCN,2024-06-20_10h42.27.910,LearnStrategy,2023.2.3,Win32,59.17159763,,,,,,,,,,,4,05,4,3,,,,,,,,,,,,,,,,,,,,,,,,,,,,,
661b3299bf19db77d7412b86,TCN,2024-06-20_10h42.27.910,LearnStrategy,2023.2.3,Win32,59.17159763,,,,,,,,,,,7,16,4,4,,,,,,,,,,,,,,,,,,,,,,,,,,,,,
661b3299bf19db77d7412b86,TCN,2024-06-20_10h42.27.910,LearnStrategy,2023.2.3,Win32,59.17159763,,,,,,,,,,,5,02,4,5,,,,,,,,,,,,,,,,,,,,,,,,,,,,,
661b3299bf19db77d7412b86,TCN,2024-06-20_10h42.27.910,LearnStrategy,2023.2.3,Win32,59.17159763,,,,,,,,,,,8,06,4,6,,,,,,,,,,,,,,,,,,,,,,,,,,,,,
661b3299bf19db77d7412b86,TCN,2024-06-20_10h42.27.910,LearnStrategy,2023.2.3,Win32,59.17159763,,,,,,,,,,,1,11,4,7,,,,,,,,,,,,,,,,,,,,,,,,,,,,,
661b3299bf19db77d7412b86,TCN,2024-06-20_10h42.27.910,LearnStrategy,2023.2.3,Win32,59.17159763,,,,,,,,,,,3,16,4,8,,,,,,,,,,,,,,,,,,,,,,,,,,,,,
661b3299bf19db77d7412b86,TCN,2024-06-20_10h42.27.910,LearnStrategy,2023.2.3,Win32,59.17159763,,,,,,,,,,,3,11,5,1,,,,,,,,,,,,,,,,,,,,,,,,,,,,,
661b3299bf19db77d7412b86,TCN,2024-06-20_10h42.27.910,LearnStrategy,2023.2.3,Win32,59.17159763,,,,,,,,,,,1,03,5,2,,,,,,,,,,,,,,,,,,,,,,,,,,,,,
661b3299bf19db77d7412b86,TCN,2024-06-20_10h42.27.910,LearnStrategy,2023.2.3,Win32,59.17159763,,,,,,,,,,,2,10,5,3,,,,,,,,,,,,,,,,,,,,,,,,,,,,,
661b3299bf19db77d7412b86,TCN,2024-06-20_10h42.27.910,LearnStrategy,2023.2.3,Win32,59.17159763,,,,,,,,,,,6,05,5,4,,,,,,,,,,,,,,,,,,,,,,,,,,,,,
661b3299bf19db77d7412b86,TCN,2024-06-20_10h42.27.910,LearnStrategy,2023.2.3,Win32,59.17159763,,,,,,,,,,,3,12,5,5,,,,,,,,,,,,,,,,,,,,,,,,,,,,,
661b3299bf19db77d7412b86,TCN,2024-06-20_10h42.27.910,LearnStrategy,2023.2.3,Win32,59.17159763,,,,,,,,,,,3,06,5,6,,,,,,,,,,,,,,,,,,,,,,,,,,,,,
661b3299bf19db77d7412b86,TCN,2024-06-20_10h42.27.910,LearnStrategy,2023.2.3,Win32,59.17159763,,,,,,,,,,,2,16,5,7,,,,,,,,,,,,,,,,,,,,,,,,,,,,,
661b3299bf19db77d7412b86,TCN,2024-06-20_10h42.27.910,LearnStrategy,2023.2.3,Win32,59.17159763,,,,,,,,,,,8,10,5,8,,,,,,,,,,,,,,,,,,,,,,,,,,,,,
661b3299bf19db77d7412b86,TCN,2024-06-20_10h42.27.910,LearnStrategy,2023.2.3,Win32,59.17159763,,,,,,,,,,,4,09,6,1,,,,,,,,,,,,,,,,,,,,,,,,,,,,,
661b3299bf19db77d7412b86,TCN,2024-06-20_10h42.27.910,LearnStrategy,2023.2.3,Win32,59.17159763,,,,,,,,,,,7,08,6,2,,,,,,,,,,,,,,,,,,,,,,,,,,,,,
661b3299bf19db77d7412b86,TCN,2024-06-20_10h42.27.910,LearnStrategy,2023.2.3,Win32,59.17159763,,,,,,,,,,,2,12,6,3,,,,,,,,,,,,,,,,,,,,,,,,,,,,,
661b3299bf19db77d7412b86,TCN,2024-06-20_10h42.27.910,LearnStrategy,2023.2.3,Win32,59.17159763,,,,,,,,,,,6,09,6,4,,,,,,,,,,,,,,,,,,,,,,,,,,,,,
661b3299bf19db77d7412b86,TCN,2024-06-20_10h42.27.910,LearnStrategy,2023.2.3,Win32,59.17159763,,,,,,,,,,,4,10,6,5,,,,,,,,,,,,,,,,,,,,,,,,,,,,,
661b3299bf19db77d7412b86,TCN,2024-06-20_10h42.27.910,LearnStrategy,2023.2.3,Win32,59.17159763,,,,,,,,,,,4,01,6,6,,,,,,,,,,,,,,,,,,,,,,,,,,,,,
661b3299bf19db77d7412b86,TCN,2024-06-20_10h42.27.910,LearnStrategy,2023.2.3,Win32,59.17159763,,,,,,,,,,,8,09,6,7,,,,,,,,,,,,,,,,,,,,,,,,,,,,,
661b3299bf19db77d7412b86,TCN,2024-06-20_10h42.27.910,LearnStrategy,2023.2.3,Win32,59.17159763,,,,,,,,,,,1,06,6,8,,,,,,,,,,,,,,,,,,,,,,,,,,,,,