participant,condition,date,expName,psychopyVersion,OS,frameRate,block,phase,trial,learn_mouse.x,learn_mouse.y,learn_mouse.leftButton,learn_mouse.midButton,learn_mouse.rightButton,learn_mouse.time,learn_mouse.clicked_name,cat,token,row,col,t_select,cat_mouse_l.x,cat_mouse_l.y,cat_mouse_l.leftButton,cat_mouse_l.midButton,cat_mouse_l.rightButton,cat_mouse_l.time,cat_mouse_l.clicked_name,resp,t_resp,corr,train_trials.thisRepN,train_trials.thisTrialN,train_trials.thisN,train_trials.thisIndex,train_trials.ran,cat_mouse_t.x,cat_mouse_t.y,cat_mouse_t.leftButton,cat_mouse_t.midButton,cat_mouse_t.rightButton,cat_mouse_t.time,cat_mouse_t.clicked_name,test_trials.thisRepN,test_trials.thisTrialN,test_trials.thisN,test_trials.thisIndex,test_trials.ran,Bonus
661c38568863541ccfbebd67,SCN,2024-06-24_16h52.07.836,LearnStrategy,2023.2.3,Win32,59.88023952,,,,,,,,,,,,,,,,,,,,,,,,,,,,,,,,,,,,,,,,,,,
661c38568863541ccfbebd67,SCN,2024-06-24_16h52.07.836,LearnStrategy,2023.2.3,Win32,59.88023952,1,1,1,-0.372222222,-0.253703704,1,0,0,78.0628,Obsidian_11,5,11,2,2,78.063,0.134259259,-0.251851852,1,0,0,8.7083,Diorite_rect,3,8.708,0,0,0,0,0,1,,,,,,,,,,,,,
661c38568863541ccfbebd67,SCN,2024-06-24_16h52.07.836,LearnStrategy,2023.2.3,Win32,59.88023952,1,1,2,0.564814815,-0.085185185,1,0,0,4.7381,Obsidian_05,5,05,3,8,4.738,-0.167592593,-0.413888889,1,0,0,17.4576,Pegmatite_rect,6,17.458,0,1,0,1,0,1,,,,,,,,,,,,,
661c38568863541ccfbebd67,SCN,2024-06-24_16h52.07.836,LearnStrategy,2023.2.3,Win32,59.88023952,1,1,3,-0.391666667,0.09537037,1,0,0,4.4669,Basalt_08,2,08,4,2,4.467,-0.4,-0.391666667,1,0,0,7.0524,Obsidian_rect,5,7.052,0,2,0,2,0,1,,,,,,,,,,,,,
661c38568863541ccfbebd67,SCN,2024-06-24_16h52.07.836,LearnStrategy,2023.2.3,Win32,59.88023952,1,1,4,0.523148148,0.246296296,1,0,0,6.6173,Obsidian_02,5,02,5,8,6.617,-0.158333333,-0.235185185,1,0,0,25.941,Basalt_rect,2,25.941,0,3,0,3,0,1,,,,,,,,,,,,,
661c38568863541ccfbebd67,SCN,2024-06-24_16h52.07.836,LearnStrategy,2023.2.3,Win32,59.88023952,1,1,5,0.549074074,-0.391666667,1,0,0,6.5025,Obsidian_08,5,08,1,8,6.502,-0.075,-0.271296296,1,0,0,21.3041,Basalt_rect,2,21.304,0,4,0,4,0,1,,,,,,,,,,,,,
661c38568863541ccfbebd67,SCN,2024-06-24_16h52.07.836,LearnStrategy,2023.2.3,Win32,59.88023952,1,1,6,-0.52962963,0.076851852,1,0,0,10.0916,Pumice_13,8,13,4,1,10.092,0.387962963,-0.412962963,1,0,0,5.322,Pumice_rect,8,5.322,1,5,0,5,0,1,,,,,,,,,,,,,
661c38568863541ccfbebd67,SCN,2024-06-24_16h52.07.836,LearnStrategy,2023.2.3,Win32,59.88023952,1,1,7,-0.565740741,-0.259259259,1,0,0,3.4517,Gabbro_03,4,03,2,1,3.452,-0.424074074,-0.260185185,1,0,0,17.1719,Andesite_rect,1,17.172,0,6,0,6,0,1,,,,,,,,,,,,,
661c38568863541ccfbebd67,SCN,2024-06-24_16h52.07.836,LearnStrategy,2023.2.3,Win32,59.88023952,1,1,8,-0.547222222,0.383333333,1,0,0,2.1318,Pegmatite_06,6,06,6,1,2.132,0.117592593,-0.392592593,1,0,0,5.4464,Peridotite_rect,7,5.446,0,7,0,7,0,1,,,,,,,,,,,,,
661c38568863541ccfbebd67,SCN,2024-06-24_16h52.07.836,LearnStrategy,2023.2.3,Win32,59.88023952,1,1,9,-0.393518519,0.400925926,1,0,0,7.0177,Diorite_09,3,09,6,2,7.018,-0.457407407,-0.412962963,1,0,0,11.2447,Obsidian_rect,5,11.245,0,8,0,8,0,1,,,,,,,,,,,,,
661c38568863541ccfbebd67,SCN,2024-06-24_16h52.07.836,LearnStrategy,2023.2.3,Win32,59.88023952,1,1,10,0.269444444,0.417592593,1,0,0,2.8346,Basalt_11,2,11,6,6,2.835,0.301851852,-0.380555556,1,0,0,12.5442,Pumice_rect,8,12.544,0,9,0,9,0,1,,,,,,,,,,,,,
661c38568863541ccfbebd67,SCN,2024-06-24_16h52.07.836,LearnStrategy,2023.2.3,Win32,59.88023952,1,1,11,0.093518519,0.231481481,1,0,0,3.8103,Peridotite_14,7,14,5,5,3.81,0.089814815,-0.240740741,1,0,0,15.9681,Diorite_rect,3,15.968,0,10,0,10,0,1,,,,,,,,,,,,,
661c38568863541ccfbebd67,SCN,2024-06-24_16h52.07.836,LearnStrategy,2023.2.3,Win32,59.88023952,1,1,12,-0.063888889,-0.114814815,1,0,0,5.7071,Pumice_16,8,16,3,4,5.707,-0.343518519,-0.256481481,1,0,0,10.4077,Andesite_rect,1,10.408,0,11,0,11,0,1,,,,,,,,,,,,,
661c38568863541ccfbebd67,SCN,2024-06-24_16h52.07.836,LearnStrategy,2023.2.3,Win32,59.88023952,1,1,13,0.065740741,-0.089814815,1,0,0,3.0627,Basalt_04,2,04,3,5,3.063,-0.116666667,-0.248148148,1,0,0,11.7452,Basalt_rect,2,11.745,1,12,0,12,0,1,,,,,,,,,,,,,
661c38568863541ccfbebd67,SCN,2024-06-24_16h52.07.836,LearnStrategy,2023.2.3,Win32,59.88023952,1,1,14,-0.557407407,-0.410185185,1,0,0,6.7602,Peridotite_07,7,07,1,1,6.76,0.172222222,-0.383333333,1,0,0,16.959,Peridotite_rect,7,16.959,1,13,0,13,0,1,,,,,,,,,,,,,
661c38568863541ccfbebd67,SCN,2024-06-24_16h52.07.836,LearnStrategy,2023.2.3,Win32,59.88023952,1,1,15,-0.096296296,-0.427777778,1,0,0,2.3558,Gabbro_14,4,14,1,4,2.356,0.108333333,-0.382407407,1,0,0,16.6261,Peridotite_rect,7,16.626,0,14,0,14,0,1,,,,,,,,,,,,,
661c38568863541ccfbebd67,SCN,2024-06-24_16h52.07.836,LearnStrategy,2023.2.3,Win32,59.88023952,1,1,16,0.069444444,-0.399074074,1,0,0,2.1095,Pegmatite_07,6,07,1,5,2.109,0.340740741,-0.25,1,0,0,4.9396,Gabbro_rect,4,4.94,0,15,0,15,0,1,,,,,,,,,,,,,
661c38568863541ccfbebd67,SCN,2024-06-24_16h52.07.836,LearnStrategy,2023.2.3,Win32,59.88023952,1,2,1,,,,,,,,7,13,,,,,,,,,,,2,6.426,0,,,,,,-0.148148148,-0.257407407,1,0,0,6.4259,Basalt_rect,0,0,0,0,1,
661c38568863541ccfbebd67,SCN,2024-06-24_16h52.07.836,LearnStrategy,2023.2.3,Win32,59.88023952,1,2,2,,,,,,,,2,05,,,,,,,,,,,2,9.923,1,,,,,,-0.148148148,-0.257407407,1,0,0,9.9227,Basalt_rect,1,0,1,0,1,
661c38568863541ccfbebd67,SCN,2024-06-24_16h52.07.836,LearnStrategy,2023.2.3,Win32,59.88023952,1,2,3,,,,,,,,8,06,,,,,,,,,,,8,6.433,1,,,,,,0.308333333,-0.409259259,1,0,0,6.4332,Pumice_rect,2,0,2,0,1,
661c38568863541ccfbebd67,SCN,2024-06-24_16h52.07.836,LearnStrategy,2023.2.3,Win32,59.88023952,1,2,4,,,,,,,,6,10,,,,,,,,,,,7,8.678,0,,,,,,0.133333333,-0.408333333,1,0,0,8.6784,Peridotite_rect,3,0,3,0,1,
661c38568863541ccfbebd67,SCN,2024-06-24_16h52.07.836,LearnStrategy,2023.2.3,Win32,59.88023952,1,2,5,,,,,,,,6,12,,,,,,,,,,,6,16.043,1,,,,,,-0.116666667,-0.414814815,1,0,0,16.0426,Pegmatite_rect,4,0,4,0,1,
661c38568863541ccfbebd67,SCN,2024-06-24_16h52.07.836,LearnStrategy,2023.2.3,Win32,59.88023952,1,2,6,,,,,,,,4,08,,,,,,,,,,,4,8.979,1,,,,,,0.464814815,-0.235185185,1,0,0,8.979,Gabbro_rect,5,0,5,0,1,
661c38568863541ccfbebd67,SCN,2024-06-24_16h52.07.836,LearnStrategy,2023.2.3,Win32,59.88023952,1,2,7,,,,,,,,8,08,,,,,,,,,,,8,2.732,1,,,,,,0.352777778,-0.40462963,1,0,0,2.7319,Pumice_rect,6,0,6,0,1,
661c38568863541ccfbebd67,SCN,2024-06-24_16h52.07.836,LearnStrategy,2023.2.3,Win32,59.88023952,1,2,8,,,,,,,,1,10,,,,,,,,,,,7,57.539,0,,,,,,0.080555556,-0.387037037,1,0,0,57.5391,Peridotite_rect,7,0,7,0,1,
661c38568863541ccfbebd67,SCN,2024-06-24_16h52.07.836,LearnStrategy,2023.2.3,Win32,59.88023952,1,2,9,,,,,,,,4,01,,,,,,,,,,,7,8.639,0,,,,,,0.066666667,-0.398148148,1,0,0,8.6394,Peridotite_rect,8,0,8,0,1,
661c38568863541ccfbebd67,SCN,2024-06-24_16h52.07.836,LearnStrategy,2023.2.3,Win32,59.88023952,1,2,10,,,,,,,,3,08,,,,,,,,,,,3,6.985,1,,,,,,0.148148148,-0.267592593,1,0,0,6.9851,Diorite_rect,9,0,9,0,1,
661c38568863541ccfbebd67,SCN,2024-06-24_16h52.07.836,LearnStrategy,2023.2.3,Win32,59.88023952,1,2,11,,,,,,,,2,01,,,,,,,,,,,2,11.083,1,,,,,,-0.126851852,-0.238888889,1,0,0,11.0825,Basalt_rect,10,0,10,0,1,
661c38568863541ccfbebd67,SCN,2024-06-24_16h52.07.836,LearnStrategy,2023.2.3,Win32,59.88023952,1,2,12,,,,,,,,5,10,,,,,,,,,,,6,33.723,0,,,,,,-0.137037037,-0.394444444,1,0,0,33.7232,Pegmatite_rect,11,0,11,0,1,
661c38568863541ccfbebd67,SCN,2024-06-24_16h52.07.836,LearnStrategy,2023.2.3,Win32,59.88023952,1,2,13,,,,,,,,1,14,,,,,,,,,,,6,3.309,0,,,,,,-0.137037037,-0.394444444,1,0,0,3.3091,Pegmatite_rect,12,0,12,0,1,
661c38568863541ccfbebd67,SCN,2024-06-24_16h52.07.836,LearnStrategy,2023.2.3,Win32,59.88023952,1,2,14,,,,,,,,5,04,,,,,,,,,,,5,20.024,1,,,,,,-0.372222222,-0.380555556,1,0,0,20.024,Obsidian_rect,13,0,13,0,1,
661c38568863541ccfbebd67,SCN,2024-06-24_16h52.07.836,LearnStrategy,2023.2.3,Win32,59.88023952,1,2,15,,,,,,,,7,04,,,,,,,,,,,7,17.876,1,,,,,,0.108333333,-0.414814815,1,0,0,17.8762,Peridotite_rect,14,0,14,0,1,
661c38568863541ccfbebd67,SCN,2024-06-24_16h52.07.836,LearnStrategy,2023.2.3,Win32,59.88023952,1,2,16,,,,,,,,3,02,,,,,,,,,,,3,55.381,1,,,,,,0.157407407,-0.255555556,1,0,0,55.3815,Diorite_rect,15,0,15,0,1,
661c38568863541ccfbebd67,SCN,2024-06-24_16h52.07.836,LearnStrategy,2023.2.3,Win32,59.88023952,2,1,1,0.513888889,-0.388888889,1,0,0,16.1995,Obsidian_08,5,08,1,8,16.2,0.388888889,-0.24537037,1,0,0,12.8678,Gabbro_rect,4,12.868,0,0,0,0,0,1,,,,,,,,,,,,,
661c38568863541ccfbebd67,SCN,2024-06-24_16h52.07.836,LearnStrategy,2023.2.3,Win32,59.88023952,2,1,2,-0.375925926,0.250925926,1,0,0,8.796,Pegmatite_15,6,15,5,2,8.796,-0.138888889,-0.387962963,1,0,0,5.8764,Pegmatite_rect,6,5.876,1,1,0,1,0,1,,,,,,,,,,,,,
661c38568863541ccfbebd67,SCN,2024-06-24_16h52.07.836,LearnStrategy,2023.2.3,Win32,59.88023952,2,1,3,0.190740741,0.236111111,1,0,0,4.0068,Andesite_01,1,01,5,6,4.007,0.128703704,-0.252777778,1,0,0,8.2588,Diorite_rect,3,8.259,0,2,0,2,0,1,,,,,,,,,,,,,
661c38568863541ccfbebd67,SCN,2024-06-24_16h52.07.836,LearnStrategy,2023.2.3,Win32,59.88023952,2,1,4,0.401851852,-0.389814815,1,0,0,14.7763,Basalt_14,2,14,1,7,14.776,-0.444444444,-0.394444444,1,0,0,7.7365,Obsidian_rect,5,7.736,0,3,0,3,0,1,,,,,,,,,,,,,
661c38568863541ccfbebd67,SCN,2024-06-24_16h52.07.836,LearnStrategy,2023.2.3,Win32,59.88023952,2,1,5,0.225925926,-0.438888889,1,0,0,2.8317,Peridotite_08,7,08,1,6,2.832,0.152777778,-0.402777778,1,0,0,12.6357,Peridotite_rect,7,12.636,1,4,0,4,0,1,,,,,,,,,,,,,
661c38568863541ccfbebd67,SCN,2024-06-24_16h52.07.836,LearnStrategy,2023.2.3,Win32,59.88023952,2,1,6,-0.061111111,-0.428703704,1,0,0,1.7556,Gabbro_14,4,14,1,4,1.756,-0.097222222,-0.394444444,1,0,0,14.8448,Pegmatite_rect,6,14.845,0,5,0,5,0,1,,,,,,,,,,,,,
661c38568863541ccfbebd67,SCN,2024-06-24_16h52.07.836,LearnStrategy,2023.2.3,Win32,59.88023952,2,1,7,-0.421296296,-0.432407407,1,0,0,3.5483,Basalt_12,2,12,1,2,3.548,-0.088888889,-0.256481481,1,0,0,23.9478,Basalt_rect,2,23.948,1,6,0,6,0,1,,,,,,,,,,,,,
661c38568863541ccfbebd67,SCN,2024-06-24_16h52.07.836,LearnStrategy,2023.2.3,Win32,59.88023952,2,1,8,-0.532407407,-0.409259259,1,0,0,2.12,Peridotite_07,7,07,1,1,2.12,0.114814815,-0.416666667,1,0,0,6.0839,Peridotite_rect,7,6.084,1,7,0,7,0,1,,,,,,,,,,,,,
661c38568863541ccfbebd67,SCN,2024-06-24_16h52.07.836,LearnStrategy,2023.2.3,Win32,59.88023952,2,1,9,-0.526851852,-0.277777778,1,0,0,2.4621,Gabbro_03,4,03,2,1,2.462,0.063888889,-0.40462963,1,0,0,5.6859,Peridotite_rect,7,5.686,0,8,0,8,0,1,,,,,,,,,,,,,
661c38568863541ccfbebd67,SCN,2024-06-24_16h52.07.836,LearnStrategy,2023.2.3,Win32,59.88023952,2,1,10,-0.259259259,-0.225,1,0,0,6.6285,Diorite_15,3,15,2,3,6.628,-0.372222222,-0.248148148,1,0,0,2.4717,Andesite_rect,1,2.472,0,9,0,9,0,1,,,,,,,,,,,,,
661c38568863541ccfbebd67,SCN,2024-06-24_16h52.07.836,LearnStrategy,2023.2.3,Win32,59.88023952,2,1,11,-0.092592593,-0.273148148,1,0,0,2.1861,Andesite_16,1,16,2,4,2.186,-0.346296296,-0.261111111,1,0,0,5.2237,Andesite_rect,1,5.224,1,10,0,10,0,1,,,,,,,,,,,,,
661c38568863541ccfbebd67,SCN,2024-06-24_16h52.07.836,LearnStrategy,2023.2.3,Win32,59.88023952,2,1,12,0.080555556,-0.269444444,1,0,0,1.5017,Peridotite_12,7,12,2,5,1.502,0.096296296,-0.393518519,1,0,0,11.5356,Peridotite_rect,7,11.536,1,11,0,11,0,1,,,,,,,,,,,,,
661c38568863541ccfbebd67,SCN,2024-06-24_16h52.07.836,LearnStrategy,2023.2.3,Win32,59.88023952,2,1,13,-0.562037037,-0.111111111,1,0,0,23.0438,Pegmatite_09,6,09,3,1,23.044,0.172222222,-0.417592593,1,0,0,13.2403,Peridotite_rect,7,13.24,0,12,0,12,0,1,,,,,,,,,,,,,
661c38568863541ccfbebd67,SCN,2024-06-24_16h52.07.836,LearnStrategy,2023.2.3,Win32,59.88023952,2,1,14,-0.276851852,0.071296296,1,0,0,7.5609,Andesite_04,1,04,4,3,7.561,0.10462963,-0.421296296,1,0,0,60.8792,Peridotite_rect,7,60.879,0,13,0,13,0,1,,,,,,,,,,,,,
661c38568863541ccfbebd67,SCN,2024-06-24_16h52.07.836,LearnStrategy,2023.2.3,Win32,59.88023952,2,1,15,-0.072222222,-0.123148148,1,0,0,1.7391,Pumice_16,8,16,3,4,1.739,-0.137037037,-0.241666667,1,0,0,16.761,Basalt_rect,2,16.761,0,14,0,14,0,1,,,,,,,,,,,,,
661c38568863541ccfbebd67,SCN,2024-06-24_16h52.07.836,LearnStrategy,2023.2.3,Win32,59.88023952,2,1,16,0.105555556,-0.077777778,1,0,0,7.884,Basalt_04,2,04,3,5,7.884,-0.133333333,-0.239814815,1,0,0,1.8843,Basalt_rect,2,1.884,1,15,0,15,0,1,,,,,,,,,,,,,
661c38568863541ccfbebd67,SCN,2024-06-24_16h52.07.836,LearnStrategy,2023.2.3,Win32,59.88023952,2,2,1,,,,,,,,3,14,,,,,,,,,,,3,36.768,1,,,,,,0.133333333,-0.228703704,1,0,0,36.7676,Diorite_rect,0,0,0,0,1,
661c38568863541ccfbebd67,SCN,2024-06-24_16h52.07.836,LearnStrategy,2023.2.3,Win32,59.88023952,2,2,2,,,,,,,,5,14,,,,,,,,,,,5,13.725,1,,,,,,-0.364814815,-0.414814815,1,0,0,13.7253,Obsidian_rect,1,0,1,0,1,
661c38568863541ccfbebd67,SCN,2024-06-24_16h52.07.836,LearnStrategy,2023.2.3,Win32,59.88023952,2,2,3,,,,,,,,2,16,,,,,,,,,,,2,32.471,1,,,,,,-0.162962963,-0.251851852,1,0,0,32.4711,Basalt_rect,2,0,2,0,1,
661c38568863541ccfbebd67,SCN,2024-06-24_16h52.07.836,LearnStrategy,2023.2.3,Win32,59.88023952,2,2,4,,,,,,,,3,13,,,,,,,,,,,7,32.361,0,,,,,,0.074074074,-0.411111111,1,0,0,32.361,Peridotite_rect,3,0,3,0,1,
661c38568863541ccfbebd67,SCN,2024-06-24_16h52.07.836,LearnStrategy,2023.2.3,Win32,59.88023952,2,2,5,,,,,,,,1,09,,,,,,,,,,,2,10.39,0,,,,,,-0.085185185,-0.25,1,0,0,10.3903,Basalt_rect,4,0,4,0,1,
661c38568863541ccfbebd67,SCN,2024-06-24_16h52.07.836,LearnStrategy,2023.2.3,Win32,59.88023952,2,2,6,,,,,,,,5,06,,,,,,,,,,,5,9.883,1,,,,,,-0.337037037,-0.387962963,1,0,0,9.8826,Obsidian_rect,5,0,5,0,1,
661c38568863541ccfbebd67,SCN,2024-06-24_16h52.07.836,LearnStrategy,2023.2.3,Win32,59.88023952,2,2,7,,,,,,,,7,10,,,,,,,,,,,7,9.848,1,,,,,,0.128703704,-0.412037037,1,0,0,9.8483,Peridotite_rect,6,0,6,0,1,
661c38568863541ccfbebd67,SCN,2024-06-24_16h52.07.836,LearnStrategy,2023.2.3,Win32,59.88023952,2,2,8,,,,,,,,1,02,,,,,,,,,,,8,9.61,0,,,,,,0.355555556,-0.419444444,1,0,0,9.6102,Pumice_rect,7,0,7,0,1,
661c38568863541ccfbebd67,SCN,2024-06-24_16h52.07.836,LearnStrategy,2023.2.3,Win32,59.88023952,2,2,9,,,,,,,,2,10,,,,,,,,,,,2,40.306,1,,,,,,-0.092592593,-0.249074074,1,0,0,40.3063,Basalt_rect,8,0,8,0,1,
661c38568863541ccfbebd67,SCN,2024-06-24_16h52.07.836,LearnStrategy,2023.2.3,Win32,59.88023952,2,2,10,,,,,,,,8,15,,,,,,,,,,,8,4.878,1,,,,,,0.423148148,-0.402777778,1,0,0,4.8778,Pumice_rect,9,0,9,0,1,
661c38568863541ccfbebd67,SCN,2024-06-24_16h52.07.836,LearnStrategy,2023.2.3,Win32,59.88023952,2,2,11,,,,,,,,7,05,,,,,,,,,,,7,6.135,1,,,,,,0.171296296,-0.40462963,1,0,0,6.1352,Peridotite_rect,10,0,10,0,1,
661c38568863541ccfbebd67,SCN,2024-06-24_16h52.07.836,LearnStrategy,2023.2.3,Win32,59.88023952,2,2,12,,,,,,,,6,16,,,,,,,,,,,4,4.665,0,,,,,,0.35462963,-0.247222222,1,0,0,4.665,Gabbro_rect,11,0,11,0,1,
661c38568863541ccfbebd67,SCN,2024-06-24_16h52.07.836,LearnStrategy,2023.2.3,Win32,59.88023952,2,2,13,,,,,,,,4,10,,,,,,,,,,,2,5.844,0,,,,,,-0.086111111,-0.235185185,1,0,0,5.8442,Basalt_rect,12,0,12,0,1,
661c38568863541ccfbebd67,SCN,2024-06-24_16h52.07.836,LearnStrategy,2023.2.3,Win32,59.88023952,2,2,14,,,,,,,,8,10,,,,,,,,,,,6,9.612,0,,,,,,-0.161111111,-0.408333333,1,0,0,9.6116,Pegmatite_rect,13,0,13,0,1,
661c38568863541ccfbebd67,SCN,2024-06-24_16h52.07.836,LearnStrategy,2023.2.3,Win32,59.88023952,2,2,15,,,,,,,,4,09,,,,,,,,,,,2,16.579,0,,,,,,-0.160185185,-0.242592593,1,0,0,16.5792,Basalt_rect,14,0,14,0,1,
661c38568863541ccfbebd67,SCN,2024-06-24_16h52.07.836,LearnStrategy,2023.2.3,Win32,59.88023952,2,2,16,,,,,,,,6,11,,,,,,,,,,,1,5.814,0,,,,,,-0.380555556,-0.235185185,1,0,0,5.8142,Andesite_rect,15,0,15,0,1,
661c38568863541ccfbebd67,SCN,2024-06-24_16h52.07.836,LearnStrategy,2023.2.3,Win32,59.88023952,3,1,1,-0.551851852,0.406481481,1,0,0,19.7436,Pegmatite_06,6,06,6,1,19.744,-0.058333333,-0.240740741,1,0,0,2.8196,Basalt_rect,2,2.82,0,0,0,0,0,1,,,,,,,,,,,,,
661c38568863541ccfbebd67,SCN,2024-06-24_16h52.07.836,LearnStrategy,2023.2.3,Win32,59.88023952,3,1,2,-0.405555556,0.425,1,0,0,1.1367,Diorite_09,3,09,6,2,1.137,-0.400925926,-0.234259259,1,0,0,5.8479,Andesite_rect,1,5.848,0,1,0,1,0,1,,,,,,,,,,,,,
661c38568863541ccfbebd67,SCN,2024-06-24_16h52.07.836,LearnStrategy,2023.2.3,Win32,59.88023952,3,1,3,-0.266666667,0.423148148,1,0,0,1.2456,Obsidian_07,5,07,6,3,1.246,0.371296296,-0.240740741,1,0,0,6.7815,Gabbro_rect,4,6.781,0,2,0,2,0,1,,,,,,,,,,,,,
661c38568863541ccfbebd67,SCN,2024-06-24_16h52.07.836,LearnStrategy,2023.2.3,Win32,59.88023952,3,1,4,-0.093518519,0.412962963,1,0,0,1.3202,Pegmatite_03,6,03,6,4,1.32,-0.117592593,-0.412962963,1,0,0,7.0384,Pegmatite_rect,6,7.038,1,3,0,3,0,1,,,,,,,,,,,,,
661c38568863541ccfbebd67,SCN,2024-06-24_16h52.07.836,LearnStrategy,2023.2.3,Win32,59.88023952,3,1,5,0.071296296,0.40462963,1,0,0,1.7709,Pumice_05,8,05,6,5,1.771,0.337962963,-0.419444444,1,0,0,2.1102,Pumice_rect,8,2.11,1,4,0,4,0,1,,,,,,,,,,,,,
661c38568863541ccfbebd67,SCN,2024-06-24_16h52.07.836,LearnStrategy,2023.2.3,Win32,59.88023952,3,1,6,0.25,0.411111111,1,0,0,1.2444,Basalt_11,2,11,6,6,1.244,-0.121296296,-0.263888889,1,0,0,9.3862,Basalt_rect,2,9.386,1,5,0,5,0,1,,,,,,,,,,,,,
661c38568863541ccfbebd67,SCN,2024-06-24_16h52.07.836,LearnStrategy,2023.2.3,Win32,59.88023952,3,1,7,0.412962963,0.427777778,1,0,0,1.4698,Diorite_16,3,16,6,7,1.47,0.072222222,-0.258333333,1,0,0,22.6539,Diorite_rect,3,22.654,1,6,0,6,0,1,,,,,,,,,,,,,
661c38568863541ccfbebd67,SCN,2024-06-24_16h52.07.836,LearnStrategy,2023.2.3,Win32,59.88023952,3,1,8,0.512962963,0.416666667,1,0,0,1.8681,Diorite_12,3,12,6,8,1.868,0.148148148,-0.253703704,1,0,0,2.1064,Diorite_rect,3,2.106,1,7,0,7,0,1,,,,,,,,,,,,,
661c38568863541ccfbebd67,SCN,2024-06-24_16h52.07.836,LearnStrategy,2023.2.3,Win32,59.88023952,3,1,9,-0.530555556,0.290740741,1,0,0,1.1829,Gabbro_05,4,05,5,1,1.183,-0.168518519,-0.260185185,1,0,0,2.8161,Basalt_rect,2,2.816,0,8,0,8,0,1,,,,,,,,,,,,,
661c38568863541ccfbebd67,SCN,2024-06-24_16h52.07.836,LearnStrategy,2023.2.3,Win32,59.88023952,3,1,10,-0.37962963,0.262962963,1,0,0,2.085,Pegmatite_15,6,15,5,2,2.085,-0.131481481,-0.419444444,1,0,0,13.761,Pegmatite_rect,6,13.761,1,9,0,9,0,1,,,,,,,,,,,,,
661c38568863541ccfbebd67,SCN,2024-06-24_16h52.07.836,LearnStrategy,2023.2.3,Win32,59.88023952,3,1,11,-0.242592593,0.262962963,1,0,0,1.4984,Basalt_06,2,06,5,3,1.498,-0.141666667,-0.24537037,1,0,0,2.9045,Basalt_rect,2,2.904,1,10,0,10,0,1,,,,,,,,,,,,,
661c38568863541ccfbebd67,SCN,2024-06-24_16h52.07.836,LearnStrategy,2023.2.3,Win32,59.88023952,3,1,12,-0.055555556,0.238888889,1,0,0,1.3011,Andesite_06,1,06,5,4,1.301,0.121296296,-0.259259259,1,0,0,6.9743,Diorite_rect,3,6.974,0,11,0,11,0,1,,,,,,,,,,,,,
661c38568863541ccfbebd67,SCN,2024-06-24_16h52.07.836,LearnStrategy,2023.2.3,Win32,59.88023952,3,1,13,0.063888889,0.214814815,1,0,0,1.7688,Peridotite_14,7,14,5,5,1.769,0.082407407,-0.40462963,1,0,0,11.8469,Peridotite_rect,7,11.847,1,12,0,12,0,1,,,,,,,,,,,,,
661c38568863541ccfbebd67,SCN,2024-06-24_16h52.07.836,LearnStrategy,2023.2.3,Win32,59.88023952,3,1,14,0.219444444,0.221296296,1,0,0,1.333,Andesite_01,1,01,5,6,1.333,-0.086111111,-0.231481481,1,0,0,2.2384,Basalt_rect,2,2.238,0,13,0,13,0,1,,,,,,,,,,,,,
661c38568863541ccfbebd67,SCN,2024-06-24_16h52.07.836,LearnStrategy,2023.2.3,Win32,59.88023952,3,1,15,0.409259259,0.241666667,1,0,0,2.0066,Andesite_05,1,05,5,7,2.007,-0.144444444,-0.386111111,1,0,0,10.4608,Pegmatite_rect,6,10.461,0,14,0,14,0,1,,,,,,,,,,,,,
661c38568863541ccfbebd67,SCN,2024-06-24_16h52.07.836,LearnStrategy,2023.2.3,Win32,59.88023952,3,1,16,0.506481481,0.227777778,1,0,0,2.8223,Obsidian_02,5,02,5,8,2.822,0.388888889,-0.230555556,1,0,0,3.5718,Gabbro_rect,4,3.572,0,15,0,15,0,1,,,,,,,,,,,,,
661c38568863541ccfbebd67,SCN,2024-06-24_16h52.07.836,LearnStrategy,2023.2.3,Win32,59.88023952,3,2,1,,,,,,,,2,09,,,,,,,,,,,2,22.416,1,,,,,,-0.130555556,-0.247222222,1,0,0,22.4162,Basalt_rect,0,0,0,0,1,
661c38568863541ccfbebd67,SCN,2024-06-24_16h52.07.836,LearnStrategy,2023.2.3,Win32,59.88023952,3,2,2,,,,,,,,8,04,,,,,,,,,,,8,2.105,1,,,,,,0.367592593,-0.406481481,1,0,0,2.1055,Pumice_rect,1,0,1,0,1,
661c38568863541ccfbebd67,SCN,2024-06-24_16h52.07.836,LearnStrategy,2023.2.3,Win32,59.88023952,3,2,3,,,,,,,,7,15,,,,,,,,,,,7,9.481,1,,,,,,0.174074074,-0.394444444,1,0,0,9.4809,Peridotite_rect,2,0,2,0,1,
661c38568863541ccfbebd67,SCN,2024-06-24_16h52.07.836,LearnStrategy,2023.2.3,Win32,59.88023952,3,2,4,,,,,,,,3,07,,,,,,,,,,,7,51.731,0,,,,,,0.157407407,-0.393518519,1,0,0,51.7308,Peridotite_rect,3,0,3,0,1,
661c38568863541ccfbebd67,SCN,2024-06-24_16h52.07.836,LearnStrategy,2023.2.3,Win32,59.88023952,3,2,5,,,,,,,,5,09,,,,,,,,,,,5,7.414,1,,,,,,-0.334259259,-0.391666667,1,0,0,7.4143,Obsidian_rect,4,0,4,0,1,
661c38568863541ccfbebd67,SCN,2024-06-24_16h52.07.836,LearnStrategy,2023.2.3,Win32,59.88023952,3,2,6,,,,,,,,1,07,,,,,,,,,,,1,42.955,1,,,,,,-0.431481481,-0.240740741,1,0,0,42.955,Andesite_rect,5,0,5,0,1,
661c38568863541ccfbebd67,SCN,2024-06-24_16h52.07.836,LearnStrategy,2023.2.3,Win32,59.88023952,3,2,7,,,,,,,,7,16,,,,,,,,,,,4,24.174,0,,,,,,0.330555556,-0.264814815,1,0,0,24.1736,Gabbro_rect,6,0,6,0,1,
661c38568863541ccfbebd67,SCN,2024-06-24_16h52.07.836,LearnStrategy,2023.2.3,Win32,59.88023952,3,2,8,,,,,,,,6,13,,,,,,,,,,,3,30.447,0,,,,,,0.128703704,-0.255555556,1,0,0,30.4468,Diorite_rect,7,0,7,0,1,
661c38568863541ccfbebd67,SCN,2024-06-24_16h52.07.836,LearnStrategy,2023.2.3,Win32,59.88023952,3,2,9,,,,,,,,4,12,,,,,,,,,,,2,6.476,0,,,,,,-0.1,-0.251851852,1,0,0,6.4764,Basalt_rect,8,0,8,0,1,
661c38568863541ccfbebd67,SCN,2024-06-24_16h52.07.836,LearnStrategy,2023.2.3,Win32,59.88023952,3,2,10,,,,,,,,8,09,,,,,,,,,,,8,2.293,1,,,,,,0.402777778,-0.400925926,1,0,0,2.2929,Pumice_rect,9,0,9,0,1,
661c38568863541ccfbebd67,SCN,2024-06-24_16h52.07.836,LearnStrategy,2023.2.3,Win32,59.88023952,3,2,11,,,,,,,,6,08,,,,,,,,,,,6,23.503,1,,,,,,-0.080555556,-0.412037037,1,0,0,23.5027,Pegmatite_rect,10,0,10,0,1,
661c38568863541ccfbebd67,SCN,2024-06-24_16h52.07.836,LearnStrategy,2023.2.3,Win32,59.88023952,3,2,12,,,,,,,,1,03,,,,,,,,,,,3,2.244,0,,,,,,0.14537037,-0.253703704,1,0,0,2.2441,Diorite_rect,11,0,11,0,1,
661c38568863541ccfbebd67,SCN,2024-06-24_16h52.07.836,LearnStrategy,2023.2.3,Win32,59.88023952,3,2,13,,,,,,,,3,06,,,,,,,,,,,7,7.275,0,,,,,,0.091666667,-0.383333333,1,0,0,7.2753,Peridotite_rect,12,0,12,0,1,
661c38568863541ccfbebd67,SCN,2024-06-24_16h52.07.836,LearnStrategy,2023.2.3,Win32,59.88023952,3,2,14,,,,,,,,2,02,,,,,,,,,,,2,12.646,1,,,,,,-0.075925926,-0.251851852,1,0,0,12.6465,Basalt_rect,13,0,13,0,1,
661c38568863541ccfbebd67,SCN,2024-06-24_16h52.07.836,LearnStrategy,2023.2.3,Win32,59.88023952,3,2,15,,,,,,,,5,16,,,,,,,,,,,2,1.447,0,,,,,,-0.090740741,-0.251851852,1,0,0,1.4467,Basalt_rect,14,0,14,0,1,
661c38568863541ccfbebd67,SCN,2024-06-24_16h52.07.836,LearnStrategy,2023.2.3,Win32,59.88023952,3,2,16,,,,,,,,4,15,,,,,,,,,,,7,9.115,0,,,,,,0.1,-0.402777778,1,0,0,9.1153,Peridotite_rect,15,0,15,0,1,
661c38568863541ccfbebd67,SCN,2024-06-24_16h52.07.836,LearnStrategy,2023.2.3,Win32,59.88023952,4,1,1,-0.084259259,0.081481481,1,0,0,12.9518,Diorite_11,3,11,4,4,12.952,-0.431481481,-0.258333333,1,0,0,18.4942,Andesite_rect,1,18.494,0,0,0,0,0,1,,,,,,,,,,,,,
661c38568863541ccfbebd67,SCN,2024-06-24_16h52.07.836,LearnStrategy,2023.2.3,Win32,59.88023952,4,1,2,0.085185185,0.092592593,1,0,0,1.8101,Gabbro_13,4,13,4,5,1.81,0.139814815,-0.258333333,1,0,0,1.5753,Diorite_rect,3,1.575,0,1,0,1,0,1,,,,,,,,,,,,,
661c38568863541ccfbebd67,SCN,2024-06-24_16h52.07.836,LearnStrategy,2023.2.3,Win32,59.88023952,4,1,3,0.235185185,0.057407407,1,0,0,1.4686,Pumice_14,8,14,4,6,1.469,0.374074074,-0.398148148,1,0,0,1.5539,Pumice_rect,8,1.554,1,2,0,2,0,1,,,,,,,,,,,,,
661c38568863541ccfbebd67,SCN,2024-06-24_16h52.07.836,LearnStrategy,2023.2.3,Win32,59.88023952,4,1,4,0.406481481,0.076851852,1,0,0,1.3881,Gabbro_16,4,16,4,7,1.388,0.434259259,-0.271296296,1,0,0,2.5153,Gabbro_rect,4,2.515,1,3,0,3,0,1,,,,,,,,,,,,,
661c38568863541ccfbebd67,SCN,2024-06-24_16h52.07.836,LearnStrategy,2023.2.3,Win32,59.88023952,4,1,5,0.568518519,0.072222222,1,0,0,1.2187,Pegmatite_05,6,05,4,8,1.219,-0.332407407,-0.260185185,1,0,0,5.308,Andesite_rect,1,5.308,0,4,0,4,0,1,,,,,,,,,,,,,
661c38568863541ccfbebd67,SCN,2024-06-24_16h52.07.836,LearnStrategy,2023.2.3,Win32,59.88023952,4,1,6,-0.575,-0.076851852,1,0,0,1.9034,Pegmatite_09,6,09,3,1,1.903,0.125925926,-0.401851852,1,0,0,7.8864,Peridotite_rect,7,7.886,0,5,0,5,0,1,,,,,,,,,,,,,
661c38568863541ccfbebd67,SCN,2024-06-24_16h52.07.836,LearnStrategy,2023.2.3,Win32,59.88023952,4,1,7,-0.413888889,-0.116666667,1,0,0,2.0062,Diorite_10,3,10,3,2,2.006,0.340740741,-0.249074074,1,0,0,2.2084,Gabbro_rect,4,2.208,0,6,0,6,0,1,,,,,,,,,,,,,
661c38568863541ccfbebd67,SCN,2024-06-24_16h52.07.836,LearnStrategy,2023.2.3,Win32,59.88023952,4,1,8,-0.225,-0.117592593,1,0,0,1.5377,Peridotite_02,7,02,3,3,1.538,0.083333333,-0.252777778,1,0,0,3.1817,Diorite_rect,3,3.182,0,7,0,7,0,1,,,,,,,,,,,,,
661c38568863541ccfbebd67,SCN,2024-06-24_16h52.07.836,LearnStrategy,2023.2.3,Win32,59.88023952,4,1,9,-0.07037037,-0.121296296,1,0,0,1.4488,Pumice_16,8,16,3,4,1.449,0.397222222,-0.42037037,1,0,0,1.6427,Pumice_rect,8,1.643,1,8,0,8,0,1,,,,,,,,,,,,,
661c38568863541ccfbebd67,SCN,2024-06-24_16h52.07.836,LearnStrategy,2023.2.3,Win32,59.88023952,4,1,10,0.076851852,-0.1,1,0,0,0.958,Basalt_04,2,04,3,5,0.958,0.392592593,-0.239814815,1,0,0,1.4216,Gabbro_rect,4,1.422,0,9,0,9,0,1,,,,,,,,,,,,,
661c38568863541ccfbebd67,SCN,2024-06-24_16h52.07.836,LearnStrategy,2023.2.3,Win32,59.88023952,4,1,11,0.231481481,-0.098148148,1,0,0,1.1879,Pumice_03,8,03,3,6,1.188,0.367592593,-0.407407407,1,0,0,1.4516,Pumice_rect,8,1.452,1,10,0,10,0,1,,,,,,,,,,,,,
661c38568863541ccfbebd67,SCN,2024-06-24_16h52.07.836,LearnStrategy,2023.2.3,Win32,59.88023952,4,1,12,0.378703704,-0.115740741,1,0,0,1.1733,Obsidian_12,5,12,3,7,1.173,-0.199074074,-0.257407407,1,0,0,3.3081,Basalt_rect,2,3.308,0,11,0,11,0,1,,,,,,,,,,,,,
661c38568863541ccfbebd67,SCN,2024-06-24_16h52.07.836,LearnStrategy,2023.2.3,Win32,59.88023952,4,1,13,0.542592593,-0.102777778,1,0,0,2.2331,Obsidian_05,5,05,3,8,2.233,-0.351851852,-0.393518519,1,0,0,7.0293,Obsidian_rect,5,7.029,1,12,0,12,0,1,,,,,,,,,,,,,
661c38568863541ccfbebd67,SCN,2024-06-24_16h52.07.836,LearnStrategy,2023.2.3,Win32,59.88023952,4,1,14,-0.565740741,-0.272222222,1,0,0,2.5662,Gabbro_03,4,03,2,1,2.566,0.393518519,-0.249074074,1,0,0,7.9778,Gabbro_rect,4,7.978,1,13,0,13,0,1,,,,,,,,,,,,,
661c38568863541ccfbebd67,SCN,2024-06-24_16h52.07.836,LearnStrategy,2023.2.3,Win32,59.88023952,4,1,15,-0.382407407,-0.268518519,1,0,0,2.3919,Obsidian_11,5,11,2,2,2.392,-0.412962963,-0.390740741,1,0,0,3.3887,Obsidian_rect,5,3.389,1,14,0,14,0,1,,,,,,,,,,,,,
661c38568863541ccfbebd67,SCN,2024-06-24_16h52.07.836,LearnStrategy,2023.2.3,Win32,59.88023952,4,1,16,-0.225925926,-0.267592593,1,0,0,1.32,Diorite_15,3,15,2,3,1.32,0.17037037,-0.255555556,1,0,0,5.8483,Diorite_rect,3,5.848,1,15,0,15,0,1,,,,,,,,,,,,,
661c38568863541ccfbebd67,SCN,2024-06-24_16h52.07.836,LearnStrategy,2023.2.3,Win32,59.88023952,4,2,1,,,,,,,,4,01,,,,,,,,,,,7,18.496,0,,,,,,0.072222222,-0.412037037,1,0,0,18.4956,Peridotite_rect,0,0,0,0,1,
661c38568863541ccfbebd67,SCN,2024-06-24_16h52.07.836,LearnStrategy,2023.2.3,Win32,59.88023952,4,2,2,,,,,,,,6,16,,,,,,,,,,,6,10.573,1,,,,,,-0.085185185,-0.383333333,1,0,0,10.5728,Pegmatite_rect,1,0,1,0,1,
661c38568863541ccfbebd67,SCN,2024-06-24_16h52.07.836,LearnStrategy,2023.2.3,Win32,59.88023952,4,2,3,,,,,,,,7,04,,,,,,,,,,,7,15.371,1,,,,,,0.108333333,-0.415740741,1,0,0,15.3707,Peridotite_rect,2,0,2,0,1,
661c38568863541ccfbebd67,SCN,2024-06-24_16h52.07.836,LearnStrategy,2023.2.3,Win32,59.88023952,4,2,4,,,,,,,,2,09,,,,,,,,,,,5,3.53,0,,,,,,-0.369444444,-0.389814815,1,0,0,3.5296,Obsidian_rect,3,0,3,0,1,
661c38568863541ccfbebd67,SCN,2024-06-24_16h52.07.836,LearnStrategy,2023.2.3,Win32,59.88023952,4,2,5,,,,,,,,8,08,,,,,,,,,,,8,2.154,1,,,,,,0.4,-0.417592593,1,0,0,2.1539,Pumice_rect,4,0,4,0,1,
661c38568863541ccfbebd67,SCN,2024-06-24_16h52.07.836,LearnStrategy,2023.2.3,Win32,59.88023952,4,2,6,,,,,,,,6,08,,,,,,,,,,,6,11.524,1,,,,,,-0.135185185,-0.399074074,1,0,0,11.5243,Pegmatite_rect,5,0,5,0,1,
661c38568863541ccfbebd67,SCN,2024-06-24_16h52.07.836,LearnStrategy,2023.2.3,Win32,59.88023952,4,2,7,,,,,,,,1,09,,,,,,,,,,,2,13.837,0,,,,,,-0.15,-0.271296296,1,0,0,13.8372,Basalt_rect,6,0,6,0,1,
661c38568863541ccfbebd67,SCN,2024-06-24_16h52.07.836,LearnStrategy,2023.2.3,Win32,59.88023952,4,2,8,,,,,,,,4,08,,,,,,,,,,,4,40.559,1,,,,,,0.356481481,-0.262962963,1,0,0,40.5586,Gabbro_rect,7,0,7,0,1,
661c38568863541ccfbebd67,SCN,2024-06-24_16h52.07.836,LearnStrategy,2023.2.3,Win32,59.88023952,4,2,9,,,,,,,,5,04,,,,,,,,,,,5,25.672,1,,,,,,-0.360185185,-0.403703704,1,0,0,25.6723,Obsidian_rect,8,0,8,0,1,
661c38568863541ccfbebd67,SCN,2024-06-24_16h52.07.836,LearnStrategy,2023.2.3,Win32,59.88023952,4,2,10,,,,,,,,3,13,,,,,,,,,,,6,6.882,0,,,,,,-0.12037037,-0.383333333,1,0,0,6.8817,Pegmatite_rect,9,0,9,0,1,
661c38568863541ccfbebd67,SCN,2024-06-24_16h52.07.836,LearnStrategy,2023.2.3,Win32,59.88023952,4,2,11,,,,,,,,3,06,,,,,,,,,,,3,6.127,1,,,,,,0.167592593,-0.248148148,1,0,0,6.1268,Diorite_rect,10,0,10,0,1,
661c38568863541ccfbebd67,SCN,2024-06-24_16h52.07.836,LearnStrategy,2023.2.3,Win32,59.88023952,4,2,12,,,,,,,,5,06,,,,,,,,,,,5,5.164,1,,,,,,-0.412037037,-0.408333333,1,0,0,5.1643,Obsidian_rect,11,0,11,0,1,
661c38568863541ccfbebd67,SCN,2024-06-24_16h52.07.836,LearnStrategy,2023.2.3,Win32,59.88023952,4,2,13,,,,,,,,8,09,,,,,,,,,,,3,6.384,0,,,,,,0.062037037,-0.263888889,1,0,0,6.3837,Diorite_rect,12,0,12,0,1,
661c38568863541ccfbebd67,SCN,2024-06-24_16h52.07.836,LearnStrategy,2023.2.3,Win32,59.88023952,4,2,14,,,,,,,,1,02,,,,,,,,,,,7,8.528,0,,,,,,0.138888889,-0.416666667,1,0,0,8.5285,Peridotite_rect,13,0,13,0,1,
661c38568863541ccfbebd67,SCN,2024-06-24_16h52.07.836,LearnStrategy,2023.2.3,Win32,59.88023952,4,2,15,,,,,,,,7,15,,,,,,,,,,,6,2.911,0,,,,,,-0.148148148,-0.389814815,1,0,0,2.911,Pegmatite_rect,14,0,14,0,1,
661c38568863541ccfbebd67,SCN,2024-06-24_16h52.07.836,LearnStrategy,2023.2.3,Win32,59.88023952,4,2,16,,,,,,,,2,02,,,,,,,,,,,4,5.607,0,,,,,,0.381481481,-0.22962963,1,0,0,5.607,Gabbro_rect,15,0,15,0,1,
661c38568863541ccfbebd67,SCN,2024-06-24_16h52.07.836,LearnStrategy,2023.2.3,Win32,59.88023952,5,1,1,-0.532407407,-0.396296296,1,0,0,2.4818,Peridotite_07,7,07,1,1,2.482,0.15,-0.248148148,1,0,0,28.7892,Diorite_rect,3,28.789,0,0,0,0,0,1,,,,,,,,,,,,,
661c38568863541ccfbebd67,SCN,2024-06-24_16h52.07.836,LearnStrategy,2023.2.3,Win32,59.88023952,5,1,2,-0.375,-0.391666667,1,0,0,1.1936,Basalt_12,2,12,1,2,1.194,0.482407407,-0.236111111,1,0,0,10.3407,Gabbro_rect,4,10.341,0,1,0,1,0,1,,,,,,,,,,,,,
661c38568863541ccfbebd67,SCN,2024-06-24_16h52.07.836,LearnStrategy,2023.2.3,Win32,59.88023952,5,1,3,-0.24537037,-0.415740741,1,0,0,1.8922,Peridotite_06,7,06,1,3,1.892,0.119444444,-0.232407407,1,0,0,4.8461,Diorite_rect,3,4.846,0,2,0,2,0,1,,,,,,,,,,,,,
661c38568863541ccfbebd67,SCN,2024-06-24_16h52.07.836,LearnStrategy,2023.2.3,Win32,59.88023952,5,1,4,-0.071296296,-0.407407407,1,0,0,1.7548,Gabbro_14,4,14,1,4,1.755,0.107407407,-0.412962963,1,0,0,5.6685,Peridotite_rect,7,5.668,0,3,0,3,0,1,,,,,,,,,,,,,
661c38568863541ccfbebd67,SCN,2024-06-24_16h52.07.836,LearnStrategy,2023.2.3,Win32,59.88023952,5,1,5,0.064814815,-0.438888889,1,0,0,1.2439,Pegmatite_07,6,07,1,5,1.244,-0.078703704,-0.411111111,1,0,0,6.635,Pegmatite_rect,6,6.635,1,4,0,4,0,1,,,,,,,,,,,,,
661c38568863541ccfbebd67,SCN,2024-06-24_16h52.07.836,LearnStrategy,2023.2.3,Win32,59.88023952,5,1,6,0.238888889,-0.406481481,1,0,0,2.0997,Peridotite_08,7,08,1,6,2.1,0.148148148,-0.4,1,0,0,13.084,Peridotite_rect,7,13.084,1,5,0,5,0,1,,,,,,,,,,,,,
661c38568863541ccfbebd67,SCN,2024-06-24_16h52.07.836,LearnStrategy,2023.2.3,Win32,59.88023952,5,1,7,0.368518519,-0.417592593,1,0,0,2.6209,Basalt_14,2,14,1,7,2.621,0.363888889,-0.248148148,1,0,0,2.3934,Gabbro_rect,4,2.393,0,6,0,6,0,1,,,,,,,,,,,,,
661c38568863541ccfbebd67,SCN,2024-06-24_16h52.07.836,LearnStrategy,2023.2.3,Win32,59.88023952,5,1,8,0.52962963,-0.397222222,1,0,0,1.7539,Obsidian_08,5,08,1,8,1.754,-0.437037037,-0.414814815,1,0,0,3.6511,Obsidian_rect,5,3.651,1,7,0,7,0,1,,,,,,,,,,,,,
661c38568863541ccfbebd67,SCN,2024-06-24_16h52.07.836,LearnStrategy,2023.2.3,Win32,59.88023952,5,1,9,-0.542592593,-0.263888889,1,0,0,2.1837,Gabbro_03,4,03,2,1,2.184,0.088888889,-0.248148148,1,0,0,5.3847,Diorite_rect,3,5.385,0,8,0,8,0,1,,,,,,,,,,,,,
661c38568863541ccfbebd67,SCN,2024-06-24_16h52.07.836,LearnStrategy,2023.2.3,Win32,59.88023952,5,1,10,0.247222222,-0.264814815,1,0,0,3.4867,Gabbro_11,4,11,2,6,3.487,-0.147222222,-0.248148148,1,0,0,4.7673,Basalt_rect,2,4.767,0,9,0,9,0,1,,,,,,,,,,,,,
661c38568863541ccfbebd67,SCN,2024-06-24_16h52.07.836,LearnStrategy,2023.2.3,Win32,59.88023952,5,1,11,0.561111111,-0.227777778,1,0,0,1.7437,Pumice_02,8,02,2,8,1.744,0.426851852,-0.386111111,1,0,0,1.6172,Pumice_rect,8,1.617,1,10,0,10,0,1,,,,,,,,,,,,,
661c38568863541ccfbebd67,SCN,2024-06-24_16h52.07.836,LearnStrategy,2023.2.3,Win32,59.88023952,5,1,12,0.528703704,-0.093518519,1,0,0,1.4347,Obsidian_05,5,05,3,8,1.435,-0.337037037,-0.25462963,1,0,0,6.2616,Andesite_rect,1,6.262,0,11,0,11,0,1,,,,,,,,,,,,,
661c38568863541ccfbebd67,SCN,2024-06-24_16h52.07.836,LearnStrategy,2023.2.3,Win32,59.88023952,5,1,13,0.567592593,0.094444444,1,0,0,2.2047,Pegmatite_05,6,05,4,8,2.205,0.371296296,-0.257407407,1,0,0,2.9968,Gabbro_rect,4,2.997,0,12,0,12,0,1,,,,,,,,,,,,,
661c38568863541ccfbebd67,SCN,2024-06-24_16h52.07.836,LearnStrategy,2023.2.3,Win32,59.88023952,5,1,14,0.389814815,0.103703704,1,0,0,1.2392,Gabbro_16,4,16,4,7,1.239,0.342592593,-0.255555556,1,0,0,7.4858,Gabbro_rect,4,7.486,1,13,0,13,0,1,,,,,,,,,,,,,
661c38568863541ccfbebd67,SCN,2024-06-24_16h52.07.836,LearnStrategy,2023.2.3,Win32,59.88023952,5,1,15,0.264814815,0.098148148,1,0,0,1.2955,Pumice_14,8,14,4,6,1.295,0.408333333,-0.410185185,1,0,0,1.3745,Pumice_rect,8,1.374,1,14,0,14,0,1,,,,,,,,,,,,,
661c38568863541ccfbebd67,SCN,2024-06-24_16h52.07.836,LearnStrategy,2023.2.3,Win32,59.88023952,5,1,16,0.130555556,0.086111111,1,0,0,1.0659,Gabbro_13,4,13,4,5,1.066,0.101851852,-0.240740741,1,0,0,7.8686,Diorite_rect,3,7.869,0,15,0,15,0,1,,,,,,,,,,,,,
661c38568863541ccfbebd67,SCN,2024-06-24_16h52.07.836,LearnStrategy,2023.2.3,Win32,59.88023952,5,2,1,,,,,,,,4,10,,,,,,,,,,,4,9.972,1,,,,,,0.351851852,-0.24537037,1,0,0,9.9716,Gabbro_rect,0,0,0,0,1,
661c38568863541ccfbebd67,SCN,2024-06-24_16h52.07.836,LearnStrategy,2023.2.3,Win32,59.88023952,5,2,2,,,,,,,,3,07,,,,,,,,,,,6,5.94,0,,,,,,-0.111111111,-0.42037037,1,0,0,5.9401,Pegmatite_rect,1,0,1,0,1,
661c38568863541ccfbebd67,SCN,2024-06-24_16h52.07.836,LearnStrategy,2023.2.3,Win32,59.88023952,5,2,3,,,,,,,,8,04,,,,,,,,,,,8,3.93,1,,,,,,0.344444444,-0.39537037,1,0,0,3.9302,Pumice_rect,2,0,2,0,1,
661c38568863541ccfbebd67,SCN,2024-06-24_16h52.07.836,LearnStrategy,2023.2.3,Win32,59.88023952,5,2,4,,,,,,,,6,11,,,,,,,,,,,3,6.355,0,,,,,,0.107407407,-0.265740741,1,0,0,6.3546,Diorite_rect,3,0,3,0,1,
661c38568863541ccfbebd67,SCN,2024-06-24_16h52.07.836,LearnStrategy,2023.2.3,Win32,59.88023952,5,2,5,,,,,,,,1,07,,,,,,,,,,,3,46.385,0,,,,,,0.107407407,-0.265740741,1,0,0,46.3851,Diorite_rect,4,0,4,0,1,
661c38568863541ccfbebd67,SCN,2024-06-24_16h52.07.836,LearnStrategy,2023.2.3,Win32,59.88023952,5,2,6,,,,,,,,5,14,,,,,,,,,,,4,10.939,0,,,,,,0.3,-0.250925926,1,0,0,10.9394,Gabbro_rect,5,0,5,0,1,
661c38568863541ccfbebd67,SCN,2024-06-24_16h52.07.836,LearnStrategy,2023.2.3,Win32,59.88023952,5,2,7,,,,,,,,8,15,,,,,,,,,,,8,2.565,1,,,,,,0.45,-0.405555556,1,0,0,2.565,Pumice_rect,6,0,6,0,1,
661c38568863541ccfbebd67,SCN,2024-06-24_16h52.07.836,LearnStrategy,2023.2.3,Win32,59.88023952,5,2,8,,,,,,,,3,08,,,,,,,,,,,6,8.499,0,,,,,,-0.119444444,-0.385185185,1,0,0,8.4995,Pegmatite_rect,7,0,7,0,1,
661c38568863541ccfbebd67,SCN,2024-06-24_16h52.07.836,LearnStrategy,2023.2.3,Win32,59.88023952,5,2,9,,,,,,,,6,10,,,,,,,,,,,1,3.903,0,,,,,,-0.337962963,-0.246296296,1,0,0,3.9032,Andesite_rect,8,0,8,0,1,
661c38568863541ccfbebd67,SCN,2024-06-24_16h52.07.836,LearnStrategy,2023.2.3,Win32,59.88023952,5,2,10,,,,,,,,2,01,,,,,,,,,,,2,17.055,1,,,,,,-0.119444444,-0.230555556,1,0,0,17.0549,Basalt_rect,9,0,9,0,1,
661c38568863541ccfbebd67,SCN,2024-06-24_16h52.07.836,LearnStrategy,2023.2.3,Win32,59.88023952,5,2,11,,,,,,,,1,14,,,,,,,,,,,2,5.223,0,,,,,,-0.09537037,-0.257407407,1,0,0,5.2226,Basalt_rect,10,0,10,0,1,
661c38568863541ccfbebd67,SCN,2024-06-24_16h52.07.836,LearnStrategy,2023.2.3,Win32,59.88023952,5,2,12,,,,,,,,7,16,,,,,,,,,,,6,6.316,0,,,,,,-0.114814815,-0.396296296,1,0,0,6.3159,Pegmatite_rect,11,0,11,0,1,
661c38568863541ccfbebd67,SCN,2024-06-24_16h52.07.836,LearnStrategy,2023.2.3,Win32,59.88023952,5,2,13,,,,,,,,2,05,,,,,,,,,,,2,11.233,1,,,,,,-0.162962963,-0.263888889,1,0,0,11.2328,Basalt_rect,12,0,12,0,1,
661c38568863541ccfbebd67,SCN,2024-06-24_16h52.07.836,LearnStrategy,2023.2.3,Win32,59.88023952,5,2,14,,,,,,,,7,13,,,,,,,,,,,7,5.954,1,,,,,,0.05462963,-0.419444444,1,0,0,5.954,Peridotite_rect,13,0,13,0,1,
661c38568863541ccfbebd67,SCN,2024-06-24_16h52.07.836,LearnStrategy,2023.2.3,Win32,59.88023952,5,2,15,,,,,,,,4,09,,,,,,,,,,,2,4.65,0,,,,,,-0.151851852,-0.232407407,1,0,0,4.6497,Basalt_rect,14,0,14,0,1,
661c38568863541ccfbebd67,SCN,2024-06-24_16h52.07.836,LearnStrategy,2023.2.3,Win32,59.88023952,5,2,16,,,,,,,,5,09,,,,,,,,,,,5,21.528,1,,,,,,-0.369444444,-0.388888889,1,0,0,21.5284,Obsidian_rect,15,0,15,0,1,
661c38568863541ccfbebd67,SCN,2024-06-24_16h52.07.836,LearnStrategy,2023.2.3,Win32,59.88023952,6,1,1,-0.546296296,-0.093518519,1,0,0,2.9194,Pegmatite_09,6,09,3,1,2.919,-0.155555556,-0.412962963,1,0,0,46.7493,Pegmatite_rect,6,46.749,1,0,0,0,0,1,,,,,,,,,,,,,
661c38568863541ccfbebd67,SCN,2024-06-24_16h52.07.836,LearnStrategy,2023.2.3,Win32,59.88023952,6,1,2,0.514814815,0.388888889,1,0,0,7.4011,Diorite_12,3,12,6,8,7.401,0.342592593,-0.267592593,1,0,0,7.1067,Gabbro_rect,4,7.107,0,1,0,1,0,1,,,,,,,,,,,,,
661c38568863541ccfbebd67,SCN,2024-06-24_16h52.07.836,LearnStrategy,2023.2.3,Win32,59.88023952,6,1,3,0.527777778,0.25462963,1,0,0,1.7807,Obsidian_02,5,02,5,8,1.781,-0.356481481,-0.260185185,1,0,0,10.8755,Andesite_rect,1,10.876,0,2,0,2,0,1,,,,,,,,,,,,,
661c38568863541ccfbebd67,SCN,2024-06-24_16h52.07.836,LearnStrategy,2023.2.3,Win32,59.88023952,6,1,4,0.531481481,0.087037037,1,0,0,2.0205,Pegmatite_05,6,05,4,8,2.021,-0.099074074,-0.399074074,1,0,0,10.1378,Pegmatite_rect,6,10.138,1,3,0,3,0,1,,,,,,,,,,,,,
661c38568863541ccfbebd67,SCN,2024-06-24_16h52.07.836,LearnStrategy,2023.2.3,Win32,59.88023952,6,1,5,0.531481481,-0.113888889,1,0,0,1.3778,Obsidian_05,5,05,3,8,1.378,-0.407407407,-0.409259259,1,0,0,16.6169,Obsidian_rect,5,16.617,1,4,0,4,0,1,,,,,,,,,,,,,
661c38568863541ccfbebd67,SCN,2024-06-24_16h52.07.836,LearnStrategy,2023.2.3,Win32,59.88023952,6,1,6,0.54537037,-0.433333333,1,0,0,3.2312,Obsidian_08,5,08,1,8,3.231,-0.348148148,-0.409259259,1,0,0,5.117,Obsidian_rect,5,5.117,1,5,0,5,0,1,,,,,,,,,,,,,
661c38568863541ccfbebd67,SCN,2024-06-24_16h52.07.836,LearnStrategy,2023.2.3,Win32,59.88023952,6,1,7,0.40462963,-0.433333333,1,0,0,1.9773,Basalt_14,2,14,1,7,1.977,-0.126851852,-0.238888889,1,0,0,27.1704,Basalt_rect,2,27.17,1,6,0,6,0,1,,,,,,,,,,,,,
661c38568863541ccfbebd67,SCN,2024-06-24_16h52.07.836,LearnStrategy,2023.2.3,Win32,59.88023952,6,1,8,0.355555556,-0.247222222,1,0,0,2.4575,Andesite_11,1,11,2,7,2.457,-0.105555556,-0.271296296,1,0,0,6.2022,Basalt_rect,2,6.202,0,7,0,7,0,1,,,,,,,,,,,,,
661c38568863541ccfbebd67,SCN,2024-06-24_16h52.07.836,LearnStrategy,2023.2.3,Win32,59.88023952,6,1,9,0.383333333,-0.134259259,1,0,0,2.0101,Obsidian_12,5,12,3,7,2.01,-0.363888889,-0.407407407,1,0,0,5.3463,Obsidian_rect,5,5.346,1,8,0,8,0,1,,,,,,,,,,,,,
661c38568863541ccfbebd67,SCN,2024-06-24_16h52.07.836,LearnStrategy,2023.2.3,Win32,59.88023952,6,1,10,0.396296296,0.131481481,1,0,0,1.8816,Gabbro_16,4,16,4,7,1.882,-0.17037037,-0.25462963,1,0,0,5.6821,Basalt_rect,2,5.682,0,9,0,9,0,1,,,,,,,,,,,,,
661c38568863541ccfbebd67,SCN,2024-06-24_16h52.07.836,LearnStrategy,2023.2.3,Win32,59.88023952,6,1,11,-0.105555556,-0.265740741,1,0,0,2.0002,Andesite_16,1,16,2,4,2,0.353703704,-0.242592593,1,0,0,1.8703,Gabbro_rect,4,1.87,0,10,0,10,0,1,,,,,,,,,,,,,
661c38568863541ccfbebd67,SCN,2024-06-24_16h52.07.836,LearnStrategy,2023.2.3,Win32,59.88023952,6,1,12,-0.214814815,-0.246296296,1,0,0,6.0767,Diorite_15,3,15,2,3,6.077,0.319444444,-0.25462963,1,0,0,5.41,Gabbro_rect,4,5.41,0,11,0,11,0,1,,,,,,,,,,,,,
661c38568863541ccfbebd67,SCN,2024-06-24_16h52.07.836,LearnStrategy,2023.2.3,Win32,59.88023952,6,1,13,-0.249074074,-0.078703704,1,0,0,1.7615,Peridotite_02,7,02,3,3,1.761,0.438888889,-0.267592593,1,0,0,1.6032,Gabbro_rect,4,1.603,0,12,0,12,0,1,,,,,,,,,,,,,
661c38568863541ccfbebd67,SCN,2024-06-24_16h52.07.836,LearnStrategy,2023.2.3,Win32,59.88023952,6,1,14,-0.076851852,0.116666667,1,0,0,1.3011,Diorite_11,3,11,4,4,1.301,0.361111111,-0.243518519,1,0,0,1.506,Gabbro_rect,4,1.506,0,13,0,13,0,1,,,,,,,,,,,,,
661c38568863541ccfbebd67,SCN,2024-06-24_16h52.07.836,LearnStrategy,2023.2.3,Win32,59.88023952,6,1,15,-0.090740741,0.284259259,1,0,0,1.1927,Andesite_06,1,06,5,4,1.193,0.200925926,-0.230555556,1,0,0,6.412,Diorite_rect,3,6.412,0,14,0,14,0,1,,,,,,,,,,,,,
661c38568863541ccfbebd67,SCN,2024-06-24_16h52.07.836,LearnStrategy,2023.2.3,Win32,59.88023952,6,1,16,-0.22037037,0.25462963,1,0,0,2.1494,Basalt_06,2,06,5,3,2.149,0.378703704,-0.249074074,1,0,0,12.1112,Gabbro_rect,4,12.111,0,15,0,15,0,1,,,,,,,,,,,,,
661c38568863541ccfbebd67,SCN,2024-06-24_16h52.07.836,LearnStrategy,2023.2.3,Win32,59.88023952,6,2,1,,,,,,,,1,03,,,,,,,,,,,2,4.014,0,,,,,,-0.155555556,-0.241666667,1,0,0,4.0141,Basalt_rect,0,0,0,0,1,
661c38568863541ccfbebd67,SCN,2024-06-24_16h52.07.836,LearnStrategy,2023.2.3,Win32,59.88023952,6,2,2,,,,,,,,7,10,,,,,,,,,,,7,22.347,1,,,,,,0.136111111,-0.406481481,1,0,0,22.3465,Peridotite_rect,1,0,1,0,1,
661c38568863541ccfbebd67,SCN,2024-06-24_16h52.07.836,LearnStrategy,2023.2.3,Win32,59.88023952,6,2,3,,,,,,,,1,10,,,,,,,,,,,2,8.888,0,,,,,,-0.175,-0.253703704,1,0,0,8.8876,Basalt_rect,2,0,2,0,1,
661c38568863541ccfbebd67,SCN,2024-06-24_16h52.07.836,LearnStrategy,2023.2.3,Win32,59.88023952,6,2,4,,,,,,,,6,12,,,,,,,,,,,6,14.885,1,,,,,,-0.107407407,-0.407407407,1,0,0,14.8846,Pegmatite_rect,3,0,3,0,1,
661c38568863541ccfbebd67,SCN,2024-06-24_16h52.07.836,LearnStrategy,2023.2.3,Win32,59.88023952,6,2,5,,,,,,,,8,06,,,,,,,,,,,8,4.463,1,,,,,,0.328703704,-0.39537037,1,0,0,4.4632,Pumice_rect,4,0,4,0,1,
661c38568863541ccfbebd67,SCN,2024-06-24_16h52.07.836,LearnStrategy,2023.2.3,Win32,59.88023952,6,2,6,,,,,,,,6,13,,,,,,,,,,,6,5.237,1,,,,,,-0.144444444,-0.397222222,1,0,0,5.2369,Pegmatite_rect,5,0,5,0,1,
661c38568863541ccfbebd67,SCN,2024-06-24_16h52.07.836,LearnStrategy,2023.2.3,Win32,59.88023952,6,2,7,,,,,,,,4,12,,,,,,,,,,,4,2.362,1,,,,,,0.436111111,-0.238888889,1,0,0,2.3623,Gabbro_rect,6,0,6,0,1,
661c38568863541ccfbebd67,SCN,2024-06-24_16h52.07.836,LearnStrategy,2023.2.3,Win32,59.88023952,6,2,8,,,,,,,,7,05,,,,,,,,,,,3,5.744,0,,,,,,0.105555556,-0.261111111,1,0,0,5.7437,Diorite_rect,7,0,7,0,1,
661c38568863541ccfbebd67,SCN,2024-06-24_16h52.07.836,LearnStrategy,2023.2.3,Win32,59.88023952,6,2,9,,,,,,,,5,10,,,,,,,,,,,5,7.368,1,,,,,,-0.452777778,-0.406481481,1,0,0,7.3683,Obsidian_rect,8,0,8,0,1,
661c38568863541ccfbebd67,SCN,2024-06-24_16h52.07.836,LearnStrategy,2023.2.3,Win32,59.88023952,6,2,10,,,,,,,,2,16,,,,,,,,,,,2,6.479,1,,,,,,-0.136111111,-0.255555556,1,0,0,6.4793,Basalt_rect,9,0,9,0,1,
661c38568863541ccfbebd67,SCN,2024-06-24_16h52.07.836,LearnStrategy,2023.2.3,Win32,59.88023952,6,2,11,,,,,,,,4,15,,,,,,,,,,,4,10.839,1,,,,,,0.45,-0.271296296,1,0,0,10.8387,Gabbro_rect,10,0,10,0,1,
661c38568863541ccfbebd67,SCN,2024-06-24_16h52.07.836,LearnStrategy,2023.2.3,Win32,59.88023952,6,2,12,,,,,,,,5,16,,,,,,,,,,,5,7.524,1,,,,,,-0.330555556,-0.418518519,1,0,0,7.5239,Obsidian_rect,11,0,11,0,1,
661c38568863541ccfbebd67,SCN,2024-06-24_16h52.07.836,LearnStrategy,2023.2.3,Win32,59.88023952,6,2,13,,,,,,,,8,10,,,,,,,,,,,8,2.238,1,,,,,,0.368518519,-0.387037037,1,0,0,2.2381,Pumice_rect,12,0,12,0,1,
661c38568863541ccfbebd67,SCN,2024-06-24_16h52.07.836,LearnStrategy,2023.2.3,Win32,59.88023952,6,2,14,,,,,,,,2,10,,,,,,,,,,,2,14.559,1,,,,,,-0.107407407,-0.249074074,1,0,0,14.5594,Basalt_rect,13,0,13,0,1,
661c38568863541ccfbebd67,SCN,2024-06-24_16h52.07.836,LearnStrategy,2023.2.3,Win32,59.88023952,6,2,15,,,,,,,,3,02,,,,,,,,,,,6,7.826,0,,,,,,-0.081481481,-0.400925926,1,0,0,7.8262,Pegmatite_rect,14,0,14,0,1,
661c38568863541ccfbebd67,SCN,2024-06-24_16h52.07.836,LearnStrategy,2023.2.3,Win32,59.88023952,6,2,16,,,,,,,,3,14,,,,,,,,,,,6,1.65,0,,,,,,-0.081481481,-0.400925926,1,0,0,1.6499,Pegmatite_rect,15,0,15,0,1,
661c38568863541ccfbebd67,SCN,2024-06-24_16h52.07.836,LearnStrategy,2023.2.3,Win32,59.88023952,7,1,1,-0.508333333,0.239814815,1,0,0,2.4764,Gabbro_05,4,05,5,1,2.476,0.127777778,-0.269444444,1,0,0,2.5568,Diorite_rect,3,2.557,0,0,0,0,0,1,,,,,,,,,,,,,
661c38568863541ccfbebd67,SCN,2024-06-24_16h52.07.836,LearnStrategy,2023.2.3,Win32,59.88023952,7,1,2,-0.37962963,0.102777778,1,0,0,1.2991,Basalt_08,2,08,4,2,1.299,-0.40462963,-0.397222222,1,0,0,3.5303,Obsidian_rect,5,3.53,0,1,0,1,0,1,,,,,,,,,,,,,
661c38568863541ccfbebd67,SCN,2024-06-24_16h52.07.836,LearnStrategy,2023.2.3,Win32,59.88023952,7,1,3,-0.548148148,-0.116666667,1,0,0,1.8984,Pegmatite_09,6,09,3,1,1.898,-0.17962963,-0.383333333,1,0,0,3.5126,Pegmatite_rect,6,3.513,1,2,0,2,0,1,,,,,,,,,,,,,
661c38568863541ccfbebd67,SCN,2024-06-24_16h52.07.836,LearnStrategy,2023.2.3,Win32,59.88023952,7,1,4,-0.242592593,-0.265740741,1,0,0,1.2988,Diorite_15,3,15,2,3,1.299,0.162962963,-0.261111111,1,0,0,6.4568,Diorite_rect,3,6.457,1,3,0,3,0,1,,,,,,,,,,,,,
661c38568863541ccfbebd67,SCN,2024-06-24_16h52.07.836,LearnStrategy,2023.2.3,Win32,59.88023952,7,1,5,-0.069444444,-0.252777778,1,0,0,1.3162,Andesite_16,1,16,2,4,1.316,-0.141666667,-0.244444444,1,0,0,5.3111,Basalt_rect,2,5.311,0,4,0,4,0,1,,,,,,,,,,,,,
661c38568863541ccfbebd67,SCN,2024-06-24_16h52.07.836,LearnStrategy,2023.2.3,Win32,59.88023952,7,1,6,0.064814815,-0.255555556,1,0,0,1.0087,Peridotite_12,7,12,2,5,1.009,0.387962963,-0.242592593,1,0,0,6.1359,Gabbro_rect,4,6.136,0,5,0,5,0,1,,,,,,,,,,,,,
661c38568863541ccfbebd67,SCN,2024-06-24_16h52.07.836,LearnStrategy,2023.2.3,Win32,59.88023952,7,1,7,-0.544444444,-0.403703704,1,0,0,4.0093,Peridotite_07,7,07,1,1,4.009,-0.45,-0.408333333,1,0,0,2.6823,Obsidian_rect,5,2.682,0,6,0,6,0,1,,,,,,,,,,,,,
661c38568863541ccfbebd67,SCN,2024-06-24_16h52.07.836,LearnStrategy,2023.2.3,Win32,59.88023952,7,1,8,0.081481481,0.391666667,1,0,0,2.811,Pumice_05,8,05,6,5,2.811,0.386111111,-0.403703704,1,0,0,1.3108,Pumice_rect,8,1.311,1,7,0,7,0,1,,,,,,,,,,,,,
661c38568863541ccfbebd67,SCN,2024-06-24_16h52.07.836,LearnStrategy,2023.2.3,Win32,59.88023952,7,1,9,0.052777778,0.253703704,1,0,0,0.8875,Peridotite_14,7,14,5,5,0.887,0.105555556,-0.230555556,1,0,0,2.8974,Diorite_rect,3,2.897,0,8,0,8,0,1,,,,,,,,,,,,,
661c38568863541ccfbebd67,SCN,2024-06-24_16h52.07.836,LearnStrategy,2023.2.3,Win32,59.88023952,7,1,10,0.062962963,0.086111111,1,0,0,0.9909,Gabbro_13,4,13,4,5,0.991,0.388888889,-0.238888889,1,0,0,2.1823,Gabbro_rect,4,2.182,1,9,0,9,0,1,,,,,,,,,,,,,
661c38568863541ccfbebd67,SCN,2024-06-24_16h52.07.836,LearnStrategy,2023.2.3,Win32,59.88023952,7,1,11,0.22037037,-0.255555556,1,0,0,2.1005,Gabbro_11,4,11,2,6,2.101,-0.115740741,-0.228703704,1,0,0,5.0935,Basalt_rect,2,5.093,0,10,0,10,0,1,,,,,,,,,,,,,
661c38568863541ccfbebd67,SCN,2024-06-24_16h52.07.836,LearnStrategy,2023.2.3,Win32,59.88023952,7,1,12,-0.205555556,-0.12037037,1,0,0,1.2934,Peridotite_02,7,02,3,3,1.293,-0.113888889,-0.40462963,1,0,0,2.9317,Pegmatite_rect,6,2.932,0,11,0,11,0,1,,,,,,,,,,,,,
661c38568863541ccfbebd67,SCN,2024-06-24_16h52.07.836,LearnStrategy,2023.2.3,Win32,59.88023952,7,1,13,-0.065740741,-0.116666667,1,0,0,1.028,Pumice_16,8,16,3,4,1.028,-0.165740741,-0.255555556,1,0,0,5.5636,Basalt_rect,2,5.564,0,12,0,12,0,1,,,,,,,,,,,,,
661c38568863541ccfbebd67,SCN,2024-06-24_16h52.07.836,LearnStrategy,2023.2.3,Win32,59.88023952,7,1,14,0.074074074,-0.265740741,1,0,0,1.4885,Peridotite_12,7,12,2,5,1.488,0.074074074,-0.265740741,1,0,0,1.8434,Diorite_rect,3,1.843,0,13,0,13,0,1,,,,,,,,,,,,,
661c38568863541ccfbebd67,SCN,2024-06-24_16h52.07.836,LearnStrategy,2023.2.3,Win32,59.88023952,7,1,15,-0.074074074,0.088888889,1,0,0,0.9115,Diorite_11,3,11,4,4,0.912,0.390740741,-0.246296296,1,0,0,1.9586,Gabbro_rect,4,1.959,0,14,0,14,0,1,,,,,,,,,,,,,
661c38568863541ccfbebd67,SCN,2024-06-24_16h52.07.836,LearnStrategy,2023.2.3,Win32,59.88023952,7,1,16,-0.389814815,0.253703704,1,0,0,2.156,Pegmatite_15,6,15,5,2,2.156,-0.147222222,-0.380555556,1,0,0,5.463,Pegmatite_rect,6,5.463,1,15,0,15,0,1,,,,,,,,,,,,,
661c38568863541ccfbebd67,SCN,2024-06-24_16h52.07.836,LearnStrategy,2023.2.3,Win32,59.88023952,7,2,1,,,,,,,,4,10,,,,,,,,,,,2,6.757,0,,,,,,-0.121296296,-0.232407407,1,0,0,6.7575,Basalt_rect,0,0,0,0,1,
661c38568863541ccfbebd67,SCN,2024-06-24_16h52.07.836,LearnStrategy,2023.2.3,Win32,59.88023952,7,2,2,,,,,,,,1,02,,,,,,,,,,,1,5.424,1,,,,,,-0.362037037,-0.264814815,1,0,0,5.424,Andesite_rect,1,0,1,0,1,
661c38568863541ccfbebd67,SCN,2024-06-24_16h52.07.836,LearnStrategy,2023.2.3,Win32,59.88023952,7,2,3,,,,,,,,5,04,,,,,,,,,,,5,3.994,1,,,,,,-0.384259259,-0.392592593,1,0,0,3.9936,Obsidian_rect,2,0,2,0,1,
661c38568863541ccfbebd67,SCN,2024-06-24_16h52.07.836,LearnStrategy,2023.2.3,Win32,59.88023952,7,2,4,,,,,,,,7,10,,,,,,,,,,,6,5.253,0,,,,,,-0.168518519,-0.419444444,1,0,0,5.2534,Pegmatite_rect,3,0,3,0,1,
661c38568863541ccfbebd67,SCN,2024-06-24_16h52.07.836,LearnStrategy,2023.2.3,Win32,59.88023952,7,2,5,,,,,,,,2,02,,,,,,,,,,,2,4.666,1,,,,,,-0.090740741,-0.256481481,1,0,0,4.666,Basalt_rect,4,0,4,0,1,
661c38568863541ccfbebd67,SCN,2024-06-24_16h52.07.836,LearnStrategy,2023.2.3,Win32,59.88023952,7,2,6,,,,,,,,8,04,,,,,,,,,,,8,1.693,1,,,,,,0.433333333,-0.406481481,1,0,0,1.6928,Pumice_rect,5,0,5,0,1,
661c38568863541ccfbebd67,SCN,2024-06-24_16h52.07.836,LearnStrategy,2023.2.3,Win32,59.88023952,7,2,7,,,,,,,,2,16,,,,,,,,,,,2,4.346,1,,,,,,-0.223148148,-0.24537037,1,0,0,4.3464,Basalt_rect,6,0,6,0,1,
661c38568863541ccfbebd67,SCN,2024-06-24_16h52.07.836,LearnStrategy,2023.2.3,Win32,59.88023952,7,2,8,,,,,,,,6,12,,,,,,,,,,,3,4.275,0,,,,,,0.101851852,-0.248148148,1,0,0,4.2747,Diorite_rect,7,0,7,0,1,
661c38568863541ccfbebd67,SCN,2024-06-24_16h52.07.836,LearnStrategy,2023.2.3,Win32,59.88023952,7,2,9,,,,,,,,8,09,,,,,,,,,,,8,1.201,1,,,,,,0.422222222,-0.392592593,1,0,0,1.2014,Pumice_rect,8,0,8,0,1,
661c38568863541ccfbebd67,SCN,2024-06-24_16h52.07.836,LearnStrategy,2023.2.3,Win32,59.88023952,7,2,10,,,,,,,,3,13,,,,,,,,,,,4,3.095,0,,,,,,0.362037037,-0.252777778,1,0,0,3.0946,Gabbro_rect,9,0,9,0,1,
661c38568863541ccfbebd67,SCN,2024-06-24_16h52.07.836,LearnStrategy,2023.2.3,Win32,59.88023952,7,2,11,,,,,,,,4,15,,,,,,,,,,,7,8.891,0,,,,,,0.126851852,-0.400925926,1,0,0,8.8915,Peridotite_rect,10,0,10,0,1,
661c38568863541ccfbebd67,SCN,2024-06-24_16h52.07.836,LearnStrategy,2023.2.3,Win32,59.88023952,7,2,12,,,,,,,,6,16,,,,,,,,,,,1,4.45,0,,,,,,-0.353703704,-0.25462963,1,0,0,4.4498,Andesite_rect,11,0,11,0,1,
661c38568863541ccfbebd67,SCN,2024-06-24_16h52.07.836,LearnStrategy,2023.2.3,Win32,59.88023952,7,2,13,,,,,,,,5,09,,,,,,,,,,,5,5.03,1,,,,,,-0.360185185,-0.400925926,1,0,0,5.0303,Obsidian_rect,12,0,12,0,1,
661c38568863541ccfbebd67,SCN,2024-06-24_16h52.07.836,LearnStrategy,2023.2.3,Win32,59.88023952,7,2,14,,,,,,,,1,10,,,,,,,,,,,2,4.721,0,,,,,,-0.160185185,-0.244444444,1,0,0,4.7205,Basalt_rect,13,0,13,0,1,
661c38568863541ccfbebd67,SCN,2024-06-24_16h52.07.836,LearnStrategy,2023.2.3,Win32,59.88023952,7,2,15,,,,,,,,3,08,,,,,,,,,,,6,6.879,0,,,,,,-0.161111111,-0.407407407,1,0,0,6.8787,Pegmatite_rect,14,0,14,0,1,
661c38568863541ccfbebd67,SCN,2024-06-24_16h52.07.836,LearnStrategy,2023.2.3,Win32,59.88023952,7,2,16,,,,,,,,7,13,,,,,,,,,,,3,2.51,0,,,,,,0.096296296,-0.260185185,1,0,0,2.5105,Diorite_rect,15,0,15,0,1,
661c38568863541ccfbebd67,SCN,2024-06-24_16h52.07.836,LearnStrategy,2023.2.3,Win32,59.88023952,8,1,1,-0.548148148,0.394444444,1,0,0,1.7286,Pegmatite_06,6,06,6,1,1.729,0.087962963,-0.239814815,1,0,0,1.9224,Diorite_rect,3,1.922,0,0,0,0,0,1,,,,,,,,,,,,,
661c38568863541ccfbebd67,SCN,2024-06-24_16h52.07.836,LearnStrategy,2023.2.3,Win32,59.88023952,8,1,2,-0.52962963,0.246296296,1,0,0,1.3492,Gabbro_05,4,05,5,1,1.349,-0.183333333,-0.252777778,1,0,0,2.65,Basalt_rect,2,2.65,0,1,0,1,0,1,,,,,,,,,,,,,
661c38568863541ccfbebd67,SCN,2024-06-24_16h52.07.836,LearnStrategy,2023.2.3,Win32,59.88023952,8,1,3,-0.582407407,0.088888889,1,0,0,1.2513,Pumice_13,8,13,4,1,1.251,0.428703704,-0.418518519,1,0,0,1.44,Pumice_rect,8,1.44,1,2,0,2,0,1,,,,,,,,,,,,,
661c38568863541ccfbebd67,SCN,2024-06-24_16h52.07.836,LearnStrategy,2023.2.3,Win32,59.88023952,8,1,4,-0.575925926,-0.09537037,1,0,0,1.8999,Pegmatite_09,6,09,3,1,1.9,0.122222222,-0.264814815,1,0,0,9.2263,Diorite_rect,3,9.226,0,3,0,3,0,1,,,,,,,,,,,,,
661c38568863541ccfbebd67,SCN,2024-06-24_16h52.07.836,LearnStrategy,2023.2.3,Win32,59.88023952,8,1,5,-0.525925926,-0.207407407,1,0,0,2.6498,Gabbro_03,4,03,2,1,2.65,0.387962963,-0.257407407,1,0,0,3.6975,Gabbro_rect,4,3.697,1,4,0,4,0,1,,,,,,,,,,,,,
661c38568863541ccfbebd67,SCN,2024-06-24_16h52.07.836,LearnStrategy,2023.2.3,Win32,59.88023952,8,1,6,-0.601851852,-0.380555556,1,0,0,2.5044,Peridotite_07,7,07,1,1,2.504,0.442592593,-0.25,1,0,0,2.8176,Gabbro_rect,4,2.818,0,5,0,5,0,1,,,,,,,,,,,,,
661c38568863541ccfbebd67,SCN,2024-06-24_16h52.07.836,LearnStrategy,2023.2.3,Win32,59.88023952,8,1,7,-0.380555556,-0.237037037,1,0,0,1.5511,Obsidian_11,5,11,2,2,1.551,-0.42037037,-0.406481481,1,0,0,1.6829,Obsidian_rect,5,1.683,1,6,0,6,0,1,,,,,,,,,,,,,
661c38568863541ccfbebd67,SCN,2024-06-24_16h52.07.836,LearnStrategy,2023.2.3,Win32,59.88023952,8,1,8,-0.230555556,-0.423148148,1,0,0,1.5574,Peridotite_06,7,06,1,3,1.557,0.101851852,-0.411111111,1,0,0,2.9972,Peridotite_rect,7,2.997,1,7,0,7,0,1,,,,,,,,,,,,,
661c38568863541ccfbebd67,SCN,2024-06-24_16h52.07.836,LearnStrategy,2023.2.3,Win32,59.88023952,8,1,9,-0.051851852,-0.40462963,1,0,0,1.1458,Gabbro_14,4,14,1,4,1.146,0.405555556,-0.230555556,1,0,0,2.6679,Gabbro_rect,4,2.668,1,8,0,8,0,1,,,,,,,,,,,,,
661c38568863541ccfbebd67,SCN,2024-06-24_16h52.07.836,LearnStrategy,2023.2.3,Win32,59.88023952,8,1,10,0.07962963,-0.403703704,1,0,0,1.103,Pegmatite_07,6,07,1,5,1.103,0.087962963,-0.396296296,1,0,0,1.1708,Peridotite_rect,7,1.171,0,9,0,9,0,1,,,,,,,,,,,,,
661c38568863541ccfbebd67,SCN,2024-06-24_16h52.07.836,LearnStrategy,2023.2.3,Win32,59.88023952,8,1,11,0.25462963,-0.425,1,0,0,0.9305,Peridotite_08,7,08,1,6,0.93,0.116666667,-0.392592593,1,0,0,1.2984,Peridotite_rect,7,1.298,1,10,0,10,0,1,,,,,,,,,,,,,
661c38568863541ccfbebd67,SCN,2024-06-24_16h52.07.836,LearnStrategy,2023.2.3,Win32,59.88023952,8,1,12,0.380555556,-0.256481481,1,0,0,1.2893,Andesite_11,1,11,2,7,1.289,-0.076851852,-0.238888889,1,0,0,2.4211,Basalt_rect,2,2.421,0,11,0,11,0,1,,,,,,,,,,,,,
661c38568863541ccfbebd67,SCN,2024-06-24_16h52.07.836,LearnStrategy,2023.2.3,Win32,59.88023952,8,1,13,-0.256481481,-0.081481481,1,0,0,1.7702,Peridotite_02,7,02,3,3,1.77,0.118518519,-0.413888889,1,0,0,2.291,Peridotite_rect,7,2.291,1,12,0,12,0,1,,,,,,,,,,,,,
661c38568863541ccfbebd67,SCN,2024-06-24_16h52.07.836,LearnStrategy,2023.2.3,Win32,59.88023952,8,1,14,-0.075925926,0.069444444,1,0,0,0.8671,Diorite_11,3,11,4,4,0.867,0.186111111,-0.398148148,1,0,0,2.4077,Peridotite_rect,7,2.408,0,13,0,13,0,1,,,,,,,,,,,,,
661c38568863541ccfbebd67,SCN,2024-06-24_16h52.07.836,LearnStrategy,2023.2.3,Win32,59.88023952,8,1,15,0.096296296,0.205555556,1,0,0,1.289,Peridotite_14,7,14,5,5,1.289,-0.117592593,-0.252777778,1,0,0,4.3612,Basalt_rect,2,4.361,0,14,0,14,0,1,,,,,,,,,,,,,
661c38568863541ccfbebd67,SCN,2024-06-24_16h52.07.836,LearnStrategy,2023.2.3,Win32,59.88023952,8,1,16,0.093518519,0.22962963,1,0,0,1.2045,Peridotite_14,7,14,5,5,1.204,0.118518519,-0.402777778,1,0,0,1.6333,Peridotite_rect,7,1.633,1,15,0,15,0,1,,,,,,,,,,,,,
661c38568863541ccfbebd67,SCN,2024-06-24_16h52.07.836,LearnStrategy,2023.2.3,Win32,59.88023952,8,2,1,,,,,,,,8,15,,,,,,,,,,,8,2.901,1,,,,,,0.405555556,-0.412962963,1,0,0,2.9011,Pumice_rect,0,0,0,0,1,
661c38568863541ccfbebd67,SCN,2024-06-24_16h52.07.836,LearnStrategy,2023.2.3,Win32,59.88023952,8,2,2,,,,,,,,2,09,,,,,,,,,,,2,4.805,1,,,,,,-0.087037037,-0.259259259,1,0,0,4.8054,Basalt_rect,1,0,1,0,1,
661c38568863541ccfbebd67,SCN,2024-06-24_16h52.07.836,LearnStrategy,2023.2.3,Win32,59.88023952,8,2,3,,,,,,,,6,13,,,,,,,,,,,4,2.942,0,,,,,,0.408333333,-0.265740741,1,0,0,2.9422,Gabbro_rect,2,0,2,0,1,
661c38568863541ccfbebd67,SCN,2024-06-24_16h52.07.836,LearnStrategy,2023.2.3,Win32,59.88023952,8,2,4,,,,,,,,4,08,,,,,,,,,,,2,5.905,0,,,,,,-0.157407407,-0.244444444,1,0,0,5.9054,Basalt_rect,3,0,3,0,1,
661c38568863541ccfbebd67,SCN,2024-06-24_16h52.07.836,LearnStrategy,2023.2.3,Win32,59.88023952,8,2,5,,,,,,,,1,14,,,,,,,,,,,2,1.316,0,,,,,,-0.155555556,-0.249074074,1,0,0,1.3157,Basalt_rect,4,0,4,0,1,
661c38568863541ccfbebd67,SCN,2024-06-24_16h52.07.836,LearnStrategy,2023.2.3,Win32,59.88023952,8,2,6,,,,,,,,1,03,,,,,,,,,,,7,2.974,0,,,,,,0.125925926,-0.406481481,1,0,0,2.9744,Peridotite_rect,5,0,5,0,1,
661c38568863541ccfbebd67,SCN,2024-06-24_16h52.07.836,LearnStrategy,2023.2.3,Win32,59.88023952,8,2,7,,,,,,,,5,10,,,,,,,,,,,5,1.82,1,,,,,,-0.465740741,-0.406481481,1,0,0,1.8201,Obsidian_rect,6,0,6,0,1,
661c38568863541ccfbebd67,SCN,2024-06-24_16h52.07.836,LearnStrategy,2023.2.3,Win32,59.88023952,8,2,8,,,,,,,,6,10,,,,,,,,,,,7,2.91,0,,,,,,0.123148148,-0.412037037,1,0,0,2.9101,Peridotite_rect,7,0,7,0,1,
661c38568863541ccfbebd67,SCN,2024-06-24_16h52.07.836,LearnStrategy,2023.2.3,Win32,59.88023952,8,2,9,,,,,,,,8,06,,,,,,,,,,,8,1.647,1,,,,,,0.341666667,-0.421296296,1,0,0,1.6468,Pumice_rect,8,0,8,0,1,
661c38568863541ccfbebd67,SCN,2024-06-24_16h52.07.836,LearnStrategy,2023.2.3,Win32,59.88023952,8,2,10,,,,,,,,4,09,,,,,,,,,,,2,3.972,0,,,,,,-0.102777778,-0.263888889,1,0,0,3.9722,Basalt_rect,9,0,9,0,1,
661c38568863541ccfbebd67,SCN,2024-06-24_16h52.07.836,LearnStrategy,2023.2.3,Win32,59.88023952,8,2,11,,,,,,,,3,07,,,,,,,,,,,6,5.872,0,,,,,,-0.108333333,-0.387962963,1,0,0,5.8724,Pegmatite_rect,10,0,10,0,1,
661c38568863541ccfbebd67,SCN,2024-06-24_16h52.07.836,LearnStrategy,2023.2.3,Win32,59.88023952,8,2,12,,,,,,,,5,16,,,,,,,,,,,5,1.84,1,,,,,,-0.335185185,-0.387962963,1,0,0,1.8402,Obsidian_rect,11,0,11,0,1,
661c38568863541ccfbebd67,SCN,2024-06-24_16h52.07.836,LearnStrategy,2023.2.3,Win32,59.88023952,8,2,13,,,,,,,,7,05,,,,,,,,,,,7,2.485,1,,,,,,0.156481481,-0.387962963,1,0,0,2.4854,Peridotite_rect,12,0,12,0,1,
661c38568863541ccfbebd67,SCN,2024-06-24_16h52.07.836,LearnStrategy,2023.2.3,Win32,59.88023952,8,2,14,,,,,,,,7,04,,,,,,,,,,,6,1.571,0,,,,,,-0.114814815,-0.390740741,1,0,0,1.5711,Pegmatite_rect,13,0,13,0,1,
661c38568863541ccfbebd67,SCN,2024-06-24_16h52.07.836,LearnStrategy,2023.2.3,Win32,59.88023952,8,2,15,,,,,,,,2,10,,,,,,,,,,,3,2.632,0,,,,,,0.166666667,-0.267592593,1,0,0,2.6324,Diorite_rect,14,0,14,0,1,
661c38568863541ccfbebd67,SCN,2024-06-24_16h52.07.836,LearnStrategy,2023.2.3,Win32,59.88023952,8,2,16,,,,,,,,3,06,,,,,,,,,,,4,3.026,0,,,,,,0.361111111,-0.257407407,1,0,0,3.0262,Gabbro_rect,15,0,15,0,1,
661c38568863541ccfbebd67,SCN,2024-06-24_16h52.07.836,LearnStrategy,2023.2.3,Win32,59.88023952,9,1,1,-0.387037037,0.102777778,1,0,0,1.6432,Basalt_08,2,08,4,2,1.643,0.394444444,-0.240740741,1,0,0,3.2124,Gabbro_rect,4,3.212,0,0,0,0,0,1,,,,,,,,,,,,,
661c38568863541ccfbebd67,SCN,2024-06-24_16h52.07.836,LearnStrategy,2023.2.3,Win32,59.88023952,9,1,2,-0.212962963,0.232407407,1,0,0,1.8349,Basalt_06,2,06,5,3,1.835,-0.168518519,-0.249074074,1,0,0,2.3274,Basalt_rect,2,2.327,1,1,0,1,0,1,,,,,,,,,,,,,
661c38568863541ccfbebd67,SCN,2024-06-24_16h52.07.836,LearnStrategy,2023.2.3,Win32,59.88023952,9,1,3,0.227777778,0.246296296,1,0,0,1.2546,Andesite_01,1,01,5,6,1.255,0.375925926,-0.233333333,1,0,0,1.6047,Gabbro_rect,4,1.605,0,2,0,2,0,1,,,,,,,,,,,,,
661c38568863541ccfbebd67,SCN,2024-06-24_16h52.07.836,LearnStrategy,2023.2.3,Win32,59.88023952,9,1,4,0.541666667,0.242592593,1,0,0,2.2343,Obsidian_02,5,02,5,8,2.234,-0.376851852,-0.413888889,1,0,0,1.6605,Obsidian_rect,5,1.66,1,3,0,3,0,1,,,,,,,,,,,,,
661c38568863541ccfbebd67,SCN,2024-06-24_16h52.07.836,LearnStrategy,2023.2.3,Win32,59.88023952,9,1,5,0.112037037,-0.294444444,1,0,0,1.8338,Peridotite_12,7,12,2,5,1.834,0.387037037,-0.243518519,1,0,0,1.7975,Gabbro_rect,4,1.797,0,4,0,4,0,1,,,,,,,,,,,,,
661c38568863541ccfbebd67,SCN,2024-06-24_16h52.07.836,LearnStrategy,2023.2.3,Win32,59.88023952,9,1,6,0.069444444,-0.400925926,1,0,0,1.2288,Pegmatite_07,6,07,1,5,1.229,0.074074074,-0.417592593,1,0,0,1.5544,Peridotite_rect,7,1.554,0,5,0,5,0,1,,,,,,,,,,,,,
661c38568863541ccfbebd67,SCN,2024-06-24_16h52.07.836,LearnStrategy,2023.2.3,Win32,59.88023952,9,1,7,-0.238888889,-0.409259259,1,0,0,1.6678,Peridotite_06,7,06,1,3,1.668,0.077777778,-0.412962963,1,0,0,1.6477,Peridotite_rect,7,1.648,1,6,0,6,0,1,,,,,,,,,,,,,
661c38568863541ccfbebd67,SCN,2024-06-24_16h52.07.836,LearnStrategy,2023.2.3,Win32,59.88023952,9,1,8,-0.258333333,-0.409259259,1,0,0,3.4118,Peridotite_06,7,06,1,3,3.412,0.075925926,-0.401851852,1,0,0,1.554,Peridotite_rect,7,1.554,1,7,0,7,0,1,,,,,,,,,,,,,
661c38568863541ccfbebd67,SCN,2024-06-24_16h52.07.836,LearnStrategy,2023.2.3,Win32,59.88023952,9,1,9,-0.119444444,0.397222222,1,0,0,2.9695,Pegmatite_03,6,03,6,4,2.97,0.131481481,-0.396296296,1,0,0,1.6902,Peridotite_rect,7,1.69,0,8,0,8,0,1,,,,,,,,,,,,,
661c38568863541ccfbebd67,SCN,2024-06-24_16h52.07.836,LearnStrategy,2023.2.3,Win32,59.88023952,9,1,10,0.528703704,0.406481481,1,0,0,2.6563,Diorite_12,3,12,6,8,2.656,0.335185185,-0.238888889,1,0,0,1.9559,Gabbro_rect,4,1.956,0,9,0,9,0,1,,,,,,,,,,,,,
661c38568863541ccfbebd67,SCN,2024-06-24_16h52.07.836,LearnStrategy,2023.2.3,Win32,59.88023952,9,1,11,-0.061111111,0.117592593,1,0,0,3.4581,Diorite_11,3,11,4,4,3.458,0.162962963,-0.411111111,1,0,0,1.1096,Peridotite_rect,7,1.11,0,10,0,10,0,1,,,,,,,,,,,,,
661c38568863541ccfbebd67,SCN,2024-06-24_16h52.07.836,LearnStrategy,2023.2.3,Win32,59.88023952,9,1,12,-0.196296296,-0.077777778,1,0,0,1.8903,Peridotite_02,7,02,3,3,1.89,0.155555556,-0.406481481,1,0,0,1.3022,Peridotite_rect,7,1.302,1,11,0,11,0,1,,,,,,,,,,,,,
661c38568863541ccfbebd67,SCN,2024-06-24_16h52.07.836,LearnStrategy,2023.2.3,Win32,59.88023952,9,1,13,-0.090740741,-0.10462963,1,0,0,1.5224,Pumice_16,8,16,3,4,1.522,0.373148148,-0.412962963,1,0,0,1.6062,Pumice_rect,8,1.606,1,12,0,12,0,1,,,,,,,,,,,,,
661c38568863541ccfbebd67,SCN,2024-06-24_16h52.07.836,LearnStrategy,2023.2.3,Win32,59.88023952,9,1,14,0.39537037,-0.103703704,1,0,0,2.2144,Obsidian_12,5,12,3,7,2.214,-0.446296296,-0.403703704,1,0,0,1.1622,Obsidian_rect,5,1.162,1,13,0,13,0,1,,,,,,,,,,,,,
661c38568863541ccfbebd67,SCN,2024-06-24_16h52.07.836,LearnStrategy,2023.2.3,Win32,59.88023952,9,1,15,-0.399074074,0.262037037,1,0,0,2.2194,Pegmatite_15,6,15,5,2,2.219,-0.125925926,-0.401851852,1,0,0,10.9105,Pegmatite_rect,6,10.91,1,14,0,14,0,1,,,,,,,,,,,,,
661c38568863541ccfbebd67,SCN,2024-06-24_16h52.07.836,LearnStrategy,2023.2.3,Win32,59.88023952,9,1,16,-0.269444444,-0.10462963,1,0,0,2.0374,Peridotite_02,7,02,3,3,2.037,0.139814815,-0.407407407,1,0,0,1.4024,Peridotite_rect,7,1.402,1,15,0,15,0,1,,,,,,,,,,,,,
661c38568863541ccfbebd67,SCN,2024-06-24_16h52.07.836,LearnStrategy,2023.2.3,Win32,59.88023952,9,2,1,,,,,,,,6,11,,,,,,,,,,,6,4.44,1,,,,,,-0.187037037,-0.39537037,1,0,0,4.4398,Pegmatite_rect,0,0,0,0,1,
661c38568863541ccfbebd67,SCN,2024-06-24_16h52.07.836,LearnStrategy,2023.2.3,Win32,59.88023952,9,2,2,,,,,,,,4,01,,,,,,,,,,,7,2.383,0,,,,,,0.087962963,-0.403703704,1,0,0,2.3828,Peridotite_rect,1,0,1,0,1,
661c38568863541ccfbebd67,SCN,2024-06-24_16h52.07.836,LearnStrategy,2023.2.3,Win32,59.88023952,9,2,3,,,,,,,,1,07,,,,,,,,,,,7,1.139,0,,,,,,0.087962963,-0.403703704,1,0,0,1.1386,Peridotite_rect,2,0,2,0,1,
661c38568863541ccfbebd67,SCN,2024-06-24_16h52.07.836,LearnStrategy,2023.2.3,Win32,59.88023952,9,2,4,,,,,,,,5,06,,,,,,,,,,,5,1.639,1,,,,,,-0.40462963,-0.390740741,1,0,0,1.6385,Obsidian_rect,3,0,3,0,1,
661c38568863541ccfbebd67,SCN,2024-06-24_16h52.07.836,LearnStrategy,2023.2.3,Win32,59.88023952,9,2,5,,,,,,,,2,05,,,,,,,,,,,2,4.544,1,,,,,,-0.064814815,-0.22962963,1,0,0,4.5436,Basalt_rect,4,0,4,0,1,
661c38568863541ccfbebd67,SCN,2024-06-24_16h52.07.836,LearnStrategy,2023.2.3,Win32,59.88023952,9,2,6,,,,,,,,3,14,,,,,,,,,,,6,5.832,0,,,,,,-0.15,-0.397222222,1,0,0,5.8316,Pegmatite_rect,5,0,5,0,1,
661c38568863541ccfbebd67,SCN,2024-06-24_16h52.07.836,LearnStrategy,2023.2.3,Win32,59.88023952,9,2,7,,,,,,,,7,16,,,,,,,,,,,7,3.406,1,,,,,,0.12962963,-0.402777778,1,0,0,3.4063,Peridotite_rect,6,0,6,0,1,
661c38568863541ccfbebd67,SCN,2024-06-24_16h52.07.836,LearnStrategy,2023.2.3,Win32,59.88023952,9,2,8,,,,,,,,4,12,,,,,,,,,,,2,3.693,0,,,,,,-0.106481481,-0.248148148,1,0,0,3.6933,Basalt_rect,7,0,7,0,1,
661c38568863541ccfbebd67,SCN,2024-06-24_16h52.07.836,LearnStrategy,2023.2.3,Win32,59.88023952,9,2,9,,,,,,,,8,10,,,,,,,,,,,8,1.513,1,,,,,,0.418518519,-0.405555556,1,0,0,1.5133,Pumice_rect,8,0,8,0,1,
661c38568863541ccfbebd67,SCN,2024-06-24_16h52.07.836,LearnStrategy,2023.2.3,Win32,59.88023952,9,2,10,,,,,,,,1,09,,,,,,,,,,,2,5.712,0,,,,,,-0.132407407,-0.252777778,1,0,0,5.7117,Basalt_rect,9,0,9,0,1,
661c38568863541ccfbebd67,SCN,2024-06-24_16h52.07.836,LearnStrategy,2023.2.3,Win32,59.88023952,9,2,11,,,,,,,,5,14,,,,,,,,,,,5,1.442,1,,,,,,-0.403703704,-0.410185185,1,0,0,1.4424,Obsidian_rect,10,0,10,0,1,
661c38568863541ccfbebd67,SCN,2024-06-24_16h52.07.836,LearnStrategy,2023.2.3,Win32,59.88023952,9,2,12,,,,,,,,7,15,,,,,,,,,,,6,2,0,,,,,,-0.138888889,-0.389814815,1,0,0,1.9999,Pegmatite_rect,11,0,11,0,1,
661c38568863541ccfbebd67,SCN,2024-06-24_16h52.07.836,LearnStrategy,2023.2.3,Win32,59.88023952,9,2,13,,,,,,,,2,01,,,,,,,,,,,2,3.984,1,,,,,,-0.107407407,-0.265740741,1,0,0,3.9838,Basalt_rect,12,0,12,0,1,
661c38568863541ccfbebd67,SCN,2024-06-24_16h52.07.836,LearnStrategy,2023.2.3,Win32,59.88023952,9,2,14,,,,,,,,3,02,,,,,,,,,,,4,2.355,0,,,,,,0.332407407,-0.255555556,1,0,0,2.3554,Gabbro_rect,13,0,13,0,1,
661c38568863541ccfbebd67,SCN,2024-06-24_16h52.07.836,LearnStrategy,2023.2.3,Win32,59.88023952,9,2,15,,,,,,,,6,08,,,,,,,,,,,6,3.451,1,,,,,,-0.165740741,-0.37962963,1,0,0,3.4506,Pegmatite_rect,14,0,14,0,1,
661c38568863541ccfbebd67,SCN,2024-06-24_16h52.07.836,LearnStrategy,2023.2.3,Win32,59.88023952,9,2,16,,,,,,,,8,08,,,,,,,,,,,8,1.568,1,,,,,,0.386111111,-0.388888889,1,0,0,1.5676,Pumice_rect,15,0,15,0,1,
661c38568863541ccfbebd67,SCN,2024-06-24_16h52.07.836,LearnStrategy,2023.2.3,Win32,59.88023952,,,,,,,,,,,,,,,,,,,,,,,,,,,,,,,,,,,,,,,,,,,0
661c38568863541ccfbebd67,SCN,2024-06-24_16h52.07.836,LearnStrategy,2023.2.3,Win32,59.88023952,,,,,,,,,,,,,,,,,,,,,,,,,,,,,,,,,,,,,,,,,,,
661c38568863541ccfbebd67,SCN,2024-06-24_16h52.07.836,LearnStrategy,2023.2.3,Win32,59.88023952,,,,,,,,,,,7,07,1,1,,,,,,,,,,,,,,,,,,,,,,,,,,,,,
661c38568863541ccfbebd67,SCN,2024-06-24_16h52.07.836,LearnStrategy,2023.2.3,Win32,59.88023952,,,,,,,,,,,2,12,1,2,,,,,,,,,,,,,,,,,,,,,,,,,,,,,
661c38568863541ccfbebd67,SCN,2024-06-24_16h52.07.836,LearnStrategy,2023.2.3,Win32,59.88023952,,,,,,,,,,,7,06,1,3,,,,,,,,,,,,,,,,,,,,,,,,,,,,,
661c38568863541ccfbebd67,SCN,2024-06-24_16h52.07.836,LearnStrategy,2023.2.3,Win32,59.88023952,,,,,,,,,,,4,14,1,4,,,,,,,,,,,,,,,,,,,,,,,,,,,,,
661c38568863541ccfbebd67,SCN,2024-06-24_16h52.07.836,LearnStrategy,2023.2.3,Win32,59.88023952,,,,,,,,,,,6,07,1,5,,,,,,,,,,,,,,,,,,,,,,,,,,,,,
661c38568863541ccfbebd67,SCN,2024-06-24_16h52.07.836,LearnStrategy,2023.2.3,Win32,59.88023952,,,,,,,,,,,7,08,1,6,,,,,,,,,,,,,,,,,,,,,,,,,,,,,
661c38568863541ccfbebd67,SCN,2024-06-24_16h52.07.836,LearnStrategy,2023.2.3,Win32,59.88023952,,,,,,,,,,,2,14,1,7,,,,,,,,,,,,,,,,,,,,,,,,,,,,,
661c38568863541ccfbebd67,SCN,2024-06-24_16h52.07.836,LearnStrategy,2023.2.3,Win32,59.88023952,,,,,,,,,,,5,08,1,8,,,,,,,,,,,,,,,,,,,,,,,,,,,,,
661c38568863541ccfbebd67,SCN,2024-06-24_16h52.07.836,LearnStrategy,2023.2.3,Win32,59.88023952,,,,,,,,,,,4,03,2,1,,,,,,,,,,,,,,,,,,,,,,,,,,,,,
661c38568863541ccfbebd67,SCN,2024-06-24_16h52.07.836,LearnStrategy,2023.2.3,Win32,59.88023952,,,,,,,,,,,5,11,2,2,,,,,,,,,,,,,,,,,,,,,,,,,,,,,
661c38568863541ccfbebd67,SCN,2024-06-24_16h52.07.836,LearnStrategy,2023.2.3,Win32,59.88023952,,,,,,,,,,,3,15,2,3,,,,,,,,,,,,,,,,,,,,,,,,,,,,,
661c38568863541ccfbebd67,SCN,2024-06-24_16h52.07.836,LearnStrategy,2023.2.3,Win32,59.88023952,,,,,,,,,,,1,16,2,4,,,,,,,,,,,,,,,,,,,,,,,,,,,,,
661c38568863541ccfbebd67,SCN,2024-06-24_16h52.07.836,LearnStrategy,2023.2.3,Win32,59.88023952,,,,,,,,,,,7,12,2,5,,,,,,,,,,,,,,,,,,,,,,,,,,,,,
661c38568863541ccfbebd67,SCN,2024-06-24_16h52.07.836,LearnStrategy,2023.2.3,Win32,59.88023952,,,,,,,,,,,4,11,2,6,,,,,,,,,,,,,,,,,,,,,,,,,,,,,
661c38568863541ccfbebd67,SCN,2024-06-24_16h52.07.836,LearnStrategy,2023.2.3,Win32,59.88023952,,,,,,,,,,,1,11,2,7,,,,,,,,,,,,,,,,,,,,,,,,,,,,,
661c38568863541ccfbebd67,SCN,2024-06-24_16h52.07.836,LearnStrategy,2023.2.3,Win32,59.88023952,,,,,,,,,,,8,02,2,8,,,,,,,,,,,,,,,,,,,,,,,,,,,,,
661c38568863541ccfbebd67,SCN,2024-06-24_16h52.07.836,LearnStrategy,2023.2.3,Win32,59.88023952,,,,,,,,,,,6,09,3,1,,,,,,,,,,,,,,,,,,,,,,,,,,,,,
661c38568863541ccfbebd67,SCN,2024-06-24_16h52.07.836,LearnStrategy,2023.2.3,Win32,59.88023952,,,,,,,,,,,3,10,3,2,,,,,,,,,,,,,,,,,,,,,,,,,,,,,
661c38568863541ccfbebd67,SCN,2024-06-24_16h52.07.836,LearnStrategy,2023.2.3,Win32,59.88023952,,,,,,,,,,,7,02,3,3,,,,,,,,,,,,,,,,,,,,,,,,,,,,,
661c38568863541ccfbebd67,SCN,2024-06-24_16h52.07.836,LearnStrategy,2023.2.3,Win32,59.88023952,,,,,,,,,,,8,16,3,4,,,,,,,,,,,,,,,,,,,,,,,,,,,,,
661c38568863541ccfbebd67,SCN,2024-06-24_16h52.07.836,LearnStrategy,2023.2.3,Win32,59.88023952,,,,,,,,,,,2,04,3,5,,,,,,,,,,,,,,,,,,,,,,,,,,,,,
661c38568863541ccfbebd67,SCN,2024-06-24_16h52.07.836,LearnStrategy,2023.2.3,Win32,59.88023952,,,,,,,,,,,8,03,3,6,,,,,,,,,,,,,,,,,,,,,,,,,,,,,
661c38568863541ccfbebd67,SCN,2024-06-24_16h52.07.836,LearnStrategy,2023.2.3,Win32,59.88023952,,,,,,,,,,,5,12,3,7,,,,,,,,,,,,,,,,,,,,,,,,,,,,,
661c38568863541ccfbebd67,SCN,2024-06-24_16h52.07.836,LearnStrategy,2023.2.3,Win32,59.88023952,,,,,,,,,,,5,05,3,8,,,,,,,,,,,,,,,,,,,,,,,,,,,,,
661c38568863541ccfbebd67,SCN,2024-06-24_16h52.07.836,LearnStrategy,2023.2.3,Win32,59.88023952,,,,,,,,,,,8,13,4,1,,,,,,,,,,,,,,,,,,,,,,,,,,,,,
661c38568863541ccfbebd67,SCN,2024-06-24_16h52.07.836,LearnStrategy,2023.2.3,Win32,59.88023952,,,,,,,,,,,2,08,4,2,,,,,,,,,,,,,,,,,,,,,,,,,,,,,
661c38568863541ccfbebd67,SCN,2024-06-24_16h52.07.836,LearnStrategy,2023.2.3,Win32,59.88023952,,,,,,,,,,,1,04,4,3,,,,,,,,,,,,,,,,,,,,,,,,,,,,,
661c38568863541ccfbebd67,SCN,2024-06-24_16h52.07.836,LearnStrategy,2023.2.3,Win32,59.88023952,,,,,,,,,,,3,11,4,4,,,,,,,,,,,,,,,,,,,,,,,,,,,,,
661c38568863541ccfbebd67,SCN,2024-06-24_16h52.07.836,LearnStrategy,2023.2.3,Win32,59.88023952,,,,,,,,,,,4,13,4,5,,,,,,,,,,,,,,,,,,,,,,,,,,,,,
661c38568863541ccfbebd67,SCN,2024-06-24_16h52.07.836,LearnStrategy,2023.2.3,Win32,59.88023952,,,,,,,,,,,8,14,4,6,,,,,,,,,,,,,,,,,,,,,,,,,,,,,
661c38568863541ccfbebd67,SCN,2024-06-24_16h52.07.836,LearnStrategy,2023.2.3,Win32,59.88023952,,,,,,,,,,,4,16,4,7,,,,,,,,,,,,,,,,,,,,,,,,,,,,,
661c38568863541ccfbebd67,SCN,2024-06-24_16h52.07.836,LearnStrategy,2023.2.3,Win32,59.88023952,,,,,,,,,,,6,05,4,8,,,,,,,,,,,,,,,,,,,,,,,,,,,,,
661c38568863541ccfbebd67,SCN,2024-06-24_16h52.07.836,LearnStrategy,2023.2.3,Win32,59.88023952,,,,,,,,,,,4,05,5,1,,,,,,,,,,,,,,,,,,,,,,,,,,,,,
661c38568863541ccfbebd67,SCN,2024-06-24_16h52.07.836,LearnStrategy,2023.2.3,Win32,59.88023952,,,,,,,,,,,6,15,5,2,,,,,,,,,,,,,,,,,,,,,,,,,,,,,
661c38568863541ccfbebd67,SCN,2024-06-24_16h52.07.836,LearnStrategy,2023.2.3,Win32,59.88023952,,,,,,,,,,,2,06,5,3,,,,,,,,,,,,,,,,,,,,,,,,,,,,,
661c38568863541ccfbebd67,SCN,2024-06-24_16h52.07.836,LearnStrategy,2023.2.3,Win32,59.88023952,,,,,,,,,,,1,06,5,4,,,,,,,,,,,,,,,,,,,,,,,,,,,,,
661c38568863541ccfbebd67,SCN,2024-06-24_16h52.07.836,LearnStrategy,2023.2.3,Win32,59.88023952,,,,,,,,,,,7,14,5,5,,,,,,,,,,,,,,,,,,,,,,,,,,,,,
661c38568863541ccfbebd67,SCN,2024-06-24_16h52.07.836,LearnStrategy,2023.2.3,Win32,59.88023952,,,,,,,,,,,1,01,5,6,,,,,,,,,,,,,,,,,,,,,,,,,,,,,
661c38568863541ccfbebd67,SCN,2024-06-24_16h52.07.836,LearnStrategy,2023.2.3,Win32,59.88023952,,,,,,,,,,,1,05,5,7,,,,,,,,,,,,,,,,,,,,,,,,,,,,,
661c38568863541ccfbebd67,SCN,2024-06-24_16h52.07.836,LearnStrategy,2023.2.3,Win32,59.88023952,,,,,,,,,,,5,02,5,8,,,,,,,,,,,,,,,,,,,,,,,,,,,,,
661c38568863541ccfbebd67,SCN,2024-06-24_16h52.07.836,LearnStrategy,2023.2.3,Win32,59.88023952,,,,,,,,,,,6,06,6,1,,,,,,,,,,,,,,,,,,,,,,,,,,,,,
661c38568863541ccfbebd67,SCN,2024-06-24_16h52.07.836,LearnStrategy,2023.2.3,Win32,59.88023952,,,,,,,,,,,3,09,6,2,,,,,,,,,,,,,,,,,,,,,,,,,,,,,
661c38568863541ccfbebd67,SCN,2024-06-24_16h52.07.836,LearnStrategy,2023.2.3,Win32,59.88023952,,,,,,,,,,,5,07,6,3,,,,,,,,,,,,,,,,,,,,,,,,,,,,,
661c38568863541ccfbebd67,SCN,2024-06-24_16h52.07.836,LearnStrategy,2023.2.3,Win32,59.88023952,,,,,,,,,,,6,03,6,4,,,,,,,,,,,,,,,,,,,,,,,,,,,,,
661c38568863541ccfbebd67,SCN,2024-06-24_16h52.07.836,LearnStrategy,2023.2.3,Win32,59.88023952,,,,,,,,,,,8,05,6,5,,,,,,,,,,,,,,,,,,,,,,,,,,,,,
661c38568863541ccfbebd67,SCN,2024-06-24_16h52.07.836,LearnStrategy,2023.2.3,Win32,59.88023952,,,,,,,,,,,2,11,6,6,,,,,,,,,,,,,,,,,,,,,,,,,,,,,
661c38568863541ccfbebd67,SCN,2024-06-24_16h52.07.836,LearnStrategy,2023.2.3,Win32,59.88023952,,,,,,,,,,,3,16,6,7,,,,,,,,,,,,,,,,,,,,,,,,,,,,,
661c38568863541ccfbebd67,SCN,2024-06-24_16h52.07.836,LearnStrategy,2023.2.3,Win32,59.88023952,,,,,,,,,,,3,12,6,8,,,,,,,,,,,,,,,,,,,,,,,,,,,,,