participant,condition,date,expName,psychopyVersion,OS,frameRate,block,phase,trial,learn_mouse_2.x,learn_mouse_2.y,learn_mouse_2.leftButton,learn_mouse_2.midButton,learn_mouse_2.rightButton,learn_mouse_2.time,learn_mouse_2.clicked_name,cat,token,row,col,t_select,cat_mouse_l.x,cat_mouse_l.y,cat_mouse_l.leftButton,cat_mouse_l.midButton,cat_mouse_l.rightButton,cat_mouse_l.time,cat_mouse_l.clicked_name,resp,t_resp,corr,train_trials.thisRepN,train_trials.thisTrialN,train_trials.thisN,train_trials.thisIndex,train_trials.ran,cat_mouse_t.x,cat_mouse_t.y,cat_mouse_t.leftButton,cat_mouse_t.midButton,cat_mouse_t.rightButton,cat_mouse_t.time,cat_mouse_t.clicked_name,test_trials.thisRepN,test_trials.thisTrialN,test_trials.thisN,test_trials.thisIndex,test_trials.ran,Bonus
6625ac4d6f5a636552f8adf0,TCN,2024-06-25_14h55.30.434,LearnStrategy,2023.2.3,Win32,59.88023952,,,,,,,,,,,,,,,,,,,,,,,,,,,,,,,,,,,,,,,,,,,
6625ac4d6f5a636552f8adf0,TCN,2024-06-25_14h55.30.434,LearnStrategy,2023.2.3,Win32,59.88023952,1,1,1,0.013333333,-0.011111111,1,0,0,2.1025,rock_grid_rect_2,1,07,-1,-1,2.102,-0.12,-0.256666667,1,0,0,7.4584,Basalt_rect,2,7.458,0,0,0,0,0,1,,,,,,,,,,,,,
6625ac4d6f5a636552f8adf0,TCN,2024-06-25_14h55.30.434,LearnStrategy,2023.2.3,Win32,59.88023952,1,1,2,0.036666667,0.003333333,1,0,0,1.5124,rock_grid_rect_2,3,06,-1,-1,1.512,0.175555556,-0.235555556,1,0,0,6.9415,Diorite_rect,3,6.941,1,1,0,1,0,1,,,,,,,,,,,,,
6625ac4d6f5a636552f8adf0,TCN,2024-06-25_14h55.30.434,LearnStrategy,2023.2.3,Win32,59.88023952,1,1,3,-0.01,-0.005555556,1,0,0,1.3133,rock_grid_rect_2,7,05,-1,-1,1.313,0.38,-0.257777778,1,0,0,4.1259,Gabbro_rect,4,4.126,0,2,0,2,0,1,,,,,,,,,,,,,
6625ac4d6f5a636552f8adf0,TCN,2024-06-25_14h55.30.434,LearnStrategy,2023.2.3,Win32,59.88023952,1,1,4,0.007777778,-0.017777778,1,0,0,1.3965,rock_grid_rect_2,3,16,-1,-1,1.397,0.406666667,-0.236666667,1,0,0,3.4457,Gabbro_rect,4,3.446,0,3,0,3,0,1,,,,,,,,,,,,,
6625ac4d6f5a636552f8adf0,TCN,2024-06-25_14h55.30.434,LearnStrategy,2023.2.3,Win32,59.88023952,1,1,5,0.023333333,0.006666667,1,0,0,1.974,rock_grid_rect_2,2,08,-1,-1,1.974,-0.114444444,-0.271111111,1,0,0,5.8352,Basalt_rect,2,5.835,1,4,0,4,0,1,,,,,,,,,,,,,
6625ac4d6f5a636552f8adf0,TCN,2024-06-25_14h55.30.434,LearnStrategy,2023.2.3,Win32,59.88023952,1,1,6,-0.053333333,0.005555556,1,0,0,1.4034,rock_grid_rect_2,4,11,-1,-1,1.403,0.382222222,-0.392222222,1,0,0,3.0195,Pumice_rect,8,3.019,0,5,0,5,0,1,,,,,,,,,,,,,
6625ac4d6f5a636552f8adf0,TCN,2024-06-25_14h55.30.434,LearnStrategy,2023.2.3,Win32,59.88023952,1,1,7,-0.042222222,0.015555556,1,0,0,1.0788,rock_grid_rect_2,8,06,-1,-1,1.079,0.351111111,-0.406666667,1,0,0,1.9086,Pumice_rect,8,1.909,1,6,0,6,0,1,,,,,,,,,,,,,
6625ac4d6f5a636552f8adf0,TCN,2024-06-25_14h55.30.434,LearnStrategy,2023.2.3,Win32,59.88023952,1,1,8,-0.045555556,0.001111111,1,0,0,1.364,rock_grid_rect_2,6,15,-1,-1,1.364,-0.207777778,-0.391111111,1,0,0,5.3603,Pegmatite_rect,6,5.36,1,7,0,7,0,1,,,,,,,,,,,,,
6625ac4d6f5a636552f8adf0,TCN,2024-06-25_14h55.30.434,LearnStrategy,2023.2.3,Win32,59.88023952,1,1,9,-0.063333333,0.008888889,1,0,0,3.5125,rock_grid_rect_2,6,08,-1,-1,3.512,-0.062222222,-0.382222222,1,0,0,4.4421,Pegmatite_rect,6,4.442,1,8,0,8,0,1,,,,,,,,,,,,,
6625ac4d6f5a636552f8adf0,TCN,2024-06-25_14h55.30.434,LearnStrategy,2023.2.3,Win32,59.88023952,1,1,10,0.04,0.004444444,1,0,0,1.9469,rock_grid_rect_2,1,06,-1,-1,1.947,0.12,-0.38,1,0,0,3.4587,Peridotite_rect,7,3.459,0,9,0,9,0,1,,,,,,,,,,,,,
6625ac4d6f5a636552f8adf0,TCN,2024-06-25_14h55.30.434,LearnStrategy,2023.2.3,Win32,59.88023952,1,1,11,-0.017777778,0.005555556,1,0,0,1.2466,rock_grid_rect_2,2,01,-1,-1,1.247,-0.138888889,-0.242222222,1,0,0,1.3606,Basalt_rect,2,1.361,1,10,0,10,0,1,,,,,,,,,,,,,
6625ac4d6f5a636552f8adf0,TCN,2024-06-25_14h55.30.434,LearnStrategy,2023.2.3,Win32,59.88023952,1,1,12,0.002222222,-0.002222222,1,0,0,2.2464,rock_grid_rect_2,5,09,-1,-1,2.246,-0.414444444,-0.4,1,0,0,2.844,Obsidian_rect,5,2.844,1,11,0,11,0,1,,,,,,,,,,,,,
6625ac4d6f5a636552f8adf0,TCN,2024-06-25_14h55.30.434,LearnStrategy,2023.2.3,Win32,59.88023952,1,1,13,0.016666667,0.007777778,1,0,0,1.3638,rock_grid_rect_2,7,07,-1,-1,1.364,-0.422222222,-0.261111111,1,0,0,3.891,Andesite_rect,1,3.891,0,12,0,12,0,1,,,,,,,,,,,,,
6625ac4d6f5a636552f8adf0,TCN,2024-06-25_14h55.30.434,LearnStrategy,2023.2.3,Win32,59.88023952,1,1,14,0.101111111,0.01,1,0,0,1.3286,rock_grid_rect_2,8,13,-1,-1,1.329,0.364444444,-0.381111111,1,0,0,4.0764,Pumice_rect,8,4.076,1,13,0,13,0,1,,,,,,,,,,,,,
6625ac4d6f5a636552f8adf0,TCN,2024-06-25_14h55.30.434,LearnStrategy,2023.2.3,Win32,59.88023952,1,1,15,-0.038888889,-0.006666667,1,0,0,1.6287,rock_grid_rect_2,5,14,-1,-1,1.629,-0.412222222,-0.421111111,1,0,0,3.5099,Obsidian_rect,5,3.51,1,14,0,14,0,1,,,,,,,,,,,,,
6625ac4d6f5a636552f8adf0,TCN,2024-06-25_14h55.30.434,LearnStrategy,2023.2.3,Win32,59.88023952,1,1,16,0.02,-0.005555556,1,0,0,1.3453,rock_grid_rect_2,4,03,-1,-1,1.345,0.067777778,-0.24,1,0,0,3.6918,Diorite_rect,3,3.692,0,15,0,15,0,1,,,,,,,,,,,,,
6625ac4d6f5a636552f8adf0,TCN,2024-06-25_14h55.30.434,LearnStrategy,2023.2.3,Win32,59.88023952,1,2,1,,,,,,,,1,02,,,,,,,,,,,4,4.258,0,,,,,,0.311111111,-0.268888889,1,0,0,4.2584,Gabbro_rect,0,0,0,0,1,
6625ac4d6f5a636552f8adf0,TCN,2024-06-25_14h55.30.434,LearnStrategy,2023.2.3,Win32,59.88023952,1,2,2,,,,,,,,3,15,,,,,,,,,,,3,5.008,1,,,,,,0.127777778,-0.254444444,1,0,0,5.0076,Diorite_rect,1,0,1,0,1,
6625ac4d6f5a636552f8adf0,TCN,2024-06-25_14h55.30.434,LearnStrategy,2023.2.3,Win32,59.88023952,1,2,3,,,,,,,,4,14,,,,,,,,,,,1,8.08,0,,,,,,-0.458888889,-0.237777778,1,0,0,8.0798,Andesite_rect,2,0,2,0,1,
6625ac4d6f5a636552f8adf0,TCN,2024-06-25_14h55.30.434,LearnStrategy,2023.2.3,Win32,59.88023952,1,2,4,,,,,,,,7,13,,,,,,,,,,,2,5.269,0,,,,,,-0.166666667,-0.245555556,1,0,0,5.2689,Basalt_rect,3,0,3,0,1,
6625ac4d6f5a636552f8adf0,TCN,2024-06-25_14h55.30.434,LearnStrategy,2023.2.3,Win32,59.88023952,1,2,5,,,,,,,,7,15,,,,,,,,,,,6,2.123,0,,,,,,-0.116666667,-0.39,1,0,0,2.1229,Pegmatite_rect,4,0,4,0,1,
6625ac4d6f5a636552f8adf0,TCN,2024-06-25_14h55.30.434,LearnStrategy,2023.2.3,Win32,59.88023952,1,2,6,,,,,,,,1,05,,,,,,,,,,,6,5.557,0,,,,,,-0.071111111,-0.385555556,1,0,0,5.5566,Pegmatite_rect,5,0,5,0,1,
6625ac4d6f5a636552f8adf0,TCN,2024-06-25_14h55.30.434,LearnStrategy,2023.2.3,Win32,59.88023952,1,2,7,,,,,,,,6,07,,,,,,,,,,,6,2.557,1,,,,,,-0.075555556,-0.385555556,1,0,0,2.5571,Pegmatite_rect,6,0,6,0,1,
6625ac4d6f5a636552f8adf0,TCN,2024-06-25_14h55.30.434,LearnStrategy,2023.2.3,Win32,59.88023952,1,2,8,,,,,,,,6,05,,,,,,,,,,,6,0.808,1,,,,,,-0.075555556,-0.385555556,1,0,0,0.8078,Pegmatite_rect,7,0,7,0,1,
6625ac4d6f5a636552f8adf0,TCN,2024-06-25_14h55.30.434,LearnStrategy,2023.2.3,Win32,59.88023952,1,2,9,,,,,,,,2,02,,,,,,,,,,,2,1.249,1,,,,,,-0.165555556,-0.257777778,1,0,0,1.2491,Basalt_rect,8,0,8,0,1,
6625ac4d6f5a636552f8adf0,TCN,2024-06-25_14h55.30.434,LearnStrategy,2023.2.3,Win32,59.88023952,1,2,10,,,,,,,,8,09,,,,,,,,,,,8,1.457,1,,,,,,0.4,-0.398888889,1,0,0,1.4571,Pumice_rect,9,0,9,0,1,
6625ac4d6f5a636552f8adf0,TCN,2024-06-25_14h55.30.434,LearnStrategy,2023.2.3,Win32,59.88023952,1,2,11,,,,,,,,5,16,,,,,,,,,,,5,1.342,1,,,,,,-0.385555556,-0.412222222,1,0,0,1.3419,Obsidian_rect,10,0,10,0,1,
6625ac4d6f5a636552f8adf0,TCN,2024-06-25_14h55.30.434,LearnStrategy,2023.2.3,Win32,59.88023952,1,2,12,,,,,,,,8,04,,,,,,,,,,,8,1.425,1,,,,,,0.445555556,-0.393333333,1,0,0,1.4254,Pumice_rect,11,0,11,0,1,
6625ac4d6f5a636552f8adf0,TCN,2024-06-25_14h55.30.434,LearnStrategy,2023.2.3,Win32,59.88023952,1,2,13,,,,,,,,4,09,,,,,,,,,,,2,6.39,0,,,,,,-0.196666667,-0.262222222,1,0,0,6.3904,Basalt_rect,12,0,12,0,1,
6625ac4d6f5a636552f8adf0,TCN,2024-06-25_14h55.30.434,LearnStrategy,2023.2.3,Win32,59.88023952,1,2,14,,,,,,,,5,10,,,,,,,,,,,5,1.289,1,,,,,,-0.361111111,-0.387777778,1,0,0,1.2891,Obsidian_rect,13,0,13,0,1,
6625ac4d6f5a636552f8adf0,TCN,2024-06-25_14h55.30.434,LearnStrategy,2023.2.3,Win32,59.88023952,1,2,15,,,,,,,,3,12,,,,,,,,,,,1,2.323,0,,,,,,-0.392222222,-0.265555556,1,0,0,2.3229,Andesite_rect,14,0,14,0,1,
6625ac4d6f5a636552f8adf0,TCN,2024-06-25_14h55.30.434,LearnStrategy,2023.2.3,Win32,59.88023952,1,2,16,,,,,,,,2,06,,,,,,,,,,,2,1.657,1,,,,,,-0.195555556,-0.262222222,1,0,0,1.6568,Basalt_rect,15,0,15,0,1,
6625ac4d6f5a636552f8adf0,TCN,2024-06-25_14h55.30.434,LearnStrategy,2023.2.3,Win32,59.88023952,2,1,1,-0.011111111,0.012222222,1,0,0,7.3148,rock_grid_rect_2,1,11,-1,-1,7.315,0.16,-0.397777778,1,0,0,8.6258,Peridotite_rect,7,8.626,0,0,0,0,0,1,,,,,,,,,,,,,
6625ac4d6f5a636552f8adf0,TCN,2024-06-25_14h55.30.434,LearnStrategy,2023.2.3,Win32,59.88023952,2,1,2,0.03,0.006666667,1,0,0,1.3963,rock_grid_rect_2,6,16,-1,-1,1.396,-0.193333333,-0.396666667,1,0,0,4.633,Pegmatite_rect,6,4.633,1,1,0,1,0,1,,,,,,,,,,,,,
6625ac4d6f5a636552f8adf0,TCN,2024-06-25_14h55.30.434,LearnStrategy,2023.2.3,Win32,59.88023952,2,1,3,-0.053333333,0.011111111,1,0,0,1.2538,rock_grid_rect_2,5,07,-1,-1,1.254,-0.363333333,-0.381111111,1,0,0,1.5365,Obsidian_rect,5,1.536,1,2,0,2,0,1,,,,,,,,,,,,,
6625ac4d6f5a636552f8adf0,TCN,2024-06-25_14h55.30.434,LearnStrategy,2023.2.3,Win32,59.88023952,2,1,4,-0.08,-0.012222222,1,0,0,1.0309,rock_grid_rect_2,2,11,-1,-1,1.031,0.394444444,-0.405555556,1,0,0,1.6765,Pumice_rect,8,1.677,0,3,0,3,0,1,,,,,,,,,,,,,
6625ac4d6f5a636552f8adf0,TCN,2024-06-25_14h55.30.434,LearnStrategy,2023.2.3,Win32,59.88023952,2,1,5,-0.01,0.001111111,1,0,0,1.4132,rock_grid_rect_2,3,07,-1,-1,1.413,0.117777778,-0.263333333,1,0,0,2.1608,Diorite_rect,3,2.161,1,4,0,4,0,1,,,,,,,,,,,,,
6625ac4d6f5a636552f8adf0,TCN,2024-06-25_14h55.30.434,LearnStrategy,2023.2.3,Win32,59.88023952,2,1,6,0.03,0.002222222,1,0,0,1.3312,rock_grid_rect_2,2,14,-1,-1,1.331,0.331111111,-0.397777778,1,0,0,3.3604,Pumice_rect,8,3.36,0,5,0,5,0,1,,,,,,,,,,,,,
6625ac4d6f5a636552f8adf0,TCN,2024-06-25_14h55.30.434,LearnStrategy,2023.2.3,Win32,59.88023952,2,1,7,0.036666667,0.005555556,1,0,0,1.5631,rock_grid_rect_2,4,13,-1,-1,1.563,0.378888889,-0.25,1,0,0,4.5935,Gabbro_rect,4,4.593,1,6,0,6,0,1,,,,,,,,,,,,,
6625ac4d6f5a636552f8adf0,TCN,2024-06-25_14h55.30.434,LearnStrategy,2023.2.3,Win32,59.88023952,2,1,8,0.008888889,0.008888889,1,0,0,1.1631,rock_grid_rect_2,7,10,-1,-1,1.163,0.091111111,-0.266666667,1,0,0,4.7888,Diorite_rect,3,4.789,0,7,0,7,0,1,,,,,,,,,,,,,
6625ac4d6f5a636552f8adf0,TCN,2024-06-25_14h55.30.434,LearnStrategy,2023.2.3,Win32,59.88023952,2,1,9,-0.02,0.004444444,1,0,0,1.03,rock_grid_rect_2,3,10,-1,-1,1.03,-0.375555556,-0.253333333,1,0,0,4.4076,Andesite_rect,1,4.408,0,8,0,8,0,1,,,,,,,,,,,,,
6625ac4d6f5a636552f8adf0,TCN,2024-06-25_14h55.30.434,LearnStrategy,2023.2.3,Win32,59.88023952,2,1,10,0.02,-0.018888889,1,0,0,1.1134,rock_grid_rect_2,7,16,-1,-1,1.113,0.118888889,-0.395555556,1,0,0,2.7938,Peridotite_rect,7,2.794,1,9,0,9,0,1,,,,,,,,,,,,,
6625ac4d6f5a636552f8adf0,TCN,2024-06-25_14h55.30.434,LearnStrategy,2023.2.3,Win32,59.88023952,2,1,11,-0.011111111,0.01,1,0,0,0.9965,rock_grid_rect_2,8,16,-1,-1,0.996,0.386666667,-0.39,1,0,0,1.3429,Pumice_rect,8,1.343,1,10,0,10,0,1,,,,,,,,,,,,,
6625ac4d6f5a636552f8adf0,TCN,2024-06-25_14h55.30.434,LearnStrategy,2023.2.3,Win32,59.88023952,2,1,12,0.017777778,-0.016666667,1,0,0,1.1816,rock_grid_rect_2,5,04,-1,-1,1.182,-0.38,-0.391111111,1,0,0,1.4186,Obsidian_rect,5,1.419,1,11,0,11,0,1,,,,,,,,,,,,,
6625ac4d6f5a636552f8adf0,TCN,2024-06-25_14h55.30.434,LearnStrategy,2023.2.3,Win32,59.88023952,2,1,13,0.053333333,-0.003333333,1,0,0,3.5196,rock_grid_rect_2,6,09,-1,-1,3.52,-0.08,-0.401111111,1,0,0,2.0712,Pegmatite_rect,6,2.071,1,12,0,12,0,1,,,,,,,,,,,,,
6625ac4d6f5a636552f8adf0,TCN,2024-06-25_14h55.30.434,LearnStrategy,2023.2.3,Win32,59.88023952,2,1,14,0.001111111,0.001111111,1,0,0,7.0403,rock_grid_rect_2,4,16,-1,-1,7.04,-0.325555556,-0.271111111,1,0,0,2.6591,Andesite_rect,1,2.659,0,13,0,13,0,1,,,,,,,,,,,,,
6625ac4d6f5a636552f8adf0,TCN,2024-06-25_14h55.30.434,LearnStrategy,2023.2.3,Win32,59.88023952,2,1,15,-0.074444444,-0.02,1,0,0,0.7795,rock_grid_rect_2,8,14,-1,-1,0.78,0.304444444,-0.402222222,1,0,0,0.9934,Pumice_rect,8,0.993,1,14,0,14,0,1,,,,,,,,,,,,,
6625ac4d6f5a636552f8adf0,TCN,2024-06-25_14h55.30.434,LearnStrategy,2023.2.3,Win32,59.88023952,2,1,16,-0.043333333,-0.015555556,1,0,0,0.9809,rock_grid_rect_2,1,03,-1,-1,0.981,-0.382222222,-0.256666667,1,0,0,1.9417,Andesite_rect,1,1.942,1,15,0,15,0,1,,,,,,,,,,,,,
6625ac4d6f5a636552f8adf0,TCN,2024-06-25_14h55.30.434,LearnStrategy,2023.2.3,Win32,59.88023952,2,2,1,,,,,,,,1,09,,,,,,,,,,,1,3.659,1,,,,,,-0.332222222,-0.242222222,1,0,0,3.6594,Andesite_rect,0,0,0,0,1,
6625ac4d6f5a636552f8adf0,TCN,2024-06-25_14h55.30.434,LearnStrategy,2023.2.3,Win32,59.88023952,2,2,2,,,,,,,,8,02,,,,,,,,,,,8,1.526,1,,,,,,0.297777778,-0.402222222,1,0,0,1.5263,Pumice_rect,1,0,1,0,1,
6625ac4d6f5a636552f8adf0,TCN,2024-06-25_14h55.30.434,LearnStrategy,2023.2.3,Win32,59.88023952,2,2,3,,,,,,,,3,11,,,,,,,,,,,3,4.706,1,,,,,,0.103333333,-0.252222222,1,0,0,4.7061,Diorite_rect,2,0,2,0,1,
6625ac4d6f5a636552f8adf0,TCN,2024-06-25_14h55.30.434,LearnStrategy,2023.2.3,Win32,59.88023952,2,2,4,,,,,,,,2,12,,,,,,,,,,,2,2.305,1,,,,,,-0.153333333,-0.253333333,1,0,0,2.3054,Basalt_rect,3,0,3,0,1,
6625ac4d6f5a636552f8adf0,TCN,2024-06-25_14h55.30.434,LearnStrategy,2023.2.3,Win32,59.88023952,2,2,5,,,,,,,,7,14,,,,,,,,,,,7,5.125,1,,,,,,0.07,-0.395555556,1,0,0,5.1248,Peridotite_rect,4,0,4,0,1,
6625ac4d6f5a636552f8adf0,TCN,2024-06-25_14h55.30.434,LearnStrategy,2023.2.3,Win32,59.88023952,2,2,6,,,,,,,,4,12,,,,,,,,,,,1,3.592,0,,,,,,-0.345555556,-0.245555556,1,0,0,3.5925,Andesite_rect,5,0,5,0,1,
6625ac4d6f5a636552f8adf0,TCN,2024-06-25_14h55.30.434,LearnStrategy,2023.2.3,Win32,59.88023952,2,2,7,,,,,,,,5,11,,,,,,,,,,,5,1.659,1,,,,,,-0.352222222,-0.395555556,1,0,0,1.6592,Obsidian_rect,6,0,6,0,1,
6625ac4d6f5a636552f8adf0,TCN,2024-06-25_14h55.30.434,LearnStrategy,2023.2.3,Win32,59.88023952,2,2,8,,,,,,,,2,10,,,,,,,,,,,2,1.261,1,,,,,,-0.12,-0.257777778,1,0,0,1.2606,Basalt_rect,7,0,7,0,1,
6625ac4d6f5a636552f8adf0,TCN,2024-06-25_14h55.30.434,LearnStrategy,2023.2.3,Win32,59.88023952,2,2,9,,,,,,,,4,05,,,,,,,,,,,4,4.672,1,,,,,,0.308888889,-0.257777778,1,0,0,4.6719,Gabbro_rect,8,0,8,0,1,
6625ac4d6f5a636552f8adf0,TCN,2024-06-25_14h55.30.434,LearnStrategy,2023.2.3,Win32,59.88023952,2,2,10,,,,,,,,6,11,,,,,,,,,,,7,5.76,0,,,,,,0.112222222,-0.403333333,1,0,0,5.7596,Peridotite_rect,9,0,9,0,1,
6625ac4d6f5a636552f8adf0,TCN,2024-06-25_14h55.30.434,LearnStrategy,2023.2.3,Win32,59.88023952,2,2,11,,,,,,,,3,13,,,,,,,,,,,3,1.368,1,,,,,,0.05,-0.265555556,1,0,0,1.3675,Diorite_rect,10,0,10,0,1,
6625ac4d6f5a636552f8adf0,TCN,2024-06-25_14h55.30.434,LearnStrategy,2023.2.3,Win32,59.88023952,2,2,12,,,,,,,,7,06,,,,,,,,,,,3,1.417,0,,,,,,0.095555556,-0.262222222,1,0,0,1.4165,Diorite_rect,11,0,11,0,1,
6625ac4d6f5a636552f8adf0,TCN,2024-06-25_14h55.30.434,LearnStrategy,2023.2.3,Win32,59.88023952,2,2,13,,,,,,,,6,12,,,,,,,,,,,3,3.963,0,,,,,,0.112222222,-0.261111111,1,0,0,3.9631,Diorite_rect,12,0,12,0,1,
6625ac4d6f5a636552f8adf0,TCN,2024-06-25_14h55.30.434,LearnStrategy,2023.2.3,Win32,59.88023952,2,2,14,,,,,,,,1,10,,,,,,,,,,,7,5.741,0,,,,,,0.053333333,-0.408888889,1,0,0,5.7409,Peridotite_rect,13,0,13,0,1,
6625ac4d6f5a636552f8adf0,TCN,2024-06-25_14h55.30.434,LearnStrategy,2023.2.3,Win32,59.88023952,2,2,15,,,,,,,,8,15,,,,,,,,,,,8,4.376,1,,,,,,0.353333333,-0.401111111,1,0,0,4.3755,Pumice_rect,14,0,14,0,1,
6625ac4d6f5a636552f8adf0,TCN,2024-06-25_14h55.30.434,LearnStrategy,2023.2.3,Win32,59.88023952,2,2,16,,,,,,,,5,06,,,,,,,,,,,5,1.143,1,,,,,,-0.34,-0.396666667,1,0,0,1.1425,Obsidian_rect,15,0,15,0,1,
6625ac4d6f5a636552f8adf0,TCN,2024-06-25_14h55.30.434,LearnStrategy,2023.2.3,Win32,59.88023952,3,1,1,0.07,0.014444444,1,0,0,2.2652,rock_grid_rect_2,4,01,-1,-1,2.265,0.05,-0.393333333,1,0,0,6.6081,Peridotite_rect,7,6.608,0,0,0,0,0,1,,,,,,,,,,,,,
6625ac4d6f5a636552f8adf0,TCN,2024-06-25_14h55.30.434,LearnStrategy,2023.2.3,Win32,59.88023952,3,1,2,-0.07,0.016666667,1,0,0,1.0787,rock_grid_rect_2,5,05,-1,-1,1.079,-0.423333333,-0.406666667,1,0,0,2.0943,Obsidian_rect,5,2.094,1,1,0,1,0,1,,,,,,,,,,,,,
6625ac4d6f5a636552f8adf0,TCN,2024-06-25_14h55.30.434,LearnStrategy,2023.2.3,Win32,59.88023952,3,1,3,0.036666667,0.014444444,1,0,0,0.8307,rock_grid_rect_2,2,05,-1,-1,0.831,-0.117777778,-0.231111111,1,0,0,1.1864,Basalt_rect,2,1.186,1,2,0,2,0,1,,,,,,,,,,,,,
6625ac4d6f5a636552f8adf0,TCN,2024-06-25_14h55.30.434,LearnStrategy,2023.2.3,Win32,59.88023952,3,1,4,0.001111111,0.003333333,1,0,0,0.7651,rock_grid_rect_2,8,03,-1,-1,0.765,0.361111111,-0.391111111,1,0,0,1.2254,Pumice_rect,8,1.225,1,3,0,3,0,1,,,,,,,,,,,,,
6625ac4d6f5a636552f8adf0,TCN,2024-06-25_14h55.30.434,LearnStrategy,2023.2.3,Win32,59.88023952,3,1,5,-0.036666667,-0.013333333,1,0,0,0.8642,rock_grid_rect_2,6,03,-1,-1,0.864,-0.168888889,-0.4,1,0,0,1.8102,Pegmatite_rect,6,1.81,1,4,0,4,0,1,,,,,,,,,,,,,
6625ac4d6f5a636552f8adf0,TCN,2024-06-25_14h55.30.434,LearnStrategy,2023.2.3,Win32,59.88023952,3,1,6,-0.03,-0.015555556,1,0,0,1.1821,rock_grid_rect_2,7,08,-1,-1,1.182,0.073333333,-0.244444444,1,0,0,1.0608,Diorite_rect,3,1.061,0,5,0,5,0,1,,,,,,,,,,,,,
6625ac4d6f5a636552f8adf0,TCN,2024-06-25_14h55.30.434,LearnStrategy,2023.2.3,Win32,59.88023952,3,1,7,-0.067777778,0.014444444,1,0,0,0.9475,rock_grid_rect_2,1,16,-1,-1,0.947,0.094444444,-0.231111111,1,0,0,1.0928,Diorite_rect,3,1.093,0,6,0,6,0,1,,,,,,,,,,,,,
6625ac4d6f5a636552f8adf0,TCN,2024-06-25_14h55.30.434,LearnStrategy,2023.2.3,Win32,59.88023952,3,1,8,-0.016666667,-0.018888889,1,0,0,0.7485,rock_grid_rect_2,6,06,-1,-1,0.749,0.03,-0.394444444,1,0,0,3.7745,Peridotite_rect,7,3.774,0,7,0,7,0,1,,,,,,,,,,,,,
6625ac4d6f5a636552f8adf0,TCN,2024-06-25_14h55.30.434,LearnStrategy,2023.2.3,Win32,59.88023952,3,1,9,-0.078888889,-0.018888889,1,0,0,1.2293,rock_grid_rect_2,1,04,-1,-1,1.229,0.341111111,-0.244444444,1,0,0,7.3595,Gabbro_rect,4,7.36,0,8,0,8,0,1,,,,,,,,,,,,,
6625ac4d6f5a636552f8adf0,TCN,2024-06-25_14h55.30.434,LearnStrategy,2023.2.3,Win32,59.88023952,3,1,10,-0.025555556,0.01,1,0,0,1.1295,rock_grid_rect_2,8,05,-1,-1,1.13,0.34,-0.415555556,1,0,0,1.4,Pumice_rect,8,1.4,1,9,0,9,0,1,,,,,,,,,,,,,
6625ac4d6f5a636552f8adf0,TCN,2024-06-25_14h55.30.434,LearnStrategy,2023.2.3,Win32,59.88023952,3,1,11,0.006666667,-0.006666667,1,0,0,0.8641,rock_grid_rect_2,5,08,-1,-1,0.864,-0.382222222,-0.388888889,1,0,0,1.6102,Obsidian_rect,5,1.61,1,10,0,10,0,1,,,,,,,,,,,,,
6625ac4d6f5a636552f8adf0,TCN,2024-06-25_14h55.30.434,LearnStrategy,2023.2.3,Win32,59.88023952,3,1,12,0.011111111,-0.004444444,1,0,0,0.9296,rock_grid_rect_2,3,08,-1,-1,0.93,0.105555556,-0.231111111,1,0,0,1.6587,Diorite_rect,3,1.659,1,11,0,11,0,1,,,,,,,,,,,,,
6625ac4d6f5a636552f8adf0,TCN,2024-06-25_14h55.30.434,LearnStrategy,2023.2.3,Win32,59.88023952,3,1,13,-0.058888889,-0.014444444,1,0,0,0.764,rock_grid_rect_2,2,09,-1,-1,0.764,-0.13,-0.255555556,1,0,0,1.2944,Basalt_rect,2,1.294,1,12,0,12,0,1,,,,,,,,,,,,,
6625ac4d6f5a636552f8adf0,TCN,2024-06-25_14h55.30.434,LearnStrategy,2023.2.3,Win32,59.88023952,3,1,14,0.04,-0.007777778,1,0,0,0.7483,rock_grid_rect_2,7,04,-1,-1,0.748,0.078888889,-0.384444444,1,0,0,2.4773,Peridotite_rect,7,2.477,1,13,0,13,0,1,,,,,,,,,,,,,
6625ac4d6f5a636552f8adf0,TCN,2024-06-25_14h55.30.434,LearnStrategy,2023.2.3,Win32,59.88023952,3,1,15,-0.062222222,-0.007777778,1,0,0,0.7952,rock_grid_rect_2,3,09,-1,-1,0.795,0.05,-0.236666667,1,0,0,1.7603,Diorite_rect,3,1.76,1,14,0,14,0,1,,,,,,,,,,,,,
6625ac4d6f5a636552f8adf0,TCN,2024-06-25_14h55.30.434,LearnStrategy,2023.2.3,Win32,59.88023952,3,1,16,-0.038888889,0.011111111,1,0,0,1.3481,rock_grid_rect_2,4,15,-1,-1,1.348,-0.377777778,-0.236666667,1,0,0,4.2117,Andesite_rect,1,4.212,0,15,0,15,0,1,,,,,,,,,,,,,
6625ac4d6f5a636552f8adf0,TCN,2024-06-25_14h55.30.434,LearnStrategy,2023.2.3,Win32,59.88023952,3,2,1,,,,,,,,3,02,,,,,,,,,,,7,7.807,0,,,,,,0.051111111,-0.418888889,1,0,0,7.8066,Peridotite_rect,0,0,0,0,1,
6625ac4d6f5a636552f8adf0,TCN,2024-06-25_14h55.30.434,LearnStrategy,2023.2.3,Win32,59.88023952,3,2,2,,,,,,,,2,16,,,,,,,,,,,2,1.342,1,,,,,,-0.132222222,-0.255555556,1,0,0,1.3417,Basalt_rect,1,0,1,0,1,
6625ac4d6f5a636552f8adf0,TCN,2024-06-25_14h55.30.434,LearnStrategy,2023.2.3,Win32,59.88023952,3,2,3,,,,,,,,1,14,,,,,,,,,,,4,3.39,0,,,,,,0.328888889,-0.256666667,1,0,0,3.3898,Gabbro_rect,2,0,2,0,1,
6625ac4d6f5a636552f8adf0,TCN,2024-06-25_14h55.30.434,LearnStrategy,2023.2.3,Win32,59.88023952,3,2,4,,,,,,,,1,01,,,,,,,,,,,4,6.135,0,,,,,,0.303333333,-0.257777778,1,0,0,6.1349,Gabbro_rect,3,0,3,0,1,
6625ac4d6f5a636552f8adf0,TCN,2024-06-25_14h55.30.434,LearnStrategy,2023.2.3,Win32,59.88023952,3,2,5,,,,,,,,7,02,,,,,,,,,,,7,1.45,1,,,,,,0.057777778,-0.4,1,0,0,1.45,Peridotite_rect,4,0,4,0,1,
6625ac4d6f5a636552f8adf0,TCN,2024-06-25_14h55.30.434,LearnStrategy,2023.2.3,Win32,59.88023952,3,2,6,,,,,,,,2,04,,,,,,,,,,,2,1.046,1,,,,,,-0.123333333,-0.253333333,1,0,0,1.0456,Basalt_rect,5,0,5,0,1,
6625ac4d6f5a636552f8adf0,TCN,2024-06-25_14h55.30.434,LearnStrategy,2023.2.3,Win32,59.88023952,3,2,7,,,,,,,,8,10,,,,,,,,,,,8,1.967,1,,,,,,0.393333333,-0.398888889,1,0,0,1.9673,Pumice_rect,6,0,6,0,1,
6625ac4d6f5a636552f8adf0,TCN,2024-06-25_14h55.30.434,LearnStrategy,2023.2.3,Win32,59.88023952,3,2,8,,,,,,,,5,02,,,,,,,,,,,5,1.066,1,,,,,,-0.393333333,-0.408888889,1,0,0,1.0663,Obsidian_rect,7,0,7,0,1,
6625ac4d6f5a636552f8adf0,TCN,2024-06-25_14h55.30.434,LearnStrategy,2023.2.3,Win32,59.88023952,3,2,9,,,,,,,,3,14,,,,,,,,,,,3,1.435,1,,,,,,0.05,-0.257777778,1,0,0,1.4349,Diorite_rect,8,0,8,0,1,
6625ac4d6f5a636552f8adf0,TCN,2024-06-25_14h55.30.434,LearnStrategy,2023.2.3,Win32,59.88023952,3,2,10,,,,,,,,4,10,,,,,,,,,,,1,4.557,0,,,,,,-0.324444444,-0.253333333,1,0,0,4.5569,Andesite_rect,9,0,9,0,1,
6625ac4d6f5a636552f8adf0,TCN,2024-06-25_14h55.30.434,LearnStrategy,2023.2.3,Win32,59.88023952,3,2,11,,,,,,,,8,08,,,,,,,,,,,8,1.41,1,,,,,,0.322222222,-0.407777778,1,0,0,1.4097,Pumice_rect,10,0,10,0,1,
6625ac4d6f5a636552f8adf0,TCN,2024-06-25_14h55.30.434,LearnStrategy,2023.2.3,Win32,59.88023952,3,2,12,,,,,,,,7,12,,,,,,,,,,,3,2.875,0,,,,,,0.092222222,-0.262222222,1,0,0,2.8754,Diorite_rect,11,0,11,0,1,
6625ac4d6f5a636552f8adf0,TCN,2024-06-25_14h55.30.434,LearnStrategy,2023.2.3,Win32,59.88023952,3,2,13,,,,,,,,6,13,,,,,,,,,,,7,2.557,0,,,,,,0.082222222,-0.394444444,1,0,0,2.5574,Peridotite_rect,12,0,12,0,1,
6625ac4d6f5a636552f8adf0,TCN,2024-06-25_14h55.30.434,LearnStrategy,2023.2.3,Win32,59.88023952,3,2,14,,,,,,,,6,10,,,,,,,,,,,7,3.007,0,,,,,,0.075555556,-0.388888889,1,0,0,3.0071,Peridotite_rect,13,0,13,0,1,
6625ac4d6f5a636552f8adf0,TCN,2024-06-25_14h55.30.434,LearnStrategy,2023.2.3,Win32,59.88023952,3,2,15,,,,,,,,4,08,,,,,,,,,,,1,4.933,0,,,,,,-0.475555556,-0.247777778,1,0,0,4.9333,Andesite_rect,14,0,14,0,1,
6625ac4d6f5a636552f8adf0,TCN,2024-06-25_14h55.30.434,LearnStrategy,2023.2.3,Win32,59.88023952,3,2,16,,,,,,,,5,12,,,,,,,,,,,5,1.067,1,,,,,,-0.376666667,-0.407777778,1,0,0,1.0672,Obsidian_rect,15,0,15,0,1,
6625ac4d6f5a636552f8adf0,TCN,2024-06-25_14h55.30.434,LearnStrategy,2023.2.3,Win32,59.88023952,4,1,1,0.02,-0.004444444,1,0,0,1.5132,rock_grid_rect_2,8,13,-1,-1,1.513,0.371111111,-0.391111111,1,0,0,1.5934,Pumice_rect,8,1.593,1,0,0,0,0,1,,,,,,,,,,,,,
6625ac4d6f5a636552f8adf0,TCN,2024-06-25_14h55.30.434,LearnStrategy,2023.2.3,Win32,59.88023952,4,1,2,0.004444444,0.005555556,1,0,0,0.7544,rock_grid_rect_2,3,10,-1,-1,0.754,0.393333333,-0.24,1,0,0,4.9031,Gabbro_rect,4,4.903,0,1,0,1,0,1,,,,,,,,,,,,,
6625ac4d6f5a636552f8adf0,TCN,2024-06-25_14h55.30.434,LearnStrategy,2023.2.3,Win32,59.88023952,4,1,3,-0.016666667,0.008888889,1,0,0,1.8963,rock_grid_rect_2,1,04,-1,-1,1.896,0.373333333,-0.248888889,1,0,0,5.526,Gabbro_rect,4,5.526,0,2,0,2,0,1,,,,,,,,,,,,,
6625ac4d6f5a636552f8adf0,TCN,2024-06-25_14h55.30.434,LearnStrategy,2023.2.3,Win32,59.88023952,4,1,4,-0.128888889,0.01,1,0,0,1.2967,rock_grid_rect_2,5,04,-1,-1,1.297,-0.342222222,-0.382222222,1,0,0,1.8016,Obsidian_rect,5,1.802,1,3,0,3,0,1,,,,,,,,,,,,,
6625ac4d6f5a636552f8adf0,TCN,2024-06-25_14h55.30.434,LearnStrategy,2023.2.3,Win32,59.88023952,4,1,5,0.011111111,-0.015555556,1,0,0,0.9017,rock_grid_rect_2,2,01,-1,-1,0.902,-0.123333333,-0.238888889,1,0,0,1.0376,Basalt_rect,2,1.038,1,4,0,4,0,1,,,,,,,,,,,,,
6625ac4d6f5a636552f8adf0,TCN,2024-06-25_14h55.30.434,LearnStrategy,2023.2.3,Win32,59.88023952,4,1,6,0.026666667,-0.002222222,1,0,0,1.3982,rock_grid_rect_2,6,15,-1,-1,1.398,-0.082222222,-0.408888889,1,0,0,2.6774,Pegmatite_rect,6,2.677,1,5,0,5,0,1,,,,,,,,,,,,,
6625ac4d6f5a636552f8adf0,TCN,2024-06-25_14h55.30.434,LearnStrategy,2023.2.3,Win32,59.88023952,4,1,7,-0.135555556,0.014444444,1,0,0,106.8147,rock_grid_rect_2,3,16,-1,-1,106.815,0.134444444,-0.246666667,1,0,0,3.709,Diorite_rect,3,3.709,1,6,0,6,0,1,,,,,,,,,,,,,
6625ac4d6f5a636552f8adf0,TCN,2024-06-25_14h55.30.434,LearnStrategy,2023.2.3,Win32,59.88023952,4,1,8,0.108888889,0.01,1,0,0,1.0297,rock_grid_rect_2,5,08,-1,-1,1.03,-0.413333333,-0.401111111,1,0,0,0.9937,Obsidian_rect,5,0.994,1,7,0,7,0,1,,,,,,,,,,,,,
6625ac4d6f5a636552f8adf0,TCN,2024-06-25_14h55.30.434,LearnStrategy,2023.2.3,Win32,59.88023952,4,1,9,-0.004444444,0.012222222,1,0,0,0.7985,rock_grid_rect_2,4,15,-1,-1,0.798,0.341111111,-0.243333333,1,0,0,2.0594,Gabbro_rect,4,2.059,1,8,0,8,0,1,,,,,,,,,,,,,
6625ac4d6f5a636552f8adf0,TCN,2024-06-25_14h55.30.434,LearnStrategy,2023.2.3,Win32,59.88023952,4,1,10,-0.011111111,-0.008888889,1,0,0,1.3486,rock_grid_rect_2,6,06,-1,-1,1.349,-0.125555556,-0.413333333,1,0,0,4.1921,Pegmatite_rect,6,4.192,1,9,0,9,0,1,,,,,,,,,,,,,
6625ac4d6f5a636552f8adf0,TCN,2024-06-25_14h55.30.434,LearnStrategy,2023.2.3,Win32,59.88023952,4,1,11,0.135555556,-0.007777778,1,0,0,22.1942,rock_grid_rect_2,4,13,-1,-1,22.194,0.352222222,-0.247777778,1,0,0,3.7258,Gabbro_rect,4,3.726,1,10,0,10,0,1,,,,,,,,,,,,,
6625ac4d6f5a636552f8adf0,TCN,2024-06-25_14h55.30.434,LearnStrategy,2023.2.3,Win32,59.88023952,4,1,12,0,0.012222222,1,0,0,1.6313,rock_grid_rect_2,7,07,-1,-1,1.631,0.126666667,-0.403333333,1,0,0,4.5936,Peridotite_rect,7,4.594,1,11,0,11,0,1,,,,,,,,,,,,,
6625ac4d6f5a636552f8adf0,TCN,2024-06-25_14h55.30.434,LearnStrategy,2023.2.3,Win32,59.88023952,4,1,13,0.126666667,0.013333333,1,0,0,1.3294,rock_grid_rect_2,8,05,-1,-1,1.329,0.393333333,-0.396666667,1,0,0,1.4946,Pumice_rect,8,1.495,1,12,0,12,0,1,,,,,,,,,,,,,
6625ac4d6f5a636552f8adf0,TCN,2024-06-25_14h55.30.434,LearnStrategy,2023.2.3,Win32,59.88023952,4,1,14,0.052222222,0.004444444,1,0,0,1.3468,rock_grid_rect_2,1,07,-1,-1,1.347,0.15,-0.235555556,1,0,0,1.7775,Diorite_rect,3,1.777,0,13,0,13,0,1,,,,,,,,,,,,,
6625ac4d6f5a636552f8adf0,TCN,2024-06-25_14h55.30.434,LearnStrategy,2023.2.3,Win32,59.88023952,4,1,15,0.045555556,0.008888889,1,0,0,1.2815,rock_grid_rect_2,7,16,-1,-1,1.282,0.111111111,-0.393333333,1,0,0,1.9418,Peridotite_rect,7,1.942,1,14,0,14,0,1,,,,,,,,,,,,,
6625ac4d6f5a636552f8adf0,TCN,2024-06-25_14h55.30.434,LearnStrategy,2023.2.3,Win32,59.88023952,4,1,16,0.033333333,-0.01,1,0,0,1.2989,rock_grid_rect_2,2,09,-1,-1,1.299,-0.133333333,-0.247777778,1,0,0,1.2939,Basalt_rect,2,1.294,1,15,0,15,0,1,,,,,,,,,,,,,
6625ac4d6f5a636552f8adf0,TCN,2024-06-25_14h55.30.434,LearnStrategy,2023.2.3,Win32,59.88023952,4,2,1,,,,,,,,3,12,,,,,,,,,,,3,5.308,1,,,,,,0.143333333,-0.243333333,1,0,0,5.3078,Diorite_rect,0,0,0,0,1,
6625ac4d6f5a636552f8adf0,TCN,2024-06-25_14h55.30.434,LearnStrategy,2023.2.3,Win32,59.88023952,4,2,2,,,,,,,,1,10,,,,,,,,,,,1,169.469,1,,,,,,-0.364444444,-0.247777778,1,0,0,169.4692,Andesite_rect,1,0,1,0,1,
6625ac4d6f5a636552f8adf0,TCN,2024-06-25_14h55.30.434,LearnStrategy,2023.2.3,Win32,59.88023952,4,2,3,,,,,,,,5,02,,,,,,,,,,,5,3.926,1,,,,,,-0.442222222,-0.41,1,0,0,3.9257,Obsidian_rect,2,0,2,0,1,
6625ac4d6f5a636552f8adf0,TCN,2024-06-25_14h55.30.434,LearnStrategy,2023.2.3,Win32,59.88023952,4,2,4,,,,,,,,4,09,,,,,,,,,,,1,1.627,0,,,,,,-0.397777778,-0.251111111,1,0,0,1.6267,Andesite_rect,3,0,3,0,1,
6625ac4d6f5a636552f8adf0,TCN,2024-06-25_14h55.30.434,LearnStrategy,2023.2.3,Win32,59.88023952,4,2,5,,,,,,,,6,10,,,,,,,,,,,6,4.005,1,,,,,,-0.074444444,-0.397777778,1,0,0,4.0047,Pegmatite_rect,4,0,4,0,1,
6625ac4d6f5a636552f8adf0,TCN,2024-06-25_14h55.30.434,LearnStrategy,2023.2.3,Win32,59.88023952,4,2,6,,,,,,,,1,02,,,,,,,,,,,1,3.459,1,,,,,,-0.315555556,-0.238888889,1,0,0,3.4592,Andesite_rect,5,0,5,0,1,
6625ac4d6f5a636552f8adf0,TCN,2024-06-25_14h55.30.434,LearnStrategy,2023.2.3,Win32,59.88023952,4,2,7,,,,,,,,2,16,,,,,,,,,,,4,5.568,0,,,,,,0.351111111,-0.26,1,0,0,5.5676,Gabbro_rect,6,0,6,0,1,
6625ac4d6f5a636552f8adf0,TCN,2024-06-25_14h55.30.434,LearnStrategy,2023.2.3,Win32,59.88023952,4,2,8,,,,,,,,3,02,,,,,,,,,,,3,1.376,1,,,,,,0.086666667,-0.24,1,0,0,1.3756,Diorite_rect,7,0,7,0,1,
6625ac4d6f5a636552f8adf0,TCN,2024-06-25_14h55.30.434,LearnStrategy,2023.2.3,Win32,59.88023952,4,2,9,,,,,,,,8,15,,,,,,,,,,,8,7.756,1,,,,,,0.324444444,-0.407777778,1,0,0,7.7555,Pumice_rect,8,0,8,0,1,
6625ac4d6f5a636552f8adf0,TCN,2024-06-25_14h55.30.434,LearnStrategy,2023.2.3,Win32,59.88023952,4,2,10,,,,,,,,7,06,,,,,,,,,,,7,3.123,1,,,,,,0.138888889,-0.397777778,1,0,0,3.1234,Peridotite_rect,9,0,9,0,1,
6625ac4d6f5a636552f8adf0,TCN,2024-06-25_14h55.30.434,LearnStrategy,2023.2.3,Win32,59.88023952,4,2,11,,,,,,,,6,07,,,,,,,,,,,6,5.238,1,,,,,,-0.082222222,-0.384444444,1,0,0,5.2384,Pegmatite_rect,10,0,10,0,1,
6625ac4d6f5a636552f8adf0,TCN,2024-06-25_14h55.30.434,LearnStrategy,2023.2.3,Win32,59.88023952,4,2,12,,,,,,,,5,12,,,,,,,,,,,5,1.189,1,,,,,,-0.383333333,-0.394444444,1,0,0,1.1886,Obsidian_rect,11,0,11,0,1,
6625ac4d6f5a636552f8adf0,TCN,2024-06-25_14h55.30.434,LearnStrategy,2023.2.3,Win32,59.88023952,4,2,13,,,,,,,,4,05,,,,,,,,,,,4,2.475,1,,,,,,0.414444444,-0.26,1,0,0,2.475,Gabbro_rect,12,0,12,0,1,
6625ac4d6f5a636552f8adf0,TCN,2024-06-25_14h55.30.434,LearnStrategy,2023.2.3,Win32,59.88023952,4,2,14,,,,,,,,2,02,,,,,,,,,,,2,1.473,1,,,,,,-0.04,-0.256666667,1,0,0,1.4731,Basalt_rect,13,0,13,0,1,
6625ac4d6f5a636552f8adf0,TCN,2024-06-25_14h55.30.434,LearnStrategy,2023.2.3,Win32,59.88023952,4,2,15,,,,,,,,7,12,,,,,,,,,,,3,2.675,0,,,,,,0.084444444,-0.251111111,1,0,0,2.6746,Diorite_rect,14,0,14,0,1,
6625ac4d6f5a636552f8adf0,TCN,2024-06-25_14h55.30.434,LearnStrategy,2023.2.3,Win32,59.88023952,4,2,16,,,,,,,,8,08,,,,,,,,,,,8,1.476,1,,,,,,0.357777778,-0.402222222,1,0,0,1.4764,Pumice_rect,15,0,15,0,1,
6625ac4d6f5a636552f8adf0,TCN,2024-06-25_14h55.30.434,LearnStrategy,2023.2.3,Win32,59.88023952,5,1,1,0.091111111,0.004444444,1,0,0,164.6285,rock_grid_rect_2,7,05,-1,-1,164.629,0.104444444,-0.408888889,1,0,0,2.6021,Peridotite_rect,7,2.602,1,0,0,0,0,1,,,,,,,,,,,,,
6625ac4d6f5a636552f8adf0,TCN,2024-06-25_14h55.30.434,LearnStrategy,2023.2.3,Win32,59.88023952,5,1,2,0.043333333,0.002222222,1,0,0,1.0044,rock_grid_rect_2,1,11,-1,-1,1.004,-0.42,-0.234444444,1,0,0,2.8466,Andesite_rect,1,2.847,1,1,0,1,0,1,,,,,,,,,,,,,
6625ac4d6f5a636552f8adf0,TCN,2024-06-25_14h55.30.434,LearnStrategy,2023.2.3,Win32,59.88023952,5,1,3,-0.021111111,0.006666667,1,0,0,1.3192,rock_grid_rect_2,3,08,-1,-1,1.319,0.117777778,-0.245555556,1,0,0,1.1801,Diorite_rect,3,1.18,1,2,0,2,0,1,,,,,,,,,,,,,
6625ac4d6f5a636552f8adf0,TCN,2024-06-25_14h55.30.434,LearnStrategy,2023.2.3,Win32,59.88023952,5,1,4,0.001111111,0.006666667,1,0,0,1.0607,rock_grid_rect_2,5,09,-1,-1,1.061,-0.331111111,-0.401111111,1,0,0,1.2853,Obsidian_rect,5,1.285,1,3,0,3,0,1,,,,,,,,,,,,,
6625ac4d6f5a636552f8adf0,TCN,2024-06-25_14h55.30.434,LearnStrategy,2023.2.3,Win32,59.88023952,5,1,5,0.027777778,-0.008888889,1,0,0,1.2332,rock_grid_rect_2,4,01,-1,-1,1.233,0.39,-0.236666667,1,0,0,2.7865,Gabbro_rect,4,2.787,1,4,0,4,0,1,,,,,,,,,,,,,
6625ac4d6f5a636552f8adf0,TCN,2024-06-25_14h55.30.434,LearnStrategy,2023.2.3,Win32,59.88023952,5,1,6,-0.006666667,0.014444444,1,0,0,1.2282,rock_grid_rect_2,6,16,-1,-1,1.228,-0.065555556,-0.397777778,1,0,0,1.8432,Pegmatite_rect,6,1.843,1,5,0,5,0,1,,,,,,,,,,,,,
6625ac4d6f5a636552f8adf0,TCN,2024-06-25_14h55.30.434,LearnStrategy,2023.2.3,Win32,59.88023952,5,1,7,-0.007777778,-0.007777778,1,0,0,1.1314,rock_grid_rect_2,1,03,-1,-1,1.131,-0.351111111,-0.232222222,1,0,0,1.9418,Andesite_rect,1,1.942,1,6,0,6,0,1,,,,,,,,,,,,,
6625ac4d6f5a636552f8adf0,TCN,2024-06-25_14h55.30.434,LearnStrategy,2023.2.3,Win32,59.88023952,5,1,8,0.024444444,-0.022222222,1,0,0,1.1978,rock_grid_rect_2,2,11,-1,-1,1.198,0.37,-0.397777778,1,0,0,1.5941,Pumice_rect,8,1.594,0,7,0,7,0,1,,,,,,,,,,,,,
6625ac4d6f5a636552f8adf0,TCN,2024-06-25_14h55.30.434,LearnStrategy,2023.2.3,Win32,59.88023952,5,1,9,0.11,0,1,0,0,1.7816,rock_grid_rect_2,8,03,-1,-1,1.782,0.391111111,-0.403333333,1,0,0,1.9115,Pumice_rect,8,1.912,1,8,0,8,0,1,,,,,,,,,,,,,
6625ac4d6f5a636552f8adf0,TCN,2024-06-25_14h55.30.434,LearnStrategy,2023.2.3,Win32,59.88023952,5,1,10,0.102222222,0.006666667,1,0,0,1.8308,rock_grid_rect_2,8,16,-1,-1,1.831,0.391111111,-0.384444444,1,0,0,2.3434,Pumice_rect,8,2.343,1,9,0,9,0,1,,,,,,,,,,,,,
6625ac4d6f5a636552f8adf0,TCN,2024-06-25_14h55.30.434,LearnStrategy,2023.2.3,Win32,59.88023952,5,1,11,-0.061111111,0.016666667,1,0,0,1.2971,rock_grid_rect_2,2,14,-1,-1,1.297,0.324444444,-0.396666667,1,0,0,2.7766,Pumice_rect,8,2.777,0,10,0,10,0,1,,,,,,,,,,,,,
6625ac4d6f5a636552f8adf0,TCN,2024-06-25_14h55.30.434,LearnStrategy,2023.2.3,Win32,59.88023952,5,1,12,0.061111111,0.006666667,1,0,0,0.9981,rock_grid_rect_2,5,14,-1,-1,0.998,-0.346666667,-0.393333333,1,0,0,1.2582,Obsidian_rect,5,1.258,1,11,0,11,0,1,,,,,,,,,,,,,
6625ac4d6f5a636552f8adf0,TCN,2024-06-25_14h55.30.434,LearnStrategy,2023.2.3,Win32,59.88023952,5,1,13,0.008888889,0.008888889,1,0,0,1.3963,rock_grid_rect_2,4,03,-1,-1,1.396,0.11,-0.246666667,1,0,0,1.6427,Diorite_rect,3,1.643,0,12,0,12,0,1,,,,,,,,,,,,,
6625ac4d6f5a636552f8adf0,TCN,2024-06-25_14h55.30.434,LearnStrategy,2023.2.3,Win32,59.88023952,5,1,14,0.05,0.008888889,1,0,0,1.231,rock_grid_rect_2,6,03,-1,-1,1.231,-0.086666667,-0.418888889,1,0,0,2.0443,Pegmatite_rect,6,2.044,1,13,0,13,0,1,,,,,,,,,,,,,
6625ac4d6f5a636552f8adf0,TCN,2024-06-25_14h55.30.434,LearnStrategy,2023.2.3,Win32,59.88023952,5,1,15,0.001111111,0.017777778,1,0,0,1.297,rock_grid_rect_2,7,04,-1,-1,1.297,0.093333333,-0.4,1,0,0,1.6275,Peridotite_rect,7,1.628,1,14,0,14,0,1,,,,,,,,,,,,,
6625ac4d6f5a636552f8adf0,TCN,2024-06-25_14h55.30.434,LearnStrategy,2023.2.3,Win32,59.88023952,5,1,16,0.074444444,-0.002222222,1,0,0,1.4806,rock_grid_rect_2,3,09,-1,-1,1.481,0.138888889,-0.233333333,1,0,0,1.1009,Diorite_rect,3,1.101,1,15,0,15,0,1,,,,,,,,,,,,,
6625ac4d6f5a636552f8adf0,TCN,2024-06-25_14h55.30.434,LearnStrategy,2023.2.3,Win32,59.88023952,5,2,1,,,,,,,,4,12,,,,,,,,,,,1,3.192,0,,,,,,-0.37,-0.24,1,0,0,3.1917,Andesite_rect,0,0,0,0,1,
6625ac4d6f5a636552f8adf0,TCN,2024-06-25_14h55.30.434,LearnStrategy,2023.2.3,Win32,59.88023952,5,2,2,,,,,,,,4,14,,,,,,,,,,,4,3.941,1,,,,,,0.338888889,-0.254444444,1,0,0,3.9407,Gabbro_rect,1,0,1,0,1,
6625ac4d6f5a636552f8adf0,TCN,2024-06-25_14h55.30.434,LearnStrategy,2023.2.3,Win32,59.88023952,5,2,3,,,,,,,,8,02,,,,,,,,,,,8,1.472,1,,,,,,0.338888889,-0.402222222,1,0,0,1.4718,Pumice_rect,2,0,2,0,1,
6625ac4d6f5a636552f8adf0,TCN,2024-06-25_14h55.30.434,LearnStrategy,2023.2.3,Win32,59.88023952,5,2,4,,,,,,,,6,13,,,,,,,,,,,6,5.107,1,,,,,,-0.125555556,-0.397777778,1,0,0,5.1073,Pegmatite_rect,3,0,3,0,1,
6625ac4d6f5a636552f8adf0,TCN,2024-06-25_14h55.30.434,LearnStrategy,2023.2.3,Win32,59.88023952,5,2,5,,,,,,,,2,04,,,,,,,,,,,2,1.091,1,,,,,,-0.101111111,-0.271111111,1,0,0,1.0907,Basalt_rect,4,0,4,0,1,
6625ac4d6f5a636552f8adf0,TCN,2024-06-25_14h55.30.434,LearnStrategy,2023.2.3,Win32,59.88023952,5,2,6,,,,,,,,7,13,,,,,,,,,,,7,1.842,1,,,,,,0.1,-0.378888889,1,0,0,1.8422,Peridotite_rect,5,0,5,0,1,
6625ac4d6f5a636552f8adf0,TCN,2024-06-25_14h55.30.434,LearnStrategy,2023.2.3,Win32,59.88023952,5,2,7,,,,,,,,8,04,,,,,,,,,,,8,1.223,1,,,,,,0.341111111,-0.391111111,1,0,0,1.2234,Pumice_rect,6,0,6,0,1,
6625ac4d6f5a636552f8adf0,TCN,2024-06-25_14h55.30.434,LearnStrategy,2023.2.3,Win32,59.88023952,5,2,8,,,,,,,,3,11,,,,,,,,,,,3,1.273,1,,,,,,0.137777778,-0.24,1,0,0,1.2727,Diorite_rect,7,0,7,0,1,
6625ac4d6f5a636552f8adf0,TCN,2024-06-25_14h55.30.434,LearnStrategy,2023.2.3,Win32,59.88023952,5,2,9,,,,,,,,1,05,,,,,,,,,,,1,4.723,1,,,,,,-0.458888889,-0.266666667,1,0,0,4.7227,Andesite_rect,8,0,8,0,1,
6625ac4d6f5a636552f8adf0,TCN,2024-06-25_14h55.30.434,LearnStrategy,2023.2.3,Win32,59.88023952,5,2,10,,,,,,,,3,14,,,,,,,,,,,3,1.425,1,,,,,,0.12,-0.252222222,1,0,0,1.4253,Diorite_rect,9,0,9,0,1,
6625ac4d6f5a636552f8adf0,TCN,2024-06-25_14h55.30.434,LearnStrategy,2023.2.3,Win32,59.88023952,5,2,11,,,,,,,,1,14,,,,,,,,,,,8,2.808,0,,,,,,0.324444444,-0.407777778,1,0,0,2.8078,Pumice_rect,10,0,10,0,1,
6625ac4d6f5a636552f8adf0,TCN,2024-06-25_14h55.30.434,LearnStrategy,2023.2.3,Win32,59.88023952,5,2,12,,,,,,,,6,05,,,,,,,,,,,6,2.44,1,,,,,,-0.168888889,-0.406666667,1,0,0,2.4402,Pegmatite_rect,11,0,11,0,1,
6625ac4d6f5a636552f8adf0,TCN,2024-06-25_14h55.30.434,LearnStrategy,2023.2.3,Win32,59.88023952,5,2,13,,,,,,,,5,10,,,,,,,,,,,5,1.474,1,,,,,,-0.383333333,-0.383333333,1,0,0,1.4739,Obsidian_rect,12,0,12,0,1,
6625ac4d6f5a636552f8adf0,TCN,2024-06-25_14h55.30.434,LearnStrategy,2023.2.3,Win32,59.88023952,5,2,14,,,,,,,,7,14,,,,,,,,,,,7,5.943,1,,,,,,0.117777778,-0.387777778,1,0,0,5.943,Peridotite_rect,13,0,13,0,1,
6625ac4d6f5a636552f8adf0,TCN,2024-06-25_14h55.30.434,LearnStrategy,2023.2.3,Win32,59.88023952,5,2,15,,,,,,,,5,11,,,,,,,,,,,5,2.71,1,,,,,,-0.342222222,-0.388888889,1,0,0,2.7097,Obsidian_rect,14,0,14,0,1,
6625ac4d6f5a636552f8adf0,TCN,2024-06-25_14h55.30.434,LearnStrategy,2023.2.3,Win32,59.88023952,5,2,16,,,,,,,,2,06,,,,,,,,,,,2,1.657,1,,,,,,-0.144444444,-0.262222222,1,0,0,1.6567,Basalt_rect,15,0,15,0,1,
6625ac4d6f5a636552f8adf0,TCN,2024-06-25_14h55.30.434,LearnStrategy,2023.2.3,Win32,59.88023952,6,1,1,-0.003333333,-0.014444444,1,0,0,1.497,rock_grid_rect_2,1,06,-1,-1,1.497,-0.364444444,-0.234444444,1,0,0,3.794,Andesite_rect,1,3.794,1,0,0,0,0,1,,,,,,,,,,,,,
6625ac4d6f5a636552f8adf0,TCN,2024-06-25_14h55.30.434,LearnStrategy,2023.2.3,Win32,59.88023952,6,1,2,-0.11,-0.014444444,1,0,0,1.4214,rock_grid_rect_2,3,06,-1,-1,1.421,0.144444444,-0.238888889,1,0,0,2.8647,Diorite_rect,3,2.865,1,1,0,1,0,1,,,,,,,,,,,,,
6625ac4d6f5a636552f8adf0,TCN,2024-06-25_14h55.30.434,LearnStrategy,2023.2.3,Win32,59.88023952,6,1,3,-0.065555556,0.006666667,1,0,0,2.4392,rock_grid_rect_2,5,07,-1,-1,2.439,-0.395555556,-0.39,1,0,0,3.1771,Obsidian_rect,5,3.177,1,2,0,2,0,1,,,,,,,,,,,,,
6625ac4d6f5a636552f8adf0,TCN,2024-06-25_14h55.30.434,LearnStrategy,2023.2.3,Win32,59.88023952,6,1,4,-0.082222222,-0.012222222,1,0,0,2.5375,rock_grid_rect_2,8,14,-1,-1,2.537,0.355555556,-0.382222222,1,0,0,1.5346,Pumice_rect,8,1.535,1,3,0,3,0,1,,,,,,,,,,,,,
6625ac4d6f5a636552f8adf0,TCN,2024-06-25_14h55.30.434,LearnStrategy,2023.2.3,Win32,59.88023952,6,1,5,0.033333333,0.008888889,1,0,0,1.747,rock_grid_rect_2,2,08,-1,-1,1.747,-0.136666667,-0.254444444,1,0,0,1.6276,Basalt_rect,2,1.628,1,4,0,4,0,1,,,,,,,,,,,,,
6625ac4d6f5a636552f8adf0,TCN,2024-06-25_14h55.30.434,LearnStrategy,2023.2.3,Win32,59.88023952,6,1,6,-0.037777778,0.008888889,1,0,0,1.1322,rock_grid_rect_2,5,05,-1,-1,1.132,-0.378888889,-0.396666667,1,0,0,1.7427,Obsidian_rect,5,1.743,1,5,0,5,0,1,,,,,,,,,,,,,
6625ac4d6f5a636552f8adf0,TCN,2024-06-25_14h55.30.434,LearnStrategy,2023.2.3,Win32,59.88023952,6,1,7,-0.063333333,-0.004444444,1,0,0,1.249,rock_grid_rect_2,7,08,-1,-1,1.249,-0.076666667,-0.405555556,1,0,0,3.7098,Pegmatite_rect,6,3.71,0,6,0,6,0,1,,,,,,,,,,,,,
6625ac4d6f5a636552f8adf0,TCN,2024-06-25_14h55.30.434,LearnStrategy,2023.2.3,Win32,59.88023952,6,1,8,0.001111111,-0.011111111,1,0,0,1.1635,rock_grid_rect_2,8,06,-1,-1,1.164,0.417777778,-0.381111111,1,0,0,1.3771,Pumice_rect,8,1.377,1,7,0,7,0,1,,,,,,,,,,,,,
6625ac4d6f5a636552f8adf0,TCN,2024-06-25_14h55.30.434,LearnStrategy,2023.2.3,Win32,59.88023952,6,1,9,0.105555556,-0.01,1,0,0,1.0971,rock_grid_rect_2,4,11,-1,-1,1.097,-0.346666667,-0.254444444,1,0,0,1.7433,Andesite_rect,1,1.743,0,8,0,8,0,1,,,,,,,,,,,,,
6625ac4d6f5a636552f8adf0,TCN,2024-06-25_14h55.30.434,LearnStrategy,2023.2.3,Win32,59.88023952,6,1,10,-0.01,0.016666667,1,0,0,1.4994,rock_grid_rect_2,2,05,-1,-1,1.499,-0.116666667,-0.253333333,1,0,0,1.3927,Basalt_rect,2,1.393,1,9,0,9,0,1,,,,,,,,,,,,,
6625ac4d6f5a636552f8adf0,TCN,2024-06-25_14h55.30.434,LearnStrategy,2023.2.3,Win32,59.88023952,6,1,11,0.013333333,0.001111111,1,0,0,2.1812,rock_grid_rect_2,6,08,-1,-1,2.181,-0.071111111,-0.396666667,1,0,0,2.827,Pegmatite_rect,6,2.827,1,10,0,10,0,1,,,,,,,,,,,,,
6625ac4d6f5a636552f8adf0,TCN,2024-06-25_14h55.30.434,LearnStrategy,2023.2.3,Win32,59.88023952,6,1,12,-0.021111111,0.023333333,1,0,0,1.1631,rock_grid_rect_2,7,10,-1,-1,1.163,0.155555556,-0.386666667,1,0,0,2.9084,Peridotite_rect,7,2.908,1,11,0,11,0,1,,,,,,,,,,,,,
6625ac4d6f5a636552f8adf0,TCN,2024-06-25_14h55.30.434,LearnStrategy,2023.2.3,Win32,59.88023952,6,1,13,0.011111111,-0.003333333,1,0,0,1.0471,rock_grid_rect_2,6,09,-1,-1,1.047,-0.112222222,-0.401111111,1,0,0,2.21,Pegmatite_rect,6,2.21,1,12,0,12,0,1,,,,,,,,,,,,,
6625ac4d6f5a636552f8adf0,TCN,2024-06-25_14h55.30.434,LearnStrategy,2023.2.3,Win32,59.88023952,6,1,14,-0.046666667,0.01,1,0,0,1.198,rock_grid_rect_2,4,16,-1,-1,1.198,-0.344444444,-0.262222222,1,0,0,2.8598,Andesite_rect,1,2.86,0,13,0,13,0,1,,,,,,,,,,,,,
6625ac4d6f5a636552f8adf0,TCN,2024-06-25_14h55.30.434,LearnStrategy,2023.2.3,Win32,59.88023952,6,1,15,-0.013333333,0.017777778,1,0,0,1.4635,rock_grid_rect_2,1,16,-1,-1,1.463,-0.328888889,-0.243333333,1,0,0,2.5435,Andesite_rect,1,2.544,1,14,0,14,0,1,,,,,,,,,,,,,
6625ac4d6f5a636552f8adf0,TCN,2024-06-25_14h55.30.434,LearnStrategy,2023.2.3,Win32,59.88023952,6,1,16,0.021111111,0.002222222,1,0,0,1.2291,rock_grid_rect_2,3,07,-1,-1,1.229,0.11,-0.232222222,1,0,0,1.0609,Diorite_rect,3,1.061,1,15,0,15,0,1,,,,,,,,,,,,,
6625ac4d6f5a636552f8adf0,TCN,2024-06-25_14h55.30.434,LearnStrategy,2023.2.3,Win32,59.88023952,6,2,1,,,,,,,,6,12,,,,,,,,,,,6,6.223,1,,,,,,-0.122222222,-0.393333333,1,0,0,6.2231,Pegmatite_rect,0,0,0,0,1,
6625ac4d6f5a636552f8adf0,TCN,2024-06-25_14h55.30.434,LearnStrategy,2023.2.3,Win32,59.88023952,6,2,2,,,,,,,,2,12,,,,,,,,,,,2,1.76,1,,,,,,-0.106666667,-0.262222222,1,0,0,1.76,Basalt_rect,1,0,1,0,1,
6625ac4d6f5a636552f8adf0,TCN,2024-06-25_14h55.30.434,LearnStrategy,2023.2.3,Win32,59.88023952,6,2,3,,,,,,,,4,10,,,,,,,,,,,4,2.86,1,,,,,,0.323333333,-0.233333333,1,0,0,2.8604,Gabbro_rect,2,0,2,0,1,
6625ac4d6f5a636552f8adf0,TCN,2024-06-25_14h55.30.434,LearnStrategy,2023.2.3,Win32,59.88023952,6,2,4,,,,,,,,2,10,,,,,,,,,,,2,1.794,1,,,,,,-0.074444444,-0.255555556,1,0,0,1.7938,Basalt_rect,3,0,3,0,1,
6625ac4d6f5a636552f8adf0,TCN,2024-06-25_14h55.30.434,LearnStrategy,2023.2.3,Win32,59.88023952,6,2,5,,,,,,,,7,02,,,,,,,,,,,7,1.594,1,,,,,,0.051111111,-0.406666667,1,0,0,1.5936,Peridotite_rect,4,0,4,0,1,
6625ac4d6f5a636552f8adf0,TCN,2024-06-25_14h55.30.434,LearnStrategy,2023.2.3,Win32,59.88023952,6,2,6,,,,,,,,3,13,,,,,,,,,,,3,1.644,1,,,,,,0.034444444,-0.243333333,1,0,0,1.6437,Diorite_rect,5,0,5,0,1,
6625ac4d6f5a636552f8adf0,TCN,2024-06-25_14h55.30.434,LearnStrategy,2023.2.3,Win32,59.88023952,6,2,7,,,,,,,,8,10,,,,,,,,,,,8,2.627,1,,,,,,0.35,-0.398888889,1,0,0,2.6266,Pumice_rect,6,0,6,0,1,
6625ac4d6f5a636552f8adf0,TCN,2024-06-25_14h55.30.434,LearnStrategy,2023.2.3,Win32,59.88023952,6,2,8,,,,,,,,3,15,,,,,,,,,,,3,4.976,1,,,,,,0.077777778,-0.243333333,1,0,0,4.9763,Diorite_rect,7,0,7,0,1,
6625ac4d6f5a636552f8adf0,TCN,2024-06-25_14h55.30.434,LearnStrategy,2023.2.3,Win32,59.88023952,6,2,9,,,,,,,,5,16,,,,,,,,,,,5,1.389,1,,,,,,-0.401111111,-0.405555556,1,0,0,1.3891,Obsidian_rect,8,0,8,0,1,
6625ac4d6f5a636552f8adf0,TCN,2024-06-25_14h55.30.434,LearnStrategy,2023.2.3,Win32,59.88023952,6,2,10,,,,,,,,6,11,,,,,,,,,,,6,1.947,1,,,,,,-0.191111111,-0.404444444,1,0,0,1.9465,Pegmatite_rect,9,0,9,0,1,
6625ac4d6f5a636552f8adf0,TCN,2024-06-25_14h55.30.434,LearnStrategy,2023.2.3,Win32,59.88023952,6,2,11,,,,,,,,4,08,,,,,,,,,,,4,5.289,1,,,,,,0.352222222,-0.261111111,1,0,0,5.2886,Gabbro_rect,10,0,10,0,1,
6625ac4d6f5a636552f8adf0,TCN,2024-06-25_14h55.30.434,LearnStrategy,2023.2.3,Win32,59.88023952,6,2,12,,,,,,,,1,01,,,,,,,,,,,4,1.724,0,,,,,,0.377777778,-0.244444444,1,0,0,1.7241,Gabbro_rect,11,0,11,0,1,
6625ac4d6f5a636552f8adf0,TCN,2024-06-25_14h55.30.434,LearnStrategy,2023.2.3,Win32,59.88023952,6,2,13,,,,,,,,1,09,,,,,,,,,,,1,1.376,1,,,,,,-0.422222222,-0.26,1,0,0,1.3759,Andesite_rect,12,0,12,0,1,
6625ac4d6f5a636552f8adf0,TCN,2024-06-25_14h55.30.434,LearnStrategy,2023.2.3,Win32,59.88023952,6,2,14,,,,,,,,8,09,,,,,,,,,,,8,3.275,1,,,,,,0.34,-0.412222222,1,0,0,3.2753,Pumice_rect,13,0,13,0,1,
6625ac4d6f5a636552f8adf0,TCN,2024-06-25_14h55.30.434,LearnStrategy,2023.2.3,Win32,59.88023952,6,2,15,,,,,,,,5,06,,,,,,,,,,,5,1.459,1,,,,,,-0.381111111,-0.411111111,1,0,0,1.4592,Obsidian_rect,14,0,14,0,1,
6625ac4d6f5a636552f8adf0,TCN,2024-06-25_14h55.30.434,LearnStrategy,2023.2.3,Win32,59.88023952,6,2,16,,,,,,,,7,15,,,,,,,,,,,7,4.489,1,,,,,,0.11,-0.405555556,1,0,0,4.4886,Peridotite_rect,15,0,15,0,1,
6625ac4d6f5a636552f8adf0,TCN,2024-06-25_14h55.30.434,LearnStrategy,2023.2.3,Win32,59.88023952,7,1,1,0.068888889,-0.006666667,1,0,0,2.8306,rock_grid_rect_2,7,07,-1,-1,2.831,0.12,-0.383333333,1,0,0,2.5106,Peridotite_rect,7,2.511,1,0,0,0,0,1,,,,,,,,,,,,,
6625ac4d6f5a636552f8adf0,TCN,2024-06-25_14h55.30.434,LearnStrategy,2023.2.3,Win32,59.88023952,7,1,2,0.04,-0.011111111,1,0,0,1.2473,rock_grid_rect_2,3,16,-1,-1,1.247,0.102222222,-0.242222222,1,0,0,1.477,Diorite_rect,3,1.477,1,1,0,1,0,1,,,,,,,,,,,,,
6625ac4d6f5a636552f8adf0,TCN,2024-06-25_14h55.30.434,LearnStrategy,2023.2.3,Win32,59.88023952,7,1,3,0.035555556,0.001111111,1,0,0,0.8638,rock_grid_rect_2,2,05,-1,-1,0.864,-0.133333333,-0.236666667,1,0,0,1.0833,Basalt_rect,2,1.083,1,2,0,2,0,1,,,,,,,,,,,,,
6625ac4d6f5a636552f8adf0,TCN,2024-06-25_14h55.30.434,LearnStrategy,2023.2.3,Win32,59.88023952,7,1,4,-0.005555556,0.001111111,1,0,0,1.2631,rock_grid_rect_2,2,01,-1,-1,1.263,-0.135555556,-0.247777778,1,0,0,1.1113,Basalt_rect,2,1.111,1,3,0,3,0,1,,,,,,,,,,,,,
6625ac4d6f5a636552f8adf0,TCN,2024-06-25_14h55.30.434,LearnStrategy,2023.2.3,Win32,59.88023952,7,1,5,0.062222222,-0.01,1,0,0,0.9482,rock_grid_rect_2,5,05,-1,-1,0.948,-0.361111111,-0.388888889,1,0,0,2.0941,Obsidian_rect,5,2.094,1,4,0,4,0,1,,,,,,,,,,,,,
6625ac4d6f5a636552f8adf0,TCN,2024-06-25_14h55.30.434,LearnStrategy,2023.2.3,Win32,59.88023952,7,1,6,-0.042222222,-0.011111111,1,0,0,1.2792,rock_grid_rect_2,6,15,-1,-1,1.279,-0.131111111,-0.39,1,0,0,1.7438,Pegmatite_rect,6,1.744,1,5,0,5,0,1,,,,,,,,,,,,,
6625ac4d6f5a636552f8adf0,TCN,2024-06-25_14h55.30.434,LearnStrategy,2023.2.3,Win32,59.88023952,7,1,7,-0.04,-0.006666667,1,0,0,1.0821,rock_grid_rect_2,1,04,-1,-1,1.082,-0.424444444,-0.26,1,0,0,1.2438,Andesite_rect,1,1.244,1,6,0,6,0,1,,,,,,,,,,,,,
6625ac4d6f5a636552f8adf0,TCN,2024-06-25_14h55.30.434,LearnStrategy,2023.2.3,Win32,59.88023952,7,1,8,-0.025555556,0.01,1,0,0,1.0973,rock_grid_rect_2,8,06,-1,-1,1.097,0.418888889,-0.412222222,1,0,0,1.4276,Pumice_rect,8,1.428,1,7,0,7,0,1,,,,,,,,,,,,,
6625ac4d6f5a636552f8adf0,TCN,2024-06-25_14h55.30.434,LearnStrategy,2023.2.3,Win32,59.88023952,7,1,9,0.112222222,-0.012222222,1,0,0,0.9979,rock_grid_rect_2,6,03,-1,-1,0.998,-0.11,-0.39,1,0,0,1.2598,Pegmatite_rect,6,1.26,1,8,0,8,0,1,,,,,,,,,,,,,
6625ac4d6f5a636552f8adf0,TCN,2024-06-25_14h55.30.434,LearnStrategy,2023.2.3,Win32,59.88023952,7,1,10,0.011111111,-0.006666667,1,0,0,1.5807,rock_grid_rect_2,5,14,-1,-1,1.581,-0.34,-0.381111111,1,0,0,2.0604,Obsidian_rect,5,2.06,1,9,0,9,0,1,,,,,,,,,,,,,
6625ac4d6f5a636552f8adf0,TCN,2024-06-25_14h55.30.434,LearnStrategy,2023.2.3,Win32,59.88023952,7,1,11,-0.042222222,0.021111111,1,0,0,1.0648,rock_grid_rect_2,4,15,-1,-1,1.065,0.33,-0.251111111,1,0,0,6.56,Gabbro_rect,4,6.56,1,10,0,10,0,1,,,,,,,,,,,,,
6625ac4d6f5a636552f8adf0,TCN,2024-06-25_14h55.30.434,LearnStrategy,2023.2.3,Win32,59.88023952,7,1,12,0.015555556,0.001111111,1,0,0,1.3955,rock_grid_rect_2,8,03,-1,-1,1.396,0.345555556,-0.394444444,1,0,0,1.7343,Pumice_rect,8,1.734,1,11,0,11,0,1,,,,,,,,,,,,,
6625ac4d6f5a636552f8adf0,TCN,2024-06-25_14h55.30.434,LearnStrategy,2023.2.3,Win32,59.88023952,7,1,13,-0.037777778,-0.021111111,1,0,0,0.798,rock_grid_rect_2,3,08,-1,-1,0.798,0.076666667,-0.253333333,1,0,0,1.1103,Diorite_rect,3,1.11,1,12,0,12,0,1,,,,,,,,,,,,,
6625ac4d6f5a636552f8adf0,TCN,2024-06-25_14h55.30.434,LearnStrategy,2023.2.3,Win32,59.88023952,7,1,14,-0.05,-0.013333333,1,0,0,1.0146,rock_grid_rect_2,1,06,-1,-1,1.015,-0.32,-0.24,1,0,0,1.1434,Andesite_rect,1,1.143,1,13,0,13,0,1,,,,,,,,,,,,,
6625ac4d6f5a636552f8adf0,TCN,2024-06-25_14h55.30.434,LearnStrategy,2023.2.3,Win32,59.88023952,7,1,15,0.002222222,-0.013333333,1,0,0,0.8804,rock_grid_rect_2,7,16,-1,-1,0.88,0.104444444,-0.411111111,1,0,0,1.3107,Peridotite_rect,7,1.311,1,14,0,14,0,1,,,,,,,,,,,,,
6625ac4d6f5a636552f8adf0,TCN,2024-06-25_14h55.30.434,LearnStrategy,2023.2.3,Win32,59.88023952,7,1,16,-0.045555556,-0.005555556,1,0,0,0.9307,rock_grid_rect_2,4,13,-1,-1,0.931,0.391111111,-0.238888889,1,0,0,1.6439,Gabbro_rect,4,1.644,1,15,0,15,0,1,,,,,,,,,,,,,
6625ac4d6f5a636552f8adf0,TCN,2024-06-25_14h55.30.434,LearnStrategy,2023.2.3,Win32,59.88023952,7,2,1,,,,,,,,4,08,,,,,,,,,,,4,2.176,1,,,,,,0.34,-0.235555556,1,0,0,2.1756,Gabbro_rect,0,0,0,0,1,
6625ac4d6f5a636552f8adf0,TCN,2024-06-25_14h55.30.434,LearnStrategy,2023.2.3,Win32,59.88023952,7,2,2,,,,,,,,6,05,,,,,,,,,,,6,1.342,1,,,,,,-0.117777778,-0.408888889,1,0,0,1.3421,Pegmatite_rect,1,0,1,0,1,
6625ac4d6f5a636552f8adf0,TCN,2024-06-25_14h55.30.434,LearnStrategy,2023.2.3,Win32,59.88023952,7,2,3,,,,,,,,8,09,,,,,,,,,,,8,1.676,1,,,,,,0.338888889,-0.391111111,1,0,0,1.6761,Pumice_rect,2,0,2,0,1,
6625ac4d6f5a636552f8adf0,TCN,2024-06-25_14h55.30.434,LearnStrategy,2023.2.3,Win32,59.88023952,7,2,4,,,,,,,,7,15,,,,,,,,,,,7,1.523,1,,,,,,0.206666667,-0.395555556,1,0,0,1.5232,Peridotite_rect,3,0,3,0,1,
6625ac4d6f5a636552f8adf0,TCN,2024-06-25_14h55.30.434,LearnStrategy,2023.2.3,Win32,59.88023952,7,2,5,,,,,,,,3,02,,,,,,,,,,,3,1.439,1,,,,,,0.125555556,-0.244444444,1,0,0,1.4386,Diorite_rect,4,0,4,0,1,
6625ac4d6f5a636552f8adf0,TCN,2024-06-25_14h55.30.434,LearnStrategy,2023.2.3,Win32,59.88023952,7,2,6,,,,,,,,2,12,,,,,,,,,,,2,1.058,1,,,,,,-0.164444444,-0.264444444,1,0,0,1.0577,Basalt_rect,5,0,5,0,1,
6625ac4d6f5a636552f8adf0,TCN,2024-06-25_14h55.30.434,LearnStrategy,2023.2.3,Win32,59.88023952,7,2,7,,,,,,,,5,02,,,,,,,,,,,5,1.073,1,,,,,,-0.347777778,-0.382222222,1,0,0,1.0728,Obsidian_rect,6,0,6,0,1,
6625ac4d6f5a636552f8adf0,TCN,2024-06-25_14h55.30.434,LearnStrategy,2023.2.3,Win32,59.88023952,7,2,8,,,,,,,,6,12,,,,,,,,,,,6,1.306,1,,,,,,-0.141111111,-0.393333333,1,0,0,1.3063,Pegmatite_rect,7,0,7,0,1,
6625ac4d6f5a636552f8adf0,TCN,2024-06-25_14h55.30.434,LearnStrategy,2023.2.3,Win32,59.88023952,7,2,9,,,,,,,,4,10,,,,,,,,,,,4,1.908,1,,,,,,0.436666667,-0.267777778,1,0,0,1.9084,Gabbro_rect,8,0,8,0,1,
6625ac4d6f5a636552f8adf0,TCN,2024-06-25_14h55.30.434,LearnStrategy,2023.2.3,Win32,59.88023952,7,2,10,,,,,,,,7,06,,,,,,,,,,,7,1.91,1,,,,,,0.086666667,-0.416666667,1,0,0,1.9096,Peridotite_rect,9,0,9,0,1,
6625ac4d6f5a636552f8adf0,TCN,2024-06-25_14h55.30.434,LearnStrategy,2023.2.3,Win32,59.88023952,7,2,11,,,,,,,,3,11,,,,,,,,,,,3,2.742,1,,,,,,0.106666667,-0.25,1,0,0,2.7422,Diorite_rect,10,0,10,0,1,
6625ac4d6f5a636552f8adf0,TCN,2024-06-25_14h55.30.434,LearnStrategy,2023.2.3,Win32,59.88023952,7,2,12,,,,,,,,8,08,,,,,,,,,,,8,2.893,1,,,,,,0.372222222,-0.413333333,1,0,0,2.8932,Pumice_rect,11,0,11,0,1,
6625ac4d6f5a636552f8adf0,TCN,2024-06-25_14h55.30.434,LearnStrategy,2023.2.3,Win32,59.88023952,7,2,13,,,,,,,,2,04,,,,,,,,,,,2,1.742,1,,,,,,-0.143333333,-0.253333333,1,0,0,1.7424,Basalt_rect,12,0,12,0,1,
6625ac4d6f5a636552f8adf0,TCN,2024-06-25_14h55.30.434,LearnStrategy,2023.2.3,Win32,59.88023952,7,2,14,,,,,,,,1,14,,,,,,,,,,,1,3.69,1,,,,,,-0.398888889,-0.271111111,1,0,0,3.6902,Andesite_rect,13,0,13,0,1,
6625ac4d6f5a636552f8adf0,TCN,2024-06-25_14h55.30.434,LearnStrategy,2023.2.3,Win32,59.88023952,7,2,15,,,,,,,,1,02,,,,,,,,,,,1,1.326,1,,,,,,-0.448888889,-0.26,1,0,0,1.3262,Andesite_rect,14,0,14,0,1,
6625ac4d6f5a636552f8adf0,TCN,2024-06-25_14h55.30.434,LearnStrategy,2023.2.3,Win32,59.88023952,7,2,16,,,,,,,,5,06,,,,,,,,,,,5,1.659,1,,,,,,-0.4,-0.395555556,1,0,0,1.6591,Obsidian_rect,15,0,15,0,1,
6625ac4d6f5a636552f8adf0,TCN,2024-06-25_14h55.30.434,LearnStrategy,2023.2.3,Win32,59.88023952,8,1,1,0.018888889,0.004444444,1,0,0,2.8648,rock_grid_rect_2,2,14,-1,-1,2.865,0.37,-0.255555556,1,0,0,4.6084,Gabbro_rect,4,4.608,0,0,0,0,0,1,,,,,,,,,,,,,
6625ac4d6f5a636552f8adf0,TCN,2024-06-25_14h55.30.434,LearnStrategy,2023.2.3,Win32,59.88023952,8,1,2,-0.02,0.021111111,1,0,0,1.3636,rock_grid_rect_2,6,08,-1,-1,1.364,-0.097777778,-0.386666667,1,0,0,1.8769,Pegmatite_rect,6,1.877,1,1,0,1,0,1,,,,,,,,,,,,,
6625ac4d6f5a636552f8adf0,TCN,2024-06-25_14h55.30.434,LearnStrategy,2023.2.3,Win32,59.88023952,8,1,3,-0.032222222,0.01,1,0,0,0.7803,rock_grid_rect_2,8,13,-1,-1,0.78,0.363333333,-0.381111111,1,0,0,1.1436,Pumice_rect,8,1.144,1,2,0,2,0,1,,,,,,,,,,,,,
6625ac4d6f5a636552f8adf0,TCN,2024-06-25_14h55.30.434,LearnStrategy,2023.2.3,Win32,59.88023952,8,1,4,-0.073333333,-0.023333333,1,0,0,0.9989,rock_grid_rect_2,3,09,-1,-1,0.999,0.064444444,-0.236666667,1,0,0,0.9442,Diorite_rect,3,0.944,1,3,0,3,0,1,,,,,,,,,,,,,
6625ac4d6f5a636552f8adf0,TCN,2024-06-25_14h55.30.434,LearnStrategy,2023.2.3,Win32,59.88023952,8,1,5,-0.004444444,0.001111111,1,0,0,0.8488,rock_grid_rect_2,1,16,-1,-1,0.849,-0.382222222,-0.25,1,0,0,1.0273,Andesite_rect,1,1.027,1,4,0,4,0,1,,,,,,,,,,,,,
6625ac4d6f5a636552f8adf0,TCN,2024-06-25_14h55.30.434,LearnStrategy,2023.2.3,Win32,59.88023952,8,1,6,0.03,-0.018888889,1,0,0,0.8979,rock_grid_rect_2,3,06,-1,-1,0.898,0.086666667,-0.231111111,1,0,0,1.1093,Diorite_rect,3,1.109,1,5,0,5,0,1,,,,,,,,,,,,,
6625ac4d6f5a636552f8adf0,TCN,2024-06-25_14h55.30.434,LearnStrategy,2023.2.3,Win32,59.88023952,8,1,7,0.017777778,-0.02,1,0,0,0.6981,rock_grid_rect_2,1,11,-1,-1,0.698,-0.306666667,-0.233333333,1,0,0,1.9441,Andesite_rect,1,1.944,1,6,0,6,0,1,,,,,,,,,,,,,
6625ac4d6f5a636552f8adf0,TCN,2024-06-25_14h55.30.434,LearnStrategy,2023.2.3,Win32,59.88023952,8,1,8,-0.003333333,-0.006666667,1,0,0,0.9479,rock_grid_rect_2,7,08,-1,-1,0.948,0.116666667,-0.38,1,0,0,1.1602,Peridotite_rect,7,1.16,1,7,0,7,0,1,,,,,,,,,,,,,
6625ac4d6f5a636552f8adf0,TCN,2024-06-25_14h55.30.434,LearnStrategy,2023.2.3,Win32,59.88023952,8,1,9,-0.04,-0.005555556,1,0,0,1.1125,rock_grid_rect_2,2,09,-1,-1,1.113,-0.085555556,-0.251111111,1,0,0,1.5431,Basalt_rect,2,1.543,1,8,0,8,0,1,,,,,,,,,,,,,
6625ac4d6f5a636552f8adf0,TCN,2024-06-25_14h55.30.434,LearnStrategy,2023.2.3,Win32,59.88023952,8,1,10,-0.028888889,-0.021111111,1,0,0,1.0301,rock_grid_rect_2,7,04,-1,-1,1.03,0.107777778,-0.406666667,1,0,0,3.2272,Peridotite_rect,7,3.227,1,9,0,9,0,1,,,,,,,,,,,,,
6625ac4d6f5a636552f8adf0,TCN,2024-06-25_14h55.30.434,LearnStrategy,2023.2.3,Win32,59.88023952,8,1,11,-0.01,-0.011111111,1,0,0,0.8136,rock_grid_rect_2,4,11,-1,-1,0.814,0.344444444,-0.254444444,1,0,0,4.0102,Gabbro_rect,4,4.01,1,10,0,10,0,1,,,,,,,,,,,,,
6625ac4d6f5a636552f8adf0,TCN,2024-06-25_14h55.30.434,LearnStrategy,2023.2.3,Win32,59.88023952,8,1,12,-0.063333333,-0.004444444,1,0,0,0.9138,rock_grid_rect_2,8,16,-1,-1,0.914,0.416666667,-0.415555556,1,0,0,1.0104,Pumice_rect,8,1.01,1,11,0,11,0,1,,,,,,,,,,,,,
6625ac4d6f5a636552f8adf0,TCN,2024-06-25_14h55.30.434,LearnStrategy,2023.2.3,Win32,59.88023952,8,1,13,0.017777778,0.004444444,1,0,0,0.731,rock_grid_rect_2,5,09,-1,-1,0.731,-0.316666667,-0.385555556,1,0,0,1.3788,Obsidian_rect,5,1.379,1,12,0,12,0,1,,,,,,,,,,,,,
6625ac4d6f5a636552f8adf0,TCN,2024-06-25_14h55.30.434,LearnStrategy,2023.2.3,Win32,59.88023952,8,1,14,-0.034444444,-0.01,1,0,0,0.6822,rock_grid_rect_2,6,09,-1,-1,0.682,-0.092222222,-0.38,1,0,0,1.16,Pegmatite_rect,6,1.16,1,13,0,13,0,1,,,,,,,,,,,,,
6625ac4d6f5a636552f8adf0,TCN,2024-06-25_14h55.30.434,LearnStrategy,2023.2.3,Win32,59.88023952,8,1,15,-0.031111111,0.005555556,1,0,0,0.8139,rock_grid_rect_2,5,04,-1,-1,0.814,-0.331111111,-0.381111111,1,0,0,1.0594,Obsidian_rect,5,1.059,1,14,0,14,0,1,,,,,,,,,,,,,
6625ac4d6f5a636552f8adf0,TCN,2024-06-25_14h55.30.434,LearnStrategy,2023.2.3,Win32,59.88023952,8,1,16,-0.115555556,0.003333333,1,0,0,0.9987,rock_grid_rect_2,4,16,-1,-1,0.999,0.385555556,-0.25,1,0,0,1.3423,Gabbro_rect,4,1.342,1,15,0,15,0,1,,,,,,,,,,,,,
6625ac4d6f5a636552f8adf0,TCN,2024-06-25_14h55.30.434,LearnStrategy,2023.2.3,Win32,59.88023952,8,2,1,,,,,,,,8,15,,,,,,,,,,,8,2.659,1,,,,,,0.38,-0.392222222,1,0,0,2.6593,Pumice_rect,0,0,0,0,1,
6625ac4d6f5a636552f8adf0,TCN,2024-06-25_14h55.30.434,LearnStrategy,2023.2.3,Win32,59.88023952,8,2,2,,,,,,,,2,02,,,,,,,,,,,2,35.482,1,,,,,,-0.156666667,-0.264444444,1,0,0,35.4816,Basalt_rect,1,0,1,0,1,
6625ac4d6f5a636552f8adf0,TCN,2024-06-25_14h55.30.434,LearnStrategy,2023.2.3,Win32,59.88023952,8,2,3,,,,,,,,7,13,,,,,,,,,,,7,1.253,1,,,,,,0.058888889,-0.402222222,1,0,0,1.2527,Peridotite_rect,2,0,2,0,1,
6625ac4d6f5a636552f8adf0,TCN,2024-06-25_14h55.30.434,LearnStrategy,2023.2.3,Win32,59.88023952,8,2,4,,,,,,,,2,16,,,,,,,,,,,4,2.507,0,,,,,,0.406666667,-0.247777778,1,0,0,2.5072,Gabbro_rect,3,0,3,0,1,
6625ac4d6f5a636552f8adf0,TCN,2024-06-25_14h55.30.434,LearnStrategy,2023.2.3,Win32,59.88023952,8,2,5,,,,,,,,5,12,,,,,,,,,,,5,1.104,1,,,,,,-0.353333333,-0.405555556,1,0,0,1.1039,Obsidian_rect,4,0,4,0,1,
6625ac4d6f5a636552f8adf0,TCN,2024-06-25_14h55.30.434,LearnStrategy,2023.2.3,Win32,59.88023952,8,2,6,,,,,,,,8,02,,,,,,,,,,,8,1.443,1,,,,,,0.368888889,-0.401111111,1,0,0,1.4428,Pumice_rect,5,0,5,0,1,
6625ac4d6f5a636552f8adf0,TCN,2024-06-25_14h55.30.434,LearnStrategy,2023.2.3,Win32,59.88023952,8,2,7,,,,,,,,1,09,,,,,,,,,,,1,2.712,1,,,,,,-0.405555556,-0.255555556,1,0,0,2.7124,Andesite_rect,6,0,6,0,1,
6625ac4d6f5a636552f8adf0,TCN,2024-06-25_14h55.30.434,LearnStrategy,2023.2.3,Win32,59.88023952,8,2,8,,,,,,,,4,14,,,,,,,,,,,4,1.91,1,,,,,,0.406666667,-0.24,1,0,0,1.9103,Gabbro_rect,7,0,7,0,1,
6625ac4d6f5a636552f8adf0,TCN,2024-06-25_14h55.30.434,LearnStrategy,2023.2.3,Win32,59.88023952,8,2,9,,,,,,,,6,10,,,,,,,,,,,6,2.676,1,,,,,,-0.114444444,-0.41,1,0,0,2.6759,Pegmatite_rect,8,0,8,0,1,
6625ac4d6f5a636552f8adf0,TCN,2024-06-25_14h55.30.434,LearnStrategy,2023.2.3,Win32,59.88023952,8,2,10,,,,,,,,6,13,,,,,,,,,,,6,5.31,1,,,,,,-0.135555556,-0.397777778,1,0,0,5.3099,Pegmatite_rect,9,0,9,0,1,
6625ac4d6f5a636552f8adf0,TCN,2024-06-25_14h55.30.434,LearnStrategy,2023.2.3,Win32,59.88023952,8,2,11,,,,,,,,5,16,,,,,,,,,,,5,1.05,1,,,,,,-0.326666667,-0.38,1,0,0,1.0504,Obsidian_rect,10,0,10,0,1,
6625ac4d6f5a636552f8adf0,TCN,2024-06-25_14h55.30.434,LearnStrategy,2023.2.3,Win32,59.88023952,8,2,12,,,,,,,,3,15,,,,,,,,,,,3,1.476,1,,,,,,0.123333333,-0.246666667,1,0,0,1.4758,Diorite_rect,11,0,11,0,1,
6625ac4d6f5a636552f8adf0,TCN,2024-06-25_14h55.30.434,LearnStrategy,2023.2.3,Win32,59.88023952,8,2,13,,,,,,,,1,01,,,,,,,,,,,4,2.342,0,,,,,,0.355555556,-0.231111111,1,0,0,2.3416,Gabbro_rect,12,0,12,0,1,
6625ac4d6f5a636552f8adf0,TCN,2024-06-25_14h55.30.434,LearnStrategy,2023.2.3,Win32,59.88023952,8,2,14,,,,,,,,7,12,,,,,,,,,,,7,4.24,1,,,,,,0.077777778,-0.384444444,1,0,0,4.2398,Peridotite_rect,13,0,13,0,1,
6625ac4d6f5a636552f8adf0,TCN,2024-06-25_14h55.30.434,LearnStrategy,2023.2.3,Win32,59.88023952,8,2,15,,,,,,,,3,14,,,,,,,,,,,3,1.134,1,,,,,,0.08,-0.254444444,1,0,0,1.1339,Diorite_rect,14,0,14,0,1,
6625ac4d6f5a636552f8adf0,TCN,2024-06-25_14h55.30.434,LearnStrategy,2023.2.3,Win32,59.88023952,8,2,16,,,,,,,,4,09,,,,,,,,,,,4,5.792,1,,,,,,0.345555556,-0.255555556,1,0,0,5.7919,Gabbro_rect,15,0,15,0,1,
6625ac4d6f5a636552f8adf0,TCN,2024-06-25_14h55.30.434,LearnStrategy,2023.2.3,Win32,59.88023952,9,1,1,-0.052222222,-0.01,1,0,0,1.0822,rock_grid_rect_2,7,05,-1,-1,1.082,0.067777778,-0.413333333,1,0,0,4.8023,Peridotite_rect,7,4.802,1,0,0,0,0,1,,,,,,,,,,,,,
6625ac4d6f5a636552f8adf0,TCN,2024-06-25_14h55.30.434,LearnStrategy,2023.2.3,Win32,59.88023952,9,1,2,-0.011111111,-0.017777778,1,0,0,0.9037,rock_grid_rect_2,6,16,-1,-1,0.904,-0.111111111,-0.417777778,1,0,0,1.7868,Pegmatite_rect,6,1.787,1,1,0,1,0,1,,,,,,,,,,,,,
6625ac4d6f5a636552f8adf0,TCN,2024-06-25_14h55.30.434,LearnStrategy,2023.2.3,Win32,59.88023952,9,1,3,-0.036666667,0.002222222,1,0,0,1.0797,rock_grid_rect_2,3,10,-1,-1,1.08,0.096666667,-0.241111111,1,0,0,2.0104,Diorite_rect,3,2.01,1,2,0,2,0,1,,,,,,,,,,,,,
6625ac4d6f5a636552f8adf0,TCN,2024-06-25_14h55.30.434,LearnStrategy,2023.2.3,Win32,59.88023952,9,1,4,0.006666667,0.01,1,0,0,0.9811,rock_grid_rect_2,8,05,-1,-1,0.981,0.321111111,-0.386666667,1,0,0,1.8264,Pumice_rect,8,1.826,1,3,0,3,0,1,,,,,,,,,,,,,
6625ac4d6f5a636552f8adf0,TCN,2024-06-25_14h55.30.434,LearnStrategy,2023.2.3,Win32,59.88023952,9,1,5,-0.015555556,-0.024444444,1,0,0,1.1819,rock_grid_rect_2,5,07,-1,-1,1.182,-0.355555556,-0.406666667,1,0,0,1.1268,Obsidian_rect,5,1.127,1,4,0,4,0,1,,,,,,,,,,,,,
6625ac4d6f5a636552f8adf0,TCN,2024-06-25_14h55.30.434,LearnStrategy,2023.2.3,Win32,59.88023952,9,1,6,-0.008888889,0.006666667,1,0,0,0.93,rock_grid_rect_2,1,07,-1,-1,0.93,-0.393333333,-0.253333333,1,0,0,1.1599,Andesite_rect,1,1.16,1,5,0,5,0,1,,,,,,,,,,,,,
6625ac4d6f5a636552f8adf0,TCN,2024-06-25_14h55.30.434,LearnStrategy,2023.2.3,Win32,59.88023952,9,1,7,-0.044444444,-0.013333333,1,0,0,0.7138,rock_grid_rect_2,8,14,-1,-1,0.714,0.31,-0.407777778,1,0,0,1.1428,Pumice_rect,8,1.143,1,6,0,6,0,1,,,,,,,,,,,,,
6625ac4d6f5a636552f8adf0,TCN,2024-06-25_14h55.30.434,LearnStrategy,2023.2.3,Win32,59.88023952,9,1,8,-0.05,-0.023333333,1,0,0,0.8638,rock_grid_rect_2,2,08,-1,-1,0.864,-0.116666667,-0.244444444,1,0,0,1.1403,Basalt_rect,2,1.14,1,7,0,7,0,1,,,,,,,,,,,,,
6625ac4d6f5a636552f8adf0,TCN,2024-06-25_14h55.30.434,LearnStrategy,2023.2.3,Win32,59.88023952,9,1,9,0.024444444,-0.013333333,1,0,0,0.6801,rock_grid_rect_2,3,07,-1,-1,0.68,0.126666667,-0.268888889,1,0,0,1.6098,Diorite_rect,3,1.61,1,8,0,8,0,1,,,,,,,,,,,,,
6625ac4d6f5a636552f8adf0,TCN,2024-06-25_14h55.30.434,LearnStrategy,2023.2.3,Win32,59.88023952,9,1,10,0.004444444,-0.003333333,1,0,0,1.0473,rock_grid_rect_2,4,01,-1,-1,1.047,0.371111111,-0.242222222,1,0,0,2.094,Gabbro_rect,4,2.094,1,9,0,9,0,1,,,,,,,,,,,,,
6625ac4d6f5a636552f8adf0,TCN,2024-06-25_14h55.30.434,LearnStrategy,2023.2.3,Win32,59.88023952,9,1,11,0,0.017777778,1,0,0,0.9637,rock_grid_rect_2,5,08,-1,-1,0.964,-0.35,-0.39,1,0,0,3.5769,Obsidian_rect,5,3.577,1,10,0,10,0,1,,,,,,,,,,,,,
6625ac4d6f5a636552f8adf0,TCN,2024-06-25_14h55.30.434,LearnStrategy,2023.2.3,Win32,59.88023952,9,1,12,-0.026666667,-0.022222222,1,0,0,1.2631,rock_grid_rect_2,4,03,-1,-1,1.263,0.143333333,-0.247777778,1,0,0,2.5096,Diorite_rect,3,2.51,0,11,0,11,0,1,,,,,,,,,,,,,
6625ac4d6f5a636552f8adf0,TCN,2024-06-25_14h55.30.434,LearnStrategy,2023.2.3,Win32,59.88023952,9,1,13,-0.061111111,0.003333333,1,0,0,1.3465,rock_grid_rect_2,2,11,-1,-1,1.347,-0.138888889,-0.23,1,0,0,2.7767,Basalt_rect,2,2.777,1,12,0,12,0,1,,,,,,,,,,,,,
6625ac4d6f5a636552f8adf0,TCN,2024-06-25_14h55.30.434,LearnStrategy,2023.2.3,Win32,59.88023952,9,1,14,-0.061111111,-0.006666667,1,0,0,1.0147,rock_grid_rect_2,7,10,-1,-1,1.015,0.088888889,-0.384444444,1,0,0,1.5938,Peridotite_rect,7,1.594,1,13,0,13,0,1,,,,,,,,,,,,,
6625ac4d6f5a636552f8adf0,TCN,2024-06-25_14h55.30.434,LearnStrategy,2023.2.3,Win32,59.88023952,9,1,15,-0.105555556,-0.007777778,1,0,0,0.7318,rock_grid_rect_2,1,03,-1,-1,0.732,-0.366666667,-0.264444444,1,0,0,1.1606,Andesite_rect,1,1.161,1,14,0,14,0,1,,,,,,,,,,,,,
6625ac4d6f5a636552f8adf0,TCN,2024-06-25_14h55.30.434,LearnStrategy,2023.2.3,Win32,59.88023952,9,1,16,-0.041111111,0.004444444,1,0,0,0.8624,rock_grid_rect_2,6,06,-1,-1,0.862,-0.144444444,-0.395555556,1,0,0,1.3604,Pegmatite_rect,6,1.36,1,15,0,15,0,1,,,,,,,,,,,,,
6625ac4d6f5a636552f8adf0,TCN,2024-06-25_14h55.30.434,LearnStrategy,2023.2.3,Win32,59.88023952,9,2,1,,,,,,,,4,12,,,,,,,,,,,4,3.158,1,,,,,,0.346666667,-0.253333333,1,0,0,3.1584,Gabbro_rect,0,0,0,0,1,
6625ac4d6f5a636552f8adf0,TCN,2024-06-25_14h55.30.434,LearnStrategy,2023.2.3,Win32,59.88023952,9,2,2,,,,,,,,5,10,,,,,,,,,,,5,1.703,1,,,,,,-0.403333333,-0.404444444,1,0,0,1.7027,Obsidian_rect,1,0,1,0,1,
6625ac4d6f5a636552f8adf0,TCN,2024-06-25_14h55.30.434,LearnStrategy,2023.2.3,Win32,59.88023952,9,2,3,,,,,,,,6,07,,,,,,,,,,,6,1.859,1,,,,,,-0.113333333,-0.393333333,1,0,0,1.8593,Pegmatite_rect,2,0,2,0,1,
6625ac4d6f5a636552f8adf0,TCN,2024-06-25_14h55.30.434,LearnStrategy,2023.2.3,Win32,59.88023952,9,2,4,,,,,,,,6,11,,,,,,,,,,,6,2.926,1,,,,,,-0.133333333,-0.418888889,1,0,0,2.9257,Pegmatite_rect,3,0,3,0,1,
6625ac4d6f5a636552f8adf0,TCN,2024-06-25_14h55.30.434,LearnStrategy,2023.2.3,Win32,59.88023952,9,2,5,,,,,,,,7,14,,,,,,,,,,,7,1.62,1,,,,,,0.105555556,-0.397777778,1,0,0,1.6199,Peridotite_rect,4,0,4,0,1,
6625ac4d6f5a636552f8adf0,TCN,2024-06-25_14h55.30.434,LearnStrategy,2023.2.3,Win32,59.88023952,9,2,6,,,,,,,,8,04,,,,,,,,,,,8,1.19,1,,,,,,0.332222222,-0.382222222,1,0,0,1.1898,Pumice_rect,5,0,5,0,1,
6625ac4d6f5a636552f8adf0,TCN,2024-06-25_14h55.30.434,LearnStrategy,2023.2.3,Win32,59.88023952,9,2,7,,,,,,,,3,12,,,,,,,,,,,3,3.159,1,,,,,,0.04,-0.266666667,1,0,0,3.1593,Diorite_rect,6,0,6,0,1,
6625ac4d6f5a636552f8adf0,TCN,2024-06-25_14h55.30.434,LearnStrategy,2023.2.3,Win32,59.88023952,9,2,8,,,,,,,,2,06,,,,,,,,,,,2,0.985,1,,,,,,-0.112222222,-0.266666667,1,0,0,0.9847,Basalt_rect,7,0,7,0,1,
6625ac4d6f5a636552f8adf0,TCN,2024-06-25_14h55.30.434,LearnStrategy,2023.2.3,Win32,59.88023952,9,2,9,,,,,,,,5,11,,,,,,,,,,,5,1.325,1,,,,,,-0.386666667,-0.414444444,1,0,0,1.3252,Obsidian_rect,8,0,8,0,1,
6625ac4d6f5a636552f8adf0,TCN,2024-06-25_14h55.30.434,LearnStrategy,2023.2.3,Win32,59.88023952,9,2,10,,,,,,,,7,02,,,,,,,,,,,7,1.058,1,,,,,,0.091111111,-0.415555556,1,0,0,1.0577,Peridotite_rect,9,0,9,0,1,
6625ac4d6f5a636552f8adf0,TCN,2024-06-25_14h55.30.434,LearnStrategy,2023.2.3,Win32,59.88023952,9,2,11,,,,,,,,4,05,,,,,,,,,,,4,2.474,1,,,,,,0.36,-0.257777778,1,0,0,2.4739,Gabbro_rect,10,0,10,0,1,
6625ac4d6f5a636552f8adf0,TCN,2024-06-25_14h55.30.434,LearnStrategy,2023.2.3,Win32,59.88023952,9,2,12,,,,,,,,1,10,,,,,,,,,,,2,3.936,0,,,,,,-0.041111111,-0.248888889,1,0,0,3.9358,Basalt_rect,11,0,11,0,1,
6625ac4d6f5a636552f8adf0,TCN,2024-06-25_14h55.30.434,LearnStrategy,2023.2.3,Win32,59.88023952,9,2,13,,,,,,,,3,13,,,,,,,,,,,3,2.853,1,,,,,,0.117777778,-0.258888889,1,0,0,2.8531,Diorite_rect,12,0,12,0,1,
6625ac4d6f5a636552f8adf0,TCN,2024-06-25_14h55.30.434,LearnStrategy,2023.2.3,Win32,59.88023952,9,2,14,,,,,,,,2,10,,,,,,,,,,,2,1.65,1,,,,,,-0.135555556,-0.238888889,1,0,0,1.6499,Basalt_rect,13,0,13,0,1,
6625ac4d6f5a636552f8adf0,TCN,2024-06-25_14h55.30.434,LearnStrategy,2023.2.3,Win32,59.88023952,9,2,15,,,,,,,,8,10,,,,,,,,,,,8,1.18,1,,,,,,0.332222222,-0.382222222,1,0,0,1.1802,Pumice_rect,14,0,14,0,1,
6625ac4d6f5a636552f8adf0,TCN,2024-06-25_14h55.30.434,LearnStrategy,2023.2.3,Win32,59.88023952,9,2,16,,,,,,,,1,05,,,,,,,,,,,1,1.676,1,,,,,,-0.392222222,-0.26,1,0,0,1.6761,Andesite_rect,15,0,15,0,1,
6625ac4d6f5a636552f8adf0,TCN,2024-06-25_14h55.30.434,LearnStrategy,2023.2.3,Win32,59.88023952,,,,,,,,,,,,,,,,,,,,,,,,,,,,,,,,,,,,,,,,,,,1
6625ac4d6f5a636552f8adf0,TCN,2024-06-25_14h55.30.434,LearnStrategy,2023.2.3,Win32,59.88023952,,,,,,,,,,,,,,,,,,,,,,,,,,,,,,,,,,,,,,,,,,,
6625ac4d6f5a636552f8adf0,TCN,2024-06-25_14h55.30.434,LearnStrategy,2023.2.3,Win32,59.88023952,,,,,,,,,,,7,10,1,1,,,,,,,,,,,,,,,,,,,,,,,,,,,,,
6625ac4d6f5a636552f8adf0,TCN,2024-06-25_14h55.30.434,LearnStrategy,2023.2.3,Win32,59.88023952,,,,,,,,,,,1,16,1,2,,,,,,,,,,,,,,,,,,,,,,,,,,,,,
6625ac4d6f5a636552f8adf0,TCN,2024-06-25_14h55.30.434,LearnStrategy,2023.2.3,Win32,59.88023952,,,,,,,,,,,5,08,1,3,,,,,,,,,,,,,,,,,,,,,,,,,,,,,
6625ac4d6f5a636552f8adf0,TCN,2024-06-25_14h55.30.434,LearnStrategy,2023.2.3,Win32,59.88023952,,,,,,,,,,,1,06,1,4,,,,,,,,,,,,,,,,,,,,,,,,,,,,,
6625ac4d6f5a636552f8adf0,TCN,2024-06-25_14h55.30.434,LearnStrategy,2023.2.3,Win32,59.88023952,,,,,,,,,,,8,14,1,5,,,,,,,,,,,,,,,,,,,,,,,,,,,,,
6625ac4d6f5a636552f8adf0,TCN,2024-06-25_14h55.30.434,LearnStrategy,2023.2.3,Win32,59.88023952,,,,,,,,,,,4,01,1,6,,,,,,,,,,,,,,,,,,,,,,,,,,,,,
6625ac4d6f5a636552f8adf0,TCN,2024-06-25_14h55.30.434,LearnStrategy,2023.2.3,Win32,59.88023952,,,,,,,,,,,3,08,1,7,,,,,,,,,,,,,,,,,,,,,,,,,,,,,
6625ac4d6f5a636552f8adf0,TCN,2024-06-25_14h55.30.434,LearnStrategy,2023.2.3,Win32,59.88023952,,,,,,,,,,,8,16,1,8,,,,,,,,,,,,,,,,,,,,,,,,,,,,,
6625ac4d6f5a636552f8adf0,TCN,2024-06-25_14h55.30.434,LearnStrategy,2023.2.3,Win32,59.88023952,,,,,,,,,,,8,13,2,1,,,,,,,,,,,,,,,,,,,,,,,,,,,,,
6625ac4d6f5a636552f8adf0,TCN,2024-06-25_14h55.30.434,LearnStrategy,2023.2.3,Win32,59.88023952,,,,,,,,,,,4,13,2,2,,,,,,,,,,,,,,,,,,,,,,,,,,,,,
6625ac4d6f5a636552f8adf0,TCN,2024-06-25_14h55.30.434,LearnStrategy,2023.2.3,Win32,59.88023952,,,,,,,,,,,3,16,2,3,,,,,,,,,,,,,,,,,,,,,,,,,,,,,
6625ac4d6f5a636552f8adf0,TCN,2024-06-25_14h55.30.434,LearnStrategy,2023.2.3,Win32,59.88023952,,,,,,,,,,,3,06,2,4,,,,,,,,,,,,,,,,,,,,,,,,,,,,,
6625ac4d6f5a636552f8adf0,TCN,2024-06-25_14h55.30.434,LearnStrategy,2023.2.3,Win32,59.88023952,,,,,,,,,,,2,01,2,5,,,,,,,,,,,,,,,,,,,,,,,,,,,,,
6625ac4d6f5a636552f8adf0,TCN,2024-06-25_14h55.30.434,LearnStrategy,2023.2.3,Win32,59.88023952,,,,,,,,,,,7,04,2,6,,,,,,,,,,,,,,,,,,,,,,,,,,,,,
6625ac4d6f5a636552f8adf0,TCN,2024-06-25_14h55.30.434,LearnStrategy,2023.2.3,Win32,59.88023952,,,,,,,,,,,6,06,2,7,,,,,,,,,,,,,,,,,,,,,,,,,,,,,
6625ac4d6f5a636552f8adf0,TCN,2024-06-25_14h55.30.434,LearnStrategy,2023.2.3,Win32,59.88023952,,,,,,,,,,,6,08,2,8,,,,,,,,,,,,,,,,,,,,,,,,,,,,,
6625ac4d6f5a636552f8adf0,TCN,2024-06-25_14h55.30.434,LearnStrategy,2023.2.3,Win32,59.88023952,,,,,,,,,,,2,05,3,1,,,,,,,,,,,,,,,,,,,,,,,,,,,,,
6625ac4d6f5a636552f8adf0,TCN,2024-06-25_14h55.30.434,LearnStrategy,2023.2.3,Win32,59.88023952,,,,,,,,,,,5,14,3,2,,,,,,,,,,,,,,,,,,,,,,,,,,,,,
6625ac4d6f5a636552f8adf0,TCN,2024-06-25_14h55.30.434,LearnStrategy,2023.2.3,Win32,59.88023952,,,,,,,,,,,1,03,3,3,,,,,,,,,,,,,,,,,,,,,,,,,,,,,
6625ac4d6f5a636552f8adf0,TCN,2024-06-25_14h55.30.434,LearnStrategy,2023.2.3,Win32,59.88023952,,,,,,,,,,,1,04,3,4,,,,,,,,,,,,,,,,,,,,,,,,,,,,,
6625ac4d6f5a636552f8adf0,TCN,2024-06-25_14h55.30.434,LearnStrategy,2023.2.3,Win32,59.88023952,,,,,,,,,,,5,07,3,5,,,,,,,,,,,,,,,,,,,,,,,,,,,,,
6625ac4d6f5a636552f8adf0,TCN,2024-06-25_14h55.30.434,LearnStrategy,2023.2.3,Win32,59.88023952,,,,,,,,,,,8,06,3,6,,,,,,,,,,,,,,,,,,,,,,,,,,,,,
6625ac4d6f5a636552f8adf0,TCN,2024-06-25_14h55.30.434,LearnStrategy,2023.2.3,Win32,59.88023952,,,,,,,,,,,6,03,3,7,,,,,,,,,,,,,,,,,,,,,,,,,,,,,
6625ac4d6f5a636552f8adf0,TCN,2024-06-25_14h55.30.434,LearnStrategy,2023.2.3,Win32,59.88023952,,,,,,,,,,,6,15,3,8,,,,,,,,,,,,,,,,,,,,,,,,,,,,,
6625ac4d6f5a636552f8adf0,TCN,2024-06-25_14h55.30.434,LearnStrategy,2023.2.3,Win32,59.88023952,,,,,,,,,,,3,10,4,1,,,,,,,,,,,,,,,,,,,,,,,,,,,,,
6625ac4d6f5a636552f8adf0,TCN,2024-06-25_14h55.30.434,LearnStrategy,2023.2.3,Win32,59.88023952,,,,,,,,,,,3,09,4,2,,,,,,,,,,,,,,,,,,,,,,,,,,,,,
6625ac4d6f5a636552f8adf0,TCN,2024-06-25_14h55.30.434,LearnStrategy,2023.2.3,Win32,59.88023952,,,,,,,,,,,4,16,4,3,,,,,,,,,,,,,,,,,,,,,,,,,,,,,
6625ac4d6f5a636552f8adf0,TCN,2024-06-25_14h55.30.434,LearnStrategy,2023.2.3,Win32,59.88023952,,,,,,,,,,,1,07,4,4,,,,,,,,,,,,,,,,,,,,,,,,,,,,,
6625ac4d6f5a636552f8adf0,TCN,2024-06-25_14h55.30.434,LearnStrategy,2023.2.3,Win32,59.88023952,,,,,,,,,,,6,09,4,5,,,,,,,,,,,,,,,,,,,,,,,,,,,,,
6625ac4d6f5a636552f8adf0,TCN,2024-06-25_14h55.30.434,LearnStrategy,2023.2.3,Win32,59.88023952,,,,,,,,,,,7,08,4,6,,,,,,,,,,,,,,,,,,,,,,,,,,,,,
6625ac4d6f5a636552f8adf0,TCN,2024-06-25_14h55.30.434,LearnStrategy,2023.2.3,Win32,59.88023952,,,,,,,,,,,7,16,4,7,,,,,,,,,,,,,,,,,,,,,,,,,,,,,
6625ac4d6f5a636552f8adf0,TCN,2024-06-25_14h55.30.434,LearnStrategy,2023.2.3,Win32,59.88023952,,,,,,,,,,,2,08,4,8,,,,,,,,,,,,,,,,,,,,,,,,,,,,,
6625ac4d6f5a636552f8adf0,TCN,2024-06-25_14h55.30.434,LearnStrategy,2023.2.3,Win32,59.88023952,,,,,,,,,,,4,03,5,1,,,,,,,,,,,,,,,,,,,,,,,,,,,,,
6625ac4d6f5a636552f8adf0,TCN,2024-06-25_14h55.30.434,LearnStrategy,2023.2.3,Win32,59.88023952,,,,,,,,,,,3,07,5,2,,,,,,,,,,,,,,,,,,,,,,,,,,,,,
6625ac4d6f5a636552f8adf0,TCN,2024-06-25_14h55.30.434,LearnStrategy,2023.2.3,Win32,59.88023952,,,,,,,,,,,6,16,5,3,,,,,,,,,,,,,,,,,,,,,,,,,,,,,
6625ac4d6f5a636552f8adf0,TCN,2024-06-25_14h55.30.434,LearnStrategy,2023.2.3,Win32,59.88023952,,,,,,,,,,,2,09,5,4,,,,,,,,,,,,,,,,,,,,,,,,,,,,,
6625ac4d6f5a636552f8adf0,TCN,2024-06-25_14h55.30.434,LearnStrategy,2023.2.3,Win32,59.88023952,,,,,,,,,,,1,11,5,5,,,,,,,,,,,,,,,,,,,,,,,,,,,,,
6625ac4d6f5a636552f8adf0,TCN,2024-06-25_14h55.30.434,LearnStrategy,2023.2.3,Win32,59.88023952,,,,,,,,,,,8,03,5,6,,,,,,,,,,,,,,,,,,,,,,,,,,,,,
6625ac4d6f5a636552f8adf0,TCN,2024-06-25_14h55.30.434,LearnStrategy,2023.2.3,Win32,59.88023952,,,,,,,,,,,5,09,5,7,,,,,,,,,,,,,,,,,,,,,,,,,,,,,
6625ac4d6f5a636552f8adf0,TCN,2024-06-25_14h55.30.434,LearnStrategy,2023.2.3,Win32,59.88023952,,,,,,,,,,,2,14,5,8,,,,,,,,,,,,,,,,,,,,,,,,,,,,,
6625ac4d6f5a636552f8adf0,TCN,2024-06-25_14h55.30.434,LearnStrategy,2023.2.3,Win32,59.88023952,,,,,,,,,,,8,05,6,1,,,,,,,,,,,,,,,,,,,,,,,,,,,,,
6625ac4d6f5a636552f8adf0,TCN,2024-06-25_14h55.30.434,LearnStrategy,2023.2.3,Win32,59.88023952,,,,,,,,,,,4,11,6,2,,,,,,,,,,,,,,,,,,,,,,,,,,,,,
6625ac4d6f5a636552f8adf0,TCN,2024-06-25_14h55.30.434,LearnStrategy,2023.2.3,Win32,59.88023952,,,,,,,,,,,5,04,6,3,,,,,,,,,,,,,,,,,,,,,,,,,,,,,
6625ac4d6f5a636552f8adf0,TCN,2024-06-25_14h55.30.434,LearnStrategy,2023.2.3,Win32,59.88023952,,,,,,,,,,,7,07,6,4,,,,,,,,,,,,,,,,,,,,,,,,,,,,,
6625ac4d6f5a636552f8adf0,TCN,2024-06-25_14h55.30.434,LearnStrategy,2023.2.3,Win32,59.88023952,,,,,,,,,,,2,11,6,5,,,,,,,,,,,,,,,,,,,,,,,,,,,,,
6625ac4d6f5a636552f8adf0,TCN,2024-06-25_14h55.30.434,LearnStrategy,2023.2.3,Win32,59.88023952,,,,,,,,,,,5,05,6,6,,,,,,,,,,,,,,,,,,,,,,,,,,,,,
6625ac4d6f5a636552f8adf0,TCN,2024-06-25_14h55.30.434,LearnStrategy,2023.2.3,Win32,59.88023952,,,,,,,,,,,4,15,6,7,,,,,,,,,,,,,,,,,,,,,,,,,,,,,
6625ac4d6f5a636552f8adf0,TCN,2024-06-25_14h55.30.434,LearnStrategy,2023.2.3,Win32,59.88023952,,,,,,,,,,,7,05,6,8,,,,,,,,,,,,,,,,,,,,,,,,,,,,,