participant,condition,date,expName,psychopyVersion,OS,frameRate,block,phase,trial,learn_mouse_2.x,learn_mouse_2.y,learn_mouse_2.leftButton,learn_mouse_2.midButton,learn_mouse_2.rightButton,learn_mouse_2.time,learn_mouse_2.clicked_name,cat,token,row,col,t_select,cat_mouse_l.x,cat_mouse_l.y,cat_mouse_l.leftButton,cat_mouse_l.midButton,cat_mouse_l.rightButton,cat_mouse_l.time,cat_mouse_l.clicked_name,resp,t_resp,corr,train_trials.thisRepN,train_trials.thisTrialN,train_trials.thisN,train_trials.thisIndex,train_trials.ran,cat_mouse_t.x,cat_mouse_t.y,cat_mouse_t.leftButton,cat_mouse_t.midButton,cat_mouse_t.rightButton,cat_mouse_t.time,cat_mouse_t.clicked_name,test_trials.thisRepN,test_trials.thisTrialN,test_trials.thisN,test_trials.thisIndex,test_trials.ran,Bonus
6625132dab9a4c3935013c10,TCR,2024-06-25_11h41.36.667,LearnStrategy,2023.2.3,Win32,59.88023952,,,,,,,,,,,,,,,,,,,,,,,,,,,,,,,,,,,,,,,,,,,
6625132dab9a4c3935013c10,TCR,2024-06-25_11h41.36.667,LearnStrategy,2023.2.3,Win32,59.88023952,1,1,1,-0.006481453,-0.010185206,1,0,0,2.3704,rock_grid_rect_2,6,03,-1,-1,2.37,0.097222222,-0.389814801,1,0,0,7.7439,Peridotite_rect,7,7.744,0,0,0,0,0,1,,,,,,,,,,,,,
6625132dab9a4c3935013c10,TCR,2024-06-25_11h41.36.667,LearnStrategy,2023.2.3,Win32,59.88023952,1,1,2,0.070370356,0.005555541,1,0,0,1.7921,rock_grid_rect_2,8,09,-1,-1,1.792,0.390740712,-0.40370369,1,0,0,4.4401,Pumice_rect,8,4.44,1,1,0,1,0,1,,,,,,,,,,,,,
6625132dab9a4c3935013c10,TCR,2024-06-25_11h41.36.667,LearnStrategy,2023.2.3,Win32,59.88023952,1,1,3,0.070370356,-0.003703718,1,0,0,1.6945,rock_grid_rect_2,3,13,-1,-1,1.695,-0.093518504,-0.232407393,1,0,0,4.3974,Basalt_rect,2,4.397,0,2,0,2,0,1,,,,,,,,,,,,,
6625132dab9a4c3935013c10,TCR,2024-06-25_11h41.36.667,LearnStrategy,2023.2.3,Win32,59.88023952,1,1,4,0.062962991,-0.009259259,1,0,0,2.1125,rock_grid_rect_2,5,06,-1,-1,2.113,0.356481481,-0.243518547,1,0,0,9.0124,Gabbro_rect,4,9.012,0,3,0,3,0,1,,,,,,,,,,,,,
6625132dab9a4c3935013c10,TCR,2024-06-25_11h41.36.667,LearnStrategy,2023.2.3,Win32,59.88023952,1,1,5,0.111111111,0.006481489,1,0,0,1.3414,rock_grid_rect_2,2,10,-1,-1,1.341,-0.083333333,-0.233333376,1,0,0,2.1444,Basalt_rect,2,2.144,1,4,0,4,0,1,,,,,,,,,,,,,
6625132dab9a4c3935013c10,TCR,2024-06-25_11h41.36.667,LearnStrategy,2023.2.3,Win32,59.88023952,1,1,6,0.070370356,0.018518519,1,0,0,1.2779,rock_grid_rect_2,4,10,-1,-1,1.278,-0.3824074,-0.231481481,1,0,0,7.799,Andesite_rect,1,7.799,0,5,0,5,0,1,,,,,,,,,,,,,
6625132dab9a4c3935013c10,TCR,2024-06-25_11h41.36.667,LearnStrategy,2023.2.3,Win32,59.88023952,1,1,7,0.131481524,-0.021296289,1,0,0,1.1444,rock_grid_rect_2,6,05,-1,-1,1.144,-0.078703704,-0.407407407,1,0,0,7.9734,Pegmatite_rect,6,7.973,1,6,0,6,0,1,,,,,,,,,,,,,
6625132dab9a4c3935013c10,TCR,2024-06-25_11h41.36.667,LearnStrategy,2023.2.3,Win32,59.88023952,1,1,8,0.026851866,-0.014814836,1,0,0,1.2443,rock_grid_rect_2,1,01,-1,-1,1.244,0.125,-0.237037023,1,0,0,7.6499,Diorite_rect,3,7.65,0,7,0,7,0,1,,,,,,,,,,,,,
6625132dab9a4c3935013c10,TCR,2024-06-25_11h41.36.667,LearnStrategy,2023.2.3,Win32,59.88023952,1,1,9,0.051851838,-0.009259259,1,0,0,1.2204,rock_grid_rect_2,8,03,-1,-1,1.22,0.357407464,-0.386111153,1,0,0,4.0637,Pumice_rect,8,4.064,1,8,0,8,0,1,,,,,,,,,,,,,
6625132dab9a4c3935013c10,TCR,2024-06-25_11h41.36.667,LearnStrategy,2023.2.3,Win32,59.88023952,1,1,10,0.055555556,-0.005555577,1,0,0,1.2676,rock_grid_rect_2,1,16,-1,-1,1.268,-0.124074088,-0.396296325,1,0,0,6.1339,Pegmatite_rect,6,6.134,0,9,0,9,0,1,,,,,,,,,,,,,
6625132dab9a4c3935013c10,TCR,2024-06-25_11h41.36.667,LearnStrategy,2023.2.3,Win32,59.88023952,1,1,11,0.011111153,-0.015740748,1,0,0,1.3812,rock_grid_rect_2,7,05,-1,-1,1.381,0.150925954,-0.404629672,1,0,0,18.0544,Peridotite_rect,7,18.054,1,10,0,10,0,1,,,,,,,,,,,,,
6625132dab9a4c3935013c10,TCR,2024-06-25_11h41.36.667,LearnStrategy,2023.2.3,Win32,59.88023952,1,1,12,0.043518561,0.012962942,1,0,0,1.2458,rock_grid_rect_2,5,10,-1,-1,1.246,0.116666653,-0.252777806,1,0,0,4.451,Diorite_rect,3,4.451,0,11,0,11,0,1,,,,,,,,,,,,,
6625132dab9a4c3935013c10,TCR,2024-06-25_11h41.36.667,LearnStrategy,2023.2.3,Win32,59.88023952,1,1,13,0.078703704,-0.001851859,1,0,0,1.1003,rock_grid_rect_2,4,01,-1,-1,1.1,-0.337962963,-0.248148176,1,0,0,9.412,Andesite_rect,1,9.412,0,12,0,12,0,1,,,,,,,,,,,,,
6625132dab9a4c3935013c10,TCR,2024-06-25_11h41.36.667,LearnStrategy,2023.2.3,Win32,59.88023952,1,1,14,0.05740745,-0.008333347,1,0,0,1.3497,rock_grid_rect_2,7,16,-1,-1,1.35,0.208333333,-0.39907406,1,0,0,5.4104,Peridotite_rect,7,5.41,1,13,0,13,0,1,,,,,,,,,,,,,
6625132dab9a4c3935013c10,TCR,2024-06-25_11h41.36.667,LearnStrategy,2023.2.3,Win32,59.88023952,1,1,15,0.033333319,0.001851859,1,0,0,1.2869,rock_grid_rect_2,2,01,-1,-1,1.287,-0.106481481,-0.260185171,1,0,0,2.7194,Basalt_rect,2,2.719,1,14,0,14,0,1,,,,,,,,,,,,,
6625132dab9a4c3935013c10,TCR,2024-06-25_11h41.36.667,LearnStrategy,2023.2.3,Win32,59.88023952,1,1,16,0.045370384,-0.008333347,1,0,0,1.2789,rock_grid_rect_2,3,06,-1,-1,1.279,0.133333347,-0.40370369,1,0,0,7.6436,Peridotite_rect,7,7.644,0,15,0,15,0,1,,,,,,,,,,,,,
6625132dab9a4c3935013c10,TCR,2024-06-25_11h41.36.667,LearnStrategy,2023.2.3,Win32,59.88023952,1,2,1,,,,,,,,1,02,,,,,,,,,,,4,22.492,0,,,,,,0.358333305,-0.237963005,1,0,0,22.492,Gabbro_rect,0,0,0,0,1,
6625132dab9a4c3935013c10,TCR,2024-06-25_11h41.36.667,LearnStrategy,2023.2.3,Win32,59.88023952,1,2,2,,,,,,,,5,02,,,,,,,,,,,5,4.722,1,,,,,,-0.345370363,-0.396296325,1,0,0,4.7219,Obsidian_rect,1,0,1,0,1,
6625132dab9a4c3935013c10,TCR,2024-06-25_11h41.36.667,LearnStrategy,2023.2.3,Win32,59.88023952,1,2,3,,,,,,,,2,02,,,,,,,,,,,2,1.551,1,,,,,,-0.126851824,-0.246296282,1,0,0,1.5511,Basalt_rect,2,0,2,0,1,
6625132dab9a4c3935013c10,TCR,2024-06-25_11h41.36.667,LearnStrategy,2023.2.3,Win32,59.88023952,1,2,4,,,,,,,,4,12,,,,,,,,,,,4,15.741,1,,,,,,0.359259288,-0.257407436,1,0,0,15.7409,Gabbro_rect,3,0,3,0,1,
6625132dab9a4c3935013c10,TCR,2024-06-25_11h41.36.667,LearnStrategy,2023.2.3,Win32,59.88023952,1,2,5,,,,,,,,8,08,,,,,,,,,,,8,1.663,1,,,,,,0.383333418,-0.400925954,1,0,0,1.6635,Pumice_rect,4,0,4,0,1,
6625132dab9a4c3935013c10,TCR,2024-06-25_11h41.36.667,LearnStrategy,2023.2.3,Win32,59.88023952,1,2,6,,,,,,,,1,10,,,,,,,,,,,1,33.699,1,,,,,,-0.323148127,-0.250925912,1,0,0,33.6992,Andesite_rect,5,0,5,0,1,
6625132dab9a4c3935013c10,TCR,2024-06-25_11h41.36.667,LearnStrategy,2023.2.3,Win32,59.88023952,1,2,7,,,,,,,,6,12,,,,,,,,,,,3,10.622,0,,,,,,0.100000028,-0.258333347,1,0,0,10.6224,Diorite_rect,6,0,6,0,1,
6625132dab9a4c3935013c10,TCR,2024-06-25_11h41.36.667,LearnStrategy,2023.2.3,Win32,59.88023952,1,2,8,,,,,,,,3,10,,,,,,,,,,,4,7.229,0,,,,,,0.380555612,-0.262962977,1,0,0,7.2288,Gabbro_rect,7,0,7,0,1,
6625132dab9a4c3935013c10,TCR,2024-06-25_11h41.36.667,LearnStrategy,2023.2.3,Win32,59.88023952,1,2,9,,,,,,,,6,15,,,,,,,,,,,5,6.848,0,,,,,,-0.337037016,-0.392592607,1,0,0,6.8479,Obsidian_rect,8,0,8,0,1,
6625132dab9a4c3935013c10,TCR,2024-06-25_11h41.36.667,LearnStrategy,2023.2.3,Win32,59.88023952,1,2,10,,,,,,,,3,14,,,,,,,,,,,3,7.535,1,,,,,,0.145370413,-0.259259259,1,0,0,7.5349,Diorite_rect,9,0,9,0,1,
6625132dab9a4c3935013c10,TCR,2024-06-25_11h41.36.667,LearnStrategy,2023.2.3,Win32,59.88023952,1,2,11,,,,,,,,2,05,,,,,,,,,,,2,1.632,1,,,,,,-0.108333305,-0.232407393,1,0,0,1.6319,Basalt_rect,10,0,10,0,1,
6625132dab9a4c3935013c10,TCR,2024-06-25_11h41.36.667,LearnStrategy,2023.2.3,Win32,59.88023952,1,2,12,,,,,,,,4,09,,,,,,,,,,,1,5.34,0,,,,,,-0.320370356,-0.234259288,1,0,0,5.3397,Andesite_rect,11,0,11,0,1,
6625132dab9a4c3935013c10,TCR,2024-06-25_11h41.36.667,LearnStrategy,2023.2.3,Win32,59.88023952,1,2,13,,,,,,,,7,13,,,,,,,,,,,7,2.492,1,,,,,,0.137037065,-0.37962963,1,0,0,2.4919,Peridotite_rect,12,0,12,0,1,
6625132dab9a4c3935013c10,TCR,2024-06-25_11h41.36.667,LearnStrategy,2023.2.3,Win32,59.88023952,1,2,14,,,,,,,,8,10,,,,,,,,,,,8,1.58,1,,,,,,0.375,-0.413888931,1,0,0,1.5803,Pumice_rect,13,0,13,0,1,
6625132dab9a4c3935013c10,TCR,2024-06-25_11h41.36.667,LearnStrategy,2023.2.3,Win32,59.88023952,1,2,15,,,,,,,,7,06,,,,,,,,,,,7,10.68,1,,,,,,0.141666695,-0.39444443,1,0,0,10.6803,Peridotite_rect,14,0,14,0,1,
6625132dab9a4c3935013c10,TCR,2024-06-25_11h41.36.667,LearnStrategy,2023.2.3,Win32,59.88023952,1,2,16,,,,,,,,5,09,,,,,,,,,,,5,3.269,1,,,,,,-0.356481481,-0.395370413,1,0,0,3.2687,Obsidian_rect,15,0,15,0,1,
6625132dab9a4c3935013c10,TCR,2024-06-25_11h41.36.667,LearnStrategy,2023.2.3,Win32,59.88023952,2,1,1,-0.012036995,-0.012962977,1,0,0,2.1513,rock_grid_rect_2,6,07,-1,-1,2.151,-0.095370328,-0.405555584,1,0,0,6.0755,Pegmatite_rect,6,6.076,1,0,0,0,0,1,,,,,,,,,,,,,
6625132dab9a4c3935013c10,TCR,2024-06-25_11h41.36.667,LearnStrategy,2023.2.3,Win32,59.88023952,2,1,2,0.053703732,-0.008333347,1,0,0,1.3788,rock_grid_rect_2,3,15,-1,-1,1.379,0.414814843,-0.242592635,1,0,0,24.2997,Gabbro_rect,4,24.3,0,1,0,1,0,1,,,,,,,,,,,,,
6625132dab9a4c3935013c10,TCR,2024-06-25_11h41.36.667,LearnStrategy,2023.2.3,Win32,59.88023952,2,1,3,0.038888931,-0.009259259,1,0,0,1.1384,rock_grid_rect_2,1,14,-1,-1,1.138,0.405555584,-0.232407393,1,0,0,17.4847,Gabbro_rect,4,17.485,0,2,0,2,0,1,,,,,,,,,,,,,
6625132dab9a4c3935013c10,TCR,2024-06-25_11h41.36.667,LearnStrategy,2023.2.3,Win32,59.88023952,2,1,4,0.064814815,0.00462963,1,0,0,1.3461,rock_grid_rect_2,4,16,-1,-1,1.346,-0.111111111,-0.264814801,1,0,0,4.6804,Basalt_rect,2,4.68,0,3,0,3,0,1,,,,,,,,,,,,,
6625132dab9a4c3935013c10,TCR,2024-06-25_11h41.36.667,LearnStrategy,2023.2.3,Win32,59.88023952,2,1,5,-0.025925884,0.005555541,1,0,0,1.2313,rock_grid_rect_2,3,02,-1,-1,1.231,0.116666653,-0.239814829,1,0,0,8.9729,Diorite_rect,3,8.973,1,4,0,4,0,1,,,,,,,,,,,,,
6625132dab9a4c3935013c10,TCR,2024-06-25_11h41.36.667,LearnStrategy,2023.2.3,Win32,59.88023952,2,1,6,0.036111125,0.000925912,1,0,0,1.5962,rock_grid_rect_2,6,05,-1,-1,1.596,-0.333333333,-0.244444459,1,0,0,10.1558,Andesite_rect,1,10.156,0,5,0,5,0,1,,,,,,,,,,,,,
6625132dab9a4c3935013c10,TCR,2024-06-25_11h41.36.667,LearnStrategy,2023.2.3,Win32,59.88023952,2,1,7,-0.051851838,0.006481489,1,0,0,1.3223,rock_grid_rect_2,6,03,-1,-1,1.322,0.116666653,-0.402777778,1,0,0,4.2787,Peridotite_rect,7,4.279,0,6,0,6,0,1,,,,,,,,,,,,,
6625132dab9a4c3935013c10,TCR,2024-06-25_11h41.36.667,LearnStrategy,2023.2.3,Win32,59.88023952,2,1,8,0.05277782,-0.010185206,1,0,0,1.1299,rock_grid_rect_2,1,09,-1,-1,1.13,0.392592677,-0.260185171,1,0,0,20.4907,Gabbro_rect,4,20.491,0,7,0,7,0,1,,,,,,,,,,,,,
6625132dab9a4c3935013c10,TCR,2024-06-25_11h41.36.667,LearnStrategy,2023.2.3,Win32,59.88023952,2,1,9,0.039814843,-0.010185206,1,0,0,1.3458,rock_grid_rect_2,1,04,-1,-1,1.346,0.390740712,-0.240740741,1,0,0,12.4417,Gabbro_rect,4,12.442,0,8,0,8,0,1,,,,,,,,,,,,,
6625132dab9a4c3935013c10,TCR,2024-06-25_11h41.36.667,LearnStrategy,2023.2.3,Win32,59.88023952,2,1,10,0.050925926,-0.017592607,1,0,0,1.3296,rock_grid_rect_2,3,16,-1,-1,1.33,0.12037037,-0.236111111,1,0,0,5.3535,Diorite_rect,3,5.353,1,9,0,9,0,1,,,,,,,,,,,,,
6625132dab9a4c3935013c10,TCR,2024-06-25_11h41.36.667,LearnStrategy,2023.2.3,Win32,59.88023952,2,1,11,0.022222236,-0.014814836,1,0,0,1.2972,rock_grid_rect_2,2,06,-1,-1,1.297,-0.070370356,-0.235185199,1,0,0,2.0042,Basalt_rect,2,2.004,1,10,0,10,0,1,,,,,,,,,,,,,
6625132dab9a4c3935013c10,TCR,2024-06-25_11h41.36.667,LearnStrategy,2023.2.3,Win32,59.88023952,2,1,12,0.012037065,-0.013888889,1,0,0,1.2799,rock_grid_rect_2,6,08,-1,-1,1.28,-0.092592593,-0.388888889,1,0,0,9.9621,Pegmatite_rect,6,9.962,1,11,0,11,0,1,,,,,,,,,,,,,
6625132dab9a4c3935013c10,TCR,2024-06-25_11h41.36.667,LearnStrategy,2023.2.3,Win32,59.88023952,2,1,13,-0.057407379,-0.005555577,1,0,0,1.1955,rock_grid_rect_2,5,06,-1,-1,1.196,-0.364814794,-0.408333319,1,0,0,2.2696,Obsidian_rect,5,2.27,1,12,0,12,0,1,,,,,,,,,,,,,
6625132dab9a4c3935013c10,TCR,2024-06-25_11h41.36.667,LearnStrategy,2023.2.3,Win32,59.88023952,2,1,14,0.013888889,-0.009259259,1,0,0,1.403,rock_grid_rect_2,6,09,-1,-1,1.403,0.094444487,-0.390740783,1,0,0,5.9847,Peridotite_rect,7,5.985,0,13,0,13,0,1,,,,,,,,,,,,,
6625132dab9a4c3935013c10,TCR,2024-06-25_11h41.36.667,LearnStrategy,2023.2.3,Win32,59.88023952,2,1,15,0.035185213,-0.017592607,1,0,0,2.565,rock_grid_rect_2,4,08,-1,-1,2.565,-0.354629623,-0.235185199,1,0,0,15.2113,Andesite_rect,1,15.211,0,14,0,14,0,1,,,,,,,,,,,,,
6625132dab9a4c3935013c10,TCR,2024-06-25_11h41.36.667,LearnStrategy,2023.2.3,Win32,59.88023952,2,1,16,0.021296325,-0.005555577,1,0,0,1.2052,rock_grid_rect_2,4,01,-1,-1,1.205,-0.339814822,-0.229629658,1,0,0,15.1509,Andesite_rect,1,15.151,0,15,0,15,0,1,,,,,,,,,,,,,
6625132dab9a4c3935013c10,TCR,2024-06-25_11h41.36.667,LearnStrategy,2023.2.3,Win32,59.88023952,2,2,1,,,,,,,,3,12,,,,,,,,,,,3,13.402,1,,,,,,0.15370369,-0.251851894,1,0,0,13.4021,Diorite_rect,0,0,0,0,1,
6625132dab9a4c3935013c10,TCR,2024-06-25_11h41.36.667,LearnStrategy,2023.2.3,Win32,59.88023952,2,2,2,,,,,,,,2,12,,,,,,,,,,,8,1.791,0,,,,,,0.367592564,-0.396296325,1,0,0,1.7908,Pumice_rect,1,0,1,0,1,
6625132dab9a4c3935013c10,TCR,2024-06-25_11h41.36.667,LearnStrategy,2023.2.3,Win32,59.88023952,2,2,3,,,,,,,,4,15,,,,,,,,,,,4,20.182,1,,,,,,0.398148148,-0.267592607,1,0,0,20.1817,Gabbro_rect,2,0,2,0,1,
6625132dab9a4c3935013c10,TCR,2024-06-25_11h41.36.667,LearnStrategy,2023.2.3,Win32,59.88023952,2,2,4,,,,,,,,6,06,,,,,,,,,,,6,3.737,1,,,,,,-0.070370356,-0.397222236,1,0,0,3.7367,Pegmatite_rect,3,0,3,0,1,
6625132dab9a4c3935013c10,TCR,2024-06-25_11h41.36.667,LearnStrategy,2023.2.3,Win32,59.88023952,2,2,5,,,,,,,,7,10,,,,,,,,,,,7,39.268,1,,,,,,0.148148148,-0.383333347,1,0,0,39.2679,Peridotite_rect,4,0,4,0,1,
6625132dab9a4c3935013c10,TCR,2024-06-25_11h41.36.667,LearnStrategy,2023.2.3,Win32,59.88023952,2,2,6,,,,,,,,1,03,,,,,,,,,,,2,12.173,0,,,,,,-0.09629631,-0.233333376,1,0,0,12.1727,Basalt_rect,5,0,5,0,1,
6625132dab9a4c3935013c10,TCR,2024-06-25_11h41.36.667,LearnStrategy,2023.2.3,Win32,59.88023952,2,2,7,,,,,,,,8,05,,,,,,,,,,,8,1.622,1,,,,,,0.35555564,-0.396296325,1,0,0,1.6215,Pumice_rect,6,0,6,0,1,
6625132dab9a4c3935013c10,TCR,2024-06-25_11h41.36.667,LearnStrategy,2023.2.3,Win32,59.88023952,2,2,8,,,,,,,,5,07,,,,,,,,,,,5,1.994,1,,,,,,-0.381481489,-0.39907406,1,0,0,1.994,Obsidian_rect,7,0,7,0,1,
6625132dab9a4c3935013c10,TCR,2024-06-25_11h41.36.667,LearnStrategy,2023.2.3,Win32,59.88023952,2,2,9,,,,,,,,2,11,,,,,,,,,,,8,2.904,0,,,,,,0.398148148,-0.390740783,1,0,0,2.9035,Pumice_rect,8,0,8,0,1,
6625132dab9a4c3935013c10,TCR,2024-06-25_11h41.36.667,LearnStrategy,2023.2.3,Win32,59.88023952,2,2,10,,,,,,,,4,05,,,,,,,,,,,1,13.068,0,,,,,,-0.371296282,-0.232407393,1,0,0,13.0682,Andesite_rect,9,0,9,0,1,
6625132dab9a4c3935013c10,TCR,2024-06-25_11h41.36.667,LearnStrategy,2023.2.3,Win32,59.88023952,2,2,11,,,,,,,,7,15,,,,,,,,,,,7,16.903,1,,,,,,0.138888889,-0.409259302,1,0,0,16.903,Peridotite_rect,10,0,10,0,1,
6625132dab9a4c3935013c10,TCR,2024-06-25_11h41.36.667,LearnStrategy,2023.2.3,Win32,59.88023952,2,2,12,,,,,,,,8,16,,,,,,,,,,,8,2.442,1,,,,,,0.390740712,-0.412037037,1,0,0,2.4421,Pumice_rect,11,0,11,0,1,
6625132dab9a4c3935013c10,TCR,2024-06-25_11h41.36.667,LearnStrategy,2023.2.3,Win32,59.88023952,2,2,13,,,,,,,,3,11,,,,,,,,,,,3,19.202,1,,,,,,0.146296325,-0.251851894,1,0,0,19.2016,Diorite_rect,12,0,12,0,1,
6625132dab9a4c3935013c10,TCR,2024-06-25_11h41.36.667,LearnStrategy,2023.2.3,Win32,59.88023952,2,2,14,,,,,,,,5,08,,,,,,,,,,,5,2.648,1,,,,,,-0.357407393,-0.392592607,1,0,0,2.6481,Obsidian_rect,13,0,13,0,1,
6625132dab9a4c3935013c10,TCR,2024-06-25_11h41.36.667,LearnStrategy,2023.2.3,Win32,59.88023952,2,2,15,,,,,,,,1,06,,,,,,,,,,,1,14.783,1,,,,,,-0.381481489,-0.237037023,1,0,0,14.7826,Andesite_rect,14,0,14,0,1,
6625132dab9a4c3935013c10,TCR,2024-06-25_11h41.36.667,LearnStrategy,2023.2.3,Win32,59.88023952,2,2,16,,,,,,,,6,16,,,,,,,,,,,6,3.014,1,,,,,,-0.116666653,-0.392592607,1,0,0,3.0137,Pegmatite_rect,15,0,15,0,1,
6625132dab9a4c3935013c10,TCR,2024-06-25_11h41.36.667,LearnStrategy,2023.2.3,Win32,59.88023952,3,1,1,0.049074102,0.00462963,1,0,0,3.4508,rock_grid_rect_2,4,10,-1,-1,3.451,0.415740826,-0.256481524,1,0,0,9.1148,Gabbro_rect,4,9.115,1,0,0,0,0,1,,,,,,,,,,,,,
6625132dab9a4c3935013c10,TCR,2024-06-25_11h41.36.667,LearnStrategy,2023.2.3,Win32,59.88023952,3,1,2,0.038888931,-0.013888889,1,0,0,1.1777,rock_grid_rect_2,1,04,-1,-1,1.178,-0.350925905,-0.237037023,1,0,0,4.0906,Andesite_rect,1,4.091,1,1,0,1,0,1,,,,,,,,,,,,,
6625132dab9a4c3935013c10,TCR,2024-06-25_11h41.36.667,LearnStrategy,2023.2.3,Win32,59.88023952,3,1,3,-0.017592607,-0.003703718,1,0,0,1.1801,rock_grid_rect_2,4,03,-1,-1,1.18,0.113888917,-0.243518547,1,0,0,1.8753,Diorite_rect,3,1.875,0,2,0,2,0,1,,,,,,,,,,,,,
6625132dab9a4c3935013c10,TCR,2024-06-25_11h41.36.667,LearnStrategy,2023.2.3,Win32,59.88023952,3,1,4,0.025925954,-0.001851859,1,0,0,1.1605,rock_grid_rect_2,2,14,-1,-1,1.161,0.391666695,-0.238888917,1,0,0,7.4927,Gabbro_rect,4,7.493,0,3,0,3,0,1,,,,,,,,,,,,,
6625132dab9a4c3935013c10,TCR,2024-06-25_11h41.36.667,LearnStrategy,2023.2.3,Win32,59.88023952,3,1,5,-0.008333347,-0.018518519,1,0,0,1.8305,rock_grid_rect_2,2,06,-1,-1,1.831,-0.123148106,-0.24537037,1,0,0,1.8102,Basalt_rect,2,1.81,1,4,0,4,0,1,,,,,,,,,,,,,
6625132dab9a4c3935013c10,TCR,2024-06-25_11h41.36.667,LearnStrategy,2023.2.3,Win32,59.88023952,3,1,6,-0.012036995,-0.008333347,1,0,0,1.2485,rock_grid_rect_2,1,11,-1,-1,1.248,-0.37037037,-0.252777806,1,0,0,29.129,Andesite_rect,1,29.129,1,5,0,5,0,1,,,,,,,,,,,,,
6625132dab9a4c3935013c10,TCR,2024-06-25_11h41.36.667,LearnStrategy,2023.2.3,Win32,59.88023952,3,1,7,-0.056481467,-0.008333347,1,0,0,1.4591,rock_grid_rect_2,3,06,-1,-1,1.459,0.426851908,-0.246296282,1,0,0,8.5749,Gabbro_rect,4,8.575,0,6,0,6,0,1,,,,,,,,,,,,,
6625132dab9a4c3935013c10,TCR,2024-06-25_11h41.36.667,LearnStrategy,2023.2.3,Win32,59.88023952,3,1,8,0.01944443,0.002777771,1,0,0,1.279,rock_grid_rect_2,5,05,-1,-1,1.279,-0.390740748,-0.412962949,1,0,0,2.8767,Obsidian_rect,5,2.877,1,7,0,7,0,1,,,,,,,,,,,,,
6625132dab9a4c3935013c10,TCR,2024-06-25_11h41.36.667,LearnStrategy,2023.2.3,Win32,59.88023952,3,1,9,0.012962977,-0.003703718,1,0,0,1.23,rock_grid_rect_2,6,13,-1,-1,1.23,-0.130555541,-0.404629672,1,0,0,4.2364,Pegmatite_rect,6,4.236,1,8,0,8,0,1,,,,,,,,,,,,,
6625132dab9a4c3935013c10,TCR,2024-06-25_11h41.36.667,LearnStrategy,2023.2.3,Win32,59.88023952,3,1,10,0.006481524,-0.013888889,1,0,0,1.4605,rock_grid_rect_2,4,16,-1,-1,1.46,-0.111111111,-0.247222265,1,0,0,2.3575,Basalt_rect,2,2.357,0,9,0,9,0,1,,,,,,,,,,,,,
6625132dab9a4c3935013c10,TCR,2024-06-25_11h41.36.667,LearnStrategy,2023.2.3,Win32,59.88023952,3,1,11,-0.006481453,-0.017592607,1,0,0,1.344,rock_grid_rect_2,2,01,-1,-1,1.344,-0.108333305,-0.231481481,1,0,0,1.5726,Basalt_rect,2,1.573,1,10,0,10,0,1,,,,,,,,,,,,,
6625132dab9a4c3935013c10,TCR,2024-06-25_11h41.36.667,LearnStrategy,2023.2.3,Win32,59.88023952,3,1,12,-0.00462963,-0.015740748,1,0,0,1.3523,rock_grid_rect_2,1,14,-1,-1,1.352,-0.087037051,-0.391666695,1,0,0,4.0649,Pegmatite_rect,6,4.065,0,11,0,11,0,1,,,,,,,,,,,,,
6625132dab9a4c3935013c10,TCR,2024-06-25_11h41.36.667,LearnStrategy,2023.2.3,Win32,59.88023952,3,1,13,0.013888889,-0.012962977,1,0,0,1.6587,rock_grid_rect_2,2,06,-1,-1,1.659,-0.112962935,-0.241666653,1,0,0,1.4318,Basalt_rect,2,1.432,1,12,0,12,0,1,,,,,,,,,,,,,
6625132dab9a4c3935013c10,TCR,2024-06-25_11h41.36.667,LearnStrategy,2023.2.3,Win32,59.88023952,3,1,14,0.009259259,0.009259259,1,0,0,1.3972,rock_grid_rect_2,7,05,-1,-1,1.397,-0.084259245,-0.386111153,1,0,0,12.5455,Pegmatite_rect,6,12.545,0,13,0,13,0,1,,,,,,,,,,,,,
6625132dab9a4c3935013c10,TCR,2024-06-25_11h41.36.667,LearnStrategy,2023.2.3,Win32,59.88023952,3,1,15,0.017592607,0.010185171,1,0,0,2.7807,rock_grid_rect_2,8,14,-1,-1,2.781,0.396296325,-0.404629672,1,0,0,1.9807,Pumice_rect,8,1.981,1,14,0,14,0,1,,,,,,,,,,,,,
6625132dab9a4c3935013c10,TCR,2024-06-25_11h41.36.667,LearnStrategy,2023.2.3,Win32,59.88023952,3,1,16,0.031481496,0.001851859,1,0,0,1.2454,rock_grid_rect_2,6,05,-1,-1,1.245,-0.110185199,-0.405555584,1,0,0,1.6722,Pegmatite_rect,6,1.672,1,15,0,15,0,1,,,,,,,,,,,,,
6625132dab9a4c3935013c10,TCR,2024-06-25_11h41.36.667,LearnStrategy,2023.2.3,Win32,59.88023952,3,2,1,,,,,,,,7,12,,,,,,,,,,,7,10.076,1,,,,,,0.140740783,-0.410185213,1,0,0,10.0757,Peridotite_rect,0,0,0,0,1,
6625132dab9a4c3935013c10,TCR,2024-06-25_11h41.36.667,LearnStrategy,2023.2.3,Win32,59.88023952,3,2,2,,,,,,,,6,11,,,,,,,,,,,6,9.176,1,,,,,,-0.114814829,-0.39907406,1,0,0,9.1759,Pegmatite_rect,1,0,1,0,1,
6625132dab9a4c3935013c10,TCR,2024-06-25_11h41.36.667,LearnStrategy,2023.2.3,Win32,59.88023952,3,2,3,,,,,,,,3,08,,,,,,,,,,,3,11.309,1,,,,,,0.141666695,-0.23055557,1,0,0,11.3086,Diorite_rect,2,0,2,0,1,
6625132dab9a4c3935013c10,TCR,2024-06-25_11h41.36.667,LearnStrategy,2023.2.3,Win32,59.88023952,3,2,4,,,,,,,,7,07,,,,,,,,,,,7,34.572,1,,,,,,0.133333347,-0.415740755,1,0,0,34.5716,Peridotite_rect,3,0,3,0,1,
6625132dab9a4c3935013c10,TCR,2024-06-25_11h41.36.667,LearnStrategy,2023.2.3,Win32,59.88023952,3,2,5,,,,,,,,5,12,,,,,,,,,,,5,2.074,1,,,,,,-0.324999986,-0.408333319,1,0,0,2.074,Obsidian_rect,4,0,4,0,1,
6625132dab9a4c3935013c10,TCR,2024-06-25_11h41.36.667,LearnStrategy,2023.2.3,Win32,59.88023952,3,2,6,,,,,,,,3,09,,,,,,,,,,,3,10.5,1,,,,,,0.12962963,-0.241666653,1,0,0,10.4997,Diorite_rect,5,0,5,0,1,
6625132dab9a4c3935013c10,TCR,2024-06-25_11h41.36.667,LearnStrategy,2023.2.3,Win32,59.88023952,3,2,7,,,,,,,,4,13,,,,,,,,,,,4,4.833,1,,,,,,0.363888917,-0.239814829,1,0,0,4.8327,Gabbro_rect,6,0,6,0,1,
6625132dab9a4c3935013c10,TCR,2024-06-25_11h41.36.667,LearnStrategy,2023.2.3,Win32,59.88023952,3,2,8,,,,,,,,8,04,,,,,,,,,,,8,1.468,1,,,,,,0.362037094,-0.404629672,1,0,0,1.4683,Pumice_rect,7,0,7,0,1,
6625132dab9a4c3935013c10,TCR,2024-06-25_11h41.36.667,LearnStrategy,2023.2.3,Win32,59.88023952,3,2,9,,,,,,,,1,07,,,,,,,,,,,1,34.11,1,,,,,,-0.387962942,-0.263888889,1,0,0,34.1099,Andesite_rect,8,0,8,0,1,
6625132dab9a4c3935013c10,TCR,2024-06-25_11h41.36.667,LearnStrategy,2023.2.3,Win32,59.88023952,3,2,10,,,,,,,,1,05,,,,,,,,,,,1,3.94,1,,,,,,-0.352777764,-0.24537037,1,0,0,3.9405,Andesite_rect,9,0,9,0,1,
6625132dab9a4c3935013c10,TCR,2024-06-25_11h41.36.667,LearnStrategy,2023.2.3,Win32,59.88023952,3,2,11,,,,,,,,5,14,,,,,,,,,,,5,1.497,1,,,,,,-0.427777785,-0.412037037,1,0,0,1.4974,Obsidian_rect,10,0,10,0,1,
6625132dab9a4c3935013c10,TCR,2024-06-25_11h41.36.667,LearnStrategy,2023.2.3,Win32,59.88023952,3,2,12,,,,,,,,2,09,,,,,,,,,,,2,1.459,1,,,,,,-0.134259259,-0.246296282,1,0,0,1.4586,Basalt_rect,11,0,11,0,1,
6625132dab9a4c3935013c10,TCR,2024-06-25_11h41.36.667,LearnStrategy,2023.2.3,Win32,59.88023952,3,2,13,,,,,,,,6,10,,,,,,,,,,,6,9.595,1,,,,,,-0.107407393,-0.383333347,1,0,0,9.5947,Pegmatite_rect,12,0,12,0,1,
6625132dab9a4c3935013c10,TCR,2024-06-25_11h41.36.667,LearnStrategy,2023.2.3,Win32,59.88023952,3,2,14,,,,,,,,8,13,,,,,,,,,,,8,26.158,1,,,,,,0.343518575,-0.380555541,1,0,0,26.1581,Pumice_rect,13,0,13,0,1,
6625132dab9a4c3935013c10,TCR,2024-06-25_11h41.36.667,LearnStrategy,2023.2.3,Win32,59.88023952,3,2,15,,,,,,,,2,16,,,,,,,,,,,4,6.041,0,,,,,,0.374074159,-0.24537037,1,0,0,6.041,Gabbro_rect,14,0,14,0,1,
6625132dab9a4c3935013c10,TCR,2024-06-25_11h41.36.667,LearnStrategy,2023.2.3,Win32,59.88023952,3,2,16,,,,,,,,4,11,,,,,,,,,,,2,4.35,0,,,,,,-0.131481453,-0.253703718,1,0,0,4.3501,Basalt_rect,15,0,15,0,1,
6625132dab9a4c3935013c10,TCR,2024-06-25_11h41.36.667,LearnStrategy,2023.2.3,Win32,59.88023952,4,1,1,-0.057407379,-0.013888889,1,0,0,3.2729,rock_grid_rect_2,4,14,-1,-1,3.273,0.36018527,-0.252777806,1,0,0,4.3187,Gabbro_rect,4,4.319,1,0,0,0,0,1,,,,,,,,,,,,,
6625132dab9a4c3935013c10,TCR,2024-06-25_11h41.36.667,LearnStrategy,2023.2.3,Win32,59.88023952,4,1,2,0.009259259,0.005555541,1,0,0,1.5153,rock_grid_rect_2,7,02,-1,-1,1.515,0.110185199,-0.40370369,1,0,0,1.6962,Peridotite_rect,7,1.696,1,1,0,1,0,1,,,,,,,,,,,,,
6625132dab9a4c3935013c10,TCR,2024-06-25_11h41.36.667,LearnStrategy,2023.2.3,Win32,59.88023952,4,1,3,0.030555584,-0.0074074,1,0,0,1.1631,rock_grid_rect_2,4,16,-1,-1,1.163,0.343518575,-0.231481481,1,0,0,2.8822,Gabbro_rect,4,2.882,1,2,0,2,0,1,,,,,,,,,,,,,
6625132dab9a4c3935013c10,TCR,2024-06-25_11h41.36.667,LearnStrategy,2023.2.3,Win32,59.88023952,4,1,4,0.032407407,-0.013888889,1,0,0,1.2322,rock_grid_rect_2,4,01,-1,-1,1.232,-0.362037023,-0.267592607,1,0,0,6.7356,Andesite_rect,1,6.736,0,3,0,3,0,1,,,,,,,,,,,,,
6625132dab9a4c3935013c10,TCR,2024-06-25_11h41.36.667,LearnStrategy,2023.2.3,Win32,59.88023952,4,1,5,0.047222208,0.014814801,1,0,0,1.1248,rock_grid_rect_2,2,04,-1,-1,1.125,-0.098148134,-0.25,1,0,0,1.4308,Basalt_rect,2,1.431,1,4,0,4,0,1,,,,,,,,,,,,,
6625132dab9a4c3935013c10,TCR,2024-06-25_11h41.36.667,LearnStrategy,2023.2.3,Win32,59.88023952,4,1,6,0.009259259,-0.019444466,1,0,0,1.1818,rock_grid_rect_2,5,16,-1,-1,1.182,-0.383333312,-0.411111125,1,0,0,2.3091,Obsidian_rect,5,2.309,1,5,0,5,0,1,,,,,,,,,,,,,
6625132dab9a4c3935013c10,TCR,2024-06-25_11h41.36.667,LearnStrategy,2023.2.3,Win32,59.88023952,4,1,7,0.014814801,-0.000925947,1,0,0,1.2269,rock_grid_rect_2,3,13,-1,-1,1.227,0.132407436,-0.250925912,1,0,0,1.7773,Diorite_rect,3,1.777,1,6,0,6,0,1,,,,,,,,,,,,,
6625132dab9a4c3935013c10,TCR,2024-06-25_11h41.36.667,LearnStrategy,2023.2.3,Win32,59.88023952,4,1,8,-0.049074032,-0.018518519,1,0,0,1.2399,rock_grid_rect_2,1,04,-1,-1,1.24,-0.35833334,-0.244444459,1,0,0,2.4907,Andesite_rect,1,2.491,1,7,0,7,0,1,,,,,,,,,,,,,
6625132dab9a4c3935013c10,TCR,2024-06-25_11h41.36.667,LearnStrategy,2023.2.3,Win32,59.88023952,4,1,9,0.014814801,-0.017592607,1,0,0,1.1949,rock_grid_rect_2,1,14,-1,-1,1.195,-0.362037023,-0.265740783,1,0,0,5.6502,Andesite_rect,1,5.65,1,8,0,8,0,1,,,,,,,,,,,,,
6625132dab9a4c3935013c10,TCR,2024-06-25_11h41.36.667,LearnStrategy,2023.2.3,Win32,59.88023952,4,1,10,0.013888889,-0.01666666,1,0,0,1.1773,rock_grid_rect_2,2,06,-1,-1,1.177,-0.113888847,-0.260185171,1,0,0,1.2931,Basalt_rect,2,1.293,1,9,0,9,0,1,,,,,,,,,,,,,
6625132dab9a4c3935013c10,TCR,2024-06-25_11h41.36.667,LearnStrategy,2023.2.3,Win32,59.88023952,4,1,11,-0.006481453,-0.002777771,1,0,0,1.1448,rock_grid_rect_2,6,07,-1,-1,1.145,-0.084259245,-0.391666695,1,0,0,2.1721,Pegmatite_rect,6,2.172,1,10,0,10,0,1,,,,,,,,,,,,,
6625132dab9a4c3935013c10,TCR,2024-06-25_11h41.36.667,LearnStrategy,2023.2.3,Win32,59.88023952,4,1,12,0.029629672,-0.010185206,1,0,0,1.3649,rock_grid_rect_2,6,13,-1,-1,1.365,-0.099999958,-0.400000042,1,0,0,1.7227,Pegmatite_rect,6,1.723,1,11,0,11,0,1,,,,,,,,,,,,,
6625132dab9a4c3935013c10,TCR,2024-06-25_11h41.36.667,LearnStrategy,2023.2.3,Win32,59.88023952,4,1,13,-0.016666624,-0.024074095,1,0,0,1.3111,rock_grid_rect_2,2,14,-1,-1,1.311,-0.102777764,-0.248148176,1,0,0,1.9403,Basalt_rect,2,1.94,1,12,0,12,0,1,,,,,,,,,,,,,
6625132dab9a4c3935013c10,TCR,2024-06-25_11h41.36.667,LearnStrategy,2023.2.3,Win32,59.88023952,4,1,14,0.022222236,-0.023148148,1,0,0,1.412,rock_grid_rect_2,4,03,-1,-1,1.412,0.12037037,-0.252777806,1,0,0,2.2603,Diorite_rect,3,2.26,0,13,0,13,0,1,,,,,,,,,,,,,
6625132dab9a4c3935013c10,TCR,2024-06-25_11h41.36.667,LearnStrategy,2023.2.3,Win32,59.88023952,4,1,15,0.05277782,-0.019444466,1,0,0,1.43,rock_grid_rect_2,2,14,-1,-1,1.43,-0.103703675,-0.262037065,1,0,0,1.2826,Basalt_rect,2,1.283,1,14,0,14,0,1,,,,,,,,,,,,,
6625132dab9a4c3935013c10,TCR,2024-06-25_11h41.36.667,LearnStrategy,2023.2.3,Win32,59.88023952,4,1,16,-0.007407365,-0.010185206,1,0,0,1.1028,rock_grid_rect_2,8,09,-1,-1,1.103,0.40370376,-0.398148148,1,0,0,1.605,Pumice_rect,8,1.605,1,15,0,15,0,1,,,,,,,,,,,,,
6625132dab9a4c3935013c10,TCR,2024-06-25_11h41.36.667,LearnStrategy,2023.2.3,Win32,59.88023952,4,2,1,,,,,,,,5,08,,,,,,,,,,,5,1.611,1,,,,,,-0.376851859,-0.39907406,1,0,0,1.6114,Obsidian_rect,0,0,0,0,1,
6625132dab9a4c3935013c10,TCR,2024-06-25_11h41.36.667,LearnStrategy,2023.2.3,Win32,59.88023952,4,2,2,,,,,,,,6,15,,,,,,,,,,,6,12.691,1,,,,,,-0.121296282,-0.387037065,1,0,0,12.6909,Pegmatite_rect,1,0,1,0,1,
6625132dab9a4c3935013c10,TCR,2024-06-25_11h41.36.667,LearnStrategy,2023.2.3,Win32,59.88023952,4,2,3,,,,,,,,1,07,,,,,,,,,,,4,30.235,0,,,,,,0.402777778,-0.239814829,1,0,0,30.2351,Gabbro_rect,2,0,2,0,1,
6625132dab9a4c3935013c10,TCR,2024-06-25_11h41.36.667,LearnStrategy,2023.2.3,Win32,59.88023952,4,2,4,,,,,,,,5,02,,,,,,,,,,,5,1.538,1,,,,,,-0.36296297,-0.389814801,1,0,0,1.5384,Obsidian_rect,3,0,3,0,1,
6625132dab9a4c3935013c10,TCR,2024-06-25_11h41.36.667,LearnStrategy,2023.2.3,Win32,59.88023952,4,2,5,,,,,,,,7,13,,,,,,,,,,,7,2.894,1,,,,,,0.12037037,-0.393518519,1,0,0,2.8943,Peridotite_rect,4,0,4,0,1,
6625132dab9a4c3935013c10,TCR,2024-06-25_11h41.36.667,LearnStrategy,2023.2.3,Win32,59.88023952,4,2,6,,,,,,,,2,09,,,,,,,,,,,2,1.565,1,,,,,,-0.10555557,-0.236111111,1,0,0,1.5647,Basalt_rect,5,0,5,0,1,
6625132dab9a4c3935013c10,TCR,2024-06-25_11h41.36.667,LearnStrategy,2023.2.3,Win32,59.88023952,4,2,7,,,,,,,,8,08,,,,,,,,,,,8,1.767,1,,,,,,0.399074131,-0.407407407,1,0,0,1.7669,Pumice_rect,6,0,6,0,1,
6625132dab9a4c3935013c10,TCR,2024-06-25_11h41.36.667,LearnStrategy,2023.2.3,Win32,59.88023952,4,2,8,,,,,,,,3,11,,,,,,,,,,,3,8.845,1,,,,,,0.146296325,-0.240740741,1,0,0,8.8452,Diorite_rect,7,0,7,0,1,
6625132dab9a4c3935013c10,TCR,2024-06-25_11h41.36.667,LearnStrategy,2023.2.3,Win32,59.88023952,4,2,9,,,,,,,,4,15,,,,,,,,,,,2,2.42,0,,,,,,-0.101851852,-0.242592635,1,0,0,2.4201,Basalt_rect,8,0,8,0,1,
6625132dab9a4c3935013c10,TCR,2024-06-25_11h41.36.667,LearnStrategy,2023.2.3,Win32,59.88023952,4,2,10,,,,,,,,2,12,,,,,,,,,,,8,2.896,0,,,,,,0.368518547,-0.39444443,1,0,0,2.8957,Pumice_rect,9,0,9,0,1,
6625132dab9a4c3935013c10,TCR,2024-06-25_11h41.36.667,LearnStrategy,2023.2.3,Win32,59.88023952,4,2,11,,,,,,,,8,04,,,,,,,,,,,8,0.97,1,,,,,,0.368518547,-0.39444443,1,0,0,0.9697,Pumice_rect,10,0,10,0,1,
6625132dab9a4c3935013c10,TCR,2024-06-25_11h41.36.667,LearnStrategy,2023.2.3,Win32,59.88023952,4,2,12,,,,,,,,6,06,,,,,,,,,,,6,1.6,1,,,,,,-0.081481439,-0.413888931,1,0,0,1.5995,Pegmatite_rect,11,0,11,0,1,
6625132dab9a4c3935013c10,TCR,2024-06-25_11h41.36.667,LearnStrategy,2023.2.3,Win32,59.88023952,4,2,13,,,,,,,,3,10,,,,,,,,,,,1,5.368,0,,,,,,-0.36296297,-0.247222265,1,0,0,5.3679,Andesite_rect,12,0,12,0,1,
6625132dab9a4c3935013c10,TCR,2024-06-25_11h41.36.667,LearnStrategy,2023.2.3,Win32,59.88023952,4,2,14,,,,,,,,1,02,,,,,,,,,,,1,3.473,1,,,,,,-0.326851845,-0.252777806,1,0,0,3.4734,Andesite_rect,13,0,13,0,1,
6625132dab9a4c3935013c10,TCR,2024-06-25_11h41.36.667,LearnStrategy,2023.2.3,Win32,59.88023952,4,2,15,,,,,,,,7,06,,,,,,,,,,,6,1.741,0,,,,,,-0.112962935,-0.412962949,1,0,0,1.7407,Pegmatite_rect,14,0,14,0,1,
6625132dab9a4c3935013c10,TCR,2024-06-25_11h41.36.667,LearnStrategy,2023.2.3,Win32,59.88023952,4,2,16,,,,,,,,4,13,,,,,,,,,,,4,3.025,1,,,,,,0.36018527,-0.262037065,1,0,0,3.0246,Gabbro_rect,15,0,15,0,1,
6625132dab9a4c3935013c10,TCR,2024-06-25_11h41.36.667,LearnStrategy,2023.2.3,Win32,59.88023952,5,1,1,0.013888889,-0.008333347,1,0,0,2.3978,rock_grid_rect_2,5,16,-1,-1,2.398,-0.362037023,-0.408333319,1,0,0,1.646,Obsidian_rect,5,1.646,1,0,0,0,0,1,,,,,,,,,,,,,
6625132dab9a4c3935013c10,TCR,2024-06-25_11h41.36.667,LearnStrategy,2023.2.3,Win32,59.88023952,5,1,2,-0.049074032,-0.010185206,1,0,0,1.463,rock_grid_rect_2,1,04,-1,-1,1.463,-0.362037023,-0.249074088,1,0,0,10.5363,Andesite_rect,1,10.536,1,1,0,1,0,1,,,,,,,,,,,,,
6625132dab9a4c3935013c10,TCR,2024-06-25_11h41.36.667,LearnStrategy,2023.2.3,Win32,59.88023952,5,1,3,-0.016666624,-0.005555577,1,0,0,1.3776,rock_grid_rect_2,1,11,-1,-1,1.378,-0.360185164,-0.234259288,1,0,0,3.4287,Andesite_rect,1,3.429,1,2,0,2,0,1,,,,,,,,,,,,,
6625132dab9a4c3935013c10,TCR,2024-06-25_11h41.36.667,LearnStrategy,2023.2.3,Win32,59.88023952,5,1,4,0.011111153,-0.005555577,1,0,0,1.2664,rock_grid_rect_2,2,14,-1,-1,1.266,-0.103703675,-0.249074088,1,0,0,1.3266,Basalt_rect,2,1.327,1,3,0,3,0,1,,,,,,,,,,,,,
6625132dab9a4c3935013c10,TCR,2024-06-25_11h41.36.667,LearnStrategy,2023.2.3,Win32,59.88023952,5,1,5,0.025925954,0.001851859,1,0,0,2.0122,rock_grid_rect_2,1,01,-1,-1,2.012,0.366666723,-0.237037023,1,0,0,4.1952,Gabbro_rect,4,4.195,0,4,0,4,0,1,,,,,,,,,,,,,
6625132dab9a4c3935013c10,TCR,2024-06-25_11h41.36.667,LearnStrategy,2023.2.3,Win32,59.88023952,5,1,6,0.009259259,0,1,0,0,1.1432,rock_grid_rect_2,4,16,-1,-1,1.143,0.351851852,-0.23055557,1,0,0,2.03,Gabbro_rect,4,2.03,1,5,0,5,0,1,,,,,,,,,,,,,
6625132dab9a4c3935013c10,TCR,2024-06-25_11h41.36.667,LearnStrategy,2023.2.3,Win32,59.88023952,5,1,7,-0.020370342,-0.0074074,1,0,0,1.1486,rock_grid_rect_2,2,14,-1,-1,1.149,-0.107407393,-0.262037065,1,0,0,1.3543,Basalt_rect,2,1.354,1,6,0,6,0,1,,,,,,,,,,,,,
6625132dab9a4c3935013c10,TCR,2024-06-25_11h41.36.667,LearnStrategy,2023.2.3,Win32,59.88023952,5,1,8,0.002777806,0.015740748,1,0,0,1.7933,rock_grid_rect_2,7,04,-1,-1,1.793,-0.122222194,-0.401851866,1,0,0,2.947,Pegmatite_rect,6,2.947,0,7,0,7,0,1,,,,,,,,,,,,,
6625132dab9a4c3935013c10,TCR,2024-06-25_11h41.36.667,LearnStrategy,2023.2.3,Win32,59.88023952,5,1,9,0.025925954,-0.002777771,1,0,0,1.1336,rock_grid_rect_2,3,13,-1,-1,1.134,0.109259288,-0.242592635,1,0,0,1.5346,Diorite_rect,3,1.535,1,8,0,8,0,1,,,,,,,,,,,,,
6625132dab9a4c3935013c10,TCR,2024-06-25_11h41.36.667,LearnStrategy,2023.2.3,Win32,59.88023952,5,1,10,0.02870369,-0.011111118,1,0,0,1.2266,rock_grid_rect_2,4,08,-1,-1,1.227,-0.364814794,-0.258333347,1,0,0,2.9039,Andesite_rect,1,2.904,0,9,0,9,0,1,,,,,,,,,,,,,
6625132dab9a4c3935013c10,TCR,2024-06-25_11h41.36.667,LearnStrategy,2023.2.3,Win32,59.88023952,5,1,11,0.022222236,0.000925912,1,0,0,1.273,rock_grid_rect_2,7,04,-1,-1,1.273,0.103703746,-0.378703718,1,0,0,1.7928,Peridotite_rect,7,1.793,1,10,0,10,0,1,,,,,,,,,,,,,
6625132dab9a4c3935013c10,TCR,2024-06-25_11h41.36.667,LearnStrategy,2023.2.3,Win32,59.88023952,5,1,12,0.014814801,-0.010185206,1,0,0,1.2154,rock_grid_rect_2,2,04,-1,-1,1.215,-0.119444459,-0.250925912,1,0,0,1.2949,Basalt_rect,2,1.295,1,11,0,11,0,1,,,,,,,,,,,,,
6625132dab9a4c3935013c10,TCR,2024-06-25_11h41.36.667,LearnStrategy,2023.2.3,Win32,59.88023952,5,1,13,-0.021296254,0.006481489,1,0,0,1.2613,rock_grid_rect_2,4,10,-1,-1,1.261,0.383333418,-0.26944443,1,0,0,4.6569,Gabbro_rect,4,4.657,1,12,0,12,0,1,,,,,,,,,,,,,
6625132dab9a4c3935013c10,TCR,2024-06-25_11h41.36.667,LearnStrategy,2023.2.3,Win32,59.88023952,5,1,14,-0.029629601,-0.01203703,1,0,0,1.981,rock_grid_rect_2,8,14,-1,-1,1.981,0.378703788,-0.393518519,1,0,0,1.4104,Pumice_rect,8,1.41,1,13,0,13,0,1,,,,,,,,,,,,,
6625132dab9a4c3935013c10,TCR,2024-06-25_11h41.36.667,LearnStrategy,2023.2.3,Win32,59.88023952,5,1,15,0.018518519,-0.014814836,1,0,0,1.0369,rock_grid_rect_2,3,07,-1,-1,1.037,-0.116666653,-0.383333347,1,0,0,2.2173,Pegmatite_rect,6,2.217,0,14,0,14,0,1,,,,,,,,,,,,,
6625132dab9a4c3935013c10,TCR,2024-06-25_11h41.36.667,LearnStrategy,2023.2.3,Win32,59.88023952,5,1,16,-0.012962977,-0.017592607,1,0,0,1.1999,rock_grid_rect_2,6,05,-1,-1,1.2,-0.113888847,-0.405555584,1,0,0,1.5836,Pegmatite_rect,6,1.584,1,15,0,15,0,1,,,,,,,,,,,,,
6625132dab9a4c3935013c10,TCR,2024-06-25_11h41.36.667,LearnStrategy,2023.2.3,Win32,59.88023952,5,2,1,,,,,,,,8,13,,,,,,,,,,,8,1.565,1,,,,,,0.350000028,-0.386111153,1,0,0,1.5646,Pumice_rect,0,0,0,0,1,
6625132dab9a4c3935013c10,TCR,2024-06-25_11h41.36.667,LearnStrategy,2023.2.3,Win32,59.88023952,5,2,2,,,,,,,,6,10,,,,,,,,,,,7,7.47,0,,,,,,0.116666653,-0.395370413,1,0,0,7.4702,Peridotite_rect,1,0,1,0,1,
6625132dab9a4c3935013c10,TCR,2024-06-25_11h41.36.667,LearnStrategy,2023.2.3,Win32,59.88023952,5,2,3,,,,,,,,3,09,,,,,,,,,,,3,1.231,1,,,,,,0.12037037,-0.248148176,1,0,0,1.2305,Diorite_rect,2,0,2,0,1,
6625132dab9a4c3935013c10,TCR,2024-06-25_11h41.36.667,LearnStrategy,2023.2.3,Win32,59.88023952,5,2,4,,,,,,,,4,11,,,,,,,,,,,2,48.109,0,,,,,,-0.094444416,-0.244444459,1,0,0,48.1092,Basalt_rect,3,0,3,0,1,
6625132dab9a4c3935013c10,TCR,2024-06-25_11h41.36.667,LearnStrategy,2023.2.3,Win32,59.88023952,5,2,5,,,,,,,,2,02,,,,,,,,,,,2,1.212,1,,,,,,-0.082407422,-0.241666653,1,0,0,1.2121,Basalt_rect,4,0,4,0,1,
6625132dab9a4c3935013c10,TCR,2024-06-25_11h41.36.667,LearnStrategy,2023.2.3,Win32,59.88023952,5,2,6,,,,,,,,1,10,,,,,,,,,,,4,2.862,0,,,,,,0.375925982,-0.25462963,1,0,0,2.8617,Gabbro_rect,5,0,5,0,1,
6625132dab9a4c3935013c10,TCR,2024-06-25_11h41.36.667,LearnStrategy,2023.2.3,Win32,59.88023952,5,2,7,,,,,,,,6,16,,,,,,,,,,,6,5.36,1,,,,,,-0.125925912,-0.401851866,1,0,0,5.3597,Pegmatite_rect,6,0,6,0,1,
6625132dab9a4c3935013c10,TCR,2024-06-25_11h41.36.667,LearnStrategy,2023.2.3,Win32,59.88023952,5,2,8,,,,,,,,2,11,,,,,,,,,,,1,67.701,0,,,,,,-0.363888882,-0.242592635,1,0,0,67.7008,Andesite_rect,7,0,7,0,1,
6625132dab9a4c3935013c10,TCR,2024-06-25_11h41.36.667,LearnStrategy,2023.2.3,Win32,59.88023952,5,2,9,,,,,,,,8,16,,,,,,,,,,,2,3.048,0,,,,,,-0.075925898,-0.258333347,1,0,0,3.0476,Basalt_rect,8,0,8,0,1,
6625132dab9a4c3935013c10,TCR,2024-06-25_11h41.36.667,LearnStrategy,2023.2.3,Win32,59.88023952,5,2,10,,,,,,,,1,05,,,,,,,,,,,1,8.73,1,,,,,,-0.361111111,-0.249074088,1,0,0,8.7305,Andesite_rect,9,0,9,0,1,
6625132dab9a4c3935013c10,TCR,2024-06-25_11h41.36.667,LearnStrategy,2023.2.3,Win32,59.88023952,5,2,11,,,,,,,,7,07,,,,,,,,,,,7,5.351,1,,,,,,0.162962949,-0.383333347,1,0,0,5.3506,Peridotite_rect,10,0,10,0,1,
6625132dab9a4c3935013c10,TCR,2024-06-25_11h41.36.667,LearnStrategy,2023.2.3,Win32,59.88023952,5,2,12,,,,,,,,5,14,,,,,,,,,,,5,1.558,1,,,,,,-0.318518497,-0.390740783,1,0,0,1.5577,Obsidian_rect,11,0,11,0,1,
6625132dab9a4c3935013c10,TCR,2024-06-25_11h41.36.667,LearnStrategy,2023.2.3,Win32,59.88023952,5,2,13,,,,,,,,4,12,,,,,,,,,,,4,32.418,1,,,,,,0.36018527,-0.237963005,1,0,0,32.4175,Gabbro_rect,12,0,12,0,1,
6625132dab9a4c3935013c10,TCR,2024-06-25_11h41.36.667,LearnStrategy,2023.2.3,Win32,59.88023952,5,2,14,,,,,,,,5,09,,,,,,,,,,,5,1.865,1,,,,,,-0.359259252,-0.390740783,1,0,0,1.8653,Obsidian_rect,13,0,13,0,1,
6625132dab9a4c3935013c10,TCR,2024-06-25_11h41.36.667,LearnStrategy,2023.2.3,Win32,59.88023952,5,2,15,,,,,,,,3,14,,,,,,,,,,,3,3.486,1,,,,,,0.09629631,-0.243518547,1,0,0,3.4858,Diorite_rect,14,0,14,0,1,
6625132dab9a4c3935013c10,TCR,2024-06-25_11h41.36.667,LearnStrategy,2023.2.3,Win32,59.88023952,5,2,16,,,,,,,,7,15,,,,,,,,,,,7,4.737,1,,,,,,0.079629616,-0.392592607,1,0,0,4.7374,Peridotite_rect,15,0,15,0,1,
6625132dab9a4c3935013c10,TCR,2024-06-25_11h41.36.667,LearnStrategy,2023.2.3,Win32,59.88023952,6,1,1,0.021296325,0.006481489,1,0,0,2.9251,rock_grid_rect_2,2,06,-1,-1,2.925,-0.10092594,-0.238888917,1,0,0,1.4801,Basalt_rect,2,1.48,1,0,0,0,0,1,,,,,,,,,,,,,
6625132dab9a4c3935013c10,TCR,2024-06-25_11h41.36.667,LearnStrategy,2023.2.3,Win32,59.88023952,6,1,2,-0.001851824,0.000925912,1,0,0,1.2465,rock_grid_rect_2,4,10,-1,-1,1.246,0.337962963,-0.235185199,1,0,0,2.7649,Gabbro_rect,4,2.765,1,1,0,1,0,1,,,,,,,,,,,,,
6625132dab9a4c3935013c10,TCR,2024-06-25_11h41.36.667,LearnStrategy,2023.2.3,Win32,59.88023952,6,1,3,0.021296325,-0.014814836,1,0,0,1.1119,rock_grid_rect_2,6,05,-1,-1,1.112,-0.098148134,-0.393518519,1,0,0,2.7923,Pegmatite_rect,6,2.792,1,2,0,2,0,1,,,,,,,,,,,,,
6625132dab9a4c3935013c10,TCR,2024-06-25_11h41.36.667,LearnStrategy,2023.2.3,Win32,59.88023952,6,1,4,-0.057407379,-0.014814836,1,0,0,1.1065,rock_grid_rect_2,3,07,-1,-1,1.107,0.102777764,-0.238888917,1,0,0,2.71,Diorite_rect,3,2.71,1,3,0,3,0,1,,,,,,,,,,,,,
6625132dab9a4c3935013c10,TCR,2024-06-25_11h41.36.667,LearnStrategy,2023.2.3,Win32,59.88023952,6,1,5,0.018518519,0.014814801,1,0,0,1.1569,rock_grid_rect_2,8,09,-1,-1,1.157,0.386111083,-0.396296325,1,0,0,1.7125,Pumice_rect,8,1.713,1,4,0,4,0,1,,,,,,,,,,,,,
6625132dab9a4c3935013c10,TCR,2024-06-25_11h41.36.667,LearnStrategy,2023.2.3,Win32,59.88023952,6,1,6,-0.005555541,-0.021296289,1,0,0,1.1024,rock_grid_rect_2,5,16,-1,-1,1.102,-0.385185171,-0.410185213,1,0,0,2.2568,Obsidian_rect,5,2.257,1,5,0,5,0,1,,,,,,,,,,,,,
6625132dab9a4c3935013c10,TCR,2024-06-25_11h41.36.667,LearnStrategy,2023.2.3,Win32,59.88023952,6,1,7,0.009259259,-0.017592607,1,0,0,1.294,rock_grid_rect_2,8,15,-1,-1,1.294,0.37962963,-0.408333319,1,0,0,2.7037,Pumice_rect,8,2.704,1,6,0,6,0,1,,,,,,,,,,,,,
6625132dab9a4c3935013c10,TCR,2024-06-25_11h41.36.667,LearnStrategy,2023.2.3,Win32,59.88023952,6,1,8,-0.023148148,0.010185171,1,0,0,1.916,rock_grid_rect_2,1,01,-1,-1,1.916,-0.342592593,-0.246296282,1,0,0,5.7332,Andesite_rect,1,5.733,1,7,0,7,0,1,,,,,,,,,,,,,
6625132dab9a4c3935013c10,TCR,2024-06-25_11h41.36.667,LearnStrategy,2023.2.3,Win32,59.88023952,6,1,9,-0.023148148,-0.01203703,1,0,0,1.2509,rock_grid_rect_2,1,11,-1,-1,1.251,-0.364814794,-0.249074088,1,0,0,1.6944,Andesite_rect,1,1.694,1,8,0,8,0,1,,,,,,,,,,,,,
6625132dab9a4c3935013c10,TCR,2024-06-25_11h41.36.667,LearnStrategy,2023.2.3,Win32,59.88023952,6,1,10,0.012962977,-0.022222236,1,0,0,2.6089,rock_grid_rect_2,2,06,-1,-1,2.609,-0.082407422,-0.235185199,1,0,0,1.2444,Basalt_rect,2,1.244,1,9,0,9,0,1,,,,,,,,,,,,,
6625132dab9a4c3935013c10,TCR,2024-06-25_11h41.36.667,LearnStrategy,2023.2.3,Win32,59.88023952,6,1,11,-0.017592607,-0.015740748,1,0,0,1.2447,rock_grid_rect_2,7,05,-1,-1,1.245,0.126851894,-0.408333319,1,0,0,1.5273,Peridotite_rect,7,1.527,1,10,0,10,0,1,,,,,,,,,,,,,
6625132dab9a4c3935013c10,TCR,2024-06-25_11h41.36.667,LearnStrategy,2023.2.3,Win32,59.88023952,6,1,12,-0.002777735,-0.01666666,1,0,0,1.2784,rock_grid_rect_2,4,14,-1,-1,1.278,-0.077777792,-0.229629658,1,0,0,1.4296,Basalt_rect,2,1.43,0,11,0,11,0,1,,,,,,,,,,,,,
6625132dab9a4c3935013c10,TCR,2024-06-25_11h41.36.667,LearnStrategy,2023.2.3,Win32,59.88023952,6,1,13,-0.003703718,-0.010185206,1,0,0,1.1099,rock_grid_rect_2,1,14,-1,-1,1.11,-0.359259252,-0.233333376,1,0,0,1.4753,Andesite_rect,1,1.475,1,12,0,12,0,1,,,,,,,,,,,,,
6625132dab9a4c3935013c10,TCR,2024-06-25_11h41.36.667,LearnStrategy,2023.2.3,Win32,59.88023952,6,1,14,-0.00462963,0.013888889,1,0,0,1.2287,rock_grid_rect_2,4,08,-1,-1,1.229,0.344444416,-0.257407436,1,0,0,3.4084,Gabbro_rect,4,3.408,1,13,0,13,0,1,,,,,,,,,,,,,
6625132dab9a4c3935013c10,TCR,2024-06-25_11h41.36.667,LearnStrategy,2023.2.3,Win32,59.88023952,6,1,15,0.056481467,-0.011111118,1,0,0,1.2326,rock_grid_rect_2,6,05,-1,-1,1.233,-0.142592607,-0.391666695,1,0,0,1.3883,Pegmatite_rect,6,1.388,1,14,0,14,0,1,,,,,,,,,,,,,
6625132dab9a4c3935013c10,TCR,2024-06-25_11h41.36.667,LearnStrategy,2023.2.3,Win32,59.88023952,6,1,16,-0.030555513,-0.009259259,1,0,0,1.3781,rock_grid_rect_2,2,14,-1,-1,1.378,-0.10092594,-0.271296325,1,0,0,1.2848,Basalt_rect,2,1.285,1,15,0,15,0,1,,,,,,,,,,,,,
6625132dab9a4c3935013c10,TCR,2024-06-25_11h41.36.667,LearnStrategy,2023.2.3,Win32,59.88023952,6,2,1,,,,,,,,5,07,,,,,,,,,,,5,1.512,1,,,,,,-0.36296297,-0.398148148,1,0,0,1.5121,Obsidian_rect,0,0,0,0,1,
6625132dab9a4c3935013c10,TCR,2024-06-25_11h41.36.667,LearnStrategy,2023.2.3,Win32,59.88023952,6,2,2,,,,,,,,4,05,,,,,,,,,,,4,8.34,1,,,,,,0.397222307,-0.25462963,1,0,0,8.3397,Gabbro_rect,1,0,1,0,1,
6625132dab9a4c3935013c10,TCR,2024-06-25_11h41.36.667,LearnStrategy,2023.2.3,Win32,59.88023952,6,2,3,,,,,,,,3,12,,,,,,,,,,,3,9.776,1,,,,,,0.150925954,-0.252777806,1,0,0,9.7764,Diorite_rect,2,0,2,0,1,
6625132dab9a4c3935013c10,TCR,2024-06-25_11h41.36.667,LearnStrategy,2023.2.3,Win32,59.88023952,6,2,4,,,,,,,,4,09,,,,,,,,,,,4,4.872,1,,,,,,0.377777806,-0.25462963,1,0,0,4.8725,Gabbro_rect,3,0,3,0,1,
6625132dab9a4c3935013c10,TCR,2024-06-25_11h41.36.667,LearnStrategy,2023.2.3,Win32,59.88023952,6,2,5,,,,,,,,6,11,,,,,,,,,,,6,1.79,1,,,,,,-0.104629587,-0.385185171,1,0,0,1.7897,Pegmatite_rect,4,0,4,0,1,
6625132dab9a4c3935013c10,TCR,2024-06-25_11h41.36.667,LearnStrategy,2023.2.3,Win32,59.88023952,6,2,6,,,,,,,,8,10,,,,,,,,,,,8,1.485,1,,,,,,0.358333305,-0.414814843,1,0,0,1.4854,Pumice_rect,5,0,5,0,1,
6625132dab9a4c3935013c10,TCR,2024-06-25_11h41.36.667,LearnStrategy,2023.2.3,Win32,59.88023952,6,2,7,,,,,,,,1,03,,,,,,,,,,,1,3.111,1,,,,,,-0.352777764,-0.238888917,1,0,0,3.1106,Andesite_rect,6,0,6,0,1,
6625132dab9a4c3935013c10,TCR,2024-06-25_11h41.36.667,LearnStrategy,2023.2.3,Win32,59.88023952,6,2,8,,,,,,,,5,12,,,,,,,,,,,5,1.182,1,,,,,,-0.392592571,-0.404629672,1,0,0,1.1824,Obsidian_rect,7,0,7,0,1,
6625132dab9a4c3935013c10,TCR,2024-06-25_11h41.36.667,LearnStrategy,2023.2.3,Win32,59.88023952,6,2,9,,,,,,,,1,06,,,,,,,,,,,1,5.193,1,,,,,,-0.381481489,-0.242592635,1,0,0,5.1933,Andesite_rect,8,0,8,0,1,
6625132dab9a4c3935013c10,TCR,2024-06-25_11h41.36.667,LearnStrategy,2023.2.3,Win32,59.88023952,6,2,10,,,,,,,,6,12,,,,,,,,,,,6,5.599,1,,,,,,-0.079629616,-0.390740783,1,0,0,5.5985,Pegmatite_rect,9,0,9,0,1,
6625132dab9a4c3935013c10,TCR,2024-06-25_11h41.36.667,LearnStrategy,2023.2.3,Win32,59.88023952,6,2,11,,,,,,,,7,10,,,,,,,,,,,7,1.605,1,,,,,,0.116666653,-0.407407407,1,0,0,1.6055,Peridotite_rect,10,0,10,0,1,
6625132dab9a4c3935013c10,TCR,2024-06-25_11h41.36.667,LearnStrategy,2023.2.3,Win32,59.88023952,6,2,12,,,,,,,,7,12,,,,,,,,,,,7,0.755,1,,,,,,0.116666653,-0.407407407,1,0,0,0.7547,Peridotite_rect,11,0,11,0,1,
6625132dab9a4c3935013c10,TCR,2024-06-25_11h41.36.667,LearnStrategy,2023.2.3,Win32,59.88023952,6,2,13,,,,,,,,2,05,,,,,,,,,,,2,1.305,1,,,,,,-0.087962963,-0.249074088,1,0,0,1.3051,Basalt_rect,12,0,12,0,1,
6625132dab9a4c3935013c10,TCR,2024-06-25_11h41.36.667,LearnStrategy,2023.2.3,Win32,59.88023952,6,2,14,,,,,,,,8,05,,,,,,,,,,,8,1.475,1,,,,,,0.365740741,-0.415740755,1,0,0,1.4747,Pumice_rect,13,0,13,0,1,
6625132dab9a4c3935013c10,TCR,2024-06-25_11h41.36.667,LearnStrategy,2023.2.3,Win32,59.88023952,6,2,15,,,,,,,,3,08,,,,,,,,,,,3,2.121,1,,,,,,0.152777778,-0.258333347,1,0,0,2.1214,Diorite_rect,14,0,14,0,1,
6625132dab9a4c3935013c10,TCR,2024-06-25_11h41.36.667,LearnStrategy,2023.2.3,Win32,59.88023952,6,2,16,,,,,,,,2,16,,,,,,,,,,,2,1.311,1,,,,,,-0.121296282,-0.248148176,1,0,0,1.3105,Basalt_rect,15,0,15,0,1,
6625132dab9a4c3935013c10,TCR,2024-06-25_11h41.36.667,LearnStrategy,2023.2.3,Win32,59.88023952,7,1,1,0.026851866,0.008333312,1,0,0,3.9684,rock_grid_rect_2,8,06,-1,-1,3.968,0.45648151,-0.412962949,1,0,0,1.3494,Pumice_rect,8,1.349,1,0,0,0,0,1,,,,,,,,,,,,,
6625132dab9a4c3935013c10,TCR,2024-06-25_11h41.36.667,LearnStrategy,2023.2.3,Win32,59.88023952,7,1,2,0.002777806,-0.015740748,1,0,0,1.2124,rock_grid_rect_2,4,03,-1,-1,1.212,0.362037094,-0.260185171,1,0,0,3.7526,Gabbro_rect,4,3.753,1,1,0,1,0,1,,,,,,,,,,,,,
6625132dab9a4c3935013c10,TCR,2024-06-25_11h41.36.667,LearnStrategy,2023.2.3,Win32,59.88023952,7,1,3,0.070370356,0.003703683,1,0,0,0.7983,rock_grid_rect_2,4,10,-1,-1,0.798,0.401851937,-0.242592635,1,0,0,1.3968,Gabbro_rect,4,1.397,1,2,0,2,0,1,,,,,,,,,,,,,
6625132dab9a4c3935013c10,TCR,2024-06-25_11h41.36.667,LearnStrategy,2023.2.3,Win32,59.88023952,7,1,4,0.087037051,0.005555541,1,0,0,0.8111,rock_grid_rect_2,7,16,-1,-1,0.811,0.132407436,-0.381481524,1,0,0,1.2422,Peridotite_rect,7,1.242,1,3,0,3,0,1,,,,,,,,,,,,,
6625132dab9a4c3935013c10,TCR,2024-06-25_11h41.36.667,LearnStrategy,2023.2.3,Win32,59.88023952,7,1,5,0.086111139,-0.01666666,1,0,0,0.7603,rock_grid_rect_2,6,05,-1,-1,0.76,-0.086111069,-0.395370413,1,0,0,1.3061,Pegmatite_rect,6,1.306,1,4,0,4,0,1,,,,,,,,,,,,,
6625132dab9a4c3935013c10,TCR,2024-06-25_11h41.36.667,LearnStrategy,2023.2.3,Win32,59.88023952,7,1,6,0.020370413,-0.023148148,1,0,0,0.9976,rock_grid_rect_2,8,06,-1,-1,0.998,0.400925954,-0.392592607,1,0,0,1.3187,Pumice_rect,8,1.319,1,5,0,5,0,1,,,,,,,,,,,,,
6625132dab9a4c3935013c10,TCR,2024-06-25_11h41.36.667,LearnStrategy,2023.2.3,Win32,59.88023952,7,1,7,0.02407406,-0.009259259,1,0,0,1.4786,rock_grid_rect_2,2,06,-1,-1,1.479,-0.108333305,-0.264814801,1,0,0,0.9811,Basalt_rect,2,0.981,1,6,0,6,0,1,,,,,,,,,,,,,
6625132dab9a4c3935013c10,TCR,2024-06-25_11h41.36.667,LearnStrategy,2023.2.3,Win32,59.88023952,7,1,8,0.060185185,-0.000925947,1,0,0,1.6951,rock_grid_rect_2,1,01,-1,-1,1.695,-0.359259252,-0.250925912,1,0,0,3.1204,Andesite_rect,1,3.12,1,7,0,7,0,1,,,,,,,,,,,,,
6625132dab9a4c3935013c10,TCR,2024-06-25_11h41.36.667,LearnStrategy,2023.2.3,Win32,59.88023952,7,1,9,0.090740769,0.002777771,1,0,0,1.09,rock_grid_rect_2,6,13,-1,-1,1.09,-0.10555557,-0.414814843,1,0,0,1.1105,Pegmatite_rect,6,1.111,1,8,0,8,0,1,,,,,,,,,,,,,
6625132dab9a4c3935013c10,TCR,2024-06-25_11h41.36.667,LearnStrategy,2023.2.3,Win32,59.88023952,7,1,10,0.005555541,0.001851859,1,0,0,0.8443,rock_grid_rect_2,1,09,-1,-1,0.844,-0.361111111,-0.247222265,1,0,0,1.4863,Andesite_rect,1,1.486,1,9,0,9,0,1,,,,,,,,,,,,,
6625132dab9a4c3935013c10,TCR,2024-06-25_11h41.36.667,LearnStrategy,2023.2.3,Win32,59.88023952,7,1,11,0.021296325,-0.015740748,1,0,0,0.7815,rock_grid_rect_2,5,05,-1,-1,0.782,-0.356481481,-0.398148148,1,0,0,1.2909,Obsidian_rect,5,1.291,1,10,0,10,0,1,,,,,,,,,,,,,
6625132dab9a4c3935013c10,TCR,2024-06-25_11h41.36.667,LearnStrategy,2023.2.3,Win32,59.88023952,7,1,12,0.048148191,-0.009259259,1,0,0,0.8979,rock_grid_rect_2,2,04,-1,-1,0.898,-0.106481481,-0.264814801,1,0,0,1.0295,Basalt_rect,2,1.029,1,11,0,11,0,1,,,,,,,,,,,,,
6625132dab9a4c3935013c10,TCR,2024-06-25_11h41.36.667,LearnStrategy,2023.2.3,Win32,59.88023952,7,1,13,0.048148191,-0.009259259,1,0,0,1.4882,rock_grid_rect_2,2,08,-1,-1,1.488,-0.107407393,-0.247222265,1,0,0,2.3993,Basalt_rect,2,2.399,1,12,0,12,0,1,,,,,,,,,,,,,
6625132dab9a4c3935013c10,TCR,2024-06-25_11h41.36.667,LearnStrategy,2023.2.3,Win32,59.88023952,7,1,14,0.063888903,0.006481489,1,0,0,0.9823,rock_grid_rect_2,4,10,-1,-1,0.982,0.376851824,-0.252777806,1,0,0,2.0426,Gabbro_rect,4,2.043,1,13,0,13,0,1,,,,,,,,,,,,,
6625132dab9a4c3935013c10,TCR,2024-06-25_11h41.36.667,LearnStrategy,2023.2.3,Win32,59.88023952,7,1,15,0.078703704,0,1,0,0,0.9228,rock_grid_rect_2,3,02,-1,-1,0.923,0.106481481,-0.247222265,1,0,0,1.0752,Diorite_rect,3,1.075,1,14,0,14,0,1,,,,,,,,,,,,,
6625132dab9a4c3935013c10,TCR,2024-06-25_11h41.36.667,LearnStrategy,2023.2.3,Win32,59.88023952,7,1,16,0.048148191,-0.014814836,1,0,0,0.7645,rock_grid_rect_2,1,04,-1,-1,0.765,-0.321296303,-0.241666653,1,0,0,1.2726,Andesite_rect,1,1.273,1,15,0,15,0,1,,,,,,,,,,,,,
6625132dab9a4c3935013c10,TCR,2024-06-25_11h41.36.667,LearnStrategy,2023.2.3,Win32,59.88023952,7,2,1,,,,,,,,2,12,,,,,,,,,,,1,2.158,0,,,,,,-0.347222222,-0.250925912,1,0,0,2.1576,Andesite_rect,0,0,0,0,1,
6625132dab9a4c3935013c10,TCR,2024-06-25_11h41.36.667,LearnStrategy,2023.2.3,Win32,59.88023952,7,2,2,,,,,,,,8,04,,,,,,,,,,,8,0.99,1,,,,,,0.35555564,-0.404629672,1,0,0,0.9897,Pumice_rect,1,0,1,0,1,
6625132dab9a4c3935013c10,TCR,2024-06-25_11h41.36.667,LearnStrategy,2023.2.3,Win32,59.88023952,7,2,3,,,,,,,,4,09,,,,,,,,,,,4,2.06,1,,,,,,0.411111196,-0.250925912,1,0,0,2.0601,Gabbro_rect,2,0,2,0,1,
6625132dab9a4c3935013c10,TCR,2024-06-25_11h41.36.667,LearnStrategy,2023.2.3,Win32,59.88023952,7,2,4,,,,,,,,3,14,,,,,,,,,,,3,1,1,,,,,,0.113888917,-0.242592635,1,0,0,0.9999,Diorite_rect,3,0,3,0,1,
6625132dab9a4c3935013c10,TCR,2024-06-25_11h41.36.667,LearnStrategy,2023.2.3,Win32,59.88023952,7,2,5,,,,,,,,5,02,,,,,,,,,,,5,2.036,1,,,,,,-0.362037023,-0.402777778,1,0,0,2.0364,Obsidian_rect,4,0,4,0,1,
6625132dab9a4c3935013c10,TCR,2024-06-25_11h41.36.667,LearnStrategy,2023.2.3,Win32,59.88023952,7,2,6,,,,,,,,1,07,,,,,,,,,,,1,4.566,1,,,,,,-0.344444452,-0.258333347,1,0,0,4.5663,Andesite_rect,5,0,5,0,1,
6625132dab9a4c3935013c10,TCR,2024-06-25_11h41.36.667,LearnStrategy,2023.2.3,Win32,59.88023952,7,2,7,,,,,,,,2,05,,,,,,,,,,,2,1.52,1,,,,,,-0.157407407,-0.251851894,1,0,0,1.5202,Basalt_rect,6,0,6,0,1,
6625132dab9a4c3935013c10,TCR,2024-06-25_11h41.36.667,LearnStrategy,2023.2.3,Win32,59.88023952,7,2,8,,,,,,,,1,05,,,,,,,,,,,1,1.808,1,,,,,,-0.350925905,-0.248148176,1,0,0,1.8079,Andesite_rect,7,0,7,0,1,
6625132dab9a4c3935013c10,TCR,2024-06-25_11h41.36.667,LearnStrategy,2023.2.3,Win32,59.88023952,7,2,9,,,,,,,,6,15,,,,,,,,,,,6,1.279,1,,,,,,-0.106481481,-0.404629672,1,0,0,1.2788,Pegmatite_rect,8,0,8,0,1,
6625132dab9a4c3935013c10,TCR,2024-06-25_11h41.36.667,LearnStrategy,2023.2.3,Win32,59.88023952,7,2,10,,,,,,,,7,12,,,,,,,,,,,7,1.943,1,,,,,,0.161111125,-0.402777778,1,0,0,1.9429,Peridotite_rect,9,0,9,0,1,
6625132dab9a4c3935013c10,TCR,2024-06-25_11h41.36.667,LearnStrategy,2023.2.3,Win32,59.88023952,7,2,11,,,,,,,,8,13,,,,,,,,,,,8,1.223,1,,,,,,0.371296353,-0.402777778,1,0,0,1.2234,Pumice_rect,10,0,10,0,1,
6625132dab9a4c3935013c10,TCR,2024-06-25_11h41.36.667,LearnStrategy,2023.2.3,Win32,59.88023952,7,2,12,,,,,,,,5,07,,,,,,,,,,,5,1.424,1,,,,,,-0.321296303,-0.382407436,1,0,0,1.4243,Obsidian_rect,11,0,11,0,1,
6625132dab9a4c3935013c10,TCR,2024-06-25_11h41.36.667,LearnStrategy,2023.2.3,Win32,59.88023952,7,2,13,,,,,,,,4,05,,,,,,,,,,,4,2.113,1,,,,,,0.424074102,-0.25,1,0,0,2.1128,Gabbro_rect,12,0,12,0,1,
6625132dab9a4c3935013c10,TCR,2024-06-25_11h41.36.667,LearnStrategy,2023.2.3,Win32,59.88023952,7,2,14,,,,,,,,3,08,,,,,,,,,,,3,1.078,1,,,,,,0.187962991,-0.249074088,1,0,0,1.0776,Diorite_rect,13,0,13,0,1,
6625132dab9a4c3935013c10,TCR,2024-06-25_11h41.36.667,LearnStrategy,2023.2.3,Win32,59.88023952,7,2,15,,,,,,,,6,11,,,,,,,,,,,6,1.395,1,,,,,,-0.093518504,-0.409259302,1,0,0,1.3949,Pegmatite_rect,14,0,14,0,1,
6625132dab9a4c3935013c10,TCR,2024-06-25_11h41.36.667,LearnStrategy,2023.2.3,Win32,59.88023952,7,2,16,,,,,,,,7,10,,,,,,,,,,,7,2.244,1,,,,,,0.12037037,-0.400000042,1,0,0,2.244,Peridotite_rect,15,0,15,0,1,
6625132dab9a4c3935013c10,TCR,2024-06-25_11h41.36.667,LearnStrategy,2023.2.3,Win32,59.88023952,8,1,1,0.009259259,0.003703683,1,0,0,1.2624,rock_grid_rect_2,2,01,-1,-1,1.262,-0.117592564,-0.241666653,1,0,0,1.1449,Basalt_rect,2,1.145,1,0,0,0,0,1,,,,,,,,,,,,,
6625132dab9a4c3935013c10,TCR,2024-06-25_11h41.36.667,LearnStrategy,2023.2.3,Win32,59.88023952,8,1,2,0.00462963,0.012962942,1,0,0,0.7724,rock_grid_rect_2,3,07,-1,-1,0.772,0.097222222,-0.239814829,1,0,0,1.2132,Diorite_rect,3,1.213,1,1,0,1,0,1,,,,,,,,,,,,,
6625132dab9a4c3935013c10,TCR,2024-06-25_11h41.36.667,LearnStrategy,2023.2.3,Win32,59.88023952,8,1,3,0.040740755,-0.0074074,1,0,0,0.7987,rock_grid_rect_2,8,06,-1,-1,0.799,0.36018527,-0.400925954,1,0,0,1.0486,Pumice_rect,8,1.049,1,2,0,2,0,1,,,,,,,,,,,,,
6625132dab9a4c3935013c10,TCR,2024-06-25_11h41.36.667,LearnStrategy,2023.2.3,Win32,59.88023952,8,1,4,0.041666667,0.009259259,1,0,0,0.8109,rock_grid_rect_2,2,04,-1,-1,0.811,-0.091666681,-0.231481481,1,0,0,0.8467,Basalt_rect,2,0.847,1,3,0,3,0,1,,,,,,,,,,,,,
6625132dab9a4c3935013c10,TCR,2024-06-25_11h41.36.667,LearnStrategy,2023.2.3,Win32,59.88023952,8,1,5,0.046296296,0.001851859,1,0,0,0.9512,rock_grid_rect_2,4,01,-1,-1,0.951,-0.317592586,-0.247222265,1,0,0,1.1769,Andesite_rect,1,1.177,0,4,0,4,0,1,,,,,,,,,,,,,
6625132dab9a4c3935013c10,TCR,2024-06-25_11h41.36.667,LearnStrategy,2023.2.3,Win32,59.88023952,8,1,6,0.047222208,-0.010185206,1,0,0,1.1152,rock_grid_rect_2,8,06,-1,-1,1.115,0.365740741,-0.396296325,1,0,0,1.102,Pumice_rect,8,1.102,1,5,0,5,0,1,,,,,,,,,,,,,
6625132dab9a4c3935013c10,TCR,2024-06-25_11h41.36.667,LearnStrategy,2023.2.3,Win32,59.88023952,8,1,7,0.050925926,-0.003703718,1,0,0,0.7607,rock_grid_rect_2,7,02,-1,-1,0.761,0.126851894,-0.395370413,1,0,0,1.3529,Peridotite_rect,7,1.353,1,6,0,6,0,1,,,,,,,,,,,,,
6625132dab9a4c3935013c10,TCR,2024-06-25_11h41.36.667,LearnStrategy,2023.2.3,Win32,59.88023952,8,1,8,0.074074074,-0.013888889,1,0,0,0.8106,rock_grid_rect_2,1,04,-1,-1,0.811,-0.322222215,-0.241666653,1,0,0,1.6566,Andesite_rect,1,1.657,1,7,0,7,0,1,,,,,,,,,,,,,
6625132dab9a4c3935013c10,TCR,2024-06-25_11h41.36.667,LearnStrategy,2023.2.3,Win32,59.88023952,8,1,9,-0.008333347,-0.011111118,1,0,0,0.7096,rock_grid_rect_2,4,14,-1,-1,0.71,0.389814871,-0.262037065,1,0,0,1.1185,Gabbro_rect,4,1.119,1,8,0,8,0,1,,,,,,,,,,,,,
6625132dab9a4c3935013c10,TCR,2024-06-25_11h41.36.667,LearnStrategy,2023.2.3,Win32,59.88023952,8,1,10,0.069444444,-0.01203703,1,0,0,0.8944,rock_grid_rect_2,5,04,-1,-1,0.894,-0.349999993,-0.393518519,1,0,0,1.2164,Obsidian_rect,5,1.216,1,9,0,9,0,1,,,,,,,,,,,,,
6625132dab9a4c3935013c10,TCR,2024-06-25_11h41.36.667,LearnStrategy,2023.2.3,Win32,59.88023952,8,1,11,0.067592621,0.010185171,1,0,0,0.7976,rock_grid_rect_2,4,01,-1,-1,0.798,0.323148233,-0.25,1,0,0,2.6464,Gabbro_rect,4,2.646,1,10,0,10,0,1,,,,,,,,,,,,,
6625132dab9a4c3935013c10,TCR,2024-06-25_11h41.36.667,LearnStrategy,2023.2.3,Win32,59.88023952,8,1,12,0.074074074,-0.00462963,1,0,0,0.9288,rock_grid_rect_2,1,16,-1,-1,0.929,-0.349074081,-0.259259259,1,0,0,2.8163,Andesite_rect,1,2.816,1,11,0,11,0,1,,,,,,,,,,,,,
6625132dab9a4c3935013c10,TCR,2024-06-25_11h41.36.667,LearnStrategy,2023.2.3,Win32,59.88023952,8,1,13,0.000925912,-0.019444466,1,0,0,0.7603,rock_grid_rect_2,6,05,-1,-1,0.76,-0.095370328,-0.412037037,1,0,0,1.0423,Pegmatite_rect,6,1.042,1,12,0,12,0,1,,,,,,,,,,,,,
6625132dab9a4c3935013c10,TCR,2024-06-25_11h41.36.667,LearnStrategy,2023.2.3,Win32,59.88023952,8,1,14,0.034259302,-0.023148148,1,0,0,0.8552,rock_grid_rect_2,2,08,-1,-1,0.855,-0.092592593,-0.231481481,1,0,0,0.9135,Basalt_rect,2,0.914,1,13,0,13,0,1,,,,,,,,,,,,,
6625132dab9a4c3935013c10,TCR,2024-06-25_11h41.36.667,LearnStrategy,2023.2.3,Win32,59.88023952,8,1,15,0.017592607,-0.022222236,1,0,0,0.8813,rock_grid_rect_2,2,06,-1,-1,0.881,-0.062037009,-0.248148176,1,0,0,1.3484,Basalt_rect,2,1.348,1,14,0,14,0,1,,,,,,,,,,,,,
6625132dab9a4c3935013c10,TCR,2024-06-25_11h41.36.667,LearnStrategy,2023.2.3,Win32,59.88023952,8,1,16,-0.009259259,0.005555541,1,0,0,0.7425,rock_grid_rect_2,6,08,-1,-1,0.742,-0.068518533,-0.39907406,1,0,0,1.4381,Pegmatite_rect,6,1.438,1,15,0,15,0,1,,,,,,,,,,,,,
6625132dab9a4c3935013c10,TCR,2024-06-25_11h41.36.667,LearnStrategy,2023.2.3,Win32,59.88023952,8,2,1,,,,,,,,6,06,,,,,,,,,,,6,8.009,1,,,,,,-0.099074046,-0.409259302,1,0,0,8.0089,Pegmatite_rect,0,0,0,0,1,
6625132dab9a4c3935013c10,TCR,2024-06-25_11h41.36.667,LearnStrategy,2023.2.3,Win32,59.88023952,8,2,2,,,,,,,,5,08,,,,,,,,,,,5,1.026,1,,,,,,-0.341666645,-0.384259259,1,0,0,1.0263,Obsidian_rect,1,0,1,0,1,
6625132dab9a4c3935013c10,TCR,2024-06-25_11h41.36.667,LearnStrategy,2023.2.3,Win32,59.88023952,8,2,3,,,,,,,,3,10,,,,,,,,,,,4,13.367,0,,,,,,0.369444529,-0.243518547,1,0,0,13.3672,Gabbro_rect,2,0,2,0,1,
6625132dab9a4c3935013c10,TCR,2024-06-25_11h41.36.667,LearnStrategy,2023.2.3,Win32,59.88023952,8,2,4,,,,,,,,1,02,,,,,,,,,,,1,1.981,1,,,,,,-0.361111111,-0.240740741,1,0,0,1.9811,Andesite_rect,3,0,3,0,1,
6625132dab9a4c3935013c10,TCR,2024-06-25_11h41.36.667,LearnStrategy,2023.2.3,Win32,59.88023952,8,2,5,,,,,,,,8,16,,,,,,,,,,,2,2.197,0,,,,,,-0.121296282,-0.253703718,1,0,0,2.197,Basalt_rect,4,0,4,0,1,
6625132dab9a4c3935013c10,TCR,2024-06-25_11h41.36.667,LearnStrategy,2023.2.3,Win32,59.88023952,8,2,6,,,,,,,,5,14,,,,,,,,,,,5,1.106,1,,,,,,-0.359259252,-0.392592607,1,0,0,1.1063,Obsidian_rect,5,0,5,0,1,
6625132dab9a4c3935013c10,TCR,2024-06-25_11h41.36.667,LearnStrategy,2023.2.3,Win32,59.88023952,8,2,7,,,,,,,,6,10,,,,,,,,,,,6,1.238,1,,,,,,-0.112962935,-0.404629672,1,0,0,1.2383,Pegmatite_rect,6,0,6,0,1,
6625132dab9a4c3935013c10,TCR,2024-06-25_11h41.36.667,LearnStrategy,2023.2.3,Win32,59.88023952,8,2,8,,,,,,,,2,16,,,,,,,,,,,4,1.752,0,,,,,,0.384259259,-0.240740741,1,0,0,1.7522,Gabbro_rect,7,0,7,0,1,
6625132dab9a4c3935013c10,TCR,2024-06-25_11h41.36.667,LearnStrategy,2023.2.3,Win32,59.88023952,8,2,9,,,,,,,,8,05,,,,,,,,,,,8,1.464,1,,,,,,0.389814871,-0.392592607,1,0,0,1.4637,Pumice_rect,8,0,8,0,1,
6625132dab9a4c3935013c10,TCR,2024-06-25_11h41.36.667,LearnStrategy,2023.2.3,Win32,59.88023952,8,2,10,,,,,,,,3,09,,,,,,,,,,,3,1.804,1,,,,,,0.097222222,-0.249074088,1,0,0,1.8038,Diorite_rect,9,0,9,0,1,
6625132dab9a4c3935013c10,TCR,2024-06-25_11h41.36.667,LearnStrategy,2023.2.3,Win32,59.88023952,8,2,11,,,,,,,,2,09,,,,,,,,,,,2,1.034,1,,,,,,-0.10555557,-0.255555541,1,0,0,1.0337,Basalt_rect,10,0,10,0,1,
6625132dab9a4c3935013c10,TCR,2024-06-25_11h41.36.667,LearnStrategy,2023.2.3,Win32,59.88023952,8,2,12,,,,,,,,7,06,,,,,,,,,,,7,2.793,1,,,,,,0.112963005,-0.39907406,1,0,0,2.7933,Peridotite_rect,11,0,11,0,1,
6625132dab9a4c3935013c10,TCR,2024-06-25_11h41.36.667,LearnStrategy,2023.2.3,Win32,59.88023952,8,2,13,,,,,,,,4,15,,,,,,,,,,,4,1.481,1,,,,,,0.33148151,-0.251851894,1,0,0,1.4811,Gabbro_rect,12,0,12,0,1,
6625132dab9a4c3935013c10,TCR,2024-06-25_11h41.36.667,LearnStrategy,2023.2.3,Win32,59.88023952,8,2,14,,,,,,,,7,13,,,,,,,,,,,7,2.013,1,,,,,,0.090740769,-0.39907406,1,0,0,2.0129,Peridotite_rect,13,0,13,0,1,
6625132dab9a4c3935013c10,TCR,2024-06-25_11h41.36.667,LearnStrategy,2023.2.3,Win32,59.88023952,8,2,15,,,,,,,,1,06,,,,,,,,,,,1,2.888,1,,,,,,-0.384259259,-0.249074088,1,0,0,2.8883,Andesite_rect,14,0,14,0,1,
6625132dab9a4c3935013c10,TCR,2024-06-25_11h41.36.667,LearnStrategy,2023.2.3,Win32,59.88023952,8,2,16,,,,,,,,4,11,,,,,,,,,,,4,3.165,1,,,,,,0.387037065,-0.251851894,1,0,0,3.1645,Gabbro_rect,15,0,15,0,1,
6625132dab9a4c3935013c10,TCR,2024-06-25_11h41.36.667,LearnStrategy,2023.2.3,Win32,59.88023952,9,1,1,0.034259302,-0.020370377,1,0,0,0.8158,rock_grid_rect_2,8,02,-1,-1,0.816,0.362962935,-0.39907406,1,0,0,1.7875,Pumice_rect,8,1.787,1,0,0,0,0,1,,,,,,,,,,,,,
6625132dab9a4c3935013c10,TCR,2024-06-25_11h41.36.667,LearnStrategy,2023.2.3,Win32,59.88023952,9,1,2,0.027777778,-0.013888889,1,0,0,0.7315,rock_grid_rect_2,7,05,-1,-1,0.731,0.14907406,-0.384259259,1,0,0,1.6281,Peridotite_rect,7,1.628,1,1,0,1,0,1,,,,,,,,,,,,,
6625132dab9a4c3935013c10,TCR,2024-06-25_11h41.36.667,LearnStrategy,2023.2.3,Win32,59.88023952,9,1,3,0.07685188,-0.012962977,1,0,0,0.7593,rock_grid_rect_2,3,02,-1,-1,0.759,0.104629658,-0.232407393,1,0,0,0.9663,Diorite_rect,3,0.966,1,2,0,2,0,1,,,,,,,,,,,,,
6625132dab9a4c3935013c10,TCR,2024-06-25_11h41.36.667,LearnStrategy,2023.2.3,Win32,59.88023952,9,1,4,0.078703704,-0.020370377,1,0,0,0.8271,rock_grid_rect_2,5,11,-1,-1,0.827,-0.327777757,-0.393518519,1,0,0,1.2011,Obsidian_rect,5,1.201,1,3,0,3,0,1,,,,,,,,,,,,,
6625132dab9a4c3935013c10,TCR,2024-06-25_11h41.36.667,LearnStrategy,2023.2.3,Win32,59.88023952,9,1,5,0.058333362,-0.011111118,1,0,0,0.7724,rock_grid_rect_2,8,15,-1,-1,0.772,0.334259316,-0.400925954,1,0,0,2.2394,Pumice_rect,8,2.239,1,4,0,4,0,1,,,,,,,,,,,,,
6625132dab9a4c3935013c10,TCR,2024-06-25_11h41.36.667,LearnStrategy,2023.2.3,Win32,59.88023952,9,1,6,0.059259273,-0.008333347,1,0,0,0.7773,rock_grid_rect_2,1,09,-1,-1,0.777,-0.326851845,-0.242592635,1,0,0,1.2258,Andesite_rect,1,1.226,1,5,0,5,0,1,,,,,,,,,,,,,
6625132dab9a4c3935013c10,TCR,2024-06-25_11h41.36.667,LearnStrategy,2023.2.3,Win32,59.88023952,9,1,7,0.080555598,0.012962942,1,0,0,0.7656,rock_grid_rect_2,6,03,-1,-1,0.766,-0.076851809,-0.398148148,1,0,0,2.4034,Pegmatite_rect,6,2.403,1,6,0,6,0,1,,,,,,,,,,,,,
6625132dab9a4c3935013c10,TCR,2024-06-25_11h41.36.667,LearnStrategy,2023.2.3,Win32,59.88023952,9,1,8,-0.005555541,0.005555541,1,0,0,0.7,rock_grid_rect_2,2,14,-1,-1,0.7,-0.066666638,-0.271296325,1,0,0,0.9079,Basalt_rect,2,0.908,1,7,0,7,0,1,,,,,,,,,,,,,
6625132dab9a4c3935013c10,TCR,2024-06-25_11h41.36.667,LearnStrategy,2023.2.3,Win32,59.88023952,9,1,9,0.015740783,0.005555541,1,0,0,0.7235,rock_grid_rect_2,3,06,-1,-1,0.724,0.325925898,-0.25,1,0,0,3.5519,Gabbro_rect,4,3.552,0,8,0,8,0,1,,,,,,,,,,,,,
6625132dab9a4c3935013c10,TCR,2024-06-25_11h41.36.667,LearnStrategy,2023.2.3,Win32,59.88023952,9,1,10,0.048148191,-0.009259259,1,0,0,0.6664,rock_grid_rect_2,8,02,-1,-1,0.666,0.352777834,-0.391666695,1,0,0,1.1219,Pumice_rect,8,1.122,1,9,0,9,0,1,,,,,,,,,,,,,
6625132dab9a4c3935013c10,TCR,2024-06-25_11h41.36.667,LearnStrategy,2023.2.3,Win32,59.88023952,9,1,11,0.080555598,-0.013888889,1,0,0,0.7148,rock_grid_rect_2,4,14,-1,-1,0.715,-0.047222208,-0.238888917,1,0,0,1.2908,Basalt_rect,2,1.291,0,10,0,10,0,1,,,,,,,,,,,,,
6625132dab9a4c3935013c10,TCR,2024-06-25_11h41.36.667,LearnStrategy,2023.2.3,Win32,59.88023952,9,1,12,0.086111139,-0.003703718,1,0,0,0.8117,rock_grid_rect_2,2,01,-1,-1,0.812,-0.101851852,-0.259259259,1,0,0,0.9002,Basalt_rect,2,0.9,1,11,0,11,0,1,,,,,,,,,,,,,
6625132dab9a4c3935013c10,TCR,2024-06-25_11h41.36.667,LearnStrategy,2023.2.3,Win32,59.88023952,9,1,13,0.040740755,0.008333312,1,0,0,0.7086,rock_grid_rect_2,4,01,-1,-1,0.709,-0.369444423,-0.247222265,1,0,0,1.4741,Andesite_rect,1,1.474,0,12,0,12,0,1,,,,,,,,,,,,,
6625132dab9a4c3935013c10,TCR,2024-06-25_11h41.36.667,LearnStrategy,2023.2.3,Win32,59.88023952,9,1,14,0.089814857,0.003703683,1,0,0,0.957,rock_grid_rect_2,2,10,-1,-1,0.957,0.3648149,-0.258333347,1,0,0,2.963,Gabbro_rect,4,2.963,0,13,0,13,0,1,,,,,,,,,,,,,
6625132dab9a4c3935013c10,TCR,2024-06-25_11h41.36.667,LearnStrategy,2023.2.3,Win32,59.88023952,9,1,15,0.009259259,-0.008333347,1,0,0,0.8559,rock_grid_rect_2,2,08,-1,-1,0.856,-0.089814787,-0.252777806,1,0,0,1.043,Basalt_rect,2,1.043,1,14,0,14,0,1,,,,,,,,,,,,,
6625132dab9a4c3935013c10,TCR,2024-06-25_11h41.36.667,LearnStrategy,2023.2.3,Win32,59.88023952,9,1,16,0.050925926,0.018518519,1,0,0,0.7606,rock_grid_rect_2,1,04,-1,-1,0.761,-0.339814822,-0.244444459,1,0,0,1.0187,Andesite_rect,1,1.019,1,15,0,15,0,1,,,,,,,,,,,,,
6625132dab9a4c3935013c10,TCR,2024-06-25_11h41.36.667,LearnStrategy,2023.2.3,Win32,59.88023952,9,2,1,,,,,,,,1,10,,,,,,,,,,,1,2.237,1,,,,,,-0.329629616,-0.246296282,1,0,0,2.2369,Andesite_rect,0,0,0,0,1,
6625132dab9a4c3935013c10,TCR,2024-06-25_11h41.36.667,LearnStrategy,2023.2.3,Win32,59.88023952,9,2,2,,,,,,,,4,13,,,,,,,,,,,4,1.966,1,,,,,,0.336111139,-0.25,1,0,0,1.9661,Gabbro_rect,1,0,1,0,1,
6625132dab9a4c3935013c10,TCR,2024-06-25_11h41.36.667,LearnStrategy,2023.2.3,Win32,59.88023952,9,2,3,,,,,,,,7,15,,,,,,,,,,,7,1.07,1,,,,,,0.131481524,-0.401851866,1,0,0,1.0697,Peridotite_rect,2,0,2,0,1,
6625132dab9a4c3935013c10,TCR,2024-06-25_11h41.36.667,LearnStrategy,2023.2.3,Win32,59.88023952,9,2,4,,,,,,,,8,08,,,,,,,,,,,8,1.02,1,,,,,,0.371296353,-0.392592607,1,0,0,1.0201,Pumice_rect,3,0,3,0,1,
6625132dab9a4c3935013c10,TCR,2024-06-25_11h41.36.667,LearnStrategy,2023.2.3,Win32,59.88023952,9,2,5,,,,,,,,5,12,,,,,,,,,,,5,1.079,1,,,,,,-0.329629616,-0.415740755,1,0,0,1.0789,Obsidian_rect,4,0,4,0,1,
6625132dab9a4c3935013c10,TCR,2024-06-25_11h41.36.667,LearnStrategy,2023.2.3,Win32,59.88023952,9,2,6,,,,,,,,2,11,,,,,,,,,,,1,6.256,0,,,,,,-0.356481481,-0.247222265,1,0,0,6.2561,Andesite_rect,5,0,5,0,1,
6625132dab9a4c3935013c10,TCR,2024-06-25_11h41.36.667,LearnStrategy,2023.2.3,Win32,59.88023952,9,2,7,,,,,,,,3,12,,,,,,,,,,,3,1.208,1,,,,,,0.114814829,-0.25,1,0,0,1.2078,Diorite_rect,6,0,6,0,1,
6625132dab9a4c3935013c10,TCR,2024-06-25_11h41.36.667,LearnStrategy,2023.2.3,Win32,59.88023952,9,2,8,,,,,,,,8,10,,,,,,,,,,,8,1.318,1,,,,,,0.348148205,-0.395370413,1,0,0,1.3176,Pumice_rect,7,0,7,0,1,
6625132dab9a4c3935013c10,TCR,2024-06-25_11h41.36.667,LearnStrategy,2023.2.3,Win32,59.88023952,9,2,9,,,,,,,,1,03,,,,,,,,,,,1,5.109,1,,,,,,-0.359259252,-0.249074088,1,0,0,5.1087,Andesite_rect,8,0,8,0,1,
6625132dab9a4c3935013c10,TCR,2024-06-25_11h41.36.667,LearnStrategy,2023.2.3,Win32,59.88023952,9,2,10,,,,,,,,6,12,,,,,,,,,,,6,1.227,1,,,,,,-0.10555557,-0.388888889,1,0,0,1.2274,Pegmatite_rect,9,0,9,0,1,
6625132dab9a4c3935013c10,TCR,2024-06-25_11h41.36.667,LearnStrategy,2023.2.3,Win32,59.88023952,9,2,11,,,,,,,,4,12,,,,,,,,,,,4,3.197,1,,,,,,0.407407407,-0.257407436,1,0,0,3.1967,Gabbro_rect,10,0,10,0,1,
6625132dab9a4c3935013c10,TCR,2024-06-25_11h41.36.667,LearnStrategy,2023.2.3,Win32,59.88023952,9,2,12,,,,,,,,3,11,,,,,,,,,,,3,1.846,1,,,,,,0.124074088,-0.257407436,1,0,0,1.8461,Diorite_rect,11,0,11,0,1,
6625132dab9a4c3935013c10,TCR,2024-06-25_11h41.36.667,LearnStrategy,2023.2.3,Win32,59.88023952,9,2,13,,,,,,,,7,07,,,,,,,,,,,7,2.604,1,,,,,,0.126851894,-0.390740783,1,0,0,2.6042,Peridotite_rect,12,0,12,0,1,
6625132dab9a4c3935013c10,TCR,2024-06-25_11h41.36.667,LearnStrategy,2023.2.3,Win32,59.88023952,9,2,14,,,,,,,,5,09,,,,,,,,,,,5,1.153,1,,,,,,-0.373148141,-0.398148148,1,0,0,1.1526,Obsidian_rect,13,0,13,0,1,
6625132dab9a4c3935013c10,TCR,2024-06-25_11h41.36.667,LearnStrategy,2023.2.3,Win32,59.88023952,9,2,15,,,,,,,,6,16,,,,,,,,,,,6,1.032,1,,,,,,-0.158333319,-0.401851866,1,0,0,1.0323,Pegmatite_rect,14,0,14,0,1,
6625132dab9a4c3935013c10,TCR,2024-06-25_11h41.36.667,LearnStrategy,2023.2.3,Win32,59.88023952,9,2,16,,,,,,,,2,02,,,,,,,,,,,2,0.966,1,,,,,,-0.10555557,-0.233333376,1,0,0,0.9663,Basalt_rect,15,0,15,0,1,
6625132dab9a4c3935013c10,TCR,2024-06-25_11h41.36.667,LearnStrategy,2023.2.3,Win32,59.88023952,,,,,,,,,,,,,,,,,,,,,,,,,,,,,,,,,,,,,,,,,,,1
6625132dab9a4c3935013c10,TCR,2024-06-25_11h41.36.667,LearnStrategy,2023.2.3,Win32,59.88023952,,,,,,,,,,,,,,,,,,,,,,,,,,,,,,,,,,,,,,,,,,,
6625132dab9a4c3935013c10,TCR,2024-06-25_11h41.36.667,LearnStrategy,2023.2.3,Win32,59.88023952,,,,,,,,,,,2,06,1,1,,,,,,,,,,,,,,,,,,,,,,,,,,,,,
6625132dab9a4c3935013c10,TCR,2024-06-25_11h41.36.667,LearnStrategy,2023.2.3,Win32,59.88023952,,,,,,,,,,,5,06,1,2,,,,,,,,,,,,,,,,,,,,,,,,,,,,,
6625132dab9a4c3935013c10,TCR,2024-06-25_11h41.36.667,LearnStrategy,2023.2.3,Win32,59.88023952,,,,,,,,,,,5,04,1,3,,,,,,,,,,,,,,,,,,,,,,,,,,,,,
6625132dab9a4c3935013c10,TCR,2024-06-25_11h41.36.667,LearnStrategy,2023.2.3,Win32,59.88023952,,,,,,,,,,,7,08,1,4,,,,,,,,,,,,,,,,,,,,,,,,,,,,,
6625132dab9a4c3935013c10,TCR,2024-06-25_11h41.36.667,LearnStrategy,2023.2.3,Win32,59.88023952,,,,,,,,,,,6,09,1,5,,,,,,,,,,,,,,,,,,,,,,,,,,,,,
6625132dab9a4c3935013c10,TCR,2024-06-25_11h41.36.667,LearnStrategy,2023.2.3,Win32,59.88023952,,,,,,,,,,,3,07,1,6,,,,,,,,,,,,,,,,,,,,,,,,,,,,,
6625132dab9a4c3935013c10,TCR,2024-06-25_11h41.36.667,LearnStrategy,2023.2.3,Win32,59.88023952,,,,,,,,,,,5,05,1,7,,,,,,,,,,,,,,,,,,,,,,,,,,,,,
6625132dab9a4c3935013c10,TCR,2024-06-25_11h41.36.667,LearnStrategy,2023.2.3,Win32,59.88023952,,,,,,,,,,,6,08,1,8,,,,,,,,,,,,,,,,,,,,,,,,,,,,,
6625132dab9a4c3935013c10,TCR,2024-06-25_11h41.36.667,LearnStrategy,2023.2.3,Win32,59.88023952,,,,,,,,,,,8,14,2,1,,,,,,,,,,,,,,,,,,,,,,,,,,,,,
6625132dab9a4c3935013c10,TCR,2024-06-25_11h41.36.667,LearnStrategy,2023.2.3,Win32,59.88023952,,,,,,,,,,,4,01,2,2,,,,,,,,,,,,,,,,,,,,,,,,,,,,,
6625132dab9a4c3935013c10,TCR,2024-06-25_11h41.36.667,LearnStrategy,2023.2.3,Win32,59.88023952,,,,,,,,,,,8,06,2,3,,,,,,,,,,,,,,,,,,,,,,,,,,,,,
6625132dab9a4c3935013c10,TCR,2024-06-25_11h41.36.667,LearnStrategy,2023.2.3,Win32,59.88023952,,,,,,,,,,,3,15,2,4,,,,,,,,,,,,,,,,,,,,,,,,,,,,,
6625132dab9a4c3935013c10,TCR,2024-06-25_11h41.36.667,LearnStrategy,2023.2.3,Win32,59.88023952,,,,,,,,,,,2,04,2,5,,,,,,,,,,,,,,,,,,,,,,,,,,,,,
6625132dab9a4c3935013c10,TCR,2024-06-25_11h41.36.667,LearnStrategy,2023.2.3,Win32,59.88023952,,,,,,,,,,,3,02,2,6,,,,,,,,,,,,,,,,,,,,,,,,,,,,,
6625132dab9a4c3935013c10,TCR,2024-06-25_11h41.36.667,LearnStrategy,2023.2.3,Win32,59.88023952,,,,,,,,,,,1,04,2,7,,,,,,,,,,,,,,,,,,,,,,,,,,,,,
6625132dab9a4c3935013c10,TCR,2024-06-25_11h41.36.667,LearnStrategy,2023.2.3,Win32,59.88023952,,,,,,,,,,,6,05,2,8,,,,,,,,,,,,,,,,,,,,,,,,,,,,,
6625132dab9a4c3935013c10,TCR,2024-06-25_11h41.36.667,LearnStrategy,2023.2.3,Win32,59.88023952,,,,,,,,,,,7,04,3,1,,,,,,,,,,,,,,,,,,,,,,,,,,,,,
6625132dab9a4c3935013c10,TCR,2024-06-25_11h41.36.667,LearnStrategy,2023.2.3,Win32,59.88023952,,,,,,,,,,,2,08,3,2,,,,,,,,,,,,,,,,,,,,,,,,,,,,,
6625132dab9a4c3935013c10,TCR,2024-06-25_11h41.36.667,LearnStrategy,2023.2.3,Win32,59.88023952,,,,,,,,,,,8,15,3,3,,,,,,,,,,,,,,,,,,,,,,,,,,,,,
6625132dab9a4c3935013c10,TCR,2024-06-25_11h41.36.667,LearnStrategy,2023.2.3,Win32,59.88023952,,,,,,,,,,,4,16,3,4,,,,,,,,,,,,,,,,,,,,,,,,,,,,,
6625132dab9a4c3935013c10,TCR,2024-06-25_11h41.36.667,LearnStrategy,2023.2.3,Win32,59.88023952,,,,,,,,,,,2,10,3,5,,,,,,,,,,,,,,,,,,,,,,,,,,,,,
6625132dab9a4c3935013c10,TCR,2024-06-25_11h41.36.667,LearnStrategy,2023.2.3,Win32,59.88023952,,,,,,,,,,,4,03,3,6,,,,,,,,,,,,,,,,,,,,,,,,,,,,,
6625132dab9a4c3935013c10,TCR,2024-06-25_11h41.36.667,LearnStrategy,2023.2.3,Win32,59.88023952,,,,,,,,,,,3,13,3,7,,,,,,,,,,,,,,,,,,,,,,,,,,,,,
6625132dab9a4c3935013c10,TCR,2024-06-25_11h41.36.667,LearnStrategy,2023.2.3,Win32,59.88023952,,,,,,,,,,,1,09,3,8,,,,,,,,,,,,,,,,,,,,,,,,,,,,,
6625132dab9a4c3935013c10,TCR,2024-06-25_11h41.36.667,LearnStrategy,2023.2.3,Win32,59.88023952,,,,,,,,,,,5,11,4,1,,,,,,,,,,,,,,,,,,,,,,,,,,,,,
6625132dab9a4c3935013c10,TCR,2024-06-25_11h41.36.667,LearnStrategy,2023.2.3,Win32,59.88023952,,,,,,,,,,,8,02,4,2,,,,,,,,,,,,,,,,,,,,,,,,,,,,,
6625132dab9a4c3935013c10,TCR,2024-06-25_11h41.36.667,LearnStrategy,2023.2.3,Win32,59.88023952,,,,,,,,,,,4,14,4,3,,,,,,,,,,,,,,,,,,,,,,,,,,,,,
6625132dab9a4c3935013c10,TCR,2024-06-25_11h41.36.667,LearnStrategy,2023.2.3,Win32,59.88023952,,,,,,,,,,,7,16,4,4,,,,,,,,,,,,,,,,,,,,,,,,,,,,,
6625132dab9a4c3935013c10,TCR,2024-06-25_11h41.36.667,LearnStrategy,2023.2.3,Win32,59.88023952,,,,,,,,,,,4,10,4,5,,,,,,,,,,,,,,,,,,,,,,,,,,,,,
6625132dab9a4c3935013c10,TCR,2024-06-25_11h41.36.667,LearnStrategy,2023.2.3,Win32,59.88023952,,,,,,,,,,,1,01,4,6,,,,,,,,,,,,,,,,,,,,,,,,,,,,,
6625132dab9a4c3935013c10,TCR,2024-06-25_11h41.36.667,LearnStrategy,2023.2.3,Win32,59.88023952,,,,,,,,,,,3,06,4,7,,,,,,,,,,,,,,,,,,,,,,,,,,,,,
6625132dab9a4c3935013c10,TCR,2024-06-25_11h41.36.667,LearnStrategy,2023.2.3,Win32,59.88023952,,,,,,,,,,,7,02,4,8,,,,,,,,,,,,,,,,,,,,,,,,,,,,,
6625132dab9a4c3935013c10,TCR,2024-06-25_11h41.36.667,LearnStrategy,2023.2.3,Win32,59.88023952,,,,,,,,,,,8,03,5,1,,,,,,,,,,,,,,,,,,,,,,,,,,,,,
6625132dab9a4c3935013c10,TCR,2024-06-25_11h41.36.667,LearnStrategy,2023.2.3,Win32,59.88023952,,,,,,,,,,,5,16,5,2,,,,,,,,,,,,,,,,,,,,,,,,,,,,,
6625132dab9a4c3935013c10,TCR,2024-06-25_11h41.36.667,LearnStrategy,2023.2.3,Win32,59.88023952,,,,,,,,,,,1,16,5,3,,,,,,,,,,,,,,,,,,,,,,,,,,,,,
6625132dab9a4c3935013c10,TCR,2024-06-25_11h41.36.667,LearnStrategy,2023.2.3,Win32,59.88023952,,,,,,,,,,,5,10,5,4,,,,,,,,,,,,,,,,,,,,,,,,,,,,,
6625132dab9a4c3935013c10,TCR,2024-06-25_11h41.36.667,LearnStrategy,2023.2.3,Win32,59.88023952,,,,,,,,,,,7,14,5,5,,,,,,,,,,,,,,,,,,,,,,,,,,,,,
6625132dab9a4c3935013c10,TCR,2024-06-25_11h41.36.667,LearnStrategy,2023.2.3,Win32,59.88023952,,,,,,,,,,,6,13,5,6,,,,,,,,,,,,,,,,,,,,,,,,,,,,,
6625132dab9a4c3935013c10,TCR,2024-06-25_11h41.36.667,LearnStrategy,2023.2.3,Win32,59.88023952,,,,,,,,,,,4,08,5,7,,,,,,,,,,,,,,,,,,,,,,,,,,,,,
6625132dab9a4c3935013c10,TCR,2024-06-25_11h41.36.667,LearnStrategy,2023.2.3,Win32,59.88023952,,,,,,,,,,,7,05,5,8,,,,,,,,,,,,,,,,,,,,,,,,,,,,,
6625132dab9a4c3935013c10,TCR,2024-06-25_11h41.36.667,LearnStrategy,2023.2.3,Win32,59.88023952,,,,,,,,,,,1,14,6,1,,,,,,,,,,,,,,,,,,,,,,,,,,,,,
6625132dab9a4c3935013c10,TCR,2024-06-25_11h41.36.667,LearnStrategy,2023.2.3,Win32,59.88023952,,,,,,,,,,,2,14,6,2,,,,,,,,,,,,,,,,,,,,,,,,,,,,,
6625132dab9a4c3935013c10,TCR,2024-06-25_11h41.36.667,LearnStrategy,2023.2.3,Win32,59.88023952,,,,,,,,,,,3,16,6,3,,,,,,,,,,,,,,,,,,,,,,,,,,,,,
6625132dab9a4c3935013c10,TCR,2024-06-25_11h41.36.667,LearnStrategy,2023.2.3,Win32,59.88023952,,,,,,,,,,,1,11,6,4,,,,,,,,,,,,,,,,,,,,,,,,,,,,,
6625132dab9a4c3935013c10,TCR,2024-06-25_11h41.36.667,LearnStrategy,2023.2.3,Win32,59.88023952,,,,,,,,,,,2,01,6,5,,,,,,,,,,,,,,,,,,,,,,,,,,,,,
6625132dab9a4c3935013c10,TCR,2024-06-25_11h41.36.667,LearnStrategy,2023.2.3,Win32,59.88023952,,,,,,,,,,,6,07,6,6,,,,,,,,,,,,,,,,,,,,,,,,,,,,,
6625132dab9a4c3935013c10,TCR,2024-06-25_11h41.36.667,LearnStrategy,2023.2.3,Win32,59.88023952,,,,,,,,,,,8,09,6,7,,,,,,,,,,,,,,,,,,,,,,,,,,,,,
6625132dab9a4c3935013c10,TCR,2024-06-25_11h41.36.667,LearnStrategy,2023.2.3,Win32,59.88023952,,,,,,,,,,,6,03,6,8,,,,,,,,,,,,,,,,,,,,,,,,,,,,,