participant,condition,date,expName,psychopyVersion,OS,frameRate,block,phase,trial,learn_mouse_2.x,learn_mouse_2.y,learn_mouse_2.leftButton,learn_mouse_2.midButton,learn_mouse_2.rightButton,learn_mouse_2.time,learn_mouse_2.clicked_name,cat,token,row,col,t_select,cat_mouse_l.x,cat_mouse_l.y,cat_mouse_l.leftButton,cat_mouse_l.midButton,cat_mouse_l.rightButton,cat_mouse_l.time,cat_mouse_l.clicked_name,resp,t_resp,corr,train_trials.thisRepN,train_trials.thisTrialN,train_trials.thisN,train_trials.thisIndex,train_trials.ran,cat_mouse_t.x,cat_mouse_t.y,cat_mouse_t.leftButton,cat_mouse_t.midButton,cat_mouse_t.rightButton,cat_mouse_t.time,cat_mouse_t.clicked_name,test_trials.thisRepN,test_trials.thisTrialN,test_trials.thisN,test_trials.thisIndex,test_trials.ran,Bonus
6625c9127eee9a3639d7e1af,TCN,2024-06-24_17h39.13.817,LearnStrategy,2023.2.3,Win32,12.00480192,,,,,,,,,,,,,,,,,,,,,,,,,,,,,,,,,,,,,,,,,,,
6625c9127eee9a3639d7e1af,TCN,2024-06-24_17h39.13.817,LearnStrategy,2023.2.3,Win32,12.00480192,1,1,1,0.051851852,0.001851852,1,0,0,2.3052,rock_grid_rect_2,1,04,-1,-1,2.305,-0.42037037,-0.411111111,1,0,0,10.6719,Obsidian_rect,5,10.672,0,0,0,0,0,1,,,,,,,,,,,,,
6625c9127eee9a3639d7e1af,TCN,2024-06-24_17h39.13.817,LearnStrategy,2023.2.3,Win32,12.00480192,1,1,2,-0.007407407,-0.005555556,1,0,0,7.1248,rock_grid_rect_2,6,06,-1,-1,7.125,0.097222222,-0.251851852,1,0,0,7.1219,Diorite_rect,3,7.122,0,1,0,1,0,1,,,,,,,,,,,,,
6625c9127eee9a3639d7e1af,TCN,2024-06-24_17h39.13.817,LearnStrategy,2023.2.3,Win32,12.00480192,1,1,3,0.082407407,-0.001851852,1,0,0,2.0756,rock_grid_rect_2,1,01,-1,-1,2.076,-0.160185185,-0.261111111,1,0,0,6.2228,Basalt_rect,2,6.223,0,2,0,2,0,1,,,,,,,,,,,,,
6625c9127eee9a3639d7e1af,TCN,2024-06-24_17h39.13.817,LearnStrategy,2023.2.3,Win32,12.00480192,1,1,4,-0.07037037,-0.007407407,1,0,0,1.5235,rock_grid_rect_2,8,03,-1,-1,1.524,0.330555556,-0.388888889,1,0,0,2.9704,Pumice_rect,8,2.97,1,3,0,3,0,1,,,,,,,,,,,,,
6625c9127eee9a3639d7e1af,TCN,2024-06-24_17h39.13.817,LearnStrategy,2023.2.3,Win32,12.00480192,1,1,5,-0.028703704,0.016666667,1,0,0,1.0178,rock_grid_rect_2,5,07,-1,-1,1.018,-0.328703704,-0.388888889,1,0,0,2.8705,Obsidian_rect,5,2.87,1,4,0,4,0,1,,,,,,,,,,,,,
6625c9127eee9a3639d7e1af,TCN,2024-06-24_17h39.13.817,LearnStrategy,2023.2.3,Win32,12.00480192,1,1,6,-0.062037037,-0.006481481,1,0,0,1.4433,rock_grid_rect_2,4,14,-1,-1,1.443,0.125925926,-0.25462963,1,0,0,6.1177,Diorite_rect,3,6.118,0,5,0,5,0,1,,,,,,,,,,,,,
6625c9127eee9a3639d7e1af,TCN,2024-06-24_17h39.13.817,LearnStrategy,2023.2.3,Win32,12.00480192,1,1,7,0.008333333,0.006481481,1,0,0,0.9408,rock_grid_rect_2,3,11,-1,-1,0.941,-0.128703704,-0.240740741,1,0,0,4.4227,Basalt_rect,2,4.423,0,6,0,6,0,1,,,,,,,,,,,,,
6625c9127eee9a3639d7e1af,TCN,2024-06-24_17h39.13.817,LearnStrategy,2023.2.3,Win32,12.00480192,1,1,8,0.013888889,-0.011111111,1,0,0,2.0637,rock_grid_rect_2,6,13,-1,-1,2.064,0.17037037,-0.387037037,1,0,0,6.623,Peridotite_rect,7,6.623,0,7,0,7,0,1,,,,,,,,,,,,,
6625c9127eee9a3639d7e1af,TCN,2024-06-24_17h39.13.817,LearnStrategy,2023.2.3,Win32,12.00480192,1,1,9,-0.041666667,0.008333333,1,0,0,0.912,rock_grid_rect_2,5,12,-1,-1,0.912,-0.112037037,-0.253703704,1,0,0,8.6946,Basalt_rect,2,8.695,0,8,0,8,0,1,,,,,,,,,,,,,
6625c9127eee9a3639d7e1af,TCN,2024-06-24_17h39.13.817,LearnStrategy,2023.2.3,Win32,12.00480192,1,1,10,-0.016666667,-0.006481481,1,0,0,1.6954,rock_grid_rect_2,7,12,-1,-1,1.695,-0.341666667,-0.251851852,1,0,0,7.4687,Andesite_rect,1,7.469,0,9,0,9,0,1,,,,,,,,,,,,,
6625c9127eee9a3639d7e1af,TCN,2024-06-24_17h39.13.817,LearnStrategy,2023.2.3,Win32,12.00480192,1,1,11,-0.059259259,-0.022222222,1,0,0,0.9192,rock_grid_rect_2,4,08,-1,-1,0.919,-0.339814815,-0.236111111,1,0,0,2.2804,Andesite_rect,1,2.28,0,10,0,10,0,1,,,,,,,,,,,,,
6625c9127eee9a3639d7e1af,TCN,2024-06-24_17h39.13.817,LearnStrategy,2023.2.3,Win32,12.00480192,1,1,12,-0.006481481,0.010185185,1,0,0,0.9142,rock_grid_rect_2,2,10,-1,-1,0.914,-0.164814815,-0.252777778,1,0,0,4.3408,Basalt_rect,2,4.341,1,11,0,11,0,1,,,,,,,,,,,,,
6625c9127eee9a3639d7e1af,TCN,2024-06-24_17h39.13.817,LearnStrategy,2023.2.3,Win32,12.00480192,1,1,13,-0.024074074,0.002777778,1,0,0,0.8172,rock_grid_rect_2,3,06,-1,-1,0.817,0.133333333,-0.250925926,1,0,0,5.4025,Diorite_rect,3,5.403,1,12,0,12,0,1,,,,,,,,,,,,,
6625c9127eee9a3639d7e1af,TCN,2024-06-24_17h39.13.817,LearnStrategy,2023.2.3,Win32,12.00480192,1,1,14,0.039814815,-0.001851852,1,0,0,1.0279,rock_grid_rect_2,8,15,-1,-1,1.028,0.380555556,-0.387962963,1,0,0,2.712,Pumice_rect,8,2.712,1,13,0,13,0,1,,,,,,,,,,,,,
6625c9127eee9a3639d7e1af,TCN,2024-06-24_17h39.13.817,LearnStrategy,2023.2.3,Win32,12.00480192,1,1,15,-0.033333333,0.011111111,1,0,0,0.9315,rock_grid_rect_2,7,14,-1,-1,0.931,0.119444444,-0.388888889,1,0,0,6.9029,Peridotite_rect,7,6.903,1,14,0,14,0,1,,,,,,,,,,,,,
6625c9127eee9a3639d7e1af,TCN,2024-06-24_17h39.13.817,LearnStrategy,2023.2.3,Win32,12.00480192,1,1,16,0.010185185,0.002777778,1,0,0,1.034,rock_grid_rect_2,2,11,-1,-1,1.034,0.42037037,-0.393518519,1,0,0,6.396,Pumice_rect,8,6.396,0,15,0,15,0,1,,,,,,,,,,,,,
6625c9127eee9a3639d7e1af,TCN,2024-06-24_17h39.13.817,LearnStrategy,2023.2.3,Win32,12.00480192,1,2,1,,,,,,,,5,09,,,,,,,,,,,5,3.984,1,,,,,,-0.375925926,-0.389814815,1,0,0,3.9837,Obsidian_rect,0,0,0,0,1,
6625c9127eee9a3639d7e1af,TCN,2024-06-24_17h39.13.817,LearnStrategy,2023.2.3,Win32,12.00480192,1,2,2,,,,,,,,2,16,,,,,,,,,,,1,12.024,0,,,,,,-0.35462963,-0.259259259,1,0,0,12.024,Andesite_rect,1,0,1,0,1,
6625c9127eee9a3639d7e1af,TCN,2024-06-24_17h39.13.817,LearnStrategy,2023.2.3,Win32,12.00480192,1,2,3,,,,,,,,1,10,,,,,,,,,,,6,7.029,0,,,,,,-0.081481481,-0.39537037,1,0,0,7.0291,Pegmatite_rect,2,0,2,0,1,
6625c9127eee9a3639d7e1af,TCN,2024-06-24_17h39.13.817,LearnStrategy,2023.2.3,Win32,12.00480192,1,2,4,,,,,,,,5,08,,,,,,,,,,,5,1.838,1,,,,,,-0.378703704,-0.399074074,1,0,0,1.8377,Obsidian_rect,3,0,3,0,1,
6625c9127eee9a3639d7e1af,TCN,2024-06-24_17h39.13.817,LearnStrategy,2023.2.3,Win32,12.00480192,1,2,5,,,,,,,,3,14,,,,,,,,,,,3,3.589,1,,,,,,0.102777778,-0.256481481,1,0,0,3.5894,Diorite_rect,4,0,4,0,1,
6625c9127eee9a3639d7e1af,TCN,2024-06-24_17h39.13.817,LearnStrategy,2023.2.3,Win32,12.00480192,1,2,6,,,,,,,,4,12,,,,,,,,,,,2,3.185,0,,,,,,-0.103703704,-0.231481481,1,0,0,3.1851,Basalt_rect,5,0,5,0,1,
6625c9127eee9a3639d7e1af,TCN,2024-06-24_17h39.13.817,LearnStrategy,2023.2.3,Win32,12.00480192,1,2,7,,,,,,,,8,08,,,,,,,,,,,8,1.284,1,,,,,,0.415740741,-0.397222222,1,0,0,1.2841,Pumice_rect,6,0,6,0,1,
6625c9127eee9a3639d7e1af,TCN,2024-06-24_17h39.13.817,LearnStrategy,2023.2.3,Win32,12.00480192,1,2,8,,,,,,,,8,16,,,,,,,,,,,8,2.505,1,,,,,,0.371296296,-0.4,1,0,0,2.5049,Pumice_rect,7,0,7,0,1,
6625c9127eee9a3639d7e1af,TCN,2024-06-24_17h39.13.817,LearnStrategy,2023.2.3,Win32,12.00480192,1,2,9,,,,,,,,7,15,,,,,,,,,,,7,5.192,1,,,,,,0.078703704,-0.4,1,0,0,5.1924,Peridotite_rect,8,0,8,0,1,
6625c9127eee9a3639d7e1af,TCN,2024-06-24_17h39.13.817,LearnStrategy,2023.2.3,Win32,12.00480192,1,2,10,,,,,,,,6,03,,,,,,,,,,,4,4.625,0,,,,,,0.328703704,-0.236111111,1,0,0,4.6248,Gabbro_rect,9,0,9,0,1,
6625c9127eee9a3639d7e1af,TCN,2024-06-24_17h39.13.817,LearnStrategy,2023.2.3,Win32,12.00480192,1,2,11,,,,,,,,2,12,,,,,,,,,,,1,6.962,0,,,,,,-0.350925926,-0.257407407,1,0,0,6.9616,Andesite_rect,10,0,10,0,1,
6625c9127eee9a3639d7e1af,TCN,2024-06-24_17h39.13.817,LearnStrategy,2023.2.3,Win32,12.00480192,1,2,12,,,,,,,,6,15,,,,,,,,,,,4,5.267,0,,,,,,0.336111111,-0.246296296,1,0,0,5.2673,Gabbro_rect,11,0,11,0,1,
6625c9127eee9a3639d7e1af,TCN,2024-06-24_17h39.13.817,LearnStrategy,2023.2.3,Win32,12.00480192,1,2,13,,,,,,,,1,05,,,,,,,,,,,1,4.685,1,,,,,,-0.351851852,-0.243518519,1,0,0,4.6854,Andesite_rect,12,0,12,0,1,
6625c9127eee9a3639d7e1af,TCN,2024-06-24_17h39.13.817,LearnStrategy,2023.2.3,Win32,12.00480192,1,2,14,,,,,,,,3,08,,,,,,,,,,,3,1.777,1,,,,,,0.100925926,-0.267592593,1,0,0,1.7771,Diorite_rect,13,0,13,0,1,
6625c9127eee9a3639d7e1af,TCN,2024-06-24_17h39.13.817,LearnStrategy,2023.2.3,Win32,12.00480192,1,2,15,,,,,,,,4,16,,,,,,,,,,,2,1.983,0,,,,,,-0.130555556,-0.237037037,1,0,0,1.9833,Basalt_rect,14,0,14,0,1,
6625c9127eee9a3639d7e1af,TCN,2024-06-24_17h39.13.817,LearnStrategy,2023.2.3,Win32,12.00480192,1,2,16,,,,,,,,7,02,,,,,,,,,,,7,2.991,1,,,,,,0.094444444,-0.397222222,1,0,0,2.9909,Peridotite_rect,15,0,15,0,1,
6625c9127eee9a3639d7e1af,TCN,2024-06-24_17h39.13.817,LearnStrategy,2023.2.3,Win32,12.00480192,2,1,1,-0.022222222,-0.003703704,1,0,0,3.1788,rock_grid_rect_2,4,10,-1,-1,3.179,-0.387962963,-0.257407407,1,0,0,7.041,Andesite_rect,1,7.041,0,0,0,0,0,1,,,,,,,,,,,,,
6625c9127eee9a3639d7e1af,TCN,2024-06-24_17h39.13.817,LearnStrategy,2023.2.3,Win32,12.00480192,2,1,2,-0.023148148,-0.007407407,1,0,0,2.0147,rock_grid_rect_2,6,05,-1,-1,2.015,-0.086111111,-0.381481481,1,0,0,8.9174,Pegmatite_rect,6,8.917,1,1,0,1,0,1,,,,,,,,,,,,,
6625c9127eee9a3639d7e1af,TCN,2024-06-24_17h39.13.817,LearnStrategy,2023.2.3,Win32,12.00480192,2,1,3,-0.076851852,-0.008333333,1,0,0,0.9346,rock_grid_rect_2,2,08,-1,-1,0.935,-0.34537037,-0.236111111,1,0,0,7.6207,Andesite_rect,1,7.621,0,2,0,2,0,1,,,,,,,,,,,,,
6625c9127eee9a3639d7e1af,TCN,2024-06-24_17h39.13.817,LearnStrategy,2023.2.3,Win32,12.00480192,2,1,4,-0.068518519,-0.013888889,1,0,0,0.9301,rock_grid_rect_2,2,04,-1,-1,0.93,-0.137037037,-0.255555556,1,0,0,5.4551,Basalt_rect,2,5.455,1,3,0,3,0,1,,,,,,,,,,,,,
6625c9127eee9a3639d7e1af,TCN,2024-06-24_17h39.13.817,LearnStrategy,2023.2.3,Win32,12.00480192,2,1,5,-0.027777778,-0.003703704,1,0,0,1.8656,rock_grid_rect_2,5,05,-1,-1,1.866,-0.390740741,-0.397222222,1,0,0,2.6944,Obsidian_rect,5,2.694,1,4,0,4,0,1,,,,,,,,,,,,,
6625c9127eee9a3639d7e1af,TCN,2024-06-24_17h39.13.817,LearnStrategy,2023.2.3,Win32,12.00480192,2,1,6,-0.04537037,-0.018518519,1,0,0,0.9195,rock_grid_rect_2,3,13,-1,-1,0.919,0.138888889,-0.253703704,1,0,0,2.2841,Diorite_rect,3,2.284,1,5,0,5,0,1,,,,,,,,,,,,,
6625c9127eee9a3639d7e1af,TCN,2024-06-24_17h39.13.817,LearnStrategy,2023.2.3,Win32,12.00480192,2,1,7,-0.024074074,0.000925926,1,0,0,0.9226,rock_grid_rect_2,5,16,-1,-1,0.923,-0.350925926,-0.388888889,1,0,0,2.2226,Obsidian_rect,5,2.223,1,6,0,6,0,1,,,,,,,,,,,,,
6625c9127eee9a3639d7e1af,TCN,2024-06-24_17h39.13.817,LearnStrategy,2023.2.3,Win32,12.00480192,2,1,8,-0.010185185,-0.001851852,1,0,0,2.1442,rock_grid_rect_2,1,07,-1,-1,2.144,-0.075,-0.407407407,1,0,0,8.7663,Pegmatite_rect,6,8.766,0,7,0,7,0,1,,,,,,,,,,,,,
6625c9127eee9a3639d7e1af,TCN,2024-06-24_17h39.13.817,LearnStrategy,2023.2.3,Win32,12.00480192,2,1,9,-0.087962963,0.005555556,1,0,0,1.2408,rock_grid_rect_2,3,07,-1,-1,1.241,0.100925926,-0.396296296,1,0,0,4.7484,Peridotite_rect,7,4.748,0,8,0,8,0,1,,,,,,,,,,,,,
6625c9127eee9a3639d7e1af,TCN,2024-06-24_17h39.13.817,LearnStrategy,2023.2.3,Win32,12.00480192,2,1,10,0.051851852,-0.001851852,1,0,0,1.449,rock_grid_rect_2,4,09,-1,-1,1.449,-0.155555556,-0.397222222,1,0,0,8.8104,Pegmatite_rect,6,8.81,0,9,0,9,0,1,,,,,,,,,,,,,
6625c9127eee9a3639d7e1af,TCN,2024-06-24_17h39.13.817,LearnStrategy,2023.2.3,Win32,12.00480192,2,1,11,0.003703704,0.015740741,1,0,0,0.9247,rock_grid_rect_2,7,04,-1,-1,0.925,0.086111111,-0.236111111,1,0,0,7.679,Diorite_rect,3,7.679,0,10,0,10,0,1,,,,,,,,,,,,,
6625c9127eee9a3639d7e1af,TCN,2024-06-24_17h39.13.817,LearnStrategy,2023.2.3,Win32,12.00480192,2,1,12,0.032407407,-0.003703704,1,0,0,1.8543,rock_grid_rect_2,1,09,-1,-1,1.854,-0.068518519,-0.407407407,1,0,0,8.5186,Pegmatite_rect,6,8.519,0,11,0,11,0,1,,,,,,,,,,,,,
6625c9127eee9a3639d7e1af,TCN,2024-06-24_17h39.13.817,LearnStrategy,2023.2.3,Win32,12.00480192,2,1,13,-0.038888889,-0.010185185,1,0,0,1.1516,rock_grid_rect_2,6,07,-1,-1,1.152,-0.110185185,-0.397222222,1,0,0,8.8212,Pegmatite_rect,6,8.821,1,12,0,12,0,1,,,,,,,,,,,,,
6625c9127eee9a3639d7e1af,TCN,2024-06-24_17h39.13.817,LearnStrategy,2023.2.3,Win32,12.00480192,2,1,14,-0.037962963,-0.019444444,1,0,0,1.022,rock_grid_rect_2,8,02,-1,-1,1.022,0.473148148,-0.401851852,1,0,0,2.2177,Pumice_rect,8,2.218,1,13,0,13,0,1,,,,,,,,,,,,,
6625c9127eee9a3639d7e1af,TCN,2024-06-24_17h39.13.817,LearnStrategy,2023.2.3,Win32,12.00480192,2,1,15,0.000925926,-0.011111111,1,0,0,1.1413,rock_grid_rect_2,7,07,-1,-1,1.141,0.07962963,-0.394444444,1,0,0,12.2464,Peridotite_rect,7,12.246,1,14,0,14,0,1,,,,,,,,,,,,,
6625c9127eee9a3639d7e1af,TCN,2024-06-24_17h39.13.817,LearnStrategy,2023.2.3,Win32,12.00480192,2,1,16,-0.012962963,-0.00462963,1,0,0,0.9496,rock_grid_rect_2,8,04,-1,-1,0.95,0.381481481,-0.402777778,1,0,0,1.829,Pumice_rect,8,1.829,1,15,0,15,0,1,,,,,,,,,,,,,
6625c9127eee9a3639d7e1af,TCN,2024-06-24_17h39.13.817,LearnStrategy,2023.2.3,Win32,12.00480192,2,2,1,,,,,,,,3,15,,,,,,,,,,,3,6.481,1,,,,,,0.117592593,-0.241666667,1,0,0,6.4812,Diorite_rect,0,0,0,0,1,
6625c9127eee9a3639d7e1af,TCN,2024-06-24_17h39.13.817,LearnStrategy,2023.2.3,Win32,12.00480192,2,2,2,,,,,,,,1,02,,,,,,,,,,,4,11.737,0,,,,,,0.416666667,-0.244444444,1,0,0,11.7374,Gabbro_rect,1,0,1,0,1,
6625c9127eee9a3639d7e1af,TCN,2024-06-24_17h39.13.817,LearnStrategy,2023.2.3,Win32,12.00480192,2,2,3,,,,,,,,4,13,,,,,,,,,,,6,6.663,0,,,,,,-0.075,-0.398148148,1,0,0,6.6634,Pegmatite_rect,2,0,2,0,1,
6625c9127eee9a3639d7e1af,TCN,2024-06-24_17h39.13.817,LearnStrategy,2023.2.3,Win32,12.00480192,2,2,4,,,,,,,,1,03,,,,,,,,,,,1,2.289,1,,,,,,-0.375,-0.243518519,1,0,0,2.2893,Andesite_rect,3,0,3,0,1,
6625c9127eee9a3639d7e1af,TCN,2024-06-24_17h39.13.817,LearnStrategy,2023.2.3,Win32,12.00480192,2,2,5,,,,,,,,5,04,,,,,,,,,,,5,1.2,1,,,,,,-0.328703704,-0.380555556,1,0,0,1.2001,Obsidian_rect,4,0,4,0,1,
6625c9127eee9a3639d7e1af,TCN,2024-06-24_17h39.13.817,LearnStrategy,2023.2.3,Win32,12.00480192,2,2,6,,,,,,,,7,13,,,,,,,,,,,6,6.459,0,,,,,,-0.068518519,-0.401851852,1,0,0,6.4594,Pegmatite_rect,5,0,5,0,1,
6625c9127eee9a3639d7e1af,TCN,2024-06-24_17h39.13.817,LearnStrategy,2023.2.3,Win32,12.00480192,2,2,7,,,,,,,,5,14,,,,,,,,,,,5,1.311,1,,,,,,-0.352777778,-0.391666667,1,0,0,1.3106,Obsidian_rect,6,0,6,0,1,
6625c9127eee9a3639d7e1af,TCN,2024-06-24_17h39.13.817,LearnStrategy,2023.2.3,Win32,12.00480192,2,2,8,,,,,,,,3,12,,,,,,,,,,,3,3.278,1,,,,,,0.149074074,-0.258333333,1,0,0,3.2775,Diorite_rect,7,0,7,0,1,
6625c9127eee9a3639d7e1af,TCN,2024-06-24_17h39.13.817,LearnStrategy,2023.2.3,Win32,12.00480192,2,2,9,,,,,,,,6,10,,,,,,,,,,,4,8.274,0,,,,,,0.37037037,-0.248148148,1,0,0,8.2737,Gabbro_rect,8,0,8,0,1,
6625c9127eee9a3639d7e1af,TCN,2024-06-24_17h39.13.817,LearnStrategy,2023.2.3,Win32,12.00480192,2,2,10,,,,,,,,2,05,,,,,,,,,,,2,4.439,1,,,,,,-0.12037037,-0.235185185,1,0,0,4.4386,Basalt_rect,9,0,9,0,1,
6625c9127eee9a3639d7e1af,TCN,2024-06-24_17h39.13.817,LearnStrategy,2023.2.3,Win32,12.00480192,2,2,11,,,,,,,,8,13,,,,,,,,,,,8,2.436,1,,,,,,0.413888889,-0.397222222,1,0,0,2.4364,Pumice_rect,10,0,10,0,1,
6625c9127eee9a3639d7e1af,TCN,2024-06-24_17h39.13.817,LearnStrategy,2023.2.3,Win32,12.00480192,2,2,12,,,,,,,,4,01,,,,,,,,,,,1,3.549,0,,,,,,-0.34537037,-0.247222222,1,0,0,3.549,Andesite_rect,11,0,11,0,1,
6625c9127eee9a3639d7e1af,TCN,2024-06-24_17h39.13.817,LearnStrategy,2023.2.3,Win32,12.00480192,2,2,13,,,,,,,,6,16,,,,,,,,,,,4,2.176,0,,,,,,0.364814815,-0.25462963,1,0,0,2.1759,Gabbro_rect,12,0,12,0,1,
6625c9127eee9a3639d7e1af,TCN,2024-06-24_17h39.13.817,LearnStrategy,2023.2.3,Win32,12.00480192,2,2,14,,,,,,,,2,01,,,,,,,,,,,2,2.143,1,,,,,,-0.093518519,-0.255555556,1,0,0,2.1426,Basalt_rect,13,0,13,0,1,
6625c9127eee9a3639d7e1af,TCN,2024-06-24_17h39.13.817,LearnStrategy,2023.2.3,Win32,12.00480192,2,2,15,,,,,,,,7,10,,,,,,,,,,,3,2.107,0,,,,,,0.133333333,-0.257407407,1,0,0,2.1066,Diorite_rect,14,0,14,0,1,
6625c9127eee9a3639d7e1af,TCN,2024-06-24_17h39.13.817,LearnStrategy,2023.2.3,Win32,12.00480192,2,2,16,,,,,,,,8,14,,,,,,,,,,,8,1.652,1,,,,,,0.4,-0.398148148,1,0,0,1.652,Pumice_rect,15,0,15,0,1,
6625c9127eee9a3639d7e1af,TCN,2024-06-24_17h39.13.817,LearnStrategy,2023.2.3,Win32,12.00480192,3,1,1,-0.025925926,0.000925926,1,0,0,1.1473,rock_grid_rect_2,1,14,-1,-1,1.147,0.363888889,-0.243518519,1,0,0,4.4385,Gabbro_rect,4,4.439,0,0,0,0,0,1,,,,,,,,,,,,,
6625c9127eee9a3639d7e1af,TCN,2024-06-24_17h39.13.817,LearnStrategy,2023.2.3,Win32,12.00480192,3,1,2,0.017592593,-0.007407407,1,0,0,1.8316,rock_grid_rect_2,5,10,-1,-1,1.832,-0.359259259,-0.382407407,1,0,0,1.1711,Obsidian_rect,5,1.171,1,1,0,1,0,1,,,,,,,,,,,,,
6625c9127eee9a3639d7e1af,TCN,2024-06-24_17h39.13.817,LearnStrategy,2023.2.3,Win32,12.00480192,3,1,3,-0.039814815,0.002777778,1,0,0,2.2707,rock_grid_rect_2,4,03,-1,-1,2.271,-0.087037037,-0.384259259,1,0,0,6.9856,Pegmatite_rect,6,6.986,0,2,0,2,0,1,,,,,,,,,,,,,
6625c9127eee9a3639d7e1af,TCN,2024-06-24_17h39.13.817,LearnStrategy,2023.2.3,Win32,12.00480192,3,1,4,-0.012962963,-0.012962963,1,0,0,1.2347,rock_grid_rect_2,7,16,-1,-1,1.235,-0.084259259,-0.397222222,1,0,0,7.3599,Pegmatite_rect,6,7.36,0,3,0,3,0,1,,,,,,,,,,,,,
6625c9127eee9a3639d7e1af,TCN,2024-06-24_17h39.13.817,LearnStrategy,2023.2.3,Win32,12.00480192,3,1,5,-0.044444444,0.007407407,1,0,0,1.5427,rock_grid_rect_2,6,08,-1,-1,1.543,-0.07037037,-0.388888889,1,0,0,14.6325,Pegmatite_rect,6,14.632,1,4,0,4,0,1,,,,,,,,,,,,,
6625c9127eee9a3639d7e1af,TCN,2024-06-24_17h39.13.817,LearnStrategy,2023.2.3,Win32,12.00480192,3,1,6,0.025,-0.018518519,1,0,0,1.031,rock_grid_rect_2,2,02,-1,-1,1.031,-0.09537037,-0.248148148,1,0,0,1.5066,Basalt_rect,2,1.507,1,5,0,5,0,1,,,,,,,,,,,,,
6625c9127eee9a3639d7e1af,TCN,2024-06-24_17h39.13.817,LearnStrategy,2023.2.3,Win32,12.00480192,3,1,7,-0.047222222,0.003703704,1,0,0,1.1362,rock_grid_rect_2,4,11,-1,-1,1.136,-0.339814815,-0.240740741,1,0,0,6.3309,Andesite_rect,1,6.331,0,6,0,6,0,1,,,,,,,,,,,,,
6625c9127eee9a3639d7e1af,TCN,2024-06-24_17h39.13.817,LearnStrategy,2023.2.3,Win32,12.00480192,3,1,8,0.003703704,0.018518519,1,0,0,0.8321,rock_grid_rect_2,8,10,-1,-1,0.832,0.091666667,-0.407407407,1,0,0,6.2447,Peridotite_rect,7,6.245,0,7,0,7,0,1,,,,,,,,,,,,,
6625c9127eee9a3639d7e1af,TCN,2024-06-24_17h39.13.817,LearnStrategy,2023.2.3,Win32,12.00480192,3,1,9,0.050925926,-0.009259259,1,0,0,0.9329,rock_grid_rect_2,3,02,-1,-1,0.933,0.118518519,-0.267592593,1,0,0,9.1038,Diorite_rect,3,9.104,1,8,0,8,0,1,,,,,,,,,,,,,
6625c9127eee9a3639d7e1af,TCN,2024-06-24_17h39.13.817,LearnStrategy,2023.2.3,Win32,12.00480192,3,1,10,0.003703704,-0.000925926,1,0,0,0.8211,rock_grid_rect_2,7,05,-1,-1,0.821,-0.313888889,-0.237962963,1,0,0,6.458,Andesite_rect,1,6.458,0,9,0,9,0,1,,,,,,,,,,,,,
6625c9127eee9a3639d7e1af,TCN,2024-06-24_17h39.13.817,LearnStrategy,2023.2.3,Win32,12.00480192,3,1,11,-0.027777778,0.005555556,1,0,0,1.0311,rock_grid_rect_2,8,05,-1,-1,1.031,0.42037037,-0.399074074,1,0,0,1.5914,Pumice_rect,8,1.591,1,10,0,10,0,1,,,,,,,,,,,,,
6625c9127eee9a3639d7e1af,TCN,2024-06-24_17h39.13.817,LearnStrategy,2023.2.3,Win32,12.00480192,3,1,12,-0.04537037,-0.012962963,1,0,0,0.8167,rock_grid_rect_2,3,10,-1,-1,0.817,0.118518519,-0.261111111,1,0,0,8.8057,Diorite_rect,3,8.806,1,11,0,11,0,1,,,,,,,,,,,,,
6625c9127eee9a3639d7e1af,TCN,2024-06-24_17h39.13.817,LearnStrategy,2023.2.3,Win32,12.00480192,3,1,13,0.013888889,-0.023148148,1,0,0,0.9363,rock_grid_rect_2,2,14,-1,-1,0.936,0.350925926,-0.389814815,1,0,0,2.989,Pumice_rect,8,2.989,0,12,0,12,0,1,,,,,,,,,,,,,
6625c9127eee9a3639d7e1af,TCN,2024-06-24_17h39.13.817,LearnStrategy,2023.2.3,Win32,12.00480192,3,1,14,-0.012037037,-0.009259259,1,0,0,1.5309,rock_grid_rect_2,1,11,-1,-1,1.531,-0.326851852,-0.248148148,1,0,0,3.4177,Andesite_rect,1,3.418,1,13,0,13,0,1,,,,,,,,,,,,,
6625c9127eee9a3639d7e1af,TCN,2024-06-24_17h39.13.817,LearnStrategy,2023.2.3,Win32,12.00480192,3,1,15,-0.025925926,0.010185185,1,0,0,1.0326,rock_grid_rect_2,5,06,-1,-1,1.033,-0.347222222,-0.391666667,1,0,0,1.4598,Obsidian_rect,5,1.46,1,14,0,14,0,1,,,,,,,,,,,,,
6625c9127eee9a3639d7e1af,TCN,2024-06-24_17h39.13.817,LearnStrategy,2023.2.3,Win32,12.00480192,3,1,16,-0.038888889,0.001851852,1,0,0,0.9347,rock_grid_rect_2,6,09,-1,-1,0.935,0.082407407,-0.401851852,1,0,0,6.4767,Peridotite_rect,7,6.477,0,15,0,15,0,1,,,,,,,,,,,,,
6625c9127eee9a3639d7e1af,TCN,2024-06-24_17h39.13.817,LearnStrategy,2023.2.3,Win32,12.00480192,3,2,1,,,,,,,,5,02,,,,,,,,,,,5,1.29,1,,,,,,-0.358333333,-0.389814815,1,0,0,1.2898,Obsidian_rect,0,0,0,0,1,
6625c9127eee9a3639d7e1af,TCN,2024-06-24_17h39.13.817,LearnStrategy,2023.2.3,Win32,12.00480192,3,2,2,,,,,,,,5,11,,,,,,,,,,,5,1.808,1,,,,,,-0.362962963,-0.403703704,1,0,0,1.8078,Obsidian_rect,1,0,1,0,1,
6625c9127eee9a3639d7e1af,TCN,2024-06-24_17h39.13.817,LearnStrategy,2023.2.3,Win32,12.00480192,3,2,3,,,,,,,,3,09,,,,,,,,,,,3,2.165,1,,,,,,0.143518519,-0.250925926,1,0,0,2.1654,Diorite_rect,2,0,2,0,1,
6625c9127eee9a3639d7e1af,TCN,2024-06-24_17h39.13.817,LearnStrategy,2023.2.3,Win32,12.00480192,3,2,4,,,,,,,,7,06,,,,,,,,,,,1,6.4,0,,,,,,-0.326851852,-0.25,1,0,0,6.4002,Andesite_rect,3,0,3,0,1,
6625c9127eee9a3639d7e1af,TCN,2024-06-24_17h39.13.817,LearnStrategy,2023.2.3,Win32,12.00480192,3,2,5,,,,,,,,2,09,,,,,,,,,,,2,3.279,1,,,,,,-0.166666667,-0.250925926,1,0,0,3.2795,Basalt_rect,4,0,4,0,1,
6625c9127eee9a3639d7e1af,TCN,2024-06-24_17h39.13.817,LearnStrategy,2023.2.3,Win32,12.00480192,3,2,6,,,,,,,,8,09,,,,,,,,,,,8,1.189,1,,,,,,0.389814815,-0.381481481,1,0,0,1.1885,Pumice_rect,5,0,5,0,1,
6625c9127eee9a3639d7e1af,TCN,2024-06-24_17h39.13.817,LearnStrategy,2023.2.3,Win32,12.00480192,3,2,7,,,,,,,,2,06,,,,,,,,,,,4,13.104,0,,,,,,0.339814815,-0.249074074,1,0,0,13.1039,Gabbro_rect,6,0,6,0,1,
6625c9127eee9a3639d7e1af,TCN,2024-06-24_17h39.13.817,LearnStrategy,2023.2.3,Win32,12.00480192,3,2,8,,,,,,,,1,16,,,,,,,,,,,1,5.777,1,,,,,,-0.400925926,-0.244444444,1,0,0,5.7774,Andesite_rect,7,0,7,0,1,
6625c9127eee9a3639d7e1af,TCN,2024-06-24_17h39.13.817,LearnStrategy,2023.2.3,Win32,12.00480192,3,2,9,,,,,,,,4,15,,,,,,,,,,,7,14.707,0,,,,,,0.117592593,-0.394444444,1,0,0,14.7067,Peridotite_rect,8,0,8,0,1,
6625c9127eee9a3639d7e1af,TCN,2024-06-24_17h39.13.817,LearnStrategy,2023.2.3,Win32,12.00480192,3,2,10,,,,,,,,1,06,,,,,,,,,,,4,4.96,0,,,,,,0.412962963,-0.242592593,1,0,0,4.9602,Gabbro_rect,9,0,9,0,1,
6625c9127eee9a3639d7e1af,TCN,2024-06-24_17h39.13.817,LearnStrategy,2023.2.3,Win32,12.00480192,3,2,11,,,,,,,,6,12,,,,,,,,,,,1,4.607,0,,,,,,-0.360185185,-0.234259259,1,0,0,4.6067,Andesite_rect,10,0,10,0,1,
6625c9127eee9a3639d7e1af,TCN,2024-06-24_17h39.13.817,LearnStrategy,2023.2.3,Win32,12.00480192,3,2,12,,,,,,,,8,06,,,,,,,,,,,8,1.602,1,,,,,,0.408333333,-0.387962963,1,0,0,1.6021,Pumice_rect,11,0,11,0,1,
6625c9127eee9a3639d7e1af,TCN,2024-06-24_17h39.13.817,LearnStrategy,2023.2.3,Win32,12.00480192,3,2,13,,,,,,,,6,11,,,,,,,,,,,5,5.066,0,,,,,,-0.355555556,-0.401851852,1,0,0,5.0658,Obsidian_rect,12,0,12,0,1,
6625c9127eee9a3639d7e1af,TCN,2024-06-24_17h39.13.817,LearnStrategy,2023.2.3,Win32,12.00480192,3,2,14,,,,,,,,7,08,,,,,,,,,,,6,5.681,0,,,,,,-0.087037037,-0.406481481,1,0,0,5.681,Pegmatite_rect,13,0,13,0,1,
6625c9127eee9a3639d7e1af,TCN,2024-06-24_17h39.13.817,LearnStrategy,2023.2.3,Win32,12.00480192,3,2,15,,,,,,,,4,05,,,,,,,,,,,7,6.257,0,,,,,,0.098148148,-0.39537037,1,0,0,6.2569,Peridotite_rect,14,0,14,0,1,
6625c9127eee9a3639d7e1af,TCN,2024-06-24_17h39.13.817,LearnStrategy,2023.2.3,Win32,12.00480192,3,2,16,,,,,,,,3,16,,,,,,,,,,,3,4.966,1,,,,,,0.077777778,-0.25462963,1,0,0,4.9663,Diorite_rect,15,0,15,0,1,
6625c9127eee9a3639d7e1af,TCN,2024-06-24_17h39.13.817,LearnStrategy,2023.2.3,Win32,12.00480192,4,1,1,-0.041666667,-0.009259259,1,0,0,1.1286,rock_grid_rect_2,5,07,-1,-1,1.129,-0.384259259,-0.408333333,1,0,0,1.3645,Obsidian_rect,5,1.365,1,0,0,0,0,1,,,,,,,,,,,,,
6625c9127eee9a3639d7e1af,TCN,2024-06-24_17h39.13.817,LearnStrategy,2023.2.3,Win32,12.00480192,4,1,2,-0.101851852,0.001851852,1,0,0,0.931,rock_grid_rect_2,7,04,-1,-1,0.931,-0.352777778,-0.248148148,1,0,0,5.109,Andesite_rect,1,5.109,0,1,0,1,0,1,,,,,,,,,,,,,
6625c9127eee9a3639d7e1af,TCN,2024-06-24_17h39.13.817,LearnStrategy,2023.2.3,Win32,12.00480192,4,1,3,0.008333333,-0.005555556,1,0,0,1.1408,rock_grid_rect_2,7,12,-1,-1,1.141,0.072222222,-0.242592593,1,0,0,4.4005,Diorite_rect,3,4.4,0,2,0,2,0,1,,,,,,,,,,,,,
6625c9127eee9a3639d7e1af,TCN,2024-06-24_17h39.13.817,LearnStrategy,2023.2.3,Win32,12.00480192,4,1,4,0.02962963,-0.008333333,1,0,0,0.9412,rock_grid_rect_2,4,03,-1,-1,0.941,-0.058333333,-0.389814815,1,0,0,7.302,Pegmatite_rect,6,7.302,0,3,0,3,0,1,,,,,,,,,,,,,
6625c9127eee9a3639d7e1af,TCN,2024-06-24_17h39.13.817,LearnStrategy,2023.2.3,Win32,12.00480192,4,1,5,0.05,-0.010185185,1,0,0,1.023,rock_grid_rect_2,8,10,-1,-1,1.023,0.42037037,-0.392592593,1,0,0,2.7232,Pumice_rect,8,2.723,1,4,0,4,0,1,,,,,,,,,,,,,
6625c9127eee9a3639d7e1af,TCN,2024-06-24_17h39.13.817,LearnStrategy,2023.2.3,Win32,12.00480192,4,1,6,-0.04537037,0.00462963,1,0,0,1.6156,rock_grid_rect_2,3,11,-1,-1,1.616,0.107407407,-0.238888889,1,0,0,6.5062,Diorite_rect,3,6.506,1,5,0,5,0,1,,,,,,,,,,,,,
6625c9127eee9a3639d7e1af,TCN,2024-06-24_17h39.13.817,LearnStrategy,2023.2.3,Win32,12.00480192,4,1,7,0.022222222,-0.012962963,1,0,0,1.2398,rock_grid_rect_2,4,11,-1,-1,1.24,-0.110185185,-0.241666667,1,0,0,4.5681,Basalt_rect,2,4.568,0,6,0,6,0,1,,,,,,,,,,,,,
6625c9127eee9a3639d7e1af,TCN,2024-06-24_17h39.13.817,LearnStrategy,2023.2.3,Win32,12.00480192,4,1,8,-0.002777778,0.009259259,1,0,0,0.9176,rock_grid_rect_2,2,08,-1,-1,0.918,-0.136111111,-0.240740741,1,0,0,4.1296,Basalt_rect,2,4.13,1,7,0,7,0,1,,,,,,,,,,,,,
6625c9127eee9a3639d7e1af,TCN,2024-06-24_17h39.13.817,LearnStrategy,2023.2.3,Win32,12.00480192,4,1,9,0.002777778,-0.009259259,1,0,0,0.8287,rock_grid_rect_2,1,09,-1,-1,0.829,-0.35462963,-0.242592593,1,0,0,3.3197,Andesite_rect,1,3.32,1,8,0,8,0,1,,,,,,,,,,,,,
6625c9127eee9a3639d7e1af,TCN,2024-06-24_17h39.13.817,LearnStrategy,2023.2.3,Win32,12.00480192,4,1,10,-0.057407407,0.007407407,1,0,0,0.9135,rock_grid_rect_2,6,09,-1,-1,0.913,-0.055555556,-0.398148148,1,0,0,8.1718,Pegmatite_rect,6,8.172,1,9,0,9,0,1,,,,,,,,,,,,,
6625c9127eee9a3639d7e1af,TCN,2024-06-24_17h39.13.817,LearnStrategy,2023.2.3,Win32,12.00480192,4,1,11,-0.039814815,-0.00462963,1,0,0,0.9779,rock_grid_rect_2,5,05,-1,-1,0.978,-0.359259259,-0.391666667,1,0,0,1.7675,Obsidian_rect,5,1.768,1,10,0,10,0,1,,,,,,,,,,,,,
6625c9127eee9a3639d7e1af,TCN,2024-06-24_17h39.13.817,LearnStrategy,2023.2.3,Win32,12.00480192,4,1,12,-0.038888889,-0.001851852,1,0,0,1.2678,rock_grid_rect_2,3,13,-1,-1,1.268,0.137962963,-0.253703704,1,0,0,2.0442,Diorite_rect,3,2.044,1,11,0,11,0,1,,,,,,,,,,,,,
6625c9127eee9a3639d7e1af,TCN,2024-06-24_17h39.13.817,LearnStrategy,2023.2.3,Win32,12.00480192,4,1,13,-0.032407407,-0.001851852,1,0,0,0.9146,rock_grid_rect_2,1,07,-1,-1,0.915,0.125925926,-0.384259259,1,0,0,6.449,Peridotite_rect,7,6.449,0,12,0,12,0,1,,,,,,,,,,,,,
6625c9127eee9a3639d7e1af,TCN,2024-06-24_17h39.13.817,LearnStrategy,2023.2.3,Win32,12.00480192,4,1,14,-0.013888889,0.000925926,1,0,0,1.9183,rock_grid_rect_2,2,14,-1,-1,1.918,-0.137037037,-0.248148148,1,0,0,3.0833,Basalt_rect,2,3.083,1,13,0,13,0,1,,,,,,,,,,,,,
6625c9127eee9a3639d7e1af,TCN,2024-06-24_17h39.13.817,LearnStrategy,2023.2.3,Win32,12.00480192,4,1,15,-0.027777778,0.012962963,1,0,0,0.8281,rock_grid_rect_2,6,08,-1,-1,0.828,-0.106481481,-0.403703704,1,0,0,4.633,Pegmatite_rect,6,4.633,1,14,0,14,0,1,,,,,,,,,,,,,
6625c9127eee9a3639d7e1af,TCN,2024-06-24_17h39.13.817,LearnStrategy,2023.2.3,Win32,12.00480192,4,1,16,-0.063888889,-0.011111111,1,0,0,0.8348,rock_grid_rect_2,8,15,-1,-1,0.835,0.402777778,-0.403703704,1,0,0,1.5085,Pumice_rect,8,1.508,1,15,0,15,0,1,,,,,,,,,,,,,
6625c9127eee9a3639d7e1af,TCN,2024-06-24_17h39.13.817,LearnStrategy,2023.2.3,Win32,12.00480192,4,2,1,,,,,,,,6,15,,,,,,,,,,,6,4.563,1,,,,,,-0.12037037,-0.398148148,1,0,0,4.5628,Pegmatite_rect,0,0,0,0,1,
6625c9127eee9a3639d7e1af,TCN,2024-06-24_17h39.13.817,LearnStrategy,2023.2.3,Win32,12.00480192,4,2,2,,,,,,,,4,13,,,,,,,,,,,4,7.224,1,,,,,,0.373148148,-0.25,1,0,0,7.2243,Gabbro_rect,1,0,1,0,1,
6625c9127eee9a3639d7e1af,TCN,2024-06-24_17h39.13.817,LearnStrategy,2023.2.3,Win32,12.00480192,4,2,3,,,,,,,,4,01,,,,,,,,,,,1,4.522,0,,,,,,-0.387037037,-0.271296296,1,0,0,4.522,Andesite_rect,2,0,2,0,1,
6625c9127eee9a3639d7e1af,TCN,2024-06-24_17h39.13.817,LearnStrategy,2023.2.3,Win32,12.00480192,4,2,4,,,,,,,,1,16,,,,,,,,,,,6,7.089,0,,,,,,-0.107407407,-0.388888889,1,0,0,7.0893,Pegmatite_rect,3,0,3,0,1,
6625c9127eee9a3639d7e1af,TCN,2024-06-24_17h39.13.817,LearnStrategy,2023.2.3,Win32,12.00480192,4,2,5,,,,,,,,6,11,,,,,,,,,,,5,2.288,0,,,,,,-0.328703704,-0.412962963,1,0,0,2.2876,Obsidian_rect,4,0,4,0,1,
6625c9127eee9a3639d7e1af,TCN,2024-06-24_17h39.13.817,LearnStrategy,2023.2.3,Win32,12.00480192,4,2,6,,,,,,,,3,14,,,,,,,,,,,3,1.834,1,,,,,,0.108333333,-0.244444444,1,0,0,1.8339,Diorite_rect,5,0,5,0,1,
6625c9127eee9a3639d7e1af,TCN,2024-06-24_17h39.13.817,LearnStrategy,2023.2.3,Win32,12.00480192,4,2,7,,,,,,,,8,08,,,,,,,,,,,8,1.652,1,,,,,,0.396296296,-0.402777778,1,0,0,1.6522,Pumice_rect,6,0,6,0,1,
6625c9127eee9a3639d7e1af,TCN,2024-06-24_17h39.13.817,LearnStrategy,2023.2.3,Win32,12.00480192,4,2,8,,,,,,,,2,12,,,,,,,,,,,2,6.586,1,,,,,,-0.169444444,-0.262037037,1,0,0,6.5861,Basalt_rect,7,0,7,0,1,
6625c9127eee9a3639d7e1af,TCN,2024-06-24_17h39.13.817,LearnStrategy,2023.2.3,Win32,12.00480192,4,2,9,,,,,,,,3,12,,,,,,,,,,,4,5.426,0,,,,,,0.362962963,-0.25,1,0,0,5.4256,Gabbro_rect,8,0,8,0,1,
6625c9127eee9a3639d7e1af,TCN,2024-06-24_17h39.13.817,LearnStrategy,2023.2.3,Win32,12.00480192,4,2,10,,,,,,,,1,06,,,,,,,,,,,7,18.1,0,,,,,,0.09537037,-0.405555556,1,0,0,18.1004,Peridotite_rect,9,0,9,0,1,
6625c9127eee9a3639d7e1af,TCN,2024-06-24_17h39.13.817,LearnStrategy,2023.2.3,Win32,12.00480192,4,2,11,,,,,,,,5,14,,,,,,,,,,,5,1.191,1,,,,,,-0.372222222,-0.398148148,1,0,0,1.1908,Obsidian_rect,10,0,10,0,1,
6625c9127eee9a3639d7e1af,TCN,2024-06-24_17h39.13.817,LearnStrategy,2023.2.3,Win32,12.00480192,4,2,12,,,,,,,,7,10,,,,,,,,,,,3,2.995,0,,,,,,0.148148148,-0.22962963,1,0,0,2.9945,Diorite_rect,11,0,11,0,1,
6625c9127eee9a3639d7e1af,TCN,2024-06-24_17h39.13.817,LearnStrategy,2023.2.3,Win32,12.00480192,4,2,13,,,,,,,,5,11,,,,,,,,,,,5,2.054,1,,,,,,-0.363888889,-0.405555556,1,0,0,2.0542,Obsidian_rect,12,0,12,0,1,
6625c9127eee9a3639d7e1af,TCN,2024-06-24_17h39.13.817,LearnStrategy,2023.2.3,Win32,12.00480192,4,2,14,,,,,,,,7,02,,,,,,,,,,,7,9.302,1,,,,,,0.076851852,-0.401851852,1,0,0,9.3024,Peridotite_rect,13,0,13,0,1,
6625c9127eee9a3639d7e1af,TCN,2024-06-24_17h39.13.817,LearnStrategy,2023.2.3,Win32,12.00480192,4,2,15,,,,,,,,8,13,,,,,,,,,,,8,1.277,1,,,,,,0.358333333,-0.40462963,1,0,0,1.2767,Pumice_rect,14,0,14,0,1,
6625c9127eee9a3639d7e1af,TCN,2024-06-24_17h39.13.817,LearnStrategy,2023.2.3,Win32,12.00480192,4,2,16,,,,,,,,2,16,,,,,,,,,,,2,3.587,1,,,,,,-0.086111111,-0.252777778,1,0,0,3.5866,Basalt_rect,15,0,15,0,1,
6625c9127eee9a3639d7e1af,TCN,2024-06-24_17h39.13.817,LearnStrategy,2023.2.3,Win32,12.00480192,5,1,1,-0.039814815,0.005555556,1,0,0,0.9179,rock_grid_rect_2,8,02,-1,-1,0.918,0.437962963,-0.397222222,1,0,0,4.4502,Pumice_rect,8,4.45,1,0,0,0,0,1,,,,,,,,,,,,,
6625c9127eee9a3639d7e1af,TCN,2024-06-24_17h39.13.817,LearnStrategy,2023.2.3,Win32,12.00480192,5,1,2,-0.005555556,0.005555556,1,0,0,0.84,rock_grid_rect_2,5,10,-1,-1,0.84,-0.369444444,-0.396296296,1,0,0,1.3726,Obsidian_rect,5,1.373,1,1,0,1,0,1,,,,,,,,,,,,,
6625c9127eee9a3639d7e1af,TCN,2024-06-24_17h39.13.817,LearnStrategy,2023.2.3,Win32,12.00480192,5,1,3,-0.060185185,-0.011111111,1,0,0,0.9369,rock_grid_rect_2,2,04,-1,-1,0.937,-0.125,-0.242592593,1,0,0,1.3655,Basalt_rect,2,1.365,1,2,0,2,0,1,,,,,,,,,,,,,
6625c9127eee9a3639d7e1af,TCN,2024-06-24_17h39.13.817,LearnStrategy,2023.2.3,Win32,12.00480192,5,1,4,-0.052777778,0.003703704,1,0,0,1.4178,rock_grid_rect_2,6,13,-1,-1,1.418,-0.09537037,-0.390740741,1,0,0,2.2796,Pegmatite_rect,6,2.28,1,3,0,3,0,1,,,,,,,,,,,,,
6625c9127eee9a3639d7e1af,TCN,2024-06-24_17h39.13.817,LearnStrategy,2023.2.3,Win32,12.00480192,5,1,5,-0.041666667,0.000925926,1,0,0,1.875,rock_grid_rect_2,5,06,-1,-1,1.875,-0.376851852,-0.4,1,0,0,1.1915,Obsidian_rect,5,1.192,1,4,0,4,0,1,,,,,,,,,,,,,
6625c9127eee9a3639d7e1af,TCN,2024-06-24_17h39.13.817,LearnStrategy,2023.2.3,Win32,12.00480192,5,1,6,-0.02962963,0.00462963,1,0,0,0.936,rock_grid_rect_2,4,10,-1,-1,0.936,-0.364814815,-0.248148148,1,0,0,9.9868,Andesite_rect,1,9.987,0,5,0,5,0,1,,,,,,,,,,,,,
6625c9127eee9a3639d7e1af,TCN,2024-06-24_17h39.13.817,LearnStrategy,2023.2.3,Win32,12.00480192,5,1,7,-0.000925926,0.00462963,1,0,0,1.2333,rock_grid_rect_2,3,07,-1,-1,1.233,0.138888889,-0.243518519,1,0,0,1.6696,Diorite_rect,3,1.67,1,6,0,6,0,1,,,,,,,,,,,,,
6625c9127eee9a3639d7e1af,TCN,2024-06-24_17h39.13.817,LearnStrategy,2023.2.3,Win32,12.00480192,5,1,8,-0.033333333,0,1,0,0,0.8011,rock_grid_rect_2,7,14,-1,-1,0.801,-0.368518519,-0.25,1,0,0,5.2977,Andesite_rect,1,5.298,0,7,0,7,0,1,,,,,,,,,,,,,
6625c9127eee9a3639d7e1af,TCN,2024-06-24_17h39.13.817,LearnStrategy,2023.2.3,Win32,12.00480192,5,1,9,-0.026851852,0.017592593,1,0,0,0.8297,rock_grid_rect_2,4,14,-1,-1,0.83,-0.357407407,-0.241666667,1,0,0,5.7673,Andesite_rect,1,5.767,0,8,0,8,0,1,,,,,,,,,,,,,
6625c9127eee9a3639d7e1af,TCN,2024-06-24_17h39.13.817,LearnStrategy,2023.2.3,Win32,12.00480192,5,1,10,0.014814815,0.008333333,1,0,0,0.9295,rock_grid_rect_2,7,05,-1,-1,0.929,-0.177777778,-0.25462963,1,0,0,3.9414,Basalt_rect,2,3.941,0,9,0,9,0,1,,,,,,,,,,,,,
6625c9127eee9a3639d7e1af,TCN,2024-06-24_17h39.13.817,LearnStrategy,2023.2.3,Win32,12.00480192,5,1,11,-0.041666667,-0.02037037,1,0,0,0.9354,rock_grid_rect_2,1,04,-1,-1,0.935,-0.380555556,-0.241666667,1,0,0,3.1621,Andesite_rect,1,3.162,1,10,0,10,0,1,,,,,,,,,,,,,
6625c9127eee9a3639d7e1af,TCN,2024-06-24_17h39.13.817,LearnStrategy,2023.2.3,Win32,12.00480192,5,1,12,-0.018518519,-0.009259259,1,0,0,0.9276,rock_grid_rect_2,2,10,-1,-1,0.928,-0.105555556,-0.241666667,1,0,0,1.1831,Basalt_rect,2,1.183,1,11,0,11,0,1,,,,,,,,,,,,,
6625c9127eee9a3639d7e1af,TCN,2024-06-24_17h39.13.817,LearnStrategy,2023.2.3,Win32,12.00480192,5,1,13,-0.032407407,0.00462963,1,0,0,0.8102,rock_grid_rect_2,1,11,-1,-1,0.81,-0.107407407,-0.387962963,1,0,0,1.6687,Pegmatite_rect,6,1.669,0,12,0,12,0,1,,,,,,,,,,,,,
6625c9127eee9a3639d7e1af,TCN,2024-06-24_17h39.13.817,LearnStrategy,2023.2.3,Win32,12.00480192,5,1,14,-0.053703704,-0.006481481,1,0,0,0.8413,rock_grid_rect_2,6,05,-1,-1,0.841,-0.114814815,-0.39537037,1,0,0,2.0657,Pegmatite_rect,6,2.066,1,13,0,13,0,1,,,,,,,,,,,,,
6625c9127eee9a3639d7e1af,TCN,2024-06-24_17h39.13.817,LearnStrategy,2023.2.3,Win32,12.00480192,5,1,15,0.000925926,-0.009259259,1,0,0,0.8307,rock_grid_rect_2,8,05,-1,-1,0.831,0.372222222,-0.400925926,1,0,0,1.8272,Pumice_rect,8,1.827,1,14,0,14,0,1,,,,,,,,,,,,,
6625c9127eee9a3639d7e1af,TCN,2024-06-24_17h39.13.817,LearnStrategy,2023.2.3,Win32,12.00480192,5,1,16,-0.063888889,-0.00462963,1,0,0,1.0336,rock_grid_rect_2,3,02,-1,-1,1.034,0.156481481,-0.240740741,1,0,0,2.6166,Diorite_rect,3,2.617,1,15,0,15,0,1,,,,,,,,,,,,,
6625c9127eee9a3639d7e1af,TCN,2024-06-24_17h39.13.817,LearnStrategy,2023.2.3,Win32,12.00480192,5,2,1,,,,,,,,1,10,,,,,,,,,,,7,14.425,0,,,,,,0.106481481,-0.417592593,1,0,0,14.4251,Peridotite_rect,0,0,0,0,1,
6625c9127eee9a3639d7e1af,TCN,2024-06-24_17h39.13.817,LearnStrategy,2023.2.3,Win32,12.00480192,5,2,2,,,,,,,,7,13,,,,,,,,,,,4,4.558,0,,,,,,0.366666667,-0.246296296,1,0,0,4.5578,Gabbro_rect,1,0,1,0,1,
6625c9127eee9a3639d7e1af,TCN,2024-06-24_17h39.13.817,LearnStrategy,2023.2.3,Win32,12.00480192,5,2,3,,,,,,,,5,04,,,,,,,,,,,5,1.138,1,,,,,,-0.358333333,-0.40462963,1,0,0,1.1384,Obsidian_rect,2,0,2,0,1,
6625c9127eee9a3639d7e1af,TCN,2024-06-24_17h39.13.817,LearnStrategy,2023.2.3,Win32,12.00480192,5,2,4,,,,,,,,8,14,,,,,,,,,,,8,1.323,1,,,,,,0.360185185,-0.401851852,1,0,0,1.3234,Pumice_rect,3,0,3,0,1,
6625c9127eee9a3639d7e1af,TCN,2024-06-24_17h39.13.817,LearnStrategy,2023.2.3,Win32,12.00480192,5,2,5,,,,,,,,2,09,,,,,,,,,,,2,1.865,1,,,,,,-0.119444444,-0.242592593,1,0,0,1.8653,Basalt_rect,4,0,4,0,1,
6625c9127eee9a3639d7e1af,TCN,2024-06-24_17h39.13.817,LearnStrategy,2023.2.3,Win32,12.00480192,5,2,6,,,,,,,,7,15,,,,,,,,,,,7,8.693,1,,,,,,0.075925926,-0.411111111,1,0,0,8.6932,Peridotite_rect,5,0,5,0,1,
6625c9127eee9a3639d7e1af,TCN,2024-06-24_17h39.13.817,LearnStrategy,2023.2.3,Win32,12.00480192,5,2,7,,,,,,,,1,03,,,,,,,,,,,1,8.92,1,,,,,,-0.340740741,-0.250925926,1,0,0,8.9197,Andesite_rect,6,0,6,0,1,
6625c9127eee9a3639d7e1af,TCN,2024-06-24_17h39.13.817,LearnStrategy,2023.2.3,Win32,12.00480192,5,2,8,,,,,,,,2,01,,,,,,,,,,,2,1.384,1,,,,,,-0.146296296,-0.255555556,1,0,0,1.3837,Basalt_rect,7,0,7,0,1,
6625c9127eee9a3639d7e1af,TCN,2024-06-24_17h39.13.817,LearnStrategy,2023.2.3,Win32,12.00480192,5,2,9,,,,,,,,8,16,,,,,,,,,,,8,1.529,1,,,,,,0.439814815,-0.394444444,1,0,0,1.5292,Pumice_rect,8,0,8,0,1,
6625c9127eee9a3639d7e1af,TCN,2024-06-24_17h39.13.817,LearnStrategy,2023.2.3,Win32,12.00480192,5,2,10,,,,,,,,5,09,,,,,,,,,,,5,1.381,1,,,,,,-0.371296296,-0.400925926,1,0,0,1.3809,Obsidian_rect,9,0,9,0,1,
6625c9127eee9a3639d7e1af,TCN,2024-06-24_17h39.13.817,LearnStrategy,2023.2.3,Win32,12.00480192,5,2,11,,,,,,,,3,15,,,,,,,,,,,3,1.597,1,,,,,,0.109259259,-0.25462963,1,0,0,1.5969,Diorite_rect,10,0,10,0,1,
6625c9127eee9a3639d7e1af,TCN,2024-06-24_17h39.13.817,LearnStrategy,2023.2.3,Win32,12.00480192,5,2,12,,,,,,,,4,15,,,,,,,,,,,4,8.895,1,,,,,,0.361111111,-0.247222222,1,0,0,8.8953,Gabbro_rect,11,0,11,0,1,
6625c9127eee9a3639d7e1af,TCN,2024-06-24_17h39.13.817,LearnStrategy,2023.2.3,Win32,12.00480192,5,2,13,,,,,,,,3,08,,,,,,,,,,,3,2.309,1,,,,,,0.15,-0.239814815,1,0,0,2.3086,Diorite_rect,12,0,12,0,1,
6625c9127eee9a3639d7e1af,TCN,2024-06-24_17h39.13.817,LearnStrategy,2023.2.3,Win32,12.00480192,5,2,14,,,,,,,,6,12,,,,,,,,,,,6,10.57,1,,,,,,-0.161111111,-0.401851852,1,0,0,10.5699,Pegmatite_rect,13,0,13,0,1,
6625c9127eee9a3639d7e1af,TCN,2024-06-24_17h39.13.817,LearnStrategy,2023.2.3,Win32,12.00480192,5,2,15,,,,,,,,4,12,,,,,,,,,,,2,3.396,0,,,,,,-0.121296296,-0.242592593,1,0,0,3.3964,Basalt_rect,14,0,14,0,1,
6625c9127eee9a3639d7e1af,TCN,2024-06-24_17h39.13.817,LearnStrategy,2023.2.3,Win32,12.00480192,5,2,16,,,,,,,,6,16,,,,,,,,,,,6,2.369,1,,,,,,-0.14537037,-0.39537037,1,0,0,2.3688,Pegmatite_rect,15,0,15,0,1,
6625c9127eee9a3639d7e1af,TCN,2024-06-24_17h39.13.817,LearnStrategy,2023.2.3,Win32,12.00480192,6,1,1,0.017592593,0.008333333,1,0,0,1.5416,rock_grid_rect_2,8,03,-1,-1,1.542,0.402777778,-0.390740741,1,0,0,1.8269,Pumice_rect,8,1.827,1,0,0,0,0,1,,,,,,,,,,,,,
6625c9127eee9a3639d7e1af,TCN,2024-06-24_17h39.13.817,LearnStrategy,2023.2.3,Win32,12.00480192,6,1,2,-0.043518519,0.001851852,1,0,0,0.8255,rock_grid_rect_2,3,06,-1,-1,0.825,0.153703704,-0.25462963,1,0,0,6.5706,Diorite_rect,3,6.571,1,1,0,1,0,1,,,,,,,,,,,,,
6625c9127eee9a3639d7e1af,TCN,2024-06-24_17h39.13.817,LearnStrategy,2023.2.3,Win32,12.00480192,6,1,3,-0.112962963,0.003703704,1,0,0,0.8097,rock_grid_rect_2,1,14,-1,-1,0.81,-0.150925926,-0.388888889,1,0,0,2.9901,Pegmatite_rect,6,2.99,0,2,0,2,0,1,,,,,,,,,,,,,
6625c9127eee9a3639d7e1af,TCN,2024-06-24_17h39.13.817,LearnStrategy,2023.2.3,Win32,12.00480192,6,1,4,-0.058333333,0.008333333,1,0,0,0.8122,rock_grid_rect_2,2,02,-1,-1,0.812,-0.107407407,-0.240740741,1,0,0,1.7271,Basalt_rect,2,1.727,1,3,0,3,0,1,,,,,,,,,,,,,
6625c9127eee9a3639d7e1af,TCN,2024-06-24_17h39.13.817,LearnStrategy,2023.2.3,Win32,12.00480192,6,1,5,-0.030555556,-0.012962963,1,0,0,0.7295,rock_grid_rect_2,7,07,-1,-1,0.729,0.164814815,-0.398148148,1,0,0,7.6281,Peridotite_rect,7,7.628,1,4,0,4,0,1,,,,,,,,,,,,,
6625c9127eee9a3639d7e1af,TCN,2024-06-24_17h39.13.817,LearnStrategy,2023.2.3,Win32,12.00480192,6,1,6,-0.024074074,-0.010185185,1,0,0,0.8241,rock_grid_rect_2,2,11,-1,-1,0.824,0.406481481,-0.265740741,1,0,0,8.1724,Gabbro_rect,4,8.172,0,5,0,5,0,1,,,,,,,,,,,,,
6625c9127eee9a3639d7e1af,TCN,2024-06-24_17h39.13.817,LearnStrategy,2023.2.3,Win32,12.00480192,6,1,7,-0.022222222,-0.003703704,1,0,0,1.0504,rock_grid_rect_2,8,04,-1,-1,1.05,0.440740741,-0.415740741,1,0,0,3.067,Pumice_rect,8,3.067,1,6,0,6,0,1,,,,,,,,,,,,,
6625c9127eee9a3639d7e1af,TCN,2024-06-24_17h39.13.817,LearnStrategy,2023.2.3,Win32,12.00480192,6,1,8,-0.021296296,0,1,0,0,0.726,rock_grid_rect_2,1,01,-1,-1,0.726,0.093518519,-0.400925926,1,0,0,7.8412,Peridotite_rect,7,7.841,0,7,0,7,0,1,,,,,,,,,,,,,
6625c9127eee9a3639d7e1af,TCN,2024-06-24_17h39.13.817,LearnStrategy,2023.2.3,Win32,12.00480192,6,1,9,-0.041666667,0.008333333,1,0,0,1.7354,rock_grid_rect_2,5,16,-1,-1,1.735,-0.341666667,-0.4,1,0,0,1.1836,Obsidian_rect,5,1.184,1,8,0,8,0,1,,,,,,,,,,,,,
6625c9127eee9a3639d7e1af,TCN,2024-06-24_17h39.13.817,LearnStrategy,2023.2.3,Win32,12.00480192,6,1,10,-0.002777778,-0.000925926,1,0,0,0.899,rock_grid_rect_2,4,09,-1,-1,0.899,0.42037037,-0.241666667,1,0,0,4.0523,Gabbro_rect,4,4.052,1,9,0,9,0,1,,,,,,,,,,,,,
6625c9127eee9a3639d7e1af,TCN,2024-06-24_17h39.13.817,LearnStrategy,2023.2.3,Win32,12.00480192,6,1,11,-0.022222222,-0.006481481,1,0,0,0.8296,rock_grid_rect_2,5,12,-1,-1,0.83,-0.34537037,-0.40462963,1,0,0,1.0953,Obsidian_rect,5,1.095,1,10,0,10,0,1,,,,,,,,,,,,,
6625c9127eee9a3639d7e1af,TCN,2024-06-24_17h39.13.817,LearnStrategy,2023.2.3,Win32,12.00480192,6,1,12,-0.064814815,-0.016666667,1,0,0,0.8193,rock_grid_rect_2,6,07,-1,-1,0.819,-0.140740741,-0.392592593,1,0,0,1.6589,Pegmatite_rect,6,1.659,1,11,0,11,0,1,,,,,,,,,,,,,
6625c9127eee9a3639d7e1af,TCN,2024-06-24_17h39.13.817,LearnStrategy,2023.2.3,Win32,12.00480192,6,1,13,-0.037962963,-0.010185185,1,0,0,0.9497,rock_grid_rect_2,4,08,-1,-1,0.95,0.359259259,-0.262962963,1,0,0,4.8224,Gabbro_rect,4,4.822,1,12,0,12,0,1,,,,,,,,,,,,,
6625c9127eee9a3639d7e1af,TCN,2024-06-24_17h39.13.817,LearnStrategy,2023.2.3,Win32,12.00480192,6,1,14,-0.030555556,0.001851852,1,0,0,1.7658,rock_grid_rect_2,7,16,-1,-1,1.766,-0.355555556,-0.241666667,1,0,0,6.4357,Andesite_rect,1,6.436,0,13,0,13,0,1,,,,,,,,,,,,,
6625c9127eee9a3639d7e1af,TCN,2024-06-24_17h39.13.817,LearnStrategy,2023.2.3,Win32,12.00480192,6,1,15,-0.009259259,-0.000925926,1,0,0,1.3356,rock_grid_rect_2,3,10,-1,-1,1.336,0.137037037,-0.244444444,1,0,0,2.2729,Diorite_rect,3,2.273,1,14,0,14,0,1,,,,,,,,,,,,,
6625c9127eee9a3639d7e1af,TCN,2024-06-24_17h39.13.817,LearnStrategy,2023.2.3,Win32,12.00480192,6,1,16,0.009259259,-0.005555556,1,0,0,0.9374,rock_grid_rect_2,6,06,-1,-1,0.937,-0.350925926,-0.248148148,1,0,0,9.0583,Andesite_rect,1,9.058,0,15,0,15,0,1,,,,,,,,,,,,,
6625c9127eee9a3639d7e1af,TCN,2024-06-24_17h39.13.817,LearnStrategy,2023.2.3,Win32,12.00480192,6,2,1,,,,,,,,2,05,,,,,,,,,,,2,4.994,1,,,,,,-0.106481481,-0.246296296,1,0,0,4.9939,Basalt_rect,0,0,0,0,1,
6625c9127eee9a3639d7e1af,TCN,2024-06-24_17h39.13.817,LearnStrategy,2023.2.3,Win32,12.00480192,6,2,2,,,,,,,,7,08,,,,,,,,,,,3,9.99,0,,,,,,0.14537037,-0.248148148,1,0,0,9.9904,Diorite_rect,1,0,1,0,1,
6625c9127eee9a3639d7e1af,TCN,2024-06-24_17h39.13.817,LearnStrategy,2023.2.3,Win32,12.00480192,6,2,3,,,,,,,,1,02,,,,,,,,,,,7,17.311,0,,,,,,0.138888889,-0.402777778,1,0,0,17.3112,Peridotite_rect,2,0,2,0,1,
6625c9127eee9a3639d7e1af,TCN,2024-06-24_17h39.13.817,LearnStrategy,2023.2.3,Win32,12.00480192,6,2,4,,,,,,,,5,08,,,,,,,,,,,5,1.198,1,,,,,,-0.365740741,-0.405555556,1,0,0,1.1981,Obsidian_rect,3,0,3,0,1,
6625c9127eee9a3639d7e1af,TCN,2024-06-24_17h39.13.817,LearnStrategy,2023.2.3,Win32,12.00480192,6,2,5,,,,,,,,4,05,,,,,,,,,,,4,2.427,1,,,,,,0.396296296,-0.237962963,1,0,0,2.4265,Gabbro_rect,4,0,4,0,1,
6625c9127eee9a3639d7e1af,TCN,2024-06-24_17h39.13.817,LearnStrategy,2023.2.3,Win32,12.00480192,6,2,6,,,,,,,,5,02,,,,,,,,,,,5,1.09,1,,,,,,-0.37037037,-0.397222222,1,0,0,1.0896,Obsidian_rect,5,0,5,0,1,
6625c9127eee9a3639d7e1af,TCN,2024-06-24_17h39.13.817,LearnStrategy,2023.2.3,Win32,12.00480192,6,2,7,,,,,,,,8,09,,,,,,,,,,,8,1.092,1,,,,,,0.386111111,-0.402777778,1,0,0,1.0919,Pumice_rect,6,0,6,0,1,
6625c9127eee9a3639d7e1af,TCN,2024-06-24_17h39.13.817,LearnStrategy,2023.2.3,Win32,12.00480192,6,2,8,,,,,,,,7,06,,,,,,,,,,,1,7.151,0,,,,,,-0.362037037,-0.262037037,1,0,0,7.1507,Andesite_rect,7,0,7,0,1,
6625c9127eee9a3639d7e1af,TCN,2024-06-24_17h39.13.817,LearnStrategy,2023.2.3,Win32,12.00480192,6,2,9,,,,,,,,3,09,,,,,,,,,,,3,1.247,1,,,,,,0.100925926,-0.251851852,1,0,0,1.247,Diorite_rect,8,0,8,0,1,
6625c9127eee9a3639d7e1af,TCN,2024-06-24_17h39.13.817,LearnStrategy,2023.2.3,Win32,12.00480192,6,2,10,,,,,,,,6,03,,,,,,,,,,,1,5.924,0,,,,,,-0.349074074,-0.242592593,1,0,0,5.9235,Andesite_rect,9,0,9,0,1,
6625c9127eee9a3639d7e1af,TCN,2024-06-24_17h39.13.817,LearnStrategy,2023.2.3,Win32,12.00480192,6,2,11,,,,,,,,6,10,,,,,,,,,,,6,5.41,1,,,,,,-0.094444444,-0.396296296,1,0,0,5.4104,Pegmatite_rect,10,0,10,0,1,
6625c9127eee9a3639d7e1af,TCN,2024-06-24_17h39.13.817,LearnStrategy,2023.2.3,Win32,12.00480192,6,2,12,,,,,,,,3,16,,,,,,,,,,,7,6.609,0,,,,,,0.147222222,-0.411111111,1,0,0,6.609,Peridotite_rect,11,0,11,0,1,
6625c9127eee9a3639d7e1af,TCN,2024-06-24_17h39.13.817,LearnStrategy,2023.2.3,Win32,12.00480192,6,2,13,,,,,,,,1,05,,,,,,,,,,,1,6.933,1,,,,,,-0.344444444,-0.262037037,1,0,0,6.9327,Andesite_rect,12,0,12,0,1,
6625c9127eee9a3639d7e1af,TCN,2024-06-24_17h39.13.817,LearnStrategy,2023.2.3,Win32,12.00480192,6,2,14,,,,,,,,2,06,,,,,,,,,,,2,2.772,1,,,,,,-0.158333333,-0.260185185,1,0,0,2.772,Basalt_rect,13,0,13,0,1,
6625c9127eee9a3639d7e1af,TCN,2024-06-24_17h39.13.817,LearnStrategy,2023.2.3,Win32,12.00480192,6,2,15,,,,,,,,8,06,,,,,,,,,,,8,1.214,1,,,,,,0.447222222,-0.391666667,1,0,0,1.214,Pumice_rect,14,0,14,0,1,
6625c9127eee9a3639d7e1af,TCN,2024-06-24_17h39.13.817,LearnStrategy,2023.2.3,Win32,12.00480192,6,2,16,,,,,,,,4,16,,,,,,,,,,,4,5.609,1,,,,,,0.375925926,-0.250925926,1,0,0,5.609,Gabbro_rect,15,0,15,0,1,
6625c9127eee9a3639d7e1af,TCN,2024-06-24_17h39.13.817,LearnStrategy,2023.2.3,Win32,12.00480192,7,1,1,0.010185185,0.002777778,1,0,0,1.4363,rock_grid_rect_2,5,12,-1,-1,1.436,-0.352777778,-0.392592593,1,0,0,1.1706,Obsidian_rect,5,1.171,1,0,0,0,0,1,,,,,,,,,,,,,
6625c9127eee9a3639d7e1af,TCN,2024-06-24_17h39.13.817,LearnStrategy,2023.2.3,Win32,12.00480192,7,1,2,-0.015740741,-0.009259259,1,0,0,1.3214,rock_grid_rect_2,7,04,-1,-1,1.321,0.139814815,-0.397222222,1,0,0,7.2892,Peridotite_rect,7,7.289,1,1,0,1,0,1,,,,,,,,,,,,,
6625c9127eee9a3639d7e1af,TCN,2024-06-24_17h39.13.817,LearnStrategy,2023.2.3,Win32,12.00480192,7,1,3,-0.019444444,0.014814815,1,0,0,0.9405,rock_grid_rect_2,3,02,-1,-1,0.941,0.136111111,-0.260185185,1,0,0,3.2376,Diorite_rect,3,3.238,1,2,0,2,0,1,,,,,,,,,,,,,
6625c9127eee9a3639d7e1af,TCN,2024-06-24_17h39.13.817,LearnStrategy,2023.2.3,Win32,12.00480192,7,1,4,-0.009259259,0,1,0,0,0.93,rock_grid_rect_2,1,09,-1,-1,0.93,-0.364814815,-0.253703704,1,0,0,5.6154,Andesite_rect,1,5.615,1,3,0,3,0,1,,,,,,,,,,,,,
6625c9127eee9a3639d7e1af,TCN,2024-06-24_17h39.13.817,LearnStrategy,2023.2.3,Win32,12.00480192,7,1,5,-0.024074074,-0.017592593,1,0,0,0.9194,rock_grid_rect_2,7,12,-1,-1,0.919,0.143518519,-0.248148148,1,0,0,5.8068,Diorite_rect,3,5.807,0,4,0,4,0,1,,,,,,,,,,,,,
6625c9127eee9a3639d7e1af,TCN,2024-06-24_17h39.13.817,LearnStrategy,2023.2.3,Win32,12.00480192,7,1,6,0.028703704,0.001851852,1,0,0,0.8314,rock_grid_rect_2,8,02,-1,-1,0.831,0.412962963,-0.393518519,1,0,0,1.2921,Pumice_rect,8,1.292,1,5,0,5,0,1,,,,,,,,,,,,,
6625c9127eee9a3639d7e1af,TCN,2024-06-24_17h39.13.817,LearnStrategy,2023.2.3,Win32,12.00480192,7,1,7,-0.030555556,0.00462963,1,0,0,1.1117,rock_grid_rect_2,3,13,-1,-1,1.112,0.148148148,-0.234259259,1,0,0,3.3511,Diorite_rect,3,3.351,1,6,0,6,0,1,,,,,,,,,,,,,
6625c9127eee9a3639d7e1af,TCN,2024-06-24_17h39.13.817,LearnStrategy,2023.2.3,Win32,12.00480192,7,1,8,0.017592593,0.011111111,1,0,0,0.8566,rock_grid_rect_2,2,10,-1,-1,0.857,-0.127777778,-0.243518519,1,0,0,1.2284,Basalt_rect,2,1.228,1,7,0,7,0,1,,,,,,,,,,,,,
6625c9127eee9a3639d7e1af,TCN,2024-06-24_17h39.13.817,LearnStrategy,2023.2.3,Win32,12.00480192,7,1,9,-0.002777778,0,1,0,0,0.9193,rock_grid_rect_2,6,08,-1,-1,0.919,-0.127777778,-0.393518519,1,0,0,1.5889,Pegmatite_rect,6,1.589,1,8,0,8,0,1,,,,,,,,,,,,,
6625c9127eee9a3639d7e1af,TCN,2024-06-24_17h39.13.817,LearnStrategy,2023.2.3,Win32,12.00480192,7,1,10,0.016666667,0.008333333,1,0,0,0.8372,rock_grid_rect_2,1,04,-1,-1,0.837,-0.340740741,-0.241666667,1,0,0,11.2661,Andesite_rect,1,11.266,1,9,0,9,0,1,,,,,,,,,,,,,
6625c9127eee9a3639d7e1af,TCN,2024-06-24_17h39.13.817,LearnStrategy,2023.2.3,Win32,12.00480192,7,1,11,-0.093518519,0.016666667,1,0,0,0.7296,rock_grid_rect_2,8,04,-1,-1,0.73,0.42962963,-0.392592593,1,0,0,2.1104,Pumice_rect,8,2.11,1,10,0,10,0,1,,,,,,,,,,,,,
6625c9127eee9a3639d7e1af,TCN,2024-06-24_17h39.13.817,LearnStrategy,2023.2.3,Win32,12.00480192,7,1,12,-0.026851852,-0.001851852,1,0,0,1.7358,rock_grid_rect_2,4,14,-1,-1,1.736,0.412037037,-0.246296296,1,0,0,2.026,Gabbro_rect,4,2.026,1,11,0,11,0,1,,,,,,,,,,,,,
6625c9127eee9a3639d7e1af,TCN,2024-06-24_17h39.13.817,LearnStrategy,2023.2.3,Win32,12.00480192,7,1,13,-0.047222222,0.001851852,1,0,0,0.9478,rock_grid_rect_2,2,04,-1,-1,0.948,-0.115740741,-0.252777778,1,0,0,1.8271,Basalt_rect,2,1.827,1,12,0,12,0,1,,,,,,,,,,,,,
6625c9127eee9a3639d7e1af,TCN,2024-06-24_17h39.13.817,LearnStrategy,2023.2.3,Win32,12.00480192,7,1,14,-0.012962963,-0.00462963,1,0,0,1.1264,rock_grid_rect_2,6,13,-1,-1,1.126,-0.117592593,-0.410185185,1,0,0,7.473,Pegmatite_rect,6,7.473,1,13,0,13,0,1,,,,,,,,,,,,,
6625c9127eee9a3639d7e1af,TCN,2024-06-24_17h39.13.817,LearnStrategy,2023.2.3,Win32,12.00480192,7,1,15,-0.025925926,-0.00462963,1,0,0,1.0487,rock_grid_rect_2,4,03,-1,-1,1.049,0.374074074,-0.236111111,1,0,0,5.1822,Gabbro_rect,4,5.182,1,14,0,14,0,1,,,,,,,,,,,,,
6625c9127eee9a3639d7e1af,TCN,2024-06-24_17h39.13.817,LearnStrategy,2023.2.3,Win32,12.00480192,7,1,16,-0.008333333,-0.00462963,1,0,0,0.9248,rock_grid_rect_2,5,05,-1,-1,0.925,-0.388888889,-0.410185185,1,0,0,1.3889,Obsidian_rect,5,1.389,1,15,0,15,0,1,,,,,,,,,,,,,
6625c9127eee9a3639d7e1af,TCN,2024-06-24_17h39.13.817,LearnStrategy,2023.2.3,Win32,12.00480192,7,2,1,,,,,,,,3,15,,,,,,,,,,,3,2.541,1,,,,,,0.12037037,-0.244444444,1,0,0,2.5405,Diorite_rect,0,0,0,0,1,
6625c9127eee9a3639d7e1af,TCN,2024-06-24_17h39.13.817,LearnStrategy,2023.2.3,Win32,12.00480192,7,2,2,,,,,,,,1,03,,,,,,,,,,,1,7.667,1,,,,,,-0.406481481,-0.25,1,0,0,7.6671,Andesite_rect,1,0,1,0,1,
6625c9127eee9a3639d7e1af,TCN,2024-06-24_17h39.13.817,LearnStrategy,2023.2.3,Win32,12.00480192,7,2,3,,,,,,,,8,08,,,,,,,,,,,8,1.28,1,,,,,,0.4,-0.403703704,1,0,0,1.2796,Pumice_rect,2,0,2,0,1,
6625c9127eee9a3639d7e1af,TCN,2024-06-24_17h39.13.817,LearnStrategy,2023.2.3,Win32,12.00480192,7,2,4,,,,,,,,4,05,,,,,,,,,,,4,1.535,1,,,,,,0.387037037,-0.256481481,1,0,0,1.5347,Gabbro_rect,3,0,3,0,1,
6625c9127eee9a3639d7e1af,TCN,2024-06-24_17h39.13.817,LearnStrategy,2023.2.3,Win32,12.00480192,7,2,5,,,,,,,,6,10,,,,,,,,,,,6,6.354,1,,,,,,-0.081481481,-0.408333333,1,0,0,6.3544,Pegmatite_rect,4,0,4,0,1,
6625c9127eee9a3639d7e1af,TCN,2024-06-24_17h39.13.817,LearnStrategy,2023.2.3,Win32,12.00480192,7,2,6,,,,,,,,5,02,,,,,,,,,,,5,1.272,1,,,,,,-0.393518519,-0.387962963,1,0,0,1.2722,Obsidian_rect,5,0,5,0,1,
6625c9127eee9a3639d7e1af,TCN,2024-06-24_17h39.13.817,LearnStrategy,2023.2.3,Win32,12.00480192,7,2,7,,,,,,,,6,12,,,,,,,,,,,1,6.932,0,,,,,,-0.384259259,-0.250925926,1,0,0,6.932,Andesite_rect,6,0,6,0,1,
6625c9127eee9a3639d7e1af,TCN,2024-06-24_17h39.13.817,LearnStrategy,2023.2.3,Win32,12.00480192,7,2,8,,,,,,,,2,12,,,,,,,,,,,2,2.895,1,,,,,,-0.125925926,-0.251851852,1,0,0,2.8953,Basalt_rect,7,0,7,0,1,
6625c9127eee9a3639d7e1af,TCN,2024-06-24_17h39.13.817,LearnStrategy,2023.2.3,Win32,12.00480192,7,2,9,,,,,,,,7,15,,,,,,,,,,,7,2.053,1,,,,,,0.12037037,-0.399074074,1,0,0,2.0534,Peridotite_rect,8,0,8,0,1,
6625c9127eee9a3639d7e1af,TCN,2024-06-24_17h39.13.817,LearnStrategy,2023.2.3,Win32,12.00480192,7,2,10,,,,,,,,3,14,,,,,,,,,,,3,1.191,1,,,,,,0.112037037,-0.243518519,1,0,0,1.1913,Diorite_rect,9,0,9,0,1,
6625c9127eee9a3639d7e1af,TCN,2024-06-24_17h39.13.817,LearnStrategy,2023.2.3,Win32,12.00480192,7,2,11,,,,,,,,8,06,,,,,,,,,,,8,1.116,1,,,,,,0.422222222,-0.403703704,1,0,0,1.1164,Pumice_rect,10,0,10,0,1,
6625c9127eee9a3639d7e1af,TCN,2024-06-24_17h39.13.817,LearnStrategy,2023.2.3,Win32,12.00480192,7,2,12,,,,,,,,1,16,,,,,,,,,,,4,7.866,0,,,,,,0.373148148,-0.238888889,1,0,0,7.8661,Gabbro_rect,11,0,11,0,1,
6625c9127eee9a3639d7e1af,TCN,2024-06-24_17h39.13.817,LearnStrategy,2023.2.3,Win32,12.00480192,7,2,13,,,,,,,,7,06,,,,,,,,,,,6,4.247,0,,,,,,-0.138888889,-0.396296296,1,0,0,4.2473,Pegmatite_rect,12,0,12,0,1,
6625c9127eee9a3639d7e1af,TCN,2024-06-24_17h39.13.817,LearnStrategy,2023.2.3,Win32,12.00480192,7,2,14,,,,,,,,4,16,,,,,,,,,,,2,8.183,0,,,,,,-0.155555556,-0.242592593,1,0,0,8.1825,Basalt_rect,13,0,13,0,1,
6625c9127eee9a3639d7e1af,TCN,2024-06-24_17h39.13.817,LearnStrategy,2023.2.3,Win32,12.00480192,7,2,15,,,,,,,,2,06,,,,,,,,,,,2,4.385,1,,,,,,-0.155555556,-0.242592593,1,0,0,4.385,Basalt_rect,14,0,14,0,1,
6625c9127eee9a3639d7e1af,TCN,2024-06-24_17h39.13.817,LearnStrategy,2023.2.3,Win32,12.00480192,7,2,16,,,,,,,,5,11,,,,,,,,,,,5,1.139,1,,,,,,-0.382407407,-0.400925926,1,0,0,1.1394,Obsidian_rect,15,0,15,0,1,
6625c9127eee9a3639d7e1af,TCN,2024-06-24_17h39.13.817,LearnStrategy,2023.2.3,Win32,12.00480192,8,1,1,-0.012962963,-0.006481481,1,0,0,1.7269,rock_grid_rect_2,4,09,-1,-1,1.727,0.430555556,-0.260185185,1,0,0,10.1281,Gabbro_rect,4,10.128,1,0,0,0,0,1,,,,,,,,,,,,,
6625c9127eee9a3639d7e1af,TCN,2024-06-24_17h39.13.817,LearnStrategy,2023.2.3,Win32,12.00480192,8,1,2,-0.023148148,0.006481481,1,0,0,55.2315,rock_grid_rect_2,1,14,-1,-1,55.231,-0.378703704,-0.257407407,1,0,0,4.6588,Andesite_rect,1,4.659,1,1,0,1,0,1,,,,,,,,,,,,,
6625c9127eee9a3639d7e1af,TCN,2024-06-24_17h39.13.817,LearnStrategy,2023.2.3,Win32,12.00480192,8,1,3,-0.003703704,-0.005555556,1,0,0,0.8149,rock_grid_rect_2,7,05,-1,-1,0.815,0.349074074,-0.271296296,1,0,0,9.1225,Gabbro_rect,4,9.122,0,2,0,2,0,1,,,,,,,,,,,,,
6625c9127eee9a3639d7e1af,TCN,2024-06-24_17h39.13.817,LearnStrategy,2023.2.3,Win32,12.00480192,8,1,4,0.002777778,0.001851852,1,0,0,1.0462,rock_grid_rect_2,3,07,-1,-1,1.046,0.118518519,-0.4,1,0,0,18.7189,Peridotite_rect,7,18.719,0,3,0,3,0,1,,,,,,,,,,,,,
6625c9127eee9a3639d7e1af,TCN,2024-06-24_17h39.13.817,LearnStrategy,2023.2.3,Win32,12.00480192,8,1,5,-0.00462963,0.005555556,1,0,0,1.6581,rock_grid_rect_2,5,16,-1,-1,1.658,-0.437037037,-0.411111111,1,0,0,2.2503,Obsidian_rect,5,2.25,1,4,0,4,0,1,,,,,,,,,,,,,
6625c9127eee9a3639d7e1af,TCN,2024-06-24_17h39.13.817,LearnStrategy,2023.2.3,Win32,12.00480192,8,1,6,-0.00462963,0.002777778,1,0,0,1.3746,rock_grid_rect_2,1,01,-1,-1,1.375,0.124074074,-0.396296296,1,0,0,3.0893,Peridotite_rect,7,3.089,0,5,0,5,0,1,,,,,,,,,,,,,
6625c9127eee9a3639d7e1af,TCN,2024-06-24_17h39.13.817,LearnStrategy,2023.2.3,Win32,12.00480192,8,1,7,-0.031481481,-0.006481481,1,0,0,0.812,rock_grid_rect_2,8,15,-1,-1,0.812,0.425,-0.405555556,1,0,0,1.2756,Pumice_rect,8,1.276,1,6,0,6,0,1,,,,,,,,,,,,,
6625c9127eee9a3639d7e1af,TCN,2024-06-24_17h39.13.817,LearnStrategy,2023.2.3,Win32,12.00480192,8,1,8,-0.021296296,0.007407407,1,0,0,0.8445,rock_grid_rect_2,7,07,-1,-1,0.844,0.388888889,-0.262037037,1,0,0,5.0354,Gabbro_rect,4,5.035,0,7,0,7,0,1,,,,,,,,,,,,,
6625c9127eee9a3639d7e1af,TCN,2024-06-24_17h39.13.817,LearnStrategy,2023.2.3,Win32,12.00480192,8,1,9,-0.012962963,0,1,0,0,1.426,rock_grid_rect_2,3,10,-1,-1,1.426,0.137962963,-0.257407407,1,0,0,1.8264,Diorite_rect,3,1.826,1,8,0,8,0,1,,,,,,,,,,,,,
6625c9127eee9a3639d7e1af,TCN,2024-06-24_17h39.13.817,LearnStrategy,2023.2.3,Win32,12.00480192,8,1,10,0.012037037,-0.00462963,1,0,0,0.8166,rock_grid_rect_2,8,10,-1,-1,0.817,0.382407407,-0.4,1,0,0,5.6648,Pumice_rect,8,5.665,1,9,0,9,0,1,,,,,,,,,,,,,
6625c9127eee9a3639d7e1af,TCN,2024-06-24_17h39.13.817,LearnStrategy,2023.2.3,Win32,12.00480192,8,1,11,-0.012962963,-0.000925926,1,0,0,0.8421,rock_grid_rect_2,2,14,-1,-1,0.842,-0.131481481,-0.269444444,1,0,0,1.999,Basalt_rect,2,1.999,1,10,0,10,0,1,,,,,,,,,,,,,
6625c9127eee9a3639d7e1af,TCN,2024-06-24_17h39.13.817,LearnStrategy,2023.2.3,Win32,12.00480192,8,1,12,0.003703704,0.010185185,1,0,0,0.839,rock_grid_rect_2,6,09,-1,-1,0.839,-0.105555556,-0.397222222,1,0,0,4.5592,Pegmatite_rect,6,4.559,1,11,0,11,0,1,,,,,,,,,,,,,
6625c9127eee9a3639d7e1af,TCN,2024-06-24_17h39.13.817,LearnStrategy,2023.2.3,Win32,12.00480192,8,1,13,-0.009259259,0.016666667,1,0,0,0.9283,rock_grid_rect_2,4,10,-1,-1,0.928,0.385185185,-0.25462963,1,0,0,3.0491,Gabbro_rect,4,3.049,1,12,0,12,0,1,,,,,,,,,,,,,
6625c9127eee9a3639d7e1af,TCN,2024-06-24_17h39.13.817,LearnStrategy,2023.2.3,Win32,12.00480192,8,1,14,-0.007407407,-0.007407407,1,0,0,1.0171,rock_grid_rect_2,5,06,-1,-1,1.017,-0.340740741,-0.391666667,1,0,0,1.0694,Obsidian_rect,5,1.069,1,13,0,13,0,1,,,,,,,,,,,,,
6625c9127eee9a3639d7e1af,TCN,2024-06-24_17h39.13.817,LearnStrategy,2023.2.3,Win32,12.00480192,8,1,15,-0.006481481,0.015740741,1,0,0,0.9247,rock_grid_rect_2,2,02,-1,-1,0.925,-0.108333333,-0.238888889,1,0,0,1.8412,Basalt_rect,2,1.841,1,14,0,14,0,1,,,,,,,,,,,,,
6625c9127eee9a3639d7e1af,TCN,2024-06-24_17h39.13.817,LearnStrategy,2023.2.3,Win32,12.00480192,8,1,16,0.007407407,0.012962963,1,0,0,1.2221,rock_grid_rect_2,6,07,-1,-1,1.222,-0.117592593,-0.394444444,1,0,0,4.061,Pegmatite_rect,6,4.061,1,15,0,15,0,1,,,,,,,,,,,,,
6625c9127eee9a3639d7e1af,TCN,2024-06-24_17h39.13.817,LearnStrategy,2023.2.3,Win32,12.00480192,8,2,1,,,,,,,,8,13,,,,,,,,,,,8,3.575,1,,,,,,0.400925926,-0.402777778,1,0,0,3.5753,Pumice_rect,0,0,0,0,1,
6625c9127eee9a3639d7e1af,TCN,2024-06-24_17h39.13.817,LearnStrategy,2023.2.3,Win32,12.00480192,8,2,2,,,,,,,,4,12,,,,,,,,,,,2,2.41,0,,,,,,-0.142592593,-0.244444444,1,0,0,2.4097,Basalt_rect,1,0,1,0,1,
6625c9127eee9a3639d7e1af,TCN,2024-06-24_17h39.13.817,LearnStrategy,2023.2.3,Win32,12.00480192,8,2,3,,,,,,,,2,09,,,,,,,,,,,2,2.482,1,,,,,,-0.142592593,-0.243518519,1,0,0,2.4823,Basalt_rect,2,0,2,0,1,
6625c9127eee9a3639d7e1af,TCN,2024-06-24_17h39.13.817,LearnStrategy,2023.2.3,Win32,12.00480192,8,2,4,,,,,,,,3,08,,,,,,,,,,,3,1.873,1,,,,,,0.114814815,-0.234259259,1,0,0,1.8734,Diorite_rect,3,0,3,0,1,
6625c9127eee9a3639d7e1af,TCN,2024-06-24_17h39.13.817,LearnStrategy,2023.2.3,Win32,12.00480192,8,2,5,,,,,,,,7,08,,,,,,,,,,,7,2.268,1,,,,,,0.100925926,-0.394444444,1,0,0,2.2685,Peridotite_rect,4,0,4,0,1,
6625c9127eee9a3639d7e1af,TCN,2024-06-24_17h39.13.817,LearnStrategy,2023.2.3,Win32,12.00480192,8,2,6,,,,,,,,4,15,,,,,,,,,,,1,4.287,0,,,,,,-0.414814815,-0.25,1,0,0,4.2868,Andesite_rect,5,0,5,0,1,
6625c9127eee9a3639d7e1af,TCN,2024-06-24_17h39.13.817,LearnStrategy,2023.2.3,Win32,12.00480192,8,2,7,,,,,,,,3,16,,,,,,,,,,,2,4.096,0,,,,,,-0.139814815,-0.25,1,0,0,4.0959,Basalt_rect,6,0,6,0,1,
6625c9127eee9a3639d7e1af,TCN,2024-06-24_17h39.13.817,LearnStrategy,2023.2.3,Win32,12.00480192,8,2,8,,,,,,,,7,13,,,,,,,,,,,7,4.466,1,,,,,,0.114814815,-0.393518519,1,0,0,4.466,Peridotite_rect,7,0,7,0,1,
6625c9127eee9a3639d7e1af,TCN,2024-06-24_17h39.13.817,LearnStrategy,2023.2.3,Win32,12.00480192,8,2,9,,,,,,,,5,09,,,,,,,,,,,5,1.828,1,,,,,,-0.398148148,-0.399074074,1,0,0,1.8276,Obsidian_rect,8,0,8,0,1,
6625c9127eee9a3639d7e1af,TCN,2024-06-24_17h39.13.817,LearnStrategy,2023.2.3,Win32,12.00480192,8,2,10,,,,,,,,6,16,,,,,,,,,,,6,1.361,1,,,,,,-0.124074074,-0.384259259,1,0,0,1.3605,Pegmatite_rect,9,0,9,0,1,
6625c9127eee9a3639d7e1af,TCN,2024-06-24_17h39.13.817,LearnStrategy,2023.2.3,Win32,12.00480192,8,2,11,,,,,,,,8,09,,,,,,,,,,,8,1.247,1,,,,,,0.342592593,-0.399074074,1,0,0,1.2475,Pumice_rect,10,0,10,0,1,
6625c9127eee9a3639d7e1af,TCN,2024-06-24_17h39.13.817,LearnStrategy,2023.2.3,Win32,12.00480192,8,2,12,,,,,,,,5,08,,,,,,,,,,,5,1.187,1,,,,,,-0.372222222,-0.393518519,1,0,0,1.1871,Obsidian_rect,11,0,11,0,1,
6625c9127eee9a3639d7e1af,TCN,2024-06-24_17h39.13.817,LearnStrategy,2023.2.3,Win32,12.00480192,8,2,13,,,,,,,,1,10,,,,,,,,,,,1,8.191,1,,,,,,-0.469444444,-0.252777778,1,0,0,8.191,Andesite_rect,12,0,12,0,1,
6625c9127eee9a3639d7e1af,TCN,2024-06-24_17h39.13.817,LearnStrategy,2023.2.3,Win32,12.00480192,8,2,14,,,,,,,,6,03,,,,,,,,,,,7,12.448,0,,,,,,0.09537037,-0.401851852,1,0,0,12.4481,Peridotite_rect,13,0,13,0,1,
6625c9127eee9a3639d7e1af,TCN,2024-06-24_17h39.13.817,LearnStrategy,2023.2.3,Win32,12.00480192,8,2,15,,,,,,,,2,16,,,,,,,,,,,2,2.788,1,,,,,,-0.130555556,-0.237037037,1,0,0,2.7876,Basalt_rect,14,0,14,0,1,
6625c9127eee9a3639d7e1af,TCN,2024-06-24_17h39.13.817,LearnStrategy,2023.2.3,Win32,12.00480192,8,2,16,,,,,,,,1,02,,,,,,,,,,,4,1.528,0,,,,,,0.401851852,-0.251851852,1,0,0,1.5283,Gabbro_rect,15,0,15,0,1,
6625c9127eee9a3639d7e1af,TCN,2024-06-24_17h39.13.817,LearnStrategy,2023.2.3,Win32,12.00480192,9,1,1,-0.056481481,-0.007407407,1,0,0,2.3467,rock_grid_rect_2,8,05,-1,-1,2.347,0.382407407,-0.409259259,1,0,0,1.6002,Pumice_rect,8,1.6,1,0,0,0,0,1,,,,,,,,,,,,,
6625c9127eee9a3639d7e1af,TCN,2024-06-24_17h39.13.817,LearnStrategy,2023.2.3,Win32,12.00480192,9,1,2,-0.078703704,-0.008333333,1,0,0,1.8434,rock_grid_rect_2,8,03,-1,-1,1.843,0.408333333,-0.4,1,0,0,4.1066,Pumice_rect,8,4.107,1,1,0,1,0,1,,,,,,,,,,,,,
6625c9127eee9a3639d7e1af,TCN,2024-06-24_17h39.13.817,LearnStrategy,2023.2.3,Win32,12.00480192,9,1,3,-0.056481481,0.00462963,1,0,0,0.8276,rock_grid_rect_2,7,14,-1,-1,0.828,0.160185185,-0.391666667,1,0,0,2.1882,Peridotite_rect,7,2.188,1,2,0,2,0,1,,,,,,,,,,,,,
6625c9127eee9a3639d7e1af,TCN,2024-06-24_17h39.13.817,LearnStrategy,2023.2.3,Win32,12.00480192,9,1,4,-0.030555556,0,1,0,0,0.8218,rock_grid_rect_2,7,16,-1,-1,0.822,0.162962963,-0.409259259,1,0,0,3.9185,Peridotite_rect,7,3.918,1,3,0,3,0,1,,,,,,,,,,,,,
6625c9127eee9a3639d7e1af,TCN,2024-06-24_17h39.13.817,LearnStrategy,2023.2.3,Win32,12.00480192,9,1,5,-0.011111111,-0.016666667,1,0,0,0.7407,rock_grid_rect_2,5,07,-1,-1,0.741,-0.415740741,-0.405555556,1,0,0,1.1268,Obsidian_rect,5,1.127,1,4,0,4,0,1,,,,,,,,,,,,,
6625c9127eee9a3639d7e1af,TCN,2024-06-24_17h39.13.817,LearnStrategy,2023.2.3,Win32,12.00480192,9,1,6,-0.027777778,-0.000925926,1,0,0,1.015,rock_grid_rect_2,4,08,-1,-1,1.015,0.384259259,-0.238888889,1,0,0,1.6621,Gabbro_rect,4,1.662,1,5,0,5,0,1,,,,,,,,,,,,,
6625c9127eee9a3639d7e1af,TCN,2024-06-24_17h39.13.817,LearnStrategy,2023.2.3,Win32,12.00480192,9,1,7,-0.031481481,-0.006481481,1,0,0,0.7073,rock_grid_rect_2,3,11,-1,-1,0.707,0.132407407,-0.246296296,1,0,0,1.3381,Diorite_rect,3,1.338,1,6,0,6,0,1,,,,,,,,,,,,,
6625c9127eee9a3639d7e1af,TCN,2024-06-24_17h39.13.817,LearnStrategy,2023.2.3,Win32,12.00480192,9,1,8,0.00462963,0.011111111,1,0,0,0.7276,rock_grid_rect_2,5,10,-1,-1,0.728,-0.381481481,-0.399074074,1,0,0,1.0828,Obsidian_rect,5,1.083,1,7,0,7,0,1,,,,,,,,,,,,,
6625c9127eee9a3639d7e1af,TCN,2024-06-24_17h39.13.817,LearnStrategy,2023.2.3,Win32,12.00480192,9,1,9,-0.006481481,0.012037037,1,0,0,0.8324,rock_grid_rect_2,3,06,-1,-1,0.832,-0.364814815,-0.237037037,1,0,0,4.5777,Andesite_rect,1,4.578,0,8,0,8,0,1,,,,,,,,,,,,,
6625c9127eee9a3639d7e1af,TCN,2024-06-24_17h39.13.817,LearnStrategy,2023.2.3,Win32,12.00480192,9,1,10,0.003703704,0.002777778,1,0,0,0.8215,rock_grid_rect_2,6,06,-1,-1,0.822,-0.182407407,-0.39537037,1,0,0,5.5776,Pegmatite_rect,6,5.578,1,9,0,9,0,1,,,,,,,,,,,,,
6625c9127eee9a3639d7e1af,TCN,2024-06-24_17h39.13.817,LearnStrategy,2023.2.3,Win32,12.00480192,9,1,11,-0.07962963,0.007407407,1,0,0,0.7252,rock_grid_rect_2,2,08,-1,-1,0.725,-0.169444444,-0.261111111,1,0,0,1.0767,Basalt_rect,2,1.077,1,10,0,10,0,1,,,,,,,,,,,,,
6625c9127eee9a3639d7e1af,TCN,2024-06-24_17h39.13.817,LearnStrategy,2023.2.3,Win32,12.00480192,9,1,12,-0.039814815,0.000925926,1,0,0,1.254,rock_grid_rect_2,4,11,-1,-1,1.254,-0.355555556,-0.233333333,1,0,0,4.3224,Andesite_rect,1,4.322,0,11,0,11,0,1,,,,,,,,,,,,,
6625c9127eee9a3639d7e1af,TCN,2024-06-24_17h39.13.817,LearnStrategy,2023.2.3,Win32,12.00480192,9,1,13,-0.000925926,-0.000925926,1,0,0,0.9372,rock_grid_rect_2,2,11,-1,-1,0.937,-0.408333333,-0.248148148,1,0,0,3.3308,Andesite_rect,1,3.331,0,12,0,12,0,1,,,,,,,,,,,,,
6625c9127eee9a3639d7e1af,TCN,2024-06-24_17h39.13.817,LearnStrategy,2023.2.3,Win32,12.00480192,9,1,14,-0.021296296,0.001851852,1,0,0,0.7245,rock_grid_rect_2,1,07,-1,-1,0.724,-0.383333333,-0.239814815,1,0,0,1.8695,Andesite_rect,1,1.87,1,13,0,13,0,1,,,,,,,,,,,,,
6625c9127eee9a3639d7e1af,TCN,2024-06-24_17h39.13.817,LearnStrategy,2023.2.3,Win32,12.00480192,9,1,15,-0.012962963,-0.000925926,1,0,0,1.7682,rock_grid_rect_2,6,05,-1,-1,1.768,-0.111111111,-0.401851852,1,0,0,2.0423,Pegmatite_rect,6,2.042,1,14,0,14,0,1,,,,,,,,,,,,,
6625c9127eee9a3639d7e1af,TCN,2024-06-24_17h39.13.817,LearnStrategy,2023.2.3,Win32,12.00480192,9,1,16,-0.006481481,0.003703704,1,0,0,0.8238,rock_grid_rect_2,1,11,-1,-1,0.824,-0.366666667,-0.255555556,1,0,0,5.2068,Andesite_rect,1,5.207,1,15,0,15,0,1,,,,,,,,,,,,,
6625c9127eee9a3639d7e1af,TCN,2024-06-24_17h39.13.817,LearnStrategy,2023.2.3,Win32,12.00480192,9,2,1,,,,,,,,1,06,,,,,,,,,,,1,2.879,1,,,,,,-0.374074074,-0.239814815,1,0,0,2.8793,Andesite_rect,0,0,0,0,1,
6625c9127eee9a3639d7e1af,TCN,2024-06-24_17h39.13.817,LearnStrategy,2023.2.3,Win32,12.00480192,9,2,2,,,,,,,,7,10,,,,,,,,,,,7,6.302,1,,,,,,0.146296296,-0.405555556,1,0,0,6.3016,Peridotite_rect,1,0,1,0,1,
6625c9127eee9a3639d7e1af,TCN,2024-06-24_17h39.13.817,LearnStrategy,2023.2.3,Win32,12.00480192,9,2,3,,,,,,,,5,04,,,,,,,,,,,5,1.769,1,,,,,,-0.423148148,-0.407407407,1,0,0,1.7694,Obsidian_rect,2,0,2,0,1,
6625c9127eee9a3639d7e1af,TCN,2024-06-24_17h39.13.817,LearnStrategy,2023.2.3,Win32,12.00480192,9,2,4,,,,,,,,1,05,,,,,,,,,,,1,4.94,1,,,,,,-0.362037037,-0.242592593,1,0,0,4.9403,Andesite_rect,3,0,3,0,1,
6625c9127eee9a3639d7e1af,TCN,2024-06-24_17h39.13.817,LearnStrategy,2023.2.3,Win32,12.00480192,9,2,5,,,,,,,,5,14,,,,,,,,,,,5,1.102,1,,,,,,-0.423148148,-0.412037037,1,0,0,1.1023,Obsidian_rect,4,0,4,0,1,
6625c9127eee9a3639d7e1af,TCN,2024-06-24_17h39.13.817,LearnStrategy,2023.2.3,Win32,12.00480192,9,2,6,,,,,,,,3,12,,,,,,,,,,,3,1.383,1,,,,,,0.142592593,-0.27037037,1,0,0,1.3833,Diorite_rect,5,0,5,0,1,
6625c9127eee9a3639d7e1af,TCN,2024-06-24_17h39.13.817,LearnStrategy,2023.2.3,Win32,12.00480192,9,2,7,,,,,,,,2,01,,,,,,,,,,,2,1.07,1,,,,,,-0.092592593,-0.235185185,1,0,0,1.0695,Basalt_rect,6,0,6,0,1,
6625c9127eee9a3639d7e1af,TCN,2024-06-24_17h39.13.817,LearnStrategy,2023.2.3,Win32,12.00480192,9,2,8,,,,,,,,2,05,,,,,,,,,,,2,2.875,1,,,,,,-0.122222222,-0.24537037,1,0,0,2.8751,Basalt_rect,7,0,7,0,1,
6625c9127eee9a3639d7e1af,TCN,2024-06-24_17h39.13.817,LearnStrategy,2023.2.3,Win32,12.00480192,9,2,9,,,,,,,,4,01,,,,,,,,,,,4,1.595,1,,,,,,0.397222222,-0.25462963,1,0,0,1.5947,Gabbro_rect,8,0,8,0,1,
6625c9127eee9a3639d7e1af,TCN,2024-06-24_17h39.13.817,LearnStrategy,2023.2.3,Win32,12.00480192,9,2,10,,,,,,,,8,16,,,,,,,,,,,8,1.077,1,,,,,,0.400925926,-0.386111111,1,0,0,1.0772,Pumice_rect,9,0,9,0,1,
6625c9127eee9a3639d7e1af,TCN,2024-06-24_17h39.13.817,LearnStrategy,2023.2.3,Win32,12.00480192,9,2,11,,,,,,,,8,14,,,,,,,,,,,8,1.372,1,,,,,,0.406481481,-0.397222222,1,0,0,1.3722,Pumice_rect,10,0,10,0,1,
6625c9127eee9a3639d7e1af,TCN,2024-06-24_17h39.13.817,LearnStrategy,2023.2.3,Win32,12.00480192,9,2,12,,,,,,,,6,15,,,,,,,,,,,6,2.156,1,,,,,,-0.147222222,-0.40462963,1,0,0,2.1562,Pegmatite_rect,11,0,11,0,1,
6625c9127eee9a3639d7e1af,TCN,2024-06-24_17h39.13.817,LearnStrategy,2023.2.3,Win32,12.00480192,9,2,13,,,,,,,,4,13,,,,,,,,,,,4,5.862,1,,,,,,0.410185185,-0.259259259,1,0,0,5.862,Gabbro_rect,12,0,12,0,1,
6625c9127eee9a3639d7e1af,TCN,2024-06-24_17h39.13.817,LearnStrategy,2023.2.3,Win32,12.00480192,9,2,14,,,,,,,,3,09,,,,,,,,,,,3,2.352,1,,,,,,0.101851852,-0.240740741,1,0,0,2.3525,Diorite_rect,13,0,13,0,1,
6625c9127eee9a3639d7e1af,TCN,2024-06-24_17h39.13.817,LearnStrategy,2023.2.3,Win32,12.00480192,9,2,15,,,,,,,,6,11,,,,,,,,,,,6,2.048,1,,,,,,-0.141666667,-0.39537037,1,0,0,2.0477,Pegmatite_rect,14,0,14,0,1,
6625c9127eee9a3639d7e1af,TCN,2024-06-24_17h39.13.817,LearnStrategy,2023.2.3,Win32,12.00480192,9,2,16,,,,,,,,7,02,,,,,,,,,,,7,2.962,1,,,,,,0.112037037,-0.401851852,1,0,0,2.9624,Peridotite_rect,15,0,15,0,1,
6625c9127eee9a3639d7e1af,TCN,2024-06-24_17h39.13.817,LearnStrategy,2023.2.3,Win32,12.00480192,,,,,,,,,,,,,,,,,,,,,,,,,,,,,,,,,,,,,,,,,,,1
6625c9127eee9a3639d7e1af,TCN,2024-06-24_17h39.13.817,LearnStrategy,2023.2.3,Win32,12.00480192,,,,,,,,,,,,,,,,,,,,,,,,,,,,,,,,,,,,,,,,,,,
6625c9127eee9a3639d7e1af,TCN,2024-06-24_17h39.13.817,LearnStrategy,2023.2.3,Win32,12.00480192,,,,,,,,,,,7,16,1,1,,,,,,,,,,,,,,,,,,,,,,,,,,,,,
6625c9127eee9a3639d7e1af,TCN,2024-06-24_17h39.13.817,LearnStrategy,2023.2.3,Win32,12.00480192,,,,,,,,,,,8,03,1,2,,,,,,,,,,,,,,,,,,,,,,,,,,,,,
6625c9127eee9a3639d7e1af,TCN,2024-06-24_17h39.13.817,LearnStrategy,2023.2.3,Win32,12.00480192,,,,,,,,,,,1,07,1,3,,,,,,,,,,,,,,,,,,,,,,,,,,,,,
6625c9127eee9a3639d7e1af,TCN,2024-06-24_17h39.13.817,LearnStrategy,2023.2.3,Win32,12.00480192,,,,,,,,,,,6,05,1,4,,,,,,,,,,,,,,,,,,,,,,,,,,,,,
6625c9127eee9a3639d7e1af,TCN,2024-06-24_17h39.13.817,LearnStrategy,2023.2.3,Win32,12.00480192,,,,,,,,,,,4,10,1,5,,,,,,,,,,,,,,,,,,,,,,,,,,,,,
6625c9127eee9a3639d7e1af,TCN,2024-06-24_17h39.13.817,LearnStrategy,2023.2.3,Win32,12.00480192,,,,,,,,,,,4,09,1,6,,,,,,,,,,,,,,,,,,,,,,,,,,,,,
6625c9127eee9a3639d7e1af,TCN,2024-06-24_17h39.13.817,LearnStrategy,2023.2.3,Win32,12.00480192,,,,,,,,,,,6,09,1,7,,,,,,,,,,,,,,,,,,,,,,,,,,,,,
6625c9127eee9a3639d7e1af,TCN,2024-06-24_17h39.13.817,LearnStrategy,2023.2.3,Win32,12.00480192,,,,,,,,,,,3,13,1,8,,,,,,,,,,,,,,,,,,,,,,,,,,,,,
6625c9127eee9a3639d7e1af,TCN,2024-06-24_17h39.13.817,LearnStrategy,2023.2.3,Win32,12.00480192,,,,,,,,,,,2,04,2,1,,,,,,,,,,,,,,,,,,,,,,,,,,,,,
6625c9127eee9a3639d7e1af,TCN,2024-06-24_17h39.13.817,LearnStrategy,2023.2.3,Win32,12.00480192,,,,,,,,,,,7,05,2,2,,,,,,,,,,,,,,,,,,,,,,,,,,,,,
6625c9127eee9a3639d7e1af,TCN,2024-06-24_17h39.13.817,LearnStrategy,2023.2.3,Win32,12.00480192,,,,,,,,,,,5,12,2,3,,,,,,,,,,,,,,,,,,,,,,,,,,,,,
6625c9127eee9a3639d7e1af,TCN,2024-06-24_17h39.13.817,LearnStrategy,2023.2.3,Win32,12.00480192,,,,,,,,,,,2,14,2,4,,,,,,,,,,,,,,,,,,,,,,,,,,,,,
6625c9127eee9a3639d7e1af,TCN,2024-06-24_17h39.13.817,LearnStrategy,2023.2.3,Win32,12.00480192,,,,,,,,,,,3,06,2,5,,,,,,,,,,,,,,,,,,,,,,,,,,,,,
6625c9127eee9a3639d7e1af,TCN,2024-06-24_17h39.13.817,LearnStrategy,2023.2.3,Win32,12.00480192,,,,,,,,,,,8,05,2,6,,,,,,,,,,,,,,,,,,,,,,,,,,,,,
6625c9127eee9a3639d7e1af,TCN,2024-06-24_17h39.13.817,LearnStrategy,2023.2.3,Win32,12.00480192,,,,,,,,,,,8,04,2,7,,,,,,,,,,,,,,,,,,,,,,,,,,,,,
6625c9127eee9a3639d7e1af,TCN,2024-06-24_17h39.13.817,LearnStrategy,2023.2.3,Win32,12.00480192,,,,,,,,,,,8,15,2,8,,,,,,,,,,,,,,,,,,,,,,,,,,,,,
6625c9127eee9a3639d7e1af,TCN,2024-06-24_17h39.13.817,LearnStrategy,2023.2.3,Win32,12.00480192,,,,,,,,,,,8,02,3,1,,,,,,,,,,,,,,,,,,,,,,,,,,,,,
6625c9127eee9a3639d7e1af,TCN,2024-06-24_17h39.13.817,LearnStrategy,2023.2.3,Win32,12.00480192,,,,,,,,,,,3,11,3,2,,,,,,,,,,,,,,,,,,,,,,,,,,,,,
6625c9127eee9a3639d7e1af,TCN,2024-06-24_17h39.13.817,LearnStrategy,2023.2.3,Win32,12.00480192,,,,,,,,,,,4,08,3,3,,,,,,,,,,,,,,,,,,,,,,,,,,,,,
6625c9127eee9a3639d7e1af,TCN,2024-06-24_17h39.13.817,LearnStrategy,2023.2.3,Win32,12.00480192,,,,,,,,,,,6,08,3,4,,,,,,,,,,,,,,,,,,,,,,,,,,,,,
6625c9127eee9a3639d7e1af,TCN,2024-06-24_17h39.13.817,LearnStrategy,2023.2.3,Win32,12.00480192,,,,,,,,,,,4,03,3,5,,,,,,,,,,,,,,,,,,,,,,,,,,,,,
6625c9127eee9a3639d7e1af,TCN,2024-06-24_17h39.13.817,LearnStrategy,2023.2.3,Win32,12.00480192,,,,,,,,,,,6,13,3,6,,,,,,,,,,,,,,,,,,,,,,,,,,,,,
6625c9127eee9a3639d7e1af,TCN,2024-06-24_17h39.13.817,LearnStrategy,2023.2.3,Win32,12.00480192,,,,,,,,,,,6,06,3,7,,,,,,,,,,,,,,,,,,,,,,,,,,,,,
6625c9127eee9a3639d7e1af,TCN,2024-06-24_17h39.13.817,LearnStrategy,2023.2.3,Win32,12.00480192,,,,,,,,,,,1,09,3,8,,,,,,,,,,,,,,,,,,,,,,,,,,,,,
6625c9127eee9a3639d7e1af,TCN,2024-06-24_17h39.13.817,LearnStrategy,2023.2.3,Win32,12.00480192,,,,,,,,,,,5,10,4,1,,,,,,,,,,,,,,,,,,,,,,,,,,,,,
6625c9127eee9a3639d7e1af,TCN,2024-06-24_17h39.13.817,LearnStrategy,2023.2.3,Win32,12.00480192,,,,,,,,,,,3,02,4,2,,,,,,,,,,,,,,,,,,,,,,,,,,,,,
6625c9127eee9a3639d7e1af,TCN,2024-06-24_17h39.13.817,LearnStrategy,2023.2.3,Win32,12.00480192,,,,,,,,,,,3,10,4,3,,,,,,,,,,,,,,,,,,,,,,,,,,,,,
6625c9127eee9a3639d7e1af,TCN,2024-06-24_17h39.13.817,LearnStrategy,2023.2.3,Win32,12.00480192,,,,,,,,,,,3,07,4,4,,,,,,,,,,,,,,,,,,,,,,,,,,,,,
6625c9127eee9a3639d7e1af,TCN,2024-06-24_17h39.13.817,LearnStrategy,2023.2.3,Win32,12.00480192,,,,,,,,,,,1,11,4,5,,,,,,,,,,,,,,,,,,,,,,,,,,,,,
6625c9127eee9a3639d7e1af,TCN,2024-06-24_17h39.13.817,LearnStrategy,2023.2.3,Win32,12.00480192,,,,,,,,,,,7,07,4,6,,,,,,,,,,,,,,,,,,,,,,,,,,,,,
6625c9127eee9a3639d7e1af,TCN,2024-06-24_17h39.13.817,LearnStrategy,2023.2.3,Win32,12.00480192,,,,,,,,,,,6,07,4,7,,,,,,,,,,,,,,,,,,,,,,,,,,,,,
6625c9127eee9a3639d7e1af,TCN,2024-06-24_17h39.13.817,LearnStrategy,2023.2.3,Win32,12.00480192,,,,,,,,,,,2,10,4,8,,,,,,,,,,,,,,,,,,,,,,,,,,,,,
6625c9127eee9a3639d7e1af,TCN,2024-06-24_17h39.13.817,LearnStrategy,2023.2.3,Win32,12.00480192,,,,,,,,,,,5,06,5,1,,,,,,,,,,,,,,,,,,,,,,,,,,,,,
6625c9127eee9a3639d7e1af,TCN,2024-06-24_17h39.13.817,LearnStrategy,2023.2.3,Win32,12.00480192,,,,,,,,,,,2,02,5,2,,,,,,,,,,,,,,,,,,,,,,,,,,,,,
6625c9127eee9a3639d7e1af,TCN,2024-06-24_17h39.13.817,LearnStrategy,2023.2.3,Win32,12.00480192,,,,,,,,,,,5,16,5,3,,,,,,,,,,,,,,,,,,,,,,,,,,,,,
6625c9127eee9a3639d7e1af,TCN,2024-06-24_17h39.13.817,LearnStrategy,2023.2.3,Win32,12.00480192,,,,,,,,,,,5,07,5,4,,,,,,,,,,,,,,,,,,,,,,,,,,,,,
6625c9127eee9a3639d7e1af,TCN,2024-06-24_17h39.13.817,LearnStrategy,2023.2.3,Win32,12.00480192,,,,,,,,,,,2,08,5,5,,,,,,,,,,,,,,,,,,,,,,,,,,,,,
6625c9127eee9a3639d7e1af,TCN,2024-06-24_17h39.13.817,LearnStrategy,2023.2.3,Win32,12.00480192,,,,,,,,,,,5,05,5,6,,,,,,,,,,,,,,,,,,,,,,,,,,,,,
6625c9127eee9a3639d7e1af,TCN,2024-06-24_17h39.13.817,LearnStrategy,2023.2.3,Win32,12.00480192,,,,,,,,,,,8,10,5,7,,,,,,,,,,,,,,,,,,,,,,,,,,,,,
6625c9127eee9a3639d7e1af,TCN,2024-06-24_17h39.13.817,LearnStrategy,2023.2.3,Win32,12.00480192,,,,,,,,,,,7,14,5,8,,,,,,,,,,,,,,,,,,,,,,,,,,,,,
6625c9127eee9a3639d7e1af,TCN,2024-06-24_17h39.13.817,LearnStrategy,2023.2.3,Win32,12.00480192,,,,,,,,,,,1,01,6,1,,,,,,,,,,,,,,,,,,,,,,,,,,,,,
6625c9127eee9a3639d7e1af,TCN,2024-06-24_17h39.13.817,LearnStrategy,2023.2.3,Win32,12.00480192,,,,,,,,,,,7,04,6,2,,,,,,,,,,,,,,,,,,,,,,,,,,,,,
6625c9127eee9a3639d7e1af,TCN,2024-06-24_17h39.13.817,LearnStrategy,2023.2.3,Win32,12.00480192,,,,,,,,,,,7,12,6,3,,,,,,,,,,,,,,,,,,,,,,,,,,,,,
6625c9127eee9a3639d7e1af,TCN,2024-06-24_17h39.13.817,LearnStrategy,2023.2.3,Win32,12.00480192,,,,,,,,,,,4,14,6,4,,,,,,,,,,,,,,,,,,,,,,,,,,,,,
6625c9127eee9a3639d7e1af,TCN,2024-06-24_17h39.13.817,LearnStrategy,2023.2.3,Win32,12.00480192,,,,,,,,,,,4,11,6,5,,,,,,,,,,,,,,,,,,,,,,,,,,,,,
6625c9127eee9a3639d7e1af,TCN,2024-06-24_17h39.13.817,LearnStrategy,2023.2.3,Win32,12.00480192,,,,,,,,,,,1,04,6,6,,,,,,,,,,,,,,,,,,,,,,,,,,,,,
6625c9127eee9a3639d7e1af,TCN,2024-06-24_17h39.13.817,LearnStrategy,2023.2.3,Win32,12.00480192,,,,,,,,,,,2,11,6,7,,,,,,,,,,,,,,,,,,,,,,,,,,,,,
6625c9127eee9a3639d7e1af,TCN,2024-06-24_17h39.13.817,LearnStrategy,2023.2.3,Win32,12.00480192,,,,,,,,,,,1,14,6,8,,,,,,,,,,,,,,,,,,,,,,,,,,,,,