participant,condition,date,expName,psychopyVersion,OS,frameRate,block,phase,trial,learn_mouse.x,learn_mouse.y,learn_mouse.leftButton,learn_mouse.midButton,learn_mouse.rightButton,learn_mouse.time,learn_mouse.clicked_name,cat,token,row,col,t_select,cat_mouse_l.x,cat_mouse_l.y,cat_mouse_l.leftButton,cat_mouse_l.midButton,cat_mouse_l.rightButton,cat_mouse_l.time,cat_mouse_l.clicked_name,resp,t_resp,corr,train_trials.thisRepN,train_trials.thisTrialN,train_trials.thisN,train_trials.thisIndex,train_trials.ran,cat_mouse_t.x,cat_mouse_t.y,cat_mouse_t.leftButton,cat_mouse_t.midButton,cat_mouse_t.rightButton,cat_mouse_t.time,cat_mouse_t.clicked_name,test_trials.thisRepN,test_trials.thisTrialN,test_trials.thisN,test_trials.thisIndex,test_trials.ran,Bonus
6629f95a14b6006e6a4b0aef,SCN,2024-06-12_13h39.14.831,LearnStrategy,2023.2.3,Win32,59.88023952,,,,,,,,,,,,,,,,,,,,,,,,,,,,,,,,,,,,,,,,,,,
6629f95a14b6006e6a4b0aef,SCN,2024-06-12_13h39.14.831,LearnStrategy,2023.2.3,Win32,59.88023952,1,1,1,0.070370356,0.088888875,1,0,0,5.7459,Obsidian_09,5,09,4,5,5.746,-0.451851845,-0.415740755,1,0,0,8.4265,Obsidian_rect,5,8.426,1,0,0,0,0,1,,,,,,,,,,,,,
6629f95a14b6006e6a4b0aef,SCN,2024-06-12_13h39.14.831,LearnStrategy,2023.2.3,Win32,59.88023952,1,1,2,0.404629601,0.092592593,1,0,0,11.9091,Pumice_16,8,16,4,7,11.909,-0.111111111,-0.253703718,1,0,0,8.9102,Basalt_rect,2,8.91,0,1,0,1,0,1,,,,,,,,,,,,,
6629f95a14b6006e6a4b0aef,SCN,2024-06-12_13h39.14.831,LearnStrategy,2023.2.3,Win32,59.88023952,1,1,3,0.568518603,-0.415740755,1,0,0,8.8639,Obsidian_10,5,10,1,8,8.864,0.351851852,-0.240740741,1,0,0,8.691,Gabbro_rect,4,8.691,0,2,0,2,0,1,,,,,,,,,,,,,
6629f95a14b6006e6a4b0aef,SCN,2024-06-12_13h39.14.831,LearnStrategy,2023.2.3,Win32,59.88023952,1,1,4,-0.395370377,-0.237963005,1,0,0,15.9736,Basalt_02,2,02,2,2,15.974,-0.115740741,-0.25462963,1,0,0,4.5296,Basalt_rect,2,4.53,1,3,0,3,0,1,,,,,,,,,,,,,
6629f95a14b6006e6a4b0aef,SCN,2024-06-12_13h39.14.831,LearnStrategy,2023.2.3,Win32,59.88023952,1,1,5,-0.057407379,0.217592593,1,0,0,4.1759,Pegmatite_09,6,09,5,4,4.176,0.123148176,-0.24537037,1,0,0,5.0365,Diorite_rect,3,5.037,0,4,0,4,0,1,,,,,,,,,,,,,
6629f95a14b6006e6a4b0aef,SCN,2024-06-12_13h39.14.831,LearnStrategy,2023.2.3,Win32,59.88023952,1,1,6,0.241666653,0.2574074,1,0,0,7.9366,Diorite_13,3,13,5,6,7.937,0.113888917,-0.393518519,1,0,0,11.8981,Peridotite_rect,7,11.898,0,5,0,5,0,1,,,,,,,,,,,,,
6629f95a14b6006e6a4b0aef,SCN,2024-06-12_13h39.14.831,LearnStrategy,2023.2.3,Win32,59.88023952,1,1,7,-0.400000007,0.092592593,1,0,0,7.3705,Peridotite_10,7,10,4,2,7.371,0.062962991,-0.395370413,1,0,0,6.4553,Peridotite_rect,7,6.455,1,6,0,6,0,1,,,,,,,,,,,,,
6629f95a14b6006e6a4b0aef,SCN,2024-06-12_13h39.14.831,LearnStrategy,2023.2.3,Win32,59.88023952,1,1,8,-0.050000014,0.38055555,1,0,0,6.5157,Diorite_09,3,09,6,4,6.516,0.131481524,-0.239814829,1,0,0,8.5325,Diorite_rect,3,8.532,1,7,0,7,0,1,,,,,,,,,,,,,
6629f95a14b6006e6a4b0aef,SCN,2024-06-12_13h39.14.831,LearnStrategy,2023.2.3,Win32,59.88023952,1,1,9,-0.3824074,-0.433333362,1,0,0,6.0013,Obsidian_07,5,07,1,2,6.001,-0.324074074,-0.238888917,1,0,0,3.0516,Andesite_rect,1,3.052,0,8,0,8,0,1,,,,,,,,,,,,,
6629f95a14b6006e6a4b0aef,SCN,2024-06-12_13h39.14.831,LearnStrategy,2023.2.3,Win32,59.88023952,1,1,10,-0.39907406,0.396296298,1,0,0,7.7469,Pegmatite_08,6,08,6,2,7.747,-0.427777785,-0.390740783,1,0,0,3.2528,Obsidian_rect,5,3.253,0,9,0,9,0,1,,,,,,,,,,,,,
6629f95a14b6006e6a4b0aef,SCN,2024-06-12_13h39.14.831,LearnStrategy,2023.2.3,Win32,59.88023952,1,1,11,0.531481566,0.267592589,1,0,0,2.8201,Pumice_10,8,10,5,8,2.82,0.365740741,-0.415740755,1,0,0,1.7,Pumice_rect,8,1.7,1,10,0,10,0,1,,,,,,,,,,,,,
6629f95a14b6006e6a4b0aef,SCN,2024-06-12_13h39.14.831,LearnStrategy,2023.2.3,Win32,59.88023952,1,1,12,0.378703788,-0.22129631,1,0,0,6.4204,Gabbro_03,4,03,2,7,6.42,0.102777764,-0.250925912,1,0,0,10.5106,Diorite_rect,3,10.511,0,11,0,11,0,1,,,,,,,,,,,,,
6629f95a14b6006e6a4b0aef,SCN,2024-06-12_13h39.14.831,LearnStrategy,2023.2.3,Win32,59.88023952,1,1,13,0.390740712,-0.398148148,1,0,0,7.5955,Pumice_03,8,03,1,7,7.596,-0.087962963,-0.400000042,1,0,0,3.6913,Pegmatite_rect,6,3.691,0,12,0,12,0,1,,,,,,,,,,,,,
6629f95a14b6006e6a4b0aef,SCN,2024-06-12_13h39.14.831,LearnStrategy,2023.2.3,Win32,59.88023952,1,1,14,0.083333333,-0.097222222,1,0,0,6.9226,Basalt_14,2,14,3,5,6.923,-0.112962935,-0.411111125,1,0,0,9.1028,Pegmatite_rect,6,9.103,0,13,0,13,0,1,,,,,,,,,,,,,
6629f95a14b6006e6a4b0aef,SCN,2024-06-12_13h39.14.831,LearnStrategy,2023.2.3,Win32,59.88023952,1,1,15,-0.23055557,0.090740734,1,0,0,6.9215,Basalt_10,2,10,4,3,6.922,-0.419444437,-0.383333347,1,0,0,3.2965,Obsidian_rect,5,3.297,0,14,0,14,0,1,,,,,,,,,,,,,
6629f95a14b6006e6a4b0aef,SCN,2024-06-12_13h39.14.831,LearnStrategy,2023.2.3,Win32,59.88023952,1,1,16,-0.351851852,0.247222212,1,0,0,7.8458,Pegmatite_05,6,05,5,2,7.846,-0.091666681,-0.400000042,1,0,0,1.6684,Pegmatite_rect,6,1.668,1,15,0,15,0,1,,,,,,,,,,,,,
6629f95a14b6006e6a4b0aef,SCN,2024-06-12_13h39.14.831,LearnStrategy,2023.2.3,Win32,59.88023952,1,2,1,,,,,,,,1,14,,,,,,,,,,,6,11.037,0,,,,,,-0.066666638,-0.410185213,1,0,0,11.0367,Pegmatite_rect,0,0,0,0,1,
6629f95a14b6006e6a4b0aef,SCN,2024-06-12_13h39.14.831,LearnStrategy,2023.2.3,Win32,59.88023952,1,2,2,,,,,,,,1,02,,,,,,,,,,,2,6.7,0,,,,,,-0.080555527,-0.246296282,1,0,0,6.7003,Basalt_rect,1,0,1,0,1,
6629f95a14b6006e6a4b0aef,SCN,2024-06-12_13h39.14.831,LearnStrategy,2023.2.3,Win32,59.88023952,1,2,3,,,,,,,,7,04,,,,,,,,,,,7,3.969,1,,,,,,0.065740727,-0.389814801,1,0,0,3.969,Peridotite_rect,2,0,2,0,1,
6629f95a14b6006e6a4b0aef,SCN,2024-06-12_13h39.14.831,LearnStrategy,2023.2.3,Win32,59.88023952,1,2,4,,,,,,,,6,06,,,,,,,,,,,5,7.202,0,,,,,,-0.318518497,-0.405555584,1,0,0,7.2021,Obsidian_rect,3,0,3,0,1,
6629f95a14b6006e6a4b0aef,SCN,2024-06-12_13h39.14.831,LearnStrategy,2023.2.3,Win32,59.88023952,1,2,5,,,,,,,,3,07,,,,,,,,,,,6,2.393,0,,,,,,-0.164814772,-0.40370369,1,0,0,2.3926,Pegmatite_rect,4,0,4,0,1,
6629f95a14b6006e6a4b0aef,SCN,2024-06-12_13h39.14.831,LearnStrategy,2023.2.3,Win32,59.88023952,1,2,6,,,,,,,,2,01,,,,,,,,,,,4,4.373,0,,,,,,0.313888974,-0.257407436,1,0,0,4.3731,Gabbro_rect,5,0,5,0,1,
6629f95a14b6006e6a4b0aef,SCN,2024-06-12_13h39.14.831,LearnStrategy,2023.2.3,Win32,59.88023952,1,2,7,,,,,,,,5,14,,,,,,,,,,,5,5.551,1,,,,,,-0.39444443,-0.39444443,1,0,0,5.5512,Obsidian_rect,6,0,6,0,1,
6629f95a14b6006e6a4b0aef,SCN,2024-06-12_13h39.14.831,LearnStrategy,2023.2.3,Win32,59.88023952,1,2,8,,,,,,,,8,06,,,,,,,,,,,8,4.645,1,,,,,,0.366666723,-0.390740783,1,0,0,4.6452,Pumice_rect,7,0,7,0,1,
6629f95a14b6006e6a4b0aef,SCN,2024-06-12_13h39.14.831,LearnStrategy,2023.2.3,Win32,59.88023952,1,2,9,,,,,,,,4,09,,,,,,,,,,,5,2.295,0,,,,,,-0.364814794,-0.39907406,1,0,0,2.2945,Obsidian_rect,8,0,8,0,1,
6629f95a14b6006e6a4b0aef,SCN,2024-06-12_13h39.14.831,LearnStrategy,2023.2.3,Win32,59.88023952,1,2,10,,,,,,,,7,13,,,,,,,,,,,7,1.891,1,,,,,,0.083333333,-0.398148148,1,0,0,1.8912,Peridotite_rect,9,0,9,0,1,
6629f95a14b6006e6a4b0aef,SCN,2024-06-12_13h39.14.831,LearnStrategy,2023.2.3,Win32,59.88023952,1,2,11,,,,,,,,4,12,,,,,,,,,,,4,1.768,1,,,,,,0.338888945,-0.240740741,1,0,0,1.7684,Gabbro_rect,10,0,10,0,1,
6629f95a14b6006e6a4b0aef,SCN,2024-06-12_13h39.14.831,LearnStrategy,2023.2.3,Win32,59.88023952,1,2,12,,,,,,,,2,05,,,,,,,,,,,2,4.921,1,,,,,,-0.082407422,-0.236111111,1,0,0,4.9206,Basalt_rect,11,0,11,0,1,
6629f95a14b6006e6a4b0aef,SCN,2024-06-12_13h39.14.831,LearnStrategy,2023.2.3,Win32,59.88023952,1,2,13,,,,,,,,6,11,,,,,,,,,,,6,2.193,1,,,,,,-0.12037037,-0.39444443,1,0,0,2.193,Pegmatite_rect,12,0,12,0,1,
6629f95a14b6006e6a4b0aef,SCN,2024-06-12_13h39.14.831,LearnStrategy,2023.2.3,Win32,59.88023952,1,2,14,,,,,,,,3,16,,,,,,,,,,,6,1.359,0,,,,,,-0.12037037,-0.39444443,1,0,0,1.359,Pegmatite_rect,13,0,13,0,1,
6629f95a14b6006e6a4b0aef,SCN,2024-06-12_13h39.14.831,LearnStrategy,2023.2.3,Win32,59.88023952,1,2,15,,,,,,,,5,12,,,,,,,,,,,5,1.592,1,,,,,,-0.350925905,-0.402777778,1,0,0,1.5921,Obsidian_rect,14,0,14,0,1,
6629f95a14b6006e6a4b0aef,SCN,2024-06-12_13h39.14.831,LearnStrategy,2023.2.3,Win32,59.88023952,1,2,16,,,,,,,,8,08,,,,,,,,,,,8,5.373,1,,,,,,0.348148205,-0.380555541,1,0,0,5.3727,Pumice_rect,15,0,15,0,1,
6629f95a14b6006e6a4b0aef,SCN,2024-06-12_13h39.14.831,LearnStrategy,2023.2.3,Win32,59.88023952,2,1,1,0.239814829,-0.389814801,1,0,0,13.3533,Pegmatite_03,6,03,1,6,13.353,-0.076851809,-0.382407436,1,0,0,1.9145,Pegmatite_rect,6,1.915,1,0,0,0,0,1,,,,,,,,,,,,,
6629f95a14b6006e6a4b0aef,SCN,2024-06-12_13h39.14.831,LearnStrategy,2023.2.3,Win32,59.88023952,2,1,2,-0.388888889,-0.384259259,1,0,0,7.0303,Obsidian_07,5,07,1,2,7.03,-0.341666645,-0.25462963,0,0,1,3.0677,Andesite_rect,1,3.068,0,1,0,1,0,1,,,,,,,,,,,,,
6629f95a14b6006e6a4b0aef,SCN,2024-06-12_13h39.14.831,LearnStrategy,2023.2.3,Win32,59.88023952,2,1,3,-0.075925898,-0.069444444,1,0,0,4.6033,Obsidian_08,5,08,3,4,4.603,-0.36296297,-0.397222236,1,0,0,1.9982,Obsidian_rect,5,1.998,1,2,0,2,0,1,,,,,,,,,,,,,
6629f95a14b6006e6a4b0aef,SCN,2024-06-12_13h39.14.831,LearnStrategy,2023.2.3,Win32,59.88023952,2,1,4,0.059259273,-0.398148148,1,0,0,6.5856,Diorite_15,3,15,1,5,6.586,-0.079629616,-0.40370369,1,0,0,4.9277,Pegmatite_rect,6,4.928,0,3,0,3,0,1,,,,,,,,,,,,,
6629f95a14b6006e6a4b0aef,SCN,2024-06-12_13h39.14.831,LearnStrategy,2023.2.3,Win32,59.88023952,2,1,5,0.071296339,-0.371296282,1,0,0,1.6268,Diorite_15,3,15,1,5,1.627,0.130555541,-0.235185199,1,0,0,1.2535,Diorite_rect,3,1.253,1,4,0,4,0,1,,,,,,,,,,,,,
6629f95a14b6006e6a4b0aef,SCN,2024-06-12_13h39.14.831,LearnStrategy,2023.2.3,Win32,59.88023952,2,1,6,-0.049074032,0.236111111,1,0,0,1.929,Pegmatite_09,6,09,5,4,1.929,0.082407422,-0.388888889,1,0,0,3.8909,Peridotite_rect,7,3.891,0,5,0,5,0,1,,,,,,,,,,,,,
6629f95a14b6006e6a4b0aef,SCN,2024-06-12_13h39.14.831,LearnStrategy,2023.2.3,Win32,59.88023952,2,1,7,-0.3675926,0.394444439,1,0,0,6.909,Pegmatite_08,6,08,6,2,6.909,-0.121296282,-0.392592607,1,0,0,2.1121,Pegmatite_rect,6,2.112,1,6,0,6,0,1,,,,,,,,,,,,,
6629f95a14b6006e6a4b0aef,SCN,2024-06-12_13h39.14.831,LearnStrategy,2023.2.3,Win32,59.88023952,2,1,8,0.10092594,0.38148148,1,0,0,2.9549,Andesite_07,1,07,6,5,2.955,-0.10092594,-0.386111153,1,0,0,2.2895,Pegmatite_rect,6,2.289,0,7,0,7,0,1,,,,,,,,,,,,,
6629f95a14b6006e6a4b0aef,SCN,2024-06-12_13h39.14.831,LearnStrategy,2023.2.3,Win32,59.88023952,2,1,9,0.212962963,0.429629631,1,0,0,4.8541,Diorite_02,3,02,6,6,4.854,-0.337037016,-0.233333376,1,0,0,2.4401,Andesite_rect,1,2.44,0,8,0,8,0,1,,,,,,,,,,,,,
6629f95a14b6006e6a4b0aef,SCN,2024-06-12_13h39.14.831,LearnStrategy,2023.2.3,Win32,59.88023952,2,1,10,-0.552777785,-0.095370399,1,0,0,7.1408,Diorite_06,3,06,3,1,7.141,-0.331481474,-0.231481481,1,0,0,2.1262,Andesite_rect,1,2.126,0,9,0,9,0,1,,,,,,,,,,,,,
6629f95a14b6006e6a4b0aef,SCN,2024-06-12_13h39.14.831,LearnStrategy,2023.2.3,Win32,59.88023952,2,1,11,-0.534259266,0.250925929,1,0,0,11.7633,Peridotite_16,7,16,5,1,11.763,0.124074088,-0.387962977,1,0,0,2.164,Peridotite_rect,7,2.164,1,10,0,10,0,1,,,,,,,,,,,,,
6629f95a14b6006e6a4b0aef,SCN,2024-06-12_13h39.14.831,LearnStrategy,2023.2.3,Win32,59.88023952,2,1,12,0.112963005,-0.121296282,1,0,0,2.2144,Basalt_14,2,14,3,5,2.214,-0.080555527,-0.249074088,1,0,0,5.4062,Basalt_rect,2,5.406,1,11,0,11,0,1,,,,,,,,,,,,,
6629f95a14b6006e6a4b0aef,SCN,2024-06-12_13h39.14.831,LearnStrategy,2023.2.3,Win32,59.88023952,2,1,13,0.538888861,0.375925921,1,0,0,2.9561,Gabbro_01,4,01,6,8,2.956,-0.326851845,-0.25,1,0,0,2.4255,Andesite_rect,1,2.426,0,12,0,12,0,1,,,,,,,,,,,,,
6629f95a14b6006e6a4b0aef,SCN,2024-06-12_13h39.14.831,LearnStrategy,2023.2.3,Win32,59.88023952,2,1,14,-0.37962963,-0.24537037,1,0,0,4.208,Basalt_02,2,02,2,2,4.208,-0.101851852,-0.234259288,1,0,0,1.5929,Basalt_rect,2,1.593,1,13,0,13,0,1,,,,,,,,,,,,,
6629f95a14b6006e6a4b0aef,SCN,2024-06-12_13h39.14.831,LearnStrategy,2023.2.3,Win32,59.88023952,2,1,15,0.556481538,0.072222215,1,0,0,4.9428,Diorite_10,3,10,4,8,4.943,-0.113888847,-0.401851866,1,0,0,2.0169,Pegmatite_rect,6,2.017,0,14,0,14,0,1,,,,,,,,,,,,,
6629f95a14b6006e6a4b0aef,SCN,2024-06-12_13h39.14.831,LearnStrategy,2023.2.3,Win32,59.88023952,2,1,16,-0.247222194,0.364814811,1,0,0,5.4049,Pumice_14,8,14,6,3,5.405,0.412963019,-0.398148148,1,0,0,1.4899,Pumice_rect,8,1.49,1,15,0,15,0,1,,,,,,,,,,,,,
6629f95a14b6006e6a4b0aef,SCN,2024-06-12_13h39.14.831,LearnStrategy,2023.2.3,Win32,59.88023952,2,2,1,,,,,,,,1,16,,,,,,,,,,,3,8.967,0,,,,,,0.087962963,-0.268518519,1,0,0,8.9671,Diorite_rect,0,0,0,0,1,
6629f95a14b6006e6a4b0aef,SCN,2024-06-12_13h39.14.831,LearnStrategy,2023.2.3,Win32,59.88023952,2,2,2,,,,,,,,4,10,,,,,,,,,,,6,4.751,0,,,,,,-0.081481439,-0.393518519,1,0,0,4.751,Pegmatite_rect,1,0,1,0,1,
6629f95a14b6006e6a4b0aef,SCN,2024-06-12_13h39.14.831,LearnStrategy,2023.2.3,Win32,59.88023952,2,2,3,,,,,,,,3,12,,,,,,,,,,,6,1.716,0,,,,,,-0.081481439,-0.393518519,1,0,0,1.7162,Pegmatite_rect,2,0,2,0,1,
6629f95a14b6006e6a4b0aef,SCN,2024-06-12_13h39.14.831,LearnStrategy,2023.2.3,Win32,59.88023952,2,2,4,,,,,,,,2,12,,,,,,,,,,,2,1.94,1,,,,,,-0.063888903,-0.250925912,1,0,0,1.9396,Basalt_rect,3,0,3,0,1,
6629f95a14b6006e6a4b0aef,SCN,2024-06-12_13h39.14.831,LearnStrategy,2023.2.3,Win32,59.88023952,2,2,5,,,,,,,,4,05,,,,,,,,,,,7,3.235,0,,,,,,0.074074074,-0.384259259,1,0,0,3.2353,Peridotite_rect,4,0,4,0,1,
6629f95a14b6006e6a4b0aef,SCN,2024-06-12_13h39.14.831,LearnStrategy,2023.2.3,Win32,59.88023952,2,2,6,,,,,,,,7,14,,,,,,,,,,,3,7.932,0,,,,,,0.079629616,-0.258333347,1,0,0,7.9321,Diorite_rect,5,0,5,0,1,
6629f95a14b6006e6a4b0aef,SCN,2024-06-12_13h39.14.831,LearnStrategy,2023.2.3,Win32,59.88023952,2,2,7,,,,,,,,2,08,,,,,,,,,,,5,2.079,0,,,,,,-0.318518497,-0.388888889,0,0,1,2.0787,Obsidian_rect,6,0,6,0,1,
6629f95a14b6006e6a4b0aef,SCN,2024-06-12_13h39.14.831,LearnStrategy,2023.2.3,Win32,59.88023952,2,2,8,,,,,,,,6,15,,,,,,,,,,,6,1.929,1,,,,,,-0.145370342,-0.404629672,1,0,0,1.9287,Pegmatite_rect,7,0,7,0,1,
6629f95a14b6006e6a4b0aef,SCN,2024-06-12_13h39.14.831,LearnStrategy,2023.2.3,Win32,59.88023952,2,2,9,,,,,,,,5,05,,,,,,,,,,,5,2.18,1,,,,,,-0.364814794,-0.418518561,1,0,0,2.1797,Obsidian_rect,8,0,8,0,1,
6629f95a14b6006e6a4b0aef,SCN,2024-06-12_13h39.14.831,LearnStrategy,2023.2.3,Win32,59.88023952,2,2,10,,,,,,,,5,02,,,,,,,,,,,5,0.993,1,,,,,,-0.364814794,-0.418518561,1,0,0,0.9935,Obsidian_rect,9,0,9,0,1,
6629f95a14b6006e6a4b0aef,SCN,2024-06-12_13h39.14.831,LearnStrategy,2023.2.3,Win32,59.88023952,2,2,11,,,,,,,,8,13,,,,,,,,,,,8,1.711,1,,,,,,0.399999972,-0.397222236,1,0,0,1.7105,Pumice_rect,10,0,10,0,1,
6629f95a14b6006e6a4b0aef,SCN,2024-06-12_13h39.14.831,LearnStrategy,2023.2.3,Win32,59.88023952,2,2,12,,,,,,,,8,04,,,,,,,,,,,8,0.923,1,,,,,,0.399999972,-0.397222236,1,0,0,0.9225,Pumice_rect,11,0,11,0,1,
6629f95a14b6006e6a4b0aef,SCN,2024-06-12_13h39.14.831,LearnStrategy,2023.2.3,Win32,59.88023952,2,2,13,,,,,,,,7,08,,,,,,,,,,,7,1.619,1,,,,,,0.187037079,-0.400000042,1,0,0,1.6189,Peridotite_rect,12,0,12,0,1,
6629f95a14b6006e6a4b0aef,SCN,2024-06-12_13h39.14.831,LearnStrategy,2023.2.3,Win32,59.88023952,2,2,14,,,,,,,,1,03,,,,,,,,,,,2,7.563,0,,,,,,-0.04814812,-0.247222265,1,0,0,7.5633,Basalt_rect,13,0,13,0,1,
6629f95a14b6006e6a4b0aef,SCN,2024-06-12_13h39.14.831,LearnStrategy,2023.2.3,Win32,59.88023952,2,2,15,,,,,,,,6,10,,,,,,,,,,,7,1.664,0,,,,,,0.134259259,-0.382407436,1,0,0,1.6639,Peridotite_rect,14,0,14,0,1,
6629f95a14b6006e6a4b0aef,SCN,2024-06-12_13h39.14.831,LearnStrategy,2023.2.3,Win32,59.88023952,2,2,16,,,,,,,,3,11,,,,,,,,,,,6,1.451,0,,,,,,-0.101851852,-0.393518519,1,0,0,1.4506,Pegmatite_rect,15,0,15,0,1,
6629f95a14b6006e6a4b0aef,SCN,2024-06-12_13h39.14.831,LearnStrategy,2023.2.3,Win32,59.88023952,3,1,1,0.098148134,0.079629616,1,0,0,1.1783,Obsidian_09,5,09,4,5,1.178,-0.393518519,-0.404629672,1,0,0,2.5682,Obsidian_rect,5,2.568,1,0,0,0,0,1,,,,,,,,,,,,,
6629f95a14b6006e6a4b0aef,SCN,2024-06-12_13h39.14.831,LearnStrategy,2023.2.3,Win32,59.88023952,3,1,2,0.362037094,0.098148134,1,0,0,4.1855,Pumice_16,8,16,4,7,4.185,0.399074131,-0.387962977,1,0,0,2.614,Pumice_rect,8,2.614,1,1,0,1,0,1,,,,,,,,,,,,,
6629f95a14b6006e6a4b0aef,SCN,2024-06-12_13h39.14.831,LearnStrategy,2023.2.3,Win32,59.88023952,3,1,3,0.218518504,-0.405555584,1,0,0,4.8124,Pegmatite_03,6,03,1,6,4.812,0.088888875,-0.387037065,1,0,0,1.7343,Peridotite_rect,7,1.734,0,2,0,2,0,1,,,,,,,,,,,,,
6629f95a14b6006e6a4b0aef,SCN,2024-06-12_13h39.14.831,LearnStrategy,2023.2.3,Win32,59.88023952,3,1,4,0.568518603,-0.108333376,0,0,1,10.9289,Andesite_09,1,09,3,8,10.929,0.372222194,-0.255555541,1,0,0,3.3611,Gabbro_rect,4,3.361,0,3,0,3,0,1,,,,,,,,,,,,,
6629f95a14b6006e6a4b0aef,SCN,2024-06-12_13h39.14.831,LearnStrategy,2023.2.3,Win32,59.88023952,3,1,5,-0.226851852,-0.262962977,1,0,0,18.8427,Andesite_01,1,01,2,3,18.843,-0.155555513,-0.391666695,1,0,0,1.8076,Pegmatite_rect,6,1.808,0,4,0,4,0,1,,,,,,,,,,,,,
6629f95a14b6006e6a4b0aef,SCN,2024-06-12_13h39.14.831,LearnStrategy,2023.2.3,Win32,59.88023952,3,1,6,0.080555598,-0.229629658,1,0,0,4.7417,Gabbro_15,4,15,2,5,4.742,-0.134259259,-0.391666695,1,0,0,3.0238,Pegmatite_rect,6,3.024,0,5,0,5,0,1,,,,,,,,,,,,,
6629f95a14b6006e6a4b0aef,SCN,2024-06-12_13h39.14.831,LearnStrategy,2023.2.3,Win32,59.88023952,3,1,7,0.52870376,-0.077777792,1,0,0,5.8649,Andesite_09,1,09,3,8,5.865,0.367592564,-0.255555541,1,0,0,1.9056,Gabbro_rect,4,1.906,0,6,0,6,0,1,,,,,,,,,,,,,
6629f95a14b6006e6a4b0aef,SCN,2024-06-12_13h39.14.831,LearnStrategy,2023.2.3,Win32,59.88023952,3,1,8,-0.199074074,-0.248148176,1,0,0,6.3557,Andesite_01,1,01,2,3,6.356,0.353703675,-0.25,1,0,0,2.8536,Gabbro_rect,4,2.854,0,7,0,7,0,1,,,,,,,,,,,,,
6629f95a14b6006e6a4b0aef,SCN,2024-06-12_13h39.14.831,LearnStrategy,2023.2.3,Win32,59.88023952,3,1,9,-0.214814787,-0.108333376,1,0,0,4.7416,Peridotite_05,7,05,3,3,4.742,0.071296339,-0.382407436,1,0,0,1.8028,Peridotite_rect,7,1.803,1,8,0,8,0,1,,,,,,,,,,,,,
6629f95a14b6006e6a4b0aef,SCN,2024-06-12_13h39.14.831,LearnStrategy,2023.2.3,Win32,59.88023952,3,1,10,-0.512962942,-0.413888931,1,0,0,4.3848,Gabbro_11,4,11,1,1,4.385,-0.138888889,-0.239814829,1,0,0,2.5081,Basalt_rect,2,2.508,0,9,0,9,0,1,,,,,,,,,,,,,
6629f95a14b6006e6a4b0aef,SCN,2024-06-12_13h39.14.831,LearnStrategy,2023.2.3,Win32,59.88023952,3,1,11,0.398148148,-0.235185199,1,0,0,5.2615,Gabbro_03,4,03,2,7,5.261,-0.378703683,-0.252777806,1,0,0,3.4878,Andesite_rect,1,3.488,0,10,0,10,0,1,,,,,,,,,,,,,
6629f95a14b6006e6a4b0aef,SCN,2024-06-12_13h39.14.831,LearnStrategy,2023.2.3,Win32,59.88023952,3,1,12,-0.525000007,0.392592589,1,0,0,3.1477,Basalt_09,2,09,6,1,3.148,0.446296268,-0.246296282,1,0,0,1.6483,Gabbro_rect,4,1.648,0,11,0,11,0,1,,,,,,,,,,,,,
6629f95a14b6006e6a4b0aef,SCN,2024-06-12_13h39.14.831,LearnStrategy,2023.2.3,Win32,59.88023952,3,1,13,0.063888903,0.371296291,1,0,0,9.7123,Andesite_07,1,07,6,5,9.712,-0.140740712,-0.409259302,1,0,0,1.3763,Pegmatite_rect,6,1.376,0,12,0,12,0,1,,,,,,,,,,,,,
6629f95a14b6006e6a4b0aef,SCN,2024-06-12_13h39.14.831,LearnStrategy,2023.2.3,Win32,59.88023952,3,1,14,0.220370399,-0.255555541,1,0,0,3.8549,Peridotite_06,7,06,2,6,3.855,0.151851866,-0.410185213,1,0,0,1.294,Peridotite_rect,7,1.294,1,13,0,13,0,1,,,,,,,,,,,,,
6629f95a14b6006e6a4b0aef,SCN,2024-06-12_13h39.14.831,LearnStrategy,2023.2.3,Win32,59.88023952,3,1,15,-0.046296296,-0.08425928,0,0,1,0.8573,Obsidian_08,5,08,3,4,0.857,-0.397222201,-0.37962963,1,0,0,2.2692,Obsidian_rect,5,2.269,1,14,0,14,0,1,,,,,,,,,,,,,
6629f95a14b6006e6a4b0aef,SCN,2024-06-12_13h39.14.831,LearnStrategy,2023.2.3,Win32,59.88023952,3,1,16,-0.066666638,0.24166667,1,0,0,2.328,Pegmatite_09,6,09,5,4,2.328,0.158333319,-0.390740783,1,0,0,1.1186,Peridotite_rect,7,1.119,0,15,0,15,0,1,,,,,,,,,,,,,
6629f95a14b6006e6a4b0aef,SCN,2024-06-12_13h39.14.831,LearnStrategy,2023.2.3,Win32,59.88023952,3,2,1,,,,,,,,4,14,,,,,,,,,,,2,4.569,0,,,,,,-0.10092594,-0.244444459,1,0,0,4.5686,Basalt_rect,0,0,0,0,1,
6629f95a14b6006e6a4b0aef,SCN,2024-06-12_13h39.14.831,LearnStrategy,2023.2.3,Win32,59.88023952,3,2,2,,,,,,,,6,13,,,,,,,,,,,6,2.719,1,,,,,,-0.148148148,-0.400000042,1,0,0,2.7186,Pegmatite_rect,1,0,1,0,1,
6629f95a14b6006e6a4b0aef,SCN,2024-06-12_13h39.14.831,LearnStrategy,2023.2.3,Win32,59.88023952,3,2,3,,,,,,,,8,15,,,,,,,,,,,8,1.938,1,,,,,,0.334259316,-0.387962977,1,0,0,1.9378,Pumice_rect,2,0,2,0,1,
6629f95a14b6006e6a4b0aef,SCN,2024-06-12_13h39.14.831,LearnStrategy,2023.2.3,Win32,59.88023952,3,2,4,,,,,,,,7,15,,,,,,,,,,,7,1.266,1,,,,,,0.138888889,-0.413888931,1,0,0,1.2658,Peridotite_rect,3,0,3,0,1,
6629f95a14b6006e6a4b0aef,SCN,2024-06-12_13h39.14.831,LearnStrategy,2023.2.3,Win32,59.88023952,3,2,5,,,,,,,,2,06,,,,,,,,,,,5,2.073,0,,,,,,-0.345370363,-0.407407407,1,0,0,2.0734,Obsidian_rect,4,0,4,0,1,
6629f95a14b6006e6a4b0aef,SCN,2024-06-12_13h39.14.831,LearnStrategy,2023.2.3,Win32,59.88023952,3,2,6,,,,,,,,3,14,,,,,,,,,,,1,4.141,0,,,,,,-0.344444452,-0.243518547,0,0,1,4.1415,Andesite_rect,5,0,5,0,1,
6629f95a14b6006e6a4b0aef,SCN,2024-06-12_13h39.14.831,LearnStrategy,2023.2.3,Win32,59.88023952,3,2,7,,,,,,,,4,16,,,,,,,,,,,5,2.271,0,,,,,,-0.459259245,-0.402777778,1,0,0,2.2707,Obsidian_rect,6,0,6,0,1,
6629f95a14b6006e6a4b0aef,SCN,2024-06-12_13h39.14.831,LearnStrategy,2023.2.3,Win32,59.88023952,3,2,8,,,,,,,,1,06,,,,,,,,,,,2,7.327,0,,,,,,-0.10092594,-0.255555541,1,0,0,7.3275,Basalt_rect,7,0,7,0,1,
6629f95a14b6006e6a4b0aef,SCN,2024-06-12_13h39.14.831,LearnStrategy,2023.2.3,Win32,59.88023952,3,2,9,,,,,,,,5,11,,,,,,,,,,,5,1.341,1,,,,,,-0.354629623,-0.398148148,1,0,0,1.3412,Obsidian_rect,8,0,8,0,1,
6629f95a14b6006e6a4b0aef,SCN,2024-06-12_13h39.14.831,LearnStrategy,2023.2.3,Win32,59.88023952,3,2,10,,,,,,,,2,16,,,,,,,,,,,4,8.491,0,,,,,,0.417592649,-0.25,1,0,0,8.4911,Gabbro_rect,9,0,9,0,1,
6629f95a14b6006e6a4b0aef,SCN,2024-06-12_13h39.14.831,LearnStrategy,2023.2.3,Win32,59.88023952,3,2,11,,,,,,,,7,02,,,,,,,,,,,7,1.203,1,,,,,,0.151851866,-0.39907406,1,0,0,1.2031,Peridotite_rect,10,0,10,0,1,
6629f95a14b6006e6a4b0aef,SCN,2024-06-12_13h39.14.831,LearnStrategy,2023.2.3,Win32,59.88023952,3,2,12,,,,,,,,8,05,,,,,,,,,,,8,1.417,1,,,,,,0.341666751,-0.387037065,1,0,0,1.4171,Pumice_rect,11,0,11,0,1,
6629f95a14b6006e6a4b0aef,SCN,2024-06-12_13h39.14.831,LearnStrategy,2023.2.3,Win32,59.88023952,3,2,13,,,,,,,,3,08,,,,,,,,,,,1,2.17,0,,,,,,-0.359259252,-0.25462963,1,0,0,2.1703,Andesite_rect,12,0,12,0,1,
6629f95a14b6006e6a4b0aef,SCN,2024-06-12_13h39.14.831,LearnStrategy,2023.2.3,Win32,59.88023952,3,2,14,,,,,,,,5,06,,,,,,,,,,,5,1.588,1,,,,,,-0.368518511,-0.389814801,1,0,0,1.5876,Obsidian_rect,13,0,13,0,1,
6629f95a14b6006e6a4b0aef,SCN,2024-06-12_13h39.14.831,LearnStrategy,2023.2.3,Win32,59.88023952,3,2,15,,,,,,,,1,05,,,,,,,,,,,3,5.084,0,,,,,,0.107407393,-0.252777806,1,0,0,5.0845,Diorite_rect,14,0,14,0,1,
6629f95a14b6006e6a4b0aef,SCN,2024-06-12_13h39.14.831,LearnStrategy,2023.2.3,Win32,59.88023952,3,2,16,,,,,,,,6,16,,,,,,,,,,,6,1.694,1,,,,,,-0.128703718,-0.402777778,1,0,0,1.6939,Pegmatite_rect,15,0,15,0,1,
6629f95a14b6006e6a4b0aef,SCN,2024-06-12_13h39.14.831,LearnStrategy,2023.2.3,Win32,59.88023952,4,1,1,0.073148162,0.420370367,1,0,0,3.427,Andesite_07,1,07,6,5,3.427,-0.354629623,-0.231481481,1,0,0,2.2535,Andesite_rect,1,2.254,1,0,0,0,0,1,,,,,,,,,,,,,
6629f95a14b6006e6a4b0aef,SCN,2024-06-12_13h39.14.831,LearnStrategy,2023.2.3,Win32,59.88023952,4,1,2,0.281481496,-0.425925926,1,0,0,4.5532,Pegmatite_03,6,03,1,6,4.553,0.132407436,-0.418518561,1,0,0,1.535,Peridotite_rect,7,1.535,0,1,0,1,0,1,,,,,,,,,,,,,
6629f95a14b6006e6a4b0aef,SCN,2024-06-12_13h39.14.831,LearnStrategy,2023.2.3,Win32,59.88023952,4,1,3,0.213888875,-0.401851866,1,0,0,1.1924,Pegmatite_03,6,03,1,6,1.192,-0.143518519,-0.395370413,1,0,0,1.279,Pegmatite_rect,6,1.279,1,2,0,2,0,1,,,,,,,,,,,,,
6629f95a14b6006e6a4b0aef,SCN,2024-06-12_13h39.14.831,LearnStrategy,2023.2.3,Win32,59.88023952,4,1,4,0.373148176,0.411111108,1,0,0,5.3311,Pegmatite_07,6,07,6,7,5.331,-0.121296282,-0.385185171,1,0,0,1.8236,Pegmatite_rect,6,1.824,1,3,0,3,0,1,,,,,,,,,,,,,
6629f95a14b6006e6a4b0aef,SCN,2024-06-12_13h39.14.831,LearnStrategy,2023.2.3,Win32,59.88023952,4,1,5,-0.3675926,0.420370367,0,0,1,2.44,Pegmatite_08,6,08,6,2,2.44,-0.136111083,-0.401851866,1,0,0,1.6803,Pegmatite_rect,6,1.68,1,4,0,4,0,1,,,,,,,,,,,,,
6629f95a14b6006e6a4b0aef,SCN,2024-06-12_13h39.14.831,LearnStrategy,2023.2.3,Win32,59.88023952,4,1,6,-0.218518504,0.077777757,1,0,0,13.6895,Basalt_10,2,10,4,3,13.689,0.312037009,-0.251851894,1,0,0,3.8164,Gabbro_rect,4,3.816,0,5,0,5,0,1,,,,,,,,,,,,,
6629f95a14b6006e6a4b0aef,SCN,2024-06-12_13h39.14.831,LearnStrategy,2023.2.3,Win32,59.88023952,4,1,7,0.227777764,0.111111111,1,0,0,3.899,Andesite_11,1,11,4,6,3.899,-0.059259273,-0.253703718,1,0,0,2.3609,Basalt_rect,2,2.361,0,6,0,6,0,1,,,,,,,,,,,,,
6629f95a14b6006e6a4b0aef,SCN,2024-06-12_13h39.14.831,LearnStrategy,2023.2.3,Win32,59.88023952,4,1,8,-0.541666667,0.088888875,1,0,0,4.1415,Basalt_11,2,11,4,1,4.141,0.362037094,-0.390740783,1,0,0,2.4041,Pumice_rect,8,2.404,0,7,0,7,0,1,,,,,,,,,,,,,
6629f95a14b6006e6a4b0aef,SCN,2024-06-12_13h39.14.831,LearnStrategy,2023.2.3,Win32,59.88023952,4,1,9,0.248148176,0.100925905,1,0,0,1.9568,Andesite_11,1,11,4,6,1.957,-0.330555563,-0.241666653,1,0,0,2.7626,Andesite_rect,1,2.763,1,8,0,8,0,1,,,,,,,,,,,,,
6629f95a14b6006e6a4b0aef,SCN,2024-06-12_13h39.14.831,LearnStrategy,2023.2.3,Win32,59.88023952,4,1,10,-0.05277775,0.240740741,1,0,0,1.9404,Pegmatite_09,6,09,5,4,1.94,-0.107407393,-0.391666695,1,0,0,1.9516,Pegmatite_rect,6,1.952,1,9,0,9,0,1,,,,,,,,,,,,,
6629f95a14b6006e6a4b0aef,SCN,2024-06-12_13h39.14.831,LearnStrategy,2023.2.3,Win32,59.88023952,4,1,11,0.242592635,-0.26944443,1,0,0,2.702,Peridotite_06,7,06,2,6,2.702,0.137037065,-0.40370369,1,0,0,1.3814,Peridotite_rect,7,1.381,1,10,0,10,0,1,,,,,,,,,,,,,
6629f95a14b6006e6a4b0aef,SCN,2024-06-12_13h39.14.831,LearnStrategy,2023.2.3,Win32,59.88023952,4,1,12,-0.055555556,-0.085185192,1,0,0,1.4591,Obsidian_08,5,08,3,4,1.459,-0.356481481,-0.407407407,1,0,0,0.8984,Obsidian_rect,5,0.898,1,11,0,11,0,1,,,,,,,,,,,,,
6629f95a14b6006e6a4b0aef,SCN,2024-06-12_13h39.14.831,LearnStrategy,2023.2.3,Win32,59.88023952,4,1,13,0.083333333,0.062037044,1,0,0,1.8706,Obsidian_09,5,09,4,5,1.871,-0.39907406,-0.410185213,1,0,0,1.2094,Obsidian_rect,5,1.209,1,12,0,12,0,1,,,,,,,,,,,,,
6629f95a14b6006e6a4b0aef,SCN,2024-06-12_13h39.14.831,LearnStrategy,2023.2.3,Win32,59.88023952,4,1,14,-0.362037023,0.235185182,1,0,0,2.6184,Pegmatite_05,6,05,5,2,2.618,-0.386111118,-0.244444459,1,0,0,2.3892,Andesite_rect,1,2.389,0,13,0,13,0,1,,,,,,,,,,,,,
6629f95a14b6006e6a4b0aef,SCN,2024-06-12_13h39.14.831,LearnStrategy,2023.2.3,Win32,59.88023952,4,1,15,-0.380555541,0.235185182,1,0,0,3.4976,Pegmatite_05,6,05,5,2,3.498,-0.178703661,-0.404629672,1,0,0,2.3921,Pegmatite_rect,6,2.392,1,14,0,14,0,1,,,,,,,,,,,,,
6629f95a14b6006e6a4b0aef,SCN,2024-06-12_13h39.14.831,LearnStrategy,2023.2.3,Win32,59.88023952,4,1,16,-0.346296275,0.417592587,1,0,0,5.357,Pegmatite_08,6,08,6,2,5.357,-0.148148148,-0.402777778,1,0,0,2.5738,Pegmatite_rect,6,2.574,1,15,0,15,0,1,,,,,,,,,,,,,
6629f95a14b6006e6a4b0aef,SCN,2024-06-12_13h39.14.831,LearnStrategy,2023.2.3,Win32,59.88023952,4,2,1,,,,,,,,7,08,,,,,,,,,,,7,3.198,1,,,,,,0.124074088,-0.398148148,1,0,0,3.1981,Peridotite_rect,0,0,0,0,1,
6629f95a14b6006e6a4b0aef,SCN,2024-06-12_13h39.14.831,LearnStrategy,2023.2.3,Win32,59.88023952,4,2,2,,,,,,,,8,04,,,,,,,,,,,8,1.643,1,,,,,,0.351851852,-0.414814843,0,0,1,1.6435,Pumice_rect,1,0,1,0,1,
6629f95a14b6006e6a4b0aef,SCN,2024-06-12_13h39.14.831,LearnStrategy,2023.2.3,Win32,59.88023952,4,2,3,,,,,,,,1,05,,,,,,,,,,,1,2.512,1,,,,,,-0.388888889,-0.255555541,1,0,0,2.5122,Andesite_rect,2,0,2,0,1,
6629f95a14b6006e6a4b0aef,SCN,2024-06-12_13h39.14.831,LearnStrategy,2023.2.3,Win32,59.88023952,4,2,4,,,,,,,,3,12,,,,,,,,,,,6,1.864,0,,,,,,-0.159259231,-0.408333319,1,0,0,1.8636,Pegmatite_rect,3,0,3,0,1,
6629f95a14b6006e6a4b0aef,SCN,2024-06-12_13h39.14.831,LearnStrategy,2023.2.3,Win32,59.88023952,4,2,5,,,,,,,,6,13,,,,,,,,,,,6,1.45,1,,,,,,-0.159259231,-0.408333319,1,0,0,1.45,Pegmatite_rect,4,0,4,0,1,
6629f95a14b6006e6a4b0aef,SCN,2024-06-12_13h39.14.831,LearnStrategy,2023.2.3,Win32,59.88023952,4,2,6,,,,,,,,2,01,,,,,,,,,,,4,13.018,0,,,,,,0.367592564,-0.253703718,1,0,0,13.0175,Gabbro_rect,5,0,5,0,1,
6629f95a14b6006e6a4b0aef,SCN,2024-06-12_13h39.14.831,LearnStrategy,2023.2.3,Win32,59.88023952,4,2,7,,,,,,,,5,02,,,,,,,,,,,5,1.405,1,,,,,,-0.417592578,-0.39444443,1,0,0,1.4046,Obsidian_rect,6,0,6,0,1,
6629f95a14b6006e6a4b0aef,SCN,2024-06-12_13h39.14.831,LearnStrategy,2023.2.3,Win32,59.88023952,4,2,8,,,,,,,,7,02,,,,,,,,,,,7,1.633,1,,,,,,0.059259273,-0.392592607,1,0,0,1.6328,Peridotite_rect,7,0,7,0,1,
6629f95a14b6006e6a4b0aef,SCN,2024-06-12_13h39.14.831,LearnStrategy,2023.2.3,Win32,59.88023952,4,2,9,,,,,,,,4,12,,,,,,,,,,,4,2.024,1,,,,,,0.398148148,-0.237963005,1,0,0,2.0242,Gabbro_rect,8,0,8,0,1,
6629f95a14b6006e6a4b0aef,SCN,2024-06-12_13h39.14.831,LearnStrategy,2023.2.3,Win32,59.88023952,4,2,10,,,,,,,,2,06,,,,,,,,,,,5,1.582,0,,,,,,-0.371296282,-0.400925954,1,0,0,1.5816,Obsidian_rect,9,0,9,0,1,
6629f95a14b6006e6a4b0aef,SCN,2024-06-12_13h39.14.831,LearnStrategy,2023.2.3,Win32,59.88023952,4,2,11,,,,,,,,6,15,,,,,,,,,,,6,1.75,1,,,,,,-0.137036995,-0.404629672,1,0,0,1.7502,Pegmatite_rect,10,0,10,0,1,
6629f95a14b6006e6a4b0aef,SCN,2024-06-12_13h39.14.831,LearnStrategy,2023.2.3,Win32,59.88023952,4,2,12,,,,,,,,4,14,,,,,,,,,,,1,3.068,0,,,,,,-0.364814794,-0.263888889,1,0,0,3.0685,Andesite_rect,11,0,11,0,1,
6629f95a14b6006e6a4b0aef,SCN,2024-06-12_13h39.14.831,LearnStrategy,2023.2.3,Win32,59.88023952,4,2,13,,,,,,,,3,08,,,,,,,,,,,1,5.497,0,,,,,,-0.331481474,-0.263888889,1,0,0,5.4969,Andesite_rect,12,0,12,0,1,
6629f95a14b6006e6a4b0aef,SCN,2024-06-12_13h39.14.831,LearnStrategy,2023.2.3,Win32,59.88023952,4,2,14,,,,,,,,1,06,,,,,,,,,,,1,2.815,1,,,,,,-0.331481474,-0.263888889,1,0,0,2.8148,Andesite_rect,13,0,13,0,1,
6629f95a14b6006e6a4b0aef,SCN,2024-06-12_13h39.14.831,LearnStrategy,2023.2.3,Win32,59.88023952,4,2,15,,,,,,,,8,13,,,,,,,,,,,8,1.873,1,,,,,,0.367592564,-0.39444443,1,0,0,1.8733,Pumice_rect,14,0,14,0,1,
6629f95a14b6006e6a4b0aef,SCN,2024-06-12_13h39.14.831,LearnStrategy,2023.2.3,Win32,59.88023952,4,2,16,,,,,,,,5,11,,,,,,,,,,,5,3.977,1,,,,,,-0.381481489,-0.398148148,1,0,0,3.977,Obsidian_rect,15,0,15,0,1,
6629f95a14b6006e6a4b0aef,SCN,2024-06-12_13h39.14.831,LearnStrategy,2023.2.3,Win32,59.88023952,5,1,1,-0.066666638,0.092592593,1,0,0,3.3325,Obsidian_04,5,04,4,4,3.332,-0.364814794,-0.412037037,1,0,0,1.9854,Obsidian_rect,5,1.985,1,0,0,0,0,1,,,,,,,,,,,,,
6629f95a14b6006e6a4b0aef,SCN,2024-06-12_13h39.14.831,LearnStrategy,2023.2.3,Win32,59.88023952,5,1,2,-0.576851845,-0.252777806,1,0,0,8.1036,Peridotite_12,7,12,2,1,8.104,0.07222225,-0.391666695,1,0,0,1.5042,Peridotite_rect,7,1.504,1,1,0,1,0,1,,,,,,,,,,,,,
6629f95a14b6006e6a4b0aef,SCN,2024-06-12_13h39.14.831,LearnStrategy,2023.2.3,Win32,59.88023952,5,1,3,-0.239814829,-0.441666709,1,0,0,1.5122,Pumice_02,8,02,1,3,1.512,0.452777863,-0.412037037,1,0,0,1.5439,Pumice_rect,8,1.544,1,2,0,2,0,1,,,,,,,,,,,,,
6629f95a14b6006e6a4b0aef,SCN,2024-06-12_13h39.14.831,LearnStrategy,2023.2.3,Win32,59.88023952,5,1,4,-0.062037009,0.401851848,1,0,0,3.0547,Diorite_09,3,09,6,4,3.055,-0.39907406,-0.251851894,1,0,0,2.0273,Andesite_rect,1,2.027,0,3,0,3,0,1,,,,,,,,,,,,,
6629f95a14b6006e6a4b0aef,SCN,2024-06-12_13h39.14.831,LearnStrategy,2023.2.3,Win32,59.88023952,5,1,5,0.083333333,0.410185187,1,0,0,3.3449,Andesite_07,1,07,6,5,3.345,-0.321296303,-0.235185199,1,0,0,4.4483,Andesite_rect,1,4.448,1,4,0,4,0,1,,,,,,,,,,,,,
6629f95a14b6006e6a4b0aef,SCN,2024-06-12_13h39.14.831,LearnStrategy,2023.2.3,Win32,59.88023952,5,1,6,0.265740783,0.422222217,1,0,0,1.1775,Diorite_02,3,02,6,6,1.178,0.127777806,-0.244444459,1,0,0,2.0117,Diorite_rect,3,2.012,1,5,0,5,0,1,,,,,,,,,,,,,
6629f95a14b6006e6a4b0aef,SCN,2024-06-12_13h39.14.831,LearnStrategy,2023.2.3,Win32,59.88023952,5,1,7,-0.055555556,0.076851845,1,0,0,0.8759,Obsidian_04,5,04,4,4,0.876,-0.356481481,-0.398148148,1,0,0,3.0543,Obsidian_rect,5,3.054,1,6,0,6,0,1,,,,,,,,,,,,,
6629f95a14b6006e6a4b0aef,SCN,2024-06-12_13h39.14.831,LearnStrategy,2023.2.3,Win32,59.88023952,5,1,8,0.069444444,0.071296303,1,0,0,1.0446,Obsidian_09,5,09,4,5,1.045,-0.384259259,-0.390740783,1,0,0,1.8427,Obsidian_rect,5,1.843,1,7,0,7,0,1,,,,,,,,,,,,,
6629f95a14b6006e6a4b0aef,SCN,2024-06-12_13h39.14.831,LearnStrategy,2023.2.3,Win32,59.88023952,5,1,9,-0.383333312,-0.099074116,1,0,0,2.188,Obsidian_16,5,16,3,2,2.188,-0.373148141,-0.383333347,1,0,0,1.7789,Obsidian_rect,5,1.779,1,8,0,8,0,1,,,,,,,,,,,,,
6629f95a14b6006e6a4b0aef,SCN,2024-06-12_13h39.14.831,LearnStrategy,2023.2.3,Win32,59.88023952,5,1,10,-0.064814815,-0.235185199,1,0,0,1.4887,Andesite_04,1,04,2,4,1.489,0.386111083,-0.382407436,1,0,0,1.8532,Pumice_rect,8,1.853,0,9,0,9,0,1,,,,,,,,,,,,,
6629f95a14b6006e6a4b0aef,SCN,2024-06-12_13h39.14.831,LearnStrategy,2023.2.3,Win32,59.88023952,5,1,11,0.374074159,-0.236111111,1,0,0,2.6237,Gabbro_03,4,03,2,7,2.624,0.36018527,-0.228703746,1,0,0,1.0942,Gabbro_rect,4,1.094,1,10,0,10,0,1,,,,,,,,,,,,,
6629f95a14b6006e6a4b0aef,SCN,2024-06-12_13h39.14.831,LearnStrategy,2023.2.3,Win32,59.88023952,5,1,12,0.578703704,-0.118518547,1,0,0,1.3118,Andesite_09,1,09,3,8,1.312,0.394444501,-0.251851894,1,0,0,0.9977,Gabbro_rect,4,0.998,0,11,0,11,0,1,,,,,,,,,,,,,
6629f95a14b6006e6a4b0aef,SCN,2024-06-12_13h39.14.831,LearnStrategy,2023.2.3,Win32,59.88023952,5,1,13,0.416666667,-0.266666695,1,0,0,4.0684,Gabbro_03,4,03,2,7,4.068,0.382407436,-0.265740783,1,0,0,1.4277,Gabbro_rect,4,1.428,1,12,0,12,0,1,,,,,,,,,,,,,
6629f95a14b6006e6a4b0aef,SCN,2024-06-12_13h39.14.831,LearnStrategy,2023.2.3,Win32,59.88023952,5,1,14,0.078703704,0.259259259,1,0,0,4.0532,Gabbro_08,4,08,5,5,4.053,-0.324074074,-0.264814801,1,0,0,2.8288,Andesite_rect,1,2.829,0,13,0,13,0,1,,,,,,,,,,,,,
6629f95a14b6006e6a4b0aef,SCN,2024-06-12_13h39.14.831,LearnStrategy,2023.2.3,Win32,59.88023952,5,1,15,-0.203703704,0.25833333,1,0,0,2.6827,Peridotite_07,7,07,5,3,2.683,0.142592607,-0.39444443,1,0,0,1.7975,Peridotite_rect,7,1.797,1,14,0,14,0,1,,,,,,,,,,,,,
6629f95a14b6006e6a4b0aef,SCN,2024-06-12_13h39.14.831,LearnStrategy,2023.2.3,Win32,59.88023952,5,1,16,0.37037037,0.092592593,1,0,0,2.218,Pumice_16,8,16,4,7,2.218,0.327777863,-0.39907406,1,0,0,1.4296,Pumice_rect,8,1.43,1,15,0,15,0,1,,,,,,,,,,,,,
6629f95a14b6006e6a4b0aef,SCN,2024-06-12_13h39.14.831,LearnStrategy,2023.2.3,Win32,59.88023952,5,2,1,,,,,,,,8,15,,,,,,,,,,,8,3.456,1,,,,,,0.350926011,-0.390740783,1,0,0,3.4561,Pumice_rect,0,0,0,0,1,
6629f95a14b6006e6a4b0aef,SCN,2024-06-12_13h39.14.831,LearnStrategy,2023.2.3,Win32,59.88023952,5,2,2,,,,,,,,4,05,,,,,,,,,,,7,6.122,0,,,,,,0.161111125,-0.398148148,1,0,0,6.1223,Peridotite_rect,1,0,1,0,1,
6629f95a14b6006e6a4b0aef,SCN,2024-06-12_13h39.14.831,LearnStrategy,2023.2.3,Win32,59.88023952,5,2,3,,,,,,,,2,12,,,,,,,,,,,8,3.641,0,,,,,,0.406481566,-0.407407407,1,0,0,3.6414,Pumice_rect,2,0,2,0,1,
6629f95a14b6006e6a4b0aef,SCN,2024-06-12_13h39.14.831,LearnStrategy,2023.2.3,Win32,59.88023952,5,2,4,,,,,,,,5,06,,,,,,,,,,,5,10.304,1,,,,,,-0.351851852,-0.385185171,1,0,0,10.3039,Obsidian_rect,3,0,3,0,1,
6629f95a14b6006e6a4b0aef,SCN,2024-06-12_13h39.14.831,LearnStrategy,2023.2.3,Win32,59.88023952,5,2,5,,,,,,,,7,15,,,,,,,,,,,7,2.4,1,,,,,,0.130555541,-0.395370413,1,0,0,2.4002,Peridotite_rect,4,0,4,0,1,
6629f95a14b6006e6a4b0aef,SCN,2024-06-12_13h39.14.831,LearnStrategy,2023.2.3,Win32,59.88023952,5,2,6,,,,,,,,8,05,,,,,,,,,,,8,1.639,1,,,,,,0.347222222,-0.391666695,1,0,0,1.6387,Pumice_rect,5,0,5,0,1,
6629f95a14b6006e6a4b0aef,SCN,2024-06-12_13h39.14.831,LearnStrategy,2023.2.3,Win32,59.88023952,5,2,7,,,,,,,,5,14,,,,,,,,,,,5,1.651,1,,,,,,-0.407407407,-0.406481496,1,0,0,1.651,Obsidian_rect,6,0,6,0,1,
6629f95a14b6006e6a4b0aef,SCN,2024-06-12_13h39.14.831,LearnStrategy,2023.2.3,Win32,59.88023952,5,2,8,,,,,,,,1,16,,,,,,,,,,,1,3.546,1,,,,,,-0.347222222,-0.252777806,1,0,0,3.5464,Andesite_rect,7,0,7,0,1,
6629f95a14b6006e6a4b0aef,SCN,2024-06-12_13h39.14.831,LearnStrategy,2023.2.3,Win32,59.88023952,5,2,9,,,,,,,,6,16,,,,,,,,,,,6,1.87,1,,,,,,-0.130555541,-0.39907406,1,0,0,1.8702,Pegmatite_rect,8,0,8,0,1,
6629f95a14b6006e6a4b0aef,SCN,2024-06-12_13h39.14.831,LearnStrategy,2023.2.3,Win32,59.88023952,5,2,10,,,,,,,,4,16,,,,,,,,,,,5,1.373,0,,,,,,-0.337037016,-0.400925954,1,0,0,1.3731,Obsidian_rect,9,0,9,0,1,
6629f95a14b6006e6a4b0aef,SCN,2024-06-12_13h39.14.831,LearnStrategy,2023.2.3,Win32,59.88023952,5,2,11,,,,,,,,6,10,,,,,,,,,,,6,2.281,1,,,,,,-0.085185157,-0.398148148,1,0,0,2.2815,Pegmatite_rect,10,0,10,0,1,
6629f95a14b6006e6a4b0aef,SCN,2024-06-12_13h39.14.831,LearnStrategy,2023.2.3,Win32,59.88023952,5,2,12,,,,,,,,2,16,,,,,,,,,,,2,8.536,1,,,,,,-0.112037023,-0.262962977,1,0,0,8.5365,Basalt_rect,11,0,11,0,1,
6629f95a14b6006e6a4b0aef,SCN,2024-06-12_13h39.14.831,LearnStrategy,2023.2.3,Win32,59.88023952,5,2,13,,,,,,,,1,14,,,,,,,,,,,1,2.589,1,,,,,,-0.339814822,-0.263888889,1,0,0,2.5893,Andesite_rect,12,0,12,0,1,
6629f95a14b6006e6a4b0aef,SCN,2024-06-12_13h39.14.831,LearnStrategy,2023.2.3,Win32,59.88023952,5,2,14,,,,,,,,3,16,,,,,,,,,,,3,3.071,1,,,,,,0.119444459,-0.242592635,1,0,0,3.071,Diorite_rect,13,0,13,0,1,
6629f95a14b6006e6a4b0aef,SCN,2024-06-12_13h39.14.831,LearnStrategy,2023.2.3,Win32,59.88023952,5,2,15,,,,,,,,7,13,,,,,,,,,,,7,1.666,1,,,,,,0.152777778,-0.39907406,1,0,0,1.6663,Peridotite_rect,14,0,14,0,1,
6629f95a14b6006e6a4b0aef,SCN,2024-06-12_13h39.14.831,LearnStrategy,2023.2.3,Win32,59.88023952,5,2,16,,,,,,,,3,11,,,,,,,,,,,3,6.695,1,,,,,,0.095370399,-0.258333347,1,0,0,6.6946,Diorite_rect,15,0,15,0,1,
6629f95a14b6006e6a4b0aef,SCN,2024-06-12_13h39.14.831,LearnStrategy,2023.2.3,Win32,59.88023952,6,1,1,0.244444459,0.094444452,1,0,0,1.7492,Andesite_11,1,11,4,6,1.749,-0.348148134,-0.244444459,1,0,0,2.3841,Andesite_rect,1,2.384,1,0,0,0,0,1,,,,,,,,,,,,,
6629f95a14b6006e6a4b0aef,SCN,2024-06-12_13h39.14.831,LearnStrategy,2023.2.3,Win32,59.88023952,6,1,2,-0.050000014,-0.061111132,1,0,0,0.9216,Obsidian_08,5,08,3,4,0.922,-0.340740734,-0.387037065,1,0,0,0.9085,Obsidian_rect,5,0.909,1,1,0,1,0,1,,,,,,,,,,,,,
6629f95a14b6006e6a4b0aef,SCN,2024-06-12_13h39.14.831,LearnStrategy,2023.2.3,Win32,59.88023952,6,1,3,0.064814815,-0.39444443,1,0,0,1.9031,Diorite_15,3,15,1,5,1.903,-0.191666638,-0.378703718,1,0,0,3.6625,Pegmatite_rect,6,3.663,0,2,0,2,0,1,,,,,,,,,,,,,
6629f95a14b6006e6a4b0aef,SCN,2024-06-12_13h39.14.831,LearnStrategy,2023.2.3,Win32,59.88023952,6,1,4,0.24537037,-0.109259288,1,0,0,1.7332,Pegmatite_12,6,12,3,6,1.733,-0.117592564,-0.392592607,1,0,0,1.5471,Pegmatite_rect,6,1.547,1,3,0,3,0,1,,,,,,,,,,,,,
6629f95a14b6006e6a4b0aef,SCN,2024-06-12_13h39.14.831,LearnStrategy,2023.2.3,Win32,59.88023952,6,1,5,0.25462963,0.269444448,1,0,0,1.9734,Diorite_13,3,13,5,6,1.973,0.09629631,-0.243518547,1,0,0,1.2455,Diorite_rect,3,1.245,1,4,0,4,0,1,,,,,,,,,,,,,
6629f95a14b6006e6a4b0aef,SCN,2024-06-12_13h39.14.831,LearnStrategy,2023.2.3,Win32,59.88023952,6,1,6,0.544444473,0.076851845,1,0,0,1.2869,Diorite_10,3,10,4,8,1.287,-0.349074081,-0.248148176,1,0,0,9.3057,Andesite_rect,1,9.306,0,5,0,5,0,1,,,,,,,,,,,,,
6629f95a14b6006e6a4b0aef,SCN,2024-06-12_13h39.14.831,LearnStrategy,2023.2.3,Win32,59.88023952,6,1,7,-0.051851838,0.395370369,1,0,0,4.3066,Diorite_09,3,09,6,4,4.307,0.075925968,-0.244444459,1,0,0,1.5564,Diorite_rect,3,1.556,1,6,0,6,0,1,,,,,,,,,,,,,
6629f95a14b6006e6a4b0aef,SCN,2024-06-12_13h39.14.831,LearnStrategy,2023.2.3,Win32,59.88023952,6,1,8,-0.543518526,0.393518519,1,0,0,1.7395,Basalt_09,2,09,6,1,1.74,-0.111111111,-0.257407436,1,0,0,1.6669,Basalt_rect,2,1.667,1,7,0,7,0,1,,,,,,,,,,,,,
6629f95a14b6006e6a4b0aef,SCN,2024-06-12_13h39.14.831,LearnStrategy,2023.2.3,Win32,59.88023952,6,1,9,0.550925926,-0.12037037,1,0,0,1.5539,Andesite_09,1,09,3,8,1.554,-0.074074074,-0.242592635,1,0,0,1.8741,Basalt_rect,2,1.874,0,8,0,8,0,1,,,,,,,,,,,,,
6629f95a14b6006e6a4b0aef,SCN,2024-06-12_13h39.14.831,LearnStrategy,2023.2.3,Win32,59.88023952,6,1,10,0.367592564,-0.262962977,1,0,0,1.184,Gabbro_03,4,03,2,7,1.184,0.367592564,-0.262037065,1,0,0,0.7893,Gabbro_rect,4,0.789,1,9,0,9,0,1,,,,,,,,,,,,,
6629f95a14b6006e6a4b0aef,SCN,2024-06-12_13h39.14.831,LearnStrategy,2023.2.3,Win32,59.88023952,6,1,11,0.107407393,-0.090740734,1,0,0,1.1947,Basalt_14,2,14,3,5,1.195,-0.125,-0.25,1,0,0,0.8407,Basalt_rect,2,0.841,1,10,0,10,0,1,,,,,,,,,,,,,
6629f95a14b6006e6a4b0aef,SCN,2024-06-12_13h39.14.831,LearnStrategy,2023.2.3,Win32,59.88023952,6,1,12,-0.23055557,0.089814822,1,0,0,2.773,Basalt_10,2,10,4,3,2.773,-0.116666653,-0.262037065,1,0,0,3.7627,Basalt_rect,2,3.763,1,11,0,11,0,1,,,,,,,,,,,,,
6629f95a14b6006e6a4b0aef,SCN,2024-06-12_13h39.14.831,LearnStrategy,2023.2.3,Win32,59.88023952,6,1,13,-0.357407393,-0.251851894,1,0,0,1.463,Basalt_02,2,02,2,2,1.463,-0.125925912,-0.252777806,1,0,0,1.178,Basalt_rect,2,1.178,1,12,0,12,0,1,,,,,,,,,,,,,
6629f95a14b6006e6a4b0aef,SCN,2024-06-12_13h39.14.831,LearnStrategy,2023.2.3,Win32,59.88023952,6,1,14,-0.215740698,-0.259259259,1,0,0,1.3663,Andesite_01,1,01,2,3,1.366,0.140740783,-0.237037023,1,0,0,4.7576,Diorite_rect,3,4.758,0,13,0,13,0,1,,,,,,,,,,,,,
6629f95a14b6006e6a4b0aef,SCN,2024-06-12_13h39.14.831,LearnStrategy,2023.2.3,Win32,59.88023952,6,1,15,0.204629616,-0.261111153,1,0,0,3.9019,Peridotite_06,7,06,2,6,3.902,0.112963005,-0.397222236,1,0,0,1.0587,Peridotite_rect,7,1.059,1,14,0,14,0,1,,,,,,,,,,,,,
6629f95a14b6006e6a4b0aef,SCN,2024-06-12_13h39.14.831,LearnStrategy,2023.2.3,Win32,59.88023952,6,1,16,-0.099999958,-0.065740762,1,0,0,1.8117,Obsidian_08,5,08,3,4,1.812,-0.374074053,-0.397222236,1,0,0,0.9931,Obsidian_rect,5,0.993,1,15,0,15,0,1,,,,,,,,,,,,,
6629f95a14b6006e6a4b0aef,SCN,2024-06-12_13h39.14.831,LearnStrategy,2023.2.3,Win32,59.88023952,6,2,1,,,,,,,,6,11,,,,,,,,,,,6,2.334,1,,,,,,-0.14907406,-0.387962977,1,0,0,2.3339,Pegmatite_rect,0,0,0,0,1,
6629f95a14b6006e6a4b0aef,SCN,2024-06-12_13h39.14.831,LearnStrategy,2023.2.3,Win32,59.88023952,6,2,2,,,,,,,,4,09,,,,,,,,,,,5,1.47,0,,,,,,-0.353703711,-0.396296325,1,0,0,1.4701,Obsidian_rect,1,0,1,0,1,
6629f95a14b6006e6a4b0aef,SCN,2024-06-12_13h39.14.831,LearnStrategy,2023.2.3,Win32,59.88023952,6,2,3,,,,,,,,6,06,,,,,,,,,,,6,4.631,1,,,,,,-0.115740741,-0.398148148,1,0,0,4.631,Pegmatite_rect,2,0,2,0,1,
6629f95a14b6006e6a4b0aef,SCN,2024-06-12_13h39.14.831,LearnStrategy,2023.2.3,Win32,59.88023952,6,2,4,,,,,,,,1,02,,,,,,,,,,,1,5.97,1,,,,,,-0.329629616,-0.238888917,1,0,0,5.9697,Andesite_rect,3,0,3,0,1,
6629f95a14b6006e6a4b0aef,SCN,2024-06-12_13h39.14.831,LearnStrategy,2023.2.3,Win32,59.88023952,6,2,5,,,,,,,,5,12,,,,,,,,,,,5,1.182,1,,,,,,-0.371296282,-0.387037065,1,0,0,1.1825,Obsidian_rect,4,0,4,0,1,
6629f95a14b6006e6a4b0aef,SCN,2024-06-12_13h39.14.831,LearnStrategy,2023.2.3,Win32,59.88023952,6,2,6,,,,,,,,2,08,,,,,,,,,,,5,0.968,0,,,,,,-0.371296282,-0.387037065,1,0,0,0.9675,Obsidian_rect,5,0,5,0,1,
6629f95a14b6006e6a4b0aef,SCN,2024-06-12_13h39.14.831,LearnStrategy,2023.2.3,Win32,59.88023952,6,2,7,,,,,,,,3,14,,,,,,,,,,,3,2.025,1,,,,,,0.067592621,-0.266666695,1,0,0,2.0255,Diorite_rect,6,0,6,0,1,
6629f95a14b6006e6a4b0aef,SCN,2024-06-12_13h39.14.831,LearnStrategy,2023.2.3,Win32,59.88023952,6,2,8,,,,,,,,3,07,,,,,,,,,,,3,1.113,1,,,,,,0.067592621,-0.266666695,1,0,0,1.1126,Diorite_rect,7,0,7,0,1,
6629f95a14b6006e6a4b0aef,SCN,2024-06-12_13h39.14.831,LearnStrategy,2023.2.3,Win32,59.88023952,6,2,9,,,,,,,,4,10,,,,,,,,,,,5,2.39,0,,,,,,-0.35833334,-0.421296296,1,0,0,2.3896,Obsidian_rect,8,0,8,0,1,
6629f95a14b6006e6a4b0aef,SCN,2024-06-12_13h39.14.831,LearnStrategy,2023.2.3,Win32,59.88023952,6,2,10,,,,,,,,7,04,,,,,,,,,,,7,2.243,1,,,,,,0.070370356,-0.40370369,1,0,0,2.2431,Peridotite_rect,9,0,9,0,1,
6629f95a14b6006e6a4b0aef,SCN,2024-06-12_13h39.14.831,LearnStrategy,2023.2.3,Win32,59.88023952,6,2,11,,,,,,,,1,03,,,,,,,,,,,1,8.59,1,,,,,,-0.341666645,-0.264814801,1,0,0,8.5904,Andesite_rect,10,0,10,0,1,
6629f95a14b6006e6a4b0aef,SCN,2024-06-12_13h39.14.831,LearnStrategy,2023.2.3,Win32,59.88023952,6,2,12,,,,,,,,8,08,,,,,,,,,,,8,1.666,1,,,,,,0.333333333,-0.413888931,1,0,0,1.6661,Pumice_rect,11,0,11,0,1,
6629f95a14b6006e6a4b0aef,SCN,2024-06-12_13h39.14.831,LearnStrategy,2023.2.3,Win32,59.88023952,6,2,13,,,,,,,,2,05,,,,,,,,,,,5,3.62,0,,,,,,-0.324999986,-0.411111125,1,0,0,3.6202,Obsidian_rect,12,0,12,0,1,
6629f95a14b6006e6a4b0aef,SCN,2024-06-12_13h39.14.831,LearnStrategy,2023.2.3,Win32,59.88023952,6,2,14,,,,,,,,5,05,,,,,,,,,,,6,1.397,0,,,,,,-0.133333347,-0.387037065,1,0,0,1.397,Pegmatite_rect,13,0,13,0,1,
6629f95a14b6006e6a4b0aef,SCN,2024-06-12_13h39.14.831,LearnStrategy,2023.2.3,Win32,59.88023952,6,2,15,,,,,,,,7,14,,,,,,,,,,,7,2.924,1,,,,,,0.100000028,-0.398148148,1,0,0,2.9238,Peridotite_rect,14,0,14,0,1,
6629f95a14b6006e6a4b0aef,SCN,2024-06-12_13h39.14.831,LearnStrategy,2023.2.3,Win32,59.88023952,6,2,16,,,,,,,,8,06,,,,,,,,,,,8,1.551,1,,,,,,0.357407464,-0.378703718,1,0,0,1.5511,Pumice_rect,15,0,15,0,1,
6629f95a14b6006e6a4b0aef,SCN,2024-06-12_13h39.14.831,LearnStrategy,2023.2.3,Win32,59.88023952,7,1,1,0.058333362,0.091666645,1,0,0,3.6005,Obsidian_09,5,09,4,5,3.601,-0.375,-0.389814801,1,0,0,2.1245,Obsidian_rect,5,2.124,1,0,0,0,0,1,,,,,,,,,,,,,
6629f95a14b6006e6a4b0aef,SCN,2024-06-12_13h39.14.831,LearnStrategy,2023.2.3,Win32,59.88023952,7,1,2,-0.044444402,0.101851852,1,0,0,1.2213,Obsidian_04,5,04,4,4,1.221,-0.350925905,-0.400925954,1,0,0,1.0299,Obsidian_rect,5,1.03,1,1,0,1,0,1,,,,,,,,,,,,,
6629f95a14b6006e6a4b0aef,SCN,2024-06-12_13h39.14.831,LearnStrategy,2023.2.3,Win32,59.88023952,7,1,3,0.388888889,-0.10092594,1,0,0,1.9077,Basalt_04,2,04,3,7,1.908,-0.413888896,-0.398148148,1,0,0,1.5906,Obsidian_rect,5,1.591,0,2,0,2,0,1,,,,,,,,,,,,,
6629f95a14b6006e6a4b0aef,SCN,2024-06-12_13h39.14.831,LearnStrategy,2023.2.3,Win32,59.88023952,7,1,4,0.399074131,-0.406481496,1,0,0,2.8212,Pumice_03,8,03,1,7,2.821,0.382407436,-0.400000042,1,0,0,2.0037,Pumice_rect,8,2.004,1,3,0,3,0,1,,,,,,,,,,,,,
6629f95a14b6006e6a4b0aef,SCN,2024-06-12_13h39.14.831,LearnStrategy,2023.2.3,Win32,59.88023952,7,1,5,0.551851908,-0.262962977,1,0,0,2.0581,Gabbro_13,4,13,2,8,2.058,-0.355555534,-0.234259288,1,0,0,4.7405,Andesite_rect,1,4.741,0,4,0,4,0,1,,,,,,,,,,,,,
6629f95a14b6006e6a4b0aef,SCN,2024-06-12_13h39.14.831,LearnStrategy,2023.2.3,Win32,59.88023952,7,1,6,-0.209259245,0.2574074,1,0,0,1.4819,Peridotite_07,7,07,5,3,1.482,0.071296339,-0.391666695,1,0,0,1.6279,Peridotite_rect,7,1.628,1,5,0,5,0,1,,,,,,,,,,,,,
6629f95a14b6006e6a4b0aef,SCN,2024-06-12_13h39.14.831,LearnStrategy,2023.2.3,Win32,59.88023952,7,1,7,0.244444459,0.251851841,1,0,0,1.2486,Diorite_13,3,13,5,6,1.249,0.108333376,-0.241666653,1,0,0,1.8415,Diorite_rect,3,1.841,1,6,0,6,0,1,,,,,,,,,,,,,
6629f95a14b6006e6a4b0aef,SCN,2024-06-12_13h39.14.831,LearnStrategy,2023.2.3,Win32,59.88023952,7,1,8,0.243518547,0.391666668,1,0,0,1.1193,Diorite_02,3,02,6,6,1.119,0.093518504,-0.237037023,1,0,0,1.2434,Diorite_rect,3,1.243,1,7,0,7,0,1,,,,,,,,,,,,,
6629f95a14b6006e6a4b0aef,SCN,2024-06-12_13h39.14.831,LearnStrategy,2023.2.3,Win32,59.88023952,7,1,9,-0.04814812,0.401851848,1,0,0,1.1094,Diorite_09,3,09,6,4,1.109,0.104629658,-0.270370413,1,0,0,1.1314,Diorite_rect,3,1.131,1,8,0,8,0,1,,,,,,,,,,,,,
6629f95a14b6006e6a4b0aef,SCN,2024-06-12_13h39.14.831,LearnStrategy,2023.2.3,Win32,59.88023952,7,1,10,-0.099074046,0.087962963,1,0,0,0.9261,Obsidian_04,5,04,4,4,0.926,-0.354629623,-0.37962963,1,0,0,1.1895,Obsidian_rect,5,1.189,1,9,0,9,0,1,,,,,,,,,,,,,
6629f95a14b6006e6a4b0aef,SCN,2024-06-12_13h39.14.831,LearnStrategy,2023.2.3,Win32,59.88023952,7,1,11,0.070370356,0.074074074,1,0,0,1.0615,Obsidian_09,5,09,4,5,1.062,-0.426851838,-0.412962949,1,0,0,1.6055,Obsidian_rect,5,1.605,1,10,0,10,0,1,,,,,,,,,,,,,
6629f95a14b6006e6a4b0aef,SCN,2024-06-12_13h39.14.831,LearnStrategy,2023.2.3,Win32,59.88023952,7,1,12,-0.25,-0.429629644,1,0,0,4.3816,Pumice_02,8,02,1,3,4.382,0.365740741,-0.400925954,1,0,0,1.6155,Pumice_rect,8,1.616,1,11,0,11,0,1,,,,,,,,,,,,,
6629f95a14b6006e6a4b0aef,SCN,2024-06-12_13h39.14.831,LearnStrategy,2023.2.3,Win32,59.88023952,7,1,13,-0.512962942,-0.087962963,1,0,0,1.1153,Diorite_06,3,06,3,1,1.115,0.077777792,-0.248148176,1,0,0,3.2531,Diorite_rect,3,3.253,1,12,0,12,0,1,,,,,,,,,,,,,
6629f95a14b6006e6a4b0aef,SCN,2024-06-12_13h39.14.831,LearnStrategy,2023.2.3,Win32,59.88023952,7,1,14,-0.378703683,-0.101851852,1,0,0,1.4735,Obsidian_16,5,16,3,2,1.474,-0.345370363,-0.397222236,1,0,0,1.1168,Obsidian_rect,5,1.117,1,13,0,13,0,1,,,,,,,,,,,,,
6629f95a14b6006e6a4b0aef,SCN,2024-06-12_13h39.14.831,LearnStrategy,2023.2.3,Win32,59.88023952,7,1,15,-0.207407422,0.238888882,1,0,0,1.8054,Peridotite_07,7,07,5,3,1.805,0.084259245,-0.381481524,1,0,0,1.6056,Peridotite_rect,7,1.606,1,14,0,14,0,1,,,,,,,,,,,,,
6629f95a14b6006e6a4b0aef,SCN,2024-06-12_13h39.14.831,LearnStrategy,2023.2.3,Win32,59.88023952,7,1,16,-0.068518533,0.082407386,1,0,0,0.8352,Obsidian_04,5,04,4,4,0.835,-0.374074053,-0.391666695,1,0,0,0.9607,Obsidian_rect,5,0.961,1,15,0,15,0,1,,,,,,,,,,,,,
6629f95a14b6006e6a4b0aef,SCN,2024-06-12_13h39.14.831,LearnStrategy,2023.2.3,Win32,59.88023952,7,2,1,,,,,,,,6,15,,,,,,,,,,,6,3.166,1,,,,,,-0.126851824,-0.393518519,1,0,0,3.1662,Pegmatite_rect,0,0,0,0,1,
6629f95a14b6006e6a4b0aef,SCN,2024-06-12_13h39.14.831,LearnStrategy,2023.2.3,Win32,59.88023952,7,2,2,,,,,,,,7,15,,,,,,,,,,,7,1.573,1,,,,,,0.065740727,-0.390740783,1,0,0,1.5727,Peridotite_rect,1,0,1,0,1,
6629f95a14b6006e6a4b0aef,SCN,2024-06-12_13h39.14.831,LearnStrategy,2023.2.3,Win32,59.88023952,7,2,3,,,,,,,,1,16,,,,,,,,,,,1,2.113,1,,,,,,-0.372222229,-0.255555541,1,0,0,2.1128,Andesite_rect,2,0,2,0,1,
6629f95a14b6006e6a4b0aef,SCN,2024-06-12_13h39.14.831,LearnStrategy,2023.2.3,Win32,59.88023952,7,2,4,,,,,,,,5,05,,,,,,,,,,,6,1.865,0,,,,,,-0.14907406,-0.395370413,1,0,0,1.8652,Pegmatite_rect,3,0,3,0,1,
6629f95a14b6006e6a4b0aef,SCN,2024-06-12_13h39.14.831,LearnStrategy,2023.2.3,Win32,59.88023952,7,2,5,,,,,,,,3,16,,,,,,,,,,,3,2.641,1,,,,,,0.165740755,-0.242592635,1,0,0,2.6408,Diorite_rect,4,0,4,0,1,
6629f95a14b6006e6a4b0aef,SCN,2024-06-12_13h39.14.831,LearnStrategy,2023.2.3,Win32,59.88023952,7,2,6,,,,,,,,2,12,,,,,,,,,,,8,8.058,0,,,,,,0.32222225,-0.391666695,1,0,0,8.0584,Pumice_rect,5,0,5,0,1,
6629f95a14b6006e6a4b0aef,SCN,2024-06-12_13h39.14.831,LearnStrategy,2023.2.3,Win32,59.88023952,7,2,7,,,,,,,,7,14,,,,,,,,,,,8,7.926,0,,,,,,0.32222225,-0.391666695,1,0,0,7.9265,Pumice_rect,6,0,6,0,1,
6629f95a14b6006e6a4b0aef,SCN,2024-06-12_13h39.14.831,LearnStrategy,2023.2.3,Win32,59.88023952,7,2,8,,,,,,,,3,14,,,,,,,,,,,3,1.896,1,,,,,,0.181481467,-0.267592607,1,0,0,1.8964,Diorite_rect,7,0,7,0,1,
6629f95a14b6006e6a4b0aef,SCN,2024-06-12_13h39.14.831,LearnStrategy,2023.2.3,Win32,59.88023952,7,2,9,,,,,,,,8,04,,,,,,,,,,,8,1.456,1,,,,,,0.367592564,-0.380555541,1,0,0,1.4557,Pumice_rect,8,0,8,0,1,
6629f95a14b6006e6a4b0aef,SCN,2024-06-12_13h39.14.831,LearnStrategy,2023.2.3,Win32,59.88023952,7,2,10,,,,,,,,2,05,,,,,,,,,,,2,3.227,1,,,,,,-0.091666681,-0.246296282,1,0,0,3.2275,Basalt_rect,9,0,9,0,1,
6629f95a14b6006e6a4b0aef,SCN,2024-06-12_13h39.14.831,LearnStrategy,2023.2.3,Win32,59.88023952,7,2,11,,,,,,,,5,12,,,,,,,,,,,5,3.308,1,,,,,,-0.337962963,-0.387962977,1,0,0,3.3076,Obsidian_rect,10,0,10,0,1,
6629f95a14b6006e6a4b0aef,SCN,2024-06-12_13h39.14.831,LearnStrategy,2023.2.3,Win32,59.88023952,7,2,12,,,,,,,,6,06,,,,,,,,,,,6,1.921,1,,,,,,-0.148148148,-0.400925954,1,0,0,1.9209,Pegmatite_rect,11,0,11,0,1,
6629f95a14b6006e6a4b0aef,SCN,2024-06-12_13h39.14.831,LearnStrategy,2023.2.3,Win32,59.88023952,7,2,13,,,,,,,,4,12,,,,,,,,,,,4,5.443,1,,,,,,0.334259316,-0.248148176,1,0,0,5.4428,Gabbro_rect,12,0,12,0,1,
6629f95a14b6006e6a4b0aef,SCN,2024-06-12_13h39.14.831,LearnStrategy,2023.2.3,Win32,59.88023952,7,2,14,,,,,,,,4,10,,,,,,,,,,,4,11.621,1,,,,,,0.387037065,-0.243518547,1,0,0,11.6207,Gabbro_rect,13,0,13,0,1,
6629f95a14b6006e6a4b0aef,SCN,2024-06-12_13h39.14.831,LearnStrategy,2023.2.3,Win32,59.88023952,7,2,15,,,,,,,,1,05,,,,,,,,,,,1,1.864,1,,,,,,-0.329629616,-0.235185199,1,0,0,1.8644,Andesite_rect,14,0,14,0,1,
6629f95a14b6006e6a4b0aef,SCN,2024-06-12_13h39.14.831,LearnStrategy,2023.2.3,Win32,59.88023952,7,2,16,,,,,,,,8,13,,,,,,,,,,,8,2.061,1,,,,,,0.324074074,-0.40370369,1,0,0,2.0608,Pumice_rect,15,0,15,0,1,
6629f95a14b6006e6a4b0aef,SCN,2024-06-12_13h39.14.831,LearnStrategy,2023.2.3,Win32,59.88023952,8,1,1,-0.065740727,0.090740734,1,0,0,1.0964,Obsidian_04,5,04,4,4,1.096,-0.356481481,-0.398148148,1,0,0,0.9626,Obsidian_rect,5,0.963,1,0,0,0,0,1,,,,,,,,,,,,,
6629f95a14b6006e6a4b0aef,SCN,2024-06-12_13h39.14.831,LearnStrategy,2023.2.3,Win32,59.88023952,8,1,2,0.059259273,0.109259252,1,0,0,0.9226,Obsidian_09,5,09,4,5,0.923,-0.424074067,-0.417592578,1,0,0,1.0796,Obsidian_rect,5,1.08,1,1,0,1,0,1,,,,,,,,,,,,,
6629f95a14b6006e6a4b0aef,SCN,2024-06-12_13h39.14.831,LearnStrategy,2023.2.3,Win32,59.88023952,8,1,3,0.246296282,-0.080555563,1,0,0,1.3146,Pegmatite_12,6,12,3,6,1.315,-0.182407379,-0.389814801,1,0,0,1.3861,Pegmatite_rect,6,1.386,1,2,0,2,0,1,,,,,,,,,,,,,
6629f95a14b6006e6a4b0aef,SCN,2024-06-12_13h39.14.831,LearnStrategy,2023.2.3,Win32,59.88023952,8,1,4,0.373148176,-0.385185171,1,0,0,1.5006,Pumice_03,8,03,1,7,1.501,0.36018527,-0.387037065,1,0,0,0.9952,Pumice_rect,8,0.995,1,3,0,3,0,1,,,,,,,,,,,,,
6629f95a14b6006e6a4b0aef,SCN,2024-06-12_13h39.14.831,LearnStrategy,2023.2.3,Win32,59.88023952,8,1,5,0.534259231,-0.113888917,1,0,0,1.2376,Andesite_09,1,09,3,8,1.238,-0.062962921,-0.25,1,0,0,2.3712,Basalt_rect,2,2.371,0,4,0,4,0,1,,,,,,,,,,,,,
6629f95a14b6006e6a4b0aef,SCN,2024-06-12_13h39.14.831,LearnStrategy,2023.2.3,Win32,59.88023952,8,1,6,0.212037051,0.084259245,1,0,0,1.1526,Andesite_11,1,11,4,6,1.153,-0.363888882,-0.239814829,1,0,0,1.2939,Andesite_rect,1,1.294,1,5,0,5,0,1,,,,,,,,,,,,,
6629f95a14b6006e6a4b0aef,SCN,2024-06-12_13h39.14.831,LearnStrategy,2023.2.3,Win32,59.88023952,8,1,7,0.24537037,0.410185187,1,0,0,0.9735,Diorite_02,3,02,6,6,0.973,0.166666667,-0.233333376,1,0,0,1.9137,Diorite_rect,3,1.914,1,6,0,6,0,1,,,,,,,,,,,,,
6629f95a14b6006e6a4b0aef,SCN,2024-06-12_13h39.14.831,LearnStrategy,2023.2.3,Win32,59.88023952,8,1,8,-0.033333319,0.388888889,1,0,0,1.3042,Diorite_09,3,09,6,4,1.304,0.12037037,-0.244444459,1,0,0,1.2239,Diorite_rect,3,1.224,1,7,0,7,0,1,,,,,,,,,,,,,
6629f95a14b6006e6a4b0aef,SCN,2024-06-12_13h39.14.831,LearnStrategy,2023.2.3,Win32,59.88023952,8,1,9,0.246296282,0.233333323,1,0,0,1.2145,Diorite_13,3,13,5,6,1.215,0.073148162,-0.232407393,1,0,0,1.0115,Diorite_rect,3,1.011,1,8,0,8,0,1,,,,,,,,,,,,,
6629f95a14b6006e6a4b0aef,SCN,2024-06-12_13h39.14.831,LearnStrategy,2023.2.3,Win32,59.88023952,8,1,10,-0.233333305,0.408333328,1,0,0,1.9578,Pumice_14,8,14,6,3,1.958,0.348148205,-0.385185171,1,0,0,1.717,Pumice_rect,8,1.717,1,9,0,9,0,1,,,,,,,,,,,,,
6629f95a14b6006e6a4b0aef,SCN,2024-06-12_13h39.14.831,LearnStrategy,2023.2.3,Win32,59.88023952,8,1,11,-0.349074081,0.237037041,1,0,0,1.289,Pegmatite_05,6,05,5,2,1.289,-0.124074088,-0.396296325,1,0,0,2.9333,Pegmatite_rect,6,2.933,1,10,0,10,0,1,,,,,,,,,,,,,
6629f95a14b6006e6a4b0aef,SCN,2024-06-12_13h39.14.831,LearnStrategy,2023.2.3,Win32,59.88023952,8,1,12,0.092592593,-0.104629658,1,0,0,0.863,Basalt_14,2,14,3,5,0.863,-0.087037051,-0.257407436,1,0,0,0.9403,Basalt_rect,2,0.94,1,11,0,11,0,1,,,,,,,,,,,,,
6629f95a14b6006e6a4b0aef,SCN,2024-06-12_13h39.14.831,LearnStrategy,2023.2.3,Win32,59.88023952,8,1,13,-0.523148148,0.260185189,1,0,0,2.7016,Peridotite_16,7,16,5,1,2.702,0.141666695,-0.384259259,1,0,0,2.1088,Peridotite_rect,7,2.109,1,12,0,12,0,1,,,,,,,,,,,,,
6629f95a14b6006e6a4b0aef,SCN,2024-06-12_13h39.14.831,LearnStrategy,2023.2.3,Win32,59.88023952,8,1,14,0.252777806,-0.292592578,1,0,0,1.7656,Peridotite_06,7,06,2,6,1.766,0.205555598,-0.400000042,1,0,0,1.0341,Peridotite_rect,7,1.034,1,13,0,13,0,1,,,,,,,,,,,,,
6629f95a14b6006e6a4b0aef,SCN,2024-06-12_13h39.14.831,LearnStrategy,2023.2.3,Win32,59.88023952,8,1,15,0.395370342,0.072222215,1,0,0,2.0082,Pumice_16,8,16,4,7,2.008,0.394444501,-0.402777778,1,0,0,1.6091,Pumice_rect,8,1.609,1,14,0,14,0,1,,,,,,,,,,,,,
6629f95a14b6006e6a4b0aef,SCN,2024-06-12_13h39.14.831,LearnStrategy,2023.2.3,Win32,59.88023952,8,1,16,-0.374074053,0.089814822,1,0,0,1.4959,Peridotite_10,7,10,4,2,1.496,0.093518504,-0.39444443,1,0,0,1.6116,Peridotite_rect,7,1.612,1,15,0,15,0,1,,,,,,,,,,,,,
6629f95a14b6006e6a4b0aef,SCN,2024-06-12_13h39.14.831,LearnStrategy,2023.2.3,Win32,59.88023952,8,2,1,,,,,,,,6,11,,,,,,,,,,,6,2.696,1,,,,,,-0.074074074,-0.413888931,1,0,0,2.6961,Pegmatite_rect,0,0,0,0,1,
6629f95a14b6006e6a4b0aef,SCN,2024-06-12_13h39.14.831,LearnStrategy,2023.2.3,Win32,59.88023952,8,2,2,,,,,,,,7,08,,,,,,,,,,,7,1.563,1,,,,,,0.113888917,-0.414814843,1,0,0,1.5633,Peridotite_rect,1,0,1,0,1,
6629f95a14b6006e6a4b0aef,SCN,2024-06-12_13h39.14.831,LearnStrategy,2023.2.3,Win32,59.88023952,8,2,3,,,,,,,,5,02,,,,,,,,,,,5,1.319,1,,,,,,-0.326851845,-0.395370413,1,0,0,1.3193,Obsidian_rect,2,0,2,0,1,
6629f95a14b6006e6a4b0aef,SCN,2024-06-12_13h39.14.831,LearnStrategy,2023.2.3,Win32,59.88023952,8,2,4,,,,,,,,2,06,,,,,,,,,,,2,2.071,1,,,,,,-0.110185199,-0.270370413,1,0,0,2.0707,Basalt_rect,3,0,3,0,1,
6629f95a14b6006e6a4b0aef,SCN,2024-06-12_13h39.14.831,LearnStrategy,2023.2.3,Win32,59.88023952,8,2,5,,,,,,,,8,15,,,,,,,,,,,8,1.538,1,,,,,,0.333333333,-0.404629672,1,0,0,1.5384,Pumice_rect,4,0,4,0,1,
6629f95a14b6006e6a4b0aef,SCN,2024-06-12_13h39.14.831,LearnStrategy,2023.2.3,Win32,59.88023952,8,2,6,,,,,,,,5,06,,,,,,,,,,,6,1.49,0,,,,,,-0.10555557,-0.400925954,1,0,0,1.4897,Pegmatite_rect,5,0,5,0,1,
6629f95a14b6006e6a4b0aef,SCN,2024-06-12_13h39.14.831,LearnStrategy,2023.2.3,Win32,59.88023952,8,2,7,,,,,,,,3,08,,,,,,,,,,,3,2.162,1,,,,,,0.156481496,-0.257407436,1,0,0,2.1617,Diorite_rect,6,0,6,0,1,
6629f95a14b6006e6a4b0aef,SCN,2024-06-12_13h39.14.831,LearnStrategy,2023.2.3,Win32,59.88023952,8,2,8,,,,,,,,4,05,,,,,,,,,,,4,9.267,1,,,,,,0.327777863,-0.252777806,1,0,0,9.2665,Gabbro_rect,7,0,7,0,1,
6629f95a14b6006e6a4b0aef,SCN,2024-06-12_13h39.14.831,LearnStrategy,2023.2.3,Win32,59.88023952,8,2,9,,,,,,,,2,16,,,,,,,,,,,2,2.059,1,,,,,,-0.093518504,-0.239814829,1,0,0,2.0591,Basalt_rect,8,0,8,0,1,
6629f95a14b6006e6a4b0aef,SCN,2024-06-12_13h39.14.831,LearnStrategy,2023.2.3,Win32,59.88023952,8,2,10,,,,,,,,1,06,,,,,,,,,,,1,1.877,1,,,,,,-0.336111104,-0.260185171,1,0,0,1.8767,Andesite_rect,9,0,9,0,1,
6629f95a14b6006e6a4b0aef,SCN,2024-06-12_13h39.14.831,LearnStrategy,2023.2.3,Win32,59.88023952,8,2,11,,,,,,,,6,10,,,,,,,,,,,6,2.355,1,,,,,,-0.115740741,-0.387962977,1,0,0,2.355,Pegmatite_rect,10,0,10,0,1,
6629f95a14b6006e6a4b0aef,SCN,2024-06-12_13h39.14.831,LearnStrategy,2023.2.3,Win32,59.88023952,8,2,12,,,,,,,,7,04,,,,,,,,,,,7,9.107,1,,,,,,0.127777806,-0.408333319,1,0,0,9.1067,Peridotite_rect,11,0,11,0,1,
6629f95a14b6006e6a4b0aef,SCN,2024-06-12_13h39.14.831,LearnStrategy,2023.2.3,Win32,59.88023952,8,2,13,,,,,,,,4,16,,,,,,,,,,,5,5.23,0,,,,,,-0.335185192,-0.406481496,1,0,0,5.2301,Obsidian_rect,12,0,12,0,1,
6629f95a14b6006e6a4b0aef,SCN,2024-06-12_13h39.14.831,LearnStrategy,2023.2.3,Win32,59.88023952,8,2,14,,,,,,,,8,06,,,,,,,,,,,8,1.31,1,,,,,,0.393518519,-0.39907406,1,0,0,1.31,Pumice_rect,13,0,13,0,1,
6629f95a14b6006e6a4b0aef,SCN,2024-06-12_13h39.14.831,LearnStrategy,2023.2.3,Win32,59.88023952,8,2,15,,,,,,,,3,12,,,,,,,,,,,3,2.08,1,,,,,,0.097222222,-0.250925912,1,0,0,2.0795,Diorite_rect,14,0,14,0,1,
6629f95a14b6006e6a4b0aef,SCN,2024-06-12_13h39.14.831,LearnStrategy,2023.2.3,Win32,59.88023952,8,2,16,,,,,,,,1,03,,,,,,,,,,,1,2.165,1,,,,,,-0.339814822,-0.242592635,1,0,0,2.1651,Andesite_rect,15,0,15,0,1,
6629f95a14b6006e6a4b0aef,SCN,2024-06-12_13h39.14.831,LearnStrategy,2023.2.3,Win32,59.88023952,9,1,1,0.080555598,0.100925905,1,0,0,0.9854,Obsidian_09,5,09,4,5,0.985,-0.387962942,-0.415740755,1,0,0,2.5445,Obsidian_rect,5,2.544,1,0,0,0,0,1,,,,,,,,,,,,,
6629f95a14b6006e6a4b0aef,SCN,2024-06-12_13h39.14.831,LearnStrategy,2023.2.3,Win32,59.88023952,9,1,2,-0.063888903,0.094444452,1,0,0,0.7526,Obsidian_04,5,04,4,4,0.753,-0.339814822,-0.411111125,1,0,0,1.0385,Obsidian_rect,5,1.038,1,1,0,1,0,1,,,,,,,,,,,,,
6629f95a14b6006e6a4b0aef,SCN,2024-06-12_13h39.14.831,LearnStrategy,2023.2.3,Win32,59.88023952,9,1,3,-0.208333333,0.091666645,1,0,0,1.1625,Basalt_10,2,10,4,3,1.163,-0.151851866,-0.253703718,1,0,0,1.3458,Basalt_rect,2,1.346,1,2,0,2,0,1,,,,,,,,,,,,,
6629f95a14b6006e6a4b0aef,SCN,2024-06-12_13h39.14.831,LearnStrategy,2023.2.3,Win32,59.88023952,9,1,4,-0.209259245,-0.08888891,1,0,0,1.3721,Peridotite_05,7,05,3,3,1.372,0.369444529,-0.256481524,1,0,0,3.6508,Gabbro_rect,4,3.651,0,3,0,3,0,1,,,,,,,,,,,,,
6629f95a14b6006e6a4b0aef,SCN,2024-06-12_13h39.14.831,LearnStrategy,2023.2.3,Win32,59.88023952,9,1,5,0.077777792,-0.25,1,0,0,1.1613,Gabbro_15,4,15,2,5,1.161,0.387037065,-0.250925912,1,0,0,4.0892,Gabbro_rect,4,4.089,1,4,0,4,0,1,,,,,,,,,,,,,
6629f95a14b6006e6a4b0aef,SCN,2024-06-12_13h39.14.831,LearnStrategy,2023.2.3,Win32,59.88023952,9,1,6,0.101851852,-0.090740734,1,0,0,1.2451,Basalt_14,2,14,3,5,1.245,-0.121296282,-0.231481481,1,0,0,0.9423,Basalt_rect,2,0.942,1,5,0,5,0,1,,,,,,,,,,,,,
6629f95a14b6006e6a4b0aef,SCN,2024-06-12_13h39.14.831,LearnStrategy,2023.2.3,Win32,59.88023952,9,1,7,0.237963005,-0.081481474,1,0,0,1.1965,Pegmatite_12,6,12,3,6,1.197,-0.161111125,-0.392592607,1,0,0,1.1218,Pegmatite_rect,6,1.122,1,6,0,6,0,1,,,,,,,,,,,,,
6629f95a14b6006e6a4b0aef,SCN,2024-06-12_13h39.14.831,LearnStrategy,2023.2.3,Win32,59.88023952,9,1,8,-0.407407407,-0.397222236,1,0,0,2.1643,Obsidian_07,5,07,1,2,2.164,-0.14907406,-0.383333347,1,0,0,1.2841,Pegmatite_rect,6,1.284,0,7,0,7,0,1,,,,,,,,,,,,,
6629f95a14b6006e6a4b0aef,SCN,2024-06-12_13h39.14.831,LearnStrategy,2023.2.3,Win32,59.88023952,9,1,9,0.234259288,-0.400925954,1,0,0,4.6164,Pegmatite_03,6,03,1,6,4.616,0.124074088,-0.40370369,1,0,0,1.4853,Peridotite_rect,7,1.485,0,8,0,8,0,1,,,,,,,,,,,,,
6629f95a14b6006e6a4b0aef,SCN,2024-06-12_13h39.14.831,LearnStrategy,2023.2.3,Win32,59.88023952,9,1,10,-0.232407393,0.386111109,1,0,0,2.573,Pumice_14,8,14,6,3,2.573,0.359259288,-0.400000042,1,0,0,1.1867,Pumice_rect,8,1.187,1,9,0,9,0,1,,,,,,,,,,,,,
6629f95a14b6006e6a4b0aef,SCN,2024-06-12_13h39.14.831,LearnStrategy,2023.2.3,Win32,59.88023952,9,1,11,-0.10092594,0.405555557,1,0,0,1.3386,Diorite_09,3,09,6,4,1.339,0.15370369,-0.248148176,1,0,0,1.5451,Diorite_rect,3,1.545,1,10,0,10,0,1,,,,,,,,,,,,,
6629f95a14b6006e6a4b0aef,SCN,2024-06-12_13h39.14.831,LearnStrategy,2023.2.3,Win32,59.88023952,9,1,12,0.248148176,0.421296296,1,0,0,1.1728,Diorite_02,3,02,6,6,1.173,0.101851852,-0.246296282,1,0,0,1.2145,Diorite_rect,3,1.214,1,11,0,11,0,1,,,,,,,,,,,,,
6629f95a14b6006e6a4b0aef,SCN,2024-06-12_13h39.14.831,LearnStrategy,2023.2.3,Win32,59.88023952,9,1,13,0.066666709,0.369444441,1,0,0,1.0532,Andesite_07,1,07,6,5,1.053,-0.449999986,-0.24537037,1,0,0,0.93,Andesite_rect,1,0.93,1,12,0,12,0,1,,,,,,,,,,,,,
6629f95a14b6006e6a4b0aef,SCN,2024-06-12_13h39.14.831,LearnStrategy,2023.2.3,Win32,59.88023952,9,1,14,0.215740769,0.065740727,1,0,0,1.1138,Andesite_11,1,11,4,6,1.114,-0.336111104,-0.266666695,1,0,0,1.0824,Andesite_rect,1,1.082,1,13,0,13,0,1,,,,,,,,,,,,,
6629f95a14b6006e6a4b0aef,SCN,2024-06-12_13h39.14.831,LearnStrategy,2023.2.3,Win32,59.88023952,9,1,15,0.362037094,-0.404629672,1,0,0,2.0148,Pumice_03,8,03,1,7,2.015,0.362037094,-0.407407407,1,0,0,1.4549,Pumice_rect,8,1.455,1,14,0,14,0,1,,,,,,,,,,,,,
6629f95a14b6006e6a4b0aef,SCN,2024-06-12_13h39.14.831,LearnStrategy,2023.2.3,Win32,59.88023952,9,1,16,0.378703788,-0.141666695,1,0,0,1.0701,Basalt_04,2,04,3,7,1.07,-0.112962935,-0.241666653,1,0,0,1.3884,Basalt_rect,2,1.388,1,15,0,15,0,1,,,,,,,,,,,,,
6629f95a14b6006e6a4b0aef,SCN,2024-06-12_13h39.14.831,LearnStrategy,2023.2.3,Win32,59.88023952,9,2,1,,,,,,,,7,02,,,,,,,,,,,7,1.893,1,,,,,,0.102777764,-0.395370413,1,0,0,1.8929,Peridotite_rect,0,0,0,0,1,
6629f95a14b6006e6a4b0aef,SCN,2024-06-12_13h39.14.831,LearnStrategy,2023.2.3,Win32,59.88023952,9,2,2,,,,,,,,4,09,,,,,,,,,,,5,3.481,0,,,,,,-0.349999993,-0.400000042,1,0,0,3.4811,Obsidian_rect,1,0,1,0,1,
6629f95a14b6006e6a4b0aef,SCN,2024-06-12_13h39.14.831,LearnStrategy,2023.2.3,Win32,59.88023952,9,2,3,,,,,,,,1,02,,,,,,,,,,,4,6.637,0,,,,,,0.369444529,-0.256481524,1,0,0,6.6374,Gabbro_rect,2,0,2,0,1,
6629f95a14b6006e6a4b0aef,SCN,2024-06-12_13h39.14.831,LearnStrategy,2023.2.3,Win32,59.88023952,9,2,4,,,,,,,,3,07,,,,,,,,,,,3,1.244,1,,,,,,0.179629644,-0.264814801,1,0,0,1.2435,Diorite_rect,3,0,3,0,1,
6629f95a14b6006e6a4b0aef,SCN,2024-06-12_13h39.14.831,LearnStrategy,2023.2.3,Win32,59.88023952,9,2,5,,,,,,,,7,13,,,,,,,,,,,7,7.701,1,,,,,,0.172222208,-0.402777778,1,0,0,7.7005,Peridotite_rect,4,0,4,0,1,
6629f95a14b6006e6a4b0aef,SCN,2024-06-12_13h39.14.831,LearnStrategy,2023.2.3,Win32,59.88023952,9,2,6,,,,,,,,3,11,,,,,,,,,,,3,1.554,1,,,,,,0.162037037,-0.250925912,1,0,0,1.5539,Diorite_rect,5,0,5,0,1,
6629f95a14b6006e6a4b0aef,SCN,2024-06-12_13h39.14.831,LearnStrategy,2023.2.3,Win32,59.88023952,9,2,7,,,,,,,,1,14,,,,,,,,,,,1,9.022,1,,,,,,-0.325925933,-0.25462963,1,0,0,9.0217,Andesite_rect,6,0,6,0,1,
6629f95a14b6006e6a4b0aef,SCN,2024-06-12_13h39.14.831,LearnStrategy,2023.2.3,Win32,59.88023952,9,2,8,,,,,,,,5,14,,,,,,,,,,,5,1.688,1,,,,,,-0.395370377,-0.400000042,1,0,0,1.6881,Obsidian_rect,7,0,7,0,1,
6629f95a14b6006e6a4b0aef,SCN,2024-06-12_13h39.14.831,LearnStrategy,2023.2.3,Win32,59.88023952,9,2,9,,,,,,,,6,13,,,,,,,,,,,6,3.017,1,,,,,,-0.146296254,-0.401851866,1,0,0,3.0172,Pegmatite_rect,8,0,8,0,1,
6629f95a14b6006e6a4b0aef,SCN,2024-06-12_13h39.14.831,LearnStrategy,2023.2.3,Win32,59.88023952,9,2,10,,,,,,,,2,01,,,,,,,,,,,4,7.209,0,,,,,,0.420370455,-0.253703718,1,0,0,7.2087,Gabbro_rect,9,0,9,0,1,
6629f95a14b6006e6a4b0aef,SCN,2024-06-12_13h39.14.831,LearnStrategy,2023.2.3,Win32,59.88023952,9,2,11,,,,,,,,8,05,,,,,,,,,,,8,1.302,1,,,,,,0.389814871,-0.400000042,1,0,0,1.3017,Pumice_rect,10,0,10,0,1,
6629f95a14b6006e6a4b0aef,SCN,2024-06-12_13h39.14.831,LearnStrategy,2023.2.3,Win32,59.88023952,9,2,12,,,,,,,,5,11,,,,,,,,,,,5,1.321,1,,,,,,-0.35833334,-0.410185213,1,0,0,1.3213,Obsidian_rect,11,0,11,0,1,
6629f95a14b6006e6a4b0aef,SCN,2024-06-12_13h39.14.831,LearnStrategy,2023.2.3,Win32,59.88023952,9,2,13,,,,,,,,8,08,,,,,,,,,,,8,1.624,1,,,,,,0.32222225,-0.39907406,1,0,0,1.6237,Pumice_rect,12,0,12,0,1,
6629f95a14b6006e6a4b0aef,SCN,2024-06-12_13h39.14.831,LearnStrategy,2023.2.3,Win32,59.88023952,9,2,14,,,,,,,,4,14,,,,,,,,,,,4,2.188,1,,,,,,0.358333305,-0.257407436,1,0,0,2.1877,Gabbro_rect,13,0,13,0,1,
6629f95a14b6006e6a4b0aef,SCN,2024-06-12_13h39.14.831,LearnStrategy,2023.2.3,Win32,59.88023952,9,2,15,,,,,,,,6,16,,,,,,,,,,,6,2.518,1,,,,,,-0.10555557,-0.410185213,1,0,0,2.5179,Pegmatite_rect,14,0,14,0,1,
6629f95a14b6006e6a4b0aef,SCN,2024-06-12_13h39.14.831,LearnStrategy,2023.2.3,Win32,59.88023952,9,2,16,,,,,,,,2,08,,,,,,,,,,,2,5.312,1,,,,,,-0.098148134,-0.257407436,1,0,0,5.3116,Basalt_rect,15,0,15,0,1,
6629f95a14b6006e6a4b0aef,SCN,2024-06-12_13h39.14.831,LearnStrategy,2023.2.3,Win32,59.88023952,,,,,,,,,,,,,,,,,,,,,,,,,,,,,,,,,,,,,,,,,,,1
6629f95a14b6006e6a4b0aef,SCN,2024-06-12_13h39.14.831,LearnStrategy,2023.2.3,Win32,59.88023952,,,,,,,,,,,,,,,,,,,,,,,,,,,,,,,,,,,,,,,,,,,
6629f95a14b6006e6a4b0aef,SCN,2024-06-12_13h39.14.831,LearnStrategy,2023.2.3,Win32,59.88023952,,,,,,,,,,,4,11,1,1,,,,,,,,,,,,,,,,,,,,,,,,,,,,,
6629f95a14b6006e6a4b0aef,SCN,2024-06-12_13h39.14.831,LearnStrategy,2023.2.3,Win32,59.88023952,,,,,,,,,,,5,07,1,2,,,,,,,,,,,,,,,,,,,,,,,,,,,,,
6629f95a14b6006e6a4b0aef,SCN,2024-06-12_13h39.14.831,LearnStrategy,2023.2.3,Win32,59.88023952,,,,,,,,,,,8,02,1,3,,,,,,,,,,,,,,,,,,,,,,,,,,,,,
6629f95a14b6006e6a4b0aef,SCN,2024-06-12_13h39.14.831,LearnStrategy,2023.2.3,Win32,59.88023952,,,,,,,,,,,1,10,1,4,,,,,,,,,,,,,,,,,,,,,,,,,,,,,
6629f95a14b6006e6a4b0aef,SCN,2024-06-12_13h39.14.831,LearnStrategy,2023.2.3,Win32,59.88023952,,,,,,,,,,,3,15,1,5,,,,,,,,,,,,,,,,,,,,,,,,,,,,,
6629f95a14b6006e6a4b0aef,SCN,2024-06-12_13h39.14.831,LearnStrategy,2023.2.3,Win32,59.88023952,,,,,,,,,,,6,03,1,6,,,,,,,,,,,,,,,,,,,,,,,,,,,,,
6629f95a14b6006e6a4b0aef,SCN,2024-06-12_13h39.14.831,LearnStrategy,2023.2.3,Win32,59.88023952,,,,,,,,,,,8,03,1,7,,,,,,,,,,,,,,,,,,,,,,,,,,,,,
6629f95a14b6006e6a4b0aef,SCN,2024-06-12_13h39.14.831,LearnStrategy,2023.2.3,Win32,59.88023952,,,,,,,,,,,5,10,1,8,,,,,,,,,,,,,,,,,,,,,,,,,,,,,
6629f95a14b6006e6a4b0aef,SCN,2024-06-12_13h39.14.831,LearnStrategy,2023.2.3,Win32,59.88023952,,,,,,,,,,,7,12,2,1,,,,,,,,,,,,,,,,,,,,,,,,,,,,,
6629f95a14b6006e6a4b0aef,SCN,2024-06-12_13h39.14.831,LearnStrategy,2023.2.3,Win32,59.88023952,,,,,,,,,,,2,02,2,2,,,,,,,,,,,,,,,,,,,,,,,,,,,,,
6629f95a14b6006e6a4b0aef,SCN,2024-06-12_13h39.14.831,LearnStrategy,2023.2.3,Win32,59.88023952,,,,,,,,,,,1,01,2,3,,,,,,,,,,,,,,,,,,,,,,,,,,,,,
6629f95a14b6006e6a4b0aef,SCN,2024-06-12_13h39.14.831,LearnStrategy,2023.2.3,Win32,59.88023952,,,,,,,,,,,1,04,2,4,,,,,,,,,,,,,,,,,,,,,,,,,,,,,
6629f95a14b6006e6a4b0aef,SCN,2024-06-12_13h39.14.831,LearnStrategy,2023.2.3,Win32,59.88023952,,,,,,,,,,,4,15,2,5,,,,,,,,,,,,,,,,,,,,,,,,,,,,,
6629f95a14b6006e6a4b0aef,SCN,2024-06-12_13h39.14.831,LearnStrategy,2023.2.3,Win32,59.88023952,,,,,,,,,,,7,06,2,6,,,,,,,,,,,,,,,,,,,,,,,,,,,,,
6629f95a14b6006e6a4b0aef,SCN,2024-06-12_13h39.14.831,LearnStrategy,2023.2.3,Win32,59.88023952,,,,,,,,,,,4,03,2,7,,,,,,,,,,,,,,,,,,,,,,,,,,,,,
6629f95a14b6006e6a4b0aef,SCN,2024-06-12_13h39.14.831,LearnStrategy,2023.2.3,Win32,59.88023952,,,,,,,,,,,4,13,2,8,,,,,,,,,,,,,,,,,,,,,,,,,,,,,
6629f95a14b6006e6a4b0aef,SCN,2024-06-12_13h39.14.831,LearnStrategy,2023.2.3,Win32,59.88023952,,,,,,,,,,,3,06,3,1,,,,,,,,,,,,,,,,,,,,,,,,,,,,,
6629f95a14b6006e6a4b0aef,SCN,2024-06-12_13h39.14.831,LearnStrategy,2023.2.3,Win32,59.88023952,,,,,,,,,,,5,16,3,2,,,,,,,,,,,,,,,,,,,,,,,,,,,,,
6629f95a14b6006e6a4b0aef,SCN,2024-06-12_13h39.14.831,LearnStrategy,2023.2.3,Win32,59.88023952,,,,,,,,,,,7,05,3,3,,,,,,,,,,,,,,,,,,,,,,,,,,,,,
6629f95a14b6006e6a4b0aef,SCN,2024-06-12_13h39.14.831,LearnStrategy,2023.2.3,Win32,59.88023952,,,,,,,,,,,5,08,3,4,,,,,,,,,,,,,,,,,,,,,,,,,,,,,
6629f95a14b6006e6a4b0aef,SCN,2024-06-12_13h39.14.831,LearnStrategy,2023.2.3,Win32,59.88023952,,,,,,,,,,,2,14,3,5,,,,,,,,,,,,,,,,,,,,,,,,,,,,,
6629f95a14b6006e6a4b0aef,SCN,2024-06-12_13h39.14.831,LearnStrategy,2023.2.3,Win32,59.88023952,,,,,,,,,,,6,12,3,6,,,,,,,,,,,,,,,,,,,,,,,,,,,,,
6629f95a14b6006e6a4b0aef,SCN,2024-06-12_13h39.14.831,LearnStrategy,2023.2.3,Win32,59.88023952,,,,,,,,,,,2,04,3,7,,,,,,,,,,,,,,,,,,,,,,,,,,,,,
6629f95a14b6006e6a4b0aef,SCN,2024-06-12_13h39.14.831,LearnStrategy,2023.2.3,Win32,59.88023952,,,,,,,,,,,1,09,3,8,,,,,,,,,,,,,,,,,,,,,,,,,,,,,
6629f95a14b6006e6a4b0aef,SCN,2024-06-12_13h39.14.831,LearnStrategy,2023.2.3,Win32,59.88023952,,,,,,,,,,,2,11,4,1,,,,,,,,,,,,,,,,,,,,,,,,,,,,,
6629f95a14b6006e6a4b0aef,SCN,2024-06-12_13h39.14.831,LearnStrategy,2023.2.3,Win32,59.88023952,,,,,,,,,,,7,10,4,2,,,,,,,,,,,,,,,,,,,,,,,,,,,,,
6629f95a14b6006e6a4b0aef,SCN,2024-06-12_13h39.14.831,LearnStrategy,2023.2.3,Win32,59.88023952,,,,,,,,,,,2,10,4,3,,,,,,,,,,,,,,,,,,,,,,,,,,,,,
6629f95a14b6006e6a4b0aef,SCN,2024-06-12_13h39.14.831,LearnStrategy,2023.2.3,Win32,59.88023952,,,,,,,,,,,5,04,4,4,,,,,,,,,,,,,,,,,,,,,,,,,,,,,
6629f95a14b6006e6a4b0aef,SCN,2024-06-12_13h39.14.831,LearnStrategy,2023.2.3,Win32,59.88023952,,,,,,,,,,,5,09,4,5,,,,,,,,,,,,,,,,,,,,,,,,,,,,,
6629f95a14b6006e6a4b0aef,SCN,2024-06-12_13h39.14.831,LearnStrategy,2023.2.3,Win32,59.88023952,,,,,,,,,,,1,11,4,6,,,,,,,,,,,,,,,,,,,,,,,,,,,,,
6629f95a14b6006e6a4b0aef,SCN,2024-06-12_13h39.14.831,LearnStrategy,2023.2.3,Win32,59.88023952,,,,,,,,,,,8,16,4,7,,,,,,,,,,,,,,,,,,,,,,,,,,,,,
6629f95a14b6006e6a4b0aef,SCN,2024-06-12_13h39.14.831,LearnStrategy,2023.2.3,Win32,59.88023952,,,,,,,,,,,3,10,4,8,,,,,,,,,,,,,,,,,,,,,,,,,,,,,
6629f95a14b6006e6a4b0aef,SCN,2024-06-12_13h39.14.831,LearnStrategy,2023.2.3,Win32,59.88023952,,,,,,,,,,,7,16,5,1,,,,,,,,,,,,,,,,,,,,,,,,,,,,,
6629f95a14b6006e6a4b0aef,SCN,2024-06-12_13h39.14.831,LearnStrategy,2023.2.3,Win32,59.88023952,,,,,,,,,,,6,05,5,2,,,,,,,,,,,,,,,,,,,,,,,,,,,,,
6629f95a14b6006e6a4b0aef,SCN,2024-06-12_13h39.14.831,LearnStrategy,2023.2.3,Win32,59.88023952,,,,,,,,,,,7,07,5,3,,,,,,,,,,,,,,,,,,,,,,,,,,,,,
6629f95a14b6006e6a4b0aef,SCN,2024-06-12_13h39.14.831,LearnStrategy,2023.2.3,Win32,59.88023952,,,,,,,,,,,6,09,5,4,,,,,,,,,,,,,,,,,,,,,,,,,,,,,
6629f95a14b6006e6a4b0aef,SCN,2024-06-12_13h39.14.831,LearnStrategy,2023.2.3,Win32,59.88023952,,,,,,,,,,,4,08,5,5,,,,,,,,,,,,,,,,,,,,,,,,,,,,,
6629f95a14b6006e6a4b0aef,SCN,2024-06-12_13h39.14.831,LearnStrategy,2023.2.3,Win32,59.88023952,,,,,,,,,,,3,13,5,6,,,,,,,,,,,,,,,,,,,,,,,,,,,,,
6629f95a14b6006e6a4b0aef,SCN,2024-06-12_13h39.14.831,LearnStrategy,2023.2.3,Win32,59.88023952,,,,,,,,,,,8,09,5,7,,,,,,,,,,,,,,,,,,,,,,,,,,,,,
6629f95a14b6006e6a4b0aef,SCN,2024-06-12_13h39.14.831,LearnStrategy,2023.2.3,Win32,59.88023952,,,,,,,,,,,8,10,5,8,,,,,,,,,,,,,,,,,,,,,,,,,,,,,
6629f95a14b6006e6a4b0aef,SCN,2024-06-12_13h39.14.831,LearnStrategy,2023.2.3,Win32,59.88023952,,,,,,,,,,,2,09,6,1,,,,,,,,,,,,,,,,,,,,,,,,,,,,,
6629f95a14b6006e6a4b0aef,SCN,2024-06-12_13h39.14.831,LearnStrategy,2023.2.3,Win32,59.88023952,,,,,,,,,,,6,08,6,2,,,,,,,,,,,,,,,,,,,,,,,,,,,,,
6629f95a14b6006e6a4b0aef,SCN,2024-06-12_13h39.14.831,LearnStrategy,2023.2.3,Win32,59.88023952,,,,,,,,,,,8,14,6,3,,,,,,,,,,,,,,,,,,,,,,,,,,,,,
6629f95a14b6006e6a4b0aef,SCN,2024-06-12_13h39.14.831,LearnStrategy,2023.2.3,Win32,59.88023952,,,,,,,,,,,3,09,6,4,,,,,,,,,,,,,,,,,,,,,,,,,,,,,
6629f95a14b6006e6a4b0aef,SCN,2024-06-12_13h39.14.831,LearnStrategy,2023.2.3,Win32,59.88023952,,,,,,,,,,,1,07,6,5,,,,,,,,,,,,,,,,,,,,,,,,,,,,,
6629f95a14b6006e6a4b0aef,SCN,2024-06-12_13h39.14.831,LearnStrategy,2023.2.3,Win32,59.88023952,,,,,,,,,,,3,02,6,6,,,,,,,,,,,,,,,,,,,,,,,,,,,,,
6629f95a14b6006e6a4b0aef,SCN,2024-06-12_13h39.14.831,LearnStrategy,2023.2.3,Win32,59.88023952,,,,,,,,,,,6,07,6,7,,,,,,,,,,,,,,,,,,,,,,,,,,,,,
6629f95a14b6006e6a4b0aef,SCN,2024-06-12_13h39.14.831,LearnStrategy,2023.2.3,Win32,59.88023952,,,,,,,,,,,4,01,6,8,,,,,,,,,,,,,,,,,,,,,,,,,,,,,