participant,condition,date,expName,psychopyVersion,OS,frameRate,block,phase,trial,learn_mouse_2.x,learn_mouse_2.y,learn_mouse_2.leftButton,learn_mouse_2.midButton,learn_mouse_2.rightButton,learn_mouse_2.time,learn_mouse_2.clicked_name,cat,token,row,col,t_select,cat_mouse_l.x,cat_mouse_l.y,cat_mouse_l.leftButton,cat_mouse_l.midButton,cat_mouse_l.rightButton,cat_mouse_l.time,cat_mouse_l.clicked_name,resp,t_resp,corr,train_trials.thisRepN,train_trials.thisTrialN,train_trials.thisN,train_trials.thisIndex,train_trials.ran,cat_mouse_t.x,cat_mouse_t.y,cat_mouse_t.leftButton,cat_mouse_t.midButton,cat_mouse_t.rightButton,cat_mouse_t.time,cat_mouse_t.clicked_name,test_trials.thisRepN,test_trials.thisTrialN,test_trials.thisN,test_trials.thisIndex,test_trials.ran,Bonus
66295979973d480359d7ddee,TCN,2024-06-24_13h44.46.748,LearnStrategy,2023.2.3,Win32,60.24096386,,,,,,,,,,,,,,,,,,,,,,,,,,,,,,,,,,,,,,,,,,,
66295979973d480359d7ddee,TCN,2024-06-24_13h44.46.748,LearnStrategy,2023.2.3,Win32,60.24096386,1,1,1,0.097222222,0.01944443,1,0,0,3.0514,rock_grid_rect_2,8,14,-1,-1,3.051,0.399999972,-0.387037065,1,0,0,8.1784,Pumice_rect,8,8.178,1,0,0,0,0,1,,,,,,,,,,,,,
66295979973d480359d7ddee,TCN,2024-06-24_13h44.46.748,LearnStrategy,2023.2.3,Win32,60.24096386,1,1,2,0.037962949,-0.002777771,1,0,0,2.8752,rock_grid_rect_2,3,09,-1,-1,2.875,-0.084259245,-0.25462963,1,0,0,20.8836,Basalt_rect,2,20.884,0,1,0,1,0,1,,,,,,,,,,,,,
66295979973d480359d7ddee,TCN,2024-06-24_13h44.46.748,LearnStrategy,2023.2.3,Win32,60.24096386,1,1,3,0.10555557,0.006481489,1,0,0,2.4011,rock_grid_rect_2,4,09,-1,-1,2.401,-0.362037023,-0.39907406,1,0,0,4.0783,Obsidian_rect,5,4.078,0,2,0,2,0,1,,,,,,,,,,,,,
66295979973d480359d7ddee,TCN,2024-06-24_13h44.46.748,LearnStrategy,2023.2.3,Win32,60.24096386,1,1,4,0.033333319,0.018518519,1,0,0,1.6354,rock_grid_rect_2,7,02,-1,-1,1.635,-0.330555563,-0.23055557,1,0,0,11.3321,Andesite_rect,1,11.332,0,3,0,3,0,1,,,,,,,,,,,,,
66295979973d480359d7ddee,TCN,2024-06-24_13h44.46.748,LearnStrategy,2023.2.3,Win32,60.24096386,1,1,5,0.090740769,-0.010185206,1,0,0,2.4496,rock_grid_rect_2,6,16,-1,-1,2.45,-0.3675926,-0.407407407,1,0,0,9.6545,Obsidian_rect,5,9.655,0,4,0,4,0,1,,,,,,,,,,,,,
66295979973d480359d7ddee,TCN,2024-06-24_13h44.46.748,LearnStrategy,2023.2.3,Win32,60.24096386,1,1,6,0.109259288,-0.000925947,1,0,0,1.5202,rock_grid_rect_2,1,06,-1,-1,1.52,0.14907406,-0.228703746,1,0,0,11.5191,Diorite_rect,3,11.519,0,5,0,5,0,1,,,,,,,,,,,,,
66295979973d480359d7ddee,TCN,2024-06-24_13h44.46.748,LearnStrategy,2023.2.3,Win32,60.24096386,1,1,7,0.050925926,-0.010185206,1,0,0,1.4212,rock_grid_rect_2,6,08,-1,-1,1.421,-0.39907406,-0.238888917,1,0,0,2.8991,Andesite_rect,1,2.899,0,6,0,6,0,1,,,,,,,,,,,,,
66295979973d480359d7ddee,TCN,2024-06-24_13h44.46.748,LearnStrategy,2023.2.3,Win32,60.24096386,1,1,8,0.131481524,-0.000925947,1,0,0,1.5929,rock_grid_rect_2,4,08,-1,-1,1.593,-0.085185157,-0.398148148,1,0,0,9.4383,Pegmatite_rect,6,9.438,0,7,0,7,0,1,,,,,,,,,,,,,
66295979973d480359d7ddee,TCN,2024-06-24_13h44.46.748,LearnStrategy,2023.2.3,Win32,60.24096386,1,1,9,0.037037037,0.01944443,1,0,0,1.462,rock_grid_rect_2,7,05,-1,-1,1.462,0.126851894,-0.381481524,1,0,0,5.171,Peridotite_rect,7,5.171,1,8,0,8,0,1,,,,,,,,,,,,,
66295979973d480359d7ddee,TCN,2024-06-24_13h44.46.748,LearnStrategy,2023.2.3,Win32,60.24096386,1,1,10,0.071296339,-0.009259259,1,0,0,1.5612,rock_grid_rect_2,3,02,-1,-1,1.561,0.126851894,-0.25,1,0,0,5.111,Diorite_rect,3,5.111,1,9,0,9,0,1,,,,,,,,,,,,,
66295979973d480359d7ddee,TCN,2024-06-24_13h44.46.748,LearnStrategy,2023.2.3,Win32,60.24096386,1,1,11,0.033333319,-0.015740748,1,0,0,1.4224,rock_grid_rect_2,2,16,-1,-1,1.422,-0.139814801,-0.238888917,1,0,0,4.9,Basalt_rect,2,4.9,1,10,0,10,0,1,,,,,,,,,,,,,
66295979973d480359d7ddee,TCN,2024-06-24_13h44.46.748,LearnStrategy,2023.2.3,Win32,60.24096386,1,1,12,0.066666709,0.01944443,1,0,0,1.6131,rock_grid_rect_2,5,12,-1,-1,1.613,-0.407407407,-0.410185213,1,0,0,2.0965,Obsidian_rect,5,2.097,1,11,0,11,0,1,,,,,,,,,,,,,
66295979973d480359d7ddee,TCN,2024-06-24_13h44.46.748,LearnStrategy,2023.2.3,Win32,60.24096386,1,1,13,0.111111111,0.002777771,1,0,0,1.4455,rock_grid_rect_2,5,07,-1,-1,1.445,-0.38703703,-0.405555584,1,0,0,5.2348,Obsidian_rect,5,5.235,1,12,0,12,0,1,,,,,,,,,,,,,
66295979973d480359d7ddee,TCN,2024-06-24_13h44.46.748,LearnStrategy,2023.2.3,Win32,60.24096386,1,1,14,0.053703732,0.008333312,1,0,0,2.0179,rock_grid_rect_2,2,05,-1,-1,2.018,-0.386111118,-0.25,1,0,0,3.0306,Andesite_rect,1,3.031,0,13,0,13,0,1,,,,,,,,,,,,,
66295979973d480359d7ddee,TCN,2024-06-24_13h44.46.748,LearnStrategy,2023.2.3,Win32,60.24096386,1,1,15,0.05277782,0.005555541,1,0,0,1.3121,rock_grid_rect_2,8,13,-1,-1,1.312,0.359259288,-0.384259259,1,0,0,2.3596,Pumice_rect,8,2.36,1,14,0,14,0,1,,,,,,,,,,,,,
66295979973d480359d7ddee,TCN,2024-06-24_13h44.46.748,LearnStrategy,2023.2.3,Win32,60.24096386,1,1,16,0.084259245,-0.024074095,1,0,0,1.5058,rock_grid_rect_2,1,03,-1,-1,1.506,-0.097222222,-0.411111125,1,0,0,9.7402,Pegmatite_rect,6,9.74,0,15,0,15,0,1,,,,,,,,,,,,,
66295979973d480359d7ddee,TCN,2024-06-24_13h44.46.748,LearnStrategy,2023.2.3,Win32,60.24096386,1,2,1,,,,,,,,8,03,,,,,,,,,,,8,1.495,1,,,,,,0.412037037,-0.387037065,1,0,0,1.4948,Pumice_rect,0,0,0,0,1,
66295979973d480359d7ddee,TCN,2024-06-24_13h44.46.748,LearnStrategy,2023.2.3,Win32,60.24096386,1,2,2,,,,,,,,4,13,,,,,,,,,,,4,9.525,1,,,,,,0.402777778,-0.255555541,1,0,0,9.525,Gabbro_rect,1,0,1,0,1,
66295979973d480359d7ddee,TCN,2024-06-24_13h44.46.748,LearnStrategy,2023.2.3,Win32,60.24096386,1,2,3,,,,,,,,6,09,,,,,,,,,,,7,4.672,0,,,,,,0.117592635,-0.412962949,1,0,0,4.6715,Peridotite_rect,2,0,2,0,1,
66295979973d480359d7ddee,TCN,2024-06-24_13h44.46.748,LearnStrategy,2023.2.3,Win32,60.24096386,1,2,4,,,,,,,,4,01,,,,,,,,,,,6,8.351,0,,,,,,-0.209259245,-0.400000042,1,0,0,8.3508,Pegmatite_rect,3,0,3,0,1,
66295979973d480359d7ddee,TCN,2024-06-24_13h44.46.748,LearnStrategy,2023.2.3,Win32,60.24096386,1,2,5,,,,,,,,1,07,,,,,,,,,,,3,10.439,0,,,,,,0.087037051,-0.25,1,0,0,10.4392,Diorite_rect,4,0,4,0,1,
66295979973d480359d7ddee,TCN,2024-06-24_13h44.46.748,LearnStrategy,2023.2.3,Win32,60.24096386,1,2,6,,,,,,,,2,14,,,,,,,,,,,2,1.621,1,,,,,,-0.037037037,-0.255555541,1,0,0,1.6206,Basalt_rect,5,0,5,0,1,
66295979973d480359d7ddee,TCN,2024-06-24_13h44.46.748,LearnStrategy,2023.2.3,Win32,60.24096386,1,2,7,,,,,,,,3,16,,,,,,,,,,,3,3.221,1,,,,,,0.092592593,-0.25462963,1,0,0,3.2207,Diorite_rect,6,0,6,0,1,
66295979973d480359d7ddee,TCN,2024-06-24_13h44.46.748,LearnStrategy,2023.2.3,Win32,60.24096386,1,2,8,,,,,,,,1,10,,,,,,,,,,,4,8.169,0,,,,,,0.340740769,-0.262962977,1,0,0,8.169,Gabbro_rect,7,0,7,0,1,
66295979973d480359d7ddee,TCN,2024-06-24_13h44.46.748,LearnStrategy,2023.2.3,Win32,60.24096386,1,2,9,,,,,,,,8,16,,,,,,,,,,,8,10.906,1,,,,,,0.425000085,-0.39444443,1,0,0,10.906,Pumice_rect,8,0,8,0,1,
66295979973d480359d7ddee,TCN,2024-06-24_13h44.46.748,LearnStrategy,2023.2.3,Win32,60.24096386,1,2,10,,,,,,,,2,06,,,,,,,,,,,1,5.368,0,,,,,,-0.37037037,-0.249074088,1,0,0,5.3675,Andesite_rect,9,0,9,0,1,
66295979973d480359d7ddee,TCN,2024-06-24_13h44.46.748,LearnStrategy,2023.2.3,Win32,60.24096386,1,2,11,,,,,,,,7,06,,,,,,,,,,,7,2.614,1,,,,,,0.100000028,-0.390740783,1,0,0,2.6137,Peridotite_rect,10,0,10,0,1,
66295979973d480359d7ddee,TCN,2024-06-24_13h44.46.748,LearnStrategy,2023.2.3,Win32,60.24096386,1,2,12,,,,,,,,3,15,,,,,,,,,,,3,6.523,1,,,,,,0.117592635,-0.228703746,1,0,0,6.5227,Diorite_rect,11,0,11,0,1,
66295979973d480359d7ddee,TCN,2024-06-24_13h44.46.748,LearnStrategy,2023.2.3,Win32,60.24096386,1,2,13,,,,,,,,5,05,,,,,,,,,,,5,2.786,1,,,,,,-0.400000007,-0.391666695,1,0,0,2.7858,Obsidian_rect,12,0,12,0,1,
66295979973d480359d7ddee,TCN,2024-06-24_13h44.46.748,LearnStrategy,2023.2.3,Win32,60.24096386,1,2,14,,,,,,,,7,14,,,,,,,,,,,2,6.36,0,,,,,,-0.165740755,-0.25,1,0,0,6.3599,Basalt_rect,13,0,13,0,1,
66295979973d480359d7ddee,TCN,2024-06-24_13h44.46.748,LearnStrategy,2023.2.3,Win32,60.24096386,1,2,15,,,,,,,,5,16,,,,,,,,,,,5,1.796,1,,,,,,-0.348148134,-0.388888889,1,0,0,1.7964,Obsidian_rect,14,0,14,0,1,
66295979973d480359d7ddee,TCN,2024-06-24_13h44.46.748,LearnStrategy,2023.2.3,Win32,60.24096386,1,2,16,,,,,,,,6,15,,,,,,,,,,,1,6.412,0,,,,,,-0.328703704,-0.24537037,1,0,0,6.4116,Andesite_rect,15,0,15,0,1,
66295979973d480359d7ddee,TCN,2024-06-24_13h44.46.748,LearnStrategy,2023.2.3,Win32,60.24096386,2,1,1,0.067592621,0.0074074,1,0,0,2.5733,rock_grid_rect_2,3,11,-1,-1,2.573,0.136111153,-0.240740741,1,0,0,7.2924,Diorite_rect,3,7.292,1,0,0,0,0,1,,,,,,,,,,,,,
66295979973d480359d7ddee,TCN,2024-06-24_13h44.46.748,LearnStrategy,2023.2.3,Win32,60.24096386,2,1,2,0.012962977,0.008333312,1,0,0,1.3698,rock_grid_rect_2,4,14,-1,-1,1.37,0.337037122,-0.244444459,1,0,0,5.7336,Gabbro_rect,4,5.734,1,1,0,1,0,1,,,,,,,,,,,,,
66295979973d480359d7ddee,TCN,2024-06-24_13h44.46.748,LearnStrategy,2023.2.3,Win32,60.24096386,2,1,3,-0.026851866,-0.012962977,1,0,0,1.3549,rock_grid_rect_2,6,06,-1,-1,1.355,-0.123148106,-0.244444459,1,0,0,8.9441,Basalt_rect,2,8.944,0,2,0,2,0,1,,,,,,,,,,,,,
66295979973d480359d7ddee,TCN,2024-06-24_13h44.46.748,LearnStrategy,2023.2.3,Win32,60.24096386,2,1,4,-0.00462963,0.005555541,1,0,0,1.3223,rock_grid_rect_2,4,12,-1,-1,1.322,-0.376851859,-0.246296282,1,0,0,7.9326,Andesite_rect,1,7.933,0,3,0,3,0,1,,,,,,,,,,,,,
66295979973d480359d7ddee,TCN,2024-06-24_13h44.46.748,LearnStrategy,2023.2.3,Win32,60.24096386,2,1,5,0.08148151,0.005555541,1,0,0,2.5285,rock_grid_rect_2,1,09,-1,-1,2.529,-0.162037037,-0.393518519,1,0,0,5.2709,Pegmatite_rect,6,5.271,0,4,0,4,0,1,,,,,,,,,,,,,
66295979973d480359d7ddee,TCN,2024-06-24_13h44.46.748,LearnStrategy,2023.2.3,Win32,60.24096386,2,1,6,-0.038888861,0.0074074,1,0,0,1.544,rock_grid_rect_2,7,15,-1,-1,1.544,0.118518547,-0.407407407,1,0,0,2.0171,Peridotite_rect,7,2.017,1,5,0,5,0,1,,,,,,,,,,,,,
66295979973d480359d7ddee,TCN,2024-06-24_13h44.46.748,LearnStrategy,2023.2.3,Win32,60.24096386,2,1,7,-0.010185171,0.015740748,1,0,0,1.3788,rock_grid_rect_2,6,11,-1,-1,1.379,-0.352777764,-0.252777806,1,0,0,3.1694,Andesite_rect,1,3.169,0,6,0,6,0,1,,,,,,,,,,,,,
66295979973d480359d7ddee,TCN,2024-06-24_13h44.46.748,LearnStrategy,2023.2.3,Win32,60.24096386,2,1,8,-0.001851824,-0.001851859,1,0,0,1.5556,rock_grid_rect_2,2,10,-1,-1,1.556,-0.130555541,-0.25,1,0,0,5.5165,Basalt_rect,2,5.517,1,7,0,7,0,1,,,,,,,,,,,,,
66295979973d480359d7ddee,TCN,2024-06-24_13h44.46.748,LearnStrategy,2023.2.3,Win32,60.24096386,2,1,9,0.003703718,0.002777771,1,0,0,1.3116,rock_grid_rect_2,2,12,-1,-1,1.312,-0.334259245,-0.25,1,0,0,10.5717,Andesite_rect,1,10.572,0,8,0,8,0,1,,,,,,,,,,,,,
66295979973d480359d7ddee,TCN,2024-06-24_13h44.46.748,LearnStrategy,2023.2.3,Win32,60.24096386,2,1,10,0.027777778,0.00462963,1,0,0,2.0945,rock_grid_rect_2,3,06,-1,-1,2.094,0.171296296,-0.25462963,1,0,0,5.6759,Diorite_rect,3,5.676,1,9,0,9,0,1,,,,,,,,,,,,,
66295979973d480359d7ddee,TCN,2024-06-24_13h44.46.748,LearnStrategy,2023.2.3,Win32,60.24096386,2,1,11,0.055555556,0.0074074,1,0,0,1.3255,rock_grid_rect_2,8,10,-1,-1,1.326,0.345370399,-0.412037037,1,0,0,6.8632,Pumice_rect,8,6.863,1,10,0,10,0,1,,,,,,,,,,,,,
66295979973d480359d7ddee,TCN,2024-06-24_13h44.46.748,LearnStrategy,2023.2.3,Win32,60.24096386,2,1,12,0.063888903,0.001851859,1,0,0,1.2127,rock_grid_rect_2,1,04,-1,-1,1.213,0.098148134,-0.244444459,1,0,0,11.946,Diorite_rect,3,11.946,0,11,0,11,0,1,,,,,,,,,,,,,
66295979973d480359d7ddee,TCN,2024-06-24_13h44.46.748,LearnStrategy,2023.2.3,Win32,60.24096386,2,1,13,0.002777806,-0.018518519,1,0,0,1.648,rock_grid_rect_2,5,09,-1,-1,1.648,-0.363888882,-0.37962963,1,0,0,1.5505,Obsidian_rect,5,1.551,1,12,0,12,0,1,,,,,,,,,,,,,
66295979973d480359d7ddee,TCN,2024-06-24_13h44.46.748,LearnStrategy,2023.2.3,Win32,60.24096386,2,1,14,-0.001851824,0.009259259,1,0,0,1.2297,rock_grid_rect_2,7,04,-1,-1,1.23,-0.178703661,-0.387962977,1,0,0,5.3405,Pegmatite_rect,6,5.341,0,13,0,13,0,1,,,,,,,,,,,,,
66295979973d480359d7ddee,TCN,2024-06-24_13h44.46.748,LearnStrategy,2023.2.3,Win32,60.24096386,2,1,15,0,0.000925912,1,0,0,1.2615,rock_grid_rect_2,5,06,-1,-1,1.261,-0.450925933,-0.407407407,1,0,0,1.5832,Obsidian_rect,5,1.583,1,14,0,14,0,1,,,,,,,,,,,,,
66295979973d480359d7ddee,TCN,2024-06-24_13h44.46.748,LearnStrategy,2023.2.3,Win32,60.24096386,2,1,16,0.002777806,-0.0074074,1,0,0,2.464,rock_grid_rect_2,8,09,-1,-1,2.464,0.337962963,-0.381481524,1,0,0,1.8261,Pumice_rect,8,1.826,1,15,0,15,0,1,,,,,,,,,,,,,
66295979973d480359d7ddee,TCN,2024-06-24_13h44.46.748,LearnStrategy,2023.2.3,Win32,60.24096386,2,2,1,,,,,,,,6,07,,,,,,,,,,,6,5.307,1,,,,,,-0.113888847,-0.395370413,1,0,0,5.3073,Pegmatite_rect,0,0,0,0,1,
66295979973d480359d7ddee,TCN,2024-06-24_13h44.46.748,LearnStrategy,2023.2.3,Win32,60.24096386,2,2,2,,,,,,,,5,14,,,,,,,,,,,5,3.904,1,,,,,,-0.427777785,-0.406481496,1,0,0,3.9038,Obsidian_rect,1,0,1,0,1,
66295979973d480359d7ddee,TCN,2024-06-24_13h44.46.748,LearnStrategy,2023.2.3,Win32,60.24096386,2,2,3,,,,,,,,6,03,,,,,,,,,,,7,9.227,0,,,,,,0.122222265,-0.383333347,1,0,0,9.2271,Peridotite_rect,2,0,2,0,1,
66295979973d480359d7ddee,TCN,2024-06-24_13h44.46.748,LearnStrategy,2023.2.3,Win32,60.24096386,2,2,4,,,,,,,,4,15,,,,,,,,,,,4,4.443,1,,,,,,0.414814843,-0.262962977,1,0,0,4.4427,Gabbro_rect,3,0,3,0,1,
66295979973d480359d7ddee,TCN,2024-06-24_13h44.46.748,LearnStrategy,2023.2.3,Win32,60.24096386,2,2,5,,,,,,,,4,10,,,,,,,,,,,1,3.95,0,,,,,,-0.366666653,-0.25462963,1,0,0,3.9504,Andesite_rect,4,0,4,0,1,
66295979973d480359d7ddee,TCN,2024-06-24_13h44.46.748,LearnStrategy,2023.2.3,Win32,60.24096386,2,2,6,,,,,,,,3,07,,,,,,,,,,,3,6.483,1,,,,,,0.09629631,-0.266666695,1,0,0,6.4828,Diorite_rect,5,0,5,0,1,
66295979973d480359d7ddee,TCN,2024-06-24_13h44.46.748,LearnStrategy,2023.2.3,Win32,60.24096386,2,2,7,,,,,,,,8,02,,,,,,,,,,,8,2.413,1,,,,,,0.37962963,-0.411111125,1,0,0,2.4131,Pumice_rect,6,0,6,0,1,
66295979973d480359d7ddee,TCN,2024-06-24_13h44.46.748,LearnStrategy,2023.2.3,Win32,60.24096386,2,2,8,,,,,,,,7,16,,,,,,,,,,,7,1.719,1,,,,,,0.126851894,-0.412037037,1,0,0,1.7186,Peridotite_rect,7,0,7,0,1,
66295979973d480359d7ddee,TCN,2024-06-24_13h44.46.748,LearnStrategy,2023.2.3,Win32,60.24096386,2,2,9,,,,,,,,1,11,,,,,,,,,,,6,2.496,0,,,,,,-0.14444443,-0.420370384,1,0,0,2.4957,Pegmatite_rect,8,0,8,0,1,
66295979973d480359d7ddee,TCN,2024-06-24_13h44.46.748,LearnStrategy,2023.2.3,Win32,60.24096386,2,2,10,,,,,,,,8,15,,,,,,,,,,,4,6.294,0,,,,,,0.390740712,-0.257407436,1,0,0,6.2939,Gabbro_rect,9,0,9,0,1,
66295979973d480359d7ddee,TCN,2024-06-24_13h44.46.748,LearnStrategy,2023.2.3,Win32,60.24096386,2,2,11,,,,,,,,7,07,,,,,,,,,,,7,3.816,1,,,,,,0.173148191,-0.407407407,1,0,0,3.8161,Peridotite_rect,10,0,10,0,1,
66295979973d480359d7ddee,TCN,2024-06-24_13h44.46.748,LearnStrategy,2023.2.3,Win32,60.24096386,2,2,12,,,,,,,,1,02,,,,,,,,,,,6,5.877,0,,,,,,-0.16851849,-0.421296296,1,0,0,5.8773,Pegmatite_rect,11,0,11,0,1,
66295979973d480359d7ddee,TCN,2024-06-24_13h44.46.748,LearnStrategy,2023.2.3,Win32,60.24096386,2,2,13,,,,,,,,2,04,,,,,,,,,,,4,3.052,0,,,,,,0.415740826,-0.228703746,1,0,0,3.0518,Gabbro_rect,12,0,12,0,1,
66295979973d480359d7ddee,TCN,2024-06-24_13h44.46.748,LearnStrategy,2023.2.3,Win32,60.24096386,2,2,14,,,,,,,,5,11,,,,,,,,,,,5,1.68,1,,,,,,-0.418518526,-0.407407407,1,0,0,1.6795,Obsidian_rect,13,0,13,0,1,
66295979973d480359d7ddee,TCN,2024-06-24_13h44.46.748,LearnStrategy,2023.2.3,Win32,60.24096386,2,2,15,,,,,,,,2,11,,,,,,,,,,,1,10.048,0,,,,,,-0.428703697,-0.229629658,1,0,0,10.0483,Andesite_rect,14,0,14,0,1,
66295979973d480359d7ddee,TCN,2024-06-24_13h44.46.748,LearnStrategy,2023.2.3,Win32,60.24096386,2,2,16,,,,,,,,3,08,,,,,,,,,,,3,1.727,1,,,,,,0.088888875,-0.244444459,1,0,0,1.7267,Diorite_rect,15,0,15,0,1,
66295979973d480359d7ddee,TCN,2024-06-24_13h44.46.748,LearnStrategy,2023.2.3,Win32,60.24096386,3,1,1,0,0.008333312,1,0,0,1.7562,rock_grid_rect_2,7,12,-1,-1,1.756,0.127777806,-0.40370369,1,0,0,10.3774,Peridotite_rect,7,10.377,1,0,0,0,0,1,,,,,,,,,,,,,
66295979973d480359d7ddee,TCN,2024-06-24_13h44.46.748,LearnStrategy,2023.2.3,Win32,60.24096386,3,1,2,0.043518561,-0.018518519,1,0,0,1.4839,rock_grid_rect_2,2,01,-1,-1,1.484,0.381481453,-0.242592635,1,0,0,2.8909,Gabbro_rect,4,2.891,0,1,0,1,0,1,,,,,,,,,,,,,
66295979973d480359d7ddee,TCN,2024-06-24_13h44.46.748,LearnStrategy,2023.2.3,Win32,60.24096386,3,1,3,0.046296296,0.0074074,1,0,0,1.6178,rock_grid_rect_2,7,13,-1,-1,1.618,0.087962963,-0.401851866,1,0,0,2.0168,Peridotite_rect,7,2.017,1,2,0,2,0,1,,,,,,,,,,,,,
66295979973d480359d7ddee,TCN,2024-06-24_13h44.46.748,LearnStrategy,2023.2.3,Win32,60.24096386,3,1,4,0.080555598,-0.010185206,1,0,0,1.2284,rock_grid_rect_2,5,04,-1,-1,1.228,-0.378703683,-0.392592607,1,0,0,3.2047,Obsidian_rect,5,3.205,1,3,0,3,0,1,,,,,,,,,,,,,
66295979973d480359d7ddee,TCN,2024-06-24_13h44.46.748,LearnStrategy,2023.2.3,Win32,60.24096386,3,1,5,0.039814843,-0.002777771,1,0,0,2.7041,rock_grid_rect_2,4,16,-1,-1,2.704,0.352777834,-0.263888889,1,0,0,3.2042,Gabbro_rect,4,3.204,1,4,0,4,0,1,,,,,,,,,,,,,
66295979973d480359d7ddee,TCN,2024-06-24_13h44.46.748,LearnStrategy,2023.2.3,Win32,60.24096386,3,1,6,0.074999986,0.003703683,1,0,0,1.3283,rock_grid_rect_2,8,05,-1,-1,1.328,0.397222307,-0.401851866,1,0,0,3.3605,Pumice_rect,8,3.361,1,5,0,5,0,1,,,,,,,,,,,,,
66295979973d480359d7ddee,TCN,2024-06-24_13h44.46.748,LearnStrategy,2023.2.3,Win32,60.24096386,3,1,7,0.054629644,-0.008333347,1,0,0,1.4197,rock_grid_rect_2,5,02,-1,-1,1.42,-0.378703683,-0.401851866,1,0,0,1.4057,Obsidian_rect,5,1.406,1,6,0,6,0,1,,,,,,,,,,,,,
66295979973d480359d7ddee,TCN,2024-06-24_13h44.46.748,LearnStrategy,2023.2.3,Win32,60.24096386,3,1,8,0.017592607,0.009259259,1,0,0,1.6695,rock_grid_rect_2,1,05,-1,-1,1.669,-0.375925912,-0.253703718,1,0,0,2.7691,Andesite_rect,1,2.769,1,7,0,7,0,1,,,,,,,,,,,,,
66295979973d480359d7ddee,TCN,2024-06-24_13h44.46.748,LearnStrategy,2023.2.3,Win32,60.24096386,3,1,9,0.034259302,0.020370377,1,0,0,1.6293,rock_grid_rect_2,6,10,-1,-1,1.629,0.138888889,-0.397222236,1,0,0,4.285,Peridotite_rect,7,4.285,0,8,0,8,0,1,,,,,,,,,,,,,
66295979973d480359d7ddee,TCN,2024-06-24_13h44.46.748,LearnStrategy,2023.2.3,Win32,60.24096386,3,1,10,0.035185213,0.001851859,1,0,0,1.1711,rock_grid_rect_2,6,13,-1,-1,1.171,-0.121296282,-0.381481524,1,0,0,4.0627,Pegmatite_rect,6,4.063,1,9,0,9,0,1,,,,,,,,,,,,,
66295979973d480359d7ddee,TCN,2024-06-24_13h44.46.748,LearnStrategy,2023.2.3,Win32,60.24096386,3,1,11,0.046296296,-0.023148148,1,0,0,1.5454,rock_grid_rect_2,2,08,-1,-1,1.545,-0.10555557,-0.25,1,0,0,8.646,Basalt_rect,2,8.646,1,10,0,10,0,1,,,,,,,,,,,,,
66295979973d480359d7ddee,TCN,2024-06-24_13h44.46.748,LearnStrategy,2023.2.3,Win32,60.24096386,3,1,12,0.000925912,0.005555541,1,0,0,1.194,rock_grid_rect_2,8,08,-1,-1,1.194,0.337037122,-0.396296325,1,0,0,2.682,Pumice_rect,8,2.682,1,11,0,11,0,1,,,,,,,,,,,,,
66295979973d480359d7ddee,TCN,2024-06-24_13h44.46.748,LearnStrategy,2023.2.3,Win32,60.24096386,3,1,13,0.060185185,-0.003703718,1,0,0,1.4803,rock_grid_rect_2,1,16,-1,-1,1.48,-0.345370363,-0.256481524,1,0,0,2.523,Andesite_rect,1,2.523,1,12,0,12,0,1,,,,,,,,,,,,,
66295979973d480359d7ddee,TCN,2024-06-24_13h44.46.748,LearnStrategy,2023.2.3,Win32,60.24096386,3,1,14,0.009259259,-0.020370377,1,0,0,1.5778,rock_grid_rect_2,3,12,-1,-1,1.578,0.142592607,-0.258333347,1,0,0,2.8069,Diorite_rect,3,2.807,1,13,0,13,0,1,,,,,,,,,,,,,
66295979973d480359d7ddee,TCN,2024-06-24_13h44.46.748,LearnStrategy,2023.2.3,Win32,60.24096386,3,1,15,0.034259302,0.001851859,1,0,0,1.1637,rock_grid_rect_2,3,13,-1,-1,1.164,0.126851894,-0.248148176,1,0,0,2.852,Diorite_rect,3,2.852,1,14,0,14,0,1,,,,,,,,,,,,,
66295979973d480359d7ddee,TCN,2024-06-24_13h44.46.748,LearnStrategy,2023.2.3,Win32,60.24096386,3,1,16,0.064814815,0.009259259,1,0,0,1.3798,rock_grid_rect_2,4,05,-1,-1,1.38,-0.154629601,-0.400925954,1,0,0,4.5962,Pegmatite_rect,6,4.596,0,15,0,15,0,1,,,,,,,,,,,,,
66295979973d480359d7ddee,TCN,2024-06-24_13h44.46.748,LearnStrategy,2023.2.3,Win32,60.24096386,3,2,1,,,,,,,,5,08,,,,,,,,,,,5,1.589,1,,,,,,-0.360185164,-0.412037037,1,0,0,1.5887,Obsidian_rect,0,0,0,0,1,
66295979973d480359d7ddee,TCN,2024-06-24_13h44.46.748,LearnStrategy,2023.2.3,Win32,60.24096386,3,2,2,,,,,,,,7,10,,,,,,,,,,,6,4.898,0,,,,,,-0.083333333,-0.39907406,1,0,0,4.8985,Pegmatite_rect,1,0,1,0,1,
66295979973d480359d7ddee,TCN,2024-06-24_13h44.46.748,LearnStrategy,2023.2.3,Win32,60.24096386,3,2,3,,,,,,,,2,02,,,,,,,,,,,1,7.23,0,,,,,,-0.346296275,-0.237037023,1,0,0,7.23,Andesite_rect,2,0,2,0,1,
66295979973d480359d7ddee,TCN,2024-06-24_13h44.46.748,LearnStrategy,2023.2.3,Win32,60.24096386,3,2,4,,,,,,,,7,08,,,,,,,,,,,6,4.198,0,,,,,,-0.074999986,-0.402777778,1,0,0,4.1978,Pegmatite_rect,3,0,3,0,1,
66295979973d480359d7ddee,TCN,2024-06-24_13h44.46.748,LearnStrategy,2023.2.3,Win32,60.24096386,3,2,5,,,,,,,,4,11,,,,,,,,,,,2,4.402,0,,,,,,-0.116666653,-0.252777806,1,0,0,4.4021,Basalt_rect,4,0,4,0,1,
66295979973d480359d7ddee,TCN,2024-06-24_13h44.46.748,LearnStrategy,2023.2.3,Win32,60.24096386,3,2,6,,,,,,,,5,10,,,,,,,,,,,5,1.545,1,,,,,,-0.371296282,-0.407407407,1,0,0,1.5449,Obsidian_rect,5,0,5,0,1,
66295979973d480359d7ddee,TCN,2024-06-24_13h44.46.748,LearnStrategy,2023.2.3,Win32,60.24096386,3,2,7,,,,,,,,3,10,,,,,,,,,,,3,1.62,1,,,,,,0.138888889,-0.266666695,1,0,0,1.62,Diorite_rect,6,0,6,0,1,
66295979973d480359d7ddee,TCN,2024-06-24_13h44.46.748,LearnStrategy,2023.2.3,Win32,60.24096386,3,2,8,,,,,,,,3,14,,,,,,,,,,,3,2.659,1,,,,,,0.138888889,-0.266666695,1,0,0,2.6587,Diorite_rect,7,0,7,0,1,
66295979973d480359d7ddee,TCN,2024-06-24_13h44.46.748,LearnStrategy,2023.2.3,Win32,60.24096386,3,2,9,,,,,,,,6,05,,,,,,,,,,,6,4.959,1,,,,,,-0.17314812,-0.412037037,1,0,0,4.9589,Pegmatite_rect,8,0,8,0,1,
66295979973d480359d7ddee,TCN,2024-06-24_13h44.46.748,LearnStrategy,2023.2.3,Win32,60.24096386,3,2,10,,,,,,,,1,14,,,,,,,,,,,2,7.181,0,,,,,,-0.179629644,-0.247222265,1,0,0,7.181,Basalt_rect,9,0,9,0,1,
66295979973d480359d7ddee,TCN,2024-06-24_13h44.46.748,LearnStrategy,2023.2.3,Win32,60.24096386,3,2,11,,,,,,,,8,04,,,,,,,,,,,8,1.832,1,,,,,,0.387037065,-0.400000042,1,0,0,1.8318,Pumice_rect,10,0,10,0,1,
66295979973d480359d7ddee,TCN,2024-06-24_13h44.46.748,LearnStrategy,2023.2.3,Win32,60.24096386,3,2,12,,,,,,,,2,09,,,,,,,,,,,4,4.419,0,,,,,,0.431481538,-0.267592607,1,0,0,4.4186,Gabbro_rect,11,0,11,0,1,
66295979973d480359d7ddee,TCN,2024-06-24_13h44.46.748,LearnStrategy,2023.2.3,Win32,60.24096386,3,2,13,,,,,,,,8,06,,,,,,,,,,,8,1.507,1,,,,,,0.388888889,-0.401851866,1,0,0,1.507,Pumice_rect,12,0,12,0,1,
66295979973d480359d7ddee,TCN,2024-06-24_13h44.46.748,LearnStrategy,2023.2.3,Win32,60.24096386,3,2,14,,,,,,,,1,01,,,,,,,,,,,6,12.418,0,,,,,,-0.113888847,-0.388888889,1,0,0,12.4183,Pegmatite_rect,13,0,13,0,1,
66295979973d480359d7ddee,TCN,2024-06-24_13h44.46.748,LearnStrategy,2023.2.3,Win32,60.24096386,3,2,15,,,,,,,,6,12,,,,,,,,,,,6,9.185,1,,,,,,-0.186111097,-0.416666667,1,0,0,9.1849,Pegmatite_rect,14,0,14,0,1,
66295979973d480359d7ddee,TCN,2024-06-24_13h44.46.748,LearnStrategy,2023.2.3,Win32,60.24096386,3,2,16,,,,,,,,4,03,,,,,,,,,,,3,4.169,0,,,,,,0.14444443,-0.238888917,1,0,0,4.1693,Diorite_rect,15,0,15,0,1,
66295979973d480359d7ddee,TCN,2024-06-24_13h44.46.748,LearnStrategy,2023.2.3,Win32,60.24096386,4,1,1,0.07685188,-0.01666666,1,0,0,2.8633,rock_grid_rect_2,7,02,-1,-1,2.863,0.12962963,-0.401851866,1,0,0,2.1411,Peridotite_rect,7,2.141,1,0,0,0,0,1,,,,,,,,,,,,,
66295979973d480359d7ddee,TCN,2024-06-24_13h44.46.748,LearnStrategy,2023.2.3,Win32,60.24096386,4,1,2,0.087037051,0.020370377,1,0,0,1.9459,rock_grid_rect_2,1,09,-1,-1,1.946,-0.380555541,-0.26944443,1,0,0,3.5217,Andesite_rect,1,3.522,1,1,0,1,0,1,,,,,,,,,,,,,
66295979973d480359d7ddee,TCN,2024-06-24_13h44.46.748,LearnStrategy,2023.2.3,Win32,60.24096386,4,1,3,0.064814815,0.017592571,1,0,0,1.6249,rock_grid_rect_2,5,07,-1,-1,1.625,-0.37037037,-0.397222236,1,0,0,1.8341,Obsidian_rect,5,1.834,1,2,0,2,0,1,,,,,,,,,,,,,
66295979973d480359d7ddee,TCN,2024-06-24_13h44.46.748,LearnStrategy,2023.2.3,Win32,60.24096386,4,1,4,0.128703718,0.02407406,1,0,0,1.2388,rock_grid_rect_2,6,06,-1,-1,1.239,-0.112962935,-0.398148148,1,0,0,4.8348,Pegmatite_rect,6,4.835,1,3,0,3,0,1,,,,,,,,,,,,,
66295979973d480359d7ddee,TCN,2024-06-24_13h44.46.748,LearnStrategy,2023.2.3,Win32,60.24096386,4,1,5,0.087962963,0.011111118,1,0,0,1.3119,rock_grid_rect_2,3,13,-1,-1,1.312,0.089814857,-0.259259259,1,0,0,1.8469,Diorite_rect,3,1.847,1,4,0,4,0,1,,,,,,,,,,,,,
66295979973d480359d7ddee,TCN,2024-06-24_13h44.46.748,LearnStrategy,2023.2.3,Win32,60.24096386,4,1,6,0.095370399,-0.001851859,1,0,0,2.1755,rock_grid_rect_2,2,05,-1,-1,2.175,-0.115740741,-0.25,1,0,0,4.7523,Basalt_rect,2,4.752,1,5,0,5,0,1,,,,,,,,,,,,,
66295979973d480359d7ddee,TCN,2024-06-24_13h44.46.748,LearnStrategy,2023.2.3,Win32,60.24096386,4,1,7,0.07685188,0.010185171,1,0,0,1.2038,rock_grid_rect_2,2,10,-1,-1,1.204,0.410185213,-0.241666653,1,0,0,2.0062,Gabbro_rect,4,2.006,0,6,0,6,0,1,,,,,,,,,,,,,
66295979973d480359d7ddee,TCN,2024-06-24_13h44.46.748,LearnStrategy,2023.2.3,Win32,60.24096386,4,1,8,0.005555541,-0.01203703,1,0,0,1.6622,rock_grid_rect_2,5,09,-1,-1,1.662,-0.383333312,-0.392592607,1,0,0,1.5778,Obsidian_rect,5,1.578,1,7,0,7,0,1,,,,,,,,,,,,,
66295979973d480359d7ddee,TCN,2024-06-24_13h44.46.748,LearnStrategy,2023.2.3,Win32,60.24096386,4,1,9,0.055555556,0.000925912,1,0,0,1.4961,rock_grid_rect_2,8,13,-1,-1,1.496,0.357407464,-0.40370369,1,0,0,1.728,Pumice_rect,8,1.728,1,8,0,8,0,1,,,,,,,,,,,,,
66295979973d480359d7ddee,TCN,2024-06-24_13h44.46.748,LearnStrategy,2023.2.3,Win32,60.24096386,4,1,10,0.046296296,0.001851859,1,0,0,1.5297,rock_grid_rect_2,3,06,-1,-1,1.53,-0.37037037,-0.234259288,1,0,0,2.3384,Andesite_rect,1,2.338,0,9,0,9,0,1,,,,,,,,,,,,,
66295979973d480359d7ddee,TCN,2024-06-24_13h44.46.748,LearnStrategy,2023.2.3,Win32,60.24096386,4,1,11,0.017592607,-0.003703718,1,0,0,2.8067,rock_grid_rect_2,8,05,-1,-1,2.807,0.348148205,-0.387037065,1,0,0,1.8413,Pumice_rect,8,1.841,1,10,0,10,0,1,,,,,,,,,,,,,
66295979973d480359d7ddee,TCN,2024-06-24_13h44.46.748,LearnStrategy,2023.2.3,Win32,60.24096386,4,1,12,0.074999986,0.011111118,1,0,0,1.5964,rock_grid_rect_2,7,15,-1,-1,1.596,0.103703746,-0.389814801,1,0,0,1.6553,Peridotite_rect,7,1.655,1,11,0,11,0,1,,,,,,,,,,,,,
66295979973d480359d7ddee,TCN,2024-06-24_13h44.46.748,LearnStrategy,2023.2.3,Win32,60.24096386,4,1,13,0.111111111,0.015740748,1,0,0,1.246,rock_grid_rect_2,4,14,-1,-1,1.246,0.394444501,-0.234259288,1,0,0,2.8241,Gabbro_rect,4,2.824,1,12,0,12,0,1,,,,,,,,,,,,,
66295979973d480359d7ddee,TCN,2024-06-24_13h44.46.748,LearnStrategy,2023.2.3,Win32,60.24096386,4,1,14,0.065740727,-0.001851859,1,0,0,1.3289,rock_grid_rect_2,6,10,-1,-1,1.329,-0.077777792,-0.405555584,1,0,0,2.9817,Pegmatite_rect,6,2.982,1,13,0,13,0,1,,,,,,,,,,,,,
66295979973d480359d7ddee,TCN,2024-06-24_13h44.46.748,LearnStrategy,2023.2.3,Win32,60.24096386,4,1,15,0.111111111,0.015740748,1,0,0,1.4626,rock_grid_rect_2,1,04,-1,-1,1.463,-0.429629608,-0.247222265,1,0,0,7.5787,Andesite_rect,1,7.579,1,14,0,14,0,1,,,,,,,,,,,,,
66295979973d480359d7ddee,TCN,2024-06-24_13h44.46.748,LearnStrategy,2023.2.3,Win32,60.24096386,4,1,16,0.089814857,-0.015740748,1,0,0,1.7211,rock_grid_rect_2,4,16,-1,-1,1.721,-0.06759255,-0.262037065,1,0,0,3.8843,Basalt_rect,2,3.884,0,15,0,15,0,1,,,,,,,,,,,,,
66295979973d480359d7ddee,TCN,2024-06-24_13h44.46.748,LearnStrategy,2023.2.3,Win32,60.24096386,4,2,1,,,,,,,,1,11,,,,,,,,,,,1,3.823,1,,,,,,-0.347222222,-0.240740741,1,0,0,3.8229,Andesite_rect,0,0,0,0,1,
66295979973d480359d7ddee,TCN,2024-06-24_13h44.46.748,LearnStrategy,2023.2.3,Win32,60.24096386,4,2,2,,,,,,,,1,07,,,,,,,,,,,3,1.702,0,,,,,,0.220370399,-0.255555541,1,0,0,1.7023,Diorite_rect,1,0,1,0,1,
66295979973d480359d7ddee,TCN,2024-06-24_13h44.46.748,LearnStrategy,2023.2.3,Win32,60.24096386,4,2,3,,,,,,,,3,08,,,,,,,,,,,3,1.723,1,,,,,,0.220370399,-0.255555541,1,0,0,1.7228,Diorite_rect,2,0,2,0,1,
66295979973d480359d7ddee,TCN,2024-06-24_13h44.46.748,LearnStrategy,2023.2.3,Win32,60.24096386,4,2,4,,,,,,,,6,15,,,,,,,,,,,6,3.691,1,,,,,,-0.121296282,-0.39907406,1,0,0,3.6914,Pegmatite_rect,3,0,3,0,1,
66295979973d480359d7ddee,TCN,2024-06-24_13h44.46.748,LearnStrategy,2023.2.3,Win32,60.24096386,4,2,5,,,,,,,,7,14,,,,,,,,,,,2,10.764,0,,,,,,-0.112962935,-0.256481524,1,0,0,10.7641,Basalt_rect,4,0,4,0,1,
66295979973d480359d7ddee,TCN,2024-06-24_13h44.46.748,LearnStrategy,2023.2.3,Win32,60.24096386,4,2,6,,,,,,,,8,15,,,,,,,,,,,8,2.413,1,,,,,,0.425925926,-0.400925954,1,0,0,2.4128,Pumice_rect,5,0,5,0,1,
66295979973d480359d7ddee,TCN,2024-06-24_13h44.46.748,LearnStrategy,2023.2.3,Win32,60.24096386,4,2,7,,,,,,,,2,09,,,,,,,,,,,2,6.608,1,,,,,,-0.103703675,-0.24537037,1,0,0,6.6076,Basalt_rect,6,0,6,0,1,
66295979973d480359d7ddee,TCN,2024-06-24_13h44.46.748,LearnStrategy,2023.2.3,Win32,60.24096386,4,2,8,,,,,,,,7,10,,,,,,,,,,,7,1.829,1,,,,,,0.091666681,-0.396296325,1,0,0,1.8286,Peridotite_rect,7,0,7,0,1,
66295979973d480359d7ddee,TCN,2024-06-24_13h44.46.748,LearnStrategy,2023.2.3,Win32,60.24096386,4,2,9,,,,,,,,4,11,,,,,,,,,,,2,6.339,0,,,,,,-0.087037051,-0.237963005,1,0,0,6.3388,Basalt_rect,8,0,8,0,1,
66295979973d480359d7ddee,TCN,2024-06-24_13h44.46.748,LearnStrategy,2023.2.3,Win32,60.24096386,4,2,10,,,,,,,,3,15,,,,,,,,,,,3,1.577,1,,,,,,0.102777764,-0.244444459,1,0,0,1.5766,Diorite_rect,9,0,9,0,1,
66295979973d480359d7ddee,TCN,2024-06-24_13h44.46.748,LearnStrategy,2023.2.3,Win32,60.24096386,4,2,11,,,,,,,,5,08,,,,,,,,,,,5,1.724,1,,,,,,-0.331481474,-0.404629672,1,0,0,1.7244,Obsidian_rect,10,0,10,0,1,
66295979973d480359d7ddee,TCN,2024-06-24_13h44.46.748,LearnStrategy,2023.2.3,Win32,60.24096386,4,2,12,,,,,,,,8,06,,,,,,,,,,,8,1.431,1,,,,,,0.385185242,-0.401851866,1,0,0,1.4308,Pumice_rect,11,0,11,0,1,
66295979973d480359d7ddee,TCN,2024-06-24_13h44.46.748,LearnStrategy,2023.2.3,Win32,60.24096386,4,2,13,,,,,,,,4,13,,,,,,,,,,,4,2.462,1,,,,,,0.392592677,-0.233333376,1,0,0,2.4624,Gabbro_rect,12,0,12,0,1,
66295979973d480359d7ddee,TCN,2024-06-24_13h44.46.748,LearnStrategy,2023.2.3,Win32,60.24096386,4,2,14,,,,,,,,6,09,,,,,,,,,,,6,5.955,1,,,,,,-0.085185157,-0.401851866,1,0,0,5.9554,Pegmatite_rect,13,0,13,0,1,
66295979973d480359d7ddee,TCN,2024-06-24_13h44.46.748,LearnStrategy,2023.2.3,Win32,60.24096386,4,2,15,,,,,,,,5,11,,,,,,,,,,,5,1.324,1,,,,,,-0.381481489,-0.400925954,1,0,0,1.3244,Obsidian_rect,14,0,14,0,1,
66295979973d480359d7ddee,TCN,2024-06-24_13h44.46.748,LearnStrategy,2023.2.3,Win32,60.24096386,4,2,16,,,,,,,,2,11,,,,,,,,,,,1,4.743,0,,,,,,-0.355555534,-0.257407436,1,0,0,4.7427,Andesite_rect,15,0,15,0,1,
66295979973d480359d7ddee,TCN,2024-06-24_13h44.46.748,LearnStrategy,2023.2.3,Win32,60.24096386,5,1,1,0.065740727,0.00462963,1,0,0,1.6307,rock_grid_rect_2,7,05,-1,-1,1.631,-0.126851824,-0.419444473,1,0,0,11.6757,Pegmatite_rect,6,11.676,0,0,0,0,0,1,,,,,,,,,,,,,
66295979973d480359d7ddee,TCN,2024-06-24_13h44.46.748,LearnStrategy,2023.2.3,Win32,60.24096386,5,1,2,0.020370413,-0.013888889,1,0,0,1.3951,rock_grid_rect_2,5,04,-1,-1,1.395,-0.389814801,-0.397222236,1,0,0,1.4467,Obsidian_rect,5,1.447,1,1,0,1,0,1,,,,,,,,,,,,,
66295979973d480359d7ddee,TCN,2024-06-24_13h44.46.748,LearnStrategy,2023.2.3,Win32,60.24096386,5,1,3,-0.003703718,0.006481489,1,0,0,1.5757,rock_grid_rect_2,4,12,-1,-1,1.576,-0.362037023,-0.234259288,1,0,0,2.1667,Andesite_rect,1,2.167,0,2,0,2,0,1,,,,,,,,,,,,,
66295979973d480359d7ddee,TCN,2024-06-24_13h44.46.748,LearnStrategy,2023.2.3,Win32,60.24096386,5,1,4,0.067592621,-0.015740748,1,0,0,1.5381,rock_grid_rect_2,5,02,-1,-1,1.538,-0.373148141,-0.400925954,1,0,0,1.7344,Obsidian_rect,5,1.734,1,3,0,3,0,1,,,,,,,,,,,,,
66295979973d480359d7ddee,TCN,2024-06-24_13h44.46.748,LearnStrategy,2023.2.3,Win32,60.24096386,5,1,5,0.074074074,0.005555541,1,0,0,1.5804,rock_grid_rect_2,2,12,-1,-1,1.58,0.377777806,-0.39444443,1,0,0,3.4519,Pumice_rect,8,3.452,0,4,0,4,0,1,,,,,,,,,,,,,
66295979973d480359d7ddee,TCN,2024-06-24_13h44.46.748,LearnStrategy,2023.2.3,Win32,60.24096386,5,1,6,0.016666695,-0.000925947,1,0,0,1.1634,rock_grid_rect_2,6,11,-1,-1,1.163,-0.136111083,-0.398148148,1,0,0,2.7374,Pegmatite_rect,6,2.737,1,5,0,5,0,1,,,,,,,,,,,,,
66295979973d480359d7ddee,TCN,2024-06-24_13h44.46.748,LearnStrategy,2023.2.3,Win32,60.24096386,5,1,7,0.035185213,0,1,0,0,1.313,rock_grid_rect_2,3,09,-1,-1,1.313,0.131481524,-0.244444459,1,0,0,1.6559,Diorite_rect,3,1.656,1,6,0,6,0,1,,,,,,,,,,,,,
66295979973d480359d7ddee,TCN,2024-06-24_13h44.46.748,LearnStrategy,2023.2.3,Win32,60.24096386,5,1,8,0.042592578,-0.01666666,1,0,0,1.3393,rock_grid_rect_2,7,12,-1,-1,1.339,0.084259245,-0.37962963,1,0,0,1.8051,Peridotite_rect,7,1.805,1,7,0,7,0,1,,,,,,,,,,,,,
66295979973d480359d7ddee,TCN,2024-06-24_13h44.46.748,LearnStrategy,2023.2.3,Win32,60.24096386,5,1,9,0.062962991,0.014814801,1,0,0,1.0121,rock_grid_rect_2,8,14,-1,-1,1.012,0.383333418,-0.400000042,1,0,0,1.5394,Pumice_rect,8,1.539,1,8,0,8,0,1,,,,,,,,,,,,,
66295979973d480359d7ddee,TCN,2024-06-24_13h44.46.748,LearnStrategy,2023.2.3,Win32,60.24096386,5,1,10,0.130555541,-0.011111118,1,0,0,1.0875,rock_grid_rect_2,8,10,-1,-1,1.088,0.354629658,-0.380555541,1,0,0,3.4985,Pumice_rect,8,3.498,1,9,0,9,0,1,,,,,,,,,,,,,
66295979973d480359d7ddee,TCN,2024-06-24_13h44.46.748,LearnStrategy,2023.2.3,Win32,60.24096386,5,1,11,0.030555584,-0.003703718,1,0,0,1.1953,rock_grid_rect_2,4,08,-1,-1,1.195,-0.405555548,-0.255555541,1,0,0,2.5807,Andesite_rect,1,2.581,0,10,0,10,0,1,,,,,,,,,,,,,
66295979973d480359d7ddee,TCN,2024-06-24_13h44.46.748,LearnStrategy,2023.2.3,Win32,60.24096386,5,1,12,0.026851866,-0.003703718,1,0,0,1.6475,rock_grid_rect_2,2,16,-1,-1,1.648,0.41851849,-0.247222265,1,0,0,1.4123,Gabbro_rect,4,1.412,0,11,0,11,0,1,,,,,,,,,,,,,
66295979973d480359d7ddee,TCN,2024-06-24_13h44.46.748,LearnStrategy,2023.2.3,Win32,60.24096386,5,1,13,0.05740745,-0.008333347,1,0,0,1.2785,rock_grid_rect_2,1,03,-1,-1,1.278,0.151851866,-0.24537037,1,0,0,3.1326,Diorite_rect,3,3.133,0,12,0,12,0,1,,,,,,,,,,,,,
66295979973d480359d7ddee,TCN,2024-06-24_13h44.46.748,LearnStrategy,2023.2.3,Win32,60.24096386,5,1,14,0.037962949,-0.017592607,1,0,0,1.0116,rock_grid_rect_2,3,02,-1,-1,1.012,0.10555557,-0.252777806,1,0,0,1.5736,Diorite_rect,3,1.574,1,13,0,13,0,1,,,,,,,,,,,,,
66295979973d480359d7ddee,TCN,2024-06-24_13h44.46.748,LearnStrategy,2023.2.3,Win32,60.24096386,5,1,15,0.056481467,-0.019444466,1,0,0,1.3136,rock_grid_rect_2,1,06,-1,-1,1.314,-0.357407393,-0.244444459,1,0,0,3.266,Andesite_rect,1,3.266,1,14,0,14,0,1,,,,,,,,,,,,,
66295979973d480359d7ddee,TCN,2024-06-24_13h44.46.748,LearnStrategy,2023.2.3,Win32,60.24096386,5,1,16,0.034259302,0.010185171,1,0,0,1.0303,rock_grid_rect_2,6,08,-1,-1,1.03,-0.131481453,-0.401851866,1,0,0,1.5538,Pegmatite_rect,6,1.554,1,15,0,15,0,1,,,,,,,,,,,,,
66295979973d480359d7ddee,TCN,2024-06-24_13h44.46.748,LearnStrategy,2023.2.3,Win32,60.24096386,5,2,1,,,,,,,,7,06,,,,,,,,,,,7,3.254,1,,,,,,0.12962963,-0.417592578,1,0,0,3.2536,Peridotite_rect,0,0,0,0,1,
66295979973d480359d7ddee,TCN,2024-06-24_13h44.46.748,LearnStrategy,2023.2.3,Win32,60.24096386,5,2,2,,,,,,,,6,05,,,,,,,,,,,6,3.622,1,,,,,,-0.145370342,-0.400925954,1,0,0,3.6223,Pegmatite_rect,1,0,1,0,1,
66295979973d480359d7ddee,TCN,2024-06-24_13h44.46.748,LearnStrategy,2023.2.3,Win32,60.24096386,5,2,3,,,,,,,,2,14,,,,,,,,,,,2,11.668,1,,,,,,-0.176851838,-0.265740783,1,0,0,11.6675,Basalt_rect,2,0,2,0,1,
66295979973d480359d7ddee,TCN,2024-06-24_13h44.46.748,LearnStrategy,2023.2.3,Win32,60.24096386,5,2,4,,,,,,,,8,02,,,,,,,,,,,8,1.884,1,,,,,,0.406481566,-0.412962949,1,0,0,1.8837,Pumice_rect,3,0,3,0,1,
66295979973d480359d7ddee,TCN,2024-06-24_13h44.46.748,LearnStrategy,2023.2.3,Win32,60.24096386,5,2,5,,,,,,,,2,02,,,,,,,,,,,2,3.072,1,,,,,,-0.216666681,-0.260185171,1,0,0,3.0722,Basalt_rect,4,0,4,0,1,
66295979973d480359d7ddee,TCN,2024-06-24_13h44.46.748,LearnStrategy,2023.2.3,Win32,60.24096386,5,2,6,,,,,,,,5,10,,,,,,,,,,,5,2.25,1,,,,,,-0.37037037,-0.404629672,1,0,0,2.2499,Obsidian_rect,5,0,5,0,1,
66295979973d480359d7ddee,TCN,2024-06-24_13h44.46.748,LearnStrategy,2023.2.3,Win32,60.24096386,5,2,7,,,,,,,,1,14,,,,,,,,,,,6,11.042,0,,,,,,-0.209259245,-0.396296325,1,0,0,11.042,Pegmatite_rect,6,0,6,0,1,
66295979973d480359d7ddee,TCN,2024-06-24_13h44.46.748,LearnStrategy,2023.2.3,Win32,60.24096386,5,2,8,,,,,,,,6,07,,,,,,,,,,,6,1.571,1,,,,,,-0.147222236,-0.412037037,1,0,0,1.5711,Pegmatite_rect,7,0,7,0,1,
66295979973d480359d7ddee,TCN,2024-06-24_13h44.46.748,LearnStrategy,2023.2.3,Win32,60.24096386,5,2,9,,,,,,,,3,10,,,,,,,,,,,3,1.387,1,,,,,,0.172222208,-0.265740783,1,0,0,1.3872,Diorite_rect,8,0,8,0,1,
66295979973d480359d7ddee,TCN,2024-06-24_13h44.46.748,LearnStrategy,2023.2.3,Win32,60.24096386,5,2,10,,,,,,,,1,02,,,,,,,,,,,1,4.197,1,,,,,,-0.36296297,-0.264814801,1,0,0,4.1967,Andesite_rect,9,0,9,0,1,
66295979973d480359d7ddee,TCN,2024-06-24_13h44.46.748,LearnStrategy,2023.2.3,Win32,60.24096386,5,2,11,,,,,,,,4,10,,,,,,,,,,,2,3.681,0,,,,,,-0.206481439,-0.243518547,1,0,0,3.6806,Basalt_rect,10,0,10,0,1,
66295979973d480359d7ddee,TCN,2024-06-24_13h44.46.748,LearnStrategy,2023.2.3,Win32,60.24096386,5,2,12,,,,,,,,3,14,,,,,,,,,,,3,1.288,1,,,,,,0.082407422,-0.232407393,1,0,0,1.2881,Diorite_rect,11,0,11,0,1,
66295979973d480359d7ddee,TCN,2024-06-24_13h44.46.748,LearnStrategy,2023.2.3,Win32,60.24096386,5,2,13,,,,,,,,8,04,,,,,,,,,,,8,1.873,1,,,,,,0.404629601,-0.405555584,1,0,0,1.8734,Pumice_rect,12,0,12,0,1,
66295979973d480359d7ddee,TCN,2024-06-24_13h44.46.748,LearnStrategy,2023.2.3,Win32,60.24096386,5,2,14,,,,,,,,4,01,,,,,,,,,,,2,8.749,0,,,,,,-0.099999958,-0.238888917,1,0,0,8.7491,Basalt_rect,13,0,13,0,1,
66295979973d480359d7ddee,TCN,2024-06-24_13h44.46.748,LearnStrategy,2023.2.3,Win32,60.24096386,5,2,15,,,,,,,,7,08,,,,,,,,,,,7,1.877,1,,,,,,0.112037023,-0.413888931,1,0,0,1.8769,Peridotite_rect,14,0,14,0,1,
66295979973d480359d7ddee,TCN,2024-06-24_13h44.46.748,LearnStrategy,2023.2.3,Win32,60.24096386,5,2,16,,,,,,,,5,14,,,,,,,,,,,5,1.549,1,,,,,,-0.39907406,-0.398148148,1,0,0,1.5485,Obsidian_rect,15,0,15,0,1,
66295979973d480359d7ddee,TCN,2024-06-24_13h44.46.748,LearnStrategy,2023.2.3,Win32,60.24096386,6,1,1,0.053703732,0.0074074,1,0,0,1.5474,rock_grid_rect_2,2,01,-1,-1,1.547,-0.089814787,-0.238888917,1,0,0,3.2485,Basalt_rect,2,3.248,1,0,0,0,0,1,,,,,,,,,,,,,
66295979973d480359d7ddee,TCN,2024-06-24_13h44.46.748,LearnStrategy,2023.2.3,Win32,60.24096386,6,1,2,0.078703704,-0.005555577,1,0,0,1.4295,rock_grid_rect_2,6,13,-1,-1,1.429,-0.114814829,-0.380555541,1,0,0,1.6501,Pegmatite_rect,6,1.65,1,1,0,1,0,1,,,,,,,,,,,,,
66295979973d480359d7ddee,TCN,2024-06-24_13h44.46.748,LearnStrategy,2023.2.3,Win32,60.24096386,6,1,3,0.029629672,-0.014814836,1,0,0,1.1463,rock_grid_rect_2,4,05,-1,-1,1.146,-0.414814808,-0.242592635,1,0,0,11.4733,Andesite_rect,1,11.473,0,2,0,2,0,1,,,,,,,,,,,,,
66295979973d480359d7ddee,TCN,2024-06-24_13h44.46.748,LearnStrategy,2023.2.3,Win32,60.24096386,6,1,4,0.101851852,-0.015740748,1,0,0,1.4862,rock_grid_rect_2,8,08,-1,-1,1.486,0.414814843,-0.404629672,1,0,0,2.1184,Pumice_rect,8,2.118,1,3,0,3,0,1,,,,,,,,,,,,,
66295979973d480359d7ddee,TCN,2024-06-24_13h44.46.748,LearnStrategy,2023.2.3,Win32,60.24096386,6,1,5,0.043518561,0.011111118,1,0,0,1.0557,rock_grid_rect_2,5,12,-1,-1,1.056,-0.37962963,-0.412962949,1,0,0,2.8745,Obsidian_rect,5,2.875,1,4,0,4,0,1,,,,,,,,,,,,,
66295979973d480359d7ddee,TCN,2024-06-24_13h44.46.748,LearnStrategy,2023.2.3,Win32,60.24096386,6,1,6,0.010185171,-0.00462963,1,0,0,1.406,rock_grid_rect_2,5,06,-1,-1,1.406,-0.40370369,-0.407407407,1,0,0,2.0965,Obsidian_rect,5,2.096,1,5,0,5,0,1,,,,,,,,,,,,,
66295979973d480359d7ddee,TCN,2024-06-24_13h44.46.748,LearnStrategy,2023.2.3,Win32,60.24096386,6,1,7,0.131481524,-0.010185206,1,0,0,1.3465,rock_grid_rect_2,4,09,-1,-1,1.346,-0.116666653,-0.250925912,1,0,0,3.8578,Basalt_rect,2,3.858,0,6,0,6,0,1,,,,,,,,,,,,,
66295979973d480359d7ddee,TCN,2024-06-24_13h44.46.748,LearnStrategy,2023.2.3,Win32,60.24096386,6,1,8,0.07222225,-0.01203703,1,0,0,1.147,rock_grid_rect_2,7,04,-1,-1,1.147,0.112963005,-0.388888889,1,0,0,3.0205,Peridotite_rect,7,3.02,1,7,0,7,0,1,,,,,,,,,,,,,
66295979973d480359d7ddee,TCN,2024-06-24_13h44.46.748,LearnStrategy,2023.2.3,Win32,60.24096386,6,1,9,0.042592578,-0.006481489,1,0,0,1.2615,rock_grid_rect_2,7,13,-1,-1,1.262,0.119444459,-0.406481496,1,0,0,1.8304,Peridotite_rect,7,1.83,1,8,0,8,0,1,,,,,,,,,,,,,
66295979973d480359d7ddee,TCN,2024-06-24_13h44.46.748,LearnStrategy,2023.2.3,Win32,60.24096386,6,1,10,-0.013888889,0.005555541,1,0,0,1.7224,rock_grid_rect_2,1,05,-1,-1,1.722,-0.347222222,-0.251851894,1,0,0,5.4236,Andesite_rect,1,5.424,1,9,0,9,0,1,,,,,,,,,,,,,
66295979973d480359d7ddee,TCN,2024-06-24_13h44.46.748,LearnStrategy,2023.2.3,Win32,60.24096386,6,1,11,0.008333347,0.01944443,1,0,0,1.3615,rock_grid_rect_2,3,12,-1,-1,1.361,0.121296282,-0.262037065,1,0,0,2.0343,Diorite_rect,3,2.034,1,10,0,10,0,1,,,,,,,,,,,,,
66295979973d480359d7ddee,TCN,2024-06-24_13h44.46.748,LearnStrategy,2023.2.3,Win32,60.24096386,6,1,12,0.048148191,-0.009259259,1,0,0,1.2798,rock_grid_rect_2,6,16,-1,-1,1.28,-0.137036995,-0.37962963,1,0,0,1.6434,Pegmatite_rect,6,1.643,1,11,0,11,0,1,,,,,,,,,,,,,
66295979973d480359d7ddee,TCN,2024-06-24_13h44.46.748,LearnStrategy,2023.2.3,Win32,60.24096386,6,1,13,-0.025925884,-0.002777771,1,0,0,1.2624,rock_grid_rect_2,3,11,-1,-1,1.262,0.071296339,-0.235185199,1,0,0,1.4138,Diorite_rect,3,1.414,1,12,0,12,0,1,,,,,,,,,,,,,
66295979973d480359d7ddee,TCN,2024-06-24_13h44.46.748,LearnStrategy,2023.2.3,Win32,60.24096386,6,1,14,0.043518561,0.015740748,1,0,0,1.1471,rock_grid_rect_2,8,09,-1,-1,1.147,0.387037065,-0.396296325,1,0,0,1.7949,Pumice_rect,8,1.795,1,13,0,13,0,1,,,,,,,,,,,,,
66295979973d480359d7ddee,TCN,2024-06-24_13h44.46.748,LearnStrategy,2023.2.3,Win32,60.24096386,6,1,15,0.087962963,0.000925912,1,0,0,1.1622,rock_grid_rect_2,1,16,-1,-1,1.162,-0.376851859,-0.251851894,1,0,0,3.4256,Andesite_rect,1,3.426,1,14,0,14,0,1,,,,,,,,,,,,,
66295979973d480359d7ddee,TCN,2024-06-24_13h44.46.748,LearnStrategy,2023.2.3,Win32,60.24096386,6,1,16,0.032407407,-0.0074074,1,0,0,1.2123,rock_grid_rect_2,2,08,-1,-1,1.212,-0.116666653,-0.250925912,1,0,0,1.6782,Basalt_rect,2,1.678,1,15,0,15,0,1,,,,,,,,,,,,,
66295979973d480359d7ddee,TCN,2024-06-24_13h44.46.748,LearnStrategy,2023.2.3,Win32,60.24096386,6,2,1,,,,,,,,6,03,,,,,,,,,,,6,2.861,1,,,,,,-0.132407365,-0.396296325,1,0,0,2.8609,Pegmatite_rect,0,0,0,0,1,
66295979973d480359d7ddee,TCN,2024-06-24_13h44.46.748,LearnStrategy,2023.2.3,Win32,60.24096386,6,2,2,,,,,,,,5,16,,,,,,,,,,,5,2.523,1,,,,,,-0.386111118,-0.391666695,1,0,0,2.5228,Obsidian_rect,1,0,1,0,1,
66295979973d480359d7ddee,TCN,2024-06-24_13h44.46.748,LearnStrategy,2023.2.3,Win32,60.24096386,6,2,3,,,,,,,,4,03,,,,,,,,,,,1,1.864,0,,,,,,-0.371296282,-0.249074088,1,0,0,1.8643,Andesite_rect,2,0,2,0,1,
66295979973d480359d7ddee,TCN,2024-06-24_13h44.46.748,LearnStrategy,2023.2.3,Win32,60.24096386,6,2,4,,,,,,,,1,01,,,,,,,,,,,4,10.296,0,,,,,,0.415740826,-0.24537037,1,0,0,10.2958,Gabbro_rect,3,0,3,0,1,
66295979973d480359d7ddee,TCN,2024-06-24_13h44.46.748,LearnStrategy,2023.2.3,Win32,60.24096386,6,2,5,,,,,,,,7,07,,,,,,,,,,,7,3.319,1,,,,,,0.139814801,-0.381481524,1,0,0,3.3194,Peridotite_rect,4,0,4,0,1,
66295979973d480359d7ddee,TCN,2024-06-24_13h44.46.748,LearnStrategy,2023.2.3,Win32,60.24096386,6,2,6,,,,,,,,4,15,,,,,,,,,,,4,2.145,1,,,,,,0.412963019,-0.242592635,1,0,0,2.1454,Gabbro_rect,5,0,5,0,1,
66295979973d480359d7ddee,TCN,2024-06-24_13h44.46.748,LearnStrategy,2023.2.3,Win32,60.24096386,6,2,7,,,,,,,,2,04,,,,,,,,,,,2,1.725,1,,,,,,-0.146296254,-0.250925912,1,0,0,1.725,Basalt_rect,6,0,6,0,1,
66295979973d480359d7ddee,TCN,2024-06-24_13h44.46.748,LearnStrategy,2023.2.3,Win32,60.24096386,6,2,8,,,,,,,,3,07,,,,,,,,,,,3,1.573,1,,,,,,0.112963005,-0.255555541,1,0,0,1.5731,Diorite_rect,7,0,7,0,1,
66295979973d480359d7ddee,TCN,2024-06-24_13h44.46.748,LearnStrategy,2023.2.3,Win32,60.24096386,6,2,9,,,,,,,,8,16,,,,,,,,,,,8,2.819,1,,,,,,0.361111111,-0.407407407,1,0,0,2.8185,Pumice_rect,8,0,8,0,1,
66295979973d480359d7ddee,TCN,2024-06-24_13h44.46.748,LearnStrategy,2023.2.3,Win32,60.24096386,6,2,10,,,,,,,,2,06,,,,,,,,,,,2,3.425,1,,,,,,-0.146296254,-0.246296282,1,0,0,3.4252,Basalt_rect,9,0,9,0,1,
66295979973d480359d7ddee,TCN,2024-06-24_13h44.46.748,LearnStrategy,2023.2.3,Win32,60.24096386,6,2,11,,,,,,,,5,05,,,,,,,,,,,6,3.957,0,,,,,,-0.114814829,-0.401851866,1,0,0,3.957,Pegmatite_rect,10,0,10,0,1,
66295979973d480359d7ddee,TCN,2024-06-24_13h44.46.748,LearnStrategy,2023.2.3,Win32,60.24096386,6,2,12,,,,,,,,7,16,,,,,,,,,,,7,1.664,1,,,,,,0.136111153,-0.411111125,1,0,0,1.6643,Peridotite_rect,11,0,11,0,1,
66295979973d480359d7ddee,TCN,2024-06-24_13h44.46.748,LearnStrategy,2023.2.3,Win32,60.24096386,6,2,13,,,,,,,,1,10,,,,,,,,,,,1,1.799,1,,,,,,-0.377777771,-0.265740783,1,0,0,1.7989,Andesite_rect,12,0,12,0,1,
66295979973d480359d7ddee,TCN,2024-06-24_13h44.46.748,LearnStrategy,2023.2.3,Win32,60.24096386,6,2,14,,,,,,,,3,16,,,,,,,,,,,3,1.566,1,,,,,,0.132407436,-0.25462963,1,0,0,1.566,Diorite_rect,13,0,13,0,1,
66295979973d480359d7ddee,TCN,2024-06-24_13h44.46.748,LearnStrategy,2023.2.3,Win32,60.24096386,6,2,15,,,,,,,,6,12,,,,,,,,,,,6,1.68,1,,,,,,-0.131481453,-0.400000042,1,0,0,1.6798,Pegmatite_rect,14,0,14,0,1,
66295979973d480359d7ddee,TCN,2024-06-24_13h44.46.748,LearnStrategy,2023.2.3,Win32,60.24096386,6,2,16,,,,,,,,8,03,,,,,,,,,,,8,1.762,1,,,,,,0.412963019,-0.400000042,1,0,0,1.762,Pumice_rect,15,0,15,0,1,
66295979973d480359d7ddee,TCN,2024-06-24_13h44.46.748,LearnStrategy,2023.2.3,Win32,60.24096386,7,1,1,0.064814815,0.009259259,1,0,0,2.1389,rock_grid_rect_2,2,05,-1,-1,2.139,-0.113888847,-0.253703718,1,0,0,16.8065,Basalt_rect,2,16.806,1,0,0,0,0,1,,,,,,,,,,,,,
66295979973d480359d7ddee,TCN,2024-06-24_13h44.46.748,LearnStrategy,2023.2.3,Win32,60.24096386,7,1,2,0.022222236,-0.024074095,1,0,0,2.4957,rock_grid_rect_2,8,09,-1,-1,2.496,0.397222307,-0.404629672,1,0,0,2.613,Pumice_rect,8,2.613,1,1,0,1,0,1,,,,,,,,,,,,,
66295979973d480359d7ddee,TCN,2024-06-24_13h44.46.748,LearnStrategy,2023.2.3,Win32,60.24096386,7,1,3,0.042592578,0,1,0,0,5.5377,rock_grid_rect_2,6,11,-1,-1,5.538,-0.169444402,-0.412037037,1,0,0,2.9474,Pegmatite_rect,6,2.947,1,2,0,2,0,1,,,,,,,,,,,,,
66295979973d480359d7ddee,TCN,2024-06-24_13h44.46.748,LearnStrategy,2023.2.3,Win32,60.24096386,7,1,4,0.087037051,-0.00462963,1,0,0,1.2628,rock_grid_rect_2,4,12,-1,-1,1.263,-0.131481453,-0.246296282,1,0,0,2.3257,Basalt_rect,2,2.326,0,3,0,3,0,1,,,,,,,,,,,,,
66295979973d480359d7ddee,TCN,2024-06-24_13h44.46.748,LearnStrategy,2023.2.3,Win32,60.24096386,7,1,5,0.162962949,0.00462963,1,0,0,1.3166,rock_grid_rect_2,1,06,-1,-1,1.317,-0.37962963,-0.271296325,1,0,0,3.2495,Andesite_rect,1,3.249,1,4,0,4,0,1,,,,,,,,,,,,,
66295979973d480359d7ddee,TCN,2024-06-24_13h44.46.748,LearnStrategy,2023.2.3,Win32,60.24096386,7,1,6,0.051851838,0,1,0,0,1.4622,rock_grid_rect_2,2,08,-1,-1,1.462,-0.143518519,-0.250925912,1,0,0,1.9008,Basalt_rect,2,1.901,1,5,0,5,0,1,,,,,,,,,,,,,
66295979973d480359d7ddee,TCN,2024-06-24_13h44.46.748,LearnStrategy,2023.2.3,Win32,60.24096386,7,1,7,0.062962991,0.01203703,1,0,0,1.1801,rock_grid_rect_2,8,10,-1,-1,1.18,0.443518603,-0.395370413,1,0,0,2.2043,Pumice_rect,8,2.204,1,6,0,6,0,1,,,,,,,,,,,,,
66295979973d480359d7ddee,TCN,2024-06-24_13h44.46.748,LearnStrategy,2023.2.3,Win32,60.24096386,7,1,8,0.031481496,-0.015740748,1,0,0,1.7964,rock_grid_rect_2,7,15,-1,-1,1.796,0.123148176,-0.404629672,1,0,0,2.4188,Peridotite_rect,7,2.419,1,7,0,7,0,1,,,,,,,,,,,,,
66295979973d480359d7ddee,TCN,2024-06-24_13h44.46.748,LearnStrategy,2023.2.3,Win32,60.24096386,7,1,9,0.035185213,-0.013888889,1,0,0,1.6387,rock_grid_rect_2,4,08,-1,-1,1.639,-0.40648146,-0.255555541,1,0,0,6.3695,Andesite_rect,1,6.37,0,8,0,8,0,1,,,,,,,,,,,,,
66295979973d480359d7ddee,TCN,2024-06-24_13h44.46.748,LearnStrategy,2023.2.3,Win32,60.24096386,7,1,10,0.058333362,0.010185171,1,0,0,1.1993,rock_grid_rect_2,6,10,-1,-1,1.199,-0.066666638,-0.404629672,1,0,0,2.0982,Pegmatite_rect,6,2.098,1,9,0,9,0,1,,,,,,,,,,,,,
66295979973d480359d7ddee,TCN,2024-06-24_13h44.46.748,LearnStrategy,2023.2.3,Win32,60.24096386,7,1,11,0.025925954,0.015740748,1,0,0,1.1892,rock_grid_rect_2,3,02,-1,-1,1.189,0.141666695,-0.271296325,1,0,0,1.5474,Diorite_rect,3,1.547,1,10,0,10,0,1,,,,,,,,,,,,,
66295979973d480359d7ddee,TCN,2024-06-24_13h44.46.748,LearnStrategy,2023.2.3,Win32,60.24096386,7,1,12,0.07222225,0.006481489,1,0,0,2.113,rock_grid_rect_2,7,05,-1,-1,2.113,0.125925912,-0.406481496,1,0,0,6.0002,Peridotite_rect,7,6,1,11,0,11,0,1,,,,,,,,,,,,,
66295979973d480359d7ddee,TCN,2024-06-24_13h44.46.748,LearnStrategy,2023.2.3,Win32,60.24096386,7,1,13,0.033333319,0,1,0,0,1.3772,rock_grid_rect_2,5,04,-1,-1,1.377,-0.385185171,-0.400000042,1,0,0,1.4085,Obsidian_rect,5,1.409,1,12,0,12,0,1,,,,,,,,,,,,,
66295979973d480359d7ddee,TCN,2024-06-24_13h44.46.748,LearnStrategy,2023.2.3,Win32,60.24096386,7,1,14,0.043518561,0.001851859,1,0,0,1.4304,rock_grid_rect_2,3,09,-1,-1,1.43,0.113888917,-0.239814829,1,0,0,1.3741,Diorite_rect,3,1.374,1,13,0,13,0,1,,,,,,,,,,,,,
66295979973d480359d7ddee,TCN,2024-06-24_13h44.46.748,LearnStrategy,2023.2.3,Win32,60.24096386,7,1,15,0.025925954,-0.005555577,1,0,0,1.2883,rock_grid_rect_2,5,06,-1,-1,1.288,-0.426851838,-0.397222236,1,0,0,1.7131,Obsidian_rect,5,1.713,1,14,0,14,0,1,,,,,,,,,,,,,
66295979973d480359d7ddee,TCN,2024-06-24_13h44.46.748,LearnStrategy,2023.2.3,Win32,60.24096386,7,1,16,0.050925926,-0.003703718,1,0,0,1.279,rock_grid_rect_2,1,03,-1,-1,1.279,-0.365740741,-0.251851894,1,0,0,1.7122,Andesite_rect,1,1.712,1,15,0,15,0,1,,,,,,,,,,,,,
66295979973d480359d7ddee,TCN,2024-06-24_13h44.46.748,LearnStrategy,2023.2.3,Win32,60.24096386,7,2,1,,,,,,,,7,06,,,,,,,,,,,7,3.2,1,,,,,,0.128703718,-0.412037037,1,0,0,3.2,Peridotite_rect,0,0,0,0,1,
66295979973d480359d7ddee,TCN,2024-06-24_13h44.46.748,LearnStrategy,2023.2.3,Win32,60.24096386,7,2,2,,,,,,,,8,06,,,,,,,,,,,8,1.438,1,,,,,,0.383333418,-0.387962977,1,0,0,1.4381,Pumice_rect,1,0,1,0,1,
66295979973d480359d7ddee,TCN,2024-06-24_13h44.46.748,LearnStrategy,2023.2.3,Win32,60.24096386,7,2,3,,,,,,,,3,16,,,,,,,,,,,3,1.702,1,,,,,,0.187962991,-0.255555541,1,0,0,1.7023,Diorite_rect,2,0,2,0,1,
66295979973d480359d7ddee,TCN,2024-06-24_13h44.46.748,LearnStrategy,2023.2.3,Win32,60.24096386,7,2,4,,,,,,,,6,12,,,,,,,,,,,6,1.689,1,,,,,,-0.110185199,-0.420370384,1,0,0,1.6889,Pegmatite_rect,3,0,3,0,1,
66295979973d480359d7ddee,TCN,2024-06-24_13h44.46.748,LearnStrategy,2023.2.3,Win32,60.24096386,7,2,5,,,,,,,,4,15,,,,,,,,,,,4,1.822,1,,,,,,0.440740797,-0.25,1,0,0,1.8215,Gabbro_rect,4,0,4,0,1,
66295979973d480359d7ddee,TCN,2024-06-24_13h44.46.748,LearnStrategy,2023.2.3,Win32,60.24096386,7,2,6,,,,,,,,4,11,,,,,,,,,,,2,2.76,0,,,,,,-0.102777764,-0.240740741,1,0,0,2.7595,Basalt_rect,5,0,5,0,1,
66295979973d480359d7ddee,TCN,2024-06-24_13h44.46.748,LearnStrategy,2023.2.3,Win32,60.24096386,7,2,7,,,,,,,,8,15,,,,,,,,,,,8,2.275,1,,,,,,0.382407436,-0.404629672,1,0,0,2.2746,Pumice_rect,6,0,6,0,1,
66295979973d480359d7ddee,TCN,2024-06-24_13h44.46.748,LearnStrategy,2023.2.3,Win32,60.24096386,7,2,8,,,,,,,,1,11,,,,,,,,,,,1,4.303,1,,,,,,-0.376851859,-0.259259259,1,0,0,4.3026,Andesite_rect,7,0,7,0,1,
66295979973d480359d7ddee,TCN,2024-06-24_13h44.46.748,LearnStrategy,2023.2.3,Win32,60.24096386,7,2,9,,,,,,,,5,05,,,,,,,,,,,5,3.089,1,,,,,,-0.404629637,-0.402777778,1,0,0,3.0892,Obsidian_rect,8,0,8,0,1,
66295979973d480359d7ddee,TCN,2024-06-24_13h44.46.748,LearnStrategy,2023.2.3,Win32,60.24096386,7,2,10,,,,,,,,3,10,,,,,,,,,,,3,3.004,1,,,,,,0.159259302,-0.251851894,1,0,0,3.0042,Diorite_rect,9,0,9,0,1,
66295979973d480359d7ddee,TCN,2024-06-24_13h44.46.748,LearnStrategy,2023.2.3,Win32,60.24096386,7,2,11,,,,,,,,1,07,,,,,,,,,,,1,2.327,1,,,,,,-0.326851845,-0.244444459,1,0,0,2.3273,Andesite_rect,10,0,10,0,1,
66295979973d480359d7ddee,TCN,2024-06-24_13h44.46.748,LearnStrategy,2023.2.3,Win32,60.24096386,7,2,12,,,,,,,,2,02,,,,,,,,,,,2,7.543,1,,,,,,-0.104629587,-0.244444459,1,0,0,7.5431,Basalt_rect,11,0,11,0,1,
66295979973d480359d7ddee,TCN,2024-06-24_13h44.46.748,LearnStrategy,2023.2.3,Win32,60.24096386,7,2,13,,,,,,,,2,06,,,,,,,,,,,2,4.135,1,,,,,,-0.104629587,-0.244444459,1,0,0,4.1353,Basalt_rect,12,0,12,0,1,
66295979973d480359d7ddee,TCN,2024-06-24_13h44.46.748,LearnStrategy,2023.2.3,Win32,60.24096386,7,2,14,,,,,,,,7,08,,,,,,,,,,,7,2.744,1,,,,,,0.128703718,-0.408333319,1,0,0,2.7438,Peridotite_rect,13,0,13,0,1,
66295979973d480359d7ddee,TCN,2024-06-24_13h44.46.748,LearnStrategy,2023.2.3,Win32,60.24096386,7,2,15,,,,,,,,5,14,,,,,,,,,,,5,2.591,1,,,,,,-0.436111097,-0.401851866,1,0,0,2.591,Obsidian_rect,14,0,14,0,1,
66295979973d480359d7ddee,TCN,2024-06-24_13h44.46.748,LearnStrategy,2023.2.3,Win32,60.24096386,7,2,16,,,,,,,,6,03,,,,,,,,,,,6,1.479,1,,,,,,-0.199074074,-0.419444473,1,0,0,1.4787,Pegmatite_rect,15,0,15,0,1,
66295979973d480359d7ddee,TCN,2024-06-24_13h44.46.748,LearnStrategy,2023.2.3,Win32,60.24096386,8,1,1,0.011111153,-0.010185206,1,0,0,2.5048,rock_grid_rect_2,3,12,-1,-1,2.505,0.106481481,-0.262037065,1,0,0,1.7864,Diorite_rect,3,1.786,1,0,0,0,0,1,,,,,,,,,,,,,
66295979973d480359d7ddee,TCN,2024-06-24_13h44.46.748,LearnStrategy,2023.2.3,Win32,60.24096386,8,1,2,0.009259259,0,1,0,0,3.8468,rock_grid_rect_2,7,02,-1,-1,3.847,0.136111153,-0.400000042,1,0,0,1.7171,Peridotite_rect,7,1.717,1,1,0,1,0,1,,,,,,,,,,,,,
66295979973d480359d7ddee,TCN,2024-06-24_13h44.46.748,LearnStrategy,2023.2.3,Win32,60.24096386,8,1,3,0.061111097,-0.01203703,1,0,0,1.3895,rock_grid_rect_2,6,16,-1,-1,1.389,-0.139814801,-0.408333319,1,0,0,1.5327,Pegmatite_rect,6,1.533,1,2,0,2,0,1,,,,,,,,,,,,,
66295979973d480359d7ddee,TCN,2024-06-24_13h44.46.748,LearnStrategy,2023.2.3,Win32,60.24096386,8,1,4,0.012962977,0.012962942,1,0,0,1.3789,rock_grid_rect_2,4,16,-1,-1,1.379,0.410185213,-0.25462963,1,0,0,3.4594,Gabbro_rect,4,3.459,1,3,0,3,0,1,,,,,,,,,,,,,
66295979973d480359d7ddee,TCN,2024-06-24_13h44.46.748,LearnStrategy,2023.2.3,Win32,60.24096386,8,1,5,-0.000925912,0.011111118,1,0,0,1.4794,rock_grid_rect_2,7,12,-1,-1,1.479,0.100000028,-0.381481524,1,0,0,5.1648,Peridotite_rect,7,5.165,1,4,0,4,0,1,,,,,,,,,,,,,
66295979973d480359d7ddee,TCN,2024-06-24_13h44.46.748,LearnStrategy,2023.2.3,Win32,60.24096386,8,1,6,0.022222236,-0.003703718,1,0,0,1.1463,rock_grid_rect_2,1,16,-1,-1,1.146,-0.374074053,-0.234259288,1,0,0,1.6959,Andesite_rect,1,1.696,1,5,0,5,0,1,,,,,,,,,,,,,
66295979973d480359d7ddee,TCN,2024-06-24_13h44.46.748,LearnStrategy,2023.2.3,Win32,60.24096386,8,1,7,-0.036111125,-0.017592607,1,0,0,1.2675,rock_grid_rect_2,5,09,-1,-1,1.268,-0.401851831,-0.401851866,1,0,0,1.4682,Obsidian_rect,5,1.468,1,6,0,6,0,1,,,,,,,,,,,,,
66295979973d480359d7ddee,TCN,2024-06-24_13h44.46.748,LearnStrategy,2023.2.3,Win32,60.24096386,8,1,8,-0.024999972,0.0074074,1,0,0,1.6458,rock_grid_rect_2,1,05,-1,-1,1.646,-0.393518519,-0.261111153,1,0,0,1.4316,Andesite_rect,1,1.432,1,7,0,7,0,1,,,,,,,,,,,,,
66295979973d480359d7ddee,TCN,2024-06-24_13h44.46.748,LearnStrategy,2023.2.3,Win32,60.24096386,8,1,9,0.038888931,-0.012962977,1,0,0,1.6138,rock_grid_rect_2,4,05,-1,-1,1.614,0.136111153,-0.387037065,1,0,0,5.3947,Peridotite_rect,7,5.395,0,8,0,8,0,1,,,,,,,,,,,,,
66295979973d480359d7ddee,TCN,2024-06-24_13h44.46.748,LearnStrategy,2023.2.3,Win32,60.24096386,8,1,10,-0.012962977,-0.008333347,1,0,0,1.1555,rock_grid_rect_2,2,10,-1,-1,1.156,-0.198148162,-0.255555541,1,0,0,3.0639,Basalt_rect,2,3.064,1,9,0,9,0,1,,,,,,,,,,,,,
66295979973d480359d7ddee,TCN,2024-06-24_13h44.46.748,LearnStrategy,2023.2.3,Win32,60.24096386,8,1,11,0.009259259,-0.005555577,1,0,0,1.6796,rock_grid_rect_2,5,12,-1,-1,1.68,-0.404629637,-0.416666667,1,0,0,1.5871,Obsidian_rect,5,1.587,1,10,0,10,0,1,,,,,,,,,,,,,
66295979973d480359d7ddee,TCN,2024-06-24_13h44.46.748,LearnStrategy,2023.2.3,Win32,60.24096386,8,1,12,0.073148162,-0.009259259,1,0,0,1.3507,rock_grid_rect_2,3,11,-1,-1,1.351,0.125925912,-0.234259288,1,0,0,2.7261,Diorite_rect,3,2.726,1,11,0,11,0,1,,,,,,,,,,,,,
66295979973d480359d7ddee,TCN,2024-06-24_13h44.46.748,LearnStrategy,2023.2.3,Win32,60.24096386,8,1,13,0.020370413,0.01944443,1,0,0,1.1788,rock_grid_rect_2,8,13,-1,-1,1.179,0.412037037,-0.406481496,1,0,0,1.7934,Pumice_rect,8,1.793,1,12,0,12,0,1,,,,,,,,,,,,,
66295979973d480359d7ddee,TCN,2024-06-24_13h44.46.748,LearnStrategy,2023.2.3,Win32,60.24096386,8,1,14,0.023148148,-0.021296289,1,0,0,1.3959,rock_grid_rect_2,2,01,-1,-1,1.396,-0.123148106,-0.263888889,1,0,0,5.2953,Basalt_rect,2,5.295,1,13,0,13,0,1,,,,,,,,,,,,,
66295979973d480359d7ddee,TCN,2024-06-24_13h44.46.748,LearnStrategy,2023.2.3,Win32,60.24096386,8,1,15,-0.011111083,0.003703683,1,0,0,1.0954,rock_grid_rect_2,6,06,-1,-1,1.095,-0.115740741,-0.393518519,1,0,0,2.7087,Pegmatite_rect,6,2.709,1,14,0,14,0,1,,,,,,,,,,,,,
66295979973d480359d7ddee,TCN,2024-06-24_13h44.46.748,LearnStrategy,2023.2.3,Win32,60.24096386,8,1,16,-0.018518519,0.001851859,1,0,0,1.1957,rock_grid_rect_2,8,05,-1,-1,1.196,0.391666695,-0.396296325,1,0,0,1.8427,Pumice_rect,8,1.843,1,15,0,15,0,1,,,,,,,,,,,,,
66295979973d480359d7ddee,TCN,2024-06-24_13h44.46.748,LearnStrategy,2023.2.3,Win32,60.24096386,8,2,1,,,,,,,,6,05,,,,,,,,,,,6,2.439,1,,,,,,-0.131481453,-0.414814843,1,0,0,2.4388,Pegmatite_rect,0,0,0,0,1,
66295979973d480359d7ddee,TCN,2024-06-24_13h44.46.748,LearnStrategy,2023.2.3,Win32,60.24096386,8,2,2,,,,,,,,5,10,,,,,,,,,,,5,1.392,1,,,,,,-0.39907406,-0.382407436,1,0,0,1.3924,Obsidian_rect,1,0,1,0,1,
66295979973d480359d7ddee,TCN,2024-06-24_13h44.46.748,LearnStrategy,2023.2.3,Win32,60.24096386,8,2,3,,,,,,,,8,02,,,,,,,,,,,8,1.658,1,,,,,,0.406481566,-0.401851866,1,0,0,1.6582,Pumice_rect,2,0,2,0,1,
66295979973d480359d7ddee,TCN,2024-06-24_13h44.46.748,LearnStrategy,2023.2.3,Win32,60.24096386,8,2,4,,,,,,,,7,07,,,,,,,,,,,7,1.714,1,,,,,,0.162962949,-0.397222236,1,0,0,1.7144,Peridotite_rect,3,0,3,0,1,
66295979973d480359d7ddee,TCN,2024-06-24_13h44.46.748,LearnStrategy,2023.2.3,Win32,60.24096386,8,2,5,,,,,,,,2,09,,,,,,,,,,,2,6.468,1,,,,,,-0.09629631,-0.252777806,1,0,0,6.4685,Basalt_rect,4,0,4,0,1,
66295979973d480359d7ddee,TCN,2024-06-24_13h44.46.748,LearnStrategy,2023.2.3,Win32,60.24096386,8,2,6,,,,,,,,3,14,,,,,,,,,,,3,1.438,1,,,,,,0.146296325,-0.260185171,1,0,0,1.4383,Diorite_rect,5,0,5,0,1,
66295979973d480359d7ddee,TCN,2024-06-24_13h44.46.748,LearnStrategy,2023.2.3,Win32,60.24096386,8,2,7,,,,,,,,7,10,,,,,,,,,,,7,1.686,1,,,,,,0.132407436,-0.405555584,1,0,0,1.6858,Peridotite_rect,6,0,6,0,1,
66295979973d480359d7ddee,TCN,2024-06-24_13h44.46.748,LearnStrategy,2023.2.3,Win32,60.24096386,8,2,8,,,,,,,,1,02,,,,,,,,,,,1,2.761,1,,,,,,-0.388888889,-0.25462963,1,0,0,2.7606,Andesite_rect,7,0,7,0,1,
66295979973d480359d7ddee,TCN,2024-06-24_13h44.46.748,LearnStrategy,2023.2.3,Win32,60.24096386,8,2,9,,,,,,,,8,04,,,,,,,,,,,8,1.676,1,,,,,,0.382407436,-0.400000042,1,0,0,1.6758,Pumice_rect,8,0,8,0,1,
66295979973d480359d7ddee,TCN,2024-06-24_13h44.46.748,LearnStrategy,2023.2.3,Win32,60.24096386,8,2,10,,,,,,,,5,08,,,,,,,,,,,5,1.665,1,,,,,,-0.388888889,-0.401851866,1,0,0,1.6653,Obsidian_rect,9,0,9,0,1,
66295979973d480359d7ddee,TCN,2024-06-24_13h44.46.748,LearnStrategy,2023.2.3,Win32,60.24096386,8,2,11,,,,,,,,1,01,,,,,,,,,,,6,12.818,0,,,,,,-0.099074046,-0.411111125,1,0,0,12.8178,Pegmatite_rect,10,0,10,0,1,
66295979973d480359d7ddee,TCN,2024-06-24_13h44.46.748,LearnStrategy,2023.2.3,Win32,60.24096386,8,2,12,,,,,,,,4,01,,,,,,,,,,,1,8.256,0,,,,,,-0.366666653,-0.242592635,1,0,0,8.256,Andesite_rect,11,0,11,0,1,
66295979973d480359d7ddee,TCN,2024-06-24_13h44.46.748,LearnStrategy,2023.2.3,Win32,60.24096386,8,2,13,,,,,,,,4,10,,,,,,,,,,,4,6.831,1,,,,,,0.421296296,-0.252777806,1,0,0,6.8309,Gabbro_rect,12,0,12,0,1,
66295979973d480359d7ddee,TCN,2024-06-24_13h44.46.748,LearnStrategy,2023.2.3,Win32,60.24096386,8,2,14,,,,,,,,6,15,,,,,,,,,,,6,1.611,1,,,,,,-0.156481496,-0.390740783,1,0,0,1.6111,Pegmatite_rect,13,0,13,0,1,
66295979973d480359d7ddee,TCN,2024-06-24_13h44.46.748,LearnStrategy,2023.2.3,Win32,60.24096386,8,2,15,,,,,,,,3,07,,,,,,,,,,,3,1.476,1,,,,,,0.147222236,-0.236111111,1,0,0,1.4764,Diorite_rect,14,0,14,0,1,
66295979973d480359d7ddee,TCN,2024-06-24_13h44.46.748,LearnStrategy,2023.2.3,Win32,60.24096386,8,2,16,,,,,,,,2,14,,,,,,,,,,,4,3.15,0,,,,,,0.323148233,-0.246296282,1,0,0,3.1496,Gabbro_rect,15,0,15,0,1,
66295979973d480359d7ddee,TCN,2024-06-24_13h44.46.748,LearnStrategy,2023.2.3,Win32,60.24096386,9,1,1,0.011111153,0.0074074,1,0,0,1.4059,rock_grid_rect_2,7,13,-1,-1,1.406,0.101851852,-0.405555584,1,0,0,2.8865,Peridotite_rect,7,2.887,1,0,0,0,0,1,,,,,,,,,,,,,
66295979973d480359d7ddee,TCN,2024-06-24_13h44.46.748,LearnStrategy,2023.2.3,Win32,60.24096386,9,1,2,0.039814843,-0.023148148,1,0,0,1.4187,rock_grid_rect_2,8,08,-1,-1,1.419,0.401851937,-0.40370369,1,0,0,1.7263,Pumice_rect,8,1.726,1,1,0,1,0,1,,,,,,,,,,,,,
66295979973d480359d7ddee,TCN,2024-06-24_13h44.46.748,LearnStrategy,2023.2.3,Win32,60.24096386,9,1,3,0.011111153,-0.006481489,1,0,0,1.679,rock_grid_rect_2,6,13,-1,-1,1.679,-0.178703661,-0.385185171,1,0,0,1.8967,Pegmatite_rect,6,1.897,1,2,0,2,0,1,,,,,,,,,,,,,
66295979973d480359d7ddee,TCN,2024-06-24_13h44.46.748,LearnStrategy,2023.2.3,Win32,60.24096386,9,1,4,0.018518519,-0.002777771,1,0,0,2.814,rock_grid_rect_2,6,08,-1,-1,2.814,-0.19259255,-0.405555584,1,0,0,2.7912,Pegmatite_rect,6,2.791,1,3,0,3,0,1,,,,,,,,,,,,,
66295979973d480359d7ddee,TCN,2024-06-24_13h44.46.748,LearnStrategy,2023.2.3,Win32,60.24096386,9,1,5,0,0.015740748,1,0,0,1.5457,rock_grid_rect_2,4,14,-1,-1,1.546,0.37037037,-0.25462963,1,0,0,2.2031,Gabbro_rect,4,2.203,1,4,0,4,0,1,,,,,,,,,,,,,
66295979973d480359d7ddee,TCN,2024-06-24_13h44.46.748,LearnStrategy,2023.2.3,Win32,60.24096386,9,1,6,-0.02870369,-0.011111118,1,0,0,1.1025,rock_grid_rect_2,3,13,-1,-1,1.102,0.126851894,-0.247222265,1,0,0,1.7276,Diorite_rect,3,1.728,1,5,0,5,0,1,,,,,,,,,,,,,
66295979973d480359d7ddee,TCN,2024-06-24_13h44.46.748,LearnStrategy,2023.2.3,Win32,60.24096386,9,1,7,-0.01944443,0.00462963,1,0,0,1.5798,rock_grid_rect_2,8,14,-1,-1,1.58,0.424074102,-0.39907406,1,0,0,1.6579,Pumice_rect,8,1.658,1,6,0,6,0,1,,,,,,,,,,,,,
66295979973d480359d7ddee,TCN,2024-06-24_13h44.46.748,LearnStrategy,2023.2.3,Win32,60.24096386,9,1,8,-0.016666624,-0.017592607,1,0,0,1.6127,rock_grid_rect_2,4,09,-1,-1,1.613,0.366666723,-0.257407436,1,0,0,8.0475,Gabbro_rect,4,8.047,1,7,0,7,0,1,,,,,,,,,,,,,
66295979973d480359d7ddee,TCN,2024-06-24_13h44.46.748,LearnStrategy,2023.2.3,Win32,60.24096386,9,1,9,0.047222208,0.012962942,1,0,0,1.3805,rock_grid_rect_2,5,02,-1,-1,1.38,-0.381481489,-0.39444443,1,0,0,1.4012,Obsidian_rect,5,1.401,1,8,0,8,0,1,,,,,,,,,,,,,
66295979973d480359d7ddee,TCN,2024-06-24_13h44.46.748,LearnStrategy,2023.2.3,Win32,60.24096386,9,1,10,-0.050000014,0.001851859,1,0,0,1.2292,rock_grid_rect_2,2,12,-1,-1,1.229,0.399074131,-0.396296325,1,0,0,3.2286,Pumice_rect,8,3.229,0,9,0,9,0,1,,,,,,,,,,,,,
66295979973d480359d7ddee,TCN,2024-06-24_13h44.46.748,LearnStrategy,2023.2.3,Win32,60.24096386,9,1,11,0.029629672,-0.015740748,1,0,0,1.7633,rock_grid_rect_2,1,04,-1,-1,1.763,-0.398148148,-0.268518519,1,0,0,3.0258,Andesite_rect,1,3.026,1,10,0,10,0,1,,,,,,,,,,,,,
66295979973d480359d7ddee,TCN,2024-06-24_13h44.46.748,LearnStrategy,2023.2.3,Win32,60.24096386,9,1,12,-0.002777735,-0.017592607,1,0,0,1.2052,rock_grid_rect_2,7,04,-1,-1,1.205,0.176851838,-0.409259302,1,0,0,1.3073,Peridotite_rect,7,1.307,1,11,0,11,0,1,,,,,,,,,,,,,
66295979973d480359d7ddee,TCN,2024-06-24_13h44.46.748,LearnStrategy,2023.2.3,Win32,60.24096386,9,1,13,0.021296325,-0.003703718,1,0,0,1.4628,rock_grid_rect_2,1,09,-1,-1,1.463,-0.396296289,-0.258333347,1,0,0,2.3137,Andesite_rect,1,2.314,1,12,0,12,0,1,,,,,,,,,,,,,
66295979973d480359d7ddee,TCN,2024-06-24_13h44.46.748,LearnStrategy,2023.2.3,Win32,60.24096386,9,1,14,0.012962977,-0.000925947,1,0,0,1.2786,rock_grid_rect_2,2,16,-1,-1,1.279,0.397222307,-0.251851894,1,0,0,2.1473,Gabbro_rect,4,2.147,0,13,0,13,0,1,,,,,,,,,,,,,
66295979973d480359d7ddee,TCN,2024-06-24_13h44.46.748,LearnStrategy,2023.2.3,Win32,60.24096386,9,1,15,0.006481524,-0.006481489,1,0,0,1.7063,rock_grid_rect_2,3,06,-1,-1,1.706,0.123148176,-0.24537037,1,0,0,1.9452,Diorite_rect,3,1.945,1,14,0,14,0,1,,,,,,,,,,,,,
66295979973d480359d7ddee,TCN,2024-06-24_13h44.46.748,LearnStrategy,2023.2.3,Win32,60.24096386,9,1,16,-0.02870369,0.005555541,1,0,0,1.213,rock_grid_rect_2,5,07,-1,-1,1.213,-0.400925919,-0.402777778,1,0,0,2.1766,Obsidian_rect,5,2.177,1,15,0,15,0,1,,,,,,,,,,,,,
66295979973d480359d7ddee,TCN,2024-06-24_13h44.46.748,LearnStrategy,2023.2.3,Win32,60.24096386,9,2,1,,,,,,,,6,07,,,,,,,,,,,6,1.935,1,,,,,,-0.104629587,-0.401851866,1,0,0,1.9352,Pegmatite_rect,0,0,0,0,1,
66295979973d480359d7ddee,TCN,2024-06-24_13h44.46.748,LearnStrategy,2023.2.3,Win32,60.24096386,9,2,2,,,,,,,,3,15,,,,,,,,,,,3,2.471,1,,,,,,0.101851852,-0.247222265,1,0,0,2.4714,Diorite_rect,1,0,1,0,1,
66295979973d480359d7ddee,TCN,2024-06-24_13h44.46.748,LearnStrategy,2023.2.3,Win32,60.24096386,9,2,3,,,,,,,,1,14,,,,,,,,,,,6,2.901,0,,,,,,-0.146296254,-0.407407407,1,0,0,2.9008,Pegmatite_rect,2,0,2,0,1,
66295979973d480359d7ddee,TCN,2024-06-24_13h44.46.748,LearnStrategy,2023.2.3,Win32,60.24096386,9,2,4,,,,,,,,1,10,,,,,,,,,,,1,3.448,1,,,,,,-0.355555534,-0.249074088,1,0,0,3.4477,Andesite_rect,3,0,3,0,1,
66295979973d480359d7ddee,TCN,2024-06-24_13h44.46.748,LearnStrategy,2023.2.3,Win32,60.24096386,9,2,5,,,,,,,,2,04,,,,,,,,,,,2,4.002,1,,,,,,-0.160185143,-0.240740741,1,0,0,4.0022,Basalt_rect,4,0,4,0,1,
66295979973d480359d7ddee,TCN,2024-06-24_13h44.46.748,LearnStrategy,2023.2.3,Win32,60.24096386,9,2,6,,,,,,,,7,14,,,,,,,,,,,7,3.731,1,,,,,,0.128703718,-0.416666667,1,0,0,3.7315,Peridotite_rect,5,0,5,0,1,
66295979973d480359d7ddee,TCN,2024-06-24_13h44.46.748,LearnStrategy,2023.2.3,Win32,60.24096386,9,2,7,,,,,,,,5,16,,,,,,,,,,,5,1.366,1,,,,,,-0.416666667,-0.407407407,1,0,0,1.3658,Obsidian_rect,6,0,6,0,1,
66295979973d480359d7ddee,TCN,2024-06-24_13h44.46.748,LearnStrategy,2023.2.3,Win32,60.24096386,9,2,8,,,,,,,,8,16,,,,,,,,,,,8,5.933,1,,,,,,0.386111083,-0.389814801,1,0,0,5.9334,Pumice_rect,7,0,7,0,1,
66295979973d480359d7ddee,TCN,2024-06-24_13h44.46.748,LearnStrategy,2023.2.3,Win32,60.24096386,9,2,9,,,,,,,,6,09,,,,,,,,,,,6,2.034,1,,,,,,-0.131481453,-0.391666695,1,0,0,2.0342,Pegmatite_rect,8,0,8,0,1,
66295979973d480359d7ddee,TCN,2024-06-24_13h44.46.748,LearnStrategy,2023.2.3,Win32,60.24096386,9,2,10,,,,,,,,4,03,,,,,,,,,,,1,6.914,0,,,,,,-0.360185164,-0.249074088,1,0,0,6.9135,Andesite_rect,9,0,9,0,1,
66295979973d480359d7ddee,TCN,2024-06-24_13h44.46.748,LearnStrategy,2023.2.3,Win32,60.24096386,9,2,11,,,,,,,,8,03,,,,,,,,,,,8,3.437,1,,,,,,0.40833339,-0.415740755,1,0,0,3.4373,Pumice_rect,10,0,10,0,1,
66295979973d480359d7ddee,TCN,2024-06-24_13h44.46.748,LearnStrategy,2023.2.3,Win32,60.24096386,9,2,12,,,,,,,,4,13,,,,,,,,,,,4,1.71,1,,,,,,0.390740712,-0.23055557,1,0,0,1.7097,Gabbro_rect,11,0,11,0,1,
66295979973d480359d7ddee,TCN,2024-06-24_13h44.46.748,LearnStrategy,2023.2.3,Win32,60.24096386,9,2,13,,,,,,,,5,11,,,,,,,,,,,5,1.354,1,,,,,,-0.376851859,-0.391666695,1,0,0,1.354,Obsidian_rect,12,0,12,0,1,
66295979973d480359d7ddee,TCN,2024-06-24_13h44.46.748,LearnStrategy,2023.2.3,Win32,60.24096386,9,2,14,,,,,,,,2,11,,,,,,,,,,,4,11.722,0,,,,,,0.406481566,-0.24537037,1,0,0,11.7222,Gabbro_rect,13,0,13,0,1,
66295979973d480359d7ddee,TCN,2024-06-24_13h44.46.748,LearnStrategy,2023.2.3,Win32,60.24096386,9,2,15,,,,,,,,3,08,,,,,,,,,,,3,1.404,1,,,,,,0.119444459,-0.234259288,1,0,0,1.4039,Diorite_rect,14,0,14,0,1,
66295979973d480359d7ddee,TCN,2024-06-24_13h44.46.748,LearnStrategy,2023.2.3,Win32,60.24096386,9,2,16,,,,,,,,7,16,,,,,,,,,,,7,1.712,1,,,,,,0.094444487,-0.392592607,1,0,0,1.7122,Peridotite_rect,15,0,15,0,1,
66295979973d480359d7ddee,TCN,2024-06-24_13h44.46.748,LearnStrategy,2023.2.3,Win32,60.24096386,,,,,,,,,,,,,,,,,,,,,,,,,,,,,,,,,,,,,,,,,,,1
66295979973d480359d7ddee,TCN,2024-06-24_13h44.46.748,LearnStrategy,2023.2.3,Win32,60.24096386,,,,,,,,,,,,,,,,,,,,,,,,,,,,,,,,,,,,,,,,,,,
66295979973d480359d7ddee,TCN,2024-06-24_13h44.46.748,LearnStrategy,2023.2.3,Win32,60.24096386,,,,,,,,,,,6,08,1,1,,,,,,,,,,,,,,,,,,,,,,,,,,,,,
66295979973d480359d7ddee,TCN,2024-06-24_13h44.46.748,LearnStrategy,2023.2.3,Win32,60.24096386,,,,,,,,,,,7,13,1,2,,,,,,,,,,,,,,,,,,,,,,,,,,,,,
66295979973d480359d7ddee,TCN,2024-06-24_13h44.46.748,LearnStrategy,2023.2.3,Win32,60.24096386,,,,,,,,,,,1,09,1,3,,,,,,,,,,,,,,,,,,,,,,,,,,,,,
66295979973d480359d7ddee,TCN,2024-06-24_13h44.46.748,LearnStrategy,2023.2.3,Win32,60.24096386,,,,,,,,,,,5,12,1,4,,,,,,,,,,,,,,,,,,,,,,,,,,,,,
66295979973d480359d7ddee,TCN,2024-06-24_13h44.46.748,LearnStrategy,2023.2.3,Win32,60.24096386,,,,,,,,,,,1,05,1,5,,,,,,,,,,,,,,,,,,,,,,,,,,,,,
66295979973d480359d7ddee,TCN,2024-06-24_13h44.46.748,LearnStrategy,2023.2.3,Win32,60.24096386,,,,,,,,,,,8,09,1,6,,,,,,,,,,,,,,,,,,,,,,,,,,,,,
66295979973d480359d7ddee,TCN,2024-06-24_13h44.46.748,LearnStrategy,2023.2.3,Win32,60.24096386,,,,,,,,,,,6,10,1,7,,,,,,,,,,,,,,,,,,,,,,,,,,,,,
66295979973d480359d7ddee,TCN,2024-06-24_13h44.46.748,LearnStrategy,2023.2.3,Win32,60.24096386,,,,,,,,,,,7,12,1,8,,,,,,,,,,,,,,,,,,,,,,,,,,,,,
66295979973d480359d7ddee,TCN,2024-06-24_13h44.46.748,LearnStrategy,2023.2.3,Win32,60.24096386,,,,,,,,,,,2,12,2,1,,,,,,,,,,,,,,,,,,,,,,,,,,,,,
66295979973d480359d7ddee,TCN,2024-06-24_13h44.46.748,LearnStrategy,2023.2.3,Win32,60.24096386,,,,,,,,,,,8,05,2,2,,,,,,,,,,,,,,,,,,,,,,,,,,,,,
66295979973d480359d7ddee,TCN,2024-06-24_13h44.46.748,LearnStrategy,2023.2.3,Win32,60.24096386,,,,,,,,,,,6,13,2,3,,,,,,,,,,,,,,,,,,,,,,,,,,,,,
66295979973d480359d7ddee,TCN,2024-06-24_13h44.46.748,LearnStrategy,2023.2.3,Win32,60.24096386,,,,,,,,,,,2,05,2,4,,,,,,,,,,,,,,,,,,,,,,,,,,,,,
66295979973d480359d7ddee,TCN,2024-06-24_13h44.46.748,LearnStrategy,2023.2.3,Win32,60.24096386,,,,,,,,,,,5,06,2,5,,,,,,,,,,,,,,,,,,,,,,,,,,,,,
66295979973d480359d7ddee,TCN,2024-06-24_13h44.46.748,LearnStrategy,2023.2.3,Win32,60.24096386,,,,,,,,,,,8,10,2,6,,,,,,,,,,,,,,,,,,,,,,,,,,,,,
66295979973d480359d7ddee,TCN,2024-06-24_13h44.46.748,LearnStrategy,2023.2.3,Win32,60.24096386,,,,,,,,,,,5,07,2,7,,,,,,,,,,,,,,,,,,,,,,,,,,,,,
66295979973d480359d7ddee,TCN,2024-06-24_13h44.46.748,LearnStrategy,2023.2.3,Win32,60.24096386,,,,,,,,,,,3,13,2,8,,,,,,,,,,,,,,,,,,,,,,,,,,,,,
66295979973d480359d7ddee,TCN,2024-06-24_13h44.46.748,LearnStrategy,2023.2.3,Win32,60.24096386,,,,,,,,,,,7,05,3,1,,,,,,,,,,,,,,,,,,,,,,,,,,,,,
66295979973d480359d7ddee,TCN,2024-06-24_13h44.46.748,LearnStrategy,2023.2.3,Win32,60.24096386,,,,,,,,,,,5,02,3,2,,,,,,,,,,,,,,,,,,,,,,,,,,,,,
66295979973d480359d7ddee,TCN,2024-06-24_13h44.46.748,LearnStrategy,2023.2.3,Win32,60.24096386,,,,,,,,,,,1,04,3,3,,,,,,,,,,,,,,,,,,,,,,,,,,,,,
66295979973d480359d7ddee,TCN,2024-06-24_13h44.46.748,LearnStrategy,2023.2.3,Win32,60.24096386,,,,,,,,,,,3,12,3,4,,,,,,,,,,,,,,,,,,,,,,,,,,,,,
66295979973d480359d7ddee,TCN,2024-06-24_13h44.46.748,LearnStrategy,2023.2.3,Win32,60.24096386,,,,,,,,,,,7,15,3,5,,,,,,,,,,,,,,,,,,,,,,,,,,,,,
66295979973d480359d7ddee,TCN,2024-06-24_13h44.46.748,LearnStrategy,2023.2.3,Win32,60.24096386,,,,,,,,,,,3,06,3,6,,,,,,,,,,,,,,,,,,,,,,,,,,,,,
66295979973d480359d7ddee,TCN,2024-06-24_13h44.46.748,LearnStrategy,2023.2.3,Win32,60.24096386,,,,,,,,,,,2,08,3,7,,,,,,,,,,,,,,,,,,,,,,,,,,,,,
66295979973d480359d7ddee,TCN,2024-06-24_13h44.46.748,LearnStrategy,2023.2.3,Win32,60.24096386,,,,,,,,,,,4,08,3,8,,,,,,,,,,,,,,,,,,,,,,,,,,,,,
66295979973d480359d7ddee,TCN,2024-06-24_13h44.46.748,LearnStrategy,2023.2.3,Win32,60.24096386,,,,,,,,,,,3,11,4,1,,,,,,,,,,,,,,,,,,,,,,,,,,,,,
66295979973d480359d7ddee,TCN,2024-06-24_13h44.46.748,LearnStrategy,2023.2.3,Win32,60.24096386,,,,,,,,,,,4,14,4,2,,,,,,,,,,,,,,,,,,,,,,,,,,,,,
66295979973d480359d7ddee,TCN,2024-06-24_13h44.46.748,LearnStrategy,2023.2.3,Win32,60.24096386,,,,,,,,,,,1,03,4,3,,,,,,,,,,,,,,,,,,,,,,,,,,,,,
66295979973d480359d7ddee,TCN,2024-06-24_13h44.46.748,LearnStrategy,2023.2.3,Win32,60.24096386,,,,,,,,,,,6,11,4,4,,,,,,,,,,,,,,,,,,,,,,,,,,,,,
66295979973d480359d7ddee,TCN,2024-06-24_13h44.46.748,LearnStrategy,2023.2.3,Win32,60.24096386,,,,,,,,,,,5,09,4,5,,,,,,,,,,,,,,,,,,,,,,,,,,,,,
66295979973d480359d7ddee,TCN,2024-06-24_13h44.46.748,LearnStrategy,2023.2.3,Win32,60.24096386,,,,,,,,,,,5,04,4,6,,,,,,,,,,,,,,,,,,,,,,,,,,,,,
66295979973d480359d7ddee,TCN,2024-06-24_13h44.46.748,LearnStrategy,2023.2.3,Win32,60.24096386,,,,,,,,,,,3,09,4,7,,,,,,,,,,,,,,,,,,,,,,,,,,,,,
66295979973d480359d7ddee,TCN,2024-06-24_13h44.46.748,LearnStrategy,2023.2.3,Win32,60.24096386,,,,,,,,,,,3,02,4,8,,,,,,,,,,,,,,,,,,,,,,,,,,,,,
66295979973d480359d7ddee,TCN,2024-06-24_13h44.46.748,LearnStrategy,2023.2.3,Win32,60.24096386,,,,,,,,,,,8,14,5,1,,,,,,,,,,,,,,,,,,,,,,,,,,,,,
66295979973d480359d7ddee,TCN,2024-06-24_13h44.46.748,LearnStrategy,2023.2.3,Win32,60.24096386,,,,,,,,,,,1,06,5,2,,,,,,,,,,,,,,,,,,,,,,,,,,,,,
66295979973d480359d7ddee,TCN,2024-06-24_13h44.46.748,LearnStrategy,2023.2.3,Win32,60.24096386,,,,,,,,,,,2,10,5,3,,,,,,,,,,,,,,,,,,,,,,,,,,,,,
66295979973d480359d7ddee,TCN,2024-06-24_13h44.46.748,LearnStrategy,2023.2.3,Win32,60.24096386,,,,,,,,,,,2,01,5,4,,,,,,,,,,,,,,,,,,,,,,,,,,,,,
66295979973d480359d7ddee,TCN,2024-06-24_13h44.46.748,LearnStrategy,2023.2.3,Win32,60.24096386,,,,,,,,,,,8,13,5,5,,,,,,,,,,,,,,,,,,,,,,,,,,,,,
66295979973d480359d7ddee,TCN,2024-06-24_13h44.46.748,LearnStrategy,2023.2.3,Win32,60.24096386,,,,,,,,,,,4,12,5,6,,,,,,,,,,,,,,,,,,,,,,,,,,,,,
66295979973d480359d7ddee,TCN,2024-06-24_13h44.46.748,LearnStrategy,2023.2.3,Win32,60.24096386,,,,,,,,,,,6,16,5,7,,,,,,,,,,,,,,,,,,,,,,,,,,,,,
66295979973d480359d7ddee,TCN,2024-06-24_13h44.46.748,LearnStrategy,2023.2.3,Win32,60.24096386,,,,,,,,,,,7,02,5,8,,,,,,,,,,,,,,,,,,,,,,,,,,,,,
66295979973d480359d7ddee,TCN,2024-06-24_13h44.46.748,LearnStrategy,2023.2.3,Win32,60.24096386,,,,,,,,,,,4,05,6,1,,,,,,,,,,,,,,,,,,,,,,,,,,,,,
66295979973d480359d7ddee,TCN,2024-06-24_13h44.46.748,LearnStrategy,2023.2.3,Win32,60.24096386,,,,,,,,,,,4,09,6,2,,,,,,,,,,,,,,,,,,,,,,,,,,,,,
66295979973d480359d7ddee,TCN,2024-06-24_13h44.46.748,LearnStrategy,2023.2.3,Win32,60.24096386,,,,,,,,,,,8,08,6,3,,,,,,,,,,,,,,,,,,,,,,,,,,,,,
66295979973d480359d7ddee,TCN,2024-06-24_13h44.46.748,LearnStrategy,2023.2.3,Win32,60.24096386,,,,,,,,,,,7,04,6,4,,,,,,,,,,,,,,,,,,,,,,,,,,,,,
66295979973d480359d7ddee,TCN,2024-06-24_13h44.46.748,LearnStrategy,2023.2.3,Win32,60.24096386,,,,,,,,,,,2,16,6,5,,,,,,,,,,,,,,,,,,,,,,,,,,,,,
66295979973d480359d7ddee,TCN,2024-06-24_13h44.46.748,LearnStrategy,2023.2.3,Win32,60.24096386,,,,,,,,,,,1,16,6,6,,,,,,,,,,,,,,,,,,,,,,,,,,,,,
66295979973d480359d7ddee,TCN,2024-06-24_13h44.46.748,LearnStrategy,2023.2.3,Win32,60.24096386,,,,,,,,,,,4,16,6,7,,,,,,,,,,,,,,,,,,,,,,,,,,,,,
66295979973d480359d7ddee,TCN,2024-06-24_13h44.46.748,LearnStrategy,2023.2.3,Win32,60.24096386,,,,,,,,,,,6,06,6,8,,,,,,,,,,,,,,,,,,,,,,,,,,,,,