participant,condition,date,expName,psychopyVersion,OS,frameRate,block,phase,trial,learn_mouse_2.x,learn_mouse_2.y,learn_mouse_2.leftButton,learn_mouse_2.midButton,learn_mouse_2.rightButton,learn_mouse_2.time,learn_mouse_2.clicked_name,cat,token,row,col,t_select,cat_mouse_l.x,cat_mouse_l.y,cat_mouse_l.leftButton,cat_mouse_l.midButton,cat_mouse_l.rightButton,cat_mouse_l.time,cat_mouse_l.clicked_name,resp,t_resp,corr,train_trials.thisRepN,train_trials.thisTrialN,train_trials.thisN,train_trials.thisIndex,train_trials.ran,cat_mouse_t.x,cat_mouse_t.y,cat_mouse_t.leftButton,cat_mouse_t.midButton,cat_mouse_t.rightButton,cat_mouse_t.time,cat_mouse_t.clicked_name,test_trials.thisRepN,test_trials.thisTrialN,test_trials.thisN,test_trials.thisIndex,test_trials.ran,Bonus
662a650b6b7d15a354343ad4,TCN,2024-06-11_13h10.23.128,LearnStrategy,2023.2.3,MacIntel,120.4819277,,,,,,,,,,,,,,,,,,,,,,,,,,,,,,,,,,,,,,,,,,,
662a650b6b7d15a354343ad4,TCN,2024-06-11_13h10.23.128,LearnStrategy,2023.2.3,MacIntel,120.4819277,1,1,1,0.167292249,-0.005455656,1,0,0,12.2487,rock_grid_rect_2,4,10,-1,-1,12.249,0.355817912,-0.403625829,1,0,0,11.3321,Pumice_rect,8,11.332,0,0,0,0,0,1,,,,,,,,,,,,,
662a650b6b7d15a354343ad4,TCN,2024-06-11_13h10.23.128,LearnStrategy,2023.2.3,MacIntel,120.4819277,1,1,2,0.006279461,-0.002504146,1,0,0,2.9673,rock_grid_rect_2,2,06,-1,-1,2.967,-0.332074895,-0.398573891,1,0,0,3.8927,Obsidian_rect,5,3.893,0,1,0,1,0,1,,,,,,,,,,,,,
662a650b6b7d15a354343ad4,TCN,2024-06-11_13h10.23.128,LearnStrategy,2023.2.3,MacIntel,120.4819277,1,1,3,0.067704696,0.003137002,1,0,0,1.7645,rock_grid_rect_2,1,14,-1,-1,1.764,-0.093395382,-0.403767676,1,0,0,5.45,Pegmatite_rect,6,5.45,0,2,0,2,0,1,,,,,,,,,,,,,
662a650b6b7d15a354343ad4,TCN,2024-06-11_13h10.23.128,LearnStrategy,2023.2.3,MacIntel,120.4819277,1,1,4,0.100034916,-0.012831704,1,0,0,3.2517,rock_grid_rect_2,8,05,-1,-1,3.252,-0.104541288,-0.402627444,1,0,0,8.5269,Pegmatite_rect,6,8.527,0,3,0,3,0,1,,,,,,,,,,,,,
662a650b6b7d15a354343ad4,TCN,2024-06-11_13h10.23.128,LearnStrategy,2023.2.3,MacIntel,120.4819277,1,1,5,0.049259122,-0.002094972,1,0,0,1.2947,rock_grid_rect_2,3,11,-1,-1,1.295,0.150368802,-0.259640145,1,0,0,7.0688,Diorite_rect,3,7.069,1,4,0,4,0,1,,,,,,,,,,,,,
662a650b6b7d15a354343ad4,TCN,2024-06-11_13h10.23.128,LearnStrategy,2023.2.3,MacIntel,120.4819277,1,1,6,0.028609462,0.005679338,1,0,0,1.5288,rock_grid_rect_2,6,10,-1,-1,1.529,-0.346766978,-0.380068305,1,0,0,7.5098,Obsidian_rect,5,7.51,0,5,0,5,0,1,,,,,,,,,,,,,
662a650b6b7d15a354343ad4,TCN,2024-06-11_13h10.23.128,LearnStrategy,2023.2.3,MacIntel,120.4819277,1,1,7,0.065800672,-0.007845234,1,0,0,1.219,rock_grid_rect_2,3,08,-1,-1,1.219,-0.100340433,-0.257577907,1,0,0,9.71,Basalt_rect,2,9.71,0,6,0,6,0,1,,,,,,,,,,,,,
662a650b6b7d15a354343ad4,TCN,2024-06-11_13h10.23.128,LearnStrategy,2023.2.3,MacIntel,120.4819277,1,1,8,0.115392589,-0.008581748,1,0,0,1.2798,rock_grid_rect_2,4,11,-1,-1,1.28,0.393014578,-0.405513486,1,0,0,4.8521,Pumice_rect,8,4.852,0,7,0,7,0,1,,,,,,,,,,,,,
662a650b6b7d15a354343ad4,TCN,2024-06-11_13h10.23.128,LearnStrategy,2023.2.3,MacIntel,120.4819277,1,1,9,0.048260737,0.001489394,1,0,0,1.2971,rock_grid_rect_2,5,08,-1,-1,1.297,-0.369156992,-0.38862823,1,0,0,3.2854,Obsidian_rect,5,3.285,1,8,0,8,0,1,,,,,,,,,,,,,
662a650b6b7d15a354343ad4,TCN,2024-06-11_13h10.23.128,LearnStrategy,2023.2.3,MacIntel,120.4819277,1,1,10,0.057988172,-0.014026493,1,0,0,1.4643,rock_grid_rect_2,5,11,-1,-1,1.464,-0.367460283,-0.409948935,1,0,0,2.0599,Obsidian_rect,5,2.06,1,9,0,9,0,1,,,,,,,,,,,,,
662a650b6b7d15a354343ad4,TCN,2024-06-11_13h10.23.128,LearnStrategy,2023.2.3,MacIntel,120.4819277,1,1,11,0.071299974,-0.00764883,1,0,0,1.9879,rock_grid_rect_2,2,02,-1,-1,1.988,0.345708581,-0.267174406,1,0,0,3.5018,Gabbro_rect,4,3.502,0,10,0,10,0,1,,,,,,,,,,,,,
662a650b6b7d15a354343ad4,TCN,2024-06-11_13h10.23.128,LearnStrategy,2023.2.3,MacIntel,120.4819277,1,1,12,0.049870155,-0.019793122,1,0,0,1.5652,rock_grid_rect_2,6,08,-1,-1,1.565,0.092064202,-0.265439508,1,0,0,5.3936,Diorite_rect,3,5.394,0,11,0,11,0,1,,,,,,,,,,,,,
662a650b6b7d15a354343ad4,TCN,2024-06-11_13h10.23.128,LearnStrategy,2023.2.3,MacIntel,120.4819277,1,1,13,0.07679382,-0.002645993,1,0,0,1.7577,rock_grid_rect_2,1,03,-1,-1,1.758,-0.091076728,-0.394678553,1,0,0,5.6659,Pegmatite_rect,6,5.666,0,12,0,12,0,1,,,,,,,,,,,,,
662a650b6b7d15a354343ad4,TCN,2024-06-11_13h10.23.128,LearnStrategy,2023.2.3,MacIntel,120.4819277,1,1,14,-0.00511195,-0.005782996,1,0,0,1.432,rock_grid_rect_2,7,10,-1,-1,1.432,0.329270688,-0.395747861,1,0,0,5.8961,Pumice_rect,8,5.896,0,13,0,13,0,1,,,,,,,,,,,,,
662a650b6b7d15a354343ad4,TCN,2024-06-11_13h10.23.128,LearnStrategy,2023.2.3,MacIntel,120.4819277,1,1,15,0.005242886,-0.012117013,1,0,0,2.3086,rock_grid_rect_2,8,06,-1,-1,2.309,0.342424275,-0.393385562,1,0,0,1.995,Pumice_rect,8,1.995,1,14,0,14,0,1,,,,,,,,,,,,,
662a650b6b7d15a354343ad4,TCN,2024-06-11_13h10.23.128,LearnStrategy,2023.2.3,MacIntel,120.4819277,1,1,16,0.032335676,-0.013060841,1,0,0,2.5524,rock_grid_rect_2,7,05,-1,-1,2.552,0.093433572,-0.263655508,1,0,0,8.6187,Diorite_rect,3,8.619,0,15,0,15,0,1,,,,,,,,,,,,,
662a650b6b7d15a354343ad4,TCN,2024-06-11_13h10.23.128,LearnStrategy,2023.2.3,MacIntel,120.4819277,1,2,1,,,,,,,,2,10,,,,,,,,,,,5,8.523,0,,,,,,-0.371568392,-0.396511653,1,0,0,8.523,Obsidian_rect,0,0,0,0,1,
662a650b6b7d15a354343ad4,TCN,2024-06-11_13h10.23.128,LearnStrategy,2023.2.3,MacIntel,120.4819277,1,2,2,,,,,,,,3,07,,,,,,,,,,,7,4.257,0,,,,,,0.205869195,-0.389211985,1,0,0,4.2567,Peridotite_rect,1,0,1,0,1,
662a650b6b7d15a354343ad4,TCN,2024-06-11_13h10.23.128,LearnStrategy,2023.2.3,MacIntel,120.4819277,1,2,3,,,,,,,,4,01,,,,,,,,,,,2,4.51,0,,,,,,-0.06079238,-0.27111339,1,0,0,4.5098,Basalt_rect,2,0,2,0,1,
662a650b6b7d15a354343ad4,TCN,2024-06-11_13h10.23.128,LearnStrategy,2023.2.3,MacIntel,120.4819277,1,2,4,,,,,,,,3,13,,,,,,,,,,,7,2.676,0,,,,,,0.184101126,-0.395453256,1,0,0,2.6756,Peridotite_rect,3,0,3,0,1,
662a650b6b7d15a354343ad4,TCN,2024-06-11_13h10.23.128,LearnStrategy,2023.2.3,MacIntel,120.4819277,1,2,5,,,,,,,,7,14,,,,,,,,,,,6,6.44,0,,,,,,-0.157881241,-0.417979661,1,0,0,6.4397,Pegmatite_rect,4,0,4,0,1,
662a650b6b7d15a354343ad4,TCN,2024-06-11_13h10.23.128,LearnStrategy,2023.2.3,MacIntel,120.4819277,1,2,6,,,,,,,,6,13,,,,,,,,,,,4,4.409,0,,,,,,0.36211374,-0.256841393,1,0,0,4.4086,Gabbro_rect,5,0,5,0,1,
662a650b6b7d15a354343ad4,TCN,2024-06-11_13h10.23.128,LearnStrategy,2023.2.3,MacIntel,120.4819277,1,2,7,,,,,,,,5,09,,,,,,,,,,,5,1.814,1,,,,,,-0.368262264,-0.404706049,1,0,0,1.8143,Obsidian_rect,6,0,6,0,1,
662a650b6b7d15a354343ad4,TCN,2024-06-11_13h10.23.128,LearnStrategy,2023.2.3,MacIntel,120.4819277,1,2,8,,,,,,,,1,05,,,,,,,,,,,1,5.418,1,,,,,,-0.418497949,-0.23262919,1,0,0,5.4182,Andesite_rect,7,0,7,0,1,
662a650b6b7d15a354343ad4,TCN,2024-06-11_13h10.23.128,LearnStrategy,2023.2.3,MacIntel,120.4819277,1,2,9,,,,,,,,4,08,,,,,,,,,,,4,4.525,1,,,,,,0.406184532,-0.233076554,1,0,0,4.5253,Gabbro_rect,8,0,8,0,1,
662a650b6b7d15a354343ad4,TCN,2024-06-11_13h10.23.128,LearnStrategy,2023.2.3,MacIntel,120.4819277,1,2,10,,,,,,,,6,15,,,,,,,,,,,3,6.625,0,,,,,,0.102320836,-0.268707446,1,0,0,6.6249,Diorite_rect,9,0,9,0,1,
662a650b6b7d15a354343ad4,TCN,2024-06-11_13h10.23.128,LearnStrategy,2023.2.3,MacIntel,120.4819277,1,2,11,,,,,,,,2,05,,,,,,,,,,,5,4.836,0,,,,,,-0.332424057,-0.394623996,1,0,0,4.8355,Obsidian_rect,10,0,10,0,1,
662a650b6b7d15a354343ad4,TCN,2024-06-11_13h10.23.128,LearnStrategy,2023.2.3,MacIntel,120.4819277,1,2,12,,,,,,,,8,16,,,,,,,,,,,8,1.608,1,,,,,,0.328948804,-0.41680124,1,0,0,1.6083,Pumice_rect,11,0,11,0,1,
662a650b6b7d15a354343ad4,TCN,2024-06-11_13h10.23.128,LearnStrategy,2023.2.3,MacIntel,120.4819277,1,2,13,,,,,,,,1,11,,,,,,,,,,,4,4.818,0,,,,,,0.396888094,-0.253786226,1,0,0,4.8185,Gabbro_rect,12,0,12,0,1,
662a650b6b7d15a354343ad4,TCN,2024-06-11_13h10.23.128,LearnStrategy,2023.2.3,MacIntel,120.4819277,1,2,14,,,,,,,,7,02,,,,,,,,,,,6,3.984,0,,,,,,-0.095970452,-0.409141498,1,0,0,3.9843,Pegmatite_rect,13,0,13,0,1,
662a650b6b7d15a354343ad4,TCN,2024-06-11_13h10.23.128,LearnStrategy,2023.2.3,MacIntel,120.4819277,1,2,15,,,,,,,,8,03,,,,,,,,,,,8,1.928,1,,,,,,0.348414586,-0.406080875,1,0,0,1.9281,Pumice_rect,14,0,14,0,1,
662a650b6b7d15a354343ad4,TCN,2024-06-11_13h10.23.128,LearnStrategy,2023.2.3,MacIntel,120.4819277,1,2,16,,,,,,,,5,07,,,,,,,,,,,5,4.154,1,,,,,,-0.398055604,-0.406119064,1,0,0,4.1543,Obsidian_rect,15,0,15,0,1,
662a650b6b7d15a354343ad4,TCN,2024-06-11_13h10.23.128,LearnStrategy,2023.2.3,MacIntel,120.4819277,2,1,1,0.004833712,-0.007697931,1,0,0,3.7876,rock_grid_rect_2,5,16,-1,-1,3.788,-0.42711243,-0.390925061,1,0,0,1.911,Obsidian_rect,5,1.911,1,0,0,0,0,1,,,,,,,,,,,,,
662a650b6b7d15a354343ad4,TCN,2024-06-11_13h10.23.128,LearnStrategy,2023.2.3,MacIntel,120.4819277,2,1,2,0.040764665,0.003688024,1,0,0,1.5639,rock_grid_rect_2,5,04,-1,-1,1.564,-0.377749651,-0.395693305,1,0,0,1.3145,Obsidian_rect,5,1.315,1,1,0,1,0,1,,,,,,,,,,,,,
662a650b6b7d15a354343ad4,TCN,2024-06-11_13h10.23.128,LearnStrategy,2023.2.3,MacIntel,120.4819277,2,1,3,0.132637919,-0.012253404,1,0,0,1.522,rock_grid_rect_2,7,08,-1,-1,1.522,0.196905552,-0.402060056,1,0,0,4.2121,Peridotite_rect,7,4.212,1,2,0,2,0,1,,,,,,,,,,,,,
662a650b6b7d15a354343ad4,TCN,2024-06-11_13h10.23.128,LearnStrategy,2023.2.3,MacIntel,120.4819277,2,1,4,0.130341088,-0.007741576,1,0,0,2.3813,rock_grid_rect_2,3,15,-1,-1,2.381,0.376014752,-0.238603134,1,0,0,4.3692,Gabbro_rect,4,4.369,0,3,0,3,0,1,,,,,,,,,,,,,
662a650b6b7d15a354343ad4,TCN,2024-06-11_13h10.23.128,LearnStrategy,2023.2.3,MacIntel,120.4819277,2,1,5,0.038767895,0.009318261,1,0,0,2.6682,rock_grid_rect_2,4,12,-1,-1,2.668,-0.213774441,-0.246175585,1,0,0,4.4617,Basalt_rect,2,4.462,0,4,0,4,0,1,,,,,,,,,,,,,
662a650b6b7d15a354343ad4,TCN,2024-06-11_13h10.23.128,LearnStrategy,2023.2.3,MacIntel,120.4819277,2,1,6,0.091736863,-0.00273874,1,0,0,1.2853,rock_grid_rect_2,6,03,-1,-1,1.285,-0.106658083,-0.418099686,1,0,0,4.7877,Pegmatite_rect,6,4.788,1,5,0,5,0,1,,,,,,,,,,,,,
662a650b6b7d15a354343ad4,TCN,2024-06-11_13h10.23.128,LearnStrategy,2023.2.3,MacIntel,120.4819277,2,1,7,0.071441821,-0.00710872,1,0,0,1.3036,rock_grid_rect_2,2,01,-1,-1,1.304,-0.364999782,-0.240621727,1,0,0,2.9608,Andesite_rect,1,2.961,0,6,0,6,0,1,,,,,,,,,,,,,
662a650b6b7d15a354343ad4,TCN,2024-06-11_13h10.23.128,LearnStrategy,2023.2.3,MacIntel,120.4819277,2,1,8,0.091234942,-0.009634689,1,0,0,1.1882,rock_grid_rect_2,7,16,-1,-1,1.188,0.137155203,-0.266257856,1,0,0,6.2111,Diorite_rect,3,6.211,0,7,0,7,0,1,,,,,,,,,,,,,
662a650b6b7d15a354343ad4,TCN,2024-06-11_13h10.23.128,LearnStrategy,2023.2.3,MacIntel,120.4819277,2,1,9,0.099320225,-0.00536291,1,0,0,1.4967,rock_grid_rect_2,2,16,-1,-1,1.497,0.421280333,-0.39644073,1,0,0,1.8878,Pumice_rect,8,1.888,0,8,0,8,0,1,,,,,,,,,,,,,
662a650b6b7d15a354343ad4,TCN,2024-06-11_13h10.23.128,LearnStrategy,2023.2.3,MacIntel,120.4819277,2,1,10,0.131552243,0.005384733,1,0,0,1.1237,rock_grid_rect_2,8,08,-1,-1,1.124,0.388000829,-0.388988303,1,0,0,1.2251,Pumice_rect,8,1.225,1,9,0,9,0,1,,,,,,,,,,,,,
662a650b6b7d15a354343ad4,TCN,2024-06-11_13h10.23.128,LearnStrategy,2023.2.3,MacIntel,120.4819277,2,1,11,0.16443894,-0.014501135,1,0,0,1.1643,rock_grid_rect_2,1,04,-1,-1,1.164,-0.382714298,-0.249448979,1,0,0,2.6447,Andesite_rect,1,2.645,1,10,0,10,0,1,,,,,,,,,,,,,
662a650b6b7d15a354343ad4,TCN,2024-06-11_13h10.23.128,LearnStrategy,2023.2.3,MacIntel,120.4819277,2,1,12,0.019547617,-0.018707446,1,0,0,1.3123,rock_grid_rect_2,6,16,-1,-1,1.312,0.175573935,-0.410309008,1,0,0,6.4847,Peridotite_rect,7,6.485,0,11,0,11,0,1,,,,,,,,,,,,,
662a650b6b7d15a354343ad4,TCN,2024-06-11_13h10.23.128,LearnStrategy,2023.2.3,MacIntel,120.4819277,2,1,13,0.091349511,-0.007354225,1,0,0,1.2142,rock_grid_rect_2,1,16,-1,-1,1.214,0.455192694,-0.24285309,1,0,0,3.6358,Gabbro_rect,4,3.636,0,12,0,12,0,1,,,,,,,,,,,,,
662a650b6b7d15a354343ad4,TCN,2024-06-11_13h10.23.128,LearnStrategy,2023.2.3,MacIntel,120.4819277,2,1,14,0.099843968,0.003158825,1,0,0,1.5388,rock_grid_rect_2,8,14,-1,-1,1.539,0.449644291,-0.393609244,1,0,0,1.8426,Pumice_rect,8,1.843,1,13,0,13,0,1,,,,,,,,,,,,,
662a650b6b7d15a354343ad4,TCN,2024-06-11_13h10.23.128,LearnStrategy,2023.2.3,MacIntel,120.4819277,2,1,15,0.054103745,0.001287535,1,0,0,1.2562,rock_grid_rect_2,3,12,-1,-1,1.256,-0.323525882,-0.250927462,1,0,0,3.3539,Andesite_rect,1,3.354,0,14,0,14,0,1,,,,,,,,,,,,,
662a650b6b7d15a354343ad4,TCN,2024-06-11_13h10.23.128,LearnStrategy,2023.2.3,MacIntel,120.4819277,2,1,16,0.198149441,-0.020044082,1,0,0,1.5291,rock_grid_rect_2,4,05,-1,-1,1.529,-0.067464647,-0.243704172,1,0,0,3.4247,Basalt_rect,2,3.425,0,15,0,15,0,1,,,,,,,,,,,,,
662a650b6b7d15a354343ad4,TCN,2024-06-11_13h10.23.128,LearnStrategy,2023.2.3,MacIntel,120.4819277,2,2,1,,,,,,,,6,05,,,,,,,,,,,6,9.884,1,,,,,,-0.079914455,-0.391514272,1,0,0,9.8839,Pegmatite_rect,0,0,0,0,1,
662a650b6b7d15a354343ad4,TCN,2024-06-11_13h10.23.128,LearnStrategy,2023.2.3,MacIntel,120.4819277,2,2,2,,,,,,,,5,12,,,,,,,,,,,5,2.807,1,,,,,,-0.348021779,-0.406899223,1,0,0,2.8071,Obsidian_rect,1,0,1,0,1,
662a650b6b7d15a354343ad4,TCN,2024-06-11_13h10.23.128,LearnStrategy,2023.2.3,MacIntel,120.4819277,2,2,3,,,,,,,,4,03,,,,,,,,,,,2,3.702,0,,,,,,-0.040415503,-0.251685798,1,0,0,3.7022,Basalt_rect,2,0,2,0,1,
662a650b6b7d15a354343ad4,TCN,2024-06-11_13h10.23.128,LearnStrategy,2023.2.3,MacIntel,120.4819277,2,2,4,,,,,,,,2,09,,,,,,,,,,,4,3.193,0,,,,,,0.395824241,-0.254419082,1,0,0,3.1928,Gabbro_rect,3,0,3,0,1,
662a650b6b7d15a354343ad4,TCN,2024-06-11_13h10.23.128,LearnStrategy,2023.2.3,MacIntel,120.4819277,2,2,5,,,,,,,,8,13,,,,,,,,,,,2,3.887,0,,,,,,-0.072074677,-0.2584399,1,0,0,3.8875,Basalt_rect,4,0,4,0,1,
662a650b6b7d15a354343ad4,TCN,2024-06-11_13h10.23.128,LearnStrategy,2023.2.3,MacIntel,120.4819277,2,2,6,,,,,,,,6,11,,,,,,,,,,,7,2.434,0,,,,,,0.149277671,-0.401530857,1,0,0,2.434,Peridotite_rect,5,0,5,0,1,
662a650b6b7d15a354343ad4,TCN,2024-06-11_13h10.23.128,LearnStrategy,2023.2.3,MacIntel,120.4819277,2,2,7,,,,,,,,8,02,,,,,,,,,,,8,1.976,1,,,,,,0.336935885,-0.403129365,1,0,0,1.9755,Pumice_rect,6,0,6,0,1,
662a650b6b7d15a354343ad4,TCN,2024-06-11_13h10.23.128,LearnStrategy,2023.2.3,MacIntel,120.4819277,2,2,8,,,,,,,,4,16,,,,,,,,,,,4,3.051,1,,,,,,0.388693698,-0.259618322,1,0,0,3.0513,Gabbro_rect,7,0,7,0,1,
662a650b6b7d15a354343ad4,TCN,2024-06-11_13h10.23.128,LearnStrategy,2023.2.3,MacIntel,120.4819277,2,2,9,,,,,,,,1,10,,,,,,,,,,,8,3.224,0,,,,,,0.355927025,-0.408514097,1,0,0,3.2241,Pumice_rect,8,0,8,0,1,
662a650b6b7d15a354343ad4,TCN,2024-06-11_13h10.23.128,LearnStrategy,2023.2.3,MacIntel,120.4819277,2,2,10,,,,,,,,5,06,,,,,,,,,,,5,2.242,1,,,,,,-0.424842877,-0.4122785,1,0,0,2.242,Obsidian_rect,9,0,9,0,1,
662a650b6b7d15a354343ad4,TCN,2024-06-11_13h10.23.128,LearnStrategy,2023.2.3,MacIntel,120.4819277,2,2,11,,,,,,,,1,09,,,,,,,,,,,4,3.598,0,,,,,,0.369440686,-0.25199677,1,0,0,3.5981,Gabbro_rect,10,0,10,0,1,
662a650b6b7d15a354343ad4,TCN,2024-06-11_13h10.23.128,LearnStrategy,2023.2.3,MacIntel,120.4819277,2,2,12,,,,,,,,2,12,,,,,,,,,,,8,2.865,0,,,,,,0.39415481,-0.410549057,1,0,0,2.8652,Pumice_rect,11,0,11,0,1,
662a650b6b7d15a354343ad4,TCN,2024-06-11_13h10.23.128,LearnStrategy,2023.2.3,MacIntel,120.4819277,2,2,13,,,,,,,,7,04,,,,,,,,,,,7,2.628,1,,,,,,0.054627488,-0.388737343,1,0,0,2.6275,Peridotite_rect,12,0,12,0,1,
662a650b6b7d15a354343ad4,TCN,2024-06-11_13h10.23.128,LearnStrategy,2023.2.3,MacIntel,120.4819277,2,2,14,,,,,,,,3,09,,,,,,,,,,,6,2.207,0,,,,,,-0.120248123,-0.413402366,1,0,0,2.2072,Pegmatite_rect,13,0,13,0,1,
662a650b6b7d15a354343ad4,TCN,2024-06-11_13h10.23.128,LearnStrategy,2023.2.3,MacIntel,120.4819277,2,2,15,,,,,,,,3,06,,,,,,,,,,,3,7.268,1,,,,,,0.12906992,-0.266617929,1,0,0,7.268,Diorite_rect,14,0,14,0,1,
662a650b6b7d15a354343ad4,TCN,2024-06-11_13h10.23.128,LearnStrategy,2023.2.3,MacIntel,120.4819277,2,2,16,,,,,,,,7,13,,,,,,,,,,,7,2.4,1,,,,,,0.187816428,-0.391197844,1,0,0,2.4002,Peridotite_rect,15,0,15,0,1,
662a650b6b7d15a354343ad4,TCN,2024-06-11_13h10.23.128,LearnStrategy,2023.2.3,MacIntel,120.4819277,3,1,1,0.096821535,-0.011195007,1,0,0,2.5841,rock_grid_rect_2,6,07,-1,-1,2.584,0.130122861,-0.39980687,1,0,0,4.784,Peridotite_rect,7,4.784,0,0,0,0,0,1,,,,,,,,,,,,,
662a650b6b7d15a354343ad4,TCN,2024-06-11_13h10.23.128,LearnStrategy,2023.2.3,MacIntel,120.4819277,3,1,2,0.157532079,0.008652671,1,0,0,1.0555,rock_grid_rect_2,5,05,-1,-1,1.055,-0.429371072,-0.417357716,1,0,0,2.3599,Obsidian_rect,5,2.36,1,1,0,1,0,1,,,,,,,,,,,,,
662a650b6b7d15a354343ad4,TCN,2024-06-11_13h10.23.128,LearnStrategy,2023.2.3,MacIntel,120.4819277,3,1,3,0.109505936,-0.004599118,1,0,0,1.4998,rock_grid_rect_2,2,04,-1,-1,1.5,-0.090362037,-0.260371203,1,0,0,5.1876,Basalt_rect,2,5.188,1,2,0,2,0,1,,,,,,,,,,,,,
662a650b6b7d15a354343ad4,TCN,2024-06-11_13h10.23.128,LearnStrategy,2023.2.3,MacIntel,120.4819277,3,1,4,0.113439464,0.004724598,1,0,0,1.1367,rock_grid_rect_2,4,09,-1,-1,1.137,0.456840302,-0.246802985,1,0,0,2.4215,Gabbro_rect,4,2.421,1,3,0,3,0,1,,,,,,,,,,,,,
662a650b6b7d15a354343ad4,TCN,2024-06-11_13h10.23.128,LearnStrategy,2023.2.3,MacIntel,120.4819277,3,1,5,0.135327558,-0.017403544,1,0,0,1.4377,rock_grid_rect_2,4,15,-1,-1,1.438,-0.343968226,-0.252460501,1,0,0,4.8932,Andesite_rect,1,4.893,0,4,0,4,0,1,,,,,,,,,,,,,
662a650b6b7d15a354343ad4,TCN,2024-06-11_13h10.23.128,LearnStrategy,2023.2.3,MacIntel,120.4819277,3,1,6,0.130673883,-0.005990311,1,0,0,1.0221,rock_grid_rect_2,1,02,-1,-1,1.022,-0.054251047,-0.244664368,1,0,0,5.4268,Basalt_rect,2,5.427,0,5,0,5,0,1,,,,,,,,,,,,,
662a650b6b7d15a354343ad4,TCN,2024-06-11_13h10.23.128,LearnStrategy,2023.2.3,MacIntel,120.4819277,3,1,7,0.058086374,-0.01175694,1,0,0,1.0296,rock_grid_rect_2,6,12,-1,-1,1.03,-0.071965564,-0.386418689,1,0,0,6.6608,Pegmatite_rect,6,6.661,1,6,0,6,0,1,,,,,,,,,,,,,
662a650b6b7d15a354343ad4,TCN,2024-06-11_13h10.23.128,LearnStrategy,2023.2.3,MacIntel,120.4819277,3,1,8,0.165546439,0.00631765,1,0,0,1.1707,rock_grid_rect_2,3,10,-1,-1,1.171,0.218580875,-0.390728657,1,0,0,6.2426,Peridotite_rect,7,6.243,0,7,0,7,0,1,,,,,,,,,,,,,
662a650b6b7d15a354343ad4,TCN,2024-06-11_13h10.23.128,LearnStrategy,2023.2.3,MacIntel,120.4819277,3,1,9,0.035352654,-0.008543558,1,0,0,1.6224,rock_grid_rect_2,8,10,-1,-1,1.622,0.363777715,-0.406391847,1,0,0,1.9083,Pumice_rect,8,1.908,1,8,0,8,0,1,,,,,,,,,,,,,
662a650b6b7d15a354343ad4,TCN,2024-06-11_13h10.23.128,LearnStrategy,2023.2.3,MacIntel,120.4819277,3,1,10,0.063198324,0.006508598,1,0,0,1.2069,rock_grid_rect_2,1,07,-1,-1,1.207,-0.383161662,-0.250507376,1,0,0,3.9287,Andesite_rect,1,3.929,1,9,0,9,0,1,,,,,,,,,,,,,
662a650b6b7d15a354343ad4,TCN,2024-06-11_13h10.23.128,LearnStrategy,2023.2.3,MacIntel,120.4819277,3,1,11,0.157308397,-0.014626615,1,0,0,1.3653,rock_grid_rect_2,3,02,-1,-1,1.365,0.082102174,-0.401994588,1,0,0,6.184,Peridotite_rect,7,6.184,0,10,0,10,0,1,,,,,,,,,,,,,
662a650b6b7d15a354343ad4,TCN,2024-06-11_13h10.23.128,LearnStrategy,2023.2.3,MacIntel,120.4819277,3,1,12,0.072789368,-0.014353832,1,0,0,1.6808,rock_grid_rect_2,7,12,-1,-1,1.681,0.211243017,-0.381541332,1,0,0,2.0055,Peridotite_rect,7,2.005,1,11,0,11,0,1,,,,,,,,,,,,,
662a650b6b7d15a354343ad4,TCN,2024-06-11_13h10.23.128,LearnStrategy,2023.2.3,MacIntel,120.4819277,3,1,13,0.04014272,-0.014637526,1,0,0,1.2123,rock_grid_rect_2,2,08,-1,-1,1.212,-0.325413539,-0.405349817,1,0,0,2.9836,Obsidian_rect,5,2.984,0,12,0,12,0,1,,,,,,,,,,,,,
662a650b6b7d15a354343ad4,TCN,2024-06-11_13h10.23.128,LearnStrategy,2023.2.3,MacIntel,120.4819277,3,1,14,0.085462858,-0.010556695,1,0,0,1.4739,rock_grid_rect_2,7,06,-1,-1,1.474,0.21405268,-0.389926676,1,0,0,1.8774,Peridotite_rect,7,1.877,1,13,0,13,0,1,,,,,,,,,,,,,
662a650b6b7d15a354343ad4,TCN,2024-06-11_13h10.23.128,LearnStrategy,2023.2.3,MacIntel,120.4819277,3,1,15,0.054431084,-0.005717528,1,0,0,1.5835,rock_grid_rect_2,5,14,-1,-1,1.584,-0.378917161,-0.389899398,1,0,0,2.1329,Obsidian_rect,5,2.133,1,14,0,14,0,1,,,,,,,,,,,,,
662a650b6b7d15a354343ad4,TCN,2024-06-11_13h10.23.128,LearnStrategy,2023.2.3,MacIntel,120.4819277,3,1,16,0.045936627,-0.021511653,1,0,0,1.1219,rock_grid_rect_2,8,09,-1,-1,1.122,0.372070313,-0.398071971,1,0,0,2.2198,Pumice_rect,8,2.22,1,15,0,15,0,1,,,,,,,,,,,,,
662a650b6b7d15a354343ad4,TCN,2024-06-11_13h10.23.128,LearnStrategy,2023.2.3,MacIntel,120.4819277,3,2,1,,,,,,,,4,13,,,,,,,,,,,4,3.832,1,,,,,,0.314360379,-0.258510824,1,0,0,3.8323,Gabbro_rect,0,0,0,0,1,
662a650b6b7d15a354343ad4,TCN,2024-06-11_13h10.23.128,LearnStrategy,2023.2.3,MacIntel,120.4819277,3,2,2,,,,,,,,7,07,,,,,,,,,,,7,1.49,1,,,,,,0.153347591,-0.39960501,1,0,0,1.4903,Peridotite_rect,1,0,1,0,1,
662a650b6b7d15a354343ad4,TCN,2024-06-11_13h10.23.128,LearnStrategy,2023.2.3,MacIntel,120.4819277,3,2,3,,,,,,,,2,14,,,,,,,,,,,2,5.375,1,,,,,,-0.073569527,-0.260922224,1,0,0,5.3753,Basalt_rect,2,0,2,0,1,
662a650b6b7d15a354343ad4,TCN,2024-06-11_13h10.23.128,LearnStrategy,2023.2.3,MacIntel,120.4819277,3,2,4,,,,,,,,5,02,,,,,,,,,,,5,1.426,1,,,,,,-0.32612823,-0.382861601,1,0,0,1.426,Obsidian_rect,3,0,3,0,1,
662a650b6b7d15a354343ad4,TCN,2024-06-11_13h10.23.128,LearnStrategy,2023.2.3,MacIntel,120.4819277,3,2,5,,,,,,,,1,01,,,,,,,,,,,1,3.492,1,,,,,,-0.335462858,-0.255897565,1,0,0,3.4922,Andesite_rect,4,0,4,0,1,
662a650b6b7d15a354343ad4,TCN,2024-06-11_13h10.23.128,LearnStrategy,2023.2.3,MacIntel,120.4819277,3,2,6,,,,,,,,8,15,,,,,,,,,,,8,2.517,1,,,,,,0.373030508,-0.410390843,1,0,0,2.5167,Pumice_rect,5,0,5,0,1,
662a650b6b7d15a354343ad4,TCN,2024-06-11_13h10.23.128,LearnStrategy,2023.2.3,MacIntel,120.4819277,3,2,7,,,,,,,,6,06,,,,,,,,,,,3,5.766,0,,,,,,0.090874869,-0.242596674,1,0,0,5.7664,Diorite_rect,6,0,6,0,1,
662a650b6b7d15a354343ad4,TCN,2024-06-11_13h10.23.128,LearnStrategy,2023.2.3,MacIntel,120.4819277,3,2,8,,,,,,,,2,11,,,,,,,,,,,8,3.716,0,,,,,,0.339761915,-0.391377881,1,0,0,3.7164,Pumice_rect,7,0,7,0,1,
662a650b6b7d15a354343ad4,TCN,2024-06-11_13h10.23.128,LearnStrategy,2023.2.3,MacIntel,120.4819277,3,2,9,,,,,,,,8,04,,,,,,,,,,,8,0.977,1,,,,,,0.344742929,-0.408928727,1,0,0,0.9767,Pumice_rect,8,0,8,0,1,
662a650b6b7d15a354343ad4,TCN,2024-06-11_13h10.23.128,LearnStrategy,2023.2.3,MacIntel,120.4819277,3,2,10,,,,,,,,7,15,,,,,,,,,,,7,1.276,1,,,,,,0.158999651,-0.39860117,1,0,0,1.2762,Peridotite_rect,9,0,9,0,1,
662a650b6b7d15a354343ad4,TCN,2024-06-11_13h10.23.128,LearnStrategy,2023.2.3,MacIntel,120.4819277,3,2,11,,,,,,,,4,14,,,,,,,,,,,4,2.454,1,,,,,,0.357585545,-0.25025096,1,0,0,2.4538,Gabbro_rect,10,0,10,0,1,
662a650b6b7d15a354343ad4,TCN,2024-06-11_13h10.23.128,LearnStrategy,2023.2.3,MacIntel,120.4819277,3,2,12,,,,,,,,3,16,,,,,,,,,,,1,5.415,0,,,,,,-0.321883729,-0.253715302,1,0,0,5.4152,Andesite_rect,11,0,11,0,1,
662a650b6b7d15a354343ad4,TCN,2024-06-11_13h10.23.128,LearnStrategy,2023.2.3,MacIntel,120.4819277,3,2,13,,,,,,,,3,14,,,,,,,,,,,3,2.941,1,,,,,,0.084802723,-0.266094186,1,0,0,2.9412,Diorite_rect,12,0,12,0,1,
662a650b6b7d15a354343ad4,TCN,2024-06-11_13h10.23.128,LearnStrategy,2023.2.3,MacIntel,120.4819277,3,2,14,,,,,,,,5,10,,,,,,,,,,,5,1.966,1,,,,,,-0.331141978,-0.406795566,1,0,0,1.9661,Obsidian_rect,13,0,13,0,1,
662a650b6b7d15a354343ad4,TCN,2024-06-11_13h10.23.128,LearnStrategy,2023.2.3,MacIntel,120.4819277,3,2,15,,,,,,,,6,09,,,,,,,,,,,7,3.824,0,,,,,,0.105212334,-0.406937413,1,0,0,3.8238,Peridotite_rect,14,0,14,0,1,
662a650b6b7d15a354343ad4,TCN,2024-06-11_13h10.23.128,LearnStrategy,2023.2.3,MacIntel,120.4819277,3,2,16,,,,,,,,1,06,,,,,,,,,,,2,2.717,0,,,,,,-0.134656512,-0.26778544,1,0,0,2.7166,Basalt_rect,15,0,15,0,1,
662a650b6b7d15a354343ad4,TCN,2024-06-11_13h10.23.128,LearnStrategy,2023.2.3,MacIntel,120.4819277,4,1,1,0.111589997,-0.019089342,1,0,0,1.8258,rock_grid_rect_2,3,10,-1,-1,1.826,-0.418279722,-0.249399878,1,0,0,3.6788,Andesite_rect,1,3.679,0,0,0,0,0,1,,,,,,,,,,,,,
662a650b6b7d15a354343ad4,TCN,2024-06-11_13h10.23.128,LearnStrategy,2023.2.3,MacIntel,120.4819277,4,1,2,-0.011107716,-0.018369195,1,0,0,1.263,rock_grid_rect_2,4,10,-1,-1,1.263,0.310355927,-0.235629801,1,0,0,3.626,Gabbro_rect,4,3.626,1,1,0,1,0,1,,,,,,,,,,,,,
662a650b6b7d15a354343ad4,TCN,2024-06-11_13h10.23.128,LearnStrategy,2023.2.3,MacIntel,120.4819277,4,1,3,0.089374564,0.001756721,1,0,0,1.0324,rock_grid_rect_2,5,04,-1,-1,1.032,-0.347487125,-0.388459104,1,0,0,1.3352,Obsidian_rect,5,1.335,1,2,0,2,0,1,,,,,,,,,,,,,
662a650b6b7d15a354343ad4,TCN,2024-06-11_13h10.23.128,LearnStrategy,2023.2.3,MacIntel,120.4819277,4,1,4,0.06557699,0.010829478,1,0,0,1.2254,rock_grid_rect_2,8,10,-1,-1,1.225,0.318048403,-0.383374433,1,0,0,1.3581,Pumice_rect,8,1.358,1,3,0,3,0,1,,,,,,,,,,,,,
662a650b6b7d15a354343ad4,TCN,2024-06-11_13h10.23.128,LearnStrategy,2023.2.3,MacIntel,120.4819277,4,1,5,0.046040285,0.007807044,1,0,0,1.1402,rock_grid_rect_2,7,08,-1,-1,1.14,0.069445051,-0.405344361,1,0,0,3.5266,Peridotite_rect,7,3.527,1,4,0,4,0,1,,,,,,,,,,,,,
662a650b6b7d15a354343ad4,TCN,2024-06-11_13h10.23.128,LearnStrategy,2023.2.3,MacIntel,120.4819277,4,1,6,0.145600559,-0.01175694,1,0,0,1.4564,rock_grid_rect_2,6,16,-1,-1,1.456,-0.31141978,-0.255826641,1,0,0,2.9426,Andesite_rect,1,2.943,0,5,0,5,0,1,,,,,,,,,,,,,
662a650b6b7d15a354343ad4,TCN,2024-06-11_13h10.23.128,LearnStrategy,2023.2.3,MacIntel,120.4819277,4,1,7,0.017976388,-0.024959628,1,0,0,1.2139,rock_grid_rect_2,6,08,-1,-1,1.214,-0.237233764,-0.403827689,1,0,0,7.1684,Pegmatite_rect,6,7.168,1,6,0,6,0,1,,,,,,,,,,,,,
662a650b6b7d15a354343ad4,TCN,2024-06-11_13h10.23.128,LearnStrategy,2023.2.3,MacIntel,120.4819277,4,1,8,0.167254059,-0.00914368,1,0,0,1.5726,rock_grid_rect_2,7,05,-1,-1,1.573,0.159332446,-0.41631023,1,0,0,3.0687,Peridotite_rect,7,3.069,1,7,0,7,0,1,,,,,,,,,,,,,
662a650b6b7d15a354343ad4,TCN,2024-06-11_13h10.23.128,LearnStrategy,2023.2.3,MacIntel,120.4819277,4,1,9,0.160205351,-0.005886653,1,0,0,1.3398,rock_grid_rect_2,4,09,-1,-1,1.34,0.401285353,-0.233856713,1,0,0,2.0436,Gabbro_rect,4,2.044,1,8,0,8,0,1,,,,,,,,,,,,,
662a650b6b7d15a354343ad4,TCN,2024-06-11_13h10.23.128,LearnStrategy,2023.2.3,MacIntel,120.4819277,4,1,10,-0.062107193,0.005482935,1,0,0,3.7222,rock_grid_rect_2,2,06,-1,-1,3.722,0.396413451,-0.235978963,1,0,0,2.5017,Gabbro_rect,4,2.502,0,9,0,9,0,1,,,,,,,,,,,,,
662a650b6b7d15a354343ad4,TCN,2024-06-11_13h10.23.128,LearnStrategy,2023.2.3,MacIntel,120.4819277,4,1,11,0.039215258,-0.006514054,1,0,0,1.6389,rock_grid_rect_2,2,16,-1,-1,1.639,0.340029242,-0.252984244,1,0,0,3.0594,Gabbro_rect,4,3.059,0,10,0,10,0,1,,,,,,,,,,,,,
662a650b6b7d15a354343ad4,TCN,2024-06-11_13h10.23.128,LearnStrategy,2023.2.3,MacIntel,120.4819277,4,1,12,0.018691079,-0.00453365,1,0,0,1.4454,rock_grid_rect_2,1,04,-1,-1,1.445,-0.100307699,-0.395796962,1,0,0,5.8115,Pegmatite_rect,6,5.812,0,11,0,11,0,1,,,,,,,,,,,,,
662a650b6b7d15a354343ad4,TCN,2024-06-11_13h10.23.128,LearnStrategy,2023.2.3,MacIntel,120.4819277,4,1,13,0.100242231,0.00731058,1,0,0,1.2648,rock_grid_rect_2,8,06,-1,-1,1.265,0.449502444,-0.400161487,1,0,0,1.9993,Pumice_rect,8,1.999,1,12,0,12,0,1,,,,,,,,,,,,,
662a650b6b7d15a354343ad4,TCN,2024-06-11_13h10.23.128,LearnStrategy,2023.2.3,MacIntel,120.4819277,4,1,14,0.118573237,-0.005843008,1,0,0,1.6306,rock_grid_rect_2,3,15,-1,-1,1.631,-0.340394771,-0.266077819,1,0,0,5.4434,Andesite_rect,1,5.443,0,13,0,13,0,1,,,,,,,,,,,,,
662a650b6b7d15a354343ad4,TCN,2024-06-11_13h10.23.128,LearnStrategy,2023.2.3,MacIntel,120.4819277,4,1,15,0.026781817,-0.015723202,1,0,0,1.1154,rock_grid_rect_2,5,11,-1,-1,1.115,-0.381448586,-0.379539106,1,0,0,1.4608,Obsidian_rect,5,1.461,1,14,0,14,0,1,,,,,,,,,,,,,
662a650b6b7d15a354343ad4,TCN,2024-06-11_13h10.23.128,LearnStrategy,2023.2.3,MacIntel,120.4819277,4,1,16,0.019558528,-0.003038801,1,0,0,0.947,rock_grid_rect_2,1,14,-1,-1,0.947,-0.087099555,-0.402043689,1,0,0,3.4277,Pegmatite_rect,6,3.428,0,15,0,15,0,1,,,,,,,,,,,,,
662a650b6b7d15a354343ad4,TCN,2024-06-11_13h10.23.128,LearnStrategy,2023.2.3,MacIntel,120.4819277,4,2,1,,,,,,,,6,05,,,,,,,,,,,6,7.506,1,,,,,,-0.089227261,-0.3936147,1,0,0,7.5065,Pegmatite_rect,0,0,0,0,1,
662a650b6b7d15a354343ad4,TCN,2024-06-11_13h10.23.128,LearnStrategy,2023.2.3,MacIntel,120.4819277,4,2,2,,,,,,,,5,12,,,,,,,,,,,5,1.431,1,,,,,,-0.352271735,-0.384781992,1,0,0,1.431,Obsidian_rect,1,0,1,0,1,
662a650b6b7d15a354343ad4,TCN,2024-06-11_13h10.23.128,LearnStrategy,2023.2.3,MacIntel,120.4819277,4,2,3,,,,,,,,1,05,,,,,,,,,,,4,3.859,0,,,,,,0.380079216,-0.248996159,1,0,0,3.8587,Gabbro_rect,2,0,2,0,1,
662a650b6b7d15a354343ad4,TCN,2024-06-11_13h10.23.128,LearnStrategy,2023.2.3,MacIntel,120.4819277,4,2,4,,,,,,,,4,08,,,,,,,,,,,2,4.987,0,,,,,,-0.07666834,-0.265957795,1,0,0,4.9868,Basalt_rect,3,0,3,0,1,
662a650b6b7d15a354343ad4,TCN,2024-06-11_13h10.23.128,LearnStrategy,2023.2.3,MacIntel,120.4819277,4,2,5,,,,,,,,3,16,,,,,,,,,,,1,2.793,0,,,,,,-0.326739263,-0.263295435,1,0,0,2.7929,Andesite_rect,4,0,4,0,1,
662a650b6b7d15a354343ad4,TCN,2024-06-11_13h10.23.128,LearnStrategy,2023.2.3,MacIntel,120.4819277,4,2,6,,,,,,,,4,16,,,,,,,,,,,4,2.22,1,,,,,,0.451155508,-0.249405333,1,0,0,2.22,Gabbro_rect,5,0,5,0,1,
662a650b6b7d15a354343ad4,TCN,2024-06-11_13h10.23.128,LearnStrategy,2023.2.3,MacIntel,120.4819277,4,2,7,,,,,,,,7,02,,,,,,,,,,,7,1.373,1,,,,,,0.150156032,-0.411732935,1,0,0,1.3729,Peridotite_rect,6,0,6,0,1,
662a650b6b7d15a354343ad4,TCN,2024-06-11_13h10.23.128,LearnStrategy,2023.2.3,MacIntel,120.4819277,4,2,8,,,,,,,,7,13,,,,,,,,,,,7,1.057,1,,,,,,0.150156032,-0.41431346,1,0,0,1.0568,Peridotite_rect,7,0,7,0,1,
662a650b6b7d15a354343ad4,TCN,2024-06-11_13h10.23.128,LearnStrategy,2023.2.3,MacIntel,120.4819277,4,2,9,,,,,,,,2,10,,,,,,,,,,,2,3.563,1,,,,,,-0.174155464,-0.257632463,1,0,0,3.5628,Basalt_rect,8,0,8,0,1,
662a650b6b7d15a354343ad4,TCN,2024-06-11_13h10.23.128,LearnStrategy,2023.2.3,MacIntel,120.4819277,4,2,10,,,,,,,,8,15,,,,,,,,,,,8,1.761,1,,,,,,0.368033127,-0.389522957,1,0,0,1.7614,Pumice_rect,9,0,9,0,1,
662a650b6b7d15a354343ad4,TCN,2024-06-11_13h10.23.128,LearnStrategy,2023.2.3,MacIntel,120.4819277,4,2,11,,,,,,,,1,09,,,,,,,,,,,4,4.99,0,,,,,,0.389430211,-0.25473551,1,0,0,4.9903,Gabbro_rect,10,0,10,0,1,
662a650b6b7d15a354343ad4,TCN,2024-06-11_13h10.23.128,LearnStrategy,2023.2.3,MacIntel,120.4819277,4,2,12,,,,,,,,8,04,,,,,,,,,,,8,1.367,1,,,,,,0.305233066,-0.405595321,1,0,0,1.3674,Pumice_rect,11,0,11,0,1,
662a650b6b7d15a354343ad4,TCN,2024-06-11_13h10.23.128,LearnStrategy,2023.2.3,MacIntel,120.4819277,4,2,13,,,,,,,,5,06,,,,,,,,,,,5,1.576,1,,,,,,-0.336908607,-0.390739569,1,0,0,1.5759,Obsidian_rect,12,0,12,0,1,
662a650b6b7d15a354343ad4,TCN,2024-06-11_13h10.23.128,LearnStrategy,2023.2.3,MacIntel,120.4819277,4,2,14,,,,,,,,3,14,,,,,,,,,,,6,5.699,0,,,,,,-0.064775009,-0.399610466,1,0,0,5.6995,Pegmatite_rect,13,0,13,0,1,
662a650b6b7d15a354343ad4,TCN,2024-06-11_13h10.23.128,LearnStrategy,2023.2.3,MacIntel,120.4819277,4,2,15,,,,,,,,2,14,,,,,,,,,,,4,7.576,0,,,,,,0.445945356,-0.253022434,1,0,0,7.5758,Gabbro_rect,14,0,14,0,1,
662a650b6b7d15a354343ad4,TCN,2024-06-11_13h10.23.128,LearnStrategy,2023.2.3,MacIntel,120.4819277,4,2,16,,,,,,,,6,09,,,,,,,,,,,7,3.801,0,,,,,,0.128840782,-0.39037404,1,0,0,3.8007,Peridotite_rect,15,0,15,0,1,
662a650b6b7d15a354343ad4,TCN,2024-06-11_13h10.23.128,LearnStrategy,2023.2.3,MacIntel,120.4819277,5,1,1,0.180156686,-0.010469405,1,0,0,211.933,rock_grid_rect_2,6,03,-1,-1,211.933,0.182611732,-0.387477086,1,0,0,1.6085,Peridotite_rect,7,1.609,0,0,0,0,0,1,,,,,,,,,,,,,
662a650b6b7d15a354343ad4,TCN,2024-06-11_13h10.23.128,LearnStrategy,2023.2.3,MacIntel,120.4819277,5,1,2,0.031533694,-0.00822713,1,0,0,1.397,rock_grid_rect_2,4,15,-1,-1,1.397,-0.10077143,-0.255384733,1,0,0,5.4854,Basalt_rect,2,5.485,0,1,0,1,0,1,,,,,,,,,,,,,
662a650b6b7d15a354343ad4,TCN,2024-06-11_13h10.23.128,LearnStrategy,2023.2.3,MacIntel,120.4819277,5,1,3,0.076477392,-0.015979618,1,0,0,1.4319,rock_grid_rect_2,7,10,-1,-1,1.432,0.172513312,-0.385916769,1,0,0,1.9931,Peridotite_rect,7,1.993,1,2,0,2,0,1,,,,,,,,,,,,,
662a650b6b7d15a354343ad4,TCN,2024-06-11_13h10.23.128,LearnStrategy,2023.2.3,MacIntel,120.4819277,5,1,4,0.085959323,-0.008412622,1,0,0,1.2902,rock_grid_rect_2,1,02,-1,-1,1.29,-0.348540066,-0.269111164,1,0,0,7.7424,Andesite_rect,1,7.742,1,3,0,3,0,1,,,,,,,,,,,,,
662a650b6b7d15a354343ad4,TCN,2024-06-11_13h10.23.128,LearnStrategy,2023.2.3,MacIntel,120.4819277,5,1,5,0.030508031,-0.005804818,1,0,0,1.0055,rock_grid_rect_2,2,08,-1,-1,1.005,-0.139604792,-0.245226301,1,0,0,4.9269,Basalt_rect,2,4.927,1,4,0,4,0,1,,,,,,,,,,,,,
662a650b6b7d15a354343ad4,TCN,2024-06-11_13h10.23.128,LearnStrategy,2023.2.3,MacIntel,120.4819277,5,1,6,0.041239307,0.004004452,1,0,0,0.9486,rock_grid_rect_2,4,05,-1,-1,0.949,0.453315948,-0.243278631,1,0,0,3.6516,Gabbro_rect,4,3.652,1,5,0,5,0,1,,,,,,,,,,,,,
662a650b6b7d15a354343ad4,TCN,2024-06-11_13h10.23.128,LearnStrategy,2023.2.3,MacIntel,120.4819277,5,1,7,0.084197146,9.27462E-05,1,0,0,1.031,rock_grid_rect_2,3,11,-1,-1,1.031,-0.348190904,-0.247943218,1,0,0,3.2963,Andesite_rect,1,3.296,0,6,0,6,0,1,,,,,,,,,,,,,
662a650b6b7d15a354343ad4,TCN,2024-06-11_13h10.23.128,LearnStrategy,2023.2.3,MacIntel,120.4819277,5,1,8,0.120144466,-0.020213207,1,0,0,1.8731,rock_grid_rect_2,8,05,-1,-1,1.873,0.367749433,-0.397930124,1,0,0,1.5091,Pumice_rect,8,1.509,1,7,0,7,0,1,,,,,,,,,,,,,
662a650b6b7d15a354343ad4,TCN,2024-06-11_13h10.23.128,LearnStrategy,2023.2.3,MacIntel,120.4819277,5,1,9,0.031659174,-0.01333908,1,0,0,1.1391,rock_grid_rect_2,7,06,-1,-1,1.139,0.130319265,-0.391574284,1,0,0,1.8725,Peridotite_rect,7,1.873,1,8,0,8,0,1,,,,,,,,,,,,,
662a650b6b7d15a354343ad4,TCN,2024-06-11_13h10.23.128,LearnStrategy,2023.2.3,MacIntel,120.4819277,5,1,10,0.124443523,-0.012493453,1,0,0,1.2462,rock_grid_rect_2,1,16,-1,-1,1.246,-0.16933812,-0.404302331,1,0,0,8.8782,Pegmatite_rect,6,8.878,0,9,0,9,0,1,,,,,,,,,,,,,
662a650b6b7d15a354343ad4,TCN,2024-06-11_13h10.23.128,LearnStrategy,2023.2.3,MacIntel,120.4819277,5,1,11,0.060383205,-0.004970103,1,0,0,1.1799,rock_grid_rect_2,5,14,-1,-1,1.18,-0.35530508,-0.388808266,1,0,0,1.3521,Obsidian_rect,5,1.352,1,10,0,10,0,1,,,,,,,,,,,,,
662a650b6b7d15a354343ad4,TCN,2024-06-11_13h10.23.128,LearnStrategy,2023.2.3,MacIntel,120.4819277,5,1,12,0.052161531,0.02327383,1,0,0,0.8142,rock_grid_rect_2,2,01,-1,-1,0.814,-0.086275751,-0.271664412,1,0,0,2.2607,Basalt_rect,2,2.261,1,11,0,11,0,1,,,,,,,,,,,,,
662a650b6b7d15a354343ad4,TCN,2024-06-11_13h10.23.128,LearnStrategy,2023.2.3,MacIntel,120.4819277,5,1,13,0.078736034,0.024877793,1,0,0,0.8635,rock_grid_rect_2,8,14,-1,-1,0.864,0.34765625,-0.4128568,1,0,0,1.3866,Pumice_rect,8,1.387,1,12,0,12,0,1,,,,,,,,,,,,,
662a650b6b7d15a354343ad4,TCN,2024-06-11_13h10.23.128,LearnStrategy,2023.2.3,MacIntel,120.4819277,5,1,14,0.157663015,-0.007321491,1,0,0,1.4867,rock_grid_rect_2,3,08,-1,-1,1.487,-0.068048403,-0.41476628,1,0,0,3.671,Pegmatite_rect,6,3.671,0,13,0,13,0,1,,,,,,,,,,,,,
662a650b6b7d15a354343ad4,TCN,2024-06-11_13h10.23.128,LearnStrategy,2023.2.3,MacIntel,120.4819277,5,1,15,0.18953496,0.008936365,1,0,0,1.1391,rock_grid_rect_2,5,05,-1,-1,1.139,-0.365823586,-0.393227348,1,0,0,2.5013,Obsidian_rect,5,2.501,1,14,0,14,0,1,,,,,,,,,,,,,
662a650b6b7d15a354343ad4,TCN,2024-06-11_13h10.23.128,LearnStrategy,2023.2.3,MacIntel,120.4819277,5,1,16,0.135283912,-0.001696709,1,0,0,1.191,rock_grid_rect_2,6,10,-1,-1,1.191,0.189311278,-0.395922442,1,0,0,4.4078,Peridotite_rect,7,4.408,0,15,0,15,0,1,,,,,,,,,,,,,
662a650b6b7d15a354343ad4,TCN,2024-06-11_13h10.23.128,LearnStrategy,2023.2.3,MacIntel,120.4819277,5,2,1,,,,,,,,1,01,,,,,,,,,,,4,2.728,0,,,,,,0.397422748,-0.264413844,1,0,0,2.7277,Gabbro_rect,0,0,0,0,1,
662a650b6b7d15a354343ad4,TCN,2024-06-11_13h10.23.128,LearnStrategy,2023.2.3,MacIntel,120.4819277,5,2,2,,,,,,,,4,14,,,,,,,,,,,2,3.968,0,,,,,,-0.10181346,-0.237179207,1,0,0,3.968,Basalt_rect,1,0,1,0,1,
662a650b6b7d15a354343ad4,TCN,2024-06-11_13h10.23.128,LearnStrategy,2023.2.3,MacIntel,120.4819277,5,2,3,,,,,,,,6,06,,,,,,,,,,,1,5.362,0,,,,,,-0.344170086,-0.246677505,1,0,0,5.3624,Andesite_rect,2,0,2,0,1,
662a650b6b7d15a354343ad4,TCN,2024-06-11_13h10.23.128,LearnStrategy,2023.2.3,MacIntel,120.4819277,5,2,4,,,,,,,,2,09,,,,,,,,,,,4,6.091,0,,,,,,0.370962814,-0.2578125,1,0,0,6.0906,Gabbro_rect,3,0,3,0,1,
662a650b6b7d15a354343ad4,TCN,2024-06-11_13h10.23.128,LearnStrategy,2023.2.3,MacIntel,120.4819277,5,2,5,,,,,,,,7,04,,,,,,,,,,,1,6.976,0,,,,,,-0.325899092,-0.258887264,1,0,0,6.9756,Andesite_rect,4,0,4,0,1,
662a650b6b7d15a354343ad4,TCN,2024-06-11_13h10.23.128,LearnStrategy,2023.2.3,MacIntel,120.4819277,5,2,6,,,,,,,,3,13,,,,,,,,,,,3,4.532,1,,,,,,0.171945924,-0.242012919,1,0,0,4.5322,Diorite_rect,5,0,5,0,1,
662a650b6b7d15a354343ad4,TCN,2024-06-11_13h10.23.128,LearnStrategy,2023.2.3,MacIntel,120.4819277,5,2,7,,,,,,,,3,09,,,,,,,,,,,1,6.646,0,,,,,,-0.379631852,-0.265063067,1,0,0,6.6456,Andesite_rect,6,0,6,0,1,
662a650b6b7d15a354343ad4,TCN,2024-06-11_13h10.23.128,LearnStrategy,2023.2.3,MacIntel,120.4819277,5,2,8,,,,,,,,5,02,,,,,,,,,,,5,1.904,1,,,,,,-0.338970845,-0.390412229,1,0,0,1.9036,Obsidian_rect,7,0,7,0,1,
662a650b6b7d15a354343ad4,TCN,2024-06-11_13h10.23.128,LearnStrategy,2023.2.3,MacIntel,120.4819277,5,2,9,,,,,,,,4,03,,,,,,,,,,,4,3.786,1,,,,,,0.375261872,-0.268047311,1,0,0,3.7856,Gabbro_rect,8,0,8,0,1,
662a650b6b7d15a354343ad4,TCN,2024-06-11_13h10.23.128,LearnStrategy,2023.2.3,MacIntel,120.4819277,5,2,10,,,,,,,,6,13,,,,,,,,,,,3,6.417,0,,,,,,0.072685711,-0.245133554,1,0,0,6.4168,Diorite_rect,9,0,9,0,1,
662a650b6b7d15a354343ad4,TCN,2024-06-11_13h10.23.128,LearnStrategy,2023.2.3,MacIntel,120.4819277,5,2,11,,,,,,,,8,16,,,,,,,,,,,8,1.383,1,,,,,,0.411334672,-0.40354945,1,0,0,1.3826,Pumice_rect,10,0,10,0,1,
662a650b6b7d15a354343ad4,TCN,2024-06-11_13h10.23.128,LearnStrategy,2023.2.3,MacIntel,120.4819277,5,2,12,,,,,,,,2,11,,,,,,,,,,,4,2.475,0,,,,,,0.35717637,-0.246464735,1,0,0,2.4751,Gabbro_rect,11,0,11,0,1,
662a650b6b7d15a354343ad4,TCN,2024-06-11_13h10.23.128,LearnStrategy,2023.2.3,MacIntel,120.4819277,5,2,13,,,,,,,,7,14,,,,,,,,,,,7,2.651,1,,,,,,0.117984026,-0.407892153,1,0,0,2.651,Peridotite_rect,12,0,12,0,1,
662a650b6b7d15a354343ad4,TCN,2024-06-11_13h10.23.128,LearnStrategy,2023.2.3,MacIntel,120.4819277,5,2,14,,,,,,,,5,10,,,,,,,,,,,5,1.658,1,,,,,,-0.369751659,-0.397460938,1,0,0,1.6583,Obsidian_rect,13,0,13,0,1,
662a650b6b7d15a354343ad4,TCN,2024-06-11_13h10.23.128,LearnStrategy,2023.2.3,MacIntel,120.4819277,5,2,15,,,,,,,,8,03,,,,,,,,,,,8,1.635,1,,,,,,0.409206966,-0.386025882,1,0,0,1.6354,Pumice_rect,14,0,14,0,1,
662a650b6b7d15a354343ad4,TCN,2024-06-11_13h10.23.128,LearnStrategy,2023.2.3,MacIntel,120.4819277,5,2,16,,,,,,,,1,10,,,,,,,,,,,4,2.975,0,,,,,,0.394416681,-0.265417685,1,0,0,2.9749,Gabbro_rect,15,0,15,0,1,
662a650b6b7d15a354343ad4,TCN,2024-06-11_13h10.23.128,LearnStrategy,2023.2.3,MacIntel,120.4819277,6,1,1,-0.000687413,-0.000261872,1,0,0,1.3956,rock_grid_rect_2,7,16,-1,-1,1.396,0.17765254,-0.398944876,1,0,0,3.1125,Peridotite_rect,7,3.112,1,0,0,0,0,1,,,,,,,,,,,,,
662a650b6b7d15a354343ad4,TCN,2024-06-11_13h10.23.128,LearnStrategy,2023.2.3,MacIntel,120.4819277,6,1,2,0.080814639,-0.015177636,1,0,0,1.4637,rock_grid_rect_2,4,11,-1,-1,1.464,0.355174145,-0.240927243,1,0,0,2.3381,Gabbro_rect,4,2.338,1,1,0,1,0,1,,,,,,,,,,,,,
662a650b6b7d15a354343ad4,TCN,2024-06-11_13h10.23.128,LearnStrategy,2023.2.3,MacIntel,120.4819277,6,1,3,-0.028494894,-0.005341088,1,0,0,1.948,rock_grid_rect_2,1,03,-1,-1,1.948,-0.145464167,-0.252771473,1,0,0,2.8842,Basalt_rect,2,2.884,0,2,0,2,0,1,,,,,,,,,,,,,
662a650b6b7d15a354343ad4,TCN,2024-06-11_13h10.23.128,LearnStrategy,2023.2.3,MacIntel,120.4819277,6,1,4,-0.020469623,-0.014479312,1,0,0,1.273,rock_grid_rect_2,3,12,-1,-1,1.273,-0.174215477,-0.407161095,1,0,0,3.5122,Pegmatite_rect,6,3.512,0,3,0,3,0,1,,,,,,,,,,,,,
662a650b6b7d15a354343ad4,TCN,2024-06-11_13h10.23.128,LearnStrategy,2023.2.3,MacIntel,120.4819277,6,1,5,0.096717877,-0.021517109,1,0,0,1.2293,rock_grid_rect_2,3,02,-1,-1,1.229,-0.11801676,-0.394203911,1,0,0,3.5434,Pegmatite_rect,6,3.543,0,4,0,4,0,1,,,,,,,,,,,,,
662a650b6b7d15a354343ad4,TCN,2024-06-11_13h10.23.128,LearnStrategy,2023.2.3,MacIntel,120.4819277,6,1,6,0.029373254,-0.015384951,1,0,0,1.0058,rock_grid_rect_2,7,12,-1,-1,1.006,0.187800061,-0.39066319,1,0,0,2.1254,Peridotite_rect,7,2.125,1,5,0,5,0,1,,,,,,,,,,,,,
662a650b6b7d15a354343ad4,TCN,2024-06-11_13h10.23.128,LearnStrategy,2023.2.3,MacIntel,120.4819277,6,1,7,-0.046002095,-0.017714516,1,0,0,1.3968,rock_grid_rect_2,4,12,-1,-1,1.397,0.322538408,-0.252165896,1,0,0,4.0854,Gabbro_rect,4,4.085,1,6,0,6,0,1,,,,,,,,,,,,,
662a650b6b7d15a354343ad4,TCN,2024-06-11_13h10.23.128,LearnStrategy,2023.2.3,MacIntel,120.4819277,6,1,8,0.033612299,0.014561147,1,0,0,0.9383,rock_grid_rect_2,6,12,-1,-1,0.938,0.183495548,-0.235526144,1,0,0,8.789,Diorite_rect,3,8.789,0,7,0,7,0,1,,,,,,,,,,,,,
662a650b6b7d15a354343ad4,TCN,2024-06-11_13h10.23.128,LearnStrategy,2023.2.3,MacIntel,120.4819277,6,1,9,-0.029738783,-0.009290983,1,0,0,1.1733,rock_grid_rect_2,5,08,-1,-1,1.173,-0.398382943,-0.401208973,1,0,0,1.7608,Obsidian_rect,5,1.761,1,8,0,8,0,1,,,,,,,,,,,,,
662a650b6b7d15a354343ad4,TCN,2024-06-11_13h10.23.128,LearnStrategy,2023.2.3,MacIntel,120.4819277,6,1,10,0.020431433,-0.00727239,1,0,0,1.031,rock_grid_rect_2,2,04,-1,-1,1.031,-0.112081006,-0.241838338,1,0,0,3.0107,Basalt_rect,2,3.011,1,9,0,9,0,1,,,,,,,,,,,,,
662a650b6b7d15a354343ad4,TCN,2024-06-11_13h10.23.128,LearnStrategy,2023.2.3,MacIntel,120.4819277,6,1,11,0.051670522,-0.011947888,1,0,0,1.1216,rock_grid_rect_2,2,02,-1,-1,1.122,0.387984462,-0.258412622,1,0,0,1.6612,Gabbro_rect,4,1.661,0,10,0,10,0,1,,,,,,,,,,,,,
662a650b6b7d15a354343ad4,TCN,2024-06-11_13h10.23.128,LearnStrategy,2023.2.3,MacIntel,120.4819277,6,1,12,0.120820967,-0.004811889,1,0,0,2.0888,rock_grid_rect_2,8,08,-1,-1,2.089,0.375338251,-0.407259296,1,0,0,1.7023,Pumice_rect,8,1.702,1,11,0,11,0,1,,,,,,,,,,,,,
662a650b6b7d15a354343ad4,TCN,2024-06-11_13h10.23.128,LearnStrategy,2023.2.3,MacIntel,120.4819277,6,1,13,-0.02854945,-0.004331791,1,0,0,1.2833,rock_grid_rect_2,6,07,-1,-1,1.283,0.191608109,-0.247381285,1,0,0,10.2669,Diorite_rect,3,10.267,0,12,0,12,0,1,,,,,,,,,,,,,
662a650b6b7d15a354343ad4,TCN,2024-06-11_13h10.23.128,LearnStrategy,2023.2.3,MacIntel,120.4819277,6,1,14,0.098501877,-0.01450659,1,0,0,1.2805,rock_grid_rect_2,8,09,-1,-1,1.281,0.43654526,-0.411591088,1,0,0,1.2871,Pumice_rect,8,1.287,1,13,0,13,0,1,,,,,,,,,,,,,
662a650b6b7d15a354343ad4,TCN,2024-06-11_13h10.23.128,LearnStrategy,2023.2.3,MacIntel,120.4819277,6,1,15,0.123843401,0.004413626,1,0,0,1.2722,rock_grid_rect_2,1,07,-1,-1,1.272,-0.396326161,-0.257910702,1,0,0,2.6257,Andesite_rect,1,2.626,1,14,0,14,0,1,,,,,,,,,,,,,
662a650b6b7d15a354343ad4,TCN,2024-06-11_13h10.23.128,LearnStrategy,2023.2.3,MacIntel,120.4819277,6,1,16,0.149152191,-0.009645601,1,0,0,1.3808,rock_grid_rect_2,5,16,-1,-1,1.381,-0.409687064,-0.402785658,1,0,0,1.7374,Obsidian_rect,5,1.737,1,15,0,15,0,1,,,,,,,,,,,,,
662a650b6b7d15a354343ad4,TCN,2024-06-11_13h10.23.128,LearnStrategy,2023.2.3,MacIntel,120.4819277,6,2,1,,,,,,,,6,11,,,,,,,,,,,6,5.55,1,,,,,,-0.105501484,-0.39818654,1,0,0,5.5498,Pegmatite_rect,0,0,0,0,1,
662a650b6b7d15a354343ad4,TCN,2024-06-11_13h10.23.128,LearnStrategy,2023.2.3,MacIntel,120.4819277,6,2,2,,,,,,,,8,02,,,,,,,,,,,8,2,1,,,,,,0.407051981,-0.405404373,1,0,0,1.9996,Pumice_rect,1,0,1,0,1,
662a650b6b7d15a354343ad4,TCN,2024-06-11_13h10.23.128,LearnStrategy,2023.2.3,MacIntel,120.4819277,6,2,3,,,,,,,,7,07,,,,,,,,,,,7,2.584,1,,,,,,0.172005936,-0.402043689,1,0,0,2.5838,Peridotite_rect,2,0,2,0,1,
662a650b6b7d15a354343ad4,TCN,2024-06-11_13h10.23.128,LearnStrategy,2023.2.3,MacIntel,120.4819277,6,2,4,,,,,,,,2,05,,,,,,,,,,,2,3.028,1,,,,,,-0.088905377,-0.242929469,1,0,0,3.0279,Basalt_rect,3,0,3,0,1,
662a650b6b7d15a354343ad4,TCN,2024-06-11_13h10.23.128,LearnStrategy,2023.2.3,MacIntel,120.4819277,6,2,5,,,,,,,,1,11,,,,,,,,,,,4,2.037,0,,,,,,0.390859593,-0.250027278,1,0,0,2.0367,Gabbro_rect,4,0,4,0,1,
662a650b6b7d15a354343ad4,TCN,2024-06-11_13h10.23.128,LearnStrategy,2023.2.3,MacIntel,120.4819277,6,2,6,,,,,,,,3,07,,,,,,,,,,,1,2.859,0,,,,,,-0.34931477,-0.256268549,1,0,0,2.859,Andesite_rect,5,0,5,0,1,
662a650b6b7d15a354343ad4,TCN,2024-06-11_13h10.23.128,LearnStrategy,2023.2.3,MacIntel,120.4819277,6,2,7,,,,,,,,5,07,,,,,,,,,,,5,1.758,1,,,,,,-0.402398307,-0.392741795,1,0,0,1.7583,Obsidian_rect,6,0,6,0,1,
662a650b6b7d15a354343ad4,TCN,2024-06-11_13h10.23.128,LearnStrategy,2023.2.3,MacIntel,120.4819277,6,2,8,,,,,,,,2,12,,,,,,,,,,,8,6.416,0,,,,,,0.373243279,-0.38709519,1,0,0,6.4155,Pumice_rect,7,0,7,0,1,
662a650b6b7d15a354343ad4,TCN,2024-06-11_13h10.23.128,LearnStrategy,2023.2.3,MacIntel,120.4819277,6,2,9,,,,,,,,8,13,,,,,,,,,,,8,2.154,1,,,,,,0.364841568,-0.396577121,1,0,0,2.1538,Pumice_rect,8,0,8,0,1,
662a650b6b7d15a354343ad4,TCN,2024-06-11_13h10.23.128,LearnStrategy,2023.2.3,MacIntel,120.4819277,6,2,10,,,,,,,,3,06,,,,,,,,,,,6,3.138,0,,,,,,-0.146620766,-0.39968139,1,0,0,3.1383,Pegmatite_rect,9,0,9,0,1,
662a650b6b7d15a354343ad4,TCN,2024-06-11_13h10.23.128,LearnStrategy,2023.2.3,MacIntel,120.4819277,6,2,11,,,,,,,,1,06,,,,,,,,,,,4,2.444,0,,,,,,0.384220059,-0.251483939,1,0,0,2.4436,Gabbro_rect,10,0,10,0,1,
662a650b6b7d15a354343ad4,TCN,2024-06-11_13h10.23.128,LearnStrategy,2023.2.3,MacIntel,120.4819277,6,2,12,,,,,,,,6,15,,,,,,,,,,,6,5.75,1,,,,,,-0.21687871,-0.418394291,1,0,0,5.7496,Pegmatite_rect,11,0,11,0,1,
662a650b6b7d15a354343ad4,TCN,2024-06-11_13h10.23.128,LearnStrategy,2023.2.3,MacIntel,120.4819277,6,2,13,,,,,,,,4,01,,,,,,,,,,,7,3.832,0,,,,,,0.125054557,-0.389364743,1,0,0,3.832,Peridotite_rect,12,0,12,0,1,
662a650b6b7d15a354343ad4,TCN,2024-06-11_13h10.23.128,LearnStrategy,2023.2.3,MacIntel,120.4819277,6,2,14,,,,,,,,5,09,,,,,,,,,,,5,1.884,1,,,,,,-0.395229574,-0.397133598,1,0,0,1.8839,Obsidian_rect,13,0,13,0,1,
662a650b6b7d15a354343ad4,TCN,2024-06-11_13h10.23.128,LearnStrategy,2023.2.3,MacIntel,120.4819277,6,2,15,,,,,,,,4,13,,,,,,,,,,,2,3.046,0,,,,,,-0.159561583,-0.262913539,1,0,0,3.0459,Basalt_rect,14,0,14,0,1,
662a650b6b7d15a354343ad4,TCN,2024-06-11_13h10.23.128,LearnStrategy,2023.2.3,MacIntel,120.4819277,6,2,16,,,,,,,,7,15,,,,,,,,,,,7,1.407,1,,,,,,0.148252008,-0.404160484,1,0,0,1.4071,Peridotite_rect,15,0,15,0,1,
662a650b6b7d15a354343ad4,TCN,2024-06-11_13h10.23.128,LearnStrategy,2023.2.3,MacIntel,120.4819277,7,1,1,0.073815031,0.005035571,1,0,0,1.4674,rock_grid_rect_2,1,04,-1,-1,1.467,0.496710239,-0.255761173,1,0,0,1.8519,Gabbro_rect,4,1.852,0,0,0,0,0,1,,,,,,,,,,,,,
662a650b6b7d15a354343ad4,TCN,2024-06-11_13h10.23.128,LearnStrategy,2023.2.3,MacIntel,120.4819277,7,1,2,0.007201466,-0.008068916,1,0,0,1.3214,rock_grid_rect_2,2,08,-1,-1,1.321,-0.096734244,-0.263704609,1,0,0,2.8933,Basalt_rect,2,2.893,1,1,0,1,0,1,,,,,,,,,,,,,
662a650b6b7d15a354343ad4,TCN,2024-06-11_13h10.23.128,LearnStrategy,2023.2.3,MacIntel,120.4819277,7,1,3,0.073476781,-0.006126702,1,0,0,1.5732,rock_grid_rect_2,1,07,-1,-1,1.573,-0.433713774,-0.263830089,1,0,0,5.1855,Andesite_rect,1,5.186,1,2,0,2,0,1,,,,,,,,,,,,,
662a650b6b7d15a354343ad4,TCN,2024-06-11_13h10.23.128,LearnStrategy,2023.2.3,MacIntel,120.4819277,7,1,4,0.079974468,-0.019831311,1,0,0,1.1805,rock_grid_rect_2,4,11,-1,-1,1.181,0.465334759,-0.239230534,1,0,0,2.3571,Gabbro_rect,4,2.357,1,3,0,3,0,1,,,,,,,,,,,,,
662a650b6b7d15a354343ad4,TCN,2024-06-11_13h10.23.128,LearnStrategy,2023.2.3,MacIntel,120.4819277,7,1,5,0.025696142,-0.015734113,1,0,0,1.2876,rock_grid_rect_2,2,01,-1,-1,1.288,-0.110471587,-0.245166288,1,0,0,2.5955,Basalt_rect,2,2.596,1,4,0,4,0,1,,,,,,,,,,,,,
662a650b6b7d15a354343ad4,TCN,2024-06-11_13h10.23.128,LearnStrategy,2023.2.3,MacIntel,120.4819277,7,1,6,-0.042123123,-0.011265931,1,0,0,1.1618,rock_grid_rect_2,5,16,-1,-1,1.162,-0.373205089,-0.405311627,1,0,0,1.6608,Obsidian_rect,5,1.661,1,5,0,5,0,1,,,,,,,,,,,,,
662a650b6b7d15a354343ad4,TCN,2024-06-11_13h10.23.128,LearnStrategy,2023.2.3,MacIntel,120.4819277,7,1,7,0.075893637,-0.002531425,1,0,0,1.0718,rock_grid_rect_2,6,16,-1,-1,1.072,-0.145982455,-0.407712116,1,0,0,3.063,Pegmatite_rect,6,3.063,1,6,0,6,0,1,,,,,,,,,,,,,
662a650b6b7d15a354343ad4,TCN,2024-06-11_13h10.23.128,LearnStrategy,2023.2.3,MacIntel,120.4819277,7,1,8,0.165399136,-0.010054775,1,0,0,1.0896,rock_grid_rect_2,7,08,-1,-1,1.09,0.199240573,-0.402360117,1,0,0,1.6428,Peridotite_rect,7,1.643,1,7,0,7,0,1,,,,,,,,,,,,,
662a650b6b7d15a354343ad4,TCN,2024-06-11_13h10.23.128,LearnStrategy,2023.2.3,MacIntel,120.4819277,7,1,9,0.074753404,0.007359681,1,0,0,1.2302,rock_grid_rect_2,8,14,-1,-1,1.23,0.358611208,-0.416108371,1,0,0,1.268,Pumice_rect,8,1.268,1,8,0,8,0,1,,,,,,,,,,,,,
662a650b6b7d15a354343ad4,TCN,2024-06-11_13h10.23.128,LearnStrategy,2023.2.3,MacIntel,120.4819277,7,1,10,0.17918558,0.000747425,1,0,0,0.9885,rock_grid_rect_2,8,09,-1,-1,0.988,0.369549799,-0.418994413,1,0,0,1.3014,Pumice_rect,8,1.301,1,9,0,9,0,1,,,,,,,,,,,,,
662a650b6b7d15a354343ad4,TCN,2024-06-11_13h10.23.128,LearnStrategy,2023.2.3,MacIntel,120.4819277,7,1,11,0.119795304,-0.015483153,1,0,0,1.0899,rock_grid_rect_2,6,08,-1,-1,1.09,0.093673621,-0.250474642,1,0,0,5.9108,Diorite_rect,3,5.911,0,10,0,10,0,1,,,,,,,,,,,,,
662a650b6b7d15a354343ad4,TCN,2024-06-11_13h10.23.128,LearnStrategy,2023.2.3,MacIntel,120.4819277,7,1,12,0.057780857,-0.001669431,1,0,0,1.171,rock_grid_rect_2,5,11,-1,-1,1.171,-0.39199437,-0.412425803,1,0,0,1.0848,Obsidian_rect,5,1.085,1,11,0,11,0,1,,,,,,,,,,,,,
662a650b6b7d15a354343ad4,TCN,2024-06-11_13h10.23.128,LearnStrategy,2023.2.3,MacIntel,120.4819277,7,1,13,0.033066734,0.002940599,1,0,0,0.8146,rock_grid_rect_2,3,10,-1,-1,0.815,-0.0787524,-0.404951554,1,0,0,11.2526,Pegmatite_rect,6,11.253,0,12,0,12,0,1,,,,,,,,,,,,,
662a650b6b7d15a354343ad4,TCN,2024-06-11_13h10.23.128,LearnStrategy,2023.2.3,MacIntel,120.4819277,7,1,14,0.082767764,-0.01753448,1,0,0,1.3061,rock_grid_rect_2,3,11,-1,-1,1.306,-0.366527366,-0.267850908,1,0,0,1.9177,Andesite_rect,1,1.918,0,13,0,13,0,1,,,,,,,,,,,,,
662a650b6b7d15a354343ad4,TCN,2024-06-11_13h10.23.128,LearnStrategy,2023.2.3,MacIntel,120.4819277,7,1,15,0.040366402,0.006126702,1,0,0,1.0155,rock_grid_rect_2,7,12,-1,-1,1.016,0.181498778,-0.382905246,1,0,0,2.0512,Peridotite_rect,7,2.051,1,14,0,14,0,1,,,,,,,,,,,,,
662a650b6b7d15a354343ad4,TCN,2024-06-11_13h10.23.128,LearnStrategy,2023.2.3,MacIntel,120.4819277,7,1,16,0.13950659,-0.016230578,1,0,0,1.3568,rock_grid_rect_2,4,12,-1,-1,1.357,0.333166027,-0.247408563,1,0,0,4.7106,Gabbro_rect,4,4.711,1,15,0,15,0,1,,,,,,,,,,,,,
662a650b6b7d15a354343ad4,TCN,2024-06-11_13h10.23.128,LearnStrategy,2023.2.3,MacIntel,120.4819277,7,2,1,,,,,,,,8,04,,,,,,,,,,,8,1.533,1,,,,,,0.354923184,-0.40675192,1,0,0,1.5334,Pumice_rect,0,0,0,0,1,
662a650b6b7d15a354343ad4,TCN,2024-06-11_13h10.23.128,LearnStrategy,2023.2.3,MacIntel,120.4819277,7,2,2,,,,,,,,7,13,,,,,,,,,,,7,2.041,1,,,,,,0.119953518,-0.40155268,1,0,0,2.0413,Peridotite_rect,1,0,1,0,1,
662a650b6b7d15a354343ad4,TCN,2024-06-11_13h10.23.128,LearnStrategy,2023.2.3,MacIntel,120.4819277,7,2,3,,,,,,,,7,02,,,,,,,,,,,7,1.642,1,,,,,,0.114928858,-0.392174406,1,0,0,1.6415,Peridotite_rect,2,0,2,0,1,
662a650b6b7d15a354343ad4,TCN,2024-06-11_13h10.23.128,LearnStrategy,2023.2.3,MacIntel,120.4819277,7,2,4,,,,,,,,4,08,,,,,,,,,,,4,5.752,1,,,,,,0.362042816,-0.252869675,1,0,0,5.7516,Gabbro_rect,3,0,3,0,1,
662a650b6b7d15a354343ad4,TCN,2024-06-11_13h10.23.128,LearnStrategy,2023.2.3,MacIntel,120.4819277,7,2,5,,,,,,,,4,16,,,,,,,,,,,2,1.817,0,,,,,,-0.104737692,-0.260742188,1,0,0,1.817,Basalt_rect,4,0,4,0,1,
662a650b6b7d15a354343ad4,TCN,2024-06-11_13h10.23.128,LearnStrategy,2023.2.3,MacIntel,120.4819277,7,2,6,,,,,,,,3,13,,,,,,,,,,,6,6.342,0,,,,,,-0.196512744,-0.392583581,1,0,0,6.3419,Pegmatite_rect,5,0,5,0,1,
662a650b6b7d15a354343ad4,TCN,2024-06-11_13h10.23.128,LearnStrategy,2023.2.3,MacIntel,120.4819277,7,2,7,,,,,,,,6,13,,,,,,,,,,,1,2.142,0,,,,,,-0.393909305,-0.239759733,1,0,0,2.1416,Andesite_rect,6,0,6,0,1,
662a650b6b7d15a354343ad4,TCN,2024-06-11_13h10.23.128,LearnStrategy,2023.2.3,MacIntel,120.4819277,7,2,8,,,,,,,,8,02,,,,,,,,,,,8,1.574,1,,,,,,0.345752226,-0.398470234,1,0,0,1.5743,Pumice_rect,7,0,7,0,1,
662a650b6b7d15a354343ad4,TCN,2024-06-11_13h10.23.128,LearnStrategy,2023.2.3,MacIntel,120.4819277,7,2,9,,,,,,,,6,06,,,,,,,,,,,1,7.15,0,,,,,,-0.348354574,-0.264277453,1,0,0,7.1501,Andesite_rect,8,0,8,0,1,
662a650b6b7d15a354343ad4,TCN,2024-06-11_13h10.23.128,LearnStrategy,2023.2.3,MacIntel,120.4819277,7,2,10,,,,,,,,5,02,,,,,,,,,,,5,1.207,1,,,,,,-0.335768375,-0.385856756,1,0,0,1.2069,Obsidian_rect,9,0,9,0,1,
662a650b6b7d15a354343ad4,TCN,2024-06-11_13h10.23.128,LearnStrategy,2023.2.3,MacIntel,120.4819277,7,2,11,,,,,,,,1,09,,,,,,,,,,,2,2.984,0,,,,,,-0.11601999,-0.258319876,1,0,0,2.9835,Basalt_rect,10,0,10,0,1,
662a650b6b7d15a354343ad4,TCN,2024-06-11_13h10.23.128,LearnStrategy,2023.2.3,MacIntel,120.4819277,7,2,12,,,,,,,,1,06,,,,,,,,,,,4,3.885,0,,,,,,0.399163102,-0.244522521,1,0,0,3.8845,Gabbro_rect,11,0,11,0,1,
662a650b6b7d15a354343ad4,TCN,2024-06-11_13h10.23.128,LearnStrategy,2023.2.3,MacIntel,120.4819277,7,2,13,,,,,,,,2,14,,,,,,,,,,,2,3.102,1,,,,,,-0.1496432,-0.238434008,1,0,0,3.1018,Basalt_rect,12,0,12,0,1,
662a650b6b7d15a354343ad4,TCN,2024-06-11_13h10.23.128,LearnStrategy,2023.2.3,MacIntel,120.4819277,7,2,14,,,,,,,,5,07,,,,,,,,,,,5,1.12,1,,,,,,-0.343106233,-0.406762832,1,0,0,1.1198,Obsidian_rect,13,0,13,0,1,
662a650b6b7d15a354343ad4,TCN,2024-06-11_13h10.23.128,LearnStrategy,2023.2.3,MacIntel,120.4819277,7,2,15,,,,,,,,2,05,,,,,,,,,,,2,2.1,1,,,,,,-0.107372774,-0.261893331,1,0,0,2.1004,Basalt_rect,14,0,14,0,1,
662a650b6b7d15a354343ad4,TCN,2024-06-11_13h10.23.128,LearnStrategy,2023.2.3,MacIntel,120.4819277,7,2,16,,,,,,,,3,14,,,,,,,,,,,6,3.041,0,,,,,,-0.091447713,-0.398339298,1,0,0,3.0407,Pegmatite_rect,15,0,15,0,1,
662a650b6b7d15a354343ad4,TCN,2024-06-11_13h10.23.128,LearnStrategy,2023.2.3,MacIntel,120.4819277,8,1,1,0.072953038,-0.006219448,1,0,0,1.63,rock_grid_rect_2,6,10,-1,-1,1.63,0.132152366,-0.406353657,1,0,0,1.893,Peridotite_rect,7,1.893,0,0,0,0,0,1,,,,,,,,,,,,,
662a650b6b7d15a354343ad4,TCN,2024-06-11_13h10.23.128,LearnStrategy,2023.2.3,MacIntel,120.4819277,8,1,2,0.104923184,-0.004162666,1,0,0,1.2697,rock_grid_rect_2,8,08,-1,-1,1.27,0.348905595,-0.380210152,1,0,0,1.3855,Pumice_rect,8,1.386,1,1,0,1,0,1,,,,,,,,,,,,,
662a650b6b7d15a354343ad4,TCN,2024-06-11_13h10.23.128,LearnStrategy,2023.2.3,MacIntel,120.4819277,8,1,3,0.044785484,-0.004921002,1,0,0,1.2571,rock_grid_rect_2,2,02,-1,-1,1.257,-0.112321054,-0.233540285,1,0,0,2.6516,Basalt_rect,2,2.652,1,2,0,2,0,1,,,,,,,,,,,,,
662a650b6b7d15a354343ad4,TCN,2024-06-11_13h10.23.128,LearnStrategy,2023.2.3,MacIntel,120.4819277,8,1,4,0.01857651,-0.010949502,1,0,0,1.3276,rock_grid_rect_2,1,14,-1,-1,1.328,-0.373799756,-0.24513901,1,0,0,3.8683,Andesite_rect,1,3.868,1,3,0,3,0,1,,,,,,,,,,,,,
662a650b6b7d15a354343ad4,TCN,2024-06-11_13h10.23.128,LearnStrategy,2023.2.3,MacIntel,120.4819277,8,1,5,0.119457053,-0.011489612,1,0,0,1.4716,rock_grid_rect_2,4,15,-1,-1,1.472,0.362762963,-0.2505783,1,0,0,2.6258,Gabbro_rect,4,2.626,1,4,0,4,0,1,,,,,,,,,,,,,
662a650b6b7d15a354343ad4,TCN,2024-06-11_13h10.23.128,LearnStrategy,2023.2.3,MacIntel,120.4819277,8,1,6,-0.019809488,-0.015199459,1,0,0,1.0977,rock_grid_rect_2,7,16,-1,-1,1.098,0.080061758,-0.392398088,1,0,0,1.6681,Peridotite_rect,7,1.668,1,5,0,5,0,1,,,,,,,,,,,,,
662a650b6b7d15a354343ad4,TCN,2024-06-11_13h10.23.128,LearnStrategy,2023.2.3,MacIntel,120.4819277,8,1,7,-0.009940206,0.003382507,1,0,0,0.9889,rock_grid_rect_2,5,14,-1,-1,0.989,-0.418836199,-0.407242929,1,0,0,1.3965,Obsidian_rect,5,1.397,1,6,0,6,0,1,,,,,,,,,,,,,
662a650b6b7d15a354343ad4,TCN,2024-06-11_13h10.23.128,LearnStrategy,2023.2.3,MacIntel,120.4819277,8,1,8,0.037611295,0.007026885,1,0,0,1.1145,rock_grid_rect_2,7,06,-1,-1,1.115,0.187101737,-0.393341917,1,0,0,1.1625,Peridotite_rect,7,1.162,1,7,0,7,0,1,,,,,,,,,,,,,
662a650b6b7d15a354343ad4,TCN,2024-06-11_13h10.23.128,LearnStrategy,2023.2.3,MacIntel,120.4819277,8,1,9,0.129626397,-0.013475471,1,0,0,0.9646,rock_grid_rect_2,3,12,-1,-1,0.965,0.161334672,-0.228351955,1,0,0,5.185,Diorite_rect,3,5.185,1,8,0,8,0,1,,,,,,,,,,,,,
662a650b6b7d15a354343ad4,TCN,2024-06-11_13h10.23.128,LearnStrategy,2023.2.3,MacIntel,120.4819277,8,1,10,-0.039859026,0.012166114,1,0,0,0.9631,rock_grid_rect_2,8,10,-1,-1,0.963,0.341333144,-0.402654722,1,0,0,1.3535,Pumice_rect,8,1.354,1,9,0,9,0,1,,,,,,,,,,,,,
662a650b6b7d15a354343ad4,TCN,2024-06-11_13h10.23.128,LearnStrategy,2023.2.3,MacIntel,120.4819277,8,1,11,0.084671788,-0.003180648,1,0,0,1.223,rock_grid_rect_2,6,07,-1,-1,1.223,-0.200686322,-0.421564028,1,0,0,4.6515,Pegmatite_rect,6,4.652,1,10,0,10,0,1,,,,,,,,,,,,,
662a650b6b7d15a354343ad4,TCN,2024-06-11_13h10.23.128,LearnStrategy,2023.2.3,MacIntel,120.4819277,8,1,12,0.036951161,-0.018920216,1,0,0,1.1139,rock_grid_rect_2,2,06,-1,-1,1.114,-0.153533083,-0.258827252,1,0,0,2.711,Basalt_rect,2,2.711,1,11,0,11,0,1,,,,,,,,,,,,,
662a650b6b7d15a354343ad4,TCN,2024-06-11_13h10.23.128,LearnStrategy,2023.2.3,MacIntel,120.4819277,8,1,13,0.020944265,0.00847809,1,0,0,0.9736,rock_grid_rect_2,3,02,-1,-1,0.974,-0.40741751,-0.246164674,1,0,0,4.849,Andesite_rect,1,4.849,0,12,0,12,0,1,,,,,,,,,,,,,
662a650b6b7d15a354343ad4,TCN,2024-06-11_13h10.23.128,LearnStrategy,2023.2.3,MacIntel,120.4819277,8,1,14,-0.013573673,-0.001734899,1,0,0,1.105,rock_grid_rect_2,1,02,-1,-1,1.105,0.347612605,-0.259329172,1,0,0,4.3126,Gabbro_rect,4,4.313,0,13,0,13,0,1,,,,,,,,,,,,,
662a650b6b7d15a354343ad4,TCN,2024-06-11_13h10.23.128,LearnStrategy,2023.2.3,MacIntel,120.4819277,8,1,15,-0.006170347,-0.01508489,1,0,0,1.2391,rock_grid_rect_2,4,09,-1,-1,1.239,-0.122086679,-0.255750262,1,0,0,3.4873,Basalt_rect,2,3.487,0,14,0,14,0,1,,,,,,,,,,,,,
662a650b6b7d15a354343ad4,TCN,2024-06-11_13h10.23.128,LearnStrategy,2023.2.3,MacIntel,120.4819277,8,1,16,0.045396517,-0.018914761,1,0,0,1.0479,rock_grid_rect_2,5,04,-1,-1,1.048,-0.374830875,-0.380035571,1,0,0,1.2387,Obsidian_rect,5,1.239,1,15,0,15,0,1,,,,,,,,,,,,,
662a650b6b7d15a354343ad4,TCN,2024-06-11_13h10.23.128,LearnStrategy,2023.2.3,MacIntel,120.4819277,8,2,1,,,,,,,,6,05,,,,,,,,,,,1,6.317,0,,,,,,-0.307971805,-0.257228745,1,0,0,6.3167,Andesite_rect,0,0,0,0,1,
662a650b6b7d15a354343ad4,TCN,2024-06-11_13h10.23.128,LearnStrategy,2023.2.3,MacIntel,120.4819277,8,2,2,,,,,,,,3,09,,,,,,,,,,,1,7.56,0,,,,,,-0.380848464,-0.24497534,1,0,0,7.5596,Andesite_rect,1,0,1,0,1,
662a650b6b7d15a354343ad4,TCN,2024-06-11_13h10.23.128,LearnStrategy,2023.2.3,MacIntel,120.4819277,8,2,3,,,,,,,,2,11,,,,,,,,,,,8,3.55,0,,,,,,0.339871028,-0.406113609,1,0,0,3.5503,Pumice_rect,2,0,2,0,1,
662a650b6b7d15a354343ad4,TCN,2024-06-11_13h10.23.128,LearnStrategy,2023.2.3,MacIntel,120.4819277,8,2,4,,,,,,,,4,13,,,,,,,,,,,2,3.841,0,,,,,,-0.085424668,-0.25552658,1,0,0,3.8415,Basalt_rect,3,0,3,0,1,
662a650b6b7d15a354343ad4,TCN,2024-06-11_13h10.23.128,LearnStrategy,2023.2.3,MacIntel,120.4819277,8,2,5,,,,,,,,1,11,,,,,,,,,,,4,9.063,0,,,,,,0.344693829,-0.261516891,1,0,0,9.0625,Gabbro_rect,4,0,4,0,1,
662a650b6b7d15a354343ad4,TCN,2024-06-11_13h10.23.128,LearnStrategy,2023.2.3,MacIntel,120.4819277,8,2,6,,,,,,,,4,01,,,,,,,,,,,6,4.5,0,,,,,,-0.089047224,-0.409043296,1,0,0,4.5002,Pegmatite_rect,5,0,5,0,1,
662a650b6b7d15a354343ad4,TCN,2024-06-11_13h10.23.128,LearnStrategy,2023.2.3,MacIntel,120.4819277,8,2,7,,,,,,,,8,15,,,,,,,,,,,8,2.307,1,,,,,,0.317415546,-0.404607847,1,0,0,2.3072,Pumice_rect,6,0,6,0,1,
662a650b6b7d15a354343ad4,TCN,2024-06-11_13h10.23.128,LearnStrategy,2023.2.3,MacIntel,120.4819277,8,2,8,,,,,,,,1,10,,,,,,,,,,,8,1.701,0,,,,,,0.347045216,-0.397379103,1,0,0,1.7014,Pumice_rect,7,0,7,0,1,
662a650b6b7d15a354343ad4,TCN,2024-06-11_13h10.23.128,LearnStrategy,2023.2.3,MacIntel,120.4819277,8,2,9,,,,,,,,6,09,,,,,,,,,,,7,3.02,0,,,,,,0.094284654,-0.409697975,1,0,0,3.0198,Peridotite_rect,8,0,8,0,1,
662a650b6b7d15a354343ad4,TCN,2024-06-11_13h10.23.128,LearnStrategy,2023.2.3,MacIntel,120.4819277,8,2,10,,,,,,,,5,10,,,,,,,,,,,5,1.251,1,,,,,,-0.385327558,-0.408645033,1,0,0,1.2506,Obsidian_rect,9,0,9,0,1,
662a650b6b7d15a354343ad4,TCN,2024-06-11_13h10.23.128,LearnStrategy,2023.2.3,MacIntel,120.4819277,8,2,11,,,,,,,,7,14,,,,,,,,,,,6,3.576,0,,,,,,-0.116947451,-0.390570443,1,0,0,3.5756,Pegmatite_rect,10,0,10,0,1,
662a650b6b7d15a354343ad4,TCN,2024-06-11_13h10.23.128,LearnStrategy,2023.2.3,MacIntel,120.4819277,8,2,12,,,,,,,,2,10,,,,,,,,,,,2,4.116,1,,,,,,-0.071190861,-0.240381678,1,0,0,4.1161,Basalt_rect,11,0,11,0,1,
662a650b6b7d15a354343ad4,TCN,2024-06-11_13h10.23.128,LearnStrategy,2023.2.3,MacIntel,120.4819277,8,2,13,,,,,,,,8,16,,,,,,,,,,,8,1.292,1,,,,,,0.358436627,-0.392048926,1,0,0,1.2921,Pumice_rect,12,0,12,0,1,
662a650b6b7d15a354343ad4,TCN,2024-06-11_13h10.23.128,LearnStrategy,2023.2.3,MacIntel,120.4819277,8,2,14,,,,,,,,3,07,,,,,,,,,,,1,2.167,0,,,,,,-0.37865529,-0.238930473,1,0,0,2.1667,Andesite_rect,13,0,13,0,1,
662a650b6b7d15a354343ad4,TCN,2024-06-11_13h10.23.128,LearnStrategy,2023.2.3,MacIntel,120.4819277,8,2,15,,,,,,,,5,09,,,,,,,,,,,5,1.381,1,,,,,,-0.391825244,-0.381023045,1,0,0,1.3812,Obsidian_rect,14,0,14,0,1,
662a650b6b7d15a354343ad4,TCN,2024-06-11_13h10.23.128,LearnStrategy,2023.2.3,MacIntel,120.4819277,8,2,16,,,,,,,,7,04,,,,,,,,,,,6,3.575,0,,,,,,-0.121764796,-0.398208362,1,0,0,3.5755,Pegmatite_rect,15,0,15,0,1,
662a650b6b7d15a354343ad4,TCN,2024-06-11_13h10.23.128,LearnStrategy,2023.2.3,MacIntel,120.4819277,9,1,1,0.068086592,-0.005930299,1,0,0,1.2773,rock_grid_rect_2,8,06,-1,-1,1.277,0.418225166,-0.414155246,1,0,0,1.5538,Pumice_rect,8,1.554,1,0,0,0,0,1,,,,,,,,,,,,,
662a650b6b7d15a354343ad4,TCN,2024-06-11_13h10.23.128,LearnStrategy,2023.2.3,MacIntel,120.4819277,9,1,2,0.108616664,-0.012204303,1,0,0,1.3483,rock_grid_rect_2,2,16,-1,-1,1.348,0.357410964,-0.243545958,1,0,0,3.4178,Gabbro_rect,4,3.418,0,1,0,1,0,1,,,,,,,,,,,,,
662a650b6b7d15a354343ad4,TCN,2024-06-11_13h10.23.128,LearnStrategy,2023.2.3,MacIntel,120.4819277,9,1,3,-0.011996988,-0.003829871,1,0,0,1.2642,rock_grid_rect_2,1,16,-1,-1,1.264,-0.384241882,-0.255106494,1,0,0,1.6362,Andesite_rect,1,1.636,1,2,0,2,0,1,,,,,,,,,,,,,
662a650b6b7d15a354343ad4,TCN,2024-06-11_13h10.23.128,LearnStrategy,2023.2.3,MacIntel,120.4819277,9,1,4,0.069625087,-0.002384122,1,0,0,1.0136,rock_grid_rect_2,6,12,-1,-1,1.014,0.131344928,-0.245706398,1,0,0,2.5955,Diorite_rect,3,2.595,0,3,0,3,0,1,,,,,,,,,,,,,
662a650b6b7d15a354343ad4,TCN,2024-06-11_13h10.23.128,LearnStrategy,2023.2.3,MacIntel,120.4819277,9,1,5,0.110176981,-0.007086898,1,0,0,1.0903,rock_grid_rect_2,5,05,-1,-1,1.09,-0.368033127,-0.391656119,1,0,0,1.4768,Obsidian_rect,5,1.477,1,4,0,4,0,1,,,,,,,,,,,,,
662a650b6b7d15a354343ad4,TCN,2024-06-11_13h10.23.128,LearnStrategy,2023.2.3,MacIntel,120.4819277,9,1,6,0.047906119,-0.008396255,1,0,0,0.7907,rock_grid_rect_2,3,15,-1,-1,0.791,-0.448705918,-0.23266738,1,0,0,1.601,Andesite_rect,1,1.601,0,5,0,5,0,1,,,,,,,,,,,,,
662a650b6b7d15a354343ad4,TCN,2024-06-11_13h10.23.128,LearnStrategy,2023.2.3,MacIntel,120.4819277,9,1,7,0.144056608,-0.005084672,1,0,0,1.2725,rock_grid_rect_2,8,05,-1,-1,1.273,0.401612692,-0.384465564,1,0,0,1.6021,Pumice_rect,8,1.602,1,6,0,6,0,1,,,,,,,,,,,,,
662a650b6b7d15a354343ad4,TCN,2024-06-11_13h10.23.128,LearnStrategy,2023.2.3,MacIntel,120.4819277,9,1,8,0.135894946,0.006279461,1,0,0,1.0977,rock_grid_rect_2,7,05,-1,-1,1.098,0.09873647,-0.400439726,1,0,0,3.1088,Peridotite_rect,7,3.109,1,7,0,7,0,1,,,,,,,,,,,,,
662a650b6b7d15a354343ad4,TCN,2024-06-11_13h10.23.128,LearnStrategy,2023.2.3,MacIntel,120.4819277,9,1,9,0.016448804,-0.000709235,1,0,0,0.8799,rock_grid_rect_2,5,08,-1,-1,0.88,-0.39922857,-0.388922835,1,0,0,1.1361,Obsidian_rect,5,1.136,1,8,0,8,0,1,,,,,,,,,,,,,
662a650b6b7d15a354343ad4,TCN,2024-06-11_13h10.23.128,LearnStrategy,2023.2.3,MacIntel,120.4819277,9,1,10,0.048140712,0.006923228,1,0,0,1.0981,rock_grid_rect_2,2,04,-1,-1,1.098,-0.123887046,-0.244773481,1,0,0,1.9696,Basalt_rect,2,1.97,1,9,0,9,0,1,,,,,,,,,,,,,
662a650b6b7d15a354343ad4,TCN,2024-06-11_13h10.23.128,LearnStrategy,2023.2.3,MacIntel,120.4819277,9,1,11,0.044850951,0.004375436,1,0,0,1.2627,rock_grid_rect_2,4,05,-1,-1,1.263,0.370940992,-0.248897957,1,0,0,2.2927,Gabbro_rect,4,2.293,1,10,0,10,0,1,,,,,,,,,,,,,
662a650b6b7d15a354343ad4,TCN,2024-06-11_13h10.23.128,LearnStrategy,2023.2.3,MacIntel,120.4819277,9,1,12,0.063547486,-0.004620941,1,0,0,1.1882,rock_grid_rect_2,7,10,-1,-1,1.188,-0.095015712,-0.397226344,1,0,0,3.4107,Pegmatite_rect,6,3.411,0,11,0,11,0,1,,,,,,,,,,,,,
662a650b6b7d15a354343ad4,TCN,2024-06-11_13h10.23.128,LearnStrategy,2023.2.3,MacIntel,120.4819277,9,1,13,-0.023677549,0.005853919,1,0,0,1.0399,rock_grid_rect_2,4,10,-1,-1,1.04,0.389386566,-0.255248341,1,0,0,5.5697,Gabbro_rect,4,5.57,1,12,0,12,0,1,,,,,,,,,,,,,
662a650b6b7d15a354343ad4,TCN,2024-06-11_13h10.23.128,LearnStrategy,2023.2.3,MacIntel,120.4819277,9,1,14,-0.019973158,-0.008974555,1,0,0,1.1664,rock_grid_rect_2,6,03,-1,-1,1.166,0.134318261,-0.382474249,1,0,0,2.0855,Peridotite_rect,7,2.086,0,13,0,13,0,1,,,,,,,,,,,,,
662a650b6b7d15a354343ad4,TCN,2024-06-11_13h10.23.128,LearnStrategy,2023.2.3,MacIntel,120.4819277,9,1,15,-0.007583362,-0.008598115,1,0,0,0.9301,rock_grid_rect_2,1,03,-1,-1,0.93,-0.153183921,-0.255515669,1,0,0,2.8787,Basalt_rect,2,2.879,0,14,0,14,0,1,,,,,,,,,,,,,
662a650b6b7d15a354343ad4,TCN,2024-06-11_13h10.23.128,LearnStrategy,2023.2.3,MacIntel,120.4819277,9,1,16,-0.053956442,0.000561933,1,0,0,0.9236,rock_grid_rect_2,3,08,-1,-1,0.924,-0.347067039,-0.250185492,1,0,0,1.4772,Andesite_rect,1,1.477,0,15,0,15,0,1,,,,,,,,,,,,,
662a650b6b7d15a354343ad4,TCN,2024-06-11_13h10.23.128,LearnStrategy,2023.2.3,MacIntel,120.4819277,9,2,1,,,,,,,,7,15,,,,,,,,,,,7,2.822,1,,,,,,0.144307568,-0.401563591,1,0,0,2.8224,Peridotite_rect,0,0,0,0,1,
662a650b6b7d15a354343ad4,TCN,2024-06-11_13h10.23.128,LearnStrategy,2023.2.3,MacIntel,120.4819277,9,2,2,,,,,,,,1,05,,,,,,,,,,,4,4.346,0,,,,,,0.320197931,-0.254675498,1,0,0,4.3459,Gabbro_rect,1,0,1,0,1,
662a650b6b7d15a354343ad4,TCN,2024-06-11_13h10.23.128,LearnStrategy,2023.2.3,MacIntel,120.4819277,9,2,3,,,,,,,,7,07,,,,,,,,,,,7,3.848,1,,,,,,0.034086941,-0.412507638,1,0,0,3.8483,Peridotite_rect,2,0,2,0,1,
662a650b6b7d15a354343ad4,TCN,2024-06-11_13h10.23.128,LearnStrategy,2023.2.3,MacIntel,120.4819277,9,2,4,,,,,,,,5,06,,,,,,,,,,,5,1.025,1,,,,,,-0.387269771,-0.408830525,1,0,0,1.0251,Obsidian_rect,3,0,3,0,1,
662a650b6b7d15a354343ad4,TCN,2024-06-11_13h10.23.128,LearnStrategy,2023.2.3,MacIntel,120.4819277,9,2,5,,,,,,,,6,11,,,,,,,,,,,3,8.835,0,,,,,,0.168601606,-0.250507376,1,0,0,8.8349,Diorite_rect,4,0,4,0,1,
662a650b6b7d15a354343ad4,TCN,2024-06-11_13h10.23.128,LearnStrategy,2023.2.3,MacIntel,120.4819277,9,2,6,,,,,,,,8,03,,,,,,,,,,,8,1.823,1,,,,,,0.38655508,-0.407242929,1,0,0,1.8227,Pumice_rect,5,0,5,0,1,
662a650b6b7d15a354343ad4,TCN,2024-06-11_13h10.23.128,LearnStrategy,2023.2.3,MacIntel,120.4819277,9,2,7,,,,,,,,1,01,,,,,,,,,,,2,2.498,0,,,,,,-0.076848376,-0.243114962,1,0,0,2.4982,Basalt_rect,6,0,6,0,1,
662a650b6b7d15a354343ad4,TCN,2024-06-11_13h10.23.128,LearnStrategy,2023.2.3,MacIntel,120.4819277,9,2,8,,,,,,,,2,09,,,,,,,,,,,2,3.461,1,,,,,,-0.08145295,-0.242787622,1,0,0,3.4605,Basalt_rect,7,0,7,0,1,
662a650b6b7d15a354343ad4,TCN,2024-06-11_13h10.23.128,LearnStrategy,2023.2.3,MacIntel,120.4819277,9,2,9,,,,,,,,3,06,,,,,,,,,,,1,4.865,0,,,,,,-0.380804818,-0.259661968,1,0,0,4.8651,Andesite_rect,8,0,8,0,1,
662a650b6b7d15a354343ad4,TCN,2024-06-11_13h10.23.128,LearnStrategy,2023.2.3,MacIntel,120.4819277,9,2,10,,,,,,,,8,13,,,,,,,,,,,8,2.283,1,,,,,,0.310852392,-0.387918994,1,0,0,2.2834,Pumice_rect,9,0,9,0,1,
662a650b6b7d15a354343ad4,TCN,2024-06-11_13h10.23.128,LearnStrategy,2023.2.3,MacIntel,120.4819277,9,2,11,,,,,,,,4,14,,,,,,,,,,,4,2.862,1,,,,,,0.339123603,-0.242711243,1,0,0,2.8622,Gabbro_rect,10,0,10,0,1,
662a650b6b7d15a354343ad4,TCN,2024-06-11_13h10.23.128,LearnStrategy,2023.2.3,MacIntel,120.4819277,9,2,12,,,,,,,,2,12,,,,,,,,,,,8,2.14,0,,,,,,0.38468379,-0.392599948,1,0,0,2.1395,Pumice_rect,11,0,11,0,1,
662a650b6b7d15a354343ad4,TCN,2024-06-11_13h10.23.128,LearnStrategy,2023.2.3,MacIntel,120.4819277,9,2,13,,,,,,,,4,03,,,,,,,,,,,3,4.683,0,,,,,,0.198373123,-0.261887875,1,0,0,4.683,Diorite_rect,12,0,12,0,1,
662a650b6b7d15a354343ad4,TCN,2024-06-11_13h10.23.128,LearnStrategy,2023.2.3,MacIntel,120.4819277,9,2,14,,,,,,,,5,12,,,,,,,,,,,5,1.665,1,,,,,,-0.418197888,-0.396751702,1,0,0,1.6651,Obsidian_rect,13,0,13,0,1,
662a650b6b7d15a354343ad4,TCN,2024-06-11_13h10.23.128,LearnStrategy,2023.2.3,MacIntel,120.4819277,9,2,15,,,,,,,,6,15,,,,,,,,,,,6,3.043,1,,,,,,-0.091485903,-0.407302942,1,0,0,3.0433,Pegmatite_rect,14,0,14,0,1,
662a650b6b7d15a354343ad4,TCN,2024-06-11_13h10.23.128,LearnStrategy,2023.2.3,MacIntel,120.4819277,9,2,16,,,,,,,,3,16,,,,,,,,,,,1,1.568,0,,,,,,-0.369708013,-0.257512439,1,0,0,1.568,Andesite_rect,15,0,15,0,1,
662a650b6b7d15a354343ad4,TCN,2024-06-11_13h10.23.128,LearnStrategy,2023.2.3,MacIntel,120.4819277,,,,,,,,,,,,,,,,,,,,,,,,,,,,,,,,,,,,,,,,,,,0
662a650b6b7d15a354343ad4,TCN,2024-06-11_13h10.23.128,LearnStrategy,2023.2.3,MacIntel,120.4819277,,,,,,,,,,,,,,,,,,,,,,,,,,,,,,,,,,,,,,,,,,,
662a650b6b7d15a354343ad4,TCN,2024-06-11_13h10.23.128,LearnStrategy,2023.2.3,MacIntel,120.4819277,,,,,,,,,,,7,08,1,1,,,,,,,,,,,,,,,,,,,,,,,,,,,,,
662a650b6b7d15a354343ad4,TCN,2024-06-11_13h10.23.128,LearnStrategy,2023.2.3,MacIntel,120.4819277,,,,,,,,,,,1,16,1,2,,,,,,,,,,,,,,,,,,,,,,,,,,,,,
662a650b6b7d15a354343ad4,TCN,2024-06-11_13h10.23.128,LearnStrategy,2023.2.3,MacIntel,120.4819277,,,,,,,,,,,3,11,1,3,,,,,,,,,,,,,,,,,,,,,,,,,,,,,
662a650b6b7d15a354343ad4,TCN,2024-06-11_13h10.23.128,LearnStrategy,2023.2.3,MacIntel,120.4819277,,,,,,,,,,,2,08,1,4,,,,,,,,,,,,,,,,,,,,,,,,,,,,,
662a650b6b7d15a354343ad4,TCN,2024-06-11_13h10.23.128,LearnStrategy,2023.2.3,MacIntel,120.4819277,,,,,,,,,,,4,11,1,5,,,,,,,,,,,,,,,,,,,,,,,,,,,,,
662a650b6b7d15a354343ad4,TCN,2024-06-11_13h10.23.128,LearnStrategy,2023.2.3,MacIntel,120.4819277,,,,,,,,,,,5,14,1,6,,,,,,,,,,,,,,,,,,,,,,,,,,,,,
662a650b6b7d15a354343ad4,TCN,2024-06-11_13h10.23.128,LearnStrategy,2023.2.3,MacIntel,120.4819277,,,,,,,,,,,1,02,1,7,,,,,,,,,,,,,,,,,,,,,,,,,,,,,
662a650b6b7d15a354343ad4,TCN,2024-06-11_13h10.23.128,LearnStrategy,2023.2.3,MacIntel,120.4819277,,,,,,,,,,,7,05,1,8,,,,,,,,,,,,,,,,,,,,,,,,,,,,,
662a650b6b7d15a354343ad4,TCN,2024-06-11_13h10.23.128,LearnStrategy,2023.2.3,MacIntel,120.4819277,,,,,,,,,,,3,02,2,1,,,,,,,,,,,,,,,,,,,,,,,,,,,,,
662a650b6b7d15a354343ad4,TCN,2024-06-11_13h10.23.128,LearnStrategy,2023.2.3,MacIntel,120.4819277,,,,,,,,,,,6,12,2,2,,,,,,,,,,,,,,,,,,,,,,,,,,,,,
662a650b6b7d15a354343ad4,TCN,2024-06-11_13h10.23.128,LearnStrategy,2023.2.3,MacIntel,120.4819277,,,,,,,,,,,5,08,2,3,,,,,,,,,,,,,,,,,,,,,,,,,,,,,
662a650b6b7d15a354343ad4,TCN,2024-06-11_13h10.23.128,LearnStrategy,2023.2.3,MacIntel,120.4819277,,,,,,,,,,,4,12,2,4,,,,,,,,,,,,,,,,,,,,,,,,,,,,,
662a650b6b7d15a354343ad4,TCN,2024-06-11_13h10.23.128,LearnStrategy,2023.2.3,MacIntel,120.4819277,,,,,,,,,,,1,03,2,5,,,,,,,,,,,,,,,,,,,,,,,,,,,,,
662a650b6b7d15a354343ad4,TCN,2024-06-11_13h10.23.128,LearnStrategy,2023.2.3,MacIntel,120.4819277,,,,,,,,,,,2,01,2,6,,,,,,,,,,,,,,,,,,,,,,,,,,,,,
662a650b6b7d15a354343ad4,TCN,2024-06-11_13h10.23.128,LearnStrategy,2023.2.3,MacIntel,120.4819277,,,,,,,,,,,6,07,2,7,,,,,,,,,,,,,,,,,,,,,,,,,,,,,
662a650b6b7d15a354343ad4,TCN,2024-06-11_13h10.23.128,LearnStrategy,2023.2.3,MacIntel,120.4819277,,,,,,,,,,,5,05,2,8,,,,,,,,,,,,,,,,,,,,,,,,,,,,,
662a650b6b7d15a354343ad4,TCN,2024-06-11_13h10.23.128,LearnStrategy,2023.2.3,MacIntel,120.4819277,,,,,,,,,,,2,06,3,1,,,,,,,,,,,,,,,,,,,,,,,,,,,,,
662a650b6b7d15a354343ad4,TCN,2024-06-11_13h10.23.128,LearnStrategy,2023.2.3,MacIntel,120.4819277,,,,,,,,,,,4,10,3,2,,,,,,,,,,,,,,,,,,,,,,,,,,,,,
662a650b6b7d15a354343ad4,TCN,2024-06-11_13h10.23.128,LearnStrategy,2023.2.3,MacIntel,120.4819277,,,,,,,,,,,5,11,3,3,,,,,,,,,,,,,,,,,,,,,,,,,,,,,
662a650b6b7d15a354343ad4,TCN,2024-06-11_13h10.23.128,LearnStrategy,2023.2.3,MacIntel,120.4819277,,,,,,,,,,,5,16,3,4,,,,,,,,,,,,,,,,,,,,,,,,,,,,,
662a650b6b7d15a354343ad4,TCN,2024-06-11_13h10.23.128,LearnStrategy,2023.2.3,MacIntel,120.4819277,,,,,,,,,,,1,04,3,5,,,,,,,,,,,,,,,,,,,,,,,,,,,,,
662a650b6b7d15a354343ad4,TCN,2024-06-11_13h10.23.128,LearnStrategy,2023.2.3,MacIntel,120.4819277,,,,,,,,,,,6,03,3,6,,,,,,,,,,,,,,,,,,,,,,,,,,,,,
662a650b6b7d15a354343ad4,TCN,2024-06-11_13h10.23.128,LearnStrategy,2023.2.3,MacIntel,120.4819277,,,,,,,,,,,2,16,3,7,,,,,,,,,,,,,,,,,,,,,,,,,,,,,
662a650b6b7d15a354343ad4,TCN,2024-06-11_13h10.23.128,LearnStrategy,2023.2.3,MacIntel,120.4819277,,,,,,,,,,,8,09,3,8,,,,,,,,,,,,,,,,,,,,,,,,,,,,,
662a650b6b7d15a354343ad4,TCN,2024-06-11_13h10.23.128,LearnStrategy,2023.2.3,MacIntel,120.4819277,,,,,,,,,,,7,10,4,1,,,,,,,,,,,,,,,,,,,,,,,,,,,,,
662a650b6b7d15a354343ad4,TCN,2024-06-11_13h10.23.128,LearnStrategy,2023.2.3,MacIntel,120.4819277,,,,,,,,,,,8,14,4,2,,,,,,,,,,,,,,,,,,,,,,,,,,,,,
662a650b6b7d15a354343ad4,TCN,2024-06-11_13h10.23.128,LearnStrategy,2023.2.3,MacIntel,120.4819277,,,,,,,,,,,8,08,4,3,,,,,,,,,,,,,,,,,,,,,,,,,,,,,
662a650b6b7d15a354343ad4,TCN,2024-06-11_13h10.23.128,LearnStrategy,2023.2.3,MacIntel,120.4819277,,,,,,,,,,,3,10,4,4,,,,,,,,,,,,,,,,,,,,,,,,,,,,,
662a650b6b7d15a354343ad4,TCN,2024-06-11_13h10.23.128,LearnStrategy,2023.2.3,MacIntel,120.4819277,,,,,,,,,,,2,02,4,5,,,,,,,,,,,,,,,,,,,,,,,,,,,,,
662a650b6b7d15a354343ad4,TCN,2024-06-11_13h10.23.128,LearnStrategy,2023.2.3,MacIntel,120.4819277,,,,,,,,,,,4,15,4,6,,,,,,,,,,,,,,,,,,,,,,,,,,,,,
662a650b6b7d15a354343ad4,TCN,2024-06-11_13h10.23.128,LearnStrategy,2023.2.3,MacIntel,120.4819277,,,,,,,,,,,6,10,4,7,,,,,,,,,,,,,,,,,,,,,,,,,,,,,
662a650b6b7d15a354343ad4,TCN,2024-06-11_13h10.23.128,LearnStrategy,2023.2.3,MacIntel,120.4819277,,,,,,,,,,,4,05,4,8,,,,,,,,,,,,,,,,,,,,,,,,,,,,,
662a650b6b7d15a354343ad4,TCN,2024-06-11_13h10.23.128,LearnStrategy,2023.2.3,MacIntel,120.4819277,,,,,,,,,,,4,09,5,1,,,,,,,,,,,,,,,,,,,,,,,,,,,,,
662a650b6b7d15a354343ad4,TCN,2024-06-11_13h10.23.128,LearnStrategy,2023.2.3,MacIntel,120.4819277,,,,,,,,,,,3,15,5,2,,,,,,,,,,,,,,,,,,,,,,,,,,,,,
662a650b6b7d15a354343ad4,TCN,2024-06-11_13h10.23.128,LearnStrategy,2023.2.3,MacIntel,120.4819277,,,,,,,,,,,3,12,5,3,,,,,,,,,,,,,,,,,,,,,,,,,,,,,
662a650b6b7d15a354343ad4,TCN,2024-06-11_13h10.23.128,LearnStrategy,2023.2.3,MacIntel,120.4819277,,,,,,,,,,,1,14,5,4,,,,,,,,,,,,,,,,,,,,,,,,,,,,,
662a650b6b7d15a354343ad4,TCN,2024-06-11_13h10.23.128,LearnStrategy,2023.2.3,MacIntel,120.4819277,,,,,,,,,,,1,07,5,5,,,,,,,,,,,,,,,,,,,,,,,,,,,,,
662a650b6b7d15a354343ad4,TCN,2024-06-11_13h10.23.128,LearnStrategy,2023.2.3,MacIntel,120.4819277,,,,,,,,,,,5,04,5,6,,,,,,,,,,,,,,,,,,,,,,,,,,,,,
662a650b6b7d15a354343ad4,TCN,2024-06-11_13h10.23.128,LearnStrategy,2023.2.3,MacIntel,120.4819277,,,,,,,,,,,2,04,5,7,,,,,,,,,,,,,,,,,,,,,,,,,,,,,
662a650b6b7d15a354343ad4,TCN,2024-06-11_13h10.23.128,LearnStrategy,2023.2.3,MacIntel,120.4819277,,,,,,,,,,,7,16,5,8,,,,,,,,,,,,,,,,,,,,,,,,,,,,,
662a650b6b7d15a354343ad4,TCN,2024-06-11_13h10.23.128,LearnStrategy,2023.2.3,MacIntel,120.4819277,,,,,,,,,,,7,06,6,1,,,,,,,,,,,,,,,,,,,,,,,,,,,,,
662a650b6b7d15a354343ad4,TCN,2024-06-11_13h10.23.128,LearnStrategy,2023.2.3,MacIntel,120.4819277,,,,,,,,,,,7,12,6,2,,,,,,,,,,,,,,,,,,,,,,,,,,,,,
662a650b6b7d15a354343ad4,TCN,2024-06-11_13h10.23.128,LearnStrategy,2023.2.3,MacIntel,120.4819277,,,,,,,,,,,3,08,6,3,,,,,,,,,,,,,,,,,,,,,,,,,,,,,
662a650b6b7d15a354343ad4,TCN,2024-06-11_13h10.23.128,LearnStrategy,2023.2.3,MacIntel,120.4819277,,,,,,,,,,,8,06,6,4,,,,,,,,,,,,,,,,,,,,,,,,,,,,,
662a650b6b7d15a354343ad4,TCN,2024-06-11_13h10.23.128,LearnStrategy,2023.2.3,MacIntel,120.4819277,,,,,,,,,,,8,10,6,5,,,,,,,,,,,,,,,,,,,,,,,,,,,,,
662a650b6b7d15a354343ad4,TCN,2024-06-11_13h10.23.128,LearnStrategy,2023.2.3,MacIntel,120.4819277,,,,,,,,,,,6,08,6,6,,,,,,,,,,,,,,,,,,,,,,,,,,,,,
662a650b6b7d15a354343ad4,TCN,2024-06-11_13h10.23.128,LearnStrategy,2023.2.3,MacIntel,120.4819277,,,,,,,,,,,6,16,6,7,,,,,,,,,,,,,,,,,,,,,,,,,,,,,
662a650b6b7d15a354343ad4,TCN,2024-06-11_13h10.23.128,LearnStrategy,2023.2.3,MacIntel,120.4819277,,,,,,,,,,,8,05,6,8,,,,,,,,,,,,,,,,,,,,,,,,,,,,,