participant,condition,date,expName,psychopyVersion,OS,frameRate,block,phase,trial,learn_mouse_2.x,learn_mouse_2.y,learn_mouse_2.leftButton,learn_mouse_2.midButton,learn_mouse_2.rightButton,learn_mouse_2.time,learn_mouse_2.clicked_name,cat,token,row,col,t_select,cat_mouse_l.x,cat_mouse_l.y,cat_mouse_l.leftButton,cat_mouse_l.midButton,cat_mouse_l.rightButton,cat_mouse_l.time,cat_mouse_l.clicked_name,resp,t_resp,corr,train_trials.thisRepN,train_trials.thisTrialN,train_trials.thisN,train_trials.thisIndex,train_trials.ran,cat_mouse_t.x,cat_mouse_t.y,cat_mouse_t.leftButton,cat_mouse_t.midButton,cat_mouse_t.rightButton,cat_mouse_t.time,cat_mouse_t.clicked_name,test_trials.thisRepN,test_trials.thisTrialN,test_trials.thisN,test_trials.thisIndex,test_trials.ran,Bonus
662a2584d928ede39a60cdb1,TCR,2024-06-25_17h51.49.388,LearnStrategy,2023.2.3,MacIntel,142.8571429,,,,,,,,,,,,,,,,,,,,,,,,,,,,,,,,,,,,,,,,,,,
662a2584d928ede39a60cdb1,TCR,2024-06-25_17h51.49.388,LearnStrategy,2023.2.3,MacIntel,142.8571429,1,1,1,-0.03713997,-0.011802266,1,0,0,2.608,rock_grid_rect_2,6,15,-1,-1,2.608,0.149651381,-0.241567329,1,0,0,2.668,Diorite_rect,3,2.668,0,0,0,0,0,1,,,,,,,,,,,,,
662a2584d928ede39a60cdb1,TCR,2024-06-25_17h51.49.388,LearnStrategy,2023.2.3,MacIntel,142.8571429,1,1,2,-0.038880583,0.010577635,1,0,0,1.495,rock_grid_rect_2,7,10,-1,-1,1.495,0.346084323,-0.259415849,1,0,0,2.135,Gabbro_rect,4,2.135,0,1,0,1,0,1,,,,,,,,,,,,,
662a2584d928ede39a60cdb1,TCR,2024-06-25_17h51.49.388,LearnStrategy,2023.2.3,MacIntel,142.8571429,1,1,3,0.032658201,-0.008709681,1,0,0,1.435,rock_grid_rect_2,5,02,-1,-1,1.435,-0.295040121,-0.416902056,1,0,0,0.957,Obsidian_rect,5,0.957,1,2,0,2,0,1,,,,,,,,,,,,,
662a2584d928ede39a60cdb1,TCR,2024-06-25_17h51.49.388,LearnStrategy,2023.2.3,MacIntel,142.8571429,1,1,4,-0.033956426,0.00897346,1,0,0,1.043,rock_grid_rect_2,4,11,-1,-1,1.043,0.189817786,-0.396229691,1,0,0,1.247,Peridotite_rect,7,1.247,0,3,0,3,0,1,,,,,,,,,,,,,
662a2584d928ede39a60cdb1,TCR,2024-06-25_17h51.49.388,LearnStrategy,2023.2.3,MacIntel,142.8571429,1,1,5,0.011853534,0.020889011,1,0,0,1.452,rock_grid_rect_2,2,16,-1,-1,1.452,-0.403305428,-0.239181738,1,0,0,1.285,Andesite_rect,1,1.285,0,4,0,4,0,1,,,,,,,,,,,,,
662a2584d928ede39a60cdb1,TCR,2024-06-25_17h51.49.388,LearnStrategy,2023.2.3,MacIntel,142.8571429,1,1,6,-0.026816191,-0.017036509,1,0,0,1.029,rock_grid_rect_2,3,13,-1,-1,1.029,0.402734871,-0.380543501,1,0,0,1.987,Pumice_rect,8,1.987,0,5,0,5,0,1,,,,,,,,,,,,,
662a2584d928ede39a60cdb1,TCR,2024-06-25_17h51.49.388,LearnStrategy,2023.2.3,MacIntel,142.8571429,1,1,7,0.09318275,-0.015907798,1,0,0,1.515,rock_grid_rect_2,3,16,-1,-1,1.515,-0.349400171,-0.267792291,1,0,0,4.786,Andesite_rect,1,4.786,0,6,0,6,0,1,,,,,,,,,,,,,
662a2584d928ede39a60cdb1,TCR,2024-06-25_17h51.49.388,LearnStrategy,2023.2.3,MacIntel,142.8571429,1,1,8,0.065060066,-0.020530139,1,0,0,0.924,rock_grid_rect_2,4,15,-1,-1,0.924,0.370895295,-0.387766425,1,0,0,2.477,Pumice_rect,8,2.477,0,7,0,7,0,1,,,,,,,,,,,,,
662a2584d928ede39a60cdb1,TCR,2024-06-25_17h51.49.388,LearnStrategy,2023.2.3,MacIntel,142.8571429,1,1,9,0.101327662,0.021141214,1,0,0,1.081,rock_grid_rect_2,1,07,-1,-1,1.081,0.119002534,-0.231102978,1,0,0,5.026,Diorite_rect,3,5.026,0,8,0,8,0,1,,,,,,,,,,,,,
662a2584d928ede39a60cdb1,TCR,2024-06-25_17h51.49.388,LearnStrategy,2023.2.3,MacIntel,142.8571429,1,1,10,0.065977919,-0.016217883,1,0,0,1.305,rock_grid_rect_2,6,16,-1,-1,1.305,-0.108451359,-0.269045036,1,0,0,1.945,Basalt_rect,2,1.945,0,9,0,9,0,1,,,,,,,,,,,,,
662a2584d928ede39a60cdb1,TCR,2024-06-25_17h51.49.388,LearnStrategy,2023.2.3,MacIntel,142.8571429,1,1,11,-0.045020275,-0.016949685,1,0,0,1.28,rock_grid_rect_2,8,02,-1,-1,1.28,-0.394610632,-0.2669778,1,0,0,4.051,Andesite_rect,1,4.051,0,10,0,10,0,1,,,,,,,,,,,,,
662a2584d928ede39a60cdb1,TCR,2024-06-25_17h51.49.388,LearnStrategy,2023.2.3,MacIntel,142.8571429,1,1,12,0.111601827,-0.009296776,1,0,0,0.872,rock_grid_rect_2,8,04,-1,-1,0.872,-0.079977244,-0.384702781,1,0,0,0.929,Pegmatite_rect,6,0.929,0,11,0,11,0,1,,,,,,,,,,,,,
662a2584d928ede39a60cdb1,TCR,2024-06-25_17h51.49.388,LearnStrategy,2023.2.3,MacIntel,142.8571429,1,1,13,0.083032619,-0.014423522,1,0,0,1.148,rock_grid_rect_2,1,14,-1,-1,1.148,-0.313450929,-0.251552081,1,0,0,3.179,Andesite_rect,1,3.179,1,12,0,12,0,1,,,,,,,,,,,,,
662a2584d928ede39a60cdb1,TCR,2024-06-25_17h51.49.388,LearnStrategy,2023.2.3,MacIntel,142.8571429,1,1,14,0.009794566,-0.013604897,1,0,0,0.957,rock_grid_rect_2,7,14,-1,-1,0.957,0.101790723,-0.421565741,1,0,0,4.467,Peridotite_rect,7,4.467,1,13,0,13,0,1,,,,,,,,,,,,,
662a2584d928ede39a60cdb1,TCR,2024-06-25_17h51.49.388,LearnStrategy,2023.2.3,MacIntel,142.8571429,1,1,15,0.032480419,0.013260908,1,0,0,1.039,rock_grid_rect_2,5,11,-1,-1,1.039,-0.378233985,-0.390474505,1,0,0,1.095,Obsidian_rect,5,1.095,1,14,0,14,0,1,,,,,,,,,,,,,
662a2584d928ede39a60cdb1,TCR,2024-06-25_17h51.49.388,LearnStrategy,2023.2.3,MacIntel,142.8571429,1,1,16,0.056385941,-0.014688128,1,0,0,1.056,rock_grid_rect_2,2,06,-1,-1,1.056,-0.162674971,-0.234761987,1,0,0,2.719,Basalt_rect,2,2.719,1,15,0,15,0,1,,,,,,,,,,,,,
662a2584d928ede39a60cdb1,TCR,2024-06-25_17h51.49.388,LearnStrategy,2023.2.3,MacIntel,142.8571429,1,2,1,,,,,,,,1,11,,,,,,,,,,,2,3.698,0,,,,,,-0.150552696,-0.253631721,1,0,0,3.698,Basalt_rect,0,0,0,0,1,
662a2584d928ede39a60cdb1,TCR,2024-06-25_17h51.49.388,LearnStrategy,2023.2.3,MacIntel,142.8571429,1,2,2,,,,,,,,2,02,,,,,,,,,,,2,1.751,1,,,,,,-0.127978474,-0.249381483,1,0,0,1.751,Basalt_rect,1,0,1,0,1,
662a2584d928ede39a60cdb1,TCR,2024-06-25_17h51.49.388,LearnStrategy,2023.2.3,MacIntel,142.8571429,1,2,3,,,,,,,,1,04,,,,,,,,,,,1,1.713,1,,,,,,-0.378490322,-0.238206003,1,0,0,1.713,Andesite_rect,2,0,2,0,1,
662a2584d928ede39a60cdb1,TCR,2024-06-25_17h51.49.388,LearnStrategy,2023.2.3,MacIntel,142.8571429,1,2,4,,,,,,,,5,04,,,,,,,,,,,5,0.994,1,,,,,,-0.373165121,-0.410477085,1,0,0,0.994,Obsidian_rect,3,0,3,0,1,
662a2584d928ede39a60cdb1,TCR,2024-06-25_17h51.49.388,LearnStrategy,2023.2.3,MacIntel,142.8571429,1,2,5,,,,,,,,5,14,,,,,,,,,,,5,1.043,1,,,,,,-0.35344782,-0.400880973,1,0,0,1.043,Obsidian_rect,4,0,4,0,1,
662a2584d928ede39a60cdb1,TCR,2024-06-25_17h51.49.388,LearnStrategy,2023.2.3,MacIntel,142.8571429,1,2,6,,,,,,,,7,12,,,,,,,,,,,7,2.335,1,,,,,,0.109852945,-0.413342275,1,0,0,2.335,Peridotite_rect,5,0,5,0,1,
662a2584d928ede39a60cdb1,TCR,2024-06-25_17h51.49.388,LearnStrategy,2023.2.3,MacIntel,142.8571429,1,2,7,,,,,,,,8,08,,,,,,,,,,,4,2.049,0,,,,,,0.429129346,-0.266221191,1,0,0,2.049,Gabbro_rect,6,0,6,0,1,
662a2584d928ede39a60cdb1,TCR,2024-06-25_17h51.49.388,LearnStrategy,2023.2.3,MacIntel,142.8571429,1,2,8,,,,,,,,3,14,,,,,,,,,,,1,1.617,0,,,,,,-0.383005166,-0.261735288,1,0,0,1.617,Andesite_rect,7,0,7,0,1,
662a2584d928ede39a60cdb1,TCR,2024-06-25_17h51.49.388,LearnStrategy,2023.2.3,MacIntel,142.8571429,1,2,9,,,,,,,,6,07,,,,,,,,,,,3,2.325,0,,,,,,0.147914903,-0.262797847,1,0,0,2.325,Diorite_rect,8,0,8,0,1,
662a2584d928ede39a60cdb1,TCR,2024-06-25_17h51.49.388,LearnStrategy,2023.2.3,MacIntel,142.8571429,1,2,10,,,,,,,,2,08,,,,,,,,,,,2,2.177,1,,,,,,-0.215654107,-0.249385617,1,0,0,2.177,Basalt_rect,9,0,9,0,1,
662a2584d928ede39a60cdb1,TCR,2024-06-25_17h51.49.388,LearnStrategy,2023.2.3,MacIntel,142.8571429,1,2,11,,,,,,,,8,13,,,,,,,,,,,8,2.099,1,,,,,,0.426640393,-0.404610268,1,0,0,2.099,Pumice_rect,10,0,10,0,1,
662a2584d928ede39a60cdb1,TCR,2024-06-25_17h51.49.388,LearnStrategy,2023.2.3,MacIntel,142.8571429,1,2,12,,,,,,,,7,16,,,,,,,,,,,6,1.948,0,,,,,,-0.153111935,-0.408579362,1,0,0,1.948,Pegmatite_rect,11,0,11,0,1,
662a2584d928ede39a60cdb1,TCR,2024-06-25_17h51.49.388,LearnStrategy,2023.2.3,MacIntel,142.8571429,1,2,13,,,,,,,,4,12,,,,,,,,,,,3,2.192,0,,,,,,0.221847547,-0.271889553,1,0,0,2.192,Diorite_rect,12,0,12,0,1,
662a2584d928ede39a60cdb1,TCR,2024-06-25_17h51.49.388,LearnStrategy,2023.2.3,MacIntel,142.8571429,1,2,14,,,,,,,,3,11,,,,,,,,,,,7,1.657,0,,,,,,0.153380676,-0.415426049,1,0,0,1.657,Peridotite_rect,13,0,13,0,1,
662a2584d928ede39a60cdb1,TCR,2024-06-25_17h51.49.388,LearnStrategy,2023.2.3,MacIntel,142.8571429,1,2,15,,,,,,,,4,08,,,,,,,,,,,6,1.032,0,,,,,,-0.027022915,-0.40730181,1,0,0,1.032,Pegmatite_rect,14,0,14,0,1,
662a2584d928ede39a60cdb1,TCR,2024-06-25_17h51.49.388,LearnStrategy,2023.2.3,MacIntel,142.8571429,1,2,16,,,,,,,,6,13,,,,,,,,,,,8,2.216,0,,,,,,0.41412121,-0.411080718,1,0,0,2.216,Pumice_rect,15,0,15,0,1,
662a2584d928ede39a60cdb1,TCR,2024-06-25_17h51.49.388,LearnStrategy,2023.2.3,MacIntel,142.8571429,2,1,1,-0.050333073,0.012632469,1,0,0,1.33,rock_grid_rect_2,6,15,-1,-1,1.33,-0.457677882,-0.228250192,1,0,0,7.25,Andesite_rect,1,7.25,0,0,0,0,0,1,,,,,,,,,,,,,
662a2584d928ede39a60cdb1,TCR,2024-06-25_17h51.49.388,LearnStrategy,2023.2.3,MacIntel,142.8571429,2,1,2,-0.021056871,0.003263753,1,0,0,1.415,rock_grid_rect_2,2,16,-1,-1,1.415,-0.152322251,-0.237813228,1,0,0,1.2,Basalt_rect,2,1.2,1,1,0,1,0,1,,,,,,,,,,,,,
662a2584d928ede39a60cdb1,TCR,2024-06-25_17h51.49.388,LearnStrategy,2023.2.3,MacIntel,142.8571429,2,1,3,-0.030855571,0.011540968,1,0,0,0.857,rock_grid_rect_2,3,08,-1,-1,0.857,-0.461101225,-0.233596065,1,0,0,1.676,Andesite_rect,1,1.676,0,2,0,2,0,1,,,,,,,,,,,,,
662a2584d928ede39a60cdb1,TCR,2024-06-25_17h51.49.388,LearnStrategy,2023.2.3,MacIntel,142.8571429,2,1,4,0.115521307,0.008092817,1,0,0,1.049,rock_grid_rect_2,8,06,-1,-1,1.049,0.404165399,-0.261036562,1,0,0,1.263,Gabbro_rect,4,1.263,0,3,0,3,0,1,,,,,,,,,,,,,
662a2584d928ede39a60cdb1,TCR,2024-06-25_17h51.49.388,LearnStrategy,2023.2.3,MacIntel,142.8571429,2,1,5,0.033208086,-0.020898107,1,0,0,0.981,rock_grid_rect_2,6,16,-1,-1,0.981,-0.055290306,-0.40036003,1,0,0,1.301,Pegmatite_rect,6,1.301,1,4,0,4,0,1,,,,,,,,,,,,,
662a2584d928ede39a60cdb1,TCR,2024-06-25_17h51.49.388,LearnStrategy,2023.2.3,MacIntel,142.8571429,2,1,6,-0.024368583,-0.01949652,1,0,0,0.982,rock_grid_rect_2,7,02,-1,-1,0.982,0.127585699,-0.418961023,1,0,0,2.077,Peridotite_rect,7,2.077,1,5,0,5,0,1,,,,,,,,,,,,,
662a2584d928ede39a60cdb1,TCR,2024-06-25_17h51.49.388,LearnStrategy,2023.2.3,MacIntel,142.8571429,2,1,7,0.027076663,-0.000643324,1,0,0,0.998,rock_grid_rect_2,4,15,-1,-1,0.998,-0.163944254,-0.243704852,1,0,0,1.136,Basalt_rect,2,1.136,0,6,0,6,0,1,,,,,,,,,,,,,
662a2584d928ede39a60cdb1,TCR,2024-06-25_17h51.49.388,LearnStrategy,2023.2.3,MacIntel,142.8571429,2,1,8,0.022185582,-0.009433213,1,0,0,0.847,rock_grid_rect_2,8,16,-1,-1,0.847,0.363205176,-0.400823091,1,0,0,3.271,Pumice_rect,8,3.271,1,7,0,7,0,1,,,,,,,,,,,,,
662a2584d928ede39a60cdb1,TCR,2024-06-25_17h51.49.388,LearnStrategy,2023.2.3,MacIntel,142.8571429,2,1,9,0.062323045,-0.009945888,1,0,0,0.941,rock_grid_rect_2,1,07,-1,-1,0.941,0.137954957,-0.250067805,1,0,0,1.886,Diorite_rect,3,1.886,0,8,0,8,0,1,,,,,,,,,,,,,
662a2584d928ede39a60cdb1,TCR,2024-06-25_17h51.49.388,LearnStrategy,2023.2.3,MacIntel,142.8571429,2,1,10,0.025745363,-0.009763971,1,0,0,1.007,rock_grid_rect_2,3,07,-1,-1,1.007,0.088105618,-0.270186151,1,0,0,1.494,Diorite_rect,3,1.494,1,9,0,9,0,1,,,,,,,,,,,,,
662a2584d928ede39a60cdb1,TCR,2024-06-25_17h51.49.388,LearnStrategy,2023.2.3,MacIntel,142.8571429,2,1,11,-0.013937308,-0.001676942,1,0,0,0.923,rock_grid_rect_2,3,10,-1,-1,0.923,0.077715687,-0.269309642,1,0,0,1.884,Diorite_rect,3,1.884,1,10,0,10,0,1,,,,,,,,,,,,,
662a2584d928ede39a60cdb1,TCR,2024-06-25_17h51.49.388,LearnStrategy,2023.2.3,MacIntel,142.8571429,2,1,12,0.002480684,-0.00702695,1,0,0,0.715,rock_grid_rect_2,4,05,-1,-1,0.715,-0.320868173,-0.243299673,1,0,0,2.369,Andesite_rect,1,2.369,0,11,0,11,0,1,,,,,,,,,,,,,
662a2584d928ede39a60cdb1,TCR,2024-06-25_17h51.49.388,LearnStrategy,2023.2.3,MacIntel,142.8571429,2,1,13,0.023583033,0.012822654,1,0,0,0.754,rock_grid_rect_2,4,11,-1,-1,0.754,-0.156965264,-0.239446344,1,0,0,1.195,Basalt_rect,2,1.195,0,12,0,12,0,1,,,,,,,,,,,,,
662a2584d928ede39a60cdb1,TCR,2024-06-25_17h51.49.388,LearnStrategy,2023.2.3,MacIntel,142.8571429,2,1,14,-0.06039638,-0.010222898,1,0,0,0.947,rock_grid_rect_2,7,10,-1,-1,0.947,0.086108667,-0.265386027,1,0,0,1.104,Diorite_rect,3,1.104,0,13,0,13,0,1,,,,,,,,,,,,,
662a2584d928ede39a60cdb1,TCR,2024-06-25_17h51.49.388,LearnStrategy,2023.2.3,MacIntel,142.8571429,2,1,15,-0.046657527,-0.009825988,1,0,0,0.836,rock_grid_rect_2,1,03,-1,-1,0.836,-0.138273312,-0.25736515,1,0,0,1.17,Basalt_rect,2,1.17,0,14,0,14,0,1,,,,,,,,,,,,,
662a2584d928ede39a60cdb1,TCR,2024-06-25_17h51.49.388,LearnStrategy,2023.2.3,MacIntel,142.8571429,2,1,16,0.060495608,-0.022138449,1,0,0,0.88,rock_grid_rect_2,6,16,-1,-1,0.88,-0.160479566,-0.387828443,1,0,0,2.018,Pegmatite_rect,6,2.018,1,15,0,15,0,1,,,,,,,,,,,,,
662a2584d928ede39a60cdb1,TCR,2024-06-25_17h51.49.388,LearnStrategy,2023.2.3,MacIntel,142.8571429,2,2,1,,,,,,,,6,08,,,,,,,,,,,1,3.753,0,,,,,,-0.367070908,-0.265001521,1,0,0,3.753,Andesite_rect,0,0,0,0,1,
662a2584d928ede39a60cdb1,TCR,2024-06-25_17h51.49.388,LearnStrategy,2023.2.3,MacIntel,142.8571429,2,2,2,,,,,,,,5,05,,,,,,,,,,,5,1.093,1,,,,,,-0.326995462,-0.401757482,1,0,0,1.093,Obsidian_rect,1,0,1,0,1,
662a2584d928ede39a60cdb1,TCR,2024-06-25_17h51.49.388,LearnStrategy,2023.2.3,MacIntel,142.8571429,2,2,3,,,,,,,,3,02,,,,,,,,,,,3,2.527,1,,,,,,0.126506602,-0.258295406,1,0,0,2.527,Diorite_rect,2,0,2,0,1,
662a2584d928ede39a60cdb1,TCR,2024-06-25_17h51.49.388,LearnStrategy,2023.2.3,MacIntel,142.8571429,2,2,4,,,,,,,,5,12,,,,,,,,,,,5,2.033,1,,,,,,-0.32928596,-0.386542621,1,0,0,2.033,Obsidian_rect,3,0,3,0,1,
662a2584d928ede39a60cdb1,TCR,2024-06-25_17h51.49.388,LearnStrategy,2023.2.3,MacIntel,142.8571429,2,2,5,,,,,,,,2,01,,,,,,,,,,,2,1.482,1,,,,,,-0.087212571,-0.267068758,1,0,0,1.482,Basalt_rect,4,0,4,0,1,
662a2584d928ede39a60cdb1,TCR,2024-06-25_17h51.49.388,LearnStrategy,2023.2.3,MacIntel,142.8571429,2,2,6,,,,,,,,4,14,,,,,,,,,,,4,1.351,1,,,,,,0.454659716,-0.250630094,1,0,0,1.351,Gabbro_rect,5,0,5,0,1,
662a2584d928ede39a60cdb1,TCR,2024-06-25_17h51.49.388,LearnStrategy,2023.2.3,MacIntel,142.8571429,2,2,7,,,,,,,,6,11,,,,,,,,,,,8,2.285,0,,,,,,0.357999874,-0.411031104,1,0,0,2.285,Pumice_rect,6,0,6,0,1,
662a2584d928ede39a60cdb1,TCR,2024-06-25_17h51.49.388,LearnStrategy,2023.2.3,MacIntel,142.8571429,2,2,8,,,,,,,,1,06,,,,,,,,,,,7,2.875,0,,,,,,0.152818387,-0.410282765,1,0,0,2.875,Peridotite_rect,7,0,7,0,1,
662a2584d928ede39a60cdb1,TCR,2024-06-25_17h51.49.388,LearnStrategy,2023.2.3,MacIntel,142.8571429,2,2,9,,,,,,,,7,07,,,,,,,,,,,1,1.248,0,,,,,,-0.385973718,-0.269284835,1,0,0,1.248,Andesite_rect,8,0,8,0,1,
662a2584d928ede39a60cdb1,TCR,2024-06-25_17h51.49.388,LearnStrategy,2023.2.3,MacIntel,142.8571429,2,2,10,,,,,,,,1,10,,,,,,,,,,,2,1.169,0,,,,,,-0.105524152,-0.26364128,1,0,0,1.169,Basalt_rect,9,0,9,0,1,
662a2584d928ede39a60cdb1,TCR,2024-06-25_17h51.49.388,LearnStrategy,2023.2.3,MacIntel,142.8571429,2,2,11,,,,,,,,4,13,,,,,,,,,,,4,1.185,1,,,,,,0.383753506,-0.235241586,1,0,0,1.185,Gabbro_rect,10,0,10,0,1,
662a2584d928ede39a60cdb1,TCR,2024-06-25_17h51.49.388,LearnStrategy,2023.2.3,MacIntel,142.8571429,2,2,12,,,,,,,,3,09,,,,,,,,,,,3,1.889,1,,,,,,0.085124663,-0.256281918,1,0,0,1.889,Diorite_rect,11,0,11,0,1,
662a2584d928ede39a60cdb1,TCR,2024-06-25_17h51.49.388,LearnStrategy,2023.2.3,MacIntel,142.8571429,2,2,13,,,,,,,,8,05,,,,,,,,,,,8,1.08,1,,,,,,0.443198957,-0.406586546,1,0,0,1.08,Pumice_rect,12,0,12,0,1,
662a2584d928ede39a60cdb1,TCR,2024-06-25_17h51.49.388,LearnStrategy,2023.2.3,MacIntel,142.8571429,2,2,14,,,,,,,,7,08,,,,,,,,,,,1,2.837,0,,,,,,-0.348949513,-0.235175434,1,0,0,2.837,Andesite_rect,13,0,13,0,1,
662a2584d928ede39a60cdb1,TCR,2024-06-25_17h51.49.388,LearnStrategy,2023.2.3,MacIntel,142.8571429,2,2,15,,,,,,,,2,12,,,,,,,,,,,2,0.883,1,,,,,,-0.125642497,-0.255434351,1,0,0,0.883,Basalt_rect,14,0,14,0,1,
662a2584d928ede39a60cdb1,TCR,2024-06-25_17h51.49.388,LearnStrategy,2023.2.3,MacIntel,142.8571429,2,2,16,,,,,,,,8,09,,,,,,,,,,,8,1.191,1,,,,,,0.346286913,-0.39950006,1,0,0,1.191,Pumice_rect,15,0,15,0,1,
662a2584d928ede39a60cdb1,TCR,2024-06-25_17h51.49.388,LearnStrategy,2023.2.3,MacIntel,142.8571429,3,1,1,0.015442256,0.019809913,1,0,0,0.833,rock_grid_rect_2,3,08,-1,-1,0.833,0.062116321,-0.247128195,1,0,0,1.258,Diorite_rect,3,1.258,1,0,0,0,0,1,,,,,,,,,,,,,
662a2584d928ede39a60cdb1,TCR,2024-06-25_17h51.49.388,LearnStrategy,2023.2.3,MacIntel,142.8571429,3,1,2,0.163460521,0.012359593,1,0,0,1.112,rock_grid_rect_2,1,14,-1,-1,1.112,-0.101431024,-0.241033982,1,0,0,2.827,Basalt_rect,2,2.827,0,1,0,1,0,1,,,,,,,,,,,,,
662a2584d928ede39a60cdb1,TCR,2024-06-25_17h51.49.388,LearnStrategy,2023.2.3,MacIntel,142.8571429,3,1,3,0.160008236,0.012868133,1,0,0,0.819,rock_grid_rect_2,4,11,-1,-1,0.819,-0.13499054,-0.232913877,1,0,0,0.867,Basalt_rect,2,0.867,0,2,0,2,0,1,,,,,,,,,,,,,
662a2584d928ede39a60cdb1,TCR,2024-06-25_17h51.49.388,LearnStrategy,2023.2.3,MacIntel,142.8571429,3,1,4,0.141188115,-0.012877229,1,0,0,0.932,rock_grid_rect_2,6,10,-1,-1,0.932,0.135974545,-0.416091699,1,0,0,4.303,Peridotite_rect,7,4.303,0,3,0,3,0,1,,,,,,,,,,,,,
662a2584d928ede39a60cdb1,TCR,2024-06-25_17h51.49.388,LearnStrategy,2023.2.3,MacIntel,142.8571429,3,1,5,0.050725848,-0.003281118,1,0,0,1.032,rock_grid_rect_2,2,09,-1,-1,1.032,-0.156258269,-0.242584409,1,0,0,0.912,Basalt_rect,2,0.912,1,4,0,4,0,1,,,,,,,,,,,,,
662a2584d928ede39a60cdb1,TCR,2024-06-25_17h51.49.388,LearnStrategy,2023.2.3,MacIntel,142.8571429,3,1,6,0.106772763,0.003255484,1,0,0,1.003,rock_grid_rect_2,6,03,-1,-1,1.003,0.15021367,-0.390689498,1,0,0,1.575,Peridotite_rect,7,1.575,0,5,0,5,0,1,,,,,,,,,,,,,
662a2584d928ede39a60cdb1,TCR,2024-06-25_17h51.49.388,LearnStrategy,2023.2.3,MacIntel,142.8571429,3,1,7,0.128668931,0.005202821,1,0,0,0.937,rock_grid_rect_2,4,16,-1,-1,0.937,0.434413203,-0.271166021,1,0,0,1.643,Gabbro_rect,4,1.643,1,6,0,6,0,1,,,,,,,,,,,,,
662a2584d928ede39a60cdb1,TCR,2024-06-25_17h51.49.388,LearnStrategy,2023.2.3,MacIntel,142.8571429,3,1,8,0.149295817,-0.010338663,1,0,0,0.895,rock_grid_rect_2,1,07,-1,-1,0.895,0.112643714,-0.264286258,1,0,0,0.894,Diorite_rect,3,0.894,0,7,0,7,0,1,,,,,,,,,,,,,
662a2584d928ede39a60cdb1,TCR,2024-06-25_17h51.49.388,LearnStrategy,2023.2.3,MacIntel,142.8571429,3,1,9,0.175909419,0.011772498,1,0,0,0.89,rock_grid_rect_2,7,15,-1,-1,0.89,-0.354121739,-0.262847461,1,0,0,1.031,Andesite_rect,1,1.031,0,8,0,8,0,1,,,,,,,,,,,,,
662a2584d928ede39a60cdb1,TCR,2024-06-25_17h51.49.388,LearnStrategy,2023.2.3,MacIntel,142.8571429,3,1,10,0.147054932,-0.022163255,1,0,0,0.964,rock_grid_rect_2,1,03,-1,-1,0.964,-0.112780152,-0.230110705,1,0,0,0.93,Basalt_rect,2,0.93,0,9,0,9,0,1,,,,,,,,,,,,,
662a2584d928ede39a60cdb1,TCR,2024-06-25_17h51.49.388,LearnStrategy,2023.2.3,MacIntel,142.8571429,3,1,11,0.0997731,-0.006617637,1,0,0,1.057,rock_grid_rect_2,7,15,-1,-1,1.057,0.132257654,-0.24438704,1,0,0,1.612,Diorite_rect,3,1.612,0,10,0,10,0,1,,,,,,,,,,,,,
662a2584d928ede39a60cdb1,TCR,2024-06-25_17h51.49.388,LearnStrategy,2023.2.3,MacIntel,142.8571429,3,1,12,0.10381248,0.007555336,1,0,0,0.756,rock_grid_rect_2,6,16,-1,-1,0.756,-0.179998412,-0.414843088,1,0,0,1.201,Pegmatite_rect,6,1.201,1,11,0,11,0,1,,,,,,,,,,,,,
662a2584d928ede39a60cdb1,TCR,2024-06-25_17h51.49.388,LearnStrategy,2023.2.3,MacIntel,142.8571429,3,1,13,0.089271539,-0.018897022,1,0,0,1.006,rock_grid_rect_2,6,05,-1,-1,1.006,-0.079729175,-0.416021413,1,0,0,2.979,Pegmatite_rect,6,2.979,1,12,0,12,0,1,,,,,,,,,,,,,
662a2584d928ede39a60cdb1,TCR,2024-06-25_17h51.49.388,LearnStrategy,2023.2.3,MacIntel,142.8571429,3,1,14,0.00776454,0.005256569,1,0,0,1.14,rock_grid_rect_2,8,16,-1,-1,1.14,0.382529702,-0.41777443,1,0,0,0.955,Pumice_rect,8,0.955,1,13,0,13,0,1,,,,,,,,,,,,,
662a2584d928ede39a60cdb1,TCR,2024-06-25_17h51.49.388,LearnStrategy,2023.2.3,MacIntel,142.8571429,3,1,15,0.152615798,-0.008610453,1,0,0,0.874,rock_grid_rect_2,7,02,-1,-1,0.874,0.347622347,-0.24422993,1,0,0,1.519,Gabbro_rect,4,1.519,0,14,0,14,0,1,,,,,,,,,,,,,
662a2584d928ede39a60cdb1,TCR,2024-06-25_17h51.49.388,LearnStrategy,2023.2.3,MacIntel,142.8571429,3,1,16,0.0880436,0.002928861,1,0,0,1.011,rock_grid_rect_2,3,07,-1,-1,1.011,0.150771823,-0.252883381,1,0,0,1.694,Diorite_rect,3,1.694,1,15,0,15,0,1,,,,,,,,,,,,,
662a2584d928ede39a60cdb1,TCR,2024-06-25_17h51.49.388,LearnStrategy,2023.2.3,MacIntel,142.8571429,3,2,1,,,,,,,,1,16,,,,,,,,,,,1,3.778,1,,,,,,-0.327983601,-0.228452781,1,0,0,3.778,Andesite_rect,0,0,0,0,1,
662a2584d928ede39a60cdb1,TCR,2024-06-25_17h51.49.388,LearnStrategy,2023.2.3,MacIntel,142.8571429,3,2,2,,,,,,,,4,09,,,,,,,,,,,2,3.534,0,,,,,,-0.128892193,-0.243419573,1,0,0,3.534,Basalt_rect,1,0,1,0,1,
662a2584d928ede39a60cdb1,TCR,2024-06-25_17h51.49.388,LearnStrategy,2023.2.3,MacIntel,142.8571429,3,2,3,,,,,,,,7,04,,,,,,,,,,,7,2.066,1,,,,,,0.085099856,-0.402418997,1,0,0,2.066,Peridotite_rect,2,0,2,0,1,
662a2584d928ede39a60cdb1,TCR,2024-06-25_17h51.49.388,LearnStrategy,2023.2.3,MacIntel,142.8571429,3,2,4,,,,,,,,3,15,,,,,,,,,,,4,2.544,0,,,,,,0.34065576,-0.250692111,1,0,0,2.544,Gabbro_rect,3,0,3,0,1,
662a2584d928ede39a60cdb1,TCR,2024-06-25_17h51.49.388,LearnStrategy,2023.2.3,MacIntel,142.8571429,3,2,5,,,,,,,,7,06,,,,,,,,,,,6,1.958,0,,,,,,-0.133518668,-0.412999114,1,0,0,1.958,Pegmatite_rect,4,0,4,0,1,
662a2584d928ede39a60cdb1,TCR,2024-06-25_17h51.49.388,LearnStrategy,2023.2.3,MacIntel,142.8571429,3,2,6,,,,,,,,6,12,,,,,,,,,,,6,1.652,1,,,,,,-0.104143238,-0.402981286,1,0,0,1.652,Pegmatite_rect,5,0,5,0,1,
662a2584d928ede39a60cdb1,TCR,2024-06-25_17h51.49.388,LearnStrategy,2023.2.3,MacIntel,142.8571429,3,2,7,,,,,,,,3,12,,,,,,,,,,,8,1.437,0,,,,,,0.348300401,-0.409468274,1,0,0,1.437,Pumice_rect,6,0,6,0,1,
662a2584d928ede39a60cdb1,TCR,2024-06-25_17h51.49.388,LearnStrategy,2023.2.3,MacIntel,142.8571429,3,2,8,,,,,,,,1,02,,,,,,,,,,,2,1.272,0,,,,,,-0.188325241,-0.249472441,1,0,0,1.272,Basalt_rect,7,0,7,0,1,
662a2584d928ede39a60cdb1,TCR,2024-06-25_17h51.49.388,LearnStrategy,2023.2.3,MacIntel,142.8571429,3,2,9,,,,,,,,8,14,,,,,,,,,,,8,1.083,1,,,,,,0.382947284,-0.41985407,1,0,0,1.083,Pumice_rect,8,0,8,0,1,
662a2584d928ede39a60cdb1,TCR,2024-06-25_17h51.49.388,LearnStrategy,2023.2.3,MacIntel,142.8571429,3,2,10,,,,,,,,2,10,,,,,,,,,,,2,1.927,1,,,,,,-0.186911251,-0.257009585,1,0,0,1.927,Basalt_rect,9,0,9,0,1,
662a2584d928ede39a60cdb1,TCR,2024-06-25_17h51.49.388,LearnStrategy,2023.2.3,MacIntel,142.8571429,3,2,11,,,,,,,,8,03,,,,,,,,,,,8,1.374,1,,,,,,0.440304826,-0.416757349,1,0,0,1.374,Pumice_rect,10,0,10,0,1,
662a2584d928ede39a60cdb1,TCR,2024-06-25_17h51.49.388,LearnStrategy,2023.2.3,MacIntel,142.8571429,3,2,12,,,,,,,,5,07,,,,,,,,,,,5,1.032,1,,,,,,-0.382608257,-0.39224406,1,0,0,1.032,Obsidian_rect,11,0,11,0,1,
662a2584d928ede39a60cdb1,TCR,2024-06-25_17h51.49.388,LearnStrategy,2023.2.3,MacIntel,142.8571429,3,2,13,,,,,,,,4,01,,,,,,,,,,,1,1.887,0,,,,,,-0.374045764,-0.269429542,1,0,0,1.887,Andesite_rect,12,0,12,0,1,
662a2584d928ede39a60cdb1,TCR,2024-06-25_17h51.49.388,LearnStrategy,2023.2.3,MacIntel,142.8571429,3,2,14,,,,,,,,6,09,,,,,,,,,,,7,4.282,0,,,,,,0.089995072,-0.399570346,1,0,0,4.282,Peridotite_rect,13,0,13,0,1,
662a2584d928ede39a60cdb1,TCR,2024-06-25_17h51.49.388,LearnStrategy,2023.2.3,MacIntel,142.8571429,3,2,15,,,,,,,,2,14,,,,,,,,,,,4,2.826,0,,,,,,0.381628387,-0.254173337,1,0,0,2.826,Gabbro_rect,14,0,14,0,1,
662a2584d928ede39a60cdb1,TCR,2024-06-25_17h51.49.388,LearnStrategy,2023.2.3,MacIntel,142.8571429,3,2,16,,,,,,,,5,16,,,,,,,,,,,5,0.909,1,,,,,,-0.359897597,-0.388857926,1,0,0,0.909,Obsidian_rect,15,0,15,0,1,
662a2584d928ede39a60cdb1,TCR,2024-06-25_17h51.49.388,LearnStrategy,2023.2.3,MacIntel,142.8571429,4,1,1,0.010199745,0.003830176,1,0,0,7.707,rock_grid_rect_2,1,03,-1,-1,7.707,-0.341809278,-0.253147988,1,0,0,1.95,Andesite_rect,1,1.95,1,0,0,0,0,1,,,,,,,,,,,,,
662a2584d928ede39a60cdb1,TCR,2024-06-25_17h51.49.388,LearnStrategy,2023.2.3,MacIntel,142.8571429,4,1,2,-0.039447006,0.000993927,1,0,0,1.249,rock_grid_rect_2,4,15,-1,-1,1.249,0.400618021,-0.232504564,1,0,0,2.443,Gabbro_rect,4,2.443,1,1,0,1,0,1,,,,,,,,,,,,,
662a2584d928ede39a60cdb1,TCR,2024-06-25_17h51.49.388,LearnStrategy,2023.2.3,MacIntel,142.8571429,4,1,3,0.065663699,-0.002917284,1,0,0,0.79,rock_grid_rect_2,3,13,-1,-1,0.79,0.084020758,-0.245652188,1,0,0,2.685,Diorite_rect,3,2.685,1,2,0,2,0,1,,,,,,,,,,,,,
662a2584d928ede39a60cdb1,TCR,2024-06-25_17h51.49.388,LearnStrategy,2023.2.3,MacIntel,142.8571429,4,1,4,0.038892987,-0.001784439,1,0,0,1.197,rock_grid_rect_2,6,16,-1,-1,1.197,-0.06737537,-0.421991592,1,0,0,1.489,Pegmatite_rect,6,1.489,1,3,0,3,0,1,,,,,,,,,,,,,
662a2584d928ede39a60cdb1,TCR,2024-06-25_17h51.49.388,LearnStrategy,2023.2.3,MacIntel,142.8571429,4,1,5,0.07361429,-0.018690298,1,0,0,0.956,rock_grid_rect_2,7,13,-1,-1,0.956,0.106843049,-0.412234236,1,0,0,3.467,Peridotite_rect,7,3.467,1,4,0,4,0,1,,,,,,,,,,,,,
662a2584d928ede39a60cdb1,TCR,2024-06-25_17h51.49.388,LearnStrategy,2023.2.3,MacIntel,142.8571429,4,1,6,0.162629492,0.0079109,1,0,0,0.779,rock_grid_rect_2,6,15,-1,-1,0.779,0.190111333,-0.391561872,1,0,0,1.795,Peridotite_rect,7,1.795,0,5,0,5,0,1,,,,,,,,,,,,,
662a2584d928ede39a60cdb1,TCR,2024-06-25_17h51.49.388,LearnStrategy,2023.2.3,MacIntel,142.8571429,4,1,7,0.037503804,-0.013174911,1,0,0,0.929,rock_grid_rect_2,1,03,-1,-1,0.929,-0.3658347,-0.242753923,1,0,0,1.809,Andesite_rect,1,1.809,1,6,0,6,0,1,,,,,,,,,,,,,
662a2584d928ede39a60cdb1,TCR,2024-06-25_17h51.49.388,LearnStrategy,2023.2.3,MacIntel,142.8571429,4,1,8,0.060706466,-0.013745469,1,0,0,0.939,rock_grid_rect_2,7,02,-1,-1,0.939,0.030446258,-0.402638124,1,0,0,3.643,Peridotite_rect,7,3.643,1,7,0,7,0,1,,,,,,,,,,,,,
662a2584d928ede39a60cdb1,TCR,2024-06-25_17h51.49.388,LearnStrategy,2023.2.3,MacIntel,142.8571429,4,1,9,0.040145732,0.003495283,1,0,0,0.842,rock_grid_rect_2,4,10,-1,-1,0.842,-0.075979209,-0.269359256,1,0,0,2.632,Basalt_rect,2,2.632,0,8,0,8,0,1,,,,,,,,,,,,,
662a2584d928ede39a60cdb1,TCR,2024-06-25_17h51.49.388,LearnStrategy,2023.2.3,MacIntel,142.8571429,4,1,10,0.012465436,-0.01078932,1,0,0,0.94,rock_grid_rect_2,6,06,-1,-1,0.94,-0.119891445,-0.398449903,1,0,0,1.467,Pegmatite_rect,6,1.467,1,9,0,9,0,1,,,,,,,,,,,,,
662a2584d928ede39a60cdb1,TCR,2024-06-25_17h51.49.388,LearnStrategy,2023.2.3,MacIntel,142.8571429,4,1,11,-0.025497294,-0.019083073,1,0,0,0.982,rock_grid_rect_2,3,07,-1,-1,0.982,0.374194605,-0.412693163,1,0,0,1.309,Pumice_rect,8,1.309,0,10,0,10,0,1,,,,,,,,,,,,,
662a2584d928ede39a60cdb1,TCR,2024-06-25_17h51.49.388,LearnStrategy,2023.2.3,MacIntel,142.8571429,4,1,12,0.055418475,0.018441403,1,0,0,0.84,rock_grid_rect_2,2,11,-1,-1,0.84,-0.162856888,-0.264104341,1,0,0,1.043,Basalt_rect,2,1.043,1,11,0,11,0,1,,,,,,,,,,,,,
662a2584d928ede39a60cdb1,TCR,2024-06-25_17h51.49.388,LearnStrategy,2023.2.3,MacIntel,142.8571429,4,1,13,0.023057955,-0.010636345,1,0,0,0.806,rock_grid_rect_2,8,02,-1,-1,0.806,0.398418481,-0.4043622,1,0,0,1.161,Pumice_rect,8,1.161,1,12,0,12,0,1,,,,,,,,,,,,,
662a2584d928ede39a60cdb1,TCR,2024-06-25_17h51.49.388,LearnStrategy,2023.2.3,MacIntel,142.8571429,4,1,14,0.083859514,-0.01914509,1,0,0,0.807,rock_grid_rect_2,4,11,-1,-1,0.807,-0.132030258,-0.246206208,1,0,0,1.743,Basalt_rect,2,1.743,0,13,0,13,0,1,,,,,,,,,,,,,
662a2584d928ede39a60cdb1,TCR,2024-06-25_17h51.49.388,LearnStrategy,2023.2.3,MacIntel,142.8571429,4,1,15,0.115847931,-0.022737947,1,0,0,0.789,rock_grid_rect_2,1,09,-1,-1,0.789,-0.386081214,-0.257067468,1,0,0,1.251,Andesite_rect,1,1.251,1,14,0,14,0,1,,,,,,,,,,,,,
662a2584d928ede39a60cdb1,TCR,2024-06-25_17h51.49.388,LearnStrategy,2023.2.3,MacIntel,142.8571429,4,1,16,0.009364581,0.011048965,1,0,0,0.771,rock_grid_rect_2,7,02,-1,-1,0.771,0.117898629,-0.390156151,1,0,0,2.438,Peridotite_rect,7,2.438,1,15,0,15,0,1,,,,,,,,,,,,,
662a2584d928ede39a60cdb1,TCR,2024-06-25_17h51.49.388,LearnStrategy,2023.2.3,MacIntel,142.8571429,4,2,1,,,,,,,,6,08,,,,,,,,,,,6,2.519,1,,,,,,-0.087299395,-0.416513416,1,0,0,2.519,Pegmatite_rect,0,0,0,0,1,
662a2584d928ede39a60cdb1,TCR,2024-06-25_17h51.49.388,LearnStrategy,2023.2.3,MacIntel,142.8571429,4,2,2,,,,,,,,2,08,,,,,,,,,,,2,0.983,1,,,,,,-0.168669957,-0.229680719,1,0,0,0.983,Basalt_rect,1,0,1,0,1,
662a2584d928ede39a60cdb1,TCR,2024-06-25_17h51.49.388,LearnStrategy,2023.2.3,MacIntel,142.8571429,4,2,3,,,,,,,,8,14,,,,,,,,,,,8,0.958,1,,,,,,0.392754254,-0.386344167,1,0,0,0.958,Pumice_rect,2,0,2,0,1,
662a2584d928ede39a60cdb1,TCR,2024-06-25_17h51.49.388,LearnStrategy,2023.2.3,MacIntel,142.8571429,4,2,4,,,,,,,,2,10,,,,,,,,,,,2,1.684,1,,,,,,-0.12738311,-0.266965396,1,0,0,1.684,Basalt_rect,3,0,3,0,1,
662a2584d928ede39a60cdb1,TCR,2024-06-25_17h51.49.388,LearnStrategy,2023.2.3,MacIntel,142.8571429,4,2,5,,,,,,,,8,08,,,,,,,,,,,8,1.683,1,,,,,,0.384001574,-0.396341322,1,0,0,1.683,Pumice_rect,4,0,4,0,1,
662a2584d928ede39a60cdb1,TCR,2024-06-25_17h51.49.388,LearnStrategy,2023.2.3,MacIntel,142.8571429,4,2,6,,,,,,,,3,14,,,,,,,,,,,3,1.066,1,,,,,,0.165209403,-0.259366235,1,0,0,1.066,Diorite_rect,5,0,5,0,1,
662a2584d928ede39a60cdb1,TCR,2024-06-25_17h51.49.388,LearnStrategy,2023.2.3,MacIntel,142.8571429,4,2,7,,,,,,,,7,08,,,,,,,,,,,7,1.66,1,,,,,,0.092938816,-0.378678854,1,0,0,1.66,Peridotite_rect,6,0,6,0,1,
662a2584d928ede39a60cdb1,TCR,2024-06-25_17h51.49.388,LearnStrategy,2023.2.3,MacIntel,142.8571429,4,2,8,,,,,,,,6,12,,,,,,,,,,,7,2.783,0,,,,,,0.147170698,-0.396221423,1,0,0,2.783,Peridotite_rect,7,0,7,0,1,
662a2584d928ede39a60cdb1,TCR,2024-06-25_17h51.49.388,LearnStrategy,2023.2.3,MacIntel,142.8571429,4,2,9,,,,,,,,5,14,,,,,,,,,,,5,1.758,1,,,,,,-0.336513019,-0.40749613,1,0,0,1.758,Obsidian_rect,8,0,8,0,1,
662a2584d928ede39a60cdb1,TCR,2024-06-25_17h51.49.388,LearnStrategy,2023.2.3,MacIntel,142.8571429,4,2,10,,,,,,,,3,11,,,,,,,,,,,3,1.883,1,,,,,,0.112007005,-0.246338511,1,0,0,1.883,Diorite_rect,9,0,9,0,1,
662a2584d928ede39a60cdb1,TCR,2024-06-25_17h51.49.388,LearnStrategy,2023.2.3,MacIntel,142.8571429,4,2,11,,,,,,,,5,05,,,,,,,,,,,5,1.104,1,,,,,,-0.334871633,-0.411068315,1,0,0,1.104,Obsidian_rect,10,0,10,0,1,
662a2584d928ede39a60cdb1,TCR,2024-06-25_17h51.49.388,LearnStrategy,2023.2.3,MacIntel,142.8571429,4,2,12,,,,,,,,4,09,,,,,,,,,,,2,2.517,0,,,,,,-0.085318983,-0.256988913,1,0,0,2.517,Basalt_rect,11,0,11,0,1,
662a2584d928ede39a60cdb1,TCR,2024-06-25_17h51.49.388,LearnStrategy,2023.2.3,MacIntel,142.8571429,4,2,13,,,,,,,,1,10,,,,,,,,,,,1,1.683,1,,,,,,-0.378002454,-0.249968578,1,0,0,1.683,Andesite_rect,12,0,12,0,1,
662a2584d928ede39a60cdb1,TCR,2024-06-25_17h51.49.388,LearnStrategy,2023.2.3,MacIntel,142.8571429,4,2,14,,,,,,,,7,12,,,,,,,,,,,7,1.457,1,,,,,,0.125878162,-0.406995859,1,0,0,1.457,Peridotite_rect,13,0,13,0,1,
662a2584d928ede39a60cdb1,TCR,2024-06-25_17h51.49.388,LearnStrategy,2023.2.3,MacIntel,142.8571429,4,2,15,,,,,,,,1,04,,,,,,,,,,,4,1.692,0,,,,,,0.424606233,-0.256013177,1,0,0,1.692,Gabbro_rect,14,0,14,0,1,
662a2584d928ede39a60cdb1,TCR,2024-06-25_17h51.49.388,LearnStrategy,2023.2.3,MacIntel,142.8571429,4,2,16,,,,,,,,4,08,,,,,,,,,,,1,1.058,0,,,,,,-0.444943705,-0.241736842,1,0,0,1.058,Andesite_rect,15,0,15,0,1,
662a2584d928ede39a60cdb1,TCR,2024-06-25_17h51.49.388,LearnStrategy,2023.2.3,MacIntel,142.8571429,5,1,1,0.040807248,0.007394091,1,0,0,1.489,rock_grid_rect_2,3,10,-1,-1,1.489,0.130760975,-0.266299746,1,0,0,9.146,Diorite_rect,3,9.146,1,0,0,0,0,1,,,,,,,,,,,,,
662a2584d928ede39a60cdb1,TCR,2024-06-25_17h51.49.388,LearnStrategy,2023.2.3,MacIntel,142.8571429,5,1,2,0.06572985,-0.007853845,1,0,0,0.947,rock_grid_rect_2,6,10,-1,-1,0.947,0.048187282,-0.414202245,1,0,0,2.672,Peridotite_rect,7,2.672,0,1,0,1,0,1,,,,,,,,,,,,,
662a2584d928ede39a60cdb1,TCR,2024-06-25_17h51.49.388,LearnStrategy,2023.2.3,MacIntel,142.8571429,5,1,3,-0.013540399,0.005306183,1,0,0,0.922,rock_grid_rect_2,7,05,-1,-1,0.922,-0.356313009,-0.263062454,1,0,0,1.749,Andesite_rect,1,1.749,0,2,0,2,0,1,,,,,,,,,,,,,
662a2584d928ede39a60cdb1,TCR,2024-06-25_17h51.49.388,LearnStrategy,2023.2.3,MacIntel,142.8571429,5,1,4,0.116352336,0.01614677,1,0,0,0.685,rock_grid_rect_2,3,13,-1,-1,0.685,0.096469656,-0.249836275,1,0,0,1.475,Diorite_rect,3,1.475,1,3,0,3,0,1,,,,,,,,,,,,,
662a2584d928ede39a60cdb1,TCR,2024-06-25_17h51.49.388,LearnStrategy,2023.2.3,MacIntel,142.8571429,5,1,5,0.1141652,0.003660662,1,0,0,0.93,rock_grid_rect_2,1,09,-1,-1,0.93,-0.328024946,-0.256091732,1,0,0,1.805,Andesite_rect,1,1.805,1,4,0,4,0,1,,,,,,,,,,,,,
662a2584d928ede39a60cdb1,TCR,2024-06-25_17h51.49.388,LearnStrategy,2023.2.3,MacIntel,142.8571429,5,1,6,-0.053132111,0.010867049,1,0,0,0.914,rock_grid_rect_2,8,02,-1,-1,0.914,0.421823733,-0.388886868,1,0,0,1.062,Pumice_rect,8,1.062,1,5,0,5,0,1,,,,,,,,,,,,,
662a2584d928ede39a60cdb1,TCR,2024-06-25_17h51.49.388,LearnStrategy,2023.2.3,MacIntel,142.8571429,5,1,7,0.031632852,0.000121554,1,0,0,0.68,rock_grid_rect_2,4,05,-1,-1,0.68,0.335603435,-0.2406164,1,0,0,1.361,Gabbro_rect,4,1.361,1,6,0,6,0,1,,,,,,,,,,,,,
662a2584d928ede39a60cdb1,TCR,2024-06-25_17h51.49.388,LearnStrategy,2023.2.3,MacIntel,142.8571429,5,1,8,0.150345973,-0.019827278,1,0,0,0.875,rock_grid_rect_2,4,11,-1,-1,0.875,-0.117373551,-0.255417813,1,0,0,1.644,Basalt_rect,2,1.644,0,7,0,7,0,1,,,,,,,,,,,,,
662a2584d928ede39a60cdb1,TCR,2024-06-25_17h51.49.388,LearnStrategy,2023.2.3,MacIntel,142.8571429,5,1,9,0.118849558,-0.015271089,1,0,0,0.733,rock_grid_rect_2,1,05,-1,-1,0.733,0.086588266,-0.271732443,1,0,0,1.178,Diorite_rect,3,1.178,0,8,0,8,0,1,,,,,,,,,,,,,
662a2584d928ede39a60cdb1,TCR,2024-06-25_17h51.49.388,LearnStrategy,2023.2.3,MacIntel,142.8571429,5,1,10,-0.040327649,-0.008573243,1,0,0,0.682,rock_grid_rect_2,1,03,-1,-1,0.682,-0.348676638,-0.269847124,1,0,0,1.302,Andesite_rect,1,1.302,1,9,0,9,0,1,,,,,,,,,,,,,
662a2584d928ede39a60cdb1,TCR,2024-06-25_17h51.49.388,LearnStrategy,2023.2.3,MacIntel,142.8571429,5,1,11,0.030661251,0.002755213,1,0,0,3.489,rock_grid_rect_2,4,16,-1,-1,3.489,0.319929648,-0.262082584,1,0,0,1.949,Gabbro_rect,4,1.949,1,10,0,10,0,1,,,,,,,,,,,,,
662a2584d928ede39a60cdb1,TCR,2024-06-25_17h51.49.388,LearnStrategy,2023.2.3,MacIntel,142.8571429,5,1,12,0.142899787,-0.001127057,1,0,0,1.063,rock_grid_rect_2,7,15,-1,-1,1.063,0.104196986,-0.263339463,1,0,0,1.51,Diorite_rect,3,1.51,0,11,0,11,0,1,,,,,,,,,,,,,
662a2584d928ede39a60cdb1,TCR,2024-06-25_17h51.49.388,LearnStrategy,2023.2.3,MacIntel,142.8571429,5,1,13,0.088899436,-0.000630921,1,0,0,0.64,rock_grid_rect_2,6,06,-1,-1,0.64,-0.109117009,-0.403981828,1,0,0,1.459,Pegmatite_rect,6,1.459,1,12,0,12,0,1,,,,,,,,,,,,,
662a2584d928ede39a60cdb1,TCR,2024-06-25_17h51.49.388,LearnStrategy,2023.2.3,MacIntel,142.8571429,5,1,14,0.006929377,-0.015965681,1,0,0,1.08,rock_grid_rect_2,4,10,-1,-1,1.08,0.404756628,-0.228944783,1,0,0,1.276,Gabbro_rect,4,1.276,1,13,0,13,0,1,,,,,,,,,,,,,
662a2584d928ede39a60cdb1,TCR,2024-06-25_17h51.49.388,LearnStrategy,2023.2.3,MacIntel,142.8571429,5,1,15,0.138947231,-0.00734117,1,0,0,0.732,rock_grid_rect_2,2,06,-1,-1,0.732,-0.156225193,-0.233707696,1,0,0,0.978,Basalt_rect,2,0.978,1,14,0,14,0,1,,,,,,,,,,,,,
662a2584d928ede39a60cdb1,TCR,2024-06-25_17h51.49.388,LearnStrategy,2023.2.3,MacIntel,142.8571429,5,1,16,0.061215006,0.006844206,1,0,0,0.664,rock_grid_rect_2,6,03,-1,-1,0.664,-0.029391968,-0.39063575,1,0,0,1.321,Pegmatite_rect,6,1.321,1,15,0,15,0,1,,,,,,,,,,,,,
662a2584d928ede39a60cdb1,TCR,2024-06-25_17h51.49.388,LearnStrategy,2023.2.3,MacIntel,142.8571429,5,2,1,,,,,,,,7,16,,,,,,,,,,,7,7.175,1,,,,,,0.136631926,-0.386852707,1,0,0,7.175,Peridotite_rect,0,0,0,0,1,
662a2584d928ede39a60cdb1,TCR,2024-06-25_17h51.49.388,LearnStrategy,2023.2.3,MacIntel,142.8571429,5,2,2,,,,,,,,4,14,,,,,,,,,,,4,1.539,1,,,,,,0.439535814,-0.263550321,1,0,0,1.539,Gabbro_rect,1,0,1,0,1,
662a2584d928ede39a60cdb1,TCR,2024-06-25_17h51.49.388,LearnStrategy,2023.2.3,MacIntel,142.8571429,5,2,3,,,,,,,,8,09,,,,,,,,,,,8,1.017,1,,,,,,0.42070329,-0.415959396,1,0,0,1.017,Pumice_rect,2,0,2,0,1,
662a2584d928ede39a60cdb1,TCR,2024-06-25_17h51.49.388,LearnStrategy,2023.2.3,MacIntel,142.8571429,5,2,4,,,,,,,,7,07,,,,,,,,,,,7,1.287,1,,,,,,0.150912395,-0.400091289,1,0,0,1.287,Peridotite_rect,3,0,3,0,1,
662a2584d928ede39a60cdb1,TCR,2024-06-25_17h51.49.388,LearnStrategy,2023.2.3,MacIntel,142.8571429,5,2,5,,,,,,,,1,02,,,,,,,,,,,1,1.809,1,,,,,,-0.495653015,-0.242592678,1,0,0,1.809,Andesite_rect,4,0,4,0,1,
662a2584d928ede39a60cdb1,TCR,2024-06-25_17h51.49.388,LearnStrategy,2023.2.3,MacIntel,142.8571429,5,2,6,,,,,,,,3,02,,,,,,,,,,,3,1.635,1,,,,,,0.11534766,-0.270334992,1,0,0,1.635,Diorite_rect,5,0,5,0,1,
662a2584d928ede39a60cdb1,TCR,2024-06-25_17h51.49.388,LearnStrategy,2023.2.3,MacIntel,142.8571429,5,2,7,,,,,,,,2,14,,,,,,,,,,,4,1.451,0,,,,,,0.438196245,-0.252118504,1,0,0,1.451,Gabbro_rect,6,0,6,0,1,
662a2584d928ede39a60cdb1,TCR,2024-06-25_17h51.49.388,LearnStrategy,2023.2.3,MacIntel,142.8571429,5,2,8,,,,,,,,1,11,,,,,,,,,,,1,1.461,1,,,,,,-0.329364515,-0.246661,1,0,0,1.461,Andesite_rect,7,0,7,0,1,
662a2584d928ede39a60cdb1,TCR,2024-06-25_17h51.49.388,LearnStrategy,2023.2.3,MacIntel,142.8571429,5,2,9,,,,,,,,2,12,,,,,,,,,,,2,1.826,1,,,,,,-0.174272167,-0.243080546,1,0,0,1.826,Basalt_rect,8,0,8,0,1,
662a2584d928ede39a60cdb1,TCR,2024-06-25_17h51.49.388,LearnStrategy,2023.2.3,MacIntel,142.8571429,5,2,10,,,,,,,,6,07,,,,,,,,,,,6,1.351,1,,,,,,-0.115355929,-0.410187672,1,0,0,1.351,Pegmatite_rect,9,0,9,0,1,
662a2584d928ede39a60cdb1,TCR,2024-06-25_17h51.49.388,LearnStrategy,2023.2.3,MacIntel,142.8571429,5,2,11,,,,,,,,4,12,,,,,,,,,,,2,1.616,0,,,,,,-0.19382409,-0.237292284,1,0,0,1.616,Basalt_rect,10,0,10,0,1,
662a2584d928ede39a60cdb1,TCR,2024-06-25_17h51.49.388,LearnStrategy,2023.2.3,MacIntel,142.8571429,5,2,12,,,,,,,,3,15,,,,,,,,,,,3,1.109,1,,,,,,0.111932585,-0.265282666,1,0,0,1.109,Diorite_rect,11,0,11,0,1,
662a2584d928ede39a60cdb1,TCR,2024-06-25_17h51.49.388,LearnStrategy,2023.2.3,MacIntel,142.8571429,5,2,13,,,,,,,,8,13,,,,,,,,,,,8,1.678,1,,,,,,0.377936303,-0.414983661,1,0,0,1.678,Pumice_rect,12,0,12,0,1,
662a2584d928ede39a60cdb1,TCR,2024-06-25_17h51.49.388,LearnStrategy,2023.2.3,MacIntel,142.8571429,5,2,14,,,,,,,,6,11,,,,,,,,,,,6,1.206,1,,,,,,-0.152446285,-0.410630061,1,0,0,1.206,Pegmatite_rect,13,0,13,0,1,
662a2584d928ede39a60cdb1,TCR,2024-06-25_17h51.49.388,LearnStrategy,2023.2.3,MacIntel,142.8571429,5,2,15,,,,,,,,5,12,,,,,,,,,,,5,0.733,1,,,,,,-0.429121077,-0.417906733,1,0,0,0.733,Obsidian_rect,14,0,14,0,1,
662a2584d928ede39a60cdb1,TCR,2024-06-25_17h51.49.388,LearnStrategy,2023.2.3,MacIntel,142.8571429,5,2,16,,,,,,,,5,16,,,,,,,,,,,5,1.178,1,,,,,,-0.388334502,-0.415070484,1,0,0,1.178,Obsidian_rect,15,0,15,0,1,
662a2584d928ede39a60cdb1,TCR,2024-06-25_17h51.49.388,LearnStrategy,2023.2.3,MacIntel,142.8571429,6,1,1,-0.054488218,-0.013406442,1,0,0,1.067,rock_grid_rect_2,3,06,-1,-1,1.067,0.156576623,-0.244523477,1,0,0,1.968,Diorite_rect,3,1.968,1,0,0,0,0,1,,,,,,,,,,,,,
662a2584d928ede39a60cdb1,TCR,2024-06-25_17h51.49.388,LearnStrategy,2023.2.3,MacIntel,142.8571429,6,1,2,0.02909842,0.018172662,1,0,0,0.709,rock_grid_rect_2,4,16,-1,-1,0.709,0.395218399,-0.269111188,1,0,0,2.24,Gabbro_rect,4,2.24,1,1,0,1,0,1,,,,,,,,,,,,,
662a2584d928ede39a60cdb1,TCR,2024-06-25_17h51.49.388,LearnStrategy,2023.2.3,MacIntel,142.8571429,6,1,3,0.10393238,-0.008221813,1,0,0,1.081,rock_grid_rect_2,6,10,-1,-1,1.081,-0.126448719,-0.414975392,1,0,0,1.126,Pegmatite_rect,6,1.126,1,2,0,2,0,1,,,,,,,,,,,,,
662a2584d928ede39a60cdb1,TCR,2024-06-25_17h51.49.388,LearnStrategy,2023.2.3,MacIntel,142.8571429,6,1,4,0.018253698,-0.000585441,1,0,0,0.83,rock_grid_rect_2,1,07,-1,-1,0.83,0.196771969,-0.243088815,1,0,0,1.418,Diorite_rect,3,1.418,0,3,0,3,0,1,,,,,,,,,,,,,
662a2584d928ede39a60cdb1,TCR,2024-06-25_17h51.49.388,LearnStrategy,2023.2.3,MacIntel,142.8571429,6,1,5,0.072907295,0.01909465,1,0,0,0.858,rock_grid_rect_2,4,16,-1,-1,0.858,0.30606676,-0.242357013,1,0,0,1.685,Gabbro_rect,4,1.685,1,4,0,4,0,1,,,,,,,,,,,,,
662a2584d928ede39a60cdb1,TCR,2024-06-25_17h51.49.388,LearnStrategy,2023.2.3,MacIntel,142.8571429,6,1,6,0.023124107,0.007505722,1,0,0,0.665,rock_grid_rect_2,7,05,-1,-1,0.665,0.118899172,-0.404535848,1,0,0,2.07,Peridotite_rect,7,2.07,1,5,0,5,0,1,,,,,,,,,,,,,
662a2584d928ede39a60cdb1,TCR,2024-06-25_17h51.49.388,LearnStrategy,2023.2.3,MacIntel,142.8571429,6,1,7,0.054335243,-0.017433418,1,0,0,1.012,rock_grid_rect_2,2,05,-1,-1,1.012,-0.081229989,-0.255872605,1,0,0,1.314,Basalt_rect,2,1.314,1,6,0,6,0,1,,,,,,,,,,,,,
662a2584d928ede39a60cdb1,TCR,2024-06-25_17h51.49.388,LearnStrategy,2023.2.3,MacIntel,142.8571429,6,1,8,0.076756489,0.016295612,1,0,0,0.789,rock_grid_rect_2,4,10,-1,-1,0.789,0.155034465,-0.406665101,1,0,0,2.472,Peridotite_rect,7,2.472,0,7,0,7,0,1,,,,,,,,,,,,,
662a2584d928ede39a60cdb1,TCR,2024-06-25_17h51.49.388,LearnStrategy,2023.2.3,MacIntel,142.8571429,6,1,9,0.140696113,-0.002082121,1,0,0,0.858,rock_grid_rect_2,4,11,-1,-1,0.858,-0.163216587,-0.24657831,1,0,0,0.85,Basalt_rect,2,0.85,0,8,0,8,0,1,,,,,,,,,,,,,
662a2584d928ede39a60cdb1,TCR,2024-06-25_17h51.49.388,LearnStrategy,2023.2.3,MacIntel,142.8571429,6,1,10,0.123004703,-0.013832293,1,0,0,1.14,rock_grid_rect_2,6,05,-1,-1,1.14,-0.133961057,-0.38878764,1,0,0,1.386,Pegmatite_rect,6,1.386,1,9,0,9,0,1,,,,,,,,,,,,,
662a2584d928ede39a60cdb1,TCR,2024-06-25_17h51.49.388,LearnStrategy,2023.2.3,MacIntel,142.8571429,6,1,11,0.04651282,-0.023134857,1,0,0,0.712,rock_grid_rect_2,7,14,-1,-1,0.712,-0.330121124,-0.242572006,1,0,0,4.019,Andesite_rect,1,4.019,0,10,0,10,0,1,,,,,,,,,,,,,
662a2584d928ede39a60cdb1,TCR,2024-06-25_17h51.49.388,LearnStrategy,2023.2.3,MacIntel,142.8571429,6,1,12,0.006850822,-0.005960256,1,0,0,0.864,rock_grid_rect_2,1,09,-1,-1,0.864,-0.181060972,-0.232314379,1,0,0,1.068,Basalt_rect,2,1.068,0,11,0,11,0,1,,,,,,,,,,,,,
662a2584d928ede39a60cdb1,TCR,2024-06-25_17h51.49.388,LearnStrategy,2023.2.3,MacIntel,142.8571429,6,1,13,0.004179952,0.003391922,1,0,0,0.673,rock_grid_rect_2,5,11,-1,-1,0.673,-0.403764355,-0.385128632,1,0,0,1.013,Obsidian_rect,5,1.013,1,12,0,12,0,1,,,,,,,,,,,,,
662a2584d928ede39a60cdb1,TCR,2024-06-25_17h51.49.388,LearnStrategy,2023.2.3,MacIntel,142.8571429,6,1,14,0.04972944,0.019317911,1,0,0,0.815,rock_grid_rect_2,2,11,-1,-1,0.815,-0.346795453,-0.260089768,1,0,0,1.758,Andesite_rect,1,1.758,0,13,0,13,0,1,,,,,,,,,,,,,
662a2584d928ede39a60cdb1,TCR,2024-06-25_17h51.49.388,LearnStrategy,2023.2.3,MacIntel,142.8571429,6,1,15,-0.035916166,-0.016962089,1,0,0,0.98,rock_grid_rect_2,8,06,-1,-1,0.98,0.313781687,-0.382019508,1,0,0,1.243,Pumice_rect,8,1.243,1,14,0,14,0,1,,,,,,,,,,,,,
662a2584d928ede39a60cdb1,TCR,2024-06-25_17h51.49.388,LearnStrategy,2023.2.3,MacIntel,142.8571429,6,1,16,0.075586434,0.000973255,1,0,0,0.79,rock_grid_rect_2,3,16,-1,-1,0.79,0.18668799,-0.261181269,1,0,0,1.063,Diorite_rect,3,1.063,1,15,0,15,0,1,,,,,,,,,,,,,
662a2584d928ede39a60cdb1,TCR,2024-06-25_17h51.49.388,LearnStrategy,2023.2.3,MacIntel,142.8571429,6,2,1,,,,,,,,1,16,,,,,,,,,,,7,2.773,0,,,,,,0.212917086,-0.41671187,1,0,0,2.773,Peridotite_rect,0,0,0,0,1,
662a2584d928ede39a60cdb1,TCR,2024-06-25_17h51.49.388,LearnStrategy,2023.2.3,MacIntel,142.8571429,6,2,2,,,,,,,,8,05,,,,,,,,,,,8,1.093,1,,,,,,0.371995065,-0.382304787,1,0,0,1.093,Pumice_rect,1,0,1,0,1,
662a2584d928ede39a60cdb1,TCR,2024-06-25_17h51.49.388,LearnStrategy,2023.2.3,MacIntel,142.8571429,6,2,3,,,,,,,,3,12,,,,,,,,,,,7,2.124,0,,,,,,0.112829766,-0.393137106,1,0,0,2.124,Peridotite_rect,2,0,2,0,1,
662a2584d928ede39a60cdb1,TCR,2024-06-25_17h51.49.388,LearnStrategy,2023.2.3,MacIntel,142.8571429,6,2,4,,,,,,,,7,04,,,,,,,,,,,3,1.961,0,,,,,,0.126130365,-0.236134632,1,0,0,1.961,Diorite_rect,3,0,3,0,1,
662a2584d928ede39a60cdb1,TCR,2024-06-25_17h51.49.388,LearnStrategy,2023.2.3,MacIntel,142.8571429,6,2,5,,,,,,,,5,07,,,,,,,,,,,5,1.058,1,,,,,,-0.362998452,-0.402890327,1,0,0,1.058,Obsidian_rect,4,0,4,0,1,
662a2584d928ede39a60cdb1,TCR,2024-06-25_17h51.49.388,LearnStrategy,2023.2.3,MacIntel,142.8571429,6,2,6,,,,,,,,2,02,,,,,,,,,,,2,0.894,1,,,,,,-0.141915782,-0.231260088,1,0,0,0.894,Basalt_rect,5,0,5,0,1,
662a2584d928ede39a60cdb1,TCR,2024-06-25_17h51.49.388,LearnStrategy,2023.2.3,MacIntel,142.8571429,6,2,7,,,,,,,,2,01,,,,,,,,,,,2,0.771,1,,,,,,-0.152003896,-0.258481458,1,0,0,0.771,Basalt_rect,6,0,6,0,1,
662a2584d928ede39a60cdb1,TCR,2024-06-25_17h51.49.388,LearnStrategy,2023.2.3,MacIntel,142.8571429,6,2,8,,,,,,,,7,06,,,,,,,,,,,6,2.3,0,,,,,,-0.100624802,-0.418469021,1,0,0,2.3,Pegmatite_rect,7,0,7,0,1,
662a2584d928ede39a60cdb1,TCR,2024-06-25_17h51.49.388,LearnStrategy,2023.2.3,MacIntel,142.8571429,6,2,9,,,,,,,,6,13,,,,,,,,,,,6,1.221,1,,,,,,-0.087857549,-0.413342275,1,0,0,1.221,Pegmatite_rect,8,0,8,0,1,
662a2584d928ede39a60cdb1,TCR,2024-06-25_17h51.49.388,LearnStrategy,2023.2.3,MacIntel,142.8571429,6,2,10,,,,,,,,4,13,,,,,,,,,,,4,1.378,1,,,,,,0.379846429,-0.229697257,1,0,0,1.378,Gabbro_rect,9,0,9,0,1,
662a2584d928ede39a60cdb1,TCR,2024-06-25_17h51.49.388,LearnStrategy,2023.2.3,MacIntel,142.8571429,6,2,11,,,,,,,,6,09,,,,,,,,,,,6,2.083,1,,,,,,-0.071724836,-0.409480677,1,0,0,2.083,Pegmatite_rect,10,0,10,0,1,
662a2584d928ede39a60cdb1,TCR,2024-06-25_17h51.49.388,LearnStrategy,2023.2.3,MacIntel,142.8571429,6,2,12,,,,,,,,8,03,,,,,,,,,,,8,1.435,1,,,,,,0.455680931,-0.419349664,1,0,0,1.435,Pumice_rect,11,0,11,0,1,
662a2584d928ede39a60cdb1,TCR,2024-06-25_17h51.49.388,LearnStrategy,2023.2.3,MacIntel,142.8571429,6,2,13,,,,,,,,1,06,,,,,,,,,,,1,2.021,1,,,,,,-0.33920456,-0.236494331,1,0,0,2.021,Andesite_rect,12,0,12,0,1,
662a2584d928ede39a60cdb1,TCR,2024-06-25_17h51.49.388,LearnStrategy,2023.2.3,MacIntel,142.8571429,6,2,14,,,,,,,,4,01,,,,,,,,,,,3,3.152,0,,,,,,0.138025243,-0.27026884,1,0,0,3.152,Diorite_rect,13,0,13,0,1,
662a2584d928ede39a60cdb1,TCR,2024-06-25_17h51.49.388,LearnStrategy,2023.2.3,MacIntel,142.8571429,6,2,15,,,,,,,,5,04,,,,,,,,,,,5,1.11,1,,,,,,-0.375029768,-0.398834409,1,0,0,1.11,Obsidian_rect,14,0,14,0,1,
662a2584d928ede39a60cdb1,TCR,2024-06-25_17h51.49.388,LearnStrategy,2023.2.3,MacIntel,142.8571429,6,2,16,,,,,,,,3,09,,,,,,,,,,,3,1.35,1,,,,,,0.133609626,-0.241079461,1,0,0,1.35,Diorite_rect,15,0,15,0,1,
662a2584d928ede39a60cdb1,TCR,2024-06-25_17h51.49.388,LearnStrategy,2023.2.3,MacIntel,142.8571429,7,1,1,0.026911284,0.003065298,1,0,0,0.974,rock_grid_rect_2,1,14,-1,-1,0.974,0.156928054,-0.256513449,1,0,0,2.512,Diorite_rect,3,2.512,0,0,0,0,0,1,,,,,,,,,,,,,
662a2584d928ede39a60cdb1,TCR,2024-06-25_17h51.49.388,LearnStrategy,2023.2.3,MacIntel,142.8571429,7,1,2,0.102576273,-0.000668131,1,0,0,1.125,rock_grid_rect_2,6,10,-1,-1,1.125,-0.131521718,-0.389618669,1,0,0,2.118,Pegmatite_rect,6,2.118,1,1,0,1,0,1,,,,,,,,,,,,,
662a2584d928ede39a60cdb1,TCR,2024-06-25_17h51.49.388,LearnStrategy,2023.2.3,MacIntel,142.8571429,7,1,3,0.046810502,0.011665002,1,0,0,0.763,rock_grid_rect_2,7,15,-1,-1,0.763,0.20045165,-0.252217731,1,0,0,2.926,Diorite_rect,3,2.926,0,2,0,2,0,1,,,,,,,,,,,,,
662a2584d928ede39a60cdb1,TCR,2024-06-25_17h51.49.388,LearnStrategy,2023.2.3,MacIntel,142.8571429,7,1,4,0.107541775,-0.021249537,1,0,0,0.848,rock_grid_rect_2,4,03,-1,-1,0.848,-0.062215548,-0.266217057,1,0,0,0.984,Basalt_rect,2,0.984,0,3,0,3,0,1,,,,,,,,,,,,,
662a2584d928ede39a60cdb1,TCR,2024-06-25_17h51.49.388,LearnStrategy,2023.2.3,MacIntel,142.8571429,7,1,5,0.05631979,-0.015862319,1,0,0,0.692,rock_grid_rect_2,3,07,-1,-1,0.692,0.096812818,-0.255240031,1,0,0,1.126,Diorite_rect,3,1.126,1,4,0,4,0,1,,,,,,,,,,,,,
662a2584d928ede39a60cdb1,TCR,2024-06-25_17h51.49.388,LearnStrategy,2023.2.3,MacIntel,142.8571429,7,1,6,0.017554972,-0.007039354,1,0,0,0.796,rock_grid_rect_2,7,02,-1,-1,0.796,-0.092161536,-0.421685641,1,0,0,1.136,Pegmatite_rect,6,1.136,0,5,0,5,0,1,,,,,,,,,,,,,
662a2584d928ede39a60cdb1,TCR,2024-06-25_17h51.49.388,LearnStrategy,2023.2.3,MacIntel,142.8571429,7,1,7,0.075991612,-0.013501535,1,0,0,0.764,rock_grid_rect_2,4,11,-1,-1,0.764,0.308683882,-0.265605155,1,0,0,2.318,Gabbro_rect,4,2.318,1,6,0,6,0,1,,,,,,,,,,,,,
662a2584d928ede39a60cdb1,TCR,2024-06-25_17h51.49.388,LearnStrategy,2023.2.3,MacIntel,142.8571429,7,1,8,0.162530264,-0.000982351,1,0,0,0.874,rock_grid_rect_2,1,09,-1,-1,0.874,-0.146992915,-0.252916457,1,0,0,0.92,Basalt_rect,2,0.92,0,7,0,7,0,1,,,,,,,,,,,,,
662a2584d928ede39a60cdb1,TCR,2024-06-25_17h51.49.388,LearnStrategy,2023.2.3,MacIntel,142.8571429,7,1,9,0.054790035,-0.0108348,1,0,0,0.833,rock_grid_rect_2,4,10,-1,-1,0.833,0.104709661,-0.391636292,1,0,0,3.779,Peridotite_rect,7,3.779,0,8,0,8,0,1,,,,,,,,,,,,,
662a2584d928ede39a60cdb1,TCR,2024-06-25_17h51.49.388,LearnStrategy,2023.2.3,MacIntel,142.8571429,7,1,10,0.049679826,0.001556216,1,0,0,0.672,rock_grid_rect_2,6,16,-1,-1,0.672,-0.058957584,-0.389089457,1,0,0,1.403,Pegmatite_rect,6,1.403,1,9,0,9,0,1,,,,,,,,,,,,,
662a2584d928ede39a60cdb1,TCR,2024-06-25_17h51.49.388,LearnStrategy,2023.2.3,MacIntel,142.8571429,7,1,11,0.15577867,0.004404867,1,0,0,1.021,rock_grid_rect_2,2,16,-1,-1,1.021,0.327743802,-0.265948316,1,0,0,1.993,Gabbro_rect,4,1.993,0,10,0,10,0,1,,,,,,,,,,,,,
662a2584d928ede39a60cdb1,TCR,2024-06-25_17h51.49.388,LearnStrategy,2023.2.3,MacIntel,142.8571429,7,1,12,-0.024285894,0.001634771,1,0,0,0.681,rock_grid_rect_2,2,11,-1,-1,0.681,-0.057341005,-0.268350445,1,0,0,1.502,Basalt_rect,2,1.502,1,11,0,11,0,1,,,,,,,,,,,,,
662a2584d928ede39a60cdb1,TCR,2024-06-25_17h51.49.388,LearnStrategy,2023.2.3,MacIntel,142.8571429,7,1,13,-0.066469921,-0.009321583,1,0,0,0.629,rock_grid_rect_2,3,10,-1,-1,0.629,0.096461387,-0.258899039,1,0,0,1.574,Diorite_rect,3,1.574,1,12,0,12,0,1,,,,,,,,,,,,,
662a2584d928ede39a60cdb1,TCR,2024-06-25_17h51.49.388,LearnStrategy,2023.2.3,MacIntel,142.8571429,7,1,14,0.088837419,0.017705467,1,0,0,0.681,rock_grid_rect_2,8,04,-1,-1,0.681,0.290277208,-0.38420251,1,0,0,1.095,Pumice_rect,8,1.095,1,13,0,13,0,1,,,,,,,,,,,,,
662a2584d928ede39a60cdb1,TCR,2024-06-25_17h51.49.388,LearnStrategy,2023.2.3,MacIntel,142.8571429,7,1,15,0.117526527,-0.013799217,1,0,0,0.838,rock_grid_rect_2,7,13,-1,-1,0.838,0.066474055,-0.408447059,1,0,0,1.538,Peridotite_rect,7,1.538,1,14,0,14,0,1,,,,,,,,,,,,,
662a2584d928ede39a60cdb1,TCR,2024-06-25_17h51.49.388,LearnStrategy,2023.2.3,MacIntel,142.8571429,7,1,16,-0.028722183,0.011032427,1,0,0,0.732,rock_grid_rect_2,5,09,-1,-1,0.732,-0.334871633,-0.406574143,1,0,0,1.251,Obsidian_rect,5,1.251,1,15,0,15,0,1,,,,,,,,,,,,,
662a2584d928ede39a60cdb1,TCR,2024-06-25_17h51.49.388,LearnStrategy,2023.2.3,MacIntel,142.8571429,7,2,1,,,,,,,,6,09,,,,,,,,,,,6,1.042,1,,,,,,-0.110940311,-0.386736942,1,0,0,1.042,Pegmatite_rect,0,0,0,0,1,
662a2584d928ede39a60cdb1,TCR,2024-06-25_17h51.49.388,LearnStrategy,2023.2.3,MacIntel,142.8571429,7,2,2,,,,,,,,4,09,,,,,,,,,,,4,2.912,1,,,,,,0.353728964,-0.228899304,1,0,0,2.912,Gabbro_rect,1,0,1,0,1,
662a2584d928ede39a60cdb1,TCR,2024-06-25_17h51.49.388,LearnStrategy,2023.2.3,MacIntel,142.8571429,7,2,3,,,,,,,,2,01,,,,,,,,,,,2,0.992,1,,,,,,-0.145459026,-0.253726814,1,0,0,0.992,Basalt_rect,2,0,2,0,1,
662a2584d928ede39a60cdb1,TCR,2024-06-25_17h51.49.388,LearnStrategy,2023.2.3,MacIntel,142.8571429,7,2,4,,,,,,,,1,16,,,,,,,,,,,1,2.967,1,,,,,,-0.333610619,-0.263368405,1,0,0,2.967,Andesite_rect,3,0,3,0,1,
662a2584d928ede39a60cdb1,TCR,2024-06-25_17h51.49.388,LearnStrategy,2023.2.3,MacIntel,142.8571429,7,2,5,,,,,,,,4,13,,,,,,,,,,,4,1.008,1,,,,,,0.325866751,-0.252329362,1,0,0,1.008,Gabbro_rect,4,0,4,0,1,
662a2584d928ede39a60cdb1,TCR,2024-06-25_17h51.49.388,LearnStrategy,2023.2.3,MacIntel,142.8571429,7,2,6,,,,,,,,8,14,,,,,,,,,,,8,1.442,1,,,,,,0.358483608,-0.411680217,1,0,0,1.442,Pumice_rect,5,0,5,0,1,
662a2584d928ede39a60cdb1,TCR,2024-06-25_17h51.49.388,LearnStrategy,2023.2.3,MacIntel,142.8571429,7,2,7,,,,,,,,8,08,,,,,,,,,,,8,1.816,1,,,,,,0.396508355,-0.416348037,1,0,0,1.816,Pumice_rect,6,0,6,0,1,
662a2584d928ede39a60cdb1,TCR,2024-06-25_17h51.49.388,LearnStrategy,2023.2.3,MacIntel,142.8571429,7,2,8,,,,,,,,3,15,,,,,,,,,,,3,1.164,1,,,,,,0.130661747,-0.26795767,1,0,0,1.164,Diorite_rect,7,0,7,0,1,
662a2584d928ede39a60cdb1,TCR,2024-06-25_17h51.49.388,LearnStrategy,2023.2.3,MacIntel,142.8571429,7,2,9,,,,,,,,6,13,,,,,,,,,,,6,1.067,1,,,,,,-0.147236849,-0.405532256,1,0,0,1.067,Pegmatite_rect,8,0,8,0,1,
662a2584d928ede39a60cdb1,TCR,2024-06-25_17h51.49.388,LearnStrategy,2023.2.3,MacIntel,142.8571429,7,2,10,,,,,,,,7,04,,,,,,,,,,,7,1.026,1,,,,,,0.196681011,-0.385041808,1,0,0,1.026,Peridotite_rect,9,0,9,0,1,
662a2584d928ede39a60cdb1,TCR,2024-06-25_17h51.49.388,LearnStrategy,2023.2.3,MacIntel,142.8571429,7,2,11,,,,,,,,5,07,,,,,,,,,,,5,0.994,1,,,,,,-0.4472218,-0.396812652,1,0,0,0.994,Obsidian_rect,10,0,10,0,1,
662a2584d928ede39a60cdb1,TCR,2024-06-25_17h51.49.388,LearnStrategy,2023.2.3,MacIntel,142.8571429,7,2,12,,,,,,,,7,06,,,,,,,,,,,6,1.485,0,,,,,,-0.187126244,-0.396763038,1,0,0,1.485,Pegmatite_rect,11,0,11,0,1,
662a2584d928ede39a60cdb1,TCR,2024-06-25_17h51.49.388,LearnStrategy,2023.2.3,MacIntel,142.8571429,7,2,13,,,,,,,,3,12,,,,,,,,,,,7,1.826,0,,,,,,0.046686468,-0.394063228,1,0,0,1.826,Peridotite_rect,12,0,12,0,1,
662a2584d928ede39a60cdb1,TCR,2024-06-25_17h51.49.388,LearnStrategy,2023.2.3,MacIntel,142.8571429,7,2,14,,,,,,,,1,04,,,,,,,,,,,1,1.163,1,,,,,,-0.455288156,-0.246053232,1,0,0,1.163,Andesite_rect,13,0,13,0,1,
662a2584d928ede39a60cdb1,TCR,2024-06-25_17h51.49.388,LearnStrategy,2023.2.3,MacIntel,142.8571429,7,2,15,,,,,,,,2,12,,,,,,,,,,,1,1.667,0,,,,,,-0.349549012,-0.253751621,1,0,0,1.667,Andesite_rect,14,0,14,0,1,
662a2584d928ede39a60cdb1,TCR,2024-06-25_17h51.49.388,LearnStrategy,2023.2.3,MacIntel,142.8571429,7,2,16,,,,,,,,5,12,,,,,,,,,,,5,1.017,1,,,,,,-0.34316952,-0.404209224,1,0,0,1.017,Obsidian_rect,15,0,15,0,1,
662a2584d928ede39a60cdb1,TCR,2024-06-25_17h51.49.388,LearnStrategy,2023.2.3,MacIntel,142.8571429,8,1,1,0.018158605,-0.005133362,1,0,0,1.248,rock_grid_rect_2,2,06,-1,-1,1.248,-0.057584939,-0.262194214,1,0,0,1.037,Basalt_rect,2,1.037,1,0,0,0,0,1,,,,,,,,,,,,,
662a2584d928ede39a60cdb1,TCR,2024-06-25_17h51.49.388,LearnStrategy,2023.2.3,MacIntel,142.8571429,8,1,2,0.093013237,-0.006811958,1,0,0,0.891,rock_grid_rect_2,3,13,-1,-1,0.891,0.083260015,-0.382685158,1,0,0,1.504,Peridotite_rect,7,1.504,0,1,0,1,0,1,,,,,,,,,,,,,
662a2584d928ede39a60cdb1,TCR,2024-06-25_17h51.49.388,LearnStrategy,2023.2.3,MacIntel,142.8571429,8,1,3,-0.020358145,-0.004843948,1,0,0,0.631,rock_grid_rect_2,4,16,-1,-1,0.631,0.359422133,-0.25442554,1,0,0,1.294,Gabbro_rect,4,1.294,1,2,0,2,0,1,,,,,,,,,,,,,
662a2584d928ede39a60cdb1,TCR,2024-06-25_17h51.49.388,LearnStrategy,2023.2.3,MacIntel,142.8571429,8,1,4,-0.023165452,0.024010538,1,0,0,0.548,rock_grid_rect_2,3,16,-1,-1,0.548,0.116488774,-0.239818447,1,0,0,1.269,Diorite_rect,3,1.269,1,3,0,3,0,1,,,,,,,,,,,,,
662a2584d928ede39a60cdb1,TCR,2024-06-25_17h51.49.388,LearnStrategy,2023.2.3,MacIntel,142.8571429,8,1,5,0.037553417,-0.011459105,1,0,0,0.55,rock_grid_rect_2,4,05,-1,-1,0.55,-0.358599373,-0.250687976,1,0,0,1.382,Andesite_rect,1,1.382,0,4,0,4,0,1,,,,,,,,,,,,,
662a2584d928ede39a60cdb1,TCR,2024-06-25_17h51.49.388,LearnStrategy,2023.2.3,MacIntel,142.8571429,8,1,6,-0.011989971,0.024155244,1,0,0,1.465,rock_grid_rect_2,3,10,-1,-1,1.465,0.139807201,-0.241265513,1,0,0,0.951,Diorite_rect,3,0.951,1,5,0,5,0,1,,,,,,,,,,,,,
662a2584d928ede39a60cdb1,TCR,2024-06-25_17h51.49.388,LearnStrategy,2023.2.3,MacIntel,142.8571429,8,1,7,0.097631443,-0.006840899,1,0,0,0.758,rock_grid_rect_2,7,05,-1,-1,0.758,0.098330169,-0.419159478,1,0,0,1.704,Peridotite_rect,7,1.704,1,6,0,6,0,1,,,,,,,,,,,,,
662a2584d928ede39a60cdb1,TCR,2024-06-25_17h51.49.388,LearnStrategy,2023.2.3,MacIntel,142.8571429,8,1,8,0.051854559,-0.006993874,1,0,0,0.879,rock_grid_rect_2,6,16,-1,-1,0.879,-0.083078099,-0.393972269,1,0,0,1.38,Pegmatite_rect,6,1.38,1,7,0,7,0,1,,,,,,,,,,,,,
662a2584d928ede39a60cdb1,TCR,2024-06-25_17h51.49.388,LearnStrategy,2023.2.3,MacIntel,142.8571429,8,1,9,0.106136054,-0.011951107,1,0,0,0.93,rock_grid_rect_2,5,02,-1,-1,0.93,-0.396276824,-0.390036251,1,0,0,1.06,Obsidian_rect,5,1.06,1,8,0,8,0,1,,,,,,,,,,,,,
662a2584d928ede39a60cdb1,TCR,2024-06-25_17h51.49.388,LearnStrategy,2023.2.3,MacIntel,142.8571429,8,1,10,0.00541616,-0.014708801,1,0,0,1.297,rock_grid_rect_2,1,14,-1,-1,1.297,-0.328541755,-0.254380061,1,0,0,1.725,Andesite_rect,1,1.725,1,9,0,9,0,1,,,,,,,,,,,,,
662a2584d928ede39a60cdb1,TCR,2024-06-25_17h51.49.388,LearnStrategy,2023.2.3,MacIntel,142.8571429,8,1,11,-0.006400164,0.008295406,1,0,0,0.837,rock_grid_rect_2,7,14,-1,-1,0.837,0.161017047,-0.393715932,1,0,0,1.709,Peridotite_rect,7,1.709,1,10,0,10,0,1,,,,,,,,,,,,,
662a2584d928ede39a60cdb1,TCR,2024-06-25_17h51.49.388,LearnStrategy,2023.2.3,MacIntel,142.8571429,8,1,12,0.082069287,-0.007791828,1,0,0,0.655,rock_grid_rect_2,7,14,-1,-1,0.655,0.100141068,-0.414131959,1,0,0,0.767,Peridotite_rect,7,0.767,1,11,0,11,0,1,,,,,,,,,,,,,
662a2584d928ede39a60cdb1,TCR,2024-06-25_17h51.49.388,LearnStrategy,2023.2.3,MacIntel,142.8571429,8,1,13,0.055918746,0.000105016,1,0,0,0.69,rock_grid_rect_2,8,02,-1,-1,0.69,0.356077344,-0.407554013,1,0,0,1.01,Pumice_rect,8,1.01,1,12,0,12,0,1,,,,,,,,,,,,,
662a2584d928ede39a60cdb1,TCR,2024-06-25_17h51.49.388,LearnStrategy,2023.2.3,MacIntel,142.8571429,8,1,14,0.092665941,0.015191707,1,0,0,0.679,rock_grid_rect_2,7,15,-1,-1,0.679,0.098139983,-0.409439332,1,0,0,1.561,Peridotite_rect,7,1.561,1,13,0,13,0,1,,,,,,,,,,,,,
662a2584d928ede39a60cdb1,TCR,2024-06-25_17h51.49.388,LearnStrategy,2023.2.3,MacIntel,142.8571429,8,1,15,0.142527684,-0.001738959,1,0,0,0.798,rock_grid_rect_2,2,09,-1,-1,0.798,-0.145136537,-0.256517583,1,0,0,1.072,Basalt_rect,2,1.072,1,14,0,14,0,1,,,,,,,,,,,,,
662a2584d928ede39a60cdb1,TCR,2024-06-25_17h51.49.388,LearnStrategy,2023.2.3,MacIntel,142.8571429,8,1,16,0.038624246,0.014422695,1,0,0,0.539,rock_grid_rect_2,1,03,-1,-1,0.539,-0.354961037,-0.265704382,1,0,0,1.368,Andesite_rect,1,1.368,1,15,0,15,0,1,,,,,,,,,,,,,
662a2584d928ede39a60cdb1,TCR,2024-06-25_17h51.49.388,LearnStrategy,2023.2.3,MacIntel,142.8571429,8,2,1,,,,,,,,3,02,,,,,,,,,,,7,3.383,0,,,,,,0.122024833,-0.411452821,1,0,0,3.383,Peridotite_rect,0,0,0,0,1,
662a2584d928ede39a60cdb1,TCR,2024-06-25_17h51.49.388,LearnStrategy,2023.2.3,MacIntel,142.8571429,8,2,2,,,,,,,,5,16,,,,,,,,,,,5,0.852,1,,,,,,-0.388450267,-0.402493418,1,0,0,0.852,Obsidian_rect,1,0,1,0,1,
662a2584d928ede39a60cdb1,TCR,2024-06-25_17h51.49.388,LearnStrategy,2023.2.3,MacIntel,142.8571429,8,2,3,,,,,,,,5,14,,,,,,,,,,,5,0.717,1,,,,,,-0.364077549,-0.396217288,1,0,0,0.717,Obsidian_rect,2,0,2,0,1,
662a2584d928ede39a60cdb1,TCR,2024-06-25_17h51.49.388,LearnStrategy,2023.2.3,MacIntel,142.8571429,8,2,4,,,,,,,,7,07,,,,,,,,,,,4,3.774,0,,,,,,0.353468492,-0.243680045,1,0,0,3.774,Gabbro_rect,3,0,3,0,1,
662a2584d928ede39a60cdb1,TCR,2024-06-25_17h51.49.388,LearnStrategy,2023.2.3,MacIntel,142.8571429,8,2,5,,,,,,,,4,12,,,,,,,,,,,1,2.181,0,,,,,,-0.362159154,-0.238751753,1,0,0,2.181,Andesite_rect,4,0,4,0,1,
662a2584d928ede39a60cdb1,TCR,2024-06-25_17h51.49.388,LearnStrategy,2023.2.3,MacIntel,142.8571429,8,2,6,,,,,,,,3,14,,,,,,,,,,,3,2.16,1,,,,,,0.1924101,-0.258795678,1,0,0,2.16,Diorite_rect,5,0,5,0,1,
662a2584d928ede39a60cdb1,TCR,2024-06-25_17h51.49.388,LearnStrategy,2023.2.3,MacIntel,142.8571429,8,2,7,,,,,,,,8,13,,,,,,,,,,,8,1.035,1,,,,,,0.362502315,-0.384876429,1,0,0,1.035,Pumice_rect,6,0,6,0,1,
662a2584d928ede39a60cdb1,TCR,2024-06-25_17h51.49.388,LearnStrategy,2023.2.3,MacIntel,142.8571429,8,2,8,,,,,,,,2,02,,,,,,,,,,,2,0.883,1,,,,,,-0.123893615,-0.239156931,1,0,0,0.883,Basalt_rect,7,0,7,0,1,
662a2584d928ede39a60cdb1,TCR,2024-06-25_17h51.49.388,LearnStrategy,2023.2.3,MacIntel,142.8571429,8,2,9,,,,,,,,2,08,,,,,,,,,,,2,1.429,1,,,,,,-0.108997109,-0.270632674,1,0,0,1.429,Basalt_rect,8,0,8,0,1,
662a2584d928ede39a60cdb1,TCR,2024-06-25_17h51.49.388,LearnStrategy,2023.2.3,MacIntel,142.8571429,8,2,10,,,,,,,,6,08,,,,,,,,,,,6,1.136,1,,,,,,-0.200207716,-0.391623889,1,0,0,1.136,Pegmatite_rect,9,0,9,0,1,
662a2584d928ede39a60cdb1,TCR,2024-06-25_17h51.49.388,LearnStrategy,2023.2.3,MacIntel,142.8571429,8,2,11,,,,,,,,1,11,,,,,,,,,,,1,3.01,1,,,,,,-0.341292469,-0.252147445,1,0,0,3.01,Andesite_rect,10,0,10,0,1,
662a2584d928ede39a60cdb1,TCR,2024-06-25_17h51.49.388,LearnStrategy,2023.2.3,MacIntel,142.8571429,8,2,12,,,,,,,,6,07,,,,,,,,,,,6,0.908,1,,,,,,-0.095043263,-0.418059708,1,0,0,0.908,Pegmatite_rect,11,0,11,0,1,
662a2584d928ede39a60cdb1,TCR,2024-06-25_17h51.49.388,LearnStrategy,2023.2.3,MacIntel,142.8571429,8,2,13,,,,,,,,4,08,,,,,,,,,,,1,2.177,0,,,,,,-0.354067991,-0.26023034,1,0,0,2.177,Andesite_rect,12,0,12,0,1,
662a2584d928ede39a60cdb1,TCR,2024-06-25_17h51.49.388,LearnStrategy,2023.2.3,MacIntel,142.8571429,8,2,14,,,,,,,,8,03,,,,,,,,,,,8,0.817,1,,,,,,0.434657136,-0.405098136,1,0,0,0.817,Pumice_rect,13,0,13,0,1,
662a2584d928ede39a60cdb1,TCR,2024-06-25_17h51.49.388,LearnStrategy,2023.2.3,MacIntel,142.8571429,8,2,15,,,,,,,,1,06,,,,,,,,,,,1,1.628,1,,,,,,-0.424023272,-0.248008838,1,0,0,1.628,Andesite_rect,14,0,14,0,1,
662a2584d928ede39a60cdb1,TCR,2024-06-25_17h51.49.388,LearnStrategy,2023.2.3,MacIntel,142.8571429,8,2,16,,,,,,,,7,12,,,,,,,,,,,7,1.201,1,,,,,,0.110626092,-0.390805263,1,0,0,1.201,Peridotite_rect,15,0,15,0,1,
662a2584d928ede39a60cdb1,TCR,2024-06-25_17h51.49.388,LearnStrategy,2023.2.3,MacIntel,142.8571429,9,1,1,-0.029755801,0.009874775,1,0,0,1.216,rock_grid_rect_2,3,08,-1,-1,1.216,0.05439726,-0.254355254,1,0,0,1.893,Diorite_rect,3,1.893,1,0,0,0,0,1,,,,,,,,,,,,,
662a2584d928ede39a60cdb1,TCR,2024-06-25_17h51.49.388,LearnStrategy,2023.2.3,MacIntel,142.8571429,9,1,2,0.035539929,-0.019612286,1,0,0,0.884,rock_grid_rect_2,6,03,-1,-1,0.884,-0.10577222,-0.395464814,1,0,0,1.272,Pegmatite_rect,6,1.272,1,1,0,1,0,1,,,,,,,,,,,,,
662a2584d928ede39a60cdb1,TCR,2024-06-25_17h51.49.388,LearnStrategy,2023.2.3,MacIntel,142.8571429,9,1,3,0.017199407,-0.009825988,1,0,0,0.849,rock_grid_rect_2,4,03,-1,-1,0.849,-0.368869404,-0.264662495,1,0,0,2.425,Andesite_rect,1,2.425,0,2,0,2,0,1,,,,,,,,,,,,,
662a2584d928ede39a60cdb1,TCR,2024-06-25_17h51.49.388,LearnStrategy,2023.2.3,MacIntel,142.8571429,9,1,4,0.022958728,-0.020964258,1,0,0,1.162,rock_grid_rect_2,4,15,-1,-1,1.162,0.359959614,-0.263372539,1,0,0,1.218,Gabbro_rect,4,1.218,1,3,0,3,0,1,,,,,,,,,,,,,
662a2584d928ede39a60cdb1,TCR,2024-06-25_17h51.49.388,LearnStrategy,2023.2.3,MacIntel,142.8571429,9,1,5,-0.131658155,0.006083463,1,0,0,0.764,rock_grid_rect_2,7,10,-1,-1,0.764,-0.471358852,-0.258758467,1,0,0,2.895,Andesite_rect,1,2.895,0,4,0,4,0,1,,,,,,,,,,,,,
662a2584d928ede39a60cdb1,TCR,2024-06-25_17h51.49.388,LearnStrategy,2023.2.3,MacIntel,142.8571429,9,1,6,0.010377527,-0.012740792,1,0,0,0.722,rock_grid_rect_2,3,10,-1,-1,0.722,0.138376674,-0.246987623,1,0,0,0.893,Diorite_rect,3,0.893,1,5,0,5,0,1,,,,,,,,,,,,,
662a2584d928ede39a60cdb1,TCR,2024-06-25_17h51.49.388,LearnStrategy,2023.2.3,MacIntel,142.8571429,9,1,7,0.03929403,-0.024590191,1,0,0,0.741,rock_grid_rect_2,2,16,-1,-1,0.741,-0.177997327,-0.232612061,1,0,0,2.596,Basalt_rect,2,2.596,1,6,0,6,0,1,,,,,,,,,,,,,
662a2584d928ede39a60cdb1,TCR,2024-06-25_17h51.49.388,LearnStrategy,2023.2.3,MacIntel,142.8571429,9,1,8,0.004762913,-0.019703244,1,0,0,0.709,rock_grid_rect_2,7,15,-1,-1,0.709,0.09318275,-0.380584846,1,0,0,1.027,Peridotite_rect,7,1.027,1,7,0,7,0,1,,,,,,,,,,,,,
662a2584d928ede39a60cdb1,TCR,2024-06-25_17h51.49.388,LearnStrategy,2023.2.3,MacIntel,142.8571429,9,1,9,-0.045781018,0.002846171,1,0,0,1.081,rock_grid_rect_2,4,10,-1,-1,1.081,-0.36403207,-0.262094987,1,0,0,1.118,Andesite_rect,1,1.118,0,8,0,8,0,1,,,,,,,,,,,,,
662a2584d928ede39a60cdb1,TCR,2024-06-25_17h51.49.388,LearnStrategy,2023.2.3,MacIntel,142.8571429,9,1,10,0.072241645,0.008506265,1,0,0,0.668,rock_grid_rect_2,7,15,-1,-1,0.668,0.093707828,-0.421284597,1,0,0,1.127,Peridotite_rect,7,1.127,1,9,0,9,0,1,,,,,,,,,,,,,
662a2584d928ede39a60cdb1,TCR,2024-06-25_17h51.49.388,LearnStrategy,2023.2.3,MacIntel,142.8571429,9,1,11,0.041646546,-0.00075082,1,0,0,0.957,rock_grid_rect_2,1,07,-1,-1,0.957,0.153951233,-0.257915035,1,0,0,1.295,Diorite_rect,3,1.295,0,10,0,10,0,1,,,,,,,,,,,,,
662a2584d928ede39a60cdb1,TCR,2024-06-25_17h51.49.388,LearnStrategy,2023.2.3,MacIntel,142.8571429,9,1,12,0.065039393,-0.005286337,1,0,0,0.698,rock_grid_rect_2,8,06,-1,-1,0.698,0.371275667,-0.418770838,1,0,0,1.036,Pumice_rect,8,1.036,1,11,0,11,0,1,,,,,,,,,,,,,
662a2584d928ede39a60cdb1,TCR,2024-06-25_17h51.49.388,LearnStrategy,2023.2.3,MacIntel,142.8571429,9,1,13,0.052644243,-0.016780172,1,0,0,1.399,rock_grid_rect_2,3,13,-1,-1,1.399,0.131029715,-0.241257244,1,0,0,1.46,Diorite_rect,3,1.46,1,12,0,12,0,1,,,,,,,,,,,,,
662a2584d928ede39a60cdb1,TCR,2024-06-25_17h51.49.388,LearnStrategy,2023.2.3,MacIntel,142.8571429,9,1,14,0.028966117,0.013033512,1,0,0,0.984,rock_grid_rect_2,1,01,-1,-1,0.984,0.325626951,-0.255074652,1,0,0,2.105,Gabbro_rect,4,2.105,0,13,0,13,0,1,,,,,,,,,,,,,
662a2584d928ede39a60cdb1,TCR,2024-06-25_17h51.49.388,LearnStrategy,2023.2.3,MacIntel,142.8571429,9,1,15,0.05126333,0.018739085,1,0,0,0.658,rock_grid_rect_2,4,11,-1,-1,0.658,-0.129623994,-0.266341091,1,0,0,1.219,Basalt_rect,2,1.219,0,14,0,14,0,1,,,,,,,,,,,,,
662a2584d928ede39a60cdb1,TCR,2024-06-25_17h51.49.388,LearnStrategy,2023.2.3,MacIntel,142.8571429,9,1,16,0.010737226,0.0065796,1,0,0,0.623,rock_grid_rect_2,5,08,-1,-1,0.623,-0.316758507,-0.398607013,1,0,0,0.985,Obsidian_rect,5,0.985,1,15,0,15,0,1,,,,,,,,,,,,,
662a2584d928ede39a60cdb1,TCR,2024-06-25_17h51.49.388,LearnStrategy,2023.2.3,MacIntel,142.8571429,9,2,1,,,,,,,,6,11,,,,,,,,,,,6,1.535,1,,,,,,-0.0809075,-0.409774225,1,0,0,1.535,Pegmatite_rect,0,0,0,0,1,
662a2584d928ede39a60cdb1,TCR,2024-06-25_17h51.49.388,LearnStrategy,2023.2.3,MacIntel,142.8571429,9,2,2,,,,,,,,6,12,,,,,,,,,,,1,5.09,0,,,,,,-0.351041556,-0.25144045,1,0,0,5.09,Andesite_rect,1,0,1,0,1,
662a2584d928ede39a60cdb1,TCR,2024-06-25_17h51.49.388,LearnStrategy,2023.2.3,MacIntel,142.8571429,9,2,3,,,,,,,,7,16,,,,,,,,,,,7,1.66,1,,,,,,0.129884466,-0.406222712,1,0,0,1.66,Peridotite_rect,2,0,2,0,1,
662a2584d928ede39a60cdb1,TCR,2024-06-25_17h51.49.388,LearnStrategy,2023.2.3,MacIntel,142.8571429,9,2,4,,,,,,,,1,10,,,,,,,,,,,1,4.447,1,,,,,,-0.439581294,-0.234993517,1,0,0,4.447,Andesite_rect,3,0,3,0,1,
662a2584d928ede39a60cdb1,TCR,2024-06-25_17h51.49.388,LearnStrategy,2023.2.3,MacIntel,142.8571429,9,2,5,,,,,,,,7,08,,,,,,,,,,,7,1.575,1,,,,,,0.079357073,-0.383917231,1,0,0,1.575,Peridotite_rect,4,0,4,0,1,
662a2584d928ede39a60cdb1,TCR,2024-06-25_17h51.49.388,LearnStrategy,2023.2.3,MacIntel,142.8571429,9,2,6,,,,,,,,2,14,,,,,,,,,,,4,1.356,0,,,,,,0.353067448,-0.238243213,1,0,0,1.356,Gabbro_rect,5,0,5,0,1,
662a2584d928ede39a60cdb1,TCR,2024-06-25_17h51.49.388,LearnStrategy,2023.2.3,MacIntel,142.8571429,9,2,7,,,,,,,,4,01,,,,,,,,,,,7,1.726,0,,,,,,0.10204706,-0.417588378,1,0,0,1.726,Peridotite_rect,6,0,6,0,1,
662a2584d928ede39a60cdb1,TCR,2024-06-25_17h51.49.388,LearnStrategy,2023.2.3,MacIntel,142.8571429,9,2,8,,,,,,,,4,14,,,,,,,,,,,4,1.443,1,,,,,,0.344575241,-0.250708649,1,0,0,1.443,Gabbro_rect,7,0,7,0,1,
662a2584d928ede39a60cdb1,TCR,2024-06-25_17h51.49.388,LearnStrategy,2023.2.3,MacIntel,142.8571429,9,2,9,,,,,,,,3,09,,,,,,,,,,,3,1.195,1,,,,,,0.138418018,-0.262305845,1,0,0,1.195,Diorite_rect,8,0,8,0,1,
662a2584d928ede39a60cdb1,TCR,2024-06-25_17h51.49.388,LearnStrategy,2023.2.3,MacIntel,142.8571429,9,2,10,,,,,,,,8,05,,,,,,,,,,,8,1.052,1,,,,,,0.363978322,-0.398156356,1,0,0,1.052,Pumice_rect,9,0,9,0,1,
662a2584d928ede39a60cdb1,TCR,2024-06-25_17h51.49.388,LearnStrategy,2023.2.3,MacIntel,142.8571429,9,2,11,,,,,,,,5,04,,,,,,,,,,,5,1.05,1,,,,,,-0.37223073,-0.403113589,1,0,0,1.05,Obsidian_rect,10,0,10,0,1,
662a2584d928ede39a60cdb1,TCR,2024-06-25_17h51.49.388,LearnStrategy,2023.2.3,MacIntel,142.8571429,9,2,12,,,,,,,,2,10,,,,,,,,,,,2,3.468,1,,,,,,-0.183215032,-0.25348288,1,0,0,3.468,Basalt_rect,11,0,11,0,1,
662a2584d928ede39a60cdb1,TCR,2024-06-25_17h51.49.388,LearnStrategy,2023.2.3,MacIntel,142.8571429,9,2,13,,,,,,,,3,11,,,,,,,,,,,3,1.17,1,,,,,,0.114227217,-0.259283545,1,0,0,1.17,Diorite_rect,12,0,12,0,1,
662a2584d928ede39a60cdb1,TCR,2024-06-25_17h51.49.388,LearnStrategy,2023.2.3,MacIntel,142.8571429,9,2,14,,,,,,,,8,09,,,,,,,,,,,8,1.101,1,,,,,,0.359343578,-0.418779107,1,0,0,1.101,Pumice_rect,13,0,13,0,1,
662a2584d928ede39a60cdb1,TCR,2024-06-25_17h51.49.388,LearnStrategy,2023.2.3,MacIntel,142.8571429,9,2,15,,,,,,,,1,02,,,,,,,,,,,1,2.168,1,,,,,,-0.338439683,-0.2626242,1,0,0,2.168,Andesite_rect,14,0,14,0,1,
662a2584d928ede39a60cdb1,TCR,2024-06-25_17h51.49.388,LearnStrategy,2023.2.3,MacIntel,142.8571429,9,2,16,,,,,,,,5,05,,,,,,,,,,,5,1.001,1,,,,,,-0.370829144,-0.379121243,1,0,0,1.001,Obsidian_rect,15,0,15,0,1,
662a2584d928ede39a60cdb1,TCR,2024-06-25_17h51.49.388,LearnStrategy,2023.2.3,MacIntel,142.8571429,,,,,,,,,,,,,,,,,,,,,,,,,,,,,,,,,,,,,,,,,,,1
662a2584d928ede39a60cdb1,TCR,2024-06-25_17h51.49.388,LearnStrategy,2023.2.3,MacIntel,142.8571429,,,,,,,,,,,,,,,,,,,,,,,,,,,,,,,,,,,,,,,,,,,
662a2584d928ede39a60cdb1,TCR,2024-06-25_17h51.49.388,LearnStrategy,2023.2.3,MacIntel,142.8571429,,,,,,,,,,,5,10,1,1,,,,,,,,,,,,,,,,,,,,,,,,,,,,,
662a2584d928ede39a60cdb1,TCR,2024-06-25_17h51.49.388,LearnStrategy,2023.2.3,MacIntel,142.8571429,,,,,,,,,,,8,04,1,2,,,,,,,,,,,,,,,,,,,,,,,,,,,,,
662a2584d928ede39a60cdb1,TCR,2024-06-25_17h51.49.388,LearnStrategy,2023.2.3,MacIntel,142.8571429,,,,,,,,,,,6,05,1,3,,,,,,,,,,,,,,,,,,,,,,,,,,,,,
662a2584d928ede39a60cdb1,TCR,2024-06-25_17h51.49.388,LearnStrategy,2023.2.3,MacIntel,142.8571429,,,,,,,,,,,2,09,1,4,,,,,,,,,,,,,,,,,,,,,,,,,,,,,
662a2584d928ede39a60cdb1,TCR,2024-06-25_17h51.49.388,LearnStrategy,2023.2.3,MacIntel,142.8571429,,,,,,,,,,,5,06,1,5,,,,,,,,,,,,,,,,,,,,,,,,,,,,,
662a2584d928ede39a60cdb1,TCR,2024-06-25_17h51.49.388,LearnStrategy,2023.2.3,MacIntel,142.8571429,,,,,,,,,,,7,05,1,6,,,,,,,,,,,,,,,,,,,,,,,,,,,,,
662a2584d928ede39a60cdb1,TCR,2024-06-25_17h51.49.388,LearnStrategy,2023.2.3,MacIntel,142.8571429,,,,,,,,,,,8,06,1,7,,,,,,,,,,,,,,,,,,,,,,,,,,,,,
662a2584d928ede39a60cdb1,TCR,2024-06-25_17h51.49.388,LearnStrategy,2023.2.3,MacIntel,142.8571429,,,,,,,,,,,4,03,1,8,,,,,,,,,,,,,,,,,,,,,,,,,,,,,
662a2584d928ede39a60cdb1,TCR,2024-06-25_17h51.49.388,LearnStrategy,2023.2.3,MacIntel,142.8571429,,,,,,,,,,,8,10,2,1,,,,,,,,,,,,,,,,,,,,,,,,,,,,,
662a2584d928ede39a60cdb1,TCR,2024-06-25_17h51.49.388,LearnStrategy,2023.2.3,MacIntel,142.8571429,,,,,,,,,,,7,02,2,2,,,,,,,,,,,,,,,,,,,,,,,,,,,,,
662a2584d928ede39a60cdb1,TCR,2024-06-25_17h51.49.388,LearnStrategy,2023.2.3,MacIntel,142.8571429,,,,,,,,,,,8,16,2,3,,,,,,,,,,,,,,,,,,,,,,,,,,,,,
662a2584d928ede39a60cdb1,TCR,2024-06-25_17h51.49.388,LearnStrategy,2023.2.3,MacIntel,142.8571429,,,,,,,,,,,4,10,2,4,,,,,,,,,,,,,,,,,,,,,,,,,,,,,
662a2584d928ede39a60cdb1,TCR,2024-06-25_17h51.49.388,LearnStrategy,2023.2.3,MacIntel,142.8571429,,,,,,,,,,,1,14,2,5,,,,,,,,,,,,,,,,,,,,,,,,,,,,,
662a2584d928ede39a60cdb1,TCR,2024-06-25_17h51.49.388,LearnStrategy,2023.2.3,MacIntel,142.8571429,,,,,,,,,,,2,04,2,6,,,,,,,,,,,,,,,,,,,,,,,,,,,,,
662a2584d928ede39a60cdb1,TCR,2024-06-25_17h51.49.388,LearnStrategy,2023.2.3,MacIntel,142.8571429,,,,,,,,,,,3,08,2,7,,,,,,,,,,,,,,,,,,,,,,,,,,,,,
662a2584d928ede39a60cdb1,TCR,2024-06-25_17h51.49.388,LearnStrategy,2023.2.3,MacIntel,142.8571429,,,,,,,,,,,6,16,2,8,,,,,,,,,,,,,,,,,,,,,,,,,,,,,
662a2584d928ede39a60cdb1,TCR,2024-06-25_17h51.49.388,LearnStrategy,2023.2.3,MacIntel,142.8571429,,,,,,,,,,,2,06,3,1,,,,,,,,,,,,,,,,,,,,,,,,,,,,,
662a2584d928ede39a60cdb1,TCR,2024-06-25_17h51.49.388,LearnStrategy,2023.2.3,MacIntel,142.8571429,,,,,,,,,,,1,01,3,2,,,,,,,,,,,,,,,,,,,,,,,,,,,,,
662a2584d928ede39a60cdb1,TCR,2024-06-25_17h51.49.388,LearnStrategy,2023.2.3,MacIntel,142.8571429,,,,,,,,,,,4,05,3,3,,,,,,,,,,,,,,,,,,,,,,,,,,,,,
662a2584d928ede39a60cdb1,TCR,2024-06-25_17h51.49.388,LearnStrategy,2023.2.3,MacIntel,142.8571429,,,,,,,,,,,2,16,3,4,,,,,,,,,,,,,,,,,,,,,,,,,,,,,
662a2584d928ede39a60cdb1,TCR,2024-06-25_17h51.49.388,LearnStrategy,2023.2.3,MacIntel,142.8571429,,,,,,,,,,,5,09,3,5,,,,,,,,,,,,,,,,,,,,,,,,,,,,,
662a2584d928ede39a60cdb1,TCR,2024-06-25_17h51.49.388,LearnStrategy,2023.2.3,MacIntel,142.8571429,,,,,,,,,,,2,05,3,6,,,,,,,,,,,,,,,,,,,,,,,,,,,,,
662a2584d928ede39a60cdb1,TCR,2024-06-25_17h51.49.388,LearnStrategy,2023.2.3,MacIntel,142.8571429,,,,,,,,,,,1,09,3,7,,,,,,,,,,,,,,,,,,,,,,,,,,,,,
662a2584d928ede39a60cdb1,TCR,2024-06-25_17h51.49.388,LearnStrategy,2023.2.3,MacIntel,142.8571429,,,,,,,,,,,3,07,3,8,,,,,,,,,,,,,,,,,,,,,,,,,,,,,
662a2584d928ede39a60cdb1,TCR,2024-06-25_17h51.49.388,LearnStrategy,2023.2.3,MacIntel,142.8571429,,,,,,,,,,,4,16,4,1,,,,,,,,,,,,,,,,,,,,,,,,,,,,,
662a2584d928ede39a60cdb1,TCR,2024-06-25_17h51.49.388,LearnStrategy,2023.2.3,MacIntel,142.8571429,,,,,,,,,,,3,10,4,2,,,,,,,,,,,,,,,,,,,,,,,,,,,,,
662a2584d928ede39a60cdb1,TCR,2024-06-25_17h51.49.388,LearnStrategy,2023.2.3,MacIntel,142.8571429,,,,,,,,,,,7,13,4,3,,,,,,,,,,,,,,,,,,,,,,,,,,,,,
662a2584d928ede39a60cdb1,TCR,2024-06-25_17h51.49.388,LearnStrategy,2023.2.3,MacIntel,142.8571429,,,,,,,,,,,3,13,4,4,,,,,,,,,,,,,,,,,,,,,,,,,,,,,
662a2584d928ede39a60cdb1,TCR,2024-06-25_17h51.49.388,LearnStrategy,2023.2.3,MacIntel,142.8571429,,,,,,,,,,,3,06,4,5,,,,,,,,,,,,,,,,,,,,,,,,,,,,,
662a2584d928ede39a60cdb1,TCR,2024-06-25_17h51.49.388,LearnStrategy,2023.2.3,MacIntel,142.8571429,,,,,,,,,,,6,03,4,6,,,,,,,,,,,,,,,,,,,,,,,,,,,,,
662a2584d928ede39a60cdb1,TCR,2024-06-25_17h51.49.388,LearnStrategy,2023.2.3,MacIntel,142.8571429,,,,,,,,,,,8,02,4,7,,,,,,,,,,,,,,,,,,,,,,,,,,,,,
662a2584d928ede39a60cdb1,TCR,2024-06-25_17h51.49.388,LearnStrategy,2023.2.3,MacIntel,142.8571429,,,,,,,,,,,7,10,4,8,,,,,,,,,,,,,,,,,,,,,,,,,,,,,
662a2584d928ede39a60cdb1,TCR,2024-06-25_17h51.49.388,LearnStrategy,2023.2.3,MacIntel,142.8571429,,,,,,,,,,,4,15,5,1,,,,,,,,,,,,,,,,,,,,,,,,,,,,,
662a2584d928ede39a60cdb1,TCR,2024-06-25_17h51.49.388,LearnStrategy,2023.2.3,MacIntel,142.8571429,,,,,,,,,,,3,16,5,2,,,,,,,,,,,,,,,,,,,,,,,,,,,,,
662a2584d928ede39a60cdb1,TCR,2024-06-25_17h51.49.388,LearnStrategy,2023.2.3,MacIntel,142.8571429,,,,,,,,,,,5,11,5,3,,,,,,,,,,,,,,,,,,,,,,,,,,,,,
662a2584d928ede39a60cdb1,TCR,2024-06-25_17h51.49.388,LearnStrategy,2023.2.3,MacIntel,142.8571429,,,,,,,,,,,7,14,5,4,,,,,,,,,,,,,,,,,,,,,,,,,,,,,
662a2584d928ede39a60cdb1,TCR,2024-06-25_17h51.49.388,LearnStrategy,2023.2.3,MacIntel,142.8571429,,,,,,,,,,,8,15,5,5,,,,,,,,,,,,,,,,,,,,,,,,,,,,,
662a2584d928ede39a60cdb1,TCR,2024-06-25_17h51.49.388,LearnStrategy,2023.2.3,MacIntel,142.8571429,,,,,,,,,,,5,02,5,6,,,,,,,,,,,,,,,,,,,,,,,,,,,,,
662a2584d928ede39a60cdb1,TCR,2024-06-25_17h51.49.388,LearnStrategy,2023.2.3,MacIntel,142.8571429,,,,,,,,,,,1,07,5,7,,,,,,,,,,,,,,,,,,,,,,,,,,,,,
662a2584d928ede39a60cdb1,TCR,2024-06-25_17h51.49.388,LearnStrategy,2023.2.3,MacIntel,142.8571429,,,,,,,,,,,7,15,5,8,,,,,,,,,,,,,,,,,,,,,,,,,,,,,
662a2584d928ede39a60cdb1,TCR,2024-06-25_17h51.49.388,LearnStrategy,2023.2.3,MacIntel,142.8571429,,,,,,,,,,,5,08,6,1,,,,,,,,,,,,,,,,,,,,,,,,,,,,,
662a2584d928ede39a60cdb1,TCR,2024-06-25_17h51.49.388,LearnStrategy,2023.2.3,MacIntel,142.8571429,,,,,,,,,,,1,03,6,2,,,,,,,,,,,,,,,,,,,,,,,,,,,,,
662a2584d928ede39a60cdb1,TCR,2024-06-25_17h51.49.388,LearnStrategy,2023.2.3,MacIntel,142.8571429,,,,,,,,,,,6,06,6,3,,,,,,,,,,,,,,,,,,,,,,,,,,,,,
662a2584d928ede39a60cdb1,TCR,2024-06-25_17h51.49.388,LearnStrategy,2023.2.3,MacIntel,142.8571429,,,,,,,,,,,6,10,6,4,,,,,,,,,,,,,,,,,,,,,,,,,,,,,
662a2584d928ede39a60cdb1,TCR,2024-06-25_17h51.49.388,LearnStrategy,2023.2.3,MacIntel,142.8571429,,,,,,,,,,,4,11,6,5,,,,,,,,,,,,,,,,,,,,,,,,,,,,,
662a2584d928ede39a60cdb1,TCR,2024-06-25_17h51.49.388,LearnStrategy,2023.2.3,MacIntel,142.8571429,,,,,,,,,,,2,11,6,6,,,,,,,,,,,,,,,,,,,,,,,,,,,,,
662a2584d928ede39a60cdb1,TCR,2024-06-25_17h51.49.388,LearnStrategy,2023.2.3,MacIntel,142.8571429,,,,,,,,,,,1,05,6,7,,,,,,,,,,,,,,,,,,,,,,,,,,,,,
662a2584d928ede39a60cdb1,TCR,2024-06-25_17h51.49.388,LearnStrategy,2023.2.3,MacIntel,142.8571429,,,,,,,,,,,6,15,6,8,,,,,,,,,,,,,,,,,,,,,,,,,,,,,